time	acceleration_x	acceleration_y	acceleration_z	gyroscope_x	gyroscope_y	gyroscope_z	magnetometer_x	magnetometer_y	magnetometer_z	quaternion_w	quaternion_x	quaternion_y	quaternion_z
0	0.8888	-9.6517	2.5782	0.0511	0.0388	0.0334	21.1929	16.7585	6.3839	0.7739	-0.6088	0.0820	-0.1541
0.01	0.8352	-9.6180	2.5842	0.0577	0.0463	0.0400	21.3111	16.6770	6.2471	0.7741	-0.6085	0.0822	-0.1541
0.02	0.7862	-9.5956	2.5889	0.0611	0.0435	0.0447	21.4127	16.6566	6.3870	0.7743	-0.6083	0.0825	-0.1540
0.03	0.7452	-9.5764	2.5981	0.0685	0.0487	0.0398	21.5396	16.3881	6.5011	0.7745	-0.6080	0.0827	-0.1539
0.04	0.7228	-9.5465	2.6080	0.0643	0.0401	0.0403	21.6153	16.3435	6.0979	0.7747	-0.6077	0.0829	-0.1539
0.05	0.7028	-9.5168	2.6141	0.0707	0.0436	0.0424	21.4318	16.5481	6.1853	0.7750	-0.6074	0.0831	-0.1538
0.06	0.6942	-9.5048	2.6226	0.0577	0.0456	0.0445	21.4337	16.7204	6.2136	0.7751	-0.6071	0.0834	-0.1537
0.07	0.6907	-9.4982	2.6299	0.0510	0.0386	0.0454	21.5339	16.6636	6.3151	0.7754	-0.6069	0.0836	-0.1537
0.08	0.6850	-9.5129	2.6432	0.0412	0.0421	0.0467	21.5237	16.7486	6.1323	0.7755	-0.6067	0.0839	-0.1535
0.09	0.6809	-9.5404	2.6481	0.0417	0.0400	0.0443	21.5300	16.5365	6.3833	0.7757	-0.6065	0.0841	-0.1535
0.1	0.6703	-9.5233	2.6510	0.0288	0.0439	0.0426	21.4359	16.5156	6.4004	0.7757	-0.6063	0.0844	-0.1534
0.11	0.6618	-9.5286	2.6400	0.0165	0.0446	0.0405	21.5223	16.6150	6.2742	0.7758	-0.6062	0.0847	-0.1533
0.12	0.6538	-9.5520	2.6313	0.0143	0.0502	0.0355	21.3806	16.6463	6.3100	0.7759	-0.6061	0.0849	-0.1533
0.13	0.6394	-9.5345	2.6232	0.0162	0.0526	0.0381	21.5466	16.7247	6.2845	0.7759	-0.6059	0.0852	-0.1533
0.14	0.6234	-9.5295	2.6212	0.0049	0.0500	0.0374	21.4107	16.6737	6.4105	0.7760	-0.6059	0.0854	-0.1533
0.15	0.5956	-9.5651	2.6227	-0.0077	0.0508	0.0402	21.4588	16.5724	6.3907	0.7760	-0.6059	0.0857	-0.1532
0.16	0.5720	-9.5800	2.6139	-0.0034	0.0566	0.0413	21.6119	16.4603	6.3935	0.7760	-0.6058	0.0860	-0.1532
0.17	0.5461	-9.5899	2.5995	-0.0042	0.0506	0.0415	21.6155	16.7304	6.3907	0.7759	-0.6057	0.0863	-0.1531
0.18	0.5181	-9.5713	2.5922	-0.0091	0.0528	0.0432	21.6155	16.6578	6.5000	0.7760	-0.6058	0.0865	-0.1531
0.19	0.4964	-9.5685	2.5852	-0.0076	0.0560	0.0353	21.6169	16.4416	6.4919	0.7760	-0.6057	0.0868	-0.1531
0.2	0.4697	-9.5751	2.5781	-0.0063	0.0518	0.0373	21.9352	16.3601	6.4342	0.7759	-0.6057	0.0871	-0.1531
0.21	0.4347	-9.5611	2.5734	-0.0101	0.0514	0.0383	22.1961	16.3294	6.2704	0.7760	-0.6057	0.0873	-0.1531
0.22	0.4105	-9.5807	2.5695	-0.0120	0.0434	0.0255	21.9659	16.5086	6.4925	0.7759	-0.6057	0.0875	-0.1531
0.23	0.3978	-9.5881	2.5619	-0.0091	0.0464	0.0286	21.8064	16.4998	6.4211	0.7760	-0.6057	0.0877	-0.1531
0.24	0.3862	-9.5794	2.5630	-0.0048	0.0420	0.0202	21.6991	16.2411	6.3939	0.7759	-0.6056	0.0879	-0.1531
0.25	0.3782	-9.5922	2.5627	-0.0100	0.0304	0.0127	21.6891	16.1493	6.5154	0.7759	-0.6056	0.0880	-0.1531
0.26	0.3771	-9.5861	2.5559	-0.0027	0.0268	0.0039	21.8883	16.2038	6.5218	0.7759	-0.6056	0.0881	-0.1532
0.27	0.3728	-9.5925	2.5555	-0.0071	0.0194	0.0048	22.1022	16.3567	6.6861	0.7759	-0.6056	0.0881	-0.1532
0.28	0.3797	-9.5975	2.5583	-0.0003	0.0235	-0.0025	22.4140	16.3681	6.7277	0.7759	-0.6056	0.0881	-0.1532
0.29	0.4043	-9.6111	2.5662	-0.0053	0.0164	-0.0078	21.9710	16.3879	6.4260	0.7759	-0.6056	0.0881	-0.1533
0.3	0.4181	-9.6353	2.5842	-0.0015	0.0117	-0.0101	21.8335	16.3020	6.5417	0.7759	-0.6056	0.0882	-0.1533
0.31	0.4308	-9.6352	2.5891	0.0031	0.0190	-0.0096	21.9671	16.1674	6.4201	0.7758	-0.6056	0.0882	-0.1533
0.32	0.4467	-9.6100	2.5948	0.0126	0.0132	-0.0199	21.8194	16.4026	6.7089	0.7759	-0.6056	0.0882	-0.1534
0.33	0.4608	-9.5978	2.5991	0.0082	0.0135	-0.0245	21.7206	16.2529	6.8269	0.7759	-0.6055	0.0881	-0.1535
0.34	0.4597	-9.5814	2.5871	0.0103	0.0096	-0.0289	21.6441	16.3284	6.5820	0.7760	-0.6056	0.0880	-0.1536
0.35	0.4619	-9.5266	2.5886	0.0098	0.0094	-0.0326	21.7814	16.3314	6.2978	0.7759	-0.6054	0.0879	-0.1537
0.36	0.4794	-9.5244	2.5821	-0.0048	-0.0001	-0.0341	21.7545	16.3680	6.5699	0.7759	-0.6055	0.0877	-0.1538
0.37	0.5010	-9.5277	2.5835	-0.0102	-0.0049	-0.0345	21.7842	16.6295	6.5451	0.7759	-0.6055	0.0875	-0.1539
0.38	0.5280	-9.5302	2.5976	-0.0099	-0.0138	-0.0351	21.7361	16.5411	6.3683	0.7758	-0.6056	0.0873	-0.1540
0.39	0.5526	-9.5587	2.6005	-0.0173	-0.0107	-0.0321	21.8932	16.2837	6.7062	0.7758	-0.6057	0.0872	-0.1541
0.4	0.5648	-9.5764	2.6023	-0.0250	-0.0127	-0.0366	22.0657	16.2815	6.5702	0.7757	-0.6058	0.0869	-0.1541
0.41	0.5878	-9.5946	2.6038	-0.0184	-0.0104	-0.0294	21.5408	16.3646	6.2565	0.7757	-0.6059	0.0868	-0.1542
0.42	0.6044	-9.5785	2.5901	-0.0218	-0.0045	-0.0327	21.7847	16.2461	6.3446	0.7755	-0.6059	0.0866	-0.1542
0.43	0.6166	-9.5440	2.5774	-0.0256	-0.0018	-0.0263	21.8493	16.2290	6.4913	0.7755	-0.6061	0.0865	-0.1543
0.44	0.6397	-9.5443	2.5663	-0.0304	0.0004	-0.0222	21.7386	16.3138	6.5823	0.7754	-0.6062	0.0864	-0.1543
0.45	0.6326	-9.5752	2.5556	-0.0414	0.0021	-0.0186	21.7725	16.3331	6.4234	0.7753	-0.6063	0.0863	-0.1544
0.46	0.6177	-9.5925	2.5432	-0.0503	0.0083	-0.0108	21.7736	16.3652	6.6644	0.7752	-0.6065	0.0863	-0.1544
0.47	0.6128	-9.6131	2.5266	-0.0555	0.0011	-0.0123	21.5996	16.3936	6.7364	0.7750	-0.6067	0.0863	-0.1544
0.48	0.6063	-9.6407	2.5206	-0.0564	0.0107	-0.0098	21.6469	16.1682	6.7366	0.7748	-0.6070	0.0863	-0.1544
0.49	0.5989	-9.6885	2.5160	-0.0502	0.0142	-0.0115	21.6833	16.4595	6.6306	0.7746	-0.6071	0.0864	-0.1544
0.5	0.5956	-9.7185	2.5030	-0.0400	0.0065	-0.0082	21.6884	16.4145	6.7449	0.7745	-0.6074	0.0864	-0.1544
0.51	0.5927	-9.7244	2.4988	-0.0340	0.0134	-0.0114	21.6334	16.4586	6.6816	0.7744	-0.6075	0.0864	-0.1544
0.52	0.5831	-9.7708	2.4857	-0.0187	0.0067	-0.0078	21.8346	16.5871	6.5754	0.7743	-0.6076	0.0864	-0.1544
0.53	0.5717	-9.7493	2.4729	0.0043	0.0175	-0.0112	21.8689	16.2605	6.7845	0.7743	-0.6075	0.0864	-0.1544
0.54	0.5768	-9.7107	2.4755	0.0152	0.0208	-0.0091	21.6019	16.4611	6.7598	0.7743	-0.6075	0.0865	-0.1544
0.55	0.5873	-9.6819	2.4676	0.0188	0.0223	-0.0102	21.9800	16.6590	6.5587	0.7744	-0.6074	0.0865	-0.1545
0.56	0.5946	-9.5536	2.4752	0.0312	0.0201	-0.0147	21.7810	16.5279	6.7462	0.7744	-0.6073	0.0865	-0.1545
0.57	0.6110	-9.5213	2.4983	0.0199	0.0168	-0.0099	21.5419	16.3608	6.7073	0.7746	-0.6073	0.0865	-0.1546
0.58	0.6448	-9.5456	2.5126	0.0152	0.0210	-0.0131	21.7768	16.2823	6.5848	0.7746	-0.6072	0.0865	-0.1546
0.59	0.6588	-9.5844	2.5294	0.0055	0.0274	-0.0209	21.9564	16.5738	6.7365	0.7746	-0.6072	0.0865	-0.1548
0.6	0.6510	-9.5694	2.5303	-0.0009	0.0336	-0.0218	21.9307	16.4173	6.6174	0.7745	-0.6071	0.0866	-0.1549
0.61	0.6394	-9.5670	2.5310	-0.0062	0.0355	-0.0155	21.8432	16.1746	6.6587	0.7745	-0.6071	0.0867	-0.1550
0.62	0.6279	-9.5486	2.5262	0.0014	0.0374	-0.0225	21.8490	16.2479	6.5824	0.7745	-0.6071	0.0867	-0.1551
0.63	0.6233	-9.5482	2.5272	0.0063	0.0445	-0.0142	21.8822	16.4741	6.8246	0.7744	-0.6071	0.0868	-0.1552
0.64	0.6273	-9.6013	2.5660	-0.0024	0.0330	-0.0164	21.7184	16.4073	6.7829	0.7745	-0.6071	0.0869	-0.1554
0.65	0.6095	-9.5921	2.5981	-0.0095	0.0422	-0.0172	21.5677	16.4505	6.5881	0.7744	-0.6071	0.0870	-0.1555
0.66	0.6153	-9.6604	2.5658	-0.0108	0.0463	-0.0071	21.7817	16.1532	6.6207	0.7744	-0.6072	0.0872	-0.1556
0.67	0.5918	-9.5574	2.5806	0.0074	0.0452	-0.0096	21.7594	16.2770	6.8210	0.7743	-0.6070	0.0873	-0.1557
0.68	0.5633	-9.5629	2.5685	-0.0049	0.0461	-0.0016	21.7624	16.2163	6.8033	0.7743	-0.6071	0.0874	-0.1558
0.69	0.5359	-9.5568	2.5694	-0.0078	0.0459	0.0020	21.5930	16.3628	6.6918	0.7743	-0.6071	0.0876	-0.1559
0.7	0.5054	-9.5395	2.5683	-0.0279	0.0438	0.0038	21.5845	16.4470	6.7166	0.7742	-0.6071	0.0877	-0.1559
0.71	0.4821	-9.5773	2.5481	-0.0363	0.0447	0.0033	21.5843	16.5192	6.9048	0.7741	-0.6072	0.0879	-0.1560
0.72	0.4691	-9.5810	2.5370	-0.0351	0.0389	0.0018	21.7308	16.6345	7.0452	0.7740	-0.6073	0.0880	-0.1561
0.73	0.4487	-9.6401	2.5322	-0.0382	0.0336	-0.0046	21.5774	16.3838	6.6737	0.7739	-0.6074	0.0882	-0.1562
0.74	0.4455	-9.6583	2.5150	-0.0363	0.0260	-0.0054	21.6823	16.5506	6.9317	0.7737	-0.6075	0.0883	-0.1562
0.75	0.4424	-9.6395	2.5150	-0.0456	0.0191	-0.0092	21.7620	16.4796	6.9623	0.7736	-0.6077	0.0883	-0.1562
0.76	0.4460	-9.7101	2.4968	-0.0417	0.0125	-0.0078	21.8210	16.2785	6.7935	0.7735	-0.6079	0.0884	-0.1562
0.77	0.4652	-9.7425	2.4888	-0.0304	0.0106	-0.0087	22.1108	16.4354	7.0221	0.7734	-0.6080	0.0884	-0.1562
0.78	0.4802	-9.7206	2.4803	-0.0116	-0.0040	-0.0114	22.3576	16.4598	7.0497	0.7733	-0.6081	0.0884	-0.1561
0.79	0.5013	-9.6951	2.4869	-0.0008	-0.0067	-0.0090	22.0853	16.4486	6.8642	0.7733	-0.6081	0.0883	-0.1561
0.8	0.5277	-9.7104	2.4957	0.0051	-0.0160	-0.0097	21.9195	16.2707	6.7128	0.7734	-0.6081	0.0882	-0.1560
0.81	0.5600	-9.6909	2.5018	0.0183	-0.0150	-0.0080	21.7739	16.4891	7.1272	0.7733	-0.6080	0.0881	-0.1559
0.82	0.5823	-9.6288	2.5032	0.0283	-0.0063	-0.0064	21.7641	16.3649	6.6124	0.7735	-0.6080	0.0880	-0.1559
0.83	0.5928	-9.5881	2.5039	0.0238	-0.0057	-0.0052	21.7964	16.2054	6.6718	0.7736	-0.6079	0.0880	-0.1559
0.84	0.5908	-9.5658	2.5120	0.0158	-0.0044	-0.0087	21.7154	16.2507	7.0267	0.7737	-0.6079	0.0879	-0.1558
0.85	0.5975	-9.5798	2.5222	0.0143	-0.0036	-0.0080	21.5696	16.2277	6.7126	0.7736	-0.6078	0.0878	-0.1558
0.86	0.5949	-9.5833	2.5171	0.0053	0.0088	-0.0072	21.7498	16.3452	6.7935	0.7737	-0.6078	0.0878	-0.1558
0.87	0.5871	-9.5439	2.5192	0.0085	0.0143	-0.0063	21.7621	16.6909	6.8856	0.7737	-0.6078	0.0878	-0.1558
0.88	0.5808	-9.5875	2.5144	-0.0057	0.0178	-0.0084	21.5602	16.5177	6.7347	0.7736	-0.6078	0.0879	-0.1558
0.89	0.5749	-9.5994	2.5180	-0.0043	0.0174	-0.0087	21.7470	16.4095	6.7862	0.7737	-0.6079	0.0879	-0.1558
0.9	0.5699	-9.6120	2.5253	-0.0131	0.0194	-0.0101	21.7531	16.2348	6.8452	0.7736	-0.6078	0.0880	-0.1559
0.91	0.5542	-9.6314	2.5268	-0.0015	0.0209	-0.0032	21.6631	16.3655	6.6983	0.7737	-0.6079	0.0880	-0.1559
0.92	0.5306	-9.6267	2.5268	0.0022	0.0204	-0.0006	21.7772	16.4416	6.8984	0.7736	-0.6078	0.0881	-0.1559
0.93	0.5111	-9.6257	2.5150	-0.0047	0.0222	0.0019	21.9177	16.2958	6.6835	0.7736	-0.6079	0.0882	-0.1559
0.94	0.5092	-9.6050	2.5180	0.0036	0.0231	-0.0020	21.7784	16.4951	6.7215	0.7736	-0.6078	0.0882	-0.1559
0.95	0.5094	-9.5975	2.5180	-0.0034	0.0226	-0.0047	21.8653	16.2355	6.7713	0.7736	-0.6078	0.0883	-0.1559
0.96	0.5001	-9.5831	2.5128	0.0159	0.0235	-0.0010	21.8503	16.1523	6.7767	0.7736	-0.6078	0.0884	-0.1559
0.97	0.4922	-9.5522	2.5137	0.0002	0.0297	-0.0013	21.6641	16.1312	6.7313	0.7736	-0.6077	0.0884	-0.1560
0.98	0.4838	-9.5441	2.5208	-0.0045	0.0273	0.0055	21.8747	16.2170	6.8885	0.7737	-0.6077	0.0885	-0.1560
0.99	0.4739	-9.5559	2.5114	-0.0140	0.0282	0.0057	21.9395	16.2488	7.0014	0.7736	-0.6077	0.0886	-0.1560
1	0.4747	-9.5571	2.5022	-0.0226	0.0257	0.0008	22.0736	16.2394	6.6774	0.7736	-0.6078	0.0887	-0.1561
1.01	0.4713	-9.5460	2.4941	-0.0198	0.0173	-0.0072	21.7075	16.2154	6.6993	0.7735	-0.6078	0.0887	-0.1561
1.02	0.4717	-9.5481	2.4911	-0.0371	0.0244	-0.0106	21.9788	16.3218	6.6169	0.7734	-0.6079	0.0887	-0.1562
1.03	0.4706	-9.5864	2.4923	-0.0351	0.0238	-0.0053	21.8375	16.2359	6.9209	0.7733	-0.6080	0.0888	-0.1562
1.04	0.4710	-9.6326	2.4937	-0.0355	0.0205	0.0048	21.9242	16.2420	6.8948	0.7732	-0.6081	0.0889	-0.1562
1.05	0.4801	-9.6626	2.4932	-0.0454	0.0236	-0.0058	21.8941	16.2191	6.9204	0.7731	-0.6083	0.0890	-0.1562
1.06	0.4797	-9.6896	2.4850	-0.0390	0.0253	-0.0047	21.6196	16.3268	6.8681	0.7729	-0.6084	0.0891	-0.1562
1.07	0.4760	-9.6898	2.4696	-0.0341	0.0330	-0.0083	21.8627	16.2235	6.8586	0.7729	-0.6086	0.0892	-0.1563
1.08	0.4799	-9.6716	2.4602	-0.0357	0.0290	-0.0008	21.8183	16.2474	6.9756	0.7727	-0.6087	0.0893	-0.1563
1.09	0.4840	-9.6557	2.4376	-0.0349	0.0261	-0.0011	21.7829	16.2469	6.9801	0.7727	-0.6089	0.0895	-0.1563
1.1	0.4799	-9.6324	2.4189	-0.0348	0.0363	-0.0008	21.6869	16.6619	7.1680	0.7724	-0.6089	0.0896	-0.1563
1.11	0.4658	-9.6345	2.4043	-0.0371	0.0358	-0.0007	21.5865	16.3831	7.0790	0.7724	-0.6091	0.0898	-0.1563
1.12	0.4536	-9.6559	2.3917	-0.0469	0.0422	0.0030	21.9745	16.3902	7.0442	0.7722	-0.6092	0.0900	-0.1564
1.13	0.4481	-9.6604	2.3834	-0.0423	0.0413	0.0005	21.8791	16.3553	7.2874	0.7720	-0.6093	0.0902	-0.1564
1.14	0.4476	-9.6854	2.3857	-0.0426	0.0380	-0.0024	21.7593	16.2433	6.9495	0.7720	-0.6096	0.0903	-0.1565
1.15	0.4476	-9.7153	2.3837	-0.0444	0.0479	-0.0051	22.0769	16.1815	6.8770	0.7718	-0.6096	0.0905	-0.1565
1.16	0.4317	-9.7235	2.3809	-0.0356	0.0489	-0.0072	21.9541	16.0031	6.9869	0.7717	-0.6098	0.0907	-0.1566
1.17	0.4154	-9.7253	2.3831	-0.0269	0.0457	-0.0073	22.0425	16.1810	6.9266	0.7715	-0.6098	0.0909	-0.1567
1.18	0.4043	-9.7262	2.3813	-0.0212	0.0447	-0.0091	22.0457	16.1515	7.2016	0.7715	-0.6099	0.0910	-0.1568
1.19	0.3989	-9.7235	2.3832	-0.0092	0.0400	-0.0078	22.0520	16.1263	7.0640	0.7714	-0.6099	0.0912	-0.1569
1.2	0.3995	-9.7269	2.3882	-0.0038	0.0362	-0.0087	21.9867	15.9675	7.0369	0.7714	-0.6099	0.0913	-0.1570
1.21	0.4042	-9.7053	2.3981	0.0069	0.0254	-0.0077	21.8235	15.9783	7.0613	0.7714	-0.6099	0.0914	-0.1570
1.22	0.4092	-9.6627	2.3948	0.0145	0.0220	-0.0072	22.0494	15.9910	7.1580	0.7714	-0.6098	0.0914	-0.1571
1.23	0.4122	-9.6036	2.3908	0.0106	0.0103	-0.0077	21.9699	16.1553	7.1150	0.7715	-0.6098	0.0914	-0.1571
1.24	0.4298	-9.6300	2.4058	0.0001	0.0178	-0.0088	21.9677	16.1538	7.2193	0.7714	-0.6097	0.0914	-0.1571
1.25	0.4477	-9.6759	2.4064	-0.0080	0.0078	-0.0087	21.9172	16.1608	7.2490	0.7714	-0.6098	0.0915	-0.1571
1.26	0.4527	-9.6734	2.4169	-0.0021	-0.0023	-0.0087	21.8977	16.3073	7.3363	0.7714	-0.6098	0.0914	-0.1570
1.27	0.4686	-9.6682	2.4241	0.0018	0.0046	-0.0085	22.2900	16.3817	7.2938	0.7714	-0.6099	0.0914	-0.1570
1.28	0.4968	-9.6652	2.4386	0.0159	0.0016	-0.0051	22.5719	16.5798	7.4701	0.7714	-0.6098	0.0914	-0.1570
1.29	0.5068	-9.6718	2.4406	0.0173	0.0035	-0.0017	22.1402	16.3845	7.2034	0.7715	-0.6097	0.0914	-0.1569
1.3	0.5017	-9.6500	2.4464	0.0166	0.0089	-0.0059	22.0053	16.3000	7.0795	0.7716	-0.6097	0.0914	-0.1569
1.31	0.4871	-9.6236	2.4590	0.0172	0.0105	0.0052	21.8951	16.2329	7.1851	0.7716	-0.6096	0.0914	-0.1569
1.32	0.4639	-9.6085	2.4538	0.0166	0.0147	-0.0009	21.7443	16.1224	7.4225	0.7717	-0.6096	0.0914	-0.1569
1.33	0.4427	-9.5932	2.4666	0.0168	0.0120	-0.0030	22.2860	16.1852	7.2024	0.7717	-0.6095	0.0914	-0.1569
1.34	0.4356	-9.5971	2.4661	0.0143	0.0120	-0.0041	22.0689	16.0895	7.2223	0.7718	-0.6095	0.0915	-0.1569
1.35	0.4247	-9.5824	2.4646	-0.0026	0.0090	-0.0099	22.0622	16.1267	7.1029	0.7717	-0.6094	0.0915	-0.1568
1.36	0.4161	-9.5611	2.4597	-0.0119	0.0104	-0.0077	22.1453	16.0022	6.9895	0.7717	-0.6095	0.0915	-0.1569
1.37	0.4102	-9.5710	2.4504	-0.0109	0.0053	-0.0089	22.0118	16.2129	7.0669	0.7717	-0.6095	0.0914	-0.1569
1.38	0.4134	-9.5843	2.4453	-0.0287	0.0089	-0.0128	22.1438	16.2056	7.2070	0.7716	-0.6095	0.0914	-0.1569
1.39	0.4205	-9.6193	2.4342	-0.0268	0.0127	-0.0135	22.1774	16.1091	7.2037	0.7716	-0.6097	0.0914	-0.1569
1.4	0.4328	-9.6561	2.4263	-0.0317	0.0024	-0.0085	22.0696	16.2573	7.0475	0.7715	-0.6098	0.0914	-0.1569
1.41	0.4555	-9.6766	2.4220	-0.0319	-0.0041	-0.0085	21.6940	16.3180	7.2525	0.7714	-0.6100	0.0914	-0.1568
1.42	0.4705	-9.6801	2.4159	-0.0319	0.0014	-0.0111	22.1146	16.1839	7.3396	0.7712	-0.6100	0.0914	-0.1568
1.43	0.4821	-9.6802	2.4113	-0.0276	0.0085	-0.0100	21.8962	16.2200	6.9987	0.7712	-0.6102	0.0914	-0.1568
1.44	0.4957	-9.7068	2.4101	-0.0252	0.0077	-0.0129	22.1044	16.1752	7.0866	0.7711	-0.6103	0.0914	-0.1567
1.45	0.4963	-9.7071	2.4084	-0.0128	0.0113	-0.0101	22.1099	16.3032	7.0920	0.7710	-0.6103	0.0915	-0.1567
1.46	0.5009	-9.7037	2.4150	-0.0080	0.0189	-0.0085	21.9163	16.1768	7.2314	0.7710	-0.6104	0.0915	-0.1568
1.47	0.4974	-9.6882	2.4113	-0.0053	0.0133	-0.0088	21.8858	16.1094	7.4210	0.7710	-0.6104	0.0915	-0.1568
1.48	0.4793	-9.6717	2.4118	-0.0047	0.0146	-0.0087	21.8622	16.3020	7.3738	0.7710	-0.6105	0.0916	-0.1568
1.49	0.4690	-9.6665	2.4173	-0.0014	0.0215	-0.0083	21.9631	16.2810	7.3019	0.7709	-0.6104	0.0916	-0.1568
1.5	0.4603	-9.6664	2.4269	-0.0064	0.0206	-0.0094	22.0841	16.2946	7.1692	0.7710	-0.6105	0.0917	-0.1568
1.51	0.4474	-9.6526	2.4316	-0.0014	0.0251	-0.0059	21.8841	16.1169	7.2029	0.7709	-0.6104	0.0918	-0.1569
1.52	0.4334	-9.6471	2.4286	0.0013	0.0204	-0.0057	22.1589	16.1250	6.9598	0.7709	-0.6105	0.0918	-0.1569
1.53	0.4177	-9.6278	2.4302	0.0070	0.0194	-0.0077	22.1276	16.0109	7.2648	0.7709	-0.6104	0.0919	-0.1569
1.54	0.4084	-9.6189	2.4322	-0.0011	0.0246	-0.0056	21.9345	16.0526	7.3895	0.7709	-0.6104	0.0919	-0.1569
1.55	0.3904	-9.6294	2.4308	-0.0032	0.0213	-0.0076	21.9632	16.1746	7.2521	0.7709	-0.6104	0.0920	-0.1569
1.56	0.3746	-9.6208	2.4391	-0.0041	0.0171	-0.0087	22.0498	16.2935	7.3264	0.7708	-0.6104	0.0920	-0.1569
1.57	0.3685	-9.6109	2.4394	-0.0047	0.0146	-0.0083	22.1573	16.2845	7.0384	0.7709	-0.6105	0.0921	-0.1570
1.58	0.3654	-9.6149	2.4426	-0.0074	0.0131	-0.0087	22.0236	15.6998	7.3401	0.7708	-0.6105	0.0921	-0.1570
1.59	0.3679	-9.6255	2.4509	-0.0020	0.0176	-0.0072	22.0735	15.9942	7.1830	0.7709	-0.6105	0.0921	-0.1570
1.6	0.3708	-9.6208	2.4474	0.0004	0.0057	-0.0077	22.0438	16.0488	7.4041	0.7708	-0.6104	0.0921	-0.1570
1.61	0.3761	-9.6176	2.4547	-0.0082	0.0094	-0.0076	22.1790	16.0278	7.4900	0.7708	-0.6105	0.0921	-0.1570
1.62	0.3757	-9.6285	2.4567	-0.0147	0.0102	-0.0082	22.1226	16.1991	7.3072	0.7708	-0.6105	0.0921	-0.1570
1.63	0.3727	-9.6184	2.4510	-0.0195	0.0062	-0.0083	22.1817	16.2141	7.1955	0.7707	-0.6105	0.0921	-0.1570
1.64	0.3696	-9.6023	2.4333	-0.0275	0.0039	-0.0085	21.9022	15.9969	7.3048	0.7708	-0.6107	0.0921	-0.1570
1.65	0.3839	-9.5893	2.4140	-0.0353	-0.0090	-0.0089	21.9122	16.0549	7.2822	0.7706	-0.6108	0.0921	-0.1569
1.66	0.4043	-9.6009	2.4105	-0.0338	-0.0067	-0.0086	22.2111	16.2073	7.3470	0.7706	-0.6110	0.0920	-0.1568
1.67	0.4245	-9.6674	2.4087	-0.0388	-0.0017	-0.0088	22.0145	16.2061	7.4223	0.7704	-0.6110	0.0920	-0.1567
1.68	0.4441	-9.7256	2.4035	-0.0381	-0.0001	-0.0087	21.9977	16.0879	7.3331	0.7703	-0.6113	0.0920	-0.1567
1.69	0.4490	-9.7349	2.3944	-0.0309	0.0032	-0.0084	22.0329	15.9617	7.3112	0.7702	-0.6114	0.0920	-0.1567
1.7	0.4663	-9.7360	2.3892	-0.0305	0.0044	-0.0093	21.9178	15.9252	7.2076	0.7701	-0.6115	0.0921	-0.1566
1.71	0.4762	-9.7311	2.3805	-0.0161	0.0044	-0.0088	22.1947	16.0388	7.2111	0.7701	-0.6116	0.0921	-0.1566
1.72	0.4742	-9.6944	2.3730	-0.0133	0.0104	-0.0088	22.1193	16.1689	7.2941	0.7700	-0.6116	0.0921	-0.1566
1.73	0.4440	-9.6675	2.3609	-0.0141	0.0211	-0.0069	22.1752	15.9897	7.1448	0.7700	-0.6117	0.0922	-0.1566
1.74	0.3990	-9.6538	2.3468	-0.0158	0.0251	-0.0013	22.0345	15.8243	7.3339	0.7698	-0.6117	0.0923	-0.1566
1.75	0.3485	-9.6484	2.3398	-0.0207	0.0270	-0.0049	22.0865	15.9759	7.3790	0.7699	-0.6118	0.0924	-0.1566
1.76	0.3029	-9.6438	2.3327	-0.0108	0.0228	-0.0092	22.1594	15.9219	7.2686	0.7698	-0.6118	0.0924	-0.1566
1.77	0.2782	-9.6484	2.3321	-0.0334	0.0249	-0.0072	22.1651	15.9614	7.6346	0.7697	-0.6120	0.0926	-0.1566
1.78	0.2639	-9.6760	2.3332	-0.0289	0.0123	-0.0118	22.5840	15.9405	7.8471	0.7696	-0.6121	0.0926	-0.1566
1.79	0.2625	-9.6973	2.3297	-0.0255	0.0067	-0.0076	22.3265	16.1177	7.5977	0.7695	-0.6122	0.0926	-0.1566
1.8	0.2679	-9.7157	2.3202	-0.0283	0.0060	-0.0134	22.0874	16.3421	7.3808	0.7694	-0.6123	0.0926	-0.1566
1.81	0.2829	-9.7204	2.3174	-0.0174	-0.0053	-0.0211	21.7439	16.1444	7.4166	0.7693	-0.6123	0.0926	-0.1566
1.82	0.3029	-9.7316	2.3191	-0.0231	-0.0149	-0.0133	21.8909	16.1143	7.3664	0.7693	-0.6125	0.0925	-0.1565
1.83	0.3261	-9.7351	2.3193	-0.0121	-0.0197	-0.0240	21.9925	16.1231	7.3171	0.7692	-0.6126	0.0924	-0.1565
1.84	0.3654	-9.7285	2.3160	-0.0076	-0.0232	-0.0186	21.9252	16.1104	7.5205	0.7693	-0.6127	0.0922	-0.1564
1.85	0.3967	-9.7134	2.3084	-0.0084	-0.0253	-0.0208	22.0770	16.1511	7.3992	0.7691	-0.6127	0.0921	-0.1563
1.86	0.4146	-9.6779	2.3033	-0.0071	-0.0279	-0.0204	22.2397	15.7136	7.4024	0.7692	-0.6128	0.0919	-0.1562
1.87	0.4308	-9.6579	2.3071	-0.0095	-0.0277	-0.0116	22.0488	15.9373	7.4468	0.7692	-0.6129	0.0918	-0.1561
1.88	0.4440	-9.7111	2.3235	-0.0106	-0.0324	-0.0138	22.0370	16.1086	7.2252	0.7691	-0.6129	0.0916	-0.1560
1.89	0.4649	-9.7666	2.3186	-0.0014	-0.0293	-0.0062	22.0639	15.6807	7.2212	0.7692	-0.6130	0.0915	-0.1559
1.9	0.4797	-9.7420	2.3340	0.0266	-0.0314	-0.0134	22.2786	15.7122	7.3753	0.7692	-0.6129	0.0913	-0.1557
1.91	0.4874	-9.6178	2.3571	0.0170	-0.0186	-0.0148	22.1759	15.8422	7.2285	0.7693	-0.6129	0.0912	-0.1557
1.92	0.5102	-9.6841	2.3391	0.0098	-0.0188	-0.0076	22.3546	15.8651	7.2271	0.7693	-0.6128	0.0911	-0.1556
1.93	0.5138	-9.6568	2.3638	0.0198	-0.0083	-0.0103	22.1452	15.8359	7.4608	0.7694	-0.6128	0.0910	-0.1555
1.94	0.4958	-9.6684	2.3520	0.0145	0.0054	-0.0067	21.8396	15.8967	7.1984	0.7694	-0.6128	0.0910	-0.1555
1.95	0.4753	-9.6064	2.3562	0.0186	0.0032	-0.0076	21.9314	16.0230	7.3200	0.7695	-0.6127	0.0910	-0.1555
1.96	0.4357	-9.6056	2.3575	0.0024	0.0092	-0.0070	22.0864	16.0502	7.3046	0.7695	-0.6127	0.0910	-0.1554
1.97	0.4223	-9.6522	2.3496	-0.0103	0.0148	-0.0079	22.1143	15.9851	7.2035	0.7695	-0.6127	0.0911	-0.1554
1.98	0.4095	-9.6679	2.3356	-0.0089	0.0217	-0.0087	22.0111	15.9606	7.4408	0.7695	-0.6128	0.0911	-0.1555
1.99	0.4002	-9.6571	2.3302	-0.0091	0.0228	-0.0104	22.0829	16.2279	7.2923	0.7693	-0.6128	0.0912	-0.1555
2	0.3921	-9.6763	2.3178	-0.0098	0.0189	-0.0113	21.7877	16.1953	7.3142	0.7694	-0.6129	0.0912	-0.1555
2.01	0.3827	-9.6967	2.3139	-0.0077	0.0211	-0.0141	21.9766	16.0454	7.6167	0.7693	-0.6129	0.0913	-0.1555
2.02	0.3747	-9.6997	2.3101	-0.0101	0.0215	-0.0165	22.0885	16.0395	7.4977	0.7693	-0.6129	0.0913	-0.1556
2.03	0.3762	-9.7028	2.3115	-0.0098	0.0194	-0.0109	21.9204	16.0199	7.4243	0.7692	-0.6129	0.0914	-0.1556
2.04	0.3860	-9.7056	2.3131	-0.0054	0.0116	-0.0107	22.1198	15.8148	7.2167	0.7692	-0.6130	0.0914	-0.1556
2.05	0.3931	-9.7078	2.3124	-0.0061	0.0131	-0.0122	21.9002	16.0772	7.3315	0.7692	-0.6130	0.0914	-0.1556
2.06	0.4070	-9.6921	2.3084	0.0056	0.0131	-0.0112	21.8554	16.2264	7.4455	0.7691	-0.6130	0.0915	-0.1556
2.07	0.4191	-9.6761	2.2981	0.0103	0.0016	-0.0077	21.9702	16.1797	7.1584	0.7693	-0.6130	0.0915	-0.1556
2.08	0.4234	-9.6813	2.2960	0.0071	0.0101	-0.0086	22.1447	15.9489	7.2508	0.7692	-0.6129	0.0915	-0.1556
2.09	0.4251	-9.6855	2.2926	0.0031	0.0108	-0.0079	22.2691	15.6706	7.2109	0.7693	-0.6130	0.0915	-0.1556
2.1	0.4258	-9.7057	2.2951	0.0015	0.0109	-0.0086	22.1034	15.7828	7.2417	0.7692	-0.6129	0.0915	-0.1556
2.11	0.4240	-9.7312	2.2961	-0.0062	0.0082	-0.0080	22.1500	15.8583	7.2040	0.7692	-0.6130	0.0915	-0.1556
2.12	0.4246	-9.7409	2.3034	-0.0076	0.0036	-0.0101	22.1242	15.9116	7.2709	0.7692	-0.6130	0.0915	-0.1555
2.13	0.4259	-9.7656	2.2978	0.0109	0.0167	-0.0090	22.1485	15.8991	7.4172	0.7692	-0.6129	0.0915	-0.1555
2.14	0.4291	-9.7575	2.2996	0.0167	0.0155	-0.0078	22.1152	15.7231	7.4202	0.7693	-0.6130	0.0916	-0.1556
2.15	0.4282	-9.7367	2.3063	0.0209	0.0176	-0.0078	22.0212	15.9528	7.2335	0.7693	-0.6128	0.0916	-0.1556
2.16	0.4229	-9.7273	2.3135	0.0211	0.0209	-0.0093	22.0614	15.8560	7.2565	0.7694	-0.6128	0.0917	-0.1556
2.17	0.4140	-9.7109	2.3241	0.0267	0.0230	-0.0087	22.0245	15.9297	7.5313	0.7694	-0.6126	0.0917	-0.1556
2.18	0.4065	-9.6802	2.3325	0.0292	0.0210	-0.0075	22.0712	16.0697	7.3626	0.7695	-0.6125	0.0918	-0.1557
2.19	0.3918	-9.6553	2.3333	0.0213	0.0224	-0.0083	22.1611	15.9983	7.2748	0.7696	-0.6124	0.0918	-0.1557
2.2	0.3742	-9.6395	2.3408	0.0214	0.0209	-0.0089	22.0776	16.0689	7.4010	0.7696	-0.6123	0.0919	-0.1557
2.21	0.3602	-9.6364	2.3537	0.0172	0.0186	-0.0106	21.9064	15.9766	7.5030	0.7697	-0.6123	0.0919	-0.1558
2.22	0.3510	-9.6376	2.3526	0.0185	0.0258	-0.0100	22.0290	15.9987	7.2331	0.7697	-0.6122	0.0919	-0.1558
2.23	0.3519	-9.6219	2.3608	0.0168	0.0173	-0.0190	21.9850	16.1923	7.4209	0.7698	-0.6122	0.0920	-0.1559
2.24	0.3473	-9.6168	2.3633	0.0172	0.0186	-0.0175	21.9625	16.3192	7.3046	0.7697	-0.6120	0.0920	-0.1559
2.25	0.3480	-9.6236	2.3611	0.0168	0.0186	-0.0108	21.9244	16.2305	7.1967	0.7699	-0.6120	0.0920	-0.1560
2.26	0.3477	-9.6390	2.3641	0.0165	0.0136	-0.0114	22.2372	15.9664	7.4017	0.7699	-0.6120	0.0920	-0.1560
2.27	0.3552	-9.6601	2.3652	0.0139	0.0051	-0.0144	22.5967	16.0683	7.3990	0.7699	-0.6119	0.0920	-0.1560
2.28	0.3588	-9.6590	2.3685	0.0139	0.0012	-0.0147	22.7215	15.9536	7.4661	0.7699	-0.6119	0.0920	-0.1560
2.29	0.3702	-9.6519	2.3692	0.0182	0.0011	-0.0142	22.3897	15.9686	7.3742	0.7700	-0.6118	0.0919	-0.1560
2.3	0.3774	-9.6545	2.3770	0.0106	-0.0043	-0.0129	22.0071	15.9642	7.3788	0.7701	-0.6118	0.0919	-0.1559
2.31	0.3781	-9.6684	2.3774	-0.0026	-0.0018	-0.0152	22.2846	16.0991	7.3939	0.7700	-0.6117	0.0918	-0.1559
2.32	0.3815	-9.6474	2.3638	0.0059	-0.0052	-0.0107	22.0433	15.9188	7.3759	0.7701	-0.6118	0.0918	-0.1559
2.33	0.3963	-9.6149	2.3563	-0.0037	-0.0087	-0.0132	21.9940	16.1212	7.5760	0.7701	-0.6118	0.0917	-0.1558
2.34	0.4141	-9.6117	2.3523	-0.0070	-0.0145	-0.0148	22.0523	16.3799	7.4905	0.7701	-0.6119	0.0916	-0.1557
2.35	0.4388	-9.6461	2.3535	-0.0115	-0.0071	-0.0123	22.1595	16.4119	7.4633	0.7700	-0.6119	0.0916	-0.1556
2.36	0.4573	-9.6996	2.3482	-0.0111	-0.0066	-0.0103	22.2191	16.1315	7.4663	0.7700	-0.6120	0.0916	-0.1556
2.37	0.4674	-9.7298	2.3475	-0.0111	-0.0064	-0.0129	22.1236	15.9678	7.3358	0.7700	-0.6120	0.0915	-0.1555
2.38	0.4752	-9.7509	2.3419	-0.0040	-0.0045	-0.0102	22.0650	16.2206	7.4896	0.7699	-0.6120	0.0915	-0.1555
2.39	0.4863	-9.7544	2.3384	-0.0035	0.0091	-0.0082	22.0409	16.2081	7.5677	0.7700	-0.6121	0.0915	-0.1555
2.4	0.4885	-9.7401	2.3335	0.0089	0.0060	-0.0088	22.1913	16.1015	7.2917	0.7700	-0.6120	0.0915	-0.1554
2.41	0.4756	-9.7195	2.3281	0.0174	0.0120	-0.0072	22.0591	16.1358	7.2949	0.7701	-0.6120	0.0915	-0.1554
2.42	0.4344	-9.6941	2.3243	0.0095	0.0217	-0.0084	21.9661	16.1105	7.2771	0.7700	-0.6119	0.0916	-0.1554
2.43	0.3922	-9.6847	2.3197	0.0124	0.0223	-0.0078	21.8375	16.1344	7.4280	0.7701	-0.6119	0.0916	-0.1555
2.44	0.3512	-9.6736	2.3188	0.0152	0.0239	-0.0079	22.0957	16.2739	7.3334	0.7701	-0.6118	0.0917	-0.1555
2.45	0.3256	-9.6565	2.3186	0.0169	0.0118	-0.0093	21.9137	16.0373	7.5055	0.7701	-0.6118	0.0917	-0.1555
2.46	0.3194	-9.6638	2.3294	0.0151	0.0098	-0.0099	22.2109	16.0380	7.4382	0.7702	-0.6117	0.0917	-0.1555
2.47	0.3241	-9.6784	2.3373	0.0176	0.0076	-0.0108	22.2736	16.1594	7.2887	0.7702	-0.6117	0.0917	-0.1555
2.48	0.3319	-9.6761	2.3454	0.0162	0.0001	-0.0157	22.0886	16.0715	7.2137	0.7703	-0.6116	0.0917	-0.1555
2.49	0.3398	-9.6703	2.3426	0.0162	-0.0026	-0.0186	22.1547	15.9230	7.3002	0.7703	-0.6115	0.0916	-0.1555
2.5	0.3549	-9.6714	2.3460	0.0152	-0.0031	-0.0170	22.0373	16.0845	7.3680	0.7704	-0.6116	0.0916	-0.1555
2.51	0.3763	-9.6806	2.3485	0.0172	-0.0164	-0.0188	22.1643	16.1172	7.3202	0.7704	-0.6115	0.0914	-0.1554
2.52	0.4057	-9.6847	2.3522	0.0174	-0.0172	-0.0246	21.8945	16.1586	7.4070	0.7705	-0.6115	0.0913	-0.1554
2.53	0.4345	-9.6794	2.3535	0.0175	-0.0199	-0.0171	22.1953	15.8975	7.3996	0.7705	-0.6114	0.0912	-0.1553
2.54	0.4608	-9.6740	2.3487	0.0172	-0.0206	-0.0138	22.3335	16.1607	7.3433	0.7706	-0.6114	0.0911	-0.1552
2.55	0.4729	-9.6339	2.3457	0.0154	-0.0143	-0.0095	22.1320	16.1455	7.1102	0.7706	-0.6114	0.0910	-0.1552
2.56	0.4836	-9.6982	2.3600	0.0019	-0.0156	-0.0089	22.1393	15.8886	7.4135	0.7706	-0.6113	0.0909	-0.1550
2.57	0.5033	-9.7434	2.3674	0.0133	-0.0144	-0.0080	22.1394	16.1918	7.3780	0.7707	-0.6114	0.0908	-0.1550
2.58	0.5121	-9.6890	2.3728	0.0179	-0.0141	-0.0087	22.1434	16.2193	7.5354	0.7707	-0.6113	0.0907	-0.1549
2.59	0.5262	-9.6588	2.3763	0.0210	-0.0122	-0.0085	22.1405	16.2172	7.3284	0.7709	-0.6113	0.0907	-0.1548
2.6	0.5456	-9.6255	2.3821	0.0174	0.0069	-0.0101	22.1379	16.1441	7.1698	0.7708	-0.6112	0.0906	-0.1548
2.61	0.5345	-9.6255	2.3938	0.0172	0.0167	-0.0080	22.1431	16.0762	7.3519	0.7709	-0.6112	0.0907	-0.1548
2.62	0.5000	-9.6221	2.4096	0.0173	0.0230	-0.0030	22.3177	16.0831	7.4149	0.7710	-0.6111	0.0908	-0.1548
2.63	0.4528	-9.6233	2.4176	0.0171	0.0276	-0.0069	21.9541	16.1549	7.2996	0.7710	-0.6110	0.0908	-0.1548
2.64	0.3978	-9.6200	2.4050	0.0133	0.0351	-0.0057	21.9621	15.9197	7.2846	0.7711	-0.6110	0.0910	-0.1549
2.65	0.3678	-9.6083	2.3929	0.0030	0.0307	-0.0086	22.3622	15.9523	7.3306	0.7710	-0.6109	0.0911	-0.1549
2.66	0.3532	-9.6171	2.3934	-0.0046	0.0301	-0.0076	22.2293	15.9800	7.2150	0.7711	-0.6109	0.0912	-0.1550
2.67	0.3399	-9.6243	2.3898	-0.0072	0.0332	-0.0108	22.1502	15.8247	7.2087	0.7709	-0.6108	0.0913	-0.1550
2.68	0.3439	-9.6442	2.3841	-0.0086	0.0252	-0.0143	22.0966	16.0426	7.4293	0.7710	-0.6109	0.0914	-0.1551
2.69	0.3491	-9.6654	2.3722	-0.0086	0.0208	-0.0124	22.0732	16.0856	7.1920	0.7709	-0.6109	0.0915	-0.1551
2.7	0.3548	-9.6751	2.3694	-0.0094	0.0171	-0.0099	22.2249	15.7844	7.2634	0.7709	-0.6110	0.0915	-0.1551
2.71	0.3726	-9.6845	2.3668	-0.0077	0.0124	-0.0085	22.2507	16.1040	7.5369	0.7709	-0.6110	0.0916	-0.1551
2.72	0.3908	-9.6871	2.3622	-0.0047	0.0043	-0.0111	22.1645	16.1015	7.4009	0.7708	-0.6110	0.0916	-0.1551
2.73	0.4087	-9.6907	2.3581	0.0009	0.0077	-0.0080	22.1969	15.9938	7.2423	0.7709	-0.6111	0.0916	-0.1550
2.74	0.4178	-9.6858	2.3482	-0.0010	0.0146	-0.0088	22.1688	16.1555	7.4130	0.7708	-0.6110	0.0916	-0.1550
2.75	0.4317	-9.6838	2.3522	0.0022	0.0161	-0.0084	22.0016	15.9748	7.3704	0.7708	-0.6111	0.0917	-0.1550
2.76	0.4315	-9.6783	2.3500	0.0093	0.0115	-0.0085	22.1051	15.9937	7.4270	0.7708	-0.6110	0.0917	-0.1550
2.77	0.4351	-9.6799	2.3484	0.0018	0.0172	-0.0086	22.5133	16.3238	7.5605	0.7709	-0.6110	0.0918	-0.1550
2.78	0.4295	-9.6895	2.3498	-0.0046	0.0157	-0.0083	22.9643	16.3148	7.6274	0.7708	-0.6110	0.0918	-0.1550
2.79	0.4186	-9.6990	2.3597	0.0083	0.0180	-0.0098	22.5252	16.3341	7.4135	0.7708	-0.6110	0.0919	-0.1550
2.8	0.4112	-9.7084	2.3626	0.0109	0.0181	-0.0103	22.1686	16.0131	7.3433	0.7709	-0.6110	0.0919	-0.1550
2.81	0.4029	-9.7092	2.3660	0.0149	0.0208	-0.0108	22.1702	16.1878	7.2133	0.7708	-0.6109	0.0920	-0.1551
2.82	0.3829	-9.7067	2.3735	0.0169	0.0196	-0.0085	21.8633	15.9837	7.2293	0.7710	-0.6109	0.0920	-0.1551
2.83	0.3752	-9.6968	2.3744	0.0146	0.0235	-0.0081	22.0968	15.7038	7.0641	0.7709	-0.6108	0.0921	-0.1551
2.84	0.3682	-9.6717	2.3800	0.0171	0.0211	-0.0085	22.3239	16.1056	7.0788	0.7711	-0.6108	0.0922	-0.1551
2.85	0.3558	-9.6550	2.3795	0.0166	0.0219	-0.0086	22.3228	15.9035	7.2726	0.7710	-0.6106	0.0922	-0.1551
2.86	0.3532	-9.6386	2.3847	0.0163	0.0217	-0.0081	22.1436	15.9190	7.1770	0.7711	-0.6106	0.0923	-0.1552
2.87	0.3473	-9.6251	2.3872	0.0162	0.0214	-0.0084	21.9972	15.8805	7.1595	0.7711	-0.6105	0.0923	-0.1552
2.88	0.3451	-9.6138	2.3866	0.0119	0.0145	-0.0098	22.0996	15.6430	7.3521	0.7711	-0.6105	0.0924	-0.1552
2.89	0.3424	-9.6173	2.3902	0.0127	0.0171	-0.0097	22.3845	15.9141	7.2172	0.7712	-0.6105	0.0924	-0.1552
2.9	0.3418	-9.6164	2.3846	0.0147	0.0169	-0.0081	22.1693	15.8544	7.0767	0.7712	-0.6104	0.0925	-0.1552
2.91	0.3479	-9.6356	2.3930	-0.0006	0.0192	-0.0083	21.9860	15.8603	7.2828	0.7713	-0.6104	0.0926	-0.1552
2.92	0.3533	-9.6401	2.3956	-0.0073	0.0150	-0.0102	22.1353	15.9579	7.4194	0.7711	-0.6103	0.0926	-0.1552
2.93	0.3530	-9.6638	2.3818	-0.0029	0.0146	-0.0147	22.1692	16.1732	7.4158	0.7712	-0.6104	0.0927	-0.1552
2.94	0.3615	-9.6448	2.3854	0.0179	0.0135	-0.0201	22.0208	16.1158	7.1875	0.7712	-0.6103	0.0927	-0.1552
2.95	0.3591	-9.5781	2.4040	-0.0014	0.0132	-0.0162	21.9375	16.1337	7.3981	0.7712	-0.6103	0.0927	-0.1552
2.96	0.3763	-9.6432	2.3833	-0.0131	0.0119	-0.0084	21.9446	16.1289	7.3890	0.7712	-0.6104	0.0928	-0.1552
2.97	0.3821	-9.6633	2.3840	-0.0149	0.0100	-0.0214	21.8765	16.1232	7.3245	0.7711	-0.6104	0.0928	-0.1552
2.98	0.3885	-9.6674	2.3775	-0.0112	0.0077	-0.0236	21.9702	16.1519	7.2111	0.7711	-0.6105	0.0928	-0.1552
2.99	0.3935	-9.6573	2.3687	-0.0144	0.0093	-0.0166	22.0319	16.0382	7.4068	0.7710	-0.6105	0.0928	-0.1552
3	0.3926	-9.6592	2.3696	-0.0167	0.0070	-0.0147	22.0270	15.9462	7.5034	0.7710	-0.6106	0.0928	-0.1552
3.01	0.3970	-9.6857	2.3517	-0.0235	0.0043	-0.0122	22.0996	15.7845	7.2245	0.7709	-0.6107	0.0928	-0.1552
3.02	0.4003	-9.7025	2.3399	-0.0134	-0.0059	-0.0108	22.3569	15.8083	7.1653	0.7709	-0.6108	0.0928	-0.1551
3.03	0.3999	-9.6833	2.3367	-0.0094	-0.0088	-0.0114	22.1874	15.6463	7.1167	0.7708	-0.6109	0.0928	-0.1550
3.04	0.4101	-9.6892	2.3309	-0.0097	-0.0041	-0.0105	22.1189	15.7754	7.4312	0.7708	-0.6109	0.0928	-0.1550
3.05	0.4204	-9.6895	2.3297	-0.0098	-0.0047	-0.0102	22.3312	15.8531	7.3617	0.7708	-0.6110	0.0927	-0.1549
3.06	0.4295	-9.6893	2.3280	-0.0086	0.0039	-0.0105	22.2111	15.7250	7.2240	0.7707	-0.6110	0.0927	-0.1549
3.07	0.4348	-9.6793	2.3280	-0.0093	-0.0008	-0.0086	22.1293	16.0280	7.2246	0.7708	-0.6111	0.0927	-0.1548
3.08	0.4343	-9.6812	2.3312	-0.0052	0.0017	-0.0106	22.1020	16.0419	7.2311	0.7707	-0.6111	0.0927	-0.1548
3.09	0.4375	-9.6806	2.3378	0.0030	0.0058	-0.0122	21.9607	16.0354	7.2090	0.7708	-0.6112	0.0927	-0.1548
3.1	0.4356	-9.6948	2.3452	0.0030	0.0080	-0.0145	21.9249	16.1264	7.3229	0.7707	-0.6111	0.0927	-0.1547
3.11	0.4422	-9.7070	2.3374	0.0088	0.0161	-0.0109	22.0129	16.2575	7.4243	0.7707	-0.6111	0.0928	-0.1548
3.12	0.4324	-9.6887	2.3477	0.0148	0.0162	-0.0102	22.0026	16.1545	7.3867	0.7707	-0.6111	0.0928	-0.1548
3.13	0.4104	-9.6865	2.3506	0.0078	0.0148	-0.0097	21.9402	16.1188	7.4405	0.7707	-0.6110	0.0929	-0.1548
3.14	0.3908	-9.6716	2.3450	0.0062	0.0169	-0.0081	21.9525	16.1413	7.2666	0.7708	-0.6111	0.0929	-0.1548
3.15	0.3722	-9.6486	2.3409	0.0105	0.0155	-0.0091	21.9912	16.1179	7.2430	0.7708	-0.6110	0.0930	-0.1548
3.16	0.3649	-9.6293	2.3350	0.0049	0.0092	-0.0086	22.0545	16.1436	7.3942	0.7708	-0.6110	0.0930	-0.1548
3.17	0.3679	-9.6509	2.3484	-0.0089	0.0096	-0.0092	22.1281	16.1241	7.5148	0.7707	-0.6110	0.0930	-0.1547
3.18	0.3900	-9.7025	2.3533	-0.0046	0.0094	-0.0087	22.0235	16.0419	7.4734	0.7708	-0.6110	0.0931	-0.1547
3.19	0.3989	-9.7183	2.3671	0.0053	0.0110	-0.0096	22.0782	16.0167	7.2141	0.7708	-0.6110	0.0931	-0.1547
3.2	0.4146	-9.7054	2.3583	0.0083	0.0035	-0.0128	22.2312	15.8507	7.2415	0.7708	-0.6110	0.0931	-0.1547
3.21	0.4330	-9.6753	2.3695	0.0067	0.0036	-0.0093	22.2222	15.9687	7.2140	0.7708	-0.6110	0.0931	-0.1546
3.22	0.4448	-9.6650	2.3607	0.0021	0.0060	-0.0077	22.2171	15.8231	7.1086	0.7708	-0.6110	0.0931	-0.1546
3.23	0.4380	-9.6432	2.3551	0.0005	0.0156	-0.0090	22.2213	15.9419	7.1905	0.7708	-0.6110	0.0931	-0.1546
3.24	0.4160	-9.6297	2.3394	-0.0043	0.0184	-0.0070	22.1585	15.9781	7.3376	0.7707	-0.6110	0.0932	-0.1546
3.25	0.3775	-9.6159	2.3297	-0.0108	0.0210	-0.0075	21.8612	15.8176	7.3010	0.7707	-0.6111	0.0933	-0.1546
3.26	0.3405	-9.6172	2.3232	-0.0166	0.0201	-0.0098	22.0928	15.7856	7.5513	0.7707	-0.6111	0.0934	-0.1546
3.27	0.3260	-9.6285	2.3195	-0.0197	0.0136	-0.0130	22.3808	16.0286	7.6020	0.7706	-0.6112	0.0935	-0.1546
3.28	0.3190	-9.6523	2.3135	-0.0247	0.0096	-0.0133	22.5598	16.1715	7.6494	0.7705	-0.6113	0.0935	-0.1545
3.29	0.3242	-9.6782	2.3074	-0.0227	0.0103	-0.0200	22.2167	16.0572	7.5506	0.7704	-0.6114	0.0936	-0.1545
3.3	0.3223	-9.7055	2.3085	-0.0241	0.0109	-0.0183	22.0778	16.0676	7.4334	0.7704	-0.6115	0.0936	-0.1545
3.31	0.3249	-9.7194	2.2963	-0.0248	-0.0012	-0.0141	22.0627	16.1710	7.5589	0.7702	-0.6115	0.0936	-0.1545
3.32	0.3257	-9.7388	2.2916	-0.0140	-0.0045	-0.0237	22.0606	15.9836	7.5757	0.7703	-0.6117	0.0935	-0.1545
3.33	0.3339	-9.7443	2.2901	-0.0098	-0.0115	-0.0209	22.1645	16.0854	7.8401	0.7702	-0.6117	0.0934	-0.1544
3.34	0.3558	-9.7545	2.2948	-0.0104	-0.0153	-0.0207	21.9289	16.1363	7.5759	0.7702	-0.6119	0.0934	-0.1544
3.35	0.3794	-9.7520	2.2880	-0.0045	-0.0178	-0.0138	22.0727	16.0135	7.4731	0.7701	-0.6118	0.0933	-0.1543
3.36	0.4122	-9.7449	2.2877	-0.0030	-0.0336	-0.0106	22.1634	16.1372	7.3197	0.7701	-0.6119	0.0931	-0.1541
3.37	0.4307	-9.7229	2.2856	-0.0012	-0.0307	-0.0111	22.3012	16.0896	7.5004	0.7701	-0.6120	0.0930	-0.1540
3.38	0.4494	-9.7137	2.2954	0.0110	-0.0294	-0.0094	22.0193	16.1979	7.6220	0.7701	-0.6120	0.0929	-0.1539
3.39	0.4685	-9.7708	2.3072	0.0120	-0.0297	-0.0091	22.2863	16.1145	7.2197	0.7703	-0.6120	0.0927	-0.1537
3.4	0.4958	-9.7451	2.3210	0.0210	-0.0222	-0.0070	22.3067	16.2249	7.1927	0.7703	-0.6119	0.0926	-0.1536
3.41	0.5089	-9.7050	2.3256	0.0377	-0.0119	-0.0097	22.4186	15.9217	7.2002	0.7705	-0.6119	0.0926	-0.1535
3.42	0.5346	-9.6620	2.3390	0.0322	-0.0206	-0.0132	22.2359	15.6196	7.1960	0.7705	-0.6117	0.0924	-0.1534
3.43	0.5477	-9.6452	2.3544	0.0286	-0.0003	-0.0105	22.1198	15.8541	7.2166	0.7706	-0.6117	0.0924	-0.1534
3.44	0.5251	-9.6315	2.3657	0.0380	0.0233	-0.0074	22.3212	16.1033	7.3384	0.7707	-0.6115	0.0924	-0.1534
3.45	0.4844	-9.6130	2.3678	0.0245	0.0322	-0.0087	22.0348	15.9137	7.4796	0.7707	-0.6114	0.0925	-0.1535
3.46	0.4339	-9.6015	2.3723	0.0193	0.0360	-0.0074	22.1641	15.9593	7.4705	0.7708	-0.6113	0.0927	-0.1535
3.47	0.3959	-9.6019	2.3709	0.0079	0.0355	-0.0088	22.1149	15.9023	7.3527	0.7708	-0.6113	0.0928	-0.1536
3.48	0.3752	-9.6304	2.3743	0.0056	0.0364	-0.0118	22.2263	15.8127	7.4027	0.7708	-0.6113	0.0929	-0.1537
3.49	0.3645	-9.6421	2.3775	0.0029	0.0333	-0.0212	22.1619	15.9475	7.3596	0.7707	-0.6112	0.0930	-0.1538
3.5	0.3562	-9.6541	2.3677	-0.0087	0.0354	-0.0217	22.0161	16.0362	7.5216	0.7708	-0.6113	0.0931	-0.1539
3.51	0.3513	-9.6510	2.3606	-0.0015	0.0382	-0.0280	22.1023	16.1897	7.5512	0.7707	-0.6112	0.0932	-0.1540
3.52	0.3531	-9.6567	2.3599	-0.0081	0.0326	-0.0195	22.2351	16.1828	7.3537	0.7707	-0.6113	0.0933	-0.1541
3.53	0.3593	-9.6728	2.3503	-0.0089	0.0248	-0.0150	22.2388	16.3250	7.3945	0.7706	-0.6113	0.0933	-0.1541
3.54	0.3709	-9.6706	2.3449	-0.0085	0.0155	-0.0131	22.2299	16.2278	7.3390	0.7706	-0.6114	0.0934	-0.1541
3.55	0.3904	-9.6692	2.3420	-0.0097	0.0094	-0.0142	22.0428	16.2589	7.4607	0.7705	-0.6114	0.0934	-0.1541
3.56	0.4068	-9.6765	2.3348	-0.0059	0.0020	-0.0107	22.1479	16.2333	7.3831	0.7704	-0.6114	0.0934	-0.1541
3.57	0.4261	-9.6790	2.3309	-0.0041	0.0058	-0.0079	22.1326	16.0799	7.3736	0.7705	-0.6115	0.0934	-0.1541
3.58	0.4445	-9.6704	2.3307	-0.0074	0.0016	-0.0093	22.3445	16.1437	7.6733	0.7704	-0.6115	0.0934	-0.1540
3.59	0.4564	-9.6903	2.3426	-0.0089	0.0032	-0.0079	22.4404	16.0654	7.3574	0.7705	-0.6116	0.0935	-0.1540
3.6	0.4596	-9.7235	2.3395	-0.0015	0.0144	-0.0085	22.4180	15.8229	7.4288	0.7704	-0.6116	0.0935	-0.1539
3.61	0.4540	-9.7281	2.3408	-0.0048	0.0106	-0.0071	22.1421	15.8798	7.2999	0.7704	-0.6116	0.0936	-0.1539
3.62	0.4473	-9.7072	2.3408	0.0070	0.0179	-0.0054	22.0289	16.1648	7.2033	0.7704	-0.6116	0.0936	-0.1539
3.63	0.4339	-9.6993	2.3449	0.0120	0.0195	0.0016	22.0598	16.2890	7.3703	0.7704	-0.6115	0.0937	-0.1539
3.64	0.4219	-9.7056	2.3536	0.0152	0.0282	-0.0046	22.1602	16.1959	7.5062	0.7705	-0.6115	0.0938	-0.1539
3.65	0.4073	-9.6857	2.3451	0.0174	0.0287	-0.0085	22.1328	16.1867	7.5227	0.7705	-0.6114	0.0939	-0.1539
3.66	0.3918	-9.6694	2.3549	0.0156	0.0320	-0.0077	22.1736	16.0192	7.4747	0.7706	-0.6114	0.0940	-0.1540
3.67	0.3764	-9.6657	2.3527	0.0155	0.0285	-0.0089	22.0205	16.0296	7.3651	0.7705	-0.6112	0.0941	-0.1540
3.68	0.3730	-9.6520	2.3497	0.0127	0.0259	-0.0085	22.2168	16.0161	7.3109	0.7706	-0.6112	0.0942	-0.1541
3.69	0.3619	-9.6371	2.3523	0.0076	0.0354	-0.0080	22.0040	16.0536	7.5313	0.7706	-0.6112	0.0943	-0.1541
3.7	0.3578	-9.6361	2.3536	0.0050	0.0366	-0.0104	22.0291	16.2264	7.4256	0.7706	-0.6112	0.0944	-0.1542
3.71	0.3578	-9.6451	2.3604	0.0066	0.0293	-0.0085	22.0583	16.0912	7.5972	0.7706	-0.6112	0.0946	-0.1542
3.72	0.3584	-9.6530	2.3638	0.0104	0.0344	-0.0086	22.2300	16.0042	7.4055	0.7706	-0.6111	0.0947	-0.1543
3.73	0.3636	-9.6582	2.3644	0.0035	0.0309	-0.0084	22.3358	16.0531	7.3590	0.7706	-0.6111	0.0948	-0.1543
3.74	0.3629	-9.6468	2.3682	0.0094	0.0313	-0.0084	22.0060	15.9303	7.4717	0.7705	-0.6110	0.0949	-0.1543
3.75	0.3622	-9.6418	2.3717	-0.0034	0.0312	-0.0086	22.0783	15.9416	7.5926	0.7706	-0.6111	0.0950	-0.1544
3.76	0.3560	-9.6531	2.3653	-0.0098	0.0286	-0.0087	22.0277	16.1030	7.3684	0.7705	-0.6111	0.0951	-0.1544
3.77	0.3536	-9.6452	2.3651	-0.0089	0.0365	-0.0080	22.4657	16.1099	7.4455	0.7705	-0.6111	0.0953	-0.1544
3.78	0.3457	-9.6293	2.3577	-0.0069	0.0277	-0.0104	23.2069	16.1486	7.6391	0.7704	-0.6111	0.0954	-0.1545
3.79	0.3319	-9.6352	2.3621	-0.0091	0.0267	-0.0084	22.4873	16.0302	7.4491	0.7704	-0.6111	0.0956	-0.1545
3.8	0.3359	-9.6579	2.3582	-0.0118	0.0245	-0.0083	22.2634	15.9378	7.3841	0.7704	-0.6112	0.0957	-0.1545
3.81	0.3416	-9.6717	2.3458	-0.0246	0.0166	-0.0091	22.2327	15.9494	7.5181	0.7702	-0.6112	0.0958	-0.1544
3.82	0.3490	-9.6674	2.3441	-0.0212	0.0230	-0.0094	22.1317	15.8537	7.5970	0.7703	-0.6114	0.0959	-0.1544
3.83	0.3622	-9.6682	2.3379	-0.0220	0.0115	-0.0139	21.9476	15.9421	7.4643	0.7701	-0.6114	0.0960	-0.1544
3.84	0.3742	-9.6947	2.3329	-0.0244	0.0196	-0.0123	22.1075	15.9897	7.2999	0.7701	-0.6116	0.0960	-0.1544
3.85	0.3787	-9.7037	2.3249	-0.0233	0.0136	-0.0088	22.1394	15.8995	7.4460	0.7699	-0.6116	0.0961	-0.1544
3.86	0.3855	-9.7213	2.3263	-0.0138	0.0227	-0.0090	22.0503	15.7347	7.4906	0.7699	-0.6117	0.0962	-0.1544
3.87	0.3889	-9.7330	2.3236	-0.0106	0.0178	-0.0087	22.1354	15.9652	7.8040	0.7699	-0.6117	0.0963	-0.1544
3.88	0.3836	-9.7192	2.3189	-0.0117	0.0161	-0.0091	21.9697	16.1752	7.8466	0.7698	-0.6118	0.0963	-0.1544
3.89	0.3810	-9.6920	2.3197	-0.0044	0.0194	-0.0109	22.3247	16.2422	7.5299	0.7698	-0.6119	0.0964	-0.1544
3.9	0.3786	-9.6735	2.3130	-0.0043	0.0189	-0.0089	22.1067	16.2175	7.4851	0.7697	-0.6118	0.0965	-0.1544
3.91	0.3761	-9.6721	2.3101	-0.0064	0.0222	-0.0085	22.0669	15.8577	7.5731	0.7698	-0.6119	0.0966	-0.1544
3.92	0.3783	-9.6723	2.3156	-0.0102	0.0208	-0.0090	22.3439	15.9997	7.6238	0.7696	-0.6119	0.0966	-0.1544
3.93	0.3804	-9.6794	2.3190	-0.0080	0.0176	-0.0090	22.1965	16.0554	7.4548	0.7696	-0.6120	0.0967	-0.1544
3.94	0.3852	-9.6801	2.3212	-0.0017	0.0210	-0.0090	22.0668	16.1039	7.5751	0.7696	-0.6120	0.0968	-0.1544
3.95	0.3903	-9.6708	2.3227	-0.0044	0.0269	-0.0079	22.0950	15.8911	7.6193	0.7696	-0.6120	0.0969	-0.1545
3.96	0.3968	-9.6724	2.3216	-0.0062	0.0304	-0.0098	22.3616	15.9065	7.4981	0.7696	-0.6120	0.0970	-0.1545
3.97	0.3979	-9.6940	2.3180	-0.0051	0.0257	-0.0124	22.2925	15.7069	7.3659	0.7695	-0.6120	0.0971	-0.1545
3.98	0.3986	-9.6945	2.3195	-0.0070	0.0305	-0.0087	22.5429	15.8394	7.5472	0.7695	-0.6121	0.0972	-0.1546
3.99	0.3929	-9.6967	2.3064	-0.0077	0.0273	-0.0086	22.2960	15.9200	7.7170	0.7694	-0.6120	0.0973	-0.1546
4	0.3858	-9.7156	2.3073	-0.0082	0.0346	-0.0084	22.2352	15.6736	7.5728	0.7694	-0.6121	0.0974	-0.1546
4.01	0.3667	-9.7157	2.3055	-0.0103	0.0311	-0.0086	22.1719	15.8845	7.6213	0.7693	-0.6121	0.0976	-0.1547
4.02	0.3514	-9.6997	2.2989	-0.0079	0.0306	-0.0075	22.1294	15.8913	7.5777	0.7693	-0.6122	0.0977	-0.1547
4.03	0.3349	-9.6761	2.2791	-0.0098	0.0304	-0.0073	22.1256	15.9498	7.7150	0.7692	-0.6122	0.0978	-0.1547
4.04	0.3410	-9.6563	2.2777	-0.0043	0.0269	-0.0083	22.1827	16.0574	7.6702	0.7692	-0.6122	0.0979	-0.1548
4.05	0.3432	-9.6876	2.2853	-0.0067	0.0350	-0.0083	22.0029	16.1474	7.7141	0.7692	-0.6122	0.0980	-0.1548
4.06	0.3577	-9.7211	2.2970	-0.0079	0.0339	-0.0054	21.9290	15.9354	7.5662	0.7691	-0.6122	0.0982	-0.1548
4.07	0.3653	-9.7352	2.3104	-0.0004	0.0340	-0.0118	22.1591	16.1914	7.8366	0.7691	-0.6123	0.0983	-0.1549
4.08	0.3670	-9.7328	2.3181	0.0071	0.0352	-0.0074	21.8686	15.9966	7.6936	0.7691	-0.6122	0.0984	-0.1549
4.09	0.3808	-9.7047	2.3142	0.0103	0.0384	-0.0084	22.0827	16.1666	7.7657	0.7692	-0.6122	0.0986	-0.1550
4.1	0.3698	-9.6894	2.3103	-0.0022	0.0397	-0.0072	21.9396	16.0632	7.6927	0.7690	-0.6121	0.0987	-0.1551
4.11	0.3347	-9.6731	2.3044	-0.0065	0.0438	-0.0080	22.0859	15.9394	7.7024	0.7690	-0.6122	0.0989	-0.1551
4.12	0.2787	-9.6550	2.2909	-0.0058	0.0483	-0.0083	22.2008	16.0421	7.8301	0.7690	-0.6122	0.0991	-0.1552
4.13	0.2304	-9.6506	2.2754	-0.0093	0.0434	-0.0080	22.2482	16.0798	7.6845	0.7689	-0.6121	0.0992	-0.1553
4.14	0.1973	-9.6562	2.2692	-0.0103	0.0447	-0.0088	22.1011	15.9711	7.5896	0.7689	-0.6123	0.0994	-0.1554
4.15	0.1799	-9.6711	2.2612	-0.0129	0.0320	-0.0075	22.1871	15.9567	7.6129	0.7688	-0.6122	0.0996	-0.1554
4.16	0.1864	-9.6851	2.2477	-0.0152	0.0225	-0.0125	22.4671	15.6033	7.8172	0.7688	-0.6123	0.0996	-0.1554
4.17	0.2081	-9.7003	2.2554	-0.0138	0.0119	-0.0159	22.1781	15.7227	7.6837	0.7686	-0.6123	0.0997	-0.1554
4.18	0.2262	-9.7229	2.2537	-0.0142	0.0104	-0.0172	22.1693	15.8115	7.7150	0.7687	-0.6124	0.0997	-0.1554
4.19	0.2443	-9.7244	2.2490	-0.0051	0.0023	-0.0172	22.2105	15.8211	7.8239	0.7686	-0.6125	0.0996	-0.1554
4.2	0.2654	-9.7203	2.2604	-0.0061	-0.0047	-0.0162	22.0375	15.7146	7.7095	0.7686	-0.6125	0.0996	-0.1554
4.21	0.2941	-9.7343	2.2645	-0.0027	-0.0170	-0.0209	22.0292	15.8120	7.5790	0.7686	-0.6126	0.0995	-0.1553
4.22	0.3199	-9.7384	2.2788	0.0054	-0.0229	-0.0110	22.2427	15.9243	7.6450	0.7686	-0.6126	0.0994	-0.1552
4.23	0.3437	-9.7303	2.2825	0.0118	-0.0183	-0.0125	22.3117	15.8644	7.9291	0.7687	-0.6126	0.0993	-0.1551
4.24	0.3625	-9.7031	2.2758	0.0193	-0.0130	-0.0118	22.0269	15.9109	7.6806	0.7686	-0.6125	0.0991	-0.1550
4.25	0.3662	-9.6756	2.2665	0.0100	-0.0145	-0.0173	22.0345	15.8403	7.5829	0.7688	-0.6126	0.0991	-0.1549
4.26	0.3721	-9.6876	2.2726	-0.0062	-0.0125	-0.0091	22.0990	15.8293	7.6250	0.7687	-0.6126	0.0990	-0.1548
4.27	0.3758	-9.7447	2.2765	-0.0094	-0.0115	-0.0134	22.4460	15.9301	7.8557	0.7687	-0.6127	0.0989	-0.1548
4.28	0.3914	-9.7353	2.2834	-0.0008	-0.0101	-0.0187	22.7673	15.7889	8.0433	0.7687	-0.6127	0.0988	-0.1547
4.29	0.4079	-9.7289	2.2768	0.0155	-0.0085	-0.0214	22.4483	16.0858	7.8901	0.7687	-0.6127	0.0987	-0.1547
4.3	0.4406	-9.7197	2.2791	0.0180	-0.0033	-0.0241	22.0985	15.8335	7.6893	0.7688	-0.6126	0.0986	-0.1547
4.31	0.4538	-9.6920	2.2811	0.0172	0.0055	-0.0163	22.0504	15.9147	7.7267	0.7688	-0.6125	0.0986	-0.1546
4.32	0.4419	-9.6961	2.2919	0.0175	0.0152	-0.0103	22.1583	16.1825	7.8775	0.7689	-0.6126	0.0986	-0.1547
4.33	0.4123	-9.6991	2.2867	0.0173	0.0180	-0.0075	22.2705	15.8554	7.8076	0.7689	-0.6125	0.0986	-0.1546
4.34	0.3791	-9.6818	2.2934	0.0162	0.0193	-0.0076	22.2050	15.9090	7.6656	0.7690	-0.6125	0.0987	-0.1547
4.35	0.3560	-9.6739	2.2968	0.0180	0.0202	-0.0095	22.2738	15.9317	7.6650	0.7690	-0.6123	0.0987	-0.1546
4.36	0.3501	-9.6729	2.2981	0.0196	0.0214	-0.0119	22.0452	15.7075	7.5430	0.7691	-0.6123	0.0987	-0.1547
4.37	0.3508	-9.6782	2.3028	0.0188	0.0270	-0.0097	22.1602	15.9490	7.8156	0.7691	-0.6122	0.0988	-0.1547
4.38	0.3376	-9.6794	2.3050	0.0177	0.0245	-0.0174	22.2678	15.9133	7.8590	0.7691	-0.6121	0.0988	-0.1547
4.39	0.3370	-9.6745	2.3049	0.0116	0.0246	-0.0135	22.2060	15.9383	7.8476	0.7692	-0.6121	0.0989	-0.1548
4.4	0.3290	-9.6808	2.2982	0.0109	0.0232	-0.0141	22.2514	16.0415	7.8269	0.7692	-0.6120	0.0989	-0.1548
4.41	0.3254	-9.6906	2.2913	0.0087	0.0230	-0.0171	22.2113	15.7440	7.6992	0.7692	-0.6120	0.0990	-0.1549
4.42	0.3281	-9.7006	2.2878	-0.0011	0.0181	-0.0169	22.2585	15.8412	7.9006	0.7691	-0.6120	0.0990	-0.1549
4.43	0.3267	-9.7126	2.2883	0.0113	0.0235	-0.0190	22.1991	15.9489	7.8985	0.7692	-0.6120	0.0990	-0.1550
4.44	0.3294	-9.7122	2.2851	0.0044	0.0153	-0.0115	22.1472	15.9182	7.8808	0.7692	-0.6120	0.0990	-0.1550
4.45	0.3348	-9.7023	2.2813	0.0096	0.0151	-0.0143	22.0688	15.9282	7.9778	0.7692	-0.6119	0.0990	-0.1550
4.46	0.3417	-9.7054	2.2784	0.0096	0.0122	-0.0139	22.0480	15.9369	7.7377	0.7693	-0.6119	0.0990	-0.1550
4.47	0.3492	-9.7035	2.2835	0.0147	0.0077	-0.0079	22.0620	15.9034	7.8607	0.7693	-0.6119	0.0990	-0.1549
4.48	0.3596	-9.7023	2.2921	0.0124	0.0102	-0.0084	22.0662	15.9977	7.6733	0.7693	-0.6119	0.0991	-0.1549
4.49	0.3669	-9.7020	2.2937	0.0170	0.0092	-0.0083	21.9757	16.0158	7.9767	0.7693	-0.6117	0.0990	-0.1549
4.5	0.3673	-9.6814	2.2982	0.0172	0.0110	-0.0078	21.9550	15.9150	7.8000	0.7694	-0.6117	0.0991	-0.1549
4.51	0.3595	-9.6805	2.3052	0.0163	0.0140	-0.0062	22.1664	15.8991	7.5777	0.7695	-0.6117	0.0991	-0.1548
4.52	0.3536	-9.6955	2.3123	0.0182	0.0229	-0.0074	22.3249	15.7545	7.5777	0.7695	-0.6116	0.0991	-0.1548
4.53	0.3395	-9.6935	2.3170	0.0187	0.0209	-0.0058	22.3304	15.6532	7.6632	0.7695	-0.6115	0.0992	-0.1548
4.54	0.3235	-9.6919	2.3219	0.0166	0.0260	-0.0096	22.1701	15.6764	7.8378	0.7696	-0.6115	0.0992	-0.1549
4.55	0.3163	-9.6904	2.3308	0.0184	0.0265	-0.0068	22.1737	15.8314	7.8064	0.7697	-0.6114	0.0993	-0.1549
4.56	0.3119	-9.6860	2.3321	0.0171	0.0287	-0.0116	22.3494	15.9118	7.6531	0.7696	-0.6113	0.0994	-0.1549
4.57	0.3067	-9.6837	2.3367	0.0175	0.0239	-0.0107	22.2151	15.9509	7.7623	0.7698	-0.6113	0.0994	-0.1550
4.58	0.3032	-9.6816	2.3419	0.0226	0.0307	-0.0105	22.0910	16.0287	7.4695	0.7698	-0.6112	0.0995	-0.1550
4.59	0.3000	-9.6793	2.3453	0.0226	0.0239	-0.0135	22.0305	16.0105	7.7576	0.7699	-0.6111	0.0996	-0.1551
4.6	0.2993	-9.6610	2.3529	0.0261	0.0258	-0.0119	22.1613	16.0017	7.7624	0.7698	-0.6109	0.0996	-0.1551
4.61	0.3004	-9.6472	2.3550	0.0225	0.0146	-0.0095	22.1294	16.0438	7.6361	0.7700	-0.6109	0.0996	-0.1551
4.62	0.3011	-9.6372	2.3549	0.0157	0.0150	-0.0126	21.9868	16.1135	7.8687	0.7700	-0.6109	0.0996	-0.1551
4.63	0.3091	-9.6171	2.3624	0.0194	0.0206	-0.0134	22.2540	15.8099	7.7440	0.7700	-0.6107	0.0996	-0.1551
4.64	0.3174	-9.6221	2.3656	0.0154	0.0107	-0.0138	22.1205	15.9624	7.8767	0.7701	-0.6108	0.0997	-0.1551
4.65	0.3255	-9.6251	2.3665	0.0134	0.0187	-0.0139	21.9046	16.0280	7.9483	0.7701	-0.6107	0.0997	-0.1551
4.66	0.3309	-9.6280	2.3630	0.0177	0.0137	-0.0099	22.0523	16.0051	7.7242	0.7702	-0.6107	0.0997	-0.1551
4.67	0.3346	-9.6308	2.3635	0.0070	0.0168	-0.0117	22.1545	16.0032	7.8685	0.7701	-0.6106	0.0998	-0.1551
4.68	0.3441	-9.6412	2.3658	0.0058	0.0174	-0.0142	21.9176	16.2531	7.8214	0.7702	-0.6106	0.0998	-0.1551
4.69	0.3349	-9.6493	2.3607	-0.0043	0.0186	-0.0166	22.0219	16.1032	7.8880	0.7701	-0.6106	0.0999	-0.1551
4.7	0.3240	-9.6558	2.3590	-0.0052	0.0206	-0.0132	22.1222	15.8398	7.6780	0.7701	-0.6106	0.0999	-0.1551
4.71	0.3226	-9.6660	2.3510	-0.0061	0.0130	-0.0087	22.3618	15.7276	7.6595	0.7701	-0.6107	0.1000	-0.1550
4.72	0.3187	-9.6669	2.3470	-0.0069	0.0093	-0.0206	22.2933	16.0592	7.8067	0.7700	-0.6107	0.0999	-0.1550
4.73	0.3166	-9.6710	2.3429	-0.0100	0.0101	-0.0195	22.2025	16.0719	7.6696	0.7700	-0.6108	0.0999	-0.1550
4.74	0.3189	-9.6842	2.3346	-0.0079	0.0073	-0.0154	22.2798	15.8890	7.6460	0.7699	-0.6108	0.0999	-0.1550
4.75	0.3303	-9.7074	2.3280	-0.0093	0.0035	-0.0184	21.9486	16.0564	7.9074	0.7699	-0.6109	0.0999	-0.1550
4.76	0.3469	-9.7033	2.3201	-0.0076	-0.0010	-0.0099	22.2566	16.1334	7.7628	0.7699	-0.6110	0.0998	-0.1549
4.77	0.3591	-9.7008	2.3200	-0.0038	0.0014	-0.0143	22.5901	16.0321	7.8021	0.7699	-0.6110	0.0998	-0.1549
4.78	0.3648	-9.7100	2.3140	-0.0042	-0.0033	-0.0099	22.7583	15.9164	8.0343	0.7698	-0.6111	0.0998	-0.1548
4.79	0.3681	-9.6977	2.3165	0.0005	0.0046	-0.0073	22.3603	16.1786	7.8902	0.7698	-0.6111	0.0998	-0.1548
4.8	0.3634	-9.7007	2.3181	0.0095	0.0038	-0.0081	21.8815	16.0805	7.9736	0.7699	-0.6111	0.0997	-0.1547
4.81	0.3608	-9.7195	2.3255	0.0177	0.0106	-0.0087	21.9681	15.9866	7.5855	0.7698	-0.6110	0.0997	-0.1547
4.82	0.3616	-9.7261	2.3341	0.0154	0.0086	-0.0082	21.9572	15.9636	7.5115	0.7700	-0.6110	0.0997	-0.1547
4.83	0.3585	-9.6947	2.3328	0.0166	0.0121	-0.0090	22.0970	15.9799	7.6291	0.7700	-0.6109	0.0997	-0.1546
4.84	0.3523	-9.6884	2.3345	0.0164	0.0194	-0.0073	22.0043	15.9283	7.6335	0.7701	-0.6109	0.0998	-0.1546
4.85	0.3531	-9.7164	2.3380	0.0160	0.0115	-0.0122	22.2618	15.7537	7.8465	0.7700	-0.6108	0.0998	-0.1546
4.86	0.3526	-9.7031	2.3449	0.0234	0.0114	-0.0126	22.0828	15.9711	7.7287	0.7701	-0.6108	0.0997	-0.1546
4.87	0.3466	-9.6990	2.3489	0.0181	0.0142	-0.0113	22.0404	16.0859	7.7229	0.7702	-0.6107	0.0998	-0.1546
4.88	0.3513	-9.6779	2.3508	0.0222	0.0081	-0.0123	22.0381	16.0007	7.8492	0.7702	-0.6106	0.0997	-0.1546
4.89	0.3512	-9.6578	2.3621	0.0245	0.0041	-0.0113	22.2561	15.8235	7.4289	0.7703	-0.6107	0.0997	-0.1546
4.9	0.3588	-9.6722	2.3779	0.0162	0.0104	-0.0081	22.3483	15.7039	7.6206	0.7703	-0.6105	0.0997	-0.1545
4.91	0.3606	-9.6913	2.3906	0.0222	0.0176	-0.0103	22.2505	15.8833	7.5139	0.7704	-0.6105	0.0997	-0.1546
4.92	0.3633	-9.6817	2.4017	0.0283	0.0155	-0.0098	22.1286	15.9048	7.6059	0.7704	-0.6103	0.0997	-0.1545
4.93	0.3687	-9.6503	2.4061	0.0269	0.0165	-0.0100	22.2461	15.8215	7.7068	0.7705	-0.6103	0.0997	-0.1546
4.94	0.3662	-9.6121	2.4082	0.0231	0.0227	-0.0078	22.2164	15.7048	7.7391	0.7706	-0.6102	0.0998	-0.1546
4.95	0.3441	-9.5855	2.4097	0.0180	0.0268	-0.0041	22.2381	15.9100	7.5665	0.7706	-0.6101	0.0998	-0.1546
4.96	0.3153	-9.5739	2.4056	0.0163	0.0330	-0.0003	22.1357	15.8699	7.8614	0.7707	-0.6101	0.0999	-0.1546
4.97	0.2754	-9.5597	2.3971	0.0038	0.0339	-0.0038	22.1404	16.1497	7.6503	0.7706	-0.6101	0.1001	-0.1546
4.98	0.2438	-9.5806	2.3864	-0.0096	0.0233	-0.0091	22.1648	16.1162	7.7021	0.7706	-0.6101	0.1002	-0.1546
4.99	0.2300	-9.5951	2.3766	-0.0098	0.0174	-0.0087	22.0428	15.8590	7.8285	0.7705	-0.6101	0.1002	-0.1545
5	0.2372	-9.6003	2.3668	-0.0204	0.0164	-0.0104	21.9550	15.9030	7.5604	0.7705	-0.6103	0.1003	-0.1545
5.01	0.2514	-9.6138	2.3578	-0.0272	0.0091	-0.0205	22.1247	15.9942	7.7565	0.7704	-0.6104	0.1003	-0.1545
5.02	0.2569	-9.6244	2.3490	-0.0335	0.0040	-0.0213	22.1628	15.9479	7.6430	0.7703	-0.6105	0.1003	-0.1545
5.03	0.2782	-9.6796	2.3433	-0.0308	0.0018	-0.0174	22.0319	16.0802	7.9202	0.7702	-0.6107	0.1003	-0.1544
5.04	0.2923	-9.6999	2.3337	-0.0318	-0.0024	-0.0202	22.0790	15.9132	7.8489	0.7701	-0.6108	0.1002	-0.1544
5.05	0.3019	-9.7247	2.3207	-0.0211	-0.0118	-0.0194	21.7795	16.0652	7.7102	0.7700	-0.6110	0.1002	-0.1543
5.06	0.3105	-9.7129	2.3262	-0.0108	-0.0169	-0.0221	21.9310	15.9719	7.6835	0.7699	-0.6110	0.1000	-0.1542
5.07	0.3231	-9.7279	2.3218	-0.0097	-0.0228	-0.0121	22.1905	15.9759	7.7008	0.7700	-0.6112	0.0999	-0.1541
5.08	0.3482	-9.7191	2.3162	-0.0098	-0.0221	-0.0112	22.1166	15.9462	7.6992	0.7699	-0.6112	0.0998	-0.1540
5.09	0.3567	-9.6941	2.3065	-0.0101	-0.0250	-0.0122	22.1878	15.8073	7.9471	0.7699	-0.6113	0.0997	-0.1539
5.1	0.3628	-9.6637	2.2967	-0.0101	-0.0199	-0.0093	22.4480	15.7839	7.6525	0.7698	-0.6113	0.0995	-0.1537
5.11	0.3649	-9.7143	2.3136	-0.0080	-0.0164	-0.0094	22.2355	15.7158	7.6584	0.7698	-0.6115	0.0995	-0.1536
5.12	0.3872	-9.7512	2.3197	-0.0090	-0.0244	-0.0095	22.1069	15.8312	7.8356	0.7698	-0.6115	0.0993	-0.1535
5.13	0.4122	-9.7747	2.3143	0.0074	-0.0157	-0.0093	22.1543	15.7628	7.7921	0.7698	-0.6115	0.0992	-0.1534
5.14	0.4381	-9.6989	2.3324	0.0240	-0.0181	-0.0156	22.1319	15.9274	7.5743	0.7700	-0.6116	0.0991	-0.1533
5.15	0.4454	-9.6528	2.3367	-0.0004	-0.0041	-0.0108	22.0011	15.6878	7.6606	0.7699	-0.6115	0.0990	-0.1532
5.16	0.4466	-9.7322	2.3225	-0.0047	0.0064	-0.0089	22.1566	15.6033	7.7060	0.7699	-0.6116	0.0990	-0.1532
5.17	0.4114	-9.7215	2.3342	0.0167	0.0169	-0.0088	22.0427	16.1022	7.7877	0.7699	-0.6115	0.0990	-0.1531
5.18	0.3782	-9.7139	2.3366	0.0164	0.0260	-0.0078	21.9610	16.1451	7.7722	0.7700	-0.6115	0.0991	-0.1532
5.19	0.3505	-9.7067	2.3385	0.0147	0.0309	-0.0108	21.9239	15.8272	7.6470	0.7700	-0.6114	0.0992	-0.1532
5.2	0.3229	-9.7112	2.3374	0.0259	0.0388	-0.0158	21.8359	16.0600	7.7879	0.7700	-0.6113	0.0993	-0.1533
5.21	0.3188	-9.6838	2.3497	0.0247	0.0329	-0.0227	22.0789	16.0556	7.7884	0.7701	-0.6112	0.0993	-0.1534
5.22	0.3086	-9.6851	2.3554	0.0155	0.0343	-0.0230	22.1837	15.8160	7.6566	0.7701	-0.6112	0.0993	-0.1535
5.23	0.3037	-9.6820	2.3544	0.0149	0.0310	-0.0144	22.0511	15.9733	7.7610	0.7701	-0.6111	0.0994	-0.1536
5.24	0.2965	-9.6763	2.3557	0.0186	0.0232	-0.0107	22.0666	15.9613	7.4728	0.7701	-0.6110	0.0994	-0.1536
5.25	0.2925	-9.6546	2.3565	0.0237	0.0210	-0.0140	22.1191	16.0923	7.6782	0.7702	-0.6110	0.0995	-0.1537
5.26	0.2910	-9.6379	2.3638	0.0255	0.0177	-0.0107	22.1045	15.8516	7.7923	0.7702	-0.6109	0.0995	-0.1537
5.27	0.2846	-9.6475	2.3724	0.0224	0.0139	-0.0103	22.6584	15.7634	7.6326	0.7703	-0.6108	0.0995	-0.1537
5.28	0.2909	-9.6526	2.3762	0.0145	0.0037	-0.0089	22.9337	15.8400	7.9123	0.7703	-0.6108	0.0994	-0.1536
5.29	0.2981	-9.6471	2.3734	0.0158	0.0024	-0.0090	22.3727	15.9861	7.7347	0.7704	-0.6108	0.0994	-0.1536
5.3	0.3003	-9.6435	2.3731	0.0146	0.0029	-0.0089	22.1461	15.7519	7.6724	0.7704	-0.6107	0.0994	-0.1535
5.31	0.3061	-9.6486	2.3720	0.0148	-0.0058	-0.0092	22.2526	15.7592	7.5630	0.7704	-0.6107	0.0993	-0.1534
5.32	0.3031	-9.6494	2.3815	0.0156	-0.0079	-0.0090	22.1875	15.8972	7.5674	0.7706	-0.6107	0.0993	-0.1534
5.33	0.3014	-9.6480	2.3828	0.0153	0.0027	-0.0085	21.9863	15.9261	7.6964	0.7706	-0.6106	0.0992	-0.1533
5.34	0.3023	-9.6510	2.3903	0.0149	-0.0022	-0.0048	22.1625	16.0216	7.6251	0.7707	-0.6107	0.0992	-0.1533
5.35	0.2948	-9.6538	2.3941	0.0149	0.0018	-0.0076	22.0397	16.0287	7.6858	0.7706	-0.6105	0.0991	-0.1532
5.36	0.2947	-9.6426	2.3941	0.0116	0.0030	-0.0082	21.9468	15.9206	7.4756	0.7707	-0.6106	0.0991	-0.1531
5.37	0.2998	-9.6385	2.3971	0.0134	0.0043	-0.0085	21.9583	16.1136	7.5351	0.7707	-0.6105	0.0991	-0.1531
5.38	0.3018	-9.6337	2.4051	0.0164	0.0114	-0.0086	22.0078	16.1142	7.5399	0.7707	-0.6104	0.0991	-0.1530
5.39	0.3056	-9.6290	2.3966	0.0077	0.0079	-0.0084	22.3850	16.1231	7.8006	0.7708	-0.6105	0.0991	-0.1530
5.4	0.3072	-9.6182	2.3972	0.0050	0.0079	-0.0126	22.1138	15.9719	7.6510	0.7708	-0.6105	0.0991	-0.1530
5.41	0.3062	-9.6288	2.4035	0.0017	0.0113	-0.0144	22.0160	15.9171	7.5631	0.7708	-0.6105	0.0991	-0.1530
5.42	0.3061	-9.6310	2.3940	0.0018	0.0100	-0.0095	22.0750	16.0388	7.8748	0.7707	-0.6104	0.0991	-0.1529
5.43	0.3127	-9.6243	2.3975	-0.0017	0.0081	-0.0090	22.1254	16.1344	7.9382	0.7708	-0.6105	0.0992	-0.1529
5.44	0.3160	-9.6247	2.3958	-0.0048	0.0026	-0.0115	22.0387	15.9293	7.7283	0.7707	-0.6106	0.0992	-0.1528
5.45	0.3116	-9.6262	2.3939	-0.0084	0.0105	-0.0124	22.3383	16.0095	7.5468	0.7707	-0.6106	0.0992	-0.1528
5.46	0.3058	-9.6380	2.3946	-0.0084	0.0140	-0.0137	22.2176	16.1407	7.5669	0.7707	-0.6107	0.0992	-0.1528
5.47	0.3042	-9.6363	2.3928	-0.0092	0.0093	-0.0100	22.1006	15.9583	7.4127	0.7706	-0.6107	0.0992	-0.1527
5.48	0.3098	-9.6423	2.3936	-0.0106	0.0054	-0.0086	22.2136	15.7218	7.3610	0.7706	-0.6108	0.0992	-0.1527
5.49	0.3073	-9.6466	2.3825	-0.0153	0.0084	-0.0154	22.2303	15.9463	7.4809	0.7705	-0.6108	0.0992	-0.1526
5.5	0.3074	-9.6461	2.3836	-0.0094	0.0075	-0.0147	22.1263	16.1524	7.5771	0.7705	-0.6109	0.0992	-0.1526
5.51	0.3084	-9.6654	2.3783	-0.0183	0.0062	-0.0161	22.1394	16.0914	7.5453	0.7704	-0.6110	0.0992	-0.1526
5.52	0.3106	-9.6673	2.3692	-0.0164	0.0106	-0.0091	22.1985	15.8624	7.6116	0.7704	-0.6111	0.0992	-0.1526
5.53	0.3125	-9.6701	2.3692	-0.0240	0.0031	-0.0098	22.2514	15.8503	7.8965	0.7703	-0.6112	0.0992	-0.1525
5.54	0.3127	-9.6796	2.3653	-0.0259	0.0050	-0.0142	22.3091	15.9782	7.7748	0.7702	-0.6113	0.0992	-0.1524
5.55	0.3130	-9.6837	2.3612	-0.0170	0.0013	-0.0130	21.9416	16.1080	7.5869	0.7702	-0.6114	0.0992	-0.1524
5.56	0.3143	-9.6825	2.3508	-0.0191	0.0012	-0.0103	22.1154	16.0627	7.7803	0.7700	-0.6115	0.0991	-0.1523
5.57	0.3141	-9.6793	2.3440	-0.0276	0.0003	-0.0091	22.1802	15.7825	7.7251	0.7700	-0.6117	0.0991	-0.1523
5.58	0.3145	-9.6889	2.3352	-0.0297	-0.0048	-0.0096	22.2164	16.0974	7.6468	0.7699	-0.6118	0.0991	-0.1522
5.59	0.3223	-9.6980	2.3339	-0.0252	-0.0022	-0.0092	22.0539	16.0664	7.8818	0.7699	-0.6120	0.0991	-0.1521
5.6	0.3251	-9.6934	2.3286	-0.0146	-0.0059	-0.0089	22.0438	16.0022	7.6192	0.7697	-0.6120	0.0990	-0.1520
5.61	0.3279	-9.6891	2.3270	-0.0160	-0.0003	-0.0080	21.9484	16.1651	7.6819	0.7697	-0.6121	0.0990	-0.1519
5.62	0.3263	-9.6874	2.3297	-0.0078	-0.0031	-0.0085	22.1379	16.0671	7.7724	0.7697	-0.6122	0.0990	-0.1519
5.63	0.3357	-9.7070	2.3311	-0.0166	-0.0022	-0.0080	22.1349	16.2459	7.7137	0.7696	-0.6122	0.0989	-0.1518
5.64	0.3503	-9.7015	2.3383	-0.0071	0.0074	-0.0088	22.2419	15.9618	7.7806	0.7697	-0.6123	0.0990	-0.1518
5.65	0.3499	-9.6996	2.3367	-0.0069	0.0025	-0.0091	22.3662	15.8514	7.7035	0.7696	-0.6123	0.0989	-0.1517
5.66	0.3355	-9.7013	2.3386	-0.0080	0.0116	-0.0089	22.2177	15.9998	7.6315	0.7696	-0.6124	0.0989	-0.1517
5.67	0.3117	-9.6965	2.3421	0.0006	0.0119	-0.0090	22.2478	15.8164	7.7571	0.7695	-0.6124	0.0990	-0.1516
5.68	0.2950	-9.6772	2.3394	-0.0027	0.0087	-0.0105	22.2876	15.7746	7.6533	0.7695	-0.6124	0.0990	-0.1516
5.69	0.2848	-9.6602	2.3359	-0.0071	0.0091	-0.0095	22.0701	15.9032	7.8153	0.7695	-0.6125	0.0990	-0.1516
5.7	0.2820	-9.6452	2.3380	-0.0021	0.0091	-0.0109	22.2297	16.0337	7.6180	0.7694	-0.6125	0.0990	-0.1515
5.71	0.2859	-9.6585	2.3510	-0.0066	0.0067	-0.0085	22.2436	16.0212	7.7941	0.7695	-0.6126	0.0990	-0.1515
5.72	0.2929	-9.7081	2.3631	0.0018	-0.0010	-0.0087	22.3243	15.9184	7.8251	0.7694	-0.6126	0.0989	-0.1514
5.73	0.3060	-9.7147	2.3712	0.0102	0.0065	-0.0161	22.1418	15.9591	7.7067	0.7695	-0.6126	0.0989	-0.1514
5.74	0.3157	-9.7037	2.3703	0.0017	0.0113	-0.0130	22.0526	15.9244	7.8577	0.7694	-0.6125	0.0989	-0.1514
5.75	0.3289	-9.6738	2.3669	0.0042	0.0136	-0.0112	22.0366	16.0606	7.7256	0.7695	-0.6126	0.0989	-0.1514
5.76	0.3370	-9.6360	2.3583	0.0009	0.0118	-0.0113	22.2380	15.9962	7.7510	0.7694	-0.6126	0.0989	-0.1514
5.77	0.3281	-9.6132	2.3515	-0.0033	0.0090	-0.0076	22.4551	16.1182	7.7931	0.7694	-0.6126	0.0989	-0.1514
5.78	0.3122	-9.6053	2.3415	-0.0084	0.0100	-0.0097	22.7640	16.1326	8.0286	0.7694	-0.6127	0.0989	-0.1513
5.79	0.2833	-9.6121	2.3328	-0.0153	0.0112	-0.0067	22.3135	16.0966	7.7140	0.7693	-0.6127	0.0989	-0.1513
5.8	0.2492	-9.6167	2.3269	-0.0266	0.0131	-0.0085	22.1778	15.9846	7.6066	0.7693	-0.6129	0.0990	-0.1513
5.81	0.2269	-9.6273	2.3157	-0.0246	0.0102	-0.0090	22.0562	15.9178	7.6107	0.7691	-0.6129	0.0990	-0.1512
5.82	0.2251	-9.6453	2.3117	-0.0345	0.0038	-0.0089	22.0111	15.8629	7.7242	0.7691	-0.6131	0.0990	-0.1511
5.83	0.2299	-9.6646	2.3053	-0.0339	-0.0016	-0.0093	22.2424	15.6352	7.8508	0.7689	-0.6132	0.0990	-0.1510
5.84	0.2351	-9.6818	2.2966	-0.0316	-0.0017	-0.0089	22.4011	15.8573	7.7158	0.7689	-0.6135	0.0990	-0.1510
5.85	0.2437	-9.7039	2.2923	-0.0315	-0.0077	-0.0110	22.4102	16.0120	7.7078	0.7687	-0.6135	0.0989	-0.1509
5.86	0.2518	-9.7228	2.2868	-0.0347	-0.0172	-0.0150	22.2554	15.8027	7.7109	0.7687	-0.6137	0.0989	-0.1508
5.87	0.2605	-9.7477	2.2837	-0.0305	-0.0130	-0.0159	22.2220	15.6886	7.7209	0.7686	-0.6139	0.0988	-0.1507
5.88	0.2754	-9.7513	2.2681	-0.0240	-0.0211	-0.0155	22.1431	16.0223	7.6915	0.7684	-0.6140	0.0987	-0.1506
5.89	0.2978	-9.7503	2.2563	-0.0176	-0.0232	-0.0136	22.1153	15.7293	7.8370	0.7685	-0.6142	0.0985	-0.1505
5.9	0.3206	-9.7563	2.2588	-0.0131	-0.0221	-0.0216	22.3122	15.8783	7.7472	0.7684	-0.6142	0.0984	-0.1504
5.91	0.3314	-9.7448	2.2491	-0.0080	-0.0272	-0.0186	22.2609	15.8063	7.4765	0.7684	-0.6144	0.0982	-0.1503
5.92	0.3369	-9.7260	2.2503	-0.0103	-0.0269	-0.0132	22.1220	15.8701	7.7218	0.7683	-0.6144	0.0981	-0.1501
5.93	0.3416	-9.7728	2.2556	-0.0086	-0.0224	-0.0115	22.0187	16.0013	7.9509	0.7683	-0.6145	0.0980	-0.1500
5.94	0.3664	-9.7923	2.2607	0.0039	-0.0325	-0.0130	22.0984	15.9574	7.8236	0.7683	-0.6145	0.0978	-0.1499
5.95	0.3823	-9.7637	2.2750	0.0126	-0.0208	-0.0115	22.1590	15.9724	7.7890	0.7684	-0.6145	0.0976	-0.1498
5.96	0.4035	-9.7245	2.2761	0.0165	-0.0254	-0.0074	22.0172	15.9707	7.9024	0.7684	-0.6145	0.0975	-0.1496
5.97	0.4304	-9.6867	2.2822	0.0172	-0.0238	-0.0094	21.9426	15.9600	7.8913	0.7685	-0.6145	0.0974	-0.1495
5.98	0.4386	-9.6762	2.2983	0.0212	-0.0059	-0.0082	22.1655	16.0021	7.6793	0.7686	-0.6145	0.0973	-0.1494
5.99	0.4274	-9.6678	2.3053	0.0172	0.0047	-0.0081	22.0163	15.8693	7.8286	0.7685	-0.6143	0.0972	-0.1494
6	0.3952	-9.6546	2.3142	0.0147	0.0111	-0.0089	22.0766	15.9146	7.8626	0.7687	-0.6144	0.0972	-0.1494
6.01	0.3638	-9.6620	2.3195	0.0155	0.0172	-0.0063	22.1209	15.8038	7.6651	0.7687	-0.6143	0.0973	-0.1494
6.02	0.3343	-9.6706	2.3182	0.0092	0.0115	-0.0081	22.2570	15.6378	7.7299	0.7687	-0.6143	0.0973	-0.1493
6.03	0.3190	-9.6727	2.3228	0.0129	0.0176	-0.0088	22.4536	15.9504	7.7182	0.7687	-0.6142	0.0973	-0.1493
6.04	0.3137	-9.6794	2.3202	0.0047	0.0184	-0.0097	22.0974	15.6926	7.5416	0.7687	-0.6142	0.0973	-0.1493
6.05	0.3055	-9.6811	2.3189	0.0080	0.0207	-0.0119	22.4144	15.7851	7.6221	0.7688	-0.6142	0.0973	-0.1494
6.06	0.2917	-9.6760	2.3139	0.0072	0.0208	-0.0129	22.2925	15.7918	7.8409	0.7687	-0.6141	0.0974	-0.1494
6.07	0.2820	-9.6795	2.3097	0.0051	0.0137	-0.0086	22.2502	15.8227	7.7792	0.7688	-0.6142	0.0974	-0.1494
6.08	0.2753	-9.6713	2.3032	0.0027	0.0145	-0.0132	22.1058	15.8721	7.8142	0.7687	-0.6142	0.0974	-0.1494
6.09	0.2715	-9.6696	2.3050	-0.0007	0.0194	-0.0114	22.0994	15.7396	7.7838	0.7688	-0.6143	0.0974	-0.1494
6.1	0.2756	-9.6837	2.2974	-0.0076	0.0081	-0.0078	22.1277	16.0059	7.9104	0.7687	-0.6142	0.0974	-0.1493
6.11	0.2869	-9.6908	2.3037	0.0049	0.0116	-0.0096	22.1930	15.7175	7.7661	0.7687	-0.6143	0.0974	-0.1493
6.12	0.3003	-9.7050	2.3045	0.0022	0.0102	-0.0083	22.2993	16.0850	7.8658	0.7687	-0.6143	0.0974	-0.1493
6.13	0.3102	-9.7058	2.2980	-0.0017	0.0058	-0.0088	21.8816	15.9072	7.9033	0.7687	-0.6142	0.0974	-0.1492
6.14	0.3191	-9.7104	2.2985	0.0079	0.0108	-0.0083	22.1120	15.7679	7.8965	0.7688	-0.6143	0.0974	-0.1492
6.15	0.3294	-9.7098	2.3063	0.0017	0.0124	-0.0103	21.9642	15.9616	7.7357	0.7687	-0.6143	0.0974	-0.1492
6.16	0.3358	-9.7080	2.3107	0.0118	0.0132	-0.0074	21.9984	15.9738	7.6928	0.7688	-0.6143	0.0974	-0.1492
6.17	0.3253	-9.6962	2.3094	0.0129	0.0154	-0.0086	22.2249	15.9820	7.7923	0.7687	-0.6142	0.0974	-0.1492
6.18	0.3245	-9.6896	2.3116	0.0163	0.0136	-0.0071	22.3628	15.8468	7.8367	0.7688	-0.6142	0.0975	-0.1492
6.19	0.3150	-9.6847	2.3179	0.0154	0.0165	-0.0076	22.0172	15.7749	7.7090	0.7688	-0.6141	0.0975	-0.1492
6.2	0.3025	-9.6817	2.3218	0.0130	0.0148	-0.0076	21.9686	15.8208	7.4943	0.7688	-0.6141	0.0975	-0.1491
6.21	0.2878	-9.6752	2.3201	0.0177	0.0195	-0.0083	22.4566	15.6817	7.6413	0.7689	-0.6140	0.0975	-0.1492
6.22	0.2701	-9.6665	2.3228	0.0127	0.0231	-0.0081	22.6614	15.6235	7.4940	0.7689	-0.6140	0.0976	-0.1492
6.23	0.2547	-9.6592	2.3199	0.0054	0.0190	-0.0085	22.5653	15.8112	7.5898	0.7690	-0.6140	0.0976	-0.1492
6.24	0.2439	-9.6629	2.3122	0.0045	0.0141	-0.0082	22.2945	15.7920	7.7267	0.7689	-0.6139	0.0976	-0.1491
6.25	0.2391	-9.6664	2.3109	-0.0036	0.0136	-0.0121	22.2901	15.8164	7.8132	0.7690	-0.6140	0.0976	-0.1492
6.26	0.2418	-9.6783	2.3155	0.0049	0.0096	-0.0099	22.2359	15.7589	7.6585	0.7689	-0.6140	0.0976	-0.1491
6.27	0.2521	-9.6820	2.3113	0.0143	0.0088	-0.0094	22.6891	15.6791	7.8680	0.7690	-0.6140	0.0976	-0.1491
6.28	0.2668	-9.6770	2.3112	0.0070	-0.0005	-0.0102	23.1544	15.8572	8.0921	0.7690	-0.6139	0.0976	-0.1491
6.29	0.2780	-9.6825	2.3115	-0.0017	0.0098	-0.0071	22.4313	15.7273	7.9749	0.7690	-0.6140	0.0976	-0.1490
6.3	0.2915	-9.6855	2.3202	0.0074	0.0038	-0.0155	22.1457	15.9131	7.8033	0.7690	-0.6140	0.0975	-0.1490
6.31	0.3050	-9.6822	2.3166	0.0111	0.0031	-0.0102	22.2928	15.8596	7.8601	0.7690	-0.6139	0.0975	-0.1490
6.32	0.3130	-9.6783	2.3220	0.0068	0.0067	-0.0152	22.2274	15.9978	7.6615	0.7691	-0.6140	0.0975	-0.1490
6.33	0.3193	-9.6830	2.3274	0.0093	0.0085	-0.0125	22.1281	16.1074	7.8265	0.7690	-0.6139	0.0974	-0.1489
6.34	0.3162	-9.6839	2.3214	0.0008	0.0105	-0.0115	22.0374	15.7379	7.9503	0.7691	-0.6140	0.0974	-0.1489
6.35	0.3084	-9.6714	2.3205	-0.0089	0.0118	-0.0156	22.1906	15.7592	7.8169	0.7690	-0.6140	0.0974	-0.1489
6.36	0.3022	-9.6689	2.3150	-0.0010	0.0083	-0.0169	22.3802	16.0188	7.8003	0.7690	-0.6140	0.0974	-0.1489
6.37	0.2968	-9.6782	2.3089	-0.0051	0.0014	-0.0231	22.1341	15.9832	7.5044	0.7690	-0.6141	0.0973	-0.1489
6.38	0.2877	-9.6789	2.3004	-0.0044	0.0060	-0.0168	22.2611	15.8583	7.6334	0.7689	-0.6141	0.0973	-0.1489
6.39	0.2893	-9.6902	2.2950	-0.0096	-0.0025	-0.0085	22.3302	15.6241	7.7573	0.7690	-0.6142	0.0972	-0.1489
6.4	0.2934	-9.7074	2.2867	-0.0110	-0.0006	-0.0150	22.3952	15.8934	7.8605	0.7688	-0.6142	0.0972	-0.1488
6.41	0.3049	-9.7257	2.2861	-0.0081	-0.0045	-0.0151	22.3988	15.9152	7.7386	0.7689	-0.6143	0.0971	-0.1488
6.42	0.3135	-9.7316	2.2834	0.0047	-0.0013	-0.0146	22.2341	15.7248	7.7361	0.7688	-0.6143	0.0970	-0.1487
6.43	0.3289	-9.7191	2.2843	0.0132	-0.0045	-0.0112	22.2534	15.8916	7.5945	0.7689	-0.6143	0.0970	-0.1487
6.44	0.3437	-9.7004	2.2901	0.0107	-0.0037	-0.0105	22.2867	15.9651	7.7079	0.7689	-0.6143	0.0969	-0.1486
6.45	0.3621	-9.6956	2.3013	0.0150	0.0025	-0.0098	22.3945	15.8560	7.7259	0.7689	-0.6142	0.0969	-0.1486
6.46	0.3792	-9.6953	2.3169	0.0160	-0.0031	-0.0132	22.1951	15.7496	7.8530	0.7690	-0.6142	0.0968	-0.1485
6.47	0.3839	-9.6870	2.3295	0.0157	0.0085	-0.0095	22.3469	16.0154	7.7726	0.7690	-0.6142	0.0968	-0.1485
6.48	0.3689	-9.6791	2.3348	0.0154	0.0110	-0.0083	22.4681	15.8345	7.7346	0.7691	-0.6141	0.0968	-0.1485
6.49	0.3483	-9.6613	2.3343	0.0116	0.0132	-0.0088	22.3527	15.9262	7.6338	0.7690	-0.6140	0.0968	-0.1484
6.5	0.3202	-9.6313	2.3259	0.0126	0.0177	-0.0084	22.1960	16.0569	7.6463	0.7691	-0.6141	0.0968	-0.1485
6.51	0.3131	-9.6248	2.3188	0.0038	0.0187	-0.0076	22.2134	15.9860	7.7595	0.7691	-0.6140	0.0968	-0.1485
6.52	0.3148	-9.6388	2.3215	0.0032	0.0126	-0.0078	22.2487	15.8516	7.7161	0.7691	-0.6141	0.0969	-0.1484
6.53	0.3159	-9.6863	2.3246	-0.0036	0.0099	-0.0079	22.3806	15.8311	7.7416	0.7691	-0.6141	0.0969	-0.1484
6.54	0.3232	-9.7222	2.3240	-0.0048	0.0086	-0.0088	22.2741	16.1212	7.8528	0.7691	-0.6141	0.0969	-0.1484
6.55	0.3259	-9.7332	2.3263	0.0009	0.0209	-0.0085	22.1646	15.8547	7.9608	0.7691	-0.6141	0.0969	-0.1484
6.56	0.3337	-9.7243	2.3253	0.0086	0.0113	-0.0082	22.3914	15.9263	7.7996	0.7690	-0.6141	0.0969	-0.1483
6.57	0.3474	-9.7027	2.3230	0.0170	0.0146	-0.0084	22.2135	16.1353	7.7399	0.7692	-0.6141	0.0969	-0.1484
6.58	0.3425	-9.6898	2.3216	0.0145	0.0083	-0.0073	22.1382	15.8360	7.8242	0.7691	-0.6140	0.0969	-0.1483
6.59	0.3261	-9.6722	2.3159	0.0156	0.0222	-0.0068	22.2328	15.8578	7.6126	0.7693	-0.6140	0.0970	-0.1483
6.6	0.2958	-9.6479	2.3093	0.0045	0.0228	-0.0089	22.3445	15.8528	7.7429	0.7692	-0.6139	0.0970	-0.1483
6.61	0.2574	-9.6323	2.3089	-0.0057	0.0238	-0.0080	22.3618	15.9503	7.5971	0.7692	-0.6140	0.0971	-0.1484
6.62	0.2254	-9.6318	2.2995	-0.0086	0.0287	-0.0088	22.4762	15.7684	7.6927	0.7691	-0.6140	0.0971	-0.1484
6.63	0.2022	-9.6336	2.2931	-0.0076	0.0157	-0.0077	22.3467	16.0451	7.8286	0.7691	-0.6140	0.0972	-0.1484
6.64	0.1971	-9.6489	2.2866	-0.0069	0.0142	-0.0094	22.2431	16.0062	7.8070	0.7691	-0.6141	0.0972	-0.1484
6.65	0.1998	-9.6771	2.2837	-0.0096	0.0130	-0.0074	22.1240	16.0689	7.7000	0.7690	-0.6141	0.0972	-0.1483
6.66	0.2006	-9.7144	2.2787	-0.0075	0.0042	-0.0153	22.2503	15.8851	7.7464	0.7690	-0.6142	0.0972	-0.1483
6.67	0.2126	-9.7336	2.2748	-0.0122	-0.0032	-0.0137	22.2452	15.8250	7.7091	0.7689	-0.6142	0.0971	-0.1482
6.68	0.2217	-9.7570	2.2647	-0.0081	-0.0093	-0.0140	22.2807	15.9762	7.8731	0.7689	-0.6143	0.0971	-0.1482
6.69	0.2451	-9.7759	2.2693	-0.0026	-0.0149	-0.0086	22.1753	15.9189	7.7384	0.7689	-0.6143	0.0970	-0.1481
6.7	0.2757	-9.7925	2.2589	0.0046	-0.0138	-0.0156	21.9323	15.9557	7.7847	0.7689	-0.6144	0.0969	-0.1480
6.71	0.3052	-9.7835	2.2652	0.0150	-0.0153	-0.0151	22.2175	15.9152	7.9444	0.7690	-0.6144	0.0967	-0.1479
6.72	0.3311	-9.7625	2.2702	0.0149	-0.0125	-0.0101	22.3889	15.9749	7.7471	0.7690	-0.6143	0.0966	-0.1478
6.73	0.3525	-9.7149	2.2713	0.0204	-0.0255	-0.0109	22.3109	16.0555	7.7222	0.7691	-0.6143	0.0965	-0.1477
6.74	0.3577	-9.6915	2.2793	0.0211	-0.0186	-0.0080	22.3961	15.9252	7.7275	0.7691	-0.6142	0.0964	-0.1476
6.75	0.3710	-9.7430	2.2927	0.0248	-0.0150	-0.0087	22.1618	16.0415	7.8351	0.7693	-0.6142	0.0963	-0.1475
6.76	0.3872	-9.7237	2.3158	0.0453	-0.0079	-0.0091	22.1303	15.8543	7.8057	0.7694	-0.6140	0.0961	-0.1475
6.77	0.3913	-9.6817	2.3231	0.0409	-0.0034	-0.0077	22.6805	15.8580	7.8854	0.7695	-0.6139	0.0961	-0.1474
6.78	0.4008	-9.6383	2.3279	0.0390	0.0081	-0.0105	22.9528	15.7655	8.0145	0.7696	-0.6138	0.0960	-0.1474
6.79	0.4062	-9.6129	2.3433	0.0383	0.0146	-0.0112	22.7357	15.8913	7.7057	0.7697	-0.6136	0.0960	-0.1474
6.8	0.3866	-9.6222	2.3547	0.0334	0.0188	-0.0069	22.3652	15.8784	7.6564	0.7698	-0.6135	0.0960	-0.1474
6.81	0.3535	-9.6264	2.3557	0.0220	0.0301	-0.0087	22.2968	15.5166	7.5446	0.7698	-0.6134	0.0961	-0.1475
6.82	0.3211	-9.6322	2.3593	0.0162	0.0299	-0.0069	22.1457	15.6943	7.4581	0.7700	-0.6134	0.0962	-0.1475
6.83	0.2942	-9.6409	2.3570	0.0164	0.0351	-0.0113	22.1164	15.8153	7.7049	0.7699	-0.6133	0.0962	-0.1476
6.84	0.2787	-9.6486	2.3550	0.0165	0.0297	-0.0073	22.0864	15.8784	7.5697	0.7700	-0.6133	0.0963	-0.1476
6.85	0.2710	-9.6492	2.3489	0.0121	0.0294	-0.0142	22.2231	15.8950	7.8685	0.7700	-0.6132	0.0963	-0.1477
6.86	0.2662	-9.6654	2.3430	0.0106	0.0331	-0.0138	22.2720	15.9299	7.6336	0.7700	-0.6132	0.0964	-0.1477
6.87	0.2566	-9.6678	2.3332	0.0058	0.0315	-0.0197	21.9897	15.9836	7.6894	0.7700	-0.6131	0.0965	-0.1478
6.88	0.2545	-9.6697	2.3318	0.0093	0.0237	-0.0144	22.0959	16.0656	7.7270	0.7700	-0.6131	0.0965	-0.1479
6.89	0.2577	-9.6718	2.3221	0.0035	0.0228	-0.0075	22.2408	16.0625	7.8234	0.7701	-0.6131	0.0966	-0.1479
6.9	0.2672	-9.6770	2.3184	0.0007	0.0177	-0.0089	21.9892	15.9698	7.9347	0.7700	-0.6131	0.0966	-0.1479
6.91	0.2718	-9.6867	2.3199	-0.0011	0.0129	-0.0080	21.9478	15.9365	7.6256	0.7700	-0.6132	0.0966	-0.1479
6.92	0.2814	-9.6922	2.3215	0.0051	0.0095	-0.0088	22.2322	15.7914	7.6292	0.7699	-0.6131	0.0966	-0.1478
6.93	0.2966	-9.6867	2.3154	0.0115	0.0087	-0.0077	22.1783	15.9128	7.8640	0.7700	-0.6131	0.0966	-0.1478
6.94	0.3141	-9.6769	2.3129	0.0089	0.0031	-0.0077	22.0442	15.7394	7.7745	0.7701	-0.6131	0.0966	-0.1478
6.95	0.3280	-9.6816	2.3129	0.0022	0.0006	-0.0090	22.2782	15.9343	7.6196	0.7700	-0.6131	0.0965	-0.1477
6.96	0.3391	-9.6965	2.3124	0.0030	0.0075	-0.0083	22.3856	15.6748	7.6661	0.7701	-0.6131	0.0965	-0.1477
6.97	0.3388	-9.7053	2.3138	0.0114	0.0096	-0.0086	22.1172	15.5090	7.5866	0.7701	-0.6131	0.0965	-0.1476
6.98	0.3370	-9.7181	2.3096	0.0151	0.0126	-0.0061	22.2945	15.7973	7.3566	0.7702	-0.6130	0.0965	-0.1476
6.99	0.3278	-9.7309	2.3106	0.0160	0.0145	-0.0080	22.2768	15.8207	7.7527	0.7701	-0.6129	0.0965	-0.1476
7	0.3172	-9.7315	2.3141	0.0133	0.0206	-0.0079	22.2969	15.7982	7.7282	0.7702	-0.6129	0.0966	-0.1476
7.01	0.3052	-9.7208	2.3166	0.0168	0.0239	-0.0051	22.2503	15.6596	7.7198	0.7702	-0.6129	0.0966	-0.1476
7.02	0.2878	-9.7213	2.3222	0.0165	0.0288	-0.0073	22.0999	15.5866	7.7409	0.7703	-0.6128	0.0967	-0.1477
7.03	0.2694	-9.7282	2.3220	0.0198	0.0288	-0.0080	22.0978	15.8499	7.7086	0.7703	-0.6127	0.0967	-0.1477
7.04	0.2408	-9.7068	2.3271	0.0177	0.0313	-0.0100	22.2505	15.7572	7.6318	0.7704	-0.6127	0.0968	-0.1478
7.05	0.2311	-9.6849	2.3289	0.0243	0.0311	-0.0065	22.2893	15.7425	7.8256	0.7704	-0.6126	0.0969	-0.1478
7.06	0.2245	-9.6761	2.3344	0.0259	0.0299	-0.0106	21.9696	15.9354	7.8020	0.7704	-0.6124	0.0969	-0.1478
7.07	0.2235	-9.6664	2.3457	0.0291	0.0191	-0.0098	22.1702	15.7581	7.9497	0.7706	-0.6124	0.0969	-0.1479
7.08	0.2259	-9.6449	2.3572	0.0365	0.0196	-0.0094	22.1641	16.0260	7.7050	0.7706	-0.6122	0.0969	-0.1479
7.09	0.2293	-9.6313	2.3569	0.0252	0.0169	-0.0116	22.0914	15.8028	7.8091	0.7708	-0.6122	0.0970	-0.1479
7.1	0.2376	-9.6264	2.3670	0.0179	0.0128	-0.0098	22.1094	15.9832	7.8059	0.7707	-0.6121	0.0969	-0.1479
7.11	0.2537	-9.6137	2.3706	0.0183	0.0149	-0.0144	22.2475	16.0900	7.8459	0.7708	-0.6120	0.0969	-0.1479
7.12	0.2696	-9.6056	2.3723	0.0150	0.0104	-0.0104	22.3018	15.8998	7.7074	0.7709	-0.6120	0.0969	-0.1479
7.13	0.2785	-9.6193	2.3773	0.0183	0.0098	-0.0157	22.2839	15.8435	7.5636	0.7709	-0.6119	0.0969	-0.1479
7.14	0.2891	-9.6482	2.3684	0.0066	0.0114	-0.0105	22.2763	15.6715	8.0146	0.7710	-0.6119	0.0969	-0.1479
7.15	0.2921	-9.6599	2.3692	0.0149	0.0095	-0.0129	22.4728	15.9386	7.6644	0.7710	-0.6118	0.0969	-0.1479
7.16	0.2903	-9.6651	2.3680	0.0077	0.0179	-0.0205	22.3529	15.7481	7.6830	0.7710	-0.6119	0.0969	-0.1480
7.17	0.2876	-9.6576	2.3653	0.0116	0.0126	-0.0179	22.1482	15.7256	7.8354	0.7709	-0.6118	0.0968	-0.1480
7.18	0.2785	-9.6568	2.3614	0.0046	0.0090	-0.0104	22.3498	15.6762	7.8280	0.7710	-0.6118	0.0968	-0.1480
7.19	0.2781	-9.6466	2.3652	0.0065	0.0135	-0.0161	22.2046	15.8542	7.5967	0.7710	-0.6118	0.0968	-0.1480
7.2	0.2756	-9.6377	2.3551	0.0078	0.0118	-0.0133	22.2123	16.1242	7.4963	0.7710	-0.6117	0.0968	-0.1480
7.21	0.2776	-9.6369	2.3554	-0.0092	0.0010	-0.0118	22.1752	15.8594	7.6538	0.7710	-0.6118	0.0968	-0.1479
7.22	0.2851	-9.6305	2.3490	-0.0087	0.0008	-0.0118	22.1121	15.8782	7.6326	0.7710	-0.6118	0.0967	-0.1479
7.23	0.2958	-9.6409	2.3412	-0.0099	0.0040	-0.0087	22.0360	15.5550	7.8310	0.7710	-0.6119	0.0967	-0.1478
7.24	0.3041	-9.6391	2.3339	-0.0086	0.0120	-0.0086	22.0146	15.9152	7.8148	0.7709	-0.6119	0.0967	-0.1478
7.25	0.3144	-9.6577	2.3259	-0.0093	0.0101	-0.0145	22.0027	15.8887	7.7089	0.7709	-0.6120	0.0967	-0.1478
7.26	0.3296	-9.6777	2.3288	-0.0094	0.0084	-0.0167	22.0886	15.9129	7.9034	0.7709	-0.6120	0.0967	-0.1478
7.27	0.3357	-9.6975	2.3242	-0.0083	0.0092	-0.0104	22.3424	16.1293	7.8880	0.7709	-0.6121	0.0967	-0.1478
7.28	0.3376	-9.7049	2.3254	-0.0069	0.0167	-0.0094	22.7331	16.3901	8.0651	0.7708	-0.6121	0.0967	-0.1478
7.29	0.3300	-9.7246	2.3259	-0.0095	0.0169	-0.0087	22.4869	15.9434	7.8746	0.7708	-0.6121	0.0968	-0.1477
7.3	0.3159	-9.7253	2.3266	0.0088	0.0155	-0.0127	22.0373	15.7686	7.7042	0.7708	-0.6121	0.0968	-0.1478
7.31	0.2892	-9.6576	2.3358	-0.0020	0.0153	-0.0097	22.2846	15.7153	7.8394	0.7707	-0.6121	0.0968	-0.1477
7.32	0.2879	-9.7075	2.3042	-0.0120	0.0123	-0.0075	22.0497	15.8027	7.8003	0.7708	-0.6122	0.0968	-0.1477
7.33	0.2891	-9.6547	2.3144	-0.0085	0.0149	-0.0091	22.3321	16.0508	7.5482	0.7707	-0.6122	0.0968	-0.1477
7.34	0.2874	-9.6883	2.3153	-0.0143	0.0180	-0.0085	22.6019	15.7720	7.7709	0.7707	-0.6123	0.0969	-0.1477
7.35	0.2973	-9.7377	2.3114	-0.0127	0.0126	-0.0111	22.2738	15.8809	7.6000	0.7706	-0.6123	0.0969	-0.1477
7.36	0.2853	-9.7245	2.3216	-0.0108	0.0074	-0.0082	22.3416	15.8480	7.6992	0.7706	-0.6124	0.0969	-0.1476
7.37	0.2971	-9.7506	2.3076	-0.0087	0.0161	-0.0082	22.1456	15.9429	7.6768	0.7705	-0.6125	0.0969	-0.1476
7.38	0.3014	-9.7138	2.3061	-0.0082	0.0214	-0.0098	22.4688	15.8925	7.6724	0.7704	-0.6125	0.0970	-0.1476
7.39	0.3100	-9.7361	2.2960	-0.0037	0.0241	-0.0078	22.1640	15.8513	7.9791	0.7705	-0.6126	0.0970	-0.1477
7.4	0.2953	-9.7147	2.2950	0.0087	0.0296	-0.0088	22.2068	16.0329	7.7026	0.7705	-0.6125	0.0971	-0.1477
7.41	0.2624	-9.6858	2.2897	0.0072	0.0249	-0.0079	22.1791	16.0554	7.8099	0.7705	-0.6125	0.0972	-0.1477
7.42	0.2212	-9.6665	2.2822	0.0048	0.0262	-0.0084	22.2077	15.9785	7.8029	0.7704	-0.6124	0.0972	-0.1477
7.43	0.1882	-9.6595	2.2758	-0.0051	0.0254	-0.0077	22.3777	15.9247	7.8615	0.7705	-0.6125	0.0973	-0.1478
7.44	0.1748	-9.6584	2.2762	0.0005	0.0188	-0.0102	22.1036	15.8737	7.8965	0.7704	-0.6125	0.0973	-0.1478
7.45	0.1669	-9.6619	2.2788	0.0001	0.0205	-0.0093	22.2643	15.7996	7.7207	0.7704	-0.6125	0.0974	-0.1478
7.46	0.1725	-9.6723	2.2857	-0.0026	0.0175	-0.0130	22.0967	15.6775	7.6340	0.7704	-0.6125	0.0974	-0.1478
7.47	0.1715	-9.6902	2.2851	-0.0085	0.0053	-0.0203	22.2384	15.9612	7.6430	0.7704	-0.6125	0.0973	-0.1478
7.48	0.1790	-9.7033	2.2881	-0.0083	-0.0060	-0.0179	22.3236	15.9533	7.8256	0.7704	-0.6126	0.0973	-0.1477
7.49	0.1815	-9.7150	2.2825	-0.0086	-0.0171	-0.0139	22.1069	15.9643	7.8122	0.7703	-0.6126	0.0971	-0.1476
7.5	0.1940	-9.7287	2.2863	-0.0027	-0.0145	-0.0150	22.1653	15.9555	7.8346	0.7703	-0.6127	0.0970	-0.1476
7.51	0.2127	-9.7318	2.2854	-0.0072	-0.0259	-0.0162	22.1371	15.9525	7.7737	0.7703	-0.6128	0.0969	-0.1475
7.52	0.2470	-9.7321	2.2781	0.0103	-0.0295	-0.0151	22.4231	15.6900	7.6902	0.7703	-0.6128	0.0967	-0.1473
7.53	0.2853	-9.7267	2.2776	0.0085	-0.0385	-0.0150	22.4099	15.7071	7.8724	0.7704	-0.6128	0.0965	-0.1472
7.54	0.3087	-9.6954	2.2700	0.0044	-0.0312	-0.0139	22.3054	15.6613	7.7730	0.7704	-0.6128	0.0963	-0.1471
7.55	0.3274	-9.6939	2.2830	0.0070	-0.0350	-0.0096	22.5269	15.6178	7.7390	0.7704	-0.6129	0.0961	-0.1469
7.56	0.3530	-9.7489	2.2908	0.0129	-0.0350	-0.0094	22.4202	15.8906	7.6470	0.7704	-0.6128	0.0959	-0.1467
7.57	0.3764	-9.7376	2.3001	0.0169	-0.0246	-0.0093	22.2104	15.9714	7.5195	0.7706	-0.6129	0.0958	-0.1466
7.58	0.3854	-9.7027	2.3043	0.0153	-0.0223	-0.0088	22.3938	15.7960	7.7132	0.7706	-0.6128	0.0957	-0.1465
7.59	0.3956	-9.6670	2.3161	0.0202	-0.0127	-0.0104	22.4343	15.8036	7.7407	0.7707	-0.6128	0.0956	-0.1464
7.6	0.4004	-9.6465	2.3236	0.0179	0.0034	-0.0097	22.3860	15.6781	7.7317	0.7707	-0.6127	0.0955	-0.1464
7.61	0.3830	-9.6549	2.3317	0.0155	0.0061	-0.0081	22.4547	15.7274	7.6126	0.7708	-0.6127	0.0955	-0.1464
7.62	0.3476	-9.6472	2.3329	0.0171	0.0211	-0.0089	22.1340	15.9833	7.6489	0.7708	-0.6126	0.0955	-0.1464
7.63	0.3049	-9.6430	2.3362	0.0161	0.0232	-0.0064	22.3269	15.8743	7.5988	0.7708	-0.6125	0.0955	-0.1464
7.64	0.2685	-9.6588	2.3360	0.0126	0.0280	-0.0108	22.2955	15.8518	7.8879	0.7709	-0.6126	0.0956	-0.1464
7.65	0.2467	-9.6655	2.3352	0.0098	0.0264	-0.0114	21.9938	16.0522	7.5912	0.7709	-0.6125	0.0956	-0.1465
7.66	0.2321	-9.6674	2.3330	0.0084	0.0244	-0.0195	22.0755	15.9536	7.7930	0.7709	-0.6125	0.0957	-0.1465
7.67	0.2223	-9.6805	2.3325	0.0095	0.0234	-0.0216	22.1287	15.6436	7.8311	0.7708	-0.6124	0.0957	-0.1466
7.68	0.2190	-9.6708	2.3263	0.0158	0.0234	-0.0191	22.3749	15.9564	7.7300	0.7709	-0.6124	0.0957	-0.1467
7.69	0.2193	-9.6630	2.3220	0.0018	0.0135	-0.0173	22.1259	15.7775	7.8303	0.7709	-0.6124	0.0957	-0.1467
7.7	0.2281	-9.6714	2.3141	0.0067	0.0099	-0.0131	22.2066	15.8070	7.5914	0.7709	-0.6124	0.0956	-0.1467
7.71	0.2358	-9.6717	2.3093	0.0091	0.0002	-0.0175	22.4587	15.7430	7.7669	0.7710	-0.6124	0.0956	-0.1467
7.72	0.2471	-9.6794	2.3057	-0.0043	0.0025	-0.0095	22.2294	15.8844	7.7020	0.7709	-0.6124	0.0955	-0.1466
7.73	0.2612	-9.6961	2.3094	-0.0006	-0.0105	-0.0103	22.3108	15.9341	7.7595	0.7710	-0.6124	0.0955	-0.1465
7.74	0.2724	-9.7082	2.3099	-0.0067	-0.0078	-0.0105	22.2582	15.7694	7.6131	0.7709	-0.6124	0.0954	-0.1464
7.75	0.2873	-9.7129	2.3081	0.0005	-0.0059	-0.0111	22.1018	15.8636	7.7727	0.7709	-0.6125	0.0953	-0.1464
7.76	0.2966	-9.7228	2.3111	0.0052	-0.0093	-0.0085	22.3822	15.8152	7.8259	0.7709	-0.6125	0.0952	-0.1463
7.77	0.3021	-9.7223	2.3149	0.0125	-0.0031	-0.0091	22.7179	16.1657	7.8713	0.7710	-0.6125	0.0952	-0.1462
7.78	0.3026	-9.7066	2.3145	0.0154	-0.0023	-0.0089	23.1487	16.1586	8.0066	0.7710	-0.6124	0.0951	-0.1462
7.79	0.2981	-9.7161	2.3166	0.0178	0.0070	-0.0081	22.6526	16.1610	7.5809	0.7711	-0.6124	0.0951	-0.1461
7.8	0.2902	-9.7189	2.3218	0.0169	0.0069	-0.0079	22.3373	15.9023	7.6329	0.7711	-0.6124	0.0951	-0.1461
7.81	0.2790	-9.7021	2.3210	0.0204	0.0091	-0.0103	22.0303	15.9901	7.9190	0.7711	-0.6123	0.0950	-0.1461
7.82	0.2769	-9.6884	2.3293	0.0203	0.0129	-0.0154	22.0380	16.0419	7.8783	0.7713	-0.6123	0.0950	-0.1461
7.83	0.2694	-9.6817	2.3330	0.0150	0.0109	-0.0128	22.0451	15.8926	7.9156	0.7713	-0.6122	0.0950	-0.1461
7.84	0.2545	-9.6672	2.3405	0.0195	0.0202	-0.0107	22.3152	15.8390	7.8772	0.7714	-0.6122	0.0950	-0.1461
7.85	0.2465	-9.6547	2.3395	0.0179	0.0147	-0.0146	22.2077	15.8954	8.0278	0.7713	-0.6120	0.0950	-0.1461
7.86	0.2348	-9.6550	2.3417	0.0179	0.0167	-0.0152	22.2532	15.6800	7.8345	0.7714	-0.6120	0.0950	-0.1462
7.87	0.2270	-9.6463	2.3450	0.0171	0.0134	-0.0142	22.1115	15.7897	7.8553	0.7714	-0.6120	0.0950	-0.1462
7.88	0.2205	-9.6402	2.3446	0.0174	0.0106	-0.0135	21.9905	15.8977	7.9289	0.7714	-0.6119	0.0950	-0.1462
7.89	0.2268	-9.6333	2.3514	0.0172	0.0059	-0.0138	22.1727	15.7418	7.7864	0.7716	-0.6119	0.0949	-0.1462
7.9	0.2302	-9.6324	2.3550	0.0171	-0.0029	-0.0143	22.2446	15.9260	7.6747	0.7716	-0.6118	0.0948	-0.1462
7.91	0.2434	-9.6329	2.3516	0.0118	-0.0012	-0.0190	22.4111	15.7401	7.8268	0.7717	-0.6118	0.0948	-0.1461
7.92	0.2541	-9.6359	2.3624	0.0028	-0.0042	-0.0175	22.3783	15.5437	7.7144	0.7716	-0.6117	0.0947	-0.1461
7.93	0.2664	-9.6458	2.3572	-0.0011	0.0011	-0.0179	22.5423	15.7860	7.6295	0.7717	-0.6118	0.0946	-0.1461
7.94	0.2766	-9.6524	2.3575	-0.0082	0.0014	-0.0196	22.2062	15.6792	7.5890	0.7716	-0.6118	0.0946	-0.1461
7.95	0.2856	-9.6588	2.3517	-0.0086	-0.0037	-0.0176	22.3883	15.7951	7.8045	0.7716	-0.6119	0.0945	-0.1460
7.96	0.2909	-9.6648	2.3490	-0.0090	-0.0065	-0.0187	22.2990	15.6293	7.8111	0.7716	-0.6119	0.0944	-0.1460
7.97	0.2986	-9.6641	2.3450	-0.0068	-0.0090	-0.0222	22.2112	15.6916	7.5721	0.7715	-0.6120	0.0943	-0.1459
7.98	0.3016	-9.6609	2.3328	-0.0077	-0.0127	-0.0194	22.3740	15.9220	7.6779	0.7716	-0.6121	0.0942	-0.1459
7.99	0.3069	-9.6489	2.3257	-0.0100	-0.0112	-0.0194	22.1843	15.8447	7.9162	0.7714	-0.6120	0.0941	-0.1458
8	0.3125	-9.6566	2.3154	-0.0135	-0.0151	-0.0193	22.1510	15.8369	7.8818	0.7715	-0.6122	0.0940	-0.1458
8.01	0.3192	-9.6659	2.3127	-0.0153	-0.0103	-0.0195	22.0741	15.8009	7.8025	0.7714	-0.6122	0.0939	-0.1457
8.02	0.3252	-9.6806	2.3073	-0.0230	-0.0076	-0.0139	22.0764	16.1154	8.0309	0.7714	-0.6124	0.0938	-0.1456
8.03	0.3284	-9.6930	2.3049	-0.0225	-0.0151	-0.0097	22.3642	15.7961	7.8649	0.7713	-0.6125	0.0937	-0.1455
8.04	0.3430	-9.7075	2.3025	-0.0132	-0.0134	-0.0111	22.2539	15.9222	7.6745	0.7713	-0.6126	0.0936	-0.1454
8.05	0.3532	-9.7060	2.2969	-0.0116	-0.0085	-0.0092	22.0161	15.9310	7.7640	0.7712	-0.6127	0.0936	-0.1453
8.06	0.3597	-9.7050	2.2969	-0.0067	0.0004	-0.0108	22.1239	16.0455	7.9342	0.7711	-0.6126	0.0935	-0.1453
8.07	0.3599	-9.7100	2.2996	-0.0094	-0.0022	-0.0122	22.2444	15.9137	7.7419	0.7712	-0.6128	0.0935	-0.1452
8.08	0.3478	-9.7031	2.3035	-0.0017	0.0037	-0.0092	22.4997	15.7004	7.6135	0.7711	-0.6128	0.0934	-0.1452
8.09	0.3274	-9.7003	2.2944	-0.0051	0.0067	-0.0122	22.1461	15.6296	7.8389	0.7712	-0.6129	0.0934	-0.1452
8.1	0.3130	-9.6930	2.2880	-0.0057	0.0125	-0.0161	22.1146	15.5675	7.8055	0.7711	-0.6128	0.0934	-0.1451
8.11	0.3140	-9.6750	2.2859	-0.0058	0.0089	-0.0170	22.3606	15.6443	7.8095	0.7711	-0.6129	0.0934	-0.1452
8.12	0.3223	-9.6586	2.2905	-0.0084	0.0106	-0.0223	22.0948	15.6907	7.8439	0.7710	-0.6130	0.0934	-0.1452
8.13	0.3249	-9.7105	2.2998	-0.0071	0.0128	-0.0161	22.2231	15.6894	8.0243	0.7710	-0.6130	0.0934	-0.1452
8.14	0.3336	-9.7365	2.3059	-0.0080	0.0106	-0.0140	22.3230	15.6759	7.8761	0.7710	-0.6131	0.0934	-0.1452
8.15	0.3379	-9.7480	2.3131	-0.0081	0.0169	-0.0140	22.1709	15.4424	7.7893	0.7709	-0.6131	0.0934	-0.1452
8.16	0.3425	-9.7399	2.3060	0.0006	0.0249	-0.0199	22.3077	15.6373	7.8377	0.7710	-0.6131	0.0934	-0.1452
8.17	0.3513	-9.7089	2.2977	0.0137	0.0250	-0.0142	22.3126	15.8901	7.7690	0.7709	-0.6130	0.0934	-0.1453
8.18	0.3468	-9.6995	2.2954	-0.0004	0.0239	-0.0152	22.1944	15.8302	7.9861	0.7709	-0.6131	0.0934	-0.1453
8.19	0.3176	-9.6891	2.2916	-0.0045	0.0367	-0.0097	22.0813	15.7656	7.9210	0.7709	-0.6131	0.0935	-0.1454
8.2	0.2748	-9.6685	2.2890	-0.0058	0.0257	-0.0084	22.2569	16.0544	7.9769	0.7708	-0.6131	0.0936	-0.1454
8.21	0.2222	-9.6537	2.2881	-0.0075	0.0375	-0.0080	22.0775	16.0231	7.9908	0.7708	-0.6131	0.0937	-0.1455
8.22	0.1857	-9.6454	2.2730	-0.0099	0.0303	-0.0088	22.0942	15.9275	7.6007	0.7708	-0.6131	0.0938	-0.1455
8.23	0.1706	-9.6536	2.2702	-0.0081	0.0126	-0.0067	22.0824	15.9556	7.8710	0.7708	-0.6132	0.0938	-0.1455
8.24	0.1718	-9.6519	2.2649	-0.0125	0.0106	-0.0128	22.0464	15.9544	7.9918	0.7706	-0.6132	0.0938	-0.1454
8.25	0.1784	-9.6718	2.2657	-0.0178	0.0021	-0.0179	22.0084	15.8287	7.9984	0.7707	-0.6134	0.0938	-0.1454
8.26	0.1939	-9.6835	2.2656	-0.0116	-0.0147	-0.0146	22.1722	15.8991	7.8136	0.7706	-0.6134	0.0937	-0.1453
8.27	0.2074	-9.7090	2.2559	-0.0082	-0.0166	-0.0140	22.7297	15.7740	7.8638	0.7706	-0.6135	0.0936	-0.1453
8.28	0.2283	-9.7236	2.2607	-0.0088	-0.0208	-0.0079	23.1175	15.8155	8.0857	0.7705	-0.6135	0.0935	-0.1451
8.29	0.2561	-9.7349	2.2599	-0.0083	-0.0268	-0.0149	22.6547	15.7010	8.0347	0.7705	-0.6136	0.0933	-0.1450
8.3	0.2897	-9.7523	2.2627	-0.0080	-0.0356	-0.0128	22.2522	15.8046	7.9434	0.7705	-0.6137	0.0932	-0.1449
8.31	0.3228	-9.7524	2.2630	-0.0079	-0.0349	-0.0130	22.3799	16.1176	7.9119	0.7705	-0.6137	0.0930	-0.1447
8.32	0.3436	-9.7245	2.2590	-0.0033	-0.0336	-0.0085	22.1676	15.7854	7.8029	0.7706	-0.6139	0.0928	-0.1445
8.33	0.3544	-9.6859	2.2561	-0.0024	-0.0266	-0.0092	22.2020	16.0520	7.6889	0.7705	-0.6139	0.0927	-0.1444
8.34	0.3635	-9.7257	2.2613	-0.0078	-0.0281	-0.0089	22.2502	15.6959	7.8163	0.7706	-0.6140	0.0925	-0.1443
8.35	0.3801	-9.7450	2.2685	-0.0034	-0.0220	-0.0091	22.2510	15.6724	7.8458	0.7705	-0.6140	0.0924	-0.1441
8.36	0.3879	-9.7302	2.2775	-0.0029	-0.0149	-0.0110	22.0838	15.8996	7.6753	0.7705	-0.6141	0.0923	-0.1440
8.37	0.3942	-9.7152	2.2701	0.0147	0.0006	-0.0072	21.9436	15.6387	7.8408	0.7705	-0.6140	0.0923	-0.1440
8.38	0.4009	-9.6618	2.2776	0.0191	-0.0047	-0.0103	22.2717	15.7814	8.0602	0.7705	-0.6140	0.0922	-0.1439
8.39	0.3882	-9.6816	2.2820	0.0161	0.0120	-0.0082	22.3102	15.7482	7.7665	0.7707	-0.6140	0.0922	-0.1439
8.4	0.3609	-9.6914	2.2812	0.0095	0.0199	-0.0080	22.2342	15.9603	7.8934	0.7706	-0.6139	0.0922	-0.1439
8.41	0.3229	-9.6836	2.2852	0.0146	0.0219	-0.0073	21.9780	16.0714	7.8673	0.7707	-0.6139	0.0922	-0.1439
8.42	0.2959	-9.6863	2.2800	0.0131	0.0275	-0.0102	22.0603	15.9237	7.7035	0.7707	-0.6138	0.0923	-0.1439
8.43	0.2748	-9.6898	2.2812	0.0043	0.0256	-0.0115	22.1646	15.9465	7.7430	0.7707	-0.6138	0.0923	-0.1440
8.44	0.2726	-9.6925	2.2806	0.0052	0.0274	-0.0113	22.3700	16.1195	7.7177	0.7707	-0.6138	0.0924	-0.1440
8.45	0.2745	-9.6909	2.2746	0.0082	0.0221	-0.0091	22.3797	16.0098	7.7379	0.7707	-0.6137	0.0924	-0.1440
8.46	0.2719	-9.6936	2.2738	0.0047	0.0293	-0.0081	22.2930	15.6933	7.7341	0.7707	-0.6137	0.0925	-0.1440
8.47	0.2564	-9.7071	2.2779	0.0089	0.0249	-0.0115	22.3706	15.7261	7.6030	0.7707	-0.6137	0.0926	-0.1441
8.48	0.2433	-9.7093	2.2768	0.0137	0.0252	-0.0108	22.2438	15.7700	7.5012	0.7708	-0.6137	0.0926	-0.1441
8.49	0.2434	-9.7006	2.2732	0.0124	0.0167	-0.0141	22.2415	15.7664	7.6778	0.7707	-0.6136	0.0926	-0.1441
8.5	0.2496	-9.6932	2.2754	0.0141	0.0085	-0.0117	22.3362	15.9529	7.5835	0.7709	-0.6136	0.0926	-0.1441
8.51	0.2570	-9.6917	2.2752	0.0130	0.0088	-0.0137	22.1876	15.8353	7.7610	0.7708	-0.6135	0.0926	-0.1441
8.52	0.2677	-9.7039	2.2829	0.0114	0.0065	-0.0112	22.0719	16.0860	7.8204	0.7709	-0.6135	0.0925	-0.1441
8.53	0.2763	-9.7060	2.2863	0.0156	0.0055	-0.0120	22.0589	15.8051	7.9324	0.7709	-0.6135	0.0925	-0.1441
8.54	0.2763	-9.7049	2.2863	0.0172	0.0058	-0.0114	22.3085	15.9076	8.1242	0.7710	-0.6134	0.0925	-0.1441
8.55	0.2807	-9.6956	2.2883	0.0141	0.0102	-0.0107	22.1661	15.9580	7.9254	0.7710	-0.6134	0.0924	-0.1440
8.56	0.2892	-9.6917	2.2930	0.0062	0.0047	-0.0097	22.1387	15.9336	7.8111	0.7710	-0.6133	0.0924	-0.1440
8.57	0.2957	-9.6997	2.2953	0.0034	0.0071	-0.0087	22.1665	15.9445	7.8377	0.7711	-0.6134	0.0924	-0.1440
8.58	0.2963	-9.6931	2.2899	0.0023	0.0056	-0.0085	22.2879	15.9610	8.0793	0.7710	-0.6134	0.0924	-0.1439
8.59	0.2974	-9.6848	2.2866	0.0028	0.0037	-0.0088	22.4231	16.1446	7.9043	0.7711	-0.6135	0.0924	-0.1439
8.6	0.2835	-9.6775	2.2857	0.0077	0.0048	-0.0079	22.4242	16.0254	7.9136	0.7710	-0.6134	0.0923	-0.1438
8.61	0.2774	-9.6785	2.2834	0.0064	0.0101	-0.0071	22.1812	15.9170	8.0487	0.7711	-0.6134	0.0923	-0.1438
8.62	0.2693	-9.6691	2.2830	0.0067	0.0076	-0.0080	22.3170	15.9784	7.9421	0.7711	-0.6134	0.0923	-0.1438
8.63	0.2583	-9.6779	2.2864	0.0103	0.0051	-0.0085	22.3411	15.8488	7.9053	0.7711	-0.6133	0.0923	-0.1437
8.64	0.2568	-9.6855	2.2882	0.0121	0.0049	-0.0087	22.3242	15.7686	7.9287	0.7712	-0.6134	0.0923	-0.1437
8.65	0.2548	-9.6879	2.2849	0.0115	0.0148	-0.0075	22.3502	15.8863	7.7598	0.7712	-0.6133	0.0923	-0.1437
8.66	0.2520	-9.6836	2.2856	0.0092	0.0143	-0.0101	22.2716	15.8210	7.7231	0.7712	-0.6133	0.0923	-0.1437
8.67	0.2491	-9.6795	2.2916	0.0075	0.0073	-0.0082	22.2010	15.5493	7.7469	0.7711	-0.6132	0.0923	-0.1436
8.68	0.2381	-9.6864	2.2956	0.0122	0.0159	-0.0107	22.5129	15.6439	7.7283	0.7712	-0.6132	0.0923	-0.1436
8.69	0.2369	-9.6892	2.3017	0.0120	0.0080	-0.0167	22.2648	15.8118	7.7680	0.7713	-0.6132	0.0923	-0.1436
8.7	0.2379	-9.6916	2.2982	0.0109	0.0091	-0.0163	22.2638	15.7413	7.9276	0.7713	-0.6132	0.0922	-0.1436
8.71	0.2392	-9.6820	2.2980	0.0000	0.0094	-0.0175	22.0944	15.7883	7.9117	0.7713	-0.6132	0.0922	-0.1437
8.72	0.2433	-9.6901	2.2988	0.0039	-0.0007	-0.0110	22.1322	15.7417	7.7873	0.7713	-0.6132	0.0921	-0.1436
8.73	0.2501	-9.6922	2.2962	0.0070	0.0043	-0.0179	22.4658	15.8239	7.8983	0.7713	-0.6132	0.0921	-0.1436
8.74	0.2627	-9.6981	2.2951	-0.0093	-0.0005	-0.0209	22.3490	15.9528	7.9339	0.7712	-0.6132	0.0920	-0.1436
8.75	0.2761	-9.6988	2.2920	-0.0002	-0.0074	-0.0240	22.0553	15.9372	8.0043	0.7713	-0.6133	0.0919	-0.1436
8.76	0.2866	-9.6790	2.2869	0.0011	-0.0092	-0.0207	22.3479	15.9446	7.8776	0.7712	-0.6133	0.0918	-0.1435
8.77	0.3003	-9.6620	2.2842	-0.0067	-0.0128	-0.0202	22.6683	15.9546	8.2695	0.7712	-0.6134	0.0917	-0.1435
8.78	0.3084	-9.6529	2.2908	0.0112	-0.0121	-0.0231	22.9743	15.9596	8.3686	0.7712	-0.6134	0.0915	-0.1434
8.79	0.3195	-9.6726	2.2920	-0.0056	-0.0108	-0.0270	22.5229	16.1682	8.0379	0.7712	-0.6134	0.0914	-0.1434
8.8	0.3297	-9.6915	2.2938	-0.0068	-0.0164	-0.0182	21.9977	16.0592	7.9474	0.7712	-0.6135	0.0913	-0.1433
8.81	0.3400	-9.6979	2.2872	-0.0062	-0.0083	-0.0150	22.2669	16.0070	7.8052	0.7711	-0.6135	0.0912	-0.1433
8.82	0.3317	-9.7097	2.2868	-0.0057	-0.0105	-0.0172	22.0763	15.8250	7.9244	0.7712	-0.6137	0.0911	-0.1432
8.83	0.3216	-9.7380	2.2827	-0.0100	-0.0156	-0.0108	22.1886	15.6503	7.9187	0.7711	-0.6137	0.0910	-0.1431
8.84	0.3064	-9.7313	2.2724	-0.0025	-0.0077	-0.0087	22.2905	15.7343	7.9279	0.7712	-0.6138	0.0910	-0.1430
8.85	0.2994	-9.7145	2.2699	0.0043	-0.0057	-0.0123	22.3266	15.5821	7.8257	0.7711	-0.6137	0.0909	-0.1430
8.86	0.3116	-9.7182	2.2591	0.0070	-0.0071	-0.0171	22.3990	15.6320	7.8269	0.7711	-0.6138	0.0908	-0.1429
8.87	0.3285	-9.7095	2.2745	0.0134	-0.0187	-0.0119	22.4234	15.7683	7.8344	0.7712	-0.6137	0.0907	-0.1428
8.88	0.3502	-9.7228	2.2800	0.0135	-0.0189	-0.0133	22.3086	15.7942	7.8148	0.7712	-0.6137	0.0905	-0.1427
8.89	0.3698	-9.7514	2.2894	0.0155	-0.0084	-0.0169	22.2245	15.8691	7.8368	0.7713	-0.6137	0.0904	-0.1427
8.9	0.3794	-9.7454	2.2990	0.0177	-0.0035	-0.0137	22.3182	15.9039	7.7900	0.7713	-0.6136	0.0904	-0.1426
8.91	0.3913	-9.7366	2.3029	0.0281	0.0037	-0.0144	22.1128	15.7930	7.9051	0.7714	-0.6136	0.0903	-0.1426
8.92	0.3975	-9.7133	2.3100	0.0192	0.0076	-0.0090	22.1379	15.7135	7.9170	0.7714	-0.6135	0.0903	-0.1426
8.93	0.3805	-9.6877	2.3121	0.0179	0.0118	-0.0103	22.2322	15.7422	7.6971	0.7715	-0.6135	0.0903	-0.1426
8.94	0.3489	-9.6611	2.3194	0.0181	0.0193	-0.0075	22.2107	15.7621	7.7178	0.7715	-0.6134	0.0903	-0.1426
8.95	0.3052	-9.6526	2.3158	0.0172	0.0220	-0.0063	22.2381	15.9849	7.5384	0.7716	-0.6133	0.0904	-0.1426
8.96	0.2648	-9.6392	2.3074	0.0157	0.0239	-0.0075	22.1097	15.9556	8.1162	0.7716	-0.6133	0.0904	-0.1426
8.97	0.2345	-9.6307	2.3066	0.0120	0.0227	-0.0099	22.1599	16.1895	7.8697	0.7716	-0.6132	0.0905	-0.1427
8.98	0.2208	-9.6356	2.2948	0.0090	0.0184	-0.0092	22.0971	15.8841	7.8543	0.7717	-0.6132	0.0905	-0.1427
8.99	0.2193	-9.6431	2.2936	0.0014	0.0093	-0.0118	22.2552	15.7836	7.9492	0.7716	-0.6132	0.0905	-0.1426
9	0.2258	-9.6631	2.2873	0.0010	0.0091	-0.0174	22.1713	15.8903	7.7731	0.7717	-0.6132	0.0905	-0.1427
9.01	0.2380	-9.6778	2.2878	0.0100	-0.0050	-0.0116	22.1890	15.7017	7.7035	0.7717	-0.6132	0.0904	-0.1426
9.02	0.2575	-9.6921	2.2899	0.0104	-0.0071	-0.0107	22.4260	15.7107	7.8304	0.7717	-0.6132	0.0903	-0.1425
9.03	0.2800	-9.6945	2.2880	0.0092	-0.0113	-0.0112	22.3797	15.5849	7.7362	0.7717	-0.6132	0.0903	-0.1425
9.04	0.3017	-9.7110	2.2932	-0.0002	-0.0171	-0.0096	22.5214	15.6442	7.4705	0.7717	-0.6132	0.0902	-0.1424
9.05	0.3167	-9.7198	2.3032	0.0072	-0.0216	-0.0110	22.4410	15.7446	7.6729	0.7718	-0.6132	0.0900	-0.1422
9.06	0.3333	-9.7181	2.3023	0.0112	-0.0172	-0.0082	22.2321	15.9629	7.8651	0.7717	-0.6132	0.0899	-0.1421
9.07	0.3390	-9.6746	2.2927	0.0132	-0.0161	-0.0094	22.0915	16.0578	7.5598	0.7719	-0.6132	0.0898	-0.1420
9.08	0.3379	-9.6577	2.2997	0.0168	-0.0161	-0.0077	22.1843	15.8889	7.5667	0.7719	-0.6132	0.0897	-0.1419
9.09	0.3501	-9.6987	2.3032	0.0067	-0.0163	-0.0084	22.2454	15.5916	7.7305	0.7720	-0.6132	0.0896	-0.1418
9.1	0.3677	-9.7050	2.3183	0.0163	-0.0156	-0.0081	22.1103	15.7098	7.8347	0.7719	-0.6131	0.0895	-0.1417
9.11	0.3748	-9.7028	2.3169	0.0162	-0.0060	-0.0078	22.1397	15.7858	7.8054	0.7720	-0.6131	0.0895	-0.1417
9.12	0.3934	-9.6639	2.3144	0.0173	-0.0002	-0.0089	21.9593	15.8336	7.6686	0.7721	-0.6131	0.0894	-0.1416
9.13	0.3993	-9.6366	2.3139	0.0189	0.0031	-0.0084	22.2498	15.8805	7.9132	0.7721	-0.6130	0.0894	-0.1415
9.14	0.3817	-9.6525	2.3135	0.0070	0.0217	-0.0091	22.1765	15.8791	7.9313	0.7722	-0.6130	0.0894	-0.1416
9.15	0.3455	-9.6753	2.3109	0.0108	0.0227	-0.0071	22.0439	15.8353	7.7357	0.7722	-0.6129	0.0895	-0.1416
9.16	0.3096	-9.6774	2.3103	0.0101	0.0257	-0.0077	22.1698	16.0070	7.7347	0.7722	-0.6129	0.0895	-0.1416
9.17	0.2776	-9.6867	2.3141	0.0117	0.0306	-0.0150	22.1186	16.0698	7.6995	0.7721	-0.6128	0.0896	-0.1416
9.18	0.2660	-9.6959	2.3115	0.0100	0.0344	-0.0147	22.1293	16.0366	7.7799	0.7722	-0.6128	0.0897	-0.1417
9.19	0.2672	-9.6848	2.3179	0.0082	0.0309	-0.0076	22.1798	15.8589	7.5954	0.7722	-0.6128	0.0897	-0.1418
9.2	0.2678	-9.6709	2.3123	0.0140	0.0192	-0.0147	22.2265	15.6922	7.5881	0.7722	-0.6127	0.0898	-0.1418
9.21	0.2616	-9.6752	2.3096	0.0104	0.0202	-0.0112	22.4115	15.5103	7.8784	0.7723	-0.6127	0.0898	-0.1418
9.22	0.2648	-9.6750	2.3050	0.0010	0.0140	-0.0165	22.2583	15.6605	7.6736	0.7722	-0.6127	0.0898	-0.1418
9.23	0.2670	-9.6785	2.3007	-0.0078	0.0143	-0.0148	22.1961	15.7129	7.8143	0.7722	-0.6128	0.0898	-0.1419
9.24	0.2736	-9.6868	2.2983	-0.0085	0.0102	-0.0096	22.2455	15.6725	7.8543	0.7721	-0.6128	0.0898	-0.1418
9.25	0.2764	-9.7087	2.2919	-0.0073	0.0087	-0.0137	22.2935	15.7299	7.6698	0.7722	-0.6129	0.0898	-0.1418
9.26	0.2876	-9.7193	2.2885	-0.0073	0.0094	-0.0131	22.3756	15.7923	7.6987	0.7721	-0.6129	0.0898	-0.1418
9.27	0.2965	-9.7188	2.2844	0.0054	0.0071	-0.0081	22.6835	15.8357	8.0120	0.7721	-0.6129	0.0898	-0.1418
9.28	0.3037	-9.7281	2.2805	0.0042	0.0040	-0.0103	23.1718	16.0218	8.0790	0.7721	-0.6129	0.0898	-0.1417
9.29	0.3129	-9.7362	2.2862	0.0117	0.0111	-0.0097	22.4771	15.7715	7.8280	0.7722	-0.6129	0.0898	-0.1417
9.3	0.3143	-9.7400	2.2890	0.0130	0.0138	-0.0081	22.1428	15.6904	7.5684	0.7722	-0.6129	0.0898	-0.1417
9.31	0.3147	-9.7215	2.2925	0.0153	0.0059	-0.0099	22.2599	15.8949	7.5258	0.7722	-0.6128	0.0898	-0.1417
9.32	0.3125	-9.7099	2.2921	0.0167	0.0136	-0.0065	22.2416	15.9690	7.8038	0.7723	-0.6128	0.0898	-0.1417
9.33	0.3124	-9.6973	2.2987	0.0151	0.0140	-0.0081	22.3423	15.7805	7.7998	0.7723	-0.6127	0.0898	-0.1416
9.34	0.3050	-9.6876	2.2988	0.0156	0.0104	-0.0087	22.1515	15.8233	7.7129	0.7724	-0.6127	0.0898	-0.1416
9.35	0.2914	-9.6855	2.3058	0.0149	0.0143	-0.0086	22.4902	15.9846	7.7577	0.7723	-0.6126	0.0898	-0.1416
9.36	0.2851	-9.6787	2.3130	0.0154	0.0191	-0.0080	22.3341	15.9294	7.6062	0.7724	-0.6126	0.0899	-0.1416
9.37	0.2712	-9.6743	2.3178	0.0158	0.0180	-0.0105	22.2402	15.8097	7.8877	0.7725	-0.6125	0.0899	-0.1416
9.38	0.2619	-9.6813	2.3211	0.0156	0.0138	-0.0087	22.4678	15.7452	7.6551	0.7724	-0.6124	0.0899	-0.1416
9.39	0.2600	-9.6740	2.3257	0.0158	0.0088	-0.0089	22.1829	15.9156	7.5522	0.7726	-0.6125	0.0899	-0.1416
9.4	0.2535	-9.6581	2.3271	0.0162	0.0113	-0.0090	22.4501	15.9303	7.5102	0.7726	-0.6124	0.0899	-0.1416
9.41	0.2524	-9.6523	2.3276	0.0114	0.0136	-0.0121	22.5371	15.8091	7.4756	0.7726	-0.6124	0.0899	-0.1416
9.42	0.2507	-9.6430	2.3368	0.0140	0.0087	-0.0109	22.4205	15.6519	7.7969	0.7726	-0.6123	0.0899	-0.1416
9.43	0.2505	-9.6337	2.3372	0.0177	0.0146	-0.0129	22.1731	15.8657	7.5821	0.7727	-0.6123	0.0899	-0.1416
9.44	0.2504	-9.6427	2.3344	0.0108	0.0101	-0.0176	22.3628	16.0900	7.7385	0.7727	-0.6122	0.0899	-0.1416
9.45	0.2577	-9.6404	2.3384	0.0159	0.0090	-0.0117	22.4587	15.7865	7.6671	0.7727	-0.6122	0.0899	-0.1416
9.46	0.2702	-9.6292	2.3436	0.0103	0.0064	-0.0121	22.2960	16.0385	7.6425	0.7728	-0.6122	0.0898	-0.1415
9.47	0.2778	-9.6221	2.3317	-0.0062	0.0068	-0.0127	22.3661	15.8239	7.6349	0.7727	-0.6122	0.0898	-0.1415
9.48	0.2801	-9.6265	2.3221	-0.0095	0.0112	-0.0142	22.2324	15.8472	7.4874	0.7727	-0.6123	0.0899	-0.1415
9.49	0.2812	-9.6441	2.3207	-0.0094	0.0109	-0.0173	21.9233	16.1782	7.7575	0.7726	-0.6122	0.0898	-0.1415
9.5	0.2938	-9.6757	2.3175	-0.0068	0.0096	-0.0209	22.1283	15.6789	7.7226	0.7727	-0.6123	0.0898	-0.1415
9.51	0.3136	-9.6852	2.3133	-0.0094	0.0101	-0.0167	22.2735	16.0107	7.7809	0.7726	-0.6124	0.0898	-0.1415
9.52	0.3220	-9.6841	2.3023	-0.0082	0.0128	-0.0238	22.2262	16.0648	7.8542	0.7726	-0.6124	0.0898	-0.1415
9.53	0.3208	-9.6918	2.2943	-0.0087	0.0092	-0.0191	22.2528	16.0216	7.8051	0.7725	-0.6125	0.0898	-0.1415
9.54	0.3165	-9.7036	2.3001	-0.0083	0.0047	-0.0124	22.0985	15.8359	7.7431	0.7725	-0.6125	0.0898	-0.1415
9.55	0.3119	-9.7057	2.2951	-0.0097	0.0117	-0.0169	22.2289	16.0684	7.8957	0.7724	-0.6126	0.0898	-0.1415
9.56	0.3178	-9.7089	2.2884	-0.0019	0.0061	-0.0142	22.2410	15.9566	7.6227	0.7723	-0.6126	0.0897	-0.1415
9.57	0.3280	-9.6846	2.2794	0.0039	-0.0026	-0.0088	22.2455	15.8338	7.6588	0.7725	-0.6127	0.0897	-0.1414
9.58	0.3421	-9.6684	2.2884	-0.0074	-0.0026	-0.0089	22.3680	15.7556	7.6093	0.7724	-0.6127	0.0897	-0.1414
9.59	0.3552	-9.7191	2.2891	-0.0084	-0.0038	-0.0094	22.2408	15.7931	7.5138	0.7724	-0.6128	0.0896	-0.1413
9.6	0.3618	-9.7496	2.2935	-0.0053	0.0098	-0.0078	22.2197	15.7615	7.6773	0.7723	-0.6127	0.0896	-0.1412
9.61	0.3638	-9.7623	2.2937	-0.0026	0.0073	-0.0083	22.4972	15.7981	7.6143	0.7723	-0.6128	0.0896	-0.1412
9.62	0.3761	-9.7462	2.2908	0.0090	0.0083	-0.0084	22.4769	15.7107	7.7270	0.7723	-0.6128	0.0896	-0.1412
9.63	0.3720	-9.7120	2.2897	0.0138	0.0122	-0.0081	22.3142	15.7171	7.7406	0.7723	-0.6127	0.0896	-0.1412
9.64	0.3611	-9.6857	2.2779	0.0104	0.0163	-0.0085	22.2420	16.1264	7.8533	0.7725	-0.6128	0.0897	-0.1412
9.65	0.3335	-9.6774	2.2735	0.0046	0.0225	-0.0071	22.2264	15.9435	7.7878	0.7724	-0.6127	0.0897	-0.1412
9.66	0.2935	-9.6692	2.2724	0.0087	0.0251	-0.0032	22.2929	15.7963	7.7188	0.7725	-0.6127	0.0898	-0.1412
9.67	0.2487	-9.6688	2.2718	0.0082	0.0256	-0.0065	22.4289	15.6626	7.7609	0.7724	-0.6126	0.0899	-0.1412
9.68	0.2221	-9.6699	2.2634	-0.0012	0.0187	-0.0082	22.2962	15.8506	7.7238	0.7724	-0.6127	0.0899	-0.1412
9.69	0.2135	-9.6749	2.2594	-0.0034	0.0180	-0.0090	22.3545	15.8101	7.7548	0.7724	-0.6127	0.0900	-0.1412
9.7	0.2208	-9.6961	2.2547	-0.0078	0.0133	-0.0080	22.2487	15.8255	7.7163	0.7723	-0.6127	0.0900	-0.1412
9.71	0.2335	-9.7200	2.2545	-0.0063	0.0078	-0.0106	22.1301	15.9720	7.8620	0.7724	-0.6128	0.0900	-0.1411
9.72	0.2467	-9.7354	2.2635	-0.0043	0.0081	-0.0133	22.2909	16.0898	7.7840	0.7723	-0.6128	0.0900	-0.1411
9.73	0.2522	-9.7517	2.2585	0.0015	0.0036	-0.0115	22.1652	15.9060	7.7225	0.7723	-0.6128	0.0900	-0.1411
9.74	0.2606	-9.7525	2.2668	0.0173	0.0043	-0.0183	22.4858	15.8408	7.7474	0.7723	-0.6127	0.0899	-0.1411
9.75	0.2717	-9.7458	2.2701	0.0140	-0.0155	-0.0133	22.1026	15.9777	7.6232	0.7724	-0.6128	0.0898	-0.1410
9.76	0.2825	-9.7393	2.2723	0.0183	-0.0094	-0.0100	22.1891	15.7843	8.0064	0.7724	-0.6127	0.0897	-0.1409
9.77	0.2998	-9.7153	2.2760	0.0163	-0.0123	-0.0083	22.6956	15.7824	8.0068	0.7725	-0.6127	0.0897	-0.1408
9.78	0.3013	-9.6621	2.2775	0.0285	-0.0194	-0.0087	22.9251	15.8011	8.1971	0.7726	-0.6126	0.0895	-0.1407
9.79	0.3022	-9.6627	2.2861	0.0197	-0.0187	-0.0084	22.6737	15.8617	7.9547	0.7726	-0.6126	0.0894	-0.1406
9.8	0.3170	-9.7050	2.2960	0.0169	-0.0204	-0.0090	22.3662	15.5197	7.6607	0.7727	-0.6126	0.0893	-0.1405
9.81	0.3429	-9.7115	2.3071	0.0174	-0.0159	-0.0082	22.2895	15.8247	7.9462	0.7727	-0.6125	0.0892	-0.1404
9.82	0.3548	-9.7164	2.3116	0.0208	-0.0169	-0.0098	22.2824	15.8696	7.7399	0.7729	-0.6125	0.0891	-0.1403
9.83	0.3742	-9.6773	2.3096	0.0188	-0.0088	-0.0110	22.2721	15.7659	7.6146	0.7729	-0.6124	0.0890	-0.1402
9.84	0.3893	-9.6596	2.3210	0.0218	-0.0026	-0.0101	22.0912	15.7530	7.8362	0.7730	-0.6124	0.0889	-0.1402
9.85	0.3739	-9.6757	2.3215	0.0181	0.0058	-0.0090	22.2152	15.5581	7.8068	0.7730	-0.6123	0.0889	-0.1402
9.86	0.3457	-9.6708	2.3303	0.0206	0.0198	-0.0075	22.0775	15.7829	7.7009	0.7730	-0.6123	0.0889	-0.1402
9.87	0.3085	-9.6546	2.3328	0.0194	0.0217	-0.0088	22.3483	15.9169	7.9409	0.7731	-0.6122	0.0890	-0.1402
9.88	0.2701	-9.6455	2.3270	0.0160	0.0266	-0.0081	22.0777	15.7805	7.7292	0.7731	-0.6121	0.0890	-0.1402
9.89	0.2520	-9.6472	2.3338	0.0180	0.0280	-0.0072	22.3544	15.7792	7.7150	0.7732	-0.6121	0.0891	-0.1402
9.9	0.2516	-9.6463	2.3339	0.0133	0.0164	-0.0115	22.1848	15.6610	7.8633	0.7732	-0.6120	0.0891	-0.1402
9.91	0.2519	-9.6381	2.3294	0.0107	0.0193	-0.0129	22.1348	15.7685	7.7659	0.7733	-0.6120	0.0892	-0.1403
9.92	0.2502	-9.6298	2.3263	0.0075	0.0224	-0.0092	22.3190	15.8790	7.9543	0.7732	-0.6119	0.0892	-0.1403
9.93	0.2407	-9.6396	2.3264	0.0022	0.0184	-0.0157	22.2896	15.8698	7.7207	0.7732	-0.6120	0.0893	-0.1403
9.94	0.2471	-9.6674	2.3290	-0.0097	0.0125	-0.0098	22.2478	15.8778	7.8155	0.7732	-0.6120	0.0893	-0.1403
9.95	0.2505	-9.6784	2.3234	-0.0056	0.0185	-0.0106	22.1638	15.8313	7.9583	0.7731	-0.6120	0.0893	-0.1403
9.96	0.2496	-9.6862	2.3197	0.0009	0.0132	-0.0071	22.3124	15.5530	7.7833	0.7732	-0.6121	0.0894	-0.1402
9.97	0.2569	-9.6923	2.3187	-0.0035	0.0081	-0.0098	22.2734	15.4144	7.7032	0.7731	-0.6121	0.0894	-0.1402
9.98	0.2672	-9.6895	2.3192	-0.0020	0.0080	-0.0105	22.5001	15.6316	7.7911	0.7731	-0.6121	0.0894	-0.1402
9.99	0.2788	-9.6879	2.3108	-0.0016	0.0019	-0.0081	22.3592	15.5960	7.8344	0.7730	-0.6121	0.0893	-0.1401
10	0.2936	-9.6956	2.3107	-0.0044	0.0000	-0.0098	22.3065	15.7366	7.8081	0.7731	-0.6122	0.0893	-0.1401
10.01	0.2997	-9.7097	2.3104	-0.0063	0.0021	-0.0067	22.3882	15.6567	7.8229	0.7730	-0.6122	0.0893	-0.1400
10.02	0.3005	-9.7166	2.3007	0.0005	0.0079	-0.0087	22.1125	15.8495	7.8070	0.7731	-0.6122	0.0893	-0.1400
10.03	0.3034	-9.7163	2.2990	0.0075	0.0043	-0.0085	22.0866	15.9019	7.8088	0.7730	-0.6122	0.0893	-0.1399
10.04	0.3044	-9.7151	2.3053	0.0107	0.0128	-0.0065	22.1561	15.5852	7.8117	0.7731	-0.6122	0.0893	-0.1399
10.05	0.2978	-9.7155	2.3077	0.0115	0.0198	-0.0079	22.1800	15.7032	7.8372	0.7731	-0.6122	0.0893	-0.1399
10.06	0.2905	-9.7081	2.3072	0.0132	0.0213	-0.0082	21.9770	15.9775	8.0394	0.7731	-0.6121	0.0894	-0.1399
10.07	0.2818	-9.7037	2.3095	0.0130	0.0191	-0.0086	22.2682	15.9679	7.8186	0.7732	-0.6121	0.0894	-0.1399
10.08	0.2643	-9.6893	2.3106	0.0164	0.0248	-0.0069	21.9732	15.9303	7.7399	0.7732	-0.6120	0.0895	-0.1399
10.09	0.2550	-9.6844	2.3116	0.0142	0.0274	-0.0089	21.9560	15.7896	8.0793	0.7733	-0.6120	0.0896	-0.1400
10.1	0.2368	-9.6883	2.3143	0.0172	0.0286	-0.0070	22.2442	15.7663	7.6920	0.7732	-0.6119	0.0896	-0.1400
10.11	0.2229	-9.6835	2.3167	0.0154	0.0271	-0.0069	22.1550	15.8101	7.6004	0.7733	-0.6119	0.0897	-0.1400
10.12	0.2150	-9.6718	2.3210	0.0189	0.0202	-0.0086	22.1006	15.8997	7.6782	0.7733	-0.6118	0.0897	-0.1400
10.13	0.2087	-9.6610	2.3166	0.0160	0.0235	-0.0078	22.1063	15.8072	7.8002	0.7733	-0.6117	0.0898	-0.1400
10.14	0.2024	-9.6591	2.3223	0.0144	0.0208	-0.0086	22.2126	15.6481	7.8474	0.7735	-0.6117	0.0898	-0.1401
10.15	0.2121	-9.6473	2.3198	0.0086	0.0116	-0.0081	22.3352	15.6506	7.7520	0.7734	-0.6117	0.0898	-0.1400
10.16	0.2149	-9.6380	2.3176	0.0038	0.0074	-0.0100	22.2061	15.6727	7.7756	0.7735	-0.6117	0.0899	-0.1400
10.17	0.2194	-9.6312	2.3190	0.0080	0.0136	-0.0121	22.2024	15.4968	7.9246	0.7734	-0.6116	0.0899	-0.1400
10.18	0.2245	-9.6305	2.3162	-0.0013	0.0090	-0.0108	22.1779	15.5302	7.8154	0.7734	-0.6117	0.0899	-0.1400
10.19	0.2286	-9.6412	2.3159	-0.0014	0.0088	-0.0110	22.2654	15.8737	7.7580	0.7734	-0.6117	0.0899	-0.1399
10.2	0.2455	-9.6449	2.3183	-0.0066	0.0071	-0.0111	22.2902	15.7469	7.7578	0.7734	-0.6117	0.0899	-0.1399
10.21	0.2560	-9.6488	2.3115	-0.0026	0.0047	-0.0114	22.4021	15.5688	8.0654	0.7734	-0.6118	0.0899	-0.1399
10.22	0.2570	-9.6722	2.3158	-0.0034	0.0046	-0.0132	22.2081	15.6598	7.6769	0.7733	-0.6118	0.0899	-0.1398
10.23	0.2483	-9.6839	2.3149	-0.0122	0.0060	-0.0147	22.2699	15.7449	7.8468	0.7733	-0.6119	0.0899	-0.1398
10.24	0.2421	-9.6756	2.3065	-0.0145	0.0072	-0.0177	22.2256	15.9665	8.0264	0.7732	-0.6119	0.0899	-0.1398
10.25	0.2456	-9.6850	2.2975	-0.0142	-0.0006	-0.0135	22.0704	16.0707	7.8530	0.7732	-0.6121	0.0898	-0.1397
10.26	0.2591	-9.6641	2.2869	-0.0117	0.0002	-0.0104	22.3236	16.0187	7.9598	0.7731	-0.6121	0.0898	-0.1397
10.27	0.2740	-9.6560	2.2855	-0.0299	-0.0039	-0.0107	22.4862	15.8588	8.0461	0.7731	-0.6123	0.0898	-0.1396
10.28	0.2919	-9.7121	2.2863	-0.0267	-0.0109	-0.0119	22.9414	15.9989	8.2963	0.7729	-0.6124	0.0897	-0.1395
10.29	0.3144	-9.7565	2.2876	-0.0131	-0.0067	-0.0129	22.5049	15.9935	8.0267	0.7729	-0.6125	0.0897	-0.1394
10.3	0.3221	-9.7677	2.2882	-0.0096	-0.0089	-0.0085	22.2751	16.2500	7.8469	0.7729	-0.6126	0.0896	-0.1393
10.31	0.3323	-9.7481	2.2796	-0.0071	-0.0102	-0.0114	22.3387	15.9519	8.0912	0.7728	-0.6126	0.0896	-0.1392
10.32	0.3427	-9.7238	2.2737	-0.0070	-0.0024	-0.0085	22.4353	15.9791	8.1157	0.7729	-0.6127	0.0895	-0.1392
10.33	0.3435	-9.7160	2.2599	-0.0091	0.0039	-0.0091	22.4050	15.8229	8.0266	0.7728	-0.6127	0.0895	-0.1391
10.34	0.3368	-9.7103	2.2547	-0.0064	0.0096	-0.0084	22.4890	15.5841	7.8062	0.7728	-0.6128	0.0895	-0.1391
10.35	0.3109	-9.6969	2.2492	-0.0080	0.0097	-0.0089	22.5256	15.9099	7.8111	0.7727	-0.6128	0.0895	-0.1391
10.36	0.2761	-9.6949	2.2431	-0.0037	0.0113	-0.0090	22.3830	15.6999	7.8461	0.7727	-0.6128	0.0896	-0.1390
10.37	0.2465	-9.6999	2.2370	-0.0087	0.0215	-0.0083	22.4626	15.8495	7.7436	0.7727	-0.6129	0.0896	-0.1390
10.38	0.2365	-9.7129	2.2403	-0.0100	0.0078	-0.0098	22.3138	15.8298	7.7922	0.7726	-0.6129	0.0896	-0.1390
10.39	0.2337	-9.7231	2.2385	-0.0023	0.0177	-0.0073	22.4515	16.0828	7.9370	0.7727	-0.6130	0.0897	-0.1390
10.4	0.2398	-9.7312	2.2391	-0.0030	0.0147	-0.0130	22.3796	15.9597	7.8887	0.7726	-0.6130	0.0897	-0.1390
10.41	0.2408	-9.7405	2.2430	-0.0015	0.0008	-0.0141	22.3079	15.7387	7.9219	0.7726	-0.6131	0.0897	-0.1390
10.42	0.2434	-9.7370	2.2424	0.0096	0.0061	-0.0114	22.3428	15.7830	7.9126	0.7725	-0.6130	0.0896	-0.1389
10.43	0.2433	-9.7449	2.2466	0.0134	0.0055	-0.0133	22.3192	15.7414	7.9095	0.7726	-0.6130	0.0896	-0.1389
10.44	0.2529	-9.7496	2.2472	0.0168	-0.0037	-0.0154	22.3479	15.8234	8.1051	0.7727	-0.6129	0.0895	-0.1389
10.45	0.2692	-9.7406	2.2494	0.0160	-0.0099	-0.0113	22.3096	15.8772	8.0071	0.7727	-0.6129	0.0895	-0.1388
10.46	0.2925	-9.7420	2.2525	0.0180	-0.0139	-0.0088	22.4592	15.7470	8.0103	0.7728	-0.6129	0.0894	-0.1387
10.47	0.3040	-9.7121	2.2516	0.0152	-0.0164	-0.0085	22.2176	15.9098	7.8371	0.7728	-0.6128	0.0893	-0.1386
10.48	0.3148	-9.6847	2.2602	0.0181	-0.0114	-0.0077	22.1783	15.9627	7.8693	0.7729	-0.6128	0.0892	-0.1385
10.49	0.3283	-9.7344	2.2748	0.0144	-0.0139	-0.0082	22.3575	15.8442	7.9363	0.7728	-0.6127	0.0891	-0.1384
10.5	0.3526	-9.7480	2.2934	0.0289	-0.0094	-0.0075	22.4240	15.8606	7.8875	0.7730	-0.6127	0.0890	-0.1383
10.51	0.3676	-9.7144	2.3021	0.0310	-0.0091	-0.0085	22.2604	15.8333	7.9344	0.7731	-0.6126	0.0889	-0.1383
10.52	0.3766	-9.6673	2.3083	0.0352	-0.0012	-0.0081	22.5218	15.6474	7.8576	0.7732	-0.6125	0.0889	-0.1382
10.53	0.3935	-9.6332	2.3215	0.0301	0.0063	-0.0084	22.3972	15.7896	7.6162	0.7733	-0.6124	0.0888	-0.1382
10.54	0.3799	-9.6402	2.3218	0.0208	0.0214	-0.0064	22.5926	15.7128	7.5054	0.7733	-0.6124	0.0889	-0.1382
10.55	0.3578	-9.6347	2.3303	0.0202	0.0240	-0.0021	22.5110	15.6937	7.6418	0.7734	-0.6123	0.0890	-0.1382
10.56	0.3198	-9.6246	2.3348	0.0169	0.0345	-0.0067	22.2859	15.8839	7.9506	0.7733	-0.6122	0.0890	-0.1382
10.57	0.2850	-9.6420	2.3272	0.0191	0.0418	-0.0076	22.4650	15.7290	7.7790	0.7735	-0.6122	0.0892	-0.1383
10.58	0.2502	-9.6434	2.3303	0.0105	0.0374	-0.0076	22.3789	15.8143	7.7282	0.7734	-0.6121	0.0893	-0.1383
10.59	0.2306	-9.6492	2.3266	0.0054	0.0357	-0.0079	22.5240	15.8701	7.9516	0.7735	-0.6121	0.0894	-0.1384
10.6	0.2182	-9.6536	2.3245	0.0077	0.0365	-0.0096	22.4168	15.8319	7.7754	0.7734	-0.6120	0.0895	-0.1384
10.61	0.2032	-9.6499	2.3114	0.0002	0.0365	-0.0084	22.1899	15.8784	8.0013	0.7734	-0.6120	0.0897	-0.1385
10.62	0.1906	-9.6618	2.3132	0.0001	0.0401	-0.0099	22.3107	15.7879	8.0936	0.7734	-0.6120	0.0898	-0.1385
10.63	0.1856	-9.6584	2.3131	-0.0035	0.0263	-0.0081	22.3620	15.7982	7.8851	0.7733	-0.6120	0.0899	-0.1385
10.64	0.1944	-9.6654	2.3020	-0.0121	0.0174	-0.0082	22.2023	16.1128	7.8160	0.7734	-0.6122	0.0900	-0.1385
10.65	0.2024	-9.6690	2.2973	-0.0183	0.0230	-0.0108	22.3108	15.9171	7.9593	0.7732	-0.6122	0.0900	-0.1385
10.66	0.2147	-9.6977	2.2934	-0.0173	0.0146	-0.0076	22.2765	15.8795	8.0368	0.7732	-0.6123	0.0901	-0.1385
10.67	0.2257	-9.7170	2.2867	-0.0138	0.0086	-0.0089	22.2226	16.0717	7.9696	0.7731	-0.6123	0.0901	-0.1384
10.68	0.2379	-9.7216	2.2863	-0.0136	0.0100	-0.0089	22.3666	15.8814	7.8187	0.7731	-0.6124	0.0901	-0.1384
10.69	0.2475	-9.7312	2.2836	-0.0090	0.0091	-0.0098	22.3111	16.0191	7.7389	0.7730	-0.6125	0.0901	-0.1384
10.7	0.2640	-9.7308	2.2848	-0.0092	0.0130	-0.0106	22.3655	15.9792	7.7816	0.7730	-0.6125	0.0902	-0.1384
10.71	0.2596	-9.7317	2.2779	0.0011	0.0090	-0.0076	22.1971	15.7233	7.9348	0.7730	-0.6126	0.0902	-0.1383
10.72	0.2529	-9.7290	2.2773	0.0039	0.0074	-0.0089	22.4395	15.7996	7.6505	0.7730	-0.6126	0.0902	-0.1383
10.73	0.2481	-9.7243	2.2829	0.0092	0.0149	-0.0073	22.3175	15.6958	7.8127	0.7730	-0.6126	0.0902	-0.1383
10.74	0.2387	-9.7255	2.2848	0.0104	0.0176	-0.0066	22.5011	15.6572	7.9066	0.7730	-0.6125	0.0902	-0.1383
10.75	0.2273	-9.7222	2.2882	0.0194	0.0287	-0.0084	22.6123	15.8026	7.9321	0.7731	-0.6125	0.0903	-0.1383
10.76	0.2192	-9.6993	2.2849	0.0169	0.0199	-0.0101	22.4587	15.7343	8.2158	0.7731	-0.6124	0.0903	-0.1383
10.77	0.2095	-9.7040	2.2959	0.0193	0.0212	-0.0078	22.6117	15.8433	8.0982	0.7732	-0.6124	0.0904	-0.1383
10.78	0.2033	-9.7021	2.3037	0.0161	0.0174	-0.0087	23.1732	15.9578	8.1596	0.7732	-0.6123	0.0904	-0.1383
10.79	0.1958	-9.6936	2.3096	0.0165	0.0204	-0.0081	22.5893	15.9174	8.0027	0.7732	-0.6122	0.0905	-0.1383
10.8	0.1907	-9.6806	2.3124	0.0164	0.0189	-0.0081	22.2513	15.9725	7.9810	0.7733	-0.6122	0.0905	-0.1383
10.81	0.1927	-9.6726	2.3136	0.0166	0.0069	-0.0084	22.3278	15.9334	7.7630	0.7732	-0.6121	0.0905	-0.1383
10.82	0.1877	-9.6674	2.3158	0.0145	0.0087	-0.0089	22.1996	15.7494	8.0992	0.7734	-0.6121	0.0905	-0.1383
10.83	0.1904	-9.6555	2.3206	0.0155	0.0128	-0.0132	22.2106	15.8963	8.1638	0.7733	-0.6121	0.0905	-0.1383
10.84	0.1987	-9.6421	2.3205	0.0105	0.0098	-0.0089	22.0182	16.0300	8.0783	0.7734	-0.6121	0.0905	-0.1383
10.85	0.2025	-9.6374	2.3195	0.0132	0.0076	-0.0088	22.1368	15.8511	8.0103	0.7734	-0.6120	0.0905	-0.1382
10.86	0.2064	-9.6396	2.3245	0.0110	0.0091	-0.0087	22.1419	15.9129	7.8856	0.7734	-0.6120	0.0905	-0.1382
10.87	0.2121	-9.6249	2.3243	-0.0051	0.0054	-0.0138	22.2960	16.0246	7.8877	0.7734	-0.6120	0.0905	-0.1382
10.88	0.2127	-9.6382	2.3225	-0.0033	-0.0001	-0.0130	22.3023	15.8126	7.7034	0.7733	-0.6120	0.0905	-0.1381
10.89	0.2209	-9.6566	2.3246	-0.0120	0.0021	-0.0125	22.5014	15.6904	7.7489	0.7734	-0.6122	0.0905	-0.1381
10.9	0.2316	-9.6656	2.3309	-0.0020	0.0046	-0.0168	22.4960	15.5853	7.8681	0.7733	-0.6122	0.0904	-0.1380
10.91	0.2357	-9.6704	2.3237	-0.0026	0.0096	-0.0154	22.4267	15.7241	7.9694	0.7733	-0.6123	0.0904	-0.1380
10.92	0.2217	-9.6889	2.3281	-0.0098	0.0078	-0.0172	22.2804	15.6173	7.6998	0.7732	-0.6122	0.0904	-0.1380
10.93	0.2164	-9.6879	2.3168	-0.0116	0.0022	-0.0224	22.5428	15.6282	7.6560	0.7732	-0.6124	0.0904	-0.1380
10.94	0.2199	-9.6763	2.3062	-0.0146	-0.0026	-0.0165	22.4293	15.7907	7.9613	0.7731	-0.6124	0.0903	-0.1379
10.95	0.2364	-9.6730	2.2936	-0.0169	-0.0042	-0.0151	22.3172	15.8256	8.1060	0.7730	-0.6125	0.0903	-0.1379
10.96	0.2598	-9.6721	2.2924	-0.0191	-0.0125	-0.0127	22.2876	15.6896	8.0974	0.7730	-0.6127	0.0902	-0.1378
10.97	0.2768	-9.7203	2.2972	-0.0074	-0.0156	-0.0097	22.3331	15.6181	7.8359	0.7730	-0.6127	0.0902	-0.1377
10.98	0.2892	-9.7505	2.2989	-0.0116	-0.0160	-0.0110	22.4489	15.8412	7.8142	0.7730	-0.6128	0.0901	-0.1376
10.99	0.3043	-9.7388	2.2941	0.0007	-0.0075	-0.0173	22.2132	16.0137	7.8200	0.7729	-0.6128	0.0900	-0.1375
11	0.3169	-9.7198	2.2914	0.0016	-0.0114	-0.0114	22.1048	15.8258	7.9204	0.7729	-0.6129	0.0899	-0.1374
11.01	0.3219	-9.7030	2.2900	-0.0033	0.0104	-0.0143	22.1569	15.8383	8.0950	0.7729	-0.6129	0.0899	-0.1374
11.02	0.3197	-9.6902	2.2918	-0.0087	0.0073	-0.0102	22.3213	15.9515	8.0273	0.7729	-0.6130	0.0899	-0.1374
11.03	0.2968	-9.6887	2.2802	-0.0026	0.0133	-0.0078	22.2180	16.1161	7.8998	0.7728	-0.6130	0.0899	-0.1374
11.04	0.2539	-9.6717	2.2793	-0.0014	0.0162	-0.0121	22.0919	15.8450	8.0132	0.7728	-0.6130	0.0899	-0.1374
11.05	0.2123	-9.6700	2.2758	-0.0106	0.0214	-0.0123	22.1889	15.6749	8.0474	0.7728	-0.6131	0.0900	-0.1374
11.06	0.1863	-9.6756	2.2660	-0.0082	0.0156	-0.0175	22.3017	15.7088	8.1535	0.7727	-0.6131	0.0900	-0.1374
11.07	0.1717	-9.6778	2.2686	-0.0102	0.0051	-0.0153	22.3209	15.8650	7.8270	0.7727	-0.6132	0.0900	-0.1374
11.08	0.1702	-9.6785	2.2723	-0.0102	0.0028	-0.0121	22.2739	15.6452	8.0266	0.7726	-0.6132	0.0900	-0.1373
11.09	0.1774	-9.7005	2.2714	-0.0151	-0.0040	-0.0206	22.3932	15.3033	7.8811	0.7726	-0.6134	0.0899	-0.1373
11.1	0.1850	-9.7184	2.2590	-0.0099	0.0037	-0.0162	22.3884	15.8969	7.7026	0.7725	-0.6134	0.0899	-0.1373
11.11	0.1909	-9.7315	2.2597	-0.0100	-0.0126	-0.0130	22.3060	15.7240	7.8663	0.7725	-0.6135	0.0898	-0.1372
11.12	0.2017	-9.7402	2.2593	-0.0091	-0.0187	-0.0160	22.4455	15.5798	7.7839	0.7725	-0.6136	0.0897	-0.1371
11.13	0.2267	-9.7566	2.2622	-0.0084	-0.0250	-0.0123	22.2942	15.7151	7.6058	0.7724	-0.6136	0.0896	-0.1370
11.14	0.2624	-9.7635	2.2633	0.0003	-0.0293	-0.0187	22.3066	15.8197	7.8756	0.7725	-0.6137	0.0894	-0.1369
11.15	0.2954	-9.7441	2.2583	0.0109	-0.0263	-0.0157	22.3363	15.6514	8.0338	0.7725	-0.6137	0.0892	-0.1367
11.16	0.3171	-9.7099	2.2571	0.0119	-0.0251	-0.0101	22.4140	15.6437	7.7865	0.7725	-0.6137	0.0891	-0.1366
11.17	0.3324	-9.6836	2.2671	0.0126	-0.0295	-0.0086	22.0355	15.9393	7.9209	0.7725	-0.6137	0.0890	-0.1365
11.18	0.3493	-9.7399	2.2796	0.0071	-0.0286	-0.0094	22.3682	15.8316	8.0206	0.7726	-0.6137	0.0888	-0.1363
11.19	0.3646	-9.7371	2.2919	0.0141	-0.0149	-0.0089	22.4444	15.6783	7.8158	0.7726	-0.6137	0.0887	-0.1362
11.2	0.3692	-9.6981	2.3013	0.0172	-0.0142	-0.0087	22.1214	16.0263	7.8811	0.7727	-0.6137	0.0886	-0.1361
11.21	0.3792	-9.6556	2.3094	0.0219	-0.0025	-0.0107	22.0954	15.7570	8.0308	0.7727	-0.6136	0.0886	-0.1361
11.22	0.3777	-9.6281	2.3168	0.0208	0.0119	-0.0079	22.2386	15.8489	7.9825	0.7728	-0.6136	0.0886	-0.1361
11.23	0.3524	-9.6403	2.3213	0.0155	0.0134	-0.0089	22.4337	15.9003	7.8414	0.7728	-0.6135	0.0886	-0.1361
11.24	0.3086	-9.6443	2.3249	0.0194	0.0245	-0.0071	22.0742	15.8996	8.1414	0.7728	-0.6134	0.0886	-0.1360
11.25	0.2630	-9.6431	2.3227	0.0068	0.0294	-0.0079	22.1454	15.6526	7.9217	0.7729	-0.6134	0.0887	-0.1361
11.26	0.2198	-9.6496	2.3238	0.0127	0.0350	-0.0077	22.3014	15.6327	8.1881	0.7729	-0.6134	0.0888	-0.1361
11.27	0.1955	-9.6497	2.3226	0.0053	0.0329	-0.0097	22.8444	15.5715	8.2819	0.7729	-0.6134	0.0889	-0.1362
11.28	0.1810	-9.6546	2.3213	-0.0088	0.0255	-0.0119	23.5200	15.4375	8.0230	0.7728	-0.6134	0.0890	-0.1362
11.29	0.1728	-9.6720	2.3159	-0.0062	0.0298	-0.0087	22.8025	15.7934	8.0821	0.7728	-0.6134	0.0891	-0.1362
11.3	0.1663	-9.6753	2.3088	-0.0107	0.0194	-0.0194	22.6202	15.6803	8.0501	0.7727	-0.6135	0.0892	-0.1362
11.31	0.1648	-9.6812	2.3007	-0.0076	0.0100	-0.0099	22.4402	15.9329	7.5865	0.7726	-0.6135	0.0892	-0.1362
11.32	0.1740	-9.6878	2.2912	-0.0082	0.0031	-0.0143	22.4186	16.0285	7.7903	0.7727	-0.6136	0.0891	-0.1362
11.33	0.1824	-9.6863	2.2884	-0.0067	0.0050	-0.0195	22.4291	15.8508	7.6090	0.7726	-0.6137	0.0891	-0.1362
11.34	0.2039	-9.6979	2.2827	-0.0052	0.0004	-0.0149	22.2188	15.7823	7.5694	0.7726	-0.6138	0.0891	-0.1361
11.35	0.2277	-9.7047	2.2752	-0.0129	-0.0066	-0.0139	22.3658	15.6257	7.8436	0.7725	-0.6138	0.0890	-0.1361
11.36	0.2469	-9.7076	2.2792	-0.0109	-0.0120	-0.0087	22.4331	15.6995	7.9846	0.7725	-0.6139	0.0889	-0.1360
11.37	0.2647	-9.7141	2.2757	-0.0085	-0.0062	-0.0099	22.2791	15.7483	7.9387	0.7725	-0.6139	0.0889	-0.1359
11.38	0.2837	-9.7281	2.2745	-0.0049	-0.0058	-0.0084	22.4571	15.8107	7.6676	0.7724	-0.6140	0.0888	-0.1358
11.39	0.2847	-9.7433	2.2776	-0.0064	-0.0037	-0.0088	22.3968	15.9516	7.9793	0.7725	-0.6141	0.0888	-0.1357
11.4	0.2895	-9.7430	2.2771	0.0006	0.0019	-0.0090	22.2181	15.7614	7.8520	0.7724	-0.6141	0.0888	-0.1357
11.41	0.2913	-9.7502	2.2783	0.0106	0.0083	-0.0086	22.2676	15.9909	8.0262	0.7725	-0.6141	0.0888	-0.1357
11.42	0.2853	-9.7436	2.2775	0.0175	0.0192	-0.0083	22.2555	16.0253	7.8825	0.7724	-0.6140	0.0888	-0.1356
11.43	0.2733	-9.7332	2.2870	0.0158	0.0188	-0.0103	22.3575	15.8860	7.8519	0.7725	-0.6140	0.0889	-0.1357
11.44	0.2587	-9.7172	2.2875	0.0170	0.0188	-0.0078	22.5332	15.7902	7.7106	0.7725	-0.6139	0.0889	-0.1357
11.45	0.2413	-9.6999	2.2928	0.0171	0.0282	-0.0078	22.3722	15.6648	7.6515	0.7726	-0.6138	0.0890	-0.1357
11.46	0.2237	-9.6914	2.2986	0.0182	0.0248	-0.0071	22.2182	15.5539	8.0836	0.7726	-0.6138	0.0890	-0.1357
11.47	0.2031	-9.6831	2.3058	0.0168	0.0214	-0.0069	22.5338	15.5933	7.9624	0.7726	-0.6137	0.0891	-0.1357
11.48	0.1818	-9.6779	2.3040	0.0200	0.0244	-0.0070	22.4924	15.7309	7.8595	0.7727	-0.6137	0.0891	-0.1357
11.49	0.1722	-9.6674	2.3057	0.0174	0.0184	-0.0068	22.5678	15.8248	7.7105	0.7727	-0.6136	0.0892	-0.1357
11.5	0.1657	-9.6620	2.3102	0.0184	0.0109	-0.0078	22.2276	15.9579	7.9630	0.7728	-0.6136	0.0892	-0.1357
11.51	0.1641	-9.6708	2.3088	0.0173	0.0136	-0.0082	22.2222	15.8641	7.6926	0.7728	-0.6135	0.0892	-0.1357
11.52	0.1632	-9.6651	2.3154	0.0136	0.0120	-0.0082	22.4627	15.7774	7.8830	0.7729	-0.6135	0.0892	-0.1357
11.53	0.1655	-9.6676	2.3185	0.0125	0.0064	-0.0082	22.4178	15.6179	7.9489	0.7729	-0.6134	0.0892	-0.1356
11.54	0.1696	-9.6597	2.3181	0.0175	0.0050	-0.0112	22.5452	15.6029	8.0201	0.7729	-0.6134	0.0892	-0.1356
11.55	0.1859	-9.6472	2.3174	0.0177	0.0044	-0.0147	22.5177	15.8532	7.8054	0.7730	-0.6134	0.0891	-0.1356
11.56	0.1915	-9.6425	2.3143	0.0095	-0.0044	-0.0164	22.4596	15.8173	7.9090	0.7729	-0.6133	0.0891	-0.1355
11.57	0.1987	-9.6307	2.3126	-0.0035	0.0043	-0.0198	22.3064	15.9479	8.0270	0.7730	-0.6134	0.0891	-0.1355
11.58	0.2138	-9.6411	2.3110	-0.0063	-0.0049	-0.0222	22.2362	15.7454	7.8260	0.7729	-0.6135	0.0890	-0.1355
11.59	0.2370	-9.6525	2.3107	-0.0074	-0.0035	-0.0196	22.3054	15.7621	7.5980	0.7729	-0.6136	0.0889	-0.1355
11.6	0.2572	-9.6598	2.3165	-0.0082	0.0020	-0.0161	22.4644	15.6330	7.7732	0.7728	-0.6136	0.0889	-0.1354
11.61	0.2580	-9.6848	2.3184	-0.0082	0.0025	-0.0145	22.3785	15.9315	7.7871	0.7728	-0.6137	0.0889	-0.1354
11.62	0.2505	-9.7026	2.3105	-0.0099	-0.0056	-0.0106	22.3737	15.8504	7.9504	0.7728	-0.6137	0.0888	-0.1353
11.63	0.2327	-9.7036	2.2895	-0.0122	-0.0122	-0.0125	22.4747	15.9127	7.9655	0.7727	-0.6138	0.0888	-0.1352
11.64	0.2405	-9.7081	2.2809	-0.0040	-0.0149	-0.0129	22.2914	15.8315	7.7799	0.7728	-0.6139	0.0887	-0.1351
11.65	0.2504	-9.6236	2.2889	-0.0061	-0.0140	-0.0104	22.3977	15.6996	7.8528	0.7727	-0.6139	0.0886	-0.1350
