time	acceleration_x	acceleration_y	acceleration_z	gyroscope_x	gyroscope_y	gyroscope_z	magnetometer_x	magnetometer_y	magnetometer_z	quaternion_w	quaternion_x	quaternion_y	quaternion_z
0	-0.5173	-9.2775	-2.1669	0.0079	0.0009	0.0021	-23.4954	26.8116	-1.4700	-0.0690	0.1308	0.7742	-0.6155
0.01	-0.5124	-9.2867	-2.1787	0.0058	-0.0059	0.0084	-23.6681	26.9221	-1.3965	-0.0690	0.1308	0.7741	-0.6155
0.02	-0.5037	-9.2916	-2.1883	0.0088	-0.0035	0.0068	-23.7616	26.9755	-1.5332	-0.0690	0.1308	0.7741	-0.6155
0.03	-0.4912	-9.2772	-2.1790	0.0075	-0.0079	0.0114	-23.6092	26.7501	-1.5058	-0.0689	0.1308	0.7741	-0.6155
0.04	-0.4835	-9.2915	-2.1922	0.0099	-0.0067	0.0068	-23.6613	26.8152	-1.4310	-0.0689	0.1308	0.7741	-0.6155
0.05	-0.4775	-9.2903	-2.2026	0.0085	-0.0035	0.0106	-23.4345	26.8788	-1.5859	-0.0689	0.1308	0.7741	-0.6156
0.06	-0.4762	-9.2813	-2.2016	0.0078	-0.0006	0.0091	-23.6608	26.5519	-1.3182	-0.0689	0.1308	0.7740	-0.6155
0.07	-0.4806	-9.2885	-2.2073	0.0100	-0.0016	0.0070	-23.7109	26.8670	-1.3583	-0.0689	0.1309	0.7741	-0.6156
0.08	-0.4860	-9.2913	-2.2211	0.0111	-0.0014	0.0055	-23.5178	26.9236	-1.4834	-0.0689	0.1308	0.7740	-0.6156
0.09	-0.4958	-9.2865	-2.2170	0.0103	-0.0040	0.0092	-23.5960	26.8590	-1.3406	-0.0689	0.1309	0.7741	-0.6157
0.1	-0.5050	-9.2875	-2.2122	0.0089	-0.0072	0.0104	-23.5390	26.7833	-1.4255	-0.0688	0.1309	0.7740	-0.6156
0.11	-0.5109	-9.2922	-2.2145	0.0083	-0.0027	0.0095	-23.6797	26.6821	-1.6800	-0.0688	0.1309	0.7740	-0.6157
0.12	-0.5157	-9.2886	-2.2109	0.0091	-0.0055	0.0091	-23.7527	26.8686	-1.4904	-0.0688	0.1309	0.7740	-0.6157
0.13	-0.5153	-9.2824	-2.2054	0.0064	0.0003	0.0063	-23.6454	26.8563	-1.3346	-0.0688	0.1309	0.7740	-0.6156
0.14	-0.5193	-9.2883	-2.2107	0.0124	0.0016	0.0046	-23.6526	26.8652	-1.3469	-0.0688	0.1309	0.7740	-0.6157
0.15	-0.5224	-9.2884	-2.2065	0.0124	-0.0051	0.0088	-23.7616	26.8702	-1.2229	-0.0688	0.1309	0.7740	-0.6157
0.16	-0.5241	-9.2803	-2.1954	0.0064	0.0034	0.0059	-23.7000	27.0451	-1.3113	-0.0688	0.1309	0.7740	-0.6158
0.17	-0.5254	-9.2859	-2.1957	0.0112	0.0029	0.0046	-23.8385	26.9444	-1.1412	-0.0688	0.1309	0.7739	-0.6157
0.18	-0.5306	-9.2877	-2.1930	0.0089	-0.0012	0.0047	-23.7669	26.7208	-1.3305	-0.0688	0.1309	0.7739	-0.6158
0.19	-0.5286	-9.2847	-2.1873	0.0098	0.0004	0.0036	-23.5761	26.8691	-1.4856	-0.0688	0.1309	0.7739	-0.6158
0.2	-0.5288	-9.2840	-2.1837	0.0156	-0.0010	0.0040	-23.7474	27.0720	-1.6441	-0.0688	0.1309	0.7739	-0.6158
0.21	-0.5318	-9.2917	-2.1837	0.0064	-0.0017	0.0087	-23.6207	26.8130	-1.4719	-0.0688	0.1309	0.7739	-0.6158
0.22	-0.5296	-9.2825	-2.1874	0.0109	-0.0074	0.0027	-23.4204	26.7998	-1.3477	-0.0688	0.1309	0.7739	-0.6158
0.23	-0.5299	-9.2765	-2.1749	0.0126	-0.0023	0.0042	-23.5802	26.7207	-1.6617	-0.0688	0.1309	0.7739	-0.6159
0.24	-0.5353	-9.2877	-2.1829	0.0077	-0.0015	0.0119	-23.4611	26.7567	-1.4919	-0.0688	0.1309	0.7738	-0.6158
0.25	-0.5382	-9.2928	-2.1825	0.0095	-0.0010	0.0099	-23.6142	26.9113	-1.5439	-0.0688	0.1309	0.7739	-0.6159
0.26	-0.5286	-9.2793	-2.1687	0.0085	-0.0027	0.0085	-23.6076	26.8031	-1.4911	-0.0688	0.1309	0.7738	-0.6159
0.27	-0.5275	-9.2855	-2.1731	0.0089	-0.0003	0.0089	-23.2792	26.8295	-1.2973	-0.0688	0.1309	0.7738	-0.6159
0.28	-0.5310	-9.2872	-2.1752	0.0082	-0.0044	0.0011	-23.0021	26.9664	-1.0457	-0.0688	0.1309	0.7738	-0.6159
0.29	-0.5297	-9.2839	-2.1684	0.0062	0.0005	0.0037	-23.2369	27.1013	-1.3475	-0.0688	0.1309	0.7738	-0.6159
0.3	-0.5323	-9.2845	-2.1629	0.0019	-0.0056	0.0045	-23.4860	27.6539	-1.3966	-0.0688	0.1309	0.7738	-0.6159
0.31	-0.5366	-9.2874	-2.1689	0.0042	0.0029	0.0046	-23.7119	27.4923	-1.3248	-0.0688	0.1309	0.7738	-0.6159
0.32	-0.5322	-9.2889	-2.1650	-0.0013	0.0078	0.0034	-23.7075	26.7624	-1.3709	-0.0688	0.1310	0.7739	-0.6159
0.33	-0.5338	-9.2846	-2.1629	0.0069	0.0015	0.0038	-23.4933	26.8899	-1.3127	-0.0688	0.1309	0.7738	-0.6159
0.34	-0.5252	-9.2816	-2.1648	0.0002	0.0021	0.0035	-23.6442	26.7190	-1.3955	-0.0689	0.1310	0.7739	-0.6159
0.35	-0.5256	-9.2909	-2.1673	0.0092	0.0060	0.0012	-23.6338	26.9927	-1.6323	-0.0689	0.1310	0.7738	-0.6158
0.36	-0.5211	-9.2845	-2.1762	0.0066	0.0020	0.0021	-23.5112	26.9361	-1.3745	-0.0689	0.1310	0.7739	-0.6158
0.37	-0.5162	-9.2768	-2.1711	0.0086	0.0025	0.0043	-23.7996	26.9640	-1.4983	-0.0689	0.1310	0.7738	-0.6159
0.38	-0.5143	-9.2856	-2.1851	0.0057	0.0085	0.0046	-23.7017	26.8925	-1.2436	-0.0690	0.1310	0.7738	-0.6158
0.39	-0.5083	-9.2879	-2.1903	0.0114	0.0104	0.0049	-23.8536	26.7291	-1.3623	-0.0690	0.1310	0.7739	-0.6159
0.4	-0.5071	-9.2864	-2.1946	0.0134	0.0001	0.0025	-23.6835	26.8638	-1.4719	-0.0691	0.1310	0.7738	-0.6159
0.41	-0.5031	-9.2949	-2.2072	0.0038	-0.0068	-0.0006	-23.4999	26.8061	-1.5977	-0.0691	0.1310	0.7738	-0.6159
0.42	-0.5047	-9.2956	-2.2154	0.0081	-0.0014	0.0031	-23.5756	26.8019	-1.5953	-0.0691	0.1310	0.7737	-0.6158
0.43	-0.5039	-9.2881	-2.2129	0.0012	0.0017	0.0029	-23.5441	26.7365	-1.6225	-0.0691	0.1310	0.7738	-0.6159
0.44	-0.5058	-9.2880	-2.2139	0.0077	-0.0022	0.0027	-23.6876	26.7751	-1.3645	-0.0691	0.1310	0.7738	-0.6159
0.45	-0.5041	-9.2928	-2.2221	0.0076	-0.0015	0.0087	-23.5416	26.9710	-1.3986	-0.0691	0.1310	0.7738	-0.6159
0.46	-0.4978	-9.2854	-2.2255	0.0107	-0.0002	0.0050	-23.5643	26.9766	-1.5396	-0.0691	0.1310	0.7738	-0.6159
0.47	-0.4918	-9.2832	-2.2204	0.0067	-0.0012	-0.0008	-23.6535	26.8786	-1.3923	-0.0691	0.1310	0.7738	-0.6159
0.48	-0.4861	-9.2981	-2.2207	0.0091	-0.0019	0.0077	-23.6270	26.7855	-1.4516	-0.0691	0.1310	0.7738	-0.6159
0.49	-0.4823	-9.2896	-2.2119	0.0061	0.0076	0.0061	-23.6389	27.0013	-1.4230	-0.0691	0.1310	0.7737	-0.6159
0.5	-0.4866	-9.2818	-2.1944	0.0071	0.0046	0.0050	-23.6384	26.8159	-1.3383	-0.0692	0.1310	0.7738	-0.6159
0.51	-0.4929	-9.2905	-2.1912	0.0106	0.0017	0.0084	-23.4858	26.9231	-1.3401	-0.0692	0.1310	0.7737	-0.6159
0.52	-0.5047	-9.2892	-2.1750	0.0107	0.0079	0.0035	-23.5176	26.7619	-1.3489	-0.0692	0.1310	0.7738	-0.6159
0.53	-0.5088	-9.2820	-2.1635	0.0062	0.0082	0.0035	-23.6792	26.9118	-1.3339	-0.0692	0.1311	0.7737	-0.6159
0.54	-0.5144	-9.2801	-2.1506	0.0063	0.0054	0.0011	-23.5801	26.9115	-1.2391	-0.0693	0.1311	0.7737	-0.6159
0.55	-0.5189	-9.2872	-2.1460	0.0115	-0.0019	0.0051	-23.4135	26.7270	-1.2434	-0.0693	0.1311	0.7737	-0.6159
0.56	-0.5204	-9.2866	-2.1453	0.0098	-0.0013	0.0059	-23.6455	26.8870	-1.3287	-0.0693	0.1311	0.7736	-0.6159
0.57	-0.5242	-9.2956	-2.1492	0.0096	-0.0005	0.0069	-23.7215	26.8656	-1.4650	-0.0693	0.1311	0.7737	-0.6160
0.58	-0.5227	-9.2931	-2.1645	0.0071	-0.0016	0.0050	-23.7257	26.8630	-1.3883	-0.0693	0.1311	0.7737	-0.6160
0.59	-0.5202	-9.2823	-2.1680	0.0117	-0.0014	0.0059	-23.6890	26.8976	-1.3020	-0.0693	0.1311	0.7737	-0.6160
0.6	-0.5170	-9.2830	-2.1743	0.0095	0.0017	0.0057	-23.4445	26.7587	-1.5424	-0.0693	0.1311	0.7736	-0.6160
0.61	-0.5197	-9.2874	-2.1810	0.0018	-0.0046	0.0039	-23.5004	26.9508	-1.5008	-0.0693	0.1311	0.7737	-0.6160
0.62	-0.5238	-9.2866	-2.1834	0.0017	0.0051	0.0036	-23.5966	26.8667	-1.5721	-0.0693	0.1311	0.7737	-0.6160
0.63	-0.5280	-9.2877	-2.1865	0.0100	0.0091	0.0012	-23.4505	26.7317	-1.6224	-0.0694	0.1311	0.7736	-0.6159
0.64	-0.5349	-9.2844	-2.1897	0.0055	-0.0035	0.0004	-23.5818	27.0150	-1.4876	-0.0694	0.1311	0.7737	-0.6160
0.65	-0.5455	-9.2829	-2.1976	0.0062	0.0000	0.0049	-23.5161	26.8984	-1.6958	-0.0694	0.1311	0.7737	-0.6160
0.66	-0.5429	-9.2885	-2.2180	0.0074	-0.0027	0.0025	-23.6364	26.8689	-1.6227	-0.0694	0.1311	0.7737	-0.6160
0.67	-0.5413	-9.2796	-2.2055	0.0080	-0.0002	0.0011	-23.5431	26.8747	-1.6138	-0.0694	0.1310	0.7736	-0.6159
0.68	-0.5385	-9.2874	-2.2142	0.0038	0.0060	0.0001	-23.4736	26.8703	-1.3555	-0.0694	0.1311	0.7737	-0.6160
0.69	-0.5294	-9.2842	-2.2142	0.0085	0.0037	0.0022	-23.7659	27.0349	-1.2115	-0.0695	0.1311	0.7737	-0.6160
0.7	-0.5257	-9.2806	-2.2101	0.0064	0.0104	0.0065	-23.6302	26.9833	-1.3490	-0.0695	0.1311	0.7737	-0.6160
0.71	-0.5208	-9.2850	-2.2165	0.0020	0.0035	0.0009	-23.6423	26.8378	-1.4356	-0.0695	0.1311	0.7737	-0.6160
0.72	-0.5161	-9.2896	-2.2147	0.0107	0.0077	0.0035	-23.7342	27.0283	-1.4422	-0.0696	0.1311	0.7737	-0.6159
0.73	-0.5158	-9.2857	-2.2181	0.0095	0.0012	0.0017	-23.4976	26.7929	-1.4211	-0.0696	0.1311	0.7737	-0.6160
0.74	-0.5183	-9.2829	-2.2177	0.0105	0.0022	0.0033	-23.4484	26.8701	-1.4381	-0.0696	0.1311	0.7736	-0.6159
0.75	-0.5177	-9.2921	-2.2254	0.0087	0.0014	0.0019	-23.5989	26.9542	-1.4225	-0.0697	0.1311	0.7737	-0.6160
0.76	-0.5172	-9.2883	-2.2260	0.0084	-0.0008	0.0012	-23.4835	26.8448	-1.2848	-0.0697	0.1311	0.7736	-0.6160
0.77	-0.5168	-9.2765	-2.2213	0.0151	-0.0003	0.0016	-23.2755	26.9008	-1.1771	-0.0697	0.1311	0.7736	-0.6160
0.78	-0.5147	-9.2889	-2.2249	0.0163	-0.0019	0.0008	-22.9986	26.7571	-0.9822	-0.0697	0.1310	0.7736	-0.6160
0.79	-0.5108	-9.2950	-2.2232	0.0179	-0.0002	0.0102	-23.2891	26.8980	-1.3118	-0.0697	0.1311	0.7735	-0.6161
0.8	-0.5044	-9.2818	-2.2156	0.0140	0.0006	0.0104	-23.6714	27.3555	-1.3276	-0.0697	0.1311	0.7735	-0.6162
0.81	-0.5068	-9.2869	-2.2195	0.0133	-0.0037	0.0079	-23.4452	27.3298	-1.4280	-0.0697	0.1311	0.7734	-0.6161
0.82	-0.5054	-9.2938	-2.2151	0.0110	0.0008	0.0055	-23.4143	26.7634	-1.3331	-0.0697	0.1311	0.7735	-0.6162
0.83	-0.5066	-9.2864	-2.2041	0.0109	-0.0014	0.0109	-23.6463	26.7896	-1.4821	-0.0697	0.1311	0.7735	-0.6162
0.84	-0.5047	-9.2829	-2.1885	0.0172	-0.0005	0.0024	-23.6345	26.7902	-1.5911	-0.0697	0.1311	0.7735	-0.6163
0.85	-0.5049	-9.2907	-2.1832	0.0110	-0.0051	0.0083	-23.6523	26.6835	-1.6179	-0.0697	0.1311	0.7734	-0.6162
0.86	-0.5043	-9.2889	-2.1681	0.0192	-0.0066	0.0081	-23.5070	26.8285	-1.4672	-0.0697	0.1311	0.7734	-0.6163
0.87	-0.5081	-9.2899	-2.1519	0.0159	-0.0008	0.0110	-23.5052	26.8748	-1.6064	-0.0697	0.1311	0.7733	-0.6164
0.88	-0.5144	-9.2875	-2.1544	0.0110	0.0042	0.0092	-23.6501	26.9112	-1.5366	-0.0697	0.1311	0.7733	-0.6163
0.89	-0.5169	-9.2913	-2.1482	0.0136	0.0033	0.0077	-23.7316	27.0795	-1.4220	-0.0697	0.1312	0.7734	-0.6165
0.9	-0.5169	-9.2852	-2.1442	0.0105	0.0026	0.0093	-23.8593	26.9437	-1.4330	-0.0697	0.1312	0.7733	-0.6164
0.91	-0.5206	-9.2832	-2.1373	0.0153	-0.0025	0.0065	-23.6923	26.8023	-1.2471	-0.0697	0.1312	0.7733	-0.6165
0.92	-0.5235	-9.2872	-2.1444	0.0139	-0.0016	0.0061	-23.5443	27.0603	-1.2638	-0.0697	0.1312	0.7732	-0.6164
0.93	-0.5268	-9.2880	-2.1466	0.0108	0.0030	0.0045	-23.6878	26.8938	-1.3706	-0.0697	0.1312	0.7732	-0.6165
0.94	-0.5277	-9.2832	-2.1551	0.0151	-0.0013	0.0077	-23.5890	27.0221	-1.5090	-0.0697	0.1312	0.7732	-0.6165
0.95	-0.5295	-9.2832	-2.1600	0.0117	-0.0030	0.0091	-23.5348	26.9769	-1.5331	-0.0697	0.1312	0.7731	-0.6165
0.96	-0.5285	-9.2850	-2.1715	0.0094	0.0005	0.0176	-23.6831	26.8330	-1.4290	-0.0697	0.1313	0.7732	-0.6166
0.97	-0.5262	-9.2850	-2.1747	0.0125	-0.0006	0.0064	-23.4764	26.7716	-1.5477	-0.0697	0.1313	0.7731	-0.6166
0.98	-0.5251	-9.2831	-2.1806	0.0137	-0.0046	0.0017	-23.5433	26.8003	-1.4687	-0.0697	0.1312	0.7731	-0.6167
0.99	-0.5214	-9.2891	-2.1911	0.0078	-0.0040	0.0049	-23.5734	26.7013	-1.3779	-0.0696	0.1312	0.7730	-0.6166
1	-0.5175	-9.2896	-2.2027	0.0078	-0.0024	0.0101	-23.4728	26.5905	-1.6099	-0.0696	0.1312	0.7731	-0.6167
1.01	-0.5096	-9.2818	-2.2013	0.0085	-0.0010	0.0067	-23.4561	26.6619	-1.7910	-0.0696	0.1312	0.7731	-0.6167
1.02	-0.5097	-9.2870	-2.2027	0.0065	-0.0036	0.0060	-23.5552	26.7682	-1.5761	-0.0696	0.1312	0.7731	-0.6167
1.03	-0.5030	-9.2894	-2.1999	0.0063	-0.0002	0.0073	-23.5449	26.8836	-1.6192	-0.0696	0.1312	0.7731	-0.6166
1.04	-0.4960	-9.2879	-2.1997	0.0148	-0.0047	0.0118	-23.4872	26.8464	-1.3650	-0.0696	0.1313	0.7731	-0.6167
1.05	-0.4882	-9.2913	-2.2099	0.0093	-0.0077	0.0052	-23.5987	26.7292	-1.5078	-0.0696	0.1312	0.7731	-0.6167
1.06	-0.4916	-9.2929	-2.2082	0.0066	-0.0037	0.0052	-23.5253	26.9420	-1.5398	-0.0696	0.1312	0.7730	-0.6167
1.07	-0.4970	-9.2902	-2.2131	0.0149	0.0012	0.0076	-23.8718	27.0460	-1.4098	-0.0696	0.1313	0.7731	-0.6168
1.08	-0.5022	-9.2825	-2.2084	0.0107	0.0002	0.0013	-23.7623	26.9917	-1.3377	-0.0696	0.1312	0.7730	-0.6168
1.09	-0.5069	-9.2887	-2.2229	0.0071	0.0011	0.0052	-23.9131	26.8605	-1.3421	-0.0696	0.1313	0.7731	-0.6168
1.1	-0.5084	-9.2863	-2.2204	0.0090	-0.0016	0.0066	-23.7155	26.8547	-1.4326	-0.0696	0.1312	0.7730	-0.6167
1.11	-0.5085	-9.2822	-2.2138	0.0094	-0.0005	0.0044	-23.6241	26.9791	-1.4478	-0.0696	0.1312	0.7730	-0.6168
1.12	-0.5020	-9.2920	-2.2115	0.0088	0.0011	0.0019	-23.8313	26.8785	-1.5899	-0.0696	0.1312	0.7730	-0.6168
1.13	-0.5037	-9.2948	-2.2134	0.0095	0.0062	0.0047	-23.7045	26.8597	-1.3323	-0.0696	0.1312	0.7729	-0.6168
1.14	-0.5036	-9.2833	-2.2035	0.0099	-0.0070	0.0113	-23.7636	26.7687	-1.3639	-0.0696	0.1313	0.7730	-0.6169
1.15	-0.5140	-9.2882	-2.2026	0.0086	-0.0032	0.0075	-23.6423	26.7824	-1.4427	-0.0696	0.1313	0.7729	-0.6168
1.16	-0.5255	-9.2888	-2.1949	0.0086	-0.0022	0.0071	-23.5397	26.7831	-1.4650	-0.0696	0.1313	0.7730	-0.6169
1.17	-0.5325	-9.2840	-2.1894	0.0094	-0.0016	0.0098	-23.5581	26.7947	-1.7177	-0.0696	0.1313	0.7729	-0.6168
1.18	-0.5449	-9.2810	-2.1817	0.0103	-0.0043	0.0041	-23.5761	26.5462	-1.5737	-0.0696	0.1313	0.7729	-0.6169
1.19	-0.5469	-9.2860	-2.1759	0.0109	-0.0040	0.0088	-23.4875	26.7356	-1.5970	-0.0696	0.1313	0.7729	-0.6169
1.2	-0.5480	-9.2836	-2.1779	0.0074	-0.0007	0.0075	-23.5893	26.8039	-1.3359	-0.0696	0.1313	0.7729	-0.6169
1.21	-0.5422	-9.2801	-2.1664	0.0077	-0.0017	0.0089	-23.7822	26.6850	-1.3377	-0.0695	0.1313	0.7729	-0.6169
1.22	-0.5386	-9.2892	-2.1638	0.0117	-0.0023	0.0104	-23.5406	26.8124	-1.4967	-0.0695	0.1313	0.7729	-0.6169
1.23	-0.5329	-9.2908	-2.1593	0.0119	-0.0086	0.0122	-23.6354	26.7642	-1.5219	-0.0695	0.1313	0.7729	-0.6170
1.24	-0.5230	-9.2840	-2.1522	0.0087	-0.0069	0.0045	-23.6273	26.7829	-1.5238	-0.0695	0.1313	0.7728	-0.6169
1.25	-0.5090	-9.2829	-2.1546	0.0045	0.0005	0.0017	-23.6782	26.7738	-1.5069	-0.0695	0.1313	0.7729	-0.6170
1.26	-0.5065	-9.2833	-2.1707	0.0051	0.0022	0.0038	-23.6842	26.7683	-1.3879	-0.0695	0.1313	0.7729	-0.6169
1.27	-0.5088	-9.2898	-2.1699	0.0093	0.0011	0.0022	-23.4150	26.8537	-1.2564	-0.0695	0.1313	0.7729	-0.6170
1.28	-0.5161	-9.2879	-2.1658	0.0088	-0.0031	0.0052	-23.1923	26.7653	-1.1095	-0.0695	0.1313	0.7728	-0.6169
1.29	-0.5238	-9.2837	-2.1747	0.0055	0.0046	0.0081	-23.3063	26.8980	-1.0785	-0.0695	0.1313	0.7729	-0.6169
1.3	-0.5280	-9.2906	-2.1838	0.0061	-0.0010	0.0061	-23.5755	27.4387	-1.3217	-0.0695	0.1313	0.7729	-0.6170
1.31	-0.5357	-9.2858	-2.1871	-0.0012	-0.0032	0.0008	-23.7167	27.4372	-1.6406	-0.0695	0.1313	0.7728	-0.6169
1.32	-0.5339	-9.2842	-2.1986	0.0025	0.0009	-0.0006	-23.6231	26.6423	-1.4109	-0.0696	0.1313	0.7729	-0.6169
1.33	-0.5226	-9.2880	-2.1973	0.0043	-0.0024	0.0032	-23.9467	26.8970	-1.3648	-0.0695	0.1312	0.7729	-0.6169
1.34	-0.5157	-9.2897	-2.2061	0.0045	-0.0015	0.0028	-23.6924	27.0059	-1.1913	-0.0696	0.1312	0.7730	-0.6169
1.35	-0.5079	-9.2849	-2.2002	0.0084	-0.0042	0.0025	-23.5474	26.7470	-1.4442	-0.0696	0.1312	0.7729	-0.6168
1.36	-0.5080	-9.2886	-2.2038	0.0092	-0.0052	0.0061	-23.6474	26.8445	-1.5521	-0.0695	0.1312	0.7729	-0.6169
1.37	-0.5087	-9.2920	-2.2151	0.0100	0.0026	0.0035	-23.5306	26.8376	-1.5855	-0.0696	0.1312	0.7729	-0.6169
1.38	-0.5032	-9.2873	-2.2074	0.0045	0.0044	0.0077	-23.8717	27.0307	-1.4181	-0.0696	0.1312	0.7729	-0.6169
1.39	-0.5044	-9.2876	-2.2134	0.0064	0.0001	0.0100	-23.5737	27.1090	-1.3481	-0.0696	0.1313	0.7730	-0.6169
1.4	-0.5073	-9.2932	-2.2126	0.0071	0.0002	0.0058	-23.7644	26.9092	-1.3215	-0.0696	0.1313	0.7729	-0.6169
1.41	-0.5105	-9.2889	-2.2127	0.0084	-0.0041	0.0048	-23.7391	26.9598	-1.3990	-0.0696	0.1313	0.7729	-0.6169
1.42	-0.5193	-9.2855	-2.2012	0.0090	-0.0034	0.0058	-23.4277	26.9771	-1.5278	-0.0696	0.1312	0.7728	-0.6169
1.43	-0.5187	-9.2917	-2.2107	0.0028	-0.0023	0.0082	-23.6248	26.8905	-1.3950	-0.0695	0.1313	0.7729	-0.6169
1.44	-0.5193	-9.2825	-2.1984	0.0088	-0.0014	0.0009	-23.6533	26.7989	-1.4577	-0.0696	0.1312	0.7729	-0.6169
1.45	-0.5232	-9.2838	-2.1977	0.0089	0.0035	0.0041	-23.6436	26.9107	-1.3490	-0.0696	0.1312	0.7729	-0.6169
1.46	-0.5150	-9.2862	-2.1975	0.0092	0.0071	0.0005	-23.6592	26.7625	-1.2405	-0.0696	0.1313	0.7729	-0.6169
1.47	-0.5167	-9.2871	-2.1867	0.0068	-0.0003	0.0031	-23.7463	27.1632	-1.3998	-0.0696	0.1312	0.7729	-0.6169
1.48	-0.5170	-9.2842	-2.1856	0.0096	-0.0006	0.0001	-23.7149	27.0064	-1.4651	-0.0697	0.1312	0.7729	-0.6169
1.49	-0.5163	-9.2908	-2.1870	0.0099	0.0003	0.0042	-23.7408	26.8292	-1.3137	-0.0697	0.1312	0.7728	-0.6169
1.5	-0.5149	-9.2894	-2.1831	0.0082	-0.0001	0.0049	-23.6093	26.9244	-1.3683	-0.0697	0.1312	0.7729	-0.6170
1.51	-0.5116	-9.2789	-2.1769	0.0125	-0.0006	0.0024	-23.6960	27.0746	-1.5835	-0.0697	0.1312	0.7728	-0.6169
1.52	-0.5149	-9.2882	-2.1767	0.0099	-0.0029	0.0041	-23.7366	26.9717	-1.4201	-0.0697	0.1312	0.7729	-0.6170
1.53	-0.5110	-9.2892	-2.1830	0.0058	-0.0048	0.0050	-23.7394	26.8287	-1.3547	-0.0697	0.1312	0.7728	-0.6170
1.54	-0.5131	-9.2879	-2.1831	0.0040	-0.0068	0.0022	-23.5929	26.8177	-1.1753	-0.0697	0.1312	0.7729	-0.6170
1.55	-0.5133	-9.2864	-2.1847	0.0099	-0.0023	0.0064	-23.4316	27.0455	-1.4017	-0.0697	0.1312	0.7729	-0.6170
1.56	-0.5149	-9.2875	-2.1841	0.0081	-0.0013	0.0058	-23.5837	26.7678	-1.4137	-0.0697	0.1311	0.7728	-0.6169
1.57	-0.5156	-9.2816	-2.1781	0.0046	-0.0025	0.0038	-23.6324	26.7095	-1.4600	-0.0697	0.1312	0.7729	-0.6170
1.58	-0.5197	-9.2874	-2.1860	0.0117	-0.0072	0.0011	-23.6832	26.8321	-1.4683	-0.0697	0.1311	0.7728	-0.6170
1.59	-0.5251	-9.2888	-2.1841	0.0093	0.0042	0.0051	-23.7545	26.6967	-1.2530	-0.0697	0.1311	0.7729	-0.6170
1.6	-0.5254	-9.2833	-2.1800	0.0095	-0.0025	-0.0000	-23.7141	26.7781	-1.5741	-0.0697	0.1311	0.7728	-0.6170
1.61	-0.5300	-9.2868	-2.1802	0.0068	-0.0032	0.0048	-23.6141	27.0324	-1.4690	-0.0697	0.1311	0.7728	-0.6170
1.62	-0.5318	-9.2875	-2.1855	0.0093	-0.0035	0.0052	-23.6902	27.0034	-1.6109	-0.0697	0.1311	0.7728	-0.6170
1.63	-0.5269	-9.2848	-2.1913	0.0079	0.0014	0.0010	-23.7494	26.8527	-1.5178	-0.0697	0.1311	0.7728	-0.6170
1.64	-0.5264	-9.2814	-2.1840	0.0076	0.0010	0.0027	-23.6970	26.8746	-1.5243	-0.0697	0.1311	0.7729	-0.6171
1.65	-0.5245	-9.2828	-2.1817	0.0060	-0.0036	0.0003	-23.5185	27.0021	-1.6121	-0.0697	0.1310	0.7728	-0.6170
1.66	-0.5182	-9.2837	-2.1892	0.0079	0.0013	0.0030	-23.8214	26.8637	-1.4117	-0.0698	0.1310	0.7729	-0.6170
1.67	-0.5144	-9.2838	-2.1905	0.0093	-0.0000	0.0029	-23.7130	26.8760	-1.4354	-0.0698	0.1310	0.7728	-0.6170
1.68	-0.5080	-9.2883	-2.1874	0.0062	0.0001	0.0025	-23.6297	26.9614	-1.5312	-0.0698	0.1310	0.7728	-0.6170
1.69	-0.5062	-9.2876	-2.1967	0.0042	0.0009	-0.0024	-23.6427	26.9768	-1.3310	-0.0698	0.1310	0.7728	-0.6170
1.7	-0.5087	-9.2849	-2.1914	0.0072	0.0034	0.0004	-23.7145	26.8621	-1.4065	-0.0698	0.1310	0.7728	-0.6170
1.71	-0.5120	-9.2900	-2.1979	0.0067	-0.0040	0.0047	-23.7398	26.8891	-1.5456	-0.0698	0.1310	0.7729	-0.6170
1.72	-0.5165	-9.2874	-2.2028	0.0068	-0.0039	0.0053	-23.5745	26.8177	-1.4955	-0.0698	0.1310	0.7728	-0.6170
1.73	-0.5142	-9.2879	-2.2214	0.0057	-0.0008	0.0014	-23.3739	26.8481	-1.5338	-0.0698	0.1310	0.7729	-0.6170
1.74	-0.5134	-9.2828	-2.2180	0.0089	-0.0016	0.0078	-23.5597	26.8139	-1.4063	-0.0698	0.1310	0.7728	-0.6170
1.75	-0.5099	-9.2802	-2.2189	0.0080	-0.0044	0.0064	-23.5742	26.6634	-1.4408	-0.0698	0.1310	0.7729	-0.6170
1.76	-0.5024	-9.2841	-2.2199	0.0078	-0.0028	0.0016	-23.5482	27.0528	-1.3754	-0.0698	0.1309	0.7728	-0.6170
1.77	-0.5027	-9.2922	-2.2218	0.0041	-0.0009	0.0015	-23.3153	26.9710	-1.3257	-0.0698	0.1309	0.7729	-0.6170
1.78	-0.5028	-9.2872	-2.2114	0.0076	-0.0035	0.0023	-22.9592	26.7729	-1.3337	-0.0698	0.1309	0.7728	-0.6170
1.79	-0.5006	-9.2891	-2.2051	0.0106	-0.0012	0.0012	-23.3440	27.0118	-1.3662	-0.0699	0.1309	0.7728	-0.6170
1.8	-0.5098	-9.2877	-2.2014	0.0144	-0.0020	0.0114	-23.8679	27.4983	-1.6891	-0.0698	0.1309	0.7728	-0.6171
1.81	-0.5147	-9.2866	-2.2001	0.0116	-0.0009	0.0079	-23.4914	27.5073	-1.4497	-0.0698	0.1309	0.7727	-0.6170
1.82	-0.5249	-9.2833	-2.1868	0.0105	-0.0031	0.0040	-23.6055	26.7189	-1.3350	-0.0698	0.1309	0.7728	-0.6171
1.83	-0.5301	-9.2822	-2.1791	0.0128	0.0007	0.0042	-23.7533	26.9383	-1.2344	-0.0698	0.1309	0.7728	-0.6171
1.84	-0.5297	-9.2822	-2.1754	0.0120	-0.0022	0.0051	-23.7042	26.9910	-1.3569	-0.0699	0.1309	0.7728	-0.6172
1.85	-0.5347	-9.2816	-2.1701	0.0048	-0.0009	0.0060	-23.8042	27.0426	-1.3711	-0.0698	0.1309	0.7727	-0.6171
1.86	-0.5350	-9.2864	-2.1766	0.0127	0.0044	0.0058	-23.7058	26.9829	-1.3584	-0.0699	0.1309	0.7727	-0.6171
1.87	-0.5278	-9.2843	-2.1691	0.0133	-0.0004	0.0070	-23.7010	26.9060	-1.5459	-0.0699	0.1309	0.7727	-0.6172
1.88	-0.5220	-9.2848	-2.1651	0.0047	0.0016	0.0097	-23.7839	27.0082	-1.4601	-0.0699	0.1310	0.7727	-0.6171
1.89	-0.5182	-9.2913	-2.1586	0.0062	-0.0041	0.0089	-23.8984	27.0295	-1.3562	-0.0699	0.1310	0.7728	-0.6172
1.9	-0.5172	-9.2935	-2.1694	0.0133	-0.0092	0.0071	-23.7529	26.7180	-1.3495	-0.0698	0.1309	0.7727	-0.6172
1.91	-0.5213	-9.2807	-2.1602	0.0156	-0.0030	0.0064	-23.6480	26.7226	-1.4006	-0.0698	0.1310	0.7727	-0.6172
1.92	-0.5298	-9.2911	-2.1672	0.0033	-0.0015	0.0052	-23.6306	26.8812	-1.5611	-0.0698	0.1309	0.7726	-0.6172
1.93	-0.5350	-9.2887	-2.1781	0.0055	-0.0002	0.0100	-23.5250	26.7303	-1.4942	-0.0698	0.1310	0.7727	-0.6172
1.94	-0.5375	-9.2821	-2.1829	0.0095	-0.0006	0.0041	-23.4573	26.8138	-1.4261	-0.0698	0.1310	0.7727	-0.6172
1.95	-0.5372	-9.2802	-2.1840	-0.0031	-0.0034	0.0051	-23.7776	26.7017	-1.7405	-0.0698	0.1310	0.7727	-0.6172
1.96	-0.5292	-9.2852	-2.1923	0.0073	-0.0056	0.0053	-23.8913	27.1125	-1.5967	-0.0698	0.1309	0.7727	-0.6172
1.97	-0.5185	-9.2853	-2.1940	0.0085	-0.0019	0.0080	-23.7311	26.8796	-1.5469	-0.0698	0.1309	0.7727	-0.6172
1.98	-0.5068	-9.2869	-2.1939	0.0101	-0.0002	0.0042	-23.5136	26.7788	-1.6589	-0.0698	0.1310	0.7727	-0.6172
1.99	-0.5021	-9.2881	-2.1980	0.0134	-0.0048	0.0045	-23.7179	26.9694	-1.5171	-0.0698	0.1309	0.7726	-0.6172
2	-0.4986	-9.2920	-2.2030	0.0068	-0.0034	0.0087	-23.8062	26.8263	-1.4430	-0.0698	0.1309	0.7727	-0.6172
2.01	-0.4934	-9.2851	-2.2009	0.0100	-0.0017	0.0043	-23.6584	27.1692	-1.4435	-0.0698	0.1309	0.7727	-0.6172
2.02	-0.4967	-9.2870	-2.2019	0.0061	0.0008	0.0073	-23.8363	27.2025	-1.2431	-0.0698	0.1309	0.7727	-0.6172
2.03	-0.5001	-9.2934	-2.2174	0.0052	-0.0008	0.0021	-23.6773	27.0932	-1.4903	-0.0698	0.1309	0.7727	-0.6172
2.04	-0.5032	-9.2884	-2.2147	0.0009	-0.0055	0.0037	-23.7601	26.8796	-1.6573	-0.0698	0.1309	0.7727	-0.6172
2.05	-0.5066	-9.2902	-2.2111	0.0064	-0.0025	0.0011	-23.7837	27.0061	-1.4196	-0.0698	0.1309	0.7727	-0.6172
2.06	-0.5114	-9.2822	-2.2125	0.0086	-0.0026	0.0059	-23.8899	27.0076	-1.5540	-0.0698	0.1309	0.7726	-0.6171
2.07	-0.5103	-9.2868	-2.2092	0.0048	0.0000	0.0010	-23.9340	27.1199	-1.5299	-0.0698	0.1309	0.7728	-0.6172
2.08	-0.5059	-9.2862	-2.2015	0.0185	-0.0081	0.0048	-23.9035	26.9120	-1.5843	-0.0698	0.1309	0.7727	-0.6172
2.09	-0.5045	-9.2880	-2.1994	0.0088	-0.0075	0.0149	-23.6974	26.8134	-1.6546	-0.0697	0.1309	0.7727	-0.6173
2.1	-0.5059	-9.2874	-2.1947	0.0051	-0.0022	0.0053	-23.4477	26.9800	-1.5151	-0.0697	0.1309	0.7726	-0.6172
2.11	-0.5053	-9.2852	-2.1910	0.0046	-0.0010	0.0053	-23.6689	26.8979	-1.4177	-0.0697	0.1309	0.7727	-0.6172
2.12	-0.5056	-9.2859	-2.1895	0.0034	-0.0026	0.0052	-23.4980	26.7016	-1.4954	-0.0697	0.1309	0.7727	-0.6172
2.13	-0.5125	-9.2851	-2.1877	0.0087	-0.0010	0.0015	-23.5849	26.9607	-1.5518	-0.0697	0.1308	0.7727	-0.6172
2.14	-0.5145	-9.2901	-2.1876	0.0068	-0.0017	0.0017	-23.5248	26.9119	-1.5172	-0.0697	0.1308	0.7728	-0.6173
2.15	-0.5260	-9.2830	-2.1741	0.0136	-0.0002	0.0020	-23.6010	26.9997	-1.4150	-0.0697	0.1308	0.7727	-0.6172
2.16	-0.5297	-9.2884	-2.1782	0.0047	-0.0010	0.0053	-23.6880	27.1814	-1.5132	-0.0697	0.1308	0.7727	-0.6173
2.17	-0.5311	-9.2879	-2.1761	0.0072	-0.0009	0.0072	-23.8192	26.8925	-1.6483	-0.0697	0.1308	0.7726	-0.6172
2.18	-0.5319	-9.2851	-2.1745	0.0071	-0.0031	0.0000	-23.7531	26.9753	-1.6120	-0.0697	0.1308	0.7727	-0.6172
2.19	-0.5291	-9.2847	-2.1705	0.0068	0.0021	0.0017	-23.7300	27.1896	-1.6601	-0.0698	0.1308	0.7727	-0.6172
2.2	-0.5261	-9.2874	-2.1825	0.0019	-0.0033	0.0036	-23.8819	27.1406	-1.5302	-0.0698	0.1308	0.7727	-0.6172
2.21	-0.5198	-9.2907	-2.1798	0.0052	0.0020	0.0008	-23.9744	26.8707	-1.6467	-0.0698	0.1308	0.7727	-0.6172
2.22	-0.5192	-9.2920	-2.1805	0.0060	-0.0020	0.0009	-23.7906	27.0146	-1.7203	-0.0698	0.1308	0.7727	-0.6172
2.23	-0.5206	-9.2843	-2.1828	0.0040	-0.0008	0.0006	-23.6719	26.9504	-1.5274	-0.0698	0.1308	0.7728	-0.6172
2.24	-0.5189	-9.2860	-2.1865	0.0004	0.0015	0.0014	-23.7998	27.0081	-1.5526	-0.0698	0.1307	0.7727	-0.6171
2.25	-0.5171	-9.2817	-2.1913	0.0026	-0.0001	-0.0002	-23.8986	27.1094	-1.4253	-0.0699	0.1307	0.7728	-0.6171
2.26	-0.5247	-9.2829	-2.1878	0.0078	0.0013	0.0067	-23.8315	26.9762	-1.4946	-0.0699	0.1307	0.7728	-0.6171
2.27	-0.5290	-9.2859	-2.1880	0.0089	-0.0006	0.0078	-23.5178	27.0911	-1.3191	-0.0699	0.1308	0.7728	-0.6171
2.28	-0.5318	-9.2837	-2.1898	0.0057	-0.0054	0.0058	-23.1721	27.1134	-1.0704	-0.0698	0.1307	0.7728	-0.6171
2.29	-0.5288	-9.2865	-2.1883	0.0030	0.0013	0.0054	-23.2787	27.0935	-1.3374	-0.0698	0.1307	0.7728	-0.6171
2.3	-0.5278	-9.2938	-2.1907	0.0072	0.0023	0.0034	-23.4188	27.6512	-1.4881	-0.0699	0.1308	0.7728	-0.6171
2.31	-0.5275	-9.2884	-2.1888	0.0078	0.0052	0.0034	-23.4910	27.4126	-1.6045	-0.0699	0.1308	0.7727	-0.6170
2.32	-0.5158	-9.2817	-2.1838	0.0060	0.0025	0.0046	-23.3900	26.6958	-1.4753	-0.0699	0.1308	0.7728	-0.6171
2.33	-0.5138	-9.2915	-2.1926	0.0096	-0.0017	0.0051	-23.7202	27.0433	-1.5513	-0.0699	0.1308	0.7728	-0.6171
2.34	-0.5076	-9.2916	-2.1890	0.0050	-0.0004	0.0046	-23.7201	26.8905	-1.6341	-0.0699	0.1308	0.7729	-0.6171
2.35	-0.5071	-9.2819	-2.1836	0.0038	-0.0036	0.0013	-23.7736	27.0561	-1.4840	-0.0699	0.1308	0.7728	-0.6170
2.36	-0.4996	-9.2817	-2.1854	0.0035	-0.0031	0.0041	-23.5503	27.0343	-1.4312	-0.0699	0.1308	0.7728	-0.6171
2.37	-0.4958	-9.2969	-2.1973	0.0060	-0.0045	0.0031	-23.5913	26.8461	-1.3708	-0.0699	0.1307	0.7728	-0.6171
2.38	-0.4985	-9.2891	-2.1909	-0.0044	-0.0008	0.0033	-23.9591	27.0145	-1.2975	-0.0699	0.1307	0.7728	-0.6170
2.39	-0.5029	-9.2894	-2.2003	0.0004	-0.0002	0.0004	-23.7819	27.1167	-1.5698	-0.0699	0.1307	0.7730	-0.6170
2.4	-0.5078	-9.2871	-2.1998	0.0021	0.0012	0.0009	-23.8233	26.8978	-1.5928	-0.0700	0.1307	0.7729	-0.6170
2.41	-0.5123	-9.2875	-2.2017	-0.0014	0.0028	0.0009	-23.6323	26.9774	-1.4010	-0.0700	0.1307	0.7730	-0.6170
2.42	-0.5202	-9.2832	-2.2100	0.0061	0.0000	0.0058	-23.7495	26.9315	-1.5296	-0.0700	0.1307	0.7729	-0.6169
2.43	-0.5154	-9.2858	-2.2140	-0.0010	0.0007	0.0026	-23.7241	27.0547	-1.4977	-0.0700	0.1307	0.7730	-0.6169
2.44	-0.5074	-9.2849	-2.2182	0.0012	0.0023	0.0017	-23.6217	27.0210	-1.3874	-0.0700	0.1307	0.7730	-0.6168
2.45	-0.5045	-9.2880	-2.2120	0.0077	-0.0028	0.0056	-23.7285	27.0407	-1.5021	-0.0700	0.1307	0.7730	-0.6168
2.46	-0.5051	-9.2853	-2.1999	0.0054	-0.0066	0.0008	-23.9163	27.0222	-1.6296	-0.0700	0.1307	0.7730	-0.6169
2.47	-0.5041	-9.2846	-2.2030	0.0048	-0.0008	0.0008	-23.5284	26.9135	-1.4372	-0.0700	0.1307	0.7730	-0.6168
2.48	-0.5087	-9.2924	-2.2020	0.0080	-0.0020	0.0017	-23.4967	27.0049	-1.6561	-0.0700	0.1306	0.7730	-0.6169
2.49	-0.5200	-9.2815	-2.1874	0.0064	-0.0009	-0.0005	-23.7668	26.7600	-1.6958	-0.0700	0.1306	0.7729	-0.6168
2.5	-0.5267	-9.2822	-2.1842	0.0069	-0.0014	0.0048	-23.7798	26.8016	-1.5767	-0.0701	0.1306	0.7730	-0.6169
2.51	-0.5306	-9.2849	-2.1834	0.0113	-0.0027	0.0062	-23.6072	26.9046	-1.7413	-0.0700	0.1306	0.7730	-0.6168
2.52	-0.5386	-9.2815	-2.1746	0.0030	-0.0022	0.0035	-23.6671	27.0680	-1.5447	-0.0700	0.1306	0.7730	-0.6168
2.53	-0.5340	-9.2837	-2.1762	0.0068	-0.0012	-0.0001	-23.7300	26.9031	-1.3770	-0.0701	0.1306	0.7730	-0.6168
2.54	-0.5361	-9.2884	-2.1701	0.0077	-0.0050	0.0033	-23.7371	26.9220	-1.6159	-0.0701	0.1306	0.7730	-0.6168
2.55	-0.5313	-9.2865	-2.1628	0.0080	-0.0035	0.0033	-23.5493	27.0514	-1.4780	-0.0701	0.1306	0.7730	-0.6168
2.56	-0.5226	-9.2839	-2.1676	0.0061	-0.0026	0.0035	-23.6593	26.7535	-1.3865	-0.0700	0.1305	0.7730	-0.6168
2.57	-0.5173	-9.2850	-2.1624	0.0046	0.0019	0.0017	-23.7284	26.9694	-1.6406	-0.0701	0.1305	0.7731	-0.6168
2.58	-0.5134	-9.2852	-2.1658	0.0086	0.0016	0.0003	-23.6376	26.9776	-1.5941	-0.0701	0.1305	0.7730	-0.6168
2.59	-0.5184	-9.2849	-2.1672	0.0047	0.0027	-0.0003	-23.6567	26.8514	-1.5370	-0.0701	0.1305	0.7731	-0.6169
2.6	-0.5259	-9.2857	-2.1650	0.0015	-0.0033	0.0017	-23.7378	26.9896	-1.4833	-0.0701	0.1305	0.7730	-0.6167
2.61	-0.5305	-9.2854	-2.1749	0.0016	-0.0003	0.0005	-23.8340	26.9624	-1.7810	-0.0701	0.1305	0.7731	-0.6168
2.62	-0.5317	-9.2831	-2.1771	-0.0058	-0.0021	0.0058	-23.6355	26.7265	-1.5368	-0.0701	0.1305	0.7731	-0.6167
2.63	-0.5285	-9.2843	-2.1874	-0.0023	-0.0062	0.0022	-23.7372	26.7940	-1.4887	-0.0701	0.1305	0.7731	-0.6166
2.64	-0.5290	-9.2873	-2.1942	0.0052	-0.0074	0.0033	-23.7286	26.7991	-1.6106	-0.0701	0.1305	0.7732	-0.6167
2.65	-0.5190	-9.2866	-2.2016	0.0028	-0.0080	0.0048	-23.8699	26.9790	-1.6063	-0.0701	0.1304	0.7732	-0.6166
2.66	-0.5070	-9.2850	-2.2047	0.0013	-0.0005	0.0001	-23.4754	26.7684	-1.5666	-0.0701	0.1304	0.7733	-0.6167
2.67	-0.5002	-9.2953	-2.2079	0.0072	-0.0068	0.0001	-23.6619	26.7992	-1.7062	-0.0701	0.1304	0.7732	-0.6166
2.68	-0.4929	-9.2880	-2.2103	0.0070	-0.0002	0.0040	-23.7141	26.6753	-1.6275	-0.0701	0.1304	0.7732	-0.6166
2.69	-0.4898	-9.2810	-2.2061	0.0073	-0.0010	0.0044	-23.5055	26.7422	-1.4596	-0.0701	0.1304	0.7732	-0.6166
2.7	-0.4928	-9.2862	-2.2132	0.0071	-0.0023	0.0006	-23.6547	26.8857	-1.8189	-0.0701	0.1303	0.7732	-0.6166
2.71	-0.4988	-9.2882	-2.2159	0.0037	-0.0033	0.0028	-23.7462	26.8420	-1.5529	-0.0701	0.1303	0.7733	-0.6166
2.72	-0.5045	-9.2812	-2.2158	0.0109	-0.0026	0.0001	-23.5886	26.9254	-1.5130	-0.0701	0.1303	0.7732	-0.6166
2.73	-0.5091	-9.2869	-2.2143	0.0073	-0.0052	0.0082	-23.6093	26.9165	-1.8912	-0.0701	0.1303	0.7733	-0.6166
2.74	-0.5173	-9.2914	-2.2137	0.0050	0.0001	0.0020	-23.7265	26.7612	-1.6836	-0.0701	0.1303	0.7732	-0.6166
2.75	-0.5163	-9.2897	-2.2115	0.0069	0.0040	0.0013	-23.8561	27.0741	-1.3825	-0.0701	0.1303	0.7733	-0.6166
2.76	-0.5113	-9.2816	-2.2006	0.0047	0.0089	0.0000	-23.7304	26.8655	-1.4335	-0.0702	0.1303	0.7732	-0.6166
2.77	-0.5100	-9.2861	-2.1999	0.0020	0.0027	0.0016	-23.3171	27.1403	-1.1713	-0.0702	0.1303	0.7733	-0.6166
2.78	-0.5108	-9.2945	-2.1969	0.0058	-0.0020	0.0057	-22.9903	26.9181	-0.9713	-0.0702	0.1303	0.7733	-0.6165
2.79	-0.5146	-9.2875	-2.1863	0.0060	-0.0036	0.0059	-23.3761	27.1457	-1.2306	-0.0702	0.1303	0.7733	-0.6165
2.8	-0.5076	-9.2874	-2.1884	0.0070	-0.0009	0.0041	-23.7170	27.7216	-1.5167	-0.0702	0.1303	0.7733	-0.6166
2.81	-0.5113	-9.2902	-2.1858	0.0082	0.0016	0.0038	-23.8572	27.5653	-1.6386	-0.0702	0.1303	0.7732	-0.6165
2.82	-0.5137	-9.2890	-2.1877	0.0074	0.0007	0.0037	-23.6954	26.9074	-1.5249	-0.0702	0.1303	0.7733	-0.6166
2.83	-0.5177	-9.2872	-2.1794	0.0079	-0.0056	0.0065	-23.6519	26.9408	-1.5340	-0.0702	0.1303	0.7733	-0.6165
2.84	-0.5234	-9.2926	-2.1825	0.0077	-0.0079	0.0075	-23.5712	26.7585	-1.7832	-0.0702	0.1303	0.7733	-0.6166
2.85	-0.5246	-9.2860	-2.1754	0.0088	-0.0089	0.0081	-23.4278	26.7870	-1.7833	-0.0702	0.1303	0.7732	-0.6165
2.86	-0.5266	-9.2849	-2.1776	0.0113	-0.0017	0.0059	-23.5086	26.8687	-1.5754	-0.0701	0.1303	0.7733	-0.6166
2.87	-0.5235	-9.2790	-2.1760	0.0109	0.0000	0.0065	-23.4770	26.8590	-1.6341	-0.0702	0.1303	0.7733	-0.6166
2.88	-0.5247	-9.2886	-2.1773	0.0091	-0.0038	0.0079	-23.4688	26.8520	-1.6093	-0.0701	0.1303	0.7732	-0.6166
2.89	-0.5193	-9.2831	-2.1735	0.0072	-0.0006	0.0082	-23.4381	26.8743	-1.6099	-0.0701	0.1303	0.7733	-0.6167
2.9	-0.5205	-9.2822	-2.1770	0.0049	-0.0022	0.0110	-23.5348	26.7041	-1.6378	-0.0701	0.1303	0.7732	-0.6166
2.91	-0.5182	-9.2878	-2.1812	0.0091	-0.0021	0.0093	-23.5660	26.9458	-1.7538	-0.0701	0.1303	0.7733	-0.6166
2.92	-0.5162	-9.2895	-2.1870	0.0094	-0.0053	0.0094	-23.6275	26.8414	-1.5859	-0.0701	0.1303	0.7732	-0.6166
2.93	-0.5164	-9.2866	-2.1841	0.0055	-0.0035	0.0083	-23.5894	26.7834	-1.6611	-0.0701	0.1304	0.7732	-0.6166
2.94	-0.5174	-9.2844	-2.1867	0.0105	-0.0030	0.0014	-23.6132	26.8664	-1.6871	-0.0701	0.1303	0.7732	-0.6166
2.95	-0.5214	-9.2880	-2.1952	0.0082	0.0012	0.0020	-23.6015	26.9164	-1.5353	-0.0701	0.1303	0.7732	-0.6166
2.96	-0.5186	-9.2832	-2.1894	0.0073	0.0001	0.0074	-23.6162	26.9422	-1.3430	-0.0701	0.1303	0.7732	-0.6166
2.97	-0.5238	-9.2911	-2.1969	0.0080	-0.0031	0.0030	-23.7237	26.9553	-1.5053	-0.0701	0.1303	0.7732	-0.6166
2.98	-0.5181	-9.2870	-2.1970	0.0072	0.0029	0.0083	-23.6234	27.0637	-1.5407	-0.0701	0.1303	0.7733	-0.6166
2.99	-0.5130	-9.2832	-2.1979	0.0145	-0.0022	0.0075	-23.5911	26.9238	-1.5916	-0.0701	0.1303	0.7731	-0.6166
3	-0.5191	-9.2847	-2.1922	0.0128	0.0049	0.0078	-23.7108	26.9391	-1.6724	-0.0701	0.1304	0.7732	-0.6167
3.01	-0.5103	-9.2885	-2.2034	0.0093	-0.0021	0.0093	-23.7991	27.0747	-1.6894	-0.0701	0.1304	0.7732	-0.6167
3.02	-0.5096	-9.2879	-2.1941	0.0090	-0.0016	0.0054	-23.6959	26.8655	-1.5474	-0.0701	0.1304	0.7732	-0.6167
3.03	-0.5063	-9.2850	-2.1932	0.0084	-0.0041	0.0117	-23.6174	26.7772	-1.3989	-0.0701	0.1304	0.7731	-0.6167
3.04	-0.5077	-9.2936	-2.2002	0.0147	-0.0017	0.0089	-23.4578	26.7316	-1.7564	-0.0700	0.1304	0.7731	-0.6167
3.05	-0.5080	-9.2886	-2.2010	0.0125	-0.0015	0.0106	-23.4865	26.7290	-1.7161	-0.0700	0.1304	0.7731	-0.6168
3.06	-0.5072	-9.2838	-2.1905	0.0161	-0.0033	0.0121	-23.5396	26.8053	-1.7896	-0.0700	0.1304	0.7730	-0.6167
3.07	-0.5142	-9.2903	-2.1888	0.0129	0.0014	0.0042	-23.4123	26.6542	-1.6528	-0.0700	0.1305	0.7731	-0.6168
3.08	-0.5285	-9.2886	-2.1966	0.0152	-0.0059	0.0108	-23.6104	26.7268	-1.5016	-0.0700	0.1305	0.7730	-0.6168
3.09	-0.5270	-9.2827	-2.1919	0.0065	-0.0018	0.0063	-23.5809	26.8486	-1.7327	-0.0700	0.1305	0.7731	-0.6169
3.1	-0.5297	-9.2822	-2.1844	0.0095	-0.0021	0.0129	-23.7042	26.8685	-1.6988	-0.0700	0.1305	0.7730	-0.6168
3.11	-0.5290	-9.2902	-2.1875	0.0125	-0.0032	0.0108	-23.5413	26.8330	-1.5891	-0.0699	0.1305	0.7730	-0.6169
3.12	-0.5246	-9.2877	-2.1875	0.0034	-0.0033	0.0054	-23.5606	26.9412	-1.6767	-0.0699	0.1305	0.7730	-0.6169
3.13	-0.5204	-9.2785	-2.1748	0.0091	-0.0015	0.0041	-23.6672	27.1573	-1.7356	-0.0699	0.1305	0.7730	-0.6168
3.14	-0.5113	-9.2918	-2.1853	0.0095	-0.0032	0.0050	-23.9016	26.8672	-1.6976	-0.0699	0.1305	0.7731	-0.6169
3.15	-0.5115	-9.2889	-2.1836	0.0082	0.0036	0.0053	-23.7548	26.7674	-1.5879	-0.0699	0.1305	0.7730	-0.6169
3.16	-0.5096	-9.2864	-2.1780	0.0068	0.0028	0.0064	-23.6574	27.1596	-1.7049	-0.0700	0.1305	0.7731	-0.6169
3.17	-0.5069	-9.2888	-2.1733	0.0096	-0.0006	0.0088	-23.6874	26.8989	-1.6510	-0.0699	0.1305	0.7730	-0.6168
3.18	-0.5038	-9.2902	-2.1759	0.0091	0.0009	0.0021	-23.6066	26.9779	-1.3421	-0.0700	0.1305	0.7730	-0.6169
3.19	-0.4965	-9.2889	-2.1827	0.0054	0.0014	0.0066	-23.7321	26.8367	-1.6287	-0.0700	0.1305	0.7730	-0.6169
3.2	-0.4967	-9.2912	-2.1865	0.0094	0.0032	0.0057	-23.6007	26.7358	-1.7483	-0.0700	0.1306	0.7730	-0.6168
3.21	-0.5020	-9.2898	-2.1836	0.0088	0.0009	0.0066	-23.5126	26.8840	-1.5909	-0.0700	0.1306	0.7730	-0.6169
3.22	-0.5083	-9.2999	-2.1942	0.0168	-0.0017	0.0156	-23.4267	26.7354	-1.6066	-0.0700	0.1306	0.7730	-0.6169
3.23	-0.5127	-9.2860	-2.2069	0.0164	-0.0044	0.0143	-23.6392	26.8160	-1.6610	-0.0699	0.1306	0.7730	-0.6170
3.24	-0.5174	-9.2751	-2.1988	0.0119	-0.0003	0.0089	-23.4955	26.6605	-1.7854	-0.0699	0.1306	0.7729	-0.6169
3.25	-0.5181	-9.2908	-2.2089	0.0063	-0.0049	0.0132	-23.4578	26.8252	-1.9080	-0.0699	0.1307	0.7729	-0.6170
3.26	-0.5151	-9.2851	-2.2107	0.0053	0.0031	0.0050	-23.6542	26.8396	-1.6416	-0.0699	0.1307	0.7729	-0.6169
3.27	-0.5123	-9.2840	-2.2078	0.0108	-0.0017	0.0144	-23.2594	26.9831	-1.4110	-0.0699	0.1307	0.7729	-0.6170
3.28	-0.5125	-9.2890	-2.1991	0.0067	-0.0064	0.0095	-22.9338	27.1263	-1.4676	-0.0699	0.1307	0.7729	-0.6170
3.29	-0.5191	-9.2906	-2.2017	0.0054	-0.0001	0.0040	-23.3828	26.9862	-1.5668	-0.0699	0.1307	0.7729	-0.6170
3.3	-0.5240	-9.2766	-2.1824	0.0071	0.0040	0.0057	-23.6370	27.5309	-1.4974	-0.0699	0.1307	0.7729	-0.6170
3.31	-0.5273	-9.2875	-2.1899	0.0037	-0.0035	0.0070	-23.6252	27.2275	-1.6813	-0.0699	0.1307	0.7729	-0.6169
3.32	-0.5324	-9.2891	-2.1902	0.0037	-0.0025	0.0075	-23.6352	26.8505	-1.8999	-0.0699	0.1307	0.7730	-0.6170
3.33	-0.5359	-9.2780	-2.1761	0.0024	-0.0012	0.0035	-23.7010	27.1223	-1.8618	-0.0698	0.1307	0.7729	-0.6169
3.34	-0.5391	-9.2852	-2.1745	0.0067	0.0029	0.0038	-23.6940	27.0131	-1.6253	-0.0699	0.1308	0.7730	-0.6169
3.35	-0.5407	-9.2935	-2.1737	0.0032	0.0000	-0.0006	-23.5595	27.0751	-1.6160	-0.0699	0.1307	0.7729	-0.6168
3.36	-0.5361	-9.2877	-2.1767	-0.0004	0.0028	0.0057	-23.6788	26.9217	-1.5788	-0.0699	0.1307	0.7730	-0.6168
3.37	-0.5286	-9.2871	-2.1705	0.0052	-0.0035	0.0059	-23.6803	26.8582	-1.5228	-0.0699	0.1307	0.7730	-0.6168
3.38	-0.5233	-9.2860	-2.1743	0.0026	0.0020	0.0026	-23.8404	26.9739	-1.7383	-0.0699	0.1307	0.7730	-0.6168
3.39	-0.5148	-9.2849	-2.1757	0.0040	-0.0004	0.0035	-23.7114	26.9564	-1.6642	-0.0699	0.1308	0.7731	-0.6168
3.4	-0.5103	-9.2866	-2.1770	0.0084	-0.0099	0.0058	-23.7471	27.0084	-1.7493	-0.0699	0.1307	0.7730	-0.6168
3.41	-0.5129	-9.2939	-2.1840	0.0107	-0.0028	0.0044	-23.5055	26.8752	-1.5671	-0.0699	0.1307	0.7731	-0.6168
3.42	-0.5171	-9.2870	-2.1843	0.0028	-0.0036	0.0036	-23.4919	27.0109	-1.8065	-0.0699	0.1307	0.7730	-0.6168
3.43	-0.5255	-9.2789	-2.1815	0.0040	0.0023	0.0042	-23.4824	26.9012	-1.7316	-0.0699	0.1307	0.7731	-0.6168
3.44	-0.5390	-9.2846	-2.1979	0.0041	0.0055	0.0085	-23.6809	26.6754	-1.5559	-0.0699	0.1307	0.7731	-0.6168
3.45	-0.5435	-9.2865	-2.2025	0.0042	-0.0001	0.0043	-23.5482	26.9964	-1.6192	-0.0699	0.1307	0.7731	-0.6167
3.46	-0.5301	-9.2870	-2.2082	0.0168	-0.0041	0.0059	-23.7043	26.9784	-1.7001	-0.0699	0.1307	0.7731	-0.6168
3.47	-0.5179	-9.2852	-2.2036	0.0075	-0.0012	0.0093	-23.5415	26.8073	-1.6793	-0.0699	0.1307	0.7730	-0.6168
3.48	-0.5099	-9.2875	-2.2025	0.0052	-0.0023	0.0041	-23.5796	26.9144	-1.7486	-0.0699	0.1307	0.7731	-0.6168
3.49	-0.4957	-9.2943	-2.2069	0.0062	-0.0002	0.0055	-23.6780	27.0069	-1.8172	-0.0699	0.1307	0.7730	-0.6167
3.5	-0.4888	-9.2944	-2.2023	0.0083	-0.0020	0.0026	-23.6619	26.8424	-1.6369	-0.0699	0.1307	0.7731	-0.6168
3.51	-0.4854	-9.2866	-2.1919	0.0070	0.0030	0.0016	-23.8762	27.0807	-1.6276	-0.0699	0.1307	0.7731	-0.6168
3.52	-0.4860	-9.2957	-2.2065	0.0052	0.0074	0.0033	-23.5225	27.1816	-1.8194	-0.0700	0.1308	0.7731	-0.6168
3.53	-0.4940	-9.2876	-2.1998	0.0026	-0.0002	0.0057	-23.6876	26.9371	-1.6708	-0.0700	0.1308	0.7731	-0.6167
3.54	-0.5040	-9.2900	-2.2020	0.0055	0.0024	0.0024	-23.8301	26.7467	-1.7276	-0.0700	0.1308	0.7731	-0.6167
3.55	-0.5069	-9.2872	-2.1976	0.0079	-0.0007	0.0043	-23.6472	26.8754	-1.6073	-0.0700	0.1308	0.7731	-0.6167
3.56	-0.5107	-9.2858	-2.1940	0.0039	0.0019	0.0045	-23.6628	26.8825	-1.6887	-0.0700	0.1308	0.7730	-0.6167
3.57	-0.5083	-9.2867	-2.1918	0.0130	0.0015	0.0004	-23.6435	26.9834	-1.6979	-0.0700	0.1308	0.7731	-0.6167
3.58	-0.5025	-9.2937	-2.1886	0.0124	0.0036	0.0066	-23.8082	27.0862	-1.5733	-0.0700	0.1308	0.7731	-0.6167
3.59	-0.5032	-9.2967	-2.1875	0.0105	-0.0042	0.0026	-23.5357	26.9763	-1.6831	-0.0701	0.1308	0.7731	-0.6168
3.6	-0.5079	-9.2830	-2.1838	0.0046	0.0030	0.0045	-23.3705	26.9717	-1.7914	-0.0701	0.1308	0.7730	-0.6167
3.61	-0.5116	-9.2836	-2.1867	0.0049	0.0054	0.0062	-23.5480	27.0807	-1.7780	-0.0701	0.1308	0.7731	-0.6167
3.62	-0.5101	-9.2921	-2.1904	0.0042	-0.0032	0.0066	-23.5810	26.8445	-1.7932	-0.0701	0.1308	0.7731	-0.6167
3.63	-0.5123	-9.2868	-2.1891	-0.0003	-0.0014	0.0029	-23.5091	26.7724	-1.6921	-0.0701	0.1308	0.7731	-0.6166
3.64	-0.5130	-9.2811	-2.1810	0.0031	-0.0020	0.0032	-23.4624	26.9318	-1.6821	-0.0701	0.1308	0.7732	-0.6167
3.65	-0.5216	-9.2936	-2.1925	0.0073	-0.0036	0.0097	-23.5543	26.9725	-1.7053	-0.0700	0.1308	0.7731	-0.6166
3.66	-0.5192	-9.2910	-2.1872	0.0086	0.0030	0.0051	-23.7459	27.0078	-1.8974	-0.0701	0.1308	0.7732	-0.6167
3.67	-0.5244	-9.2810	-2.1841	0.0042	0.0020	0.0042	-23.7342	27.1745	-1.7764	-0.0701	0.1308	0.7731	-0.6166
3.68	-0.5219	-9.2852	-2.1837	0.0037	-0.0023	0.0024	-23.7166	26.8775	-1.8147	-0.0701	0.1308	0.7732	-0.6166
3.69	-0.5189	-9.2920	-2.1873	0.0074	0.0022	0.0047	-23.7644	26.9496	-1.8659	-0.0701	0.1308	0.7731	-0.6166
3.7	-0.5218	-9.2861	-2.1888	-0.0017	0.0011	0.0026	-23.8487	26.9577	-1.6633	-0.0701	0.1308	0.7732	-0.6166
3.71	-0.5242	-9.2805	-2.1791	-0.0023	0.0080	0.0028	-23.6997	27.0753	-1.8194	-0.0701	0.1308	0.7732	-0.6166
3.72	-0.5192	-9.2916	-2.1936	0.0064	0.0064	0.0041	-23.7575	27.1314	-1.8837	-0.0702	0.1308	0.7732	-0.6165
3.73	-0.5243	-9.2912	-2.1965	0.0095	0.0082	0.0094	-23.6624	27.1973	-1.4670	-0.0702	0.1309	0.7732	-0.6165
3.74	-0.5253	-9.2765	-2.1900	0.0007	0.0079	0.0035	-23.7110	27.1598	-1.8159	-0.0702	0.1309	0.7732	-0.6164
3.75	-0.5300	-9.2890	-2.1984	0.0019	0.0027	0.0055	-23.8562	26.9072	-1.6412	-0.0703	0.1309	0.7733	-0.6165
3.76	-0.5318	-9.2875	-2.2023	0.0051	0.0023	0.0035	-23.7577	27.0257	-1.6595	-0.0703	0.1309	0.7732	-0.6164
3.77	-0.5274	-9.2835	-2.1998	0.0095	-0.0020	0.0039	-23.4545	27.1172	-1.6672	-0.0703	0.1309	0.7733	-0.6165
3.78	-0.5367	-9.2881	-2.2056	0.0143	-0.0024	0.0086	-23.1709	27.1368	-1.4984	-0.0703	0.1309	0.7732	-0.6165
3.79	-0.5332	-9.2862	-2.2058	0.0141	-0.0040	0.0107	-23.2604	27.1384	-1.6968	-0.0702	0.1310	0.7732	-0.6165
3.8	-0.5304	-9.2890	-2.2017	0.0127	-0.0043	0.0034	-23.4934	27.4344	-1.5643	-0.0702	0.1309	0.7732	-0.6165
3.81	-0.5298	-9.2834	-2.1906	0.0074	-0.0050	0.0080	-23.5355	27.4940	-1.8266	-0.0702	0.1309	0.7731	-0.6165
3.82	-0.5230	-9.2914	-2.1931	0.0090	-0.0075	0.0158	-23.5548	26.8402	-1.6410	-0.0702	0.1310	0.7732	-0.6166
3.83	-0.5209	-9.2878	-2.1929	0.0072	-0.0027	0.0028	-23.6964	26.9943	-1.6672	-0.0702	0.1310	0.7732	-0.6165
3.84	-0.5186	-9.2858	-2.1901	0.0164	0.0002	0.0108	-23.7133	26.8674	-1.6445	-0.0702	0.1310	0.7732	-0.6166
3.85	-0.5173	-9.2848	-2.1829	0.0126	-0.0018	0.0083	-23.7295	26.8204	-1.6062	-0.0701	0.1310	0.7731	-0.6166
3.86	-0.5172	-9.2878	-2.1815	0.0074	-0.0065	0.0026	-23.6782	27.0335	-1.5920	-0.0701	0.1310	0.7731	-0.6166
3.87	-0.5170	-9.2866	-2.1851	0.0118	-0.0060	0.0071	-23.6528	27.0972	-1.5373	-0.0701	0.1310	0.7731	-0.6166
3.88	-0.5134	-9.2851	-2.1811	0.0160	0.0004	0.0012	-23.8227	27.2027	-1.7455	-0.0701	0.1309	0.7731	-0.6166
3.89	-0.5137	-9.2861	-2.1867	0.0172	0.0022	0.0078	-23.7806	27.1429	-1.6831	-0.0702	0.1310	0.7731	-0.6167
3.9	-0.5101	-9.2907	-2.1901	0.0078	0.0040	0.0103	-23.8118	26.9118	-1.7362	-0.0702	0.1310	0.7730	-0.6167
3.91	-0.5016	-9.2865	-2.1893	0.0082	-0.0012	0.0065	-23.7588	27.0793	-1.8426	-0.0702	0.1310	0.7731	-0.6167
3.92	-0.5000	-9.2868	-2.1923	0.0087	0.0011	0.0070	-23.9055	26.9817	-1.6040	-0.0702	0.1310	0.7730	-0.6166
3.93	-0.4972	-9.2889	-2.1950	0.0083	-0.0029	0.0060	-23.8216	27.2613	-1.6322	-0.0702	0.1310	0.7731	-0.6167
3.94	-0.4982	-9.2838	-2.1847	0.0109	-0.0005	0.0102	-23.7039	27.2683	-1.4488	-0.0701	0.1310	0.7730	-0.6167
3.95	-0.5038	-9.2881	-2.1897	0.0118	-0.0050	0.0032	-23.9187	27.2305	-1.7968	-0.0701	0.1310	0.7730	-0.6167
3.96	-0.5061	-9.2899	-2.1895	0.0094	-0.0074	0.0076	-23.7542	26.9643	-1.7942	-0.0701	0.1310	0.7730	-0.6168
3.97	-0.5103	-9.2902	-2.1924	0.0094	-0.0008	0.0026	-23.7046	27.0921	-1.8159	-0.0701	0.1310	0.7730	-0.6167
3.98	-0.5167	-9.2809	-2.1811	0.0094	-0.0013	0.0083	-23.5187	26.8462	-1.9105	-0.0701	0.1310	0.7730	-0.6168
3.99	-0.5152	-9.2924	-2.1820	0.0115	-0.0075	0.0062	-23.6497	26.7338	-1.7807	-0.0701	0.1310	0.7729	-0.6167
4	-0.5160	-9.2872	-2.1739	0.0056	-0.0083	0.0078	-23.6980	26.9138	-1.5701	-0.0700	0.1310	0.7730	-0.6168
4.01	-0.5140	-9.2847	-2.1772	0.0117	0.0000	0.0011	-23.8103	26.9440	-1.6857	-0.0701	0.1310	0.7730	-0.6168
4.02	-0.5141	-9.2936	-2.1818	0.0106	-0.0034	0.0022	-23.8530	26.9266	-1.9394	-0.0701	0.1309	0.7730	-0.6168
4.03	-0.5117	-9.2899	-2.1884	0.0089	0.0004	0.0087	-23.5854	27.0485	-1.6425	-0.0701	0.1310	0.7730	-0.6168
4.04	-0.5077	-9.2816	-2.1817	0.0044	-0.0043	0.0028	-23.6580	26.8872	-1.6562	-0.0701	0.1309	0.7730	-0.6168
4.05	-0.5018	-9.2845	-2.1812	0.0137	-0.0080	0.0092	-23.7782	26.8688	-1.8899	-0.0700	0.1309	0.7730	-0.6168
4.06	-0.5034	-9.2925	-2.1947	0.0056	-0.0036	0.0112	-23.7745	27.1129	-1.8975	-0.0700	0.1309	0.7729	-0.6168
4.07	-0.5004	-9.2892	-2.1929	0.0064	0.0005	0.0029	-24.0071	27.1913	-1.6583	-0.0700	0.1310	0.7730	-0.6168
4.08	-0.5059	-9.2882	-2.2003	0.0108	0.0028	0.0049	-23.8883	27.1958	-1.6502	-0.0700	0.1310	0.7730	-0.6168
4.09	-0.5139	-9.2890	-2.2017	0.0056	0.0022	0.0045	-23.9246	27.3833	-1.7521	-0.0700	0.1310	0.7730	-0.6168
4.1	-0.5234	-9.2900	-2.2076	0.0068	-0.0040	0.0055	-23.9719	27.2344	-1.6809	-0.0700	0.1310	0.7729	-0.6168
4.11	-0.5298	-9.2844	-2.2106	0.0087	-0.0003	0.0058	-23.9440	27.2985	-1.8803	-0.0700	0.1310	0.7730	-0.6168
4.12	-0.5244	-9.2805	-2.2087	0.0082	0.0047	0.0022	-23.9594	27.0000	-1.4843	-0.0701	0.1310	0.7730	-0.6168
4.13	-0.5179	-9.2818	-2.2075	0.0040	0.0015	0.0048	-23.9551	27.1750	-1.7983	-0.0701	0.1310	0.7729	-0.6167
4.14	-0.5082	-9.2894	-2.2006	0.0096	-0.0065	0.0043	-23.8539	27.1741	-1.8701	-0.0701	0.1310	0.7731	-0.6168
4.15	-0.5060	-9.2877	-2.1935	0.0062	-0.0043	0.0098	-23.7588	26.8505	-1.5440	-0.0700	0.1310	0.7730	-0.6168
4.16	-0.5051	-9.2898	-2.1979	0.0089	-0.0022	0.0111	-23.6345	27.0122	-1.8385	-0.0700	0.1310	0.7730	-0.6168
4.17	-0.5077	-9.2876	-2.1804	0.0124	-0.0026	0.0061	-23.6294	26.8106	-1.6701	-0.0700	0.1310	0.7729	-0.6168
4.18	-0.5177	-9.2882	-2.1846	0.0070	-0.0010	0.0100	-23.6232	26.9130	-1.8156	-0.0700	0.1310	0.7730	-0.6168
4.19	-0.5289	-9.2804	-2.1803	0.0120	-0.0014	0.0033	-23.6551	27.0918	-1.9358	-0.0700	0.1310	0.7730	-0.6168
4.2	-0.5342	-9.2843	-2.1780	0.0043	-0.0028	0.0103	-23.8068	27.1383	-1.7120	-0.0700	0.1310	0.7730	-0.6168
4.21	-0.5374	-9.2904	-2.1756	0.0051	-0.0024	0.0071	-23.7119	26.9702	-1.6229	-0.0700	0.1310	0.7730	-0.6168
4.22	-0.5385	-9.2855	-2.1756	0.0043	-0.0007	0.0039	-23.5741	26.9998	-1.8323	-0.0700	0.1310	0.7730	-0.6168
4.23	-0.5364	-9.2891	-2.1782	0.0114	-0.0036	0.0062	-23.5540	26.9683	-1.7699	-0.0700	0.1310	0.7730	-0.6168
4.24	-0.5327	-9.2869	-2.1681	0.0079	-0.0065	0.0075	-23.8876	27.0029	-1.8005	-0.0699	0.1310	0.7729	-0.6168
4.25	-0.5272	-9.2795	-2.1646	0.0110	0.0007	0.0062	-23.8759	27.2191	-1.7021	-0.0699	0.1310	0.7730	-0.6168
4.26	-0.5170	-9.2830	-2.1637	0.0068	0.0016	0.0041	-23.8658	27.1951	-1.6894	-0.0699	0.1310	0.7730	-0.6168
4.27	-0.5096	-9.2930	-2.1759	0.0046	0.0012	0.0008	-23.6165	27.3771	-1.5427	-0.0700	0.1310	0.7730	-0.6168
4.28	-0.5093	-9.2898	-2.1616	0.0057	0.0015	0.0051	-23.2884	27.2329	-1.4363	-0.0700	0.1310	0.7730	-0.6168
4.29	-0.5143	-9.2907	-2.1647	-0.0008	0.0033	0.0017	-23.5692	27.4112	-1.6225	-0.0700	0.1310	0.7730	-0.6168
4.3	-0.5171	-9.2884	-2.1712	0.0032	0.0033	0.0067	-23.7926	27.7654	-1.6357	-0.0700	0.1311	0.7730	-0.6167
4.31	-0.5314	-9.2885	-2.1778	0.0018	0.0041	0.0041	-23.7972	27.5871	-1.6996	-0.0700	0.1311	0.7730	-0.6167
4.32	-0.5363	-9.2846	-2.1762	-0.0011	0.0065	0.0057	-23.6946	26.9326	-1.6957	-0.0701	0.1311	0.7731	-0.6167
4.33	-0.5391	-9.2890	-2.1955	0.0021	0.0004	0.0093	-23.7997	27.1112	-1.5813	-0.0700	0.1311	0.7731	-0.6166
4.34	-0.5326	-9.2880	-2.2076	0.0100	-0.0040	0.0029	-23.9632	27.1536	-1.6835	-0.0700	0.1311	0.7731	-0.6167
4.35	-0.5192	-9.2896	-2.2075	0.0123	0.0020	0.0040	-23.6684	27.0048	-1.8956	-0.0701	0.1311	0.7730	-0.6166
4.36	-0.5066	-9.2832	-2.2084	0.0031	-0.0010	0.0041	-23.7664	27.1211	-1.9883	-0.0701	0.1311	0.7731	-0.6167
4.37	-0.4910	-9.2860	-2.2105	0.0063	0.0046	0.0011	-23.7862	27.1946	-1.9526	-0.0701	0.1311	0.7731	-0.6166
4.38	-0.4864	-9.2939	-2.2119	0.0082	0.0053	0.0035	-23.6123	27.0845	-1.6890	-0.0701	0.1311	0.7730	-0.6166
4.39	-0.4787	-9.2905	-2.2037	0.0081	0.0041	0.0018	-23.7657	27.3297	-1.7259	-0.0702	0.1311	0.7731	-0.6167
4.4	-0.4791	-9.2917	-2.2123	0.0006	0.0032	0.0001	-23.8158	27.2798	-1.8119	-0.0702	0.1311	0.7731	-0.6166
4.41	-0.4870	-9.2904	-2.2170	0.0067	0.0032	0.0029	-23.8071	27.2529	-1.5953	-0.0702	0.1311	0.7732	-0.6166
4.42	-0.4950	-9.2901	-2.2166	0.0114	0.0053	0.0015	-23.8075	27.0941	-1.7370	-0.0702	0.1311	0.7730	-0.6165
4.43	-0.5026	-9.2895	-2.2095	0.0082	0.0084	0.0017	-23.7177	27.0386	-1.5634	-0.0703	0.1312	0.7731	-0.6166
4.44	-0.5109	-9.2855	-2.2142	0.0073	0.0072	0.0055	-24.0541	27.0356	-1.5485	-0.0703	0.1312	0.7731	-0.6166
4.45	-0.5151	-9.2901	-2.2120	0.0084	0.0041	0.0012	-23.9776	27.3020	-1.7372	-0.0704	0.1312	0.7731	-0.6166
4.46	-0.5143	-9.2870	-2.2020	0.0070	-0.0023	0.0016	-23.8803	27.2648	-1.7844	-0.0704	0.1312	0.7731	-0.6166
4.47	-0.5098	-9.2863	-2.1989	0.0092	-0.0014	0.0009	-23.7439	26.9688	-1.7046	-0.0704	0.1311	0.7731	-0.6166
4.48	-0.5105	-9.2913	-2.1972	0.0081	0.0069	0.0030	-23.7657	27.1272	-1.6573	-0.0704	0.1312	0.7731	-0.6166
4.49	-0.5063	-9.2859	-2.1901	0.0074	0.0045	0.0007	-23.9036	27.1248	-1.5271	-0.0704	0.1312	0.7730	-0.6165
4.5	-0.5099	-9.2859	-2.1847	0.0102	0.0070	0.0016	-23.8926	27.2070	-1.6284	-0.0705	0.1312	0.7731	-0.6166
4.51	-0.5103	-9.2848	-2.1823	0.0128	0.0053	0.0066	-24.0014	27.0942	-1.6622	-0.0705	0.1312	0.7731	-0.6166
4.52	-0.5153	-9.2944	-2.1841	0.0089	0.0017	0.0114	-23.9087	27.3991	-1.7412	-0.0705	0.1312	0.7731	-0.6166
4.53	-0.5202	-9.2890	-2.1731	0.0105	0.0015	0.0023	-23.7071	27.2646	-1.6945	-0.0705	0.1312	0.7730	-0.6166
4.54	-0.5281	-9.2779	-2.1633	0.0073	-0.0045	0.0025	-23.6268	27.2110	-1.8538	-0.0705	0.1312	0.7731	-0.6166
4.55	-0.5269	-9.2900	-2.1723	0.0072	-0.0006	0.0025	-23.8636	27.1650	-1.7142	-0.0705	0.1312	0.7731	-0.6166
4.56	-0.5319	-9.2860	-2.1667	0.0081	-0.0011	0.0022	-23.9149	27.0886	-1.7063	-0.0705	0.1312	0.7730	-0.6165
4.57	-0.5362	-9.2833	-2.1627	0.0068	-0.0035	0.0015	-23.6720	27.2569	-1.9065	-0.0706	0.1312	0.7731	-0.6166
4.58	-0.5281	-9.2868	-2.1659	0.0081	0.0081	-0.0002	-23.7783	27.1535	-1.8856	-0.0706	0.1312	0.7731	-0.6166
4.59	-0.5281	-9.2929	-2.1762	0.0076	0.0112	0.0101	-23.8266	27.1178	-1.6100	-0.0706	0.1312	0.7731	-0.6166
4.6	-0.5248	-9.2859	-2.1735	0.0091	0.0058	0.0045	-23.7951	27.1275	-1.7347	-0.0707	0.1312	0.7730	-0.6165
4.61	-0.5291	-9.2843	-2.1773	0.0078	0.0020	0.0007	-23.9250	27.1297	-1.8936	-0.0707	0.1313	0.7731	-0.6166
4.62	-0.5245	-9.2893	-2.1820	0.0080	-0.0003	0.0022	-23.8063	27.1105	-1.7765	-0.0707	0.1312	0.7731	-0.6166
4.63	-0.5202	-9.2825	-2.1806	0.0077	0.0034	0.0039	-23.8716	27.1995	-1.7408	-0.0707	0.1312	0.7730	-0.6165
4.64	-0.5223	-9.2868	-2.1845	0.0085	0.0031	0.0051	-23.9075	27.2106	-1.6979	-0.0707	0.1313	0.7731	-0.6166
4.65	-0.5210	-9.2895	-2.1947	0.0116	0.0014	0.0105	-23.8687	27.2030	-1.7183	-0.0707	0.1313	0.7730	-0.6166
4.66	-0.5198	-9.2865	-2.1926	0.0084	0.0000	0.0007	-23.7181	27.2047	-1.7168	-0.0708	0.1313	0.7731	-0.6166
4.67	-0.5193	-9.2797	-2.1971	0.0062	0.0047	0.0042	-23.8016	27.2763	-1.6282	-0.0708	0.1313	0.7730	-0.6165
4.68	-0.5215	-9.2848	-2.2019	0.0058	0.0030	0.0051	-23.9287	27.4123	-1.5120	-0.0708	0.1313	0.7731	-0.6166
4.69	-0.5242	-9.2893	-2.2000	0.0080	-0.0035	0.0008	-24.0023	27.2810	-1.5856	-0.0708	0.1313	0.7730	-0.6166
4.7	-0.5167	-9.2828	-2.2037	0.0094	0.0031	0.0064	-23.8761	27.0761	-1.7160	-0.0708	0.1313	0.7730	-0.6166
4.71	-0.5176	-9.2859	-2.2091	0.0061	0.0039	0.0091	-23.9059	27.3362	-1.7070	-0.0708	0.1313	0.7731	-0.6166
4.72	-0.5157	-9.2928	-2.2147	0.0071	-0.0068	0.0055	-23.8521	27.1124	-1.7376	-0.0708	0.1313	0.7730	-0.6166
4.73	-0.5094	-9.2870	-2.2114	0.0092	0.0005	0.0067	-23.7653	27.1883	-1.8456	-0.0708	0.1313	0.7731	-0.6166
4.74	-0.5019	-9.2862	-2.2111	0.0099	0.0038	0.0070	-23.5523	27.2161	-1.6864	-0.0708	0.1313	0.7730	-0.6165
4.75	-0.4983	-9.2876	-2.2121	0.0097	0.0014	0.0042	-23.5025	27.1245	-1.6216	-0.0708	0.1314	0.7731	-0.6166
4.76	-0.5038	-9.2886	-2.2142	0.0084	0.0057	0.0035	-23.7234	27.2566	-1.5822	-0.0708	0.1314	0.7730	-0.6166
4.77	-0.5064	-9.2819	-2.2108	0.0061	0.0007	0.0032	-23.5106	27.1708	-1.5033	-0.0709	0.1314	0.7730	-0.6166
4.78	-0.5086	-9.2871	-2.2154	0.0129	0.0039	0.0062	-23.3353	27.3117	-1.5865	-0.0709	0.1314	0.7730	-0.6166
4.79	-0.5095	-9.2919	-2.2158	0.0124	-0.0037	0.0062	-23.5993	27.2534	-1.3585	-0.0709	0.1314	0.7730	-0.6166
4.8	-0.5113	-9.2843	-2.2133	0.0085	0.0031	0.0078	-23.8443	27.8008	-1.5070	-0.0709	0.1314	0.7730	-0.6166
4.81	-0.5185	-9.2826	-2.1988	0.0171	0.0019	0.0116	-23.8284	27.6587	-1.6570	-0.0709	0.1314	0.7729	-0.6166
4.82	-0.5194	-9.2928	-2.1983	0.0143	-0.0053	0.0072	-23.8721	27.0118	-1.6363	-0.0709	0.1315	0.7730	-0.6167
4.83	-0.5198	-9.2913	-2.1880	0.0171	0.0021	0.0082	-23.9822	27.1113	-1.6037	-0.0709	0.1315	0.7729	-0.6167
4.84	-0.5209	-9.2854	-2.1856	0.0159	0.0087	0.0085	-23.8673	26.9691	-1.4991	-0.0709	0.1315	0.7729	-0.6168
4.85	-0.5191	-9.2843	-2.1749	0.0141	0.0005	0.0123	-23.8738	27.1293	-1.6758	-0.0709	0.1315	0.7728	-0.6167
4.86	-0.5174	-9.2875	-2.1751	0.0061	-0.0013	0.0103	-23.7164	27.3345	-1.7207	-0.0709	0.1316	0.7729	-0.6168
4.87	-0.5167	-9.2858	-2.1763	0.0216	-0.0028	0.0078	-23.9177	27.1596	-1.5735	-0.0709	0.1316	0.7728	-0.6168
4.88	-0.5150	-9.2848	-2.1701	0.0108	0.0036	0.0050	-23.8871	27.0677	-1.5099	-0.0709	0.1316	0.7727	-0.6168
4.89	-0.5138	-9.2874	-2.1714	0.0079	0.0049	0.0072	-23.8541	27.2307	-1.7051	-0.0709	0.1316	0.7729	-0.6169
4.9	-0.5125	-9.2871	-2.1702	0.0209	0.0026	0.0149	-23.9643	27.1471	-1.6742	-0.0709	0.1316	0.7727	-0.6168
4.91	-0.5113	-9.2879	-2.1762	0.0133	-0.0001	0.0104	-23.7012	27.0478	-1.6777	-0.0709	0.1317	0.7728	-0.6169
4.92	-0.5117	-9.2847	-2.1795	0.0196	0.0035	0.0097	-23.6811	27.0112	-1.7303	-0.0709	0.1317	0.7726	-0.6169
4.93	-0.5145	-9.2931	-2.1906	0.0169	0.0079	0.0072	-23.8197	27.0501	-1.6129	-0.0709	0.1317	0.7727	-0.6170
4.94	-0.5235	-9.2849	-2.1781	0.0162	0.0011	0.0117	-23.7110	26.9690	-1.7791	-0.0709	0.1317	0.7726	-0.6170
4.95	-0.5302	-9.2833	-2.1818	0.0220	0.0026	0.0099	-23.6977	26.9441	-1.6126	-0.0709	0.1318	0.7726	-0.6170
4.96	-0.5273	-9.2860	-2.1979	0.0166	-0.0015	0.0067	-23.6882	26.9346	-1.5498	-0.0709	0.1318	0.7726	-0.6171
4.97	-0.5202	-9.2821	-2.2013	0.0149	0.0054	0.0068	-23.7410	26.8566	-1.5143	-0.0709	0.1318	0.7725	-0.6171
4.98	-0.5167	-9.2776	-2.1945	0.0135	0.0031	0.0149	-23.7807	27.0176	-1.6193	-0.0709	0.1318	0.7725	-0.6171
4.99	-0.5047	-9.2900	-2.2026	0.0105	-0.0049	0.0156	-23.8585	27.0992	-1.6351	-0.0709	0.1319	0.7724	-0.6171
5	-0.5053	-9.2869	-2.1946	0.0110	-0.0012	0.0090	-23.7542	27.1143	-1.5422	-0.0709	0.1319	0.7725	-0.6172
5.01	-0.5028	-9.2825	-2.1843	0.0121	-0.0003	0.0110	-23.8323	27.2501	-1.6793	-0.0709	0.1319	0.7724	-0.6172
5.02	-0.5043	-9.2924	-2.1907	0.0051	0.0030	0.0053	-23.8477	27.2770	-1.5654	-0.0709	0.1319	0.7725	-0.6172
5.03	-0.5113	-9.2848	-2.1855	0.0158	0.0028	0.0070	-24.0449	27.2745	-1.5335	-0.0709	0.1319	0.7724	-0.6172
5.04	-0.5196	-9.2876	-2.1867	0.0169	0.0014	0.0055	-23.8794	27.0213	-1.5901	-0.0709	0.1319	0.7724	-0.6172
5.05	-0.5230	-9.2840	-2.1834	0.0063	0.0019	0.0099	-23.9001	27.0692	-1.6403	-0.0709	0.1320	0.7724	-0.6172
5.06	-0.5228	-9.2852	-2.1859	0.0158	-0.0024	0.0085	-23.9606	27.1760	-1.6609	-0.0709	0.1320	0.7723	-0.6172
5.07	-0.5196	-9.2892	-2.1909	0.0147	0.0007	0.0107	-23.9278	27.3166	-1.5974	-0.0709	0.1320	0.7724	-0.6173
5.08	-0.5180	-9.2887	-2.1828	0.0076	-0.0066	0.0064	-23.9636	27.1811	-1.4497	-0.0709	0.1320	0.7723	-0.6173
5.09	-0.5181	-9.2956	-2.1875	0.0108	-0.0058	0.0127	-23.8970	27.0748	-1.6525	-0.0708	0.1320	0.7724	-0.6173
5.1	-0.5131	-9.2870	-2.1954	0.0155	-0.0019	0.0072	-23.6803	27.1378	-1.7176	-0.0708	0.1320	0.7723	-0.6173
5.11	-0.5101	-9.2818	-2.1866	0.0100	-0.0011	0.0080	-23.7027	26.8609	-1.7148	-0.0708	0.1320	0.7723	-0.6173
5.12	-0.5057	-9.2839	-2.1845	0.0110	-0.0016	0.0117	-23.6948	26.8999	-1.5577	-0.0708	0.1320	0.7723	-0.6173
5.13	-0.5061	-9.2920	-2.1901	0.0099	-0.0006	0.0100	-23.7586	27.0329	-1.7727	-0.0708	0.1321	0.7722	-0.6173
5.14	-0.5111	-9.2892	-2.1889	0.0151	-0.0011	0.0027	-23.8061	27.0180	-1.6544	-0.0708	0.1321	0.7723	-0.6174
5.15	-0.5208	-9.2859	-2.1877	0.0164	0.0000	0.0050	-23.8503	27.0485	-1.5756	-0.0708	0.1320	0.7722	-0.6174
5.16	-0.5271	-9.2873	-2.1878	0.0121	-0.0010	0.0073	-23.7401	27.1635	-1.5936	-0.0708	0.1321	0.7723	-0.6175
5.17	-0.5280	-9.2814	-2.2038	0.0197	0.0033	0.0058	-23.9022	26.9126	-1.5366	-0.0708	0.1321	0.7721	-0.6174
5.18	-0.5284	-9.2829	-2.1986	0.0145	0.0001	0.0063	-23.6110	26.9727	-1.5141	-0.0708	0.1321	0.7722	-0.6175
5.19	-0.5209	-9.2898	-2.2065	0.0074	0.0018	0.0014	-23.5472	27.0710	-1.4663	-0.0708	0.1321	0.7722	-0.6175
5.2	-0.5098	-9.2917	-2.2047	0.0159	-0.0001	0.0000	-23.9888	27.2124	-1.5945	-0.0709	0.1320	0.7721	-0.6175
5.21	-0.4995	-9.2894	-2.2062	0.0077	0.0063	0.0026	-23.8127	27.0676	-1.5171	-0.0709	0.1321	0.7722	-0.6175
5.22	-0.4906	-9.2915	-2.2015	0.0081	-0.0013	0.0093	-23.8222	27.0478	-1.7164	-0.0709	0.1321	0.7721	-0.6175
5.23	-0.4978	-9.2965	-2.2039	0.0069	-0.0012	0.0041	-24.0038	27.1087	-1.6907	-0.0709	0.1321	0.7722	-0.6175
5.24	-0.5020	-9.2842	-2.1999	0.0066	0.0028	0.0103	-23.8248	27.1626	-1.5252	-0.0709	0.1321	0.7721	-0.6175
5.25	-0.5031	-9.2821	-2.1973	0.0137	0.0012	0.0101	-24.0971	27.4996	-1.5925	-0.0709	0.1321	0.7722	-0.6175
5.26	-0.5095	-9.2914	-2.2031	0.0155	0.0051	0.0029	-23.6372	27.3850	-1.4950	-0.0709	0.1321	0.7721	-0.6175
5.27	-0.5118	-9.2906	-2.2048	0.0103	0.0026	0.0096	-23.4689	27.3135	-1.4505	-0.0709	0.1322	0.7721	-0.6176
5.28	-0.5135	-9.2806	-2.1957	0.0089	-0.0054	0.0089	-23.3108	27.0596	-1.4693	-0.0709	0.1322	0.7721	-0.6175
5.29	-0.5161	-9.2915	-2.1957	0.0018	-0.0040	0.0035	-23.6620	27.2276	-1.4519	-0.0709	0.1322	0.7721	-0.6175
5.3	-0.5138	-9.2930	-2.1953	0.0052	-0.0067	0.0021	-23.6804	27.9715	-1.4742	-0.0709	0.1321	0.7721	-0.6175
5.31	-0.5110	-9.2775	-2.1806	0.0113	-0.0049	0.0107	-23.6078	27.4563	-1.5028	-0.0708	0.1321	0.7721	-0.6175
5.32	-0.5097	-9.2882	-2.1888	0.0072	-0.0037	0.0032	-23.6856	26.8494	-1.6517	-0.0708	0.1321	0.7722	-0.6176
5.33	-0.5066	-9.2931	-2.1877	0.0086	-0.0012	0.0073	-23.9099	27.2104	-1.5866	-0.0708	0.1321	0.7721	-0.6175
5.34	-0.5102	-9.2862	-2.1808	0.0075	-0.0014	0.0061	-23.8336	26.9763	-1.7213	-0.0708	0.1321	0.7722	-0.6176
5.35	-0.5086	-9.2808	-2.1656	0.0128	-0.0021	0.0036	-23.8027	27.0384	-1.6025	-0.0708	0.1321	0.7721	-0.6175
5.36	-0.5157	-9.2915	-2.1769	0.0107	-0.0037	0.0040	-23.9373	27.0907	-1.4177	-0.0708	0.1321	0.7721	-0.6176
5.37	-0.5235	-9.2854	-2.1727	0.0090	0.0001	0.0057	-24.0332	27.1268	-1.6391	-0.0708	0.1321	0.7721	-0.6176
5.38	-0.5228	-9.2801	-2.1717	0.0096	0.0015	-0.0009	-23.8157	27.2900	-1.6191	-0.0708	0.1321	0.7720	-0.6175
5.39	-0.5267	-9.2905	-2.1750	0.0025	0.0091	0.0050	-23.7390	27.0610	-1.6317	-0.0709	0.1321	0.7722	-0.6176
5.4	-0.5255	-9.2916	-2.1740	0.0074	0.0070	0.0056	-23.8374	27.2677	-1.6017	-0.0709	0.1321	0.7721	-0.6175
5.41	-0.5197	-9.2823	-2.1697	0.0076	0.0000	0.0049	-23.8362	27.2041	-1.4736	-0.0709	0.1322	0.7722	-0.6176
5.42	-0.5249	-9.2859	-2.1785	0.0145	0.0060	0.0028	-23.7194	27.1669	-1.7489	-0.0709	0.1321	0.7720	-0.6175
5.43	-0.5247	-9.2899	-2.1820	0.0116	0.0018	0.0039	-23.7710	27.1980	-1.6613	-0.0710	0.1322	0.7721	-0.6176
5.44	-0.5259	-9.2830	-2.1831	0.0090	0.0043	0.0006	-23.9628	27.1554	-1.6589	-0.0710	0.1322	0.7721	-0.6176
5.45	-0.5286	-9.2814	-2.1846	0.0092	0.0109	0.0044	-23.8046	27.2505	-1.7517	-0.0710	0.1322	0.7721	-0.6176
5.46	-0.5239	-9.2892	-2.1922	0.0064	0.0050	0.0101	-23.8297	27.3613	-1.5947	-0.0710	0.1322	0.7721	-0.6176
5.47	-0.5314	-9.2890	-2.1937	0.0150	0.0010	-0.0008	-23.8023	27.2105	-1.7817	-0.0711	0.1322	0.7720	-0.6176
5.48	-0.5272	-9.2799	-2.1904	0.0056	0.0045	0.0055	-23.8441	27.1444	-1.6052	-0.0711	0.1322	0.7721	-0.6176
5.49	-0.5260	-9.2824	-2.2001	0.0081	0.0033	-0.0005	-23.7310	26.9205	-1.7232	-0.0711	0.1322	0.7720	-0.6175
5.5	-0.5258	-9.2895	-2.2002	0.0119	-0.0006	0.0096	-23.7426	26.8334	-1.6679	-0.0711	0.1322	0.7721	-0.6176
5.51	-0.5188	-9.2826	-2.2012	0.0044	0.0037	0.0032	-23.8833	27.0319	-1.6306	-0.0711	0.1322	0.7720	-0.6176
5.52	-0.5174	-9.2844	-2.2013	0.0007	0.0020	0.0056	-23.9222	27.1624	-1.5515	-0.0711	0.1323	0.7721	-0.6175
5.53	-0.5121	-9.2897	-2.2125	0.0035	0.0043	0.0076	-23.8031	26.8532	-1.5348	-0.0711	0.1323	0.7721	-0.6175
5.54	-0.5070	-9.2872	-2.2097	0.0048	-0.0048	0.0016	-23.7272	27.1611	-1.5004	-0.0711	0.1323	0.7721	-0.6175
5.55	-0.5019	-9.2863	-2.2056	0.0056	-0.0089	0.0041	-23.9549	27.2458	-1.6510	-0.0711	0.1322	0.7721	-0.6175
5.56	-0.5021	-9.2872	-2.2084	0.0042	-0.0041	0.0041	-23.9958	27.1368	-1.7603	-0.0711	0.1322	0.7721	-0.6174
5.57	-0.4990	-9.2913	-2.2048	0.0063	0.0030	0.0010	-23.9596	27.3895	-1.4876	-0.0711	0.1322	0.7722	-0.6175
5.58	-0.4971	-9.2809	-2.2005	0.0083	0.0008	0.0034	-23.8898	27.0501	-1.5916	-0.0711	0.1322	0.7721	-0.6175
5.59	-0.5014	-9.2923	-2.1999	0.0127	0.0084	0.0018	-23.9041	27.1893	-1.6468	-0.0712	0.1322	0.7722	-0.6175
5.6	-0.5036	-9.2937	-2.2053	0.0160	0.0042	0.0008	-23.9111	27.1614	-1.5208	-0.0712	0.1322	0.7721	-0.6175
5.61	-0.5044	-9.2855	-2.1940	0.0099	0.0053	0.0035	-23.8832	27.2116	-1.4379	-0.0713	0.1322	0.7721	-0.6175
5.62	-0.5097	-9.2840	-2.1973	0.0052	0.0065	0.0022	-23.9466	27.0940	-1.4472	-0.0713	0.1323	0.7721	-0.6175
5.63	-0.5141	-9.2914	-2.1965	0.0080	0.0063	0.0008	-23.7384	27.1822	-1.5076	-0.0713	0.1323	0.7721	-0.6174
5.64	-0.5134	-9.2864	-2.1995	0.0123	-0.0008	0.0026	-23.7572	27.1767	-1.6565	-0.0714	0.1323	0.7722	-0.6175
5.65	-0.5216	-9.2784	-2.1817	0.0097	-0.0003	0.0107	-23.9529	27.0936	-1.7204	-0.0713	0.1323	0.7721	-0.6175
5.66	-0.5220	-9.2882	-2.1867	0.0109	0.0042	0.0108	-23.8334	27.2384	-1.7170	-0.0713	0.1323	0.7721	-0.6175
5.67	-0.5263	-9.2849	-2.1787	0.0078	0.0031	0.0026	-23.7291	27.0564	-1.6966	-0.0713	0.1323	0.7720	-0.6175
5.68	-0.5280	-9.2835	-2.1767	0.0028	0.0032	0.0051	-23.7504	27.1366	-1.6146	-0.0714	0.1323	0.7721	-0.6175
5.69	-0.5247	-9.2853	-2.1774	0.0064	0.0033	0.0063	-23.8678	27.0167	-1.6064	-0.0714	0.1323	0.7721	-0.6175
5.7	-0.5264	-9.2953	-2.1840	0.0085	0.0046	0.0020	-23.7698	27.0749	-1.7009	-0.0714	0.1323	0.7721	-0.6175
5.71	-0.5249	-9.2783	-2.1750	0.0079	-0.0013	0.0097	-23.9745	27.1928	-1.7213	-0.0714	0.1324	0.7721	-0.6175
5.72	-0.5222	-9.2810	-2.1732	0.0009	-0.0014	0.0032	-23.7873	27.0670	-1.4438	-0.0714	0.1324	0.7721	-0.6174
5.73	-0.5188	-9.2908	-2.1865	0.0069	-0.0042	0.0043	-23.8157	27.3122	-1.4656	-0.0714	0.1323	0.7721	-0.6175
5.74	-0.5204	-9.2909	-2.1877	0.0076	0.0025	0.0033	-23.7318	27.0766	-1.4216	-0.0714	0.1323	0.7720	-0.6174
5.75	-0.5232	-9.2844	-2.1912	0.0038	0.0036	0.0071	-23.8077	27.1143	-1.4764	-0.0714	0.1324	0.7722	-0.6174
5.76	-0.5267	-9.2885	-2.1981	0.0040	0.0059	0.0031	-23.8521	27.2082	-1.5357	-0.0714	0.1324	0.7721	-0.6174
5.77	-0.5270	-9.2876	-2.1991	0.0019	0.0039	0.0012	-23.4741	27.1777	-1.2873	-0.0715	0.1324	0.7722	-0.6174
5.78	-0.5290	-9.2776	-2.2014	0.0046	-0.0008	0.0007	-23.4121	27.0738	-1.1687	-0.0715	0.1324	0.7722	-0.6173
5.79	-0.5206	-9.2831	-2.2080	0.0041	0.0043	0.0043	-23.3242	27.2763	-1.4589	-0.0715	0.1324	0.7722	-0.6173
5.8	-0.5109	-9.2906	-2.2154	0.0134	0.0018	0.0092	-23.9132	27.9207	-1.5517	-0.0715	0.1324	0.7722	-0.6174
5.81	-0.5087	-9.2853	-2.2139	0.0041	0.0013	0.0044	-23.8337	27.7317	-1.6138	-0.0715	0.1324	0.7721	-0.6173
5.82	-0.5001	-9.2841	-2.2022	0.0088	0.0070	0.0069	-23.9015	27.2135	-1.6066	-0.0715	0.1324	0.7722	-0.6174
5.83	-0.4996	-9.2921	-2.2079	0.0181	0.0032	0.0030	-24.0290	27.2530	-1.5186	-0.0715	0.1324	0.7721	-0.6174
5.84	-0.5077	-9.2885	-2.1998	0.0093	-0.0015	0.0083	-23.6584	26.9958	-1.7200	-0.0715	0.1325	0.7722	-0.6174
5.85	-0.5126	-9.2798	-2.1916	0.0126	-0.0002	0.0103	-23.7387	27.0738	-1.6486	-0.0715	0.1325	0.7721	-0.6174
5.86	-0.5218	-9.2817	-2.1801	0.0120	-0.0038	0.0058	-23.5336	26.8894	-1.8528	-0.0715	0.1325	0.7721	-0.6174
5.87	-0.5280	-9.2952	-2.1918	0.0137	-0.0016	0.0068	-23.6124	27.0868	-1.8002	-0.0715	0.1325	0.7721	-0.6174
5.88	-0.5267	-9.2822	-2.1790	0.0140	-0.0021	0.0079	-23.8158	27.1373	-1.8006	-0.0715	0.1325	0.7720	-0.6174
5.89	-0.5236	-9.2790	-2.1735	0.0109	-0.0013	0.0051	-23.6656	27.0171	-1.6428	-0.0715	0.1325	0.7721	-0.6175
5.9	-0.5244	-9.2870	-2.1811	0.0128	-0.0028	0.0090	-23.8718	27.3069	-1.6563	-0.0715	0.1325	0.7720	-0.6175
5.91	-0.5247	-9.2953	-2.1812	0.0134	-0.0038	0.0121	-23.7967	26.9829	-1.6441	-0.0715	0.1325	0.7721	-0.6175
5.92	-0.5209	-9.2821	-2.1717	0.0129	-0.0028	0.0127	-23.7706	26.9181	-1.5737	-0.0714	0.1325	0.7719	-0.6175
5.93	-0.5194	-9.2900	-2.1782	0.0100	-0.0025	0.0054	-23.8735	27.2000	-1.7259	-0.0714	0.1325	0.7720	-0.6176
5.94	-0.5114	-9.2943	-2.1873	0.0128	0.0030	0.0031	-23.8566	27.3277	-1.5243	-0.0714	0.1325	0.7720	-0.6176
5.95	-0.5134	-9.2829	-2.1803	0.0093	0.0069	0.0056	-23.8765	27.4634	-1.5215	-0.0715	0.1325	0.7720	-0.6175
5.96	-0.5201	-9.2848	-2.1869	0.0086	-0.0011	0.0070	-23.7792	27.3401	-1.6272	-0.0715	0.1325	0.7720	-0.6176
5.97	-0.5265	-9.2958	-2.1918	0.0086	-0.0008	0.0035	-23.8835	27.2638	-1.7354	-0.0715	0.1325	0.7720	-0.6176
5.98	-0.5317	-9.2859	-2.1887	0.0064	0.0022	0.0063	-23.8330	27.0818	-1.6403	-0.0715	0.1326	0.7720	-0.6176
5.99	-0.5342	-9.2728	-2.1919	0.0079	0.0010	0.0032	-23.9513	27.2933	-1.5019	-0.0715	0.1325	0.7719	-0.6175
6	-0.5326	-9.2952	-2.2121	0.0098	0.0033	0.0081	-23.8497	27.2519	-1.6562	-0.0715	0.1326	0.7720	-0.6176
6.01	-0.5276	-9.2877	-2.2129	0.0049	-0.0063	0.0060	-23.6999	27.2120	-1.7040	-0.0715	0.1326	0.7720	-0.6175
6.02	-0.5151	-9.2816	-2.2053	0.0091	-0.0059	0.0062	-23.7571	27.3337	-1.7059	-0.0714	0.1326	0.7720	-0.6176
6.03	-0.5092	-9.2896	-2.2148	0.0090	-0.0088	0.0139	-23.8057	27.0948	-1.5923	-0.0714	0.1326	0.7720	-0.6175
6.04	-0.4972	-9.2945	-2.2142	0.0091	-0.0054	0.0186	-23.5213	26.9959	-1.7388	-0.0713	0.1326	0.7720	-0.6176
6.05	-0.4966	-9.2874	-2.2049	0.0125	-0.0010	0.0124	-23.5889	26.9627	-1.5616	-0.0713	0.1326	0.7720	-0.6176
6.06	-0.5006	-9.2845	-2.2071	0.0132	-0.0022	0.0071	-23.6947	27.2236	-1.4810	-0.0713	0.1326	0.7719	-0.6176
6.07	-0.5012	-9.2966	-2.2080	0.0215	-0.0014	0.0096	-23.7270	27.1864	-1.6601	-0.0713	0.1326	0.7719	-0.6177
6.08	-0.5066	-9.2821	-2.2019	0.0122	-0.0018	0.0043	-23.9162	26.9305	-1.6937	-0.0713	0.1326	0.7719	-0.6177
6.09	-0.5096	-9.2779	-2.1974	0.0124	-0.0019	0.0105	-23.7753	27.0241	-1.7086	-0.0713	0.1327	0.7719	-0.6177
6.1	-0.5107	-9.2943	-2.2022	0.0096	-0.0015	0.0041	-23.7700	27.0361	-1.5855	-0.0713	0.1326	0.7718	-0.6177
6.11	-0.5076	-9.2915	-2.1921	0.0147	-0.0046	0.0059	-23.7965	27.0311	-1.5126	-0.0713	0.1326	0.7718	-0.6177
6.12	-0.5087	-9.2816	-2.1873	0.0169	-0.0045	0.0065	-23.9019	27.0393	-1.6855	-0.0712	0.1326	0.7718	-0.6178
6.13	-0.5043	-9.2876	-2.1913	0.0134	0.0025	0.0056	-23.7489	27.3118	-1.7157	-0.0712	0.1326	0.7718	-0.6178
6.14	-0.5099	-9.2920	-2.1895	0.0146	0.0024	0.0058	-23.8998	27.2394	-1.6837	-0.0713	0.1326	0.7718	-0.6179
6.15	-0.5071	-9.2807	-2.1785	0.0158	-0.0019	0.0042	-23.9333	27.2410	-1.5941	-0.0713	0.1326	0.7717	-0.6178
6.16	-0.5073	-9.2802	-2.1738	0.0105	0.0031	0.0041	-23.9769	27.4425	-1.6314	-0.0713	0.1326	0.7718	-0.6179
6.17	-0.5107	-9.2963	-2.1861	0.0061	-0.0004	0.0057	-23.8156	27.1636	-1.6049	-0.0713	0.1326	0.7717	-0.6178
6.18	-0.5137	-9.2866	-2.1801	0.0102	0.0012	0.0066	-23.9289	27.2177	-1.7155	-0.0713	0.1326	0.7718	-0.6179
6.19	-0.5200	-9.2827	-2.1799	0.0079	-0.0014	0.0029	-23.8603	27.3287	-1.5390	-0.0713	0.1326	0.7717	-0.6178
6.2	-0.5243	-9.2904	-2.1829	0.0091	-0.0008	0.0082	-24.0150	27.1349	-1.7681	-0.0713	0.1326	0.7717	-0.6178
6.21	-0.5284	-9.2894	-2.1813	0.0126	-0.0014	0.0104	-24.0040	27.0091	-1.3364	-0.0713	0.1327	0.7717	-0.6179
6.22	-0.5274	-9.2799	-2.1766	0.0132	-0.0060	0.0045	-23.5086	27.0514	-1.4362	-0.0713	0.1326	0.7717	-0.6179
6.23	-0.5262	-9.2878	-2.1820	0.0116	-0.0013	0.0018	-23.7011	27.0059	-1.8762	-0.0713	0.1326	0.7717	-0.6179
6.24	-0.5259	-9.2913	-2.1843	0.0127	-0.0033	0.0061	-23.7785	26.7591	-1.5561	-0.0712	0.1326	0.7716	-0.6179
6.25	-0.5233	-9.2862	-2.1893	0.0107	-0.0015	0.0100	-23.7525	26.9062	-1.5251	-0.0712	0.1326	0.7717	-0.6180
6.26	-0.5227	-9.2777	-2.1886	0.0164	-0.0020	0.0068	-23.5835	27.1145	-1.4789	-0.0712	0.1326	0.7717	-0.6180
6.27	-0.5223	-9.2895	-2.1961	0.0088	-0.0039	0.0107	-23.6218	27.1827	-1.3523	-0.0712	0.1326	0.7717	-0.6180
6.28	-0.5227	-9.2888	-2.1993	0.0048	-0.0096	0.0112	-23.2774	27.1264	-1.2481	-0.0711	0.1326	0.7716	-0.6179
6.29	-0.5205	-9.2785	-2.1859	-0.0006	0.0052	-0.0011	-23.6382	27.1555	-1.5351	-0.0712	0.1326	0.7717	-0.6179
6.3	-0.5250	-9.2877	-2.1958	0.0051	-0.0016	0.0029	-23.9941	27.6667	-1.7046	-0.0712	0.1326	0.7717	-0.6179
6.31	-0.5283	-9.2912	-2.1984	0.0011	0.0032	0.0028	-23.7704	27.6693	-1.5175	-0.0712	0.1326	0.7717	-0.6178
6.32	-0.5267	-9.2868	-2.1999	0.0028	0.0050	0.0062	-23.7463	26.9966	-1.5644	-0.0712	0.1327	0.7718	-0.6179
6.33	-0.5276	-9.2799	-2.1989	0.0093	0.0022	0.0075	-23.9493	27.2833	-1.4902	-0.0712	0.1327	0.7717	-0.6178
6.34	-0.5310	-9.2932	-2.2082	0.0028	0.0070	0.0010	-23.8079	27.0691	-1.4709	-0.0713	0.1327	0.7718	-0.6179
6.35	-0.5267	-9.2840	-2.2015	0.0061	0.0072	0.0023	-23.8031	27.1399	-1.7664	-0.0713	0.1327	0.7717	-0.6178
6.36	-0.5202	-9.2826	-2.2005	0.0076	-0.0007	0.0025	-23.8008	27.0429	-1.5422	-0.0713	0.1327	0.7718	-0.6178
6.37	-0.5124	-9.2858	-2.1988	0.0059	0.0036	0.0009	-23.8086	26.9117	-1.5879	-0.0713	0.1327	0.7718	-0.6178
6.38	-0.5075	-9.2906	-2.2005	0.0025	0.0020	0.0001	-23.7998	27.2401	-1.6375	-0.0714	0.1327	0.7718	-0.6177
6.39	-0.5045	-9.2809	-2.1926	-0.0021	-0.0021	0.0080	-23.8192	27.0527	-1.6323	-0.0713	0.1327	0.7719	-0.6178
6.4	-0.5031	-9.2883	-2.1942	0.0027	-0.0071	0.0110	-23.9029	27.1870	-1.6072	-0.0713	0.1327	0.7718	-0.6177
6.41	-0.5041	-9.2938	-2.1979	0.0009	-0.0003	0.0055	-23.6465	27.0941	-1.7098	-0.0713	0.1327	0.7719	-0.6177
6.42	-0.5058	-9.2833	-2.1918	0.0125	0.0003	0.0068	-23.7063	26.9053	-1.6187	-0.0713	0.1327	0.7718	-0.6176
6.43	-0.5107	-9.2873	-2.1946	0.0097	-0.0030	0.0043	-23.8653	27.1695	-1.5235	-0.0713	0.1327	0.7719	-0.6177
6.44	-0.5164	-9.2887	-2.1938	0.0053	-0.0029	0.0027	-23.7127	26.7264	-1.6901	-0.0713	0.1327	0.7719	-0.6177
6.45	-0.5204	-9.2841	-2.1913	0.0060	-0.0014	0.0050	-23.8051	26.9812	-1.7329	-0.0713	0.1327	0.7719	-0.6177
6.46	-0.5207	-9.2806	-2.1838	0.0067	-0.0014	0.0053	-23.7918	27.3187	-1.5015	-0.0713	0.1327	0.7719	-0.6177
6.47	-0.5199	-9.2912	-2.1863	0.0095	-0.0019	0.0096	-23.7333	27.1335	-1.5869	-0.0713	0.1327	0.7719	-0.6177
6.48	-0.5213	-9.2940	-2.1866	0.0106	-0.0012	0.0002	-23.6555	27.0589	-1.6181	-0.0713	0.1327	0.7719	-0.6177
6.49	-0.5183	-9.2823	-2.1807	0.0062	-0.0021	0.0022	-23.7091	26.9206	-1.6942	-0.0713	0.1327	0.7718	-0.6176
6.5	-0.5188	-9.2923	-2.1778	-0.0010	0.0004	0.0034	-23.9087	27.1378	-1.8301	-0.0713	0.1327	0.7719	-0.6177
6.51	-0.5179	-9.2921	-2.1812	0.0100	0.0011	0.0044	-23.7423	27.2416	-1.7825	-0.0713	0.1327	0.7719	-0.6176
6.52	-0.5130	-9.2815	-2.1725	0.0035	-0.0025	0.0025	-23.8996	27.2866	-1.5700	-0.0713	0.1327	0.7719	-0.6176
6.53	-0.5085	-9.2848	-2.1863	0.0062	-0.0026	0.0016	-23.8054	27.1865	-1.4334	-0.0713	0.1326	0.7719	-0.6176
6.54	-0.5084	-9.2851	-2.1817	0.0063	0.0007	0.0022	-23.7859	27.0525	-1.5926	-0.0713	0.1326	0.7719	-0.6176
6.55	-0.5065	-9.2924	-2.1905	0.0089	0.0024	0.0008	-23.8644	27.0434	-1.6514	-0.0713	0.1326	0.7720	-0.6176
6.56	-0.5040	-9.2856	-2.1934	0.0019	0.0064	0.0035	-23.8889	27.2069	-1.5420	-0.0713	0.1326	0.7719	-0.6175
6.57	-0.5075	-9.2871	-2.1942	-0.0030	0.0035	0.0019	-23.8977	27.1702	-1.5439	-0.0714	0.1326	0.7720	-0.6176
6.58	-0.5155	-9.2942	-2.2044	0.0053	0.0021	0.0034	-23.8451	27.2072	-1.5337	-0.0714	0.1326	0.7720	-0.6175
6.59	-0.5161	-9.2854	-2.2099	0.0009	-0.0063	0.0081	-23.7968	27.1193	-1.5886	-0.0714	0.1327	0.7721	-0.6175
6.6	-0.5160	-9.2823	-2.2100	0.0062	-0.0025	0.0067	-23.7358	27.0873	-1.7449	-0.0713	0.1326	0.7720	-0.6175
6.61	-0.5169	-9.2833	-2.2170	0.0047	-0.0033	0.0061	-23.6004	27.2362	-1.6809	-0.0713	0.1326	0.7720	-0.6175
6.62	-0.5107	-9.2839	-2.2230	0.0059	0.0007	0.0005	-23.7200	27.1257	-1.6050	-0.0713	0.1326	0.7721	-0.6175
6.63	-0.5082	-9.2830	-2.2139	0.0077	-0.0014	0.0014	-23.7046	27.0912	-1.6288	-0.0713	0.1326	0.7720	-0.6174
6.64	-0.5086	-9.2833	-2.2118	0.0045	-0.0015	0.0030	-23.8455	27.3037	-1.6343	-0.0713	0.1326	0.7721	-0.6175
6.65	-0.5158	-9.2849	-2.2054	0.0031	-0.0044	0.0009	-23.8747	27.2462	-1.4901	-0.0713	0.1326	0.7721	-0.6174
6.66	-0.5236	-9.2840	-2.1964	0.0028	0.0010	0.0047	-23.7668	26.8626	-1.6757	-0.0713	0.1326	0.7722	-0.6174
6.67	-0.5292	-9.2790	-2.1908	0.0084	-0.0030	0.0080	-23.8961	26.9261	-1.7411	-0.0713	0.1326	0.7721	-0.6174
6.68	-0.5289	-9.2914	-2.1897	0.0114	0.0036	0.0026	-23.8881	27.1476	-1.5683	-0.0713	0.1326	0.7721	-0.6174
6.69	-0.5368	-9.2865	-2.1843	0.0055	0.0029	0.0021	-23.8898	27.0838	-1.3793	-0.0714	0.1326	0.7721	-0.6174
6.7	-0.5333	-9.2830	-2.1844	0.0082	0.0037	0.0057	-23.8933	27.1199	-1.6487	-0.0714	0.1326	0.7721	-0.6174
6.71	-0.5278	-9.2867	-2.1754	0.0065	0.0010	-0.0004	-23.8735	27.0961	-1.5179	-0.0714	0.1326	0.7721	-0.6174
6.72	-0.5291	-9.2858	-2.1733	0.0076	0.0035	0.0058	-23.6714	27.1272	-1.5787	-0.0714	0.1326	0.7721	-0.6174
6.73	-0.5250	-9.2845	-2.1767	0.0003	0.0056	0.0016	-23.6077	27.0583	-1.6373	-0.0715	0.1326	0.7722	-0.6174
6.74	-0.5170	-9.2850	-2.1765	0.0066	-0.0027	0.0056	-23.8181	26.9798	-1.6176	-0.0714	0.1326	0.7721	-0.6173
6.75	-0.5134	-9.2828	-2.1747	-0.0017	0.0003	-0.0000	-23.8847	27.2728	-1.6256	-0.0715	0.1326	0.7722	-0.6173
6.76	-0.5120	-9.2811	-2.1770	0.0090	0.0067	0.0044	-23.7769	27.1982	-1.3372	-0.0715	0.1326	0.7722	-0.6173
6.77	-0.5135	-9.2875	-2.1723	0.0099	-0.0002	0.0057	-23.5658	27.0527	-1.4490	-0.0715	0.1326	0.7722	-0.6173
6.78	-0.5204	-9.2901	-2.1797	0.0112	-0.0020	0.0106	-23.1300	27.1413	-1.3631	-0.0715	0.1326	0.7721	-0.6173
6.79	-0.5248	-9.2857	-2.1786	0.0109	-0.0008	0.0115	-23.4554	27.2478	-1.4948	-0.0715	0.1327	0.7721	-0.6173
6.8	-0.5350	-9.2849	-2.1805	0.0036	-0.0077	0.0099	-23.6340	27.5400	-1.7837	-0.0714	0.1327	0.7722	-0.6173
6.81	-0.5296	-9.2902	-2.1959	0.0100	-0.0003	0.0019	-23.5034	27.5750	-1.7683	-0.0714	0.1326	0.7721	-0.6173
6.82	-0.5262	-9.2852	-2.1995	0.0049	-0.0020	0.0087	-23.6981	26.9609	-1.7855	-0.0714	0.1327	0.7722	-0.6173
6.83	-0.5198	-9.2846	-2.2032	0.0135	-0.0027	0.0116	-23.6742	27.0222	-1.8810	-0.0714	0.1327	0.7721	-0.6173
6.84	-0.5048	-9.2868	-2.2068	0.0130	-0.0026	0.0027	-23.6299	26.9420	-1.5915	-0.0714	0.1327	0.7722	-0.6174
6.85	-0.5002	-9.2880	-2.2108	0.0072	0.0014	0.0097	-23.6337	26.9342	-1.6131	-0.0714	0.1327	0.7721	-0.6173
6.86	-0.4913	-9.2847	-2.2014	0.0081	-0.0030	0.0120	-23.6651	27.0168	-1.5746	-0.0713	0.1327	0.7721	-0.6173
6.87	-0.4858	-9.2888	-2.2038	0.0092	0.0025	0.0070	-23.9307	26.9367	-1.6910	-0.0714	0.1327	0.7721	-0.6173
6.88	-0.4893	-9.2931	-2.2059	0.0045	0.0060	0.0034	-23.9971	26.8800	-1.6126	-0.0714	0.1327	0.7721	-0.6173
6.89	-0.4954	-9.2848	-2.2068	0.0043	0.0022	0.0119	-23.8336	27.2662	-1.6198	-0.0714	0.1328	0.7722	-0.6174
6.9	-0.4999	-9.2845	-2.2080	0.0036	0.0020	0.0076	-23.8581	27.3114	-1.4393	-0.0714	0.1328	0.7721	-0.6173
6.91	-0.5061	-9.2901	-2.2064	0.0047	-0.0024	0.0049	-24.0382	27.1594	-1.7638	-0.0714	0.1328	0.7722	-0.6173
6.92	-0.5107	-9.2851	-2.2059	0.0019	-0.0028	0.0093	-23.7430	27.0787	-1.7168	-0.0713	0.1328	0.7721	-0.6172
6.93	-0.5145	-9.2845	-2.2024	0.0058	0.0021	0.0091	-24.0617	27.2485	-1.4758	-0.0713	0.1328	0.7722	-0.6173
6.94	-0.5140	-9.2871	-2.2006	0.0078	-0.0016	0.0073	-23.8270	27.2932	-1.5333	-0.0713	0.1328	0.7722	-0.6172
6.95	-0.5144	-9.2836	-2.1934	0.0095	0.0018	0.0093	-23.8723	27.2270	-1.5813	-0.0713	0.1329	0.7722	-0.6172
6.96	-0.5087	-9.2871	-2.1983	0.0074	0.0004	0.0161	-23.8908	27.0818	-1.7268	-0.0713	0.1329	0.7722	-0.6173
6.97	-0.5088	-9.2862	-2.1987	0.0172	-0.0024	0.0097	-23.5245	27.0368	-1.6621	-0.0713	0.1329	0.7721	-0.6173
6.98	-0.5057	-9.2930	-2.1955	0.0104	-0.0028	0.0114	-23.6158	27.0022	-1.7249	-0.0713	0.1329	0.7722	-0.6173
6.99	-0.5101	-9.2830	-2.1868	0.0090	-0.0027	0.0102	-23.7115	26.8397	-1.8929	-0.0712	0.1329	0.7721	-0.6172
7	-0.5116	-9.2836	-2.1826	0.0093	-0.0045	0.0119	-23.8187	27.0008	-1.7143	-0.0712	0.1330	0.7722	-0.6173
7.01	-0.5167	-9.2854	-2.1830	0.0118	-0.0039	0.0020	-23.6449	26.8960	-1.5682	-0.0712	0.1329	0.7721	-0.6173
7.02	-0.5202	-9.2841	-2.1896	0.0131	-0.0031	0.0138	-23.8982	27.1278	-1.6308	-0.0712	0.1330	0.7721	-0.6174
7.03	-0.5197	-9.2830	-2.1840	0.0110	0.0008	0.0100	-23.7862	27.0065	-1.5063	-0.0711	0.1330	0.7721	-0.6173
7.04	-0.5281	-9.2803	-2.1799	0.0130	-0.0015	0.0103	-23.7289	26.9695	-1.6279	-0.0711	0.1330	0.7721	-0.6174
7.05	-0.5278	-9.2893	-2.1879	0.0146	-0.0059	0.0070	-23.6672	27.0557	-1.5838	-0.0711	0.1330	0.7721	-0.6174
7.06	-0.5271	-9.2864	-2.1840	0.0076	0.0025	0.0030	-23.6908	27.0887	-1.6317	-0.0711	0.1330	0.7720	-0.6173
7.07	-0.5225	-9.2829	-2.1830	0.0082	0.0016	0.0052	-23.9437	27.2344	-1.3781	-0.0711	0.1330	0.7721	-0.6174
7.08	-0.5235	-9.2863	-2.1907	0.0070	-0.0012	0.0094	-23.9713	27.1665	-1.5044	-0.0711	0.1330	0.7721	-0.6174
7.09	-0.5259	-9.2866	-2.1814	0.0072	0.0003	0.0057	-23.7517	27.2431	-1.5109	-0.0711	0.1330	0.7721	-0.6174
7.1	-0.5284	-9.2809	-2.1858	0.0111	-0.0028	0.0019	-24.0162	27.0687	-1.6332	-0.0711	0.1330	0.7720	-0.6174
7.11	-0.5279	-9.2949	-2.1921	0.0090	0.0010	0.0085	-23.9885	27.2818	-1.4605	-0.0711	0.1330	0.7721	-0.6174
7.12	-0.5286	-9.2883	-2.1968	0.0030	-0.0034	0.0088	-23.9108	27.1833	-1.4946	-0.0711	0.1330	0.7721	-0.6174
7.13	-0.5257	-9.2748	-2.1883	0.0063	-0.0002	0.0061	-23.9708	27.0767	-1.8152	-0.0711	0.1330	0.7720	-0.6173
7.14	-0.5187	-9.2918	-2.1863	0.0097	-0.0074	0.0047	-23.9788	27.1478	-1.7648	-0.0711	0.1330	0.7721	-0.6174
7.15	-0.5206	-9.2941	-2.1943	0.0115	-0.0054	0.0057	-23.8815	27.0920	-1.5305	-0.0711	0.1330	0.7721	-0.6174
7.16	-0.5121	-9.2771	-2.1883	0.0078	-0.0042	0.0088	-23.6202	27.1580	-1.7367	-0.0710	0.1330	0.7721	-0.6174
7.17	-0.5072	-9.2913	-2.1935	0.0109	-0.0001	0.0050	-23.9513	27.0056	-1.4833	-0.0710	0.1330	0.7720	-0.6174
7.18	-0.5084	-9.2902	-2.1919	0.0066	0.0001	0.0047	-23.6210	26.9699	-1.4546	-0.0710	0.1330	0.7721	-0.6174
7.19	-0.5049	-9.2873	-2.1923	0.0099	-0.0020	0.0056	-23.7410	27.0598	-1.6512	-0.0710	0.1330	0.7721	-0.6174
7.2	-0.5007	-9.2839	-2.1839	0.0072	-0.0013	0.0018	-23.8428	27.0240	-1.5850	-0.0710	0.1330	0.7721	-0.6174
7.21	-0.5083	-9.2896	-2.1942	0.0025	-0.0029	0.0049	-23.6842	27.0395	-1.6047	-0.0710	0.1330	0.7721	-0.6174
7.22	-0.5101	-9.2898	-2.1979	0.0095	-0.0017	0.0074	-23.7532	27.0436	-1.6300	-0.0710	0.1330	0.7721	-0.6174
7.23	-0.5161	-9.2806	-2.1845	0.0083	-0.0042	0.0117	-23.8398	27.0090	-1.7263	-0.0710	0.1330	0.7721	-0.6174
7.24	-0.5157	-9.2891	-2.1923	0.0056	-0.0070	0.0094	-23.6888	27.1334	-1.6630	-0.0709	0.1330	0.7720	-0.6173
7.25	-0.5191	-9.2888	-2.2016	0.0099	-0.0013	0.0049	-23.8574	27.1914	-1.7331	-0.0709	0.1330	0.7721	-0.6174
7.26	-0.5189	-9.2775	-2.1919	0.0096	0.0043	0.0042	-23.8533	27.0994	-1.6125	-0.0710	0.1330	0.7721	-0.6174
7.27	-0.5173	-9.2794	-2.1908	0.0123	0.0016	0.0095	-23.7610	27.1312	-1.4022	-0.0710	0.1330	0.7721	-0.6174
7.28	-0.5175	-9.2927	-2.1952	0.0089	0.0007	0.0074	-23.4733	26.9389	-1.4630	-0.0710	0.1330	0.7720	-0.6174
7.29	-0.5192	-9.2884	-2.1863	0.0027	0.0034	0.0062	-23.7327	27.0899	-1.5357	-0.0710	0.1331	0.7721	-0.6174
7.3	-0.5103	-9.2796	-2.1863	0.0073	-0.0016	0.0054	-23.9096	27.7050	-1.4330	-0.0710	0.1331	0.7721	-0.6174
7.31	-0.5142	-9.2885	-2.1884	0.0022	0.0005	0.0039	-23.7589	27.7720	-1.6546	-0.0710	0.1330	0.7720	-0.6173
7.32	-0.5091	-9.2955	-2.1955	0.0079	-0.0009	0.0116	-23.7132	26.8234	-1.5214	-0.0710	0.1331	0.7721	-0.6174
7.33	-0.5067	-9.2815	-2.1816	0.0081	0.0103	0.0055	-23.8801	27.2712	-1.2889	-0.0710	0.1331	0.7721	-0.6173
7.34	-0.5045	-9.2891	-2.1835	0.0083	0.0045	0.0130	-23.8279	26.9744	-1.5514	-0.0710	0.1332	0.7722	-0.6174
7.35	-0.5029	-9.2926	-2.1857	0.0015	-0.0019	-0.0006	-23.7846	27.1352	-1.5333	-0.0710	0.1331	0.7721	-0.6173
7.36	-0.5017	-9.2863	-2.1831	0.0075	-0.0023	0.0086	-23.5937	27.0152	-1.5828	-0.0710	0.1331	0.7721	-0.6173
7.37	-0.5058	-9.2848	-2.1871	0.0077	0.0013	0.0068	-23.7016	26.9490	-1.6315	-0.0710	0.1332	0.7721	-0.6173
7.38	-0.5133	-9.2914	-2.1942	0.0049	0.0031	0.0062	-23.7192	27.0177	-1.7051	-0.0710	0.1332	0.7721	-0.6172
7.39	-0.5182	-9.2917	-2.2026	0.0081	0.0120	0.0079	-23.8042	27.1128	-1.8146	-0.0710	0.1332	0.7722	-0.6173
7.4	-0.5170	-9.2772	-2.1928	0.0024	0.0081	0.0050	-23.7932	27.1634	-1.5584	-0.0711	0.1332	0.7721	-0.6172
7.41	-0.5150	-9.2801	-2.2033	0.0021	0.0014	0.0086	-23.7931	27.0452	-1.7407	-0.0711	0.1333	0.7722	-0.6173
7.42	-0.5171	-9.2876	-2.2130	0.0057	-0.0010	0.0030	-23.8001	27.1896	-1.6520	-0.0711	0.1333	0.7721	-0.6172
7.43	-0.5056	-9.2899	-2.2140	0.0122	-0.0023	0.0049	-23.5910	27.1742	-1.4956	-0.0711	0.1333	0.7722	-0.6172
7.44	-0.5033	-9.2809	-2.2114	0.0042	0.0009	0.0083	-23.7077	27.1706	-1.4733	-0.0711	0.1333	0.7722	-0.6172
7.45	-0.5051	-9.2908	-2.2067	0.0041	-0.0007	0.0055	-23.7164	27.1897	-1.6685	-0.0711	0.1333	0.7722	-0.6172
7.46	-0.5116	-9.2917	-2.2077	0.0093	0.0030	0.0071	-23.8002	27.0697	-1.5311	-0.0711	0.1333	0.7722	-0.6172
7.47	-0.5206	-9.2837	-2.1949	0.0038	0.0028	0.0023	-23.8006	27.1275	-1.4293	-0.0711	0.1333	0.7722	-0.6172
7.48	-0.5292	-9.2866	-2.1959	0.0074	0.0006	0.0056	-23.8029	27.1855	-1.3161	-0.0711	0.1333	0.7722	-0.6172
7.49	-0.5364	-9.2887	-2.1921	0.0086	0.0027	0.0025	-23.7985	27.1657	-1.5785	-0.0711	0.1333	0.7721	-0.6171
7.5	-0.5381	-9.2766	-2.1757	0.0100	0.0013	0.0016	-23.7934	27.1729	-1.5100	-0.0711	0.1333	0.7722	-0.6172
7.51	-0.5355	-9.2802	-2.1709	0.0090	0.0030	0.0005	-23.6704	26.8883	-1.4662	-0.0712	0.1333	0.7722	-0.6172
7.52	-0.5301	-9.2934	-2.1728	0.0063	0.0032	0.0022	-23.8543	27.0358	-1.6407	-0.0712	0.1333	0.7722	-0.6172
7.53	-0.5291	-9.2868	-2.1719	0.0105	0.0011	0.0035	-23.9078	26.8053	-1.6369	-0.0712	0.1333	0.7722	-0.6171
7.54	-0.5229	-9.2778	-2.1645	0.0125	0.0006	0.0013	-23.5942	26.9037	-1.7240	-0.0712	0.1333	0.7722	-0.6172
7.55	-0.5137	-9.2937	-2.1719	0.0090	0.0007	0.0029	-23.5693	27.0724	-1.7311	-0.0712	0.1333	0.7722	-0.6172
7.56	-0.5079	-9.2892	-2.1733	0.0123	0.0030	0.0006	-23.7483	26.9007	-1.6268	-0.0712	0.1332	0.7721	-0.6171
7.57	-0.5069	-9.2782	-2.1666	0.0092	0.0074	0.0053	-23.5962	26.9410	-1.5427	-0.0713	0.1333	0.7722	-0.6172
7.58	-0.5115	-9.2896	-2.1775	0.0081	0.0090	0.0037	-23.6841	27.0588	-1.5101	-0.0713	0.1333	0.7722	-0.6172
7.59	-0.5206	-9.2904	-2.1752	0.0080	0.0047	0.0009	-23.7700	27.1256	-1.6975	-0.0714	0.1333	0.7722	-0.6172
7.6	-0.5268	-9.2806	-2.1755	0.0125	-0.0005	0.0018	-23.9066	26.9754	-1.7438	-0.0714	0.1333	0.7721	-0.6171
7.61	-0.5304	-9.2812	-2.1876	0.0133	-0.0046	0.0028	-23.8220	27.0343	-1.6013	-0.0714	0.1333	0.7722	-0.6172
7.62	-0.5377	-9.2856	-2.2004	0.0081	0.0005	0.0038	-23.8482	27.1169	-1.4867	-0.0714	0.1333	0.7722	-0.6172
7.63	-0.5232	-9.2832	-2.1981	0.0068	0.0053	0.0034	-23.8892	27.0139	-1.8084	-0.0714	0.1333	0.7721	-0.6171
7.64	-0.5137	-9.2859	-2.2051	0.0077	0.0069	-0.0004	-23.7859	26.8931	-1.8018	-0.0715	0.1333	0.7722	-0.6172
7.65	-0.5024	-9.2892	-2.2072	0.0110	0.0040	0.0067	-23.8822	27.1087	-1.5589	-0.0715	0.1333	0.7721	-0.6172
7.66	-0.4913	-9.2950	-2.2077	0.0098	-0.0012	0.0052	-23.7355	27.1909	-1.4963	-0.0715	0.1333	0.7722	-0.6172
7.67	-0.4823	-9.2837	-2.2039	0.0126	0.0130	-0.0006	-24.0009	27.1672	-1.4268	-0.0715	0.1333	0.7721	-0.6171
7.68	-0.4844	-9.2885	-2.2100	0.0109	0.0077	0.0042	-23.8209	27.0513	-1.6260	-0.0716	0.1333	0.7721	-0.6172
7.69	-0.4912	-9.2888	-2.2165	0.0121	0.0048	0.0025	-23.8054	26.9932	-1.5879	-0.0716	0.1333	0.7721	-0.6172
7.7	-0.4982	-9.2831	-2.2050	0.0125	0.0062	0.0067	-23.7285	27.0059	-1.5211	-0.0716	0.1334	0.7721	-0.6172
7.71	-0.5086	-9.2911	-2.2085	0.0110	0.0032	0.0047	-23.7076	27.1067	-1.6498	-0.0717	0.1334	0.7721	-0.6172
7.72	-0.5119	-9.2918	-2.2166	0.0068	-0.0027	0.0007	-23.7221	26.9475	-1.6454	-0.0717	0.1333	0.7721	-0.6172
7.73	-0.5115	-9.2899	-2.2061	0.0108	-0.0030	0.0028	-23.7062	27.1502	-1.7744	-0.0717	0.1333	0.7721	-0.6172
7.74	-0.5163	-9.2862	-2.2027	0.0114	0.0080	0.0009	-23.7224	27.1281	-1.5994	-0.0717	0.1333	0.7720	-0.6172
7.75	-0.5125	-9.2883	-2.2025	0.0081	0.0084	0.0059	-23.6955	26.8573	-1.7782	-0.0717	0.1334	0.7721	-0.6172
7.76	-0.5142	-9.2874	-2.1947	0.0101	-0.0023	0.0041	-23.5925	27.1802	-1.6130	-0.0717	0.1334	0.7721	-0.6172
7.77	-0.5128	-9.2859	-2.1873	0.0070	0.0052	0.0045	-23.4548	27.3612	-1.5113	-0.0718	0.1334	0.7721	-0.6172
7.78	-0.5083	-9.2871	-2.1826	0.0116	-0.0011	0.0052	-23.1275	27.2239	-1.5882	-0.0718	0.1334	0.7721	-0.6172
7.79	-0.5135	-9.2959	-2.1929	0.0100	-0.0004	0.0083	-23.5494	27.4364	-1.3807	-0.0718	0.1334	0.7721	-0.6172
7.8	-0.5159	-9.2891	-2.1917	0.0169	0.0042	0.0038	-23.7762	27.7646	-1.4830	-0.0718	0.1334	0.7721	-0.6173
7.81	-0.5217	-9.2773	-2.1799	0.0117	0.0040	0.0068	-23.7511	27.6740	-1.7416	-0.0718	0.1334	0.7720	-0.6172
7.82	-0.5236	-9.2860	-2.1784	0.0116	-0.0042	0.0096	-23.8014	27.1289	-1.6030	-0.0718	0.1334	0.7721	-0.6173
7.83	-0.5298	-9.2912	-2.1819	0.0131	0.0002	0.0042	-23.9374	27.2378	-1.6473	-0.0718	0.1334	0.7720	-0.6173
7.84	-0.5302	-9.2775	-2.1778	0.0065	0.0120	0.0052	-23.9083	26.9946	-1.6046	-0.0718	0.1335	0.7721	-0.6173
7.85	-0.5326	-9.2850	-2.1814	0.0092	0.0072	0.0087	-23.7671	27.1726	-1.7347	-0.0719	0.1335	0.7720	-0.6172
7.86	-0.5331	-9.2908	-2.1886	0.0111	0.0048	0.0093	-23.7955	27.2996	-1.6952	-0.0719	0.1335	0.7720	-0.6173
7.87	-0.5214	-9.2796	-2.1830	0.0079	0.0048	0.0039	-23.7831	27.3460	-1.7621	-0.0719	0.1335	0.7720	-0.6173
7.88	-0.5287	-9.2802	-2.1822	0.0107	0.0023	0.0018	-23.7837	27.4067	-1.5462	-0.0719	0.1335	0.7719	-0.6173
7.89	-0.5267	-9.2878	-2.1890	0.0072	-0.0024	0.0065	-23.8170	27.1979	-1.5399	-0.0719	0.1335	0.7720	-0.6173
7.9	-0.5233	-9.2826	-2.1879	0.0143	-0.0032	0.0084	-23.7508	27.0515	-1.6602	-0.0719	0.1335	0.7720	-0.6173
7.91	-0.5218	-9.2833	-2.1887	0.0097	0.0055	0.0041	-23.7072	26.9268	-1.5556	-0.0719	0.1335	0.7720	-0.6173
7.92	-0.5212	-9.2833	-2.1904	0.0179	0.0055	0.0078	-23.7022	27.0758	-1.4227	-0.0719	0.1336	0.7719	-0.6173
7.93	-0.5179	-9.2875	-2.1906	0.0163	0.0096	0.0031	-23.8407	26.9353	-1.5893	-0.0720	0.1336	0.7719	-0.6174
7.94	-0.5177	-9.2864	-2.1987	0.0096	-0.0036	0.0005	-23.6744	26.8538	-1.5954	-0.0720	0.1336	0.7719	-0.6174
7.95	-0.5196	-9.2817	-2.1885	0.0102	0.0001	0.0081	-23.6524	26.9869	-1.7076	-0.0720	0.1336	0.7719	-0.6174
7.96	-0.5150	-9.2914	-2.1972	0.0100	0.0000	0.0032	-23.8328	26.9374	-1.6891	-0.0720	0.1336	0.7719	-0.6174
7.97	-0.5127	-9.2860	-2.1955	0.0125	0.0009	0.0063	-23.7344	26.9101	-1.6233	-0.0720	0.1336	0.7719	-0.6174
7.98	-0.5050	-9.2876	-2.1966	0.0125	-0.0015	0.0034	-23.6939	27.1700	-1.7536	-0.0720	0.1336	0.7719	-0.6174
7.99	-0.5037	-9.2854	-2.1983	0.0116	-0.0039	0.0041	-23.7188	27.0942	-1.6224	-0.0720	0.1335	0.7718	-0.6174
8	-0.5042	-9.2845	-2.1922	0.0050	0.0015	0.0101	-23.6138	27.2790	-1.5024	-0.0720	0.1336	0.7719	-0.6174
8.01	-0.5031	-9.2811	-2.1905	0.0092	0.0008	0.0094	-23.8027	27.1293	-1.6059	-0.0720	0.1336	0.7719	-0.6174
8.02	-0.5090	-9.2841	-2.1942	0.0098	0.0023	0.0040	-23.7209	27.2050	-1.5846	-0.0720	0.1336	0.7719	-0.6174
8.03	-0.5101	-9.2894	-2.1942	0.0096	0.0096	0.0054	-23.7041	27.2906	-1.4100	-0.0720	0.1336	0.7718	-0.6174
8.04	-0.5122	-9.2861	-2.1962	0.0178	-0.0004	0.0045	-23.9415	27.2210	-1.7419	-0.0720	0.1336	0.7718	-0.6174
8.05	-0.5148	-9.2853	-2.1951	0.0123	0.0037	0.0014	-23.7688	27.3143	-1.6199	-0.0721	0.1336	0.7718	-0.6175
8.06	-0.5207	-9.2852	-2.1966	0.0110	0.0039	0.0082	-23.8920	27.3012	-1.4131	-0.0721	0.1336	0.7718	-0.6174
8.07	-0.5220	-9.2861	-2.2001	0.0050	0.0015	0.0075	-23.8461	27.1799	-1.6031	-0.0721	0.1337	0.7719	-0.6175
8.08	-0.5220	-9.2798	-2.1925	0.0185	-0.0058	0.0025	-23.9393	27.0089	-1.4395	-0.0721	0.1336	0.7718	-0.6175
8.09	-0.5199	-9.2867	-2.2022	0.0158	0.0039	0.0034	-23.8669	27.0584	-1.5740	-0.0721	0.1336	0.7718	-0.6176
8.1	-0.5123	-9.2893	-2.1955	0.0130	0.0037	0.0081	-23.5765	27.0562	-1.7267	-0.0721	0.1336	0.7717	-0.6175
8.11	-0.5121	-9.2863	-2.1925	0.0125	0.0059	0.0021	-23.7685	27.0228	-1.7138	-0.0721	0.1336	0.7717	-0.6175
8.12	-0.5064	-9.2848	-2.1863	0.0115	0.0020	0.0006	-23.6238	26.7958	-1.6525	-0.0722	0.1336	0.7717	-0.6175
8.13	-0.5077	-9.2873	-2.1881	0.0091	-0.0024	0.0013	-23.7001	27.1010	-1.6037	-0.0722	0.1336	0.7717	-0.6175
8.14	-0.5071	-9.2841	-2.1855	0.0075	-0.0022	0.0067	-23.7317	26.8191	-1.5368	-0.0722	0.1336	0.7718	-0.6176
8.15	-0.5104	-9.2858	-2.1809	0.0111	0.0007	0.0080	-23.5520	27.1297	-1.6528	-0.0722	0.1336	0.7717	-0.6175
8.16	-0.5134	-9.2961	-2.1805	0.0066	-0.0035	0.0070	-23.6051	27.0237	-1.5881	-0.0722	0.1336	0.7718	-0.6176
8.17	-0.5180	-9.2909	-2.1875	0.0115	-0.0018	0.0112	-23.7131	26.9389	-1.7302	-0.0721	0.1336	0.7717	-0.6175
8.18	-0.5261	-9.2807	-2.1843	0.0192	0.0056	0.0099	-23.7275	27.0737	-1.6793	-0.0721	0.1337	0.7717	-0.6176
8.19	-0.5254	-9.2831	-2.1926	0.0117	-0.0021	0.0112	-23.9708	27.2353	-1.6256	-0.0721	0.1337	0.7717	-0.6176
8.2	-0.5246	-9.2849	-2.2070	0.0112	-0.0008	0.0072	-23.8953	27.2804	-1.5781	-0.0721	0.1337	0.7717	-0.6176
8.21	-0.5172	-9.2797	-2.2005	0.0147	0.0046	0.0008	-23.6795	26.9741	-1.3976	-0.0721	0.1337	0.7717	-0.6176
8.22	-0.5081	-9.2764	-2.1992	0.0091	0.0004	0.0053	-23.8632	27.2552	-1.7785	-0.0722	0.1337	0.7716	-0.6176
8.23	-0.5052	-9.2889	-2.2049	0.0097	0.0049	0.0008	-23.8246	27.1001	-1.7553	-0.0722	0.1337	0.7717	-0.6177
8.24	-0.5047	-9.2833	-2.2019	0.0099	0.0022	0.0009	-23.7621	27.3266	-1.6308	-0.0722	0.1337	0.7716	-0.6176
8.25	-0.5050	-9.2790	-2.1904	0.0108	0.0011	0.0013	-23.8334	27.3473	-1.6067	-0.0722	0.1337	0.7717	-0.6177
8.26	-0.5121	-9.2899	-2.1980	0.0094	0.0014	0.0024	-23.8607	27.2015	-1.7115	-0.0722	0.1337	0.7716	-0.6176
8.27	-0.5192	-9.2863	-2.1982	0.0117	-0.0026	0.0105	-23.6535	27.1199	-1.5639	-0.0722	0.1337	0.7716	-0.6177
8.28	-0.5290	-9.2853	-2.1875	0.0090	-0.0001	0.0036	-23.4946	26.7388	-0.9917	-0.0722	0.1337	0.7716	-0.6176
8.29	-0.5319	-9.2865	-2.1888	0.0014	-0.0061	0.0086	-23.5464	26.9343	-1.5653	-0.0722	0.1337	0.7716	-0.6176
8.3	-0.5297	-9.2882	-2.1924	0.0095	-0.0009	0.0016	-23.6058	27.6069	-1.7440	-0.0722	0.1337	0.7717	-0.6176
8.31	-0.5298	-9.2750	-2.1789	0.0085	-0.0029	0.0003	-23.6246	27.4837	-1.3680	-0.0722	0.1336	0.7716	-0.6176
8.32	-0.5207	-9.2848	-2.1791	0.0081	-0.0053	0.0061	-23.6587	26.7344	-1.5809	-0.0722	0.1336	0.7717	-0.6177
8.33	-0.5167	-9.2926	-2.1767	0.0046	0.0031	0.0016	-23.6469	27.1572	-1.5701	-0.0722	0.1336	0.7717	-0.6176
8.34	-0.5127	-9.2866	-2.1711	0.0062	-0.0004	0.0010	-23.8887	27.0163	-1.5026	-0.0722	0.1336	0.7717	-0.6177
8.35	-0.5074	-9.2822	-2.1721	0.0109	-0.0017	0.0016	-23.9131	26.9063	-1.5363	-0.0722	0.1336	0.7716	-0.6176
8.36	-0.5165	-9.2867	-2.1717	0.0088	0.0063	0.0010	-23.6591	26.8625	-1.3823	-0.0723	0.1336	0.7717	-0.6176
8.37	-0.5251	-9.2904	-2.1787	0.0085	0.0124	0.0013	-23.6835	27.1248	-1.6707	-0.0723	0.1336	0.7717	-0.6176
8.38	-0.5338	-9.2846	-2.1749	0.0002	0.0030	-0.0000	-23.8256	27.0179	-1.4091	-0.0724	0.1336	0.7717	-0.6175
8.39	-0.5419	-9.2852	-2.1839	0.0045	0.0091	0.0066	-23.8166	26.8879	-1.5733	-0.0724	0.1336	0.7718	-0.6176
8.4	-0.5429	-9.2851	-2.1893	0.0075	0.0013	0.0047	-23.8117	27.1262	-1.5560	-0.0724	0.1336	0.7717	-0.6175
8.41	-0.5380	-9.2853	-2.1945	0.0080	0.0042	0.0010	-23.8185	27.1487	-1.5874	-0.0724	0.1336	0.7718	-0.6176
8.42	-0.5262	-9.2811	-2.1986	0.0002	0.0028	0.0021	-23.8058	26.9827	-1.5235	-0.0724	0.1336	0.7717	-0.6174
8.43	-0.5076	-9.2875	-2.2074	0.0003	0.0041	0.0016	-23.8250	27.0060	-1.5422	-0.0725	0.1336	0.7718	-0.6175
8.44	-0.4971	-9.2858	-2.1984	0.0088	0.0142	0.0010	-23.7860	26.8709	-1.6081	-0.0725	0.1337	0.7718	-0.6174
8.45	-0.4882	-9.2864	-2.1979	0.0103	0.0035	0.0051	-23.8998	27.0243	-1.3957	-0.0726	0.1337	0.7718	-0.6174
8.46	-0.4816	-9.2956	-2.2032	0.0089	0.0048	0.0051	-23.8833	26.9913	-1.5501	-0.0726	0.1337	0.7718	-0.6174
8.47	-0.4814	-9.2903	-2.2008	0.0098	-0.0013	0.0003	-23.7892	27.0459	-1.6301	-0.0726	0.1337	0.7718	-0.6174
8.48	-0.4916	-9.2844	-2.2018	0.0063	-0.0012	0.0018	-23.6241	26.9284	-1.7841	-0.0726	0.1337	0.7718	-0.6174
8.49	-0.4982	-9.2909	-2.2070	0.0073	-0.0026	0.0011	-23.8063	27.0127	-1.7682	-0.0726	0.1336	0.7717	-0.6174
8.5	-0.5062	-9.2921	-2.2030	0.0022	0.0036	0.0014	-23.8977	27.0887	-1.8121	-0.0726	0.1336	0.7718	-0.6174
8.51	-0.5082	-9.2811	-2.1976	0.0073	-0.0043	0.0047	-23.6105	27.1466	-1.7261	-0.0726	0.1336	0.7718	-0.6174
8.52	-0.5078	-9.2848	-2.1954	0.0077	0.0065	0.0034	-23.7218	27.1341	-1.6910	-0.0726	0.1336	0.7718	-0.6174
8.53	-0.5073	-9.2950	-2.2055	0.0039	0.0083	-0.0021	-23.8166	27.0564	-1.6833	-0.0727	0.1336	0.7718	-0.6173
8.54	-0.5065	-9.2896	-2.1974	0.0090	0.0003	0.0024	-23.6929	27.2373	-1.7540	-0.0727	0.1336	0.7718	-0.6173
8.55	-0.5041	-9.2868	-2.1904	0.0104	0.0033	0.0069	-23.5971	26.9079	-1.7183	-0.0727	0.1336	0.7719	-0.6174
8.56	-0.5006	-9.2870	-2.1854	0.0070	0.0001	0.0038	-23.8220	27.0353	-1.3783	-0.0727	0.1336	0.7718	-0.6173
8.57	-0.5015	-9.2932	-2.1932	-0.0041	0.0038	0.0035	-23.9871	26.9500	-1.6842	-0.0727	0.1337	0.7719	-0.6173
8.58	-0.5076	-9.2835	-2.1893	0.0080	0.0022	0.0007	-23.7044	26.8689	-1.6723	-0.0728	0.1336	0.7719	-0.6173
8.59	-0.5069	-9.2861	-2.1791	0.0060	0.0095	0.0022	-23.7878	27.1346	-1.7740	-0.0728	0.1337	0.7720	-0.6173
8.6	-0.5162	-9.2909	-2.1895	0.0081	0.0109	0.0012	-23.9038	27.0745	-1.7244	-0.0728	0.1337	0.7719	-0.6172
8.61	-0.5219	-9.2808	-2.1882	0.0106	0.0057	0.0045	-23.9853	27.0794	-1.5348	-0.0729	0.1337	0.7719	-0.6173
8.62	-0.5260	-9.2790	-2.1838	0.0094	0.0060	0.0047	-23.8096	27.1308	-1.4079	-0.0729	0.1337	0.7719	-0.6173
8.63	-0.5345	-9.2887	-2.1901	0.0037	0.0096	0.0086	-23.8243	27.1997	-1.7680	-0.0729	0.1337	0.7718	-0.6172
8.64	-0.5323	-9.2900	-2.1869	0.0083	0.0044	0.0088	-23.7059	27.0611	-1.3388	-0.0729	0.1338	0.7720	-0.6173
8.65	-0.5347	-9.2804	-2.1774	0.0027	0.0036	0.0058	-23.9150	27.1104	-1.5609	-0.0730	0.1338	0.7719	-0.6172
8.66	-0.5321	-9.2878	-2.1816	0.0039	0.0038	0.0024	-23.7698	26.8341	-1.5635	-0.0730	0.1338	0.7720	-0.6172
8.67	-0.5319	-9.2889	-2.1796	-0.0012	0.0057	0.0063	-23.7206	26.9377	-1.4756	-0.0730	0.1338	0.7719	-0.6171
8.68	-0.5311	-9.2782	-2.1756	-0.0030	-0.0009	0.0064	-23.7241	27.0093	-1.7822	-0.0730	0.1338	0.7720	-0.6171
8.69	-0.5293	-9.2808	-2.1746	0.0038	0.0065	0.0038	-23.7628	27.0522	-1.7454	-0.0730	0.1339	0.7720	-0.6171
8.7	-0.5241	-9.2896	-2.1816	0.0086	0.0003	0.0071	-23.8384	27.1004	-1.5923	-0.0730	0.1339	0.7720	-0.6171
8.71	-0.5215	-9.2881	-2.1778	0.0042	-0.0029	0.0093	-23.7073	27.0962	-1.7190	-0.0730	0.1339	0.7720	-0.6171
8.72	-0.5170	-9.2836	-2.1749	0.0103	0.0024	0.0108	-23.7529	27.0684	-1.6655	-0.0730	0.1339	0.7720	-0.6170
8.73	-0.5154	-9.2978	-2.1861	0.0092	0.0051	0.0085	-23.6870	26.9817	-1.5599	-0.0730	0.1339	0.7720	-0.6171
8.74	-0.5136	-9.2911	-2.1831	0.0089	0.0022	0.0064	-23.6119	27.0284	-1.7097	-0.0730	0.1339	0.7719	-0.6170
8.75	-0.5111	-9.2822	-2.1882	0.0018	0.0045	0.0039	-23.7079	27.1012	-1.6744	-0.0730	0.1340	0.7720	-0.6171
8.76	-0.5107	-9.2811	-2.1972	-0.0035	0.0102	-0.0004	-23.8098	27.0908	-1.5729	-0.0730	0.1340	0.7720	-0.6170
8.77	-0.5111	-9.2877	-2.2071	-0.0018	0.0111	0.0040	-23.3678	27.1203	-1.3803	-0.0731	0.1340	0.7721	-0.6169
8.78	-0.5137	-9.2825	-2.1969	0.0036	0.0021	-0.0005	-23.1620	26.8894	-1.1442	-0.0731	0.1340	0.7721	-0.6169
8.79	-0.5150	-9.2824	-2.1995	0.0083	-0.0016	0.0058	-23.4600	27.1958	-1.4581	-0.0731	0.1340	0.7721	-0.6169
8.8	-0.5151	-9.2878	-2.2083	0.0067	0.0017	0.0111	-23.7496	27.7451	-1.7964	-0.0731	0.1340	0.7721	-0.6169
8.81	-0.5124	-9.2830	-2.1991	0.0104	0.0024	0.0060	-23.7724	27.6539	-1.7840	-0.0731	0.1340	0.7720	-0.6168
8.82	-0.5080	-9.2825	-2.1978	0.0081	-0.0002	0.0082	-23.7648	27.1178	-1.6852	-0.0731	0.1341	0.7721	-0.6169
8.83	-0.5108	-9.2868	-2.1886	0.0064	-0.0003	0.0033	-23.7156	27.0921	-1.6841	-0.0731	0.1340	0.7721	-0.6169
8.84	-0.5079	-9.2927	-2.1951	0.0100	-0.0045	0.0108	-23.5812	27.0119	-1.7105	-0.0731	0.1341	0.7722	-0.6169
8.85	-0.5042	-9.2864	-2.1977	0.0088	-0.0039	0.0047	-23.5210	27.0641	-1.5693	-0.0731	0.1340	0.7721	-0.6169
8.86	-0.5045	-9.2831	-2.1890	0.0159	-0.0068	0.0090	-23.7705	27.0152	-1.6529	-0.0730	0.1340	0.7721	-0.6169
8.87	-0.5030	-9.2904	-2.1893	0.0051	-0.0043	0.0075	-23.6364	26.9037	-1.8392	-0.0730	0.1340	0.7721	-0.6169
8.88	-0.5049	-9.2893	-2.1936	0.0089	-0.0051	0.0053	-23.5927	26.8461	-1.6623	-0.0730	0.1340	0.7720	-0.6169
8.89	-0.5068	-9.2835	-2.1917	0.0050	-0.0022	0.0040	-23.8420	27.0031	-1.7108	-0.0730	0.1340	0.7722	-0.6170
8.9	-0.5091	-9.2923	-2.2022	0.0033	0.0001	0.0070	-23.5818	27.0059	-1.6609	-0.0730	0.1340	0.7721	-0.6169
8.91	-0.5125	-9.2897	-2.1998	0.0095	0.0006	0.0064	-23.5796	26.7294	-1.7394	-0.0730	0.1340	0.7722	-0.6169
8.92	-0.5155	-9.2808	-2.1937	0.0146	-0.0107	0.0088	-23.7044	26.9848	-1.8009	-0.0729	0.1340	0.7720	-0.6169
8.93	-0.5205	-9.2863	-2.2005	0.0096	-0.0043	0.0100	-23.7452	26.9224	-1.5196	-0.0729	0.1340	0.7721	-0.6169
8.94	-0.5217	-9.2893	-2.2019	0.0073	-0.0013	0.0102	-23.7652	27.1851	-1.5579	-0.0729	0.1340	0.7721	-0.6169
8.95	-0.5172	-9.2815	-2.2053	0.0132	-0.0029	0.0070	-23.6787	27.1332	-1.6946	-0.0729	0.1340	0.7721	-0.6169
8.96	-0.5114	-9.2854	-2.2036	0.0077	-0.0017	0.0059	-23.7112	27.2076	-1.7058	-0.0729	0.1340	0.7721	-0.6170
8.97	-0.5089	-9.2852	-2.2015	0.0053	-0.0008	0.0109	-23.9737	27.3015	-1.5462	-0.0728	0.1340	0.7721	-0.6169
8.98	-0.5073	-9.2846	-2.2011	0.0056	-0.0007	0.0063	-23.8353	27.0629	-1.7718	-0.0728	0.1340	0.7721	-0.6169
8.99	-0.5125	-9.2775	-2.1893	0.0029	-0.0018	0.0065	-23.7600	26.9297	-1.6955	-0.0728	0.1340	0.7721	-0.6168
9	-0.5155	-9.2809	-2.1854	0.0077	0.0023	0.0061	-23.8015	27.1771	-1.5983	-0.0728	0.1341	0.7721	-0.6169
9.01	-0.5231	-9.2874	-2.1854	0.0024	-0.0006	0.0071	-23.7982	27.1852	-1.7374	-0.0728	0.1341	0.7721	-0.6169
9.02	-0.5314	-9.2839	-2.1806	0.0084	-0.0044	0.0045	-23.9843	27.0167	-1.6797	-0.0728	0.1340	0.7722	-0.6169
9.03	-0.5359	-9.2853	-2.1768	0.0066	-0.0089	0.0135	-23.7646	27.0577	-1.7080	-0.0727	0.1340	0.7721	-0.6169
9.04	-0.5381	-9.2913	-2.1743	0.0131	-0.0043	0.0111	-23.5751	26.7671	-1.5415	-0.0727	0.1341	0.7721	-0.6169
9.05	-0.5366	-9.2854	-2.1749	0.0167	-0.0065	0.0032	-23.7034	26.8957	-1.6734	-0.0727	0.1340	0.7721	-0.6169
9.06	-0.5313	-9.2793	-2.1679	0.0119	-0.0043	0.0051	-23.6986	27.0591	-1.6881	-0.0727	0.1340	0.7720	-0.6169
9.07	-0.5291	-9.2911	-2.1733	0.0115	-0.0003	0.0086	-23.7266	26.9412	-1.6881	-0.0727	0.1340	0.7721	-0.6170
9.08	-0.5251	-9.2890	-2.1665	0.0143	-0.0022	0.0061	-23.9170	26.9437	-1.8354	-0.0727	0.1340	0.7721	-0.6170
9.09	-0.5216	-9.2854	-2.1678	0.0108	-0.0009	0.0059	-23.5775	27.0229	-1.6414	-0.0727	0.1340	0.7721	-0.6170
9.1	-0.5138	-9.2855	-2.1719	0.0099	-0.0022	0.0062	-23.8249	27.0485	-1.3966	-0.0726	0.1340	0.7720	-0.6170
9.11	-0.5198	-9.2900	-2.1809	0.0143	-0.0040	0.0102	-23.8511	26.9101	-1.4418	-0.0726	0.1340	0.7721	-0.6170
9.12	-0.5266	-9.2843	-2.1781	0.0088	-0.0022	0.0061	-23.7895	27.0031	-1.5967	-0.0726	0.1340	0.7720	-0.6170
9.13	-0.5300	-9.2790	-2.1769	0.0029	0.0085	0.0040	-23.9850	27.1132	-1.6170	-0.0726	0.1340	0.7720	-0.6170
9.14	-0.5319	-9.2872	-2.1892	0.0026	0.0048	0.0080	-23.8286	27.0318	-1.6019	-0.0727	0.1341	0.7721	-0.6170
9.15	-0.5279	-9.2901	-2.2011	0.0024	-0.0053	0.0064	-23.9039	27.2744	-1.7502	-0.0726	0.1341	0.7721	-0.6169
9.16	-0.5209	-9.2863	-2.2048	0.0079	0.0037	0.0047	-23.7677	27.0793	-1.8214	-0.0726	0.1341	0.7721	-0.6170
9.17	-0.5125	-9.2876	-2.2167	0.0069	0.0062	0.0016	-23.8902	27.3100	-1.5950	-0.0727	0.1341	0.7720	-0.6169
9.18	-0.5010	-9.2871	-2.2088	0.0035	-0.0016	0.0026	-23.8269	27.1349	-1.6253	-0.0727	0.1341	0.7721	-0.6169
9.19	-0.4944	-9.2857	-2.2015	0.0027	-0.0026	0.0046	-23.8111	26.9924	-1.5635	-0.0727	0.1341	0.7721	-0.6169
9.2	-0.4875	-9.2922	-2.2133	0.0075	-0.0007	0.0032	-23.9111	27.0687	-1.4836	-0.0727	0.1340	0.7721	-0.6169
9.21	-0.4881	-9.2900	-2.1995	0.0072	-0.0026	0.0008	-23.7583	26.9256	-1.6316	-0.0727	0.1340	0.7722	-0.6169
9.22	-0.4917	-9.2879	-2.2023	0.0072	-0.0092	0.0002	-23.6770	26.9883	-1.6962	-0.0727	0.1340	0.7722	-0.6169
9.23	-0.4953	-9.2874	-2.2043	0.0039	-0.0035	0.0048	-23.5539	26.8885	-1.6895	-0.0726	0.1340	0.7722	-0.6169
9.24	-0.5016	-9.2894	-2.2116	0.0059	0.0037	0.0002	-23.5182	26.8717	-1.6629	-0.0727	0.1339	0.7721	-0.6168
9.25	-0.5043	-9.2838	-2.2107	0.0073	0.0026	0.0023	-23.7790	26.8641	-1.8339	-0.0727	0.1340	0.7722	-0.6169
9.26	-0.5068	-9.2844	-2.2097	0.0099	-0.0058	0.0086	-23.5788	26.9064	-1.6542	-0.0727	0.1339	0.7722	-0.6168
9.27	-0.5108	-9.2896	-2.2103	0.0090	-0.0023	0.0054	-23.3254	27.0529	-1.3198	-0.0727	0.1339	0.7722	-0.6169
9.28	-0.5125	-9.2876	-2.2051	0.0047	-0.0062	0.0023	-23.1571	26.9348	-1.2555	-0.0726	0.1339	0.7722	-0.6168
9.29	-0.5125	-9.2798	-2.1934	0.0047	-0.0012	0.0047	-23.5171	27.0175	-1.5212	-0.0726	0.1339	0.7722	-0.6168
9.3	-0.5087	-9.2951	-2.2007	0.0074	-0.0016	0.0057	-23.6550	27.7230	-1.5630	-0.0726	0.1339	0.7722	-0.6168
9.31	-0.5082	-9.2877	-2.1928	0.0084	-0.0007	0.0040	-23.8602	27.5435	-1.6193	-0.0726	0.1339	0.7722	-0.6168
9.32	-0.5136	-9.2841	-2.1841	0.0069	-0.0020	0.0036	-23.7743	27.0380	-1.7426	-0.0726	0.1339	0.7723	-0.6168
9.33	-0.5176	-9.2912	-2.1869	0.0071	0.0019	0.0016	-23.8474	27.2056	-1.7070	-0.0726	0.1339	0.7722	-0.6168
9.34	-0.5205	-9.2914	-2.1801	0.0112	0.0053	0.0032	-23.8222	27.0078	-1.7296	-0.0727	0.1339	0.7723	-0.6168
9.35	-0.5201	-9.2944	-2.1814	0.0078	0.0040	0.0076	-23.8573	26.9120	-1.6270	-0.0727	0.1339	0.7722	-0.6168
9.36	-0.5211	-9.2837	-2.1698	0.0065	-0.0026	0.0070	-23.8979	26.9775	-1.6126	-0.0727	0.1339	0.7722	-0.6168
9.37	-0.5272	-9.2913	-2.1826	0.0073	0.0027	0.0043	-24.0158	27.1442	-1.4834	-0.0727	0.1339	0.7723	-0.6168
9.38	-0.5295	-9.2855	-2.1811	0.0061	0.0061	0.0059	-23.7907	27.0564	-1.4211	-0.0727	0.1339	0.7722	-0.6167
9.39	-0.5290	-9.2864	-2.1811	0.0049	0.0040	0.0063	-23.8270	27.2192	-1.6046	-0.0727	0.1340	0.7723	-0.6168
9.4	-0.5307	-9.2877	-2.1850	0.0080	0.0017	0.0051	-23.8506	27.1379	-1.7441	-0.0727	0.1340	0.7723	-0.6167
9.41	-0.5294	-9.2916	-2.1858	0.0101	-0.0039	0.0055	-23.5699	27.0473	-1.5089	-0.0727	0.1340	0.7723	-0.6168
9.42	-0.5215	-9.2811	-2.1837	0.0039	0.0035	0.0001	-23.9004	26.9115	-1.6309	-0.0727	0.1339	0.7722	-0.6167
9.43	-0.5261	-9.2836	-2.1831	0.0081	-0.0026	0.0083	-23.7643	26.9441	-1.7435	-0.0727	0.1340	0.7723	-0.6167
9.44	-0.5265	-9.2854	-2.1833	0.0071	0.0013	0.0060	-23.8187	26.9127	-1.8337	-0.0727	0.1340	0.7723	-0.6167
9.45	-0.5218	-9.2899	-2.1867	0.0056	0.0026	0.0026	-23.7097	27.0139	-1.7285	-0.0727	0.1340	0.7723	-0.6167
9.46	-0.5177	-9.2845	-2.1817	0.0083	0.0017	0.0047	-23.8120	26.9294	-1.6098	-0.0727	0.1340	0.7723	-0.6167
9.47	-0.5189	-9.2872	-2.1851	0.0064	0.0020	0.0079	-23.5350	26.9380	-1.6393	-0.0727	0.1340	0.7723	-0.6167
9.48	-0.5224	-9.2874	-2.1868	-0.0074	-0.0007	0.0037	-23.6280	27.1331	-1.5941	-0.0727	0.1340	0.7724	-0.6167
9.49	-0.5230	-9.2836	-2.1882	0.0042	0.0036	-0.0003	-23.6169	26.9880	-1.7415	-0.0728	0.1340	0.7723	-0.6166
9.5	-0.5256	-9.2863	-2.1902	0.0065	-0.0007	0.0019	-23.7631	27.0639	-1.6848	-0.0728	0.1340	0.7724	-0.6166
9.51	-0.5222	-9.2853	-2.1937	0.0056	0.0027	0.0021	-23.9171	27.0401	-1.6456	-0.0728	0.1340	0.7724	-0.6166
9.52	-0.5239	-9.2872	-2.1908	0.0029	0.0029	0.0004	-23.8655	26.8056	-1.5409	-0.0728	0.1340	0.7724	-0.6166
9.53	-0.5193	-9.2858	-2.1914	0.0059	0.0046	0.0031	-23.8900	26.9590	-1.5601	-0.0728	0.1340	0.7724	-0.6165
9.54	-0.5164	-9.2867	-2.1914	-0.0004	-0.0011	0.0028	-23.8770	26.9165	-1.4884	-0.0728	0.1340	0.7724	-0.6165
9.55	-0.5135	-9.2865	-2.1850	0.0049	0.0031	0.0009	-23.8604	26.9394	-1.7127	-0.0729	0.1339	0.7725	-0.6165
9.56	-0.5074	-9.2852	-2.1843	0.0051	0.0006	0.0030	-23.6039	26.9230	-1.8721	-0.0729	0.1339	0.7724	-0.6164
9.57	-0.5032	-9.2928	-2.1834	0.0029	0.0009	0.0007	-23.7571	27.0404	-1.4477	-0.0729	0.1339	0.7725	-0.6165
9.58	-0.5049	-9.2933	-2.1863	0.0079	-0.0019	0.0027	-23.9560	26.9904	-1.4875	-0.0729	0.1339	0.7725	-0.6164
9.59	-0.5028	-9.2828	-2.1817	0.0055	0.0002	0.0041	-23.7289	27.0431	-1.6607	-0.0729	0.1339	0.7726	-0.6165
9.6	-0.4985	-9.2917	-2.1845	0.0019	0.0058	0.0056	-23.6313	26.9155	-1.9349	-0.0729	0.1339	0.7725	-0.6164
9.61	-0.5045	-9.2872	-2.1906	0.0064	0.0048	0.0046	-23.7101	26.7470	-1.7152	-0.0729	0.1339	0.7725	-0.6164
9.62	-0.5055	-9.2872	-2.1937	0.0040	-0.0010	0.0048	-23.6084	26.7756	-1.5565	-0.0729	0.1339	0.7725	-0.6164
9.63	-0.5155	-9.2885	-2.1994	0.0031	0.0057	0.0010	-23.6582	26.8193	-1.4292	-0.0729	0.1339	0.7725	-0.6163
9.64	-0.5187	-9.2882	-2.2055	0.0063	0.0066	0.0059	-23.6212	27.0666	-1.6722	-0.0730	0.1340	0.7726	-0.6164
9.65	-0.5179	-9.2866	-2.2099	0.0095	-0.0010	0.0037	-23.7959	27.1101	-1.7312	-0.0730	0.1340	0.7726	-0.6163
9.66	-0.5225	-9.2812	-2.2107	0.0113	0.0044	0.0069	-23.7416	27.0545	-1.7325	-0.0730	0.1340	0.7726	-0.6164
9.67	-0.5132	-9.2857	-2.2159	0.0080	0.0064	-0.0005	-23.6958	26.9127	-1.6033	-0.0730	0.1340	0.7725	-0.6163
9.68	-0.5078	-9.2902	-2.2170	0.0069	0.0075	0.0060	-23.6262	26.8527	-1.8756	-0.0731	0.1340	0.7726	-0.6163
9.69	-0.5068	-9.2830	-2.2020	0.0112	0.0077	0.0041	-23.7877	26.9966	-1.6612	-0.0731	0.1340	0.7725	-0.6163
9.7	-0.5051	-9.2838	-2.1914	0.0069	0.0100	0.0012	-23.8026	27.0592	-1.4022	-0.0731	0.1340	0.7725	-0.6163
9.71	-0.5149	-9.2956	-2.1943	0.0075	0.0089	0.0020	-23.8863	27.3118	-1.5944	-0.0732	0.1341	0.7726	-0.6163
9.72	-0.5147	-9.2828	-2.1844	0.0080	0.0072	0.0080	-23.7659	27.0789	-1.5041	-0.0732	0.1341	0.7725	-0.6163
9.73	-0.5285	-9.2770	-2.1771	0.0039	0.0068	0.0021	-23.8386	26.9928	-1.6301	-0.0732	0.1341	0.7726	-0.6163
9.74	-0.5374	-9.2841	-2.1776	0.0080	0.0092	0.0026	-23.6893	27.0141	-1.6094	-0.0733	0.1341	0.7725	-0.6162
9.75	-0.5402	-9.2900	-2.1805	0.0073	0.0068	0.0022	-23.6516	27.0299	-1.7772	-0.0733	0.1341	0.7726	-0.6163
9.76	-0.5401	-9.2799	-2.1722	0.0043	0.0013	0.0065	-23.8564	27.1143	-1.5915	-0.0733	0.1341	0.7726	-0.6162
9.77	-0.5402	-9.2868	-2.1752	0.0063	0.0015	0.0049	-23.4553	27.1393	-1.3194	-0.0733	0.1342	0.7726	-0.6162
9.78	-0.5360	-9.2902	-2.1770	0.0051	-0.0052	0.0128	-23.1291	27.2918	-1.4087	-0.0733	0.1342	0.7726	-0.6162
9.79	-0.5300	-9.2797	-2.1650	0.0113	-0.0033	0.0127	-23.6431	27.2065	-1.5851	-0.0733	0.1342	0.7726	-0.6162
9.8	-0.5244	-9.2844	-2.1717	0.0105	-0.0084	0.0141	-23.7752	27.6007	-1.6823	-0.0732	0.1342	0.7726	-0.6163
9.81	-0.5161	-9.2903	-2.1708	0.0098	0.0030	0.0114	-23.7530	27.4191	-1.7739	-0.0732	0.1342	0.7725	-0.6162
9.82	-0.5129	-9.2859	-2.1719	0.0088	0.0034	0.0135	-23.6926	26.9029	-1.6590	-0.0732	0.1343	0.7726	-0.6163
9.83	-0.5204	-9.2856	-2.1679	0.0078	-0.0033	0.0134	-23.7392	26.9675	-1.7016	-0.0731	0.1343	0.7725	-0.6163
9.84	-0.5295	-9.2892	-2.1772	0.0111	-0.0026	0.0129	-23.8005	26.8730	-1.8774	-0.0731	0.1343	0.7726	-0.6163
9.85	-0.5317	-9.2893	-2.1800	0.0105	0.0052	0.0073	-23.7776	26.8182	-1.7559	-0.0731	0.1343	0.7725	-0.6162
9.86	-0.5342	-9.2840	-2.1895	0.0126	0.0075	0.0076	-23.6540	26.8191	-1.7788	-0.0731	0.1344	0.7725	-0.6163
9.87	-0.5287	-9.2849	-2.1940	0.0184	0.0014	0.0104	-23.6298	27.1288	-1.7222	-0.0731	0.1344	0.7725	-0.6163
9.88	-0.5259	-9.2878	-2.2046	0.0115	0.0072	0.0032	-23.8088	27.1480	-1.6508	-0.0732	0.1344	0.7724	-0.6163
9.89	-0.5115	-9.2844	-2.2076	0.0084	-0.0002	0.0080	-23.7565	27.0315	-1.8235	-0.0732	0.1344	0.7725	-0.6164
9.9	-0.5006	-9.2914	-2.2049	0.0110	0.0038	0.0057	-23.8310	27.0886	-1.6990	-0.0732	0.1344	0.7724	-0.6163
9.91	-0.4943	-9.2904	-2.2037	0.0120	-0.0029	0.0063	-23.8690	27.2081	-1.7524	-0.0732	0.1344	0.7725	-0.6164
9.92	-0.4863	-9.2899	-2.2040	0.0091	-0.0004	0.0027	-23.8636	27.2349	-1.7988	-0.0732	0.1344	0.7724	-0.6163
9.93	-0.4886	-9.2863	-2.2099	0.0110	0.0047	0.0058	-23.8449	27.1819	-1.6641	-0.0732	0.1344	0.7725	-0.6164
9.94	-0.4919	-9.2873	-2.2048	0.0038	0.0005	0.0023	-23.9205	27.1432	-1.7098	-0.0732	0.1344	0.7724	-0.6164
9.95	-0.5015	-9.2883	-2.2141	0.0072	-0.0016	0.0036	-23.9082	27.0712	-1.6663	-0.0732	0.1344	0.7724	-0.6163
9.96	-0.5039	-9.2867	-2.2092	0.0083	-0.0065	0.0104	-23.6533	26.9719	-1.7903	-0.0732	0.1344	0.7725	-0.6164
9.97	-0.5047	-9.2817	-2.2068	0.0075	-0.0020	0.0060	-23.6123	26.9492	-1.7381	-0.0732	0.1344	0.7725	-0.6163
9.98	-0.5085	-9.2845	-2.2075	0.0087	-0.0053	0.0101	-23.6278	26.8787	-1.5974	-0.0731	0.1344	0.7725	-0.6164
9.99	-0.5072	-9.2858	-2.2015	0.0086	-0.0013	0.0100	-23.6269	26.8994	-1.5763	-0.0731	0.1344	0.7724	-0.6163
10	-0.5068	-9.2841	-2.1903	0.0095	-0.0014	0.0115	-23.5201	27.0040	-1.7172	-0.0731	0.1344	0.7725	-0.6164
10.01	-0.5015	-9.2899	-2.1934	0.0113	-0.0006	0.0109	-23.5729	26.9385	-1.6230	-0.0731	0.1345	0.7724	-0.6164
10.02	-0.4971	-9.2925	-2.1870	0.0064	0.0045	0.0069	-23.7119	26.8672	-1.5699	-0.0731	0.1345	0.7725	-0.6164
10.03	-0.5021	-9.2832	-2.1890	0.0069	0.0035	0.0040	-23.6896	26.9145	-1.6795	-0.0731	0.1345	0.7724	-0.6163
10.04	-0.5057	-9.2899	-2.1894	0.0111	0.0004	0.0111	-23.6022	26.8545	-1.8139	-0.0731	0.1345	0.7724	-0.6164
10.05	-0.5114	-9.2944	-2.1854	0.0055	0.0000	0.0151	-23.6451	26.9802	-1.6651	-0.0730	0.1346	0.7724	-0.6164
10.06	-0.5167	-9.2793	-2.1783	0.0063	0.0030	0.0152	-23.8813	26.8863	-1.7760	-0.0730	0.1346	0.7724	-0.6163
10.07	-0.5203	-9.2855	-2.1811	0.0067	0.0095	0.0068	-23.8265	26.9016	-1.7350	-0.0731	0.1346	0.7725	-0.6164
10.08	-0.5258	-9.2882	-2.1856	0.0060	0.0016	0.0125	-23.9343	26.9928	-1.7167	-0.0730	0.1347	0.7724	-0.6163
10.09	-0.5264	-9.2853	-2.1841	0.0104	0.0041	0.0115	-23.8400	27.2186	-1.8017	-0.0730	0.1347	0.7725	-0.6164
10.1	-0.5269	-9.2835	-2.1810	0.0089	0.0027	0.0112	-23.6636	27.1368	-1.7796	-0.0730	0.1347	0.7724	-0.6163
10.11	-0.5282	-9.2882	-2.1807	0.0072	-0.0006	0.0157	-23.8365	27.1566	-1.6233	-0.0730	0.1348	0.7724	-0.6163
10.12	-0.5248	-9.2950	-2.1924	0.0124	0.0049	0.0078	-23.8846	27.2571	-1.6733	-0.0730	0.1348	0.7724	-0.6164
10.13	-0.5192	-9.2812	-2.1773	0.0169	0.0044	0.0077	-23.5135	27.1526	-1.6093	-0.0730	0.1348	0.7723	-0.6163
10.14	-0.5193	-9.2870	-2.1802	0.0085	0.0056	0.0117	-23.6752	27.0248	-1.6881	-0.0730	0.1349	0.7724	-0.6164
10.15	-0.5203	-9.2966	-2.1865	0.0085	-0.0023	0.0144	-23.7812	26.9870	-1.9371	-0.0730	0.1349	0.7724	-0.6164
10.16	-0.5253	-9.2815	-2.1835	0.0065	-0.0017	0.0104	-23.6632	27.1187	-1.7220	-0.0730	0.1349	0.7724	-0.6164
10.17	-0.5271	-9.2824	-2.1840	0.0069	-0.0022	0.0026	-23.7253	26.8698	-1.5509	-0.0730	0.1349	0.7723	-0.6163
10.18	-0.5315	-9.2869	-2.1958	0.0112	-0.0025	0.0058	-23.6850	26.9003	-1.8579	-0.0730	0.1349	0.7724	-0.6164
10.19	-0.5340	-9.2823	-2.1917	0.0056	-0.0037	0.0153	-23.5482	26.8939	-1.7880	-0.0729	0.1349	0.7724	-0.6164
10.2	-0.5363	-9.2828	-2.1955	0.0149	0.0046	0.0125	-23.5876	26.8981	-1.7651	-0.0729	0.1350	0.7723	-0.6164
10.21	-0.5398	-9.2876	-2.1916	0.0123	-0.0044	0.0098	-23.6516	26.8833	-1.7405	-0.0729	0.1350	0.7723	-0.6164
10.22	-0.5397	-9.2869	-2.1935	0.0074	-0.0007	0.0066	-23.7040	27.0391	-1.6966	-0.0729	0.1350	0.7723	-0.6164
10.23	-0.5289	-9.2808	-2.1907	0.0104	-0.0047	0.0055	-23.5307	27.0610	-1.7945	-0.0729	0.1350	0.7724	-0.6165
10.24	-0.5259	-9.2882	-2.1910	0.0074	-0.0067	0.0148	-23.6008	27.0821	-1.7574	-0.0728	0.1350	0.7723	-0.6164
10.25	-0.5154	-9.2906	-2.1948	0.0034	-0.0026	0.0070	-23.7501	26.9188	-1.8805	-0.0728	0.1350	0.7724	-0.6164
10.26	-0.5066	-9.2846	-2.1890	0.0041	0.0027	0.0060	-23.7477	26.9327	-1.5271	-0.0728	0.1350	0.7723	-0.6164
10.27	-0.5033	-9.2826	-2.1866	0.0038	0.0008	0.0049	-23.4183	27.2500	-1.5126	-0.0728	0.1350	0.7724	-0.6164
10.28	-0.5057	-9.2903	-2.1911	0.0064	-0.0022	0.0086	-23.1280	27.1264	-1.4357	-0.0728	0.1350	0.7724	-0.6164
10.29	-0.5018	-9.2904	-2.1958	0.0071	0.0067	0.0018	-23.6696	27.0558	-1.4353	-0.0728	0.1350	0.7724	-0.6164
10.3	-0.5045	-9.2874	-2.1925	0.0080	0.0046	0.0073	-23.7030	27.5240	-1.4144	-0.0728	0.1350	0.7724	-0.6164
10.31	-0.5085	-9.2945	-2.1959	0.0015	0.0054	0.0016	-23.7802	27.4726	-1.7358	-0.0728	0.1350	0.7723	-0.6163
10.32	-0.5071	-9.2943	-2.1950	0.0043	0.0038	0.0012	-23.7130	27.0364	-1.7444	-0.0729	0.1350	0.7725	-0.6163
10.33	-0.5175	-9.2857	-2.2024	0.0021	0.0027	0.0025	-23.7837	26.9644	-1.5509	-0.0729	0.1350	0.7724	-0.6163
10.34	-0.5230	-9.2847	-2.2017	0.0067	0.0070	0.0082	-23.7711	26.9870	-1.6210	-0.0729	0.1351	0.7725	-0.6163
10.35	-0.5235	-9.2918	-2.2078	0.0072	-0.0013	0.0030	-23.6298	27.0209	-1.7297	-0.0729	0.1350	0.7724	-0.6162
10.36	-0.5155	-9.2860	-2.2133	0.0083	0.0076	0.0028	-23.6398	27.0446	-1.7586	-0.0729	0.1351	0.7724	-0.6163
10.37	-0.5105	-9.2788	-2.2127	0.0082	0.0069	0.0123	-23.6890	27.0946	-1.6475	-0.0729	0.1351	0.7724	-0.6163
10.38	-0.5033	-9.2900	-2.2133	0.0072	0.0046	0.0095	-23.7522	26.8971	-1.7308	-0.0729	0.1351	0.7724	-0.6162
10.39	-0.5055	-9.2894	-2.2130	0.0072	0.0059	0.0029	-23.6228	27.0551	-1.6276	-0.0730	0.1352	0.7725	-0.6163
10.4	-0.5082	-9.2810	-2.2025	0.0101	0.0004	0.0048	-23.7976	26.9999	-1.5499	-0.0730	0.1351	0.7724	-0.6162
10.41	-0.5115	-9.2885	-2.1996	0.0109	-0.0008	0.0031	-23.5877	27.0415	-1.7459	-0.0730	0.1351	0.7725	-0.6163
10.42	-0.5206	-9.2894	-2.1994	0.0070	-0.0036	0.0068	-23.5478	27.0050	-1.7306	-0.0730	0.1351	0.7724	-0.6162
10.43	-0.5271	-9.2816	-2.1842	0.0046	-0.0060	0.0099	-23.6805	27.0518	-1.6178	-0.0729	0.1351	0.7725	-0.6163
10.44	-0.5251	-9.2857	-2.1827	0.0110	0.0009	0.0032	-23.7815	26.9384	-1.5160	-0.0729	0.1351	0.7724	-0.6163
10.45	-0.5330	-9.2945	-2.1744	0.0086	0.0059	0.0032	-23.8325	27.0084	-1.6502	-0.0730	0.1351	0.7724	-0.6162
10.46	-0.5328	-9.2878	-2.1744	0.0061	0.0068	0.0073	-23.6963	27.0135	-1.6484	-0.0730	0.1352	0.7725	-0.6163
10.47	-0.5247	-9.2789	-2.1644	0.0055	0.0050	0.0037	-23.8933	26.9222	-1.5111	-0.0730	0.1352	0.7724	-0.6162
10.48	-0.5253	-9.2898	-2.1685	0.0055	0.0041	0.0033	-23.8316	27.0947	-1.6441	-0.0730	0.1352	0.7725	-0.6162
10.49	-0.5150	-9.2898	-2.1724	0.0084	-0.0002	0.0025	-23.8070	27.1727	-1.6478	-0.0730	0.1352	0.7724	-0.6162
10.5	-0.5094	-9.2832	-2.1742	0.0083	0.0017	0.0026	-23.7035	27.1859	-1.7678	-0.0731	0.1352	0.7725	-0.6162
10.51	-0.5074	-9.2872	-2.1732	0.0049	0.0039	0.0048	-23.7801	26.8618	-1.5188	-0.0731	0.1352	0.7725	-0.6162
10.52	-0.5159	-9.2932	-2.1743	0.0074	0.0002	0.0054	-23.8192	26.8915	-1.7143	-0.0731	0.1352	0.7725	-0.6162
10.53	-0.5208	-9.2886	-2.1726	0.0110	0.0040	0.0034	-23.8009	27.0610	-1.7412	-0.0731	0.1352	0.7724	-0.6162
10.54	-0.5265	-9.2813	-2.1733	0.0083	0.0099	0.0009	-23.6885	26.8428	-1.6153	-0.0731	0.1352	0.7725	-0.6162
10.55	-0.5321	-9.2823	-2.1907	0.0066	0.0008	0.0058	-23.8020	26.7345	-1.6368	-0.0731	0.1352	0.7725	-0.6162
10.56	-0.5276	-9.2880	-2.1914	0.0101	0.0106	0.0013	-23.7448	26.8438	-1.6605	-0.0732	0.1352	0.7724	-0.6161
10.57	-0.5227	-9.2821	-2.1947	0.0100	0.0039	0.0048	-23.6237	26.9765	-1.4940	-0.0732	0.1352	0.7725	-0.6162
10.58	-0.5173	-9.2907	-2.2067	0.0036	-0.0015	0.0019	-23.6677	27.0224	-1.5222	-0.0732	0.1352	0.7725	-0.6162
10.59	-0.5101	-9.2888	-2.2003	0.0031	-0.0016	0.0055	-23.6303	27.0365	-1.7591	-0.0732	0.1352	0.7725	-0.6162
10.6	-0.5039	-9.2831	-2.1972	0.0105	-0.0015	0.0112	-23.7360	26.9128	-1.7189	-0.0732	0.1352	0.7724	-0.6161
10.61	-0.5027	-9.2898	-2.1999	0.0036	-0.0031	0.0053	-23.8211	27.0743	-1.7354	-0.0732	0.1352	0.7725	-0.6161
10.62	-0.5022	-9.2935	-2.2088	0.0042	-0.0011	0.0055	-23.6226	26.8894	-1.7371	-0.0732	0.1352	0.7725	-0.6161
10.63	-0.4995	-9.2839	-2.2116	0.0093	0.0045	0.0049	-23.7285	26.9081	-1.6424	-0.0732	0.1352	0.7725	-0.6161
10.64	-0.5048	-9.2852	-2.2052	0.0077	0.0079	0.0018	-23.8019	26.9522	-1.7357	-0.0732	0.1352	0.7726	-0.6162
10.65	-0.5104	-9.2936	-2.2098	0.0072	-0.0031	0.0046	-23.8383	26.9303	-1.8648	-0.0732	0.1352	0.7725	-0.6161
10.66	-0.5109	-9.2859	-2.2044	0.0043	0.0018	0.0006	-23.8759	26.9255	-1.7290	-0.0732	0.1352	0.7726	-0.6161
10.67	-0.5140	-9.2817	-2.2039	0.0073	0.0010	0.0037	-23.6131	27.0194	-1.7416	-0.0732	0.1352	0.7725	-0.6160
10.68	-0.5098	-9.2845	-2.1966	0.0034	0.0053	0.0020	-23.6654	27.1254	-1.8253	-0.0733	0.1352	0.7726	-0.6161
10.69	-0.5056	-9.2861	-2.2082	0.0054	0.0027	0.0035	-23.6158	27.2463	-1.8525	-0.0733	0.1352	0.7725	-0.6160
10.7	-0.5078	-9.2821	-2.1877	0.0103	-0.0016	0.0067	-23.7123	27.0137	-1.7171	-0.0733	0.1352	0.7725	-0.6160
10.71	-0.5059	-9.2902	-2.1873	0.0031	-0.0001	0.0021	-23.8183	27.0271	-1.7686	-0.0733	0.1352	0.7726	-0.6161
10.72	-0.5051	-9.2895	-2.1905	0.0066	-0.0019	0.0052	-23.8024	26.9758	-1.7705	-0.0733	0.1352	0.7726	-0.6160
10.73	-0.5110	-9.2877	-2.1862	0.0038	-0.0059	0.0040	-23.7902	26.9453	-1.5885	-0.0732	0.1352	0.7726	-0.6160
10.74	-0.5166	-9.2779	-2.1763	0.0080	0.0041	0.0078	-23.5316	26.7844	-1.6684	-0.0732	0.1352	0.7725	-0.6160
10.75	-0.5226	-9.2873	-2.1775	0.0048	0.0005	0.0044	-23.6007	26.6564	-1.5089	-0.0733	0.1352	0.7726	-0.6160
10.76	-0.5255	-9.2913	-2.1816	0.0042	-0.0021	0.0063	-23.6503	27.0286	-1.5850	-0.0732	0.1352	0.7726	-0.6160
10.77	-0.5254	-9.2836	-2.1682	0.0091	0.0076	0.0026	-23.4323	26.9726	-1.4977	-0.0733	0.1352	0.7726	-0.6160
10.78	-0.5271	-9.2877	-2.1838	0.0149	0.0044	0.0044	-23.1911	26.7267	-1.1741	-0.0733	0.1352	0.7726	-0.6160
10.79	-0.5203	-9.2872	-2.1850	0.0111	-0.0024	0.0052	-23.3149	27.2233	-1.5681	-0.0733	0.1352	0.7726	-0.6160
10.8	-0.5190	-9.2849	-2.1874	0.0075	-0.0031	0.0084	-23.5497	27.6003	-1.7916	-0.0733	0.1352	0.7726	-0.6160
10.81	-0.5134	-9.2844	-2.1802	0.0110	-0.0027	0.0099	-23.7034	27.4510	-1.7354	-0.0732	0.1352	0.7725	-0.6160
10.82	-0.5113	-9.2957	-2.1951	0.0079	-0.0036	0.0065	-23.7308	27.0737	-1.6704	-0.0732	0.1352	0.7726	-0.6161
10.83	-0.5091	-9.2828	-2.1896	0.0125	-0.0000	0.0050	-23.8494	27.2208	-1.4755	-0.0732	0.1352	0.7725	-0.6160
10.84	-0.5132	-9.2812	-2.1831	0.0127	0.0037	0.0103	-23.9378	27.0023	-1.5874	-0.0732	0.1352	0.7726	-0.6161
10.85	-0.5170	-9.2883	-2.1941	0.0120	0.0029	0.0086	-23.5928	27.0468	-1.4589	-0.0732	0.1352	0.7725	-0.6160
10.86	-0.5203	-9.2885	-2.1962	0.0098	0.0072	0.0060	-23.8010	27.1325	-1.5397	-0.0733	0.1353	0.7725	-0.6161
10.87	-0.5234	-9.2757	-2.1918	0.0097	0.0058	0.0117	-23.8932	27.0834	-1.7060	-0.0733	0.1353	0.7725	-0.6161
10.88	-0.5269	-9.2819	-2.1897	0.0123	0.0025	0.0060	-23.9331	27.1999	-1.6564	-0.0733	0.1353	0.7724	-0.6161
10.89	-0.5318	-9.2884	-2.1917	0.0093	-0.0007	0.0082	-23.9803	27.0886	-1.6705	-0.0733	0.1354	0.7725	-0.6162
10.9	-0.5289	-9.2887	-2.1882	0.0113	0.0000	0.0104	-23.7963	27.0043	-1.6911	-0.0732	0.1354	0.7725	-0.6161
10.91	-0.5287	-9.2860	-2.1897	0.0098	0.0028	0.0065	-23.6309	26.8327	-1.7806	-0.0733	0.1354	0.7725	-0.6162
10.92	-0.5227	-9.2888	-2.1866	0.0161	-0.0031	0.0076	-23.6438	26.6622	-1.6285	-0.0732	0.1354	0.7724	-0.6161
10.93	-0.5143	-9.2769	-2.1874	0.0127	-0.0006	0.0038	-23.6235	26.9603	-1.6603	-0.0733	0.1354	0.7724	-0.6162
10.94	-0.5134	-9.2783	-2.1789	0.0062	-0.0016	0.0087	-23.6609	26.8796	-1.6534	-0.0732	0.1354	0.7724	-0.6162
10.95	-0.5119	-9.2925	-2.1860	0.0052	-0.0016	0.0084	-23.5516	26.6468	-1.6470	-0.0732	0.1354	0.7724	-0.6161
10.96	-0.5068	-9.2886	-2.1888	0.0137	-0.0067	0.0104	-23.5607	26.9257	-1.6515	-0.0732	0.1354	0.7724	-0.6162
10.97	-0.5001	-9.2797	-2.1772	0.0125	-0.0005	0.0093	-23.7782	26.9155	-1.7992	-0.0732	0.1354	0.7724	-0.6162
10.98	-0.4997	-9.2853	-2.1835	0.0078	-0.0030	0.0086	-23.8213	26.8446	-1.6472	-0.0731	0.1354	0.7724	-0.6162
10.99	-0.5027	-9.2949	-2.1886	0.0135	-0.0027	0.0045	-23.7030	26.8740	-1.7445	-0.0731	0.1354	0.7723	-0.6162
11	-0.5022	-9.2850	-2.1852	0.0142	-0.0016	0.0095	-23.6354	26.9605	-1.7289	-0.0731	0.1354	0.7724	-0.6163
11.01	-0.5094	-9.2858	-2.1900	0.0073	-0.0013	0.0091	-23.7456	26.9375	-1.7786	-0.0731	0.1354	0.7724	-0.6163
11.02	-0.5175	-9.2916	-2.2034	0.0089	-0.0007	0.0080	-23.6896	27.0073	-1.5954	-0.0731	0.1354	0.7724	-0.6163
11.03	-0.5200	-9.2878	-2.2153	0.0078	0.0072	0.0105	-23.8191	27.1370	-1.5525	-0.0731	0.1354	0.7723	-0.6162
11.04	-0.5153	-9.2758	-2.2023	0.0112	0.0002	0.0021	-23.8961	27.2058	-1.6056	-0.0731	0.1354	0.7724	-0.6163
11.05	-0.5057	-9.2879	-2.2186	0.0181	-0.0034	0.0073	-23.6907	27.0145	-1.7442	-0.0731	0.1354	0.7723	-0.6163
11.06	-0.5081	-9.2896	-2.2197	0.0126	-0.0011	0.0090	-23.8169	27.1136	-1.6906	-0.0731	0.1354	0.7722	-0.6163
11.07	-0.5029	-9.2844	-2.2060	0.0141	0.0009	0.0116	-23.6850	27.1059	-1.5367	-0.0731	0.1355	0.7723	-0.6164
11.08	-0.5045	-9.2844	-2.2003	0.0097	-0.0017	0.0084	-23.7884	27.2617	-1.6348	-0.0731	0.1355	0.7723	-0.6163
11.09	-0.5097	-9.2937	-2.2018	0.0146	-0.0012	0.0141	-23.7404	26.7802	-1.6998	-0.0730	0.1355	0.7723	-0.6164
11.1	-0.5174	-9.2855	-2.1925	0.0085	-0.0012	0.0145	-23.6320	26.8903	-1.9569	-0.0730	0.1355	0.7722	-0.6164
11.11	-0.5277	-9.2800	-2.1834	0.0137	-0.0011	0.0080	-23.4756	26.9240	-1.8574	-0.0730	0.1355	0.7722	-0.6164
11.12	-0.5339	-9.2916	-2.1883	0.0116	-0.0016	0.0033	-23.3991	26.9252	-1.6624	-0.0730	0.1355	0.7722	-0.6164
11.13	-0.5424	-9.2840	-2.1778	0.0078	-0.0015	0.0098	-23.5768	26.8762	-1.5753	-0.0730	0.1355	0.7722	-0.6164
11.14	-0.5385	-9.2744	-2.1723	0.0088	-0.0034	0.0044	-23.5522	26.8912	-1.5639	-0.0730	0.1355	0.7723	-0.6165
11.15	-0.5402	-9.2824	-2.1670	0.0079	-0.0012	0.0072	-23.6685	26.9209	-1.6921	-0.0730	0.1355	0.7722	-0.6164
11.16	-0.5375	-9.2906	-2.1680	0.0109	-0.0018	0.0151	-23.6073	26.9105	-1.6212	-0.0729	0.1355	0.7723	-0.6165
11.17	-0.5281	-9.2757	-2.1598	0.0125	-0.0011	0.0072	-23.7400	26.9607	-1.7685	-0.0729	0.1355	0.7721	-0.6164
11.18	-0.5182	-9.2859	-2.1691	0.0068	-0.0038	0.0034	-23.6946	26.8699	-1.7224	-0.0729	0.1355	0.7722	-0.6165
11.19	-0.5181	-9.2935	-2.1793	0.0087	0.0008	0.0008	-23.6147	27.1194	-1.6113	-0.0729	0.1355	0.7722	-0.6165
11.2	-0.5129	-9.2889	-2.1769	0.0087	0.0038	0.0032	-23.6982	26.9075	-1.4743	-0.0729	0.1355	0.7722	-0.6164
11.21	-0.5170	-9.2801	-2.1665	0.0114	0.0015	0.0041	-23.9211	27.0624	-1.4980	-0.0729	0.1355	0.7722	-0.6165
11.22	-0.5268	-9.2954	-2.1788	0.0083	-0.0014	0.0057	-23.8391	27.1104	-1.6006	-0.0729	0.1355	0.7722	-0.6165
11.23	-0.5392	-9.2874	-2.1819	0.0095	-0.0031	0.0024	-23.7896	27.1499	-1.5540	-0.0729	0.1355	0.7722	-0.6165
11.24	-0.5361	-9.2746	-2.1827	0.0066	-0.0027	0.0017	-23.8024	27.3104	-1.6706	-0.0729	0.1355	0.7721	-0.6164
11.25	-0.5294	-9.2869	-2.1999	0.0130	0.0057	0.0040	-23.8083	27.0393	-1.6764	-0.0730	0.1355	0.7722	-0.6165
11.26	-0.5188	-9.2960	-2.2107	0.0096	0.0042	-0.0022	-23.7580	27.0558	-1.6172	-0.0730	0.1355	0.7722	-0.6165
11.27	-0.5110	-9.2833	-2.2020	0.0113	-0.0060	0.0025	-23.4322	26.9690	-1.4929	-0.0730	0.1354	0.7722	-0.6165
11.28	-0.4985	-9.2874	-2.2035	0.0058	0.0010	0.0067	-23.1734	26.7711	-1.3765	-0.0730	0.1354	0.7722	-0.6165
11.29	-0.4934	-9.2982	-2.2111	0.0122	0.0033	0.0018	-23.2822	27.0106	-1.4940	-0.0730	0.1354	0.7722	-0.6165
11.3	-0.4868	-9.2882	-2.2029	0.0151	0.0091	0.0066	-23.3282	27.6415	-1.6541	-0.0731	0.1355	0.7722	-0.6165
11.31	-0.4865	-9.2824	-2.2025	0.0024	0.0010	0.0100	-23.4474	27.4090	-1.7256	-0.0730	0.1355	0.7721	-0.6165
11.32	-0.4953	-9.2940	-2.2143	-0.0010	-0.0000	0.0035	-23.6098	26.6496	-1.8183	-0.0730	0.1355	0.7722	-0.6165
11.33	-0.4980	-9.2956	-2.2206	0.0032	-0.0032	0.0061	-23.7714	27.0990	-1.8451	-0.0730	0.1355	0.7722	-0.6164
