time	acceleration_x	acceleration_y	acceleration_z	gyroscope_x	gyroscope_y	gyroscope_z	magnetometer_x	magnetometer_y	magnetometer_z	quaternion_w	quaternion_x	quaternion_y	quaternion_z
0	-9.5757	-0.2434	0.8498	-0.0198	0.0091	-0.0576	17.2144	-15.7103	-8.9813	-0.1335	-0.6606	-0.1348	0.7263
0.01	-9.5766	-0.2339	0.8463	-0.0103	0.0035	-0.0565	17.2330	-15.8603	-8.8501	-0.1335	-0.6607	-0.1349	0.7263
0.02	-9.5763	-0.2359	0.8491	-0.0103	-0.0055	-0.0567	17.1396	-15.7619	-8.7374	-0.1335	-0.6607	-0.1349	0.7263
0.03	-9.5810	-0.2339	0.8489	-0.0047	-0.0056	-0.0598	17.1849	-16.0063	-8.5997	-0.1334	-0.6606	-0.1349	0.7263
0.04	-9.5847	-0.2261	0.8493	-0.0112	0.0003	-0.0559	17.2296	-15.8774	-8.5973	-0.1334	-0.6607	-0.1349	0.7263
0.05	-9.5891	-0.2206	0.8507	-0.0170	0.0015	-0.0583	16.9343	-15.8358	-8.7543	-0.1334	-0.6607	-0.1349	0.7263
0.06	-9.5899	-0.2159	0.8478	-0.0232	-0.0060	-0.0562	17.1919	-15.9187	-8.8115	-0.1335	-0.6607	-0.1350	0.7263
0.07	-9.5903	-0.2159	0.8523	-0.0245	-0.0016	-0.0555	17.2385	-15.5845	-8.7097	-0.1335	-0.6606	-0.1350	0.7262
0.08	-9.5918	-0.2261	0.8506	-0.0280	-0.0020	-0.0567	16.8662	-15.7994	-8.4578	-0.1336	-0.6607	-0.1351	0.7263
0.09	-9.5897	-0.2340	0.8430	-0.0275	0.0031	-0.0568	17.0205	-15.7991	-8.7536	-0.1336	-0.6607	-0.1352	0.7262
0.1	-9.5967	-0.2458	0.8420	-0.0258	0.0082	-0.0483	17.0320	-15.9004	-8.7947	-0.1337	-0.6607	-0.1353	0.7262
0.11	-9.5989	-0.2552	0.8390	-0.0284	-0.0063	-0.0480	17.0385	-15.9860	-8.7952	-0.1338	-0.6607	-0.1353	0.7261
0.12	-9.6015	-0.2563	0.8407	-0.0260	-0.0071	-0.0454	17.0111	-16.0403	-8.7503	-0.1339	-0.6607	-0.1353	0.7261
0.13	-9.5978	-0.2559	0.8367	-0.0171	-0.0031	-0.0433	17.0926	-15.8603	-8.6783	-0.1339	-0.6607	-0.1353	0.7261
0.14	-9.6063	-0.2459	0.8451	-0.0174	-0.0077	-0.0403	17.1450	-15.8071	-8.6992	-0.1340	-0.6606	-0.1353	0.7261
0.15	-9.6342	-0.2482	0.8492	-0.0203	-0.0122	-0.0505	16.9979	-15.9015	-8.7048	-0.1341	-0.6607	-0.1354	0.7262
0.16	-9.6166	-0.2451	0.8556	-0.0152	-0.0152	-0.0553	17.0780	-15.5408	-8.9841	-0.1341	-0.6606	-0.1354	0.7262
0.17	-9.6160	-0.2345	0.8585	-0.0054	-0.0116	-0.0479	17.1628	-16.0288	-8.6956	-0.1341	-0.6606	-0.1353	0.7263
0.18	-9.5928	-0.2249	0.8646	-0.0019	-0.0083	-0.0573	16.9962	-15.8893	-8.6896	-0.1341	-0.6605	-0.1353	0.7262
0.19	-9.5602	-0.2198	0.8749	-0.0068	-0.0201	-0.0606	16.9616	-15.8105	-8.8270	-0.1341	-0.6605	-0.1353	0.7263
0.2	-9.5763	-0.2273	0.8769	-0.0047	-0.0127	-0.0576	17.0572	-15.8023	-8.9308	-0.1341	-0.6605	-0.1353	0.7263
0.21	-9.5821	-0.2209	0.8812	-0.0050	-0.0179	-0.0536	17.0172	-15.6025	-8.7586	-0.1340	-0.6604	-0.1353	0.7263
0.22	-9.5643	-0.2062	0.8943	-0.0106	-0.0210	-0.0462	17.1368	-15.7869	-8.9463	-0.1341	-0.6604	-0.1353	0.7265
0.23	-9.5595	-0.1922	0.8979	-0.0131	-0.0140	-0.0503	17.1302	-15.7899	-8.7588	-0.1341	-0.6603	-0.1352	0.7264
0.24	-9.5622	-0.1866	0.8947	-0.0167	-0.0112	-0.0460	17.0649	-15.7056	-8.5171	-0.1342	-0.6603	-0.1352	0.7265
0.25	-9.5650	-0.1856	0.9005	-0.0235	-0.0096	-0.0528	17.0069	-15.7510	-8.8379	-0.1342	-0.6602	-0.1353	0.7264
0.26	-9.5584	-0.1918	0.9002	-0.0236	-0.0060	-0.0493	17.0638	-15.6041	-8.6516	-0.1343	-0.6603	-0.1353	0.7265
0.27	-9.5558	-0.2044	0.8872	-0.0242	-0.0060	-0.0516	16.9759	-15.6946	-8.7630	-0.1344	-0.6602	-0.1354	0.7264
0.28	-9.5665	-0.2139	0.8849	-0.0286	-0.0000	-0.0574	16.9207	-15.8166	-8.8220	-0.1344	-0.6602	-0.1354	0.7264
0.29	-9.5794	-0.2244	0.8912	-0.0263	0.0016	-0.0568	17.0410	-15.8355	-8.6626	-0.1345	-0.6602	-0.1356	0.7264
0.3	-9.5890	-0.2310	0.8956	-0.0238	-0.0010	-0.0450	17.4576	-15.6455	-8.4661	-0.1344	-0.6603	-0.1354	0.7264
0.31	-9.5933	-0.2375	0.8937	-0.0210	-0.0071	-0.0513	17.6412	-15.4862	-8.5816	-0.1343	-0.6603	-0.1353	0.7264
0.32	-9.5965	-0.2422	0.8964	-0.0138	-0.0097	-0.0551	17.3965	-15.7178	-8.6843	-0.1343	-0.6602	-0.1353	0.7264
0.33	-9.5977	-0.2493	0.8965	-0.0150	-0.0145	-0.0488	17.3580	-15.8152	-8.6601	-0.1344	-0.6602	-0.1353	0.7265
0.34	-9.5906	-0.2380	0.9017	-0.0144	-0.0142	-0.0539	17.1918	-15.9777	-8.5453	-0.1344	-0.6602	-0.1354	0.7265
0.35	-9.5820	-0.2361	0.9022	-0.0117	-0.0051	-0.0519	17.1761	-16.0001	-8.8472	-0.1344	-0.6602	-0.1354	0.7265
0.36	-9.5800	-0.2348	0.9074	-0.0052	-0.0140	-0.0434	17.1723	-15.8636	-8.7422	-0.1345	-0.6601	-0.1353	0.7265
0.37	-9.5756	-0.2341	0.9050	-0.0137	-0.0136	-0.0462	17.3340	-15.8586	-8.5893	-0.1345	-0.6601	-0.1353	0.7265
0.38	-9.5739	-0.2263	0.9112	-0.0084	-0.0130	-0.0424	17.3279	-15.7436	-8.7740	-0.1346	-0.6601	-0.1352	0.7266
0.39	-9.5692	-0.2229	0.9081	-0.0053	-0.0083	-0.0441	17.1616	-15.8893	-8.9535	-0.1346	-0.6600	-0.1352	0.7265
0.4	-9.5674	-0.2167	0.9090	-0.0021	-0.0066	-0.0433	17.1854	-15.8736	-8.7029	-0.1346	-0.6601	-0.1351	0.7266
0.41	-9.5671	-0.2107	0.9093	-0.0031	-0.0066	-0.0403	17.0269	-15.8721	-8.7539	-0.1346	-0.6601	-0.1351	0.7266
0.42	-9.5601	-0.2067	0.9099	-0.0043	-0.0022	-0.0470	16.9768	-15.6327	-8.7459	-0.1347	-0.6601	-0.1350	0.7266
0.43	-9.5609	-0.2018	0.9126	-0.0048	-0.0057	-0.0438	17.1189	-15.5826	-8.7477	-0.1347	-0.6601	-0.1350	0.7265
0.44	-9.5634	-0.2030	0.9094	-0.0022	-0.0030	-0.0466	17.0513	-15.8922	-8.6261	-0.1347	-0.6601	-0.1349	0.7266
0.45	-9.5621	-0.1982	0.9069	-0.0022	-0.0011	-0.0550	16.8218	-15.7902	-8.6644	-0.1347	-0.6601	-0.1349	0.7266
0.46	-9.5648	-0.1908	0.9050	-0.0021	0.0034	-0.0521	17.1227	-15.5609	-8.6421	-0.1346	-0.6601	-0.1349	0.7265
0.47	-9.5700	-0.1861	0.9049	-0.0028	-0.0020	-0.0555	17.0616	-15.8499	-8.7619	-0.1346	-0.6602	-0.1349	0.7266
0.48	-9.5640	-0.1865	0.9035	-0.0124	0.0019	-0.0567	17.0080	-15.7280	-8.7343	-0.1346	-0.6602	-0.1349	0.7265
0.49	-9.5628	-0.1803	0.9014	-0.0063	0.0082	-0.0572	16.9370	-15.7001	-8.7648	-0.1346	-0.6603	-0.1349	0.7265
0.5	-9.5632	-0.1822	0.8925	-0.0018	0.0027	-0.0559	16.8962	-15.6887	-8.6437	-0.1345	-0.6602	-0.1349	0.7264
0.51	-9.5694	-0.1825	0.8932	-0.0063	0.0069	-0.0564	17.1434	-15.8391	-8.7734	-0.1345	-0.6603	-0.1349	0.7265
0.52	-9.5715	-0.1754	0.8910	-0.0040	0.0062	-0.0564	17.0555	-15.8721	-8.6928	-0.1345	-0.6603	-0.1349	0.7264
0.53	-9.5788	-0.1778	0.8868	-0.0137	0.0087	-0.0567	17.1668	-15.9491	-8.6028	-0.1345	-0.6603	-0.1349	0.7264
0.54	-9.5921	-0.1784	0.8788	-0.0227	0.0122	-0.0521	17.2930	-15.9691	-8.7900	-0.1345	-0.6604	-0.1350	0.7263
0.55	-9.5964	-0.1832	0.8761	-0.0246	0.0138	-0.0500	17.2301	-15.9797	-8.7998	-0.1346	-0.6605	-0.1350	0.7262
0.56	-9.5990	-0.1899	0.8757	-0.0234	-0.0003	-0.0548	16.9356	-16.3201	-8.7126	-0.1346	-0.6605	-0.1351	0.7263
0.57	-9.5978	-0.1958	0.8699	-0.0286	0.0047	-0.0515	17.2098	-15.9208	-8.7345	-0.1347	-0.6604	-0.1351	0.7261
0.58	-9.5930	-0.2022	0.8702	-0.0252	0.0053	-0.0561	17.1436	-15.9115	-8.8726	-0.1348	-0.6605	-0.1352	0.7262
0.59	-9.5922	-0.2061	0.8675	-0.0176	0.0019	-0.0569	17.0954	-16.0829	-8.9152	-0.1348	-0.6605	-0.1353	0.7261
0.6	-9.5886	-0.2133	0.8656	-0.0252	0.0015	-0.0589	17.0038	-15.8328	-8.7184	-0.1348	-0.6605	-0.1353	0.7261
0.61	-9.5903	-0.2253	0.8660	-0.0263	0.0034	-0.0588	17.1017	-15.9157	-8.7565	-0.1348	-0.6605	-0.1354	0.7261
0.62	-9.5854	-0.2367	0.8645	-0.0257	0.0079	-0.0520	17.0623	-15.8230	-8.8482	-0.1349	-0.6606	-0.1355	0.7260
0.63	-9.5753	-0.2419	0.8673	-0.0290	0.0029	-0.0564	16.9798	-15.7979	-8.6278	-0.1349	-0.6606	-0.1356	0.7260
0.64	-9.5676	-0.2451	0.8637	-0.0257	0.0059	-0.0574	17.0099	-15.7069	-8.7515	-0.1350	-0.6605	-0.1356	0.7259
0.65	-9.5673	-0.2478	0.8628	-0.0239	0.0108	-0.0618	17.0058	-15.6019	-8.7392	-0.1350	-0.6607	-0.1358	0.7259
0.66	-9.5663	-0.2455	0.8700	-0.0143	0.0063	-0.0554	17.1379	-15.7505	-8.7678	-0.1350	-0.6606	-0.1358	0.7258
0.67	-9.5721	-0.2369	0.8673	-0.0089	0.0080	-0.0542	17.0092	-15.6260	-8.6665	-0.1350	-0.6607	-0.1358	0.7259
0.68	-9.5732	-0.2360	0.8616	-0.0128	0.0083	-0.0543	16.9971	-15.5091	-8.6546	-0.1350	-0.6607	-0.1358	0.7257
0.69	-9.5712	-0.2355	0.8619	-0.0044	0.0001	-0.0573	17.0134	-15.7778	-8.7635	-0.1350	-0.6608	-0.1358	0.7258
0.7	-9.5916	-0.2231	0.8631	-0.0060	0.0096	-0.0583	17.1684	-15.9612	-8.7553	-0.1349	-0.6608	-0.1358	0.7257
0.71	-9.5997	-0.2131	0.8607	-0.0050	0.0071	-0.0584	17.1836	-15.9720	-8.9723	-0.1349	-0.6608	-0.1358	0.7257
0.72	-9.5828	-0.2013	0.8561	-0.0059	-0.0008	-0.0627	17.1788	-15.8659	-8.6765	-0.1349	-0.6609	-0.1359	0.7258
0.73	-9.5801	-0.1982	0.8586	-0.0115	0.0077	-0.0585	17.0405	-15.8695	-8.6747	-0.1348	-0.6609	-0.1359	0.7257
0.74	-9.5845	-0.2037	0.8566	-0.0158	0.0053	-0.0611	17.1934	-15.6803	-8.7936	-0.1348	-0.6609	-0.1360	0.7257
0.75	-9.5650	-0.1970	0.8518	-0.0130	0.0020	-0.0590	17.0884	-15.7877	-8.6144	-0.1348	-0.6609	-0.1360	0.7256
0.76	-9.5833	-0.1961	0.8576	-0.0235	0.0063	-0.0566	16.9821	-16.0166	-8.8011	-0.1348	-0.6610	-0.1361	0.7256
0.77	-9.6218	-0.2089	0.8570	-0.0306	0.0015	-0.0575	17.1795	-15.9099	-8.8253	-0.1349	-0.6609	-0.1361	0.7256
0.78	-9.6281	-0.2187	0.8622	-0.0246	0.0129	-0.0560	17.1771	-15.8037	-8.8697	-0.1349	-0.6610	-0.1362	0.7255
0.79	-9.6155	-0.2231	0.8619	-0.0287	-0.0017	-0.0577	17.1825	-15.6770	-8.6057	-0.1350	-0.6610	-0.1363	0.7255
0.8	-9.5959	-0.2261	0.8559	-0.0272	-0.0015	-0.0515	17.3239	-15.7166	-8.2968	-0.1350	-0.6610	-0.1364	0.7254
0.81	-9.5724	-0.2384	0.8529	-0.0296	-0.0013	-0.0489	17.5978	-15.6617	-8.4652	-0.1351	-0.6610	-0.1364	0.7255
0.82	-9.5656	-0.2436	0.8520	-0.0269	0.0031	-0.0489	17.3158	-15.8087	-8.4838	-0.1352	-0.6609	-0.1365	0.7253
0.83	-9.5766	-0.2412	0.8488	-0.0297	0.0013	-0.0457	17.2705	-15.7423	-8.5709	-0.1353	-0.6610	-0.1365	0.7254
0.84	-9.5810	-0.2334	0.8409	-0.0226	-0.0003	-0.0428	17.0650	-15.7103	-8.6849	-0.1354	-0.6610	-0.1366	0.7253
0.85	-9.5728	-0.2328	0.8328	-0.0279	-0.0043	-0.0499	17.0929	-15.8641	-8.9577	-0.1354	-0.6610	-0.1366	0.7253
0.86	-9.5665	-0.2295	0.8314	-0.0227	0.0015	-0.0524	17.1650	-15.8165	-8.5299	-0.1355	-0.6610	-0.1367	0.7253
0.87	-9.5770	-0.2296	0.8253	-0.0161	0.0028	-0.0569	16.8474	-15.8305	-8.5545	-0.1355	-0.6610	-0.1367	0.7253
0.88	-9.5847	-0.2291	0.8297	-0.0193	0.0063	-0.0581	17.1126	-15.8645	-8.8006	-0.1355	-0.6610	-0.1368	0.7253
0.89	-9.5805	-0.2246	0.8250	-0.0116	0.0060	-0.0677	17.1265	-16.0236	-8.7800	-0.1355	-0.6610	-0.1368	0.7252
0.9	-9.5806	-0.2195	0.8286	-0.0051	0.0062	-0.0679	17.1448	-16.0939	-8.7726	-0.1354	-0.6611	-0.1369	0.7252
0.91	-9.5809	-0.2099	0.8262	-0.0031	0.0082	-0.0617	17.0751	-16.1015	-8.6501	-0.1354	-0.6611	-0.1369	0.7252
0.92	-9.5838	-0.2023	0.8254	-0.0097	0.0064	-0.0593	17.0686	-15.8217	-8.7619	-0.1353	-0.6612	-0.1369	0.7252
0.93	-9.5846	-0.1966	0.8226	-0.0233	0.0021	-0.0667	17.2734	-15.8590	-8.9084	-0.1353	-0.6611	-0.1370	0.7251
0.94	-9.5807	-0.1928	0.8182	-0.0264	0.0012	-0.0619	17.0356	-15.7619	-8.7128	-0.1353	-0.6612	-0.1371	0.7251
0.95	-9.5860	-0.2003	0.8234	-0.0276	0.0041	-0.0568	16.9276	-15.6531	-8.5544	-0.1354	-0.6612	-0.1372	0.7251
0.96	-9.5981	-0.2045	0.8211	-0.0285	0.0145	-0.0571	16.9690	-15.8572	-8.6987	-0.1354	-0.6612	-0.1373	0.7250
0.97	-9.5984	-0.2136	0.8163	-0.0268	0.0091	-0.0562	16.8407	-15.8313	-8.8017	-0.1355	-0.6613	-0.1374	0.7250
0.98	-9.6002	-0.2224	0.8123	-0.0411	0.0018	-0.0580	17.0226	-15.8072	-8.7722	-0.1355	-0.6612	-0.1375	0.7249
0.99	-9.6045	-0.2381	0.8112	-0.0424	0.0131	-0.0539	17.0505	-15.6995	-8.5936	-0.1357	-0.6613	-0.1376	0.7249
1	-9.6137	-0.2479	0.8083	-0.0383	0.0104	-0.0495	17.0269	-15.8521	-8.6160	-0.1357	-0.6613	-0.1377	0.7247
1.01	-9.6040	-0.2526	0.8093	-0.0349	0.0064	-0.0555	17.1736	-15.8144	-8.6897	-0.1358	-0.6613	-0.1378	0.7247
1.02	-9.5954	-0.2487	0.8046	-0.0276	0.0042	-0.0532	17.2280	-15.6751	-8.5648	-0.1359	-0.6613	-0.1379	0.7247
1.03	-9.5924	-0.2508	0.8066	-0.0286	-0.0001	-0.0494	16.9332	-15.6261	-8.6847	-0.1360	-0.6613	-0.1380	0.7246
1.04	-9.6257	-0.2572	0.8181	-0.0279	0.0013	-0.0531	16.9657	-15.8666	-8.8212	-0.1360	-0.6614	-0.1380	0.7246
1.05	-9.6258	-0.2725	0.8220	-0.0282	-0.0049	-0.0628	17.1931	-15.8011	-8.7284	-0.1361	-0.6613	-0.1381	0.7246
1.06	-9.5967	-0.2694	0.8268	-0.0273	-0.0148	-0.0597	17.2630	-15.6915	-8.7540	-0.1361	-0.6613	-0.1382	0.7247
1.07	-9.5853	-0.2717	0.8216	-0.0136	-0.0135	-0.0628	17.0280	-15.8736	-9.1624	-0.1361	-0.6612	-0.1382	0.7246
1.08	-9.5502	-0.2721	0.8304	-0.0189	-0.0045	-0.0633	16.9450	-15.7751	-8.6192	-0.1361	-0.6612	-0.1383	0.7247
1.09	-9.5560	-0.2754	0.8397	-0.0124	-0.0060	-0.0507	17.2685	-15.7909	-8.7182	-0.1361	-0.6612	-0.1383	0.7247
1.1	-9.5711	-0.2808	0.8451	-0.0084	-0.0094	-0.0541	17.3574	-15.8175	-8.7402	-0.1361	-0.6612	-0.1383	0.7247
1.11	-9.5659	-0.2564	0.8449	-0.0055	-0.0093	-0.0512	17.0754	-15.9594	-8.6696	-0.1361	-0.6611	-0.1383	0.7247
1.12	-9.5708	-0.2362	0.8494	-0.0038	-0.0055	-0.0458	17.1981	-15.8294	-8.8190	-0.1361	-0.6611	-0.1383	0.7247
1.13	-9.5889	-0.2269	0.8424	-0.0137	0.0040	-0.0440	17.1602	-15.7703	-8.5789	-0.1362	-0.6612	-0.1383	0.7247
1.14	-9.5946	-0.2250	0.8412	-0.0110	0.0013	-0.0472	17.1836	-15.8392	-8.6255	-0.1362	-0.6611	-0.1382	0.7246
1.15	-9.6033	-0.2254	0.8390	-0.0058	0.0018	-0.0490	17.3499	-15.9506	-8.5651	-0.1362	-0.6612	-0.1382	0.7247
1.16	-9.6089	-0.2264	0.8316	-0.0142	-0.0043	-0.0488	17.2716	-15.8256	-8.6722	-0.1362	-0.6612	-0.1382	0.7247
1.17	-9.5976	-0.2283	0.8324	-0.0140	-0.0016	-0.0460	17.0956	-15.7235	-8.9296	-0.1363	-0.6613	-0.1382	0.7247
1.18	-9.5962	-0.2281	0.8322	-0.0085	-0.0007	-0.0529	16.8993	-15.6495	-8.6771	-0.1363	-0.6612	-0.1382	0.7246
1.19	-9.5970	-0.2317	0.8307	-0.0111	-0.0029	-0.0579	17.0202	-15.9234	-8.6978	-0.1363	-0.6612	-0.1382	0.7246
1.2	-9.5911	-0.2294	0.8344	-0.0050	-0.0016	-0.0474	17.1745	-15.9904	-8.6907	-0.1363	-0.6612	-0.1382	0.7246
1.21	-9.5897	-0.2291	0.8351	-0.0108	-0.0093	-0.0515	17.0435	-15.5636	-8.6976	-0.1363	-0.6612	-0.1382	0.7246
1.22	-9.5925	-0.2395	0.8369	-0.0148	-0.0065	-0.0542	17.0218	-15.8486	-8.7013	-0.1363	-0.6612	-0.1382	0.7247
1.23	-9.5896	-0.2448	0.8427	-0.0010	-0.0015	-0.0574	16.9549	-15.8534	-8.8268	-0.1363	-0.6612	-0.1382	0.7246
1.24	-9.5940	-0.2429	0.8485	-0.0164	-0.0072	-0.0481	17.1057	-15.7116	-8.7211	-0.1363	-0.6612	-0.1382	0.7247
1.25	-9.5909	-0.2464	0.8507	-0.0105	-0.0128	-0.0424	16.8921	-15.7342	-8.5981	-0.1364	-0.6611	-0.1382	0.7246
1.26	-9.5860	-0.2420	0.8472	-0.0024	-0.0088	-0.0417	17.2509	-15.8990	-8.5960	-0.1364	-0.6612	-0.1381	0.7247
1.27	-9.5793	-0.2364	0.8543	-0.0085	-0.0100	-0.0418	17.2722	-16.1763	-8.4328	-0.1365	-0.6611	-0.1381	0.7247
1.28	-9.5708	-0.2304	0.8553	-0.0073	-0.0094	-0.0419	17.1873	-15.9847	-8.6896	-0.1365	-0.6611	-0.1380	0.7247
1.29	-9.5685	-0.2212	0.8508	-0.0024	-0.0061	-0.0391	17.3198	-15.9291	-8.6970	-0.1365	-0.6611	-0.1380	0.7248
1.3	-9.5658	-0.2205	0.8538	-0.0033	-0.0082	-0.0427	17.4693	-15.6250	-8.4185	-0.1366	-0.6611	-0.1379	0.7247
1.31	-9.5721	-0.2135	0.8600	-0.0044	-0.0066	-0.0421	17.6502	-15.7347	-8.4311	-0.1366	-0.6611	-0.1378	0.7248
1.32	-9.5734	-0.2052	0.8601	-0.0015	-0.0104	-0.0492	17.4001	-15.6610	-8.3884	-0.1366	-0.6610	-0.1378	0.7247
1.33	-9.5736	-0.2048	0.8581	-0.0036	-0.0031	-0.0495	17.2012	-15.6120	-8.6011	-0.1366	-0.6611	-0.1378	0.7248
1.34	-9.5737	-0.2046	0.8581	-0.0021	-0.0067	-0.0561	16.9829	-15.6858	-8.6705	-0.1366	-0.6611	-0.1377	0.7248
1.35	-9.5796	-0.2068	0.8640	-0.0024	-0.0062	-0.0576	17.0974	-15.7051	-8.7405	-0.1365	-0.6611	-0.1377	0.7248
1.36	-9.5773	-0.2020	0.8594	-0.0010	0.0029	-0.0526	17.1071	-15.7532	-8.7629	-0.1365	-0.6611	-0.1377	0.7248
1.37	-9.5724	-0.2055	0.8590	-0.0134	-0.0025	-0.0593	16.9878	-15.5432	-8.6298	-0.1365	-0.6611	-0.1377	0.7248
1.38	-9.5654	-0.2087	0.8599	-0.0119	-0.0008	-0.0534	17.2256	-15.6358	-8.7135	-0.1365	-0.6611	-0.1377	0.7248
1.39	-9.5579	-0.2079	0.8552	-0.0120	0.0028	-0.0569	17.0918	-15.8628	-8.8787	-0.1365	-0.6611	-0.1378	0.7247
1.4	-9.5561	-0.2074	0.8554	-0.0143	0.0048	-0.0565	17.0163	-15.5650	-8.5945	-0.1365	-0.6612	-0.1378	0.7248
1.41	-9.5551	-0.2086	0.8545	-0.0124	0.0088	-0.0523	16.9801	-15.5637	-8.9336	-0.1365	-0.6612	-0.1378	0.7247
1.42	-9.5571	-0.2080	0.8548	-0.0103	0.0110	-0.0508	16.8861	-15.7745	-8.8068	-0.1365	-0.6613	-0.1378	0.7247
1.43	-9.5597	-0.2099	0.8472	-0.0220	0.0103	-0.0493	17.0355	-15.9413	-8.7226	-0.1365	-0.6612	-0.1378	0.7246
1.44	-9.5729	-0.2139	0.8395	-0.0214	0.0138	-0.0528	16.9948	-15.7258	-8.7611	-0.1366	-0.6613	-0.1379	0.7245
1.45	-9.5901	-0.2140	0.8402	-0.0250	0.0094	-0.0459	17.2392	-15.9681	-8.5883	-0.1367	-0.6614	-0.1379	0.7245
1.46	-9.5977	-0.2105	0.8375	-0.0282	0.0118	-0.0459	17.3156	-15.9077	-8.7849	-0.1367	-0.6614	-0.1380	0.7244
1.47	-9.6094	-0.2147	0.8337	-0.0252	0.0115	-0.0553	17.0549	-15.8130	-8.7087	-0.1368	-0.6615	-0.1381	0.7244
1.48	-9.6110	-0.2142	0.8266	-0.0129	0.0074	-0.0541	17.1367	-16.1742	-8.8307	-0.1368	-0.6615	-0.1381	0.7243
1.49	-9.6102	-0.2179	0.8266	-0.0213	0.0022	-0.0471	17.0195	-15.9647	-8.7307	-0.1368	-0.6616	-0.1381	0.7243
1.5	-9.6099	-0.2261	0.8254	-0.0201	0.0109	-0.0569	17.0096	-16.0024	-8.5147	-0.1369	-0.6615	-0.1382	0.7242
1.51	-9.6113	-0.2337	0.8207	-0.0175	0.0063	-0.0506	17.0049	-15.8579	-8.8365	-0.1369	-0.6616	-0.1382	0.7242
1.52	-9.6007	-0.2340	0.8161	-0.0155	-0.0033	-0.0532	17.2127	-15.7785	-8.8399	-0.1369	-0.6616	-0.1382	0.7242
1.53	-9.5993	-0.2455	0.8179	-0.0198	-0.0023	-0.0583	17.0536	-15.9051	-8.8473	-0.1369	-0.6616	-0.1383	0.7242
1.54	-9.5925	-0.2468	0.8206	-0.0206	0.0025	-0.0561	16.7853	-15.8015	-8.8473	-0.1370	-0.6616	-0.1383	0.7242
1.55	-9.5913	-0.2454	0.8213	-0.0066	0.0010	-0.0579	17.1401	-15.9492	-8.6952	-0.1369	-0.6616	-0.1383	0.7242
1.56	-9.5876	-0.2425	0.8222	-0.0037	-0.0045	-0.0532	17.2213	-15.7986	-8.6407	-0.1369	-0.6616	-0.1383	0.7242
1.57	-9.5934	-0.2382	0.8204	-0.0030	-0.0062	-0.0501	17.0914	-15.9011	-8.6710	-0.1369	-0.6615	-0.1383	0.7241
1.58	-9.5973	-0.2341	0.8246	-0.0019	0.0025	-0.0511	17.1064	-15.8845	-8.7504	-0.1369	-0.6616	-0.1383	0.7242
1.59	-9.5784	-0.2274	0.8304	-0.0029	-0.0036	-0.0562	16.9230	-15.9370	-8.7740	-0.1369	-0.6616	-0.1382	0.7242
1.6	-9.5838	-0.2232	0.8293	-0.0026	-0.0060	-0.0544	16.9876	-15.7526	-8.6725	-0.1368	-0.6616	-0.1382	0.7242
1.61	-9.5977	-0.2058	0.8311	-0.0024	0.0001	-0.0570	17.0424	-15.6094	-8.5815	-0.1368	-0.6616	-0.1382	0.7242
1.62	-9.5816	-0.1988	0.8329	0.0001	0.0007	-0.0540	16.8488	-15.8896	-8.5211	-0.1368	-0.6616	-0.1382	0.7242
1.63	-9.5596	-0.1988	0.8387	-0.0118	-0.0116	-0.0515	17.0678	-15.9041	-8.5016	-0.1368	-0.6616	-0.1382	0.7242
1.64	-9.5699	-0.2017	0.8390	-0.0086	-0.0023	-0.0538	17.1116	-15.8734	-8.6740	-0.1368	-0.6615	-0.1382	0.7242
1.65	-9.5590	-0.2005	0.8332	-0.0021	0.0046	-0.0520	17.1039	-16.0362	-8.6624	-0.1368	-0.6617	-0.1382	0.7242
1.66	-9.5609	-0.1943	0.8474	-0.0118	0.0045	-0.0563	17.2239	-16.0422	-8.6153	-0.1367	-0.6616	-0.1382	0.7242
1.67	-9.6034	-0.2027	0.8501	-0.0103	0.0050	-0.0447	17.1664	-15.9578	-8.5309	-0.1368	-0.6617	-0.1382	0.7242
1.68	-9.6298	-0.2112	0.8490	-0.0243	0.0020	-0.0476	17.2143	-16.0027	-8.6733	-0.1368	-0.6617	-0.1382	0.7241
1.69	-9.6238	-0.2156	0.8470	-0.0278	-0.0034	-0.0537	17.1528	-15.8508	-8.5349	-0.1369	-0.6617	-0.1383	0.7241
1.7	-9.6011	-0.2239	0.8473	-0.0218	-0.0086	-0.0494	17.0864	-15.9578	-8.7818	-0.1370	-0.6617	-0.1383	0.7241
1.71	-9.5725	-0.2322	0.8393	-0.0194	-0.0068	-0.0464	17.1012	-16.0630	-8.6342	-0.1370	-0.6616	-0.1383	0.7241
1.72	-9.5586	-0.2326	0.8373	-0.0240	-0.0097	-0.0430	17.1074	-16.0993	-8.7822	-0.1371	-0.6617	-0.1383	0.7242
1.73	-9.5593	-0.2326	0.8343	-0.0237	-0.0029	-0.0432	17.0734	-15.8784	-8.8319	-0.1372	-0.6616	-0.1383	0.7241
1.74	-9.5648	-0.2280	0.8279	-0.0234	-0.0010	-0.0411	16.9660	-15.7839	-8.4414	-0.1373	-0.6617	-0.1383	0.7241
1.75	-9.5734	-0.2190	0.8183	-0.0257	0.0048	-0.0469	17.1415	-15.8228	-8.5866	-0.1373	-0.6616	-0.1384	0.7240
1.76	-9.5742	-0.2117	0.8195	-0.0165	0.0046	-0.0477	16.9384	-15.6928	-8.6642	-0.1374	-0.6617	-0.1384	0.7240
1.77	-9.5797	-0.2111	0.8068	-0.0230	0.0111	-0.0468	16.8102	-15.7418	-8.5204	-0.1375	-0.6617	-0.1384	0.7239
1.78	-9.5882	-0.2143	0.8049	-0.0104	0.0101	-0.0587	17.1310	-15.6959	-8.6718	-0.1374	-0.6617	-0.1385	0.7239
1.79	-9.5778	-0.2081	0.8059	-0.0062	0.0065	-0.0592	17.0721	-15.8416	-8.6574	-0.1374	-0.6618	-0.1385	0.7239
1.8	-9.5786	-0.2083	0.8043	-0.0102	0.0068	-0.0611	17.2982	-15.7604	-8.5268	-0.1374	-0.6618	-0.1385	0.7238
1.81	-9.5934	-0.2037	0.7987	-0.0055	0.0061	-0.0586	17.6001	-15.4969	-8.6460	-0.1373	-0.6619	-0.1385	0.7239
1.82	-9.5911	-0.1998	0.8036	-0.0069	-0.0014	-0.0612	17.4514	-15.6836	-8.7064	-0.1373	-0.6618	-0.1385	0.7238
1.83	-9.5923	-0.1951	0.7990	-0.0092	-0.0006	-0.0550	17.4796	-15.8296	-8.6681	-0.1373	-0.6619	-0.1385	0.7238
1.84	-9.5877	-0.1898	0.7925	-0.0172	0.0060	-0.0579	17.1759	-15.8345	-8.7307	-0.1373	-0.6619	-0.1386	0.7238
1.85	-9.5962	-0.1953	0.7974	-0.0224	0.0081	-0.0534	17.2985	-15.8519	-8.6694	-0.1373	-0.6619	-0.1386	0.7238
1.86	-9.5961	-0.1985	0.7896	-0.0300	0.0023	-0.0553	17.1815	-15.6806	-8.8288	-0.1374	-0.6619	-0.1387	0.7237
1.87	-9.6060	-0.2061	0.7837	-0.0276	0.0002	-0.0546	16.9920	-15.8987	-8.6106	-0.1374	-0.6619	-0.1388	0.7237
1.88	-9.6106	-0.2225	0.7780	-0.0284	0.0064	-0.0520	17.1799	-16.0307	-8.6609	-0.1375	-0.6619	-0.1389	0.7237
1.89	-9.6098	-0.2313	0.7798	-0.0292	0.0005	-0.0499	16.9804	-15.8833	-8.7138	-0.1376	-0.6619	-0.1389	0.7236
1.9	-9.6221	-0.2427	0.7760	-0.0284	-0.0060	-0.0492	17.0564	-15.9068	-8.5901	-0.1376	-0.6619	-0.1390	0.7237
1.91	-9.6183	-0.2501	0.7705	-0.0272	-0.0016	-0.0455	16.9633	-15.8792	-8.5937	-0.1377	-0.6619	-0.1390	0.7236
1.92	-9.6162	-0.2595	0.7704	-0.0281	0.0011	-0.0495	17.1848	-15.7012	-8.6823	-0.1378	-0.6620	-0.1391	0.7236
1.93	-9.6036	-0.2593	0.7700	-0.0283	-0.0046	-0.0453	17.2061	-15.8159	-8.7100	-0.1379	-0.6619	-0.1391	0.7235
1.94	-9.6255	-0.2603	0.7854	-0.0251	-0.0045	-0.0446	16.9713	-16.0383	-8.5707	-0.1380	-0.6619	-0.1391	0.7235
1.95	-9.6521	-0.2739	0.7879	-0.0220	-0.0088	-0.0489	17.2133	-15.7338	-8.6081	-0.1380	-0.6619	-0.1392	0.7236
1.96	-9.6143	-0.2748	0.8002	-0.0093	-0.0077	-0.0553	16.8775	-15.7650	-8.3477	-0.1380	-0.6618	-0.1392	0.7235
1.97	-9.6043	-0.2610	0.7986	-0.0013	-0.0138	-0.0601	17.0853	-16.0476	-8.7096	-0.1380	-0.6619	-0.1392	0.7237
1.98	-9.5688	-0.2593	0.7964	-0.0022	-0.0106	-0.0623	17.3349	-16.0554	-8.7232	-0.1380	-0.6618	-0.1392	0.7236
1.99	-9.5466	-0.2549	0.8071	-0.0023	-0.0110	-0.0579	17.0253	-15.8960	-8.5477	-0.1379	-0.6618	-0.1391	0.7237
2	-9.5630	-0.2580	0.8110	-0.0026	-0.0134	-0.0538	16.9979	-15.9011	-8.7157	-0.1379	-0.6617	-0.1391	0.7237
2.01	-9.5725	-0.2333	0.8181	-0.0026	-0.0113	-0.0441	17.0629	-15.7818	-8.5952	-0.1379	-0.6617	-0.1391	0.7238
2.02	-9.5665	-0.2092	0.8172	-0.0012	-0.0098	-0.0410	17.2629	-16.0149	-8.5689	-0.1379	-0.6617	-0.1390	0.7238
2.03	-9.5848	-0.1992	0.8201	-0.0097	-0.0049	-0.0443	17.0854	-15.8307	-8.7767	-0.1380	-0.6617	-0.1389	0.7238
2.04	-9.5994	-0.1961	0.8125	-0.0084	-0.0068	-0.0442	17.2162	-15.7908	-8.7914	-0.1380	-0.6617	-0.1389	0.7238
2.05	-9.6066	-0.1988	0.8147	-0.0059	-0.0088	-0.0469	17.1929	-15.8299	-8.6825	-0.1380	-0.6616	-0.1389	0.7238
2.06	-9.6161	-0.2034	0.8079	-0.0031	-0.0084	-0.0481	17.1980	-15.9933	-8.8887	-0.1380	-0.6617	-0.1388	0.7238
2.07	-9.6114	-0.2117	0.8058	-0.0182	-0.0104	-0.0482	17.2047	-15.9040	-8.8910	-0.1381	-0.6616	-0.1388	0.7238
2.08	-9.6023	-0.2132	0.8060	-0.0176	-0.0064	-0.0481	17.0767	-15.8869	-8.6385	-0.1381	-0.6616	-0.1388	0.7239
2.09	-9.5980	-0.2193	0.8063	-0.0084	-0.0079	-0.0451	17.0023	-15.7580	-8.6058	-0.1381	-0.6616	-0.1388	0.7238
2.1	-9.5941	-0.2138	0.8092	-0.0146	-0.0140	-0.0534	17.3143	-15.9211	-8.5933	-0.1382	-0.6616	-0.1388	0.7239
2.11	-9.5873	-0.2184	0.8127	-0.0182	-0.0079	-0.0551	17.1772	-15.7757	-8.6272	-0.1382	-0.6615	-0.1388	0.7239
2.12	-9.5923	-0.2205	0.8209	-0.0230	-0.0158	-0.0476	16.9782	-15.7415	-8.6888	-0.1383	-0.6615	-0.1389	0.7239
2.13	-9.5975	-0.2261	0.8180	-0.0195	-0.0110	-0.0523	17.0435	-15.8294	-8.3611	-0.1383	-0.6614	-0.1389	0.7240
2.14	-9.5942	-0.2279	0.8301	-0.0281	-0.0048	-0.0479	16.9964	-15.8071	-8.6136	-0.1384	-0.6614	-0.1389	0.7239
2.15	-9.5928	-0.2280	0.8345	-0.0291	-0.0123	-0.0459	17.1458	-15.7925	-8.6127	-0.1385	-0.6614	-0.1390	0.7240
2.16	-9.5851	-0.2320	0.8351	-0.0183	-0.0106	-0.0493	17.0713	-15.8652	-8.5937	-0.1385	-0.6613	-0.1390	0.7240
2.17	-9.5804	-0.2293	0.8388	-0.0165	-0.0145	-0.0459	17.2069	-15.8619	-8.6308	-0.1386	-0.6614	-0.1390	0.7240
2.18	-9.5751	-0.2331	0.8384	-0.0139	-0.0173	-0.0407	17.1076	-15.6777	-8.4870	-0.1387	-0.6612	-0.1390	0.7240
2.19	-9.5761	-0.2263	0.8407	-0.0113	-0.0112	-0.0367	16.9923	-15.9958	-8.6742	-0.1387	-0.6612	-0.1389	0.7240
2.2	-9.5691	-0.2231	0.8479	-0.0055	-0.0134	-0.0422	17.2256	-16.1184	-8.6662	-0.1388	-0.6612	-0.1389	0.7241
2.21	-9.5784	-0.2204	0.8468	-0.0034	-0.0107	-0.0442	17.0893	-15.9667	-8.8108	-0.1388	-0.6611	-0.1388	0.7241
2.22	-9.5760	-0.2172	0.8450	-0.0016	-0.0075	-0.0447	17.2316	-16.0096	-8.6432	-0.1388	-0.6612	-0.1387	0.7242
2.23	-9.5787	-0.2154	0.8494	-0.0049	-0.0105	-0.0472	17.1430	-16.0691	-8.4980	-0.1388	-0.6611	-0.1387	0.7241
2.24	-9.5786	-0.2123	0.8508	-0.0054	-0.0127	-0.0530	17.1119	-15.8911	-8.6686	-0.1388	-0.6612	-0.1387	0.7242
2.25	-9.5774	-0.2041	0.8544	-0.0010	-0.0048	-0.0518	17.0141	-15.8988	-8.4700	-0.1388	-0.6611	-0.1386	0.7241
2.26	-9.5792	-0.2015	0.8546	-0.0062	-0.0113	-0.0505	17.0332	-15.7896	-8.6679	-0.1388	-0.6611	-0.1386	0.7242
2.27	-9.5747	-0.1998	0.8584	-0.0036	-0.0116	-0.0569	16.9831	-15.8200	-8.5244	-0.1388	-0.6611	-0.1386	0.7242
2.28	-9.5744	-0.1932	0.8617	-0.0007	-0.0070	-0.0591	17.1781	-15.7928	-8.5216	-0.1387	-0.6610	-0.1386	0.7243
2.29	-9.5671	-0.1834	0.8567	-0.0067	-0.0130	-0.0546	17.2972	-15.9136	-8.4951	-0.1387	-0.6610	-0.1386	0.7243
2.3	-9.5645	-0.1746	0.8540	-0.0054	-0.0030	-0.0507	17.4460	-15.7433	-8.2707	-0.1387	-0.6610	-0.1385	0.7243
2.31	-9.5708	-0.1766	0.8570	-0.0157	0.0011	-0.0515	17.4235	-15.7014	-8.1806	-0.1387	-0.6611	-0.1386	0.7243
2.32	-9.5715	-0.1768	0.8590	-0.0102	-0.0039	-0.0531	17.2937	-15.7469	-8.4871	-0.1387	-0.6610	-0.1385	0.7242
2.33	-9.5821	-0.1805	0.8561	-0.0207	-0.0044	-0.0507	16.9647	-15.7844	-8.4689	-0.1388	-0.6610	-0.1386	0.7243
2.34	-9.5876	-0.1903	0.8535	-0.0166	-0.0028	-0.0526	17.0437	-15.8116	-8.4322	-0.1388	-0.6610	-0.1386	0.7243
2.35	-9.5844	-0.1973	0.8538	-0.0177	0.0016	-0.0525	17.1008	-15.7030	-8.4725	-0.1388	-0.6610	-0.1386	0.7243
2.36	-9.5870	-0.2008	0.8430	-0.0234	-0.0055	-0.0472	16.8141	-15.8430	-8.6789	-0.1389	-0.6610	-0.1387	0.7242
2.37	-9.5864	-0.2085	0.8439	-0.0281	-0.0062	-0.0500	16.8571	-15.9002	-8.6205	-0.1390	-0.6610	-0.1387	0.7243
2.38	-9.5914	-0.2205	0.8474	-0.0180	-0.0133	-0.0438	17.0841	-15.9542	-8.7738	-0.1391	-0.6610	-0.1387	0.7243
2.39	-9.5911	-0.2260	0.8452	-0.0162	-0.0079	-0.0460	17.1263	-16.0231	-8.8789	-0.1391	-0.6609	-0.1387	0.7242
2.4	-9.5907	-0.2275	0.8461	-0.0143	-0.0059	-0.0484	17.1292	-15.7604	-8.7056	-0.1392	-0.6609	-0.1387	0.7243
2.41	-9.5885	-0.2288	0.8468	-0.0095	-0.0080	-0.0421	17.2283	-16.0114	-8.6252	-0.1392	-0.6609	-0.1387	0.7243
2.42	-9.5861	-0.2298	0.8475	-0.0023	-0.0074	-0.0437	17.2198	-15.9002	-8.7303	-0.1392	-0.6609	-0.1386	0.7244
2.43	-9.5880	-0.2305	0.8491	-0.0025	-0.0102	-0.0460	17.0283	-15.9890	-8.7619	-0.1392	-0.6608	-0.1386	0.7243
2.44	-9.5800	-0.2267	0.8469	-0.0018	-0.0065	-0.0473	16.8975	-16.1066	-8.6015	-0.1392	-0.6609	-0.1385	0.7244
2.45	-9.5836	-0.2188	0.8503	-0.0035	-0.0065	-0.0515	16.9983	-15.8725	-8.7313	-0.1392	-0.6609	-0.1385	0.7244
2.46	-9.5789	-0.2210	0.8476	-0.0011	-0.0070	-0.0511	17.1178	-16.0005	-8.7483	-0.1392	-0.6608	-0.1384	0.7243
2.47	-9.5707	-0.2077	0.8516	-0.0012	-0.0149	-0.0498	17.0341	-15.9788	-8.7492	-0.1392	-0.6609	-0.1384	0.7245
2.48	-9.5779	-0.2030	0.8531	-0.0024	-0.0091	-0.0523	16.9977	-15.5996	-8.7356	-0.1392	-0.6608	-0.1384	0.7244
2.49	-9.5832	-0.1939	0.8516	-0.0037	-0.0049	-0.0528	16.9063	-15.7220	-8.5663	-0.1392	-0.6608	-0.1383	0.7245
2.5	-9.5796	-0.1929	0.8507	-0.0079	-0.0029	-0.0521	17.0514	-15.7161	-8.5603	-0.1391	-0.6607	-0.1383	0.7244
2.51	-9.5601	-0.1952	0.8544	-0.0040	0.0002	-0.0546	16.9023	-15.9654	-8.6871	-0.1391	-0.6608	-0.1383	0.7245
2.52	-9.5684	-0.1896	0.8549	-0.0029	-0.0029	-0.0562	17.1573	-15.9891	-8.4298	-0.1391	-0.6608	-0.1383	0.7245
2.53	-9.5833	-0.1739	0.8560	0.0000	-0.0080	-0.0542	16.9582	-16.0012	-8.6303	-0.1391	-0.6608	-0.1383	0.7245
2.54	-9.5713	-0.1731	0.8493	-0.0009	-0.0045	-0.0583	16.8371	-15.8879	-8.7727	-0.1390	-0.6608	-0.1383	0.7245
2.55	-9.5638	-0.1769	0.8534	-0.0014	-0.0047	-0.0546	16.8439	-15.7864	-8.4646	-0.1390	-0.6608	-0.1382	0.7245
2.56	-9.5786	-0.1840	0.8533	-0.0095	-0.0085	-0.0559	16.9055	-15.8627	-8.5092	-0.1390	-0.6608	-0.1382	0.7246
2.57	-9.5795	-0.1864	0.8567	-0.0078	-0.0085	-0.0551	17.0180	-16.0155	-8.7560	-0.1390	-0.6607	-0.1382	0.7245
2.58	-9.5909	-0.1840	0.8614	-0.0085	-0.0000	-0.0544	17.2762	-15.9563	-8.8504	-0.1390	-0.6608	-0.1382	0.7246
2.59	-9.6242	-0.1960	0.8688	-0.0201	-0.0068	-0.0472	17.4263	-16.0625	-8.8306	-0.1390	-0.6607	-0.1382	0.7245
2.6	-9.6414	-0.2044	0.8740	-0.0153	-0.0066	-0.0490	17.3261	-16.0190	-8.8294	-0.1391	-0.6607	-0.1382	0.7246
2.61	-9.6236	-0.2073	0.8795	-0.0163	-0.0077	-0.0512	17.0824	-15.8890	-8.8533	-0.1391	-0.6607	-0.1383	0.7246
2.62	-9.5978	-0.2139	0.8729	-0.0150	-0.0108	-0.0438	17.0362	-16.0157	-8.8028	-0.1391	-0.6607	-0.1382	0.7246
2.63	-9.5546	-0.2085	0.8716	-0.0144	-0.0055	-0.0417	17.1700	-15.9827	-8.4944	-0.1392	-0.6607	-0.1382	0.7246
2.64	-9.5253	-0.2115	0.8750	-0.0035	-0.0082	-0.0384	17.0013	-15.9839	-8.4240	-0.1392	-0.6606	-0.1382	0.7245
2.65	-9.5278	-0.2062	0.8716	-0.0040	-0.0044	-0.0340	17.1535	-15.9121	-8.7389	-0.1393	-0.6607	-0.1381	0.7246
2.66	-9.5149	-0.1959	0.8663	-0.0016	0.0032	-0.0377	17.2329	-15.8372	-8.8425	-0.1393	-0.6607	-0.1380	0.7246
2.67	-9.5146	-0.1804	0.8590	-0.0050	0.0099	-0.0390	17.1591	-15.6170	-8.6473	-0.1394	-0.6608	-0.1380	0.7246
2.68	-9.5125	-0.1700	0.8509	-0.0055	0.0209	-0.0507	16.9290	-15.6385	-8.6584	-0.1393	-0.6608	-0.1379	0.7244
2.69	-9.5267	-0.1681	0.8428	-0.0016	0.0219	-0.0584	16.6961	-15.7779	-8.7984	-0.1393	-0.6609	-0.1379	0.7244
2.7	-9.5386	-0.1638	0.8313	-0.0021	0.0289	-0.0569	16.8743	-15.8038	-8.6624	-0.1392	-0.6611	-0.1379	0.7243
2.71	-9.5496	-0.1547	0.8262	-0.0026	0.0317	-0.0601	17.0516	-15.6026	-8.7392	-0.1391	-0.6611	-0.1380	0.7241
2.72	-9.5673	-0.1523	0.8180	-0.0023	0.0313	-0.0697	17.0171	-15.6730	-8.7633	-0.1391	-0.6614	-0.1380	0.7241
2.73	-9.5902	-0.1509	0.8180	-0.0018	0.0288	-0.0725	17.1977	-15.8614	-8.5930	-0.1389	-0.6614	-0.1381	0.7240
2.74	-9.6006	-0.1468	0.8100	-0.0029	0.0235	-0.0744	17.1710	-15.7632	-8.5332	-0.1388	-0.6615	-0.1382	0.7240
2.75	-9.5970	-0.1425	0.8038	-0.0099	0.0221	-0.0688	16.9886	-16.0133	-8.6839	-0.1387	-0.6615	-0.1382	0.7238
2.76	-9.6004	-0.1467	0.7968	-0.0262	0.0269	-0.0674	17.1833	-15.9700	-8.4895	-0.1387	-0.6617	-0.1383	0.7238
2.77	-9.5986	-0.1577	0.7827	-0.0282	0.0275	-0.0691	17.1928	-15.8549	-8.5172	-0.1387	-0.6617	-0.1385	0.7237
2.78	-9.6061	-0.1751	0.7820	-0.0254	0.0227	-0.0703	17.2936	-15.9965	-8.5736	-0.1387	-0.6618	-0.1386	0.7236
2.79	-9.6175	-0.1921	0.7774	-0.0389	0.0303	-0.0638	17.2874	-15.9815	-8.5666	-0.1387	-0.6619	-0.1388	0.7235
2.8	-9.6308	-0.2170	0.7722	-0.0395	0.0239	-0.0560	17.3422	-15.7378	-8.3855	-0.1387	-0.6620	-0.1389	0.7233
2.81	-9.6384	-0.2380	0.7652	-0.0447	0.0155	-0.0567	17.8180	-15.9086	-8.2312	-0.1388	-0.6620	-0.1391	0.7233
2.82	-9.6437	-0.2578	0.7564	-0.0455	0.0180	-0.0478	17.4661	-15.8240	-8.3693	-0.1389	-0.6620	-0.1392	0.7231
2.83	-9.6479	-0.2694	0.7525	-0.0344	0.0132	-0.0457	17.2009	-15.7095	-8.4428	-0.1391	-0.6621	-0.1393	0.7231
2.84	-9.6395	-0.2871	0.7532	-0.0337	0.0072	-0.0423	17.0843	-15.7844	-8.4367	-0.1392	-0.6621	-0.1394	0.7230
2.85	-9.6340	-0.2888	0.7656	-0.0300	0.0057	-0.0413	17.1918	-15.7606	-8.6902	-0.1393	-0.6622	-0.1394	0.7230
2.86	-9.6647	-0.2958	0.7705	-0.0284	0.0002	-0.0474	17.1254	-15.6971	-8.6939	-0.1393	-0.6622	-0.1395	0.7229
2.87	-9.6450	-0.3091	0.7797	-0.0255	-0.0083	-0.0534	17.0886	-15.6807	-8.5701	-0.1394	-0.6621	-0.1395	0.7229
2.88	-9.6172	-0.2963	0.7901	-0.0108	-0.0091	-0.0524	17.3445	-15.8997	-8.4095	-0.1394	-0.6621	-0.1395	0.7230
2.89	-9.6006	-0.2905	0.7850	-0.0054	-0.0142	-0.0529	17.0916	-15.6240	-8.4925	-0.1394	-0.6620	-0.1395	0.7230
2.9	-9.5437	-0.2753	0.7998	-0.0034	-0.0138	-0.0632	16.9462	-15.6460	-8.6312	-0.1394	-0.6621	-0.1395	0.7231
2.91	-9.5474	-0.2714	0.8030	-0.0004	-0.0078	-0.0574	17.1480	-15.8126	-8.5811	-0.1393	-0.6620	-0.1395	0.7231
2.92	-9.5737	-0.2644	0.8061	0.0028	-0.0031	-0.0558	17.1222	-15.7719	-8.6200	-0.1393	-0.6621	-0.1395	0.7232
2.93	-9.5598	-0.2349	0.8193	0.0135	-0.0051	-0.0480	16.9915	-15.6218	-8.5005	-0.1392	-0.6620	-0.1394	0.7231
2.94	-9.5662	-0.2077	0.8150	0.0230	-0.0087	-0.0528	16.9708	-15.6592	-8.5104	-0.1391	-0.6620	-0.1393	0.7232
2.95	-9.5767	-0.1966	0.8178	0.0165	-0.0003	-0.0499	17.1739	-16.0000	-8.5168	-0.1390	-0.6621	-0.1392	0.7232
2.96	-9.5727	-0.1845	0.8171	0.0148	-0.0014	-0.0546	17.3252	-15.9092	-8.7983	-0.1389	-0.6621	-0.1391	0.7231
2.97	-9.5802	-0.1742	0.8087	0.0054	0.0032	-0.0570	17.1143	-15.9195	-8.6660	-0.1389	-0.6622	-0.1390	0.7232
2.98	-9.5760	-0.1791	0.8042	-0.0023	0.0074	-0.0561	17.0896	-16.1497	-8.5607	-0.1388	-0.6621	-0.1390	0.7231
2.99	-9.5815	-0.1814	0.8037	-0.0018	0.0094	-0.0565	17.1789	-16.0029	-8.6242	-0.1388	-0.6622	-0.1390	0.7232
3	-9.5890	-0.1839	0.7962	-0.0013	0.0009	-0.0566	17.0041	-15.9202	-8.4896	-0.1387	-0.6622	-0.1390	0.7231
3.01	-9.5877	-0.1837	0.7888	-0.0135	0.0005	-0.0564	17.2043	-15.6589	-8.4040	-0.1387	-0.6622	-0.1390	0.7231
3.02	-9.5942	-0.1788	0.7922	-0.0172	0.0062	-0.0573	17.1373	-15.8443	-8.5946	-0.1387	-0.6622	-0.1391	0.7231
3.03	-9.5979	-0.1879	0.7917	-0.0173	0.0007	-0.0559	17.1606	-15.9584	-8.5879	-0.1387	-0.6622	-0.1391	0.7230
3.04	-9.6103	-0.1916	0.7970	-0.0155	-0.0068	-0.0564	16.9886	-15.7657	-8.6207	-0.1388	-0.6623	-0.1392	0.7231
3.05	-9.6322	-0.2013	0.8015	-0.0281	-0.0048	-0.0568	17.2867	-15.8928	-8.2733	-0.1388	-0.6622	-0.1392	0.7231
3.06	-9.6276	-0.2184	0.7874	-0.0276	-0.0039	-0.0556	17.0980	-15.8463	-8.4926	-0.1389	-0.6622	-0.1393	0.7231
3.07	-9.5982	-0.2161	0.7946	-0.0287	-0.0082	-0.0574	17.1180	-15.8174	-8.8284	-0.1389	-0.6621	-0.1394	0.7230
3.08	-9.6068	-0.2323	0.7915	-0.0268	-0.0047	-0.0483	17.1022	-15.8043	-8.6503	-0.1390	-0.6622	-0.1395	0.7231
3.09	-9.6036	-0.2457	0.7906	-0.0258	-0.0014	-0.0464	16.7975	-15.8828	-8.3807	-0.1390	-0.6621	-0.1395	0.7230
3.1	-9.5835	-0.2499	0.7904	-0.0263	-0.0061	-0.0507	16.9950	-15.8569	-8.5709	-0.1391	-0.6621	-0.1395	0.7230
3.11	-9.5851	-0.2615	0.7887	-0.0271	0.0019	-0.0569	17.1243	-15.7971	-8.6183	-0.1392	-0.6621	-0.1396	0.7230
3.12	-9.5791	-0.2629	0.7887	-0.0287	-0.0010	-0.0452	17.1163	-15.8311	-8.4575	-0.1392	-0.6621	-0.1397	0.7230
3.13	-9.5812	-0.2722	0.7866	-0.0138	-0.0080	-0.0502	17.0793	-15.6371	-8.5653	-0.1393	-0.6621	-0.1397	0.7230
3.14	-9.5808	-0.2662	0.7926	-0.0132	-0.0096	-0.0547	17.2769	-16.0117	-8.7615	-0.1393	-0.6620	-0.1397	0.7230
3.15	-9.5845	-0.2629	0.7939	-0.0072	-0.0110	-0.0546	17.3963	-16.2787	-8.8039	-0.1393	-0.6621	-0.1397	0.7231
3.16	-9.5848	-0.2607	0.7931	0.0000	-0.0088	-0.0561	17.3633	-15.9946	-8.5536	-0.1392	-0.6620	-0.1397	0.7231
3.17	-9.5817	-0.2493	0.7972	-0.0029	-0.0056	-0.0581	17.1227	-15.9453	-8.7669	-0.1392	-0.6621	-0.1397	0.7231
3.18	-9.5723	-0.2360	0.7974	-0.0019	-0.0074	-0.0577	17.1026	-15.8062	-8.7022	-0.1392	-0.6620	-0.1396	0.7231
3.19	-9.5662	-0.2255	0.7974	-0.0033	-0.0086	-0.0558	17.2202	-15.8093	-8.3212	-0.1391	-0.6620	-0.1396	0.7231
3.2	-9.5624	-0.2146	0.7954	0.0006	-0.0076	-0.0568	17.0278	-15.6862	-8.6964	-0.1391	-0.6620	-0.1396	0.7232
3.21	-9.5599	-0.2060	0.7967	-0.0028	-0.0063	-0.0572	17.3128	-15.8256	-8.6813	-0.1390	-0.6619	-0.1396	0.7231
3.22	-9.5711	-0.2029	0.7948	-0.0012	0.0028	-0.0558	17.2650	-15.9148	-8.6051	-0.1390	-0.6620	-0.1396	0.7232
3.23	-9.5893	-0.2024	0.7863	-0.0038	0.0060	-0.0592	17.0519	-15.7748	-8.6984	-0.1390	-0.6620	-0.1396	0.7231
3.24	-9.5995	-0.2031	0.7814	-0.0007	0.0013	-0.0596	17.1913	-15.9035	-8.4767	-0.1389	-0.6621	-0.1396	0.7232
3.25	-9.6141	-0.2096	0.7798	-0.0122	0.0077	-0.0542	17.2139	-15.9055	-8.6129	-0.1389	-0.6620	-0.1396	0.7231
3.26	-9.6294	-0.2155	0.7808	-0.0105	0.0079	-0.0561	17.1682	-15.9128	-8.3486	-0.1389	-0.6621	-0.1396	0.7231
3.27	-9.6415	-0.2203	0.7822	-0.0116	0.0009	-0.0571	16.9188	-15.7179	-8.4929	-0.1389	-0.6621	-0.1397	0.7231
3.28	-9.6472	-0.2269	0.7826	-0.0144	-0.0013	-0.0535	16.9823	-15.8204	-8.5021	-0.1389	-0.6621	-0.1397	0.7230
3.29	-9.6386	-0.2276	0.7878	-0.0178	-0.0073	-0.0548	17.2467	-15.8152	-8.6130	-0.1389	-0.6621	-0.1398	0.7231
3.3	-9.6282	-0.2264	0.7918	-0.0138	-0.0096	-0.0530	17.5554	-15.4421	-8.4474	-0.1388	-0.6621	-0.1396	0.7231
3.31	-9.6097	-0.2238	0.7993	-0.0211	-0.0170	-0.0511	17.5703	-15.5062	-8.4082	-0.1387	-0.6621	-0.1395	0.7232
3.32	-9.5897	-0.2144	0.8066	-0.0164	-0.0108	-0.0489	17.4975	-15.7197	-8.4528	-0.1387	-0.6620	-0.1395	0.7231
3.33	-9.5680	-0.2093	0.8061	-0.0194	-0.0228	-0.0482	17.4046	-15.9162	-8.5640	-0.1388	-0.6620	-0.1395	0.7233
3.34	-9.5616	-0.2077	0.8135	-0.0281	-0.0211	-0.0567	17.1359	-15.9666	-8.5758	-0.1388	-0.6619	-0.1396	0.7233
3.35	-9.5722	-0.2226	0.8189	-0.0289	-0.0125	-0.0558	17.0615	-15.9933	-8.6490	-0.1389	-0.6618	-0.1397	0.7233
3.36	-9.5855	-0.2480	0.8201	-0.0289	-0.0090	-0.0481	17.2184	-15.8275	-8.7602	-0.1390	-0.6618	-0.1397	0.7233
3.37	-9.5944	-0.2728	0.8266	-0.0271	-0.0092	-0.0522	17.0299	-15.8939	-8.5328	-0.1390	-0.6617	-0.1398	0.7233
3.38	-9.5931	-0.2946	0.8310	-0.0248	-0.0159	-0.0543	17.0034	-15.9883	-8.5755	-0.1391	-0.6617	-0.1398	0.7234
3.39	-9.5912	-0.3076	0.8361	-0.0241	-0.0162	-0.0543	16.9982	-15.8445	-8.6440	-0.1391	-0.6616	-0.1399	0.7233
3.4	-9.5836	-0.3097	0.8379	-0.0127	-0.0185	-0.0588	17.1210	-15.8823	-8.8959	-0.1392	-0.6616	-0.1399	0.7235
3.41	-9.5696	-0.2962	0.8433	-0.0001	-0.0203	-0.0574	17.0688	-15.9667	-8.6652	-0.1391	-0.6615	-0.1399	0.7235
3.42	-9.5397	-0.2720	0.8411	-0.0032	-0.0144	-0.0579	17.1748	-15.6874	-8.6819	-0.1391	-0.6615	-0.1399	0.7236
3.43	-9.5144	-0.2407	0.8418	0.0021	-0.0179	-0.0584	17.2046	-15.6754	-8.5832	-0.1390	-0.6614	-0.1398	0.7236
3.44	-9.5220	-0.1927	0.8474	0.0016	-0.0062	-0.0513	16.9276	-15.8123	-8.4296	-0.1390	-0.6614	-0.1398	0.7237
3.45	-9.5232	-0.1541	0.8415	-0.0025	-0.0021	-0.0580	17.1243	-15.7095	-8.4009	-0.1390	-0.6614	-0.1398	0.7237
3.46	-9.5209	-0.1354	0.8507	-0.0026	0.0127	-0.0596	16.9354	-15.6607	-8.6922	-0.1389	-0.6614	-0.1398	0.7236
3.47	-9.5673	-0.1437	0.8421	-0.0213	0.0190	-0.0572	16.9010	-15.8105	-8.5635	-0.1389	-0.6616	-0.1399	0.7236
3.48	-9.5774	-0.1645	0.8359	-0.0274	0.0186	-0.0587	16.9443	-15.7274	-8.4374	-0.1389	-0.6616	-0.1400	0.7235
3.49	-9.5985	-0.1871	0.8420	-0.0275	0.0209	-0.0510	17.1083	-15.6582	-8.5836	-0.1390	-0.6617	-0.1401	0.7234
3.5	-9.6425	-0.2296	0.8379	-0.0326	0.0162	-0.0462	17.0083	-15.7751	-8.5646	-0.1391	-0.6617	-0.1401	0.7232
3.51	-9.6619	-0.2735	0.8315	-0.0432	0.0052	-0.0370	17.0023	-15.8947	-8.4906	-0.1392	-0.6618	-0.1402	0.7232
3.52	-9.6414	-0.3040	0.8278	-0.0455	0.0030	-0.0381	17.1848	-15.9810	-8.7832	-0.1394	-0.6617	-0.1403	0.7232
3.53	-9.5989	-0.3243	0.8187	-0.0375	-0.0053	-0.0347	17.1723	-15.8672	-8.6896	-0.1395	-0.6617	-0.1403	0.7231
3.54	-9.5550	-0.3380	0.8051	-0.0297	-0.0103	-0.0307	17.2164	-15.8455	-8.5333	-0.1397	-0.6617	-0.1403	0.7232
3.55	-9.5262	-0.3420	0.7993	-0.0267	-0.0090	-0.0315	16.9837	-15.8921	-8.6399	-0.1398	-0.6617	-0.1403	0.7231
3.56	-9.5337	-0.3384	0.7992	-0.0234	-0.0034	-0.0243	16.9364	-15.9907	-8.6170	-0.1400	-0.6617	-0.1403	0.7231
3.57	-9.5589	-0.3182	0.7985	-0.0064	0.0016	-0.0312	17.1305	-15.8395	-8.5430	-0.1400	-0.6617	-0.1402	0.7230
3.58	-9.5917	-0.2945	0.7885	0.0071	0.0032	-0.0305	16.9700	-15.8808	-8.7107	-0.1401	-0.6618	-0.1401	0.7231
3.59	-9.6151	-0.2710	0.7932	0.0232	0.0110	-0.0329	17.3578	-15.9837	-8.6150	-0.1400	-0.6618	-0.1399	0.7230
3.6	-9.6356	-0.2434	0.7935	0.0194	0.0053	-0.0391	17.0326	-15.8721	-8.4860	-0.1400	-0.6619	-0.1398	0.7230
3.61	-9.6366	-0.2119	0.7884	0.0295	0.0027	-0.0534	16.9038	-15.7712	-8.4843	-0.1399	-0.6620	-0.1396	0.7230
3.62	-9.6191	-0.1844	0.7888	0.0309	0.0043	-0.0596	17.0317	-15.5085	-8.3612	-0.1397	-0.6620	-0.1395	0.7230
3.63	-9.5985	-0.1472	0.7851	0.0318	-0.0010	-0.0678	16.8352	-15.5570	-8.4638	-0.1395	-0.6621	-0.1394	0.7231
3.64	-9.5819	-0.1166	0.7963	0.0308	-0.0049	-0.0706	17.1349	-15.6810	-8.5576	-0.1393	-0.6620	-0.1393	0.7230
3.65	-9.5696	-0.0877	0.7939	0.0235	-0.0032	-0.0674	17.0598	-15.8064	-8.8290	-0.1392	-0.6621	-0.1393	0.7232
3.66	-9.5732	-0.0724	0.7982	0.0200	-0.0059	-0.0733	16.7183	-15.8767	-8.6564	-0.1390	-0.6621	-0.1392	0.7232
3.67	-9.5764	-0.0651	0.8016	-0.0042	-0.0075	-0.0692	17.0182	-15.8692	-8.5389	-0.1389	-0.6621	-0.1393	0.7233
3.68	-9.5863	-0.0740	0.7989	-0.0020	-0.0023	-0.0677	16.9884	-15.7655	-8.6006	-0.1388	-0.6620	-0.1393	0.7232
3.69	-9.6041	-0.0905	0.8052	-0.0210	0.0061	-0.0614	17.1659	-15.7827	-8.5565	-0.1388	-0.6621	-0.1394	0.7232
3.7	-9.6204	-0.1251	0.7999	-0.0337	0.0027	-0.0596	17.1412	-16.1199	-8.5940	-0.1388	-0.6621	-0.1395	0.7232
3.71	-9.6359	-0.1607	0.7985	-0.0520	-0.0104	-0.0507	17.0542	-16.0711	-8.4860	-0.1390	-0.6620	-0.1396	0.7231
3.72	-9.6308	-0.1998	0.8007	-0.0551	-0.0069	-0.0500	17.3238	-15.8011	-8.3706	-0.1392	-0.6620	-0.1398	0.7232
3.73	-9.6186	-0.2309	0.7960	-0.0581	-0.0109	-0.0420	17.2373	-16.0624	-8.5430	-0.1393	-0.6619	-0.1399	0.7231
3.74	-9.6062	-0.2583	0.7921	-0.0580	-0.0114	-0.0390	17.1024	-15.9132	-8.3627	-0.1396	-0.6619	-0.1400	0.7231
3.75	-9.5815	-0.2840	0.7885	-0.0530	-0.0135	-0.0339	17.0951	-15.7353	-8.5138	-0.1398	-0.6617	-0.1401	0.7230
3.76	-9.5564	-0.2957	0.7842	-0.0525	-0.0091	-0.0371	17.0908	-16.0188	-8.4286	-0.1400	-0.6618	-0.1402	0.7231
3.77	-9.5646	-0.3014	0.7963	-0.0442	-0.0076	-0.0452	17.1141	-15.8659	-8.4307	-0.1401	-0.6617	-0.1403	0.7231
3.78	-9.5844	-0.3178	0.7990	-0.0358	-0.0091	-0.0424	17.0179	-15.8710	-8.4911	-0.1403	-0.6617	-0.1404	0.7230
3.79	-9.5724	-0.3235	0.8102	-0.0276	-0.0079	-0.0525	16.9906	-15.7568	-8.5973	-0.1403	-0.6617	-0.1405	0.7231
3.8	-9.5683	-0.3140	0.8055	-0.0290	-0.0007	-0.0607	17.3070	-15.6574	-8.3933	-0.1404	-0.6616	-0.1406	0.7230
3.81	-9.5504	-0.3132	0.8062	-0.0154	-0.0059	-0.0603	17.3959	-15.7030	-8.2580	-0.1404	-0.6616	-0.1406	0.7231
3.82	-9.5300	-0.3036	0.8048	-0.0015	-0.0096	-0.0636	17.2853	-15.6098	-8.3791	-0.1403	-0.6615	-0.1406	0.7230
3.83	-9.5587	-0.3085	0.7995	-0.0025	0.0042	-0.0535	17.1931	-15.5219	-8.6023	-0.1403	-0.6616	-0.1406	0.7231
3.84	-9.5832	-0.2932	0.8036	0.0021	0.0055	-0.0544	17.2013	-15.6886	-8.7237	-0.1402	-0.6616	-0.1406	0.7230
3.85	-9.5814	-0.2665	0.7993	0.0126	0.0076	-0.0515	16.8978	-15.7748	-8.6669	-0.1402	-0.6617	-0.1405	0.7230
3.86	-9.5950	-0.2416	0.8018	0.0052	0.0077	-0.0464	17.1658	-15.8546	-8.6807	-0.1401	-0.6617	-0.1404	0.7230
3.87	-9.6110	-0.2219	0.7957	0.0106	0.0017	-0.0405	17.2881	-15.8666	-8.5448	-0.1401	-0.6618	-0.1403	0.7230
3.88	-9.6226	-0.2129	0.7888	0.0091	-0.0020	-0.0372	17.1878	-16.0239	-8.4098	-0.1401	-0.6618	-0.1402	0.7230
3.89	-9.6228	-0.1954	0.7930	0.0123	0.0041	-0.0454	17.1253	-16.0245	-8.3833	-0.1400	-0.6618	-0.1401	0.7229
3.9	-9.6293	-0.1880	0.7905	0.0078	0.0021	-0.0406	17.1129	-16.1385	-8.4976	-0.1400	-0.6619	-0.1400	0.7230
3.91	-9.6353	-0.1786	0.7876	0.0010	-0.0065	-0.0483	17.2475	-16.0935	-8.6536	-0.1400	-0.6619	-0.1400	0.7230
3.92	-9.6314	-0.1733	0.7980	-0.0024	-0.0106	-0.0513	17.3948	-15.9340	-8.6328	-0.1400	-0.6619	-0.1399	0.7231
3.93	-9.6303	-0.1667	0.8005	-0.0041	-0.0139	-0.0542	17.2832	-15.9507	-8.3703	-0.1400	-0.6618	-0.1399	0.7230
3.94	-9.6257	-0.1726	0.8009	-0.0026	-0.0120	-0.0498	17.0749	-15.9192	-8.3957	-0.1400	-0.6618	-0.1399	0.7231
3.95	-9.6116	-0.1789	0.8085	-0.0141	-0.0182	-0.0481	17.1294	-15.8181	-8.4344	-0.1400	-0.6618	-0.1399	0.7231
3.96	-9.6029	-0.1864	0.8159	-0.0127	-0.0186	-0.0544	17.1133	-15.9361	-8.5965	-0.1400	-0.6617	-0.1399	0.7231
3.97	-9.5927	-0.1951	0.8227	-0.0083	-0.0271	-0.0493	17.1015	-16.0553	-8.5710	-0.1400	-0.6617	-0.1399	0.7233
3.98	-9.5729	-0.1969	0.8284	-0.0148	-0.0209	-0.0487	17.1537	-15.9999	-8.5865	-0.1401	-0.6615	-0.1398	0.7233
3.99	-9.5613	-0.2047	0.8315	-0.0238	-0.0177	-0.0425	17.2238	-15.8722	-8.5745	-0.1402	-0.6615	-0.1399	0.7234
4	-9.5465	-0.2113	0.8269	-0.0212	-0.0135	-0.0452	17.2020	-15.7581	-8.5957	-0.1402	-0.6614	-0.1399	0.7233
4.01	-9.5445	-0.2151	0.8302	-0.0215	-0.0154	-0.0402	17.0823	-15.7700	-8.5677	-0.1403	-0.6614	-0.1399	0.7234
4.02	-9.5453	-0.2159	0.8217	-0.0172	-0.0124	-0.0436	17.1816	-15.7742	-8.6200	-0.1404	-0.6614	-0.1399	0.7234
4.03	-9.5490	-0.2169	0.8220	-0.0243	-0.0114	-0.0486	17.1621	-16.0420	-8.4652	-0.1405	-0.6613	-0.1399	0.7234
4.04	-9.5709	-0.2170	0.8285	-0.0224	-0.0009	-0.0494	16.9696	-16.0214	-8.6133	-0.1405	-0.6614	-0.1399	0.7234
4.05	-9.5891	-0.2147	0.8204	-0.0159	-0.0036	-0.0426	17.0951	-15.7973	-8.8002	-0.1406	-0.6613	-0.1399	0.7234
4.06	-9.6001	-0.2113	0.8262	-0.0079	-0.0083	-0.0511	17.0938	-15.9327	-8.5565	-0.1406	-0.6613	-0.1399	0.7234
4.07	-9.6176	-0.2019	0.8272	-0.0026	-0.0049	-0.0578	17.2208	-15.9634	-8.6001	-0.1405	-0.6613	-0.1399	0.7234
4.08	-9.6258	-0.1958	0.8306	-0.0073	-0.0138	-0.0561	17.2721	-15.8002	-8.5582	-0.1405	-0.6613	-0.1399	0.7235
4.09	-9.6217	-0.1857	0.8308	0.0042	-0.0123	-0.0574	17.2245	-15.9548	-8.6331	-0.1405	-0.6612	-0.1399	0.7235
4.1	-9.6084	-0.1800	0.8393	0.0010	-0.0146	-0.0609	17.3275	-16.0844	-8.6973	-0.1404	-0.6612	-0.1399	0.7236
4.11	-9.5919	-0.1746	0.8456	-0.0034	-0.0130	-0.0601	17.1960	-15.8192	-8.5637	-0.1404	-0.6612	-0.1399	0.7236
4.12	-9.5747	-0.1740	0.8507	-0.0002	-0.0146	-0.0604	17.0513	-15.8676	-8.5930	-0.1403	-0.6611	-0.1398	0.7236
4.13	-9.5589	-0.1729	0.8560	-0.0036	-0.0115	-0.0618	17.0702	-15.8664	-8.5760	-0.1403	-0.6611	-0.1398	0.7237
4.14	-9.5464	-0.1765	0.8602	-0.0100	-0.0089	-0.0576	17.1397	-16.1524	-8.5835	-0.1403	-0.6610	-0.1399	0.7237
4.15	-9.5337	-0.1779	0.8531	-0.0054	-0.0048	-0.0572	16.9977	-15.9890	-8.5694	-0.1402	-0.6611	-0.1399	0.7238
4.16	-9.5282	-0.1816	0.8527	-0.0222	-0.0078	-0.0554	17.0333	-15.7965	-8.6064	-0.1403	-0.6610	-0.1399	0.7237
4.17	-9.5357	-0.1894	0.8487	-0.0219	0.0039	-0.0522	17.0622	-15.9518	-8.5140	-0.1403	-0.6611	-0.1400	0.7238
4.18	-9.5399	-0.1915	0.8492	-0.0244	0.0090	-0.0525	17.2579	-15.9304	-8.3822	-0.1403	-0.6610	-0.1400	0.7236
4.19	-9.5526	-0.1973	0.8439	-0.0252	0.0073	-0.0554	17.0110	-15.9618	-8.5181	-0.1404	-0.6611	-0.1401	0.7236
4.2	-9.5529	-0.2000	0.8366	-0.0281	0.0198	-0.0516	17.1358	-16.0781	-8.2677	-0.1404	-0.6612	-0.1402	0.7235
4.21	-9.5643	-0.2068	0.8308	-0.0283	0.0165	-0.0557	17.2397	-15.8773	-8.4616	-0.1405	-0.6612	-0.1403	0.7234
4.22	-9.5761	-0.2135	0.8231	-0.0270	0.0215	-0.0561	17.0918	-15.6242	-8.6383	-0.1405	-0.6613	-0.1404	0.7234
4.23	-9.5816	-0.2135	0.8185	-0.0262	0.0225	-0.0492	17.1185	-16.0255	-8.3669	-0.1405	-0.6614	-0.1404	0.7233
4.24	-9.5972	-0.2206	0.8092	-0.0254	0.0152	-0.0575	17.1337	-15.7015	-8.5353	-0.1406	-0.6615	-0.1405	0.7232
4.25	-9.6026	-0.2303	0.8036	-0.0239	0.0102	-0.0547	17.0044	-15.7600	-8.7013	-0.1406	-0.6614	-0.1406	0.7231
4.26	-9.6097	-0.2375	0.8044	-0.0260	0.0179	-0.0547	17.1739	-15.8612	-8.5584	-0.1406	-0.6615	-0.1407	0.7231
4.27	-9.6243	-0.2501	0.7978	-0.0276	0.0166	-0.0555	17.3514	-15.7442	-8.7573	-0.1406	-0.6616	-0.1408	0.7230
4.28	-9.6254	-0.2573	0.7924	-0.0224	0.0150	-0.0517	17.1958	-16.0401	-8.4794	-0.1407	-0.6616	-0.1408	0.7229
4.29	-9.6173	-0.2562	0.7917	-0.0193	0.0146	-0.0474	17.1915	-16.1308	-8.4881	-0.1407	-0.6617	-0.1409	0.7229
4.3	-9.6175	-0.2597	0.7867	-0.0174	0.0078	-0.0531	17.3842	-15.8312	-8.4737	-0.1408	-0.6617	-0.1409	0.7228
4.31	-9.6160	-0.2555	0.7816	-0.0051	-0.0055	-0.0526	18.1784	-15.9354	-8.3235	-0.1405	-0.6618	-0.1407	0.7229
4.32	-9.6111	-0.2484	0.7925	-0.0044	-0.0010	-0.0522	17.7137	-15.8095	-8.5919	-0.1404	-0.6618	-0.1406	0.7228
4.33	-9.6168	-0.2414	0.7970	-0.0003	-0.0034	-0.0560	17.2283	-15.6219	-8.5883	-0.1404	-0.6618	-0.1406	0.7229
4.34	-9.5997	-0.2283	0.7909	0.0044	-0.0007	-0.0530	17.1024	-15.8379	-8.8435	-0.1403	-0.6618	-0.1405	0.7229
4.35	-9.5787	-0.2185	0.7944	-0.0027	-0.0091	-0.0491	17.0071	-15.7835	-8.7106	-0.1403	-0.6618	-0.1405	0.7229
4.36	-9.5862	-0.1956	0.7912	-0.0017	-0.0019	-0.0466	17.1883	-15.7841	-8.5393	-0.1403	-0.6618	-0.1405	0.7229
4.37	-9.5915	-0.1732	0.7953	-0.0026	-0.0025	-0.0526	17.0912	-15.7604	-8.6900	-0.1403	-0.6618	-0.1404	0.7229
4.38	-9.5711	-0.1638	0.7964	-0.0015	-0.0014	-0.0602	17.0456	-15.8239	-8.6620	-0.1402	-0.6618	-0.1404	0.7229
4.39	-9.5718	-0.1614	0.7957	-0.0055	-0.0001	-0.0537	17.0512	-15.5882	-8.5729	-0.1402	-0.6618	-0.1404	0.7228
4.4	-9.5847	-0.1635	0.7987	-0.0157	0.0019	-0.0581	17.0664	-15.6229	-8.5835	-0.1402	-0.6619	-0.1405	0.7229
4.41	-9.5858	-0.1612	0.7979	-0.0171	0.0028	-0.0533	17.1740	-15.8449	-8.5142	-0.1402	-0.6619	-0.1405	0.7228
4.42	-9.6124	-0.1637	0.8070	-0.0264	0.0085	-0.0540	17.1125	-15.6843	-8.4975	-0.1403	-0.6619	-0.1406	0.7229
4.43	-9.6456	-0.1849	0.8069	-0.0264	0.0029	-0.0491	17.2572	-15.6841	-8.7988	-0.1403	-0.6619	-0.1406	0.7227
4.44	-9.6517	-0.1999	0.8119	-0.0272	-0.0022	-0.0586	17.2038	-15.8254	-8.7121	-0.1404	-0.6619	-0.1407	0.7228
4.45	-9.6221	-0.2082	0.8111	-0.0278	-0.0082	-0.0534	17.2926	-16.0635	-8.4267	-0.1404	-0.6619	-0.1408	0.7228
4.46	-9.5879	-0.2267	0.8059	-0.0278	-0.0148	-0.0527	17.3352	-15.9522	-8.5761	-0.1405	-0.6618	-0.1409	0.7227
4.47	-9.5613	-0.2373	0.8018	-0.0267	-0.0107	-0.0480	17.2199	-15.9519	-8.6328	-0.1406	-0.6618	-0.1409	0.7229
4.48	-9.5608	-0.2496	0.8041	-0.0264	-0.0053	-0.0430	17.0766	-15.9524	-8.4399	-0.1406	-0.6618	-0.1409	0.7228
4.49	-9.5679	-0.2488	0.8036	-0.0256	-0.0008	-0.0441	17.0542	-15.9663	-8.6899	-0.1407	-0.6618	-0.1410	0.7228
4.5	-9.5708	-0.2423	0.7978	-0.0180	-0.0004	-0.0488	17.0331	-15.8613	-8.5518	-0.1408	-0.6617	-0.1410	0.7227
4.51	-9.5756	-0.2402	0.7946	-0.0263	0.0001	-0.0532	17.0942	-15.9757	-8.6738	-0.1408	-0.6618	-0.1411	0.7227
4.52	-9.5799	-0.2423	0.7845	-0.0056	0.0016	-0.0530	17.1274	-15.7618	-8.6624	-0.1408	-0.6618	-0.1411	0.7227
4.53	-9.5747	-0.2392	0.7851	-0.0120	0.0008	-0.0597	17.2474	-15.8670	-8.5947	-0.1408	-0.6618	-0.1411	0.7227
4.54	-9.5685	-0.2322	0.7849	-0.0137	-0.0070	-0.0672	17.1027	-15.7672	-8.4391	-0.1408	-0.6618	-0.1412	0.7227
4.55	-9.5680	-0.2237	0.7834	-0.0030	-0.0012	-0.0625	16.9652	-15.7887	-8.5153	-0.1407	-0.6618	-0.1412	0.7227
4.56	-9.5573	-0.2135	0.7847	-0.0085	-0.0005	-0.0604	17.2835	-15.7517	-8.6053	-0.1407	-0.6618	-0.1412	0.7228
4.57	-9.5577	-0.2080	0.7862	-0.0045	0.0101	-0.0635	17.1968	-15.8875	-8.4452	-0.1406	-0.6618	-0.1412	0.7226
4.58	-9.5656	-0.2021	0.7848	-0.0067	0.0038	-0.0606	17.1613	-15.7206	-8.6136	-0.1406	-0.6619	-0.1413	0.7227
4.59	-9.5698	-0.2001	0.7783	-0.0165	0.0112	-0.0573	16.9356	-15.7379	-8.5007	-0.1405	-0.6619	-0.1413	0.7226
4.6	-9.5729	-0.2042	0.7758	-0.0186	0.0173	-0.0569	17.0787	-16.0213	-8.4671	-0.1405	-0.6620	-0.1414	0.7226
4.61	-9.5844	-0.2104	0.7639	-0.0284	0.0216	-0.0567	16.9147	-15.7250	-8.4634	-0.1406	-0.6620	-0.1415	0.7225
4.62	-9.5967	-0.2209	0.7563	-0.0259	0.0178	-0.0570	16.9379	-15.7058	-8.5128	-0.1406	-0.6621	-0.1416	0.7224
4.63	-9.6109	-0.2330	0.7478	-0.0318	0.0159	-0.0528	17.0668	-15.8422	-8.3705	-0.1407	-0.6621	-0.1417	0.7223
4.64	-9.6232	-0.2412	0.7446	-0.0304	0.0143	-0.0482	17.1993	-15.9489	-8.5419	-0.1407	-0.6621	-0.1417	0.7222
4.65	-9.6394	-0.2466	0.7412	-0.0278	0.0122	-0.0511	17.3466	-16.0580	-8.6770	-0.1408	-0.6623	-0.1418	0.7222
4.66	-9.6457	-0.2478	0.7370	-0.0273	0.0084	-0.0522	17.4760	-15.8868	-8.4992	-0.1408	-0.6622	-0.1419	0.7221
4.67	-9.6465	-0.2544	0.7318	-0.0283	0.0021	-0.0463	17.1831	-16.0705	-8.6507	-0.1409	-0.6623	-0.1419	0.7221
4.68	-9.6431	-0.2527	0.7275	-0.0232	-0.0048	-0.0493	17.1159	-15.9273	-8.7450	-0.1410	-0.6622	-0.1420	0.7220
4.69	-9.6373	-0.2486	0.7364	-0.0215	-0.0081	-0.0513	17.2618	-15.8788	-8.6388	-0.1410	-0.6622	-0.1420	0.7221
4.7	-9.6534	-0.2456	0.7436	-0.0247	-0.0062	-0.0560	17.0514	-15.9800	-8.6586	-0.1411	-0.6622	-0.1421	0.7221
4.71	-9.6630	-0.2603	0.7572	-0.0163	-0.0182	-0.0597	17.3466	-15.9428	-8.6536	-0.1411	-0.6621	-0.1421	0.7221
4.72	-9.6461	-0.2630	0.7647	-0.0173	-0.0228	-0.0587	17.2999	-15.9543	-8.6533	-0.1411	-0.6621	-0.1422	0.7223
4.73	-9.6348	-0.2532	0.7708	-0.0077	-0.0211	-0.0588	16.9295	-15.8219	-8.3732	-0.1411	-0.6620	-0.1422	0.7223
4.74	-9.5934	-0.2539	0.7745	-0.0079	-0.0195	-0.0651	17.0415	-15.6989	-8.6708	-0.1410	-0.6620	-0.1422	0.7224
4.75	-9.5638	-0.2517	0.7878	-0.0102	-0.0162	-0.0609	17.0654	-15.6908	-8.5521	-0.1410	-0.6618	-0.1422	0.7223
4.76	-9.5780	-0.2534	0.7887	-0.0130	-0.0202	-0.0534	17.0386	-15.6780	-8.7194	-0.1410	-0.6618	-0.1422	0.7224
4.77	-9.5768	-0.2402	0.7974	-0.0195	-0.0202	-0.0466	17.0811	-15.7392	-8.7202	-0.1411	-0.6617	-0.1422	0.7225
4.78	-9.5699	-0.2266	0.8027	-0.0176	-0.0163	-0.0503	16.9623	-15.8081	-8.6158	-0.1411	-0.6617	-0.1422	0.7225
4.79	-9.5832	-0.2253	0.8103	-0.0225	-0.0105	-0.0481	16.9605	-15.6660	-8.8002	-0.1412	-0.6617	-0.1423	0.7225
4.8	-9.5841	-0.2278	0.8090	-0.0169	-0.0077	-0.0424	17.5020	-15.8349	-8.4163	-0.1413	-0.6616	-0.1423	0.7225
4.81	-9.5784	-0.2359	0.8112	-0.0249	-0.0117	-0.0420	17.4478	-15.6754	-8.4138	-0.1414	-0.6616	-0.1423	0.7226
4.82	-9.5738	-0.2414	0.8179	-0.0188	-0.0137	-0.0433	17.3107	-15.7395	-8.5876	-0.1414	-0.6615	-0.1423	0.7225
4.83	-9.5698	-0.2455	0.8148	-0.0045	-0.0145	-0.0456	17.2926	-15.7025	-8.6271	-0.1414	-0.6616	-0.1422	0.7226
4.84	-9.5644	-0.2433	0.8105	-0.0066	-0.0136	-0.0496	17.2385	-15.5835	-8.6620	-0.1415	-0.6615	-0.1422	0.7226
4.85	-9.5567	-0.2340	0.8147	-0.0096	-0.0119	-0.0586	17.1920	-15.8912	-8.7181	-0.1414	-0.6615	-0.1422	0.7227
4.86	-9.5606	-0.2311	0.8201	-0.0071	-0.0114	-0.0559	17.0349	-15.7027	-8.5736	-0.1414	-0.6614	-0.1422	0.7227
4.87	-9.5649	-0.2255	0.8094	-0.0015	-0.0076	-0.0572	17.2304	-15.8093	-8.6156	-0.1414	-0.6614	-0.1422	0.7227
4.88	-9.5605	-0.2268	0.8120	-0.0039	-0.0068	-0.0569	17.2116	-16.0099	-8.5388	-0.1414	-0.6614	-0.1422	0.7228
4.89	-9.5620	-0.2207	0.8138	-0.0035	-0.0081	-0.0572	17.0348	-16.0310	-8.4385	-0.1413	-0.6613	-0.1422	0.7227
4.9	-9.5715	-0.2148	0.8071	-0.0037	-0.0067	-0.0560	17.1928	-15.8789	-8.8946	-0.1413	-0.6614	-0.1422	0.7228
4.91	-9.5888	-0.2142	0.8044	-0.0142	-0.0064	-0.0501	17.2607	-15.7082	-8.6139	-0.1413	-0.6613	-0.1422	0.7228
4.92	-9.6026	-0.2092	0.8100	-0.0137	-0.0046	-0.0493	16.9684	-15.7687	-8.4553	-0.1413	-0.6614	-0.1422	0.7228
4.93	-9.6143	-0.2079	0.8036	-0.0156	-0.0043	-0.0468	17.0729	-15.7421	-8.6124	-0.1414	-0.6613	-0.1422	0.7227
4.94	-9.6242	-0.2095	0.8004	-0.0191	-0.0019	-0.0501	17.0615	-15.6352	-8.6165	-0.1414	-0.6613	-0.1422	0.7228
4.95	-9.6263	-0.2116	0.8026	-0.0271	-0.0008	-0.0484	17.0885	-15.8757	-8.5212	-0.1415	-0.6613	-0.1423	0.7228
4.96	-9.6289	-0.2173	0.7986	-0.0281	-0.0131	-0.0458	16.9686	-15.7079	-8.5680	-0.1416	-0.6613	-0.1423	0.7227
4.97	-9.6274	-0.2239	0.8044	-0.0271	-0.0074	-0.0533	17.0910	-15.9140	-8.7121	-0.1416	-0.6613	-0.1424	0.7228
4.98	-9.6189	-0.2223	0.8078	-0.0212	-0.0102	-0.0427	17.0252	-15.9693	-8.6832	-0.1417	-0.6612	-0.1424	0.7228
4.99	-9.6099	-0.2310	0.8062	-0.0191	-0.0243	-0.0447	16.9568	-15.7770	-8.6390	-0.1418	-0.6612	-0.1424	0.7229
5	-9.5955	-0.2400	0.8175	-0.0251	-0.0172	-0.0421	16.9791	-15.9406	-8.5483	-0.1419	-0.6611	-0.1424	0.7228
5.01	-9.5885	-0.2372	0.8225	-0.0201	-0.0200	-0.0388	17.2060	-15.9452	-8.7678	-0.1420	-0.6611	-0.1424	0.7229
5.02	-9.5695	-0.2360	0.8320	-0.0159	-0.0214	-0.0386	17.2604	-16.0057	-8.8879	-0.1421	-0.6610	-0.1424	0.7229
5.03	-9.5540	-0.2329	0.8378	-0.0142	-0.0228	-0.0421	17.2355	-15.8601	-8.5619	-0.1421	-0.6609	-0.1423	0.7230
5.04	-9.5467	-0.2278	0.8422	-0.0134	-0.0183	-0.0472	17.1685	-16.0786	-8.7060	-0.1422	-0.6609	-0.1423	0.7231
5.05	-9.5441	-0.2199	0.8403	-0.0057	-0.0078	-0.0450	17.1053	-15.9280	-8.7975	-0.1422	-0.6609	-0.1423	0.7230
5.06	-9.5428	-0.2062	0.8427	-0.0016	-0.0124	-0.0495	16.8564	-16.0058	-8.7623	-0.1422	-0.6609	-0.1423	0.7231
5.07	-9.5409	-0.2028	0.8333	-0.0035	-0.0064	-0.0500	16.9739	-15.9421	-8.7992	-0.1422	-0.6608	-0.1422	0.7230
5.08	-9.5470	-0.1953	0.8358	-0.0021	-0.0040	-0.0563	17.0994	-15.7082	-8.6397	-0.1421	-0.6609	-0.1422	0.7231
5.09	-9.5462	-0.1859	0.8323	-0.0021	-0.0032	-0.0577	17.1862	-15.7683	-8.6069	-0.1421	-0.6608	-0.1422	0.7231
5.1	-9.5554	-0.1775	0.8284	-0.0039	0.0095	-0.0561	17.0865	-16.0195	-8.8044	-0.1421	-0.6609	-0.1422	0.7231
5.11	-9.5628	-0.1756	0.8199	-0.0023	0.0107	-0.0611	16.9520	-15.9193	-8.6670	-0.1420	-0.6609	-0.1422	0.7230
5.12	-9.5780	-0.1743	0.8128	-0.0061	0.0106	-0.0563	17.0050	-15.6932	-8.5761	-0.1419	-0.6610	-0.1422	0.7230
5.13	-9.5928	-0.1777	0.8131	-0.0236	0.0130	-0.0559	16.9134	-15.8073	-8.6168	-0.1420	-0.6610	-0.1423	0.7230
5.14	-9.6056	-0.1813	0.8056	-0.0214	0.0131	-0.0557	16.8667	-15.9530	-8.5556	-0.1420	-0.6610	-0.1423	0.7228
5.15	-9.6181	-0.1905	0.8055	-0.0212	0.0067	-0.0580	17.0058	-15.6895	-8.8627	-0.1420	-0.6611	-0.1424	0.7229
5.16	-9.6211	-0.1975	0.8021	-0.0292	0.0037	-0.0532	16.9620	-15.6952	-8.8169	-0.1420	-0.6611	-0.1425	0.7228
5.17	-9.6234	-0.2084	0.7968	-0.0274	0.0110	-0.0514	16.9964	-15.7776	-8.5612	-0.1421	-0.6612	-0.1426	0.7228
5.18	-9.6244	-0.2080	0.7964	-0.0296	0.0018	-0.0493	16.9499	-15.7322	-8.6227	-0.1422	-0.6611	-0.1426	0.7227
5.19	-9.6238	-0.2216	0.7913	-0.0259	0.0036	-0.0473	17.1453	-15.7648	-8.6870	-0.1422	-0.6612	-0.1427	0.7227
5.2	-9.6274	-0.2251	0.7933	-0.0281	-0.0064	-0.0432	17.2905	-15.9128	-8.5245	-0.1423	-0.6611	-0.1427	0.7227
5.21	-9.6254	-0.2358	0.7895	-0.0285	-0.0117	-0.0457	17.1522	-15.9190	-8.7907	-0.1424	-0.6611	-0.1428	0.7226
5.22	-9.6246	-0.2475	0.7882	-0.0280	-0.0113	-0.0509	17.1393	-16.0352	-8.6647	-0.1425	-0.6611	-0.1428	0.7228
5.23	-9.6064	-0.2552	0.7913	-0.0271	-0.0111	-0.0477	17.3406	-15.9783	-8.7018	-0.1426	-0.6610	-0.1429	0.7227
5.24	-9.6066	-0.2544	0.7997	-0.0155	-0.0067	-0.0533	17.2247	-15.8814	-8.6193	-0.1426	-0.6610	-0.1429	0.7228
5.25	-9.6031	-0.2591	0.8043	-0.0139	-0.0155	-0.0610	17.0182	-16.0474	-8.5675	-0.1426	-0.6609	-0.1429	0.7227
5.26	-9.5818	-0.2632	0.8066	-0.0112	-0.0090	-0.0572	17.2170	-15.8577	-8.6203	-0.1426	-0.6609	-0.1430	0.7228
5.27	-9.5815	-0.2519	0.8119	-0.0056	-0.0111	-0.0575	17.0762	-15.6999	-8.7275	-0.1426	-0.6609	-0.1430	0.7228
5.28	-9.5803	-0.2341	0.8139	-0.0036	-0.0109	-0.0567	17.0762	-15.8340	-8.5965	-0.1425	-0.6609	-0.1430	0.7228
5.29	-9.5582	-0.2198	0.8150	-0.0020	-0.0081	-0.0624	17.0338	-15.9435	-8.5921	-0.1425	-0.6609	-0.1430	0.7229
5.3	-9.5423	-0.2166	0.8137	-0.0100	-0.0032	-0.0670	17.4114	-15.6364	-8.4543	-0.1424	-0.6608	-0.1430	0.7229
5.31	-9.5436	-0.2176	0.8162	-0.0139	-0.0012	-0.0569	17.5414	-15.7351	-8.3838	-0.1424	-0.6609	-0.1430	0.7229
5.32	-9.5362	-0.2088	0.8202	-0.0182	-0.0056	-0.0598	17.5172	-15.7061	-8.4649	-0.1424	-0.6608	-0.1431	0.7228
5.33	-9.5586	-0.2039	0.8177	-0.0219	-0.0008	-0.0557	17.3219	-15.5968	-8.5962	-0.1424	-0.6608	-0.1432	0.7229
5.34	-9.6051	-0.2104	0.8250	-0.0220	-0.0024	-0.0518	17.0911	-15.5814	-8.4265	-0.1425	-0.6608	-0.1432	0.7229
5.35	-9.6281	-0.2214	0.8279	-0.0235	0.0111	-0.0509	17.1539	-15.6354	-8.6515	-0.1425	-0.6609	-0.1433	0.7228
5.36	-9.6245	-0.2305	0.8227	-0.0261	-0.0012	-0.0461	17.1670	-15.6081	-8.6956	-0.1426	-0.6608	-0.1433	0.7228
5.37	-9.5980	-0.2427	0.8181	-0.0235	-0.0100	-0.0420	17.0794	-15.6785	-8.4922	-0.1427	-0.6608	-0.1433	0.7228
5.38	-9.5649	-0.2508	0.8145	-0.0229	-0.0118	-0.0364	17.1401	-15.8866	-8.5240	-0.1428	-0.6608	-0.1433	0.7228
5.39	-9.5583	-0.2589	0.8149	-0.0283	-0.0059	-0.0353	17.3519	-15.9723	-8.6587	-0.1429	-0.6607	-0.1433	0.7227
5.4	-9.5645	-0.2622	0.8070	-0.0215	0.0002	-0.0340	17.3140	-15.9759	-8.6803	-0.1430	-0.6608	-0.1433	0.7228
5.41	-9.5668	-0.2547	0.8043	-0.0212	-0.0077	-0.0309	17.2941	-15.9976	-8.5958	-0.1431	-0.6608	-0.1433	0.7227
5.42	-9.5778	-0.2478	0.7977	-0.0103	0.0016	-0.0352	17.1914	-15.8946	-8.6100	-0.1432	-0.6609	-0.1432	0.7228
5.43	-9.5835	-0.2445	0.7887	-0.0136	0.0030	-0.0392	17.2744	-15.9790	-8.7856	-0.1432	-0.6608	-0.1432	0.7226
5.44	-9.5861	-0.2408	0.7903	-0.0057	0.0093	-0.0457	17.0481	-15.9723	-8.6046	-0.1433	-0.6609	-0.1432	0.7226
5.45	-9.5859	-0.2318	0.7898	-0.0014	0.0055	-0.0555	17.1317	-15.8346	-8.7381	-0.1432	-0.6609	-0.1432	0.7226
5.46	-9.5747	-0.2219	0.7971	-0.0031	0.0048	-0.0570	17.0678	-16.0160	-8.7659	-0.1432	-0.6609	-0.1432	0.7225
5.47	-9.5707	-0.2073	0.8016	0.0159	0.0017	-0.0554	16.9594	-15.8458	-8.6438	-0.1431	-0.6611	-0.1431	0.7226
5.48	-9.5603	-0.1960	0.7932	0.0041	-0.0007	-0.0608	16.9267	-15.6921	-8.6785	-0.1430	-0.6610	-0.1431	0.7226
5.49	-9.5566	-0.1734	0.7931	-0.0013	0.0009	-0.0683	16.8931	-15.9331	-8.6514	-0.1429	-0.6611	-0.1431	0.7226
5.5	-9.5472	-0.1591	0.7954	0.0030	0.0098	-0.0609	17.1037	-15.7832	-8.6782	-0.1428	-0.6610	-0.1431	0.7225
5.51	-9.5523	-0.1437	0.7854	-0.0099	0.0197	-0.0575	16.8932	-15.7150	-8.6419	-0.1428	-0.6612	-0.1431	0.7225
5.52	-9.5615	-0.1387	0.7808	-0.0156	0.0232	-0.0564	17.2489	-15.8579	-8.3561	-0.1428	-0.6612	-0.1432	0.7224
5.53	-9.5785	-0.1487	0.7667	-0.0252	0.0248	-0.0556	17.0777	-15.6836	-8.4800	-0.1428	-0.6613	-0.1433	0.7223
5.54	-9.6005	-0.1584	0.7571	-0.0288	0.0268	-0.0613	16.9560	-15.8420	-8.4705	-0.1428	-0.6614	-0.1434	0.7222
5.55	-9.6158	-0.1776	0.7464	-0.0353	0.0244	-0.0583	17.0648	-15.8779	-8.9176	-0.1428	-0.6615	-0.1435	0.7221
5.56	-9.6396	-0.2045	0.7418	-0.0455	0.0224	-0.0568	17.1252	-15.7627	-8.6438	-0.1429	-0.6616	-0.1437	0.7220
5.57	-9.6522	-0.2279	0.7241	-0.0397	0.0147	-0.0564	17.4775	-15.8928	-8.5119	-0.1430	-0.6615	-0.1438	0.7219
5.58	-9.6575	-0.2500	0.7227	-0.0435	0.0130	-0.0482	17.1312	-16.0067	-8.7292	-0.1431	-0.6617	-0.1439	0.7219
5.59	-9.6508	-0.2698	0.7201	-0.0451	0.0079	-0.0482	17.2156	-15.9307	-8.5654	-0.1432	-0.6616	-0.1441	0.7218
5.6	-9.6376	-0.2735	0.7192	-0.0332	-0.0030	-0.0521	17.4515	-15.8643	-8.6359	-0.1433	-0.6617	-0.1442	0.7218
5.61	-9.6453	-0.2805	0.7326	-0.0273	-0.0064	-0.0539	17.2956	-15.9141	-8.7672	-0.1434	-0.6616	-0.1442	0.7217
5.62	-9.6692	-0.2967	0.7330	-0.0290	-0.0067	-0.0574	17.0893	-15.8599	-8.6255	-0.1434	-0.6616	-0.1443	0.7217
5.63	-9.6513	-0.3035	0.7510	-0.0269	-0.0113	-0.0577	17.2160	-15.9636	-8.7060	-0.1435	-0.6616	-0.1444	0.7218
5.64	-9.6319	-0.2935	0.7561	-0.0195	-0.0153	-0.0601	17.2459	-15.9850	-8.8814	-0.1435	-0.6614	-0.1444	0.7217
5.65	-9.5975	-0.2935	0.7573	-0.0149	-0.0166	-0.0585	17.1156	-15.8870	-8.5886	-0.1435	-0.6615	-0.1445	0.7219
5.66	-9.5594	-0.2882	0.7641	-0.0047	-0.0175	-0.0600	17.0170	-16.0065	-8.4464	-0.1435	-0.6614	-0.1445	0.7219
5.67	-9.5651	-0.2894	0.7716	-0.0021	-0.0112	-0.0497	17.1358	-15.7080	-8.4894	-0.1435	-0.6614	-0.1445	0.7220
5.68	-9.5657	-0.2761	0.7719	-0.0034	-0.0068	-0.0507	17.1593	-15.7194	-8.4827	-0.1434	-0.6613	-0.1444	0.7219
5.69	-9.5611	-0.2506	0.7776	-0.0003	-0.0055	-0.0495	16.8886	-15.7037	-8.5872	-0.1434	-0.6613	-0.1444	0.7220
5.7	-9.5653	-0.2402	0.7822	-0.0011	-0.0073	-0.0468	17.2610	-15.5688	-8.6038	-0.1434	-0.6613	-0.1443	0.7220
5.71	-9.5783	-0.2366	0.7845	-0.0026	-0.0084	-0.0417	17.0623	-15.7981	-8.7811	-0.1434	-0.6613	-0.1443	0.7219
5.72	-9.5861	-0.2444	0.7849	0.0008	-0.0071	-0.0452	16.9610	-15.9153	-8.6460	-0.1434	-0.6614	-0.1442	0.7221
5.73	-9.5907	-0.2427	0.7793	-0.0073	-0.0033	-0.0543	17.0706	-15.7300	-8.3605	-0.1434	-0.6613	-0.1442	0.7220
5.74	-9.5846	-0.2443	0.7796	-0.0034	-0.0066	-0.0437	17.0991	-15.7120	-8.2870	-0.1434	-0.6614	-0.1442	0.7220
5.75	-9.5761	-0.2444	0.7814	-0.0018	-0.0101	-0.0418	17.2481	-15.7063	-8.7181	-0.1434	-0.6613	-0.1441	0.7220
5.76	-9.5789	-0.2339	0.7815	-0.0027	-0.0073	-0.0400	17.2388	-15.8424	-8.7338	-0.1435	-0.6613	-0.1440	0.7221
5.77	-9.5783	-0.2321	0.7783	-0.0019	-0.0085	-0.0387	17.1858	-16.0878	-8.6319	-0.1435	-0.6613	-0.1439	0.7220
5.78	-9.5818	-0.2222	0.7802	-0.0019	-0.0104	-0.0349	17.1095	-15.9918	-8.6708	-0.1435	-0.6613	-0.1439	0.7221
5.79	-9.5904	-0.2153	0.7831	-0.0023	-0.0056	-0.0380	17.2507	-15.8779	-8.6544	-0.1436	-0.6613	-0.1438	0.7221
5.8	-9.5955	-0.2117	0.7810	-0.0031	-0.0097	-0.0358	17.5038	-15.8926	-8.6629	-0.1436	-0.6613	-0.1437	0.7221
5.81	-9.6042	-0.2119	0.7823	-0.0043	-0.0096	-0.0309	17.6489	-16.0991	-8.6527	-0.1437	-0.6613	-0.1436	0.7221
5.82	-9.6085	-0.2080	0.7784	-0.0019	-0.0099	-0.0319	17.3884	-15.8943	-8.6434	-0.1437	-0.6612	-0.1435	0.7220
5.83	-9.6082	-0.2036	0.7758	-0.0017	-0.0080	-0.0319	17.1621	-15.7958	-8.5869	-0.1438	-0.6613	-0.1434	0.7221
5.84	-9.6029	-0.1964	0.7823	-0.0050	-0.0111	-0.0332	16.8907	-15.5168	-8.6239	-0.1438	-0.6613	-0.1433	0.7221
5.85	-9.6018	-0.1876	0.7790	-0.0017	-0.0096	-0.0345	16.9925	-15.7214	-8.5868	-0.1439	-0.6613	-0.1432	0.7222
5.86	-9.5992	-0.1764	0.7794	-0.0020	-0.0063	-0.0383	17.0237	-15.8440	-8.6172	-0.1439	-0.6613	-0.1432	0.7221
5.87	-9.5923	-0.1577	0.7808	0.0011	-0.0042	-0.0481	16.9841	-15.8883	-8.5479	-0.1439	-0.6613	-0.1431	0.7221
5.88	-9.5949	-0.1424	0.7852	0.0053	-0.0066	-0.0520	17.0383	-15.8709	-8.5196	-0.1438	-0.6613	-0.1431	0.7222
5.89	-9.6008	-0.1304	0.7915	0.0011	-0.0035	-0.0569	16.8964	-15.9056	-8.7349	-0.1438	-0.6612	-0.1430	0.7221
5.9	-9.6093	-0.1189	0.7960	0.0084	-0.0031	-0.0662	16.9415	-16.0294	-8.4305	-0.1437	-0.6613	-0.1430	0.7222
5.91	-9.6192	-0.1073	0.7973	0.0030	-0.0062	-0.0684	17.0081	-15.8994	-8.4192	-0.1436	-0.6613	-0.1430	0.7222
5.92	-9.6260	-0.1044	0.8042	0.0006	-0.0037	-0.0735	17.0666	-15.8949	-8.3755	-0.1435	-0.6613	-0.1431	0.7223
5.93	-9.6138	-0.1033	0.8109	-0.0035	-0.0106	-0.0724	17.1206	-15.7085	-8.6212	-0.1434	-0.6612	-0.1431	0.7223
5.94	-9.6001	-0.1031	0.8146	-0.0073	-0.0169	-0.0689	16.9472	-15.9093	-8.6957	-0.1433	-0.6612	-0.1431	0.7224
5.95	-9.5891	-0.1127	0.8155	-0.0252	-0.0139	-0.0692	17.1083	-15.9268	-8.6987	-0.1433	-0.6611	-0.1432	0.7224
5.96	-9.5830	-0.1219	0.8192	-0.0294	-0.0072	-0.0645	17.3055	-15.9346	-8.5885	-0.1433	-0.6611	-0.1433	0.7224
5.97	-9.5772	-0.1413	0.8195	-0.0345	-0.0174	-0.0653	17.2401	-15.9066	-8.7037	-0.1434	-0.6611	-0.1435	0.7225
5.98	-9.5732	-0.1601	0.8241	-0.0443	-0.0134	-0.0662	17.1852	-16.1207	-8.5025	-0.1435	-0.6609	-0.1436	0.7224
5.99	-9.5685	-0.1900	0.8222	-0.0395	-0.0054	-0.0634	17.1335	-16.1994	-8.5538	-0.1435	-0.6609	-0.1438	0.7225
6	-9.5655	-0.2127	0.8258	-0.0454	-0.0082	-0.0644	16.9126	-15.7947	-8.6170	-0.1436	-0.6608	-0.1439	0.7224
6.01	-9.5628	-0.2374	0.8260	-0.0503	-0.0048	-0.0566	16.9972	-15.8658	-8.5807	-0.1437	-0.6608	-0.1441	0.7224
6.02	-9.5627	-0.2587	0.8191	-0.0493	-0.0039	-0.0617	17.2515	-15.6303	-8.6128	-0.1438	-0.6608	-0.1443	0.7224
6.03	-9.5656	-0.2772	0.8190	-0.0420	-0.0091	-0.0590	17.2028	-15.8206	-8.5736	-0.1439	-0.6607	-0.1444	0.7224
6.04	-9.5684	-0.2909	0.8168	-0.0318	-0.0060	-0.0568	17.1061	-15.8558	-8.7074	-0.1440	-0.6607	-0.1445	0.7224
6.05	-9.5711	-0.3037	0.8144	-0.0279	-0.0047	-0.0653	17.0154	-15.8325	-8.9460	-0.1440	-0.6607	-0.1446	0.7224
6.06	-9.5818	-0.3144	0.8173	-0.0282	-0.0021	-0.0639	16.9225	-15.8496	-8.7391	-0.1440	-0.6607	-0.1447	0.7224
6.07	-9.5821	-0.3160	0.8114	-0.0257	-0.0084	-0.0586	17.1245	-15.8376	-8.5629	-0.1440	-0.6606	-0.1448	0.7223
6.08	-9.5866	-0.3115	0.8098	-0.0179	-0.0039	-0.0645	17.0945	-15.7353	-8.7366	-0.1440	-0.6606	-0.1449	0.7224
6.09	-9.5931	-0.3065	0.8040	-0.0066	0.0039	-0.0611	17.0570	-15.7685	-8.6246	-0.1440	-0.6606	-0.1449	0.7224
6.1	-9.5924	-0.3023	0.8052	-0.0040	0.0021	-0.0561	16.9827	-15.6948	-8.5895	-0.1439	-0.6607	-0.1449	0.7224
6.11	-9.5929	-0.2902	0.8057	-0.0036	-0.0034	-0.0612	17.0210	-15.5414	-8.6048	-0.1439	-0.6606	-0.1449	0.7224
6.12	-9.5952	-0.2747	0.8056	0.0016	-0.0088	-0.0583	17.0014	-15.7441	-8.6022	-0.1438	-0.6606	-0.1449	0.7224
6.13	-9.5946	-0.2588	0.8031	0.0004	-0.0059	-0.0548	17.2207	-15.7173	-8.5813	-0.1438	-0.6606	-0.1449	0.7224
6.14	-9.5942	-0.2476	0.8071	0.0049	-0.0052	-0.0528	17.3938	-15.9243	-8.6739	-0.1437	-0.6606	-0.1448	0.7224
6.15	-9.5975	-0.2310	0.8103	0.0008	-0.0068	-0.0534	17.2245	-16.0210	-8.7966	-0.1437	-0.6607	-0.1448	0.7225
6.16	-9.6072	-0.2236	0.8126	-0.0025	-0.0067	-0.0536	17.1874	-16.0545	-8.7628	-0.1437	-0.6606	-0.1448	0.7225
6.17	-9.6021	-0.2181	0.8059	-0.0031	-0.0067	-0.0568	17.1253	-16.0966	-8.7796	-0.1437	-0.6607	-0.1448	0.7226
6.18	-9.5959	-0.2106	0.8165	-0.0016	-0.0087	-0.0506	16.9851	-15.7868	-8.7811	-0.1436	-0.6606	-0.1447	0.7225
6.19	-9.6071	-0.1992	0.8150	-0.0000	-0.0109	-0.0453	17.1333	-15.7750	-8.6561	-0.1436	-0.6606	-0.1447	0.7226
6.2	-9.5939	-0.1797	0.8185	-0.0041	-0.0073	-0.0519	17.0445	-16.0608	-8.7192	-0.1436	-0.6606	-0.1446	0.7226
6.21	-9.5655	-0.1808	0.8208	-0.0036	-0.0042	-0.0542	16.9047	-15.8579	-8.5804	-0.1436	-0.6605	-0.1446	0.7225
6.22	-9.5676	-0.1951	0.8261	-0.0049	-0.0110	-0.0523	16.9278	-15.7208	-8.6257	-0.1436	-0.6606	-0.1446	0.7227
6.23	-9.5569	-0.1992	0.8200	-0.0045	-0.0025	-0.0542	17.0364	-15.9246	-8.3941	-0.1436	-0.6605	-0.1446	0.7226
6.24	-9.5558	-0.1928	0.8203	-0.0134	-0.0082	-0.0531	16.9750	-15.6617	-8.7737	-0.1436	-0.6606	-0.1446	0.7227
6.25	-9.5849	-0.1987	0.8338	-0.0225	-0.0037	-0.0516	17.1211	-15.7589	-8.6918	-0.1436	-0.6605	-0.1446	0.7226
6.26	-9.6154	-0.2108	0.8374	-0.0257	0.0011	-0.0561	16.9501	-15.8357	-8.3692	-0.1437	-0.6605	-0.1447	0.7226
6.27	-9.6078	-0.2246	0.8446	-0.0286	-0.0037	-0.0579	17.1050	-15.5634	-8.7398	-0.1437	-0.6605	-0.1448	0.7226
6.28	-9.5859	-0.2300	0.8345	-0.0291	-0.0020	-0.0566	16.9607	-15.8644	-8.6518	-0.1437	-0.6605	-0.1449	0.7225
6.29	-9.5534	-0.2313	0.8262	-0.0213	-0.0011	-0.0585	16.7744	-15.8262	-8.8146	-0.1438	-0.6605	-0.1450	0.7226
6.3	-9.5313	-0.2346	0.8216	-0.0167	0.0029	-0.0470	17.1648	-15.7375	-8.6121	-0.1438	-0.6605	-0.1450	0.7225
6.31	-9.5334	-0.2408	0.8165	-0.0199	0.0044	-0.0465	17.5723	-15.7484	-8.3771	-0.1438	-0.6605	-0.1450	0.7225
6.32	-9.5471	-0.2329	0.8078	-0.0228	0.0123	-0.0444	17.4370	-15.7502	-8.5441	-0.1439	-0.6605	-0.1450	0.7224
6.33	-9.5636	-0.2250	0.8000	-0.0110	0.0096	-0.0391	17.2513	-15.7390	-8.5556	-0.1440	-0.6607	-0.1450	0.7224
6.34	-9.5806	-0.2250	0.7902	-0.0248	0.0158	-0.0502	16.9972	-15.8483	-8.4825	-0.1440	-0.6607	-0.1451	0.7223
6.35	-9.5956	-0.2296	0.7769	-0.0154	0.0184	-0.0578	17.1226	-15.9790	-8.4673	-0.1440	-0.6608	-0.1451	0.7222
6.36	-9.6028	-0.2344	0.7683	-0.0136	0.0134	-0.0622	17.1061	-15.8531	-8.6914	-0.1439	-0.6608	-0.1452	0.7221
6.37	-9.6053	-0.2384	0.7602	-0.0184	0.0180	-0.0675	17.1644	-15.9766	-8.6437	-0.1439	-0.6609	-0.1453	0.7221
6.38	-9.6038	-0.2431	0.7592	-0.0040	0.0137	-0.0625	17.1838	-15.9404	-8.5277	-0.1438	-0.6609	-0.1453	0.7221
6.39	-9.6036	-0.2426	0.7629	-0.0074	0.0052	-0.0635	17.0073	-15.9595	-8.6799	-0.1438	-0.6609	-0.1454	0.7220
6.4	-9.5997	-0.2366	0.7615	-0.0059	0.0041	-0.0623	17.1353	-15.8527	-8.7662	-0.1437	-0.6610	-0.1454	0.7221
6.41	-9.5991	-0.2311	0.7642	-0.0088	0.0023	-0.0534	16.9836	-15.8532	-8.6169	-0.1437	-0.6610	-0.1454	0.7220
6.42	-9.5992	-0.2223	0.7628	-0.0119	0.0047	-0.0509	17.1136	-15.6646	-8.4957	-0.1437	-0.6611	-0.1454	0.7220
6.43	-9.6009	-0.2223	0.7573	-0.0159	0.0052	-0.0528	17.1365	-15.7844	-8.5574	-0.1437	-0.6610	-0.1454	0.7219
6.44	-9.5986	-0.2260	0.7548	-0.0230	0.0142	-0.0464	17.2044	-15.8892	-8.7421	-0.1438	-0.6611	-0.1455	0.7219
6.45	-9.6041	-0.2301	0.7574	-0.0286	0.0024	-0.0519	16.8751	-15.8265	-8.5293	-0.1438	-0.6611	-0.1456	0.7218
6.46	-9.6094	-0.2308	0.7528	-0.0274	0.0046	-0.0488	16.8180	-15.6618	-8.4822	-0.1439	-0.6611	-0.1456	0.7217
6.47	-9.6217	-0.2391	0.7496	-0.0281	0.0068	-0.0488	17.0894	-15.8134	-8.4699	-0.1440	-0.6612	-0.1457	0.7218
6.48	-9.6252	-0.2429	0.7438	-0.0278	-0.0017	-0.0457	17.2449	-15.7208	-8.7002	-0.1441	-0.6612	-0.1457	0.7217
6.49	-9.6284	-0.2447	0.7440	-0.0291	-0.0069	-0.0430	16.9457	-15.6887	-8.7338	-0.1442	-0.6612	-0.1458	0.7217
6.5	-9.6318	-0.2441	0.7453	-0.0231	-0.0048	-0.0407	16.9315	-15.6614	-8.6429	-0.1442	-0.6611	-0.1458	0.7216
6.51	-9.6185	-0.2444	0.7458	-0.0146	-0.0150	-0.0379	17.1774	-15.9691	-8.5726	-0.1443	-0.6611	-0.1458	0.7217
6.52	-9.6137	-0.2425	0.7566	-0.0145	-0.0088	-0.0428	16.8815	-15.9983	-8.5775	-0.1444	-0.6611	-0.1457	0.7217
6.53	-9.6407	-0.2452	0.7668	-0.0162	-0.0100	-0.0514	17.1769	-15.6981	-8.5599	-0.1444	-0.6611	-0.1457	0.7217
6.54	-9.6226	-0.2589	0.7755	-0.0047	-0.0154	-0.0532	17.3365	-16.0234	-8.7946	-0.1444	-0.6610	-0.1457	0.7218
6.55	-9.5890	-0.2413	0.7856	-0.0016	-0.0215	-0.0540	17.1300	-15.9972	-8.4416	-0.1444	-0.6610	-0.1457	0.7218
6.56	-9.5654	-0.2330	0.7846	-0.0037	-0.0159	-0.0493	17.1250	-15.7336	-8.6274	-0.1444	-0.6610	-0.1457	0.7219
6.57	-9.5263	-0.2246	0.7923	-0.0019	-0.0114	-0.0497	17.1217	-15.8877	-8.6923	-0.1444	-0.6609	-0.1456	0.7218
6.58	-9.5321	-0.2213	0.7990	-0.0029	-0.0096	-0.0447	16.9088	-15.8351	-8.6610	-0.1444	-0.6609	-0.1456	0.7220
6.59	-9.5545	-0.2121	0.8003	-0.0004	-0.0054	-0.0367	17.1213	-15.9317	-8.6577	-0.1444	-0.6609	-0.1455	0.7219
6.6	-9.5498	-0.1891	0.7995	-0.0020	-0.0037	-0.0359	17.1038	-15.9090	-8.4469	-0.1445	-0.6609	-0.1454	0.7219
6.61	-9.5607	-0.1645	0.7941	-0.0068	0.0016	-0.0396	17.2358	-15.6541	-8.6148	-0.1445	-0.6609	-0.1454	0.7219
6.62	-9.5917	-0.1610	0.7899	-0.0077	0.0028	-0.0341	17.0460	-15.8193	-8.6659	-0.1445	-0.6610	-0.1453	0.7219
6.63	-9.6060	-0.1583	0.7911	-0.0075	-0.0030	-0.0453	16.8782	-15.7390	-8.5068	-0.1446	-0.6610	-0.1453	0.7219
6.64	-9.6068	-0.1606	0.7838	-0.0114	-0.0039	-0.0476	17.0756	-15.8808	-8.3954	-0.1446	-0.6609	-0.1452	0.7218
6.65	-9.6006	-0.1647	0.7799	-0.0055	0.0024	-0.0490	16.8751	-15.7455	-8.3901	-0.1446	-0.6611	-0.1452	0.7219
6.66	-9.5943	-0.1636	0.7759	-0.0149	0.0017	-0.0560	17.0633	-15.6705	-8.5635	-0.1446	-0.6610	-0.1453	0.7218
6.67	-9.5974	-0.1665	0.7686	-0.0091	-0.0035	-0.0587	17.0923	-15.9588	-8.6175	-0.1446	-0.6611	-0.1453	0.7219
6.68	-9.5946	-0.1708	0.7700	-0.0154	-0.0079	-0.0584	16.9017	-15.9417	-8.8214	-0.1445	-0.6610	-0.1453	0.7218
6.69	-9.6037	-0.1796	0.7701	-0.0221	-0.0076	-0.0564	17.0828	-15.9806	-8.6642	-0.1446	-0.6610	-0.1454	0.7218
6.7	-9.6108	-0.1832	0.7692	-0.0225	-0.0046	-0.0640	17.1705	-15.8740	-8.8004	-0.1446	-0.6610	-0.1455	0.7218
6.71	-9.6204	-0.1887	0.7735	-0.0235	-0.0094	-0.0589	17.2413	-15.9306	-8.7965	-0.1446	-0.6609	-0.1455	0.7218
6.72	-9.6229	-0.1982	0.7722	-0.0275	-0.0057	-0.0554	17.1680	-16.0560	-8.6499	-0.1447	-0.6610	-0.1456	0.7219
6.73	-9.6178	-0.1993	0.7835	-0.0285	-0.0105	-0.0523	17.2807	-16.0473	-8.6277	-0.1447	-0.6609	-0.1457	0.7219
6.74	-9.6154	-0.2078	0.7774	-0.0284	-0.0153	-0.0466	17.2470	-15.9806	-8.5741	-0.1448	-0.6609	-0.1457	0.7219
6.75	-9.6074	-0.2148	0.7789	-0.0284	-0.0149	-0.0501	17.1114	-15.8601	-8.4591	-0.1449	-0.6607	-0.1458	0.7218
6.76	-9.6069	-0.2192	0.7806	-0.0288	-0.0119	-0.0444	17.2124	-15.8383	-8.7770	-0.1450	-0.6607	-0.1458	0.7219
6.77	-9.6033	-0.2190	0.7855	-0.0219	-0.0129	-0.0455	17.0822	-16.1171	-8.6330	-0.1451	-0.6607	-0.1458	0.7219
6.78	-9.5999	-0.2184	0.7963	-0.0214	-0.0214	-0.0405	17.1462	-16.0003	-8.6133	-0.1452	-0.6606	-0.1458	0.7220
6.79	-9.5957	-0.2146	0.7967	-0.0210	-0.0187	-0.0439	17.0032	-15.7440	-8.8088	-0.1452	-0.6606	-0.1458	0.7220
6.8	-9.5912	-0.2091	0.7979	-0.0210	-0.0104	-0.0517	17.3286	-15.7596	-8.1797	-0.1453	-0.6605	-0.1459	0.7220
6.81	-9.5854	-0.2081	0.8041	-0.0048	-0.0054	-0.0527	17.4324	-15.6406	-8.0817	-0.1453	-0.6605	-0.1459	0.7221
6.82	-9.5789	-0.2021	0.8075	-0.0061	-0.0148	-0.0571	17.2510	-15.7376	-8.2355	-0.1452	-0.6604	-0.1458	0.7220
6.83	-9.5733	-0.1955	0.8149	-0.0078	-0.0160	-0.0574	17.1430	-15.7115	-8.1518	-0.1452	-0.6605	-0.1459	0.7221
6.84	-9.5677	-0.1869	0.8171	-0.0037	-0.0126	-0.0576	17.0318	-15.8257	-8.2244	-0.1452	-0.6604	-0.1458	0.7221
6.85	-9.5585	-0.1802	0.8206	-0.0025	-0.0116	-0.0570	16.9793	-15.7473	-8.4524	-0.1452	-0.6604	-0.1458	0.7222
6.86	-9.5534	-0.1690	0.8208	-0.0035	-0.0114	-0.0585	17.1377	-15.8572	-8.2887	-0.1451	-0.6603	-0.1458	0.7222
6.87	-9.5454	-0.1662	0.8177	-0.0040	-0.0118	-0.0534	17.1772	-15.9492	-8.4705	-0.1451	-0.6603	-0.1458	0.7223
6.88	-9.5493	-0.1664	0.8220	-0.0028	-0.0148	-0.0569	17.2516	-15.9332	-8.7146	-0.1451	-0.6603	-0.1458	0.7223
6.89	-9.5566	-0.1630	0.8166	-0.0094	-0.0016	-0.0623	17.2859	-15.8695	-8.5827	-0.1450	-0.6602	-0.1458	0.7222
6.9	-9.5662	-0.1672	0.8163	-0.0078	-0.0036	-0.0551	17.2839	-15.7054	-8.5097	-0.1450	-0.6603	-0.1458	0.7223
6.91	-9.5736	-0.1706	0.8126	-0.0168	-0.0094	-0.0518	17.4077	-15.8407	-8.6148	-0.1451	-0.6602	-0.1458	0.7223
6.92	-9.5806	-0.1752	0.8104	-0.0154	-0.0045	-0.0543	17.3056	-16.0054	-8.5953	-0.1451	-0.6603	-0.1459	0.7224
6.93	-9.5864	-0.1779	0.8038	-0.0231	-0.0058	-0.0587	17.0910	-15.6959	-8.4960	-0.1451	-0.6602	-0.1459	0.7223
6.94	-9.5979	-0.1811	0.7990	-0.0192	0.0060	-0.0627	16.9748	-15.9455	-8.5197	-0.1451	-0.6602	-0.1460	0.7223
6.95	-9.6071	-0.1847	0.8020	-0.0240	-0.0012	-0.0626	17.0660	-16.0184	-8.6295	-0.1451	-0.6602	-0.1461	0.7223
6.96	-9.6060	-0.1837	0.7986	-0.0281	0.0011	-0.0597	17.1816	-15.7955	-8.5525	-0.1451	-0.6602	-0.1462	0.7222
6.97	-9.6052	-0.1888	0.7899	-0.0237	-0.0074	-0.0579	17.2114	-16.0767	-8.7434	-0.1452	-0.6603	-0.1463	0.7223
6.98	-9.6081	-0.1934	0.7874	-0.0258	-0.0035	-0.0617	17.1362	-16.1130	-8.4341	-0.1452	-0.6602	-0.1464	0.7222
6.99	-9.6007	-0.1921	0.7875	-0.0289	-0.0045	-0.0552	17.0935	-16.0857	-8.4776	-0.1452	-0.6602	-0.1465	0.7223
7	-9.6033	-0.2030	0.7817	-0.0278	-0.0043	-0.0637	17.0866	-15.7938	-8.4207	-0.1452	-0.6601	-0.1465	0.7222
7.01	-9.5987	-0.2107	0.7878	-0.0290	-0.0010	-0.0602	17.1379	-15.9045	-8.2977	-0.1453	-0.6601	-0.1466	0.7222
7.02	-9.5972	-0.2244	0.7855	-0.0327	-0.0049	-0.0584	17.1710	-15.8809	-8.4837	-0.1453	-0.6601	-0.1467	0.7222
7.03	-9.5986	-0.2402	0.7859	-0.0283	-0.0074	-0.0577	17.0029	-15.8536	-8.5833	-0.1454	-0.6601	-0.1468	0.7222
7.04	-9.6014	-0.2542	0.7872	-0.0281	-0.0013	-0.0565	16.9990	-15.7166	-8.6055	-0.1454	-0.6601	-0.1469	0.7222
7.05	-9.5962	-0.2634	0.7835	-0.0279	-0.0047	-0.0593	17.0491	-15.9809	-8.5928	-0.1455	-0.6600	-0.1470	0.7222
7.06	-9.5956	-0.2688	0.7845	-0.0287	-0.0117	-0.0525	16.8982	-15.9242	-8.5602	-0.1455	-0.6600	-0.1471	0.7222
7.07	-9.6044	-0.2715	0.7849	-0.0210	-0.0148	-0.0588	17.1035	-15.7930	-8.3597	-0.1456	-0.6599	-0.1471	0.7222
7.08	-9.5995	-0.2797	0.7839	-0.0153	-0.0110	-0.0567	17.2922	-16.0841	-8.6836	-0.1456	-0.6599	-0.1472	0.7223
7.09	-9.5947	-0.2754	0.7837	-0.0065	-0.0076	-0.0558	16.9964	-15.8308	-8.6232	-0.1456	-0.6599	-0.1472	0.7223
7.1	-9.6087	-0.2578	0.7896	-0.0047	-0.0073	-0.0577	16.9979	-16.1406	-8.6026	-0.1455	-0.6599	-0.1472	0.7223
7.11	-9.6113	-0.2369	0.7897	-0.0035	-0.0073	-0.0464	17.1290	-15.9935	-8.4597	-0.1455	-0.6599	-0.1471	0.7223
7.12	-9.5919	-0.2263	0.7964	-0.0055	-0.0069	-0.0556	16.9171	-15.8110	-8.5805	-0.1455	-0.6599	-0.1471	0.7223
7.13	-9.5941	-0.2209	0.8015	-0.0016	-0.0072	-0.0538	17.0337	-15.8609	-8.4902	-0.1455	-0.6599	-0.1471	0.7224
7.14	-9.5817	-0.2114	0.8047	-0.0013	-0.0085	-0.0589	17.1395	-15.8306	-8.3550	-0.1454	-0.6598	-0.1471	0.7223
7.15	-9.5797	-0.1979	0.8119	-0.0017	-0.0091	-0.0600	16.9715	-15.9524	-8.6546	-0.1454	-0.6599	-0.1471	0.7224
7.16	-9.6003	-0.1903	0.8235	-0.0045	-0.0135	-0.0528	17.3482	-15.9332	-8.5549	-0.1454	-0.6598	-0.1471	0.7224
7.17	-9.6251	-0.1946	0.8326	-0.0081	-0.0145	-0.0531	17.3392	-15.8855	-8.6283	-0.1454	-0.6598	-0.1471	0.7225
7.18	-9.6274	-0.2009	0.8371	-0.0131	-0.0083	-0.0557	17.0592	-15.7299	-8.4823	-0.1454	-0.6597	-0.1471	0.7224
7.19	-9.5999	-0.2069	0.8402	-0.0139	-0.0111	-0.0517	17.0203	-15.6619	-8.4031	-0.1454	-0.6597	-0.1471	0.7225
7.2	-9.5611	-0.2149	0.8398	-0.0124	-0.0211	-0.0554	16.9785	-15.8684	-8.6217	-0.1454	-0.6596	-0.1471	0.7226
7.21	-9.5277	-0.2171	0.8413	-0.0260	-0.0161	-0.0469	17.1242	-16.0607	-8.8075	-0.1455	-0.6596	-0.1471	0.7225
7.22	-9.5234	-0.2195	0.8419	-0.0157	-0.0072	-0.0437	16.9591	-15.8881	-8.6478	-0.1456	-0.6596	-0.1471	0.7226
7.23	-9.5226	-0.2218	0.8388	-0.0195	0.0025	-0.0491	16.9682	-15.7302	-8.4444	-0.1456	-0.6596	-0.1471	0.7226
7.24	-9.5304	-0.2106	0.8300	-0.0241	0.0015	-0.0495	16.9682	-15.9772	-8.3372	-0.1457	-0.6596	-0.1472	0.7226
7.25	-9.5376	-0.2049	0.8261	-0.0229	0.0039	-0.0519	16.8879	-15.8159	-8.2908	-0.1457	-0.6596	-0.1472	0.7224
7.26	-9.5501	-0.1993	0.8183	-0.0164	0.0131	-0.0529	17.1695	-15.7696	-8.5872	-0.1457	-0.6597	-0.1473	0.7225
7.27	-9.5577	-0.1978	0.8096	-0.0124	0.0155	-0.0579	17.0384	-16.0493	-8.5570	-0.1457	-0.6597	-0.1473	0.7224
7.28	-9.5644	-0.1968	0.8011	-0.0095	0.0165	-0.0641	17.2624	-15.9456	-8.3963	-0.1456	-0.6598	-0.1474	0.7223
7.29	-9.5732	-0.1977	0.7997	-0.0181	0.0093	-0.0601	17.3857	-15.8189	-8.4156	-0.1456	-0.6598	-0.1474	0.7223
7.3	-9.5758	-0.1957	0.7920	-0.0137	0.0119	-0.0641	17.6348	-15.8642	-8.2614	-0.1456	-0.6599	-0.1475	0.7222
7.31	-9.5740	-0.1933	0.7813	-0.0283	0.0122	-0.0643	17.8026	-15.7740	-8.4124	-0.1456	-0.6599	-0.1476	0.7222
7.32	-9.5734	-0.1983	0.7839	-0.0283	0.0113	-0.0607	17.4825	-15.7235	-8.3455	-0.1456	-0.6599	-0.1477	0.7221
7.33	-9.5845	-0.2008	0.7727	-0.0284	0.0110	-0.0633	17.2347	-15.7474	-8.5431	-0.1456	-0.6600	-0.1478	0.7221
7.34	-9.5909	-0.2104	0.7672	-0.0271	0.0148	-0.0565	17.1700	-15.8086	-8.7358	-0.1456	-0.6600	-0.1479	0.7220
7.35	-9.5975	-0.2268	0.7577	-0.0300	0.0164	-0.0522	17.0456	-15.8087	-8.5590	-0.1457	-0.6601	-0.1480	0.7219
7.36	-9.6022	-0.2396	0.7486	-0.0345	0.0219	-0.0540	16.9323	-15.6632	-8.5889	-0.1457	-0.6601	-0.1481	0.7218
7.37	-9.6209	-0.2589	0.7371	-0.0350	0.0207	-0.0483	16.9737	-15.5794	-8.4190	-0.1458	-0.6602	-0.1482	0.7217
7.38	-9.6391	-0.2777	0.7305	-0.0325	0.0193	-0.0446	17.0544	-15.8276	-8.3936	-0.1459	-0.6603	-0.1483	0.7216
7.39	-9.6464	-0.2925	0.7241	-0.0284	0.0131	-0.0451	16.6996	-15.8898	-8.2920	-0.1460	-0.6603	-0.1484	0.7215
7.4	-9.6522	-0.2865	0.7159	-0.0261	0.0131	-0.0474	16.9445	-15.7336	-8.4036	-0.1461	-0.6604	-0.1484	0.7215
7.41	-9.6288	-0.2782	0.7141	-0.0261	0.0008	-0.0448	17.1711	-15.5236	-8.5326	-0.1461	-0.6604	-0.1485	0.7214
7.42	-9.6325	-0.2837	0.7106	-0.0293	0.0031	-0.0469	17.1164	-15.7500	-8.3786	-0.1462	-0.6605	-0.1485	0.7214
7.43	-9.6415	-0.2711	0.7239	-0.0197	-0.0013	-0.0476	17.1152	-15.8681	-8.4687	-0.1463	-0.6604	-0.1485	0.7213
7.44	-9.6651	-0.2643	0.7270	-0.0048	-0.0114	-0.0538	17.0413	-15.8737	-8.7393	-0.1463	-0.6604	-0.1485	0.7214
7.45	-9.6461	-0.2602	0.7417	-0.0010	-0.0131	-0.0588	17.1468	-15.9988	-8.5482	-0.1462	-0.6604	-0.1485	0.7214
7.46	-9.6427	-0.2509	0.7484	0.0056	-0.0157	-0.0562	17.1637	-15.8353	-8.6596	-0.1462	-0.6603	-0.1485	0.7214
7.47	-9.6227	-0.2313	0.7544	0.0019	-0.0140	-0.0578	17.4575	-15.9811	-8.7441	-0.1461	-0.6604	-0.1485	0.7216
7.48	-9.5718	-0.2165	0.7594	0.0091	-0.0266	-0.0583	17.1831	-15.9110	-8.6502	-0.1461	-0.6602	-0.1484	0.7216
7.49	-9.5826	-0.2146	0.7772	0.0049	-0.0229	-0.0548	17.3126	-16.0449	-8.5979	-0.1460	-0.6602	-0.1483	0.7217
7.5	-9.5969	-0.2084	0.7758	0.0042	-0.0173	-0.0521	17.1996	-15.9353	-8.5402	-0.1460	-0.6601	-0.1483	0.7217
7.51	-9.5875	-0.1815	0.7888	0.0021	-0.0191	-0.0459	17.1285	-15.9763	-8.7014	-0.1460	-0.6601	-0.1482	0.7218
7.52	-9.5773	-0.1589	0.7903	-0.0032	-0.0166	-0.0425	17.0597	-16.0364	-8.6058	-0.1460	-0.6601	-0.1481	0.7218
7.53	-9.5870	-0.1535	0.7880	-0.0035	-0.0140	-0.0424	17.0856	-15.8248	-8.4754	-0.1460	-0.6600	-0.1481	0.7219
7.54	-9.5879	-0.1550	0.7966	-0.0178	-0.0144	-0.0452	17.2450	-15.8964	-8.4780	-0.1461	-0.6600	-0.1481	0.7219
7.55	-9.5835	-0.1591	0.7997	-0.0262	-0.0089	-0.0458	17.0627	-15.6629	-8.3350	-0.1462	-0.6600	-0.1481	0.7219
7.56	-9.5771	-0.1711	0.8047	-0.0187	-0.0105	-0.0475	17.0087	-15.5994	-8.4970	-0.1462	-0.6600	-0.1481	0.7219
7.57	-9.5659	-0.1727	0.8004	-0.0138	-0.0100	-0.0542	17.1478	-15.8953	-8.3648	-0.1462	-0.6599	-0.1481	0.7219
7.58	-9.5535	-0.1780	0.8041	-0.0243	-0.0080	-0.0541	16.9792	-15.8359	-8.5283	-0.1463	-0.6599	-0.1482	0.7220
7.59	-9.5435	-0.1849	0.8028	-0.0226	-0.0083	-0.0562	16.9808	-15.5806	-8.7237	-0.1463	-0.6599	-0.1482	0.7219
7.6	-9.5354	-0.2015	0.8013	-0.0281	-0.0062	-0.0589	17.0634	-15.6743	-8.5928	-0.1463	-0.6599	-0.1483	0.7220
7.61	-9.5364	-0.2131	0.8028	-0.0278	-0.0068	-0.0546	17.0202	-15.6919	-8.3549	-0.1464	-0.6598	-0.1484	0.7219
7.62	-9.5501	-0.2318	0.7935	-0.0285	-0.0026	-0.0563	17.0505	-15.6877	-8.6892	-0.1464	-0.6598	-0.1485	0.7219
7.63	-9.5568	-0.2484	0.7910	-0.0270	-0.0003	-0.0559	17.2132	-16.0662	-8.7655	-0.1465	-0.6598	-0.1486	0.7219
7.64	-9.5678	-0.2603	0.7805	-0.0293	0.0117	-0.0472	17.1906	-15.9231	-8.7680	-0.1466	-0.6598	-0.1486	0.7218
7.65	-9.5855	-0.2696	0.7697	-0.0267	0.0070	-0.0372	17.3538	-15.9940	-8.3984	-0.1467	-0.6599	-0.1487	0.7218
7.66	-9.6056	-0.2705	0.7617	-0.0274	0.0018	-0.0388	17.3575	-15.9829	-8.5702	-0.1468	-0.6599	-0.1487	0.7217
7.67	-9.6230	-0.2686	0.7596	-0.0287	-0.0028	-0.0397	17.2881	-16.0077	-8.7126	-0.1469	-0.6599	-0.1487	0.7218
7.68	-9.6319	-0.2628	0.7556	-0.0197	-0.0016	-0.0435	17.2241	-16.0391	-8.5230	-0.1469	-0.6599	-0.1487	0.7216
7.69	-9.6372	-0.2540	0.7531	-0.0072	-0.0012	-0.0456	17.0760	-15.9474	-8.6074	-0.1470	-0.6599	-0.1487	0.7217
7.7	-9.6348	-0.2398	0.7509	-0.0020	-0.0062	-0.0445	17.0027	-15.8837	-8.6796	-0.1470	-0.6599	-0.1486	0.7217
7.71	-9.6396	-0.2232	0.7464	-0.0010	-0.0102	-0.0465	17.1358	-15.9385	-8.6458	-0.1470	-0.6599	-0.1486	0.7217
7.72	-9.6373	-0.2065	0.7482	-0.0010	-0.0109	-0.0518	17.0100	-15.8458	-8.6786	-0.1470	-0.6599	-0.1486	0.7218
7.73	-9.6350	-0.1903	0.7502	-0.0005	-0.0062	-0.0530	17.0755	-15.9087	-8.4819	-0.1469	-0.6599	-0.1485	0.7217
7.74	-9.6374	-0.1730	0.7564	0.0036	-0.0115	-0.0544	17.1474	-15.9202	-8.5236	-0.1469	-0.6599	-0.1485	0.7218
7.75	-9.6341	-0.1630	0.7614	0.0005	-0.0092	-0.0580	17.1073	-15.7424	-8.6892	-0.1468	-0.6598	-0.1484	0.7217
7.76	-9.6270	-0.1561	0.7715	-0.0011	-0.0198	-0.0568	17.1418	-15.7885	-8.5292	-0.1468	-0.6598	-0.1484	0.7219
7.77	-9.6170	-0.1475	0.7717	0.0076	-0.0218	-0.0572	17.0910	-15.5866	-8.6176	-0.1468	-0.6597	-0.1484	0.7219
7.78	-9.6067	-0.1363	0.7809	-0.0016	-0.0193	-0.0575	16.9299	-15.6641	-8.4599	-0.1467	-0.6597	-0.1483	0.7220
7.79	-9.5933	-0.1359	0.7942	-0.0028	-0.0172	-0.0593	17.0466	-15.7996	-8.6083	-0.1467	-0.6597	-0.1483	0.7221
7.8	-9.5856	-0.1326	0.8005	-0.0146	-0.0183	-0.0561	17.1769	-15.7421	-8.3656	-0.1467	-0.6596	-0.1483	0.7221
7.81	-9.5715	-0.1387	0.8040	-0.0184	-0.0209	-0.0581	17.4511	-15.6310	-8.0638	-0.1467	-0.6595	-0.1484	0.7222
7.82	-9.5595	-0.1496	0.8103	-0.0279	-0.0219	-0.0564	17.1844	-15.7933	-8.2379	-0.1468	-0.6594	-0.1484	0.7221
7.83	-9.5628	-0.1573	0.8134	-0.0276	-0.0176	-0.0546	17.1500	-15.8053	-8.5495	-0.1468	-0.6594	-0.1485	0.7223
7.84	-9.5550	-0.1732	0.8122	-0.0267	-0.0154	-0.0507	17.1873	-15.6514	-8.5505	-0.1469	-0.6593	-0.1485	0.7223
7.85	-9.5567	-0.1881	0.8146	-0.0321	-0.0050	-0.0585	16.9899	-16.1219	-8.4587	-0.1470	-0.6593	-0.1486	0.7223
7.86	-9.5633	-0.1985	0.8167	-0.0318	-0.0135	-0.0550	17.0412	-16.0722	-8.5954	-0.1470	-0.6592	-0.1487	0.7223
7.87	-9.5703	-0.2065	0.8130	-0.0355	-0.0121	-0.0515	16.9866	-15.6905	-8.4539	-0.1471	-0.6592	-0.1488	0.7223
7.88	-9.5821	-0.2208	0.8050	-0.0288	-0.0124	-0.0539	17.0912	-15.8073	-8.5560	-0.1472	-0.6591	-0.1489	0.7223
7.89	-9.5848	-0.2302	0.8110	-0.0281	-0.0097	-0.0528	17.1145	-15.8584	-8.6133	-0.1472	-0.6590	-0.1489	0.7222
7.9	-9.5850	-0.2421	0.8127	-0.0284	-0.0086	-0.0577	17.0121	-15.8010	-8.5423	-0.1473	-0.6591	-0.1490	0.7223
7.91	-9.5809	-0.2573	0.8098	-0.0278	-0.0101	-0.0577	16.8344	-15.9355	-8.3559	-0.1474	-0.6590	-0.1491	0.7223
7.92	-9.5719	-0.2622	0.7998	-0.0293	-0.0038	-0.0574	16.6868	-15.8809	-8.4313	-0.1474	-0.6591	-0.1492	0.7224
7.93	-9.5646	-0.2704	0.7950	-0.0263	0.0000	-0.0556	16.9679	-16.0640	-8.2809	-0.1474	-0.6590	-0.1493	0.7222
7.94	-9.5776	-0.2807	0.7875	-0.0242	-0.0011	-0.0574	16.8973	-15.8000	-8.5654	-0.1475	-0.6590	-0.1493	0.7223
7.95	-9.5770	-0.2825	0.7817	-0.0224	0.0051	-0.0554	16.9901	-16.0690	-8.5952	-0.1475	-0.6590	-0.1494	0.7222
7.96	-9.5775	-0.2824	0.7852	-0.0049	0.0084	-0.0589	17.0298	-15.9421	-8.5068	-0.1475	-0.6590	-0.1494	0.7222
7.97	-9.5973	-0.2808	0.7809	-0.0020	-0.0005	-0.0543	17.0122	-15.9334	-8.3704	-0.1474	-0.6591	-0.1494	0.7222
7.98	-9.5882	-0.2806	0.7739	-0.0036	-0.0002	-0.0549	16.8734	-16.1059	-8.2728	-0.1474	-0.6591	-0.1494	0.7222
7.99	-9.5967	-0.2668	0.7779	0.0005	0.0011	-0.0472	16.8142	-15.8667	-8.3696	-0.1474	-0.6592	-0.1494	0.7222
8	-9.6160	-0.2474	0.7808	0.0006	0.0023	-0.0420	16.9212	-15.8599	-8.5082	-0.1474	-0.6591	-0.1493	0.7221
8.01	-9.6123	-0.2210	0.7736	0.0093	-0.0084	-0.0456	17.2880	-16.0446	-8.4719	-0.1474	-0.6592	-0.1492	0.7222
8.02	-9.5970	-0.2100	0.7755	0.0078	-0.0076	-0.0458	17.0654	-15.9055	-8.1577	-0.1473	-0.6592	-0.1491	0.7222
8.03	-9.5970	-0.2065	0.7726	0.0005	-0.0071	-0.0583	16.9963	-15.9616	-8.3902	-0.1473	-0.6591	-0.1491	0.7222
8.04	-9.6000	-0.1915	0.7705	-0.0005	-0.0045	-0.0564	17.0278	-15.8524	-8.4883	-0.1472	-0.6592	-0.1491	0.7222
8.05	-9.5952	-0.1762	0.7754	-0.0048	-0.0096	-0.0438	17.0146	-15.9495	-8.5349	-0.1472	-0.6591	-0.1490	0.7222
8.06	-9.6280	-0.1708	0.7865	0.0031	-0.0031	-0.0428	17.0167	-15.5853	-8.5642	-0.1473	-0.6592	-0.1489	0.7223
8.07	-9.6608	-0.1764	0.7926	-0.0078	-0.0064	-0.0447	17.0330	-15.9824	-8.3683	-0.1473	-0.6591	-0.1489	0.7222
8.08	-9.6592	-0.1788	0.8035	-0.0080	-0.0120	-0.0573	16.8775	-16.0085	-8.4076	-0.1473	-0.6592	-0.1489	0.7223
8.09	-9.6387	-0.1801	0.8030	-0.0086	-0.0115	-0.0469	17.0247	-15.9575	-8.3953	-0.1473	-0.6591	-0.1489	0.7223
8.1	-9.5964	-0.1835	0.7995	-0.0192	-0.0184	-0.0438	17.1669	-16.0813	-8.3807	-0.1474	-0.6591	-0.1489	0.7223
8.11	-9.5664	-0.1816	0.8020	-0.0185	-0.0158	-0.0489	16.8856	-15.9020	-8.5042	-0.1474	-0.6590	-0.1489	0.7223
8.12	-9.5596	-0.1849	0.8069	-0.0169	-0.0174	-0.0441	16.8255	-15.9939	-8.6014	-0.1475	-0.6590	-0.1489	0.7224
8.13	-9.5524	-0.1858	0.8035	-0.0237	-0.0113	-0.0472	16.8740	-16.0297	-8.3658	-0.1475	-0.6589	-0.1489	0.7224
8.14	-9.5576	-0.1888	0.7987	-0.0247	-0.0031	-0.0520	17.0410	-15.7264	-8.5068	-0.1476	-0.6589	-0.1489	0.7223
8.15	-9.5490	-0.1873	0.8036	-0.0259	-0.0083	-0.0559	17.0940	-15.9107	-8.4723	-0.1476	-0.6589	-0.1490	0.7224
8.16	-9.5485	-0.1975	0.7937	-0.0282	0.0004	-0.0534	17.0014	-15.9112	-8.3755	-0.1477	-0.6589	-0.1491	0.7224
8.17	-9.5609	-0.2077	0.7903	-0.0292	0.0009	-0.0604	17.0203	-15.5689	-8.4163	-0.1477	-0.6589	-0.1492	0.7224
8.18	-9.5612	-0.2205	0.7894	-0.0256	-0.0063	-0.0655	17.0310	-15.6770	-8.3970	-0.1477	-0.6588	-0.1493	0.7223
8.19	-9.5637	-0.2271	0.7865	-0.0251	0.0057	-0.0631	17.0999	-15.9369	-8.5206	-0.1478	-0.6589	-0.1494	0.7223
8.2	-9.5642	-0.2277	0.7851	-0.0157	0.0037	-0.0637	16.9960	-16.0873	-8.4563	-0.1477	-0.6589	-0.1495	0.7223
8.21	-9.5699	-0.2320	0.7830	-0.0185	0.0075	-0.0611	17.3204	-15.9168	-8.5859	-0.1477	-0.6589	-0.1495	0.7222
8.22	-9.5715	-0.2372	0.7827	-0.0263	-0.0021	-0.0557	17.2562	-15.9720	-8.4789	-0.1478	-0.6590	-0.1496	0.7223
8.23	-9.5717	-0.2370	0.7803	-0.0253	0.0015	-0.0551	17.1921	-16.0248	-8.4912	-0.1478	-0.6589	-0.1497	0.7222
8.24	-9.5787	-0.2416	0.7743	-0.0259	0.0041	-0.0584	17.1524	-15.8554	-8.7137	-0.1478	-0.6590	-0.1498	0.7222
8.25	-9.5898	-0.2467	0.7704	-0.0278	0.0079	-0.0531	16.9919	-15.8487	-8.5424	-0.1479	-0.6589	-0.1498	0.7221
8.26	-9.5920	-0.2499	0.7627	-0.0281	0.0137	-0.0543	17.0355	-15.8757	-8.6521	-0.1479	-0.6590	-0.1499	0.7221
8.27	-9.6049	-0.2560	0.7529	-0.0286	0.0102	-0.0510	17.1729	-15.8117	-8.4058	-0.1480	-0.6590	-0.1500	0.7220
8.28	-9.6182	-0.2609	0.7520	-0.0249	0.0130	-0.0468	17.2211	-16.0185	-8.2647	-0.1480	-0.6591	-0.1500	0.7219
8.29	-9.6216	-0.2603	0.7534	-0.0216	0.0102	-0.0476	17.0710	-16.0419	-8.3084	-0.1481	-0.6592	-0.1501	0.7219
8.3	-9.6292	-0.2550	0.7518	-0.0158	0.0136	-0.0470	17.2929	-15.6276	-8.2060	-0.1481	-0.6592	-0.1501	0.7218
8.31	-9.6223	-0.2484	0.7457	-0.0116	0.0045	-0.0495	17.4254	-15.7742	-8.3943	-0.1481	-0.6593	-0.1501	0.7218
8.32	-9.6081	-0.2429	0.7518	-0.0112	-0.0046	-0.0484	17.2579	-15.6730	-8.5093	-0.1481	-0.6592	-0.1501	0.7217
8.33	-9.6137	-0.2317	0.7626	-0.0128	-0.0066	-0.0546	17.1196	-15.5530	-8.4474	-0.1482	-0.6593	-0.1501	0.7218
8.34	-9.6387	-0.2376	0.7683	-0.0112	-0.0049	-0.0613	17.0043	-15.5170	-8.5583	-0.1481	-0.6592	-0.1501	0.7218
8.35	-9.6120	-0.2371	0.7773	-0.0095	-0.0042	-0.0667	17.1023	-15.7003	-8.3125	-0.1481	-0.6592	-0.1502	0.7218
8.36	-9.5970	-0.2325	0.7792	-0.0062	-0.0038	-0.0600	17.1567	-15.6978	-8.3891	-0.1481	-0.6592	-0.1502	0.7218
8.37	-9.5696	-0.2287	0.7729	-0.0018	-0.0121	-0.0584	16.9370	-15.8368	-8.6636	-0.1480	-0.6592	-0.1502	0.7218
8.38	-9.5438	-0.2240	0.7869	-0.0103	-0.0114	-0.0652	17.0302	-15.8993	-8.6690	-0.1480	-0.6592	-0.1502	0.7219
8.39	-9.5759	-0.2360	0.7837	-0.0130	-0.0044	-0.0546	17.3152	-15.8505	-8.6662	-0.1480	-0.6591	-0.1502	0.7218
8.4	-9.5868	-0.2302	0.7916	-0.0038	0.0040	-0.0396	17.3047	-16.0057	-8.6742	-0.1480	-0.6592	-0.1502	0.7219
8.41	-9.5784	-0.2131	0.7889	-0.0098	-0.0056	-0.0415	17.4157	-15.9038	-8.4856	-0.1480	-0.6592	-0.1502	0.7218
8.42	-9.5959	-0.2069	0.7853	-0.0221	-0.0003	-0.0454	17.3768	-15.8668	-8.5419	-0.1481	-0.6592	-0.1502	0.7219
8.43	-9.5970	-0.2086	0.7883	-0.0147	-0.0021	-0.0422	17.3324	-15.8742	-8.6834	-0.1482	-0.6592	-0.1502	0.7217
8.44	-9.5990	-0.2080	0.7852	-0.0263	-0.0052	-0.0454	16.8768	-15.8907	-8.6710	-0.1482	-0.6592	-0.1502	0.7218
8.45	-9.5967	-0.2129	0.7859	-0.0217	0.0017	-0.0519	16.9161	-15.6460	-8.6641	-0.1483	-0.6592	-0.1502	0.7217
8.46	-9.5870	-0.2156	0.7845	-0.0207	-0.0078	-0.0536	16.9300	-15.6582	-8.7063	-0.1483	-0.6591	-0.1503	0.7217
8.47	-9.5751	-0.2118	0.7852	-0.0119	-0.0007	-0.0546	17.0767	-15.8438	-8.5244	-0.1483	-0.6592	-0.1503	0.7218
8.48	-9.5787	-0.2101	0.7794	-0.0118	-0.0034	-0.0520	17.2286	-15.5823	-8.3835	-0.1483	-0.6592	-0.1503	0.7217
8.49	-9.5873	-0.2093	0.7761	-0.0201	-0.0002	-0.0529	17.0221	-15.7311	-8.6041	-0.1484	-0.6592	-0.1504	0.7217
8.5	-9.5912	-0.2074	0.7776	-0.0191	-0.0046	-0.0544	17.0189	-15.9897	-8.4846	-0.1484	-0.6591	-0.1504	0.7216
8.51	-9.5975	-0.2083	0.7781	-0.0225	0.0039	-0.0561	17.0660	-15.7433	-8.5758	-0.1484	-0.6592	-0.1504	0.7217
8.52	-9.5988	-0.2081	0.7782	-0.0137	-0.0004	-0.0572	17.1083	-15.6318	-8.4596	-0.1484	-0.6592	-0.1505	0.7216
8.53	-9.6078	-0.2119	0.7842	-0.0184	-0.0043	-0.0573	16.9292	-15.6542	-8.5133	-0.1484	-0.6592	-0.1505	0.7216
8.54	-9.6034	-0.2159	0.7834	-0.0248	-0.0001	-0.0531	16.9404	-15.9250	-8.3748	-0.1485	-0.6592	-0.1506	0.7216
8.55	-9.5966	-0.2212	0.7811	-0.0217	-0.0090	-0.0492	16.8291	-15.8378	-8.5357	-0.1485	-0.6592	-0.1506	0.7216
8.56	-9.5900	-0.2255	0.7769	-0.0165	-0.0050	-0.0407	17.0903	-15.7487	-8.4133	-0.1486	-0.6592	-0.1506	0.7216
8.57	-9.5793	-0.2302	0.7764	-0.0065	-0.0020	-0.0382	17.2273	-15.8998	-8.3663	-0.1486	-0.6591	-0.1505	0.7215
8.58	-9.5739	-0.2354	0.7793	-0.0060	-0.0005	-0.0452	17.0840	-15.8386	-8.5379	-0.1487	-0.6592	-0.1505	0.7216
8.59	-9.5722	-0.2281	0.7783	-0.0082	0.0002	-0.0428	17.1724	-16.1257	-8.5717	-0.1487	-0.6592	-0.1505	0.7216
8.6	-9.5773	-0.2256	0.7686	-0.0058	0.0039	-0.0512	17.2257	-16.0233	-8.5866	-0.1487	-0.6593	-0.1505	0.7216
8.61	-9.5857	-0.2178	0.7690	-0.0032	0.0039	-0.0563	17.2010	-15.7565	-8.5531	-0.1486	-0.6593	-0.1505	0.7215
8.62	-9.5931	-0.2119	0.7785	-0.0015	0.0032	-0.0543	17.0902	-15.7760	-8.5042	-0.1486	-0.6593	-0.1504	0.7215
8.63	-9.5985	-0.2027	0.7767	-0.0025	0.0053	-0.0666	16.9616	-15.6696	-8.4029	-0.1485	-0.6594	-0.1505	0.7215
8.64	-9.5987	-0.1876	0.7758	-0.0026	0.0093	-0.0593	16.9142	-15.7166	-8.4924	-0.1485	-0.6594	-0.1505	0.7214
8.65	-9.6047	-0.1718	0.7770	-0.0011	-0.0022	-0.0650	17.1790	-15.6914	-8.4599	-0.1484	-0.6595	-0.1505	0.7215
8.66	-9.5989	-0.1652	0.7754	-0.0012	-0.0001	-0.0630	17.0635	-15.8580	-8.5844	-0.1483	-0.6594	-0.1505	0.7214
8.67	-9.5950	-0.1568	0.7737	-0.0047	-0.0057	-0.0603	17.2514	-15.8893	-8.6585	-0.1483	-0.6595	-0.1505	0.7215
8.68	-9.5813	-0.1590	0.7720	-0.0083	0.0040	-0.0654	16.9829	-15.8602	-8.4310	-0.1482	-0.6594	-0.1505	0.7214
8.69	-9.5840	-0.1630	0.7732	-0.0151	0.0006	-0.0622	17.1055	-15.9013	-8.5292	-0.1482	-0.6595	-0.1506	0.7214
8.7	-9.5809	-0.1727	0.7700	-0.0255	-0.0027	-0.0610	17.2082	-15.8164	-8.4123	-0.1482	-0.6594	-0.1507	0.7214
8.71	-9.5849	-0.1836	0.7660	-0.0285	-0.0035	-0.0525	17.0146	-15.7261	-8.3816	-0.1483	-0.6594	-0.1507	0.7214
8.72	-9.5988	-0.2055	0.7716	-0.0294	0.0012	-0.0529	16.9293	-15.5503	-8.5132	-0.1484	-0.6595	-0.1508	0.7214
8.73	-9.5958	-0.2207	0.7738	-0.0284	0.0047	-0.0528	16.9839	-15.7470	-8.4811	-0.1484	-0.6594	-0.1509	0.7213
8.74	-9.5993	-0.2393	0.7603	-0.0277	0.0029	-0.0482	17.0386	-16.1485	-8.4847	-0.1485	-0.6595	-0.1510	0.7213
8.75	-9.5994	-0.2552	0.7657	-0.0281	0.0050	-0.0453	17.1103	-15.8215	-8.4758	-0.1486	-0.6594	-0.1510	0.7212
8.76	-9.5960	-0.2596	0.7619	-0.0278	0.0010	-0.0467	17.1271	-15.9206	-8.6142	-0.1487	-0.6595	-0.1511	0.7212
8.77	-9.5977	-0.2605	0.7569	-0.0270	0.0028	-0.0430	17.1161	-16.1485	-8.3275	-0.1487	-0.6595	-0.1511	0.7212
8.78	-9.6061	-0.2616	0.7566	-0.0167	-0.0015	-0.0497	17.1094	-16.0779	-8.3250	-0.1488	-0.6595	-0.1511	0.7211
8.79	-9.6037	-0.2552	0.7553	-0.0251	0.0039	-0.0561	17.2168	-15.9344	-8.6459	-0.1488	-0.6595	-0.1512	0.7211
8.8	-9.5971	-0.2469	0.7558	-0.0206	0.0037	-0.0561	17.4850	-15.7250	-8.5010	-0.1488	-0.6595	-0.1512	0.7211
8.81	-9.5964	-0.2327	0.7566	-0.0044	0.0030	-0.0574	17.6380	-15.6740	-8.5193	-0.1488	-0.6596	-0.1513	0.7211
8.82	-9.5936	-0.2233	0.7553	-0.0032	-0.0003	-0.0572	17.3308	-15.7339	-8.3100	-0.1487	-0.6595	-0.1512	0.7210
8.83	-9.5881	-0.2148	0.7567	-0.0042	-0.0017	-0.0560	17.2704	-15.6574	-8.3008	-0.1487	-0.6596	-0.1512	0.7211
8.84	-9.5885	-0.2059	0.7574	-0.0026	-0.0068	-0.0540	16.9254	-15.7862	-8.2745	-0.1487	-0.6596	-0.1512	0.7211
8.85	-9.5948	-0.1983	0.7614	-0.0064	0.0024	-0.0565	17.0612	-15.9562	-8.2819	-0.1487	-0.6596	-0.1512	0.7211
8.86	-9.5983	-0.1985	0.7612	-0.0038	0.0044	-0.0561	17.2510	-15.8286	-8.4419	-0.1486	-0.6596	-0.1512	0.7210
8.87	-9.5832	-0.2051	0.7589	-0.0150	0.0004	-0.0557	17.0378	-15.7913	-8.2873	-0.1486	-0.6597	-0.1512	0.7210
8.88	-9.5888	-0.2109	0.7616	-0.0080	0.0017	-0.0578	17.0309	-15.7697	-8.3516	-0.1486	-0.6597	-0.1513	0.7210
8.89	-9.5993	-0.2039	0.7640	-0.0100	0.0066	-0.0526	17.0076	-15.9301	-8.2967	-0.1486	-0.6597	-0.1513	0.7209
8.9	-9.5882	-0.2020	0.7666	-0.0159	0.0046	-0.0559	17.1496	-15.9381	-8.4577	-0.1486	-0.6598	-0.1513	0.7210
8.91	-9.5781	-0.2102	0.7639	-0.0187	0.0089	-0.0571	16.9132	-15.7075	-8.3649	-0.1486	-0.6598	-0.1514	0.7209
8.92	-9.5920	-0.2283	0.7560	-0.0290	0.0079	-0.0564	17.0671	-15.6852	-8.3068	-0.1487	-0.6599	-0.1515	0.7209
8.93	-9.5832	-0.2306	0.7569	-0.0162	0.0026	-0.0552	17.2424	-15.9378	-8.4251	-0.1487	-0.6598	-0.1515	0.7208
8.94	-9.5923	-0.2260	0.7635	-0.0121	0.0018	-0.0451	16.9304	-15.9408	-8.2940	-0.1487	-0.6599	-0.1515	0.7208
8.95	-9.6244	-0.2300	0.7672	-0.0176	0.0054	-0.0526	17.1663	-15.8379	-8.3647	-0.1487	-0.6599	-0.1515	0.7208
8.96	-9.6403	-0.2333	0.7699	-0.0067	-0.0041	-0.0554	17.2210	-15.9163	-8.5256	-0.1487	-0.6598	-0.1515	0.7207
8.97	-9.6255	-0.2384	0.7707	-0.0137	-0.0074	-0.0556	17.1886	-15.8981	-8.5800	-0.1487	-0.6599	-0.1515	0.7208
8.98	-9.5992	-0.2432	0.7696	-0.0099	-0.0079	-0.0590	17.2284	-16.0033	-8.5189	-0.1487	-0.6598	-0.1515	0.7208
8.99	-9.5609	-0.2466	0.7636	-0.0121	-0.0072	-0.0606	17.3544	-16.0946	-8.6464	-0.1487	-0.6599	-0.1516	0.7208
9	-9.5348	-0.2398	0.7631	-0.0125	-0.0084	-0.0524	17.0676	-15.8703	-8.4104	-0.1487	-0.6598	-0.1516	0.7207
9.01	-9.5403	-0.2383	0.7706	-0.0060	-0.0044	-0.0522	17.1719	-15.8477	-8.3864	-0.1487	-0.6598	-0.1516	0.7208
9.02	-9.5576	-0.2325	0.7613	-0.0067	0.0080	-0.0451	17.1426	-15.9676	-8.5154	-0.1487	-0.6599	-0.1515	0.7208
9.03	-9.5603	-0.2173	0.7545	-0.0120	0.0141	-0.0427	16.8786	-15.7767	-8.6668	-0.1487	-0.6599	-0.1515	0.7207
9.04	-9.5674	-0.2142	0.7496	-0.0163	0.0185	-0.0513	17.0802	-15.6134	-8.3705	-0.1487	-0.6600	-0.1516	0.7206
9.05	-9.5788	-0.2188	0.7438	-0.0212	0.0183	-0.0519	16.8363	-15.8457	-8.3177	-0.1488	-0.6601	-0.1516	0.7205
9.06	-9.5837	-0.2215	0.7412	-0.0222	0.0145	-0.0540	17.1262	-15.9770	-8.3398	-0.1488	-0.6602	-0.1517	0.7205
9.07	-9.5853	-0.2231	0.7314	-0.0196	0.0141	-0.0570	17.0014	-16.1333	-8.2181	-0.1488	-0.6601	-0.1517	0.7203
9.08	-9.5811	-0.2235	0.7302	-0.0142	0.0185	-0.0574	16.9715	-15.8255	-8.3508	-0.1488	-0.6603	-0.1518	0.7204
9.09	-9.5826	-0.2258	0.7315	-0.0152	0.0159	-0.0544	16.9679	-15.7631	-8.3008	-0.1488	-0.6603	-0.1518	0.7202
9.1	-9.5933	-0.2217	0.7315	-0.0103	0.0158	-0.0566	17.0499	-15.8648	-8.4163	-0.1488	-0.6604	-0.1519	0.7202
9.11	-9.5923	-0.2221	0.7246	-0.0139	0.0147	-0.0530	17.2430	-15.8107	-8.3274	-0.1487	-0.6605	-0.1519	0.7201
9.12	-9.5955	-0.2208	0.7298	-0.0117	0.0106	-0.0521	17.0674	-15.9622	-8.3126	-0.1487	-0.6605	-0.1519	0.7201
9.13	-9.5976	-0.2243	0.7299	-0.0086	0.0143	-0.0543	17.1379	-15.6825	-8.3426	-0.1487	-0.6606	-0.1519	0.7200
9.14	-9.5956	-0.2254	0.7208	-0.0093	0.0148	-0.0544	17.1143	-15.9401	-8.3026	-0.1487	-0.6606	-0.1519	0.7199
9.15	-9.6018	-0.2256	0.7223	-0.0106	0.0079	-0.0548	16.8977	-15.9893	-8.3543	-0.1487	-0.6607	-0.1520	0.7199
9.16	-9.6111	-0.2287	0.7137	-0.0120	0.0122	-0.0576	17.1294	-15.9289	-8.4161	-0.1487	-0.6607	-0.1520	0.7198
9.17	-9.6203	-0.2318	0.7111	-0.0137	0.0154	-0.0614	17.0243	-15.8292	-8.4756	-0.1486	-0.6609	-0.1521	0.7199
9.18	-9.6344	-0.2353	0.7048	-0.0153	0.0157	-0.0598	17.1185	-15.9408	-8.6199	-0.1486	-0.6608	-0.1521	0.7197
9.19	-9.6339	-0.2373	0.6912	-0.0069	0.0165	-0.0610	17.2152	-15.9855	-8.4682	-0.1486	-0.6610	-0.1521	0.7197
9.2	-9.6232	-0.2320	0.6833	-0.0108	0.0202	-0.0631	17.2171	-15.9295	-8.3438	-0.1485	-0.6610	-0.1522	0.7196
9.21	-9.6477	-0.2262	0.6945	-0.0098	0.0070	-0.0612	17.1121	-15.7557	-8.3119	-0.1485	-0.6610	-0.1522	0.7195
9.22	-9.6767	-0.2395	0.7016	-0.0138	-0.0011	-0.0644	17.1319	-15.7476	-8.4344	-0.1485	-0.6611	-0.1523	0.7196
9.23	-9.6565	-0.2487	0.7157	-0.0097	-0.0048	-0.0606	17.0619	-15.9838	-8.4180	-0.1484	-0.6611	-0.1523	0.7195
9.24	-9.6441	-0.2461	0.7209	-0.0103	-0.0165	-0.0607	17.0556	-15.8807	-8.3938	-0.1484	-0.6611	-0.1523	0.7196
9.25	-9.6105	-0.2481	0.7158	-0.0095	-0.0108	-0.0629	17.2322	-15.9545	-8.5339	-0.1484	-0.6609	-0.1523	0.7196
9.26	-9.5675	-0.2536	0.7280	-0.0182	-0.0149	-0.0664	17.1848	-15.8724	-8.3455	-0.1484	-0.6610	-0.1524	0.7197
9.27	-9.5920	-0.2657	0.7341	-0.0215	-0.0071	-0.0593	17.2241	-15.8454	-8.2040	-0.1484	-0.6609	-0.1525	0.7197
9.28	-9.6059	-0.2641	0.7374	-0.0236	-0.0058	-0.0515	17.1351	-16.0347	-8.5307	-0.1484	-0.6609	-0.1525	0.7197
9.29	-9.5898	-0.2475	0.7363	-0.0276	-0.0047	-0.0515	16.9832	-15.9033	-8.4993	-0.1485	-0.6609	-0.1526	0.7197
9.3	-9.5876	-0.2392	0.7439	-0.0212	-0.0047	-0.0502	17.3616	-15.7897	-8.2364	-0.1485	-0.6609	-0.1526	0.7196
9.31	-9.5930	-0.2432	0.7473	-0.0273	-0.0085	-0.0437	17.7567	-15.6940	-8.0284	-0.1486	-0.6609	-0.1526	0.7197
9.32	-9.5904	-0.2411	0.7533	-0.0175	-0.0114	-0.0446	17.7108	-15.8738	-8.1370	-0.1487	-0.6608	-0.1526	0.7196
9.33	-9.5784	-0.2444	0.7443	-0.0181	-0.0101	-0.0425	17.4628	-15.9426	-8.2751	-0.1488	-0.6608	-0.1526	0.7197
9.34	-9.5766	-0.2488	0.7433	-0.0236	0.0020	-0.0546	17.3078	-15.9036	-8.2992	-0.1488	-0.6608	-0.1527	0.7196
9.35	-9.5799	-0.2547	0.7398	-0.0169	0.0059	-0.0574	17.3753	-15.8491	-8.5665	-0.1488	-0.6609	-0.1527	0.7196
9.36	-9.5751	-0.2561	0.7353	-0.0260	0.0015	-0.0555	17.3422	-15.8504	-8.5777	-0.1488	-0.6608	-0.1528	0.7195
9.37	-9.5777	-0.2558	0.7326	-0.0213	-0.0015	-0.0488	17.1164	-15.8233	-8.2909	-0.1489	-0.6609	-0.1528	0.7195
9.38	-9.5834	-0.2580	0.7388	-0.0232	0.0001	-0.0443	17.2376	-15.9079	-8.5393	-0.1490	-0.6609	-0.1529	0.7195
9.39	-9.5840	-0.2591	0.7345	-0.0204	-0.0020	-0.0457	16.9566	-15.9492	-8.5629	-0.1490	-0.6608	-0.1529	0.7194
9.4	-9.5827	-0.2606	0.7340	-0.0246	0.0030	-0.0449	17.2435	-15.8291	-8.6953	-0.1491	-0.6609	-0.1529	0.7195
9.41	-9.5780	-0.2586	0.7264	-0.0243	0.0042	-0.0466	17.2212	-15.8434	-8.5833	-0.1491	-0.6609	-0.1529	0.7194
9.42	-9.5787	-0.2521	0.7226	-0.0120	0.0084	-0.0450	17.1942	-15.8707	-8.3689	-0.1492	-0.6610	-0.1530	0.7194
9.43	-9.5813	-0.2541	0.7214	-0.0191	0.0113	-0.0440	17.4253	-15.6540	-8.2994	-0.1492	-0.6610	-0.1529	0.7192
9.44	-9.5896	-0.2463	0.7138	-0.0144	0.0055	-0.0450	16.9076	-15.4415	-8.4151	-0.1493	-0.6611	-0.1530	0.7192
9.45	-9.6047	-0.2509	0.7163	-0.0214	0.0079	-0.0460	16.8349	-15.7418	-8.3642	-0.1493	-0.6611	-0.1530	0.7192
9.46	-9.6164	-0.2525	0.7077	-0.0075	0.0115	-0.0440	17.0018	-15.7602	-8.4806	-0.1493	-0.6611	-0.1530	0.7191
9.47	-9.6211	-0.2494	0.7044	-0.0137	0.0121	-0.0434	17.1076	-15.7621	-8.3770	-0.1494	-0.6613	-0.1530	0.7191
9.48	-9.6212	-0.2458	0.6971	-0.0004	0.0099	-0.0445	17.1845	-15.8771	-8.3842	-0.1494	-0.6613	-0.1529	0.7190
9.49	-9.6279	-0.2448	0.7015	0.0035	-0.0033	-0.0533	16.9637	-15.8139	-8.3776	-0.1493	-0.6614	-0.1529	0.7191
9.5	-9.6219	-0.2330	0.7035	0.0009	0.0041	-0.0505	17.1019	-15.9476	-8.4579	-0.1493	-0.6613	-0.1528	0.7189
9.51	-9.6251	-0.2197	0.7039	0.0100	-0.0028	-0.0503	17.0633	-16.0309	-8.6203	-0.1492	-0.6614	-0.1528	0.7190
9.52	-9.6225	-0.2122	0.7064	0.0116	0.0023	-0.0555	17.1345	-15.8553	-8.6451	-0.1491	-0.6614	-0.1527	0.7190
9.53	-9.6198	-0.2008	0.7091	0.0108	-0.0046	-0.0496	17.1996	-15.8317	-8.4023	-0.1491	-0.6614	-0.1526	0.7190
9.54	-9.6109	-0.1894	0.7180	0.0058	-0.0041	-0.0597	17.1471	-15.9415	-8.2497	-0.1490	-0.6615	-0.1526	0.7190
9.55	-9.6164	-0.1799	0.7202	0.0002	-0.0084	-0.0536	17.2162	-16.0608	-8.2051	-0.1490	-0.6614	-0.1525	0.7190
9.56	-9.6088	-0.1772	0.7205	0.0105	-0.0110	-0.0551	17.2804	-15.9378	-8.3665	-0.1489	-0.6615	-0.1525	0.7191
9.57	-9.5962	-0.1710	0.7213	-0.0040	-0.0000	-0.0531	17.2514	-15.9349	-8.4088	-0.1489	-0.6614	-0.1524	0.7190
9.58	-9.5938	-0.1736	0.7199	-0.0033	0.0008	-0.0552	17.2709	-15.9142	-8.3258	-0.1489	-0.6615	-0.1524	0.7191
9.59	-9.5867	-0.1799	0.7234	-0.0098	-0.0010	-0.0556	17.0929	-15.6565	-8.3455	-0.1488	-0.6615	-0.1524	0.7191
9.6	-9.5749	-0.1892	0.7264	-0.0264	0.0002	-0.0547	17.0929	-15.6828	-8.3766	-0.1489	-0.6615	-0.1525	0.7190
9.61	-9.5766	-0.2019	0.7220	-0.0294	-0.0080	-0.0494	17.0732	-15.6484	-8.5226	-0.1489	-0.6615	-0.1526	0.7190
9.62	-9.5797	-0.2199	0.7172	-0.0217	0.0012	-0.0492	16.9906	-15.8323	-8.3842	-0.1490	-0.6615	-0.1526	0.7190
9.63	-9.5791	-0.2332	0.7168	-0.0263	-0.0062	-0.0527	17.1677	-16.0131	-8.3141	-0.1491	-0.6615	-0.1527	0.7190
9.64	-9.5873	-0.2493	0.7188	-0.0286	-0.0032	-0.0460	17.2308	-16.0392	-8.3993	-0.1491	-0.6614	-0.1527	0.7189
9.65	-9.5869	-0.2606	0.7117	-0.0292	0.0089	-0.0513	17.5089	-15.8859	-8.3897	-0.1492	-0.6615	-0.1528	0.7189
9.66	-9.5889	-0.2641	0.7101	-0.0284	-0.0037	-0.0465	17.3609	-15.6954	-8.3252	-0.1493	-0.6615	-0.1528	0.7189
9.67	-9.5953	-0.2724	0.7095	-0.0270	0.0037	-0.0537	17.3911	-15.5894	-8.3520	-0.1494	-0.6616	-0.1529	0.7189
9.68	-9.5969	-0.2746	0.7108	-0.0223	0.0051	-0.0580	17.1443	-15.5700	-8.4023	-0.1494	-0.6615	-0.1530	0.7188
9.69	-9.6095	-0.2730	0.7113	-0.0091	0.0096	-0.0572	16.9821	-15.8210	-8.3962	-0.1493	-0.6616	-0.1530	0.7188
9.7	-9.6192	-0.2657	0.7114	-0.0051	0.0087	-0.0570	17.3387	-15.8682	-8.5100	-0.1493	-0.6616	-0.1530	0.7187
9.71	-9.6209	-0.2568	0.7072	0.0005	0.0071	-0.0611	17.3794	-15.7517	-8.4570	-0.1492	-0.6616	-0.1530	0.7187
9.72	-9.6153	-0.2534	0.7041	-0.0044	0.0118	-0.0630	17.2169	-15.7630	-8.3979	-0.1492	-0.6618	-0.1530	0.7187
9.73	-9.6070	-0.2404	0.7046	-0.0018	0.0063	-0.0588	17.2006	-15.8735	-8.1988	-0.1491	-0.6617	-0.1530	0.7186
9.74	-9.6200	-0.2157	0.7087	-0.0060	-0.0012	-0.0540	17.0415	-15.8161	-8.2591	-0.1491	-0.6618	-0.1530	0.7187
9.75	-9.6145	-0.1992	0.7114	-0.0029	0.0045	-0.0603	16.9595	-15.9416	-8.3906	-0.1490	-0.6618	-0.1530	0.7186
9.76	-9.6132	-0.1966	0.7115	-0.0107	0.0032	-0.0577	17.2438	-16.0385	-8.2751	-0.1490	-0.6618	-0.1530	0.7186
9.77	-9.6178	-0.2045	0.7130	-0.0075	-0.0040	-0.0565	17.0993	-15.8286	-8.4426	-0.1490	-0.6618	-0.1530	0.7186
9.78	-9.5958	-0.2052	0.7214	-0.0096	-0.0033	-0.0571	17.0689	-15.9257	-8.2652	-0.1490	-0.6618	-0.1531	0.7186
9.79	-9.6116	-0.2126	0.7281	-0.0237	0.0027	-0.0580	17.1839	-15.9381	-8.4109	-0.1490	-0.6619	-0.1531	0.7186
9.8	-9.6226	-0.2262	0.7350	-0.0234	-0.0021	-0.0542	17.4512	-15.6627	-8.0718	-0.1490	-0.6618	-0.1532	0.7185
9.81	-9.6128	-0.2361	0.7395	-0.0214	-0.0033	-0.0523	17.5970	-15.6748	-8.2403	-0.1491	-0.6619	-0.1532	0.7185
9.82	-9.5878	-0.2540	0.7425	-0.0218	-0.0011	-0.0590	17.3330	-15.6462	-8.3471	-0.1491	-0.6618	-0.1533	0.7184
9.83	-9.5672	-0.2699	0.7407	-0.0263	-0.0048	-0.0569	17.1987	-15.6102	-8.2435	-0.1491	-0.6618	-0.1534	0.7185
9.84	-9.5328	-0.2818	0.7313	-0.0156	-0.0024	-0.0512	17.1777	-15.7790	-8.2410	-0.1492	-0.6618	-0.1534	0.7185
9.85	-9.5059	-0.2808	0.7257	-0.0223	0.0082	-0.0500	16.8225	-15.8928	-8.2327	-0.1492	-0.6619	-0.1534	0.7184
9.86	-9.5197	-0.2797	0.7193	-0.0146	0.0134	-0.0461	17.0071	-15.7365	-8.3254	-0.1492	-0.6619	-0.1534	0.7183
9.87	-9.5470	-0.2760	0.7126	-0.0043	0.0235	-0.0387	17.1382	-15.8226	-8.3533	-0.1492	-0.6620	-0.1534	0.7183
9.88	-9.5668	-0.2683	0.7044	-0.0010	0.0291	-0.0406	17.0233	-15.8484	-8.4603	-0.1492	-0.6622	-0.1534	0.7182
9.89	-9.5939	-0.2630	0.6891	-0.0006	0.0326	-0.0483	17.3887	-15.9562	-8.3042	-0.1492	-0.6623	-0.1533	0.7180
9.9	-9.6138	-0.2599	0.6850	0.0042	0.0265	-0.0549	16.9293	-15.9162	-8.4451	-0.1491	-0.6625	-0.1533	0.7180
9.91	-9.6187	-0.2475	0.6683	0.0039	0.0197	-0.0569	17.2187	-15.8842	-8.2316	-0.1490	-0.6625	-0.1533	0.7179
9.92	-9.6208	-0.2283	0.6720	0.0141	0.0182	-0.0523	17.3190	-15.9706	-8.2857	-0.1490	-0.6627	-0.1532	0.7179
9.93	-9.6195	-0.2097	0.6639	0.0121	0.0161	-0.0597	16.9888	-15.8707	-8.4471	-0.1488	-0.6627	-0.1532	0.7177
9.94	-9.6217	-0.1957	0.6641	-0.0033	0.0180	-0.0574	17.0938	-15.8025	-8.2718	-0.1488	-0.6628	-0.1532	0.7177
9.95	-9.6146	-0.1823	0.6715	-0.0018	0.0079	-0.0548	17.3476	-15.8311	-8.2175	-0.1487	-0.6629	-0.1532	0.7177
9.96	-9.6089	-0.1763	0.6693	-0.0052	0.0137	-0.0553	17.2119	-15.7884	-8.2558	-0.1487	-0.6629	-0.1532	0.7176
9.97	-9.6147	-0.1765	0.6652	-0.0064	0.0146	-0.0578	17.2590	-15.6786	-8.1116	-0.1487	-0.6630	-0.1532	0.7176
9.98	-9.6206	-0.1846	0.6644	-0.0219	0.0167	-0.0583	17.1556	-15.9128	-8.1883	-0.1486	-0.6630	-0.1533	0.7175
9.99	-9.6266	-0.1962	0.6594	-0.0288	0.0189	-0.0568	17.2030	-15.8343	-8.2537	-0.1487	-0.6632	-0.1534	0.7174
10	-9.6344	-0.2122	0.6560	-0.0289	0.0160	-0.0573	17.2261	-15.8677	-8.2198	-0.1487	-0.6631	-0.1534	0.7173
10.01	-9.6331	-0.2251	0.6511	-0.0277	0.0215	-0.0570	17.1465	-15.7509	-8.2469	-0.1487	-0.6633	-0.1536	0.7172
10.02	-9.6375	-0.2443	0.6416	-0.0301	0.0108	-0.0563	17.0466	-15.9287	-8.2215	-0.1488	-0.6633	-0.1537	0.7171
10.03	-9.6324	-0.2642	0.6421	-0.0308	0.0063	-0.0532	16.9057	-15.7228	-8.2533	-0.1488	-0.6633	-0.1537	0.7171
10.04	-9.6238	-0.2802	0.6343	-0.0288	0.0002	-0.0488	17.0843	-16.0087	-8.2062	-0.1489	-0.6633	-0.1538	0.7171
10.05	-9.5962	-0.2893	0.6352	-0.0276	-0.0040	-0.0514	17.1607	-15.8597	-8.2837	-0.1490	-0.6633	-0.1539	0.7170
10.06	-9.6004	-0.2943	0.6450	-0.0289	-0.0076	-0.0479	17.0751	-15.7404	-8.3162	-0.1491	-0.6633	-0.1539	0.7171
10.07	-9.6347	-0.3062	0.6606	-0.0286	-0.0142	-0.0506	17.0254	-15.7734	-8.0179	-0.1491	-0.6632	-0.1539	0.7170
10.08	-9.6097	-0.3151	0.6668	-0.0222	-0.0119	-0.0583	17.1745	-15.8871	-8.1752	-0.1492	-0.6632	-0.1540	0.7171
10.09	-9.5901	-0.3104	0.6761	-0.0026	-0.0119	-0.0507	17.4249	-15.7962	-8.4582	-0.1492	-0.6632	-0.1540	0.7171
10.1	-9.5765	-0.2989	0.6708	-0.0053	-0.0109	-0.0531	17.3208	-15.8104	-8.5459	-0.1492	-0.6632	-0.1540	0.7171
10.11	-9.5298	-0.2921	0.6794	-0.0043	-0.0078	-0.0553	17.3214	-15.9829	-8.3963	-0.1491	-0.6631	-0.1540	0.7171
10.12	-9.5555	-0.2911	0.6838	-0.0025	0.0014	-0.0507	17.2828	-16.0330	-8.1531	-0.1491	-0.6632	-0.1539	0.7171
10.13	-9.5912	-0.2769	0.6821	-0.0011	0.0065	-0.0482	17.0086	-15.8442	-8.1697	-0.1491	-0.6632	-0.1539	0.7171
10.14	-9.5875	-0.2480	0.6817	-0.0013	0.0112	-0.0483	17.1430	-15.9428	-8.3596	-0.1491	-0.6632	-0.1538	0.7170
10.15	-9.5962	-0.2196	0.6759	0.0062	0.0118	-0.0517	17.2359	-15.9503	-8.2838	-0.1490	-0.6634	-0.1538	0.7170
10.16	-9.6158	-0.2121	0.6668	0.0021	0.0094	-0.0587	17.0722	-15.7923	-8.2445	-0.1489	-0.6634	-0.1538	0.7169
10.17	-9.6180	-0.2013	0.6571	-0.0009	0.0167	-0.0560	17.0340	-15.7516	-8.1609	-0.1489	-0.6636	-0.1538	0.7170
10.18	-9.6181	-0.2006	0.6499	-0.0006	0.0173	-0.0639	17.0631	-15.8684	-8.1359	-0.1488	-0.6635	-0.1538	0.7168
10.19	-9.6261	-0.1990	0.6378	-0.0062	0.0206	-0.0638	17.1407	-15.8511	-8.2571	-0.1487	-0.6637	-0.1538	0.7168
10.2	-9.6413	-0.2034	0.6385	-0.0046	0.0191	-0.0656	17.1573	-15.8727	-8.2165	-0.1487	-0.6637	-0.1539	0.7167
10.21	-9.6477	-0.2183	0.6425	-0.0210	0.0074	-0.0607	17.0496	-15.7790	-7.9249	-0.1486	-0.6637	-0.1539	0.7166
10.22	-9.6574	-0.2266	0.6432	-0.0246	-0.0056	-0.0574	16.9585	-15.7530	-8.1072	-0.1487	-0.6638	-0.1540	0.7167
10.23	-9.6531	-0.2432	0.6521	-0.0183	-0.0039	-0.0543	17.2198	-15.8061	-8.2479	-0.1487	-0.6637	-0.1541	0.7166
10.24	-9.6481	-0.2579	0.6539	-0.0282	-0.0077	-0.0519	17.2466	-15.8968	-8.3058	-0.1488	-0.6638	-0.1541	0.7167
10.25	-9.6308	-0.2709	0.6597	-0.0176	-0.0133	-0.0460	17.1250	-15.7402	-8.2389	-0.1488	-0.6637	-0.1541	0.7166
10.26	-9.6226	-0.2786	0.6589	-0.0243	-0.0179	-0.0414	17.0441	-15.9144	-8.3647	-0.1489	-0.6637	-0.1541	0.7167
10.27	-9.6093	-0.2848	0.6613	-0.0287	-0.0168	-0.0471	17.0196	-15.9452	-8.4093	-0.1490	-0.6636	-0.1542	0.7167
10.28	-9.5995	-0.2870	0.6717	-0.0175	-0.0160	-0.0420	17.1873	-16.0035	-8.2087	-0.1491	-0.6636	-0.1541	0.7167
10.29	-9.5966	-0.2855	0.6663	-0.0147	-0.0081	-0.0426	17.4354	-16.1578	-8.1449	-0.1492	-0.6636	-0.1541	0.7167
10.3	-9.5962	-0.2808	0.6676	-0.0052	-0.0093	-0.0374	17.5383	-15.8046	-8.1118	-0.1492	-0.6635	-0.1541	0.7167
10.31	-9.5915	-0.2752	0.6759	-0.0049	-0.0168	-0.0475	17.6027	-15.7766	-8.2196	-0.1492	-0.6635	-0.1540	0.7168
10.32	-9.5953	-0.2661	0.6777	-0.0015	-0.0084	-0.0445	17.5689	-15.6527	-8.2197	-0.1492	-0.6635	-0.1539	0.7167
10.33	-9.5884	-0.2582	0.6783	-0.0045	-0.0070	-0.0488	17.4297	-15.5773	-8.2297	-0.1492	-0.6635	-0.1539	0.7168
10.34	-9.5815	-0.2444	0.6787	0.0033	-0.0031	-0.0547	17.1493	-15.6643	-8.4591	-0.1492	-0.6635	-0.1539	0.7168
10.35	-9.5874	-0.2330	0.6860	-0.0002	-0.0094	-0.0563	17.1842	-15.8774	-8.1907	-0.1491	-0.6635	-0.1539	0.7168
10.36	-9.5762	-0.2257	0.6869	0.0007	-0.0068	-0.0591	17.1661	-15.7472	-8.1724	-0.1491	-0.6635	-0.1538	0.7168
10.37	-9.5794	-0.2131	0.6946	-0.0013	-0.0053	-0.0595	17.0595	-15.8114	-8.4569	-0.1490	-0.6635	-0.1538	0.7169
10.38	-9.5740	-0.2039	0.6861	-0.0031	0.0031	-0.0629	17.3003	-16.0422	-8.2395	-0.1490	-0.6635	-0.1538	0.7169
10.39	-9.5656	-0.2016	0.6900	-0.0031	-0.0044	-0.0571	17.0859	-15.7127	-8.4036	-0.1489	-0.6635	-0.1538	0.7168
10.4	-9.5653	-0.2032	0.6877	-0.0024	0.0033	-0.0616	16.9724	-15.9406	-8.2072	-0.1489	-0.6636	-0.1538	0.7169
10.41	-9.5612	-0.2050	0.6761	-0.0059	0.0101	-0.0580	17.1587	-15.7087	-8.2635	-0.1488	-0.6636	-0.1538	0.7168
10.42	-9.5724	-0.2098	0.6768	-0.0115	0.0114	-0.0563	17.1832	-15.5450	-8.3979	-0.1488	-0.6637	-0.1539	0.7168
10.43	-9.5862	-0.2252	0.6650	-0.0149	0.0091	-0.0562	17.1586	-15.6873	-8.0012	-0.1488	-0.6637	-0.1539	0.7167
10.44	-9.6033	-0.2334	0.6627	-0.0184	0.0108	-0.0511	17.3128	-15.8322	-8.3207	-0.1488	-0.6638	-0.1540	0.7166
10.45	-9.6176	-0.2457	0.6545	-0.0220	0.0144	-0.0511	17.3688	-15.9880	-8.5001	-0.1489	-0.6638	-0.1540	0.7166
10.46	-9.6264	-0.2513	0.6478	-0.0297	0.0102	-0.0493	17.6500	-15.9154	-8.4330	-0.1489	-0.6638	-0.1541	0.7165
10.47	-9.6419	-0.2574	0.6377	-0.0214	0.0116	-0.0496	17.3839	-16.0587	-8.4714	-0.1490	-0.6640	-0.1541	0.7165
10.48	-9.6458	-0.2615	0.6314	-0.0194	0.0025	-0.0501	17.2362	-15.8797	-8.2932	-0.1490	-0.6639	-0.1541	0.7164
10.49	-9.6443	-0.2615	0.6322	-0.0157	-0.0064	-0.0534	17.4700	-15.8357	-8.2626	-0.1490	-0.6640	-0.1542	0.7164
10.5	-9.6456	-0.2602	0.6296	-0.0155	-0.0083	-0.0517	17.4157	-15.8960	-8.3624	-0.1490	-0.6639	-0.1542	0.7163
10.51	-9.6352	-0.2596	0.6328	-0.0056	-0.0107	-0.0525	17.3604	-15.5630	-8.2778	-0.1490	-0.6639	-0.1542	0.7164
10.52	-9.6264	-0.2538	0.6337	-0.0046	-0.0084	-0.0582	17.3031	-15.7373	-8.2420	-0.1490	-0.6639	-0.1542	0.7164
10.53	-9.6293	-0.2559	0.6383	-0.0021	-0.0113	-0.0583	17.2284	-15.9378	-8.1243	-0.1490	-0.6638	-0.1541	0.7165
10.54	-9.6380	-0.2569	0.6426	-0.0025	-0.0088	-0.0588	17.3886	-15.6092	-8.4358	-0.1489	-0.6639	-0.1541	0.7165
10.55	-9.6262	-0.2586	0.6425	-0.0040	-0.0039	-0.0566	17.0385	-15.7469	-8.4365	-0.1489	-0.6638	-0.1541	0.7165
10.56	-9.6207	-0.2578	0.6537	-0.0072	-0.0113	-0.0554	17.0077	-15.5709	-8.3369	-0.1489	-0.6639	-0.1541	0.7166
10.57	-9.6372	-0.2439	0.6566	-0.0074	-0.0115	-0.0616	17.2927	-15.7026	-8.4790	-0.1488	-0.6637	-0.1541	0.7165
10.58	-9.6160	-0.2398	0.6572	-0.0034	-0.0112	-0.0573	17.2391	-15.7441	-8.3451	-0.1488	-0.6638	-0.1541	0.7166
10.59	-9.5942	-0.2501	0.6671	-0.0130	-0.0217	-0.0573	17.2959	-15.8744	-8.3860	-0.1488	-0.6637	-0.1541	0.7166
10.6	-9.6089	-0.2620	0.6701	-0.0072	-0.0181	-0.0545	17.1552	-15.9315	-8.3065	-0.1488	-0.6637	-0.1541	0.7167
10.61	-9.5900	-0.2654	0.6795	-0.0051	-0.0221	-0.0578	17.2884	-15.6318	-8.1450	-0.1488	-0.6636	-0.1541	0.7167
10.62	-9.5962	-0.2575	0.6906	-0.0146	-0.0215	-0.0521	17.2182	-15.7012	-8.3799	-0.1488	-0.6635	-0.1541	0.7168
10.63	-9.6288	-0.2698	0.6998	-0.0043	-0.0159	-0.0551	17.3921	-15.6933	-8.4882	-0.1488	-0.6635	-0.1541	0.7169
10.64	-9.6245	-0.2717	0.7108	-0.0030	-0.0210	-0.0536	17.4490	-15.9605	-8.4494	-0.1488	-0.6634	-0.1541	0.7169
10.65	-9.5994	-0.2745	0.7173	-0.0025	-0.0272	-0.0518	17.5508	-16.0374	-8.4456	-0.1488	-0.6634	-0.1540	0.7170
10.66	-9.5754	-0.2702	0.7142	-0.0059	-0.0194	-0.0561	17.4649	-16.0397	-8.3347	-0.1488	-0.6633	-0.1540	0.7170
10.67	-9.5407	-0.2631	0.7155	-0.0092	-0.0212	-0.0428	17.2263	-15.9872	-8.6543	-0.1489	-0.6633	-0.1540	0.7172
10.68	-9.5167	-0.2530	0.7210	-0.0043	-0.0117	-0.0433	17.2868	-15.8266	-8.5663	-0.1489	-0.6632	-0.1539	0.7171
10.69	-9.5300	-0.2381	0.7159	-0.0033	-0.0084	-0.0446	17.2239	-15.8906	-8.1479	-0.1489	-0.6632	-0.1538	0.7171
10.7	-9.5365	-0.2190	0.7164	-0.0026	-0.0056	-0.0443	17.1638	-15.9751	-8.4814	-0.1489	-0.6633	-0.1538	0.7171
10.71	-9.5450	-0.2097	0.7004	-0.0026	0.0034	-0.0442	17.4685	-15.8651	-8.5968	-0.1489	-0.6632	-0.1537	0.7171
10.72	-9.5537	-0.2057	0.6938	-0.0030	0.0094	-0.0462	17.4121	-15.8434	-8.3202	-0.1489	-0.6634	-0.1537	0.7171
10.73	-9.5711	-0.2011	0.6826	-0.0077	0.0105	-0.0515	17.2143	-15.4692	-8.4061	-0.1489	-0.6634	-0.1537	0.7170
10.74	-9.5864	-0.2025	0.6730	-0.0028	0.0122	-0.0545	17.2999	-15.8333	-8.5681	-0.1488	-0.6635	-0.1537	0.7170
10.75	-9.5986	-0.2065	0.6669	-0.0021	0.0134	-0.0541	17.1530	-15.8801	-8.4505	-0.1488	-0.6635	-0.1537	0.7169
10.76	-9.6121	-0.2076	0.6649	-0.0067	0.0101	-0.0596	17.0711	-15.7296	-8.3659	-0.1487	-0.6636	-0.1537	0.7169
10.77	-9.6163	-0.2111	0.6665	-0.0071	0.0059	-0.0580	17.2674	-15.6500	-8.5175	-0.1487	-0.6636	-0.1537	0.7168
10.78	-9.6141	-0.2186	0.6604	-0.0157	0.0038	-0.0602	17.2011	-15.7735	-8.3687	-0.1487	-0.6636	-0.1538	0.7168
10.79	-9.6108	-0.2241	0.6615	-0.0148	0.0051	-0.0638	17.0410	-15.7649	-8.2773	-0.1487	-0.6637	-0.1538	0.7168
10.8	-9.6106	-0.2270	0.6537	-0.0161	0.0009	-0.0563	17.4137	-15.6537	-7.9944	-0.1487	-0.6637	-0.1539	0.7168
10.81	-9.6139	-0.2408	0.6524	-0.0290	-0.0026	-0.0588	17.6009	-15.6910	-8.2816	-0.1487	-0.6637	-0.1540	0.7168
10.82	-9.6195	-0.2485	0.6480	-0.0134	0.0017	-0.0574	17.3521	-15.6690	-8.1596	-0.1487	-0.6636	-0.1540	0.7167
10.83	-9.6321	-0.2577	0.6444	-0.0100	0.0051	-0.0574	17.2382	-15.6407	-8.1420	-0.1487	-0.6637	-0.1540	0.7167
10.84	-9.6420	-0.2673	0.6390	-0.0234	0.0020	-0.0555	17.0690	-15.6985	-8.4679	-0.1487	-0.6637	-0.1541	0.7167
10.85	-9.6576	-0.2762	0.6382	-0.0164	0.0012	-0.0527	17.0626	-15.9949	-8.4088	-0.1487	-0.6638	-0.1541	0.7167
10.86	-9.6607	-0.2824	0.6446	-0.0234	0.0053	-0.0542	17.0598	-15.7993	-8.4628	-0.1488	-0.6638	-0.1542	0.7166
10.87	-9.6603	-0.2826	0.6419	-0.0140	-0.0096	-0.0481	17.0811	-15.8089	-8.2535	-0.1488	-0.6638	-0.1542	0.7166
10.88	-9.6361	-0.2805	0.6369	-0.0078	-0.0147	-0.0483	17.0053	-15.8094	-8.3127	-0.1488	-0.6637	-0.1541	0.7166
10.89	-9.6119	-0.2701	0.6486	-0.0063	-0.0118	-0.0553	16.9517	-15.7439	-8.3487	-0.1488	-0.6636	-0.1541	0.7166
10.9	-9.6448	-0.2626	0.6643	-0.0043	-0.0182	-0.0570	17.0927	-15.8639	-8.3537	-0.1488	-0.6637	-0.1541	0.7168
10.91	-9.6434	-0.2772	0.6758	-0.0039	-0.0240	-0.0591	17.0468	-15.7302	-8.2905	-0.1488	-0.6636	-0.1541	0.7168
10.92	-9.6093	-0.2704	0.6860	-0.0029	-0.0167	-0.0613	17.0878	-15.7783	-8.2802	-0.1487	-0.6636	-0.1541	0.7169
10.93	-9.5973	-0.2679	0.6835	-0.0020	-0.0226	-0.0562	16.9635	-15.7633	-8.4764	-0.1487	-0.6634	-0.1540	0.7169
10.94	-9.5653	-0.2624	0.6968	-0.0025	-0.0210	-0.0602	16.8631	-15.7567	-8.5207	-0.1487	-0.6634	-0.1540	0.7170
10.95	-9.5605	-0.2613	0.7103	-0.0022	-0.0170	-0.0538	17.0933	-15.8062	-8.3536	-0.1486	-0.6634	-0.1540	0.7170
10.96	-9.5937	-0.2682	0.7114	-0.0029	-0.0134	-0.0497	16.9584	-15.9403	-8.3343	-0.1486	-0.6633	-0.1540	0.7170
10.97	-9.5936	-0.2525	0.7161	-0.0033	-0.0020	-0.0518	17.0035	-15.9581	-8.2468	-0.1486	-0.6634	-0.1539	0.7171
10.98	-9.5828	-0.2298	0.7132	-0.0034	-0.0063	-0.0459	16.9063	-15.8864	-8.0842	-0.1486	-0.6634	-0.1539	0.7171
10.99	-9.5984	-0.2305	0.7157	-0.0034	-0.0112	-0.0432	16.9493	-15.6383	-8.3302	-0.1487	-0.6634	-0.1538	0.7171
11	-9.5909	-0.2338	0.7138	-0.0022	-0.0145	-0.0454	16.9762	-15.7787	-8.3383	-0.1486	-0.6633	-0.1538	0.7171
11.01	-9.5815	-0.2303	0.7075	-0.0026	-0.0105	-0.0407	17.0006	-15.8691	-8.3689	-0.1487	-0.6633	-0.1537	0.7171
11.02	-9.5747	-0.2349	0.7058	-0.0026	-0.0129	-0.0478	17.2309	-16.0029	-8.4306	-0.1487	-0.6633	-0.1536	0.7172
11.03	-9.5845	-0.2443	0.6963	-0.0054	-0.0076	-0.0558	17.0258	-15.7603	-8.5117	-0.1487	-0.6633	-0.1536	0.7172
11.04	-9.5938	-0.2408	0.7040	-0.0029	-0.0078	-0.0565	17.1923	-15.7753	-8.5305	-0.1486	-0.6633	-0.1536	0.7172
11.05	-9.6039	-0.2390	0.7021	-0.0057	-0.0051	-0.0495	17.1056	-15.8615	-8.3983	-0.1486	-0.6633	-0.1536	0.7172
11.06	-9.6057	-0.2364	0.7024	-0.0012	-0.0108	-0.0545	17.0474	-15.8985	-8.4565	-0.1486	-0.6633	-0.1536	0.7173
11.07	-9.6068	-0.2283	0.7072	-0.0024	-0.0113	-0.0573	17.0765	-15.9763	-8.3454	-0.1486	-0.6632	-0.1535	0.7172
11.08	-9.6030	-0.2268	0.7177	-0.0022	-0.0071	-0.0541	16.9423	-15.7927	-8.2031	-0.1485	-0.6633	-0.1535	0.7173
11.09	-9.5989	-0.2245	0.7130	-0.0063	-0.0076	-0.0533	16.8620	-15.9419	-8.1655	-0.1485	-0.6632	-0.1535	0.7173
11.1	-9.5982	-0.2237	0.7112	-0.0040	-0.0097	-0.0512	17.1913	-15.8325	-8.3673	-0.1485	-0.6632	-0.1535	0.7173
11.11	-9.5881	-0.2237	0.7127	-0.0036	-0.0037	-0.0541	17.0228	-15.5183	-8.2353	-0.1485	-0.6632	-0.1535	0.7173
11.12	-9.5841	-0.2246	0.7095	-0.0091	-0.0075	-0.0510	16.8912	-15.7931	-8.3915	-0.1485	-0.6632	-0.1534	0.7173
11.13	-9.5792	-0.2270	0.7095	-0.0133	-0.0067	-0.0532	16.9738	-15.8365	-8.0563	-0.1485	-0.6632	-0.1535	0.7173
