time	acceleration_x	acceleration_y	acceleration_z	gyroscope_x	gyroscope_y	gyroscope_z	magnetometer_x	magnetometer_y	magnetometer_z	quaternion_w	quaternion_x	quaternion_y	quaternion_z
0	-9.5000	-0.0552	-1.6679	0.0019	0.0010	0.0051	40.7583	8.0214	8.9151	0.4963	0.4811	0.5978	-0.4062
0.01	-9.4959	-0.0457	-1.6747	0.0146	0.0095	0.0057	40.7064	8.1629	8.7561	0.4962	0.4811	0.5978	-0.4062
0.02	-9.5032	-0.0404	-1.6729	0.0077	0.0004	0.0088	40.7144	8.1683	8.7717	0.4961	0.4811	0.5977	-0.4062
0.03	-9.4979	-0.0347	-1.6745	0.0079	-0.0006	0.0045	40.7161	8.1921	9.0056	0.4961	0.4812	0.5978	-0.4063
0.04	-9.4959	-0.0340	-1.6715	0.0071	-0.0024	0.0065	40.8112	8.0055	9.0225	0.4961	0.4812	0.5977	-0.4063
0.05	-9.4960	-0.0353	-1.6754	0.0049	0.0013	0.0046	40.7859	8.0850	8.7667	0.4961	0.4812	0.5977	-0.4063
0.06	-9.5013	-0.0345	-1.6852	0.0034	0.0012	0.0068	40.8062	8.0577	8.7929	0.4960	0.4812	0.5977	-0.4063
0.07	-9.5077	-0.0420	-1.6866	-0.0046	-0.0062	0.0060	40.6834	8.3643	8.8988	0.4961	0.4812	0.5977	-0.4063
0.08	-9.5016	-0.0470	-1.6826	-0.0015	-0.0005	0.0051	40.5890	8.4836	8.9675	0.4961	0.4812	0.5977	-0.4063
0.09	-9.5082	-0.0525	-1.6883	-0.0010	0.0029	0.0050	40.4723	8.1800	8.9492	0.4961	0.4812	0.5978	-0.4063
0.1	-9.5034	-0.0527	-1.6899	0.0010	0.0025	0.0064	40.4553	8.4598	8.9555	0.4960	0.4812	0.5977	-0.4062
0.11	-9.4955	-0.0541	-1.6825	-0.0020	0.0016	0.0076	40.7243	8.2773	8.7032	0.4960	0.4812	0.5978	-0.4062
0.12	-9.4971	-0.0537	-1.6784	0.0024	0.0003	0.0045	40.6631	8.2489	8.7200	0.4960	0.4813	0.5978	-0.4062
0.13	-9.4990	-0.0441	-1.6792	0.0022	0.0022	0.0029	40.6120	8.6170	8.9483	0.4960	0.4812	0.5977	-0.4062
0.14	-9.4959	-0.0431	-1.6719	0.0046	0.0045	0.0059	40.6291	8.4488	9.1558	0.4960	0.4813	0.5978	-0.4063
0.15	-9.4949	-0.0440	-1.6750	-0.0020	0.0011	0.0029	40.9051	8.4621	9.1200	0.4959	0.4813	0.5978	-0.4062
0.16	-9.5001	-0.0394	-1.6679	0.0054	-0.0037	0.0051	40.9606	8.4776	9.1447	0.4960	0.4813	0.5978	-0.4063
0.17	-9.5061	-0.0405	-1.6745	0.0038	-0.0051	0.0050	40.9311	8.3580	9.0662	0.4959	0.4813	0.5978	-0.4062
0.18	-9.5092	-0.0394	-1.6723	0.0107	-0.0010	0.0053	40.9587	8.3534	8.9350	0.4959	0.4813	0.5978	-0.4063
0.19	-9.4978	-0.0375	-1.6681	0.0114	-0.0058	0.0047	40.8186	8.1811	8.7920	0.4959	0.4814	0.5977	-0.4063
0.2	-9.4971	-0.0380	-1.6685	0.0064	-0.0026	0.0070	40.9843	8.3245	8.8877	0.4958	0.4813	0.5977	-0.4063
0.21	-9.4957	-0.0347	-1.6622	0.0056	-0.0031	0.0064	40.9654	8.2524	8.9353	0.4959	0.4814	0.5978	-0.4064
0.22	-9.4949	-0.0307	-1.6627	0.0016	0.0010	0.0094	40.8431	8.2683	8.6929	0.4958	0.4814	0.5977	-0.4064
0.23	-9.5011	-0.0382	-1.6583	0.0024	0.0020	0.0092	40.7649	8.4303	8.6490	0.4959	0.4815	0.5977	-0.4064
0.24	-9.5023	-0.0429	-1.6543	0.0087	-0.0033	0.0089	40.6160	8.2747	8.9256	0.4958	0.4814	0.5976	-0.4063
0.25	-9.5007	-0.0402	-1.6547	-0.0017	-0.0008	0.0113	40.6811	8.1731	8.7829	0.4958	0.4815	0.5977	-0.4063
0.26	-9.5058	-0.0444	-1.6592	0.0021	-0.0027	0.0043	40.7444	8.1366	8.6523	0.4958	0.4815	0.5977	-0.4063
0.27	-9.5040	-0.0422	-1.6596	0.0046	0.0008	0.0056	40.7257	8.3083	8.6785	0.4958	0.4815	0.5977	-0.4063
0.28	-9.5002	-0.0415	-1.6580	0.0095	0.0017	0.0053	40.8005	8.3722	8.9432	0.4958	0.4816	0.5977	-0.4064
0.29	-9.4980	-0.0406	-1.6570	0.0031	0.0071	0.0045	40.7246	8.2619	8.7311	0.4957	0.4816	0.5977	-0.4064
0.3	-9.4996	-0.0455	-1.6600	0.0027	-0.0001	0.0109	40.8940	8.3543	8.7319	0.4957	0.4816	0.5977	-0.4064
0.31	-9.4950	-0.0520	-1.6614	0.0034	0.0056	0.0093	40.8938	8.4087	8.7058	0.4957	0.4816	0.5976	-0.4063
0.32	-9.4963	-0.0569	-1.6712	-0.0084	0.0046	0.0064	40.8735	8.2374	8.7562	0.4957	0.4817	0.5977	-0.4063
0.33	-9.5027	-0.0612	-1.6776	0.0046	0.0017	0.0042	40.7872	8.2449	8.8225	0.4957	0.4816	0.5977	-0.4063
0.34	-9.4985	-0.0637	-1.6725	0.0041	0.0005	0.0096	40.8177	8.3181	8.8188	0.4957	0.4817	0.5977	-0.4063
0.35	-9.5045	-0.0631	-1.6754	0.0048	0.0011	0.0059	40.8035	8.2786	8.7898	0.4956	0.4817	0.5977	-0.4063
0.36	-9.5010	-0.0603	-1.6729	0.0080	0.0005	0.0044	40.8131	8.3064	8.7404	0.4956	0.4817	0.5977	-0.4063
0.37	-9.5021	-0.0518	-1.6736	0.0066	0.0005	0.0070	40.9849	8.2860	8.8371	0.4956	0.4818	0.5977	-0.4063
0.38	-9.4967	-0.0452	-1.6762	0.0082	-0.0039	0.0045	40.8831	8.3101	8.8114	0.4955	0.4817	0.5976	-0.4063
0.39	-9.4960	-0.0401	-1.6725	0.0063	-0.0008	0.0038	40.8095	8.2728	8.7941	0.4956	0.4818	0.5977	-0.4064
0.4	-9.5013	-0.0472	-1.6769	-0.0014	-0.0038	0.0094	40.9135	8.0689	8.8715	0.4955	0.4818	0.5976	-0.4064
0.41	-9.4961	-0.0418	-1.6696	0.0080	0.0012	0.0098	40.8839	8.4677	8.6345	0.4956	0.4819	0.5977	-0.4064
0.42	-9.4963	-0.0443	-1.6686	-0.0005	-0.0031	0.0124	40.8910	8.4562	8.7351	0.4955	0.4818	0.5976	-0.4063
0.43	-9.4999	-0.0483	-1.6696	0.0106	-0.0024	0.0099	40.8928	8.2598	8.7963	0.4955	0.4819	0.5976	-0.4064
0.44	-9.5032	-0.0493	-1.6704	0.0141	-0.0018	0.0090	40.8678	8.1322	8.5592	0.4955	0.4819	0.5976	-0.4064
0.45	-9.5000	-0.0509	-1.6692	0.0037	-0.0013	0.0075	40.7144	8.2038	8.8017	0.4954	0.4819	0.5975	-0.4064
0.46	-9.4994	-0.0473	-1.6689	0.0122	0.0058	0.0084	40.6435	8.1945	9.0417	0.4955	0.4820	0.5976	-0.4064
0.47	-9.5026	-0.0412	-1.6631	0.0035	-0.0052	0.0152	40.7796	8.3961	8.6198	0.4954	0.4820	0.5975	-0.4064
0.48	-9.4974	-0.0389	-1.6637	0.0039	-0.0016	0.0076	41.0434	8.4480	8.7912	0.4955	0.4821	0.5975	-0.4064
0.49	-9.5001	-0.0375	-1.6597	0.0020	-0.0018	0.0109	40.6815	8.2645	8.7228	0.4954	0.4821	0.5974	-0.4064
0.5	-9.4974	-0.0307	-1.6552	0.0088	-0.0014	0.0078	40.5922	8.0903	8.6475	0.4954	0.4821	0.5975	-0.4064
0.51	-9.4993	-0.0278	-1.6588	0.0057	0.0004	0.0066	40.7685	8.1793	9.0610	0.4954	0.4821	0.5974	-0.4064
0.52	-9.5032	-0.0332	-1.6607	-0.0022	-0.0054	0.0116	40.7076	8.2271	8.8726	0.4954	0.4821	0.5974	-0.4064
0.53	-9.5049	-0.0333	-1.6599	0.0060	-0.0025	0.0108	40.7260	8.1913	8.9247	0.4954	0.4822	0.5974	-0.4064
0.54	-9.5013	-0.0389	-1.6620	0.0039	-0.0053	0.0092	40.6391	8.3549	8.7253	0.4954	0.4822	0.5974	-0.4064
0.55	-9.5007	-0.0444	-1.6627	-0.0004	-0.0015	0.0084	41.0066	8.1625	8.7767	0.4954	0.4822	0.5974	-0.4064
0.56	-9.4997	-0.0517	-1.6673	-0.0010	-0.0047	0.0088	40.8600	8.1150	8.9233	0.4954	0.4822	0.5973	-0.4064
0.57	-9.5008	-0.0599	-1.6611	0.0012	-0.0093	0.0146	40.9192	8.1360	8.7951	0.4955	0.4822	0.5973	-0.4064
0.58	-9.4982	-0.0517	-1.6650	0.0010	-0.0038	0.0078	41.1219	8.1519	8.6722	0.4955	0.4822	0.5973	-0.4064
0.59	-9.5030	-0.0456	-1.6675	0.0004	-0.0078	0.0108	40.9125	8.3162	8.6237	0.4955	0.4823	0.5973	-0.4064
0.6	-9.5040	-0.0444	-1.6691	0.0065	-0.0034	0.0120	40.7864	8.2775	8.7206	0.4955	0.4823	0.5972	-0.4064
0.61	-9.5012	-0.0458	-1.6773	0.0066	-0.0032	0.0123	40.8323	8.2038	8.8838	0.4955	0.4823	0.5972	-0.4064
0.62	-9.4994	-0.0468	-1.6827	-0.0019	-0.0073	0.0096	40.7461	8.1988	8.8527	0.4955	0.4823	0.5972	-0.4064
0.63	-9.5005	-0.0471	-1.6849	-0.0017	-0.0053	0.0114	40.7159	8.2830	8.7836	0.4955	0.4823	0.5971	-0.4064
0.64	-9.5027	-0.0459	-1.6801	0.0007	-0.0081	0.0109	40.8131	8.3956	8.9219	0.4956	0.4824	0.5972	-0.4064
0.65	-9.4985	-0.0441	-1.6737	-0.0027	-0.0096	0.0109	40.9700	8.3717	9.0426	0.4956	0.4823	0.5971	-0.4064
0.66	-9.5040	-0.0447	-1.6681	-0.0027	-0.0108	0.0092	41.3282	8.3897	9.0958	0.4957	0.4824	0.5972	-0.4064
0.67	-9.5062	-0.0450	-1.6632	0.0002	-0.0012	0.0049	41.0843	8.4036	9.0660	0.4956	0.4823	0.5971	-0.4064
0.68	-9.5025	-0.0447	-1.6705	0.0017	-0.0012	0.0068	40.8310	8.3889	9.0247	0.4956	0.4823	0.5971	-0.4064
0.69	-9.5013	-0.0495	-1.6698	-0.0048	-0.0001	0.0070	40.6884	8.2401	8.9659	0.4956	0.4823	0.5971	-0.4064
0.7	-9.4986	-0.0627	-1.6780	-0.0029	0.0001	0.0058	40.5696	8.3271	8.8778	0.4956	0.4823	0.5971	-0.4063
0.71	-9.4961	-0.0665	-1.6753	0.0064	-0.0003	0.0049	40.6393	8.4292	8.7402	0.4957	0.4824	0.5972	-0.4064
0.72	-9.4980	-0.0647	-1.6710	0.0036	-0.0085	0.0071	40.6230	8.4148	8.9548	0.4956	0.4823	0.5971	-0.4064
0.73	-9.4996	-0.0512	-1.6754	0.0096	-0.0060	0.0081	40.6465	8.1881	9.1049	0.4956	0.4824	0.5971	-0.4065
0.74	-9.4997	-0.0418	-1.6713	0.0006	-0.0082	0.0037	41.0409	8.1052	8.8396	0.4956	0.4823	0.5970	-0.4064
0.75	-9.5018	-0.0298	-1.6653	0.0047	-0.0072	0.0065	40.8671	8.0525	8.9105	0.4956	0.4824	0.5971	-0.4065
0.76	-9.4978	-0.0190	-1.6662	0.0008	-0.0021	0.0056	40.7913	8.0364	8.9726	0.4956	0.4824	0.5970	-0.4065
0.77	-9.5044	-0.0164	-1.6617	0.0037	0.0012	0.0045	40.6672	8.1520	8.9640	0.4956	0.4824	0.5970	-0.4065
0.78	-9.5056	-0.0170	-1.6595	0.0033	0.0005	0.0046	40.6615	8.3033	8.8408	0.4956	0.4824	0.5971	-0.4065
0.79	-9.5051	-0.0250	-1.6545	-0.0013	0.0001	0.0069	40.8115	8.2764	8.9037	0.4956	0.4824	0.5971	-0.4065
0.8	-9.5020	-0.0356	-1.6543	0.0066	-0.0002	0.0041	40.6305	8.1637	8.9762	0.4956	0.4824	0.5971	-0.4065
0.81	-9.4968	-0.0466	-1.6486	0.0030	-0.0025	0.0087	40.8623	8.3945	8.9382	0.4955	0.4824	0.5970	-0.4065
0.82	-9.4974	-0.0517	-1.6490	0.0066	-0.0034	0.0083	40.6714	8.0947	8.9692	0.4956	0.4825	0.5970	-0.4065
0.83	-9.4975	-0.0558	-1.6482	0.0006	0.0035	0.0045	40.7801	8.1085	8.7800	0.4955	0.4825	0.5970	-0.4065
0.84	-9.5029	-0.0579	-1.6528	0.0027	-0.0010	0.0081	40.7468	8.3144	8.8377	0.4955	0.4825	0.5970	-0.4065
0.85	-9.5010	-0.0549	-1.6530	-0.0038	0.0000	0.0028	40.5296	8.4433	8.9598	0.4955	0.4825	0.5970	-0.4065
0.86	-9.4975	-0.0546	-1.6511	0.0028	0.0085	0.0017	40.8543	8.2723	9.0746	0.4955	0.4825	0.5971	-0.4065
0.87	-9.4958	-0.0518	-1.6538	0.0023	0.0019	0.0089	40.7712	8.2825	8.9807	0.4955	0.4825	0.5971	-0.4065
0.88	-9.4954	-0.0523	-1.6563	0.0092	0.0035	0.0044	40.6656	8.4491	8.8796	0.4954	0.4825	0.5970	-0.4064
0.89	-9.4982	-0.0491	-1.6619	-0.0005	0.0018	0.0102	40.7654	8.2955	8.6214	0.4954	0.4826	0.5971	-0.4065
0.9	-9.5015	-0.0458	-1.6639	-0.0071	-0.0025	0.0106	40.6167	8.2619	8.9458	0.4954	0.4826	0.5971	-0.4064
0.91	-9.5057	-0.0482	-1.6714	0.0024	-0.0020	0.0079	40.5637	8.4007	8.8128	0.4955	0.4826	0.5971	-0.4064
0.92	-9.5027	-0.0469	-1.6713	0.0032	-0.0003	0.0094	40.6964	8.1205	8.7632	0.4954	0.4826	0.5970	-0.4064
0.93	-9.5007	-0.0470	-1.6655	-0.0035	-0.0022	0.0033	40.8534	8.0152	8.8968	0.4954	0.4826	0.5971	-0.4064
0.94	-9.5011	-0.0535	-1.6675	0.0003	-0.0016	0.0060	40.8415	8.1167	8.9044	0.4954	0.4826	0.5971	-0.4064
0.95	-9.4970	-0.0500	-1.6631	-0.0039	-0.0018	0.0073	40.7471	8.0771	8.9952	0.4954	0.4826	0.5971	-0.4064
0.96	-9.4967	-0.0534	-1.6712	-0.0011	0.0006	0.0038	40.7638	8.1779	8.9248	0.4955	0.4826	0.5972	-0.4064
0.97	-9.4979	-0.0562	-1.6769	0.0048	-0.0020	0.0036	40.7141	8.0698	8.9988	0.4954	0.4826	0.5971	-0.4064
0.98	-9.5077	-0.0509	-1.6802	-0.0009	0.0004	0.0043	40.8779	8.2944	8.8648	0.4954	0.4826	0.5971	-0.4064
0.99	-9.5044	-0.0474	-1.6822	-0.0063	0.0004	0.0055	40.9336	8.1522	8.8981	0.4953	0.4826	0.5971	-0.4063
1	-9.5052	-0.0408	-1.6850	0.0008	-0.0006	0.0084	40.8007	8.2009	8.7034	0.4954	0.4826	0.5971	-0.4064
1.01	-9.5044	-0.0330	-1.6920	-0.0043	-0.0020	0.0045	40.5421	8.4365	8.7792	0.4954	0.4826	0.5971	-0.4063
1.02	-9.5009	-0.0274	-1.6864	0.0057	0.0021	0.0045	40.5261	8.3461	9.1806	0.4954	0.4826	0.5971	-0.4063
1.03	-9.4968	-0.0277	-1.6891	-0.0044	0.0027	0.0049	40.8094	8.2335	9.0030	0.4954	0.4826	0.5972	-0.4063
1.04	-9.4973	-0.0308	-1.6827	-0.0042	0.0001	0.0044	40.5654	8.3971	8.8076	0.4953	0.4826	0.5972	-0.4063
1.05	-9.5039	-0.0372	-1.6838	-0.0047	0.0046	0.0061	40.4891	8.4141	8.9368	0.4954	0.4826	0.5972	-0.4063
1.06	-9.4962	-0.0520	-1.6819	-0.0143	0.0004	0.0044	40.5613	8.4281	8.9427	0.4953	0.4825	0.5972	-0.4062
1.07	-9.4999	-0.0603	-1.6783	-0.0093	0.0038	0.0052	40.8336	8.2957	8.9680	0.4954	0.4826	0.5973	-0.4062
1.08	-9.5041	-0.0694	-1.6677	0.0013	0.0031	0.0073	40.5997	8.2672	8.8978	0.4953	0.4826	0.5973	-0.4062
1.09	-9.5041	-0.0580	-1.6671	0.0015	0.0026	0.0078	40.4768	8.3866	8.5998	0.4953	0.4826	0.5973	-0.4062
1.1	-9.4976	-0.0503	-1.6550	0.0075	-0.0010	0.0100	40.5938	8.1974	9.0287	0.4953	0.4826	0.5973	-0.4062
1.11	-9.4996	-0.0416	-1.6497	0.0039	-0.0003	0.0049	40.7367	8.2105	8.9922	0.4953	0.4826	0.5973	-0.4062
1.12	-9.5020	-0.0322	-1.6489	0.0024	-0.0061	0.0052	41.0370	8.2397	8.9882	0.4953	0.4827	0.5973	-0.4062
1.13	-9.4998	-0.0233	-1.6348	-0.0038	-0.0007	0.0039	40.9111	8.0627	8.7774	0.4953	0.4826	0.5972	-0.4061
1.14	-9.5017	-0.0230	-1.6363	0.0017	-0.0019	0.0093	40.7171	8.2939	8.8038	0.4953	0.4827	0.5973	-0.4062
1.15	-9.5008	-0.0201	-1.6309	-0.0007	-0.0106	0.0083	41.0710	8.2445	9.1575	0.4953	0.4826	0.5973	-0.4062
1.16	-9.5043	-0.0272	-1.6329	0.0021	-0.0054	0.0106	41.1883	8.2721	9.1452	0.4954	0.4827	0.5973	-0.4062
1.17	-9.5030	-0.0340	-1.6319	0.0054	-0.0022	0.0069	41.0174	8.2915	8.9867	0.4953	0.4826	0.5972	-0.4062
1.18	-9.5008	-0.0364	-1.6394	0.0022	-0.0013	0.0074	40.8277	8.4715	8.6415	0.4953	0.4827	0.5972	-0.4062
1.19	-9.4993	-0.0461	-1.6403	0.0122	-0.0073	0.0066	40.6716	8.3172	8.7866	0.4953	0.4827	0.5972	-0.4062
1.2	-9.4960	-0.0513	-1.6491	0.0071	-0.0042	0.0054	40.7178	8.2664	8.8736	0.4953	0.4827	0.5971	-0.4062
1.21	-9.5024	-0.0567	-1.6518	0.0071	0.0016	0.0098	40.7328	8.3702	8.6849	0.4953	0.4828	0.5972	-0.4063
1.22	-9.4980	-0.0626	-1.6573	0.0048	-0.0007	0.0043	40.7999	8.3925	8.6904	0.4953	0.4828	0.5971	-0.4063
1.23	-9.5043	-0.0677	-1.6639	0.0011	-0.0066	0.0052	40.6217	8.4766	8.7586	0.4953	0.4828	0.5972	-0.4063
1.24	-9.5030	-0.0677	-1.6732	0.0078	0.0007	0.0052	40.6373	8.3573	8.6638	0.4952	0.4828	0.5971	-0.4063
1.25	-9.5009	-0.0685	-1.6739	0.0070	-0.0009	0.0074	40.7376	8.2459	8.6119	0.4952	0.4828	0.5971	-0.4063
1.26	-9.5071	-0.0649	-1.6834	0.0046	0.0026	0.0082	40.6950	8.1842	8.7967	0.4952	0.4828	0.5971	-0.4063
1.27	-9.5019	-0.0639	-1.6865	0.0036	-0.0011	0.0085	40.7725	8.2021	9.0600	0.4952	0.4829	0.5971	-0.4063
1.28	-9.4954	-0.0561	-1.6824	0.0049	-0.0015	0.0037	40.8164	8.2014	8.8906	0.4952	0.4829	0.5971	-0.4063
1.29	-9.4950	-0.0555	-1.6875	0.0087	-0.0075	0.0066	40.4997	8.3043	9.0552	0.4952	0.4829	0.5971	-0.4064
1.3	-9.5020	-0.0504	-1.6975	0.0067	-0.0062	0.0053	40.7189	8.0367	8.7296	0.4952	0.4829	0.5971	-0.4064
1.31	-9.5054	-0.0480	-1.6954	0.0082	-0.0033	0.0045	40.9161	8.0926	8.8640	0.4951	0.4829	0.5970	-0.4064
1.32	-9.5025	-0.0465	-1.6956	0.0092	-0.0081	0.0054	40.7441	8.3551	8.6864	0.4952	0.4829	0.5970	-0.4065
1.33	-9.5059	-0.0403	-1.6916	0.0070	0.0038	0.0028	40.7164	8.3101	8.8582	0.4951	0.4829	0.5970	-0.4065
1.34	-9.5056	-0.0374	-1.6908	0.0105	0.0007	0.0042	40.9259	7.7948	8.9147	0.4951	0.4830	0.5970	-0.4065
1.35	-9.5019	-0.0347	-1.6877	0.0027	-0.0016	0.0104	40.5860	8.1819	8.6944	0.4950	0.4830	0.5970	-0.4065
1.36	-9.5034	-0.0367	-1.6812	0.0015	-0.0036	0.0096	40.5730	8.3745	8.7854	0.4951	0.4830	0.5970	-0.4065
1.37	-9.5007	-0.0356	-1.6755	0.0004	-0.0057	0.0053	40.6530	8.2405	8.8552	0.4951	0.4830	0.5970	-0.4065
1.38	-9.5033	-0.0397	-1.6717	-0.0053	-0.0117	0.0077	40.6252	8.3011	8.7496	0.4951	0.4829	0.5969	-0.4065
1.39	-9.5048	-0.0383	-1.6699	0.0047	-0.0053	0.0132	40.6336	8.1746	8.6299	0.4952	0.4830	0.5970	-0.4065
1.4	-9.5023	-0.0397	-1.6641	-0.0012	-0.0042	0.0059	40.6668	8.3438	8.6924	0.4951	0.4830	0.5969	-0.4065
1.41	-9.4994	-0.0353	-1.6585	0.0037	-0.0024	0.0041	40.7503	8.4151	8.8047	0.4952	0.4830	0.5970	-0.4065
1.42	-9.4998	-0.0321	-1.6536	-0.0002	-0.0003	0.0048	40.5954	8.5542	9.0124	0.4951	0.4830	0.5969	-0.4065
1.43	-9.5032	-0.0291	-1.6569	0.0053	-0.0038	0.0057	40.7640	8.3857	8.8805	0.4951	0.4830	0.5969	-0.4065
1.44	-9.5018	-0.0256	-1.6512	0.0067	-0.0069	0.0045	40.7875	8.1999	8.7957	0.4951	0.4830	0.5969	-0.4066
1.45	-9.4999	-0.0268	-1.6507	0.0041	0.0027	0.0025	40.5318	8.1937	8.9259	0.4950	0.4830	0.5969	-0.4065
1.46	-9.4980	-0.0312	-1.6496	0.0084	0.0031	0.0052	40.5577	8.1887	9.0039	0.4951	0.4831	0.5969	-0.4066
1.47	-9.4991	-0.0421	-1.6495	0.0058	-0.0015	0.0038	40.7966	8.4776	8.7478	0.4950	0.4831	0.5969	-0.4066
1.48	-9.5003	-0.0480	-1.6438	0.0105	-0.0047	0.0054	40.7795	8.3326	8.7334	0.4950	0.4831	0.5969	-0.4067
1.49	-9.4978	-0.0558	-1.6465	0.0057	-0.0032	0.0037	40.8826	8.1746	8.7724	0.4949	0.4831	0.5968	-0.4066
1.5	-9.4994	-0.0593	-1.6550	0.0043	-0.0049	0.0036	40.8649	8.2192	8.7055	0.4950	0.4831	0.5969	-0.4067
1.51	-9.5019	-0.0571	-1.6606	0.0042	0.0010	0.0069	40.7540	8.1807	8.6900	0.4949	0.4831	0.5968	-0.4067
1.52	-9.4998	-0.0573	-1.6607	0.0071	-0.0015	0.0090	40.8833	8.2590	8.7858	0.4949	0.4831	0.5968	-0.4067
1.53	-9.4961	-0.0574	-1.6617	0.0043	0.0008	0.0126	40.8689	8.4871	8.6247	0.4949	0.4832	0.5968	-0.4067
1.54	-9.4974	-0.0578	-1.6608	0.0076	-0.0017	0.0076	40.7762	8.2871	8.6792	0.4949	0.4832	0.5968	-0.4067
1.55	-9.5097	-0.0569	-1.6695	0.0071	-0.0006	0.0017	40.8024	8.3296	8.8417	0.4949	0.4832	0.5968	-0.4067
1.56	-9.5058	-0.0488	-1.6677	-0.0018	0.0010	0.0085	40.7896	8.3987	8.7424	0.4948	0.4832	0.5967	-0.4067
1.57	-9.5072	-0.0490	-1.6795	0.0025	-0.0078	0.0034	40.7010	8.2241	8.7468	0.4949	0.4832	0.5968	-0.4067
1.58	-9.5029	-0.0455	-1.6842	-0.0022	-0.0034	0.0011	40.5764	8.2172	8.7319	0.4949	0.4832	0.5968	-0.4067
1.59	-9.5000	-0.0483	-1.6938	-0.0050	0.0028	0.0032	40.5355	8.3629	8.7973	0.4949	0.4832	0.5968	-0.4067
1.6	-9.4964	-0.0559	-1.6946	-0.0061	-0.0036	0.0057	40.6310	8.3710	8.9427	0.4949	0.4832	0.5968	-0.4067
1.61	-9.4941	-0.0613	-1.6900	0.0006	0.0002	0.0043	40.8749	8.2243	8.7737	0.4949	0.4832	0.5968	-0.4067
1.62	-9.5010	-0.0651	-1.6872	-0.0028	-0.0028	0.0052	40.8126	8.2267	8.7446	0.4949	0.4832	0.5969	-0.4067
1.63	-9.4998	-0.0679	-1.6803	0.0037	0.0011	0.0043	40.5062	8.3872	8.7277	0.4948	0.4831	0.5968	-0.4067
1.64	-9.5062	-0.0621	-1.6662	0.0021	0.0037	0.0054	40.5916	8.2419	8.8566	0.4949	0.4832	0.5969	-0.4067
1.65	-9.5023	-0.0494	-1.6527	-0.0022	0.0042	0.0043	41.0340	8.3334	8.9504	0.4948	0.4832	0.5969	-0.4067
1.66	-9.5026	-0.0446	-1.6423	0.0053	-0.0045	0.0051	40.9852	8.3972	8.8950	0.4949	0.4832	0.5969	-0.4067
1.67	-9.5060	-0.0346	-1.6379	0.0120	-0.0064	0.0036	40.8629	8.2769	8.9955	0.4948	0.4832	0.5968	-0.4067
1.68	-9.5013	-0.0331	-1.6396	0.0065	-0.0096	0.0039	40.8769	8.0833	8.8862	0.4948	0.4832	0.5968	-0.4068
1.69	-9.5013	-0.0244	-1.6451	-0.0020	-0.0068	0.0068	40.7250	8.1107	8.6098	0.4948	0.4832	0.5968	-0.4068
1.7	-9.4981	-0.0231	-1.6385	0.0013	-0.0023	0.0098	40.8342	8.1312	8.5772	0.4948	0.4832	0.5968	-0.4068
1.71	-9.4958	-0.0195	-1.6325	0.0034	-0.0042	0.0067	40.9195	8.1075	8.7331	0.4949	0.4833	0.5968	-0.4068
1.72	-9.4985	-0.0154	-1.6383	0.0100	-0.0031	0.0045	40.8121	8.1460	8.7592	0.4948	0.4832	0.5968	-0.4068
1.73	-9.5018	-0.0155	-1.6395	0.0117	0.0009	0.0043	40.7991	8.2724	8.6359	0.4948	0.4833	0.5968	-0.4069
1.74	-9.4998	-0.0196	-1.6429	0.0036	0.0010	0.0061	40.7030	8.3108	8.7965	0.4947	0.4833	0.5967	-0.4068
1.75	-9.5079	-0.0286	-1.6512	0.0020	-0.0054	0.0046	40.9050	8.0250	8.7552	0.4947	0.4833	0.5968	-0.4069
1.76	-9.5052	-0.0365	-1.6583	-0.0019	-0.0004	0.0029	40.7057	8.1370	8.8124	0.4947	0.4833	0.5968	-0.4069
1.77	-9.5022	-0.0507	-1.6699	-0.0030	0.0053	0.0042	40.6593	8.4888	8.6481	0.4947	0.4833	0.5968	-0.4068
1.78	-9.5001	-0.0640	-1.6768	-0.0008	0.0018	0.0080	40.7409	8.4146	8.8077	0.4947	0.4833	0.5968	-0.4068
1.79	-9.4994	-0.0704	-1.6768	-0.0019	-0.0021	0.0035	40.6771	8.4932	8.8188	0.4947	0.4833	0.5968	-0.4068
1.8	-9.4984	-0.0737	-1.6799	0.0001	-0.0018	0.0051	40.7718	8.5211	8.7622	0.4947	0.4833	0.5968	-0.4068
1.81	-9.4996	-0.0744	-1.6869	0.0006	0.0060	0.0013	40.7572	8.2426	8.6775	0.4946	0.4833	0.5968	-0.4068
1.82	-9.5019	-0.0716	-1.6883	0.0064	0.0025	0.0056	40.5267	8.4137	8.6970	0.4947	0.4833	0.5969	-0.4068
1.83	-9.5023	-0.0701	-1.6911	0.0118	0.0041	0.0066	40.5609	8.4240	8.9302	0.4946	0.4834	0.5968	-0.4068
1.84	-9.5017	-0.0701	-1.6906	-0.0047	0.0000	0.0066	40.7392	8.2725	8.9737	0.4946	0.4834	0.5969	-0.4068
1.85	-9.4996	-0.0672	-1.6897	-0.0018	0.0026	0.0082	40.5122	8.2816	8.7983	0.4946	0.4834	0.5969	-0.4068
1.86	-9.4992	-0.0591	-1.6926	0.0076	-0.0015	0.0108	40.6861	8.1568	9.0804	0.4946	0.4834	0.5968	-0.4068
1.87	-9.5004	-0.0539	-1.6856	0.0116	0.0011	0.0051	40.8867	8.0867	8.8196	0.4946	0.4835	0.5968	-0.4068
1.88	-9.4977	-0.0467	-1.6841	0.0038	-0.0033	0.0055	40.7420	8.2094	8.5346	0.4945	0.4834	0.5968	-0.4068
1.89	-9.5013	-0.0435	-1.6885	0.0063	-0.0028	0.0048	40.7390	8.2800	8.8227	0.4945	0.4835	0.5968	-0.4069
1.9	-9.4998	-0.0344	-1.6848	0.0054	-0.0046	0.0023	40.9323	8.1768	8.6116	0.4945	0.4835	0.5968	-0.4069
1.91	-9.4989	-0.0319	-1.6669	0.0080	-0.0052	0.0057	40.7897	8.2234	8.5648	0.4945	0.4835	0.5968	-0.4070
1.92	-9.5013	-0.0272	-1.6604	0.0075	-0.0014	0.0019	40.7316	8.1087	8.8044	0.4944	0.4835	0.5967	-0.4069
1.93	-9.5042	-0.0265	-1.6566	0.0076	-0.0010	0.0015	40.8521	8.1134	8.8517	0.4944	0.4835	0.5968	-0.4070
1.94	-9.5015	-0.0248	-1.6515	0.0056	-0.0035	0.0054	40.8276	8.3256	8.9319	0.4944	0.4835	0.5968	-0.4070
1.95	-9.4968	-0.0272	-1.6522	0.0006	-0.0018	0.0063	40.7529	8.3928	8.8645	0.4944	0.4835	0.5967	-0.4070
1.96	-9.4990	-0.0297	-1.6522	-0.0017	0.0020	0.0047	40.7525	8.2500	8.8656	0.4944	0.4835	0.5968	-0.4070
1.97	-9.5014	-0.0361	-1.6448	0.0116	0.0028	0.0049	40.4594	8.4448	8.9408	0.4944	0.4835	0.5968	-0.4070
1.98	-9.4990	-0.0411	-1.6354	0.0030	0.0005	0.0047	40.4641	8.5962	8.7507	0.4944	0.4836	0.5968	-0.4070
1.99	-9.4987	-0.0420	-1.6421	0.0065	0.0006	0.0047	40.5424	8.2425	8.6808	0.4943	0.4835	0.5967	-0.4070
2	-9.4968	-0.0435	-1.6332	0.0105	0.0031	0.0048	40.4722	8.2014	8.7874	0.4943	0.4836	0.5968	-0.4071
2.01	-9.5050	-0.0380	-1.6385	0.0085	0.0031	0.0053	40.5788	8.3092	8.9027	0.4942	0.4836	0.5968	-0.4071
2.02	-9.4985	-0.0366	-1.6431	0.0122	0.0055	0.0051	40.8327	8.2618	8.7514	0.4942	0.4837	0.5967	-0.4071
2.03	-9.5017	-0.0351	-1.6442	0.0111	0.0003	0.0059	40.8444	8.3107	8.7962	0.4942	0.4837	0.5968	-0.4071
2.04	-9.5050	-0.0354	-1.6568	0.0104	-0.0016	0.0093	40.5539	8.1108	8.9785	0.4941	0.4837	0.5967	-0.4071
2.05	-9.5034	-0.0333	-1.6565	0.0087	0.0008	0.0049	40.8981	8.1819	8.7223	0.4941	0.4838	0.5967	-0.4072
2.06	-9.5051	-0.0398	-1.6771	0.0007	-0.0006	0.0042	40.8322	8.2114	8.5674	0.4940	0.4837	0.5967	-0.4071
2.07	-9.4934	-0.0517	-1.6750	0.0053	0.0005	0.0075	40.8583	8.1071	8.7503	0.4941	0.4838	0.5967	-0.4072
2.08	-9.4996	-0.0576	-1.6812	-0.0004	-0.0031	0.0095	41.0289	8.2593	8.7398	0.4941	0.4838	0.5967	-0.4071
2.09	-9.4999	-0.0626	-1.6881	-0.0046	0.0018	0.0093	40.7443	8.1020	8.6616	0.4941	0.4838	0.5967	-0.4071
2.1	-9.5081	-0.0713	-1.7034	-0.0025	-0.0012	0.0049	40.6638	8.2038	8.7720	0.4941	0.4838	0.5967	-0.4071
2.11	-9.5012	-0.0676	-1.6996	-0.0024	0.0035	0.0066	40.7846	8.3203	8.9244	0.4941	0.4838	0.5967	-0.4071
2.12	-9.5004	-0.0649	-1.6937	-0.0055	-0.0007	0.0046	40.6698	8.2125	8.8948	0.4941	0.4838	0.5968	-0.4071
2.13	-9.5060	-0.0611	-1.7018	-0.0099	-0.0019	0.0080	40.7276	8.1879	8.8463	0.4941	0.4837	0.5967	-0.4070
2.14	-9.4994	-0.0548	-1.7002	0.0027	-0.0004	0.0067	40.8525	8.2992	8.8539	0.4941	0.4838	0.5968	-0.4070
2.15	-9.4995	-0.0460	-1.7035	0.0015	0.0033	0.0032	40.9534	8.2949	8.8975	0.4941	0.4838	0.5968	-0.4070
2.16	-9.5045	-0.0405	-1.7047	0.0002	-0.0010	0.0052	41.0093	8.4748	8.9744	0.4941	0.4838	0.5968	-0.4071
2.17	-9.5021	-0.0327	-1.7046	-0.0030	-0.0007	0.0085	40.8898	8.3942	8.8653	0.4940	0.4838	0.5968	-0.4070
2.18	-9.5008	-0.0280	-1.6960	-0.0002	-0.0007	0.0057	40.7569	8.3372	8.6623	0.4941	0.4838	0.5968	-0.4070
2.19	-9.5050	-0.0218	-1.6871	-0.0029	0.0009	0.0048	40.7938	8.1682	8.6211	0.4941	0.4838	0.5968	-0.4070
2.2	-9.5012	-0.0274	-1.6892	0.0005	0.0004	0.0043	40.7071	8.3653	8.7312	0.4940	0.4838	0.5968	-0.4070
2.21	-9.5030	-0.0344	-1.6889	-0.0007	0.0003	0.0072	40.7436	8.4436	8.8652	0.4941	0.4838	0.5969	-0.4070
2.22	-9.5058	-0.0364	-1.6769	0.0033	-0.0001	0.0086	40.7587	8.2319	8.9064	0.4940	0.4838	0.5968	-0.4070
2.23	-9.5079	-0.0435	-1.6747	0.0105	-0.0045	0.0119	40.7435	8.3084	8.5425	0.4941	0.4839	0.5968	-0.4070
2.24	-9.5041	-0.0437	-1.6695	0.0042	-0.0079	0.0071	40.9024	8.2728	8.6748	0.4940	0.4838	0.5967	-0.4070
2.25	-9.5030	-0.0386	-1.6656	0.0056	-0.0044	0.0115	40.8635	8.2930	8.6487	0.4941	0.4839	0.5968	-0.4070
2.26	-9.5043	-0.0341	-1.6662	-0.0009	0.0017	0.0134	40.8833	8.1190	8.6985	0.4941	0.4839	0.5967	-0.4070
2.27	-9.4959	-0.0266	-1.6643	0.0077	-0.0049	0.0096	40.8736	8.1653	8.8568	0.4940	0.4839	0.5967	-0.4070
2.28	-9.5024	-0.0227	-1.6638	0.0044	-0.0011	0.0103	40.7877	8.4147	8.7280	0.4941	0.4840	0.5967	-0.4070
2.29	-9.5062	-0.0223	-1.6603	0.0093	0.0022	0.0107	40.7952	8.3129	8.7557	0.4940	0.4840	0.5967	-0.4070
2.3	-9.5038	-0.0333	-1.6596	0.0124	-0.0047	0.0120	40.7882	8.2880	8.7110	0.4940	0.4841	0.5966	-0.4070
2.31	-9.4961	-0.0456	-1.6550	0.0068	-0.0029	0.0081	40.8677	8.2106	8.5372	0.4940	0.4840	0.5966	-0.4070
2.32	-9.4978	-0.0538	-1.6545	0.0132	-0.0019	0.0089	40.9020	8.0989	8.6309	0.4940	0.4841	0.5966	-0.4071
2.33	-9.5042	-0.0574	-1.6635	-0.0039	0.0010	0.0096	40.5390	8.1331	8.6171	0.4940	0.4841	0.5966	-0.4070
2.34	-9.5034	-0.0541	-1.6601	0.0018	-0.0029	0.0064	40.6951	8.3527	8.5890	0.4940	0.4841	0.5966	-0.4071
2.35	-9.4932	-0.0580	-1.6478	0.0142	-0.0034	0.0065	40.7961	8.3750	8.8883	0.4940	0.4842	0.5965	-0.4071
2.36	-9.5052	-0.0538	-1.6608	0.0089	0.0057	0.0023	40.4870	8.4680	8.6475	0.4939	0.4842	0.5965	-0.4071
2.37	-9.5019	-0.0403	-1.6605	0.0032	-0.0033	0.0059	40.7791	8.2116	8.7116	0.4939	0.4842	0.5966	-0.4071
2.38	-9.4972	-0.0281	-1.6551	0.0035	-0.0050	0.0051	40.8783	8.2627	8.7899	0.4939	0.4842	0.5965	-0.4071
2.39	-9.4992	-0.0256	-1.6630	0.0106	-0.0001	0.0074	40.7792	8.4005	8.4955	0.4939	0.4843	0.5965	-0.4072
2.4	-9.5027	-0.0196	-1.6644	0.0124	0.0011	0.0094	40.6966	8.1906	8.6747	0.4938	0.4843	0.5965	-0.4072
2.41	-9.5055	-0.0208	-1.6688	0.0107	-0.0057	0.0076	40.7197	8.2628	8.7888	0.4939	0.4843	0.5965	-0.4072
2.42	-9.5096	-0.0329	-1.6621	0.0141	-0.0050	0.0043	40.7882	8.2972	8.6350	0.4938	0.4843	0.5964	-0.4072
2.43	-9.5068	-0.0479	-1.6577	0.0082	-0.0022	0.0063	40.7098	8.3791	8.6685	0.4938	0.4844	0.5964	-0.4073
2.44	-9.4997	-0.0524	-1.6622	0.0056	0.0013	0.0065	41.0342	8.3487	8.6442	0.4938	0.4844	0.5964	-0.4073
2.45	-9.5011	-0.0597	-1.6619	0.0092	0.0096	0.0071	40.6953	8.1568	8.7373	0.4937	0.4844	0.5964	-0.4073
2.46	-9.4972	-0.0608	-1.6652	0.0087	-0.0005	0.0066	40.8251	8.3455	8.7697	0.4937	0.4845	0.5964	-0.4073
2.47	-9.5017	-0.0603	-1.6736	-0.0014	0.0024	0.0102	40.8695	8.4385	8.5512	0.4937	0.4845	0.5964	-0.4073
2.48	-9.5050	-0.0560	-1.6803	0.0028	0.0069	0.0052	40.7592	8.1422	8.4746	0.4937	0.4845	0.5964	-0.4073
2.49	-9.5021	-0.0509	-1.6779	0.0027	0.0007	0.0084	40.8872	8.3211	8.8980	0.4936	0.4845	0.5964	-0.4072
2.5	-9.5091	-0.0509	-1.6844	0.0023	0.0023	0.0011	40.9651	8.3539	8.6659	0.4936	0.4845	0.5964	-0.4073
2.51	-9.5054	-0.0446	-1.6829	0.0011	-0.0029	0.0064	40.8011	8.0956	8.5602	0.4936	0.4845	0.5964	-0.4073
2.52	-9.5015	-0.0445	-1.6860	-0.0010	0.0059	0.0071	40.8009	8.1941	8.8557	0.4936	0.4845	0.5964	-0.4072
2.53	-9.5010	-0.0468	-1.6826	0.0035	0.0035	0.0096	40.7679	8.2077	8.8279	0.4936	0.4846	0.5965	-0.4073
2.54	-9.5042	-0.0405	-1.6817	-0.0026	0.0021	0.0091	40.8524	8.3211	8.7163	0.4936	0.4846	0.5964	-0.4072
2.55	-9.5139	-0.0446	-1.6935	-0.0038	0.0024	0.0082	40.8069	8.4157	8.7772	0.4936	0.4846	0.5965	-0.4072
2.56	-9.5049	-0.0532	-1.6948	0.0006	-0.0004	0.0075	40.5062	8.1794	8.6342	0.4935	0.4845	0.5964	-0.4071
2.57	-9.4985	-0.0630	-1.6935	-0.0064	0.0058	0.0034	40.6865	8.1134	8.6922	0.4936	0.4846	0.5965	-0.4072
2.58	-9.5019	-0.0649	-1.6960	0.0057	0.0002	0.0068	40.7216	8.3964	8.7390	0.4935	0.4846	0.5965	-0.4072
2.59	-9.5036	-0.0632	-1.6884	0.0048	-0.0016	0.0089	40.7076	8.2913	8.5464	0.4935	0.4846	0.5965	-0.4072
2.6	-9.5036	-0.0608	-1.6747	0.0083	-0.0030	0.0091	40.8079	8.1948	8.5870	0.4935	0.4846	0.5964	-0.4072
2.61	-9.4981	-0.0527	-1.6699	0.0092	0.0003	0.0058	40.7905	8.3134	8.8036	0.4935	0.4847	0.5964	-0.4072
2.62	-9.5059	-0.0407	-1.6633	-0.0003	0.0008	0.0060	40.9770	8.2463	8.6681	0.4935	0.4847	0.5965	-0.4072
2.63	-9.5015	-0.0377	-1.6561	0.0043	-0.0047	0.0058	40.8647	8.1005	8.7239	0.4934	0.4846	0.5964	-0.4072
2.64	-9.5020	-0.0414	-1.6685	-0.0000	-0.0026	0.0117	40.8867	8.1405	8.8929	0.4935	0.4847	0.5965	-0.4072
2.65	-9.5008	-0.0703	-1.6729	0.0036	0.0015	0.0059	41.1070	8.5130	8.9042	0.4935	0.4847	0.5964	-0.4072
2.66	-9.4844	-0.0889	-1.6499	0.0022	-0.0055	0.0008	41.1284	8.5628	8.7414	0.4935	0.4847	0.5965	-0.4073
2.67	-9.5118	-0.0771	-1.6689	0.0057	0.0011	0.0009	41.0016	8.4046	8.7636	0.4934	0.4847	0.5964	-0.4072
2.68	-9.5113	-0.0563	-1.6610	0.0048	-0.0017	0.0093	40.7841	8.1836	8.7380	0.4934	0.4847	0.5964	-0.4073
2.69	-9.4886	-0.0348	-1.6414	0.0085	0.0011	0.0069	40.6779	8.2090	8.6771	0.4934	0.4847	0.5964	-0.4073
2.7	-9.4981	-0.0239	-1.6526	0.0122	0.0026	0.0057	40.8693	8.4529	8.6561	0.4933	0.4848	0.5964	-0.4073
2.71	-9.5027	-0.0226	-1.6599	0.0007	0.0038	0.0108	40.7223	8.4511	8.7527	0.4934	0.4848	0.5964	-0.4073
2.72	-9.4949	-0.0273	-1.6419	0.0013	0.0066	0.0063	40.6713	8.1532	8.6433	0.4933	0.4848	0.5964	-0.4072
2.73	-9.5062	-0.0210	-1.6445	0.0006	-0.0029	0.0077	40.6558	8.3294	8.8926	0.4934	0.4849	0.5964	-0.4073
2.74	-9.5092	-0.0205	-1.6397	-0.0043	0.0050	0.0054	40.7678	8.3739	8.6292	0.4933	0.4848	0.5964	-0.4072
2.75	-9.5043	-0.0280	-1.6385	-0.0083	-0.0009	0.0054	40.7286	8.2564	8.7024	0.4934	0.4848	0.5965	-0.4072
2.76	-9.4988	-0.0336	-1.6425	-0.0084	0.0021	-0.0027	40.5199	8.4327	8.5748	0.4933	0.4848	0.5965	-0.4072
2.77	-9.4977	-0.0485	-1.6444	-0.0112	0.0032	0.0003	40.7282	8.4546	8.6492	0.4933	0.4847	0.5965	-0.4071
2.78	-9.5008	-0.0588	-1.6472	-0.0063	0.0008	0.0045	40.4446	8.3348	8.6537	0.4934	0.4847	0.5966	-0.4071
2.79	-9.5002	-0.0647	-1.6452	0.0011	-0.0047	0.0046	40.7417	8.2541	8.5690	0.4933	0.4847	0.5966	-0.4071
2.8	-9.5010	-0.0657	-1.6486	-0.0024	-0.0008	0.0094	40.8513	8.1026	8.7680	0.4934	0.4847	0.5966	-0.4071
2.81	-9.5018	-0.0634	-1.6507	-0.0008	0.0039	0.0073	40.9077	8.2045	8.7613	0.4933	0.4847	0.5965	-0.4071
2.82	-9.4945	-0.0554	-1.6547	-0.0004	-0.0017	0.0093	40.8995	8.1823	8.7469	0.4934	0.4848	0.5966	-0.4071
2.83	-9.5050	-0.0482	-1.6684	-0.0005	0.0034	0.0041	40.6878	8.0899	8.6260	0.4933	0.4847	0.5966	-0.4071
2.84	-9.5110	-0.0337	-1.6824	-0.0060	0.0015	0.0064	40.8673	8.1166	8.4908	0.4933	0.4848	0.5966	-0.4071
2.85	-9.4964	-0.0224	-1.6692	-0.0027	0.0092	0.0042	40.7469	8.1980	8.5045	0.4933	0.4847	0.5966	-0.4070
2.86	-9.4966	-0.0300	-1.6841	0.0054	-0.0004	0.0051	40.7510	8.1941	8.7097	0.4933	0.4848	0.5966	-0.4070
2.87	-9.5147	-0.0271	-1.7009	-0.0020	0.0058	0.0074	40.6097	8.1954	8.6486	0.4933	0.4848	0.5967	-0.4070
2.88	-9.4946	-0.0391	-1.6780	0.0025	-0.0002	0.0098	40.8682	8.1825	8.6778	0.4932	0.4848	0.5966	-0.4070
2.89	-9.4930	-0.0527	-1.6753	0.0009	-0.0033	0.0048	40.7073	8.3101	8.6624	0.4933	0.4848	0.5967	-0.4070
2.9	-9.5135	-0.0542	-1.6880	-0.0027	0.0003	0.0044	40.5616	8.3650	8.8082	0.4933	0.4848	0.5967	-0.4070
2.91	-9.5058	-0.0569	-1.6854	-0.0029	0.0009	0.0054	40.5941	8.3579	8.8624	0.4933	0.4848	0.5967	-0.4070
2.92	-9.4974	-0.0543	-1.6787	0.0019	0.0025	0.0070	40.6651	8.3411	8.7303	0.4932	0.4848	0.5967	-0.4069
2.93	-9.5111	-0.0533	-1.6809	0.0004	0.0016	0.0058	40.8933	8.5093	8.6536	0.4932	0.4848	0.5967	-0.4070
2.94	-9.4992	-0.0619	-1.6661	0.0044	-0.0008	0.0079	40.6000	8.4788	8.6515	0.4932	0.4848	0.5967	-0.4070
2.95	-9.4975	-0.0524	-1.6661	0.0032	0.0009	0.0022	40.6034	8.4257	8.6750	0.4932	0.4848	0.5967	-0.4070
2.96	-9.5036	-0.0406	-1.6645	-0.0022	0.0056	0.0041	40.5677	8.3496	8.6268	0.4932	0.4849	0.5968	-0.4070
2.97	-9.4963	-0.0349	-1.6501	0.0034	0.0020	0.0095	40.7936	8.5028	8.7335	0.4932	0.4849	0.5967	-0.4069
2.98	-9.4989	-0.0356	-1.6493	0.0058	-0.0014	0.0057	40.7880	8.2795	8.6857	0.4932	0.4849	0.5967	-0.4070
2.99	-9.5023	-0.0284	-1.6537	-0.0009	0.0012	0.0043	40.7470	7.9725	8.6862	0.4931	0.4848	0.5967	-0.4069
3	-9.5034	-0.0234	-1.6480	0.0004	0.0008	0.0063	40.8381	8.1861	8.6201	0.4932	0.4849	0.5967	-0.4070
3.01	-9.4914	-0.0506	-1.6373	-0.0047	0.0015	0.0066	40.9024	8.3390	8.4761	0.4931	0.4849	0.5967	-0.4069
3.02	-9.5047	-0.0728	-1.6502	-0.0061	0.0008	0.0045	40.8215	8.4044	8.7046	0.4931	0.4849	0.5968	-0.4069
3.03	-9.5113	-0.0655	-1.6455	0.0015	0.0003	0.0040	40.4502	8.1300	8.5547	0.4932	0.4849	0.5968	-0.4069
3.04	-9.4995	-0.0591	-1.6380	-0.0027	0.0003	0.0040	40.6970	8.0318	8.4556	0.4931	0.4848	0.5968	-0.4069
3.05	-9.5016	-0.0516	-1.6473	-0.0017	0.0010	0.0103	40.8295	8.3520	8.5875	0.4932	0.4849	0.5968	-0.4069
3.06	-9.5051	-0.0323	-1.6555	0.0002	0.0016	-0.0014	40.8589	8.0683	8.4820	0.4931	0.4848	0.5968	-0.4068
3.07	-9.5033	-0.0366	-1.6481	0.0017	-0.0071	0.0050	40.6218	8.3548	8.6271	0.4931	0.4849	0.5968	-0.4069
3.08	-9.4946	-0.0387	-1.6534	0.0024	-0.0021	0.0061	40.5901	8.4597	8.7821	0.4931	0.4848	0.5968	-0.4069
3.09	-9.5041	-0.0468	-1.6570	0.0011	0.0103	0.0036	40.5754	8.4322	8.7366	0.4931	0.4849	0.5968	-0.4069
3.1	-9.4997	-0.0470	-1.6554	0.0066	0.0037	0.0051	40.7658	8.4381	8.6657	0.4930	0.4849	0.5968	-0.4069
3.11	-9.4931	-0.0566	-1.6590	0.0046	0.0026	0.0089	40.8726	8.4635	8.5333	0.4930	0.4849	0.5968	-0.4069
3.12	-9.4965	-0.0601	-1.6501	0.0003	0.0062	0.0056	40.7787	8.3833	8.6391	0.4930	0.4849	0.5969	-0.4069
3.13	-9.5033	-0.0770	-1.6610	-0.0011	0.0075	0.0049	40.6852	8.3508	8.7391	0.4929	0.4849	0.5968	-0.4068
3.14	-9.5092	-0.0810	-1.6767	-0.0048	0.0040	0.0110	40.5435	8.3489	8.8677	0.4930	0.4850	0.5969	-0.4068
3.15	-9.4700	-0.1076	-1.6311	-0.0054	0.0034	0.0069	40.8224	8.3849	8.7978	0.4930	0.4849	0.5969	-0.4068
3.16	-9.5161	-0.1365	-1.6584	0.0055	-0.0068	0.0093	41.1923	8.2866	8.9593	0.4930	0.4850	0.5969	-0.4068
3.17	-9.5002	-0.1242	-1.6625	0.0006	-0.0053	0.0100	41.0046	8.3231	8.7632	0.4930	0.4849	0.5968	-0.4068
3.18	-9.4655	-0.1432	-1.6294	0.0053	-0.0030	0.0211	40.8383	8.2897	8.5130	0.4930	0.4850	0.5968	-0.4068
3.19	-9.5104	-0.1174	-1.6816	0.0043	-0.0046	0.0182	40.7168	8.4156	8.5782	0.4931	0.4851	0.5968	-0.4068
3.2	-9.4789	-0.1133	-1.6382	0.0072	-0.0007	0.0120	40.8811	8.0872	8.6657	0.4930	0.4851	0.5967	-0.4067
3.21	-9.5182	-0.0869	-1.6613	0.0127	0.0028	0.0179	40.7991	8.1365	8.7056	0.4931	0.4852	0.5968	-0.4068
3.22	-9.5064	-0.0659	-1.6581	0.0114	0.0041	0.0142	40.7357	8.2551	8.6437	0.4930	0.4852	0.5967	-0.4068
3.23	-9.4913	-0.0464	-1.6610	0.0107	-0.0021	0.0122	40.7420	8.2021	8.7602	0.4930	0.4853	0.5967	-0.4068
3.24	-9.5099	-0.0170	-1.6733	0.0062	0.0048	0.0155	40.8850	8.3052	8.7700	0.4929	0.4853	0.5966	-0.4067
3.25	-9.5012	0.0008	-1.6623	0.0022	0.0032	0.0116	40.6628	8.1324	8.5528	0.4930	0.4854	0.5966	-0.4067
3.26	-9.5092	0.0344	-1.6837	0.0098	0.0000	0.0121	40.7299	8.2159	8.9521	0.4930	0.4854	0.5966	-0.4067
3.27	-9.4930	0.0352	-1.6602	0.0021	0.0020	0.0159	40.6325	8.1286	8.8676	0.4930	0.4854	0.5966	-0.4067
3.28	-9.5285	0.0546	-1.6968	-0.0037	0.0067	0.0136	40.5206	8.4004	8.7481	0.4930	0.4855	0.5966	-0.4067
3.29	-9.4978	0.0527	-1.6786	0.0091	0.0009	0.0177	40.5802	8.3898	8.6085	0.4930	0.4855	0.5965	-0.4067
3.3	-9.4932	0.0337	-1.6783	0.0117	0.0009	0.0143	40.6523	8.3407	8.6127	0.4930	0.4856	0.5965	-0.4067
3.31	-9.5120	0.0229	-1.7028	0.0102	0.0007	0.0059	40.5998	8.2629	8.7949	0.4929	0.4856	0.5964	-0.4067
3.32	-9.5028	0.0175	-1.6845	0.0006	0.0020	0.0109	40.6486	8.2674	8.7299	0.4929	0.4857	0.5965	-0.4067
3.33	-9.5086	0.0247	-1.6949	0.0085	0.0049	0.0114	40.7440	8.0720	8.5117	0.4929	0.4857	0.5965	-0.4067
3.34	-9.4961	0.0033	-1.6808	0.0106	0.0048	0.0095	40.8813	8.0248	8.7855	0.4929	0.4858	0.5965	-0.4067
3.35	-9.5157	-0.0134	-1.6964	0.0076	-0.0004	0.0151	40.8425	8.3370	8.6687	0.4928	0.4858	0.5964	-0.4067
3.36	-9.5010	-0.0171	-1.6936	0.0048	-0.0005	0.0095	40.8048	8.1815	8.5675	0.4928	0.4858	0.5964	-0.4067
3.37	-9.4940	-0.0298	-1.6788	0.0068	0.0014	0.0035	40.7140	8.0857	8.6102	0.4928	0.4858	0.5964	-0.4067
3.38	-9.5029	-0.0421	-1.6932	0.0030	-0.0078	0.0060	40.7830	8.3956	8.5712	0.4928	0.4858	0.5963	-0.4067
3.39	-9.5017	-0.0587	-1.6861	-0.0064	-0.0004	0.0070	40.8635	8.1179	8.6143	0.4929	0.4859	0.5964	-0.4067
3.4	-9.5163	-0.0612	-1.6907	0.0066	-0.0048	0.0046	40.9321	8.1274	8.7121	0.4928	0.4858	0.5964	-0.4067
3.41	-9.4891	-0.0745	-1.6747	0.0000	-0.0019	0.0059	40.8489	8.2540	8.6509	0.4929	0.4859	0.5964	-0.4067
3.42	-9.4979	-0.0972	-1.6831	0.0032	-0.0019	0.0053	40.6686	8.3622	8.7840	0.4928	0.4858	0.5964	-0.4067
3.43	-9.5030	-0.1134	-1.6910	0.0017	-0.0000	0.0099	40.8199	8.2106	8.7367	0.4928	0.4858	0.5964	-0.4067
3.44	-9.4919	-0.1168	-1.6780	0.0051	-0.0011	0.0066	40.7727	8.1990	8.6557	0.4928	0.4859	0.5964	-0.4067
3.45	-9.5034	-0.1093	-1.6831	0.0101	-0.0034	0.0064	40.7925	8.3791	8.6971	0.4928	0.4859	0.5963	-0.4067
3.46	-9.5018	-0.0944	-1.6813	0.0074	-0.0022	0.0040	40.7101	8.2309	8.5590	0.4928	0.4859	0.5964	-0.4068
3.47	-9.5032	-0.0802	-1.6817	0.0073	-0.0046	0.0072	40.5557	8.0317	8.6314	0.4928	0.4859	0.5963	-0.4068
3.48	-9.4982	-0.0730	-1.6747	0.0030	-0.0010	0.0093	40.5983	8.2190	8.7140	0.4928	0.4859	0.5963	-0.4068
3.49	-9.4982	-0.0645	-1.6797	0.0042	-0.0023	0.0046	40.7036	8.3780	8.5528	0.4927	0.4859	0.5962	-0.4068
3.5	-9.5010	-0.0530	-1.6779	-0.0014	0.0015	0.0084	40.7391	8.2072	8.7403	0.4928	0.4859	0.5963	-0.4068
3.51	-9.4998	-0.0464	-1.6761	0.0041	-0.0000	0.0095	40.6075	8.1823	8.5618	0.4928	0.4859	0.5963	-0.4068
3.52	-9.5022	-0.0297	-1.6761	0.0052	0.0021	0.0090	40.5331	8.1527	8.4640	0.4927	0.4860	0.5963	-0.4068
3.53	-9.4990	-0.0263	-1.6721	0.0019	0.0001	0.0059	40.5458	8.3011	8.6110	0.4927	0.4860	0.5963	-0.4068
3.54	-9.5017	-0.0261	-1.6628	0.0019	-0.0007	0.0039	40.4637	8.1871	8.5729	0.4927	0.4860	0.5963	-0.4068
3.55	-9.4999	-0.0248	-1.6482	0.0049	-0.0073	0.0068	40.8326	8.2526	8.6001	0.4928	0.4860	0.5963	-0.4068
3.56	-9.4976	-0.0166	-1.6370	0.0049	-0.0084	0.0059	40.9816	8.1931	8.5845	0.4927	0.4859	0.5962	-0.4068
3.57	-9.5035	-0.0142	-1.6314	0.0066	-0.0041	0.0069	40.8038	8.0964	8.7123	0.4928	0.4860	0.5962	-0.4069
3.58	-9.4972	-0.0102	-1.6236	0.0104	-0.0034	0.0080	40.6970	8.1949	8.6475	0.4927	0.4860	0.5962	-0.4069
3.59	-9.5009	-0.0104	-1.6461	0.0098	-0.0034	0.0036	40.9017	7.9775	8.7782	0.4927	0.4860	0.5962	-0.4070
3.6	-9.4981	-0.0105	-1.6615	0.0122	-0.0033	0.0045	40.7591	8.1272	8.6848	0.4927	0.4860	0.5961	-0.4070
3.61	-9.5065	-0.0046	-1.6711	0.0051	-0.0010	0.0082	40.9240	8.1948	8.5457	0.4927	0.4861	0.5961	-0.4070
3.62	-9.4988	-0.0049	-1.6638	0.0050	-0.0009	0.0090	40.6013	8.1743	8.6734	0.4927	0.4861	0.5961	-0.4070
3.63	-9.4903	-0.0047	-1.6610	0.0058	-0.0017	0.0059	40.7913	8.1844	8.6627	0.4926	0.4861	0.5960	-0.4070
3.64	-9.4958	-0.0107	-1.6678	0.0039	-0.0046	0.0046	40.7640	8.1748	8.8110	0.4927	0.4861	0.5961	-0.4071
3.65	-9.5003	-0.0199	-1.6786	-0.0003	0.0002	0.0057	40.8487	8.3447	8.9925	0.4926	0.4861	0.5961	-0.4070
3.66	-9.5120	-0.0290	-1.6798	0.0036	0.0017	0.0064	40.9867	8.5442	9.1214	0.4927	0.4862	0.5961	-0.4071
3.67	-9.5019	-0.0447	-1.6788	-0.0027	0.0024	0.0030	40.8181	8.4038	8.9712	0.4926	0.4861	0.5961	-0.4070
3.68	-9.5042	-0.0559	-1.6858	-0.0002	0.0046	0.0051	40.7175	8.2535	8.7945	0.4926	0.4861	0.5961	-0.4070
3.69	-9.5087	-0.0624	-1.6923	0.0038	0.0040	0.0033	40.5181	8.4683	8.7960	0.4926	0.4861	0.5961	-0.4070
3.7	-9.5010	-0.0639	-1.6868	0.0047	0.0049	0.0047	40.7140	8.3755	8.9417	0.4925	0.4861	0.5961	-0.4070
3.71	-9.4978	-0.0687	-1.6842	0.0082	0.0013	0.0046	40.4739	8.2747	8.8073	0.4926	0.4862	0.5962	-0.4071
3.72	-9.5068	-0.0754	-1.6893	0.0072	0.0011	0.0038	40.5694	8.1296	8.7492	0.4925	0.4862	0.5961	-0.4071
3.73	-9.5035	-0.0807	-1.6846	-0.0008	-0.0069	0.0059	40.6256	8.1703	8.7075	0.4925	0.4862	0.5962	-0.4071
3.74	-9.4991	-0.0916	-1.6786	0.0031	-0.0043	0.0048	40.9593	8.2334	8.6314	0.4925	0.4861	0.5961	-0.4071
3.75	-9.5081	-0.0927	-1.6787	0.0074	0.0015	0.0038	40.8727	8.0816	8.8386	0.4925	0.4862	0.5961	-0.4071
3.76	-9.5034	-0.0840	-1.6712	0.0019	-0.0003	0.0045	40.7240	8.0129	8.6250	0.4925	0.4862	0.5961	-0.4071
3.77	-9.4945	-0.0676	-1.6616	0.0049	0.0001	0.0040	40.7830	8.1196	8.6199	0.4925	0.4862	0.5961	-0.4071
3.78	-9.4995	-0.0521	-1.6605	0.0055	0.0001	0.0098	40.7501	8.1233	8.8987	0.4925	0.4862	0.5961	-0.4071
3.79	-9.4962	-0.0414	-1.6509	0.0050	-0.0060	0.0073	40.6446	8.1228	8.5409	0.4925	0.4862	0.5961	-0.4072
3.8	-9.4979	-0.0325	-1.6478	0.0022	-0.0029	0.0075	40.7708	8.1102	8.7004	0.4925	0.4862	0.5961	-0.4072
3.81	-9.5027	-0.0321	-1.6528	0.0083	0.0002	0.0070	40.6661	8.1896	8.8803	0.4924	0.4862	0.5960	-0.4072
3.82	-9.5037	-0.0274	-1.6460	-0.0012	-0.0017	0.0054	40.7015	8.4198	8.6948	0.4925	0.4862	0.5961	-0.4072
3.83	-9.4980	-0.0284	-1.6503	-0.0001	-0.0017	0.0049	40.7633	8.3106	8.6690	0.4924	0.4862	0.5960	-0.4072
3.84	-9.5001	-0.0269	-1.6501	0.0003	0.0019	0.0043	40.5715	8.2719	8.6407	0.4925	0.4862	0.5961	-0.4072
3.85	-9.5055	-0.0293	-1.6498	0.0070	0.0002	0.0048	40.7000	8.2913	8.7802	0.4924	0.4862	0.5960	-0.4072
3.86	-9.4982	-0.0306	-1.6581	-0.0004	0.0030	0.0045	40.6537	8.3933	8.9475	0.4924	0.4862	0.5961	-0.4072
3.87	-9.4958	-0.0370	-1.6590	-0.0010	0.0016	0.0045	40.5359	8.3347	8.5428	0.4924	0.4862	0.5961	-0.4072
3.88	-9.5018	-0.0481	-1.6642	-0.0023	0.0033	0.0134	40.5030	8.4654	8.6685	0.4924	0.4862	0.5960	-0.4071
3.89	-9.5044	-0.0542	-1.6683	-0.0052	-0.0001	0.0065	40.6324	8.3301	8.6455	0.4925	0.4863	0.5961	-0.4072
3.9	-9.4989	-0.0589	-1.6665	-0.0017	0.0025	0.0035	40.4307	8.2882	8.5568	0.4924	0.4862	0.5961	-0.4071
3.91	-9.4997	-0.0584	-1.6739	-0.0101	-0.0034	0.0049	40.5373	8.4312	8.8273	0.4925	0.4862	0.5962	-0.4071
3.92	-9.5013	-0.0499	-1.6742	0.0023	-0.0078	0.0046	40.7901	8.1543	8.8669	0.4924	0.4862	0.5961	-0.4071
3.93	-9.4952	-0.0473	-1.6707	-0.0071	-0.0026	0.0083	40.9565	8.1543	8.5827	0.4925	0.4862	0.5961	-0.4071
3.94	-9.4980	-0.0442	-1.6766	-0.0068	-0.0017	0.0128	40.7134	8.2150	8.6338	0.4925	0.4862	0.5961	-0.4071
3.95	-9.5032	-0.0469	-1.6772	-0.0054	-0.0004	0.0168	40.6604	8.2088	8.7300	0.4925	0.4862	0.5961	-0.4070
3.96	-9.4999	-0.0496	-1.6792	-0.0104	-0.0052	0.0091	40.6914	8.1809	8.9024	0.4926	0.4862	0.5962	-0.4070
3.97	-9.4939	-0.0474	-1.6692	0.0023	-0.0028	0.0088	40.7901	8.0040	8.8802	0.4926	0.4862	0.5961	-0.4070
3.98	-9.5110	-0.0515	-1.6782	-0.0006	-0.0004	0.0088	40.6958	8.2501	8.6594	0.4926	0.4862	0.5961	-0.4070
3.99	-9.5018	-0.0541	-1.6812	-0.0048	-0.0031	0.0042	40.6727	8.0910	8.6544	0.4926	0.4861	0.5961	-0.4069
4	-9.4989	-0.0520	-1.6857	0.0014	-0.0019	0.0144	40.6897	8.0498	8.6115	0.4927	0.4862	0.5961	-0.4070
4.01	-9.5002	-0.0530	-1.6863	0.0022	-0.0007	0.0144	40.5277	8.1564	8.4708	0.4927	0.4862	0.5961	-0.4069
4.02	-9.4992	-0.0460	-1.6851	-0.0047	0.0033	0.0038	40.5359	8.3376	8.6997	0.4927	0.4862	0.5961	-0.4069
4.03	-9.4926	-0.0396	-1.6722	-0.0031	-0.0017	0.0088	40.3990	8.5603	8.9469	0.4927	0.4862	0.5961	-0.4069
4.04	-9.4983	-0.0310	-1.6759	0.0009	0.0028	0.0044	40.6176	8.3779	8.6752	0.4927	0.4862	0.5961	-0.4069
4.05	-9.5049	-0.0304	-1.6752	-0.0013	0.0013	0.0048	40.6781	7.9778	8.6002	0.4927	0.4862	0.5961	-0.4069
4.06	-9.5084	-0.0288	-1.6790	0.0045	0.0010	0.0034	40.4761	8.3031	8.6457	0.4926	0.4862	0.5961	-0.4069
4.07	-9.5034	-0.0316	-1.6747	-0.0010	0.0031	0.0076	40.5583	8.3472	8.7648	0.4927	0.4862	0.5961	-0.4069
4.08	-9.4995	-0.0296	-1.6749	0.0038	-0.0019	0.0076	40.6011	8.3032	8.7752	0.4926	0.4862	0.5961	-0.4069
4.09	-9.4991	-0.0300	-1.6739	-0.0054	0.0016	0.0088	40.6053	8.3666	8.8822	0.4927	0.4862	0.5961	-0.4069
4.1	-9.4984	-0.0289	-1.6624	0.0025	-0.0004	0.0132	40.5746	7.9700	8.7213	0.4927	0.4862	0.5961	-0.4068
4.11	-9.4951	-0.0250	-1.6709	0.0034	-0.0037	0.0049	40.7695	8.0863	8.7972	0.4927	0.4862	0.5961	-0.4069
4.12	-9.4937	-0.0227	-1.6660	-0.0047	-0.0075	0.0073	40.8353	7.9605	8.6905	0.4927	0.4862	0.5961	-0.4069
4.13	-9.4938	-0.0276	-1.6688	-0.0060	0.0006	0.0061	40.6518	8.0097	8.6750	0.4927	0.4862	0.5961	-0.4068
4.14	-9.5015	-0.0330	-1.6729	-0.0040	0.0002	0.0066	40.6965	8.2600	8.6479	0.4927	0.4862	0.5961	-0.4068
4.15	-9.5072	-0.0474	-1.6686	-0.0072	-0.0007	0.0089	40.9545	8.1453	8.7354	0.4927	0.4862	0.5961	-0.4068
4.16	-9.5123	-0.0477	-1.6860	0.0021	-0.0058	0.0086	41.0240	8.1300	8.9789	0.4928	0.4862	0.5961	-0.4068
4.17	-9.4654	-0.0638	-1.6295	0.0009	-0.0034	0.0104	40.9079	8.0983	8.8499	0.4927	0.4862	0.5960	-0.4068
4.18	-9.5401	-0.0960	-1.6915	-0.0030	-0.0033	0.0076	40.7835	8.3798	8.8294	0.4928	0.4862	0.5961	-0.4068
4.19	-9.5056	-0.0749	-1.6728	-0.0068	-0.0099	0.0119	40.6709	8.0080	8.7442	0.4928	0.4862	0.5961	-0.4068
4.2	-9.4862	-0.0939	-1.6600	-0.0028	-0.0042	0.0157	40.7495	7.9616	8.8238	0.4929	0.4861	0.5960	-0.4067
4.21	-9.5405	-0.0910	-1.7363	-0.0080	0.0009	0.0037	40.6177	8.3343	8.9450	0.4929	0.4862	0.5961	-0.4068
4.22	-9.4543	-0.1092	-1.6708	0.0025	0.0010	0.0063	40.6490	8.2311	8.8865	0.4929	0.4861	0.5961	-0.4067
4.23	-9.5061	-0.1220	-1.7110	0.0068	0.0011	0.0123	40.6408	8.0982	8.5390	0.4929	0.4862	0.5961	-0.4067
4.24	-9.5123	-0.1176	-1.7113	-0.0004	-0.0052	0.0083	40.6524	8.1889	8.7622	0.4929	0.4861	0.5960	-0.4067
4.25	-9.4814	-0.0892	-1.6808	0.0136	-0.0006	0.0136	40.6168	8.2786	8.8331	0.4929	0.4862	0.5960	-0.4068
4.26	-9.5062	-0.0500	-1.6936	0.0110	0.0003	0.0052	40.6964	8.2872	8.8736	0.4929	0.4863	0.5960	-0.4068
4.27	-9.4947	-0.0105	-1.6867	0.0116	0.0012	0.0074	40.6847	8.1777	8.9521	0.4928	0.4863	0.5959	-0.4068
4.28	-9.5035	0.0261	-1.6815	0.0131	-0.0058	0.0102	40.4255	8.2870	8.8089	0.4928	0.4863	0.5959	-0.4068
4.29	-9.5107	0.0491	-1.6734	0.0087	-0.0060	0.0079	40.5425	8.3458	8.6920	0.4928	0.4863	0.5959	-0.4069
4.3	-9.5094	0.0525	-1.6656	0.0087	-0.0021	0.0111	40.7477	8.2033	8.6461	0.4928	0.4864	0.5959	-0.4069
4.31	-9.5052	0.0454	-1.6591	0.0087	-0.0068	0.0109	40.6411	8.0945	8.6679	0.4928	0.4863	0.5957	-0.4069
4.32	-9.5068	0.0272	-1.6625	0.0016	-0.0065	0.0040	40.6404	8.1223	8.6597	0.4929	0.4864	0.5958	-0.4070
4.33	-9.4981	0.0080	-1.6532	-0.0043	-0.0091	0.0054	40.6462	8.0587	8.9755	0.4929	0.4863	0.5958	-0.4069
4.34	-9.4991	-0.0183	-1.6528	-0.0051	-0.0103	0.0062	40.6266	8.2667	8.7646	0.4929	0.4863	0.5958	-0.4070
4.35	-9.5053	-0.0462	-1.6630	-0.0031	-0.0060	0.0087	40.6715	8.1840	8.6502	0.4929	0.4863	0.5957	-0.4069
4.36	-9.4977	-0.0692	-1.6488	0.0029	-0.0071	0.0053	40.5898	7.9670	8.6514	0.4930	0.4863	0.5957	-0.4070
4.37	-9.5034	-0.0802	-1.6416	-0.0054	-0.0099	0.0054	40.4314	8.0709	8.7163	0.4930	0.4863	0.5957	-0.4070
4.38	-9.5068	-0.0783	-1.6514	0.0035	-0.0064	0.0117	40.5813	8.2056	8.7639	0.4930	0.4862	0.5956	-0.4070
4.39	-9.5016	-0.0720	-1.6476	0.0071	-0.0074	0.0056	40.4637	8.0558	8.6367	0.4931	0.4863	0.5957	-0.4070
4.4	-9.4981	-0.0612	-1.6538	-0.0087	0.0018	0.0146	40.5020	8.1856	8.8085	0.4931	0.4863	0.5957	-0.4070
4.41	-9.4972	-0.0550	-1.6707	0.0001	0.0106	0.0084	40.6677	8.3163	8.6302	0.4931	0.4863	0.5957	-0.4070
4.42	-9.4946	-0.0441	-1.6837	0.0057	-0.0042	0.0096	40.5399	8.1556	8.7703	0.4930	0.4863	0.5956	-0.4069
4.43	-9.5019	-0.0400	-1.6971	0.0009	0.0026	0.0127	40.5941	8.3135	8.7075	0.4930	0.4863	0.5957	-0.4069
4.44	-9.5054	-0.0390	-1.6972	-0.0080	-0.0054	0.0086	40.6348	8.3816	8.8238	0.4931	0.4863	0.5957	-0.4069
4.45	-9.4968	-0.0466	-1.6939	-0.0065	-0.0062	0.0038	40.4415	8.2544	8.7539	0.4931	0.4862	0.5956	-0.4069
4.46	-9.5026	-0.0533	-1.6934	-0.0013	0.0012	0.0057	40.5242	8.2842	8.6464	0.4932	0.4863	0.5957	-0.4069
4.47	-9.5016	-0.0590	-1.6908	-0.0057	-0.0046	0.0064	40.5475	8.2242	8.9010	0.4931	0.4862	0.5957	-0.4069
4.48	-9.4997	-0.0648	-1.6809	0.0024	-0.0064	0.0067	40.6093	8.1761	8.5263	0.4932	0.4863	0.5957	-0.4069
4.49	-9.4989	-0.0627	-1.6859	-0.0040	-0.0006	0.0066	40.4226	8.1766	8.7603	0.4931	0.4862	0.5956	-0.4069
4.5	-9.4990	-0.0640	-1.6873	0.0039	0.0009	0.0095	40.6786	8.2090	8.8407	0.4932	0.4863	0.5957	-0.4069
4.51	-9.5044	-0.0584	-1.6937	-0.0000	-0.0059	0.0020	40.7801	8.1244	8.6914	0.4932	0.4862	0.5956	-0.4069
4.52	-9.4987	-0.0483	-1.6935	0.0027	-0.0037	0.0095	40.7661	8.1579	8.8687	0.4932	0.4862	0.5956	-0.4069
4.53	-9.4926	-0.0333	-1.6832	0.0034	0.0023	0.0070	40.8110	8.2992	8.7102	0.4932	0.4863	0.5956	-0.4069
4.54	-9.5061	-0.0156	-1.6880	-0.0026	-0.0085	0.0045	40.5945	8.1295	8.6730	0.4932	0.4862	0.5956	-0.4069
4.55	-9.5042	-0.0116	-1.6847	0.0017	-0.0037	0.0085	40.6567	8.0763	8.7923	0.4932	0.4862	0.5956	-0.4069
4.56	-9.4935	-0.0200	-1.6724	-0.0098	-0.0023	0.0117	40.7001	8.2116	8.7017	0.4932	0.4862	0.5956	-0.4069
4.57	-9.5075	-0.0352	-1.6686	-0.0001	-0.0071	0.0156	40.8348	8.0561	8.9185	0.4933	0.4862	0.5956	-0.4069
4.58	-9.5032	-0.0423	-1.6641	-0.0062	-0.0033	0.0094	40.6145	8.2032	8.8652	0.4933	0.4862	0.5956	-0.4069
4.59	-9.4941	-0.0546	-1.6541	-0.0026	-0.0008	0.0102	40.4680	8.2923	8.8295	0.4934	0.4862	0.5956	-0.4069
4.6	-9.4875	-0.0585	-1.6403	0.0051	-0.0036	0.0066	40.5602	8.2525	8.8060	0.4933	0.4862	0.5955	-0.4068
4.61	-9.4938	-0.0603	-1.6321	0.0102	0.0036	0.0048	40.6863	8.3871	8.7706	0.4933	0.4862	0.5955	-0.4069
4.62	-9.5008	-0.0638	-1.6285	0.0126	-0.0009	0.0100	40.7401	8.1400	8.8106	0.4933	0.4863	0.5955	-0.4069
4.63	-9.4968	-0.0636	-1.6197	0.0121	0.0016	0.0121	40.6566	8.3589	8.6967	0.4932	0.4863	0.5954	-0.4069
4.64	-9.4929	-0.0577	-1.6168	0.0006	-0.0012	0.0092	40.5071	8.4351	8.9656	0.4933	0.4864	0.5955	-0.4069
4.65	-9.4971	-0.0545	-1.6248	0.0003	0.0031	0.0056	40.9270	8.3134	9.0445	0.4933	0.4863	0.5955	-0.4069
4.66	-9.5016	-0.0574	-1.6279	0.0116	0.0019	0.0077	41.3214	8.1986	9.1572	0.4933	0.4864	0.5955	-0.4070
4.67	-9.4912	-0.0686	-1.6227	0.0058	-0.0046	0.0094	41.1456	8.2297	8.9467	0.4932	0.4864	0.5954	-0.4069
4.68	-9.4930	-0.0824	-1.6410	0.0095	-0.0051	0.0116	40.9478	8.2036	8.8353	0.4932	0.4864	0.5954	-0.4070
4.69	-9.4986	-0.0911	-1.6500	0.0005	-0.0057	0.0024	40.7037	8.1824	8.6148	0.4933	0.4864	0.5954	-0.4070
4.7	-9.4970	-0.0938	-1.6618	0.0023	-0.0020	0.0059	40.7532	8.1959	8.6418	0.4932	0.4864	0.5953	-0.4070
4.71	-9.4937	-0.0895	-1.6700	0.0052	-0.0112	0.0117	40.6518	8.2117	8.9254	0.4933	0.4864	0.5954	-0.4071
4.72	-9.5057	-0.0856	-1.6822	0.0039	-0.0038	0.0029	40.7604	8.1403	8.7920	0.4933	0.4864	0.5953	-0.4071
4.73	-9.4972	-0.0683	-1.6659	0.0140	-0.0014	0.0157	40.7258	8.1588	8.7946	0.4933	0.4865	0.5953	-0.4071
4.74	-9.4954	-0.0444	-1.6650	0.0076	-0.0007	0.0098	40.7429	8.2182	8.6634	0.4932	0.4864	0.5952	-0.4071
4.75	-9.4998	-0.0331	-1.6725	-0.0034	0.0013	0.0091	40.7361	8.0771	8.7313	0.4933	0.4865	0.5953	-0.4071
4.76	-9.4995	-0.0364	-1.6840	0.0042	0.0015	0.0062	40.7187	8.1505	8.9264	0.4933	0.4865	0.5952	-0.4071
4.77	-9.4939	-0.0317	-1.6854	-0.0045	-0.0008	0.0046	40.5338	8.2866	8.7538	0.4933	0.4865	0.5952	-0.4071
4.78	-9.5015	-0.0319	-1.6921	0.0024	0.0010	0.0053	40.7076	8.2518	8.7767	0.4933	0.4865	0.5953	-0.4071
4.79	-9.5114	-0.0271	-1.7021	-0.0007	0.0012	0.0118	40.6886	8.4561	8.7676	0.4933	0.4865	0.5952	-0.4070
4.8	-9.5082	-0.0160	-1.7005	-0.0084	-0.0041	0.0074	40.4962	8.3175	8.7548	0.4933	0.4865	0.5953	-0.4070
4.81	-9.5082	-0.0036	-1.7057	-0.0084	-0.0002	0.0070	40.4076	8.2530	8.8386	0.4933	0.4864	0.5952	-0.4070
4.82	-9.5021	0.0065	-1.7115	-0.0052	0.0003	0.0116	40.4194	8.2638	9.0848	0.4934	0.4865	0.5953	-0.4070
4.83	-9.5000	0.0113	-1.7091	-0.0106	-0.0059	0.0076	40.6618	8.1673	8.9704	0.4934	0.4864	0.5953	-0.4069
4.84	-9.5035	0.0161	-1.7109	-0.0034	0.0014	0.0050	40.6431	8.1941	8.9391	0.4934	0.4864	0.5953	-0.4069
4.85	-9.4999	0.0147	-1.7018	-0.0040	-0.0013	0.0059	40.6529	8.2853	8.9560	0.4934	0.4864	0.5953	-0.4069
4.86	-9.5025	0.0149	-1.6999	-0.0033	-0.0089	0.0077	40.7687	8.1440	8.6911	0.4935	0.4864	0.5953	-0.4069
4.87	-9.5057	0.0166	-1.7045	-0.0014	-0.0040	0.0098	40.6982	8.1081	8.7124	0.4935	0.4864	0.5953	-0.4069
4.88	-9.4984	0.0085	-1.6997	-0.0006	-0.0017	0.0069	40.8986	8.1069	8.5845	0.4935	0.4863	0.5952	-0.4069
4.89	-9.4983	0.0026	-1.6952	-0.0085	-0.0060	0.0085	40.9926	8.1440	8.8336	0.4936	0.4864	0.5953	-0.4069
4.9	-9.5022	-0.0085	-1.6999	-0.0025	-0.0004	0.0106	40.9660	8.1935	8.8587	0.4935	0.4863	0.5953	-0.4069
4.91	-9.5059	-0.0236	-1.7031	0.0060	-0.0064	0.0030	40.7508	8.0256	8.6777	0.4936	0.4864	0.5953	-0.4069
4.92	-9.4970	-0.0461	-1.6958	0.0016	0.0007	0.0056	40.7381	8.0220	8.7052	0.4935	0.4863	0.5952	-0.4069
4.93	-9.4985	-0.0689	-1.6873	0.0028	-0.0049	0.0037	40.7222	8.0562	8.6713	0.4936	0.4863	0.5952	-0.4069
4.94	-9.4982	-0.0913	-1.6784	0.0034	-0.0068	0.0046	40.6298	8.1269	8.7386	0.4936	0.4863	0.5952	-0.4070
4.95	-9.5075	-0.0968	-1.6827	-0.0026	-0.0011	0.0038	40.6772	8.1403	8.8138	0.4935	0.4863	0.5952	-0.4069
4.96	-9.5044	-0.0844	-1.6898	-0.0052	-0.0019	0.0057	40.5546	8.5215	8.5311	0.4936	0.4863	0.5953	-0.4070
4.97	-9.4933	-0.0834	-1.6754	-0.0041	0.0028	0.0086	40.6060	8.3442	8.6548	0.4936	0.4863	0.5952	-0.4069
4.98	-9.5002	-0.0693	-1.6848	0.0041	-0.0000	0.0044	40.5117	8.2433	8.6763	0.4936	0.4863	0.5953	-0.4070
4.99	-9.4868	-0.0653	-1.6696	0.0026	-0.0011	0.0049	40.4810	8.2912	8.7639	0.4935	0.4862	0.5952	-0.4069
5	-9.5007	-0.0560	-1.6673	0.0024	0.0027	0.0032	40.6022	8.2552	8.8830	0.4936	0.4863	0.5953	-0.4070
5.01	-9.5005	-0.0549	-1.6677	0.0037	0.0010	0.0050	40.5433	8.3011	8.8331	0.4935	0.4863	0.5953	-0.4070
5.02	-9.5027	-0.0570	-1.6636	0.0027	0.0040	0.0041	40.6574	8.1898	8.9317	0.4935	0.4863	0.5953	-0.4069
5.03	-9.5080	-0.0521	-1.6702	0.0040	-0.0021	0.0072	40.5643	8.1976	8.9806	0.4935	0.4863	0.5953	-0.4070
5.04	-9.5003	-0.0484	-1.6613	0.0023	-0.0066	0.0073	40.4604	8.1725	8.6128	0.4935	0.4863	0.5952	-0.4070
5.05	-9.4983	-0.0450	-1.6543	0.0039	0.0008	0.0045	40.5653	8.2322	8.6932	0.4935	0.4863	0.5953	-0.4070
5.06	-9.4972	-0.0350	-1.6537	0.0067	-0.0002	0.0085	40.6369	8.0108	8.9010	0.4935	0.4863	0.5952	-0.4070
5.07	-9.4908	-0.0277	-1.6489	0.0003	0.0004	0.0058	40.6919	7.9527	8.7506	0.4935	0.4863	0.5953	-0.4070
5.08	-9.5238	-0.0328	-1.6797	-0.0022	-0.0004	0.0038	41.0223	8.3581	8.7754	0.4935	0.4863	0.5952	-0.4070
5.09	-9.4793	-0.0509	-1.6625	0.0012	-0.0046	0.0063	40.8597	8.1110	8.5633	0.4935	0.4863	0.5952	-0.4070
5.1	-9.4758	-0.0408	-1.6434	0.0063	0.0002	0.0031	40.6929	8.1930	8.7290	0.4935	0.4863	0.5952	-0.4070
5.11	-9.5171	-0.0241	-1.6684	0.0016	-0.0056	0.0052	40.6910	8.2071	8.6272	0.4935	0.4863	0.5952	-0.4071
5.12	-9.4992	-0.0381	-1.6573	-0.0021	-0.0064	0.0033	40.7276	8.1572	8.6378	0.4936	0.4863	0.5952	-0.4071
5.13	-9.4969	-0.0595	-1.6640	0.0021	-0.0007	0.0052	40.5342	7.9966	8.7689	0.4935	0.4862	0.5952	-0.4070
5.14	-9.5070	-0.0780	-1.6697	0.0091	-0.0016	0.0059	40.7846	8.2425	9.0042	0.4936	0.4863	0.5952	-0.4071
5.15	-9.4899	-0.0828	-1.6722	0.0068	0.0025	0.0051	40.8137	8.4337	9.0065	0.4935	0.4863	0.5952	-0.4071
5.16	-9.5001	-0.0979	-1.6746	0.0071	-0.0037	0.0051	40.8126	8.4497	8.9089	0.4935	0.4863	0.5952	-0.4072
5.17	-9.5016	-0.0881	-1.6825	0.0051	0.0034	0.0075	40.7714	8.3992	8.9838	0.4935	0.4863	0.5951	-0.4071
5.18	-9.5031	-0.0705	-1.6850	0.0071	0.0009	0.0084	40.6782	8.1587	8.9681	0.4935	0.4863	0.5952	-0.4072
5.19	-9.4866	-0.0513	-1.6606	0.0064	-0.0015	0.0093	40.5003	8.0810	8.7546	0.4935	0.4863	0.5951	-0.4072
5.2	-9.4979	-0.0371	-1.6719	0.0138	-0.0006	0.0153	40.6640	8.2059	8.7114	0.4934	0.4864	0.5951	-0.4072
5.21	-9.5315	-0.0331	-1.7133	-0.0011	-0.0020	0.0129	40.5598	8.2058	8.7490	0.4935	0.4864	0.5951	-0.4072
5.22	-9.4691	-0.0446	-1.6793	0.0053	-0.0069	0.0119	40.5594	8.4488	8.6897	0.4935	0.4864	0.5950	-0.4072
5.23	-9.5000	-0.0423	-1.6921	0.0053	-0.0071	0.0103	40.5957	8.4401	8.8106	0.4935	0.4865	0.5950	-0.4072
5.24	-9.5200	-0.0486	-1.6985	0.0049	-0.0042	0.0135	40.8356	8.4759	8.7317	0.4935	0.4864	0.5949	-0.4072
5.25	-9.4987	-0.0502	-1.6877	0.0102	0.0006	0.0136	40.5763	8.2048	8.6161	0.4935	0.4865	0.5949	-0.4072
5.26	-9.4890	-0.0569	-1.6730	-0.0035	0.0011	0.0092	40.5933	8.0795	8.9903	0.4935	0.4865	0.5949	-0.4072
5.27	-9.5116	-0.0521	-1.6898	0.0007	-0.0028	0.0062	40.6854	8.1989	8.6974	0.4935	0.4865	0.5949	-0.4072
5.28	-9.5024	-0.0390	-1.6884	0.0050	-0.0031	0.0126	40.5192	8.2143	8.7839	0.4936	0.4865	0.5949	-0.4072
5.29	-9.4931	-0.0283	-1.6743	0.0082	-0.0008	0.0063	40.6329	8.1716	8.7327	0.4935	0.4865	0.5949	-0.4072
5.3	-9.5084	-0.0121	-1.6867	0.0129	0.0001	0.0110	40.7820	8.2889	8.7023	0.4935	0.4866	0.5949	-0.4073
5.31	-9.5046	0.0034	-1.6777	0.0114	0.0006	0.0057	40.6048	8.2102	8.9754	0.4934	0.4866	0.5948	-0.4072
5.32	-9.4969	0.0116	-1.6716	0.0054	-0.0048	0.0076	40.6819	8.0018	8.6475	0.4935	0.4866	0.5948	-0.4073
5.33	-9.5019	0.0141	-1.6847	0.0077	-0.0053	0.0115	40.7301	8.3586	8.6683	0.4935	0.4866	0.5948	-0.4073
5.34	-9.5013	0.0075	-1.6831	-0.0022	0.0011	0.0044	40.4850	8.3554	8.8395	0.4935	0.4866	0.5948	-0.4073
5.35	-9.4973	-0.0087	-1.6732	0.0011	-0.0007	0.0043	40.4797	8.4584	8.5979	0.4935	0.4866	0.5948	-0.4073
5.36	-9.5016	-0.0308	-1.6740	0.0034	0.0050	0.0106	40.3802	8.3116	8.7972	0.4935	0.4866	0.5948	-0.4073
5.37	-9.5053	-0.0491	-1.6702	0.0047	-0.0031	0.0081	40.4420	8.0813	8.7678	0.4935	0.4867	0.5948	-0.4073
5.38	-9.5053	-0.0653	-1.6747	-0.0006	0.0009	0.0062	40.5885	8.2147	8.7023	0.4935	0.4866	0.5947	-0.4073
5.39	-9.5005	-0.0821	-1.6794	-0.0006	0.0017	0.0091	40.5308	8.2706	8.8443	0.4935	0.4867	0.5948	-0.4073
5.4	-9.5013	-0.0818	-1.6866	0.0024	0.0011	0.0071	40.6335	8.1922	8.7882	0.4935	0.4867	0.5947	-0.4073
5.41	-9.4980	-0.0792	-1.6844	0.0098	-0.0045	0.0186	40.5879	8.1817	8.6336	0.4935	0.4867	0.5948	-0.4073
5.42	-9.4936	-0.0684	-1.6786	0.0103	-0.0088	0.0091	40.5699	8.3171	8.6554	0.4935	0.4867	0.5946	-0.4073
5.43	-9.4895	-0.0573	-1.6588	0.0133	-0.0034	0.0149	40.5384	8.2173	8.5998	0.4935	0.4868	0.5946	-0.4074
5.44	-9.5255	-0.0484	-1.6929	0.0036	-0.0014	0.0092	40.6646	8.1163	8.5759	0.4935	0.4868	0.5946	-0.4074
5.45	-9.4859	-0.0631	-1.6662	0.0082	-0.0026	0.0119	40.4875	8.3160	8.7439	0.4935	0.4868	0.5945	-0.4074
5.46	-9.4845	-0.0613	-1.6567	0.0080	-0.0040	0.0114	40.5015	8.1735	8.7203	0.4936	0.4869	0.5946	-0.4074
5.47	-9.5165	-0.0473	-1.6708	0.0068	0.0004	0.0039	40.6863	8.3468	8.7296	0.4935	0.4868	0.5945	-0.4074
5.48	-9.5071	-0.0470	-1.6631	0.0030	-0.0002	0.0115	40.6425	8.3922	8.7261	0.4935	0.4869	0.5945	-0.4075
5.49	-9.4868	-0.0349	-1.6578	0.0027	-0.0009	0.0034	40.5602	8.2673	8.7194	0.4935	0.4868	0.5944	-0.4074
5.5	-9.5017	-0.0389	-1.6727	-0.0002	-0.0005	0.0103	40.5836	8.1982	8.7449	0.4935	0.4869	0.5945	-0.4074
5.51	-9.5065	-0.0359	-1.6738	0.0056	-0.0010	0.0116	40.6493	8.0269	8.8642	0.4935	0.4869	0.5945	-0.4074
5.52	-9.4958	-0.0306	-1.6644	0.0011	-0.0003	0.0044	40.4375	8.3921	8.7181	0.4935	0.4869	0.5944	-0.4074
5.53	-9.5030	-0.0264	-1.6756	0.0044	0.0001	0.0098	40.6155	8.2291	8.7236	0.4935	0.4869	0.5945	-0.4074
5.54	-9.4982	-0.0309	-1.6704	0.0023	0.0002	0.0077	40.4945	8.1511	8.8673	0.4935	0.4869	0.5944	-0.4074
5.55	-9.4959	-0.0306	-1.6677	0.0010	0.0032	0.0063	40.5388	8.3265	8.7220	0.4935	0.4869	0.5945	-0.4074
5.56	-9.5033	-0.0381	-1.6759	0.0012	-0.0003	0.0092	40.5737	8.2761	8.7434	0.4935	0.4869	0.5944	-0.4074
5.57	-9.5077	-0.0475	-1.6808	-0.0048	-0.0041	0.0061	40.4743	8.2532	8.6849	0.4936	0.4869	0.5945	-0.4074
5.58	-9.5016	-0.0509	-1.6814	-0.0020	-0.0000	0.0062	40.6069	8.2294	8.9869	0.4935	0.4869	0.5944	-0.4074
5.59	-9.4968	-0.0510	-1.6774	0.0049	-0.0025	0.0068	40.4799	8.2852	8.8466	0.4936	0.4869	0.5944	-0.4074
5.6	-9.5002	-0.0499	-1.6849	0.0072	-0.0035	0.0079	40.4689	8.3815	8.7196	0.4935	0.4869	0.5944	-0.4074
5.61	-9.4961	-0.0492	-1.6766	0.0060	-0.0048	0.0071	40.8557	8.4362	8.7925	0.4935	0.4869	0.5944	-0.4075
5.62	-9.4950	-0.0506	-1.6777	0.0070	-0.0039	0.0053	40.8514	8.1843	8.5741	0.4935	0.4869	0.5944	-0.4075
5.63	-9.4948	-0.0466	-1.6658	0.0100	-0.0000	0.0071	40.7821	8.2115	8.7506	0.4935	0.4869	0.5943	-0.4075
5.64	-9.5019	-0.0460	-1.6641	0.0114	0.0003	0.0084	40.8129	8.2099	8.8361	0.4935	0.4870	0.5944	-0.4076
5.65	-9.5051	-0.0454	-1.6746	0.0029	-0.0002	0.0076	41.0932	8.4752	8.9346	0.4935	0.4870	0.5943	-0.4076
5.66	-9.5015	-0.0470	-1.6735	0.0046	-0.0042	0.0076	41.5360	8.4171	8.9025	0.4935	0.4870	0.5943	-0.4076
5.67	-9.4994	-0.0463	-1.6801	-0.0048	-0.0027	0.0036	41.0673	8.2803	8.8935	0.4935	0.4869	0.5943	-0.4075
5.68	-9.5038	-0.0396	-1.6805	-0.0070	0.0001	0.0117	40.7079	8.3402	8.6769	0.4936	0.4870	0.5943	-0.4075
5.69	-9.4988	-0.0473	-1.6778	0.0050	0.0015	0.0060	40.5116	8.0911	8.8295	0.4935	0.4870	0.5943	-0.4075
5.7	-9.4966	-0.0414	-1.6718	0.0036	0.0018	0.0028	40.6045	8.2594	8.8469	0.4935	0.4869	0.5943	-0.4075
5.71	-9.5012	-0.0394	-1.6756	0.0052	0.0062	0.0091	40.6211	8.2604	8.8841	0.4935	0.4870	0.5944	-0.4076
5.72	-9.5028	-0.0310	-1.6797	0.0051	0.0019	0.0072	40.4953	8.1771	8.6252	0.4935	0.4870	0.5943	-0.4075
5.73	-9.4955	-0.0263	-1.6782	0.0089	0.0084	0.0065	40.5796	8.3502	8.6844	0.4935	0.4871	0.5943	-0.4076
5.74	-9.5025	-0.0287	-1.6807	0.0051	0.0035	-0.0010	40.4060	8.4304	8.8739	0.4934	0.4870	0.5943	-0.4075
5.75	-9.5046	-0.0316	-1.6830	0.0027	0.0021	0.0047	40.6043	8.3185	8.8484	0.4934	0.4871	0.5943	-0.4076
5.76	-9.5002	-0.0427	-1.6856	0.0013	-0.0030	0.0033	40.5530	8.2420	8.8072	0.4934	0.4870	0.5943	-0.4076
5.77	-9.5028	-0.0571	-1.6910	-0.0060	-0.0017	0.0085	40.5827	8.2853	8.7500	0.4934	0.4870	0.5943	-0.4076
5.78	-9.5018	-0.0661	-1.6851	0.0011	-0.0040	0.0101	40.7212	8.2493	8.6769	0.4934	0.4870	0.5943	-0.4076
5.79	-9.5028	-0.0775	-1.6857	0.0043	-0.0094	0.0081	40.4488	8.2956	8.6809	0.4935	0.4870	0.5943	-0.4076
5.8	-9.5003	-0.0729	-1.6813	0.0001	-0.0027	0.0083	40.6773	8.1917	8.6318	0.4935	0.4870	0.5943	-0.4076
5.81	-9.4968	-0.0733	-1.6790	-0.0009	-0.0024	0.0041	40.7213	8.2005	8.5463	0.4934	0.4870	0.5942	-0.4076
5.82	-9.4966	-0.0704	-1.6745	-0.0008	-0.0040	0.0047	40.5655	8.1475	8.8610	0.4935	0.4870	0.5943	-0.4076
5.83	-9.4997	-0.0694	-1.6673	-0.0020	-0.0016	0.0046	40.6882	8.1319	8.7807	0.4935	0.4870	0.5943	-0.4076
5.84	-9.5017	-0.0670	-1.6624	-0.0015	-0.0007	0.0089	40.6380	8.2064	8.5689	0.4935	0.4870	0.5943	-0.4076
5.85	-9.5026	-0.0617	-1.6622	0.0022	-0.0010	0.0110	40.6108	8.1830	8.5965	0.4935	0.4870	0.5942	-0.4076
5.86	-9.4970	-0.0539	-1.6535	0.0093	-0.0028	0.0082	40.6097	8.1656	8.7216	0.4935	0.4870	0.5942	-0.4076
5.87	-9.5023	-0.0469	-1.6563	-0.0022	-0.0002	0.0116	40.4576	8.0641	8.7950	0.4935	0.4870	0.5942	-0.4076
5.88	-9.4991	-0.0393	-1.6537	0.0054	-0.0005	0.0045	40.4425	8.1756	8.6834	0.4935	0.4870	0.5942	-0.4076
5.89	-9.4946	-0.0189	-1.6441	-0.0002	-0.0072	0.0094	40.5662	8.2998	8.5521	0.4936	0.4870	0.5942	-0.4077
5.9	-9.5021	-0.0008	-1.6503	0.0049	0.0024	0.0090	40.5068	8.3470	8.6481	0.4935	0.4870	0.5942	-0.4076
5.91	-9.5006	0.0102	-1.6510	0.0025	-0.0006	0.0036	40.6150	8.1581	8.9061	0.4936	0.4871	0.5942	-0.4077
5.92	-9.4970	0.0065	-1.6500	0.0039	-0.0035	0.0049	40.5404	8.2815	8.6465	0.4935	0.4870	0.5941	-0.4076
5.93	-9.5015	-0.0022	-1.6613	0.0039	0.0030	0.0041	40.3167	8.2516	8.5740	0.4935	0.4870	0.5942	-0.4077
5.94	-9.5047	-0.0143	-1.6625	-0.0061	-0.0042	0.0048	40.6177	8.4545	8.7648	0.4935	0.4870	0.5942	-0.4077
5.95	-9.5012	-0.0192	-1.6696	0.0028	0.0014	0.0038	40.5449	8.3361	8.7395	0.4935	0.4870	0.5942	-0.4076
5.96	-9.5011	-0.0246	-1.6783	0.0050	-0.0001	0.0098	40.3556	8.3723	8.8841	0.4936	0.4870	0.5942	-0.4077
5.97	-9.5053	-0.0334	-1.6821	0.0013	-0.0043	0.0079	40.4771	8.2711	8.7765	0.4935	0.4870	0.5942	-0.4077
5.98	-9.5023	-0.0388	-1.6872	0.0073	-0.0040	0.0035	40.4771	8.1449	8.6029	0.4936	0.4870	0.5942	-0.4077
5.99	-9.4970	-0.0511	-1.6914	-0.0012	0.0012	0.0048	40.7205	8.2100	8.9028	0.4935	0.4870	0.5941	-0.4077
6	-9.4963	-0.0659	-1.6886	-0.0016	0.0006	0.0041	40.6736	8.0672	8.7025	0.4935	0.4870	0.5942	-0.4077
6.01	-9.5013	-0.0754	-1.6959	0.0005	0.0001	0.0087	40.7414	7.9792	8.7239	0.4935	0.4870	0.5942	-0.4077
6.02	-9.4941	-0.0772	-1.6979	0.0042	0.0010	0.0068	40.8046	8.1781	8.8109	0.4935	0.4870	0.5942	-0.4077
6.03	-9.5026	-0.0769	-1.7024	0.0098	-0.0021	0.0059	40.6636	8.1944	8.6382	0.4935	0.4870	0.5942	-0.4077
6.04	-9.5069	-0.0716	-1.6975	-0.0039	-0.0080	0.0041	40.6168	8.1844	8.7301	0.4935	0.4870	0.5941	-0.4077
6.05	-9.5026	-0.0660	-1.6896	-0.0004	-0.0011	0.0084	40.5913	8.1714	8.7742	0.4936	0.4870	0.5942	-0.4078
6.06	-9.5037	-0.0535	-1.6952	0.0007	-0.0036	0.0081	40.7111	8.2717	8.7745	0.4935	0.4869	0.5941	-0.4077
6.07	-9.5061	-0.0489	-1.6854	0.0039	-0.0073	0.0036	40.6629	8.2634	8.6380	0.4936	0.4870	0.5941	-0.4078
6.08	-9.5037	-0.0414	-1.6902	0.0017	-0.0076	0.0046	40.4944	8.2922	8.5887	0.4936	0.4869	0.5941	-0.4078
6.09	-9.4922	-0.0387	-1.6812	-0.0025	-0.0008	0.0013	40.5565	8.4065	8.7958	0.4936	0.4869	0.5941	-0.4078
6.1	-9.4912	-0.0393	-1.6773	-0.0002	0.0007	0.0027	40.5188	8.1194	8.6401	0.4936	0.4869	0.5941	-0.4078
6.11	-9.4945	-0.0398	-1.6764	-0.0026	-0.0018	0.0021	40.5492	8.3820	8.8482	0.4936	0.4869	0.5941	-0.4078
6.12	-9.5021	-0.0438	-1.6701	0.0023	-0.0039	0.0049	40.4904	8.3893	8.7581	0.4936	0.4869	0.5941	-0.4078
6.13	-9.5005	-0.0439	-1.6608	-0.0007	-0.0060	0.0040	40.3647	8.3312	8.5299	0.4936	0.4868	0.5941	-0.4078
6.14	-9.5030	-0.0439	-1.6630	0.0006	-0.0023	0.0048	40.3783	8.3383	8.7274	0.4937	0.4868	0.5942	-0.4079
6.15	-9.5014	-0.0465	-1.6571	-0.0021	0.0018	0.0039	40.7859	8.2491	8.9030	0.4936	0.4868	0.5941	-0.4079
6.16	-9.4980	-0.0489	-1.6527	-0.0055	-0.0036	0.0102	40.8978	8.2758	8.7744	0.4937	0.4868	0.5942	-0.4079
6.17	-9.4974	-0.0492	-1.6647	-0.0003	-0.0064	0.0209	40.7138	8.3075	8.7639	0.4937	0.4868	0.5941	-0.4078
6.18	-9.4996	-0.0492	-1.6665	0.0049	-0.0074	0.0150	40.5986	8.2841	8.8292	0.4938	0.4868	0.5941	-0.4078
6.19	-9.4952	-0.0463	-1.6636	0.0039	-0.0048	0.0136	40.4829	8.2452	8.5483	0.4938	0.4869	0.5940	-0.4078
6.2	-9.4970	-0.0417	-1.6657	-0.0016	-0.0022	0.0101	40.5907	8.2869	8.6562	0.4938	0.4868	0.5940	-0.4078
6.21	-9.5076	-0.0487	-1.6763	0.0013	-0.0068	0.0078	40.3154	8.1660	8.6323	0.4939	0.4869	0.5940	-0.4079
6.22	-9.4891	-0.0377	-1.6519	0.0022	-0.0065	0.0091	40.4851	8.1787	8.4290	0.4938	0.4868	0.5940	-0.4078
6.23	-9.5084	-0.0266	-1.6572	0.0085	-0.0070	0.0108	40.5249	8.2302	8.7460	0.4939	0.4869	0.5940	-0.4079
6.24	-9.5002	-0.0337	-1.6593	0.0084	-0.0054	0.0084	40.3263	8.3672	8.7275	0.4938	0.4868	0.5938	-0.4079
6.25	-9.4869	-0.0518	-1.6597	-0.0023	-0.0054	0.0083	40.6235	8.2314	8.7435	0.4939	0.4869	0.5939	-0.4079
6.26	-9.5008	-0.0660	-1.6644	-0.0011	-0.0016	0.0077	40.5777	8.1529	8.7399	0.4939	0.4868	0.5939	-0.4079
6.27	-9.5032	-0.0753	-1.6774	0.0053	0.0007	0.0037	40.4675	8.2756	8.7396	0.4939	0.4868	0.5939	-0.4079
6.28	-9.4931	-0.0792	-1.6812	0.0013	-0.0019	0.0113	40.3515	8.1681	8.7327	0.4939	0.4869	0.5939	-0.4079
6.29	-9.4993	-0.0719	-1.6853	0.0059	-0.0058	0.0166	40.5362	8.0737	8.7526	0.4939	0.4869	0.5938	-0.4079
6.3	-9.4994	-0.0681	-1.6875	0.0110	0.0011	0.0096	40.4834	8.1416	8.7208	0.4939	0.4869	0.5938	-0.4079
6.31	-9.4954	-0.0502	-1.6864	0.0034	-0.0038	0.0075	40.4439	8.3656	8.8288	0.4939	0.4869	0.5937	-0.4079
6.32	-9.4998	-0.0462	-1.6923	0.0072	-0.0024	0.0116	40.4494	8.1374	8.8172	0.4939	0.4870	0.5938	-0.4080
6.33	-9.5012	-0.0454	-1.6906	-0.0014	0.0008	0.0127	40.4956	8.2365	8.6972	0.4939	0.4870	0.5937	-0.4079
6.34	-9.5003	-0.0458	-1.6839	-0.0025	-0.0013	0.0070	40.5654	8.2795	8.8153	0.4940	0.4870	0.5937	-0.4079
6.35	-9.5060	-0.0459	-1.6753	0.0072	-0.0045	0.0155	40.4312	8.3345	8.9267	0.4939	0.4870	0.5937	-0.4079
6.36	-9.5037	-0.0409	-1.6797	0.0016	-0.0057	0.0050	40.4698	8.2593	8.6471	0.4940	0.4870	0.5937	-0.4079
6.37	-9.4989	-0.0417	-1.6721	0.0016	-0.0076	0.0116	40.6330	8.2614	8.6875	0.4940	0.4870	0.5937	-0.4080
6.38	-9.5028	-0.0395	-1.6716	-0.0022	-0.0099	0.0089	40.5329	8.2825	8.4710	0.4940	0.4869	0.5936	-0.4079
6.39	-9.5045	-0.0318	-1.6676	0.0017	-0.0022	0.0090	40.6532	8.3343	8.5769	0.4941	0.4870	0.5936	-0.4080
6.4	-9.5028	-0.0280	-1.6677	0.0084	-0.0066	0.0087	40.6996	8.0021	8.7092	0.4941	0.4869	0.5936	-0.4080
6.41	-9.5036	-0.0237	-1.6742	0.0051	-0.0038	0.0040	40.5331	8.2771	8.5606	0.4941	0.4870	0.5936	-0.4081
6.42	-9.5022	-0.0182	-1.6672	0.0104	-0.0026	0.0112	40.4767	8.1896	8.5671	0.4940	0.4869	0.5935	-0.4080
6.43	-9.5024	-0.0087	-1.6711	0.0078	-0.0012	0.0111	40.5298	8.1609	8.6732	0.4941	0.4870	0.5935	-0.4081
6.44	-9.5021	-0.0140	-1.6749	-0.0026	-0.0078	0.0136	40.4323	8.0691	8.8347	0.4941	0.4870	0.5935	-0.4081
6.45	-9.5013	-0.0191	-1.6747	0.0066	-0.0091	0.0063	40.7966	8.1789	8.7462	0.4941	0.4870	0.5934	-0.4081
6.46	-9.4987	-0.0233	-1.6809	0.0058	-0.0051	0.0085	40.6849	8.3044	8.8436	0.4942	0.4870	0.5934	-0.4081
6.47	-9.4928	-0.0267	-1.6851	-0.0004	-0.0010	0.0049	40.5714	8.0786	8.8031	0.4941	0.4870	0.5934	-0.4081
6.48	-9.4966	-0.0296	-1.6871	0.0039	-0.0012	0.0063	40.4910	8.0223	8.7004	0.4942	0.4870	0.5934	-0.4081
6.49	-9.5003	-0.0273	-1.6893	0.0057	-0.0024	0.0106	40.3476	8.3093	8.8547	0.4941	0.4870	0.5933	-0.4081
6.5	-9.5038	-0.0280	-1.6867	0.0022	0.0000	-0.0005	40.4078	8.2204	8.6750	0.4941	0.4870	0.5934	-0.4082
6.51	-9.5046	-0.0268	-1.6873	-0.0026	0.0010	0.0100	40.4748	8.1967	8.6768	0.4941	0.4870	0.5934	-0.4081
6.52	-9.5011	-0.0315	-1.6843	0.0016	0.0009	0.0051	40.4485	8.3689	8.8246	0.4941	0.4870	0.5934	-0.4081
6.53	-9.4964	-0.0363	-1.6826	0.0031	-0.0011	0.0046	40.4499	8.3344	8.9195	0.4941	0.4870	0.5934	-0.4082
6.54	-9.5030	-0.0447	-1.6891	0.0012	-0.0079	0.0060	40.4710	8.1155	8.7720	0.4941	0.4870	0.5934	-0.4082
6.55	-9.4995	-0.0536	-1.6854	0.0054	-0.0012	0.0056	40.6169	8.0963	8.7383	0.4941	0.4870	0.5934	-0.4082
6.56	-9.5040	-0.0585	-1.6923	0.0045	-0.0023	0.0036	40.6174	8.1129	8.6806	0.4941	0.4869	0.5933	-0.4082
6.57	-9.5023	-0.0612	-1.6813	0.0051	-0.0060	0.0099	40.7166	8.0912	8.6196	0.4942	0.4870	0.5933	-0.4082
6.58	-9.5053	-0.0605	-1.6818	0.0039	-0.0094	0.0114	40.5509	7.9983	8.5860	0.4942	0.4870	0.5933	-0.4082
6.59	-9.5011	-0.0582	-1.6777	0.0077	-0.0046	0.0032	40.5434	8.2899	8.7562	0.4942	0.4870	0.5933	-0.4083
6.6	-9.4950	-0.0548	-1.6729	0.0044	-0.0085	0.0056	40.4539	8.2396	8.6422	0.4942	0.4870	0.5932	-0.4083
6.61	-9.5015	-0.0509	-1.6786	0.0013	-0.0046	0.0093	40.4584	8.1982	8.7641	0.4942	0.4870	0.5932	-0.4083
6.62	-9.5029	-0.0485	-1.6772	0.0039	-0.0012	0.0080	40.6366	8.1091	8.7328	0.4942	0.4870	0.5932	-0.4083
6.63	-9.5018	-0.0450	-1.6753	0.0068	-0.0015	0.0066	40.5352	8.1796	8.7491	0.4941	0.4869	0.5931	-0.4083
6.64	-9.4985	-0.0492	-1.6694	0.0110	-0.0035	0.0085	40.4487	8.2605	8.7257	0.4942	0.4870	0.5932	-0.4084
6.65	-9.4993	-0.0488	-1.6701	0.0122	0.0008	0.0035	40.8600	8.2017	8.9240	0.4941	0.4870	0.5931	-0.4084
6.66	-9.4999	-0.0469	-1.6671	0.0030	-0.0032	0.0051	40.7890	8.5499	9.1040	0.4942	0.4871	0.5932	-0.4085
6.67	-9.4919	-0.0479	-1.6698	0.0031	0.0015	0.0042	40.7069	8.4837	9.0470	0.4941	0.4870	0.5931	-0.4084
6.68	-9.4970	-0.0466	-1.6658	0.0030	-0.0017	0.0053	40.6267	8.4236	8.7755	0.4941	0.4870	0.5931	-0.4085
6.69	-9.5063	-0.0488	-1.6704	0.0011	0.0022	0.0044	40.3382	8.2574	8.7050	0.4941	0.4870	0.5931	-0.4085
6.7	-9.5050	-0.0503	-1.6688	-0.0016	-0.0049	0.0046	40.4333	8.3654	8.8932	0.4941	0.4870	0.5931	-0.4085
6.71	-9.5006	-0.0512	-1.6646	0.0018	-0.0009	0.0047	40.5754	8.3565	8.7121	0.4942	0.4870	0.5932	-0.4085
6.72	-9.5012	-0.0488	-1.6676	0.0084	-0.0042	0.0042	40.3560	8.1125	8.7289	0.4941	0.4870	0.5931	-0.4085
6.73	-9.4995	-0.0514	-1.6589	0.0066	-0.0033	0.0103	40.6985	8.1191	8.7470	0.4942	0.4870	0.5931	-0.4086
6.74	-9.4940	-0.0579	-1.6609	0.0076	-0.0062	0.0088	40.9814	8.1270	8.5872	0.4941	0.4870	0.5930	-0.4085
6.75	-9.4969	-0.0602	-1.6694	0.0072	-0.0042	0.0072	40.7140	8.1124	8.6043	0.4941	0.4870	0.5930	-0.4086
6.76	-9.4997	-0.0589	-1.6692	0.0094	0.0010	0.0046	40.6815	8.1454	8.6383	0.4941	0.4870	0.5930	-0.4086
6.77	-9.4950	-0.0619	-1.6654	0.0088	-0.0002	0.0079	40.7643	8.2995	8.7313	0.4941	0.4870	0.5930	-0.4086
6.78	-9.4949	-0.0562	-1.6704	0.0038	0.0002	0.0075	40.7850	8.2750	8.5538	0.4941	0.4871	0.5930	-0.4087
6.79	-9.4983	-0.0494	-1.6742	0.0076	-0.0019	0.0043	40.7794	8.1801	8.6675	0.4941	0.4871	0.5930	-0.4087
6.8	-9.5006	-0.0453	-1.6686	0.0063	-0.0001	0.0041	40.7364	8.2247	8.8849	0.4941	0.4871	0.5930	-0.4087
6.81	-9.5016	-0.0399	-1.6725	0.0112	-0.0011	0.0066	40.5897	8.1044	8.7821	0.4940	0.4870	0.5929	-0.4087
6.82	-9.5077	-0.0384	-1.6749	0.0032	-0.0013	0.0106	40.5367	8.2191	8.7498	0.4941	0.4871	0.5930	-0.4088
6.83	-9.5072	-0.0444	-1.6726	0.0045	0.0054	0.0035	40.5044	8.4781	8.9836	0.4940	0.4871	0.5929	-0.4087
6.84	-9.4911	-0.0428	-1.6682	0.0076	-0.0001	0.0049	40.6013	8.3104	9.0149	0.4940	0.4871	0.5930	-0.4088
6.85	-9.5012	-0.0473	-1.6801	0.0024	0.0001	0.0044	40.6150	8.1748	8.6385	0.4940	0.4871	0.5929	-0.4088
6.86	-9.5018	-0.0446	-1.6817	0.0019	0.0048	0.0048	40.5160	8.3233	8.7025	0.4940	0.4871	0.5930	-0.4088
6.87	-9.4946	-0.0388	-1.6751	-0.0023	-0.0012	0.0055	40.7160	8.2409	8.6735	0.4940	0.4871	0.5930	-0.4088
6.88	-9.4993	-0.0343	-1.6721	0.0020	-0.0014	0.0056	40.6230	8.3906	8.7019	0.4939	0.4871	0.5929	-0.4088
6.89	-9.5037	-0.0305	-1.6812	0.0046	-0.0000	0.0042	40.4198	8.3232	8.5540	0.4940	0.4871	0.5930	-0.4088
6.9	-9.5012	-0.0282	-1.6805	0.0078	-0.0012	0.0070	40.4836	8.3040	8.7916	0.4939	0.4871	0.5929	-0.4088
6.91	-9.4968	-0.0264	-1.6763	0.0036	-0.0049	0.0101	40.3989	8.3639	8.6722	0.4940	0.4872	0.5930	-0.4089
6.92	-9.4969	-0.0300	-1.6841	0.0004	-0.0059	0.0047	40.7409	7.9776	8.7314	0.4940	0.4871	0.5929	-0.4088
6.93	-9.5023	-0.0331	-1.6834	0.0019	-0.0047	0.0061	40.7521	8.0863	8.4950	0.4940	0.4871	0.5929	-0.4089
6.94	-9.4991	-0.0364	-1.6879	-0.0025	-0.0064	0.0074	40.7183	8.1191	8.6887	0.4940	0.4871	0.5929	-0.4089
6.95	-9.4999	-0.0352	-1.6857	0.0001	-0.0002	0.0088	40.8118	8.1779	8.7680	0.4940	0.4870	0.5929	-0.4089
6.96	-9.5037	-0.0354	-1.6919	0.0052	-0.0005	0.0059	40.6673	8.3181	8.4333	0.4941	0.4871	0.5929	-0.4089
6.97	-9.4971	-0.0344	-1.6945	0.0044	0.0015	0.0130	40.5928	8.3751	8.9895	0.4940	0.4871	0.5929	-0.4089
6.98	-9.4981	-0.0377	-1.6903	0.0006	-0.0011	0.0089	40.6325	8.3359	8.8038	0.4941	0.4871	0.5929	-0.4089
6.99	-9.5058	-0.0376	-1.6923	-0.0043	-0.0006	0.0044	40.5166	8.0763	8.6799	0.4940	0.4871	0.5928	-0.4088
7	-9.5019	-0.0364	-1.6916	-0.0063	-0.0037	0.0056	40.6554	8.1603	8.7871	0.4941	0.4871	0.5929	-0.4089
7.01	-9.4886	-0.0399	-1.6843	0.0004	-0.0006	0.0101	40.5382	8.3458	8.7885	0.4941	0.4871	0.5929	-0.4088
7.02	-9.4987	-0.0372	-1.6899	-0.0033	-0.0010	0.0087	40.5937	8.4534	8.6688	0.4941	0.4870	0.5929	-0.4088
7.03	-9.5032	-0.0357	-1.6909	-0.0076	0.0008	0.0056	40.6298	8.2662	8.7987	0.4941	0.4870	0.5929	-0.4088
7.04	-9.4961	-0.0345	-1.6832	-0.0058	0.0011	0.0071	40.4667	8.2847	8.8481	0.4941	0.4870	0.5929	-0.4088
7.05	-9.5022	-0.0408	-1.6810	-0.0007	0.0001	0.0080	40.2587	8.2555	8.7258	0.4942	0.4870	0.5929	-0.4088
7.06	-9.5098	-0.0452	-1.6810	-0.0025	0.0000	0.0059	40.4498	8.3723	8.7952	0.4941	0.4870	0.5929	-0.4087
7.07	-9.4999	-0.0520	-1.6724	-0.0078	0.0015	0.0062	40.5518	8.2461	8.7395	0.4942	0.4870	0.5930	-0.4088
7.08	-9.4916	-0.0572	-1.6665	0.0008	-0.0044	0.0051	40.5257	8.1859	8.8344	0.4942	0.4870	0.5929	-0.4087
7.09	-9.4959	-0.0561	-1.6590	-0.0030	-0.0041	0.0093	40.5238	8.4631	8.8335	0.4942	0.4870	0.5930	-0.4088
7.1	-9.4980	-0.0541	-1.6547	0.0044	-0.0088	0.0034	40.6177	8.2833	8.4482	0.4942	0.4869	0.5929	-0.4088
7.11	-9.4986	-0.0515	-1.6560	-0.0034	-0.0063	0.0068	40.9750	8.0292	8.5830	0.4942	0.4869	0.5929	-0.4088
7.12	-9.5009	-0.0528	-1.6696	-0.0081	-0.0040	0.0092	40.8352	8.1087	8.7954	0.4943	0.4869	0.5929	-0.4088
7.13	-9.5015	-0.0475	-1.6827	0.0028	0.0011	0.0056	40.6654	8.1128	8.7660	0.4942	0.4868	0.5929	-0.4087
7.14	-9.5063	-0.0490	-1.6812	-0.0028	-0.0030	0.0018	40.7110	8.0494	8.7948	0.4943	0.4869	0.5930	-0.4088
7.15	-9.4951	-0.0528	-1.6763	0.0051	-0.0045	0.0059	40.9386	8.3950	9.0513	0.4943	0.4868	0.5929	-0.4088
7.16	-9.4979	-0.0571	-1.6719	0.0058	-0.0052	0.0079	40.8722	8.1141	8.9876	0.4943	0.4869	0.5929	-0.4089
7.17	-9.5042	-0.0563	-1.6677	0.0055	-0.0022	0.0075	40.7554	8.1678	8.8558	0.4943	0.4868	0.5928	-0.4088
7.18	-9.4984	-0.0554	-1.6515	0.0052	-0.0026	0.0082	40.6340	8.4068	8.9212	0.4943	0.4869	0.5929	-0.4089
7.19	-9.5009	-0.0596	-1.6597	0.0041	-0.0041	0.0068	40.4963	8.1105	8.9292	0.4943	0.4869	0.5928	-0.4089
7.2	-9.5035	-0.0611	-1.6629	0.0051	-0.0106	0.0086	40.5489	8.1437	8.8734	0.4943	0.4868	0.5928	-0.4089
7.21	-9.4943	-0.0602	-1.6666	0.0033	-0.0076	0.0103	40.4615	8.2535	8.9272	0.4944	0.4869	0.5928	-0.4090
7.22	-9.4966	-0.0565	-1.6762	0.0012	0.0004	0.0055	40.4168	8.1474	8.8395	0.4943	0.4868	0.5928	-0.4089
7.23	-9.5042	-0.0549	-1.6873	0.0051	-0.0085	0.0093	40.3934	8.3431	8.8041	0.4944	0.4869	0.5928	-0.4090
7.24	-9.4985	-0.0493	-1.6844	0.0007	0.0018	0.0101	40.6481	8.3248	8.7929	0.4943	0.4868	0.5927	-0.4089
7.25	-9.4984	-0.0460	-1.6816	0.0082	0.0001	0.0082	40.6034	8.3321	8.7404	0.4944	0.4869	0.5927	-0.4090
7.26	-9.5049	-0.0452	-1.6864	0.0051	-0.0017	0.0042	40.4770	8.3314	8.7908	0.4943	0.4869	0.5927	-0.4090
7.27	-9.4970	-0.0452	-1.6764	0.0010	-0.0082	0.0097	40.4502	8.3234	8.6588	0.4944	0.4869	0.5927	-0.4090
7.28	-9.4949	-0.0459	-1.6706	0.0047	-0.0056	0.0103	40.4619	8.2564	8.9495	0.4944	0.4869	0.5927	-0.4090
7.29	-9.4986	-0.0449	-1.6738	0.0070	-0.0085	0.0058	40.5675	8.3263	8.8477	0.4944	0.4869	0.5926	-0.4090
7.3	-9.5002	-0.0422	-1.6697	0.0097	-0.0052	0.0086	40.4991	8.1727	8.7625	0.4944	0.4869	0.5926	-0.4091
7.31	-9.5018	-0.0426	-1.6690	0.0010	-0.0071	0.0073	40.7180	8.1451	8.6069	0.4944	0.4868	0.5925	-0.4091
7.32	-9.4997	-0.0364	-1.6687	-0.0007	-0.0019	0.0094	40.6855	8.2141	8.7866	0.4944	0.4869	0.5926	-0.4091
7.33	-9.5018	-0.0357	-1.6734	0.0052	-0.0024	0.0078	40.5948	8.0620	8.7793	0.4944	0.4869	0.5926	-0.4091
7.34	-9.5028	-0.0333	-1.6749	0.0119	-0.0079	0.0029	40.6402	8.2501	8.7007	0.4944	0.4869	0.5925	-0.4092
7.35	-9.4997	-0.0331	-1.6707	0.0066	-0.0010	0.0094	40.6001	8.1329	8.7377	0.4944	0.4869	0.5925	-0.4092
7.36	-9.5024	-0.0276	-1.6779	0.0043	-0.0033	0.0153	40.7640	8.2585	8.7183	0.4944	0.4869	0.5925	-0.4092
7.37	-9.5061	-0.0258	-1.6760	0.0005	-0.0022	0.0069	40.5813	8.4547	8.5253	0.4944	0.4869	0.5925	-0.4092
7.38	-9.4989	-0.0256	-1.6794	0.0127	-0.0036	0.0159	40.5193	8.1205	8.6392	0.4944	0.4869	0.5924	-0.4092
7.39	-9.5007	-0.0279	-1.6797	0.0054	-0.0030	0.0139	40.6473	8.1823	8.7230	0.4945	0.4870	0.5924	-0.4092
7.4	-9.4994	-0.0277	-1.6807	-0.0109	-0.0024	0.0073	40.4761	8.3103	8.7638	0.4945	0.4869	0.5924	-0.4092
7.41	-9.4984	-0.0285	-1.6879	-0.0021	-0.0074	0.0087	40.6568	8.2935	8.8181	0.4946	0.4870	0.5924	-0.4092
7.42	-9.4945	-0.0301	-1.6861	-0.0004	-0.0024	0.0071	40.4237	8.1347	8.8242	0.4945	0.4869	0.5924	-0.4091
7.43	-9.4971	-0.0340	-1.6895	-0.0015	-0.0036	0.0044	40.6052	8.1828	8.7647	0.4945	0.4869	0.5924	-0.4092
7.44	-9.5078	-0.0329	-1.6889	-0.0002	-0.0079	0.0119	40.5778	8.3211	8.7714	0.4946	0.4869	0.5924	-0.4092
7.45	-9.5031	-0.0301	-1.6809	-0.0024	-0.0020	0.0078	40.5153	8.3262	9.1091	0.4946	0.4869	0.5923	-0.4091
7.46	-9.5025	-0.0328	-1.6806	0.0021	0.0025	0.0072	40.4489	8.3383	8.9550	0.4946	0.4869	0.5924	-0.4092
7.47	-9.4992	-0.0353	-1.6811	0.0053	-0.0056	0.0056	40.6052	8.3004	8.8408	0.4946	0.4869	0.5923	-0.4092
7.48	-9.4991	-0.0364	-1.6789	0.0069	-0.0046	0.0055	40.8061	8.1973	8.5872	0.4946	0.4869	0.5924	-0.4092
7.49	-9.4999	-0.0400	-1.6849	0.0028	-0.0025	0.0072	40.7654	8.0553	8.8495	0.4946	0.4868	0.5923	-0.4092
7.5	-9.5081	-0.0461	-1.6868	0.0027	-0.0005	0.0062	40.6933	8.2386	8.7831	0.4946	0.4869	0.5923	-0.4092
7.51	-9.4958	-0.0474	-1.6873	-0.0037	-0.0050	0.0094	40.8554	8.0300	8.7153	0.4946	0.4869	0.5923	-0.4092
7.52	-9.4901	-0.0484	-1.6806	-0.0015	-0.0046	0.0046	40.8641	8.1145	8.7407	0.4946	0.4868	0.5923	-0.4092
7.53	-9.4987	-0.0490	-1.6746	0.0057	-0.0009	0.0058	40.8672	8.3863	8.7217	0.4946	0.4869	0.5923	-0.4093
7.54	-9.5038	-0.0486	-1.6749	0.0123	-0.0052	0.0074	40.6042	8.1845	8.7219	0.4946	0.4869	0.5923	-0.4093
7.55	-9.5034	-0.0484	-1.6780	0.0041	-0.0032	0.0043	40.5026	8.3376	8.7337	0.4946	0.4869	0.5923	-0.4093
7.56	-9.5065	-0.0478	-1.6752	-0.0006	-0.0005	0.0088	40.6385	8.2647	8.6261	0.4946	0.4868	0.5922	-0.4093
7.57	-9.5079	-0.0485	-1.6734	0.0087	-0.0060	0.0038	40.6074	8.1189	8.7560	0.4946	0.4869	0.5923	-0.4094
7.58	-9.4949	-0.0544	-1.6685	-0.0040	-0.0041	0.0046	40.6467	8.2464	8.6729	0.4946	0.4868	0.5922	-0.4094
7.59	-9.4903	-0.0536	-1.6663	-0.0026	0.0021	0.0055	40.5480	8.1795	8.6483	0.4946	0.4868	0.5923	-0.4094
7.6	-9.4891	-0.0556	-1.6660	0.0072	0.0012	0.0050	40.5290	8.1573	8.9754	0.4946	0.4868	0.5922	-0.4094
7.61	-9.4980	-0.0532	-1.6739	0.0006	-0.0004	0.0032	40.7578	8.3941	8.9199	0.4946	0.4868	0.5923	-0.4094
7.62	-9.4988	-0.0534	-1.6662	0.0001	0.0002	0.0086	40.6188	8.2626	8.7704	0.4946	0.4868	0.5923	-0.4094
7.63	-9.5040	-0.0506	-1.6662	0.0050	-0.0036	0.0088	40.6302	8.2195	8.8357	0.4946	0.4868	0.5922	-0.4094
7.64	-9.5032	-0.0493	-1.6651	0.0013	-0.0013	0.0086	40.5030	8.4746	8.6851	0.4946	0.4869	0.5923	-0.4094
7.65	-9.5030	-0.0556	-1.6682	0.0027	-0.0013	0.0087	40.7413	8.4694	9.0400	0.4946	0.4868	0.5922	-0.4094
7.66	-9.5022	-0.0575	-1.6647	0.0077	-0.0067	0.0090	40.9627	8.3636	9.0941	0.4947	0.4869	0.5923	-0.4094
7.67	-9.4973	-0.0579	-1.6701	0.0074	-0.0030	0.0076	40.8605	8.1844	8.9730	0.4946	0.4868	0.5921	-0.4094
7.68	-9.5011	-0.0565	-1.6640	-0.0009	-0.0057	0.0059	40.7101	8.0725	8.8069	0.4946	0.4868	0.5922	-0.4095
7.69	-9.4957	-0.0498	-1.6628	0.0041	-0.0037	0.0043	40.6684	8.1229	8.7294	0.4946	0.4868	0.5922	-0.4095
7.7	-9.4973	-0.0485	-1.6680	0.0062	-0.0035	0.0067	40.5615	8.0275	8.6018	0.4946	0.4868	0.5921	-0.4095
7.71	-9.5026	-0.0434	-1.6703	-0.0005	0.0001	0.0096	40.8326	8.2944	8.6357	0.4947	0.4869	0.5922	-0.4095
7.72	-9.4933	-0.0453	-1.6722	0.0038	-0.0001	0.0056	40.5955	8.1797	8.9805	0.4946	0.4868	0.5921	-0.4095
7.73	-9.4995	-0.0468	-1.6764	0.0025	0.0007	0.0036	40.5270	8.1398	8.9363	0.4946	0.4869	0.5922	-0.4095
7.74	-9.5051	-0.0449	-1.6840	0.0037	-0.0016	0.0043	40.6023	8.1578	8.5762	0.4946	0.4868	0.5921	-0.4095
7.75	-9.5009	-0.0440	-1.6774	0.0064	-0.0063	0.0043	40.7112	8.1516	8.6534	0.4946	0.4868	0.5921	-0.4096
7.76	-9.4956	-0.0435	-1.6678	0.0055	-0.0056	0.0042	40.5538	8.3173	8.8621	0.4946	0.4868	0.5921	-0.4096
7.77	-9.5003	-0.0408	-1.6762	-0.0062	0.0019	0.0039	40.4984	8.2877	8.9384	0.4946	0.4868	0.5921	-0.4096
7.78	-9.5006	-0.0412	-1.6761	-0.0067	0.0015	0.0037	40.3850	8.5191	8.9665	0.4946	0.4868	0.5922	-0.4096
7.79	-9.5002	-0.0448	-1.6771	0.0043	0.0002	0.0041	40.3867	8.4233	8.7940	0.4946	0.4868	0.5922	-0.4096
7.8	-9.5013	-0.0450	-1.6848	-0.0028	-0.0010	0.0039	40.5523	8.4147	8.7791	0.4946	0.4868	0.5922	-0.4096
7.81	-9.5009	-0.0467	-1.6837	-0.0018	0.0032	0.0074	40.4758	8.2393	8.7753	0.4946	0.4867	0.5922	-0.4095
7.82	-9.4972	-0.0452	-1.6842	0.0024	0.0032	0.0082	40.6129	8.1253	8.8037	0.4946	0.4868	0.5922	-0.4096
7.83	-9.5008	-0.0408	-1.6848	-0.0085	0.0029	0.0040	40.5677	8.3298	8.9065	0.4946	0.4867	0.5922	-0.4095
7.84	-9.5017	-0.0368	-1.6852	0.0017	0.0035	0.0051	40.3348	8.5100	8.7805	0.4946	0.4867	0.5923	-0.4095
7.85	-9.5027	-0.0322	-1.6842	0.0018	-0.0066	0.0039	40.4325	8.2886	8.7589	0.4946	0.4867	0.5922	-0.4095
7.86	-9.4992	-0.0290	-1.6813	0.0003	0.0010	0.0113	40.7412	8.1040	8.9580	0.4946	0.4867	0.5922	-0.4095
7.87	-9.5004	-0.0308	-1.6774	0.0002	0.0001	0.0049	40.5734	8.0305	8.8950	0.4946	0.4867	0.5923	-0.4095
7.88	-9.4981	-0.0363	-1.6815	0.0065	-0.0052	0.0039	40.6483	8.2315	8.5713	0.4946	0.4867	0.5922	-0.4095
7.89	-9.4972	-0.0355	-1.6784	-0.0018	-0.0020	0.0035	40.7998	8.3427	8.6400	0.4946	0.4867	0.5923	-0.4096
7.9	-9.4982	-0.0406	-1.6766	-0.0010	-0.0025	0.0052	40.6613	8.1648	8.7211	0.4946	0.4867	0.5923	-0.4096
7.91	-9.5057	-0.0402	-1.6798	0.0121	-0.0049	0.0071	40.5486	8.1471	8.6787	0.4946	0.4867	0.5923	-0.4096
7.92	-9.5034	-0.0423	-1.6820	0.0011	-0.0046	0.0070	40.6880	8.1594	8.8066	0.4946	0.4867	0.5922	-0.4096
7.93	-9.4990	-0.0453	-1.6860	-0.0008	0.0019	0.0030	40.6531	8.1430	8.6578	0.4946	0.4867	0.5922	-0.4096
7.94	-9.5058	-0.0460	-1.6877	0.0012	-0.0067	0.0061	40.5174	8.1849	8.7677	0.4946	0.4867	0.5922	-0.4096
7.95	-9.5036	-0.0483	-1.6772	0.0009	-0.0061	0.0040	40.4981	8.3278	8.7848	0.4946	0.4866	0.5922	-0.4096
7.96	-9.4952	-0.0454	-1.6780	0.0051	0.0047	0.0040	40.5093	8.3070	8.7833	0.4946	0.4867	0.5923	-0.4097
7.97	-9.5062	-0.0413	-1.6806	-0.0007	0.0046	0.0044	40.2523	8.1952	8.9062	0.4946	0.4866	0.5922	-0.4096
7.98	-9.5051	-0.0419	-1.6855	-0.0065	-0.0005	0.0038	40.5069	8.5030	8.7975	0.4946	0.4866	0.5923	-0.4097
7.99	-9.4970	-0.0350	-1.6808	0.0005	-0.0001	0.0043	40.4770	8.3129	8.6839	0.4945	0.4866	0.5922	-0.4096
8	-9.4974	-0.0332	-1.6837	-0.0065	0.0030	0.0044	40.7707	8.2129	8.7043	0.4946	0.4866	0.5923	-0.4096
8.01	-9.4943	-0.0322	-1.6794	-0.0055	0.0009	0.0046	40.7651	8.2637	8.8745	0.4946	0.4866	0.5923	-0.4096
8.02	-9.5049	-0.0341	-1.6853	-0.0010	0.0011	0.0035	40.2872	8.4730	8.8101	0.4946	0.4865	0.5923	-0.4096
8.03	-9.5052	-0.0400	-1.6855	-0.0022	-0.0018	0.0046	40.4677	8.4070	8.5568	0.4946	0.4865	0.5924	-0.4096
8.04	-9.5024	-0.0451	-1.6807	0.0043	-0.0032	0.0038	40.5166	8.1256	8.6600	0.4946	0.4865	0.5924	-0.4096
8.05	-9.5086	-0.0444	-1.6862	0.0026	0.0010	0.0043	40.7097	8.2336	8.9290	0.4946	0.4865	0.5924	-0.4096
8.06	-9.5000	-0.0451	-1.6776	-0.0080	-0.0063	0.0043	40.7780	8.2275	8.6772	0.4946	0.4864	0.5923	-0.4096
8.07	-9.4949	-0.0408	-1.6647	0.0036	-0.0039	0.0082	40.6140	8.1719	8.7285	0.4946	0.4865	0.5924	-0.4096
8.08	-9.4957	-0.0426	-1.6636	-0.0016	-0.0088	0.0091	40.7511	8.2213	8.6321	0.4946	0.4865	0.5923	-0.4096
8.09	-9.4937	-0.0406	-1.6640	-0.0042	-0.0076	0.0071	40.6866	8.1163	8.6763	0.4947	0.4864	0.5924	-0.4096
8.1	-9.5029	-0.0471	-1.6650	-0.0018	-0.0027	0.0041	40.5818	8.2544	8.7146	0.4947	0.4864	0.5923	-0.4096
8.11	-9.5054	-0.0498	-1.6758	-0.0022	-0.0007	0.0053	40.7913	8.2409	8.5698	0.4947	0.4864	0.5924	-0.4096
8.12	-9.4999	-0.0602	-1.6818	0.0030	-0.0019	0.0052	40.5566	8.1938	8.6702	0.4947	0.4864	0.5924	-0.4097
8.13	-9.5036	-0.0598	-1.6845	0.0067	-0.0022	0.0036	40.6780	8.1137	8.7942	0.4946	0.4864	0.5923	-0.4096
8.14	-9.5011	-0.0622	-1.6798	0.0013	-0.0091	0.0071	40.5599	8.2894	8.7814	0.4947	0.4864	0.5924	-0.4097
8.15	-9.4947	-0.0621	-1.6758	-0.0051	-0.0098	0.0046	40.8963	8.3010	8.9466	0.4947	0.4863	0.5923	-0.4097
8.16	-9.5064	-0.0532	-1.6731	-0.0022	-0.0065	0.0093	41.0466	8.1693	8.9738	0.4948	0.4864	0.5924	-0.4097
8.17	-9.5047	-0.0523	-1.6726	0.0025	-0.0060	0.0105	40.7731	8.1219	8.9772	0.4947	0.4863	0.5923	-0.4097
8.18	-9.5052	-0.0483	-1.6721	0.0051	-0.0063	0.0040	40.5830	8.2449	8.8209	0.4948	0.4863	0.5923	-0.4098
8.19	-9.5025	-0.0471	-1.6774	0.0105	-0.0072	0.0055	40.4477	8.4141	8.5899	0.4948	0.4863	0.5923	-0.4098
8.2	-9.5057	-0.0459	-1.6848	0.0122	-0.0044	0.0068	40.5551	8.1081	8.9689	0.4947	0.4863	0.5922	-0.4098
8.21	-9.4986	-0.0396	-1.6857	0.0034	-0.0068	0.0085	40.6760	8.1774	8.6240	0.4948	0.4864	0.5923	-0.4099
8.22	-9.4989	-0.0418	-1.6863	0.0008	-0.0077	0.0101	40.4986	8.2252	8.6023	0.4948	0.4863	0.5922	-0.4099
8.23	-9.5005	-0.0450	-1.6819	0.0034	-0.0102	0.0127	40.5078	8.2487	8.9797	0.4948	0.4864	0.5922	-0.4099
8.24	-9.5003	-0.0454	-1.6864	0.0065	-0.0076	0.0090	40.7466	8.1228	8.6849	0.4948	0.4863	0.5921	-0.4099
8.25	-9.5061	-0.0438	-1.6842	0.0084	-0.0063	0.0082	40.9202	8.0945	8.6442	0.4948	0.4864	0.5921	-0.4099
8.26	-9.4953	-0.0379	-1.6790	0.0034	-0.0086	0.0027	40.8747	8.1294	8.6328	0.4948	0.4863	0.5921	-0.4100
8.27	-9.5000	-0.0440	-1.6761	0.0040	-0.0126	0.0089	40.9130	8.0346	8.6566	0.4949	0.4863	0.5920	-0.4100
8.28	-9.5077	-0.0402	-1.6792	0.0076	-0.0008	0.0083	40.7115	8.1690	8.6188	0.4949	0.4863	0.5920	-0.4100
8.29	-9.5043	-0.0388	-1.6666	0.0087	-0.0039	0.0079	40.4910	8.1415	8.5364	0.4948	0.4863	0.5920	-0.4101
8.3	-9.5012	-0.0448	-1.6662	0.0056	-0.0070	0.0077	40.5338	8.1240	8.7591	0.4949	0.4864	0.5920	-0.4101
8.31	-9.5014	-0.0456	-1.6692	0.0095	-0.0043	0.0103	40.6370	8.2476	8.9445	0.4948	0.4863	0.5919	-0.4101
8.32	-9.5017	-0.0451	-1.6683	0.0091	-0.0079	0.0106	40.7671	8.0968	8.6250	0.4949	0.4864	0.5919	-0.4102
8.33	-9.4976	-0.0419	-1.6681	0.0023	0.0019	0.0090	40.5179	8.2426	8.5633	0.4949	0.4864	0.5919	-0.4101
8.34	-9.5011	-0.0387	-1.6654	-0.0004	-0.0060	0.0033	40.5342	8.0651	8.7042	0.4949	0.4864	0.5919	-0.4102
8.35	-9.5044	-0.0417	-1.6742	-0.0033	-0.0065	0.0040	40.6540	8.2419	8.8547	0.4949	0.4863	0.5919	-0.4102
8.36	-9.5028	-0.0401	-1.6706	-0.0111	-0.0059	0.0083	40.7752	8.1960	8.7193	0.4949	0.4863	0.5919	-0.4101
8.37	-9.4969	-0.0465	-1.6787	0.0038	-0.0073	0.0119	40.6045	7.9788	8.8824	0.4950	0.4863	0.5919	-0.4102
8.38	-9.4983	-0.0510	-1.6801	-0.0026	-0.0076	0.0074	40.5340	8.2401	9.0664	0.4949	0.4862	0.5918	-0.4101
8.39	-9.4975	-0.0548	-1.6779	0.0007	-0.0067	0.0107	40.6665	8.4154	8.5036	0.4950	0.4863	0.5919	-0.4102
8.4	-9.4992	-0.0529	-1.6818	0.0048	-0.0025	0.0047	40.6600	8.1063	8.9128	0.4950	0.4863	0.5918	-0.4102
8.41	-9.5090	-0.0494	-1.6858	0.0033	-0.0046	0.0092	40.5554	8.2379	9.0305	0.4951	0.4863	0.5919	-0.4102
8.42	-9.5070	-0.0463	-1.6829	0.0101	-0.0072	0.0087	40.6574	8.2010	8.7909	0.4950	0.4863	0.5917	-0.4102
8.43	-9.5039	-0.0357	-1.6879	0.0110	-0.0059	0.0074	40.7214	8.1827	8.5753	0.4950	0.4863	0.5918	-0.4103
8.44	-9.4983	-0.0286	-1.6793	0.0129	-0.0007	0.0096	40.8140	8.3698	8.7305	0.4950	0.4863	0.5917	-0.4103
8.45	-9.4968	-0.0270	-1.6710	0.0096	-0.0091	0.0088	40.9319	8.2307	8.9896	0.4950	0.4863	0.5916	-0.4103
8.46	-9.4995	-0.0244	-1.6799	0.0065	-0.0023	0.0072	40.6668	8.2086	9.0064	0.4950	0.4864	0.5917	-0.4104
8.47	-9.4981	-0.0286	-1.6704	0.0077	-0.0114	0.0036	40.6438	8.1560	8.7878	0.4950	0.4863	0.5916	-0.4104
8.48	-9.5064	-0.0357	-1.6774	0.0028	-0.0036	0.0076	40.6320	8.2696	8.6997	0.4950	0.4864	0.5917	-0.4104
8.49	-9.5073	-0.0440	-1.6849	0.0046	-0.0081	0.0084	40.3435	8.1285	8.7207	0.4950	0.4863	0.5916	-0.4104
8.5	-9.4998	-0.0512	-1.6790	0.0078	-0.0106	0.0051	40.6949	8.0317	8.6305	0.4950	0.4863	0.5916	-0.4105
8.51	-9.4998	-0.0518	-1.6808	0.0053	-0.0115	0.0062	40.8093	7.9781	8.7930	0.4950	0.4863	0.5915	-0.4105
8.52	-9.4971	-0.0473	-1.6843	-0.0010	-0.0104	0.0066	40.6263	8.2393	8.9007	0.4950	0.4863	0.5915	-0.4105
8.53	-9.5027	-0.0466	-1.6806	0.0059	-0.0023	0.0051	40.6373	8.2249	8.7925	0.4951	0.4863	0.5915	-0.4106
8.54	-9.5032	-0.0382	-1.6847	0.0071	-0.0043	0.0038	40.5607	8.1086	8.8323	0.4950	0.4863	0.5915	-0.4106
8.55	-9.5046	-0.0381	-1.6812	0.0027	-0.0072	0.0053	40.5168	8.1842	8.7310	0.4951	0.4863	0.5915	-0.4106
8.56	-9.5024	-0.0407	-1.6847	0.0052	-0.0015	0.0034	40.4561	8.0135	8.7848	0.4950	0.4862	0.5914	-0.4106
8.57	-9.4945	-0.0402	-1.6764	0.0011	-0.0116	0.0074	40.7846	8.3284	8.9417	0.4951	0.4863	0.5915	-0.4107
8.58	-9.4980	-0.0463	-1.6797	0.0046	-0.0038	0.0076	40.6775	8.2079	8.8351	0.4951	0.4862	0.5914	-0.4107
8.59	-9.4980	-0.0457	-1.6833	0.0073	-0.0060	0.0051	40.5664	8.1767	8.7884	0.4951	0.4863	0.5914	-0.4107
8.6	-9.5010	-0.0466	-1.6755	0.0069	-0.0100	0.0085	40.5588	8.2570	8.9082	0.4951	0.4862	0.5914	-0.4108
8.61	-9.5060	-0.0458	-1.6784	0.0059	-0.0087	0.0070	40.7873	8.2091	8.7650	0.4951	0.4862	0.5914	-0.4108
8.62	-9.5085	-0.0469	-1.6806	0.0050	-0.0058	0.0096	40.8296	8.2505	8.6895	0.4951	0.4863	0.5913	-0.4108
8.63	-9.5003	-0.0449	-1.6720	0.0073	-0.0091	0.0094	40.7218	8.2165	8.8242	0.4951	0.4862	0.5913	-0.4108
8.64	-9.5030	-0.0472	-1.6737	0.0009	-0.0111	0.0063	40.6354	8.1516	8.7880	0.4952	0.4863	0.5913	-0.4109
8.65	-9.5027	-0.0483	-1.6704	0.0071	-0.0109	0.0064	40.9153	8.3917	9.0126	0.4951	0.4862	0.5912	-0.4109
8.66	-9.4951	-0.0494	-1.6634	0.0006	-0.0109	0.0081	41.0031	7.9482	9.1053	0.4952	0.4862	0.5913	-0.4110
8.67	-9.4983	-0.0482	-1.6647	0.0043	-0.0092	0.0035	40.7680	8.2248	9.0566	0.4952	0.4862	0.5912	-0.4110
8.68	-9.4982	-0.0479	-1.6657	0.0015	-0.0073	0.0065	40.5863	8.3333	8.8745	0.4952	0.4862	0.5912	-0.4110
8.69	-9.5024	-0.0489	-1.6647	0.0065	-0.0065	0.0037	40.3535	8.2385	8.6623	0.4952	0.4862	0.5912	-0.4110
8.7	-9.4956	-0.0487	-1.6669	0.0031	-0.0049	0.0059	40.6244	8.3936	8.7140	0.4952	0.4861	0.5911	-0.4110
8.71	-9.4974	-0.0480	-1.6703	0.0032	-0.0005	0.0071	40.4860	8.4622	8.5794	0.4952	0.4862	0.5912	-0.4111
8.72	-9.5026	-0.0458	-1.6722	-0.0006	-0.0078	0.0054	40.3271	8.3182	8.7548	0.4952	0.4861	0.5911	-0.4111
8.73	-9.4976	-0.0473	-1.6752	-0.0120	-0.0050	0.0043	40.5448	8.0654	8.8113	0.4953	0.4861	0.5912	-0.4111
8.74	-9.4962	-0.0471	-1.6637	-0.0043	-0.0058	0.0013	40.4896	8.4036	8.6787	0.4952	0.4860	0.5911	-0.4110
8.75	-9.5048	-0.0493	-1.6731	-0.0024	-0.0084	0.0068	40.5439	8.5613	8.6961	0.4953	0.4860	0.5912	-0.4111
8.76	-9.4981	-0.0471	-1.6747	-0.0022	-0.0037	0.0029	40.6137	8.3961	8.8491	0.4953	0.4860	0.5912	-0.4111
8.77	-9.4925	-0.0511	-1.6629	0.0021	-0.0028	0.0045	40.5321	8.3006	8.8907	0.4953	0.4860	0.5912	-0.4111
8.78	-9.4995	-0.0473	-1.6685	-0.0022	-0.0091	0.0041	40.4005	8.2912	8.7552	0.4953	0.4860	0.5912	-0.4111
8.79	-9.5005	-0.0493	-1.6771	0.0034	-0.0089	0.0072	40.3714	8.2782	8.6725	0.4953	0.4859	0.5912	-0.4111
8.8	-9.4986	-0.0476	-1.6720	-0.0043	-0.0061	0.0065	40.6819	8.1375	8.7228	0.4954	0.4859	0.5912	-0.4111
8.81	-9.4981	-0.0455	-1.6723	-0.0084	-0.0062	0.0023	40.6749	8.1239	8.6102	0.4953	0.4858	0.5911	-0.4111
8.82	-9.5039	-0.0436	-1.6828	0.0018	-0.0080	0.0077	40.6809	8.1496	8.7138	0.4954	0.4859	0.5912	-0.4112
8.83	-9.5024	-0.0447	-1.6878	0.0004	-0.0102	0.0029	40.6722	8.1020	8.7158	0.4954	0.4858	0.5912	-0.4112
8.84	-9.5005	-0.0428	-1.6871	0.0090	-0.0030	0.0090	40.6843	8.2241	8.9138	0.4954	0.4858	0.5911	-0.4112
8.85	-9.5007	-0.0414	-1.6848	0.0042	-0.0014	0.0056	40.5879	8.1885	8.6670	0.4954	0.4858	0.5911	-0.4112
8.86	-9.4995	-0.0369	-1.6866	0.0016	-0.0033	0.0081	40.4913	8.2708	8.6008	0.4954	0.4858	0.5911	-0.4112
8.87	-9.5002	-0.0279	-1.6857	0.0016	-0.0085	0.0069	40.5455	8.2343	8.7933	0.4954	0.4858	0.5911	-0.4112
8.88	-9.5009	-0.0319	-1.6825	0.0012	-0.0079	0.0041	40.4171	8.2737	8.7611	0.4954	0.4858	0.5911	-0.4112
8.89	-9.5006	-0.0329	-1.6783	0.0002	-0.0073	0.0048	40.4490	8.3856	8.9043	0.4955	0.4858	0.5911	-0.4113
8.9	-9.4992	-0.0335	-1.6830	0.0033	-0.0018	0.0048	40.5313	8.2737	8.8106	0.4955	0.4858	0.5911	-0.4113
8.91	-9.4973	-0.0320	-1.6825	-0.0009	0.0025	0.0055	40.5081	8.5011	8.7787	0.4955	0.4858	0.5912	-0.4113
8.92	-9.5008	-0.0367	-1.6853	0.0028	-0.0033	0.0029	40.5151	8.3470	8.6892	0.4954	0.4857	0.5911	-0.4113
8.93	-9.5020	-0.0438	-1.6837	0.0063	0.0018	-0.0026	40.5265	8.4102	8.5838	0.4954	0.4858	0.5911	-0.4113
8.94	-9.5013	-0.0432	-1.6843	-0.0072	-0.0048	0.0140	40.6403	8.4718	8.9756	0.4954	0.4857	0.5911	-0.4113
8.95	-9.4999	-0.0482	-1.6855	-0.0121	-0.0007	-0.0011	40.4795	8.1687	8.8686	0.4954	0.4857	0.5911	-0.4112
8.96	-9.5034	-0.0479	-1.6830	-0.0021	-0.0001	0.0061	40.5569	8.3465	8.7926	0.4955	0.4857	0.5912	-0.4113
8.97	-9.5021	-0.0468	-1.6842	0.0046	-0.0061	0.0032	40.5629	8.4725	8.5839	0.4954	0.4857	0.5912	-0.4113
8.98	-9.5024	-0.0488	-1.6877	0.0103	-0.0098	0.0008	40.5365	8.0525	8.7530	0.4955	0.4857	0.5912	-0.4114
8.99	-9.4957	-0.0424	-1.6839	0.0014	-0.0024	0.0061	40.7755	8.0415	8.8107	0.4954	0.4856	0.5911	-0.4113
9	-9.4945	-0.0441	-1.6734	0.0043	-0.0054	0.0041	40.6648	8.0659	8.5811	0.4954	0.4856	0.5912	-0.4114
9.01	-9.5092	-0.0463	-1.6769	0.0091	-0.0013	0.0049	40.6599	8.0240	8.9547	0.4954	0.4856	0.5911	-0.4114
9.02	-9.5096	-0.0470	-1.6801	-0.0013	-0.0019	0.0046	40.7429	8.1305	8.9955	0.4954	0.4856	0.5911	-0.4114
9.03	-9.4985	-0.0437	-1.6696	0.0031	-0.0034	0.0047	40.7567	8.2120	8.7499	0.4954	0.4856	0.5912	-0.4114
9.04	-9.5060	-0.0494	-1.6774	-0.0078	-0.0070	0.0066	40.5363	8.2549	8.5665	0.4954	0.4856	0.5912	-0.4114
9.05	-9.4982	-0.0455	-1.6799	-0.0032	-0.0054	0.0063	40.6795	8.2714	8.6549	0.4955	0.4856	0.5912	-0.4114
9.06	-9.4923	-0.0474	-1.6724	0.0026	-0.0017	0.0041	40.6741	8.1602	8.8971	0.4954	0.4855	0.5911	-0.4114
9.07	-9.4937	-0.0492	-1.6740	0.0041	-0.0027	0.0066	40.5715	8.4736	8.7370	0.4955	0.4856	0.5912	-0.4115
9.08	-9.4969	-0.0463	-1.6691	-0.0000	-0.0015	0.0061	40.4755	8.5354	8.8442	0.4955	0.4855	0.5912	-0.4114
9.09	-9.5000	-0.0371	-1.6662	0.0016	0.0013	0.0018	40.5875	8.3522	8.8130	0.4955	0.4856	0.5912	-0.4115
9.1	-9.4939	-0.0330	-1.6589	0.0006	0.0027	0.0046	40.6756	8.4878	8.7559	0.4954	0.4855	0.5912	-0.4114
9.11	-9.5031	-0.0338	-1.6610	-0.0021	-0.0036	0.0044	40.5745	8.2045	8.8067	0.4954	0.4855	0.5912	-0.4114
9.12	-9.5038	-0.0311	-1.6704	-0.0024	0.0017	0.0045	40.6005	8.4507	8.7495	0.4954	0.4855	0.5912	-0.4114
9.13	-9.4987	-0.0303	-1.6674	-0.0073	0.0022	0.0040	40.5839	8.4009	8.8782	0.4954	0.4855	0.5912	-0.4114
9.14	-9.5023	-0.0377	-1.6842	-0.0048	0.0050	0.0047	40.6816	8.1749	8.8602	0.4954	0.4855	0.5913	-0.4114
9.15	-9.5045	-0.0465	-1.6936	-0.0091	-0.0061	0.0033	40.6865	8.3809	8.9201	0.4954	0.4854	0.5913	-0.4114
9.16	-9.5022	-0.0550	-1.6857	0.0000	-0.0066	0.0077	40.8378	8.3533	9.2025	0.4955	0.4855	0.5914	-0.4114
9.17	-9.4987	-0.0609	-1.6827	0.0003	-0.0052	0.0077	40.7283	8.0712	8.9182	0.4954	0.4854	0.5913	-0.4114
9.18	-9.4985	-0.0555	-1.6771	0.0001	-0.0075	0.0092	40.5460	8.0209	8.8116	0.4955	0.4854	0.5913	-0.4114
9.19	-9.5006	-0.0477	-1.6703	0.0036	-0.0070	0.0084	40.4172	8.0615	8.5247	0.4955	0.4854	0.5913	-0.4114
9.2	-9.5059	-0.0479	-1.6680	0.0013	-0.0091	0.0113	40.5779	7.9853	8.5157	0.4955	0.4854	0.5912	-0.4114
9.21	-9.5120	-0.0454	-1.6730	0.0076	-0.0031	0.0098	40.5861	8.1332	8.8054	0.4956	0.4854	0.5913	-0.4115
9.22	-9.5012	-0.0538	-1.6812	-0.0007	-0.0061	0.0163	40.6378	8.3341	8.6819	0.4956	0.4854	0.5912	-0.4114
9.23	-9.5034	-0.0587	-1.6868	-0.0008	-0.0045	0.0110	40.4981	8.3512	8.6196	0.4956	0.4854	0.5912	-0.4114
9.24	-9.4961	-0.0565	-1.6977	0.0041	-0.0050	0.0114	40.3895	8.3436	8.7489	0.4956	0.4854	0.5911	-0.4114
9.25	-9.4963	-0.0518	-1.6917	0.0054	-0.0035	0.0090	40.4198	8.2337	8.7143	0.4956	0.4855	0.5912	-0.4114
9.26	-9.4985	-0.0417	-1.6943	0.0087	-0.0050	0.0038	40.5248	8.3076	8.7895	0.4956	0.4854	0.5911	-0.4115
9.27	-9.4968	-0.0340	-1.6947	0.0043	0.0031	0.0091	40.6571	8.3859	8.8442	0.4956	0.4855	0.5911	-0.4114
9.28	-9.5043	-0.0330	-1.6880	0.0006	0.0019	0.0114	40.5369	8.2176	8.7304	0.4956	0.4855	0.5911	-0.4114
9.29	-9.5016	-0.0341	-1.6854	-0.0007	-0.0036	0.0102	40.4970	8.3298	8.5850	0.4956	0.4855	0.5911	-0.4114
9.3	-9.4968	-0.0343	-1.6792	-0.0011	-0.0020	0.0103	40.5941	8.2959	8.5942	0.4956	0.4855	0.5911	-0.4114
9.31	-9.4990	-0.0406	-1.6733	0.0001	-0.0044	0.0056	40.1882	8.2401	8.7516	0.4956	0.4854	0.5911	-0.4114
9.32	-9.5062	-0.0446	-1.6761	0.0053	-0.0030	0.0050	40.2857	8.3565	8.8222	0.4956	0.4855	0.5911	-0.4114
9.33	-9.5019	-0.0471	-1.6689	-0.0036	-0.0046	0.0116	40.4587	8.2077	8.6626	0.4956	0.4855	0.5911	-0.4114
9.34	-9.4993	-0.0449	-1.6649	-0.0036	-0.0064	0.0092	40.5738	8.3578	8.6536	0.4957	0.4855	0.5911	-0.4114
9.35	-9.5010	-0.0420	-1.6634	0.0044	-0.0072	0.0076	40.4728	8.3364	8.5463	0.4957	0.4854	0.5911	-0.4114
9.36	-9.4991	-0.0371	-1.6611	0.0026	-0.0095	0.0090	40.5114	8.3593	8.6999	0.4957	0.4854	0.5911	-0.4114
9.37	-9.4980	-0.0336	-1.6624	-0.0001	-0.0076	0.0062	40.5807	8.3064	8.7342	0.4957	0.4854	0.5911	-0.4115
9.38	-9.5012	-0.0384	-1.6621	0.0011	-0.0064	0.0097	40.6136	8.1694	8.4388	0.4957	0.4854	0.5910	-0.4114
9.39	-9.5051	-0.0432	-1.6659	0.0015	-0.0084	0.0045	40.7884	8.1986	8.6208	0.4958	0.4854	0.5911	-0.4115
9.4	-9.5061	-0.0508	-1.6723	-0.0014	-0.0078	0.0084	40.6331	8.0232	8.7918	0.4958	0.4854	0.5910	-0.4115
9.41	-9.5001	-0.0469	-1.6707	-0.0038	-0.0037	0.0100	40.5038	8.0537	8.7035	0.4958	0.4854	0.5911	-0.4115
9.42	-9.5006	-0.0466	-1.6780	-0.0012	-0.0019	0.0122	40.3654	8.2881	8.8575	0.4958	0.4853	0.5910	-0.4114
9.43	-9.4989	-0.0407	-1.6825	0.0049	-0.0021	0.0070	40.5706	8.1376	8.6659	0.4958	0.4854	0.5910	-0.4115
9.44	-9.4972	-0.0398	-1.6866	0.0010	-0.0081	0.0134	40.6386	8.0730	8.7068	0.4958	0.4854	0.5910	-0.4115
9.45	-9.4995	-0.0376	-1.6834	0.0087	-0.0077	0.0079	40.4622	8.1764	8.7558	0.4958	0.4854	0.5909	-0.4115
9.46	-9.4960	-0.0297	-1.6844	0.0028	-0.0039	0.0081	40.4868	8.2711	8.7294	0.4959	0.4854	0.5910	-0.4115
9.47	-9.5003	-0.0350	-1.6866	0.0027	-0.0070	0.0078	40.3809	8.2664	8.7279	0.4958	0.4854	0.5909	-0.4115
9.48	-9.4985	-0.0395	-1.6855	0.0033	-0.0087	0.0106	40.6196	8.2436	8.5417	0.4959	0.4854	0.5909	-0.4116
9.49	-9.5014	-0.0391	-1.6880	-0.0014	-0.0076	0.0112	40.3806	8.3641	8.6556	0.4959	0.4854	0.5908	-0.4115
9.5	-9.4936	-0.0447	-1.6847	-0.0048	-0.0043	0.0054	40.3210	8.3078	8.6313	0.4959	0.4854	0.5909	-0.4115
9.51	-9.5007	-0.0471	-1.6879	-0.0002	-0.0029	0.0099	40.4741	8.2636	8.6881	0.4959	0.4854	0.5909	-0.4115
9.52	-9.5056	-0.0481	-1.6903	-0.0031	0.0011	0.0103	40.4916	8.1925	8.7837	0.4959	0.4854	0.5909	-0.4115
9.53	-9.5028	-0.0495	-1.6837	-0.0055	-0.0073	0.0068	40.4762	8.1723	8.5965	0.4960	0.4853	0.5909	-0.4115
9.54	-9.5046	-0.0490	-1.6814	-0.0042	0.0002	0.0120	40.3878	8.4184	8.7205	0.4960	0.4853	0.5909	-0.4114
9.55	-9.5013	-0.0504	-1.6815	-0.0016	-0.0040	0.0103	40.6194	8.2544	8.6712	0.4960	0.4854	0.5909	-0.4114
9.56	-9.4935	-0.0448	-1.6767	0.0032	-0.0047	0.0059	40.6788	8.2304	8.6687	0.4960	0.4853	0.5908	-0.4114
9.57	-9.4947	-0.0446	-1.6757	-0.0009	-0.0065	0.0107	40.5055	8.0000	8.5036	0.4961	0.4853	0.5909	-0.4115
9.58	-9.5026	-0.0455	-1.6796	0.0003	-0.0042	0.0080	40.5426	8.1406	8.5551	0.4960	0.4853	0.5909	-0.4114
9.59	-9.4990	-0.0457	-1.6797	0.0002	-0.0057	0.0074	40.5228	8.1058	8.7091	0.4961	0.4853	0.5909	-0.4115
9.6	-9.5007	-0.0520	-1.6710	-0.0018	-0.0035	0.0084	40.3892	8.2036	8.5306	0.4961	0.4853	0.5908	-0.4114
9.61	-9.5004	-0.0514	-1.6742	0.0000	-0.0076	0.0078	40.4033	8.3321	8.5672	0.4961	0.4853	0.5908	-0.4114
9.62	-9.5015	-0.0539	-1.6742	-0.0007	-0.0073	0.0099	40.4624	8.1165	8.7850	0.4961	0.4853	0.5908	-0.4115
9.63	-9.4979	-0.0497	-1.6772	0.0009	-0.0068	0.0090	40.7735	8.2113	8.8606	0.4961	0.4852	0.5908	-0.4114
9.64	-9.4941	-0.0410	-1.6772	0.0030	-0.0066	0.0083	40.5786	8.2708	8.7059	0.4962	0.4853	0.5908	-0.4115
9.65	-9.5004	-0.0344	-1.6726	0.0014	-0.0069	0.0117	40.6192	8.2380	8.7599	0.4962	0.4853	0.5908	-0.4115
9.66	-9.5006	-0.0356	-1.6751	0.0013	-0.0004	0.0097	40.8357	8.1518	8.7286	0.4962	0.4853	0.5908	-0.4115
9.67	-9.4965	-0.0350	-1.6712	-0.0008	0.0000	0.0037	40.7198	8.2543	8.7819	0.4961	0.4853	0.5908	-0.4114
9.68	-9.5006	-0.0346	-1.6723	0.0085	0.0014	0.0083	40.5470	8.3271	8.9245	0.4961	0.4853	0.5908	-0.4115
9.69	-9.5048	-0.0399	-1.6757	0.0009	0.0001	0.0053	40.3507	8.3281	8.8176	0.4961	0.4853	0.5908	-0.4115
9.7	-9.4993	-0.0438	-1.6756	-0.0012	-0.0015	0.0087	40.4857	8.3722	8.8317	0.4961	0.4853	0.5908	-0.4114
9.71	-9.5000	-0.0447	-1.6773	0.0048	-0.0003	0.0071	40.6178	8.2333	8.7271	0.4962	0.4854	0.5908	-0.4115
9.72	-9.5000	-0.0522	-1.6740	0.0065	-0.0033	0.0045	40.5055	8.1758	8.7572	0.4961	0.4853	0.5908	-0.4115
9.73	-9.5001	-0.0582	-1.6736	0.0033	-0.0107	0.0078	40.5730	8.1797	8.9395	0.4962	0.4853	0.5908	-0.4115
9.74	-9.4997	-0.0589	-1.6797	0.0056	-0.0072	0.0045	40.8505	8.2027	8.8258	0.4961	0.4853	0.5907	-0.4115
9.75	-9.4958	-0.0534	-1.6764	0.0007	-0.0074	0.0089	40.7941	8.1614	8.7384	0.4962	0.4853	0.5907	-0.4115
9.76	-9.5071	-0.0469	-1.6833	0.0065	-0.0045	0.0103	40.8410	8.2618	8.7401	0.4962	0.4853	0.5907	-0.4115
9.77	-9.5081	-0.0438	-1.6808	0.0142	-0.0015	0.0032	40.7365	8.2057	8.7725	0.4961	0.4853	0.5907	-0.4116
9.78	-9.4981	-0.0383	-1.6813	0.0120	-0.0018	0.0087	40.7398	8.1789	8.6119	0.4961	0.4854	0.5907	-0.4116
9.79	-9.5060	-0.0394	-1.6814	0.0054	-0.0059	0.0108	40.6088	8.3065	8.7404	0.4961	0.4854	0.5906	-0.4116
9.8	-9.5051	-0.0405	-1.6836	0.0048	0.0016	0.0070	40.5546	8.2110	8.8285	0.4961	0.4854	0.5907	-0.4116
9.81	-9.4943	-0.0370	-1.6738	0.0078	-0.0044	0.0037	40.5971	8.0867	8.5996	0.4960	0.4854	0.5906	-0.4116
9.82	-9.4965	-0.0339	-1.6739	0.0045	-0.0001	0.0052	40.5418	8.1197	8.9205	0.4961	0.4854	0.5907	-0.4117
9.83	-9.5002	-0.0379	-1.6781	0.0048	-0.0067	0.0041	40.4984	8.2072	8.7218	0.4960	0.4854	0.5906	-0.4117
9.84	-9.5047	-0.0395	-1.6772	0.0021	-0.0084	0.0063	40.6838	8.1576	8.8402	0.4961	0.4854	0.5906	-0.4117
9.85	-9.5026	-0.0411	-1.6836	0.0046	-0.0085	0.0112	40.5491	8.3677	8.8007	0.4961	0.4854	0.5906	-0.4117
9.86	-9.5019	-0.0445	-1.6822	0.0011	0.0004	0.0059	40.4848	8.3423	8.7628	0.4961	0.4854	0.5906	-0.4117
9.87	-9.5053	-0.0446	-1.6882	0.0028	-0.0020	0.0035	40.6696	8.1661	8.8167	0.4961	0.4854	0.5906	-0.4118
9.88	-9.4991	-0.0491	-1.6774	0.0010	-0.0008	0.0033	40.5884	8.2801	8.6273	0.4960	0.4853	0.5906	-0.4117
9.89	-9.4884	-0.0503	-1.6715	0.0009	-0.0000	0.0115	40.3779	8.2326	8.7518	0.4961	0.4854	0.5907	-0.4118
9.9	-9.4950	-0.0496	-1.6727	0.0032	0.0002	0.0064	40.4412	8.3479	8.7609	0.4960	0.4854	0.5906	-0.4117
9.91	-9.5027	-0.0498	-1.6647	0.0063	-0.0062	0.0079	40.3635	8.4331	8.8672	0.4961	0.4854	0.5907	-0.4118
9.92	-9.4998	-0.0504	-1.6687	0.0082	-0.0082	0.0072	40.6867	8.1304	8.6439	0.4960	0.4854	0.5905	-0.4118
9.93	-9.5030	-0.0482	-1.6613	0.0045	-0.0056	0.0041	40.7487	8.0167	8.5363	0.4960	0.4854	0.5906	-0.4118
9.94	-9.5042	-0.0444	-1.6631	0.0105	0.0014	0.0049	40.7505	8.0098	8.6675	0.4960	0.4854	0.5906	-0.4118
9.95	-9.4990	-0.0456	-1.6596	0.0060	-0.0023	0.0052	40.6548	8.0852	8.9332	0.4959	0.4854	0.5905	-0.4118
9.96	-9.4988	-0.0443	-1.6634	0.0037	-0.0062	0.0040	40.6516	8.2999	8.8394	0.4960	0.4854	0.5906	-0.4119
9.97	-9.5040	-0.0393	-1.6708	0.0094	0.0003	0.0074	40.6548	8.1197	8.6367	0.4959	0.4854	0.5905	-0.4119
9.98	-9.4982	-0.0364	-1.6686	0.0070	-0.0030	0.0079	40.6993	8.0907	8.5838	0.4960	0.4855	0.5906	-0.4119
9.99	-9.4986	-0.0412	-1.6688	0.0064	-0.0042	0.0035	40.8469	8.1858	8.8792	0.4959	0.4854	0.5905	-0.4119
10	-9.5031	-0.0430	-1.6778	0.0030	-0.0047	0.0073	40.6741	8.3053	8.5872	0.4959	0.4855	0.5905	-0.4120
10.01	-9.5000	-0.0458	-1.6712	-0.0004	-0.0009	0.0077	40.6953	8.2140	8.7140	0.4959	0.4854	0.5905	-0.4119
10.02	-9.5072	-0.0439	-1.6778	0.0013	0.0003	0.0032	40.7715	8.1619	8.5402	0.4959	0.4854	0.5905	-0.4119
10.03	-9.5049	-0.0445	-1.6761	0.0093	0.0001	0.0061	40.5590	8.3737	8.6909	0.4959	0.4855	0.5906	-0.4120
10.04	-9.5011	-0.0372	-1.6767	-0.0001	-0.0026	0.0084	40.3141	8.4555	8.8371	0.4959	0.4855	0.5905	-0.4119
10.05	-9.4997	-0.0398	-1.6819	-0.0019	-0.0018	0.0037	40.4389	8.1703	8.6574	0.4959	0.4855	0.5906	-0.4120
10.06	-9.5024	-0.0355	-1.6816	0.0013	0.0019	0.0053	40.5974	8.2695	8.9661	0.4958	0.4854	0.5905	-0.4119
10.07	-9.4975	-0.0369	-1.6761	0.0008	0.0013	0.0054	40.3671	8.4376	8.7493	0.4959	0.4855	0.5906	-0.4119
10.08	-9.4984	-0.0396	-1.6774	-0.0064	-0.0057	0.0039	40.4382	8.4780	8.7664	0.4959	0.4854	0.5906	-0.4119
10.09	-9.4971	-0.0419	-1.6737	0.0026	-0.0022	0.0058	40.3917	8.4675	8.6056	0.4959	0.4854	0.5906	-0.4119
10.1	-9.5032	-0.0487	-1.6847	0.0034	-0.0027	0.0088	40.5059	8.3299	8.8881	0.4958	0.4854	0.5906	-0.4119
10.11	-9.5085	-0.0455	-1.6886	0.0042	-0.0074	0.0084	40.7122	8.3324	8.7163	0.4959	0.4854	0.5906	-0.4119
10.12	-9.4975	-0.0466	-1.6892	0.0049	-0.0040	0.0054	40.7560	7.8811	8.5641	0.4959	0.4854	0.5906	-0.4120
10.13	-9.4984	-0.0503	-1.6913	-0.0045	-0.0029	0.0036	40.7182	8.1211	8.7843	0.4958	0.4854	0.5905	-0.4119
10.14	-9.4959	-0.0522	-1.6866	-0.0019	-0.0108	0.0059	40.7524	8.1795	8.8333	0.4959	0.4854	0.5906	-0.4120
10.15	-9.4983	-0.0498	-1.6753	-0.0058	-0.0042	0.0119	40.9767	8.1039	8.9931	0.4959	0.4854	0.5906	-0.4119
10.16	-9.5005	-0.0490	-1.6786	-0.0017	-0.0032	0.0082	41.1631	8.2988	9.3073	0.4960	0.4854	0.5906	-0.4120
10.17	-9.5008	-0.0449	-1.6748	-0.0085	-0.0055	0.0096	40.9018	8.2736	9.0586	0.4959	0.4853	0.5906	-0.4119
10.18	-9.5032	-0.0450	-1.6737	-0.0014	-0.0022	0.0075	40.6843	8.2030	8.5641	0.4960	0.4853	0.5906	-0.4119
10.19	-9.5000	-0.0457	-1.6769	0.0069	-0.0065	0.0133	40.4957	8.1138	8.7774	0.4960	0.4853	0.5906	-0.4119
10.2	-9.4999	-0.0517	-1.6784	0.0031	-0.0058	0.0062	40.5065	8.1652	8.7825	0.4960	0.4853	0.5905	-0.4119
10.21	-9.4970	-0.0587	-1.6815	-0.0009	-0.0023	0.0075	40.5017	8.4065	8.7866	0.4960	0.4854	0.5906	-0.4119
10.22	-9.4960	-0.0608	-1.6837	-0.0056	-0.0048	0.0057	40.5235	8.1798	8.9055	0.4960	0.4853	0.5906	-0.4119
10.23	-9.4987	-0.0598	-1.6784	0.0024	-0.0009	0.0056	40.6326	8.2672	8.8169	0.4960	0.4853	0.5906	-0.4119
10.24	-9.4977	-0.0599	-1.6767	-0.0117	0.0004	0.0113	40.4098	8.2763	8.6679	0.4960	0.4853	0.5906	-0.4118
10.25	-9.4981	-0.0521	-1.6671	-0.0060	-0.0051	0.0123	40.3225	8.1800	8.7241	0.4961	0.4853	0.5906	-0.4118
10.26	-9.4950	-0.0447	-1.6605	0.0032	0.0023	0.0100	40.3812	8.3278	8.7941	0.4961	0.4853	0.5906	-0.4118
10.27	-9.4985	-0.0413	-1.6634	0.0008	0.0026	0.0076	40.5041	8.1693	8.7817	0.4960	0.4853	0.5906	-0.4118
10.28	-9.5019	-0.0370	-1.6617	0.0007	-0.0059	0.0085	40.5092	8.3028	8.7761	0.4961	0.4853	0.5906	-0.4118
10.29	-9.5021	-0.0449	-1.6694	0.0040	-0.0093	0.0106	40.6109	8.2435	8.8012	0.4961	0.4853	0.5906	-0.4118
10.3	-9.5030	-0.0422	-1.6818	0.0012	-0.0048	0.0068	40.5574	8.1699	8.7511	0.4961	0.4853	0.5906	-0.4118
10.31	-9.4976	-0.0423	-1.6833	0.0027	-0.0087	0.0105	40.6793	8.2201	8.9096	0.4961	0.4853	0.5905	-0.4118
10.32	-9.4955	-0.0398	-1.6879	0.0040	-0.0005	0.0111	40.5410	8.1617	8.8151	0.4961	0.4854	0.5906	-0.4118
10.33	-9.4938	-0.0322	-1.6841	0.0047	-0.0014	0.0070	40.6742	8.1206	8.5372	0.4961	0.4853	0.5905	-0.4118
10.34	-9.5011	-0.0235	-1.6780	0.0030	-0.0048	0.0099	40.8099	8.3124	8.7097	0.4961	0.4854	0.5906	-0.4118
10.35	-9.4960	-0.0239	-1.6788	0.0021	-0.0049	0.0104	40.5370	8.1745	8.7054	0.4961	0.4854	0.5905	-0.4118
10.36	-9.4974	-0.0211	-1.6791	0.0027	-0.0019	0.0075	40.4067	8.0922	8.7884	0.4961	0.4854	0.5905	-0.4118
10.37	-9.5019	-0.0275	-1.6831	-0.0053	-0.0009	0.0039	40.6097	8.1261	8.6461	0.4961	0.4854	0.5906	-0.4118
10.38	-9.4992	-0.0374	-1.6762	-0.0027	-0.0052	0.0051	40.5008	8.0861	8.8054	0.4961	0.4853	0.5905	-0.4117
10.39	-9.4985	-0.0379	-1.6726	0.0045	-0.0047	0.0084	40.5012	8.3306	8.8670	0.4962	0.4854	0.5906	-0.4118
10.4	-9.5010	-0.0416	-1.6731	-0.0021	0.0029	0.0026	40.5057	8.2069	8.7402	0.4961	0.4853	0.5906	-0.4118
10.41	-9.4983	-0.0443	-1.6700	-0.0001	-0.0005	0.0063	40.5051	8.2376	8.8748	0.4961	0.4854	0.5906	-0.4118
10.42	-9.4972	-0.0453	-1.6701	0.0001	-0.0003	0.0068	40.4987	8.3807	8.7840	0.4961	0.4853	0.5906	-0.4117
10.43	-9.5057	-0.0480	-1.6755	-0.0030	-0.0005	0.0036	40.5083	8.3461	8.7612	0.4961	0.4853	0.5906	-0.4117
10.44	-9.5000	-0.0474	-1.6741	-0.0021	-0.0010	0.0100	40.4944	8.3716	8.8325	0.4961	0.4853	0.5906	-0.4117
10.45	-9.4887	-0.0521	-1.6675	-0.0038	-0.0026	0.0059	40.5158	8.3035	8.8921	0.4961	0.4853	0.5906	-0.4117
10.46	-9.4924	-0.0560	-1.6724	-0.0019	-0.0002	0.0088	40.3959	8.0553	8.8500	0.4962	0.4853	0.5907	-0.4117
10.47	-9.5009	-0.0593	-1.6803	0.0105	-0.0059	0.0150	40.3346	8.1738	8.9032	0.4961	0.4853	0.5906	-0.4117
10.48	-9.4910	-0.0580	-1.6703	-0.0017	-0.0082	0.0089	40.3269	8.1474	8.7909	0.4962	0.4853	0.5906	-0.4117
10.49	-9.4952	-0.0487	-1.6734	0.0041	-0.0024	0.0080	40.4975	8.0089	8.7254	0.4961	0.4853	0.5906	-0.4117
10.5	-9.5029	-0.0487	-1.6798	0.0057	-0.0020	0.0039	40.7295	8.1429	8.6392	0.4961	0.4853	0.5906	-0.4117
10.51	-9.5043	-0.0449	-1.6850	0.0004	-0.0063	0.0048	40.5945	8.0981	8.7015	0.4961	0.4853	0.5906	-0.4117
10.52	-9.5008	-0.0396	-1.6831	-0.0009	-0.0033	0.0063	40.5869	8.1582	8.8333	0.4961	0.4853	0.5906	-0.4117
10.53	-9.5004	-0.0364	-1.6797	0.0005	-0.0028	0.0097	40.5782	8.4153	8.6646	0.4961	0.4853	0.5906	-0.4117
10.54	-9.4983	-0.0355	-1.6757	-0.0018	-0.0067	0.0059	40.3652	8.4009	8.8193	0.4961	0.4853	0.5906	-0.4117
10.55	-9.4976	-0.0372	-1.6765	0.0024	-0.0005	0.0074	40.5011	8.1672	8.7397	0.4962	0.4853	0.5906	-0.4117
10.56	-9.4931	-0.0416	-1.6817	-0.0023	-0.0017	0.0066	40.5162	8.2129	8.4952	0.4961	0.4853	0.5906	-0.4117
10.57	-9.5016	-0.0500	-1.6835	0.0056	-0.0075	0.0133	40.4952	8.1724	8.7630	0.4962	0.4853	0.5906	-0.4117
10.58	-9.4997	-0.0485	-1.6876	-0.0047	-0.0038	0.0146	40.5300	8.2383	8.5993	0.4962	0.4853	0.5906	-0.4117
10.59	-9.4993	-0.0485	-1.6882	-0.0067	-0.0035	0.0029	40.4379	8.3061	8.7414	0.4962	0.4853	0.5906	-0.4117
10.6	-9.5018	-0.0464	-1.6908	0.0035	-0.0109	0.0074	40.3388	8.1640	8.8097	0.4962	0.4853	0.5906	-0.4117
10.61	-9.5002	-0.0441	-1.6848	-0.0010	-0.0073	0.0061	40.3327	8.1005	8.7620	0.4962	0.4853	0.5906	-0.4117
10.62	-9.4968	-0.0371	-1.6799	0.0055	-0.0025	0.0087	40.7525	8.2974	8.8084	0.4962	0.4853	0.5906	-0.4117
10.63	-9.4936	-0.0324	-1.6824	0.0007	-0.0021	0.0077	40.5957	8.1981	8.7548	0.4962	0.4852	0.5905	-0.4117
10.64	-9.5024	-0.0298	-1.6842	0.0007	0.0011	0.0083	40.3989	8.1839	8.9227	0.4963	0.4853	0.5906	-0.4117
10.65	-9.5006	-0.0317	-1.6822	-0.0071	-0.0040	0.0121	40.9459	8.3544	9.0946	0.4963	0.4853	0.5906	-0.4116
10.66	-9.5008	-0.0394	-1.6858	0.0042	-0.0096	0.0076	41.0125	8.3692	8.9887	0.4963	0.4853	0.5906	-0.4117
10.67	-9.5005	-0.0430	-1.6849	0.0023	-0.0098	0.0039	40.8392	8.3851	8.8463	0.4963	0.4852	0.5905	-0.4117
10.68	-9.5011	-0.0430	-1.6795	0.0056	-0.0125	0.0091	40.7258	8.2351	8.6892	0.4963	0.4852	0.5905	-0.4117
10.69	-9.4959	-0.0490	-1.6743	0.0027	-0.0081	0.0036	40.6881	8.1220	8.6775	0.4963	0.4852	0.5905	-0.4117
10.7	-9.4994	-0.0476	-1.6791	0.0076	-0.0030	0.0042	40.4741	8.3004	8.6099	0.4963	0.4852	0.5905	-0.4117
10.71	-9.5064	-0.0480	-1.6785	0.0063	-0.0073	0.0036	40.4740	8.1219	8.7629	0.4963	0.4853	0.5905	-0.4118
10.72	-9.4974	-0.0458	-1.6722	0.0001	0.0001	0.0041	40.3601	8.2659	8.6920	0.4963	0.4852	0.5905	-0.4118
10.73	-9.4969	-0.0459	-1.6783	0.0017	-0.0018	0.0065	40.4514	8.3436	8.7988	0.4963	0.4853	0.5906	-0.4118
10.74	-9.4980	-0.0469	-1.6783	0.0006	-0.0016	0.0095	40.5519	8.0423	8.8266	0.4962	0.4852	0.5905	-0.4117
10.75	-9.4944	-0.0381	-1.6728	-0.0020	-0.0030	0.0049	40.7590	8.2512	8.8192	0.4963	0.4852	0.5905	-0.4118
10.76	-9.4962	-0.0375	-1.6697	-0.0051	-0.0029	0.0061	40.5031	8.3925	8.6290	0.4963	0.4852	0.5905	-0.4117
10.77	-9.5004	-0.0368	-1.6726	-0.0011	-0.0039	0.0032	40.4582	8.2441	8.7147	0.4963	0.4852	0.5906	-0.4117
10.78	-9.5003	-0.0458	-1.6792	0.0009	0.0009	0.0052	40.5593	8.2766	8.7312	0.4963	0.4852	0.5906	-0.4117
10.79	-9.4970	-0.0472	-1.6727	0.0026	0.0002	0.0039	40.6852	8.3583	8.7338	0.4962	0.4852	0.5906	-0.4117
10.8	-9.4989	-0.0510	-1.6793	-0.0022	-0.0039	0.0049	40.3225	8.3425	8.6966	0.4963	0.4852	0.5906	-0.4117
10.81	-9.4997	-0.0516	-1.6800	-0.0060	0.0040	0.0061	40.3771	8.3215	8.8281	0.4962	0.4851	0.5906	-0.4117
10.82	-9.5009	-0.0477	-1.6806	-0.0059	-0.0018	0.0057	40.6681	8.3836	8.7809	0.4963	0.4852	0.5907	-0.4117
10.83	-9.4984	-0.0461	-1.6790	-0.0084	-0.0023	0.0050	40.5139	8.2466	8.8950	0.4963	0.4851	0.5907	-0.4116
10.84	-9.5025	-0.0480	-1.6765	-0.0057	-0.0043	0.0030	40.5310	8.1432	8.8262	0.4963	0.4851	0.5907	-0.4116
10.85	-9.5030	-0.0465	-1.6754	0.0071	-0.0062	0.0068	40.2620	8.2661	8.8275	0.4963	0.4851	0.5907	-0.4116
10.86	-9.4966	-0.0432	-1.6736	0.0005	-0.0028	0.0044	40.4589	8.2705	8.7505	0.4963	0.4851	0.5907	-0.4117
10.87	-9.4974	-0.0487	-1.6766	0.0055	-0.0027	0.0076	40.4893	8.0169	8.8048	0.4963	0.4851	0.5907	-0.4117
10.88	-9.4993	-0.0480	-1.6786	-0.0000	-0.0010	0.0045	40.7387	8.0980	8.7344	0.4962	0.4850	0.5907	-0.4116
10.89	-9.5028	-0.0491	-1.6786	0.0019	-0.0037	0.0085	40.6872	8.1705	8.7669	0.4963	0.4851	0.5908	-0.4117
10.9	-9.5007	-0.0488	-1.6745	0.0062	-0.0009	0.0057	40.6326	7.9789	8.9282	0.4962	0.4851	0.5907	-0.4117
10.91	-9.5028	-0.0470	-1.6777	0.0037	-0.0016	0.0044	40.5748	8.2236	8.7289	0.4963	0.4851	0.5908	-0.4117
10.92	-9.4998	-0.0418	-1.6767	0.0025	-0.0032	0.0052	40.5481	8.0719	8.6242	0.4962	0.4851	0.5907	-0.4117
10.93	-9.4997	-0.0430	-1.6792	0.0022	-0.0015	0.0040	40.6580	8.1115	8.7004	0.4962	0.4851	0.5907	-0.4117
10.94	-9.4956	-0.0474	-1.6774	0.0098	-0.0035	0.0070	40.6197	8.0816	9.0505	0.4962	0.4851	0.5907	-0.4117
10.95	-9.4959	-0.0476	-1.6705	0.0055	-0.0101	0.0066	40.6290	8.1592	8.8960	0.4962	0.4851	0.5907	-0.4117
10.96	-9.4969	-0.0440	-1.6808	0.0018	-0.0052	0.0083	40.5618	8.2989	8.9000	0.4962	0.4851	0.5907	-0.4118
10.97	-9.5036	-0.0479	-1.6794	-0.0021	0.0043	0.0057	40.2422	8.2022	8.9064	0.4962	0.4851	0.5907	-0.4117
10.98	-9.5006	-0.0445	-1.6773	-0.0036	-0.0022	0.0044	40.3311	8.3970	8.6267	0.4962	0.4851	0.5908	-0.4117
10.99	-9.5066	-0.0380	-1.6808	-0.0033	-0.0052	0.0060	40.5641	8.4424	8.7212	0.4962	0.4850	0.5907	-0.4117
11	-9.5013	-0.0364	-1.6833	0.0010	0.0048	0.0042	40.5783	8.2148	8.9382	0.4962	0.4851	0.5908	-0.4117
11.01	-9.4918	-0.0328	-1.6866	-0.0021	0.0008	0.0042	40.6031	8.4518	8.5619	0.4962	0.4851	0.5908	-0.4117
11.02	-9.4926	-0.0315	-1.6852	0.0025	0.0017	0.0041	40.2745	8.3488	8.8165	0.4961	0.4851	0.5908	-0.4117
11.03	-9.4987	-0.0314	-1.6829	0.0052	-0.0080	0.0036	40.4058	8.2374	8.8023	0.4962	0.4851	0.5908	-0.4117
11.04	-9.5015	-0.0319	-1.6804	0.0007	-0.0053	0.0057	40.5280	8.4028	8.7091	0.4961	0.4851	0.5908	-0.4117
11.05	-9.4945	-0.0328	-1.6782	-0.0018	-0.0042	0.0059	40.7350	8.2235	8.9337	0.4962	0.4851	0.5908	-0.4117
11.06	-9.4962	-0.0398	-1.6784	0.0079	0.0014	0.0069	40.6218	8.0917	8.8182	0.4961	0.4850	0.5908	-0.4117
11.07	-9.4994	-0.0436	-1.6761	0.0051	-0.0039	0.0070	40.7317	7.9882	8.7203	0.4961	0.4851	0.5908	-0.4117
11.08	-9.5008	-0.0457	-1.6788	0.0060	-0.0073	0.0077	40.7114	8.0716	8.7528	0.4961	0.4851	0.5908	-0.4117
11.09	-9.5014	-0.0481	-1.6803	0.0079	-0.0004	0.0084	40.7222	8.1071	8.6799	0.4961	0.4851	0.5908	-0.4117
11.1	-9.5000	-0.0475	-1.6760	0.0059	-0.0022	0.0058	40.6448	8.1012	8.5232	0.4961	0.4851	0.5908	-0.4117
11.11	-9.4947	-0.0521	-1.6759	0.0022	-0.0047	0.0081	40.6106	8.1976	8.6028	0.4961	0.4851	0.5908	-0.4117
11.12	-9.4939	-0.0514	-1.6759	0.0001	-0.0022	0.0042	40.5344	8.1774	8.6471	0.4961	0.4851	0.5908	-0.4118
11.13	-9.4880	-0.0519	-1.6743	0.0047	-0.0067	0.0077	40.5815	8.1685	8.6613	0.4960	0.4851	0.5907	-0.4117
11.14	-9.5017	-0.0503	-1.6752	0.0012	0.0010	0.0047	40.3462	8.1984	8.4971	0.4961	0.4851	0.5908	-0.4118
11.15	-9.5025	-0.0469	-1.6757	-0.0054	0.0021	0.0043	40.7430	8.4049	8.8090	0.4960	0.4851	0.5908	-0.4117
11.16	-9.4999	-0.0452	-1.6766	0.0007	-0.0061	0.0039	41.0029	8.2751	8.9383	0.4961	0.4851	0.5909	-0.4118
11.17	-9.4959	-0.0485	-1.6724	-0.0032	-0.0029	0.0051	40.7691	8.2129	8.9537	0.4960	0.4850	0.5908	-0.4117
11.18	-9.5012	-0.0511	-1.6746	-0.0041	-0.0060	0.0083	40.5397	8.2567	9.0185	0.4961	0.4851	0.5909	-0.4117
11.19	-9.4981	-0.0502	-1.6742	-0.0061	-0.0036	0.0094	40.5467	8.2327	8.7964	0.4961	0.4850	0.5909	-0.4117
11.2	-9.4934	-0.0462	-1.6635	-0.0055	-0.0044	0.0061	40.6104	8.1878	8.9560	0.4961	0.4850	0.5909	-0.4116
11.21	-9.4968	-0.0461	-1.6635	-0.0055	-0.0051	0.0058	40.5142	8.2163	8.8266	0.4962	0.4850	0.5909	-0.4117
11.22	-9.4996	-0.0450	-1.6617	-0.0091	-0.0069	0.0109	40.3682	8.1741	8.8551	0.4962	0.4850	0.5909	-0.4116
11.23	-9.4973	-0.0395	-1.6577	-0.0036	-0.0050	0.0047	40.5945	8.0355	8.8437	0.4962	0.4850	0.5910	-0.4116
11.24	-9.5019	-0.0350	-1.6713	0.0050	-0.0082	0.0078	40.5677	8.1003	8.8641	0.4962	0.4849	0.5909	-0.4116
11.25	-9.5003	-0.0384	-1.6790	-0.0016	-0.0066	0.0058	40.6633	8.2661	8.8246	0.4962	0.4849	0.5909	-0.4116
11.26	-9.5004	-0.0461	-1.6868	-0.0013	0.0006	0.0029	40.8794	8.0915	8.9134	0.4962	0.4849	0.5909	-0.4116
11.27	-9.4988	-0.0469	-1.6864	-0.0003	-0.0084	0.0046	40.5669	8.0453	8.9647	0.4962	0.4849	0.5909	-0.4116
11.28	-9.5007	-0.0487	-1.6847	-0.0097	-0.0041	0.0042	40.5989	8.5277	8.7351	0.4963	0.4849	0.5910	-0.4116
11.29	-9.4984	-0.0479	-1.6874	-0.0025	-0.0025	0.0065	40.5000	8.3883	8.7359	0.4962	0.4849	0.5910	-0.4116
11.3	-9.4952	-0.0442	-1.6741	-0.0113	-0.0081	0.0095	40.6953	8.1713	8.8367	0.4963	0.4848	0.5910	-0.4116
11.31	-9.4977	-0.0357	-1.6720	0.0024	-0.0035	0.0096	40.6548	8.3130	8.8352	0.4963	0.4848	0.5909	-0.4115
11.32	-9.4966	-0.0319	-1.6735	-0.0063	-0.0022	0.0106	40.6950	8.2460	8.9896	0.4963	0.4848	0.5910	-0.4115
11.33	-9.4970	-0.0375	-1.6745	-0.0021	0.0010	0.0108	40.6306	8.2362	8.6665	0.4963	0.4848	0.5910	-0.4115
11.34	-9.5021	-0.0493	-1.6844	0.0014	-0.0042	0.0056	40.5810	8.3025	8.8671	0.4963	0.4848	0.5910	-0.4115
11.35	-9.5022	-0.0571	-1.6888	-0.0066	-0.0050	0.0094	40.6010	8.2828	9.0646	0.4963	0.4848	0.5910	-0.4114
11.36	-9.4978	-0.0530	-1.6914	-0.0001	-0.0000	0.0048	40.3497	8.3770	8.8728	0.4963	0.4848	0.5910	-0.4114
11.37	-9.5013	-0.0466	-1.6904	-0.0046	-0.0039	0.0112	40.3899	8.1907	8.9673	0.4964	0.4848	0.5910	-0.4114
11.38	-9.4981	-0.0370	-1.6888	0.0032	0.0007	0.0094	40.5189	8.2030	8.9006	0.4963	0.4848	0.5910	-0.4114
11.39	-9.4989	-0.0322	-1.6845	-0.0063	0.0001	0.0098	40.5998	8.2036	8.9768	0.4964	0.4849	0.5911	-0.4114
11.4	-9.4949	-0.0293	-1.6806	0.0000	-0.0018	0.0086	40.5933	8.3339	9.0037	0.4964	0.4848	0.5910	-0.4113
11.41	-9.5001	-0.0348	-1.6794	-0.0063	-0.0075	0.0070	40.5812	8.1883	8.8483	0.4964	0.4849	0.5911	-0.4114
11.42	-9.5023	-0.0404	-1.6823	-0.0014	-0.0076	0.0075	40.6894	8.3005	8.8352	0.4964	0.4848	0.5910	-0.4113
11.43	-9.5014	-0.0490	-1.6700	0.0085	-0.0039	0.0110	40.6503	8.2679	8.8766	0.4964	0.4848	0.5910	-0.4113
11.44	-9.5005	-0.0517	-1.6668	0.0019	-0.0071	0.0069	40.5662	8.3434	8.9496	0.4964	0.4848	0.5910	-0.4114
11.45	-9.5010	-0.0521	-1.6688	0.0068	-0.0021	0.0076	40.6089	8.3294	8.9322	0.4964	0.4848	0.5910	-0.4113
11.46	-9.4953	-0.0441	-1.6602	0.0003	-0.0000	0.0096	40.5779	8.1440	8.8364	0.4964	0.4849	0.5911	-0.4114
11.47	-9.4943	-0.0339	-1.6545	0.0036	-0.0083	0.0062	40.5105	8.2880	8.7213	0.4964	0.4848	0.5910	-0.4114
11.48	-9.5037	-0.0340	-1.6578	0.0023	0.0003	0.0077	40.7069	8.4207	8.8188	0.4964	0.4849	0.5910	-0.4114
11.49	-9.4985	-0.0339	-1.6585	-0.0085	-0.0044	0.0030	40.5662	8.1851	8.9548	0.4964	0.4848	0.5910	-0.4113
11.5	-9.4956	-0.0302	-1.6606	-0.0025	-0.0071	0.0048	40.6283	8.3029	8.8027	0.4964	0.4848	0.5911	-0.4113
11.51	-9.5007	-0.0373	-1.6652	-0.0025	-0.0019	0.0034	40.6706	8.2887	8.7430	0.4964	0.4848	0.5911	-0.4113
11.52	-9.4996	-0.0423	-1.6675	-0.0103	0.0027	0.0027	40.4894	8.2712	8.7690	0.4964	0.4847	0.5911	-0.4113
11.53	-9.4977	-0.0462	-1.6699	-0.0053	-0.0059	0.0053	40.5410	8.3090	8.7426	0.4965	0.4847	0.5912	-0.4113
11.54	-9.4994	-0.0496	-1.6747	-0.0054	-0.0052	0.0032	40.4785	8.3502	8.7787	0.4965	0.4847	0.5911	-0.4113
11.55	-9.5008	-0.0541	-1.6824	-0.0143	-0.0021	0.0045	40.4096	8.2532	8.9159	0.4965	0.4847	0.5912	-0.4112
11.56	-9.4954	-0.0469	-1.6752	0.0003	-0.0015	0.0057	40.5007	8.3016	8.9563	0.4964	0.4846	0.5912	-0.4112
11.57	-9.4940	-0.0441	-1.6761	0.0002	-0.0009	0.0098	40.6358	8.1747	8.7936	0.4965	0.4847	0.5912	-0.4112
11.58	-9.4971	-0.0416	-1.6781	0.0020	-0.0006	0.0074	40.8276	8.3845	8.6239	0.4965	0.4847	0.5912	-0.4112
11.59	-9.5031	-0.0394	-1.6790	-0.0014	0.0021	0.0056	40.6146	8.3166	8.7549	0.4965	0.4847	0.5913	-0.4112
11.6	-9.4998	-0.0428	-1.6796	0.0042	-0.0074	0.0080	40.4944	8.0928	8.7722	0.4965	0.4847	0.5912	-0.4112
11.61	-9.4983	-0.0452	-1.6755	0.0021	-0.0109	0.0058	40.6497	8.2479	8.8621	0.4965	0.4847	0.5912	-0.4112
11.62	-9.4995	-0.0474	-1.6875	-0.0049	-0.0033	0.0044	40.6809	8.1385	8.8535	0.4965	0.4846	0.5912	-0.4112
11.63	-9.5010	-0.0484	-1.6902	0.0020	-0.0026	0.0077	40.6806	8.1160	8.8401	0.4965	0.4846	0.5912	-0.4111
11.64	-9.5014	-0.0520	-1.6874	-0.0052	0.0003	0.0101	40.5666	8.0301	8.8795	0.4965	0.4847	0.5913	-0.4112
11.65	-9.5005	-0.0538	-1.6876	0.0012	-0.0065	0.0042	40.9274	8.1941	8.9387	0.4965	0.4846	0.5912	-0.4111
11.66	-9.5023	-0.0494	-1.6912	-0.0028	-0.0047	0.0040	41.2332	8.4481	8.7555	0.4966	0.4846	0.5913	-0.4112
11.67	-9.4945	-0.0500	-1.6875	-0.0018	-0.0020	0.0046	40.9182	8.0896	8.7846	0.4965	0.4846	0.5913	-0.4111
11.68	-9.4923	-0.0523	-1.6926	-0.0008	-0.0055	0.0046	40.6878	8.3114	8.8484	0.4965	0.4846	0.5913	-0.4111
11.69	-9.5002	-0.0520	-1.6869	0.0021	-0.0020	0.0039	40.4464	8.1965	8.6990	0.4965	0.4846	0.5913	-0.4111
11.7	-9.4974	-0.0496	-1.6848	0.0016	-0.0081	0.0044	40.5653	8.3176	8.6264	0.4965	0.4845	0.5913	-0.4111
11.71	-9.4988	-0.0472	-1.6864	0.0014	0.0007	0.0041	40.5626	8.3488	8.7754	0.4965	0.4846	0.5914	-0.4112
11.72	-9.4950	-0.0501	-1.6809	-0.0010	-0.0031	0.0024	40.5720	8.2416	8.7213	0.4965	0.4845	0.5913	-0.4111
11.73	-9.4971	-0.0547	-1.6788	-0.0014	-0.0008	0.0043	40.5033	8.4455	8.7981	0.4965	0.4846	0.5914	-0.4112
