time	acceleration_x	acceleration_y	acceleration_z	gyroscope_x	gyroscope_y	gyroscope_z	magnetometer_x	magnetometer_y	magnetometer_z	quaternion_w	quaternion_x	quaternion_y	quaternion_z
0	-9.6810	-0.9114	-1.9873	-0.0089	-0.0047	-0.0347	38.4923	26.2223	4.8773	0.4663	0.4599	0.6255	-0.4241
0.01	-9.7012	-0.8941	-2.0019	-0.0068	-0.0007	-0.0401	38.6361	26.2252	4.6631	0.4663	0.4599	0.6254	-0.4241
0.02	-9.6949	-0.8894	-2.0035	-0.0072	-0.0017	-0.0395	38.6436	26.1819	4.7894	0.4663	0.4600	0.6254	-0.4241
0.03	-9.6904	-0.9023	-2.0121	-0.0050	0.0001	-0.0381	38.4357	26.0086	4.9086	0.4662	0.4601	0.6253	-0.4240
0.04	-9.6968	-0.8933	-2.0196	-0.0048	0.0004	-0.0476	38.5401	26.1845	5.0167	0.4662	0.4602	0.6254	-0.4241
0.05	-9.6959	-0.9027	-1.9984	-0.0037	-0.0038	-0.0425	38.7103	26.2233	4.9740	0.4662	0.4602	0.6253	-0.4240
0.06	-9.6724	-0.9097	-2.0011	-0.0023	0.0014	-0.0459	38.5976	26.2381	4.7677	0.4662	0.4603	0.6253	-0.4241
0.07	-9.6615	-0.8894	-1.9968	-0.0020	-0.0030	-0.0471	38.4525	26.1031	5.0452	0.4661	0.4604	0.6253	-0.4241
0.08	-9.6687	-0.8969	-1.9925	-0.0191	-0.0141	-0.0414	38.4146	26.1857	4.9336	0.4662	0.4604	0.6252	-0.4241
0.09	-9.6717	-0.9168	-2.0115	-0.0153	-0.0073	-0.0470	38.7207	26.5780	5.1522	0.4662	0.4604	0.6252	-0.4241
0.1	-9.6841	-0.8964	-1.9905	-0.0058	-0.0052	-0.0483	38.5005	26.2599	5.0418	0.4661	0.4604	0.6252	-0.4240
0.11	-9.6955	-0.9154	-2.0095	-0.0158	-0.0076	-0.0493	38.2481	26.3643	4.7351	0.4662	0.4605	0.6252	-0.4241
0.12	-9.6652	-0.9210	-2.0048	-0.0187	-0.0117	-0.0442	38.3984	26.3283	5.0246	0.4662	0.4605	0.6252	-0.4240
0.13	-9.6493	-0.9059	-2.0051	-0.0104	0.0010	-0.0397	38.5840	26.1619	4.9055	0.4662	0.4606	0.6252	-0.4240
0.14	-9.6766	-0.8989	-2.0211	-0.0099	0.0027	-0.0489	38.5897	26.3418	4.9037	0.4661	0.4606	0.6251	-0.4240
0.15	-9.6844	-0.9045	-2.0200	-0.0108	0.0022	-0.0468	38.4190	26.2882	5.0060	0.4661	0.4607	0.6252	-0.4240
0.16	-9.6856	-0.9038	-2.0207	-0.0024	-0.0046	-0.0485	38.4438	26.3209	4.8182	0.4660	0.4607	0.6251	-0.4240
0.17	-9.7111	-0.9138	-2.0190	-0.0085	-0.0109	-0.0404	38.5052	26.3009	5.1147	0.4660	0.4607	0.6250	-0.4240
0.18	-9.7617	-0.9132	-2.0256	-0.0078	-0.0035	-0.0433	38.4806	26.2263	4.9592	0.4660	0.4608	0.6251	-0.4241
0.19	-9.7799	-0.9122	-2.0296	-0.0141	-0.0167	-0.0506	38.6285	26.1938	4.7531	0.4660	0.4608	0.6250	-0.4241
0.2	-9.7747	-0.9177	-2.0425	-0.0088	-0.0187	-0.0503	38.7382	26.3076	4.8941	0.4660	0.4608	0.6251	-0.4242
0.21	-9.7394	-0.9263	-2.0497	-0.0104	-0.0304	-0.0427	38.7698	26.2310	4.9290	0.4660	0.4607	0.6249	-0.4242
0.22	-9.7113	-0.9125	-2.0574	-0.0089	-0.0331	-0.0330	38.7283	26.0959	4.6314	0.4661	0.4608	0.6249	-0.4243
0.23	-9.7141	-0.8978	-2.0681	-0.0178	-0.0310	-0.0339	38.4790	26.3516	4.8759	0.4662	0.4608	0.6248	-0.4243
0.24	-9.7419	-0.8457	-2.0530	-0.0088	-0.0298	-0.0331	39.1153	26.4442	5.1317	0.4662	0.4608	0.6247	-0.4244
0.25	-9.7678	-0.8332	-2.0422	-0.0114	-0.0416	-0.0332	39.2967	26.1798	4.9733	0.4663	0.4609	0.6245	-0.4245
0.26	-9.8138	-0.8325	-2.0304	-0.0289	-0.0447	-0.0344	38.8524	26.2133	4.8044	0.4664	0.4608	0.6244	-0.4245
0.27	-9.7740	-0.8324	-2.0122	-0.0280	-0.0533	-0.0339	38.3359	26.2246	5.0512	0.4666	0.4607	0.6243	-0.4246
0.28	-9.7351	-0.8395	-1.9803	-0.0298	-0.0610	-0.0349	38.2310	26.1821	4.9965	0.4668	0.4606	0.6241	-0.4246
0.29	-9.7079	-0.8290	-1.9580	-0.0309	-0.0642	-0.0339	38.6073	26.3802	4.8509	0.4670	0.4605	0.6241	-0.4247
0.3	-9.6531	-0.8229	-1.9433	-0.0307	-0.0664	-0.0333	38.1061	26.3369	4.7317	0.4672	0.4604	0.6239	-0.4248
0.31	-9.6284	-0.8359	-1.9304	-0.0296	-0.0575	-0.0308	38.3252	26.3465	4.9600	0.4674	0.4603	0.6238	-0.4248
0.32	-9.6085	-0.8309	-1.9185	-0.0305	-0.0537	-0.0324	38.1634	26.3581	4.9777	0.4676	0.4602	0.6237	-0.4249
0.33	-9.6005	-0.8205	-1.9160	-0.0298	-0.0477	-0.0344	38.3523	26.3174	4.8504	0.4678	0.4602	0.6236	-0.4249
0.34	-9.5911	-0.8271	-1.9176	-0.0316	-0.0467	-0.0341	38.3767	26.2351	4.6939	0.4680	0.4601	0.6235	-0.4249
0.35	-9.6058	-0.8335	-1.9108	-0.0289	-0.0325	-0.0335	38.3755	26.2717	4.7839	0.4681	0.4601	0.6234	-0.4248
0.36	-9.6258	-0.8405	-1.9096	-0.0299	-0.0390	-0.0369	38.3616	26.2507	4.8903	0.4683	0.4601	0.6234	-0.4249
0.37	-9.6236	-0.8386	-1.9071	-0.0304	-0.0249	-0.0403	38.7112	26.2667	4.7588	0.4684	0.4600	0.6233	-0.4248
0.38	-9.6200	-0.8521	-1.9182	-0.0306	-0.0224	-0.0443	38.4084	25.9988	4.8132	0.4685	0.4600	0.6233	-0.4249
0.39	-9.6020	-0.8597	-1.9203	-0.0263	-0.0109	-0.0467	38.3503	25.9960	4.7902	0.4685	0.4600	0.6232	-0.4248
0.4	-9.5794	-0.8618	-1.9122	-0.0267	-0.0132	-0.0453	38.6063	26.1003	4.7950	0.4686	0.4600	0.6232	-0.4248
0.41	-9.6560	-0.8719	-1.9247	-0.0306	0.0026	-0.0487	38.3374	26.0930	4.8087	0.4686	0.4600	0.6233	-0.4247
0.42	-9.6801	-0.8868	-1.9452	-0.0293	0.0046	-0.0571	38.4564	26.0027	4.7146	0.4685	0.4599	0.6233	-0.4246
0.43	-9.6273	-0.9077	-1.9406	-0.0297	0.0068	-0.0596	38.5699	25.9933	4.6985	0.4686	0.4600	0.6235	-0.4246
0.44	-9.6720	-0.9316	-1.9610	-0.0305	0.0130	-0.0567	38.5298	25.9979	4.5644	0.4685	0.4599	0.6235	-0.4245
0.45	-9.6993	-0.9379	-1.9602	-0.0301	0.0006	-0.0487	38.3697	26.2436	4.7339	0.4685	0.4600	0.6236	-0.4245
0.46	-9.7062	-0.9409	-1.9769	-0.0295	-0.0006	-0.0522	38.3819	26.2645	4.9234	0.4684	0.4599	0.6235	-0.4244
0.47	-9.7068	-0.9324	-1.9974	-0.0308	0.0022	-0.0433	38.3539	26.2671	4.8402	0.4685	0.4599	0.6237	-0.4243
0.48	-9.6821	-0.9387	-1.9801	-0.0295	-0.0077	-0.0480	38.4289	26.2226	4.9677	0.4685	0.4599	0.6237	-0.4243
0.49	-9.6956	-0.9663	-1.9996	-0.0287	-0.0063	-0.0498	38.4834	26.1247	4.9158	0.4685	0.4599	0.6237	-0.4242
0.5	-9.6878	-0.9788	-2.0011	-0.0236	0.0027	-0.0534	38.3593	26.3999	4.7587	0.4685	0.4599	0.6237	-0.4242
0.51	-9.6705	-0.9702	-2.0041	-0.0125	-0.0078	-0.0550	38.5082	26.2974	5.0814	0.4685	0.4599	0.6237	-0.4242
0.52	-9.6873	-0.9708	-1.9950	-0.0039	-0.0030	-0.0412	38.4008	26.2501	4.8009	0.4685	0.4600	0.6237	-0.4243
0.53	-9.6865	-0.9720	-1.9868	-0.0042	-0.0056	-0.0468	38.2746	26.2584	4.7964	0.4684	0.4600	0.6236	-0.4242
0.54	-9.6772	-0.9708	-1.9859	-0.0043	-0.0082	-0.0434	38.2909	26.2666	4.7647	0.4684	0.4601	0.6236	-0.4243
0.55	-9.6707	-0.9564	-1.9877	-0.0017	-0.0119	-0.0387	38.1007	25.9073	4.8687	0.4684	0.4602	0.6235	-0.4243
0.56	-9.6661	-0.9526	-1.9922	-0.0005	-0.0164	-0.0396	38.2058	26.0273	4.8334	0.4684	0.4602	0.6235	-0.4244
0.57	-9.6724	-0.9500	-1.9916	-0.0029	-0.0092	-0.0432	38.5405	26.2288	4.6772	0.4684	0.4603	0.6234	-0.4244
0.58	-9.6756	-0.9362	-2.0002	-0.0038	-0.0041	-0.0340	38.4868	25.7357	4.8428	0.4684	0.4604	0.6233	-0.4244
0.59	-9.6656	-0.9303	-1.9999	-0.0052	-0.0087	-0.0345	38.3137	25.8180	4.7708	0.4684	0.4605	0.6233	-0.4244
0.6	-9.6620	-0.9316	-1.9975	-0.0049	-0.0080	-0.0367	38.4870	26.1055	4.8920	0.4683	0.4605	0.6232	-0.4244
0.61	-9.6706	-0.9238	-1.9932	-0.0036	-0.0102	-0.0368	38.2458	26.0788	4.7923	0.4684	0.4607	0.6232	-0.4245
0.62	-9.6698	-0.9278	-1.9958	-0.0045	-0.0111	-0.0328	38.3076	26.2324	4.6069	0.4684	0.4607	0.6230	-0.4245
0.63	-9.6736	-0.9264	-2.0014	-0.0047	-0.0138	-0.0321	38.5216	26.2870	4.6742	0.4684	0.4608	0.6230	-0.4245
0.64	-9.7014	-0.9228	-2.0041	-0.0037	-0.0146	-0.0324	38.6708	26.1473	4.7965	0.4684	0.4608	0.6229	-0.4245
0.65	-9.7084	-0.9234	-2.0028	-0.0033	-0.0050	-0.0321	38.3770	26.3192	4.7002	0.4684	0.4609	0.6228	-0.4245
0.66	-9.7174	-0.9337	-2.0157	-0.0055	-0.0114	-0.0325	38.5849	26.3389	4.8236	0.4684	0.4610	0.6228	-0.4245
0.67	-9.7243	-0.9313	-1.9992	-0.0011	-0.0159	-0.0319	38.3896	26.4355	4.7704	0.4684	0.4611	0.6227	-0.4246
0.68	-9.7292	-0.9257	-1.9882	0.0002	-0.0132	-0.0330	38.2653	26.3349	4.7978	0.4684	0.4612	0.6227	-0.4247
0.69	-9.7191	-0.9196	-1.9867	0.0045	-0.0176	-0.0328	38.4433	26.2264	4.6392	0.4684	0.4612	0.6225	-0.4247
0.7	-9.6951	-0.9115	-1.9763	0.0075	-0.0232	-0.0336	38.7116	26.2961	4.5690	0.4684	0.4613	0.6224	-0.4248
0.71	-9.6814	-0.9160	-1.9777	0.0116	-0.0276	-0.0323	38.3251	26.1402	4.8078	0.4684	0.4614	0.6222	-0.4248
0.72	-9.6810	-0.9057	-1.9778	0.0165	-0.0227	-0.0319	38.4317	26.3192	4.7837	0.4684	0.4615	0.6221	-0.4250
0.73	-9.6591	-0.8961	-1.9548	0.0123	-0.0264	-0.0319	38.5998	26.3242	4.6208	0.4684	0.4616	0.6219	-0.4251
0.74	-9.6725	-0.8977	-1.9540	0.0135	-0.0266	-0.0192	38.8118	26.1671	4.5956	0.4685	0.4617	0.6218	-0.4251
0.75	-9.7064	-0.8850	-1.9448	0.0229	-0.0220	-0.0145	38.8971	26.0838	4.7229	0.4685	0.4619	0.6216	-0.4252
0.76	-9.7057	-0.8849	-1.9466	0.0209	-0.0273	-0.0167	38.8445	26.0269	4.7213	0.4685	0.4621	0.6214	-0.4253
0.77	-9.6957	-0.8645	-1.9526	0.0257	-0.0216	-0.0155	38.5581	26.0685	4.6061	0.4686	0.4622	0.6212	-0.4254
0.78	-9.6690	-0.8310	-1.9345	0.0290	-0.0205	-0.0123	38.5898	26.0574	4.6521	0.4685	0.4624	0.6209	-0.4255
0.79	-9.6844	-0.8139	-1.9298	0.0217	-0.0184	-0.0156	38.6988	26.0332	4.4824	0.4686	0.4626	0.6208	-0.4256
0.8	-9.7021	-0.8110	-1.9305	0.0310	-0.0089	-0.0223	38.3677	26.1954	4.6386	0.4685	0.4628	0.6206	-0.4256
0.81	-9.6620	-0.8085	-1.9265	0.0260	-0.0180	-0.0255	38.7044	25.9507	4.7702	0.4685	0.4630	0.6204	-0.4258
0.82	-9.7052	-0.8222	-1.9197	0.0219	-0.0080	-0.0307	38.4615	25.9607	4.6101	0.4684	0.4631	0.6203	-0.4258
0.83	-9.7784	-0.8069	-1.9470	0.0202	-0.0147	-0.0301	38.6102	25.9083	4.3724	0.4684	0.4633	0.6201	-0.4259
0.84	-9.7464	-0.8122	-1.9249	0.0200	-0.0229	-0.0309	38.5625	25.8778	4.5952	0.4684	0.4634	0.6200	-0.4261
0.85	-9.7427	-0.8246	-1.9374	0.0183	-0.0220	-0.0262	38.5064	26.0734	4.6425	0.4683	0.4634	0.6198	-0.4261
0.86	-9.7058	-0.8169	-1.9281	0.0205	-0.0261	-0.0292	38.7462	25.9100	4.6352	0.4684	0.4636	0.6197	-0.4263
0.87	-9.6974	-0.8271	-1.9103	0.0184	-0.0247	-0.0247	38.7051	26.0014	4.6098	0.4684	0.4637	0.6195	-0.4264
0.88	-9.6672	-0.8069	-1.9204	0.0209	-0.0251	-0.0248	38.6697	26.0702	4.7135	0.4684	0.4639	0.6194	-0.4265
0.89	-9.6409	-0.7906	-1.9053	0.0199	-0.0153	-0.0336	38.4901	25.9331	4.7198	0.4683	0.4640	0.6192	-0.4265
0.9	-9.6658	-0.7875	-1.9083	0.0211	-0.0130	-0.0322	38.6873	25.8430	4.6317	0.4683	0.4641	0.6191	-0.4267
0.91	-9.6695	-0.7957	-1.9000	0.0208	-0.0111	-0.0343	38.5158	25.8922	4.5690	0.4682	0.4642	0.6190	-0.4268
0.92	-9.6828	-0.7984	-1.8888	0.0207	-0.0171	-0.0360	38.6210	26.0759	4.2158	0.4682	0.4643	0.6188	-0.4268
0.93	-9.6929	-0.7882	-1.8986	0.0196	-0.0169	-0.0372	38.6975	25.7983	4.3969	0.4682	0.4645	0.6187	-0.4270
0.94	-9.6896	-0.7699	-1.8899	0.0207	-0.0151	-0.0327	38.7730	25.8138	4.4709	0.4681	0.4646	0.6186	-0.4271
0.95	-9.6919	-0.7707	-1.8933	0.0151	-0.0147	-0.0387	38.7374	25.8442	4.4261	0.4681	0.4647	0.6185	-0.4272
0.96	-9.6849	-0.7718	-1.8950	0.0120	-0.0147	-0.0392	38.6975	25.6333	4.5676	0.4680	0.4647	0.6183	-0.4272
0.97	-9.6880	-0.7728	-1.9026	0.0028	-0.0119	-0.0364	38.9097	25.8527	4.4024	0.4680	0.4649	0.6183	-0.4273
0.98	-9.7077	-0.7849	-1.9091	-0.0005	-0.0112	-0.0457	38.7567	25.8158	4.3641	0.4680	0.4649	0.6182	-0.4274
0.99	-9.7224	-0.7918	-1.9104	-0.0045	-0.0111	-0.0415	38.8113	25.7464	4.5948	0.4680	0.4649	0.6181	-0.4274
1	-9.7116	-0.8027	-1.9214	-0.0054	-0.0124	-0.0414	38.8048	25.8861	4.3938	0.4680	0.4650	0.6181	-0.4274
1.01	-9.7220	-0.8035	-1.9133	-0.0075	-0.0140	-0.0351	38.6259	25.8474	4.3971	0.4680	0.4650	0.6180	-0.4275
1.02	-9.7253	-0.8196	-1.9100	-0.0114	-0.0178	-0.0420	38.4787	25.8732	4.4451	0.4680	0.4651	0.6180	-0.4275
1.03	-9.7228	-0.8223	-1.9071	-0.0099	-0.0165	-0.0418	38.6366	25.8387	4.5575	0.4680	0.4651	0.6179	-0.4275
1.04	-9.6956	-0.8324	-1.9149	-0.0121	-0.0109	-0.0429	38.6122	25.9991	4.3919	0.4681	0.4651	0.6179	-0.4275
1.05	-9.6478	-0.8275	-1.8852	-0.0145	-0.0110	-0.0372	38.7958	26.0217	4.3906	0.4681	0.4652	0.6179	-0.4275
1.06	-9.7042	-0.8283	-1.8953	-0.0079	-0.0055	-0.0383	38.7505	25.8736	4.4699	0.4681	0.4652	0.6178	-0.4275
1.07	-9.7175	-0.8349	-1.9132	-0.0073	-0.0150	-0.0425	38.5785	26.2876	4.4400	0.4681	0.4652	0.6178	-0.4275
1.08	-9.6503	-0.8474	-1.8806	-0.0047	-0.0155	-0.0371	38.6777	26.1206	4.4191	0.4681	0.4653	0.6177	-0.4276
1.09	-9.6868	-0.8658	-1.9014	-0.0078	-0.0052	-0.0404	38.6967	25.8450	4.5354	0.4681	0.4654	0.6177	-0.4276
1.1	-9.7125	-0.8616	-1.8998	-0.0049	-0.0112	-0.0328	38.8125	26.1795	4.4563	0.4680	0.4654	0.6176	-0.4276
1.11	-9.6983	-0.8394	-1.8853	0.0039	-0.0145	-0.0334	38.6677	25.9717	4.3431	0.4681	0.4655	0.6175	-0.4277
1.12	-9.6844	-0.8119	-1.8954	0.0068	-0.0118	-0.0317	38.7974	25.6932	4.4940	0.4680	0.4656	0.6174	-0.4277
1.13	-9.6855	-0.8015	-1.8939	0.0053	-0.0078	-0.0399	38.9316	25.8939	4.4289	0.4681	0.4657	0.6174	-0.4278
1.14	-9.6847	-0.8211	-1.9099	-0.0009	-0.0033	-0.0481	38.8666	25.7535	4.4689	0.4679	0.4657	0.6173	-0.4278
1.15	-9.7023	-0.8235	-1.9081	0.0071	-0.0103	-0.0436	38.6564	25.7926	4.4393	0.4679	0.4658	0.6173	-0.4279
1.16	-9.7021	-0.8030	-1.9231	0.0048	-0.0045	-0.0463	38.7911	25.7428	4.6617	0.4679	0.4659	0.6172	-0.4279
1.17	-9.6903	-0.8047	-1.9235	0.0050	-0.0114	-0.0432	38.7215	25.8789	4.5397	0.4678	0.4659	0.6171	-0.4280
1.18	-9.7022	-0.7987	-1.9218	0.0014	-0.0102	-0.0423	38.7974	25.8316	4.4600	0.4678	0.4661	0.6171	-0.4281
1.19	-9.7168	-0.8028	-1.9190	0.0009	-0.0106	-0.0458	38.6613	25.9339	4.3915	0.4677	0.4661	0.6170	-0.4281
1.2	-9.7129	-0.8041	-1.9258	0.0038	-0.0107	-0.0455	38.5878	25.8788	4.1395	0.4677	0.4662	0.6170	-0.4282
1.21	-9.7079	-0.8095	-1.9134	-0.0046	-0.0111	-0.0439	38.6643	25.8653	4.2695	0.4677	0.4661	0.6169	-0.4282
1.22	-9.7091	-0.8135	-1.9029	-0.0044	-0.0088	-0.0402	38.4273	25.9234	4.2789	0.4677	0.4662	0.6169	-0.4283
1.23	-9.6898	-0.8136	-1.9010	-0.0057	-0.0068	-0.0365	38.5870	25.9065	4.5867	0.4677	0.4663	0.6168	-0.4283
1.24	-9.6979	-0.8175	-1.9069	-0.0040	-0.0078	-0.0427	39.1167	26.1911	4.7179	0.4676	0.4663	0.6168	-0.4283
1.25	-9.7121	-0.8191	-1.9051	-0.0087	-0.0081	-0.0354	39.0564	25.9963	4.8332	0.4677	0.4664	0.6167	-0.4283
1.26	-9.7090	-0.8159	-1.8990	-0.0032	-0.0060	-0.0427	38.6647	26.0532	4.3986	0.4676	0.4665	0.6167	-0.4283
1.27	-9.7082	-0.8157	-1.9073	-0.0114	-0.0084	-0.0426	38.4142	25.8628	4.4339	0.4676	0.4665	0.6167	-0.4283
1.28	-9.6955	-0.8046	-1.8988	-0.0041	-0.0090	-0.0437	38.3841	25.8654	4.4533	0.4676	0.4665	0.6166	-0.4283
1.29	-9.6944	-0.7925	-1.9014	0.0000	-0.0113	-0.0437	38.4265	25.7908	4.5952	0.4676	0.4666	0.6166	-0.4284
1.3	-9.6825	-0.8007	-1.8792	0.0000	-0.0099	-0.0453	38.4160	25.7654	4.4869	0.4675	0.4666	0.6165	-0.4285
1.31	-9.6728	-0.7875	-1.8783	-0.0044	-0.0076	-0.0486	38.6718	25.5985	4.4705	0.4675	0.4667	0.6165	-0.4285
1.32	-9.6693	-0.7843	-1.8801	-0.0032	-0.0006	-0.0397	38.7667	25.5481	4.4472	0.4675	0.4667	0.6164	-0.4285
1.33	-9.6593	-0.7760	-1.8779	-0.0047	0.0089	-0.0570	38.7938	25.8288	4.5218	0.4674	0.4668	0.6165	-0.4285
1.34	-9.6247	-0.7681	-1.8620	-0.0053	0.0094	-0.0553	38.6753	25.8443	4.5046	0.4673	0.4668	0.6165	-0.4286
1.35	-9.6212	-0.7788	-1.8546	-0.0126	0.0124	-0.0557	38.4478	25.7425	4.4510	0.4671	0.4668	0.6165	-0.4285
1.36	-9.6155	-0.7856	-1.8612	-0.0197	0.0145	-0.0582	38.6537	25.8437	4.4499	0.4671	0.4669	0.6166	-0.4285
1.37	-9.6040	-0.7823	-1.8658	-0.0122	0.0271	-0.0592	38.5058	25.8265	4.5176	0.4669	0.4669	0.6167	-0.4285
1.38	-9.6202	-0.8038	-1.8800	-0.0247	0.0368	-0.0601	38.5729	25.8493	4.5179	0.4668	0.4670	0.6169	-0.4284
1.39	-9.6253	-0.8095	-1.8890	-0.0246	0.0365	-0.0592	38.5998	25.7277	4.3292	0.4666	0.4670	0.6169	-0.4283
1.4	-9.6521	-0.8089	-1.8871	-0.0289	0.0487	-0.0581	38.4721	25.8761	4.6473	0.4665	0.4671	0.6171	-0.4282
1.41	-9.7123	-0.8191	-1.9240	-0.0250	0.0546	-0.0561	38.5183	25.9610	4.6234	0.4663	0.4672	0.6173	-0.4280
1.42	-9.7508	-0.8246	-1.9496	-0.0271	0.0465	-0.0605	38.5055	26.1252	4.6802	0.4661	0.4672	0.6175	-0.4279
1.43	-9.7359	-0.8410	-1.9702	-0.0306	0.0379	-0.0591	38.3059	25.9658	4.3842	0.4660	0.4673	0.6177	-0.4278
1.44	-9.7430	-0.8400	-1.9874	-0.0269	0.0357	-0.0575	38.4765	25.7885	4.5684	0.4658	0.4673	0.6178	-0.4277
1.45	-9.7638	-0.8150	-1.9731	-0.0268	0.0271	-0.0584	38.5129	25.8914	4.6681	0.4657	0.4674	0.6180	-0.4276
1.46	-9.7630	-0.8397	-2.0077	-0.0275	0.0229	-0.0610	38.5597	26.0339	4.6375	0.4655	0.4673	0.6180	-0.4275
1.47	-9.7282	-0.8446	-2.0029	-0.0285	0.0157	-0.0623	38.7657	26.0806	4.7368	0.4655	0.4673	0.6182	-0.4275
1.48	-9.7542	-0.8409	-1.9910	-0.0248	0.0173	-0.0608	38.6870	26.0029	4.6047	0.4654	0.4673	0.6183	-0.4275
1.49	-9.8156	-0.8426	-2.0137	-0.0233	0.0046	-0.0620	38.5170	25.9451	4.6707	0.4653	0.4673	0.6184	-0.4275
1.5	-9.7665	-0.8478	-1.9921	-0.0237	-0.0059	-0.0621	38.8463	25.8197	4.5357	0.4652	0.4672	0.6185	-0.4275
1.51	-9.7219	-0.8534	-1.9856	-0.0225	-0.0086	-0.0618	38.6845	25.9501	4.5570	0.4652	0.4672	0.6185	-0.4275
1.52	-9.7025	-0.8663	-1.9885	-0.0328	-0.0128	-0.0560	38.5126	25.7063	4.5605	0.4652	0.4671	0.6186	-0.4275
1.53	-9.6922	-0.8682	-1.9818	-0.0262	-0.0110	-0.0555	38.4718	25.8476	4.5353	0.4652	0.4670	0.6185	-0.4275
1.54	-9.6721	-0.8445	-1.9848	-0.0213	-0.0141	-0.0522	38.5569	25.9175	4.6928	0.4652	0.4670	0.6186	-0.4276
1.55	-9.6586	-0.8305	-1.9824	-0.0166	-0.0058	-0.0452	38.3755	25.8082	4.7374	0.4652	0.4670	0.6186	-0.4276
1.56	-9.6500	-0.8305	-1.9927	-0.0230	-0.0031	-0.0542	38.3694	26.1157	4.7561	0.4652	0.4670	0.6186	-0.4276
1.57	-9.6557	-0.8420	-2.0046	-0.0232	-0.0069	-0.0576	38.5209	26.0801	4.5996	0.4652	0.4670	0.6186	-0.4276
1.58	-9.6529	-0.8402	-1.9947	-0.0287	-0.0068	-0.0572	38.5235	25.9990	4.5849	0.4652	0.4669	0.6187	-0.4276
1.59	-9.6634	-0.8299	-1.9895	-0.0239	0.0009	-0.0616	38.3972	26.0019	4.8244	0.4652	0.4669	0.6188	-0.4276
1.6	-9.6818	-0.8186	-1.9956	-0.0236	-0.0024	-0.0581	38.2640	26.0266	4.5153	0.4651	0.4668	0.6187	-0.4275
1.61	-9.6969	-0.8155	-1.9841	-0.0234	-0.0095	-0.0588	38.5817	25.9657	4.6688	0.4651	0.4669	0.6189	-0.4276
1.62	-9.7080	-0.8292	-1.9941	-0.0237	-0.0047	-0.0693	38.4238	25.9721	4.9466	0.4651	0.4668	0.6189	-0.4276
1.63	-9.7096	-0.8355	-1.9994	-0.0280	-0.0075	-0.0611	38.4275	26.2169	4.7810	0.4651	0.4667	0.6190	-0.4276
1.64	-9.6849	-0.8461	-1.9842	-0.0297	-0.0016	-0.0643	38.3970	26.1735	4.5908	0.4650	0.4666	0.6190	-0.4276
1.65	-9.6877	-0.8528	-1.9973	-0.0282	-0.0050	-0.0607	38.3333	26.0633	4.9283	0.4650	0.4666	0.6190	-0.4276
1.66	-9.6905	-0.8661	-1.9909	-0.0306	-0.0073	-0.0597	38.4531	26.1601	4.8589	0.4651	0.4665	0.6191	-0.4276
1.67	-9.6976	-0.8731	-1.9870	-0.0328	-0.0038	-0.0572	38.3711	25.8315	4.7537	0.4650	0.4665	0.6191	-0.4275
1.68	-9.6998	-0.8802	-1.9890	-0.0310	-0.0125	-0.0580	38.6496	25.9321	4.6024	0.4651	0.4665	0.6192	-0.4276
1.69	-9.6849	-0.8992	-1.9907	-0.0295	-0.0012	-0.0568	38.5372	26.0379	4.5666	0.4651	0.4664	0.6192	-0.4275
1.7	-9.6735	-0.9019	-1.9992	-0.0343	-0.0072	-0.0580	38.4827	25.7483	4.6967	0.4651	0.4663	0.6193	-0.4275
1.71	-9.6534	-0.8946	-1.9855	-0.0322	-0.0119	-0.0499	38.5828	25.7323	4.5291	0.4651	0.4662	0.6192	-0.4274
1.72	-9.7205	-0.9108	-2.0016	-0.0292	-0.0086	-0.0529	38.7268	25.9788	4.5722	0.4651	0.4662	0.6193	-0.4274
1.73	-9.7080	-0.9105	-1.9916	-0.0306	-0.0116	-0.0569	38.6149	26.0447	4.8860	0.4652	0.4662	0.6194	-0.4274
1.74	-9.6775	-0.9145	-1.9834	-0.0304	-0.0113	-0.0590	38.9184	26.1992	4.9301	0.4652	0.4661	0.6194	-0.4274
1.75	-9.6824	-0.9279	-1.9818	-0.0303	-0.0184	-0.0502	39.1698	26.2676	4.9117	0.4652	0.4661	0.6194	-0.4274
1.76	-9.6838	-0.9201	-1.9616	-0.0306	-0.0175	-0.0426	38.8127	26.2776	4.7963	0.4653	0.4660	0.6194	-0.4274
1.77	-9.6592	-0.9197	-1.9832	-0.0310	-0.0132	-0.0409	38.6460	26.1002	4.5454	0.4654	0.4660	0.6194	-0.4274
1.78	-9.6380	-0.9037	-1.9828	-0.0305	-0.0137	-0.0388	38.4615	26.0286	4.5124	0.4654	0.4660	0.6193	-0.4273
1.79	-9.6456	-0.8997	-1.9858	-0.0289	-0.0069	-0.0393	38.5507	26.1353	4.6804	0.4655	0.4660	0.6194	-0.4273
1.8	-9.6571	-0.9021	-1.9900	-0.0306	-0.0047	-0.0357	38.4958	26.1295	4.5428	0.4655	0.4660	0.6193	-0.4272
1.81	-9.6515	-0.9091	-1.9927	-0.0293	-0.0030	-0.0397	38.5499	26.0409	4.5903	0.4656	0.4661	0.6194	-0.4271
1.82	-9.6594	-0.9130	-1.9995	-0.0308	-0.0025	-0.0332	38.3851	26.0343	4.8339	0.4656	0.4661	0.6193	-0.4270
1.83	-9.6674	-0.9088	-2.0013	-0.0357	0.0005	-0.0324	38.6172	26.0064	4.6954	0.4657	0.4661	0.6194	-0.4269
1.84	-9.6624	-0.8957	-2.0085	-0.0313	-0.0061	-0.0334	38.4948	25.9117	4.7281	0.4658	0.4661	0.6194	-0.4269
1.85	-9.6792	-0.9046	-2.0018	-0.0295	0.0013	-0.0330	38.3740	26.0219	4.7301	0.4657	0.4661	0.6193	-0.4267
1.86	-9.6894	-0.8847	-2.0180	-0.0302	0.0019	-0.0329	38.6726	26.0644	4.6919	0.4658	0.4662	0.6194	-0.4267
1.87	-9.6832	-0.8665	-1.9977	-0.0297	-0.0084	-0.0280	38.7103	25.8048	4.8020	0.4659	0.4663	0.6193	-0.4266
1.88	-9.6760	-0.8637	-1.9946	-0.0308	-0.0116	-0.0347	38.8926	25.8316	4.7520	0.4660	0.4663	0.6194	-0.4266
1.89	-9.6699	-0.8477	-2.0052	-0.0297	-0.0016	-0.0278	38.8550	25.8632	4.7275	0.4660	0.4663	0.6193	-0.4264
1.9	-9.6727	-0.8362	-2.0072	-0.0326	-0.0097	-0.0278	38.7779	25.7637	4.6997	0.4661	0.4664	0.6193	-0.4263
1.91	-9.6708	-0.8312	-1.9931	-0.0433	-0.0129	-0.0276	38.5811	25.8974	4.6225	0.4662	0.4664	0.6193	-0.4262
1.92	-9.6734	-0.8328	-1.9974	-0.0508	-0.0120	-0.0226	38.7145	25.8284	4.6048	0.4663	0.4663	0.6192	-0.4261
1.93	-9.6694	-0.8138	-2.0004	-0.0556	-0.0017	-0.0194	38.6493	25.8797	4.8955	0.4665	0.4664	0.6193	-0.4259
1.94	-9.6567	-0.8128	-2.0005	-0.0567	-0.0070	-0.0148	38.5325	25.9723	4.5356	0.4666	0.4664	0.6193	-0.4257
1.95	-9.6611	-0.8279	-1.9954	-0.0564	-0.0071	-0.0091	38.8331	25.8790	4.7413	0.4669	0.4665	0.6193	-0.4255
1.96	-9.6535	-0.8118	-1.9884	-0.0583	-0.0009	-0.0088	38.6894	25.8383	4.8676	0.4670	0.4664	0.6192	-0.4252
1.97	-9.6501	-0.8221	-2.0002	-0.0638	0.0037	-0.0206	38.5489	25.8771	4.4468	0.4671	0.4665	0.6193	-0.4250
1.98	-9.6404	-0.8320	-2.0087	-0.0612	0.0045	-0.0170	38.7371	25.9818	4.7933	0.4672	0.4665	0.6193	-0.4248
1.99	-9.6361	-0.8232	-2.0140	-0.0518	0.0056	-0.0183	38.7390	25.8658	4.8481	0.4674	0.4665	0.6194	-0.4246
2	-9.6557	-0.8154	-2.0139	-0.0511	0.0199	-0.0238	38.5742	25.7584	4.6811	0.4674	0.4666	0.6195	-0.4244
2.01	-9.6555	-0.8241	-2.0180	-0.0544	0.0133	-0.0311	38.7418	25.6403	4.8087	0.4675	0.4666	0.6195	-0.4242
2.02	-9.6581	-0.8209	-2.0282	-0.0371	0.0136	-0.0335	38.6348	25.7613	4.7453	0.4675	0.4667	0.6196	-0.4240
2.03	-9.6547	-0.8134	-2.0248	-0.0307	0.0133	-0.0336	38.4812	25.7695	4.8067	0.4674	0.4667	0.6196	-0.4239
2.04	-9.6844	-0.8133	-2.0189	-0.0291	0.0210	-0.0331	38.7718	25.6766	4.9283	0.4675	0.4669	0.6197	-0.4238
2.05	-9.7232	-0.8080	-2.0263	-0.0207	0.0181	-0.0335	38.7427	25.6525	4.7804	0.4674	0.4669	0.6197	-0.4236
2.06	-9.7361	-0.7949	-2.0466	-0.0150	0.0105	-0.0345	38.9446	25.5503	4.8555	0.4674	0.4670	0.6197	-0.4236
2.07	-9.7434	-0.7731	-2.0560	-0.0116	0.0079	-0.0327	38.9628	25.7281	4.7939	0.4673	0.4671	0.6197	-0.4235
2.08	-9.7704	-0.7706	-2.0535	-0.0089	-0.0052	-0.0390	38.8512	25.6283	4.9969	0.4673	0.4672	0.6197	-0.4236
2.09	-9.7736	-0.7718	-2.0646	-0.0057	-0.0125	-0.0320	38.6632	25.6207	4.9679	0.4673	0.4672	0.6196	-0.4236
2.1	-9.7257	-0.7679	-2.0500	-0.0052	-0.0148	-0.0369	38.8742	25.8078	4.8060	0.4672	0.4672	0.6195	-0.4236
2.11	-9.7332	-0.7583	-2.0514	-0.0115	-0.0152	-0.0374	38.9501	25.5385	4.8314	0.4673	0.4673	0.6195	-0.4237
2.12	-9.7254	-0.7489	-2.0495	-0.0086	-0.0192	-0.0358	38.8825	25.8089	4.8231	0.4673	0.4673	0.6194	-0.4237
2.13	-9.6964	-0.7578	-2.0264	-0.0116	-0.0274	-0.0373	38.7372	25.6251	4.8105	0.4674	0.4674	0.6194	-0.4238
2.14	-9.7062	-0.7586	-2.0263	-0.0178	-0.0314	-0.0364	38.6630	25.5717	4.9272	0.4674	0.4673	0.6193	-0.4237
2.15	-9.7227	-0.7648	-2.0200	-0.0203	-0.0211	-0.0409	38.9388	25.7339	4.9044	0.4675	0.4673	0.6193	-0.4238
2.16	-9.7486	-0.7631	-2.0188	-0.0105	-0.0244	-0.0441	38.6235	25.9874	4.9474	0.4675	0.4673	0.6192	-0.4238
2.17	-9.7134	-0.7750	-2.0094	-0.0078	-0.0297	-0.0481	38.5831	25.7705	5.0651	0.4675	0.4673	0.6191	-0.4239
2.18	-9.6986	-0.7895	-2.0140	-0.0186	-0.0301	-0.0461	38.7280	25.7803	4.7286	0.4676	0.4673	0.6191	-0.4240
2.19	-9.6838	-0.7768	-1.9988	-0.0083	-0.0327	-0.0393	38.6495	25.7291	4.9606	0.4676	0.4672	0.6190	-0.4241
2.2	-9.6786	-0.7758	-1.9869	-0.0098	-0.0290	-0.0330	38.5754	25.7029	5.1761	0.4677	0.4673	0.6189	-0.4241
2.21	-9.6521	-0.7633	-1.9861	-0.0129	-0.0316	-0.0338	38.7086	25.9114	4.8878	0.4678	0.4672	0.6188	-0.4241
2.22	-9.6235	-0.7378	-1.9846	-0.0065	-0.0268	-0.0331	38.5698	25.6863	4.7839	0.4679	0.4673	0.6187	-0.4242
2.23	-9.6424	-0.7384	-1.9814	-0.0069	-0.0226	-0.0346	38.8405	25.7445	5.1036	0.4679	0.4673	0.6186	-0.4242
2.24	-9.6295	-0.7314	-1.9812	-0.0057	-0.0179	-0.0431	39.1632	25.7412	5.2066	0.4679	0.4674	0.6185	-0.4243
2.25	-9.6423	-0.7291	-1.9762	-0.0067	-0.0172	-0.0441	39.2121	25.4546	4.7189	0.4680	0.4674	0.6185	-0.4243
2.26	-9.6601	-0.7290	-1.9644	-0.0097	-0.0143	-0.0455	39.0770	25.6174	4.8669	0.4680	0.4674	0.6184	-0.4244
2.27	-9.6635	-0.7172	-1.9817	-0.0079	-0.0133	-0.0456	38.7938	25.4801	4.8398	0.4680	0.4675	0.6184	-0.4244
2.28	-9.6680	-0.7096	-1.9808	-0.0116	-0.0175	-0.0435	38.6265	25.5818	4.7360	0.4679	0.4674	0.6183	-0.4244
2.29	-9.6925	-0.7071	-1.9790	-0.0104	-0.0158	-0.0471	38.8057	25.6549	4.6701	0.4680	0.4675	0.6183	-0.4245
2.3	-9.6881	-0.7144	-1.9784	-0.0114	-0.0132	-0.0494	38.7729	25.6866	4.5267	0.4680	0.4675	0.6182	-0.4245
2.31	-9.6743	-0.7238	-1.9823	-0.0210	-0.0067	-0.0547	38.7015	25.7748	4.6948	0.4680	0.4675	0.6183	-0.4245
2.32	-9.6888	-0.7400	-1.9829	-0.0277	-0.0048	-0.0599	38.6664	25.6235	4.4751	0.4680	0.4674	0.6183	-0.4245
2.33	-9.6905	-0.7554	-1.9796	-0.0295	-0.0072	-0.0583	38.8034	25.6703	4.7359	0.4680	0.4674	0.6184	-0.4245
2.34	-9.6857	-0.7688	-1.9946	-0.0299	-0.0001	-0.0585	38.3489	25.8193	4.6297	0.4680	0.4673	0.6184	-0.4245
2.35	-9.7006	-0.7793	-1.9936	-0.0295	-0.0008	-0.0577	38.6372	25.8265	4.6930	0.4679	0.4673	0.6184	-0.4244
2.36	-9.7040	-0.7962	-2.0133	-0.0280	0.0018	-0.0591	38.4180	25.7369	4.9416	0.4679	0.4673	0.6186	-0.4244
2.37	-9.6690	-0.7981	-2.0050	-0.0303	-0.0054	-0.0533	38.5238	25.7130	4.8931	0.4679	0.4672	0.6186	-0.4244
2.38	-9.6957	-0.8042	-2.0036	-0.0293	-0.0034	-0.0540	38.5350	25.8625	4.8607	0.4680	0.4672	0.6187	-0.4244
2.39	-9.7413	-0.8111	-2.0243	-0.0282	-0.0036	-0.0577	38.5998	26.0463	4.6592	0.4679	0.4671	0.6187	-0.4243
2.4	-9.7063	-0.8107	-2.0122	-0.0149	-0.0096	-0.0568	38.5404	25.8378	4.8993	0.4679	0.4671	0.6187	-0.4244
2.41	-9.6963	-0.8143	-2.0153	-0.0089	-0.0131	-0.0565	38.4006	25.8609	4.8346	0.4678	0.4671	0.6187	-0.4244
2.42	-9.7169	-0.8241	-2.0073	-0.0045	-0.0175	-0.0506	38.6232	26.0229	4.7944	0.4678	0.4671	0.6186	-0.4245
2.43	-9.7210	-0.8020	-2.0070	-0.0043	-0.0168	-0.0480	38.6790	25.8109	4.8994	0.4678	0.4672	0.6187	-0.4246
2.44	-9.6970	-0.8050	-1.9890	-0.0044	-0.0159	-0.0481	38.9682	25.5368	4.8063	0.4678	0.4672	0.6186	-0.4246
2.45	-9.6862	-0.7746	-1.9843	-0.0042	-0.0191	-0.0491	38.8880	25.6956	4.7646	0.4678	0.4672	0.6185	-0.4247
2.46	-9.6872	-0.7620	-1.9839	-0.0043	-0.0210	-0.0496	38.7582	25.8425	4.6122	0.4678	0.4671	0.6184	-0.4247
2.47	-9.6673	-0.7703	-1.9849	-0.0053	-0.0202	-0.0479	38.7733	25.7232	4.6117	0.4678	0.4672	0.6184	-0.4248
2.48	-9.6751	-0.7738	-1.9741	-0.0056	-0.0210	-0.0589	38.7687	25.7242	4.7022	0.4678	0.4672	0.6184	-0.4249
2.49	-9.6790	-0.7690	-1.9835	-0.0093	-0.0211	-0.0582	38.7785	25.8295	4.9546	0.4678	0.4671	0.6183	-0.4250
2.5	-9.6771	-0.7791	-1.9825	-0.0124	-0.0157	-0.0586	38.6714	25.8121	4.7648	0.4678	0.4671	0.6183	-0.4251
2.51	-9.6910	-0.7777	-1.9808	-0.0051	-0.0121	-0.0472	38.8161	25.7469	4.5818	0.4678	0.4671	0.6183	-0.4251
2.52	-9.6904	-0.7877	-1.9856	-0.0183	-0.0180	-0.0486	38.6937	25.8639	4.6912	0.4678	0.4671	0.6183	-0.4251
2.53	-9.6887	-0.7879	-1.9861	-0.0214	-0.0197	-0.0495	38.6796	25.8032	4.7527	0.4678	0.4671	0.6182	-0.4251
2.54	-9.6915	-0.7931	-1.9781	-0.0226	-0.0162	-0.0549	38.5709	25.8405	4.5514	0.4679	0.4671	0.6182	-0.4252
2.55	-9.6987	-0.8042	-1.9732	-0.0203	-0.0093	-0.0537	38.6150	25.9760	4.5782	0.4678	0.4670	0.6182	-0.4252
2.56	-9.6966	-0.8081	-1.9680	-0.0235	-0.0160	-0.0474	38.5583	26.0128	4.6251	0.4679	0.4670	0.6182	-0.4252
2.57	-9.6963	-0.8122	-1.9800	-0.0138	-0.0121	-0.0446	38.7303	26.0025	4.6378	0.4679	0.4670	0.6182	-0.4252
2.58	-9.6781	-0.8058	-1.9804	-0.0057	-0.0172	-0.0466	38.7265	25.7456	4.5753	0.4679	0.4671	0.6181	-0.4252
2.59	-9.6934	-0.8055	-1.9785	-0.0097	-0.0159	-0.0468	38.5186	25.7518	4.7794	0.4679	0.4671	0.6181	-0.4253
2.6	-9.6913	-0.8102	-1.9851	-0.0067	-0.0115	-0.0430	38.7713	25.7048	4.7412	0.4679	0.4671	0.6180	-0.4253
2.61	-9.6823	-0.8093	-1.9825	-0.0050	-0.0187	-0.0389	38.8000	25.8980	4.6149	0.4680	0.4672	0.6180	-0.4254
2.62	-9.6922	-0.7948	-1.9638	-0.0043	-0.0145	-0.0427	38.6978	25.6948	4.5781	0.4679	0.4672	0.6179	-0.4254
2.63	-9.6858	-0.7783	-1.9596	-0.0019	-0.0129	-0.0462	38.7486	25.7165	4.5804	0.4679	0.4673	0.6179	-0.4255
2.64	-9.6678	-0.7755	-1.9700	-0.0046	-0.0112	-0.0455	38.7746	25.6641	4.6619	0.4679	0.4673	0.6178	-0.4255
2.65	-9.6731	-0.7621	-1.9569	-0.0052	-0.0123	-0.0454	38.6616	25.3022	4.4892	0.4679	0.4673	0.6178	-0.4255
2.66	-9.6775	-0.7544	-1.9663	-0.0110	-0.0103	-0.0455	38.6620	25.6394	4.8049	0.4679	0.4674	0.6177	-0.4255
2.67	-9.6693	-0.7515	-1.9578	-0.0067	-0.0121	-0.0454	38.7917	25.7170	4.7564	0.4678	0.4674	0.6177	-0.4255
2.68	-9.6607	-0.7533	-1.9507	-0.0124	-0.0116	-0.0463	38.5382	25.7721	4.4793	0.4679	0.4674	0.6177	-0.4256
2.69	-9.6554	-0.7520	-1.9581	-0.0080	-0.0098	-0.0521	38.5439	25.6783	4.5848	0.4678	0.4674	0.6176	-0.4256
2.7	-9.6523	-0.7522	-1.9616	-0.0133	-0.0083	-0.0517	38.8068	25.9003	4.6807	0.4678	0.4675	0.6177	-0.4257
2.71	-9.6555	-0.7554	-1.9529	-0.0156	-0.0045	-0.0470	38.7507	25.9106	4.8374	0.4678	0.4674	0.6176	-0.4256
2.72	-9.6529	-0.7608	-1.9640	-0.0194	0.0037	-0.0537	38.7840	25.8386	4.7674	0.4678	0.4675	0.6177	-0.4256
2.73	-9.6500	-0.7672	-1.9716	-0.0318	0.0064	-0.0565	38.5936	25.9211	4.5418	0.4677	0.4674	0.6177	-0.4256
2.74	-9.6557	-0.7781	-1.9757	-0.0302	0.0083	-0.0547	38.9288	25.9833	4.7969	0.4677	0.4674	0.6178	-0.4255
2.75	-9.6743	-0.7663	-1.9821	-0.0304	0.0048	-0.0532	39.1637	26.1049	4.9202	0.4677	0.4674	0.6179	-0.4254
2.76	-9.7005	-0.7695	-1.9746	-0.0308	0.0101	-0.0553	38.7931	25.8883	4.8223	0.4676	0.4674	0.6180	-0.4254
2.77	-9.7156	-0.7788	-1.9822	-0.0303	0.0103	-0.0583	38.6022	25.8965	4.8175	0.4676	0.4674	0.6181	-0.4253
2.78	-9.6925	-0.7914	-1.9849	-0.0291	-0.0018	-0.0588	38.4814	25.8816	4.8056	0.4675	0.4673	0.6181	-0.4252
2.79	-9.6689	-0.7977	-1.9839	-0.0190	-0.0004	-0.0583	38.5236	25.8466	4.8619	0.4675	0.4674	0.6182	-0.4253
2.8	-9.7051	-0.7818	-1.9887	-0.0225	0.0063	-0.0586	38.5482	25.6010	4.7222	0.4675	0.4674	0.6182	-0.4252
2.81	-9.6935	-0.7842	-1.9886	-0.0279	0.0078	-0.0582	38.6824	25.8688	4.3069	0.4674	0.4674	0.6183	-0.4252
2.82	-9.6688	-0.7915	-1.9840	-0.0185	0.0089	-0.0602	38.8071	25.7852	4.5746	0.4673	0.4674	0.6184	-0.4252
2.83	-9.6885	-0.7958	-1.9917	-0.0266	0.0082	-0.0597	38.8741	25.6259	4.8172	0.4673	0.4674	0.6185	-0.4251
2.84	-9.7251	-0.7977	-1.9958	-0.0310	0.0096	-0.0626	38.9037	25.6274	4.7948	0.4672	0.4673	0.6186	-0.4251
2.85	-9.7447	-0.8077	-2.0177	-0.0274	0.0164	-0.0590	38.7059	25.8723	4.6181	0.4671	0.4673	0.6186	-0.4250
2.86	-9.7109	-0.8249	-2.0132	-0.0314	-0.0048	-0.0591	38.4875	25.7775	4.6497	0.4671	0.4673	0.6188	-0.4250
2.87	-9.7090	-0.8408	-2.0082	-0.0304	-0.0007	-0.0534	38.3545	25.7371	4.7923	0.4671	0.4672	0.6188	-0.4250
2.88	-9.7040	-0.8538	-2.0065	-0.0302	-0.0002	-0.0461	38.4257	25.6610	4.8553	0.4671	0.4673	0.6189	-0.4250
2.89	-9.6897	-0.8445	-2.0180	-0.0318	-0.0069	-0.0365	38.7682	25.7840	4.7132	0.4671	0.4672	0.6188	-0.4248
2.9	-9.6732	-0.8277	-2.0203	-0.0298	-0.0043	-0.0401	38.6154	25.9035	4.7502	0.4672	0.4672	0.6189	-0.4248
2.91	-9.6649	-0.8061	-2.0208	-0.0174	-0.0088	-0.0475	38.4866	25.8077	4.8734	0.4672	0.4673	0.6189	-0.4248
2.92	-9.6474	-0.7894	-2.0193	-0.0114	-0.0033	-0.0472	38.5371	26.0506	4.7048	0.4671	0.4673	0.6188	-0.4247
2.93	-9.6570	-0.8001	-2.0184	-0.0147	-0.0020	-0.0568	38.4122	26.1104	4.7461	0.4672	0.4673	0.6189	-0.4248
2.94	-9.6678	-0.7943	-2.0210	-0.0023	0.0085	-0.0590	38.5828	25.9236	4.9759	0.4670	0.4673	0.6189	-0.4248
2.95	-9.6729	-0.7763	-2.0204	-0.0060	0.0088	-0.0580	38.6349	25.9179	4.8334	0.4669	0.4674	0.6190	-0.4248
2.96	-9.6730	-0.7705	-2.0196	-0.0065	-0.0049	-0.0584	38.4932	25.7538	4.7325	0.4668	0.4674	0.6189	-0.4248
2.97	-9.6739	-0.7674	-2.0140	-0.0172	0.0003	-0.0589	38.6543	25.8831	4.7224	0.4668	0.4674	0.6190	-0.4249
2.98	-9.6963	-0.7688	-2.0209	-0.0165	0.0031	-0.0579	38.5418	25.8918	4.7422	0.4667	0.4674	0.6190	-0.4249
2.99	-9.7011	-0.7734	-2.0223	-0.0255	0.0026	-0.0629	38.8097	26.0078	4.7092	0.4667	0.4674	0.6191	-0.4248
3	-9.6734	-0.7669	-2.0272	-0.0253	0.0006	-0.0605	38.6507	25.7253	4.7609	0.4667	0.4674	0.6192	-0.4248
3.01	-9.6702	-0.7898	-2.0253	-0.0271	0.0042	-0.0582	38.6532	25.6937	4.9533	0.4666	0.4673	0.6192	-0.4248
3.02	-9.6792	-0.8054	-2.0251	-0.0342	0.0091	-0.0569	38.8511	25.6749	4.6981	0.4666	0.4673	0.6193	-0.4247
3.03	-9.6744	-0.8240	-2.0338	-0.0291	0.0140	-0.0508	38.6689	25.7747	4.8436	0.4665	0.4673	0.6193	-0.4246
3.04	-9.6903	-0.8425	-2.0455	-0.0309	0.0036	-0.0582	38.6993	25.8882	4.8047	0.4665	0.4673	0.6195	-0.4246
3.05	-9.6909	-0.8407	-2.0576	-0.0302	0.0001	-0.0573	38.5582	25.6877	4.5336	0.4665	0.4673	0.6195	-0.4245
3.06	-9.6681	-0.8522	-2.0424	-0.0308	0.0021	-0.0469	38.6614	25.7020	4.8995	0.4665	0.4673	0.6196	-0.4245
3.07	-9.7129	-0.8497	-2.0606	-0.0285	0.0041	-0.0486	38.3702	25.6643	5.0270	0.4665	0.4673	0.6196	-0.4244
3.08	-9.7315	-0.8417	-2.0565	-0.0256	-0.0055	-0.0452	38.4972	25.8643	4.8829	0.4665	0.4673	0.6197	-0.4244
3.09	-9.6774	-0.8384	-2.0397	-0.0221	-0.0065	-0.0596	38.6673	25.9945	4.9068	0.4664	0.4672	0.6197	-0.4244
3.1	-9.6817	-0.8506	-2.0542	-0.0073	-0.0075	-0.0580	38.4921	25.8631	4.6539	0.4664	0.4672	0.6197	-0.4244
3.11	-9.6846	-0.8400	-2.0298	-0.0028	-0.0102	-0.0502	38.5344	25.8444	5.0345	0.4664	0.4673	0.6197	-0.4245
3.12	-9.6739	-0.8277	-2.0343	-0.0069	-0.0041	-0.0423	38.5020	25.9293	5.0356	0.4663	0.4673	0.6196	-0.4245
3.13	-9.6665	-0.8128	-2.0325	-0.0040	-0.0086	-0.0470	38.5486	25.9117	4.8099	0.4663	0.4674	0.6197	-0.4246
3.14	-9.6678	-0.7787	-2.0253	-0.0048	-0.0045	-0.0502	38.4008	25.7401	4.8007	0.4662	0.4674	0.6196	-0.4245
3.15	-9.6679	-0.7781	-2.0263	-0.0050	-0.0070	-0.0528	38.3484	26.1480	4.8874	0.4662	0.4674	0.6196	-0.4246
3.16	-9.6736	-0.7900	-2.0338	-0.0087	-0.0049	-0.0557	38.6612	25.9173	4.9869	0.4662	0.4675	0.6196	-0.4246
3.17	-9.6722	-0.7974	-2.0314	-0.0072	-0.0049	-0.0512	38.4756	26.0745	4.5510	0.4661	0.4675	0.6195	-0.4246
3.18	-9.6760	-0.7998	-2.0370	-0.0228	-0.0109	-0.0539	38.7621	25.8049	4.9068	0.4662	0.4675	0.6196	-0.4247
3.19	-9.6748	-0.8057	-2.0433	-0.0211	-0.0100	-0.0493	38.8895	25.6782	4.8838	0.4661	0.4675	0.6196	-0.4246
3.2	-9.6841	-0.8044	-2.0381	-0.0178	-0.0064	-0.0485	38.6726	25.6622	4.7984	0.4662	0.4675	0.6196	-0.4247
3.21	-9.6822	-0.8085	-2.0349	-0.0200	-0.0092	-0.0456	38.7154	25.8876	4.8571	0.4661	0.4674	0.6195	-0.4246
3.22	-9.6995	-0.8144	-2.0365	-0.0186	-0.0132	-0.0463	38.6646	25.9345	4.6531	0.4662	0.4675	0.6196	-0.4246
3.23	-9.6982	-0.8211	-2.0386	-0.0211	-0.0139	-0.0422	38.6126	25.8808	4.8841	0.4662	0.4675	0.6195	-0.4246
3.24	-9.6885	-0.8253	-2.0368	-0.0215	-0.0108	-0.0450	39.1548	26.0074	5.1531	0.4662	0.4675	0.6195	-0.4246
3.25	-9.6987	-0.8309	-2.0385	-0.0176	-0.0160	-0.0409	39.2379	25.8345	4.9694	0.4663	0.4675	0.6195	-0.4246
3.26	-9.7002	-0.8284	-2.0463	-0.0129	-0.0145	-0.0336	38.8764	25.8881	4.9896	0.4663	0.4676	0.6194	-0.4246
3.27	-9.6985	-0.8277	-2.0400	-0.0158	-0.0132	-0.0400	38.4708	25.8905	4.9710	0.4663	0.4676	0.6194	-0.4246
3.28	-9.7071	-0.8288	-2.0350	-0.0167	-0.0147	-0.0412	38.3380	26.0310	4.9776	0.4663	0.4676	0.6193	-0.4245
3.29	-9.7082	-0.8116	-2.0398	-0.0098	-0.0198	-0.0385	38.7036	25.9749	4.9711	0.4664	0.4676	0.6193	-0.4246
3.3	-9.7053	-0.8037	-2.0304	-0.0115	-0.0114	-0.0442	38.4706	25.7125	4.8361	0.4664	0.4677	0.6193	-0.4246
3.31	-9.6996	-0.7964	-2.0393	-0.0069	-0.0215	-0.0468	38.3783	25.7952	4.9933	0.4664	0.4677	0.6192	-0.4247
3.32	-9.6780	-0.7810	-2.0206	-0.0054	-0.0170	-0.0466	38.6266	25.9315	4.9647	0.4664	0.4677	0.6191	-0.4247
3.33	-9.6601	-0.7741	-2.0098	-0.0045	-0.0193	-0.0454	38.4600	25.8786	4.7453	0.4664	0.4677	0.6191	-0.4248
3.34	-9.6423	-0.7697	-1.9995	-0.0073	-0.0208	-0.0507	38.5779	25.7747	4.8483	0.4664	0.4677	0.6191	-0.4248
3.35	-9.6585	-0.7685	-1.9886	-0.0051	-0.0120	-0.0581	38.6180	25.9293	5.0027	0.4663	0.4677	0.6190	-0.4249
3.36	-9.6577	-0.7725	-1.9927	-0.0109	-0.0170	-0.0460	38.4677	25.8804	4.9425	0.4664	0.4678	0.6190	-0.4249
3.37	-9.6611	-0.7758	-1.9838	-0.0179	-0.0189	-0.0542	38.5775	25.8137	4.7466	0.4664	0.4677	0.6190	-0.4249
3.38	-9.6629	-0.7883	-1.9981	-0.0212	-0.0113	-0.0550	38.8174	25.7739	4.8335	0.4664	0.4677	0.6190	-0.4250
3.39	-9.6655	-0.7911	-2.0057	-0.0303	-0.0102	-0.0476	38.6537	25.6119	4.6913	0.4664	0.4676	0.6190	-0.4249
3.4	-9.6703	-0.7972	-2.0160	-0.0269	-0.0094	-0.0483	38.7180	25.7861	4.7113	0.4665	0.4677	0.6190	-0.4249
3.41	-9.6681	-0.8236	-2.0275	-0.0278	-0.0094	-0.0427	38.7987	25.8245	4.9007	0.4665	0.4677	0.6190	-0.4248
3.42	-9.6718	-0.8355	-2.0163	-0.0312	-0.0124	-0.0458	38.7606	25.5079	4.8072	0.4665	0.4676	0.6190	-0.4248
3.43	-9.6729	-0.8426	-2.0270	-0.0313	-0.0148	-0.0438	38.6937	25.8007	4.8022	0.4666	0.4676	0.6191	-0.4248
3.44	-9.6670	-0.8591	-2.0332	-0.0281	-0.0118	-0.0433	38.6598	25.9121	4.9109	0.4666	0.4676	0.6190	-0.4247
3.45	-9.6674	-0.8747	-2.0298	-0.0156	-0.0165	-0.0380	38.5192	25.7582	4.6476	0.4667	0.4677	0.6190	-0.4247
3.46	-9.6741	-0.8669	-2.0278	-0.0091	-0.0106	-0.0432	38.4868	25.9398	4.9142	0.4666	0.4676	0.6189	-0.4247
3.47	-9.7158	-0.8623	-2.0322	-0.0230	-0.0110	-0.0426	38.5457	25.9847	4.9706	0.4667	0.4677	0.6190	-0.4247
3.48	-9.7249	-0.8556	-2.0353	-0.0194	-0.0119	-0.0441	38.5904	25.8648	4.8338	0.4667	0.4677	0.6189	-0.4247
3.49	-9.6785	-0.8549	-2.0342	-0.0060	-0.0127	-0.0436	38.3815	26.0014	4.6783	0.4667	0.4677	0.6189	-0.4247
3.5	-9.6831	-0.8432	-2.0235	-0.0101	-0.0097	-0.0349	38.5429	25.8962	4.8276	0.4667	0.4678	0.6189	-0.4247
3.51	-9.7056	-0.8260	-2.0397	-0.0144	-0.0143	-0.0357	38.6022	26.0398	4.7366	0.4667	0.4678	0.6188	-0.4247
3.52	-9.6548	-0.8192	-2.0283	-0.0066	-0.0160	-0.0319	38.3988	25.9146	4.9519	0.4668	0.4679	0.6187	-0.4247
3.53	-9.6746	-0.8112	-2.0206	-0.0044	-0.0108	-0.0419	38.5064	25.9113	4.9063	0.4667	0.4679	0.6186	-0.4247
3.54	-9.6962	-0.8023	-2.0211	-0.0080	-0.0153	-0.0377	38.6157	25.7854	4.7722	0.4668	0.4680	0.6186	-0.4248
3.55	-9.7310	-0.8178	-2.0165	-0.0061	-0.0171	-0.0357	38.4309	25.7132	4.9543	0.4668	0.4680	0.6185	-0.4248
3.56	-9.7054	-0.8282	-2.0157	-0.0060	-0.0189	-0.0375	38.6857	25.7405	4.7920	0.4668	0.4681	0.6185	-0.4249
3.57	-9.6599	-0.8284	-2.0000	-0.0156	-0.0174	-0.0328	38.6791	25.7297	4.7144	0.4669	0.4681	0.6184	-0.4248
3.58	-9.6622	-0.8292	-2.0184	-0.0163	-0.0106	-0.0339	38.7076	25.6020	4.6842	0.4669	0.4681	0.6184	-0.4248
3.59	-9.6333	-0.8228	-2.0104	-0.0089	-0.0134	-0.0328	38.8087	25.7203	4.7761	0.4669	0.4682	0.6183	-0.4248
3.6	-9.6346	-0.8088	-2.0172	0.0014	-0.0149	-0.0268	38.7372	25.7237	4.8157	0.4669	0.4683	0.6182	-0.4248
3.61	-9.6438	-0.7771	-2.0213	-0.0026	-0.0100	-0.0311	38.9213	25.8533	4.6809	0.4670	0.4684	0.6182	-0.4249
3.62	-9.6481	-0.7628	-2.0183	-0.0054	-0.0029	-0.0351	38.7776	25.7659	4.8778	0.4669	0.4685	0.6181	-0.4248
3.63	-9.6702	-0.7639	-2.0319	-0.0030	-0.0009	-0.0369	38.5888	25.7326	4.9020	0.4669	0.4686	0.6181	-0.4249
3.64	-9.6855	-0.7649	-2.0380	0.0069	-0.0020	-0.0421	38.5895	25.6430	4.8042	0.4668	0.4687	0.6179	-0.4248
3.65	-9.6655	-0.7597	-2.0284	-0.0002	-0.0082	-0.0440	38.6120	25.5259	4.6624	0.4668	0.4688	0.6179	-0.4249
3.66	-9.6931	-0.7403	-2.0281	-0.0009	-0.0134	-0.0414	38.7310	25.7763	4.9836	0.4668	0.4688	0.6179	-0.4249
3.67	-9.6853	-0.7269	-2.0302	0.0007	-0.0020	-0.0460	38.5781	25.9125	4.8831	0.4667	0.4689	0.6178	-0.4249
3.68	-9.6935	-0.7331	-2.0295	-0.0001	0.0023	-0.0485	38.7115	25.9157	4.9145	0.4667	0.4690	0.6179	-0.4250
3.69	-9.6909	-0.7257	-2.0271	-0.0084	-0.0013	-0.0453	38.6608	25.6107	4.8066	0.4666	0.4690	0.6178	-0.4250
3.7	-9.6902	-0.7151	-2.0230	-0.0132	-0.0102	-0.0467	38.5054	25.7671	4.6961	0.4666	0.4691	0.6178	-0.4250
3.71	-9.6879	-0.7371	-2.0298	-0.0258	-0.0055	-0.0451	38.5130	25.9368	5.0301	0.4666	0.4690	0.6178	-0.4249
3.72	-9.6913	-0.7567	-2.0474	-0.0230	-0.0047	-0.0500	38.4900	25.7771	4.9454	0.4666	0.4690	0.6178	-0.4250
3.73	-9.6903	-0.7616	-2.0529	-0.0327	-0.0042	-0.0472	38.7499	25.8652	4.8525	0.4666	0.4690	0.6179	-0.4249
3.74	-9.6913	-0.7829	-2.0461	-0.0304	-0.0092	-0.0494	39.0029	25.6751	4.9817	0.4666	0.4690	0.6179	-0.4248
3.75	-9.6947	-0.8003	-2.0511	-0.0304	-0.0108	-0.0390	38.9065	25.5203	5.0868	0.4667	0.4690	0.6179	-0.4248
3.76	-9.6470	-0.8045	-2.0385	-0.0299	-0.0084	-0.0465	38.8503	25.6519	4.9589	0.4667	0.4690	0.6179	-0.4247
3.77	-9.6983	-0.8063	-2.0350	-0.0321	0.0002	-0.0421	38.5836	25.5544	4.9311	0.4668	0.4690	0.6180	-0.4247
3.78	-9.7499	-0.8141	-2.0587	-0.0268	-0.0053	-0.0413	38.4464	25.4898	4.9430	0.4667	0.4689	0.6179	-0.4246
3.79	-9.7205	-0.8019	-2.0532	-0.0098	-0.0120	-0.0439	38.6484	25.8778	5.0311	0.4668	0.4690	0.6180	-0.4247
3.8	-9.7136	-0.8152	-2.0540	-0.0068	-0.0098	-0.0469	38.7419	25.8277	4.7100	0.4667	0.4690	0.6179	-0.4247
3.81	-9.7089	-0.8106	-2.0341	-0.0051	-0.0204	-0.0453	38.5105	25.7070	4.8460	0.4667	0.4690	0.6179	-0.4248
3.82	-9.7021	-0.8078	-2.0352	-0.0018	-0.0153	-0.0400	38.6071	25.5824	4.8352	0.4667	0.4691	0.6178	-0.4248
3.83	-9.6660	-0.7927	-2.0226	0.0028	-0.0205	-0.0406	38.6956	25.6363	4.9985	0.4667	0.4691	0.6177	-0.4248
3.84	-9.6363	-0.7740	-2.0207	-0.0008	-0.0183	-0.0408	38.5216	25.7229	4.8168	0.4667	0.4692	0.6177	-0.4249
3.85	-9.6478	-0.7705	-2.0108	-0.0045	-0.0088	-0.0442	38.4193	25.6620	5.0266	0.4666	0.4692	0.6176	-0.4249
3.86	-9.6360	-0.7758	-2.0111	-0.0055	-0.0078	-0.0494	38.4253	25.7298	5.0189	0.4667	0.4693	0.6176	-0.4250
3.87	-9.6423	-0.7705	-2.0145	-0.0044	-0.0089	-0.0477	38.5531	25.9234	4.7509	0.4666	0.4693	0.6176	-0.4250
3.88	-9.6607	-0.7608	-2.0035	-0.0090	-0.0058	-0.0501	38.4677	25.7767	4.9613	0.4666	0.4694	0.6176	-0.4251
3.89	-9.6703	-0.7684	-2.0108	-0.0126	-0.0112	-0.0454	38.6504	25.8574	4.9037	0.4665	0.4694	0.6175	-0.4250
3.9	-9.6793	-0.7687	-2.0169	-0.0067	-0.0085	-0.0512	38.4031	25.8972	4.8532	0.4665	0.4694	0.6175	-0.4251
3.91	-9.6924	-0.7667	-2.0102	-0.0191	-0.0085	-0.0464	38.3748	25.7906	4.7641	0.4665	0.4694	0.6175	-0.4251
3.92	-9.6971	-0.7743	-2.0137	-0.0118	-0.0094	-0.0409	38.7393	25.7990	4.8126	0.4665	0.4694	0.6175	-0.4250
3.93	-9.6906	-0.7847	-2.0186	-0.0181	-0.0112	-0.0384	38.5560	25.6461	4.9671	0.4666	0.4695	0.6175	-0.4251
3.94	-9.6833	-0.7840	-2.0205	-0.0237	-0.0109	-0.0414	38.6540	25.5122	4.7748	0.4666	0.4695	0.6174	-0.4250
3.95	-9.6863	-0.7978	-2.0218	-0.0217	-0.0032	-0.0459	38.9288	25.9028	4.7280	0.4666	0.4696	0.6175	-0.4250
3.96	-9.6752	-0.7965	-2.0288	-0.0128	-0.0097	-0.0437	38.6466	25.7835	4.8517	0.4665	0.4695	0.6174	-0.4249
3.97	-9.6635	-0.7997	-2.0231	-0.0122	-0.0119	-0.0432	38.7373	25.5336	4.8376	0.4666	0.4696	0.6174	-0.4250
3.98	-9.6877	-0.7947	-2.0209	-0.0159	-0.0097	-0.0448	38.9189	25.5530	4.8726	0.4666	0.4696	0.6174	-0.4250
3.99	-9.6821	-0.7976	-2.0240	-0.0145	-0.0070	-0.0405	38.7916	25.6849	4.7549	0.4666	0.4696	0.6174	-0.4249
4	-9.6719	-0.7909	-2.0301	-0.0097	-0.0003	-0.0439	38.5646	25.8068	4.7486	0.4665	0.4697	0.6174	-0.4249
4.01	-9.6789	-0.7887	-2.0267	-0.0063	-0.0049	-0.0413	38.6450	25.7364	4.8807	0.4665	0.4698	0.6173	-0.4249
4.02	-9.6847	-0.7858	-2.0210	-0.0058	-0.0082	-0.0466	38.6834	25.6856	5.0282	0.4665	0.4698	0.6173	-0.4250
4.03	-9.6813	-0.7819	-2.0211	-0.0049	-0.0053	-0.0467	38.3792	25.6785	4.9515	0.4664	0.4698	0.6172	-0.4249
4.04	-9.6784	-0.7803	-2.0208	-0.0064	-0.0044	-0.0508	38.4517	25.8263	4.8011	0.4664	0.4699	0.6173	-0.4250
4.05	-9.6791	-0.7668	-2.0247	-0.0066	-0.0008	-0.0494	38.5445	25.8571	4.8745	0.4663	0.4699	0.6173	-0.4250
4.06	-9.6662	-0.7671	-2.0205	-0.0097	-0.0088	-0.0539	38.7173	25.9562	4.7810	0.4663	0.4700	0.6173	-0.4251
4.07	-9.6655	-0.7730	-2.0229	-0.0108	0.0002	-0.0445	38.5656	25.8654	5.0888	0.4662	0.4700	0.6173	-0.4250
4.08	-9.6878	-0.7758	-2.0296	-0.0118	0.0018	-0.0551	38.6523	25.6350	5.0654	0.4662	0.4700	0.6173	-0.4250
4.09	-9.6918	-0.7850	-2.0276	-0.0193	-0.0027	-0.0509	38.4532	25.7562	4.8832	0.4662	0.4701	0.6174	-0.4250
4.1	-9.6821	-0.7770	-2.0248	-0.0173	-0.0053	-0.0494	38.4746	25.8756	4.9569	0.4661	0.4700	0.6173	-0.4250
4.11	-9.6822	-0.7781	-2.0207	-0.0261	-0.0115	-0.0407	38.7315	25.7626	4.9189	0.4662	0.4701	0.6174	-0.4250
4.12	-9.6735	-0.7889	-2.0288	-0.0259	-0.0085	-0.0449	38.8437	25.7964	4.9451	0.4662	0.4701	0.6174	-0.4249
4.13	-9.6614	-0.7946	-2.0351	-0.0218	-0.0089	-0.0469	38.8149	25.5012	4.9340	0.4662	0.4701	0.6174	-0.4250
4.14	-9.6560	-0.8029	-2.0296	-0.0269	-0.0024	-0.0463	38.7530	25.6277	4.9493	0.4662	0.4701	0.6174	-0.4249
4.15	-9.6712	-0.8052	-2.0381	-0.0245	-0.0041	-0.0445	38.7919	25.6809	4.7969	0.4662	0.4701	0.6174	-0.4248
4.16	-9.6768	-0.8058	-2.0377	-0.0156	-0.0006	-0.0450	38.7562	25.7701	4.7307	0.4662	0.4701	0.6174	-0.4248
4.17	-9.6728	-0.8067	-2.0370	-0.0163	0.0001	-0.0454	38.4956	25.6956	4.7621	0.4661	0.4701	0.6174	-0.4248
4.18	-9.7050	-0.8096	-2.0451	-0.0171	0.0077	-0.0436	38.5239	25.7081	4.8305	0.4661	0.4703	0.6175	-0.4248
4.19	-9.7006	-0.8084	-2.0548	-0.0107	-0.0029	-0.0441	38.7648	25.9114	4.8861	0.4660	0.4703	0.6175	-0.4247
4.2	-9.6578	-0.8016	-2.0397	-0.0037	-0.0091	-0.0457	38.5776	25.6463	4.9501	0.4660	0.4703	0.6175	-0.4248
4.21	-9.6966	-0.7917	-2.0438	-0.0043	0.0086	-0.0432	38.7101	25.8038	4.9298	0.4659	0.4704	0.6174	-0.4247
4.22	-9.6939	-0.7765	-2.0497	-0.0044	-0.0067	-0.0483	38.4338	25.8718	5.0359	0.4659	0.4705	0.6174	-0.4248
4.23	-9.6606	-0.7763	-2.0456	-0.0044	-0.0038	-0.0486	38.8257	25.7185	5.0522	0.4658	0.4705	0.6174	-0.4248
4.24	-9.6729	-0.7696	-2.0391	-0.0037	-0.0062	-0.0507	39.0992	25.9555	5.2243	0.4658	0.4705	0.6174	-0.4248
4.25	-9.6938	-0.7769	-2.0330	-0.0052	-0.0056	-0.0484	39.0145	26.0579	5.2064	0.4657	0.4706	0.6174	-0.4249
4.26	-9.7326	-0.7835	-2.0474	-0.0063	0.0007	-0.0463	38.8693	26.0519	4.8807	0.4656	0.4706	0.6174	-0.4249
4.27	-9.6992	-0.7912	-2.0436	-0.0056	-0.0082	-0.0481	38.4892	26.0018	5.0268	0.4656	0.4707	0.6174	-0.4249
4.28	-9.6752	-0.8078	-2.0483	-0.0073	-0.0074	-0.0453	38.2570	26.0070	5.0886	0.4655	0.4706	0.6173	-0.4249
4.29	-9.6566	-0.8113	-2.0371	-0.0104	-0.0139	-0.0341	38.6015	25.8589	4.9507	0.4656	0.4708	0.6173	-0.4250
4.3	-9.6339	-0.8069	-2.0329	-0.0118	-0.0068	-0.0355	38.5847	25.8047	4.9943	0.4656	0.4708	0.6172	-0.4249
4.31	-9.6381	-0.7972	-2.0485	-0.0081	-0.0002	-0.0325	38.6534	25.7611	4.9726	0.4656	0.4709	0.6172	-0.4249
4.32	-9.6327	-0.7747	-2.0387	-0.0047	0.0056	-0.0331	38.8983	25.6067	4.9987	0.4655	0.4710	0.6172	-0.4248
4.33	-9.6509	-0.7731	-2.0614	-0.0050	0.0094	-0.0338	38.8388	25.5355	4.8438	0.4655	0.4711	0.6172	-0.4248
4.34	-9.6609	-0.7734	-2.0676	-0.0048	0.0092	-0.0424	38.7122	25.5560	4.9807	0.4654	0.4712	0.6172	-0.4248
4.35	-9.6638	-0.7724	-2.0683	-0.0025	0.0070	-0.0417	38.5946	25.5284	4.9849	0.4653	0.4713	0.6171	-0.4247
4.36	-9.6765	-0.7689	-2.0727	-0.0028	0.0075	-0.0395	38.5941	25.6688	4.8952	0.4653	0.4715	0.6172	-0.4248
4.37	-9.6581	-0.7623	-2.0674	-0.0062	0.0030	-0.0420	38.6107	25.7368	5.0057	0.4652	0.4715	0.6171	-0.4247
4.38	-9.6766	-0.7588	-2.0675	-0.0033	0.0049	-0.0433	38.5771	25.7176	4.9788	0.4651	0.4716	0.6172	-0.4248
4.39	-9.6805	-0.7354	-2.0666	-0.0043	0.0065	-0.0392	38.7127	25.7245	4.9731	0.4650	0.4717	0.6171	-0.4247
4.4	-9.6660	-0.7244	-2.0701	-0.0077	0.0018	-0.0475	38.6505	25.7187	5.0121	0.4650	0.4717	0.6171	-0.4247
4.41	-9.6725	-0.7379	-2.0750	-0.0080	0.0073	-0.0569	38.3997	25.5558	4.9011	0.4649	0.4718	0.6172	-0.4247
4.42	-9.6844	-0.7293	-2.0915	-0.0103	0.0119	-0.0545	38.4788	25.8401	4.9677	0.4648	0.4718	0.6172	-0.4247
4.43	-9.6860	-0.7372	-2.0957	-0.0220	0.0101	-0.0538	38.7535	25.7644	4.9794	0.4647	0.4719	0.6173	-0.4247
4.44	-9.7067	-0.7652	-2.1040	-0.0264	0.0125	-0.0561	38.6002	25.7770	4.8700	0.4646	0.4718	0.6174	-0.4246
4.45	-9.6967	-0.7490	-2.0999	-0.0237	0.0128	-0.0565	38.4607	25.7403	5.1117	0.4646	0.4719	0.6175	-0.4246
4.46	-9.6811	-0.7842	-2.1225	-0.0284	0.0099	-0.0532	38.6234	25.8040	4.9587	0.4645	0.4718	0.6175	-0.4245
4.47	-9.6561	-0.7832	-2.1016	-0.0300	0.0010	-0.0559	38.5855	26.0095	4.9959	0.4645	0.4719	0.6176	-0.4245
4.48	-9.7305	-0.7885	-2.1193	-0.0273	0.0028	-0.0553	38.6220	25.8497	5.1148	0.4644	0.4718	0.6177	-0.4244
4.49	-9.7317	-0.8095	-2.1342	-0.0324	-0.0059	-0.0531	38.5271	25.6310	4.9856	0.4644	0.4718	0.6178	-0.4244
4.5	-9.6938	-0.8139	-2.1071	-0.0260	-0.0087	-0.0598	38.3883	25.7424	4.8825	0.4644	0.4717	0.6178	-0.4244
4.51	-9.7114	-0.8334	-2.1176	-0.0248	0.0008	-0.0482	38.7403	25.7956	5.0201	0.4644	0.4717	0.6179	-0.4244
4.52	-9.7097	-0.8356	-2.1048	-0.0241	-0.0076	-0.0447	38.9527	25.4971	4.9252	0.4644	0.4717	0.6179	-0.4243
4.53	-9.7091	-0.8343	-2.0997	-0.0142	-0.0109	-0.0421	38.6427	25.6493	4.8538	0.4643	0.4717	0.6178	-0.4243
4.54	-9.6864	-0.8235	-2.1048	-0.0070	-0.0099	-0.0359	38.6286	25.7327	5.0593	0.4644	0.4718	0.6179	-0.4244
4.55	-9.6681	-0.8046	-2.0899	-0.0179	-0.0096	-0.0406	38.6725	25.7195	5.0023	0.4643	0.4718	0.6178	-0.4243
4.56	-9.6555	-0.8132	-2.0953	-0.0144	-0.0151	-0.0451	38.5400	25.7241	4.7968	0.4644	0.4718	0.6178	-0.4244
4.57	-9.6359	-0.8178	-2.0880	-0.0026	-0.0139	-0.0459	38.8298	25.7164	5.2476	0.4643	0.4718	0.6178	-0.4244
4.58	-9.6365	-0.7988	-2.0854	-0.0051	-0.0120	-0.0417	38.6002	25.8623	5.0853	0.4643	0.4719	0.6177	-0.4244
4.59	-9.6522	-0.8005	-2.0809	-0.0045	-0.0084	-0.0416	38.4573	25.7151	4.9210	0.4643	0.4720	0.6177	-0.4245
4.6	-9.6527	-0.7935	-2.0833	-0.0039	-0.0066	-0.0454	38.6244	25.8077	5.1088	0.4642	0.4720	0.6176	-0.4244
4.61	-9.6735	-0.7915	-2.0765	-0.0045	-0.0113	-0.0410	38.5722	25.8060	4.9291	0.4643	0.4721	0.6176	-0.4245
4.62	-9.6784	-0.7907	-2.0688	-0.0026	-0.0110	-0.0374	38.5028	25.6830	5.0584	0.4642	0.4721	0.6175	-0.4245
4.63	-9.6714	-0.7875	-2.0615	-0.0055	-0.0086	-0.0385	38.4957	25.7893	5.0432	0.4643	0.4722	0.6176	-0.4246
4.64	-9.6589	-0.7803	-2.0727	-0.0043	-0.0065	-0.0373	38.6187	25.9266	5.2892	0.4642	0.4722	0.6174	-0.4245
4.65	-9.6819	-0.7718	-2.0653	-0.0077	-0.0068	-0.0378	38.6877	25.7443	5.2043	0.4642	0.4723	0.6174	-0.4245
4.66	-9.6789	-0.7706	-2.0671	-0.0067	-0.0093	-0.0378	38.7287	25.7626	5.0176	0.4642	0.4724	0.6174	-0.4245
4.67	-9.6791	-0.7803	-2.0685	-0.0055	-0.0170	-0.0375	38.4986	25.8519	5.1231	0.4641	0.4724	0.6173	-0.4245
4.68	-9.6694	-0.7726	-2.0597	-0.0038	-0.0112	-0.0371	38.6311	25.5847	4.8300	0.4642	0.4725	0.6173	-0.4246
4.69	-9.6721	-0.7691	-2.0676	-0.0053	-0.0103	-0.0397	38.8088	25.5356	4.8177	0.4641	0.4726	0.6172	-0.4246
4.7	-9.6815	-0.7835	-2.0688	-0.0013	-0.0146	-0.0457	38.3323	25.5635	4.9932	0.4642	0.4726	0.6172	-0.4247
4.71	-9.6716	-0.7553	-2.0476	-0.0055	-0.0129	-0.0457	38.7344	25.4466	4.9791	0.4641	0.4726	0.6171	-0.4247
4.72	-9.6624	-0.7615	-2.0543	-0.0154	-0.0107	-0.0409	38.7429	25.5804	5.0060	0.4641	0.4727	0.6171	-0.4247
4.73	-9.6760	-0.7829	-2.0607	-0.0038	-0.0146	-0.0460	38.7256	25.5066	5.1317	0.4641	0.4727	0.6171	-0.4247
4.74	-9.6601	-0.7427	-2.0442	-0.0067	-0.0129	-0.0465	39.0730	25.7092	5.2712	0.4641	0.4727	0.6170	-0.4248
4.75	-9.6722	-0.7652	-2.0568	-0.0118	-0.0151	-0.0439	39.1314	25.7497	5.2473	0.4641	0.4728	0.6170	-0.4248
4.76	-9.6666	-0.7610	-2.0541	-0.0056	-0.0179	-0.0473	38.8250	25.6877	5.2189	0.4641	0.4728	0.6170	-0.4248
4.77	-9.6405	-0.7472	-2.0398	-0.0082	-0.0129	-0.0519	38.6307	25.7243	5.2707	0.4641	0.4728	0.6170	-0.4249
4.78	-9.6394	-0.7639	-2.0451	-0.0183	-0.0050	-0.0533	38.4711	25.6981	5.0002	0.4640	0.4727	0.6169	-0.4248
4.79	-9.6355	-0.7592	-2.0405	-0.0226	-0.0088	-0.0537	38.7941	25.8593	5.0387	0.4640	0.4728	0.6170	-0.4249
4.8	-9.6413	-0.7622	-2.0557	-0.0254	-0.0087	-0.0556	38.7760	26.0005	5.0023	0.4640	0.4727	0.6170	-0.4248
4.81	-9.6325	-0.7753	-2.0474	-0.0314	-0.0037	-0.0525	38.6108	25.6970	5.0573	0.4640	0.4727	0.6171	-0.4248
4.82	-9.6525	-0.7827	-2.0438	-0.0287	0.0102	-0.0481	38.6174	25.7108	4.8928	0.4639	0.4727	0.6171	-0.4247
4.83	-9.6753	-0.7993	-2.0578	-0.0242	0.0024	-0.0538	38.8755	25.7090	4.9980	0.4639	0.4727	0.6172	-0.4247
4.84	-9.6557	-0.8036	-2.0596	-0.0194	0.0013	-0.0480	38.6714	25.7105	4.9779	0.4639	0.4727	0.6173	-0.4247
4.85	-9.6393	-0.8010	-2.0636	-0.0238	0.0066	-0.0440	38.5090	25.7042	4.9144	0.4638	0.4727	0.6172	-0.4246
4.86	-9.6903	-0.7967	-2.0548	-0.0182	0.0065	-0.0453	38.6371	25.7119	4.9360	0.4638	0.4728	0.6174	-0.4246
4.87	-9.6856	-0.7921	-2.0662	-0.0236	0.0024	-0.0525	38.7774	25.5528	4.8098	0.4638	0.4728	0.6174	-0.4245
4.88	-9.6604	-0.7874	-2.0573	-0.0197	-0.0017	-0.0564	38.7880	25.5235	5.1427	0.4638	0.4729	0.6175	-0.4245
4.89	-9.6902	-0.8121	-2.0702	-0.0094	-0.0038	-0.0454	38.9043	25.6167	5.1026	0.4637	0.4728	0.6174	-0.4245
4.9	-9.7160	-0.7946	-2.0651	-0.0163	-0.0070	-0.0475	38.8516	25.7675	5.0330	0.4637	0.4729	0.6174	-0.4245
4.91	-9.7323	-0.8016	-2.0722	-0.0247	-0.0080	-0.0435	38.6082	25.5906	5.1648	0.4637	0.4729	0.6174	-0.4245
4.92	-9.6969	-0.8236	-2.0788	-0.0194	-0.0126	-0.0446	38.6052	25.4877	5.0294	0.4637	0.4728	0.6174	-0.4244
4.93	-9.6491	-0.8197	-2.0534	-0.0085	-0.0072	-0.0419	38.8340	25.7629	5.0156	0.4637	0.4729	0.6175	-0.4245
4.94	-9.6568	-0.8292	-2.0735	-0.0066	-0.0021	-0.0313	38.7674	25.5351	4.9133	0.4636	0.4730	0.6174	-0.4245
4.95	-9.6392	-0.8151	-2.0684	-0.0037	-0.0000	-0.0349	38.8834	25.7887	4.9481	0.4636	0.4731	0.6174	-0.4245
4.96	-9.6348	-0.7845	-2.0663	-0.0043	0.0041	-0.0316	38.8110	25.8045	4.9158	0.4635	0.4732	0.6172	-0.4244
4.97	-9.6316	-0.7613	-2.0689	-0.0038	0.0105	-0.0334	38.7742	25.5784	5.0734	0.4635	0.4733	0.6173	-0.4244
4.98	-9.6388	-0.7603	-2.0775	-0.0051	0.0124	-0.0413	38.6725	25.8239	5.1448	0.4634	0.4734	0.6173	-0.4243
4.99	-9.6687	-0.7702	-2.0917	-0.0050	0.0195	-0.0462	38.7994	25.7061	5.0355	0.4633	0.4735	0.6173	-0.4243
5	-9.6691	-0.7603	-2.0831	0.0006	0.0157	-0.0495	38.7979	25.8029	5.0093	0.4632	0.4736	0.6174	-0.4243
5.01	-9.6465	-0.7461	-2.0818	-0.0057	0.0098	-0.0448	38.8077	25.8026	5.0555	0.4631	0.4737	0.6173	-0.4243
5.02	-9.6511	-0.7448	-2.0946	-0.0040	0.0028	-0.0460	38.7609	25.7902	5.1611	0.4630	0.4738	0.6174	-0.4243
5.03	-9.6484	-0.7407	-2.0832	-0.0176	0.0010	-0.0435	38.5768	25.8149	4.9983	0.4629	0.4738	0.6173	-0.4242
5.04	-9.6470	-0.7451	-2.0840	-0.0144	0.0042	-0.0434	38.8805	25.6618	5.0550	0.4630	0.4739	0.6174	-0.4242
5.05	-9.6423	-0.7563	-2.0911	-0.0251	0.0070	-0.0386	38.8427	25.6320	5.1428	0.4629	0.4739	0.6174	-0.4241
5.06	-9.6560	-0.7569	-2.0909	-0.0266	0.0036	-0.0442	38.7752	25.5502	5.1111	0.4629	0.4740	0.6175	-0.4241
5.07	-9.6642	-0.7701	-2.1126	-0.0259	0.0104	-0.0481	38.8202	25.5256	5.1360	0.4629	0.4740	0.6175	-0.4240
5.08	-9.6528	-0.7692	-2.1109	-0.0311	0.0133	-0.0502	38.5126	25.6570	4.9717	0.4628	0.4740	0.6176	-0.4239
5.09	-9.6854	-0.7835	-2.1154	-0.0278	0.0138	-0.0497	38.6143	25.5834	4.9116	0.4628	0.4740	0.6177	-0.4238
5.1	-9.6847	-0.7915	-2.1320	-0.0309	0.0135	-0.0477	38.9311	25.7306	5.0241	0.4627	0.4740	0.6177	-0.4237
5.11	-9.6564	-0.7994	-2.1311	-0.0286	0.0060	-0.0471	38.6469	25.5880	5.0393	0.4627	0.4741	0.6178	-0.4237
5.12	-9.6717	-0.8075	-2.1256	-0.0283	0.0093	-0.0451	38.6331	25.6649	5.3141	0.4627	0.4741	0.6179	-0.4236
5.13	-9.7429	-0.8049	-2.1361	-0.0246	0.0059	-0.0486	38.8135	25.5187	5.0103	0.4626	0.4741	0.6180	-0.4236
5.14	-9.7076	-0.8060	-2.1397	-0.0195	-0.0109	-0.0452	38.7815	25.6395	5.1457	0.4626	0.4741	0.6179	-0.4235
5.15	-9.6524	-0.8101	-2.1309	-0.0131	-0.0048	-0.0515	38.8237	25.8241	5.1898	0.4626	0.4741	0.6179	-0.4236
5.16	-9.6891	-0.8204	-2.1359	-0.0124	-0.0054	-0.0502	38.5337	25.6259	5.1230	0.4625	0.4741	0.6180	-0.4236
5.17	-9.6852	-0.8056	-2.1275	-0.0048	-0.0126	-0.0448	38.3065	25.5961	5.3441	0.4625	0.4741	0.6179	-0.4236
5.18	-9.6754	-0.7945	-2.1282	-0.0048	-0.0008	-0.0487	38.4797	25.7584	5.1719	0.4625	0.4742	0.6180	-0.4237
5.19	-9.6569	-0.7753	-2.1202	-0.0032	-0.0049	-0.0473	38.7023	25.9011	5.2358	0.4624	0.4742	0.6179	-0.4237
5.2	-9.6450	-0.7709	-2.1259	-0.0077	-0.0081	-0.0480	38.6984	25.7271	5.1477	0.4624	0.4743	0.6179	-0.4237
5.21	-9.6425	-0.7728	-2.1200	-0.0089	-0.0017	-0.0428	38.8024	25.9518	5.0002	0.4623	0.4743	0.6178	-0.4237
5.22	-9.6359	-0.7807	-2.1203	-0.0038	-0.0073	-0.0494	38.9008	25.5788	5.1649	0.4623	0.4744	0.6178	-0.4237
5.23	-9.6612	-0.7704	-2.1255	-0.0108	-0.0105	-0.0471	38.5603	25.7820	5.4226	0.4623	0.4744	0.6178	-0.4237
5.24	-9.6744	-0.7698	-2.1262	-0.0079	-0.0123	-0.0440	39.1183	25.9551	5.2551	0.4623	0.4744	0.6178	-0.4238
5.25	-9.6721	-0.7760	-2.1227	-0.0053	-0.0169	-0.0394	39.4816	25.6699	4.9663	0.4623	0.4745	0.6177	-0.4238
5.26	-9.6857	-0.7818	-2.1318	-0.0030	-0.0101	-0.0391	39.0677	25.5681	5.3559	0.4623	0.4745	0.6176	-0.4238
5.27	-9.7023	-0.7731	-2.1282	-0.0026	-0.0120	-0.0393	38.8730	25.6540	5.1201	0.4623	0.4746	0.6176	-0.4239
5.28	-9.6854	-0.7668	-2.1264	-0.0060	-0.0173	-0.0392	38.6884	25.4748	4.9673	0.4622	0.4746	0.6175	-0.4239
5.29	-9.6886	-0.7691	-2.1255	-0.0031	-0.0137	-0.0399	38.9416	25.4832	5.0875	0.4623	0.4747	0.6175	-0.4240
5.3	-9.6798	-0.7685	-2.1326	-0.0065	-0.0103	-0.0438	38.5670	25.5708	5.1136	0.4622	0.4747	0.6174	-0.4240
5.31	-9.6666	-0.7729	-2.1292	-0.0032	-0.0093	-0.0454	38.7531	25.5969	5.1965	0.4622	0.4748	0.6174	-0.4240
5.32	-9.6917	-0.7670	-2.1280	-0.0029	-0.0119	-0.0485	38.7487	25.7712	5.0575	0.4622	0.4748	0.6174	-0.4241
5.33	-9.6924	-0.7708	-2.1306	-0.0036	-0.0103	-0.0557	38.7062	25.6855	5.1837	0.4621	0.4748	0.6174	-0.4241
5.34	-9.6724	-0.7707	-2.1209	0.0009	-0.0099	-0.0506	38.7256	25.6264	4.9860	0.4621	0.4748	0.6173	-0.4242
5.35	-9.6908	-0.7678	-2.1229	-0.0007	-0.0109	-0.0530	38.6635	25.6515	5.3016	0.4620	0.4748	0.6173	-0.4243
5.36	-9.6772	-0.7637	-2.1127	0.0048	-0.0136	-0.0525	38.6547	25.6341	5.1050	0.4620	0.4749	0.6173	-0.4244
5.37	-9.6674	-0.7546	-2.1068	-0.0001	-0.0121	-0.0563	38.4517	25.6511	5.1045	0.4619	0.4749	0.6172	-0.4245
5.38	-9.6698	-0.7599	-2.1036	0.0050	-0.0218	-0.0553	38.5095	25.6296	5.1987	0.4619	0.4749	0.6172	-0.4246
5.39	-9.6662	-0.7567	-2.0969	0.0079	-0.0182	-0.0624	38.5169	25.6520	5.0562	0.4618	0.4749	0.6171	-0.4247
5.4	-9.6539	-0.7507	-2.0950	-0.0035	-0.0172	-0.0600	38.3144	25.8491	5.1832	0.4618	0.4749	0.6171	-0.4248
5.41	-9.6357	-0.7565	-2.0895	0.0010	-0.0144	-0.0568	38.2711	25.8038	5.1555	0.4617	0.4749	0.6171	-0.4249
5.42	-9.6359	-0.7633	-2.0616	-0.0010	-0.0172	-0.0623	38.6214	25.8236	5.1081	0.4616	0.4748	0.6170	-0.4250
5.43	-9.6493	-0.7617	-2.0642	-0.0055	-0.0167	-0.0639	38.6705	25.7246	4.8254	0.4617	0.4749	0.6171	-0.4251
5.44	-9.6278	-0.7684	-2.0661	-0.0039	-0.0150	-0.0637	38.8325	25.7048	4.9539	0.4616	0.4748	0.6170	-0.4252
5.45	-9.6169	-0.7795	-2.0622	-0.0070	-0.0121	-0.0590	38.8714	25.5975	4.9858	0.4615	0.4748	0.6171	-0.4253
5.46	-9.6075	-0.7713	-2.0689	-0.0116	-0.0112	-0.0528	38.7638	25.7643	4.9824	0.4615	0.4748	0.6170	-0.4253
5.47	-9.6155	-0.7651	-2.0653	-0.0044	-0.0046	-0.0579	38.7530	25.5780	5.0798	0.4614	0.4748	0.6170	-0.4254
5.48	-9.6224	-0.7721	-2.0807	-0.0233	-0.0094	-0.0602	38.7901	25.5820	4.9287	0.4614	0.4748	0.6171	-0.4254
5.49	-9.6164	-0.7895	-2.0740	-0.0294	-0.0010	-0.0591	38.6747	25.7337	5.0808	0.4614	0.4747	0.6171	-0.4253
5.5	-9.6458	-0.8082	-2.0785	-0.0272	0.0109	-0.0628	38.6855	25.7430	5.0654	0.4613	0.4747	0.6172	-0.4253
5.51	-9.7290	-0.8193	-2.1045	-0.0268	0.0032	-0.0586	38.6502	25.5632	5.0761	0.4612	0.4747	0.6173	-0.4253
5.52	-9.7268	-0.8229	-2.0939	-0.0280	-0.0005	-0.0623	38.7579	25.6043	4.8510	0.4612	0.4746	0.6174	-0.4253
5.53	-9.7027	-0.8554	-2.1160	-0.0301	-0.0060	-0.0597	38.6902	25.7203	5.0769	0.4611	0.4745	0.6174	-0.4252
5.54	-9.6714	-0.8808	-2.1130	-0.0210	-0.0043	-0.0515	38.5578	25.8726	5.1712	0.4612	0.4746	0.6175	-0.4253
5.55	-9.6630	-0.8794	-2.1079	-0.0189	-0.0052	-0.0462	38.6087	25.8687	5.1711	0.4611	0.4746	0.6175	-0.4253
5.56	-9.6626	-0.8752	-2.1300	-0.0113	-0.0024	-0.0419	38.5699	25.7934	5.0843	0.4611	0.4746	0.6175	-0.4253
5.57	-9.6402	-0.8329	-2.1237	-0.0079	-0.0084	-0.0409	38.6102	25.9068	5.0541	0.4611	0.4746	0.6174	-0.4253
5.58	-9.6585	-0.8227	-2.1339	-0.0053	-0.0038	-0.0481	38.5534	25.8157	5.2047	0.4610	0.4747	0.6174	-0.4253
5.59	-9.6752	-0.8198	-2.1344	-0.0019	0.0009	-0.0515	38.6692	25.9554	5.0904	0.4610	0.4748	0.6174	-0.4253
5.6	-9.6688	-0.8284	-2.1362	-0.0048	-0.0024	-0.0445	38.6689	25.8026	5.0359	0.4609	0.4748	0.6174	-0.4253
5.61	-9.6707	-0.8178	-2.1247	0.0029	-0.0146	-0.0407	38.6069	25.8211	5.2192	0.4609	0.4749	0.6174	-0.4254
5.62	-9.6511	-0.8025	-2.1227	0.0056	-0.0097	-0.0425	38.6561	25.5275	5.2209	0.4608	0.4749	0.6173	-0.4255
5.63	-9.6566	-0.7954	-2.1136	-0.0005	-0.0112	-0.0464	38.5790	25.6269	4.8764	0.4608	0.4750	0.6173	-0.4256
5.64	-9.6464	-0.7833	-2.1108	-0.0041	-0.0176	-0.0455	39.0131	25.7324	4.8852	0.4608	0.4750	0.6171	-0.4256
5.65	-9.6333	-0.7728	-2.1043	-0.0049	-0.0150	-0.0483	38.7631	25.6273	5.0207	0.4608	0.4750	0.6171	-0.4257
5.66	-9.6323	-0.7851	-2.1032	-0.0091	-0.0080	-0.0500	38.6311	25.6368	4.9275	0.4607	0.4751	0.6171	-0.4257
5.67	-9.6187	-0.7924	-2.1088	-0.0068	-0.0010	-0.0517	38.7779	25.6582	5.1626	0.4607	0.4751	0.6171	-0.4257
5.68	-9.6269	-0.7930	-2.1111	-0.0069	-0.0040	-0.0456	38.6615	25.6120	5.2676	0.4607	0.4752	0.6171	-0.4258
5.69	-9.6546	-0.7982	-2.1149	-0.0051	0.0026	-0.0462	38.6873	25.5784	4.9782	0.4606	0.4752	0.6171	-0.4258
5.7	-9.6862	-0.8014	-2.1279	-0.0168	-0.0028	-0.0497	38.6322	25.6567	4.9845	0.4606	0.4752	0.6171	-0.4258
5.71	-9.6670	-0.8077	-2.1274	-0.0222	0.0002	-0.0460	38.4656	25.7044	4.9715	0.4605	0.4752	0.6171	-0.4257
5.72	-9.6534	-0.8303	-2.1360	-0.0251	0.0022	-0.0498	38.4222	25.9713	5.0908	0.4605	0.4752	0.6172	-0.4257
5.73	-9.6354	-0.7979	-2.1166	-0.0182	-0.0037	-0.0467	38.7213	25.8333	5.4149	0.4605	0.4752	0.6172	-0.4257
5.74	-9.7082	-0.8070	-2.1496	-0.0278	-0.0008	-0.0484	38.8563	25.8090	5.3890	0.4604	0.4752	0.6172	-0.4257
5.75	-9.6996	-0.8296	-2.1406	-0.0200	-0.0140	-0.0464	38.9481	25.9192	5.2128	0.4605	0.4752	0.6172	-0.4257
5.76	-9.6236	-0.8308	-2.1222	-0.0191	-0.0069	-0.0530	38.7775	25.9351	5.2031	0.4604	0.4752	0.6172	-0.4257
5.77	-9.6757	-0.8538	-2.1379	-0.0199	-0.0088	-0.0456	38.6638	25.8075	5.0996	0.4605	0.4752	0.6173	-0.4257
5.78	-9.6807	-0.8436	-2.1234	-0.0122	-0.0155	-0.0413	38.4614	25.7782	5.1359	0.4604	0.4752	0.6171	-0.4257
5.79	-9.6506	-0.8317	-2.1201	-0.0062	-0.0152	-0.0351	38.6711	25.9175	5.0887	0.4605	0.4753	0.6171	-0.4257
5.8	-9.6672	-0.8184	-2.1295	-0.0039	-0.0104	-0.0390	38.7196	25.8141	5.1957	0.4604	0.4753	0.6171	-0.4258
5.81	-9.6636	-0.8042	-2.1280	-0.0048	-0.0091	-0.0426	38.6741	25.7764	5.1162	0.4604	0.4754	0.6170	-0.4258
5.82	-9.6627	-0.8242	-2.1341	-0.0042	-0.0145	-0.0430	38.8220	25.7961	4.7569	0.4604	0.4754	0.6169	-0.4258
5.83	-9.6619	-0.8361	-2.1368	-0.0044	-0.0131	-0.0436	38.8666	25.5270	5.0847	0.4604	0.4755	0.6169	-0.4259
5.84	-9.6641	-0.8184	-2.1269	-0.0047	-0.0155	-0.0388	38.7456	25.7533	5.0713	0.4604	0.4755	0.6169	-0.4259
5.85	-9.6710	-0.8114	-2.1326	-0.0024	-0.0121	-0.0472	38.8951	25.8107	5.0091	0.4603	0.4755	0.6168	-0.4260
5.86	-9.6738	-0.8037	-2.1289	-0.0055	-0.0090	-0.0373	38.7743	25.6684	5.1406	0.4604	0.4756	0.6168	-0.4260
5.87	-9.6683	-0.8017	-2.1291	-0.0045	-0.0149	-0.0371	38.4890	25.8685	4.9696	0.4604	0.4757	0.6167	-0.4260
5.88	-9.6647	-0.7975	-2.1207	-0.0027	-0.0155	-0.0385	38.6617	25.6072	4.8474	0.4604	0.4758	0.6167	-0.4261
5.89	-9.6716	-0.7953	-2.1174	-0.0043	-0.0174	-0.0364	38.8162	25.6236	4.9338	0.4603	0.4758	0.6165	-0.4261
5.9	-9.6606	-0.7959	-2.1167	-0.0043	-0.0175	-0.0375	38.5389	25.6868	5.1890	0.4604	0.4758	0.6165	-0.4262
5.91	-9.6656	-0.7675	-2.1181	-0.0051	-0.0153	-0.0335	38.6954	25.7844	4.8627	0.4604	0.4759	0.6164	-0.4262
5.92	-9.6677	-0.7754	-2.1132	-0.0141	-0.0170	-0.0335	38.7016	26.0031	5.1553	0.4604	0.4759	0.6163	-0.4262
5.93	-9.6499	-0.7962	-2.1054	-0.0129	-0.0162	-0.0324	38.7100	25.7504	4.9624	0.4605	0.4760	0.6163	-0.4262
5.94	-9.6609	-0.7739	-2.1072	-0.0026	-0.0194	-0.0329	38.5422	25.9264	5.0099	0.4605	0.4760	0.6161	-0.4262
5.95	-9.6466	-0.7718	-2.0966	-0.0078	-0.0172	-0.0334	38.5495	25.5732	5.1336	0.4605	0.4761	0.6161	-0.4263
5.96	-9.6698	-0.7764	-2.0955	-0.0072	-0.0155	-0.0329	38.8149	25.8024	4.7988	0.4605	0.4761	0.6160	-0.4263
5.97	-9.6639	-0.7548	-2.0892	-0.0057	-0.0141	-0.0334	38.8889	25.7694	4.8603	0.4606	0.4762	0.6159	-0.4263
5.98	-9.6702	-0.7566	-2.0887	-0.0047	-0.0160	-0.0359	38.7021	25.6485	4.8630	0.4606	0.4763	0.6158	-0.4263
5.99	-9.6721	-0.7682	-2.0947	-0.0041	-0.0170	-0.0436	38.7068	25.5041	5.0712	0.4605	0.4763	0.6158	-0.4264
6	-9.6589	-0.7583	-2.0671	-0.0034	-0.0125	-0.0465	38.6808	25.6416	4.9034	0.4605	0.4764	0.6158	-0.4265
6.01	-9.6458	-0.7505	-2.0769	-0.0046	-0.0146	-0.0447	38.7432	25.5518	4.9876	0.4605	0.4764	0.6157	-0.4265
6.02	-9.6424	-0.7519	-2.0726	-0.0075	-0.0093	-0.0455	38.8028	25.3558	5.0603	0.4605	0.4764	0.6157	-0.4266
6.03	-9.6388	-0.7560	-2.0523	-0.0091	-0.0090	-0.0460	38.7336	25.6505	5.0174	0.4604	0.4764	0.6156	-0.4265
6.04	-9.6439	-0.7707	-2.0673	-0.0156	-0.0100	-0.0516	38.4079	25.4674	5.0502	0.4605	0.4765	0.6157	-0.4266
6.05	-9.6428	-0.7716	-2.0717	-0.0216	-0.0114	-0.0470	38.7309	25.4477	5.0046	0.4605	0.4764	0.6156	-0.4266
6.06	-9.6019	-0.7646	-2.0598	-0.0206	-0.0094	-0.0430	38.6788	25.6292	4.8405	0.4605	0.4764	0.6156	-0.4266
6.07	-9.6409	-0.7561	-2.0724	-0.0271	-0.0042	-0.0495	38.4848	25.5873	4.8497	0.4605	0.4764	0.6156	-0.4265
6.08	-9.6538	-0.7851	-2.0853	-0.0236	0.0003	-0.0516	38.7668	25.6449	4.9757	0.4605	0.4764	0.6157	-0.4265
6.09	-9.6123	-0.7767	-2.0589	-0.0220	0.0062	-0.0524	38.6695	25.7214	5.1043	0.4604	0.4764	0.6158	-0.4265
6.1	-9.6487	-0.7976	-2.0711	-0.0304	0.0111	-0.0591	38.7139	25.6829	5.1420	0.4603	0.4764	0.6158	-0.4264
6.11	-9.7096	-0.8089	-2.0955	-0.0291	0.0015	-0.0557	38.6994	25.7128	5.0004	0.4603	0.4764	0.6159	-0.4264
6.12	-9.6998	-0.8150	-2.0791	-0.0223	-0.0001	-0.0533	38.6803	25.6850	4.9041	0.4603	0.4764	0.6159	-0.4264
6.13	-9.6932	-0.8424	-2.0902	-0.0296	0.0022	-0.0516	38.5485	25.9800	5.0129	0.4603	0.4764	0.6161	-0.4264
6.14	-9.6492	-0.8469	-2.0993	-0.0265	-0.0089	-0.0451	38.8518	25.8569	5.0357	0.4602	0.4763	0.6160	-0.4263
6.15	-9.6577	-0.8355	-2.0980	-0.0178	0.0011	-0.0354	38.5947	25.7882	5.0215	0.4603	0.4764	0.6160	-0.4263
6.16	-9.6692	-0.8134	-2.1171	-0.0064	0.0026	-0.0362	38.5427	25.9169	5.2311	0.4602	0.4765	0.6160	-0.4263
6.17	-9.6381	-0.7855	-2.1026	-0.0087	-0.0059	-0.0360	38.7108	25.7985	5.0710	0.4602	0.4766	0.6159	-0.4262
6.18	-9.6660	-0.7781	-2.1087	-0.0128	-0.0017	-0.0400	38.7170	25.5716	4.7781	0.4602	0.4767	0.6160	-0.4263
6.19	-9.6711	-0.7784	-2.1321	-0.0054	-0.0053	-0.0408	38.6445	25.3752	5.0909	0.4601	0.4767	0.6159	-0.4262
6.2	-9.6837	-0.7755	-2.1160	-0.0038	-0.0044	-0.0518	38.6467	25.5276	5.0901	0.4601	0.4768	0.6159	-0.4263
6.21	-9.6724	-0.7706	-2.1259	-0.0030	0.0024	-0.0450	38.8095	25.5097	4.9124	0.4600	0.4768	0.6158	-0.4263
6.22	-9.6625	-0.7665	-2.1099	-0.0013	-0.0038	-0.0442	38.7837	25.6548	5.0738	0.4600	0.4769	0.6158	-0.4264
6.23	-9.6771	-0.7574	-2.1070	-0.0028	-0.0104	-0.0450	38.9711	25.7161	5.1811	0.4599	0.4769	0.6158	-0.4264
6.24	-9.6520	-0.7570	-2.1014	-0.0102	-0.0103	-0.0463	39.2477	25.6962	5.2444	0.4599	0.4769	0.6157	-0.4264
6.25	-9.6453	-0.7633	-2.1067	-0.0131	-0.0102	-0.0467	39.2323	25.7065	5.1906	0.4599	0.4770	0.6158	-0.4265
6.26	-9.6598	-0.7729	-2.1096	-0.0182	-0.0110	-0.0409	38.9073	25.8224	5.2227	0.4599	0.4770	0.6157	-0.4264
6.27	-9.6566	-0.7796	-2.1058	-0.0270	-0.0091	-0.0433	38.5101	25.5407	5.1031	0.4600	0.4770	0.6157	-0.4264
6.28	-9.6691	-0.7882	-2.1261	-0.0280	0.0034	-0.0475	38.5497	25.7506	4.9604	0.4599	0.4769	0.6157	-0.4263
6.29	-9.6794	-0.7889	-2.1278	-0.0300	-0.0048	-0.0478	38.7060	25.8208	5.0929	0.4600	0.4770	0.6158	-0.4263
6.3	-9.6737	-0.8027	-2.1344	-0.0266	-0.0036	-0.0470	38.3660	25.6925	4.9041	0.4600	0.4770	0.6158	-0.4263
6.31	-9.6733	-0.8081	-2.1329	-0.0299	-0.0049	-0.0502	38.4984	25.7474	5.1199	0.4600	0.4770	0.6159	-0.4262
6.32	-9.6529	-0.8076	-2.1358	-0.0273	-0.0075	-0.0476	38.5024	25.7154	4.8299	0.4600	0.4769	0.6159	-0.4262
6.33	-9.5997	-0.8142	-2.1155	-0.0216	-0.0120	-0.0447	38.4889	25.7347	4.9643	0.4600	0.4769	0.6159	-0.4262
6.34	-9.6696	-0.8162	-2.1288	-0.0149	-0.0046	-0.0438	38.5149	25.7233	5.1067	0.4600	0.4770	0.6159	-0.4262
6.35	-9.6933	-0.8096	-2.1230	-0.0132	-0.0085	-0.0524	38.4632	25.7375	5.0639	0.4599	0.4769	0.6158	-0.4262
6.36	-9.6187	-0.8337	-2.0953	-0.0068	-0.0144	-0.0474	38.6497	25.6176	4.9576	0.4600	0.4770	0.6159	-0.4263
6.37	-9.6676	-0.8467	-2.1096	-0.0038	-0.0090	-0.0450	38.7875	25.6669	5.0306	0.4599	0.4770	0.6158	-0.4263
6.38	-9.7060	-0.8265	-2.1155	-0.0026	-0.0092	-0.0394	38.7805	25.5721	5.0914	0.4599	0.4771	0.6158	-0.4264
6.39	-9.6470	-0.8029	-2.1032	-0.0049	-0.0110	-0.0429	38.6473	25.5439	5.0796	0.4598	0.4771	0.6157	-0.4264
6.4	-9.6597	-0.7859	-2.1008	0.0015	-0.0100	-0.0401	38.7244	25.4444	4.9351	0.4598	0.4772	0.6157	-0.4264
6.41	-9.6822	-0.7702	-2.0985	0.0041	-0.0079	-0.0524	38.7237	25.4902	5.0857	0.4598	0.4772	0.6156	-0.4265
6.42	-9.6757	-0.7890	-2.1052	-0.0021	-0.0093	-0.0528	38.6609	25.3799	4.9743	0.4597	0.4772	0.6155	-0.4266
6.43	-9.6699	-0.7910	-2.1089	0.0011	-0.0072	-0.0549	38.5693	25.3688	5.1234	0.4597	0.4773	0.6156	-0.4267
6.44	-9.6711	-0.7832	-2.1129	0.0033	-0.0133	-0.0524	38.6327	25.6826	5.1266	0.4596	0.4773	0.6155	-0.4267
6.45	-9.6777	-0.7937	-2.1145	-0.0052	-0.0162	-0.0447	38.6574	25.7460	4.8431	0.4596	0.4774	0.6155	-0.4268
6.46	-9.6837	-0.7707	-2.1014	-0.0021	-0.0123	-0.0494	38.4496	25.7170	4.9896	0.4595	0.4773	0.6154	-0.4268
6.47	-9.6896	-0.7815	-2.1066	-0.0150	-0.0125	-0.0474	38.5448	25.7345	4.9889	0.4595	0.4774	0.6154	-0.4269
6.48	-9.6713	-0.7993	-2.0987	-0.0161	-0.0197	-0.0460	38.4064	25.5470	5.1207	0.4596	0.4774	0.6154	-0.4269
6.49	-9.6638	-0.7893	-2.0878	-0.0170	-0.0176	-0.0447	38.5243	25.6151	4.9714	0.4596	0.4773	0.6153	-0.4269
6.5	-9.6405	-0.8059	-2.0971	-0.0165	-0.0107	-0.0409	38.8405	25.7569	5.0748	0.4596	0.4774	0.6153	-0.4270
6.51	-9.6667	-0.8137	-2.1019	-0.0185	-0.0122	-0.0410	38.5468	25.8346	5.0860	0.4596	0.4774	0.6153	-0.4269
6.52	-9.6405	-0.8059	-2.0930	-0.0156	-0.0168	-0.0410	38.5238	25.5900	5.0094	0.4597	0.4774	0.6153	-0.4270
6.53	-9.6219	-0.8208	-2.0981	-0.0119	-0.0090	-0.0367	38.7167	25.8448	4.9525	0.4596	0.4774	0.6151	-0.4269
6.54	-9.6690	-0.8100	-2.1008	-0.0039	-0.0067	-0.0406	38.4265	25.7759	5.1115	0.4597	0.4775	0.6152	-0.4270
6.55	-9.6728	-0.8008	-2.0877	-0.0041	-0.0171	-0.0366	38.7527	25.5894	5.0189	0.4596	0.4776	0.6151	-0.4270
6.56	-9.6698	-0.7878	-2.0942	-0.0016	-0.0121	-0.0421	38.6929	25.4089	4.9579	0.4596	0.4776	0.6150	-0.4271
6.57	-9.6699	-0.7901	-2.0914	-0.0016	-0.0122	-0.0436	38.6700	25.2704	5.1044	0.4596	0.4777	0.6149	-0.4271
6.58	-9.6659	-0.7744	-2.0969	-0.0056	-0.0092	-0.0340	38.6559	25.5334	5.1907	0.4596	0.4777	0.6149	-0.4271
6.59	-9.6462	-0.7698	-2.0924	-0.0005	-0.0084	-0.0395	38.5434	25.4102	5.1288	0.4596	0.4778	0.6148	-0.4272
6.6	-9.6609	-0.7609	-2.0846	-0.0025	-0.0116	-0.0427	38.6822	25.6363	4.9605	0.4595	0.4778	0.6147	-0.4272
6.61	-9.6599	-0.7573	-2.0935	-0.0050	-0.0086	-0.0456	38.6798	25.7631	4.9019	0.4596	0.4779	0.6148	-0.4273
6.62	-9.6360	-0.7572	-2.0875	-0.0052	-0.0082	-0.0460	38.6682	25.5303	4.8315	0.4595	0.4779	0.6147	-0.4273
6.63	-9.6410	-0.7693	-2.0963	-0.0073	-0.0128	-0.0421	38.6906	25.6557	4.8365	0.4595	0.4780	0.6147	-0.4273
6.64	-9.6411	-0.7621	-2.0817	-0.0031	-0.0130	-0.0446	38.6592	25.5187	5.0214	0.4595	0.4780	0.6146	-0.4273
6.65	-9.6432	-0.7700	-2.0842	-0.0127	0.0017	-0.0473	38.4712	25.7357	4.8270	0.4594	0.4781	0.6146	-0.4274
6.66	-9.6546	-0.7921	-2.0888	-0.0273	-0.0011	-0.0468	38.6681	25.7898	4.9678	0.4594	0.4781	0.6146	-0.4273
6.67	-9.6522	-0.7842	-2.0899	-0.0185	-0.0032	-0.0509	38.3897	25.7092	4.9760	0.4594	0.4781	0.6146	-0.4273
6.68	-9.6361	-0.7752	-2.0871	-0.0239	-0.0045	-0.0490	38.4214	25.6290	4.9922	0.4594	0.4781	0.6147	-0.4273
6.69	-9.6409	-0.7768	-2.0997	-0.0164	0.0124	-0.0485	38.5327	25.5378	4.9493	0.4593	0.4781	0.6147	-0.4272
6.7	-9.6650	-0.7784	-2.1216	-0.0103	0.0105	-0.0522	38.6839	25.7617	4.8455	0.4593	0.4782	0.6148	-0.4273
6.71	-9.6206	-0.7961	-2.1053	-0.0192	0.0062	-0.0467	38.5976	25.6255	5.0046	0.4592	0.4782	0.6147	-0.4272
6.72	-9.6481	-0.8042	-2.1056	-0.0307	0.0159	-0.0502	38.3376	25.6436	4.9589	0.4592	0.4782	0.6149	-0.4271
6.73	-9.7234	-0.8183	-2.1292	-0.0161	0.0107	-0.0527	38.5235	25.8152	5.2057	0.4591	0.4783	0.6149	-0.4271
6.74	-9.7211	-0.8234	-2.1216	-0.0123	-0.0126	-0.0483	38.9745	25.7717	5.2802	0.4590	0.4782	0.6149	-0.4271
6.75	-9.6988	-0.8400	-2.1282	-0.0163	-0.0182	-0.0414	38.9203	25.5164	5.2491	0.4591	0.4783	0.6149	-0.4272
6.76	-9.6526	-0.8395	-2.1309	-0.0086	-0.0115	-0.0414	38.8433	25.5058	5.1703	0.4591	0.4783	0.6148	-0.4272
6.77	-9.6607	-0.8296	-2.1336	-0.0044	-0.0011	-0.0373	38.6537	25.6311	5.1196	0.4590	0.4784	0.6148	-0.4272
6.78	-9.6543	-0.8221	-2.1301	-0.0037	-0.0054	-0.0348	38.5368	25.5424	5.0338	0.4590	0.4784	0.6147	-0.4272
6.79	-9.6374	-0.7794	-2.1258	-0.0036	-0.0068	-0.0344	38.8252	25.5209	4.9150	0.4590	0.4786	0.6147	-0.4272
6.8	-9.6541	-0.7643	-2.1330	-0.0038	-0.0013	-0.0398	38.7545	25.5459	4.9710	0.4589	0.4786	0.6146	-0.4272
6.81	-9.6460	-0.7697	-2.1340	-0.0028	-0.0080	-0.0377	38.7674	25.7369	5.1309	0.4589	0.4787	0.6146	-0.4273
6.82	-9.6726	-0.7739	-2.1340	-0.0018	0.0075	-0.0379	38.7882	25.5845	5.1144	0.4588	0.4788	0.6145	-0.4272
6.83	-9.6854	-0.7661	-2.1338	-0.0037	-0.0019	-0.0469	38.8429	25.4181	4.8852	0.4588	0.4789	0.6145	-0.4273
6.84	-9.6661	-0.7569	-2.1276	-0.0038	-0.0060	-0.0455	38.5277	25.8172	4.9967	0.4588	0.4789	0.6145	-0.4273
6.85	-9.6644	-0.7537	-2.1284	-0.0034	0.0045	-0.0469	38.4497	25.6860	5.1188	0.4587	0.4789	0.6144	-0.4273
6.86	-9.6510	-0.7546	-2.1386	-0.0170	-0.0019	-0.0517	38.7858	25.8223	5.1221	0.4587	0.4790	0.6145	-0.4273
6.87	-9.6329	-0.7656	-2.1295	-0.0266	-0.0069	-0.0488	38.8217	25.7478	5.1036	0.4586	0.4790	0.6145	-0.4273
6.88	-9.6436	-0.7620	-2.1281	-0.0225	-0.0049	-0.0456	38.7828	25.6790	4.8995	0.4587	0.4790	0.6146	-0.4273
6.89	-9.6472	-0.7731	-2.1327	-0.0278	-0.0017	-0.0488	38.6487	25.7265	5.1434	0.4586	0.4789	0.6145	-0.4272
6.9	-9.6431	-0.7870	-2.1293	-0.0291	0.0023	-0.0506	38.5188	25.6671	5.0960	0.4586	0.4790	0.6146	-0.4272
6.91	-9.6673	-0.7883	-2.1365	-0.0291	-0.0023	-0.0529	38.7424	25.5976	5.1814	0.4586	0.4790	0.6147	-0.4271
6.92	-9.6852	-0.8055	-2.1433	-0.0291	-0.0018	-0.0444	38.6387	25.6327	5.2360	0.4586	0.4789	0.6147	-0.4271
6.93	-9.6747	-0.8101	-2.1448	-0.0293	-0.0118	-0.0422	38.8938	25.5088	5.1024	0.4587	0.4790	0.6148	-0.4271
6.94	-9.6504	-0.8206	-2.1483	-0.0284	-0.0073	-0.0447	38.8670	25.5454	5.1340	0.4587	0.4789	0.6147	-0.4270
6.95	-9.6337	-0.8083	-2.1339	-0.0192	-0.0058	-0.0428	38.7807	25.5048	5.1184	0.4587	0.4790	0.6148	-0.4270
6.96	-9.6924	-0.8028	-2.1371	-0.0101	-0.0047	-0.0470	38.8523	25.6325	5.1311	0.4586	0.4789	0.6147	-0.4270
6.97	-9.7078	-0.8071	-2.1389	-0.0041	-0.0106	-0.0500	38.8532	25.5957	4.9954	0.4586	0.4790	0.6147	-0.4271
6.98	-9.6330	-0.8128	-2.1257	-0.0092	-0.0124	-0.0543	38.7142	25.4905	4.8951	0.4586	0.4790	0.6147	-0.4271
6.99	-9.6503	-0.8193	-2.1291	-0.0075	-0.0097	-0.0481	38.5622	25.6020	5.0876	0.4586	0.4790	0.6146	-0.4272
7	-9.6647	-0.8016	-2.1129	-0.0081	-0.0091	-0.0447	38.9028	25.7291	5.2585	0.4586	0.4791	0.6146	-0.4272
7.01	-9.6249	-0.7885	-2.1100	-0.0039	-0.0113	-0.0448	38.8238	25.6750	5.1481	0.4585	0.4791	0.6146	-0.4272
7.02	-9.6364	-0.7587	-2.1069	-0.0056	-0.0120	-0.0433	38.7212	25.5708	4.9150	0.4585	0.4791	0.6145	-0.4273
7.03	-9.6488	-0.7617	-2.1136	-0.0038	-0.0038	-0.0449	38.4830	25.7315	5.0150	0.4584	0.4791	0.6144	-0.4273
7.04	-9.6577	-0.7880	-2.1281	-0.0053	-0.0057	-0.0491	38.6251	25.5614	5.1654	0.4584	0.4792	0.6145	-0.4274
7.05	-9.6451	-0.7865	-2.1270	-0.0071	-0.0027	-0.0504	38.7050	25.7045	5.2204	0.4584	0.4793	0.6145	-0.4274
7.06	-9.6425	-0.7758	-2.1166	-0.0056	-0.0062	-0.0468	38.6568	25.6265	5.2227	0.4583	0.4793	0.6144	-0.4274
7.07	-9.6555	-0.7851	-2.1198	-0.0032	-0.0006	-0.0504	38.7915	25.6183	5.1067	0.4583	0.4793	0.6144	-0.4274
7.08	-9.6658	-0.7895	-2.1199	-0.0123	-0.0044	-0.0457	38.7474	25.8378	5.1381	0.4582	0.4794	0.6144	-0.4274
7.09	-9.6714	-0.7845	-2.1097	-0.0221	-0.0076	-0.0471	38.6331	25.7721	5.2594	0.4583	0.4794	0.6144	-0.4274
7.1	-9.6810	-0.7925	-2.1194	-0.0163	-0.0048	-0.0422	38.8055	25.8101	5.0921	0.4582	0.4794	0.6144	-0.4274
7.11	-9.6736	-0.7979	-2.1213	-0.0133	-0.0128	-0.0366	38.6211	25.5813	5.1484	0.4583	0.4795	0.6144	-0.4274
7.12	-9.6748	-0.8051	-2.1245	-0.0104	-0.0141	-0.0371	38.6433	25.6277	5.2261	0.4583	0.4795	0.6143	-0.4274
7.13	-9.6778	-0.8057	-2.1207	-0.0220	-0.0077	-0.0410	38.8993	25.6179	5.2248	0.4583	0.4796	0.6143	-0.4274
7.14	-9.6784	-0.8002	-2.1125	-0.0106	-0.0083	-0.0399	38.8292	25.6139	5.1056	0.4583	0.4795	0.6142	-0.4274
7.15	-9.6626	-0.8007	-2.1183	-0.0107	-0.0094	-0.0385	38.8940	25.5126	5.2729	0.4583	0.4796	0.6142	-0.4274
7.16	-9.6460	-0.7996	-2.1060	-0.0053	-0.0094	-0.0447	38.7707	25.7196	5.0914	0.4583	0.4797	0.6142	-0.4274
7.17	-9.6627	-0.7805	-2.1030	-0.0029	-0.0089	-0.0405	38.5303	25.6220	4.9871	0.4582	0.4797	0.6141	-0.4275
7.18	-9.6462	-0.7770	-2.0928	-0.0047	-0.0125	-0.0448	38.8520	25.6040	5.0650	0.4583	0.4798	0.6141	-0.4276
7.19	-9.6407	-0.7735	-2.0960	-0.0054	-0.0126	-0.0440	38.6582	25.6350	5.1290	0.4582	0.4798	0.6140	-0.4276
7.2	-9.6409	-0.7682	-2.0947	-0.0037	-0.0084	-0.0507	38.6100	25.5823	5.1208	0.4582	0.4798	0.6140	-0.4276
7.21	-9.6526	-0.7614	-2.0980	-0.0057	-0.0084	-0.0518	38.8177	25.7327	5.1265	0.4581	0.4798	0.6139	-0.4276
7.22	-9.6646	-0.7668	-2.0997	-0.0109	-0.0037	-0.0523	38.6113	25.7645	4.8747	0.4581	0.4799	0.6140	-0.4277
7.23	-9.6322	-0.7592	-2.0992	-0.0257	-0.0059	-0.0511	38.6304	25.7152	5.0156	0.4581	0.4798	0.6140	-0.4277
7.24	-9.6333	-0.7826	-2.0975	-0.0114	-0.0017	-0.0533	39.0593	25.8939	5.3122	0.4580	0.4798	0.6140	-0.4277
7.25	-9.6299	-0.7920	-2.1001	-0.0204	-0.0051	-0.0465	39.0306	25.8957	5.3894	0.4580	0.4799	0.6140	-0.4277
7.26	-9.6400	-0.7788	-2.1143	-0.0268	-0.0053	-0.0500	38.8872	25.8290	5.2675	0.4580	0.4799	0.6140	-0.4276
7.27	-9.6320	-0.7901	-2.1167	-0.0240	0.0029	-0.0473	38.6505	25.6296	5.0901	0.4580	0.4799	0.6141	-0.4276
7.28	-9.6295	-0.8027	-2.1124	-0.0277	0.0022	-0.0463	38.6613	25.7492	5.0498	0.4580	0.4798	0.6141	-0.4275
7.29	-9.6750	-0.8072	-2.1211	-0.0224	0.0067	-0.0451	38.5572	25.7337	5.3239	0.4580	0.4799	0.6142	-0.4275
7.3	-9.6731	-0.8127	-2.1263	-0.0271	0.0006	-0.0446	38.6942	25.5301	5.2182	0.4579	0.4799	0.6142	-0.4274
7.31	-9.6794	-0.8297	-2.1211	-0.0233	-0.0041	-0.0452	38.7960	25.4119	5.3424	0.4580	0.4800	0.6142	-0.4274
7.32	-9.6579	-0.8152	-2.1284	-0.0129	-0.0079	-0.0449	38.7653	25.6789	4.9945	0.4579	0.4800	0.6142	-0.4274
7.33	-9.6611	-0.8067	-2.1252	-0.0064	-0.0104	-0.0426	38.7513	25.6069	5.0795	0.4579	0.4800	0.6141	-0.4274
7.34	-9.6785	-0.8027	-2.1304	-0.0057	-0.0026	-0.0467	38.8282	25.4886	5.1467	0.4579	0.4801	0.6141	-0.4275
7.35	-9.6226	-0.8010	-2.1235	-0.0074	-0.0086	-0.0464	38.4969	25.4193	5.0609	0.4578	0.4801	0.6141	-0.4275
7.36	-9.6424	-0.8013	-2.1120	-0.0084	0.0005	-0.0450	38.3105	25.7130	5.1739	0.4578	0.4802	0.6141	-0.4275
7.37	-9.7081	-0.8009	-2.1258	-0.0050	-0.0086	-0.0428	38.7331	25.6791	4.9109	0.4578	0.4802	0.6141	-0.4275
7.38	-9.7172	-0.8033	-2.1144	-0.0031	-0.0101	-0.0466	38.3671	25.6281	5.0733	0.4578	0.4803	0.6141	-0.4276
7.39	-9.6799	-0.8079	-2.1161	-0.0036	-0.0140	-0.0421	38.6234	25.6232	5.1920	0.4577	0.4802	0.6139	-0.4276
7.4	-9.6289	-0.8108	-2.1249	-0.0083	-0.0109	-0.0482	38.5593	25.7948	5.0056	0.4577	0.4803	0.6139	-0.4277
7.41	-9.6281	-0.8118	-2.1192	-0.0030	-0.0050	-0.0398	38.6708	25.7540	5.0508	0.4577	0.4804	0.6139	-0.4277
7.42	-9.6345	-0.7946	-2.1316	-0.0058	0.0023	-0.0301	38.6173	25.7849	5.3332	0.4576	0.4804	0.6138	-0.4277
7.43	-9.6413	-0.7555	-2.1436	-0.0030	0.0117	-0.0366	38.4788	25.8346	5.0861	0.4576	0.4806	0.6139	-0.4277
7.44	-9.6496	-0.7353	-2.1483	-0.0018	0.0118	-0.0433	38.5174	25.6615	5.1364	0.4575	0.4807	0.6138	-0.4277
7.45	-9.6585	-0.7270	-2.1544	-0.0061	0.0127	-0.0468	38.4873	25.8249	4.8940	0.4574	0.4808	0.6139	-0.4277
7.46	-9.6700	-0.7343	-2.1544	-0.0064	0.0038	-0.0522	38.5956	25.7880	4.9844	0.4572	0.4808	0.6138	-0.4276
7.47	-9.6654	-0.7290	-2.1696	-0.0105	-0.0045	-0.0529	38.4884	25.8569	5.3024	0.4572	0.4808	0.6139	-0.4277
7.48	-9.6368	-0.7295	-2.1512	-0.0039	-0.0154	-0.0520	38.6806	25.7040	5.2863	0.4572	0.4808	0.6138	-0.4278
7.49	-9.6396	-0.7274	-2.1323	-0.0096	-0.0123	-0.0560	38.6687	25.6093	5.0913	0.4572	0.4808	0.6138	-0.4278
7.5	-9.6369	-0.7394	-2.1412	-0.0273	-0.0083	-0.0524	38.7842	25.6532	5.0955	0.4572	0.4808	0.6138	-0.4278
7.51	-9.6352	-0.7451	-2.1361	-0.0266	-0.0091	-0.0560	38.8928	25.5038	5.1551	0.4572	0.4808	0.6139	-0.4278
7.52	-9.6879	-0.7483	-2.1403	-0.0307	-0.0026	-0.0595	38.7969	25.3956	5.1065	0.4572	0.4807	0.6140	-0.4278
7.53	-9.6673	-0.7777	-2.1486	-0.0333	-0.0081	-0.0549	38.6705	25.3558	5.2885	0.4571	0.4806	0.6139	-0.4277
7.54	-9.7143	-0.7927	-2.1570	-0.0317	0.0013	-0.0480	38.6764	25.4972	5.3932	0.4572	0.4807	0.6141	-0.4277
7.55	-9.7138	-0.7976	-2.1655	-0.0284	-0.0085	-0.0542	38.6900	25.5926	5.1119	0.4572	0.4806	0.6141	-0.4277
7.56	-9.7016	-0.8085	-2.1621	-0.0297	-0.0124	-0.0530	38.6621	25.4146	5.1543	0.4572	0.4806	0.6141	-0.4277
7.57	-9.7143	-0.8213	-2.1627	-0.0290	-0.0093	-0.0542	38.7071	25.2391	5.1774	0.4572	0.4805	0.6141	-0.4277
7.58	-9.6817	-0.8218	-2.1642	-0.0281	-0.0223	-0.0558	38.6159	25.5941	5.2210	0.4572	0.4804	0.6142	-0.4277
7.59	-9.6365	-0.8186	-2.1578	-0.0170	-0.0173	-0.0464	38.4488	25.6302	5.4274	0.4572	0.4804	0.6142	-0.4277
7.6	-9.6899	-0.8096	-2.1546	-0.0105	-0.0120	-0.0563	38.5946	25.7236	5.2336	0.4572	0.4804	0.6141	-0.4278
7.61	-9.7335	-0.8110	-2.1536	-0.0148	-0.0234	-0.0579	38.7126	25.8173	5.2791	0.4572	0.4804	0.6142	-0.4279
7.62	-9.6325	-0.8103	-2.1281	-0.0124	-0.0289	-0.0582	38.4705	25.7026	5.0803	0.4572	0.4803	0.6141	-0.4280
7.63	-9.6350	-0.8226	-2.1175	-0.0086	-0.0262	-0.0533	38.4255	25.6937	5.1261	0.4573	0.4803	0.6141	-0.4281
7.64	-9.6636	-0.8184	-2.1189	-0.0064	-0.0270	-0.0455	38.7296	25.4971	5.3101	0.4572	0.4802	0.6140	-0.4281
7.65	-9.6162	-0.7910	-2.0920	-0.0090	-0.0216	-0.0472	38.7579	25.8489	5.0848	0.4573	0.4802	0.6139	-0.4282
7.66	-9.6199	-0.7925	-2.0952	-0.0065	-0.0224	-0.0431	38.6162	25.6929	4.9375	0.4573	0.4803	0.6139	-0.4282
7.67	-9.6401	-0.7643	-2.0721	-0.0072	-0.0170	-0.0485	38.5476	25.6086	5.0877	0.4573	0.4802	0.6138	-0.4283
7.68	-9.6410	-0.7828	-2.0926	-0.0074	-0.0107	-0.0516	38.8404	25.6582	5.0808	0.4573	0.4803	0.6138	-0.4284
7.69	-9.6353	-0.8007	-2.0891	-0.0125	-0.0143	-0.0577	38.8179	25.4830	5.2273	0.4572	0.4803	0.6138	-0.4284
7.7	-9.6627	-0.7921	-2.0945	-0.0091	-0.0168	-0.0588	38.7652	25.4547	5.0802	0.4572	0.4803	0.6138	-0.4285
7.71	-9.6764	-0.8024	-2.0967	-0.0174	-0.0127	-0.0463	38.6791	25.4732	5.1667	0.4572	0.4802	0.6137	-0.4285
7.72	-9.6622	-0.7999	-2.0908	-0.0235	-0.0150	-0.0476	38.6813	25.4412	5.3108	0.4573	0.4802	0.6138	-0.4285
7.73	-9.6613	-0.7862	-2.0922	-0.0264	-0.0197	-0.0499	39.0288	25.5327	5.2132	0.4573	0.4802	0.6138	-0.4285
7.74	-9.6737	-0.8001	-2.0819	-0.0243	-0.0140	-0.0474	39.3178	25.8432	5.0913	0.4573	0.4801	0.6137	-0.4285
7.75	-9.6636	-0.8024	-2.0706	-0.0311	-0.0226	-0.0410	39.3105	25.7177	5.0581	0.4574	0.4801	0.6137	-0.4285
7.76	-9.6628	-0.8076	-2.0813	-0.0269	-0.0177	-0.0418	38.8966	25.5947	5.0170	0.4575	0.4801	0.6137	-0.4285
7.77	-9.6569	-0.8055	-2.0893	-0.0256	-0.0230	-0.0499	38.6759	25.7324	5.0367	0.4575	0.4801	0.6137	-0.4285
7.78	-9.6417	-0.8110	-2.0835	-0.0225	-0.0192	-0.0453	38.4374	25.7153	4.9253	0.4575	0.4800	0.6136	-0.4285
7.79	-9.6265	-0.8209	-2.0709	-0.0200	-0.0152	-0.0457	38.8105	25.8414	5.0415	0.4576	0.4800	0.6137	-0.4285
7.8	-9.6365	-0.8130	-2.0742	-0.0114	-0.0074	-0.0458	38.5286	25.8768	5.0335	0.4576	0.4800	0.6136	-0.4285
7.81	-9.6315	-0.8159	-2.0667	-0.0073	-0.0012	-0.0514	38.3731	25.6896	4.9555	0.4575	0.4801	0.6136	-0.4286
7.82	-9.6619	-0.8223	-2.0862	-0.0072	-0.0038	-0.0504	38.5553	25.7261	4.9146	0.4575	0.4801	0.6136	-0.4286
7.83	-9.6706	-0.8219	-2.0797	-0.0013	-0.0066	-0.0506	38.3647	25.5597	5.0942	0.4574	0.4802	0.6136	-0.4286
7.84	-9.6562	-0.8222	-2.0801	-0.0010	-0.0041	-0.0458	38.5154	25.5474	5.1306	0.4574	0.4802	0.6136	-0.4287
7.85	-9.6686	-0.8096	-2.0981	0.0021	-0.0062	-0.0500	38.5083	25.8258	5.1212	0.4573	0.4802	0.6135	-0.4287
7.86	-9.6396	-0.7996	-2.0799	0.0031	-0.0174	-0.0569	38.5313	25.6777	5.0095	0.4573	0.4803	0.6135	-0.4289
7.87	-9.6369	-0.7971	-2.0828	0.0046	-0.0072	-0.0504	38.7996	25.4512	4.9002	0.4572	0.4803	0.6134	-0.4289
7.88	-9.6313	-0.7837	-2.0842	0.0064	-0.0104	-0.0523	38.9860	25.4473	5.0287	0.4572	0.4804	0.6134	-0.4290
7.89	-9.6316	-0.7725	-2.0847	0.0051	-0.0051	-0.0562	38.8571	25.5275	5.1275	0.4570	0.4804	0.6133	-0.4291
7.9	-9.6397	-0.7711	-2.0922	0.0009	0.0024	-0.0547	38.7716	25.5651	4.9004	0.4569	0.4805	0.6134	-0.4292
7.91	-9.6491	-0.7768	-2.0960	-0.0044	0.0048	-0.0572	38.5731	25.6446	5.1481	0.4568	0.4805	0.6134	-0.4292
7.92	-9.6640	-0.7758	-2.1034	-0.0133	-0.0048	-0.0537	38.4793	25.6024	5.0334	0.4568	0.4805	0.6133	-0.4292
7.93	-9.6663	-0.7722	-2.0983	-0.0095	-0.0037	-0.0518	38.5503	25.7354	5.0199	0.4568	0.4806	0.6134	-0.4293
7.94	-9.6742	-0.7802	-2.1105	-0.0094	0.0043	-0.0561	38.6180	25.5551	5.0426	0.4567	0.4805	0.6134	-0.4292
7.95	-9.6782	-0.7934	-2.1098	-0.0279	0.0036	-0.0550	38.6024	25.7645	5.0130	0.4567	0.4806	0.6135	-0.4292
7.96	-9.6784	-0.7983	-2.1291	-0.0294	-0.0050	-0.0558	38.6171	25.8989	5.0412	0.4566	0.4805	0.6135	-0.4292
7.97	-9.6711	-0.8066	-2.1231	-0.0297	0.0038	-0.0540	38.4792	25.8853	5.1055	0.4566	0.4805	0.6136	-0.4292
7.98	-9.6820	-0.8097	-2.1302	-0.0288	-0.0014	-0.0575	38.5807	25.7017	4.9991	0.4566	0.4804	0.6136	-0.4291
7.99	-9.6951	-0.8179	-2.1249	-0.0292	0.0014	-0.0548	38.6163	25.7913	5.0480	0.4565	0.4804	0.6137	-0.4291
8	-9.7047	-0.8267	-2.1254	-0.0287	0.0006	-0.0567	38.6118	25.7958	4.9187	0.4565	0.4804	0.6138	-0.4291
8.01	-9.6765	-0.8363	-2.1305	-0.0287	-0.0092	-0.0565	38.3219	25.6887	4.9326	0.4565	0.4803	0.6138	-0.4291
8.02	-9.6343	-0.8354	-2.1270	-0.0184	-0.0111	-0.0567	38.6593	25.9173	4.9709	0.4565	0.4803	0.6139	-0.4291
8.03	-9.6702	-0.8110	-2.1252	-0.0137	-0.0101	-0.0625	38.6464	25.7859	5.1487	0.4564	0.4802	0.6138	-0.4291
8.04	-9.6693	-0.8103	-2.1235	-0.0205	-0.0187	-0.0597	38.4585	25.8085	5.0877	0.4565	0.4802	0.6139	-0.4292
8.05	-9.6297	-0.8279	-2.1038	-0.0142	-0.0214	-0.0606	38.6061	25.9268	5.0034	0.4565	0.4801	0.6138	-0.4293
8.06	-9.6695	-0.8377	-2.1130	-0.0205	-0.0100	-0.0561	38.8326	25.5299	5.0448	0.4565	0.4801	0.6139	-0.4293
8.07	-9.7488	-0.8245	-2.1195	-0.0194	-0.0136	-0.0574	38.5499	25.5404	5.0242	0.4564	0.4801	0.6139	-0.4293
8.08	-9.6981	-0.8362	-2.1022	-0.0168	-0.0208	-0.0528	38.9302	25.7590	5.0366	0.4564	0.4800	0.6139	-0.4294
8.09	-9.6659	-0.8537	-2.1009	-0.0147	-0.0194	-0.0563	38.8918	25.6909	5.0209	0.4565	0.4800	0.6139	-0.4295
8.1	-9.6538	-0.8658	-2.0915	-0.0282	-0.0178	-0.0517	38.5823	25.7222	5.0475	0.4565	0.4799	0.6138	-0.4294
8.11	-9.6278	-0.8557	-2.0999	-0.0218	-0.0236	-0.0377	38.4998	25.6999	4.8932	0.4566	0.4800	0.6138	-0.4295
8.12	-9.6065	-0.8408	-2.0970	-0.0162	-0.0158	-0.0357	38.7074	25.7200	5.0052	0.4566	0.4800	0.6137	-0.4295
8.13	-9.6186	-0.8366	-2.1121	-0.0077	-0.0127	-0.0311	38.6130	25.7028	4.9880	0.4567	0.4801	0.6137	-0.4295
8.14	-9.6077	-0.8058	-2.1036	-0.0028	-0.0102	-0.0413	38.6212	25.7154	4.8034	0.4566	0.4801	0.6136	-0.4295
8.15	-9.6186	-0.8113	-2.1147	-0.0087	0.0013	-0.0447	38.6749	25.8143	5.0034	0.4566	0.4801	0.6136	-0.4295
8.16	-9.6384	-0.8241	-2.1266	-0.0071	-0.0069	-0.0511	38.8002	25.7959	5.0193	0.4565	0.4802	0.6136	-0.4296
8.17	-9.6413	-0.8039	-2.1083	-0.0037	-0.0100	-0.0517	38.6104	25.7966	5.0968	0.4565	0.4802	0.6135	-0.4296
8.18	-9.6614	-0.8108	-2.1211	-0.0044	-0.0046	-0.0524	38.5434	25.8060	5.2462	0.4565	0.4803	0.6136	-0.4297
8.19	-9.6514	-0.8137	-2.1196	-0.0054	-0.0059	-0.0532	38.5485	25.9240	5.0170	0.4564	0.4802	0.6135	-0.4297
8.2	-9.6511	-0.8091	-2.1101	-0.0075	-0.0071	-0.0535	38.4239	25.8211	5.0924	0.4564	0.4803	0.6136	-0.4298
8.21	-9.6690	-0.8267	-2.1136	-0.0084	-0.0057	-0.0478	38.6633	25.7011	5.1454	0.4563	0.4802	0.6135	-0.4298
8.22	-9.6629	-0.8269	-2.1197	-0.0179	-0.0035	-0.0474	38.4498	25.7100	4.8641	0.4563	0.4803	0.6135	-0.4298
8.23	-9.6721	-0.8426	-2.1269	-0.0244	-0.0058	-0.0511	38.4433	25.8862	5.0150	0.4563	0.4803	0.6135	-0.4298
8.24	-9.6741	-0.8494	-2.1303	-0.0215	-0.0110	-0.0464	39.0261	25.8284	5.0213	0.4563	0.4803	0.6135	-0.4298
8.25	-9.6928	-0.8704	-2.1292	-0.0254	-0.0036	-0.0415	39.2762	25.6886	5.0544	0.4563	0.4803	0.6136	-0.4298
8.26	-9.6913	-0.8805	-2.1344	-0.0286	-0.0100	-0.0457	38.9620	25.6930	4.9177	0.4563	0.4803	0.6136	-0.4297
8.27	-9.6809	-0.9052	-2.1338	-0.0194	-0.0116	-0.0425	38.7760	25.4917	4.7463	0.4563	0.4803	0.6136	-0.4297
8.28	-9.6510	-0.8893	-2.1227	-0.0058	-0.0177	-0.0380	38.4228	25.5342	4.9134	0.4563	0.4803	0.6134	-0.4297
8.29	-9.6783	-0.8815	-2.1210	-0.0041	-0.0159	-0.0388	38.5790	25.7870	5.0173	0.4564	0.4804	0.6134	-0.4298
8.3	-9.7430	-0.8764	-2.1313	-0.0039	-0.0125	-0.0433	38.5542	25.8065	5.1171	0.4563	0.4804	0.6134	-0.4299
8.31	-9.6848	-0.8670	-2.1101	-0.0027	-0.0205	-0.0465	38.4923	25.8193	5.0078	0.4563	0.4804	0.6133	-0.4299
8.32	-9.6665	-0.8817	-2.1021	0.0044	-0.0213	-0.0423	38.5080	25.7911	4.8810	0.4563	0.4804	0.6132	-0.4300
8.33	-9.6857	-0.8797	-2.0961	0.0139	-0.0245	-0.0354	38.5232	25.7163	4.7851	0.4563	0.4805	0.6131	-0.4301
8.34	-9.6541	-0.8467	-2.0905	0.0163	-0.0225	-0.0338	38.4394	25.6765	5.0531	0.4563	0.4806	0.6129	-0.4303
8.35	-9.6224	-0.8183	-2.0693	0.0163	-0.0253	-0.0299	38.4662	25.5872	5.1168	0.4563	0.4807	0.6127	-0.4303
8.36	-9.6256	-0.7823	-2.0666	0.0172	-0.0164	-0.0394	38.6526	25.8829	4.9439	0.4563	0.4808	0.6127	-0.4305
8.37	-9.6303	-0.7753	-2.0580	0.0050	-0.0163	-0.0409	38.5284	25.7206	5.0518	0.4562	0.4809	0.6125	-0.4306
8.38	-9.6350	-0.7887	-2.0574	0.0040	-0.0101	-0.0419	38.5097	25.7930	5.1008	0.4562	0.4810	0.6125	-0.4307
8.39	-9.6342	-0.7847	-2.0623	0.0003	-0.0098	-0.0503	38.4996	25.8168	4.9957	0.4561	0.4809	0.6124	-0.4307
8.4	-9.6378	-0.7777	-2.0544	-0.0036	-0.0084	-0.0459	38.4112	25.6895	4.8356	0.4561	0.4810	0.6124	-0.4307
8.41	-9.6583	-0.7681	-2.0660	-0.0063	-0.0103	-0.0438	38.5674	25.5503	4.8438	0.4561	0.4811	0.6124	-0.4308
8.42	-9.6715	-0.7662	-2.0644	-0.0024	-0.0170	-0.0417	38.3792	25.6042	5.0023	0.4561	0.4811	0.6123	-0.4308
8.43	-9.6748	-0.7647	-2.0642	-0.0183	-0.0141	-0.0398	38.5535	25.7530	5.0024	0.4562	0.4811	0.6123	-0.4309
8.44	-9.6787	-0.7658	-2.0595	-0.0332	-0.0127	-0.0461	38.7304	25.7017	4.9549	0.4562	0.4811	0.6122	-0.4308
8.45	-9.6766	-0.7719	-2.0518	-0.0238	-0.0102	-0.0474	38.6480	25.7475	4.8764	0.4562	0.4811	0.6123	-0.4308
8.46	-9.6765	-0.7890	-2.0563	-0.0281	-0.0150	-0.0501	38.8029	25.6185	4.9177	0.4562	0.4810	0.6122	-0.4308
8.47	-9.6527	-0.7975	-2.0535	-0.0288	-0.0123	-0.0448	38.6270	25.6466	4.8924	0.4563	0.4810	0.6123	-0.4308
8.48	-9.6559	-0.8011	-2.0535	-0.0307	-0.0117	-0.0479	38.7711	25.7705	4.9097	0.4563	0.4810	0.6123	-0.4307
8.49	-9.6737	-0.8064	-2.0670	-0.0303	-0.0125	-0.0466	38.4105	25.6216	4.8841	0.4564	0.4809	0.6123	-0.4307
8.5	-9.6639	-0.8113	-2.0708	-0.0283	-0.0132	-0.0512	38.4350	25.5555	5.0143	0.4564	0.4809	0.6123	-0.4307
8.51	-9.6510	-0.8159	-2.0619	-0.0279	-0.0120	-0.0451	38.6286	25.6429	5.1180	0.4564	0.4809	0.6123	-0.4307
8.52	-9.6673	-0.8159	-2.0569	-0.0220	-0.0073	-0.0481	38.6104	25.8783	5.0252	0.4565	0.4809	0.6123	-0.4307
8.53	-9.6658	-0.8197	-2.0608	-0.0249	-0.0125	-0.0547	38.4903	25.8992	4.8726	0.4564	0.4808	0.6123	-0.4307
8.54	-9.6654	-0.8111	-2.0656	-0.0264	-0.0007	-0.0548	38.4437	25.7065	5.0321	0.4565	0.4808	0.6124	-0.4307
8.55	-9.6590	-0.8036	-2.0522	-0.0222	-0.0042	-0.0540	38.6386	25.6704	4.9347	0.4564	0.4808	0.6124	-0.4307
8.56	-9.6636	-0.8124	-2.0566	-0.0055	-0.0116	-0.0530	38.5955	25.6741	4.8873	0.4564	0.4808	0.6124	-0.4307
8.57	-9.6632	-0.8126	-2.0635	-0.0143	-0.0108	-0.0597	38.4965	25.8418	4.8997	0.4563	0.4808	0.6124	-0.4308
8.58	-9.6428	-0.8023	-2.0513	-0.0126	-0.0036	-0.0573	38.1607	25.5403	5.0387	0.4563	0.4808	0.6124	-0.4308
8.59	-9.6354	-0.8063	-2.0379	-0.0134	-0.0031	-0.0562	38.5058	25.7639	5.1149	0.4563	0.4808	0.6124	-0.4309
8.6	-9.6474	-0.8094	-2.0464	-0.0178	-0.0057	-0.0471	38.5221	25.9160	4.9897	0.4562	0.4807	0.6124	-0.4308
8.61	-9.6487	-0.8137	-2.0528	-0.0222	-0.0086	-0.0476	38.2840	25.7804	4.8739	0.4563	0.4808	0.6125	-0.4309
8.62	-9.6409	-0.8163	-2.0563	-0.0248	-0.0013	-0.0435	38.5329	25.5325	4.9248	0.4563	0.4808	0.6124	-0.4308
8.63	-9.6427	-0.8345	-2.0477	-0.0278	-0.0071	-0.0430	38.6669	25.6081	4.8699	0.4563	0.4808	0.6125	-0.4308
8.64	-9.6569	-0.8253	-2.0596	-0.0204	0.0051	-0.0443	38.7974	25.7348	5.0316	0.4562	0.4808	0.6124	-0.4307
8.65	-9.6580	-0.8273	-2.0600	-0.0197	0.0011	-0.0459	38.8565	25.7222	4.9335	0.4562	0.4808	0.6125	-0.4307
8.66	-9.6694	-0.8512	-2.0901	-0.0288	0.0107	-0.0470	38.7191	25.7142	4.7527	0.4562	0.4809	0.6125	-0.4306
8.67	-9.6551	-0.8349	-2.0750	-0.0261	0.0051	-0.0501	38.5833	25.7330	4.9060	0.4562	0.4808	0.6126	-0.4306
8.68	-9.6637	-0.8576	-2.0871	-0.0304	0.0061	-0.0506	38.5262	25.6948	4.9098	0.4562	0.4809	0.6127	-0.4306
8.69	-9.6836	-0.8545	-2.0818	-0.0182	0.0119	-0.0444	38.7273	25.7831	5.0178	0.4561	0.4809	0.6127	-0.4305
8.7	-9.6912	-0.8551	-2.0792	-0.0263	0.0114	-0.0431	38.6830	25.7703	4.9710	0.4561	0.4810	0.6128	-0.4304
8.71	-9.6893	-0.8673	-2.1076	-0.0233	0.0026	-0.0475	38.6062	25.6116	5.0917	0.4560	0.4809	0.6127	-0.4303
8.72	-9.6386	-0.8490	-2.0914	-0.0175	0.0043	-0.0502	38.3585	25.7417	4.9787	0.4560	0.4810	0.6128	-0.4304
8.73	-9.6668	-0.8286	-2.0991	-0.0066	0.0171	-0.0490	38.4902	25.7361	5.1611	0.4559	0.4811	0.6128	-0.4303
8.74	-9.6904	-0.8240	-2.1238	-0.0251	0.0064	-0.0511	38.8528	25.9257	5.2283	0.4558	0.4811	0.6129	-0.4303
8.75	-9.6423	-0.8363	-2.0923	-0.0116	-0.0020	-0.0561	38.9832	25.8854	5.5039	0.4558	0.4811	0.6129	-0.4303
8.76	-9.6585	-0.8279	-2.0841	-0.0094	0.0114	-0.0569	38.6775	25.7420	5.3016	0.4557	0.4811	0.6129	-0.4303
8.77	-9.7155	-0.8439	-2.1099	-0.0246	0.0036	-0.0487	38.5981	25.8308	5.2301	0.4557	0.4811	0.6130	-0.4303
8.78	-9.7329	-0.8360	-2.1076	-0.0170	-0.0002	-0.0507	38.3612	25.8084	5.0050	0.4556	0.4811	0.6130	-0.4303
8.79	-9.6849	-0.8447	-2.0945	-0.0269	-0.0143	-0.0495	38.6132	25.9086	5.0452	0.4556	0.4811	0.6131	-0.4303
8.8	-9.6432	-0.8605	-2.0985	-0.0178	-0.0111	-0.0473	38.5506	25.8593	5.1126	0.4556	0.4811	0.6130	-0.4303
8.81	-9.6378	-0.8456	-2.0914	-0.0181	-0.0081	-0.0385	38.5805	25.6874	4.9053	0.4557	0.4811	0.6130	-0.4303
8.82	-9.6279	-0.8445	-2.0998	-0.0151	-0.0107	-0.0320	38.6300	25.8216	4.9464	0.4557	0.4811	0.6129	-0.4303
8.83	-9.6252	-0.8345	-2.1048	-0.0187	-0.0010	-0.0366	38.6093	25.7666	5.0393	0.4557	0.4812	0.6129	-0.4303
8.84	-9.6297	-0.7976	-2.1090	-0.0098	0.0034	-0.0392	38.7981	25.6823	5.0186	0.4557	0.4813	0.6129	-0.4302
8.85	-9.6343	-0.8204	-2.1222	-0.0131	0.0030	-0.0433	38.7857	25.7892	5.0225	0.4556	0.4813	0.6128	-0.4302
8.86	-9.6462	-0.8332	-2.1324	-0.0138	0.0067	-0.0500	38.6995	25.9278	5.1247	0.4556	0.4814	0.6129	-0.4302
8.87	-9.6586	-0.8160	-2.1349	-0.0146	0.0050	-0.0543	38.6922	25.6768	4.9533	0.4555	0.4814	0.6129	-0.4302
8.88	-9.6520	-0.8100	-2.1255	-0.0185	0.0038	-0.0538	38.7306	25.8658	4.9191	0.4555	0.4814	0.6130	-0.4302
8.89	-9.6595	-0.8039	-2.1274	-0.0128	-0.0026	-0.0497	38.5877	25.8930	4.9311	0.4554	0.4814	0.6129	-0.4302
8.9	-9.6744	-0.7931	-2.1213	-0.0066	-0.0019	-0.0532	38.5301	25.6689	5.0529	0.4554	0.4814	0.6130	-0.4303
8.91	-9.6661	-0.7905	-2.1300	-0.0150	-0.0045	-0.0586	38.6566	25.9013	5.1738	0.4553	0.4814	0.6130	-0.4303
8.92	-9.6460	-0.7874	-2.1280	-0.0286	-0.0072	-0.0532	38.5228	25.8837	4.9105	0.4553	0.4814	0.6130	-0.4303
8.93	-9.6482	-0.7940	-2.1309	-0.0286	0.0018	-0.0538	38.5096	25.7880	5.0495	0.4553	0.4814	0.6131	-0.4303
8.94	-9.6485	-0.8010	-2.1307	-0.0289	0.0122	-0.0584	38.5684	25.8076	4.9794	0.4552	0.4814	0.6131	-0.4302
8.95	-9.6464	-0.8069	-2.1418	-0.0297	0.0132	-0.0565	38.6271	25.7791	5.1637	0.4552	0.4814	0.6133	-0.4302
8.96	-9.6681	-0.8256	-2.1321	-0.0294	0.0069	-0.0535	38.6201	25.9093	5.2386	0.4551	0.4813	0.6133	-0.4301
8.97	-9.6680	-0.8333	-2.1574	-0.0303	0.0002	-0.0545	38.4715	25.7412	5.0567	0.4552	0.4813	0.6134	-0.4301
8.98	-9.6464	-0.8455	-2.1611	-0.0293	-0.0163	-0.0512	38.4575	25.7379	5.0140	0.4552	0.4813	0.6134	-0.4301
8.99	-9.6342	-0.8442	-2.1359	-0.0284	-0.0103	-0.0513	38.6069	25.8454	5.0201	0.4552	0.4812	0.6134	-0.4300
9	-9.7021	-0.8354	-2.1516	-0.0231	-0.0100	-0.0559	38.8149	25.6631	5.1203	0.4552	0.4812	0.6134	-0.4301
9.01	-9.7206	-0.8374	-2.1674	-0.0289	-0.0167	-0.0617	38.7731	25.7819	4.9942	0.4552	0.4811	0.6135	-0.4301
9.02	-9.6742	-0.8453	-2.1394	-0.0201	-0.0104	-0.0604	38.8323	25.9624	5.0459	0.4552	0.4811	0.6135	-0.4301
9.03	-9.6885	-0.8525	-2.1434	-0.0295	-0.0160	-0.0529	38.6030	25.6755	4.9218	0.4552	0.4810	0.6135	-0.4301
9.04	-9.7026	-0.8533	-2.1478	-0.0225	-0.0197	-0.0507	38.5119	25.7392	5.0443	0.4553	0.4810	0.6135	-0.4302
9.05	-9.6814	-0.8529	-2.1379	-0.0033	-0.0260	-0.0538	38.6724	25.6558	5.0140	0.4552	0.4809	0.6135	-0.4303
9.06	-9.6522	-0.8103	-2.1208	-0.0033	-0.0285	-0.0518	38.4976	25.6063	5.0383	0.4553	0.4809	0.6134	-0.4304
9.07	-9.6571	-0.8032	-2.1243	-0.0017	-0.0256	-0.0539	38.6416	25.7025	5.0022	0.4553	0.4809	0.6133	-0.4305
9.08	-9.6572	-0.8051	-2.1208	-0.0135	-0.0161	-0.0597	38.4467	26.0020	5.1885	0.4553	0.4808	0.6133	-0.4306
9.09	-9.6430	-0.8084	-2.1090	-0.0061	-0.0081	-0.0644	38.4877	25.8415	5.1498	0.4552	0.4808	0.6133	-0.4307
9.1	-9.6357	-0.8121	-2.1189	-0.0159	-0.0104	-0.0659	38.5464	25.8447	5.0945	0.4551	0.4807	0.6133	-0.4307
9.11	-9.6580	-0.8076	-2.1111	-0.0291	-0.0104	-0.0586	38.4089	26.0171	5.1168	0.4552	0.4807	0.6134	-0.4308
9.12	-9.6448	-0.8116	-2.1096	-0.0241	-0.0109	-0.0569	38.4616	25.9439	4.9475	0.4552	0.4807	0.6134	-0.4307
9.13	-9.6693	-0.8079	-2.1119	-0.0304	-0.0072	-0.0587	38.6387	26.0071	4.9019	0.4552	0.4806	0.6135	-0.4308
9.14	-9.6731	-0.8185	-2.1034	-0.0292	-0.0075	-0.0568	38.5051	25.8630	5.0371	0.4551	0.4805	0.6134	-0.4307
9.15	-9.6581	-0.8325	-2.1096	-0.0293	-0.0151	-0.0584	38.4295	25.7905	5.0053	0.4552	0.4805	0.6135	-0.4307
9.16	-9.6653	-0.8352	-2.1156	-0.0295	-0.0069	-0.0608	38.2206	25.9720	5.2404	0.4552	0.4804	0.6136	-0.4307
9.17	-9.6688	-0.8469	-2.0963	-0.0298	-0.0148	-0.0597	38.4862	25.9756	5.0204	0.4552	0.4803	0.6136	-0.4307
9.18	-9.6772	-0.8537	-2.1077	-0.0289	-0.0133	-0.0561	38.7541	25.8830	4.9297	0.4553	0.4803	0.6137	-0.4308
9.19	-9.6629	-0.8601	-2.1088	-0.0304	-0.0115	-0.0630	38.6800	25.8707	5.0309	0.4552	0.4802	0.6137	-0.4308
9.2	-9.6487	-0.8512	-2.0875	-0.0257	-0.0092	-0.0544	38.7157	25.7109	5.0837	0.4553	0.4802	0.6137	-0.4308
9.21	-9.6425	-0.8666	-2.0998	-0.0289	-0.0168	-0.0517	38.6940	25.7063	5.1375	0.4553	0.4801	0.6137	-0.4307
9.22	-9.6545	-0.8775	-2.1028	-0.0181	-0.0161	-0.0565	38.6999	25.8282	4.9884	0.4553	0.4801	0.6137	-0.4308
9.23	-9.6610	-0.8600	-2.0996	-0.0236	-0.0122	-0.0548	38.5623	25.9409	5.2215	0.4553	0.4800	0.6137	-0.4308
9.24	-9.6685	-0.8645	-2.0884	-0.0215	-0.0192	-0.0590	39.0473	26.0591	5.1291	0.4553	0.4800	0.6137	-0.4309
9.25	-9.6704	-0.8588	-2.0910	-0.0070	-0.0137	-0.0561	39.2724	26.0833	4.9961	0.4553	0.4800	0.6137	-0.4310
9.26	-9.6635	-0.8547	-2.0726	-0.0089	-0.0208	-0.0595	38.8112	26.0037	4.9892	0.4553	0.4799	0.6137	-0.4310
9.27	-9.6637	-0.8518	-2.0745	-0.0153	-0.0146	-0.0617	38.4923	25.9759	4.9879	0.4553	0.4799	0.6137	-0.4311
9.28	-9.6348	-0.8446	-2.0584	-0.0107	-0.0149	-0.0666	38.1641	26.0018	4.8755	0.4552	0.4798	0.6136	-0.4312
9.29	-9.6345	-0.8434	-2.0545	-0.0137	-0.0165	-0.0600	38.4048	25.9372	5.0121	0.4552	0.4798	0.6137	-0.4313
9.3	-9.6392	-0.8451	-2.0574	-0.0162	-0.0087	-0.0714	38.4114	25.8525	4.9515	0.4552	0.4797	0.6137	-0.4313
9.31	-9.6288	-0.8419	-2.0538	-0.0117	-0.0094	-0.0674	38.4467	25.9362	5.0816	0.4551	0.4797	0.6137	-0.4314
9.32	-9.6436	-0.8546	-2.0584	-0.0264	-0.0059	-0.0629	38.2929	26.0996	4.9683	0.4551	0.4796	0.6138	-0.4314
9.33	-9.6377	-0.8610	-2.0536	-0.0281	-0.0102	-0.0622	38.5141	25.7299	4.9978	0.4551	0.4795	0.6138	-0.4314
9.34	-9.6368	-0.8719	-2.0556	-0.0317	-0.0087	-0.0599	38.4233	26.0065	4.9551	0.4551	0.4795	0.6139	-0.4314
9.35	-9.6363	-0.8799	-2.0639	-0.0263	-0.0074	-0.0622	38.5251	26.3063	5.0844	0.4551	0.4794	0.6139	-0.4314
9.36	-9.6370	-0.8928	-2.0599	-0.0259	-0.0032	-0.0573	38.3645	26.0664	4.9396	0.4551	0.4794	0.6140	-0.4315
9.37	-9.6351	-0.9077	-2.0708	-0.0304	-0.0064	-0.0554	38.4072	25.7802	4.8904	0.4551	0.4793	0.6140	-0.4314
9.38	-9.6375	-0.9053	-2.0717	-0.0291	-0.0114	-0.0573	38.7823	25.8140	4.8724	0.4551	0.4793	0.6141	-0.4315
9.39	-9.6556	-0.9088	-2.0827	-0.0277	-0.0049	-0.0541	38.4407	25.6766	5.0235	0.4551	0.4792	0.6140	-0.4314
9.4	-9.6663	-0.9097	-2.0827	-0.0314	0.0002	-0.0537	38.6851	25.8526	4.9239	0.4551	0.4792	0.6141	-0.4314
9.41	-9.6796	-0.9128	-2.0644	-0.0299	0.0016	-0.0586	38.4516	25.6784	4.9585	0.4551	0.4792	0.6142	-0.4313
9.42	-9.6820	-0.9142	-2.0902	-0.0185	-0.0060	-0.0550	38.4066	25.8622	4.9158	0.4550	0.4791	0.6142	-0.4313
9.43	-9.6357	-0.9018	-2.0827	-0.0186	-0.0099	-0.0580	38.5121	25.9739	4.8837	0.4551	0.4792	0.6143	-0.4314
9.44	-9.6620	-0.8851	-2.0847	-0.0237	-0.0044	-0.0522	38.4105	25.8622	5.0126	0.4550	0.4791	0.6142	-0.4314
9.45	-9.6743	-0.8776	-2.0824	-0.0162	-0.0148	-0.0563	38.6214	26.0727	4.7465	0.4551	0.4791	0.6143	-0.4315
9.46	-9.6307	-0.8793	-2.0685	-0.0208	-0.0080	-0.0553	38.5163	26.0428	4.9263	0.4550	0.4790	0.6142	-0.4314
9.47	-9.6428	-0.8950	-2.0789	-0.0295	-0.0058	-0.0528	38.4759	26.0544	4.8386	0.4550	0.4790	0.6143	-0.4314
9.48	-9.6900	-0.9070	-2.0689	-0.0283	0.0001	-0.0540	38.2444	25.8906	4.8223	0.4550	0.4790	0.6143	-0.4314
9.49	-9.7132	-0.9087	-2.0872	-0.0306	-0.0033	-0.0510	38.2202	26.1540	4.9746	0.4550	0.4790	0.6144	-0.4314
9.5	-9.6819	-0.9164	-2.0743	-0.0297	-0.0070	-0.0491	38.3726	26.0357	5.0939	0.4550	0.4790	0.6144	-0.4314
9.51	-9.6550	-0.9265	-2.0909	-0.0328	-0.0104	-0.0464	38.3968	25.9510	5.0319	0.4550	0.4789	0.6144	-0.4313
9.52	-9.6593	-0.9379	-2.0809	-0.0301	-0.0128	-0.0323	38.3130	26.1666	4.7378	0.4551	0.4789	0.6144	-0.4313
9.53	-9.6291	-0.9362	-2.0891	-0.0317	-0.0093	-0.0342	38.3253	26.0509	4.9852	0.4551	0.4789	0.6144	-0.4312
9.54	-9.6247	-0.9112	-2.0873	-0.0288	-0.0070	-0.0331	38.4634	25.8396	5.1042	0.4553	0.4790	0.6144	-0.4312
9.55	-9.6157	-0.8807	-2.0890	-0.0309	-0.0105	-0.0287	38.3328	25.9075	5.0370	0.4553	0.4790	0.6144	-0.4311
9.56	-9.6292	-0.8852	-2.0958	-0.0202	-0.0020	-0.0330	38.4607	25.7989	4.8913	0.4553	0.4790	0.6144	-0.4310
9.57	-9.6364	-0.8751	-2.1011	-0.0118	0.0032	-0.0402	38.5394	25.7693	4.8936	0.4553	0.4791	0.6143	-0.4310
9.58	-9.6327	-0.8812	-2.0985	-0.0079	0.0008	-0.0397	38.7314	26.0730	4.8934	0.4553	0.4792	0.6143	-0.4310
9.59	-9.6438	-0.8613	-2.0987	-0.0042	0.0057	-0.0413	38.4221	25.9589	5.0897	0.4552	0.4793	0.6143	-0.4310
9.6	-9.6524	-0.8390	-2.0964	-0.0040	0.0029	-0.0343	38.5062	25.7405	4.9861	0.4551	0.4793	0.6142	-0.4310
9.61	-9.6536	-0.8243	-2.0922	-0.0095	0.0020	-0.0362	38.3954	25.9356	4.9893	0.4552	0.4795	0.6142	-0.4310
9.62	-9.6652	-0.8267	-2.0991	-0.0034	0.0042	-0.0437	38.6235	25.9491	4.9513	0.4551	0.4795	0.6142	-0.4310
9.63	-9.6554	-0.8186	-2.0933	-0.0106	0.0024	-0.0444	38.4540	25.7729	4.8470	0.4551	0.4796	0.6142	-0.4310
9.64	-9.6537	-0.8128	-2.0925	-0.0182	0.0004	-0.0452	38.3981	25.9496	5.0213	0.4550	0.4796	0.6141	-0.4310
9.65	-9.6429	-0.8229	-2.0996	-0.0245	0.0076	-0.0482	38.6636	26.1346	4.9300	0.4550	0.4796	0.6142	-0.4309
9.66	-9.6361	-0.8357	-2.1027	-0.0287	0.0109	-0.0436	38.5409	25.8907	4.9078	0.4550	0.4797	0.6143	-0.4309
9.67	-9.6426	-0.8473	-2.1038	-0.0301	0.0015	-0.0477	38.4033	25.9602	5.1127	0.4549	0.4796	0.6143	-0.4308
9.68	-9.6575	-0.8567	-2.1025	-0.0302	0.0040	-0.0491	38.5423	26.0365	4.9348	0.4550	0.4797	0.6144	-0.4308
9.69	-9.6420	-0.8620	-2.1144	-0.0302	0.0046	-0.0435	38.6011	25.8698	5.1923	0.4549	0.4797	0.6144	-0.4307
9.7	-9.6117	-0.8608	-2.0957	-0.0294	0.0067	-0.0379	38.4062	26.0056	5.0563	0.4550	0.4797	0.6144	-0.4306
9.71	-9.6675	-0.8632	-2.1032	-0.0296	0.0155	-0.0425	38.4387	25.9544	5.2646	0.4549	0.4797	0.6144	-0.4305
9.72	-9.7003	-0.8612	-2.1289	-0.0297	0.0034	-0.0512	38.2776	25.9534	5.3605	0.4549	0.4797	0.6145	-0.4305
9.73	-9.6276	-0.8493	-2.0929	-0.0283	-0.0003	-0.0470	38.4422	25.8600	5.2047	0.4549	0.4797	0.6146	-0.4304
9.74	-9.6303	-0.8738	-2.0936	-0.0277	0.0100	-0.0503	38.8821	25.8389	5.3571	0.4548	0.4797	0.6146	-0.4304
9.75	-9.6384	-0.8726	-2.0904	-0.0203	0.0067	-0.0478	38.9559	25.6614	5.4711	0.4548	0.4798	0.6147	-0.4303
9.76	-9.6328	-0.8745	-2.1015	-0.0167	0.0129	-0.0445	38.8456	25.9439	5.1885	0.4548	0.4798	0.6147	-0.4303
9.77	-9.6317	-0.8404	-2.0975	-0.0278	0.0112	-0.0425	38.7216	25.8380	4.7889	0.4547	0.4799	0.6147	-0.4302
9.78	-9.6294	-0.8078	-2.0978	-0.0282	0.0083	-0.0390	38.6333	25.8161	5.0705	0.4547	0.4799	0.6147	-0.4301
9.79	-9.6389	-0.8217	-2.1057	-0.0317	0.0121	-0.0513	38.7129	25.8810	5.1232	0.4547	0.4799	0.6148	-0.4301
9.8	-9.6587	-0.8424	-2.1271	-0.0260	0.0155	-0.0517	38.4878	25.9526	4.8581	0.4546	0.4799	0.6149	-0.4300
9.81	-9.6695	-0.8418	-2.1285	-0.0280	0.0158	-0.0508	38.5799	26.1869	5.0780	0.4546	0.4800	0.6150	-0.4299
9.82	-9.6748	-0.8525	-2.1378	-0.0313	0.0133	-0.0537	38.6807	26.0490	4.8971	0.4545	0.4799	0.6150	-0.4298
9.83	-9.6864	-0.8580	-2.1388	-0.0300	0.0115	-0.0506	38.8319	25.9276	5.0220	0.4545	0.4800	0.6151	-0.4298
9.84	-9.6893	-0.8590	-2.1375	-0.0258	0.0134	-0.0501	38.4342	26.0962	5.1748	0.4544	0.4800	0.6152	-0.4297
9.85	-9.6932	-0.8625	-2.1462	-0.0280	0.0148	-0.0565	38.4943	26.1887	5.0847	0.4543	0.4799	0.6152	-0.4296
9.86	-9.6846	-0.8675	-2.1552	-0.0269	0.0137	-0.0525	38.5850	26.0170	5.2788	0.4543	0.4800	0.6154	-0.4296
9.87	-9.6798	-0.8784	-2.1420	-0.0300	0.0029	-0.0485	38.5260	26.1201	5.1319	0.4542	0.4800	0.6154	-0.4296
9.88	-9.6775	-0.8773	-2.1473	-0.0212	0.0051	-0.0478	38.5866	26.1729	4.9470	0.4542	0.4800	0.6155	-0.4296
9.89	-9.6842	-0.8756	-2.1459	-0.0247	-0.0082	-0.0492	38.2736	26.0519	5.3752	0.4542	0.4800	0.6154	-0.4295
9.9	-9.6589	-0.8828	-2.1444	-0.0285	-0.0079	-0.0500	38.5893	26.0630	5.2491	0.4542	0.4800	0.6155	-0.4295
9.91	-9.6526	-0.8797	-2.1375	-0.0237	-0.0078	-0.0479	38.4062	26.0717	5.0656	0.4542	0.4800	0.6155	-0.4295
9.92	-9.6649	-0.8787	-2.1304	-0.0205	-0.0143	-0.0427	38.4786	25.9964	5.2474	0.4542	0.4799	0.6154	-0.4295
9.93	-9.6528	-0.8691	-2.1277	-0.0126	-0.0128	-0.0401	38.6289	25.8531	5.1118	0.4543	0.4800	0.6155	-0.4296
9.94	-9.6615	-0.8627	-2.1296	-0.0047	-0.0075	-0.0437	38.8345	25.9285	4.9952	0.4543	0.4800	0.6154	-0.4296
9.95	-9.6526	-0.8563	-2.1271	-0.0062	-0.0091	-0.0440	38.6446	25.7956	4.9124	0.4543	0.4801	0.6154	-0.4296
9.96	-9.6487	-0.8400	-2.1213	-0.0103	-0.0091	-0.0435	38.4464	25.8176	5.0644	0.4542	0.4801	0.6152	-0.4296
9.97	-9.6450	-0.8440	-2.1173	-0.0053	-0.0059	-0.0500	38.7929	25.7496	5.1343	0.4542	0.4801	0.6153	-0.4297
9.98	-9.6379	-0.8350	-2.1251	-0.0090	-0.0056	-0.0533	38.6763	25.7731	5.1797	0.4542	0.4801	0.6152	-0.4297
9.99	-9.6375	-0.8350	-2.1225	-0.0204	-0.0142	-0.0538	38.7855	26.0272	5.2685	0.4542	0.4801	0.6152	-0.4297
10	-9.6394	-0.8333	-2.1146	-0.0253	-0.0064	-0.0547	38.6370	25.8472	4.9919	0.4542	0.4801	0.6153	-0.4298
10.01	-9.6352	-0.8353	-2.1120	-0.0287	-0.0027	-0.0566	38.6421	26.0541	5.2213	0.4542	0.4800	0.6153	-0.4297
10.02	-9.6348	-0.8415	-2.1238	-0.0281	-0.0093	-0.0500	38.6188	26.0583	5.1712	0.4542	0.4800	0.6154	-0.4297
10.03	-9.6270	-0.8403	-2.1284	-0.0295	-0.0022	-0.0483	38.6766	26.0743	5.0254	0.4542	0.4800	0.6153	-0.4297
10.04	-9.6288	-0.8613	-2.1237	-0.0309	-0.0025	-0.0525	38.6564	26.0389	5.0336	0.4542	0.4800	0.6154	-0.4297
10.05	-9.6222	-0.8659	-2.1343	-0.0323	-0.0002	-0.0522	38.4529	26.1190	5.0611	0.4542	0.4799	0.6154	-0.4296
10.06	-9.6231	-0.8823	-2.1320	-0.0311	0.0014	-0.0485	38.5270	26.1558	5.2285	0.4542	0.4799	0.6155	-0.4296
10.07	-9.6136	-0.9013	-2.1366	-0.0302	0.0024	-0.0480	38.4989	26.1644	5.2157	0.4542	0.4799	0.6155	-0.4295
10.08	-9.6234	-0.8947	-2.1416	-0.0296	0.0148	-0.0476	38.6136	26.1037	5.0927	0.4542	0.4800	0.6156	-0.4294
10.09	-9.6526	-0.9000	-2.1331	-0.0266	0.0130	-0.0514	38.3984	25.6850	5.4060	0.4541	0.4800	0.6157	-0.4294
10.1	-9.6558	-0.9122	-2.1446	-0.0206	0.0123	-0.0518	38.4285	25.7930	5.3412	0.4540	0.4800	0.6157	-0.4293
10.11	-9.6182	-0.9165	-2.1354	-0.0076	-0.0002	-0.0455	38.2895	25.9128	5.1919	0.4540	0.4801	0.6158	-0.4294
10.12	-9.6316	-0.8881	-2.1461	-0.0108	0.0125	-0.0484	38.6791	25.8586	5.0859	0.4539	0.4801	0.6157	-0.4293
10.13	-9.6484	-0.8732	-2.1546	-0.0074	0.0162	-0.0456	38.5971	25.9669	5.0028	0.4539	0.4802	0.6158	-0.4293
10.14	-9.6363	-0.8734	-2.1473	-0.0079	0.0147	-0.0451	38.6879	25.9830	5.1542	0.4537	0.4803	0.6157	-0.4293
10.15	-9.6470	-0.8592	-2.1550	-0.0101	0.0143	-0.0491	38.7710	25.8550	5.2375	0.4537	0.4804	0.6158	-0.4293
10.16	-9.6682	-0.8691	-2.1459	-0.0197	0.0074	-0.0453	38.4524	25.9346	5.2229	0.4536	0.4804	0.6158	-0.4292
10.17	-9.7145	-0.8700	-2.1700	-0.0198	0.0054	-0.0451	38.6098	26.0703	5.2142	0.4535	0.4804	0.6158	-0.4292
10.18	-9.6811	-0.8736	-2.1641	-0.0218	-0.0054	-0.0457	38.5799	26.0638	5.2416	0.4536	0.4805	0.6159	-0.4292
10.19	-9.6499	-0.9019	-2.1667	-0.0295	-0.0028	-0.0429	38.6170	25.7880	4.8821	0.4536	0.4804	0.6159	-0.4291
10.2	-9.6517	-0.8995	-2.1765	-0.0274	-0.0070	-0.0364	38.5191	26.0745	4.9410	0.4536	0.4805	0.6159	-0.4291
10.21	-9.6565	-0.8983	-2.1795	-0.0168	0.0060	-0.0316	38.4978	25.9472	5.2739	0.4536	0.4805	0.6158	-0.4290
10.22	-9.6464	-0.8796	-2.1760	-0.0277	0.0016	-0.0348	38.4966	26.2477	5.1816	0.4536	0.4806	0.6159	-0.4290
10.23	-9.6422	-0.8430	-2.1933	-0.0252	0.0035	-0.0321	38.5588	26.1406	5.2710	0.4536	0.4806	0.6158	-0.4289
10.24	-9.6476	-0.8538	-2.1885	-0.0180	0.0024	-0.0347	38.8976	26.0333	5.4014	0.4536	0.4807	0.6158	-0.4288
10.25	-9.6393	-0.8471	-2.1863	-0.0150	-0.0095	-0.0429	38.8303	26.0811	5.4198	0.4537	0.4807	0.6158	-0.4288
10.26	-9.6388	-0.8463	-2.1829	-0.0085	-0.0044	-0.0457	38.7303	26.0349	5.4980	0.4536	0.4808	0.6158	-0.4289
10.27	-9.6358	-0.8374	-2.1790	-0.0061	-0.0057	-0.0479	38.4241	26.0982	5.4418	0.4536	0.4808	0.6158	-0.4289
10.28	-9.6336	-0.8160	-2.1752	-0.0028	0.0009	-0.0454	38.3742	26.1969	5.2618	0.4535	0.4808	0.6157	-0.4289
10.29	-9.6395	-0.8081	-2.1750	-0.0049	-0.0027	-0.0526	38.5372	26.1325	5.4783	0.4535	0.4809	0.6157	-0.4290
10.3	-9.6345	-0.8022	-2.1635	-0.0031	-0.0154	-0.0469	38.5414	25.9115	5.4087	0.4534	0.4809	0.6156	-0.4290
10.31	-9.6232	-0.8089	-2.1739	-0.0141	-0.0096	-0.0457	38.6210	25.8769	5.2622	0.4535	0.4809	0.6156	-0.4291
10.32	-9.5716	-0.8072	-2.1623	-0.0279	-0.0135	-0.0474	38.5900	25.9498	5.3472	0.4535	0.4809	0.6156	-0.4291
10.33	-9.6181	-0.8263	-2.1708	-0.0279	0.0024	-0.0548	38.5895	25.6757	5.1463	0.4535	0.4809	0.6157	-0.4290
10.34	-9.6115	-0.8565	-2.1616	-0.0304	0.0057	-0.0461	38.8283	25.9366	5.3607	0.4535	0.4809	0.6157	-0.4290
10.35	-9.5975	-0.8833	-2.1394	-0.0308	0.0081	-0.0431	38.5135	25.9291	5.4495	0.4534	0.4809	0.6157	-0.4289
10.36	-9.6570	-0.8986	-2.1757	-0.0310	0.0137	-0.0373	38.2994	25.7068	5.0377	0.4535	0.4810	0.6158	-0.4288
10.37	-9.6458	-0.8965	-2.1690	-0.0299	0.0146	-0.0340	38.7821	25.9504	5.3972	0.4534	0.4810	0.6158	-0.4287
10.38	-9.6287	-0.9117	-2.1638	-0.0314	0.0121	-0.0322	38.7353	25.6822	5.5609	0.4535	0.4811	0.6159	-0.4286
10.39	-9.6913	-0.9118	-2.1808	-0.0314	0.0130	-0.0309	38.4701	25.8234	5.3610	0.4534	0.4811	0.6159	-0.4284
10.4	-9.7180	-0.9125	-2.1870	-0.0299	0.0100	-0.0369	38.4278	25.9477	5.4456	0.4534	0.4812	0.6159	-0.4283
10.41	-9.6717	-0.9040	-2.1771	-0.0263	0.0078	-0.0375	38.5544	25.9726	5.5066	0.4534	0.4813	0.6160	-0.4283
10.42	-9.6923	-0.9145	-2.1780	-0.0123	-0.0015	-0.0385	38.4095	25.7828	5.4869	0.4533	0.4813	0.6159	-0.4282
10.43	-9.6837	-0.9068	-2.1699	-0.0062	-0.0120	-0.0331	38.4168	25.9247	5.5975	0.4534	0.4814	0.6160	-0.4283
10.44	-9.6541	-0.8873	-2.1640	-0.0012	-0.0123	-0.0323	38.5806	26.0332	5.4465	0.4534	0.4814	0.6158	-0.4283
10.45	-9.6303	-0.8500	-2.1624	0.0039	-0.0112	-0.0340	38.5879	25.8925	5.5494	0.4534	0.4816	0.6157	-0.4284
10.46	-9.6022	-0.8277	-2.1638	0.0074	-0.0083	-0.0328	38.7000	25.9986	5.2822	0.4533	0.4816	0.6156	-0.4284
10.47	-9.6015	-0.8088	-2.1630	0.0148	-0.0076	-0.0384	38.5491	25.9661	5.2171	0.4533	0.4817	0.6155	-0.4285
10.48	-9.6013	-0.8163	-2.1629	0.0062	-0.0003	-0.0364	38.6990	25.8705	5.5524	0.4532	0.4818	0.6154	-0.4285
10.49	-9.6229	-0.8170	-2.1688	0.0114	0.0005	-0.0437	38.8358	25.6397	5.3281	0.4531	0.4819	0.6154	-0.4286
10.5	-9.6328	-0.8048	-2.1697	-0.0014	0.0067	-0.0394	38.5287	25.6429	5.3043	0.4531	0.4821	0.6154	-0.4286
10.51	-9.6562	-0.7987	-2.1808	0.0065	0.0144	-0.0390	38.8023	25.7368	5.3328	0.4530	0.4822	0.6153	-0.4286
10.52	-9.6806	-0.8049	-2.1788	-0.0042	0.0095	-0.0377	38.6453	25.5600	5.5141	0.4529	0.4823	0.6153	-0.4286
10.53	-9.6906	-0.8044	-2.1794	-0.0047	0.0074	-0.0352	38.5645	25.8600	5.4139	0.4528	0.4823	0.6152	-0.4286
10.54	-9.6825	-0.7908	-2.1703	-0.0033	-0.0015	-0.0350	38.6178	25.6559	5.2816	0.4528	0.4825	0.6153	-0.4286
10.55	-9.6386	-0.8104	-2.1729	-0.0119	-0.0133	-0.0370	38.4167	25.6827	5.3641	0.4528	0.4825	0.6152	-0.4286
10.56	-9.6418	-0.8272	-2.1756	-0.0053	-0.0087	-0.0322	38.7134	25.7290	5.4492	0.4528	0.4826	0.6151	-0.4287
10.57	-9.6343	-0.8130	-2.1703	-0.0074	-0.0129	-0.0358	38.5546	25.8286	5.2703	0.4528	0.4826	0.6150	-0.4287
10.58	-9.6443	-0.8290	-2.1847	-0.0178	-0.0118	-0.0308	38.6726	25.6556	5.2468	0.4528	0.4827	0.6150	-0.4287
10.59	-9.6203	-0.8251	-2.1697	-0.0104	-0.0056	-0.0317	38.7801	25.8825	5.3380	0.4529	0.4828	0.6149	-0.4287
10.6	-9.6039	-0.8203	-2.1702	-0.0035	-0.0039	-0.0333	38.5499	25.8213	5.3012	0.4528	0.4828	0.6148	-0.4286
10.61	-9.6330	-0.8259	-2.1675	-0.0062	-0.0006	-0.0348	38.6306	25.8258	5.3159	0.4529	0.4830	0.6148	-0.4287
10.62	-9.6195	-0.8115	-2.1627	-0.0027	0.0069	-0.0327	38.5578	25.7550	5.3192	0.4528	0.4830	0.6147	-0.4286
10.63	-9.6271	-0.8052	-2.1639	0.0016	-0.0012	-0.0326	38.6888	25.7792	5.2945	0.4528	0.4832	0.6147	-0.4287
10.64	-9.6206	-0.7932	-2.1682	-0.0034	0.0039	-0.0326	38.6753	25.8333	5.4262	0.4527	0.4832	0.6146	-0.4286
10.65	-9.6084	-0.7817	-2.1692	0.0060	0.0002	-0.0324	38.7072	25.6934	5.3771	0.4527	0.4834	0.6146	-0.4287
10.66	-9.6244	-0.7736	-2.1748	-0.0004	0.0142	-0.0332	38.6234	25.9269	5.2901	0.4526	0.4835	0.6145	-0.4287
10.67	-9.6420	-0.7687	-2.1742	-0.0024	0.0079	-0.0403	38.5890	25.8172	5.3130	0.4525	0.4836	0.6145	-0.4286
10.68	-9.6404	-0.7668	-2.1721	-0.0031	0.0023	-0.0455	38.5884	25.7136	5.4243	0.4525	0.4837	0.6145	-0.4287
10.69	-9.6578	-0.7610	-2.1842	-0.0004	0.0080	-0.0446	38.6345	25.7235	5.3800	0.4523	0.4838	0.6144	-0.4287
10.7	-9.6511	-0.7677	-2.1972	-0.0035	0.0090	-0.0481	38.7038	25.5207	5.2669	0.4523	0.4839	0.6145	-0.4287
10.71	-9.6308	-0.7606	-2.2011	-0.0079	0.0141	-0.0463	38.6776	25.6578	5.4545	0.4521	0.4839	0.6144	-0.4286
10.72	-9.6448	-0.7701	-2.2100	-0.0114	0.0128	-0.0447	38.6745	25.7170	5.3454	0.4521	0.4840	0.6145	-0.4287
10.73	-9.6535	-0.7845	-2.2086	-0.0197	0.0034	-0.0424	38.7426	25.6214	5.3843	0.4521	0.4841	0.6145	-0.4286
10.74	-9.6651	-0.8022	-2.2004	-0.0144	0.0088	-0.0453	39.0657	25.9263	5.6371	0.4520	0.4841	0.6145	-0.4286
10.75	-9.6585	-0.8060	-2.2098	-0.0176	-0.0017	-0.0513	39.1260	25.8938	5.5540	0.4520	0.4841	0.6145	-0.4286
10.76	-9.6358	-0.8013	-2.1862	-0.0179	-0.0103	-0.0427	38.8435	25.9537	5.5364	0.4520	0.4841	0.6145	-0.4286
10.77	-9.6699	-0.8034	-2.2025	-0.0214	-0.0023	-0.0438	38.5476	25.8298	5.5052	0.4520	0.4842	0.6145	-0.4286
10.78	-9.6443	-0.8064	-2.1944	-0.0139	-0.0026	-0.0520	38.3705	25.7919	5.5451	0.4519	0.4841	0.6145	-0.4285
10.79	-9.6152	-0.8148	-2.1969	-0.0176	-0.0040	-0.0547	38.5796	25.7862	5.4662	0.4520	0.4842	0.6146	-0.4286
10.8	-9.6436	-0.8301	-2.2062	-0.0198	-0.0021	-0.0514	38.6366	25.6432	5.6345	0.4519	0.4842	0.6145	-0.4286
10.81	-9.6804	-0.8234	-2.1980	-0.0183	-0.0048	-0.0569	38.5243	25.8047	5.4304	0.4519	0.4842	0.6146	-0.4286
10.82	-9.6971	-0.8356	-2.1984	-0.0190	-0.0060	-0.0496	38.6091	25.7610	5.5293	0.4518	0.4841	0.6146	-0.4286
10.83	-9.6551	-0.8422	-2.1919	-0.0193	-0.0108	-0.0446	38.6192	25.7169	5.8608	0.4519	0.4841	0.6146	-0.4286
10.84	-9.6422	-0.8639	-2.1822	-0.0095	-0.0103	-0.0364	38.6024	25.8143	5.5741	0.4519	0.4842	0.6145	-0.4286
10.85	-9.6352	-0.8546	-2.1825	-0.0072	-0.0130	-0.0367	38.6289	25.7736	5.6365	0.4519	0.4842	0.6144	-0.4286
10.86	-9.6391	-0.8356	-2.1821	-0.0029	-0.0122	-0.0322	38.4806	25.7922	5.4829	0.4519	0.4843	0.6144	-0.4287
10.87	-9.6069	-0.8124	-2.1850	-0.0058	-0.0070	-0.0329	38.7469	25.4898	5.5437	0.4519	0.4844	0.6143	-0.4287
10.88	-9.6258	-0.7973	-2.1987	-0.0045	-0.0122	-0.0325	38.7476	25.6139	5.2288	0.4520	0.4845	0.6143	-0.4287
10.89	-9.6318	-0.7995	-2.2022	-0.0033	-0.0106	-0.0417	38.6590	25.5952	5.3435	0.4519	0.4845	0.6141	-0.4287
10.9	-9.6262	-0.7972	-2.1880	-0.0037	-0.0090	-0.0471	38.8616	25.6458	5.5742	0.4519	0.4846	0.6141	-0.4288
10.91	-9.6356	-0.7915	-2.1869	-0.0045	-0.0072	-0.0424	38.6605	25.7124	5.4786	0.4519	0.4846	0.6141	-0.4288
10.92	-9.6378	-0.7807	-2.1829	-0.0011	-0.0100	-0.0412	38.5797	25.7004	5.6184	0.4518	0.4847	0.6140	-0.4289
10.93	-9.6402	-0.7807	-2.1781	-0.0055	-0.0092	-0.0486	38.6379	25.6856	5.6095	0.4519	0.4847	0.6140	-0.4290
10.94	-9.6305	-0.7722	-2.1859	-0.0144	-0.0121	-0.0448	38.7228	25.6011	5.6164	0.4518	0.4847	0.6139	-0.4289
10.95	-9.6416	-0.7762	-2.1726	-0.0144	-0.0070	-0.0400	38.6447	25.5986	5.6119	0.4519	0.4848	0.6139	-0.4290
10.96	-9.6189	-0.7821	-2.1818	-0.0126	-0.0050	-0.0464	38.5680	25.7008	5.6146	0.4518	0.4848	0.6138	-0.4289
10.97	-9.6142	-0.7851	-2.1755	-0.0217	-0.0009	-0.0498	38.6789	26.0180	5.5955	0.4518	0.4848	0.6139	-0.4290
10.98	-9.6210	-0.7937	-2.1910	-0.0279	-0.0036	-0.0450	38.8109	25.7719	5.4578	0.4518	0.4848	0.6139	-0.4289
10.99	-9.6342	-0.7990	-2.1928	-0.0292	0.0062	-0.0516	38.5083	25.8055	5.6528	0.4518	0.4848	0.6139	-0.4288
11	-9.6368	-0.8062	-2.2004	-0.0303	-0.0031	-0.0508	38.5132	25.6765	5.3676	0.4518	0.4848	0.6140	-0.4288
11.01	-9.6269	-0.8127	-2.2116	-0.0294	-0.0081	-0.0573	38.6928	25.7174	5.3705	0.4518	0.4847	0.6140	-0.4288
11.02	-9.6063	-0.8178	-2.1942	-0.0298	0.0007	-0.0516	38.8338	25.8761	5.4288	0.4518	0.4847	0.6141	-0.4288
11.03	-9.6766	-0.8350	-2.2097	-0.0279	0.0083	-0.0593	38.3438	25.8644	5.5049	0.4517	0.4847	0.6141	-0.4287
11.04	-9.6980	-0.8406	-2.2124	-0.0297	-0.0089	-0.0574	38.7488	25.8934	5.6237	0.4518	0.4847	0.6142	-0.4287
11.05	-9.6435	-0.8595	-2.2013	-0.0279	-0.0132	-0.0575	38.7017	25.6666	5.6246	0.4518	0.4846	0.6142	-0.4287
11.06	-9.6425	-0.8810	-2.2085	-0.0291	-0.0138	-0.0566	38.6125	25.5880	5.5345	0.4518	0.4845	0.6143	-0.4287
11.07	-9.6636	-0.8686	-2.2015	-0.0226	-0.0174	-0.0489	38.9455	25.6283	5.5188	0.4518	0.4845	0.6142	-0.4287
11.08	-9.6730	-0.8675	-2.2153	-0.0053	-0.0095	-0.0437	38.6950	25.4754	5.6431	0.4518	0.4845	0.6142	-0.4288
11.09	-9.6452	-0.8446	-2.2025	-0.0046	-0.0093	-0.0459	38.7436	25.6150	5.6100	0.4518	0.4846	0.6142	-0.4288
11.1	-9.6299	-0.8387	-2.2020	-0.0035	-0.0099	-0.0447	38.9059	25.9176	5.5513	0.4517	0.4846	0.6141	-0.4288
11.11	-9.6307	-0.8497	-2.2104	-0.0040	-0.0201	-0.0497	38.6527	25.7290	5.2642	0.4518	0.4846	0.6141	-0.4290
11.12	-9.6208	-0.8509	-2.1959	-0.0038	-0.0143	-0.0533	38.5999	25.7279	5.2652	0.4517	0.4846	0.6140	-0.4290
11.13	-9.6294	-0.8481	-2.1911	-0.0059	-0.0197	-0.0425	38.6140	25.8193	5.4261	0.4518	0.4847	0.6140	-0.4291
11.14	-9.6348	-0.8336	-2.1717	-0.0026	-0.0184	-0.0412	38.6894	25.6876	5.4324	0.4517	0.4847	0.6138	-0.4291
11.15	-9.6387	-0.8277	-2.1866	-0.0057	-0.0130	-0.0456	38.7253	25.6878	5.4181	0.4518	0.4847	0.6138	-0.4292
11.16	-9.6332	-0.8210	-2.1803	-0.0059	-0.0101	-0.0377	38.6373	25.9347	5.4388	0.4518	0.4848	0.6137	-0.4292
11.17	-9.6452	-0.8078	-2.1799	-0.0060	-0.0116	-0.0371	38.6041	25.9152	5.3862	0.4517	0.4848	0.6136	-0.4292
11.18	-9.6431	-0.8040	-2.1747	-0.0112	-0.0057	-0.0391	38.6111	25.6492	5.5828	0.4518	0.4849	0.6137	-0.4293
11.19	-9.6381	-0.8236	-2.1934	-0.0088	-0.0064	-0.0356	38.4859	25.8745	5.5499	0.4518	0.4849	0.6136	-0.4293
11.2	-9.6448	-0.8087	-2.1690	-0.0053	-0.0044	-0.0345	38.5843	25.8616	5.3157	0.4518	0.4851	0.6135	-0.4293
11.21	-9.6392	-0.8082	-2.1781	-0.0132	-0.0067	-0.0380	38.7282	25.8967	5.3166	0.4517	0.4851	0.6134	-0.4292
11.22	-9.6378	-0.8197	-2.1772	-0.0117	-0.0070	-0.0379	38.5462	25.7195	5.4933	0.4518	0.4852	0.6134	-0.4293
11.23	-9.6399	-0.8105	-2.1783	-0.0007	-0.0105	-0.0356	38.5827	25.7449	5.4631	0.4518	0.4852	0.6133	-0.4293
11.24	-9.6435	-0.8216	-2.1854	-0.0064	-0.0100	-0.0325	39.1788	25.7665	5.4744	0.4518	0.4853	0.6132	-0.4293
11.25	-9.6422	-0.8201	-2.1730	-0.0037	-0.0151	-0.0320	39.2197	25.4623	5.6607	0.4518	0.4854	0.6131	-0.4294
11.26	-9.6434	-0.8105	-2.1729	-0.0039	-0.0101	-0.0382	38.9654	25.4815	5.4704	0.4518	0.4855	0.6130	-0.4294
11.27	-9.6418	-0.8150	-2.1709	-0.0012	-0.0129	-0.0393	38.6241	25.5754	5.4287	0.4518	0.4856	0.6130	-0.4295
11.28	-9.6367	-0.8098	-2.1660	0.0061	-0.0170	-0.0321	38.5458	25.5548	5.4362	0.4517	0.4856	0.6128	-0.4295
11.29	-9.6496	-0.8029	-2.1634	-0.0030	-0.0135	-0.0384	38.7150	25.7991	5.4111	0.4518	0.4857	0.6128	-0.4296
11.3	-9.6261	-0.8025	-2.1484	-0.0036	-0.0097	-0.0349	38.7109	25.6642	5.4514	0.4518	0.4858	0.6127	-0.4296
11.31	-9.6356	-0.7950	-2.1649	-0.0035	-0.0091	-0.0362	38.8140	25.6560	5.3406	0.4518	0.4859	0.6126	-0.4296
11.32	-9.6336	-0.8064	-2.1578	-0.0035	-0.0121	-0.0396	38.6579	25.6358	5.3332	0.4517	0.4859	0.6125	-0.4296
11.33	-9.6515	-0.8083	-2.1604	-0.0046	-0.0084	-0.0380	38.6922	25.4369	5.4561	0.4518	0.4860	0.6125	-0.4297
11.34	-9.6651	-0.8072	-2.1794	-0.0101	-0.0095	-0.0417	38.6803	25.6965	5.2087	0.4518	0.4860	0.6125	-0.4297
11.35	-9.6059	-0.8103	-2.1620	-0.0197	-0.0081	-0.0351	38.6883	25.8503	5.3426	0.4517	0.4860	0.6124	-0.4296
11.36	-9.6193	-0.8046	-2.1599	-0.0220	-0.0071	-0.0319	38.5846	25.6906	5.3130	0.4519	0.4861	0.6124	-0.4296
11.37	-9.6102	-0.8003	-2.1572	-0.0238	-0.0047	-0.0339	38.4427	25.8142	5.3778	0.4519	0.4861	0.6123	-0.4296
11.38	-9.5947	-0.8143	-2.1527	-0.0067	-0.0051	-0.0342	38.6752	25.7527	5.4403	0.4519	0.4863	0.6123	-0.4296
11.39	-9.5983	-0.8151	-2.1524	-0.0231	-0.0015	-0.0317	38.6821	25.8215	5.4176	0.4519	0.4863	0.6122	-0.4295
11.4	-9.6583	-0.8265	-2.1615	-0.0211	0.0079	-0.0344	38.7069	25.8189	5.4154	0.4519	0.4864	0.6123	-0.4294
11.41	-9.6857	-0.8309	-2.1710	-0.0056	0.0011	-0.0331	38.6121	25.6703	5.2546	0.4518	0.4864	0.6122	-0.4294
11.42	-9.6611	-0.8428	-2.1684	-0.0075	-0.0021	-0.0318	38.6442	25.5618	5.2222	0.4518	0.4865	0.6121	-0.4294
11.43	-9.6297	-0.8443	-2.1778	-0.0060	-0.0009	-0.0332	38.9092	25.5625	5.3712	0.4519	0.4867	0.6122	-0.4294
