time	acceleration_x	acceleration_y	acceleration_z	gyroscope_x	gyroscope_y	gyroscope_z	magnetometer_x	magnetometer_y	magnetometer_z	quaternion_w	quaternion_x	quaternion_y	quaternion_z
0	-9.5063	-0.1577	-1.4359	-0.0003	-0.0149	0.0134	31.1646	-7.4457	17.1295	0.6288	-0.2098	0.7284	0.1733
0.01	-9.5027	-0.1522	-1.4240	-0.0051	-0.0105	0.0113	31.1725	-7.4418	17.2941	0.6288	-0.2098	0.7285	0.1734
0.02	-9.5010	-0.1535	-1.4311	-0.0027	-0.0122	0.0054	31.4274	-7.4351	17.1952	0.6287	-0.2098	0.7284	0.1733
0.03	-9.5012	-0.1512	-1.4402	-0.0026	-0.0076	0.0034	31.4576	-7.5415	17.0938	0.6288	-0.2098	0.7284	0.1733
0.04	-9.5062	-0.1485	-1.4506	-0.0060	-0.0090	0.0082	31.3915	-7.4986	17.2964	0.6287	-0.2099	0.7284	0.1734
0.05	-9.5038	-0.1493	-1.4485	0.0039	-0.0098	0.0053	31.5948	-7.5891	17.2314	0.6287	-0.2099	0.7284	0.1733
0.06	-9.5074	-0.1485	-1.4500	-0.0079	-0.0068	0.0105	31.3615	-7.6172	17.0816	0.6287	-0.2099	0.7285	0.1734
0.07	-9.5066	-0.1503	-1.4469	-0.0023	-0.0087	0.0064	31.3027	-7.5812	17.1547	0.6286	-0.2099	0.7285	0.1734
0.08	-9.4998	-0.1483	-1.4327	0.0022	-0.0115	0.0038	31.3248	-7.4530	17.2186	0.6287	-0.2099	0.7285	0.1733
0.09	-9.5002	-0.1536	-1.4248	-0.0007	-0.0116	0.0061	31.2925	-7.4162	17.1657	0.6286	-0.2099	0.7284	0.1733
0.1	-9.5034	-0.1549	-1.4324	-0.0017	-0.0121	0.0072	31.4315	-7.5738	17.4437	0.6287	-0.2100	0.7285	0.1733
0.11	-9.5031	-0.1556	-1.4302	0.0068	-0.0103	0.0136	31.7555	-7.1178	17.4532	0.6286	-0.2099	0.7285	0.1733
0.12	-9.5084	-0.1571	-1.4310	-0.0005	-0.0163	0.0162	31.5664	-7.2117	17.4737	0.6287	-0.2099	0.7285	0.1733
0.13	-9.5096	-0.1563	-1.4431	0.0024	-0.0082	0.0105	31.3221	-7.2753	17.4244	0.6286	-0.2099	0.7285	0.1733
0.14	-9.5008	-0.1531	-1.4544	0.0047	-0.0141	0.0124	31.2733	-7.3875	17.2842	0.6286	-0.2099	0.7285	0.1733
0.15	-9.5080	-0.1489	-1.4535	-0.0011	-0.0107	0.0068	31.2873	-7.3768	17.4066	0.6286	-0.2099	0.7285	0.1733
0.16	-9.5022	-0.1513	-1.4703	0.0034	-0.0114	0.0141	31.1567	-7.3825	17.2299	0.6286	-0.2098	0.7285	0.1733
0.17	-9.5030	-0.1492	-1.4765	0.0040	-0.0144	0.0104	31.2813	-7.5266	17.4041	0.6287	-0.2098	0.7286	0.1733
0.18	-9.5022	-0.1392	-1.4731	-0.0004	-0.0169	0.0108	31.3428	-7.3560	17.1406	0.6286	-0.2098	0.7285	0.1733
0.19	-9.5195	-0.1342	-1.4654	0.0027	-0.0179	0.0108	31.1384	-7.4977	17.3329	0.6287	-0.2098	0.7286	0.1733
0.2	-9.5128	-0.1380	-1.4558	0.0079	-0.0097	0.0127	31.2747	-7.5806	17.3717	0.6286	-0.2098	0.7285	0.1733
0.21	-9.5026	-0.1288	-1.4526	0.0001	-0.0144	0.0128	31.4419	-7.5787	17.0173	0.6286	-0.2098	0.7286	0.1733
0.22	-9.5025	-0.1237	-1.4341	0.0050	-0.0153	0.0135	31.4420	-7.5719	17.1708	0.6286	-0.2097	0.7286	0.1733
0.23	-9.5019	-0.1298	-1.4242	-0.0038	-0.0180	0.0128	31.5561	-7.5708	17.2688	0.6286	-0.2097	0.7285	0.1733
0.24	-9.5015	-0.1269	-1.4205	0.0010	-0.0143	0.0136	31.1686	-7.6742	17.2790	0.6287	-0.2097	0.7286	0.1733
0.25	-9.4960	-0.1205	-1.4145	0.0022	-0.0108	0.0145	31.2357	-7.5279	17.2663	0.6286	-0.2097	0.7286	0.1733
0.26	-9.5083	-0.1337	-1.4166	-0.0020	-0.0142	0.0110	31.4253	-7.4705	17.2690	0.6287	-0.2097	0.7286	0.1734
0.27	-9.5081	-0.1435	-1.4186	-0.0020	-0.0143	0.0080	31.4175	-7.5247	17.2838	0.6286	-0.2097	0.7285	0.1733
0.28	-9.5010	-0.1567	-1.4134	-0.0012	-0.0147	0.0092	31.3977	-7.4400	17.1388	0.6287	-0.2097	0.7286	0.1734
0.29	-9.5037	-0.1634	-1.4116	-0.0001	-0.0087	0.0157	31.1480	-7.3023	17.4048	0.6286	-0.2097	0.7286	0.1734
0.3	-9.5002	-0.1665	-1.4145	-0.0021	-0.0171	0.0161	31.2359	-7.3439	17.1552	0.6286	-0.2097	0.7286	0.1734
0.31	-9.5026	-0.1759	-1.4144	-0.0041	-0.0164	0.0107	31.3668	-7.3290	17.2215	0.6286	-0.2097	0.7286	0.1734
0.32	-9.4955	-0.1743	-1.4130	-0.0058	-0.0139	0.0092	31.2836	-7.4460	17.4603	0.6286	-0.2097	0.7285	0.1734
0.33	-9.5016	-0.1691	-1.4220	-0.0017	-0.0079	0.0114	31.2520	-7.5867	17.1216	0.6286	-0.2097	0.7286	0.1734
0.34	-9.5006	-0.1714	-1.4308	-0.0021	-0.0125	0.0112	31.2503	-7.4988	17.2926	0.6285	-0.2097	0.7285	0.1734
0.35	-9.4939	-0.1649	-1.4305	-0.0039	-0.0111	0.0138	31.1744	-7.4064	17.1550	0.6286	-0.2097	0.7286	0.1735
0.36	-9.5113	-0.1616	-1.4428	-0.0016	-0.0093	0.0129	31.2971	-7.3996	17.3292	0.6286	-0.2097	0.7286	0.1735
0.37	-9.5058	-0.1655	-1.4512	0.0000	-0.0162	0.0123	31.4248	-7.4868	17.1595	0.6286	-0.2097	0.7286	0.1735
0.38	-9.5012	-0.1620	-1.4462	-0.0020	-0.0131	0.0143	31.3934	-7.4918	17.2935	0.6285	-0.2096	0.7286	0.1735
0.39	-9.5007	-0.1704	-1.4451	-0.0017	-0.0118	0.0107	31.4632	-7.3956	17.2409	0.6285	-0.2096	0.7286	0.1735
0.4	-9.4994	-0.1618	-1.4643	-0.0020	-0.0116	0.0129	31.4585	-7.4000	17.1501	0.6285	-0.2097	0.7286	0.1736
0.41	-9.5008	-0.1602	-1.4598	0.0068	-0.0061	0.0107	31.3972	-7.4900	17.2137	0.6285	-0.2096	0.7286	0.1735
0.42	-9.5035	-0.1619	-1.4574	0.0005	-0.0108	0.0145	31.4210	-7.5816	17.1449	0.6285	-0.2096	0.7287	0.1735
0.43	-9.5084	-0.1485	-1.4684	0.0001	-0.0153	0.0101	31.4335	-7.6053	17.2696	0.6285	-0.2096	0.7286	0.1735
0.44	-9.5018	-0.1514	-1.4701	0.0012	-0.0101	0.0058	31.3390	-7.6953	17.2033	0.6285	-0.2096	0.7287	0.1735
0.45	-9.5012	-0.1477	-1.4651	0.0008	-0.0145	0.0085	31.4229	-7.5578	17.1871	0.6285	-0.2096	0.7286	0.1735
0.46	-9.5043	-0.1457	-1.4529	-0.0004	-0.0134	0.0126	31.3918	-7.5833	17.3885	0.6285	-0.2096	0.7287	0.1735
0.47	-9.5041	-0.1459	-1.4527	0.0002	-0.0102	0.0119	31.3123	-7.5777	17.2082	0.6285	-0.2096	0.7287	0.1736
0.48	-9.4993	-0.1392	-1.4466	-0.0032	-0.0094	0.0102	31.3425	-7.5746	17.3803	0.6284	-0.2096	0.7286	0.1735
0.49	-9.5092	-0.1292	-1.4534	-0.0072	-0.0122	0.0168	31.3276	-7.5884	17.3481	0.6285	-0.2096	0.7287	0.1736
0.5	-9.5066	-0.1335	-1.4483	-0.0015	-0.0108	0.0099	31.3350	-7.5539	17.3703	0.6284	-0.2096	0.7287	0.1736
0.51	-9.5054	-0.1358	-1.4436	0.0036	-0.0183	0.0084	31.3315	-7.4287	17.3427	0.6285	-0.2096	0.7287	0.1736
0.52	-9.5028	-0.1338	-1.4283	-0.0009	-0.0167	0.0128	31.3273	-7.3231	17.3694	0.6284	-0.2096	0.7286	0.1736
0.53	-9.5121	-0.1392	-1.4343	-0.0010	-0.0107	0.0128	31.3348	-7.3366	17.3208	0.6285	-0.2096	0.7287	0.1736
0.54	-9.5028	-0.1309	-1.4315	0.0038	-0.0142	0.0111	31.3242	-7.4829	17.4326	0.6285	-0.2096	0.7287	0.1736
0.55	-9.4991	-0.1520	-1.4277	0.0071	-0.0124	0.0112	31.3394	-7.5107	17.3838	0.6284	-0.2095	0.7287	0.1736
0.56	-9.5075	-0.1535	-1.4268	-0.0016	-0.0153	0.0130	31.3180	-7.3943	17.2508	0.6285	-0.2095	0.7287	0.1736
0.57	-9.5097	-0.1511	-1.4326	-0.0008	-0.0179	0.0115	31.3705	-7.5551	17.2630	0.6285	-0.2095	0.7287	0.1736
0.58	-9.5059	-0.1406	-1.4243	-0.0051	-0.0149	0.0107	31.4316	-7.5812	17.3356	0.6285	-0.2095	0.7287	0.1737
0.59	-9.4999	-0.1496	-1.4293	-0.0019	-0.0209	0.0083	31.3918	-7.5831	17.3673	0.6284	-0.2095	0.7286	0.1737
0.6	-9.5083	-0.1515	-1.4357	-0.0007	-0.0134	0.0095	31.6136	-7.4603	17.4700	0.6285	-0.2096	0.7287	0.1737
0.61	-9.5167	-0.1538	-1.4276	0.0055	-0.0142	0.0163	31.9749	-7.3756	17.5801	0.6285	-0.2095	0.7286	0.1737
0.62	-9.5100	-0.1518	-1.4417	-0.0019	-0.0085	0.0073	31.8544	-7.4341	17.4709	0.6285	-0.2095	0.7287	0.1737
0.63	-9.5067	-0.1586	-1.4437	-0.0066	-0.0081	0.0052	31.5814	-7.4126	17.3759	0.6284	-0.2095	0.7287	0.1737
0.64	-9.5052	-0.1494	-1.4551	0.0039	-0.0079	0.0081	31.3390	-7.3444	17.1698	0.6284	-0.2096	0.7287	0.1736
0.65	-9.5042	-0.1585	-1.4490	0.0029	-0.0122	0.0126	31.3893	-7.4419	17.2927	0.6285	-0.2095	0.7287	0.1736
0.66	-9.5053	-0.1554	-1.4553	-0.0017	-0.0108	0.0069	31.3045	-7.4696	17.2634	0.6284	-0.2095	0.7287	0.1736
0.67	-9.5104	-0.1517	-1.4518	-0.0005	-0.0054	0.0023	31.3133	-7.3399	17.4444	0.6284	-0.2096	0.7288	0.1736
0.68	-9.5031	-0.1466	-1.4476	0.0060	-0.0070	0.0052	31.3814	-7.4064	17.3901	0.6284	-0.2096	0.7287	0.1736
0.69	-9.5046	-0.1532	-1.4576	0.0002	-0.0152	0.0097	31.2204	-7.2788	17.2451	0.6285	-0.2096	0.7288	0.1736
0.7	-9.5025	-0.1476	-1.4554	-0.0034	-0.0062	0.0011	31.1419	-7.3874	17.3052	0.6284	-0.2096	0.7287	0.1735
0.71	-9.5094	-0.1459	-1.4641	-0.0020	-0.0120	0.0034	31.1438	-7.4594	17.1690	0.6284	-0.2096	0.7288	0.1735
0.72	-9.5025	-0.1475	-1.4523	-0.0038	-0.0121	0.0053	31.1449	-7.5028	17.2093	0.6284	-0.2097	0.7288	0.1735
0.73	-9.5062	-0.1438	-1.4492	-0.0011	-0.0118	0.0079	31.1468	-7.5246	17.2609	0.6283	-0.2097	0.7287	0.1735
0.74	-9.5088	-0.1549	-1.4529	-0.0019	-0.0155	0.0080	31.1307	-7.1113	17.3124	0.6284	-0.2097	0.7288	0.1735
0.75	-9.4987	-0.1558	-1.4461	0.0030	-0.0078	0.0098	31.2976	-7.4613	17.2413	0.6284	-0.2097	0.7288	0.1735
0.76	-9.5051	-0.1599	-1.4166	-0.0015	-0.0123	0.0106	31.2789	-7.5499	17.4144	0.6284	-0.2097	0.7288	0.1735
0.77	-9.5055	-0.1545	-1.4279	-0.0043	-0.0096	0.0112	31.4109	-7.5499	17.1851	0.6283	-0.2097	0.7287	0.1735
0.78	-9.5006	-0.1514	-1.4308	-0.0018	-0.0072	0.0129	31.4393	-7.4786	17.1349	0.6283	-0.2097	0.7288	0.1735
0.79	-9.5072	-0.1533	-1.4240	-0.0018	-0.0113	0.0096	31.1121	-7.3679	17.2030	0.6283	-0.2097	0.7288	0.1735
0.8	-9.5062	-0.1368	-1.4242	-0.0015	-0.0157	0.0100	31.4197	-7.5538	17.2913	0.6283	-0.2097	0.7288	0.1735
0.81	-9.5058	-0.1334	-1.4356	-0.0013	-0.0089	0.0080	31.3520	-7.5421	17.1926	0.6283	-0.2097	0.7288	0.1735
0.82	-9.5015	-0.1425	-1.4319	-0.0000	-0.0101	0.0087	31.4450	-7.3642	17.2457	0.6283	-0.2097	0.7288	0.1735
0.83	-9.5061	-0.1368	-1.4323	-0.0023	-0.0136	0.0062	31.4153	-7.2791	17.5004	0.6283	-0.2097	0.7288	0.1735
0.84	-9.5102	-0.1371	-1.4310	0.0020	-0.0159	0.0142	31.3001	-7.5753	17.3730	0.6282	-0.2097	0.7287	0.1735
0.85	-9.5032	-0.1415	-1.4286	-0.0045	-0.0087	0.0093	31.2727	-7.5118	17.3747	0.6283	-0.2097	0.7288	0.1735
0.86	-9.4965	-0.1460	-1.4279	-0.0095	-0.0120	0.0108	31.2417	-7.4259	17.3944	0.6282	-0.2097	0.7288	0.1736
0.87	-9.5079	-0.1521	-1.4322	-0.0092	-0.0135	0.0074	31.3300	-7.4977	17.3184	0.6283	-0.2098	0.7288	0.1736
0.88	-9.5013	-0.1520	-1.4340	-0.0032	-0.0031	0.0073	31.2946	-7.2366	17.0993	0.6282	-0.2098	0.7288	0.1736
0.89	-9.5025	-0.1527	-1.4326	-0.0080	-0.0062	0.0056	31.3077	-7.3581	17.0925	0.6282	-0.2098	0.7288	0.1736
0.9	-9.5020	-0.1534	-1.4422	-0.0099	-0.0033	0.0070	31.1463	-7.4913	17.1867	0.6282	-0.2099	0.7289	0.1736
0.91	-9.5017	-0.1436	-1.4434	-0.0158	-0.0095	0.0044	31.1318	-7.4412	17.1910	0.6281	-0.2099	0.7288	0.1736
0.92	-9.5026	-0.1368	-1.4355	-0.0107	-0.0170	0.0070	31.3436	-7.4570	17.2369	0.6282	-0.2100	0.7289	0.1737
0.93	-9.5022	-0.1537	-1.4319	-0.0046	-0.0171	0.0096	31.2643	-7.4668	17.2673	0.6281	-0.2100	0.7288	0.1737
0.94	-9.5019	-0.1538	-1.4395	0.0012	-0.0086	0.0014	31.1936	-7.6420	17.1833	0.6282	-0.2101	0.7289	0.1737
0.95	-9.5025	-0.1503	-1.4379	-0.0037	-0.0077	0.0113	31.3335	-7.5244	17.2121	0.6281	-0.2100	0.7288	0.1737
0.96	-9.4990	-0.1502	-1.4395	-0.0077	-0.0076	0.0075	31.3743	-7.5378	17.2215	0.6281	-0.2101	0.7289	0.1737
0.97	-9.4985	-0.1509	-1.4431	-0.0055	-0.0127	0.0103	31.2739	-7.5330	17.3290	0.6281	-0.2101	0.7289	0.1737
0.98	-9.5092	-0.1503	-1.4509	-0.0043	-0.0098	0.0114	31.3286	-7.5462	17.2657	0.6280	-0.2101	0.7288	0.1737
0.99	-9.5076	-0.1543	-1.4519	-0.0059	-0.0071	0.0069	31.1907	-7.4360	17.3205	0.6281	-0.2102	0.7289	0.1738
1	-9.5029	-0.1564	-1.4413	-0.0007	-0.0161	0.0120	31.3925	-7.4762	17.2465	0.6280	-0.2101	0.7289	0.1737
1.01	-9.5038	-0.1588	-1.4263	-0.0011	-0.0138	0.0073	31.3187	-7.6155	17.4146	0.6281	-0.2102	0.7289	0.1738
1.02	-9.5009	-0.1622	-1.4368	0.0004	-0.0109	0.0086	31.2959	-7.6236	17.1919	0.6280	-0.2102	0.7288	0.1737
1.03	-9.5057	-0.1637	-1.4439	-0.0026	-0.0188	0.0144	31.4134	-7.6058	17.0188	0.6280	-0.2102	0.7289	0.1738
1.04	-9.5039	-0.1568	-1.4522	-0.0040	-0.0114	0.0080	31.0575	-7.4814	17.3309	0.6280	-0.2102	0.7288	0.1738
1.05	-9.5038	-0.1469	-1.4511	-0.0055	-0.0079	0.0072	31.1251	-7.3977	17.1970	0.6280	-0.2102	0.7288	0.1738
1.06	-9.5055	-0.1440	-1.4488	0.0014	-0.0087	0.0085	31.2443	-7.2507	17.1834	0.6280	-0.2102	0.7289	0.1738
1.07	-9.5072	-0.1477	-1.4488	0.0017	-0.0087	0.0054	31.2103	-7.4742	17.3667	0.6280	-0.2102	0.7289	0.1737
1.08	-9.5005	-0.1444	-1.4552	-0.0080	-0.0081	0.0015	31.2493	-7.5550	17.3341	0.6280	-0.2103	0.7289	0.1738
1.09	-9.4956	-0.1418	-1.4463	-0.0077	-0.0169	0.0050	31.4894	-7.5319	17.2055	0.6279	-0.2103	0.7288	0.1737
1.1	-9.5039	-0.1399	-1.4443	-0.0067	-0.0164	0.0095	31.4418	-7.5138	17.1869	0.6280	-0.2104	0.7289	0.1738
1.11	-9.5116	-0.1429	-1.4509	-0.0025	-0.0174	0.0099	31.5194	-7.4390	17.4376	0.6280	-0.2103	0.7288	0.1738
1.12	-9.5071	-0.1601	-1.4491	-0.0025	-0.0160	0.0133	31.5036	-7.3993	17.4137	0.6280	-0.2103	0.7288	0.1738
1.13	-9.4929	-0.1596	-1.4467	0.0045	-0.0182	0.0126	31.4653	-7.3781	17.3548	0.6280	-0.2103	0.7288	0.1738
1.14	-9.5094	-0.1502	-1.4521	0.0048	-0.0235	0.0166	31.2867	-7.4120	17.3794	0.6280	-0.2103	0.7288	0.1738
1.15	-9.5118	-0.1484	-1.4390	0.0011	-0.0132	0.0118	31.2858	-7.6196	17.3990	0.6280	-0.2103	0.7288	0.1738
1.16	-9.5065	-0.1497	-1.4371	-0.0008	-0.0208	0.0149	31.3260	-7.3896	17.4700	0.6280	-0.2102	0.7287	0.1738
1.17	-9.5045	-0.1484	-1.4437	0.0013	-0.0142	0.0091	31.3910	-7.6158	17.3243	0.6281	-0.2102	0.7288	0.1739
1.18	-9.5135	-0.1464	-1.4410	0.0018	-0.0152	0.0119	31.5470	-7.5118	17.2391	0.6281	-0.2102	0.7288	0.1739
1.19	-9.5104	-0.1508	-1.4302	-0.0036	-0.0152	0.0118	31.3153	-7.4955	17.3569	0.6281	-0.2102	0.7288	0.1739
1.2	-9.5012	-0.1516	-1.4335	0.0013	-0.0178	0.0114	31.3213	-7.3938	17.2622	0.6280	-0.2102	0.7287	0.1739
1.21	-9.5064	-0.1470	-1.4363	0.0005	-0.0213	0.0115	31.4985	-7.5405	17.2723	0.6281	-0.2102	0.7287	0.1739
1.22	-9.5037	-0.1516	-1.4294	0.0019	-0.0187	0.0143	31.3274	-7.5507	17.2581	0.6281	-0.2102	0.7287	0.1739
1.23	-9.5060	-0.1489	-1.4371	-0.0032	-0.0112	0.0088	31.2399	-7.3941	17.3279	0.6281	-0.2102	0.7287	0.1739
1.24	-9.5118	-0.1528	-1.4432	-0.0022	-0.0137	0.0047	31.1428	-7.4171	17.4690	0.6282	-0.2102	0.7288	0.1739
1.25	-9.5071	-0.1488	-1.4510	-0.0012	-0.0108	0.0078	31.2625	-7.4191	17.3974	0.6281	-0.2102	0.7287	0.1739
1.26	-9.5008	-0.1500	-1.4401	-0.0054	-0.0166	0.0064	31.2119	-7.5952	17.3184	0.6282	-0.2102	0.7287	0.1739
1.27	-9.5114	-0.1514	-1.4531	0.0007	-0.0148	0.0110	31.3127	-7.4834	17.4646	0.6281	-0.2102	0.7286	0.1739
1.28	-9.5130	-0.1494	-1.4454	-0.0044	-0.0171	0.0121	31.3208	-7.4953	17.4144	0.6282	-0.2102	0.7287	0.1739
1.29	-9.5054	-0.1485	-1.4513	-0.0122	-0.0139	0.0074	31.2758	-7.4840	17.4918	0.6281	-0.2103	0.7287	0.1740
1.3	-9.5038	-0.1524	-1.4481	-0.0001	-0.0100	0.0102	31.1530	-7.5211	17.2603	0.6281	-0.2103	0.7287	0.1740
1.31	-9.5023	-0.1575	-1.4479	0.0023	-0.0213	0.0137	31.1394	-7.2885	17.2721	0.6282	-0.2102	0.7287	0.1740
1.32	-9.5044	-0.1577	-1.4391	0.0066	-0.0158	0.0155	31.4298	-7.4961	17.3513	0.6282	-0.2102	0.7287	0.1740
1.33	-9.4989	-0.1519	-1.4420	0.0003	-0.0156	0.0168	31.4731	-7.4112	17.2037	0.6282	-0.2102	0.7287	0.1740
1.34	-9.5106	-0.1473	-1.4396	0.0007	-0.0111	0.0115	31.5730	-7.4761	17.0576	0.6281	-0.2101	0.7286	0.1740
1.35	-9.5092	-0.1519	-1.4333	0.0032	-0.0144	0.0122	31.4300	-7.5832	17.3717	0.6282	-0.2101	0.7287	0.1740
1.36	-9.5075	-0.1491	-1.4271	0.0044	-0.0109	0.0173	31.2731	-7.4440	17.2403	0.6282	-0.2101	0.7287	0.1740
1.37	-9.5150	-0.1506	-1.4427	0.0066	-0.0104	0.0200	31.3444	-7.5722	17.2241	0.6282	-0.2101	0.7287	0.1740
1.38	-9.5028	-0.1349	-1.4507	0.0055	-0.0115	0.0134	31.2956	-7.5830	17.2910	0.6281	-0.2100	0.7287	0.1740
1.39	-9.5035	-0.1455	-1.4573	-0.0012	-0.0158	0.0083	31.2287	-7.5554	17.1414	0.6281	-0.2100	0.7287	0.1740
1.4	-9.5028	-0.1448	-1.4503	-0.0018	-0.0139	0.0106	31.4403	-7.6130	17.2039	0.6282	-0.2100	0.7287	0.1740
1.41	-9.5068	-0.1590	-1.4627	-0.0016	-0.0118	0.0107	31.5167	-7.4006	17.1710	0.6281	-0.2100	0.7287	0.1740
1.42	-9.5067	-0.1733	-1.4623	-0.0003	-0.0177	0.0127	31.3392	-7.2269	17.1710	0.6282	-0.2100	0.7288	0.1740
1.43	-9.5050	-0.1850	-1.4442	-0.0035	-0.0184	0.0099	31.2111	-7.6416	17.3490	0.6282	-0.2100	0.7287	0.1740
1.44	-9.5019	-0.1916	-1.4501	0.0014	-0.0156	0.0088	31.2396	-7.4631	17.2950	0.6282	-0.2100	0.7287	0.1741
1.45	-9.5059	-0.1777	-1.4506	0.0028	-0.0177	0.0109	31.2459	-7.6083	17.2408	0.6282	-0.2100	0.7286	0.1740
1.46	-9.5028	-0.1679	-1.4519	0.0042	-0.0180	0.0127	31.1988	-7.4183	17.4069	0.6282	-0.2100	0.7287	0.1740
1.47	-9.5007	-0.1589	-1.4627	0.0048	-0.0143	0.0138	31.1655	-7.4681	17.2604	0.6282	-0.2099	0.7287	0.1740
1.48	-9.5188	-0.1339	-1.4679	-0.0019	-0.0155	0.0116	31.3392	-7.4880	17.3290	0.6282	-0.2099	0.7286	0.1740
1.49	-9.5068	-0.1227	-1.4664	-0.0058	-0.0143	0.0127	31.2889	-7.5222	17.5644	0.6283	-0.2100	0.7287	0.1741
1.5	-9.5035	-0.1061	-1.4521	0.0104	-0.0192	0.0116	31.3374	-7.2803	17.5059	0.6283	-0.2099	0.7286	0.1740
1.51	-9.5221	-0.0935	-1.4503	0.0074	-0.0178	0.0079	31.4640	-7.5581	17.3081	0.6283	-0.2099	0.7287	0.1740
1.52	-9.5073	-0.0950	-1.4452	-0.0057	-0.0212	0.0164	31.5023	-7.7926	17.1770	0.6283	-0.2098	0.7286	0.1740
1.53	-9.5009	-0.1104	-1.4391	-0.0029	-0.0169	0.0081	31.3376	-7.4930	17.1781	0.6283	-0.2099	0.7286	0.1741
1.54	-9.4966	-0.1161	-1.4279	-0.0014	-0.0159	0.0093	31.3561	-7.4837	17.1945	0.6283	-0.2099	0.7286	0.1741
1.55	-9.5135	-0.1292	-1.4308	0.0013	-0.0143	0.0117	31.4243	-7.5533	17.1408	0.6283	-0.2099	0.7286	0.1741
1.56	-9.5124	-0.1352	-1.4343	0.0049	-0.0134	0.0173	31.2956	-7.5881	17.4220	0.6284	-0.2098	0.7286	0.1741
1.57	-9.5001	-0.1347	-1.4180	-0.0009	-0.0207	0.0162	31.3175	-7.5665	17.3853	0.6284	-0.2098	0.7286	0.1741
1.58	-9.5059	-0.1349	-1.4300	-0.0044	-0.0138	0.0091	31.5169	-7.7699	17.2239	0.6284	-0.2098	0.7286	0.1741
1.59	-9.4969	-0.1473	-1.4188	0.0009	-0.0176	0.0160	31.2846	-7.5803	17.3632	0.6283	-0.2098	0.7285	0.1741
1.6	-9.4987	-0.1518	-1.4117	-0.0020	-0.0176	0.0093	31.4472	-7.2609	17.4715	0.6284	-0.2098	0.7286	0.1742
1.61	-9.5027	-0.1494	-1.4235	-0.0064	-0.0078	0.0100	31.5617	-7.3777	17.3726	0.6284	-0.2098	0.7285	0.1742
1.62	-9.5019	-0.1611	-1.4295	-0.0006	-0.0106	0.0068	31.3898	-7.4390	17.4106	0.6284	-0.2098	0.7286	0.1742
1.63	-9.5019	-0.1737	-1.4283	-0.0069	-0.0213	0.0037	31.4115	-7.3963	17.5564	0.6284	-0.2098	0.7285	0.1742
1.64	-9.4957	-0.1753	-1.4356	-0.0026	-0.0224	0.0060	31.1320	-7.2387	17.1863	0.6284	-0.2099	0.7285	0.1742
1.65	-9.5078	-0.1766	-1.4291	-0.0041	-0.0124	0.0076	31.3111	-7.2266	17.2288	0.6284	-0.2099	0.7285	0.1742
1.66	-9.5130	-0.1885	-1.4327	-0.0011	-0.0104	0.0093	31.2390	-7.2055	17.3758	0.6284	-0.2099	0.7284	0.1742
1.67	-9.5062	-0.1866	-1.4284	-0.0036	-0.0134	0.0058	31.0518	-7.4170	17.3462	0.6285	-0.2099	0.7285	0.1742
1.68	-9.5048	-0.1877	-1.4232	-0.0025	-0.0134	0.0084	31.1824	-7.5202	17.0939	0.6284	-0.2099	0.7285	0.1742
1.69	-9.5050	-0.1847	-1.4372	-0.0001	-0.0161	0.0083	31.1818	-7.5594	17.1589	0.6285	-0.2099	0.7285	0.1742
1.7	-9.4987	-0.1731	-1.4423	-0.0013	-0.0084	0.0038	31.4201	-7.5400	17.3152	0.6284	-0.2099	0.7284	0.1741
1.71	-9.5105	-0.1682	-1.4410	0.0028	-0.0130	0.0066	31.3848	-7.6494	17.2508	0.6284	-0.2099	0.7285	0.1741
1.72	-9.5109	-0.1608	-1.4647	-0.0000	-0.0100	0.0110	31.3905	-7.6281	17.1827	0.6284	-0.2099	0.7285	0.1741
1.73	-9.5003	-0.1475	-1.4542	-0.0049	-0.0117	0.0031	31.4525	-7.9016	17.2224	0.6284	-0.2100	0.7284	0.1741
1.74	-9.5079	-0.1554	-1.4414	-0.0031	-0.0159	0.0124	31.5983	-7.7590	17.1028	0.6285	-0.2100	0.7285	0.1742
1.75	-9.5105	-0.1447	-1.4539	-0.0045	-0.0122	0.0103	31.2473	-7.4376	17.2553	0.6284	-0.2100	0.7285	0.1742
1.76	-9.5038	-0.1488	-1.4510	-0.0049	-0.0159	0.0110	31.2865	-7.5066	17.3026	0.6285	-0.2100	0.7285	0.1742
1.77	-9.5009	-0.1409	-1.4585	-0.0118	-0.0098	0.0109	31.3276	-7.3343	17.1760	0.6284	-0.2100	0.7284	0.1742
1.78	-9.5027	-0.1330	-1.4491	-0.0020	-0.0087	0.0114	31.2041	-7.5602	17.3141	0.6284	-0.2101	0.7285	0.1742
1.79	-9.5020	-0.1367	-1.4515	-0.0001	-0.0125	0.0093	31.2484	-7.5882	17.2302	0.6284	-0.2101	0.7285	0.1742
1.8	-9.5022	-0.1364	-1.4514	-0.0030	-0.0065	0.0057	31.2217	-7.3240	17.1676	0.6283	-0.2101	0.7285	0.1742
1.81	-9.5032	-0.1227	-1.4489	-0.0019	-0.0129	0.0097	31.2483	-7.5161	17.1283	0.6284	-0.2101	0.7285	0.1742
1.82	-9.5119	-0.1142	-1.4496	-0.0102	-0.0105	0.0045	31.2203	-7.4093	17.0502	0.6283	-0.2101	0.7285	0.1742
1.83	-9.5041	-0.1188	-1.4341	-0.0007	-0.0122	0.0077	31.2793	-7.3805	17.2475	0.6284	-0.2102	0.7285	0.1742
1.84	-9.5042	-0.1256	-1.4300	-0.0050	-0.0130	0.0067	31.4059	-7.3753	17.2880	0.6283	-0.2102	0.7284	0.1742
1.85	-9.5052	-0.1211	-1.4367	-0.0016	-0.0064	0.0006	31.2868	-7.2982	17.1833	0.6284	-0.2102	0.7285	0.1742
1.86	-9.5012	-0.1420	-1.4302	-0.0031	-0.0113	0.0100	31.1901	-7.4210	17.4708	0.6283	-0.2102	0.7285	0.1742
1.87	-9.5037	-0.1442	-1.4209	-0.0003	-0.0148	0.0111	31.3113	-7.3491	17.4151	0.6283	-0.2102	0.7285	0.1742
1.88	-9.5085	-0.1502	-1.4268	-0.0030	-0.0134	0.0106	31.3072	-7.4911	17.0502	0.6283	-0.2102	0.7285	0.1742
1.89	-9.5015	-0.1527	-1.4292	-0.0042	-0.0177	0.0120	31.3470	-7.5513	17.0510	0.6283	-0.2102	0.7284	0.1742
1.9	-9.5032	-0.1472	-1.4332	0.0001	-0.0099	0.0103	31.4177	-7.5464	17.1021	0.6283	-0.2102	0.7285	0.1742
1.91	-9.5005	-0.1577	-1.4323	-0.0060	-0.0072	0.0055	31.3912	-7.5396	16.8885	0.6283	-0.2103	0.7284	0.1742
1.92	-9.5080	-0.1537	-1.4471	-0.0055	-0.0074	0.0074	31.4056	-7.4613	17.0717	0.6283	-0.2103	0.7285	0.1743
1.93	-9.5154	-0.1499	-1.4325	-0.0081	-0.0094	0.0090	31.3825	-7.5761	17.2554	0.6283	-0.2103	0.7285	0.1743
1.94	-9.5096	-0.1534	-1.4433	0.0001	-0.0090	0.0062	31.2013	-7.5207	17.0891	0.6283	-0.2104	0.7285	0.1743
1.95	-9.5020	-0.1484	-1.4476	-0.0006	-0.0104	0.0110	31.4239	-7.6495	17.2152	0.6282	-0.2104	0.7284	0.1742
1.96	-9.5018	-0.1603	-1.4519	-0.0024	-0.0132	0.0057	31.4614	-7.4952	17.1734	0.6282	-0.2104	0.7285	0.1743
1.97	-9.5063	-0.1541	-1.4522	-0.0059	-0.0111	0.0043	31.3818	-7.6055	17.0956	0.6282	-0.2104	0.7285	0.1743
1.98	-9.5022	-0.1604	-1.4516	-0.0041	-0.0086	0.0078	31.3394	-7.3588	17.3975	0.6282	-0.2104	0.7284	0.1742
1.99	-9.5097	-0.1481	-1.4498	-0.0041	-0.0079	0.0058	31.1887	-7.4240	17.4284	0.6283	-0.2105	0.7285	0.1743
2	-9.5029	-0.1532	-1.4499	-0.0031	-0.0069	0.0069	31.2823	-7.2906	17.0977	0.6282	-0.2105	0.7285	0.1742
2.01	-9.5088	-0.1624	-1.4482	-0.0048	-0.0084	0.0061	31.3342	-7.4621	17.3071	0.6282	-0.2105	0.7285	0.1742
2.02	-9.5091	-0.1578	-1.4509	-0.0061	-0.0089	0.0039	31.2275	-7.6768	17.1835	0.6281	-0.2106	0.7285	0.1742
2.03	-9.5014	-0.1541	-1.4412	0.0007	-0.0054	0.0026	31.2263	-7.5075	17.3085	0.6281	-0.2106	0.7285	0.1742
2.04	-9.5019	-0.1387	-1.4457	-0.0033	-0.0131	-0.0039	31.0999	-7.5569	17.0820	0.6281	-0.2107	0.7285	0.1742
2.05	-9.5031	-0.1410	-1.4539	-0.0049	-0.0137	0.0076	31.3117	-7.3347	17.1841	0.6281	-0.2107	0.7285	0.1742
2.06	-9.5095	-0.1544	-1.4442	-0.0033	-0.0132	0.0101	31.3094	-7.4313	17.2778	0.6282	-0.2107	0.7285	0.1742
2.07	-9.5010	-0.1422	-1.4414	-0.0022	-0.0150	0.0071	31.4515	-7.5345	17.1901	0.6281	-0.2107	0.7285	0.1742
2.08	-9.5035	-0.1517	-1.4510	-0.0072	-0.0139	0.0070	31.4472	-7.2380	17.3719	0.6282	-0.2108	0.7285	0.1742
2.09	-9.5034	-0.1512	-1.4464	-0.0085	-0.0203	0.0067	31.2608	-7.4743	17.3553	0.6281	-0.2108	0.7284	0.1742
2.1	-9.5069	-0.1468	-1.4384	-0.0037	-0.0155	0.0086	31.5463	-7.5676	17.5927	0.6282	-0.2108	0.7284	0.1742
2.11	-9.4997	-0.1512	-1.4257	-0.0028	-0.0148	0.0130	31.7898	-7.4934	17.3565	0.6282	-0.2108	0.7284	0.1742
2.12	-9.5020	-0.1527	-1.4244	0.0025	-0.0164	0.0069	31.5634	-7.4128	17.1826	0.6282	-0.2108	0.7284	0.1742
2.13	-9.5016	-0.1537	-1.4225	0.0016	-0.0166	0.0082	31.4187	-7.4216	17.1728	0.6282	-0.2108	0.7284	0.1742
2.14	-9.5092	-0.1459	-1.4317	0.0022	-0.0147	0.0091	31.1308	-7.3313	17.2137	0.6282	-0.2108	0.7284	0.1742
2.15	-9.5074	-0.1478	-1.4197	0.0014	-0.0159	0.0068	31.1853	-7.5439	17.3705	0.6283	-0.2108	0.7284	0.1742
2.16	-9.4967	-0.1432	-1.4294	-0.0021	-0.0162	0.0086	31.4122	-7.5134	17.2737	0.6282	-0.2108	0.7283	0.1742
2.17	-9.5034	-0.1415	-1.4382	-0.0012	-0.0145	0.0154	31.4426	-7.3249	17.2857	0.6283	-0.2108	0.7284	0.1742
2.18	-9.5030	-0.1323	-1.4359	-0.0023	-0.0061	0.0098	31.3251	-7.4926	17.2310	0.6282	-0.2108	0.7284	0.1742
2.19	-9.5044	-0.1356	-1.4455	0.0010	-0.0124	0.0048	31.2252	-7.3495	17.1650	0.6283	-0.2108	0.7284	0.1742
2.2	-9.5090	-0.1318	-1.4413	-0.0009	-0.0093	0.0071	31.3341	-7.2174	17.1826	0.6282	-0.2108	0.7283	0.1742
2.21	-9.5043	-0.1424	-1.4479	-0.0083	-0.0133	0.0048	31.1532	-7.3150	17.1833	0.6282	-0.2108	0.7284	0.1742
2.22	-9.5064	-0.1514	-1.4422	-0.0043	-0.0107	0.0111	31.2985	-7.3893	16.9767	0.6282	-0.2109	0.7284	0.1742
2.23	-9.5091	-0.1554	-1.4461	-0.0043	-0.0132	0.0148	31.2320	-7.5424	17.1778	0.6282	-0.2108	0.7283	0.1742
2.24	-9.5096	-0.1536	-1.4498	0.0012	-0.0166	0.0131	31.2640	-7.3244	17.2715	0.6283	-0.2108	0.7284	0.1742
2.25	-9.5081	-0.1586	-1.4500	0.0042	-0.0145	0.0108	31.1258	-7.3626	17.1722	0.6282	-0.2108	0.7284	0.1742
2.26	-9.5079	-0.1605	-1.4459	-0.0021	-0.0153	0.0153	31.4660	-7.6200	17.3535	0.6283	-0.2108	0.7284	0.1742
2.27	-9.5022	-0.1537	-1.4289	-0.0009	-0.0186	0.0064	31.5861	-7.6701	17.0763	0.6282	-0.2108	0.7283	0.1742
2.28	-9.5034	-0.1495	-1.4393	-0.0019	-0.0212	0.0094	31.4846	-7.4678	17.0150	0.6283	-0.2108	0.7283	0.1743
2.29	-9.5091	-0.1586	-1.4418	0.0026	-0.0073	0.0139	31.3184	-7.2453	17.5032	0.6283	-0.2108	0.7283	0.1742
2.3	-9.5086	-0.1640	-1.4296	-0.0016	-0.0190	0.0127	31.4078	-7.3967	17.2064	0.6283	-0.2108	0.7283	0.1743
2.31	-9.5082	-0.1590	-1.4441	0.0022	-0.0199	0.0078	31.4085	-7.4800	17.0890	0.6283	-0.2108	0.7283	0.1743
2.32	-9.5075	-0.1606	-1.4489	0.0006	-0.0114	0.0120	31.3287	-7.5889	17.2068	0.6283	-0.2108	0.7283	0.1743
2.33	-9.5083	-0.1567	-1.4492	0.0015	-0.0152	0.0050	31.2894	-7.5253	17.0195	0.6284	-0.2108	0.7283	0.1742
2.34	-9.5032	-0.1530	-1.4470	0.0035	-0.0153	0.0127	31.2305	-7.6658	17.3227	0.6283	-0.2107	0.7282	0.1742
2.35	-9.5046	-0.1549	-1.4601	0.0020	-0.0157	0.0111	31.3585	-7.5132	17.1257	0.6284	-0.2108	0.7283	0.1742
2.36	-9.5058	-0.1444	-1.4668	-0.0011	-0.0159	0.0053	31.1811	-7.4805	17.1314	0.6284	-0.2108	0.7282	0.1742
2.37	-9.4999	-0.1420	-1.4646	-0.0020	-0.0080	0.0126	31.1664	-7.4129	17.2043	0.6284	-0.2108	0.7283	0.1742
2.38	-9.5013	-0.1535	-1.4584	-0.0000	-0.0126	0.0134	31.1823	-7.4592	17.2395	0.6284	-0.2107	0.7283	0.1742
2.39	-9.5074	-0.1525	-1.4505	-0.0016	-0.0136	0.0105	31.1386	-7.5174	17.5767	0.6284	-0.2107	0.7283	0.1742
2.4	-9.5026	-0.1548	-1.4619	-0.0028	-0.0168	0.0092	31.2311	-7.3851	17.3786	0.6284	-0.2108	0.7283	0.1742
2.41	-9.5058	-0.1474	-1.4566	-0.0011	-0.0154	0.0066	31.2534	-7.1287	17.0416	0.6284	-0.2107	0.7282	0.1742
2.42	-9.5016	-0.1466	-1.4447	0.0002	-0.0119	0.0055	31.2653	-7.2406	17.3113	0.6284	-0.2108	0.7283	0.1742
2.43	-9.5031	-0.1515	-1.4455	0.0014	-0.0177	0.0135	31.2007	-7.1011	17.2441	0.6284	-0.2107	0.7282	0.1742
2.44	-9.5066	-0.1418	-1.4418	-0.0007	-0.0167	0.0072	31.1955	-7.2514	17.2463	0.6285	-0.2108	0.7283	0.1742
2.45	-9.5015	-0.1455	-1.4244	-0.0031	-0.0121	0.0112	31.4479	-7.5946	16.9546	0.6284	-0.2108	0.7282	0.1742
2.46	-9.5016	-0.1482	-1.4424	0.0009	-0.0148	0.0098	31.5136	-7.7363	17.2152	0.6284	-0.2108	0.7282	0.1742
2.47	-9.5019	-0.1534	-1.4354	0.0029	-0.0136	0.0057	31.4511	-7.3835	17.2612	0.6285	-0.2108	0.7282	0.1742
2.48	-9.5012	-0.1512	-1.4248	-0.0027	-0.0127	0.0067	31.3318	-7.4082	17.0695	0.6284	-0.2108	0.7282	0.1742
2.49	-9.5025	-0.1499	-1.4356	-0.0050	-0.0143	0.0091	31.3268	-7.3639	17.2018	0.6285	-0.2108	0.7282	0.1742
2.5	-9.5024	-0.1501	-1.4289	-0.0037	-0.0105	0.0058	31.3534	-7.3263	17.1893	0.6284	-0.2108	0.7282	0.1742
2.51	-9.5067	-0.1518	-1.4297	0.0001	-0.0162	0.0048	31.2629	-7.4343	17.3775	0.6285	-0.2109	0.7282	0.1742
2.52	-9.5078	-0.1562	-1.4284	-0.0009	-0.0184	0.0130	31.2343	-7.2875	17.2643	0.6284	-0.2108	0.7281	0.1742
2.53	-9.5098	-0.1490	-1.4200	0.0011	-0.0156	0.0106	31.4618	-7.5307	17.2670	0.6285	-0.2108	0.7282	0.1742
2.54	-9.4983	-0.1522	-1.4164	-0.0022	-0.0130	0.0076	31.3664	-7.4092	17.1379	0.6285	-0.2108	0.7281	0.1742
2.55	-9.5028	-0.1514	-1.4214	0.0007	-0.0098	0.0097	31.2508	-7.3830	17.2834	0.6285	-0.2108	0.7281	0.1742
2.56	-9.5016	-0.1494	-1.4199	0.0036	-0.0089	0.0068	31.2482	-7.4078	17.2520	0.6285	-0.2108	0.7282	0.1742
2.57	-9.5062	-0.1666	-1.4223	0.0044	-0.0073	0.0073	31.2514	-7.3725	17.3049	0.6285	-0.2108	0.7282	0.1741
2.58	-9.5060	-0.1560	-1.4215	-0.0001	-0.0079	0.0104	31.2549	-7.4565	17.1791	0.6285	-0.2108	0.7282	0.1741
2.59	-9.5014	-0.1588	-1.4335	-0.0001	-0.0043	0.0045	31.2364	-7.4991	17.2648	0.6284	-0.2108	0.7281	0.1741
2.6	-9.5077	-0.1525	-1.4305	-0.0024	-0.0042	0.0087	31.4499	-7.2551	17.5763	0.6284	-0.2109	0.7283	0.1741
2.61	-9.4989	-0.1553	-1.4339	-0.0012	-0.0070	0.0093	31.6451	-7.3615	17.5467	0.6284	-0.2109	0.7282	0.1741
2.62	-9.5113	-0.1552	-1.4394	-0.0022	-0.0122	0.0158	31.6141	-7.4171	17.4371	0.6284	-0.2109	0.7283	0.1741
2.63	-9.5086	-0.1555	-1.4452	-0.0014	-0.0177	0.0109	31.5195	-7.4876	17.2864	0.6284	-0.2109	0.7282	0.1741
2.64	-9.5048	-0.1542	-1.4398	0.0008	-0.0146	0.0116	31.4448	-7.4836	17.2178	0.6284	-0.2109	0.7282	0.1741
2.65	-9.5124	-0.1533	-1.4489	0.0032	-0.0104	0.0106	31.3735	-7.4943	17.2687	0.6284	-0.2109	0.7283	0.1741
2.66	-9.5028	-0.1602	-1.4551	-0.0031	-0.0096	0.0050	31.4050	-7.6510	17.3191	0.6283	-0.2109	0.7282	0.1741
2.67	-9.5065	-0.1522	-1.4549	0.0020	-0.0095	0.0071	31.1541	-7.5037	17.2900	0.6284	-0.2109	0.7283	0.1741
2.68	-9.5017	-0.1494	-1.4552	0.0031	-0.0074	0.0077	31.3030	-7.4709	17.4432	0.6284	-0.2109	0.7283	0.1740
2.69	-9.5060	-0.1526	-1.4539	-0.0048	-0.0123	0.0138	31.1805	-7.6128	17.2520	0.6284	-0.2109	0.7283	0.1741
2.7	-9.5046	-0.1466	-1.4538	0.0016	-0.0149	0.0077	31.1057	-7.3228	17.0779	0.6283	-0.2109	0.7282	0.1740
2.71	-9.5079	-0.1422	-1.4488	0.0044	-0.0133	0.0096	31.3873	-7.4470	17.1650	0.6284	-0.2109	0.7283	0.1740
2.72	-9.5068	-0.1450	-1.4501	0.0014	-0.0127	0.0059	31.3410	-7.5636	17.2258	0.6284	-0.2109	0.7283	0.1740
2.73	-9.5058	-0.1408	-1.4583	-0.0048	-0.0123	0.0040	31.2092	-7.5523	17.2030	0.6284	-0.2109	0.7282	0.1740
2.74	-9.4989	-0.1453	-1.4468	-0.0002	-0.0134	0.0097	31.2220	-7.4283	17.3015	0.6285	-0.2109	0.7283	0.1740
2.75	-9.5066	-0.1359	-1.4413	-0.0022	-0.0154	0.0131	31.3391	-7.2652	17.1729	0.6284	-0.2109	0.7282	0.1740
2.76	-9.5102	-0.1394	-1.4476	-0.0039	-0.0155	0.0072	31.2243	-7.4993	17.2321	0.6285	-0.2109	0.7283	0.1740
2.77	-9.4984	-0.1367	-1.4329	-0.0107	-0.0186	0.0048	31.2227	-7.3593	17.1719	0.6284	-0.2110	0.7281	0.1740
2.78	-9.4973	-0.1425	-1.4393	-0.0058	-0.0110	0.0060	31.0961	-7.3975	17.4719	0.6284	-0.2110	0.7282	0.1740
2.79	-9.5023	-0.1472	-1.4392	0.0028	-0.0066	0.0043	31.1934	-7.5099	17.3958	0.6284	-0.2110	0.7282	0.1740
2.8	-9.5025	-0.1442	-1.4306	-0.0018	-0.0166	0.0100	31.2224	-7.3590	17.1585	0.6284	-0.2110	0.7282	0.1740
2.81	-9.5014	-0.1502	-1.4287	0.0002	-0.0170	0.0080	31.2225	-7.4046	17.3379	0.6285	-0.2110	0.7282	0.1740
2.82	-9.4954	-0.1500	-1.4255	-0.0039	-0.0146	0.0121	31.3133	-7.5716	17.2485	0.6284	-0.2110	0.7282	0.1740
2.83	-9.5001	-0.1544	-1.4301	0.0025	-0.0101	0.0076	31.3190	-7.5434	17.2054	0.6285	-0.2110	0.7282	0.1740
2.84	-9.5060	-0.1477	-1.4306	-0.0061	-0.0141	0.0071	31.5634	-7.4649	17.2170	0.6284	-0.2110	0.7281	0.1740
2.85	-9.4998	-0.1509	-1.4356	-0.0029	-0.0115	0.0072	31.4348	-7.2496	17.1076	0.6285	-0.2111	0.7282	0.1740
2.86	-9.5055	-0.1498	-1.4431	-0.0035	-0.0131	0.0060	31.1801	-7.4768	17.2770	0.6284	-0.2111	0.7281	0.1740
2.87	-9.5032	-0.1513	-1.4462	-0.0024	-0.0144	0.0060	31.1057	-7.4079	17.3160	0.6285	-0.2111	0.7282	0.1740
2.88	-9.5039	-0.1410	-1.4408	-0.0039	-0.0144	0.0038	31.2420	-7.2607	17.1771	0.6285	-0.2111	0.7281	0.1740
2.89	-9.5056	-0.1516	-1.4396	-0.0045	-0.0131	0.0041	31.1999	-7.5790	17.1234	0.6285	-0.2112	0.7281	0.1740
2.9	-9.5008	-0.1536	-1.4391	-0.0064	-0.0131	0.0103	31.0859	-7.6086	17.2874	0.6285	-0.2112	0.7281	0.1740
2.91	-9.5024	-0.1513	-1.4352	-0.0082	-0.0148	0.0030	31.3040	-7.4431	17.3662	0.6284	-0.2112	0.7280	0.1740
2.92	-9.5067	-0.1552	-1.4316	-0.0105	-0.0154	0.0045	31.2849	-7.3723	17.5088	0.6285	-0.2113	0.7281	0.1740
2.93	-9.5103	-0.1521	-1.4257	-0.0003	-0.0134	0.0107	31.0389	-7.3877	17.2576	0.6285	-0.2113	0.7281	0.1740
2.94	-9.4973	-0.1619	-1.4287	-0.0042	-0.0185	0.0032	31.1190	-7.3684	17.1730	0.6286	-0.2113	0.7281	0.1740
2.95	-9.4917	-0.1506	-1.4316	-0.0005	-0.0190	0.0064	31.2282	-7.4738	17.3123	0.6285	-0.2113	0.7280	0.1740
2.96	-9.5005	-0.1581	-1.4332	-0.0020	-0.0198	0.0041	31.2115	-7.3418	17.1729	0.6286	-0.2114	0.7280	0.1740
2.97	-9.5004	-0.1538	-1.4300	-0.0075	-0.0136	0.0092	31.2265	-7.4271	17.4194	0.6286	-0.2114	0.7280	0.1740
2.98	-9.4940	-0.1454	-1.4303	-0.0041	-0.0078	0.0017	31.1480	-7.2442	17.2170	0.6285	-0.2114	0.7279	0.1740
2.99	-9.5064	-0.1453	-1.4335	-0.0085	-0.0122	0.0092	31.1221	-7.6385	17.0957	0.6286	-0.2115	0.7280	0.1740
3	-9.5096	-0.1552	-1.4204	-0.0066	-0.0116	0.0129	31.3181	-7.7972	17.1631	0.6285	-0.2115	0.7280	0.1741
3.01	-9.5023	-0.1554	-1.4475	-0.0008	-0.0178	0.0103	31.4116	-7.4363	17.2953	0.6286	-0.2115	0.7280	0.1741
3.02	-9.5009	-0.1496	-1.4450	0.0046	-0.0127	0.0093	31.2854	-7.4616	17.2986	0.6285	-0.2114	0.7279	0.1740
3.03	-9.5037	-0.1531	-1.4434	-0.0000	-0.0164	0.0076	31.2892	-7.5737	17.2997	0.6286	-0.2115	0.7279	0.1740
3.04	-9.5001	-0.1496	-1.4377	-0.0046	-0.0093	0.0106	31.1764	-7.4958	17.2942	0.6286	-0.2115	0.7279	0.1741
3.05	-9.5007	-0.1458	-1.4315	-0.0054	-0.0159	0.0072	31.2951	-7.7211	17.3088	0.6286	-0.2115	0.7279	0.1741
3.06	-9.5058	-0.1552	-1.4408	-0.0046	-0.0169	0.0063	31.3877	-7.5183	17.2924	0.6286	-0.2115	0.7279	0.1741
3.07	-9.5021	-0.1511	-1.4373	0.0027	-0.0138	0.0054	31.2527	-7.3232	17.3112	0.6286	-0.2115	0.7279	0.1740
3.08	-9.5030	-0.1490	-1.4432	-0.0039	-0.0124	0.0070	31.3738	-7.4403	17.2392	0.6286	-0.2116	0.7279	0.1741
3.09	-9.5028	-0.1578	-1.4423	0.0024	-0.0141	0.0023	31.3666	-7.5601	17.1755	0.6286	-0.2116	0.7278	0.1740
3.1	-9.5057	-0.1512	-1.4509	-0.0023	-0.0175	0.0062	31.5824	-7.2182	17.5651	0.6287	-0.2116	0.7279	0.1740
3.11	-9.5015	-0.1447	-1.4490	-0.0028	-0.0132	0.0087	31.7450	-7.0672	17.6781	0.6286	-0.2116	0.7278	0.1740
3.12	-9.5030	-0.1538	-1.4500	0.0000	-0.0128	0.0087	31.5436	-7.2397	17.5815	0.6287	-0.2116	0.7279	0.1740
3.13	-9.5074	-0.1499	-1.4501	-0.0038	-0.0143	0.0121	31.1987	-7.4218	17.4295	0.6286	-0.2116	0.7278	0.1740
3.14	-9.5049	-0.1519	-1.4559	-0.0026	-0.0120	0.0127	31.1142	-7.4552	17.3486	0.6286	-0.2116	0.7278	0.1740
3.15	-9.5012	-0.1514	-1.4559	-0.0000	-0.0079	0.0144	31.1519	-7.5213	17.3571	0.6286	-0.2116	0.7279	0.1740
3.16	-9.4993	-0.1543	-1.4558	-0.0007	-0.0058	0.0130	31.0633	-7.3917	17.2591	0.6286	-0.2115	0.7278	0.1740
3.17	-9.5071	-0.1518	-1.4577	0.0016	-0.0124	0.0089	31.4569	-7.3922	17.1406	0.6286	-0.2116	0.7279	0.1740
3.18	-9.5026	-0.1522	-1.4487	-0.0023	-0.0202	0.0164	31.3533	-7.3979	17.2070	0.6286	-0.2115	0.7279	0.1740
3.19	-9.5132	-0.1462	-1.4502	-0.0017	-0.0128	0.0118	31.2445	-7.3836	17.3024	0.6287	-0.2116	0.7279	0.1741
3.2	-9.4981	-0.1504	-1.4453	-0.0012	-0.0144	0.0073	31.2840	-7.4835	17.0485	0.6286	-0.2115	0.7278	0.1740
3.21	-9.5070	-0.1550	-1.4417	0.0026	-0.0128	0.0108	31.5109	-7.5773	17.0031	0.6286	-0.2115	0.7279	0.1740
3.22	-9.5060	-0.1423	-1.4413	-0.0020	-0.0148	0.0114	31.4786	-7.3645	17.1394	0.6286	-0.2115	0.7279	0.1740
3.23	-9.5087	-0.1435	-1.4377	-0.0012	-0.0130	0.0143	31.4251	-7.4845	16.9620	0.6286	-0.2115	0.7278	0.1741
3.24	-9.5073	-0.1420	-1.4368	-0.0019	-0.0144	0.0188	31.3654	-7.4544	17.1285	0.6287	-0.2115	0.7279	0.1741
3.25	-9.5007	-0.1390	-1.4404	0.0049	-0.0098	0.0079	31.3469	-7.5321	17.1590	0.6286	-0.2115	0.7279	0.1741
3.26	-9.5048	-0.1520	-1.4279	-0.0005	-0.0154	0.0122	31.3783	-7.5150	17.2455	0.6287	-0.2115	0.7279	0.1741
3.27	-9.4939	-0.1393	-1.4295	-0.0011	-0.0164	0.0126	31.2596	-7.4500	17.2501	0.6286	-0.2115	0.7278	0.1741
3.28	-9.5010	-0.1464	-1.4292	0.0019	-0.0148	0.0076	31.2896	-7.6056	17.2859	0.6287	-0.2115	0.7278	0.1741
3.29	-9.4981	-0.1537	-1.4274	0.0004	-0.0109	0.0045	31.3882	-7.5044	17.5205	0.6287	-0.2115	0.7278	0.1741
3.3	-9.5069	-0.1467	-1.4364	-0.0018	-0.0044	0.0049	31.2667	-7.4147	17.2447	0.6286	-0.2115	0.7278	0.1740
3.31	-9.4983	-0.1524	-1.4392	-0.0041	-0.0073	0.0063	31.2790	-7.2831	17.2509	0.6286	-0.2116	0.7279	0.1740
3.32	-9.5061	-0.1506	-1.4435	0.0010	-0.0051	0.0084	31.3848	-7.3522	17.2559	0.6286	-0.2116	0.7279	0.1740
3.33	-9.5015	-0.1518	-1.4398	0.0043	-0.0108	0.0121	31.3057	-7.4106	17.2530	0.6286	-0.2116	0.7279	0.1740
3.34	-9.4974	-0.1481	-1.4303	-0.0059	-0.0105	0.0093	31.1732	-7.3910	17.2479	0.6285	-0.2116	0.7278	0.1740
3.35	-9.5037	-0.1525	-1.4458	-0.0029	-0.0097	0.0087	31.3068	-7.3973	17.3610	0.6286	-0.2116	0.7279	0.1740
3.36	-9.5035	-0.1505	-1.4488	-0.0022	-0.0072	0.0075	31.2259	-7.4003	17.1629	0.6286	-0.2116	0.7279	0.1740
3.37	-9.5039	-0.1564	-1.4354	0.0004	-0.0126	0.0120	31.1835	-7.3835	17.2171	0.6286	-0.2116	0.7279	0.1740
3.38	-9.4945	-0.1542	-1.4316	0.0013	-0.0132	0.0117	31.1889	-7.4950	17.3787	0.6285	-0.2116	0.7279	0.1740
3.39	-9.5029	-0.1500	-1.4426	0.0049	-0.0065	0.0084	31.4403	-7.5745	17.1812	0.6285	-0.2116	0.7279	0.1740
3.4	-9.5043	-0.1531	-1.4489	0.0056	-0.0122	0.0092	31.5646	-7.5467	17.2278	0.6286	-0.2116	0.7280	0.1740
3.41	-9.5054	-0.1607	-1.4484	-0.0003	-0.0132	0.0095	31.4103	-7.5548	17.2880	0.6285	-0.2116	0.7279	0.1739
3.42	-9.4994	-0.1496	-1.4479	-0.0002	-0.0162	0.0087	31.4649	-7.6593	17.1405	0.6286	-0.2116	0.7280	0.1740
3.43	-9.5000	-0.1525	-1.4493	0.0043	-0.0191	0.0110	31.5200	-7.4634	17.2201	0.6286	-0.2116	0.7279	0.1739
3.44	-9.5069	-0.1484	-1.4590	-0.0001	-0.0141	0.0112	31.3289	-7.3312	17.2890	0.6287	-0.2116	0.7280	0.1740
3.45	-9.5034	-0.1501	-1.4489	-0.0021	-0.0148	0.0108	31.3931	-7.6105	17.1395	0.6286	-0.2116	0.7278	0.1739
3.46	-9.5093	-0.1542	-1.4539	-0.0022	-0.0138	0.0079	31.1860	-7.4993	17.3286	0.6286	-0.2116	0.7279	0.1740
3.47	-9.5083	-0.1503	-1.4509	-0.0016	-0.0104	0.0110	31.2895	-7.3608	17.2940	0.6286	-0.2116	0.7279	0.1740
3.48	-9.5059	-0.1523	-1.4468	-0.0052	-0.0109	0.0125	31.3967	-7.4037	17.2283	0.6286	-0.2116	0.7278	0.1740
3.49	-9.5016	-0.1479	-1.4444	-0.0019	-0.0065	0.0058	31.1520	-7.4881	17.3675	0.6286	-0.2117	0.7280	0.1740
3.5	-9.5044	-0.1454	-1.4508	-0.0017	-0.0157	0.0080	31.3358	-7.3356	17.3276	0.6286	-0.2116	0.7279	0.1740
3.51	-9.5043	-0.1489	-1.4489	-0.0019	-0.0114	0.0078	31.1727	-7.3175	17.3453	0.6286	-0.2117	0.7279	0.1740
3.52	-9.5011	-0.1512	-1.4558	-0.0016	-0.0121	0.0108	31.2798	-7.2267	17.3285	0.6285	-0.2116	0.7278	0.1739
3.53	-9.5020	-0.1459	-1.4381	-0.0015	-0.0136	0.0120	31.2622	-7.4421	17.3462	0.6286	-0.2117	0.7279	0.1740
3.54	-9.5025	-0.1527	-1.4424	0.0002	-0.0188	0.0120	31.2986	-7.3469	17.1741	0.6286	-0.2116	0.7279	0.1740
3.55	-9.4944	-0.1580	-1.4213	-0.0041	-0.0182	0.0119	31.1835	-7.5550	17.4580	0.6286	-0.2116	0.7278	0.1740
3.56	-9.5073	-0.1567	-1.4175	-0.0070	-0.0153	0.0100	31.2835	-7.5718	17.3119	0.6286	-0.2117	0.7278	0.1740
3.57	-9.5037	-0.1507	-1.4351	-0.0076	-0.0123	0.0140	31.3908	-7.4220	17.0134	0.6286	-0.2117	0.7278	0.1741
3.58	-9.4991	-0.1505	-1.4380	0.0002	-0.0146	0.0134	31.3313	-7.3706	17.1210	0.6287	-0.2117	0.7278	0.1741
3.59	-9.5027	-0.1503	-1.4452	-0.0004	-0.0119	0.0052	31.4417	-7.4762	17.0317	0.6286	-0.2117	0.7278	0.1741
3.6	-9.5010	-0.1492	-1.4432	-0.0006	-0.0088	0.0127	31.6236	-7.5696	17.4682	0.6286	-0.2117	0.7279	0.1741
3.61	-9.5043	-0.1457	-1.4331	-0.0006	-0.0180	0.0149	31.8642	-7.3906	17.3591	0.6286	-0.2117	0.7278	0.1741
3.62	-9.5050	-0.1533	-1.4482	-0.0021	-0.0130	0.0052	31.6961	-7.3685	17.4278	0.6287	-0.2117	0.7278	0.1741
3.63	-9.5061	-0.1523	-1.4422	-0.0033	-0.0184	0.0062	31.4749	-7.3799	17.3607	0.6286	-0.2117	0.7278	0.1741
3.64	-9.5133	-0.1490	-1.4496	-0.0102	-0.0134	0.0060	31.1997	-7.5726	17.0711	0.6287	-0.2117	0.7278	0.1741
3.65	-9.4971	-0.1614	-1.4248	-0.0039	-0.0146	0.0084	31.2010	-7.4806	17.1959	0.6287	-0.2118	0.7278	0.1741
3.66	-9.5168	-0.1615	-1.4425	-0.0028	-0.0103	0.0133	31.1555	-7.4781	17.2104	0.6286	-0.2117	0.7277	0.1741
3.67	-9.5151	-0.1516	-1.4468	-0.0108	-0.0096	0.0066	31.1174	-7.4141	17.0889	0.6287	-0.2118	0.7278	0.1741
3.68	-9.4954	-0.1540	-1.4392	-0.0128	-0.0094	0.0048	31.2877	-7.3048	17.1391	0.6286	-0.2118	0.7277	0.1742
3.69	-9.4983	-0.1556	-1.4298	-0.0047	-0.0072	0.0034	31.0563	-7.4029	17.2983	0.6287	-0.2119	0.7278	0.1742
3.7	-9.5147	-0.1577	-1.4447	-0.0054	-0.0057	0.0053	31.0472	-7.3913	17.1916	0.6286	-0.2119	0.7277	0.1741
3.71	-9.5033	-0.1548	-1.4395	-0.0111	-0.0041	0.0057	31.2625	-7.4404	17.2036	0.6286	-0.2120	0.7278	0.1742
3.72	-9.5057	-0.1465	-1.4385	-0.0053	-0.0135	0.0057	31.1593	-7.5793	17.3719	0.6286	-0.2120	0.7278	0.1742
3.73	-9.5002	-0.1504	-1.4457	-0.0046	-0.0074	0.0039	31.0510	-7.5915	17.0735	0.6285	-0.2120	0.7277	0.1741
3.74	-9.4988	-0.1470	-1.4297	-0.0032	-0.0107	0.0048	31.0580	-7.3455	17.2562	0.6286	-0.2121	0.7278	0.1741
3.75	-9.5057	-0.1506	-1.4297	-0.0030	-0.0133	0.0058	31.1616	-7.6370	17.5128	0.6285	-0.2121	0.7278	0.1741
3.76	-9.5024	-0.1604	-1.4508	0.0017	-0.0151	0.0039	31.3110	-7.4331	17.2556	0.6286	-0.2121	0.7278	0.1741
3.77	-9.5036	-0.1507	-1.4450	-0.0004	-0.0075	0.0056	31.5739	-7.4807	17.3232	0.6285	-0.2121	0.7277	0.1741
3.78	-9.5049	-0.1507	-1.4502	0.0005	-0.0090	0.0087	31.3870	-7.4175	17.2638	0.6285	-0.2121	0.7278	0.1741
3.79	-9.5095	-0.1559	-1.4445	-0.0026	-0.0100	0.0087	31.2515	-7.5453	17.1734	0.6285	-0.2122	0.7278	0.1741
3.8	-9.5124	-0.1600	-1.4539	-0.0024	-0.0133	0.0073	31.3808	-7.4587	17.2893	0.6285	-0.2122	0.7277	0.1741
3.81	-9.4982	-0.1574	-1.4462	-0.0021	-0.0112	0.0080	31.2831	-7.4780	17.2958	0.6285	-0.2122	0.7278	0.1741
3.82	-9.5038	-0.1540	-1.4486	-0.0029	-0.0134	0.0041	31.5297	-7.5207	17.4241	0.6285	-0.2122	0.7277	0.1741
3.83	-9.5034	-0.1519	-1.4487	-0.0111	-0.0130	0.0092	31.4973	-7.4443	17.3171	0.6285	-0.2123	0.7278	0.1741
3.84	-9.5037	-0.1601	-1.4454	0.0015	-0.0145	0.0049	31.3527	-7.3759	17.2067	0.6285	-0.2123	0.7277	0.1741
3.85	-9.5014	-0.1540	-1.4527	-0.0018	-0.0070	0.0018	31.2049	-7.4922	17.1818	0.6285	-0.2123	0.7278	0.1740
3.86	-9.5030	-0.1470	-1.4460	-0.0038	-0.0098	0.0049	31.0503	-7.5453	17.2449	0.6285	-0.2123	0.7277	0.1740
3.87	-9.5087	-0.1532	-1.4491	-0.0012	-0.0085	0.0059	31.3819	-7.3599	17.0831	0.6285	-0.2124	0.7278	0.1740
3.88	-9.5016	-0.1501	-1.4415	-0.0063	-0.0061	0.0123	31.2827	-7.3003	17.2492	0.6285	-0.2124	0.7277	0.1740
3.89	-9.5084	-0.1577	-1.4343	-0.0045	-0.0051	0.0018	30.8662	-7.5244	17.3441	0.6285	-0.2124	0.7278	0.1740
3.9	-9.5073	-0.1492	-1.4345	-0.0052	-0.0071	0.0073	31.0863	-7.3860	17.1406	0.6284	-0.2125	0.7278	0.1740
3.91	-9.5019	-0.1507	-1.4357	-0.0060	-0.0077	0.0023	31.3051	-7.4300	17.2339	0.6284	-0.2125	0.7277	0.1740
3.92	-9.5059	-0.1474	-1.4417	-0.0101	-0.0094	0.0055	31.2823	-7.5969	17.0945	0.6284	-0.2126	0.7278	0.1740
3.93	-9.5053	-0.1365	-1.4386	-0.0073	-0.0111	0.0133	31.0634	-7.3181	17.2566	0.6284	-0.2126	0.7278	0.1740
3.94	-9.4984	-0.1486	-1.4423	-0.0078	-0.0098	0.0122	31.2587	-7.3890	17.0986	0.6284	-0.2126	0.7278	0.1741
3.95	-9.4995	-0.1386	-1.4428	-0.0068	-0.0086	0.0087	31.4902	-7.6599	17.2187	0.6283	-0.2126	0.7277	0.1741
3.96	-9.5123	-0.1499	-1.4532	-0.0066	-0.0104	0.0054	31.4135	-7.6058	17.2150	0.6283	-0.2127	0.7278	0.1741
3.97	-9.5038	-0.1496	-1.4467	-0.0067	-0.0132	0.0040	31.3787	-7.6187	17.2018	0.6283	-0.2127	0.7278	0.1741
3.98	-9.5021	-0.1513	-1.4496	0.0028	-0.0157	0.0095	31.3042	-7.3511	17.2146	0.6283	-0.2127	0.7277	0.1741
3.99	-9.5009	-0.1558	-1.4463	-0.0039	-0.0077	0.0133	31.2079	-7.4882	17.1806	0.6284	-0.2127	0.7278	0.1741
4	-9.4980	-0.1437	-1.4417	-0.0066	-0.0112	0.0039	31.0764	-7.5657	17.1157	0.6283	-0.2127	0.7277	0.1741
4.01	-9.5068	-0.1450	-1.4463	-0.0034	-0.0099	0.0083	31.2878	-7.5307	17.3030	0.6284	-0.2128	0.7278	0.1741
4.02	-9.5040	-0.1481	-1.4287	-0.0055	-0.0130	0.0070	31.2094	-7.5517	17.2939	0.6283	-0.2128	0.7277	0.1741
4.03	-9.5012	-0.1552	-1.4206	0.0006	-0.0151	0.0116	31.1325	-7.6383	17.1736	0.6283	-0.2128	0.7278	0.1741
4.04	-9.5058	-0.1510	-1.4391	-0.0034	-0.0081	0.0112	31.2431	-7.4658	17.2578	0.6283	-0.2128	0.7278	0.1741
4.05	-9.5024	-0.1519	-1.4390	-0.0031	-0.0086	0.0062	31.2020	-7.4628	17.3100	0.6283	-0.2128	0.7277	0.1741
4.06	-9.5004	-0.1517	-1.4301	0.0000	-0.0085	0.0084	31.1313	-7.4587	17.2674	0.6283	-0.2128	0.7278	0.1741
4.07	-9.5083	-0.1476	-1.4476	-0.0064	-0.0071	0.0049	31.0101	-7.4774	17.3202	0.6283	-0.2129	0.7278	0.1741
4.08	-9.5017	-0.1591	-1.4358	-0.0038	-0.0056	0.0015	31.1117	-7.4397	17.4116	0.6283	-0.2129	0.7278	0.1741
4.09	-9.5044	-0.1570	-1.4411	-0.0002	-0.0061	0.0106	31.1950	-7.5670	17.2697	0.6282	-0.2129	0.7277	0.1741
4.1	-9.5089	-0.1380	-1.4514	-0.0046	-0.0024	0.0043	31.4305	-7.4063	17.4180	0.6282	-0.2130	0.7279	0.1741
4.11	-9.5042	-0.1501	-1.4495	-0.0071	-0.0081	0.0017	31.5706	-7.4002	17.4913	0.6282	-0.2130	0.7278	0.1740
4.12	-9.5006	-0.1532	-1.4323	-0.0006	-0.0126	0.0082	31.4516	-7.4867	17.4450	0.6282	-0.2130	0.7278	0.1740
4.13	-9.5030	-0.1430	-1.4458	0.0035	-0.0158	0.0120	31.4579	-7.5157	17.5488	0.6282	-0.2130	0.7278	0.1740
4.14	-9.5131	-0.1511	-1.4535	-0.0002	-0.0166	0.0116	31.3081	-7.5009	17.4106	0.6282	-0.2130	0.7278	0.1740
4.15	-9.5079	-0.1526	-1.4494	0.0014	-0.0111	0.0072	31.2949	-7.5274	17.3295	0.6282	-0.2130	0.7278	0.1740
4.16	-9.4988	-0.1581	-1.4550	0.0048	-0.0116	0.0122	31.4331	-7.6667	17.3618	0.6282	-0.2130	0.7278	0.1740
4.17	-9.5122	-0.1526	-1.4468	0.0043	-0.0129	0.0101	31.4903	-7.6305	17.3508	0.6282	-0.2130	0.7279	0.1740
4.18	-9.5093	-0.1484	-1.4450	0.0007	-0.0127	0.0113	31.3903	-7.4005	17.3498	0.6282	-0.2130	0.7278	0.1740
4.19	-9.4974	-0.1528	-1.4453	0.0064	-0.0170	0.0114	31.4401	-7.6545	17.3260	0.6283	-0.2130	0.7279	0.1740
4.2	-9.5043	-0.1504	-1.4368	-0.0006	-0.0167	0.0104	31.3329	-7.5667	17.0269	0.6282	-0.2129	0.7278	0.1740
4.21	-9.5066	-0.1571	-1.4368	0.0021	-0.0136	0.0122	31.3363	-7.4562	17.2789	0.6283	-0.2129	0.7278	0.1740
4.22	-9.5094	-0.1517	-1.4459	0.0004	-0.0110	0.0114	31.1750	-7.3399	17.3093	0.6283	-0.2129	0.7278	0.1740
4.23	-9.5120	-0.1472	-1.4421	0.0017	-0.0128	0.0094	31.1829	-7.3244	17.2193	0.6282	-0.2129	0.7278	0.1740
4.24	-9.5102	-0.1510	-1.4428	-0.0019	-0.0174	0.0054	31.1587	-7.2243	17.3585	0.6283	-0.2129	0.7278	0.1740
4.25	-9.5011	-0.1508	-1.4421	-0.0011	-0.0080	0.0042	31.2168	-7.4006	17.2043	0.6283	-0.2130	0.7278	0.1739
4.26	-9.5012	-0.1523	-1.4406	-0.0015	-0.0101	0.0060	31.2717	-7.3505	17.3302	0.6283	-0.2130	0.7278	0.1739
4.27	-9.5110	-0.1481	-1.4539	0.0004	-0.0112	0.0067	31.2451	-7.2994	17.3640	0.6282	-0.2130	0.7277	0.1739
4.28	-9.5084	-0.1430	-1.4493	0.0087	-0.0182	0.0088	31.2560	-7.4460	17.1882	0.6283	-0.2130	0.7278	0.1739
4.29	-9.5020	-0.1335	-1.4368	0.0031	-0.0091	0.0025	31.1268	-7.3512	17.2111	0.6283	-0.2130	0.7278	0.1738
4.3	-9.5023	-0.1317	-1.4428	-0.0045	-0.0135	0.0092	31.2759	-7.2955	17.2615	0.6283	-0.2130	0.7278	0.1738
4.31	-9.5060	-0.1370	-1.4547	0.0024	-0.0163	0.0123	31.2269	-7.4356	17.2698	0.6283	-0.2130	0.7278	0.1739
4.32	-9.5037	-0.1377	-1.4291	0.0079	-0.0163	0.0134	31.4422	-7.3651	17.0799	0.6283	-0.2129	0.7278	0.1738
4.33	-9.5090	-0.1397	-1.4343	-0.0004	-0.0208	0.0055	31.2926	-7.4827	17.1900	0.6284	-0.2130	0.7278	0.1738
4.34	-9.5050	-0.1471	-1.4468	-0.0021	-0.0137	0.0079	31.3054	-7.4710	17.3682	0.6283	-0.2129	0.7277	0.1738
4.35	-9.5032	-0.1552	-1.4467	0.0033	-0.0124	0.0124	31.4469	-7.5211	17.3528	0.6284	-0.2130	0.7278	0.1738
4.36	-9.5014	-0.1545	-1.4616	-0.0022	-0.0184	0.0087	31.2658	-7.5389	17.3093	0.6284	-0.2129	0.7277	0.1738
4.37	-9.4988	-0.1487	-1.4648	0.0007	-0.0139	0.0113	31.4579	-7.4646	17.2286	0.6284	-0.2130	0.7277	0.1738
4.38	-9.5049	-0.1540	-1.4688	0.0055	-0.0166	0.0132	31.2892	-7.4880	17.3649	0.6284	-0.2129	0.7277	0.1738
4.39	-9.5014	-0.1565	-1.4648	-0.0012	-0.0140	0.0114	31.4025	-7.3855	17.3459	0.6284	-0.2129	0.7277	0.1738
4.4	-9.5028	-0.1551	-1.4664	-0.0009	-0.0097	0.0097	31.3300	-7.3918	17.5071	0.6284	-0.2129	0.7277	0.1738
4.41	-9.5023	-0.1519	-1.4688	0.0031	-0.0121	0.0087	31.1443	-7.4950	17.2198	0.6284	-0.2129	0.7276	0.1738
4.42	-9.4999	-0.1430	-1.4584	0.0023	-0.0080	0.0070	31.1912	-7.4702	17.3001	0.6284	-0.2129	0.7278	0.1738
4.43	-9.5025	-0.1494	-1.4297	0.0022	-0.0083	0.0030	31.1822	-7.4045	17.1620	0.6284	-0.2129	0.7277	0.1737
4.44	-9.5026	-0.1473	-1.4327	-0.0048	-0.0181	0.0094	31.3705	-7.5881	17.3052	0.6285	-0.2130	0.7278	0.1738
4.45	-9.5019	-0.1450	-1.4256	0.0011	-0.0170	0.0124	31.2197	-7.4917	17.4468	0.6284	-0.2129	0.7276	0.1738
4.46	-9.5022	-0.1450	-1.4205	0.0022	-0.0134	0.0100	31.4016	-7.3439	17.3361	0.6285	-0.2129	0.7277	0.1738
4.47	-9.5027	-0.1427	-1.4140	-0.0013	-0.0169	0.0037	31.3723	-7.3532	17.2908	0.6285	-0.2129	0.7277	0.1737
4.48	-9.4972	-0.1390	-1.4120	-0.0001	-0.0166	0.0034	31.3247	-7.4403	17.2540	0.6285	-0.2129	0.7276	0.1737
4.49	-9.5027	-0.1374	-1.3978	0.0036	-0.0095	0.0115	31.2555	-7.2770	17.2327	0.6285	-0.2130	0.7277	0.1737
4.5	-9.5034	-0.1463	-1.3965	0.0048	-0.0148	0.0125	31.1459	-7.5153	17.0380	0.6285	-0.2129	0.7276	0.1737
4.51	-9.5071	-0.1348	-1.4043	-0.0020	-0.0142	0.0111	31.4477	-7.5930	17.1258	0.6285	-0.2129	0.7277	0.1737
4.52	-9.5140	-0.1430	-1.4028	0.0009	-0.0171	0.0099	31.3104	-7.4769	17.4008	0.6285	-0.2129	0.7276	0.1737
4.53	-9.5089	-0.1504	-1.3997	0.0012	-0.0097	0.0072	31.2752	-7.5840	17.2563	0.6285	-0.2129	0.7277	0.1737
4.54	-9.5025	-0.1473	-1.4051	0.0052	-0.0127	0.0117	31.3330	-7.5704	17.2415	0.6285	-0.2129	0.7276	0.1737
4.55	-9.5018	-0.1530	-1.4070	0.0012	-0.0197	0.0091	31.1553	-7.5505	17.3978	0.6285	-0.2129	0.7276	0.1737
4.56	-9.5023	-0.1439	-1.4204	0.0043	-0.0147	0.0127	31.1757	-7.6970	17.2423	0.6286	-0.2129	0.7276	0.1737
4.57	-9.5021	-0.1630	-1.4326	0.0059	-0.0094	0.0143	31.4461	-7.4425	17.1077	0.6286	-0.2128	0.7276	0.1737
4.58	-9.5020	-0.1705	-1.4438	0.0037	-0.0144	0.0128	31.3012	-7.2616	17.3639	0.6286	-0.2128	0.7277	0.1737
4.59	-9.5009	-0.1766	-1.4463	0.0023	-0.0109	0.0131	31.2070	-7.4222	17.4572	0.6285	-0.2128	0.7276	0.1736
4.6	-9.5015	-0.1730	-1.4576	0.0014	-0.0117	0.0049	31.5750	-7.4990	17.4374	0.6286	-0.2128	0.7277	0.1736
4.61	-9.5029	-0.1596	-1.4593	-0.0031	-0.0060	0.0098	31.8558	-7.4337	17.4061	0.6285	-0.2128	0.7277	0.1736
4.62	-9.5051	-0.1631	-1.4653	-0.0007	-0.0020	0.0071	31.6632	-7.3496	17.3318	0.6285	-0.2128	0.7277	0.1736
4.63	-9.5038	-0.1630	-1.4689	-0.0035	-0.0077	0.0056	31.3646	-7.1247	17.3652	0.6285	-0.2129	0.7277	0.1736
4.64	-9.5127	-0.1542	-1.4684	0.0023	-0.0098	0.0086	31.2648	-7.3524	17.1694	0.6285	-0.2129	0.7277	0.1736
4.65	-9.5011	-0.1497	-1.4618	-0.0023	-0.0067	0.0091	31.1483	-7.4167	17.2742	0.6285	-0.2129	0.7277	0.1736
4.66	-9.4998	-0.1472	-1.4652	-0.0042	-0.0032	0.0041	31.1542	-7.4267	17.3062	0.6284	-0.2129	0.7277	0.1735
4.67	-9.5002	-0.1353	-1.4714	-0.0036	-0.0095	0.0037	31.0835	-7.6300	17.1755	0.6285	-0.2130	0.7278	0.1735
4.68	-9.5045	-0.1385	-1.4620	-0.0003	-0.0146	0.0098	31.1659	-7.4339	17.2473	0.6284	-0.2129	0.7277	0.1735
4.69	-9.5078	-0.1412	-1.4600	-0.0013	-0.0133	0.0075	31.2003	-7.4285	17.3259	0.6285	-0.2130	0.7278	0.1735
4.7	-9.5163	-0.1419	-1.4490	0.0017	-0.0136	0.0081	31.3316	-7.5689	17.1926	0.6284	-0.2129	0.7277	0.1735
4.71	-9.5080	-0.1533	-1.4499	-0.0004	-0.0082	0.0140	31.3271	-7.4470	16.9880	0.6284	-0.2129	0.7278	0.1735
4.72	-9.5070	-0.1347	-1.4485	-0.0002	-0.0168	0.0055	31.2873	-7.4617	17.2667	0.6285	-0.2130	0.7277	0.1735
4.73	-9.5079	-0.1398	-1.4397	0.0003	-0.0153	0.0120	31.4549	-7.5447	17.3205	0.6284	-0.2129	0.7277	0.1735
4.74	-9.5031	-0.1395	-1.4493	-0.0045	-0.0139	0.0120	31.5895	-7.5384	17.1921	0.6285	-0.2130	0.7278	0.1736
4.75	-9.5034	-0.1408	-1.4418	-0.0040	-0.0143	0.0107	31.2733	-7.4579	17.2211	0.6285	-0.2130	0.7277	0.1736
4.76	-9.5008	-0.1314	-1.4274	-0.0065	-0.0114	0.0054	31.2242	-7.6426	17.1933	0.6285	-0.2130	0.7277	0.1736
4.77	-9.5017	-0.1380	-1.4298	-0.0016	-0.0113	0.0068	31.2462	-7.2495	17.2337	0.6284	-0.2130	0.7276	0.1736
4.78	-9.5030	-0.1381	-1.4326	-0.0025	-0.0109	0.0099	31.2275	-7.3620	16.9218	0.6285	-0.2130	0.7277	0.1736
4.79	-9.5075	-0.1406	-1.4273	0.0002	-0.0061	0.0068	31.2717	-7.5053	17.0589	0.6284	-0.2130	0.7277	0.1736
4.8	-9.4989	-0.1377	-1.4331	-0.0009	-0.0063	0.0048	31.1384	-7.4557	17.4229	0.6284	-0.2131	0.7277	0.1735
4.81	-9.5051	-0.1385	-1.4345	-0.0020	-0.0112	0.0060	31.1772	-7.4815	17.2666	0.6284	-0.2131	0.7277	0.1735
4.82	-9.5040	-0.1540	-1.4267	-0.0085	-0.0100	0.0051	31.2242	-7.4664	17.1728	0.6284	-0.2131	0.7277	0.1735
4.83	-9.5033	-0.1500	-1.4282	-0.0096	-0.0132	0.0042	31.1279	-7.4736	17.2776	0.6284	-0.2132	0.7277	0.1735
4.84	-9.5090	-0.1554	-1.4303	-0.0063	-0.0101	0.0010	31.1656	-7.4767	17.2863	0.6283	-0.2132	0.7276	0.1735
4.85	-9.4998	-0.1566	-1.4369	-0.0066	-0.0055	0.0012	31.1459	-7.4603	17.4140	0.6284	-0.2133	0.7277	0.1735
4.86	-9.4948	-0.1499	-1.4238	-0.0040	-0.0061	0.0022	31.2824	-7.5099	17.6290	0.6283	-0.2133	0.7277	0.1735
4.87	-9.5024	-0.1569	-1.4195	-0.0044	-0.0134	0.0106	31.1302	-7.5899	17.1338	0.6284	-0.2133	0.7277	0.1735
4.88	-9.5074	-0.1556	-1.4257	-0.0028	-0.0104	0.0113	31.2711	-7.4377	17.0102	0.6283	-0.2133	0.7277	0.1735
4.89	-9.4996	-0.1494	-1.4329	-0.0055	-0.0111	0.0083	31.4183	-7.5045	17.2895	0.6283	-0.2134	0.7277	0.1735
4.9	-9.5037	-0.1572	-1.4273	-0.0080	-0.0094	0.0064	31.4091	-7.7554	17.1131	0.6283	-0.2134	0.7277	0.1736
4.91	-9.5065	-0.1574	-1.4323	-0.0040	-0.0093	0.0114	31.3203	-7.5568	17.2115	0.6282	-0.2134	0.7277	0.1736
4.92	-9.5049	-0.1541	-1.4278	0.0045	-0.0092	0.0096	31.2302	-7.4443	17.2010	0.6283	-0.2134	0.7278	0.1736
4.93	-9.5045	-0.1543	-1.4160	0.0036	-0.0055	0.0079	31.3573	-7.6305	17.0821	0.6283	-0.2134	0.7277	0.1735
4.94	-9.5081	-0.1562	-1.4266	-0.0030	-0.0074	0.0098	31.2878	-7.3732	17.1934	0.6283	-0.2135	0.7278	0.1735
4.95	-9.5134	-0.1566	-1.4468	0.0016	-0.0116	0.0050	31.4193	-7.4892	17.3027	0.6282	-0.2135	0.7277	0.1735
4.96	-9.5019	-0.1587	-1.4427	-0.0031	-0.0120	0.0073	31.2656	-7.4240	17.1825	0.6282	-0.2135	0.7278	0.1735
4.97	-9.5068	-0.1569	-1.4567	-0.0057	-0.0074	0.0077	31.3949	-7.4216	17.4046	0.6282	-0.2135	0.7278	0.1735
4.98	-9.5143	-0.1547	-1.4675	-0.0020	-0.0081	0.0056	31.3255	-7.4858	17.2919	0.6282	-0.2135	0.7277	0.1735
4.99	-9.5053	-0.1542	-1.4617	-0.0059	-0.0072	0.0055	31.2272	-7.4717	17.3025	0.6282	-0.2136	0.7278	0.1735
5	-9.4927	-0.1501	-1.4629	-0.0049	-0.0100	0.0047	31.0944	-7.4530	17.2596	0.6282	-0.2136	0.7278	0.1735
5.01	-9.5126	-0.1505	-1.4684	-0.0051	-0.0123	0.0042	31.3150	-7.5499	17.1686	0.6282	-0.2137	0.7278	0.1735
5.02	-9.5158	-0.1520	-1.4647	-0.0008	-0.0058	0.0067	31.2310	-7.4756	17.3180	0.6281	-0.2137	0.7277	0.1735
5.03	-9.5064	-0.1394	-1.4452	-0.0070	-0.0093	0.0060	31.1516	-7.2716	17.2598	0.6281	-0.2137	0.7278	0.1735
5.04	-9.5024	-0.1394	-1.4490	-0.0023	-0.0057	0.0043	31.2686	-7.4628	17.1726	0.6281	-0.2137	0.7278	0.1735
5.05	-9.5070	-0.1435	-1.4302	-0.0021	-0.0098	0.0071	31.2201	-7.2532	17.2794	0.6281	-0.2138	0.7278	0.1735
5.06	-9.4985	-0.1411	-1.4207	-0.0011	-0.0132	0.0109	31.2323	-7.5320	17.3123	0.6281	-0.2138	0.7278	0.1735
5.07	-9.5078	-0.1385	-1.4138	-0.0031	-0.0122	0.0067	31.3829	-7.6325	17.1359	0.6281	-0.2138	0.7278	0.1735
5.08	-9.5206	-0.1501	-1.4157	-0.0006	-0.0113	0.0072	31.3611	-7.5011	17.1676	0.6281	-0.2138	0.7278	0.1735
5.09	-9.5036	-0.1475	-1.4157	-0.0032	-0.0085	0.0082	31.2624	-7.6563	17.3010	0.6280	-0.2138	0.7277	0.1735
5.1	-9.4992	-0.1525	-1.4158	0.0032	-0.0061	0.0059	31.7532	-7.6104	17.4302	0.6281	-0.2139	0.7278	0.1735
5.11	-9.5019	-0.1494	-1.4181	-0.0038	-0.0123	0.0079	31.7790	-7.6405	17.3327	0.6281	-0.2139	0.7278	0.1734
5.12	-9.5029	-0.1518	-1.4303	-0.0044	-0.0142	0.0098	31.6289	-7.5719	17.3306	0.6281	-0.2139	0.7278	0.1735
5.13	-9.5030	-0.1542	-1.4319	-0.0005	-0.0102	0.0112	31.4736	-7.3723	17.3072	0.6280	-0.2139	0.7278	0.1735
5.14	-9.5091	-0.1412	-1.4292	-0.0038	-0.0095	0.0149	31.3423	-7.4148	17.1457	0.6280	-0.2139	0.7278	0.1735
5.15	-9.5084	-0.1527	-1.4239	0.0049	-0.0152	0.0077	31.4049	-7.4234	17.3990	0.6281	-0.2139	0.7278	0.1735
5.16	-9.5054	-0.1584	-1.4278	-0.0028	-0.0156	0.0102	31.3415	-7.3985	17.4484	0.6280	-0.2139	0.7277	0.1735
5.17	-9.4939	-0.1488	-1.4325	-0.0002	-0.0178	0.0047	31.1173	-7.4250	17.1886	0.6281	-0.2139	0.7278	0.1735
5.18	-9.5003	-0.1514	-1.4299	-0.0021	-0.0124	0.0036	31.3391	-7.5293	17.3176	0.6281	-0.2139	0.7278	0.1735
5.19	-9.5084	-0.1526	-1.4361	0.0026	-0.0147	0.0101	31.0123	-7.4233	17.5581	0.6281	-0.2139	0.7278	0.1735
5.2	-9.5025	-0.1475	-1.4485	0.0017	-0.0091	0.0078	30.9882	-7.4128	17.2867	0.6281	-0.2139	0.7277	0.1734
5.21	-9.5088	-0.1483	-1.4449	-0.0037	-0.0086	0.0013	31.2153	-7.4125	17.2594	0.6281	-0.2140	0.7278	0.1734
5.22	-9.5077	-0.1460	-1.4481	-0.0010	-0.0144	0.0063	31.1213	-7.4205	17.3563	0.6281	-0.2140	0.7278	0.1734
5.23	-9.5019	-0.1439	-1.4455	-0.0027	-0.0114	0.0076	31.2489	-7.3560	17.3236	0.6281	-0.2140	0.7277	0.1734
5.24	-9.5028	-0.1483	-1.4553	0.0011	-0.0175	0.0081	31.2407	-7.1968	17.2281	0.6282	-0.2140	0.7278	0.1734
5.25	-9.5038	-0.1503	-1.4459	-0.0014	-0.0201	0.0148	31.1230	-7.4659	17.4016	0.6281	-0.2140	0.7277	0.1734
5.26	-9.4994	-0.1573	-1.4456	0.0048	-0.0168	0.0164	31.4489	-7.6435	17.3974	0.6282	-0.2139	0.7278	0.1734
5.27	-9.5015	-0.1437	-1.4503	0.0013	-0.0122	0.0118	31.5849	-7.3676	17.2133	0.6281	-0.2139	0.7277	0.1734
5.28	-9.5034	-0.1472	-1.4484	-0.0001	-0.0136	0.0098	31.3541	-7.4313	17.2847	0.6282	-0.2139	0.7277	0.1734
5.29	-9.5036	-0.1524	-1.4432	0.0036	-0.0122	0.0145	31.4436	-7.5297	17.1777	0.6281	-0.2139	0.7277	0.1734
5.3	-9.4987	-0.1489	-1.4495	-0.0017	-0.0121	0.0136	31.3210	-7.3903	17.2108	0.6281	-0.2139	0.7277	0.1734
5.31	-9.5007	-0.1487	-1.4494	-0.0048	-0.0154	0.0110	31.3195	-7.5176	17.3787	0.6282	-0.2139	0.7277	0.1735
5.32	-9.5026	-0.1531	-1.4506	0.0049	-0.0145	0.0155	31.4612	-7.5698	16.9076	0.6281	-0.2139	0.7277	0.1735
5.33	-9.5017	-0.1521	-1.4439	-0.0014	-0.0179	0.0109	31.5060	-7.4203	17.4004	0.6282	-0.2139	0.7277	0.1735
5.34	-9.5016	-0.1583	-1.4377	-0.0020	-0.0168	0.0103	31.4035	-7.6933	17.3572	0.6281	-0.2138	0.7276	0.1735
5.35	-9.5019	-0.1545	-1.4428	0.0053	-0.0110	0.0123	31.2028	-7.5213	17.2373	0.6282	-0.2138	0.7277	0.1735
5.36	-9.5025	-0.1494	-1.4438	0.0058	-0.0073	0.0135	31.2843	-7.3688	17.5258	0.6282	-0.2138	0.7277	0.1735
5.37	-9.4982	-0.1377	-1.4365	0.0028	-0.0131	0.0070	31.3456	-7.4470	17.5085	0.6282	-0.2138	0.7278	0.1735
5.38	-9.5047	-0.1443	-1.4420	0.0067	-0.0142	0.0118	31.2131	-7.2931	17.4117	0.6282	-0.2138	0.7277	0.1734
5.39	-9.5037	-0.1501	-1.4438	-0.0015	-0.0126	0.0036	31.1520	-7.3798	17.4209	0.6282	-0.2138	0.7277	0.1734
5.4	-9.4992	-0.1473	-1.4391	-0.0047	-0.0051	0.0011	31.1494	-7.5919	17.3917	0.6282	-0.2138	0.7278	0.1734
5.41	-9.5025	-0.1471	-1.4381	-0.0054	-0.0083	0.0046	31.2406	-7.5711	17.2136	0.6281	-0.2139	0.7277	0.1734
5.42	-9.5021	-0.1470	-1.4415	0.0049	-0.0082	0.0094	31.2442	-7.4895	17.3834	0.6282	-0.2139	0.7278	0.1734
5.43	-9.5032	-0.1538	-1.4280	0.0113	-0.0113	0.0105	31.2406	-7.3487	17.4059	0.6281	-0.2138	0.7278	0.1733
5.44	-9.5043	-0.1599	-1.4260	0.0010	-0.0112	0.0081	31.2348	-7.5624	17.2401	0.6282	-0.2138	0.7278	0.1733
5.45	-9.5054	-0.1418	-1.4400	-0.0016	-0.0151	0.0149	31.3291	-7.6463	17.2530	0.6281	-0.2138	0.7277	0.1733
5.46	-9.5056	-0.1500	-1.4234	-0.0025	-0.0086	0.0054	31.4270	-7.7035	17.3766	0.6281	-0.2138	0.7278	0.1733
5.47	-9.5038	-0.1510	-1.4225	-0.0017	-0.0093	0.0063	31.5552	-7.6717	17.1071	0.6281	-0.2139	0.7278	0.1733
5.48	-9.5049	-0.1338	-1.4320	0.0005	-0.0163	0.0127	31.5783	-7.4335	17.1167	0.6281	-0.2138	0.7277	0.1733
5.49	-9.5012	-0.1471	-1.4255	-0.0021	-0.0085	0.0118	31.4742	-7.6203	17.4086	0.6282	-0.2139	0.7279	0.1733
5.5	-9.5087	-0.1516	-1.4389	0.0030	-0.0072	0.0109	31.3449	-7.3909	17.2657	0.6281	-0.2139	0.7278	0.1733
5.51	-9.5040	-0.1529	-1.4393	-0.0003	-0.0093	0.0106	31.3320	-7.4848	17.2536	0.6281	-0.2139	0.7279	0.1733
5.52	-9.5040	-0.1544	-1.4436	-0.0021	-0.0133	0.0125	31.2373	-7.4859	17.2269	0.6280	-0.2138	0.7278	0.1733
5.53	-9.5030	-0.1585	-1.4477	0.0009	-0.0165	0.0093	31.2539	-7.5184	17.2892	0.6281	-0.2138	0.7278	0.1733
5.54	-9.4917	-0.1531	-1.4337	0.0012	-0.0089	0.0055	31.3600	-7.5869	17.4900	0.6281	-0.2139	0.7278	0.1733
5.55	-9.5042	-0.1500	-1.4466	0.0037	-0.0145	0.0085	31.2354	-7.5866	17.3223	0.6281	-0.2138	0.7278	0.1733
5.56	-9.5068	-0.1524	-1.4440	0.0034	-0.0157	0.0068	31.2444	-7.4688	17.3439	0.6281	-0.2138	0.7278	0.1733
5.57	-9.5001	-0.1488	-1.4345	0.0016	-0.0122	0.0069	31.2455	-7.4124	17.1882	0.6281	-0.2138	0.7278	0.1732
5.58	-9.5092	-0.1426	-1.4389	-0.0026	-0.0103	0.0058	31.4413	-7.3507	17.1394	0.6282	-0.2139	0.7278	0.1733
5.59	-9.5085	-0.1463	-1.4505	-0.0010	-0.0107	0.0070	31.2317	-7.3183	17.2293	0.6281	-0.2139	0.7277	0.1732
5.6	-9.5016	-0.1454	-1.4423	-0.0018	-0.0091	0.0182	31.2460	-7.3251	17.4743	0.6281	-0.2139	0.7279	0.1733
5.61	-9.5023	-0.1416	-1.4509	0.0034	-0.0088	0.0068	31.6519	-7.3526	17.5168	0.6281	-0.2138	0.7278	0.1732
5.62	-9.5203	-0.1560	-1.4388	-0.0026	-0.0135	0.0095	31.5651	-7.4548	17.5263	0.6281	-0.2139	0.7279	0.1732
5.63	-9.5174	-0.1526	-1.4377	-0.0011	-0.0146	0.0162	31.5607	-7.4160	17.4509	0.6281	-0.2138	0.7278	0.1733
5.64	-9.4990	-0.1567	-1.4391	0.0029	-0.0098	0.0074	31.4721	-7.5603	17.1693	0.6281	-0.2138	0.7278	0.1733
5.65	-9.5155	-0.1519	-1.4417	0.0001	-0.0115	0.0055	31.3620	-7.5102	17.1649	0.6281	-0.2139	0.7279	0.1732
5.66	-9.5104	-0.1491	-1.4429	0.0061	-0.0146	0.0041	31.3855	-7.6128	17.3528	0.6281	-0.2138	0.7278	0.1732
5.67	-9.5038	-0.1510	-1.4263	0.0034	-0.0087	0.0093	31.2659	-7.5136	17.1695	0.6281	-0.2139	0.7279	0.1732
5.68	-9.5059	-0.1488	-1.4328	-0.0010	-0.0074	0.0071	31.1849	-7.4032	17.1559	0.6281	-0.2139	0.7278	0.1732
5.69	-9.5166	-0.1481	-1.4427	-0.0020	-0.0105	0.0090	31.2732	-7.5336	17.2672	0.6281	-0.2139	0.7279	0.1732
5.7	-9.4982	-0.1524	-1.4407	-0.0014	-0.0103	0.0083	31.3856	-7.5161	17.1044	0.6280	-0.2139	0.7278	0.1732
5.71	-9.5056	-0.1544	-1.4424	0.0017	-0.0111	0.0072	31.2630	-7.4388	17.2799	0.6281	-0.2139	0.7279	0.1732
5.72	-9.5093	-0.1521	-1.4396	0.0033	-0.0090	0.0045	31.4702	-7.4228	17.1298	0.6281	-0.2139	0.7279	0.1731
5.73	-9.5054	-0.1512	-1.4329	-0.0059	-0.0086	0.0047	31.0942	-7.5364	17.2163	0.6280	-0.2139	0.7278	0.1731
5.74	-9.5109	-0.1509	-1.4201	-0.0043	-0.0072	0.0049	31.2652	-7.5132	17.2171	0.6281	-0.2140	0.7279	0.1731
5.75	-9.5077	-0.1545	-1.4309	-0.0000	-0.0043	0.0066	31.2408	-7.4400	17.1153	0.6280	-0.2140	0.7279	0.1731
5.76	-9.5083	-0.1517	-1.4379	0.0049	-0.0081	0.0108	31.0693	-7.3993	17.3418	0.6280	-0.2140	0.7280	0.1731
5.77	-9.5067	-0.1507	-1.4415	0.0017	-0.0095	0.0066	31.2420	-7.3378	17.1890	0.6279	-0.2140	0.7279	0.1730
5.78	-9.5031	-0.1525	-1.4379	0.0030	-0.0089	0.0038	31.0898	-7.4958	17.2529	0.6280	-0.2140	0.7280	0.1730
5.79	-9.5023	-0.1552	-1.4416	-0.0054	-0.0057	0.0047	31.1595	-7.3736	17.3016	0.6280	-0.2140	0.7280	0.1730
5.8	-9.5013	-0.1545	-1.4440	-0.0047	-0.0044	0.0051	31.0906	-7.1329	17.0749	0.6279	-0.2141	0.7280	0.1730
5.81	-9.5023	-0.1527	-1.4495	-0.0010	-0.0168	0.0132	31.2644	-7.5271	17.2749	0.6280	-0.2141	0.7280	0.1730
5.82	-9.5051	-0.1585	-1.4403	-0.0070	-0.0098	0.0114	31.2530	-7.5852	17.1465	0.6279	-0.2141	0.7280	0.1730
5.83	-9.5017	-0.1473	-1.4456	-0.0005	-0.0120	0.0108	31.4323	-7.3422	16.9972	0.6279	-0.2141	0.7280	0.1731
5.84	-9.5022	-0.1563	-1.4251	-0.0061	-0.0087	0.0060	31.4590	-7.7234	17.1610	0.6279	-0.2141	0.7279	0.1730
5.85	-9.5021	-0.1479	-1.4305	-0.0046	-0.0073	0.0047	31.1955	-7.6756	17.1379	0.6279	-0.2141	0.7280	0.1731
5.86	-9.5023	-0.1520	-1.4274	-0.0034	-0.0074	0.0053	31.2924	-7.5656	17.1192	0.6279	-0.2142	0.7280	0.1730
5.87	-9.5020	-0.1496	-1.4341	-0.0014	-0.0117	0.0124	31.1771	-7.4424	16.9317	0.6279	-0.2142	0.7280	0.1731
5.88	-9.5013	-0.1485	-1.4381	0.0031	-0.0188	0.0040	31.3137	-7.5240	17.0671	0.6279	-0.2142	0.7280	0.1730
5.89	-9.5047	-0.1462	-1.4372	-0.0004	-0.0089	0.0082	31.3024	-7.5444	17.1548	0.6279	-0.2142	0.7280	0.1730
5.9	-9.5064	-0.1422	-1.4377	0.0001	-0.0107	0.0079	31.2336	-7.6655	17.1449	0.6279	-0.2142	0.7280	0.1730
5.91	-9.5008	-0.1512	-1.4281	0.0012	-0.0103	0.0056	31.2537	-7.4283	17.4304	0.6278	-0.2142	0.7279	0.1730
5.92	-9.4997	-0.1472	-1.4454	-0.0019	-0.0082	0.0085	31.4071	-7.5523	17.3628	0.6279	-0.2142	0.7280	0.1730
5.93	-9.4975	-0.1391	-1.4453	-0.0000	-0.0117	0.0051	31.2000	-7.3520	17.1742	0.6278	-0.2142	0.7280	0.1730
5.94	-9.4987	-0.1450	-1.4587	-0.0004	-0.0061	0.0076	31.2453	-7.4476	17.2505	0.6279	-0.2142	0.7281	0.1730
5.95	-9.5013	-0.1464	-1.4538	0.0019	-0.0097	0.0051	31.0849	-7.3565	17.1108	0.6278	-0.2142	0.7280	0.1729
5.96	-9.5092	-0.1307	-1.4536	-0.0007	-0.0097	0.0053	31.3135	-7.3859	17.2505	0.6278	-0.2143	0.7280	0.1729
5.97	-9.5048	-0.1399	-1.4493	-0.0016	-0.0071	0.0065	31.3152	-7.4635	17.1977	0.6278	-0.2143	0.7281	0.1729
5.98	-9.5036	-0.1542	-1.4424	-0.0017	-0.0079	0.0026	31.0805	-7.4454	17.2963	0.6278	-0.2143	0.7280	0.1729
5.99	-9.5082	-0.1601	-1.4525	-0.0011	-0.0109	0.0093	31.2409	-7.4380	17.3257	0.6278	-0.2143	0.7281	0.1729
6	-9.5051	-0.1680	-1.4456	0.0016	-0.0135	0.0114	31.3276	-7.4768	17.2779	0.6278	-0.2143	0.7280	0.1729
6.01	-9.5053	-0.1729	-1.4420	-0.0011	-0.0122	0.0094	31.3896	-7.5557	17.4068	0.6278	-0.2143	0.7281	0.1729
6.02	-9.5022	-0.1659	-1.4456	-0.0024	-0.0136	0.0069	31.3502	-7.4367	17.3079	0.6277	-0.2143	0.7280	0.1729
6.03	-9.5013	-0.1565	-1.4489	-0.0009	-0.0124	0.0093	31.3870	-7.4312	17.2078	0.6278	-0.2143	0.7281	0.1729
6.04	-9.4918	-0.1568	-1.4337	-0.0001	-0.0123	0.0087	31.1904	-7.4906	17.2121	0.6278	-0.2143	0.7280	0.1729
6.05	-9.5055	-0.1507	-1.4306	0.0016	-0.0158	0.0045	31.3007	-7.5565	17.2978	0.6278	-0.2143	0.7280	0.1729
6.06	-9.5039	-0.1553	-1.4296	0.0046	-0.0087	0.0038	31.1867	-7.4213	17.3196	0.6278	-0.2144	0.7281	0.1728
6.07	-9.5090	-0.1561	-1.4187	-0.0006	-0.0108	0.0056	31.0122	-7.4709	17.1574	0.6278	-0.2144	0.7280	0.1728
6.08	-9.5019	-0.1457	-1.4179	-0.0035	-0.0065	0.0041	31.2798	-7.4165	17.1114	0.6278	-0.2144	0.7281	0.1728
6.09	-9.5042	-0.1468	-1.4162	0.0017	-0.0082	0.0098	31.3631	-7.5428	17.2228	0.6277	-0.2144	0.7280	0.1728
6.1	-9.5001	-0.1407	-1.4168	0.0047	-0.0094	0.0082	31.4792	-7.5006	17.3390	0.6278	-0.2144	0.7281	0.1728
6.11	-9.4998	-0.1394	-1.4140	-0.0088	-0.0032	0.0100	31.5526	-7.2699	17.2894	0.6277	-0.2144	0.7281	0.1728
6.12	-9.5047	-0.1336	-1.4273	0.0006	-0.0099	0.0089	31.4866	-7.2787	17.3414	0.6277	-0.2144	0.7281	0.1728
6.13	-9.5059	-0.1407	-1.4417	0.0004	-0.0095	0.0045	31.4265	-7.4107	17.2494	0.6277	-0.2145	0.7281	0.1728
6.14	-9.5046	-0.1414	-1.4499	-0.0003	-0.0098	0.0111	31.2056	-7.6210	17.3161	0.6277	-0.2145	0.7281	0.1728
6.15	-9.5073	-0.1437	-1.4496	-0.0003	-0.0156	0.0095	31.0870	-7.5345	17.2719	0.6277	-0.2145	0.7281	0.1728
6.16	-9.5058	-0.1500	-1.4568	0.0013	-0.0140	0.0072	31.1553	-7.4017	17.2015	0.6277	-0.2144	0.7281	0.1728
6.17	-9.4973	-0.1411	-1.4627	-0.0021	-0.0090	0.0103	31.3211	-7.4055	17.2487	0.6277	-0.2145	0.7282	0.1728
6.18	-9.5035	-0.1466	-1.4595	0.0007	-0.0217	0.0168	31.2810	-7.2782	17.2106	0.6277	-0.2144	0.7281	0.1728
6.19	-9.5124	-0.1476	-1.4612	0.0005	-0.0162	0.0130	31.3478	-7.4115	17.2491	0.6278	-0.2144	0.7282	0.1728
6.2	-9.5102	-0.1445	-1.4607	-0.0048	-0.0200	0.0115	31.6282	-7.3866	17.2163	0.6277	-0.2144	0.7280	0.1728
6.21	-9.5019	-0.1388	-1.4575	0.0026	-0.0130	0.0101	31.3400	-7.4337	17.1521	0.6278	-0.2144	0.7281	0.1728
6.22	-9.5167	-0.1415	-1.4610	-0.0016	-0.0186	0.0110	31.3414	-7.6816	17.4663	0.6278	-0.2144	0.7281	0.1729
6.23	-9.5182	-0.1418	-1.4565	-0.0031	-0.0230	0.0115	31.3393	-7.5781	17.2465	0.6278	-0.2144	0.7280	0.1729
6.24	-9.5018	-0.1381	-1.4476	-0.0076	-0.0221	0.0087	31.2563	-7.4692	17.1184	0.6279	-0.2144	0.7280	0.1729
6.25	-9.5075	-0.1478	-1.4571	0.0005	-0.0188	0.0080	31.2704	-7.5169	17.1682	0.6279	-0.2144	0.7279	0.1729
6.26	-9.5084	-0.1506	-1.4502	-0.0012	-0.0232	0.0112	31.4512	-7.6221	17.1181	0.6279	-0.2144	0.7280	0.1730
6.27	-9.5124	-0.1511	-1.4322	0.0029	-0.0152	0.0172	31.3145	-7.3772	17.2623	0.6279	-0.2143	0.7279	0.1730
6.28	-9.5019	-0.1523	-1.4292	0.0036	-0.0162	0.0119	31.3756	-7.3299	17.1781	0.6279	-0.2143	0.7279	0.1730
6.29	-9.5096	-0.1517	-1.4187	-0.0092	-0.0115	0.0066	31.2432	-7.6059	17.3618	0.6279	-0.2144	0.7279	0.1730
6.3	-9.5158	-0.1475	-1.4275	-0.0029	-0.0050	0.0082	31.1334	-7.4974	17.3692	0.6279	-0.2144	0.7279	0.1730
6.31	-9.4981	-0.1466	-1.4253	-0.0052	-0.0097	0.0072	31.2955	-7.4040	17.1021	0.6279	-0.2144	0.7279	0.1730
6.32	-9.5021	-0.1381	-1.4274	-0.0032	-0.0137	0.0103	31.2362	-7.2688	17.2750	0.6279	-0.2144	0.7279	0.1730
6.33	-9.5018	-0.1339	-1.4271	-0.0036	-0.0105	0.0113	31.2862	-7.2407	17.1850	0.6279	-0.2144	0.7280	0.1730
6.34	-9.5046	-0.1424	-1.4197	-0.0034	-0.0165	0.0061	31.1625	-7.2293	17.3207	0.6278	-0.2144	0.7279	0.1730
6.35	-9.5050	-0.1385	-1.4302	-0.0015	-0.0071	0.0085	31.1839	-7.3745	17.4137	0.6279	-0.2144	0.7280	0.1730
6.36	-9.5138	-0.1437	-1.4301	-0.0084	-0.0129	0.0059	31.1606	-7.3984	17.2347	0.6278	-0.2145	0.7279	0.1730
6.37	-9.5101	-0.1601	-1.4367	-0.0042	-0.0146	0.0130	31.2498	-7.4854	17.2347	0.6279	-0.2145	0.7279	0.1731
6.38	-9.4975	-0.1524	-1.4260	-0.0023	-0.0201	0.0131	31.2645	-7.4809	17.2237	0.6279	-0.2145	0.7279	0.1731
6.39	-9.4994	-0.1576	-1.4447	-0.0045	-0.0136	0.0110	31.3733	-7.4111	17.1259	0.6279	-0.2145	0.7279	0.1731
6.4	-9.5006	-0.1646	-1.4404	0.0034	-0.0125	0.0106	31.2984	-7.7033	17.1634	0.6279	-0.2145	0.7279	0.1731
6.41	-9.5010	-0.1616	-1.4438	0.0023	-0.0101	0.0103	31.5221	-7.5482	17.0845	0.6278	-0.2144	0.7278	0.1731
6.42	-9.5052	-0.1617	-1.4461	-0.0061	-0.0159	0.0146	31.3916	-7.4918	17.0152	0.6279	-0.2145	0.7279	0.1732
6.43	-9.5031	-0.1556	-1.4531	0.0030	-0.0135	0.0130	31.3545	-7.5943	17.1649	0.6279	-0.2144	0.7279	0.1732
6.44	-9.5068	-0.1519	-1.4461	-0.0042	-0.0077	0.0107	31.4768	-7.3056	17.2515	0.6279	-0.2145	0.7280	0.1732
6.45	-9.5004	-0.1498	-1.4319	0.0019	-0.0083	0.0059	31.2222	-7.4131	17.2315	0.6278	-0.2144	0.7279	0.1732
6.46	-9.5028	-0.1501	-1.4312	-0.0003	-0.0091	0.0076	31.2844	-7.5138	17.3153	0.6278	-0.2145	0.7279	0.1731
6.47	-9.5009	-0.1531	-1.4286	-0.0030	-0.0099	0.0114	31.2078	-7.4726	17.2022	0.6278	-0.2145	0.7279	0.1732
6.48	-9.4998	-0.1498	-1.4292	-0.0027	-0.0060	0.0058	31.1528	-7.5246	17.2432	0.6278	-0.2145	0.7279	0.1731
6.49	-9.5105	-0.1470	-1.4305	-0.0019	-0.0041	0.0128	31.2989	-7.2702	17.1318	0.6278	-0.2145	0.7280	0.1732
6.5	-9.5089	-0.1524	-1.4380	-0.0022	-0.0068	0.0104	31.0795	-7.3984	17.3975	0.6277	-0.2145	0.7280	0.1732
6.51	-9.5058	-0.1492	-1.4313	0.0011	-0.0159	0.0092	31.1965	-7.3597	17.4143	0.6278	-0.2145	0.7280	0.1732
6.52	-9.5047	-0.1485	-1.4455	0.0000	-0.0145	0.0077	31.3725	-7.2970	17.3225	0.6277	-0.2145	0.7279	0.1731
6.53	-9.5091	-0.1552	-1.4384	-0.0025	-0.0086	0.0111	31.3111	-7.4504	16.9774	0.6277	-0.2145	0.7280	0.1732
6.54	-9.5016	-0.1450	-1.4484	0.0018	-0.0106	0.0138	31.2512	-7.5116	17.1416	0.6277	-0.2145	0.7280	0.1732
6.55	-9.5051	-0.1512	-1.4437	0.0025	-0.0146	0.0158	31.2668	-7.4234	17.1286	0.6277	-0.2144	0.7280	0.1732
6.56	-9.5080	-0.1578	-1.4330	0.0055	-0.0127	0.0149	31.2524	-7.3026	17.2501	0.6277	-0.2144	0.7280	0.1732
6.57	-9.5025	-0.1492	-1.4355	-0.0034	-0.0105	0.0136	31.3961	-7.4643	17.1996	0.6277	-0.2144	0.7280	0.1732
6.58	-9.4920	-0.1581	-1.4361	-0.0008	-0.0148	0.0105	31.6264	-7.2901	17.1140	0.6277	-0.2144	0.7280	0.1732
6.59	-9.5038	-0.1607	-1.4359	-0.0015	-0.0085	0.0126	31.3985	-7.4911	17.2299	0.6277	-0.2144	0.7280	0.1732
6.6	-9.5136	-0.1510	-1.4338	-0.0022	-0.0062	0.0146	31.5306	-7.4778	17.4654	0.6277	-0.2144	0.7281	0.1732
6.61	-9.5012	-0.1603	-1.4274	0.0033	-0.0109	0.0145	31.7268	-7.5143	17.3441	0.6277	-0.2143	0.7281	0.1732
6.62	-9.5056	-0.1701	-1.4210	0.0062	-0.0112	0.0091	31.5325	-7.5926	17.3764	0.6277	-0.2143	0.7281	0.1732
6.63	-9.5161	-0.1667	-1.4347	0.0027	-0.0131	0.0085	31.4041	-7.4257	17.3690	0.6277	-0.2143	0.7281	0.1732
6.64	-9.5104	-0.1673	-1.4354	-0.0032	-0.0093	0.0066	31.1166	-7.5022	17.1869	0.6277	-0.2143	0.7281	0.1732
6.65	-9.5041	-0.1511	-1.4218	0.0009	-0.0129	0.0135	31.1600	-7.4118	17.1485	0.6277	-0.2143	0.7281	0.1732
6.66	-9.5026	-0.1550	-1.4292	-0.0038	-0.0139	0.0092	31.3170	-7.3643	17.4174	0.6276	-0.2143	0.7280	0.1732
6.67	-9.5079	-0.1368	-1.4412	-0.0089	-0.0056	0.0119	31.2046	-7.4764	17.2968	0.6277	-0.2144	0.7281	0.1733
6.68	-9.5061	-0.1205	-1.4372	0.0002	-0.0087	0.0058	31.3370	-7.4808	17.3158	0.6276	-0.2144	0.7281	0.1733
6.69	-9.5011	-0.1350	-1.4495	-0.0058	-0.0101	0.0084	31.2417	-7.6020	17.3303	0.6277	-0.2144	0.7282	0.1733
6.7	-9.5052	-0.1304	-1.4496	-0.0090	-0.0096	0.0079	31.1082	-7.3441	17.2090	0.6275	-0.2144	0.7281	0.1733
6.71	-9.5069	-0.1344	-1.4567	-0.0148	-0.0076	0.0036	31.1872	-7.4180	17.2295	0.6276	-0.2145	0.7281	0.1733
6.72	-9.5058	-0.1476	-1.4633	-0.0102	-0.0052	0.0088	31.3547	-7.6528	17.2159	0.6275	-0.2145	0.7281	0.1734
6.73	-9.5083	-0.1491	-1.4555	-0.0055	-0.0078	0.0051	31.2045	-7.5416	17.3077	0.6275	-0.2146	0.7281	0.1734
6.74	-9.5090	-0.1534	-1.4557	-0.0039	-0.0116	0.0086	31.2202	-7.5535	17.3233	0.6275	-0.2146	0.7282	0.1734
6.75	-9.5045	-0.1587	-1.4489	-0.0039	-0.0094	0.0067	31.1066	-7.5307	17.1676	0.6275	-0.2146	0.7281	0.1734
6.76	-9.5087	-0.1475	-1.4507	-0.0019	-0.0149	0.0125	31.4177	-7.6056	17.3394	0.6275	-0.2146	0.7282	0.1734
6.77	-9.5080	-0.1435	-1.4432	-0.0059	-0.0142	0.0089	31.5774	-7.6319	17.2198	0.6274	-0.2146	0.7280	0.1734
6.78	-9.5010	-0.1487	-1.4316	-0.0042	-0.0174	0.0069	31.2971	-7.6173	17.2596	0.6275	-0.2146	0.7281	0.1734
6.79	-9.5008	-0.1554	-1.4312	-0.0109	-0.0121	0.0102	31.3463	-7.4730	17.3149	0.6275	-0.2147	0.7281	0.1735
6.8	-9.5093	-0.1498	-1.4327	-0.0045	-0.0067	0.0078	31.3895	-7.4579	17.0972	0.6274	-0.2147	0.7281	0.1735
6.81	-9.5001	-0.1544	-1.4285	-0.0057	-0.0175	0.0058	31.4654	-7.4498	17.2686	0.6275	-0.2147	0.7281	0.1735
6.82	-9.5032	-0.1473	-1.4279	-0.0055	-0.0190	0.0111	31.3246	-7.4885	17.4404	0.6275	-0.2147	0.7280	0.1735
6.83	-9.5069	-0.1554	-1.4301	-0.0032	-0.0105	0.0060	31.2941	-7.5787	17.1502	0.6275	-0.2148	0.7281	0.1736
6.84	-9.5104	-0.1537	-1.4199	-0.0078	-0.0125	0.0130	31.2506	-7.4567	17.1352	0.6274	-0.2147	0.7280	0.1736
6.85	-9.5063	-0.1552	-1.4354	-0.0064	-0.0127	0.0070	31.0766	-7.3632	17.1250	0.6275	-0.2148	0.7281	0.1736
6.86	-9.5077	-0.1541	-1.4331	-0.0068	-0.0096	0.0068	31.2597	-7.4020	17.1638	0.6274	-0.2148	0.7280	0.1736
6.87	-9.5039	-0.1568	-1.4343	0.0024	-0.0092	0.0071	31.2605	-7.3363	17.3163	0.6275	-0.2148	0.7280	0.1736
6.88	-9.5025	-0.1626	-1.4365	-0.0071	-0.0067	0.0029	31.1084	-7.6034	17.3116	0.6274	-0.2149	0.7280	0.1736
6.89	-9.5022	-0.1518	-1.4320	-0.0113	-0.0091	0.0041	31.2600	-7.4677	17.3137	0.6274	-0.2149	0.7280	0.1736
6.9	-9.5091	-0.1604	-1.4421	-0.0020	-0.0052	0.0077	31.1776	-7.3608	17.3080	0.6274	-0.2149	0.7281	0.1736
6.91	-9.5105	-0.1592	-1.4397	-0.0103	-0.0078	0.0119	31.3190	-7.3724	17.3101	0.6273	-0.2149	0.7280	0.1736
6.92	-9.5017	-0.1537	-1.4305	-0.0071	-0.0075	0.0086	31.1804	-7.4154	17.3109	0.6274	-0.2150	0.7281	0.1737
6.93	-9.5090	-0.1630	-1.4349	-0.0073	-0.0112	0.0100	31.1363	-7.4318	17.4477	0.6273	-0.2150	0.7281	0.1737
6.94	-9.5042	-0.1609	-1.4279	-0.0028	-0.0094	0.0070	31.3255	-7.4070	17.0397	0.6274	-0.2150	0.7281	0.1737
6.95	-9.4985	-0.1508	-1.4256	-0.0009	-0.0119	0.0114	31.2859	-7.5747	17.1551	0.6273	-0.2150	0.7280	0.1737
6.96	-9.5080	-0.1505	-1.4412	-0.0057	-0.0079	0.0065	31.2172	-7.4267	17.2224	0.6273	-0.2150	0.7281	0.1737
6.97	-9.5106	-0.1504	-1.4442	-0.0053	-0.0068	0.0048	31.3701	-7.6560	17.2792	0.6273	-0.2151	0.7281	0.1737
6.98	-9.5043	-0.1544	-1.4461	-0.0043	-0.0134	0.0145	31.4020	-7.5376	17.0247	0.6272	-0.2151	0.7281	0.1737
6.99	-9.4984	-0.1529	-1.4444	-0.0066	-0.0145	0.0101	31.2723	-7.4608	17.2934	0.6273	-0.2151	0.7281	0.1738
7	-9.5069	-0.1528	-1.4358	-0.0034	-0.0075	0.0043	31.2028	-7.5770	17.3897	0.6272	-0.2151	0.7281	0.1738
7.01	-9.5115	-0.1515	-1.4404	-0.0035	-0.0078	0.0037	31.2224	-7.5196	17.3029	0.6272	-0.2152	0.7281	0.1738
7.02	-9.4999	-0.1562	-1.4375	-0.0031	-0.0075	0.0094	31.2171	-7.6413	17.2221	0.6271	-0.2152	0.7281	0.1738
7.03	-9.5097	-0.1568	-1.4351	-0.0033	-0.0137	0.0120	31.3147	-7.6182	17.2649	0.6272	-0.2152	0.7281	0.1738
7.04	-9.5071	-0.1588	-1.4434	-0.0025	-0.0086	0.0045	31.3065	-7.3100	17.2841	0.6272	-0.2152	0.7281	0.1738
7.05	-9.4993	-0.1517	-1.4396	-0.0080	-0.0137	0.0107	31.5108	-7.3335	17.1917	0.6272	-0.2152	0.7281	0.1738
7.06	-9.5097	-0.1518	-1.4483	-0.0118	-0.0088	0.0053	31.1615	-7.5891	17.3322	0.6272	-0.2153	0.7281	0.1739
7.07	-9.5150	-0.1455	-1.4635	-0.0066	-0.0064	0.0061	31.0343	-7.5227	17.3248	0.6271	-0.2153	0.7281	0.1739
7.08	-9.5102	-0.1468	-1.4432	-0.0108	-0.0068	0.0051	31.2499	-7.5880	17.4524	0.6271	-0.2153	0.7281	0.1739
7.09	-9.5004	-0.1396	-1.4418	-0.0055	-0.0043	0.0048	31.1020	-7.3694	17.2772	0.6270	-0.2154	0.7281	0.1739
7.1	-9.5070	-0.1410	-1.4495	-0.0136	-0.0044	0.0062	31.3660	-7.3908	17.4409	0.6271	-0.2154	0.7282	0.1739
7.11	-9.5040	-0.1387	-1.4349	-0.0088	-0.0130	0.0075	31.7700	-7.3324	17.5187	0.6270	-0.2155	0.7281	0.1739
7.12	-9.5032	-0.1518	-1.4348	-0.0064	-0.0201	0.0110	31.5019	-7.2574	17.4240	0.6271	-0.2155	0.7281	0.1740
7.13	-9.5096	-0.1530	-1.4342	-0.0022	-0.0141	0.0115	31.3404	-7.4308	17.3401	0.6270	-0.2155	0.7281	0.1740
7.14	-9.5084	-0.1544	-1.4306	-0.0007	-0.0228	0.0092	31.3266	-7.4564	17.2623	0.6271	-0.2155	0.7281	0.1740
7.15	-9.5024	-0.1476	-1.4263	-0.0044	-0.0172	0.0089	31.4378	-7.4014	17.3806	0.6271	-0.2155	0.7281	0.1740
7.16	-9.5012	-0.1485	-1.4283	-0.0021	-0.0159	0.0110	31.6092	-7.3925	17.1267	0.6271	-0.2155	0.7280	0.1740
7.17	-9.5027	-0.1449	-1.4310	0.0001	-0.0164	0.0129	31.5434	-7.4070	17.2646	0.6271	-0.2155	0.7281	0.1741
7.18	-9.4961	-0.1442	-1.4277	-0.0009	-0.0170	0.0083	31.3564	-7.5238	17.3442	0.6271	-0.2155	0.7280	0.1741
7.19	-9.4972	-0.1538	-1.4219	-0.0031	-0.0134	0.0109	31.5009	-7.4085	17.3058	0.6272	-0.2155	0.7281	0.1741
7.2	-9.5026	-0.1494	-1.4411	-0.0018	-0.0163	0.0086	31.4867	-7.3840	17.3384	0.6271	-0.2155	0.7279	0.1741
7.21	-9.5078	-0.1555	-1.4376	-0.0027	-0.0190	0.0111	31.3929	-7.5401	17.2938	0.6272	-0.2155	0.7280	0.1741
7.22	-9.5005	-0.1518	-1.4337	-0.0064	-0.0160	0.0134	31.2626	-7.5507	17.2027	0.6272	-0.2155	0.7280	0.1742
7.23	-9.5095	-0.1473	-1.4412	-0.0059	-0.0182	0.0066	31.2550	-7.3798	17.3087	0.6271	-0.2155	0.7279	0.1742
7.24	-9.5058	-0.1580	-1.4423	-0.0007	-0.0124	0.0117	31.2365	-7.4311	17.3336	0.6272	-0.2155	0.7280	0.1742
7.25	-9.4987	-0.1541	-1.4304	-0.0021	-0.0205	0.0084	31.2856	-7.3590	17.4215	0.6272	-0.2155	0.7279	0.1742
7.26	-9.5026	-0.1503	-1.4232	-0.0070	-0.0198	0.0070	31.1438	-7.3353	17.3921	0.6273	-0.2155	0.7279	0.1742
7.27	-9.5002	-0.1688	-1.4409	-0.0003	-0.0140	0.0085	31.3494	-7.6239	17.4184	0.6272	-0.2155	0.7278	0.1742
7.28	-9.5041	-0.1680	-1.4389	-0.0061	-0.0147	0.0047	31.3899	-7.3016	17.2885	0.6273	-0.2155	0.7279	0.1742
7.29	-9.5034	-0.1681	-1.4354	-0.0079	-0.0142	0.0080	31.2116	-7.5545	17.3446	0.6272	-0.2155	0.7278	0.1743
7.3	-9.5045	-0.1632	-1.4445	-0.0014	-0.0127	0.0100	31.4907	-7.2190	17.2433	0.6272	-0.2155	0.7278	0.1743
7.31	-9.5045	-0.1704	-1.4338	0.0009	-0.0165	0.0129	31.1680	-7.3651	17.1174	0.6273	-0.2155	0.7278	0.1743
7.32	-9.5006	-0.1651	-1.4334	-0.0006	-0.0195	0.0142	31.5000	-7.5918	17.1735	0.6273	-0.2155	0.7278	0.1743
7.33	-9.5038	-0.1539	-1.4420	0.0009	-0.0078	0.0118	31.5475	-7.4367	17.3199	0.6273	-0.2155	0.7278	0.1743
7.34	-9.5058	-0.1616	-1.4459	0.0080	-0.0098	0.0128	31.4131	-7.5047	17.3230	0.6272	-0.2154	0.7278	0.1743
7.35	-9.5003	-0.1470	-1.4343	0.0027	-0.0150	0.0138	31.2711	-7.3902	17.3170	0.6273	-0.2154	0.7279	0.1743
7.36	-9.5041	-0.1591	-1.4482	0.0001	-0.0172	0.0100	31.4807	-7.5248	17.3214	0.6273	-0.2154	0.7278	0.1743
7.37	-9.5002	-0.1587	-1.4466	0.0031	-0.0192	0.0147	31.5704	-7.4485	17.3303	0.6273	-0.2154	0.7278	0.1743
7.38	-9.5019	-0.1581	-1.4415	0.0011	-0.0161	0.0138	31.2860	-7.5891	17.3147	0.6273	-0.2153	0.7278	0.1743
7.39	-9.5024	-0.1472	-1.4456	0.0007	-0.0179	0.0105	31.3467	-7.6766	17.2187	0.6273	-0.2153	0.7278	0.1744
7.4	-9.4987	-0.1463	-1.4505	0.0054	-0.0115	0.0108	31.3695	-7.5978	17.2477	0.6273	-0.2153	0.7278	0.1744
7.41	-9.5052	-0.1456	-1.4368	-0.0003	-0.0145	0.0130	31.4517	-7.4955	17.2219	0.6273	-0.2153	0.7277	0.1744
7.42	-9.5078	-0.1320	-1.4411	0.0013	-0.0098	0.0103	31.2834	-7.2713	17.3369	0.6274	-0.2153	0.7278	0.1744
7.43	-9.5088	-0.1377	-1.4535	0.0059	-0.0103	0.0027	31.2487	-7.3899	17.4439	0.6273	-0.2153	0.7278	0.1743
7.44	-9.5122	-0.1405	-1.4461	-0.0030	-0.0181	0.0139	31.2433	-7.3889	17.3080	0.6274	-0.2153	0.7279	0.1744
7.45	-9.5066	-0.1326	-1.4537	-0.0034	-0.0155	0.0123	31.2647	-7.5224	17.4139	0.6273	-0.2153	0.7277	0.1744
7.46	-9.5115	-0.1424	-1.4508	-0.0020	-0.0123	0.0093	31.3182	-7.3119	17.3923	0.6274	-0.2153	0.7278	0.1744
7.47	-9.5042	-0.1471	-1.4488	0.0015	-0.0096	0.0148	31.0587	-7.2692	17.2352	0.6273	-0.2152	0.7278	0.1744
7.48	-9.5016	-0.1434	-1.4456	-0.0038	-0.0169	0.0078	31.1693	-7.3495	17.2012	0.6273	-0.2152	0.7277	0.1744
7.49	-9.5024	-0.1461	-1.4398	-0.0010	-0.0125	0.0094	31.2684	-7.3133	17.3577	0.6274	-0.2153	0.7278	0.1744
7.5	-9.5043	-0.1622	-1.4448	0.0066	-0.0127	0.0134	31.2416	-7.4567	17.1078	0.6274	-0.2152	0.7278	0.1744
7.51	-9.5056	-0.1548	-1.4372	0.0044	-0.0165	0.0160	31.3102	-7.7608	17.0836	0.6274	-0.2152	0.7278	0.1744
7.52	-9.5058	-0.1535	-1.4464	0.0053	-0.0118	0.0119	31.4226	-7.5454	17.3495	0.6273	-0.2151	0.7277	0.1744
7.53	-9.5043	-0.1503	-1.4415	0.0018	-0.0103	0.0094	31.5070	-7.6011	17.3253	0.6274	-0.2151	0.7278	0.1744
7.54	-9.5077	-0.1494	-1.4443	-0.0002	-0.0107	0.0113	31.4892	-7.6203	17.1403	0.6274	-0.2151	0.7278	0.1744
7.55	-9.5161	-0.1515	-1.4513	-0.0016	-0.0150	0.0123	31.5161	-7.5391	17.2404	0.6274	-0.2151	0.7278	0.1744
7.56	-9.5051	-0.1497	-1.4480	-0.0015	-0.0147	0.0142	31.3081	-7.5771	17.2160	0.6274	-0.2151	0.7278	0.1745
7.57	-9.5019	-0.1544	-1.4375	-0.0028	-0.0151	0.0114	31.3615	-7.5796	17.1630	0.6274	-0.2151	0.7278	0.1745
7.58	-9.5023	-0.1533	-1.4423	0.0056	-0.0161	0.0064	31.4646	-7.7042	17.2713	0.6274	-0.2151	0.7278	0.1745
7.59	-9.5025	-0.1556	-1.4364	0.0023	-0.0126	0.0106	31.2890	-7.4800	17.2101	0.6274	-0.2151	0.7277	0.1745
7.6	-9.4938	-0.1496	-1.4337	-0.0028	-0.0068	0.0168	31.4834	-7.2774	17.4448	0.6274	-0.2151	0.7278	0.1745
7.61	-9.4961	-0.1475	-1.4448	0.0002	-0.0080	0.0063	31.6975	-7.3584	17.8830	0.6274	-0.2151	0.7278	0.1745
7.62	-9.5054	-0.1513	-1.4391	-0.0007	-0.0084	0.0024	31.5603	-7.4801	17.6178	0.6274	-0.2151	0.7278	0.1745
7.63	-9.5078	-0.1493	-1.4367	-0.0028	-0.0075	0.0122	31.2937	-7.5233	17.2614	0.6273	-0.2151	0.7278	0.1745
7.64	-9.5119	-0.1519	-1.4506	-0.0039	-0.0108	0.0064	31.1360	-7.2353	17.4236	0.6273	-0.2151	0.7278	0.1745
7.65	-9.5069	-0.1497	-1.4500	-0.0010	-0.0127	0.0022	31.1924	-7.3581	17.2330	0.6274	-0.2151	0.7278	0.1745
7.66	-9.5042	-0.1529	-1.4395	-0.0096	-0.0071	0.0065	31.1162	-7.6762	17.3145	0.6273	-0.2152	0.7278	0.1745
7.67	-9.5023	-0.1499	-1.4491	-0.0083	-0.0108	0.0122	31.3627	-7.4240	17.5758	0.6273	-0.2152	0.7279	0.1745
7.68	-9.5027	-0.1581	-1.4278	-0.0054	-0.0136	0.0076	31.2400	-7.4726	17.4251	0.6273	-0.2152	0.7278	0.1745
7.69	-9.5004	-0.1606	-1.4396	0.0031	-0.0108	0.0095	31.2680	-7.5049	17.2350	0.6274	-0.2152	0.7279	0.1745
7.7	-9.5011	-0.1660	-1.4316	-0.0017	-0.0086	0.0080	31.4988	-7.6596	17.3395	0.6273	-0.2152	0.7278	0.1745
7.71	-9.5110	-0.1635	-1.4451	-0.0086	-0.0153	0.0065	31.4523	-7.4820	17.3782	0.6273	-0.2152	0.7278	0.1745
7.72	-9.5096	-0.1582	-1.4496	-0.0002	-0.0132	0.0092	31.3334	-7.6409	17.4167	0.6273	-0.2152	0.7278	0.1746
7.73	-9.5117	-0.1540	-1.4509	-0.0029	-0.0084	0.0056	31.5619	-7.5354	17.2309	0.6272	-0.2152	0.7278	0.1745
7.74	-9.4966	-0.1629	-1.4373	-0.0052	-0.0086	0.0124	31.5507	-7.5589	17.2767	0.6273	-0.2153	0.7279	0.1746
7.75	-9.5020	-0.1488	-1.4337	-0.0099	-0.0063	0.0116	31.0624	-7.5039	17.2253	0.6272	-0.2153	0.7278	0.1746
7.76	-9.5056	-0.1527	-1.4334	-0.0077	-0.0125	0.0070	31.3288	-7.7061	17.3151	0.6273	-0.2153	0.7279	0.1746
7.77	-9.5039	-0.1598	-1.4194	-0.0064	-0.0152	0.0074	31.2066	-7.5634	17.4395	0.6272	-0.2153	0.7278	0.1746
7.78	-9.5051	-0.1614	-1.4200	-0.0050	-0.0144	0.0076	31.2647	-7.3300	17.4133	0.6272	-0.2153	0.7278	0.1747
7.79	-9.5047	-0.1583	-1.4154	-0.0037	-0.0132	0.0093	31.4424	-7.4093	17.4224	0.6272	-0.2153	0.7278	0.1747
7.8	-9.5003	-0.1656	-1.4190	-0.0015	-0.0045	0.0035	31.3145	-7.3508	17.1437	0.6272	-0.2154	0.7278	0.1747
7.81	-9.4974	-0.1486	-1.4199	-0.0061	-0.0186	0.0093	31.2218	-7.4943	17.1805	0.6272	-0.2154	0.7278	0.1747
7.82	-9.4997	-0.1501	-1.4264	-0.0108	-0.0096	0.0054	31.1369	-7.5583	17.2468	0.6272	-0.2154	0.7278	0.1747
7.83	-9.5005	-0.1430	-1.4180	-0.0080	-0.0095	0.0024	31.3485	-7.3513	17.1049	0.6272	-0.2155	0.7278	0.1747
7.84	-9.5008	-0.1266	-1.4370	-0.0006	-0.0079	0.0041	31.2107	-7.4802	17.2746	0.6271	-0.2155	0.7277	0.1747
7.85	-9.5097	-0.1171	-1.4391	-0.0090	-0.0087	0.0017	31.2560	-7.5397	17.3302	0.6272	-0.2155	0.7278	0.1747
7.86	-9.5007	-0.1213	-1.4482	-0.0063	-0.0087	0.0059	31.3182	-7.4439	17.2147	0.6272	-0.2156	0.7278	0.1747
7.87	-9.4949	-0.1254	-1.4480	-0.0042	-0.0140	0.0099	31.1044	-7.4631	17.3134	0.6272	-0.2156	0.7278	0.1747
7.88	-9.5048	-0.1287	-1.4486	-0.0057	-0.0105	0.0098	31.3492	-7.5614	17.4549	0.6271	-0.2156	0.7278	0.1747
7.89	-9.5104	-0.1299	-1.4515	0.0070	-0.0104	0.0043	31.2655	-7.5191	17.3857	0.6272	-0.2156	0.7278	0.1747
7.9	-9.5078	-0.1277	-1.4523	-0.0001	-0.0123	0.0038	31.4229	-7.4376	17.1359	0.6272	-0.2156	0.7278	0.1747
7.91	-9.5020	-0.1344	-1.4555	-0.0008	-0.0106	0.0054	31.5637	-7.4756	17.1994	0.6271	-0.2156	0.7277	0.1747
7.92	-9.5071	-0.1424	-1.4586	-0.0047	-0.0090	0.0037	31.5719	-7.3480	17.1167	0.6272	-0.2157	0.7278	0.1747
7.93	-9.5053	-0.1346	-1.4632	-0.0047	-0.0158	0.0054	31.2231	-7.4109	17.2666	0.6272	-0.2157	0.7278	0.1747
7.94	-9.5032	-0.1455	-1.4522	0.0060	-0.0142	0.0041	31.1585	-7.5569	17.3271	0.6272	-0.2157	0.7278	0.1747
7.95	-9.5025	-0.1529	-1.4629	-0.0028	-0.0123	0.0060	31.4424	-7.5304	17.0273	0.6271	-0.2157	0.7277	0.1746
7.96	-9.4968	-0.1517	-1.4557	-0.0043	-0.0062	0.0083	31.3651	-7.5689	17.3484	0.6272	-0.2157	0.7278	0.1747
7.97	-9.5016	-0.1512	-1.4574	0.0021	-0.0124	0.0053	31.2486	-7.4848	17.3126	0.6272	-0.2157	0.7278	0.1747
7.98	-9.5081	-0.1536	-1.4528	-0.0016	-0.0112	0.0039	31.2165	-7.4665	17.4222	0.6271	-0.2157	0.7277	0.1746
7.99	-9.5035	-0.1533	-1.4527	-0.0045	-0.0117	0.0039	31.2346	-7.4477	17.4266	0.6272	-0.2158	0.7278	0.1746
8	-9.4957	-0.1555	-1.4475	-0.0008	-0.0104	0.0012	31.2259	-7.5194	17.4172	0.6272	-0.2158	0.7277	0.1746
8.01	-9.5035	-0.1630	-1.4465	-0.0053	-0.0127	0.0055	31.2346	-7.5123	17.2136	0.6272	-0.2158	0.7278	0.1746
8.02	-9.5005	-0.1610	-1.4432	-0.0032	-0.0131	0.0073	31.2231	-7.3617	17.4447	0.6271	-0.2158	0.7277	0.1746
8.03	-9.5008	-0.1715	-1.4343	-0.0017	-0.0093	0.0013	31.3309	-7.4868	17.2839	0.6272	-0.2158	0.7277	0.1746
8.04	-9.4957	-0.1682	-1.4302	-0.0059	-0.0138	0.0021	31.1404	-7.4669	17.2746	0.6272	-0.2159	0.7277	0.1746
8.05	-9.5006	-0.1688	-1.4296	-0.0014	-0.0130	0.0068	31.2172	-7.4134	17.3723	0.6272	-0.2159	0.7277	0.1746
8.06	-9.5045	-0.1703	-1.4335	-0.0081	-0.0155	0.0067	31.2365	-7.2651	17.2965	0.6272	-0.2159	0.7277	0.1746
8.07	-9.5061	-0.1577	-1.4322	-0.0057	-0.0112	0.0041	31.3572	-7.4588	17.2535	0.6272	-0.2159	0.7277	0.1746
8.08	-9.5065	-0.1519	-1.4291	-0.0010	-0.0101	0.0046	31.6082	-7.4304	17.2338	0.6272	-0.2160	0.7277	0.1746
8.09	-9.5084	-0.1588	-1.4303	-0.0023	-0.0086	0.0053	31.3548	-7.5799	17.3403	0.6271	-0.2160	0.7276	0.1746
8.1	-9.5074	-0.1526	-1.4278	-0.0024	-0.0094	0.0049	31.5183	-7.2891	17.6473	0.6272	-0.2160	0.7277	0.1746
8.11	-9.5064	-0.1613	-1.4242	-0.0030	-0.0164	0.0083	31.9450	-7.3739	17.5844	0.6272	-0.2160	0.7277	0.1746
8.12	-9.5079	-0.1503	-1.4286	0.0034	-0.0104	0.0103	31.7006	-7.4717	17.3949	0.6272	-0.2160	0.7277	0.1746
8.13	-9.5092	-0.1492	-1.4311	0.0084	-0.0131	0.0161	31.5253	-7.4174	17.5842	0.6272	-0.2159	0.7277	0.1746
8.14	-9.5090	-0.1446	-1.4297	0.0039	-0.0131	0.0066	31.1665	-7.4699	17.3500	0.6272	-0.2159	0.7277	0.1746
8.15	-9.5046	-0.1572	-1.4421	0.0049	-0.0147	0.0137	31.3168	-7.5576	17.2234	0.6272	-0.2159	0.7277	0.1746
8.16	-9.5032	-0.1608	-1.4424	0.0057	-0.0104	0.0135	31.2626	-7.4987	17.3179	0.6271	-0.2158	0.7277	0.1746
8.17	-9.5013	-0.1476	-1.4420	0.0041	-0.0114	0.0076	31.1512	-7.4623	17.3046	0.6272	-0.2159	0.7278	0.1746
8.18	-9.5070	-0.1487	-1.4477	0.0026	-0.0127	0.0149	31.4221	-7.5044	17.3726	0.6272	-0.2158	0.7277	0.1746
8.19	-9.5014	-0.1495	-1.4505	0.0015	-0.0187	0.0115	31.3955	-7.4098	17.2731	0.6273	-0.2158	0.7278	0.1746
8.2	-9.5010	-0.1551	-1.4483	0.0036	-0.0066	0.0071	31.4213	-7.3071	17.2147	0.6272	-0.2158	0.7277	0.1745
8.21	-9.4992	-0.1537	-1.4449	-0.0010	-0.0102	0.0069	31.2849	-7.4112	17.2033	0.6272	-0.2158	0.7277	0.1745
8.22	-9.4990	-0.1528	-1.4377	0.0031	-0.0081	0.0099	31.3900	-7.4046	17.3769	0.6272	-0.2158	0.7277	0.1745
8.23	-9.5017	-0.1554	-1.4356	-0.0018	-0.0123	0.0097	31.4105	-7.3197	17.3930	0.6272	-0.2158	0.7277	0.1745
8.24	-9.5043	-0.1549	-1.4268	0.0041	-0.0171	0.0088	31.3186	-7.3044	17.2645	0.6273	-0.2158	0.7278	0.1745
8.25	-9.5043	-0.1592	-1.4224	0.0057	-0.0101	0.0119	31.4504	-7.5910	17.3337	0.6272	-0.2157	0.7277	0.1745
8.26	-9.5074	-0.1556	-1.4283	0.0047	-0.0153	0.0174	31.5609	-7.6744	17.2246	0.6273	-0.2157	0.7278	0.1746
8.27	-9.5044	-0.1529	-1.4224	0.0038	-0.0173	0.0108	31.5740	-7.5212	17.2232	0.6272	-0.2157	0.7277	0.1745
8.28	-9.5003	-0.1500	-1.4234	0.0061	-0.0084	0.0150	31.5701	-7.8063	17.1941	0.6272	-0.2157	0.7278	0.1746
8.29	-9.5040	-0.1473	-1.4310	0.0045	-0.0077	0.0147	31.4044	-7.5773	17.2921	0.6272	-0.2156	0.7278	0.1746
8.3	-9.5160	-0.1428	-1.4317	0.0046	-0.0135	0.0148	31.4729	-7.3555	17.2186	0.6272	-0.2156	0.7278	0.1746
8.31	-9.5052	-0.1376	-1.4472	0.0025	-0.0107	0.0047	31.5017	-7.4942	17.2189	0.6272	-0.2156	0.7278	0.1745
8.32	-9.5028	-0.1330	-1.4444	0.0003	-0.0115	0.0146	31.4743	-7.6010	17.3052	0.6272	-0.2156	0.7278	0.1746
8.33	-9.5050	-0.1333	-1.4614	0.0020	-0.0143	0.0105	31.3187	-7.6640	17.1579	0.6272	-0.2156	0.7278	0.1746
8.34	-9.5051	-0.1293	-1.4553	-0.0021	-0.0141	0.0128	31.4092	-7.5833	17.3213	0.6272	-0.2155	0.7277	0.1746
8.35	-9.5019	-0.1286	-1.4619	0.0044	-0.0128	0.0133	31.3951	-7.2134	17.3812	0.6272	-0.2155	0.7278	0.1746
8.36	-9.5097	-0.1463	-1.4611	0.0004	-0.0097	0.0106	31.2744	-7.3201	17.5332	0.6272	-0.2155	0.7278	0.1746
8.37	-9.5055	-0.1413	-1.4486	0.0083	-0.0141	0.0086	31.1578	-7.4460	17.2972	0.6272	-0.2155	0.7278	0.1746
8.38	-9.5091	-0.1532	-1.4488	0.0038	-0.0157	0.0103	31.2543	-7.2864	17.2078	0.6272	-0.2154	0.7278	0.1745
8.39	-9.5065	-0.1508	-1.4564	-0.0005	-0.0107	0.0098	31.3500	-7.3290	17.2808	0.6272	-0.2154	0.7278	0.1746
8.4	-9.5002	-0.1510	-1.4633	0.0029	-0.0090	0.0108	31.3127	-7.2965	17.1924	0.6273	-0.2154	0.7278	0.1745
8.41	-9.4995	-0.1552	-1.4643	-0.0013	-0.0107	0.0122	31.3334	-7.3892	17.5066	0.6272	-0.2154	0.7278	0.1745
8.42	-9.5011	-0.1534	-1.4737	0.0016	-0.0106	0.0122	31.3068	-7.4152	17.3426	0.6273	-0.2154	0.7279	0.1746
8.43	-9.4994	-0.1548	-1.4641	0.0013	-0.0160	0.0153	31.2215	-7.5021	17.4223	0.6272	-0.2154	0.7278	0.1746
8.44	-9.5049	-0.1571	-1.4526	0.0027	-0.0136	0.0107	31.2883	-7.4629	17.2588	0.6273	-0.2154	0.7279	0.1746
8.45	-9.5002	-0.1613	-1.4609	-0.0014	-0.0151	0.0081	31.5296	-7.5608	17.0711	0.6272	-0.2153	0.7278	0.1746
8.46	-9.5001	-0.1585	-1.4403	-0.0015	-0.0111	0.0106	31.4382	-7.5666	17.4345	0.6273	-0.2154	0.7278	0.1746
8.47	-9.5038	-0.1575	-1.4424	0.0040	-0.0219	0.0118	31.4305	-7.5388	17.4101	0.6273	-0.2153	0.7278	0.1746
8.48	-9.5036	-0.1492	-1.4371	0.0064	-0.0116	0.0112	31.5321	-7.6399	17.1554	0.6273	-0.2153	0.7277	0.1746
8.49	-9.5063	-0.1556	-1.4266	0.0046	-0.0168	0.0099	31.3630	-7.6429	17.3688	0.6274	-0.2153	0.7278	0.1746
8.5	-9.5020	-0.1610	-1.4254	-0.0008	-0.0146	0.0157	31.3313	-7.3865	17.1972	0.6273	-0.2152	0.7278	0.1746
8.51	-9.5036	-0.1571	-1.4181	-0.0003	-0.0165	0.0113	31.3199	-7.4422	17.0801	0.6274	-0.2152	0.7278	0.1746
8.52	-9.4990	-0.1540	-1.4292	0.0084	-0.0169	0.0110	31.3529	-7.5864	17.2279	0.6273	-0.2152	0.7277	0.1746
8.53	-9.5026	-0.1657	-1.4132	0.0044	-0.0151	0.0117	31.2839	-7.5318	17.0974	0.6274	-0.2152	0.7278	0.1746
8.54	-9.5005	-0.1549	-1.4247	0.0022	-0.0155	0.0087	31.2908	-7.4626	17.1293	0.6274	-0.2152	0.7277	0.1746
8.55	-9.4978	-0.1489	-1.4172	0.0108	-0.0109	0.0079	31.3456	-7.4897	17.1177	0.6274	-0.2151	0.7277	0.1746
8.56	-9.5015	-0.1561	-1.4235	0.0056	-0.0120	0.0124	31.2551	-7.3947	17.1154	0.6274	-0.2151	0.7278	0.1746
8.57	-9.5024	-0.1507	-1.4305	0.0085	-0.0102	0.0130	31.3265	-7.2507	17.1262	0.6274	-0.2150	0.7278	0.1745
8.58	-9.4984	-0.1525	-1.4319	-0.0008	-0.0031	0.0138	31.4007	-7.2619	17.2940	0.6274	-0.2150	0.7278	0.1746
8.59	-9.4947	-0.1461	-1.4367	0.0038	-0.0063	0.0059	31.3140	-7.4234	17.2830	0.6273	-0.2150	0.7278	0.1745
8.6	-9.4966	-0.1424	-1.4340	-0.0011	-0.0154	0.0076	31.4522	-7.2767	17.4109	0.6274	-0.2150	0.7278	0.1745
8.61	-9.4994	-0.1483	-1.4425	0.0040	-0.0122	0.0056	31.8763	-7.1877	17.5058	0.6274	-0.2150	0.7278	0.1745
8.62	-9.5084	-0.1589	-1.4432	0.0006	-0.0117	0.0113	31.6745	-7.3207	17.3896	0.6274	-0.2150	0.7278	0.1745
8.63	-9.5103	-0.1513	-1.4453	-0.0008	-0.0160	0.0108	31.5602	-7.5393	17.2148	0.6274	-0.2150	0.7278	0.1745
8.64	-9.4993	-0.1504	-1.4536	0.0022	-0.0104	0.0116	31.3206	-7.5982	17.1179	0.6274	-0.2150	0.7278	0.1745
8.65	-9.5018	-0.1546	-1.4546	0.0048	-0.0160	0.0057	31.4137	-7.5206	17.4674	0.6274	-0.2150	0.7278	0.1745
8.66	-9.5011	-0.1477	-1.4511	0.0047	-0.0099	0.0049	31.5041	-7.6195	17.3610	0.6274	-0.2150	0.7278	0.1745
8.67	-9.5062	-0.1404	-1.4521	-0.0042	-0.0072	0.0051	31.2308	-7.6319	17.3761	0.6274	-0.2150	0.7279	0.1745
8.68	-9.5045	-0.1360	-1.4494	-0.0018	-0.0074	0.0118	31.3884	-7.4716	17.3194	0.6274	-0.2150	0.7278	0.1745
8.69	-9.5025	-0.1406	-1.4504	-0.0023	-0.0098	0.0101	31.5211	-7.4541	17.2486	0.6274	-0.2150	0.7279	0.1745
8.7	-9.5017	-0.1496	-1.4441	-0.0062	-0.0067	0.0060	31.2559	-7.4535	17.3640	0.6273	-0.2150	0.7278	0.1745
8.71	-9.5018	-0.1483	-1.4451	-0.0027	-0.0086	0.0087	31.3367	-7.4767	17.3723	0.6273	-0.2151	0.7279	0.1745
8.72	-9.5033	-0.1525	-1.4314	0.0001	-0.0144	0.0114	31.2174	-7.4095	17.3038	0.6273	-0.2150	0.7279	0.1745
8.73	-9.5118	-0.1547	-1.4358	0.0049	-0.0063	0.0054	31.3037	-7.3532	17.2333	0.6273	-0.2150	0.7278	0.1745
8.74	-9.5023	-0.1531	-1.4412	0.0011	-0.0099	0.0056	31.1914	-7.4878	17.4884	0.6274	-0.2151	0.7279	0.1745
8.75	-9.5042	-0.1458	-1.4399	0.0041	-0.0033	0.0010	31.2689	-7.4391	17.4077	0.6273	-0.2150	0.7279	0.1744
8.76	-9.4987	-0.1420	-1.4506	-0.0021	-0.0053	0.0026	31.2600	-7.2818	17.3028	0.6273	-0.2151	0.7279	0.1744
8.77	-9.5057	-0.1540	-1.4416	0.0025	-0.0104	0.0083	31.1860	-7.3878	17.4901	0.6272	-0.2151	0.7279	0.1744
8.78	-9.5099	-0.1505	-1.4414	0.0037	-0.0091	0.0059	31.2397	-7.3656	17.3630	0.6273	-0.2151	0.7279	0.1744
8.79	-9.5013	-0.1524	-1.4424	-0.0029	-0.0062	0.0023	31.3431	-7.4185	17.2982	0.6273	-0.2151	0.7279	0.1743
8.8	-9.5074	-0.1530	-1.4383	-0.0011	-0.0077	0.0034	31.1767	-7.4950	17.6605	0.6272	-0.2151	0.7279	0.1743
8.81	-9.5036	-0.1553	-1.4321	0.0002	-0.0136	0.0121	31.4212	-7.3456	17.5144	0.6273	-0.2151	0.7280	0.1743
8.82	-9.4993	-0.1517	-1.4323	-0.0030	-0.0131	0.0140	31.4267	-7.2860	17.3918	0.6272	-0.2151	0.7279	0.1743
8.83	-9.5002	-0.1502	-1.4363	0.0040	-0.0126	0.0041	31.1853	-7.6987	17.3537	0.6273	-0.2151	0.7280	0.1743
8.84	-9.5033	-0.1545	-1.4307	-0.0015	-0.0121	0.0101	31.2999	-7.7081	17.3664	0.6272	-0.2151	0.7279	0.1743
8.85	-9.4936	-0.1485	-1.4336	0.0097	-0.0100	0.0108	31.4112	-7.6231	17.2716	0.6273	-0.2151	0.7280	0.1743
8.86	-9.5022	-0.1523	-1.4277	0.0048	-0.0148	0.0045	31.3301	-7.5688	17.4094	0.6273	-0.2150	0.7279	0.1743
8.87	-9.5029	-0.1463	-1.4382	0.0017	-0.0134	0.0045	31.2780	-7.3234	17.2676	0.6273	-0.2151	0.7279	0.1743
8.88	-9.5094	-0.1485	-1.4418	-0.0017	-0.0088	0.0065	31.3985	-7.5800	17.2705	0.6273	-0.2151	0.7279	0.1742
8.89	-9.5133	-0.1518	-1.4316	-0.0024	-0.0100	0.0069	31.2605	-7.5107	17.1645	0.6273	-0.2151	0.7279	0.1742
8.9	-9.5002	-0.1317	-1.4428	-0.0010	-0.0058	0.0124	31.1860	-7.4101	17.3839	0.6273	-0.2151	0.7280	0.1743
8.91	-9.4999	-0.1410	-1.4447	-0.0023	-0.0092	0.0038	31.3131	-7.2848	17.2503	0.6272	-0.2151	0.7279	0.1742
8.92	-9.4981	-0.1334	-1.4480	-0.0024	-0.0064	0.0063	31.2808	-7.3002	17.2869	0.6273	-0.2151	0.7280	0.1742
8.93	-9.5049	-0.1412	-1.4506	-0.0024	-0.0083	0.0060	31.2042	-7.4338	17.5130	0.6272	-0.2151	0.7280	0.1742
8.94	-9.5060	-0.1543	-1.4458	-0.0039	-0.0046	-0.0003	31.1823	-7.4905	17.3426	0.6273	-0.2152	0.7281	0.1742
8.95	-9.5003	-0.1505	-1.4522	-0.0054	-0.0072	0.0055	31.0251	-7.3634	17.3610	0.6271	-0.2152	0.7280	0.1742
8.96	-9.5022	-0.1508	-1.4418	-0.0015	-0.0089	0.0050	31.0817	-7.2945	17.4429	0.6272	-0.2152	0.7280	0.1742
8.97	-9.5022	-0.1552	-1.4412	-0.0017	-0.0082	0.0058	31.1867	-7.2833	17.2675	0.6272	-0.2152	0.7280	0.1742
8.98	-9.5010	-0.1492	-1.4397	-0.0012	-0.0082	0.0051	31.3008	-7.3675	17.2634	0.6271	-0.2152	0.7280	0.1742
8.99	-9.5094	-0.1539	-1.4215	0.0030	-0.0085	0.0094	31.3859	-7.4676	17.2771	0.6272	-0.2153	0.7281	0.1742
9	-9.5016	-0.1603	-1.4425	0.0055	-0.0158	0.0084	31.3979	-7.4689	17.4073	0.6272	-0.2152	0.7280	0.1741
9.01	-9.5062	-0.1539	-1.4505	-0.0012	-0.0086	0.0059	31.5149	-7.3940	17.2543	0.6272	-0.2152	0.7281	0.1741
9.02	-9.5013	-0.1467	-1.4497	-0.0025	-0.0095	0.0030	31.2802	-7.3624	16.9456	0.6271	-0.2152	0.7280	0.1741
9.03	-9.5006	-0.1498	-1.4524	0.0006	-0.0080	0.0081	31.3191	-7.3867	17.4028	0.6272	-0.2153	0.7281	0.1741
9.04	-9.5024	-0.1535	-1.4561	-0.0021	-0.0115	0.0054	31.5678	-7.5170	17.4151	0.6271	-0.2153	0.7280	0.1741
9.05	-9.5013	-0.1555	-1.4556	-0.0030	-0.0109	0.0060	31.4510	-7.2746	17.3326	0.6271	-0.2153	0.7280	0.1741
9.06	-9.5022	-0.1622	-1.4514	-0.0034	-0.0091	0.0057	31.4762	-7.3965	17.3753	0.6271	-0.2153	0.7281	0.1741
9.07	-9.5051	-0.1643	-1.4490	-0.0016	-0.0131	0.0036	31.3006	-7.5829	17.2165	0.6271	-0.2153	0.7280	0.1741
9.08	-9.5037	-0.1746	-1.4524	-0.0030	-0.0060	0.0058	31.3984	-7.5177	17.1651	0.6271	-0.2154	0.7281	0.1741
9.09	-9.5005	-0.1708	-1.4390	0.0007	-0.0092	0.0050	31.5663	-7.5590	17.2730	0.6271	-0.2154	0.7280	0.1741
9.1	-9.5109	-0.1732	-1.4474	0.0055	-0.0065	0.0051	31.6181	-7.3146	17.4920	0.6271	-0.2154	0.7281	0.1741
9.11	-9.5059	-0.1577	-1.4499	-0.0009	-0.0054	0.0033	31.8966	-7.2721	17.7370	0.6271	-0.2154	0.7281	0.1740
9.12	-9.5016	-0.1485	-1.4517	0.0026	-0.0100	0.0062	31.6969	-7.3099	17.5946	0.6271	-0.2154	0.7281	0.1740
9.13	-9.5044	-0.1440	-1.4521	0.0004	-0.0124	0.0073	31.5096	-7.4220	17.3303	0.6271	-0.2154	0.7281	0.1740
9.14	-9.4989	-0.1440	-1.4463	0.0054	-0.0148	0.0041	31.3016	-7.2051	17.3227	0.6271	-0.2154	0.7281	0.1740
9.15	-9.5048	-0.1425	-1.4492	-0.0059	-0.0095	0.0052	31.3066	-7.3809	17.2720	0.6271	-0.2154	0.7281	0.1740
9.16	-9.5081	-0.1387	-1.4532	-0.0089	-0.0138	0.0079	31.3460	-7.4306	17.3200	0.6270	-0.2154	0.7280	0.1740
9.17	-9.5065	-0.1400	-1.4496	0.0072	-0.0168	0.0083	31.2318	-7.3044	17.1493	0.6272	-0.2154	0.7281	0.1740
9.18	-9.5024	-0.1449	-1.4500	0.0088	-0.0168	0.0105	31.2515	-7.3524	17.2817	0.6271	-0.2154	0.7280	0.1740
9.19	-9.5048	-0.1409	-1.4369	0.0036	-0.0139	0.0127	31.2839	-7.5113	17.2272	0.6272	-0.2154	0.7281	0.1740
9.2	-9.5055	-0.1369	-1.4255	0.0027	-0.0168	0.0119	31.5228	-7.4522	17.2040	0.6271	-0.2153	0.7280	0.1740
9.21	-9.5025	-0.1378	-1.4232	0.0055	-0.0186	0.0112	31.4680	-7.6721	17.3193	0.6272	-0.2153	0.7280	0.1740
9.22	-9.5067	-0.1323	-1.4228	0.0060	-0.0122	0.0148	31.6897	-7.6847	17.3182	0.6272	-0.2153	0.7280	0.1740
9.23	-9.5017	-0.1228	-1.4260	0.0038	-0.0173	0.0115	31.4891	-7.3808	17.2217	0.6272	-0.2152	0.7280	0.1740
9.24	-9.5060	-0.1213	-1.4376	0.0103	-0.0134	0.0139	31.4225	-7.4037	17.0134	0.6273	-0.2152	0.7281	0.1740
9.25	-9.5044	-0.1165	-1.4390	0.0001	-0.0073	0.0065	31.4957	-7.4418	17.1554	0.6272	-0.2152	0.7280	0.1740
9.26	-9.5110	-0.1263	-1.4381	0.0073	-0.0118	0.0124	31.3332	-7.5067	17.1009	0.6273	-0.2152	0.7281	0.1740
9.27	-9.5038	-0.1288	-1.4353	0.0032	-0.0141	0.0121	31.3155	-7.4948	17.1999	0.6272	-0.2151	0.7280	0.1739
9.28	-9.5052	-0.1351	-1.4454	-0.0012	-0.0093	0.0127	31.3664	-7.4702	17.2392	0.6272	-0.2151	0.7280	0.1740
9.29	-9.5077	-0.1320	-1.4497	0.0022	-0.0113	0.0100	31.3855	-7.5600	17.4740	0.6272	-0.2151	0.7280	0.1740
9.3	-9.5030	-0.1484	-1.4486	-0.0032	-0.0078	0.0071	31.2394	-7.5151	17.4824	0.6272	-0.2151	0.7280	0.1740
9.31	-9.5026	-0.1487	-1.4405	-0.0009	-0.0088	0.0040	31.2269	-7.4880	17.3583	0.6272	-0.2152	0.7281	0.1739
9.32	-9.5071	-0.1473	-1.4375	-0.0002	-0.0121	0.0073	31.3116	-7.4860	17.1496	0.6272	-0.2152	0.7280	0.1739
9.33	-9.5044	-0.1607	-1.4437	-0.0012	-0.0144	0.0082	31.4628	-7.5229	17.2891	0.6272	-0.2152	0.7281	0.1740
9.34	-9.5062	-0.1636	-1.4443	-0.0011	-0.0128	0.0131	31.3054	-7.3145	17.3012	0.6272	-0.2151	0.7280	0.1740
9.35	-9.5072	-0.1605	-1.4462	0.0061	-0.0156	0.0095	31.3355	-7.3466	17.2685	0.6273	-0.2151	0.7281	0.1740
9.36	-9.5095	-0.1605	-1.4501	-0.0003	-0.0128	0.0059	31.3293	-7.7252	17.3536	0.6272	-0.2151	0.7280	0.1739
9.37	-9.5069	-0.1640	-1.4501	-0.0006	-0.0116	0.0137	31.3191	-7.5052	17.4022	0.6273	-0.2151	0.7280	0.1740
9.38	-9.5056	-0.1512	-1.4477	0.0045	-0.0195	0.0111	31.3404	-7.3983	17.2911	0.6273	-0.2151	0.7280	0.1740
9.39	-9.5029	-0.1543	-1.4464	0.0015	-0.0193	0.0146	31.4179	-7.5231	17.1477	0.6273	-0.2151	0.7280	0.1740
9.4	-9.4960	-0.1554	-1.4486	0.0000	-0.0160	0.0115	31.4471	-7.4590	17.1404	0.6273	-0.2151	0.7280	0.1740
9.41	-9.5018	-0.1501	-1.4425	0.0055	-0.0168	0.0049	31.5944	-7.5767	17.0100	0.6273	-0.2150	0.7279	0.1740
9.42	-9.5167	-0.1574	-1.4395	0.0010	-0.0156	0.0151	31.4738	-7.5662	17.2896	0.6274	-0.2150	0.7280	0.1740
9.43	-9.5053	-0.1581	-1.4441	0.0024	-0.0127	0.0104	31.4872	-7.4403	17.2244	0.6273	-0.2150	0.7279	0.1740
9.44	-9.5118	-0.1644	-1.4353	-0.0039	-0.0147	0.0082	31.3046	-7.3450	17.0606	0.6274	-0.2150	0.7280	0.1740
9.45	-9.5051	-0.1593	-1.4433	-0.0004	-0.0143	0.0128	31.4427	-7.2898	17.2258	0.6273	-0.2150	0.7279	0.1740
9.46	-9.5031	-0.1512	-1.4344	0.0071	-0.0172	0.0117	31.2528	-7.7141	17.3280	0.6274	-0.2150	0.7279	0.1740
9.47	-9.5019	-0.1418	-1.4291	0.0008	-0.0213	0.0107	31.3152	-7.5219	17.2332	0.6274	-0.2149	0.7279	0.1741
9.48	-9.5039	-0.1424	-1.4327	0.0012	-0.0172	0.0100	31.2643	-7.5093	17.1924	0.6274	-0.2149	0.7278	0.1740
9.49	-9.5030	-0.1367	-1.4383	-0.0002	-0.0193	0.0116	31.2479	-7.3585	17.2950	0.6275	-0.2149	0.7279	0.1741
9.5	-9.4987	-0.1344	-1.4345	-0.0002	-0.0170	0.0119	31.3550	-7.2620	17.3181	0.6275	-0.2149	0.7278	0.1741
9.51	-9.5090	-0.1371	-1.4363	-0.0000	-0.0175	0.0157	31.3105	-7.3030	17.4103	0.6275	-0.2149	0.7279	0.1741
9.52	-9.5179	-0.1443	-1.4305	0.0027	-0.0137	0.0096	31.3381	-7.2043	17.2772	0.6275	-0.2148	0.7278	0.1741
9.53	-9.5033	-0.1540	-1.4312	0.0012	-0.0117	0.0051	31.2167	-7.4837	17.2801	0.6275	-0.2148	0.7279	0.1741
9.54	-9.5179	-0.1406	-1.4382	0.0039	-0.0177	0.0068	31.4545	-7.3468	17.1679	0.6276	-0.2148	0.7278	0.1741
9.55	-9.5027	-0.1508	-1.4344	0.0051	-0.0141	0.0117	31.5117	-7.5267	17.2584	0.6276	-0.2148	0.7278	0.1741
9.56	-9.4980	-0.1493	-1.4329	0.0029	-0.0153	0.0139	31.4828	-7.3541	16.9763	0.6276	-0.2148	0.7278	0.1741
9.57	-9.5032	-0.1569	-1.4422	-0.0035	-0.0179	0.0118	31.2773	-7.4918	16.9734	0.6276	-0.2148	0.7278	0.1741
9.58	-9.5062	-0.1460	-1.4386	0.0051	-0.0167	0.0135	31.4361	-7.3991	17.4899	0.6276	-0.2147	0.7278	0.1741
9.59	-9.5074	-0.1407	-1.4456	-0.0029	-0.0206	0.0114	31.5876	-7.5782	17.3799	0.6276	-0.2147	0.7277	0.1741
9.6	-9.5054	-0.1403	-1.4504	0.0072	-0.0155	0.0100	31.6417	-7.5380	17.4034	0.6277	-0.2147	0.7278	0.1741
9.61	-9.5070	-0.1492	-1.4480	0.0046	-0.0157	0.0141	31.9633	-7.2025	17.6736	0.6277	-0.2146	0.7277	0.1741
9.62	-9.5065	-0.1540	-1.4422	-0.0004	-0.0082	0.0093	31.8338	-7.2455	17.5686	0.6277	-0.2146	0.7278	0.1741
9.63	-9.4980	-0.1492	-1.4397	0.0014	-0.0094	0.0082	31.5184	-7.3725	17.3980	0.6277	-0.2146	0.7278	0.1741
9.64	-9.5047	-0.1500	-1.4523	-0.0009	-0.0154	0.0062	31.3401	-7.4818	17.2672	0.6277	-0.2146	0.7278	0.1741
9.65	-9.5044	-0.1506	-1.4557	-0.0018	-0.0198	0.0104	31.2547	-7.4720	17.2724	0.6277	-0.2146	0.7277	0.1741
9.66	-9.5022	-0.1508	-1.4482	-0.0030	-0.0109	0.0072	31.4601	-7.2815	17.2459	0.6277	-0.2146	0.7277	0.1741
9.67	-9.5082	-0.1486	-1.4599	-0.0042	-0.0072	0.0023	31.1503	-7.2761	17.3752	0.6277	-0.2147	0.7278	0.1741
9.68	-9.5035	-0.1528	-1.4500	-0.0033	-0.0069	0.0063	31.0973	-7.4193	17.3085	0.6277	-0.2147	0.7277	0.1741
9.69	-9.5089	-0.1494	-1.4542	0.0008	-0.0078	0.0047	31.1947	-7.2806	17.4437	0.6277	-0.2147	0.7278	0.1741
9.7	-9.5068	-0.1584	-1.4548	-0.0029	-0.0099	0.0068	31.0555	-7.2068	17.3252	0.6276	-0.2147	0.7277	0.1741
9.71	-9.5040	-0.1509	-1.4489	0.0013	-0.0119	0.0054	31.1967	-7.5020	17.2595	0.6277	-0.2147	0.7278	0.1741
9.72	-9.5121	-0.1467	-1.4466	0.0043	-0.0056	0.0095	31.1269	-7.2472	17.3939	0.6277	-0.2147	0.7278	0.1741
9.73	-9.5056	-0.1565	-1.4379	0.0036	-0.0073	0.0110	31.2378	-7.3803	17.2501	0.6276	-0.2147	0.7277	0.1741
9.74	-9.5013	-0.1528	-1.4460	-0.0034	-0.0101	0.0121	31.3370	-7.2500	17.1660	0.6277	-0.2147	0.7279	0.1741
9.75	-9.5104	-0.1596	-1.4446	0.0002	-0.0085	0.0092	31.3195	-7.4505	17.4492	0.6276	-0.2147	0.7278	0.1741
9.76	-9.5173	-0.1576	-1.4548	-0.0018	-0.0125	0.0099	31.5196	-7.3666	17.1699	0.6277	-0.2147	0.7278	0.1741
9.77	-9.5058	-0.1553	-1.4608	0.0000	-0.0111	0.0057	31.3112	-7.4251	17.2693	0.6276	-0.2147	0.7277	0.1741
9.78	-9.5026	-0.1552	-1.4480	-0.0031	-0.0159	0.0088	31.2199	-7.6743	17.3572	0.6276	-0.2147	0.7278	0.1741
9.79	-9.5072	-0.1549	-1.4346	-0.0123	-0.0104	0.0059	31.2724	-7.7037	17.2346	0.6276	-0.2147	0.7278	0.1741
9.8	-9.5118	-0.1547	-1.4315	-0.0022	-0.0127	0.0053	31.4299	-7.6312	17.2937	0.6276	-0.2148	0.7278	0.1741
9.81	-9.5129	-0.1539	-1.4296	-0.0061	-0.0096	0.0077	31.2842	-7.4984	17.2447	0.6276	-0.2148	0.7278	0.1741
9.82	-9.5028	-0.1521	-1.4315	-0.0066	-0.0076	0.0077	31.3853	-7.4314	17.4180	0.6276	-0.2148	0.7278	0.1742
9.83	-9.5062	-0.1503	-1.4345	-0.0047	-0.0179	0.0065	31.5303	-7.4448	17.2430	0.6276	-0.2148	0.7278	0.1742
9.84	-9.5005	-0.1555	-1.4415	-0.0047	-0.0167	0.0108	31.3898	-7.4326	17.3782	0.6276	-0.2148	0.7277	0.1742
9.85	-9.5094	-0.1535	-1.4409	-0.0002	-0.0086	0.0082	31.2949	-7.5547	17.3039	0.6276	-0.2148	0.7278	0.1742
9.86	-9.5092	-0.1459	-1.4420	-0.0048	-0.0105	0.0101	31.2234	-7.4930	17.3259	0.6276	-0.2148	0.7277	0.1742
9.87	-9.5019	-0.1440	-1.4400	-0.0003	-0.0106	0.0108	31.2464	-7.3622	17.5139	0.6276	-0.2148	0.7278	0.1742
9.88	-9.5098	-0.1313	-1.4273	-0.0047	-0.0069	0.0062	31.1664	-7.3665	17.1973	0.6276	-0.2149	0.7277	0.1742
9.89	-9.5033	-0.1389	-1.4386	-0.0003	-0.0083	0.0041	31.0192	-7.2473	17.3015	0.6276	-0.2149	0.7278	0.1742
9.9	-9.5211	-0.1468	-1.4329	-0.0036	-0.0050	0.0061	31.2144	-7.3491	17.1649	0.6276	-0.2149	0.7278	0.1742
9.91	-9.5117	-0.1492	-1.4281	-0.0068	-0.0131	0.0060	31.2533	-7.3613	17.2629	0.6275	-0.2149	0.7277	0.1742
9.92	-9.5049	-0.1498	-1.4357	-0.0044	-0.0134	0.0055	31.0726	-7.4701	17.1492	0.6276	-0.2150	0.7278	0.1742
9.93	-9.5061	-0.1572	-1.4255	-0.0031	-0.0100	0.0079	31.1805	-7.2781	17.2104	0.6275	-0.2149	0.7277	0.1742
9.94	-9.5054	-0.1549	-1.4283	-0.0069	-0.0153	0.0062	31.2035	-7.3406	17.2835	0.6276	-0.2150	0.7278	0.1743
9.95	-9.4990	-0.1444	-1.4403	-0.0051	-0.0123	0.0151	31.3392	-7.4458	17.2488	0.6275	-0.2150	0.7277	0.1743
9.96	-9.5015	-0.1429	-1.4398	-0.0025	-0.0107	0.0057	31.3291	-7.4671	17.1658	0.6276	-0.2150	0.7277	0.1743
9.97	-9.5044	-0.1520	-1.4420	-0.0099	-0.0146	0.0065	31.4505	-7.7154	17.3720	0.6276	-0.2150	0.7277	0.1743
9.98	-9.5133	-0.1543	-1.4423	-0.0031	-0.0152	0.0066	31.3001	-7.6205	17.3270	0.6275	-0.2150	0.7277	0.1743
9.99	-9.5126	-0.1465	-1.4543	-0.0062	-0.0125	0.0124	31.3394	-7.5001	17.4976	0.6276	-0.2151	0.7277	0.1744
10	-9.5140	-0.1487	-1.4504	-0.0053	-0.0090	0.0095	31.2787	-7.4316	17.3347	0.6275	-0.2150	0.7277	0.1744
10.01	-9.5123	-0.1566	-1.4494	-0.0036	-0.0140	0.0060	31.2291	-7.4510	17.2789	0.6276	-0.2151	0.7277	0.1744
10.02	-9.5084	-0.1539	-1.4522	-0.0091	-0.0142	0.0083	31.2336	-7.4415	17.4829	0.6275	-0.2151	0.7276	0.1744
10.03	-9.5158	-0.1716	-1.4499	0.0002	-0.0195	0.0095	31.3558	-7.5495	17.1865	0.6276	-0.2151	0.7277	0.1744
10.04	-9.5003	-0.1632	-1.4504	-0.0068	-0.0186	0.0053	31.2660	-7.4963	17.3607	0.6276	-0.2151	0.7276	0.1744
10.05	-9.5033	-0.1656	-1.4557	-0.0031	-0.0084	0.0078	31.2290	-7.3459	17.2779	0.6276	-0.2151	0.7276	0.1744
10.06	-9.5070	-0.1559	-1.4496	-0.0026	-0.0078	0.0068	31.2491	-7.3841	17.1516	0.6276	-0.2151	0.7276	0.1744
10.07	-9.5049	-0.1670	-1.4497	-0.0031	-0.0108	0.0028	31.2434	-7.4396	17.3192	0.6276	-0.2152	0.7276	0.1744
10.08	-9.4980	-0.1547	-1.4533	-0.0043	-0.0060	0.0071	31.2309	-7.3116	17.1622	0.6276	-0.2152	0.7277	0.1744
10.09	-9.5033	-0.1445	-1.4644	-0.0026	-0.0083	0.0019	31.3138	-7.4831	17.2518	0.6275	-0.2152	0.7276	0.1744
10.1	-9.5105	-0.1381	-1.4528	-0.0048	-0.0096	0.0016	31.5152	-7.1999	17.4841	0.6276	-0.2153	0.7277	0.1744
10.11	-9.5008	-0.1368	-1.4505	0.0062	-0.0115	0.0074	31.5876	-7.2270	17.5527	0.6275	-0.2152	0.7276	0.1744
10.12	-9.5004	-0.1559	-1.4534	-0.0019	-0.0155	0.0127	31.4540	-7.3357	17.4499	0.6276	-0.2152	0.7276	0.1744
10.13	-9.5019	-0.1525	-1.4474	0.0034	-0.0156	0.0130	31.3214	-7.5304	17.3560	0.6276	-0.2152	0.7276	0.1744
10.14	-9.4963	-0.1545	-1.4462	0.0045	-0.0165	0.0109	31.2356	-7.5732	17.1697	0.6276	-0.2151	0.7276	0.1744
10.15	-9.5041	-0.1554	-1.4456	0.0028	-0.0184	0.0086	31.3701	-7.3188	17.1494	0.6276	-0.2151	0.7276	0.1744
10.16	-9.5043	-0.1582	-1.4466	0.0000	-0.0195	0.0053	31.4206	-7.6926	17.3336	0.6276	-0.2151	0.7275	0.1744
10.17	-9.5040	-0.1495	-1.4406	-0.0030	-0.0183	0.0084	31.3896	-7.5377	17.1892	0.6277	-0.2152	0.7276	0.1744
10.18	-9.5017	-0.1499	-1.4495	0.0005	-0.0114	0.0102	31.4047	-7.5001	17.3834	0.6277	-0.2151	0.7275	0.1744
10.19	-9.5007	-0.1487	-1.4438	0.0030	-0.0080	0.0101	31.4025	-7.6757	17.3917	0.6277	-0.2151	0.7276	0.1744
10.2	-9.5040	-0.1518	-1.4407	-0.0021	-0.0159	0.0131	31.3110	-7.6542	17.4059	0.6276	-0.2151	0.7275	0.1744
10.21	-9.4979	-0.1510	-1.4192	-0.0043	-0.0180	0.0072	31.5327	-7.5555	17.2524	0.6277	-0.2151	0.7275	0.1744
10.22	-9.5024	-0.1535	-1.4335	-0.0078	-0.0211	0.0110	31.4104	-7.5936	17.3998	0.6277	-0.2151	0.7275	0.1745
10.23	-9.5024	-0.1483	-1.4323	-0.0014	-0.0158	0.0132	31.3975	-7.5132	17.3065	0.6277	-0.2151	0.7274	0.1745
10.24	-9.5051	-0.1497	-1.4321	-0.0013	-0.0095	0.0090	31.3106	-7.3785	17.2151	0.6278	-0.2151	0.7275	0.1745
10.25	-9.5022	-0.1548	-1.4273	0.0016	-0.0146	0.0116	31.4566	-7.4666	17.3004	0.6277	-0.2151	0.7275	0.1745
10.26	-9.5088	-0.1511	-1.4494	-0.0051	-0.0154	0.0069	31.2721	-7.7046	17.1661	0.6278	-0.2151	0.7275	0.1745
10.27	-9.5051	-0.1520	-1.4462	-0.0006	-0.0123	0.0074	31.2116	-7.4899	17.3254	0.6277	-0.2151	0.7274	0.1745
10.28	-9.5058	-0.1493	-1.4422	0.0002	-0.0148	0.0114	31.3640	-7.3851	17.2786	0.6278	-0.2151	0.7275	0.1745
10.29	-9.5066	-0.1491	-1.4543	0.0024	-0.0160	0.0086	31.2505	-7.4512	17.4979	0.6278	-0.2151	0.7274	0.1745
10.3	-9.5072	-0.1547	-1.4427	0.0021	-0.0108	0.0120	31.2289	-7.3162	17.3345	0.6278	-0.2151	0.7274	0.1745
10.31	-9.5023	-0.1375	-1.4484	0.0012	-0.0120	0.0139	31.2486	-7.4384	17.0752	0.6278	-0.2150	0.7275	0.1745
10.32	-9.5015	-0.1469	-1.4540	0.0101	-0.0167	0.0110	31.2410	-7.6266	17.1682	0.6278	-0.2150	0.7274	0.1745
10.33	-9.5085	-0.1441	-1.4580	0.0068	-0.0185	0.0139	31.2518	-7.5439	17.2704	0.6279	-0.2150	0.7275	0.1745
10.34	-9.5053	-0.1474	-1.4606	-0.0012	-0.0138	0.0151	31.5832	-7.6723	17.4120	0.6278	-0.2149	0.7274	0.1745
10.35	-9.4961	-0.1517	-1.4485	0.0015	-0.0177	0.0157	31.4401	-7.6450	17.3822	0.6279	-0.2149	0.7275	0.1746
10.36	-9.5113	-0.1517	-1.4510	0.0012	-0.0187	0.0099	31.3949	-7.5385	17.2598	0.6279	-0.2149	0.7274	0.1746
10.37	-9.5089	-0.1570	-1.4520	0.0006	-0.0130	0.0094	31.3549	-7.6547	17.3970	0.6279	-0.2149	0.7274	0.1746
10.38	-9.5085	-0.1611	-1.4524	0.0061	-0.0148	0.0082	31.2047	-7.7554	17.3911	0.6279	-0.2148	0.7274	0.1745
10.39	-9.5114	-0.1532	-1.4484	-0.0020	-0.0187	0.0096	31.1611	-7.5157	17.2694	0.6279	-0.2148	0.7274	0.1746
10.4	-9.5039	-0.1585	-1.4336	0.0017	-0.0100	0.0111	31.3173	-7.4859	17.3262	0.6279	-0.2148	0.7274	0.1746
10.41	-9.5055	-0.1510	-1.4296	0.0053	-0.0133	0.0107	31.3238	-7.5169	17.2173	0.6279	-0.2148	0.7273	0.1745
10.42	-9.5013	-0.1525	-1.4274	0.0025	-0.0186	0.0085	31.2303	-7.3725	17.0957	0.6280	-0.2148	0.7274	0.1745
10.43	-9.5130	-0.1480	-1.4378	0.0018	-0.0202	0.0052	31.3836	-7.3451	17.3065	0.6280	-0.2148	0.7273	0.1745
10.44	-9.5043	-0.1518	-1.4312	-0.0041	-0.0218	0.0088	31.4007	-7.4891	17.4937	0.6281	-0.2148	0.7274	0.1746
10.45	-9.5056	-0.1503	-1.4349	0.0002	-0.0228	0.0087	31.3978	-7.5916	17.3960	0.6280	-0.2147	0.7272	0.1745
10.46	-9.5025	-0.1516	-1.4325	-0.0030	-0.0205	0.0060	31.2828	-7.4485	17.2461	0.6281	-0.2148	0.7272	0.1746
10.47	-9.5022	-0.1516	-1.4404	0.0029	-0.0181	0.0062	31.2288	-7.4112	17.2040	0.6282	-0.2148	0.7272	0.1746
10.48	-9.5048	-0.1508	-1.4324	-0.0010	-0.0172	0.0056	31.5324	-7.3947	17.2074	0.6281	-0.2147	0.7272	0.1745
10.49	-9.5020	-0.1573	-1.4257	0.0074	-0.0162	0.0133	31.2477	-7.5304	17.2278	0.6282	-0.2147	0.7272	0.1746
10.5	-9.5078	-0.1610	-1.4289	0.0028	-0.0161	0.0131	31.3091	-7.5789	17.4574	0.6282	-0.2147	0.7272	0.1745
10.51	-9.5008	-0.1508	-1.4456	-0.0021	-0.0167	0.0133	31.6300	-7.6205	17.3046	0.6283	-0.2147	0.7272	0.1746
10.52	-9.5017	-0.1409	-1.4493	0.0020	-0.0120	0.0147	31.3683	-7.7566	17.3153	0.6282	-0.2146	0.7271	0.1746
10.53	-9.4993	-0.1400	-1.4541	0.0020	-0.0139	0.0161	31.4130	-7.6408	17.2969	0.6282	-0.2146	0.7272	0.1746
10.54	-9.5035	-0.1323	-1.4562	-0.0019	-0.0165	0.0103	31.3834	-7.4953	17.4858	0.6282	-0.2146	0.7272	0.1746
10.55	-9.5011	-0.1374	-1.4379	-0.0019	-0.0135	0.0112	31.4269	-7.5654	17.1099	0.6282	-0.2146	0.7271	0.1746
10.56	-9.5079	-0.1454	-1.4300	-0.0035	-0.0155	0.0124	31.2115	-7.5794	17.2461	0.6283	-0.2146	0.7272	0.1747
10.57	-9.5123	-0.1596	-1.4432	-0.0016	-0.0165	0.0131	31.3759	-7.6039	17.4097	0.6283	-0.2146	0.7271	0.1747
10.58	-9.5056	-0.1505	-1.4373	-0.0040	-0.0183	0.0079	31.2164	-7.6880	17.2444	0.6283	-0.2146	0.7271	0.1747
10.59	-9.4995	-0.1494	-1.4402	0.0002	-0.0131	0.0092	31.3955	-7.6565	17.4088	0.6283	-0.2145	0.7270	0.1747
10.6	-9.5019	-0.1464	-1.4393	-0.0007	-0.0166	0.0156	31.4835	-7.4580	17.5983	0.6283	-0.2145	0.7271	0.1747
10.61	-9.5027	-0.1455	-1.4346	-0.0016	-0.0116	0.0096	31.6272	-7.2255	17.6844	0.6283	-0.2145	0.7271	0.1747
10.62	-9.5003	-0.1438	-1.4320	-0.0022	-0.0126	0.0037	31.5414	-7.3162	17.5632	0.6283	-0.2145	0.7271	0.1747
10.63	-9.5063	-0.1458	-1.4419	-0.0014	-0.0116	0.0117	31.2844	-7.3353	17.4054	0.6283	-0.2145	0.7271	0.1747
10.64	-9.5054	-0.1371	-1.4312	-0.0079	-0.0102	0.0044	31.0336	-7.4110	17.2424	0.6283	-0.2145	0.7271	0.1747
10.65	-9.5013	-0.1481	-1.4340	-0.0047	-0.0107	0.0033	31.0941	-7.4884	17.3243	0.6283	-0.2146	0.7271	0.1747
10.66	-9.5082	-0.1482	-1.4459	-0.0060	-0.0057	0.0066	31.2813	-7.3974	17.3729	0.6282	-0.2146	0.7270	0.1747
10.67	-9.5073	-0.1495	-1.4485	-0.0136	-0.0054	0.0035	31.1127	-7.5979	17.2330	0.6283	-0.2147	0.7271	0.1748
10.68	-9.5023	-0.1460	-1.4407	0.0025	-0.0110	0.0101	31.2341	-7.5424	17.1542	0.6283	-0.2147	0.7271	0.1747
10.69	-9.4996	-0.1540	-1.4425	-0.0041	-0.0159	0.0111	31.2199	-7.3734	17.2280	0.6283	-0.2147	0.7271	0.1748
10.7	-9.5093	-0.1588	-1.4483	-0.0084	-0.0124	0.0113	31.4185	-7.6538	17.4656	0.6282	-0.2146	0.7270	0.1748
10.71	-9.5121	-0.1583	-1.4404	-0.0054	-0.0157	0.0129	31.4748	-7.4478	17.4412	0.6283	-0.2147	0.7271	0.1748
10.72	-9.5013	-0.1442	-1.4494	0.0007	-0.0143	0.0119	31.3605	-7.4727	17.2529	0.6283	-0.2146	0.7271	0.1748
10.73	-9.5033	-0.1503	-1.4477	-0.0016	-0.0074	0.0057	31.4835	-7.6175	17.3609	0.6282	-0.2146	0.7270	0.1748
10.74	-9.5055	-0.1520	-1.4483	-0.0016	-0.0093	0.0128	31.4957	-7.5048	17.3535	0.6283	-0.2147	0.7271	0.1749
10.75	-9.5038	-0.1546	-1.4448	-0.0045	-0.0145	0.0106	31.1914	-7.6625	17.2358	0.6283	-0.2146	0.7271	0.1749
10.76	-9.5083	-0.1434	-1.4573	-0.0033	-0.0121	0.0097	31.2105	-7.4904	17.0751	0.6283	-0.2147	0.7271	0.1749
10.77	-9.5049	-0.1494	-1.4481	-0.0035	-0.0131	0.0092	31.3237	-7.3165	17.1906	0.6282	-0.2146	0.7270	0.1749
10.78	-9.5017	-0.1419	-1.4464	-0.0031	-0.0115	0.0033	31.4551	-7.5076	17.1490	0.6283	-0.2147	0.7271	0.1749
10.79	-9.5039	-0.1398	-1.4429	0.0001	-0.0103	0.0080	31.2896	-7.4769	17.2781	0.6283	-0.2147	0.7271	0.1749
10.8	-9.4996	-0.1535	-1.4408	-0.0090	-0.0109	0.0101	31.2668	-7.4382	17.4042	0.6282	-0.2147	0.7270	0.1749
10.81	-9.5075	-0.1425	-1.4433	-0.0017	-0.0171	0.0022	31.4511	-7.3401	17.1335	0.6283	-0.2147	0.7271	0.1749
10.82	-9.5015	-0.1519	-1.4405	-0.0049	-0.0123	0.0059	31.2397	-7.5131	17.3279	0.6283	-0.2147	0.7270	0.1749
10.83	-9.4969	-0.1516	-1.4399	-0.0054	-0.0090	0.0087	31.2677	-7.4758	17.1962	0.6283	-0.2148	0.7271	0.1749
10.84	-9.5040	-0.1497	-1.4285	-0.0003	-0.0168	0.0077	31.1383	-7.4317	17.4786	0.6282	-0.2147	0.7270	0.1749
10.85	-9.5051	-0.1421	-1.4305	-0.0039	-0.0187	0.0017	31.1801	-7.3490	17.3785	0.6283	-0.2148	0.7270	0.1749
10.86	-9.5054	-0.1433	-1.4331	-0.0035	-0.0135	0.0076	31.2456	-7.3860	17.4024	0.6283	-0.2148	0.7270	0.1749
10.87	-9.5020	-0.1382	-1.4256	-0.0002	-0.0157	0.0092	31.0287	-7.5389	17.3894	0.6283	-0.2148	0.7270	0.1749
10.88	-9.5038	-0.1398	-1.4353	-0.0042	-0.0147	0.0103	31.2830	-7.5193	17.2476	0.6283	-0.2148	0.7269	0.1749
10.89	-9.4979	-0.1357	-1.4308	-0.0038	-0.0124	0.0101	31.4239	-7.5281	17.3831	0.6283	-0.2148	0.7269	0.1749
10.9	-9.5076	-0.1398	-1.4384	0.0032	-0.0129	0.0082	31.3941	-7.4914	17.3600	0.6284	-0.2148	0.7270	0.1749
10.91	-9.4990	-0.1444	-1.4430	-0.0035	-0.0142	0.0095	31.3962	-7.3260	17.2721	0.6283	-0.2148	0.7269	0.1749
10.92	-9.4965	-0.1426	-1.4265	-0.0010	-0.0173	0.0136	31.4196	-7.3914	17.1669	0.6284	-0.2148	0.7270	0.1750
10.93	-9.5025	-0.1476	-1.4419	0.0062	-0.0077	0.0064	31.3679	-7.4297	17.1624	0.6284	-0.2147	0.7269	0.1749
10.94	-9.5062	-0.1533	-1.4492	0.0022	-0.0075	0.0092	31.2964	-7.5141	17.2848	0.6284	-0.2148	0.7270	0.1749
10.95	-9.5006	-0.1429	-1.4372	-0.0029	-0.0143	0.0115	31.4046	-7.5199	17.5868	0.6283	-0.2147	0.7269	0.1749
10.96	-9.5017	-0.1433	-1.4466	0.0018	-0.0133	0.0115	31.4013	-7.4352	17.3595	0.6284	-0.2147	0.7270	0.1749
10.97	-9.5047	-0.1544	-1.4552	-0.0023	-0.0086	0.0115	31.3732	-7.5714	17.4065	0.6284	-0.2147	0.7270	0.1749
10.98	-9.5026	-0.1478	-1.4490	-0.0030	-0.0063	0.0032	31.2125	-7.4264	17.4661	0.6283	-0.2147	0.7269	0.1749
10.99	-9.5038	-0.1563	-1.4517	0.0005	-0.0032	0.0088	31.2648	-7.5388	17.3213	0.6284	-0.2147	0.7271	0.1749
11	-9.5074	-0.1496	-1.4542	-0.0042	-0.0068	0.0061	31.2031	-7.5283	17.3932	0.6283	-0.2148	0.7270	0.1749
11.01	-9.4966	-0.1492	-1.4438	-0.0027	-0.0118	0.0128	31.3295	-7.4937	17.4790	0.6283	-0.2148	0.7271	0.1749
11.02	-9.5068	-0.1493	-1.4387	-0.0039	-0.0107	0.0060	31.2193	-7.2424	17.3237	0.6282	-0.2147	0.7270	0.1749
11.03	-9.5144	-0.1536	-1.4453	0.0004	-0.0068	0.0012	31.2793	-7.5160	17.2651	0.6283	-0.2148	0.7270	0.1749
11.04	-9.5076	-0.1542	-1.4487	-0.0046	-0.0055	0.0030	31.1349	-7.3338	17.2391	0.6283	-0.2148	0.7270	0.1749
11.05	-9.5050	-0.1506	-1.4362	-0.0054	-0.0101	0.0119	31.1045	-7.2441	17.3333	0.6282	-0.2148	0.7270	0.1749
11.06	-9.5059	-0.1549	-1.4277	-0.0090	-0.0138	0.0075	31.2802	-7.3869	17.4439	0.6283	-0.2149	0.7270	0.1749
11.07	-9.5064	-0.1518	-1.4430	0.0020	-0.0083	0.0065	31.2147	-7.5906	17.1999	0.6282	-0.2149	0.7270	0.1749
11.08	-9.5113	-0.1490	-1.4270	0.0027	-0.0071	0.0050	31.4832	-7.6053	17.3599	0.6282	-0.2149	0.7271	0.1749
11.09	-9.5086	-0.1533	-1.4450	-0.0022	-0.0101	0.0114	31.4542	-7.6108	17.3580	0.6282	-0.2148	0.7270	0.1749
11.1	-9.5025	-0.1490	-1.4460	0.0003	-0.0167	0.0063	31.7144	-7.4811	17.4647	0.6283	-0.2149	0.7271	0.1749
11.11	-9.5085	-0.1561	-1.4410	-0.0013	-0.0125	0.0074	31.7892	-7.4164	17.9266	0.6282	-0.2149	0.7270	0.1749
11.12	-9.5105	-0.1545	-1.4400	0.0004	-0.0125	0.0138	31.5944	-7.4471	17.6873	0.6283	-0.2148	0.7270	0.1749
11.13	-9.5023	-0.1500	-1.4335	-0.0015	-0.0119	0.0152	31.4475	-7.4396	17.4503	0.6282	-0.2148	0.7270	0.1749
11.14	-9.5093	-0.1517	-1.4342	0.0069	-0.0094	0.0099	31.1497	-7.4489	17.3591	0.6282	-0.2148	0.7271	0.1749
11.15	-9.5077	-0.1557	-1.4435	0.0018	-0.0185	0.0143	31.4411	-7.6200	17.1563	0.6283	-0.2148	0.7271	0.1749
11.16	-9.4962	-0.1609	-1.4451	-0.0018	-0.0096	0.0114	31.2468	-7.4795	17.3273	0.6282	-0.2147	0.7270	0.1749
11.17	-9.5009	-0.1526	-1.4437	0.0004	-0.0119	0.0059	31.1431	-7.5603	17.2931	0.6283	-0.2148	0.7271	0.1749
11.18	-9.5029	-0.1504	-1.4508	-0.0020	-0.0101	0.0101	31.3099	-7.3847	17.3062	0.6282	-0.2148	0.7270	0.1749
11.19	-9.5077	-0.1524	-1.4570	-0.0013	-0.0178	0.0145	31.5700	-7.4270	17.3105	0.6283	-0.2148	0.7271	0.1749
11.2	-9.5050	-0.1489	-1.4382	0.0008	-0.0155	0.0101	31.4889	-7.6316	17.3011	0.6282	-0.2147	0.7270	0.1749
11.21	-9.5080	-0.1478	-1.4411	0.0019	-0.0118	0.0117	31.1431	-7.3464	17.4368	0.6283	-0.2147	0.7270	0.1749
11.22	-9.5063	-0.1468	-1.4378	0.0078	-0.0090	0.0113	31.1981	-7.5128	17.2828	0.6283	-0.2147	0.7271	0.1749
11.23	-9.5022	-0.1462	-1.4286	-0.0026	-0.0078	0.0135	31.3464	-7.5021	17.1216	0.6282	-0.2147	0.7270	0.1749
11.24	-9.5102	-0.1506	-1.4242	0.0027	-0.0137	0.0124	31.2193	-7.4242	17.0221	0.6283	-0.2147	0.7271	0.1749
11.25	-9.5047	-0.1631	-1.4236	-0.0005	-0.0070	0.0054	31.2958	-7.4084	17.2172	0.6282	-0.2146	0.7271	0.1749
11.26	-9.5136	-0.1555	-1.4343	-0.0012	-0.0127	0.0127	31.5148	-7.4735	17.3667	0.6283	-0.2147	0.7271	0.1749
11.27	-9.5023	-0.1518	-1.4262	0.0009	-0.0154	0.0132	31.3959	-7.5938	17.1794	0.6282	-0.2146	0.7270	0.1749
11.28	-9.5064	-0.1414	-1.4365	0.0046	-0.0167	0.0155	31.2014	-7.5974	17.2670	0.6283	-0.2146	0.7271	0.1749
11.29	-9.5084	-0.1416	-1.4474	0.0034	-0.0153	0.0132	31.2886	-7.5576	17.2867	0.6283	-0.2145	0.7271	0.1749
11.3	-9.5082	-0.1496	-1.4394	0.0033	-0.0122	0.0161	31.4011	-7.4152	17.1100	0.6283	-0.2145	0.7271	0.1750
11.31	-9.5062	-0.1419	-1.4433	0.0127	-0.0120	0.0119	31.4147	-7.4165	17.2238	0.6283	-0.2145	0.7271	0.1749
11.32	-9.5152	-0.1517	-1.4549	-0.0028	-0.0126	0.0090	31.4969	-7.4361	17.3654	0.6283	-0.2145	0.7271	0.1749
11.33	-9.5117	-0.1429	-1.4481	0.0011	-0.0110	0.0090	31.2691	-7.5821	17.1696	0.6283	-0.2145	0.7271	0.1749
11.34	-9.5063	-0.1635	-1.4438	0.0112	-0.0134	0.0111	31.2182	-7.6052	17.0952	0.6283	-0.2144	0.7270	0.1749
11.35	-9.5122	-0.1542	-1.4490	0.0068	-0.0110	0.0082	31.3682	-7.4657	17.4715	0.6283	-0.2144	0.7271	0.1749
11.36	-9.4976	-0.1532	-1.4508	0.0069	-0.0073	0.0070	31.2408	-7.4158	17.3282	0.6283	-0.2144	0.7271	0.1748
11.37	-9.5066	-0.1582	-1.4442	0.0076	-0.0120	0.0110	31.3039	-7.4242	17.5144	0.6283	-0.2143	0.7272	0.1748
11.38	-9.5187	-0.1547	-1.4556	0.0018	-0.0087	0.0058	31.3154	-7.4314	17.2692	0.6283	-0.2143	0.7271	0.1748
11.39	-9.5024	-0.1639	-1.4451	0.0006	-0.0064	0.0044	31.4637	-7.3961	17.2162	0.6283	-0.2143	0.7272	0.1747
11.4	-9.5029	-0.1554	-1.4395	0.0019	-0.0094	0.0074	31.2649	-7.3065	17.1834	0.6283	-0.2143	0.7272	0.1747
11.41	-9.5053	-0.1489	-1.4433	0.0011	-0.0111	0.0125	31.2978	-7.4244	17.3825	0.6282	-0.2143	0.7271	0.1747
11.42	-9.5088	-0.1496	-1.4498	0.0043	-0.0094	0.0061	31.4151	-7.5227	17.4061	0.6283	-0.2143	0.7272	0.1747
11.43	-9.5060	-0.1523	-1.4407	0.0039	-0.0115	0.0070	31.1530	-7.6275	17.2338	0.6283	-0.2143	0.7272	0.1747
11.44	-9.5166	-0.1474	-1.4289	0.0028	-0.0119	0.0145	31.3984	-7.5169	17.2133	0.6284	-0.2143	0.7273	0.1747
