time	acceleration_x	acceleration_y	acceleration_z	gyroscope_x	gyroscope_y	gyroscope_z	magnetometer_x	magnetometer_y	magnetometer_z	quaternion_w	quaternion_x	quaternion_y	quaternion_z
0	-0.2336	-9.1132	-2.0891	0.0197	-0.0034	0.0023	8.7878	23.0244	11.6569	0.5988	-0.7424	0.2427	-0.1771
0.01	-0.2215	-9.1024	-2.0788	0.0123	-0.0006	0.0076	8.8287	22.8805	11.4855	0.5988	-0.7424	0.2427	-0.1770
0.02	-0.2230	-9.0971	-2.0802	0.0095	0.0032	0.0112	8.8169	22.9931	11.5066	0.5988	-0.7425	0.2427	-0.1770
0.03	-0.2347	-9.1065	-2.0811	0.0139	0.0012	0.0086	8.6831	23.0710	11.6293	0.5987	-0.7425	0.2427	-0.1770
0.04	-0.2463	-9.0993	-2.0838	0.0159	0.0070	0.0069	9.0363	22.8515	11.4978	0.5988	-0.7425	0.2427	-0.1770
0.05	-0.2516	-9.0913	-2.0817	0.0111	-0.0108	0.0102	9.0571	23.0750	11.5917	0.5987	-0.7424	0.2427	-0.1770
0.06	-0.2598	-9.0997	-2.0906	0.0199	-0.0038	0.0068	8.9774	23.1533	11.6739	0.5988	-0.7425	0.2427	-0.1770
0.07	-0.2574	-9.1022	-2.1051	0.0183	-0.0059	0.0113	8.9039	23.0074	11.7089	0.5988	-0.7425	0.2427	-0.1769
0.08	-0.2513	-9.0965	-2.1039	0.0182	-0.0014	0.0067	8.9839	22.8962	11.8135	0.5988	-0.7425	0.2427	-0.1769
0.09	-0.2463	-9.0973	-2.0994	0.0173	-0.0060	0.0082	9.1892	22.9910	11.5719	0.5988	-0.7425	0.2427	-0.1769
0.1	-0.2399	-9.1048	-2.1062	0.0197	-0.0074	0.0111	8.8636	22.9727	11.4534	0.5988	-0.7425	0.2426	-0.1769
0.11	-0.2327	-9.0948	-2.0998	0.0183	-0.0054	0.0108	8.9847	22.8177	11.4117	0.5988	-0.7425	0.2426	-0.1768
0.12	-0.2303	-9.0941	-2.1095	0.0109	-0.0065	0.0078	8.9625	22.8130	11.4201	0.5988	-0.7425	0.2426	-0.1768
0.13	-0.2324	-9.1047	-2.1175	0.0144	-0.0020	0.0064	8.9163	22.9093	11.4201	0.5988	-0.7426	0.2426	-0.1768
0.14	-0.2309	-9.1033	-2.1219	0.0169	-0.0017	0.0076	9.2465	23.0697	11.7093	0.5988	-0.7425	0.2426	-0.1768
0.15	-0.2302	-9.0899	-2.1096	0.0199	0.0030	0.0056	9.6307	23.2260	11.8362	0.5988	-0.7426	0.2426	-0.1768
0.16	-0.2391	-9.0998	-2.1031	0.0187	0.0004	0.0096	9.3909	23.0573	11.5729	0.5988	-0.7425	0.2426	-0.1768
0.17	-0.2464	-9.1048	-2.1187	0.0179	-0.0040	0.0100	8.9501	23.4651	11.3967	0.5988	-0.7425	0.2426	-0.1767
0.18	-0.2458	-9.0998	-2.1068	0.0185	0.0090	0.0039	8.8654	23.7549	11.5391	0.5988	-0.7425	0.2426	-0.1768
0.19	-0.2468	-9.0927	-2.1049	0.0179	0.0067	0.0036	8.6603	22.9647	11.5275	0.5988	-0.7425	0.2426	-0.1768
0.2	-0.2487	-9.0986	-2.1090	0.0195	0.0033	0.0063	8.9723	23.1833	11.6565	0.5988	-0.7426	0.2426	-0.1769
0.21	-0.2469	-9.0957	-2.1049	0.0186	-0.0011	0.0101	8.7657	23.0329	11.7580	0.5988	-0.7425	0.2426	-0.1768
0.22	-0.2481	-9.0917	-2.0905	0.0123	-0.0023	0.0098	8.7807	22.9152	11.6137	0.5988	-0.7425	0.2426	-0.1768
0.23	-0.2478	-9.1007	-2.0954	0.0163	-0.0017	0.0106	8.7596	23.0555	11.3291	0.5987	-0.7425	0.2426	-0.1768
0.24	-0.2478	-9.1014	-2.0988	0.0126	0.0011	0.0061	8.7177	23.0410	11.4001	0.5988	-0.7425	0.2427	-0.1768
0.25	-0.2500	-9.0914	-2.0842	0.0136	0.0012	0.0075	8.5961	23.1694	11.6643	0.5987	-0.7425	0.2427	-0.1768
0.26	-0.2536	-9.0993	-2.0870	0.0210	0.0046	0.0101	8.8049	23.0122	11.7695	0.5987	-0.7425	0.2427	-0.1768
0.27	-0.2545	-9.1045	-2.0913	0.0195	-0.0008	0.0121	8.8003	23.1609	11.4904	0.5988	-0.7425	0.2427	-0.1768
0.28	-0.2506	-9.0991	-2.0817	0.0199	-0.0022	0.0110	8.7288	23.0522	11.3398	0.5988	-0.7425	0.2427	-0.1768
0.29	-0.2479	-9.0958	-2.0834	0.0180	0.0003	0.0095	8.9060	22.6863	11.4000	0.5988	-0.7425	0.2427	-0.1768
0.3	-0.2498	-9.1051	-2.0884	0.0152	0.0058	0.0055	8.8959	22.7944	11.3703	0.5987	-0.7424	0.2427	-0.1768
0.31	-0.2453	-9.1008	-2.0853	0.0111	0.0022	0.0125	8.9786	23.0019	11.4927	0.5988	-0.7425	0.2428	-0.1768
0.32	-0.2439	-9.0882	-2.0831	0.0220	-0.0020	0.0074	8.8411	22.9211	11.5973	0.5988	-0.7425	0.2428	-0.1768
0.33	-0.2467	-9.1023	-2.0900	0.0121	-0.0029	0.0074	8.9870	23.0421	11.4088	0.5988	-0.7425	0.2428	-0.1768
0.34	-0.2439	-9.1049	-2.0934	0.0123	0.0009	0.0111	8.8916	23.0478	11.2427	0.5987	-0.7425	0.2428	-0.1768
0.35	-0.2479	-9.0941	-2.0900	0.0063	-0.0059	0.0103	8.7705	22.8121	11.5925	0.5987	-0.7425	0.2428	-0.1767
0.36	-0.2517	-9.0963	-2.0867	0.0104	-0.0063	0.0107	8.8734	23.1334	11.6159	0.5987	-0.7426	0.2428	-0.1767
0.37	-0.2466	-9.1058	-2.0924	0.0172	0.0014	0.0092	8.8993	23.0311	11.4206	0.5987	-0.7425	0.2428	-0.1766
0.38	-0.2419	-9.0935	-2.0903	0.0124	0.0023	0.0054	8.8021	23.0595	11.4963	0.5987	-0.7426	0.2428	-0.1767
0.39	-0.2408	-9.0922	-2.0884	0.0187	0.0042	0.0116	8.8049	22.9848	11.2444	0.5987	-0.7426	0.2428	-0.1767
0.4	-0.2420	-9.1010	-2.0971	0.0210	-0.0002	0.0107	8.8809	23.0054	11.4372	0.5987	-0.7426	0.2428	-0.1767
0.41	-0.2427	-9.0988	-2.0959	0.0155	0.0027	0.0041	8.8983	23.1324	11.5364	0.5987	-0.7425	0.2428	-0.1767
0.42	-0.2379	-9.0918	-2.0886	0.0126	-0.0043	0.0120	8.7748	23.1355	11.4922	0.5987	-0.7426	0.2428	-0.1766
0.43	-0.2395	-9.0969	-2.0981	0.0217	0.0020	0.0071	8.8467	23.0613	11.4966	0.5987	-0.7426	0.2428	-0.1767
0.44	-0.2459	-9.1044	-2.1014	0.0140	-0.0087	0.0087	8.7306	23.0948	11.5042	0.5987	-0.7425	0.2428	-0.1766
0.45	-0.2475	-9.0993	-2.0924	0.0152	-0.0044	0.0085	8.6360	23.1419	11.7493	0.5987	-0.7426	0.2428	-0.1766
0.46	-0.2472	-9.0952	-2.0889	0.0190	-0.0011	0.0103	8.9013	22.8303	11.4620	0.5987	-0.7426	0.2428	-0.1766
0.47	-0.2493	-9.1057	-2.0973	0.0193	-0.0044	0.0089	8.8675	22.7778	11.6659	0.5987	-0.7426	0.2428	-0.1766
0.48	-0.2484	-9.1021	-2.0973	0.0180	-0.0062	0.0060	8.9823	22.8654	11.5613	0.5987	-0.7425	0.2428	-0.1765
0.49	-0.2435	-9.0947	-2.0875	0.0174	-0.0101	0.0059	8.9593	23.0084	11.5223	0.5987	-0.7426	0.2427	-0.1765
0.5	-0.2400	-9.1043	-2.0892	0.0115	-0.0079	0.0101	8.8324	22.8559	11.4483	0.5987	-0.7426	0.2427	-0.1765
0.51	-0.2349	-9.1102	-2.1003	0.0125	-0.0054	0.0098	8.7878	22.7337	11.4602	0.5987	-0.7426	0.2427	-0.1764
0.52	-0.2239	-9.0933	-2.0892	0.0197	-0.0080	0.0054	8.9228	23.0123	11.4798	0.5987	-0.7427	0.2427	-0.1764
0.53	-0.2201	-9.0923	-2.0861	0.0193	0.0011	0.0053	8.9692	22.9092	11.5479	0.5987	-0.7426	0.2427	-0.1764
0.54	-0.2206	-9.1051	-2.0992	0.0195	-0.0091	0.0067	9.0129	22.8841	11.3840	0.5988	-0.7427	0.2427	-0.1764
0.55	-0.2198	-9.1017	-2.0973	0.0141	-0.0082	0.0075	9.1595	23.1706	11.3485	0.5987	-0.7426	0.2426	-0.1763
0.56	-0.2180	-9.0975	-2.0930	0.0165	0.0041	0.0074	8.9183	23.0784	11.5228	0.5988	-0.7427	0.2426	-0.1764
0.57	-0.2249	-9.1054	-2.0946	0.0198	-0.0021	0.0093	8.7215	22.9281	11.5051	0.5987	-0.7426	0.2426	-0.1764
0.58	-0.2347	-9.1008	-2.0919	0.0190	0.0044	0.0025	8.7864	23.2143	11.4372	0.5988	-0.7427	0.2426	-0.1764
0.59	-0.2458	-9.0929	-2.0931	0.0197	0.0050	0.0026	8.9073	23.2199	11.4470	0.5987	-0.7426	0.2426	-0.1764
0.6	-0.2501	-9.0952	-2.0947	0.0196	-0.0017	0.0081	8.9016	22.9350	11.4986	0.5988	-0.7426	0.2426	-0.1764
0.61	-0.2551	-9.0998	-2.1048	0.0196	0.0039	0.0106	8.8451	23.0601	11.7370	0.5988	-0.7426	0.2426	-0.1764
0.62	-0.2507	-9.0915	-2.0991	0.0194	-0.0009	0.0066	8.7763	23.1678	11.3975	0.5987	-0.7426	0.2426	-0.1764
0.63	-0.2462	-9.0935	-2.0982	0.0209	-0.0050	0.0070	8.9417	22.8832	11.6282	0.5988	-0.7427	0.2426	-0.1764
0.64	-0.2448	-9.1059	-2.1112	0.0155	-0.0119	0.0062	8.9578	22.8973	11.8726	0.5988	-0.7426	0.2426	-0.1764
0.65	-0.2441	-9.1010	-2.1027	0.0174	0.0003	0.0075	9.4620	22.8053	11.7760	0.5988	-0.7427	0.2426	-0.1764
0.66	-0.2399	-9.0932	-2.0983	0.0201	-0.0039	0.0102	9.2921	22.9842	11.5892	0.5988	-0.7426	0.2425	-0.1763
0.67	-0.2526	-9.0990	-2.0992	0.0173	-0.0050	0.0100	9.1457	23.2589	11.5540	0.5988	-0.7426	0.2425	-0.1763
0.68	-0.2604	-9.1029	-2.1021	0.0192	0.0028	0.0051	9.2384	23.4528	11.6325	0.5988	-0.7426	0.2425	-0.1763
0.69	-0.2638	-9.0958	-2.0956	0.0148	-0.0041	0.0061	8.8347	23.0573	11.4659	0.5988	-0.7426	0.2425	-0.1763
0.7	-0.2665	-9.0923	-2.0947	0.0152	0.0013	0.0086	8.9072	23.0487	11.4292	0.5989	-0.7427	0.2425	-0.1763
0.71	-0.2692	-9.0958	-2.0981	0.0108	0.0013	0.0005	8.9820	23.0788	11.3504	0.5988	-0.7427	0.2425	-0.1763
0.72	-0.2702	-9.0991	-2.0904	0.0150	-0.0057	0.0066	8.9328	23.0121	11.5575	0.5988	-0.7427	0.2425	-0.1763
0.73	-0.2675	-9.0983	-2.0825	0.0182	-0.0091	0.0042	9.0610	22.8632	11.5896	0.5987	-0.7426	0.2424	-0.1763
0.74	-0.2618	-9.1025	-2.0769	0.0194	-0.0034	0.0023	9.0061	23.1413	11.4961	0.5988	-0.7427	0.2424	-0.1763
0.75	-0.2447	-9.1013	-2.0723	0.0193	0.0016	0.0036	8.8006	23.0748	11.5817	0.5988	-0.7427	0.2424	-0.1763
0.76	-0.2371	-9.0983	-2.0685	0.0197	-0.0036	0.0074	8.7861	22.8387	11.3613	0.5988	-0.7427	0.2424	-0.1763
0.77	-0.2288	-9.1016	-2.0635	0.0170	0.0024	0.0022	8.9060	23.0317	11.5230	0.5988	-0.7427	0.2424	-0.1763
0.78	-0.2268	-9.1070	-2.0662	0.0101	0.0017	-0.0014	8.9579	23.0248	11.6063	0.5988	-0.7427	0.2423	-0.1763
0.79	-0.2314	-9.1034	-2.0685	0.0194	0.0065	0.0055	8.9823	22.9688	11.5422	0.5988	-0.7428	0.2424	-0.1764
0.8	-0.2357	-9.0999	-2.0646	0.0178	0.0066	0.0039	8.8655	22.9532	11.7612	0.5987	-0.7427	0.2423	-0.1764
0.81	-0.2459	-9.1018	-2.0655	0.0174	0.0120	0.0046	8.8050	23.0120	11.7433	0.5988	-0.7428	0.2424	-0.1764
0.82	-0.2451	-9.0998	-2.0661	0.0190	0.0094	0.0042	8.8860	23.0184	11.4510	0.5987	-0.7427	0.2424	-0.1765
0.83	-0.2318	-9.0986	-2.0739	0.0182	0.0019	0.0075	8.9337	22.9632	11.6065	0.5987	-0.7427	0.2424	-0.1765
0.84	-0.2221	-9.1010	-2.0777	0.0163	-0.0084	0.0050	9.0557	22.9702	11.4682	0.5987	-0.7427	0.2423	-0.1765
0.85	-0.2125	-9.1010	-2.0952	0.0164	-0.0020	0.0088	9.0594	22.9061	11.4174	0.5987	-0.7427	0.2423	-0.1764
0.86	-0.1992	-9.1049	-2.0957	0.0204	0.0045	0.0064	8.9803	23.0046	11.3582	0.5987	-0.7427	0.2424	-0.1765
0.87	-0.1977	-9.1097	-2.1064	0.0184	-0.0070	0.0096	8.9682	22.9730	11.6202	0.5987	-0.7427	0.2423	-0.1764
0.88	-0.2031	-9.1027	-2.1073	0.0182	-0.0014	0.0051	8.8409	22.9502	11.3108	0.5988	-0.7428	0.2423	-0.1764
0.89	-0.2092	-9.0964	-2.1094	0.0194	-0.0030	0.0071	8.9742	23.0386	11.4278	0.5988	-0.7427	0.2423	-0.1764
0.9	-0.2288	-9.0994	-2.1044	0.0195	-0.0038	0.0122	9.0617	22.9963	11.6683	0.5988	-0.7428	0.2423	-0.1764
0.91	-0.2385	-9.0970	-2.1057	0.0176	-0.0031	0.0099	9.0484	23.0496	11.3656	0.5987	-0.7427	0.2423	-0.1764
0.92	-0.2553	-9.0951	-2.1031	0.0190	-0.0084	0.0086	9.0215	23.1706	11.2905	0.5988	-0.7427	0.2423	-0.1763
0.93	-0.2609	-9.0975	-2.1154	0.0170	0.0029	0.0068	8.7949	23.1096	11.7560	0.5988	-0.7427	0.2423	-0.1763
0.94	-0.2635	-9.0964	-2.1234	0.0187	-0.0029	0.0098	9.0566	22.8745	11.5438	0.5988	-0.7427	0.2423	-0.1763
0.95	-0.2561	-9.0964	-2.1239	0.0165	-0.0017	0.0068	9.0537	23.0185	11.2803	0.5989	-0.7428	0.2423	-0.1763
0.96	-0.2514	-9.0911	-2.1198	0.0136	-0.0085	0.0082	8.8954	23.0426	11.5951	0.5988	-0.7427	0.2422	-0.1763
0.97	-0.2476	-9.1022	-2.1266	0.0123	-0.0041	0.0024	8.8775	22.9345	11.5654	0.5988	-0.7428	0.2422	-0.1763
0.98	-0.2437	-9.0966	-2.1256	0.0157	-0.0064	0.0018	8.8662	23.0692	11.5807	0.5987	-0.7427	0.2422	-0.1762
0.99	-0.2404	-9.0972	-2.1148	0.0154	-0.0027	0.0005	8.9125	23.0584	11.4716	0.5988	-0.7428	0.2421	-0.1763
1	-0.2386	-9.1050	-2.1149	0.0173	-0.0043	0.0029	8.9615	22.8841	11.4993	0.5988	-0.7428	0.2421	-0.1763
1.01	-0.2354	-9.1036	-2.1081	0.0188	-0.0070	0.0051	8.7614	22.9731	11.5012	0.5988	-0.7428	0.2421	-0.1762
1.02	-0.2326	-9.1002	-2.0968	0.0188	-0.0036	0.0063	8.9136	22.9642	11.4766	0.5988	-0.7429	0.2421	-0.1762
1.03	-0.2346	-9.1009	-2.0955	0.0145	-0.0043	0.0103	9.0968	22.8976	11.4150	0.5988	-0.7428	0.2420	-0.1762
1.04	-0.2312	-9.1064	-2.1050	0.0200	0.0009	0.0065	9.1477	23.0244	11.5748	0.5988	-0.7429	0.2420	-0.1762
1.05	-0.2367	-9.0994	-2.0931	0.0180	-0.0009	0.0134	9.0357	22.8748	11.6015	0.5987	-0.7428	0.2420	-0.1762
1.06	-0.2470	-9.1003	-2.0866	0.0162	0.0102	0.0091	8.8539	22.8943	11.5519	0.5988	-0.7429	0.2421	-0.1762
1.07	-0.2567	-9.0989	-2.0966	0.0146	0.0020	0.0009	8.8715	23.0426	11.4917	0.5988	-0.7428	0.2421	-0.1762
1.08	-0.2599	-9.0900	-2.0858	0.0161	0.0013	0.0106	8.6919	22.7903	11.4268	0.5988	-0.7429	0.2421	-0.1762
1.09	-0.2718	-9.0915	-2.0877	0.0184	-0.0019	0.0065	8.8380	22.9099	11.3021	0.5987	-0.7428	0.2421	-0.1762
1.1	-0.2780	-9.1050	-2.0987	0.0207	-0.0014	0.0099	8.7636	22.9589	11.6809	0.5988	-0.7428	0.2421	-0.1762
1.11	-0.2777	-9.0991	-2.0888	0.0186	-0.0047	0.0050	8.8789	23.0690	11.4398	0.5988	-0.7429	0.2420	-0.1762
1.12	-0.2826	-9.0898	-2.0907	0.0166	-0.0036	0.0061	8.8638	23.1955	11.3539	0.5987	-0.7428	0.2420	-0.1762
1.13	-0.2748	-9.0988	-2.0921	0.0189	-0.0062	0.0027	8.9170	22.8974	11.6663	0.5988	-0.7429	0.2420	-0.1762
1.14	-0.2759	-9.1028	-2.0911	0.0177	0.0022	0.0024	9.1916	22.9264	11.7660	0.5988	-0.7429	0.2420	-0.1762
1.15	-0.2612	-9.0933	-2.0889	0.0166	-0.0020	-0.0000	9.2625	22.8099	11.8079	0.5988	-0.7429	0.2420	-0.1762
1.16	-0.2560	-9.0955	-2.0702	0.0136	-0.0048	0.0036	9.1861	23.0770	11.5809	0.5987	-0.7429	0.2419	-0.1762
1.17	-0.2531	-9.1110	-2.0704	0.0190	0.0043	0.0012	8.7282	23.4595	11.3913	0.5988	-0.7429	0.2419	-0.1762
1.18	-0.2398	-9.1019	-2.0574	0.0192	-0.0028	0.0024	8.8266	23.6472	11.5520	0.5988	-0.7429	0.2419	-0.1762
1.19	-0.2393	-9.0940	-2.0351	0.0189	0.0039	0.0066	8.9915	23.0504	11.5503	0.5987	-0.7429	0.2419	-0.1763
1.2	-0.2318	-9.1101	-2.0455	0.0191	-0.0062	0.0055	8.8786	22.8976	11.4758	0.5988	-0.7430	0.2419	-0.1763
1.21	-0.2289	-9.1069	-2.0490	0.0140	-0.0022	0.0122	9.0598	22.8985	11.3191	0.5988	-0.7429	0.2419	-0.1762
1.22	-0.2234	-9.1000	-2.0424	0.0149	0.0055	0.0101	9.0080	22.9703	11.3228	0.5988	-0.7430	0.2419	-0.1762
1.23	-0.2173	-9.1062	-2.0570	0.0182	-0.0018	0.0074	8.9570	22.9264	11.6040	0.5987	-0.7429	0.2419	-0.1762
1.24	-0.2191	-9.1128	-2.0707	0.0172	-0.0054	0.0042	8.8904	23.0604	11.3981	0.5988	-0.7429	0.2419	-0.1762
1.25	-0.2142	-9.0996	-2.0758	0.0200	-0.0029	0.0036	8.7622	22.9969	11.5966	0.5988	-0.7429	0.2418	-0.1762
1.26	-0.2114	-9.0983	-2.0814	0.0181	0.0027	0.0100	8.9157	23.0714	11.6166	0.5988	-0.7429	0.2418	-0.1762
1.27	-0.2202	-9.1073	-2.1017	0.0181	-0.0006	0.0050	8.8670	22.8033	11.3318	0.5988	-0.7430	0.2418	-0.1762
1.28	-0.2173	-9.1060	-2.1091	0.0187	0.0019	0.0033	8.9848	22.8171	11.4452	0.5988	-0.7429	0.2418	-0.1762
1.29	-0.2200	-9.0934	-2.1085	0.0200	-0.0100	0.0083	9.0469	22.8620	11.4930	0.5988	-0.7430	0.2418	-0.1762
1.3	-0.2171	-9.0984	-2.1193	0.0145	-0.0015	0.0002	8.8747	23.0119	11.4507	0.5987	-0.7429	0.2417	-0.1762
1.31	-0.2180	-9.1073	-2.1266	0.0144	-0.0004	0.0086	8.9974	23.2473	11.5958	0.5988	-0.7430	0.2418	-0.1762
1.32	-0.2199	-9.0950	-2.1193	0.0156	0.0025	0.0116	8.6808	22.9966	11.4972	0.5987	-0.7430	0.2418	-0.1762
1.33	-0.2201	-9.0937	-2.1159	0.0141	0.0030	0.0062	8.6294	23.1014	11.6782	0.5987	-0.7430	0.2418	-0.1762
1.34	-0.2313	-9.1084	-2.1306	0.0206	0.0031	0.0084	8.7516	23.1087	11.4881	0.5987	-0.7429	0.2418	-0.1762
1.35	-0.2402	-9.1010	-2.1202	0.0135	-0.0003	0.0084	8.8213	22.9870	11.6755	0.5987	-0.7430	0.2418	-0.1762
1.36	-0.2465	-9.0912	-2.1142	0.0202	0.0002	0.0067	8.8230	22.9110	11.6349	0.5987	-0.7430	0.2418	-0.1762
1.37	-0.2529	-9.1024	-2.1223	0.0179	-0.0009	0.0089	8.7471	23.0514	11.5408	0.5987	-0.7429	0.2418	-0.1762
1.38	-0.2587	-9.1048	-2.1317	0.0183	-0.0084	0.0072	8.7264	22.8981	11.4290	0.5988	-0.7430	0.2418	-0.1762
1.39	-0.2506	-9.0893	-2.1118	0.0183	-0.0100	0.0095	8.9103	22.8802	11.1540	0.5987	-0.7430	0.2418	-0.1762
1.4	-0.2445	-9.0916	-2.1082	0.0123	0.0004	0.0090	9.0784	22.7980	11.4527	0.5988	-0.7430	0.2418	-0.1762
1.41	-0.2518	-9.1116	-2.1139	0.0171	-0.0034	0.0090	8.9813	22.7895	11.2591	0.5987	-0.7430	0.2418	-0.1761
1.42	-0.2488	-9.0999	-2.1017	0.0202	-0.0031	0.0037	9.0790	22.7543	11.3359	0.5988	-0.7430	0.2418	-0.1761
1.43	-0.2535	-9.0879	-2.0873	0.0154	0.0029	0.0080	8.8821	22.8903	11.4354	0.5987	-0.7430	0.2418	-0.1761
1.44	-0.2592	-9.1048	-2.0938	0.0172	-0.0001	0.0065	8.9764	22.9785	11.5681	0.5987	-0.7430	0.2417	-0.1761
1.45	-0.2567	-9.0984	-2.0951	0.0172	-0.0048	0.0093	8.8881	22.8474	11.4554	0.5988	-0.7431	0.2418	-0.1761
1.46	-0.2570	-9.0862	-2.0746	0.0118	-0.0076	0.0079	8.7806	22.7296	11.4857	0.5987	-0.7430	0.2417	-0.1761
1.47	-0.2604	-9.1019	-2.0767	0.0170	-0.0001	0.0088	8.8778	22.9287	11.6682	0.5988	-0.7431	0.2417	-0.1761
1.48	-0.2642	-9.1077	-2.0832	0.0200	0.0043	0.0057	8.9718	22.9498	11.5501	0.5987	-0.7430	0.2417	-0.1761
1.49	-0.2599	-9.0970	-2.0736	0.0171	-0.0036	0.0034	9.0059	22.8704	11.4645	0.5987	-0.7431	0.2417	-0.1761
1.5	-0.2567	-9.0927	-2.0677	0.0199	-0.0012	0.0029	8.7619	23.1307	11.4524	0.5987	-0.7430	0.2417	-0.1761
1.51	-0.2560	-9.1095	-2.0825	0.0188	-0.0007	0.0046	8.7507	23.0927	11.5501	0.5987	-0.7430	0.2417	-0.1761
1.52	-0.2503	-9.1030	-2.0686	0.0195	-0.0017	0.0019	8.6079	23.1265	11.4624	0.5987	-0.7431	0.2417	-0.1761
1.53	-0.2474	-9.0983	-2.0671	0.0179	-0.0061	0.0042	8.6496	22.9634	11.4613	0.5987	-0.7430	0.2416	-0.1761
1.54	-0.2503	-9.1094	-2.0739	0.0163	-0.0044	-0.0010	8.9327	22.9558	11.4732	0.5987	-0.7431	0.2416	-0.1761
1.55	-0.2519	-9.1073	-2.0753	0.0139	0.0026	0.0031	8.8972	22.9380	11.4728	0.5987	-0.7430	0.2416	-0.1761
1.56	-0.2475	-9.0945	-2.0687	0.0151	-0.0044	0.0071	8.8686	22.9743	11.3618	0.5987	-0.7431	0.2416	-0.1761
1.57	-0.2532	-9.0964	-2.0720	0.0164	0.0015	0.0092	8.8450	23.0290	11.3958	0.5987	-0.7431	0.2416	-0.1761
1.58	-0.2541	-9.1034	-2.0964	0.0200	0.0006	0.0100	8.9165	22.8424	11.3632	0.5987	-0.7431	0.2416	-0.1761
1.59	-0.2423	-9.0957	-2.0926	0.0196	-0.0014	0.0083	8.9040	22.8842	11.4972	0.5987	-0.7431	0.2416	-0.1761
1.6	-0.2387	-9.0935	-2.0878	0.0173	0.0010	0.0069	8.9773	22.9548	11.6831	0.5987	-0.7431	0.2416	-0.1761
1.61	-0.2326	-9.1107	-2.1005	0.0118	0.0012	0.0108	9.0272	22.7748	11.6334	0.5987	-0.7431	0.2416	-0.1761
1.62	-0.2311	-9.1019	-2.1032	0.0197	0.0017	0.0035	9.0610	22.8511	11.6789	0.5986	-0.7430	0.2416	-0.1761
1.63	-0.2247	-9.0911	-2.1061	0.0122	-0.0064	0.0084	8.9765	22.9883	11.4281	0.5987	-0.7432	0.2416	-0.1761
1.64	-0.2239	-9.0971	-2.1109	0.0128	-0.0029	0.0093	9.0813	23.0481	11.5166	0.5987	-0.7431	0.2416	-0.1761
1.65	-0.2335	-9.1076	-2.1187	0.0182	-0.0018	0.0089	9.2882	22.7810	11.6185	0.5987	-0.7432	0.2416	-0.1761
1.66	-0.2235	-9.0971	-2.1121	0.0159	0.0004	0.0074	9.2278	22.9860	11.4847	0.5986	-0.7431	0.2416	-0.1760
1.67	-0.2220	-9.0953	-2.1120	0.0164	-0.0006	0.0031	9.0152	23.4293	11.3285	0.5987	-0.7432	0.2416	-0.1761
1.68	-0.2258	-9.1067	-2.1200	0.0109	-0.0056	0.0002	8.9221	23.7262	11.5083	0.5986	-0.7432	0.2415	-0.1761
1.69	-0.2255	-9.1021	-2.1171	0.0154	-0.0030	0.0055	8.7694	22.9562	11.6756	0.5986	-0.7432	0.2415	-0.1760
1.7	-0.2261	-9.0918	-2.1018	0.0080	-0.0018	0.0039	8.8936	22.8693	11.6447	0.5986	-0.7433	0.2415	-0.1761
1.71	-0.2242	-9.1078	-2.1109	0.0161	-0.0014	0.0088	8.8966	23.0325	11.5518	0.5986	-0.7432	0.2415	-0.1760
1.72	-0.2325	-9.1079	-2.1082	0.0170	-0.0032	0.0089	9.0099	23.0985	11.5818	0.5986	-0.7433	0.2415	-0.1760
1.73	-0.2245	-9.0953	-2.0934	0.0165	-0.0085	0.0042	8.7721	23.2663	11.5569	0.5985	-0.7432	0.2414	-0.1760
1.74	-0.2310	-9.1014	-2.0977	0.0146	-0.0048	0.0116	8.8085	22.8400	11.6776	0.5986	-0.7433	0.2415	-0.1760
1.75	-0.2340	-9.1081	-2.0946	0.0155	-0.0068	0.0051	8.7789	22.8708	11.6620	0.5986	-0.7433	0.2414	-0.1759
1.76	-0.2386	-9.0980	-2.0856	0.0179	-0.0126	0.0081	8.8525	23.0823	11.6085	0.5986	-0.7433	0.2414	-0.1759
1.77	-0.2486	-9.0961	-2.0825	0.0140	-0.0100	0.0095	9.0801	23.0514	11.3567	0.5986	-0.7433	0.2414	-0.1758
1.78	-0.2542	-9.1061	-2.0845	0.0176	-0.0094	0.0096	9.0165	22.8050	11.5840	0.5986	-0.7433	0.2413	-0.1758
1.79	-0.2584	-9.1024	-2.0889	0.0118	-0.0009	0.0121	8.8885	22.8635	11.5307	0.5986	-0.7434	0.2414	-0.1758
1.8	-0.2523	-9.0889	-2.0765	0.0170	-0.0038	0.0075	8.8766	22.9006	11.3928	0.5985	-0.7433	0.2413	-0.1757
1.81	-0.2532	-9.1052	-2.0790	0.0129	-0.0088	0.0063	8.9845	22.9940	11.3859	0.5986	-0.7434	0.2413	-0.1757
1.82	-0.2554	-9.1104	-2.0796	0.0147	-0.0035	0.0072	8.9491	23.1033	11.2906	0.5986	-0.7434	0.2413	-0.1757
1.83	-0.2470	-9.0966	-2.0747	0.0112	-0.0089	0.0078	8.9849	22.9794	11.5840	0.5986	-0.7434	0.2413	-0.1757
1.84	-0.2443	-9.0937	-2.0704	0.0112	0.0005	0.0064	8.8516	22.8852	11.5709	0.5985	-0.7434	0.2413	-0.1756
1.85	-0.2423	-9.1114	-2.0825	0.0117	-0.0044	0.0133	8.9219	22.9989	11.4593	0.5985	-0.7434	0.2413	-0.1756
1.86	-0.2368	-9.1052	-2.0752	0.0148	-0.0041	0.0131	8.9707	22.9558	11.5100	0.5985	-0.7435	0.2413	-0.1756
1.87	-0.2320	-9.0932	-2.0641	0.0167	0.0017	0.0063	8.9645	23.0594	11.4491	0.5985	-0.7434	0.2413	-0.1756
1.88	-0.2360	-9.1017	-2.0699	0.0125	-0.0030	0.0114	8.8500	22.9673	11.7343	0.5985	-0.7435	0.2413	-0.1756
1.89	-0.2320	-9.1071	-2.0808	0.0073	0.0021	0.0030	8.9231	22.9839	11.7012	0.5984	-0.7435	0.2413	-0.1756
1.9	-0.2292	-9.0938	-2.0628	0.0141	0.0046	0.0050	8.9729	23.1847	11.6508	0.5985	-0.7436	0.2413	-0.1756
1.91	-0.2304	-9.1009	-2.0660	0.0182	0.0039	0.0094	8.9461	23.0081	11.6509	0.5984	-0.7435	0.2413	-0.1756
1.92	-0.2315	-9.1122	-2.0807	0.0182	0.0049	0.0084	8.9671	23.0303	11.5720	0.5984	-0.7435	0.2414	-0.1756
1.93	-0.2333	-9.0996	-2.0810	0.0146	0.0064	0.0066	8.7885	22.9620	11.5167	0.5984	-0.7435	0.2414	-0.1756
1.94	-0.2321	-9.0946	-2.0812	0.0108	-0.0013	0.0036	8.8756	22.8515	11.5201	0.5983	-0.7435	0.2413	-0.1756
1.95	-0.2328	-9.1044	-2.0914	0.0149	-0.0076	0.0103	8.8734	22.9977	11.9183	0.5984	-0.7436	0.2414	-0.1756
1.96	-0.2275	-9.1008	-2.0862	0.0092	0.0005	0.0124	8.8888	22.8540	11.6159	0.5983	-0.7436	0.2414	-0.1756
1.97	-0.2218	-9.0935	-2.0798	0.0134	0.0001	0.0057	9.0507	22.9103	11.5832	0.5984	-0.7436	0.2414	-0.1756
1.98	-0.2221	-9.1059	-2.0861	0.0182	-0.0029	0.0063	9.0328	22.8924	11.4953	0.5983	-0.7435	0.2413	-0.1755
1.99	-0.2224	-9.1108	-2.0947	0.0166	0.0006	0.0087	8.9644	22.8791	11.3688	0.5983	-0.7436	0.2414	-0.1756
2	-0.2220	-9.0963	-2.0959	0.0164	0.0024	0.0094	8.9321	22.9447	11.4428	0.5983	-0.7436	0.2414	-0.1756
2.01	-0.2336	-9.1005	-2.0968	0.0166	-0.0021	0.0131	8.8442	22.9860	11.5796	0.5983	-0.7436	0.2414	-0.1755
2.02	-0.2461	-9.1113	-2.1094	0.0179	-0.0091	0.0013	8.9981	22.9759	11.5709	0.5983	-0.7436	0.2413	-0.1755
2.03	-0.2533	-9.1025	-2.1115	0.0197	-0.0044	0.0066	8.7846	23.0782	11.5872	0.5983	-0.7436	0.2413	-0.1755
2.04	-0.2628	-9.0932	-2.1105	0.0186	0.0028	0.0077	8.8998	22.8275	11.5132	0.5984	-0.7436	0.2413	-0.1755
2.05	-0.2743	-9.1023	-2.1245	0.0163	-0.0060	0.0103	9.0867	22.7869	11.4774	0.5983	-0.7436	0.2413	-0.1755
2.06	-0.2813	-9.1014	-2.1256	0.0143	0.0015	0.0065	8.8091	23.0339	11.6040	0.5984	-0.7437	0.2413	-0.1755
2.07	-0.2840	-9.0884	-2.1202	0.0161	0.0053	0.0068	8.8205	23.0418	11.5508	0.5983	-0.7436	0.2413	-0.1755
2.08	-0.2825	-9.0980	-2.1257	0.0130	-0.0004	0.0038	8.9784	22.8670	11.6049	0.5983	-0.7437	0.2413	-0.1755
2.09	-0.2823	-9.0986	-2.1406	0.0192	-0.0019	0.0075	8.8731	22.9957	11.4600	0.5983	-0.7436	0.2413	-0.1755
2.1	-0.2769	-9.0907	-2.1413	0.0148	0.0026	0.0040	8.7790	22.9442	11.3865	0.5983	-0.7437	0.2413	-0.1755
2.11	-0.2775	-9.0919	-2.1385	0.0190	0.0010	0.0048	8.8173	22.8562	11.5840	0.5983	-0.7437	0.2413	-0.1755
2.12	-0.2768	-9.0927	-2.1453	0.0190	0.0074	0.0063	8.7823	22.9712	11.5561	0.5982	-0.7436	0.2413	-0.1755
2.13	-0.2772	-9.0886	-2.1385	0.0178	0.0039	0.0034	8.8158	23.0710	11.6968	0.5983	-0.7437	0.2413	-0.1756
2.14	-0.2745	-9.0870	-2.1346	0.0200	-0.0004	0.0067	9.1873	23.2047	11.6041	0.5983	-0.7436	0.2413	-0.1756
2.15	-0.2744	-9.1003	-2.1394	0.0191	-0.0078	0.0074	9.6355	23.2211	11.5916	0.5983	-0.7437	0.2413	-0.1756
2.16	-0.2709	-9.0976	-2.1279	0.0196	-0.0090	0.0077	9.4473	23.0161	11.5261	0.5983	-0.7436	0.2412	-0.1755
2.17	-0.2612	-9.0882	-2.1139	0.0192	-0.0075	0.0065	8.9343	23.1826	11.3742	0.5983	-0.7437	0.2412	-0.1755
2.18	-0.2618	-9.0951	-2.1082	0.0198	-0.0069	0.0050	9.1060	23.3099	11.4833	0.5983	-0.7437	0.2412	-0.1755
2.19	-0.2566	-9.1098	-2.1074	0.0214	-0.0041	0.0050	8.8759	22.9877	11.3862	0.5983	-0.7436	0.2411	-0.1755
2.2	-0.2569	-9.0914	-2.0825	0.0193	-0.0019	0.0037	8.9460	22.8583	11.2923	0.5984	-0.7437	0.2411	-0.1755
2.21	-0.2503	-9.0988	-2.0860	0.0200	-0.0112	0.0047	8.8182	22.8539	11.5563	0.5984	-0.7437	0.2411	-0.1755
2.22	-0.2559	-9.1003	-2.0786	0.0224	-0.0088	0.0060	8.7344	22.8609	11.3596	0.5984	-0.7437	0.2410	-0.1755
2.23	-0.2567	-9.1238	-2.0904	0.0167	-0.0104	0.0070	9.0366	22.7890	11.4938	0.5984	-0.7436	0.2410	-0.1754
2.24	-0.2532	-9.0979	-2.0581	0.0188	-0.0033	0.0047	8.9294	23.0450	11.6793	0.5984	-0.7437	0.2410	-0.1754
2.25	-0.2602	-9.0809	-2.0554	0.0207	0.0008	0.0009	8.7716	23.0914	11.2928	0.5984	-0.7437	0.2410	-0.1754
2.26	-0.2579	-9.1137	-2.0864	0.0187	-0.0056	0.0024	8.9329	22.9849	11.6440	0.5984	-0.7437	0.2409	-0.1754
2.27	-0.2575	-9.0837	-2.0464	0.0202	-0.0081	-0.0002	8.7019	22.9892	11.6381	0.5984	-0.7437	0.2409	-0.1754
2.28	-0.2509	-9.1005	-2.0564	0.0148	-0.0047	-0.0010	8.6586	23.2005	11.5231	0.5984	-0.7437	0.2408	-0.1754
2.29	-0.2388	-9.1056	-2.0700	0.0172	-0.0004	-0.0029	8.8281	23.1057	11.5694	0.5984	-0.7438	0.2408	-0.1755
2.3	-0.2126	-9.0940	-2.0585	0.0161	-0.0048	0.0028	8.8011	23.2617	11.5486	0.5983	-0.7437	0.2408	-0.1755
2.31	-0.1954	-9.0928	-2.0559	0.0160	0.0003	0.0002	8.9304	23.1008	11.5552	0.5984	-0.7438	0.2408	-0.1755
2.32	-0.1846	-9.1108	-2.0747	0.0163	-0.0033	0.0057	8.8583	22.9297	11.4206	0.5984	-0.7438	0.2407	-0.1755
2.33	-0.1893	-9.1106	-2.0721	0.0199	-0.0027	0.0048	8.8008	23.0676	11.5709	0.5984	-0.7438	0.2407	-0.1755
2.34	-0.2020	-9.1129	-2.0722	0.0166	-0.0037	0.0036	8.9123	23.0740	11.4669	0.5984	-0.7438	0.2407	-0.1755
2.35	-0.2052	-9.1109	-2.0793	0.0196	-0.0007	0.0077	9.0259	22.8246	11.0956	0.5984	-0.7438	0.2407	-0.1755
2.36	-0.2141	-9.1081	-2.0846	0.0196	-0.0045	0.0025	8.9273	23.0249	11.2234	0.5984	-0.7438	0.2407	-0.1755
2.37	-0.2180	-9.1034	-2.0820	0.0192	0.0001	0.0090	8.8975	22.8014	11.4225	0.5984	-0.7437	0.2406	-0.1755
2.38	-0.2302	-9.1040	-2.0777	0.0199	-0.0046	0.0067	8.9049	22.8465	11.3528	0.5984	-0.7438	0.2406	-0.1755
2.39	-0.2339	-9.0955	-2.0832	0.0196	-0.0015	0.0034	8.8034	22.8792	11.2978	0.5984	-0.7438	0.2406	-0.1755
2.4	-0.2381	-9.1026	-2.0943	0.0184	-0.0015	0.0077	9.0844	22.7845	11.5222	0.5985	-0.7438	0.2406	-0.1755
2.41	-0.2400	-9.0886	-2.0921	0.0185	0.0043	0.0064	8.9720	22.9157	11.2698	0.5984	-0.7437	0.2406	-0.1755
2.42	-0.2455	-9.1033	-2.0965	0.0206	-0.0051	0.0068	8.9018	22.9124	11.3206	0.5984	-0.7438	0.2406	-0.1755
2.43	-0.2444	-9.0926	-2.0905	0.0151	-0.0094	0.0037	8.8604	23.0342	11.6032	0.5984	-0.7438	0.2405	-0.1755
2.44	-0.2461	-9.0915	-2.0831	0.0141	-0.0090	0.0015	8.7886	23.1630	11.4474	0.5984	-0.7438	0.2405	-0.1754
2.45	-0.2542	-9.1058	-2.0923	0.0186	-0.0077	-0.0006	8.8546	23.0359	11.4076	0.5985	-0.7439	0.2405	-0.1755
2.46	-0.2572	-9.1012	-2.0995	0.0161	-0.0085	0.0073	8.7703	23.1102	11.4363	0.5984	-0.7438	0.2404	-0.1754
2.47	-0.2517	-9.1033	-2.1003	0.0176	-0.0103	-0.0010	8.7350	23.1427	11.3984	0.5985	-0.7439	0.2404	-0.1754
2.48	-0.2400	-9.1028	-2.1054	0.0194	-0.0050	-0.0008	8.7377	23.2385	11.5923	0.5984	-0.7438	0.2403	-0.1754
2.49	-0.2184	-9.1159	-2.1153	0.0188	-0.0049	0.0024	8.6571	23.2055	11.2968	0.5984	-0.7439	0.2403	-0.1754
2.5	-0.1981	-9.1009	-2.1010	0.0180	-0.0062	0.0088	8.8111	23.1383	11.4816	0.5984	-0.7439	0.2403	-0.1754
2.51	-0.1718	-9.1047	-2.1129	0.0155	-0.0149	0.0060	8.8223	23.1039	11.6669	0.5984	-0.7439	0.2403	-0.1754
2.52	-0.1721	-9.1040	-2.1066	0.0187	-0.0078	0.0079	8.7999	22.8559	11.5455	0.5985	-0.7439	0.2402	-0.1753
2.53	-0.1783	-9.1116	-2.1101	0.0168	-0.0085	0.0113	8.9899	23.0631	11.3047	0.5985	-0.7439	0.2402	-0.1753
2.54	-0.1987	-9.0960	-2.0971	0.0248	-0.0036	0.0100	9.0947	22.8483	11.3144	0.5985	-0.7439	0.2402	-0.1753
2.55	-0.2283	-9.0858	-2.0869	0.0153	-0.0034	0.0082	9.0531	22.8134	11.2200	0.5984	-0.7438	0.2402	-0.1752
2.56	-0.2549	-9.1126	-2.1002	0.0184	-0.0015	0.0078	9.0716	22.8190	11.3140	0.5985	-0.7439	0.2402	-0.1753
2.57	-0.2812	-9.0917	-2.0747	0.0180	0.0007	0.0115	8.7806	22.9875	11.4639	0.5985	-0.7439	0.2402	-0.1752
2.58	-0.3033	-9.0867	-2.0606	0.0186	0.0051	0.0088	8.9217	22.9064	11.4206	0.5985	-0.7439	0.2402	-0.1753
2.59	-0.3027	-9.1180	-2.0763	0.0227	-0.0003	0.0060	8.8776	22.9927	11.2684	0.5985	-0.7439	0.2402	-0.1753
2.6	-0.2877	-9.0957	-2.0540	0.0183	0.0013	0.0075	8.8606	22.8372	11.5853	0.5985	-0.7439	0.2402	-0.1753
2.61	-0.2759	-9.0923	-2.0521	0.0184	-0.0011	0.0093	8.8317	23.0528	11.6714	0.5985	-0.7439	0.2402	-0.1753
2.62	-0.2566	-9.1149	-2.0662	0.0185	0.0004	0.0050	8.6182	23.2746	11.2215	0.5985	-0.7438	0.2402	-0.1753
2.63	-0.2285	-9.1047	-2.0659	0.0172	-0.0047	0.0005	8.7780	23.1945	11.5504	0.5985	-0.7439	0.2402	-0.1753
2.64	-0.2038	-9.1000	-2.0620	0.0205	0.0014	-0.0013	8.8522	23.1364	11.7836	0.5985	-0.7439	0.2402	-0.1753
2.65	-0.1809	-9.1188	-2.0611	0.0206	0.0006	0.0034	9.3608	23.1690	11.7305	0.5986	-0.7439	0.2402	-0.1754
2.66	-0.1670	-9.1012	-2.0560	0.0179	-0.0052	0.0098	9.0226	23.1804	11.7105	0.5985	-0.7438	0.2401	-0.1753
2.67	-0.1835	-9.1107	-2.0768	0.0144	0.0061	0.0008	8.9417	23.4605	11.3078	0.5985	-0.7439	0.2402	-0.1754
2.68	-0.1979	-9.0971	-2.0937	0.0124	0.0058	0.0025	8.8897	23.5291	11.4342	0.5985	-0.7439	0.2402	-0.1754
2.69	-0.2201	-9.0996	-2.1162	0.0196	0.0042	0.0050	8.6611	22.9021	11.4926	0.5984	-0.7439	0.2402	-0.1754
2.7	-0.2462	-9.1259	-2.1274	0.0126	0.0011	0.0061	8.8293	23.1069	11.4982	0.5985	-0.7440	0.2402	-0.1755
2.71	-0.2568	-9.0915	-2.0878	0.0166	-0.0016	0.0108	9.0655	22.9464	11.3003	0.5984	-0.7439	0.2402	-0.1754
2.72	-0.2542	-9.1007	-2.0897	0.0214	-0.0028	0.0091	9.1204	22.9132	11.2108	0.5985	-0.7439	0.2402	-0.1754
2.73	-0.2507	-9.1039	-2.0911	0.0143	-0.0024	0.0018	8.8551	23.0015	11.2184	0.5984	-0.7439	0.2401	-0.1754
2.74	-0.2426	-9.0990	-2.0935	0.0197	-0.0005	0.0105	8.8866	22.7154	11.3780	0.5985	-0.7439	0.2402	-0.1754
2.75	-0.2293	-9.0949	-2.0890	0.0181	-0.0022	0.0076	8.8746	22.9041	11.7003	0.5984	-0.7439	0.2402	-0.1754
2.76	-0.2259	-9.1046	-2.0857	0.0186	0.0011	0.0040	8.8649	23.0555	11.3045	0.5984	-0.7439	0.2401	-0.1754
2.77	-0.2254	-9.0977	-2.0757	0.0196	-0.0023	0.0035	8.9075	23.0417	11.3157	0.5985	-0.7439	0.2401	-0.1754
2.78	-0.2293	-9.1025	-2.0766	0.0198	0.0011	0.0086	9.0649	23.0585	11.4443	0.5985	-0.7439	0.2401	-0.1754
2.79	-0.2406	-9.1113	-2.0846	0.0175	0.0055	0.0066	9.0505	23.0144	11.3320	0.5985	-0.7439	0.2401	-0.1755
2.8	-0.2561	-9.1032	-2.0797	0.0142	0.0078	0.0086	8.9605	22.8388	11.3033	0.5984	-0.7439	0.2401	-0.1755
2.81	-0.2737	-9.0977	-2.0590	0.0171	0.0029	0.0051	8.7823	23.1238	11.5354	0.5984	-0.7439	0.2402	-0.1755
2.82	-0.2912	-9.0990	-2.0409	0.0162	0.0097	0.0061	8.9060	22.9247	11.4282	0.5984	-0.7439	0.2402	-0.1755
2.83	-0.3020	-9.1180	-2.0366	0.0179	0.0125	0.0042	8.8777	22.9201	11.3955	0.5984	-0.7439	0.2402	-0.1756
2.84	-0.3055	-9.1020	-2.0183	0.0154	0.0043	0.0090	8.8677	23.0782	11.4034	0.5984	-0.7439	0.2402	-0.1756
2.85	-0.3083	-9.0929	-1.9973	0.0175	-0.0023	0.0044	8.6837	23.0248	11.3937	0.5984	-0.7439	0.2402	-0.1756
2.86	-0.3039	-9.1075	-2.0034	0.0205	0.0066	0.0003	8.8992	23.0569	11.4063	0.5984	-0.7439	0.2402	-0.1757
2.87	-0.2791	-9.0875	-1.9893	0.0185	0.0057	0.0009	8.8080	23.0438	11.3888	0.5983	-0.7439	0.2402	-0.1757
2.88	-0.2511	-9.0836	-2.0075	0.0217	-0.0062	0.0038	8.7718	22.9458	11.5104	0.5984	-0.7440	0.2402	-0.1757
2.89	-0.2206	-9.1033	-2.0302	0.0127	-0.0046	0.0052	8.8552	23.1136	11.4583	0.5983	-0.7439	0.2402	-0.1757
2.9	-0.1880	-9.1245	-2.0486	0.0148	0.0014	0.0094	8.8671	22.8800	11.5395	0.5984	-0.7440	0.2402	-0.1757
2.91	-0.1598	-9.1008	-2.0445	0.0101	0.0061	0.0078	8.9753	22.9783	11.2745	0.5983	-0.7439	0.2402	-0.1757
2.92	-0.1576	-9.0994	-2.0486	0.0099	0.0055	0.0007	9.1441	22.9364	11.3820	0.5983	-0.7440	0.2402	-0.1757
2.93	-0.1669	-9.1298	-2.0669	0.0161	0.0176	0.0045	8.9605	22.7173	11.3726	0.5982	-0.7440	0.2402	-0.1758
2.94	-0.1740	-9.1178	-2.0511	0.0172	0.0063	0.0089	8.9593	22.9815	11.2953	0.5982	-0.7439	0.2402	-0.1758
2.95	-0.1792	-9.0986	-2.0194	0.0188	0.0081	0.0096	8.9801	23.0513	11.3166	0.5983	-0.7440	0.2403	-0.1758
2.96	-0.1853	-9.1120	-2.0382	0.0140	0.0140	0.0053	8.9070	23.0695	11.3432	0.5982	-0.7440	0.2403	-0.1759
2.97	-0.1778	-9.1193	-2.0512	0.0141	0.0139	0.0091	8.7134	22.9770	11.4290	0.5982	-0.7440	0.2404	-0.1759
2.98	-0.1731	-9.0978	-2.0509	0.0075	0.0124	0.0055	9.0869	22.9634	11.3721	0.5981	-0.7439	0.2404	-0.1760
2.99	-0.1708	-9.1081	-2.0724	0.0092	0.0069	0.0144	8.9957	22.9539	11.5549	0.5981	-0.7440	0.2405	-0.1760
3	-0.1756	-9.1159	-2.0814	0.0126	0.0103	0.0113	8.7902	22.8423	11.5600	0.5980	-0.7440	0.2405	-0.1760
3.01	-0.1825	-9.0962	-2.0847	0.0094	0.0145	0.0062	8.7969	22.9530	11.3719	0.5980	-0.7440	0.2406	-0.1760
3.02	-0.1851	-9.1158	-2.1093	0.0095	0.0111	0.0123	8.8806	23.0711	11.5139	0.5980	-0.7440	0.2406	-0.1761
3.03	-0.1962	-9.1000	-2.1069	0.0080	0.0111	0.0124	8.7496	23.0111	11.5870	0.5979	-0.7440	0.2407	-0.1761
3.04	-0.2055	-9.1033	-2.1200	0.0090	0.0138	0.0103	8.8849	23.0937	11.3691	0.5979	-0.7441	0.2407	-0.1761
3.05	-0.2066	-9.1002	-2.1307	0.0104	0.0121	0.0088	8.8014	22.9070	11.5030	0.5978	-0.7440	0.2408	-0.1761
3.06	-0.2186	-9.0869	-2.1237	0.0064	0.0035	0.0102	8.7827	23.1484	11.5621	0.5978	-0.7441	0.2408	-0.1761
3.07	-0.2277	-9.1064	-2.1496	0.0145	0.0065	0.0123	8.8197	22.9765	11.6328	0.5977	-0.7441	0.2409	-0.1761
3.08	-0.2442	-9.0926	-2.1270	0.0161	0.0004	0.0084	8.9631	22.8917	11.6393	0.5978	-0.7441	0.2409	-0.1761
3.09	-0.2489	-9.1010	-2.1334	0.0112	0.0072	0.0122	8.9390	23.1617	11.3569	0.5977	-0.7441	0.2409	-0.1761
3.1	-0.2535	-9.1081	-2.1361	0.0158	0.0064	0.0121	9.1121	22.9207	11.4306	0.5977	-0.7441	0.2409	-0.1761
3.11	-0.2555	-9.0911	-2.1262	0.0140	0.0064	0.0074	9.0472	22.9551	11.3889	0.5977	-0.7441	0.2410	-0.1762
3.12	-0.2533	-9.0925	-2.1181	0.0159	0.0063	0.0072	8.8337	22.7672	11.4305	0.5976	-0.7440	0.2410	-0.1762
3.13	-0.2567	-9.1025	-2.1231	0.0186	0.0052	0.0086	8.9126	22.9031	11.2729	0.5977	-0.7441	0.2410	-0.1762
3.14	-0.2591	-9.0909	-2.1249	0.0154	0.0042	0.0110	9.1106	23.0541	11.5304	0.5976	-0.7441	0.2410	-0.1762
3.15	-0.2684	-9.0945	-2.1262	0.0147	0.0063	0.0122	9.3173	23.1876	11.5933	0.5977	-0.7441	0.2411	-0.1762
3.16	-0.2666	-9.1033	-2.1219	0.0190	0.0015	0.0099	9.0983	23.1645	11.6804	0.5976	-0.7440	0.2411	-0.1762
3.17	-0.2743	-9.0964	-2.1094	0.0197	-0.0012	0.0087	8.7468	23.3066	11.5098	0.5977	-0.7441	0.2411	-0.1762
3.18	-0.2855	-9.0881	-2.1047	0.0195	0.0025	0.0037	8.9453	23.7315	11.4903	0.5977	-0.7441	0.2411	-0.1762
3.19	-0.2942	-9.0932	-2.1012	0.0197	0.0057	0.0100	8.7322	23.2323	11.5247	0.5976	-0.7440	0.2411	-0.1763
3.2	-0.2973	-9.1009	-2.0988	0.0196	-0.0020	0.0120	8.7525	23.0958	11.6536	0.5977	-0.7441	0.2411	-0.1763
3.21	-0.2980	-9.1015	-2.0918	0.0195	0.0016	0.0100	8.8612	23.2000	11.5527	0.5977	-0.7440	0.2411	-0.1762
3.22	-0.2865	-9.0995	-2.0838	0.0184	0.0066	0.0087	8.7680	23.2267	11.5832	0.5977	-0.7441	0.2412	-0.1763
3.23	-0.2834	-9.0933	-2.0745	0.0162	-0.0001	0.0133	8.6660	23.2335	11.6350	0.5976	-0.7440	0.2412	-0.1763
3.24	-0.2783	-9.1022	-2.0821	0.0153	-0.0028	0.0081	8.6600	23.0852	11.5046	0.5977	-0.7440	0.2412	-0.1763
3.25	-0.2689	-9.0952	-2.0644	0.0161	-0.0044	0.0070	8.7028	23.0807	11.7024	0.5977	-0.7440	0.2412	-0.1762
3.26	-0.2635	-9.0995	-2.0708	0.0095	0.0055	0.0138	8.8226	23.2016	11.4320	0.5976	-0.7440	0.2412	-0.1762
3.27	-0.2713	-9.0936	-2.0726	0.0123	-0.0041	0.0076	8.9322	22.8333	11.4640	0.5976	-0.7441	0.2412	-0.1762
3.28	-0.2753	-9.1055	-2.0710	0.0197	0.0025	0.0018	9.0122	22.8173	11.5662	0.5976	-0.7440	0.2412	-0.1762
3.29	-0.2652	-9.1045	-2.0710	0.0128	-0.0013	0.0085	8.9826	22.9853	11.5307	0.5976	-0.7441	0.2412	-0.1762
3.3	-0.2665	-9.0879	-2.0612	0.0195	0.0025	0.0067	8.9840	22.9751	11.5411	0.5975	-0.7440	0.2412	-0.1762
3.31	-0.2573	-9.1046	-2.0736	0.0112	-0.0030	0.0068	9.0966	22.8955	11.5578	0.5976	-0.7441	0.2412	-0.1762
3.32	-0.2462	-9.1066	-2.0762	0.0134	0.0073	0.0070	9.0268	22.8746	11.3540	0.5975	-0.7441	0.2412	-0.1762
3.33	-0.2387	-9.0989	-2.0650	0.0147	0.0148	0.0103	8.7381	22.7592	11.4502	0.5975	-0.7441	0.2413	-0.1763
3.34	-0.2259	-9.1034	-2.0764	0.0173	0.0098	0.0055	8.7654	23.0172	11.4330	0.5975	-0.7441	0.2413	-0.1763
3.35	-0.2221	-9.1070	-2.0930	0.0150	0.0093	0.0122	8.9530	23.0538	11.5013	0.5975	-0.7441	0.2413	-0.1763
3.36	-0.2218	-9.0928	-2.0967	0.0170	0.0076	0.0139	8.6808	23.0904	11.4907	0.5975	-0.7441	0.2414	-0.1764
3.37	-0.2227	-9.0949	-2.1043	0.0139	0.0099	0.0057	8.6703	23.2309	11.4226	0.5974	-0.7440	0.2414	-0.1764
3.38	-0.2232	-9.1030	-2.1106	0.0154	0.0019	0.0064	8.5750	23.2090	11.4366	0.5975	-0.7441	0.2415	-0.1764
3.39	-0.2283	-9.1037	-2.1125	0.0092	0.0061	0.0081	8.7644	23.2183	11.4638	0.5974	-0.7441	0.2415	-0.1764
3.4	-0.2304	-9.1014	-2.1146	0.0154	0.0005	0.0049	8.8754	23.0236	11.6145	0.5974	-0.7442	0.2415	-0.1765
3.41	-0.2352	-9.0994	-2.1082	0.0182	0.0055	0.0051	8.7027	23.1836	11.7156	0.5974	-0.7440	0.2415	-0.1765
3.42	-0.2422	-9.0945	-2.1053	0.0162	0.0026	0.0079	8.6936	23.0622	11.6837	0.5974	-0.7441	0.2415	-0.1765
3.43	-0.2388	-9.0957	-2.1087	0.0172	0.0043	0.0034	8.7482	22.9736	11.5940	0.5974	-0.7441	0.2415	-0.1765
3.44	-0.2339	-9.0991	-2.1015	0.0194	0.0050	0.0079	8.8109	23.1628	11.6550	0.5973	-0.7440	0.2415	-0.1765
3.45	-0.2290	-9.1018	-2.1032	0.0194	-0.0029	0.0088	8.9181	23.0570	11.3898	0.5974	-0.7441	0.2415	-0.1765
3.46	-0.2232	-9.0985	-2.1104	0.0126	-0.0052	0.0095	8.9404	23.0286	11.5206	0.5974	-0.7441	0.2415	-0.1765
3.47	-0.2243	-9.0981	-2.1002	0.0118	-0.0036	0.0080	9.0112	22.9609	11.5290	0.5974	-0.7442	0.2415	-0.1765
3.48	-0.2208	-9.1005	-2.0997	0.0150	0.0030	0.0054	8.9835	22.9800	11.6438	0.5973	-0.7441	0.2415	-0.1765
3.49	-0.2207	-9.1036	-2.1004	0.0158	-0.0015	0.0095	8.8878	22.9881	11.5935	0.5973	-0.7441	0.2415	-0.1765
3.5	-0.2209	-9.0978	-2.0990	0.0185	0.0000	0.0075	8.9453	22.9312	11.3904	0.5973	-0.7441	0.2415	-0.1765
3.51	-0.2292	-9.1005	-2.0912	0.0150	-0.0021	0.0120	8.8160	22.8735	11.5631	0.5973	-0.7441	0.2415	-0.1764
3.52	-0.2336	-9.1116	-2.0941	0.0192	0.0010	0.0072	8.9406	22.9071	11.5294	0.5974	-0.7441	0.2415	-0.1765
3.53	-0.2381	-9.1024	-2.0844	0.0101	-0.0036	0.0072	8.8584	22.8797	11.4230	0.5973	-0.7441	0.2415	-0.1764
3.54	-0.2447	-9.1006	-2.0870	0.0170	-0.0101	0.0078	8.8684	22.9227	11.5161	0.5973	-0.7442	0.2415	-0.1764
3.55	-0.2436	-9.0974	-2.0940	0.0139	-0.0035	0.0066	8.9386	23.1625	11.5527	0.5973	-0.7441	0.2414	-0.1764
3.56	-0.2390	-9.1015	-2.0941	0.0084	-0.0020	0.0099	8.7918	23.2195	11.5056	0.5973	-0.7442	0.2415	-0.1764
3.57	-0.2391	-9.0997	-2.0863	0.0160	0.0008	0.0037	8.7259	23.1030	11.5846	0.5973	-0.7442	0.2415	-0.1764
3.58	-0.2405	-9.1026	-2.0905	0.0163	0.0009	0.0027	8.8187	23.1665	11.6293	0.5973	-0.7442	0.2415	-0.1764
3.59	-0.2436	-9.1050	-2.0900	0.0214	0.0030	0.0069	8.8386	23.0326	11.6135	0.5973	-0.7442	0.2415	-0.1764
3.6	-0.2456	-9.0978	-2.0863	0.0144	0.0003	0.0062	8.8118	23.0925	11.7443	0.5973	-0.7442	0.2415	-0.1764
3.61	-0.2489	-9.0938	-2.0856	0.0156	0.0004	0.0069	8.6643	23.1693	11.6535	0.5973	-0.7442	0.2415	-0.1764
3.62	-0.2534	-9.0968	-2.0815	0.0128	0.0033	0.0043	8.7256	23.0519	11.5178	0.5972	-0.7442	0.2415	-0.1764
3.63	-0.2609	-9.1005	-2.0814	0.0114	0.0030	0.0093	8.8731	23.0552	11.5435	0.5972	-0.7443	0.2415	-0.1764
3.64	-0.2659	-9.0931	-2.0739	0.0164	-0.0069	0.0019	9.0674	23.0787	11.6783	0.5972	-0.7443	0.2414	-0.1764
3.65	-0.2673	-9.0985	-2.0765	0.0143	-0.0042	0.0037	9.4901	23.0051	11.7810	0.5972	-0.7443	0.2414	-0.1764
3.66	-0.2685	-9.1000	-2.0748	0.0185	-0.0100	0.0091	9.3681	23.0672	11.5677	0.5972	-0.7442	0.2414	-0.1764
3.67	-0.2657	-9.0952	-2.0794	0.0157	-0.0050	0.0067	9.0495	23.3598	11.3084	0.5972	-0.7443	0.2414	-0.1764
3.68	-0.2655	-9.0944	-2.0651	0.0181	-0.0009	0.0059	9.2106	23.4709	11.3937	0.5972	-0.7443	0.2414	-0.1764
3.69	-0.2544	-9.1057	-2.0762	0.0152	-0.0085	0.0039	9.0151	23.0265	11.4937	0.5972	-0.7443	0.2413	-0.1763
3.7	-0.2416	-9.1128	-2.0783	0.0106	-0.0077	0.0046	8.9211	23.0439	11.5292	0.5972	-0.7444	0.2413	-0.1763
3.71	-0.2252	-9.0948	-2.0606	0.0136	-0.0003	0.0032	8.6940	23.0332	11.4816	0.5972	-0.7444	0.2413	-0.1763
3.72	-0.2226	-9.1061	-2.0764	0.0111	-0.0033	0.0051	8.7367	23.0577	11.5422	0.5972	-0.7444	0.2413	-0.1763
3.73	-0.2213	-9.1123	-2.0892	0.0188	0.0034	0.0076	8.8886	22.9507	11.3868	0.5971	-0.7443	0.2413	-0.1763
3.74	-0.2234	-9.0919	-2.0919	0.0112	0.0004	0.0072	8.8131	23.0801	11.4749	0.5971	-0.7444	0.2413	-0.1763
3.75	-0.2339	-9.0953	-2.1030	0.0172	0.0050	-0.0002	8.4950	22.9689	11.4458	0.5971	-0.7444	0.2413	-0.1764
3.76	-0.2400	-9.1050	-2.1084	0.0066	0.0007	-0.0005	8.8947	22.9958	11.4730	0.5971	-0.7444	0.2413	-0.1764
3.77	-0.2356	-9.1009	-2.1021	0.0066	-0.0009	0.0056	8.7345	23.1774	11.5096	0.5970	-0.7445	0.2413	-0.1764
3.78	-0.2339	-9.0949	-2.1004	0.0167	0.0066	0.0040	8.7346	23.0521	11.5125	0.5970	-0.7445	0.2413	-0.1764
3.79	-0.2319	-9.1025	-2.1009	0.0157	0.0034	-0.0023	8.7309	22.8703	11.6452	0.5970	-0.7445	0.2413	-0.1764
3.8	-0.2257	-9.1065	-2.1058	0.0169	0.0039	0.0084	8.7327	22.8618	11.4742	0.5969	-0.7444	0.2412	-0.1764
3.81	-0.2226	-9.0968	-2.0982	0.0136	0.0033	0.0068	8.9202	22.9032	11.5425	0.5970	-0.7445	0.2413	-0.1765
3.82	-0.2218	-9.0968	-2.0961	0.0161	-0.0031	0.0047	8.7706	22.9640	11.4373	0.5970	-0.7445	0.2413	-0.1765
3.83	-0.2239	-9.1021	-2.1008	0.0206	-0.0017	0.0131	8.8401	22.9704	11.4281	0.5970	-0.7445	0.2413	-0.1764
3.84	-0.2238	-9.0997	-2.0902	0.0188	-0.0058	0.0066	9.0311	22.9307	11.3043	0.5970	-0.7445	0.2412	-0.1764
3.85	-0.2249	-9.1019	-2.0926	0.0207	0.0004	0.0112	8.9362	23.0369	11.5126	0.5970	-0.7445	0.2413	-0.1764
3.86	-0.2254	-9.1004	-2.0899	0.0150	-0.0027	0.0033	8.8716	23.1220	11.6096	0.5970	-0.7445	0.2412	-0.1764
3.87	-0.2245	-9.0973	-2.0877	0.0179	-0.0085	0.0033	8.9069	22.9253	11.6058	0.5970	-0.7444	0.2412	-0.1764
3.88	-0.2326	-9.1006	-2.0830	0.0151	0.0005	0.0027	8.9618	23.0765	11.4590	0.5970	-0.7446	0.2412	-0.1764
3.89	-0.2330	-9.1034	-2.0859	0.0192	-0.0003	0.0017	8.7759	22.8812	11.6145	0.5970	-0.7445	0.2411	-0.1764
3.9	-0.2365	-9.1047	-2.0851	0.0191	0.0025	0.0075	8.7767	22.8730	11.6375	0.5971	-0.7446	0.2412	-0.1764
3.91	-0.2341	-9.0954	-2.0792	0.0204	0.0003	0.0056	8.7857	22.8793	11.1337	0.5970	-0.7445	0.2411	-0.1764
3.92	-0.2392	-9.0929	-2.0649	0.0143	-0.0085	0.0085	8.5637	22.9727	11.7118	0.5970	-0.7445	0.2411	-0.1764
3.93	-0.2456	-9.1107	-2.0828	0.0162	0.0042	0.0006	8.7983	22.9441	11.8759	0.5970	-0.7445	0.2411	-0.1764
3.94	-0.2487	-9.0970	-2.0792	0.0191	0.0028	0.0050	8.6595	23.0141	11.5735	0.5970	-0.7445	0.2411	-0.1765
3.95	-0.2539	-9.0944	-2.0710	0.0185	0.0011	0.0061	8.8307	23.0822	11.5830	0.5971	-0.7446	0.2411	-0.1765
3.96	-0.2597	-9.1072	-2.0819	0.0172	0.0009	0.0057	8.6704	23.2277	11.4732	0.5970	-0.7445	0.2411	-0.1765
3.97	-0.2590	-9.1061	-2.0841	0.0175	0.0034	0.0033	8.6580	22.9960	11.5206	0.5970	-0.7446	0.2411	-0.1765
3.98	-0.2553	-9.0921	-2.0774	0.0205	0.0057	0.0114	8.7141	23.2164	11.4039	0.5970	-0.7444	0.2411	-0.1765
3.99	-0.2514	-9.0965	-2.0808	0.0188	0.0004	0.0048	8.6012	23.2009	11.4981	0.5970	-0.7445	0.2412	-0.1766
4	-0.2516	-9.1082	-2.0809	0.0126	0.0061	0.0041	8.9091	23.0317	11.3745	0.5970	-0.7445	0.2412	-0.1766
4.01	-0.2497	-9.1051	-2.0742	0.0156	0.0019	0.0132	8.7586	23.1143	11.5124	0.5970	-0.7445	0.2412	-0.1766
4.02	-0.2434	-9.0938	-2.0728	0.0174	0.0029	0.0075	8.7926	23.1300	11.4194	0.5970	-0.7445	0.2412	-0.1766
4.03	-0.2400	-9.1051	-2.0747	0.0093	0.0028	0.0095	8.7527	22.7527	11.4042	0.5969	-0.7445	0.2412	-0.1766
4.04	-0.2430	-9.1027	-2.0742	0.0118	0.0088	0.0062	8.8494	23.0710	11.2633	0.5969	-0.7445	0.2413	-0.1766
4.05	-0.2393	-9.0922	-2.0701	0.0129	0.0024	0.0064	8.8616	22.8556	11.2184	0.5968	-0.7445	0.2412	-0.1766
4.06	-0.2357	-9.1003	-2.0826	0.0160	0.0068	0.0058	8.8799	23.0087	11.2952	0.5969	-0.7446	0.2413	-0.1766
4.07	-0.2388	-9.1100	-2.0893	0.0148	0.0006	0.0039	8.8019	23.1518	11.4523	0.5969	-0.7445	0.2413	-0.1767
4.08	-0.2408	-9.1047	-2.0917	0.0169	0.0004	0.0089	8.8129	22.9089	11.3931	0.5969	-0.7446	0.2413	-0.1767
4.09	-0.2402	-9.0971	-2.0877	0.0154	-0.0002	0.0075	8.9734	23.0168	11.5274	0.5968	-0.7445	0.2413	-0.1766
4.1	-0.2421	-9.1121	-2.0922	0.0201	0.0071	0.0058	8.9091	22.8609	11.3813	0.5969	-0.7445	0.2413	-0.1767
4.11	-0.2449	-9.1033	-2.0880	0.0095	0.0062	0.0090	8.8005	22.8480	11.2802	0.5968	-0.7446	0.2413	-0.1767
4.12	-0.2434	-9.0913	-2.0837	0.0158	0.0026	0.0076	8.7486	23.1670	11.5100	0.5968	-0.7445	0.2413	-0.1767
4.13	-0.2363	-9.1022	-2.0816	0.0133	0.0011	0.0046	8.7997	23.0086	11.4894	0.5968	-0.7446	0.2413	-0.1767
4.14	-0.2288	-9.1096	-2.0885	0.0119	0.0008	0.0053	9.0047	23.0717	11.5631	0.5968	-0.7446	0.2413	-0.1767
4.15	-0.2215	-9.1000	-2.0745	0.0153	-0.0013	0.0045	9.2459	22.9781	11.8336	0.5968	-0.7447	0.2413	-0.1767
4.16	-0.2125	-9.1040	-2.0828	0.0151	0.0070	0.0091	9.1918	23.0564	11.6706	0.5967	-0.7446	0.2413	-0.1767
4.17	-0.2117	-9.1140	-2.0899	0.0089	-0.0022	0.0051	8.8815	23.5351	11.6588	0.5967	-0.7446	0.2413	-0.1767
4.18	-0.2072	-9.1041	-2.0933	0.0140	0.0017	0.0024	8.6517	23.7131	11.4217	0.5967	-0.7446	0.2413	-0.1767
4.19	-0.2044	-9.0943	-2.0868	0.0099	0.0053	0.0036	8.7291	23.0176	11.4466	0.5966	-0.7446	0.2413	-0.1767
4.2	-0.2197	-9.1069	-2.0962	0.0079	0.0009	0.0119	8.8683	23.0328	11.2369	0.5967	-0.7447	0.2414	-0.1767
4.21	-0.2231	-9.1068	-2.1065	0.0181	-0.0003	0.0108	8.9625	22.9445	11.3065	0.5966	-0.7447	0.2414	-0.1767
4.22	-0.2309	-9.0938	-2.1051	0.0169	0.0074	0.0085	9.0274	22.9654	11.3947	0.5967	-0.7447	0.2414	-0.1767
4.23	-0.2300	-9.0931	-2.1139	0.0125	0.0085	0.0044	8.9185	22.9674	11.3133	0.5966	-0.7446	0.2414	-0.1768
4.24	-0.2350	-9.0987	-2.1189	0.0169	0.0091	0.0071	8.9101	22.9329	11.5365	0.5966	-0.7447	0.2414	-0.1768
4.25	-0.2397	-9.0909	-2.1129	0.0201	-0.0010	0.0058	8.7724	23.0296	11.6038	0.5966	-0.7447	0.2414	-0.1768
4.26	-0.2426	-9.0939	-2.1129	0.0146	-0.0063	0.0061	8.7409	22.9657	11.4266	0.5966	-0.7447	0.2414	-0.1768
4.27	-0.2523	-9.1034	-2.1189	0.0095	0.0014	0.0055	8.7864	22.9594	11.3462	0.5966	-0.7447	0.2414	-0.1768
4.28	-0.2526	-9.1032	-2.1136	0.0129	-0.0089	0.0073	8.9583	23.0567	11.2320	0.5966	-0.7447	0.2414	-0.1768
4.29	-0.2581	-9.0920	-2.1072	0.0205	-0.0043	0.0057	8.7259	22.8818	11.3085	0.5966	-0.7447	0.2414	-0.1767
4.3	-0.2653	-9.0956	-2.1023	0.0189	0.0022	0.0070	8.8575	23.1519	11.5297	0.5965	-0.7446	0.2413	-0.1767
4.31	-0.2669	-9.1019	-2.1018	0.0200	-0.0012	0.0055	8.8032	23.0890	11.5233	0.5966	-0.7447	0.2413	-0.1768
4.32	-0.2694	-9.0911	-2.0867	0.0179	-0.0000	0.0081	8.7516	23.0441	11.5400	0.5966	-0.7447	0.2413	-0.1767
4.33	-0.2698	-9.0964	-2.0842	0.0163	0.0016	0.0043	8.7021	23.2274	11.4582	0.5966	-0.7447	0.2413	-0.1768
4.34	-0.2697	-9.1028	-2.0857	0.0200	-0.0007	-0.0026	8.5829	23.1800	11.3186	0.5966	-0.7447	0.2413	-0.1768
4.35	-0.2649	-9.0993	-2.0812	0.0157	-0.0001	0.0062	8.7096	23.1094	11.4922	0.5966	-0.7447	0.2413	-0.1768
4.36	-0.2590	-9.0910	-2.0758	0.0141	0.0064	0.0061	8.8279	23.1093	11.5331	0.5966	-0.7447	0.2413	-0.1768
4.37	-0.2498	-9.1011	-2.0846	0.0218	0.0004	0.0040	8.7834	23.2030	11.5072	0.5965	-0.7446	0.2413	-0.1768
4.38	-0.2514	-9.1034	-2.0816	0.0179	-0.0067	0.0051	8.5266	23.2020	11.5252	0.5966	-0.7447	0.2413	-0.1769
4.39	-0.2517	-9.0938	-2.0696	0.0210	0.0040	0.0063	8.8286	22.9328	11.5018	0.5966	-0.7447	0.2413	-0.1769
4.4	-0.2523	-9.1045	-2.0779	0.0116	0.0004	0.0118	9.2224	23.0083	11.3636	0.5966	-0.7448	0.2413	-0.1769
4.41	-0.2544	-9.1041	-2.0895	0.0124	0.0043	0.0083	8.9724	22.8349	11.3496	0.5965	-0.7447	0.2413	-0.1768
4.42	-0.2504	-9.0910	-2.0820	0.0174	0.0018	0.0084	8.8084	22.8395	11.4997	0.5966	-0.7447	0.2413	-0.1769
4.43	-0.2500	-9.0936	-2.0814	0.0147	-0.0021	0.0099	9.0196	22.8319	11.5260	0.5966	-0.7447	0.2413	-0.1768
4.44	-0.2428	-9.1148	-2.1060	0.0160	0.0069	0.0118	8.9317	22.8395	11.2606	0.5965	-0.7447	0.2414	-0.1768
4.45	-0.2353	-9.1020	-2.0931	0.0170	0.0042	0.0094	8.8297	23.0742	11.2679	0.5966	-0.7448	0.2414	-0.1769
4.46	-0.2299	-9.0922	-2.0930	0.0169	-0.0011	0.0084	8.8432	22.9214	11.4163	0.5966	-0.7447	0.2414	-0.1769
4.47	-0.2284	-9.1027	-2.0965	0.0180	-0.0020	0.0122	8.8407	22.9838	11.4663	0.5966	-0.7447	0.2414	-0.1768
4.48	-0.2242	-9.1050	-2.0971	0.0199	-0.0011	0.0065	8.8386	22.9374	11.3435	0.5965	-0.7446	0.2414	-0.1768
4.49	-0.2230	-9.0973	-2.0930	0.0183	0.0033	0.0114	8.8483	23.0720	11.3545	0.5966	-0.7447	0.2414	-0.1768
4.5	-0.2235	-9.1008	-2.0968	0.0195	0.0014	0.0088	8.8103	23.0120	11.5268	0.5966	-0.7447	0.2414	-0.1768
4.51	-0.2240	-9.0996	-2.1002	0.0171	-0.0053	0.0104	8.6467	23.1123	11.4655	0.5966	-0.7446	0.2414	-0.1768
4.52	-0.2234	-9.0950	-2.0934	0.0183	0.0030	0.0081	8.8758	23.1320	11.3093	0.5966	-0.7447	0.2414	-0.1768
4.53	-0.2226	-9.0949	-2.0959	0.0158	0.0050	0.0009	8.9197	22.9876	11.6750	0.5966	-0.7446	0.2414	-0.1768
4.54	-0.2313	-9.1058	-2.0980	0.0130	0.0029	0.0094	8.7118	23.1299	11.4502	0.5966	-0.7447	0.2415	-0.1769
4.55	-0.2266	-9.1038	-2.0962	0.0170	0.0013	0.0073	8.5626	23.0830	11.5089	0.5965	-0.7446	0.2414	-0.1769
4.56	-0.2289	-9.0964	-2.0844	0.0189	0.0019	0.0053	8.8162	23.1784	11.6280	0.5966	-0.7447	0.2415	-0.1769
4.57	-0.2274	-9.1061	-2.0908	0.0159	-0.0045	0.0098	8.6697	23.1180	11.4589	0.5966	-0.7446	0.2415	-0.1769
4.58	-0.2300	-9.1065	-2.0891	0.0201	-0.0019	0.0121	8.7854	22.7550	11.3729	0.5966	-0.7447	0.2415	-0.1768
4.59	-0.2264	-9.1008	-2.0868	0.0174	-0.0078	0.0065	9.0541	22.8925	11.3651	0.5966	-0.7446	0.2414	-0.1768
4.6	-0.2266	-9.0961	-2.0859	0.0166	-0.0027	0.0038	8.8462	22.9007	11.3467	0.5966	-0.7446	0.2414	-0.1768
4.61	-0.2312	-9.1067	-2.0944	0.0159	0.0008	0.0095	8.8763	22.9747	11.4140	0.5966	-0.7447	0.2414	-0.1768
4.62	-0.2347	-9.1009	-2.0873	0.0162	-0.0024	0.0086	9.0107	22.9468	11.4630	0.5966	-0.7446	0.2414	-0.1768
4.63	-0.2370	-9.0955	-2.0885	0.0199	-0.0082	0.0076	8.9945	23.0584	11.3346	0.5967	-0.7447	0.2414	-0.1768
4.64	-0.2319	-9.1016	-2.0931	0.0157	-0.0069	0.0122	8.8800	22.9088	11.5151	0.5966	-0.7446	0.2414	-0.1767
4.65	-0.2438	-9.1077	-2.0969	0.0133	-0.0020	0.0114	9.4813	22.8082	11.5739	0.5967	-0.7447	0.2414	-0.1767
4.66	-0.2437	-9.0935	-2.0872	0.0167	-0.0049	0.0097	9.3280	22.9767	11.5092	0.5966	-0.7446	0.2414	-0.1767
4.67	-0.2480	-9.0968	-2.0937	0.0199	-0.0026	0.0117	8.9185	23.4109	11.4524	0.5967	-0.7447	0.2414	-0.1766
4.68	-0.2458	-9.1004	-2.0949	0.0139	-0.0099	0.0053	8.8740	23.4167	11.4553	0.5967	-0.7447	0.2414	-0.1766
4.69	-0.2492	-9.0961	-2.0886	0.0137	-0.0008	0.0031	8.7753	22.9453	11.6086	0.5966	-0.7446	0.2413	-0.1766
4.7	-0.2571	-9.0953	-2.0861	0.0192	-0.0020	0.0103	8.6034	23.0641	11.5721	0.5967	-0.7447	0.2414	-0.1766
4.71	-0.2606	-9.1023	-2.0887	0.0158	-0.0074	0.0113	8.7395	23.1965	11.6343	0.5967	-0.7447	0.2414	-0.1766
4.72	-0.2645	-9.0944	-2.0904	0.0092	-0.0045	0.0052	8.6233	22.9979	11.6678	0.5967	-0.7447	0.2414	-0.1766
4.73	-0.2634	-9.0879	-2.0833	0.0119	-0.0040	0.0094	8.6122	22.9684	11.3820	0.5966	-0.7447	0.2413	-0.1765
4.74	-0.2651	-9.0989	-2.0879	0.0155	0.0025	0.0049	8.7443	22.9643	11.3394	0.5966	-0.7447	0.2414	-0.1765
4.75	-0.2667	-9.1001	-2.0882	0.0132	-0.0044	-0.0028	8.8070	23.0198	11.4644	0.5966	-0.7447	0.2413	-0.1765
4.76	-0.2647	-9.0992	-2.0866	0.0166	-0.0047	0.0071	8.7556	23.0736	11.3009	0.5966	-0.7447	0.2413	-0.1765
4.77	-0.2627	-9.1033	-2.0891	0.0204	-0.0056	0.0056	8.9102	23.0553	11.5405	0.5966	-0.7448	0.2413	-0.1765
4.78	-0.2561	-9.0983	-2.0926	0.0154	-0.0075	0.0066	8.9037	23.0598	11.4692	0.5966	-0.7448	0.2412	-0.1765
4.79	-0.2531	-9.0923	-2.0755	0.0109	-0.0015	0.0074	8.7096	22.8868	11.3921	0.5966	-0.7448	0.2412	-0.1765
4.8	-0.2496	-9.0971	-2.0786	0.0080	-0.0047	0.0079	8.9848	22.9009	11.4566	0.5965	-0.7447	0.2412	-0.1764
4.81	-0.2425	-9.1045	-2.0767	0.0142	-0.0093	0.0042	8.8288	22.9802	11.3819	0.5966	-0.7449	0.2412	-0.1764
4.82	-0.2303	-9.0984	-2.0677	0.0177	-0.0083	0.0047	8.6288	22.8479	11.5053	0.5966	-0.7448	0.2412	-0.1764
4.83	-0.2260	-9.0978	-2.0619	0.0174	-0.0032	0.0059	8.8743	22.9834	11.4265	0.5966	-0.7449	0.2411	-0.1764
4.84	-0.2202	-9.1068	-2.0647	0.0179	-0.0032	0.0079	8.8580	22.9733	11.4298	0.5966	-0.7448	0.2411	-0.1764
4.85	-0.2127	-9.1070	-2.0667	0.0143	-0.0070	0.0075	8.6684	23.1013	11.4897	0.5966	-0.7448	0.2411	-0.1763
4.86	-0.2118	-9.0987	-2.0600	0.0144	-0.0056	0.0082	8.8868	22.9893	11.4267	0.5966	-0.7449	0.2411	-0.1763
4.87	-0.2134	-9.1049	-2.0724	0.0173	-0.0027	0.0072	8.8266	22.9789	11.6366	0.5966	-0.7448	0.2411	-0.1763
4.88	-0.2128	-9.1098	-2.0904	0.0114	0.0027	0.0084	8.9930	23.0612	11.5577	0.5966	-0.7449	0.2411	-0.1763
4.89	-0.2133	-9.0971	-2.0939	0.0199	0.0043	0.0082	8.7172	23.0945	11.6525	0.5966	-0.7449	0.2411	-0.1763
4.9	-0.2139	-9.0974	-2.1063	0.0130	0.0019	-0.0030	8.7613	23.1654	11.6493	0.5966	-0.7449	0.2411	-0.1764
4.91	-0.2170	-9.0979	-2.1274	0.0122	-0.0033	0.0067	8.7856	23.0665	11.3802	0.5965	-0.7449	0.2411	-0.1763
4.92	-0.2221	-9.0906	-2.1308	0.0182	-0.0014	0.0017	8.5974	22.9014	11.4447	0.5966	-0.7449	0.2411	-0.1764
4.93	-0.2301	-9.0867	-2.1299	0.0135	0.0074	0.0034	8.7823	22.7987	11.5518	0.5966	-0.7449	0.2411	-0.1764
4.94	-0.2339	-9.1032	-2.1258	0.0187	0.0058	0.0073	8.8424	23.0741	11.3958	0.5965	-0.7449	0.2411	-0.1764
4.95	-0.2466	-9.1094	-2.1224	0.0125	-0.0077	0.0087	8.9722	23.1541	11.5361	0.5966	-0.7450	0.2411	-0.1764
4.96	-0.2503	-9.0926	-2.0903	0.0133	0.0003	0.0106	8.9189	23.1311	11.4495	0.5965	-0.7449	0.2411	-0.1764
4.97	-0.2439	-9.1032	-2.0681	0.0212	-0.0036	0.0088	8.7799	22.9729	11.2123	0.5966	-0.7449	0.2411	-0.1764
4.98	-0.2407	-9.1105	-2.0565	0.0123	-0.0018	0.0083	8.8726	22.9953	11.3450	0.5965	-0.7449	0.2411	-0.1763
4.99	-0.2405	-9.1064	-2.0417	0.0182	-0.0021	0.0110	8.9642	22.9533	11.4414	0.5966	-0.7449	0.2411	-0.1763
5	-0.2360	-9.1057	-2.0402	0.0153	-0.0088	0.0078	8.7844	23.0468	11.5782	0.5966	-0.7449	0.2411	-0.1763
5.01	-0.2365	-9.1066	-2.0508	0.0123	-0.0063	0.0086	8.7806	22.9923	11.5544	0.5966	-0.7449	0.2411	-0.1762
5.02	-0.2361	-9.1073	-2.0600	0.0159	-0.0008	0.0099	8.8730	22.9729	11.2774	0.5966	-0.7450	0.2411	-0.1762
5.03	-0.2408	-9.0959	-2.0649	0.0148	-0.0051	0.0073	8.8872	23.1034	11.3915	0.5966	-0.7449	0.2411	-0.1762
5.04	-0.2483	-9.1009	-2.0830	0.0149	-0.0029	0.0110	9.0075	23.0308	11.4187	0.5966	-0.7450	0.2411	-0.1762
5.05	-0.2480	-9.1019	-2.0899	0.0197	-0.0087	0.0088	8.7483	23.1566	11.4961	0.5965	-0.7449	0.2410	-0.1761
5.06	-0.2582	-9.0991	-2.0945	0.0146	-0.0054	0.0062	8.9112	23.1332	11.5019	0.5966	-0.7450	0.2410	-0.1761
5.07	-0.2561	-9.0987	-2.0995	0.0141	-0.0047	0.0043	8.7780	23.0283	11.5268	0.5966	-0.7450	0.2410	-0.1761
5.08	-0.2620	-9.1075	-2.1121	0.0166	0.0019	0.0060	8.6553	23.0905	11.4309	0.5966	-0.7450	0.2410	-0.1761
5.09	-0.2655	-9.0979	-2.1027	0.0198	-0.0006	0.0058	8.8214	22.9372	11.4163	0.5966	-0.7449	0.2410	-0.1761
5.1	-0.2636	-9.0865	-2.1013	0.0143	-0.0052	0.0027	8.7547	23.0416	11.4154	0.5966	-0.7450	0.2410	-0.1761
5.11	-0.2557	-9.0996	-2.1118	0.0105	0.0046	0.0081	8.8577	23.1923	11.4143	0.5966	-0.7450	0.2410	-0.1762
5.12	-0.2527	-9.1067	-2.1108	0.0080	-0.0027	0.0076	8.8796	23.0568	11.4020	0.5965	-0.7450	0.2410	-0.1761
5.13	-0.2458	-9.0998	-2.1047	0.0110	0.0000	0.0014	8.6792	22.9522	11.5411	0.5965	-0.7451	0.2410	-0.1761
5.14	-0.2383	-9.1006	-2.0989	0.0178	0.0044	0.0094	8.9970	23.1646	11.4512	0.5965	-0.7450	0.2410	-0.1761
5.15	-0.2335	-9.1119	-2.1101	0.0195	-0.0042	0.0069	9.2811	23.0231	11.4375	0.5966	-0.7451	0.2410	-0.1762
5.16	-0.2312	-9.0957	-2.0929	0.0202	-0.0129	0.0091	9.1870	23.0713	11.3871	0.5965	-0.7450	0.2409	-0.1761
5.17	-0.2278	-9.0938	-2.0887	0.0159	-0.0010	0.0060	8.9011	23.3715	11.2509	0.5966	-0.7450	0.2410	-0.1761
5.18	-0.2285	-9.1129	-2.0957	0.0173	-0.0039	0.0078	8.9615	23.6313	11.3249	0.5966	-0.7450	0.2409	-0.1761
5.19	-0.2277	-9.1041	-2.1013	0.0178	-0.0035	0.0093	8.7243	23.0627	11.3688	0.5965	-0.7450	0.2409	-0.1760
5.2	-0.2182	-9.0887	-2.0860	0.0162	0.0058	0.0059	8.7813	22.7897	11.2261	0.5966	-0.7451	0.2410	-0.1761
5.21	-0.2194	-9.0979	-2.0803	0.0140	-0.0034	-0.0000	8.9526	22.9720	11.4768	0.5965	-0.7450	0.2409	-0.1761
5.22	-0.2213	-9.1109	-2.0802	0.0174	0.0011	0.0092	8.6482	23.0519	11.4937	0.5966	-0.7451	0.2409	-0.1761
5.23	-0.2167	-9.1004	-2.0670	0.0148	-0.0061	0.0133	8.7618	22.9545	11.3107	0.5965	-0.7450	0.2409	-0.1760
5.24	-0.2180	-9.1015	-2.0655	0.0144	-0.0035	0.0074	8.8386	23.0221	11.4860	0.5966	-0.7451	0.2409	-0.1760
5.25	-0.2203	-9.1126	-2.0722	0.0197	0.0017	0.0071	8.8337	22.9619	11.2194	0.5966	-0.7450	0.2409	-0.1760
5.26	-0.2197	-9.1021	-2.0620	0.0151	-0.0000	0.0070	8.5602	23.1341	11.4276	0.5966	-0.7450	0.2409	-0.1760
5.27	-0.2242	-9.0997	-2.0547	0.0175	0.0070	0.0101	8.7163	23.0189	11.4253	0.5966	-0.7450	0.2410	-0.1761
5.28	-0.2310	-9.1026	-2.0608	0.0153	0.0017	0.0078	8.6984	23.2613	11.3302	0.5966	-0.7450	0.2410	-0.1761
5.29	-0.2380	-9.1026	-2.0604	0.0181	0.0119	0.0056	8.7506	23.1124	11.5284	0.5966	-0.7450	0.2410	-0.1761
5.3	-0.2390	-9.0949	-2.0566	0.0143	0.0081	0.0104	8.9457	23.1138	11.5268	0.5965	-0.7449	0.2410	-0.1761
5.31	-0.2474	-9.1023	-2.0516	0.0148	0.0005	0.0123	8.7995	23.1226	11.4029	0.5966	-0.7450	0.2411	-0.1761
5.32	-0.2566	-9.1041	-2.0598	0.0195	-0.0032	0.0074	8.8260	22.9551	11.4947	0.5965	-0.7450	0.2411	-0.1761
5.33	-0.2551	-9.0955	-2.0564	0.0179	-0.0090	0.0086	8.6408	22.9683	11.5020	0.5966	-0.7450	0.2410	-0.1761
5.34	-0.2548	-9.0949	-2.0646	0.0113	-0.0039	0.0129	8.7738	22.7505	11.2046	0.5965	-0.7450	0.2410	-0.1760
5.35	-0.2506	-9.1071	-2.0753	0.0140	-0.0004	0.0106	8.8631	22.8242	11.2149	0.5966	-0.7450	0.2411	-0.1760
5.36	-0.2432	-9.1054	-2.0834	0.0161	0.0009	0.0102	8.9813	22.8795	11.4780	0.5966	-0.7450	0.2411	-0.1760
5.37	-0.2336	-9.0926	-2.0899	0.0202	-0.0017	0.0126	9.0064	22.8754	11.3530	0.5965	-0.7449	0.2411	-0.1760
5.38	-0.2370	-9.1029	-2.1058	0.0130	-0.0051	0.0091	8.9810	22.8544	11.3551	0.5966	-0.7450	0.2411	-0.1760
5.39	-0.2367	-9.1080	-2.1220	0.0120	-0.0031	0.0067	8.8660	22.9134	11.5166	0.5966	-0.7450	0.2411	-0.1759
5.4	-0.2336	-9.0975	-2.1242	0.0163	-0.0115	0.0114	8.9988	22.9695	11.4837	0.5966	-0.7451	0.2411	-0.1759
5.41	-0.2360	-9.0919	-2.1273	0.0180	-0.0096	0.0128	8.9170	22.9521	11.3195	0.5966	-0.7450	0.2410	-0.1758
5.42	-0.2419	-9.1070	-2.1380	0.0166	0.0012	0.0131	8.6881	23.0446	11.3800	0.5966	-0.7450	0.2411	-0.1758
5.43	-0.2461	-9.1031	-2.1299	0.0186	0.0042	0.0054	8.8281	23.0610	11.4812	0.5966	-0.7450	0.2411	-0.1758
5.44	-0.2513	-9.0921	-2.1193	0.0142	0.0015	0.0075	8.7550	23.2053	11.6332	0.5966	-0.7449	0.2411	-0.1759
5.45	-0.2548	-9.1036	-2.1139	0.0146	-0.0048	0.0003	8.7358	23.1961	11.4851	0.5966	-0.7451	0.2411	-0.1759
5.46	-0.2566	-9.0963	-2.1106	0.0167	0.0001	0.0045	8.7643	23.0450	11.2917	0.5966	-0.7450	0.2411	-0.1759
5.47	-0.2578	-9.0891	-2.0854	0.0085	-0.0036	0.0117	8.7335	23.0635	11.4156	0.5966	-0.7451	0.2411	-0.1759
5.48	-0.2593	-9.0947	-2.0903	0.0127	-0.0014	0.0031	8.7579	23.2293	11.5345	0.5965	-0.7450	0.2411	-0.1758
5.49	-0.2611	-9.1065	-2.0907	0.0152	-0.0050	0.0036	8.8167	23.1645	11.3928	0.5966	-0.7451	0.2411	-0.1759
5.5	-0.2573	-9.0935	-2.0728	0.0179	-0.0046	0.0026	8.8854	23.2643	11.4765	0.5966	-0.7450	0.2410	-0.1759
5.51	-0.2473	-9.0899	-2.0665	0.0143	-0.0086	0.0099	8.8637	23.2592	11.3068	0.5965	-0.7450	0.2410	-0.1758
5.52	-0.2458	-9.1045	-2.0793	0.0110	-0.0050	0.0073	8.7199	22.8901	11.5017	0.5966	-0.7451	0.2410	-0.1758
5.53	-0.2377	-9.1047	-2.0830	0.0189	-0.0024	0.0028	8.8937	22.8722	11.3277	0.5966	-0.7451	0.2410	-0.1758
5.54	-0.2290	-9.0998	-2.0813	0.0177	-0.0017	0.0063	8.9327	22.8533	11.3474	0.5966	-0.7451	0.2410	-0.1758
5.55	-0.2323	-9.1088	-2.0892	0.0195	-0.0050	0.0063	8.8260	22.9607	11.5788	0.5965	-0.7450	0.2409	-0.1758
5.56	-0.2281	-9.1088	-2.0971	0.0107	-0.0112	0.0105	8.8308	22.9320	11.2845	0.5966	-0.7451	0.2409	-0.1757
5.57	-0.2272	-9.0906	-2.0878	0.0198	-0.0022	0.0102	8.6969	22.8383	11.4101	0.5966	-0.7451	0.2409	-0.1757
5.58	-0.2245	-9.0993	-2.0957	0.0160	-0.0095	0.0107	8.8878	22.8809	11.5332	0.5966	-0.7451	0.2409	-0.1757
5.59	-0.2254	-9.1094	-2.1008	0.0168	-0.0029	0.0102	8.9455	22.8653	11.4448	0.5966	-0.7451	0.2409	-0.1756
5.6	-0.2229	-9.0954	-2.1007	0.0197	0.0009	0.0083	8.6366	22.7581	11.3097	0.5966	-0.7451	0.2409	-0.1756
5.61	-0.2230	-9.0960	-2.0930	0.0198	-0.0114	0.0058	8.7788	23.0088	11.3984	0.5967	-0.7451	0.2409	-0.1756
5.62	-0.2250	-9.1085	-2.1040	0.0185	0.0002	0.0081	8.9264	23.0399	11.2189	0.5966	-0.7450	0.2409	-0.1756
5.63	-0.2280	-9.1011	-2.0963	0.0200	-0.0011	0.0101	8.8247	23.0315	11.5221	0.5967	-0.7451	0.2409	-0.1756
5.64	-0.2283	-9.0917	-2.0906	0.0145	-0.0008	0.0071	8.9347	23.3183	11.7381	0.5967	-0.7450	0.2409	-0.1756
5.65	-0.2406	-9.0980	-2.0860	0.0175	-0.0067	0.0089	9.3187	23.1615	11.7138	0.5967	-0.7451	0.2409	-0.1756
5.66	-0.2502	-9.1049	-2.0877	0.0126	-0.0051	0.0026	9.1005	23.1418	11.6197	0.5967	-0.7450	0.2408	-0.1755
5.67	-0.2523	-9.0929	-2.0772	0.0068	-0.0035	0.0117	8.5730	23.2989	11.4280	0.5967	-0.7451	0.2409	-0.1755
5.68	-0.2563	-9.0911	-2.0645	0.0079	-0.0088	0.0056	8.8688	23.7214	11.5088	0.5966	-0.7451	0.2409	-0.1755
5.69	-0.2574	-9.1072	-2.0816	0.0118	-0.0076	0.0028	8.7825	23.0344	11.4899	0.5966	-0.7451	0.2408	-0.1755
5.7	-0.2605	-9.1062	-2.0799	0.0158	-0.0131	0.0074	8.7785	23.0935	11.5637	0.5967	-0.7452	0.2408	-0.1754
5.71	-0.2509	-9.0892	-2.0745	0.0121	-0.0068	0.0068	8.8163	22.8662	11.4267	0.5966	-0.7452	0.2408	-0.1754
5.72	-0.2422	-9.1013	-2.0830	0.0144	-0.0083	0.0073	8.9393	22.8554	11.3620	0.5967	-0.7452	0.2407	-0.1754
5.73	-0.2353	-9.1113	-2.0899	0.0168	-0.0018	0.0076	9.0413	22.9956	11.6403	0.5966	-0.7451	0.2407	-0.1753
5.74	-0.2309	-9.1021	-2.0800	0.0185	-0.0012	0.0090	9.0096	22.9100	11.6194	0.5967	-0.7452	0.2407	-0.1753
5.75	-0.2325	-9.0958	-2.0778	0.0166	-0.0049	0.0108	8.9059	22.9950	11.5631	0.5967	-0.7452	0.2407	-0.1753
5.76	-0.2340	-9.1075	-2.0832	0.0173	0.0002	0.0043	8.7769	22.9911	11.4939	0.5967	-0.7452	0.2407	-0.1753
5.77	-0.2415	-9.0979	-2.0812	0.0136	-0.0069	0.0092	8.8840	22.9420	11.6274	0.5967	-0.7452	0.2407	-0.1753
5.78	-0.2467	-9.0884	-2.0805	0.0141	-0.0038	0.0101	8.9546	22.9543	11.4874	0.5967	-0.7452	0.2407	-0.1752
5.79	-0.2585	-9.1005	-2.0889	0.0218	-0.0054	0.0122	8.7730	22.9117	11.5560	0.5967	-0.7452	0.2407	-0.1752
5.8	-0.2559	-9.1044	-2.1008	0.0171	-0.0026	0.0102	8.8105	22.9844	11.4136	0.5967	-0.7451	0.2407	-0.1752
5.81	-0.2517	-9.0985	-2.0994	0.0150	-0.0027	0.0084	8.6631	23.0362	11.5583	0.5967	-0.7452	0.2407	-0.1752
5.82	-0.2456	-9.0994	-2.0978	0.0177	-0.0022	0.0059	8.6310	22.8933	11.6373	0.5967	-0.7452	0.2407	-0.1752
5.83	-0.2370	-9.1028	-2.1027	0.0133	-0.0032	0.0088	8.8049	23.0149	11.8136	0.5967	-0.7452	0.2407	-0.1752
5.84	-0.2296	-9.0973	-2.0974	0.0183	-0.0071	0.0046	8.7530	22.9685	11.6694	0.5967	-0.7452	0.2407	-0.1752
5.85	-0.2197	-9.0997	-2.0958	0.0128	0.0005	0.0062	8.8325	23.1996	11.4841	0.5967	-0.7452	0.2407	-0.1752
5.86	-0.2215	-9.1048	-2.1019	0.0145	-0.0060	0.0084	8.6749	22.9456	11.5071	0.5967	-0.7452	0.2407	-0.1751
5.87	-0.2260	-9.0982	-2.1041	0.0142	-0.0001	0.0041	8.8950	23.0779	11.3008	0.5967	-0.7452	0.2406	-0.1751
5.88	-0.2226	-9.0973	-2.1000	0.0168	-0.0009	0.0066	8.8255	23.0691	11.4861	0.5968	-0.7453	0.2407	-0.1752
5.89	-0.2295	-9.1010	-2.0988	0.0101	-0.0156	0.0116	8.7211	23.0613	11.5072	0.5967	-0.7452	0.2406	-0.1751
5.9	-0.2350	-9.1055	-2.1014	0.0194	-0.0068	0.0127	9.0066	23.0897	11.3305	0.5968	-0.7453	0.2407	-0.1750
5.91	-0.2350	-9.0957	-2.0981	0.0178	-0.0085	0.0127	8.9232	22.9683	11.4552	0.5967	-0.7452	0.2406	-0.1750
5.92	-0.2386	-9.0962	-2.0952	0.0120	-0.0009	0.0124	8.7576	23.1064	11.2945	0.5968	-0.7452	0.2407	-0.1750
5.93	-0.2383	-9.1059	-2.0978	0.0214	-0.0075	0.0136	8.8585	22.8127	11.4265	0.5968	-0.7452	0.2407	-0.1749
5.94	-0.2353	-9.0979	-2.0935	0.0153	-0.0059	0.0061	8.8253	22.9639	11.4213	0.5968	-0.7452	0.2406	-0.1749
5.95	-0.2380	-9.0939	-2.0891	0.0180	-0.0078	0.0049	8.7440	22.9907	11.5513	0.5969	-0.7453	0.2406	-0.1749
5.96	-0.2361	-9.1001	-2.0894	0.0194	-0.0090	0.0099	8.8658	23.1306	11.3287	0.5968	-0.7452	0.2406	-0.1749
5.97	-0.2358	-9.1034	-2.0907	0.0153	-0.0046	0.0132	8.8212	23.1202	11.4721	0.5969	-0.7452	0.2406	-0.1748
5.98	-0.2335	-9.0931	-2.0877	0.0190	-0.0050	0.0105	8.7080	22.9533	11.5463	0.5968	-0.7451	0.2406	-0.1748
5.99	-0.2389	-9.1029	-2.0868	0.0155	-0.0055	0.0057	8.7862	22.9964	11.3900	0.5969	-0.7452	0.2406	-0.1748
6	-0.2414	-9.1089	-2.0954	0.0195	-0.0008	0.0095	8.7056	22.9605	11.4776	0.5969	-0.7452	0.2406	-0.1748
6.01	-0.2409	-9.0953	-2.0863	0.0197	-0.0093	0.0067	8.9029	23.0099	11.6221	0.5969	-0.7452	0.2406	-0.1748
6.02	-0.2445	-9.0971	-2.0893	0.0184	-0.0033	0.0050	8.7558	22.8630	11.5079	0.5969	-0.7452	0.2406	-0.1748
6.03	-0.2427	-9.0996	-2.0889	0.0182	-0.0071	0.0100	8.8225	22.9526	11.2794	0.5969	-0.7452	0.2405	-0.1747
6.04	-0.2458	-9.0996	-2.0804	0.0170	0.0014	0.0104	8.7582	23.1755	11.4497	0.5970	-0.7452	0.2406	-0.1747
6.05	-0.2516	-9.0996	-2.0841	0.0199	0.0014	0.0086	8.9010	23.0650	11.3356	0.5969	-0.7451	0.2406	-0.1747
6.06	-0.2544	-9.1021	-2.0870	0.0142	-0.0027	0.0100	8.8289	22.9525	11.4737	0.5970	-0.7452	0.2406	-0.1747
6.07	-0.2575	-9.0994	-2.0887	0.0129	0.0002	0.0117	8.6587	22.8939	11.5248	0.5969	-0.7451	0.2406	-0.1747
6.08	-0.2562	-9.0955	-2.0836	0.0179	0.0041	0.0054	8.7795	23.1144	11.2962	0.5970	-0.7452	0.2406	-0.1747
6.09	-0.2513	-9.0979	-2.0810	0.0156	-0.0038	0.0094	8.8986	22.9271	11.4862	0.5969	-0.7451	0.2406	-0.1747
6.1	-0.2540	-9.1040	-2.0819	0.0200	-0.0006	0.0062	8.8266	22.9513	11.6143	0.5970	-0.7451	0.2406	-0.1747
6.11	-0.2489	-9.1045	-2.0865	0.0183	-0.0007	0.0096	8.9833	23.1189	11.4565	0.5970	-0.7451	0.2406	-0.1747
6.12	-0.2476	-9.0957	-2.0869	0.0183	0.0048	0.0071	9.0689	22.9767	11.3346	0.5969	-0.7451	0.2406	-0.1747
6.13	-0.2442	-9.1020	-2.0884	0.0197	-0.0047	0.0063	8.8303	23.0697	11.3690	0.5970	-0.7451	0.2406	-0.1747
6.14	-0.2451	-9.1041	-2.0975	0.0101	-0.0125	0.0114	9.0316	22.9673	11.7491	0.5970	-0.7451	0.2406	-0.1747
6.15	-0.2472	-9.0979	-2.0938	0.0166	-0.0078	0.0106	9.4259	22.9863	11.8605	0.5971	-0.7452	0.2406	-0.1746
6.16	-0.2433	-9.0904	-2.0919	0.0193	-0.0012	0.0053	9.3300	23.1877	11.5689	0.5970	-0.7451	0.2406	-0.1746
6.17	-0.2452	-9.1044	-2.0978	0.0206	0.0032	0.0103	8.9331	23.5373	11.3911	0.5970	-0.7451	0.2406	-0.1746
6.18	-0.2489	-9.1059	-2.0987	0.0152	0.0027	0.0066	8.7709	23.6249	11.5048	0.5970	-0.7451	0.2406	-0.1747
6.19	-0.2505	-9.0939	-2.0974	0.0164	-0.0028	0.0068	8.6606	23.0854	11.5978	0.5970	-0.7450	0.2406	-0.1746
6.2	-0.2481	-9.0965	-2.0942	0.0139	-0.0022	0.0102	8.6559	23.1165	11.7107	0.5971	-0.7451	0.2406	-0.1747
6.21	-0.2404	-9.0977	-2.0972	0.0119	0.0002	0.0073	8.7090	23.0619	11.4263	0.5970	-0.7451	0.2406	-0.1746
6.22	-0.2366	-9.1061	-2.0891	0.0197	0.0058	0.0110	8.7654	23.0416	11.4670	0.5971	-0.7451	0.2407	-0.1747
6.23	-0.2269	-9.1028	-2.0878	0.0119	-0.0034	0.0088	8.7571	23.2204	11.3313	0.5970	-0.7450	0.2407	-0.1746
6.24	-0.2226	-9.1021	-2.0831	0.0206	-0.0001	0.0073	8.7254	23.1485	11.4707	0.5970	-0.7451	0.2407	-0.1747
6.25	-0.2215	-9.1016	-2.0781	0.0182	-0.0012	0.0087	8.6806	23.0685	11.3995	0.5970	-0.7450	0.2407	-0.1747
6.26	-0.2149	-9.1046	-2.0839	0.0139	-0.0061	0.0093	8.8608	22.9180	11.5545	0.5970	-0.7450	0.2407	-0.1746
6.27	-0.2127	-9.1003	-2.0830	0.0150	-0.0056	0.0088	8.8021	22.9631	11.4093	0.5971	-0.7451	0.2407	-0.1746
6.28	-0.2139	-9.1034	-2.0864	0.0146	-0.0084	0.0104	8.9998	23.0139	11.3797	0.5970	-0.7451	0.2407	-0.1746
6.29	-0.2179	-9.1031	-2.0829	0.0173	-0.0091	0.0120	8.9188	22.9053	11.4743	0.5971	-0.7451	0.2407	-0.1745
6.3	-0.2253	-9.1035	-2.0966	0.0173	-0.0018	0.0089	8.9752	23.0177	11.4327	0.5970	-0.7450	0.2406	-0.1745
6.31	-0.2260	-9.0995	-2.0874	0.0141	-0.0002	0.0116	9.1001	23.1535	11.4488	0.5971	-0.7451	0.2407	-0.1745
6.32	-0.2270	-9.1007	-2.0953	0.0121	-0.0091	0.0069	8.8949	23.1764	11.4513	0.5971	-0.7451	0.2407	-0.1745
6.33	-0.2258	-9.0969	-2.0931	0.0146	0.0037	0.0087	8.7161	23.0093	11.3657	0.5971	-0.7451	0.2407	-0.1745
6.34	-0.2287	-9.0907	-2.0920	0.0204	0.0021	0.0126	8.9484	22.9450	11.3476	0.5971	-0.7450	0.2407	-0.1745
6.35	-0.2294	-9.0997	-2.0910	0.0187	0.0021	0.0116	8.8775	22.8115	11.3755	0.5971	-0.7450	0.2407	-0.1745
6.36	-0.2310	-9.1115	-2.0970	0.0175	0.0007	0.0105	8.8226	23.1354	11.5280	0.5971	-0.7450	0.2407	-0.1745
6.37	-0.2384	-9.0992	-2.0898	0.0071	0.0019	0.0085	8.7765	23.2723	11.4409	0.5970	-0.7450	0.2408	-0.1745
6.38	-0.2461	-9.0959	-2.0827	0.0042	-0.0033	0.0046	8.5495	23.2835	11.4128	0.5971	-0.7451	0.2408	-0.1745
6.39	-0.2522	-9.0999	-2.0839	0.0087	-0.0023	0.0064	8.4997	22.9230	11.4451	0.5970	-0.7451	0.2408	-0.1745
6.4	-0.2543	-9.1017	-2.0794	0.0072	0.0024	0.0082	8.7666	23.0834	11.4261	0.5970	-0.7452	0.2408	-0.1745
6.41	-0.2580	-9.0968	-2.0751	0.0141	-0.0027	0.0099	8.6567	23.0194	11.4569	0.5969	-0.7451	0.2408	-0.1744
6.42	-0.2574	-9.1003	-2.0776	0.0111	0.0055	0.0101	8.6023	22.9297	11.4087	0.5969	-0.7451	0.2409	-0.1745
6.43	-0.2555	-9.1048	-2.0827	0.0099	-0.0007	0.0024	8.7004	23.0549	11.5137	0.5969	-0.7451	0.2409	-0.1745
6.44	-0.2535	-9.0991	-2.0781	0.0158	-0.0038	0.0099	8.6562	23.0050	11.4667	0.5969	-0.7451	0.2409	-0.1745
6.45	-0.2454	-9.0974	-2.0805	0.0189	-0.0046	0.0088	8.6851	23.0320	11.3138	0.5970	-0.7452	0.2409	-0.1745
6.46	-0.2410	-9.1016	-2.0847	0.0198	0.0026	0.0084	8.7987	22.7514	11.5223	0.5969	-0.7451	0.2409	-0.1745
6.47	-0.2330	-9.0995	-2.0761	0.0164	-0.0067	0.0086	8.8602	22.6330	11.2988	0.5970	-0.7452	0.2409	-0.1744
6.48	-0.2301	-9.0994	-2.0774	0.0156	0.0035	0.0071	8.8231	22.8975	11.2633	0.5969	-0.7451	0.2408	-0.1744
6.49	-0.2392	-9.1088	-2.0831	0.0186	0.0075	0.0066	8.8571	22.9016	11.2717	0.5970	-0.7451	0.2409	-0.1745
6.5	-0.2416	-9.1048	-2.0824	0.0156	0.0007	0.0079	8.9509	22.7523	11.4534	0.5970	-0.7451	0.2409	-0.1745
6.51	-0.2471	-9.0919	-2.0842	0.0139	0.0014	0.0085	8.8302	23.0364	11.3707	0.5969	-0.7451	0.2409	-0.1745
6.52	-0.2586	-9.0935	-2.0814	0.0207	-0.0043	0.0067	8.8436	23.0331	11.3398	0.5970	-0.7451	0.2409	-0.1745
6.53	-0.2571	-9.0989	-2.0927	0.0158	0.0031	0.0102	8.6989	23.1065	11.3557	0.5970	-0.7451	0.2409	-0.1745
6.54	-0.2538	-9.0977	-2.0906	0.0135	0.0019	0.0123	8.8805	22.9253	11.3479	0.5970	-0.7451	0.2410	-0.1745
6.55	-0.2496	-9.0998	-2.0955	0.0172	0.0003	0.0106	8.9461	23.0129	11.3632	0.5969	-0.7450	0.2409	-0.1745
6.56	-0.2432	-9.0986	-2.0988	0.0177	-0.0000	0.0114	8.7967	23.1439	11.3398	0.5970	-0.7451	0.2410	-0.1745
6.57	-0.2308	-9.1004	-2.1084	0.0107	0.0033	0.0081	8.8702	23.0381	11.3622	0.5970	-0.7451	0.2410	-0.1745
6.58	-0.2232	-9.0953	-2.1012	0.0087	0.0042	0.0116	8.7402	23.0757	11.3317	0.5969	-0.7451	0.2411	-0.1745
6.59	-0.2205	-9.0979	-2.1027	0.0177	0.0021	0.0127	8.7832	23.1299	11.4497	0.5969	-0.7450	0.2411	-0.1745
6.6	-0.2229	-9.1080	-2.1082	0.0106	-0.0043	0.0112	8.5714	22.9441	11.6687	0.5969	-0.7451	0.2411	-0.1744
6.61	-0.2238	-9.1022	-2.0994	0.0074	-0.0008	0.0100	8.5387	23.1470	11.3387	0.5969	-0.7451	0.2411	-0.1744
6.62	-0.2274	-9.0957	-2.1091	0.0151	0.0011	0.0048	8.6767	23.1990	11.4324	0.5968	-0.7450	0.2411	-0.1744
6.63	-0.2354	-9.1005	-2.1139	0.0182	0.0029	0.0096	8.7786	23.0881	11.4312	0.5969	-0.7451	0.2412	-0.1745
6.64	-0.2404	-9.0997	-2.1097	0.0190	-0.0005	0.0104	8.9798	23.1017	11.6253	0.5969	-0.7451	0.2411	-0.1744
6.65	-0.2420	-9.0913	-2.1012	0.0189	-0.0030	0.0077	9.4729	23.1336	11.7831	0.5970	-0.7451	0.2412	-0.1745
6.66	-0.2437	-9.1007	-2.1005	0.0176	-0.0016	0.0104	9.2784	23.0818	11.5691	0.5969	-0.7450	0.2411	-0.1744
6.67	-0.2456	-9.1032	-2.0973	0.0191	0.0058	0.0089	8.8104	23.3707	11.5650	0.5969	-0.7450	0.2412	-0.1744
6.68	-0.2473	-9.0963	-2.0931	0.0184	0.0021	0.0137	8.8223	23.6567	11.4826	0.5970	-0.7450	0.2412	-0.1745
6.69	-0.2414	-9.0967	-2.0933	0.0183	-0.0018	0.0054	8.6866	23.0368	11.5144	0.5969	-0.7450	0.2412	-0.1745
6.7	-0.2435	-9.1032	-2.0947	0.0204	-0.0014	0.0120	8.7419	23.1132	11.3795	0.5970	-0.7450	0.2412	-0.1745
6.71	-0.2387	-9.0968	-2.0883	0.0178	-0.0024	0.0126	8.6770	23.0311	11.4496	0.5970	-0.7449	0.2412	-0.1744
6.72	-0.2343	-9.1024	-2.0844	0.0168	-0.0072	0.0121	8.8439	22.7945	11.3188	0.5970	-0.7450	0.2413	-0.1744
6.73	-0.2434	-9.1130	-2.0945	0.0171	-0.0063	0.0118	8.9181	23.0088	11.4374	0.5970	-0.7449	0.2412	-0.1744
6.74	-0.2433	-9.1013	-2.0823	0.0191	0.0021	0.0075	8.7229	23.2167	11.4716	0.5971	-0.7449	0.2413	-0.1744
6.75	-0.2426	-9.0966	-2.0805	0.0164	0.0017	0.0068	8.6191	23.0981	11.4202	0.5970	-0.7449	0.2413	-0.1744
6.76	-0.2468	-9.1011	-2.0841	0.0105	0.0037	0.0121	8.9047	23.0857	11.5868	0.5970	-0.7449	0.2413	-0.1744
6.77	-0.2526	-9.1054	-2.0884	0.0132	0.0029	0.0106	8.7652	23.0845	11.6986	0.5970	-0.7449	0.2413	-0.1744
6.78	-0.2517	-9.0920	-2.0743	0.0112	0.0007	0.0125	8.8217	23.0929	11.7438	0.5970	-0.7449	0.2414	-0.1744
6.79	-0.2545	-9.0929	-2.0851	0.0065	0.0037	0.0043	8.9075	23.0632	11.4382	0.5970	-0.7450	0.2414	-0.1744
6.8	-0.2572	-9.1030	-2.0914	0.0156	0.0060	0.0093	8.7801	23.1681	11.6825	0.5969	-0.7449	0.2414	-0.1744
6.81	-0.2505	-9.0984	-2.0876	0.0143	0.0038	0.0086	8.7883	23.3554	11.7826	0.5970	-0.7450	0.2414	-0.1744
6.82	-0.2476	-9.0901	-2.0782	0.0148	-0.0002	0.0091	8.7988	23.0424	11.5559	0.5969	-0.7449	0.2414	-0.1744
6.83	-0.2580	-9.1050	-2.0939	0.0172	0.0000	0.0092	8.7851	23.1790	11.4294	0.5970	-0.7450	0.2415	-0.1744
6.84	-0.2552	-9.1046	-2.0946	0.0130	-0.0025	0.0094	8.9023	23.0756	11.2898	0.5969	-0.7449	0.2415	-0.1744
6.85	-0.2468	-9.0914	-2.0826	0.0139	0.0026	0.0115	8.8596	23.2130	11.3920	0.5969	-0.7449	0.2415	-0.1744
6.86	-0.2456	-9.0998	-2.0936	0.0081	0.0004	0.0105	8.7559	23.0668	11.5400	0.5969	-0.7450	0.2415	-0.1744
6.87	-0.2476	-9.1047	-2.0967	0.0117	-0.0019	0.0066	8.9071	22.8830	11.4700	0.5968	-0.7449	0.2415	-0.1744
6.88	-0.2480	-9.0954	-2.0925	0.0144	0.0000	0.0122	8.7457	23.0501	11.7350	0.5969	-0.7450	0.2416	-0.1744
6.89	-0.2455	-9.1003	-2.0846	0.0180	-0.0015	0.0058	8.8721	22.9230	11.6225	0.5969	-0.7449	0.2415	-0.1744
6.9	-0.2457	-9.1088	-2.0971	0.0127	0.0057	0.0036	9.0171	22.9912	11.5626	0.5969	-0.7450	0.2416	-0.1744
6.91	-0.2430	-9.1012	-2.0932	0.0080	-0.0032	0.0090	8.8249	23.0005	11.7070	0.5968	-0.7449	0.2415	-0.1744
6.92	-0.2351	-9.0939	-2.0902	0.0101	-0.0021	0.0111	8.9319	23.0292	11.5211	0.5968	-0.7450	0.2415	-0.1744
6.93	-0.2342	-9.1003	-2.0950	0.0158	0.0032	0.0106	8.9118	23.1000	11.5475	0.5968	-0.7450	0.2416	-0.1744
6.94	-0.2278	-9.1087	-2.1004	0.0119	-0.0016	0.0085	8.8067	23.0875	11.6148	0.5968	-0.7450	0.2416	-0.1744
6.95	-0.2211	-9.0927	-2.0926	0.0095	-0.0010	0.0103	8.6594	22.9701	11.5641	0.5969	-0.7451	0.2416	-0.1744
6.96	-0.2193	-9.0994	-2.0941	0.0162	0.0052	0.0077	8.6916	23.1915	11.4775	0.5968	-0.7450	0.2416	-0.1744
6.97	-0.2171	-9.1108	-2.1038	0.0098	0.0061	0.0109	8.8449	22.9976	11.5264	0.5968	-0.7451	0.2417	-0.1744
6.98	-0.2213	-9.0978	-2.1010	0.0076	0.0020	0.0076	8.6980	22.7761	11.4022	0.5967	-0.7450	0.2417	-0.1744
6.99	-0.2257	-9.0970	-2.0916	0.0107	0.0024	0.0045	8.8131	22.9825	11.5456	0.5967	-0.7451	0.2417	-0.1744
7	-0.2335	-9.1089	-2.0961	0.0187	-0.0009	0.0046	8.7969	23.0188	11.7655	0.5967	-0.7450	0.2417	-0.1744
7.01	-0.2371	-9.0992	-2.0967	0.0111	-0.0011	0.0121	8.7179	23.2170	11.4253	0.5967	-0.7450	0.2417	-0.1744
7.02	-0.2411	-9.0877	-2.0871	0.0163	0.0027	0.0088	8.8152	22.9407	11.2951	0.5967	-0.7451	0.2417	-0.1744
7.03	-0.2455	-9.0985	-2.0949	0.0180	-0.0077	0.0081	9.0192	22.8512	11.5058	0.5967	-0.7450	0.2417	-0.1744
7.04	-0.2520	-9.1117	-2.0988	0.0192	-0.0047	0.0137	8.8830	23.1445	11.4624	0.5968	-0.7451	0.2417	-0.1744
7.05	-0.2475	-9.0989	-2.0886	0.0171	-0.0098	0.0106	8.8712	22.9130	11.2949	0.5967	-0.7450	0.2417	-0.1743
7.06	-0.2444	-9.0944	-2.0827	0.0125	-0.0006	0.0074	9.0821	22.7205	11.5903	0.5968	-0.7451	0.2417	-0.1743
7.07	-0.2426	-9.1071	-2.0869	0.0206	0.0005	0.0030	8.9748	23.1188	11.5541	0.5968	-0.7450	0.2417	-0.1743
7.08	-0.2379	-9.1013	-2.0808	0.0156	0.0053	0.0041	8.9539	23.1591	11.4558	0.5968	-0.7450	0.2417	-0.1743
7.09	-0.2317	-9.0990	-2.0809	0.0168	0.0113	0.0063	8.9594	22.8685	11.6427	0.5968	-0.7450	0.2417	-0.1744
7.1	-0.2335	-9.1079	-2.0816	0.0154	-0.0019	0.0101	8.8395	23.0921	11.4158	0.5968	-0.7450	0.2417	-0.1744
7.11	-0.2311	-9.1071	-2.0834	0.0173	0.0030	0.0075	8.7379	23.0485	11.4770	0.5968	-0.7450	0.2417	-0.1744
7.12	-0.2262	-9.0946	-2.0825	0.0178	0.0014	0.0104	8.6850	23.1995	11.4876	0.5967	-0.7449	0.2417	-0.1744
7.13	-0.2281	-9.1003	-2.0847	0.0154	0.0054	0.0067	8.8368	23.0106	11.5297	0.5968	-0.7450	0.2418	-0.1745
7.14	-0.2320	-9.1078	-2.0874	0.0111	0.0077	0.0062	9.0301	22.9539	11.7412	0.5967	-0.7450	0.2418	-0.1745
7.15	-0.2344	-9.1009	-2.0835	0.0164	-0.0009	0.0101	9.4650	23.2132	11.6245	0.5968	-0.7450	0.2418	-0.1745
7.16	-0.2363	-9.0957	-2.0908	0.0167	-0.0007	0.0085	9.2922	23.2594	11.4871	0.5967	-0.7449	0.2418	-0.1744
7.17	-0.2392	-9.0996	-2.0954	0.0187	0.0054	0.0107	8.9349	23.6511	11.3703	0.5968	-0.7449	0.2418	-0.1745
7.18	-0.2415	-9.0970	-2.1016	0.0160	0.0008	0.0069	8.9194	23.6074	11.3855	0.5968	-0.7449	0.2418	-0.1745
7.19	-0.2374	-9.0946	-2.0957	0.0178	-0.0013	0.0092	8.8867	23.1705	11.5629	0.5967	-0.7449	0.2418	-0.1745
7.2	-0.2422	-9.1013	-2.1062	0.0124	-0.0036	0.0116	9.0138	23.0777	11.3044	0.5968	-0.7450	0.2419	-0.1745
7.21	-0.2399	-9.1029	-2.1043	0.0174	-0.0062	0.0111	8.7448	22.8413	11.3242	0.5968	-0.7449	0.2418	-0.1744
7.22	-0.2401	-9.0953	-2.0934	0.0142	-0.0094	0.0133	8.9826	22.8481	11.5679	0.5968	-0.7450	0.2419	-0.1744
7.23	-0.2476	-9.1004	-2.0945	0.0123	-0.0041	0.0111	8.9921	22.8321	11.5340	0.5968	-0.7449	0.2418	-0.1743
7.24	-0.2577	-9.1121	-2.0993	0.0191	-0.0078	0.0089	8.9817	22.8682	11.4286	0.5968	-0.7450	0.2418	-0.1743
7.25	-0.2563	-9.0982	-2.0896	0.0156	-0.0101	0.0087	8.8654	22.8017	11.3444	0.5968	-0.7449	0.2418	-0.1743
7.26	-0.2583	-9.0934	-2.0846	0.0157	-0.0056	0.0107	9.0128	23.0069	11.6782	0.5968	-0.7449	0.2418	-0.1742
7.27	-0.2578	-9.1041	-2.0821	0.0189	-0.0035	0.0082	8.8730	23.0137	11.4744	0.5969	-0.7450	0.2418	-0.1742
7.28	-0.2570	-9.1039	-2.0809	0.0169	-0.0026	0.0114	8.8540	22.7751	11.3772	0.5969	-0.7449	0.2418	-0.1742
7.29	-0.2534	-9.0990	-2.0773	0.0178	-0.0068	0.0051	8.9111	22.9260	11.2352	0.5969	-0.7450	0.2418	-0.1742
7.3	-0.2521	-9.1018	-2.0750	0.0183	-0.0045	0.0043	8.7057	22.9783	11.2099	0.5969	-0.7449	0.2417	-0.1742
7.31	-0.2466	-9.1045	-2.0738	0.0143	-0.0002	0.0084	8.8885	23.2490	11.7369	0.5969	-0.7450	0.2417	-0.1742
7.32	-0.2409	-9.0969	-2.0669	0.0149	-0.0042	0.0094	8.7083	23.2024	11.6531	0.5969	-0.7449	0.2417	-0.1742
7.33	-0.2355	-9.0994	-2.0716	0.0177	0.0011	0.0046	8.6455	23.1621	11.5371	0.5969	-0.7449	0.2417	-0.1742
7.34	-0.2343	-9.1121	-2.0754	0.0091	-0.0031	0.0068	8.6708	23.0855	11.4383	0.5969	-0.7449	0.2417	-0.1742
7.35	-0.2334	-9.1055	-2.0790	0.0198	0.0014	0.0084	8.6921	23.0839	11.1864	0.5969	-0.7449	0.2418	-0.1742
7.36	-0.2405	-9.1012	-2.0694	0.0189	0.0014	0.0076	8.8081	23.0835	11.4238	0.5969	-0.7449	0.2418	-0.1742
7.37	-0.2480	-9.1094	-2.0821	0.0159	0.0021	0.0085	8.9201	23.1657	11.4437	0.5969	-0.7448	0.2418	-0.1742
7.38	-0.2544	-9.1045	-2.0834	0.0172	0.0002	0.0055	8.7919	23.0902	11.4690	0.5970	-0.7449	0.2418	-0.1743
7.39	-0.2510	-9.0942	-2.0886	0.0153	-0.0031	0.0116	8.8841	23.0599	11.6724	0.5969	-0.7449	0.2418	-0.1742
7.4	-0.2473	-9.1019	-2.0887	0.0137	-0.0045	0.0062	9.1079	22.7250	11.3612	0.5970	-0.7450	0.2418	-0.1742
7.41	-0.2437	-9.1151	-2.1024	0.0185	-0.0000	0.0071	8.9739	22.9617	11.3681	0.5969	-0.7449	0.2418	-0.1742
7.42	-0.2292	-9.0978	-2.1042	0.0201	-0.0017	0.0133	8.9931	22.8902	11.3638	0.5970	-0.7449	0.2418	-0.1742
7.43	-0.2227	-9.0947	-2.0887	0.0154	-0.0073	0.0122	8.8212	23.0255	11.3674	0.5970	-0.7449	0.2418	-0.1742
7.44	-0.2147	-9.1139	-2.1103	0.0168	-0.0029	0.0101	8.9049	22.8605	11.3451	0.5970	-0.7448	0.2418	-0.1741
7.45	-0.2135	-9.0988	-2.0969	0.0171	0.0007	0.0084	8.9192	22.7479	11.4966	0.5970	-0.7449	0.2418	-0.1742
7.46	-0.2161	-9.0985	-2.1002	0.0158	-0.0054	0.0073	8.7708	22.8636	11.3894	0.5970	-0.7449	0.2418	-0.1741
7.47	-0.2201	-9.1075	-2.1092	0.0199	-0.0047	0.0130	8.7490	22.8766	11.3956	0.5971	-0.7449	0.2418	-0.1741
7.48	-0.2269	-9.0982	-2.1047	0.0193	-0.0039	0.0122	8.7425	23.0319	11.5677	0.5970	-0.7448	0.2418	-0.1741
7.49	-0.2310	-9.0994	-2.1052	0.0169	0.0018	0.0072	8.7567	22.9874	11.3915	0.5971	-0.7448	0.2418	-0.1741
7.5	-0.2328	-9.1006	-2.1005	0.0072	0.0016	0.0131	8.8858	23.1895	11.5306	0.5970	-0.7448	0.2418	-0.1741
7.51	-0.2444	-9.1045	-2.1022	0.0148	0.0000	0.0074	8.9372	23.0918	11.4594	0.5970	-0.7448	0.2418	-0.1741
7.52	-0.2423	-9.0981	-2.1001	0.0189	-0.0034	0.0104	8.7228	23.0974	11.4350	0.5970	-0.7448	0.2419	-0.1741
7.53	-0.2427	-9.0967	-2.0894	0.0135	0.0020	0.0080	8.5228	23.1892	11.5639	0.5970	-0.7448	0.2419	-0.1741
7.54	-0.2461	-9.1109	-2.0985	0.0147	0.0018	0.0059	8.7085	23.1459	11.4678	0.5970	-0.7448	0.2419	-0.1741
7.55	-0.2452	-9.1033	-2.0916	0.0136	-0.0004	0.0099	8.8514	22.8867	11.3619	0.5970	-0.7448	0.2419	-0.1741
7.56	-0.2394	-9.0949	-2.0838	0.0183	0.0055	0.0049	8.8219	23.0753	11.3572	0.5970	-0.7448	0.2419	-0.1742
7.57	-0.2435	-9.0990	-2.0862	0.0155	-0.0068	0.0086	8.7050	23.0191	11.3704	0.5970	-0.7448	0.2419	-0.1741
7.58	-0.2459	-9.1044	-2.0917	0.0119	0.0016	0.0123	8.8827	22.8699	11.3464	0.5970	-0.7448	0.2419	-0.1741
7.59	-0.2462	-9.1015	-2.0861	0.0161	-0.0007	0.0067	9.0204	23.0584	11.4778	0.5970	-0.7448	0.2419	-0.1741
7.6	-0.2511	-9.1057	-2.0835	0.0221	-0.0019	0.0061	8.9602	22.8475	11.4133	0.5970	-0.7448	0.2419	-0.1741
7.61	-0.2513	-9.1023	-2.0844	0.0151	-0.0003	0.0085	8.8524	22.8710	11.3548	0.5970	-0.7448	0.2419	-0.1741
7.62	-0.2511	-9.0931	-2.0815	0.0152	-0.0008	0.0117	8.8066	22.7320	11.3747	0.5970	-0.7447	0.2419	-0.1741
7.63	-0.2492	-9.0918	-2.0796	0.0214	-0.0040	0.0068	8.8690	22.8952	11.2652	0.5971	-0.7448	0.2419	-0.1741
7.64	-0.2540	-9.1029	-2.0873	0.0182	-0.0049	0.0061	9.1705	23.1847	11.5681	0.5971	-0.7448	0.2419	-0.1741
7.65	-0.2495	-9.1016	-2.0835	0.0187	0.0074	0.0155	9.3311	22.9424	11.4419	0.5971	-0.7448	0.2419	-0.1741
7.66	-0.2502	-9.0945	-2.0786	0.0194	0.0039	0.0070	9.1871	22.9687	11.2615	0.5971	-0.7447	0.2419	-0.1741
7.67	-0.2513	-9.1025	-2.0803	0.0195	-0.0000	0.0070	8.8635	23.3970	11.4381	0.5971	-0.7447	0.2419	-0.1742
7.68	-0.2464	-9.1058	-2.0818	0.0125	-0.0008	0.0040	8.9125	23.7781	11.4971	0.5971	-0.7447	0.2419	-0.1742
7.69	-0.2490	-9.0991	-2.0850	0.0187	0.0028	0.0069	8.7070	22.9675	11.4834	0.5971	-0.7447	0.2419	-0.1742
7.7	-0.2508	-9.0983	-2.0898	0.0120	0.0036	0.0087	8.6070	22.9063	11.4721	0.5971	-0.7448	0.2420	-0.1742
7.71	-0.2513	-9.1055	-2.0904	0.0145	-0.0021	0.0025	8.7934	23.0447	11.4161	0.5971	-0.7447	0.2419	-0.1742
7.72	-0.2479	-9.0985	-2.0829	0.0196	-0.0022	0.0034	8.7273	22.9097	11.5245	0.5971	-0.7448	0.2419	-0.1742
7.73	-0.2469	-9.0937	-2.0882	0.0183	0.0074	0.0058	8.7039	22.9844	11.4640	0.5971	-0.7446	0.2419	-0.1742
7.74	-0.2457	-9.1039	-2.0963	0.0188	0.0094	0.0087	8.8964	23.1349	11.6208	0.5971	-0.7447	0.2420	-0.1743
7.75	-0.2455	-9.1040	-2.1027	0.0189	0.0007	0.0089	8.7141	22.9980	11.5244	0.5971	-0.7447	0.2420	-0.1743
7.76	-0.2411	-9.0930	-2.0968	0.0200	-0.0028	0.0088	8.6887	23.0637	11.3996	0.5971	-0.7446	0.2420	-0.1743
7.77	-0.2382	-9.1047	-2.0939	0.0203	-0.0012	0.0064	8.9019	23.0834	11.4053	0.5972	-0.7446	0.2420	-0.1743
7.78	-0.2358	-9.1114	-2.1026	0.0197	-0.0042	0.0059	9.2058	22.9807	11.2733	0.5972	-0.7446	0.2419	-0.1743
7.79	-0.2324	-9.1027	-2.0933	0.0198	0.0015	0.0061	8.9778	23.0192	11.4312	0.5972	-0.7446	0.2420	-0.1743
7.8	-0.2298	-9.0955	-2.0940	0.0177	0.0069	0.0079	8.8679	22.9960	11.6198	0.5971	-0.7445	0.2419	-0.1743
7.81	-0.2340	-9.1056	-2.1033	0.0195	-0.0077	0.0073	8.8661	22.9046	11.4351	0.5972	-0.7446	0.2419	-0.1743
7.82	-0.2299	-9.0985	-2.0916	0.0199	-0.0030	0.0075	8.9147	22.9279	11.4347	0.5972	-0.7446	0.2419	-0.1743
7.83	-0.2314	-9.0934	-2.0814	0.0177	-0.0001	0.0087	8.9893	22.9082	11.5599	0.5972	-0.7446	0.2419	-0.1743
7.84	-0.2370	-9.1078	-2.0947	0.0166	-0.0027	0.0064	8.8450	22.9322	11.2657	0.5972	-0.7446	0.2419	-0.1743
7.85	-0.2354	-9.1068	-2.0929	0.0172	-0.0016	0.0058	8.9108	23.0059	11.3859	0.5972	-0.7446	0.2419	-0.1743
7.86	-0.2334	-9.0988	-2.0855	0.0162	-0.0069	0.0093	8.9764	23.0419	11.5513	0.5973	-0.7446	0.2419	-0.1743
7.87	-0.2398	-9.1032	-2.0916	0.0171	-0.0037	0.0066	8.8885	23.1811	11.3609	0.5972	-0.7445	0.2419	-0.1743
7.88	-0.2370	-9.1075	-2.0936	0.0203	-0.0011	0.0084	8.6551	23.0665	11.5344	0.5973	-0.7446	0.2419	-0.1743
7.89	-0.2283	-9.0968	-2.0859	0.0183	0.0018	0.0057	8.7823	22.9355	11.5662	0.5973	-0.7445	0.2419	-0.1743
7.9	-0.2311	-9.1030	-2.0897	0.0182	-0.0028	0.0089	8.7473	22.9373	11.3920	0.5974	-0.7446	0.2419	-0.1743
7.91	-0.2305	-9.1147	-2.0947	0.0161	-0.0040	0.0046	8.6350	23.2045	11.3978	0.5973	-0.7445	0.2419	-0.1743
7.92	-0.2248	-9.1032	-2.0863	0.0185	0.0012	0.0049	8.4926	22.9956	11.5144	0.5973	-0.7445	0.2419	-0.1744
7.93	-0.2265	-9.0895	-2.0818	0.0201	0.0068	0.0084	8.6716	22.8678	11.4608	0.5973	-0.7445	0.2419	-0.1744
7.94	-0.2359	-9.1021	-2.0854	0.0190	0.0057	0.0087	8.6987	23.0089	11.5780	0.5973	-0.7444	0.2419	-0.1744
7.95	-0.2422	-9.1105	-2.0983	0.0203	0.0029	0.0126	8.8261	22.9933	11.5806	0.5974	-0.7445	0.2420	-0.1745
7.96	-0.2447	-9.0985	-2.0868	0.0172	0.0055	0.0097	8.8302	23.0167	11.5903	0.5973	-0.7444	0.2420	-0.1745
7.97	-0.2493	-9.0965	-2.0912	0.0145	-0.0006	0.0110	8.8303	22.9740	11.5359	0.5974	-0.7445	0.2420	-0.1745
7.98	-0.2526	-9.1007	-2.0901	0.0191	-0.0012	0.0073	8.8828	23.1061	11.3665	0.5973	-0.7444	0.2420	-0.1744
7.99	-0.2535	-9.0975	-2.0854	0.0173	0.0013	0.0104	8.9863	22.9451	11.5514	0.5974	-0.7444	0.2420	-0.1745
8	-0.2582	-9.0964	-2.0792	0.0185	0.0021	0.0118	8.8644	22.9575	11.2341	0.5974	-0.7444	0.2420	-0.1744
8.01	-0.2539	-9.1036	-2.0849	0.0158	0.0055	0.0089	8.7738	23.0186	11.3525	0.5974	-0.7444	0.2420	-0.1745
8.02	-0.2504	-9.1085	-2.0842	0.0101	-0.0003	0.0077	8.7105	22.9796	11.6255	0.5974	-0.7444	0.2420	-0.1745
8.03	-0.2439	-9.0976	-2.0880	0.0171	0.0027	0.0092	8.7201	23.1318	11.4121	0.5974	-0.7444	0.2421	-0.1745
8.04	-0.2433	-9.0988	-2.0777	0.0170	-0.0046	0.0044	8.8756	22.9999	11.3902	0.5974	-0.7444	0.2421	-0.1745
8.05	-0.2347	-9.1105	-2.0781	0.0155	0.0034	0.0092	8.8845	23.0014	11.4934	0.5973	-0.7443	0.2420	-0.1745
8.06	-0.2254	-9.0997	-2.0757	0.0171	0.0050	0.0031	8.7560	23.0824	11.4972	0.5974	-0.7444	0.2421	-0.1745
8.07	-0.2231	-9.0953	-2.0773	0.0159	0.0029	0.0042	8.8422	23.2652	11.4801	0.5973	-0.7444	0.2421	-0.1746
8.08	-0.2233	-9.1103	-2.0920	0.0123	0.0007	0.0123	8.6368	23.1076	11.4926	0.5974	-0.7444	0.2421	-0.1746
8.09	-0.2291	-9.1087	-2.0878	0.0166	-0.0027	0.0087	8.6266	22.9800	11.4813	0.5973	-0.7444	0.2421	-0.1746
8.1	-0.2282	-9.0984	-2.0885	0.0146	-0.0045	0.0027	8.7354	23.1066	11.3798	0.5973	-0.7444	0.2421	-0.1746
8.11	-0.2336	-9.1039	-2.0932	0.0177	0.0019	0.0109	8.9037	23.0898	11.6013	0.5974	-0.7444	0.2421	-0.1746
8.12	-0.2370	-9.1032	-2.0994	0.0135	-0.0003	0.0059	8.9870	23.0038	11.4891	0.5973	-0.7443	0.2421	-0.1746
8.13	-0.2322	-9.0891	-2.0985	0.0144	-0.0063	0.0096	8.8260	23.0034	11.3939	0.5974	-0.7444	0.2421	-0.1746
8.14	-0.2323	-9.0944	-2.0993	0.0143	-0.0004	0.0074	8.9407	23.1223	11.6910	0.5973	-0.7444	0.2421	-0.1745
8.15	-0.2366	-9.1125	-2.1085	0.0207	-0.0086	0.0123	9.5932	23.0217	11.6178	0.5974	-0.7444	0.2421	-0.1745
8.16	-0.2393	-9.0961	-2.1020	0.0192	-0.0056	0.0096	9.5321	23.0683	11.6100	0.5974	-0.7443	0.2421	-0.1745
8.17	-0.2431	-9.0915	-2.0917	0.0182	-0.0029	0.0097	8.9688	23.2389	11.3099	0.5974	-0.7444	0.2421	-0.1745
8.18	-0.2480	-9.1023	-2.0997	0.0151	-0.0021	0.0053	8.9832	23.3847	11.3930	0.5974	-0.7444	0.2421	-0.1745
8.19	-0.2535	-9.1027	-2.0969	0.0149	-0.0131	0.0126	8.8919	22.9293	11.4922	0.5974	-0.7443	0.2420	-0.1744
8.2	-0.2566	-9.0962	-2.0928	0.0198	-0.0009	0.0100	9.0327	22.9641	11.3523	0.5975	-0.7444	0.2421	-0.1744
8.21	-0.2571	-9.1041	-2.0897	0.0175	-0.0039	0.0065	8.7988	22.8127	11.3824	0.5975	-0.7443	0.2420	-0.1744
8.22	-0.2565	-9.1080	-2.0881	0.0146	-0.0028	0.0086	8.7878	22.9729	11.3626	0.5975	-0.7444	0.2420	-0.1744
8.23	-0.2537	-9.0919	-2.0767	0.0163	-0.0038	0.0029	8.8638	22.8450	11.3743	0.5974	-0.7443	0.2420	-0.1744
8.24	-0.2466	-9.0976	-2.0760	0.0103	-0.0022	0.0089	8.8063	22.8028	11.3815	0.5975	-0.7444	0.2420	-0.1744
8.25	-0.2448	-9.1103	-2.0806	0.0171	0.0007	0.0055	8.5591	23.1909	11.5073	0.5974	-0.7444	0.2420	-0.1744
8.26	-0.2390	-9.1005	-2.0806	0.0151	-0.0045	0.0051	8.7314	23.2130	11.2704	0.5974	-0.7443	0.2420	-0.1744
8.27	-0.2342	-9.0920	-2.0695	0.0102	-0.0031	0.0063	8.7739	23.0950	11.2727	0.5974	-0.7444	0.2420	-0.1744
8.28	-0.2384	-9.1020	-2.0784	0.0173	0.0017	0.0092	8.6053	23.1574	11.2708	0.5974	-0.7444	0.2420	-0.1744
8.29	-0.2346	-9.1085	-2.0861	0.0154	-0.0015	0.0072	8.7967	23.1869	11.5225	0.5975	-0.7444	0.2420	-0.1744
8.3	-0.2344	-9.0948	-2.0713	0.0183	-0.0014	0.0091	8.9215	22.9921	11.4890	0.5974	-0.7443	0.2420	-0.1744
8.31	-0.2427	-9.0970	-2.0733	0.0131	-0.0017	0.0065	8.7269	23.0748	11.3079	0.5975	-0.7444	0.2420	-0.1744
8.32	-0.2475	-9.1095	-2.0856	0.0059	-0.0038	0.0061	8.7413	23.0931	11.4437	0.5974	-0.7444	0.2420	-0.1744
8.33	-0.2501	-9.1003	-2.0810	0.0107	-0.0110	0.0106	8.8102	22.6973	11.4130	0.5974	-0.7444	0.2420	-0.1744
8.34	-0.2492	-9.0933	-2.0877	0.0191	-0.0066	0.0090	8.9264	22.6968	11.1810	0.5974	-0.7444	0.2419	-0.1743
8.35	-0.2485	-9.1033	-2.1007	0.0166	-0.0047	0.0105	8.9344	22.8393	11.3227	0.5974	-0.7444	0.2420	-0.1743
8.36	-0.2396	-9.1060	-2.1026	0.0146	-0.0088	0.0105	9.0279	22.7127	11.2739	0.5975	-0.7444	0.2419	-0.1743
8.37	-0.2325	-9.0962	-2.0986	0.0181	-0.0057	0.0085	8.9735	22.7585	11.3084	0.5974	-0.7444	0.2419	-0.1742
8.38	-0.2212	-9.0996	-2.0969	0.0210	-0.0019	0.0087	9.0272	23.0081	11.1642	0.5975	-0.7444	0.2419	-0.1743
8.39	-0.2206	-9.1109	-2.1096	0.0178	-0.0002	0.0093	8.9359	23.0329	11.2517	0.5975	-0.7444	0.2419	-0.1743
8.4	-0.2170	-9.1030	-2.1051	0.0164	0.0008	0.0054	8.7047	22.8361	11.5500	0.5975	-0.7444	0.2419	-0.1743
8.41	-0.2225	-9.0958	-2.0958	0.0134	0.0027	0.0123	8.9346	22.9812	11.5529	0.5975	-0.7443	0.2419	-0.1743
8.42	-0.2300	-9.1064	-2.1106	0.0161	0.0022	0.0097	8.8813	23.0090	11.4191	0.5975	-0.7444	0.2419	-0.1743
8.43	-0.2317	-9.0979	-2.1019	0.0145	0.0085	0.0038	8.8047	22.8045	11.3363	0.5975	-0.7444	0.2420	-0.1743
8.44	-0.2368	-9.0898	-2.0986	0.0151	0.0057	0.0042	8.8586	23.2621	11.4554	0.5974	-0.7443	0.2420	-0.1743
8.45	-0.2478	-9.0949	-2.1032	0.0177	0.0033	0.0022	8.7068	23.0527	11.5433	0.5975	-0.7444	0.2420	-0.1744
8.46	-0.2497	-9.1045	-2.1104	0.0165	0.0082	0.0100	8.8085	23.0921	11.4188	0.5974	-0.7443	0.2420	-0.1744
8.47	-0.2468	-9.0982	-2.0922	0.0100	0.0019	0.0047	8.7924	23.2515	11.4743	0.5975	-0.7444	0.2420	-0.1745
8.48	-0.2424	-9.0962	-2.0923	0.0074	0.0053	0.0086	8.6475	23.0943	11.3543	0.5973	-0.7443	0.2420	-0.1745
8.49	-0.2399	-9.1045	-2.0982	0.0138	-0.0015	0.0090	8.7918	23.0103	11.3721	0.5974	-0.7444	0.2421	-0.1745
8.5	-0.2353	-9.1022	-2.0958	0.0084	0.0012	0.0062	8.8578	23.0685	11.5360	0.5973	-0.7444	0.2421	-0.1745
8.51	-0.2389	-9.0980	-2.0872	0.0151	-0.0060	0.0121	8.7339	22.8726	11.4952	0.5973	-0.7444	0.2421	-0.1744
8.52	-0.2408	-9.1064	-2.0902	0.0099	-0.0048	0.0044	8.8569	22.9542	11.2419	0.5974	-0.7444	0.2420	-0.1744
8.53	-0.2380	-9.1002	-2.0845	0.0171	-0.0073	0.0088	9.0486	22.9509	11.3299	0.5973	-0.7444	0.2420	-0.1744
8.54	-0.2390	-9.1012	-2.0821	0.0190	0.0024	0.0038	8.9260	22.5903	11.4219	0.5974	-0.7445	0.2420	-0.1744
8.55	-0.2432	-9.0992	-2.0794	0.0184	-0.0012	0.0106	8.8320	22.7233	11.2680	0.5973	-0.7444	0.2420	-0.1744
8.56	-0.2506	-9.1046	-2.0817	0.0203	-0.0050	0.0086	8.8258	22.8708	11.3157	0.5974	-0.7444	0.2420	-0.1744
8.57	-0.2472	-9.1038	-2.0802	0.0118	0.0000	0.0061	8.9965	22.9485	11.3777	0.5974	-0.7444	0.2420	-0.1744
8.58	-0.2446	-9.0953	-2.0737	0.0153	-0.0004	0.0062	8.9279	23.1032	11.4153	0.5974	-0.7444	0.2420	-0.1744
8.59	-0.2449	-9.1011	-2.0801	0.0196	0.0076	0.0017	8.8252	22.8180	11.5945	0.5974	-0.7444	0.2420	-0.1745
8.6	-0.2483	-9.1035	-2.0826	0.0140	-0.0053	0.0101	8.7093	23.0144	11.2444	0.5974	-0.7444	0.2420	-0.1745
8.61	-0.2453	-9.0982	-2.0838	0.0147	-0.0041	0.0055	8.6736	22.8499	11.3770	0.5974	-0.7444	0.2420	-0.1744
8.62	-0.2463	-9.0923	-2.0840	0.0180	0.0038	0.0082	8.6542	22.9410	11.2587	0.5973	-0.7444	0.2419	-0.1744
8.63	-0.2450	-9.0970	-2.0845	0.0201	-0.0010	0.0040	8.7974	23.0529	11.4191	0.5974	-0.7444	0.2420	-0.1745
8.64	-0.2451	-9.0959	-2.0900	0.0198	0.0011	0.0062	8.9464	23.0301	11.5645	0.5974	-0.7444	0.2419	-0.1745
8.65	-0.2475	-9.1004	-2.0903	0.0180	-0.0036	0.0091	9.3331	22.7959	11.3673	0.5975	-0.7444	0.2420	-0.1745
8.66	-0.2503	-9.0985	-2.0873	0.0179	0.0007	0.0026	9.1369	22.9614	11.4914	0.5974	-0.7443	0.2419	-0.1745
8.67	-0.2441	-9.1026	-2.0924	0.0172	0.0008	0.0061	8.8407	23.2958	11.6361	0.5974	-0.7444	0.2419	-0.1745
8.68	-0.2440	-9.0941	-2.0909	0.0205	0.0012	0.0053	8.7213	23.5585	11.4821	0.5975	-0.7444	0.2419	-0.1746
8.69	-0.2422	-9.1038	-2.0937	0.0190	-0.0021	0.0085	8.7731	23.0583	11.4393	0.5974	-0.7443	0.2419	-0.1745
8.7	-0.2455	-9.1004	-2.0975	0.0173	0.0031	0.0055	8.7990	23.0332	11.5727	0.5975	-0.7444	0.2419	-0.1746
8.71	-0.2374	-9.0977	-2.0968	0.0149	-0.0067	0.0038	8.8414	23.0916	11.4032	0.5975	-0.7443	0.2419	-0.1746
8.72	-0.2348	-9.1010	-2.0933	0.0167	0.0023	0.0095	9.0646	22.9832	11.3544	0.5975	-0.7444	0.2419	-0.1746
8.73	-0.2371	-9.0977	-2.1009	0.0162	0.0042	0.0085	9.0393	22.9925	11.5004	0.5974	-0.7443	0.2419	-0.1746
8.74	-0.2326	-9.1021	-2.0990	0.0130	-0.0008	0.0077	8.9210	22.8330	11.4290	0.5975	-0.7444	0.2419	-0.1746
8.75	-0.2372	-9.1008	-2.0975	0.0168	-0.0037	0.0037	8.8970	22.8682	11.2287	0.5975	-0.7443	0.2419	-0.1746
8.76	-0.2332	-9.0979	-2.0941	0.0156	-0.0061	0.0055	8.8095	23.1086	11.4064	0.5975	-0.7443	0.2419	-0.1746
8.77	-0.2333	-9.1048	-2.0971	0.0164	-0.0009	0.0088	8.8067	22.9292	11.2695	0.5975	-0.7444	0.2419	-0.1746
8.78	-0.2378	-9.1040	-2.0977	0.0159	0.0021	0.0085	9.0251	23.1539	11.1803	0.5975	-0.7443	0.2419	-0.1746
8.79	-0.2345	-9.0998	-2.0910	0.0185	0.0039	0.0126	8.8796	23.0503	11.4530	0.5975	-0.7443	0.2419	-0.1746
8.8	-0.2350	-9.0988	-2.0834	0.0108	0.0026	0.0075	8.8734	22.8490	11.4772	0.5974	-0.7443	0.2419	-0.1746
8.81	-0.2414	-9.0984	-2.0869	0.0193	0.0002	0.0079	8.8810	22.9356	11.4798	0.5975	-0.7443	0.2419	-0.1746
8.82	-0.2400	-9.0991	-2.0886	0.0194	-0.0010	0.0029	8.8588	22.9655	11.4251	0.5975	-0.7443	0.2419	-0.1746
8.83	-0.2431	-9.1008	-2.0853	0.0188	0.0044	0.0071	8.6983	23.0219	11.3492	0.5975	-0.7443	0.2419	-0.1747
8.84	-0.2379	-9.1032	-2.0839	0.0140	-0.0034	0.0072	8.9015	23.2385	11.3892	0.5975	-0.7443	0.2419	-0.1747
8.85	-0.2391	-9.1000	-2.0886	0.0177	0.0003	0.0078	8.8716	23.1104	11.3557	0.5975	-0.7443	0.2419	-0.1747
8.86	-0.2396	-9.1055	-2.0896	0.0209	0.0031	0.0121	8.7158	22.9703	11.4097	0.5975	-0.7443	0.2419	-0.1747
8.87	-0.2329	-9.1031	-2.0897	0.0192	0.0052	0.0078	8.7342	23.0400	11.2656	0.5975	-0.7442	0.2419	-0.1747
8.88	-0.2354	-9.1087	-2.0866	0.0200	0.0022	0.0086	8.7020	23.2472	11.4149	0.5976	-0.7443	0.2420	-0.1747
8.89	-0.2326	-9.1064	-2.0892	0.0196	-0.0041	0.0065	8.7737	23.0638	11.4424	0.5975	-0.7442	0.2419	-0.1747
8.9	-0.2347	-9.1011	-2.0890	0.0168	0.0016	0.0107	9.0110	22.8146	11.1272	0.5976	-0.7443	0.2420	-0.1748
8.91	-0.2358	-9.1008	-2.0923	0.0147	0.0044	0.0071	8.8487	22.8129	11.4625	0.5975	-0.7442	0.2419	-0.1748
8.92	-0.2441	-9.0959	-2.0909	0.0183	0.0031	0.0068	8.9173	23.0089	11.3831	0.5976	-0.7442	0.2420	-0.1748
8.93	-0.2476	-9.0949	-2.0933	0.0182	0.0054	0.0119	8.9615	22.8163	11.3539	0.5976	-0.7442	0.2420	-0.1748
8.94	-0.2520	-9.0948	-2.0883	0.0164	0.0063	0.0103	8.7315	23.0693	11.6121	0.5975	-0.7441	0.2420	-0.1748
8.95	-0.2566	-9.1035	-2.0896	0.0153	0.0042	0.0107	9.0512	23.0570	11.3307	0.5976	-0.7442	0.2420	-0.1748
8.96	-0.2561	-9.0978	-2.0848	0.0191	-0.0004	0.0118	8.8261	23.0648	11.2700	0.5976	-0.7441	0.2420	-0.1748
8.97	-0.2571	-9.1041	-2.0843	0.0203	0.0008	0.0087	8.7230	23.0084	11.3571	0.5976	-0.7442	0.2421	-0.1748
8.98	-0.2496	-9.1021	-2.0911	0.0165	-0.0031	0.0112	8.9251	22.8607	11.3883	0.5975	-0.7441	0.2420	-0.1748
8.99	-0.2444	-9.0944	-2.0911	0.0176	-0.0029	0.0073	8.8605	23.0229	11.3820	0.5976	-0.7441	0.2420	-0.1748
9	-0.2393	-9.0954	-2.0863	0.0186	0.0055	0.0049	8.8959	22.9070	11.3638	0.5976	-0.7441	0.2420	-0.1748
9.01	-0.2354	-9.1032	-2.0869	0.0163	-0.0015	0.0057	8.8779	23.1746	11.4558	0.5976	-0.7441	0.2420	-0.1748
9.02	-0.2260	-9.1026	-2.0837	0.0149	0.0021	0.0094	8.8037	23.0080	11.4632	0.5976	-0.7441	0.2420	-0.1749
9.03	-0.2179	-9.0992	-2.0807	0.0178	-0.0021	0.0072	8.7852	22.9130	11.3577	0.5976	-0.7441	0.2420	-0.1749
9.04	-0.2215	-9.1042	-2.0863	0.0169	0.0033	0.0128	8.8524	22.9512	11.3872	0.5976	-0.7441	0.2421	-0.1749
9.05	-0.2250	-9.1122	-2.0841	0.0165	0.0098	0.0081	8.9109	22.8606	11.3927	0.5976	-0.7440	0.2421	-0.1749
9.06	-0.2315	-9.1060	-2.0872	0.0164	0.0053	0.0108	8.6562	23.0017	11.2591	0.5976	-0.7441	0.2421	-0.1749
9.07	-0.2383	-9.0980	-2.0809	0.0201	0.0048	0.0136	8.6623	22.9748	11.6579	0.5976	-0.7440	0.2421	-0.1749
9.08	-0.2454	-9.1024	-2.0917	0.0173	0.0005	0.0092	8.7945	22.9020	11.4950	0.5976	-0.7441	0.2422	-0.1749
9.09	-0.2454	-9.0982	-2.0979	0.0182	-0.0021	0.0078	8.8926	22.9654	11.4672	0.5976	-0.7440	0.2421	-0.1749
9.1	-0.2442	-9.0922	-2.1028	0.0172	0.0037	0.0080	8.8620	23.1014	11.5621	0.5976	-0.7440	0.2422	-0.1750
9.11	-0.2387	-9.0995	-2.1061	0.0155	0.0036	0.0069	8.7359	22.8045	11.3812	0.5976	-0.7440	0.2422	-0.1750
9.12	-0.2370	-9.1031	-2.1049	0.0143	-0.0028	0.0104	8.6995	22.8725	11.3566	0.5976	-0.7440	0.2421	-0.1749
9.13	-0.2367	-9.0969	-2.0917	0.0173	-0.0072	0.0061	8.8395	23.0968	11.5092	0.5977	-0.7441	0.2422	-0.1750
9.14	-0.2428	-9.0982	-2.0944	0.0156	0.0024	0.0094	9.0258	23.1856	11.6808	0.5976	-0.7440	0.2421	-0.1750
9.15	-0.2489	-9.1051	-2.0971	0.0173	0.0098	0.0095	9.2804	22.9944	11.6069	0.5977	-0.7441	0.2422	-0.1750
9.16	-0.2502	-9.0975	-2.0882	0.0190	0.0008	0.0083	9.2783	23.1312	11.3733	0.5976	-0.7440	0.2422	-0.1750
9.17	-0.2534	-9.0904	-2.0883	0.0162	-0.0026	0.0107	9.2039	23.3505	11.3342	0.5977	-0.7440	0.2422	-0.1750
9.18	-0.2572	-9.0974	-2.0892	0.0141	-0.0039	0.0066	8.7436	23.4891	11.3144	0.5977	-0.7440	0.2422	-0.1750
9.19	-0.2515	-9.1012	-2.0826	0.0156	-0.0040	0.0072	8.7931	22.9377	11.5899	0.5976	-0.7440	0.2422	-0.1750
9.2	-0.2505	-9.1009	-2.0820	0.0163	-0.0000	0.0103	8.8157	23.0596	11.3428	0.5977	-0.7441	0.2422	-0.1750
9.21	-0.2538	-9.0952	-2.0767	0.0180	-0.0045	0.0060	8.6281	23.2870	11.3123	0.5977	-0.7440	0.2422	-0.1750
9.22	-0.2428	-9.1077	-2.0837	0.0195	-0.0054	0.0106	8.8343	23.0476	11.4212	0.5977	-0.7440	0.2422	-0.1750
9.23	-0.2423	-9.1037	-2.0793	0.0178	-0.0017	0.0047	8.8167	23.1204	11.3591	0.5977	-0.7439	0.2421	-0.1750
9.24	-0.2353	-9.0953	-2.0756	0.0142	0.0030	0.0029	8.8010	23.1280	11.5247	0.5977	-0.7440	0.2421	-0.1750
9.25	-0.2311	-9.1043	-2.0868	0.0181	-0.0012	0.0128	8.7100	23.1148	11.5827	0.5977	-0.7440	0.2422	-0.1750
9.26	-0.2305	-9.1106	-2.0826	0.0203	0.0013	0.0086	8.7475	22.8547	11.5064	0.5977	-0.7439	0.2422	-0.1750
9.27	-0.2345	-9.1008	-2.0794	0.0195	0.0041	0.0089	8.7299	22.9956	11.2744	0.5977	-0.7440	0.2422	-0.1750
9.28	-0.2419	-9.1007	-2.0797	0.0209	0.0034	0.0061	8.9948	22.7853	11.3276	0.5977	-0.7439	0.2422	-0.1751
9.29	-0.2493	-9.1025	-2.0869	0.0152	-0.0008	0.0087	9.1092	22.9195	11.5009	0.5978	-0.7439	0.2422	-0.1751
9.3	-0.2515	-9.0939	-2.0821	0.0151	0.0056	0.0093	8.8795	22.9833	11.4080	0.5977	-0.7439	0.2422	-0.1751
9.31	-0.2521	-9.0993	-2.0933	0.0142	-0.0008	0.0073	8.9240	22.8639	11.1676	0.5977	-0.7440	0.2422	-0.1751
9.32	-0.2450	-9.1059	-2.1006	0.0182	-0.0013	0.0059	8.8564	23.0174	11.4395	0.5977	-0.7439	0.2422	-0.1751
9.33	-0.2398	-9.1046	-2.1041	0.0178	0.0031	0.0015	8.8011	22.8784	11.5048	0.5977	-0.7439	0.2422	-0.1751
9.34	-0.2294	-9.0987	-2.1045	0.0143	-0.0003	0.0068	8.8304	22.7920	11.3840	0.5977	-0.7439	0.2421	-0.1751
9.35	-0.2243	-9.1066	-2.1040	0.0179	-0.0059	0.0121	8.8108	22.7957	11.4010	0.5977	-0.7439	0.2421	-0.1751
9.36	-0.2241	-9.1039	-2.1069	0.0201	-0.0001	0.0108	8.8246	22.9966	11.5877	0.5978	-0.7439	0.2421	-0.1751
9.37	-0.2220	-9.0937	-2.0988	0.0149	0.0027	0.0072	8.7567	23.1484	11.4481	0.5977	-0.7438	0.2421	-0.1751
9.38	-0.2259	-9.0986	-2.0990	0.0115	-0.0008	0.0032	8.6097	23.0098	11.5086	0.5978	-0.7440	0.2422	-0.1751
9.39	-0.2302	-9.1054	-2.1110	0.0120	-0.0055	0.0057	8.8654	22.9323	11.5388	0.5977	-0.7439	0.2421	-0.1751
9.4	-0.2376	-9.0933	-2.1001	0.0109	-0.0018	0.0011	8.8553	23.0317	11.4653	0.5977	-0.7440	0.2421	-0.1751
9.41	-0.2398	-9.0921	-2.0962	0.0213	-0.0022	0.0083	8.7207	23.0579	11.4666	0.5977	-0.7439	0.2421	-0.1751
9.42	-0.2444	-9.1032	-2.1040	0.0187	0.0007	0.0077	8.8403	23.0149	11.3971	0.5977	-0.7439	0.2421	-0.1751
9.43	-0.2450	-9.0998	-2.1002	0.0102	0.0020	0.0056	8.6498	23.1048	11.4948	0.5977	-0.7439	0.2421	-0.1752
9.44	-0.2368	-9.0955	-2.0941	0.0169	-0.0080	0.0087	8.6512	23.1229	11.4696	0.5977	-0.7439	0.2421	-0.1751
9.45	-0.2392	-9.1074	-2.0999	0.0166	-0.0022	0.0135	8.7510	23.0439	11.4495	0.5978	-0.7440	0.2421	-0.1752
9.46	-0.2409	-9.1105	-2.1017	0.0156	-0.0056	0.0084	8.9834	23.0058	11.5502	0.5977	-0.7439	0.2421	-0.1751
9.47	-0.2410	-9.0986	-2.0881	0.0204	0.0029	0.0043	8.9302	22.9549	11.4744	0.5978	-0.7440	0.2421	-0.1752
9.48	-0.2359	-9.0952	-2.0832	0.0154	0.0004	0.0038	8.8029	22.9502	11.2569	0.5977	-0.7439	0.2421	-0.1752
9.49	-0.2358	-9.1055	-2.0900	0.0182	-0.0067	0.0076	8.9396	22.9967	11.4443	0.5978	-0.7439	0.2421	-0.1751
9.5	-0.2405	-9.1039	-2.0790	0.0191	0.0009	0.0064	8.8371	23.0111	11.3433	0.5978	-0.7439	0.2420	-0.1752
9.51	-0.2411	-9.0971	-2.0745	0.0179	-0.0099	0.0080	8.8009	22.6625	11.5121	0.5978	-0.7439	0.2420	-0.1751
9.52	-0.2452	-9.1072	-2.0776	0.0125	-0.0049	0.0069	8.9135	22.8376	11.4581	0.5978	-0.7440	0.2420	-0.1751
9.53	-0.2431	-9.1063	-2.0873	0.0143	-0.0021	0.0020	8.9047	22.8797	11.4160	0.5978	-0.7439	0.2420	-0.1751
9.54	-0.2447	-9.0938	-2.0769	0.0171	-0.0045	0.0101	8.8860	23.1081	11.5091	0.5978	-0.7440	0.2420	-0.1751
9.55	-0.2460	-9.0974	-2.0792	0.0206	0.0001	0.0055	8.9167	23.1307	11.4545	0.5977	-0.7439	0.2419	-0.1751
9.56	-0.2400	-9.1082	-2.0803	0.0115	0.0037	0.0096	8.7542	23.1420	11.5946	0.5978	-0.7440	0.2420	-0.1751
9.57	-0.2445	-9.1014	-2.0856	0.0081	-0.0009	0.0097	8.7691	23.2201	11.5177	0.5977	-0.7439	0.2420	-0.1751
9.58	-0.2412	-9.0916	-2.0772	0.0204	-0.0011	0.0089	8.5826	22.9941	11.3887	0.5978	-0.7440	0.2420	-0.1751
9.59	-0.2415	-9.1025	-2.0851	0.0153	0.0045	0.0101	8.6582	23.1644	11.3688	0.5977	-0.7439	0.2420	-0.1752
9.6	-0.2486	-9.1023	-2.0923	0.0173	0.0016	0.0070	8.9864	23.0624	11.5391	0.5977	-0.7439	0.2420	-0.1752
9.61	-0.2438	-9.0944	-2.0862	0.0182	0.0092	0.0045	8.9520	23.0995	11.5740	0.5978	-0.7439	0.2420	-0.1752
9.62	-0.2487	-9.0929	-2.0956	0.0146	0.0104	-0.0008	8.7083	23.1318	11.5598	0.5977	-0.7439	0.2420	-0.1753
9.63	-0.2500	-9.1105	-2.1048	0.0164	-0.0009	0.0057	8.7641	23.1306	11.5618	0.5977	-0.7440	0.2421	-0.1753
9.64	-0.2457	-9.1022	-2.1064	0.0203	-0.0035	0.0087	9.0765	23.2356	11.7215	0.5977	-0.7439	0.2420	-0.1753
9.65	-0.2469	-9.1007	-2.1059	0.0161	-0.0021	0.0121	9.4732	22.9765	11.7607	0.5978	-0.7440	0.2421	-0.1753
9.66	-0.2442	-9.1064	-2.1099	0.0203	-0.0012	0.0078	9.2825	23.0455	11.8097	0.5977	-0.7438	0.2420	-0.1753
9.67	-0.2388	-9.0994	-2.1063	0.0190	-0.0002	0.0093	8.9907	23.2767	11.4748	0.5978	-0.7439	0.2420	-0.1753
9.68	-0.2346	-9.0909	-2.0991	0.0185	-0.0013	0.0090	8.9308	23.4094	11.2815	0.5978	-0.7439	0.2420	-0.1753
9.69	-0.2355	-9.0997	-2.0969	0.0190	0.0040	0.0079	8.8234	22.9626	11.5054	0.5978	-0.7438	0.2420	-0.1753
9.7	-0.2417	-9.1058	-2.0996	0.0179	0.0016	0.0089	9.0199	23.0667	11.3604	0.5978	-0.7439	0.2421	-0.1754
9.71	-0.2446	-9.0959	-2.0768	0.0152	-0.0005	0.0119	8.9087	23.1073	11.2492	0.5978	-0.7438	0.2421	-0.1753
9.72	-0.2522	-9.0973	-2.0748	0.0144	0.0010	0.0102	8.8803	23.1684	11.4146	0.5978	-0.7439	0.2421	-0.1753
9.73	-0.2537	-9.1014	-2.0714	0.0138	-0.0063	0.0042	8.8840	23.0720	11.5931	0.5977	-0.7438	0.2420	-0.1753
9.74	-0.2543	-9.0995	-2.0700	0.0131	-0.0004	0.0072	8.7863	23.0198	11.3074	0.5978	-0.7439	0.2421	-0.1753
9.75	-0.2566	-9.0983	-2.0637	0.0191	0.0072	0.0035	8.8387	22.8411	11.3091	0.5978	-0.7439	0.2421	-0.1754
9.76	-0.2519	-9.1077	-2.0768	0.0188	0.0040	0.0050	8.9878	22.9737	11.2653	0.5978	-0.7438	0.2420	-0.1754
9.77	-0.2420	-9.1048	-2.0754	0.0173	0.0061	0.0076	8.8610	23.0870	11.5096	0.5978	-0.7439	0.2421	-0.1754
9.78	-0.2323	-9.0992	-2.0838	0.0158	0.0045	0.0040	8.7852	23.1408	11.5469	0.5978	-0.7438	0.2421	-0.1755
9.79	-0.2220	-9.1018	-2.0875	0.0210	0.0057	0.0034	8.8047	22.9899	11.3844	0.5978	-0.7439	0.2421	-0.1755
9.8	-0.2228	-9.1050	-2.0967	0.0098	0.0059	0.0047	8.8784	22.8915	11.3701	0.5977	-0.7438	0.2420	-0.1755
9.81	-0.2216	-9.0991	-2.1039	0.0187	0.0082	0.0055	8.8878	23.0074	11.5108	0.5978	-0.7439	0.2421	-0.1756
9.82	-0.2228	-9.1041	-2.1151	0.0195	0.0032	0.0070	8.7200	22.9421	11.4075	0.5977	-0.7438	0.2421	-0.1756
9.83	-0.2269	-9.1043	-2.1223	0.0158	0.0018	0.0064	8.7713	23.0768	11.3863	0.5978	-0.7438	0.2421	-0.1756
9.84	-0.2320	-9.0987	-2.1270	0.0196	-0.0046	0.0077	8.9903	22.9605	11.2832	0.5977	-0.7438	0.2421	-0.1756
9.85	-0.2399	-9.0938	-2.1202	0.0200	0.0059	0.0088	8.8472	22.9092	11.3296	0.5978	-0.7438	0.2421	-0.1756
9.86	-0.2500	-9.0939	-2.1159	0.0197	0.0069	0.0053	8.9147	23.0246	11.4140	0.5978	-0.7438	0.2421	-0.1757
9.87	-0.2565	-9.1019	-2.1186	0.0200	0.0021	0.0024	8.7913	22.8856	11.3590	0.5977	-0.7437	0.2420	-0.1757
9.88	-0.2618	-9.0994	-2.1025	0.0197	0.0090	0.0011	8.8218	22.8914	11.4147	0.5978	-0.7438	0.2421	-0.1758
9.89	-0.2609	-9.0975	-2.0941	0.0199	-0.0030	0.0096	8.7589	22.9262	11.3300	0.5978	-0.7437	0.2421	-0.1758
9.9	-0.2587	-9.0997	-2.0882	0.0184	-0.0039	0.0055	8.7220	23.0202	11.2806	0.5979	-0.7438	0.2421	-0.1758
9.91	-0.2539	-9.1000	-2.0848	0.0184	-0.0005	0.0066	8.7173	22.8514	11.3734	0.5978	-0.7437	0.2420	-0.1758
9.92	-0.2416	-9.1038	-2.0836	0.0212	0.0004	0.0024	8.7500	23.0500	11.4160	0.5978	-0.7437	0.2420	-0.1758
9.93	-0.2382	-9.1048	-2.0797	0.0188	0.0034	0.0037	8.9916	23.0165	11.4580	0.5978	-0.7437	0.2420	-0.1758
9.94	-0.2299	-9.1007	-2.0743	0.0207	0.0050	0.0026	8.9013	22.9641	11.2578	0.5978	-0.7437	0.2420	-0.1759
9.95	-0.2315	-9.1034	-2.0789	0.0140	-0.0032	0.0040	8.6778	23.0740	11.5025	0.5979	-0.7438	0.2420	-0.1759
9.96	-0.2263	-9.1088	-2.0878	0.0162	0.0042	0.0074	8.7780	22.9317	11.4532	0.5978	-0.7437	0.2420	-0.1759
9.97	-0.2301	-9.1070	-2.0943	0.0213	0.0056	0.0018	8.9783	23.0546	11.4926	0.5979	-0.7437	0.2420	-0.1760
9.98	-0.2334	-9.1014	-2.0912	0.0178	-0.0038	0.0079	8.5706	23.0722	11.4404	0.5978	-0.7436	0.2419	-0.1760
9.99	-0.2382	-9.1026	-2.0835	0.0183	-0.0022	0.0093	8.7262	22.9256	11.6120	0.5979	-0.7437	0.2420	-0.1760
10	-0.2408	-9.1003	-2.0896	0.0182	-0.0040	0.0035	8.7614	23.0548	11.6194	0.5979	-0.7437	0.2419	-0.1760
10.01	-0.2433	-9.0992	-2.0862	0.0177	0.0030	0.0056	8.7708	22.9995	11.4400	0.5978	-0.7437	0.2419	-0.1760
10.02	-0.2435	-9.1016	-2.0861	0.0199	0.0042	0.0081	8.8036	22.8795	11.5826	0.5979	-0.7437	0.2419	-0.1760
10.03	-0.2396	-9.1018	-2.0825	0.0180	0.0030	0.0090	8.9496	22.8926	11.4082	0.5979	-0.7437	0.2419	-0.1760
10.04	-0.2333	-9.0998	-2.0824	0.0183	0.0048	0.0061	9.0997	22.9611	11.3901	0.5979	-0.7437	0.2420	-0.1761
10.05	-0.2320	-9.0965	-2.0807	0.0169	-0.0050	0.0069	8.9633	23.0036	11.3820	0.5978	-0.7436	0.2419	-0.1760
10.06	-0.2358	-9.1063	-2.0833	0.0169	-0.0046	0.0040	8.6670	22.8502	11.2849	0.5979	-0.7437	0.2419	-0.1761
10.07	-0.2392	-9.1020	-2.0812	0.0139	-0.0083	0.0050	8.6597	22.9375	11.4556	0.5979	-0.7437	0.2419	-0.1760
10.08	-0.2438	-9.0927	-2.0831	0.0149	-0.0029	0.0118	8.8089	23.0511	11.4799	0.5979	-0.7437	0.2419	-0.1760
10.09	-0.2464	-9.0996	-2.0857	0.0200	-0.0038	0.0049	8.7999	23.0793	11.4567	0.5979	-0.7437	0.2418	-0.1760
10.1	-0.2529	-9.1029	-2.0918	0.0147	-0.0063	0.0060	8.9189	23.1440	11.3668	0.5979	-0.7437	0.2418	-0.1760
10.11	-0.2526	-9.1006	-2.0883	0.0181	-0.0076	0.0072	8.8252	23.1706	11.5581	0.5979	-0.7437	0.2418	-0.1760
10.12	-0.2482	-9.0996	-2.0825	0.0116	0.0011	0.0029	8.7811	23.0357	11.5381	0.5979	-0.7436	0.2417	-0.1760
10.13	-0.2457	-9.1072	-2.0890	0.0072	-0.0004	0.0085	8.8168	23.0983	11.6832	0.5979	-0.7438	0.2418	-0.1760
10.14	-0.2377	-9.0972	-2.0804	0.0076	-0.0031	0.0009	8.8963	23.2470	11.7261	0.5978	-0.7438	0.2417	-0.1760
10.15	-0.2371	-9.0976	-2.0757	0.0133	-0.0009	-0.0022	9.3008	22.8006	11.7698	0.5979	-0.7438	0.2417	-0.1760
10.16	-0.2401	-9.1057	-2.0838	0.0174	-0.0003	0.0032	9.1731	22.9911	11.6934	0.5978	-0.7437	0.2417	-0.1760
10.17	-0.2404	-9.1013	-2.0883	0.0152	0.0049	0.0053	8.8993	23.4101	11.4540	0.5978	-0.7438	0.2417	-0.1760
10.18	-0.2425	-9.0926	-2.0845	0.0160	0.0013	0.0082	8.8886	23.5473	11.4187	0.5978	-0.7438	0.2417	-0.1761
10.19	-0.2479	-9.0984	-2.0791	0.0136	-0.0018	0.0022	8.6789	23.1162	11.5745	0.5978	-0.7438	0.2417	-0.1761
10.2	-0.2595	-9.1064	-2.0870	0.0182	-0.0097	0.0101	8.9687	23.0132	11.5556	0.5979	-0.7439	0.2417	-0.1761
10.21	-0.2629	-9.0998	-2.0851	0.0189	-0.0064	0.0093	8.9689	22.8314	11.4729	0.5978	-0.7438	0.2416	-0.1760
10.22	-0.2595	-9.0935	-2.0888	0.0202	-0.0075	0.0098	9.0168	22.9319	11.6772	0.5979	-0.7438	0.2416	-0.1760
10.23	-0.2524	-9.0958	-2.0958	0.0140	0.0004	0.0033	8.8113	23.0456	11.1502	0.5978	-0.7437	0.2416	-0.1760
10.24	-0.2426	-9.1018	-2.0966	0.0180	-0.0046	0.0062	8.6397	23.1216	11.2785	0.5979	-0.7438	0.2416	-0.1760
10.25	-0.2265	-9.0985	-2.0999	0.0188	-0.0108	0.0080	8.8253	22.9844	11.5699	0.5979	-0.7438	0.2415	-0.1760
10.26	-0.2161	-9.1053	-2.0985	0.0091	-0.0075	0.0104	8.8261	23.1465	11.3500	0.5978	-0.7438	0.2415	-0.1759
10.27	-0.2071	-9.1088	-2.0997	0.0143	-0.0016	0.0097	8.8191	22.9220	11.4161	0.5979	-0.7438	0.2415	-0.1759
10.28	-0.2061	-9.0965	-2.0905	0.0194	-0.0018	0.0065	8.8399	22.9887	11.4779	0.5979	-0.7438	0.2415	-0.1759
10.29	-0.2098	-9.1024	-2.0957	0.0193	-0.0025	0.0031	8.9654	23.0783	11.3097	0.5979	-0.7439	0.2415	-0.1759
10.3	-0.2223	-9.1083	-2.1074	0.0199	0.0027	0.0070	8.7095	22.9142	11.6927	0.5978	-0.7438	0.2415	-0.1759
10.31	-0.2242	-9.1005	-2.1023	0.0172	-0.0006	0.0074	8.7573	23.0891	11.6166	0.5979	-0.7438	0.2415	-0.1760
10.32	-0.2343	-9.0951	-2.0999	0.0210	-0.0075	0.0090	8.8436	22.9486	11.2536	0.5979	-0.7438	0.2415	-0.1759
10.33	-0.2438	-9.1013	-2.1053	0.0131	-0.0006	0.0094	8.8218	23.0331	11.4397	0.5979	-0.7438	0.2415	-0.1759
10.34	-0.2453	-9.0958	-2.1032	0.0187	-0.0012	0.0093	8.7257	22.9355	11.6967	0.5979	-0.7438	0.2415	-0.1759
10.35	-0.2456	-9.0905	-2.0924	0.0199	-0.0031	0.0104	8.8695	22.9965	11.4816	0.5979	-0.7438	0.2415	-0.1759
10.36	-0.2426	-9.1006	-2.0952	0.0199	0.0028	0.0021	8.8970	23.2103	11.5456	0.5980	-0.7438	0.2414	-0.1760
10.37	-0.2410	-9.1028	-2.0981	0.0186	0.0034	0.0058	8.6363	23.2039	11.4926	0.5979	-0.7437	0.2414	-0.1760
10.38	-0.2377	-9.0990	-2.0891	0.0169	-0.0089	0.0046	8.5914	23.1831	11.4490	0.5980	-0.7438	0.2414	-0.1760
10.39	-0.2347	-9.0993	-2.0856	0.0192	-0.0018	0.0078	8.6895	22.8207	11.5051	0.5980	-0.7438	0.2414	-0.1760
10.4	-0.2361	-9.1064	-2.0966	0.0174	0.0035	0.0076	8.8995	22.9697	11.4355	0.5980	-0.7438	0.2414	-0.1760
10.41	-0.2423	-9.0982	-2.0839	0.0173	-0.0055	0.0101	9.3003	22.8695	11.2054	0.5979	-0.7437	0.2414	-0.1760
10.42	-0.2439	-9.0968	-2.0822	0.0216	-0.0012	0.0070	8.9454	22.9848	11.2307	0.5980	-0.7438	0.2414	-0.1760
10.43	-0.2549	-9.1069	-2.0817	0.0202	-0.0018	0.0067	8.9447	22.8987	11.3890	0.5980	-0.7437	0.2414	-0.1760
10.44	-0.2560	-9.1066	-2.0825	0.0183	-0.0028	0.0063	9.0149	22.8459	11.3959	0.5980	-0.7437	0.2414	-0.1760
10.45	-0.2582	-9.0931	-2.0757	0.0204	-0.0013	0.0062	8.8727	22.9889	11.4918	0.5981	-0.7438	0.2414	-0.1760
10.46	-0.2608	-9.1019	-2.0800	0.0196	-0.0008	0.0058	8.9299	23.0327	11.4734	0.5980	-0.7437	0.2413	-0.1760
10.47	-0.2565	-9.1049	-2.0788	0.0184	-0.0034	0.0082	8.8731	22.8569	11.5020	0.5981	-0.7438	0.2413	-0.1760
10.48	-0.2509	-9.0936	-2.0766	0.0185	0.0013	0.0091	9.0097	22.9505	11.3887	0.5980	-0.7436	0.2413	-0.1760
10.49	-0.2515	-9.1006	-2.0848	0.0208	0.0063	0.0106	8.9580	23.1786	11.3970	0.5981	-0.7437	0.2414	-0.1760
10.5	-0.2493	-9.1111	-2.0917	0.0184	0.0063	0.0116	8.7293	23.2064	11.5379	0.5981	-0.7437	0.2414	-0.1761
10.51	-0.2491	-9.1006	-2.0949	0.0210	0.0038	0.0101	8.7582	23.1926	11.2789	0.5981	-0.7436	0.2414	-0.1761
10.52	-0.2449	-9.0924	-2.0895	0.0183	-0.0004	0.0019	8.7352	23.1958	11.3936	0.5981	-0.7437	0.2414	-0.1761
10.53	-0.2485	-9.0981	-2.0934	0.0190	0.0028	0.0057	8.6230	23.2052	11.6234	0.5981	-0.7436	0.2414	-0.1761
10.54	-0.2490	-9.1015	-2.0965	0.0206	-0.0010	0.0012	8.7207	23.1649	11.4648	0.5981	-0.7436	0.2414	-0.1762
10.55	-0.2436	-9.0931	-2.0897	0.0199	-0.0044	0.0014	8.7585	23.0016	11.4840	0.5981	-0.7436	0.2413	-0.1762
10.56	-0.2424	-9.0994	-2.0865	0.0185	0.0035	0.0035	8.7207	23.0706	11.5597	0.5981	-0.7436	0.2413	-0.1762
10.57	-0.2443	-9.1103	-2.0905	0.0152	-0.0005	0.0085	8.4892	23.0840	11.5841	0.5981	-0.7436	0.2413	-0.1762
10.58	-0.2364	-9.1044	-2.0768	0.0208	0.0007	0.0101	8.7856	22.7466	11.4320	0.5981	-0.7436	0.2413	-0.1762
10.59	-0.2331	-9.0943	-2.0668	0.0202	0.0028	0.0127	9.0229	22.9137	11.2745	0.5981	-0.7436	0.2414	-0.1762
10.6	-0.2336	-9.1066	-2.0791	0.0162	0.0000	0.0072	8.9701	22.9498	11.4611	0.5981	-0.7436	0.2414	-0.1762
10.61	-0.2330	-9.1104	-2.0852	0.0182	0.0077	0.0084	8.9895	22.9849	11.4713	0.5981	-0.7436	0.2414	-0.1763
10.62	-0.2302	-9.1006	-2.0820	0.0206	-0.0012	0.0081	9.0004	22.8339	11.1772	0.5981	-0.7435	0.2414	-0.1763
10.63	-0.2318	-9.1059	-2.0869	0.0198	0.0024	0.0063	8.7857	23.0206	11.4645	0.5982	-0.7436	0.2414	-0.1763
10.64	-0.2266	-9.1102	-2.1035	0.0201	0.0006	0.0093	9.0024	23.2356	11.7243	0.5982	-0.7435	0.2414	-0.1763
10.65	-0.2259	-9.0942	-2.0889	0.0200	-0.0012	0.0115	9.3369	22.7636	11.5885	0.5982	-0.7436	0.2414	-0.1763
10.66	-0.2231	-9.0985	-2.0996	0.0202	-0.0010	0.0138	9.1823	23.0171	11.6036	0.5982	-0.7435	0.2414	-0.1763
10.67	-0.2308	-9.1081	-2.1167	0.0201	0.0022	0.0069	8.6836	23.5870	11.4510	0.5982	-0.7435	0.2414	-0.1763
10.68	-0.2315	-9.0975	-2.1143	0.0198	-0.0000	0.0125	8.8713	23.8655	11.5420	0.5982	-0.7435	0.2414	-0.1763
10.69	-0.2328	-9.0919	-2.1123	0.0188	0.0014	0.0024	8.7180	23.1959	11.4500	0.5982	-0.7434	0.2414	-0.1763
10.7	-0.2410	-9.1056	-2.1177	0.0170	-0.0056	0.0075	8.6533	23.0833	11.4609	0.5983	-0.7435	0.2414	-0.1764
10.71	-0.2411	-9.1043	-2.1138	0.0163	-0.0040	0.0100	8.8340	23.1962	11.5625	0.5982	-0.7434	0.2414	-0.1763
10.72	-0.2421	-9.0955	-2.0945	0.0187	-0.0064	0.0054	8.8091	23.1502	11.3088	0.5983	-0.7435	0.2414	-0.1763
10.73	-0.2427	-9.1001	-2.0935	0.0194	-0.0003	0.0100	8.7096	23.1203	11.1702	0.5982	-0.7434	0.2414	-0.1763
10.74	-0.2466	-9.1132	-2.0976	0.0203	-0.0005	0.0033	8.7645	23.1021	11.4404	0.5983	-0.7435	0.2414	-0.1764
10.75	-0.2406	-9.1028	-2.0810	0.0197	0.0034	0.0086	8.8984	23.1990	11.6005	0.5983	-0.7434	0.2414	-0.1764
10.76	-0.2450	-9.0954	-2.0764	0.0203	0.0020	0.0097	8.6702	23.1404	11.4358	0.5983	-0.7434	0.2414	-0.1764
10.77	-0.2429	-9.1050	-2.0868	0.0175	-0.0030	0.0103	8.9261	23.0424	11.3894	0.5983	-0.7434	0.2414	-0.1764
10.78	-0.2423	-9.1010	-2.0853	0.0200	-0.0042	0.0068	8.9814	23.0174	11.4521	0.5983	-0.7434	0.2414	-0.1764
10.79	-0.2375	-9.0974	-2.0845	0.0192	-0.0009	0.0094	8.9212	22.9595	11.3380	0.5984	-0.7434	0.2414	-0.1764
10.8	-0.2371	-9.1042	-2.0842	0.0207	0.0011	0.0084	8.7894	22.9368	11.4750	0.5983	-0.7433	0.2413	-0.1764
10.81	-0.2434	-9.1148	-2.0946	0.0153	-0.0054	0.0105	8.7047	23.1083	11.3479	0.5984	-0.7434	0.2414	-0.1764
10.82	-0.2407	-9.0994	-2.0835	0.0159	0.0002	0.0062	8.7349	23.1995	11.6902	0.5983	-0.7434	0.2414	-0.1764
10.83	-0.2455	-9.1014	-2.0815	0.0196	-0.0026	0.0090	8.8892	23.0870	11.4780	0.5984	-0.7434	0.2414	-0.1764
10.84	-0.2529	-9.1077	-2.0835	0.0137	0.0027	0.0104	8.8738	23.1544	11.3712	0.5983	-0.7434	0.2414	-0.1764
10.85	-0.2568	-9.1047	-2.0831	0.0194	0.0014	0.0105	8.7935	22.9872	11.3477	0.5984	-0.7434	0.2414	-0.1764
10.86	-0.2552	-9.0930	-2.0797	0.0156	-0.0003	0.0073	8.7920	22.9395	11.2594	0.5984	-0.7434	0.2414	-0.1764
10.87	-0.2535	-9.1002	-2.0945	0.0191	-0.0011	0.0051	8.5975	23.0434	11.3543	0.5983	-0.7433	0.2414	-0.1764
10.88	-0.2472	-9.1043	-2.0997	0.0198	0.0021	0.0028	8.7818	23.0429	11.5108	0.5984	-0.7434	0.2414	-0.1764
10.89	-0.2411	-9.0915	-2.0955	0.0196	0.0004	0.0057	8.7549	23.2003	11.3582	0.5984	-0.7433	0.2413	-0.1764
10.9	-0.2425	-9.0956	-2.0874	0.0196	0.0002	0.0014	8.7268	23.1597	11.2416	0.5984	-0.7434	0.2413	-0.1765
10.91	-0.2371	-9.1044	-2.0947	0.0186	0.0062	0.0037	8.7020	23.0076	11.3806	0.5983	-0.7433	0.2413	-0.1765
10.92	-0.2386	-9.0983	-2.0950	0.0200	-0.0029	0.0021	8.7774	23.2961	11.3849	0.5984	-0.7433	0.2413	-0.1765
10.93	-0.2420	-9.0958	-2.0955	0.0200	-0.0016	0.0067	8.7212	23.0704	11.4783	0.5984	-0.7433	0.2413	-0.1765
10.94	-0.2499	-9.1036	-2.0976	0.0196	-0.0037	0.0119	8.5916	23.0773	11.4516	0.5984	-0.7433	0.2413	-0.1765
10.95	-0.2582	-9.1044	-2.0907	0.0199	-0.0118	0.0066	8.7635	23.2607	11.3504	0.5985	-0.7434	0.2413	-0.1765
10.96	-0.2584	-9.0903	-2.0840	0.0184	-0.0028	0.0077	8.6934	23.0016	11.2639	0.5984	-0.7433	0.2413	-0.1765
10.97	-0.2621	-9.0999	-2.0816	0.0178	-0.0011	0.0028	8.7726	23.1857	11.2912	0.5985	-0.7433	0.2413	-0.1765
10.98	-0.2565	-9.1128	-2.0915	0.0196	-0.0045	0.0058	8.9743	23.2331	11.2772	0.5984	-0.7432	0.2412	-0.1765
10.99	-0.2525	-9.0998	-2.0754	0.0151	-0.0073	0.0063	9.0729	22.9010	11.2996	0.5985	-0.7433	0.2412	-0.1765
11	-0.2467	-9.1066	-2.0766	0.0167	-0.0101	0.0012	8.8393	23.0225	11.4603	0.5985	-0.7433	0.2411	-0.1765
11.01	-0.2388	-9.1041	-2.0697	0.0161	0.0004	0.0087	8.7759	23.1103	11.4046	0.5985	-0.7433	0.2411	-0.1765
11.02	-0.2332	-9.1040	-2.0776	0.0211	-0.0070	0.0095	8.8369	23.2226	11.1479	0.5985	-0.7433	0.2411	-0.1765
11.03	-0.2275	-9.0959	-2.0711	0.0182	-0.0027	0.0067	8.7685	23.0905	11.3618	0.5985	-0.7433	0.2411	-0.1765
11.04	-0.2317	-9.1112	-2.0741	0.0205	-0.0002	0.0095	8.8860	23.1635	11.3501	0.5985	-0.7433	0.2411	-0.1765
11.05	-0.2377	-9.1111	-2.0753	0.0168	-0.0025	0.0096	8.8067	23.0098	11.4875	0.5985	-0.7432	0.2411	-0.1764
11.06	-0.2415	-9.0989	-2.0673	0.0182	0.0001	0.0061	8.6112	23.2752	11.3095	0.5985	-0.7433	0.2411	-0.1765
11.07	-0.2432	-9.0979	-2.0839	0.0115	-0.0018	0.0086	8.8116	23.2611	11.1578	0.5985	-0.7433	0.2411	-0.1765
11.08	-0.2446	-9.1073	-2.0994	0.0165	-0.0024	0.0058	8.8065	23.1657	11.4758	0.5985	-0.7433	0.2411	-0.1765
11.09	-0.2342	-9.0970	-2.1015	0.0139	-0.0045	0.0022	8.7189	23.3311	11.4416	0.5985	-0.7433	0.2411	-0.1765
11.1	-0.2314	-9.0933	-2.1022	0.0151	-0.0025	0.0103	8.6032	23.2380	11.3386	0.5985	-0.7433	0.2411	-0.1765
11.11	-0.2260	-9.1091	-2.1169	0.0170	-0.0043	0.0020	8.7167	23.2206	11.3809	0.5985	-0.7433	0.2411	-0.1765
11.12	-0.2218	-9.1085	-2.1125	0.0144	0.0039	0.0015	8.7258	23.1195	11.3584	0.5984	-0.7433	0.2410	-0.1765
11.13	-0.2177	-9.0984	-2.1028	0.0132	-0.0003	0.0068	8.6308	23.1307	11.3861	0.5985	-0.7434	0.2411	-0.1765
11.14	-0.2206	-9.0965	-2.1029	0.0198	-0.0096	0.0068	8.9277	23.2482	11.4776	0.5985	-0.7433	0.2410	-0.1765
11.15	-0.2304	-9.1064	-2.1082	0.0191	-0.0036	0.0098	9.4575	23.1630	11.4290	0.5985	-0.7434	0.2410	-0.1765
11.16	-0.2280	-9.0998	-2.1074	0.0194	-0.0012	0.0130	9.4052	23.1639	11.2783	0.5985	-0.7433	0.2410	-0.1765
11.17	-0.2342	-9.1044	-2.0993	0.0196	-0.0081	0.0100	9.0536	23.5499	11.2554	0.5985	-0.7433	0.2410	-0.1765
11.18	-0.2356	-9.1057	-2.1058	0.0170	-0.0028	0.0089	8.8158	23.7373	11.3924	0.5985	-0.7433	0.2410	-0.1764
11.19	-0.2366	-9.1025	-2.1018	0.0182	-0.0059	0.0132	8.8174	23.0157	11.3867	0.5985	-0.7433	0.2410	-0.1764
11.2	-0.2390	-9.1006	-2.0950	0.0168	-0.0016	0.0103	8.7232	23.0533	11.4042	0.5986	-0.7434	0.2410	-0.1764
11.21	-0.2321	-9.1020	-2.0948	0.0199	-0.0022	0.0066	8.7807	23.1955	11.3868	0.5986	-0.7433	0.2410	-0.1764
11.22	-0.2356	-9.1033	-2.0923	0.0174	-0.0134	0.0068	8.8357	23.1825	11.6179	0.5986	-0.7434	0.2410	-0.1764
11.23	-0.2360	-9.0985	-2.0896	0.0195	-0.0085	0.0085	8.8109	23.0143	11.3587	0.5986	-0.7433	0.2409	-0.1763
11.24	-0.2382	-9.1031	-2.0890	0.0134	-0.0035	0.0053	8.8311	23.0885	11.4507	0.5986	-0.7434	0.2409	-0.1763
11.25	-0.2407	-9.1082	-2.0885	0.0192	-0.0051	0.0043	8.6567	23.2980	11.4275	0.5986	-0.7433	0.2409	-0.1763
11.26	-0.2457	-9.1003	-2.0834	0.0170	-0.0064	0.0039	8.6780	23.2900	11.4375	0.5986	-0.7433	0.2409	-0.1763
11.27	-0.2490	-9.0994	-2.0798	0.0156	-0.0079	0.0076	8.5433	23.2893	11.5864	0.5986	-0.7434	0.2409	-0.1763
11.28	-0.2501	-9.1035	-2.0762	0.0157	-0.0012	0.0124	8.6279	23.1707	11.4312	0.5986	-0.7433	0.2409	-0.1763
11.29	-0.2540	-9.1023	-2.0693	0.0202	-0.0030	0.0058	8.6444	23.2814	11.5012	0.5986	-0.7434	0.2409	-0.1763
11.3	-0.2561	-9.1066	-2.0761	0.0190	0.0046	0.0075	8.7487	23.3021	11.4484	0.5986	-0.7433	0.2409	-0.1763
11.31	-0.2564	-9.1023	-2.0785	0.0184	0.0013	0.0101	8.7038	23.1923	11.6175	0.5986	-0.7433	0.2409	-0.1764
11.32	-0.2566	-9.0982	-2.0800	0.0173	-0.0053	0.0068	8.6826	23.3719	11.4749	0.5986	-0.7433	0.2409	-0.1764
11.33	-0.2509	-9.0960	-2.0794	0.0188	-0.0068	0.0089	9.0158	23.0855	11.2938	0.5986	-0.7433	0.2409	-0.1764
11.34	-0.2478	-9.0988	-2.0785	0.0186	-0.0048	0.0103	8.8912	22.9435	11.3330	0.5986	-0.7433	0.2409	-0.1763
11.35	-0.2468	-9.0976	-2.0834	0.0187	0.0006	0.0082	8.7844	22.9815	11.2918	0.5987	-0.7433	0.2409	-0.1763
11.36	-0.2453	-9.1008	-2.0867	0.0184	-0.0015	0.0079	8.7345	22.9370	11.3660	0.5987	-0.7433	0.2409	-0.1763
11.37	-0.2452	-9.1005	-2.0868	0.0164	-0.0019	0.0082	8.7441	23.0458	11.4923	0.5986	-0.7432	0.2409	-0.1763
11.38	-0.2447	-9.0999	-2.0904	0.0175	0.0017	0.0077	8.7392	23.1493	11.3890	0.5987	-0.7433	0.2409	-0.1764
11.39	-0.2416	-9.1034	-2.0930	0.0196	-0.0018	0.0101	8.8791	22.9820	11.2309	0.5987	-0.7433	0.2409	-0.1763
11.4	-0.2417	-9.0988	-2.0901	0.0154	-0.0001	0.0062	8.7325	22.9523	11.2761	0.5987	-0.7433	0.2409	-0.1764
11.41	-0.2396	-9.1009	-2.0969	0.0193	-0.0034	0.0067	8.8386	23.0513	11.4089	0.5986	-0.7432	0.2409	-0.1763
11.42	-0.2402	-9.1018	-2.0937	0.0204	0.0063	0.0067	8.7881	23.0546	11.5201	0.5987	-0.7433	0.2409	-0.1764
11.43	-0.2394	-9.0994	-2.0978	0.0182	0.0033	0.0086	8.7229	23.1947	11.5856	0.5987	-0.7433	0.2409	-0.1764
11.44	-0.2351	-9.1031	-2.0955	0.0139	0.0053	0.0104	8.7299	23.2328	11.5465	0.5986	-0.7432	0.2409	-0.1764
11.45	-0.2345	-9.1012	-2.0964	0.0190	-0.0006	0.0098	8.8475	23.0911	11.5876	0.5987	-0.7433	0.2410	-0.1764
11.46	-0.2324	-9.0938	-2.1008	0.0210	0.0041	0.0057	8.7659	23.1869	11.4098	0.5987	-0.7432	0.2409	-0.1764
11.47	-0.2319	-9.0991	-2.0975	0.0188	0.0033	0.0024	8.5502	23.3972	11.3833	0.5987	-0.7433	0.2410	-0.1765
11.48	-0.2364	-9.0994	-2.0993	0.0181	-0.0063	0.0018	8.6667	23.2944	11.3794	0.5986	-0.7432	0.2409	-0.1765
11.49	-0.2374	-9.1017	-2.0922	0.0201	-0.0046	0.0021	8.8707	23.0677	11.4137	0.5987	-0.7432	0.2409	-0.1765
11.5	-0.2427	-9.0968	-2.0876	0.0190	0.0021	0.0033	8.9085	23.2448	11.3376	0.5987	-0.7432	0.2409	-0.1765
11.51	-0.2397	-9.1055	-2.0868	0.0197	-0.0007	0.0122	8.6464	23.3308	11.2825	0.5987	-0.7432	0.2409	-0.1765
11.52	-0.2372	-9.0994	-2.0823	0.0176	-0.0018	0.0039	8.6775	23.1068	11.3246	0.5987	-0.7432	0.2409	-0.1765
11.53	-0.2359	-9.1007	-2.0733	0.0189	-0.0086	0.0086	8.7649	22.9961	11.0352	0.5987	-0.7432	0.2408	-0.1765
11.54	-0.2331	-9.0993	-2.0781	0.0152	-0.0084	0.0097	8.7540	22.9644	11.3377	0.5987	-0.7432	0.2408	-0.1765
11.55	-0.2359	-9.1047	-2.0811	0.0201	-0.0044	0.0080	8.6432	22.9419	11.5183	0.5987	-0.7432	0.2408	-0.1765
