time	acceleration_x	acceleration_y	acceleration_z	gyroscope_x	gyroscope_y	gyroscope_z	magnetometer_x	magnetometer_y	magnetometer_z	quaternion_w	quaternion_x	quaternion_y	quaternion_z
0	-9.2130	-0.2418	2.5921	-0.0202	-0.0048	-0.0559	34.1984	3.7609	4.4445	-0.7958	-0.0062	-0.6038	0.0462
0.01	-9.1806	-0.2178	2.6300	-0.0153	-0.0032	-0.0529	33.9626	4.0860	4.5066	-0.7958	-0.0062	-0.6038	0.0462
0.02	-9.1830	-0.2183	2.6184	-0.0170	0.0018	-0.0552	34.0681	3.9067	4.6397	-0.7957	-0.0062	-0.6039	0.0463
0.03	-9.1947	-0.2284	2.5892	-0.0150	-0.0034	-0.0599	34.2685	3.9294	4.5058	-0.7957	-0.0062	-0.6039	0.0463
0.04	-9.1880	-0.2343	2.6063	-0.0239	0.0000	-0.0639	34.0377	3.8802	4.5705	-0.7956	-0.0062	-0.6040	0.0464
0.05	-9.1949	-0.2537	2.6018	-0.0310	0.0092	-0.0582	34.0615	4.0234	4.7761	-0.7955	-0.0061	-0.6040	0.0464
0.06	-9.1945	-0.2603	2.6021	-0.0279	0.0059	-0.0593	34.0578	4.2464	4.4150	-0.7955	-0.0061	-0.6042	0.0464
0.07	-9.2086	-0.2600	2.6010	-0.0310	-0.0001	-0.0586	34.0479	4.2627	4.4174	-0.7954	-0.0060	-0.6042	0.0464
0.08	-9.2107	-0.2650	2.5778	-0.0379	0.0039	-0.0500	34.1186	4.2708	4.7985	-0.7955	-0.0059	-0.6043	0.0464
0.09	-9.1817	-0.2617	2.6098	-0.0365	-0.0016	-0.0500	34.1843	4.1956	4.5595	-0.7953	-0.0059	-0.6043	0.0463
0.1	-9.2092	-0.2977	2.6012	-0.0405	0.0130	-0.0541	33.9679	4.3508	4.6768	-0.7953	-0.0058	-0.6044	0.0463
0.11	-9.2392	-0.3257	2.5630	-0.0382	0.0176	-0.0540	33.8622	4.0976	4.7205	-0.7952	-0.0057	-0.6046	0.0463
0.12	-9.2088	-0.3190	2.5809	-0.0317	0.0006	-0.0484	34.2247	4.2474	5.0377	-0.7951	-0.0057	-0.6046	0.0462
0.13	-9.1992	-0.3306	2.5813	-0.0356	0.0064	-0.0407	34.3708	4.1116	4.8277	-0.7951	-0.0056	-0.6048	0.0462
0.14	-9.2222	-0.3420	2.5637	-0.0306	0.0123	-0.0424	34.3908	3.8969	4.6049	-0.7950	-0.0056	-0.6048	0.0461
0.15	-9.2437	-0.3445	2.5511	-0.0202	0.0137	-0.0455	34.3033	4.1065	4.7455	-0.7950	-0.0057	-0.6050	0.0461
0.16	-9.2103	-0.3453	2.5458	-0.0163	0.0036	-0.0380	34.2749	4.2196	4.5426	-0.7948	-0.0057	-0.6050	0.0461
0.17	-9.1988	-0.3383	2.5584	-0.0191	0.0105	-0.0353	34.1247	4.0669	4.7924	-0.7948	-0.0058	-0.6051	0.0460
0.18	-9.2264	-0.3360	2.5222	-0.0191	0.0097	-0.0424	34.0930	3.9662	4.8110	-0.7947	-0.0058	-0.6052	0.0460
0.19	-9.2318	-0.3140	2.5433	-0.0102	0.0034	-0.0392	33.8947	3.9109	4.8161	-0.7947	-0.0059	-0.6052	0.0460
0.2	-9.2555	-0.3014	2.5512	-0.0146	0.0092	-0.0357	34.0553	4.0472	4.8085	-0.7946	-0.0059	-0.6054	0.0460
0.21	-9.2790	-0.2825	2.5328	-0.0113	0.0036	-0.0421	34.1141	4.0075	4.6763	-0.7946	-0.0060	-0.6054	0.0460
0.22	-9.2805	-0.2920	2.5316	-0.0041	-0.0037	-0.0424	34.1257	4.0490	4.7971	-0.7946	-0.0061	-0.6055	0.0460
0.23	-9.2636	-0.2761	2.5457	-0.0177	-0.0096	-0.0416	34.0169	3.9260	4.8207	-0.7945	-0.0061	-0.6054	0.0460
0.24	-9.2791	-0.2723	2.5443	-0.0164	-0.0031	-0.0471	33.9150	3.9456	4.8064	-0.7945	-0.0062	-0.6055	0.0460
0.25	-9.2934	-0.2844	2.5284	-0.0176	-0.0054	-0.0515	34.0971	4.0708	4.8166	-0.7945	-0.0062	-0.6055	0.0460
0.26	-9.2900	-0.2845	2.5251	-0.0170	-0.0141	-0.0467	34.1261	3.9323	4.7982	-0.7945	-0.0062	-0.6055	0.0460
0.27	-9.2552	-0.2872	2.5297	-0.0187	-0.0238	-0.0418	34.0031	3.9396	4.9229	-0.7945	-0.0062	-0.6055	0.0460
0.28	-9.2597	-0.2717	2.5566	-0.0154	-0.0204	-0.0438	34.0337	4.0539	4.7559	-0.7945	-0.0063	-0.6055	0.0460
0.29	-9.2869	-0.2609	2.5121	-0.0181	-0.0167	-0.0494	33.9964	4.1922	4.9018	-0.7945	-0.0063	-0.6055	0.0460
0.3	-9.2483	-0.2636	2.5385	-0.0216	-0.0354	-0.0492	34.1259	4.1913	4.8141	-0.7945	-0.0063	-0.6053	0.0460
0.31	-9.1957	-0.2863	2.5593	-0.0223	-0.0341	-0.0503	33.9882	4.3227	4.8029	-0.7947	-0.0062	-0.6053	0.0460
0.32	-9.2457	-0.2757	2.5848	-0.0239	-0.0212	-0.0433	33.9325	4.0724	4.6355	-0.7947	-0.0062	-0.6052	0.0460
0.33	-9.3225	-0.2779	2.5383	-0.0265	-0.0150	-0.0431	34.1344	4.0203	4.6763	-0.7947	-0.0062	-0.6053	0.0460
0.34	-9.2689	-0.2828	2.5461	-0.0238	-0.0409	-0.0493	34.0814	3.9340	4.8447	-0.7947	-0.0062	-0.6051	0.0459
0.35	-9.1914	-0.2964	2.5820	-0.0282	-0.0431	-0.0547	34.2671	3.8317	4.6679	-0.7949	-0.0062	-0.6050	0.0460
0.36	-9.1851	-0.3028	2.5484	-0.0269	-0.0267	-0.0502	34.2503	3.6552	4.6207	-0.7949	-0.0061	-0.6050	0.0459
0.37	-9.1906	-0.3080	2.5592	-0.0203	-0.0316	-0.0495	34.0993	3.8249	4.6481	-0.7949	-0.0061	-0.6049	0.0459
0.38	-9.1691	-0.2961	2.5634	-0.0230	-0.0302	-0.0451	34.0986	3.9566	4.6022	-0.7951	-0.0061	-0.6049	0.0459
0.39	-9.1324	-0.2906	2.5641	-0.0207	-0.0272	-0.0424	34.2917	3.9447	4.6874	-0.7950	-0.0062	-0.6048	0.0459
0.4	-9.1424	-0.2985	2.5723	-0.0258	-0.0147	-0.0465	34.1833	4.1178	4.6876	-0.7951	-0.0061	-0.6048	0.0459
0.41	-9.1834	-0.3374	2.5441	-0.0238	-0.0071	-0.0450	33.9685	4.1113	4.4810	-0.7950	-0.0061	-0.6048	0.0459
0.42	-9.1684	-0.3399	2.5358	-0.0171	-0.0154	-0.0406	34.1799	4.1016	4.8179	-0.7951	-0.0062	-0.6048	0.0458
0.43	-9.1571	-0.3272	2.5756	-0.0184	-0.0034	-0.0504	33.9996	3.7989	4.7565	-0.7950	-0.0062	-0.6048	0.0459
0.44	-9.2076	-0.3492	2.5477	-0.0180	0.0076	-0.0444	33.8212	4.0121	4.7065	-0.7949	-0.0062	-0.6049	0.0458
0.45	-9.2229	-0.3170	2.5448	-0.0133	0.0009	-0.0493	33.9408	4.0302	4.7166	-0.7949	-0.0063	-0.6050	0.0459
0.46	-9.2049	-0.3134	2.5538	-0.0156	-0.0026	-0.0483	33.9445	4.1508	4.7353	-0.7949	-0.0063	-0.6050	0.0459
0.47	-9.2325	-0.3171	2.5488	-0.0138	0.0058	-0.0476	34.1078	4.0347	4.8647	-0.7948	-0.0063	-0.6051	0.0459
0.48	-9.2555	-0.3094	2.5329	-0.0168	0.0030	-0.0467	34.1183	4.0264	4.6836	-0.7947	-0.0063	-0.6051	0.0459
0.49	-9.2500	-0.3002	2.5418	-0.0154	-0.0037	-0.0424	33.9854	4.0056	4.7610	-0.7948	-0.0064	-0.6052	0.0459
0.5	-9.2563	-0.2877	2.5583	-0.0169	-0.0021	-0.0405	34.0761	4.0815	4.7947	-0.7947	-0.0064	-0.6052	0.0459
0.51	-9.2884	-0.2792	2.5446	-0.0167	-0.0082	-0.0366	34.1275	4.0750	4.6149	-0.7947	-0.0065	-0.6053	0.0459
0.52	-9.2983	-0.2949	2.5580	-0.0163	-0.0166	-0.0359	34.0923	3.8956	4.6288	-0.7947	-0.0065	-0.6052	0.0458
0.53	-9.2786	-0.3016	2.5563	-0.0191	-0.0205	-0.0397	34.2510	3.8421	4.6440	-0.7947	-0.0066	-0.6052	0.0458
0.54	-9.2026	-0.3008	2.5656	-0.0208	-0.0236	-0.0358	34.1018	3.6787	4.8122	-0.7948	-0.0066	-0.6052	0.0457
0.55	-9.2636	-0.2996	2.6011	-0.0161	-0.0031	-0.0343	34.1963	3.9785	4.8214	-0.7947	-0.0067	-0.6052	0.0457
0.56	-9.3367	-0.3114	2.4919	-0.0303	-0.0041	-0.0358	34.0940	4.0725	4.7970	-0.7947	-0.0067	-0.6053	0.0456
0.57	-9.2260	-0.3119	2.5904	-0.0267	-0.0490	-0.0359	34.1421	3.9546	4.6872	-0.7948	-0.0067	-0.6051	0.0455
0.58	-9.2210	-0.3397	2.6134	-0.0190	-0.0233	-0.0385	34.2404	3.9958	4.7572	-0.7949	-0.0067	-0.6051	0.0455
0.59	-9.2704	-0.3427	2.5296	-0.0177	-0.0253	-0.0260	34.1554	3.8221	4.5974	-0.7948	-0.0068	-0.6050	0.0454
0.6	-9.2145	-0.3158	2.6149	-0.0178	-0.0507	-0.0230	34.1437	4.0703	4.6742	-0.7950	-0.0069	-0.6049	0.0454
0.61	-9.1917	-0.3108	2.6094	-0.0156	-0.0343	-0.0324	33.9891	4.0333	4.6953	-0.7951	-0.0070	-0.6048	0.0453
0.62	-9.2199	-0.2990	2.6023	-0.0093	-0.0293	-0.0314	33.9384	4.2235	4.5465	-0.7951	-0.0070	-0.6047	0.0453
0.63	-9.2102	-0.3129	2.5956	-0.0022	-0.0293	-0.0366	34.4879	4.1935	5.0053	-0.7952	-0.0071	-0.6047	0.0453
0.64	-9.1531	-0.3227	2.5973	0.0095	-0.0368	-0.0365	34.4258	4.2037	4.9165	-0.7952	-0.0073	-0.6046	0.0453
0.65	-9.1396	-0.3050	2.6250	0.0090	-0.0266	-0.0375	34.3282	4.1415	4.4992	-0.7953	-0.0074	-0.6045	0.0454
0.66	-9.1734	-0.2906	2.6024	0.0156	-0.0112	-0.0348	34.0668	4.1837	4.6334	-0.7952	-0.0076	-0.6044	0.0454
0.67	-9.1943	-0.2681	2.5986	0.0144	-0.0167	-0.0345	33.9872	3.9636	4.5598	-0.7953	-0.0078	-0.6045	0.0455
0.68	-9.2006	-0.2649	2.6173	0.0094	-0.0238	-0.0369	34.0851	4.0392	4.7515	-0.7953	-0.0080	-0.6044	0.0455
0.69	-9.2028	-0.2602	2.5954	0.0203	-0.0225	-0.0341	33.9436	4.0051	4.7048	-0.7953	-0.0082	-0.6044	0.0456
0.7	-9.1828	-0.2026	2.6252	0.0318	-0.0211	-0.0355	33.9474	3.8508	4.4218	-0.7954	-0.0084	-0.6044	0.0457
0.71	-9.2074	-0.1973	2.6274	0.0207	-0.0064	-0.0331	34.0919	4.1560	4.5367	-0.7954	-0.0086	-0.6043	0.0458
0.72	-9.2657	-0.1959	2.5825	0.0117	-0.0040	-0.0297	34.1562	3.6954	4.5649	-0.7954	-0.0088	-0.6044	0.0458
0.73	-9.2511	-0.1967	2.5876	0.0096	-0.0103	-0.0347	34.0191	3.8069	4.6747	-0.7953	-0.0090	-0.6043	0.0458
0.74	-9.2374	-0.1836	2.6089	0.0097	-0.0187	-0.0360	34.1597	3.8694	4.6414	-0.7954	-0.0092	-0.6044	0.0459
0.75	-9.2477	-0.1787	2.5929	0.0086	-0.0162	-0.0308	34.0774	3.6420	4.5724	-0.7953	-0.0093	-0.6043	0.0459
0.76	-9.2713	-0.1747	2.5832	0.0079	-0.0133	-0.0225	34.0086	3.7914	4.7996	-0.7954	-0.0095	-0.6043	0.0459
0.77	-9.2692	-0.1530	2.5986	0.0093	-0.0318	-0.0265	34.0674	3.9027	4.6270	-0.7954	-0.0097	-0.6042	0.0459
0.78	-9.2419	-0.1459	2.5978	0.0096	-0.0323	-0.0341	34.1153	3.8523	4.7058	-0.7955	-0.0099	-0.6042	0.0459
0.79	-9.2242	-0.1416	2.6108	0.0066	-0.0272	-0.0319	33.9775	3.9742	4.7804	-0.7955	-0.0100	-0.6041	0.0459
0.8	-9.2378	-0.1198	2.6066	0.0004	-0.0288	-0.0368	33.8487	3.8711	4.6690	-0.7955	-0.0101	-0.6040	0.0459
0.81	-9.2227	-0.1140	2.5885	-0.0024	-0.0310	-0.0363	33.7771	4.0132	4.6373	-0.7957	-0.0103	-0.6040	0.0460
0.82	-9.1876	-0.1308	2.6129	-0.0137	-0.0294	-0.0372	33.8839	4.0284	4.5497	-0.7957	-0.0103	-0.6039	0.0459
0.83	-9.1733	-0.1461	2.5964	-0.0137	-0.0247	-0.0364	33.8575	3.9497	4.5719	-0.7958	-0.0104	-0.6039	0.0459
0.84	-9.1467	-0.1491	2.5945	-0.0164	-0.0363	-0.0447	33.8507	3.9683	4.5703	-0.7957	-0.0104	-0.6037	0.0459
0.85	-9.1240	-0.1230	2.6109	-0.0125	-0.0333	-0.0371	33.8855	3.9940	4.6757	-0.7958	-0.0105	-0.6037	0.0459
0.86	-9.1357	-0.1002	2.6189	-0.0150	-0.0211	-0.0387	33.7866	3.8926	4.6696	-0.7959	-0.0105	-0.6037	0.0459
0.87	-9.1694	-0.0864	2.6286	-0.0216	-0.0166	-0.0456	33.8225	3.9495	4.5805	-0.7958	-0.0105	-0.6036	0.0459
0.88	-9.2170	-0.1018	2.6244	-0.0263	-0.0080	-0.0431	34.0797	4.0759	4.5556	-0.7959	-0.0105	-0.6037	0.0458
0.89	-9.2202	-0.1138	2.6112	-0.0410	-0.0222	-0.0476	34.3149	3.6522	4.5883	-0.7959	-0.0105	-0.6036	0.0458
0.9	-9.1992	-0.1379	2.6355	-0.0398	-0.0218	-0.0458	34.1966	3.8044	4.5643	-0.7960	-0.0104	-0.6036	0.0457
0.91	-9.2233	-0.1764	2.6081	-0.0408	-0.0074	-0.0500	33.9874	3.7815	4.5856	-0.7958	-0.0103	-0.6036	0.0456
0.92	-9.2432	-0.2039	2.5841	-0.0419	-0.0105	-0.0474	34.1926	3.8200	4.5532	-0.7959	-0.0102	-0.6037	0.0456
0.93	-9.2066	-0.2143	2.6131	-0.0432	-0.0294	-0.0420	34.0335	3.9097	4.4374	-0.7959	-0.0102	-0.6036	0.0455
0.94	-9.2137	-0.2374	2.6208	-0.0444	-0.0161	-0.0463	34.1142	3.8262	4.5734	-0.7959	-0.0101	-0.6036	0.0454
0.95	-9.2349	-0.2543	2.5810	-0.0399	-0.0134	-0.0418	34.1333	3.5692	4.5840	-0.7960	-0.0100	-0.6036	0.0453
0.96	-9.2235	-0.2457	2.6034	-0.0314	-0.0237	-0.0385	33.9886	3.6926	4.5641	-0.7960	-0.0100	-0.6035	0.0453
0.97	-9.2152	-0.2455	2.6060	-0.0172	-0.0192	-0.0373	33.8833	4.0739	4.3662	-0.7960	-0.0100	-0.6035	0.0452
0.98	-9.2145	-0.2371	2.5929	-0.0160	-0.0194	-0.0409	33.8398	4.0470	4.4742	-0.7960	-0.0101	-0.6034	0.0452
0.99	-9.2132	-0.2361	2.5881	-0.0168	-0.0224	-0.0391	33.8814	3.9645	4.4768	-0.7961	-0.0101	-0.6035	0.0452
1	-9.1996	-0.2178	2.5924	-0.0162	-0.0197	-0.0498	33.9860	3.9499	4.6515	-0.7961	-0.0101	-0.6034	0.0452
1.01	-9.1901	-0.2105	2.5930	-0.0122	-0.0165	-0.0526	33.8647	3.7743	4.6512	-0.7961	-0.0102	-0.6034	0.0452
1.02	-9.2201	-0.2044	2.5934	-0.0057	-0.0103	-0.0535	33.8512	3.8891	4.7744	-0.7961	-0.0102	-0.6034	0.0453
1.03	-9.2426	-0.1915	2.5595	-0.0008	-0.0014	-0.0531	33.8732	4.1405	4.8461	-0.7960	-0.0103	-0.6035	0.0454
1.04	-9.2223	-0.1685	2.5779	0.0034	-0.0094	-0.0603	34.0446	4.1112	4.6593	-0.7960	-0.0103	-0.6035	0.0455
1.05	-9.2301	-0.1549	2.6043	-0.0036	-0.0156	-0.0614	33.9701	3.9558	4.6470	-0.7960	-0.0104	-0.6034	0.0456
1.06	-9.2620	-0.1366	2.5824	-0.0005	-0.0112	-0.0587	33.8153	3.8810	4.7925	-0.7961	-0.0104	-0.6035	0.0457
1.07	-9.2545	-0.1084	2.5845	-0.0018	-0.0283	-0.0600	33.9293	3.8745	4.6870	-0.7960	-0.0105	-0.6034	0.0458
1.08	-9.2401	-0.1023	2.6353	-0.0172	-0.0366	-0.0630	34.2051	3.8998	4.4347	-0.7962	-0.0104	-0.6034	0.0459
1.09	-9.2572	-0.1195	2.6415	-0.0188	-0.0228	-0.0607	34.2480	3.8550	4.6085	-0.7961	-0.0104	-0.6032	0.0459
1.1	-9.2998	-0.1324	2.6672	-0.0328	-0.0288	-0.0632	34.0382	3.9415	4.5266	-0.7962	-0.0103	-0.6032	0.0460
1.11	-9.2958	-0.1596	2.6445	-0.0387	-0.0363	-0.0585	34.1272	3.9042	4.4822	-0.7963	-0.0102	-0.6031	0.0460
1.12	-9.2029	-0.1836	2.6559	-0.0442	-0.0552	-0.0553	34.3717	3.6476	4.7773	-0.7963	-0.0101	-0.6030	0.0459
1.13	-9.1443	-0.2260	2.6781	-0.0454	-0.0496	-0.0484	34.6483	3.9563	4.7583	-0.7965	-0.0100	-0.6029	0.0459
1.14	-9.1576	-0.2618	2.6448	-0.0405	-0.0405	-0.0445	34.7289	3.9634	4.6046	-0.7966	-0.0099	-0.6027	0.0458
1.15	-9.1380	-0.2586	2.6564	-0.0421	-0.0512	-0.0402	34.1944	4.0080	4.6582	-0.7967	-0.0098	-0.6026	0.0457
1.16	-9.0671	-0.2486	2.6648	-0.0419	-0.0413	-0.0371	34.0915	4.0160	4.5656	-0.7967	-0.0098	-0.6024	0.0456
1.17	-9.0622	-0.2553	2.6916	-0.0420	-0.0262	-0.0431	33.9610	4.0102	4.4025	-0.7968	-0.0097	-0.6024	0.0455
1.18	-9.1082	-0.2720	2.6217	-0.0396	-0.0013	-0.0434	33.9757	4.0014	4.5825	-0.7968	-0.0096	-0.6025	0.0454
1.19	-9.1004	-0.2731	2.6289	-0.0367	-0.0141	-0.0487	34.2110	4.1027	4.3956	-0.7968	-0.0096	-0.6025	0.0454
1.2	-9.0971	-0.2712	2.6563	-0.0215	0.0008	-0.0496	34.2379	4.1116	4.4420	-0.7968	-0.0096	-0.6025	0.0454
1.21	-9.1428	-0.2504	2.6214	-0.0165	0.0082	-0.0503	34.0582	3.8500	4.8109	-0.7967	-0.0096	-0.6026	0.0454
1.22	-9.1577	-0.2214	2.6146	-0.0138	0.0041	-0.0583	34.0422	3.8464	4.7533	-0.7967	-0.0096	-0.6027	0.0455
1.23	-9.1517	-0.1962	2.6452	-0.0143	0.0100	-0.0587	34.0297	3.8496	4.5741	-0.7965	-0.0096	-0.6027	0.0455
1.24	-9.1768	-0.1964	2.6226	-0.0159	0.0175	-0.0582	33.9537	3.7286	4.6632	-0.7965	-0.0096	-0.6029	0.0456
1.25	-9.1980	-0.2004	2.5959	-0.0176	0.0154	-0.0627	34.0588	3.9564	4.8354	-0.7964	-0.0096	-0.6030	0.0456
1.26	-9.1965	-0.2003	2.6137	-0.0154	0.0107	-0.0560	33.7959	3.8017	4.7828	-0.7963	-0.0096	-0.6031	0.0457
1.27	-9.2126	-0.1946	2.6064	-0.0255	0.0145	-0.0485	34.1000	3.6219	4.7205	-0.7962	-0.0096	-0.6032	0.0457
1.28	-9.2583	-0.1884	2.5912	-0.0300	0.0236	-0.0522	34.0861	3.9679	4.5508	-0.7961	-0.0095	-0.6033	0.0457
1.29	-9.2718	-0.2104	2.5811	-0.0320	0.0221	-0.0475	34.0674	3.8350	4.7103	-0.7960	-0.0095	-0.6035	0.0456
1.3	-9.2609	-0.2258	2.5706	-0.0391	0.0099	-0.0475	34.2345	3.9448	4.6228	-0.7959	-0.0094	-0.6036	0.0456
1.31	-9.2637	-0.2486	2.5748	-0.0426	0.0123	-0.0479	34.1245	3.9011	4.4927	-0.7959	-0.0094	-0.6037	0.0455
1.32	-9.2628	-0.2604	2.5320	-0.0336	0.0082	-0.0481	33.9459	3.8672	4.6945	-0.7958	-0.0093	-0.6038	0.0455
1.33	-9.2511	-0.2364	2.5715	-0.0369	-0.0028	-0.0476	34.0407	3.9591	4.6976	-0.7958	-0.0093	-0.6039	0.0454
1.34	-9.3298	-0.2449	2.5673	-0.0252	-0.0007	-0.0518	34.0040	3.9208	4.7152	-0.7957	-0.0092	-0.6039	0.0454
1.35	-9.2872	-0.2673	2.5137	-0.0260	-0.0244	-0.0511	34.2510	4.0479	4.5520	-0.7957	-0.0092	-0.6039	0.0454
1.36	-9.1609	-0.2868	2.6394	-0.0313	-0.0384	-0.0532	34.2052	4.0125	4.7076	-0.7958	-0.0091	-0.6038	0.0454
1.37	-9.2153	-0.3166	2.5727	-0.0183	-0.0005	-0.0590	33.8072	4.0175	4.5979	-0.7957	-0.0091	-0.6038	0.0454
1.38	-9.2619	-0.2959	2.5638	-0.0179	-0.0159	-0.0470	33.9739	4.0324	4.7311	-0.7958	-0.0091	-0.6039	0.0455
1.39	-9.2134	-0.2557	2.6325	-0.0149	-0.0280	-0.0505	34.1196	3.9857	4.6352	-0.7958	-0.0091	-0.6037	0.0455
1.4	-9.2034	-0.2410	2.6264	-0.0169	-0.0226	-0.0482	34.0506	3.8982	4.4016	-0.7959	-0.0092	-0.6037	0.0455
1.41	-9.2149	-0.2412	2.6077	-0.0153	-0.0120	-0.0482	34.1402	4.0245	4.5006	-0.7958	-0.0092	-0.6037	0.0455
1.42	-9.1997	-0.2420	2.6064	-0.0223	-0.0211	-0.0459	33.9754	4.1446	4.6779	-0.7959	-0.0092	-0.6037	0.0455
1.43	-9.1896	-0.2459	2.6324	-0.0240	-0.0213	-0.0449	34.0324	4.2052	4.8067	-0.7959	-0.0092	-0.6036	0.0455
1.44	-9.1937	-0.2346	2.6097	-0.0286	-0.0221	-0.0411	34.1919	3.9201	4.4996	-0.7959	-0.0092	-0.6036	0.0454
1.45	-9.1770	-0.2521	2.6054	-0.0330	-0.0183	-0.0397	33.9854	3.8541	4.6056	-0.7960	-0.0092	-0.6036	0.0454
1.46	-9.1756	-0.2659	2.6135	-0.0334	-0.0049	-0.0373	34.2233	3.8081	4.7969	-0.7959	-0.0091	-0.6036	0.0453
1.47	-9.2048	-0.2686	2.6033	-0.0208	-0.0027	-0.0394	33.9486	3.7414	4.6953	-0.7959	-0.0092	-0.6037	0.0452
1.48	-9.2179	-0.2841	2.6019	-0.0184	-0.0122	-0.0380	34.0395	3.7618	4.4684	-0.7958	-0.0092	-0.6036	0.0452
1.49	-9.2247	-0.2844	2.6010	-0.0184	-0.0056	-0.0366	34.0220	3.6570	4.7870	-0.7959	-0.0092	-0.6037	0.0452
1.5	-9.2254	-0.2724	2.5936	-0.0140	-0.0068	-0.0364	33.9325	3.9756	4.7737	-0.7959	-0.0093	-0.6037	0.0451
1.51	-9.2057	-0.2598	2.6004	-0.0166	-0.0203	-0.0431	33.9367	3.8332	4.5775	-0.7959	-0.0093	-0.6037	0.0451
1.52	-9.2185	-0.2624	2.6088	-0.0159	-0.0178	-0.0423	34.1498	3.8641	4.7428	-0.7959	-0.0094	-0.6037	0.0451
1.53	-9.2278	-0.2704	2.5911	-0.0093	-0.0235	-0.0389	34.1015	3.8059	4.6467	-0.7959	-0.0095	-0.6036	0.0451
1.54	-9.2160	-0.2509	2.6186	0.0056	-0.0217	-0.0416	34.0090	3.9618	4.6283	-0.7960	-0.0096	-0.6036	0.0452
1.55	-9.2338	-0.2352	2.6169	0.0009	-0.0072	-0.0409	34.0643	4.0670	4.4830	-0.7959	-0.0097	-0.6036	0.0452
1.56	-9.2463	-0.2201	2.5978	-0.0025	-0.0139	-0.0380	34.0096	3.7777	4.6874	-0.7960	-0.0098	-0.6036	0.0452
1.57	-9.2113	-0.2044	2.6115	-0.0090	-0.0174	-0.0360	34.0997	3.9139	4.6097	-0.7959	-0.0099	-0.6036	0.0452
1.58	-9.1986	-0.1999	2.6282	-0.0088	-0.0194	-0.0369	34.1070	3.9363	4.5322	-0.7960	-0.0100	-0.6036	0.0452
1.59	-9.2236	-0.1959	2.6079	-0.0012	-0.0075	-0.0360	33.8124	3.9288	4.7462	-0.7959	-0.0101	-0.6035	0.0452
1.6	-9.2186	-0.1983	2.6202	-0.0102	-0.0190	-0.0370	34.0227	4.0481	4.5510	-0.7960	-0.0102	-0.6036	0.0452
1.61	-9.1982	-0.1842	2.6282	-0.0161	-0.0242	-0.0397	33.8344	3.9918	4.6671	-0.7960	-0.0102	-0.6035	0.0452
1.62	-9.1895	-0.1764	2.6214	-0.0170	-0.0215	-0.0395	34.0682	4.1029	4.7930	-0.7960	-0.0102	-0.6034	0.0452
1.63	-9.1936	-0.1924	2.6268	-0.0163	-0.0199	-0.0375	34.4946	4.2164	4.7836	-0.7961	-0.0103	-0.6035	0.0451
1.64	-9.2006	-0.2080	2.6061	-0.0171	-0.0158	-0.0401	34.4453	4.1894	4.8104	-0.7961	-0.0103	-0.6034	0.0451
1.65	-9.1696	-0.2078	2.6206	-0.0170	-0.0272	-0.0409	34.3244	3.9824	4.7891	-0.7962	-0.0104	-0.6034	0.0451
1.66	-9.1540	-0.2185	2.6405	-0.0168	-0.0196	-0.0407	34.1773	3.7865	4.4980	-0.7961	-0.0104	-0.6033	0.0451
1.67	-9.1620	-0.2339	2.6271	-0.0181	-0.0100	-0.0426	34.0321	3.8981	4.8467	-0.7962	-0.0104	-0.6034	0.0451
1.68	-9.1615	-0.2319	2.6280	-0.0161	-0.0062	-0.0393	33.8067	4.0379	4.7859	-0.7961	-0.0105	-0.6034	0.0451
1.69	-9.1329	-0.2221	2.6248	-0.0150	-0.0020	-0.0374	33.6897	3.7991	4.7319	-0.7961	-0.0105	-0.6034	0.0450
1.7	-9.1160	-0.2104	2.6464	-0.0164	0.0044	-0.0413	33.9630	3.7183	4.6766	-0.7961	-0.0106	-0.6035	0.0450
1.71	-9.1476	-0.2063	2.6205	-0.0158	0.0160	-0.0369	34.1599	3.6661	4.6245	-0.7959	-0.0106	-0.6036	0.0450
1.72	-9.1699	-0.2212	2.6082	-0.0159	0.0189	-0.0390	33.9717	3.8826	4.5345	-0.7959	-0.0107	-0.6037	0.0450
1.73	-9.1626	-0.2370	2.6213	-0.0154	0.0167	-0.0363	33.8168	4.1144	4.6532	-0.7957	-0.0108	-0.6038	0.0449
1.74	-9.1819	-0.2369	2.5999	-0.0126	0.0256	-0.0412	33.7249	3.9156	4.6669	-0.7957	-0.0108	-0.6040	0.0449
1.75	-9.2015	-0.2467	2.5802	-0.0004	0.0282	-0.0442	33.9337	4.0412	4.6146	-0.7955	-0.0109	-0.6041	0.0450
1.76	-9.1716	-0.2397	2.5736	-0.0023	0.0182	-0.0431	33.8414	4.0764	4.5066	-0.7955	-0.0110	-0.6043	0.0450
1.77	-9.1688	-0.2207	2.5981	-0.0006	0.0215	-0.0413	33.8342	3.9662	4.7947	-0.7953	-0.0111	-0.6044	0.0450
1.78	-9.2377	-0.2143	2.5743	0.0073	0.0325	-0.0361	33.9373	3.9704	4.7015	-0.7952	-0.0113	-0.6046	0.0451
1.79	-9.2651	-0.1965	2.5529	0.0006	0.0239	-0.0388	33.9319	3.7925	4.8480	-0.7951	-0.0114	-0.6047	0.0451
1.8	-9.2309	-0.1911	2.5943	0.0038	0.0064	-0.0414	33.8335	3.8618	4.7550	-0.7950	-0.0115	-0.6047	0.0451
1.81	-9.2305	-0.1762	2.5784	0.0049	0.0234	-0.0353	33.7368	4.1222	4.6415	-0.7950	-0.0117	-0.6050	0.0452
1.82	-9.2463	-0.1584	2.5451	-0.0087	0.0265	-0.0380	33.8777	3.6874	4.8007	-0.7948	-0.0118	-0.6051	0.0452
1.83	-9.2422	-0.1601	2.5314	-0.0132	0.0207	-0.0350	34.0242	3.8742	4.9496	-0.7948	-0.0119	-0.6053	0.0451
1.84	-9.2428	-0.1748	2.5374	-0.0173	0.0176	-0.0366	33.8983	3.8045	4.8245	-0.7946	-0.0119	-0.6053	0.0451
1.85	-9.2515	-0.1983	2.5442	-0.0150	0.0160	-0.0350	34.0743	3.6940	4.7606	-0.7945	-0.0120	-0.6054	0.0451
1.86	-9.2967	-0.1957	2.5793	-0.0145	0.0138	-0.0360	33.8695	3.6976	4.6846	-0.7944	-0.0121	-0.6056	0.0450
1.87	-9.3253	-0.1965	2.5522	-0.0130	0.0105	-0.0363	33.8413	3.8152	4.7178	-0.7943	-0.0121	-0.6056	0.0450
1.88	-9.2765	-0.1922	2.5493	-0.0159	-0.0088	-0.0361	33.5924	3.5754	4.8756	-0.7944	-0.0122	-0.6057	0.0450
1.89	-9.2066	-0.2186	2.5593	-0.0191	-0.0067	-0.0375	33.9022	3.6990	4.8377	-0.7943	-0.0122	-0.6057	0.0449
1.9	-9.1778	-0.2314	2.5431	-0.0054	-0.0001	-0.0310	33.7854	3.8831	4.8296	-0.7943	-0.0123	-0.6058	0.0449
1.91	-9.1683	-0.1980	2.5516	0.0080	0.0012	-0.0331	33.8067	3.9872	4.9373	-0.7942	-0.0125	-0.6057	0.0449
1.92	-9.1608	-0.1581	2.5350	0.0045	0.0092	-0.0344	34.0566	3.9492	4.9205	-0.7942	-0.0127	-0.6059	0.0450
1.93	-9.1475	-0.1393	2.5345	0.0074	0.0163	-0.0352	33.6572	3.8897	4.7913	-0.7941	-0.0128	-0.6060	0.0450
1.94	-9.1555	-0.1345	2.5112	0.0031	0.0281	-0.0361	33.6404	4.0969	4.9342	-0.7940	-0.0130	-0.6061	0.0450
1.95	-9.1887	-0.1301	2.4836	0.0061	0.0334	-0.0416	33.7672	3.9513	4.9260	-0.7939	-0.0131	-0.6063	0.0451
1.96	-9.2082	-0.1183	2.4649	0.0073	0.0332	-0.0454	33.8425	3.8571	4.9421	-0.7937	-0.0132	-0.6065	0.0451
1.97	-9.2346	-0.0913	2.4743	0.0087	0.0364	-0.0448	33.8437	3.7265	4.9158	-0.7936	-0.0134	-0.6067	0.0452
1.98	-9.2702	-0.0766	2.4402	0.0061	0.0418	-0.0500	33.7333	3.6859	5.0433	-0.7933	-0.0135	-0.6068	0.0453
1.99	-9.3005	-0.0746	2.4355	-0.0031	0.0422	-0.0504	33.7557	3.9580	4.8952	-0.7933	-0.0136	-0.6071	0.0453
2	-9.3218	-0.0732	2.4248	-0.0140	0.0294	-0.0559	33.8681	3.9493	4.8181	-0.7931	-0.0136	-0.6073	0.0454
2.01	-9.3242	-0.0643	2.4215	-0.0168	0.0161	-0.0474	33.7960	3.7949	4.8578	-0.7930	-0.0136	-0.6074	0.0454
2.02	-9.3335	-0.0727	2.4376	-0.0237	0.0192	-0.0511	33.9482	3.7991	4.8232	-0.7929	-0.0136	-0.6075	0.0454
2.03	-9.3694	-0.0815	2.3998	-0.0378	0.0163	-0.0472	34.1406	3.6878	5.0142	-0.7928	-0.0135	-0.6076	0.0454
2.04	-9.3585	-0.0967	2.3938	-0.0400	0.0032	-0.0477	34.0469	3.7385	5.1998	-0.7928	-0.0135	-0.6077	0.0453
2.05	-9.3505	-0.1261	2.4250	-0.0447	-0.0013	-0.0473	33.9070	3.6751	4.9107	-0.7927	-0.0134	-0.6077	0.0452
2.06	-9.3805	-0.1633	2.3781	-0.0461	-0.0000	-0.0482	33.8345	3.9627	4.9588	-0.7927	-0.0133	-0.6078	0.0451
2.07	-9.3727	-0.1822	2.3779	-0.0479	-0.0152	-0.0488	33.8090	3.9324	4.8712	-0.7927	-0.0132	-0.6078	0.0451
2.08	-9.3315	-0.1876	2.3847	-0.0444	-0.0220	-0.0417	33.9173	3.8755	4.8701	-0.7928	-0.0131	-0.6078	0.0450
2.09	-9.3137	-0.1516	2.4197	-0.0430	-0.0276	-0.0387	33.9154	3.8866	5.1551	-0.7927	-0.0130	-0.6077	0.0449
2.1	-9.3939	-0.1379	2.4254	-0.0427	-0.0270	-0.0400	33.8296	3.9147	5.0983	-0.7928	-0.0130	-0.6077	0.0448
2.11	-9.3761	-0.1355	2.3910	-0.0428	-0.0492	-0.0549	33.9700	3.9946	5.1312	-0.7929	-0.0129	-0.6076	0.0447
2.12	-9.2464	-0.1558	2.4888	-0.0417	-0.0580	-0.0581	33.8687	4.0256	5.0891	-0.7930	-0.0128	-0.6074	0.0447
2.13	-9.2450	-0.2045	2.4599	-0.0417	-0.0378	-0.0566	34.1765	4.2106	5.2452	-0.7932	-0.0126	-0.6073	0.0447
2.14	-9.2658	-0.2157	2.4573	-0.0427	-0.0460	-0.0512	34.1558	4.0784	5.1426	-0.7932	-0.0125	-0.6072	0.0446
2.15	-9.2268	-0.1840	2.5082	-0.0418	-0.0519	-0.0405	34.0183	3.8849	4.9875	-0.7934	-0.0125	-0.6071	0.0445
2.16	-9.2226	-0.1295	2.5397	-0.0417	-0.0448	-0.0423	33.7922	4.0583	5.0642	-0.7934	-0.0124	-0.6068	0.0444
2.17	-9.2317	-0.1346	2.5207	-0.0433	-0.0424	-0.0449	33.7336	3.8574	5.0701	-0.7936	-0.0123	-0.6068	0.0444
2.18	-9.2018	-0.1566	2.5396	-0.0480	-0.0385	-0.0421	33.9648	3.8860	4.8909	-0.7936	-0.0122	-0.6067	0.0443
2.19	-9.1686	-0.1794	2.5346	-0.0507	-0.0392	-0.0443	33.9451	3.9891	4.9500	-0.7937	-0.0121	-0.6066	0.0442
2.2	-9.1781	-0.1912	2.5411	-0.0430	-0.0386	-0.0427	33.9535	3.7057	5.0152	-0.7938	-0.0120	-0.6065	0.0441
2.21	-9.1883	-0.1778	2.5425	-0.0420	-0.0340	-0.0450	33.9534	3.8291	5.0712	-0.7938	-0.0120	-0.6064	0.0440
2.22	-9.2130	-0.1753	2.5615	-0.0459	-0.0294	-0.0487	33.9399	3.8139	4.8866	-0.7939	-0.0118	-0.6064	0.0439
2.23	-9.2526	-0.2008	2.5437	-0.0421	-0.0222	-0.0486	34.0271	3.6549	4.8957	-0.7939	-0.0118	-0.6063	0.0439
2.24	-9.2530	-0.2034	2.5302	-0.0419	-0.0346	-0.0503	34.1634	3.6832	4.8946	-0.7940	-0.0117	-0.6063	0.0438
2.25	-9.2300	-0.1953	2.5584	-0.0426	-0.0383	-0.0460	34.0847	3.8342	4.7152	-0.7941	-0.0116	-0.6061	0.0437
2.26	-9.2230	-0.2158	2.5413	-0.0407	-0.0313	-0.0409	33.9597	3.8494	4.7509	-0.7941	-0.0115	-0.6061	0.0437
2.27	-9.1978	-0.2255	2.5303	-0.0426	-0.0344	-0.0373	33.9344	3.8610	4.9342	-0.7942	-0.0115	-0.6060	0.0435
2.28	-9.1755	-0.2204	2.5541	-0.0416	-0.0321	-0.0431	33.9803	3.8203	4.9618	-0.7943	-0.0114	-0.6059	0.0435
2.29	-9.2181	-0.2241	2.5425	-0.0398	-0.0266	-0.0348	33.8783	3.7383	4.8548	-0.7943	-0.0114	-0.6059	0.0434
2.3	-9.2417	-0.2317	2.5281	-0.0310	-0.0300	-0.0367	33.8537	3.7805	4.9767	-0.7943	-0.0113	-0.6058	0.0433
2.31	-9.2291	-0.2202	2.5585	-0.0185	-0.0300	-0.0413	33.9547	3.6502	5.1125	-0.7945	-0.0114	-0.6058	0.0433
2.32	-9.2496	-0.2008	2.5476	-0.0242	-0.0180	-0.0386	33.8317	3.8383	5.0222	-0.7944	-0.0114	-0.6057	0.0432
2.33	-9.2652	-0.1831	2.5343	-0.0179	-0.0318	-0.0364	33.8773	3.6161	4.9399	-0.7945	-0.0114	-0.6057	0.0432
2.34	-9.2551	-0.1604	2.5500	-0.0163	-0.0312	-0.0392	33.8463	3.9824	4.6525	-0.7945	-0.0115	-0.6055	0.0431
2.35	-9.2410	-0.1473	2.5518	-0.0161	-0.0358	-0.0399	34.1119	3.9966	4.7728	-0.7946	-0.0115	-0.6055	0.0431
2.36	-9.2375	-0.1249	2.5633	-0.0174	-0.0327	-0.0463	33.7642	3.7708	4.9061	-0.7947	-0.0115	-0.6054	0.0431
2.37	-9.2535	-0.0968	2.5684	-0.0189	-0.0306	-0.0477	33.8622	3.9758	4.6408	-0.7947	-0.0115	-0.6053	0.0431
2.38	-9.2497	-0.0804	2.5549	-0.0205	-0.0391	-0.0396	33.8472	3.8079	4.8623	-0.7949	-0.0116	-0.6053	0.0431
2.39	-9.1998	-0.0842	2.5887	-0.0240	-0.0462	-0.0439	33.9224	3.7558	4.7132	-0.7949	-0.0115	-0.6051	0.0431
2.4	-9.1832	-0.0897	2.5913	-0.0315	-0.0328	-0.0472	34.1193	3.7504	4.7776	-0.7950	-0.0115	-0.6050	0.0431
2.41	-9.1847	-0.1020	2.5820	-0.0429	-0.0341	-0.0513	33.8831	3.8630	4.8046	-0.7950	-0.0114	-0.6049	0.0430
2.42	-9.1798	-0.1194	2.6007	-0.0402	-0.0387	-0.0413	34.1433	3.6111	4.6984	-0.7951	-0.0113	-0.6049	0.0429
2.43	-9.1751	-0.1354	2.6121	-0.0467	-0.0252	-0.0449	34.0181	3.6015	5.0432	-0.7951	-0.0113	-0.6048	0.0428
2.44	-9.1767	-0.1499	2.6215	-0.0468	-0.0234	-0.0515	33.9181	3.7946	4.8731	-0.7952	-0.0111	-0.6047	0.0428
2.45	-9.1907	-0.1682	2.6117	-0.0505	-0.0226	-0.0473	34.0538	3.7236	4.8261	-0.7952	-0.0110	-0.6047	0.0427
2.46	-9.1695	-0.1809	2.6130	-0.0571	-0.0242	-0.0495	33.9257	3.8323	4.8582	-0.7952	-0.0109	-0.6047	0.0426
2.47	-9.1485	-0.1894	2.6147	-0.0498	-0.0180	-0.0388	33.9455	3.7863	4.5952	-0.7953	-0.0108	-0.6047	0.0425
2.48	-9.1560	-0.1598	2.6182	-0.0612	-0.0167	-0.0389	34.0465	3.7710	5.0289	-0.7952	-0.0107	-0.6046	0.0423
2.49	-9.1865	-0.1375	2.5842	-0.0561	-0.0006	-0.0374	33.9115	3.6190	4.9553	-0.7953	-0.0106	-0.6047	0.0421
2.5	-9.1797	-0.1525	2.5645	-0.0601	-0.0107	-0.0367	33.8687	3.8083	4.8688	-0.7952	-0.0104	-0.6047	0.0420
2.51	-9.1569	-0.1674	2.5950	-0.0638	-0.0136	-0.0375	34.0556	4.0272	4.9075	-0.7953	-0.0103	-0.6048	0.0418
2.52	-9.1730	-0.1812	2.5720	-0.0689	0.0062	-0.0277	34.1187	3.6940	4.7776	-0.7952	-0.0102	-0.6048	0.0416
2.53	-9.1976	-0.1792	2.5459	-0.0654	0.0091	-0.0335	34.1476	3.8284	5.0804	-0.7951	-0.0100	-0.6049	0.0414
2.54	-9.2114	-0.1974	2.5474	-0.0623	0.0140	-0.0372	33.8831	3.8400	4.8218	-0.7951	-0.0099	-0.6050	0.0412
2.55	-9.2274	-0.2105	2.5417	-0.0428	0.0121	-0.0365	33.8535	3.9299	4.7853	-0.7949	-0.0099	-0.6051	0.0411
2.56	-9.2422	-0.2273	2.5438	-0.0443	0.0113	-0.0365	33.9544	3.9494	4.8918	-0.7950	-0.0098	-0.6053	0.0410
2.57	-9.2493	-0.2428	2.5362	-0.0357	0.0098	-0.0417	33.9960	3.6168	4.7717	-0.7949	-0.0098	-0.6053	0.0409
2.58	-9.2788	-0.2276	2.5388	-0.0225	0.0153	-0.0418	34.0136	3.5828	4.8176	-0.7948	-0.0098	-0.6055	0.0409
2.59	-9.2942	-0.2123	2.4996	-0.0198	0.0115	-0.0467	33.8084	3.5803	4.7995	-0.7947	-0.0098	-0.6055	0.0409
2.6	-9.2450	-0.2024	2.5145	-0.0178	-0.0036	-0.0536	34.0265	3.4881	4.7963	-0.7947	-0.0098	-0.6056	0.0409
2.61	-9.2209	-0.2037	2.5553	-0.0183	-0.0004	-0.0616	33.8232	3.6688	4.6537	-0.7946	-0.0098	-0.6056	0.0409
2.62	-9.2876	-0.1987	2.5347	-0.0165	0.0070	-0.0573	34.0772	3.6803	4.8193	-0.7945	-0.0098	-0.6057	0.0410
2.63	-9.3373	-0.2013	2.5215	-0.0158	-0.0059	-0.0540	34.4764	3.6654	4.8836	-0.7946	-0.0098	-0.6058	0.0410
2.64	-9.2762	-0.2062	2.5551	-0.0157	-0.0237	-0.0526	34.1848	3.7172	4.7962	-0.7946	-0.0098	-0.6057	0.0411
2.65	-9.2381	-0.2197	2.5663	-0.0138	-0.0246	-0.0445	34.0640	4.1156	4.9331	-0.7946	-0.0098	-0.6057	0.0411
2.66	-9.2222	-0.2381	2.5329	-0.0143	-0.0235	-0.0408	33.7410	3.7037	5.0202	-0.7946	-0.0099	-0.6056	0.0411
2.67	-9.1644	-0.2222	2.5566	-0.0121	-0.0256	-0.0359	33.8654	3.8179	4.9964	-0.7947	-0.0099	-0.6056	0.0411
2.68	-9.1210	-0.1645	2.5817	-0.0156	-0.0164	-0.0308	33.9380	3.9912	5.0901	-0.7947	-0.0100	-0.6055	0.0410
2.69	-9.1357	-0.1388	2.5582	-0.0163	0.0059	-0.0338	33.7408	3.9423	5.0575	-0.7946	-0.0101	-0.6056	0.0410
2.7	-9.1371	-0.1167	2.5360	-0.0174	0.0081	-0.0361	33.6656	3.8519	4.7990	-0.7946	-0.0101	-0.6057	0.0409
2.71	-9.1389	-0.1313	2.5463	-0.0230	0.0160	-0.0372	33.8118	3.7414	4.9786	-0.7945	-0.0102	-0.6058	0.0409
2.72	-9.1647	-0.1441	2.5082	-0.0153	0.0285	-0.0387	33.8415	3.5935	4.8927	-0.7944	-0.0102	-0.6060	0.0408
2.73	-9.1732	-0.1203	2.5089	-0.0173	0.0260	-0.0482	33.5166	3.6655	5.0359	-0.7942	-0.0103	-0.6061	0.0408
2.74	-9.2016	-0.1068	2.5138	-0.0144	0.0315	-0.0466	33.8593	4.0212	5.1171	-0.7942	-0.0103	-0.6063	0.0409
2.75	-9.2496	-0.0974	2.4892	-0.0156	0.0410	-0.0542	33.9255	3.8796	4.9374	-0.7940	-0.0103	-0.6065	0.0409
2.76	-9.2646	-0.0969	2.4740	-0.0160	0.0313	-0.0625	33.7877	3.5775	4.9712	-0.7938	-0.0103	-0.6067	0.0410
2.77	-9.2579	-0.1000	2.4824	-0.0217	0.0248	-0.0661	33.9841	3.6256	5.1838	-0.7937	-0.0103	-0.6068	0.0410
2.78	-9.2670	-0.0947	2.4590	-0.0215	0.0226	-0.0681	33.9982	3.7901	5.0129	-0.7936	-0.0102	-0.6070	0.0411
2.79	-9.2640	-0.1032	2.4585	-0.0310	0.0259	-0.0653	33.7069	3.6277	4.9496	-0.7935	-0.0101	-0.6071	0.0411
2.8	-9.2737	-0.1132	2.4617	-0.0421	0.0286	-0.0672	33.9276	3.8005	5.1358	-0.7933	-0.0100	-0.6073	0.0412
2.81	-9.3089	-0.1152	2.4399	-0.0415	0.0256	-0.0667	34.0574	3.6633	5.0175	-0.7933	-0.0099	-0.6075	0.0412
2.82	-9.3105	-0.1442	2.4289	-0.0432	0.0234	-0.0607	33.9789	3.5533	4.9982	-0.7931	-0.0097	-0.6076	0.0411
2.83	-9.3139	-0.1639	2.4298	-0.0430	0.0261	-0.0566	33.8989	3.7278	5.1332	-0.7931	-0.0096	-0.6078	0.0411
2.84	-9.3252	-0.1788	2.3997	-0.0440	0.0225	-0.0530	34.0642	3.9748	4.9823	-0.7928	-0.0095	-0.6079	0.0411
2.85	-9.2813	-0.1778	2.4055	-0.0440	0.0084	-0.0484	33.8545	3.9532	4.9708	-0.7928	-0.0094	-0.6080	0.0410
2.86	-9.3286	-0.1728	2.4520	-0.0525	0.0142	-0.0506	33.7227	3.8970	5.1439	-0.7927	-0.0093	-0.6081	0.0409
2.87	-9.3946	-0.1936	2.3751	-0.0640	0.0146	-0.0656	33.7824	3.5318	5.1760	-0.7926	-0.0091	-0.6082	0.0408
2.88	-9.3274	-0.2205	2.4231	-0.0677	-0.0190	-0.0627	33.6356	3.8579	5.3243	-0.7927	-0.0089	-0.6083	0.0408
2.89	-9.2790	-0.2796	2.4506	-0.0674	-0.0082	-0.0634	33.8539	4.0756	4.9894	-0.7926	-0.0087	-0.6083	0.0407
2.9	-9.3193	-0.3056	2.4178	-0.0554	-0.0093	-0.0559	33.7836	3.8175	5.0774	-0.7927	-0.0085	-0.6083	0.0406
2.91	-9.3021	-0.3004	2.4320	-0.0410	-0.0257	-0.0450	33.7415	3.9777	5.2287	-0.7926	-0.0084	-0.6082	0.0405
2.92	-9.2720	-0.2637	2.4707	-0.0443	-0.0250	-0.0477	33.7706	3.9234	5.1612	-0.7927	-0.0083	-0.6082	0.0405
2.93	-9.2802	-0.2517	2.4537	-0.0407	-0.0280	-0.0483	33.5701	3.8327	5.1213	-0.7927	-0.0082	-0.6082	0.0404
2.94	-9.2644	-0.2580	2.4607	-0.0441	-0.0311	-0.0432	33.6349	3.9002	5.3302	-0.7928	-0.0082	-0.6081	0.0403
2.95	-9.2337	-0.2598	2.4729	-0.0374	-0.0255	-0.0440	33.9712	3.6475	5.0945	-0.7929	-0.0081	-0.6081	0.0402
2.96	-9.2323	-0.2590	2.4722	-0.0291	-0.0258	-0.0459	33.9278	3.4593	4.8378	-0.7929	-0.0081	-0.6080	0.0402
2.97	-9.2426	-0.2479	2.4692	-0.0267	-0.0208	-0.0507	33.9269	3.5878	4.9129	-0.7929	-0.0080	-0.6080	0.0402
2.98	-9.2363	-0.2336	2.4869	-0.0176	-0.0234	-0.0481	33.9519	3.6020	4.9359	-0.7929	-0.0080	-0.6079	0.0402
2.99	-9.2346	-0.2244	2.4812	-0.0210	-0.0222	-0.0441	33.8952	3.7011	4.9460	-0.7930	-0.0081	-0.6079	0.0402
3	-9.2273	-0.2132	2.4771	-0.0149	-0.0217	-0.0502	33.8729	3.6693	5.0503	-0.7930	-0.0081	-0.6079	0.0402
3.01	-9.2267	-0.2099	2.4887	-0.0173	-0.0177	-0.0467	33.9699	3.4688	5.0182	-0.7930	-0.0081	-0.6079	0.0402
3.02	-9.2367	-0.2028	2.4804	-0.0145	-0.0195	-0.0452	33.8241	3.7296	5.0240	-0.7930	-0.0081	-0.6078	0.0402
3.03	-9.2298	-0.1991	2.4794	-0.0170	-0.0284	-0.0359	33.9728	3.7558	5.0317	-0.7931	-0.0082	-0.6078	0.0402
3.04	-9.2295	-0.1894	2.4892	-0.0165	-0.0216	-0.0391	33.6927	3.8788	5.1986	-0.7931	-0.0082	-0.6077	0.0402
3.05	-9.2400	-0.1862	2.4786	-0.0149	-0.0140	-0.0409	33.6431	4.0062	5.1954	-0.7930	-0.0083	-0.6077	0.0402
3.06	-9.2556	-0.1885	2.4812	-0.0176	-0.0113	-0.0420	33.7986	3.7948	5.3137	-0.7931	-0.0083	-0.6077	0.0401
3.07	-9.2726	-0.1854	2.4729	-0.0177	-0.0153	-0.0426	33.8636	3.8145	5.2788	-0.7931	-0.0083	-0.6077	0.0401
3.08	-9.2799	-0.1831	2.4761	-0.0204	-0.0190	-0.0423	33.8048	3.8941	5.0882	-0.7932	-0.0084	-0.6077	0.0401
3.09	-9.2643	-0.1801	2.4817	-0.0151	-0.0192	-0.0409	33.6167	3.7562	5.1474	-0.7931	-0.0084	-0.6076	0.0401
3.1	-9.2586	-0.1773	2.4802	-0.0140	-0.0168	-0.0401	33.7416	3.7840	5.0441	-0.7932	-0.0084	-0.6076	0.0401
3.11	-9.2574	-0.1734	2.4767	-0.0155	-0.0218	-0.0436	33.6848	3.9443	5.0984	-0.7932	-0.0085	-0.6076	0.0401
3.12	-9.2473	-0.1697	2.4769	-0.0035	-0.0141	-0.0447	33.7813	3.9465	5.3330	-0.7931	-0.0086	-0.6076	0.0401
3.13	-9.2458	-0.1568	2.4926	-0.0007	-0.0177	-0.0420	34.2933	3.9721	5.1807	-0.7933	-0.0087	-0.6076	0.0402
3.14	-9.2571	-0.1416	2.4832	-0.0116	-0.0207	-0.0416	34.1558	3.9049	5.1930	-0.7932	-0.0087	-0.6075	0.0402
3.15	-9.2528	-0.1350	2.4830	-0.0110	-0.0263	-0.0419	34.1060	3.7317	4.9127	-0.7933	-0.0088	-0.6075	0.0402
3.16	-9.2277	-0.1413	2.4922	-0.0126	-0.0297	-0.0425	34.0098	3.8120	5.0744	-0.7933	-0.0088	-0.6074	0.0402
3.17	-9.2190	-0.1350	2.4972	-0.0212	-0.0190	-0.0464	33.8453	3.4010	5.2152	-0.7933	-0.0088	-0.6074	0.0402
3.18	-9.2394	-0.1265	2.4918	-0.0147	-0.0087	-0.0360	33.8470	3.9159	5.1227	-0.7933	-0.0089	-0.6074	0.0401
3.19	-9.2352	-0.1346	2.4770	-0.0215	-0.0227	-0.0469	33.8199	3.9350	4.9890	-0.7933	-0.0089	-0.6074	0.0401
3.2	-9.2120	-0.1289	2.5064	-0.0219	-0.0163	-0.0473	33.9502	3.7755	4.8839	-0.7934	-0.0089	-0.6074	0.0401
3.21	-9.2369	-0.1370	2.4974	-0.0276	-0.0033	-0.0414	33.8987	3.9238	4.9030	-0.7933	-0.0089	-0.6074	0.0401
3.22	-9.2515	-0.1519	2.4915	-0.0290	-0.0155	-0.0432	34.0042	3.8853	5.0922	-0.7934	-0.0089	-0.6074	0.0400
3.23	-9.2334	-0.1598	2.4970	-0.0316	-0.0145	-0.0479	33.9640	3.8149	5.0530	-0.7933	-0.0088	-0.6073	0.0400
3.24	-9.2406	-0.1748	2.4955	-0.0379	-0.0049	-0.0500	33.5509	3.7886	5.1281	-0.7934	-0.0088	-0.6074	0.0400
3.25	-9.2453	-0.1791	2.4892	-0.0371	0.0006	-0.0442	33.8027	3.8105	5.3007	-0.7933	-0.0087	-0.6075	0.0399
3.26	-9.2517	-0.1695	2.4884	-0.0390	-0.0006	-0.0473	33.7935	3.8054	5.2533	-0.7933	-0.0087	-0.6075	0.0398
3.27	-9.2625	-0.1844	2.4639	-0.0447	0.0015	-0.0490	33.6190	3.7149	5.2651	-0.7932	-0.0086	-0.6076	0.0398
3.28	-9.2467	-0.1904	2.4697	-0.0319	-0.0068	-0.0428	33.9372	3.7002	5.0207	-0.7932	-0.0085	-0.6076	0.0397
3.29	-9.2425	-0.1923	2.4615	-0.0311	0.0002	-0.0405	33.6776	3.7567	4.9410	-0.7932	-0.0085	-0.6077	0.0396
3.3	-9.2481	-0.1960	2.4531	-0.0407	-0.0034	-0.0426	33.6564	3.8993	5.1688	-0.7930	-0.0085	-0.6077	0.0396
3.31	-9.2552	-0.1936	2.4620	-0.0372	-0.0092	-0.0391	33.6430	3.8918	5.3726	-0.7931	-0.0084	-0.6078	0.0395
3.32	-9.2660	-0.2063	2.4364	-0.0258	-0.0040	-0.0378	33.7195	3.7192	5.0571	-0.7931	-0.0084	-0.6078	0.0394
3.33	-9.2437	-0.1954	2.4372	-0.0166	-0.0138	-0.0395	33.9592	3.5052	4.8714	-0.7931	-0.0085	-0.6079	0.0394
3.34	-9.2309	-0.1708	2.4543	-0.0177	-0.0140	-0.0446	33.8952	3.6457	5.0315	-0.7930	-0.0085	-0.6078	0.0394
3.35	-9.2871	-0.1698	2.4432	-0.0168	0.0022	-0.0457	33.9634	3.7242	5.0398	-0.7930	-0.0086	-0.6079	0.0394
3.36	-9.2912	-0.1759	2.4054	-0.0181	-0.0115	-0.0481	34.0180	3.5333	5.0436	-0.7930	-0.0086	-0.6079	0.0394
3.37	-9.2403	-0.1785	2.4553	-0.0180	-0.0251	-0.0501	33.7087	3.5907	5.0757	-0.7930	-0.0086	-0.6078	0.0394
3.38	-9.2776	-0.1654	2.4577	-0.0143	0.0030	-0.0519	33.8788	3.8607	5.2237	-0.7930	-0.0086	-0.6080	0.0395
3.39	-9.3233	-0.1561	2.3932	-0.0166	-0.0017	-0.0499	33.9290	3.8752	5.1968	-0.7929	-0.0086	-0.6080	0.0395
3.4	-9.2715	-0.1561	2.4368	-0.0181	-0.0281	-0.0559	33.9469	3.7181	5.0385	-0.7930	-0.0086	-0.6080	0.0395
3.41	-9.2447	-0.1809	2.4671	-0.0175	-0.0260	-0.0498	33.8176	3.6917	5.0918	-0.7929	-0.0086	-0.6078	0.0395
3.42	-9.3042	-0.1826	2.4519	-0.0169	-0.0132	-0.0486	33.7543	3.9736	5.0959	-0.7930	-0.0086	-0.6079	0.0396
3.43	-9.3421	-0.1840	2.4564	-0.0174	-0.0185	-0.0509	33.8699	3.7503	5.1708	-0.7930	-0.0086	-0.6079	0.0396
3.44	-9.3014	-0.1763	2.4567	-0.0152	-0.0275	-0.0444	33.8083	3.7593	4.9616	-0.7930	-0.0087	-0.6078	0.0396
3.45	-9.2530	-0.2045	2.4640	-0.0177	-0.0294	-0.0435	33.9542	3.9237	4.9937	-0.7931	-0.0087	-0.6078	0.0396
3.46	-9.2337	-0.2385	2.4404	-0.0167	-0.0262	-0.0368	33.7686	3.7388	5.1314	-0.7931	-0.0088	-0.6077	0.0395
3.47	-9.2069	-0.2187	2.4444	-0.0137	-0.0298	-0.0356	33.7415	3.9016	5.1886	-0.7932	-0.0088	-0.6077	0.0395
3.48	-9.1826	-0.1721	2.4677	-0.0085	-0.0248	-0.0345	33.7513	3.8038	5.1554	-0.7931	-0.0089	-0.6076	0.0395
3.49	-9.1907	-0.1430	2.4554	-0.0140	-0.0108	-0.0357	33.7404	3.7939	5.1871	-0.7932	-0.0090	-0.6077	0.0395
3.5	-9.1997	-0.1262	2.4440	-0.0023	-0.0062	-0.0396	33.6036	3.9770	5.1430	-0.7932	-0.0091	-0.6077	0.0395
3.51	-9.2124	-0.1284	2.4334	-0.0018	-0.0053	-0.0404	33.8088	3.9285	5.2156	-0.7932	-0.0092	-0.6077	0.0395
3.52	-9.2142	-0.1349	2.4250	0.0063	-0.0011	-0.0433	33.9578	3.6826	4.9366	-0.7931	-0.0093	-0.6077	0.0396
3.53	-9.2348	-0.1154	2.4220	-0.0029	0.0060	-0.0434	33.7647	3.8512	4.9303	-0.7930	-0.0094	-0.6078	0.0396
3.54	-9.2616	-0.0908	2.4025	0.0009	0.0089	-0.0501	33.9748	3.7228	5.1916	-0.7930	-0.0095	-0.6079	0.0397
3.55	-9.2752	-0.0777	2.4006	-0.0058	0.0022	-0.0576	34.0406	3.7707	5.1659	-0.7928	-0.0095	-0.6079	0.0398
3.56	-9.3008	-0.0762	2.4093	-0.0095	0.0056	-0.0579	33.8965	3.9508	5.2663	-0.7929	-0.0096	-0.6081	0.0398
3.57	-9.3240	-0.0788	2.3912	-0.0080	0.0082	-0.0634	33.8024	3.8016	5.2950	-0.7928	-0.0096	-0.6081	0.0399
3.58	-9.3178	-0.0814	2.4039	-0.0200	-0.0129	-0.0604	33.9242	3.8849	5.4047	-0.7928	-0.0096	-0.6082	0.0400
3.59	-9.3043	-0.1083	2.4101	-0.0261	-0.0131	-0.0545	33.9227	3.8793	5.1410	-0.7927	-0.0095	-0.6081	0.0400
3.6	-9.3148	-0.1156	2.3884	-0.0369	-0.0188	-0.0511	33.9425	3.8188	5.3076	-0.7928	-0.0095	-0.6082	0.0400
3.61	-9.3085	-0.1259	2.4047	-0.0419	-0.0236	-0.0555	33.8693	3.9008	5.3974	-0.7928	-0.0094	-0.6081	0.0400
3.62	-9.3098	-0.1521	2.4021	-0.0438	-0.0104	-0.0540	33.8582	3.9679	5.2312	-0.7927	-0.0093	-0.6081	0.0399
3.63	-9.3043	-0.1555	2.3822	-0.0436	-0.0178	-0.0515	34.2963	3.9792	5.3998	-0.7928	-0.0092	-0.6082	0.0399
3.64	-9.3009	-0.1598	2.4037	-0.0432	-0.0137	-0.0493	34.2183	3.8861	5.5729	-0.7928	-0.0091	-0.6081	0.0398
3.65	-9.2762	-0.1727	2.3709	-0.0417	-0.0139	-0.0520	33.9421	4.1565	5.3588	-0.7928	-0.0090	-0.6082	0.0397
3.66	-9.2833	-0.1581	2.4459	-0.0421	-0.0242	-0.0498	33.7165	3.9218	5.3964	-0.7927	-0.0089	-0.6081	0.0397
3.67	-9.3555	-0.1708	2.3818	-0.0431	-0.0181	-0.0596	33.7782	4.0419	5.2412	-0.7928	-0.0088	-0.6081	0.0397
3.68	-9.2914	-0.1766	2.3901	-0.0430	-0.0407	-0.0636	33.7754	3.8865	5.3529	-0.7929	-0.0086	-0.6080	0.0397
3.69	-9.2221	-0.2270	2.4670	-0.0424	-0.0384	-0.0624	33.8844	3.8011	5.1009	-0.7929	-0.0085	-0.6079	0.0397
3.7	-9.2917	-0.2618	2.4022	-0.0388	-0.0243	-0.0634	33.7604	3.8308	5.1263	-0.7930	-0.0084	-0.6079	0.0397
3.71	-9.2790	-0.2624	2.4161	-0.0250	-0.0448	-0.0589	33.8411	3.7009	5.1935	-0.7930	-0.0083	-0.6078	0.0397
3.72	-9.2365	-0.2295	2.4937	-0.0198	-0.0467	-0.0470	33.8539	3.5540	5.0720	-0.7932	-0.0083	-0.6077	0.0397
3.73	-9.2852	-0.1857	2.4672	-0.0163	-0.0251	-0.0551	34.0572	3.6509	5.1982	-0.7931	-0.0083	-0.6076	0.0397
3.74	-9.3002	-0.1711	2.4447	-0.0186	-0.0335	-0.0469	34.1426	3.7452	5.4613	-0.7933	-0.0084	-0.6076	0.0397
3.75	-9.2518	-0.1876	2.4880	-0.0281	-0.0414	-0.0500	33.8815	3.7768	5.0874	-0.7933	-0.0083	-0.6075	0.0397
3.76	-9.2579	-0.2043	2.4798	-0.0219	-0.0301	-0.0515	34.0827	3.8514	5.0453	-0.7934	-0.0083	-0.6074	0.0397
3.77	-9.2548	-0.2009	2.4690	-0.0210	-0.0304	-0.0470	34.0327	3.7315	5.2471	-0.7934	-0.0083	-0.6073	0.0397
3.78	-9.2406	-0.1879	2.4828	-0.0214	-0.0306	-0.0481	34.0832	3.7213	5.0476	-0.7934	-0.0083	-0.6073	0.0397
3.79	-9.2466	-0.1883	2.4737	-0.0211	-0.0316	-0.0482	33.9887	3.9986	5.1919	-0.7935	-0.0083	-0.6072	0.0397
3.8	-9.2420	-0.1898	2.4718	-0.0270	-0.0310	-0.0500	33.9569	3.9138	5.1983	-0.7935	-0.0083	-0.6071	0.0397
3.81	-9.2313	-0.1964	2.4790	-0.0271	-0.0311	-0.0490	33.9708	3.8420	5.2029	-0.7936	-0.0083	-0.6071	0.0397
3.82	-9.2330	-0.2057	2.4749	-0.0234	-0.0280	-0.0537	33.6664	3.7302	5.1969	-0.7936	-0.0082	-0.6070	0.0397
3.83	-9.2336	-0.2083	2.4652	-0.0188	-0.0332	-0.0490	33.7864	3.6632	5.2115	-0.7937	-0.0082	-0.6070	0.0397
3.84	-9.2344	-0.2115	2.4667	-0.0199	-0.0248	-0.0484	33.7849	3.8723	5.1855	-0.7937	-0.0082	-0.6069	0.0397
3.85	-9.2437	-0.2145	2.4672	-0.0179	-0.0260	-0.0492	33.6815	3.6729	5.2272	-0.7938	-0.0082	-0.6069	0.0398
3.86	-9.2598	-0.2055	2.4610	-0.0165	-0.0227	-0.0514	33.8836	3.8299	5.1363	-0.7938	-0.0083	-0.6069	0.0398
3.87	-9.2607	-0.2095	2.4652	-0.0179	-0.0237	-0.0474	33.8619	4.1120	5.0842	-0.7938	-0.0083	-0.6068	0.0398
3.88	-9.2628	-0.2147	2.4801	-0.0163	-0.0318	-0.0473	33.9963	3.9770	5.2124	-0.7939	-0.0083	-0.6068	0.0398
3.89	-9.2788	-0.2080	2.4603	-0.0166	-0.0287	-0.0425	34.0760	3.7510	5.0625	-0.7939	-0.0083	-0.6067	0.0398
3.9	-9.2839	-0.2066	2.4591	-0.0172	-0.0358	-0.0457	34.0398	3.6990	5.1925	-0.7940	-0.0084	-0.6067	0.0398
3.91	-9.2721	-0.1927	2.4753	-0.0153	-0.0352	-0.0475	34.0703	3.5222	5.2250	-0.7939	-0.0084	-0.6065	0.0398
3.92	-9.2703	-0.1842	2.4740	-0.0166	-0.0326	-0.0440	34.0220	3.6173	5.1791	-0.7941	-0.0084	-0.6065	0.0398
3.93	-9.2646	-0.1725	2.4918	-0.0207	-0.0338	-0.0492	33.7763	3.7826	5.0819	-0.7941	-0.0084	-0.6064	0.0398
3.94	-9.2693	-0.1635	2.4880	-0.0193	-0.0301	-0.0476	33.8036	3.6913	5.1434	-0.7941	-0.0084	-0.6063	0.0398
3.95	-9.2510	-0.1692	2.4877	-0.0161	-0.0356	-0.0482	33.6744	3.9590	4.8815	-0.7942	-0.0084	-0.6063	0.0398
3.96	-9.2271	-0.1739	2.5040	-0.0185	-0.0340	-0.0485	33.8681	3.7333	5.0874	-0.7943	-0.0084	-0.6062	0.0398
3.97	-9.2233	-0.1755	2.4958	-0.0180	-0.0289	-0.0455	34.0422	3.7893	4.9033	-0.7944	-0.0085	-0.6062	0.0399
3.98	-9.2034	-0.1786	2.5042	-0.0197	-0.0283	-0.0495	33.7458	3.9130	5.0270	-0.7943	-0.0085	-0.6060	0.0399
3.99	-9.1942	-0.1962	2.5209	-0.0219	-0.0246	-0.0482	33.8329	3.9307	5.0928	-0.7944	-0.0085	-0.6061	0.0399
4	-9.1942	-0.2034	2.5093	-0.0225	-0.0193	-0.0494	33.6983	3.6904	5.0161	-0.7944	-0.0085	-0.6060	0.0399
4.01	-9.1810	-0.2044	2.5102	-0.0345	-0.0208	-0.0535	33.7830	3.6765	5.2343	-0.7944	-0.0084	-0.6060	0.0398
4.02	-9.1766	-0.2105	2.5254	-0.0385	-0.0290	-0.0469	33.7683	3.9543	5.0903	-0.7944	-0.0083	-0.6059	0.0398
4.03	-9.1883	-0.2132	2.5095	-0.0289	-0.0070	-0.0445	33.7277	3.8877	5.0986	-0.7944	-0.0083	-0.6060	0.0397
4.04	-9.1902	-0.2132	2.5129	-0.0294	-0.0080	-0.0405	33.9615	3.7360	5.1596	-0.7944	-0.0083	-0.6060	0.0397
4.05	-9.2226	-0.2116	2.5073	-0.0233	-0.0002	-0.0444	33.6823	3.8055	5.2414	-0.7943	-0.0083	-0.6060	0.0397
4.06	-9.2392	-0.2144	2.4978	-0.0183	-0.0034	-0.0455	33.6855	3.9435	5.0422	-0.7944	-0.0083	-0.6062	0.0397
4.07	-9.2312	-0.2118	2.5120	-0.0212	-0.0125	-0.0413	33.7605	3.7227	5.2012	-0.7943	-0.0084	-0.6061	0.0396
4.08	-9.2442	-0.2109	2.4920	-0.0194	-0.0022	-0.0439	33.9973	3.5529	5.1293	-0.7944	-0.0084	-0.6062	0.0396
4.09	-9.2486	-0.2116	2.4843	-0.0155	-0.0024	-0.0392	33.9371	3.5743	5.1183	-0.7942	-0.0084	-0.6062	0.0396
4.1	-9.2519	-0.2095	2.4702	-0.0187	0.0007	-0.0400	34.1104	3.4233	5.2111	-0.7942	-0.0085	-0.6063	0.0396
4.11	-9.2578	-0.1896	2.4577	-0.0174	-0.0044	-0.0460	33.7676	3.5782	5.0705	-0.7942	-0.0085	-0.6063	0.0396
4.12	-9.2636	-0.1767	2.4581	-0.0158	-0.0000	-0.0495	33.9828	3.7519	5.1895	-0.7941	-0.0085	-0.6064	0.0396
4.13	-9.2779	-0.1766	2.4613	-0.0153	-0.0029	-0.0493	34.5212	3.8319	5.3386	-0.7942	-0.0086	-0.6065	0.0396
4.14	-9.2985	-0.1763	2.4546	-0.0192	-0.0106	-0.0472	34.3166	3.9859	5.3618	-0.7941	-0.0086	-0.6065	0.0396
4.15	-9.3017	-0.1837	2.4505	-0.0187	-0.0085	-0.0482	34.1565	4.1215	5.1427	-0.7941	-0.0086	-0.6065	0.0396
4.16	-9.2919	-0.1693	2.4496	-0.0191	-0.0163	-0.0417	33.8194	3.7194	5.0694	-0.7940	-0.0086	-0.6065	0.0396
4.17	-9.2988	-0.1531	2.4546	-0.0247	-0.0184	-0.0474	33.8105	3.9748	4.9952	-0.7941	-0.0086	-0.6065	0.0396
4.18	-9.3135	-0.1455	2.4526	-0.0238	-0.0141	-0.0541	33.9889	3.8952	5.1301	-0.7940	-0.0086	-0.6065	0.0396
4.19	-9.3159	-0.1495	2.4532	-0.0364	-0.0194	-0.0483	33.8088	3.7601	5.0478	-0.7940	-0.0085	-0.6065	0.0396
4.2	-9.3072	-0.1552	2.4648	-0.0399	-0.0245	-0.0494	33.8509	3.9313	5.2308	-0.7941	-0.0084	-0.6065	0.0395
4.21	-9.2981	-0.1653	2.4555	-0.0428	-0.0264	-0.0478	33.7995	3.8844	4.9669	-0.7941	-0.0083	-0.6064	0.0395
4.22	-9.2840	-0.1833	2.4544	-0.0434	-0.0266	-0.0459	33.7032	3.8726	5.1335	-0.7942	-0.0083	-0.6064	0.0394
4.23	-9.2552	-0.1928	2.4626	-0.0331	-0.0372	-0.0534	33.8419	3.6769	5.2055	-0.7941	-0.0082	-0.6063	0.0394
4.24	-9.2425	-0.1934	2.4837	-0.0352	-0.0367	-0.0488	33.9242	3.7757	5.0713	-0.7943	-0.0081	-0.6063	0.0394
4.25	-9.2628	-0.1986	2.4976	-0.0360	-0.0363	-0.0470	33.9349	3.6197	5.2418	-0.7943	-0.0081	-0.6061	0.0393
4.26	-9.2581	-0.2124	2.4831	-0.0367	-0.0386	-0.0518	33.8440	3.7775	5.0966	-0.7944	-0.0080	-0.6061	0.0393
4.27	-9.2168	-0.2258	2.5060	-0.0326	-0.0403	-0.0503	33.8238	3.9097	4.9769	-0.7945	-0.0079	-0.6060	0.0393
4.28	-9.2175	-0.2133	2.5107	-0.0272	-0.0234	-0.0480	33.8291	3.6723	5.1499	-0.7945	-0.0079	-0.6059	0.0392
4.29	-9.2780	-0.2162	2.4930	-0.0229	-0.0200	-0.0492	33.8601	3.7319	4.9864	-0.7945	-0.0079	-0.6059	0.0392
4.3	-9.2348	-0.2220	2.4671	-0.0304	-0.0453	-0.0513	34.0399	3.7859	5.0993	-0.7945	-0.0079	-0.6058	0.0392
4.31	-9.1561	-0.2239	2.5604	-0.0274	-0.0474	-0.0462	33.9764	3.9331	5.0613	-0.7947	-0.0078	-0.6057	0.0392
4.32	-9.2284	-0.2192	2.5436	-0.0202	-0.0137	-0.0411	33.9234	3.7225	5.0026	-0.7947	-0.0079	-0.6057	0.0392
4.33	-9.2877	-0.2089	2.4983	-0.0290	-0.0331	-0.0415	33.8576	3.9937	4.9071	-0.7948	-0.0078	-0.6057	0.0391
4.34	-9.2374	-0.2085	2.5534	-0.0275	-0.0466	-0.0357	33.8080	3.8897	5.0001	-0.7948	-0.0078	-0.6055	0.0391
4.35	-9.1996	-0.2349	2.5359	-0.0239	-0.0357	-0.0387	34.0859	3.7921	4.9721	-0.7949	-0.0079	-0.6054	0.0390
4.36	-9.1943	-0.2513	2.5234	-0.0223	-0.0282	-0.0328	33.7257	3.8150	4.9027	-0.7949	-0.0079	-0.6054	0.0390
4.37	-9.1778	-0.2367	2.5289	-0.0181	-0.0244	-0.0248	33.8439	4.1699	5.1322	-0.7949	-0.0080	-0.6053	0.0389
4.38	-9.1697	-0.1976	2.5263	-0.0174	-0.0254	-0.0225	33.8032	4.0598	4.9349	-0.7951	-0.0081	-0.6054	0.0388
4.39	-9.1705	-0.1467	2.5242	-0.0027	-0.0166	-0.0233	33.9133	3.8059	4.7836	-0.7950	-0.0082	-0.6053	0.0387
4.4	-9.1931	-0.1176	2.5127	0.0016	0.0028	-0.0316	33.7996	3.8138	5.0493	-0.7950	-0.0084	-0.6054	0.0388
4.41	-9.2103	-0.1169	2.4841	-0.0050	-0.0036	-0.0367	33.7059	3.8076	4.8492	-0.7949	-0.0085	-0.6054	0.0388
4.42	-9.1816	-0.1088	2.4908	0.0072	-0.0103	-0.0485	33.8679	3.6938	5.1042	-0.7949	-0.0086	-0.6054	0.0388
4.43	-9.1801	-0.1026	2.5135	0.0057	0.0025	-0.0478	33.9939	3.7637	4.9660	-0.7948	-0.0087	-0.6055	0.0389
4.44	-9.2244	-0.0885	2.4782	0.0101	0.0050	-0.0461	33.9478	3.8982	4.9458	-0.7948	-0.0088	-0.6056	0.0390
4.45	-9.2506	-0.0585	2.4825	0.0043	0.0077	-0.0611	33.9019	3.9069	5.1154	-0.7947	-0.0089	-0.6057	0.0391
4.46	-9.2640	-0.0533	2.4852	-0.0018	0.0097	-0.0639	33.9336	3.7449	4.9624	-0.7946	-0.0089	-0.6058	0.0392
4.47	-9.2703	-0.0598	2.4696	0.0009	0.0152	-0.0632	33.9091	3.7235	5.2275	-0.7946	-0.0090	-0.6059	0.0394
4.48	-9.2739	-0.0623	2.4617	-0.0153	0.0077	-0.0643	33.9284	3.6986	5.0684	-0.7944	-0.0090	-0.6059	0.0395
4.49	-9.2722	-0.0646	2.4595	-0.0166	0.0017	-0.0666	33.9072	3.9749	5.1073	-0.7944	-0.0089	-0.6061	0.0396
4.5	-9.2733	-0.0636	2.4643	-0.0195	0.0037	-0.0617	33.9479	3.7707	5.2169	-0.7943	-0.0089	-0.6061	0.0396
4.51	-9.2919	-0.0730	2.4528	-0.0375	0.0012	-0.0611	33.8326	3.7639	5.1093	-0.7943	-0.0088	-0.6062	0.0396
4.52	-9.3108	-0.0889	2.4472	-0.0424	-0.0019	-0.0597	33.8354	3.8444	4.9778	-0.7942	-0.0087	-0.6063	0.0396
4.53	-9.3114	-0.1152	2.4396	-0.0413	-0.0077	-0.0619	33.9316	3.6510	4.8881	-0.7942	-0.0086	-0.6063	0.0396
4.54	-9.3136	-0.1385	2.4593	-0.0486	-0.0131	-0.0560	33.7362	4.0390	5.1345	-0.7942	-0.0084	-0.6063	0.0396
4.55	-9.3182	-0.1706	2.4292	-0.0490	-0.0069	-0.0564	33.7484	4.0954	5.2710	-0.7941	-0.0083	-0.6063	0.0395
4.56	-9.2790	-0.1863	2.4458	-0.0500	-0.0236	-0.0576	33.7362	3.8669	5.2790	-0.7942	-0.0082	-0.6064	0.0395
4.57	-9.3256	-0.1956	2.4814	-0.0512	-0.0061	-0.0613	33.7620	3.8960	5.2449	-0.7941	-0.0080	-0.6064	0.0394
4.58	-9.3394	-0.2123	2.3933	-0.0453	-0.0126	-0.0673	33.9439	3.9525	5.0770	-0.7942	-0.0079	-0.6065	0.0394
4.59	-9.2471	-0.2344	2.4895	-0.0509	-0.0428	-0.0638	33.8232	4.0887	5.1619	-0.7942	-0.0077	-0.6063	0.0394
4.6	-9.2525	-0.2972	2.4676	-0.0464	-0.0136	-0.0636	33.7192	4.0774	5.3311	-0.7942	-0.0075	-0.6063	0.0394
4.61	-9.2667	-0.2973	2.4426	-0.0446	-0.0332	-0.0578	33.7767	4.0311	4.9392	-0.7942	-0.0074	-0.6063	0.0394
4.62	-9.2037	-0.2850	2.5077	-0.0414	-0.0440	-0.0481	33.9979	3.9407	4.9506	-0.7943	-0.0073	-0.6061	0.0393
4.63	-9.2385	-0.2536	2.5243	-0.0311	-0.0284	-0.0475	34.1308	4.1340	5.2148	-0.7944	-0.0073	-0.6062	0.0393
4.64	-9.2729	-0.2244	2.4853	-0.0302	-0.0307	-0.0434	34.0770	3.9887	5.1757	-0.7944	-0.0073	-0.6061	0.0392
4.65	-9.2217	-0.2325	2.5261	-0.0348	-0.0380	-0.0435	34.1241	3.7784	5.0184	-0.7945	-0.0072	-0.6060	0.0392
4.66	-9.1852	-0.2537	2.5372	-0.0367	-0.0296	-0.0441	33.8584	3.8113	4.7969	-0.7945	-0.0072	-0.6059	0.0391
4.67	-9.2219	-0.2622	2.5046	-0.0304	-0.0233	-0.0423	33.9513	3.6307	4.8488	-0.7946	-0.0071	-0.6059	0.0390
4.68	-9.2221	-0.2630	2.5028	-0.0190	-0.0245	-0.0473	34.0739	3.6883	5.0525	-0.7946	-0.0072	-0.6059	0.0390
4.69	-9.1991	-0.2359	2.5415	-0.0213	-0.0219	-0.0438	34.0356	3.7108	5.1608	-0.7946	-0.0072	-0.6058	0.0390
4.7	-9.2231	-0.2299	2.5199	-0.0208	-0.0118	-0.0471	33.8531	4.0928	4.9785	-0.7946	-0.0072	-0.6059	0.0390
4.71	-9.2132	-0.2362	2.5038	-0.0169	-0.0167	-0.0486	33.8619	3.9631	4.9076	-0.7946	-0.0072	-0.6059	0.0390
4.72	-9.1946	-0.2517	2.5432	-0.0201	-0.0284	-0.0402	33.8526	3.7363	4.9545	-0.7946	-0.0072	-0.6058	0.0390
4.73	-9.2170	-0.2635	2.5180	-0.0158	-0.0154	-0.0424	33.9480	3.8530	4.8262	-0.7945	-0.0073	-0.6058	0.0390
4.74	-9.2059	-0.2609	2.5083	-0.0166	-0.0151	-0.0430	33.7458	3.9552	4.8428	-0.7946	-0.0073	-0.6058	0.0390
4.75	-9.1790	-0.2448	2.5309	-0.0064	-0.0105	-0.0439	33.7824	4.2494	4.8013	-0.7946	-0.0074	-0.6058	0.0390
4.76	-9.2190	-0.2371	2.5182	-0.0101	0.0054	-0.0419	33.7654	4.0020	4.9177	-0.7946	-0.0074	-0.6059	0.0390
4.77	-9.2436	-0.2286	2.4932	-0.0066	-0.0004	-0.0381	33.8616	3.7035	4.9292	-0.7945	-0.0075	-0.6060	0.0390
4.78	-9.2156	-0.2222	2.5151	-0.0042	-0.0051	-0.0418	33.7477	3.9394	4.9397	-0.7944	-0.0076	-0.6060	0.0391
4.79	-9.2436	-0.2174	2.5213	0.0007	0.0063	-0.0428	33.8041	3.9057	4.8836	-0.7944	-0.0077	-0.6061	0.0391
4.8	-9.2706	-0.2050	2.4860	0.0066	0.0051	-0.0404	34.0075	4.0602	5.1167	-0.7943	-0.0079	-0.6061	0.0392
4.81	-9.2638	-0.1812	2.5003	0.0048	-0.0045	-0.0387	33.6671	3.8805	5.0959	-0.7943	-0.0080	-0.6063	0.0392
4.82	-9.2682	-0.1705	2.4989	0.0094	-0.0040	-0.0403	33.8026	3.7406	5.0022	-0.7942	-0.0081	-0.6063	0.0393
4.83	-9.2832	-0.1725	2.4790	0.0029	-0.0017	-0.0400	34.0656	3.7513	5.0172	-0.7943	-0.0083	-0.6064	0.0393
4.84	-9.2661	-0.1613	2.4836	0.0061	-0.0082	-0.0431	34.0506	3.8886	5.1250	-0.7941	-0.0084	-0.6063	0.0394
4.85	-9.2598	-0.1437	2.4931	0.0073	-0.0105	-0.0508	33.9838	3.6689	5.0914	-0.7942	-0.0085	-0.6064	0.0395
4.86	-9.2701	-0.1470	2.4844	0.0010	-0.0112	-0.0493	34.0091	3.7972	4.8012	-0.7941	-0.0086	-0.6064	0.0395
4.87	-9.2603	-0.1446	2.4749	0.0039	-0.0167	-0.0482	33.9785	3.8124	4.9278	-0.7941	-0.0087	-0.6064	0.0396
4.88	-9.2469	-0.1408	2.4936	0.0005	-0.0164	-0.0491	33.7509	3.5481	5.0383	-0.7942	-0.0088	-0.6064	0.0397
4.89	-9.2525	-0.1384	2.4901	-0.0130	-0.0172	-0.0473	34.0149	3.7229	5.0269	-0.7941	-0.0088	-0.6064	0.0397
4.9	-9.2525	-0.1428	2.4888	-0.0106	-0.0157	-0.0497	33.9173	3.6702	4.9847	-0.7942	-0.0089	-0.6064	0.0398
4.91	-9.2448	-0.1476	2.4985	-0.0170	-0.0159	-0.0475	33.9687	4.0751	4.7890	-0.7941	-0.0089	-0.6063	0.0398
4.92	-9.2401	-0.1653	2.4884	-0.0177	-0.0171	-0.0488	33.9402	3.9937	4.8826	-0.7941	-0.0089	-0.6064	0.0398
4.93	-9.2314	-0.1793	2.4943	-0.0157	-0.0122	-0.0554	33.9585	4.0877	5.0968	-0.7941	-0.0089	-0.6064	0.0398
4.94	-9.2260	-0.1918	2.4959	-0.0187	-0.0073	-0.0510	33.9548	4.1376	5.1266	-0.7941	-0.0089	-0.6064	0.0399
4.95	-9.2308	-0.1816	2.5012	-0.0204	-0.0064	-0.0506	33.8586	4.0119	5.0744	-0.7941	-0.0089	-0.6065	0.0399
4.96	-9.2325	-0.1882	2.5021	-0.0159	-0.0014	-0.0540	33.8521	4.0258	4.9064	-0.7940	-0.0089	-0.6065	0.0399
4.97	-9.2198	-0.1912	2.4972	-0.0182	-0.0058	-0.0487	33.6715	3.8307	5.0959	-0.7940	-0.0089	-0.6066	0.0399
4.98	-9.2141	-0.1978	2.5010	-0.0155	-0.0017	-0.0532	33.7594	3.9369	4.7995	-0.7939	-0.0089	-0.6066	0.0400
4.99	-9.2102	-0.2011	2.5000	-0.0167	-0.0012	-0.0546	33.8997	4.0482	4.9619	-0.7939	-0.0089	-0.6067	0.0400
5	-9.2137	-0.1894	2.5018	-0.0174	0.0032	-0.0534	33.6537	4.0043	4.8747	-0.7938	-0.0089	-0.6068	0.0400
5.01	-9.2258	-0.1955	2.5009	-0.0170	-0.0047	-0.0465	33.8174	3.7831	4.7869	-0.7938	-0.0090	-0.6068	0.0400
5.02	-9.2460	-0.1964	2.4829	-0.0179	-0.0021	-0.0478	34.0620	3.6581	5.0731	-0.7937	-0.0090	-0.6069	0.0400
5.03	-9.2550	-0.1974	2.4818	-0.0152	-0.0004	-0.0517	34.1692	3.6921	5.0997	-0.7937	-0.0090	-0.6069	0.0401
5.04	-9.2580	-0.1998	2.4897	-0.0177	-0.0000	-0.0448	34.0192	3.8589	4.7741	-0.7937	-0.0090	-0.6070	0.0401
5.05	-9.2739	-0.1947	2.4710	-0.0165	0.0082	-0.0455	33.8274	3.7763	5.0285	-0.7935	-0.0090	-0.6070	0.0401
5.06	-9.2811	-0.2000	2.4669	-0.0190	0.0037	-0.0477	33.9792	3.6509	5.1303	-0.7936	-0.0091	-0.6072	0.0401
5.07	-9.2740	-0.2088	2.4584	-0.0219	-0.0056	-0.0468	33.7837	3.8505	4.9535	-0.7935	-0.0091	-0.6072	0.0401
5.08	-9.2598	-0.2147	2.4610	-0.0147	-0.0030	-0.0449	34.0344	3.8057	4.8925	-0.7935	-0.0091	-0.6073	0.0401
5.09	-9.2551	-0.2167	2.4549	-0.0201	-0.0068	-0.0407	33.9712	3.6370	5.1442	-0.7934	-0.0091	-0.6073	0.0401
5.1	-9.2678	-0.2105	2.4613	-0.0139	-0.0083	-0.0395	33.6693	3.8449	5.0874	-0.7934	-0.0092	-0.6073	0.0400
5.11	-9.2695	-0.1983	2.4553	-0.0146	-0.0072	-0.0445	33.7507	3.9754	4.9738	-0.7934	-0.0092	-0.6074	0.0401
5.12	-9.2614	-0.2001	2.4699	-0.0163	-0.0089	-0.0454	33.8067	3.9075	5.1119	-0.7933	-0.0093	-0.6074	0.0401
5.13	-9.2645	-0.1968	2.4677	-0.0178	-0.0093	-0.0431	34.2393	4.0709	5.2099	-0.7934	-0.0093	-0.6075	0.0401
5.14	-9.2711	-0.1887	2.4529	-0.0141	-0.0208	-0.0432	34.3939	4.1237	5.2100	-0.7933	-0.0093	-0.6074	0.0400
5.15	-9.2665	-0.1847	2.4669	-0.0120	-0.0149	-0.0508	33.9762	3.9225	5.2786	-0.7934	-0.0094	-0.6075	0.0401
5.16	-9.2614	-0.1787	2.4610	-0.0104	-0.0128	-0.0492	33.9110	3.9462	5.0414	-0.7932	-0.0094	-0.6074	0.0401
5.17	-9.2615	-0.1712	2.4627	-0.0071	-0.0218	-0.0492	33.7705	4.1931	4.9890	-0.7933	-0.0095	-0.6074	0.0402
5.18	-9.2573	-0.1755	2.4590	-0.0166	-0.0128	-0.0497	33.9389	4.0792	5.1133	-0.7933	-0.0095	-0.6074	0.0402
5.19	-9.2594	-0.1708	2.4723	-0.0154	-0.0133	-0.0460	33.9300	4.0556	5.0360	-0.7933	-0.0095	-0.6074	0.0402
5.2	-9.2656	-0.1761	2.4739	-0.0120	-0.0141	-0.0423	33.9492	4.0613	5.2145	-0.7933	-0.0096	-0.6075	0.0402
5.21	-9.2684	-0.1783	2.4593	-0.0152	-0.0191	-0.0430	33.9153	3.9400	5.1067	-0.7933	-0.0096	-0.6074	0.0402
5.22	-9.2643	-0.1670	2.4693	-0.0158	-0.0130	-0.0377	34.0015	4.0046	5.0910	-0.7933	-0.0097	-0.6075	0.0402
5.23	-9.2549	-0.1676	2.4755	-0.0160	-0.0217	-0.0362	34.0510	3.8771	4.9780	-0.7932	-0.0097	-0.6074	0.0402
5.24	-9.2484	-0.1737	2.4656	-0.0173	-0.0088	-0.0397	33.7818	3.7809	4.9045	-0.7933	-0.0098	-0.6075	0.0401
5.25	-9.2369	-0.1644	2.4625	-0.0132	-0.0209	-0.0427	33.7535	3.8077	5.1659	-0.7933	-0.0098	-0.6074	0.0401
5.26	-9.2237	-0.1660	2.4645	-0.0134	-0.0168	-0.0424	33.7595	4.0552	4.9460	-0.7933	-0.0099	-0.6074	0.0401
5.27	-9.2020	-0.1643	2.4602	-0.0062	-0.0095	-0.0395	33.7561	4.0658	5.0999	-0.7933	-0.0099	-0.6074	0.0401
5.28	-9.2294	-0.1589	2.4882	-0.0124	-0.0079	-0.0499	33.8846	3.8142	5.1871	-0.7933	-0.0100	-0.6075	0.0402
5.29	-9.2686	-0.1659	2.4605	0.0016	0.0024	-0.0515	33.7864	3.9741	5.1625	-0.7932	-0.0100	-0.6076	0.0403
5.3	-9.2348	-0.1735	2.4716	-0.0029	-0.0158	-0.0503	33.6772	3.9683	5.1715	-0.7931	-0.0101	-0.6075	0.0403
5.31	-9.2246	-0.1556	2.4984	-0.0038	-0.0058	-0.0506	33.5405	3.8807	5.1646	-0.7932	-0.0102	-0.6076	0.0404
5.32	-9.2838	-0.1404	2.4527	-0.0083	0.0134	-0.0578	33.6527	4.1557	5.3258	-0.7931	-0.0102	-0.6077	0.0405
5.33	-9.2857	-0.1475	2.4437	-0.0171	-0.0134	-0.0552	33.8851	3.8831	5.0952	-0.7931	-0.0102	-0.6078	0.0405
5.34	-9.2151	-0.1532	2.4973	-0.0144	-0.0194	-0.0630	33.7301	3.8871	5.0655	-0.7930	-0.0102	-0.6077	0.0406
5.35	-9.2443	-0.1700	2.5066	-0.0213	0.0049	-0.0536	33.8985	3.9860	5.2069	-0.7930	-0.0102	-0.6078	0.0406
5.36	-9.3121	-0.1697	2.4574	-0.0156	0.0045	-0.0513	33.7698	3.9954	5.3157	-0.7930	-0.0102	-0.6078	0.0406
5.37	-9.3017	-0.1643	2.4864	-0.0305	-0.0178	-0.0497	33.7699	4.1864	5.0645	-0.7929	-0.0102	-0.6078	0.0406
5.38	-9.2504	-0.2032	2.4879	-0.0340	-0.0311	-0.0402	33.6331	3.9228	5.0873	-0.7931	-0.0101	-0.6078	0.0406
5.39	-9.2325	-0.2525	2.4726	-0.0293	-0.0185	-0.0386	33.8873	3.8734	5.1921	-0.7930	-0.0101	-0.6078	0.0405
5.4	-9.2300	-0.2584	2.4618	-0.0150	-0.0113	-0.0358	34.1204	3.9245	5.1764	-0.7931	-0.0102	-0.6078	0.0405
5.41	-9.2246	-0.2351	2.4653	-0.0205	-0.0109	-0.0339	33.7875	4.1129	5.0758	-0.7929	-0.0102	-0.6077	0.0404
5.42	-9.2328	-0.1936	2.4453	-0.0172	-0.0009	-0.0302	33.9066	3.8712	4.9606	-0.7930	-0.0103	-0.6079	0.0403
5.43	-9.2334	-0.1633	2.4349	-0.0134	-0.0011	-0.0298	34.0729	3.8277	5.0142	-0.7929	-0.0104	-0.6079	0.0403
5.44	-9.2383	-0.1492	2.4327	-0.0156	0.0000	-0.0387	33.9788	3.9048	5.2612	-0.7929	-0.0104	-0.6079	0.0403
5.45	-9.2460	-0.1575	2.4109	-0.0158	-0.0089	-0.0374	34.1749	3.8919	5.2708	-0.7929	-0.0105	-0.6080	0.0403
5.46	-9.2347	-0.1601	2.4183	-0.0072	-0.0037	-0.0486	33.8875	3.9812	5.1179	-0.7928	-0.0105	-0.6080	0.0403
5.47	-9.2492	-0.1453	2.4191	-0.0060	-0.0010	-0.0463	33.6873	3.7933	5.0402	-0.7928	-0.0106	-0.6081	0.0403
5.48	-9.2682	-0.1256	2.4092	-0.0034	0.0058	-0.0482	33.9443	3.7738	5.2046	-0.7927	-0.0107	-0.6081	0.0404
5.49	-9.2752	-0.1109	2.4188	-0.0129	0.0053	-0.0614	33.9555	4.0543	5.1213	-0.7927	-0.0107	-0.6083	0.0405
5.5	-9.3006	-0.0970	2.4080	-0.0182	0.0069	-0.0594	33.8828	4.1572	5.2756	-0.7926	-0.0107	-0.6083	0.0405
5.51	-9.3127	-0.1026	2.4004	-0.0142	-0.0006	-0.0609	33.8423	3.9392	5.3862	-0.7925	-0.0106	-0.6084	0.0406
5.52	-9.3131	-0.1106	2.4197	-0.0207	-0.0086	-0.0593	33.8342	4.0837	5.2575	-0.7925	-0.0106	-0.6084	0.0406
5.53	-9.3175	-0.1148	2.4165	-0.0290	-0.0084	-0.0591	33.8916	4.0479	5.2115	-0.7925	-0.0106	-0.6084	0.0406
5.54	-9.3214	-0.1257	2.4224	-0.0328	-0.0128	-0.0506	33.9157	4.0790	5.0028	-0.7925	-0.0105	-0.6085	0.0406
5.55	-9.3208	-0.1367	2.4193	-0.0412	-0.0115	-0.0544	33.7281	3.9757	5.1975	-0.7924	-0.0104	-0.6084	0.0406
5.56	-9.3131	-0.1527	2.4305	-0.0418	-0.0239	-0.0513	33.8707	3.9604	5.1495	-0.7925	-0.0103	-0.6085	0.0405
5.57	-9.3133	-0.1769	2.4326	-0.0432	-0.0290	-0.0456	33.8550	4.1481	5.1936	-0.7925	-0.0102	-0.6084	0.0405
5.58	-9.3138	-0.2014	2.4238	-0.0431	-0.0308	-0.0426	34.0569	4.1026	5.3646	-0.7926	-0.0101	-0.6084	0.0404
5.59	-9.2721	-0.2009	2.4324	-0.0429	-0.0405	-0.0462	33.9221	3.8746	5.2641	-0.7926	-0.0101	-0.6082	0.0403
5.6	-9.2758	-0.1865	2.4847	-0.0433	-0.0305	-0.0482	33.8222	3.8671	5.1318	-0.7927	-0.0100	-0.6082	0.0402
5.61	-9.3098	-0.2135	2.4143	-0.0432	-0.0327	-0.0486	33.8825	3.9437	5.2289	-0.7928	-0.0099	-0.6081	0.0402
5.62	-9.2211	-0.2257	2.4675	-0.0412	-0.0497	-0.0539	34.0924	4.0282	5.3450	-0.7928	-0.0098	-0.6080	0.0401
5.63	-9.1909	-0.2603	2.5057	-0.0410	-0.0341	-0.0576	34.3480	4.3202	5.3723	-0.7930	-0.0097	-0.6080	0.0401
5.64	-9.2333	-0.2679	2.4413	-0.0400	-0.0372	-0.0585	34.2473	4.3895	5.2918	-0.7930	-0.0095	-0.6079	0.0401
5.65	-9.1891	-0.2584	2.5052	-0.0300	-0.0518	-0.0534	34.1961	4.1574	5.2645	-0.7931	-0.0095	-0.6078	0.0401
5.66	-9.1924	-0.2209	2.5284	-0.0182	-0.0270	-0.0425	33.8211	4.1997	5.1871	-0.7931	-0.0095	-0.6076	0.0401
5.67	-9.2454	-0.1719	2.4982	-0.0178	-0.0221	-0.0548	33.6974	4.0689	5.0917	-0.7932	-0.0095	-0.6077	0.0401
5.68	-9.2309	-0.1675	2.5041	-0.0150	-0.0212	-0.0591	34.0080	4.2996	5.0912	-0.7932	-0.0095	-0.6076	0.0402
5.69	-9.1956	-0.1794	2.5215	-0.0209	-0.0234	-0.0568	33.7750	3.9934	5.1846	-0.7932	-0.0094	-0.6076	0.0402
5.7	-9.2050	-0.1834	2.4950	-0.0242	-0.0147	-0.0569	33.5731	4.0705	5.2062	-0.7932	-0.0094	-0.6076	0.0402
5.71	-9.2142	-0.1930	2.4838	-0.0191	-0.0070	-0.0556	33.8378	4.0669	5.1920	-0.7931	-0.0094	-0.6076	0.0403
5.72	-9.2263	-0.1837	2.4821	-0.0256	-0.0078	-0.0490	33.8932	4.0795	5.2004	-0.7932	-0.0094	-0.6077	0.0403
5.73	-9.2495	-0.1759	2.4805	-0.0269	-0.0023	-0.0515	33.6662	4.1260	5.1895	-0.7930	-0.0093	-0.6076	0.0403
5.74	-9.2648	-0.1906	2.4657	-0.0323	-0.0040	-0.0508	33.5790	3.9231	5.3139	-0.7931	-0.0093	-0.6078	0.0402
5.75	-9.2654	-0.2053	2.4636	-0.0245	-0.0079	-0.0462	33.7295	4.0368	5.1009	-0.7930	-0.0093	-0.6078	0.0402
5.76	-9.2628	-0.2190	2.4658	-0.0236	-0.0129	-0.0543	33.8889	3.8283	5.1773	-0.7930	-0.0093	-0.6078	0.0402
5.77	-9.2722	-0.2446	2.4574	-0.0335	-0.0092	-0.0560	34.1700	3.8606	5.2346	-0.7930	-0.0092	-0.6078	0.0402
5.78	-9.2707	-0.2563	2.4484	-0.0263	-0.0099	-0.0487	34.0746	3.8584	5.1578	-0.7930	-0.0092	-0.6078	0.0402
5.79	-9.2784	-0.2437	2.4562	-0.0203	-0.0158	-0.0450	34.0094	3.6252	5.1067	-0.7930	-0.0092	-0.6079	0.0402
5.8	-9.2893	-0.2395	2.4390	-0.0186	-0.0092	-0.0480	34.0601	3.9446	5.1073	-0.7929	-0.0092	-0.6078	0.0402
5.81	-9.2778	-0.2395	2.4338	-0.0161	-0.0190	-0.0451	33.7939	3.9284	5.1217	-0.7930	-0.0092	-0.6079	0.0402
5.82	-9.2671	-0.2280	2.4573	-0.0139	-0.0255	-0.0424	33.7780	3.6872	5.0826	-0.7930	-0.0092	-0.6078	0.0402
5.83	-9.2890	-0.2208	2.4438	-0.0126	-0.0146	-0.0398	33.9527	3.8615	5.2126	-0.7931	-0.0093	-0.6079	0.0402
5.84	-9.2912	-0.2016	2.4488	-0.0153	-0.0297	-0.0364	33.9375	3.9198	5.0967	-0.7930	-0.0093	-0.6077	0.0402
5.85	-9.2804	-0.1773	2.4651	-0.0141	-0.0319	-0.0403	33.9483	4.0962	5.0118	-0.7931	-0.0094	-0.6077	0.0402
5.86	-9.2733	-0.1666	2.4548	-0.0192	-0.0247	-0.0408	33.7302	3.8873	5.1548	-0.7931	-0.0094	-0.6077	0.0402
5.87	-9.2582	-0.1673	2.4609	-0.0207	-0.0215	-0.0386	33.6137	3.8850	5.0727	-0.7931	-0.0094	-0.6076	0.0401
5.88	-9.2426	-0.1635	2.4844	-0.0174	-0.0294	-0.0401	33.9424	4.1791	5.1408	-0.7933	-0.0095	-0.6076	0.0401
5.89	-9.2385	-0.1596	2.4745	-0.0203	-0.0248	-0.0408	33.7356	4.0539	5.1961	-0.7932	-0.0095	-0.6075	0.0401
5.9	-9.2315	-0.1553	2.4820	-0.0231	-0.0241	-0.0409	33.7043	4.0108	5.2174	-0.7933	-0.0095	-0.6075	0.0400
5.91	-9.2189	-0.1595	2.4953	-0.0234	-0.0256	-0.0382	33.8851	4.1069	5.1632	-0.7932	-0.0095	-0.6074	0.0400
5.92	-9.2175	-0.1535	2.4913	-0.0287	-0.0208	-0.0440	33.7299	4.2493	5.1442	-0.7933	-0.0095	-0.6074	0.0400
5.93	-9.2227	-0.1509	2.4933	-0.0332	-0.0247	-0.0460	33.7916	4.1240	5.1396	-0.7933	-0.0095	-0.6074	0.0399
5.94	-9.2211	-0.1618	2.4995	-0.0342	-0.0293	-0.0428	33.7282	4.1339	5.1696	-0.7934	-0.0094	-0.6073	0.0399
5.95	-9.2118	-0.1604	2.5020	-0.0377	-0.0226	-0.0395	33.9856	3.9938	5.2026	-0.7934	-0.0094	-0.6073	0.0398
5.96	-9.2119	-0.1577	2.5043	-0.0415	-0.0184	-0.0458	34.0382	3.6927	5.1022	-0.7934	-0.0093	-0.6073	0.0397
5.97	-9.2210	-0.1641	2.4996	-0.0353	-0.0075	-0.0420	34.0301	3.8397	5.0601	-0.7934	-0.0093	-0.6074	0.0396
5.98	-9.2179	-0.1645	2.4886	-0.0343	-0.0099	-0.0465	34.0327	3.8864	4.9994	-0.7933	-0.0092	-0.6073	0.0396
5.99	-9.2047	-0.1620	2.4910	-0.0289	-0.0132	-0.0521	33.9216	3.6791	5.0253	-0.7934	-0.0092	-0.6074	0.0396
6	-9.2166	-0.1579	2.4911	-0.0332	-0.0030	-0.0501	34.1215	3.7867	5.2208	-0.7933	-0.0091	-0.6074	0.0396
6.01	-9.2356	-0.1591	2.4776	-0.0382	0.0008	-0.0520	34.0705	4.0931	5.3530	-0.7933	-0.0091	-0.6075	0.0395
6.02	-9.2415	-0.1613	2.4802	-0.0332	-0.0013	-0.0474	33.9088	3.8991	5.0598	-0.7932	-0.0090	-0.6075	0.0395
6.03	-9.2546	-0.1606	2.4724	-0.0415	-0.0077	-0.0434	33.8534	3.9692	5.1506	-0.7932	-0.0090	-0.6076	0.0394
6.04	-9.2596	-0.1592	2.4597	-0.0374	-0.0016	-0.0521	33.8212	4.0851	5.2278	-0.7932	-0.0089	-0.6077	0.0394
6.05	-9.2553	-0.1523	2.4621	-0.0371	0.0047	-0.0548	33.6351	3.8225	5.1146	-0.7931	-0.0088	-0.6077	0.0393
6.06	-9.2710	-0.1536	2.4537	-0.0440	-0.0032	-0.0571	33.9154	3.9854	4.9864	-0.7931	-0.0087	-0.6078	0.0393
6.07	-9.2587	-0.1515	2.4453	-0.0421	-0.0043	-0.0551	33.7849	4.0034	5.2179	-0.7930	-0.0086	-0.6078	0.0393
6.08	-9.2439	-0.1470	2.4660	-0.0440	-0.0065	-0.0532	33.7743	3.9028	5.3537	-0.7931	-0.0085	-0.6079	0.0392
6.09	-9.2710	-0.1498	2.4478	-0.0430	0.0006	-0.0557	33.6682	4.0368	5.0645	-0.7929	-0.0084	-0.6079	0.0392
6.1	-9.2800	-0.1423	2.4367	-0.0457	-0.0035	-0.0585	33.5653	4.1497	5.1372	-0.7929	-0.0082	-0.6080	0.0391
6.11	-9.2725	-0.1515	2.4529	-0.0504	-0.0030	-0.0540	33.6079	4.0418	5.2238	-0.7929	-0.0081	-0.6081	0.0391
6.12	-9.2861	-0.1577	2.4467	-0.0524	-0.0016	-0.0515	33.9047	4.0319	5.1686	-0.7928	-0.0080	-0.6081	0.0390
6.13	-9.2946	-0.1682	2.4427	-0.0605	-0.0147	-0.0496	34.2853	4.0097	5.3362	-0.7929	-0.0078	-0.6082	0.0389
6.14	-9.2952	-0.1727	2.4563	-0.0595	-0.0165	-0.0465	34.1448	3.9521	5.3843	-0.7928	-0.0077	-0.6081	0.0388
6.15	-9.3109	-0.1843	2.4470	-0.0539	-0.0145	-0.0476	34.0254	4.0205	5.3199	-0.7929	-0.0075	-0.6082	0.0387
6.16	-9.3042	-0.2021	2.4499	-0.0628	-0.0313	-0.0511	33.7842	3.8495	5.2536	-0.7928	-0.0074	-0.6081	0.0386
6.17	-9.2920	-0.2164	2.4610	-0.0624	-0.0240	-0.0480	33.8589	3.8613	5.0176	-0.7929	-0.0072	-0.6081	0.0384
6.18	-9.2851	-0.2411	2.4559	-0.0588	-0.0259	-0.0505	34.0075	3.9336	4.9723	-0.7929	-0.0070	-0.6080	0.0383
6.19	-9.2654	-0.2581	2.4712	-0.0595	-0.0251	-0.0491	33.9053	4.0023	5.2920	-0.7930	-0.0069	-0.6080	0.0382
6.2	-9.2516	-0.2743	2.4723	-0.0499	-0.0279	-0.0488	34.1042	3.8598	5.1194	-0.7930	-0.0067	-0.6080	0.0381
6.21	-9.2414	-0.2853	2.4754	-0.0473	-0.0264	-0.0485	33.9523	4.0334	5.1049	-0.7930	-0.0066	-0.6079	0.0380
6.22	-9.2285	-0.2729	2.4907	-0.0407	-0.0287	-0.0466	33.8570	3.8705	5.1639	-0.7931	-0.0066	-0.6079	0.0380
6.23	-9.2236	-0.2797	2.5011	-0.0451	-0.0252	-0.0483	34.1885	3.9828	5.2679	-0.7931	-0.0065	-0.6078	0.0379
6.24	-9.2364	-0.2636	2.4871	-0.0393	-0.0226	-0.0420	33.8699	3.9588	5.2208	-0.7932	-0.0064	-0.6078	0.0378
6.25	-9.2372	-0.2459	2.4891	-0.0396	-0.0203	-0.0420	33.9082	3.8622	5.0216	-0.7932	-0.0063	-0.6078	0.0377
6.26	-9.2287	-0.2409	2.4920	-0.0303	-0.0202	-0.0424	33.9825	4.1654	5.0994	-0.7932	-0.0063	-0.6078	0.0377
6.27	-9.2257	-0.2253	2.4841	-0.0213	-0.0239	-0.0387	33.9371	4.1356	4.9615	-0.7932	-0.0063	-0.6077	0.0377
6.28	-9.2252	-0.2222	2.4902	-0.0226	-0.0231	-0.0405	33.8505	4.0418	4.9663	-0.7932	-0.0063	-0.6077	0.0376
6.29	-9.2342	-0.2130	2.5002	-0.0168	-0.0156	-0.0382	33.6743	3.8609	5.0346	-0.7933	-0.0064	-0.6077	0.0376
6.3	-9.2329	-0.2179	2.4843	-0.0184	-0.0151	-0.0442	33.7643	4.0428	5.1410	-0.7932	-0.0064	-0.6077	0.0376
6.31	-9.2290	-0.2431	2.5206	-0.0170	-0.0195	-0.0477	33.9881	4.1834	5.4198	-0.7933	-0.0064	-0.6077	0.0376
6.32	-9.2494	-0.2084	2.5254	-0.0164	-0.0051	-0.0473	33.9530	3.9713	5.0587	-0.7932	-0.0065	-0.6077	0.0376
6.33	-9.2708	-0.1491	2.5047	0.0013	-0.0098	-0.0409	33.9374	3.9919	5.0122	-0.7933	-0.0066	-0.6078	0.0376
6.34	-9.2470	-0.1264	2.5207	-0.0137	-0.0233	-0.0410	34.0646	3.8675	5.1130	-0.7932	-0.0066	-0.6077	0.0376
6.35	-9.2096	-0.1322	2.5173	-0.0184	-0.0179	-0.0400	34.1223	3.9062	4.9237	-0.7932	-0.0066	-0.6077	0.0376
6.36	-9.2010	-0.1468	2.5114	-0.0209	-0.0084	-0.0428	34.0137	3.8382	5.0526	-0.7932	-0.0067	-0.6078	0.0376
6.37	-9.2161	-0.1526	2.4926	-0.0242	-0.0028	-0.0400	34.0627	4.0791	5.1479	-0.7931	-0.0067	-0.6078	0.0376
6.38	-9.2178	-0.1691	2.4848	-0.0194	-0.0064	-0.0441	33.9402	3.8474	5.1911	-0.7932	-0.0067	-0.6079	0.0375
6.39	-9.1927	-0.1740	2.4826	-0.0198	-0.0010	-0.0444	33.9527	3.9297	5.1252	-0.7931	-0.0067	-0.6079	0.0375
6.4	-9.1970	-0.1702	2.4920	-0.0168	-0.0002	-0.0516	33.9756	3.7690	5.2656	-0.7931	-0.0067	-0.6080	0.0376
6.41	-9.2485	-0.1808	2.4814	-0.0218	0.0105	-0.0509	33.8440	4.0027	5.2337	-0.7929	-0.0067	-0.6080	0.0376
6.42	-9.2726	-0.1941	2.4641	-0.0167	0.0077	-0.0506	33.8986	3.9183	5.1938	-0.7929	-0.0067	-0.6082	0.0376
6.43	-9.2513	-0.1771	2.4909	-0.0171	0.0050	-0.0575	34.1273	3.7845	5.2293	-0.7928	-0.0067	-0.6082	0.0376
6.44	-9.2701	-0.1615	2.4831	-0.0170	0.0106	-0.0556	33.8589	4.0130	5.1486	-0.7927	-0.0067	-0.6083	0.0377
6.45	-9.3218	-0.1619	2.4613	-0.0171	0.0050	-0.0614	33.8637	3.8545	5.0643	-0.7927	-0.0067	-0.6084	0.0377
6.46	-9.2857	-0.1644	2.4325	-0.0159	0.0020	-0.0624	33.8699	4.1598	4.9610	-0.7926	-0.0067	-0.6085	0.0378
6.47	-9.2166	-0.1632	2.4978	-0.0225	-0.0081	-0.0589	33.8624	3.8904	5.1725	-0.7926	-0.0066	-0.6085	0.0379
6.48	-9.2712	-0.1680	2.4825	-0.0404	0.0102	-0.0598	33.8691	3.9581	5.2321	-0.7925	-0.0065	-0.6086	0.0378
6.49	-9.3212	-0.1866	2.4349	-0.0436	-0.0009	-0.0539	33.8559	3.9925	5.2929	-0.7925	-0.0064	-0.6087	0.0378
6.5	-9.2751	-0.1984	2.4881	-0.0440	-0.0190	-0.0511	33.8944	3.7869	5.0135	-0.7925	-0.0063	-0.6087	0.0377
6.51	-9.2627	-0.2313	2.4709	-0.0434	-0.0052	-0.0447	34.0490	3.8259	5.0101	-0.7925	-0.0062	-0.6087	0.0377
6.52	-9.2695	-0.2666	2.4359	-0.0441	-0.0081	-0.0409	34.0407	3.7460	4.7536	-0.7924	-0.0062	-0.6087	0.0376
6.53	-9.2300	-0.2694	2.4572	-0.0402	-0.0143	-0.0366	34.0405	3.7708	4.7511	-0.7924	-0.0061	-0.6088	0.0375
6.54	-9.2035	-0.2545	2.4555	-0.0339	-0.0082	-0.0360	34.0445	3.9059	5.1787	-0.7924	-0.0061	-0.6088	0.0374
6.55	-9.2285	-0.2290	2.4308	-0.0296	0.0009	-0.0262	34.0523	3.9601	5.1743	-0.7923	-0.0061	-0.6088	0.0373
6.56	-9.2263	-0.2175	2.4176	-0.0268	-0.0045	-0.0315	33.8351	4.0642	5.0286	-0.7924	-0.0062	-0.6089	0.0372
6.57	-9.2112	-0.2067	2.4388	-0.0154	-0.0047	-0.0379	33.7337	3.8062	4.9933	-0.7923	-0.0062	-0.6089	0.0371
6.58	-9.2220	-0.1986	2.4326	-0.0185	0.0025	-0.0382	33.8730	3.9742	5.1595	-0.7923	-0.0063	-0.6091	0.0371
6.59	-9.2388	-0.1934	2.4283	-0.0122	-0.0066	-0.0459	33.8484	4.0676	5.2671	-0.7922	-0.0063	-0.6090	0.0371
6.6	-9.2467	-0.1815	2.4398	-0.0050	-0.0006	-0.0499	33.9054	3.9301	5.1091	-0.7922	-0.0064	-0.6091	0.0372
6.61	-9.2489	-0.1762	2.4297	0.0002	0.0047	-0.0587	33.7570	3.8771	5.0841	-0.7921	-0.0064	-0.6092	0.0373
6.62	-9.2581	-0.1643	2.4297	-0.0010	0.0032	-0.0673	33.9860	4.1814	5.3349	-0.7920	-0.0065	-0.6092	0.0374
6.63	-9.2753	-0.1483	2.4222	-0.0039	0.0093	-0.0636	34.3960	4.1267	5.5717	-0.7921	-0.0065	-0.6094	0.0375
6.64	-9.2713	-0.1365	2.4173	-0.0037	0.0091	-0.0666	34.2462	4.0702	5.4923	-0.7919	-0.0065	-0.6094	0.0377
6.65	-9.2604	-0.1172	2.4289	-0.0146	0.0080	-0.0767	33.9731	4.1609	5.3950	-0.7919	-0.0064	-0.6096	0.0378
6.66	-9.2785	-0.1232	2.4209	-0.0217	0.0070	-0.0674	33.7991	4.1056	5.2664	-0.7917	-0.0064	-0.6096	0.0379
6.67	-9.2954	-0.1358	2.4011	-0.0372	0.0085	-0.0646	33.6600	3.9470	5.1019	-0.7917	-0.0063	-0.6097	0.0379
6.68	-9.3063	-0.1607	2.4182	-0.0437	0.0029	-0.0621	33.5367	3.8180	5.0829	-0.7916	-0.0062	-0.6098	0.0379
6.69	-9.3174	-0.1934	2.4009	-0.0433	-0.0054	-0.0557	33.6340	4.1393	4.9663	-0.7916	-0.0060	-0.6098	0.0378
6.7	-9.3134	-0.2220	2.4110	-0.0418	-0.0067	-0.0478	33.8744	4.0899	5.2587	-0.7916	-0.0060	-0.6099	0.0378
6.71	-9.2778	-0.2425	2.3966	-0.0514	-0.0120	-0.0446	34.0674	4.0167	5.1581	-0.7916	-0.0059	-0.6099	0.0377
6.72	-9.2731	-0.2418	2.4364	-0.0599	-0.0195	-0.0458	33.7319	3.7881	5.0926	-0.7916	-0.0057	-0.6099	0.0376
6.73	-9.3377	-0.2752	2.3818	-0.0554	-0.0071	-0.0477	33.8300	3.7371	5.2156	-0.7915	-0.0056	-0.6099	0.0374
6.74	-9.2831	-0.2658	2.3765	-0.0509	-0.0276	-0.0552	34.0473	3.9869	5.2162	-0.7916	-0.0054	-0.6099	0.0374
6.75	-9.2360	-0.2916	2.4644	-0.0430	-0.0214	-0.0513	34.0177	4.0659	5.1916	-0.7916	-0.0053	-0.6099	0.0373
6.76	-9.3239	-0.3486	2.3805	-0.0442	-0.0048	-0.0555	33.9568	3.8827	5.2409	-0.7916	-0.0052	-0.6099	0.0373
6.77	-9.2929	-0.3534	2.3862	-0.0426	-0.0322	-0.0539	33.8180	3.7372	5.0878	-0.7916	-0.0051	-0.6099	0.0372
6.78	-9.2308	-0.3336	2.4712	-0.0279	-0.0315	-0.0500	33.7048	3.7635	4.9115	-0.7917	-0.0051	-0.6098	0.0372
6.79	-9.2957	-0.2922	2.4278	-0.0201	-0.0124	-0.0444	33.6363	3.7807	5.1307	-0.7917	-0.0051	-0.6098	0.0372
6.8	-9.3008	-0.2625	2.4022	-0.0172	-0.0262	-0.0480	33.6656	4.0279	5.0953	-0.7916	-0.0051	-0.6097	0.0372
6.81	-9.2436	-0.2624	2.4627	-0.0265	-0.0278	-0.0506	33.7556	4.1333	5.3344	-0.7918	-0.0051	-0.6098	0.0372
6.82	-9.2439	-0.2690	2.4387	-0.0307	-0.0138	-0.0482	33.7548	4.0942	5.4323	-0.7917	-0.0050	-0.6097	0.0372
6.83	-9.2611	-0.2636	2.4118	-0.0147	-0.0138	-0.0490	33.7407	4.1455	5.2529	-0.7918	-0.0050	-0.6098	0.0372
6.84	-9.2434	-0.2597	2.4428	-0.0204	-0.0133	-0.0489	33.7665	3.9850	5.0707	-0.7917	-0.0050	-0.6097	0.0372
6.85	-9.2537	-0.2470	2.4520	-0.0173	-0.0151	-0.0437	33.7079	4.0831	5.2790	-0.7917	-0.0051	-0.6097	0.0372
6.86	-9.2730	-0.2434	2.4231	-0.0244	-0.0130	-0.0440	33.6760	4.0605	5.0890	-0.7917	-0.0051	-0.6098	0.0372
6.87	-9.2601	-0.2464	2.4382	-0.0290	-0.0220	-0.0441	33.8546	4.0314	5.2262	-0.7917	-0.0050	-0.6097	0.0371
6.88	-9.2530	-0.2532	2.4553	-0.0225	-0.0282	-0.0415	33.9225	3.8089	5.1715	-0.7918	-0.0050	-0.6097	0.0371
6.89	-9.2595	-0.2574	2.4438	-0.0201	-0.0239	-0.0378	34.0821	3.6359	5.0209	-0.7918	-0.0051	-0.6096	0.0371
6.9	-9.2543	-0.2610	2.4445	-0.0194	-0.0229	-0.0473	33.8577	3.9231	4.9450	-0.7919	-0.0051	-0.6097	0.0371
6.91	-9.2399	-0.2551	2.4489	-0.0247	-0.0249	-0.0416	33.8302	4.0338	5.0274	-0.7918	-0.0051	-0.6095	0.0370
6.92	-9.2429	-0.2500	2.4482	-0.0174	-0.0201	-0.0396	33.8255	3.9007	4.9885	-0.7919	-0.0051	-0.6096	0.0370
6.93	-9.2572	-0.2480	2.4483	-0.0161	-0.0156	-0.0470	33.7120	3.8122	4.9800	-0.7919	-0.0052	-0.6096	0.0370
6.94	-9.2623	-0.2438	2.4441	-0.0170	-0.0196	-0.0393	33.7666	3.9343	5.2802	-0.7919	-0.0052	-0.6095	0.0370
6.95	-9.2613	-0.2362	2.4578	-0.0168	-0.0207	-0.0385	33.8164	3.9478	5.0532	-0.7919	-0.0052	-0.6095	0.0370
6.96	-9.2770	-0.2371	2.4391	-0.0162	-0.0099	-0.0365	33.8847	3.6526	5.0598	-0.7919	-0.0053	-0.6095	0.0370
6.97	-9.2792	-0.2253	2.4312	-0.0176	-0.0202	-0.0367	33.9303	3.9811	5.1740	-0.7919	-0.0053	-0.6095	0.0369
6.98	-9.2525	-0.2242	2.4530	-0.0183	-0.0287	-0.0370	33.9404	4.0488	5.3332	-0.7919	-0.0054	-0.6094	0.0369
6.99	-9.2624	-0.2213	2.4482	-0.0187	-0.0168	-0.0390	33.8892	4.0163	5.1367	-0.7920	-0.0054	-0.6095	0.0369
7	-9.2769	-0.2206	2.4359	-0.0181	-0.0146	-0.0362	33.6988	4.1716	5.1755	-0.7919	-0.0055	-0.6095	0.0368
7.01	-9.2548	-0.2090	2.4512	-0.0182	-0.0192	-0.0366	33.7916	4.0061	5.4254	-0.7920	-0.0055	-0.6095	0.0368
7.02	-9.2362	-0.2058	2.4419	-0.0179	-0.0226	-0.0423	33.5484	4.0509	5.3746	-0.7920	-0.0055	-0.6094	0.0368
7.03	-9.2422	-0.2050	2.4360	-0.0178	-0.0164	-0.0405	33.4351	3.9693	5.2636	-0.7920	-0.0056	-0.6094	0.0367
7.04	-9.2500	-0.1995	2.4472	-0.0167	-0.0168	-0.0416	33.5918	3.9697	5.1470	-0.7920	-0.0056	-0.6094	0.0367
7.05	-9.2582	-0.1755	2.4345	-0.0180	-0.0140	-0.0406	33.7764	4.0634	5.0025	-0.7919	-0.0056	-0.6094	0.0367
7.06	-9.2680	-0.1722	2.4391	-0.0169	-0.0123	-0.0403	33.6301	3.8872	5.1524	-0.7920	-0.0057	-0.6095	0.0367
7.07	-9.2625	-0.1694	2.4335	-0.0178	-0.0102	-0.0425	33.6786	3.6826	5.0643	-0.7920	-0.0057	-0.6094	0.0367
7.08	-9.2570	-0.1641	2.4440	-0.0152	-0.0111	-0.0409	33.8900	3.7038	5.0482	-0.7920	-0.0058	-0.6095	0.0367
7.09	-9.2637	-0.1644	2.4312	-0.0177	-0.0108	-0.0468	34.0468	3.9097	5.3658	-0.7919	-0.0058	-0.6094	0.0367
7.1	-9.2719	-0.1658	2.4162	-0.0207	-0.0216	-0.0481	33.8630	3.7684	5.1118	-0.7920	-0.0058	-0.6095	0.0367
7.11	-9.2629	-0.1835	2.4292	-0.0205	-0.0175	-0.0444	33.8305	3.8413	5.0204	-0.7920	-0.0058	-0.6094	0.0367
7.12	-9.2619	-0.1837	2.4149	-0.0184	-0.0107	-0.0464	33.8684	3.7500	5.3227	-0.7919	-0.0058	-0.6094	0.0367
7.13	-9.2707	-0.1798	2.4149	-0.0213	-0.0140	-0.0451	34.2946	3.9007	5.3069	-0.7920	-0.0058	-0.6095	0.0366
7.14	-9.2723	-0.1994	2.4163	-0.0194	-0.0116	-0.0468	34.3419	4.1637	5.1335	-0.7919	-0.0058	-0.6095	0.0366
7.15	-9.2743	-0.2084	2.4165	-0.0253	-0.0158	-0.0435	33.9882	3.8797	5.0120	-0.7920	-0.0058	-0.6095	0.0366
7.16	-9.2772	-0.2050	2.4249	-0.0203	-0.0096	-0.0441	33.9414	3.8846	5.1526	-0.7919	-0.0058	-0.6095	0.0366
7.17	-9.2895	-0.1995	2.4145	-0.0238	-0.0175	-0.0467	33.7883	4.0899	5.1893	-0.7919	-0.0058	-0.6095	0.0366
7.18	-9.2813	-0.1987	2.4143	-0.0262	-0.0219	-0.0505	33.9737	3.8268	5.1058	-0.7919	-0.0058	-0.6095	0.0366
7.19	-9.2835	-0.1966	2.4228	-0.0228	-0.0191	-0.0438	33.8790	3.8481	5.0685	-0.7919	-0.0058	-0.6094	0.0366
7.2	-9.2918	-0.2080	2.4153	-0.0245	-0.0185	-0.0411	33.8602	3.9163	5.0669	-0.7920	-0.0058	-0.6095	0.0365
7.21	-9.2646	-0.2081	2.4163	-0.0219	-0.0287	-0.0438	33.8799	3.8451	5.1074	-0.7920	-0.0058	-0.6094	0.0365
7.22	-9.2601	-0.2076	2.4294	-0.0214	-0.0178	-0.0462	33.8560	3.7577	5.1986	-0.7920	-0.0059	-0.6094	0.0365
7.23	-9.2779	-0.2165	2.4148	-0.0207	-0.0195	-0.0459	33.8928	3.9673	5.1453	-0.7920	-0.0059	-0.6093	0.0365
7.24	-9.2729	-0.2303	2.4160	-0.0172	-0.0265	-0.0439	33.7267	4.1010	5.1802	-0.7921	-0.0059	-0.6094	0.0365
7.25	-9.2557	-0.2242	2.4374	-0.0198	-0.0287	-0.0395	33.8777	4.1514	4.9604	-0.7921	-0.0059	-0.6093	0.0365
7.26	-9.2602	-0.2228	2.4445	-0.0186	-0.0275	-0.0411	33.7677	3.8822	5.0751	-0.7921	-0.0060	-0.6092	0.0364
7.27	-9.2664	-0.2153	2.4344	-0.0163	-0.0237	-0.0402	33.9810	3.8817	4.9830	-0.7921	-0.0060	-0.6092	0.0364
7.28	-9.2585	-0.2030	2.4388	-0.0184	-0.0237	-0.0440	34.1721	3.8888	4.7281	-0.7922	-0.0061	-0.6092	0.0364
7.29	-9.2505	-0.2076	2.4473	-0.0120	-0.0250	-0.0417	33.9395	3.8597	5.0972	-0.7922	-0.0061	-0.6091	0.0364
7.3	-9.2490	-0.2016	2.4468	-0.0119	-0.0237	-0.0436	33.9679	3.6596	4.9790	-0.7922	-0.0062	-0.6091	0.0365
7.31	-9.2575	-0.2055	2.4473	-0.0162	-0.0249	-0.0437	33.9482	3.8701	4.9033	-0.7923	-0.0062	-0.6091	0.0365
7.32	-9.2594	-0.2026	2.4410	-0.0184	-0.0185	-0.0415	33.9781	4.1182	4.9811	-0.7923	-0.0063	-0.6091	0.0364
7.33	-9.2616	-0.1892	2.4563	-0.0088	-0.0243	-0.0414	33.9063	4.0230	5.0500	-0.7923	-0.0063	-0.6091	0.0364
7.34	-9.2667	-0.1944	2.4424	-0.0108	-0.0276	-0.0452	33.7496	4.1733	5.0750	-0.7923	-0.0064	-0.6090	0.0365
7.35	-9.2494	-0.1907	2.4448	-0.0128	-0.0297	-0.0424	33.9373	3.8989	4.9634	-0.7924	-0.0064	-0.6089	0.0365
7.36	-9.2472	-0.1827	2.4649	-0.0163	-0.0239	-0.0437	33.9331	4.0604	5.1634	-0.7924	-0.0065	-0.6089	0.0365
7.37	-9.2555	-0.1788	2.4531	-0.0173	-0.0176	-0.0375	33.7618	4.0511	5.1746	-0.7923	-0.0065	-0.6089	0.0364
7.38	-9.2555	-0.1696	2.4595	-0.0176	-0.0233	-0.0390	33.7932	4.0818	5.0424	-0.7925	-0.0066	-0.6089	0.0364
7.39	-9.2569	-0.1596	2.4583	-0.0179	-0.0196	-0.0412	33.9187	3.8700	4.9735	-0.7924	-0.0066	-0.6088	0.0364
7.4	-9.2423	-0.1531	2.4523	-0.0212	-0.0254	-0.0409	33.9957	4.0038	5.2012	-0.7925	-0.0067	-0.6089	0.0364
7.41	-9.2417	-0.1565	2.4636	-0.0152	-0.0204	-0.0450	33.8581	4.1839	5.0466	-0.7924	-0.0067	-0.6088	0.0364
7.42	-9.2532	-0.1651	2.4480	-0.0223	-0.0183	-0.0450	33.6529	3.9053	4.9829	-0.7925	-0.0067	-0.6088	0.0363
7.43	-9.2510	-0.1661	2.4439	-0.0227	-0.0242	-0.0383	33.7314	4.0223	5.1198	-0.7925	-0.0067	-0.6088	0.0363
7.44	-9.2423	-0.1601	2.4595	-0.0211	-0.0269	-0.0428	33.8845	3.8664	4.9778	-0.7925	-0.0067	-0.6087	0.0363
7.45	-9.2623	-0.1444	2.4644	-0.0198	-0.0088	-0.0417	33.8495	3.9059	4.9779	-0.7925	-0.0068	-0.6088	0.0362
7.46	-9.2696	-0.1491	2.4378	-0.0205	-0.0083	-0.0493	33.7860	3.8407	5.1324	-0.7925	-0.0068	-0.6088	0.0363
7.47	-9.2564	-0.1628	2.4501	-0.0260	-0.0240	-0.0450	33.9163	3.7858	4.9516	-0.7925	-0.0068	-0.6088	0.0362
7.48	-9.2477	-0.1466	2.4626	-0.0221	-0.0137	-0.0456	33.8233	3.7831	4.7604	-0.7924	-0.0068	-0.6087	0.0362
7.49	-9.2896	-0.1320	2.4574	-0.0316	-0.0066	-0.0521	33.9270	3.9314	5.0531	-0.7925	-0.0068	-0.6089	0.0362
7.5	-9.3087	-0.1452	2.4228	-0.0324	-0.0130	-0.0486	33.9203	3.9490	4.7322	-0.7924	-0.0067	-0.6089	0.0362
7.51	-9.2664	-0.1508	2.4514	-0.0414	-0.0278	-0.0552	33.8437	3.8354	5.0424	-0.7925	-0.0066	-0.6088	0.0361
7.52	-9.2526	-0.1673	2.4723	-0.0444	-0.0237	-0.0486	33.9692	4.0119	5.1007	-0.7925	-0.0065	-0.6088	0.0361
7.53	-9.2965	-0.1737	2.4541	-0.0376	-0.0235	-0.0440	33.8541	4.0538	4.9208	-0.7925	-0.0065	-0.6088	0.0360
7.54	-9.2946	-0.1931	2.4618	-0.0418	-0.0301	-0.0445	34.0425	3.8916	5.2708	-0.7925	-0.0064	-0.6088	0.0359
7.55	-9.2386	-0.2079	2.4735	-0.0461	-0.0339	-0.0449	33.7371	3.8807	5.1759	-0.7925	-0.0063	-0.6086	0.0358
7.56	-9.1904	-0.2351	2.4768	-0.0463	-0.0330	-0.0433	33.9264	3.8860	4.9551	-0.7927	-0.0062	-0.6087	0.0357
7.57	-9.1943	-0.2603	2.4589	-0.0421	-0.0150	-0.0360	33.9321	4.0369	5.1297	-0.7926	-0.0062	-0.6086	0.0356
7.58	-9.1967	-0.2644	2.4438	-0.0374	-0.0187	-0.0378	33.8406	4.0792	4.9769	-0.7927	-0.0062	-0.6087	0.0355
7.59	-9.1792	-0.2335	2.4518	-0.0293	-0.0130	-0.0355	33.9007	3.9637	4.9778	-0.7926	-0.0062	-0.6086	0.0354
7.6	-9.2030	-0.2021	2.4423	-0.0296	-0.0039	-0.0354	33.7092	3.9677	4.9864	-0.7926	-0.0062	-0.6087	0.0354
7.61	-9.2341	-0.1875	2.4072	-0.0167	0.0055	-0.0374	33.7211	3.7922	4.9670	-0.7925	-0.0063	-0.6088	0.0353
7.62	-9.2278	-0.1962	2.4064	-0.0155	0.0008	-0.0392	33.9194	3.8575	5.0610	-0.7924	-0.0063	-0.6088	0.0353
7.63	-9.2249	-0.1977	2.4253	-0.0117	-0.0027	-0.0430	34.3145	4.0174	5.1902	-0.7925	-0.0064	-0.6090	0.0353
7.64	-9.2568	-0.1895	2.4098	-0.0096	-0.0006	-0.0445	34.2628	4.0586	5.1475	-0.7924	-0.0064	-0.6090	0.0353
7.65	-9.2773	-0.1736	2.4024	-0.0105	-0.0086	-0.0494	34.0797	3.8549	5.1493	-0.7924	-0.0065	-0.6090	0.0354
7.66	-9.2881	-0.1559	2.4235	-0.0077	-0.0032	-0.0524	33.8746	3.6763	5.1133	-0.7923	-0.0065	-0.6090	0.0354
7.67	-9.3026	-0.1453	2.4175	-0.0056	0.0055	-0.0533	33.8099	3.6429	4.8607	-0.7923	-0.0066	-0.6091	0.0355
7.68	-9.3242	-0.1300	2.4051	-0.0112	-0.0007	-0.0551	33.8304	3.7512	5.2305	-0.7922	-0.0066	-0.6092	0.0355
7.69	-9.3268	-0.1262	2.3920	-0.0166	-0.0060	-0.0602	33.9938	3.7844	5.3336	-0.7921	-0.0066	-0.6092	0.0356
7.7	-9.3138	-0.1338	2.4232	-0.0167	-0.0162	-0.0524	34.0412	3.6861	5.1892	-0.7922	-0.0066	-0.6093	0.0356
7.71	-9.3215	-0.1334	2.4219	-0.0169	-0.0123	-0.0479	33.8807	3.9174	5.3332	-0.7921	-0.0067	-0.6093	0.0356
7.72	-9.3312	-0.1427	2.4167	-0.0233	-0.0135	-0.0461	33.7753	3.5930	5.2788	-0.7921	-0.0067	-0.6093	0.0356
7.73	-9.2971	-0.1605	2.4132	-0.0366	-0.0261	-0.0470	33.7432	3.6535	5.3251	-0.7921	-0.0066	-0.6092	0.0356
7.74	-9.2908	-0.1644	2.4377	-0.0426	-0.0273	-0.0504	33.6513	4.0487	5.1511	-0.7922	-0.0065	-0.6092	0.0355
7.75	-9.2674	-0.1851	2.4005	-0.0401	-0.0217	-0.0471	33.6861	3.9724	5.0949	-0.7922	-0.0065	-0.6092	0.0355
7.76	-9.2558	-0.1688	2.4725	-0.0400	-0.0306	-0.0505	33.6000	3.9560	5.1231	-0.7922	-0.0064	-0.6092	0.0354
7.77	-9.3120	-0.1784	2.4299	-0.0420	-0.0162	-0.0503	33.4650	3.8313	4.9999	-0.7922	-0.0063	-0.6091	0.0353
7.78	-9.2773	-0.1865	2.4191	-0.0427	-0.0297	-0.0502	33.6332	3.9085	5.2898	-0.7923	-0.0062	-0.6091	0.0353
7.79	-9.2222	-0.2091	2.4976	-0.0440	-0.0294	-0.0548	33.8839	3.9175	5.0561	-0.7923	-0.0061	-0.6091	0.0352
7.8	-9.2664	-0.2436	2.4367	-0.0426	-0.0170	-0.0541	33.7174	3.8079	4.9837	-0.7922	-0.0060	-0.6090	0.0352
7.81	-9.2365	-0.2555	2.4380	-0.0396	-0.0311	-0.0518	33.9163	4.1103	5.2574	-0.7924	-0.0059	-0.6091	0.0352
7.82	-9.1854	-0.2414	2.4992	-0.0379	-0.0331	-0.0443	33.7117	3.9587	5.1373	-0.7924	-0.0059	-0.6090	0.0351
7.83	-9.2367	-0.2157	2.4607	-0.0403	-0.0094	-0.0398	33.7666	3.9374	5.1027	-0.7924	-0.0058	-0.6090	0.0350
7.84	-9.2593	-0.1884	2.4448	-0.0371	-0.0178	-0.0409	33.9770	3.5188	5.0443	-0.7923	-0.0058	-0.6090	0.0349
7.85	-9.2532	-0.1905	2.4722	-0.0362	-0.0165	-0.0434	33.9048	3.7058	4.9857	-0.7924	-0.0058	-0.6090	0.0349
7.86	-9.2663	-0.2000	2.4558	-0.0295	-0.0137	-0.0413	33.9517	3.8777	5.1225	-0.7924	-0.0057	-0.6090	0.0348
7.87	-9.2691	-0.1956	2.4468	-0.0370	-0.0256	-0.0419	33.9227	3.6946	5.3338	-0.7924	-0.0057	-0.6090	0.0347
7.88	-9.2601	-0.1939	2.4513	-0.0406	-0.0248	-0.0463	33.8489	4.0382	5.1691	-0.7925	-0.0056	-0.6090	0.0347
7.89	-9.2731	-0.1978	2.4508	-0.0350	-0.0263	-0.0472	33.9654	3.8470	5.3729	-0.7924	-0.0056	-0.6089	0.0346
7.9	-9.2741	-0.1924	2.4465	-0.0402	-0.0257	-0.0478	33.6520	3.7255	5.1388	-0.7925	-0.0055	-0.6089	0.0346
7.91	-9.2643	-0.1948	2.4676	-0.0334	-0.0313	-0.0460	33.7647	3.9602	5.0853	-0.7925	-0.0055	-0.6088	0.0345
7.92	-9.2662	-0.2000	2.4556	-0.0302	-0.0283	-0.0490	33.7339	3.8477	5.2507	-0.7926	-0.0055	-0.6088	0.0345
7.93	-9.2543	-0.1994	2.4528	-0.0383	-0.0204	-0.0571	33.6493	3.8483	5.1367	-0.7926	-0.0054	-0.6088	0.0345
7.94	-9.2475	-0.2088	2.4622	-0.0440	-0.0249	-0.0473	33.9630	3.9303	5.0887	-0.7926	-0.0053	-0.6087	0.0344
7.95	-9.2572	-0.2161	2.4461	-0.0402	-0.0221	-0.0528	33.8233	4.0559	5.2201	-0.7926	-0.0052	-0.6088	0.0343
7.96	-9.2616	-0.2111	2.4525	-0.0398	-0.0168	-0.0549	33.7328	3.8995	5.1876	-0.7926	-0.0051	-0.6087	0.0343
7.97	-9.2656	-0.2035	2.4538	-0.0398	-0.0203	-0.0530	33.7913	4.0235	5.2239	-0.7926	-0.0050	-0.6088	0.0343
7.98	-9.2558	-0.2077	2.4493	-0.0399	-0.0196	-0.0507	34.0613	4.0617	5.0919	-0.7926	-0.0050	-0.6087	0.0342
7.99	-9.2594	-0.2267	2.4505	-0.0439	-0.0246	-0.0456	33.6630	3.7925	5.2411	-0.7927	-0.0049	-0.6087	0.0341
8	-9.2643	-0.2424	2.4338	-0.0381	-0.0203	-0.0452	33.5462	3.9511	5.1406	-0.7926	-0.0048	-0.6087	0.0341
8.01	-9.2508	-0.2449	2.4657	-0.0406	-0.0327	-0.0433	33.6235	3.8362	5.1050	-0.7927	-0.0048	-0.6087	0.0340
8.02	-9.2608	-0.2428	2.4568	-0.0406	-0.0244	-0.0415	33.9733	3.5362	5.0256	-0.7927	-0.0047	-0.6086	0.0339
8.03	-9.2636	-0.2306	2.4462	-0.0375	-0.0245	-0.0363	34.0172	3.7813	5.1545	-0.7928	-0.0047	-0.6086	0.0338
8.04	-9.2442	-0.2233	2.4602	-0.0262	-0.0286	-0.0382	33.6522	3.7093	5.2480	-0.7928	-0.0047	-0.6086	0.0338
8.05	-9.2383	-0.2226	2.4613	-0.0161	-0.0248	-0.0386	33.7395	3.6694	5.0948	-0.7928	-0.0047	-0.6085	0.0337
8.06	-9.2461	-0.2162	2.4609	-0.0220	-0.0234	-0.0433	33.8724	3.7900	5.1403	-0.7929	-0.0048	-0.6085	0.0337
8.07	-9.2497	-0.2015	2.4635	-0.0161	-0.0212	-0.0388	33.6703	3.6266	5.0495	-0.7928	-0.0048	-0.6085	0.0337
8.08	-9.2555	-0.1979	2.4595	-0.0171	-0.0190	-0.0380	33.9404	3.7797	4.7968	-0.7929	-0.0049	-0.6085	0.0337
8.09	-9.2775	-0.1742	2.4682	-0.0173	-0.0266	-0.0431	33.8430	3.7551	4.9460	-0.7928	-0.0049	-0.6084	0.0336
8.1	-9.2934	-0.1512	2.4438	-0.0172	-0.0270	-0.0383	33.6087	3.9170	5.1615	-0.7929	-0.0050	-0.6084	0.0336
8.11	-9.2524	-0.1411	2.4541	-0.0217	-0.0262	-0.0389	33.7222	3.7533	5.0565	-0.7930	-0.0050	-0.6083	0.0336
8.12	-9.2317	-0.1454	2.4700	-0.0232	-0.0210	-0.0377	33.8889	3.9272	5.2928	-0.7929	-0.0050	-0.6083	0.0335
8.13	-9.2469	-0.1521	2.4316	-0.0283	-0.0161	-0.0384	34.1916	4.0662	5.3911	-0.7930	-0.0051	-0.6084	0.0335
8.14	-9.2308	-0.1462	2.4458	-0.0195	-0.0242	-0.0370	34.1565	3.8975	5.4128	-0.7930	-0.0051	-0.6083	0.0334
8.15	-9.2118	-0.1359	2.4567	-0.0331	-0.0214	-0.0378	34.0594	3.9253	5.3624	-0.7931	-0.0051	-0.6083	0.0334
8.16	-9.2165	-0.1436	2.4411	-0.0372	-0.0125	-0.0408	33.6977	3.8490	5.0345	-0.7929	-0.0051	-0.6082	0.0333
8.17	-9.2285	-0.1442	2.4293	-0.0319	0.0007	-0.0437	33.6392	3.8918	4.8335	-0.7930	-0.0051	-0.6084	0.0332
8.18	-9.2394	-0.1428	2.4174	-0.0371	-0.0073	-0.0362	33.6461	3.8185	4.9865	-0.7929	-0.0050	-0.6084	0.0331
8.19	-9.2450	-0.1598	2.4259	-0.0374	-0.0159	-0.0370	33.5864	3.7857	5.1969	-0.7929	-0.0050	-0.6084	0.0330
8.2	-9.2593	-0.1631	2.4107	-0.0405	-0.0102	-0.0366	33.9353	3.7868	5.0563	-0.7929	-0.0050	-0.6085	0.0329
8.21	-9.2780	-0.1710	2.4069	-0.0378	-0.0085	-0.0417	34.0202	3.6905	4.9452	-0.7929	-0.0050	-0.6085	0.0329
8.22	-9.2867	-0.1720	2.3940	-0.0366	-0.0133	-0.0452	34.0958	3.9066	5.0638	-0.7929	-0.0049	-0.6085	0.0328
8.23	-9.2799	-0.1916	2.3958	-0.0367	-0.0189	-0.0481	34.1269	3.7979	5.0779	-0.7928	-0.0049	-0.6085	0.0327
8.24	-9.2878	-0.2051	2.3965	-0.0346	-0.0222	-0.0430	34.0108	3.6724	4.9802	-0.7929	-0.0049	-0.6085	0.0327
8.25	-9.3136	-0.1765	2.3928	-0.0433	-0.0218	-0.0465	34.0113	3.7579	5.1211	-0.7929	-0.0048	-0.6085	0.0326
8.26	-9.3586	-0.1730	2.4064	-0.0404	-0.0236	-0.0437	33.8419	3.8199	5.0243	-0.7929	-0.0047	-0.6085	0.0325
8.27	-9.3589	-0.1658	2.3989	-0.0377	-0.0233	-0.0450	33.7633	3.6845	5.3072	-0.7929	-0.0047	-0.6084	0.0325
8.28	-9.3411	-0.1512	2.4302	-0.0408	-0.0314	-0.0501	33.8712	3.7237	5.2152	-0.7930	-0.0046	-0.6084	0.0324
8.29	-9.3551	-0.1613	2.4183	-0.0411	-0.0356	-0.0470	34.0352	3.8765	5.1494	-0.7930	-0.0045	-0.6083	0.0324
8.3	-9.3557	-0.1535	2.4136	-0.0383	-0.0429	-0.0492	33.9565	3.8767	5.1787	-0.7930	-0.0045	-0.6082	0.0323
8.31	-9.3192	-0.1560	2.4496	-0.0452	-0.0515	-0.0482	33.7197	3.9926	5.0499	-0.7932	-0.0044	-0.6081	0.0322
8.32	-9.2873	-0.1776	2.4646	-0.0418	-0.0587	-0.0436	33.7955	3.7743	4.9213	-0.7933	-0.0043	-0.6079	0.0322
8.33	-9.2622	-0.1957	2.4736	-0.0426	-0.0614	-0.0451	33.9439	3.6548	4.8736	-0.7935	-0.0043	-0.6078	0.0321
8.34	-9.2117	-0.2005	2.4970	-0.0414	-0.0619	-0.0523	33.9263	3.8269	4.9869	-0.7936	-0.0042	-0.6076	0.0320
8.35	-9.1812	-0.2062	2.5320	-0.0411	-0.0613	-0.0451	33.9660	3.8762	4.9913	-0.7937	-0.0041	-0.6074	0.0320
8.36	-9.1794	-0.2190	2.5144	-0.0421	-0.0477	-0.0451	33.6652	4.0885	4.7499	-0.7938	-0.0040	-0.6073	0.0319
8.37	-9.1776	-0.2420	2.5274	-0.0418	-0.0431	-0.0428	33.5121	3.8803	4.9812	-0.7939	-0.0040	-0.6072	0.0318
8.38	-9.1722	-0.2560	2.5462	-0.0431	-0.0426	-0.0403	33.9274	3.7964	4.9691	-0.7941	-0.0039	-0.6071	0.0317
8.39	-9.1743	-0.2458	2.5337	-0.0220	-0.0328	-0.0413	34.2191	3.8774	4.7400	-0.7940	-0.0039	-0.6070	0.0317
8.4	-9.1742	-0.2321	2.5388	-0.0210	-0.0309	-0.0480	33.8924	3.7464	4.8347	-0.7941	-0.0040	-0.6070	0.0317
8.41	-9.1562	-0.2375	2.5413	-0.0193	-0.0319	-0.0477	33.8136	3.8282	4.7623	-0.7941	-0.0040	-0.6069	0.0317
8.42	-9.1684	-0.2268	2.5389	-0.0142	-0.0236	-0.0445	33.9897	3.6397	4.9602	-0.7942	-0.0040	-0.6069	0.0317
8.43	-9.2140	-0.2029	2.5416	-0.0157	-0.0144	-0.0453	33.8720	3.6238	4.7919	-0.7941	-0.0041	-0.6069	0.0317
8.44	-9.2585	-0.2020	2.5241	-0.0097	-0.0038	-0.0465	33.8155	3.5879	4.9028	-0.7941	-0.0041	-0.6069	0.0317
8.45	-9.2650	-0.1834	2.5195	-0.0069	-0.0185	-0.0498	34.0656	3.7436	4.7727	-0.7941	-0.0042	-0.6069	0.0318
8.46	-9.2532	-0.1730	2.5267	-0.0167	-0.0259	-0.0508	33.9943	3.9017	4.8549	-0.7941	-0.0042	-0.6069	0.0318
8.47	-9.2711	-0.1734	2.5313	-0.0157	-0.0195	-0.0495	33.8783	3.6893	5.0824	-0.7942	-0.0042	-0.6069	0.0318
8.48	-9.3048	-0.1735	2.5242	-0.0134	-0.0221	-0.0476	33.7362	3.7128	5.1643	-0.7941	-0.0043	-0.6068	0.0318
8.49	-9.2724	-0.1635	2.5019	-0.0175	-0.0288	-0.0477	33.8914	3.6997	5.0596	-0.7942	-0.0043	-0.6068	0.0318
8.5	-9.1964	-0.1612	2.5553	-0.0180	-0.0315	-0.0528	33.7913	3.8704	4.9317	-0.7942	-0.0043	-0.6068	0.0319
8.51	-9.2173	-0.1626	2.5516	-0.0245	-0.0211	-0.0475	34.0343	3.8731	5.0820	-0.7943	-0.0043	-0.6068	0.0319
8.52	-9.2571	-0.1832	2.5276	-0.0238	-0.0194	-0.0426	33.9185	3.9804	5.0588	-0.7942	-0.0043	-0.6067	0.0318
8.53	-9.2535	-0.2058	2.5661	-0.0247	-0.0146	-0.0450	34.1092	3.9554	5.0963	-0.7942	-0.0043	-0.6067	0.0318
8.54	-9.2547	-0.1995	2.5428	-0.0245	-0.0213	-0.0369	33.8321	3.8214	5.0062	-0.7943	-0.0044	-0.6067	0.0318
8.55	-9.2391	-0.2267	2.5344	-0.0209	-0.0162	-0.0411	33.7214	4.0132	4.9598	-0.7942	-0.0044	-0.6067	0.0317
8.56	-9.2062	-0.2577	2.5363	-0.0231	-0.0258	-0.0374	33.8778	3.8083	5.0977	-0.7943	-0.0044	-0.6067	0.0317
8.57	-9.1946	-0.2203	2.5533	-0.0164	-0.0217	-0.0331	33.8593	3.7026	4.8987	-0.7943	-0.0045	-0.6067	0.0316
8.58	-9.2179	-0.1994	2.5318	-0.0189	-0.0153	-0.0248	34.0349	3.6186	4.6570	-0.7944	-0.0046	-0.6067	0.0316
8.59	-9.2211	-0.1842	2.5151	-0.0201	-0.0260	-0.0246	34.0293	3.7151	4.9405	-0.7943	-0.0047	-0.6066	0.0315
8.6	-9.2058	-0.1451	2.4946	-0.0096	-0.0230	-0.0274	34.1279	3.7859	4.9451	-0.7944	-0.0048	-0.6066	0.0314
8.61	-9.1700	-0.1300	2.4948	-0.0136	-0.0246	-0.0331	33.9385	3.5106	4.7581	-0.7944	-0.0049	-0.6066	0.0314
8.62	-9.1904	-0.1152	2.5129	-0.0155	0.0007	-0.0348	33.9673	3.8305	5.1333	-0.7943	-0.0050	-0.6066	0.0313
8.63	-9.2094	-0.1203	2.4463	-0.0116	0.0016	-0.0362	34.4016	3.7636	5.0214	-0.7943	-0.0051	-0.6068	0.0313
8.64	-9.1931	-0.1028	2.4819	-0.0117	-0.0016	-0.0435	34.4313	3.7179	5.0380	-0.7942	-0.0051	-0.6068	0.0313
8.65	-9.2203	-0.0764	2.4751	-0.0167	0.0114	-0.0540	33.9588	3.8768	5.1993	-0.7942	-0.0052	-0.6069	0.0314
8.66	-9.2459	-0.0893	2.4390	-0.0167	0.0060	-0.0544	33.7922	3.7401	4.9733	-0.7940	-0.0052	-0.6069	0.0314
8.67	-9.2382	-0.1018	2.4679	-0.0184	0.0021	-0.0612	33.8520	3.8735	5.0424	-0.7940	-0.0052	-0.6071	0.0315
8.68	-9.2836	-0.0818	2.4594	-0.0273	0.0178	-0.0534	33.6447	4.1328	4.9879	-0.7939	-0.0051	-0.6072	0.0315
8.69	-9.3262	-0.0761	2.4306	-0.0365	0.0103	-0.0506	33.6250	3.7467	5.0539	-0.7938	-0.0051	-0.6073	0.0314
8.7	-9.3215	-0.1032	2.4542	-0.0457	-0.0076	-0.0423	33.8149	3.7775	4.8775	-0.7938	-0.0050	-0.6074	0.0313
8.71	-9.3229	-0.1101	2.4539	-0.0429	-0.0118	-0.0425	33.6038	3.9762	5.0027	-0.7938	-0.0050	-0.6074	0.0312
8.72	-9.3427	-0.1252	2.4303	-0.0514	-0.0009	-0.0367	33.8001	3.9334	5.1603	-0.7938	-0.0049	-0.6075	0.0311
8.73	-9.3057	-0.1599	2.4157	-0.0654	-0.0138	-0.0377	33.6648	3.8563	5.0011	-0.7937	-0.0048	-0.6074	0.0309
8.74	-9.3332	-0.1608	2.4809	-0.0621	-0.0082	-0.0375	33.4915	3.8464	5.0147	-0.7937	-0.0047	-0.6075	0.0308
8.75	-9.4418	-0.1743	2.4006	-0.0587	-0.0005	-0.0404	33.7894	3.8141	4.7048	-0.7936	-0.0045	-0.6076	0.0306
8.76	-9.3661	-0.1591	2.3922	-0.0599	-0.0440	-0.0465	33.7466	3.4429	4.8415	-0.7937	-0.0044	-0.6075	0.0305
8.77	-9.2575	-0.1739	2.4969	-0.0618	-0.0444	-0.0540	33.8673	3.6413	4.9163	-0.7938	-0.0042	-0.6074	0.0304
8.78	-9.3129	-0.2408	2.4259	-0.0533	-0.0244	-0.0550	33.8613	3.6201	5.1109	-0.7938	-0.0041	-0.6074	0.0303
8.79	-9.3012	-0.2651	2.4119	-0.0569	-0.0524	-0.0537	34.0407	3.4707	5.0497	-0.7939	-0.0039	-0.6073	0.0302
8.8	-9.2188	-0.2712	2.4779	-0.0423	-0.0566	-0.0487	33.9696	3.8182	5.0313	-0.7940	-0.0039	-0.6070	0.0302
8.81	-9.2274	-0.2521	2.4843	-0.0393	-0.0420	-0.0510	33.8097	3.6141	4.9775	-0.7942	-0.0038	-0.6070	0.0301
8.82	-9.2294	-0.2523	2.4679	-0.0287	-0.0529	-0.0432	33.7776	3.9015	4.9894	-0.7942	-0.0038	-0.6069	0.0301
8.83	-9.1806	-0.2624	2.5056	-0.0241	-0.0571	-0.0415	33.7101	3.6446	5.1769	-0.7944	-0.0038	-0.6067	0.0301
8.84	-9.1777	-0.2375	2.5110	-0.0155	-0.0333	-0.0415	33.5701	3.4515	5.0039	-0.7944	-0.0038	-0.6066	0.0300
8.85	-9.1821	-0.2446	2.4800	-0.0115	-0.0407	-0.0394	33.7086	3.7637	4.8855	-0.7945	-0.0039	-0.6065	0.0300
8.86	-9.1596	-0.2124	2.5122	-0.0106	-0.0309	-0.0456	33.6640	3.7451	4.8459	-0.7945	-0.0040	-0.6065	0.0301
8.87	-9.1809	-0.1776	2.4856	-0.0113	-0.0204	-0.0435	33.6898	3.7732	5.0537	-0.7945	-0.0040	-0.6064	0.0301
8.88	-9.2051	-0.1557	2.4746	0.0025	-0.0188	-0.0488	33.6669	3.8363	4.9855	-0.7946	-0.0041	-0.6065	0.0301
8.89	-9.2256	-0.1224	2.4881	0.0044	-0.0120	-0.0488	33.8513	3.7519	5.2195	-0.7945	-0.0042	-0.6064	0.0302
8.9	-9.2492	-0.1076	2.4660	-0.0067	-0.0161	-0.0497	33.8119	3.7565	5.0953	-0.7946	-0.0043	-0.6065	0.0303
8.91	-9.2424	-0.0984	2.4749	-0.0098	-0.0190	-0.0523	33.6584	3.7753	4.8003	-0.7945	-0.0043	-0.6064	0.0303
8.92	-9.2713	-0.0986	2.4842	-0.0133	-0.0152	-0.0540	33.6857	3.8301	4.8461	-0.7945	-0.0044	-0.6065	0.0304
8.93	-9.3032	-0.0982	2.4323	-0.0155	-0.0176	-0.0518	33.8711	3.9327	5.0116	-0.7945	-0.0044	-0.6065	0.0304
8.94	-9.2374	-0.0904	2.4508	-0.0171	-0.0419	-0.0468	34.0684	3.8138	4.9615	-0.7946	-0.0044	-0.6064	0.0304
8.95	-9.1796	-0.1051	2.4846	-0.0177	-0.0308	-0.0493	33.9196	3.5477	4.8057	-0.7947	-0.0044	-0.6063	0.0304
8.96	-9.2274	-0.1103	2.4640	-0.0135	-0.0201	-0.0440	33.8352	3.4583	5.0107	-0.7946	-0.0045	-0.6063	0.0304
8.97	-9.2266	-0.1128	2.4492	-0.0183	-0.0277	-0.0414	33.8733	3.6172	4.8097	-0.7947	-0.0045	-0.6063	0.0304
8.98	-9.2041	-0.1026	2.5061	-0.0183	-0.0293	-0.0548	33.8365	3.7813	4.9523	-0.7947	-0.0045	-0.6061	0.0304
8.99	-9.2557	-0.0755	2.5144	-0.0141	-0.0069	-0.0610	33.8878	3.6620	4.9928	-0.7947	-0.0045	-0.6062	0.0305
9	-9.2829	-0.0785	2.4797	-0.0173	-0.0051	-0.0650	33.9573	3.6453	5.1381	-0.7946	-0.0045	-0.6063	0.0306
9.01	-9.2818	-0.0643	2.5306	-0.0131	-0.0191	-0.0836	33.9563	3.5421	5.1898	-0.7947	-0.0045	-0.6063	0.0307
9.02	-9.3377	-0.1045	2.5158	-0.0182	0.0007	-0.0871	33.8461	3.7947	4.8830	-0.7946	-0.0044	-0.6063	0.0309
9.03	-9.3597	-0.1508	2.4554	-0.0204	-0.0159	-0.0939	33.6220	3.6246	5.0657	-0.7946	-0.0043	-0.6064	0.0311
9.04	-9.3130	-0.1488	2.5052	-0.0268	-0.0379	-0.0909	33.7315	3.9357	4.7900	-0.7946	-0.0041	-0.6063	0.0313
9.05	-9.2674	-0.1480	2.5095	-0.0415	-0.0430	-0.0884	33.5526	3.8625	4.9350	-0.7946	-0.0039	-0.6061	0.0314
9.06	-9.2575	-0.1758	2.5070	-0.0434	-0.0434	-0.0856	33.7347	3.7352	5.0207	-0.7948	-0.0037	-0.6061	0.0314
9.07	-9.2162	-0.1876	2.5092	-0.0426	-0.0471	-0.0810	34.0482	3.7802	5.1988	-0.7948	-0.0035	-0.6060	0.0315
9.08	-9.1861	-0.1624	2.5377	-0.0499	-0.0391	-0.0774	33.7726	3.7484	4.8725	-0.7950	-0.0034	-0.6059	0.0315
9.09	-9.1877	-0.1518	2.5262	-0.0638	-0.0365	-0.0740	33.7599	3.7684	4.8044	-0.7949	-0.0031	-0.6058	0.0315
9.1	-9.1660	-0.1713	2.5236	-0.0691	-0.0376	-0.0637	33.8962	3.8680	5.0996	-0.7950	-0.0029	-0.6057	0.0314
9.11	-9.1559	-0.2117	2.5542	-0.0687	-0.0271	-0.0684	34.0039	3.8374	4.9394	-0.7951	-0.0027	-0.6057	0.0314
9.12	-9.1741	-0.2332	2.5302	-0.0766	-0.0133	-0.0622	34.1173	3.9144	5.2295	-0.7950	-0.0024	-0.6057	0.0313
9.13	-9.1891	-0.2297	2.5396	-0.0699	-0.0106	-0.0629	34.2446	4.0775	5.1700	-0.7951	-0.0022	-0.6058	0.0312
9.14	-9.1960	-0.2355	2.5420	-0.0693	-0.0035	-0.0560	34.1897	4.0920	4.9650	-0.7950	-0.0020	-0.6058	0.0311
9.15	-9.2088	-0.2198	2.5447	-0.0762	-0.0133	-0.0626	34.0687	3.9704	4.8179	-0.7950	-0.0017	-0.6059	0.0310
9.16	-9.2383	-0.2108	2.5615	-0.0674	-0.0075	-0.0644	33.9780	4.0741	4.8570	-0.7949	-0.0015	-0.6058	0.0309
9.17	-9.2665	-0.2044	2.5446	-0.0700	-0.0005	-0.0610	33.9903	3.9066	5.0278	-0.7949	-0.0013	-0.6060	0.0308
9.18	-9.2681	-0.1923	2.5576	-0.0756	-0.0137	-0.0633	33.9897	3.8696	4.7546	-0.7949	-0.0010	-0.6060	0.0307
9.19	-9.2715	-0.2077	2.5450	-0.0792	0.0013	-0.0624	33.8150	3.8878	4.6647	-0.7948	-0.0008	-0.6060	0.0306
9.2	-9.2594	-0.2451	2.5156	-0.0871	-0.0206	-0.0651	33.8342	3.8646	4.8516	-0.7949	-0.0005	-0.6061	0.0304
9.21	-9.2149	-0.2616	2.5259	-0.0843	-0.0220	-0.0638	33.7003	3.9100	4.8604	-0.7948	-0.0002	-0.6060	0.0303
9.22	-9.1915	-0.2907	2.5172	-0.0797	-0.0164	-0.0570	33.8054	4.0038	4.7770	-0.7949	0.0001	-0.6061	0.0302
9.23	-9.2137	-0.3232	2.5034	-0.0779	-0.0054	-0.0474	33.9168	3.8650	4.8082	-0.7948	0.0003	-0.6061	0.0300
9.24	-9.2654	-0.3387	2.5059	-0.0712	0.0004	-0.0404	34.0340	3.8891	4.6967	-0.7948	0.0004	-0.6062	0.0298
9.25	-9.3049	-0.3569	2.5027	-0.0680	-0.0082	-0.0369	33.9739	3.8666	4.8566	-0.7947	0.0006	-0.6062	0.0296
9.26	-9.3044	-0.3556	2.5027	-0.0633	-0.0199	-0.0399	33.8239	3.9306	4.7014	-0.7948	0.0007	-0.6062	0.0295
9.27	-9.2778	-0.3487	2.5251	-0.0430	-0.0269	-0.0444	33.8335	4.1691	4.6940	-0.7948	0.0008	-0.6062	0.0294
9.28	-9.2743	-0.3519	2.5110	-0.0383	-0.0207	-0.0494	33.9544	4.2510	4.9720	-0.7948	0.0009	-0.6062	0.0293
9.29	-9.2951	-0.3265	2.5154	-0.0280	-0.0281	-0.0521	33.8697	3.7999	4.7428	-0.7948	0.0009	-0.6062	0.0293
9.3	-9.2791	-0.3039	2.5361	-0.0165	-0.0384	-0.0464	33.7164	3.8614	4.6885	-0.7948	0.0009	-0.6060	0.0293
9.31	-9.2807	-0.2725	2.5482	-0.0156	-0.0390	-0.0518	33.8660	3.9841	4.8171	-0.7950	0.0008	-0.6060	0.0293
9.32	-9.2494	-0.2435	2.5524	-0.0070	-0.0518	-0.0473	33.7880	3.9754	4.6460	-0.7950	0.0008	-0.6058	0.0294
9.33	-9.1916	-0.1726	2.5823	-0.0063	-0.0457	-0.0413	33.9664	3.8969	4.8084	-0.7952	0.0007	-0.6058	0.0294
9.34	-9.2072	-0.1221	2.5717	-0.0132	-0.0334	-0.0447	34.1314	3.8826	4.7866	-0.7951	0.0006	-0.6056	0.0294
9.35	-9.2331	-0.1030	2.5515	-0.0165	-0.0296	-0.0559	33.9449	3.7398	4.9540	-0.7952	0.0006	-0.6056	0.0295
9.36	-9.1927	-0.0867	2.5913	-0.0368	-0.0387	-0.0606	33.9134	3.7431	4.7829	-0.7953	0.0007	-0.6055	0.0295
9.37	-9.1902	-0.1116	2.5952	-0.0453	-0.0252	-0.0506	33.9184	4.1296	4.5855	-0.7953	0.0008	-0.6054	0.0294
9.38	-9.2304	-0.1589	2.5838	-0.0503	-0.0284	-0.0495	33.9244	3.7833	4.7269	-0.7954	0.0009	-0.6055	0.0293
9.39	-9.2456	-0.1991	2.6073	-0.0606	-0.0331	-0.0463	33.9128	4.0183	4.7085	-0.7954	0.0011	-0.6054	0.0292
9.4	-9.2484	-0.2253	2.5835	-0.0680	-0.0314	-0.0499	33.9329	3.9575	4.6831	-0.7955	0.0012	-0.6054	0.0291
9.41	-9.2218	-0.2511	2.5829	-0.0685	-0.0411	-0.0502	33.8955	3.7458	4.8278	-0.7955	0.0014	-0.6052	0.0289
9.42	-9.1780	-0.2704	2.5949	-0.0658	-0.0357	-0.0496	33.9575	4.0377	4.7543	-0.7956	0.0016	-0.6052	0.0288
9.43	-9.1582	-0.2789	2.5759	-0.0648	-0.0335	-0.0497	34.0083	3.9046	4.7360	-0.7956	0.0018	-0.6051	0.0287
9.44	-9.1415	-0.2783	2.5978	-0.0677	-0.0314	-0.0487	34.0716	3.8030	4.8390	-0.7956	0.0019	-0.6050	0.0285
9.45	-9.1367	-0.2789	2.5937	-0.0612	-0.0203	-0.0497	34.2149	3.7825	4.7802	-0.7957	0.0021	-0.6051	0.0284
9.46	-9.1509	-0.2790	2.5522	-0.0599	-0.0093	-0.0497	33.7590	3.8061	4.6910	-0.7956	0.0022	-0.6051	0.0283
9.47	-9.1296	-0.2832	2.5354	-0.0628	0.0002	-0.0544	33.7746	3.9748	4.7197	-0.7956	0.0024	-0.6052	0.0282
9.48	-9.1241	-0.2970	2.5364	-0.0624	0.0107	-0.0507	33.9580	3.8894	4.6882	-0.7955	0.0026	-0.6052	0.0281
9.49	-9.1826	-0.3160	2.4998	-0.0563	0.0267	-0.0488	33.7620	3.7574	4.7446	-0.7954	0.0027	-0.6055	0.0280
9.5	-9.2328	-0.3165	2.4689	-0.0484	0.0179	-0.0509	33.7889	3.8237	4.6328	-0.7953	0.0028	-0.6056	0.0279
9.51	-9.2552	-0.3001	2.4740	-0.0497	0.0048	-0.0509	34.1116	3.7035	4.6728	-0.7952	0.0029	-0.6057	0.0278
9.52	-9.2770	-0.2975	2.4717	-0.0460	0.0062	-0.0483	34.0941	3.7140	4.9223	-0.7951	0.0030	-0.6058	0.0278
9.53	-9.2961	-0.2927	2.4584	-0.0428	0.0013	-0.0500	34.0862	3.6809	4.6503	-0.7951	0.0031	-0.6058	0.0277
9.54	-9.3171	-0.2956	2.4456	-0.0452	0.0051	-0.0538	33.9207	3.7876	4.7552	-0.7950	0.0032	-0.6060	0.0277
9.55	-9.3035	-0.3112	2.4321	-0.0407	-0.0128	-0.0408	33.9184	4.0831	4.5974	-0.7949	0.0032	-0.6059	0.0276
9.56	-9.2823	-0.3226	2.4489	-0.0433	-0.0042	-0.0439	33.9180	4.0375	4.6177	-0.7950	0.0033	-0.6060	0.0275
9.57	-9.2792	-0.3191	2.4147	-0.0436	0.0034	-0.0443	33.9322	4.0749	4.7604	-0.7949	0.0033	-0.6061	0.0274
9.58	-9.3142	-0.3072	2.4279	-0.0418	-0.0059	-0.0400	33.8695	3.9936	4.5885	-0.7949	0.0034	-0.6062	0.0273
9.59	-9.3216	-0.3017	2.4075	-0.0409	-0.0120	-0.0431	33.7040	3.8580	4.7351	-0.7948	0.0034	-0.6061	0.0272
9.6	-9.2937	-0.2797	2.4559	-0.0354	-0.0307	-0.0404	33.8991	3.8939	4.7804	-0.7949	0.0035	-0.6061	0.0272
9.61	-9.3736	-0.2613	2.4907	-0.0394	-0.0113	-0.0496	33.8971	3.8552	4.5111	-0.7949	0.0035	-0.6061	0.0271
9.62	-9.4005	-0.2818	2.4064	-0.0351	-0.0308	-0.0541	34.0585	3.9613	4.8856	-0.7949	0.0036	-0.6061	0.0271
9.63	-9.3096	-0.2861	2.5321	-0.0433	-0.0492	-0.0557	34.3380	4.0755	5.0193	-0.7951	0.0037	-0.6060	0.0271
9.64	-9.3241	-0.3115	2.4937	-0.0353	-0.0302	-0.0523	34.2184	4.0554	4.9236	-0.7950	0.0038	-0.6059	0.0270
9.65	-9.3295	-0.3189	2.4598	-0.0301	-0.0494	-0.0499	34.1017	4.0833	4.7289	-0.7952	0.0038	-0.6058	0.0270
9.66	-9.2657	-0.3119	2.5542	-0.0321	-0.0583	-0.0449	33.8086	4.2145	4.7233	-0.7952	0.0038	-0.6056	0.0270
9.67	-9.2551	-0.3194	2.5127	-0.0265	-0.0482	-0.0462	33.6039	4.1474	4.7555	-0.7954	0.0038	-0.6055	0.0269
9.68	-9.2211	-0.3044	2.5435	-0.0201	-0.0627	-0.0527	33.9953	3.9248	4.7264	-0.7955	0.0038	-0.6053	0.0269
9.69	-9.1952	-0.3170	2.5716	-0.0220	-0.0632	-0.0427	33.8449	3.9473	4.8434	-0.7956	0.0038	-0.6051	0.0269
9.7	-9.1825	-0.3311	2.5663	-0.0235	-0.0639	-0.0405	34.0219	3.8321	4.7490	-0.7958	0.0038	-0.6050	0.0269
9.71	-9.1585	-0.3304	2.5972	-0.0170	-0.0613	-0.0439	34.2553	3.7172	4.6168	-0.7959	0.0038	-0.6048	0.0269
9.72	-9.1326	-0.3214	2.6086	-0.0179	-0.0538	-0.0459	34.0970	3.6242	4.7498	-0.7961	0.0037	-0.6047	0.0269
9.73	-9.1340	-0.3071	2.6283	-0.0171	-0.0456	-0.0482	34.1618	3.8581	4.7591	-0.7961	0.0037	-0.6045	0.0269
9.74	-9.1510	-0.3194	2.6052	-0.0180	-0.0343	-0.0454	34.1432	3.8425	4.6434	-0.7962	0.0037	-0.6045	0.0269
9.75	-9.1520	-0.3077	2.6226	-0.0171	-0.0354	-0.0464	34.1086	3.5323	4.4965	-0.7962	0.0037	-0.6044	0.0269
9.76	-9.1451	-0.2989	2.6126	-0.0178	-0.0246	-0.0388	34.0176	3.7332	4.5272	-0.7963	0.0036	-0.6044	0.0269
9.77	-9.1560	-0.2959	2.6120	-0.0178	-0.0240	-0.0356	34.0862	3.8606	4.6993	-0.7963	0.0036	-0.6043	0.0268
9.78	-9.1740	-0.2879	2.6080	-0.0165	-0.0163	-0.0355	34.1350	3.7300	4.6219	-0.7963	0.0035	-0.6043	0.0268
9.79	-9.1604	-0.2680	2.5848	-0.0185	-0.0109	-0.0372	33.9792	3.9579	4.5349	-0.7963	0.0034	-0.6043	0.0268
9.8	-9.1568	-0.2594	2.6017	-0.0194	-0.0115	-0.0353	33.9447	3.8917	4.6584	-0.7962	0.0034	-0.6043	0.0267
9.81	-9.1922	-0.2702	2.5626	-0.0231	-0.0001	-0.0381	34.0018	4.0939	4.6628	-0.7963	0.0033	-0.6045	0.0267
9.82	-9.2075	-0.2543	2.5415	-0.0298	-0.0129	-0.0285	33.7477	4.0318	4.6384	-0.7962	0.0033	-0.6044	0.0266
9.83	-9.2049	-0.2474	2.5508	-0.0146	-0.0070	-0.0279	33.9669	3.8775	4.6907	-0.7962	0.0032	-0.6045	0.0265
9.84	-9.2225	-0.2270	2.5373	-0.0167	0.0009	-0.0333	33.8577	4.0476	4.5245	-0.7961	0.0031	-0.6045	0.0265
9.85	-9.2575	-0.1996	2.5045	-0.0189	0.0058	-0.0303	33.8136	4.0048	4.6225	-0.7961	0.0031	-0.6046	0.0264
9.86	-9.2840	-0.1838	2.4854	-0.0185	-0.0014	-0.0322	33.8466	3.8383	4.8075	-0.7960	0.0030	-0.6047	0.0263
9.87	-9.2671	-0.1743	2.4652	-0.0174	-0.0087	-0.0355	33.7599	3.9372	4.6511	-0.7959	0.0029	-0.6047	0.0263
9.88	-9.2826	-0.1780	2.4954	-0.0183	-0.0151	-0.0370	33.8792	3.7275	4.6502	-0.7960	0.0029	-0.6048	0.0263
9.89	-9.3279	-0.1814	2.4544	-0.0171	-0.0071	-0.0357	34.0746	3.7843	4.5507	-0.7959	0.0028	-0.6048	0.0262
9.9	-9.3418	-0.1830	2.4722	-0.0170	-0.0287	-0.0470	34.1202	3.6784	4.5754	-0.7960	0.0028	-0.6048	0.0262
9.91	-9.3452	-0.1871	2.5128	-0.0161	-0.0249	-0.0500	33.9329	3.6786	4.5755	-0.7960	0.0027	-0.6047	0.0263
9.92	-9.3706	-0.1744	2.4925	-0.0172	-0.0366	-0.0569	34.0746	3.5240	4.6736	-0.7961	0.0027	-0.6046	0.0263
9.93	-9.3381	-0.1652	2.4921	-0.0162	-0.0473	-0.0601	34.0784	3.5410	4.8772	-0.7961	0.0027	-0.6045	0.0264
9.94	-9.2893	-0.1514	2.5422	-0.0182	-0.0569	-0.0537	34.1941	3.8859	4.6837	-0.7963	0.0027	-0.6043	0.0264
9.95	-9.2708	-0.1654	2.5259	-0.0162	-0.0538	-0.0544	34.0018	3.7300	4.5562	-0.7964	0.0027	-0.6042	0.0264
9.96	-9.2272	-0.1728	2.5284	-0.0286	-0.0648	-0.0595	34.1197	3.6443	4.8264	-0.7965	0.0028	-0.6040	0.0265
9.97	-9.1784	-0.1737	2.6024	-0.0444	-0.0587	-0.0597	34.1071	3.7248	4.4626	-0.7967	0.0029	-0.6039	0.0264
9.98	-9.1965	-0.1731	2.5627	-0.0409	-0.0377	-0.0545	33.9361	3.8402	4.5580	-0.7967	0.0030	-0.6037	0.0264
9.99	-9.1833	-0.1856	2.5576	-0.0432	-0.0495	-0.0604	34.0923	4.0719	4.6937	-0.7968	0.0031	-0.6037	0.0264
10	-9.1361	-0.1942	2.6201	-0.0447	-0.0509	-0.0567	34.0178	3.9585	4.7693	-0.7969	0.0032	-0.6035	0.0264
10.01	-9.1597	-0.2097	2.5929	-0.0479	-0.0320	-0.0610	33.8718	3.9244	4.7341	-0.7970	0.0034	-0.6035	0.0263
10.02	-9.1777	-0.2358	2.5721	-0.0414	-0.0388	-0.0611	33.8812	3.9278	4.7685	-0.7970	0.0035	-0.6034	0.0263
10.03	-9.1406	-0.2559	2.5868	-0.0458	-0.0433	-0.0585	33.9909	4.0779	4.7098	-0.7971	0.0036	-0.6033	0.0263
10.04	-9.1324	-0.2583	2.6139	-0.0464	-0.0296	-0.0559	33.9495	4.0875	4.4187	-0.7972	0.0037	-0.6032	0.0262
10.05	-9.1632	-0.2667	2.5864	-0.0478	-0.0227	-0.0528	34.0349	3.8877	4.6619	-0.7971	0.0038	-0.6031	0.0262
10.06	-9.1657	-0.2757	2.5745	-0.0472	-0.0261	-0.0479	34.1955	4.0839	4.6596	-0.7972	0.0039	-0.6032	0.0261
10.07	-9.1401	-0.2737	2.5924	-0.0420	-0.0303	-0.0434	33.9172	3.9208	4.8090	-0.7972	0.0040	-0.6031	0.0260
10.08	-9.1451	-0.2937	2.5940	-0.0434	-0.0218	-0.0436	34.1767	3.8025	4.6043	-0.7973	0.0040	-0.6031	0.0259
10.09	-9.1883	-0.2940	2.5810	-0.0404	-0.0066	-0.0454	34.3608	3.9694	4.4601	-0.7972	0.0041	-0.6031	0.0259
10.1	-9.2226	-0.3232	2.5556	-0.0442	-0.0054	-0.0497	34.0651	3.5468	4.3590	-0.7972	0.0042	-0.6032	0.0258
10.11	-9.2168	-0.3232	2.5831	-0.0346	-0.0066	-0.0458	34.0145	3.6657	4.6439	-0.7972	0.0042	-0.6032	0.0258
10.12	-9.2359	-0.3120	2.5811	-0.0317	-0.0009	-0.0441	33.9463	3.9454	4.6409	-0.7971	0.0042	-0.6032	0.0257
10.13	-9.2991	-0.3044	2.5587	-0.0313	0.0027	-0.0493	34.6691	4.0292	4.8032	-0.7971	0.0043	-0.6034	0.0257
10.14	-9.3069	-0.3100	2.5599	-0.0170	-0.0146	-0.0489	34.7195	3.8996	4.7952	-0.7970	0.0043	-0.6034	0.0257
10.15	-9.2798	-0.3137	2.5915	-0.0191	-0.0284	-0.0521	34.2966	3.9256	4.4688	-0.7971	0.0042	-0.6034	0.0257
10.16	-9.2660	-0.3224	2.6114	-0.0109	-0.0287	-0.0540	34.1575	3.7498	4.5105	-0.7970	0.0042	-0.6032	0.0258
10.17	-9.2602	-0.3211	2.6029	-0.0043	-0.0270	-0.0616	34.0426	4.0218	4.5644	-0.7971	0.0042	-0.6033	0.0259
10.18	-9.2216	-0.2941	2.6145	-0.0082	-0.0414	-0.0593	34.1708	4.1794	4.6095	-0.7972	0.0042	-0.6032	0.0260
10.19	-9.1508	-0.3086	2.6150	-0.0056	-0.0438	-0.0569	33.9939	3.8083	4.4169	-0.7973	0.0041	-0.6030	0.0260
10.2	-9.1126	-0.3112	2.6203	-0.0100	-0.0348	-0.0610	34.0493	4.0337	4.4470	-0.7973	0.0041	-0.6030	0.0261
10.21	-9.1245	-0.2727	2.6250	-0.0001	-0.0257	-0.0535	33.9650	4.0937	4.5708	-0.7974	0.0040	-0.6029	0.0262
10.22	-9.1207	-0.2243	2.6197	0.0058	-0.0125	-0.0563	33.9603	3.9067	4.6627	-0.7974	0.0039	-0.6030	0.0263
10.23	-9.1030	-0.1870	2.6252	-0.0015	0.0042	-0.0605	34.1443	3.9868	4.5086	-0.7972	0.0039	-0.6030	0.0264
10.24	-9.1478	-0.1590	2.6054	-0.0113	0.0228	-0.0648	33.8652	3.9457	4.5534	-0.7972	0.0039	-0.6032	0.0265
10.25	-9.2042	-0.1693	2.5434	-0.0182	0.0259	-0.0712	34.0055	4.2809	4.6388	-0.7970	0.0039	-0.6033	0.0266
10.26	-9.1821	-0.1782	2.5512	-0.0239	0.0097	-0.0723	34.0172	4.0651	4.6055	-0.7970	0.0040	-0.6035	0.0267
10.27	-9.1771	-0.1954	2.5532	-0.0386	0.0156	-0.0742	34.1134	3.9559	4.6359	-0.7968	0.0041	-0.6035	0.0268
10.28	-9.2293	-0.2360	2.5103	-0.0422	0.0280	-0.0730	34.1084	3.8197	4.6093	-0.7967	0.0042	-0.6037	0.0268
10.29	-9.2480	-0.2665	2.5000	-0.0408	0.0183	-0.0740	34.1072	3.9991	4.6685	-0.7966	0.0044	-0.6039	0.0269
10.3	-9.2487	-0.2920	2.5162	-0.0538	0.0105	-0.0686	34.1114	4.0857	4.8193	-0.7965	0.0046	-0.6040	0.0269
10.31	-9.2807	-0.3276	2.5094	-0.0673	0.0025	-0.0666	34.1082	3.9223	4.8008	-0.7965	0.0048	-0.6041	0.0268
10.32	-9.2971	-0.3743	2.4942	-0.0639	0.0021	-0.0618	33.8064	3.9947	4.6517	-0.7964	0.0050	-0.6042	0.0267
10.33	-9.2892	-0.3942	2.5019	-0.0677	-0.0039	-0.0599	33.9749	3.8789	4.6022	-0.7964	0.0052	-0.6043	0.0266
10.34	-9.2991	-0.4006	2.5025	-0.0689	-0.0041	-0.0466	34.1386	3.8678	4.6529	-0.7963	0.0054	-0.6043	0.0265
10.35	-9.3154	-0.4248	2.5021	-0.0653	-0.0077	-0.0444	34.0877	3.8801	4.5776	-0.7963	0.0055	-0.6043	0.0263
10.36	-9.2986	-0.4490	2.5122	-0.0674	-0.0076	-0.0473	34.3064	4.0458	4.5488	-0.7963	0.0057	-0.6044	0.0262
10.37	-9.3026	-0.4669	2.5063	-0.0604	-0.0085	-0.0439	33.8993	4.0426	4.7429	-0.7962	0.0058	-0.6044	0.0261
10.38	-9.2977	-0.4833	2.4805	-0.0424	-0.0166	-0.0374	33.8800	4.0619	4.5904	-0.7963	0.0059	-0.6045	0.0260
10.39	-9.3025	-0.4490	2.5464	-0.0430	-0.0284	-0.0371	34.1605	4.1484	4.6461	-0.7962	0.0059	-0.6044	0.0258
10.4	-9.3848	-0.4341	2.4912	-0.0418	-0.0149	-0.0371	33.8904	3.9282	4.8087	-0.7963	0.0060	-0.6044	0.0257
10.41	-9.3144	-0.4298	2.4945	-0.0398	-0.0549	-0.0377	34.0354	4.0698	4.8033	-0.7963	0.0060	-0.6042	0.0256
10.42	-9.2156	-0.4129	2.5954	-0.0216	-0.0439	-0.0371	33.8029	4.0254	4.6947	-0.7965	0.0060	-0.6042	0.0256
10.43	-9.2661	-0.4320	2.4998	-0.0184	-0.0266	-0.0367	34.1926	3.9231	4.5382	-0.7965	0.0059	-0.6041	0.0256
10.44	-9.2333	-0.3976	2.5389	-0.0114	-0.0598	-0.0256	33.8864	4.0516	4.5500	-0.7966	0.0058	-0.6039	0.0255
10.45	-9.1699	-0.3401	2.6263	-0.0106	-0.0560	-0.0216	34.2575	3.9644	4.3911	-0.7967	0.0057	-0.6038	0.0254
10.46	-9.1931	-0.2972	2.5802	-0.0049	-0.0388	-0.0235	34.1248	3.8008	4.5351	-0.7968	0.0055	-0.6037	0.0254
10.47	-9.1893	-0.2644	2.5916	0.0021	-0.0481	-0.0366	33.9570	3.8226	4.6201	-0.7969	0.0054	-0.6036	0.0254
10.48	-9.1531	-0.2508	2.6335	-0.0091	-0.0492	-0.0348	34.1336	3.9838	4.3946	-0.7969	0.0053	-0.6034	0.0254
10.49	-9.1574	-0.2538	2.6227	-0.0055	-0.0312	-0.0380	34.1947	3.8415	4.4709	-0.7971	0.0052	-0.6034	0.0254
10.5	-9.1522	-0.2493	2.6115	-0.0010	-0.0335	-0.0381	34.2095	3.8945	4.4099	-0.7971	0.0051	-0.6033	0.0254
10.51	-9.1555	-0.2436	2.6299	-0.0131	-0.0169	-0.0419	33.8562	3.8397	4.5168	-0.7971	0.0050	-0.6033	0.0254
10.52	-9.1964	-0.2489	2.6010	-0.0053	0.0021	-0.0487	33.8196	3.9951	4.6366	-0.7970	0.0050	-0.6033	0.0254
10.53	-9.2043	-0.2568	2.5838	0.0009	-0.0109	-0.0451	34.1127	3.9091	4.4845	-0.7970	0.0049	-0.6034	0.0255
10.54	-9.1775	-0.2544	2.5940	-0.0093	-0.0131	-0.0538	34.0890	3.8799	4.6093	-0.7970	0.0048	-0.6034	0.0256
10.55	-9.1750	-0.2440	2.6023	-0.0069	-0.0056	-0.0546	34.1398	3.7900	4.6353	-0.7969	0.0048	-0.6034	0.0256
10.56	-9.2119	-0.2386	2.5749	-0.0107	0.0039	-0.0530	33.9542	3.6894	4.6228	-0.7970	0.0047	-0.6036	0.0257
10.57	-9.2210	-0.2216	2.5546	-0.0078	-0.0097	-0.0546	33.8296	3.8247	4.6396	-0.7969	0.0047	-0.6035	0.0258
10.58	-9.1807	-0.2206	2.5872	-0.0068	-0.0189	-0.0516	34.0423	4.0085	4.8368	-0.7970	0.0046	-0.6036	0.0258
10.59	-9.1710	-0.2317	2.5986	-0.0165	-0.0140	-0.0548	34.0126	4.1672	4.6822	-0.7968	0.0046	-0.6035	0.0259
10.6	-9.2029	-0.2506	2.5890	-0.0205	0.0036	-0.0536	34.0179	3.9993	4.6336	-0.7968	0.0046	-0.6036	0.0259
10.61	-9.2238	-0.2600	2.5656	-0.0260	0.0076	-0.0487	33.8548	3.9125	4.7460	-0.7968	0.0046	-0.6037	0.0259
10.62	-9.2078	-0.2597	2.5736	-0.0318	0.0050	-0.0519	34.1646	3.8233	4.6962	-0.7966	0.0047	-0.6038	0.0259
10.63	-9.2078	-0.2748	2.5558	-0.0249	0.0113	-0.0438	34.5355	4.1273	4.8292	-0.7967	0.0046	-0.6040	0.0258
10.64	-9.2094	-0.2914	2.5161	-0.0303	0.0100	-0.0424	34.4100	4.2319	4.7880	-0.7965	0.0047	-0.6040	0.0258
10.65	-9.2117	-0.2918	2.5214	-0.0218	0.0065	-0.0384	34.2918	3.9955	4.6017	-0.7965	0.0046	-0.6042	0.0258
10.66	-9.2281	-0.2990	2.5087	-0.0245	0.0127	-0.0357	34.0515	3.9617	4.7358	-0.7963	0.0046	-0.6042	0.0257
10.67	-9.2621	-0.2978	2.5040	-0.0329	0.0128	-0.0368	34.1040	3.8115	4.6012	-0.7963	0.0046	-0.6044	0.0256
10.68	-9.2896	-0.2918	2.4955	-0.0320	0.0088	-0.0365	34.1128	3.7610	4.7483	-0.7962	0.0046	-0.6045	0.0255
10.69	-9.2832	-0.2863	2.4934	-0.0220	-0.0009	-0.0345	33.9106	3.8083	4.5905	-0.7961	0.0045	-0.6045	0.0255
10.7	-9.2739	-0.2762	2.5230	-0.0270	-0.0075	-0.0372	33.9676	3.6447	4.5256	-0.7961	0.0045	-0.6046	0.0254
10.71	-9.2885	-0.2899	2.5048	-0.0173	-0.0035	-0.0352	34.1699	3.7674	4.8647	-0.7961	0.0044	-0.6046	0.0254
10.72	-9.2951	-0.2911	2.4936	-0.0167	-0.0168	-0.0373	34.0616	3.9402	4.5309	-0.7961	0.0044	-0.6047	0.0254
10.73	-9.2645	-0.2684	2.5070	-0.0194	-0.0204	-0.0357	33.9352	4.0584	4.6694	-0.7960	0.0043	-0.6046	0.0253
10.74	-9.2565	-0.2581	2.5109	-0.0196	-0.0111	-0.0350	33.8454	4.0066	4.5851	-0.7961	0.0043	-0.6047	0.0253
10.75	-9.2469	-0.2429	2.5084	-0.0172	-0.0116	-0.0343	34.0074	4.1308	4.6123	-0.7961	0.0042	-0.6047	0.0252
10.76	-9.2388	-0.2174	2.5316	-0.0145	-0.0178	-0.0353	33.8261	3.9984	4.5582	-0.7961	0.0041	-0.6047	0.0252
10.77	-9.2534	-0.2253	2.5306	-0.0141	-0.0131	-0.0379	33.9784	3.8406	4.6674	-0.7960	0.0041	-0.6047	0.0252
10.78	-9.2539	-0.2213	2.5001	-0.0088	-0.0174	-0.0389	33.8881	3.9886	4.7091	-0.7961	0.0040	-0.6047	0.0252
10.79	-9.2282	-0.2181	2.5186	-0.0111	-0.0206	-0.0374	33.8950	3.9436	4.6759	-0.7961	0.0039	-0.6047	0.0252
10.8	-9.2113	-0.2069	2.5142	-0.0070	-0.0164	-0.0393	33.9774	3.9452	4.7538	-0.7960	0.0038	-0.6046	0.0252
10.81	-9.2076	-0.1844	2.5154	-0.0072	-0.0171	-0.0461	33.8153	4.0819	4.8457	-0.7961	0.0037	-0.6047	0.0252
10.82	-9.2251	-0.1656	2.5328	-0.0055	-0.0080	-0.0449	34.0525	4.1164	4.7712	-0.7960	0.0037	-0.6047	0.0252
10.83	-9.2785	-0.1536	2.5245	-0.0119	-0.0070	-0.0522	33.9557	3.7003	4.7467	-0.7961	0.0036	-0.6048	0.0253
10.84	-9.2891	-0.1628	2.5055	-0.0156	-0.0177	-0.0582	33.9329	3.6645	4.6312	-0.7960	0.0036	-0.6047	0.0253
10.85	-9.2435	-0.1793	2.5295	-0.0134	-0.0221	-0.0617	34.0620	3.8547	4.6926	-0.7960	0.0036	-0.6047	0.0254
10.86	-9.2257	-0.1901	2.5298	-0.0169	-0.0098	-0.0618	34.0139	3.8192	4.9038	-0.7960	0.0036	-0.6047	0.0255
10.87	-9.2541	-0.2012	2.5131	-0.0194	-0.0060	-0.0622	34.0476	3.7579	4.7093	-0.7959	0.0036	-0.6047	0.0256
10.88	-9.2669	-0.2041	2.5083	-0.0267	-0.0188	-0.0642	34.0161	3.8843	4.8631	-0.7960	0.0037	-0.6048	0.0256
10.89	-9.2346	-0.2243	2.5136	-0.0342	-0.0250	-0.0633	33.9182	3.8750	4.6526	-0.7960	0.0038	-0.6047	0.0256
10.9	-9.1947	-0.2631	2.5251	-0.0356	-0.0248	-0.0616	33.7442	3.8045	4.6643	-0.7961	0.0039	-0.6047	0.0256
10.91	-9.2190	-0.2730	2.5660	-0.0379	-0.0224	-0.0609	33.8748	3.7531	4.5415	-0.7960	0.0040	-0.6046	0.0256
10.92	-9.2708	-0.2800	2.5237	-0.0380	-0.0065	-0.0548	33.8097	3.9123	4.5729	-0.7960	0.0041	-0.6047	0.0256
10.93	-9.2464	-0.2960	2.5137	-0.0426	-0.0190	-0.0554	33.8136	3.9720	4.8582	-0.7960	0.0042	-0.6047	0.0256
10.94	-9.1959	-0.3227	2.5347	-0.0398	-0.0268	-0.0504	34.1105	3.9398	4.7462	-0.7960	0.0042	-0.6047	0.0255
10.95	-9.2038	-0.3186	2.5230	-0.0265	-0.0208	-0.0482	33.7788	3.9733	4.6314	-0.7961	0.0043	-0.6047	0.0255
10.96	-9.2084	-0.2943	2.5139	-0.0294	-0.0165	-0.0442	33.8160	4.0525	4.6370	-0.7960	0.0043	-0.6047	0.0255
10.97	-9.1810	-0.2534	2.5377	-0.0315	-0.0238	-0.0430	34.0594	4.2593	4.6739	-0.7961	0.0043	-0.6047	0.0254
10.98	-9.1897	-0.2201	2.5300	-0.0342	-0.0002	-0.0404	34.0159	4.0229	4.8695	-0.7960	0.0043	-0.6047	0.0254
10.99	-9.2172	-0.2267	2.4914	-0.0378	0.0013	-0.0428	34.0544	3.9776	4.6664	-0.7960	0.0043	-0.6048	0.0253
11	-9.2275	-0.2515	2.4927	-0.0313	0.0017	-0.0526	33.6695	4.1709	4.6805	-0.7959	0.0044	-0.6049	0.0253
11.01	-9.2362	-0.2687	2.4857	-0.0347	-0.0025	-0.0562	33.8047	3.8538	4.7560	-0.7959	0.0044	-0.6049	0.0253
11.02	-9.2300	-0.2695	2.4747	-0.0244	-0.0052	-0.0564	34.0566	3.7860	4.7370	-0.7958	0.0045	-0.6050	0.0253
11.03	-9.2409	-0.2633	2.4910	-0.0249	-0.0084	-0.0546	34.1708	3.6444	4.7338	-0.7958	0.0045	-0.6050	0.0253
11.04	-9.2684	-0.2601	2.4779	-0.0268	-0.0060	-0.0639	34.1894	3.7752	4.7961	-0.7958	0.0046	-0.6051	0.0254
11.05	-9.2748	-0.2773	2.4764	-0.0254	-0.0082	-0.0618	33.9966	3.7694	4.8599	-0.7957	0.0046	-0.6050	0.0254
11.06	-9.2660	-0.2851	2.4877	-0.0375	-0.0176	-0.0621	34.1610	3.9038	4.8056	-0.7958	0.0047	-0.6051	0.0254
11.07	-9.2766	-0.2816	2.4947	-0.0343	-0.0125	-0.0575	33.9325	3.8190	4.7110	-0.7957	0.0048	-0.6051	0.0254
11.08	-9.2705	-0.2890	2.4894	-0.0383	-0.0198	-0.0593	34.0159	3.9938	4.8037	-0.7958	0.0049	-0.6051	0.0254
11.09	-9.2479	-0.2846	2.5119	-0.0322	-0.0237	-0.0464	34.0524	3.7385	4.8703	-0.7957	0.0049	-0.6050	0.0254
11.1	-9.2614	-0.3022	2.5139	-0.0338	-0.0164	-0.0429	33.8826	3.7320	4.6534	-0.7958	0.0049	-0.6051	0.0253
11.11	-9.2676	-0.3131	2.5027	-0.0413	-0.0213	-0.0516	33.8650	3.9217	4.9071	-0.7958	0.0050	-0.6051	0.0253
11.12	-9.2538	-0.3302	2.5244	-0.0384	-0.0192	-0.0525	34.1358	4.1843	4.8241	-0.7957	0.0051	-0.6050	0.0252
11.13	-9.2405	-0.3272	2.5035	-0.0261	-0.0198	-0.0502	34.1268	4.4411	4.8468	-0.7958	0.0051	-0.6051	0.0252
11.14	-9.2131	-0.2986	2.5402	-0.0222	-0.0209	-0.0502	33.9862	4.2429	5.0165	-0.7958	0.0051	-0.6050	0.0252
11.15	-9.2837	-0.2930	2.5437	-0.0212	-0.0043	-0.0582	33.9487	4.1535	4.6686	-0.7958	0.0051	-0.6051	0.0253
11.16	-9.2940	-0.3056	2.4698	-0.0193	-0.0183	-0.0609	33.7809	4.0239	4.8273	-0.7957	0.0051	-0.6050	0.0253
11.17	-9.1741	-0.3135	2.5794	-0.0272	-0.0389	-0.0614	33.6947	3.9269	4.7955	-0.7958	0.0052	-0.6050	0.0254
11.18	-9.2050	-0.3553	2.5380	-0.0162	0.0008	-0.0630	33.8518	3.9918	4.8329	-0.7958	0.0052	-0.6050	0.0255
11.19	-9.2789	-0.3765	2.4776	-0.0186	-0.0154	-0.0532	33.8340	4.1495	4.7399	-0.7957	0.0052	-0.6050	0.0255
11.2	-9.2077	-0.3412	2.5565	-0.0114	-0.0391	-0.0413	33.9652	4.1238	4.4963	-0.7958	0.0052	-0.6050	0.0255
11.21	-9.1912	-0.3060	2.5731	-0.0125	-0.0202	-0.0426	34.3086	3.7579	4.7085	-0.7958	0.0051	-0.6049	0.0255
11.22	-9.2314	-0.2779	2.5232	-0.0095	-0.0109	-0.0381	34.0496	3.8447	4.7181	-0.7958	0.0050	-0.6050	0.0255
11.23	-9.2268	-0.2645	2.5376	-0.0155	-0.0182	-0.0471	34.0071	3.9572	4.8074	-0.7958	0.0050	-0.6049	0.0255
11.24	-9.2096	-0.2703	2.5198	-0.0161	-0.0157	-0.0465	34.1601	4.0810	4.7129	-0.7958	0.0049	-0.6050	0.0255
11.25	-9.1965	-0.2757	2.5253	-0.0183	-0.0158	-0.0416	34.2248	3.9947	4.7114	-0.7958	0.0049	-0.6050	0.0255
11.26	-9.2254	-0.2849	2.5251	-0.0171	0.0040	-0.0448	33.9058	3.9399	4.7402	-0.7958	0.0049	-0.6051	0.0255
11.27	-9.2648	-0.2904	2.4922	-0.0141	-0.0041	-0.0474	34.1509	3.9793	4.6848	-0.7957	0.0048	-0.6051	0.0255
11.28	-9.2613	-0.2767	2.5048	-0.0187	-0.0119	-0.0469	34.2053	3.8087	4.7982	-0.7957	0.0048	-0.6051	0.0255
11.29	-9.2576	-0.2881	2.5058	-0.0166	-0.0122	-0.0520	34.0443	3.8016	4.9552	-0.7957	0.0048	-0.6052	0.0256
11.3	-9.2713	-0.3008	2.4972	-0.0180	-0.0081	-0.0534	33.9407	4.0704	4.8135	-0.7956	0.0048	-0.6051	0.0256
11.31	-9.2807	-0.2955	2.4989	-0.0123	-0.0158	-0.0491	33.9421	3.9330	4.7790	-0.7957	0.0047	-0.6052	0.0256
11.32	-9.2680	-0.2948	2.5099	-0.0172	-0.0203	-0.0503	33.9296	3.9842	4.7451	-0.7957	0.0047	-0.6052	0.0257
11.33	-9.2662	-0.2850	2.5052	-0.0165	-0.0227	-0.0502	34.0047	3.8882	4.8480	-0.7957	0.0047	-0.6052	0.0257
11.34	-9.2517	-0.2951	2.5091	-0.0201	-0.0259	-0.0494	34.0493	3.8484	4.7105	-0.7957	0.0047	-0.6051	0.0257
11.35	-9.2391	-0.3028	2.5197	-0.0184	-0.0233	-0.0486	34.1226	4.1404	4.9485	-0.7957	0.0047	-0.6051	0.0257
11.36	-9.2416	-0.3077	2.5234	-0.0178	-0.0195	-0.0454	33.9426	4.0823	4.8709	-0.7957	0.0047	-0.6051	0.0257
11.37	-9.2393	-0.3186	2.5174	-0.0173	-0.0208	-0.0370	33.9980	4.0314	4.6110	-0.7957	0.0046	-0.6050	0.0257
11.38	-9.2283	-0.3133	2.5218	-0.0073	-0.0235	-0.0369	34.0760	3.9678	4.6526	-0.7958	0.0045	-0.6051	0.0257
11.39	-9.2282	-0.3080	2.5202	-0.0010	-0.0148	-0.0380	34.2204	3.7920	4.8636	-0.7958	0.0044	-0.6050	0.0257
11.4	-9.2308	-0.3009	2.5237	-0.0104	-0.0234	-0.0370	33.7916	3.8304	4.8036	-0.7958	0.0043	-0.6051	0.0257
11.41	-9.2325	-0.2844	2.5178	0.0098	-0.0172	-0.0402	34.0584	3.9923	4.7373	-0.7957	0.0042	-0.6050	0.0257
11.42	-9.2372	-0.2632	2.5174	0.0040	-0.0176	-0.0409	34.1088	3.5974	4.5917	-0.7958	0.0040	-0.6050	0.0258
11.43	-9.2244	-0.2561	2.5232	0.0037	-0.0200	-0.0346	34.1565	3.6581	4.8790	-0.7958	0.0039	-0.6050	0.0258
11.44	-9.2284	-0.2449	2.5197	-0.0071	-0.0205	-0.0439	33.9558	4.0613	4.9281	-0.7958	0.0038	-0.6050	0.0258
