time	acceleration_x	acceleration_y	acceleration_z	gyroscope_x	gyroscope_y	gyroscope_z	magnetometer_x	magnetometer_y	magnetometer_z	quaternion_w	quaternion_x	quaternion_y	quaternion_z
0	-9.1279	-0.2148	2.8681	-0.0137	-0.0147	-0.0419	38.5779	6.6465	-7.1418	0.7724	-0.2028	0.5536	0.2360
0.01	-9.1243	-0.2064	2.8613	-0.0148	-0.0122	-0.0433	38.5930	6.3745	-7.1286	0.7724	-0.2030	0.5536	0.2363
0.02	-9.1208	-0.1917	2.8639	-0.0147	-0.0181	-0.0526	38.6407	6.5026	-7.1703	0.7722	-0.2032	0.5535	0.2367
0.03	-9.1310	-0.2085	2.8720	-0.0316	-0.0169	-0.0480	38.9280	6.5324	-7.3172	0.7725	-0.2029	0.5536	0.2362
0.04	-9.1291	-0.2273	2.8578	-0.0391	-0.0186	-0.0443	38.7213	6.5162	-7.3480	0.7724	-0.2028	0.5535	0.2362
0.05	-9.1300	-0.2525	2.8816	-0.0354	-0.0246	-0.0477	38.7212	6.6516	-7.1581	0.7723	-0.2032	0.5534	0.2367
0.06	-9.1474	-0.2773	2.8489	-0.0399	-0.0057	-0.0590	38.3810	6.7233	-7.2006	0.7722	-0.2034	0.5533	0.2369
0.07	-9.1346	-0.2961	2.8321	-0.0388	-0.0231	-0.0479	38.3643	6.3079	-7.2475	0.7721	-0.2037	0.5532	0.2373
0.08	-9.1094	-0.3146	2.8702	-0.0397	-0.0201	-0.0552	38.6418	6.4841	-7.1305	0.7721	-0.2039	0.5531	0.2376
0.09	-9.1198	-0.3330	2.8558	-0.0389	-0.0095	-0.0510	38.5914	6.6383	-7.2659	0.7719	-0.2042	0.5530	0.2379
0.1	-9.1458	-0.3321	2.8287	-0.0403	-0.0083	-0.0460	38.5447	6.6193	-7.2311	0.7719	-0.2045	0.5529	0.2383
0.11	-9.1414	-0.3335	2.8373	-0.0350	-0.0138	-0.0483	38.4752	6.5122	-7.1572	0.7717	-0.2047	0.5528	0.2386
0.12	-9.1353	-0.3204	2.8510	-0.0366	-0.0141	-0.0477	38.6434	6.4433	-6.9976	0.7716	-0.2050	0.5527	0.2390
0.13	-9.1461	-0.3170	2.8545	-0.0395	-0.0115	-0.0451	38.3691	6.7218	-7.1253	0.7715	-0.2052	0.5526	0.2393
0.14	-9.1607	-0.3302	2.8399	-0.0351	-0.0074	-0.0472	38.5948	6.6773	-7.1588	0.7714	-0.2055	0.5525	0.2396
0.15	-9.1601	-0.3282	2.8397	-0.0210	-0.0181	-0.0478	38.5937	6.8111	-7.0468	0.7713	-0.2057	0.5525	0.2400
0.16	-9.1578	-0.3189	2.8451	-0.0186	-0.0202	-0.0493	38.4895	6.6423	-7.0419	0.7712	-0.2058	0.5524	0.2402
0.17	-9.1592	-0.3165	2.8529	-0.0149	-0.0191	-0.0459	38.5011	6.7962	-7.1065	0.7712	-0.2060	0.5523	0.2405
0.18	-9.1508	-0.3070	2.8582	-0.0206	-0.0349	-0.0379	38.5993	6.7108	-7.2443	0.7711	-0.2061	0.5521	0.2409
0.19	-9.1336	-0.2910	2.8673	-0.0174	-0.0436	-0.0399	38.5816	6.4730	-7.3501	0.7711	-0.2062	0.5520	0.2412
0.2	-9.1130	-0.2794	2.8754	-0.0124	-0.0382	-0.0420	38.6462	6.7291	-7.2842	0.7711	-0.2063	0.5518	0.2415
0.21	-9.1076	-0.2722	2.8992	-0.0233	-0.0411	-0.0374	38.7014	6.5757	-7.1940	0.7711	-0.2065	0.5517	0.2419
0.22	-9.1071	-0.2691	2.9024	-0.0183	-0.0339	-0.0367	38.6804	6.3001	-7.3572	0.7710	-0.2066	0.5515	0.2423
0.23	-9.0950	-0.2632	2.9024	-0.0167	-0.0313	-0.0402	38.6688	6.3921	-7.2752	0.7710	-0.2067	0.5514	0.2426
0.24	-9.0809	-0.2668	2.9150	-0.0152	-0.0266	-0.0380	38.7518	6.6722	-7.2248	0.7709	-0.2068	0.5513	0.2429
0.25	-9.0979	-0.2856	2.9208	-0.0199	-0.0229	-0.0445	38.7273	6.7327	-7.2287	0.7708	-0.2070	0.5511	0.2432
0.26	-9.1013	-0.3045	2.9123	-0.0143	-0.0236	-0.0426	38.5323	6.5557	-7.3588	0.7708	-0.2071	0.5511	0.2436
0.27	-9.0938	-0.3139	2.9229	-0.0129	-0.0269	-0.0398	38.6905	6.6929	-7.4321	0.7707	-0.2072	0.5509	0.2439
0.28	-9.0994	-0.3161	2.9243	-0.0143	-0.0290	-0.0396	38.6068	6.6309	-7.1535	0.7707	-0.2074	0.5509	0.2442
0.29	-9.0917	-0.3106	2.9211	-0.0129	-0.0298	-0.0354	38.6061	6.6082	-7.1199	0.7706	-0.2075	0.5507	0.2445
0.3	-9.0701	-0.3061	2.9240	-0.0142	-0.0353	-0.0406	38.6727	6.7102	-7.3058	0.7706	-0.2076	0.5506	0.2449
0.31	-9.0668	-0.2971	2.9391	-0.0139	-0.0231	-0.0371	38.5871	6.5522	-7.2952	0.7705	-0.2077	0.5505	0.2452
0.32	-9.0680	-0.2873	2.9253	-0.0076	-0.0171	-0.0380	38.5120	6.7147	-7.1247	0.7704	-0.2078	0.5504	0.2455
0.33	-9.0766	-0.2752	2.9333	-0.0026	-0.0128	-0.0431	38.6171	6.7810	-7.2557	0.7704	-0.2079	0.5504	0.2458
0.34	-9.0735	-0.2571	2.9415	-0.0039	-0.0093	-0.0414	38.5587	6.8143	-7.2392	0.7703	-0.2080	0.5503	0.2460
0.35	-9.0635	-0.2453	2.9293	-0.0122	-0.0042	-0.0396	38.4983	6.6831	-7.2313	0.7702	-0.2082	0.5503	0.2463
0.36	-9.0436	-0.2274	2.9255	-0.0030	-0.0060	-0.0403	38.4207	6.3937	-7.2454	0.7700	-0.2083	0.5502	0.2466
0.37	-9.0426	-0.2062	2.9471	-0.0041	-0.0080	-0.0406	38.5246	6.4641	-7.2016	0.7700	-0.2084	0.5503	0.2468
0.38	-9.0650	-0.1991	2.9217	-0.0122	0.0081	-0.0425	38.6495	6.3983	-7.1228	0.7698	-0.2085	0.5503	0.2471
0.39	-9.0673	-0.1940	2.9050	-0.0104	0.0090	-0.0479	38.4744	6.5390	-7.1347	0.7697	-0.2087	0.5503	0.2473
0.4	-9.0642	-0.1953	2.9338	-0.0169	0.0078	-0.0456	38.6351	6.4971	-7.2440	0.7696	-0.2089	0.5503	0.2477
0.41	-9.0727	-0.2003	2.9012	-0.0130	0.0245	-0.0377	38.8005	6.4517	-7.6291	0.7693	-0.2090	0.5504	0.2479
0.42	-9.0850	-0.2050	2.8814	-0.0130	0.0164	-0.0453	38.8016	6.5518	-7.3000	0.7692	-0.2093	0.5505	0.2482
0.43	-9.0977	-0.1984	2.8809	-0.0138	0.0241	-0.0414	38.9834	6.5121	-7.0303	0.7693	-0.2087	0.5508	0.2473
0.44	-9.1177	-0.2021	2.8450	-0.0165	0.0281	-0.0437	38.9292	6.6353	-7.0409	0.7695	-0.2081	0.5512	0.2465
0.45	-9.1354	-0.2019	2.8453	-0.0182	0.0264	-0.0490	38.6736	6.4864	-6.9207	0.7692	-0.2084	0.5513	0.2468
0.46	-9.1611	-0.2066	2.8401	-0.0114	0.0238	-0.0483	38.4099	6.7467	-7.0002	0.7691	-0.2085	0.5514	0.2470
0.47	-9.1812	-0.2144	2.8101	-0.0182	0.0158	-0.0461	38.2644	6.4736	-7.1140	0.7689	-0.2088	0.5514	0.2473
0.48	-9.1705	-0.2139	2.8127	-0.0183	0.0080	-0.0529	38.3672	6.6245	-7.0443	0.7688	-0.2090	0.5514	0.2475
0.49	-9.1586	-0.2133	2.8287	-0.0144	0.0080	-0.0469	38.2450	6.7251	-6.9785	0.7686	-0.2092	0.5515	0.2478
0.5	-9.1812	-0.2192	2.8331	-0.0196	0.0109	-0.0500	38.2122	6.4830	-6.9946	0.7684	-0.2094	0.5514	0.2480
0.51	-9.1870	-0.2160	2.7927	-0.0173	0.0137	-0.0528	38.4426	6.6989	-6.9950	0.7683	-0.2096	0.5515	0.2483
0.52	-9.1568	-0.2169	2.8183	-0.0178	-0.0036	-0.0519	38.4027	6.8391	-7.1495	0.7682	-0.2098	0.5515	0.2485
0.53	-9.1402	-0.2362	2.8213	-0.0210	0.0014	-0.0525	38.4107	6.7521	-7.2152	0.7681	-0.2100	0.5515	0.2488
0.54	-9.1364	-0.2472	2.7926	-0.0223	0.0067	-0.0588	38.4139	6.5851	-7.0523	0.7679	-0.2102	0.5514	0.2490
0.55	-9.1658	-0.2465	2.8134	-0.0176	0.0001	-0.0524	38.5059	6.8200	-7.0088	0.7678	-0.2105	0.5514	0.2493
0.56	-9.1951	-0.2496	2.8106	-0.0174	-0.0052	-0.0536	38.3488	6.6793	-6.9246	0.7677	-0.2107	0.5514	0.2495
0.57	-9.1658	-0.2657	2.7976	-0.0128	-0.0161	-0.0600	38.5300	6.3334	-6.9411	0.7676	-0.2108	0.5512	0.2497
0.58	-9.1120	-0.2601	2.8352	-0.0148	-0.0220	-0.0542	38.3615	6.3717	-7.2206	0.7676	-0.2110	0.5512	0.2500
0.59	-9.1432	-0.2611	2.8433	-0.0142	-0.0077	-0.0626	38.3445	6.5221	-7.2936	0.7675	-0.2112	0.5511	0.2502
0.6	-9.1811	-0.2584	2.7916	-0.0227	-0.0157	-0.0579	38.6878	6.5261	-7.1650	0.7675	-0.2114	0.5510	0.2505
0.61	-9.1467	-0.2468	2.8111	-0.0204	-0.0223	-0.0534	38.6693	6.6621	-6.8426	0.7673	-0.2116	0.5509	0.2508
0.62	-9.1049	-0.2537	2.8603	-0.0224	-0.0143	-0.0632	38.6848	6.5787	-6.9528	0.7673	-0.2118	0.5508	0.2510
0.63	-9.1418	-0.2670	2.8294	-0.0301	-0.0017	-0.0584	38.6513	6.6047	-6.9754	0.7672	-0.2121	0.5507	0.2513
0.64	-9.1976	-0.2711	2.7969	-0.0299	-0.0062	-0.0565	38.4639	6.5563	-7.0819	0.7670	-0.2124	0.5507	0.2515
0.65	-9.1607	-0.2803	2.8321	-0.0296	-0.0354	-0.0583	38.6374	6.6420	-7.0717	0.7670	-0.2126	0.5505	0.2519
0.66	-9.1103	-0.3005	2.8817	-0.0245	-0.0270	-0.0542	38.2389	6.8537	-6.9927	0.7670	-0.2128	0.5504	0.2521
0.67	-9.1089	-0.3334	2.8486	-0.0212	-0.0134	-0.0520	38.1395	6.5830	-6.9388	0.7669	-0.2130	0.5503	0.2524
0.68	-9.0930	-0.3266	2.8147	-0.0186	-0.0200	-0.0452	38.4372	6.7287	-6.8752	0.7667	-0.2131	0.5501	0.2527
0.69	-9.0331	-0.3145	2.8495	-0.0131	-0.0232	-0.0361	38.4090	7.0322	-7.0372	0.7668	-0.2133	0.5501	0.2531
0.7	-9.0012	-0.2978	2.8482	-0.0120	-0.0108	-0.0363	38.3997	6.6245	-7.1402	0.7666	-0.2134	0.5500	0.2534
0.71	-9.0422	-0.2664	2.8371	-0.0123	0.0124	-0.0355	38.4386	6.7062	-7.2066	0.7665	-0.2135	0.5501	0.2537
0.72	-9.0781	-0.2554	2.7750	-0.0093	0.0172	-0.0358	38.2796	6.7148	-7.0710	0.7663	-0.2137	0.5501	0.2539
0.73	-9.0799	-0.2459	2.8020	-0.0046	0.0045	-0.0357	38.2645	6.8607	-6.9675	0.7661	-0.2138	0.5502	0.2542
0.74	-9.1165	-0.2462	2.8278	-0.0013	0.0160	-0.0404	38.3117	6.6854	-7.0357	0.7660	-0.2139	0.5503	0.2545
0.75	-9.1677	-0.2428	2.7751	0.0075	0.0214	-0.0456	38.4761	6.5369	-6.8617	0.7658	-0.2140	0.5503	0.2546
0.76	-9.1654	-0.2203	2.7753	0.0012	0.0024	-0.0518	38.6110	6.5283	-7.0540	0.7657	-0.2142	0.5504	0.2549
0.77	-9.1448	-0.2186	2.8309	0.0070	-0.0050	-0.0538	38.7461	6.4543	-7.0225	0.7656	-0.2143	0.5503	0.2550
0.78	-9.1742	-0.2229	2.8070	0.0009	0.0129	-0.0543	38.7150	6.6594	-7.0529	0.7656	-0.2144	0.5504	0.2552
0.79	-9.1981	-0.2267	2.7633	0.0051	0.0106	-0.0581	38.6561	6.5424	-7.0132	0.7653	-0.2145	0.5504	0.2554
0.8	-9.1852	-0.2321	2.8013	0.0034	-0.0074	-0.0612	38.5624	6.4094	-6.8407	0.7653	-0.2147	0.5504	0.2555
0.81	-9.1689	-0.2388	2.7883	-0.0131	-0.0042	-0.0644	38.4537	6.5630	-7.1586	0.7652	-0.2149	0.5504	0.2557
0.82	-9.1760	-0.2399	2.7915	-0.0114	-0.0012	-0.0594	38.5583	6.6920	-7.1902	0.7651	-0.2151	0.5503	0.2559
0.83	-9.1893	-0.2487	2.7989	-0.0152	-0.0023	-0.0510	38.2246	6.3750	-6.9702	0.7651	-0.2153	0.5503	0.2562
0.84	-9.1896	-0.2532	2.7806	-0.0146	-0.0121	-0.0475	38.3242	6.5595	-7.1186	0.7649	-0.2154	0.5502	0.2565
0.85	-9.1868	-0.2575	2.8089	-0.0128	-0.0160	-0.0535	38.4198	6.9037	-7.0707	0.7649	-0.2156	0.5502	0.2567
0.86	-9.1396	-0.2475	2.7833	-0.0183	-0.0174	-0.0492	38.5137	6.8371	-7.1158	0.7647	-0.2158	0.5500	0.2570
0.87	-9.1773	-0.2379	2.8714	-0.0157	-0.0125	-0.0492	38.4484	6.5227	-6.8148	0.7647	-0.2159	0.5500	0.2573
0.88	-9.2274	-0.2466	2.7630	-0.0298	0.0045	-0.0566	38.2866	6.6580	-6.8327	0.7645	-0.2162	0.5500	0.2575
0.89	-9.1463	-0.2345	2.7878	-0.0271	-0.0383	-0.0470	38.3105	6.7419	-6.7126	0.7644	-0.2164	0.5498	0.2578
0.9	-9.0932	-0.2659	2.9096	-0.0301	-0.0262	-0.0576	38.4528	6.6371	-6.8163	0.7644	-0.2166	0.5497	0.2582
0.91	-9.1709	-0.3083	2.7839	-0.0401	0.0064	-0.0606	38.4490	6.8333	-7.0809	0.7643	-0.2169	0.5496	0.2584
0.92	-9.1674	-0.3085	2.7619	-0.0211	-0.0258	-0.0554	38.5170	6.6533	-6.8492	0.7642	-0.2172	0.5495	0.2588
0.93	-9.0940	-0.3048	2.8549	-0.0179	-0.0431	-0.0444	39.0256	6.8539	-6.6978	0.7645	-0.2165	0.5495	0.2580
0.94	-9.1437	-0.2825	2.8554	-0.0183	-0.0136	-0.0430	38.7812	6.6738	-6.8325	0.7645	-0.2166	0.5496	0.2582
0.95	-9.2174	-0.2459	2.8102	-0.0152	-0.0157	-0.0413	38.7677	6.4011	-7.0283	0.7644	-0.2168	0.5495	0.2586
0.96	-9.1791	-0.2217	2.8148	-0.0208	-0.0352	-0.0429	38.5708	6.5275	-7.0390	0.7643	-0.2169	0.5493	0.2588
0.97	-9.1194	-0.2025	2.8802	-0.0252	-0.0443	-0.0382	38.4592	6.2808	-7.1204	0.7643	-0.2170	0.5491	0.2593
0.98	-9.1418	-0.2099	2.8646	-0.0350	-0.0245	-0.0456	38.8066	6.5670	-7.1084	0.7642	-0.2172	0.5490	0.2596
0.99	-9.1639	-0.2160	2.8118	-0.0346	-0.0245	-0.0452	38.7414	6.7487	-7.1288	0.7641	-0.2175	0.5489	0.2600
1	-9.1365	-0.2178	2.8550	-0.0375	-0.0507	-0.0453	38.9030	6.6849	-7.0959	0.7644	-0.2170	0.5489	0.2594
1.01	-9.1134	-0.2341	2.8592	-0.0384	-0.0360	-0.0476	38.7268	6.7024	-7.1559	0.7645	-0.2171	0.5488	0.2596
1.02	-9.1176	-0.2499	2.8496	-0.0413	-0.0313	-0.0465	38.4156	6.5767	-7.0247	0.7643	-0.2174	0.5486	0.2600
1.03	-9.1214	-0.2587	2.8448	-0.0407	-0.0330	-0.0413	38.4246	6.6379	-6.8739	0.7643	-0.2176	0.5485	0.2604
1.04	-9.1047	-0.2453	2.8653	-0.0420	-0.0313	-0.0439	38.4330	6.5899	-7.1453	0.7641	-0.2178	0.5482	0.2608
1.05	-9.1203	-0.2680	2.8712	-0.0422	-0.0239	-0.0484	38.5145	6.6416	-6.9941	0.7641	-0.2180	0.5481	0.2611
1.06	-9.1428	-0.2763	2.8317	-0.0454	-0.0250	-0.0467	38.5484	6.5517	-7.0328	0.7640	-0.2183	0.5480	0.2615
1.07	-9.1229	-0.2642	2.8706	-0.0400	-0.0321	-0.0468	38.3471	6.5047	-7.0289	0.7639	-0.2185	0.5478	0.2619
1.08	-9.1157	-0.2966	2.8696	-0.0380	-0.0263	-0.0509	38.1383	6.6348	-6.9097	0.7639	-0.2188	0.5477	0.2622
1.09	-9.1341	-0.3255	2.8370	-0.0401	-0.0160	-0.0508	38.4194	6.4554	-7.1145	0.7637	-0.2190	0.5475	0.2625
1.1	-9.1192	-0.3434	2.8276	-0.0380	-0.0211	-0.0445	38.4707	6.4223	-7.0434	0.7637	-0.2193	0.5474	0.2629
1.11	-9.0995	-0.3567	2.8412	-0.0401	-0.0277	-0.0415	38.6197	6.5199	-7.0091	0.7635	-0.2195	0.5472	0.2633
1.12	-9.1381	-0.3666	2.8272	-0.0335	-0.0203	-0.0386	38.5947	6.6564	-7.1403	0.7635	-0.2197	0.5471	0.2637
1.13	-9.1626	-0.3608	2.8040	-0.0156	-0.0258	-0.0365	38.6157	6.5351	-7.1092	0.7634	-0.2198	0.5470	0.2640
1.14	-9.1610	-0.3383	2.8340	-0.0037	-0.0302	-0.0326	38.8739	6.2487	-7.0992	0.7633	-0.2199	0.5469	0.2643
1.15	-9.1513	-0.2925	2.8497	-0.0034	-0.0382	-0.0348	38.8613	6.3510	-7.1251	0.7633	-0.2199	0.5468	0.2646
1.16	-9.1369	-0.2610	2.8395	0.0080	-0.0384	-0.0331	38.7540	6.5105	-7.2054	0.7633	-0.2199	0.5467	0.2649
1.17	-9.1134	-0.2339	2.8366	0.0093	-0.0425	-0.0339	38.5842	6.4796	-7.0423	0.7633	-0.2199	0.5466	0.2652
1.18	-9.0929	-0.2292	2.8699	0.0095	-0.0414	-0.0398	38.7127	6.3946	-7.3149	0.7632	-0.2199	0.5464	0.2655
1.19	-9.1258	-0.2055	2.9058	0.0020	-0.0335	-0.0350	38.5366	6.6926	-7.4061	0.7633	-0.2200	0.5463	0.2658
1.2	-9.1548	-0.1598	2.8763	0.0037	-0.0293	-0.0395	38.5873	6.6549	-7.0457	0.7632	-0.2200	0.5462	0.2661
1.21	-9.1316	-0.1413	2.9093	0.0062	-0.0429	-0.0386	38.7541	6.3092	-7.0500	0.7632	-0.2200	0.5461	0.2663
1.22	-9.1075	-0.1592	2.9497	-0.0081	-0.0485	-0.0437	38.5581	6.5580	-7.3602	0.7632	-0.2201	0.5459	0.2666
1.23	-9.1072	-0.1327	2.9199	-0.0068	-0.0342	-0.0466	38.5079	6.4906	-6.9672	0.7632	-0.2202	0.5457	0.2669
1.24	-9.1084	-0.1268	2.9266	-0.0144	-0.0341	-0.0430	38.5213	6.4138	-6.9867	0.7631	-0.2203	0.5456	0.2672
1.25	-9.0866	-0.1650	2.9429	-0.0175	-0.0330	-0.0422	38.4295	6.4581	-7.3687	0.7630	-0.2204	0.5454	0.2675
1.26	-9.0950	-0.1733	2.9210	-0.0191	-0.0220	-0.0450	38.5046	6.3110	-7.0133	0.7631	-0.2206	0.5454	0.2679
1.27	-9.0551	-0.2194	2.8803	-0.0128	-0.0252	-0.0498	38.5474	6.4045	-7.0958	0.7629	-0.2207	0.5452	0.2681
1.28	-9.0173	-0.2281	2.9142	-0.0129	-0.0265	-0.0463	38.6821	6.4447	-7.2815	0.7630	-0.2209	0.5452	0.2685
1.29	-8.9880	-0.2138	2.8781	-0.0088	-0.0162	-0.0454	38.6501	6.5101	-6.9722	0.7628	-0.2210	0.5450	0.2687
1.3	-8.9970	-0.2075	2.9065	-0.0059	-0.0126	-0.0486	38.2559	6.6735	-6.9455	0.7627	-0.2211	0.5450	0.2689
1.31	-9.0267	-0.2043	2.9043	-0.0073	0.0043	-0.0467	38.4200	6.4954	-7.0874	0.7626	-0.2213	0.5450	0.2692
1.32	-9.0720	-0.1724	2.8692	-0.0125	0.0137	-0.0528	38.8354	6.3455	-7.2044	0.7624	-0.2215	0.5450	0.2694
1.33	-9.0985	-0.1819	2.8878	-0.0056	0.0039	-0.0523	38.7576	6.3368	-7.1028	0.7624	-0.2217	0.5451	0.2696
1.34	-9.1014	-0.1990	2.9001	-0.0090	0.0009	-0.0587	38.9175	6.2613	-6.9548	0.7622	-0.2218	0.5450	0.2698
1.35	-9.1230	-0.1764	2.8811	-0.0171	0.0205	-0.0605	38.5609	6.4503	-7.1358	0.7621	-0.2221	0.5451	0.2700
1.36	-9.1199	-0.2084	2.8581	-0.0113	0.0157	-0.0563	38.3037	6.4292	-6.9986	0.7618	-0.2223	0.5450	0.2702
1.37	-9.1215	-0.2109	2.8516	-0.0125	0.0212	-0.0524	38.4660	6.4438	-6.9469	0.7617	-0.2225	0.5452	0.2704
1.38	-9.1243	-0.2154	2.8359	-0.0146	0.0275	-0.0550	38.5373	6.5928	-7.2012	0.7615	-0.2227	0.5452	0.2706
1.39	-9.1455	-0.2321	2.8363	-0.0119	0.0306	-0.0517	38.4791	6.3401	-6.9680	0.7613	-0.2229	0.5453	0.2708
1.4	-9.1896	-0.2104	2.8022	-0.0121	0.0262	-0.0464	38.6445	6.3630	-7.2582	0.7611	-0.2232	0.5454	0.2711
1.41	-9.1780	-0.2009	2.7969	-0.0142	0.0061	-0.0498	38.5356	6.5743	-7.0048	0.7610	-0.2233	0.5454	0.2712
1.42	-9.1712	-0.2023	2.8346	-0.0169	0.0026	-0.0564	38.5787	6.4953	-6.9002	0.7608	-0.2236	0.5454	0.2716
1.43	-9.1923	-0.2374	2.8119	-0.0211	0.0086	-0.0509	38.9970	6.6204	-6.9416	0.7610	-0.2230	0.5457	0.2706
1.44	-9.1684	-0.2548	2.7876	-0.0181	-0.0041	-0.0509	38.9461	6.6305	-7.0295	0.7614	-0.2224	0.5461	0.2698
1.45	-9.1387	-0.2319	2.8398	-0.0172	-0.0144	-0.0495	38.7389	6.9095	-6.9279	0.7612	-0.2226	0.5459	0.2702
1.46	-9.1579	-0.2802	2.8313	-0.0116	0.0013	-0.0514	38.5565	6.6569	-7.0657	0.7611	-0.2228	0.5459	0.2703
1.47	-9.1850	-0.2747	2.8128	-0.0134	-0.0062	-0.0551	38.3465	6.6927	-6.9162	0.7610	-0.2230	0.5459	0.2706
1.48	-9.1742	-0.2449	2.8494	-0.0104	-0.0117	-0.0557	38.2401	6.7878	-6.8578	0.7609	-0.2231	0.5458	0.2708
1.49	-9.1610	-0.2831	2.8441	-0.0004	-0.0128	-0.0510	38.3987	6.6015	-6.9790	0.7608	-0.2233	0.5458	0.2710
1.5	-9.1624	-0.2661	2.8395	0.0063	-0.0114	-0.0508	38.4871	6.6137	-6.8951	0.7607	-0.2233	0.5457	0.2712
1.51	-9.1646	-0.2384	2.8416	0.0031	-0.0194	-0.0629	38.7219	6.4059	-7.0791	0.7608	-0.2235	0.5457	0.2714
1.52	-9.1414	-0.1775	2.8224	-0.0039	-0.0216	-0.0611	38.4950	6.2707	-7.2544	0.7607	-0.2236	0.5455	0.2716
1.53	-9.0436	-0.1507	2.8360	-0.0074	-0.0414	-0.0664	38.5537	6.2869	-7.1201	0.7607	-0.2238	0.5454	0.2718
1.54	-9.0204	-0.1665	2.9517	-0.0169	-0.0326	-0.0622	38.7113	6.5471	-7.1046	0.7606	-0.2239	0.5452	0.2720
1.55	-9.1467	-0.2484	2.9191	-0.0138	0.0174	-0.0650	38.6424	6.5052	-7.1380	0.7605	-0.2242	0.5452	0.2722
1.56	-9.2313	-0.2268	2.8186	-0.0152	0.0121	-0.0682	38.5738	6.3375	-6.8594	0.7604	-0.2244	0.5452	0.2724
1.57	-9.1591	-0.1986	2.8332	-0.0180	-0.0291	-0.0644	38.6015	6.4206	-6.9018	0.7603	-0.2246	0.5451	0.2726
1.58	-9.0552	-0.2666	2.9004	-0.0197	-0.0235	-0.0621	38.4908	6.4304	-6.9553	0.7603	-0.2248	0.5450	0.2729
1.59	-9.1108	-0.2603	2.9050	-0.0140	0.0105	-0.0538	38.5017	6.5931	-6.9155	0.7601	-0.2250	0.5450	0.2731
1.6	-9.1962	-0.3063	2.8042	-0.0172	0.0202	-0.0567	38.5218	6.7751	-6.9625	0.7600	-0.2253	0.5450	0.2733
1.61	-9.1208	-0.3491	2.7191	-0.0168	-0.0092	-0.0550	38.4017	6.4576	-6.8971	0.7598	-0.2254	0.5449	0.2735
1.62	-8.9990	-0.2701	2.8151	0.0034	-0.0302	-0.0386	38.4222	6.5859	-7.1109	0.7598	-0.2255	0.5449	0.2738
1.63	-9.0066	-0.2388	2.8687	-0.0076	0.0082	-0.0491	38.3931	6.7082	-7.0446	0.7597	-0.2257	0.5449	0.2740
1.64	-9.1001	-0.2753	2.7423	-0.0039	0.0497	-0.0524	38.5056	6.7582	-6.8070	0.7594	-0.2259	0.5450	0.2742
1.65	-9.1653	-0.2905	2.7269	0.0030	0.0295	-0.0642	38.4144	6.7950	-6.9659	0.7593	-0.2261	0.5452	0.2743
1.66	-9.1794	-0.3001	2.7749	-0.0041	0.0144	-0.0708	38.1447	6.6399	-6.9358	0.7591	-0.2263	0.5452	0.2744
1.67	-9.1497	-0.2730	2.7493	0.0144	0.0026	-0.0724	38.3931	6.7719	-7.1487	0.7591	-0.2265	0.5452	0.2745
1.68	-9.1444	-0.2328	2.8374	0.0048	-0.0101	-0.0626	38.4817	6.7383	-7.0306	0.7589	-0.2266	0.5451	0.2746
1.69	-9.2035	-0.2171	2.8408	0.0097	0.0109	-0.0611	38.6605	6.3042	-6.9045	0.7589	-0.2267	0.5452	0.2748
1.7	-9.2175	-0.2364	2.6877	-0.0054	0.0122	-0.0661	38.7746	6.4635	-6.9533	0.7587	-0.2269	0.5452	0.2749
1.71	-9.1251	-0.2547	2.7428	-0.0091	-0.0326	-0.0601	38.5729	6.5198	-6.8597	0.7587	-0.2271	0.5451	0.2752
1.72	-9.0310	-0.2514	2.8438	-0.0061	-0.0204	-0.0580	38.5965	6.5567	-6.8163	0.7586	-0.2272	0.5450	0.2754
1.73	-9.0566	-0.2590	2.7749	-0.0146	0.0252	-0.0510	38.4734	6.4157	-6.8868	0.7585	-0.2274	0.5450	0.2756
1.74	-9.1361	-0.2363	2.7447	-0.0119	0.0231	-0.0456	38.5157	6.4144	-7.1279	0.7583	-0.2276	0.5451	0.2758
1.75	-9.1479	-0.2224	2.7931	-0.0146	0.0074	-0.0481	38.4929	6.6319	-6.7169	0.7581	-0.2278	0.5451	0.2760
1.76	-9.1865	-0.2236	2.8061	-0.0127	0.0189	-0.0474	38.5100	6.6229	-6.8850	0.7580	-0.2280	0.5452	0.2763
1.77	-9.1727	-0.2089	2.7723	-0.0272	0.0011	-0.0469	38.6468	6.6765	-6.7894	0.7578	-0.2282	0.5452	0.2766
1.78	-9.2395	-0.2081	2.8863	-0.0318	-0.0035	-0.0470	38.4888	6.5778	-7.0155	0.7577	-0.2285	0.5452	0.2769
1.79	-9.3428	-0.2176	2.8048	-0.0389	0.0132	-0.0506	38.5369	6.6747	-6.9523	0.7574	-0.2287	0.5451	0.2771
1.8	-9.2882	-0.1942	2.7510	-0.0389	-0.0260	-0.0498	38.4292	6.8880	-6.6874	0.7573	-0.2290	0.5450	0.2775
1.81	-9.1599	-0.2242	2.7767	-0.0384	-0.0452	-0.0585	38.3423	6.8890	-7.0190	0.7573	-0.2292	0.5447	0.2778
1.82	-9.0751	-0.2556	2.7300	-0.0384	-0.0430	-0.0512	38.8228	6.6601	-6.7183	0.7572	-0.2294	0.5445	0.2782
1.83	-9.0818	-0.3320	2.7725	-0.0379	-0.0349	-0.0538	38.5569	6.7906	-6.8025	0.7573	-0.2297	0.5444	0.2785
1.84	-9.0982	-0.2898	2.7364	-0.0186	-0.0170	-0.0368	38.4618	6.8258	-6.9511	0.7571	-0.2298	0.5442	0.2788
1.85	-9.2467	-0.2351	2.8671	-0.0120	-0.0189	-0.0380	38.3852	6.8328	-7.0233	0.7571	-0.2300	0.5442	0.2792
1.86	-9.1582	-0.2401	2.6447	-0.0147	-0.0215	-0.0473	38.5140	6.6770	-6.9374	0.7569	-0.2301	0.5440	0.2794
1.87	-9.2831	-0.1957	3.1522	-0.0118	-0.0708	-0.0508	38.5025	6.6788	-6.8457	0.7570	-0.2302	0.5438	0.2798
1.88	-9.3256	-0.1643	2.7436	-0.0202	0.0588	-0.0659	38.4963	6.5857	-6.9593	0.7567	-0.2305	0.5439	0.2799
1.89	-8.9968	-0.2589	2.3482	-0.0240	-0.1055	-0.0651	38.5500	6.5685	-6.9841	0.7568	-0.2306	0.5436	0.2802
1.9	-8.7696	-0.3226	3.1938	-0.0136	-0.1806	-0.0782	38.8273	6.2845	-7.1479	0.7573	-0.2307	0.5428	0.2806
1.91	-8.6372	-0.1914	3.0426	-0.0158	0.0176	-0.0793	38.5583	6.5311	-7.0904	0.7572	-0.2309	0.5428	0.2807
1.92	-9.1164	-0.2161	2.9293	-0.0236	0.1132	-0.0679	38.5478	6.6695	-6.9202	0.7568	-0.2314	0.5431	0.2809
1.93	-9.2315	-0.2397	2.7443	-0.0258	0.0635	-0.0701	39.0098	6.7960	-6.6280	0.7568	-0.2309	0.5436	0.2797
1.94	-9.0964	-0.1927	2.8788	-0.0177	-0.0223	-0.0616	39.0093	6.8798	-6.6864	0.7573	-0.2302	0.5440	0.2788
1.95	-8.9034	-0.1819	2.9205	-0.0352	-0.0149	-0.0584	38.8399	6.7495	-6.6104	0.7571	-0.2306	0.5438	0.2792
1.96	-8.8718	-0.1782	2.9260	-0.0424	0.0246	-0.0501	38.5051	6.5066	-6.7526	0.7569	-0.2309	0.5438	0.2794
1.97	-8.9673	-0.2510	2.9020	-0.0627	0.0738	-0.0476	38.2472	6.6363	-6.7321	0.7565	-0.2313	0.5440	0.2797
1.98	-9.0527	-0.3250	2.7656	-0.0619	0.0984	-0.0425	38.6553	6.8525	-6.6559	0.7561	-0.2318	0.5443	0.2800
1.99	-9.0542	-0.3658	2.8093	-0.0580	0.0732	-0.0381	38.4899	6.5965	-6.5747	0.7557	-0.2322	0.5445	0.2803
2	-9.0924	-0.4013	2.8584	-0.0441	0.0863	-0.0365	38.6104	6.7297	-6.6285	0.7552	-0.2326	0.5447	0.2806
2.01	-9.2286	-0.4066	2.7939	-0.0391	0.1216	-0.0335	38.5721	6.8174	-6.6647	0.7548	-0.2330	0.5452	0.2809
2.02	-9.3022	-0.3339	2.6856	-0.0263	0.1032	-0.0348	38.3639	6.6596	-6.6414	0.7542	-0.2333	0.5456	0.2811
2.03	-9.2900	-0.2984	2.7285	-0.0149	0.0480	-0.0328	38.4925	6.6060	-6.3711	0.7540	-0.2336	0.5458	0.2813
2.04	-9.2704	-0.3290	2.7521	-0.0133	0.0475	-0.0358	38.6193	6.7506	-6.4673	0.7536	-0.2338	0.5459	0.2815
2.05	-9.2799	-0.3082	2.6530	-0.0123	0.0514	-0.0399	38.6765	6.6868	-6.4542	0.7534	-0.2340	0.5461	0.2818
2.06	-9.2341	-0.2400	2.6854	-0.0050	0.0261	-0.0362	38.3905	6.6265	-6.5121	0.7532	-0.2342	0.5463	0.2820
2.07	-9.2658	-0.2235	2.7742	-0.0134	0.0345	-0.0443	38.8063	6.5786	-6.5894	0.7529	-0.2343	0.5463	0.2822
2.08	-9.2737	-0.2744	2.6338	-0.0056	0.0430	-0.0481	38.6520	6.4199	-6.4122	0.7527	-0.2346	0.5466	0.2824
2.09	-9.2188	-0.2652	2.6769	0.0048	0.0001	-0.0520	38.8721	6.6445	-6.6625	0.7526	-0.2347	0.5465	0.2826
2.1	-9.1655	-0.2070	2.7487	-0.0076	0.0005	-0.0545	38.5666	6.5957	-6.5630	0.7525	-0.2349	0.5466	0.2828
2.11	-9.1830	-0.1798	2.7353	-0.0102	0.0294	-0.0479	38.8106	6.7725	-6.5687	0.7522	-0.2350	0.5466	0.2830
2.12	-9.2181	-0.1922	2.6978	-0.0118	0.0277	-0.0462	38.8165	6.6401	-6.5143	0.7520	-0.2353	0.5467	0.2832
2.13	-9.2279	-0.2077	2.7096	-0.0186	0.0040	-0.0482	38.5168	6.5929	-6.3082	0.7519	-0.2355	0.5467	0.2835
2.14	-9.1967	-0.1902	2.7377	-0.0161	-0.0022	-0.0439	38.6480	6.8707	-6.4288	0.7517	-0.2356	0.5467	0.2837
2.15	-9.1781	-0.1902	2.7465	-0.0256	-0.0033	-0.0387	38.4752	6.6031	-6.2246	0.7516	-0.2358	0.5467	0.2841
2.16	-9.1910	-0.2402	2.7489	-0.0353	0.0066	-0.0434	38.6514	6.4976	-6.2045	0.7514	-0.2361	0.5466	0.2844
2.17	-9.2044	-0.2585	2.6834	-0.0306	0.0119	-0.0439	38.5457	6.4882	-6.3470	0.7512	-0.2363	0.5467	0.2847
2.18	-9.1811	-0.2259	2.7099	-0.0293	-0.0066	-0.0419	38.7277	6.6623	-6.4058	0.7510	-0.2365	0.5465	0.2850
2.19	-9.1886	-0.1870	2.7805	-0.0314	-0.0031	-0.0378	38.5250	6.6245	-6.3084	0.7509	-0.2367	0.5466	0.2854
2.2	-9.2802	-0.1772	2.7414	-0.0386	0.0074	-0.0368	38.5692	6.8048	-6.3491	0.7507	-0.2370	0.5465	0.2857
2.21	-9.2760	-0.1642	2.6766	-0.0389	-0.0128	-0.0364	38.5448	6.8104	-6.2948	0.7505	-0.2372	0.5465	0.2861
2.22	-9.2488	-0.1311	2.7955	-0.0489	-0.0388	-0.0370	38.4869	6.8210	-6.3864	0.7504	-0.2374	0.5463	0.2865
2.23	-9.1979	-0.0800	2.7013	-0.0603	-0.0329	-0.0373	38.6459	6.6651	-6.4639	0.7503	-0.2377	0.5461	0.2869
2.24	-9.1316	-0.1160	2.7082	-0.0693	-0.0551	-0.0356	38.3318	6.6355	-6.5368	0.7503	-0.2380	0.5458	0.2875
2.25	-9.0941	-0.2031	2.8001	-0.0758	-0.0446	-0.0372	38.3883	6.5639	-6.4775	0.7501	-0.2383	0.5455	0.2879
2.26	-9.1781	-0.2585	2.7540	-0.0817	-0.0109	-0.0484	38.6547	6.4256	-6.4610	0.7500	-0.2387	0.5454	0.2884
2.27	-9.2455	-0.3121	2.7044	-0.0714	-0.0156	-0.0502	38.5424	6.6492	-6.4217	0.7498	-0.2391	0.5452	0.2888
2.28	-9.1890	-0.3064	2.7237	-0.0613	-0.0418	-0.0612	38.7432	6.5625	-6.3787	0.7498	-0.2394	0.5450	0.2892
2.29	-9.1643	-0.2856	2.8006	-0.0626	-0.0377	-0.0549	38.8979	6.5447	-6.7078	0.7496	-0.2397	0.5447	0.2896
2.3	-9.1446	-0.3283	2.7201	-0.0593	-0.0271	-0.0574	38.4750	6.5378	-6.4600	0.7495	-0.2401	0.5445	0.2900
2.31	-9.0794	-0.3469	2.7066	-0.0492	-0.0430	-0.0620	38.5830	6.5921	-6.5226	0.7495	-0.2403	0.5443	0.2903
2.32	-9.0484	-0.3205	2.7799	-0.0394	-0.0385	-0.0510	38.5869	6.6666	-6.5784	0.7494	-0.2406	0.5440	0.2907
2.33	-9.0901	-0.2947	2.7411	-0.0400	-0.0147	-0.0498	38.7195	6.6016	-6.3475	0.7494	-0.2408	0.5440	0.2910
2.34	-9.1647	-0.2661	2.7553	-0.0389	-0.0045	-0.0529	38.6373	6.6967	-6.3574	0.7491	-0.2411	0.5438	0.2913
2.35	-9.1952	-0.2697	2.7560	-0.0398	0.0016	-0.0622	38.5977	6.7191	-6.4501	0.7490	-0.2414	0.5438	0.2916
2.36	-9.2250	-0.2751	2.7716	-0.0322	-0.0076	-0.0609	38.5100	6.7532	-6.4624	0.7488	-0.2417	0.5437	0.2918
2.37	-9.2701	-0.2790	2.7673	-0.0348	-0.0096	-0.0629	38.5083	6.5457	-6.4873	0.7488	-0.2420	0.5436	0.2921
2.38	-9.2752	-0.2915	2.7482	-0.0268	-0.0255	-0.0586	38.6632	6.4896	-6.5647	0.7487	-0.2422	0.5435	0.2924
2.39	-9.2250	-0.3306	2.7531	-0.0302	-0.0382	-0.0588	38.4292	6.8517	-6.5774	0.7486	-0.2424	0.5433	0.2927
2.4	-9.1376	-0.3513	2.7196	-0.0249	-0.0421	-0.0580	38.3141	6.7015	-6.4281	0.7486	-0.2426	0.5431	0.2930
2.41	-9.0969	-0.3550	2.7938	-0.0134	-0.0420	-0.0570	38.4744	6.5896	-6.3971	0.7486	-0.2427	0.5429	0.2932
2.42	-9.1368	-0.3472	2.7645	-0.0141	-0.0146	-0.0558	38.7955	6.7561	-6.4614	0.7485	-0.2429	0.5428	0.2935
2.43	-9.1513	-0.3128	2.7151	-0.0116	-0.0376	-0.0487	39.0052	6.9315	-6.1546	0.7484	-0.2430	0.5426	0.2937
2.44	-9.1089	-0.2858	2.7924	-0.0058	-0.0418	-0.0455	38.9021	6.7871	-6.3106	0.7485	-0.2431	0.5425	0.2940
2.45	-9.0733	-0.2550	2.7755	-0.0094	-0.0289	-0.0412	38.8363	6.6455	-6.5591	0.7484	-0.2432	0.5424	0.2943
2.46	-9.0817	-0.2602	2.7888	-0.0108	-0.0314	-0.0414	38.4978	6.5141	-6.6461	0.7483	-0.2433	0.5422	0.2946
2.47	-9.0877	-0.2605	2.7787	-0.0143	-0.0150	-0.0389	38.4800	6.5208	-6.6603	0.7482	-0.2434	0.5421	0.2949
2.48	-9.0937	-0.2559	2.7808	-0.0129	-0.0132	-0.0405	38.7212	6.8048	-6.4713	0.7481	-0.2436	0.5421	0.2952
2.49	-9.1152	-0.2261	2.7652	-0.0175	-0.0068	-0.0371	38.4948	6.7683	-6.5166	0.7480	-0.2437	0.5421	0.2955
2.5	-9.1441	-0.1966	2.7493	-0.0174	-0.0081	-0.0334	38.4652	6.9342	-6.6157	0.7477	-0.2439	0.5420	0.2958
2.51	-9.1329	-0.2074	2.7574	-0.0308	-0.0216	-0.0365	38.7658	6.5192	-6.9243	0.7477	-0.2441	0.5420	0.2962
2.52	-9.1380	-0.2135	2.8088	-0.0398	-0.0149	-0.0364	38.6691	6.4932	-6.7849	0.7475	-0.2443	0.5418	0.2966
2.53	-9.2043	-0.2326	2.7643	-0.0379	0.0081	-0.0358	38.5794	6.7401	-6.5707	0.7474	-0.2445	0.5418	0.2969
2.54	-9.2493	-0.2473	2.7354	-0.0385	-0.0094	-0.0365	38.4782	6.7838	-6.7740	0.7471	-0.2447	0.5417	0.2973
2.55	-9.1805	-0.2481	2.7490	-0.0388	-0.0257	-0.0410	38.5565	6.8163	-6.6066	0.7470	-0.2449	0.5416	0.2977
2.56	-9.1638	-0.2567	2.7913	-0.0392	-0.0210	-0.0494	38.5038	6.7854	-6.6614	0.7469	-0.2452	0.5415	0.2980
2.57	-9.2053	-0.2607	2.7085	-0.0372	-0.0028	-0.0599	38.3502	6.8223	-6.6421	0.7467	-0.2455	0.5413	0.2982
2.58	-9.1766	-0.2682	2.6905	-0.0381	-0.0250	-0.0546	38.5468	6.6758	-6.6361	0.7467	-0.2458	0.5413	0.2986
2.59	-9.0693	-0.2876	2.7660	-0.0340	-0.0388	-0.0598	38.4694	6.7691	-6.6678	0.7466	-0.2460	0.5410	0.2989
2.6	-9.1989	-0.2624	2.8724	-0.0326	-0.0066	-0.0643	38.5254	6.7736	-6.5677	0.7466	-0.2462	0.5409	0.2991
2.61	-9.2661	-0.2367	2.6248	-0.0381	-0.0012	-0.0621	38.4669	6.5885	-6.5360	0.7463	-0.2465	0.5408	0.2994
2.62	-9.0980	-0.2550	2.7127	-0.0339	-0.0784	-0.0627	38.5374	6.5519	-6.7794	0.7464	-0.2467	0.5405	0.2997
2.63	-8.9615	-0.3124	2.9233	-0.0399	-0.0504	-0.0631	38.7667	6.6477	-6.7058	0.7464	-0.2470	0.5402	0.3000
2.64	-9.0743	-0.3169	2.7471	-0.0388	0.0240	-0.0582	38.7577	6.3161	-6.7530	0.7462	-0.2473	0.5402	0.3003
2.65	-9.1763	-0.3103	2.6546	-0.0349	0.0168	-0.0547	38.8561	6.5884	-6.6045	0.7460	-0.2476	0.5402	0.3006
2.66	-9.1264	-0.2984	2.7788	-0.0363	-0.0204	-0.0439	38.7423	6.7453	-6.6825	0.7459	-0.2478	0.5401	0.3009
2.67	-9.1307	-0.2862	2.7755	-0.0383	0.0005	-0.0427	38.7748	6.7039	-6.7759	0.7457	-0.2481	0.5401	0.3012
2.68	-9.1816	-0.3046	2.6952	-0.0340	0.0176	-0.0517	38.7688	6.7078	-6.5527	0.7454	-0.2483	0.5400	0.3015
2.69	-9.1717	-0.3171	2.7006	-0.0402	-0.0127	-0.0485	38.6466	6.8414	-6.5243	0.7454	-0.2486	0.5400	0.3018
2.7	-9.1397	-0.3313	2.7263	-0.0396	-0.0132	-0.0466	38.5645	6.5675	-6.7886	0.7452	-0.2489	0.5399	0.3021
2.71	-9.1829	-0.3621	2.7434	-0.0296	-0.0011	-0.0411	38.6016	6.5848	-6.7822	0.7450	-0.2491	0.5398	0.3025
2.72	-9.2359	-0.3586	2.6964	-0.0194	0.0004	-0.0477	38.5715	6.7302	-6.5222	0.7449	-0.2493	0.5398	0.3027
2.73	-9.2147	-0.3624	2.6971	-0.0188	-0.0148	-0.0506	38.6149	6.8521	-6.6743	0.7448	-0.2495	0.5397	0.3030
2.74	-9.1845	-0.3712	2.7347	-0.0098	-0.0229	-0.0508	38.7207	6.8709	-6.4368	0.7447	-0.2496	0.5396	0.3033
2.75	-9.1607	-0.3597	2.7096	-0.0112	-0.0209	-0.0476	38.5738	6.6860	-6.5386	0.7445	-0.2497	0.5395	0.3035
2.76	-9.1515	-0.3481	2.7364	-0.0085	-0.0173	-0.0493	38.4985	6.7286	-6.6806	0.7446	-0.2499	0.5395	0.3038
2.77	-9.1669	-0.3109	2.7270	-0.0035	-0.0122	-0.0452	38.4801	6.8516	-6.5905	0.7444	-0.2500	0.5394	0.3040
2.78	-9.2483	-0.3021	2.7551	-0.0043	-0.0077	-0.0434	38.5781	6.9236	-6.5433	0.7444	-0.2501	0.5394	0.3043
2.79	-9.2417	-0.2771	2.6659	-0.0006	-0.0167	-0.0408	38.5970	6.7784	-6.5580	0.7442	-0.2502	0.5393	0.3045
2.8	-9.2211	-0.1628	2.7463	-0.0014	-0.0424	-0.0396	38.4622	6.7103	-6.4329	0.7442	-0.2503	0.5392	0.3048
2.81	-9.1653	-0.2017	2.6883	-0.0152	-0.0424	-0.0412	38.5457	6.6820	-6.8628	0.7441	-0.2504	0.5390	0.3051
2.82	-9.1169	-0.2535	2.7079	-0.0071	-0.0521	-0.0451	38.6838	6.5181	-6.6495	0.7441	-0.2504	0.5388	0.3054
2.83	-9.1591	-0.2533	2.7743	-0.0091	-0.0282	-0.0443	38.6654	6.5557	-6.5283	0.7441	-0.2505	0.5387	0.3057
2.84	-9.2454	-0.2648	2.6759	-0.0146	-0.0149	-0.0457	38.7053	6.5135	-6.8361	0.7439	-0.2507	0.5386	0.3060
2.85	-9.2595	-0.2515	2.6899	-0.0133	-0.0440	-0.0466	38.8168	6.6021	-6.8048	0.7440	-0.2508	0.5385	0.3063
2.86	-9.2115	-0.2442	2.7645	-0.0139	-0.0597	-0.0490	38.5651	6.7130	-6.8552	0.7439	-0.2509	0.5381	0.3066
2.87	-9.2257	-0.2288	2.7473	-0.0133	-0.0533	-0.0457	38.5934	6.7305	-6.6662	0.7439	-0.2510	0.5380	0.3069
2.88	-9.2188	-0.2130	2.7123	-0.0166	-0.0576	-0.0470	38.5831	6.6585	-6.6816	0.7439	-0.2511	0.5377	0.3072
2.89	-9.1775	-0.2016	2.7710	-0.0194	-0.0629	-0.0443	38.5964	6.6121	-6.7686	0.7439	-0.2511	0.5375	0.3076
2.9	-9.1522	-0.2108	2.7820	-0.0251	-0.0659	-0.0461	38.4829	6.6222	-6.6062	0.7440	-0.2513	0.5372	0.3080
2.91	-9.1398	-0.2323	2.7633	-0.0231	-0.0585	-0.0495	38.6385	6.7816	-6.8132	0.7440	-0.2514	0.5369	0.3082
2.92	-9.1314	-0.2420	2.7892	-0.0327	-0.0561	-0.0539	38.5200	6.9866	-6.5892	0.7440	-0.2516	0.5367	0.3087
2.93	-9.1425	-0.2376	2.8012	-0.0235	-0.0458	-0.0574	38.8714	6.9835	-6.5307	0.7439	-0.2516	0.5364	0.3088
2.94	-9.1511	-0.2426	2.7999	-0.0295	-0.0461	-0.0559	39.0568	6.8646	-6.6794	0.7444	-0.2511	0.5366	0.3081
2.95	-9.1400	-0.2494	2.8099	-0.0282	-0.0469	-0.0608	38.7037	6.6766	-6.8090	0.7443	-0.2513	0.5363	0.3084
2.96	-9.1124	-0.2587	2.8128	-0.0356	-0.0508	-0.0586	38.5569	6.7946	-6.8698	0.7443	-0.2515	0.5361	0.3087
2.97	-9.0908	-0.2525	2.8227	-0.0363	-0.0508	-0.0608	38.3434	6.6850	-6.8321	0.7443	-0.2518	0.5358	0.3091
2.98	-9.0814	-0.2464	2.8254	-0.0371	-0.0413	-0.0612	38.5183	6.7199	-6.8792	0.7443	-0.2520	0.5356	0.3093
2.99	-9.0622	-0.2508	2.8181	-0.0398	-0.0379	-0.0632	38.4472	6.8647	-6.9725	0.7442	-0.2523	0.5354	0.3097
3	-9.0369	-0.2574	2.8432	-0.0389	-0.0299	-0.0568	38.4643	6.5804	-6.9010	0.7441	-0.2524	0.5352	0.3099
3.01	-9.0539	-0.2614	2.8393	-0.0393	-0.0241	-0.0508	38.9733	6.7681	-7.0857	0.7445	-0.2520	0.5354	0.3092
3.02	-9.0633	-0.2697	2.8187	-0.0443	-0.0168	-0.0571	38.4824	6.8929	-6.9487	0.7443	-0.2523	0.5352	0.3096
3.03	-9.0545	-0.2697	2.8402	-0.0447	-0.0180	-0.0594	38.6706	6.4325	-7.0041	0.7443	-0.2525	0.5352	0.3098
3.04	-9.0706	-0.2802	2.8514	-0.0380	0.0009	-0.0624	38.6917	6.4338	-7.0262	0.7440	-0.2529	0.5350	0.3102
3.05	-9.1070	-0.2992	2.8211	-0.0390	0.0218	-0.0626	38.8362	6.8148	-6.9275	0.7440	-0.2529	0.5352	0.3099
3.06	-9.1116	-0.3162	2.8055	-0.0388	0.0113	-0.0627	38.8319	6.5518	-7.0861	0.7442	-0.2527	0.5354	0.3094
3.07	-9.0890	-0.3226	2.8239	-0.0360	0.0101	-0.0624	38.4483	6.5818	-6.9183	0.7439	-0.2531	0.5353	0.3098
3.08	-9.1175	-0.3215	2.7994	-0.0328	0.0209	-0.0667	38.5838	6.8396	-6.8564	0.7438	-0.2534	0.5354	0.3100
3.09	-9.1505	-0.3097	2.7557	-0.0354	0.0264	-0.0685	38.6916	6.7729	-6.8177	0.7435	-0.2538	0.5353	0.3102
3.1	-9.1572	-0.2952	2.7967	-0.0319	0.0165	-0.0687	38.7824	6.8448	-6.9380	0.7434	-0.2541	0.5353	0.3103
3.11	-9.1904	-0.3042	2.7911	-0.0340	0.0250	-0.0699	38.6946	7.0135	-6.8623	0.7431	-0.2545	0.5353	0.3105
3.12	-9.2426	-0.3282	2.7610	-0.0376	0.0210	-0.0646	38.4900	6.8020	-6.7190	0.7429	-0.2548	0.5353	0.3107
3.13	-9.2662	-0.3408	2.7697	-0.0399	0.0074	-0.0620	38.6592	6.8670	-6.8002	0.7427	-0.2551	0.5353	0.3110
3.14	-9.2408	-0.3360	2.7806	-0.0388	0.0010	-0.0618	38.5676	6.8162	-6.9648	0.7426	-0.2555	0.5352	0.3112
3.15	-9.2120	-0.3619	2.7883	-0.0393	-0.0123	-0.0585	38.6431	6.7079	-6.7188	0.7425	-0.2557	0.5351	0.3115
3.16	-9.2080	-0.3950	2.7578	-0.0394	-0.0041	-0.0457	38.5460	6.7924	-6.9318	0.7423	-0.2560	0.5350	0.3119
3.17	-9.1805	-0.3937	2.7372	-0.0400	-0.0199	-0.0405	38.3056	6.6664	-7.1078	0.7422	-0.2562	0.5349	0.3122
3.18	-9.1209	-0.3800	2.7713	-0.0308	-0.0269	-0.0361	38.4883	6.7282	-6.8129	0.7419	-0.2565	0.5347	0.3126
3.19	-9.0893	-0.3597	2.7769	-0.0247	-0.0203	-0.0368	38.7845	6.6988	-6.7662	0.7421	-0.2563	0.5348	0.3126
3.2	-9.1084	-0.3519	2.7600	-0.0224	-0.0010	-0.0358	38.8735	6.7105	-6.8656	0.7422	-0.2559	0.5350	0.3120
3.21	-9.1314	-0.3436	2.7440	-0.0168	0.0053	-0.0359	38.6697	6.7606	-6.8417	0.7420	-0.2562	0.5350	0.3125
3.22	-9.1362	-0.3304	2.7408	-0.0143	0.0038	-0.0373	38.7186	6.8378	-6.8368	0.7418	-0.2563	0.5350	0.3127
3.23	-9.1473	-0.3240	2.7385	-0.0060	0.0015	-0.0407	38.5316	6.8523	-7.0099	0.7416	-0.2565	0.5350	0.3130
3.24	-9.1115	-0.3044	2.7181	-0.0001	-0.0072	-0.0455	38.3474	6.7811	-6.7866	0.7416	-0.2566	0.5350	0.3132
3.25	-9.1060	-0.2689	2.7665	0.0083	-0.0004	-0.0460	38.6976	6.8027	-6.8129	0.7414	-0.2567	0.5349	0.3134
3.26	-9.1690	-0.2555	2.7578	-0.0063	0.0169	-0.0537	38.7078	6.6084	-6.9745	0.7413	-0.2569	0.5351	0.3136
3.27	-9.2051	-0.2558	2.7156	-0.0011	0.0070	-0.0535	38.5180	6.7314	-6.7515	0.7411	-0.2570	0.5350	0.3137
3.28	-9.1781	-0.2582	2.7536	-0.0079	-0.0149	-0.0562	38.5440	6.7373	-6.7673	0.7411	-0.2572	0.5350	0.3140
3.29	-9.1495	-0.2606	2.7726	-0.0168	-0.0008	-0.0631	38.3970	7.0139	-6.7413	0.7409	-0.2574	0.5349	0.3141
3.3	-9.1736	-0.2696	2.7448	-0.0203	0.0155	-0.0587	38.3596	6.7048	-6.7914	0.7407	-0.2577	0.5349	0.3143
3.31	-9.1917	-0.2863	2.7347	-0.0251	0.0085	-0.0574	38.6206	6.7448	-6.8595	0.7406	-0.2579	0.5349	0.3146
3.32	-9.1747	-0.3060	2.7457	-0.0241	0.0007	-0.0533	38.6089	6.8930	-6.8569	0.7403	-0.2581	0.5348	0.3148
3.33	-9.1824	-0.3127	2.7415	-0.0347	0.0047	-0.0583	38.4956	6.9732	-6.7349	0.7403	-0.2585	0.5349	0.3151
3.34	-9.2000	-0.3298	2.7207	-0.0411	0.0069	-0.0503	38.6961	6.8449	-6.7912	0.7400	-0.2587	0.5348	0.3153
3.35	-9.1690	-0.3396	2.6789	-0.0360	0.0012	-0.0521	38.3783	6.7116	-6.6573	0.7399	-0.2590	0.5348	0.3156
3.36	-9.1265	-0.3244	2.7532	-0.0295	-0.0134	-0.0478	38.3199	6.7071	-6.7534	0.7397	-0.2592	0.5346	0.3159
3.37	-9.2536	-0.3301	2.7666	-0.0230	0.0172	-0.0509	38.3279	6.8030	-6.9784	0.7395	-0.2595	0.5346	0.3162
3.38	-9.2918	-0.3519	2.6446	-0.0198	-0.0017	-0.0626	38.5830	6.6473	-6.7646	0.7394	-0.2597	0.5346	0.3164
3.39	-9.1830	-0.3730	2.7643	-0.0304	-0.0430	-0.0610	38.8177	6.8342	-6.9853	0.7393	-0.2599	0.5344	0.3166
3.4	-9.1838	-0.4275	2.7787	-0.0172	-0.0072	-0.0623	38.7698	6.5786	-6.7853	0.7392	-0.2602	0.5343	0.3169
3.41	-9.2488	-0.4401	2.6817	-0.0140	-0.0121	-0.0578	38.7800	6.5437	-6.9210	0.7391	-0.2603	0.5342	0.3170
3.42	-9.1854	-0.4117	2.7378	-0.0093	-0.0454	-0.0467	38.8265	6.9041	-6.6304	0.7391	-0.2605	0.5340	0.3174
3.43	-9.1474	-0.3634	2.7935	0.0001	-0.0308	-0.0415	38.9840	6.8700	-6.5296	0.7394	-0.2597	0.5343	0.3165
3.44	-9.1820	-0.3264	2.7223	-0.0017	-0.0118	-0.0435	38.9491	6.8166	-6.9186	0.7399	-0.2590	0.5347	0.3157
3.45	-9.1826	-0.3123	2.7316	-0.0023	-0.0338	-0.0444	38.8316	6.7998	-6.6386	0.7398	-0.2592	0.5345	0.3160
3.46	-9.1560	-0.3198	2.7660	-0.0114	-0.0355	-0.0427	38.6846	6.8673	-6.6674	0.7398	-0.2592	0.5344	0.3163
3.47	-9.1310	-0.3190	2.7617	-0.0118	-0.0319	-0.0504	38.5234	6.8387	-6.7616	0.7397	-0.2594	0.5342	0.3166
3.48	-9.1318	-0.3009	2.7886	-0.0135	-0.0317	-0.0537	38.6081	6.8079	-6.6215	0.7396	-0.2595	0.5341	0.3168
3.49	-9.1326	-0.2989	2.7744	-0.0140	-0.0309	-0.0458	38.5338	7.0489	-6.7325	0.7396	-0.2597	0.5340	0.3171
3.5	-9.1310	-0.2959	2.7940	-0.0152	-0.0310	-0.0465	38.6959	6.7525	-6.7612	0.7394	-0.2597	0.5338	0.3174
3.51	-9.1202	-0.3002	2.8049	-0.0154	-0.0268	-0.0493	38.4095	6.7966	-6.8463	0.7395	-0.2599	0.5337	0.3177
3.52	-9.1227	-0.3053	2.7865	-0.0212	-0.0175	-0.0506	38.4395	6.6140	-6.6899	0.7393	-0.2601	0.5336	0.3179
3.53	-9.1055	-0.3112	2.7794	-0.0239	-0.0203	-0.0506	38.4838	6.8980	-6.6243	0.7393	-0.2603	0.5335	0.3182
3.54	-9.0816	-0.3028	2.8181	-0.0161	-0.0159	-0.0481	38.5856	7.1713	-6.7945	0.7391	-0.2604	0.5333	0.3184
3.55	-9.1088	-0.3002	2.8120	-0.0185	-0.0058	-0.0423	38.6636	7.1081	-6.8312	0.7390	-0.2606	0.5333	0.3187
3.56	-9.1352	-0.3081	2.7686	-0.0151	-0.0028	-0.0386	38.7150	6.7835	-6.7284	0.7388	-0.2608	0.5333	0.3190
3.57	-9.1247	-0.3025	2.7916	-0.0164	-0.0015	-0.0396	38.7612	6.5081	-6.7447	0.7386	-0.2609	0.5332	0.3193
3.58	-9.1261	-0.3179	2.7895	-0.0163	0.0032	-0.0421	38.6583	6.5070	-6.7583	0.7385	-0.2611	0.5333	0.3196
3.59	-9.1346	-0.3326	2.7526	-0.0225	0.0039	-0.0392	38.7625	6.7028	-6.7029	0.7383	-0.2613	0.5332	0.3198
3.6	-9.1292	-0.3363	2.7419	-0.0232	-0.0038	-0.0373	38.5495	6.8282	-6.6467	0.7382	-0.2615	0.5333	0.3202
3.61	-9.1535	-0.3331	2.7465	-0.0199	0.0074	-0.0362	38.6569	6.6778	-6.6518	0.7379	-0.2617	0.5332	0.3204
3.62	-9.2027	-0.2992	2.7303	-0.0202	0.0102	-0.0355	38.6828	6.5873	-6.6738	0.7377	-0.2619	0.5333	0.3207
3.63	-9.2224	-0.2710	2.7318	-0.0136	-0.0040	-0.0369	38.7638	6.8216	-6.6059	0.7375	-0.2620	0.5332	0.3210
3.64	-9.2179	-0.2601	2.7412	-0.0158	-0.0081	-0.0391	38.4639	6.8981	-6.8524	0.7374	-0.2622	0.5332	0.3213
3.65	-9.2067	-0.2445	2.7367	-0.0144	-0.0150	-0.0426	38.4907	6.8415	-6.8220	0.7373	-0.2623	0.5331	0.3216
3.66	-9.2073	-0.2476	2.7295	-0.0143	-0.0069	-0.0470	38.7405	6.7802	-6.6382	0.7371	-0.2625	0.5331	0.3218
3.67	-9.2249	-0.2577	2.7341	-0.0176	-0.0095	-0.0524	38.5180	6.9752	-6.8177	0.7371	-0.2627	0.5330	0.3221
3.68	-9.2362	-0.2761	2.7216	-0.0195	-0.0183	-0.0575	38.4556	6.8728	-6.6425	0.7369	-0.2628	0.5328	0.3223
3.69	-9.2228	-0.2962	2.7305	-0.0107	-0.0204	-0.0579	38.5099	6.7559	-6.5489	0.7369	-0.2630	0.5328	0.3225
3.7	-9.1955	-0.2812	2.7504	-0.0131	-0.0411	-0.0574	38.5995	6.9712	-6.5980	0.7368	-0.2632	0.5326	0.3228
3.71	-9.1860	-0.2694	2.7610	-0.0120	-0.0323	-0.0618	38.5426	6.8911	-6.4721	0.7368	-0.2633	0.5324	0.3230
3.72	-9.1669	-0.2644	2.7615	-0.0177	-0.0342	-0.0541	38.7028	6.7696	-6.5768	0.7367	-0.2635	0.5323	0.3232
3.73	-9.1399	-0.2602	2.7748	-0.0252	-0.0426	-0.0505	38.3506	6.9060	-6.5500	0.7367	-0.2636	0.5321	0.3235
3.74	-9.1161	-0.2632	2.7857	-0.0295	-0.0447	-0.0493	38.5376	6.8195	-6.6487	0.7366	-0.2638	0.5319	0.3239
3.75	-9.1121	-0.2795	2.7899	-0.0323	-0.0374	-0.0472	38.5656	6.6751	-6.9798	0.7365	-0.2640	0.5316	0.3242
3.76	-9.1117	-0.3020	2.7811	-0.0392	-0.0331	-0.0524	38.6083	6.7146	-6.7868	0.7365	-0.2642	0.5315	0.3246
3.77	-9.1031	-0.3222	2.7788	-0.0376	-0.0346	-0.0488	38.7700	6.7815	-6.9187	0.7364	-0.2644	0.5313	0.3249
3.78	-9.0893	-0.3443	2.8005	-0.0337	-0.0216	-0.0443	38.5520	6.3541	-6.8746	0.7363	-0.2647	0.5312	0.3252
3.79	-9.1193	-0.3531	2.8157	-0.0291	-0.0206	-0.0476	38.5647	6.6747	-6.7258	0.7361	-0.2648	0.5310	0.3255
3.8	-9.1552	-0.3647	2.7903	-0.0325	-0.0196	-0.0494	38.6020	6.6232	-6.7542	0.7360	-0.2651	0.5309	0.3258
3.81	-9.1215	-0.3766	2.7900	-0.0171	-0.0214	-0.0485	38.6528	6.7205	-6.7486	0.7359	-0.2652	0.5308	0.3261
3.82	-9.0745	-0.3669	2.8187	-0.0121	-0.0199	-0.0485	38.4415	6.7366	-6.7443	0.7358	-0.2654	0.5307	0.3263
3.83	-9.1210	-0.3560	2.7986	-0.0146	0.0010	-0.0500	38.6107	6.5775	-6.7606	0.7357	-0.2656	0.5307	0.3266
3.84	-9.1424	-0.3443	2.7266	-0.0100	-0.0103	-0.0509	38.5286	6.8785	-6.7212	0.7356	-0.2657	0.5306	0.3268
3.85	-9.0946	-0.3136	2.7930	-0.0123	-0.0197	-0.0477	38.4567	6.8986	-6.8521	0.7355	-0.2659	0.5305	0.3271
3.86	-9.1083	-0.3016	2.8026	-0.0158	0.0015	-0.0483	38.5095	7.0838	-6.7489	0.7353	-0.2660	0.5304	0.3273
3.87	-9.1755	-0.2979	2.7664	-0.0138	0.0016	-0.0477	38.5551	7.0053	-6.7790	0.7352	-0.2663	0.5305	0.3275
3.88	-9.2097	-0.2842	2.7910	-0.0154	-0.0140	-0.0487	38.4646	6.7665	-6.8641	0.7350	-0.2664	0.5304	0.3278
3.89	-9.1902	-0.2876	2.7827	-0.0195	-0.0127	-0.0476	38.4884	6.8423	-6.8473	0.7349	-0.2666	0.5303	0.3280
3.9	-9.1786	-0.3215	2.7909	-0.0323	-0.0150	-0.0464	38.4022	6.9873	-6.7432	0.7348	-0.2668	0.5302	0.3284
3.91	-9.1943	-0.3629	2.7471	-0.0357	-0.0122	-0.0467	38.4830	7.0526	-6.6404	0.7346	-0.2670	0.5301	0.3286
3.92	-9.1629	-0.3858	2.7472	-0.0253	-0.0332	-0.0357	38.5925	7.0557	-6.6795	0.7345	-0.2672	0.5300	0.3290
3.93	-9.1119	-0.3655	2.8070	-0.0202	-0.0437	-0.0336	39.1747	6.9702	-6.6496	0.7348	-0.2666	0.5301	0.3283
3.94	-9.1156	-0.3263	2.8030	-0.0147	-0.0200	-0.0241	39.1662	6.8450	-6.6625	0.7355	-0.2655	0.5306	0.3271
3.95	-9.1407	-0.3046	2.7735	-0.0146	-0.0161	-0.0338	38.9150	6.7018	-6.8316	0.7357	-0.2651	0.5308	0.3267
3.96	-9.1348	-0.3012	2.7701	-0.0133	-0.0194	-0.0346	38.6958	6.8260	-7.0300	0.7355	-0.2653	0.5307	0.3271
3.97	-9.1270	-0.3036	2.7761	-0.0121	-0.0137	-0.0378	38.6782	6.6814	-6.8978	0.7354	-0.2654	0.5307	0.3273
3.98	-9.1369	-0.3098	2.7589	-0.0136	-0.0173	-0.0383	38.8177	6.7783	-6.6720	0.7353	-0.2655	0.5306	0.3277
3.99	-9.1353	-0.2921	2.7627	0.0033	-0.0156	-0.0397	38.4026	6.7769	-6.7804	0.7352	-0.2656	0.5306	0.3279
4	-9.1443	-0.2570	2.7687	0.0081	-0.0189	-0.0413	38.5247	6.6820	-6.6028	0.7350	-0.2656	0.5304	0.3281
4.01	-9.1399	-0.2363	2.7664	0.0041	-0.0187	-0.0498	38.6180	6.8666	-6.6818	0.7350	-0.2657	0.5305	0.3283
4.02	-9.1479	-0.2182	2.7744	0.0016	-0.0151	-0.0485	38.6289	6.5975	-6.6967	0.7349	-0.2658	0.5304	0.3285
4.03	-9.1461	-0.2193	2.7756	-0.0078	-0.0165	-0.0477	38.5375	6.7833	-6.6032	0.7349	-0.2660	0.5303	0.3288
4.04	-9.1327	-0.2182	2.7818	-0.0139	-0.0220	-0.0607	38.5149	6.9067	-6.7400	0.7347	-0.2661	0.5301	0.3290
4.05	-9.1383	-0.2261	2.7884	-0.0124	-0.0105	-0.0564	38.6390	6.8089	-6.7514	0.7346	-0.2663	0.5301	0.3292
4.06	-9.1351	-0.2486	2.7764	-0.0164	-0.0102	-0.0490	38.7767	6.9304	-6.8379	0.7345	-0.2665	0.5300	0.3294
4.07	-9.1315	-0.2495	2.7995	-0.0253	-0.0063	-0.0472	38.4254	6.5753	-6.5003	0.7343	-0.2667	0.5299	0.3297
4.08	-9.1633	-0.2541	2.7799	-0.0397	0.0064	-0.0493	38.4478	6.8898	-6.6785	0.7342	-0.2670	0.5300	0.3300
4.09	-9.1773	-0.2751	2.7673	-0.0331	-0.0024	-0.0480	38.3909	6.7002	-6.8838	0.7340	-0.2672	0.5298	0.3303
4.1	-9.1702	-0.2828	2.7738	-0.0287	-0.0101	-0.0472	38.5882	6.6519	-6.7217	0.7339	-0.2675	0.5298	0.3306
4.11	-9.1225	-0.2786	2.7709	-0.0199	-0.0184	-0.0435	38.5346	6.8621	-6.7353	0.7337	-0.2676	0.5296	0.3308
4.12	-9.2078	-0.2688	2.8300	-0.0224	0.0010	-0.0473	38.5211	6.6499	-6.8276	0.7336	-0.2678	0.5296	0.3311
4.13	-9.2535	-0.2795	2.7080	-0.0250	-0.0018	-0.0535	38.6584	6.4984	-6.6576	0.7334	-0.2681	0.5296	0.3314
4.14	-9.1427	-0.2903	2.7934	-0.0268	-0.0433	-0.0543	38.5590	6.6488	-6.8532	0.7333	-0.2682	0.5294	0.3316
4.15	-9.1242	-0.3347	2.8276	-0.0277	-0.0160	-0.0640	38.7598	6.6239	-6.6784	0.7333	-0.2685	0.5292	0.3319
4.16	-9.1939	-0.3319	2.7141	-0.0150	0.0029	-0.0531	38.7441	6.5384	-6.7927	0.7331	-0.2687	0.5292	0.3321
4.17	-9.1436	-0.2996	2.7659	-0.0152	-0.0406	-0.0464	38.7273	6.7505	-6.7630	0.7331	-0.2688	0.5291	0.3324
4.18	-9.1101	-0.2613	2.8583	-0.0184	-0.0349	-0.0502	38.9079	6.6253	-6.7118	0.7329	-0.2689	0.5288	0.3326
4.19	-9.1813	-0.2286	2.7968	-0.0152	0.0002	-0.0475	38.7548	6.7547	-6.7171	0.7329	-0.2691	0.5289	0.3329
4.2	-9.1923	-0.2342	2.7677	-0.0291	-0.0208	-0.0493	38.6502	6.8476	-6.7919	0.7327	-0.2693	0.5287	0.3332
4.21	-9.1361	-0.2484	2.8402	-0.0236	-0.0347	-0.0455	38.5845	6.7266	-7.0615	0.7327	-0.2695	0.5286	0.3335
4.22	-9.1314	-0.2524	2.8157	-0.0328	-0.0235	-0.0531	38.6395	6.7143	-6.8651	0.7325	-0.2697	0.5284	0.3338
4.23	-9.1472	-0.2693	2.7864	-0.0393	-0.0180	-0.0566	38.5656	6.8555	-6.8378	0.7324	-0.2700	0.5283	0.3341
4.24	-9.1230	-0.2783	2.8105	-0.0382	-0.0222	-0.0543	38.5138	6.5426	-6.7521	0.7323	-0.2702	0.5281	0.3344
4.25	-9.1026	-0.2888	2.8222	-0.0383	-0.0195	-0.0569	38.5097	6.6322	-6.7071	0.7321	-0.2705	0.5279	0.3346
4.26	-9.1119	-0.2954	2.8188	-0.0408	-0.0109	-0.0617	38.5496	6.7239	-6.8431	0.7321	-0.2708	0.5278	0.3350
4.27	-9.1131	-0.3037	2.8055	-0.0396	-0.0146	-0.0619	38.4548	6.7707	-6.6623	0.7319	-0.2711	0.5277	0.3352
4.28	-9.1121	-0.3252	2.8286	-0.0400	-0.0141	-0.0564	38.4936	6.7831	-6.8494	0.7319	-0.2714	0.5276	0.3355
4.29	-9.1147	-0.3460	2.8327	-0.0350	-0.0049	-0.0527	38.5332	6.5849	-6.6976	0.7316	-0.2716	0.5274	0.3357
4.3	-9.1309	-0.3555	2.8100	-0.0363	-0.0053	-0.0502	38.5236	6.9212	-6.7718	0.7315	-0.2719	0.5274	0.3361
4.31	-9.1307	-0.3532	2.8136	-0.0215	-0.0075	-0.0437	38.4959	6.6347	-6.8241	0.7313	-0.2721	0.5273	0.3363
4.32	-9.1178	-0.3431	2.8243	-0.0144	-0.0169	-0.0438	38.6766	6.7752	-6.8838	0.7312	-0.2722	0.5272	0.3366
4.33	-9.1257	-0.3418	2.8177	-0.0191	-0.0084	-0.0429	38.7311	6.9441	-7.0478	0.7311	-0.2724	0.5272	0.3369
4.34	-9.1517	-0.3337	2.8045	-0.0155	-0.0022	-0.0445	38.6647	6.5702	-6.8074	0.7309	-0.2726	0.5271	0.3371
4.35	-9.1472	-0.3227	2.8037	-0.0149	-0.0099	-0.0434	38.7802	6.5828	-6.6289	0.7308	-0.2727	0.5271	0.3374
4.36	-9.1240	-0.3155	2.8098	-0.0217	-0.0063	-0.0365	38.8016	6.8412	-6.6293	0.7305	-0.2729	0.5270	0.3377
4.37	-9.1378	-0.3061	2.8024	-0.0166	0.0035	-0.0412	38.5532	6.6867	-6.7631	0.7304	-0.2731	0.5270	0.3379
4.38	-9.1531	-0.3001	2.7881	-0.0132	0.0010	-0.0412	38.4984	6.7725	-6.8576	0.7302	-0.2732	0.5270	0.3382
4.39	-9.1569	-0.2876	2.7843	-0.0148	0.0016	-0.0386	38.6039	6.8565	-6.7366	0.7301	-0.2734	0.5270	0.3384
4.4	-9.1626	-0.2616	2.7902	-0.0170	-0.0084	-0.0389	38.6193	6.5862	-6.6227	0.7299	-0.2736	0.5269	0.3388
4.41	-9.1770	-0.2451	2.7766	-0.0137	0.0043	-0.0457	38.5994	6.5622	-6.7604	0.7298	-0.2737	0.5269	0.3389
4.42	-9.1991	-0.2396	2.7611	-0.0155	0.0042	-0.0510	38.6446	6.7246	-6.4498	0.7296	-0.2740	0.5269	0.3393
4.43	-9.1839	-0.2319	2.7728	-0.0183	-0.0154	-0.0566	38.8955	7.1831	-6.5359	0.7299	-0.2733	0.5272	0.3383
4.44	-9.1569	-0.2375	2.7965	-0.0199	-0.0206	-0.0554	38.9859	7.3747	-6.6857	0.7305	-0.2727	0.5276	0.3373
4.45	-9.1591	-0.2498	2.7889	-0.0221	-0.0148	-0.0584	38.6864	7.0013	-6.6303	0.7303	-0.2729	0.5274	0.3377
4.46	-9.1579	-0.2572	2.7746	-0.0242	-0.0212	-0.0576	38.5385	7.0723	-6.9315	0.7302	-0.2731	0.5273	0.3379
4.47	-9.1381	-0.2619	2.7958	-0.0227	-0.0230	-0.0514	38.3491	6.8109	-6.9200	0.7301	-0.2733	0.5271	0.3382
4.48	-9.1269	-0.2664	2.7873	-0.0324	-0.0123	-0.0541	38.4907	6.8019	-6.7067	0.7300	-0.2735	0.5270	0.3384
4.49	-9.1259	-0.2693	2.7840	-0.0271	-0.0126	-0.0478	38.6829	7.0717	-6.7470	0.7299	-0.2738	0.5269	0.3387
4.5	-9.1202	-0.2732	2.8052	-0.0203	-0.0069	-0.0451	38.6991	6.6525	-6.8171	0.7296	-0.2739	0.5268	0.3389
4.51	-9.1324	-0.2825	2.7964	-0.0331	-0.0065	-0.0479	38.5501	6.6306	-6.9435	0.7296	-0.2742	0.5268	0.3393
4.52	-9.1303	-0.3004	2.7877	-0.0278	-0.0106	-0.0533	38.5170	6.6687	-6.7612	0.7294	-0.2744	0.5267	0.3395
4.53	-9.1086	-0.3190	2.7927	-0.0380	-0.0191	-0.0594	38.6888	6.5787	-6.7081	0.7293	-0.2747	0.5266	0.3398
4.54	-9.0916	-0.3226	2.7954	-0.0284	-0.0132	-0.0563	38.6885	6.6093	-6.8593	0.7291	-0.2749	0.5264	0.3400
4.55	-9.1281	-0.3180	2.8079	-0.0296	0.0065	-0.0540	38.6581	6.7338	-6.7902	0.7290	-0.2752	0.5264	0.3403
4.56	-9.1494	-0.3191	2.7646	-0.0275	0.0009	-0.0563	38.5655	6.7720	-6.9316	0.7288	-0.2754	0.5263	0.3405
4.57	-9.1081	-0.3198	2.7714	-0.0246	-0.0123	-0.0572	38.6246	6.5675	-6.8273	0.7287	-0.2756	0.5262	0.3407
4.58	-9.1066	-0.3134	2.7970	-0.0361	0.0062	-0.0585	38.3669	6.5410	-6.7562	0.7286	-0.2760	0.5262	0.3410
4.59	-9.1788	-0.3177	2.7531	-0.0327	0.0242	-0.0608	38.4668	6.8771	-6.9497	0.7283	-0.2763	0.5261	0.3412
4.6	-9.1892	-0.3278	2.7123	-0.0326	0.0092	-0.0611	38.5335	6.8559	-6.7704	0.7282	-0.2766	0.5261	0.3414
4.61	-9.1384	-0.3405	2.7662	-0.0382	-0.0010	-0.0613	38.4125	6.9460	-6.9655	0.7279	-0.2769	0.5260	0.3416
4.62	-9.1495	-0.3731	2.7652	-0.0388	0.0127	-0.0611	38.2925	6.8694	-6.9091	0.7278	-0.2772	0.5260	0.3419
4.63	-9.2038	-0.3849	2.7421	-0.0391	0.0041	-0.0556	38.5632	6.9868	-6.7689	0.7276	-0.2775	0.5259	0.3421
4.64	-9.2290	-0.3891	2.7645	-0.0347	-0.0050	-0.0550	38.5994	6.9301	-6.7354	0.7274	-0.2778	0.5258	0.3424
4.65	-9.2167	-0.4004	2.7537	-0.0284	-0.0036	-0.0464	38.6156	7.0699	-6.7501	0.7273	-0.2780	0.5258	0.3427
4.66	-9.1863	-0.4351	2.7401	-0.0203	-0.0163	-0.0435	38.4090	6.8845	-6.8871	0.7271	-0.2782	0.5257	0.3429
4.67	-9.1639	-0.4492	2.7323	-0.0184	-0.0198	-0.0367	38.5308	6.8696	-6.7457	0.7270	-0.2783	0.5256	0.3433
4.68	-9.1372	-0.4224	2.7380	-0.0104	-0.0253	-0.0338	38.7030	6.8003	-6.7510	0.7268	-0.2784	0.5254	0.3435
4.69	-9.1341	-0.3718	2.7470	-0.0053	-0.0182	-0.0281	38.5847	6.6398	-6.8167	0.7268	-0.2785	0.5254	0.3439
4.7	-9.1357	-0.3176	2.7415	0.0006	-0.0182	-0.0250	38.7182	6.6195	-6.7393	0.7266	-0.2785	0.5254	0.3441
4.71	-9.1410	-0.2961	2.7405	0.0003	-0.0105	-0.0348	38.6608	6.8010	-6.9436	0.7265	-0.2786	0.5254	0.3444
4.72	-9.1407	-0.2925	2.7297	0.0008	-0.0008	-0.0361	38.7792	6.6833	-6.9247	0.7263	-0.2787	0.5253	0.3446
4.73	-9.1414	-0.2842	2.7332	0.0045	-0.0022	-0.0381	38.7838	6.5624	-6.7694	0.7262	-0.2788	0.5254	0.3449
4.74	-9.1504	-0.2712	2.7215	0.0054	-0.0031	-0.0430	38.5133	6.4860	-6.7392	0.7261	-0.2789	0.5254	0.3451
4.75	-9.1593	-0.2480	2.7295	0.0071	-0.0049	-0.0435	38.5769	6.6022	-6.6520	0.7259	-0.2789	0.5253	0.3452
4.76	-9.1736	-0.2268	2.7255	0.0064	-0.0002	-0.0535	38.6958	6.7133	-6.6437	0.7259	-0.2791	0.5254	0.3454
4.77	-9.1736	-0.2157	2.7130	-0.0117	-0.0046	-0.0507	38.5571	6.6815	-6.7969	0.7257	-0.2792	0.5253	0.3456
4.78	-9.1771	-0.2193	2.7341	-0.0125	-0.0113	-0.0499	38.6235	6.9677	-6.6377	0.7256	-0.2794	0.5253	0.3459
4.79	-9.1874	-0.2382	2.7316	-0.0183	-0.0025	-0.0540	38.4999	6.8618	-6.7521	0.7254	-0.2796	0.5252	0.3460
4.8	-9.2010	-0.2573	2.7129	-0.0234	-0.0089	-0.0515	38.4825	6.7575	-6.8566	0.7253	-0.2798	0.5251	0.3463
4.81	-9.1875	-0.2709	2.7342	-0.0271	-0.0105	-0.0525	38.4014	6.7821	-6.6251	0.7252	-0.2800	0.5250	0.3466
4.82	-9.1876	-0.2860	2.7452	-0.0351	-0.0078	-0.0499	38.7239	6.8346	-6.7536	0.7249	-0.2803	0.5249	0.3468
4.83	-9.2037	-0.3039	2.7179	-0.0382	-0.0031	-0.0497	38.5533	7.0049	-6.6311	0.7249	-0.2806	0.5249	0.3472
4.84	-9.2149	-0.3100	2.7152	-0.0401	-0.0164	-0.0473	38.5165	7.0281	-6.6953	0.7246	-0.2808	0.5247	0.3474
4.85	-9.2065	-0.3122	2.7274	-0.0397	-0.0231	-0.0436	38.4407	6.8700	-6.7760	0.7246	-0.2810	0.5246	0.3478
4.86	-9.1954	-0.3291	2.7231	-0.0367	-0.0215	-0.0488	38.3989	6.8488	-6.7107	0.7243	-0.2812	0.5244	0.3481
4.87	-9.1492	-0.3263	2.7251	-0.0335	-0.0309	-0.0423	38.5390	7.0090	-6.9092	0.7243	-0.2814	0.5242	0.3484
4.88	-9.2104	-0.3117	2.8029	-0.0378	-0.0264	-0.0426	38.8249	6.6754	-6.7154	0.7241	-0.2816	0.5241	0.3488
4.89	-9.2508	-0.3364	2.6805	-0.0374	-0.0287	-0.0501	38.5751	6.5761	-6.8947	0.7240	-0.2819	0.5239	0.3491
4.9	-9.1351	-0.3436	2.7772	-0.0290	-0.0589	-0.0507	38.7212	6.6078	-7.0323	0.7240	-0.2820	0.5236	0.3495
4.91	-9.1023	-0.3859	2.8399	-0.0275	-0.0364	-0.0530	38.7320	6.6237	-6.8823	0.7240	-0.2822	0.5234	0.3497
4.92	-9.1605	-0.3804	2.7364	-0.0151	-0.0224	-0.0454	38.7470	6.7560	-6.7118	0.7238	-0.2824	0.5233	0.3501
4.93	-9.1031	-0.3362	2.7856	-0.0166	-0.0531	-0.0416	39.0911	6.8941	-6.5213	0.7242	-0.2816	0.5235	0.3492
4.94	-9.0697	-0.2781	2.8745	-0.0115	-0.0409	-0.0358	39.0135	6.8368	-6.6887	0.7248	-0.2809	0.5238	0.3485
4.95	-9.1268	-0.2546	2.8177	-0.0173	-0.0140	-0.0390	38.8149	6.8985	-6.6234	0.7246	-0.2811	0.5237	0.3488
4.96	-9.1315	-0.2584	2.7961	-0.0127	-0.0212	-0.0338	38.7207	6.5910	-6.8618	0.7245	-0.2812	0.5236	0.3491
4.97	-9.0872	-0.2704	2.8405	-0.0223	-0.0245	-0.0442	38.6478	6.7692	-6.6030	0.7244	-0.2814	0.5234	0.3494
4.98	-9.0942	-0.2804	2.8188	-0.0265	-0.0054	-0.0492	38.5680	6.8443	-6.6136	0.7243	-0.2815	0.5234	0.3496
4.99	-9.1152	-0.2760	2.7879	-0.0235	-0.0049	-0.0538	38.4390	6.7614	-6.6045	0.7241	-0.2818	0.5233	0.3499
5	-9.1215	-0.2764	2.7948	-0.0285	-0.0052	-0.0514	38.6813	7.0656	-6.6155	0.7239	-0.2819	0.5232	0.3500
5.01	-9.1100	-0.2752	2.8007	-0.0170	-0.0057	-0.0446	38.8789	6.6327	-6.8993	0.7243	-0.2815	0.5236	0.3494
5.02	-9.1109	-0.2878	2.7960	-0.0182	0.0033	-0.0537	38.5544	6.9359	-6.7919	0.7241	-0.2817	0.5235	0.3496
5.03	-9.1332	-0.3063	2.7781	-0.0189	0.0079	-0.0525	38.6802	6.8028	-6.6697	0.7240	-0.2819	0.5236	0.3498
5.04	-9.1454	-0.3168	2.7660	-0.0258	0.0040	-0.0503	38.5907	6.8942	-6.6422	0.7237	-0.2821	0.5234	0.3500
5.05	-9.1522	-0.3266	2.7603	-0.0249	0.0047	-0.0473	38.6928	7.0290	-6.8044	0.7236	-0.2824	0.5234	0.3503
5.06	-9.1544	-0.3420	2.7599	-0.0122	0.0017	-0.0454	38.6751	6.7145	-6.8643	0.7234	-0.2826	0.5234	0.3505
5.07	-9.1824	-0.3449	2.7591	-0.0214	0.0056	-0.0441	38.6676	6.5046	-6.7542	0.7232	-0.2827	0.5234	0.3507
5.08	-9.2240	-0.3425	2.7304	-0.0217	0.0064	-0.0442	38.6865	6.7679	-6.6273	0.7231	-0.2830	0.5234	0.3510
5.09	-9.2310	-0.3346	2.7122	-0.0125	-0.0102	-0.0428	38.9424	6.6937	-6.6883	0.7229	-0.2831	0.5233	0.3513
5.1	-9.2009	-0.3259	2.7426	-0.0137	-0.0241	-0.0462	38.6924	6.7905	-6.8011	0.7228	-0.2833	0.5233	0.3515
5.11	-9.1976	-0.3133	2.7542	-0.0071	-0.0221	-0.0447	38.6691	6.8363	-6.5393	0.7227	-0.2833	0.5231	0.3517
5.12	-9.2115	-0.3044	2.7277	0.0032	-0.0170	-0.0488	38.6731	6.6640	-6.5770	0.7226	-0.2835	0.5231	0.3520
5.13	-9.2036	-0.2988	2.7395	-0.0027	-0.0270	-0.0472	38.6925	6.4810	-6.5281	0.7225	-0.2835	0.5230	0.3522
5.14	-9.1826	-0.2880	2.7600	-0.0019	-0.0320	-0.0435	38.5929	6.7147	-6.6564	0.7225	-0.2836	0.5228	0.3524
5.15	-9.1887	-0.2702	2.7437	0.0024	-0.0142	-0.0450	38.5864	6.7395	-6.6518	0.7224	-0.2837	0.5228	0.3527
5.16	-9.1926	-0.2627	2.7393	-0.0030	-0.0205	-0.0534	38.5779	6.6956	-6.3929	0.7223	-0.2838	0.5227	0.3529
5.17	-9.1723	-0.2517	2.7421	-0.0111	-0.0237	-0.0535	38.6330	6.7959	-6.6017	0.7223	-0.2840	0.5226	0.3531
5.18	-9.1459	-0.2400	2.7452	-0.0095	-0.0327	-0.0485	38.7946	6.8185	-6.7844	0.7221	-0.2841	0.5224	0.3533
5.19	-9.1359	-0.2323	2.7691	-0.0155	-0.0316	-0.0490	38.5244	6.7043	-6.7032	0.7221	-0.2842	0.5223	0.3536
5.2	-9.1577	-0.2443	2.7621	-0.0143	-0.0245	-0.0454	38.6664	6.8849	-6.6698	0.7220	-0.2843	0.5221	0.3539
5.21	-9.1583	-0.2558	2.7528	-0.0127	-0.0192	-0.0530	38.6244	6.9171	-6.5665	0.7219	-0.2845	0.5221	0.3541
5.22	-9.1408	-0.2557	2.7854	-0.0191	-0.0288	-0.0516	38.5544	6.7943	-6.6628	0.7218	-0.2847	0.5219	0.3544
5.23	-9.1410	-0.2701	2.7818	-0.0241	-0.0265	-0.0470	38.5052	6.6946	-6.8954	0.7217	-0.2848	0.5218	0.3546
5.24	-9.1416	-0.2922	2.7710	-0.0326	-0.0273	-0.0438	38.4598	6.5524	-6.5860	0.7216	-0.2850	0.5216	0.3550
5.25	-9.1321	-0.2984	2.7776	-0.0345	-0.0287	-0.0480	38.6567	6.5438	-6.8587	0.7215	-0.2851	0.5214	0.3552
5.26	-9.1360	-0.3106	2.7820	-0.0325	-0.0243	-0.0500	38.9996	6.6354	-6.8070	0.7219	-0.2847	0.5217	0.3546
5.27	-9.1360	-0.3087	2.7763	-0.0304	-0.0201	-0.0470	38.6083	6.8222	-6.5930	0.7217	-0.2849	0.5215	0.3549
5.28	-9.1303	-0.3026	2.7718	-0.0367	-0.0225	-0.0407	38.5851	6.6862	-6.7390	0.7217	-0.2851	0.5214	0.3552
5.29	-9.1330	-0.3050	2.7762	-0.0376	-0.0219	-0.0444	38.5797	6.5074	-6.8483	0.7214	-0.2853	0.5212	0.3555
5.3	-9.1453	-0.3163	2.7605	-0.0382	-0.0241	-0.0448	38.7140	6.8037	-6.5799	0.7213	-0.2855	0.5211	0.3559
5.31	-9.1407	-0.3182	2.7544	-0.0335	-0.0134	-0.0440	38.6199	6.6297	-6.7617	0.7212	-0.2858	0.5210	0.3562
5.32	-9.1581	-0.3164	2.7689	-0.0312	-0.0101	-0.0426	38.5025	6.6472	-6.6376	0.7210	-0.2859	0.5208	0.3564
5.33	-9.1897	-0.3289	2.7430	-0.0258	-0.0134	-0.0389	38.4734	6.6047	-6.7855	0.7209	-0.2862	0.5208	0.3568
5.34	-9.1739	-0.3360	2.7484	-0.0267	-0.0244	-0.0411	38.7008	6.8364	-6.8168	0.7207	-0.2863	0.5206	0.3571
5.35	-9.1473	-0.3331	2.7614	-0.0241	-0.0234	-0.0439	38.7927	6.9098	-6.7311	0.7206	-0.2865	0.5206	0.3574
5.36	-9.1389	-0.3361	2.7522	-0.0162	-0.0211	-0.0447	38.6896	6.9224	-6.6814	0.7204	-0.2866	0.5204	0.3576
5.37	-9.1269	-0.3328	2.7559	-0.0162	-0.0215	-0.0408	38.6215	6.6171	-6.5105	0.7204	-0.2868	0.5203	0.3579
5.38	-9.1119	-0.3139	2.7745	-0.0114	-0.0150	-0.0405	38.4681	6.7556	-6.6259	0.7202	-0.2869	0.5202	0.3582
5.39	-9.1395	-0.2977	2.7776	-0.0099	-0.0060	-0.0446	38.4871	6.7625	-6.7308	0.7201	-0.2870	0.5202	0.3584
5.4	-9.1774	-0.2912	2.7648	-0.0059	-0.0074	-0.0476	38.6262	6.6152	-6.7788	0.7200	-0.2872	0.5201	0.3586
5.41	-9.1529	-0.2825	2.7630	-0.0104	-0.0164	-0.0580	38.6361	6.7448	-6.6707	0.7199	-0.2873	0.5200	0.3588
5.42	-9.1440	-0.2746	2.7865	-0.0099	-0.0127	-0.0527	38.6518	6.7534	-6.2863	0.7198	-0.2875	0.5200	0.3591
5.43	-9.1876	-0.2664	2.7586	-0.0011	0.0031	-0.0514	38.9964	6.9885	-6.6756	0.7201	-0.2869	0.5203	0.3582
5.44	-9.2338	-0.2556	2.7540	-0.0082	-0.0100	-0.0521	38.9142	7.0278	-6.8807	0.7208	-0.2860	0.5209	0.3569
5.45	-9.1972	-0.2686	2.7538	-0.0087	-0.0277	-0.0497	38.8807	6.7232	-6.8112	0.7210	-0.2856	0.5210	0.3564
5.46	-9.1627	-0.2719	2.7965	-0.0175	-0.0316	-0.0465	38.8378	6.5820	-6.7524	0.7209	-0.2858	0.5209	0.3568
5.47	-9.1961	-0.2714	2.7948	-0.0152	-0.0221	-0.0481	38.3972	6.7126	-6.6194	0.7208	-0.2859	0.5207	0.3570
5.48	-9.2350	-0.2837	2.7736	-0.0106	-0.0275	-0.0488	38.5006	6.4673	-6.8578	0.7208	-0.2860	0.5206	0.3573
5.49	-9.1995	-0.2971	2.7998	-0.0193	-0.0410	-0.0465	38.5989	6.7748	-6.9212	0.7207	-0.2862	0.5205	0.3576
5.5	-9.1456	-0.3413	2.8116	-0.0200	-0.0469	-0.0435	38.3618	6.8201	-6.7268	0.7206	-0.2862	0.5202	0.3578
5.51	-9.1278	-0.3754	2.7956	-0.0193	-0.0410	-0.0378	38.5644	6.5476	-6.7587	0.7206	-0.2864	0.5201	0.3582
5.52	-9.0897	-0.3683	2.7895	-0.0117	-0.0524	-0.0363	38.5858	6.5637	-6.7536	0.7205	-0.2864	0.5199	0.3585
5.53	-9.0546	-0.3323	2.8285	-0.0014	-0.0446	-0.0336	38.6230	6.6379	-6.9690	0.7205	-0.2865	0.5197	0.3589
5.54	-9.0569	-0.2959	2.8124	0.0016	-0.0223	-0.0331	38.4805	6.5966	-6.8090	0.7203	-0.2865	0.5196	0.3591
5.55	-9.0662	-0.2694	2.7977	0.0067	-0.0206	-0.0370	38.3014	6.7458	-6.8907	0.7203	-0.2865	0.5196	0.3593
5.56	-9.0590	-0.2648	2.7986	0.0105	-0.0207	-0.0380	38.5104	6.8217	-6.7213	0.7202	-0.2866	0.5195	0.3596
5.57	-9.0690	-0.2539	2.7893	0.0116	-0.0025	-0.0456	38.5054	6.6983	-6.6819	0.7201	-0.2866	0.5195	0.3597
5.58	-9.1011	-0.2308	2.7839	0.0105	0.0087	-0.0456	38.5020	6.7072	-6.9235	0.7200	-0.2868	0.5196	0.3599
5.59	-9.1203	-0.1979	2.7695	0.0111	0.0089	-0.0535	38.3839	6.8228	-6.8931	0.7198	-0.2868	0.5196	0.3600
5.6	-9.1332	-0.1570	2.7705	0.0120	0.0041	-0.0531	38.4539	6.7515	-7.0653	0.7197	-0.2870	0.5197	0.3601
5.61	-9.1554	-0.1379	2.7703	0.0091	0.0054	-0.0552	38.2904	6.9085	-6.8292	0.7195	-0.2871	0.5196	0.3602
5.62	-9.1787	-0.1287	2.7482	-0.0052	-0.0001	-0.0614	38.5987	6.7274	-6.5348	0.7195	-0.2873	0.5196	0.3604
5.63	-9.1928	-0.1407	2.7522	-0.0135	-0.0098	-0.0617	38.8871	6.3917	-7.0598	0.7193	-0.2875	0.5195	0.3606
5.64	-9.1911	-0.1647	2.7514	-0.0186	-0.0053	-0.0599	38.7886	6.5492	-6.9352	0.7192	-0.2877	0.5194	0.3607
5.65	-9.2214	-0.1950	2.7408	-0.0382	-0.0005	-0.0639	38.6546	6.4098	-6.8219	0.7191	-0.2880	0.5194	0.3610
5.66	-9.2404	-0.2315	2.7211	-0.0405	-0.0081	-0.0542	38.7152	6.6150	-6.8510	0.7189	-0.2883	0.5192	0.3612
5.67	-9.2318	-0.2588	2.7220	-0.0414	-0.0237	-0.0489	38.6059	6.5456	-6.8167	0.7188	-0.2885	0.5191	0.3616
5.68	-9.2258	-0.2922	2.7263	-0.0443	-0.0232	-0.0515	38.5948	6.5873	-6.9432	0.7186	-0.2887	0.5188	0.3618
5.69	-9.2169	-0.3121	2.6969	-0.0454	-0.0326	-0.0417	38.5745	6.7462	-6.9223	0.7185	-0.2890	0.5187	0.3623
5.7	-9.2065	-0.3252	2.7178	-0.0411	-0.0391	-0.0409	38.6605	6.8147	-6.7988	0.7184	-0.2892	0.5185	0.3626
5.71	-9.1723	-0.3207	2.7119	-0.0399	-0.0443	-0.0437	38.6387	6.7202	-6.6431	0.7183	-0.2894	0.5182	0.3630
5.72	-9.1835	-0.3002	2.7849	-0.0395	-0.0468	-0.0451	38.4722	6.6800	-6.7751	0.7182	-0.2895	0.5180	0.3633
5.73	-9.2790	-0.3080	2.7476	-0.0416	-0.0170	-0.0584	38.6531	6.8641	-6.5897	0.7181	-0.2898	0.5178	0.3636
5.74	-9.2240	-0.2908	2.6960	-0.0325	-0.0502	-0.0582	38.5146	6.8462	-6.8153	0.7181	-0.2900	0.5176	0.3639
5.75	-9.1323	-0.3189	2.8517	-0.0322	-0.0589	-0.0632	38.5022	6.6743	-6.8356	0.7180	-0.2901	0.5172	0.3642
5.76	-9.1700	-0.3430	2.7668	-0.0296	-0.0292	-0.0619	38.5044	6.8196	-6.9890	0.7180	-0.2904	0.5171	0.3645
5.77	-9.1610	-0.3297	2.7463	-0.0181	-0.0503	-0.0586	38.5168	7.0616	-6.9888	0.7179	-0.2905	0.5168	0.3647
5.78	-9.0765	-0.2908	2.8621	-0.0223	-0.0688	-0.0505	38.4963	6.9954	-6.7143	0.7180	-0.2906	0.5166	0.3651
5.79	-9.1106	-0.2400	2.8580	-0.0340	-0.0396	-0.0474	38.5313	6.8672	-6.8635	0.7179	-0.2908	0.5163	0.3654
5.8	-9.1443	-0.2336	2.7859	-0.0368	-0.0401	-0.0505	38.4560	6.7547	-6.8535	0.7178	-0.2910	0.5161	0.3657
5.81	-9.0994	-0.2511	2.8530	-0.0387	-0.0609	-0.0418	38.6366	6.8474	-7.2002	0.7178	-0.2911	0.5158	0.3661
5.82	-9.0871	-0.2771	2.8813	-0.0428	-0.0513	-0.0465	38.6968	6.5381	-7.2227	0.7176	-0.2913	0.5155	0.3664
5.83	-9.1187	-0.2975	2.8272	-0.0408	-0.0337	-0.0451	38.5969	6.5058	-7.0921	0.7176	-0.2915	0.5154	0.3668
5.84	-9.0908	-0.3071	2.8404	-0.0419	-0.0462	-0.0483	38.8229	6.6878	-7.1402	0.7175	-0.2917	0.5151	0.3671
5.85	-9.0706	-0.3179	2.8740	-0.0412	-0.0386	-0.0479	38.5096	6.7099	-7.0554	0.7174	-0.2919	0.5149	0.3675
5.86	-9.0899	-0.3293	2.8452	-0.0433	-0.0221	-0.0444	38.4802	6.6164	-6.9929	0.7172	-0.2921	0.5146	0.3678
5.87	-9.0953	-0.3486	2.8370	-0.0338	-0.0333	-0.0490	38.6623	6.7032	-7.1898	0.7172	-0.2924	0.5145	0.3682
5.88	-9.0841	-0.3595	2.8426	-0.0255	-0.0306	-0.0472	38.6367	6.5614	-6.9881	0.7170	-0.2925	0.5143	0.3684
5.89	-9.0939	-0.3616	2.8475	-0.0191	-0.0166	-0.0515	38.5801	6.7176	-6.9058	0.7169	-0.2927	0.5142	0.3687
5.9	-9.1181	-0.3706	2.8385	-0.0135	-0.0239	-0.0459	38.5949	6.6796	-7.0452	0.7168	-0.2929	0.5141	0.3690
5.91	-9.1291	-0.3573	2.8368	-0.0138	-0.0206	-0.0496	38.4810	6.8749	-6.9000	0.7167	-0.2930	0.5140	0.3692
5.92	-9.1329	-0.3514	2.8416	-0.0096	-0.0151	-0.0534	38.5316	6.8135	-6.9725	0.7166	-0.2932	0.5139	0.3694
5.93	-9.1353	-0.3415	2.8402	-0.0055	-0.0188	-0.0534	38.8701	6.7823	-6.8316	0.7165	-0.2932	0.5138	0.3694
5.94	-9.1511	-0.3217	2.8370	0.0005	-0.0126	-0.0432	39.0767	6.8935	-6.8463	0.7170	-0.2926	0.5142	0.3687
5.95	-9.1583	-0.3095	2.8256	0.0065	-0.0166	-0.0467	38.5972	6.8565	-6.6998	0.7169	-0.2927	0.5141	0.3689
5.96	-9.1554	-0.2965	2.8363	-0.0091	-0.0229	-0.0462	38.4545	6.7732	-6.9663	0.7168	-0.2928	0.5140	0.3692
5.97	-9.1619	-0.2800	2.8289	0.0055	-0.0198	-0.0435	38.1697	6.5924	-6.5657	0.7167	-0.2929	0.5139	0.3694
5.98	-9.1580	-0.2562	2.8267	-0.0022	-0.0190	-0.0366	38.1800	6.9078	-6.8113	0.7166	-0.2929	0.5139	0.3696
5.99	-9.1637	-0.2468	2.8436	0.0051	-0.0271	-0.0371	38.4913	6.6632	-6.9007	0.7165	-0.2930	0.5138	0.3699
6	-9.1671	-0.2374	2.8327	-0.0032	-0.0288	-0.0404	38.5686	6.6262	-6.8937	0.7164	-0.2930	0.5136	0.3701
6.01	-9.1516	-0.2288	2.8367	-0.0038	-0.0339	-0.0412	38.7444	6.6423	-7.0417	0.7164	-0.2931	0.5136	0.3704
6.02	-9.1447	-0.2254	2.8510	-0.0035	-0.0365	-0.0469	38.7344	6.6419	-6.7461	0.7163	-0.2932	0.5134	0.3706
6.03	-9.1416	-0.2238	2.8430	-0.0023	-0.0295	-0.0451	38.6813	6.6318	-6.9501	0.7163	-0.2933	0.5133	0.3709
6.04	-9.1322	-0.2326	2.8566	-0.0085	-0.0390	-0.0506	38.5902	6.6522	-6.9271	0.7162	-0.2933	0.5131	0.3711
6.05	-9.1248	-0.2395	2.8597	-0.0091	-0.0413	-0.0530	38.6077	6.6098	-6.8007	0.7162	-0.2935	0.5129	0.3714
6.06	-9.1131	-0.2471	2.8650	-0.0104	-0.0470	-0.0570	38.5465	6.9010	-6.9135	0.7161	-0.2936	0.5127	0.3716
6.07	-9.0967	-0.2545	2.8753	-0.0157	-0.0439	-0.0587	38.4840	6.7625	-6.9487	0.7161	-0.2937	0.5125	0.3718
6.08	-9.0886	-0.2634	2.8783	-0.0146	-0.0360	-0.0576	38.5213	6.5077	-6.8241	0.7161	-0.2939	0.5124	0.3721
6.09	-9.0745	-0.2646	2.8852	-0.0140	-0.0348	-0.0559	38.6361	6.7044	-6.9743	0.7160	-0.2940	0.5121	0.3723
6.1	-9.0636	-0.2628	2.9004	-0.0143	-0.0306	-0.0533	38.5156	6.7882	-6.8945	0.7160	-0.2941	0.5120	0.3726
6.11	-9.0651	-0.2694	2.8992	-0.0154	-0.0241	-0.0495	38.5038	6.8311	-7.0588	0.7158	-0.2942	0.5118	0.3728
6.12	-9.0711	-0.2671	2.8937	-0.0163	-0.0149	-0.0524	38.6081	6.7942	-6.9869	0.7158	-0.2944	0.5118	0.3730
6.13	-9.0688	-0.2642	2.8952	-0.0154	-0.0185	-0.0525	38.4462	6.8400	-6.9440	0.7156	-0.2946	0.5116	0.3733
6.14	-9.0723	-0.2660	2.8964	-0.0269	-0.0101	-0.0568	38.6255	6.7251	-7.1623	0.7155	-0.2948	0.5115	0.3735
6.15	-9.0693	-0.2766	2.8917	-0.0169	-0.0074	-0.0481	38.4740	6.7234	-6.8908	0.7154	-0.2950	0.5115	0.3737
6.16	-9.0818	-0.2920	2.8874	-0.0172	-0.0084	-0.0516	38.4213	6.8534	-6.8382	0.7152	-0.2952	0.5114	0.3739
6.17	-9.1080	-0.3023	2.8812	-0.0217	-0.0058	-0.0500	38.5994	6.7491	-7.0567	0.7151	-0.2954	0.5113	0.3742
6.18	-9.1075	-0.3068	2.8684	-0.0213	-0.0108	-0.0424	38.5958	6.6355	-6.9092	0.7149	-0.2955	0.5112	0.3744
6.19	-9.1052	-0.3100	2.8866	-0.0181	-0.0145	-0.0426	38.5872	6.6291	-6.9633	0.7148	-0.2957	0.5111	0.3747
6.2	-9.1167	-0.3092	2.8747	-0.0130	0.0013	-0.0435	38.6242	6.6631	-7.0156	0.7146	-0.2959	0.5111	0.3749
6.21	-9.1182	-0.3036	2.8565	-0.0151	0.0018	-0.0462	38.7826	6.8408	-6.8256	0.7145	-0.2961	0.5111	0.3752
6.22	-9.1029	-0.2912	2.8710	-0.0185	-0.0043	-0.0427	38.7771	6.6259	-6.8424	0.7143	-0.2962	0.5110	0.3754
6.23	-9.0958	-0.2762	2.8734	-0.0278	-0.0061	-0.0401	38.6348	6.6339	-6.8428	0.7141	-0.2964	0.5109	0.3757
6.24	-9.1175	-0.2705	2.8557	-0.0224	0.0042	-0.0400	38.5771	6.6504	-7.0258	0.7139	-0.2967	0.5109	0.3759
6.25	-9.1384	-0.2715	2.8538	-0.0157	0.0013	-0.0434	38.6156	6.6135	-7.0206	0.7137	-0.2968	0.5108	0.3761
6.26	-9.1437	-0.2692	2.8370	-0.0142	-0.0004	-0.0408	38.4659	6.6796	-6.9295	0.7136	-0.2970	0.5109	0.3764
6.27	-9.1448	-0.2615	2.8374	-0.0163	0.0049	-0.0472	38.5710	6.5440	-6.9022	0.7134	-0.2972	0.5108	0.3766
6.28	-9.1492	-0.2636	2.8428	-0.0239	-0.0001	-0.0419	38.5621	6.6901	-6.7719	0.7133	-0.2974	0.5108	0.3769
6.29	-9.1458	-0.2668	2.8212	-0.0263	0.0030	-0.0459	38.3659	6.7292	-7.1612	0.7130	-0.2976	0.5107	0.3771
6.3	-9.1515	-0.2630	2.8153	-0.0148	0.0065	-0.0421	38.7157	6.8648	-7.0913	0.7128	-0.2978	0.5107	0.3774
6.31	-9.1467	-0.2493	2.8136	-0.0213	0.0004	-0.0425	38.7631	6.6835	-6.7703	0.7126	-0.2980	0.5107	0.3776
6.32	-9.1370	-0.2555	2.8103	-0.0157	-0.0083	-0.0423	38.5603	6.6913	-6.7342	0.7124	-0.2981	0.5106	0.3778
6.33	-9.1243	-0.2472	2.8163	-0.0214	-0.0131	-0.0392	38.6337	6.7479	-6.7596	0.7124	-0.2983	0.5105	0.3782
6.34	-9.1062	-0.2400	2.8370	-0.0200	-0.0199	-0.0373	38.3970	6.7228	-6.7395	0.7122	-0.2984	0.5104	0.3784
6.35	-9.1119	-0.2489	2.8461	-0.0348	0.0010	-0.0349	38.5211	6.6810	-6.7616	0.7120	-0.2987	0.5104	0.3787
6.36	-9.1339	-0.2599	2.8168	-0.0319	0.0033	-0.0371	38.3914	6.5931	-6.7209	0.7117	-0.2989	0.5102	0.3790
6.37	-9.1425	-0.2688	2.8240	-0.0272	-0.0039	-0.0319	38.3606	6.8057	-6.9114	0.7116	-0.2991	0.5102	0.3793
6.38	-9.1332	-0.2767	2.8345	-0.0242	-0.0032	-0.0341	38.7296	6.5816	-6.8891	0.7114	-0.2993	0.5102	0.3796
6.39	-9.1393	-0.2736	2.8204	-0.0167	-0.0004	-0.0365	38.6504	6.6062	-6.8011	0.7112	-0.2994	0.5101	0.3799
6.4	-9.1576	-0.2650	2.8074	-0.0123	0.0064	-0.0356	38.8061	6.7498	-6.9655	0.7110	-0.2996	0.5101	0.3802
6.41	-9.1636	-0.2560	2.7979	-0.0143	0.0059	-0.0360	38.6120	6.4687	-6.7595	0.7108	-0.2997	0.5101	0.3804
6.42	-9.1651	-0.2358	2.8021	-0.0073	0.0023	-0.0357	38.6126	6.6534	-6.7460	0.7106	-0.2999	0.5101	0.3807
6.43	-9.1679	-0.2198	2.7895	-0.0062	-0.0024	-0.0397	38.8947	6.6246	-6.7337	0.7105	-0.2999	0.5101	0.3807
6.44	-9.1564	-0.2079	2.7786	-0.0082	-0.0142	-0.0423	38.9363	6.6663	-6.8740	0.7109	-0.2994	0.5105	0.3800
6.45	-9.1292	-0.1989	2.7987	0.0004	-0.0205	-0.0436	38.6603	6.6750	-6.7734	0.7108	-0.2995	0.5104	0.3803
6.46	-9.1270	-0.1671	2.7902	0.0031	-0.0119	-0.0469	38.4213	6.6133	-6.6561	0.7107	-0.2995	0.5104	0.3805
6.47	-9.1492	-0.1566	2.8130	-0.0082	-0.0090	-0.0596	38.3033	6.5536	-6.9053	0.7105	-0.2997	0.5103	0.3806
6.48	-9.1729	-0.1435	2.7860	-0.0075	-0.0046	-0.0579	38.4256	6.6363	-6.7609	0.7105	-0.2999	0.5102	0.3808
6.49	-9.1647	-0.1389	2.8009	-0.0144	-0.0128	-0.0599	38.0843	6.6705	-7.0171	0.7104	-0.3001	0.5101	0.3810
6.5	-9.1667	-0.1369	2.8152	-0.0112	-0.0070	-0.0643	38.3182	6.7549	-6.9319	0.7102	-0.3002	0.5100	0.3811
6.51	-9.2098	-0.1313	2.7868	-0.0170	-0.0018	-0.0680	38.5620	6.8670	-6.8646	0.7102	-0.3005	0.5100	0.3813
6.52	-9.2097	-0.1486	2.7787	-0.0188	-0.0089	-0.0780	38.4337	6.7108	-7.0495	0.7100	-0.3007	0.5098	0.3814
6.53	-9.1557	-0.1697	2.7891	-0.0281	-0.0198	-0.0770	38.4698	6.5950	-6.8199	0.7100	-0.3010	0.5097	0.3816
6.54	-9.1721	-0.1924	2.8210	-0.0418	-0.0081	-0.0731	38.5355	6.5969	-6.8252	0.7098	-0.3013	0.5095	0.3817
6.55	-9.2315	-0.2086	2.7775	-0.0379	-0.0152	-0.0691	38.4656	6.5617	-6.8843	0.7097	-0.3016	0.5093	0.3820
6.56	-9.2166	-0.2266	2.7884	-0.0540	-0.0319	-0.0621	38.5839	6.5003	-7.0813	0.7096	-0.3019	0.5091	0.3823
6.57	-9.1637	-0.2690	2.8318	-0.0576	-0.0387	-0.0650	38.5693	6.7319	-6.9238	0.7095	-0.3022	0.5088	0.3826
6.58	-9.1501	-0.3318	2.8011	-0.0497	-0.0330	-0.0624	38.8310	6.5292	-6.9102	0.7095	-0.3025	0.5086	0.3829
6.59	-9.1220	-0.3654	2.7911	-0.0532	-0.0405	-0.0538	38.8321	6.4082	-6.9793	0.7093	-0.3027	0.5083	0.3832
6.6	-9.0771	-0.3630	2.8236	-0.0512	-0.0424	-0.0439	38.7332	6.5981	-7.2392	0.7092	-0.3030	0.5081	0.3836
6.61	-9.0682	-0.3421	2.8210	-0.0409	-0.0332	-0.0417	38.3836	6.5933	-7.1172	0.7090	-0.3031	0.5078	0.3839
6.62	-9.0770	-0.3327	2.8110	-0.0381	-0.0264	-0.0360	38.4502	6.4611	-6.8514	0.7089	-0.3033	0.5077	0.3843
6.63	-9.0607	-0.3285	2.8144	-0.0398	-0.0259	-0.0398	38.6706	6.7403	-6.8736	0.7088	-0.3035	0.5075	0.3846
6.64	-9.0504	-0.3349	2.8277	-0.0402	-0.0256	-0.0442	38.4677	6.4233	-7.0106	0.7086	-0.3037	0.5073	0.3849
6.65	-9.0583	-0.3301	2.8151	-0.0255	-0.0248	-0.0438	38.6269	6.4167	-7.1377	0.7085	-0.3039	0.5072	0.3853
6.66	-9.0866	-0.3024	2.8173	-0.0191	-0.0035	-0.0487	38.5524	6.5122	-6.9268	0.7083	-0.3041	0.5071	0.3855
6.67	-9.1137	-0.2761	2.8195	-0.0136	0.0078	-0.0530	38.4823	6.7790	-7.0044	0.7082	-0.3043	0.5071	0.3857
6.68	-9.1508	-0.2489	2.8084	-0.0148	0.0002	-0.0538	38.5288	6.9707	-7.0280	0.7080	-0.3045	0.5070	0.3858
6.69	-9.1704	-0.2305	2.8073	-0.0125	-0.0080	-0.0590	38.4759	6.8318	-7.0537	0.7079	-0.3047	0.5070	0.3860
6.7	-9.1609	-0.2175	2.8153	-0.0181	-0.0066	-0.0629	38.4078	6.9925	-6.9541	0.7078	-0.3049	0.5069	0.3862
6.71	-9.1486	-0.2270	2.8096	-0.0161	-0.0133	-0.0646	38.4164	6.8605	-7.0098	0.7077	-0.3051	0.5068	0.3864
6.72	-9.1460	-0.2331	2.8110	-0.0226	-0.0100	-0.0592	38.4252	6.7461	-7.0308	0.7075	-0.3053	0.5067	0.3865
6.73	-9.1501	-0.2426	2.8051	-0.0269	-0.0103	-0.0527	38.5232	6.7920	-6.6604	0.7074	-0.3055	0.5066	0.3868
6.74	-9.1473	-0.2631	2.8228	-0.0387	-0.0218	-0.0437	38.7059	6.6970	-7.0329	0.7073	-0.3057	0.5064	0.3871
6.75	-9.1615	-0.2702	2.8193	-0.0379	-0.0186	-0.0504	38.5710	6.6815	-7.0079	0.7071	-0.3059	0.5062	0.3873
6.76	-9.1753	-0.2953	2.7944	-0.0396	-0.0193	-0.0474	38.6398	6.5584	-7.0434	0.7070	-0.3062	0.5062	0.3877
6.77	-9.1600	-0.3167	2.8092	-0.0405	-0.0245	-0.0421	38.7850	6.4936	-7.1175	0.7068	-0.3064	0.5060	0.3880
6.78	-9.1434	-0.3339	2.7983	-0.0384	-0.0203	-0.0393	38.5826	6.4874	-6.8843	0.7067	-0.3066	0.5059	0.3883
6.79	-9.1005	-0.3212	2.7945	-0.0385	-0.0259	-0.0404	38.5909	6.6114	-7.0593	0.7065	-0.3068	0.5056	0.3886
6.8	-9.1523	-0.3075	2.8598	-0.0356	-0.0098	-0.0420	38.3801	6.5508	-6.9685	0.7063	-0.3070	0.5055	0.3890
6.81	-9.1880	-0.3115	2.7503	-0.0259	-0.0038	-0.0513	38.4152	6.6815	-6.9566	0.7062	-0.3072	0.5055	0.3892
6.82	-9.1100	-0.3017	2.8215	-0.0210	-0.0354	-0.0569	38.4863	6.5783	-7.1347	0.7061	-0.3074	0.5053	0.3894
6.83	-9.1173	-0.3265	2.8605	-0.0124	-0.0169	-0.0609	38.6103	6.6231	-7.0102	0.7061	-0.3076	0.5052	0.3896
6.84	-9.1591	-0.3335	2.7622	-0.0144	-0.0065	-0.0557	38.6082	6.7831	-7.0056	0.7059	-0.3077	0.5051	0.3898
6.85	-9.0857	-0.3057	2.8332	-0.0112	-0.0305	-0.0507	38.5274	6.8277	-6.8786	0.7058	-0.3079	0.5050	0.3900
6.86	-9.0800	-0.2563	2.8903	-0.0117	-0.0115	-0.0533	38.5061	6.8572	-7.0767	0.7056	-0.3080	0.5048	0.3902
6.87	-9.1561	-0.2333	2.8023	-0.0132	0.0059	-0.0540	38.3721	6.6577	-6.8458	0.7055	-0.3082	0.5048	0.3904
6.88	-9.1454	-0.2341	2.8039	-0.0134	-0.0218	-0.0492	38.5161	6.7966	-6.9048	0.7054	-0.3083	0.5047	0.3906
6.89	-9.1134	-0.2331	2.8675	-0.0133	-0.0175	-0.0527	38.6669	6.8070	-6.9284	0.7053	-0.3085	0.5046	0.3908
6.9	-9.1549	-0.2323	2.8305	-0.0199	0.0053	-0.0612	38.2610	6.9834	-6.9674	0.7052	-0.3087	0.5045	0.3910
6.91	-9.1767	-0.2276	2.7869	-0.0198	-0.0007	-0.0552	38.2529	6.7673	-7.1374	0.7050	-0.3089	0.5045	0.3911
6.92	-9.1562	-0.2253	2.8174	-0.0326	-0.0183	-0.0553	38.6682	6.9928	-6.9445	0.7049	-0.3092	0.5043	0.3915
6.93	-9.1535	-0.2289	2.8208	-0.0303	-0.0173	-0.0504	39.0866	6.6929	-6.8384	0.7052	-0.3086	0.5046	0.3906
6.94	-9.1722	-0.2345	2.7966	-0.0279	-0.0154	-0.0581	39.0040	6.2424	-6.6142	0.7058	-0.3081	0.5050	0.3898
6.95	-9.1656	-0.2476	2.7970	-0.0346	-0.0228	-0.0622	38.8030	6.7276	-6.8445	0.7056	-0.3084	0.5048	0.3902
6.96	-9.1615	-0.2548	2.8101	-0.0387	-0.0242	-0.0647	38.5715	6.7291	-6.8580	0.7056	-0.3086	0.5046	0.3903
6.97	-9.1679	-0.2638	2.7977	-0.0400	-0.0233	-0.0606	38.3359	6.5926	-7.1628	0.7054	-0.3089	0.5044	0.3906
6.98	-9.1870	-0.2954	2.8026	-0.0465	-0.0271	-0.0621	38.6078	6.7432	-6.9381	0.7053	-0.3091	0.5042	0.3909
6.99	-9.1827	-0.3106	2.8135	-0.0445	-0.0306	-0.0596	38.7179	6.6756	-6.9404	0.7052	-0.3094	0.5040	0.3912
7	-9.1721	-0.3237	2.8194	-0.0406	-0.0313	-0.0498	38.5768	6.8671	-6.8267	0.7050	-0.3096	0.5037	0.3915
7.01	-9.1772	-0.3458	2.8201	-0.0446	-0.0355	-0.0485	38.5947	6.9282	-6.9562	0.7050	-0.3098	0.5036	0.3918
7.02	-9.1801	-0.3556	2.8329	-0.0466	-0.0484	-0.0481	38.8933	6.6479	-6.8877	0.7048	-0.3100	0.5033	0.3922
7.03	-9.1675	-0.3637	2.8353	-0.0487	-0.0492	-0.0471	38.7222	6.6883	-7.0231	0.7048	-0.3102	0.5030	0.3926
7.04	-9.1562	-0.3802	2.8378	-0.0497	-0.0351	-0.0443	38.5617	6.7780	-6.9191	0.7046	-0.3104	0.5027	0.3929
7.05	-9.1364	-0.3787	2.8390	-0.0434	-0.0369	-0.0417	38.6011	6.7635	-6.8195	0.7045	-0.3106	0.5025	0.3933
7.06	-9.1389	-0.3697	2.8479	-0.0401	-0.0391	-0.0416	38.5856	7.0638	-7.0255	0.7044	-0.3108	0.5023	0.3936
7.07	-9.1311	-0.3611	2.8332	-0.0420	-0.0371	-0.0411	38.5913	6.8492	-7.0232	0.7042	-0.3110	0.5021	0.3939
7.08	-9.1068	-0.3421	2.8550	-0.0391	-0.0467	-0.0397	38.5915	6.9931	-7.0142	0.7042	-0.3112	0.5019	0.3944
7.09	-9.0891	-0.3303	2.8781	-0.0289	-0.0461	-0.0401	38.5958	6.8344	-7.0484	0.7041	-0.3113	0.5016	0.3947
7.1	-9.0881	-0.3178	2.8599	-0.0338	-0.0416	-0.0365	38.8070	6.7154	-7.1655	0.7040	-0.3114	0.5015	0.3950
7.11	-9.0627	-0.2990	2.8824	-0.0345	-0.0459	-0.0373	38.5702	6.7129	-6.8951	0.7038	-0.3115	0.5012	0.3953
7.12	-9.0540	-0.2851	2.9120	-0.0246	-0.0390	-0.0376	38.4917	6.7933	-6.9501	0.7038	-0.3116	0.5010	0.3957
7.13	-9.0714	-0.2742	2.8916	-0.0216	-0.0309	-0.0380	38.6648	6.6829	-7.0583	0.7036	-0.3117	0.5009	0.3960
7.14	-9.0538	-0.2677	2.8939	-0.0227	-0.0394	-0.0386	38.6921	6.6810	-6.9129	0.7035	-0.3118	0.5007	0.3963
7.15	-9.0373	-0.2464	2.9339	-0.0191	-0.0278	-0.0417	38.6526	6.3769	-7.0143	0.7035	-0.3120	0.5006	0.3966
7.16	-9.0605	-0.2391	2.9141	-0.0316	-0.0165	-0.0448	38.5901	6.5317	-7.1552	0.7033	-0.3121	0.5004	0.3969
7.17	-9.0806	-0.2424	2.8995	-0.0354	-0.0114	-0.0435	38.7658	6.8747	-7.0219	0.7031	-0.3124	0.5003	0.3972
7.18	-9.0788	-0.2311	2.9256	-0.0310	-0.0120	-0.0466	38.7727	6.5685	-7.0128	0.7030	-0.3125	0.5002	0.3973
7.19	-9.0754	-0.2288	2.9116	-0.0321	-0.0077	-0.0482	38.8522	6.8929	-7.2223	0.7034	-0.3121	0.5006	0.3967
7.2	-9.0711	-0.2341	2.9011	-0.0350	-0.0104	-0.0484	38.5789	6.9604	-7.2370	0.7032	-0.3123	0.5004	0.3970
7.21	-9.0638	-0.2412	2.9084	-0.0375	-0.0061	-0.0469	38.5969	6.7965	-7.0468	0.7030	-0.3126	0.5003	0.3972
7.22	-9.0685	-0.2454	2.8978	-0.0404	0.0028	-0.0478	38.5806	6.6965	-6.9975	0.7028	-0.3128	0.5002	0.3975
7.23	-9.0814	-0.2546	2.8826	-0.0403	0.0090	-0.0509	38.7206	6.6085	-7.1516	0.7026	-0.3131	0.5001	0.3977
7.24	-9.0846	-0.2717	2.8699	-0.0343	0.0152	-0.0554	38.6049	6.8036	-7.0543	0.7024	-0.3134	0.5001	0.3980
7.25	-9.0882	-0.2927	2.8721	-0.0347	0.0123	-0.0512	38.5853	6.7979	-6.9057	0.7021	-0.3137	0.5000	0.3981
7.26	-9.1116	-0.2904	2.8626	-0.0357	0.0167	-0.0531	38.4873	6.6937	-7.0560	0.7019	-0.3140	0.5001	0.3984
7.27	-9.1289	-0.2896	2.8412	-0.0359	0.0120	-0.0560	38.3576	6.7154	-6.9589	0.7017	-0.3143	0.5000	0.3986
7.28	-9.1299	-0.2911	2.8437	-0.0319	0.0146	-0.0560	38.5483	6.6940	-6.9193	0.7015	-0.3146	0.5000	0.3988
7.29	-9.1289	-0.2765	2.8475	-0.0244	0.0214	-0.0525	38.7188	6.8058	-6.9151	0.7012	-0.3148	0.4999	0.3989
7.3	-9.1440	-0.2728	2.8263	-0.0299	0.0098	-0.0488	38.5094	6.7979	-6.9622	0.7010	-0.3151	0.4999	0.3992
7.31	-9.1546	-0.2730	2.8236	-0.0215	0.0072	-0.0448	38.3579	6.9593	-7.0184	0.7009	-0.3153	0.4999	0.3994
7.32	-9.1594	-0.2751	2.8226	-0.0291	0.0156	-0.0430	38.5651	6.6721	-6.7786	0.7006	-0.3156	0.4998	0.3996
7.33	-9.1768	-0.2906	2.8175	-0.0338	0.0117	-0.0491	38.7292	6.8577	-7.0838	0.7005	-0.3158	0.4999	0.3998
7.34	-9.1977	-0.3060	2.7948	-0.0325	0.0128	-0.0464	38.7499	6.8168	-6.9549	0.7001	-0.3161	0.4998	0.4002
7.35	-9.1996	-0.3189	2.7889	-0.0347	0.0004	-0.0498	38.8523	6.4480	-7.1513	0.7004	-0.3159	0.5001	0.3997
7.36	-9.1951	-0.3258	2.7966	-0.0323	-0.0046	-0.0467	38.7743	6.7520	-6.8066	0.7003	-0.3158	0.5001	0.3995
7.37	-9.1961	-0.3305	2.8000	-0.0288	0.0001	-0.0454	38.5419	6.7943	-6.7491	0.7001	-0.3161	0.5000	0.3999
7.38	-9.2032	-0.3285	2.7860	-0.0155	-0.0057	-0.0501	38.4370	6.8098	-6.8630	0.7000	-0.3163	0.4999	0.4001
7.39	-9.2154	-0.3163	2.7914	-0.0231	-0.0120	-0.0417	38.4419	6.7683	-6.8363	0.6998	-0.3165	0.4998	0.4004
7.4	-9.2143	-0.3196	2.7965	-0.0174	-0.0226	-0.0378	38.7461	6.9291	-6.7262	0.6997	-0.3166	0.4997	0.4006
7.41	-9.2183	-0.3098	2.8017	-0.0111	-0.0218	-0.0434	38.6025	6.9509	-6.6453	0.6996	-0.3167	0.4996	0.4009
7.42	-9.2199	-0.2975	2.7970	-0.0084	-0.0155	-0.0484	38.4530	6.8813	-6.8482	0.6995	-0.3168	0.4995	0.4011
7.43	-9.1954	-0.2902	2.7962	-0.0109	-0.0278	-0.0498	39.0000	7.1956	-6.8365	0.6998	-0.3162	0.4998	0.4003
7.44	-9.1746	-0.2909	2.8132	-0.0174	-0.0334	-0.0475	39.1200	7.1188	-6.8397	0.7007	-0.3153	0.5004	0.3991
7.45	-9.1598	-0.2836	2.8084	-0.0098	-0.0293	-0.0513	38.6945	7.0186	-6.9300	0.7010	-0.3149	0.5005	0.3986
7.46	-9.1366	-0.2839	2.8251	-0.0108	-0.0428	-0.0527	38.3574	6.9792	-7.0043	0.7009	-0.3150	0.5003	0.3990
7.47	-9.1157	-0.2930	2.8433	-0.0127	-0.0418	-0.0546	38.2178	6.8458	-7.1532	0.7009	-0.3151	0.5001	0.3991
7.48	-9.1117	-0.2890	2.8511	-0.0072	-0.0346	-0.0601	38.4124	7.0085	-6.9676	0.7008	-0.3152	0.5000	0.3994
7.49	-9.1021	-0.2879	2.8779	-0.0043	-0.0459	-0.0532	38.3140	6.9042	-7.1676	0.7008	-0.3153	0.4998	0.3996
7.5	-9.0860	-0.2962	2.8887	-0.0015	-0.0399	-0.0555	38.4450	6.7442	-7.2406	0.7007	-0.3153	0.4996	0.3998
7.51	-9.0665	-0.2943	2.8924	-0.0139	-0.0420	-0.0543	38.5424	6.3243	-7.1770	0.7008	-0.3155	0.4994	0.4000
7.52	-9.0483	-0.2951	2.9108	-0.0111	-0.0382	-0.0516	38.6691	6.4523	-7.2301	0.7007	-0.3155	0.4992	0.4003
7.53	-9.0423	-0.3002	2.9076	-0.0079	-0.0320	-0.0514	38.5125	6.5430	-7.1566	0.7007	-0.3157	0.4991	0.4005
7.54	-9.0357	-0.3000	2.9160	-0.0015	-0.0322	-0.0493	38.6408	6.5267	-7.4403	0.7005	-0.3157	0.4989	0.4007
7.55	-9.0293	-0.3068	2.9081	-0.0127	-0.0214	-0.0480	38.5760	6.7221	-7.2014	0.7005	-0.3158	0.4988	0.4009
7.56	-9.0256	-0.3082	2.9147	-0.0150	-0.0121	-0.0512	38.3673	6.5602	-7.1292	0.7004	-0.3160	0.4988	0.4011
7.57	-9.0625	-0.3057	2.9279	-0.0075	0.0024	-0.0506	38.5693	6.6884	-7.2683	0.7002	-0.3161	0.4987	0.4013
7.58	-9.0862	-0.3054	2.8783	-0.0032	0.0083	-0.0522	38.3983	6.9226	-7.0568	0.7001	-0.3163	0.4988	0.4015
7.59	-9.0603	-0.3084	2.8950	-0.0004	-0.0012	-0.0546	38.5119	6.9455	-7.2181	0.6999	-0.3164	0.4987	0.4016
7.6	-9.0560	-0.2940	2.8974	-0.0002	0.0089	-0.0545	38.4927	6.8359	-7.3650	0.6998	-0.3166	0.4987	0.4017
7.61	-9.1100	-0.2932	2.8703	-0.0058	0.0265	-0.0537	38.3240	6.9121	-7.1075	0.6995	-0.3168	0.4987	0.4018
7.62	-9.1300	-0.3025	2.8295	-0.0118	0.0279	-0.0561	38.4838	6.7204	-6.9950	0.6994	-0.3171	0.4988	0.4020
7.63	-9.0869	-0.2888	2.8584	-0.0102	0.0124	-0.0598	38.3908	6.9014	-7.0890	0.6992	-0.3173	0.4988	0.4021
7.64	-9.1054	-0.2878	2.8897	-0.0097	0.0248	-0.0494	38.3050	6.7125	-7.1378	0.6990	-0.3175	0.4988	0.4022
7.65	-9.1999	-0.2906	2.8242	-0.0137	0.0296	-0.0459	38.5931	6.6973	-7.1057	0.6988	-0.3177	0.4989	0.4024
7.66	-9.2151	-0.3013	2.8152	-0.0156	0.0163	-0.0520	38.4538	6.9463	-6.9952	0.6985	-0.3179	0.4989	0.4025
7.67	-9.1828	-0.3283	2.8570	-0.0222	0.0040	-0.0414	38.5192	6.7992	-7.1010	0.6984	-0.3181	0.4989	0.4028
7.68	-9.1890	-0.3680	2.8200	-0.0173	0.0157	-0.0348	38.4394	6.7042	-7.1308	0.6981	-0.3183	0.4989	0.4030
7.69	-9.2008	-0.3799	2.7795	-0.0105	0.0094	-0.0367	38.5657	6.6912	-7.1031	0.6979	-0.3185	0.4990	0.4032
7.7	-9.1565	-0.3431	2.7845	-0.0085	-0.0010	-0.0325	38.7818	6.5636	-7.1472	0.6977	-0.3186	0.4989	0.4034
7.71	-9.1438	-0.2973	2.7909	0.0010	0.0073	-0.0280	38.5982	6.7251	-7.2669	0.6975	-0.3187	0.4990	0.4037
7.72	-9.1697	-0.2457	2.7585	0.0060	0.0070	-0.0314	38.6385	6.5801	-7.0455	0.6973	-0.3187	0.4990	0.4038
7.73	-9.1737	-0.2305	2.7438	0.0059	-0.0119	-0.0365	38.7120	6.6697	-7.2205	0.6972	-0.3188	0.4990	0.4041
7.74	-9.1407	-0.2351	2.7684	0.0071	-0.0223	-0.0347	38.5316	6.6639	-7.0625	0.6971	-0.3188	0.4990	0.4043
7.75	-9.1087	-0.2263	2.7652	0.0055	-0.0224	-0.0396	38.5258	6.5316	-7.0929	0.6970	-0.3188	0.4989	0.4045
7.76	-9.1005	-0.1969	2.7664	0.0052	-0.0206	-0.0463	38.5306	6.3850	-7.2048	0.6970	-0.3189	0.4989	0.4047
7.77	-9.1013	-0.1719	2.7738	-0.0010	-0.0187	-0.0505	38.5368	6.5555	-6.9561	0.6968	-0.3190	0.4987	0.4049
7.78	-9.1217	-0.1607	2.7720	-0.0035	-0.0130	-0.0497	38.7585	6.8322	-7.0598	0.6968	-0.3191	0.4987	0.4051
7.79	-9.1452	-0.1330	2.7891	-0.0160	-0.0086	-0.0513	38.4998	6.7647	-7.0145	0.6966	-0.3192	0.4986	0.4052
7.8	-9.1908	-0.1067	2.7947	-0.0206	-0.0030	-0.0479	38.3291	6.9222	-6.9076	0.6964	-0.3195	0.4985	0.4055
7.81	-9.2146	-0.1452	2.7718	-0.0393	-0.0151	-0.0517	38.3464	6.8197	-7.0030	0.6963	-0.3197	0.4984	0.4057
7.82	-9.1820	-0.1804	2.8115	-0.0473	-0.0298	-0.0465	38.4347	6.7017	-7.0339	0.6961	-0.3199	0.4982	0.4060
7.83	-9.1883	-0.2128	2.8218	-0.0630	-0.0200	-0.0518	38.4407	6.6948	-7.0270	0.6960	-0.3202	0.4980	0.4064
7.84	-9.2069	-0.2501	2.7768	-0.0625	-0.0208	-0.0477	38.3300	6.7139	-7.2968	0.6957	-0.3205	0.4977	0.4067
7.85	-9.1858	-0.3062	2.7874	-0.0661	-0.0336	-0.0471	38.5804	6.8952	-6.8321	0.6956	-0.3208	0.4975	0.4072
7.86	-9.1423	-0.3561	2.8189	-0.0654	-0.0333	-0.0461	38.4029	6.7888	-6.9389	0.6954	-0.3211	0.4972	0.4075
7.87	-9.1565	-0.3720	2.8113	-0.0618	-0.0280	-0.0428	38.4930	6.6738	-7.1517	0.6952	-0.3213	0.4970	0.4079
7.88	-9.1266	-0.3807	2.7673	-0.0451	-0.0349	-0.0444	38.6737	6.5507	-7.1101	0.6951	-0.3216	0.4968	0.4083
7.89	-9.0946	-0.3563	2.8702	-0.0412	-0.0431	-0.0425	38.5324	6.5117	-7.0897	0.6950	-0.3217	0.4965	0.4086
7.9	-9.1727	-0.3502	2.8411	-0.0415	-0.0229	-0.0509	38.4222	6.5282	-7.2488	0.6948	-0.3220	0.4964	0.4089
7.91	-9.1285	-0.3435	2.7716	-0.0329	-0.0427	-0.0561	38.4674	6.7869	-7.4060	0.6948	-0.3221	0.4961	0.4091
7.92	-9.0487	-0.3320	2.9324	-0.0300	-0.0410	-0.0592	38.6205	6.7454	-7.0099	0.6947	-0.3223	0.4959	0.4095
7.93	-9.0974	-0.3693	2.8591	-0.0258	-0.0075	-0.0661	39.0138	6.6058	-7.0268	0.6951	-0.3218	0.4962	0.4086
7.94	-9.0836	-0.3551	2.8075	-0.0130	-0.0294	-0.0533	39.0424	6.5133	-7.0143	0.6957	-0.3212	0.4966	0.4078
7.95	-9.0017	-0.3031	2.9228	-0.0138	-0.0368	-0.0459	38.7074	6.8374	-7.0697	0.6955	-0.3214	0.4963	0.4082
7.96	-9.0506	-0.2719	2.9257	-0.0161	-0.0031	-0.0427	38.4024	6.6807	-6.9206	0.6954	-0.3215	0.4963	0.4084
7.97	-9.1230	-0.2570	2.8235	-0.0209	0.0116	-0.0478	38.2680	6.6699	-6.9274	0.6952	-0.3217	0.4962	0.4086
7.98	-9.1014	-0.2513	2.8597	-0.0317	-0.0139	-0.0555	38.7111	6.9246	-6.9456	0.6950	-0.3219	0.4961	0.4088
7.99	-9.0837	-0.2675	2.8940	-0.0342	-0.0008	-0.0484	38.6300	6.8040	-6.9056	0.6949	-0.3222	0.4960	0.4091
8	-9.1256	-0.2825	2.8351	-0.0385	0.0134	-0.0502	38.3939	6.6672	-7.0284	0.6946	-0.3224	0.4960	0.4092
8.01	-9.1434	-0.2882	2.8224	-0.0339	0.0022	-0.0502	38.4088	6.8108	-7.0150	0.6945	-0.3227	0.4959	0.4095
8.02	-9.1294	-0.2948	2.8358	-0.0370	0.0027	-0.0495	38.5443	6.8620	-6.7412	0.6942	-0.3230	0.4958	0.4098
8.03	-9.1457	-0.3059	2.8159	-0.0292	0.0028	-0.0538	38.6714	6.6625	-7.0236	0.6941	-0.3233	0.4958	0.4100
8.04	-9.1466	-0.3326	2.7985	-0.0250	-0.0002	-0.0552	38.5935	6.7867	-7.0221	0.6938	-0.3234	0.4957	0.4101
8.05	-9.1445	-0.3505	2.8029	-0.0185	-0.0045	-0.0546	38.4359	6.7712	-6.6712	0.6937	-0.3237	0.4956	0.4104
8.06	-9.1343	-0.3367	2.7994	-0.0147	-0.0092	-0.0529	38.5912	6.5991	-6.9910	0.6936	-0.3238	0.4955	0.4106
8.07	-9.1351	-0.3387	2.8188	-0.0116	-0.0047	-0.0577	38.4745	6.6057	-6.7299	0.6934	-0.3240	0.4954	0.4107
8.08	-9.1495	-0.3392	2.8033	-0.0083	0.0047	-0.0545	38.7141	6.6839	-6.7548	0.6933	-0.3242	0.4955	0.4109
8.09	-9.1449	-0.3178	2.7863	-0.0136	-0.0003	-0.0536	38.7588	6.3094	-6.9942	0.6931	-0.3243	0.4954	0.4110
8.1	-9.1521	-0.3087	2.8112	-0.0065	-0.0006	-0.0432	38.7911	6.6290	-6.8205	0.6930	-0.3245	0.4954	0.4113
8.11	-9.1914	-0.2953	2.7801	-0.0144	0.0026	-0.0441	38.5622	6.9011	-6.8480	0.6927	-0.3246	0.4953	0.4114
8.12	-9.2109	-0.2866	2.7626	-0.0086	-0.0061	-0.0422	38.6079	6.8279	-7.0561	0.6927	-0.3248	0.4953	0.4117
8.13	-9.1991	-0.2785	2.7928	-0.0159	-0.0199	-0.0416	38.5115	6.5851	-7.0084	0.6925	-0.3249	0.4952	0.4119
8.14	-9.1987	-0.2654	2.7837	-0.0132	-0.0268	-0.0355	38.5367	6.6216	-7.0261	0.6924	-0.3250	0.4951	0.4122
8.15	-9.2072	-0.2661	2.7773	-0.0148	-0.0280	-0.0424	38.8015	6.4788	-6.9227	0.6923	-0.3251	0.4950	0.4125
8.16	-9.1877	-0.2718	2.7733	-0.0147	-0.0343	-0.0392	38.4699	6.6928	-6.8974	0.6922	-0.3252	0.4948	0.4127
8.17	-9.1653	-0.2643	2.7972	-0.0127	-0.0355	-0.0466	38.5476	6.6079	-6.8070	0.6921	-0.3253	0.4947	0.4130
8.18	-9.1609	-0.2651	2.8068	-0.0092	-0.0299	-0.0417	38.6875	6.6912	-6.8536	0.6919	-0.3253	0.4945	0.4132
8.19	-9.1653	-0.2585	2.7998	-0.0097	-0.0249	-0.0464	38.5467	6.5655	-6.8148	0.6919	-0.3254	0.4944	0.4135
8.2	-9.1655	-0.2520	2.8081	-0.0147	-0.0326	-0.0507	38.2977	6.5150	-7.0320	0.6918	-0.3255	0.4942	0.4137
8.21	-9.1491	-0.2474	2.8185	-0.0104	-0.0343	-0.0538	38.3722	6.6994	-6.9377	0.6918	-0.3257	0.4941	0.4139
8.22	-9.1419	-0.2425	2.8327	-0.0159	-0.0378	-0.0497	38.6035	6.7652	-6.9257	0.6917	-0.3257	0.4939	0.4142
8.23	-9.1425	-0.2334	2.8352	-0.0133	-0.0323	-0.0558	38.5828	6.7999	-7.1818	0.6916	-0.3259	0.4937	0.4144
8.24	-9.1535	-0.2220	2.8480	-0.0132	-0.0388	-0.0507	38.5519	6.9061	-6.8269	0.6916	-0.3260	0.4936	0.4146
8.25	-9.1498	-0.2214	2.8484	-0.0144	-0.0406	-0.0513	38.3663	6.7537	-6.9770	0.6914	-0.3260	0.4933	0.4149
8.26	-9.1384	-0.2110	2.8620	-0.0161	-0.0503	-0.0581	38.5401	6.7939	-7.4031	0.6915	-0.3262	0.4931	0.4152
8.27	-9.1278	-0.2162	2.8759	-0.0210	-0.0466	-0.0568	38.7337	6.8745	-7.1643	0.6914	-0.3263	0.4929	0.4154
8.28	-9.1156	-0.2237	2.8724	-0.0222	-0.0486	-0.0583	38.5653	6.6080	-6.8671	0.6914	-0.3264	0.4927	0.4157
8.29	-9.1019	-0.2246	2.8878	-0.0327	-0.0435	-0.0570	38.6806	6.5906	-7.1413	0.6913	-0.3265	0.4924	0.4159
8.3	-9.0992	-0.2565	2.8828	-0.0343	-0.0345	-0.0588	38.6551	6.4917	-7.0938	0.6912	-0.3268	0.4922	0.4162
8.31	-9.0941	-0.2835	2.8726	-0.0396	-0.0347	-0.0582	38.5089	6.5402	-7.1077	0.6911	-0.3270	0.4919	0.4165
8.32	-9.0827	-0.2986	2.8908	-0.0343	-0.0293	-0.0614	38.4650	6.7259	-6.8034	0.6910	-0.3272	0.4917	0.4167
8.33	-9.0917	-0.3134	2.8929	-0.0355	-0.0282	-0.0638	38.6248	6.5424	-6.8749	0.6910	-0.3274	0.4916	0.4170
8.34	-9.1022	-0.3196	2.8858	-0.0390	-0.0283	-0.0597	38.5197	6.5730	-6.8889	0.6908	-0.3276	0.4913	0.4172
8.35	-9.1010	-0.3242	2.8901	-0.0363	-0.0213	-0.0628	38.4995	6.9668	-6.8677	0.6907	-0.3279	0.4911	0.4175
8.36	-9.0884	-0.3299	2.8882	-0.0344	-0.0194	-0.0621	38.4645	6.6074	-7.0597	0.6905	-0.3281	0.4909	0.4176
8.37	-9.0903	-0.3416	2.8963	-0.0399	-0.0206	-0.0602	38.5497	6.7854	-6.8799	0.6904	-0.3283	0.4908	0.4179
8.38	-9.0961	-0.3446	2.8884	-0.0384	-0.0164	-0.0586	38.5247	6.8096	-7.1597	0.6903	-0.3286	0.4906	0.4182
8.39	-9.0971	-0.3479	2.8819	-0.0279	-0.0179	-0.0575	38.5462	6.5421	-6.9916	0.6901	-0.3288	0.4904	0.4184
8.4	-9.1039	-0.3533	2.8941	-0.0357	-0.0132	-0.0548	38.6918	6.8173	-7.0599	0.6900	-0.3290	0.4903	0.4187
8.41	-9.1098	-0.3553	2.8808	-0.0296	-0.0073	-0.0511	38.4099	6.6248	-7.3507	0.6898	-0.3292	0.4902	0.4189
8.42	-9.1040	-0.3488	2.8725	-0.0262	-0.0093	-0.0491	38.3957	6.7667	-7.0577	0.6897	-0.3295	0.4901	0.4192
8.43	-9.0945	-0.3340	2.8846	-0.0287	-0.0181	-0.0489	38.8733	6.7856	-6.8384	0.6895	-0.3295	0.4899	0.4192
8.44	-9.1091	-0.3377	2.8945	-0.0243	-0.0145	-0.0453	39.1453	6.7719	-6.6081	0.6901	-0.3290	0.4903	0.4186
8.45	-9.1260	-0.3361	2.8743	-0.0186	-0.0118	-0.0390	38.7719	6.5367	-6.8644	0.6898	-0.3292	0.4902	0.4188
8.46	-9.1018	-0.3312	2.8779	-0.0172	-0.0278	-0.0422	38.4776	6.5787	-6.9578	0.6897	-0.3293	0.4901	0.4191
8.47	-9.0945	-0.3313	2.8890	-0.0179	-0.0121	-0.0449	38.4022	6.8580	-7.1267	0.6896	-0.3295	0.4900	0.4193
8.48	-9.1052	-0.3283	2.8642	-0.0174	-0.0033	-0.0412	38.5593	6.7424	-7.0738	0.6894	-0.3296	0.4899	0.4196
8.49	-9.0996	-0.3209	2.8607	-0.0136	-0.0135	-0.0398	38.5320	6.7817	-6.9394	0.6893	-0.3298	0.4899	0.4198
8.5	-9.0965	-0.3055	2.8715	-0.0145	-0.0067	-0.0355	38.4208	6.8149	-7.2033	0.6890	-0.3298	0.4898	0.4200
8.51	-9.1275	-0.3052	2.8813	-0.0236	0.0021	-0.0370	38.5682	6.8262	-7.2827	0.6889	-0.3301	0.4898	0.4203
8.52	-9.1609	-0.3011	2.8484	-0.0156	0.0010	-0.0396	38.5914	6.9154	-6.8384	0.6887	-0.3302	0.4897	0.4205
8.53	-9.1580	-0.2768	2.8546	-0.0123	-0.0134	-0.0398	38.4978	6.9178	-7.0880	0.6886	-0.3303	0.4897	0.4208
8.54	-9.1304	-0.2553	2.8658	-0.0105	-0.0133	-0.0371	38.5384	6.7764	-7.1071	0.6883	-0.3304	0.4896	0.4210
8.55	-9.1336	-0.2584	2.8463	-0.0140	-0.0078	-0.0430	38.5163	6.9950	-6.9706	0.6882	-0.3306	0.4896	0.4212
8.56	-9.1335	-0.2579	2.8429	-0.0151	-0.0210	-0.0433	38.3395	6.8748	-7.0576	0.6881	-0.3307	0.4895	0.4215
8.57	-9.1172	-0.2601	2.8632	-0.0130	-0.0169	-0.0440	38.4313	6.7860	-7.2030	0.6879	-0.3308	0.4893	0.4217
8.58	-9.1122	-0.2667	2.8616	-0.0154	-0.0200	-0.0459	38.3400	6.9006	-7.0831	0.6879	-0.3310	0.4893	0.4220
8.59	-9.0958	-0.2690	2.8663	-0.0151	-0.0179	-0.0437	38.2148	6.6761	-6.9614	0.6877	-0.3310	0.4891	0.4222
8.6	-9.0889	-0.2745	2.8732	-0.0169	-0.0136	-0.0478	38.3276	6.9551	-7.0937	0.6876	-0.3312	0.4891	0.4224
8.61	-9.0914	-0.2670	2.8541	-0.0137	-0.0069	-0.0506	38.4459	6.7044	-7.0917	0.6874	-0.3313	0.4889	0.4226
8.62	-9.0815	-0.2501	2.8525	-0.0119	-0.0092	-0.0507	38.3089	6.7189	-7.2227	0.6873	-0.3315	0.4889	0.4228
8.63	-9.0720	-0.2303	2.8666	-0.0130	-0.0065	-0.0535	38.4092	6.7422	-7.1285	0.6871	-0.3317	0.4888	0.4230
8.64	-9.0861	-0.2165	2.8590	-0.0092	0.0023	-0.0477	38.7484	6.6429	-7.0725	0.6869	-0.3318	0.4888	0.4232
8.65	-9.1232	-0.2040	2.8695	-0.0147	0.0023	-0.0540	38.4677	6.6369	-7.1083	0.6868	-0.3320	0.4888	0.4233
8.66	-9.1570	-0.2104	2.8416	-0.0169	0.0158	-0.0587	38.6025	6.6236	-7.0708	0.6865	-0.3323	0.4887	0.4236
8.67	-9.1614	-0.2313	2.8299	-0.0142	0.0131	-0.0561	38.9600	6.6965	-7.1522	0.6868	-0.3320	0.4890	0.4230
8.68	-9.1627	-0.2324	2.8317	-0.0229	0.0125	-0.0574	38.6788	6.7528	-7.2215	0.6868	-0.3320	0.4891	0.4227
8.69	-9.1890	-0.2280	2.8115	-0.0281	0.0132	-0.0602	38.3970	6.5854	-7.0269	0.6866	-0.3324	0.4891	0.4231
8.7	-9.2010	-0.2446	2.7991	-0.0331	-0.0003	-0.0598	38.4394	6.8752	-6.8708	0.6864	-0.3326	0.4890	0.4232
8.71	-9.1769	-0.2578	2.7939	-0.0351	-0.0060	-0.0613	38.4805	6.8530	-6.9526	0.6863	-0.3329	0.4889	0.4234
8.72	-9.1614	-0.2839	2.8115	-0.0402	-0.0078	-0.0596	38.7388	6.7022	-6.7733	0.6861	-0.3331	0.4887	0.4236
8.73	-9.1867	-0.3063	2.8019	-0.0383	0.0013	-0.0611	38.6767	6.7360	-7.0047	0.6859	-0.3334	0.4886	0.4238
8.74	-9.2371	-0.3269	2.8087	-0.0374	-0.0131	-0.0554	38.5373	6.7370	-7.1348	0.6858	-0.3336	0.4885	0.4241
8.75	-9.2470	-0.3426	2.8124	-0.0406	-0.0206	-0.0504	38.5139	7.0131	-7.0218	0.6856	-0.3338	0.4882	0.4243
8.76	-9.1983	-0.3705	2.8107	-0.0394	-0.0361	-0.0539	38.5384	6.9707	-6.7645	0.6855	-0.3341	0.4881	0.4247
8.77	-9.1386	-0.3957	2.8261	-0.0413	-0.0516	-0.0494	38.5037	6.8781	-6.9114	0.6854	-0.3342	0.4878	0.4250
8.78	-9.0859	-0.3919	2.8336	-0.0290	-0.0447	-0.0408	38.3293	6.9140	-7.1028	0.6854	-0.3344	0.4876	0.4253
8.79	-9.0426	-0.3608	2.8497	-0.0188	-0.0390	-0.0355	38.4496	6.8785	-7.1941	0.6852	-0.3344	0.4873	0.4256
8.8	-9.0542	-0.3266	2.8546	-0.0138	-0.0197	-0.0372	38.4155	7.0450	-7.1898	0.6851	-0.3345	0.4873	0.4259
8.81	-9.0987	-0.2923	2.8279	-0.0113	-0.0089	-0.0375	38.3192	6.8721	-7.2109	0.6849	-0.3346	0.4872	0.4261
8.82	-9.1056	-0.2632	2.8200	-0.0120	-0.0179	-0.0387	38.7179	6.7209	-7.0953	0.6847	-0.3347	0.4871	0.4263
8.83	-9.0818	-0.2572	2.8431	-0.0119	-0.0235	-0.0454	38.7876	6.6185	-7.0913	0.6847	-0.3349	0.4871	0.4266
8.84	-9.0833	-0.2542	2.8303	-0.0155	-0.0125	-0.0515	38.6848	6.6728	-7.2254	0.6845	-0.3350	0.4869	0.4268
8.85	-9.0838	-0.2441	2.8304	-0.0117	-0.0158	-0.0558	38.6705	6.7602	-7.1439	0.6844	-0.3351	0.4868	0.4270
8.86	-9.0894	-0.2440	2.8473	-0.0087	-0.0140	-0.0623	38.4823	6.6184	-7.3129	0.6842	-0.3353	0.4867	0.4271
8.87	-9.1133	-0.2425	2.8447	-0.0184	0.0009	-0.0605	38.5609	6.6418	-7.2269	0.6842	-0.3355	0.4866	0.4273
8.88	-9.1269	-0.2454	2.8340	-0.0174	0.0026	-0.0593	38.6311	6.9808	-7.0373	0.6840	-0.3357	0.4866	0.4275
8.89	-9.1186	-0.2625	2.8271	-0.0285	-0.0053	-0.0667	38.5983	6.9326	-7.2093	0.6838	-0.3359	0.4864	0.4276
8.9	-9.1154	-0.2770	2.8397	-0.0312	-0.0052	-0.0613	38.7240	6.6931	-7.0866	0.6837	-0.3362	0.4863	0.4279
8.91	-9.1338	-0.2949	2.8401	-0.0322	0.0010	-0.0619	38.4155	6.9961	-6.9474	0.6835	-0.3364	0.4862	0.4280
8.92	-9.1617	-0.3095	2.8232	-0.0407	-0.0009	-0.0615	38.5325	6.9776	-6.9124	0.6833	-0.3368	0.4861	0.4283
8.93	-9.1862	-0.3282	2.8169	-0.0404	-0.0004	-0.0622	38.8239	7.0096	-6.9113	0.6832	-0.3369	0.4860	0.4283
8.94	-9.1666	-0.3475	2.8114	-0.0401	-0.0104	-0.0610	38.8783	6.8627	-6.8188	0.6836	-0.3366	0.4863	0.4277
8.95	-9.1644	-0.3694	2.8271	-0.0417	-0.0149	-0.0586	38.6905	6.8646	-6.8677	0.6834	-0.3369	0.4861	0.4279
8.96	-9.1295	-0.3788	2.7919	-0.0313	-0.0151	-0.0601	38.5687	6.8686	-6.9318	0.6833	-0.3371	0.4860	0.4281
8.97	-9.1725	-0.3667	2.8677	-0.0157	-0.0066	-0.0574	38.5115	6.7452	-6.9731	0.6832	-0.3373	0.4858	0.4283
8.98	-9.2529	-0.3874	2.7657	-0.0211	0.0084	-0.0661	38.5862	6.8953	-6.8375	0.6830	-0.3375	0.4858	0.4285
8.99	-9.1742	-0.3839	2.7658	-0.0139	-0.0399	-0.0707	38.5173	6.6140	-7.0858	0.6830	-0.3377	0.4856	0.4286
9	-9.1143	-0.3875	2.8846	-0.0149	-0.0384	-0.0613	38.6403	6.5781	-6.9309	0.6829	-0.3378	0.4854	0.4288
9.01	-9.1617	-0.4069	2.7784	-0.0141	-0.0166	-0.0679	38.8390	6.7101	-6.9855	0.6829	-0.3380	0.4853	0.4290
9.02	-9.1301	-0.3828	2.7999	-0.0120	-0.0417	-0.0581	38.6838	6.8105	-7.0501	0.6828	-0.3381	0.4851	0.4292
9.03	-9.0714	-0.3396	2.8911	-0.0144	-0.0456	-0.0532	38.8102	6.6825	-7.1151	0.6828	-0.3382	0.4849	0.4295
9.04	-9.1256	-0.3115	2.8605	-0.0123	-0.0170	-0.0426	38.8434	6.6941	-7.1560	0.6826	-0.3383	0.4847	0.4297
9.05	-9.1571	-0.3086	2.8238	-0.0128	-0.0181	-0.0445	38.6501	6.6546	-7.0063	0.6825	-0.3384	0.4847	0.4299
9.06	-9.1129	-0.3067	2.8695	-0.0163	-0.0355	-0.0507	38.7088	6.9505	-7.1041	0.6824	-0.3385	0.4845	0.4302
9.07	-9.0879	-0.3223	2.8864	-0.0289	-0.0255	-0.0482	38.6646	6.7849	-7.2527	0.6822	-0.3386	0.4843	0.4304
9.08	-9.1148	-0.3289	2.8525	-0.0199	-0.0207	-0.0507	38.6283	6.7750	-7.1181	0.6822	-0.3388	0.4842	0.4307
9.09	-9.1093	-0.3290	2.8447	-0.0224	-0.0247	-0.0411	38.6462	6.5870	-7.0139	0.6820	-0.3389	0.4840	0.4309
9.1	-9.0967	-0.3212	2.8761	-0.0199	-0.0263	-0.0483	38.6500	6.7273	-6.8599	0.6819	-0.3391	0.4839	0.4312
9.11	-9.1081	-0.3262	2.8682	-0.0209	-0.0136	-0.0489	38.5509	6.7811	-6.8728	0.6817	-0.3392	0.4837	0.4314
9.12	-9.1231	-0.3292	2.8453	-0.0163	-0.0118	-0.0506	38.5482	6.9013	-7.0777	0.6816	-0.3394	0.4837	0.4316
9.13	-9.1096	-0.3358	2.8610	-0.0182	-0.0194	-0.0523	38.7378	6.9205	-7.0764	0.6815	-0.3395	0.4836	0.4318
9.14	-9.0990	-0.3463	2.8589	-0.0211	-0.0113	-0.0595	38.6648	6.8171	-7.2589	0.6813	-0.3397	0.4834	0.4320
9.15	-9.1183	-0.3566	2.8380	-0.0135	-0.0067	-0.0570	38.5291	6.9772	-7.0465	0.6812	-0.3399	0.4834	0.4322
9.16	-9.1258	-0.3601	2.8316	-0.0157	-0.0118	-0.0500	38.5660	6.7934	-7.0162	0.6811	-0.3400	0.4833	0.4324
9.17	-9.1243	-0.3521	2.8347	-0.0139	-0.0138	-0.0517	38.3245	6.7466	-6.9414	0.6810	-0.3402	0.4832	0.4326
9.18	-9.1336	-0.3458	2.8369	-0.0176	-0.0163	-0.0407	38.5725	6.8712	-6.9665	0.6807	-0.3403	0.4830	0.4328
9.19	-9.1404	-0.3462	2.8324	-0.0163	-0.0182	-0.0395	38.6267	6.7400	-6.8556	0.6807	-0.3405	0.4830	0.4331
9.2	-9.1610	-0.3517	2.8419	-0.0108	-0.0157	-0.0403	38.7143	6.8156	-7.0081	0.6805	-0.3405	0.4829	0.4333
9.21	-9.1653	-0.3505	2.8282	-0.0139	-0.0177	-0.0369	38.6577	6.6192	-6.8905	0.6803	-0.3407	0.4828	0.4336
9.22	-9.1685	-0.3485	2.8403	-0.0142	-0.0213	-0.0361	38.6433	6.5722	-7.2912	0.6802	-0.3407	0.4827	0.4338
9.23	-9.1922	-0.3447	2.8371	-0.0138	-0.0199	-0.0365	38.7292	6.6210	-7.0411	0.6800	-0.3409	0.4825	0.4342
9.24	-9.1890	-0.3424	2.8184	-0.0147	-0.0221	-0.0370	38.7961	6.9501	-7.1284	0.6803	-0.3405	0.4828	0.4338
9.25	-9.1669	-0.3299	2.8433	-0.0118	-0.0360	-0.0365	38.8183	6.8716	-7.0722	0.6804	-0.3402	0.4828	0.4336
9.26	-9.1609	-0.3046	2.8448	-0.0077	-0.0309	-0.0361	38.7532	6.7530	-7.0323	0.6803	-0.3404	0.4827	0.4341
9.27	-9.1611	-0.2867	2.8434	-0.0016	-0.0361	-0.0375	38.6304	6.9082	-7.0667	0.6802	-0.3404	0.4826	0.4342
9.28	-9.1429	-0.2753	2.8581	0.0033	-0.0458	-0.0376	38.5744	6.5425	-7.0334	0.6802	-0.3404	0.4825	0.4346
9.29	-9.1122	-0.2700	2.8720	-0.0019	-0.0467	-0.0369	38.7742	6.8205	-7.0636	0.6800	-0.3404	0.4823	0.4348
9.3	-9.1026	-0.2667	2.8871	-0.0072	-0.0479	-0.0415	38.3499	6.6981	-7.0301	0.6800	-0.3404	0.4821	0.4351
9.31	-9.0965	-0.2558	2.8918	-0.0087	-0.0385	-0.0385	38.5846	6.7718	-7.0979	0.6799	-0.3404	0.4819	0.4354
9.32	-9.1031	-0.2538	2.9010	-0.0090	-0.0390	-0.0365	38.4501	6.9091	-7.2474	0.6798	-0.3405	0.4818	0.4356
9.33	-9.0941	-0.2520	2.9111	-0.0135	-0.0368	-0.0364	38.4799	6.7253	-7.1367	0.6798	-0.3406	0.4817	0.4360
9.34	-9.0773	-0.2597	2.9135	-0.0142	-0.0396	-0.0456	38.5705	6.6550	-7.2725	0.6796	-0.3406	0.4815	0.4362
9.35	-9.0603	-0.2737	2.9074	-0.0134	-0.0361	-0.0450	38.5440	6.5306	-7.1575	0.6796	-0.3407	0.4813	0.4365
9.36	-9.0459	-0.2867	2.9173	-0.0149	-0.0343	-0.0484	38.5503	6.8105	-7.1212	0.6794	-0.3408	0.4811	0.4367
9.37	-9.0453	-0.2948	2.9222	-0.0088	-0.0308	-0.0436	38.5582	6.7237	-7.0630	0.6794	-0.3409	0.4810	0.4370
9.38	-9.0493	-0.2999	2.9196	-0.0049	-0.0237	-0.0434	38.5299	6.5290	-7.1617	0.6792	-0.3409	0.4809	0.4372
9.39	-9.0379	-0.2961	2.9245	-0.0074	-0.0231	-0.0518	38.6339	6.7000	-7.1314	0.6791	-0.3410	0.4808	0.4374
9.4	-9.0491	-0.2823	2.9296	-0.0104	-0.0174	-0.0537	38.6456	6.6733	-7.1414	0.6791	-0.3412	0.4807	0.4376
9.41	-9.0820	-0.2770	2.9010	-0.0045	-0.0003	-0.0452	38.5049	6.4305	-7.0114	0.6789	-0.3413	0.4806	0.4377
9.42	-9.0937	-0.2689	2.9023	-0.0108	-0.0048	-0.0448	38.6391	6.6399	-7.2890	0.6787	-0.3415	0.4806	0.4380
9.43	-9.0938	-0.2672	2.9030	-0.0127	-0.0041	-0.0483	39.0270	6.7850	-7.0294	0.6791	-0.3409	0.4809	0.4372
9.44	-9.1022	-0.2726	2.8944	-0.0058	-0.0027	-0.0521	39.0852	6.7792	-6.8482	0.6800	-0.3401	0.4817	0.4360
9.45	-9.1248	-0.2624	2.8985	-0.0149	-0.0003	-0.0520	38.8634	6.6868	-7.0191	0.6802	-0.3398	0.4819	0.4355
9.46	-9.1477	-0.2672	2.8792	-0.0167	-0.0013	-0.0405	38.6211	6.6200	-7.0511	0.6800	-0.3400	0.4818	0.4358
9.47	-9.1363	-0.2840	2.8749	-0.0167	-0.0040	-0.0535	38.5108	6.7342	-7.1965	0.6798	-0.3401	0.4818	0.4359
9.48	-9.1356	-0.2906	2.8840	-0.0141	-0.0037	-0.0530	38.5597	6.8561	-7.1851	0.6796	-0.3403	0.4817	0.4361
9.49	-9.1488	-0.3048	2.8631	-0.0169	-0.0075	-0.0468	38.5828	6.9479	-7.1302	0.6795	-0.3405	0.4817	0.4363
9.5	-9.1442	-0.3183	2.8575	-0.0214	-0.0067	-0.0523	38.7444	6.8034	-7.0450	0.6793	-0.3406	0.4815	0.4365
9.51	-9.1292	-0.3240	2.8772	-0.0129	-0.0118	-0.0420	38.7197	6.8409	-7.2334	0.6792	-0.3408	0.4815	0.4368
9.52	-9.1262	-0.3300	2.8612	-0.0149	-0.0105	-0.0430	38.5778	6.9285	-7.1004	0.6790	-0.3409	0.4814	0.4370
9.53	-9.1408	-0.3362	2.8617	-0.0137	-0.0131	-0.0428	38.5358	6.8983	-7.1402	0.6789	-0.3411	0.4814	0.4372
9.54	-9.1324	-0.3273	2.8523	-0.0117	-0.0102	-0.0430	38.5619	6.9152	-7.2982	0.6787	-0.3412	0.4812	0.4374
9.55	-9.1225	-0.3169	2.8714	-0.0003	-0.0200	-0.0420	38.5274	6.7834	-7.1286	0.6786	-0.3412	0.4812	0.4376
9.56	-9.1146	-0.3021	2.8620	0.0082	-0.0154	-0.0417	38.5977	6.8610	-6.8549	0.6785	-0.3413	0.4811	0.4378
9.57	-9.1066	-0.2743	2.8648	0.0098	-0.0202	-0.0516	38.7227	6.7175	-7.0855	0.6784	-0.3413	0.4810	0.4379
9.58	-9.1122	-0.2563	2.8899	0.0128	-0.0147	-0.0428	38.7480	6.7557	-7.0685	0.6784	-0.3414	0.4811	0.4382
9.59	-9.1213	-0.2361	2.8746	0.0106	-0.0032	-0.0490	38.5385	6.8279	-7.1382	0.6782	-0.3414	0.4810	0.4383
9.6	-9.1309	-0.2150	2.8810	0.0068	-0.0072	-0.0468	38.6629	6.8380	-7.1416	0.6781	-0.3415	0.4810	0.4384
9.61	-9.1224	-0.2079	2.8748	0.0024	-0.0150	-0.0487	38.8556	6.7192	-7.0208	0.6779	-0.3416	0.4809	0.4386
9.62	-9.1113	-0.2023	2.8887	-0.0078	-0.0221	-0.0484	38.6688	6.6506	-7.5011	0.6779	-0.3417	0.4808	0.4388
9.63	-9.1089	-0.1938	2.8917	-0.0106	-0.0190	-0.0525	38.6203	6.7516	-7.1440	0.6778	-0.3418	0.4807	0.4390
9.64	-9.1157	-0.1980	2.8942	-0.0176	-0.0173	-0.0498	38.7050	6.7787	-7.0783	0.6776	-0.3419	0.4806	0.4392
9.65	-9.1386	-0.2139	2.8951	-0.0268	-0.0070	-0.0514	38.7664	6.9549	-6.9692	0.6775	-0.3422	0.4805	0.4394
9.66	-9.1457	-0.2330	2.8704	-0.0268	-0.0140	-0.0540	38.3890	6.8539	-7.0560	0.6773	-0.3423	0.4804	0.4396
9.67	-9.1251	-0.2474	2.8992	-0.0359	-0.0237	-0.0553	38.4659	6.5992	-7.0221	0.6772	-0.3426	0.4802	0.4399
9.68	-9.1251	-0.2678	2.9013	-0.0385	-0.0238	-0.0503	38.6789	6.8278	-7.0512	0.6770	-0.3427	0.4800	0.4401
9.69	-9.1384	-0.2936	2.8901	-0.0406	-0.0180	-0.0508	38.5029	6.9219	-7.2263	0.6769	-0.3430	0.4798	0.4405
9.7	-9.1121	-0.3116	2.8890	-0.0392	-0.0279	-0.0488	38.7589	7.0735	-6.9742	0.6767	-0.3432	0.4796	0.4407
9.71	-9.0875	-0.3283	2.9099	-0.0406	-0.0186	-0.0468	38.6338	7.0452	-7.0774	0.6766	-0.3434	0.4795	0.4410
9.72	-9.0968	-0.3245	2.9052	-0.0369	-0.0156	-0.0445	38.6601	6.7778	-7.1762	0.6763	-0.3436	0.4793	0.4413
9.73	-9.1173	-0.3272	2.8945	-0.0368	-0.0110	-0.0504	38.4579	6.9755	-7.3367	0.6762	-0.3438	0.4792	0.4416
9.74	-9.1124	-0.3404	2.8813	-0.0344	-0.0158	-0.0469	38.5625	6.9753	-7.3395	0.6760	-0.3440	0.4790	0.4418
9.75	-9.0932	-0.3346	2.9173	-0.0176	-0.0212	-0.0468	38.7445	6.7276	-7.1452	0.6758	-0.3441	0.4789	0.4421
9.76	-9.1097	-0.3308	2.9176	-0.0217	-0.0088	-0.0503	38.7303	6.5291	-7.1922	0.6758	-0.3443	0.4789	0.4423
9.77	-9.1340	-0.3166	2.9042	-0.0176	-0.0176	-0.0483	38.8414	6.5774	-7.1392	0.6755	-0.3445	0.4786	0.4426
9.78	-9.1201	-0.3116	2.9214	-0.0128	-0.0230	-0.0501	38.8069	6.7719	-7.2599	0.6760	-0.3441	0.4790	0.4421
9.79	-9.0897	-0.3170	2.9305	-0.0130	-0.0238	-0.0475	38.8213	6.5222	-7.2660	0.6765	-0.3433	0.4794	0.4411
9.8	-9.0869	-0.3341	2.8991	-0.0102	-0.0185	-0.0424	38.5730	6.6027	-7.1437	0.6764	-0.3435	0.4793	0.4414
9.81	-9.0766	-0.3306	2.8994	-0.0052	-0.0175	-0.0439	38.7107	6.6175	-7.1897	0.6763	-0.3435	0.4792	0.4415
9.82	-9.0580	-0.3109	2.9026	-0.0077	-0.0238	-0.0349	38.7327	6.5064	-7.1521	0.6761	-0.3436	0.4791	0.4418
9.83	-9.0526	-0.2800	2.9071	0.0037	-0.0106	-0.0370	38.7187	6.7885	-7.1978	0.6761	-0.3437	0.4791	0.4420
9.84	-9.0639	-0.2510	2.8909	0.0026	0.0007	-0.0345	38.6004	6.9691	-7.1442	0.6758	-0.3437	0.4791	0.4422
9.85	-9.0743	-0.2404	2.8742	-0.0113	0.0048	-0.0473	38.4677	7.0154	-7.2832	0.6757	-0.3439	0.4791	0.4424
9.86	-9.0816	-0.2418	2.8699	0.0042	0.0104	-0.0501	38.4511	6.9063	-7.1752	0.6755	-0.3440	0.4790	0.4425
9.87	-9.0929	-0.2483	2.8425	0.0020	0.0072	-0.0536	38.5752	6.7845	-7.0746	0.6754	-0.3442	0.4791	0.4426
9.88	-9.0859	-0.2554	2.8423	0.0062	0.0083	-0.0615	38.6953	6.8810	-7.2513	0.6752	-0.3443	0.4791	0.4427
9.89	-9.1042	-0.2475	2.8534	-0.0010	0.0150	-0.0570	38.4603	6.9175	-7.3141	0.6751	-0.3445	0.4791	0.4428
9.9	-9.1300	-0.2370	2.8246	-0.0031	0.0254	-0.0644	38.4667	6.9026	-7.0277	0.6749	-0.3447	0.4791	0.4429
9.91	-9.1440	-0.2267	2.8180	-0.0014	0.0183	-0.0599	38.4307	6.9050	-7.0315	0.6747	-0.3449	0.4792	0.4429
9.92	-9.1509	-0.2343	2.8224	-0.0081	0.0135	-0.0609	38.5915	6.7134	-6.8515	0.6746	-0.3451	0.4792	0.4431
9.93	-9.1714	-0.2400	2.8143	-0.0118	0.0113	-0.0551	39.0543	6.8292	-6.7792	0.6749	-0.3446	0.4796	0.4422
9.94	-9.2122	-0.2570	2.8073	-0.0150	0.0090	-0.0569	39.0541	6.9257	-7.0327	0.6758	-0.3439	0.4803	0.4410
9.95	-9.2088	-0.2694	2.7910	-0.0131	0.0030	-0.0461	38.8642	7.0098	-6.9432	0.6760	-0.3436	0.4806	0.4405
9.96	-9.2191	-0.2883	2.8106	-0.0270	-0.0064	-0.0470	38.6921	6.6186	-6.9707	0.6758	-0.3438	0.4805	0.4408
9.97	-9.2035	-0.3115	2.7710	-0.0290	-0.0170	-0.0467	38.5013	6.4579	-6.9477	0.6756	-0.3439	0.4803	0.4410
9.98	-9.1871	-0.3161	2.8057	-0.0207	-0.0184	-0.0379	38.8454	6.6391	-6.9706	0.6754	-0.3441	0.4802	0.4413
9.99	-9.1324	-0.3226	2.7768	-0.0200	-0.0093	-0.0416	38.5841	6.7390	-6.9518	0.6753	-0.3442	0.4802	0.4416
10	-9.1472	-0.2935	2.8479	-0.0252	-0.0199	-0.0359	38.5364	6.7812	-6.9705	0.6750	-0.3443	0.4800	0.4418
10.01	-9.2586	-0.2870	2.7883	-0.0264	0.0008	-0.0485	38.6776	6.6491	-7.0527	0.6749	-0.3446	0.4800	0.4421
10.02	-9.2058	-0.2764	2.7476	-0.0229	-0.0423	-0.0430	38.7715	6.7011	-7.0756	0.6748	-0.3447	0.4798	0.4423
10.03	-9.1237	-0.2775	2.9088	-0.0336	-0.0578	-0.0469	38.6659	6.8653	-6.9750	0.6748	-0.3448	0.4795	0.4427
10.04	-9.1554	-0.3088	2.8275	-0.0346	-0.0212	-0.0533	38.5591	6.8315	-6.9684	0.6745	-0.3449	0.4793	0.4429
10.05	-9.1452	-0.3225	2.7943	-0.0208	-0.0450	-0.0427	38.5319	6.7736	-6.9410	0.6745	-0.3450	0.4791	0.4432
10.06	-9.0529	-0.3067	2.8863	-0.0221	-0.0470	-0.0365	38.6529	6.6921	-7.0478	0.6744	-0.3451	0.4789	0.4436
10.07	-9.0609	-0.2786	2.8834	-0.0348	-0.0209	-0.0367	38.8254	6.7365	-7.2968	0.6747	-0.3447	0.4791	0.4431
10.08	-9.1019	-0.2712	2.8327	-0.0268	-0.0191	-0.0373	38.2572	6.8707	-6.9934	0.6747	-0.3447	0.4792	0.4432
10.09	-9.1005	-0.2685	2.8799	-0.0296	-0.0312	-0.0399	38.3926	6.7138	-6.9789	0.6745	-0.3449	0.4789	0.4436
10.1	-9.1076	-0.2702	2.8842	-0.0365	-0.0230	-0.0377	38.7164	6.8078	-6.8957	0.6744	-0.3450	0.4788	0.4439
10.11	-9.0990	-0.2784	2.8489	-0.0359	-0.0322	-0.0393	38.4397	6.6484	-6.8509	0.6741	-0.3451	0.4786	0.4441
10.12	-9.0690	-0.2831	2.8858	-0.0215	-0.0428	-0.0352	38.4780	6.5937	-6.8853	0.6741	-0.3452	0.4784	0.4445
10.13	-9.0615	-0.2762	2.8987	-0.0215	-0.0248	-0.0429	38.8159	6.5440	-7.0237	0.6739	-0.3453	0.4783	0.4448
10.14	-9.0871	-0.2751	2.8773	-0.0257	-0.0153	-0.0439	38.7602	6.4665	-7.0678	0.6738	-0.3455	0.4781	0.4450
10.15	-9.1102	-0.2805	2.8831	-0.0189	-0.0143	-0.0450	38.6291	6.6200	-7.0235	0.6736	-0.3457	0.4781	0.4453
10.16	-9.1270	-0.2746	2.8921	-0.0183	-0.0146	-0.0489	38.6448	6.5527	-7.2377	0.6735	-0.3458	0.4779	0.4454
10.17	-9.1491	-0.2774	2.8773	-0.0204	-0.0167	-0.0516	38.6684	6.4291	-7.1580	0.6734	-0.3460	0.4778	0.4457
10.18	-9.1466	-0.2977	2.8670	-0.0267	-0.0321	-0.0502	38.5289	6.3874	-7.1435	0.6732	-0.3461	0.4776	0.4459
10.19	-9.1192	-0.3062	2.8753	-0.0229	-0.0278	-0.0486	38.7032	6.4428	-7.1087	0.6731	-0.3462	0.4775	0.4462
10.2	-9.0945	-0.2890	2.8827	-0.0158	-0.0247	-0.0513	38.8589	6.5186	-7.0656	0.6730	-0.3463	0.4773	0.4464
10.21	-9.1029	-0.2777	2.8837	-0.0196	-0.0289	-0.0375	38.5317	6.7619	-7.1977	0.6729	-0.3464	0.4772	0.4467
10.22	-9.1162	-0.2790	2.8758	-0.0164	-0.0234	-0.0452	38.6641	6.7564	-7.0191	0.6727	-0.3465	0.4770	0.4469
10.23	-9.1157	-0.2708	2.8820	-0.0299	-0.0275	-0.0423	38.6334	6.5451	-7.0758	0.6726	-0.3467	0.4769	0.4472
10.24	-9.1340	-0.2537	2.9072	-0.0138	-0.0168	-0.0382	38.4699	6.5950	-7.0185	0.6725	-0.3468	0.4768	0.4475
10.25	-9.1574	-0.2387	2.8780	-0.0268	-0.0159	-0.0351	38.4657	6.6466	-7.1598	0.6722	-0.3469	0.4767	0.4477
10.26	-9.1645	-0.2273	2.8947	-0.0391	-0.0227	-0.0394	38.5656	6.8003	-7.1311	0.6721	-0.3471	0.4766	0.4481
10.27	-9.1637	-0.2228	2.9055	-0.0354	-0.0263	-0.0443	38.4263	6.7282	-7.0327	0.6719	-0.3473	0.4764	0.4483
10.28	-9.1706	-0.2301	2.8979	-0.0313	-0.0282	-0.0446	38.5496	6.8083	-7.0609	0.6718	-0.3474	0.4762	0.4487
10.29	-9.1555	-0.2402	2.9009	-0.0328	-0.0356	-0.0475	38.5770	6.6233	-7.1352	0.6716	-0.3475	0.4760	0.4489
10.3	-9.1513	-0.2448	2.9208	-0.0323	-0.0313	-0.0486	38.5178	6.6378	-7.1641	0.6715	-0.3477	0.4758	0.4492
10.31	-9.1559	-0.2565	2.9000	-0.0267	-0.0348	-0.0475	38.4754	6.7840	-7.1160	0.6714	-0.3478	0.4756	0.4495
10.32	-9.1436	-0.2589	2.9054	-0.0308	-0.0411	-0.0525	38.7408	6.4747	-7.2449	0.6713	-0.3480	0.4753	0.4497
10.33	-9.1287	-0.2584	2.9197	-0.0143	-0.0389	-0.0580	38.7461	6.5027	-7.2088	0.6713	-0.3481	0.4752	0.4500
10.34	-9.1305	-0.2588	2.9174	-0.0312	-0.0410	-0.0610	38.7123	6.3650	-7.2904	0.6712	-0.3482	0.4749	0.4502
10.35	-9.1262	-0.2645	2.9222	-0.0218	-0.0490	-0.0569	38.7820	6.2600	-7.2724	0.6712	-0.3484	0.4747	0.4505
10.36	-9.0864	-0.2565	2.9434	-0.0306	-0.0566	-0.0576	38.5212	6.6127	-7.2006	0.6710	-0.3484	0.4743	0.4507
10.37	-9.0644	-0.2551	2.9578	-0.0307	-0.0523	-0.0568	38.4952	6.7761	-7.3906	0.6710	-0.3486	0.4741	0.4511
10.38	-9.0679	-0.2663	2.9606	-0.0321	-0.0446	-0.0565	38.7171	6.6190	-7.2503	0.6709	-0.3487	0.4738	0.4513
10.39	-9.0642	-0.2861	2.9624	-0.0278	-0.0442	-0.0565	38.5420	6.7737	-7.2389	0.6709	-0.3488	0.4736	0.4516
10.4	-9.0626	-0.3041	2.9781	-0.0240	-0.0373	-0.0539	38.5663	6.6699	-7.2372	0.6708	-0.3490	0.4734	0.4519
10.41	-9.0628	-0.3163	2.9703	-0.0281	-0.0329	-0.0573	38.4176	6.6558	-6.9707	0.6707	-0.3491	0.4732	0.4521
10.42	-9.0720	-0.3312	2.9735	-0.0262	-0.0233	-0.0586	38.5960	6.7334	-7.1829	0.6706	-0.3493	0.4730	0.4523
10.43	-9.0807	-0.3358	2.9604	-0.0200	-0.0252	-0.0612	39.1512	6.8546	-6.9592	0.6710	-0.3488	0.4733	0.4516
10.44	-9.0727	-0.3469	2.9548	-0.0134	-0.0377	-0.0602	39.2581	6.7749	-6.8457	0.6721	-0.3479	0.4739	0.4503
10.45	-9.0575	-0.3436	2.9699	-0.0102	-0.0399	-0.0528	38.7412	7.0606	-7.2361	0.6724	-0.3475	0.4741	0.4498
10.46	-9.0527	-0.3385	2.9772	-0.0098	-0.0270	-0.0556	38.3546	6.9231	-7.2682	0.6723	-0.3476	0.4739	0.4502
10.47	-9.0649	-0.3261	2.9656	-0.0022	-0.0236	-0.0520	38.3541	6.6477	-7.1339	0.6722	-0.3477	0.4738	0.4503
10.48	-9.0575	-0.3105	2.9594	0.0027	-0.0211	-0.0520	38.6152	6.6623	-7.1939	0.6721	-0.3478	0.4737	0.4505
10.49	-9.0542	-0.2981	2.9823	0.0022	-0.0260	-0.0513	38.3498	6.8909	-7.3058	0.6721	-0.3478	0.4736	0.4506
10.5	-9.0640	-0.2889	2.9633	0.0120	-0.0119	-0.0490	38.7741	6.5796	-7.4610	0.6719	-0.3478	0.4735	0.4508
10.51	-9.0641	-0.2797	2.9465	-0.0007	-0.0132	-0.0469	38.6943	6.7709	-7.3918	0.6719	-0.3480	0.4735	0.4510
10.52	-9.0586	-0.2654	2.9621	-0.0016	-0.0112	-0.0477	38.5101	6.6155	-7.3769	0.6717	-0.3480	0.4734	0.4511
10.53	-9.0774	-0.2613	2.9451	-0.0099	-0.0011	-0.0494	38.5860	6.4910	-7.4449	0.6716	-0.3482	0.4734	0.4513
10.54	-9.0920	-0.2561	2.9315	-0.0090	-0.0079	-0.0428	38.4490	6.6419	-7.4458	0.6714	-0.3483	0.4733	0.4515
10.55	-9.0948	-0.2453	2.9475	-0.0097	-0.0061	-0.0439	38.4660	6.7369	-7.3927	0.6713	-0.3484	0.4733	0.4517
10.56	-9.1286	-0.2502	2.9361	-0.0136	-0.0076	-0.0479	38.4733	6.6568	-7.3762	0.6711	-0.3486	0.4732	0.4519
10.57	-9.1579	-0.2723	2.9202	-0.0159	-0.0119	-0.0447	38.4459	6.5928	-7.4691	0.6709	-0.3487	0.4731	0.4521
10.58	-9.1487	-0.2790	2.9304	-0.0159	-0.0200	-0.0427	38.4968	6.7473	-7.3172	0.6709	-0.3488	0.4730	0.4524
10.59	-9.1456	-0.2792	2.9285	-0.0173	-0.0246	-0.0353	38.6877	6.6794	-7.3502	0.6707	-0.3489	0.4729	0.4526
10.6	-9.1415	-0.2741	2.9164	-0.0157	-0.0230	-0.0375	38.6232	6.7858	-7.3553	0.6706	-0.3490	0.4728	0.4529
10.61	-9.1153	-0.2703	2.9209	-0.0148	-0.0319	-0.0352	38.6699	6.8786	-7.2489	0.6703	-0.3490	0.4726	0.4531
10.62	-9.0991	-0.2670	2.9353	-0.0132	-0.0342	-0.0415	38.3890	6.9254	-7.2670	0.6703	-0.3491	0.4725	0.4534
10.63	-9.0976	-0.2624	2.9425	-0.0127	-0.0324	-0.0383	38.4063	6.9540	-7.4034	0.6702	-0.3492	0.4724	0.4537
10.64	-9.0825	-0.2653	2.9426	-0.0138	-0.0364	-0.0434	38.5767	6.8015	-7.2379	0.6701	-0.3492	0.4722	0.4539
10.65	-9.0487	-0.2575	2.9712	-0.0149	-0.0403	-0.0440	38.4500	6.6894	-7.2644	0.6700	-0.3493	0.4720	0.4542
10.66	-9.0616	-0.2310	3.0189	-0.0142	-0.0289	-0.0399	38.3374	6.7508	-7.5017	0.6699	-0.3494	0.4719	0.4545
10.67	-9.0987	-0.2431	2.9823	-0.0138	-0.0213	-0.0498	38.2385	6.8074	-7.3737	0.6698	-0.3495	0.4718	0.4547
10.68	-9.0693	-0.2581	2.9761	-0.0122	-0.0326	-0.0388	38.4753	6.8150	-7.6572	0.6696	-0.3495	0.4716	0.4549
10.69	-9.0172	-0.2496	3.0042	-0.0124	-0.0346	-0.0378	38.5653	6.5472	-7.5780	0.6695	-0.3496	0.4715	0.4552
10.7	-9.0425	-0.2346	2.9917	-0.0143	-0.0077	-0.0431	38.5565	6.5841	-7.5296	0.6694	-0.3497	0.4714	0.4554
10.71	-9.0988	-0.2294	2.9458	-0.0130	-0.0014	-0.0426	38.5341	6.6285	-7.4486	0.6692	-0.3499	0.4714	0.4556
10.72	-9.0809	-0.2313	2.9433	-0.0128	-0.0180	-0.0444	38.6732	6.6358	-7.4284	0.6690	-0.3500	0.4713	0.4558
10.73	-9.0522	-0.2317	2.9911	-0.0143	-0.0217	-0.0480	38.5940	6.8256	-7.5579	0.6689	-0.3501	0.4712	0.4561
10.74	-9.0673	-0.2450	2.9779	-0.0323	-0.0185	-0.0496	38.3674	6.6228	-7.5156	0.6688	-0.3503	0.4710	0.4563
10.75	-9.1092	-0.2448	2.9882	-0.0211	-0.0171	-0.0458	38.3619	6.5433	-7.5334	0.6686	-0.3504	0.4708	0.4565
10.76	-9.1333	-0.2467	2.9841	-0.0294	-0.0210	-0.0548	38.5012	6.5255	-7.4176	0.6685	-0.3506	0.4707	0.4568
10.77	-9.0965	-0.2651	2.9759	-0.0262	-0.0301	-0.0527	38.5541	6.6943	-7.5855	0.6683	-0.3508	0.4705	0.4570
10.78	-9.0501	-0.2956	2.9970	-0.0313	-0.0301	-0.0473	38.3506	6.7242	-7.4236	0.6683	-0.3509	0.4704	0.4573
10.79	-9.0258	-0.3169	2.9930	-0.0228	-0.0213	-0.0492	38.4705	6.6142	-7.5281	0.6681	-0.3510	0.4702	0.4575
10.8	-9.0322	-0.3186	2.9730	-0.0158	-0.0024	-0.0504	38.7037	6.7396	-7.6570	0.6679	-0.3512	0.4701	0.4577
10.81	-9.0180	-0.2858	2.9662	-0.0122	0.0002	-0.0440	38.3757	6.8682	-7.5625	0.6678	-0.3514	0.4701	0.4579
10.82	-9.0285	-0.2574	2.9852	-0.0129	0.0075	-0.0458	38.4612	6.8936	-7.5150	0.6675	-0.3515	0.4700	0.4581
10.83	-9.0902	-0.2665	2.9309	-0.0189	0.0203	-0.0464	38.4604	6.8819	-7.4581	0.6674	-0.3518	0.4701	0.4583
10.84	-9.1073	-0.2711	2.8974	-0.0131	0.0116	-0.0478	38.3669	6.8871	-7.3900	0.6671	-0.3519	0.4701	0.4584
10.85	-9.0794	-0.2721	2.9387	-0.0135	0.0004	-0.0590	38.5780	6.8944	-7.3356	0.6670	-0.3521	0.4700	0.4586
10.86	-9.1023	-0.2800	2.9277	-0.0059	0.0107	-0.0562	38.5432	6.8163	-7.4099	0.6668	-0.3523	0.4699	0.4586
10.87	-9.1287	-0.2784	2.8877	-0.0004	0.0031	-0.0608	38.4513	6.5420	-7.6196	0.6667	-0.3525	0.4700	0.4588
10.88	-9.1008	-0.2624	2.9287	-0.0093	-0.0161	-0.0591	38.6493	6.7385	-7.5063	0.6666	-0.3526	0.4698	0.4589
10.89	-9.0909	-0.2583	2.9370	-0.0073	-0.0100	-0.0577	38.5803	6.5565	-7.4175	0.6664	-0.3527	0.4698	0.4591
10.9	-9.1192	-0.2470	2.9226	-0.0077	-0.0067	-0.0597	38.4329	6.4402	-7.4066	0.6664	-0.3529	0.4697	0.4592
10.91	-9.1223	-0.2289	2.9357	-0.0100	-0.0217	-0.0505	38.4929	6.4120	-7.3801	0.6662	-0.3530	0.4696	0.4594
10.92	-9.1095	-0.2227	2.9508	-0.0141	-0.0167	-0.0491	38.6419	6.3964	-7.5671	0.6661	-0.3531	0.4695	0.4596
10.93	-9.1098	-0.2222	2.9736	-0.0187	-0.0179	-0.0461	39.0332	6.8731	-7.1031	0.6665	-0.3526	0.4698	0.4589
10.94	-9.1256	-0.2336	2.9435	-0.0395	-0.0092	-0.0460	39.0844	6.8487	-7.1882	0.6674	-0.3518	0.4705	0.4578
10.95	-9.1231	-0.2546	2.9401	-0.0409	-0.0176	-0.0465	38.6583	6.7900	-7.3208	0.6676	-0.3516	0.4706	0.4574
10.96	-9.1045	-0.2795	2.9353	-0.0345	-0.0189	-0.0408	38.5258	6.7669	-7.4098	0.6674	-0.3518	0.4704	0.4578
10.97	-9.0539	-0.2895	2.9187	-0.0355	-0.0186	-0.0441	38.1918	6.6759	-7.4249	0.6672	-0.3519	0.4703	0.4580
10.98	-9.1410	-0.2704	3.0107	-0.0414	-0.0091	-0.0449	38.3852	6.7726	-7.4457	0.6670	-0.3522	0.4701	0.4583
10.99	-9.2493	-0.2772	2.8856	-0.0397	0.0042	-0.0387	38.4852	6.6481	-7.5791	0.6668	-0.3524	0.4701	0.4586
11	-9.1370	-0.2770	2.9410	-0.0400	-0.0549	-0.0483	38.4573	6.7168	-7.3177	0.6666	-0.3525	0.4698	0.4588
11.01	-9.0756	-0.3039	3.0549	-0.0388	-0.0410	-0.0487	38.4531	6.5633	-7.3419	0.6666	-0.3527	0.4696	0.4592
11.02	-9.1247	-0.3348	2.9138	-0.0392	-0.0179	-0.0508	38.3430	6.6376	-7.4602	0.6664	-0.3529	0.4694	0.4595
11.03	-9.0903	-0.3290	2.9532	-0.0231	-0.0469	-0.0465	38.4275	6.7693	-7.3912	0.6663	-0.3530	0.4692	0.4598
11.04	-9.0186	-0.2998	3.0389	-0.0234	-0.0452	-0.0390	38.6056	6.7789	-7.5470	0.6662	-0.3530	0.4689	0.4600
11.05	-9.0580	-0.2607	3.0066	-0.0229	-0.0249	-0.0365	38.3429	6.8842	-7.6099	0.6660	-0.3532	0.4688	0.4603
11.06	-9.0783	-0.2600	2.9728	-0.0144	-0.0216	-0.0382	38.3567	6.6392	-7.4633	0.6659	-0.3532	0.4687	0.4606
11.07	-9.0586	-0.2639	3.0168	-0.0164	-0.0291	-0.0389	38.5846	6.5613	-7.6314	0.6657	-0.3533	0.4685	0.4608
11.08	-9.0751	-0.2651	3.0231	-0.0163	-0.0238	-0.0467	38.4551	6.7362	-7.4849	0.6657	-0.3535	0.4685	0.4611
11.09	-9.1031	-0.2695	2.9913	-0.0187	-0.0180	-0.0513	38.4244	6.4818	-7.5587	0.6655	-0.3536	0.4683	0.4613
11.1	-9.0839	-0.2641	2.9950	-0.0173	-0.0311	-0.0495	38.3700	6.6179	-7.6384	0.6654	-0.3537	0.4682	0.4616
11.11	-9.0547	-0.2733	3.0260	-0.0177	-0.0392	-0.0491	38.2701	6.4702	-7.5046	0.6653	-0.3537	0.4679	0.4617
11.12	-9.0431	-0.2782	3.0041	-0.0131	-0.0237	-0.0481	38.4249	6.5888	-7.5116	0.6652	-0.3539	0.4678	0.4620
11.13	-9.0161	-0.2906	3.0107	-0.0142	-0.0312	-0.0510	38.4339	6.6577	-7.5279	0.6651	-0.3540	0.4677	0.4622
11.14	-9.0092	-0.2961	3.0307	-0.0148	-0.0253	-0.0432	38.3292	6.5930	-7.4961	0.6650	-0.3540	0.4675	0.4625
11.15	-9.0306	-0.2966	3.0194	-0.0140	-0.0178	-0.0438	38.4995	6.5604	-7.5464	0.6649	-0.3542	0.4674	0.4627
11.16	-9.0331	-0.2972	3.0112	-0.0129	-0.0033	-0.0501	38.4243	6.5843	-7.5848	0.6647	-0.3543	0.4673	0.4629
11.17	-9.0297	-0.3002	3.0161	-0.0145	0.0025	-0.0534	38.3329	6.8715	-7.4991	0.6645	-0.3545	0.4673	0.4630
11.18	-9.0392	-0.2992	3.0041	-0.0099	0.0067	-0.0471	38.4953	6.5693	-7.5186	0.6643	-0.3546	0.4672	0.4631
11.19	-9.0498	-0.2879	2.9791	-0.0060	0.0057	-0.0479	38.3050	6.6916	-7.5305	0.6642	-0.3548	0.4673	0.4634
11.2	-9.0471	-0.2822	2.9768	-0.0032	-0.0023	-0.0491	38.3460	6.5717	-7.6308	0.6640	-0.3549	0.4672	0.4635
11.21	-9.0787	-0.2725	2.9811	-0.0055	0.0072	-0.0518	38.5864	6.5993	-7.3138	0.6639	-0.3551	0.4672	0.4636
11.22	-9.1375	-0.2592	2.9425	0.0019	0.0182	-0.0502	38.5369	6.6274	-7.3434	0.6637	-0.3552	0.4672	0.4637
11.23	-9.1404	-0.2495	2.9350	0.0042	-0.0043	-0.0551	38.3074	6.5282	-7.3112	0.6635	-0.3553	0.4672	0.4638
11.24	-9.1184	-0.2271	2.9575	0.0024	-0.0123	-0.0519	38.4742	6.6109	-7.5956	0.6635	-0.3554	0.4672	0.4640
11.25	-9.1366	-0.2121	2.9461	-0.0049	-0.0028	-0.0501	38.3667	6.7294	-7.5404	0.6632	-0.3555	0.4671	0.4641
11.26	-9.1494	-0.2087	2.9205	-0.0121	-0.0109	-0.0566	38.3896	6.5611	-7.3949	0.6632	-0.3557	0.4671	0.4643
11.27	-9.1282	-0.2140	2.9499	-0.0149	-0.0280	-0.0491	38.4778	6.6176	-7.5867	0.6631	-0.3558	0.4669	0.4645
11.28	-9.1390	-0.2174	2.9639	-0.0171	-0.0243	-0.0543	38.4946	6.5880	-7.3922	0.6630	-0.3559	0.4668	0.4648
11.29	-9.1564	-0.2440	2.9585	-0.0192	-0.0253	-0.0505	38.7717	6.6124	-7.5490	0.6634	-0.3554	0.4670	0.4641
11.3	-9.1419	-0.2689	2.9630	-0.0213	-0.0334	-0.0479	38.5703	6.4732	-7.3341	0.6634	-0.3555	0.4669	0.4643
11.31	-9.1059	-0.2747	2.9786	-0.0252	-0.0432	-0.0436	38.1956	6.5539	-7.4156	0.6633	-0.3556	0.4667	0.4646
11.32	-9.0859	-0.2734	3.0093	-0.0239	-0.0417	-0.0396	38.5610	6.3907	-7.6411	0.6631	-0.3557	0.4665	0.4649
11.33	-9.0942	-0.2816	3.0156	-0.0231	-0.0431	-0.0413	38.5331	6.5618	-7.5849	0.6631	-0.3558	0.4663	0.4652
11.34	-9.0762	-0.2911	3.0135	-0.0269	-0.0393	-0.0493	38.4700	6.5666	-7.3293	0.6629	-0.3559	0.4661	0.4655
11.35	-9.0462	-0.2969	3.0461	-0.0251	-0.0346	-0.0493	38.5999	6.5015	-7.3779	0.6629	-0.3560	0.4659	0.4658
11.36	-9.0269	-0.3064	3.0486	-0.0253	-0.0355	-0.0499	38.4428	6.4975	-7.5294	0.6627	-0.3561	0.4656	0.4660
11.37	-9.0194	-0.3088	3.0388	-0.0154	-0.0327	-0.0522	38.3474	6.5527	-7.6241	0.6626	-0.3562	0.4655	0.4662
11.38	-8.9925	-0.3116	3.0352	-0.0129	-0.0279	-0.0493	38.2445	6.7317	-7.5969	0.6625	-0.3563	0.4653	0.4665
11.39	-8.9589	-0.2929	3.0436	-0.0139	-0.0283	-0.0484	38.3735	6.6542	-7.6356	0.6624	-0.3564	0.4652	0.4666
11.4	-8.9681	-0.2846	3.0463	-0.0089	-0.0042	-0.0521	38.3816	6.7939	-7.4864	0.6623	-0.3565	0.4651	0.4669
11.41	-8.9850	-0.2749	3.0223	-0.0101	0.0026	-0.0534	38.2255	6.7717	-7.2977	0.6621	-0.3567	0.4651	0.4669
11.42	-8.9863	-0.2620	3.0313	-0.0093	0.0048	-0.0507	38.4351	6.7649	-7.5756	0.6619	-0.3569	0.4650	0.4672
11.43	-8.9935	-0.2485	3.0338	-0.0096	0.0105	-0.0534	38.8673	6.8006	-7.3173	0.6624	-0.3563	0.4655	0.4663
11.44	-9.0236	-0.2524	3.0057	-0.0147	0.0233	-0.0471	38.8910	6.7356	-7.2317	0.6630	-0.3559	0.4661	0.4654
11.45	-9.0303	-0.2703	2.9778	-0.0119	0.0176	-0.0440	38.8126	6.5303	-7.4391	0.6626	-0.3561	0.4661	0.4657
11.46	-9.0429	-0.2769	2.9866	-0.0122	0.0252	-0.0435	38.4910	6.7180	-7.4955	0.6625	-0.3563	0.4662	0.4658
11.47	-9.0855	-0.2840	2.9568	-0.0141	0.0318	-0.0449	38.3889	6.4086	-7.5225	0.6622	-0.3565	0.4662	0.4659
11.48	-9.1197	-0.2929	2.9240	-0.0108	0.0245	-0.0423	38.5670	6.5972	-7.6673	0.6619	-0.3567	0.4663	0.4660
11.49	-9.1223	-0.2892	2.9337	-0.0129	0.0192	-0.0393	38.5027	6.8576	-7.5221	0.6617	-0.3569	0.4663	0.4662
11.5	-9.1452	-0.2822	2.9273	-0.0136	0.0196	-0.0409	38.5253	6.6153	-7.6251	0.6614	-0.3570	0.4663	0.4663
11.51	-9.1865	-0.2751	2.9139	-0.0143	0.0093	-0.0394	38.5214	6.5593	-7.4886	0.6613	-0.3572	0.4663	0.4666
11.52	-9.1838	-0.2720	2.9050	-0.0106	0.0004	-0.0406	38.5111	6.6228	-7.4272	0.6611	-0.3573	0.4663	0.4668
11.53	-9.1633	-0.2632	2.9236	-0.0106	-0.0062	-0.0454	38.5503	6.7624	-7.4052	0.6610	-0.3575	0.4663	0.4670
11.54	-9.1532	-0.2522	2.9111	-0.0131	-0.0174	-0.0494	38.3981	6.8341	-7.6499	0.6607	-0.3576	0.4661	0.4671
