time	acceleration_x	acceleration_y	acceleration_z	gyroscope_x	gyroscope_y	gyroscope_z	magnetometer_x	magnetometer_y	magnetometer_z	quaternion_w	quaternion_x	quaternion_y	quaternion_z
0	-9.6499	-0.2860	-0.6912	0.0765	-0.0875	-0.0805	25.1895	-7.9466	4.4501	0.3992	-0.6527	0.3515	0.5397
0.01	-9.6076	-0.2911	-0.6850	0.0744	-0.0850	-0.0947	25.3040	-8.0698	4.5881	0.3997	-0.6524	0.3513	0.5397
0.02	-9.6307	-0.3060	-0.6814	0.0643	-0.0618	-0.1058	25.2696	-8.1204	4.4813	0.4002	-0.6523	0.3510	0.5397
0.03	-9.6585	-0.3187	-0.6924	0.0508	-0.0567	-0.1075	25.3729	-8.1137	4.3614	0.4006	-0.6521	0.3507	0.5396
0.04	-9.6664	-0.3282	-0.6918	0.0497	-0.0547	-0.1068	25.2741	-7.8637	4.2327	0.4011	-0.6521	0.3505	0.5396
0.05	-9.6245	-0.3334	-0.6848	0.0481	-0.0612	-0.1135	25.1016	-7.8774	4.3317	0.4015	-0.6520	0.3502	0.5395
0.06	-9.6640	-0.3491	-0.6670	0.0436	-0.0642	-0.1184	25.1875	-7.9824	4.6782	0.4020	-0.6519	0.3498	0.5395
0.07	-9.7922	-0.3436	-0.6700	0.0325	-0.0556	-0.1163	25.1968	-7.7046	4.4980	0.4024	-0.6519	0.3495	0.5395
0.08	-9.7879	-0.3360	-0.6626	0.0240	-0.0721	-0.1299	25.0883	-7.5479	4.4501	0.4028	-0.6518	0.3490	0.5395
0.09	-9.6810	-0.3648	-0.6208	0.0254	-0.0858	-0.1369	25.1049	-7.8151	4.4026	0.4033	-0.6518	0.3485	0.5395
0.1	-9.6437	-0.4047	-0.6041	0.0104	-0.0860	-0.1408	25.1932	-7.5513	4.6580	0.4038	-0.6517	0.3479	0.5395
0.11	-9.6370	-0.4193	-0.5961	-0.0032	-0.0862	-0.1462	25.2047	-7.5109	4.5773	0.4042	-0.6517	0.3474	0.5397
0.12	-9.5699	-0.4124	-0.5832	-0.0071	-0.0873	-0.1510	25.3554	-7.4184	4.2381	0.4046	-0.6517	0.3467	0.5397
0.13	-9.4691	-0.4310	-0.5603	-0.0270	-0.0802	-0.1483	25.1454	-7.4818	4.2375	0.4050	-0.6518	0.3461	0.5398
0.14	-9.4387	-0.4586	-0.5474	-0.0252	-0.0631	-0.1470	25.4508	-7.4796	4.4713	0.4053	-0.6519	0.3454	0.5398
0.15	-9.4650	-0.4598	-0.5477	-0.0348	-0.0475	-0.1437	25.3855	-7.4202	4.5311	0.4056	-0.6521	0.3448	0.5398
0.16	-9.4391	-0.4649	-0.5423	-0.0497	-0.0400	-0.1477	25.3263	-7.4756	4.3695	0.4058	-0.6523	0.3442	0.5399
0.17	-9.3647	-0.4846	-0.5372	-0.0537	-0.0289	-0.1573	25.3200	-7.3588	4.2463	0.4059	-0.6525	0.3435	0.5398
0.18	-9.2942	-0.5034	-0.5551	-0.0641	-0.0048	-0.1488	25.2808	-7.4457	4.2739	0.4061	-0.6529	0.3429	0.5397
0.19	-9.2719	-0.5168	-0.5658	-0.0761	0.0334	-0.1482	25.5688	-7.5015	4.2147	0.4060	-0.6533	0.3423	0.5395
0.2	-9.2765	-0.5309	-0.5978	-0.0817	0.0626	-0.1528	25.5943	-7.4783	4.4168	0.4060	-0.6539	0.3418	0.5393
0.21	-9.2628	-0.5429	-0.6331	-0.0900	0.0887	-0.1524	25.7152	-7.5878	4.4653	0.4058	-0.6545	0.3413	0.5389
0.22	-9.2026	-0.5701	-0.6739	-0.0941	0.1170	-0.1560	25.2964	-7.3442	4.1873	0.4057	-0.6553	0.3408	0.5384
0.23	-9.2015	-0.6185	-0.7035	-0.1067	0.1483	-0.1561	25.2513	-7.6704	4.3273	0.4054	-0.6561	0.3404	0.5379
0.24	-9.4146	-0.6473	-0.7609	-0.1079	0.1961	-0.1447	25.5269	-7.5911	4.4421	0.4050	-0.6570	0.3400	0.5372
0.25	-9.5012	-0.6287	-0.8328	-0.1204	0.2007	-0.1405	25.3247	-7.4836	4.4506	0.4045	-0.6581	0.3397	0.5366
0.26	-9.4453	-0.6534	-0.8348	-0.1330	0.2023	-0.1432	25.5810	-7.4697	4.2783	0.4040	-0.6591	0.3393	0.5359
0.27	-9.5012	-0.6897	-0.8984	-0.1400	0.2364	-0.1318	25.4495	-7.3345	4.2775	0.4034	-0.6602	0.3391	0.5353
0.28	-9.5888	-0.7005	-0.9748	-0.1561	0.2453	-0.1206	25.1622	-7.2211	4.5537	0.4026	-0.6613	0.3388	0.5345
0.29	-9.5938	-0.7055	-1.0110	-0.1553	0.2415	-0.1090	25.3439	-7.0185	4.8515	0.4019	-0.6625	0.3386	0.5339
0.3	-9.5933	-0.7249	-1.0540	-0.1582	0.2309	-0.1005	25.2238	-7.2188	4.7719	0.4012	-0.6635	0.3383	0.5332
0.31	-9.6697	-0.7343	-1.1000	-0.1726	0.2293	-0.0996	25.1962	-6.9539	4.8780	0.4004	-0.6646	0.3380	0.5326
0.32	-9.7513	-0.7425	-1.1420	-0.1786	0.2226	-0.0983	25.2113	-6.9682	4.9058	0.3996	-0.6657	0.3378	0.5321
0.33	-9.7751	-0.7687	-1.1770	-0.1823	0.2019	-0.0956	25.0685	-6.9481	5.1330	0.3987	-0.6667	0.3374	0.5316
0.34	-9.7317	-0.7926	-1.2019	-0.1806	0.1821	-0.0894	25.2008	-7.0090	4.9949	0.3980	-0.6677	0.3371	0.5312
0.35	-9.6909	-0.8175	-1.2218	-0.1802	0.1740	-0.0972	25.1860	-7.1590	4.9589	0.3972	-0.6686	0.3366	0.5308
0.36	-9.6928	-0.8328	-1.2455	-0.1683	0.1699	-0.0822	25.4471	-7.0127	5.2422	0.3965	-0.6696	0.3363	0.5305
0.37	-9.6777	-0.8435	-1.2674	-0.1557	0.1669	-0.0814	25.7863	-6.9192	5.4042	0.3957	-0.6704	0.3360	0.5301
0.38	-9.6745	-0.8592	-1.2761	-0.1548	0.1629	-0.0781	25.6296	-7.0359	5.2549	0.3951	-0.6713	0.3357	0.5297
0.39	-9.6694	-0.8680	-1.2959	-0.1507	0.1525	-0.0652	25.5638	-6.9488	5.1171	0.3943	-0.6721	0.3355	0.5294
0.4	-9.6631	-0.8671	-1.3144	-0.1455	0.1443	-0.0630	25.3753	-6.8121	5.2792	0.3937	-0.6728	0.3352	0.5291
0.41	-9.6875	-0.8617	-1.3207	-0.1297	0.1464	-0.0588	25.4495	-7.3811	5.2072	0.3930	-0.6736	0.3350	0.5288
0.42	-9.7406	-0.8544	-1.3379	-0.1252	0.1474	-0.0624	25.6746	-7.3246	5.1650	0.3924	-0.6742	0.3348	0.5285
0.43	-9.7507	-0.8351	-1.3456	-0.1051	0.1307	-0.0560	25.5678	-7.0723	5.2822	0.3918	-0.6748	0.3348	0.5283
0.44	-9.7840	-0.8396	-1.3378	-0.1049	0.1148	-0.0610	25.7238	-7.1592	5.4350	0.3912	-0.6753	0.3346	0.5282
0.45	-9.8800	-0.8359	-1.3578	-0.0855	0.0967	-0.0568	25.5873	-7.3004	5.4406	0.3907	-0.6758	0.3345	0.5280
0.46	-9.8980	-0.8184	-1.3625	-0.0768	0.0680	-0.0618	25.3447	-7.2207	5.5775	0.3904	-0.6761	0.3343	0.5278
0.47	-9.8455	-0.8185	-1.3497	-0.0739	0.0452	-0.0664	25.3129	-6.9507	5.3537	0.3901	-0.6765	0.3340	0.5278
0.48	-9.8154	-0.8308	-1.3510	-0.0665	0.0270	-0.0678	25.1370	-7.1735	5.2696	0.3899	-0.6768	0.3337	0.5277
0.49	-9.7932	-0.8309	-1.3518	-0.0541	0.0085	-0.0607	25.5035	-7.2308	5.4822	0.3897	-0.6770	0.3334	0.5277
0.5	-9.7540	-0.8307	-1.3427	-0.0417	-0.0099	-0.0546	25.2046	-7.1049	5.4416	0.3896	-0.6772	0.3333	0.5279
0.51	-9.6703	-0.8345	-1.3337	-0.0268	-0.0234	-0.0537	25.2005	-7.1253	5.2975	0.3895	-0.6771	0.3331	0.5281
0.52	-9.5977	-0.8266	-1.3152	-0.0224	-0.0286	-0.0497	25.5666	-7.1357	5.5146	0.3894	-0.6771	0.3330	0.5283
0.53	-9.5692	-0.8172	-1.3124	-0.0019	-0.0273	-0.0455	25.4299	-7.0201	5.5552	0.3893	-0.6769	0.3329	0.5285
0.54	-9.5172	-0.8023	-1.3077	-0.0031	-0.0314	-0.0361	25.2450	-7.0517	5.5383	0.3893	-0.6769	0.3328	0.5287
0.55	-9.4882	-0.7936	-1.2907	0.0132	-0.0178	-0.0381	25.2515	-6.9929	5.5224	0.3894	-0.6769	0.3327	0.5287
0.56	-9.4768	-0.7700	-1.2848	0.0263	-0.0063	-0.0347	25.3947	-7.1918	5.6357	0.3894	-0.6768	0.3327	0.5287
0.57	-9.4434	-0.7517	-1.2770	0.0228	-0.0032	-0.0368	25.6773	-7.3040	5.5442	0.3895	-0.6768	0.3327	0.5287
0.58	-9.4129	-0.7443	-1.2724	0.0253	0.0121	-0.0358	25.5769	-7.1865	5.4184	0.3895	-0.6768	0.3327	0.5287
0.59	-9.4228	-0.7371	-1.2760	0.0413	0.0294	-0.0372	25.4809	-7.4169	5.7108	0.3896	-0.6769	0.3328	0.5285
0.6	-9.4401	-0.7272	-1.2982	0.0479	0.0453	-0.0369	25.3313	-7.2254	5.4052	0.3896	-0.6768	0.3329	0.5283
0.61	-9.4252	-0.7050	-1.3141	0.0408	0.0409	-0.0365	25.3822	-7.0596	5.5169	0.3897	-0.6770	0.3331	0.5281
0.62	-9.4147	-0.6968	-1.3275	0.0454	0.0556	-0.0380	25.3102	-7.2355	5.6300	0.3898	-0.6770	0.3332	0.5279
0.63	-9.4123	-0.6901	-1.3536	0.0483	0.0659	-0.0369	25.5079	-7.3205	5.5025	0.3898	-0.6772	0.3335	0.5276
0.64	-9.4179	-0.6861	-1.3652	0.0459	0.0765	-0.0320	25.6388	-7.2095	5.6590	0.3898	-0.6773	0.3337	0.5273
0.65	-9.4621	-0.6825	-1.3961	0.0463	0.0895	-0.0290	25.5035	-7.1593	5.6456	0.3897	-0.6774	0.3339	0.5270
0.66	-9.5457	-0.6814	-1.4254	0.0365	0.1128	-0.0335	25.3354	-7.1600	5.7979	0.3897	-0.6777	0.3342	0.5266
0.67	-9.6550	-0.6676	-1.4645	0.0253	0.1048	-0.0293	25.1356	-7.2315	5.9208	0.3895	-0.6779	0.3344	0.5261
0.68	-9.7087	-0.6479	-1.4881	0.0260	0.0875	-0.0290	25.4137	-7.1001	5.8943	0.3894	-0.6782	0.3347	0.5259
0.69	-9.7732	-0.6415	-1.5013	0.0223	0.0818	-0.0259	25.1551	-7.1088	5.8069	0.3893	-0.6783	0.3349	0.5256
0.7	-9.8074	-0.6241	-1.5368	0.0250	0.0585	-0.0202	25.2700	-7.1935	6.0453	0.3892	-0.6785	0.3351	0.5254
0.71	-9.7763	-0.6079	-1.5382	0.0045	0.0358	-0.0282	25.1754	-7.1988	5.8862	0.3891	-0.6785	0.3351	0.5253
0.72	-9.7814	-0.6107	-1.5339	-0.0029	0.0203	-0.0282	25.1765	-7.3596	5.8195	0.3890	-0.6786	0.3351	0.5253
0.73	-9.8327	-0.6283	-1.5452	-0.0051	0.0100	-0.0313	25.1667	-7.3391	5.8079	0.3889	-0.6787	0.3351	0.5253
0.74	-9.8093	-0.6293	-1.5582	-0.0101	-0.0185	-0.0336	25.2418	-7.2779	5.9020	0.3888	-0.6786	0.3350	0.5253
0.75	-9.7613	-0.6403	-1.5354	-0.0203	-0.0451	-0.0410	25.3928	-7.2922	6.0299	0.3889	-0.6787	0.3348	0.5256
0.76	-9.7248	-0.6610	-1.5313	-0.0179	-0.0488	-0.0405	25.3146	-7.3225	5.7023	0.3888	-0.6786	0.3346	0.5257
0.77	-9.6628	-0.6618	-1.5153	-0.0183	-0.0631	-0.0427	25.4509	-7.4235	5.8169	0.3888	-0.6785	0.3344	0.5261
0.78	-9.5921	-0.6682	-1.4990	-0.0256	-0.0677	-0.0490	25.3544	-7.2731	5.8199	0.3887	-0.6782	0.3342	0.5264
0.79	-9.5385	-0.6861	-1.4887	-0.0274	-0.0672	-0.0387	25.2428	-7.3053	5.9516	0.3887	-0.6781	0.3340	0.5269
0.8	-9.5278	-0.6923	-1.4662	-0.0262	-0.0602	-0.0346	25.1140	-7.1249	5.6623	0.3886	-0.6780	0.3338	0.5271
0.81	-9.5077	-0.6929	-1.4598	-0.0215	-0.0577	-0.0326	25.3651	-7.4199	5.6891	0.3886	-0.6779	0.3336	0.5274
0.82	-9.5006	-0.6869	-1.4407	-0.0260	-0.0523	-0.0323	25.3264	-7.2393	5.8661	0.3886	-0.6779	0.3334	0.5277
0.83	-9.5074	-0.6738	-1.4270	-0.0214	-0.0454	-0.0321	25.4328	-7.2634	5.6469	0.3885	-0.6778	0.3332	0.5279
0.84	-9.4955	-0.6727	-1.4088	-0.0260	-0.0392	-0.0319	25.3350	-7.2216	5.8707	0.3885	-0.6778	0.3330	0.5281
0.85	-9.4963	-0.6920	-1.3958	-0.0183	-0.0354	-0.0363	25.2069	-7.3101	5.6053	0.3884	-0.6777	0.3328	0.5282
0.86	-9.5073	-0.7072	-1.3913	-0.0231	-0.0241	-0.0396	25.7376	-7.1364	5.6865	0.3883	-0.6777	0.3327	0.5284
0.87	-9.5376	-0.7117	-1.3713	-0.0070	-0.0218	-0.0326	25.6844	-7.0418	6.0253	0.3883	-0.6777	0.3326	0.5285
0.88	-9.5668	-0.7131	-1.3663	-0.0018	-0.0203	-0.0325	25.4899	-7.1271	6.0024	0.3883	-0.6777	0.3325	0.5286
0.89	-9.5522	-0.7072	-1.3560	0.0020	-0.0198	-0.0318	25.2497	-7.1153	5.7884	0.3883	-0.6776	0.3324	0.5287
0.9	-9.5394	-0.7038	-1.3500	0.0068	-0.0218	-0.0305	24.8809	-7.0153	5.7179	0.3883	-0.6776	0.3324	0.5288
0.91	-9.5176	-0.7057	-1.3529	0.0033	-0.0184	-0.0314	24.8316	-7.0581	5.7048	0.3883	-0.6776	0.3323	0.5289
0.92	-9.4906	-0.6998	-1.3505	0.0155	-0.0163	-0.0307	25.1941	-7.2228	5.5566	0.3882	-0.6774	0.3323	0.5289
0.93	-9.5042	-0.6947	-1.3460	0.0217	-0.0083	-0.0308	24.9822	-7.3412	5.4345	0.3883	-0.6775	0.3323	0.5290
0.94	-9.5358	-0.6870	-1.3530	0.0259	-0.0099	-0.0307	25.2714	-7.5162	5.7086	0.3884	-0.6774	0.3323	0.5290
0.95	-9.5321	-0.6814	-1.3487	0.0237	-0.0095	-0.0306	25.3132	-7.4971	5.7045	0.3884	-0.6774	0.3324	0.5291
0.96	-9.5474	-0.6775	-1.3424	0.0271	0.0026	-0.0308	25.3272	-7.7123	5.6361	0.3884	-0.6773	0.3324	0.5290
0.97	-9.5772	-0.6648	-1.3568	0.0342	0.0063	-0.0365	25.1405	-7.4639	5.8005	0.3885	-0.6773	0.3325	0.5290
0.98	-9.5954	-0.6615	-1.3528	0.0413	0.0159	-0.0360	25.2037	-7.3744	5.6999	0.3886	-0.6773	0.3325	0.5289
0.99	-9.5525	-0.6504	-1.3632	0.0389	0.0122	-0.0335	25.1431	-7.3898	5.8709	0.3886	-0.6772	0.3326	0.5288
1	-9.5712	-0.6377	-1.3592	0.0399	0.0158	-0.0298	25.1428	-7.3096	5.7036	0.3887	-0.6773	0.3328	0.5288
1.01	-9.6773	-0.6189	-1.3786	0.0423	0.0191	-0.0354	25.2227	-7.3945	5.6712	0.3886	-0.6771	0.3330	0.5288
1.02	-9.6192	-0.5864	-1.3920	0.0404	-0.0028	-0.0380	25.0715	-7.4473	5.8282	0.3886	-0.6770	0.3332	0.5289
1.03	-9.5776	-0.5983	-1.3679	0.0384	-0.0047	-0.0509	25.2637	-7.4982	5.9550	0.3886	-0.6768	0.3333	0.5289
1.04	-9.6498	-0.6109	-1.3980	0.0277	0.0123	-0.0538	25.0634	-7.2391	5.7851	0.3886	-0.6768	0.3334	0.5290
1.05	-9.6522	-0.6140	-1.4117	0.0271	-0.0091	-0.0599	25.0774	-7.1897	5.9280	0.3886	-0.6767	0.3335	0.5291
1.06	-9.6149	-0.6335	-1.4081	0.0285	-0.0065	-0.0578	25.1948	-7.2962	5.8456	0.3885	-0.6765	0.3336	0.5292
1.07	-9.6215	-0.6356	-1.4182	0.0314	-0.0100	-0.0545	24.7929	-7.3082	5.8506	0.3885	-0.6764	0.3337	0.5293
1.08	-9.6212	-0.6089	-1.4149	0.0339	-0.0167	-0.0555	24.9435	-7.0363	5.7839	0.3885	-0.6763	0.3337	0.5294
1.09	-9.6237	-0.6087	-1.4103	0.0240	-0.0170	-0.0564	25.1360	-7.0744	5.9914	0.3885	-0.6762	0.3338	0.5296
1.1	-9.6185	-0.6114	-1.4139	0.0251	-0.0268	-0.0554	25.1552	-7.2453	5.9486	0.3885	-0.6759	0.3338	0.5297
1.11	-9.5961	-0.6186	-1.4059	0.0236	-0.0316	-0.0638	24.8770	-7.1704	5.8173	0.3886	-0.6759	0.3339	0.5299
1.12	-9.5850	-0.6182	-1.3980	0.0224	-0.0325	-0.0643	25.0897	-7.4778	5.8103	0.3886	-0.6757	0.3339	0.5301
1.13	-9.5891	-0.6209	-1.4025	0.0132	-0.0306	-0.0573	25.3601	-7.6055	5.7259	0.3885	-0.6756	0.3339	0.5303
1.14	-9.5839	-0.6320	-1.3922	0.0141	-0.0348	-0.0619	25.1903	-7.4572	5.7673	0.3885	-0.6754	0.3339	0.5305
1.15	-9.5906	-0.6304	-1.3882	0.0055	-0.0324	-0.0592	25.1118	-7.5899	5.7445	0.3884	-0.6753	0.3339	0.5307
1.16	-9.5785	-0.6378	-1.3907	-0.0034	-0.0327	-0.0595	25.1600	-7.3718	5.7515	0.3883	-0.6752	0.3339	0.5310
1.17	-9.5410	-0.6383	-1.3797	-0.0017	-0.0312	-0.0540	25.0174	-7.4117	5.7560	0.3883	-0.6751	0.3337	0.5310
1.18	-9.5411	-0.6392	-1.3671	-0.0022	-0.0315	-0.0520	25.2797	-7.2623	5.6282	0.3884	-0.6751	0.3336	0.5312
1.19	-9.5738	-0.6403	-1.3779	-0.0017	-0.0259	-0.0528	25.1439	-7.5010	5.6913	0.3882	-0.6749	0.3336	0.5314
1.2	-9.5789	-0.6377	-1.3659	-0.0082	-0.0316	-0.0459	25.1924	-7.3850	5.5624	0.3881	-0.6749	0.3336	0.5318
1.21	-9.5564	-0.6463	-1.3545	-0.0123	-0.0313	-0.0455	25.2427	-7.4194	5.6556	0.3879	-0.6747	0.3336	0.5320
1.22	-9.5525	-0.6515	-1.3536	-0.0064	-0.0246	-0.0450	25.0835	-7.3141	5.7804	0.3877	-0.6746	0.3336	0.5322
1.23	-9.5662	-0.6532	-1.3532	-0.0102	-0.0274	-0.0407	25.0024	-7.2275	5.7113	0.3875	-0.6745	0.3337	0.5325
1.24	-9.6006	-0.6558	-1.3510	-0.0125	-0.0195	-0.0337	24.8424	-7.3524	5.8412	0.3873	-0.6743	0.3337	0.5328
1.25	-9.6020	-0.6525	-1.3483	-0.0124	-0.0267	-0.0326	24.9787	-7.0794	5.8343	0.3871	-0.6743	0.3338	0.5331
1.26	-9.5829	-0.6513	-1.3361	-0.0072	-0.0282	-0.0342	25.2267	-7.2881	5.6939	0.3868	-0.6741	0.3339	0.5333
1.27	-9.5773	-0.6506	-1.3330	-0.0052	-0.0238	-0.0304	25.1726	-7.3198	5.8439	0.3867	-0.6740	0.3340	0.5337
1.28	-9.5769	-0.6448	-1.3304	-0.0029	-0.0249	-0.0318	25.0158	-7.2050	5.8195	0.3864	-0.6738	0.3340	0.5339
1.29	-9.5756	-0.6400	-1.3360	-0.0038	-0.0322	-0.0304	25.1828	-7.1124	5.8713	0.3862	-0.6737	0.3342	0.5342
1.3	-9.5763	-0.6348	-1.3269	-0.0022	-0.0260	-0.0306	25.0609	-7.1275	5.9155	0.3860	-0.6735	0.3343	0.5345
1.31	-9.5769	-0.6220	-1.3223	0.0046	-0.0118	-0.0308	25.0810	-7.4541	5.7209	0.3858	-0.6734	0.3344	0.5347
1.32	-9.5694	-0.6159	-1.3318	-0.0002	-0.0244	-0.0312	25.3635	-7.6811	5.8684	0.3856	-0.6732	0.3345	0.5350
1.33	-9.5759	-0.6044	-1.3238	0.0019	-0.0268	-0.0309	25.3857	-7.3797	5.8399	0.3854	-0.6731	0.3347	0.5352
1.34	-9.5880	-0.5846	-1.3249	0.0031	-0.0181	-0.0314	25.2481	-7.3983	5.8178	0.3852	-0.6730	0.3348	0.5355
1.35	-9.5763	-0.5776	-1.3237	-0.0033	-0.0217	-0.0346	25.5087	-7.3666	5.5321	0.3849	-0.6727	0.3349	0.5357
1.36	-9.5599	-0.5701	-1.3250	-0.0001	-0.0271	-0.0390	25.5756	-7.6237	5.7090	0.3848	-0.6727	0.3350	0.5360
1.37	-9.5517	-0.5542	-1.3209	-0.0005	-0.0204	-0.0403	25.6066	-7.3193	6.1104	0.3847	-0.6726	0.3349	0.5361
1.38	-9.5367	-0.5345	-1.3246	-0.0075	-0.0198	-0.0441	25.4569	-7.3305	6.0832	0.3847	-0.6727	0.3348	0.5362
1.39	-9.5157	-0.5275	-1.3283	-0.0158	-0.0200	-0.0498	25.2950	-7.3740	6.0784	0.3846	-0.6726	0.3347	0.5363
1.4	-9.5106	-0.5249	-1.3245	-0.0234	-0.0106	-0.0498	24.9019	-7.4827	5.8929	0.3845	-0.6727	0.3345	0.5364
1.41	-9.5186	-0.5225	-1.3328	-0.0278	-0.0072	-0.0620	25.0268	-7.4608	5.5631	0.3844	-0.6728	0.3344	0.5364
1.42	-9.5432	-0.5205	-1.3497	-0.0272	0.0065	-0.0580	25.1074	-7.2409	5.8082	0.3843	-0.6729	0.3342	0.5364
1.43	-9.5484	-0.5323	-1.3604	-0.0272	0.0098	-0.0613	25.1630	-7.4319	6.0212	0.3842	-0.6731	0.3341	0.5365
1.44	-9.5604	-0.5470	-1.3648	-0.0389	0.0097	-0.0629	25.3343	-7.3025	5.9842	0.3840	-0.6732	0.3339	0.5365
1.45	-9.6000	-0.5604	-1.3864	-0.0517	0.0105	-0.0699	25.3558	-7.5612	5.7270	0.3839	-0.6735	0.3337	0.5365
1.46	-9.6243	-0.5783	-1.3979	-0.0501	0.0059	-0.0658	25.2612	-7.4482	5.7244	0.3835	-0.6735	0.3335	0.5366
1.47	-9.6462	-0.5968	-1.3962	-0.0618	-0.0057	-0.0650	25.2357	-7.2696	5.8083	0.3831	-0.6736	0.3335	0.5369
1.48	-9.6641	-0.6290	-1.3992	-0.0555	-0.0064	-0.0672	25.5102	-7.4215	5.8658	0.3828	-0.6737	0.3334	0.5371
1.49	-9.6525	-0.6435	-1.4046	-0.0606	-0.0166	-0.0531	25.4573	-7.3292	5.9195	0.3824	-0.6737	0.3333	0.5374
1.5	-9.6200	-0.6581	-1.4004	-0.0562	-0.0179	-0.0534	25.3334	-7.6034	5.8106	0.3820	-0.6738	0.3332	0.5378
1.51	-9.6237	-0.6702	-1.4025	-0.0571	-0.0212	-0.0577	25.3285	-7.5097	5.7763	0.3817	-0.6737	0.3331	0.5380
1.52	-9.5953	-0.6752	-1.3948	-0.0516	-0.0226	-0.0565	25.4321	-7.6339	5.7077	0.3813	-0.6737	0.3331	0.5384
1.53	-9.5695	-0.6923	-1.3780	-0.0522	-0.0250	-0.0553	25.3402	-7.6379	5.7166	0.3809	-0.6736	0.3330	0.5386
1.54	-9.6143	-0.7070	-1.3883	-0.0387	-0.0217	-0.0524	25.3618	-7.6448	5.8702	0.3807	-0.6736	0.3330	0.5389
1.55	-9.6395	-0.7026	-1.3865	-0.0295	-0.0180	-0.0553	25.2866	-7.4477	5.7027	0.3804	-0.6736	0.3330	0.5392
1.56	-9.6240	-0.6967	-1.3726	-0.0274	-0.0307	-0.0473	25.2618	-7.5533	5.8930	0.3801	-0.6735	0.3330	0.5395
1.57	-9.5872	-0.6976	-1.3646	-0.0270	-0.0323	-0.0454	25.1364	-7.5379	5.8090	0.3798	-0.6734	0.3331	0.5398
1.58	-9.5536	-0.6927	-1.3587	-0.0263	-0.0297	-0.0441	25.2354	-7.3335	5.6902	0.3796	-0.6733	0.3330	0.5400
1.59	-9.5522	-0.6928	-1.3504	-0.0163	-0.0331	-0.0396	25.4072	-7.3924	5.7166	0.3794	-0.6733	0.3330	0.5403
1.6	-9.5737	-0.6901	-1.3455	-0.0131	-0.0271	-0.0370	25.2322	-7.3606	5.8101	0.3791	-0.6730	0.3331	0.5406
1.61	-9.5673	-0.6677	-1.3392	-0.0016	-0.0328	-0.0310	25.2663	-7.5930	5.6958	0.3789	-0.6730	0.3333	0.5409
1.62	-9.5560	-0.6455	-1.3299	-0.0010	-0.0235	-0.0317	25.2543	-7.3595	5.7667	0.3786	-0.6728	0.3334	0.5412
1.63	-9.5587	-0.6313	-1.3321	-0.0004	-0.0235	-0.0274	25.2594	-7.1679	5.8270	0.3785	-0.6727	0.3335	0.5413
1.64	-9.5316	-0.6123	-1.3319	0.0025	-0.0229	-0.0334	25.2606	-7.3180	5.7946	0.3784	-0.6726	0.3335	0.5414
1.65	-9.5111	-0.5983	-1.3287	0.0024	-0.0178	-0.0332	25.3700	-7.4908	5.6958	0.3784	-0.6726	0.3335	0.5415
1.66	-9.5210	-0.5911	-1.3359	0.0018	-0.0123	-0.0416	25.1262	-7.4701	5.7483	0.3783	-0.6726	0.3334	0.5416
1.67	-9.5411	-0.5782	-1.3423	0.0034	-0.0067	-0.0435	25.3474	-7.3852	5.6094	0.3783	-0.6725	0.3334	0.5416
1.68	-9.5697	-0.5543	-1.3453	0.0040	-0.0116	-0.0337	25.3491	-7.2691	5.7462	0.3782	-0.6726	0.3335	0.5418
1.69	-9.5836	-0.5417	-1.3341	-0.0016	-0.0107	-0.0384	25.3550	-7.5960	5.8368	0.3779	-0.6724	0.3336	0.5419
1.7	-9.6088	-0.5237	-1.3358	-0.0019	-0.0109	-0.0444	25.2924	-7.6752	5.8027	0.3777	-0.6724	0.3338	0.5422
1.71	-9.6313	-0.5194	-1.3416	-0.0028	-0.0102	-0.0460	25.1368	-7.5177	5.8304	0.3774	-0.6722	0.3339	0.5423
1.72	-9.6479	-0.5129	-1.3367	-0.0176	-0.0134	-0.0500	25.3145	-7.5990	5.6660	0.3772	-0.6722	0.3340	0.5426
1.73	-9.6316	-0.5190	-1.3356	-0.0292	-0.0186	-0.0579	25.3458	-7.6169	5.8205	0.3769	-0.6721	0.3340	0.5428
1.74	-9.6064	-0.5290	-1.3306	-0.0281	-0.0276	-0.0574	25.4079	-7.4457	5.7243	0.3766	-0.6720	0.3340	0.5430
1.75	-9.5950	-0.5414	-1.3247	-0.0322	-0.0257	-0.0580	25.4747	-7.4628	5.7281	0.3763	-0.6721	0.3341	0.5434
1.76	-9.5701	-0.5483	-1.3273	-0.0426	-0.0205	-0.0637	25.5038	-7.6205	5.6892	0.3760	-0.6720	0.3340	0.5436
1.77	-9.5706	-0.5691	-1.3210	-0.0527	-0.0238	-0.0665	25.3896	-7.6024	5.6055	0.3757	-0.6720	0.3340	0.5439
1.78	-9.5726	-0.5848	-1.3314	-0.0513	-0.0170	-0.0600	25.5538	-7.4374	5.6388	0.3752	-0.6720	0.3339	0.5441
1.79	-9.5701	-0.5890	-1.3319	-0.0537	-0.0129	-0.0663	25.3849	-7.3688	5.7367	0.3749	-0.6721	0.3339	0.5444
1.8	-9.5448	-0.5970	-1.3324	-0.0530	-0.0167	-0.0671	25.1565	-7.3778	5.6941	0.3746	-0.6721	0.3337	0.5446
1.81	-9.5847	-0.6126	-1.3194	-0.0535	-0.0040	-0.0587	25.2394	-7.3697	5.8010	0.3743	-0.6722	0.3336	0.5447
1.82	-9.6724	-0.6152	-1.3401	-0.0530	-0.0116	-0.0685	25.2779	-7.4690	5.8186	0.3739	-0.6723	0.3335	0.5450
1.83	-9.5996	-0.6068	-1.3328	-0.0530	-0.0274	-0.0703	25.3561	-7.4692	5.8081	0.3736	-0.6723	0.3334	0.5453
1.84	-9.5673	-0.6424	-1.3075	-0.0534	-0.0263	-0.0707	25.1367	-7.4437	5.8132	0.3733	-0.6723	0.3333	0.5456
1.85	-9.6301	-0.6615	-1.3324	-0.0528	-0.0177	-0.0730	25.3230	-7.5599	5.8065	0.3729	-0.6723	0.3332	0.5457
1.86	-9.6485	-0.6695	-1.3258	-0.0533	-0.0263	-0.0660	25.7036	-7.5340	5.9356	0.3726	-0.6724	0.3332	0.5461
1.87	-9.5886	-0.6789	-1.3198	-0.0410	-0.0389	-0.0541	25.8369	-7.2600	5.8657	0.3722	-0.6723	0.3331	0.5464
1.88	-9.5730	-0.6710	-1.3120	-0.0345	-0.0354	-0.0448	25.6916	-7.3381	5.7286	0.3719	-0.6722	0.3331	0.5467
1.89	-9.5830	-0.6692	-1.3216	-0.0323	-0.0314	-0.0465	25.5028	-7.4600	5.9075	0.3716	-0.6721	0.3331	0.5470
1.9	-9.5525	-0.6707	-1.3154	-0.0322	-0.0253	-0.0538	25.3251	-7.7321	5.6938	0.3713	-0.6721	0.3331	0.5472
1.91	-9.5511	-0.6772	-1.2995	-0.0278	-0.0232	-0.0499	25.4931	-7.7200	5.8816	0.3712	-0.6721	0.3329	0.5474
1.92	-9.5754	-0.6752	-1.3118	-0.0268	-0.0165	-0.0570	25.3853	-7.5347	5.8617	0.3709	-0.6720	0.3329	0.5475
1.93	-9.5805	-0.6594	-1.3038	-0.0222	-0.0205	-0.0541	25.3789	-7.4646	5.6832	0.3707	-0.6721	0.3330	0.5478
1.94	-9.5849	-0.6540	-1.2895	-0.0082	-0.0240	-0.0447	25.5449	-7.3294	5.9152	0.3704	-0.6719	0.3331	0.5480
1.95	-9.6109	-0.6444	-1.2906	-0.0037	-0.0207	-0.0419	25.5705	-7.4683	5.6294	0.3702	-0.6719	0.3333	0.5483
1.96	-9.5868	-0.6310	-1.2948	-0.0026	-0.0293	-0.0454	25.5647	-7.5455	5.6518	0.3699	-0.6717	0.3333	0.5484
1.97	-9.5702	-0.6206	-1.2822	-0.0052	-0.0214	-0.0451	25.3133	-7.4768	5.8477	0.3697	-0.6716	0.3335	0.5487
1.98	-9.5796	-0.6038	-1.2958	-0.0020	-0.0143	-0.0441	25.2967	-7.3971	5.8307	0.3694	-0.6715	0.3336	0.5489
1.99	-9.5730	-0.5918	-1.2909	-0.0023	-0.0232	-0.0473	25.2738	-7.0914	5.7216	0.3691	-0.6714	0.3337	0.5491
2	-9.5648	-0.5839	-1.2846	-0.0073	-0.0199	-0.0469	25.5233	-7.2206	5.6377	0.3690	-0.6714	0.3339	0.5493
2.01	-9.5633	-0.5793	-1.2800	-0.0174	-0.0182	-0.0423	25.4201	-7.2164	5.7188	0.3688	-0.6713	0.3338	0.5494
2.02	-9.5747	-0.5763	-1.2844	-0.0108	-0.0111	-0.0469	25.3772	-7.3963	5.5807	0.3685	-0.6713	0.3340	0.5497
2.03	-9.5752	-0.5747	-1.2882	-0.0148	-0.0153	-0.0460	25.3736	-7.2999	5.7556	0.3682	-0.6712	0.3340	0.5498
2.04	-9.5918	-0.5769	-1.2893	-0.0235	-0.0147	-0.0407	25.5243	-7.2688	5.5886	0.3679	-0.6712	0.3342	0.5501
2.05	-9.6005	-0.5692	-1.2925	-0.0217	-0.0113	-0.0357	25.2052	-7.3679	5.6746	0.3675	-0.6711	0.3343	0.5503
2.06	-9.6003	-0.5666	-1.2930	-0.0240	-0.0123	-0.0382	25.3384	-7.6583	5.5372	0.3672	-0.6711	0.3344	0.5505
2.07	-9.5934	-0.5713	-1.2949	-0.0257	-0.0149	-0.0329	25.5870	-7.6481	5.5685	0.3668	-0.6710	0.3345	0.5507
2.08	-9.6127	-0.5767	-1.2924	-0.0275	-0.0160	-0.0352	25.5853	-7.6343	5.5046	0.3664	-0.6710	0.3346	0.5510
2.09	-9.6082	-0.5711	-1.2958	-0.0259	-0.0185	-0.0371	25.6495	-7.6706	5.4670	0.3661	-0.6709	0.3347	0.5512
2.1	-9.5937	-0.5740	-1.2847	-0.0259	-0.0203	-0.0408	25.3465	-7.5455	5.7643	0.3657	-0.6708	0.3348	0.5514
2.11	-9.6054	-0.5733	-1.2875	-0.0224	-0.0205	-0.0426	25.3991	-7.4725	5.7075	0.3655	-0.6708	0.3349	0.5517
2.12	-9.5961	-0.5684	-1.2914	-0.0259	-0.0224	-0.0450	25.3734	-7.5904	5.5955	0.3651	-0.6707	0.3349	0.5519
2.13	-9.5677	-0.5641	-1.2844	-0.0289	-0.0200	-0.0464	25.3899	-7.5328	5.7413	0.3649	-0.6708	0.3349	0.5521
2.14	-9.5638	-0.5651	-1.2805	-0.0248	-0.0194	-0.0536	25.3759	-7.6610	5.6340	0.3648	-0.6708	0.3347	0.5522
2.15	-9.5728	-0.5583	-1.2863	-0.0202	-0.0137	-0.0510	25.3868	-7.6434	5.5134	0.3645	-0.6708	0.3348	0.5524
2.16	-9.5624	-0.5452	-1.2855	-0.0202	-0.0092	-0.0464	25.3767	-7.4322	5.5981	0.3643	-0.6708	0.3348	0.5525
2.17	-9.5637	-0.5364	-1.2786	-0.0201	-0.0094	-0.0558	25.4005	-7.2810	5.7345	0.3642	-0.6708	0.3346	0.5525
2.18	-9.5778	-0.5353	-1.2889	-0.0271	-0.0044	-0.0552	25.2596	-7.2928	5.7140	0.3639	-0.6709	0.3347	0.5527
2.19	-9.5810	-0.5306	-1.2903	-0.0273	-0.0124	-0.0572	25.2036	-7.4551	5.9071	0.3636	-0.6709	0.3347	0.5529
2.2	-9.5562	-0.5330	-1.2802	-0.0264	-0.0165	-0.0580	25.4240	-7.1986	5.8525	0.3635	-0.6710	0.3347	0.5531
2.21	-9.5563	-0.5357	-1.2832	-0.0246	-0.0030	-0.0581	25.2595	-7.3042	5.7071	0.3633	-0.6710	0.3345	0.5530
2.22	-9.5877	-0.5333	-1.2920	-0.0281	0.0002	-0.0558	25.4585	-7.4977	5.6072	0.3630	-0.6710	0.3346	0.5532
2.23	-9.5819	-0.5357	-1.2928	-0.0269	-0.0082	-0.0633	25.2370	-7.3177	5.6930	0.3627	-0.6711	0.3346	0.5533
2.24	-9.5712	-0.5498	-1.2953	-0.0274	-0.0131	-0.0574	25.2527	-7.4885	5.7470	0.3624	-0.6710	0.3346	0.5535
2.25	-9.5844	-0.5564	-1.3039	-0.0360	-0.0061	-0.0603	25.5151	-7.5480	5.7178	0.3621	-0.6712	0.3346	0.5537
2.26	-9.6001	-0.5606	-1.3071	-0.0306	-0.0028	-0.0640	25.4588	-7.7281	5.6055	0.3618	-0.6712	0.3346	0.5538
2.27	-9.5928	-0.5753	-1.3150	-0.0315	0.0051	-0.0618	25.4612	-7.6828	5.7192	0.3615	-0.6713	0.3346	0.5539
2.28	-9.5802	-0.5826	-1.3170	-0.0485	0.0009	-0.0636	25.5695	-7.5382	5.7487	0.3611	-0.6713	0.3346	0.5540
2.29	-9.5869	-0.5888	-1.3201	-0.0476	-0.0111	-0.0641	25.5403	-7.6692	5.5972	0.3607	-0.6714	0.3345	0.5543
2.3	-9.6156	-0.5959	-1.3297	-0.0385	0.0022	-0.0624	25.2752	-7.2996	5.6986	0.3604	-0.6715	0.3345	0.5544
2.31	-9.6320	-0.5996	-1.3466	-0.0365	-0.0044	-0.0626	25.3073	-7.6335	5.7433	0.3601	-0.6715	0.3345	0.5545
2.32	-9.6061	-0.6024	-1.3414	-0.0285	-0.0091	-0.0616	25.3564	-7.7456	5.7292	0.3598	-0.6716	0.3345	0.5547
2.33	-9.6003	-0.6081	-1.3333	-0.0326	-0.0141	-0.0576	25.5824	-7.6099	5.7366	0.3595	-0.6716	0.3345	0.5548
2.34	-9.6271	-0.6080	-1.3482	-0.0302	-0.0092	-0.0647	25.4093	-7.4380	5.7272	0.3592	-0.6717	0.3345	0.5550
2.35	-9.6120	-0.6067	-1.3504	-0.0316	-0.0154	-0.0693	25.0490	-7.2716	5.7204	0.3589	-0.6716	0.3344	0.5551
2.36	-9.5894	-0.6092	-1.3409	-0.0328	-0.0217	-0.0707	25.4845	-7.3055	5.7264	0.3587	-0.6717	0.3344	0.5553
2.37	-9.6159	-0.6142	-1.3332	-0.0246	-0.0158	-0.0702	25.7805	-7.1152	6.0653	0.3585	-0.6717	0.3343	0.5554
2.38	-9.6324	-0.6111	-1.3314	-0.0244	-0.0148	-0.0657	25.5951	-7.1551	6.0502	0.3582	-0.6718	0.3343	0.5556
2.39	-9.5963	-0.6029	-1.3218	-0.0283	-0.0205	-0.0649	25.2765	-7.4154	5.6495	0.3580	-0.6717	0.3342	0.5557
2.4	-9.5970	-0.6010	-1.3182	-0.0214	-0.0201	-0.0617	25.0050	-7.3565	5.7933	0.3577	-0.6718	0.3342	0.5559
2.41	-9.5912	-0.5810	-1.3111	-0.0215	-0.0170	-0.0639	25.1126	-7.3482	5.6446	0.3575	-0.6718	0.3342	0.5561
2.42	-9.5609	-0.5823	-1.3025	-0.0306	-0.0264	-0.0708	24.9815	-7.4648	5.7819	0.3574	-0.6718	0.3340	0.5561
2.43	-9.5909	-0.6088	-1.3067	-0.0276	-0.0180	-0.0672	25.2621	-7.4934	5.5898	0.3572	-0.6719	0.3340	0.5564
2.44	-9.6062	-0.6118	-1.3038	-0.0276	-0.0163	-0.0628	25.3506	-7.7062	5.5133	0.3569	-0.6719	0.3339	0.5565
2.45	-9.6152	-0.6046	-1.2924	-0.0319	-0.0248	-0.0622	25.2522	-7.5546	5.8091	0.3567	-0.6719	0.3339	0.5567
2.46	-9.6320	-0.6111	-1.2976	-0.0316	-0.0175	-0.0586	25.1951	-7.5487	5.6469	0.3564	-0.6719	0.3338	0.5568
2.47	-9.5789	-0.6159	-1.2983	-0.0330	-0.0334	-0.0565	25.1798	-7.5759	5.6504	0.3562	-0.6719	0.3338	0.5570
2.48	-9.5484	-0.6333	-1.2893	-0.0423	-0.0240	-0.0588	25.1744	-7.5028	5.5348	0.3561	-0.6720	0.3335	0.5572
2.49	-9.5751	-0.6539	-1.3013	-0.0330	-0.0250	-0.0564	25.2643	-7.4439	5.6071	0.3558	-0.6720	0.3334	0.5573
2.5	-9.5779	-0.6494	-1.3026	-0.0360	-0.0321	-0.0456	25.2858	-7.5850	5.3395	0.3556	-0.6720	0.3334	0.5576
2.51	-9.5512	-0.6420	-1.2976	-0.0340	-0.0224	-0.0430	25.1185	-7.5421	5.4312	0.3554	-0.6720	0.3332	0.5577
2.52	-9.5754	-0.6412	-1.2971	-0.0332	-0.0211	-0.0413	25.0862	-7.5828	5.5461	0.3552	-0.6721	0.3332	0.5579
2.53	-9.5985	-0.6297	-1.3043	-0.0287	-0.0199	-0.0414	25.0996	-7.4552	5.6775	0.3549	-0.6720	0.3331	0.5580
2.54	-9.5765	-0.6212	-1.3008	-0.0267	-0.0210	-0.0536	25.2015	-7.4810	5.6474	0.3547	-0.6720	0.3331	0.5582
2.55	-9.5482	-0.6235	-1.2903	-0.0244	-0.0206	-0.0615	25.0031	-7.6229	5.6929	0.3546	-0.6721	0.3329	0.5583
2.56	-9.5633	-0.6163	-1.3024	-0.0225	-0.0164	-0.0586	25.0242	-7.6741	5.5709	0.3544	-0.6721	0.3328	0.5584
2.57	-9.5812	-0.6003	-1.3100	-0.0181	-0.0157	-0.0592	24.8825	-7.5217	5.5817	0.3542	-0.6722	0.3328	0.5586
2.58	-9.5685	-0.5872	-1.3015	-0.0133	-0.0181	-0.0550	25.1021	-7.6148	5.5411	0.3540	-0.6721	0.3328	0.5587
2.59	-9.5810	-0.5757	-1.2954	-0.0160	-0.0082	-0.0608	25.0187	-7.6148	5.6678	0.3538	-0.6722	0.3329	0.5588
2.6	-9.5994	-0.5654	-1.3003	-0.0274	-0.0076	-0.0665	25.0167	-7.4525	5.5673	0.3535	-0.6722	0.3328	0.5588
2.61	-9.5914	-0.5724	-1.3042	-0.0238	-0.0101	-0.0628	25.0678	-7.3691	5.4743	0.3533	-0.6723	0.3328	0.5590
2.62	-9.5781	-0.5747	-1.2957	-0.0275	-0.0162	-0.0685	25.2273	-7.4101	5.5978	0.3531	-0.6723	0.3327	0.5591
2.63	-9.5858	-0.5859	-1.3071	-0.0293	-0.0133	-0.0672	25.4586	-7.5575	5.5661	0.3529	-0.6724	0.3326	0.5592
2.64	-9.5993	-0.5898	-1.3055	-0.0322	-0.0151	-0.0696	25.0275	-7.6413	5.5696	0.3526	-0.6724	0.3325	0.5593
2.65	-9.5993	-0.5910	-1.3036	-0.0390	-0.0155	-0.0724	25.2572	-7.6724	5.4642	0.3524	-0.6725	0.3324	0.5595
2.66	-9.6103	-0.6126	-1.3007	-0.0460	-0.0182	-0.0677	25.2868	-7.7566	5.2739	0.3522	-0.6726	0.3323	0.5596
2.67	-9.6290	-0.6299	-1.3015	-0.0482	-0.0216	-0.0714	25.1970	-7.3398	5.4634	0.3519	-0.6726	0.3321	0.5597
2.68	-9.6262	-0.6311	-1.3046	-0.0529	-0.0253	-0.0689	25.0695	-7.5200	5.6895	0.3516	-0.6728	0.3319	0.5600
2.69	-9.5962	-0.6363	-1.2964	-0.0543	-0.0299	-0.0714	25.1202	-7.5381	5.5264	0.3513	-0.6728	0.3317	0.5602
2.7	-9.5526	-0.6493	-1.2917	-0.0455	-0.0261	-0.0651	25.0367	-7.4215	5.6001	0.3512	-0.6730	0.3315	0.5604
2.71	-9.6404	-0.6591	-1.2837	-0.0540	-0.0269	-0.0640	24.8864	-7.6034	5.4667	0.3509	-0.6730	0.3313	0.5605
2.72	-9.6627	-0.6490	-1.3106	-0.0431	-0.0287	-0.0705	25.1883	-7.3924	5.4697	0.3507	-0.6730	0.3312	0.5607
2.73	-9.5368	-0.6561	-1.2708	-0.0446	-0.0283	-0.0722	25.1350	-7.6052	5.5186	0.3506	-0.6731	0.3309	0.5608
2.74	-9.5584	-0.6812	-1.2695	-0.0335	-0.0116	-0.0766	25.0627	-7.3099	5.6762	0.3504	-0.6732	0.3307	0.5609
2.75	-9.6177	-0.6802	-1.2933	-0.0274	-0.0213	-0.0734	25.2322	-7.1905	5.5444	0.3503	-0.6733	0.3306	0.5611
2.76	-9.5992	-0.6790	-1.2789	-0.0297	-0.0274	-0.0611	25.1322	-7.3340	5.7293	0.3500	-0.6733	0.3305	0.5612
2.77	-9.5646	-0.6814	-1.2697	-0.0269	-0.0286	-0.0587	25.0874	-7.4911	5.7405	0.3499	-0.6734	0.3304	0.5614
2.78	-9.6021	-0.6806	-1.2741	-0.0276	-0.0251	-0.0558	25.0912	-7.2854	5.4133	0.3496	-0.6733	0.3303	0.5614
2.79	-9.6205	-0.6649	-1.2832	-0.0249	-0.0271	-0.0551	25.2281	-7.2042	5.5467	0.3495	-0.6734	0.3303	0.5616
2.8	-9.6032	-0.6638	-1.2702	-0.0280	-0.0323	-0.0617	25.1144	-7.3277	5.4758	0.3493	-0.6733	0.3301	0.5618
2.81	-9.5736	-0.6794	-1.2762	-0.0219	-0.0273	-0.0647	25.1458	-7.3185	5.3319	0.3491	-0.6733	0.3300	0.5619
2.82	-9.5705	-0.6666	-1.2726	-0.0162	-0.0266	-0.0599	25.3126	-7.6334	5.4265	0.3490	-0.6734	0.3300	0.5621
2.83	-9.5971	-0.6596	-1.2703	-0.0104	-0.0210	-0.0604	25.3666	-7.4686	5.3456	0.3488	-0.6734	0.3299	0.5622
2.84	-9.5916	-0.6515	-1.2740	-0.0156	-0.0330	-0.0579	25.1553	-7.5527	5.2505	0.3487	-0.6734	0.3299	0.5623
2.85	-9.5628	-0.6476	-1.2642	-0.0150	-0.0325	-0.0586	25.3483	-7.4814	5.4745	0.3486	-0.6733	0.3297	0.5624
2.86	-9.5737	-0.6453	-1.2576	-0.0084	-0.0226	-0.0584	25.6057	-7.2554	5.7141	0.3486	-0.6734	0.3296	0.5625
2.87	-9.6322	-0.6386	-1.2596	-0.0079	-0.0218	-0.0545	25.6425	-7.2882	5.7602	0.3484	-0.6734	0.3296	0.5626
2.88	-9.6184	-0.6341	-1.2627	-0.0120	-0.0289	-0.0500	25.6009	-7.3474	5.4643	0.3483	-0.6734	0.3296	0.5628
2.89	-9.5859	-0.6396	-1.2536	-0.0187	-0.0293	-0.0569	25.4539	-7.2812	5.3714	0.3481	-0.6733	0.3295	0.5629
2.9	-9.6049	-0.6381	-1.2566	-0.0208	-0.0332	-0.0514	25.1393	-7.3076	5.3746	0.3479	-0.6733	0.3294	0.5631
2.91	-9.6046	-0.6352	-1.2499	-0.0165	-0.0338	-0.0491	25.3296	-7.1589	5.4029	0.3479	-0.6733	0.3295	0.5632
2.92	-9.6070	-0.6414	-1.2452	-0.0235	-0.0324	-0.0487	25.4912	-7.2082	5.4528	0.3478	-0.6731	0.3295	0.5632
2.93	-9.5989	-0.6429	-1.2485	-0.0235	-0.0308	-0.0453	25.3418	-7.3341	5.4559	0.3476	-0.6732	0.3294	0.5635
2.94	-9.5957	-0.6410	-1.2419	-0.0241	-0.0345	-0.0469	25.1018	-7.3288	5.3940	0.3474	-0.6732	0.3293	0.5636
2.95	-9.6118	-0.6376	-1.2381	-0.0126	-0.0294	-0.0451	25.1520	-7.2484	5.3483	0.3473	-0.6732	0.3293	0.5638
2.96	-9.6163	-0.6323	-1.2334	-0.0108	-0.0370	-0.0403	25.4101	-7.2167	5.2478	0.3473	-0.6730	0.3294	0.5638
2.97	-9.6095	-0.6345	-1.2282	-0.0144	-0.0389	-0.0432	25.1058	-7.4658	5.2872	0.3472	-0.6729	0.3294	0.5640
2.98	-9.6092	-0.6305	-1.2284	-0.0061	-0.0393	-0.0435	25.3336	-7.3589	5.3776	0.3471	-0.6729	0.3293	0.5642
2.99	-9.5883	-0.6298	-1.2212	-0.0076	-0.0415	-0.0453	25.3836	-7.5082	5.3470	0.3470	-0.6728	0.3293	0.5643
3	-9.5637	-0.6245	-1.2093	-0.0189	-0.0431	-0.0417	25.4640	-7.4747	5.3569	0.3470	-0.6728	0.3292	0.5646
3.01	-9.5647	-0.6133	-1.2127	-0.0122	-0.0325	-0.0418	25.6130	-7.5276	5.3714	0.3469	-0.6727	0.3290	0.5646
3.02	-9.5691	-0.6049	-1.2094	-0.0030	-0.0337	-0.0520	25.6594	-7.6139	5.3058	0.3469	-0.6728	0.3289	0.5648
3.03	-9.5857	-0.6011	-1.2126	-0.0032	-0.0312	-0.0516	25.5518	-7.4714	5.1577	0.3468	-0.6727	0.3288	0.5648
3.04	-9.5868	-0.5881	-1.2117	0.0002	-0.0249	-0.0566	25.4214	-7.6182	5.1753	0.3468	-0.6727	0.3288	0.5650
3.05	-9.5687	-0.5800	-1.2074	-0.0134	-0.0312	-0.0555	25.5260	-7.5420	5.1992	0.3467	-0.6727	0.3286	0.5650
3.06	-9.5899	-0.5890	-1.2002	-0.0218	-0.0258	-0.0515	25.5563	-7.6838	5.3846	0.3466	-0.6727	0.3285	0.5652
3.07	-9.6138	-0.5833	-1.2117	-0.0238	-0.0179	-0.0540	25.5555	-7.5578	5.3393	0.3465	-0.6728	0.3284	0.5653
3.08	-9.5866	-0.5793	-1.2017	-0.0175	-0.0274	-0.0574	25.3983	-7.3487	5.2498	0.3464	-0.6727	0.3283	0.5654
3.09	-9.5951	-0.5937	-1.1999	-0.0258	-0.0212	-0.0581	25.3803	-7.4632	5.2528	0.3462	-0.6728	0.3282	0.5655
3.1	-9.6051	-0.5941	-1.2044	-0.0273	-0.0266	-0.0564	25.2893	-7.2064	5.3501	0.3462	-0.6727	0.3282	0.5655
3.11	-9.5928	-0.5945	-1.2067	-0.0270	-0.0318	-0.0612	25.1749	-7.2492	5.3466	0.3461	-0.6728	0.3281	0.5657
3.12	-9.5724	-0.6072	-1.2066	-0.0284	-0.0260	-0.0631	25.2109	-7.3494	5.2042	0.3460	-0.6728	0.3278	0.5658
3.13	-9.5831	-0.6129	-1.1993	-0.0282	-0.0283	-0.0589	25.4583	-7.2903	5.3660	0.3459	-0.6728	0.3277	0.5659
3.14	-9.5980	-0.6155	-1.2054	-0.0296	-0.0239	-0.0576	25.4691	-7.3516	5.3426	0.3458	-0.6729	0.3275	0.5660
3.15	-9.5834	-0.6219	-1.1971	-0.0327	-0.0304	-0.0660	25.2197	-7.1369	5.1103	0.3457	-0.6729	0.3274	0.5661
3.16	-9.6007	-0.6322	-1.2019	-0.0257	-0.0216	-0.0623	25.5482	-7.4371	5.2283	0.3457	-0.6729	0.3274	0.5662
3.17	-9.6229	-0.6388	-1.2060	-0.0274	-0.0172	-0.0609	25.1685	-7.5147	5.3841	0.3455	-0.6729	0.3271	0.5662
3.18	-9.6099	-0.6407	-1.1935	-0.0293	-0.0270	-0.0624	25.1214	-7.4043	5.1100	0.3455	-0.6730	0.3270	0.5664
3.19	-9.6055	-0.6458	-1.1964	-0.0273	-0.0270	-0.0612	25.4962	-7.5000	5.0894	0.3453	-0.6730	0.3268	0.5665
3.2	-9.6100	-0.6546	-1.1964	-0.0273	-0.0215	-0.0566	25.4356	-7.3342	5.0081	0.3453	-0.6731	0.3267	0.5667
3.21	-9.6117	-0.6511	-1.1861	-0.0276	-0.0188	-0.0565	25.5566	-7.6313	4.9718	0.3451	-0.6731	0.3265	0.5667
3.22	-9.6242	-0.6464	-1.1799	-0.0273	-0.0258	-0.0575	25.6800	-7.5374	5.1328	0.3450	-0.6732	0.3263	0.5669
3.23	-9.6153	-0.6456	-1.1835	-0.0276	-0.0323	-0.0567	25.5463	-7.4772	5.0072	0.3449	-0.6732	0.3262	0.5670
3.24	-9.5998	-0.6541	-1.1756	-0.0269	-0.0295	-0.0588	25.3323	-7.5075	4.9785	0.3447	-0.6732	0.3260	0.5671
3.25	-9.5915	-0.6467	-1.1653	-0.0284	-0.0370	-0.0547	25.4104	-7.4819	4.9914	0.3447	-0.6733	0.3258	0.5674
3.26	-9.5933	-0.6391	-1.1609	-0.0242	-0.0274	-0.0533	25.3108	-7.5169	5.1393	0.3445	-0.6732	0.3256	0.5674
3.27	-9.5864	-0.6343	-1.1545	-0.0259	-0.0277	-0.0570	25.3097	-7.4327	5.1887	0.3444	-0.6733	0.3255	0.5676
3.28	-9.5659	-0.6332	-1.1535	-0.0232	-0.0369	-0.0588	25.5829	-7.3119	5.1516	0.3445	-0.6731	0.3254	0.5676
3.29	-9.5604	-0.6359	-1.1466	-0.0252	-0.0279	-0.0581	25.4249	-7.3047	5.1924	0.3446	-0.6732	0.3252	0.5677
3.3	-9.5827	-0.6339	-1.1528	-0.0226	-0.0224	-0.0567	25.3186	-7.3658	5.1116	0.3445	-0.6733	0.3250	0.5678
3.31	-9.5921	-0.6294	-1.1605	-0.0216	-0.0197	-0.0559	25.2483	-7.4403	5.0593	0.3444	-0.6733	0.3248	0.5679
3.32	-9.5566	-0.6289	-1.1487	-0.0204	-0.0220	-0.0566	25.4149	-7.2834	5.0899	0.3444	-0.6734	0.3246	0.5680
3.33	-9.5908	-0.6253	-1.1529	-0.0247	-0.0114	-0.0570	25.3191	-7.4905	5.0629	0.3443	-0.6734	0.3244	0.5680
3.34	-9.6267	-0.6130	-1.1654	-0.0229	-0.0058	-0.0571	25.2806	-7.4491	5.1210	0.3442	-0.6736	0.3243	0.5681
3.35	-9.5914	-0.6079	-1.1582	-0.0185	-0.0132	-0.0567	25.2591	-7.3101	5.3522	0.3440	-0.6736	0.3241	0.5681
3.36	-9.5886	-0.6221	-1.1546	-0.0272	-0.0167	-0.0544	25.5458	-7.2028	5.4812	0.3441	-0.6737	0.3240	0.5682
3.37	-9.6531	-0.6394	-1.1625	-0.0216	-0.0121	-0.0591	25.8199	-7.1030	5.2062	0.3442	-0.6736	0.3241	0.5681
3.38	-9.6657	-0.6338	-1.1602	-0.0222	-0.0309	-0.0612	25.5878	-7.2203	5.1881	0.3443	-0.6735	0.3242	0.5681
3.39	-9.6579	-0.6404	-1.1397	-0.0266	-0.0328	-0.0573	25.5491	-7.4176	5.2583	0.3443	-0.6735	0.3240	0.5682
3.4	-9.6593	-0.6443	-1.1501	-0.0281	-0.0300	-0.0610	25.2620	-7.2273	5.1840	0.3442	-0.6736	0.3238	0.5683
3.41	-9.6087	-0.6359	-1.1471	-0.0269	-0.0403	-0.0558	25.4002	-7.4725	5.1779	0.3442	-0.6736	0.3236	0.5685
3.42	-9.5606	-0.6451	-1.1390	-0.0286	-0.0384	-0.0611	25.5012	-7.6600	5.1711	0.3441	-0.6736	0.3233	0.5686
3.43	-9.5571	-0.6614	-1.1463	-0.0257	-0.0323	-0.0535	25.2924	-7.5087	5.1913	0.3442	-0.6737	0.3230	0.5688
3.44	-9.5635	-0.6477	-1.1451	-0.0264	-0.0270	-0.0434	25.4763	-7.4168	5.1413	0.3441	-0.6737	0.3228	0.5688
3.45	-9.5633	-0.6305	-1.1439	-0.0242	-0.0218	-0.0456	25.5427	-7.5349	5.2787	0.3441	-0.6738	0.3226	0.5690
3.46	-9.5609	-0.6147	-1.1393	-0.0202	-0.0159	-0.0490	25.1321	-7.5410	5.1589	0.3440	-0.6738	0.3224	0.5690
3.47	-9.5811	-0.6196	-1.1480	-0.0258	-0.0106	-0.0614	25.0947	-7.4396	5.2029	0.3440	-0.6739	0.3221	0.5690
3.48	-9.5844	-0.6264	-1.1541	-0.0246	-0.0047	-0.0672	25.0873	-7.4338	5.2801	0.3439	-0.6740	0.3219	0.5691
3.49	-9.5755	-0.6299	-1.1532	-0.0252	-0.0133	-0.0650	25.1571	-7.2352	5.2689	0.3438	-0.6741	0.3217	0.5690
3.5	-9.5874	-0.6291	-1.1521	-0.0235	-0.0145	-0.0593	25.3242	-7.5119	5.1439	0.3438	-0.6743	0.3215	0.5692
3.51	-9.5910	-0.6182	-1.1519	-0.0264	-0.0079	-0.0632	25.2019	-7.2417	5.0718	0.3437	-0.6743	0.3213	0.5692
3.52	-9.5993	-0.6165	-1.1513	-0.0280	-0.0180	-0.0608	25.2390	-7.2108	5.0491	0.3436	-0.6744	0.3211	0.5693
3.53	-9.5788	-0.6135	-1.1532	-0.0265	-0.0137	-0.0655	25.3726	-7.4111	5.2133	0.3435	-0.6744	0.3208	0.5693
3.54	-9.5731	-0.6247	-1.1530	-0.0294	-0.0076	-0.0622	25.2652	-7.3178	4.9815	0.3435	-0.6746	0.3206	0.5693
3.55	-9.5803	-0.6325	-1.1616	-0.0282	-0.0117	-0.0595	25.2523	-7.2830	5.1051	0.3434	-0.6747	0.3204	0.5694
3.56	-9.5883	-0.6328	-1.1592	-0.0320	-0.0133	-0.0651	25.3813	-7.2404	5.1284	0.3433	-0.6748	0.3202	0.5694
3.57	-9.6047	-0.6450	-1.1682	-0.0337	-0.0095	-0.0663	25.2329	-7.5148	4.9572	0.3432	-0.6750	0.3199	0.5695
3.58	-9.6269	-0.6513	-1.1649	-0.0348	-0.0092	-0.0673	25.3584	-7.4904	5.2677	0.3431	-0.6751	0.3197	0.5695
3.59	-9.6337	-0.6577	-1.1671	-0.0394	-0.0160	-0.0686	25.4538	-7.2927	5.0545	0.3430	-0.6752	0.3194	0.5696
3.6	-9.6292	-0.6684	-1.1738	-0.0377	-0.0094	-0.0686	25.2192	-7.5045	5.1762	0.3429	-0.6753	0.3191	0.5696
3.61	-9.6305	-0.6826	-1.1783	-0.0423	-0.0154	-0.0639	25.4276	-7.1898	5.1774	0.3428	-0.6755	0.3189	0.5697
3.62	-9.6349	-0.6877	-1.1840	-0.0346	-0.0198	-0.0605	25.1171	-7.4039	5.1426	0.3427	-0.6755	0.3186	0.5698
3.63	-9.5820	-0.6878	-1.1838	-0.0298	-0.0184	-0.0557	25.1462	-7.4417	4.9718	0.3426	-0.6756	0.3184	0.5699
3.64	-9.5724	-0.6935	-1.1608	-0.0286	-0.0261	-0.0560	25.3002	-7.1181	5.0816	0.3425	-0.6757	0.3181	0.5700
3.65	-9.6988	-0.6912	-1.1778	-0.0275	-0.0109	-0.0568	25.3906	-7.3974	5.0824	0.3425	-0.6758	0.3179	0.5701
3.66	-9.6364	-0.6760	-1.1785	-0.0272	-0.0277	-0.0581	25.3031	-7.4293	5.0753	0.3424	-0.6758	0.3177	0.5702
3.67	-9.5402	-0.6907	-1.1457	-0.0269	-0.0353	-0.0666	25.2526	-7.2602	5.0862	0.3424	-0.6758	0.3174	0.5702
3.68	-9.5817	-0.7121	-1.1695	-0.0275	-0.0158	-0.0649	25.2977	-7.2805	5.0591	0.3424	-0.6760	0.3171	0.5703
3.69	-9.5955	-0.7081	-1.1721	-0.0232	-0.0193	-0.0633	25.3877	-7.1393	5.1184	0.3423	-0.6760	0.3169	0.5704
3.7	-9.5779	-0.7009	-1.1568	-0.0233	-0.0176	-0.0537	25.0814	-7.2886	5.2019	0.3423	-0.6762	0.3167	0.5705
3.71	-9.5696	-0.6826	-1.1566	-0.0261	-0.0200	-0.0476	25.1921	-7.1903	5.0551	0.3422	-0.6761	0.3164	0.5705
3.72	-9.6059	-0.6632	-1.1499	-0.0232	-0.0150	-0.0497	25.4160	-7.1800	5.0885	0.3422	-0.6763	0.3163	0.5706
3.73	-9.6110	-0.6531	-1.1562	-0.0154	-0.0204	-0.0555	25.3120	-7.4085	5.2454	0.3421	-0.6763	0.3161	0.5707
3.74	-9.5788	-0.6605	-1.1508	-0.0197	-0.0170	-0.0586	25.1719	-7.4889	4.9598	0.3421	-0.6763	0.3159	0.5707
3.75	-9.5891	-0.6737	-1.1489	-0.0129	-0.0119	-0.0611	25.1983	-7.3292	5.1204	0.3421	-0.6765	0.3157	0.5708
3.76	-9.6008	-0.6660	-1.1586	-0.0174	-0.0192	-0.0587	25.4475	-7.3988	5.4449	0.3420	-0.6765	0.3155	0.5708
3.77	-9.5947	-0.6560	-1.1547	-0.0188	-0.0115	-0.0589	25.4583	-7.2839	4.9948	0.3420	-0.6766	0.3153	0.5709
3.78	-9.5825	-0.6563	-1.1543	-0.0185	-0.0140	-0.0499	25.4445	-7.2712	4.9751	0.3419	-0.6765	0.3152	0.5709
3.79	-9.5956	-0.6531	-1.1575	-0.0242	-0.0131	-0.0467	25.4671	-7.4951	5.0021	0.3418	-0.6767	0.3150	0.5710
3.8	-9.5897	-0.6503	-1.1617	-0.0283	-0.0182	-0.0476	25.4124	-7.4367	5.1615	0.3417	-0.6767	0.3149	0.5711
3.81	-9.5991	-0.6508	-1.1602	-0.0269	-0.0122	-0.0488	25.2747	-7.4184	5.1307	0.3416	-0.6767	0.3147	0.5712
3.82	-9.6283	-0.6544	-1.1649	-0.0284	-0.0116	-0.0476	25.2609	-7.2102	4.9171	0.3415	-0.6768	0.3146	0.5713
3.83	-9.6434	-0.6639	-1.1657	-0.0274	-0.0181	-0.0396	25.3141	-7.3812	5.0845	0.3414	-0.6768	0.3144	0.5714
3.84	-9.6299	-0.6777	-1.1524	-0.0265	-0.0222	-0.0427	25.3658	-7.2323	4.9719	0.3414	-0.6768	0.3143	0.5715
3.85	-9.6319	-0.6842	-1.1473	-0.0276	-0.0200	-0.0482	25.0321	-7.1701	5.1687	0.3412	-0.6768	0.3141	0.5716
3.86	-9.6463	-0.6904	-1.1553	-0.0273	-0.0236	-0.0478	25.4818	-7.4935	5.2604	0.3412	-0.6769	0.3140	0.5718
3.87	-9.6281	-0.6890	-1.1462	-0.0275	-0.0346	-0.0421	25.6893	-7.3073	5.1819	0.3411	-0.6768	0.3138	0.5719
3.88	-9.6139	-0.6928	-1.1397	-0.0277	-0.0294	-0.0446	25.5656	-7.1284	5.2897	0.3411	-0.6768	0.3136	0.5721
3.89	-9.6196	-0.6921	-1.1414	-0.0253	-0.0358	-0.0397	25.5270	-6.9412	5.0645	0.3411	-0.6766	0.3137	0.5721
3.9	-9.6112	-0.6820	-1.1347	-0.0183	-0.0308	-0.0435	25.2210	-7.1798	5.1913	0.3411	-0.6766	0.3135	0.5723
3.91	-9.5947	-0.6761	-1.1194	-0.0185	-0.0305	-0.0412	25.2569	-7.2651	5.0939	0.3411	-0.6766	0.3134	0.5724
3.92	-9.6005	-0.6756	-1.1145	-0.0056	-0.0314	-0.0443	25.2707	-7.2142	5.0883	0.3411	-0.6765	0.3133	0.5725
3.93	-9.6011	-0.6621	-1.1145	-0.0009	-0.0289	-0.0425	25.3973	-7.5391	4.9499	0.3411	-0.6765	0.3133	0.5727
3.94	-9.5946	-0.6601	-1.1063	-0.0033	-0.0326	-0.0371	25.5963	-7.5351	4.9236	0.3411	-0.6763	0.3132	0.5728
3.95	-9.6016	-0.6587	-1.0954	-0.0026	-0.0333	-0.0377	25.4949	-7.4381	5.0305	0.3412	-0.6763	0.3131	0.5730
3.96	-9.5932	-0.6421	-1.0999	0.0007	-0.0251	-0.0355	25.6674	-7.6566	4.9716	0.3411	-0.6761	0.3130	0.5731
3.97	-9.5726	-0.6371	-1.0885	0.0038	-0.0300	-0.0364	25.5809	-7.4627	4.8970	0.3412	-0.6761	0.3130	0.5732
3.98	-9.5681	-0.6243	-1.0875	0.0076	-0.0260	-0.0366	25.3562	-7.5743	4.8963	0.3413	-0.6760	0.3129	0.5733
3.99	-9.5783	-0.6164	-1.0802	0.0033	-0.0235	-0.0367	25.3558	-7.4024	4.9019	0.3413	-0.6759	0.3128	0.5733
4	-9.5932	-0.6031	-1.0788	0.0032	-0.0241	-0.0339	25.4660	-7.5632	4.9893	0.3414	-0.6759	0.3128	0.5735
4.01	-9.5911	-0.5928	-1.0767	-0.0034	-0.0208	-0.0387	25.5834	-7.5986	5.0283	0.3414	-0.6757	0.3128	0.5736
4.02	-9.6003	-0.5934	-1.0791	-0.0024	-0.0130	-0.0407	25.4547	-7.6813	4.8977	0.3414	-0.6758	0.3127	0.5737
4.03	-9.6063	-0.5866	-1.0838	-0.0013	-0.0173	-0.0399	25.4511	-7.6321	5.0052	0.3413	-0.6756	0.3127	0.5737
4.04	-9.6090	-0.5832	-1.0814	-0.0032	-0.0171	-0.0473	25.4392	-7.4643	5.0800	0.3414	-0.6756	0.3126	0.5738
4.05	-9.6138	-0.5848	-1.0720	-0.0043	-0.0127	-0.0432	25.4876	-7.4265	4.9764	0.3414	-0.6756	0.3126	0.5739
4.06	-9.6239	-0.5790	-1.0734	-0.0038	-0.0168	-0.0424	25.2936	-7.4390	5.2397	0.3414	-0.6755	0.3125	0.5740
4.07	-9.6363	-0.5749	-1.0707	-0.0181	-0.0197	-0.0491	25.2512	-7.3414	4.9227	0.3414	-0.6755	0.3124	0.5741
4.08	-9.6231	-0.5807	-1.0663	-0.0208	-0.0202	-0.0491	25.4358	-7.3342	4.9224	0.3413	-0.6755	0.3123	0.5742
4.09	-9.6178	-0.5856	-1.0665	-0.0244	-0.0200	-0.0538	25.4529	-7.1609	5.0444	0.3413	-0.6755	0.3121	0.5743
4.1	-9.6245	-0.5854	-1.0653	-0.0227	-0.0208	-0.0487	25.4673	-7.2372	5.2097	0.3412	-0.6754	0.3119	0.5744
4.11	-9.6069	-0.5886	-1.0651	-0.0255	-0.0209	-0.0459	25.3173	-7.3953	4.8959	0.3412	-0.6755	0.3118	0.5746
4.12	-9.5883	-0.5932	-1.0589	-0.0249	-0.0204	-0.0493	25.2912	-7.4333	4.8137	0.3411	-0.6755	0.3117	0.5746
4.13	-9.5848	-0.5958	-1.0597	-0.0281	-0.0193	-0.0562	25.7297	-7.4795	4.9623	0.3412	-0.6755	0.3115	0.5747
4.14	-9.5763	-0.5941	-1.0659	-0.0264	-0.0138	-0.0594	25.8014	-7.7246	4.7603	0.3412	-0.6755	0.3112	0.5748
4.15	-9.5647	-0.5969	-1.0613	-0.0265	-0.0140	-0.0503	25.5803	-7.6816	5.0077	0.3411	-0.6756	0.3110	0.5749
4.16	-9.5668	-0.5987	-1.0668	-0.0280	-0.0125	-0.0540	25.6620	-7.5092	4.9202	0.3411	-0.6756	0.3109	0.5750
4.17	-9.5754	-0.5930	-1.0680	-0.0274	-0.0065	-0.0604	25.5429	-7.5999	4.9033	0.3411	-0.6756	0.3106	0.5749
4.18	-9.5658	-0.5940	-1.0677	-0.0278	-0.0068	-0.0578	25.4202	-7.7134	4.9908	0.3411	-0.6758	0.3104	0.5751
4.19	-9.5623	-0.5953	-1.0685	-0.0277	-0.0050	-0.0571	25.4977	-7.6916	4.7417	0.3411	-0.6758	0.3102	0.5751
4.2	-9.5922	-0.6024	-1.0818	-0.0265	0.0013	-0.0565	25.5622	-7.4362	4.9046	0.3411	-0.6759	0.3101	0.5751
4.21	-9.5975	-0.6073	-1.0879	-0.0282	-0.0040	-0.0598	25.5306	-7.4432	4.8979	0.3411	-0.6759	0.3098	0.5751
4.22	-9.6029	-0.6169	-1.0927	-0.0271	-0.0008	-0.0581	25.4285	-7.3952	5.1357	0.3411	-0.6760	0.3097	0.5751
4.23	-9.6085	-0.6161	-1.0986	-0.0284	-0.0008	-0.0596	25.2898	-7.3520	4.8311	0.3410	-0.6761	0.3095	0.5752
4.24	-9.6219	-0.6097	-1.1052	-0.0250	0.0039	-0.0572	25.2634	-7.2524	4.7762	0.3409	-0.6761	0.3093	0.5752
4.25	-9.6303	-0.6036	-1.1184	-0.0275	-0.0034	-0.0578	25.2848	-7.3788	4.9278	0.3409	-0.6763	0.3092	0.5753
4.26	-9.6051	-0.6027	-1.1073	-0.0322	-0.0008	-0.0688	25.2602	-7.4181	5.0144	0.3408	-0.6763	0.3090	0.5753
4.27	-9.6625	-0.6170	-1.1084	-0.0285	0.0074	-0.0711	25.3142	-7.3151	4.9341	0.3408	-0.6765	0.3088	0.5753
4.28	-9.6983	-0.6361	-1.1270	-0.0291	-0.0003	-0.0647	25.5739	-7.3514	4.7760	0.3407	-0.6764	0.3086	0.5753
4.29	-9.6816	-0.6433	-1.1148	-0.0268	-0.0129	-0.0627	25.2853	-7.5759	4.8439	0.3407	-0.6765	0.3085	0.5754
4.3	-9.6883	-0.6515	-1.1165	-0.0284	-0.0115	-0.0581	25.2964	-7.4427	4.9155	0.3407	-0.6766	0.3083	0.5755
4.31	-9.6764	-0.6510	-1.1121	-0.0269	-0.0191	-0.0557	25.5007	-7.4916	4.8893	0.3406	-0.6766	0.3081	0.5756
4.32	-9.5975	-0.6577	-1.1149	-0.0281	-0.0264	-0.0571	25.8742	-7.6239	5.0022	0.3406	-0.6766	0.3080	0.5757
4.33	-9.5366	-0.6801	-1.0987	-0.0268	-0.0320	-0.0571	25.5955	-7.8679	5.0224	0.3406	-0.6765	0.3077	0.5758
4.34	-9.5871	-0.6982	-1.1028	-0.0287	-0.0213	-0.0521	25.5406	-7.6131	4.9268	0.3406	-0.6766	0.3075	0.5760
4.35	-9.6049	-0.6849	-1.1123	-0.0253	-0.0265	-0.0375	25.4328	-7.6923	4.8853	0.3405	-0.6765	0.3074	0.5761
4.36	-9.5612	-0.6718	-1.0922	-0.0259	-0.0266	-0.0417	25.6942	-7.7873	5.1405	0.3405	-0.6765	0.3073	0.5763
4.37	-9.5791	-0.6623	-1.0939	-0.0235	-0.0172	-0.0370	26.0093	-7.3305	5.2217	0.3404	-0.6765	0.3071	0.5764
4.38	-9.5972	-0.6593	-1.1090	-0.0112	-0.0185	-0.0419	25.6852	-7.3626	5.0332	0.3404	-0.6764	0.3071	0.5765
4.39	-9.5731	-0.6571	-1.0970	-0.0175	-0.0185	-0.0438	25.4349	-7.3300	5.0305	0.3403	-0.6764	0.3069	0.5766
4.4	-9.5769	-0.6521	-1.0975	-0.0070	-0.0169	-0.0384	25.3396	-7.6062	5.0169	0.3404	-0.6764	0.3068	0.5767
4.41	-9.6032	-0.6384	-1.0998	-0.0054	-0.0108	-0.0410	25.1225	-7.4277	4.8437	0.3403	-0.6763	0.3068	0.5767
4.42	-9.5991	-0.6156	-1.1000	-0.0046	-0.0178	-0.0445	25.1165	-7.2224	5.0162	0.3403	-0.6762	0.3067	0.5768
4.43	-9.5980	-0.5951	-1.0956	-0.0007	-0.0167	-0.0404	25.2265	-7.3826	4.9773	0.3403	-0.6763	0.3067	0.5770
4.44	-9.6076	-0.5839	-1.0967	-0.0024	-0.0107	-0.0415	25.1949	-7.3186	4.7124	0.3403	-0.6762	0.3067	0.5770
4.45	-9.5929	-0.5766	-1.0925	-0.0013	-0.0195	-0.0420	25.2613	-7.4209	5.0110	0.3403	-0.6762	0.3067	0.5771
4.46	-9.5982	-0.5717	-1.0965	-0.0120	-0.0045	-0.0459	25.4247	-7.4495	4.8963	0.3402	-0.6761	0.3066	0.5771
4.47	-9.6080	-0.5712	-1.1009	-0.0141	-0.0089	-0.0448	25.2169	-7.4101	4.6808	0.3402	-0.6761	0.3065	0.5772
4.48	-9.6127	-0.5608	-1.0976	-0.0174	-0.0148	-0.0525	25.2650	-7.3135	4.9164	0.3401	-0.6761	0.3064	0.5773
4.49	-9.6193	-0.5652	-1.1006	-0.0190	-0.0129	-0.0441	25.2989	-7.4258	4.8988	0.3400	-0.6761	0.3063	0.5774
4.5	-9.6131	-0.5677	-1.1014	-0.0253	-0.0118	-0.0460	25.4088	-7.5472	4.8185	0.3400	-0.6762	0.3063	0.5776
4.51	-9.6111	-0.5725	-1.1009	-0.0251	-0.0135	-0.0513	25.3445	-7.4961	4.6494	0.3399	-0.6761	0.3061	0.5776
4.52	-9.6325	-0.5803	-1.1101	-0.0277	-0.0063	-0.0546	25.2771	-7.5975	4.8922	0.3398	-0.6762	0.3060	0.5777
4.53	-9.6300	-0.5803	-1.1066	-0.0280	-0.0120	-0.0521	25.3086	-7.6146	4.9169	0.3397	-0.6761	0.3058	0.5778
4.54	-9.6111	-0.5811	-1.1112	-0.0281	-0.0183	-0.0545	25.1735	-7.6149	4.6890	0.3397	-0.6762	0.3057	0.5779
4.55	-9.5647	-0.5782	-1.1007	-0.0272	-0.0162	-0.0553	25.2505	-7.2478	5.0679	0.3397	-0.6762	0.3055	0.5780
4.56	-9.6474	-0.5933	-1.0925	-0.0275	-0.0153	-0.0571	25.3980	-7.3919	4.8061	0.3396	-0.6762	0.3053	0.5781
4.57	-9.6954	-0.5845	-1.1276	-0.0292	-0.0155	-0.0626	25.3735	-7.6492	4.8214	0.3395	-0.6763	0.3052	0.5782
4.58	-9.5674	-0.5879	-1.0896	-0.0311	-0.0321	-0.0698	25.2747	-7.4659	4.9387	0.3395	-0.6762	0.3049	0.5783
4.59	-9.5799	-0.6243	-1.0789	-0.0324	-0.0164	-0.0739	25.0940	-7.3704	4.8752	0.3396	-0.6763	0.3047	0.5784
4.6	-9.6504	-0.6329	-1.1092	-0.0263	-0.0131	-0.0681	25.2953	-7.3337	4.9406	0.3395	-0.6763	0.3045	0.5784
4.61	-9.6287	-0.6337	-1.0938	-0.0393	-0.0200	-0.0579	25.4065	-7.3515	4.7348	0.3394	-0.6764	0.3043	0.5786
4.62	-9.5735	-0.6285	-1.0874	-0.0357	-0.0220	-0.0583	25.2218	-7.3616	4.7877	0.3393	-0.6764	0.3041	0.5787
4.63	-9.5966	-0.6177	-1.0812	-0.0296	-0.0167	-0.0584	25.1855	-7.5541	5.0387	0.3393	-0.6764	0.3039	0.5788
4.64	-9.6339	-0.6132	-1.0914	-0.0337	-0.0134	-0.0675	25.3299	-7.4089	4.8855	0.3392	-0.6764	0.3037	0.5789
4.65	-9.6300	-0.6267	-1.0824	-0.0298	-0.0181	-0.0687	25.1230	-7.2193	4.8977	0.3392	-0.6765	0.3035	0.5790
4.66	-9.6202	-0.6457	-1.0798	-0.0304	-0.0198	-0.0765	25.2041	-7.2848	4.9364	0.3392	-0.6765	0.3033	0.5791
4.67	-9.6280	-0.6493	-1.0879	-0.0366	-0.0193	-0.0706	25.4981	-7.2256	5.1101	0.3391	-0.6765	0.3030	0.5791
4.68	-9.6218	-0.6518	-1.0815	-0.0327	-0.0302	-0.0733	25.4802	-7.3916	5.0691	0.3391	-0.6766	0.3029	0.5794
4.69	-9.6101	-0.6535	-1.0782	-0.0311	-0.0286	-0.0704	25.6023	-7.5738	4.9739	0.3390	-0.6765	0.3026	0.5795
4.7	-9.5942	-0.6642	-1.0780	-0.0369	-0.0302	-0.0689	25.5026	-7.4317	5.0307	0.3390	-0.6766	0.3024	0.5797
4.71	-9.5853	-0.6646	-1.0719	-0.0410	-0.0299	-0.0665	25.3598	-7.4335	4.8766	0.3390	-0.6765	0.3021	0.5797
4.72	-9.5988	-0.6690	-1.0774	-0.0537	-0.0271	-0.0691	25.4220	-7.4307	4.9434	0.3389	-0.6766	0.3018	0.5799
4.73	-9.6058	-0.6730	-1.0709	-0.0447	-0.0236	-0.0678	25.4910	-7.4547	5.0030	0.3388	-0.6766	0.3016	0.5800
4.74	-9.6073	-0.6803	-1.0678	-0.0454	-0.0283	-0.0613	25.4775	-7.6530	4.6949	0.3386	-0.6766	0.3013	0.5802
4.75	-9.6194	-0.6955	-1.0649	-0.0468	-0.0320	-0.0666	25.3674	-7.4678	4.8484	0.3386	-0.6767	0.3011	0.5804
4.76	-9.6111	-0.7062	-1.0712	-0.0413	-0.0263	-0.0658	25.2768	-7.1896	4.7612	0.3385	-0.6767	0.3009	0.5805
4.77	-9.5966	-0.7136	-1.0611	-0.0382	-0.0285	-0.0568	25.3131	-7.3442	4.6953	0.3384	-0.6767	0.3007	0.5807
4.78	-9.6064	-0.7221	-1.0607	-0.0333	-0.0253	-0.0572	25.2786	-7.3701	4.7330	0.3383	-0.6766	0.3005	0.5808
4.79	-9.6054	-0.7259	-1.0664	-0.0311	-0.0266	-0.0549	25.4365	-7.1909	4.8135	0.3382	-0.6767	0.3004	0.5810
4.8	-9.5935	-0.7209	-1.0589	-0.0317	-0.0333	-0.0434	25.3010	-7.3981	4.6493	0.3381	-0.6766	0.3002	0.5812
4.81	-9.5985	-0.7217	-1.0530	-0.0227	-0.0278	-0.0480	25.0643	-7.3788	4.9040	0.3380	-0.6765	0.3001	0.5813
4.82	-9.5972	-0.7180	-1.0467	-0.0216	-0.0250	-0.0431	25.3564	-7.3378	4.8971	0.3379	-0.6765	0.3000	0.5815
4.83	-9.5744	-0.7122	-1.0425	-0.0212	-0.0253	-0.0439	25.3659	-7.1992	5.0570	0.3379	-0.6765	0.2999	0.5816
4.84	-9.5662	-0.7071	-1.0369	-0.0134	-0.0202	-0.0429	25.2600	-7.4123	4.8467	0.3379	-0.6765	0.2998	0.5817
4.85	-9.5672	-0.6951	-1.0396	-0.0124	-0.0174	-0.0361	25.3846	-7.3677	4.7919	0.3379	-0.6764	0.2996	0.5818
4.86	-9.5682	-0.6808	-1.0373	-0.0024	-0.0132	-0.0353	25.6160	-7.2301	4.9248	0.3379	-0.6764	0.2996	0.5819
4.87	-9.5612	-0.6608	-1.0335	0.0015	-0.0164	-0.0363	25.8406	-7.2556	4.9067	0.3379	-0.6763	0.2996	0.5819
4.88	-9.5615	-0.6522	-1.0276	0.0030	-0.0114	-0.0306	25.7827	-7.3172	4.8446	0.3379	-0.6763	0.2996	0.5820
4.89	-9.5920	-0.6370	-1.0409	0.0016	-0.0110	-0.0296	25.5776	-7.6280	4.6955	0.3379	-0.6762	0.2995	0.5821
4.9	-9.5911	-0.6230	-1.0440	0.0046	-0.0121	-0.0308	25.4047	-7.6012	4.6637	0.3379	-0.6762	0.2995	0.5821
4.91	-9.5971	-0.6043	-1.0411	0.0054	-0.0103	-0.0309	25.4982	-7.4931	4.6384	0.3379	-0.6761	0.2995	0.5822
4.92	-9.6189	-0.5870	-1.0479	0.0052	-0.0056	-0.0309	25.5419	-7.5936	4.9563	0.3379	-0.6760	0.2995	0.5822
4.93	-9.6285	-0.5898	-1.0546	-0.0006	-0.0081	-0.0304	25.3733	-7.6042	4.7619	0.3379	-0.6761	0.2996	0.5823
4.94	-9.6489	-0.5832	-1.0592	-0.0022	-0.0048	-0.0299	25.5024	-7.4456	4.6038	0.3377	-0.6760	0.2996	0.5824
4.95	-9.6594	-0.5732	-1.0556	-0.0014	-0.0111	-0.0302	25.4589	-7.6401	4.8779	0.3377	-0.6760	0.2997	0.5825
4.96	-9.6593	-0.5703	-1.0625	-0.0028	-0.0110	-0.0302	25.3264	-7.3831	4.6696	0.3375	-0.6758	0.2997	0.5826
4.97	-9.6668	-0.5698	-1.0531	-0.0046	-0.0118	-0.0301	25.3152	-7.3625	4.7941	0.3375	-0.6758	0.2998	0.5827
4.98	-9.6753	-0.5636	-1.0580	-0.0097	-0.0193	-0.0306	25.2338	-7.4190	4.7470	0.3374	-0.6758	0.2998	0.5828
4.99	-9.6609	-0.5625	-1.0503	-0.0173	-0.0219	-0.0317	25.5487	-7.5205	4.7909	0.3372	-0.6757	0.2997	0.5829
5	-9.6291	-0.5692	-1.0410	-0.0149	-0.0225	-0.0315	25.3935	-7.3789	4.9273	0.3371	-0.6757	0.2998	0.5832
5.01	-9.6129	-0.5677	-1.0365	-0.0155	-0.0235	-0.0312	25.3209	-7.3695	4.7717	0.3370	-0.6756	0.2997	0.5833
5.02	-9.6061	-0.5654	-1.0376	-0.0241	-0.0220	-0.0329	25.3472	-7.4188	4.8411	0.3369	-0.6756	0.2997	0.5835
5.03	-9.5838	-0.5593	-1.0291	-0.0149	-0.0223	-0.0340	25.3185	-7.5277	4.7961	0.3368	-0.6754	0.2996	0.5835
5.04	-9.5832	-0.5522	-1.0148	-0.0070	-0.0217	-0.0360	25.4693	-7.5680	4.8463	0.3368	-0.6754	0.2995	0.5837
5.05	-9.5932	-0.5478	-1.0107	-0.0071	-0.0179	-0.0364	25.3522	-7.3864	4.7486	0.3368	-0.6754	0.2995	0.5838
5.06	-9.6006	-0.5395	-1.0088	-0.0054	-0.0152	-0.0457	25.3723	-7.7013	4.4156	0.3368	-0.6753	0.2994	0.5838
5.07	-9.5897	-0.5356	-1.0018	-0.0086	-0.0145	-0.0517	25.6546	-7.7910	4.5791	0.3368	-0.6754	0.2993	0.5839
5.08	-9.5687	-0.5321	-1.0012	-0.0147	-0.0086	-0.0465	25.6814	-7.5941	4.9275	0.3368	-0.6754	0.2991	0.5839
5.09	-9.5622	-0.5282	-1.0115	-0.0262	-0.0157	-0.0552	25.5137	-7.4870	4.8852	0.3368	-0.6754	0.2990	0.5840
5.1	-9.5615	-0.5224	-1.0047	-0.0272	-0.0073	-0.0585	25.5162	-7.8429	5.0246	0.3367	-0.6754	0.2987	0.5840
5.11	-9.5837	-0.5271	-1.0126	-0.0271	-0.0018	-0.0614	25.3951	-7.5872	4.8818	0.3367	-0.6755	0.2986	0.5841
5.12	-9.5985	-0.5351	-1.0252	-0.0282	0.0065	-0.0645	25.3116	-7.5391	4.6093	0.3367	-0.6756	0.2984	0.5841
5.13	-9.5992	-0.5403	-1.0261	-0.0298	-0.0011	-0.0602	25.6387	-7.6169	4.7246	0.3367	-0.6757	0.2982	0.5841
5.14	-9.6247	-0.5497	-1.0344	-0.0388	0.0027	-0.0691	25.4668	-7.5984	4.7292	0.3366	-0.6758	0.2980	0.5841
5.15	-9.6369	-0.5593	-1.0513	-0.0453	-0.0028	-0.0672	25.5895	-7.5711	4.6105	0.3365	-0.6759	0.2977	0.5841
5.16	-9.6044	-0.5687	-1.0486	-0.0454	-0.0044	-0.0670	25.5065	-7.4866	4.8516	0.3364	-0.6760	0.2976	0.5842
5.17	-9.6350	-0.6047	-1.0514	-0.0562	-0.0013	-0.0672	25.3137	-7.5166	4.7091	0.3362	-0.6761	0.2973	0.5843
5.18	-9.6336	-0.6058	-1.0669	-0.0491	-0.0036	-0.0655	25.3223	-7.5185	4.7481	0.3360	-0.6763	0.2972	0.5844
5.19	-9.6434	-0.6113	-1.0468	-0.0468	-0.0030	-0.0636	25.3969	-7.4757	4.6751	0.3358	-0.6763	0.2970	0.5845
5.2	-9.6501	-0.6494	-1.0834	-0.0476	-0.0038	-0.0580	25.3772	-7.3845	4.8925	0.3357	-0.6765	0.2969	0.5846
5.21	-9.5902	-0.6471	-1.0576	-0.0434	-0.0129	-0.0612	25.2349	-7.5375	4.8336	0.3355	-0.6764	0.2966	0.5846
5.22	-9.6368	-0.6642	-1.0638	-0.0393	-0.0048	-0.0538	25.3394	-7.3731	4.5556	0.3353	-0.6765	0.2966	0.5848
5.23	-9.5983	-0.6713	-1.0873	-0.0287	-0.0096	-0.0506	25.3954	-7.4973	4.9146	0.3352	-0.6766	0.2964	0.5848
5.24	-9.5914	-0.6580	-1.0527	-0.0279	-0.0151	-0.0435	25.4128	-7.5073	4.8340	0.3351	-0.6765	0.2963	0.5849
5.25	-9.6152	-0.6712	-1.0855	-0.0185	-0.0044	-0.0470	25.5622	-7.5207	4.7052	0.3350	-0.6766	0.2963	0.5851
5.26	-9.5946	-0.6672	-1.0696	-0.0202	-0.0125	-0.0385	25.5569	-7.6179	4.8827	0.3348	-0.6766	0.2963	0.5851
5.27	-9.6267	-0.6580	-1.0654	-0.0157	-0.0093	-0.0403	25.5623	-7.5883	4.7205	0.3347	-0.6766	0.2963	0.5853
5.28	-9.6622	-0.6463	-1.0747	-0.0031	-0.0048	-0.0376	25.6119	-7.5984	4.7407	0.3345	-0.6765	0.2963	0.5852
5.29	-9.6443	-0.6100	-1.0728	-0.0020	-0.0087	-0.0365	25.6191	-7.6001	4.8169	0.3345	-0.6765	0.2964	0.5854
5.3	-9.6169	-0.5932	-1.0669	-0.0014	-0.0133	-0.0378	25.5211	-7.5795	4.6914	0.3344	-0.6765	0.2964	0.5855
5.31	-9.6284	-0.5783	-1.0685	-0.0023	-0.0086	-0.0305	25.3061	-7.6845	4.7621	0.3342	-0.6764	0.2964	0.5855
5.32	-9.6147	-0.5440	-1.0623	-0.0024	-0.0163	-0.0368	25.3386	-7.5989	4.5993	0.3342	-0.6764	0.2965	0.5857
5.33	-9.6135	-0.5550	-1.0424	-0.0015	-0.0197	-0.0455	25.4867	-7.5874	4.6783	0.3341	-0.6763	0.2965	0.5857
5.34	-9.6448	-0.5715	-1.0636	-0.0022	-0.0141	-0.0428	25.4867	-7.4063	4.7576	0.3340	-0.6763	0.2965	0.5858
5.35	-9.6594	-0.5567	-1.0440	-0.0009	-0.0195	-0.0468	25.2911	-7.5149	4.6159	0.3339	-0.6761	0.2965	0.5859
5.36	-9.6528	-0.5383	-1.0451	-0.0024	-0.0128	-0.0492	25.5866	-7.5049	4.7546	0.3339	-0.6762	0.2965	0.5860
5.37	-9.5916	-0.5425	-1.0451	-0.0154	-0.0192	-0.0498	25.7526	-7.3526	5.2049	0.3338	-0.6761	0.2964	0.5861
5.38	-9.5547	-0.5533	-1.0353	-0.0131	-0.0208	-0.0544	25.5661	-7.2961	5.0499	0.3339	-0.6762	0.2963	0.5862
5.39	-9.5707	-0.5622	-1.0503	-0.0118	-0.0128	-0.0490	25.4570	-7.2893	4.9094	0.3339	-0.6761	0.2962	0.5862
5.4	-9.5845	-0.5512	-1.0474	-0.0143	-0.0159	-0.0471	25.3555	-7.5794	4.8048	0.3339	-0.6761	0.2961	0.5863
5.41	-9.5779	-0.5376	-1.0422	-0.0121	-0.0072	-0.0450	25.3159	-7.5524	4.7254	0.3339	-0.6762	0.2960	0.5863
5.42	-9.6005	-0.5246	-1.0562	-0.0243	0.0004	-0.0529	25.2158	-7.5342	4.9718	0.3337	-0.6761	0.2959	0.5863
5.43	-9.6027	-0.5108	-1.0602	-0.0232	-0.0027	-0.0552	25.2114	-7.4429	4.7380	0.3336	-0.6763	0.2958	0.5864
5.44	-9.5905	-0.5201	-1.0548	-0.0250	-0.0099	-0.0646	25.3573	-7.6015	4.6283	0.3336	-0.6763	0.2956	0.5864
5.45	-9.5929	-0.5394	-1.0545	-0.0276	-0.0114	-0.0688	25.4640	-7.6531	4.8520	0.3336	-0.6764	0.2954	0.5865
5.46	-9.5989	-0.5401	-1.0488	-0.0267	-0.0052	-0.0692	25.4949	-7.5079	4.7134	0.3335	-0.6764	0.2953	0.5865
5.47	-9.6118	-0.5406	-1.0585	-0.0275	-0.0052	-0.0739	25.4610	-7.6941	4.7326	0.3334	-0.6765	0.2951	0.5866
5.48	-9.6049	-0.5497	-1.0636	-0.0376	-0.0052	-0.0785	25.6829	-7.6715	4.7338	0.3333	-0.6766	0.2950	0.5866
5.49	-9.6032	-0.5544	-1.0625	-0.0414	-0.0047	-0.0752	25.1994	-7.5965	4.7206	0.3331	-0.6767	0.2948	0.5866
5.5	-9.6043	-0.5642	-1.0664	-0.0507	-0.0053	-0.0798	25.1300	-7.6582	4.7376	0.3330	-0.6769	0.2946	0.5868
5.51	-9.5993	-0.5826	-1.0668	-0.0535	-0.0061	-0.0788	25.4914	-7.5772	4.8548	0.3328	-0.6769	0.2943	0.5868
5.52	-9.6119	-0.6034	-1.0721	-0.0516	-0.0029	-0.0823	25.2799	-7.5141	4.7583	0.3327	-0.6771	0.2941	0.5869
5.53	-9.6215	-0.6211	-1.0747	-0.0536	-0.0072	-0.0802	25.3137	-7.6322	4.6058	0.3325	-0.6772	0.2938	0.5869
5.54	-9.6293	-0.6340	-1.0874	-0.0527	-0.0023	-0.0797	25.2867	-7.6333	4.7916	0.3324	-0.6774	0.2936	0.5870
5.55	-9.6303	-0.6554	-1.0892	-0.0529	0.0003	-0.0789	25.3187	-7.4328	4.7858	0.3322	-0.6775	0.2934	0.5870
5.56	-9.6344	-0.6703	-1.0912	-0.0533	-0.0081	-0.0754	25.2714	-7.5501	4.6681	0.3320	-0.6776	0.2932	0.5871
5.57	-9.6358	-0.6834	-1.0932	-0.0519	-0.0080	-0.0686	25.4322	-7.4221	4.9734	0.3318	-0.6777	0.2930	0.5872
5.58	-9.6357	-0.7010	-1.0932	-0.0492	-0.0141	-0.0682	25.4620	-7.3695	4.8281	0.3316	-0.6778	0.2928	0.5873
5.59	-9.6281	-0.7046	-1.0970	-0.0519	-0.0092	-0.0643	25.3571	-7.4928	4.6612	0.3315	-0.6779	0.2926	0.5874
5.6	-9.6361	-0.7134	-1.0990	-0.0344	-0.0178	-0.0577	25.4266	-7.4105	4.8562	0.3312	-0.6779	0.2925	0.5874
5.61	-9.6029	-0.7048	-1.0998	-0.0254	-0.0129	-0.0580	25.1337	-7.6005	4.7720	0.3312	-0.6780	0.2924	0.5876
5.62	-9.5828	-0.7008	-1.0725	-0.0279	-0.0183	-0.0524	25.1676	-7.4488	4.9097	0.3311	-0.6780	0.2923	0.5876
5.63	-9.6926	-0.7025	-1.0848	-0.0148	-0.0082	-0.0562	25.5141	-7.5260	4.7885	0.3310	-0.6780	0.2922	0.5877
5.64	-9.6533	-0.6804	-1.0876	-0.0079	-0.0240	-0.0542	25.4394	-7.5342	4.4952	0.3309	-0.6779	0.2922	0.5878
5.65	-9.5952	-0.6887	-1.0417	-0.0082	-0.0295	-0.0538	25.5531	-7.5696	4.6982	0.3308	-0.6779	0.2921	0.5879
5.66	-9.6431	-0.6896	-1.0687	-0.0001	-0.0115	-0.0514	25.4786	-7.6197	4.5534	0.3308	-0.6779	0.2922	0.5880
5.67	-9.6317	-0.6754	-1.0597	-0.0033	-0.0277	-0.0380	25.2543	-7.4075	4.5264	0.3307	-0.6778	0.2922	0.5881
5.68	-9.5775	-0.6624	-1.0407	0.0010	-0.0289	-0.0330	25.5346	-7.4953	4.6604	0.3307	-0.6778	0.2921	0.5882
5.69	-9.5926	-0.6349	-1.0388	0.0098	-0.0166	-0.0296	25.2847	-7.5193	4.5985	0.3307	-0.6776	0.2922	0.5883
5.7	-9.6341	-0.6016	-1.0428	0.0049	-0.0229	-0.0322	25.1042	-7.3984	4.4768	0.3306	-0.6776	0.2923	0.5884
5.71	-9.6161	-0.5900	-1.0285	0.0059	-0.0194	-0.0353	25.2229	-7.6695	4.7750	0.3305	-0.6775	0.2923	0.5885
5.72	-9.6106	-0.5936	-1.0248	-0.0022	-0.0248	-0.0424	25.3144	-7.4667	4.7940	0.3304	-0.6774	0.2924	0.5886
5.73	-9.6160	-0.5783	-1.0226	0.0054	-0.0125	-0.0435	25.3112	-7.4886	4.7048	0.3303	-0.6774	0.2924	0.5887
5.74	-9.6126	-0.5591	-1.0176	0.0038	-0.0187	-0.0499	25.2196	-7.5837	4.7279	0.3302	-0.6773	0.2924	0.5887
5.75	-9.6015	-0.5483	-1.0213	-0.0041	-0.0166	-0.0439	25.2053	-7.3956	4.7352	0.3302	-0.6774	0.2925	0.5888
5.76	-9.5931	-0.5394	-1.0142	-0.0063	-0.0251	-0.0499	25.3595	-7.3974	4.8261	0.3302	-0.6773	0.2924	0.5889
5.77	-9.5931	-0.5324	-1.0164	-0.0156	-0.0110	-0.0524	25.2023	-7.6992	4.6075	0.3302	-0.6773	0.2923	0.5890
5.78	-9.5931	-0.5272	-1.0094	-0.0277	-0.0129	-0.0538	25.2269	-7.3355	4.7318	0.3301	-0.6773	0.2921	0.5889
5.79	-9.5922	-0.5360	-1.0146	-0.0272	-0.0208	-0.0519	25.2913	-7.3757	4.7190	0.3301	-0.6774	0.2919	0.5891
5.8	-9.5944	-0.5445	-1.0163	-0.0273	-0.0070	-0.0573	25.1914	-7.5143	4.9101	0.3301	-0.6774	0.2917	0.5891
5.81	-9.6080	-0.5546	-1.0172	-0.0288	-0.0110	-0.0599	25.2053	-7.6099	4.8587	0.3300	-0.6774	0.2916	0.5892
5.82	-9.6093	-0.5714	-1.0193	-0.0333	-0.0114	-0.0596	25.3202	-7.6561	4.5906	0.3298	-0.6775	0.2915	0.5893
5.83	-9.6143	-0.5935	-1.0188	-0.0322	-0.0066	-0.0579	25.4000	-7.5712	4.6777	0.3296	-0.6776	0.2914	0.5893
5.84	-9.6237	-0.6059	-1.0273	-0.0307	-0.0111	-0.0540	25.4267	-7.5662	4.7649	0.3295	-0.6776	0.2914	0.5894
5.85	-9.6101	-0.6217	-1.0216	-0.0491	-0.0147	-0.0532	25.5846	-7.7517	4.6218	0.3292	-0.6776	0.2912	0.5895
5.86	-9.6070	-0.6376	-1.0300	-0.0394	-0.0073	-0.0541	25.6652	-7.4704	4.6534	0.3290	-0.6778	0.2911	0.5896
5.87	-9.6045	-0.6511	-1.0333	-0.0299	-0.0087	-0.0561	25.8268	-7.4455	4.7638	0.3289	-0.6778	0.2910	0.5897
5.88	-9.5921	-0.6555	-1.0346	-0.0329	-0.0114	-0.0499	25.8150	-7.4488	4.6466	0.3287	-0.6779	0.2910	0.5898
5.89	-9.6027	-0.6639	-1.0307	-0.0285	-0.0042	-0.0489	25.6606	-7.4129	4.5873	0.3285	-0.6779	0.2909	0.5898
5.9	-9.6212	-0.6644	-1.0437	-0.0274	-0.0080	-0.0498	25.5292	-7.3565	4.7265	0.3283	-0.6779	0.2909	0.5899
5.91	-9.6071	-0.6602	-1.0386	-0.0241	-0.0090	-0.0421	25.5255	-7.4122	4.8407	0.3281	-0.6780	0.2909	0.5900
5.92	-9.6041	-0.6577	-1.0384	-0.0198	-0.0031	-0.0448	25.1278	-7.4255	4.7138	0.3279	-0.6780	0.2908	0.5900
5.93	-9.6047	-0.6490	-1.0468	-0.0146	-0.0007	-0.0432	25.0785	-7.4353	4.6824	0.3278	-0.6781	0.2909	0.5901
5.94	-9.5925	-0.6409	-1.0497	-0.0052	-0.0037	-0.0450	25.4679	-7.3849	4.9317	0.3277	-0.6781	0.2909	0.5901
5.95	-9.5944	-0.6257	-1.0509	-0.0022	0.0030	-0.0421	25.3453	-7.3049	4.7223	0.3276	-0.6781	0.2910	0.5902
5.96	-9.6021	-0.6048	-1.0523	-0.0019	-0.0068	-0.0400	25.3072	-7.3594	4.7251	0.3274	-0.6781	0.2910	0.5901
5.97	-9.6096	-0.5894	-1.0483	-0.0017	0.0008	-0.0354	25.5009	-7.4208	4.7674	0.3273	-0.6781	0.2911	0.5902
5.98	-9.6090	-0.5762	-1.0537	0.0028	-0.0051	-0.0388	25.4365	-7.4419	4.5835	0.3272	-0.6781	0.2912	0.5902
5.99	-9.6106	-0.5627	-1.0491	0.0007	-0.0042	-0.0360	25.1747	-7.3772	4.9377	0.3270	-0.6780	0.2913	0.5902
6	-9.6247	-0.5518	-1.0505	0.0050	-0.0096	-0.0336	25.5947	-7.6779	4.6882	0.3269	-0.6781	0.2914	0.5904
6.01	-9.6249	-0.5402	-1.0547	-0.0023	-0.0028	-0.0362	25.4244	-7.7477	4.7096	0.3268	-0.6780	0.2915	0.5903
6.02	-9.6276	-0.5351	-1.0468	0.0054	0.0026	-0.0426	25.4825	-7.4701	4.7845	0.3267	-0.6781	0.2916	0.5904
6.03	-9.6355	-0.5280	-1.0541	-0.0021	-0.0011	-0.0440	25.5288	-7.5325	4.8156	0.3265	-0.6780	0.2916	0.5903
6.04	-9.6246	-0.5197	-1.0538	0.0009	-0.0019	-0.0474	25.4938	-7.4922	4.6962	0.3265	-0.6781	0.2917	0.5904
6.05	-9.6223	-0.5157	-1.0532	-0.0063	-0.0046	-0.0530	25.5314	-7.8673	4.7105	0.3264	-0.6781	0.2917	0.5904
6.06	-9.6307	-0.5160	-1.0481	-0.0098	-0.0065	-0.0567	25.4348	-7.4926	4.8044	0.3262	-0.6781	0.2917	0.5904
6.07	-9.6363	-0.5147	-1.0537	-0.0093	-0.0065	-0.0569	25.3133	-7.5458	4.7058	0.3262	-0.6782	0.2917	0.5904
6.08	-9.6245	-0.5189	-1.0498	-0.0143	-0.0040	-0.0640	25.4755	-7.6797	4.5984	0.3261	-0.6783	0.2916	0.5904
6.09	-9.6174	-0.5245	-1.0473	-0.0236	-0.0094	-0.0647	25.3258	-7.3848	4.8516	0.3260	-0.6783	0.2916	0.5905
6.1	-9.6141	-0.5306	-1.0503	-0.0283	-0.0068	-0.0635	25.4134	-7.4376	4.6625	0.3258	-0.6783	0.2914	0.5904
6.11	-9.6051	-0.5317	-1.0510	-0.0264	-0.0038	-0.0670	25.5367	-7.4205	4.8963	0.3257	-0.6785	0.2914	0.5905
6.12	-9.6027	-0.5344	-1.0500	-0.0320	-0.0044	-0.0685	25.3328	-7.4007	4.9499	0.3255	-0.6786	0.2912	0.5905
6.13	-9.6103	-0.5471	-1.0549	-0.0300	-0.0053	-0.0724	25.3423	-7.5159	4.6501	0.3254	-0.6787	0.2911	0.5906
6.14	-9.6005	-0.5541	-1.0513	-0.0303	-0.0028	-0.0746	25.3173	-7.4114	4.8410	0.3253	-0.6788	0.2910	0.5906
6.15	-9.6182	-0.5706	-1.0545	-0.0408	-0.0049	-0.0765	25.2405	-7.3184	5.0284	0.3251	-0.6789	0.2908	0.5906
6.16	-9.6297	-0.5877	-1.0660	-0.0506	-0.0084	-0.0770	25.4236	-7.3261	4.7103	0.3250	-0.6790	0.2906	0.5907
6.17	-9.6087	-0.5952	-1.0603	-0.0446	-0.0129	-0.0696	25.4177	-7.4135	4.8012	0.3248	-0.6791	0.2904	0.5907
6.18	-9.6138	-0.6125	-1.0627	-0.0368	-0.0103	-0.0654	25.5218	-7.5238	4.6936	0.3246	-0.6793	0.2903	0.5908
6.19	-9.6292	-0.6270	-1.0696	-0.0440	-0.0109	-0.0680	25.6664	-7.5227	4.7573	0.3244	-0.6793	0.2901	0.5908
6.2	-9.6196	-0.6349	-1.0670	-0.0457	-0.0102	-0.0710	25.4242	-7.6946	4.8389	0.3243	-0.6795	0.2900	0.5909
6.21	-9.6133	-0.6470	-1.0635	-0.0510	-0.0059	-0.0719	25.5068	-7.6866	4.7814	0.3241	-0.6795	0.2898	0.5909
6.22	-9.6136	-0.6542	-1.0693	-0.0444	-0.0085	-0.0699	25.6220	-7.5571	4.9701	0.3239	-0.6797	0.2896	0.5910
6.23	-9.5990	-0.6589	-1.0671	-0.0267	-0.0068	-0.0695	25.6017	-7.6606	4.9661	0.3238	-0.6798	0.2895	0.5910
6.24	-9.6027	-0.6621	-1.0670	-0.0323	-0.0110	-0.0647	25.5175	-7.6945	4.7901	0.3236	-0.6798	0.2894	0.5910
6.25	-9.6031	-0.6658	-1.0706	-0.0284	-0.0117	-0.0651	25.6008	-7.6802	4.8267	0.3235	-0.6799	0.2893	0.5912
6.26	-9.5968	-0.6698	-1.0667	-0.0278	-0.0121	-0.0701	25.4577	-7.6872	4.7877	0.3234	-0.6800	0.2891	0.5912
6.27	-9.6076	-0.6743	-1.0716	-0.0272	-0.0025	-0.0675	25.3932	-7.6692	4.8718	0.3233	-0.6801	0.2891	0.5912
6.28	-9.6143	-0.6657	-1.0704	-0.0282	-0.0091	-0.0623	25.4544	-7.2967	5.0004	0.3231	-0.6801	0.2889	0.5912
6.29	-9.6175	-0.6632	-1.0709	-0.0268	-0.0029	-0.0586	25.3733	-7.2525	4.8611	0.3230	-0.6802	0.2889	0.5913
6.3	-9.6066	-0.6652	-1.0813	-0.0294	-0.0026	-0.0645	25.3563	-7.2108	4.7423	0.3228	-0.6803	0.2888	0.5913
6.31	-9.6044	-0.6588	-1.0820	-0.0191	-0.0035	-0.0623	25.2158	-7.4024	4.9713	0.3227	-0.6804	0.2887	0.5913
6.32	-9.6176	-0.6534	-1.0773	-0.0148	-0.0027	-0.0607	25.4726	-7.5242	5.1030	0.3226	-0.6805	0.2887	0.5913
6.33	-9.6179	-0.6475	-1.0788	-0.0115	-0.0064	-0.0570	25.6096	-7.2528	4.7951	0.3225	-0.6805	0.2886	0.5913
6.34	-9.6175	-0.6436	-1.0780	-0.0185	-0.0044	-0.0527	25.4491	-7.4387	4.8167	0.3223	-0.6806	0.2886	0.5913
6.35	-9.6162	-0.6436	-1.0818	-0.0235	-0.0115	-0.0563	25.2193	-7.3427	4.7784	0.3222	-0.6806	0.2885	0.5913
6.36	-9.6162	-0.6434	-1.0806	-0.0231	-0.0163	-0.0578	25.4958	-7.2077	4.9404	0.3221	-0.6807	0.2885	0.5914
6.37	-9.6147	-0.6419	-1.0714	-0.0207	-0.0163	-0.0551	26.1210	-7.4615	4.9945	0.3219	-0.6807	0.2884	0.5915
6.38	-9.6373	-0.6512	-1.0735	-0.0211	-0.0136	-0.0524	25.8670	-7.4990	5.0239	0.3218	-0.6807	0.2884	0.5916
6.39	-9.6282	-0.6551	-1.0776	-0.0237	-0.0137	-0.0497	25.7400	-7.3511	4.9146	0.3216	-0.6807	0.2883	0.5916
6.4	-9.5864	-0.6460	-1.0724	-0.0184	-0.0181	-0.0425	25.5888	-7.4877	4.7190	0.3215	-0.6808	0.2883	0.5917
6.41	-9.5977	-0.6415	-1.0672	-0.0125	-0.0119	-0.0429	25.3263	-7.4646	4.7391	0.3214	-0.6808	0.2882	0.5918
6.42	-9.6110	-0.6235	-1.0648	-0.0124	-0.0120	-0.0562	25.3377	-7.4678	4.7167	0.3213	-0.6807	0.2882	0.5917
6.43	-9.5977	-0.6195	-1.0519	-0.0246	-0.0136	-0.0541	25.3407	-7.2299	4.7332	0.3212	-0.6809	0.2881	0.5919
6.44	-9.6009	-0.6398	-1.0539	-0.0249	-0.0092	-0.0540	25.3074	-7.4927	4.8638	0.3210	-0.6809	0.2881	0.5919
6.45	-9.6345	-0.6483	-1.0534	-0.0111	-0.0123	-0.0517	25.1850	-7.5492	4.7320	0.3209	-0.6810	0.2881	0.5920
6.46	-9.6563	-0.6383	-1.0514	-0.0176	-0.0154	-0.0481	25.4669	-7.6434	4.7333	0.3208	-0.6809	0.2880	0.5920
6.47	-9.6321	-0.6341	-1.0520	-0.0213	-0.0168	-0.0518	25.3743	-7.2486	4.7135	0.3206	-0.6810	0.2880	0.5921
6.48	-9.5647	-0.6457	-1.0505	-0.0273	-0.0198	-0.0493	25.3544	-7.3871	4.7610	0.3205	-0.6810	0.2879	0.5922
6.49	-9.5392	-0.6594	-1.0503	-0.0238	-0.0106	-0.0516	25.5332	-7.4898	4.9386	0.3205	-0.6810	0.2877	0.5922
6.5	-9.5750	-0.6662	-1.0538	-0.0223	-0.0111	-0.0469	25.5012	-7.4246	4.7924	0.3204	-0.6811	0.2876	0.5923
6.51	-9.5945	-0.6513	-1.0641	-0.0201	-0.0071	-0.0372	25.5220	-7.3444	4.7044	0.3202	-0.6811	0.2876	0.5923
6.52	-9.5924	-0.6325	-1.0641	-0.0281	-0.0019	-0.0371	25.2565	-7.4151	4.9988	0.3200	-0.6812	0.2876	0.5924
6.53	-9.6133	-0.6194	-1.0677	-0.0169	-0.0051	-0.0401	25.2350	-7.5672	5.0065	0.3198	-0.6811	0.2876	0.5924
6.54	-9.6076	-0.5991	-1.0799	-0.0113	-0.0062	-0.0461	25.3560	-7.5112	4.9020	0.3197	-0.6812	0.2876	0.5925
6.55	-9.5902	-0.6039	-1.0771	-0.0192	-0.0067	-0.0457	25.3262	-7.4327	4.8804	0.3196	-0.6813	0.2876	0.5925
6.56	-9.5982	-0.6060	-1.0941	-0.0167	-0.0055	-0.0565	25.3347	-7.4592	4.7645	0.3194	-0.6813	0.2875	0.5925
6.57	-9.5896	-0.6035	-1.0918	-0.0071	-0.0085	-0.0559	25.3347	-7.5409	4.9783	0.3194	-0.6814	0.2875	0.5925
6.58	-9.5966	-0.5892	-1.0832	-0.0133	-0.0078	-0.0553	25.4631	-7.4186	4.8176	0.3192	-0.6814	0.2875	0.5925
6.59	-9.6065	-0.5832	-1.1040	-0.0280	-0.0082	-0.0590	25.5861	-7.5157	4.6930	0.3191	-0.6815	0.2874	0.5926
6.6	-9.6034	-0.5717	-1.1037	-0.0229	-0.0055	-0.0550	25.6270	-7.5648	4.8177	0.3189	-0.6815	0.2873	0.5925
6.61	-9.5930	-0.5732	-1.1009	-0.0266	-0.0036	-0.0536	25.2492	-7.5056	4.8596	0.3188	-0.6817	0.2873	0.5926
6.62	-9.6190	-0.5849	-1.1085	-0.0270	-0.0040	-0.0579	25.2702	-7.4556	4.7059	0.3186	-0.6817	0.2872	0.5926
6.63	-9.6580	-0.5980	-1.1131	-0.0278	-0.0073	-0.0546	25.4367	-7.3966	4.6483	0.3185	-0.6818	0.2872	0.5927
6.64	-9.6631	-0.6088	-1.1136	-0.0320	-0.0112	-0.0590	25.4111	-7.2474	4.9631	0.3183	-0.6819	0.2870	0.5927
6.65	-9.6674	-0.6239	-1.1133	-0.0343	-0.0151	-0.0478	25.4492	-7.5482	4.8778	0.3182	-0.6819	0.2870	0.5928
6.66	-9.6687	-0.6349	-1.1248	-0.0301	-0.0103	-0.0487	25.5504	-7.4940	4.9761	0.3180	-0.6820	0.2869	0.5928
6.67	-9.6598	-0.6428	-1.1175	-0.0277	-0.0137	-0.0542	25.4203	-7.3490	5.0459	0.3178	-0.6820	0.2868	0.5928
6.68	-9.6545	-0.6474	-1.1086	-0.0281	-0.0202	-0.0572	25.3185	-7.3754	4.7315	0.3177	-0.6821	0.2868	0.5930
6.69	-9.6477	-0.6538	-1.1010	-0.0279	-0.0211	-0.0525	25.1979	-7.5000	4.7946	0.3175	-0.6821	0.2867	0.5930
6.7	-9.6342	-0.6544	-1.0940	-0.0214	-0.0251	-0.0555	25.3490	-7.3643	5.0336	0.3175	-0.6822	0.2866	0.5932
6.71	-9.6331	-0.6475	-1.0824	-0.0211	-0.0217	-0.0578	25.2326	-7.3616	4.9037	0.3173	-0.6821	0.2865	0.5931
6.72	-9.5868	-0.6304	-1.0719	-0.0017	-0.0253	-0.0527	25.2629	-7.5979	4.8927	0.3173	-0.6821	0.2865	0.5932
6.73	-9.5560	-0.6145	-1.0429	-0.0013	-0.0212	-0.0558	25.5622	-7.4782	4.7904	0.3174	-0.6821	0.2864	0.5933
6.74	-9.6765	-0.6072	-1.0469	-0.0015	-0.0125	-0.0577	25.3868	-7.3722	4.8523	0.3173	-0.6821	0.2864	0.5932
6.75	-9.6244	-0.5699	-1.0537	-0.0025	-0.0301	-0.0688	25.5673	-7.3468	4.5834	0.3174	-0.6822	0.2863	0.5934
6.76	-9.5404	-0.5783	-0.9983	-0.0002	-0.0425	-0.0671	25.7127	-7.5469	4.8338	0.3175	-0.6820	0.2861	0.5934
6.77	-9.6044	-0.5908	-1.0250	-0.0123	-0.0214	-0.0633	25.7017	-7.6852	4.7586	0.3175	-0.6821	0.2861	0.5935
6.78	-9.6187	-0.5780	-1.0270	-0.0281	-0.0283	-0.0670	25.5856	-7.4230	4.7030	0.3174	-0.6820	0.2859	0.5935
6.79	-9.5711	-0.5741	-0.9997	-0.0274	-0.0333	-0.0555	25.5211	-7.5773	4.9881	0.3174	-0.6821	0.2857	0.5936
6.8	-9.5784	-0.5688	-1.0050	-0.0268	-0.0249	-0.0510	25.4420	-7.5013	4.8265	0.3173	-0.6821	0.2856	0.5937
6.81	-9.6008	-0.5694	-1.0042	-0.0274	-0.0162	-0.0565	25.4903	-7.6470	4.8421	0.3172	-0.6821	0.2855	0.5938
6.82	-9.6022	-0.5883	-0.9996	-0.0368	-0.0154	-0.0608	25.5180	-7.5116	4.6966	0.3171	-0.6822	0.2854	0.5938
6.83	-9.5973	-0.6210	-1.0047	-0.0373	-0.0206	-0.0633	25.2623	-7.5863	4.7841	0.3170	-0.6823	0.2852	0.5939
6.84	-9.5784	-0.6399	-1.0070	-0.0408	-0.0147	-0.0671	25.4139	-7.4091	4.7959	0.3169	-0.6824	0.2850	0.5940
6.85	-9.5706	-0.6511	-1.0137	-0.0435	-0.0017	-0.0707	25.5015	-7.3373	4.5770	0.3168	-0.6824	0.2847	0.5939
6.86	-9.5701	-0.6597	-1.0175	-0.0472	-0.0036	-0.0659	25.6321	-7.4853	5.0250	0.3167	-0.6826	0.2845	0.5940
6.87	-9.5481	-0.6710	-1.0249	-0.0359	-0.0066	-0.0601	26.0679	-7.2606	4.9412	0.3168	-0.6826	0.2844	0.5939
6.88	-9.5629	-0.6788	-1.0310	-0.0274	0.0040	-0.0569	25.8952	-7.3123	4.9116	0.3168	-0.6827	0.2844	0.5939
6.89	-9.5899	-0.6815	-1.0391	-0.0283	0.0011	-0.0558	25.5949	-7.2886	4.9126	0.3167	-0.6828	0.2843	0.5939
6.9	-9.5949	-0.6832	-1.0452	-0.0271	0.0013	-0.0573	25.3257	-7.2214	4.8145	0.3166	-0.6829	0.2842	0.5939
6.91	-9.6043	-0.6837	-1.0505	-0.0265	0.0119	-0.0547	25.3661	-7.3429	4.7859	0.3166	-0.6830	0.2840	0.5938
6.92	-9.6399	-0.6836	-1.0618	-0.0284	0.0009	-0.0464	25.4250	-7.3224	4.8301	0.3164	-0.6830	0.2840	0.5938
6.93	-9.6467	-0.6783	-1.0656	-0.0204	-0.0012	-0.0466	25.3605	-7.3468	4.6476	0.3162	-0.6832	0.2840	0.5939
6.94	-9.6184	-0.6743	-1.0675	-0.0074	-0.0038	-0.0450	25.4666	-7.6072	4.6645	0.3161	-0.6832	0.2840	0.5938
6.95	-9.6202	-0.6680	-1.0746	-0.0081	-0.0022	-0.0436	25.6895	-7.5681	4.7274	0.3160	-0.6833	0.2841	0.5939
6.96	-9.6261	-0.6510	-1.0845	-0.0051	-0.0055	-0.0419	25.6369	-7.7161	4.7259	0.3159	-0.6832	0.2841	0.5938
6.97	-9.6145	-0.6326	-1.0857	-0.0012	-0.0061	-0.0414	25.6904	-7.5130	4.8020	0.3158	-0.6833	0.2842	0.5938
6.98	-9.6350	-0.6201	-1.0836	-0.0034	-0.0026	-0.0441	25.6018	-7.3868	4.8731	0.3157	-0.6833	0.2842	0.5938
6.99	-9.6495	-0.6062	-1.0968	0.0005	-0.0085	-0.0470	25.5108	-7.4333	4.8328	0.3156	-0.6833	0.2842	0.5938
7	-9.6497	-0.5933	-1.0855	-0.0016	-0.0061	-0.0520	25.3339	-7.4163	4.6821	0.3156	-0.6834	0.2843	0.5939
7.01	-9.6584	-0.5855	-1.0783	-0.0014	-0.0091	-0.0599	25.3768	-7.4246	5.0132	0.3155	-0.6834	0.2843	0.5938
7.02	-9.6668	-0.5722	-1.0812	-0.0049	-0.0136	-0.0607	25.7574	-7.6360	4.9315	0.3155	-0.6835	0.2843	0.5938
7.03	-9.6432	-0.5666	-1.0763	-0.0072	-0.0178	-0.0563	25.3572	-7.3915	4.7845	0.3154	-0.6834	0.2842	0.5938
7.04	-9.6293	-0.5694	-1.0604	-0.0063	-0.0154	-0.0599	25.2952	-7.3532	4.8153	0.3154	-0.6835	0.2842	0.5938
7.05	-9.6179	-0.5692	-1.0643	-0.0189	-0.0179	-0.0629	25.4967	-7.4114	4.7754	0.3153	-0.6835	0.2841	0.5939
7.06	-9.5915	-0.5659	-1.0569	-0.0232	-0.0152	-0.0594	25.4032	-7.2286	4.8923	0.3152	-0.6836	0.2840	0.5939
7.07	-9.5914	-0.5771	-1.0546	-0.0277	-0.0150	-0.0715	25.3950	-7.2388	4.8824	0.3152	-0.6836	0.2838	0.5939
7.08	-9.5981	-0.5797	-1.0489	-0.0283	-0.0146	-0.0625	25.5169	-7.2754	4.7788	0.3151	-0.6837	0.2837	0.5939
7.09	-9.5902	-0.5822	-1.0480	-0.0355	-0.0191	-0.0685	25.2300	-7.3578	4.8045	0.3151	-0.6838	0.2835	0.5940
7.1	-9.5864	-0.5987	-1.0411	-0.0431	-0.0155	-0.0705	25.2024	-7.3161	4.8043	0.3150	-0.6838	0.2832	0.5940
7.11	-9.6263	-0.6072	-1.0499	-0.0388	-0.0079	-0.0678	25.3345	-7.4505	4.7853	0.3149	-0.6840	0.2831	0.5941
7.12	-9.6087	-0.6131	-1.0493	-0.0481	-0.0130	-0.0717	25.6044	-7.3954	4.8424	0.3147	-0.6841	0.2829	0.5941
7.13	-9.5967	-0.6333	-1.0423	-0.0533	-0.0138	-0.0714	25.4669	-7.4832	4.6853	0.3146	-0.6842	0.2827	0.5942
7.14	-9.6287	-0.6447	-1.0563	-0.0518	-0.0124	-0.0680	25.5992	-7.6278	4.8585	0.3144	-0.6843	0.2825	0.5942
7.15	-9.6196	-0.6457	-1.0507	-0.0515	-0.0200	-0.0758	25.6471	-7.4260	4.7077	0.3142	-0.6844	0.2822	0.5943
7.16	-9.6043	-0.6654	-1.0491	-0.0546	-0.0152	-0.0739	25.5471	-7.4749	4.6497	0.3141	-0.6846	0.2820	0.5944
7.17	-9.6090	-0.6826	-1.0524	-0.0510	-0.0137	-0.0655	25.5831	-7.5279	4.7418	0.3139	-0.6846	0.2818	0.5944
7.18	-9.5938	-0.6911	-1.0521	-0.0516	-0.0120	-0.0647	25.4786	-7.3988	4.6028	0.3137	-0.6848	0.2816	0.5945
7.19	-9.5815	-0.7036	-1.0447	-0.0373	-0.0170	-0.0622	25.3002	-7.4284	4.9070	0.3137	-0.6848	0.2814	0.5945
7.2	-9.5825	-0.7130	-1.0479	-0.0356	-0.0127	-0.0664	25.4280	-7.4196	4.8928	0.3136	-0.6850	0.2812	0.5946
7.21	-9.5665	-0.7232	-1.0498	-0.0290	-0.0090	-0.0601	25.6115	-7.4117	4.8887	0.3136	-0.6849	0.2810	0.5945
7.22	-9.5640	-0.7252	-1.0602	-0.0267	-0.0073	-0.0568	25.4304	-7.4356	4.7990	0.3135	-0.6851	0.2808	0.5946
7.23	-9.5611	-0.7301	-1.0581	-0.0272	0.0011	-0.0627	25.5429	-7.1858	4.7505	0.3136	-0.6851	0.2808	0.5945
7.24	-9.5678	-0.7251	-1.0563	-0.0076	-0.0019	-0.0586	25.3113	-7.1617	4.6715	0.3137	-0.6851	0.2808	0.5944
7.25	-9.5811	-0.7075	-1.0682	-0.0079	0.0068	-0.0617	25.2021	-7.0391	4.8250	0.3137	-0.6852	0.2808	0.5944
7.26	-9.5797	-0.7064	-1.0764	-0.0035	0.0073	-0.0578	25.3772	-7.1355	4.7627	0.3139	-0.6852	0.2809	0.5942
7.27	-9.5939	-0.6942	-1.0716	-0.0013	0.0063	-0.0601	25.4053	-7.3459	4.6443	0.3139	-0.6853	0.2808	0.5942
7.28	-9.6154	-0.6771	-1.0745	0.0026	0.0051	-0.0637	25.3811	-7.3428	4.9410	0.3139	-0.6853	0.2808	0.5941
7.29	-9.6188	-0.6602	-1.0754	0.0022	0.0051	-0.0604	25.5288	-7.1845	4.8264	0.3139	-0.6854	0.2809	0.5940
7.3	-9.6206	-0.6432	-1.0837	-0.0017	-0.0008	-0.0595	25.4181	-7.0329	4.8524	0.3140	-0.6854	0.2811	0.5939
7.31	-9.6263	-0.6398	-1.0870	-0.0053	0.0004	-0.0612	25.4303	-7.3714	4.8387	0.3139	-0.6854	0.2810	0.5938
7.32	-9.6161	-0.6275	-1.0866	-0.0043	-0.0088	-0.0616	25.7258	-7.2877	4.6860	0.3139	-0.6855	0.2810	0.5938
7.33	-9.6130	-0.6244	-1.0970	-0.0144	-0.0086	-0.0593	25.5999	-7.5416	4.8458	0.3138	-0.6855	0.2809	0.5938
7.34	-9.6214	-0.6262	-1.0958	-0.0187	-0.0011	-0.0583	25.7902	-7.5589	4.7894	0.3138	-0.6856	0.2809	0.5938
7.35	-9.6140	-0.6264	-1.0948	-0.0267	0.0021	-0.0592	25.5431	-7.4181	4.8070	0.3136	-0.6857	0.2808	0.5937
7.36	-9.6195	-0.6338	-1.0991	-0.0346	-0.0074	-0.0616	25.6258	-7.2790	4.9149	0.3135	-0.6859	0.2807	0.5938
7.37	-9.6447	-0.6462	-1.1057	-0.0365	-0.0059	-0.0571	25.9310	-7.4451	5.0317	0.3133	-0.6859	0.2806	0.5938
7.38	-9.6433	-0.6525	-1.1076	-0.0376	-0.0108	-0.0565	25.7305	-7.4616	4.9188	0.3132	-0.6860	0.2805	0.5939
7.39	-9.6437	-0.6668	-1.0994	-0.0317	-0.0031	-0.0582	25.6876	-7.2649	4.9730	0.3130	-0.6861	0.2803	0.5939
7.4	-9.6446	-0.6799	-1.1022	-0.0326	-0.0150	-0.0549	25.4631	-7.3733	4.7914	0.3129	-0.6862	0.2802	0.5939
7.41	-9.6265	-0.6842	-1.0939	-0.0414	-0.0198	-0.0591	25.4469	-7.2381	4.5755	0.3128	-0.6862	0.2801	0.5940
7.42	-9.6093	-0.6937	-1.0961	-0.0419	-0.0138	-0.0642	25.4287	-7.3918	4.7758	0.3126	-0.6863	0.2799	0.5940
7.43	-9.5960	-0.7016	-1.1007	-0.0357	-0.0089	-0.0609	25.4366	-7.2204	4.8160	0.3125	-0.6864	0.2799	0.5941
7.44	-9.5984	-0.7076	-1.0968	-0.0318	-0.0071	-0.0598	25.5951	-7.2156	4.7224	0.3125	-0.6864	0.2799	0.5940
7.45	-9.6203	-0.7147	-1.0946	-0.0296	-0.0137	-0.0623	25.5840	-7.2975	4.7556	0.3124	-0.6865	0.2798	0.5941
7.46	-9.6079	-0.7099	-1.0935	-0.0275	-0.0075	-0.0586	25.3741	-7.2673	4.6515	0.3123	-0.6865	0.2797	0.5940
7.47	-9.6098	-0.7013	-1.0787	-0.0255	-0.0179	-0.0587	25.5184	-7.1560	4.7415	0.3122	-0.6866	0.2796	0.5941
7.48	-9.6611	-0.6923	-1.0913	-0.0254	-0.0120	-0.0567	25.4210	-7.4168	4.5983	0.3121	-0.6867	0.2795	0.5941
7.49	-9.6373	-0.6761	-1.0841	-0.0232	-0.0279	-0.0570	25.2942	-7.1502	4.7540	0.3120	-0.6866	0.2794	0.5942
7.5	-9.6096	-0.6826	-1.0639	-0.0194	-0.0276	-0.0500	25.5683	-7.4347	4.7366	0.3120	-0.6867	0.2793	0.5943
7.51	-9.6494	-0.6950	-1.0678	-0.0276	-0.0162	-0.0555	25.6493	-7.5128	4.6160	0.3118	-0.6867	0.2792	0.5943
7.52	-9.6382	-0.6904	-1.0578	-0.0186	-0.0311	-0.0510	25.4862	-7.4813	4.7357	0.3118	-0.6867	0.2791	0.5945
7.53	-9.6260	-0.6864	-1.0336	-0.0199	-0.0326	-0.0468	25.3107	-7.5771	4.7513	0.3116	-0.6866	0.2790	0.5945
7.54	-9.6456	-0.6836	-1.0351	-0.0215	-0.0329	-0.0447	25.4733	-7.2880	4.8598	0.3116	-0.6867	0.2790	0.5947
7.55	-9.6138	-0.6778	-1.0230	-0.0151	-0.0320	-0.0454	25.5735	-7.2598	4.6106	0.3115	-0.6866	0.2789	0.5948
7.56	-9.5538	-0.6846	-1.0149	-0.0199	-0.0361	-0.0535	25.3513	-7.3516	4.5167	0.3114	-0.6866	0.2788	0.5949
7.57	-9.5396	-0.6926	-1.0162	-0.0226	-0.0333	-0.0473	25.3400	-7.3749	4.6960	0.3114	-0.6866	0.2786	0.5950
7.58	-9.5429	-0.6868	-1.0144	-0.0069	-0.0224	-0.0416	25.4691	-7.2245	4.5919	0.3114	-0.6865	0.2786	0.5951
7.59	-9.5507	-0.6638	-1.0128	-0.0032	-0.0162	-0.0364	25.4117	-7.3513	4.5755	0.3114	-0.6865	0.2785	0.5952
7.6	-9.5476	-0.6393	-1.0149	-0.0016	-0.0102	-0.0427	25.4470	-7.4328	4.8596	0.3114	-0.6864	0.2785	0.5951
7.61	-9.5370	-0.6275	-1.0213	-0.0115	-0.0052	-0.0462	25.5181	-7.4867	4.9446	0.3114	-0.6865	0.2785	0.5952
7.62	-9.5462	-0.6282	-1.0224	-0.0145	-0.0007	-0.0565	25.5536	-7.3482	4.7377	0.3114	-0.6866	0.2783	0.5951
7.63	-9.5672	-0.6309	-1.0394	-0.0053	0.0053	-0.0562	25.3958	-7.2417	4.5218	0.3114	-0.6867	0.2783	0.5951
7.64	-9.5765	-0.6191	-1.0409	-0.0169	0.0055	-0.0565	25.1197	-7.2988	4.6767	0.3113	-0.6867	0.2782	0.5950
7.65	-9.5809	-0.6083	-1.0498	-0.0134	0.0027	-0.0565	25.3320	-7.1387	4.7407	0.3113	-0.6868	0.2781	0.5950
7.66	-9.6058	-0.6086	-1.0626	-0.0242	0.0075	-0.0522	25.5378	-7.4436	4.7867	0.3113	-0.6869	0.2780	0.5950
7.67	-9.6001	-0.6051	-1.0677	-0.0270	0.0033	-0.0544	25.4426	-7.4553	4.9038	0.3112	-0.6869	0.2778	0.5949
7.68	-9.5928	-0.6078	-1.0712	-0.0275	0.0007	-0.0546	25.3161	-7.1610	4.4333	0.3113	-0.6870	0.2779	0.5949
7.69	-9.5950	-0.6273	-1.0837	-0.0270	0.0060	-0.0554	25.6871	-7.3105	4.7307	0.3112	-0.6871	0.2778	0.5949
7.7	-9.6053	-0.6411	-1.0974	-0.0323	0.0118	-0.0553	25.6526	-7.2476	4.8821	0.3112	-0.6873	0.2777	0.5949
7.71	-9.6247	-0.6490	-1.1044	-0.0454	0.0085	-0.0533	25.4994	-7.3612	4.7329	0.3110	-0.6873	0.2775	0.5948
7.72	-9.6463	-0.6625	-1.1118	-0.0449	0.0153	-0.0516	25.6477	-7.5011	4.7244	0.3108	-0.6875	0.2774	0.5948
7.73	-9.6654	-0.6769	-1.1221	-0.0374	0.0057	-0.0530	25.3803	-7.3413	4.6324	0.3106	-0.6877	0.2773	0.5948
7.74	-9.6686	-0.6828	-1.1245	-0.0389	-0.0072	-0.0569	25.3018	-7.5447	4.6518	0.3104	-0.6877	0.2772	0.5948
7.75	-9.6583	-0.6938	-1.1266	-0.0413	-0.0084	-0.0531	25.5798	-7.3313	4.6746	0.3103	-0.6879	0.2771	0.5949
7.76	-9.6367	-0.7064	-1.1382	-0.0352	-0.0052	-0.0524	25.6137	-7.1260	4.7330	0.3104	-0.6878	0.2773	0.5947
7.77	-9.6313	-0.7157	-1.1405	-0.0320	-0.0056	-0.0457	25.6098	-7.2522	4.8274	0.3103	-0.6878	0.2774	0.5948
7.78	-9.5859	-0.7078	-1.1413	-0.0271	-0.0140	-0.0483	25.1840	-7.4495	4.7414	0.3102	-0.6878	0.2772	0.5948
7.79	-9.5619	-0.7029	-1.1252	-0.0241	-0.0081	-0.0470	25.4558	-7.4663	4.7674	0.3101	-0.6879	0.2772	0.5948
7.8	-9.7058	-0.6979	-1.1329	-0.0147	0.0019	-0.0487	25.6345	-7.4084	4.6724	0.3100	-0.6880	0.2771	0.5948
7.81	-9.6741	-0.6697	-1.1418	-0.0060	-0.0178	-0.0590	25.3946	-7.2719	4.7193	0.3100	-0.6880	0.2771	0.5948
7.82	-9.5647	-0.6752	-1.1025	-0.0023	-0.0215	-0.0612	25.4600	-7.2689	4.7426	0.3100	-0.6880	0.2770	0.5949
7.83	-9.6255	-0.6825	-1.1262	-0.0012	-0.0050	-0.0663	25.2764	-7.2845	4.9072	0.3100	-0.6880	0.2769	0.5948
7.84	-9.6307	-0.6664	-1.1269	-0.0052	-0.0178	-0.0647	25.2445	-7.2510	4.8700	0.3100	-0.6881	0.2769	0.5949
7.85	-9.6000	-0.6521	-1.1022	-0.0013	-0.0169	-0.0622	25.3277	-7.3695	4.8139	0.3100	-0.6880	0.2768	0.5948
7.86	-9.6038	-0.6353	-1.1087	0.0006	-0.0119	-0.0567	25.4785	-7.4550	4.9556	0.3100	-0.6881	0.2768	0.5949
7.87	-9.6054	-0.6098	-1.0918	-0.0035	-0.0213	-0.0498	25.6971	-7.1292	4.9200	0.3101	-0.6880	0.2769	0.5948
7.88	-9.5975	-0.6070	-1.0992	-0.0111	-0.0212	-0.0565	25.7202	-7.0925	4.9087	0.3103	-0.6879	0.2771	0.5948
7.89	-9.6092	-0.6227	-1.0978	-0.0258	-0.0183	-0.0624	25.7666	-7.3558	4.8976	0.3103	-0.6879	0.2770	0.5948
7.9	-9.6167	-0.6342	-1.0996	-0.0276	-0.0189	-0.0736	25.3751	-7.3093	4.7462	0.3102	-0.6880	0.2769	0.5948
7.91	-9.6217	-0.6445	-1.0894	-0.0284	-0.0177	-0.0725	25.4931	-7.3751	4.9104	0.3102	-0.6880	0.2767	0.5949
7.92	-9.6171	-0.6603	-1.0859	-0.0468	-0.0175	-0.0659	25.6686	-7.4439	5.0009	0.3100	-0.6881	0.2765	0.5949
7.93	-9.6136	-0.6725	-1.0960	-0.0431	-0.0224	-0.0623	25.5337	-7.2362	4.7381	0.3099	-0.6882	0.2763	0.5950
7.94	-9.6022	-0.6832	-1.0842	-0.0499	-0.0336	-0.0575	25.4051	-7.3472	4.7794	0.3097	-0.6882	0.2761	0.5951
7.95	-9.5951	-0.6996	-1.0843	-0.0555	-0.0344	-0.0509	25.6278	-7.4165	4.8384	0.3096	-0.6883	0.2759	0.5954
7.96	-9.6003	-0.7291	-1.0858	-0.0550	-0.0263	-0.0528	25.6551	-7.3223	4.9831	0.3093	-0.6882	0.2757	0.5954
7.97	-9.5827	-0.7440	-1.0919	-0.0548	-0.0289	-0.0501	25.2873	-7.3789	4.8404	0.3092	-0.6883	0.2755	0.5956
7.98	-9.5895	-0.7551	-1.0871	-0.0551	-0.0188	-0.0474	25.4625	-7.2041	4.8815	0.3090	-0.6884	0.2754	0.5957
7.99	-9.6181	-0.7742	-1.0939	-0.0464	-0.0208	-0.0439	25.4680	-7.2210	4.8620	0.3087	-0.6884	0.2752	0.5958
8	-9.6248	-0.7813	-1.0936	-0.0340	-0.0222	-0.0403	25.4602	-7.2549	4.8679	0.3086	-0.6885	0.2751	0.5960
8.01	-9.6384	-0.7836	-1.0786	-0.0292	-0.0273	-0.0348	25.3402	-7.1407	5.0219	0.3084	-0.6884	0.2751	0.5960
8.02	-9.6620	-0.7722	-1.0797	-0.0292	-0.0278	-0.0319	25.4388	-7.3704	4.8081	0.3083	-0.6884	0.2750	0.5962
8.03	-9.6543	-0.7568	-1.0736	-0.0157	-0.0299	-0.0322	25.5676	-7.2444	4.7612	0.3081	-0.6883	0.2750	0.5963
8.04	-9.6342	-0.7415	-1.0562	-0.0059	-0.0410	-0.0291	25.5414	-7.1251	4.7809	0.3083	-0.6881	0.2753	0.5963
8.05	-9.6260	-0.7246	-1.0451	0.0127	-0.0367	-0.0285	25.4154	-7.2383	4.7764	0.3084	-0.6880	0.2755	0.5964
8.06	-9.6199	-0.6970	-1.0325	0.0083	-0.0393	-0.0256	25.5680	-7.5162	4.7752	0.3084	-0.6878	0.2756	0.5965
8.07	-9.5928	-0.6755	-1.0220	0.0193	-0.0381	-0.0261	25.5305	-7.6112	4.8092	0.3084	-0.6877	0.2757	0.5966
8.08	-9.5725	-0.6574	-1.0134	0.0254	-0.0380	-0.0290	25.4627	-7.5950	4.5910	0.3085	-0.6876	0.2757	0.5967
8.09	-9.5724	-0.6309	-1.0095	0.0260	-0.0317	-0.0194	25.6382	-7.6186	4.4824	0.3086	-0.6874	0.2758	0.5968
8.1	-9.5722	-0.6013	-1.0004	0.0293	-0.0249	-0.0257	25.6573	-7.5136	4.5104	0.3086	-0.6872	0.2759	0.5968
8.11	-9.5771	-0.5825	-0.9963	0.0243	-0.0341	-0.0282	25.5003	-7.5096	4.6287	0.3087	-0.6872	0.2760	0.5970
8.12	-9.5711	-0.5617	-0.9913	0.0239	-0.0195	-0.0263	25.4874	-7.5219	4.7136	0.3088	-0.6871	0.2760	0.5970
8.13	-9.5758	-0.5459	-0.9908	0.0236	-0.0193	-0.0306	25.5994	-7.4950	4.6797	0.3088	-0.6870	0.2761	0.5970
8.14	-9.5791	-0.5246	-0.9909	0.0192	-0.0200	-0.0304	25.4211	-7.6258	4.6957	0.3089	-0.6869	0.2762	0.5971
8.15	-9.5731	-0.5103	-0.9989	0.0200	-0.0126	-0.0360	25.5032	-7.4472	4.8255	0.3090	-0.6868	0.2762	0.5971
8.16	-9.5922	-0.4989	-1.0001	0.0019	-0.0092	-0.0435	25.3829	-7.4359	4.9080	0.3090	-0.6868	0.2762	0.5971
8.17	-9.5892	-0.4890	-1.0030	-0.0044	-0.0072	-0.0418	25.3825	-7.3382	4.7693	0.3089	-0.6868	0.2761	0.5971
8.18	-9.5915	-0.4939	-1.0088	-0.0046	0.0051	-0.0450	25.3462	-7.3423	4.7830	0.3090	-0.6869	0.2762	0.5971
8.19	-9.6098	-0.4973	-1.0178	-0.0220	-0.0018	-0.0530	25.4521	-7.4683	4.7760	0.3089	-0.6869	0.2760	0.5971
8.2	-9.6225	-0.5073	-1.0300	-0.0262	0.0025	-0.0643	25.3573	-7.3537	4.7879	0.3089	-0.6871	0.2759	0.5971
8.21	-9.6120	-0.5173	-1.0340	-0.0300	0.0040	-0.0649	25.1391	-7.2427	4.7642	0.3088	-0.6871	0.2757	0.5970
8.22	-9.6056	-0.5335	-1.0417	-0.0324	-0.0045	-0.0701	25.4879	-7.2557	4.6733	0.3088	-0.6873	0.2755	0.5970
8.23	-9.6073	-0.5451	-1.0540	-0.0428	-0.0027	-0.0691	25.3950	-7.4265	4.6838	0.3087	-0.6874	0.2753	0.5970
8.24	-9.6075	-0.5659	-1.0596	-0.0492	-0.0042	-0.0727	25.3605	-7.4173	4.7038	0.3085	-0.6875	0.2751	0.5970
8.25	-9.6054	-0.5868	-1.0631	-0.0533	-0.0013	-0.0734	25.4766	-7.4432	4.6597	0.3084	-0.6877	0.2749	0.5971
8.26	-9.6057	-0.5982	-1.0725	-0.0551	-0.0029	-0.0756	25.4655	-7.6741	4.4739	0.3082	-0.6878	0.2746	0.5971
8.27	-9.6197	-0.6194	-1.0789	-0.0557	0.0028	-0.0825	25.4386	-7.7242	4.7463	0.3081	-0.6880	0.2744	0.5971
8.28	-9.6077	-0.6386	-1.0826	-0.0592	-0.0065	-0.0790	25.5774	-7.5022	4.5574	0.3079	-0.6881	0.2741	0.5970
8.29	-9.6130	-0.6589	-1.0824	-0.0585	-0.0068	-0.0825	25.3953	-7.4098	4.7630	0.3078	-0.6883	0.2738	0.5971
8.3	-9.6364	-0.6800	-1.0915	-0.0575	-0.0073	-0.0817	25.4368	-7.4386	4.7337	0.3077	-0.6884	0.2735	0.5971
8.31	-9.6314	-0.6910	-1.1001	-0.0518	-0.0056	-0.0796	25.6955	-7.7076	4.6779	0.3075	-0.6886	0.2733	0.5971
8.32	-9.6272	-0.7054	-1.0986	-0.0548	-0.0063	-0.0688	25.4995	-7.5805	4.6987	0.3074	-0.6887	0.2731	0.5972
8.33	-9.6474	-0.7231	-1.1012	-0.0520	-0.0125	-0.0692	25.6142	-7.2380	4.6975	0.3072	-0.6888	0.2728	0.5972
8.34	-9.6462	-0.7260	-1.0988	-0.0557	-0.0121	-0.0721	25.4095	-7.2567	4.8413	0.3071	-0.6890	0.2726	0.5973
8.35	-9.6245	-0.7314	-1.0912	-0.0410	-0.0142	-0.0631	25.3498	-7.2515	4.6269	0.3069	-0.6890	0.2724	0.5973
8.36	-9.6335	-0.7423	-1.0897	-0.0353	-0.0175	-0.0587	25.6005	-7.2406	4.8702	0.3068	-0.6891	0.2722	0.5975
8.37	-9.6269	-0.7406	-1.0864	-0.0326	-0.0190	-0.0617	25.8572	-7.1139	4.7788	0.3068	-0.6891	0.2722	0.5974
8.38	-9.6181	-0.7393	-1.0771	-0.0271	-0.0178	-0.0579	25.6680	-7.2492	4.9027	0.3069	-0.6891	0.2722	0.5975
8.39	-9.6188	-0.7342	-1.0733	-0.0225	-0.0189	-0.0584	25.5195	-7.3360	4.7094	0.3067	-0.6891	0.2721	0.5975
8.4	-9.6083	-0.7240	-1.0730	-0.0269	-0.0169	-0.0563	25.3975	-7.4588	4.6255	0.3067	-0.6891	0.2720	0.5976
8.41	-9.5928	-0.7145	-1.0657	-0.0186	-0.0253	-0.0472	25.2570	-7.2719	4.7856	0.3066	-0.6891	0.2719	0.5977
8.42	-9.5840	-0.6975	-1.0628	-0.0149	-0.0203	-0.0496	25.2623	-7.0321	4.7862	0.3065	-0.6891	0.2718	0.5977
8.43	-9.5782	-0.6907	-1.0594	-0.0078	-0.0162	-0.0482	25.4171	-7.4646	4.8811	0.3066	-0.6891	0.2717	0.5978
8.44	-9.5782	-0.6835	-1.0549	0.0019	-0.0205	-0.0512	25.7027	-7.3753	4.7830	0.3066	-0.6891	0.2717	0.5978
8.45	-9.5942	-0.6674	-1.0629	-0.0019	-0.0157	-0.0438	25.5825	-7.4265	4.7139	0.3066	-0.6891	0.2717	0.5979
8.46	-9.6052	-0.6512	-1.0512	-0.0023	-0.0126	-0.0378	25.7516	-7.3738	4.9517	0.3065	-0.6890	0.2717	0.5978
8.47	-9.5969	-0.6423	-1.0490	-0.0010	-0.0088	-0.0541	25.5764	-7.3349	4.8000	0.3065	-0.6891	0.2717	0.5979
8.48	-9.6015	-0.6425	-1.0469	-0.0101	-0.0159	-0.0497	25.5059	-7.2210	4.6984	0.3064	-0.6891	0.2716	0.5979
8.49	-9.6207	-0.6473	-1.0515	-0.0059	-0.0096	-0.0475	25.3303	-7.4453	4.8538	0.3064	-0.6890	0.2716	0.5979
8.5	-9.6247	-0.6430	-1.0488	-0.0115	-0.0148	-0.0464	25.4922	-7.4520	4.9153	0.3063	-0.6891	0.2716	0.5980
8.51	-9.6059	-0.6447	-1.0500	-0.0092	-0.0128	-0.0482	25.5414	-7.4486	4.8533	0.3062	-0.6891	0.2716	0.5980
8.52	-9.5911	-0.6379	-1.0514	-0.0190	-0.0106	-0.0385	25.5645	-7.4076	4.9799	0.3061	-0.6891	0.2716	0.5981
8.53	-9.6153	-0.6312	-1.0452	-0.0283	-0.0069	-0.0499	25.4259	-7.2329	4.8035	0.3060	-0.6891	0.2715	0.5981
8.54	-9.6254	-0.6294	-1.0603	-0.0273	-0.0075	-0.0544	25.4969	-7.3148	5.0906	0.3059	-0.6892	0.2714	0.5981
8.55	-9.6009	-0.6415	-1.0491	-0.0271	-0.0124	-0.0584	25.3331	-7.1810	4.9394	0.3058	-0.6893	0.2713	0.5982
8.56	-9.6292	-0.6674	-1.0498	-0.0341	-0.0103	-0.0575	25.2971	-7.2650	4.9216	0.3057	-0.6893	0.2711	0.5982
8.57	-9.6593	-0.6734	-1.0521	-0.0302	-0.0132	-0.0534	25.5981	-7.3484	4.9339	0.3055	-0.6894	0.2711	0.5983
8.58	-9.6572	-0.6747	-1.0562	-0.0271	-0.0139	-0.0508	25.5081	-7.1555	4.9187	0.3054	-0.6894	0.2710	0.5983
8.59	-9.6316	-0.6794	-1.0547	-0.0271	-0.0129	-0.0512	25.5795	-7.3685	4.7241	0.3053	-0.6895	0.2709	0.5984
8.6	-9.5618	-0.6880	-1.0504	-0.0295	-0.0229	-0.0576	25.4269	-7.3702	4.8518	0.3052	-0.6894	0.2707	0.5984
8.61	-9.5494	-0.7031	-1.0510	-0.0266	-0.0193	-0.0554	25.4797	-7.3237	4.8142	0.3052	-0.6895	0.2705	0.5985
8.62	-9.5772	-0.7091	-1.0599	-0.0249	-0.0117	-0.0421	25.5544	-7.4622	4.5685	0.3052	-0.6895	0.2704	0.5986
8.63	-9.5957	-0.6883	-1.0617	-0.0227	-0.0130	-0.0366	25.5694	-7.5623	4.8324	0.3050	-0.6896	0.2704	0.5987
8.64	-9.6354	-0.6641	-1.0567	-0.0175	-0.0120	-0.0366	25.8698	-7.5229	4.9503	0.3049	-0.6895	0.2704	0.5987
8.65	-9.6430	-0.6573	-1.0702	-0.0248	-0.0136	-0.0386	25.6057	-7.6417	4.9285	0.3047	-0.6896	0.2703	0.5988
8.66	-9.6382	-0.6519	-1.0579	-0.0148	-0.0155	-0.0433	25.5367	-7.4351	4.7360	0.3047	-0.6896	0.2703	0.5988
8.67	-9.6410	-0.6469	-1.0629	-0.0082	-0.0143	-0.0509	25.4571	-7.4560	4.8362	0.3046	-0.6895	0.2702	0.5988
8.68	-9.6146	-0.6429	-1.0617	-0.0084	-0.0237	-0.0476	25.4529	-7.4380	4.8447	0.3046	-0.6896	0.2702	0.5990
8.69	-9.5920	-0.6320	-1.0442	-0.0042	-0.0225	-0.0492	25.4322	-7.6104	4.5359	0.3045	-0.6895	0.2702	0.5990
8.7	-9.5982	-0.6244	-1.0434	-0.0110	-0.0135	-0.0485	25.5280	-7.3651	4.9228	0.3045	-0.6896	0.2702	0.5991
8.71	-9.5983	-0.6127	-1.0433	-0.0062	-0.0282	-0.0469	25.5445	-7.3646	4.9276	0.3044	-0.6895	0.2701	0.5991
8.72	-9.5838	-0.6029	-1.0325	-0.0162	-0.0192	-0.0511	25.5476	-7.3295	4.8372	0.3044	-0.6895	0.2700	0.5992
8.73	-9.5781	-0.5997	-1.0278	-0.0274	-0.0145	-0.0532	25.5154	-7.4495	4.9726	0.3044	-0.6895	0.2699	0.5992
8.74	-9.5787	-0.6027	-1.0380	-0.0257	-0.0153	-0.0572	25.6446	-7.2950	4.9047	0.3043	-0.6895	0.2697	0.5992
8.75	-9.5698	-0.6099	-1.0349	-0.0285	-0.0051	-0.0567	25.5139	-7.2500	4.9499	0.3043	-0.6897	0.2696	0.5993
8.76	-9.5921	-0.6204	-1.0340	-0.0267	-0.0030	-0.0564	25.3037	-7.4276	4.8958	0.3042	-0.6897	0.2694	0.5993
8.77	-9.6080	-0.6290	-1.0449	-0.0278	-0.0047	-0.0580	25.1818	-7.4788	4.7897	0.3041	-0.6898	0.2693	0.5994
8.78	-9.6073	-0.6383	-1.0474	-0.0276	-0.0075	-0.0577	25.3398	-7.2656	4.9761	0.3040	-0.6898	0.2692	0.5993
8.79	-9.6319	-0.6498	-1.0511	-0.0406	-0.0038	-0.0564	25.5146	-7.2662	4.7415	0.3038	-0.6900	0.2691	0.5994
8.8	-9.6278	-0.6635	-1.0550	-0.0404	-0.0081	-0.0575	25.5369	-7.2799	4.8458	0.3037	-0.6900	0.2689	0.5994
8.81	-9.6161	-0.6792	-1.0508	-0.0371	-0.0130	-0.0556	25.5579	-7.2526	4.9803	0.3035	-0.6901	0.2688	0.5995
8.82	-9.6133	-0.6851	-1.0636	-0.0306	-0.0130	-0.0479	25.5121	-7.3797	4.7093	0.3034	-0.6901	0.2687	0.5996
8.83	-9.6202	-0.6863	-1.0729	-0.0271	-0.0092	-0.0525	25.4738	-7.4746	4.8885	0.3033	-0.6902	0.2686	0.5996
8.84	-9.5750	-0.6855	-1.0725	-0.0276	-0.0059	-0.0530	25.7700	-7.6244	4.8091	0.3032	-0.6903	0.2685	0.5996
8.85	-9.6490	-0.6875	-1.0549	-0.0270	-0.0076	-0.0539	25.5985	-7.5531	4.9482	0.3031	-0.6902	0.2684	0.5996
8.86	-9.7030	-0.6787	-1.0875	-0.0267	-0.0064	-0.0632	25.6569	-7.2955	4.9260	0.3030	-0.6904	0.2683	0.5997
8.87	-9.5830	-0.6668	-1.0550	-0.0285	-0.0318	-0.0583	26.0820	-7.2651	4.9329	0.3030	-0.6903	0.2683	0.5997
8.88	-9.5725	-0.7006	-1.0465	-0.0205	-0.0110	-0.0642	25.9875	-7.2527	4.9237	0.3032	-0.6903	0.2682	0.5997
8.89	-9.6358	-0.6850	-1.0607	-0.0122	-0.0040	-0.0567	25.6254	-7.2877	4.7440	0.3030	-0.6904	0.2681	0.5997
8.9	-9.6198	-0.6808	-1.0593	-0.0148	-0.0134	-0.0557	25.3948	-7.2878	4.7430	0.3030	-0.6904	0.2681	0.5997
8.91	-9.5587	-0.6677	-1.0523	-0.0226	-0.0116	-0.0412	25.3940	-7.2738	4.7838	0.3030	-0.6904	0.2680	0.5998
8.92	-9.6049	-0.6395	-1.0516	-0.0238	-0.0064	-0.0367	25.3701	-7.2199	4.7663	0.3028	-0.6904	0.2679	0.5998
8.93	-9.6124	-0.6327	-1.0658	-0.0216	-0.0035	-0.0487	25.4873	-7.4920	4.7774	0.3027	-0.6906	0.2679	0.5999
8.94	-9.6318	-0.6375	-1.0519	-0.0124	-0.0055	-0.0454	25.6055	-7.1864	4.7764	0.3027	-0.6905	0.2680	0.5998
8.95	-9.6352	-0.6542	-1.0659	-0.0115	-0.0016	-0.0557	25.4561	-7.2235	4.7597	0.3028	-0.6905	0.2681	0.5998
8.96	-9.6564	-0.6552	-1.0649	-0.0085	-0.0068	-0.0539	25.5737	-7.2611	4.7996	0.3027	-0.6905	0.2681	0.5997
8.97	-9.6293	-0.6348	-1.0662	-0.0140	-0.0113	-0.0509	25.5313	-7.1437	4.5936	0.3028	-0.6905	0.2683	0.5997
8.98	-9.6231	-0.6322	-1.0566	-0.0059	-0.0133	-0.0484	25.4447	-7.5239	4.6762	0.3027	-0.6905	0.2682	0.5997
8.99	-9.6194	-0.6297	-1.0678	-0.0084	-0.0174	-0.0451	25.4689	-7.4942	4.9262	0.3027	-0.6904	0.2682	0.5997
9	-9.6072	-0.6304	-1.0511	-0.0214	-0.0245	-0.0408	25.5646	-7.5455	4.6302	0.3026	-0.6905	0.2682	0.5999
9.01	-9.6268	-0.6305	-1.0570	-0.0179	-0.0156	-0.0527	25.8331	-7.5874	4.5944	0.3025	-0.6904	0.2681	0.5999
9.02	-9.6165	-0.6265	-1.0536	-0.0220	-0.0147	-0.0568	25.5465	-7.4575	4.8497	0.3024	-0.6905	0.2680	0.6000
9.03	-9.6173	-0.6311	-1.0440	-0.0257	-0.0215	-0.0467	25.6520	-7.7118	4.9025	0.3022	-0.6904	0.2679	0.6000
9.04	-9.6207	-0.6370	-1.0419	-0.0280	-0.0188	-0.0534	25.7310	-7.5710	4.6128	0.3022	-0.6905	0.2678	0.6002
9.05	-9.6128	-0.6397	-1.0243	-0.0204	-0.0177	-0.0476	25.4392	-7.6259	4.7856	0.3020	-0.6905	0.2678	0.6002
9.06	-9.6193	-0.6430	-1.0270	-0.0240	-0.0188	-0.0441	25.4874	-7.5339	4.7086	0.3019	-0.6905	0.2677	0.6003
9.07	-9.6027	-0.6444	-1.0258	-0.0168	-0.0174	-0.0465	25.4443	-7.3998	4.5696	0.3018	-0.6905	0.2677	0.6004
9.08	-9.6007	-0.6459	-1.0113	-0.0266	-0.0206	-0.0524	25.5066	-7.4589	4.7388	0.3017	-0.6905	0.2676	0.6004
9.09	-9.6199	-0.6440	-1.0129	-0.0230	-0.0155	-0.0551	25.5871	-7.3484	4.6007	0.3016	-0.6906	0.2675	0.6005
9.1	-9.5912	-0.6399	-1.0093	-0.0199	-0.0194	-0.0563	25.4680	-7.3462	4.5706	0.3016	-0.6905	0.2673	0.6005
9.11	-9.5920	-0.6388	-1.0044	-0.0205	-0.0153	-0.0564	25.3464	-7.3136	4.8336	0.3016	-0.6906	0.2672	0.6006
9.12	-9.5958	-0.6371	-1.0051	-0.0140	-0.0140	-0.0615	25.4341	-7.2523	4.6878	0.3015	-0.6906	0.2671	0.6006
9.13	-9.5662	-0.6355	-0.9967	-0.0185	-0.0092	-0.0609	25.4838	-7.4657	4.4562	0.3016	-0.6907	0.2670	0.6007
9.14	-9.5613	-0.6357	-0.9945	-0.0151	-0.0042	-0.0583	25.4625	-7.2354	4.6189	0.3015	-0.6907	0.2668	0.6006
9.15	-9.5771	-0.6357	-1.0036	-0.0138	-0.0064	-0.0669	25.3393	-7.1172	4.9366	0.3016	-0.6908	0.2667	0.6006
9.16	-9.5786	-0.6258	-1.0031	-0.0197	-0.0021	-0.0607	25.2790	-7.2542	4.7759	0.3016	-0.6909	0.2666	0.6006
9.17	-9.5707	-0.6285	-1.0046	-0.0232	-0.0003	-0.0653	25.6209	-7.2106	4.7721	0.3015	-0.6909	0.2664	0.6006
9.18	-9.5758	-0.6305	-1.0151	-0.0223	0.0021	-0.0570	25.3736	-7.5228	4.6778	0.3015	-0.6911	0.2663	0.6006
9.19	-9.5927	-0.6304	-1.0172	-0.0218	0.0092	-0.0570	25.6433	-7.5577	4.5187	0.3014	-0.6911	0.2662	0.6005
9.2	-9.5921	-0.6332	-1.0291	-0.0227	0.0103	-0.0636	25.7025	-7.3159	4.5352	0.3014	-0.6913	0.2661	0.6005
9.21	-9.5799	-0.6437	-1.0357	-0.0300	0.0018	-0.0647	25.6259	-7.3256	4.8082	0.3013	-0.6913	0.2658	0.6004
9.22	-9.6002	-0.6500	-1.0477	-0.0282	0.0176	-0.0598	25.7490	-7.5027	4.7597	0.3013	-0.6915	0.2657	0.6004
9.23	-9.6032	-0.6535	-1.0617	-0.0297	0.0103	-0.0636	25.5963	-7.6078	4.6236	0.3012	-0.6916	0.2656	0.6004
9.24	-9.6038	-0.6605	-1.0601	-0.0272	0.0132	-0.0636	25.6816	-7.3792	4.8892	0.3011	-0.6917	0.2654	0.6003
9.25	-9.6265	-0.6762	-1.0739	-0.0281	0.0177	-0.0578	25.5236	-7.5555	4.7477	0.3010	-0.6919	0.2654	0.6003
9.26	-9.6239	-0.6811	-1.0860	-0.0270	0.0107	-0.0622	25.4415	-7.3373	4.6825	0.3009	-0.6920	0.2653	0.6002
9.27	-9.6312	-0.6867	-1.0880	-0.0281	0.0098	-0.0555	25.5296	-7.3651	4.8755	0.3008	-0.6922	0.2652	0.6002
9.28	-9.6328	-0.6894	-1.0991	-0.0281	-0.0007	-0.0552	25.6668	-7.2156	4.8762	0.3006	-0.6921	0.2651	0.6001
9.29	-9.6166	-0.6930	-1.1005	-0.0270	0.0014	-0.0568	25.4056	-7.4124	4.6095	0.3005	-0.6923	0.2651	0.6002
9.3	-9.6129	-0.6897	-1.1039	-0.0283	0.0018	-0.0592	25.2015	-7.1992	4.6126	0.3003	-0.6924	0.2650	0.6002
9.31	-9.6203	-0.6834	-1.1111	-0.0188	-0.0018	-0.0547	25.5088	-7.2271	4.7821	0.3002	-0.6924	0.2649	0.6001
9.32	-9.6303	-0.6853	-1.1123	-0.0113	-0.0006	-0.0546	25.3183	-7.2526	4.7752	0.3002	-0.6925	0.2649	0.6002
9.33	-9.6237	-0.6761	-1.1145	-0.0145	-0.0045	-0.0570	25.3661	-7.1574	4.6116	0.3001	-0.6925	0.2648	0.6001
9.34	-9.6146	-0.6731	-1.1142	-0.0041	0.0021	-0.0551	25.4591	-7.3128	4.6080	0.3000	-0.6926	0.2648	0.6001
9.35	-9.6343	-0.6628	-1.1132	-0.0108	0.0067	-0.0489	25.3140	-7.1306	4.8820	0.2999	-0.6926	0.2648	0.6000
9.36	-9.6440	-0.6534	-1.1146	-0.0040	-0.0076	-0.0506	25.7582	-7.1848	4.9665	0.2999	-0.6927	0.2649	0.6001
9.37	-9.6394	-0.6463	-1.1122	-0.0006	-0.0080	-0.0508	26.0245	-7.1242	4.7822	0.3002	-0.6926	0.2652	0.5999
9.38	-9.6449	-0.6354	-1.1116	-0.0137	-0.0127	-0.0513	25.9098	-7.2547	4.7866	0.3002	-0.6926	0.2653	0.5999
9.39	-9.6412	-0.6315	-1.1127	-0.0038	-0.0109	-0.0531	25.7876	-7.3275	4.8446	0.3001	-0.6925	0.2653	0.5999
9.4	-9.6245	-0.6173	-1.1011	-0.0027	-0.0142	-0.0547	25.6505	-7.3444	4.7559	0.3001	-0.6926	0.2653	0.6000
9.41	-9.6216	-0.6130	-1.0924	-0.0051	-0.0143	-0.0558	25.6768	-7.3950	4.9375	0.3000	-0.6926	0.2652	0.6000
9.42	-9.6261	-0.6103	-1.0919	-0.0097	-0.0135	-0.0566	25.7540	-7.3284	4.8332	0.3000	-0.6925	0.2652	0.6000
9.43	-9.6246	-0.6040	-1.0822	-0.0127	-0.0159	-0.0586	25.5663	-7.4829	4.7274	0.2999	-0.6926	0.2651	0.6001
9.44	-9.6191	-0.6015	-1.0829	-0.0183	-0.0197	-0.0637	25.3900	-7.4130	4.8885	0.2999	-0.6926	0.2650	0.6001
9.45	-9.6176	-0.6039	-1.0769	-0.0248	-0.0220	-0.0627	25.3016	-7.5257	5.0012	0.2998	-0.6927	0.2649	0.6002
9.46	-9.6043	-0.6096	-1.0699	-0.0292	-0.0202	-0.0647	25.5843	-7.5527	5.0403	0.2997	-0.6926	0.2647	0.6002
9.47	-9.6097	-0.6193	-1.0745	-0.0273	-0.0200	-0.0704	25.5750	-7.1505	4.7369	0.2996	-0.6927	0.2646	0.6003
9.48	-9.6164	-0.6294	-1.0743	-0.0278	-0.0149	-0.0638	25.2331	-7.0952	4.9402	0.2996	-0.6928	0.2645	0.6003
9.49	-9.6228	-0.6332	-1.0632	-0.0321	-0.0245	-0.0681	25.5971	-7.3732	4.8094	0.2995	-0.6928	0.2643	0.6004
9.5	-9.6403	-0.6485	-1.0623	-0.0315	-0.0166	-0.0702	25.2770	-7.4450	4.8675	0.2994	-0.6929	0.2642	0.6005
9.51	-9.6320	-0.6574	-1.0644	-0.0332	-0.0205	-0.0708	25.4666	-7.3312	5.0373	0.2993	-0.6929	0.2640	0.6005
9.52	-9.6144	-0.6779	-1.0474	-0.0474	-0.0227	-0.0758	25.5205	-7.3702	5.0343	0.2992	-0.6930	0.2638	0.6006
9.53	-9.6035	-0.6919	-1.0399	-0.0455	-0.0230	-0.0659	25.3022	-7.3496	4.8852	0.2990	-0.6930	0.2635	0.6006
9.54	-9.6006	-0.6997	-1.0377	-0.0335	-0.0319	-0.0679	25.5184	-7.3663	4.8801	0.2990	-0.6931	0.2634	0.6008
9.55	-9.5907	-0.7048	-1.0312	-0.0330	-0.0226	-0.0640	25.3341	-7.3501	5.0004	0.2989	-0.6931	0.2632	0.6009
9.56	-9.5843	-0.7145	-1.0258	-0.0395	-0.0172	-0.0677	25.5032	-7.3650	4.5869	0.2988	-0.6931	0.2630	0.6009
9.57	-9.5860	-0.7243	-1.0215	-0.0322	-0.0209	-0.0668	25.6479	-7.4313	4.7693	0.2988	-0.6932	0.2628	0.6010
9.58	-9.5955	-0.7297	-1.0183	-0.0323	-0.0208	-0.0652	25.6158	-7.6259	4.8806	0.2987	-0.6932	0.2626	0.6010
9.59	-9.5900	-0.7336	-1.0246	-0.0266	-0.0198	-0.0633	25.5915	-7.5158	4.9266	0.2986	-0.6933	0.2625	0.6011
9.6	-9.5508	-0.7210	-1.0202	-0.0234	-0.0152	-0.0639	25.4064	-7.3307	4.5844	0.2986	-0.6932	0.2623	0.6011
9.61	-9.5584	-0.7138	-1.0117	-0.0281	-0.0052	-0.0617	25.4858	-7.3700	4.8186	0.2986	-0.6934	0.2621	0.6012
9.62	-9.6070	-0.7012	-1.0263	-0.0219	-0.0071	-0.0589	25.5234	-7.3645	4.5902	0.2985	-0.6934	0.2620	0.6012
9.63	-9.5993	-0.6902	-1.0108	-0.0258	-0.0098	-0.0586	25.3381	-7.3012	4.6468	0.2984	-0.6935	0.2619	0.6012
9.64	-9.5937	-0.7088	-1.0066	-0.0283	-0.0125	-0.0582	25.3659	-7.2398	4.9868	0.2983	-0.6935	0.2618	0.6012
9.65	-9.6348	-0.7211	-1.0151	-0.0234	-0.0104	-0.0545	25.4730	-7.3169	4.8631	0.2982	-0.6936	0.2618	0.6013
9.66	-9.6427	-0.7026	-1.0173	-0.0215	-0.0043	-0.0567	25.6125	-7.3495	5.0186	0.2981	-0.6936	0.2617	0.6013
9.67	-9.6276	-0.7034	-1.0153	-0.0255	-0.0034	-0.0519	25.6416	-7.0610	4.9409	0.2981	-0.6936	0.2618	0.6012
9.68	-9.5874	-0.7161	-1.0238	-0.0201	-0.0102	-0.0514	25.4089	-7.2221	4.5735	0.2980	-0.6937	0.2618	0.6013
9.69	-9.5554	-0.7317	-1.0150	-0.0158	-0.0080	-0.0460	25.4676	-7.1363	4.6978	0.2980	-0.6937	0.2617	0.6013
9.7	-9.5865	-0.7338	-1.0304	-0.0215	-0.0054	-0.0387	25.4232	-7.0670	4.7545	0.2979	-0.6938	0.2617	0.6014
9.71	-9.5864	-0.7198	-1.0390	-0.0172	-0.0028	-0.0351	25.5556	-7.1963	4.6948	0.2977	-0.6937	0.2617	0.6013
9.72	-9.5910	-0.6970	-1.0411	-0.0080	-0.0035	-0.0335	25.5104	-7.2962	4.9257	0.2976	-0.6937	0.2617	0.6014
9.73	-9.6080	-0.6821	-1.0548	-0.0039	-0.0027	-0.0330	25.4048	-7.2219	5.0032	0.2975	-0.6938	0.2618	0.6014
9.74	-9.5918	-0.6643	-1.0527	-0.0025	0.0005	-0.0365	25.5508	-7.1332	4.7876	0.2974	-0.6937	0.2619	0.6014
9.75	-9.6003	-0.6532	-1.0589	0.0007	-0.0036	-0.0434	25.4239	-7.4290	4.9505	0.2973	-0.6938	0.2619	0.6014
9.76	-9.6206	-0.6465	-1.0688	0.0091	0.0026	-0.0462	25.6050	-7.5434	4.9125	0.2973	-0.6938	0.2620	0.6014
9.77	-9.6168	-0.6291	-1.0694	0.0000	-0.0056	-0.0415	25.3758	-7.3344	4.9285	0.2972	-0.6938	0.2621	0.6014
9.78	-9.6111	-0.6122	-1.0693	0.0038	-0.0065	-0.0440	25.3490	-7.4497	4.9145	0.2971	-0.6938	0.2621	0.6013
9.79	-9.6213	-0.5968	-1.0674	0.0005	-0.0050	-0.0497	25.3426	-7.4578	4.9307	0.2971	-0.6938	0.2621	0.6014
9.8	-9.6213	-0.5783	-1.0709	-0.0051	-0.0083	-0.0422	25.4082	-7.4100	4.9098	0.2970	-0.6938	0.2622	0.6014
9.81	-9.6041	-0.5613	-1.0766	-0.0062	-0.0091	-0.0563	25.4530	-7.2667	4.9424	0.2969	-0.6938	0.2622	0.6014
9.82	-9.5994	-0.5739	-1.0787	-0.0117	-0.0042	-0.0597	25.5383	-7.2637	4.7936	0.2969	-0.6939	0.2621	0.6014
9.83	-9.6149	-0.5814	-1.0832	-0.0283	0.0003	-0.0601	25.6644	-7.2905	4.7383	0.2967	-0.6940	0.2620	0.6014
9.84	-9.6130	-0.5831	-1.0871	-0.0261	-0.0062	-0.0647	25.5623	-7.4336	4.9244	0.2967	-0.6941	0.2619	0.6014
9.85	-9.6162	-0.5997	-1.0860	-0.0345	-0.0018	-0.0720	25.4214	-7.4744	4.9283	0.2965	-0.6941	0.2618	0.6014
9.86	-9.6468	-0.6207	-1.0981	-0.0431	0.0004	-0.0687	25.6800	-7.1899	4.9040	0.2964	-0.6943	0.2616	0.6014
9.87	-9.6436	-0.6317	-1.1002	-0.0458	-0.0056	-0.0693	25.7281	-7.2274	5.1235	0.2962	-0.6944	0.2615	0.6014
9.88	-9.6280	-0.6585	-1.1024	-0.0506	-0.0117	-0.0772	25.6817	-7.2575	4.9676	0.2961	-0.6945	0.2612	0.6015
9.89	-9.6388	-0.6827	-1.1107	-0.0504	-0.0105	-0.0684	25.5678	-7.0742	4.7845	0.2961	-0.6945	0.2612	0.6014
9.9	-9.6256	-0.6965	-1.1138	-0.0480	-0.0108	-0.0659	25.3571	-7.1992	4.8773	0.2960	-0.6946	0.2611	0.6015
9.91	-9.6023	-0.7138	-1.1128	-0.0535	-0.0134	-0.0673	25.2477	-7.1865	4.7089	0.2958	-0.6947	0.2609	0.6016
9.92	-9.5558	-0.7257	-1.1070	-0.0421	-0.0167	-0.0673	25.4051	-7.1547	4.6997	0.2957	-0.6947	0.2606	0.6016
9.93	-9.5740	-0.7325	-1.0892	-0.0299	-0.0128	-0.0629	25.2185	-7.2822	4.8145	0.2957	-0.6948	0.2605	0.6017
9.94	-9.6994	-0.7386	-1.1063	-0.0286	-0.0081	-0.0648	25.5572	-7.3792	4.9573	0.2955	-0.6948	0.2604	0.6017
9.95	-9.6439	-0.7232	-1.1015	-0.0257	-0.0233	-0.0646	25.6112	-7.2609	4.7327	0.2955	-0.6949	0.2603	0.6018
9.96	-9.5787	-0.7398	-1.0614	-0.0262	-0.0271	-0.0646	25.5080	-7.2462	4.6879	0.2954	-0.6948	0.2600	0.6018
9.97	-9.6369	-0.7459	-1.0890	-0.0169	-0.0084	-0.0652	25.6982	-7.4965	4.8550	0.2954	-0.6949	0.2600	0.6019
9.98	-9.6200	-0.7370	-1.0826	-0.0053	-0.0225	-0.0581	25.5580	-7.5281	4.7461	0.2953	-0.6949	0.2599	0.6019
9.99	-9.5657	-0.7272	-1.0680	-0.0078	-0.0201	-0.0498	25.5285	-7.5074	4.6292	0.2953	-0.6949	0.2598	0.6019
10	-9.5874	-0.7102	-1.0682	-0.0033	-0.0176	-0.0435	25.7581	-7.5390	4.6084	0.2953	-0.6949	0.2598	0.6021
10.01	-9.6054	-0.6784	-1.0691	-0.0044	-0.0128	-0.0439	25.7042	-7.4767	4.6576	0.2953	-0.6949	0.2598	0.6020
10.02	-9.6078	-0.6731	-1.0625	-0.0034	-0.0195	-0.0501	25.5394	-7.3875	4.7790	0.2952	-0.6949	0.2598	0.6021
10.03	-9.6281	-0.6830	-1.0574	-0.0067	-0.0091	-0.0551	25.5739	-7.1363	4.9178	0.2952	-0.6948	0.2598	0.6021
10.04	-9.6326	-0.6806	-1.0591	-0.0038	-0.0122	-0.0567	25.3910	-7.0971	4.7308	0.2953	-0.6948	0.2600	0.6021
10.05	-9.6246	-0.6765	-1.0527	-0.0009	-0.0145	-0.0582	25.4314	-7.0037	4.5705	0.2954	-0.6947	0.2601	0.6020
10.06	-9.6093	-0.6704	-1.0523	-0.0094	-0.0207	-0.0555	25.4060	-7.1140	4.9355	0.2955	-0.6947	0.2602	0.6020
10.07	-9.5795	-0.6623	-1.0486	-0.0120	-0.0130	-0.0505	25.3452	-7.3039	4.8442	0.2954	-0.6947	0.2601	0.6021
10.08	-9.5559	-0.6604	-1.0468	-0.0089	-0.0086	-0.0559	25.5280	-7.2168	4.8410	0.2954	-0.6947	0.2600	0.6020
10.09	-9.5559	-0.6640	-1.0476	-0.0238	-0.0074	-0.0565	25.5849	-7.3032	4.6458	0.2954	-0.6948	0.2599	0.6021
10.1	-9.5790	-0.6685	-1.0477	-0.0234	-0.0053	-0.0559	25.7754	-7.1251	4.6765	0.2955	-0.6947	0.2600	0.6020
10.11	-9.5919	-0.6705	-1.0580	-0.0282	-0.0050	-0.0575	25.5593	-7.2238	5.0539	0.2954	-0.6948	0.2599	0.6020
10.12	-9.6242	-0.6796	-1.0562	-0.0202	-0.0060	-0.0517	25.4587	-7.5168	4.7929	0.2953	-0.6948	0.2599	0.6020
10.13	-9.6493	-0.6865	-1.0480	-0.0227	-0.0097	-0.0460	25.6550	-7.3125	4.8115	0.2952	-0.6949	0.2599	0.6021
10.14	-9.6568	-0.6906	-1.0439	-0.0276	-0.0122	-0.0546	25.6334	-7.4424	4.8046	0.2950	-0.6949	0.2598	0.6021
10.15	-9.6540	-0.6930	-1.0502	-0.0271	-0.0236	-0.0526	25.7530	-7.5555	4.7994	0.2949	-0.6949	0.2597	0.6022
10.16	-9.6307	-0.6896	-1.0470	-0.0276	-0.0307	-0.0517	25.7103	-7.4436	4.6446	0.2948	-0.6949	0.2596	0.6024
10.17	-9.6144	-0.6907	-1.0439	-0.0269	-0.0245	-0.0514	25.7495	-7.4304	4.9221	0.2946	-0.6948	0.2595	0.6024
10.18	-9.5965	-0.6865	-1.0379	-0.0223	-0.0201	-0.0543	25.5001	-7.4111	4.8743	0.2946	-0.6949	0.2594	0.6026
10.19	-9.5845	-0.6752	-1.0230	-0.0240	-0.0154	-0.0493	25.5912	-7.4891	4.7898	0.2945	-0.6949	0.2593	0.6026
10.2	-9.5944	-0.6763	-1.0309	-0.0286	-0.0143	-0.0520	25.4471	-7.4735	4.8068	0.2944	-0.6950	0.2592	0.6027
10.21	-9.5892	-0.6748	-1.0268	-0.0262	-0.0215	-0.0550	25.5624	-7.4028	4.8216	0.2943	-0.6949	0.2590	0.6027
10.22	-9.5918	-0.6743	-1.0251	-0.0276	-0.0144	-0.0557	25.5225	-7.3392	4.6403	0.2943	-0.6950	0.2589	0.6028
10.23	-9.6159	-0.6748	-1.0345	-0.0273	-0.0051	-0.0553	25.4363	-7.3482	4.8613	0.2942	-0.6951	0.2588	0.6028
10.24	-9.5996	-0.6690	-1.0296	-0.0283	-0.0195	-0.0526	25.4643	-7.2821	4.8350	0.2940	-0.6950	0.2587	0.6028
10.25	-9.5964	-0.6710	-1.0302	-0.0235	-0.0132	-0.0585	25.5589	-7.2123	4.6842	0.2940	-0.6952	0.2587	0.6030
10.26	-9.6132	-0.6767	-1.0329	-0.0165	-0.0078	-0.0551	25.5450	-7.3410	4.7050	0.2938	-0.6951	0.2586	0.6029
10.27	-9.5950	-0.6711	-1.0252	-0.0274	-0.0112	-0.0519	25.5636	-7.2328	4.7743	0.2937	-0.6952	0.2585	0.6030
10.28	-9.6027	-0.6707	-1.0228	-0.0174	-0.0127	-0.0556	25.4542	-7.0448	4.8070	0.2938	-0.6951	0.2587	0.6029
10.29	-9.6171	-0.6780	-1.0311	-0.0138	-0.0085	-0.0543	25.5753	-7.2031	4.8012	0.2938	-0.6952	0.2587	0.6030
10.3	-9.6197	-0.6720	-1.0204	-0.0127	-0.0058	-0.0544	25.5258	-7.1588	4.7706	0.2937	-0.6952	0.2586	0.6030
10.31	-9.6185	-0.6673	-1.0210	-0.0054	-0.0158	-0.0615	25.6293	-7.4506	4.6006	0.2936	-0.6952	0.2586	0.6030
10.32	-9.6213	-0.6636	-1.0219	-0.0113	-0.0188	-0.0562	25.6459	-7.4171	4.7282	0.2936	-0.6952	0.2586	0.6031
10.33	-9.6122	-0.6476	-1.0184	-0.0026	-0.0083	-0.0579	25.6301	-7.3230	4.7089	0.2935	-0.6952	0.2585	0.6031
10.34	-9.6177	-0.6437	-1.0194	-0.0131	-0.0081	-0.0647	25.6501	-7.3514	4.7111	0.2935	-0.6953	0.2585	0.6031
10.35	-9.6189	-0.6370	-1.0132	-0.0232	-0.0087	-0.0630	25.6094	-7.3440	4.7039	0.2934	-0.6952	0.2584	0.6030
10.36	-9.6142	-0.6284	-1.0118	-0.0205	-0.0084	-0.0693	25.8919	-7.2276	4.9354	0.2934	-0.6954	0.2583	0.6031
10.37	-9.6247	-0.6415	-1.0172	-0.0292	-0.0091	-0.0668	26.0398	-7.2871	5.0354	0.2932	-0.6954	0.2581	0.6031
10.38	-9.6280	-0.6468	-1.0188	-0.0256	-0.0132	-0.0765	25.9190	-7.3953	4.8528	0.2932	-0.6955	0.2580	0.6032
10.39	-9.5997	-0.6455	-1.0146	-0.0291	-0.0109	-0.0699	25.7614	-7.2536	4.7275	0.2931	-0.6955	0.2578	0.6032
10.4	-9.5981	-0.6667	-1.0134	-0.0284	-0.0133	-0.0665	25.4845	-7.1752	4.7918	0.2930	-0.6956	0.2577	0.6032
10.41	-9.6064	-0.6845	-1.0262	-0.0312	-0.0088	-0.0741	25.6884	-7.2183	4.8795	0.2930	-0.6957	0.2576	0.6032
10.42	-9.5888	-0.6903	-1.0159	-0.0322	-0.0070	-0.0728	25.4598	-7.0848	4.9384	0.2929	-0.6957	0.2573	0.6032
10.43	-9.5957	-0.7025	-1.0262	-0.0449	-0.0025	-0.0749	25.4683	-7.0792	4.7675	0.2928	-0.6959	0.2573	0.6033
10.44	-9.6003	-0.7141	-1.0357	-0.0482	-0.0016	-0.0769	25.5928	-7.1257	4.8806	0.2929	-0.6959	0.2572	0.6031
10.45	-9.5958	-0.7232	-1.0259	-0.0480	-0.0042	-0.0808	25.5131	-7.2142	4.9167	0.2927	-0.6961	0.2570	0.6032
10.46	-9.6122	-0.7295	-1.0276	-0.0493	-0.0060	-0.0814	25.6788	-7.0627	4.9136	0.2928	-0.6960	0.2570	0.6031
10.47	-9.6133	-0.7386	-1.0266	-0.0388	-0.0031	-0.0744	25.5950	-7.1089	4.8861	0.2929	-0.6961	0.2571	0.6030
10.48	-9.6116	-0.7397	-1.0273	-0.0378	-0.0150	-0.0760	25.5533	-7.2471	4.7851	0.2928	-0.6962	0.2569	0.6031
10.49	-9.6167	-0.7463	-1.0335	-0.0363	-0.0130	-0.0841	25.5149	-7.2743	4.8607	0.2927	-0.6962	0.2566	0.6030
10.5	-9.5958	-0.7430	-1.0277	-0.0293	-0.0121	-0.0779	25.8053	-7.3461	4.5795	0.2927	-0.6964	0.2565	0.6032
10.51	-9.5895	-0.7493	-1.0250	-0.0266	-0.0093	-0.0771	25.7478	-7.3819	4.7064	0.2926	-0.6964	0.2563	0.6031
10.52	-9.5836	-0.7482	-1.0369	-0.0278	-0.0010	-0.0813	25.5964	-7.2693	4.7191	0.2926	-0.6965	0.2561	0.6031
10.53	-9.5761	-0.7433	-1.0321	-0.0269	-0.0039	-0.0734	25.6618	-7.2689	4.8299	0.2926	-0.6965	0.2559	0.6030
10.54	-9.5779	-0.7468	-1.0472	-0.0336	-0.0007	-0.0760	25.6299	-7.4594	4.8045	0.2925	-0.6967	0.2557	0.6031
10.55	-9.5923	-0.7581	-1.0449	-0.0397	-0.0011	-0.0704	25.4595	-7.2968	4.5277	0.2924	-0.6968	0.2556	0.6031
10.56	-9.5944	-0.7561	-1.0516	-0.0429	-0.0044	-0.0668	25.5399	-7.1650	4.8612	0.2923	-0.6969	0.2554	0.6031
10.57	-9.5832	-0.7601	-1.0542	-0.0469	-0.0005	-0.0660	25.5563	-7.2104	4.6738	0.2921	-0.6970	0.2552	0.6031
10.58	-9.5751	-0.7709	-1.0602	-0.0416	-0.0016	-0.0695	25.4281	-7.1051	4.5390	0.2920	-0.6971	0.2550	0.6031
10.59	-9.5898	-0.7764	-1.0631	-0.0354	-0.0028	-0.0564	25.5147	-7.1728	4.8941	0.2918	-0.6972	0.2549	0.6032
10.6	-9.5956	-0.7802	-1.0710	-0.0315	-0.0012	-0.0653	25.6635	-7.0771	4.6061	0.2917	-0.6972	0.2548	0.6031
10.61	-9.6124	-0.7942	-1.0719	-0.0354	0.0023	-0.0607	25.7155	-7.0368	4.5334	0.2918	-0.6973	0.2549	0.6031
10.62	-9.6320	-0.7996	-1.0828	-0.0279	0.0108	-0.0594	25.6344	-7.1804	4.8790	0.2916	-0.6974	0.2548	0.6030
10.63	-9.6059	-0.8004	-1.0953	-0.0291	0.0000	-0.0547	25.5861	-7.0487	4.9193	0.2915	-0.6975	0.2548	0.6031
10.64	-9.5778	-0.8023	-1.0916	-0.0257	0.0007	-0.0453	25.4424	-7.1057	4.9019	0.2914	-0.6975	0.2548	0.6030
10.65	-9.6274	-0.7992	-1.0994	-0.0222	0.0043	-0.0451	25.5917	-6.9737	4.9065	0.2914	-0.6975	0.2550	0.6030
10.66	-9.6529	-0.7860	-1.1092	-0.0180	-0.0005	-0.0484	25.5274	-7.1947	4.9118	0.2913	-0.6976	0.2549	0.6030
10.67	-9.6137	-0.7801	-1.0873	-0.0004	-0.0079	-0.0467	25.5819	-7.1614	4.9046	0.2912	-0.6975	0.2549	0.6030
10.68	-9.6146	-0.7843	-1.0881	-0.0035	-0.0135	-0.0430	25.4097	-7.1937	4.9215	0.2912	-0.6976	0.2550	0.6031
10.69	-9.6471	-0.7828	-1.1017	0.0006	-0.0042	-0.0464	25.7035	-7.1507	4.7240	0.2911	-0.6975	0.2550	0.6031
10.7	-9.6415	-0.7605	-1.0922	0.0034	-0.0116	-0.0436	25.6702	-7.2622	4.7995	0.2911	-0.6976	0.2551	0.6031
10.71	-9.6547	-0.7445	-1.0905	0.0142	-0.0094	-0.0429	25.6307	-7.1828	4.8314	0.2910	-0.6974	0.2551	0.6031
10.72	-9.6120	-0.7228	-1.0863	0.0100	-0.0097	-0.0492	25.7490	-7.1648	4.6937	0.2910	-0.6975	0.2552	0.6031
10.73	-9.5501	-0.7120	-1.0809	0.0003	-0.0120	-0.0459	25.5536	-7.1899	4.9434	0.2911	-0.6974	0.2551	0.6031
10.74	-9.5458	-0.7172	-1.0860	-0.0009	-0.0048	-0.0437	25.5424	-7.1659	4.7979	0.2910	-0.6974	0.2551	0.6031
10.75	-9.5850	-0.7012	-1.0931	0.0001	-0.0057	-0.0432	25.5745	-7.1014	4.9391	0.2911	-0.6975	0.2551	0.6032
10.76	-9.5852	-0.6802	-1.1007	-0.0036	-0.0022	-0.0414	25.6458	-7.1825	5.1525	0.2910	-0.6975	0.2551	0.6031
10.77	-9.5801	-0.6581	-1.0942	-0.0059	-0.0063	-0.0461	25.4416	-7.1962	4.7845	0.2910	-0.6975	0.2551	0.6032
10.78	-9.6229	-0.6510	-1.1076	-0.0116	-0.0028	-0.0457	25.5584	-7.0826	4.9323	0.2908	-0.6974	0.2551	0.6031
10.79	-9.6366	-0.6471	-1.1139	-0.0256	-0.0041	-0.0584	25.4486	-6.7704	4.9753	0.2910	-0.6975	0.2554	0.6031
10.8	-9.6277	-0.6597	-1.1082	-0.0279	-0.0089	-0.0661	25.4716	-7.0349	4.8908	0.2911	-0.6974	0.2554	0.6030
10.81	-9.6281	-0.6802	-1.1198	-0.0282	-0.0041	-0.0692	25.4533	-7.1983	4.8934	0.2909	-0.6975	0.2553	0.6030
10.82	-9.6233	-0.6762	-1.1089	-0.0273	-0.0117	-0.0721	25.5562	-7.1457	5.0428	0.2909	-0.6976	0.2551	0.6031
10.83	-9.6414	-0.6865	-1.0993	-0.0339	-0.0206	-0.0683	25.7074	-7.1071	4.9256	0.2908	-0.6976	0.2549	0.6031
10.84	-9.6362	-0.6939	-1.1070	-0.0401	-0.0220	-0.0701	25.7056	-6.9697	4.9845	0.2908	-0.6976	0.2549	0.6032
10.85	-9.6113	-0.7035	-1.0980	-0.0404	-0.0201	-0.0754	25.5069	-6.8611	4.8995	0.2910	-0.6975	0.2550	0.6030
10.86	-9.6201	-0.7210	-1.0995	-0.0544	-0.0222	-0.0752	25.8141	-7.2726	4.9433	0.2909	-0.6976	0.2548	0.6032
10.87	-9.6259	-0.7356	-1.0913	-0.0473	-0.0217	-0.0749	25.9437	-7.0710	5.1467	0.2909	-0.6976	0.2547	0.6032
10.88	-9.6234	-0.7506	-1.0848	-0.0487	-0.0216	-0.0696	25.8770	-7.1466	5.0793	0.2909	-0.6976	0.2546	0.6033
10.89	-9.6231	-0.7667	-1.0825	-0.0500	-0.0210	-0.0716	25.8546	-7.0694	5.0139	0.2908	-0.6977	0.2544	0.6033
10.9	-9.6154	-0.7760	-1.0752	-0.0425	-0.0256	-0.0667	25.6525	-7.1724	4.6213	0.2909	-0.6976	0.2544	0.6033
10.91	-9.6084	-0.7851	-1.0760	-0.0501	-0.0245	-0.0643	25.8369	-7.3429	4.8697	0.2907	-0.6977	0.2541	0.6035
10.92	-9.6010	-0.7900	-1.0739	-0.0421	-0.0228	-0.0707	25.6107	-7.0375	4.8306	0.2906	-0.6977	0.2539	0.6035
10.93	-9.5955	-0.8023	-1.0693	-0.0357	-0.0255	-0.0705	25.5297	-7.1055	4.5377	0.2905	-0.6978	0.2538	0.6037
10.94	-9.5915	-0.8140	-1.0656	-0.0359	-0.0188	-0.0595	25.7695	-7.1727	4.8469	0.2904	-0.6978	0.2536	0.6037
10.95	-9.5959	-0.8107	-1.0652	-0.0273	-0.0263	-0.0565	25.3934	-7.1681	4.8934	0.2903	-0.6978	0.2535	0.6039
10.96	-9.5417	-0.8001	-1.0481	-0.0285	-0.0286	-0.0537	25.5595	-7.0764	4.8840	0.2903	-0.6977	0.2533	0.6039
10.97	-9.5756	-0.8043	-1.0258	-0.0273	-0.0127	-0.0565	25.6006	-6.9425	4.9882	0.2905	-0.6977	0.2535	0.6038
10.98	-9.6957	-0.7967	-1.0530	-0.0282	-0.0153	-0.0554	25.4994	-6.8682	4.7824	0.2906	-0.6976	0.2537	0.6038
10.99	-9.5714	-0.7753	-1.0470	-0.0277	-0.0350	-0.0512	25.5552	-6.9891	4.7937	0.2906	-0.6975	0.2536	0.6038
11	-9.5069	-0.7991	-1.0102	-0.0285	-0.0264	-0.0559	25.3084	-6.9860	4.7773	0.2906	-0.6976	0.2535	0.6040
11.01	-9.5898	-0.8126	-1.0576	-0.0272	-0.0114	-0.0468	25.5246	-6.9986	4.9611	0.2905	-0.6976	0.2534	0.6040
11.02	-9.5662	-0.7941	-1.0524	-0.0291	-0.0152	-0.0388	25.4848	-7.1782	4.9360	0.2904	-0.6976	0.2533	0.6041
11.03	-9.5267	-0.7902	-1.0482	-0.0142	-0.0045	-0.0313	25.3108	-7.0772	4.7581	0.2903	-0.6975	0.2532	0.6041
11.04	-9.5663	-0.7850	-1.0662	-0.0046	-0.0091	-0.0311	25.3912	-6.9544	4.8163	0.2903	-0.6976	0.2533	0.6042
11.05	-9.6069	-0.7600	-1.0711	-0.0051	-0.0026	-0.0291	25.4357	-7.0390	4.9155	0.2902	-0.6976	0.2533	0.6042
11.06	-9.6164	-0.7513	-1.0822	-0.0029	-0.0062	-0.0322	25.5029	-7.1030	4.8053	0.2901	-0.6975	0.2533	0.6042
11.07	-9.6129	-0.7655	-1.0888	-0.0003	-0.0075	-0.0425	25.6313	-7.0361	4.6759	0.2900	-0.6976	0.2534	0.6042
11.08	-9.6398	-0.7553	-1.0975	0.0026	-0.0066	-0.0463	25.7499	-7.2753	4.7341	0.2900	-0.6975	0.2534	0.6042
11.09	-9.6648	-0.7382	-1.1075	0.0205	-0.0087	-0.0412	25.6016	-7.3407	5.0895	0.2900	-0.6975	0.2535	0.6043
11.1	-9.6550	-0.7241	-1.1036	0.0221	-0.0083	-0.0344	25.7217	-7.3575	4.9899	0.2900	-0.6974	0.2536	0.6042
11.11	-9.6560	-0.6998	-1.1003	0.0178	-0.0212	-0.0329	25.5539	-7.2798	4.7559	0.2900	-0.6974	0.2538	0.6043
11.12	-9.6550	-0.6741	-1.1056	0.0162	-0.0161	-0.0355	25.5775	-7.1684	4.8111	0.2900	-0.6973	0.2538	0.6043
11.13	-9.6519	-0.6562	-1.0886	0.0125	-0.0218	-0.0343	25.5623	-7.2841	4.7861	0.2900	-0.6973	0.2539	0.6044
11.14	-9.6696	-0.6498	-1.0895	0.0064	-0.0283	-0.0351	25.5013	-7.2441	4.8028	0.2899	-0.6971	0.2540	0.6045
11.15	-9.6677	-0.6344	-1.0845	0.0030	-0.0263	-0.0422	25.6633	-7.1008	4.7820	0.2900	-0.6971	0.2541	0.6045
11.16	-9.6533	-0.6292	-1.0664	-0.0094	-0.0305	-0.0444	25.5566	-6.9214	4.5965	0.2903	-0.6969	0.2544	0.6045
11.17	-9.6478	-0.6322	-1.0616	-0.0103	-0.0299	-0.0480	25.4287	-7.1087	4.6744	0.2902	-0.6967	0.2544	0.6045
11.18	-9.6439	-0.6397	-1.0475	-0.0250	-0.0351	-0.0591	25.4438	-7.0437	4.9352	0.2902	-0.6968	0.2543	0.6047
11.19	-9.6427	-0.6495	-1.0382	-0.0273	-0.0345	-0.0528	25.4260	-7.1226	4.9936	0.2901	-0.6967	0.2541	0.6048
11.2	-9.6254	-0.6631	-1.0257	-0.0292	-0.0429	-0.0554	25.4657	-6.9221	4.9166	0.2902	-0.6967	0.2542	0.6050
11.21	-9.6041	-0.6744	-1.0121	-0.0355	-0.0396	-0.0555	25.3237	-6.8841	4.7513	0.2904	-0.6964	0.2543	0.6049
11.22	-9.5947	-0.6884	-1.0012	-0.0465	-0.0390	-0.0640	25.2686	-7.0239	4.8290	0.2902	-0.6965	0.2541	0.6051
11.23	-9.5933	-0.6997	-0.9890	-0.0379	-0.0427	-0.0597	25.5737	-6.9583	4.8932	0.2903	-0.6964	0.2540	0.6052
11.24	-9.5685	-0.7162	-0.9839	-0.0430	-0.0391	-0.0589	25.4132	-7.0548	4.8889	0.2903	-0.6963	0.2539	0.6053
11.25	-9.5578	-0.7297	-0.9755	-0.0378	-0.0355	-0.0679	25.5556	-7.2955	4.7739	0.2903	-0.6964	0.2536	0.6055
11.26	-9.5584	-0.7386	-0.9718	-0.0311	-0.0265	-0.0711	25.6313	-7.2000	4.6803	0.2903	-0.6963	0.2534	0.6055
11.27	-9.5617	-0.7465	-0.9707	-0.0336	-0.0218	-0.0726	25.6058	-7.1428	4.7133	0.2903	-0.6964	0.2531	0.6056
11.28	-9.5527	-0.7468	-0.9813	-0.0358	-0.0199	-0.0734	25.6260	-7.2359	4.6938	0.2903	-0.6964	0.2529	0.6056
11.29	-9.5420	-0.7553	-0.9775	-0.0308	-0.0236	-0.0705	25.4809	-7.5128	4.7198	0.2903	-0.6965	0.2527	0.6057
11.3	-9.5453	-0.7612	-0.9816	-0.0313	-0.0118	-0.0720	25.5891	-7.2789	4.6743	0.2903	-0.6965	0.2524	0.6057
11.31	-9.5324	-0.7621	-0.9928	-0.0293	-0.0114	-0.0694	25.6231	-7.3163	4.4997	0.2903	-0.6966	0.2522	0.6057
11.32	-9.5384	-0.7679	-0.9982	-0.0301	0.0024	-0.0680	25.6080	-7.3481	4.5436	0.2902	-0.6967	0.2521	0.6057
11.33	-9.5672	-0.7742	-1.0135	-0.0272	0.0081	-0.0637	25.6198	-7.0916	4.6115	0.2902	-0.6968	0.2519	0.6057
11.34	-9.5810	-0.7818	-1.0227	-0.0306	0.0101	-0.0660	25.5938	-7.2290	4.6555	0.2901	-0.6969	0.2518	0.6056
11.35	-9.5719	-0.7811	-1.0281	-0.0345	0.0061	-0.0679	25.2974	-6.9700	4.7975	0.2900	-0.6970	0.2516	0.6055
11.36	-9.6012	-0.7941	-1.0394	-0.0368	0.0127	-0.0663	25.6222	-6.7853	4.8988	0.2903	-0.6971	0.2517	0.6054
11.37	-9.6260	-0.7953	-1.0528	-0.0345	0.0145	-0.0573	26.0357	-6.8098	5.0124	0.2904	-0.6971	0.2519	0.6052
11.38	-9.6192	-0.8020	-1.0592	-0.0270	0.0105	-0.0590	25.8684	-6.8202	4.8971	0.2906	-0.6971	0.2520	0.6051
11.39	-9.6168	-0.8088	-1.0744	-0.0282	0.0061	-0.0550	25.8236	-6.8802	4.8220	0.2908	-0.6971	0.2523	0.6049
11.4	-9.6299	-0.8099	-1.0802	-0.0280	0.0012	-0.0557	25.6381	-6.9866	4.7205	0.2908	-0.6971	0.2524	0.6048
11.41	-9.6438	-0.8140	-1.0860	-0.0266	0.0028	-0.0544	25.5483	-7.0468	4.9730	0.2907	-0.6972	0.2523	0.6048
11.42	-9.6322	-0.8082	-1.0977	-0.0268	-0.0003	-0.0477	25.5756	-6.8940	4.9243	0.2907	-0.6971	0.2524	0.6047
