time	acceleration_x	acceleration_y	acceleration_z	gyroscope_x	gyroscope_y	gyroscope_z	magnetometer_x	magnetometer_y	magnetometer_z	quaternion_w	quaternion_x	quaternion_y	quaternion_z
0	-9.4261	-0.7231	-2.0660	-0.0253	-0.0275	-0.0496	29.3460	-5.0965	13.9283	0.5748	-0.3610	0.6904	0.2502
0.01	-9.4327	-0.7312	-2.0588	-0.0266	-0.0232	-0.0506	29.6270	-4.9645	14.0945	0.5748	-0.3610	0.6904	0.2502
0.02	-9.4524	-0.7378	-2.0714	-0.0204	-0.0138	-0.0553	29.7288	-4.9827	14.0837	0.5748	-0.3611	0.6904	0.2502
0.03	-9.4576	-0.7253	-2.0648	-0.0250	-0.0155	-0.0587	29.4914	-4.9200	14.1603	0.5748	-0.3611	0.6904	0.2502
0.04	-9.4605	-0.7177	-2.0651	-0.0125	-0.0115	-0.0597	29.4151	-4.9054	13.9870	0.5748	-0.3612	0.6904	0.2502
0.05	-9.4707	-0.6991	-2.0719	-0.0007	-0.0075	-0.0626	29.1131	-5.1167	13.9878	0.5748	-0.3611	0.6903	0.2500
0.06	-9.4571	-0.7099	-2.0611	-0.0181	-0.0088	-0.0698	29.0340	-4.9049	14.0948	0.5749	-0.3612	0.6904	0.2500
0.07	-9.4717	-0.7111	-2.0743	-0.0160	-0.0065	-0.0655	29.1374	-5.0334	14.0490	0.5748	-0.3613	0.6904	0.2499
0.08	-9.4473	-0.6966	-2.0859	-0.0087	-0.0060	-0.0710	29.0920	-5.0088	13.8634	0.5749	-0.3613	0.6904	0.2498
0.09	-9.4419	-0.7074	-2.0831	-0.0188	-0.0095	-0.0641	29.2107	-4.7400	14.0007	0.5748	-0.3614	0.6903	0.2497
0.1	-9.4704	-0.6911	-2.0975	-0.0096	0.0010	-0.0650	29.0878	-4.9412	14.2043	0.5748	-0.3615	0.6904	0.2496
0.11	-9.4589	-0.6968	-2.1091	-0.0140	-0.0013	-0.0689	29.3187	-4.9486	13.9446	0.5748	-0.3615	0.6904	0.2495
0.12	-9.4670	-0.7184	-2.1135	-0.0129	0.0012	-0.0617	29.1891	-5.0379	14.0910	0.5748	-0.3616	0.6903	0.2494
0.13	-9.4975	-0.7091	-2.1195	-0.0219	-0.0023	-0.0677	29.2086	-5.0589	14.0596	0.5748	-0.3617	0.6904	0.2493
0.14	-9.5001	-0.7028	-2.1116	-0.0218	-0.0139	-0.0716	29.3334	-4.8752	13.9550	0.5748	-0.3618	0.6904	0.2493
0.15	-9.4860	-0.7107	-2.1124	-0.0280	-0.0131	-0.0729	29.2078	-4.8923	13.9976	0.5749	-0.3619	0.6904	0.2492
0.16	-9.4844	-0.7150	-2.1018	-0.0281	-0.0103	-0.0697	29.1959	-4.7552	13.9616	0.5748	-0.3620	0.6902	0.2492
0.17	-9.4751	-0.7209	-2.1107	-0.0401	-0.0068	-0.0706	29.2063	-4.8320	13.9975	0.5748	-0.3621	0.6902	0.2492
0.18	-9.4911	-0.7167	-2.0958	-0.0392	-0.0106	-0.0641	29.1926	-5.2109	13.9562	0.5748	-0.3622	0.6902	0.2492
0.19	-9.4612	-0.7477	-2.0968	-0.0421	-0.0152	-0.0625	29.2069	-4.9417	14.0856	0.5747	-0.3623	0.6901	0.2492
0.2	-9.4587	-0.7604	-2.0841	-0.0406	-0.0129	-0.0568	29.1920	-4.9700	14.0519	0.5748	-0.3625	0.6901	0.2493
0.21	-9.4596	-0.7720	-2.0969	-0.0333	-0.0068	-0.0522	29.0780	-5.0755	14.1343	0.5747	-0.3625	0.6900	0.2493
0.22	-9.4270	-0.7764	-2.0846	-0.0299	-0.0145	-0.0449	29.1682	-5.0160	14.1334	0.5747	-0.3626	0.6901	0.2493
0.23	-9.4483	-0.7884	-2.0954	-0.0342	-0.0043	-0.0494	29.3162	-5.1568	13.9526	0.5746	-0.3626	0.6900	0.2493
0.24	-9.4540	-0.7905	-2.0987	-0.0313	-0.0051	-0.0569	29.1392	-4.9975	14.1211	0.5746	-0.3627	0.6900	0.2494
0.25	-9.4372	-0.7992	-2.0938	-0.0266	-0.0117	-0.0481	29.1280	-4.9518	14.0196	0.5746	-0.3627	0.6900	0.2494
0.26	-9.4479	-0.7898	-2.0987	-0.0251	0.0015	-0.0512	29.0133	-4.9524	13.8932	0.5745	-0.3627	0.6900	0.2494
0.27	-9.4836	-0.7956	-2.1106	-0.0225	-0.0033	-0.0468	29.1306	-5.0624	13.8776	0.5745	-0.3628	0.6901	0.2494
0.28	-9.4746	-0.7664	-2.1197	-0.0200	-0.0028	-0.0439	29.2096	-5.1633	14.0590	0.5744	-0.3628	0.6901	0.2493
0.29	-9.4786	-0.7595	-2.1020	-0.0111	-0.0044	-0.0458	29.2170	-4.8519	14.0680	0.5745	-0.3628	0.6901	0.2493
0.3	-9.5139	-0.7598	-2.1140	-0.0036	-0.0026	-0.0442	29.0999	-4.6409	14.0831	0.5744	-0.3627	0.6901	0.2492
0.31	-9.5379	-0.7499	-2.0990	-0.0028	-0.0087	-0.0432	29.1392	-4.8639	14.0340	0.5745	-0.3627	0.6902	0.2492
0.32	-9.5563	-0.7338	-2.0928	-0.0039	-0.0216	-0.0401	29.1936	-4.9689	13.9931	0.5745	-0.3626	0.6902	0.2492
0.33	-9.5316	-0.7255	-2.0871	-0.0028	-0.0227	-0.0361	29.0380	-5.0222	13.8859	0.5746	-0.3625	0.6902	0.2492
0.34	-9.4661	-0.7250	-2.0913	-0.0027	-0.0294	-0.0384	29.3565	-5.0702	14.0046	0.5746	-0.3624	0.6902	0.2491
0.35	-9.4356	-0.7096	-2.0913	-0.0034	-0.0288	-0.0416	29.2135	-4.7734	14.0624	0.5747	-0.3623	0.6902	0.2491
0.36	-9.4200	-0.7082	-2.0939	-0.0048	-0.0254	-0.0368	29.2607	-5.0249	13.9494	0.5748	-0.3622	0.6902	0.2491
0.37	-9.4424	-0.7027	-2.0965	-0.0027	-0.0154	-0.0320	29.2952	-5.0602	13.9947	0.5748	-0.3621	0.6902	0.2491
0.38	-9.4330	-0.6889	-2.1154	-0.0084	-0.0176	-0.0338	29.2037	-4.8446	14.0883	0.5749	-0.3620	0.6903	0.2492
0.39	-9.4415	-0.6760	-2.1066	-0.0029	-0.0105	-0.0330	29.2982	-5.0111	13.8813	0.5749	-0.3619	0.6903	0.2491
0.4	-9.4653	-0.6664	-2.1187	-0.0034	-0.0078	-0.0396	29.0913	-4.8788	13.7381	0.5749	-0.3619	0.6904	0.2491
0.41	-9.4832	-0.6704	-2.1189	-0.0032	-0.0076	-0.0444	29.1225	-4.8602	13.9239	0.5749	-0.3618	0.6903	0.2490
0.42	-9.4882	-0.6613	-2.1225	-0.0036	-0.0122	-0.0400	29.1034	-4.8940	14.0943	0.5749	-0.3617	0.6904	0.2490
0.43	-9.4916	-0.6580	-2.1210	-0.0125	-0.0145	-0.0470	29.1176	-5.0085	14.0746	0.5750	-0.3617	0.6904	0.2490
0.44	-9.5015	-0.6577	-2.1163	-0.0131	-0.0149	-0.0518	29.1007	-5.1511	14.0656	0.5750	-0.3617	0.6903	0.2489
0.45	-9.4954	-0.6487	-2.1189	-0.0142	-0.0264	-0.0519	29.1229	-5.1111	14.1045	0.5751	-0.3617	0.6904	0.2489
0.46	-9.4753	-0.6427	-2.1093	-0.0175	-0.0239	-0.0588	29.0836	-4.9082	14.1543	0.5751	-0.3617	0.6902	0.2489
0.47	-9.4626	-0.6480	-2.1093	-0.0268	-0.0316	-0.0546	28.9743	-4.9973	14.0192	0.5752	-0.3618	0.6902	0.2489
0.48	-9.4687	-0.6423	-2.0988	-0.0287	-0.0227	-0.0606	29.1397	-4.8563	14.2032	0.5752	-0.3618	0.6900	0.2489
0.49	-9.4785	-0.6513	-2.1102	-0.0283	-0.0196	-0.0671	29.2994	-4.7631	14.0026	0.5753	-0.3619	0.6900	0.2489
0.5	-9.4602	-0.6574	-2.1068	-0.0282	-0.0199	-0.0599	29.3462	-4.8027	14.1911	0.5754	-0.3619	0.6899	0.2489
0.51	-9.4845	-0.6578	-2.0904	-0.0288	-0.0207	-0.0657	29.6823	-4.6980	14.2988	0.5754	-0.3620	0.6898	0.2489
0.52	-9.5235	-0.6675	-2.0967	-0.0313	-0.0216	-0.0609	29.5392	-4.6784	14.1225	0.5755	-0.3621	0.6898	0.2489
0.53	-9.5053	-0.6768	-2.0948	-0.0403	-0.0294	-0.0691	29.4979	-4.8424	14.1700	0.5755	-0.3622	0.6897	0.2490
0.54	-9.4928	-0.6818	-2.0865	-0.0358	-0.0346	-0.0635	29.3520	-4.9355	14.1388	0.5756	-0.3623	0.6896	0.2490
0.55	-9.4678	-0.6841	-2.0778	-0.0398	-0.0297	-0.0632	29.1769	-5.0878	13.8782	0.5756	-0.3623	0.6894	0.2491
0.56	-9.5212	-0.6821	-2.0605	-0.0411	-0.0298	-0.0699	29.1871	-5.1407	14.0508	0.5757	-0.3625	0.6893	0.2491
0.57	-9.5716	-0.6823	-2.0782	-0.0367	-0.0335	-0.0687	29.3006	-5.1421	14.0941	0.5758	-0.3626	0.6892	0.2492
0.58	-9.4965	-0.6920	-2.0586	-0.0500	-0.0489	-0.0740	29.1592	-5.0748	14.1098	0.5759	-0.3627	0.6890	0.2493
0.59	-9.4788	-0.6957	-2.0428	-0.0311	-0.0389	-0.0825	29.2653	-4.9376	13.9673	0.5760	-0.3628	0.6888	0.2492
0.6	-9.4940	-0.6983	-2.0482	-0.0447	-0.0411	-0.0834	29.2568	-4.8457	13.9076	0.5761	-0.3630	0.6886	0.2493
0.61	-9.4704	-0.7135	-2.0403	-0.0552	-0.0446	-0.0809	29.2691	-4.9233	14.0452	0.5763	-0.3632	0.6884	0.2494
0.62	-9.4600	-0.7207	-2.0407	-0.0553	-0.0380	-0.0731	29.1865	-4.9978	13.8882	0.5763	-0.3633	0.6882	0.2494
0.63	-9.4541	-0.7237	-2.0326	-0.0442	-0.0322	-0.0642	29.0371	-4.8119	13.8998	0.5764	-0.3634	0.6881	0.2495
0.64	-9.4501	-0.7265	-2.0329	-0.0357	-0.0306	-0.0576	29.3022	-4.8176	14.0744	0.5764	-0.3635	0.6880	0.2496
0.65	-9.4607	-0.7320	-2.0311	-0.0483	-0.0276	-0.0585	29.0633	-4.8982	14.0107	0.5765	-0.3636	0.6879	0.2497
0.66	-9.4678	-0.7400	-2.0320	-0.0469	-0.0342	-0.0641	28.8458	-4.7913	13.5220	0.5765	-0.3637	0.6877	0.2498
0.67	-9.4574	-0.7453	-2.0320	-0.0381	-0.0315	-0.0717	29.0759	-4.6370	13.8598	0.5766	-0.3638	0.6876	0.2498
0.68	-9.4706	-0.7515	-2.0185	-0.0395	-0.0298	-0.0703	29.2452	-4.8260	14.1697	0.5767	-0.3639	0.6875	0.2498
0.69	-9.4893	-0.7535	-2.0198	-0.0332	-0.0338	-0.0686	29.2811	-4.8738	13.6467	0.5767	-0.3640	0.6873	0.2499
0.7	-9.4702	-0.7552	-2.0146	-0.0305	-0.0353	-0.0661	29.1324	-4.9916	13.8852	0.5769	-0.3641	0.6873	0.2499
0.71	-9.4566	-0.7554	-2.0090	-0.0282	-0.0301	-0.0627	29.2293	-5.0309	13.6979	0.5769	-0.3641	0.6871	0.2499
0.72	-9.4528	-0.7524	-2.0153	-0.0285	-0.0285	-0.0615	29.4757	-4.9305	13.6473	0.5771	-0.3642	0.6870	0.2500
0.73	-9.4350	-0.7490	-2.0158	-0.0283	-0.0281	-0.0606	29.3294	-4.9696	13.8618	0.5771	-0.3642	0.6868	0.2499
0.74	-9.4467	-0.7461	-2.0195	-0.0294	-0.0195	-0.0619	29.2497	-4.9659	13.5346	0.5772	-0.3643	0.6868	0.2500
0.75	-9.4392	-0.7482	-2.0204	-0.0292	-0.0160	-0.0579	29.2478	-5.0992	13.7549	0.5772	-0.3643	0.6868	0.2500
0.76	-9.4540	-0.7511	-2.0137	-0.0285	-0.0101	-0.0568	29.3277	-4.9465	13.9026	0.5772	-0.3644	0.6867	0.2500
0.77	-9.4885	-0.7553	-2.0262	-0.0286	-0.0061	-0.0528	29.3745	-4.9647	13.9224	0.5772	-0.3644	0.6867	0.2500
0.78	-9.4822	-0.7582	-2.0294	-0.0286	-0.0129	-0.0551	29.2958	-5.0809	13.8628	0.5772	-0.3645	0.6867	0.2500
0.79	-9.4806	-0.7608	-2.0221	-0.0276	-0.0206	-0.0469	29.0615	-4.9913	13.7976	0.5772	-0.3645	0.6866	0.2501
0.8	-9.4966	-0.7596	-2.0285	-0.0260	-0.0117	-0.0459	29.5004	-4.8596	13.8074	0.5772	-0.3645	0.6865	0.2501
0.81	-9.4930	-0.7590	-2.0298	-0.0253	-0.0074	-0.0509	29.2559	-4.8771	13.8249	0.5772	-0.3645	0.6866	0.2501
0.82	-9.4766	-0.7550	-2.0291	-0.0175	-0.0096	-0.0466	29.2013	-4.8537	13.9402	0.5772	-0.3645	0.6866	0.2501
0.83	-9.4822	-0.7572	-2.0246	-0.0303	-0.0065	-0.0520	29.2324	-4.6616	14.1094	0.5772	-0.3646	0.6866	0.2501
0.84	-9.4937	-0.7437	-2.0328	-0.0174	-0.0110	-0.0436	29.0408	-4.8212	13.9494	0.5772	-0.3645	0.6866	0.2501
0.85	-9.4877	-0.7389	-2.0307	-0.0101	-0.0113	-0.0527	29.1048	-4.7304	13.9330	0.5772	-0.3645	0.6866	0.2501
0.86	-9.4933	-0.7296	-2.0280	-0.0142	-0.0093	-0.0500	29.0653	-4.9289	13.9672	0.5773	-0.3645	0.6866	0.2501
0.87	-9.4931	-0.7202	-2.0299	-0.0030	-0.0158	-0.0563	29.0863	-4.9038	13.7930	0.5773	-0.3645	0.6865	0.2500
0.88	-9.4897	-0.7129	-2.0240	-0.0110	-0.0138	-0.0557	29.1737	-4.7479	13.8935	0.5774	-0.3645	0.6866	0.2500
0.89	-9.4743	-0.7048	-2.0201	-0.0083	-0.0178	-0.0552	29.1904	-5.1188	13.9693	0.5774	-0.3645	0.6865	0.2499
0.9	-9.4710	-0.6936	-2.0207	-0.0053	-0.0160	-0.0591	29.3515	-5.3584	13.9538	0.5776	-0.3645	0.6865	0.2499
0.91	-9.4789	-0.6909	-2.0194	-0.0187	-0.0101	-0.0637	29.3430	-5.1047	13.8069	0.5775	-0.3645	0.6864	0.2498
0.92	-9.4701	-0.6959	-2.0289	-0.0287	-0.0171	-0.0650	29.3494	-4.9301	13.8998	0.5776	-0.3646	0.6864	0.2498
0.93	-9.4504	-0.6970	-2.0174	-0.0261	-0.0178	-0.0583	29.3452	-4.9638	13.5896	0.5776	-0.3646	0.6863	0.2498
0.94	-9.4683	-0.6845	-2.0163	-0.0290	-0.0139	-0.0616	29.3548	-4.9788	13.7051	0.5776	-0.3647	0.6862	0.2498
0.95	-9.4675	-0.7055	-2.0338	-0.0300	-0.0110	-0.0613	29.2472	-4.8278	13.8500	0.5777	-0.3648	0.6862	0.2498
0.96	-9.4664	-0.7115	-2.0227	-0.0297	-0.0063	-0.0578	29.1266	-4.8173	13.8805	0.5777	-0.3648	0.6862	0.2498
0.97	-9.4908	-0.7126	-2.0260	-0.0395	-0.0064	-0.0638	29.2555	-5.1058	13.7698	0.5777	-0.3650	0.6862	0.2498
0.98	-9.4993	-0.7317	-2.0297	-0.0326	-0.0139	-0.0637	29.2572	-4.8555	13.9212	0.5776	-0.3650	0.6860	0.2498
0.99	-9.4833	-0.7416	-2.0292	-0.0374	-0.0064	-0.0661	29.1573	-4.7548	13.8855	0.5777	-0.3651	0.6860	0.2498
1	-9.4769	-0.7459	-2.0289	-0.0502	-0.0044	-0.0671	29.1758	-4.6616	13.9228	0.5776	-0.3653	0.6859	0.2499
1.01	-9.4713	-0.7612	-2.0310	-0.0448	-0.0057	-0.0672	29.5015	-4.7763	14.1115	0.5776	-0.3654	0.6859	0.2499
1.02	-9.4666	-0.7701	-2.0333	-0.0364	-0.0101	-0.0660	29.7407	-4.7878	14.0538	0.5776	-0.3655	0.6858	0.2499
1.03	-9.4683	-0.7713	-2.0300	-0.0270	-0.0010	-0.0615	29.4724	-4.7036	13.9742	0.5776	-0.3656	0.6858	0.2499
1.04	-9.4570	-0.7746	-2.0326	-0.0355	-0.0046	-0.0628	29.3608	-4.9461	14.0823	0.5776	-0.3657	0.6858	0.2499
1.05	-9.4568	-0.7780	-2.0275	-0.0376	-0.0046	-0.0614	29.3026	-4.7195	13.8863	0.5775	-0.3658	0.6857	0.2499
1.06	-9.4710	-0.7812	-2.0395	-0.0260	0.0039	-0.0615	29.4135	-4.7073	13.8660	0.5775	-0.3659	0.6857	0.2499
1.07	-9.4552	-0.7850	-2.0398	-0.0307	-0.0057	-0.0609	29.1899	-4.8080	13.7857	0.5775	-0.3660	0.6857	0.2499
1.08	-9.4509	-0.7866	-2.0385	-0.0241	-0.0008	-0.0512	29.2589	-4.8247	14.0278	0.5775	-0.3660	0.6857	0.2499
1.09	-9.4577	-0.7899	-2.0548	-0.0186	0.0042	-0.0534	29.4879	-4.9186	13.8430	0.5774	-0.3660	0.6857	0.2498
1.1	-9.4576	-0.7844	-2.0552	-0.0254	-0.0093	-0.0445	29.4705	-4.9268	13.9565	0.5774	-0.3660	0.6857	0.2499
1.11	-9.4501	-0.7847	-2.0622	-0.0193	0.0106	-0.0459	29.6511	-5.0526	13.9405	0.5774	-0.3660	0.6858	0.2498
1.12	-9.4451	-0.7816	-2.0618	-0.0196	0.0099	-0.0435	29.5798	-4.9504	13.8614	0.5772	-0.3660	0.6858	0.2498
1.13	-9.4834	-0.7695	-2.0695	-0.0192	0.0108	-0.0437	29.4163	-4.8919	14.0168	0.5773	-0.3661	0.6859	0.2498
1.14	-9.4872	-0.7633	-2.0774	-0.0154	0.0043	-0.0473	29.4033	-4.9218	13.7997	0.5772	-0.3660	0.6859	0.2498
1.15	-9.4767	-0.7566	-2.0735	-0.0146	0.0080	-0.0433	29.5139	-4.6593	13.8029	0.5772	-0.3661	0.6860	0.2498
1.16	-9.5141	-0.7421	-2.0730	-0.0054	0.0068	-0.0442	29.3613	-4.7129	13.7751	0.5771	-0.3660	0.6860	0.2497
1.17	-9.5260	-0.7401	-2.0815	-0.0057	-0.0017	-0.0442	29.1445	-4.6952	13.8251	0.5771	-0.3659	0.6861	0.2496
1.18	-9.5124	-0.7273	-2.0798	-0.0025	-0.0104	-0.0484	29.1120	-4.6851	14.0985	0.5771	-0.3659	0.6861	0.2496
1.19	-9.4792	-0.7127	-2.0718	-0.0034	-0.0040	-0.0504	29.4083	-4.7619	13.9773	0.5771	-0.3658	0.6861	0.2495
1.2	-9.5217	-0.7155	-2.0793	-0.0024	0.0005	-0.0452	29.3481	-4.9915	13.9822	0.5772	-0.3658	0.6862	0.2495
1.21	-9.5055	-0.6989	-2.0860	-0.0136	-0.0119	-0.0485	29.1645	-4.9435	13.9850	0.5772	-0.3658	0.6862	0.2494
1.22	-9.4767	-0.6760	-2.0565	-0.0201	-0.0104	-0.0540	29.4299	-4.7544	13.9758	0.5772	-0.3658	0.6862	0.2495
1.23	-9.4723	-0.6876	-2.0758	-0.0163	-0.0034	-0.0594	29.2514	-4.9045	13.9809	0.5772	-0.3658	0.6861	0.2494
1.24	-9.4964	-0.6971	-2.0603	-0.0276	-0.0064	-0.0602	29.3350	-4.8110	14.0935	0.5772	-0.3659	0.6862	0.2494
1.25	-9.5385	-0.6939	-2.0677	-0.0253	-0.0070	-0.0566	29.3636	-4.6844	13.8696	0.5772	-0.3659	0.6861	0.2494
1.26	-9.5146	-0.7126	-2.0528	-0.0307	-0.0081	-0.0603	29.1825	-4.9057	13.9710	0.5772	-0.3660	0.6861	0.2494
1.27	-9.4922	-0.7135	-2.0570	-0.0232	-0.0139	-0.0580	29.2064	-4.8538	13.9865	0.5772	-0.3660	0.6861	0.2494
1.28	-9.4526	-0.7271	-2.0541	-0.0366	-0.0200	-0.0591	29.2086	-4.8858	13.9787	0.5772	-0.3661	0.6860	0.2494
1.29	-9.4531	-0.7477	-2.0489	-0.0351	-0.0090	-0.0572	29.6018	-4.8574	13.9794	0.5772	-0.3662	0.6860	0.2495
1.3	-9.4570	-0.7562	-2.0663	-0.0335	-0.0072	-0.0487	29.3615	-4.8847	13.9943	0.5771	-0.3662	0.6859	0.2495
1.31	-9.4389	-0.7572	-2.0590	-0.0392	-0.0089	-0.0472	29.2962	-4.8512	13.8471	0.5772	-0.3662	0.6859	0.2496
1.32	-9.4339	-0.7539	-2.0678	-0.0272	-0.0087	-0.0523	29.2323	-4.9215	13.9486	0.5771	-0.3663	0.6859	0.2496
1.33	-9.4545	-0.7634	-2.0716	-0.0299	-0.0054	-0.0481	29.2404	-4.9885	13.7053	0.5771	-0.3663	0.6859	0.2497
1.34	-9.4441	-0.7661	-2.0761	-0.0275	-0.0053	-0.0553	29.4123	-4.8559	13.8006	0.5771	-0.3663	0.6859	0.2497
1.35	-9.4291	-0.7654	-2.0756	-0.0287	-0.0049	-0.0630	29.3558	-4.8744	14.0437	0.5771	-0.3664	0.6858	0.2497
1.36	-9.4357	-0.7669	-2.0770	-0.0184	0.0027	-0.0682	29.2022	-4.8732	14.1397	0.5771	-0.3665	0.6859	0.2496
1.37	-9.4535	-0.7582	-2.0778	-0.0268	0.0001	-0.0746	29.2578	-4.8626	14.1253	0.5770	-0.3666	0.6858	0.2495
1.38	-9.4571	-0.7466	-2.0844	-0.0227	-0.0027	-0.0761	29.5318	-4.8889	13.7979	0.5771	-0.3667	0.6858	0.2495
1.39	-9.4457	-0.7346	-2.0861	-0.0235	0.0075	-0.0697	29.2348	-4.8284	14.0157	0.5770	-0.3668	0.6858	0.2494
1.4	-9.4450	-0.7268	-2.0866	-0.0182	0.0020	-0.0751	28.9708	-4.7573	14.0768	0.5771	-0.3669	0.6858	0.2493
1.41	-9.4417	-0.7253	-2.0926	-0.0209	0.0094	-0.0788	29.2233	-4.8872	14.0953	0.5770	-0.3670	0.6857	0.2492
1.42	-9.4389	-0.7270	-2.0983	-0.0296	0.0146	-0.0764	29.4270	-4.7498	13.8863	0.5769	-0.3672	0.6858	0.2491
1.43	-9.4473	-0.7327	-2.0993	-0.0282	0.0172	-0.0764	29.3225	-4.8270	13.9988	0.5769	-0.3673	0.6858	0.2490
1.44	-9.4631	-0.7434	-2.1144	-0.0403	0.0161	-0.0766	29.2004	-4.9745	14.1089	0.5767	-0.3675	0.6857	0.2490
1.45	-9.4588	-0.7570	-2.1142	-0.0447	0.0135	-0.0787	29.1905	-4.9412	13.9685	0.5767	-0.3677	0.6858	0.2490
1.46	-9.4706	-0.7604	-2.1192	-0.0499	0.0169	-0.0752	29.2251	-4.9985	14.0948	0.5766	-0.3679	0.6857	0.2489
1.47	-9.4785	-0.7726	-2.1333	-0.0525	0.0104	-0.0732	29.3744	-4.8324	13.8680	0.5765	-0.3681	0.6858	0.2490
1.48	-9.4662	-0.7923	-2.1323	-0.0544	0.0108	-0.0766	29.3906	-4.6707	13.8874	0.5763	-0.3683	0.6856	0.2489
1.49	-9.4382	-0.8018	-2.1416	-0.0611	0.0052	-0.0727	29.3566	-4.8150	14.0092	0.5763	-0.3685	0.6857	0.2490
1.5	-9.4425	-0.8105	-2.1375	-0.0599	0.0080	-0.0763	29.4478	-4.7525	14.1201	0.5762	-0.3687	0.6856	0.2491
1.51	-9.5525	-0.8225	-2.1518	-0.0571	0.0154	-0.0737	29.7578	-4.5358	14.2658	0.5760	-0.3689	0.6856	0.2491
1.52	-9.5499	-0.8493	-2.1538	-0.0605	-0.0058	-0.0771	29.7406	-4.3096	14.1408	0.5760	-0.3692	0.6855	0.2491
1.53	-9.5167	-0.8774	-2.1315	-0.0537	-0.0104	-0.0709	29.4119	-4.5923	13.9754	0.5759	-0.3693	0.6854	0.2492
1.54	-9.5772	-0.8918	-2.1470	-0.0544	-0.0045	-0.0626	29.2072	-4.6715	13.7035	0.5759	-0.3695	0.6854	0.2493
1.55	-9.5803	-0.9080	-2.1417	-0.0456	-0.0219	-0.0486	29.0356	-4.5464	13.6285	0.5758	-0.3695	0.6852	0.2494
1.56	-9.5237	-0.9184	-2.1361	-0.0307	-0.0294	-0.0393	29.1336	-4.5421	13.8478	0.5759	-0.3695	0.6853	0.2495
1.57	-9.4919	-0.9134	-2.1306	-0.0214	-0.0301	-0.0320	29.0913	-4.8047	13.9938	0.5759	-0.3694	0.6852	0.2496
1.58	-9.4799	-0.8891	-2.1234	0.0000	-0.0273	-0.0294	29.1316	-4.7722	13.9501	0.5760	-0.3693	0.6852	0.2497
1.59	-9.4622	-0.8654	-2.1131	0.0048	-0.0236	-0.0341	28.9837	-4.8130	13.7957	0.5760	-0.3691	0.6852	0.2497
1.6	-9.4648	-0.8537	-2.0978	0.0147	-0.0240	-0.0354	29.1881	-4.8746	13.9652	0.5761	-0.3690	0.6853	0.2496
1.61	-9.4644	-0.8349	-2.0938	0.0213	-0.0199	-0.0377	29.1401	-4.7117	14.0708	0.5762	-0.3688	0.6853	0.2496
1.62	-9.4556	-0.8092	-2.0779	0.0227	-0.0210	-0.0396	29.0886	-4.6754	14.1203	0.5763	-0.3686	0.6853	0.2494
1.63	-9.4620	-0.7843	-2.0753	0.0292	-0.0194	-0.0370	29.2107	-4.8431	13.9707	0.5765	-0.3684	0.6855	0.2494
1.64	-9.4574	-0.7589	-2.0632	0.0402	-0.0272	-0.0310	29.2143	-4.6978	13.8927	0.5766	-0.3682	0.6855	0.2492
1.65	-9.4491	-0.7369	-2.0523	0.0367	-0.0241	-0.0319	29.3788	-4.8225	13.9412	0.5767	-0.3679	0.6856	0.2492
1.66	-9.4408	-0.7188	-2.0439	0.0281	-0.0223	-0.0316	29.3799	-4.9948	13.8145	0.5768	-0.3677	0.6856	0.2490
1.67	-9.4221	-0.7153	-2.0455	0.0221	-0.0229	-0.0341	29.3488	-4.8411	13.7151	0.5769	-0.3675	0.6857	0.2490
1.68	-9.4304	-0.7045	-2.0407	0.0236	-0.0179	-0.0314	29.2548	-4.8962	13.9319	0.5770	-0.3673	0.6857	0.2489
1.69	-9.4304	-0.6996	-2.0580	0.0170	-0.0195	-0.0327	29.3183	-4.8586	13.8838	0.5770	-0.3671	0.6857	0.2488
1.7	-9.3980	-0.6925	-2.0462	0.0060	-0.0114	-0.0315	29.0550	-4.9856	14.0725	0.5771	-0.3670	0.6859	0.2489
1.71	-9.4484	-0.6997	-2.0458	0.0016	-0.0034	-0.0312	29.1610	-4.9557	13.9005	0.5771	-0.3668	0.6859	0.2488
1.72	-9.4724	-0.6974	-2.0447	-0.0049	-0.0021	-0.0314	29.2060	-4.9776	13.8488	0.5771	-0.3668	0.6860	0.2488
1.73	-9.4943	-0.7093	-2.0522	-0.0031	-0.0014	-0.0312	29.1959	-4.8910	14.0418	0.5770	-0.3666	0.6860	0.2488
1.74	-9.4654	-0.7049	-2.0672	-0.0119	-0.0125	-0.0312	29.0744	-4.6221	13.9892	0.5770	-0.3666	0.6861	0.2488
1.75	-9.4529	-0.7136	-2.0466	-0.0137	0.0025	-0.0315	29.3288	-4.8207	14.0094	0.5770	-0.3665	0.6862	0.2488
1.76	-9.4778	-0.7175	-2.0750	-0.0193	0.0061	-0.0311	29.1138	-4.6117	14.0180	0.5769	-0.3664	0.6863	0.2489
1.77	-9.4798	-0.7297	-2.0707	-0.0211	0.0059	-0.0318	29.0264	-4.7201	13.8813	0.5768	-0.3664	0.6864	0.2489
1.78	-9.4946	-0.7371	-2.0880	-0.0176	0.0060	-0.0323	29.0961	-4.9237	13.9661	0.5767	-0.3663	0.6865	0.2489
1.79	-9.4794	-0.7392	-2.0888	-0.0234	-0.0040	-0.0316	29.1942	-4.8632	14.0174	0.5767	-0.3663	0.6865	0.2490
1.8	-9.4582	-0.7561	-2.0867	-0.0201	0.0012	-0.0266	29.1069	-4.8105	14.0102	0.5765	-0.3662	0.6865	0.2490
1.81	-9.4973	-0.7599	-2.0953	-0.0199	0.0026	-0.0269	28.8140	-4.7628	14.0912	0.5765	-0.3662	0.6867	0.2491
1.82	-9.5139	-0.7449	-2.1051	-0.0101	-0.0036	-0.0190	28.9434	-4.8510	13.8123	0.5764	-0.3660	0.6868	0.2492
1.83	-9.4867	-0.7524	-2.1094	-0.0074	-0.0128	-0.0112	29.0232	-5.1690	13.8324	0.5764	-0.3659	0.6869	0.2492
1.84	-9.4800	-0.7448	-2.0973	-0.0064	-0.0118	-0.0014	29.4298	-5.0319	13.8337	0.5764	-0.3657	0.6869	0.2493
1.85	-9.5335	-0.7211	-2.0989	-0.0300	-0.0046	0.0210	29.2235	-4.9521	13.9399	0.5762	-0.3655	0.6871	0.2496
1.86	-9.5479	-0.7071	-2.1218	-0.0316	-0.0137	0.0424	29.1370	-4.9599	13.9137	0.5761	-0.3652	0.6873	0.2499
1.87	-9.5392	-0.6961	-2.1122	-0.0446	-0.0246	0.0650	29.0754	-5.0298	13.9084	0.5759	-0.3648	0.6873	0.2503
1.88	-9.5377	-0.6589	-2.1133	-0.0564	-0.0274	0.0748	29.2282	-5.2800	14.0543	0.5758	-0.3645	0.6876	0.2508
1.89	-9.5645	-0.5912	-2.0951	-0.0613	-0.0318	0.0843	29.3097	-5.3161	13.9649	0.5756	-0.3641	0.6877	0.2514
1.9	-9.6132	-0.5013	-2.0935	-0.0820	-0.0344	0.0891	29.2087	-5.0889	13.9126	0.5754	-0.3638	0.6878	0.2521
1.91	-9.6052	-0.3401	-2.0795	-0.0962	-0.0501	0.1059	29.1817	-5.3641	13.9206	0.5752	-0.3634	0.6878	0.2528
1.92	-9.5958	-0.1734	-2.0520	-0.1401	-0.0711	0.1218	29.0797	-5.2493	14.0743	0.5750	-0.3631	0.6879	0.2538
1.93	-9.5688	-0.0521	-2.0369	-0.1974	-0.0805	0.1422	29.1259	-5.4924	13.9004	0.5746	-0.3628	0.6878	0.2551
1.94	-9.5186	0.0690	-2.0350	-0.2671	-0.0971	0.1643	29.0083	-5.6282	13.8011	0.5742	-0.3627	0.6876	0.2567
1.95	-9.4669	0.2986	-2.0199	-0.3317	-0.1030	0.1934	29.0130	-5.4593	13.9697	0.5737	-0.3626	0.6875	0.2586
1.96	-9.4636	0.5716	-1.9937	-0.4197	-0.0987	0.2232	29.0056	-5.6461	13.8980	0.5729	-0.3627	0.6872	0.2609
1.97	-9.4588	0.7763	-1.9880	-0.5405	-0.0950	0.2573	29.0245	-5.7187	13.7683	0.5719	-0.3630	0.6869	0.2637
1.98	-9.4723	0.8995	-1.9816	-0.6607	-0.0971	0.2785	28.9168	-5.9252	13.6669	0.5705	-0.3635	0.6863	0.2669
1.99	-9.5011	1.0184	-2.0144	-0.7977	-0.0878	0.2920	28.7938	-6.2012	13.6485	0.5690	-0.3644	0.6857	0.2707
2	-9.4811	1.0901	-2.0172	-0.9223	-0.0977	0.3015	28.8797	-6.4809	13.5563	0.5671	-0.3656	0.6849	0.2749
2.01	-9.4871	1.0695	-2.0019	-1.0505	-0.0949	0.2826	29.2671	-6.7639	13.6295	0.5651	-0.3672	0.6839	0.2795
2.02	-9.5445	1.0512	-2.0480	-1.1625	-0.0809	0.2692	29.3646	-7.1253	13.3875	0.5628	-0.3692	0.6827	0.2844
2.03	-9.5581	1.0597	-2.0588	-1.2623	-0.0909	0.2546	29.1352	-7.1216	13.2948	0.5603	-0.3715	0.6813	0.2896
2.04	-9.5188	0.9644	-2.0567	-1.3707	-0.1045	0.2316	29.0143	-7.3693	12.9240	0.5577	-0.3741	0.6796	0.2952
2.05	-9.5688	0.7934	-2.0949	-1.4422	-0.0899	0.1961	28.9011	-7.6884	12.8087	0.5549	-0.3770	0.6777	0.3008
2.06	-9.6151	0.7138	-2.1344	-1.4929	-0.0866	0.1736	29.0314	-8.1469	12.4883	0.5521	-0.3803	0.6758	0.3066
2.07	-9.5210	0.6674	-2.1216	-1.5288	-0.1182	0.1465	29.0797	-8.3566	12.2851	0.5492	-0.3835	0.6735	0.3124
2.08	-9.5503	0.5828	-2.1082	-1.5622	-0.0916	0.1253	28.7856	-8.4815	12.2974	0.5462	-0.3870	0.6713	0.3183
2.09	-9.5487	0.5011	-2.1566	-1.5822	-0.0996	0.1070	28.9031	-8.9639	12.0233	0.5432	-0.3905	0.6688	0.3242
2.1	-9.5310	0.4078	-2.1238	-1.5863	-0.1131	0.0907	28.8620	-9.2641	11.9479	0.5402	-0.3941	0.6663	0.3300
2.11	-9.4775	0.2828	-2.1361	-1.5865	-0.0963	0.0675	28.9522	-9.4285	11.6141	0.5372	-0.3978	0.6637	0.3358
2.12	-9.4574	0.1921	-2.1259	-1.5649	-0.0858	0.0523	28.9235	-9.5026	11.2438	0.5341	-0.4014	0.6610	0.3413
2.13	-9.4297	0.0962	-2.1169	-1.5420	-0.0891	0.0409	28.6248	-9.7728	11.0278	0.5312	-0.4050	0.6585	0.3469
2.14	-9.4165	-0.0139	-2.0895	-1.4995	-0.0738	0.0152	28.6451	-9.9357	10.9412	0.5282	-0.4086	0.6558	0.3520
2.15	-9.4175	-0.1371	-2.0602	-1.4440	-0.0581	-0.0123	28.7385	-10.0793	10.7807	0.5254	-0.4121	0.6533	0.3570
2.16	-9.4495	-0.2432	-2.0497	-1.3742	-0.0386	-0.0254	28.5692	-10.4652	10.3809	0.5225	-0.4155	0.6508	0.3616
2.17	-9.4732	-0.2623	-2.0250	-1.2927	-0.0280	-0.0327	28.7609	-10.3837	10.3715	0.5199	-0.4187	0.6485	0.3659
2.18	-9.5917	-0.2537	-1.9977	-1.2211	-0.0191	-0.0504	28.7681	-10.4762	10.2334	0.5174	-0.4218	0.6463	0.3699
2.19	-9.6422	-0.2313	-2.0051	-1.1417	-0.0361	-0.0526	28.8683	-10.5669	9.7593	0.5150	-0.4246	0.6441	0.3736
2.2	-9.6305	-0.2419	-1.9665	-1.0779	-0.0557	-0.0510	28.8610	-10.8305	9.7317	0.5129	-0.4273	0.6421	0.3772
2.21	-9.6778	-0.2835	-1.9551	-1.0169	-0.0620	-0.0571	28.9006	-10.9817	9.3677	0.5108	-0.4297	0.6400	0.3805
2.22	-9.6430	-0.3623	-1.9474	-0.9380	-0.0826	-0.0757	28.9812	-11.1747	9.4241	0.5091	-0.4320	0.6381	0.3836
2.23	-9.6275	-0.3593	-1.9011	-0.8580	-0.0894	-0.0820	28.9368	-11.3011	9.3791	0.5075	-0.4340	0.6361	0.3865
2.24	-9.6454	-0.2321	-1.8930	-0.7726	-0.0860	-0.0842	28.8520	-11.4445	9.0985	0.5062	-0.4359	0.6344	0.3891
2.25	-9.6097	-0.0901	-1.8601	-0.7129	-0.1083	-0.0714	29.0314	-11.2688	8.8923	0.5049	-0.4375	0.6328	0.3915
2.26	-9.6032	-0.0097	-1.8258	-0.6690	-0.1192	-0.0516	28.7467	-11.2437	8.9219	0.5038	-0.4389	0.6312	0.3938
2.27	-9.5780	0.0295	-1.8155	-0.6201	-0.1269	-0.0424	28.8977	-11.5305	8.6647	0.5028	-0.4401	0.6298	0.3961
2.28	-9.5259	0.0308	-1.7797	-0.5864	-0.1341	-0.0266	29.0605	-11.5921	8.6463	0.5019	-0.4412	0.6284	0.3982
2.29	-9.4474	0.0268	-1.7561	-0.5435	-0.1379	-0.0169	28.8472	-11.7151	8.5137	0.5011	-0.4422	0.6271	0.4003
2.3	-9.4014	0.0627	-1.7165	-0.4851	-0.1227	-0.0216	28.8579	-11.4672	8.3093	0.5002	-0.4429	0.6259	0.4021
2.31	-9.3896	0.1460	-1.6903	-0.4403	-0.1068	-0.0331	28.8735	-11.4878	8.4721	0.4996	-0.4438	0.6249	0.4037
2.32	-9.4338	0.2765	-1.6508	-0.3960	-0.0988	-0.0331	28.8221	-11.6469	8.0805	0.4990	-0.4445	0.6239	0.4051
2.33	-9.4807	0.3901	-1.6262	-0.3814	-0.0887	-0.0349	29.0092	-11.6652	8.0913	0.4984	-0.4452	0.6231	0.4065
2.34	-9.4761	0.4183	-1.6066	-0.3704	-0.0967	-0.0329	29.0636	-11.6584	7.9631	0.4978	-0.4458	0.6221	0.4079
2.35	-9.4652	0.4089	-1.5935	-0.3623	-0.0890	-0.0310	28.8790	-11.7861	7.7484	0.4973	-0.4464	0.6213	0.4092
2.36	-9.4508	0.4084	-1.5735	-0.3630	-0.0833	-0.0249	28.8552	-11.7157	7.8392	0.4967	-0.4470	0.6205	0.4105
2.37	-9.4522	0.4392	-1.5537	-0.3448	-0.0781	-0.0179	28.8531	-11.8587	7.6924	0.4960	-0.4476	0.6197	0.4117
2.38	-9.4693	0.5532	-1.5544	-0.3365	-0.0746	-0.0048	28.8616	-11.8129	7.7235	0.4955	-0.4481	0.6190	0.4130
2.39	-9.4692	0.6430	-1.5369	-0.3391	-0.0804	0.0164	28.8528	-11.9115	7.6749	0.4948	-0.4485	0.6183	0.4143
2.4	-9.4625	0.6633	-1.5322	-0.3494	-0.0793	0.0229	29.1306	-12.1242	7.5550	0.4942	-0.4490	0.6177	0.4157
2.41	-9.4690	0.6540	-1.5167	-0.3453	-0.0745	0.0194	29.0239	-12.1017	7.3423	0.4934	-0.4494	0.6169	0.4170
2.42	-9.4743	0.6510	-1.5072	-0.3501	-0.0667	0.0073	29.0451	-11.9851	7.2052	0.4928	-0.4499	0.6162	0.4184
2.43	-9.4504	0.6800	-1.4880	-0.3414	-0.0595	-0.0062	28.9854	-12.2631	7.1412	0.4921	-0.4504	0.6156	0.4196
2.44	-9.5087	0.7350	-1.4793	-0.3345	-0.0431	-0.0089	28.8661	-12.2758	7.2542	0.4914	-0.4510	0.6149	0.4207
2.45	-9.5622	0.8005	-1.4839	-0.3381	-0.0491	-0.0117	28.6232	-12.3165	7.1755	0.4908	-0.4516	0.6143	0.4220
2.46	-9.5412	0.8106	-1.4757	-0.3395	-0.0509	-0.0115	28.8913	-12.3453	7.1239	0.4900	-0.4521	0.6135	0.4231
2.47	-9.5016	0.7842	-1.4696	-0.3627	-0.0682	-0.0133	28.9126	-12.2696	7.0577	0.4894	-0.4527	0.6128	0.4244
2.48	-9.5564	0.7436	-1.4599	-0.3645	-0.0588	-0.0173	28.7294	-12.2773	7.0778	0.4886	-0.4533	0.6119	0.4256
2.49	-9.5461	0.7074	-1.4732	-0.3637	-0.0581	-0.0237	28.8889	-12.2128	7.0776	0.4879	-0.4540	0.6112	0.4269
2.5	-9.4332	0.7272	-1.4465	-0.3553	-0.0627	-0.0347	29.0132	-12.4457	6.8734	0.4873	-0.4546	0.6104	0.4281
2.51	-9.4736	0.7859	-1.4407	-0.3598	-0.0436	-0.0305	29.3135	-12.2641	7.0396	0.4866	-0.4553	0.6096	0.4293
2.52	-9.5577	0.7794	-1.4740	-0.3590	-0.0410	-0.0339	29.2996	-12.2804	7.2153	0.4859	-0.4560	0.6089	0.4305
2.53	-9.4901	0.7527	-1.4597	-0.3617	-0.0481	-0.0370	29.0196	-12.4128	6.7202	0.4852	-0.4567	0.6081	0.4316
2.54	-9.4588	0.7462	-1.4467	-0.3562	-0.0448	-0.0321	28.8038	-12.2759	6.4056	0.4845	-0.4574	0.6073	0.4328
2.55	-9.4779	0.6886	-1.4596	-0.3484	-0.0336	-0.0355	28.5811	-12.4646	6.3946	0.4837	-0.4580	0.6065	0.4339
2.56	-9.4865	0.6253	-1.4641	-0.3307	-0.0333	-0.0437	28.7253	-12.5871	6.2032	0.4831	-0.4587	0.6059	0.4350
2.57	-9.4822	0.6325	-1.4492	-0.3090	-0.0296	-0.0494	28.5926	-12.6563	6.2341	0.4824	-0.4593	0.6052	0.4359
2.58	-9.5135	0.6456	-1.4406	-0.2891	-0.0271	-0.0570	28.6397	-12.8710	6.2500	0.4819	-0.4600	0.6045	0.4368
2.59	-9.5589	0.6212	-1.4571	-0.2839	-0.0281	-0.0526	28.7610	-12.8525	5.9579	0.4813	-0.4605	0.6039	0.4376
2.6	-9.5662	0.5826	-1.4547	-0.2660	-0.0349	-0.0560	29.1693	-12.8192	6.0301	0.4808	-0.4611	0.6033	0.4384
2.61	-9.5370	0.5407	-1.4489	-0.2500	-0.0381	-0.0656	28.9377	-12.7407	5.9737	0.4804	-0.4616	0.6027	0.4392
2.62	-9.5252	0.4893	-1.4510	-0.2302	-0.0404	-0.0633	28.7843	-12.7659	6.0973	0.4800	-0.4621	0.6021	0.4399
2.63	-9.5144	0.4396	-1.4501	-0.2027	-0.0366	-0.0729	29.0110	-12.7676	6.0961	0.4797	-0.4626	0.6016	0.4405
2.64	-9.4952	0.3915	-1.4387	-0.1725	-0.0379	-0.0734	28.6830	-12.8824	6.0890	0.4795	-0.4629	0.6011	0.4410
2.65	-9.5040	0.3324	-1.4365	-0.1377	-0.0265	-0.0717	28.5015	-12.8235	5.8333	0.4793	-0.4632	0.6008	0.4414
2.66	-9.5132	0.3557	-1.4267	-0.0936	-0.0194	-0.0699	28.8926	-12.9693	5.8019	0.4792	-0.4634	0.6005	0.4416
2.67	-9.5881	0.4097	-1.4122	-0.0553	-0.0174	-0.0602	28.9352	-12.6662	5.9638	0.4791	-0.4635	0.6004	0.4417
2.68	-9.5953	0.4075	-1.4164	-0.0234	-0.0223	-0.0537	28.5822	-12.5499	5.8117	0.4792	-0.4635	0.6004	0.4418
2.69	-9.5763	0.4202	-1.3974	0.0189	-0.0274	-0.0544	28.6458	-12.6726	5.8893	0.4793	-0.4634	0.6003	0.4417
2.7	-9.5618	0.4570	-1.3918	0.0390	-0.0266	-0.0496	28.7926	-12.7816	5.9242	0.4795	-0.4632	0.6005	0.4416
2.71	-9.5606	0.5091	-1.3682	0.0648	-0.0238	-0.0554	28.7282	-12.7411	6.0412	0.4797	-0.4630	0.6006	0.4414
2.72	-9.5757	0.5749	-1.3635	0.0907	-0.0263	-0.0525	28.5884	-12.5846	5.9056	0.4800	-0.4627	0.6008	0.4411
2.73	-9.5563	0.5939	-1.3478	0.1044	-0.0381	-0.0591	28.5771	-12.5950	5.9859	0.4803	-0.4623	0.6009	0.4408
2.74	-9.5326	0.5884	-1.3358	0.1217	-0.0395	-0.0661	28.5848	-12.5746	6.0111	0.4808	-0.4620	0.6012	0.4405
2.75	-9.5402	0.6145	-1.3144	0.1292	-0.0350	-0.0705	28.7593	-12.6130	5.7939	0.4813	-0.4616	0.6014	0.4400
2.76	-9.5486	0.6572	-1.3097	0.1437	-0.0365	-0.0738	28.7341	-12.5345	5.8967	0.4818	-0.4612	0.6016	0.4396
2.77	-9.5336	0.6888	-1.2927	0.1515	-0.0369	-0.0772	28.9777	-12.8424	6.0081	0.4823	-0.4608	0.6019	0.4391
2.78	-9.5748	0.7333	-1.2768	0.1518	-0.0330	-0.0747	29.1553	-12.7622	5.7516	0.4828	-0.4604	0.6022	0.4386
2.79	-9.5570	0.7306	-1.2830	0.1521	-0.0345	-0.0742	29.1018	-12.6991	5.9024	0.4833	-0.4600	0.6024	0.4381
2.8	-9.5253	0.6985	-1.2686	0.1506	-0.0343	-0.0676	29.0694	-12.7911	5.9184	0.4838	-0.4595	0.6027	0.4375
2.81	-9.4996	0.6496	-1.2670	0.1445	-0.0392	-0.0693	28.7482	-12.6510	6.0006	0.4843	-0.4592	0.6030	0.4371
2.82	-9.4728	0.5453	-1.2595	0.1514	-0.0333	-0.0749	28.6936	-12.6592	5.8600	0.4848	-0.4587	0.6032	0.4366
2.83	-9.4469	0.3917	-1.2747	0.1524	-0.0244	-0.0825	29.0942	-12.4997	5.9855	0.4853	-0.4584	0.6035	0.4361
2.84	-9.4149	0.1970	-1.2883	0.1848	-0.0090	-0.0949	28.7141	-12.3860	6.0941	0.4859	-0.4580	0.6038	0.4354
2.85	-9.3612	-0.0173	-1.3192	0.2456	0.0023	-0.1121	28.7974	-12.7036	6.2146	0.4866	-0.4576	0.6043	0.4344
2.86	-9.2989	-0.1792	-1.3423	0.3225	0.0363	-0.1383	28.8791	-12.5307	5.9350	0.4874	-0.4571	0.6049	0.4332
2.87	-9.2989	-0.2506	-1.3673	0.4098	0.0619	-0.1609	28.8309	-12.1910	6.2528	0.4883	-0.4565	0.6057	0.4315
2.88	-9.3439	-0.2542	-1.4006	0.5100	0.0876	-0.1751	28.7831	-12.2512	6.4906	0.4896	-0.4558	0.6068	0.4294
2.89	-9.3579	-0.2513	-1.4190	0.6006	0.1064	-0.1877	28.8643	-12.2145	6.4313	0.4908	-0.4550	0.6081	0.4270
2.9	-9.4793	-0.2393	-1.4458	0.6877	0.1261	-0.1941	28.8681	-11.9968	6.4736	0.4924	-0.4540	0.6096	0.4243
2.91	-9.5300	-0.2295	-1.5167	0.7640	0.1321	-0.1968	28.8275	-11.8654	6.8568	0.4939	-0.4528	0.6112	0.4211
2.92	-9.5635	-0.1912	-1.5055	0.8343	0.1220	-0.2060	28.9208	-11.7554	6.8804	0.4958	-0.4514	0.6130	0.4179
2.93	-9.6521	-0.2052	-1.5652	0.8942	0.1271	-0.2065	28.8850	-11.8413	6.9889	0.4977	-0.4499	0.6149	0.4145
2.94	-9.6775	-0.2123	-1.6198	0.9641	0.1143	-0.2054	28.9223	-11.5978	7.2609	0.4998	-0.4482	0.6168	0.4108
2.95	-9.6627	-0.1826	-1.6532	1.0268	0.0948	-0.1985	29.0573	-11.6321	7.3975	0.5022	-0.4463	0.6190	0.4070
2.96	-9.6693	-0.1480	-1.6942	1.0847	0.0855	-0.1886	28.7796	-11.6796	7.5764	0.5046	-0.4441	0.6210	0.4030
2.97	-9.6533	-0.1087	-1.7308	1.1310	0.0716	-0.1863	29.2119	-11.3320	7.5567	0.5071	-0.4419	0.6233	0.3990
2.98	-9.6238	-0.0908	-1.7626	1.1697	0.0609	-0.1793	29.2357	-11.3391	7.8280	0.5097	-0.4393	0.6255	0.3947
2.99	-9.6047	-0.1503	-1.7966	1.2013	0.0560	-0.1726	29.0836	-11.3493	8.1714	0.5125	-0.4368	0.6278	0.3905
3	-9.7023	-0.2247	-1.8160	1.2485	0.0588	-0.1740	29.2233	-11.1115	8.5315	0.5152	-0.4340	0.6302	0.3861
3.01	-9.7660	-0.2719	-1.8771	1.2978	0.0581	-0.1826	29.4460	-10.7697	8.8423	0.5181	-0.4312	0.6326	0.3815
3.02	-9.6645	-0.2801	-1.9245	1.3571	0.0428	-0.1682	29.2748	-10.8435	8.6886	0.5211	-0.4281	0.6351	0.3767
3.03	-9.5920	-0.2298	-1.9231	1.4001	0.0340	-0.1601	29.3403	-10.3272	8.9467	0.5242	-0.4248	0.6376	0.3719
3.04	-9.6302	-0.1746	-1.9594	1.4381	0.0478	-0.1583	29.2608	-10.2930	9.0939	0.5272	-0.4214	0.6402	0.3669
3.05	-9.6241	-0.1394	-1.9701	1.4807	0.0318	-0.1582	29.0243	-10.1913	9.5628	0.5304	-0.4178	0.6428	0.3617
3.06	-9.5837	-0.1314	-1.9670	1.5035	0.0166	-0.1738	29.3024	-9.9265	9.8500	0.5337	-0.4142	0.6454	0.3565
3.07	-9.5519	-0.1468	-1.9862	1.5307	0.0214	-0.1816	29.1464	-9.7688	9.8262	0.5370	-0.4105	0.6480	0.3511
3.08	-9.5416	-0.1183	-1.9890	1.5515	0.0189	-0.1997	29.4305	-9.3946	9.9703	0.5404	-0.4068	0.6505	0.3456
3.09	-9.5303	-0.0822	-1.9880	1.5661	0.0282	-0.2191	29.2810	-9.4622	10.1816	0.5437	-0.4031	0.6530	0.3399
3.1	-9.5740	-0.0724	-1.9650	1.5818	0.0366	-0.2352	29.2686	-9.1313	10.5479	0.5471	-0.3994	0.6554	0.3341
3.11	-9.6348	-0.0818	-1.9866	1.5827	0.0416	-0.2424	29.4881	-8.6581	10.9165	0.5504	-0.3957	0.6579	0.3283
3.12	-9.5922	-0.0643	-1.9959	1.5885	0.0287	-0.2344	29.2964	-8.5663	11.0818	0.5537	-0.3919	0.6602	0.3224
3.13	-9.5553	-0.0364	-1.9892	1.5907	0.0139	-0.2193	29.3453	-8.3038	11.1689	0.5571	-0.3880	0.6626	0.3166
3.14	-9.5275	-0.0152	-1.9926	1.5746	0.0152	-0.2165	29.3213	-8.3076	11.4493	0.5603	-0.3841	0.6648	0.3108
3.15	-9.5302	-0.0653	-1.9915	1.5604	0.0192	-0.2167	29.3323	-8.1535	11.3852	0.5635	-0.3803	0.6670	0.3051
3.16	-9.4641	-0.1372	-2.0270	1.5463	0.0134	-0.2185	29.4080	-7.9262	11.6335	0.5666	-0.3764	0.6691	0.2992
3.17	-9.4064	-0.1163	-1.9822	1.5439	0.0175	-0.2264	29.5762	-7.5161	11.8151	0.5697	-0.3726	0.6712	0.2935
3.18	-9.4944	-0.0619	-1.9638	1.5263	0.0525	-0.2411	29.6052	-7.0043	11.9821	0.5727	-0.3689	0.6732	0.2877
3.19	-9.5022	-0.0610	-1.9812	1.4975	0.0530	-0.2477	29.6344	-7.0844	12.4610	0.5755	-0.3653	0.6752	0.2818
3.2	-9.4672	-0.0539	-1.9311	1.4727	0.0554	-0.2577	29.4723	-6.8133	12.3749	0.5784	-0.3618	0.6772	0.2761
3.21	-9.5489	-0.0315	-1.9260	1.4368	0.0807	-0.2594	29.4764	-6.3476	12.4656	0.5809	-0.3583	0.6790	0.2704
3.22	-9.5269	-0.0472	-1.9457	1.3880	0.0733	-0.2586	29.5274	-6.1185	12.6941	0.5834	-0.3551	0.6808	0.2649
3.23	-9.5126	-0.0610	-1.9223	1.3417	0.0772	-0.2440	29.6355	-5.8878	12.6337	0.5858	-0.3518	0.6824	0.2594
3.24	-9.5587	-0.0908	-1.9402	1.2900	0.0768	-0.2303	29.5800	-5.5593	12.9301	0.5881	-0.3487	0.6841	0.2543
3.25	-9.5429	-0.1491	-1.9382	1.2452	0.0612	-0.2103	29.4003	-5.3551	13.2487	0.5902	-0.3456	0.6856	0.2493
3.26	-9.5550	-0.2259	-1.9385	1.1987	0.0605	-0.1896	29.4704	-5.1163	13.4263	0.5922	-0.3426	0.6871	0.2446
3.27	-9.5363	-0.3314	-1.9562	1.1583	0.0597	-0.1809	29.4407	-4.9889	13.7236	0.5942	-0.3396	0.6885	0.2400
3.28	-9.5079	-0.3943	-1.9689	1.1323	0.0593	-0.1601	29.5911	-4.7633	13.6991	0.5960	-0.3366	0.6899	0.2356
3.29	-9.5513	-0.3464	-1.9576	1.1089	0.0596	-0.1494	29.6851	-4.3094	13.6638	0.5978	-0.3337	0.6913	0.2313
3.3	-9.4870	-0.3546	-1.9357	1.0711	0.0583	-0.1428	29.4382	-4.3372	13.8559	0.5994	-0.3308	0.6925	0.2271
3.31	-9.4674	-0.4504	-1.9188	1.0328	0.0645	-0.1497	29.3728	-4.1406	13.7948	0.6011	-0.3281	0.6938	0.2230
3.32	-9.5451	-0.5053	-1.9478	1.0034	0.0817	-0.1546	29.4949	-3.9086	14.0147	0.6025	-0.3254	0.6950	0.2190
3.33	-9.5443	-0.5456	-1.9491	0.9828	0.0660	-0.1576	29.4269	-3.9343	13.9133	0.6040	-0.3229	0.6962	0.2151
3.34	-9.5264	-0.5745	-1.9312	0.9629	0.0667	-0.1665	29.6660	-3.6538	13.8899	0.6055	-0.3204	0.6973	0.2111
3.35	-9.5145	-0.6329	-1.9365	0.9336	0.0734	-0.1729	29.5123	-3.5744	14.2952	0.6068	-0.3180	0.6983	0.2073
3.36	-9.5312	-0.6883	-1.9394	0.9177	0.0719	-0.1904	29.6107	-3.4707	14.4250	0.6082	-0.3157	0.6993	0.2035
3.37	-9.5861	-0.7458	-1.9393	0.9011	0.0755	-0.1884	29.7368	-3.2002	14.4701	0.6094	-0.3134	0.7003	0.1997
3.38	-9.6035	-0.8564	-1.9657	0.8903	0.0669	-0.1868	29.8461	-2.8031	14.2923	0.6108	-0.3112	0.7013	0.1959
3.39	-9.6012	-0.9324	-1.9801	0.8901	0.0590	-0.1948	29.3581	-2.8564	14.5727	0.6120	-0.3090	0.7021	0.1922
3.4	-9.5859	-0.9333	-1.9827	0.8948	0.0518	-0.1896	29.5166	-2.6744	14.6103	0.6134	-0.3068	0.7030	0.1885
3.41	-9.5433	-0.9312	-1.9821	0.8871	0.0401	-0.1912	29.6897	-2.4600	14.7073	0.6147	-0.3045	0.7037	0.1847
3.42	-9.5278	-0.9283	-1.9627	0.8724	0.0388	-0.1885	29.3891	-2.1720	14.9163	0.6160	-0.3023	0.7045	0.1811
3.43	-9.5098	-0.9729	-1.9704	0.8679	0.0354	-0.1844	29.4034	-1.9445	14.6773	0.6173	-0.3001	0.7052	0.1775
3.44	-9.4965	-1.0915	-1.9633	0.8511	0.0365	-0.1771	29.3703	-1.7993	15.0517	0.6185	-0.2979	0.7059	0.1739
3.45	-9.6214	-1.1542	-1.9849	0.8600	0.0495	-0.1678	29.4291	-1.4303	15.1516	0.6198	-0.2957	0.7068	0.1704
3.46	-9.6338	-1.1207	-1.9814	0.8665	0.0241	-0.1551	29.4695	-1.3756	15.2793	0.6210	-0.2933	0.7075	0.1668
3.47	-9.5629	-1.1346	-1.9387	0.8564	0.0048	-0.1430	29.3517	-1.2399	15.3435	0.6224	-0.2909	0.7082	0.1633
3.48	-9.5699	-1.2041	-1.9411	0.8484	0.0079	-0.1364	29.5113	-1.1403	15.2146	0.6236	-0.2884	0.7087	0.1599
3.49	-9.6293	-1.2407	-1.9476	0.8481	0.0115	-0.1301	29.4667	-0.9111	15.0917	0.6249	-0.2860	0.7095	0.1565
3.5	-9.6042	-1.1925	-1.9230	0.8473	-0.0177	-0.1238	29.3720	-0.4890	15.3456	0.6261	-0.2835	0.7100	0.1532
3.51	-9.5800	-1.1953	-1.8900	0.8406	-0.0313	-0.1178	29.7769	-0.4007	15.4143	0.6275	-0.2809	0.7105	0.1498
3.52	-9.5722	-1.2181	-1.8925	0.8299	-0.0287	-0.1081	29.7429	-0.5468	15.2801	0.6288	-0.2784	0.7111	0.1466
3.53	-9.5523	-1.2068	-1.8605	0.8208	-0.0427	-0.1025	29.7195	-0.3237	15.3874	0.6301	-0.2759	0.7115	0.1434
3.54	-9.5536	-1.1648	-1.8411	0.8063	-0.0460	-0.0988	29.4523	0.0070	15.5331	0.6314	-0.2734	0.7120	0.1403
3.55	-9.5474	-1.1676	-1.8071	0.7847	-0.0586	-0.0951	29.2236	0.2556	15.3734	0.6327	-0.2709	0.7123	0.1373
3.56	-9.5301	-1.2093	-1.8133	0.7584	-0.0475	-0.0950	29.4952	0.0766	15.4393	0.6340	-0.2685	0.7127	0.1344
3.57	-9.5095	-1.1365	-1.7755	0.7492	-0.0574	-0.0921	29.3615	0.2530	15.4526	0.6351	-0.2662	0.7130	0.1315
3.58	-9.4858	-1.0850	-1.7396	0.7310	-0.0508	-0.0928	29.2683	0.3860	15.3552	0.6363	-0.2639	0.7134	0.1288
3.59	-9.4699	-1.0936	-1.7184	0.6986	-0.0582	-0.0889	29.2089	0.5285	15.4886	0.6374	-0.2617	0.7136	0.1261
3.6	-9.5055	-1.1079	-1.6999	0.6667	-0.0548	-0.0834	29.5731	0.6809	15.3621	0.6385	-0.2596	0.7139	0.1236
3.61	-9.5029	-1.1080	-1.6794	0.6324	-0.0595	-0.0826	29.7343	0.9449	15.5716	0.6396	-0.2575	0.7142	0.1211
3.62	-9.5075	-1.1110	-1.6435	0.5996	-0.0570	-0.0897	29.3103	1.1191	15.5469	0.6405	-0.2555	0.7143	0.1187
3.63	-9.5200	-1.1092	-1.6443	0.5725	-0.0588	-0.0771	29.2579	1.2341	15.5572	0.6415	-0.2537	0.7146	0.1165
3.64	-9.4747	-1.1016	-1.6117	0.5392	-0.0733	-0.0744	29.0837	1.4043	15.3812	0.6424	-0.2519	0.7147	0.1145
3.65	-9.4813	-1.1013	-1.5858	0.5028	-0.0602	-0.0697	29.1304	1.4001	15.3481	0.6433	-0.2503	0.7148	0.1126
3.66	-9.5071	-1.1426	-1.5888	0.4569	-0.0630	-0.0724	29.2758	1.5838	15.4499	0.6440	-0.2487	0.7148	0.1109
3.67	-9.4985	-1.2073	-1.5757	0.4340	-0.0653	-0.0649	29.3670	1.5223	15.4717	0.6448	-0.2472	0.7150	0.1092
3.68	-9.5206	-1.2429	-1.5664	0.4003	-0.0618	-0.0724	29.5096	1.5851	15.3803	0.6455	-0.2459	0.7151	0.1076
3.69	-9.5337	-1.2824	-1.5558	0.3755	-0.0675	-0.0780	29.5424	1.7959	15.0334	0.6461	-0.2446	0.7151	0.1061
3.7	-9.5393	-1.3679	-1.5529	0.3529	-0.0709	-0.0776	29.4137	1.8412	15.2131	0.6469	-0.2434	0.7152	0.1048
3.71	-9.5522	-1.4380	-1.5603	0.3501	-0.0732	-0.0796	29.4724	1.6039	15.2689	0.6475	-0.2422	0.7151	0.1033
3.72	-9.5527	-1.4685	-1.5526	0.3581	-0.0811	-0.0809	29.8164	1.5603	15.2886	0.6482	-0.2410	0.7151	0.1019
3.73	-9.4901	-1.5098	-1.5376	0.3374	-0.0967	-0.0852	29.6934	1.8532	15.1582	0.6489	-0.2399	0.7149	0.1006
3.74	-9.4657	-1.5605	-1.5161	0.3362	-0.0910	-0.0828	29.6067	1.6690	15.0754	0.6497	-0.2387	0.7149	0.0992
3.75	-9.4247	-1.6569	-1.5074	0.3399	-0.0926	-0.0829	29.4270	1.8009	15.2268	0.6504	-0.2376	0.7148	0.0979
3.76	-9.4188	-1.7354	-1.4899	0.3522	-0.0816	-0.0833	29.5255	2.0857	15.0549	0.6510	-0.2365	0.7148	0.0965
3.77	-9.4079	-1.7168	-1.4799	0.3678	-0.0725	-0.0770	29.5995	2.0631	15.0870	0.6517	-0.2352	0.7148	0.0951
3.78	-9.3772	-1.6928	-1.4297	0.3849	-0.0706	-0.0773	29.6999	2.0947	15.0464	0.6524	-0.2339	0.7148	0.0936
3.79	-9.4029	-1.7266	-1.4046	0.3841	-0.0507	-0.0763	29.8024	2.2337	15.1406	0.6531	-0.2326	0.7148	0.0920
3.8	-9.4577	-1.7561	-1.4088	0.4024	-0.0408	-0.0855	29.4993	2.3307	15.1717	0.6536	-0.2312	0.7149	0.0904
3.81	-9.4601	-1.7582	-1.3945	0.4165	-0.0362	-0.0987	29.6357	2.4522	15.0353	0.6543	-0.2299	0.7151	0.0886
3.82	-9.4668	-1.7977	-1.3793	0.4310	-0.0314	-0.1017	29.4935	2.7122	15.0724	0.6548	-0.2285	0.7152	0.0868
3.83	-9.4773	-1.8361	-1.3886	0.4451	-0.0389	-0.1140	29.5664	2.5911	15.0372	0.6554	-0.2272	0.7153	0.0849
3.84	-9.4760	-1.8137	-1.3470	0.4612	-0.0449	-0.1083	29.4197	2.6968	15.1642	0.6561	-0.2257	0.7153	0.0830
3.85	-9.4644	-1.7841	-1.3247	0.4727	-0.0377	-0.1139	29.5853	2.7995	15.2610	0.6567	-0.2242	0.7154	0.0810
3.86	-9.4669	-1.7807	-1.3190	0.4895	-0.0352	-0.1183	29.4837	2.9600	15.0034	0.6574	-0.2227	0.7156	0.0790
3.87	-9.4362	-1.7126	-1.3061	0.5072	-0.0301	-0.1185	29.6718	2.8531	15.2464	0.6580	-0.2211	0.7156	0.0768
3.88	-9.4355	-1.5721	-1.2609	0.5129	-0.0281	-0.1152	29.4548	2.9858	15.2205	0.6587	-0.2196	0.7158	0.0746
3.89	-9.4034	-1.4785	-1.2345	0.4903	-0.0238	-0.1236	29.5530	3.1890	15.1110	0.6593	-0.2180	0.7159	0.0725
3.9	-9.3831	-1.4100	-1.2054	0.4709	-0.0085	-0.1253	29.8645	3.3014	15.1476	0.6600	-0.2166	0.7160	0.0704
3.91	-9.3927	-1.4376	-1.2068	0.4362	-0.0075	-0.1282	29.6885	3.2160	15.1286	0.6604	-0.2153	0.7161	0.0685
3.92	-9.4096	-1.5440	-1.2233	0.3971	0.0011	-0.1271	29.9581	3.2186	15.2638	0.6609	-0.2141	0.7162	0.0666
3.93	-9.4560	-1.5657	-1.2255	0.3825	0.0150	-0.1177	29.4629	3.3982	15.1776	0.6612	-0.2130	0.7164	0.0649
3.94	-9.4430	-1.5362	-1.2124	0.3647	0.0087	-0.1124	29.5103	3.6764	15.0216	0.6615	-0.2119	0.7165	0.0632
3.95	-9.4242	-1.5044	-1.1898	0.3369	0.0162	-0.1040	29.6748	3.5324	14.9494	0.6619	-0.2108	0.7168	0.0616
3.96	-9.4577	-1.4641	-1.1998	0.3048	0.0194	-0.0983	29.5869	3.6141	15.0623	0.6621	-0.2098	0.7169	0.0602
3.97	-9.4333	-1.4114	-1.1763	0.2671	0.0190	-0.0868	29.7361	3.6611	15.2531	0.6624	-0.2090	0.7171	0.0589
3.98	-9.4594	-1.4373	-1.1728	0.2210	0.0344	-0.0833	29.6276	3.7162	15.0053	0.6624	-0.2082	0.7172	0.0578
3.99	-9.5089	-1.5671	-1.2409	0.1749	0.0428	-0.0824	29.4211	4.1044	15.0597	0.6625	-0.2076	0.7175	0.0569
4	-9.5169	-1.7141	-1.2647	0.1512	0.0348	-0.0809	29.8351	4.0531	15.1052	0.6625	-0.2071	0.7177	0.0561
4.01	-9.5524	-1.7665	-1.2980	0.1443	0.0274	-0.0721	30.0135	4.2469	15.2564	0.6625	-0.2065	0.7179	0.0553
4.02	-9.4999	-1.7523	-1.3070	0.1354	0.0104	-0.0629	29.9841	4.3922	15.4236	0.6626	-0.2060	0.7181	0.0546
4.03	-9.4565	-1.7416	-1.2820	0.1260	-0.0029	-0.0508	29.7709	4.2421	15.2952	0.6626	-0.2054	0.7182	0.0540
4.04	-9.4307	-1.6954	-1.2938	0.1120	0.0065	-0.0438	29.6465	4.2804	15.2166	0.6627	-0.2049	0.7184	0.0534
4.05	-9.3729	-1.6238	-1.2680	0.0870	0.0054	-0.0429	29.5431	4.1517	15.2871	0.6627	-0.2044	0.7184	0.0530
4.06	-9.3764	-1.5631	-1.2697	0.0603	0.0238	-0.0357	29.6327	4.2213	15.4149	0.6627	-0.2040	0.7187	0.0526
4.07	-9.3665	-1.4932	-1.2539	0.0351	0.0311	-0.0401	29.6160	4.2870	15.3367	0.6626	-0.2037	0.7188	0.0523
4.08	-9.3317	-1.4484	-1.2445	-0.0074	0.0421	-0.0406	29.5952	4.2909	15.1962	0.6624	-0.2036	0.7191	0.0522
4.09	-9.3399	-1.4058	-1.2566	-0.0525	0.0554	-0.0367	29.7267	4.1703	15.1886	0.6621	-0.2036	0.7193	0.0522
4.1	-9.4376	-1.3996	-1.2676	-0.0994	0.0684	-0.0315	29.7891	3.9764	15.3482	0.6618	-0.2037	0.7196	0.0524
4.11	-9.5042	-1.4123	-1.3042	-0.1376	0.0693	-0.0328	29.6221	4.0248	15.1994	0.6614	-0.2040	0.7199	0.0527
4.12	-9.5138	-1.4078	-1.3102	-0.1758	0.0557	-0.0339	29.5836	4.0613	15.2759	0.6609	-0.2043	0.7201	0.0531
4.13	-9.5696	-1.4163	-1.3340	-0.2225	0.0618	-0.0334	29.7634	4.3566	15.4039	0.6605	-0.2049	0.7204	0.0538
4.14	-9.6299	-1.4212	-1.3662	-0.2582	0.0487	-0.0327	29.5953	4.0188	15.3737	0.6600	-0.2055	0.7205	0.0545
4.15	-9.6038	-1.4011	-1.3714	-0.2906	0.0337	-0.0253	29.5015	3.8758	15.3965	0.6596	-0.2063	0.7207	0.0555
4.16	-9.5390	-1.3673	-1.3740	-0.3323	0.0207	-0.0233	29.5180	4.0479	15.3736	0.6590	-0.2071	0.7207	0.0566
4.17	-9.4702	-1.3396	-1.3960	-0.3691	0.0138	-0.0209	29.5550	3.8717	15.5256	0.6586	-0.2081	0.7208	0.0578
4.18	-9.3883	-1.3097	-1.4191	-0.4123	0.0211	-0.0349	29.5978	3.8199	15.4046	0.6581	-0.2092	0.7209	0.0592
4.19	-9.3370	-1.2994	-1.4312	-0.4589	0.0266	-0.0401	29.4007	3.9136	15.4425	0.6575	-0.2105	0.7209	0.0606
4.2	-9.3260	-1.3349	-1.4638	-0.4940	0.0385	-0.0392	29.5474	3.9529	15.5260	0.6569	-0.2120	0.7210	0.0623
4.21	-9.2868	-1.3184	-1.4832	-0.5327	0.0570	-0.0400	29.5067	3.7339	15.5431	0.6560	-0.2136	0.7210	0.0640
4.22	-9.3282	-1.2867	-1.4651	-0.5764	0.0749	-0.0352	29.3101	3.6294	15.2240	0.6552	-0.2153	0.7212	0.0659
4.23	-9.3996	-1.2967	-1.5305	-0.6124	0.0877	-0.0315	29.4663	3.6959	15.6146	0.6541	-0.2171	0.7213	0.0679
4.24	-9.3746	-1.2561	-1.5218	-0.6467	0.0763	-0.0253	29.3610	3.4024	15.4408	0.6531	-0.2190	0.7215	0.0700
4.25	-9.4108	-1.1851	-1.5120	-0.6829	0.0904	-0.0237	29.4284	3.2681	15.5721	0.6520	-0.2210	0.7217	0.0723
4.26	-9.4102	-1.1569	-1.5492	-0.7360	0.0944	-0.0321	29.5536	3.3788	15.5638	0.6508	-0.2232	0.7218	0.0748
4.27	-9.4174	-1.1113	-1.5556	-0.7833	0.0974	-0.0407	29.5040	2.9677	15.8224	0.6496	-0.2256	0.7219	0.0774
4.28	-9.4144	-1.0654	-1.5903	-0.8370	0.1038	-0.0448	29.4946	3.0242	15.7172	0.6482	-0.2282	0.7220	0.0801
4.29	-9.3977	-1.0562	-1.6040	-0.8984	0.1126	-0.0518	29.3907	2.9793	15.7286	0.6468	-0.2309	0.7221	0.0830
4.3	-9.4464	-1.0962	-1.6630	-0.9597	0.1282	-0.0579	29.4441	2.5974	15.8208	0.6452	-0.2339	0.7221	0.0862
4.31	-9.4638	-1.1388	-1.7193	-1.0115	0.1200	-0.0600	29.3957	2.4767	15.7583	0.6436	-0.2372	0.7222	0.0895
4.32	-9.4832	-1.2351	-1.7707	-1.0630	0.1257	-0.0537	29.4666	2.4716	15.8462	0.6419	-0.2405	0.7222	0.0930
4.33	-9.5379	-1.3434	-1.8438	-1.1005	0.1061	-0.0489	29.5541	2.5265	15.9136	0.6401	-0.2439	0.7221	0.0967
4.34	-9.5678	-1.3948	-1.8968	-1.1258	0.0888	-0.0348	29.2922	2.0226	15.7676	0.6384	-0.2474	0.7219	0.1005
4.35	-9.5335	-1.4258	-1.9323	-1.1411	0.0781	-0.0219	29.2261	1.9839	15.9761	0.6366	-0.2508	0.7217	0.1045
4.36	-9.4990	-1.4361	-1.9693	-1.1528	0.0623	-0.0092	29.2394	1.6209	16.1499	0.6349	-0.2542	0.7214	0.1085
4.37	-9.5057	-1.4268	-2.0023	-1.1773	0.0678	0.0018	29.2290	1.4409	15.9560	0.6331	-0.2576	0.7211	0.1127
4.38	-9.4934	-1.4120	-2.0291	-1.1877	0.0703	-0.0006	29.2350	1.5050	16.1534	0.6313	-0.2611	0.7209	0.1169
4.39	-9.4255	-1.3885	-2.0465	-1.2007	0.0609	0.0071	29.2335	1.3966	16.1383	0.6293	-0.2646	0.7206	0.1212
4.4	-9.4448	-1.3842	-2.0660	-1.2162	0.0697	0.0017	29.2278	0.9352	15.8545	0.6274	-0.2682	0.7203	0.1256
4.41	-9.4935	-1.4061	-2.1169	-1.2210	0.0770	0.0065	29.2308	0.8834	16.1485	0.6253	-0.2717	0.7198	0.1300
4.42	-9.4519	-1.4217	-2.1296	-1.2322	0.0640	0.0178	29.2164	0.5638	16.0718	0.6233	-0.2753	0.7194	0.1345
4.43	-9.4224	-1.4148	-2.1423	-1.2386	0.0680	0.0255	29.2424	0.3379	16.0079	0.6213	-0.2789	0.7190	0.1390
4.44	-9.4335	-1.4118	-2.1652	-1.2372	0.0655	0.0343	29.1423	0.2572	16.0426	0.6191	-0.2824	0.7185	0.1436
4.45	-9.4945	-1.4649	-2.1988	-1.2413	0.0692	0.0506	29.0227	0.0561	15.9229	0.6170	-0.2859	0.7181	0.1482
4.46	-9.5264	-1.5331	-2.2432	-1.2272	0.0577	0.0644	29.3360	-0.4101	15.8134	0.6149	-0.2892	0.7176	0.1528
4.47	-9.5375	-1.5499	-2.2578	-1.2069	0.0447	0.0729	29.2216	-0.6253	15.9674	0.6128	-0.2924	0.7171	0.1574
4.48	-9.5011	-1.5246	-2.2710	-1.1897	0.0378	0.0768	29.2118	-0.8830	15.8679	0.6107	-0.2955	0.7165	0.1620
4.49	-9.5419	-1.4757	-2.2761	-1.1622	0.0396	0.0878	29.3036	-1.2588	15.7726	0.6087	-0.2986	0.7160	0.1665
4.5	-9.5321	-1.3922	-2.2962	-1.1430	0.0247	0.0858	29.1670	-1.2397	15.7798	0.6067	-0.3015	0.7154	0.1709
4.51	-9.5063	-1.3064	-2.2840	-1.1166	0.0247	0.0758	29.5800	-1.2534	15.8651	0.6047	-0.3044	0.7148	0.1752
4.52	-9.5056	-1.2328	-2.3105	-1.1103	0.0224	0.0728	29.5654	-1.3174	15.9030	0.6027	-0.3073	0.7142	0.1795
4.53	-9.4261	-1.2214	-2.3134	-1.1109	0.0150	0.0617	29.2508	-1.9160	15.7369	0.6008	-0.3101	0.7135	0.1837
4.54	-9.4179	-1.2185	-2.3213	-1.0991	0.0278	0.0534	28.8252	-2.0980	15.7658	0.5988	-0.3130	0.7129	0.1879
4.55	-9.4244	-1.2123	-2.3291	-1.0855	0.0258	0.0527	28.7091	-2.2857	15.6573	0.5968	-0.3158	0.7121	0.1920
4.56	-9.4357	-1.2255	-2.3313	-1.0748	0.0273	0.0490	28.9783	-2.5224	15.3953	0.5949	-0.3187	0.7115	0.1960
4.57	-9.4604	-1.2182	-2.3430	-1.0436	0.0273	0.0530	28.8108	-2.5610	15.3677	0.5929	-0.3213	0.7108	0.2000
4.58	-9.4657	-1.1970	-2.3354	-1.0277	0.0270	0.0508	28.8276	-2.7871	15.6112	0.5910	-0.3240	0.7101	0.2038
4.59	-9.4604	-1.1900	-2.3410	-1.0007	0.0285	0.0523	28.7630	-3.0001	15.3140	0.5891	-0.3265	0.7094	0.2076
4.6	-9.5031	-1.2557	-2.3443	-0.9790	0.0267	0.0545	28.8920	-3.1291	15.3307	0.5872	-0.3290	0.7087	0.2113
4.61	-9.5608	-1.3681	-2.3885	-0.9439	0.0177	0.0533	28.9686	-3.5686	15.1274	0.5854	-0.3314	0.7081	0.2149
4.62	-9.5602	-1.4246	-2.3932	-0.8924	0.0047	0.0576	28.7632	-3.6879	14.8866	0.5837	-0.3335	0.7073	0.2183
4.63	-9.5263	-1.4316	-2.4016	-0.8294	-0.0186	0.0633	29.0102	-3.8095	14.9509	0.5822	-0.3355	0.7067	0.2216
4.64	-9.4762	-1.4244	-2.3943	-0.7641	-0.0221	0.0628	28.6855	-3.8970	15.1018	0.5808	-0.3372	0.7060	0.2246
4.65	-9.4936	-1.3935	-2.3580	-0.7022	-0.0164	0.0563	28.9907	-4.3440	15.0787	0.5795	-0.3389	0.7055	0.2274
4.66	-9.5218	-1.3253	-2.3564	-0.6454	-0.0104	0.0500	28.8707	-4.5875	15.0173	0.5782	-0.3403	0.7049	0.2300
4.67	-9.4732	-1.2497	-2.3242	-0.5904	-0.0230	0.0376	28.8831	-4.7036	15.0726	0.5771	-0.3416	0.7045	0.2324
4.68	-9.4970	-1.2101	-2.3098	-0.5479	-0.0148	0.0251	29.0611	-4.7396	14.8080	0.5761	-0.3428	0.7040	0.2345
4.69	-9.5048	-1.1511	-2.3241	-0.4891	-0.0111	0.0113	28.9973	-4.8249	14.7569	0.5751	-0.3439	0.7036	0.2364
4.7	-9.4750	-1.0924	-2.2751	-0.4561	-0.0211	0.0102	28.7401	-4.9247	14.7911	0.5743	-0.3450	0.7033	0.2382
4.71	-9.5418	-1.0592	-2.2781	-0.4140	-0.0124	0.0122	28.6930	-4.9663	14.6168	0.5734	-0.3458	0.7029	0.2398
4.72	-9.5155	-1.0338	-2.2675	-0.3746	-0.0276	0.0120	28.6893	-5.0131	14.8149	0.5727	-0.3466	0.7026	0.2413
4.73	-9.5808	-1.0375	-2.2137	-0.3390	-0.0258	0.0132	28.7832	-5.1004	14.5781	0.5720	-0.3473	0.7023	0.2427
4.74	-9.7206	-1.0282	-2.2460	-0.2976	-0.0231	0.0098	28.7933	-5.1978	14.5048	0.5715	-0.3479	0.7021	0.2439
4.75	-9.6185	-0.9778	-2.2425	-0.2631	-0.0599	0.0044	28.7618	-5.0493	14.6393	0.5711	-0.3483	0.7018	0.2450
4.76	-9.5908	-0.9355	-2.1878	-0.2158	-0.0639	0.0025	28.5658	-5.1815	14.5612	0.5708	-0.3486	0.7015	0.2460
4.77	-9.6378	-0.9142	-2.2622	-0.1777	-0.0632	-0.0089	28.8333	-5.3755	14.6456	0.5707	-0.3489	0.7013	0.2468
4.78	-9.4814	-0.8653	-2.2132	-0.1467	-0.1120	-0.0119	28.7225	-5.6330	14.5357	0.5707	-0.3489	0.7009	0.2475
4.79	-9.5997	-0.8276	-2.1906	-0.1166	-0.0801	-0.0215	28.7061	-5.3473	14.3276	0.5707	-0.3490	0.7007	0.2482
4.8	-9.4779	-0.8190	-2.2888	-0.0979	-0.1109	-0.0317	28.5862	-5.1448	14.2933	0.5707	-0.3490	0.7004	0.2487
4.81	-9.3630	-0.7913	-2.1439	-0.0582	-0.1246	-0.0374	28.7474	-5.4378	14.4893	0.5711	-0.3490	0.7001	0.2491
4.82	-9.4659	-0.7689	-2.2197	-0.0327	-0.0886	-0.0526	28.9147	-5.4421	14.4499	0.5712	-0.3489	0.6999	0.2493
4.83	-9.4250	-0.7419	-2.2061	-0.0037	-0.1174	-0.0612	28.8484	-5.5010	14.1933	0.5716	-0.3488	0.6996	0.2494
4.84	-9.5000	-0.6625	-2.1181	0.0265	-0.0890	-0.0593	28.8845	-5.7549	14.3657	0.5719	-0.3485	0.6995	0.2494
4.85	-9.6546	-0.5883	-2.1422	0.0301	-0.0845	-0.0692	28.8514	-5.6782	14.1864	0.5722	-0.3484	0.6993	0.2493
4.86	-9.6739	-0.5139	-2.1312	0.0470	-0.1152	-0.0618	28.9270	-5.6092	14.1006	0.5726	-0.3481	0.6992	0.2493
4.87	-9.6374	-0.4182	-2.0995	0.0391	-0.1397	-0.0595	29.3789	-5.6348	13.9510	0.5731	-0.3478	0.6988	0.2492
4.88	-9.6780	-0.3482	-2.0601	0.0177	-0.1512	-0.0507	29.0421	-5.7238	13.9789	0.5736	-0.3475	0.6986	0.2494
4.89	-9.7049	-0.3432	-2.0754	-0.0075	-0.1669	-0.0488	28.8376	-5.5686	13.9572	0.5741	-0.3473	0.6982	0.2496
4.9	-9.5261	-0.3582	-2.1195	-0.0268	-0.2121	-0.0485	29.0881	-5.5216	14.2220	0.5748	-0.3471	0.6978	0.2500
4.91	-9.3665	-0.3279	-2.0283	-0.0408	-0.2155	-0.0415	29.0187	-5.5652	13.8108	0.5754	-0.3468	0.6971	0.2504
4.92	-9.3174	-0.3277	-2.0271	-0.0529	-0.1823	-0.0423	29.0863	-5.5052	13.7065	0.5759	-0.3466	0.6966	0.2509
4.93	-9.3389	-0.3156	-2.0010	-0.0678	-0.1613	-0.0451	29.1449	-5.4479	14.1406	0.5763	-0.3466	0.6961	0.2513
4.94	-9.4087	-0.3494	-1.9930	-0.1005	-0.1433	-0.0539	28.8391	-5.3881	13.8632	0.5766	-0.3466	0.6956	0.2518
4.95	-9.3748	-0.3753	-1.9929	-0.1065	-0.1405	-0.0593	28.9029	-5.3455	13.7516	0.5770	-0.3468	0.6952	0.2523
4.96	-9.3417	-0.3709	-1.9475	-0.1137	-0.1264	-0.0619	29.0970	-5.5425	13.8099	0.5772	-0.3469	0.6947	0.2528
4.97	-9.2972	-0.3945	-1.9363	-0.1250	-0.1190	-0.0597	29.0113	-5.4914	13.6946	0.5774	-0.3471	0.6943	0.2533
4.98	-9.4168	-0.4054	-1.8930	-0.1319	-0.0897	-0.0703	29.1705	-5.3543	13.6896	0.5775	-0.3474	0.6938	0.2538
4.99	-9.4498	-0.3883	-1.9205	-0.1293	-0.0837	-0.0690	28.8771	-5.3679	13.6538	0.5776	-0.3477	0.6935	0.2543
5	-9.4172	-0.3851	-1.8446	-0.1405	-0.0996	-0.0633	29.0991	-5.3847	13.5828	0.5777	-0.3480	0.6930	0.2548
5.01	-9.3904	-0.3795	-1.8448	-0.1588	-0.0871	-0.0567	29.4358	-5.2890	13.5312	0.5777	-0.3483	0.6926	0.2554
5.02	-9.4217	-0.3756	-1.8128	-0.1564	-0.0846	-0.0489	29.3914	-5.2661	13.3804	0.5777	-0.3486	0.6923	0.2560
5.03	-9.4382	-0.3820	-1.8261	-0.1714	-0.0651	-0.0500	29.3855	-5.5369	13.3174	0.5776	-0.3489	0.6919	0.2566
5.04	-9.3802	-0.3738	-1.7953	-0.1818	-0.0680	-0.0497	29.4506	-5.5924	13.1339	0.5776	-0.3494	0.6916	0.2573
5.05	-9.4586	-0.3570	-1.7906	-0.1813	-0.0459	-0.0632	29.3064	-5.7168	13.1162	0.5773	-0.3498	0.6912	0.2578
5.06	-9.6383	-0.3808	-1.7978	-0.1945	-0.0495	-0.0677	29.3240	-5.8097	13.3925	0.5772	-0.3503	0.6909	0.2585
5.07	-9.7733	-0.4097	-1.8071	-0.2047	-0.0595	-0.0781	29.2491	-5.5766	13.3799	0.5771	-0.3509	0.6904	0.2591
5.08	-9.7210	-0.4322	-1.8071	-0.2074	-0.0982	-0.0895	29.1773	-5.7026	13.2208	0.5771	-0.3514	0.6899	0.2598
5.09	-9.5813	-0.4486	-1.7696	-0.2081	-0.1182	-0.1039	29.3989	-5.6581	13.2177	0.5772	-0.3520	0.6893	0.2605
5.1	-9.5083	-0.4395	-1.7391	-0.2100	-0.1153	-0.1145	29.5338	-5.7662	13.2477	0.5773	-0.3527	0.6886	0.2612
5.11	-9.4204	-0.4586	-1.7422	-0.2132	-0.1155	-0.1116	29.3424	-5.6703	13.1643	0.5774	-0.3533	0.6880	0.2618
5.12	-9.3089	-0.4861	-1.7170	-0.2267	-0.1005	-0.1124	29.2733	-5.5735	13.1026	0.5773	-0.3540	0.6873	0.2625
5.13	-9.3256	-0.5193	-1.7146	-0.2197	-0.0626	-0.1129	29.4096	-5.7044	13.2684	0.5773	-0.3547	0.6868	0.2631
5.14	-9.3865	-0.4970	-1.7078	-0.2105	-0.0477	-0.1109	29.2429	-5.7282	13.0037	0.5771	-0.3554	0.6863	0.2637
5.15	-9.4535	-0.5137	-1.7180	-0.2261	-0.0389	-0.1123	29.3796	-5.7974	12.6821	0.5770	-0.3562	0.6859	0.2643
5.16	-9.4126	-0.5642	-1.7402	-0.2335	-0.0375	-0.1190	29.4830	-5.7929	13.1006	0.5767	-0.3570	0.6854	0.2648
5.17	-9.3878	-0.5809	-1.7202	-0.2282	-0.0205	-0.1280	29.3527	-5.6106	13.2292	0.5765	-0.3579	0.6850	0.2654
5.18	-9.4105	-0.6149	-1.7423	-0.2184	-0.0088	-0.1241	29.4461	-5.6988	13.0689	0.5762	-0.3587	0.6846	0.2658
5.19	-9.4688	-0.6531	-1.7672	-0.2092	0.0098	-0.1242	29.5030	-5.8337	12.9478	0.5759	-0.3595	0.6842	0.2662
5.2	-9.4614	-0.6703	-1.7827	-0.2035	0.0002	-0.1233	29.3526	-5.5546	12.8687	0.5757	-0.3604	0.6840	0.2666
5.21	-9.5024	-0.7011	-1.7785	-0.1932	0.0118	-0.1264	29.2976	-5.6404	12.7829	0.5753	-0.3611	0.6836	0.2670
5.22	-9.5253	-0.7369	-1.8072	-0.1849	0.0164	-0.1238	29.4985	-5.7875	12.6131	0.5750	-0.3619	0.6834	0.2673
5.23	-9.5462	-0.7720	-1.8117	-0.1745	0.0150	-0.1175	29.4356	-5.7565	12.8038	0.5747	-0.3626	0.6830	0.2675
5.24	-9.5447	-0.7770	-1.8274	-0.1576	0.0175	-0.1136	29.7627	-5.9445	12.6285	0.5745	-0.3633	0.6829	0.2678
5.25	-9.5037	-0.7870	-1.8155	-0.1402	0.0091	-0.1122	29.6315	-5.8756	12.7484	0.5742	-0.3639	0.6827	0.2680
5.26	-9.4756	-0.8137	-1.8293	-0.1315	0.0160	-0.1101	29.5407	-5.6740	12.7766	0.5740	-0.3644	0.6825	0.2682
5.27	-9.4275	-0.8302	-1.8265	-0.1163	0.0128	-0.1081	29.5702	-5.6867	12.7600	0.5738	-0.3650	0.6823	0.2683
5.28	-9.4378	-0.8353	-1.8293	-0.1041	0.0247	-0.0960	29.4513	-5.6036	12.6283	0.5736	-0.3654	0.6822	0.2684
5.29	-9.4910	-0.8475	-1.8483	-0.0840	0.0322	-0.0915	29.4805	-5.7585	12.7747	0.5734	-0.3658	0.6822	0.2684
5.3	-9.4728	-0.8752	-1.8659	-0.0661	0.0253	-0.0939	29.4937	-5.5029	13.0809	0.5732	-0.3661	0.6821	0.2684
5.31	-9.4275	-0.8704	-1.8689	-0.0502	0.0388	-0.0833	29.3314	-5.4025	12.9919	0.5730	-0.3664	0.6822	0.2683
5.32	-9.5208	-0.8485	-1.8576	-0.0308	0.0507	-0.0824	29.3502	-5.6404	12.7903	0.5728	-0.3667	0.6823	0.2681
5.33	-9.6131	-0.8430	-1.9013	-0.0201	0.0518	-0.0816	29.6273	-5.7310	12.9595	0.5726	-0.3669	0.6825	0.2679
5.34	-9.4920	-0.8425	-1.8953	-0.0035	0.0274	-0.0677	29.3484	-5.4903	13.0202	0.5725	-0.3670	0.6826	0.2677
5.35	-9.5010	-0.8105	-1.8731	0.0148	0.0425	-0.0575	29.2836	-5.6444	13.2104	0.5723	-0.3670	0.6828	0.2675
5.36	-9.6204	-0.7869	-1.9250	0.0230	0.0420	-0.0547	29.3350	-5.7617	12.9737	0.5722	-0.3670	0.6830	0.2672
5.37	-9.6042	-0.7935	-1.9202	0.0229	0.0209	-0.0526	29.5007	-5.8076	12.9645	0.5721	-0.3669	0.6831	0.2670
5.38	-9.5864	-0.7826	-1.9176	0.0388	0.0102	-0.0323	29.4485	-5.4559	12.8956	0.5721	-0.3668	0.6834	0.2668
5.39	-9.5989	-0.7588	-1.9325	0.0477	-0.0030	-0.0303	29.5394	-5.5642	12.9246	0.5721	-0.3665	0.6836	0.2666
5.4	-9.6356	-0.7279	-1.9302	0.0475	-0.0158	-0.0321	29.5582	-5.6722	13.0989	0.5723	-0.3663	0.6838	0.2664
5.41	-9.6541	-0.7133	-1.9492	0.0490	-0.0201	-0.0312	29.6698	-5.7930	12.9317	0.5723	-0.3660	0.6838	0.2662
5.42	-9.6085	-0.7162	-1.9405	0.0467	-0.0407	-0.0310	29.7364	-5.6530	13.0579	0.5725	-0.3657	0.6839	0.2661
5.43	-9.5944	-0.7003	-1.9380	0.0546	-0.0423	-0.0317	29.4416	-5.7353	12.8899	0.5727	-0.3655	0.6839	0.2659
5.44	-9.5423	-0.6666	-1.9424	0.0539	-0.0524	-0.0311	29.5066	-5.5330	13.0612	0.5729	-0.3651	0.6839	0.2658
5.45	-9.5226	-0.6721	-1.9355	0.0509	-0.0520	-0.0324	29.4422	-5.3976	12.9213	0.5732	-0.3649	0.6841	0.2657
5.46	-9.5379	-0.6512	-1.9502	0.0545	-0.0522	-0.0323	29.6900	-5.4559	13.1022	0.5733	-0.3645	0.6840	0.2655
5.47	-9.5127	-0.6377	-1.9363	0.0456	-0.0623	-0.0334	29.5086	-5.3775	12.8982	0.5736	-0.3643	0.6841	0.2654
5.48	-9.4720	-0.6489	-1.9332	0.0539	-0.0654	-0.0315	29.4709	-5.6450	12.7315	0.5738	-0.3639	0.6840	0.2652
5.49	-9.5098	-0.6401	-1.9235	0.0537	-0.0539	-0.0374	29.5618	-5.5525	12.7930	0.5741	-0.3637	0.6840	0.2651
5.5	-9.5240	-0.6279	-1.9342	0.0468	-0.0618	-0.0401	29.4764	-5.3863	12.8935	0.5744	-0.3634	0.6840	0.2649
5.51	-9.4709	-0.6372	-1.9261	0.0511	-0.0645	-0.0411	29.6838	-5.4467	13.0532	0.5747	-0.3631	0.6839	0.2648
5.52	-9.4453	-0.6378	-1.9085	0.0529	-0.0581	-0.0426	29.6459	-5.4185	13.0181	0.5750	-0.3628	0.6839	0.2647
5.53	-9.4588	-0.6176	-1.8996	0.0500	-0.0569	-0.0433	29.6628	-5.3440	12.8171	0.5752	-0.3625	0.6839	0.2645
5.54	-9.4652	-0.6192	-1.8866	0.0497	-0.0555	-0.0366	29.5799	-5.2309	12.8550	0.5755	-0.3623	0.6839	0.2644
5.55	-9.4685	-0.6281	-1.8891	0.0503	-0.0493	-0.0361	29.3305	-5.2332	12.7877	0.5757	-0.3620	0.6838	0.2642
5.56	-9.4545	-0.6110	-1.8672	0.0503	-0.0450	-0.0327	29.3555	-5.4748	12.7374	0.5760	-0.3617	0.6839	0.2641
5.57	-9.4875	-0.6033	-1.8567	0.0480	-0.0350	-0.0375	29.4247	-5.6097	12.7054	0.5761	-0.3615	0.6840	0.2639
5.58	-9.5095	-0.5964	-1.8719	0.0485	-0.0382	-0.0347	29.4582	-5.5514	12.8268	0.5763	-0.3612	0.6840	0.2637
5.59	-9.5069	-0.5932	-1.8486	0.0482	-0.0434	-0.0349	29.6309	-5.6813	12.6550	0.5765	-0.3609	0.6840	0.2635
5.6	-9.5512	-0.5836	-1.8482	0.0486	-0.0369	-0.0374	29.6723	-5.5337	12.4547	0.5767	-0.3607	0.6841	0.2634
5.61	-9.6121	-0.5770	-1.8442	0.0471	-0.0388	-0.0405	29.7327	-5.6393	12.7776	0.5769	-0.3605	0.6841	0.2632
5.62	-9.6186	-0.5750	-1.8332	0.0429	-0.0520	-0.0433	29.8146	-5.6949	12.7082	0.5771	-0.3602	0.6840	0.2630
5.63	-9.6106	-0.5726	-1.8373	0.0327	-0.0580	-0.0436	29.4158	-5.4239	12.5605	0.5774	-0.3601	0.6841	0.2629
5.64	-9.5805	-0.5634	-1.8093	0.0227	-0.0610	-0.0500	29.4596	-5.5776	12.6117	0.5776	-0.3599	0.6839	0.2628
5.65	-9.6323	-0.5903	-1.8036	0.0230	-0.0562	-0.0565	29.7914	-5.4933	12.5629	0.5779	-0.3598	0.6839	0.2627
5.66	-9.6396	-0.5885	-1.8376	0.0231	-0.0732	-0.0514	29.6894	-5.5873	12.7908	0.5781	-0.3596	0.6837	0.2626
5.67	-9.5466	-0.5840	-1.7753	0.0222	-0.0906	-0.0590	29.2975	-5.3121	12.7753	0.5785	-0.3594	0.6835	0.2625
5.68	-9.6043	-0.5843	-1.7753	0.0171	-0.0717	-0.0623	29.4226	-5.3821	12.7592	0.5788	-0.3593	0.6834	0.2624
5.69	-9.6524	-0.6114	-1.7980	0.0091	-0.0816	-0.0608	29.6255	-5.3304	12.7937	0.5791	-0.3592	0.6831	0.2624
5.7	-9.6196	-0.6298	-1.7754	0.0136	-0.0952	-0.0575	29.5721	-5.3072	12.7414	0.5795	-0.3591	0.6830	0.2624
5.71	-9.6847	-0.6415	-1.7735	0.0211	-0.0972	-0.0601	29.4836	-5.2952	12.3934	0.5799	-0.3589	0.6827	0.2623
5.72	-9.7117	-0.6508	-1.7895	0.0234	-0.1097	-0.0755	29.5514	-5.1750	12.6535	0.5804	-0.3588	0.6825	0.2622
5.73	-9.6779	-0.6479	-1.7739	0.0236	-0.1278	-0.0725	29.7287	-5.3498	12.7121	0.5808	-0.3586	0.6821	0.2621
5.74	-9.6553	-0.6470	-1.7626	0.0231	-0.1330	-0.0770	29.5043	-5.1594	12.6243	0.5814	-0.3585	0.6818	0.2621
5.75	-9.6562	-0.6614	-1.7440	0.0313	-0.1422	-0.0808	29.4283	-5.1691	12.4295	0.5820	-0.3583	0.6814	0.2620
5.76	-9.6506	-0.6596	-1.7468	0.0356	-0.1560	-0.0711	29.5886	-5.3187	12.6031	0.5826	-0.3581	0.6809	0.2620
5.77	-9.6241	-0.6539	-1.7179	0.0475	-0.1697	-0.0695	29.8012	-5.3158	12.4986	0.5833	-0.3578	0.6806	0.2620
5.78	-9.5968	-0.6465	-1.6929	0.0488	-0.1734	-0.0723	29.8703	-5.4357	12.1864	0.5840	-0.3575	0.6801	0.2619
5.79	-9.5895	-0.6382	-1.6685	0.0499	-0.1780	-0.0735	29.8745	-5.5727	12.1550	0.5848	-0.3572	0.6797	0.2619
5.8	-9.5663	-0.6296	-1.6488	0.0478	-0.1924	-0.0701	29.7514	-5.5828	12.3615	0.5855	-0.3568	0.6791	0.2618
5.81	-9.5635	-0.6067	-1.6137	0.0507	-0.1752	-0.0727	29.9082	-5.3720	12.1654	0.5863	-0.3566	0.6787	0.2618
5.82	-9.5219	-0.5910	-1.5983	0.0498	-0.1762	-0.0762	29.7782	-5.4083	12.1290	0.5870	-0.3562	0.6782	0.2617
5.83	-9.4841	-0.5964	-1.5553	0.0488	-0.1861	-0.0823	29.8400	-5.4051	12.1137	0.5878	-0.3559	0.6778	0.2617
5.84	-9.4752	-0.5632	-1.5429	0.0496	-0.1674	-0.0824	29.9424	-5.4727	12.2510	0.5885	-0.3556	0.6773	0.2616
5.85	-9.4458	-0.5450	-1.5102	0.0484	-0.1672	-0.0806	30.0055	-5.3001	12.0488	0.5892	-0.3554	0.6769	0.2616
5.86	-9.4071	-0.5718	-1.4843	0.0284	-0.1523	-0.0780	29.9661	-5.4493	11.6594	0.5898	-0.3551	0.6765	0.2616
5.87	-9.4209	-0.5805	-1.4507	0.0208	-0.1288	-0.0839	29.7012	-4.9469	11.7229	0.5903	-0.3549	0.6760	0.2615
5.88	-9.4689	-0.5830	-1.4388	0.0166	-0.1172	-0.0838	30.1401	-4.9522	11.9993	0.5909	-0.3549	0.6758	0.2615
5.89	-9.4540	-0.5755	-1.4196	0.0084	-0.1172	-0.0788	30.0991	-5.1455	12.0191	0.5913	-0.3547	0.6754	0.2615
5.9	-9.4565	-0.5774	-1.3957	-0.0029	-0.0978	-0.0723	29.9264	-5.0628	11.8311	0.5917	-0.3547	0.6752	0.2615
5.91	-9.4295	-0.5887	-1.3901	-0.0213	-0.0958	-0.0700	29.6260	-5.0648	11.8733	0.5920	-0.3546	0.6748	0.2616
5.92	-9.4440	-0.5931	-1.3699	-0.0253	-0.0777	-0.0632	29.7525	-5.0194	11.4261	0.5923	-0.3546	0.6746	0.2617
5.93	-9.4780	-0.5986	-1.3799	-0.0301	-0.0600	-0.0646	30.1130	-4.9861	11.6098	0.5924	-0.3546	0.6744	0.2617
5.94	-9.4282	-0.6005	-1.3631	-0.0435	-0.0629	-0.0687	30.1623	-5.1472	11.6870	0.5926	-0.3547	0.6741	0.2618
5.95	-9.4300	-0.6121	-1.3478	-0.0478	-0.0508	-0.0665	29.9826	-5.2481	11.5691	0.5928	-0.3548	0.6740	0.2619
5.96	-9.5195	-0.6309	-1.3645	-0.0549	-0.0331	-0.0645	30.0022	-5.3407	11.5347	0.5928	-0.3549	0.6738	0.2620
5.97	-9.5282	-0.6440	-1.3592	-0.0535	-0.0428	-0.0683	30.2370	-5.3050	11.5073	0.5929	-0.3551	0.6736	0.2621
5.98	-9.5308	-0.6453	-1.3491	-0.0570	-0.0323	-0.0653	30.2196	-5.3313	11.7133	0.5929	-0.3552	0.6734	0.2622
5.99	-9.5192	-0.6520	-1.3624	-0.0663	-0.0298	-0.0599	30.1914	-5.0793	11.6251	0.5929	-0.3554	0.6733	0.2624
6	-9.5074	-0.6713	-1.3596	-0.0772	-0.0255	-0.0594	30.1465	-5.2034	11.7315	0.5929	-0.3556	0.6731	0.2625
6.01	-9.5309	-0.6847	-1.3681	-0.0806	-0.0195	-0.0468	30.6022	-4.9564	11.7799	0.5928	-0.3557	0.6730	0.2628
6.02	-9.5744	-0.6934	-1.3773	-0.0792	-0.0203	-0.0403	30.6630	-4.9699	11.5587	0.5928	-0.3559	0.6729	0.2630
6.03	-9.5504	-0.6941	-1.4039	-0.0828	-0.0269	-0.0332	30.3205	-5.0711	11.2671	0.5927	-0.3560	0.6728	0.2633
6.04	-9.5432	-0.6990	-1.3929	-0.0808	-0.0284	-0.0344	30.0358	-5.1572	11.2936	0.5927	-0.3562	0.6727	0.2635
6.05	-9.6033	-0.6887	-1.4187	-0.0794	-0.0196	-0.0312	30.0940	-5.2035	11.3890	0.5925	-0.3562	0.6725	0.2638
6.06	-9.5851	-0.6873	-1.4361	-0.0859	-0.0252	-0.0356	29.8744	-5.0574	11.3733	0.5925	-0.3564	0.6725	0.2641
6.07	-9.5419	-0.6953	-1.4355	-0.0811	-0.0278	-0.0336	29.9270	-5.2272	11.5045	0.5924	-0.3565	0.6724	0.2643
6.08	-9.5683	-0.7002	-1.4446	-0.0846	-0.0216	-0.0355	29.8479	-5.3169	11.3839	0.5923	-0.3567	0.6723	0.2646
6.09	-9.5899	-0.7157	-1.4574	-0.0813	-0.0214	-0.0349	30.0604	-5.4416	11.3552	0.5922	-0.3568	0.6721	0.2649
6.1	-9.5941	-0.7306	-1.4482	-0.0811	-0.0251	-0.0325	30.0954	-5.4156	11.2892	0.5922	-0.3569	0.6720	0.2651
6.11	-9.6291	-0.7359	-1.4603	-0.0812	-0.0241	-0.0355	30.0598	-5.0255	11.2140	0.5921	-0.3571	0.6719	0.2653
6.12	-9.6391	-0.7276	-1.4607	-0.0768	-0.0262	-0.0346	30.1627	-4.9628	11.1627	0.5920	-0.3572	0.6717	0.2655
6.13	-9.6481	-0.7308	-1.4617	-0.0801	-0.0357	-0.0338	29.9975	-5.0952	11.2932	0.5921	-0.3574	0.6717	0.2658
6.14	-9.6061	-0.7302	-1.4655	-0.0694	-0.0479	-0.0352	30.0550	-5.2374	11.2887	0.5921	-0.3575	0.6714	0.2660
6.15	-9.6498	-0.7297	-1.4477	-0.0618	-0.0420	-0.0336	30.0099	-5.4517	11.2166	0.5922	-0.3575	0.6713	0.2663
6.16	-9.6456	-0.7331	-1.4847	-0.0606	-0.0455	-0.0334	30.1308	-5.4063	11.1757	0.5922	-0.3576	0.6711	0.2664
6.17	-9.6087	-0.7294	-1.4560	-0.0548	-0.0542	-0.0263	30.1185	-5.4505	11.2041	0.5923	-0.3576	0.6710	0.2667
6.18	-9.5850	-0.7242	-1.4729	-0.0514	-0.0486	-0.0275	30.1191	-5.3683	11.1820	0.5924	-0.3576	0.6708	0.2669
6.19	-9.5528	-0.7063	-1.4515	-0.0458	-0.0585	-0.0240	30.1248	-5.3128	11.1985	0.5925	-0.3575	0.6706	0.2671
6.2	-9.6034	-0.6999	-1.4434	-0.0397	-0.0499	-0.0181	30.1132	-5.4533	11.1790	0.5926	-0.3575	0.6706	0.2673
6.21	-9.5931	-0.7006	-1.4541	-0.0377	-0.0552	-0.0141	30.1369	-5.5429	11.3726	0.5927	-0.3574	0.6704	0.2675
6.22	-9.5955	-0.7010	-1.4373	-0.0365	-0.0608	-0.0176	30.0785	-5.4414	11.3278	0.5929	-0.3573	0.6703	0.2677
6.23	-9.5679	-0.6781	-1.4471	-0.0333	-0.0652	-0.0201	30.3378	-5.4162	11.1745	0.5929	-0.3572	0.6700	0.2678
6.24	-9.4960	-0.6501	-1.4171	-0.0278	-0.0691	-0.0196	30.0187	-5.3222	11.1940	0.5932	-0.3571	0.6700	0.2681
6.25	-9.4596	-0.6387	-1.4143	-0.0295	-0.0528	-0.0287	29.9591	-5.3528	11.0140	0.5933	-0.3570	0.6698	0.2682
6.26	-9.5283	-0.6405	-1.3954	-0.0281	-0.0397	-0.0345	30.0743	-5.3180	10.9888	0.5933	-0.3569	0.6697	0.2684
6.27	-9.5613	-0.6486	-1.4194	-0.0294	-0.0303	-0.0401	29.9967	-5.4572	11.2061	0.5934	-0.3569	0.6697	0.2684
6.28	-9.5172	-0.6544	-1.3863	-0.0265	-0.0369	-0.0379	29.9446	-5.3875	11.3369	0.5935	-0.3569	0.6696	0.2685
6.29	-9.5744	-0.6504	-1.3871	-0.0266	-0.0232	-0.0353	30.1357	-5.5208	10.9428	0.5936	-0.3569	0.6695	0.2686
6.3	-9.5650	-0.6348	-1.3710	-0.0159	-0.0286	-0.0462	30.0241	-5.4341	10.9081	0.5936	-0.3568	0.6694	0.2686
6.31	-9.6109	-0.6276	-1.3454	-0.0117	-0.0216	-0.0410	30.1419	-5.2202	11.1086	0.5937	-0.3568	0.6694	0.2686
6.32	-9.6063	-0.6295	-1.3698	-0.0139	-0.0358	-0.0393	30.1014	-5.4097	10.9905	0.5938	-0.3568	0.6693	0.2686
6.33	-9.5761	-0.6292	-1.3388	-0.0058	-0.0379	-0.0449	30.1900	-5.4994	10.9372	0.5940	-0.3567	0.6692	0.2686
6.34	-9.5652	-0.6263	-1.3507	-0.0090	-0.0304	-0.0557	30.2314	-5.5298	11.0028	0.5941	-0.3567	0.6691	0.2685
6.35	-9.5747	-0.6269	-1.3388	-0.0089	-0.0320	-0.0580	30.1739	-5.3774	11.1351	0.5943	-0.3567	0.6690	0.2684
6.36	-9.5617	-0.6316	-1.3445	-0.0181	-0.0223	-0.0570	30.2935	-5.6983	10.8799	0.5944	-0.3567	0.6689	0.2684
6.37	-9.5567	-0.6372	-1.3244	-0.0141	-0.0161	-0.0577	30.2272	-5.6041	11.0393	0.5944	-0.3567	0.6688	0.2683
6.38	-9.5633	-0.6354	-1.3286	-0.0109	-0.0165	-0.0578	29.9885	-5.5144	10.9745	0.5946	-0.3568	0.6688	0.2683
6.39	-9.5888	-0.6300	-1.3130	-0.0163	-0.0096	-0.0636	30.2117	-5.4774	10.7718	0.5946	-0.3568	0.6687	0.2682
6.4	-9.6295	-0.6251	-1.3226	-0.0243	-0.0119	-0.0658	30.1667	-5.4088	10.8882	0.5947	-0.3569	0.6687	0.2681
6.41	-9.6022	-0.6336	-1.3166	-0.0279	-0.0182	-0.0679	29.9794	-5.4413	11.1235	0.5947	-0.3570	0.6685	0.2681
6.42	-9.5861	-0.6457	-1.3096	-0.0288	-0.0089	-0.0618	30.2230	-5.1854	11.0702	0.5948	-0.3571	0.6685	0.2680
6.43	-9.5739	-0.6456	-1.3242	-0.0278	-0.0163	-0.0652	30.0999	-5.3290	10.9677	0.5949	-0.3572	0.6684	0.2680
6.44	-9.5795	-0.6492	-1.3129	-0.0373	-0.0133	-0.0640	29.9868	-5.3402	11.0886	0.5949	-0.3573	0.6682	0.2680
6.45	-9.5593	-0.6630	-1.3209	-0.0448	-0.0098	-0.0617	30.2524	-5.4310	11.2232	0.5950	-0.3575	0.6682	0.2680
6.46	-9.5386	-0.6805	-1.3181	-0.0452	-0.0088	-0.0512	30.0534	-5.2963	11.1457	0.5949	-0.3576	0.6681	0.2681
6.47	-9.5320	-0.6921	-1.3428	-0.0521	-0.0033	-0.0407	30.0011	-5.4091	11.0675	0.5949	-0.3577	0.6681	0.2682
6.48	-9.5130	-0.6941	-1.3281	-0.0421	-0.0005	-0.0330	30.1513	-5.5155	11.2055	0.5947	-0.3577	0.6681	0.2682
6.49	-9.5656	-0.6911	-1.3322	-0.0521	0.0023	-0.0326	30.0606	-5.5245	11.1953	0.5947	-0.3578	0.6681	0.2684
6.5	-9.5871	-0.6901	-1.3475	-0.0539	0.0012	-0.0300	30.2915	-5.3031	10.9992	0.5946	-0.3578	0.6681	0.2685
6.51	-9.5693	-0.6909	-1.3339	-0.0461	0.0009	-0.0194	30.7245	-5.2026	11.0791	0.5945	-0.3578	0.6681	0.2686
6.52	-9.6275	-0.6856	-1.3405	-0.0444	-0.0011	-0.0124	30.5244	-5.4639	11.2105	0.5944	-0.3578	0.6681	0.2688
6.53	-9.6346	-0.6766	-1.3565	-0.0427	-0.0108	-0.0049	30.3719	-5.3965	11.1704	0.5944	-0.3578	0.6681	0.2690
6.54	-9.6184	-0.6779	-1.3450	-0.0306	-0.0151	-0.0040	30.1858	-5.4179	11.0732	0.5944	-0.3577	0.6681	0.2691
6.55	-9.6398	-0.6609	-1.3668	-0.0288	-0.0135	-0.0089	30.0438	-5.6325	11.1272	0.5943	-0.3576	0.6681	0.2692
6.56	-9.6084	-0.6419	-1.3648	-0.0291	-0.0200	-0.0027	30.1696	-5.6825	11.0921	0.5944	-0.3575	0.6681	0.2694
6.57	-9.6123	-0.6352	-1.3659	-0.0291	-0.0120	-0.0052	30.0635	-5.6763	11.0131	0.5943	-0.3574	0.6681	0.2695
6.58	-9.6025	-0.6190	-1.3681	-0.0278	-0.0175	-0.0076	30.0188	-5.6704	10.9559	0.5944	-0.3573	0.6681	0.2697
6.59	-9.6161	-0.5956	-1.3550	-0.0154	-0.0181	-0.0069	30.1272	-5.6853	10.9910	0.5944	-0.3571	0.6681	0.2698
6.6	-9.6489	-0.5725	-1.3682	-0.0084	-0.0293	-0.0071	30.1408	-5.7723	11.2110	0.5944	-0.3569	0.6681	0.2699
6.61	-9.6848	-0.5463	-1.3500	-0.0087	-0.0376	-0.0081	30.0699	-5.5770	11.1369	0.5946	-0.3568	0.6681	0.2700
6.62	-9.6878	-0.5370	-1.3612	-0.0115	-0.0365	-0.0067	29.9537	-5.6058	11.1023	0.5946	-0.3565	0.6680	0.2701
6.63	-9.6216	-0.5213	-1.3309	-0.0080	-0.0481	-0.0113	29.9124	-5.4616	11.2085	0.5948	-0.3564	0.6680	0.2703
6.64	-9.6492	-0.5093	-1.3361	-0.0085	-0.0448	-0.0259	29.8948	-5.5591	10.9145	0.5949	-0.3562	0.6679	0.2703
6.65	-9.6025	-0.4945	-1.3502	-0.0091	-0.0522	-0.0320	30.1910	-5.5946	10.9310	0.5952	-0.3561	0.6678	0.2704
6.66	-9.5558	-0.4886	-1.3195	-0.0165	-0.0508	-0.0412	29.9083	-5.5949	11.0103	0.5952	-0.3560	0.6676	0.2705
6.67	-9.5168	-0.4803	-1.3369	-0.0136	-0.0447	-0.0499	29.9728	-5.5658	11.0391	0.5954	-0.3559	0.6675	0.2705
6.68	-9.5326	-0.4782	-1.3042	-0.0074	-0.0510	-0.0505	30.2727	-5.6527	10.9878	0.5956	-0.3559	0.6674	0.2705
6.69	-9.5834	-0.4707	-1.3087	-0.0109	-0.0444	-0.0530	30.0172	-5.6666	11.1306	0.5957	-0.3558	0.6672	0.2705
6.7	-9.5975	-0.4645	-1.2869	-0.0175	-0.0465	-0.0672	30.0677	-5.7987	11.0913	0.5960	-0.3559	0.6671	0.2706
6.71	-9.6293	-0.4622	-1.2779	-0.0193	-0.0458	-0.0731	29.9555	-5.6981	10.8890	0.5962	-0.3559	0.6669	0.2705
6.72	-9.6249	-0.4718	-1.2741	-0.0263	-0.0508	-0.0850	30.0578	-5.7331	11.1787	0.5964	-0.3560	0.6667	0.2705
6.73	-9.6382	-0.4916	-1.2690	-0.0271	-0.0399	-0.0877	30.2368	-5.7681	10.8994	0.5966	-0.3560	0.6664	0.2704
6.74	-9.5922	-0.5189	-1.2848	-0.0457	-0.0453	-0.0976	30.2192	-5.7829	10.9619	0.5968	-0.3563	0.6662	0.2704
6.75	-9.5472	-0.5536	-1.2628	-0.0533	-0.0497	-0.0977	30.3240	-5.8516	11.0611	0.5969	-0.3565	0.6659	0.2705
6.76	-9.5314	-0.5740	-1.2792	-0.0535	-0.0368	-0.0937	30.0164	-5.6350	10.9465	0.5970	-0.3567	0.6657	0.2705
6.77	-9.5083	-0.5896	-1.2641	-0.0537	-0.0421	-0.0894	29.9523	-5.7995	10.8087	0.5972	-0.3569	0.6655	0.2705
6.78	-9.5745	-0.6116	-1.2668	-0.0580	-0.0259	-0.0837	30.0549	-5.8658	10.8922	0.5972	-0.3571	0.6653	0.2706
6.79	-9.4989	-0.6442	-1.2625	-0.0560	-0.0358	-0.0818	30.0175	-5.8258	11.1594	0.5973	-0.3573	0.6651	0.2707
6.8	-9.5466	-0.6791	-1.2406	-0.0632	-0.0270	-0.0752	30.1169	-5.5077	11.0021	0.5973	-0.3574	0.6648	0.2707
6.81	-9.6353	-0.7035	-1.2980	-0.0669	-0.0080	-0.0632	30.1522	-5.1510	10.9163	0.5973	-0.3577	0.6648	0.2709
6.82	-9.6032	-0.7252	-1.2772	-0.0570	-0.0251	-0.0528	30.0734	-5.3474	10.8972	0.5973	-0.3578	0.6646	0.2710
6.83	-9.5772	-0.7278	-1.2782	-0.0568	-0.0136	-0.0504	30.0170	-5.4923	10.7168	0.5974	-0.3579	0.6645	0.2711
6.84	-9.5783	-0.7299	-1.2878	-0.0543	-0.0086	-0.0434	30.1319	-5.6152	10.9417	0.5973	-0.3580	0.6644	0.2712
6.85	-9.4857	-0.7317	-1.2978	-0.0498	-0.0171	-0.0328	30.0147	-5.4209	10.8066	0.5973	-0.3580	0.6644	0.2714
6.86	-9.4923	-0.7273	-1.2799	-0.0374	-0.0049	-0.0244	30.0412	-5.4744	10.8445	0.5972	-0.3580	0.6644	0.2715
6.87	-9.5294	-0.7181	-1.3240	-0.0276	0.0028	-0.0108	30.0422	-5.4969	10.8132	0.5971	-0.3579	0.6644	0.2716
6.88	-9.4548	-0.6948	-1.3079	-0.0179	-0.0053	0.0008	30.0165	-5.6222	11.0692	0.5971	-0.3578	0.6646	0.2718
6.89	-9.4657	-0.6697	-1.3191	-0.0093	0.0212	0.0149	29.9349	-5.9783	10.6675	0.5969	-0.3576	0.6647	0.2718
6.9	-9.4122	-0.6557	-1.3571	-0.0154	0.0222	0.0242	30.1884	-5.8683	10.7206	0.5968	-0.3574	0.6650	0.2720
6.91	-9.3601	-0.6207	-1.3295	-0.0104	0.0370	0.0263	30.3349	-5.8188	10.8502	0.5965	-0.3572	0.6652	0.2721
6.92	-9.3730	-0.5767	-1.3511	-0.0105	0.0525	0.0395	30.1300	-6.0274	10.8641	0.5963	-0.3569	0.6656	0.2722
6.93	-9.2981	-0.5474	-1.3312	-0.0156	0.0632	0.0486	30.1842	-5.9369	10.7826	0.5959	-0.3567	0.6659	0.2724
6.94	-9.2948	-0.4986	-1.3009	-0.0192	0.0790	0.0660	30.1662	-5.7374	10.7330	0.5955	-0.3564	0.6663	0.2725
6.95	-9.4460	-0.4582	-1.3108	-0.0253	0.0986	0.0892	29.8937	-5.8602	10.8459	0.5950	-0.3562	0.6670	0.2728
6.96	-9.4815	-0.4252	-1.3172	-0.0322	0.0914	0.1091	30.1161	-6.0309	10.8829	0.5944	-0.3558	0.6675	0.2731
6.97	-9.4668	-0.3673	-1.2654	-0.0302	0.1003	0.1267	29.8991	-6.1601	10.9635	0.5938	-0.3554	0.6681	0.2735
6.98	-9.5843	-0.3244	-1.3042	-0.0310	0.1303	0.1397	30.0817	-6.0096	10.9199	0.5930	-0.3550	0.6687	0.2738
6.99	-9.6000	-0.2775	-1.3360	-0.0323	0.1216	0.1386	29.9427	-6.1339	11.1824	0.5924	-0.3546	0.6695	0.2742
7	-9.6638	-0.2407	-1.3299	-0.0413	0.1319	0.1250	29.7397	-6.1191	11.2593	0.5916	-0.3543	0.6702	0.2745
7.01	-9.6552	-0.2206	-1.3953	-0.0483	0.1263	0.1005	30.2714	-6.0538	11.4001	0.5909	-0.3540	0.6708	0.2748
7.02	-9.6727	-0.2146	-1.3833	-0.0568	0.1187	0.0723	30.0833	-5.8094	11.4088	0.5903	-0.3539	0.6713	0.2751
7.03	-9.7566	-0.2139	-1.4470	-0.0560	0.1248	0.0481	29.9398	-6.1446	11.3677	0.5897	-0.3538	0.6718	0.2752
7.04	-9.8674	-0.2190	-1.4495	-0.0572	0.1108	0.0133	29.7790	-6.2415	11.3885	0.5891	-0.3539	0.6723	0.2753
7.05	-9.8863	-0.2336	-1.4983	-0.0587	0.0911	-0.0028	29.5806	-6.3961	11.2849	0.5886	-0.3540	0.6725	0.2754
7.06	-9.8499	-0.2502	-1.4644	-0.0714	0.0552	-0.0210	29.5953	-6.4934	11.3560	0.5883	-0.3542	0.6727	0.2756
7.07	-9.9968	-0.2577	-1.4882	-0.0715	0.0561	-0.0344	29.5482	-6.3968	11.5260	0.5880	-0.3543	0.6728	0.2757
7.08	-9.9426	-0.2856	-1.5257	-0.0645	0.0085	-0.0409	29.6528	-6.3526	11.4826	0.5878	-0.3545	0.6729	0.2758
7.09	-9.8041	-0.3131	-1.4704	-0.0652	-0.0228	-0.0487	29.7546	-6.4535	11.4749	0.5878	-0.3546	0.6727	0.2760
7.1	-9.7698	-0.3260	-1.4964	-0.0558	-0.0274	-0.0660	29.7744	-6.4869	11.5455	0.5878	-0.3547	0.6726	0.2761
7.11	-9.7513	-0.3555	-1.4824	-0.0604	-0.0475	-0.0720	29.8817	-6.7532	11.5471	0.5879	-0.3549	0.6724	0.2762
7.12	-9.7242	-0.3716	-1.4958	-0.0517	-0.0469	-0.0740	29.7382	-6.6205	11.4836	0.5880	-0.3550	0.6721	0.2763
7.13	-9.6241	-0.3720	-1.4706	-0.0433	-0.0704	-0.0697	29.7582	-6.6370	11.3805	0.5883	-0.3551	0.6720	0.2765
7.14	-9.5460	-0.3680	-1.4540	-0.0338	-0.0622	-0.0803	29.4457	-6.7620	11.4630	0.5884	-0.3551	0.6717	0.2765
7.15	-9.5574	-0.3722	-1.4394	-0.0414	-0.0595	-0.0826	29.8636	-6.4031	11.4496	0.5887	-0.3553	0.6715	0.2766
7.16	-9.5907	-0.3708	-1.4407	-0.0374	-0.0520	-0.0813	29.6338	-6.6828	11.3612	0.5888	-0.3553	0.6712	0.2766
7.17	-9.4798	-0.3791	-1.4251	-0.0281	-0.0663	-0.0868	29.8263	-6.6672	11.4587	0.5891	-0.3554	0.6709	0.2766
7.18	-9.5017	-0.3952	-1.4009	-0.0294	-0.0417	-0.0904	29.7735	-6.5119	11.4757	0.5892	-0.3555	0.6707	0.2766
7.19	-9.4955	-0.4042	-1.4461	-0.0436	-0.0325	-0.0910	29.8329	-6.4950	11.2682	0.5893	-0.3557	0.6705	0.2766
7.2	-9.4350	-0.4305	-1.4014	-0.0496	-0.0407	-0.0873	29.7373	-6.2398	11.4422	0.5895	-0.3559	0.6704	0.2767
7.21	-9.5188	-0.4493	-1.4337	-0.0480	-0.0067	-0.0794	29.5229	-6.4304	11.4775	0.5895	-0.3561	0.6702	0.2766
7.22	-9.5037	-0.4595	-1.4512	-0.0463	-0.0170	-0.0676	29.8491	-6.5250	11.3100	0.5895	-0.3562	0.6702	0.2767
7.23	-9.4937	-0.4672	-1.4228	-0.0405	-0.0129	-0.0521	29.8455	-6.5509	11.3010	0.5895	-0.3562	0.6700	0.2767
7.24	-9.5523	-0.4692	-1.4474	-0.0320	-0.0007	-0.0440	29.7148	-6.5447	11.3285	0.5895	-0.3563	0.6701	0.2768
7.25	-9.6033	-0.4672	-1.4395	-0.0268	-0.0083	-0.0332	29.6375	-6.3565	11.4357	0.5894	-0.3563	0.6701	0.2769
7.26	-9.6040	-0.4628	-1.4492	-0.0278	-0.0117	-0.0329	29.7317	-6.4557	11.3162	0.5894	-0.3562	0.6700	0.2769
7.27	-9.5613	-0.4378	-1.4244	-0.0195	-0.0304	-0.0253	29.8760	-6.4362	11.2015	0.5895	-0.3562	0.6700	0.2771
7.28	-9.5870	-0.4203	-1.4295	-0.0125	-0.0217	-0.0250	29.7938	-6.6450	11.0897	0.5895	-0.3560	0.6700	0.2771
7.29	-9.5858	-0.4063	-1.4453	-0.0044	-0.0236	-0.0261	29.7383	-6.5080	11.1982	0.5896	-0.3559	0.6701	0.2772
7.3	-9.6180	-0.3893	-1.4327	-0.0029	-0.0194	-0.0312	29.7611	-6.4265	11.2281	0.5896	-0.3557	0.6700	0.2772
7.31	-9.5816	-0.3818	-1.4503	-0.0024	-0.0236	-0.0329	29.6405	-6.6751	11.2041	0.5897	-0.3557	0.6700	0.2772
7.32	-9.5964	-0.3682	-1.4201	-0.0029	-0.0217	-0.0325	29.6728	-6.4770	11.0778	0.5898	-0.3555	0.6700	0.2772
7.33	-9.6890	-0.3522	-1.4602	-0.0051	-0.0141	-0.0371	29.6563	-6.6500	11.2242	0.5899	-0.3554	0.6700	0.2772
7.34	-9.6472	-0.3483	-1.4546	-0.0002	-0.0358	-0.0348	29.6656	-6.6283	11.2089	0.5900	-0.3553	0.6699	0.2773
7.35	-9.6307	-0.3392	-1.4442	-0.0034	-0.0270	-0.0336	29.6601	-6.3856	11.2382	0.5901	-0.3551	0.6699	0.2773
7.36	-9.6310	-0.3238	-1.4536	-0.0019	-0.0286	-0.0393	29.6686	-6.5847	11.3521	0.5903	-0.3550	0.6698	0.2773
7.37	-9.6425	-0.3212	-1.4336	-0.0040	-0.0317	-0.0447	29.6453	-6.6747	11.2078	0.5903	-0.3549	0.6697	0.2773
7.38	-9.6946	-0.3176	-1.4276	-0.0064	-0.0324	-0.0485	29.7861	-6.4851	11.2212	0.5906	-0.3548	0.6697	0.2773
7.39	-9.6729	-0.3191	-1.4166	-0.0150	-0.0475	-0.0492	29.7043	-6.6330	11.2157	0.5907	-0.3547	0.6695	0.2774
7.4	-9.6663	-0.3259	-1.3949	-0.0209	-0.0434	-0.0580	29.6340	-6.5309	11.2225	0.5909	-0.3547	0.6694	0.2775
7.41	-9.6402	-0.3205	-1.3960	-0.0216	-0.0623	-0.0587	29.7666	-6.2291	11.1921	0.5911	-0.3547	0.6691	0.2775
7.42	-9.6741	-0.3205	-1.3787	-0.0226	-0.0491	-0.0535	29.8691	-6.4350	11.4906	0.5913	-0.3546	0.6690	0.2776
7.43	-9.6649	-0.3296	-1.3971	-0.0260	-0.0593	-0.0575	29.7956	-6.4519	11.2449	0.5915	-0.3546	0.6688	0.2777
7.44	-9.6285	-0.3356	-1.3770	-0.0287	-0.0716	-0.0587	29.6621	-6.4817	11.2671	0.5917	-0.3545	0.6685	0.2778
7.45	-9.6564	-0.3359	-1.3709	-0.0277	-0.0642	-0.0564	29.5641	-6.2279	11.4388	0.5920	-0.3545	0.6684	0.2780
7.46	-9.6833	-0.3362	-1.3641	-0.0282	-0.0681	-0.0527	29.5879	-6.5024	11.2032	0.5922	-0.3544	0.6681	0.2781
7.47	-9.8100	-0.3409	-1.3535	-0.0278	-0.0713	-0.0578	29.7897	-6.7279	11.0381	0.5924	-0.3544	0.6679	0.2782
7.48	-9.8962	-0.3497	-1.4074	-0.0306	-0.0926	-0.0542	30.0478	-6.3842	11.0278	0.5926	-0.3543	0.6676	0.2783
7.49	-9.8796	-0.3408	-1.3828	-0.0436	-0.1377	-0.0462	29.8856	-6.6528	11.0396	0.5931	-0.3542	0.6672	0.2787
7.5	-9.9606	-0.3328	-1.3612	-0.0450	-0.1669	-0.0453	30.0049	-6.4984	11.0310	0.5935	-0.3541	0.6667	0.2790
7.51	-9.9439	-0.3592	-1.3936	-0.0562	-0.2022	-0.0513	30.3018	-6.2337	11.0323	0.5941	-0.3539	0.6661	0.2795
7.52	-9.8534	-0.4037	-1.3405	-0.0503	-0.2349	-0.0486	30.3751	-6.2975	11.0237	0.5948	-0.3537	0.6654	0.2800
7.53	-9.8162	-0.4331	-1.3530	-0.0502	-0.2417	-0.0462	30.3021	-6.4292	11.1063	0.5955	-0.3534	0.6646	0.2805
7.54	-9.7552	-0.4643	-1.3385	-0.0472	-0.2646	-0.0492	29.9457	-6.6685	11.0892	0.5964	-0.3532	0.6638	0.2811
7.55	-9.6749	-0.4750	-1.3000	-0.0282	-0.2756	-0.0500	29.9510	-6.4479	10.7393	0.5972	-0.3528	0.6629	0.2816
7.56	-9.6311	-0.4650	-1.2587	-0.0264	-0.2810	-0.0516	29.8934	-6.1658	10.6706	0.5982	-0.3524	0.6621	0.2821
7.57	-9.6021	-0.4724	-1.2136	-0.0124	-0.2771	-0.0637	29.6908	-6.4808	10.4637	0.5991	-0.3520	0.6613	0.2826
7.58	-9.5633	-0.4758	-1.1746	0.0016	-0.2735	-0.0648	30.0360	-6.4394	10.3187	0.6001	-0.3517	0.6605	0.2829
7.59	-9.5142	-0.4701	-1.1205	0.0230	-0.2620	-0.0694	29.9799	-6.3060	10.1776	0.6010	-0.3512	0.6597	0.2832
7.6	-9.4913	-0.4551	-1.0788	0.0259	-0.2500	-0.0672	30.1728	-6.4349	10.1356	0.6019	-0.3508	0.6590	0.2834
7.61	-9.4254	-0.4555	-1.0592	0.0288	-0.2457	-0.0716	30.1403	-6.2059	10.2410	0.6028	-0.3504	0.6583	0.2836
7.62	-9.3907	-0.4498	-0.9952	0.0474	-0.2313	-0.0674	30.0518	-6.3202	10.1335	0.6037	-0.3499	0.6576	0.2837
7.63	-9.4206	-0.4309	-0.9777	0.0486	-0.2075	-0.0648	30.3439	-6.4247	9.9714	0.6046	-0.3495	0.6572	0.2838
7.64	-9.4072	-0.4111	-0.9458	0.0601	-0.1999	-0.0617	30.1902	-6.5586	9.8228	0.6053	-0.3490	0.6566	0.2839
7.65	-9.4128	-0.3971	-0.9184	0.0577	-0.1736	-0.0564	30.2384	-6.6004	9.8119	0.6061	-0.3486	0.6563	0.2839
7.66	-9.4126	-0.3855	-0.9022	0.0683	-0.1561	-0.0620	30.3734	-6.5818	9.5502	0.6067	-0.3481	0.6558	0.2838
7.67	-9.4016	-0.3685	-0.8656	0.0719	-0.1414	-0.0638	30.4846	-6.4748	9.5546	0.6073	-0.3477	0.6556	0.2837
7.68	-9.4036	-0.3606	-0.8404	0.0635	-0.1246	-0.0687	30.5762	-6.5259	9.4476	0.6079	-0.3473	0.6553	0.2836
7.69	-9.4604	-0.3692	-0.8283	0.0562	-0.0995	-0.0749	30.4463	-6.4089	9.4964	0.6083	-0.3470	0.6550	0.2834
7.7	-9.4424	-0.3717	-0.8399	0.0520	-0.0939	-0.0720	30.4515	-6.4179	9.4557	0.6089	-0.3468	0.6549	0.2833
7.71	-9.4709	-0.3463	-0.8139	0.0486	-0.0696	-0.0624	30.4589	-6.3909	9.6549	0.6092	-0.3465	0.6547	0.2832
7.72	-9.5086	-0.3415	-0.8300	0.0485	-0.0477	-0.0635	30.4200	-6.2371	9.6153	0.6095	-0.3463	0.6547	0.2830
7.73	-9.5187	-0.3564	-0.8215	0.0373	-0.0448	-0.0449	30.1542	-6.2288	9.3586	0.6096	-0.3460	0.6546	0.2828
7.74	-9.6120	-0.3476	-0.8320	0.0268	-0.0335	-0.0444	30.2072	-6.3662	9.4942	0.6099	-0.3458	0.6546	0.2828
7.75	-9.7149	-0.3503	-0.8485	0.0207	-0.0214	-0.0443	30.1350	-6.2596	9.6542	0.6100	-0.3457	0.6546	0.2827
7.76	-9.8860	-0.3640	-0.8671	0.0122	-0.0245	-0.0327	30.0640	-6.2398	9.5855	0.6101	-0.3455	0.6546	0.2826
7.77	-10.2113	-0.3745	-0.8722	0.0020	-0.0303	-0.0335	30.2108	-6.1332	9.4543	0.6102	-0.3453	0.6546	0.2827
7.78	-10.4768	-0.3774	-1.0050	-0.0036	-0.0584	-0.0305	30.4396	-6.3130	9.4640	0.6103	-0.3452	0.6545	0.2827
7.79	-10.8050	-0.3529	-1.0805	-0.0035	-0.1482	-0.0304	30.4234	-6.4855	9.5415	0.6108	-0.3449	0.6542	0.2830
7.8	-11.0901	-0.3246	-1.2144	-0.0194	-0.2623	-0.0357	30.2229	-6.2024	9.5859	0.6115	-0.3444	0.6534	0.2834
7.81	-11.3326	-0.3569	-1.2933	-0.0289	-0.4214	-0.0471	30.4440	-6.2681	9.4378	0.6128	-0.3439	0.6523	0.2842
7.82	-11.4933	-0.4141	-1.3952	-0.0264	-0.5847	-0.0435	30.3847	-6.1795	9.3361	0.6146	-0.3431	0.6505	0.2852
7.83	-11.6242	-0.3804	-1.4753	-0.0144	-0.7534	-0.0447	30.4548	-6.4552	9.1777	0.6170	-0.3420	0.6483	0.2864
7.84	-11.6813	-0.3952	-1.5782	-0.0113	-0.9468	-0.0513	30.8725	-6.6324	8.7754	0.6199	-0.3407	0.6455	0.2880
7.85	-11.4106	-0.3944	-1.5992	-0.0008	-1.1721	-0.0570	30.7587	-6.4355	8.5103	0.6237	-0.3390	0.6420	0.2898
7.86	-10.8364	-0.4004	-1.4101	-0.0005	-1.3722	-0.0788	30.6859	-6.6126	8.1218	0.6280	-0.3371	0.6378	0.2920
7.87	-10.1768	-0.4023	-1.1570	0.0026	-1.4944	-0.1032	30.8117	-6.5212	7.4228	0.6328	-0.3350	0.6330	0.2942
7.88	-9.4382	-0.4327	-0.8783	0.0159	-1.5458	-0.1101	30.7939	-6.3108	7.1300	0.6379	-0.3328	0.6281	0.2965
7.89	-8.6652	-0.4354	-0.5274	0.0250	-1.5166	-0.1100	31.0005	-6.5027	6.7253	0.6427	-0.3306	0.6232	0.2987
7.9	-7.9104	-0.4189	-0.1267	0.0397	-1.4175	-0.0979	31.1107	-6.5335	6.1951	0.6474	-0.3285	0.6187	0.3007
7.91	-7.1442	-0.3452	0.2411	0.0519	-1.2426	-0.0884	31.0328	-6.5169	5.4572	0.6513	-0.3264	0.6145	0.3024
7.92	-6.5395	-0.1862	0.7271	0.0654	-1.0081	-0.0925	31.2386	-6.3196	4.9135	0.6547	-0.3247	0.6113	0.3037
7.93	-6.6673	0.0014	1.3144	0.0766	-0.6653	-0.1303	31.2047	-6.3575	4.6455	0.6571	-0.3236	0.6090	0.3043
7.94	-6.6505	0.0045	1.4754	0.0438	-0.3042	-0.1721	31.1129	-6.0673	4.4857	0.6584	-0.3232	0.6078	0.3042
7.95	-6.2480	0.0006	1.6937	0.0062	-0.0696	-0.1700	31.4988	-6.2099	4.4030	0.6590	-0.3234	0.6074	0.3039
7.96	-6.8506	-0.0812	1.8735	-0.0022	0.3272	-0.2120	31.3693	-6.1483	4.3946	0.6583	-0.3242	0.6081	0.3029
7.97	-7.7473	-0.2473	1.5188	-0.0257	0.6117	-0.2587	31.3296	-6.0268	4.4463	0.6569	-0.3257	0.6098	0.3012
7.98	-8.1743	-0.3279	1.4067	-0.0500	0.6667	-0.2455	31.3564	-5.9038	4.6804	0.6550	-0.3274	0.6115	0.2995
7.99	-8.4062	-0.3317	1.3398	-0.0531	0.7453	-0.2332	31.2073	-5.9277	4.9221	0.6530	-0.3292	0.6136	0.2979
8	-8.7102	-0.4109	1.1178	-0.0587	0.8449	-0.2326	31.3425	-5.8779	5.3434	0.6506	-0.3311	0.6160	0.2960
8.01	-8.9775	-0.5200	0.8825	-0.0771	0.8840	-0.2209	31.5594	-5.7197	5.8072	0.6480	-0.3331	0.6185	0.2941
8.02	-9.2715	-0.5548	0.7325	-0.0793	0.9082	-0.2007	31.4890	-5.7408	5.8398	0.6453	-0.3351	0.6211	0.2923
8.03	-9.8882	-0.6306	0.6224	-0.0778	0.9607	-0.1930	31.5393	-5.5179	6.1386	0.6424	-0.3372	0.6239	0.2904
8.04	-10.3385	-0.7113	0.2758	-0.0719	0.9505	-0.1529	31.3026	-5.5762	6.3914	0.6395	-0.3391	0.6267	0.2886
8.05	-10.7331	-0.7096	0.0541	-0.0629	0.8471	-0.1128	31.0921	-5.4594	6.6149	0.6368	-0.3406	0.6293	0.2870
8.06	-11.1766	-0.7221	-0.2358	-0.0763	0.7375	-0.0877	31.3506	-5.5940	7.0915	0.6344	-0.3421	0.6316	0.2858
8.07	-11.4670	-0.7602	-0.5063	-0.0821	0.5435	-0.0658	31.0507	-5.5825	7.1318	0.6325	-0.3431	0.6333	0.2850
8.08	-11.5633	-0.8047	-0.6471	-0.0831	0.3368	-0.0386	30.9812	-5.5256	7.5333	0.6312	-0.3438	0.6344	0.2846
8.09	-11.5064	-0.8514	-0.7999	-0.0824	0.1720	-0.0221	31.2142	-5.5185	7.7657	0.6304	-0.3442	0.6349	0.2845
8.1	-11.3097	-0.8901	-0.9383	-0.0654	0.0176	0.0036	31.1919	-5.4557	7.8411	0.6302	-0.3442	0.6351	0.2848
8.11	-10.9636	-0.8778	-1.0080	-0.0565	-0.1402	0.0182	31.1714	-5.5345	7.6440	0.6304	-0.3440	0.6348	0.2853
8.12	-10.6804	-0.8644	-0.9725	-0.0401	-0.2329	0.0131	30.9081	-5.2942	7.9926	0.6309	-0.3435	0.6341	0.2859
8.13	-10.2434	-0.8783	-0.9523	-0.0236	-0.3157	0.0233	30.9363	-5.6169	7.5093	0.6318	-0.3429	0.6334	0.2867
8.14	-9.8855	-0.8324	-0.7582	-0.0052	-0.3495	0.0251	30.8961	-5.5924	7.3995	0.6328	-0.3421	0.6324	0.2875
8.15	-9.5349	-0.8626	-0.5914	0.0181	-0.3395	0.0260	30.7729	-5.7165	7.6645	0.6338	-0.3413	0.6316	0.2882
8.16	-9.0415	-1.0382	-0.4086	0.0217	-0.3289	0.0482	31.0701	-5.6868	7.2217	0.6347	-0.3404	0.6307	0.2889
8.17	-8.6381	-1.1384	-0.1685	0.0423	-0.2544	0.0800	30.8184	-5.7742	7.1874	0.6355	-0.3394	0.6302	0.2896
8.18	-8.4455	-1.0394	0.0426	0.0868	-0.1387	0.1505	30.9476	-5.9245	7.1942	0.6358	-0.3383	0.6302	0.2901
8.19	-8.3556	-0.8489	0.2049	0.1214	-0.0050	0.1893	31.0315	-5.8804	7.1924	0.6357	-0.3371	0.6307	0.2905
8.2	-8.2148	-0.6133	0.3078	0.1255	0.1190	0.2024	31.0129	-5.8738	7.0989	0.6353	-0.3360	0.6318	0.2906
8.21	-8.2205	-0.3831	0.3756	0.1268	0.2567	0.1892	31.1179	-5.9470	7.2204	0.6344	-0.3351	0.6331	0.2905
8.22	-8.5581	-0.1936	0.3431	0.1199	0.3908	0.1522	30.8845	-6.1697	7.2102	0.6331	-0.3346	0.6349	0.2901
8.23	-8.8028	-0.0401	0.2490	0.0935	0.4676	0.1143	31.0295	-6.1451	7.5301	0.6315	-0.3343	0.6368	0.2894
8.24	-8.8034	0.0496	0.2253	0.0545	0.4996	0.0876	30.8774	-6.2490	7.4137	0.6299	-0.3344	0.6388	0.2888
8.25	-8.8125	0.0775	0.1453	0.0317	0.5782	0.0549	30.7889	-6.4408	7.6279	0.6280	-0.3347	0.6408	0.2880
8.26	-8.9234	0.1000	0.0082	0.0121	0.6539	0.0367	30.6269	-6.5436	7.9402	0.6258	-0.3352	0.6431	0.2871
8.27	-9.1935	0.1188	-0.1107	-0.0185	0.7231	0.0169	30.7676	-6.2879	8.1508	0.6234	-0.3360	0.6455	0.2861
8.28	-9.7242	0.1273	-0.1859	-0.0526	0.7759	0.0054	30.7063	-6.3243	8.5037	0.6207	-0.3370	0.6479	0.2851
8.29	-10.3490	0.0865	-0.3614	-0.0845	0.7988	0.0077	30.8359	-6.3491	8.7424	0.6180	-0.3382	0.6505	0.2841
8.3	-10.8029	0.0572	-0.6962	-0.1138	0.7316	0.0258	30.6838	-6.5272	9.1904	0.6152	-0.3392	0.6527	0.2833
8.31	-11.4570	0.0630	-0.9481	-0.1451	0.6051	0.0282	30.2844	-6.3471	9.2090	0.6129	-0.3403	0.6547	0.2830
8.32	-11.8092	0.0487	-1.2300	-0.1813	0.3961	0.0226	30.1741	-6.3355	9.6295	0.6111	-0.3411	0.6559	0.2830
8.33	-11.8705	-0.0368	-1.3348	-0.2228	0.1595	0.0154	30.2818	-6.4900	9.6539	0.6100	-0.3418	0.6563	0.2835
8.34	-11.6805	-0.1944	-1.5058	-0.2583	-0.0455	0.0033	30.3152	-6.5753	9.5560	0.6096	-0.3423	0.6560	0.2845
8.35	-11.2425	-0.3338	-1.5534	-0.2592	-0.2356	-0.0072	30.1264	-6.7157	9.7909	0.6098	-0.3426	0.6551	0.2857
8.36	-10.8776	-0.3919	-1.4906	-0.2343	-0.3561	-0.0152	30.1620	-6.7689	9.7357	0.6105	-0.3426	0.6538	0.2872
8.37	-10.6859	-0.4107	-1.4355	-0.2207	-0.4245	-0.0295	30.2272	-6.7325	9.6158	0.6114	-0.3425	0.6522	0.2886
8.38	-10.3297	-0.4147	-1.3234	-0.2112	-0.5198	-0.0463	30.1780	-6.8780	9.4770	0.6128	-0.3424	0.6505	0.2901
8.39	-9.9742	-0.4065	-1.1029	-0.1887	-0.5668	-0.0595	30.0926	-6.9507	9.1063	0.6143	-0.3421	0.6485	0.2916
8.4	-9.7054	-0.4217	-0.9211	-0.1818	-0.5627	-0.0800	30.3894	-6.9143	8.9464	0.6159	-0.3419	0.6466	0.2930
8.41	-9.2377	-0.3997	-0.7030	-0.1700	-0.5768	-0.0894	30.3535	-7.0372	8.5564	0.6174	-0.3417	0.6444	0.2943
8.42	-8.8248	-0.3951	-0.4052	-0.1572	-0.5333	-0.0994	30.5462	-6.9002	8.3747	0.6190	-0.3415	0.6425	0.2956
8.43	-8.6321	-0.3925	-0.1883	-0.1552	-0.4289	-0.1150	30.6826	-6.9778	8.0441	0.6203	-0.3414	0.6409	0.2965
8.44	-8.3968	-0.3848	-0.0106	-0.1371	-0.3265	-0.1159	30.5776	-6.8260	7.8092	0.6212	-0.3415	0.6395	0.2973
8.45	-7.9926	-0.3301	0.1581	-0.1343	-0.2146	-0.1242	30.4085	-6.9847	8.0073	0.6219	-0.3418	0.6386	0.2978
8.46	-7.8352	-0.2473	0.3474	-0.1295	-0.0379	-0.1539	30.5828	-6.8701	7.7308	0.6220	-0.3424	0.6381	0.2979
8.47	-7.9680	-0.2186	0.3690	-0.1325	0.1505	-0.1817	30.6038	-6.8887	7.9176	0.6216	-0.3433	0.6382	0.2977
8.48	-8.2057	-0.2450	0.3697	-0.1465	0.2906	-0.1989	30.5400	-6.6335	7.9539	0.6206	-0.3446	0.6385	0.2971
8.49	-8.3363	-0.3068	0.3187	-0.1576	0.4216	-0.2127	30.6568	-6.7501	7.9591	0.6193	-0.3462	0.6394	0.2964
8.5	-8.3753	-0.3399	0.2321	-0.1556	0.5233	-0.2132	30.7106	-6.8108	8.2672	0.6177	-0.3479	0.6405	0.2954
8.51	-8.6477	-0.3417	0.1160	-0.1609	0.6432	-0.2041	30.9626	-6.5188	8.4683	0.6156	-0.3497	0.6420	0.2943
8.52	-8.9805	-0.3515	-0.0925	-0.1744	0.7238	-0.1978	30.8876	-6.7170	8.6253	0.6132	-0.3517	0.6437	0.2930
8.53	-9.0143	-0.3487	-0.2159	-0.1831	0.7437	-0.1708	30.7195	-6.3738	8.8302	0.6107	-0.3537	0.6456	0.2919
8.54	-9.2341	-0.3556	-0.2999	-0.1856	0.7977	-0.1478	30.3591	-6.2741	8.9769	0.6080	-0.3557	0.6476	0.2907
8.55	-9.6446	-0.3863	-0.6335	-0.1993	0.8312	-0.1294	30.3060	-6.3584	9.2824	0.6050	-0.3577	0.6497	0.2895
8.56	-9.8194	-0.3936	-0.8994	-0.2043	0.7709	-0.1224	30.5175	-6.4202	9.5691	0.6023	-0.3596	0.6517	0.2885
8.57	-10.1628	-0.4429	-1.1124	-0.2137	0.7298	-0.1233	30.2702	-6.3939	9.8627	0.5996	-0.3615	0.6535	0.2876
8.58	-10.5361	-0.4989	-1.4809	-0.2070	0.6687	-0.1288	30.0873	-6.4501	9.8299	0.5972	-0.3633	0.6552	0.2868
8.59	-10.7523	-0.5373	-1.7616	-0.2004	0.5532	-0.1339	30.2238	-6.7162	10.0443	0.5950	-0.3649	0.6564	0.2861
8.6	-10.8696	-0.5526	-2.0204	-0.1872	0.4404	-0.1336	30.2907	-6.6078	10.2094	0.5933	-0.3664	0.6574	0.2855
8.61	-10.9307	-0.5609	-2.1735	-0.1823	0.3202	-0.1401	30.1347	-6.3956	10.5898	0.5921	-0.3676	0.6580	0.2852
8.62	-10.8403	-0.5709	-2.2836	-0.1801	0.1990	-0.1416	30.4029	-6.3879	10.5876	0.5911	-0.3687	0.6582	0.2850
8.63	-10.6237	-0.5275	-2.2845	-0.1768	0.0814	-0.1337	30.2670	-6.5219	10.5893	0.5907	-0.3696	0.6582	0.2852
8.64	-10.4694	-0.5323	-2.2130	-0.1794	0.0149	-0.1387	30.1594	-6.2846	10.5981	0.5904	-0.3704	0.6579	0.2854
8.65	-10.3968	-0.5784	-2.1263	-0.1825	-0.0560	-0.1420	30.0615	-6.4570	10.8029	0.5904	-0.3711	0.6574	0.2857
8.66	-10.3045	-0.6127	-2.0269	-0.1813	-0.1276	-0.1473	30.3440	-6.5041	10.6587	0.5905	-0.3717	0.6566	0.2862
8.67	-10.0562	-0.6505	-1.8901	-0.1817	-0.2007	-0.1493	30.1024	-6.3661	10.5905	0.5910	-0.3723	0.6557	0.2868
8.68	-9.8766	-0.7033	-1.7239	-0.1823	-0.2313	-0.1515	30.0383	-6.2394	10.5135	0.5916	-0.3727	0.6546	0.2874
8.69	-9.7419	-0.7419	-1.6194	-0.1812	-0.2435	-0.1434	30.2271	-6.2389	10.1875	0.5922	-0.3732	0.6534	0.2881
8.7	-9.5013	-0.7539	-1.4733	-0.1811	-0.2627	-0.1298	30.1084	-6.1075	10.1216	0.5929	-0.3736	0.6524	0.2889
8.71	-9.3359	-0.7900	-1.3128	-0.1802	-0.2494	-0.1017	30.0980	-5.9176	10.4010	0.5934	-0.3738	0.6513	0.2897
8.72	-9.3092	-0.8136	-1.2220	-0.1757	-0.2185	-0.0823	30.1991	-6.0114	10.3135	0.5939	-0.3741	0.6504	0.2905
8.73	-9.2352	-0.7839	-1.1224	-0.1551	-0.2043	-0.0482	30.1888	-6.2534	9.8759	0.5942	-0.3742	0.6495	0.2913
8.74	-9.1496	-0.7617	-1.0130	-0.1565	-0.1713	-0.0362	30.2471	-6.3102	9.8835	0.5945	-0.3743	0.6489	0.2922
8.75	-9.1349	-0.7478	-0.9543	-0.1467	-0.1492	-0.0250	30.2580	-5.8485	9.9117	0.5947	-0.3744	0.6483	0.2929
8.76	-9.2534	-0.7329	-0.9077	-0.1303	-0.1133	-0.0075	30.2219	-6.0007	9.7346	0.5948	-0.3745	0.6479	0.2936
8.77	-9.4325	-0.7174	-0.8868	-0.1279	-0.0839	0.0005	30.6269	-6.3886	9.7585	0.5948	-0.3745	0.6476	0.2943
8.78	-9.7318	-0.6725	-0.8804	-0.0958	-0.0506	0.0261	30.6496	-6.2374	9.6332	0.5947	-0.3744	0.6475	0.2948
8.79	-9.8691	-0.6151	-0.9272	-0.0808	-0.0502	0.0434	30.4136	-6.3077	9.6900	0.5946	-0.3743	0.6475	0.2954
8.8	-9.7081	-0.5669	-0.9457	-0.0776	-0.0643	0.0569	30.3495	-6.6357	9.5779	0.5944	-0.3740	0.6473	0.2960
8.81	-9.3749	-0.5462	-1.0158	-0.0542	-0.0559	0.0665	30.5121	-6.4302	9.5619	0.5944	-0.3737	0.6474	0.2966
8.82	-9.4813	-0.5137	-1.0792	-0.0396	0.0019	0.0478	30.4203	-6.5863	9.6213	0.5942	-0.3734	0.6475	0.2970
8.83	-9.6512	-0.4721	-1.2193	-0.0249	0.0425	0.0032	30.2999	-6.4947	9.7088	0.5940	-0.3733	0.6478	0.2971
8.84	-9.1928	-0.4336	-1.2458	-0.0197	-0.0058	-0.0293	30.2722	-6.5987	9.5323	0.5939	-0.3732	0.6478	0.2971
8.85	-8.8057	-0.4623	-1.2062	-0.0118	0.0148	-0.0417	30.3250	-6.4248	9.8939	0.5938	-0.3732	0.6479	0.2971
8.86	-9.3774	-0.4917	-1.2793	0.0029	0.0903	-0.0417	30.3885	-6.6537	9.7121	0.5936	-0.3732	0.6483	0.2969
8.87	-9.9736	-0.4680	-1.4872	0.0232	0.0683	-0.0432	30.0549	-6.5287	9.7107	0.5933	-0.3732	0.6485	0.2966
8.88	-9.5341	-0.4262	-1.4189	0.0304	-0.0939	-0.0314	30.2752	-6.4617	10.0158	0.5937	-0.3729	0.6485	0.2967
8.89	-9.5586	-0.4464	-1.3132	0.0466	-0.0608	-0.0348	30.2348	-6.6696	9.7166	0.5939	-0.3725	0.6484	0.2967
8.9	-9.6425	-0.4529	-1.5510	0.0588	-0.0606	-0.0343	30.2181	-6.4044	9.6396	0.5943	-0.3722	0.6485	0.2966
8.91	-9.3192	-0.4309	-1.4593	0.0782	-0.1242	-0.0449	30.0797	-6.4130	9.7716	0.5947	-0.3717	0.6482	0.2965
8.92	-9.1282	-0.4377	-1.4634	0.0929	-0.0871	-0.0459	30.0593	-6.6185	9.6359	0.5952	-0.3712	0.6482	0.2963
8.93	-9.1220	-0.4609	-1.4901	0.1056	-0.0675	-0.0597	30.2542	-6.3926	9.8931	0.5957	-0.3708	0.6482	0.2960
8.94	-9.2100	-0.4619	-1.4689	0.1233	-0.0506	-0.0804	30.1720	-6.4240	9.6739	0.5961	-0.3703	0.6481	0.2955
8.95	-9.2923	-0.4718	-1.4288	0.1292	-0.0415	-0.0861	30.3102	-6.2949	9.5634	0.5966	-0.3700	0.6483	0.2951
8.96	-9.4523	-0.5059	-1.3678	0.1469	-0.0202	-0.0812	30.3138	-6.3493	9.3985	0.5969	-0.3696	0.6483	0.2945
8.97	-9.6134	-0.5322	-1.3534	0.1512	0.0030	-0.0709	30.4181	-6.4836	9.4815	0.5973	-0.3691	0.6486	0.2938
8.98	-9.6250	-0.5391	-1.3177	0.1684	0.0154	-0.0499	30.3427	-6.5819	9.8131	0.5975	-0.3686	0.6489	0.2932
8.99	-9.7008	-0.5234	-1.2791	0.1764	0.0280	-0.0214	30.5341	-6.4792	9.8371	0.5978	-0.3680	0.6494	0.2926
9	-9.8670	-0.5112	-1.2719	0.1917	0.0432	-0.0038	30.5478	-6.4765	10.0881	0.5979	-0.3673	0.6499	0.2920
9.01	-9.8236	-0.4788	-1.2587	0.2042	0.0174	0.0180	30.6230	-6.2277	10.1078	0.5981	-0.3664	0.6504	0.2914
9.02	-9.7670	-0.4486	-1.1906	0.2052	-0.0041	0.0377	30.8654	-6.2168	9.6681	0.5984	-0.3655	0.6509	0.2909
9.03	-9.8446	-0.4264	-1.2146	0.2226	0.0133	0.0596	30.4352	-6.0667	9.9581	0.5986	-0.3644	0.6515	0.2904
9.04	-9.6419	-0.3842	-1.2239	0.2272	-0.0398	0.0730	30.2586	-6.2642	9.9743	0.5990	-0.3633	0.6521	0.2900
9.05	-9.5089	-0.3319	-1.1346	0.2279	-0.0463	0.0853	30.0790	-6.2325	9.7990	0.5993	-0.3620	0.6525	0.2897
9.06	-9.6787	-0.3021	-1.1835	0.2306	-0.0190	0.0885	29.9257	-6.4785	9.9197	0.5997	-0.3608	0.6531	0.2894
9.07	-9.6083	-0.2655	-1.1853	0.2319	-0.0606	0.0947	29.8547	-6.2686	10.1052	0.6000	-0.3595	0.6536	0.2890
9.08	-9.4942	-0.2164	-1.1212	0.2284	-0.0636	0.1040	30.1453	-6.2628	10.2283	0.6005	-0.3581	0.6541	0.2888
9.09	-9.5308	-0.1689	-1.1457	0.2268	-0.0342	0.1052	30.2050	-6.4199	10.0600	0.6008	-0.3568	0.6546	0.2885
9.1	-9.5409	-0.1130	-1.1462	0.2297	-0.0330	0.1066	30.2810	-6.4049	10.1153	0.6011	-0.3555	0.6551	0.2882
9.11	-9.4246	-0.0571	-1.1421	0.2221	-0.0404	0.1106	30.2567	-6.5316	10.0689	0.6014	-0.3542	0.6557	0.2880
9.12	-9.4357	0.0126	-1.1189	0.2055	-0.0235	0.0990	29.8353	-6.4266	10.1814	0.6016	-0.3530	0.6562	0.2877
9.13	-9.4388	0.0454	-1.1658	0.1876	-0.0125	0.0981	29.9636	-6.8569	10.3056	0.6018	-0.3519	0.6568	0.2875
9.14	-9.4072	0.0768	-1.1467	0.1774	-0.0119	0.0985	30.1314	-6.7608	10.1143	0.6019	-0.3508	0.6573	0.2873
9.15	-9.5564	0.1259	-1.1489	0.1700	0.0243	0.0973	30.0580	-6.8194	10.1005	0.6020	-0.3498	0.6580	0.2871
9.16	-9.6097	0.1882	-1.1711	0.1485	0.0267	0.0969	30.0417	-6.8330	10.0940	0.6019	-0.3488	0.6585	0.2869
9.17	-9.5896	0.2268	-1.1352	0.1325	0.0314	0.0846	30.2480	-6.8701	10.2446	0.6019	-0.3479	0.6591	0.2868
9.18	-9.5691	0.2594	-1.1552	0.1065	0.0525	0.0693	29.8795	-7.0913	10.3101	0.6017	-0.3472	0.6597	0.2866
9.19	-9.5105	0.2697	-1.1607	0.0833	0.0602	0.0516	30.0958	-6.8718	10.2664	0.6015	-0.3466	0.6602	0.2865
9.2	-9.4400	0.2568	-1.1694	0.0603	0.0739	0.0255	29.7842	-7.1699	10.4167	0.6014	-0.3463	0.6608	0.2864
9.21	-9.4742	0.2569	-1.1733	0.0449	0.0892	-0.0001	29.8322	-6.8741	10.3388	0.6010	-0.3460	0.6612	0.2861
9.22	-9.5824	0.2382	-1.2003	0.0257	0.0999	-0.0189	29.8132	-6.8770	10.2467	0.6007	-0.3459	0.6617	0.2859
9.23	-9.6536	0.2136	-1.2081	0.0082	0.0979	-0.0352	29.7499	-7.0362	10.3970	0.6003	-0.3459	0.6620	0.2857
9.24	-9.7375	0.1946	-1.2045	-0.0046	0.1083	-0.0671	29.8940	-6.8921	10.5970	0.6001	-0.3461	0.6624	0.2854
9.25	-9.7580	0.1720	-1.2245	-0.0285	0.1112	-0.0899	29.8529	-6.7739	10.7321	0.5997	-0.3463	0.6627	0.2851
9.26	-9.7290	0.1422	-1.2278	-0.0485	0.1028	-0.1226	29.8635	-7.0247	10.6975	0.5994	-0.3468	0.6628	0.2848
9.27	-9.8000	0.1095	-1.2550	-0.0583	0.1012	-0.1508	29.8731	-6.8958	10.5222	0.5991	-0.3474	0.6630	0.2845
9.28	-9.7359	0.0603	-1.2849	-0.0788	0.0866	-0.1740	29.8353	-6.7194	10.6054	0.5988	-0.3481	0.6629	0.2841
9.29	-9.6619	0.0104	-1.2724	-0.1010	0.0690	-0.1903	29.7384	-6.9218	10.6865	0.5987	-0.3489	0.6629	0.2839
9.3	-9.6430	-0.0312	-1.3035	-0.1177	0.0623	-0.2073	29.8735	-6.6149	10.5422	0.5984	-0.3498	0.6626	0.2836
9.31	-9.6667	-0.0980	-1.2978	-0.1368	0.0472	-0.2183	29.8685	-6.7020	10.6764	0.5983	-0.3507	0.6624	0.2834
9.32	-9.7720	-0.1692	-1.3076	-0.1521	0.0364	-0.2362	29.8553	-6.5712	10.7936	0.5982	-0.3518	0.6620	0.2833
9.33	-9.7552	-0.2236	-1.3135	-0.1626	0.0158	-0.2378	29.9175	-6.6893	10.5833	0.5981	-0.3528	0.6616	0.2832
9.34	-9.7434	-0.2777	-1.2835	-0.1821	0.0098	-0.2462	30.1631	-6.8876	10.5334	0.5980	-0.3539	0.6610	0.2831
9.35	-9.7838	-0.3552	-1.3099	-0.1815	0.0181	-0.2575	30.1123	-6.6459	10.7340	0.5979	-0.3551	0.6605	0.2830
9.36	-9.7646	-0.4391	-1.3120	-0.1937	-0.0010	-0.2693	29.9665	-6.5361	10.6958	0.5979	-0.3563	0.6599	0.2830
9.37	-9.7342	-0.5167	-1.3062	-0.2095	-0.0084	-0.2734	29.9424	-6.6127	10.5425	0.5978	-0.3575	0.6592	0.2830
9.38	-9.7298	-0.5948	-1.3066	-0.2063	-0.0058	-0.2808	30.0691	-6.3218	10.6523	0.5979	-0.3588	0.6586	0.2830
9.39	-9.6467	-0.6810	-1.3080	-0.2108	-0.0235	-0.2831	30.0388	-6.1810	10.8164	0.5978	-0.3601	0.6579	0.2830
9.4	-9.6093	-0.7679	-1.2923	-0.1916	-0.0269	-0.2694	30.0603	-6.0183	10.7617	0.5980	-0.3613	0.6573	0.2830
9.41	-9.5864	-0.8706	-1.3171	-0.1841	-0.0180	-0.2578	30.0374	-6.1616	10.6284	0.5979	-0.3624	0.6565	0.2829
9.42	-9.5210	-0.9514	-1.2895	-0.1795	-0.0377	-0.2366	30.0664	-6.1905	10.6245	0.5980	-0.3635	0.6559	0.2830
9.43	-9.6449	-0.9951	-1.2638	-0.1496	-0.0200	-0.2218	30.1886	-5.9562	10.4867	0.5980	-0.3644	0.6554	0.2830
9.44	-9.6721	-1.0257	-1.2900	-0.1356	-0.0321	-0.2080	30.0276	-5.8850	10.3373	0.5981	-0.3651	0.6549	0.2829
9.45	-9.6460	-1.0500	-1.2545	-0.1227	-0.0431	-0.1882	30.0811	-5.7711	10.3831	0.5982	-0.3659	0.6544	0.2830
9.46	-9.6662	-1.0515	-1.2730	-0.0984	-0.0378	-0.1671	30.1361	-5.7575	10.5718	0.5983	-0.3664	0.6540	0.2830
9.47	-9.6612	-1.0359	-1.2723	-0.0814	-0.0442	-0.1480	29.9641	-5.6436	10.3054	0.5985	-0.3668	0.6537	0.2830
9.48	-9.6201	-1.0136	-1.2782	-0.0694	-0.0429	-0.1311	29.9436	-5.8899	10.4718	0.5985	-0.3671	0.6533	0.2830
9.49	-9.6248	-0.9898	-1.2856	-0.0617	-0.0423	-0.1200	30.1074	-5.7580	10.4216	0.5987	-0.3674	0.6530	0.2831
9.5	-9.6765	-0.9786	-1.2943	-0.0537	-0.0366	-0.1121	30.1409	-5.7797	10.4977	0.5988	-0.3677	0.6528	0.2831
9.51	-9.6750	-0.9628	-1.2947	-0.0436	-0.0469	-0.1100	30.4958	-5.4944	10.5676	0.5989	-0.3678	0.6525	0.2831
9.52	-9.6979	-0.9517	-1.2856	-0.0270	-0.0448	-0.1013	30.5826	-5.6173	10.4043	0.5991	-0.3680	0.6524	0.2831
9.53	-9.7319	-0.9448	-1.3065	-0.0292	-0.0538	-0.0867	30.6148	-5.6430	10.5955	0.5992	-0.3680	0.6522	0.2831
9.54	-9.7042	-0.9335	-1.2878	-0.0295	-0.0677	-0.0746	30.3525	-5.6466	10.3791	0.5994	-0.3680	0.6520	0.2833
9.55	-9.7094	-0.9262	-1.2650	-0.0279	-0.0697	-0.0663	30.3780	-5.4945	10.1745	0.5996	-0.3679	0.6517	0.2834
9.56	-9.7119	-0.9281	-1.2748	-0.0266	-0.0796	-0.0502	30.2925	-5.6818	10.2187	0.5998	-0.3679	0.6516	0.2836
9.57	-9.7182	-0.9449	-1.2464	-0.0269	-0.0923	-0.0455	30.1763	-5.7536	10.1963	0.6000	-0.3677	0.6513	0.2838
9.58	-9.7532	-0.9526	-1.2290	-0.0156	-0.0959	-0.0360	30.5008	-5.6530	10.2037	0.6003	-0.3675	0.6511	0.2840
9.59	-9.7565	-0.9389	-1.2103	-0.0085	-0.1094	-0.0352	30.2888	-5.7777	10.2944	0.6006	-0.3673	0.6508	0.2843
9.6	-9.6822	-0.9208	-1.1833	0.0067	-0.1249	-0.0239	30.3794	-5.6812	10.3154	0.6009	-0.3669	0.6506	0.2845
9.61	-9.6343	-0.9243	-1.1532	0.0205	-0.1257	-0.0123	30.2651	-5.8207	10.2451	0.6013	-0.3665	0.6504	0.2847
9.62	-9.6134	-0.9283	-1.1347	0.0218	-0.1267	-0.0227	30.2386	-5.6784	10.1157	0.6017	-0.3660	0.6501	0.2849
9.63	-9.6039	-0.9132	-1.1016	0.0393	-0.1316	-0.0141	30.2575	-5.6747	9.9867	0.6022	-0.3656	0.6500	0.2851
9.64	-9.5927	-0.9006	-1.0754	0.0495	-0.1317	-0.0148	30.3895	-5.7336	9.9147	0.6026	-0.3651	0.6498	0.2853
9.65	-9.6281	-0.8950	-1.0360	0.0545	-0.1328	-0.0140	30.2319	-5.7614	9.9253	0.6031	-0.3646	0.6497	0.2854
9.66	-9.7249	-0.8531	-1.0020	0.0787	-0.1359	-0.0063	30.3627	-5.4564	10.0158	0.6035	-0.3639	0.6494	0.2855
9.67	-9.7393	-0.8094	-0.9733	0.0934	-0.1490	-0.0076	30.2990	-5.5608	10.0181	0.6041	-0.3632	0.6493	0.2855
9.68	-9.6995	-0.7644	-0.9264	0.0968	-0.1541	0.0004	30.2680	-5.6040	10.0211	0.6047	-0.3625	0.6491	0.2856
9.69	-9.6514	-0.7247	-0.9057	0.1092	-0.1595	0.0153	30.4478	-5.6002	9.9662	0.6053	-0.3616	0.6490	0.2856
9.7	-9.6083	-0.6818	-0.8769	0.1218	-0.1625	0.0166	30.4207	-5.6747	9.6806	0.6060	-0.3608	0.6489	0.2857
9.71	-9.6067	-0.6101	-0.8576	0.1306	-0.1515	0.0331	30.5751	-5.8923	9.5251	0.6066	-0.3598	0.6488	0.2857
9.72	-9.5904	-0.5417	-0.8377	0.1293	-0.1508	0.0441	30.6326	-5.9276	9.3689	0.6072	-0.3589	0.6488	0.2858
9.73	-9.5340	-0.4639	-0.8163	0.1277	-0.1501	0.0461	30.4964	-5.7434	9.4831	0.6077	-0.3579	0.6487	0.2858
9.74	-9.4287	-0.3823	-0.8059	0.1251	-0.1351	0.0460	30.5361	-5.9036	9.4452	0.6083	-0.3570	0.6487	0.2859
9.75	-9.3806	-0.3103	-0.7842	0.1152	-0.1113	0.0396	30.4611	-6.0126	9.3699	0.6087	-0.3561	0.6487	0.2859
9.76	-9.3892	-0.2584	-0.7907	0.1094	-0.0833	0.0336	30.3972	-6.0627	9.3630	0.6091	-0.3553	0.6488	0.2859
9.77	-9.3663	-0.2154	-0.7916	0.0906	-0.0714	0.0231	30.5356	-5.9418	9.6073	0.6094	-0.3546	0.6490	0.2859
9.78	-9.3875	-0.1810	-0.7909	0.0766	-0.0594	0.0206	30.5097	-5.8037	9.6429	0.6096	-0.3540	0.6491	0.2859
9.79	-9.4484	-0.1504	-0.8183	0.0614	-0.0496	0.0179	30.4986	-5.8037	9.5143	0.6098	-0.3535	0.6492	0.2859
9.8	-9.4638	-0.1209	-0.8185	0.0487	-0.0517	0.0098	30.2015	-5.9877	9.6695	0.6099	-0.3530	0.6492	0.2859
9.81	-9.5064	-0.0874	-0.8159	0.0339	-0.0397	-0.0014	30.4019	-5.9172	9.7690	0.6101	-0.3526	0.6494	0.2860
9.82	-9.5077	-0.0658	-0.8271	0.0133	-0.0370	-0.0076	30.3767	-6.0162	9.7213	0.6102	-0.3523	0.6494	0.2861
9.83	-9.5544	-0.0736	-0.8163	-0.0045	-0.0288	-0.0147	30.0754	-6.0173	9.5488	0.6102	-0.3522	0.6494	0.2862
9.84	-9.6362	-0.1020	-0.8354	-0.0226	-0.0168	-0.0260	30.5010	-5.6397	9.6578	0.6102	-0.3520	0.6494	0.2863
9.85	-9.6902	-0.1147	-0.8231	-0.0382	-0.0220	-0.0343	30.3457	-5.7142	9.7835	0.6102	-0.3520	0.6494	0.2864
9.86	-9.7303	-0.1473	-0.8271	-0.0562	-0.0153	-0.0522	30.2255	-5.8576	9.4708	0.6101	-0.3521	0.6494	0.2865
9.87	-9.6817	-0.1807	-0.8264	-0.0729	-0.0156	-0.0566	30.5718	-5.8597	9.5523	0.6100	-0.3523	0.6492	0.2867
9.88	-9.6914	-0.2323	-0.7894	-0.0826	-0.0122	-0.0744	30.3529	-5.9747	9.6754	0.6100	-0.3526	0.6492	0.2868
9.89	-9.7580	-0.3083	-0.8222	-0.1038	-0.0071	-0.0880	30.5487	-5.7858	9.5040	0.6099	-0.3529	0.6489	0.2870
9.9	-9.6968	-0.4056	-0.8195	-0.1103	-0.0087	-0.1078	30.5716	-6.3089	9.3957	0.6099	-0.3534	0.6488	0.2871
9.91	-9.6718	-0.4941	-0.8252	-0.1097	-0.0087	-0.1061	30.3844	-6.2010	9.4651	0.6097	-0.3538	0.6485	0.2872
9.92	-9.7277	-0.5800	-0.8509	-0.1078	-0.0059	-0.1007	30.5661	-6.1461	9.6289	0.6096	-0.3543	0.6483	0.2874
9.93	-9.7488	-0.6043	-0.8434	-0.1048	-0.0147	-0.1024	30.6312	-6.1957	9.4661	0.6096	-0.3547	0.6481	0.2875
9.94	-9.8112	-0.6078	-0.8357	-0.0832	-0.0085	-0.0893	30.5033	-6.0812	9.2543	0.6095	-0.3550	0.6479	0.2876
9.95	-9.7814	-0.6405	-0.8568	-0.0765	-0.0251	-0.0833	30.5293	-6.3540	9.4342	0.6095	-0.3553	0.6478	0.2877
9.96	-9.7056	-0.6721	-0.8579	-0.0604	-0.0399	-0.0855	30.4668	-6.1356	9.4780	0.6095	-0.3555	0.6475	0.2878
9.97	-9.6591	-0.6830	-0.8649	-0.0492	-0.0382	-0.0836	30.4218	-6.1268	9.2677	0.6096	-0.3556	0.6474	0.2879
9.98	-9.6115	-0.6875	-0.8388	-0.0333	-0.0466	-0.0859	30.3287	-6.1440	9.3996	0.6097	-0.3557	0.6471	0.2879
9.99	-9.6723	-0.6947	-0.8293	-0.0171	-0.0402	-0.0960	30.4569	-5.9921	9.3671	0.6099	-0.3558	0.6470	0.2878
10	-9.7086	-0.7054	-0.8388	-0.0026	-0.0412	-0.0983	30.7320	-5.7767	9.6056	0.6100	-0.3558	0.6469	0.2877
10.01	-9.7840	-0.7044	-0.8274	0.0164	-0.0460	-0.0928	30.8883	-5.7602	9.6870	0.6102	-0.3558	0.6468	0.2875
10.02	-9.8332	-0.6944	-0.8322	0.0314	-0.0547	-0.0926	30.7692	-5.8811	9.5487	0.6105	-0.3557	0.6467	0.2873
10.03	-9.7917	-0.6938	-0.8262	0.0463	-0.0718	-0.0901	30.6861	-5.8250	9.4234	0.6109	-0.3556	0.6465	0.2871
10.04	-9.7477	-0.6726	-0.8270	0.0489	-0.0766	-0.0837	30.6405	-5.7882	9.3415	0.6113	-0.3554	0.6464	0.2869
10.05	-9.6223	-0.6425	-0.8192	0.0583	-0.0780	-0.0855	30.4243	-5.8283	9.3652	0.6116	-0.3551	0.6461	0.2867
10.06	-9.6499	-0.6176	-0.7979	0.0741	-0.0648	-0.0823	30.5756	-5.7708	9.4650	0.6120	-0.3549	0.6461	0.2864
10.07	-9.6742	-0.5897	-0.8310	0.0726	-0.0740	-0.0799	30.4247	-5.7991	9.4184	0.6124	-0.3546	0.6460	0.2861
10.08	-9.5568	-0.5677	-0.7814	0.0746	-0.0885	-0.0803	30.5420	-5.7599	9.2472	0.6129	-0.3543	0.6459	0.2859
10.09	-9.5748	-0.5561	-0.7553	0.0741	-0.0626	-0.0750	30.8335	-5.8985	9.2850	0.6132	-0.3540	0.6458	0.2856
10.1	-9.6118	-0.5372	-0.7871	0.0742	-0.0590	-0.0673	30.7455	-5.9582	9.2303	0.6136	-0.3537	0.6457	0.2853
10.11	-9.5466	-0.4919	-0.7620	0.0745	-0.0678	-0.0690	30.6283	-5.9946	9.1727	0.6140	-0.3534	0.6457	0.2851
10.12	-9.5149	-0.4572	-0.7464	0.0598	-0.0535	-0.0697	30.5745	-5.7866	9.4904	0.6142	-0.3531	0.6456	0.2848
10.13	-9.5604	-0.4418	-0.7580	0.0507	-0.0444	-0.0645	30.7452	-5.6829	9.3026	0.6146	-0.3530	0.6456	0.2846
10.14	-9.5746	-0.4060	-0.7498	0.0392	-0.0462	-0.0635	30.6223	-5.6941	9.1126	0.6148	-0.3527	0.6455	0.2844
10.15	-9.5665	-0.4331	-0.7527	0.0145	-0.0460	-0.0650	30.6586	-5.9872	9.2610	0.6150	-0.3527	0.6455	0.2844
10.16	-9.5323	-0.4703	-0.7629	-0.0036	-0.0412	-0.0617	30.7279	-5.7595	9.3547	0.6151	-0.3525	0.6453	0.2843
10.17	-9.4926	-0.4617	-0.7647	-0.0183	-0.0338	-0.0596	30.5376	-5.5923	9.3635	0.6152	-0.3526	0.6453	0.2843
10.18	-9.4805	-0.4614	-0.7672	-0.0374	-0.0224	-0.0592	30.7155	-5.7405	9.3145	0.6153	-0.3526	0.6452	0.2844
10.19	-9.5374	-0.4918	-0.7697	-0.0571	-0.0138	-0.0583	30.5892	-5.6720	9.1424	0.6152	-0.3527	0.6451	0.2844
10.2	-9.6087	-0.5254	-0.7794	-0.0694	-0.0067	-0.0566	30.6441	-5.7134	9.3891	0.6152	-0.3529	0.6451	0.2846
10.21	-9.6346	-0.5675	-0.7940	-0.0873	-0.0151	-0.0562	30.6577	-5.6831	9.1860	0.6150	-0.3531	0.6449	0.2848
10.22	-9.6349	-0.6137	-0.8082	-0.0997	-0.0129	-0.0506	30.6463	-5.7081	9.4262	0.6150	-0.3534	0.6448	0.2851
10.23	-9.6304	-0.6384	-0.8175	-0.1040	-0.0151	-0.0455	30.7157	-5.6849	9.3832	0.6147	-0.3536	0.6446	0.2853
10.24	-9.5786	-0.6550	-0.8339	-0.1110	-0.0239	-0.0372	30.8057	-5.6003	9.3050	0.6147	-0.3538	0.6445	0.2857
10.25	-9.5654	-0.6648	-0.8286	-0.1230	-0.0205	-0.0366	30.7223	-5.5975	9.0794	0.6145	-0.3541	0.6444	0.2861
10.26	-9.6274	-0.6788	-0.8527	-0.1298	-0.0116	-0.0351	30.4395	-5.6791	9.0642	0.6143	-0.3544	0.6442	0.2865
10.27	-9.6052	-0.6924	-0.8587	-0.1306	-0.0156	-0.0339	30.7774	-5.8090	9.1026	0.6141	-0.3547	0.6441	0.2869
10.28	-9.5905	-0.7097	-0.8335	-0.1314	-0.0141	-0.0353	30.8533	-5.6376	8.8927	0.6139	-0.3550	0.6439	0.2873
10.29	-9.6560	-0.7222	-0.8523	-0.1320	-0.0114	-0.0344	30.7727	-5.8130	8.9676	0.6137	-0.3553	0.6438	0.2877
10.3	-9.6677	-0.7301	-0.8525	-0.1334	-0.0151	-0.0338	30.7044	-6.0650	8.9834	0.6134	-0.3555	0.6436	0.2881
10.31	-9.6818	-0.7340	-0.8329	-0.1434	-0.0210	-0.0279	30.5763	-6.0514	9.1397	0.6132	-0.3558	0.6435	0.2886
10.32	-9.6904	-0.7556	-0.8405	-0.1469	-0.0225	-0.0254	30.7849	-5.8746	9.1368	0.6130	-0.3561	0.6433	0.2891
10.33	-9.6528	-0.7869	-0.8398	-0.1438	-0.0326	-0.0191	30.7439	-5.8980	9.0630	0.6128	-0.3564	0.6431	0.2897
10.34	-9.6025	-0.8061	-0.8302	-0.1372	-0.0360	-0.0129	30.4594	-5.7451	9.0823	0.6126	-0.3566	0.6429	0.2902
10.35	-9.5700	-0.8293	-0.8282	-0.1372	-0.0288	-0.0092	30.5870	-5.8634	8.8334	0.6124	-0.3568	0.6428	0.2907
10.36	-9.5556	-0.8478	-0.8347	-0.1192	-0.0241	0.0002	30.7454	-5.9885	8.9634	0.6122	-0.3569	0.6427	0.2912
10.37	-9.5670	-0.8676	-0.8375	-0.1033	-0.0157	0.0042	30.5836	-5.9761	9.1006	0.6119	-0.3570	0.6426	0.2917
10.38	-9.5915	-0.8628	-0.8273	-0.0925	-0.0065	0.0039	30.7104	-5.7163	8.9459	0.6118	-0.3571	0.6427	0.2921
10.39	-9.6205	-0.8331	-0.8215	-0.0731	-0.0088	0.0062	30.7015	-5.9177	9.2116	0.6115	-0.3571	0.6426	0.2924
10.4	-9.6553	-0.8124	-0.8146	-0.0530	-0.0071	0.0062	30.6362	-6.1226	9.0069	0.6114	-0.3570	0.6428	0.2927
10.41	-9.6504	-0.8006	-0.8214	-0.0352	-0.0136	0.0170	30.4955	-5.9186	9.0862	0.6112	-0.3568	0.6428	0.2930
10.42	-9.6304	-0.7795	-0.8197	-0.0201	-0.0187	0.0038	30.5201	-5.9932	9.0535	0.6112	-0.3567	0.6429	0.2932
10.43	-9.6123	-0.7423	-0.8285	-0.0011	-0.0137	0.0024	30.7024	-6.1133	8.9900	0.6112	-0.3564	0.6430	0.2933
10.44	-9.5348	-0.7006	-0.8506	0.0170	-0.0160	-0.0047	30.6029	-6.1565	8.9138	0.6111	-0.3562	0.6431	0.2933
10.45	-9.4148	-0.6649	-0.8648	0.0257	-0.0109	-0.0209	30.6105	-6.1197	8.9045	0.6113	-0.3560	0.6433	0.2933
10.46	-9.3309	-0.6341	-0.8789	0.0319	0.0080	-0.0325	30.5763	-6.1770	9.0243	0.6112	-0.3557	0.6434	0.2931
10.47	-9.2954	-0.5959	-0.8880	0.0425	0.0365	-0.0392	30.6888	-6.5040	8.9940	0.6112	-0.3556	0.6436	0.2929
10.48	-9.3415	-0.5551	-0.8699	0.0434	0.0670	-0.0534	30.6003	-6.4027	9.0002	0.6110	-0.3555	0.6439	0.2925
10.49	-9.5469	-0.5393	-0.9023	0.0287	0.0919	-0.0435	30.4922	-6.2858	9.0103	0.6108	-0.3555	0.6443	0.2922
10.5	-9.5900	-0.5190	-0.9338	0.0375	0.0742	-0.0367	30.8793	-5.9892	9.1428	0.6106	-0.3554	0.6447	0.2919
10.51	-9.6796	-0.4559	-0.8899	0.0410	0.0724	-0.0252	31.0907	-5.9481	9.2642	0.6104	-0.3553	0.6450	0.2917
10.52	-9.7352	-0.4070	-0.9428	0.0282	0.0735	-0.0035	30.9190	-5.9503	9.3673	0.6102	-0.3551	0.6455	0.2915
10.53	-9.6946	-0.3937	-0.9212	0.0213	0.0391	-0.0070	30.7675	-6.0909	9.2429	0.6100	-0.3549	0.6458	0.2914
10.54	-9.7310	-0.3895	-0.9327	0.0256	0.0518	0.0020	30.3758	-6.1457	9.1071	0.6098	-0.3547	0.6461	0.2913
10.55	-9.7282	-0.3801	-0.9352	0.0216	0.0418	0.0094	30.3907	-6.1573	9.1906	0.6096	-0.3544	0.6464	0.2912
10.56	-9.7343	-0.3622	-0.9282	0.0225	0.0421	0.0088	30.4002	-6.2164	9.4330	0.6095	-0.3542	0.6468	0.2912
10.57	-9.8026	-0.3425	-0.9276	0.0217	0.0457	0.0024	30.4226	-6.2385	9.3587	0.6093	-0.3540	0.6471	0.2911
10.58	-9.7771	-0.3539	-0.9708	0.0225	0.0315	-0.0053	30.5268	-6.0736	9.4074	0.6092	-0.3538	0.6474	0.2910
10.59	-9.7221	-0.3734	-0.9281	0.0216	0.0142	-0.0050	30.1979	-5.9908	9.3474	0.6091	-0.3536	0.6475	0.2910
10.6	-9.7373	-0.3604	-0.9290	0.0258	0.0181	-0.0066	30.2840	-6.4714	9.4432	0.6090	-0.3533	0.6478	0.2909
10.61	-9.7284	-0.3446	-0.9313	0.0399	0.0182	-0.0091	30.2374	-6.2117	9.2473	0.6090	-0.3531	0.6480	0.2908
10.62	-9.6975	-0.3392	-0.9040	0.0471	0.0093	-0.0208	30.2676	-6.3159	9.1701	0.6089	-0.3528	0.6482	0.2906
10.63	-9.7253	-0.3317	-0.9150	0.0478	0.0153	-0.0158	30.2414	-6.3508	9.4282	0.6090	-0.3526	0.6485	0.2905
10.64	-9.7103	-0.3106	-0.9169	0.0506	-0.0053	-0.0129	30.1356	-6.3880	9.3784	0.6090	-0.3522	0.6487	0.2903
10.65	-9.6965	-0.2895	-0.9146	0.0495	-0.0066	-0.0076	30.4620	-6.6964	9.3897	0.6091	-0.3519	0.6489	0.2903
10.66	-9.6706	-0.2496	-0.9182	0.0641	0.0041	-0.0049	30.3050	-6.7167	9.4275	0.6090	-0.3515	0.6491	0.2901
10.67	-9.6216	-0.1779	-0.8869	0.0750	0.0058	-0.0055	30.4022	-6.7529	9.2073	0.6091	-0.3511	0.6494	0.2899
10.68	-9.6619	-0.1360	-0.8850	0.0734	0.0160	-0.0045	30.5480	-6.5605	9.1324	0.6091	-0.3508	0.6497	0.2897
10.69	-9.6841	-0.1263	-0.8867	0.0599	0.0030	-0.0071	30.2170	-6.5573	9.3121	0.6091	-0.3504	0.6499	0.2895
10.7	-9.6639	-0.1016	-0.8729	0.0505	-0.0106	-0.0133	30.2744	-6.7653	9.3190	0.6092	-0.3501	0.6501	0.2894
10.71	-9.6569	-0.0738	-0.8752	0.0540	-0.0099	-0.0192	30.2314	-6.5907	9.5442	0.6092	-0.3498	0.6502	0.2892
10.72	-9.6092	-0.0519	-0.8836	0.0475	-0.0067	-0.0293	30.2908	-6.5143	9.4408	0.6094	-0.3495	0.6504	0.2891
10.73	-9.5762	-0.0299	-0.8877	0.0455	-0.0099	-0.0273	30.1247	-6.3621	9.5987	0.6094	-0.3492	0.6505	0.2889
10.74	-9.5729	-0.0314	-0.9098	0.0305	-0.0133	-0.0291	30.3393	-6.3093	9.4318	0.6095	-0.3490	0.6507	0.2888
10.75	-9.5299	-0.0376	-0.9328	0.0235	-0.0098	-0.0339	30.2554	-6.4256	9.5544	0.6095	-0.3488	0.6507	0.2887
10.76	-9.4729	-0.0235	-0.9517	0.0198	-0.0034	-0.0349	30.1077	-6.3082	9.5295	0.6096	-0.3487	0.6508	0.2886
10.77	-9.4587	-0.0032	-0.9613	0.0008	0.0175	-0.0362	30.3055	-6.2806	9.3244	0.6095	-0.3486	0.6510	0.2885
10.78	-9.4708	0.0069	-0.9787	-0.0104	0.0309	-0.0365	30.2054	-6.3461	9.3360	0.6094	-0.3486	0.6511	0.2885
10.79	-9.5395	-0.0047	-0.9978	-0.0284	0.0442	-0.0332	30.1383	-6.3998	9.3971	0.6092	-0.3486	0.6513	0.2884
10.8	-9.6065	-0.0109	-1.0251	-0.0323	0.0551	-0.0299	30.2659	-6.3950	9.3899	0.6089	-0.3487	0.6515	0.2884
10.81	-9.6506	-0.0026	-1.0262	-0.0509	0.0486	-0.0342	30.1384	-6.3624	9.5824	0.6087	-0.3488	0.6517	0.2885
10.82	-9.6932	-0.0341	-1.0429	-0.0675	0.0401	-0.0363	30.0388	-6.4676	9.6278	0.6084	-0.3490	0.6518	0.2885
10.83	-9.7443	-0.0579	-1.0525	-0.0747	0.0327	-0.0366	30.1544	-6.6736	9.6353	0.6081	-0.3492	0.6519	0.2887
10.84	-9.7933	-0.0574	-1.0666	-0.0782	0.0249	-0.0391	30.2559	-6.6393	9.3629	0.6079	-0.3494	0.6519	0.2888
10.85	-9.7989	-0.0587	-1.0721	-0.0958	0.0091	-0.0440	30.2639	-6.9090	9.3982	0.6077	-0.3496	0.6519	0.2891
10.86	-9.8298	-0.0886	-1.0782	-0.1030	0.0008	-0.0485	30.4160	-6.9116	9.4504	0.6075	-0.3499	0.6518	0.2893
10.87	-9.7984	-0.1258	-1.0962	-0.1177	-0.0174	-0.0576	30.4507	-6.9220	9.5860	0.6073	-0.3502	0.6516	0.2896
10.88	-9.7501	-0.1312	-1.0537	-0.1209	-0.0352	-0.0679	30.2936	-6.8070	9.6105	0.6073	-0.3506	0.6514	0.2899
10.89	-9.7462	-0.1673	-1.0545	-0.1302	-0.0361	-0.0819	30.2779	-6.5416	9.5058	0.6072	-0.3509	0.6511	0.2902
10.9	-9.7927	-0.2047	-1.0446	-0.1332	-0.0430	-0.0843	30.6562	-6.6435	9.5450	0.6072	-0.3514	0.6508	0.2906
10.91	-9.7721	-0.2519	-1.0298	-0.1330	-0.0570	-0.0948	30.4107	-6.6456	9.6876	0.6071	-0.3518	0.6504	0.2908
10.92	-9.7067	-0.3303	-1.0179	-0.1345	-0.0747	-0.1022	30.3177	-6.5538	9.4373	0.6072	-0.3522	0.6500	0.2912
10.93	-9.6708	-0.3990	-1.0069	-0.1334	-0.0718	-0.1094	30.1830	-6.3496	9.4943	0.6073	-0.3527	0.6495	0.2915
10.94	-9.6695	-0.4478	-0.9990	-0.1295	-0.0698	-0.1032	30.1560	-6.2656	9.4848	0.6073	-0.3531	0.6490	0.2918
10.95	-9.6546	-0.4984	-0.9905	-0.1271	-0.0796	-0.0956	30.1715	-6.5146	9.3645	0.6075	-0.3535	0.6487	0.2921
10.96	-9.6172	-0.5277	-0.9618	-0.1119	-0.0833	-0.0848	30.1681	-6.4637	9.1453	0.6076	-0.3538	0.6482	0.2924
10.97	-9.5770	-0.5481	-0.9424	-0.0989	-0.0835	-0.0865	30.3778	-6.2626	9.2556	0.6077	-0.3541	0.6479	0.2927
10.98	-9.5454	-0.5669	-0.9235	-0.0840	-0.0842	-0.0853	30.2292	-6.5017	9.0703	0.6078	-0.3542	0.6474	0.2929
10.99	-9.5426	-0.5738	-0.9085	-0.0772	-0.0775	-0.0857	30.1711	-6.6635	9.1759	0.6081	-0.3544	0.6471	0.2931
11	-9.5549	-0.5934	-0.9081	-0.0610	-0.0704	-0.0848	30.4780	-6.3623	9.3450	0.6082	-0.3546	0.6468	0.2933
11.01	-9.5511	-0.6084	-0.9083	-0.0417	-0.0690	-0.0836	30.6076	-6.3993	9.2600	0.6084	-0.3547	0.6465	0.2933
11.02	-9.5723	-0.6119	-0.8841	-0.0286	-0.0665	-0.0830	30.7913	-6.3791	9.4322	0.6087	-0.3548	0.6463	0.2934
11.03	-9.5913	-0.6196	-0.8947	-0.0107	-0.0588	-0.0841	30.7429	-6.5129	9.2977	0.6089	-0.3548	0.6460	0.2933
11.04	-9.6112	-0.6301	-0.8825	0.0055	-0.0613	-0.0834	30.5495	-6.3313	9.0416	0.6091	-0.3548	0.6459	0.2933
11.05	-9.6506	-0.6071	-0.8942	0.0210	-0.0589	-0.0797	30.4099	-6.4272	8.9879	0.6093	-0.3546	0.6457	0.2931
11.06	-9.6293	-0.5755	-0.9030	0.0359	-0.0647	-0.0805	30.6312	-6.5046	9.1603	0.6097	-0.3545	0.6456	0.2930
11.07	-9.5797	-0.5483	-0.8842	0.0500	-0.0549	-0.0812	30.2534	-6.2995	9.3494	0.6100	-0.3543	0.6455	0.2927
11.08	-9.5782	-0.5163	-0.8882	0.0485	-0.0515	-0.0819	30.4773	-6.3710	9.1343	0.6103	-0.3542	0.6454	0.2925
11.09	-9.5929	-0.4757	-0.8923	0.0539	-0.0454	-0.0853	30.6114	-6.5017	8.9711	0.6106	-0.3540	0.6453	0.2922
11.1	-9.6044	-0.4486	-0.8894	0.0491	-0.0443	-0.0860	30.3039	-6.4794	9.0694	0.6109	-0.3539	0.6453	0.2919
11.11	-9.6055	-0.4238	-0.8837	0.0505	-0.0353	-0.0907	30.3813	-6.4700	9.0730	0.6112	-0.3538	0.6452	0.2916
11.12	-9.6208	-0.4094	-0.8776	0.0458	-0.0254	-0.1068	30.4183	-6.2024	8.8942	0.6114	-0.3537	0.6451	0.2912
11.13	-9.6491	-0.4031	-0.8714	0.0400	-0.0280	-0.1081	30.4054	-6.1398	8.9115	0.6117	-0.3537	0.6451	0.2909
11.14	-9.6513	-0.4089	-0.8771	0.0291	-0.0246	-0.1074	30.4089	-6.1050	8.9408	0.6119	-0.3537	0.6450	0.2906
11.15	-9.6425	-0.4048	-0.8602	0.0222	-0.0284	-0.1088	30.4214	-6.2295	9.3275	0.6121	-0.3538	0.6450	0.2903
11.16	-9.5760	-0.4146	-0.8417	0.0083	-0.0311	-0.1073	30.3195	-6.1176	9.1421	0.6123	-0.3538	0.6448	0.2901
11.17	-9.5962	-0.4413	-0.8111	-0.0031	-0.0164	-0.1134	30.1901	-6.0529	9.2527	0.6124	-0.3539	0.6447	0.2898
11.18	-9.6629	-0.4498	-0.8216	-0.0148	-0.0067	-0.1259	30.3123	-6.1464	9.2000	0.6126	-0.3542	0.6446	0.2896
11.19	-9.5760	-0.4539	-0.8042	-0.0285	-0.0280	-0.1307	30.6230	-5.8859	8.9585	0.6127	-0.3544	0.6444	0.2894
11.2	-9.5559	-0.4742	-0.7657	-0.0299	-0.0206	-0.1340	30.4634	-6.2235	9.0279	0.6129	-0.3547	0.6442	0.2892
11.21	-9.5979	-0.5254	-0.7861	-0.0525	0.0032	-0.1359	30.4073	-6.1470	8.9942	0.6129	-0.3551	0.6440	0.2890
11.22	-9.6148	-0.5804	-0.7695	-0.0530	0.0011	-0.1401	30.6173	-5.9891	9.2376	0.6129	-0.3555	0.6439	0.2888
11.23	-9.6401	-0.5873	-0.7897	-0.0539	0.0139	-0.1359	30.4836	-6.1583	8.9767	0.6128	-0.3559	0.6437	0.2886
11.24	-9.6364	-0.5868	-0.7907	-0.0534	0.0103	-0.1338	30.5091	-6.1237	8.9133	0.6129	-0.3563	0.6436	0.2884
11.25	-9.6801	-0.6141	-0.7927	-0.0523	0.0086	-0.1337	30.4800	-5.9523	8.8875	0.6129	-0.3567	0.6434	0.2883
11.26	-9.6846	-0.6278	-0.8023	-0.0486	-0.0028	-0.1332	30.5827	-5.7470	9.3008	0.6129	-0.3571	0.6433	0.2881
11.27	-9.6902	-0.6526	-0.7993	-0.0544	-0.0009	-0.1343	30.5991	-5.8124	9.1325	0.6129	-0.3575	0.6431	0.2879
11.28	-9.6223	-0.6850	-0.8194	-0.0491	-0.0096	-0.1349	30.5856	-5.7289	9.0084	0.6130	-0.3579	0.6429	0.2877
11.29	-9.5818	-0.6839	-0.7853	-0.0356	-0.0086	-0.1407	30.5976	-5.6899	9.2771	0.6131	-0.3582	0.6428	0.2875
11.3	-9.6133	-0.6722	-0.7896	-0.0397	0.0044	-0.1427	30.5856	-5.6768	9.0169	0.6131	-0.3586	0.6426	0.2873
11.31	-9.7005	-0.6993	-0.7878	-0.0326	0.0096	-0.1535	30.5966	-5.7313	9.2649	0.6132	-0.3590	0.6425	0.2870
11.32	-9.6188	-0.7256	-0.8523	-0.0290	0.0111	-0.1500	30.4300	-5.5952	9.0531	0.6132	-0.3594	0.6424	0.2867
11.33	-9.5481	-0.7074	-0.7924	-0.0275	-0.0006	-0.1463	30.6833	-5.7615	9.2143	0.6133	-0.3597	0.6422	0.2864
11.34	-9.5889	-0.7278	-0.8411	-0.0288	0.0247	-0.1395	30.6746	-5.6958	9.0207	0.6133	-0.3601	0.6421	0.2861
11.35	-9.6012	-0.7321	-0.8013	-0.0216	0.0110	-0.1334	30.4574	-5.4624	9.0856	0.6133	-0.3604	0.6421	0.2858
11.36	-9.6510	-0.7096	-0.7987	-0.0145	0.0297	-0.1334	30.5280	-5.5457	9.2870	0.6134	-0.3607	0.6421	0.2855
11.37	-9.6198	-0.7215	-0.8203	-0.0252	0.0092	-0.1293	30.4819	-5.4994	9.0973	0.6133	-0.3610	0.6419	0.2852
11.38	-9.5943	-0.7151	-0.7771	-0.0247	0.0090	-0.1152	30.6244	-5.5284	9.3402	0.6134	-0.3613	0.6419	0.2850
11.39	-9.5800	-0.7068	-0.7894	-0.0303	0.0151	-0.1098	30.5690	-5.5058	9.1862	0.6134	-0.3615	0.6418	0.2848
11.4	-9.5210	-0.7394	-0.7831	-0.0323	0.0120	-0.1002	30.6574	-5.5287	9.1708	0.6134	-0.3618	0.6419	0.2846
11.41	-9.5117	-0.7576	-0.7790	-0.0467	0.0296	-0.0924	30.7919	-5.4938	9.2573	0.6132	-0.3620	0.6418	0.2845
11.42	-9.5958	-0.7598	-0.7907	-0.0547	0.0493	-0.0834	30.7508	-5.6679	9.1779	0.6131	-0.3623	0.6419	0.2844
