time	acceleration_x	acceleration_y	acceleration_z	gyroscope_x	gyroscope_y	gyroscope_z	magnetometer_x	magnetometer_y	magnetometer_z	quaternion_w	quaternion_x	quaternion_y	quaternion_z
0	-9.5982	-0.6514	-0.2962	-0.0446	-0.0392	-0.0590	32.9345	-7.5450	0.4345	-0.4234	0.6084	-0.3863	-0.5491
0.01	-9.5677	-0.6539	-0.2934	-0.0479	-0.0338	-0.0556	32.9903	-7.5750	0.3100	-0.4233	0.6084	-0.3861	-0.5492
0.02	-9.5755	-0.6539	-0.2896	-0.0381	-0.0339	-0.0459	32.9136	-7.5329	0.5584	-0.4233	0.6084	-0.3859	-0.5493
0.03	-9.5676	-0.6521	-0.2906	-0.0368	-0.0283	-0.0489	32.8862	-7.6262	0.4693	-0.4232	0.6084	-0.3858	-0.5495
0.04	-9.5710	-0.6489	-0.2799	-0.0295	-0.0161	-0.0416	33.1445	-7.6499	0.6043	-0.4231	0.6083	-0.3857	-0.5495
0.05	-9.6033	-0.6419	-0.2844	-0.0286	-0.0102	-0.0497	33.2531	-7.6487	0.5088	-0.4232	0.6085	-0.3857	-0.5496
0.06	-9.6162	-0.6335	-0.2885	-0.0307	-0.0127	-0.0534	33.3497	-7.6175	0.4666	-0.4231	0.6085	-0.3856	-0.5496
0.07	-9.6125	-0.6267	-0.2860	-0.0288	-0.0131	-0.0553	33.2582	-7.4793	0.3834	-0.4231	0.6086	-0.3856	-0.5497
0.08	-9.6186	-0.6228	-0.2933	-0.0285	-0.0130	-0.0526	33.1227	-7.3671	0.5004	-0.4230	0.6085	-0.3854	-0.5496
0.09	-9.6069	-0.6149	-0.3000	-0.0289	-0.0097	-0.0574	33.0398	-7.5152	0.6544	-0.4230	0.6086	-0.3854	-0.5497
0.1	-9.5907	-0.6165	-0.3073	-0.0327	-0.0111	-0.0573	33.2442	-7.5711	0.6637	-0.4230	0.6087	-0.3853	-0.5497
0.11	-9.6038	-0.6132	-0.3212	-0.0303	-0.0081	-0.0568	33.1427	-7.5455	0.4892	-0.4229	0.6087	-0.3852	-0.5497
0.12	-9.5993	-0.6059	-0.3351	-0.0324	0.0044	-0.0605	33.2298	-7.5681	0.5065	-0.4229	0.6089	-0.3851	-0.5498
0.13	-9.6026	-0.6098	-0.3389	-0.0306	0.0062	-0.0582	33.2601	-7.5336	0.5209	-0.4228	0.6089	-0.3850	-0.5497
0.14	-9.6302	-0.6124	-0.3484	-0.0283	0.0175	-0.0607	33.6150	-7.3759	0.6932	-0.4228	0.6091	-0.3850	-0.5497
0.15	-9.6502	-0.6126	-0.3611	-0.0349	0.0145	-0.0613	33.4846	-7.3761	0.6829	-0.4227	0.6092	-0.3849	-0.5495
0.16	-9.6798	-0.6229	-0.3561	-0.0328	0.0133	-0.0620	33.4094	-7.3996	0.7125	-0.4226	0.6094	-0.3849	-0.5495
0.17	-9.7044	-0.6367	-0.3668	-0.0337	0.0076	-0.0572	33.0510	-7.4471	0.4415	-0.4225	0.6095	-0.3848	-0.5495
0.18	-9.6987	-0.6441	-0.3692	-0.0363	-0.0017	-0.0622	33.1063	-7.6068	0.7538	-0.4225	0.6095	-0.3847	-0.5495
0.19	-9.6882	-0.6483	-0.3669	-0.0353	-0.0083	-0.0601	33.2238	-7.2885	0.5701	-0.4224	0.6096	-0.3846	-0.5495
0.2	-9.7121	-0.6445	-0.3750	-0.0356	-0.0079	-0.0595	32.9174	-7.5569	0.6009	-0.4224	0.6097	-0.3846	-0.5496
0.21	-9.6768	-0.6414	-0.3826	-0.0374	-0.0154	-0.0602	33.1438	-7.6091	0.7441	-0.4223	0.6097	-0.3845	-0.5497
0.22	-9.6311	-0.6447	-0.3597	-0.0318	-0.0228	-0.0619	33.3629	-7.7018	0.4001	-0.4222	0.6097	-0.3843	-0.5497
0.23	-9.6557	-0.6597	-0.3777	-0.0283	-0.0127	-0.0635	33.4881	-7.7835	0.5909	-0.4223	0.6098	-0.3843	-0.5498
0.24	-9.6404	-0.6649	-0.3884	-0.0285	-0.0091	-0.0696	33.5710	-7.6705	0.6720	-0.4222	0.6098	-0.3842	-0.5498
0.25	-9.6347	-0.6638	-0.3773	-0.0287	-0.0073	-0.0630	33.4847	-7.7083	0.5383	-0.4222	0.6099	-0.3841	-0.5498
0.26	-9.6526	-0.6679	-0.3820	-0.0283	-0.0087	-0.0681	33.2535	-7.6204	0.5576	-0.4222	0.6099	-0.3840	-0.5498
0.27	-9.6740	-0.6699	-0.3805	-0.0285	-0.0142	-0.0666	33.1567	-7.6863	0.6252	-0.4222	0.6099	-0.3839	-0.5499
0.28	-9.6843	-0.6631	-0.3839	-0.0281	-0.0135	-0.0625	33.2478	-7.5907	0.4981	-0.4221	0.6100	-0.3839	-0.5500
0.29	-9.6722	-0.6694	-0.3818	-0.0292	-0.0121	-0.0645	33.3135	-7.6079	0.6317	-0.4220	0.6099	-0.3838	-0.5500
0.3	-9.6573	-0.6837	-0.3812	-0.0324	-0.0149	-0.0637	33.0281	-7.6375	0.6579	-0.4220	0.6100	-0.3837	-0.5501
0.31	-9.6588	-0.6776	-0.3878	-0.0300	-0.0218	-0.0637	33.1897	-7.6816	0.5557	-0.4220	0.6100	-0.3836	-0.5502
0.32	-9.6347	-0.6703	-0.3830	-0.0296	-0.0209	-0.0642	33.1147	-7.3160	0.3618	-0.4220	0.6101	-0.3835	-0.5503
0.33	-9.6234	-0.6613	-0.3817	-0.0354	-0.0112	-0.0636	33.1028	-7.4527	0.6819	-0.4219	0.6100	-0.3833	-0.5502
0.34	-9.6265	-0.6586	-0.3893	-0.0370	-0.0156	-0.0700	33.1884	-7.4281	0.5793	-0.4220	0.6102	-0.3832	-0.5503
0.35	-9.6209	-0.6595	-0.3866	-0.0385	-0.0146	-0.0702	33.2523	-7.4436	0.5245	-0.4220	0.6103	-0.3831	-0.5503
0.36	-9.6344	-0.6669	-0.3814	-0.0374	-0.0152	-0.0650	33.2226	-7.4198	0.5445	-0.4219	0.6103	-0.3829	-0.5503
0.37	-9.6594	-0.6781	-0.3866	-0.0475	-0.0071	-0.0679	33.0704	-7.5571	0.4366	-0.4219	0.6104	-0.3828	-0.5504
0.38	-9.6660	-0.6858	-0.3881	-0.0516	-0.0095	-0.0648	33.1050	-7.3422	0.4301	-0.4217	0.6105	-0.3827	-0.5505
0.39	-9.6734	-0.6911	-0.3747	-0.0479	-0.0209	-0.0598	32.9157	-7.4471	0.4975	-0.4217	0.6105	-0.3826	-0.5506
0.4	-9.6713	-0.7020	-0.3787	-0.0540	-0.0219	-0.0586	33.3305	-7.7463	0.6509	-0.4215	0.6105	-0.3824	-0.5507
0.41	-9.6523	-0.7121	-0.3779	-0.0502	-0.0277	-0.0537	33.4389	-7.5484	0.6327	-0.4214	0.6106	-0.3823	-0.5509
0.42	-9.6501	-0.7227	-0.3763	-0.0528	-0.0233	-0.0520	33.2070	-7.5234	0.6060	-0.4213	0.6106	-0.3821	-0.5511
0.43	-9.6299	-0.7369	-0.3825	-0.0531	-0.0247	-0.0493	33.3790	-7.5099	0.4157	-0.4212	0.6106	-0.3820	-0.5512
0.44	-9.6176	-0.7464	-0.3723	-0.0448	-0.0222	-0.0449	33.3724	-7.6312	0.5733	-0.4211	0.6107	-0.3819	-0.5514
0.45	-9.6456	-0.7459	-0.3703	-0.0451	-0.0223	-0.0451	33.2070	-7.7138	0.6349	-0.4210	0.6106	-0.3818	-0.5515
0.46	-9.6754	-0.7505	-0.3769	-0.0342	-0.0221	-0.0442	33.2065	-7.4928	0.2148	-0.4209	0.6106	-0.3818	-0.5517
0.47	-9.6609	-0.7474	-0.3696	-0.0279	-0.0251	-0.0408	33.0766	-7.6362	0.4657	-0.4207	0.6105	-0.3817	-0.5517
0.48	-9.6657	-0.7450	-0.3578	-0.0262	-0.0213	-0.0431	33.1398	-7.5810	0.4235	-0.4207	0.6105	-0.3817	-0.5519
0.49	-9.6028	-0.7331	-0.3760	-0.0226	-0.0253	-0.0401	33.3111	-7.5258	0.3490	-0.4206	0.6104	-0.3817	-0.5520
0.5	-9.6119	-0.7209	-0.3420	-0.0064	-0.0219	-0.0377	33.0309	-7.4560	0.5716	-0.4207	0.6104	-0.3817	-0.5521
0.51	-9.7303	-0.7056	-0.3698	0.0037	-0.0085	-0.0433	33.3407	-7.4233	0.4987	-0.4206	0.6103	-0.3818	-0.5521
0.52	-9.6469	-0.6776	-0.3513	-0.0008	-0.0322	-0.0425	33.2017	-7.5640	0.6002	-0.4207	0.6102	-0.3818	-0.5522
0.53	-9.6085	-0.6701	-0.3305	-0.0006	-0.0280	-0.0484	33.0560	-7.4703	0.5909	-0.4208	0.6101	-0.3818	-0.5522
0.54	-9.6449	-0.6635	-0.3550	-0.0005	-0.0179	-0.0484	33.1310	-7.3385	0.4325	-0.4207	0.6100	-0.3818	-0.5522
0.55	-9.6757	-0.6630	-0.3381	0.0005	-0.0232	-0.0450	33.0644	-7.3609	0.4281	-0.4208	0.6100	-0.3819	-0.5524
0.56	-9.6756	-0.6620	-0.3537	-0.0061	-0.0260	-0.0399	33.1672	-7.4770	0.3345	-0.4208	0.6098	-0.3819	-0.5524
0.57	-9.6638	-0.6343	-0.3379	-0.0036	-0.0278	-0.0341	33.1584	-7.3614	0.6194	-0.4208	0.6097	-0.3820	-0.5526
0.58	-9.6838	-0.6115	-0.3372	0.0002	-0.0252	-0.0349	32.8777	-7.3220	0.6402	-0.4207	0.6095	-0.3820	-0.5526
0.59	-9.6933	-0.6043	-0.3398	-0.0090	-0.0244	-0.0357	33.3095	-7.6305	0.6005	-0.4207	0.6095	-0.3821	-0.5528
0.6	-9.6936	-0.6148	-0.3253	-0.0094	-0.0379	-0.0352	33.3959	-7.6932	0.3261	-0.4207	0.6093	-0.3821	-0.5529
0.61	-9.6900	-0.6294	-0.3276	-0.0139	-0.0295	-0.0431	33.2782	-7.4892	0.4496	-0.4207	0.6092	-0.3821	-0.5530
0.62	-9.6792	-0.6363	-0.3227	-0.0207	-0.0349	-0.0534	33.2714	-7.5500	0.4409	-0.4207	0.6092	-0.3821	-0.5532
0.63	-9.6632	-0.6449	-0.3215	-0.0270	-0.0364	-0.0540	33.2970	-7.9050	0.6190	-0.4206	0.6091	-0.3820	-0.5533
0.64	-9.6608	-0.6520	-0.3088	-0.0285	-0.0386	-0.0520	33.7057	-7.5509	0.6325	-0.4207	0.6090	-0.3819	-0.5535
0.65	-9.6477	-0.6538	-0.3105	-0.0283	-0.0442	-0.0433	33.7484	-7.4994	0.6541	-0.4206	0.6089	-0.3818	-0.5536
0.66	-9.6366	-0.6464	-0.2964	-0.0284	-0.0418	-0.0449	33.4439	-7.4893	0.4432	-0.4206	0.6088	-0.3817	-0.5538
0.67	-9.6333	-0.6516	-0.2902	-0.0287	-0.0341	-0.0504	33.2467	-7.4036	0.5208	-0.4206	0.6088	-0.3816	-0.5539
0.68	-9.6190	-0.6584	-0.2928	-0.0272	-0.0409	-0.0465	33.0935	-7.3136	0.3667	-0.4206	0.6087	-0.3815	-0.5540
0.69	-9.6394	-0.6652	-0.2798	-0.0288	-0.0397	-0.0518	33.1793	-7.5333	0.2275	-0.4206	0.6087	-0.3814	-0.5542
0.7	-9.6383	-0.6688	-0.2902	-0.0282	-0.0361	-0.0591	32.9925	-7.5647	0.5263	-0.4206	0.6087	-0.3812	-0.5543
0.71	-9.6278	-0.6765	-0.2794	-0.0291	-0.0320	-0.0527	32.7883	-7.4101	0.5339	-0.4207	0.6087	-0.3811	-0.5544
0.72	-9.6213	-0.6824	-0.2773	-0.0271	-0.0317	-0.0544	33.2135	-7.3661	0.4372	-0.4206	0.6086	-0.3810	-0.5544
0.73	-9.6310	-0.6872	-0.2731	-0.0274	-0.0348	-0.0547	32.9718	-7.6642	0.3226	-0.4207	0.6087	-0.3809	-0.5546
0.74	-9.6312	-0.6907	-0.2738	-0.0284	-0.0287	-0.0497	32.9258	-7.5906	0.1898	-0.4207	0.6086	-0.3808	-0.5546
0.75	-9.6219	-0.6913	-0.2695	-0.0290	-0.0306	-0.0453	33.2015	-7.3792	0.4249	-0.4207	0.6086	-0.3807	-0.5547
0.76	-9.6291	-0.6916	-0.2650	-0.0269	-0.0235	-0.0408	33.1298	-7.3968	0.4302	-0.4206	0.6086	-0.3806	-0.5548
0.77	-9.6483	-0.6929	-0.2665	-0.0213	-0.0313	-0.0389	33.0498	-7.4271	0.3260	-0.4206	0.6085	-0.3806	-0.5549
0.78	-9.6499	-0.6922	-0.2557	-0.0179	-0.0342	-0.0392	33.2845	-7.7134	0.3140	-0.4206	0.6085	-0.3806	-0.5551
0.79	-9.6323	-0.6898	-0.2533	-0.0157	-0.0341	-0.0441	33.0491	-7.4889	0.1467	-0.4206	0.6083	-0.3805	-0.5551
0.8	-9.6193	-0.6930	-0.2563	-0.0054	-0.0297	-0.0442	33.0896	-7.4743	0.0469	-0.4207	0.6084	-0.3805	-0.5552
0.81	-9.5999	-0.6895	-0.2625	-0.0022	-0.0235	-0.0409	33.1545	-7.6726	0.1013	-0.4207	0.6082	-0.3805	-0.5552
0.82	-9.5882	-0.6807	-0.2587	-0.0025	-0.0239	-0.0376	33.1954	-7.5947	0.2411	-0.4207	0.6082	-0.3805	-0.5553
0.83	-9.5912	-0.6741	-0.2551	-0.0052	-0.0149	-0.0339	32.9258	-7.4955	0.3566	-0.4207	0.6081	-0.3805	-0.5553
0.84	-9.5865	-0.6570	-0.2637	-0.0000	-0.0167	-0.0399	32.9352	-7.4498	0.1969	-0.4207	0.6081	-0.3806	-0.5554
0.85	-9.6027	-0.6439	-0.2542	0.0075	-0.0097	-0.0369	32.9117	-7.6002	0.1577	-0.4207	0.6080	-0.3807	-0.5554
0.86	-9.6466	-0.6346	-0.2628	0.0013	-0.0133	-0.0450	32.9601	-7.3970	0.4577	-0.4208	0.6079	-0.3807	-0.5553
0.87	-9.6459	-0.6269	-0.2690	-0.0058	-0.0133	-0.0422	33.0560	-7.4270	0.4112	-0.4208	0.6080	-0.3807	-0.5554
0.88	-9.6305	-0.6192	-0.2604	-0.0023	-0.0091	-0.0431	33.0051	-7.5930	0.1836	-0.4208	0.6079	-0.3807	-0.5554
0.89	-9.6532	-0.6152	-0.2690	-0.0020	-0.0065	-0.0439	33.0320	-7.4310	0.3462	-0.4208	0.6079	-0.3808	-0.5554
0.9	-9.6572	-0.6092	-0.2762	-0.0027	-0.0049	-0.0415	32.8741	-7.5995	0.3302	-0.4208	0.6078	-0.3808	-0.5553
0.91	-9.6396	-0.6078	-0.2851	-0.0029	-0.0039	-0.0417	32.9590	-7.5765	0.4810	-0.4208	0.6079	-0.3809	-0.5553
0.92	-9.6330	-0.6092	-0.2835	-0.0096	-0.0098	-0.0460	32.9243	-7.5376	0.5456	-0.4208	0.6078	-0.3809	-0.5553
0.93	-9.6597	-0.6109	-0.2839	-0.0072	-0.0010	-0.0416	33.2375	-7.4456	0.4742	-0.4208	0.6078	-0.3809	-0.5553
0.94	-9.6849	-0.6071	-0.2989	-0.0239	-0.0023	-0.0443	32.8073	-7.6183	0.1914	-0.4207	0.6079	-0.3809	-0.5553
0.95	-9.6827	-0.6088	-0.2949	-0.0184	-0.0125	-0.0391	33.0848	-7.5360	0.1957	-0.4207	0.6079	-0.3809	-0.5554
0.96	-9.6879	-0.6147	-0.2921	-0.0199	-0.0148	-0.0386	32.9804	-7.6667	0.4793	-0.4206	0.6078	-0.3810	-0.5555
0.97	-9.6930	-0.6135	-0.2980	-0.0189	-0.0158	-0.0416	33.0516	-7.5829	0.3363	-0.4205	0.6077	-0.3810	-0.5555
0.98	-9.6790	-0.6091	-0.2962	-0.0254	-0.0129	-0.0452	33.0727	-7.4667	0.2265	-0.4205	0.6078	-0.3810	-0.5556
0.99	-9.6515	-0.6160	-0.2860	-0.0230	-0.0151	-0.0458	33.0729	-7.6595	0.2879	-0.4204	0.6077	-0.3810	-0.5557
1	-9.6627	-0.6208	-0.2861	-0.0206	-0.0149	-0.0412	33.2803	-7.6610	0.4442	-0.4203	0.6077	-0.3810	-0.5558
1.01	-9.6486	-0.6190	-0.2866	-0.0254	-0.0196	-0.0433	33.1183	-7.6626	0.4450	-0.4202	0.6076	-0.3810	-0.5559
1.02	-9.6357	-0.6158	-0.2763	-0.0187	-0.0210	-0.0401	32.9492	-7.6671	0.1655	-0.4202	0.6076	-0.3810	-0.5560
1.03	-9.6267	-0.6189	-0.2743	-0.0276	-0.0183	-0.0456	33.1533	-7.6465	0.4024	-0.4202	0.6076	-0.3809	-0.5560
1.04	-9.6248	-0.6197	-0.2763	-0.0145	-0.0098	-0.0422	32.8289	-7.3618	0.4599	-0.4201	0.6076	-0.3809	-0.5560
1.05	-9.6304	-0.6154	-0.2741	-0.0196	-0.0090	-0.0509	33.1559	-7.6398	0.2049	-0.4201	0.6077	-0.3809	-0.5561
1.06	-9.6477	-0.6248	-0.2664	-0.0288	-0.0103	-0.0566	32.9210	-7.7866	0.2949	-0.4201	0.6077	-0.3808	-0.5561
1.07	-9.6449	-0.6257	-0.2710	-0.0230	-0.0079	-0.0523	32.9599	-7.4756	0.4336	-0.4201	0.6078	-0.3808	-0.5561
1.08	-9.6316	-0.6092	-0.2642	-0.0211	-0.0168	-0.0554	32.8854	-7.4972	0.4367	-0.4200	0.6077	-0.3807	-0.5561
1.09	-9.6571	-0.6004	-0.2751	-0.0197	-0.0057	-0.0499	32.7872	-7.5911	0.1913	-0.4200	0.6078	-0.3807	-0.5561
1.1	-9.6388	-0.5937	-0.2709	-0.0181	-0.0069	-0.0543	32.9504	-7.5796	0.5166	-0.4200	0.6078	-0.3806	-0.5561
1.11	-9.6143	-0.5999	-0.2581	-0.0235	-0.0092	-0.0545	33.0823	-7.5515	0.4712	-0.4200	0.6078	-0.3806	-0.5561
1.12	-9.6453	-0.6235	-0.2745	-0.0268	-0.0045	-0.0555	32.9312	-7.7125	0.2961	-0.4200	0.6080	-0.3806	-0.5562
1.13	-9.6559	-0.6268	-0.2777	-0.0277	-0.0072	-0.0593	32.7904	-7.5799	0.4144	-0.4199	0.6080	-0.3804	-0.5561
1.14	-9.6757	-0.6279	-0.2631	-0.0293	-0.0096	-0.0538	33.4263	-7.4382	0.6495	-0.4199	0.6080	-0.3804	-0.5562
1.15	-9.6761	-0.6357	-0.2741	-0.0269	-0.0144	-0.0534	33.4981	-7.5792	0.5163	-0.4198	0.6080	-0.3803	-0.5562
1.16	-9.6187	-0.6466	-0.2682	-0.0279	-0.0206	-0.0510	33.4499	-7.6607	0.6216	-0.4198	0.6080	-0.3803	-0.5563
1.17	-9.5973	-0.6705	-0.2732	-0.0286	-0.0143	-0.0438	33.2815	-7.7133	0.4330	-0.4197	0.6080	-0.3802	-0.5564
1.18	-9.6113	-0.6821	-0.2825	-0.0290	-0.0099	-0.0410	32.9691	-7.8157	0.4188	-0.4197	0.6080	-0.3802	-0.5564
1.19	-9.5989	-0.6772	-0.2880	-0.0209	-0.0086	-0.0328	33.3479	-7.7366	0.4295	-0.4196	0.6081	-0.3802	-0.5565
1.2	-9.5968	-0.6592	-0.2881	-0.0131	0.0021	-0.0324	33.1932	-7.6956	0.4386	-0.4195	0.6081	-0.3803	-0.5565
1.21	-9.6309	-0.6407	-0.3009	-0.0096	0.0025	-0.0320	33.2192	-7.7911	0.6229	-0.4195	0.6081	-0.3803	-0.5565
1.22	-9.6191	-0.6210	-0.3044	0.0001	0.0083	-0.0332	33.3707	-7.6888	0.5388	-0.4194	0.6080	-0.3804	-0.5564
1.23	-9.6220	-0.6222	-0.3086	0.0003	0.0056	-0.0415	33.3569	-7.6235	0.3735	-0.4194	0.6081	-0.3805	-0.5564
1.24	-9.6524	-0.6141	-0.3262	-0.0030	0.0150	-0.0554	33.1718	-7.6491	0.3480	-0.4194	0.6081	-0.3806	-0.5563
1.25	-9.6684	-0.6044	-0.3260	0.0036	0.0121	-0.0484	32.9815	-7.6072	0.5404	-0.4194	0.6082	-0.3807	-0.5562
1.26	-9.6794	-0.5884	-0.3268	0.0030	0.0089	-0.0505	33.0088	-7.6029	0.4088	-0.4194	0.6082	-0.3807	-0.5561
1.27	-9.6904	-0.5722	-0.3287	-0.0013	0.0066	-0.0454	33.1142	-7.6490	0.4308	-0.4194	0.6082	-0.3808	-0.5560
1.28	-9.6973	-0.5550	-0.3303	-0.0041	-0.0011	-0.0462	33.0692	-7.4319	0.4157	-0.4194	0.6082	-0.3809	-0.5560
1.29	-9.6906	-0.5427	-0.3353	-0.0032	-0.0013	-0.0543	33.1223	-7.5962	0.4357	-0.4193	0.6081	-0.3809	-0.5560
1.3	-9.6761	-0.5425	-0.3342	-0.0129	-0.0053	-0.0545	32.9330	-7.8111	0.3062	-0.4193	0.6082	-0.3810	-0.5561
1.31	-9.6630	-0.5465	-0.3374	-0.0209	-0.0058	-0.0558	33.1213	-7.5429	0.5345	-0.4192	0.6082	-0.3810	-0.5560
1.32	-9.6654	-0.5537	-0.3354	-0.0280	-0.0052	-0.0554	33.1516	-7.5367	0.6589	-0.4192	0.6083	-0.3810	-0.5561
1.33	-9.6702	-0.5615	-0.3363	-0.0262	-0.0112	-0.0575	32.9548	-7.7020	0.4856	-0.4191	0.6082	-0.3809	-0.5561
1.34	-9.6790	-0.5752	-0.3285	-0.0290	-0.0073	-0.0586	33.3832	-7.6740	0.3054	-0.4190	0.6083	-0.3809	-0.5562
1.35	-9.6829	-0.5864	-0.3301	-0.0290	-0.0119	-0.0576	33.3241	-7.8439	0.3686	-0.4190	0.6083	-0.3809	-0.5562
1.36	-9.6760	-0.5949	-0.3281	-0.0374	-0.0141	-0.0587	33.3968	-7.8658	0.5749	-0.4189	0.6083	-0.3808	-0.5563
1.37	-9.6794	-0.6128	-0.3281	-0.0391	-0.0143	-0.0537	33.2006	-7.7366	0.3497	-0.4188	0.6084	-0.3808	-0.5564
1.38	-9.6847	-0.6302	-0.3322	-0.0283	-0.0152	-0.0561	33.3807	-7.6607	0.4234	-0.4187	0.6083	-0.3807	-0.5564
1.39	-9.6014	-0.6291	-0.3151	-0.0343	-0.0200	-0.0555	33.1727	-7.6805	0.5322	-0.4187	0.6084	-0.3806	-0.5566
1.4	-9.6768	-0.6374	-0.2901	-0.0326	-0.0112	-0.0585	32.9491	-7.6792	0.6161	-0.4186	0.6084	-0.3805	-0.5565
1.41	-9.7168	-0.6377	-0.3289	-0.0290	-0.0202	-0.0585	33.2501	-7.6620	0.6885	-0.4186	0.6084	-0.3805	-0.5566
1.42	-9.5949	-0.6430	-0.2755	-0.0316	-0.0366	-0.0620	33.2954	-7.7185	0.2607	-0.4186	0.6084	-0.3803	-0.5567
1.43	-9.6172	-0.6669	-0.2856	-0.0276	-0.0147	-0.0703	33.1207	-7.8119	0.4936	-0.4186	0.6085	-0.3802	-0.5567
1.44	-9.6376	-0.6719	-0.3031	-0.0290	-0.0171	-0.0590	32.9679	-7.5334	0.7560	-0.4186	0.6085	-0.3801	-0.5568
1.45	-9.6032	-0.6837	-0.2844	-0.0293	-0.0158	-0.0589	33.0265	-7.6494	0.6156	-0.4186	0.6086	-0.3800	-0.5568
1.46	-9.5901	-0.6737	-0.2973	-0.0272	-0.0163	-0.0449	33.1818	-7.6495	0.2384	-0.4186	0.6086	-0.3800	-0.5569
1.47	-9.6228	-0.6408	-0.2892	-0.0294	-0.0139	-0.0454	33.1036	-7.4653	0.2188	-0.4185	0.6085	-0.3799	-0.5569
1.48	-9.6457	-0.6288	-0.2938	-0.0297	-0.0035	-0.0449	32.9622	-7.6445	0.3868	-0.4184	0.6087	-0.3799	-0.5569
1.49	-9.6422	-0.6363	-0.2885	-0.0250	-0.0068	-0.0560	33.0431	-7.5092	0.5649	-0.4184	0.6087	-0.3798	-0.5569
1.5	-9.6528	-0.6532	-0.2935	-0.0233	-0.0041	-0.0540	32.8951	-7.5653	0.4695	-0.4184	0.6088	-0.3798	-0.5569
1.51	-9.6656	-0.6588	-0.2947	-0.0305	-0.0142	-0.0467	33.0154	-7.6080	0.6524	-0.4183	0.6088	-0.3797	-0.5569
1.52	-9.6565	-0.6469	-0.2951	-0.0206	-0.0150	-0.0559	33.2316	-7.5678	0.5504	-0.4183	0.6088	-0.3797	-0.5570
1.53	-9.6450	-0.6386	-0.2961	-0.0118	-0.0097	-0.0508	33.3356	-7.6272	0.3238	-0.4183	0.6088	-0.3797	-0.5570
1.54	-9.6490	-0.6380	-0.2975	-0.0117	-0.0151	-0.0423	33.3609	-7.8474	0.3436	-0.4182	0.6087	-0.3797	-0.5570
1.55	-9.6510	-0.6323	-0.3019	-0.0144	-0.0100	-0.0393	33.3584	-7.8721	0.3397	-0.4182	0.6088	-0.3798	-0.5571
1.56	-9.6479	-0.6219	-0.3042	-0.0176	-0.0160	-0.0436	33.3320	-7.9543	0.3356	-0.4181	0.6087	-0.3798	-0.5572
1.57	-9.6509	-0.6235	-0.3074	-0.0170	-0.0089	-0.0462	33.1768	-7.6792	0.3817	-0.4181	0.6087	-0.3799	-0.5573
1.58	-9.6526	-0.6218	-0.3103	-0.0256	-0.0109	-0.0402	33.1698	-7.6777	0.5607	-0.4179	0.6086	-0.3798	-0.5573
1.59	-9.6661	-0.6231	-0.3054	-0.0300	-0.0128	-0.0397	33.3127	-7.5489	0.4636	-0.4178	0.6086	-0.3799	-0.5574
1.6	-9.6864	-0.6254	-0.3090	-0.0199	-0.0138	-0.0391	33.1953	-7.4705	0.4335	-0.4177	0.6086	-0.3799	-0.5575
1.61	-9.6786	-0.6206	-0.3045	-0.0242	-0.0193	-0.0369	33.1790	-7.5809	0.3241	-0.4176	0.6085	-0.3799	-0.5575
1.62	-9.6659	-0.6113	-0.3061	-0.0298	-0.0145	-0.0454	33.1647	-7.6999	0.4484	-0.4176	0.6086	-0.3800	-0.5577
1.63	-9.6642	-0.6097	-0.3089	-0.0275	-0.0164	-0.0474	33.0870	-7.6473	0.8325	-0.4175	0.6085	-0.3799	-0.5577
1.64	-9.6579	-0.6062	-0.3095	-0.0204	-0.0179	-0.0474	33.5282	-7.4995	0.7203	-0.4174	0.6085	-0.3799	-0.5578
1.65	-9.6350	-0.6027	-0.3069	-0.0249	-0.0130	-0.0467	33.5613	-7.4915	0.6046	-0.4173	0.6085	-0.3799	-0.5578
1.66	-9.6317	-0.5980	-0.3056	-0.0206	-0.0164	-0.0462	33.2278	-7.5036	0.6133	-0.4173	0.6085	-0.3799	-0.5579
1.67	-9.6388	-0.5956	-0.3039	-0.0139	-0.0170	-0.0489	33.0408	-7.4591	0.5363	-0.4173	0.6085	-0.3798	-0.5579
1.68	-9.6591	-0.5939	-0.3024	-0.0156	-0.0171	-0.0489	32.9047	-7.5294	0.5357	-0.4173	0.6085	-0.3798	-0.5579
1.69	-9.6833	-0.5906	-0.2959	-0.0157	-0.0200	-0.0525	33.1312	-7.5992	0.4592	-0.4173	0.6085	-0.3798	-0.5580
1.7	-9.6789	-0.5889	-0.2941	-0.0253	-0.0203	-0.0556	33.1453	-7.5932	0.4229	-0.4173	0.6084	-0.3798	-0.5581
1.71	-9.6631	-0.5850	-0.2899	-0.0164	-0.0244	-0.0501	33.0335	-7.7819	0.5374	-0.4173	0.6084	-0.3798	-0.5582
1.72	-9.6398	-0.5838	-0.2862	-0.0253	-0.0270	-0.0543	33.1761	-7.6787	0.5439	-0.4172	0.6083	-0.3797	-0.5582
1.73	-9.6368	-0.5838	-0.2783	-0.0237	-0.0202	-0.0554	33.1648	-7.5607	0.4579	-0.4173	0.6084	-0.3796	-0.5583
1.74	-9.6399	-0.5831	-0.2805	-0.0269	-0.0188	-0.0586	33.1484	-7.7904	0.3922	-0.4172	0.6084	-0.3795	-0.5583
1.75	-9.6323	-0.5872	-0.2792	-0.0241	-0.0196	-0.0606	32.9499	-7.9118	0.4258	-0.4173	0.6085	-0.3795	-0.5583
1.76	-9.6309	-0.5855	-0.2655	-0.0260	-0.0217	-0.0586	33.1163	-7.6238	0.4687	-0.4172	0.6084	-0.3794	-0.5583
1.77	-9.6400	-0.6001	-0.2708	-0.0304	-0.0176	-0.0573	32.8905	-7.6129	0.4506	-0.4172	0.6085	-0.3793	-0.5584
1.78	-9.6452	-0.6041	-0.2802	-0.0283	-0.0123	-0.0603	32.9838	-7.7116	0.4160	-0.4172	0.6086	-0.3792	-0.5584
1.79	-9.6330	-0.6053	-0.2737	-0.0299	-0.0140	-0.0598	32.8828	-7.5950	0.2549	-0.4172	0.6086	-0.3791	-0.5584
1.8	-9.6163	-0.6145	-0.2779	-0.0357	-0.0158	-0.0579	33.0403	-7.5694	0.1594	-0.4172	0.6087	-0.3790	-0.5585
1.81	-9.6220	-0.6262	-0.2780	-0.0333	-0.0094	-0.0623	33.0177	-7.6484	0.3515	-0.4171	0.6087	-0.3789	-0.5585
1.82	-9.6372	-0.6342	-0.2782	-0.0302	-0.0072	-0.0614	32.8266	-7.6504	0.3418	-0.4171	0.6089	-0.3788	-0.5585
1.83	-9.6423	-0.6385	-0.2736	-0.0285	-0.0128	-0.0626	33.0317	-7.3837	0.4685	-0.4171	0.6088	-0.3787	-0.5584
1.84	-9.6431	-0.6438	-0.2720	-0.0323	-0.0086	-0.0601	33.0722	-7.4187	0.4130	-0.4170	0.6089	-0.3786	-0.5585
1.85	-9.6460	-0.6468	-0.2817	-0.0407	-0.0125	-0.0615	33.0887	-7.6244	0.3331	-0.4170	0.6090	-0.3785	-0.5585
1.86	-9.6408	-0.6573	-0.2860	-0.0291	-0.0117	-0.0610	33.0532	-7.7274	0.0511	-0.4169	0.6091	-0.3784	-0.5585
1.87	-9.6407	-0.6610	-0.2897	-0.0382	-0.0082	-0.0583	33.1127	-7.4449	0.3236	-0.4169	0.6092	-0.3784	-0.5586
1.88	-9.6402	-0.6633	-0.2892	-0.0300	-0.0086	-0.0574	33.0033	-7.4212	0.6077	-0.4168	0.6092	-0.3783	-0.5585
1.89	-9.6484	-0.6638	-0.2982	-0.0314	-0.0065	-0.0565	32.8304	-7.6083	0.2474	-0.4168	0.6093	-0.3782	-0.5586
1.9	-9.6457	-0.6710	-0.3011	-0.0291	-0.0167	-0.0477	33.0934	-7.5627	0.2760	-0.4167	0.6093	-0.3781	-0.5586
1.91	-9.6406	-0.6786	-0.2958	-0.0211	-0.0098	-0.0526	33.3025	-7.7477	0.3783	-0.4167	0.6094	-0.3781	-0.5586
1.92	-9.6614	-0.6695	-0.3025	-0.0201	-0.0146	-0.0520	33.1855	-7.7072	0.5312	-0.4167	0.6094	-0.3781	-0.5586
1.93	-9.6687	-0.6650	-0.3053	-0.0306	-0.0120	-0.0500	33.1573	-7.7158	0.2443	-0.4166	0.6094	-0.3781	-0.5587
1.94	-9.6601	-0.6554	-0.3020	-0.0248	-0.0127	-0.0530	33.1615	-7.9910	0.4056	-0.4165	0.6094	-0.3781	-0.5588
1.95	-9.6621	-0.6534	-0.3023	-0.0136	-0.0139	-0.0518	33.0453	-7.6341	0.7064	-0.4165	0.6094	-0.3781	-0.5588
1.96	-9.6575	-0.6460	-0.3059	-0.0064	-0.0152	-0.0443	33.0991	-7.5698	0.3557	-0.4165	0.6093	-0.3782	-0.5589
1.97	-9.6493	-0.6331	-0.3021	-0.0019	-0.0127	-0.0468	33.0450	-7.6040	0.3628	-0.4164	0.6092	-0.3782	-0.5588
1.98	-9.6330	-0.6205	-0.3018	-0.0084	-0.0128	-0.0441	33.2240	-7.6733	0.2539	-0.4164	0.6093	-0.3783	-0.5589
1.99	-9.6251	-0.6176	-0.2898	-0.0045	-0.0154	-0.0420	32.9010	-7.7082	0.2685	-0.4164	0.6092	-0.3783	-0.5589
2	-9.6511	-0.6087	-0.2986	-0.0104	-0.0008	-0.0484	33.0271	-7.5894	0.3081	-0.4164	0.6092	-0.3783	-0.5589
2.01	-9.6723	-0.6070	-0.3046	-0.0159	-0.0081	-0.0480	33.1978	-7.5250	0.5968	-0.4163	0.6092	-0.3784	-0.5589
2.02	-9.6778	-0.6108	-0.2941	-0.0188	-0.0085	-0.0426	33.0325	-7.4211	0.3492	-0.4162	0.6092	-0.3784	-0.5590
2.03	-9.6567	-0.6093	-0.2956	-0.0236	-0.0091	-0.0475	33.1061	-7.3377	0.2184	-0.4162	0.6092	-0.3784	-0.5590
2.04	-9.6546	-0.6032	-0.3001	-0.0269	-0.0110	-0.0478	33.0620	-7.5196	0.3627	-0.4160	0.6092	-0.3784	-0.5590
2.05	-9.6582	-0.5935	-0.2945	-0.0286	-0.0060	-0.0489	32.8898	-7.5152	0.3669	-0.4160	0.6093	-0.3785	-0.5591
2.06	-9.6424	-0.5834	-0.2892	-0.0291	-0.0103	-0.0499	33.0293	-7.7387	0.3256	-0.4159	0.6093	-0.3784	-0.5592
2.07	-9.6281	-0.5934	-0.2808	-0.0286	-0.0117	-0.0489	32.9050	-7.3782	0.2186	-0.4158	0.6093	-0.3784	-0.5592
2.08	-9.6528	-0.6153	-0.2866	-0.0291	-0.0100	-0.0516	32.9615	-7.5188	0.3934	-0.4157	0.6093	-0.3783	-0.5592
2.09	-9.6582	-0.6263	-0.2862	-0.0280	-0.0169	-0.0488	33.1592	-7.8411	0.2026	-0.4156	0.6093	-0.3783	-0.5593
2.1	-9.6598	-0.6245	-0.2656	-0.0279	-0.0187	-0.0471	33.2689	-7.6644	0.4032	-0.4156	0.6093	-0.3783	-0.5594
2.11	-9.6749	-0.6285	-0.2747	-0.0280	-0.0131	-0.0463	32.9544	-7.4437	0.4795	-0.4154	0.6093	-0.3783	-0.5595
2.12	-9.6258	-0.6346	-0.2778	-0.0285	-0.0226	-0.0460	33.1023	-7.7625	0.3350	-0.4154	0.6094	-0.3783	-0.5596
2.13	-9.5829	-0.6493	-0.2775	-0.0298	-0.0206	-0.0465	33.0635	-7.6894	0.3754	-0.4154	0.6093	-0.3781	-0.5596
2.14	-9.5877	-0.6575	-0.2845	-0.0256	-0.0131	-0.0415	33.3361	-7.5501	0.3523	-0.4153	0.6094	-0.3781	-0.5597
2.15	-9.5979	-0.6529	-0.2897	-0.0221	-0.0112	-0.0348	33.3478	-7.5984	0.3631	-0.4152	0.6093	-0.3781	-0.5597
2.16	-9.6076	-0.6331	-0.2981	-0.0122	0.0006	-0.0386	33.2619	-7.6808	0.4284	-0.4152	0.6094	-0.3782	-0.5598
2.17	-9.6033	-0.6098	-0.3034	-0.0063	-0.0026	-0.0354	33.1336	-7.6699	0.4357	-0.4151	0.6093	-0.3782	-0.5597
2.18	-9.6167	-0.5925	-0.3073	-0.0035	0.0031	-0.0397	32.8781	-7.5683	0.6140	-0.4151	0.6093	-0.3783	-0.5597
2.19	-9.6417	-0.5872	-0.3243	-0.0040	0.0101	-0.0480	33.1328	-7.7072	0.4734	-0.4151	0.6094	-0.3784	-0.5597
2.2	-9.6434	-0.5837	-0.3284	-0.0069	0.0046	-0.0488	32.9913	-7.6037	0.4020	-0.4150	0.6094	-0.3784	-0.5596
2.21	-9.6435	-0.5743	-0.3287	-0.0022	0.0011	-0.0508	32.8024	-7.5858	0.3880	-0.4151	0.6095	-0.3785	-0.5596
2.22	-9.6424	-0.5600	-0.3414	-0.0003	0.0023	-0.0551	32.7694	-7.4820	0.5040	-0.4150	0.6094	-0.3785	-0.5594
2.23	-9.6535	-0.5450	-0.3372	0.0002	0.0063	-0.0558	33.0662	-7.4987	0.5876	-0.4151	0.6095	-0.3786	-0.5594
2.24	-9.6440	-0.5374	-0.3455	-0.0206	-0.0005	-0.0516	33.0000	-7.6034	0.4802	-0.4150	0.6095	-0.3785	-0.5594
2.25	-9.6462	-0.5315	-0.3420	-0.0253	0.0015	-0.0483	33.0444	-7.5549	0.7560	-0.4150	0.6096	-0.3785	-0.5594
2.26	-9.6611	-0.5246	-0.3469	-0.0288	0.0068	-0.0485	33.0692	-7.5807	0.3434	-0.4149	0.6097	-0.3785	-0.5593
2.27	-9.6559	-0.5394	-0.3509	-0.0284	-0.0000	-0.0574	33.0893	-7.8199	0.4774	-0.4148	0.6098	-0.3785	-0.5593
2.28	-9.6638	-0.5478	-0.3500	-0.0340	0.0041	-0.0505	33.1792	-7.8389	0.4691	-0.4148	0.6099	-0.3784	-0.5593
2.29	-9.7020	-0.5606	-0.3631	-0.0305	0.0033	-0.0505	33.1437	-7.8403	0.3676	-0.4146	0.6099	-0.3784	-0.5593
2.3	-9.7218	-0.5707	-0.3630	-0.0294	-0.0028	-0.0572	33.1494	-7.8267	0.5693	-0.4146	0.6100	-0.3784	-0.5594
2.31	-9.7090	-0.5916	-0.3651	-0.0510	-0.0121	-0.0583	33.3386	-7.8567	0.5738	-0.4144	0.6101	-0.3783	-0.5594
2.32	-9.7048	-0.6070	-0.3662	-0.0426	-0.0107	-0.0572	33.2278	-7.7610	0.4273	-0.4143	0.6102	-0.3783	-0.5595
2.33	-9.7000	-0.6180	-0.3616	-0.0345	-0.0092	-0.0597	32.9279	-7.7480	0.3012	-0.4142	0.6102	-0.3781	-0.5595
2.34	-9.6925	-0.6243	-0.3553	-0.0281	-0.0221	-0.0634	33.1230	-7.7416	0.3437	-0.4142	0.6102	-0.3781	-0.5596
2.35	-9.6075	-0.6156	-0.3507	-0.0295	-0.0218	-0.0603	33.0041	-7.6079	0.4486	-0.4141	0.6102	-0.3780	-0.5597
2.36	-9.6340	-0.6217	-0.3188	-0.0348	-0.0165	-0.0570	33.2545	-7.7747	0.3177	-0.4141	0.6102	-0.3779	-0.5597
2.37	-9.7397	-0.6121	-0.3457	-0.0285	-0.0131	-0.0624	33.2358	-7.7201	0.3125	-0.4141	0.6104	-0.3779	-0.5598
2.38	-9.6375	-0.6028	-0.3329	-0.0287	-0.0322	-0.0685	32.9842	-7.6669	0.4832	-0.4140	0.6103	-0.3777	-0.5598
2.39	-9.6430	-0.6235	-0.3131	-0.0284	-0.0156	-0.0816	32.9724	-7.5956	0.4960	-0.4141	0.6104	-0.3776	-0.5599
2.4	-9.6840	-0.6244	-0.3451	-0.0285	-0.0263	-0.0782	32.9859	-7.5740	0.5171	-0.4140	0.6104	-0.3774	-0.5598
2.41	-9.6619	-0.6347	-0.3144	-0.0331	-0.0322	-0.0672	33.0681	-7.4411	0.4567	-0.4141	0.6104	-0.3773	-0.5600
2.42	-9.6397	-0.6341	-0.3174	-0.0317	-0.0300	-0.0589	33.1127	-7.4236	0.5960	-0.4140	0.6104	-0.3772	-0.5600
2.43	-9.6502	-0.6102	-0.2970	-0.0307	-0.0347	-0.0487	33.1911	-7.8232	0.4513	-0.4140	0.6104	-0.3771	-0.5602
2.44	-9.6775	-0.6021	-0.2929	-0.0272	-0.0241	-0.0594	32.9474	-7.4973	0.2854	-0.4140	0.6104	-0.3771	-0.5603
2.45	-9.6704	-0.6165	-0.2874	-0.0425	-0.0268	-0.0677	32.9905	-7.4222	0.4534	-0.4139	0.6104	-0.3769	-0.5603
2.46	-9.6583	-0.6437	-0.2792	-0.0402	-0.0318	-0.0707	33.2034	-7.6955	0.5906	-0.4139	0.6105	-0.3768	-0.5605
2.47	-9.6573	-0.6683	-0.2790	-0.0396	-0.0342	-0.0744	33.3433	-7.6286	0.5195	-0.4138	0.6104	-0.3766	-0.5605
2.48	-9.6440	-0.6823	-0.2709	-0.0385	-0.0350	-0.0783	33.3403	-7.7973	0.3826	-0.4139	0.6105	-0.3764	-0.5606
2.49	-9.6345	-0.6785	-0.2644	-0.0421	-0.0277	-0.0631	33.2985	-7.9986	0.4385	-0.4138	0.6106	-0.3762	-0.5607
2.5	-9.6374	-0.6831	-0.2619	-0.0355	-0.0281	-0.0612	33.1644	-7.7506	0.3958	-0.4138	0.6106	-0.3761	-0.5608
2.51	-9.6069	-0.6872	-0.2586	-0.0326	-0.0382	-0.0557	33.0507	-7.7587	0.4359	-0.4138	0.6106	-0.3759	-0.5609
2.52	-9.5723	-0.6948	-0.2542	-0.0283	-0.0322	-0.0508	32.9638	-7.5966	0.2327	-0.4138	0.6106	-0.3758	-0.5610
2.53	-9.5971	-0.6983	-0.2561	-0.0293	-0.0191	-0.0441	33.1593	-7.4194	0.0704	-0.4138	0.6106	-0.3758	-0.5611
2.54	-9.6146	-0.6969	-0.2577	-0.0281	-0.0118	-0.0466	32.8204	-7.6717	0.2429	-0.4137	0.6105	-0.3757	-0.5611
2.55	-9.5964	-0.6991	-0.2515	-0.0295	-0.0193	-0.0429	33.1752	-7.7720	0.3178	-0.4137	0.6106	-0.3757	-0.5612
2.56	-9.6088	-0.7075	-0.2459	-0.0231	-0.0105	-0.0436	33.1848	-7.7117	0.3381	-0.4136	0.6106	-0.3757	-0.5612
2.57	-9.6149	-0.7023	-0.2537	-0.0262	-0.0065	-0.0427	33.0074	-7.3561	0.2713	-0.4136	0.6107	-0.3757	-0.5613
2.58	-9.6199	-0.6978	-0.2511	-0.0123	0.0025	-0.0367	33.1967	-7.6080	0.4497	-0.4134	0.6106	-0.3757	-0.5612
2.59	-9.6073	-0.6916	-0.2669	-0.0016	0.0008	-0.0393	32.8891	-7.5327	0.5802	-0.4134	0.6107	-0.3758	-0.5612
2.6	-9.6065	-0.6767	-0.2597	0.0034	0.0032	-0.0324	32.9176	-7.4857	0.3131	-0.4134	0.6107	-0.3759	-0.5612
2.61	-9.6219	-0.6569	-0.2717	0.0080	0.0062	-0.0347	33.1083	-7.4584	0.5490	-0.4134	0.6106	-0.3760	-0.5611
2.62	-9.6275	-0.6330	-0.2696	0.0024	0.0136	-0.0420	32.9162	-7.6349	0.3468	-0.4134	0.6107	-0.3762	-0.5611
2.63	-9.6601	-0.6205	-0.2753	0.0097	0.0149	-0.0432	32.9551	-7.7363	0.6458	-0.4133	0.6107	-0.3762	-0.5609
2.64	-9.6699	-0.6047	-0.2908	0.0173	0.0082	-0.0418	33.3666	-7.4169	0.6480	-0.4134	0.6107	-0.3764	-0.5609
2.65	-9.6790	-0.5891	-0.2767	0.0110	0.0022	-0.0439	33.3220	-7.6809	0.4101	-0.4134	0.6106	-0.3765	-0.5607
2.66	-9.6992	-0.5814	-0.2893	0.0211	0.0049	-0.0361	33.2809	-7.7010	0.2586	-0.4134	0.6106	-0.3767	-0.5607
2.67	-9.6922	-0.5684	-0.2866	0.0098	-0.0011	-0.0389	33.2423	-7.6565	0.4199	-0.4134	0.6106	-0.3768	-0.5606
2.68	-9.6685	-0.5589	-0.2886	-0.0009	-0.0040	-0.0409	32.9745	-7.7367	0.4143	-0.4134	0.6105	-0.3769	-0.5606
2.69	-9.6483	-0.5553	-0.2898	-0.0067	-0.0090	-0.0443	32.9124	-7.6905	0.2727	-0.4133	0.6105	-0.3770	-0.5607
2.7	-9.6402	-0.5525	-0.2919	-0.0042	-0.0018	-0.0459	32.9384	-7.5925	0.3906	-0.4133	0.6105	-0.3770	-0.5606
2.71	-9.6284	-0.5564	-0.2939	-0.0050	0.0008	-0.0479	33.1117	-7.6055	0.2101	-0.4133	0.6106	-0.3771	-0.5606
2.72	-9.6282	-0.5525	-0.2920	-0.0177	0.0033	-0.0510	33.0043	-7.6862	0.4973	-0.4132	0.6105	-0.3770	-0.5605
2.73	-9.6526	-0.5557	-0.2915	-0.0175	0.0048	-0.0554	33.1206	-7.8137	0.4673	-0.4133	0.6107	-0.3771	-0.5605
2.74	-9.6743	-0.5648	-0.2949	-0.0275	0.0117	-0.0498	33.0691	-7.5883	0.4724	-0.4131	0.6108	-0.3770	-0.5605
2.75	-9.6602	-0.5747	-0.2970	-0.0301	0.0030	-0.0538	32.9157	-7.4153	0.4642	-0.4130	0.6108	-0.3771	-0.5605
2.76	-9.6447	-0.5831	-0.2945	-0.0335	-0.0041	-0.0587	32.9284	-7.5300	0.4656	-0.4130	0.6109	-0.3770	-0.5605
2.77	-9.6421	-0.5943	-0.3041	-0.0357	0.0039	-0.0539	32.9073	-7.6466	0.4756	-0.4129	0.6110	-0.3769	-0.5605
2.78	-9.6325	-0.6128	-0.3074	-0.0352	0.0012	-0.0587	32.9719	-7.5442	0.4535	-0.4128	0.6111	-0.3769	-0.5605
2.79	-9.6392	-0.6245	-0.3100	-0.0301	0.0066	-0.0568	33.0527	-7.4912	0.5450	-0.4127	0.6112	-0.3768	-0.5604
2.8	-9.6308	-0.6328	-0.3245	-0.0336	0.0124	-0.0582	32.8547	-7.7513	0.6934	-0.4127	0.6114	-0.3768	-0.5604
2.81	-9.6229	-0.6416	-0.3246	-0.0327	0.0092	-0.0578	32.8865	-7.6375	0.4502	-0.4126	0.6115	-0.3767	-0.5603
2.82	-9.6252	-0.6452	-0.3401	-0.0300	0.0148	-0.0570	33.1473	-7.5974	0.5692	-0.4125	0.6117	-0.3767	-0.5603
2.83	-9.6131	-0.6504	-0.3398	-0.0289	0.0074	-0.0514	32.9768	-7.6127	0.4488	-0.4124	0.6117	-0.3766	-0.5602
2.84	-9.6380	-0.6528	-0.3425	-0.0295	0.0225	-0.0562	33.1622	-7.6086	0.6352	-0.4123	0.6119	-0.3766	-0.5602
2.85	-9.6614	-0.6505	-0.3540	-0.0291	0.0121	-0.0485	32.9846	-7.7832	0.6047	-0.4122	0.6120	-0.3766	-0.5601
2.86	-9.6577	-0.6411	-0.3540	-0.0251	0.0105	-0.0550	32.8503	-7.7714	0.5644	-0.4121	0.6120	-0.3766	-0.5601
2.87	-9.6759	-0.6331	-0.3546	-0.0194	0.0059	-0.0516	33.2855	-7.9007	0.4474	-0.4121	0.6122	-0.3767	-0.5601
2.88	-9.7000	-0.6258	-0.3629	-0.0193	0.0021	-0.0554	33.2049	-7.8190	0.5405	-0.4119	0.6122	-0.3767	-0.5600
2.89	-9.6744	-0.6160	-0.3671	-0.0207	-0.0001	-0.0477	32.7891	-7.5629	0.5114	-0.4119	0.6122	-0.3767	-0.5601
2.9	-9.6365	-0.6114	-0.3589	-0.0189	-0.0061	-0.0567	32.9380	-7.7292	0.3813	-0.4118	0.6122	-0.3767	-0.5600
2.91	-9.6319	-0.6076	-0.3691	-0.0164	-0.0057	-0.0490	33.1241	-7.7698	0.2249	-0.4118	0.6123	-0.3767	-0.5601
2.92	-9.6354	-0.6018	-0.3713	-0.0148	0.0012	-0.0411	32.9225	-7.8384	0.4466	-0.4117	0.6123	-0.3767	-0.5600
2.93	-9.6205	-0.5937	-0.3810	-0.0169	0.0036	-0.0422	32.9180	-7.5963	0.6920	-0.4117	0.6123	-0.3767	-0.5600
2.94	-9.6115	-0.5930	-0.3856	-0.0235	0.0009	-0.0524	32.9249	-7.6399	0.5509	-0.4116	0.6124	-0.3767	-0.5600
2.95	-9.6241	-0.5870	-0.3927	-0.0190	0.0152	-0.0528	33.0495	-7.7815	0.6702	-0.4116	0.6125	-0.3767	-0.5599
2.96	-9.6426	-0.5891	-0.3977	-0.0154	0.0135	-0.0557	33.1753	-7.4677	0.4844	-0.4115	0.6126	-0.3768	-0.5599
2.97	-9.6861	-0.5931	-0.3994	-0.0272	0.0143	-0.0582	33.2066	-7.6117	0.7739	-0.4114	0.6127	-0.3767	-0.5597
2.98	-9.7272	-0.5956	-0.4071	-0.0233	0.0038	-0.0569	33.0613	-7.7283	0.7420	-0.4114	0.6128	-0.3767	-0.5598
2.99	-9.7188	-0.5937	-0.4040	-0.0258	-0.0063	-0.0581	32.9774	-7.7836	0.4074	-0.4113	0.6128	-0.3767	-0.5598
3	-9.7354	-0.5899	-0.3989	-0.0270	-0.0069	-0.0572	32.8092	-7.5775	0.4199	-0.4112	0.6129	-0.3767	-0.5598
3.01	-9.7390	-0.5893	-0.4067	-0.0298	-0.0135	-0.0561	32.9455	-7.7182	0.6017	-0.4111	0.6129	-0.3766	-0.5598
3.02	-9.6744	-0.5921	-0.3869	-0.0283	-0.0306	-0.0596	33.0088	-7.7981	0.6612	-0.4111	0.6129	-0.3766	-0.5599
3.03	-9.7143	-0.6147	-0.3809	-0.0298	-0.0221	-0.0572	33.0634	-7.5805	0.4543	-0.4111	0.6129	-0.3765	-0.5600
3.04	-9.6952	-0.6272	-0.4002	-0.0296	-0.0239	-0.0511	33.1189	-7.7041	0.5610	-0.4110	0.6129	-0.3764	-0.5600
3.05	-9.6492	-0.6259	-0.3554	-0.0278	-0.0322	-0.0567	33.0852	-7.7775	0.5729	-0.4110	0.6129	-0.3764	-0.5602
3.06	-9.6954	-0.6345	-0.3743	-0.0294	-0.0174	-0.0457	32.9648	-7.6793	0.4020	-0.4109	0.6129	-0.3763	-0.5603
3.07	-9.6773	-0.6310	-0.3717	-0.0280	-0.0322	-0.0458	33.1151	-7.6870	0.6359	-0.4108	0.6129	-0.3763	-0.5604
3.08	-9.6156	-0.6352	-0.3531	-0.0296	-0.0356	-0.0495	32.9929	-7.7930	0.6856	-0.4108	0.6128	-0.3762	-0.5605
3.09	-9.6013	-0.6478	-0.3564	-0.0267	-0.0294	-0.0448	33.0331	-7.8814	0.3814	-0.4108	0.6128	-0.3761	-0.5606
3.1	-9.6121	-0.6475	-0.3549	-0.0281	-0.0337	-0.0415	33.1320	-7.7092	0.4259	-0.4107	0.6128	-0.3760	-0.5607
3.11	-9.6116	-0.6327	-0.3543	-0.0249	-0.0272	-0.0408	33.0255	-7.6195	0.5662	-0.4107	0.6127	-0.3760	-0.5608
3.12	-9.5954	-0.6161	-0.3455	-0.0074	-0.0268	-0.0406	32.8804	-7.5941	0.5654	-0.4107	0.6127	-0.3760	-0.5609
3.13	-9.5855	-0.5931	-0.3432	-0.0044	-0.0125	-0.0460	33.0063	-7.6290	0.7007	-0.4107	0.6126	-0.3760	-0.5609
3.14	-9.5927	-0.5785	-0.3549	-0.0024	-0.0073	-0.0551	33.3943	-7.5439	0.8190	-0.4108	0.6127	-0.3760	-0.5609
3.15	-9.5965	-0.5748	-0.3541	-0.0066	-0.0092	-0.0521	33.3559	-7.4153	0.9361	-0.4107	0.6126	-0.3760	-0.5608
3.16	-9.6106	-0.5731	-0.3562	-0.0126	-0.0013	-0.0562	33.3031	-7.4478	0.8124	-0.4108	0.6127	-0.3760	-0.5608
3.17	-9.6291	-0.5577	-0.3544	-0.0169	-0.0053	-0.0628	33.0939	-7.4122	0.8333	-0.4108	0.6128	-0.3760	-0.5607
3.18	-9.6547	-0.5467	-0.3556	-0.0250	-0.0069	-0.0605	32.8645	-7.3389	0.6292	-0.4108	0.6128	-0.3759	-0.5607
3.19	-9.6822	-0.5405	-0.3580	-0.0260	-0.0087	-0.0594	33.1002	-7.5259	0.9233	-0.4107	0.6129	-0.3758	-0.5608
3.2	-9.6828	-0.5364	-0.3641	-0.0272	-0.0132	-0.0596	32.9910	-7.6042	0.8043	-0.4107	0.6129	-0.3757	-0.5607
3.21	-9.6770	-0.5443	-0.3591	-0.0343	-0.0195	-0.0621	32.9389	-7.8004	0.7968	-0.4107	0.6130	-0.3756	-0.5608
3.22	-9.6662	-0.5490	-0.3639	-0.0352	-0.0165	-0.0712	33.0090	-7.9532	0.6742	-0.4107	0.6130	-0.3754	-0.5608
3.23	-9.6664	-0.5625	-0.3636	-0.0486	-0.0177	-0.0705	33.3132	-8.0359	0.7372	-0.4106	0.6132	-0.3753	-0.5609
3.24	-9.6622	-0.5745	-0.3675	-0.0534	-0.0126	-0.0683	33.2298	-7.8481	0.7455	-0.4105	0.6132	-0.3752	-0.5609
3.25	-9.6612	-0.5909	-0.3663	-0.0562	-0.0160	-0.0715	33.3090	-7.8804	0.3962	-0.4104	0.6134	-0.3750	-0.5610
3.26	-9.6722	-0.6022	-0.3692	-0.0548	-0.0171	-0.0707	33.1984	-7.6350	0.4044	-0.4103	0.6134	-0.3748	-0.5611
3.27	-9.6771	-0.6242	-0.3741	-0.0544	-0.0185	-0.0668	33.1514	-7.7288	0.5711	-0.4102	0.6136	-0.3747	-0.5612
3.28	-9.6614	-0.6387	-0.3627	-0.0610	-0.0255	-0.0713	33.0046	-7.7250	0.5548	-0.4101	0.6137	-0.3745	-0.5613
3.29	-9.6584	-0.6582	-0.3765	-0.0613	-0.0237	-0.0659	32.9970	-7.6461	0.4579	-0.4099	0.6137	-0.3743	-0.5614
3.3	-9.5647	-0.6630	-0.3602	-0.0581	-0.0333	-0.0630	33.1753	-7.6969	0.6525	-0.4099	0.6138	-0.3741	-0.5616
3.31	-9.6587	-0.6801	-0.3470	-0.0568	-0.0078	-0.0587	33.1101	-7.6431	0.5165	-0.4098	0.6139	-0.3739	-0.5616
3.32	-9.6976	-0.6762	-0.3887	-0.0546	-0.0110	-0.0699	33.1491	-7.4916	0.5375	-0.4097	0.6141	-0.3738	-0.5617
3.33	-9.5612	-0.6824	-0.3395	-0.0536	-0.0349	-0.0749	33.1232	-7.5770	0.8137	-0.4096	0.6141	-0.3735	-0.5617
3.34	-9.5946	-0.7126	-0.3612	-0.0555	-0.0113	-0.0748	33.1384	-7.7239	0.5101	-0.4096	0.6142	-0.3733	-0.5618
3.35	-9.6347	-0.7219	-0.3813	-0.0503	-0.0080	-0.0676	33.1146	-7.5833	0.5266	-0.4095	0.6144	-0.3731	-0.5618
3.36	-9.6457	-0.7214	-0.3653	-0.0320	-0.0059	-0.0586	32.8532	-7.3077	0.7104	-0.4094	0.6144	-0.3730	-0.5618
3.37	-9.6349	-0.7084	-0.3812	-0.0315	-0.0104	-0.0590	32.8782	-7.4143	0.6360	-0.4094	0.6146	-0.3730	-0.5619
3.38	-9.6511	-0.6817	-0.3696	-0.0228	-0.0139	-0.0472	33.1188	-7.7155	0.6300	-0.4094	0.6145	-0.3729	-0.5619
3.39	-9.6954	-0.6577	-0.3780	-0.0126	-0.0063	-0.0550	32.6986	-7.5276	0.6689	-0.4094	0.6146	-0.3729	-0.5619
3.4	-9.6760	-0.6417	-0.3757	-0.0132	-0.0173	-0.0570	33.1700	-7.4882	0.3690	-0.4093	0.6145	-0.3729	-0.5618
3.41	-9.6814	-0.6501	-0.3681	-0.0069	-0.0191	-0.0621	33.2052	-7.7068	0.4273	-0.4094	0.6145	-0.3729	-0.5619
3.42	-9.7011	-0.6469	-0.3839	-0.0167	-0.0196	-0.0654	33.1241	-7.6995	0.5854	-0.4094	0.6145	-0.3729	-0.5619
3.43	-9.6844	-0.6351	-0.3646	-0.0143	-0.0219	-0.0703	33.0513	-7.8068	0.5532	-0.4094	0.6145	-0.3728	-0.5619
3.44	-9.6909	-0.6264	-0.3573	-0.0117	-0.0272	-0.0651	33.1379	-7.6385	0.2585	-0.4094	0.6145	-0.3727	-0.5620
3.45	-9.6946	-0.6096	-0.3602	-0.0139	-0.0328	-0.0596	33.1172	-7.7082	0.5228	-0.4094	0.6145	-0.3727	-0.5620
3.46	-9.6800	-0.6055	-0.3454	-0.0285	-0.0343	-0.0533	33.1945	-7.6032	0.6230	-0.4094	0.6145	-0.3726	-0.5622
3.47	-9.6587	-0.6064	-0.3411	-0.0275	-0.0371	-0.0574	33.2472	-7.5674	0.5771	-0.4094	0.6144	-0.3725	-0.5622
3.48	-9.6432	-0.6178	-0.3356	-0.0376	-0.0386	-0.0569	32.9866	-7.7124	0.4997	-0.4094	0.6144	-0.3724	-0.5624
3.49	-9.6426	-0.6274	-0.3289	-0.0346	-0.0391	-0.0562	33.0909	-7.4714	0.6515	-0.4094	0.6144	-0.3722	-0.5625
3.5	-9.6377	-0.6417	-0.3295	-0.0405	-0.0389	-0.0573	32.9445	-7.6042	0.4282	-0.4093	0.6144	-0.3721	-0.5626
3.51	-9.6287	-0.6616	-0.3241	-0.0453	-0.0394	-0.0582	32.9720	-7.4747	0.3793	-0.4093	0.6144	-0.3719	-0.5627
3.52	-9.6323	-0.6735	-0.3234	-0.0470	-0.0325	-0.0523	32.9183	-7.4296	0.4399	-0.4093	0.6144	-0.3717	-0.5629
3.53	-9.6370	-0.6852	-0.3163	-0.0471	-0.0335	-0.0588	32.8465	-7.5044	0.5311	-0.4092	0.6145	-0.3716	-0.5630
3.54	-9.6312	-0.6917	-0.3214	-0.0398	-0.0298	-0.0585	32.9256	-7.2589	0.3875	-0.4091	0.6144	-0.3714	-0.5630
3.55	-9.6172	-0.6966	-0.3162	-0.0385	-0.0310	-0.0542	33.1184	-7.5949	0.5166	-0.4092	0.6145	-0.3713	-0.5632
3.56	-9.6092	-0.6930	-0.3091	-0.0269	-0.0274	-0.0596	33.0532	-7.5083	0.6528	-0.4091	0.6145	-0.3711	-0.5632
3.57	-9.6263	-0.6967	-0.3125	-0.0296	-0.0216	-0.0570	32.9141	-7.3434	0.6986	-0.4092	0.6146	-0.3711	-0.5634
3.58	-9.6158	-0.6912	-0.3124	-0.0281	-0.0254	-0.0611	33.0504	-7.6298	0.5921	-0.4091	0.6145	-0.3709	-0.5633
3.59	-9.6302	-0.6901	-0.3046	-0.0196	-0.0251	-0.0640	33.0734	-7.5550	0.4470	-0.4092	0.6146	-0.3708	-0.5634
3.6	-9.6393	-0.6817	-0.3146	-0.0078	-0.0171	-0.0564	33.3220	-7.6499	0.2266	-0.4092	0.6145	-0.3708	-0.5634
3.61	-9.6240	-0.6727	-0.3093	-0.0154	-0.0206	-0.0591	33.3190	-7.6938	0.5392	-0.4092	0.6145	-0.3707	-0.5634
3.62	-9.6418	-0.6719	-0.3030	-0.0080	-0.0264	-0.0579	33.1919	-7.5622	0.4539	-0.4093	0.6146	-0.3707	-0.5635
3.63	-9.6522	-0.6568	-0.3047	-0.0128	-0.0193	-0.0566	33.1465	-7.6052	0.6031	-0.4093	0.6145	-0.3706	-0.5634
3.64	-9.6401	-0.6523	-0.3037	-0.0145	-0.0226	-0.0537	33.5134	-7.5540	0.6793	-0.4094	0.6145	-0.3706	-0.5635
3.65	-9.6352	-0.6449	-0.3000	-0.0233	-0.0228	-0.0510	33.4760	-7.6989	0.3806	-0.4093	0.6145	-0.3705	-0.5635
3.66	-9.6409	-0.6422	-0.3068	-0.0254	-0.0154	-0.0577	33.2895	-7.5811	0.4139	-0.4093	0.6145	-0.3704	-0.5636
3.67	-9.6341	-0.6418	-0.3051	-0.0245	-0.0162	-0.0574	33.0395	-7.5710	0.3854	-0.4093	0.6146	-0.3703	-0.5636
3.68	-9.6317	-0.6434	-0.3080	-0.0283	-0.0170	-0.0557	32.9233	-7.5663	0.2687	-0.4093	0.6146	-0.3702	-0.5636
3.69	-9.6355	-0.6537	-0.3169	-0.0294	-0.0193	-0.0568	33.1719	-7.4919	0.4028	-0.4093	0.6146	-0.3702	-0.5637
3.7	-9.6308	-0.6556	-0.3139	-0.0292	-0.0253	-0.0550	33.0608	-7.6442	0.4681	-0.4093	0.6146	-0.3700	-0.5637
3.71	-9.6338	-0.6590	-0.3215	-0.0291	-0.0117	-0.0529	33.0167	-7.5201	0.5307	-0.4092	0.6147	-0.3700	-0.5638
3.72	-9.6471	-0.6680	-0.3254	-0.0298	-0.0074	-0.0534	33.4296	-7.4252	0.5738	-0.4091	0.6147	-0.3699	-0.5637
3.73	-9.6616	-0.6853	-0.3312	-0.0290	-0.0060	-0.0507	33.2253	-7.3894	0.4493	-0.4091	0.6148	-0.3699	-0.5638
3.74	-9.6653	-0.6928	-0.3341	-0.0293	-0.0123	-0.0469	33.0828	-7.3213	0.2806	-0.4090	0.6148	-0.3698	-0.5638
3.75	-9.6613	-0.7008	-0.3295	-0.0297	-0.0209	-0.0488	33.1243	-7.3204	0.3482	-0.4090	0.6149	-0.3698	-0.5639
3.76	-9.6797	-0.7083	-0.3294	-0.0261	-0.0138	-0.0445	33.1182	-7.4305	0.4734	-0.4089	0.6148	-0.3698	-0.5640
3.77	-9.6682	-0.7117	-0.3353	-0.0232	-0.0258	-0.0387	33.0855	-7.6470	0.2359	-0.4088	0.6148	-0.3698	-0.5641
3.78	-9.6619	-0.7097	-0.3298	-0.0257	-0.0294	-0.0421	33.2099	-7.5597	0.3073	-0.4087	0.6148	-0.3698	-0.5642
3.79	-9.6637	-0.7058	-0.3369	-0.0133	-0.0263	-0.0435	33.4224	-7.6279	0.2662	-0.4086	0.6147	-0.3697	-0.5642
3.8	-9.6584	-0.6944	-0.3274	-0.0060	-0.0281	-0.0460	33.2451	-7.5431	0.5082	-0.4087	0.6147	-0.3698	-0.5644
3.81	-9.6621	-0.6862	-0.3176	-0.0091	-0.0225	-0.0423	33.0354	-7.6922	0.3027	-0.4086	0.6146	-0.3698	-0.5644
3.82	-9.6658	-0.6663	-0.3180	-0.0014	-0.0334	-0.0406	33.0208	-7.5524	0.5114	-0.4087	0.6145	-0.3699	-0.5645
3.83	-9.6646	-0.6517	-0.3043	-0.0035	-0.0280	-0.0507	33.0159	-7.3993	0.2443	-0.4087	0.6144	-0.3699	-0.5645
3.84	-9.6866	-0.6431	-0.3063	-0.0032	-0.0335	-0.0483	33.2765	-7.6378	0.3277	-0.4087	0.6143	-0.3699	-0.5646
3.85	-9.6898	-0.6304	-0.2969	-0.0012	-0.0346	-0.0572	33.2657	-7.4202	0.3831	-0.4088	0.6142	-0.3699	-0.5647
3.86	-9.6681	-0.6246	-0.2974	-0.0027	-0.0409	-0.0500	33.0844	-7.6592	0.3957	-0.4088	0.6141	-0.3698	-0.5647
3.87	-9.6402	-0.6121	-0.2897	-0.0038	-0.0407	-0.0481	33.1428	-7.3315	0.2344	-0.4089	0.6141	-0.3699	-0.5649
3.88	-9.6492	-0.5985	-0.2811	-0.0102	-0.0326	-0.0497	33.0643	-7.4098	0.2227	-0.4089	0.6139	-0.3698	-0.5649
3.89	-9.6354	-0.5952	-0.2800	-0.0234	-0.0355	-0.0522	33.0140	-7.5535	0.5220	-0.4089	0.6139	-0.3697	-0.5650
3.9	-9.6129	-0.6093	-0.2578	-0.0270	-0.0339	-0.0500	33.0147	-7.4076	0.3410	-0.4089	0.6138	-0.3696	-0.5650
3.91	-9.6682	-0.6324	-0.2752	-0.0267	-0.0246	-0.0490	33.1618	-7.4042	0.4010	-0.4089	0.6139	-0.3696	-0.5652
3.92	-9.6581	-0.6468	-0.2707	-0.0289	-0.0367	-0.0512	33.1911	-7.4724	0.5052	-0.4088	0.6138	-0.3695	-0.5653
3.93	-9.6581	-0.6511	-0.2474	-0.0330	-0.0409	-0.0498	32.9956	-7.5203	0.3684	-0.4088	0.6138	-0.3694	-0.5654
3.94	-9.6972	-0.6549	-0.2648	-0.0343	-0.0292	-0.0481	33.0461	-7.4250	0.4701	-0.4087	0.6138	-0.3693	-0.5656
3.95	-9.6539	-0.6698	-0.2524	-0.0282	-0.0439	-0.0474	33.1288	-7.3674	0.4698	-0.4087	0.6137	-0.3692	-0.5657
3.96	-9.6128	-0.6891	-0.2464	-0.0286	-0.0413	-0.0465	33.1040	-7.3677	0.4530	-0.4087	0.6137	-0.3691	-0.5658
3.97	-9.6094	-0.6978	-0.2564	-0.0306	-0.0391	-0.0408	33.1855	-7.5105	0.4861	-0.4086	0.6136	-0.3690	-0.5659
3.98	-9.6174	-0.7014	-0.2493	-0.0246	-0.0343	-0.0456	33.2354	-7.5306	0.4387	-0.4086	0.6136	-0.3690	-0.5661
3.99	-9.6090	-0.6939	-0.2457	-0.0193	-0.0349	-0.0430	33.1355	-7.7473	0.2006	-0.4086	0.6135	-0.3689	-0.5662
4	-9.5958	-0.6853	-0.2490	-0.0207	-0.0308	-0.0392	33.3981	-7.5960	0.1787	-0.4086	0.6135	-0.3689	-0.5663
4.01	-9.5907	-0.6628	-0.2439	-0.0041	-0.0283	-0.0434	33.2593	-7.4990	0.3015	-0.4086	0.6134	-0.3688	-0.5663
4.02	-9.6096	-0.6431	-0.2470	-0.0033	-0.0181	-0.0427	32.9856	-7.3899	0.3842	-0.4086	0.6133	-0.3689	-0.5663
4.03	-9.6151	-0.6388	-0.2471	-0.0028	-0.0167	-0.0535	33.1805	-7.4652	0.1787	-0.4087	0.6133	-0.3689	-0.5664
4.04	-9.6041	-0.6322	-0.2427	-0.0031	-0.0110	-0.0590	32.9992	-7.6186	0.2016	-0.4087	0.6133	-0.3688	-0.5663
4.05	-9.6080	-0.6201	-0.2449	-0.0024	-0.0129	-0.0567	33.0273	-7.5677	0.2790	-0.4088	0.6134	-0.3689	-0.5663
4.06	-9.6272	-0.5995	-0.2460	-0.0008	-0.0097	-0.0625	32.8868	-7.5117	0.3211	-0.4089	0.6133	-0.3688	-0.5662
4.07	-9.6459	-0.5875	-0.2522	-0.0033	-0.0067	-0.0573	33.0193	-7.7043	0.4225	-0.4089	0.6134	-0.3689	-0.5662
4.08	-9.6317	-0.5826	-0.2513	-0.0063	-0.0120	-0.0544	33.0269	-7.5975	0.1719	-0.4089	0.6133	-0.3688	-0.5661
4.09	-9.6369	-0.5804	-0.2511	-0.0227	-0.0103	-0.0562	33.1306	-7.4564	0.3095	-0.4089	0.6134	-0.3688	-0.5662
4.1	-9.6487	-0.5856	-0.2599	-0.0273	-0.0068	-0.0541	33.1067	-7.4154	0.2697	-0.4089	0.6135	-0.3687	-0.5662
4.11	-9.6388	-0.5929	-0.2681	-0.0270	-0.0058	-0.0623	33.1216	-7.4035	0.2867	-0.4088	0.6135	-0.3686	-0.5661
4.12	-9.6397	-0.6035	-0.2671	-0.0294	-0.0050	-0.0653	33.0080	-7.5443	0.2777	-0.4089	0.6137	-0.3686	-0.5662
4.13	-9.6584	-0.6109	-0.2831	-0.0278	-0.0001	-0.0595	33.1838	-7.5860	0.4415	-0.4088	0.6137	-0.3685	-0.5661
4.14	-9.6801	-0.6309	-0.2743	-0.0385	-0.0100	-0.0610	33.4481	-7.4152	0.4893	-0.4088	0.6138	-0.3684	-0.5662
4.15	-9.6966	-0.6525	-0.2740	-0.0365	-0.0133	-0.0553	33.5761	-7.4003	0.3740	-0.4086	0.6138	-0.3682	-0.5661
4.16	-9.6855	-0.6701	-0.2850	-0.0404	-0.0173	-0.0560	33.3698	-7.5110	0.2965	-0.4086	0.6139	-0.3682	-0.5663
4.17	-9.6944	-0.6865	-0.2816	-0.0392	-0.0196	-0.0589	33.0934	-7.4638	0.2072	-0.4085	0.6139	-0.3681	-0.5663
4.18	-9.6187	-0.6921	-0.2902	-0.0318	-0.0270	-0.0446	33.1429	-7.4694	0.2515	-0.4084	0.6139	-0.3680	-0.5664
4.19	-9.6423	-0.6942	-0.2521	-0.0298	-0.0164	-0.0472	33.3412	-7.6868	0.1271	-0.4084	0.6140	-0.3680	-0.5665
4.2	-9.7370	-0.6918	-0.2918	-0.0277	-0.0117	-0.0593	33.1618	-7.6326	0.0302	-0.4083	0.6140	-0.3679	-0.5665
4.21	-9.6310	-0.6843	-0.2707	-0.0279	-0.0361	-0.0519	33.0617	-7.6699	0.0734	-0.4083	0.6140	-0.3678	-0.5666
4.22	-9.6118	-0.7122	-0.2503	-0.0232	-0.0173	-0.0596	33.0111	-7.5732	0.0225	-0.4083	0.6139	-0.3677	-0.5666
4.23	-9.6554	-0.7173	-0.2813	-0.0143	-0.0146	-0.0536	33.1768	-7.4327	0.2034	-0.4083	0.6140	-0.3677	-0.5667
4.24	-9.6695	-0.7068	-0.2637	-0.0211	-0.0182	-0.0411	33.0510	-7.5399	0.2010	-0.4082	0.6140	-0.3677	-0.5667
4.25	-9.6449	-0.6875	-0.2712	-0.0072	-0.0245	-0.0357	32.8057	-7.5650	0.1045	-0.4082	0.6139	-0.3678	-0.5668
4.26	-9.6561	-0.6498	-0.2511	-0.0039	-0.0196	-0.0346	33.0838	-7.5794	0.2579	-0.4081	0.6138	-0.3678	-0.5668
4.27	-9.6952	-0.6276	-0.2572	-0.0036	-0.0172	-0.0426	33.1157	-7.5107	0.3584	-0.4081	0.6138	-0.3679	-0.5669
4.28	-9.6829	-0.6101	-0.2496	0.0056	-0.0276	-0.0494	32.9783	-7.3150	0.2545	-0.4082	0.6137	-0.3680	-0.5669
4.29	-9.6640	-0.6113	-0.2397	-0.0010	-0.0197	-0.0555	32.8406	-7.5209	0.2250	-0.4082	0.6136	-0.3680	-0.5669
4.3	-9.6626	-0.6141	-0.2448	-0.0037	-0.0177	-0.0628	32.9872	-7.3287	0.1295	-0.4082	0.6137	-0.3680	-0.5670
4.31	-9.6496	-0.6001	-0.2334	-0.0016	-0.0193	-0.0602	33.1972	-7.4732	0.1442	-0.4083	0.6136	-0.3680	-0.5669
4.32	-9.6394	-0.5882	-0.2266	-0.0104	-0.0306	-0.0531	33.0249	-7.4017	0.1382	-0.4084	0.6136	-0.3679	-0.5670
4.33	-9.6366	-0.5816	-0.2138	-0.0080	-0.0334	-0.0569	33.0608	-7.3850	0.1421	-0.4084	0.6135	-0.3678	-0.5670
4.34	-9.6407	-0.5790	-0.2141	-0.0213	-0.0224	-0.0526	32.9976	-7.6034	0.1398	-0.4084	0.6135	-0.3678	-0.5671
4.35	-9.6342	-0.5808	-0.2020	-0.0264	-0.0293	-0.0515	33.1464	-7.5512	0.1512	-0.4084	0.6135	-0.3677	-0.5671
4.36	-9.6282	-0.5888	-0.2040	-0.0335	-0.0223	-0.0571	33.3157	-7.5616	0.1337	-0.4084	0.6135	-0.3676	-0.5672
4.37	-9.6310	-0.6007	-0.2076	-0.0350	-0.0207	-0.0566	33.3253	-7.4799	0.1640	-0.4084	0.6136	-0.3675	-0.5673
4.38	-9.6318	-0.6173	-0.2094	-0.0417	-0.0205	-0.0494	33.1041	-7.7089	0.1014	-0.4083	0.6136	-0.3673	-0.5673
4.39	-9.6254	-0.6411	-0.2071	-0.0521	-0.0129	-0.0619	33.0485	-7.5871	0.0351	-0.4082	0.6137	-0.3672	-0.5674
4.4	-9.6217	-0.6558	-0.2103	-0.0523	-0.0093	-0.0605	33.3394	-7.4487	0.0558	-0.4081	0.6138	-0.3670	-0.5674
4.41	-9.6137	-0.6703	-0.2103	-0.0476	-0.0134	-0.0519	33.2976	-7.5156	0.0569	-0.4080	0.6139	-0.3669	-0.5675
4.42	-9.6124	-0.6810	-0.2129	-0.0496	-0.0150	-0.0587	33.2933	-7.5347	0.2032	-0.4079	0.6140	-0.3668	-0.5676
4.43	-9.6216	-0.6895	-0.2175	-0.0398	-0.0130	-0.0575	33.0503	-7.4401	0.0179	-0.4078	0.6140	-0.3666	-0.5676
4.44	-9.6221	-0.7017	-0.2160	-0.0358	-0.0038	-0.0584	32.9231	-7.5022	0.1778	-0.4078	0.6142	-0.3666	-0.5676
4.45	-9.6281	-0.7092	-0.2248	-0.0336	-0.0039	-0.0556	32.9862	-7.5783	0.2296	-0.4077	0.6142	-0.3665	-0.5676
4.46	-9.6200	-0.7093	-0.2245	-0.0270	-0.0040	-0.0577	33.0733	-7.5281	0.0554	-0.4077	0.6143	-0.3664	-0.5676
4.47	-9.6232	-0.7115	-0.2232	-0.0282	-0.0101	-0.0582	32.9386	-7.3431	0.0308	-0.4076	0.6143	-0.3663	-0.5676
4.48	-9.6447	-0.7126	-0.2320	-0.0284	0.0008	-0.0535	32.9496	-7.5545	0.0801	-0.4076	0.6145	-0.3663	-0.5676
4.49	-9.6406	-0.7109	-0.2404	-0.0190	0.0036	-0.0507	33.1253	-7.3306	0.3084	-0.4075	0.6145	-0.3663	-0.5676
4.5	-9.6341	-0.7018	-0.2407	-0.0111	-0.0001	-0.0457	33.0772	-7.3757	0.1039	-0.4075	0.6146	-0.3663	-0.5676
4.51	-9.6486	-0.6890	-0.2387	-0.0088	0.0002	-0.0476	32.9189	-7.2825	0.2680	-0.4075	0.6146	-0.3663	-0.5675
4.52	-9.6603	-0.6820	-0.2504	-0.0096	-0.0040	-0.0480	32.9815	-7.3586	0.0467	-0.4075	0.6146	-0.3663	-0.5675
4.53	-9.6540	-0.6780	-0.2544	-0.0115	-0.0005	-0.0465	33.0966	-7.7157	0.1228	-0.4075	0.6146	-0.3664	-0.5675
4.54	-9.6577	-0.6727	-0.2533	-0.0059	0.0017	-0.0430	33.2218	-7.5345	0.1488	-0.4074	0.6146	-0.3664	-0.5674
4.55	-9.6797	-0.6627	-0.2509	-0.0077	-0.0040	-0.0423	33.2119	-7.5790	0.0579	-0.4074	0.6147	-0.3665	-0.5674
4.56	-9.6662	-0.6528	-0.2543	-0.0021	-0.0091	-0.0406	33.2399	-7.6903	0.1568	-0.4073	0.6146	-0.3666	-0.5674
4.57	-9.6545	-0.6475	-0.2540	-0.0099	-0.0109	-0.0416	33.3674	-7.5610	0.2105	-0.4073	0.6146	-0.3667	-0.5675
4.58	-9.6508	-0.6406	-0.2585	-0.0123	-0.0087	-0.0460	33.1623	-7.5645	0.2514	-0.4072	0.6145	-0.3667	-0.5674
4.59	-9.6463	-0.6367	-0.2609	-0.0134	-0.0110	-0.0420	33.0559	-7.6644	0.1167	-0.4072	0.6146	-0.3667	-0.5675
4.6	-9.6429	-0.6382	-0.2601	-0.0119	-0.0126	-0.0393	33.1128	-7.6599	0.1522	-0.4071	0.6145	-0.3668	-0.5675
4.61	-9.6425	-0.6382	-0.2596	-0.0076	-0.0129	-0.0386	32.9264	-7.5788	0.2002	-0.4071	0.6145	-0.3668	-0.5675
4.62	-9.6371	-0.6332	-0.2654	-0.0128	-0.0106	-0.0450	33.0468	-7.4514	0.3732	-0.4071	0.6145	-0.3669	-0.5676
4.63	-9.6460	-0.6267	-0.2667	-0.0190	0.0010	-0.0478	32.9392	-7.6307	0.4160	-0.4070	0.6145	-0.3668	-0.5676
4.64	-9.6625	-0.6255	-0.2681	-0.0133	-0.0021	-0.0418	33.3831	-7.6555	0.4747	-0.4069	0.6146	-0.3669	-0.5676
4.65	-9.6637	-0.6255	-0.2682	-0.0202	-0.0040	-0.0458	33.4924	-7.6320	0.6440	-0.4068	0.6145	-0.3669	-0.5675
4.66	-9.6728	-0.6259	-0.2715	-0.0255	-0.0025	-0.0453	33.3370	-7.6582	0.3293	-0.4067	0.6146	-0.3669	-0.5676
4.67	-9.6647	-0.6253	-0.2763	-0.0165	-0.0073	-0.0450	33.1600	-7.5453	0.1207	-0.4067	0.6146	-0.3670	-0.5676
4.68	-9.6641	-0.6289	-0.2665	-0.0243	-0.0060	-0.0526	33.1478	-7.3649	0.2925	-0.4066	0.6146	-0.3670	-0.5676
4.69	-9.6782	-0.6280	-0.2760	-0.0232	-0.0082	-0.0445	33.0863	-7.4673	0.3416	-0.4065	0.6147	-0.3670	-0.5677
4.7	-9.6756	-0.6242	-0.2701	-0.0252	-0.0095	-0.0466	32.9953	-7.5561	0.4526	-0.4064	0.6147	-0.3670	-0.5677
4.71	-9.6605	-0.6213	-0.2650	-0.0219	-0.0148	-0.0480	32.9911	-7.5052	0.3551	-0.4064	0.6147	-0.3670	-0.5678
4.72	-9.6501	-0.6261	-0.2619	-0.0241	-0.0102	-0.0473	33.1058	-7.6292	0.1613	-0.4062	0.6147	-0.3669	-0.5678
4.73	-9.6431	-0.6270	-0.2625	-0.0248	-0.0189	-0.0486	33.0670	-7.7160	0.2996	-0.4063	0.6147	-0.3669	-0.5679
4.74	-9.6388	-0.6245	-0.2601	-0.0242	-0.0191	-0.0563	33.1677	-7.7223	-0.0128	-0.4062	0.6147	-0.3668	-0.5679
4.75	-9.6272	-0.6237	-0.2616	-0.0265	-0.0105	-0.0510	33.1151	-7.6428	0.3029	-0.4062	0.6148	-0.3668	-0.5679
4.76	-9.6102	-0.6240	-0.2532	-0.0260	-0.0094	-0.0434	33.0918	-7.5206	0.2623	-0.4061	0.6148	-0.3667	-0.5679
4.77	-9.6026	-0.6262	-0.2561	-0.0284	-0.0129	-0.0487	33.1984	-7.5222	0.1830	-0.4061	0.6148	-0.3667	-0.5680
4.78	-9.6265	-0.6309	-0.2594	-0.0288	-0.0095	-0.0478	33.2272	-7.3901	0.1434	-0.4060	0.6149	-0.3666	-0.5680
4.79	-9.6601	-0.6445	-0.2605	-0.0277	-0.0076	-0.0545	33.3090	-7.5647	0.0417	-0.4059	0.6149	-0.3666	-0.5680
4.8	-9.6592	-0.6501	-0.2612	-0.0284	-0.0117	-0.0424	33.1412	-7.4911	0.3700	-0.4059	0.6150	-0.3666	-0.5681
4.81	-9.6483	-0.6495	-0.2611	-0.0277	-0.0068	-0.0447	33.0833	-7.4775	0.3128	-0.4058	0.6150	-0.3665	-0.5681
4.82	-9.6663	-0.6419	-0.2689	-0.0241	-0.0021	-0.0539	33.1138	-7.7827	0.2868	-0.4058	0.6151	-0.3665	-0.5681
4.83	-9.6709	-0.6340	-0.2681	-0.0257	-0.0099	-0.0544	32.9881	-7.4795	0.2590	-0.4057	0.6151	-0.3664	-0.5681
4.84	-9.6487	-0.6472	-0.2623	-0.0243	-0.0083	-0.0539	33.1433	-7.4741	0.2055	-0.4056	0.6151	-0.3664	-0.5681
4.85	-9.6810	-0.6657	-0.2631	-0.0295	-0.0055	-0.0502	33.2071	-7.5418	0.2942	-0.4056	0.6152	-0.3664	-0.5682
4.86	-9.6872	-0.6688	-0.2732	-0.0283	-0.0172	-0.0531	33.1209	-7.5482	0.2968	-0.4055	0.6152	-0.3664	-0.5682
4.87	-9.6947	-0.6609	-0.2461	-0.0219	-0.0237	-0.0474	32.8613	-7.4025	0.2255	-0.4055	0.6152	-0.3664	-0.5683
4.88	-9.7052	-0.6601	-0.2533	-0.0261	-0.0197	-0.0460	33.1402	-7.5333	0.2680	-0.4054	0.6152	-0.3663	-0.5684
4.89	-9.6480	-0.6644	-0.2489	-0.0265	-0.0266	-0.0431	33.1519	-7.6421	0.5992	-0.4053	0.6152	-0.3663	-0.5685
4.9	-9.6027	-0.6760	-0.2372	-0.0205	-0.0268	-0.0417	32.9786	-7.6932	0.1245	-0.4053	0.6151	-0.3662	-0.5685
4.91	-9.6095	-0.6758	-0.2456	-0.0196	-0.0223	-0.0362	33.0101	-7.7224	0.1224	-0.4053	0.6151	-0.3662	-0.5686
4.92	-9.6003	-0.6631	-0.2411	-0.0207	-0.0226	-0.0361	33.3686	-7.7018	0.2311	-0.4052	0.6150	-0.3662	-0.5687
4.93	-9.6088	-0.6488	-0.2423	-0.0166	-0.0177	-0.0359	33.2264	-7.7006	0.0956	-0.4052	0.6150	-0.3662	-0.5688
4.94	-9.6204	-0.6240	-0.2453	-0.0068	-0.0084	-0.0353	32.9693	-7.8140	0.1949	-0.4051	0.6150	-0.3663	-0.5688
4.95	-9.6206	-0.5984	-0.2441	-0.0032	-0.0102	-0.0385	33.0032	-7.7805	0.2079	-0.4051	0.6149	-0.3663	-0.5688
4.96	-9.6378	-0.5946	-0.2474	-0.0049	-0.0083	-0.0423	33.0581	-7.8356	0.1429	-0.4051	0.6150	-0.3664	-0.5688
4.97	-9.6490	-0.5923	-0.2486	-0.0065	-0.0099	-0.0455	33.1196	-7.6159	-0.0082	-0.4051	0.6149	-0.3664	-0.5687
4.98	-9.6471	-0.5877	-0.2479	-0.0068	-0.0099	-0.0567	32.9677	-7.5226	0.0036	-0.4052	0.6149	-0.3664	-0.5688
4.99	-9.6391	-0.5818	-0.2508	-0.0044	-0.0105	-0.0562	33.0377	-7.6922	0.1937	-0.4052	0.6149	-0.3664	-0.5687
5	-9.6479	-0.5721	-0.2445	-0.0115	-0.0070	-0.0565	32.9525	-7.7397	0.4113	-0.4052	0.6150	-0.3664	-0.5687
5.01	-9.6515	-0.5677	-0.2522	-0.0259	-0.0057	-0.0555	33.2465	-7.4957	0.2508	-0.4052	0.6150	-0.3663	-0.5687
5.02	-9.6310	-0.5682	-0.2531	-0.0306	-0.0107	-0.0583	33.0951	-7.6959	0.3156	-0.4051	0.6151	-0.3663	-0.5687
5.03	-9.6294	-0.5815	-0.2524	-0.0275	-0.0067	-0.0550	33.0096	-7.6597	0.4299	-0.4051	0.6151	-0.3662	-0.5687
5.04	-9.6431	-0.5951	-0.2589	-0.0366	-0.0066	-0.0566	33.2171	-7.5993	0.5846	-0.4050	0.6152	-0.3661	-0.5687
5.05	-9.6586	-0.6120	-0.2673	-0.0386	-0.0053	-0.0542	33.1689	-7.5288	0.4213	-0.4050	0.6153	-0.3661	-0.5688
5.06	-9.6611	-0.6323	-0.2728	-0.0525	-0.0074	-0.0532	33.0404	-7.5408	0.0656	-0.4048	0.6154	-0.3659	-0.5688
5.07	-9.6727	-0.6457	-0.2657	-0.0530	-0.0070	-0.0540	32.9804	-7.7483	0.4146	-0.4047	0.6155	-0.3658	-0.5689
5.08	-9.6840	-0.6591	-0.2741	-0.0491	-0.0092	-0.0563	33.1027	-7.5764	0.1635	-0.4045	0.6155	-0.3657	-0.5689
5.09	-9.6836	-0.6813	-0.2751	-0.0455	-0.0167	-0.0560	33.2146	-7.6950	0.0996	-0.4045	0.6156	-0.3656	-0.5690
5.1	-9.6674	-0.6885	-0.2731	-0.0363	-0.0207	-0.0452	33.1402	-7.9862	0.2557	-0.4044	0.6156	-0.3656	-0.5691
5.11	-9.6793	-0.6921	-0.2686	-0.0293	-0.0255	-0.0505	33.3014	-7.6806	0.0814	-0.4043	0.6156	-0.3655	-0.5692
5.12	-9.6191	-0.6834	-0.2751	-0.0292	-0.0204	-0.0573	33.1306	-7.7282	0.1113	-0.4043	0.6157	-0.3654	-0.5693
5.13	-9.6195	-0.6748	-0.2454	-0.0287	-0.0163	-0.0582	33.1526	-7.5408	0.3790	-0.4042	0.6157	-0.3653	-0.5693
5.14	-9.7266	-0.6678	-0.2746	-0.0169	-0.0115	-0.0585	33.5858	-7.5461	0.3235	-0.4042	0.6157	-0.3653	-0.5693
5.15	-9.6298	-0.6533	-0.2589	-0.0210	-0.0414	-0.0566	33.5111	-7.4288	0.1685	-0.4042	0.6156	-0.3652	-0.5693
5.16	-9.6146	-0.6682	-0.2208	-0.0161	-0.0247	-0.0615	33.4563	-7.4185	0.0991	-0.4043	0.6156	-0.3651	-0.5694
5.17	-9.6649	-0.6668	-0.2576	-0.0136	-0.0156	-0.0596	33.2104	-7.4958	0.1219	-0.4043	0.6156	-0.3651	-0.5694
5.18	-9.6544	-0.6629	-0.2348	-0.0206	-0.0320	-0.0452	32.9659	-7.4413	0.1091	-0.4043	0.6156	-0.3651	-0.5695
5.19	-9.6340	-0.6457	-0.2390	-0.0107	-0.0218	-0.0419	33.0747	-7.3726	0.2289	-0.4043	0.6155	-0.3651	-0.5696
5.2	-9.6419	-0.6167	-0.2294	-0.0082	-0.0204	-0.0384	33.0399	-7.3138	0.2031	-0.4043	0.6155	-0.3651	-0.5696
5.21	-9.6418	-0.6004	-0.2369	-0.0082	-0.0203	-0.0434	33.0375	-7.6701	0.0158	-0.4043	0.6154	-0.3651	-0.5697
5.22	-9.6406	-0.6064	-0.2328	-0.0179	-0.0146	-0.0536	33.1239	-7.6452	0.1425	-0.4042	0.6154	-0.3651	-0.5696
5.23	-9.6508	-0.6242	-0.2324	-0.0190	-0.0129	-0.0584	33.1477	-7.6765	0.1063	-0.4043	0.6155	-0.3651	-0.5697
5.24	-9.6552	-0.6305	-0.2342	-0.0268	-0.0154	-0.0580	33.1041	-7.6019	0.3644	-0.4042	0.6155	-0.3650	-0.5697
5.25	-9.6683	-0.6261	-0.2357	-0.0167	-0.0196	-0.0584	32.9492	-7.2789	0.3508	-0.4042	0.6155	-0.3650	-0.5698
5.26	-9.6521	-0.6234	-0.2322	-0.0125	-0.0280	-0.0552	32.9625	-7.4047	0.1927	-0.4042	0.6154	-0.3650	-0.5698
5.27	-9.6504	-0.6192	-0.2221	-0.0290	-0.0266	-0.0455	33.0716	-7.6452	0.0850	-0.4041	0.6154	-0.3649	-0.5699
5.28	-9.6514	-0.6244	-0.2304	-0.0266	-0.0298	-0.0509	33.2148	-7.8498	0.0291	-0.4041	0.6154	-0.3649	-0.5700
5.29	-9.6339	-0.6244	-0.2214	-0.0299	-0.0298	-0.0540	33.2205	-7.7527	0.0321	-0.4041	0.6153	-0.3647	-0.5700
5.3	-9.6481	-0.6308	-0.2174	-0.0279	-0.0198	-0.0524	33.1336	-7.6359	0.1671	-0.4041	0.6154	-0.3647	-0.5702
5.31	-9.6389	-0.6391	-0.2256	-0.0305	-0.0234	-0.0474	33.2547	-7.6701	0.0619	-0.4040	0.6154	-0.3646	-0.5702
5.32	-9.6391	-0.6523	-0.2114	-0.0281	-0.0191	-0.0515	33.1991	-7.6387	0.0852	-0.4040	0.6154	-0.3645	-0.5703
5.33	-9.6520	-0.6646	-0.2143	-0.0299	-0.0175	-0.0479	33.3271	-7.7584	0.2416	-0.4039	0.6154	-0.3645	-0.5703
5.34	-9.6477	-0.6612	-0.2181	-0.0272	-0.0176	-0.0441	33.1838	-7.6113	0.3518	-0.4039	0.6154	-0.3645	-0.5704
5.35	-9.6449	-0.6629	-0.2090	-0.0288	-0.0150	-0.0442	33.2799	-7.7319	0.0254	-0.4038	0.6154	-0.3645	-0.5705
5.36	-9.6368	-0.6691	-0.2137	-0.0285	-0.0209	-0.0518	33.3503	-7.6943	-0.1106	-0.4037	0.6154	-0.3644	-0.5705
5.37	-9.6207	-0.6598	-0.2157	-0.0243	-0.0224	-0.0457	33.0784	-7.5208	0.1830	-0.4037	0.6154	-0.3644	-0.5706
5.38	-9.6013	-0.6564	-0.2132	-0.0176	-0.0182	-0.0507	32.9196	-7.4920	0.3833	-0.4037	0.6154	-0.3643	-0.5706
5.39	-9.5985	-0.6454	-0.2139	-0.0088	-0.0132	-0.0525	32.9893	-7.4168	0.3731	-0.4037	0.6154	-0.3643	-0.5707
5.4	-9.5845	-0.6416	-0.2183	-0.0170	-0.0051	-0.0507	32.8518	-7.3749	0.0933	-0.4037	0.6154	-0.3642	-0.5706
5.41	-9.6083	-0.6356	-0.2199	-0.0166	-0.0060	-0.0446	32.8753	-7.5269	0.0214	-0.4037	0.6154	-0.3643	-0.5706
5.42	-9.6378	-0.6352	-0.2327	-0.0106	-0.0028	-0.0474	32.8555	-7.2610	0.2194	-0.4036	0.6154	-0.3643	-0.5706
5.43	-9.6329	-0.6262	-0.2333	-0.0106	-0.0058	-0.0442	32.9300	-7.4751	0.1395	-0.4036	0.6154	-0.3643	-0.5706
5.44	-9.6480	-0.6256	-0.2401	-0.0130	-0.0005	-0.0449	33.0772	-7.5654	0.1116	-0.4036	0.6155	-0.3644	-0.5706
5.45	-9.6571	-0.6208	-0.2495	-0.0183	-0.0013	-0.0426	33.1412	-7.6188	0.1524	-0.4035	0.6155	-0.3644	-0.5706
5.46	-9.6540	-0.6139	-0.2577	-0.0183	-0.0132	-0.0396	33.1545	-7.8445	0.2948	-0.4035	0.6155	-0.3644	-0.5706
5.47	-9.6498	-0.6127	-0.2624	-0.0250	-0.0074	-0.0430	33.4311	-7.8417	-0.0067	-0.4034	0.6155	-0.3643	-0.5706
5.48	-9.6605	-0.6054	-0.2684	-0.0237	-0.0038	-0.0443	33.2660	-7.6940	0.3238	-0.4034	0.6156	-0.3644	-0.5707
5.49	-9.6772	-0.6000	-0.2749	-0.0144	-0.0022	-0.0490	33.2144	-7.8370	0.2245	-0.4033	0.6156	-0.3644	-0.5706
5.5	-9.6862	-0.6068	-0.2838	-0.0177	-0.0084	-0.0464	33.2115	-7.7017	0.0832	-0.4033	0.6156	-0.3644	-0.5706
5.51	-9.6851	-0.6001	-0.2873	-0.0186	-0.0079	-0.0438	33.3293	-7.5393	0.2431	-0.4032	0.6156	-0.3644	-0.5707
5.52	-9.6838	-0.5918	-0.2924	-0.0176	-0.0097	-0.0523	33.2894	-7.6933	0.2301	-0.4032	0.6156	-0.3644	-0.5707
5.53	-9.6855	-0.5926	-0.2838	-0.0208	-0.0112	-0.0497	33.1603	-7.6369	0.3773	-0.4031	0.6156	-0.3644	-0.5707
5.54	-9.7010	-0.5935	-0.2854	-0.0158	-0.0167	-0.0502	33.0417	-7.6609	0.1289	-0.4030	0.6156	-0.3644	-0.5707
5.55	-9.6938	-0.5947	-0.2812	-0.0219	-0.0221	-0.0485	32.9401	-7.7634	0.0091	-0.4030	0.6156	-0.3644	-0.5709
5.56	-9.6764	-0.5907	-0.2757	-0.0252	-0.0259	-0.0514	33.2642	-7.7209	0.0834	-0.4030	0.6156	-0.3644	-0.5709
5.57	-9.6885	-0.5916	-0.2782	-0.0292	-0.0217	-0.0524	33.0900	-7.5619	0.1934	-0.4030	0.6156	-0.3643	-0.5710
5.58	-9.6752	-0.5933	-0.2743	-0.0278	-0.0206	-0.0519	32.9268	-7.5766	0.3463	-0.4029	0.6155	-0.3642	-0.5710
5.59	-9.6541	-0.5977	-0.2660	-0.0286	-0.0234	-0.0587	32.8597	-7.5553	0.1338	-0.4028	0.6156	-0.3642	-0.5711
5.6	-9.6620	-0.6127	-0.2610	-0.0288	-0.0223	-0.0562	33.2479	-7.4301	0.1938	-0.4028	0.6156	-0.3641	-0.5712
5.61	-9.6595	-0.6131	-0.2596	-0.0315	-0.0225	-0.0562	33.0599	-7.5980	0.1529	-0.4027	0.6155	-0.3640	-0.5712
5.62	-9.6460	-0.6192	-0.2514	-0.0302	-0.0273	-0.0577	33.0309	-7.4406	0.1061	-0.4027	0.6156	-0.3640	-0.5714
5.63	-9.6438	-0.6294	-0.2436	-0.0339	-0.0230	-0.0595	33.2092	-7.5463	0.2887	-0.4027	0.6156	-0.3638	-0.5714
5.64	-9.6294	-0.6311	-0.2427	-0.0320	-0.0365	-0.0581	33.4754	-7.5147	0.3363	-0.4027	0.6156	-0.3637	-0.5715
5.65	-9.6306	-0.6368	-0.2346	-0.0282	-0.0310	-0.0520	33.5142	-7.4543	0.2015	-0.4027	0.6155	-0.3636	-0.5715
5.66	-9.6469	-0.6406	-0.2372	-0.0288	-0.0251	-0.0566	33.2858	-7.5178	0.3291	-0.4027	0.6156	-0.3635	-0.5717
5.67	-9.6327	-0.6401	-0.2239	-0.0285	-0.0313	-0.0576	33.2165	-7.6985	0.1653	-0.4027	0.6156	-0.3634	-0.5717
5.68	-9.6367	-0.6421	-0.2116	-0.0296	-0.0295	-0.0589	33.0711	-7.8638	0.2575	-0.4027	0.6155	-0.3633	-0.5718
5.69	-9.6453	-0.6431	-0.2187	-0.0281	-0.0237	-0.0570	33.0215	-7.6470	0.2657	-0.4027	0.6156	-0.3632	-0.5719
5.7	-9.6356	-0.6426	-0.2133	-0.0288	-0.0207	-0.0540	33.0302	-7.6229	0.1504	-0.4027	0.6156	-0.3631	-0.5719
5.71	-9.6288	-0.6470	-0.2085	-0.0232	-0.0300	-0.0588	33.0157	-7.7403	0.3932	-0.4027	0.6156	-0.3630	-0.5720
5.72	-9.6121	-0.6434	-0.2091	-0.0288	-0.0257	-0.0573	33.0271	-7.5730	0.2557	-0.4026	0.6155	-0.3629	-0.5720
5.73	-9.6212	-0.6417	-0.2033	-0.0235	-0.0205	-0.0567	33.1188	-7.7453	0.1621	-0.4027	0.6156	-0.3628	-0.5721
5.74	-9.6290	-0.6426	-0.2056	-0.0256	-0.0194	-0.0554	33.2844	-7.6053	0.1762	-0.4027	0.6156	-0.3627	-0.5721
5.75	-9.6135	-0.6329	-0.2055	-0.0252	-0.0164	-0.0555	32.9638	-7.4028	0.1755	-0.4027	0.6157	-0.3627	-0.5721
5.76	-9.6160	-0.6307	-0.2082	-0.0221	-0.0102	-0.0586	32.8228	-7.5308	0.0726	-0.4026	0.6157	-0.3626	-0.5721
5.77	-9.6217	-0.6243	-0.2108	-0.0218	-0.0134	-0.0580	33.2184	-7.6496	-0.0505	-0.4026	0.6157	-0.3625	-0.5721
5.78	-9.6437	-0.6270	-0.2059	-0.0165	-0.0064	-0.0574	32.9959	-7.5043	0.2631	-0.4027	0.6158	-0.3625	-0.5721
5.79	-9.6641	-0.6402	-0.2137	-0.0244	-0.0092	-0.0553	33.1158	-7.2895	0.1683	-0.4026	0.6157	-0.3624	-0.5721
5.8	-9.6680	-0.6394	-0.2153	-0.0298	-0.0090	-0.0605	33.2146	-7.5929	0.1813	-0.4026	0.6159	-0.3624	-0.5722
5.81	-9.6530	-0.6295	-0.2160	-0.0232	-0.0073	-0.0557	33.2075	-7.5681	0.1322	-0.4026	0.6159	-0.3623	-0.5721
5.82	-9.6532	-0.6200	-0.2183	-0.0288	-0.0109	-0.0515	33.1583	-7.4839	0.0531	-0.4026	0.6160	-0.3623	-0.5722
5.83	-9.6508	-0.6200	-0.2177	-0.0276	-0.0144	-0.0565	32.9802	-7.6318	0.0910	-0.4025	0.6159	-0.3622	-0.5721
5.84	-9.6442	-0.6349	-0.2089	-0.0246	-0.0083	-0.0538	33.1955	-7.4646	0.1949	-0.4025	0.6160	-0.3621	-0.5722
5.85	-9.6951	-0.6564	-0.2153	-0.0292	-0.0104	-0.0513	33.1480	-7.6135	0.1415	-0.4024	0.6161	-0.3621	-0.5722
5.86	-9.6969	-0.6661	-0.2285	-0.0282	-0.0183	-0.0529	33.0966	-7.8251	0.2801	-0.4023	0.6160	-0.3620	-0.5722
5.87	-9.7015	-0.6604	-0.1977	-0.0288	-0.0219	-0.0431	33.1157	-7.6391	0.2510	-0.4023	0.6161	-0.3621	-0.5724
5.88	-9.7125	-0.6715	-0.2223	-0.0288	-0.0219	-0.0462	33.1247	-7.6349	0.0109	-0.4022	0.6160	-0.3620	-0.5724
5.89	-9.6370	-0.6791	-0.2177	-0.0291	-0.0341	-0.0421	33.0740	-7.7212	0.1800	-0.4022	0.6160	-0.3620	-0.5726
5.9	-9.5911	-0.6861	-0.2071	-0.0224	-0.0306	-0.0469	33.3173	-7.6681	0.1721	-0.4021	0.6159	-0.3618	-0.5726
5.91	-9.6066	-0.6885	-0.2169	-0.0208	-0.0183	-0.0412	33.2498	-7.8260	0.1830	-0.4021	0.6159	-0.3619	-0.5727
5.92	-9.6195	-0.6890	-0.2127	-0.0113	-0.0218	-0.0396	33.2152	-7.7188	0.1689	-0.4021	0.6159	-0.3619	-0.5728
5.93	-9.6029	-0.6732	-0.2133	-0.0109	-0.0206	-0.0341	33.0591	-7.6349	0.1913	-0.4021	0.6158	-0.3619	-0.5728
5.94	-9.6216	-0.6483	-0.2075	-0.0062	-0.0097	-0.0365	32.9036	-7.4689	0.0478	-0.4021	0.6158	-0.3620	-0.5729
5.95	-9.6374	-0.6240	-0.2148	0.0054	-0.0051	-0.0453	33.0874	-7.6042	0.1250	-0.4021	0.6158	-0.3620	-0.5728
5.96	-9.6426	-0.6099	-0.2071	0.0077	-0.0064	-0.0496	33.1408	-7.7199	0.4082	-0.4022	0.6158	-0.3621	-0.5728
5.97	-9.6366	-0.6082	-0.2185	0.0032	-0.0093	-0.0551	32.9980	-7.6824	0.2386	-0.4022	0.6157	-0.3621	-0.5727
5.98	-9.6366	-0.5960	-0.2120	0.0068	-0.0093	-0.0558	33.1603	-7.7908	0.1967	-0.4023	0.6157	-0.3622	-0.5727
5.99	-9.6399	-0.5791	-0.2109	0.0046	-0.0106	-0.0560	33.0419	-7.4833	0.2618	-0.4023	0.6157	-0.3622	-0.5726
6	-9.6263	-0.5657	-0.2171	0.0010	-0.0143	-0.0578	33.3264	-7.5969	0.0413	-0.4024	0.6157	-0.3622	-0.5726
6.01	-9.6304	-0.5622	-0.2099	-0.0073	-0.0063	-0.0562	33.0593	-7.6234	0.2930	-0.4024	0.6157	-0.3622	-0.5725
6.02	-9.6376	-0.5538	-0.2259	-0.0085	-0.0091	-0.0520	32.9625	-7.4468	0.1181	-0.4025	0.6157	-0.3622	-0.5725
6.03	-9.6372	-0.5508	-0.2104	-0.0226	-0.0131	-0.0513	33.3722	-7.4689	0.0392	-0.4024	0.6157	-0.3622	-0.5725
6.04	-9.6562	-0.5643	-0.2187	-0.0288	-0.0080	-0.0547	33.1661	-7.6040	0.1959	-0.4024	0.6157	-0.3621	-0.5725
6.05	-9.6644	-0.5807	-0.2277	-0.0280	-0.0099	-0.0588	33.2238	-7.7261	0.1417	-0.4024	0.6158	-0.3621	-0.5726
6.06	-9.6724	-0.5973	-0.2212	-0.0358	-0.0131	-0.0568	33.1785	-7.7712	0.1045	-0.4023	0.6159	-0.3619	-0.5726
6.07	-9.6767	-0.6158	-0.2318	-0.0486	-0.0093	-0.0560	33.2644	-7.3659	0.2063	-0.4023	0.6160	-0.3619	-0.5727
6.08	-9.6587	-0.6348	-0.2296	-0.0513	-0.0119	-0.0539	33.4176	-7.6525	0.1453	-0.4021	0.6160	-0.3617	-0.5727
6.09	-9.6781	-0.6527	-0.2374	-0.0434	-0.0087	-0.0534	33.0875	-7.6570	0.2090	-0.4020	0.6161	-0.3617	-0.5728
6.1	-9.6618	-0.6629	-0.2404	-0.0523	-0.0176	-0.0554	33.0380	-7.4483	0.0971	-0.4019	0.6162	-0.3615	-0.5729
6.11	-9.6720	-0.6712	-0.2316	-0.0379	-0.0161	-0.0569	33.2273	-7.6365	0.0709	-0.4017	0.6162	-0.3614	-0.5729
6.12	-9.6101	-0.6745	-0.2521	-0.0307	-0.0226	-0.0547	33.1906	-7.4864	0.1772	-0.4018	0.6163	-0.3614	-0.5730
6.13	-9.6239	-0.6684	-0.2068	-0.0287	-0.0151	-0.0517	32.9428	-7.5467	0.1917	-0.4017	0.6162	-0.3613	-0.5730
6.14	-9.7649	-0.6619	-0.2423	-0.0287	-0.0063	-0.0602	33.4271	-7.4435	0.3462	-0.4017	0.6163	-0.3613	-0.5731
6.15	-9.6679	-0.6535	-0.2281	-0.0279	-0.0360	-0.0616	33.5843	-7.4107	0.3854	-0.4016	0.6162	-0.3611	-0.5731
6.16	-9.6646	-0.6717	-0.1937	-0.0294	-0.0246	-0.0720	33.3489	-7.3908	0.1018	-0.4016	0.6163	-0.3611	-0.5732
6.17	-9.7062	-0.6711	-0.2339	-0.0202	-0.0214	-0.0629	32.9626	-7.4538	0.0624	-0.4016	0.6163	-0.3610	-0.5732
6.18	-9.6745	-0.6642	-0.1990	-0.0220	-0.0328	-0.0553	32.8525	-7.4395	-0.0416	-0.4016	0.6162	-0.3609	-0.5733
6.19	-9.6470	-0.6583	-0.2090	-0.0130	-0.0361	-0.0493	33.0988	-7.4913	0.0985	-0.4017	0.6162	-0.3609	-0.5734
6.2	-9.6363	-0.6332	-0.1995	-0.0129	-0.0411	-0.0414	32.8820	-7.6408	0.1315	-0.4017	0.6161	-0.3609	-0.5735
6.21	-9.6406	-0.6210	-0.1967	-0.0195	-0.0361	-0.0441	33.0729	-7.6731	-0.1506	-0.4017	0.6160	-0.3608	-0.5736
6.22	-9.6383	-0.6215	-0.1938	-0.0161	-0.0287	-0.0523	33.3335	-7.6727	-0.0910	-0.4017	0.6159	-0.3607	-0.5736
6.23	-9.6374	-0.6350	-0.1834	-0.0241	-0.0295	-0.0582	33.1857	-7.6482	-0.1351	-0.4017	0.6160	-0.3607	-0.5737
6.24	-9.6405	-0.6400	-0.1937	-0.0225	-0.0260	-0.0602	33.2731	-7.7190	-0.0777	-0.4018	0.6159	-0.3606	-0.5738
6.25	-9.6516	-0.6349	-0.1866	-0.0136	-0.0279	-0.0610	33.3319	-7.7716	0.0797	-0.4018	0.6159	-0.3605	-0.5738
6.26	-9.6605	-0.6390	-0.1789	-0.0266	-0.0367	-0.0554	33.2897	-7.6613	0.0676	-0.4018	0.6158	-0.3604	-0.5739
6.27	-9.6458	-0.6347	-0.1783	-0.0290	-0.0363	-0.0533	33.3346	-7.7686	-0.0486	-0.4018	0.6158	-0.3603	-0.5740
6.28	-9.6493	-0.6393	-0.1686	-0.0288	-0.0371	-0.0524	33.0470	-7.7689	0.0087	-0.4018	0.6158	-0.3602	-0.5741
6.29	-9.6467	-0.6431	-0.1738	-0.0298	-0.0294	-0.0547	33.1169	-7.6680	-0.1207	-0.4017	0.6157	-0.3601	-0.5742
6.3	-9.6181	-0.6476	-0.1612	-0.0288	-0.0381	-0.0502	33.2387	-7.5818	-0.1136	-0.4017	0.6158	-0.3601	-0.5744
6.31	-9.6028	-0.6524	-0.1608	-0.0277	-0.0281	-0.0598	33.0803	-7.3787	0.0248	-0.4017	0.6157	-0.3599	-0.5744
6.32	-9.6137	-0.6519	-0.1693	-0.0289	-0.0230	-0.0543	32.9571	-7.3302	-0.1416	-0.4018	0.6158	-0.3599	-0.5745
6.33	-9.6188	-0.6648	-0.1680	-0.0285	-0.0279	-0.0485	33.0339	-7.6256	-0.0075	-0.4017	0.6157	-0.3598	-0.5745
6.34	-9.6232	-0.6596	-0.1588	-0.0288	-0.0214	-0.0472	33.2901	-7.5510	-0.0495	-0.4017	0.6157	-0.3597	-0.5746
6.35	-9.6496	-0.6609	-0.1555	-0.0269	-0.0173	-0.0463	32.9500	-7.4271	-0.1527	-0.4016	0.6157	-0.3597	-0.5747
6.36	-9.6594	-0.6584	-0.1642	-0.0280	-0.0161	-0.0448	33.0378	-7.3856	-0.0974	-0.4015	0.6157	-0.3596	-0.5747
6.37	-9.6495	-0.6531	-0.1567	-0.0292	-0.0206	-0.0468	33.0430	-7.5178	-0.1500	-0.4015	0.6158	-0.3596	-0.5748
6.38	-9.6409	-0.6480	-0.1554	-0.0151	-0.0217	-0.0502	33.0642	-7.4706	0.0797	-0.4015	0.6157	-0.3595	-0.5748
6.39	-9.6291	-0.6380	-0.1508	-0.0129	-0.0221	-0.0516	32.9654	-7.5673	-0.0237	-0.4016	0.6157	-0.3595	-0.5749
6.4	-9.6058	-0.6380	-0.1498	-0.0109	-0.0171	-0.0495	33.0200	-8.0142	0.0104	-0.4015	0.6156	-0.3595	-0.5748
6.41	-9.5945	-0.6348	-0.1550	-0.0133	-0.0161	-0.0499	33.1750	-7.6097	-0.0888	-0.4016	0.6157	-0.3595	-0.5749
6.42	-9.5924	-0.6314	-0.1585	-0.0123	-0.0090	-0.0536	33.2681	-7.6758	-0.2090	-0.4016	0.6157	-0.3595	-0.5749
6.43	-9.5924	-0.6229	-0.1615	-0.0095	-0.0031	-0.0536	33.3524	-7.7836	-0.0013	-0.4016	0.6157	-0.3595	-0.5748
6.44	-9.5927	-0.6179	-0.1725	-0.0164	-0.0036	-0.0532	33.1692	-7.6766	-0.0093	-0.4016	0.6157	-0.3595	-0.5748
6.45	-9.5994	-0.6094	-0.1729	-0.0161	0.0023	-0.0539	33.1665	-7.3285	-0.0844	-0.4015	0.6158	-0.3595	-0.5748
6.46	-9.6430	-0.6021	-0.1793	-0.0111	0.0051	-0.0483	33.2390	-7.4765	-0.0751	-0.4015	0.6158	-0.3595	-0.5747
6.47	-9.6623	-0.5990	-0.1892	-0.0164	-0.0011	-0.0550	33.2219	-7.7077	0.0144	-0.4015	0.6158	-0.3595	-0.5746
6.48	-9.6737	-0.5986	-0.1915	-0.0257	-0.0017	-0.0576	33.2016	-7.5639	-0.2683	-0.4015	0.6160	-0.3595	-0.5747
6.49	-9.6984	-0.6003	-0.1968	-0.0268	0.0078	-0.0605	32.9501	-7.6902	0.0048	-0.4014	0.6160	-0.3594	-0.5746
6.5	-9.6989	-0.5952	-0.2020	-0.0291	-0.0035	-0.0583	32.9514	-7.4471	-0.1152	-0.4014	0.6161	-0.3594	-0.5746
6.51	-9.6745	-0.6066	-0.2028	-0.0321	-0.0100	-0.0575	32.9674	-7.6191	-0.1251	-0.4013	0.6162	-0.3593	-0.5746
6.52	-9.6652	-0.6110	-0.2030	-0.0303	-0.0075	-0.0606	32.9226	-7.4176	0.0152	-0.4013	0.6162	-0.3592	-0.5746
6.53	-9.6848	-0.6171	-0.2073	-0.0371	-0.0072	-0.0652	33.0459	-7.4443	-0.0867	-0.4012	0.6163	-0.3591	-0.5747
6.54	-9.6798	-0.6316	-0.2079	-0.0437	-0.0061	-0.0613	32.9500	-7.5348	0.1764	-0.4011	0.6164	-0.3590	-0.5746
6.55	-9.6802	-0.6432	-0.2038	-0.0429	-0.0108	-0.0588	32.9762	-7.4373	0.1340	-0.4010	0.6165	-0.3590	-0.5748
6.56	-9.6863	-0.6531	-0.2067	-0.0415	-0.0214	-0.0570	33.1912	-7.2919	0.0391	-0.4009	0.6165	-0.3588	-0.5748
6.57	-9.6767	-0.6616	-0.2070	-0.0405	-0.0211	-0.0589	32.8350	-7.3194	-0.2049	-0.4009	0.6166	-0.3588	-0.5749
6.58	-9.6635	-0.6810	-0.1943	-0.0385	-0.0203	-0.0577	32.9651	-7.3208	-0.2167	-0.4008	0.6165	-0.3586	-0.5749
6.59	-9.6717	-0.6876	-0.1944	-0.0319	-0.0246	-0.0579	33.3049	-7.7632	-0.1049	-0.4008	0.6166	-0.3586	-0.5750
6.6	-9.6461	-0.6922	-0.1882	-0.0326	-0.0310	-0.0592	33.3089	-7.5820	-0.2616	-0.4007	0.6166	-0.3585	-0.5751
6.61	-9.6176	-0.6912	-0.1800	-0.0299	-0.0305	-0.0530	33.3119	-7.5704	-0.1133	-0.4007	0.6165	-0.3583	-0.5752
6.62	-9.6227	-0.6991	-0.1842	-0.0315	-0.0254	-0.0592	33.3093	-7.5985	-0.0054	-0.4008	0.6166	-0.3583	-0.5753
6.63	-9.6136	-0.7005	-0.1725	-0.0281	-0.0237	-0.0571	33.3256	-7.5232	-0.0481	-0.4007	0.6166	-0.3581	-0.5753
6.64	-9.6138	-0.6989	-0.1764	-0.0238	-0.0217	-0.0506	33.5053	-7.2835	0.0441	-0.4007	0.6166	-0.3581	-0.5754
6.65	-9.6217	-0.7012	-0.1785	-0.0291	-0.0143	-0.0527	33.4777	-7.3345	0.0728	-0.4006	0.6166	-0.3580	-0.5754
6.66	-9.6403	-0.6933	-0.1690	-0.0193	-0.0139	-0.0519	33.3852	-7.3461	0.0855	-0.4007	0.6166	-0.3580	-0.5754
6.67	-9.6466	-0.6935	-0.1769	-0.0233	-0.0169	-0.0454	33.2182	-7.4281	-0.1865	-0.4006	0.6166	-0.3579	-0.5755
6.68	-9.6370	-0.6873	-0.1771	-0.0187	-0.0133	-0.0475	33.0196	-7.5760	0.0723	-0.4006	0.6166	-0.3579	-0.5755
6.69	-9.6457	-0.6818	-0.1667	-0.0143	-0.0177	-0.0498	33.1220	-7.3907	0.0323	-0.4006	0.6166	-0.3579	-0.5755
6.7	-9.6615	-0.6740	-0.1754	-0.0056	-0.0194	-0.0483	33.0985	-7.5801	0.0016	-0.4006	0.6166	-0.3579	-0.5755
6.71	-9.6557	-0.6658	-0.1696	-0.0057	-0.0150	-0.0478	33.0497	-7.5688	0.0414	-0.4007	0.6166	-0.3579	-0.5756
6.72	-9.6579	-0.6603	-0.1632	-0.0107	-0.0157	-0.0435	32.9635	-7.3731	-0.1497	-0.4006	0.6165	-0.3579	-0.5755
6.73	-9.6570	-0.6512	-0.1644	-0.0176	-0.0201	-0.0483	33.1684	-7.5881	-0.1226	-0.4006	0.6165	-0.3580	-0.5757
6.74	-9.6543	-0.6456	-0.1637	-0.0139	-0.0195	-0.0465	33.2989	-7.5188	-0.2421	-0.4005	0.6164	-0.3580	-0.5757
6.75	-9.6508	-0.6428	-0.1614	-0.0255	-0.0228	-0.0475	32.9965	-7.3504	0.0788	-0.4005	0.6164	-0.3580	-0.5758
6.76	-9.6476	-0.6424	-0.1578	-0.0126	-0.0221	-0.0437	33.0140	-7.6465	0.0556	-0.4005	0.6164	-0.3580	-0.5758
6.77	-9.6389	-0.6459	-0.1625	-0.0102	-0.0247	-0.0385	32.9946	-7.6841	-0.1822	-0.4005	0.6163	-0.3580	-0.5759
6.78	-9.6077	-0.6476	-0.1624	-0.0164	-0.0247	-0.0384	33.2455	-7.6927	-0.2374	-0.4005	0.6163	-0.3580	-0.5760
6.79	-9.6238	-0.6411	-0.1584	-0.0182	-0.0176	-0.0444	33.2893	-7.6687	-0.1067	-0.4004	0.6162	-0.3579	-0.5760
6.8	-9.6581	-0.6296	-0.1636	-0.0245	-0.0165	-0.0426	33.1667	-7.7077	-0.1333	-0.4004	0.6163	-0.3580	-0.5761
6.81	-9.5948	-0.6229	-0.1612	-0.0254	-0.0210	-0.0427	33.3278	-7.6336	-0.0694	-0.4003	0.6162	-0.3579	-0.5761
6.82	-9.6264	-0.6386	-0.1472	-0.0239	-0.0168	-0.0467	32.9256	-7.5581	-0.0406	-0.4003	0.6163	-0.3579	-0.5762
6.83	-9.6960	-0.6456	-0.1802	-0.0227	-0.0118	-0.0464	32.9077	-7.2759	-0.3830	-0.4002	0.6162	-0.3578	-0.5762
6.84	-9.6661	-0.6503	-0.1613	-0.0261	-0.0196	-0.0509	33.1635	-7.5425	-0.1038	-0.4002	0.6163	-0.3578	-0.5762
6.85	-9.6739	-0.6526	-0.1588	-0.0254	-0.0148	-0.0440	33.2047	-7.5160	-0.2328	-0.4002	0.6163	-0.3578	-0.5763
6.86	-9.6958	-0.6406	-0.1723	-0.0238	-0.0167	-0.0454	33.1099	-7.3621	-0.3696	-0.4001	0.6162	-0.3577	-0.5763
6.87	-9.6582	-0.6369	-0.1636	-0.0265	-0.0266	-0.0540	32.9872	-7.6501	0.0454	-0.4001	0.6163	-0.3577	-0.5765
6.88	-9.6078	-0.6473	-0.1739	-0.0274	-0.0287	-0.0522	33.0142	-7.5675	-0.2299	-0.4001	0.6162	-0.3576	-0.5765
6.89	-9.5928	-0.6555	-0.1700	-0.0298	-0.0187	-0.0541	32.7822	-7.4059	-0.1489	-0.4001	0.6163	-0.3575	-0.5766
6.9	-9.6159	-0.6487	-0.1792	-0.0274	-0.0123	-0.0458	33.0285	-7.5318	-0.1013	-0.4000	0.6162	-0.3574	-0.5765
6.91	-9.6350	-0.6414	-0.1886	-0.0274	-0.0078	-0.0447	33.2070	-7.4621	-0.1502	-0.3999	0.6163	-0.3575	-0.5766
6.92	-9.6303	-0.6250	-0.1860	-0.0295	-0.0058	-0.0460	33.2024	-7.4589	-0.0602	-0.3999	0.6163	-0.3574	-0.5766
6.93	-9.6637	-0.6051	-0.1850	-0.0208	-0.0068	-0.0526	33.0936	-7.5196	-0.0195	-0.3998	0.6163	-0.3574	-0.5766
6.94	-9.6722	-0.6082	-0.2042	-0.0269	-0.0129	-0.0564	33.1195	-7.5205	-0.0260	-0.3998	0.6164	-0.3573	-0.5767
6.95	-9.6472	-0.6269	-0.1970	-0.0291	-0.0266	-0.0608	33.0313	-7.5901	-0.1847	-0.3998	0.6164	-0.3572	-0.5767
6.96	-9.6501	-0.6436	-0.2017	-0.0274	-0.0197	-0.0614	33.0954	-7.4689	-0.2159	-0.3998	0.6165	-0.3571	-0.5768
6.97	-9.6440	-0.6184	-0.1850	-0.0286	-0.0177	-0.0597	33.3264	-7.5987	-0.2307	-0.3998	0.6164	-0.3570	-0.5767
6.98	-9.6996	-0.6386	-0.2078	-0.0284	-0.0092	-0.0603	33.1260	-7.6169	-0.0573	-0.3998	0.6165	-0.3570	-0.5768
6.99	-9.6192	-0.6388	-0.2106	-0.0280	-0.0244	-0.0485	33.4167	-7.5416	-0.2445	-0.3997	0.6165	-0.3569	-0.5769
7	-9.6578	-0.6250	-0.1805	-0.0315	-0.0202	-0.0474	33.1877	-7.7758	-0.2685	-0.3996	0.6165	-0.3569	-0.5769
7.01	-9.6357	-0.6458	-0.2291	-0.0324	-0.0263	-0.0537	33.1969	-7.7485	-0.0687	-0.3996	0.6165	-0.3568	-0.5770
7.02	-9.6427	-0.6470	-0.1805	-0.0264	-0.0244	-0.0505	33.1380	-7.5944	-0.2866	-0.3996	0.6165	-0.3567	-0.5771
7.03	-9.6917	-0.6551	-0.2179	-0.0271	-0.0146	-0.0476	33.1335	-7.4912	-0.0871	-0.3995	0.6165	-0.3567	-0.5771
7.04	-9.6664	-0.6565	-0.1996	-0.0355	-0.0211	-0.0486	33.2199	-7.3745	0.0878	-0.3994	0.6165	-0.3566	-0.5772
7.05	-9.6743	-0.6655	-0.1996	-0.0294	-0.0172	-0.0459	33.0623	-7.6423	-0.0603	-0.3994	0.6165	-0.3566	-0.5773
7.06	-9.6937	-0.6673	-0.2083	-0.0275	-0.0246	-0.0520	32.9732	-7.4430	-0.1601	-0.3993	0.6165	-0.3566	-0.5774
7.07	-9.6845	-0.6729	-0.1991	-0.0290	-0.0293	-0.0508	33.0911	-7.6067	-0.3074	-0.3993	0.6165	-0.3565	-0.5775
7.08	-9.6909	-0.6672	-0.1957	-0.0252	-0.0254	-0.0476	33.1655	-7.6011	-0.3061	-0.3992	0.6164	-0.3565	-0.5775
7.09	-9.6506	-0.6632	-0.1989	-0.0247	-0.0327	-0.0514	33.2456	-7.4616	-0.0620	-0.3992	0.6164	-0.3564	-0.5776
7.1	-9.5850	-0.6557	-0.1691	-0.0287	-0.0363	-0.0492	33.2089	-7.2318	-0.2009	-0.3992	0.6164	-0.3563	-0.5777
7.11	-9.7398	-0.6449	-0.1600	-0.0236	-0.0212	-0.0485	32.9046	-7.6174	-0.2334	-0.3991	0.6163	-0.3563	-0.5778
7.12	-9.7139	-0.6246	-0.1918	-0.0255	-0.0385	-0.0542	32.8955	-7.5805	-0.0941	-0.3992	0.6163	-0.3563	-0.5780
7.13	-9.5935	-0.6349	-0.1331	-0.0268	-0.0475	-0.0596	32.8627	-7.5027	-0.0028	-0.3992	0.6162	-0.3561	-0.5780
7.14	-9.6636	-0.6516	-0.1536	-0.0235	-0.0271	-0.0573	33.3842	-7.4554	-0.0873	-0.3992	0.6162	-0.3560	-0.5781
7.15	-9.6711	-0.6516	-0.1481	-0.0245	-0.0385	-0.0574	33.3603	-7.3885	-0.2391	-0.3992	0.6161	-0.3559	-0.5781
7.16	-9.6499	-0.6611	-0.1312	-0.0265	-0.0463	-0.0423	33.2611	-7.5589	-0.1830	-0.3992	0.6161	-0.3559	-0.5784
7.17	-9.6480	-0.6472	-0.1382	-0.0280	-0.0417	-0.0388	33.1354	-7.6069	0.1469	-0.3991	0.6160	-0.3558	-0.5785
7.18	-9.6418	-0.6302	-0.1185	-0.0293	-0.0410	-0.0401	33.0678	-7.7436	-0.2201	-0.3991	0.6159	-0.3557	-0.5786
7.19	-9.6446	-0.6313	-0.1254	-0.0262	-0.0406	-0.0444	33.1720	-7.6199	-0.3101	-0.3991	0.6159	-0.3557	-0.5788
7.2	-9.6370	-0.6402	-0.1161	-0.0246	-0.0416	-0.0499	33.0948	-7.6342	-0.3545	-0.3991	0.6158	-0.3556	-0.5789
7.21	-9.6503	-0.6515	-0.1141	-0.0284	-0.0426	-0.0551	32.8095	-7.8311	-0.4037	-0.3991	0.6158	-0.3555	-0.5790
7.22	-9.6455	-0.6542	-0.1053	-0.0283	-0.0450	-0.0604	33.0748	-7.5709	-0.4994	-0.3991	0.6156	-0.3553	-0.5791
7.23	-9.6556	-0.6588	-0.1008	-0.0270	-0.0413	-0.0558	33.0162	-7.5657	-0.4884	-0.3991	0.6156	-0.3553	-0.5793
7.24	-9.6541	-0.6572	-0.1039	-0.0275	-0.0421	-0.0527	33.1276	-7.3254	-0.2132	-0.3991	0.6156	-0.3552	-0.5794
7.25	-9.6405	-0.6494	-0.0883	-0.0270	-0.0454	-0.0537	33.0688	-7.5324	-0.2304	-0.3991	0.6155	-0.3551	-0.5795
7.26	-9.6368	-0.6476	-0.0910	-0.0265	-0.0441	-0.0484	33.0464	-7.3629	-0.3039	-0.3991	0.6154	-0.3549	-0.5796
7.27	-9.6341	-0.6443	-0.0861	-0.0267	-0.0419	-0.0499	33.1504	-7.5897	-0.4865	-0.3991	0.6154	-0.3549	-0.5797
7.28	-9.6207	-0.6476	-0.0827	-0.0288	-0.0421	-0.0447	32.9790	-7.5063	-0.4500	-0.3991	0.6153	-0.3548	-0.5799
7.29	-9.6181	-0.6542	-0.0765	-0.0289	-0.0390	-0.0468	33.1913	-7.5215	-0.3714	-0.3991	0.6152	-0.3546	-0.5799
7.3	-9.6358	-0.6554	-0.0786	-0.0278	-0.0344	-0.0475	32.8763	-7.3321	-0.6558	-0.3991	0.6152	-0.3546	-0.5801
7.31	-9.6366	-0.6603	-0.0755	-0.0289	-0.0320	-0.0435	32.9228	-7.4244	-0.5430	-0.3991	0.6152	-0.3545	-0.5802
7.32	-9.6351	-0.6661	-0.0702	-0.0271	-0.0348	-0.0435	32.6989	-7.4549	-0.4398	-0.3991	0.6152	-0.3545	-0.5803
7.33	-9.6430	-0.6669	-0.0613	-0.0233	-0.0321	-0.0408	32.7749	-7.3911	-0.2907	-0.3990	0.6150	-0.3544	-0.5804
7.34	-9.6507	-0.6677	-0.0539	-0.0244	-0.0353	-0.0419	33.2482	-7.7364	-0.4720	-0.3990	0.6150	-0.3544	-0.5805
7.35	-9.6427	-0.6552	-0.0596	-0.0250	-0.0401	-0.0412	33.2188	-7.6712	-0.6607	-0.3990	0.6150	-0.3543	-0.5806
7.36	-9.6385	-0.6567	-0.0569	-0.0213	-0.0316	-0.0422	33.2135	-7.8847	-0.3990	-0.3990	0.6149	-0.3542	-0.5807
7.37	-9.6330	-0.6505	-0.0541	-0.0167	-0.0350	-0.0397	33.2562	-7.7278	-0.2929	-0.3990	0.6149	-0.3542	-0.5809
7.38	-9.6172	-0.6421	-0.0480	-0.0075	-0.0246	-0.0420	33.2928	-7.6250	-0.3290	-0.3990	0.6147	-0.3542	-0.5809
7.39	-9.6170	-0.6410	-0.0503	-0.0062	-0.0200	-0.0444	32.9585	-7.5534	-0.5228	-0.3990	0.6147	-0.3543	-0.5809
7.4	-9.6098	-0.6349	-0.0517	-0.0016	-0.0271	-0.0462	32.9371	-7.6791	-0.3883	-0.3990	0.6146	-0.3542	-0.5809
7.41	-9.5932	-0.6217	-0.0465	-0.0003	-0.0234	-0.0450	33.1116	-7.7853	-0.4273	-0.3991	0.6146	-0.3543	-0.5810
7.42	-9.5990	-0.6140	-0.0456	-0.0000	-0.0154	-0.0421	33.0940	-7.7146	-0.5171	-0.3991	0.6145	-0.3543	-0.5809
7.43	-9.6231	-0.6039	-0.0449	-0.0042	-0.0107	-0.0458	33.0282	-7.5980	-0.4983	-0.3991	0.6145	-0.3544	-0.5809
7.44	-9.6284	-0.5909	-0.0497	-0.0037	-0.0055	-0.0541	33.0587	-7.3855	-0.4028	-0.3992	0.6145	-0.3544	-0.5809
7.45	-9.6310	-0.5899	-0.0470	-0.0099	-0.0076	-0.0524	32.9207	-7.2838	-0.4229	-0.3992	0.6145	-0.3544	-0.5809
7.46	-9.6413	-0.5848	-0.0510	-0.0189	-0.0090	-0.0607	33.0197	-7.3931	-0.3903	-0.3992	0.6146	-0.3544	-0.5809
7.47	-9.6413	-0.5839	-0.0547	-0.0217	-0.0087	-0.0543	33.1587	-7.4194	-0.5185	-0.3991	0.6145	-0.3543	-0.5808
7.48	-9.6367	-0.5874	-0.0550	-0.0252	-0.0051	-0.0507	33.0082	-7.2921	-0.3741	-0.3991	0.6147	-0.3543	-0.5809
7.49	-9.6498	-0.5941	-0.0658	-0.0279	-0.0048	-0.0614	32.9536	-7.3509	-0.4797	-0.3991	0.6147	-0.3543	-0.5808
7.5	-9.6535	-0.6055	-0.0745	-0.0299	-0.0063	-0.0575	32.9483	-7.5184	-0.4947	-0.3991	0.6148	-0.3542	-0.5808
7.51	-9.6566	-0.6220	-0.0662	-0.0277	-0.0121	-0.0594	33.0694	-7.3847	-0.6162	-0.3990	0.6148	-0.3541	-0.5808
7.52	-9.6696	-0.6349	-0.0682	-0.0338	-0.0123	-0.0563	33.0186	-7.4415	-0.5575	-0.3990	0.6149	-0.3540	-0.5808
7.53	-9.6639	-0.6466	-0.0707	-0.0351	-0.0072	-0.0549	33.1485	-7.5337	-0.4909	-0.3989	0.6150	-0.3540	-0.5809
7.54	-9.6556	-0.6561	-0.0667	-0.0322	-0.0150	-0.0553	33.3576	-7.7701	-0.4211	-0.3989	0.6150	-0.3539	-0.5808
7.55	-9.6538	-0.6699	-0.0728	-0.0344	-0.0177	-0.0563	33.1731	-7.7384	-0.3787	-0.3989	0.6151	-0.3538	-0.5809
7.56	-9.6482	-0.6785	-0.0697	-0.0287	-0.0166	-0.0561	33.2974	-7.8059	-0.5978	-0.3988	0.6151	-0.3537	-0.5809
7.57	-9.6371	-0.6797	-0.0653	-0.0318	-0.0122	-0.0591	33.2798	-7.5944	-0.7875	-0.3988	0.6152	-0.3537	-0.5810
7.58	-9.6289	-0.6844	-0.0699	-0.0289	-0.0158	-0.0518	33.0246	-7.6711	-0.6850	-0.3987	0.6151	-0.3536	-0.5809
7.59	-9.6061	-0.6892	-0.0737	-0.0286	-0.0089	-0.0510	32.9234	-7.7771	-0.6594	-0.3987	0.6152	-0.3536	-0.5810
7.6	-9.5970	-0.6879	-0.0746	-0.0279	-0.0078	-0.0541	32.8380	-7.5962	-0.7303	-0.3987	0.6153	-0.3535	-0.5810
7.61	-9.6050	-0.6854	-0.0760	-0.0242	-0.0081	-0.0472	32.9476	-7.5155	-0.5072	-0.3986	0.6153	-0.3535	-0.5810
7.62	-9.6205	-0.6748	-0.0774	-0.0200	-0.0080	-0.0520	33.0833	-7.3816	-0.4038	-0.3986	0.6154	-0.3535	-0.5810
7.63	-9.6423	-0.6687	-0.0838	-0.0228	0.0042	-0.0487	32.8654	-7.4276	-0.5315	-0.3985	0.6154	-0.3535	-0.5810
7.64	-9.6568	-0.6646	-0.0914	-0.0079	0.0058	-0.0546	33.2153	-7.3805	-0.2462	-0.3985	0.6155	-0.3535	-0.5809
7.65	-9.6510	-0.6605	-0.0873	-0.0064	-0.0087	-0.0489	33.5665	-7.5021	-0.1179	-0.3985	0.6154	-0.3535	-0.5808
7.66	-9.6595	-0.6502	-0.0898	-0.0046	-0.0017	-0.0480	33.2576	-7.4806	-0.1458	-0.3985	0.6155	-0.3536	-0.5808
7.67	-9.6489	-0.6431	-0.0992	-0.0029	-0.0087	-0.0469	33.1779	-7.3718	-0.3837	-0.3986	0.6154	-0.3536	-0.5808
7.68	-9.6403	-0.6380	-0.1002	-0.0011	-0.0053	-0.0480	32.9775	-7.2660	-0.3866	-0.3986	0.6154	-0.3537	-0.5808
7.69	-9.6441	-0.6277	-0.1024	-0.0031	-0.0003	-0.0482	32.8541	-7.4781	-0.4876	-0.3986	0.6155	-0.3538	-0.5807
7.7	-9.6406	-0.6195	-0.1013	-0.0055	-0.0064	-0.0451	32.9338	-7.5214	-0.4675	-0.3986	0.6154	-0.3538	-0.5807
7.71	-9.6464	-0.6160	-0.1028	0.0010	-0.0121	-0.0404	32.9839	-7.5783	-0.4916	-0.3986	0.6154	-0.3539	-0.5807
7.72	-9.6616	-0.6151	-0.1029	-0.0017	-0.0095	-0.0464	33.1019	-7.6344	-0.3702	-0.3986	0.6153	-0.3539	-0.5806
7.73	-9.6849	-0.6148	-0.1013	-0.0032	-0.0157	-0.0467	33.1470	-7.5861	-0.5003	-0.3986	0.6154	-0.3540	-0.5807
7.74	-9.6932	-0.6131	-0.1146	-0.0036	-0.0113	-0.0445	33.3250	-7.6556	-0.4245	-0.3986	0.6153	-0.3540	-0.5806
7.75	-9.6728	-0.6045	-0.1189	-0.0222	-0.0089	-0.0467	33.0029	-7.7402	-0.3423	-0.3986	0.6153	-0.3541	-0.5807
7.76	-9.6692	-0.5978	-0.1031	-0.0070	-0.0157	-0.0417	33.0143	-7.4927	-0.4235	-0.3985	0.6153	-0.3541	-0.5807
7.77	-9.6789	-0.5914	-0.1048	-0.0088	-0.0174	-0.0484	33.2918	-7.4159	-0.3204	-0.3985	0.6152	-0.3542	-0.5807
7.78	-9.6397	-0.6026	-0.0984	-0.0295	-0.0176	-0.0519	33.0329	-7.4666	-0.5364	-0.3985	0.6153	-0.3541	-0.5808
7.79	-9.6514	-0.6254	-0.0900	-0.0282	-0.0163	-0.0515	33.0910	-7.7046	-0.5633	-0.3984	0.6152	-0.3540	-0.5808
7.8	-9.6711	-0.6389	-0.0996	-0.0293	-0.0161	-0.0454	33.2118	-7.8019	-0.4871	-0.3984	0.6153	-0.3541	-0.5809
7.81	-9.6758	-0.6421	-0.0777	-0.0287	-0.0185	-0.0461	33.0578	-7.6277	-0.5237	-0.3983	0.6153	-0.3540	-0.5809
7.82	-9.7045	-0.6437	-0.0791	-0.0288	-0.0187	-0.0490	32.9312	-7.6032	-0.2503	-0.3982	0.6153	-0.3540	-0.5810
7.83	-9.6411	-0.6536	-0.0887	-0.0282	-0.0309	-0.0484	32.9390	-7.6234	-0.3088	-0.3981	0.6152	-0.3539	-0.5811
7.84	-9.5810	-0.6680	-0.0720	-0.0288	-0.0299	-0.0506	33.1319	-7.4714	-0.1624	-0.3981	0.6152	-0.3539	-0.5812
7.85	-9.5907	-0.6818	-0.0868	-0.0290	-0.0225	-0.0494	32.9601	-7.6105	-0.4088	-0.3981	0.6152	-0.3538	-0.5812
7.86	-9.5925	-0.6827	-0.0881	-0.0230	-0.0174	-0.0438	33.1291	-7.5350	-0.3358	-0.3980	0.6152	-0.3538	-0.5812
7.87	-9.5939	-0.6679	-0.0811	-0.0099	-0.0115	-0.0405	33.0067	-7.5144	-0.5508	-0.3981	0.6153	-0.3538	-0.5813
7.88	-9.6180	-0.6441	-0.0883	-0.0073	-0.0074	-0.0353	33.0191	-7.6736	-0.3391	-0.3980	0.6152	-0.3539	-0.5813
7.89	-9.6388	-0.6272	-0.0874	-0.0064	-0.0065	-0.0450	33.0302	-7.7215	-0.3461	-0.3980	0.6152	-0.3540	-0.5813
7.9	-9.6492	-0.6143	-0.0835	0.0010	-0.0140	-0.0510	32.9910	-7.5996	-0.3700	-0.3980	0.6151	-0.3539	-0.5812
7.91	-9.6648	-0.6128	-0.0878	-0.0004	-0.0150	-0.0525	33.1815	-7.6196	-0.4399	-0.3981	0.6151	-0.3540	-0.5812
7.92	-9.6500	-0.6081	-0.0927	0.0033	-0.0149	-0.0584	33.1450	-7.5914	-0.3723	-0.3982	0.6151	-0.3540	-0.5812
7.93	-9.6283	-0.5960	-0.0912	-0.0028	-0.0165	-0.0572	33.1056	-7.6821	-0.3110	-0.3982	0.6151	-0.3540	-0.5811
7.94	-9.6436	-0.5844	-0.0871	-0.0044	-0.0096	-0.0534	33.0828	-7.8058	-0.5078	-0.3983	0.6151	-0.3540	-0.5811
7.95	-9.6572	-0.5659	-0.0894	-0.0072	-0.0118	-0.0464	33.1794	-7.6444	-0.5990	-0.3983	0.6151	-0.3541	-0.5811
7.96	-9.6572	-0.5587	-0.0871	-0.0093	-0.0131	-0.0466	33.1024	-7.5809	-0.4573	-0.3983	0.6151	-0.3541	-0.5811
7.97	-9.6538	-0.5633	-0.0849	-0.0254	-0.0165	-0.0563	32.8897	-7.7182	-0.6581	-0.3982	0.6150	-0.3540	-0.5811
7.98	-9.6692	-0.5748	-0.0923	-0.0241	-0.0106	-0.0553	33.0475	-7.6802	-0.6404	-0.3983	0.6151	-0.3540	-0.5812
7.99	-9.6773	-0.5858	-0.0929	-0.0291	-0.0167	-0.0543	33.1868	-7.7407	-0.2048	-0.3982	0.6151	-0.3539	-0.5812
8	-9.6786	-0.5967	-0.0959	-0.0318	-0.0208	-0.0590	33.1309	-7.5385	-0.4688	-0.3982	0.6152	-0.3539	-0.5812
8.01	-9.6718	-0.6105	-0.0941	-0.0332	-0.0167	-0.0561	33.1053	-7.5198	-0.4867	-0.3981	0.6152	-0.3538	-0.5813
8.02	-9.6797	-0.6230	-0.0874	-0.0444	-0.0247	-0.0532	33.0886	-7.5077	-0.3266	-0.3980	0.6152	-0.3537	-0.5814
8.03	-9.6764	-0.6394	-0.0911	-0.0377	-0.0278	-0.0573	32.9889	-7.5865	-0.4794	-0.3980	0.6152	-0.3536	-0.5815
8.04	-9.6607	-0.6533	-0.0835	-0.0349	-0.0257	-0.0571	33.0437	-7.6165	-0.3842	-0.3979	0.6152	-0.3535	-0.5815
8.05	-9.6566	-0.6595	-0.0835	-0.0375	-0.0246	-0.0521	32.8937	-7.6220	-0.3783	-0.3979	0.6153	-0.3535	-0.5817
8.06	-9.6577	-0.6661	-0.0787	-0.0288	-0.0242	-0.0554	32.9778	-7.7210	-0.6874	-0.3978	0.6152	-0.3534	-0.5817
8.07	-9.5956	-0.6564	-0.0755	-0.0293	-0.0321	-0.0485	33.0503	-7.4421	-0.5497	-0.3978	0.6153	-0.3533	-0.5818
8.08	-9.6455	-0.6606	-0.0511	-0.0256	-0.0251	-0.0545	32.9851	-7.4144	-0.1471	-0.3978	0.6152	-0.3532	-0.5818
8.09	-9.7181	-0.6524	-0.0773	-0.0203	-0.0203	-0.0561	33.1963	-7.5862	-0.3606	-0.3978	0.6152	-0.3532	-0.5819
8.1	-9.6361	-0.6412	-0.0503	-0.0154	-0.0478	-0.0543	33.3131	-7.7788	-0.5563	-0.3978	0.6151	-0.3531	-0.5820
8.11	-9.6419	-0.6622	-0.0364	-0.0257	-0.0348	-0.0627	33.2750	-7.8070	-0.5616	-0.3978	0.6151	-0.3530	-0.5820
8.12	-9.6736	-0.6668	-0.0542	-0.0198	-0.0272	-0.0608	33.2875	-7.6608	-0.5586	-0.3979	0.6151	-0.3530	-0.5821
8.13	-9.6427	-0.6637	-0.0391	-0.0255	-0.0419	-0.0551	33.1691	-7.6144	-0.4200	-0.3979	0.6150	-0.3528	-0.5822
8.14	-9.6198	-0.6514	-0.0390	-0.0122	-0.0401	-0.0460	33.4576	-7.5530	-0.3177	-0.3979	0.6150	-0.3528	-0.5823
8.15	-9.6380	-0.6341	-0.0280	-0.0118	-0.0396	-0.0409	33.5592	-7.4227	-0.1684	-0.3979	0.6148	-0.3527	-0.5823
8.16	-9.6473	-0.6257	-0.0361	-0.0275	-0.0270	-0.0471	33.3185	-7.4250	-0.3909	-0.3979	0.6148	-0.3527	-0.5825
8.17	-9.6478	-0.6329	-0.0233	-0.0256	-0.0336	-0.0454	33.0260	-7.4931	-0.6714	-0.3979	0.6148	-0.3526	-0.5825
8.18	-9.6555	-0.6439	-0.0199	-0.0194	-0.0267	-0.0545	32.8077	-7.4623	-0.3699	-0.3979	0.6147	-0.3526	-0.5826
8.19	-9.6457	-0.6445	-0.0205	-0.0241	-0.0281	-0.0564	32.8831	-7.4177	-0.5219	-0.3979	0.6148	-0.3525	-0.5827
8.2	-9.6281	-0.6414	-0.0204	-0.0202	-0.0294	-0.0530	32.7689	-7.5202	-0.7072	-0.3979	0.6147	-0.3525	-0.5827
8.21	-9.6221	-0.6351	-0.0195	-0.0275	-0.0306	-0.0569	32.9767	-7.3096	-0.4504	-0.3979	0.6147	-0.3524	-0.5828
8.22	-9.6170	-0.6310	-0.0090	-0.0267	-0.0339	-0.0476	32.9614	-7.3408	-0.5972	-0.3979	0.6146	-0.3523	-0.5828
8.23	-9.6240	-0.6371	-0.0080	-0.0251	-0.0241	-0.0527	32.8515	-7.3114	-0.6802	-0.3979	0.6147	-0.3522	-0.5829
8.24	-9.6228	-0.6406	-0.0088	-0.0270	-0.0284	-0.0441	33.0655	-7.5184	-0.3603	-0.3979	0.6146	-0.3522	-0.5830
8.25	-9.6269	-0.6446	-0.0136	-0.0291	-0.0310	-0.0480	32.9698	-7.4090	-0.7719	-0.3979	0.6146	-0.3521	-0.5831
8.26	-9.6301	-0.6504	-0.0079	-0.0286	-0.0240	-0.0486	32.9635	-7.5172	-0.7488	-0.3978	0.6146	-0.3520	-0.5831
8.27	-9.6446	-0.6595	-0.0081	-0.0300	-0.0202	-0.0494	33.0669	-7.7242	-0.6690	-0.3978	0.6146	-0.3520	-0.5832
8.28	-9.6509	-0.6669	-0.0110	-0.0247	-0.0243	-0.0428	33.2720	-7.6540	-0.5931	-0.3978	0.6146	-0.3519	-0.5833
8.29	-9.6454	-0.6611	-0.0097	-0.0274	-0.0227	-0.0449	33.3535	-7.6893	-0.6321	-0.3977	0.6145	-0.3519	-0.5833
8.3	-9.6459	-0.6639	-0.0049	-0.0242	-0.0189	-0.0452	33.0872	-7.6698	-0.8982	-0.3977	0.6146	-0.3519	-0.5834
8.31	-9.6537	-0.6622	-0.0067	-0.0198	-0.0171	-0.0417	33.0250	-7.8373	-0.6737	-0.3976	0.6146	-0.3518	-0.5834
8.32	-9.6445	-0.6536	-0.0067	-0.0173	-0.0221	-0.0406	33.1267	-7.6058	-0.8885	-0.3976	0.6146	-0.3519	-0.5835
8.33	-9.6293	-0.6485	-0.0030	-0.0126	-0.0280	-0.0458	33.1488	-7.5757	-0.7282	-0.3976	0.6145	-0.3518	-0.5835
8.34	-9.6336	-0.6403	-0.0065	-0.0049	-0.0255	-0.0438	33.1309	-7.8340	-0.6757	-0.3977	0.6144	-0.3518	-0.5836
8.35	-9.6305	-0.6368	-0.0059	0.0002	-0.0195	-0.0466	33.1441	-7.6826	-0.5924	-0.3977	0.6144	-0.3519	-0.5836
8.36	-9.6261	-0.6323	0.0034	-0.0062	-0.0179	-0.0471	33.1330	-7.6862	-0.6334	-0.3977	0.6143	-0.3519	-0.5836
8.37	-9.6210	-0.6255	-0.0073	-0.0066	-0.0245	-0.0514	33.1493	-7.5719	-0.7922	-0.3978	0.6143	-0.3519	-0.5837
8.38	-9.6170	-0.6141	-0.0064	-0.0046	-0.0091	-0.0436	32.9837	-7.4747	-0.7411	-0.3978	0.6143	-0.3519	-0.5836
8.39	-9.6264	-0.6075	-0.0113	-0.0068	-0.0063	-0.0494	32.9598	-7.5368	-0.5480	-0.3978	0.6143	-0.3520	-0.5836
8.4	-9.6388	-0.5947	-0.0076	-0.0071	-0.0116	-0.0483	32.9510	-7.3896	-0.7802	-0.3978	0.6142	-0.3520	-0.5835
8.41	-9.6462	-0.5895	-0.0086	-0.0107	-0.0076	-0.0457	33.0978	-7.4510	-0.7455	-0.3978	0.6143	-0.3520	-0.5836
8.42	-9.6364	-0.5903	-0.0144	-0.0202	-0.0066	-0.0479	32.9629	-7.3305	-0.6424	-0.3977	0.6143	-0.3520	-0.5835
8.43	-9.6485	-0.5886	-0.0144	-0.0147	-0.0098	-0.0490	32.7460	-7.4460	-0.6967	-0.3977	0.6143	-0.3520	-0.5835
8.44	-9.6551	-0.5889	-0.0178	-0.0240	-0.0059	-0.0550	32.9033	-7.7457	-0.6407	-0.3977	0.6144	-0.3520	-0.5835
8.45	-9.6491	-0.5944	-0.0185	-0.0298	-0.0125	-0.0545	32.8453	-7.4788	-0.7124	-0.3977	0.6144	-0.3519	-0.5835
8.46	-9.6540	-0.6017	-0.0163	-0.0282	-0.0195	-0.0512	33.1688	-7.4046	-0.7960	-0.3976	0.6144	-0.3519	-0.5836
8.47	-9.6654	-0.6070	-0.0222	-0.0272	-0.0173	-0.0556	33.3517	-7.8035	-0.6545	-0.3976	0.6144	-0.3518	-0.5836
8.48	-9.6655	-0.6144	-0.0204	-0.0289	-0.0154	-0.0572	33.1785	-7.7344	-0.6604	-0.3976	0.6145	-0.3517	-0.5836
8.49	-9.6554	-0.6243	-0.0192	-0.0288	-0.0121	-0.0557	33.1384	-7.8282	-0.8347	-0.3976	0.6145	-0.3516	-0.5836
8.5	-9.6695	-0.6352	-0.0172	-0.0289	-0.0142	-0.0528	33.3709	-7.8520	-0.5480	-0.3975	0.6146	-0.3516	-0.5837
8.51	-9.6507	-0.6373	-0.0221	-0.0289	-0.0176	-0.0527	33.0880	-7.8728	-0.6882	-0.3974	0.6146	-0.3516	-0.5837
8.52	-9.6328	-0.6398	-0.0181	-0.0289	-0.0124	-0.0507	32.8237	-7.8044	-0.8684	-0.3974	0.6146	-0.3515	-0.5837
8.53	-9.6507	-0.6461	-0.0190	-0.0289	-0.0117	-0.0530	33.0789	-7.6121	-0.6951	-0.3974	0.6147	-0.3515	-0.5838
8.54	-9.6439	-0.6469	-0.0190	-0.0287	-0.0095	-0.0545	33.0090	-7.8092	-0.8790	-0.3973	0.6146	-0.3514	-0.5837
8.55	-9.6234	-0.6438	-0.0113	-0.0294	-0.0207	-0.0466	33.2996	-7.5317	-0.7255	-0.3973	0.6147	-0.3514	-0.5839
8.56	-9.6381	-0.6467	-0.0126	-0.0274	-0.0151	-0.0470	33.2877	-7.4972	-0.7921	-0.3972	0.6147	-0.3513	-0.5839
8.57	-9.6359	-0.6437	-0.0186	-0.0269	-0.0064	-0.0558	32.8995	-7.5073	-0.6841	-0.3972	0.6148	-0.3513	-0.5839
8.58	-9.6176	-0.6368	-0.0110	-0.0206	-0.0127	-0.0529	32.7581	-7.4984	-0.6595	-0.3972	0.6148	-0.3512	-0.5838
8.59	-9.6258	-0.6377	-0.0082	-0.0272	-0.0131	-0.0524	32.8052	-7.6309	-0.6839	-0.3972	0.6148	-0.3512	-0.5839
8.6	-9.6335	-0.6313	-0.0153	-0.0217	-0.0080	-0.0516	32.9384	-7.3424	-0.6482	-0.3971	0.6149	-0.3512	-0.5839
8.61	-9.6385	-0.6295	-0.0114	-0.0221	-0.0104	-0.0464	32.9958	-7.3855	-0.7681	-0.3971	0.6148	-0.3511	-0.5839
8.62	-9.6430	-0.6206	-0.0161	-0.0201	-0.0056	-0.0537	32.8170	-7.5430	-0.7631	-0.3971	0.6150	-0.3512	-0.5839
8.63	-9.6395	-0.6140	-0.0208	-0.0210	-0.0035	-0.0479	32.9836	-7.3239	-0.4753	-0.3970	0.6150	-0.3511	-0.5839
8.64	-9.6405	-0.6125	-0.0205	-0.0100	-0.0106	-0.0462	33.5224	-7.3735	-0.5467	-0.3970	0.6150	-0.3512	-0.5839
8.65	-9.6490	-0.6121	-0.0249	-0.0130	-0.0061	-0.0495	33.4899	-7.5190	-0.6764	-0.3970	0.6149	-0.3511	-0.5838
8.66	-9.6436	-0.6084	-0.0309	-0.0143	-0.0114	-0.0485	33.3504	-7.4838	-0.7529	-0.3970	0.6150	-0.3512	-0.5838
8.67	-9.6354	-0.6078	-0.0266	-0.0212	-0.0144	-0.0470	33.1500	-7.5866	-0.6355	-0.3970	0.6150	-0.3512	-0.5839
8.68	-9.6457	-0.6069	-0.0366	-0.0229	-0.0116	-0.0397	32.9321	-7.6597	-0.8062	-0.3969	0.6150	-0.3511	-0.5839
8.69	-9.6466	-0.6020	-0.0351	-0.0186	-0.0099	-0.0428	33.1457	-7.5997	-0.5253	-0.3969	0.6150	-0.3512	-0.5839
8.7	-9.6648	-0.6076	-0.0391	-0.0217	-0.0072	-0.0526	32.9381	-7.6178	-0.5290	-0.3968	0.6150	-0.3511	-0.5839
8.71	-9.6726	-0.6087	-0.0426	-0.0181	-0.0171	-0.0528	33.1600	-7.8044	-0.7948	-0.3969	0.6151	-0.3511	-0.5839
8.72	-9.6650	-0.6086	-0.0312	-0.0167	-0.0171	-0.0539	33.2093	-7.6790	-0.6802	-0.3968	0.6150	-0.3511	-0.5839
8.73	-9.6732	-0.6121	-0.0377	-0.0234	-0.0135	-0.0553	33.0712	-7.8259	-0.5243	-0.3968	0.6151	-0.3511	-0.5840
8.74	-9.6921	-0.6211	-0.0272	-0.0224	-0.0178	-0.0574	32.9544	-7.7025	-0.6749	-0.3968	0.6151	-0.3510	-0.5840
8.75	-9.6941	-0.6177	-0.0321	-0.0269	-0.0124	-0.0580	32.9005	-7.4999	-0.5872	-0.3968	0.6151	-0.3510	-0.5840
8.76	-9.6459	-0.6069	-0.0270	-0.0240	-0.0217	-0.0568	33.0282	-7.5265	-0.6047	-0.3967	0.6151	-0.3509	-0.5840
8.77	-9.6443	-0.5965	-0.0144	-0.0252	-0.0239	-0.0551	33.0082	-7.6472	-0.7750	-0.3967	0.6151	-0.3508	-0.5841
8.78	-9.6607	-0.5922	-0.0139	-0.0274	-0.0238	-0.0548	33.0125	-7.5394	-0.6407	-0.3967	0.6151	-0.3508	-0.5841
8.79	-9.6403	-0.5976	-0.0083	-0.0269	-0.0244	-0.0582	33.0171	-7.5077	-0.6903	-0.3967	0.6151	-0.3507	-0.5841
8.8	-9.6383	-0.6131	-0.0049	-0.0285	-0.0195	-0.0577	33.0019	-7.6255	-0.5792	-0.3967	0.6152	-0.3507	-0.5842
8.81	-9.6751	-0.6259	-0.0060	-0.0258	-0.0167	-0.0600	33.0388	-7.6110	-0.6887	-0.3967	0.6151	-0.3506	-0.5842
8.82	-9.6866	-0.6239	0.0020	-0.0281	-0.0282	-0.0567	32.9331	-7.5639	-0.4563	-0.3967	0.6152	-0.3505	-0.5843
8.83	-9.6905	-0.6337	0.0066	-0.0285	-0.0298	-0.0570	32.9243	-7.3877	-0.6043	-0.3966	0.6151	-0.3504	-0.5844
8.84	-9.6560	-0.6432	0.0034	-0.0284	-0.0314	-0.0580	33.0256	-7.7211	-0.5787	-0.3966	0.6151	-0.3504	-0.5845
8.85	-9.6141	-0.6550	0.0243	-0.0285	-0.0383	-0.0591	33.0385	-7.6076	-0.7666	-0.3966	0.6151	-0.3502	-0.5845
8.86	-9.6159	-0.6704	0.0081	-0.0283	-0.0318	-0.0522	33.2089	-7.6986	-0.7500	-0.3966	0.6150	-0.3501	-0.5846
8.87	-9.6086	-0.6701	0.0097	-0.0288	-0.0325	-0.0477	33.1833	-7.6745	-0.8849	-0.3967	0.6151	-0.3501	-0.5848
8.88	-9.5933	-0.6534	0.0184	-0.0240	-0.0252	-0.0431	33.0519	-7.6268	-0.8156	-0.3966	0.6150	-0.3500	-0.5848
8.89	-9.6070	-0.6418	0.0149	-0.0154	-0.0171	-0.0399	32.9781	-7.7308	-0.7370	-0.3966	0.6150	-0.3501	-0.5848
8.9	-9.5924	-0.6292	0.0079	-0.0111	-0.0201	-0.0467	33.1289	-7.6132	-0.7943	-0.3965	0.6149	-0.3500	-0.5848
8.91	-9.6051	-0.6260	0.0237	-0.0049	-0.0155	-0.0572	32.9530	-7.5679	-0.6156	-0.3966	0.6149	-0.3500	-0.5848
8.92	-9.6458	-0.6286	0.0073	-0.0054	-0.0107	-0.0551	33.1323	-7.3796	-0.7741	-0.3967	0.6149	-0.3501	-0.5848
8.93	-9.6272	-0.6193	0.0091	-0.0054	-0.0220	-0.0614	33.1903	-7.5137	-0.6928	-0.3967	0.6149	-0.3500	-0.5848
8.94	-9.6277	-0.6118	0.0107	-0.0151	-0.0068	-0.0599	32.7391	-7.5519	-0.5740	-0.3968	0.6150	-0.3500	-0.5848
8.95	-9.6461	-0.6012	0.0024	-0.0134	-0.0082	-0.0585	32.8080	-7.5852	-0.8443	-0.3968	0.6150	-0.3500	-0.5847
8.96	-9.6425	-0.5891	0.0072	-0.0188	-0.0031	-0.0576	33.0202	-7.5120	-0.6743	-0.3968	0.6150	-0.3500	-0.5847
8.97	-9.6293	-0.5917	0.0008	-0.0250	-0.0099	-0.0576	33.0254	-7.4952	-0.6841	-0.3967	0.6150	-0.3499	-0.5846
8.98	-9.6110	-0.5884	0.0047	-0.0294	-0.0101	-0.0625	32.8756	-7.6904	-0.5552	-0.3967	0.6152	-0.3499	-0.5847
8.99	-9.6312	-0.5953	-0.0016	-0.0275	-0.0043	-0.0617	32.8482	-7.7506	-0.7737	-0.3967	0.6152	-0.3498	-0.5846
9	-9.6377	-0.6053	-0.0040	-0.0292	-0.0080	-0.0566	33.0251	-7.4682	-0.7044	-0.3967	0.6153	-0.3497	-0.5846
9.01	-9.6462	-0.6167	-0.0030	-0.0306	-0.0066	-0.0586	33.0129	-7.6391	-0.5543	-0.3966	0.6153	-0.3497	-0.5846
9.02	-9.6651	-0.6261	-0.0073	-0.0308	-0.0013	-0.0561	33.0023	-7.4735	-0.8667	-0.3966	0.6154	-0.3496	-0.5846
9.03	-9.6866	-0.6403	-0.0169	-0.0319	-0.0069	-0.0582	33.0563	-7.5887	-0.6105	-0.3965	0.6155	-0.3496	-0.5846
9.04	-9.6948	-0.6533	-0.0141	-0.0398	-0.0113	-0.0573	33.2072	-7.6283	-0.5705	-0.3964	0.6155	-0.3494	-0.5846
9.05	-9.6816	-0.6657	-0.0200	-0.0395	-0.0112	-0.0562	33.0848	-7.5747	-0.5811	-0.3964	0.6156	-0.3494	-0.5847
9.06	-9.6848	-0.6749	-0.0189	-0.0324	-0.0219	-0.0575	33.0983	-7.6719	-0.7489	-0.3963	0.6156	-0.3493	-0.5847
9.07	-9.6785	-0.6750	-0.0296	-0.0286	-0.0133	-0.0539	32.8894	-7.4245	-0.4885	-0.3963	0.6157	-0.3493	-0.5848
9.08	-9.6050	-0.6706	-0.0148	-0.0256	-0.0236	-0.0505	33.0518	-7.5457	-0.5895	-0.3962	0.6156	-0.3492	-0.5848
9.09	-9.7109	-0.6726	0.0031	-0.0230	-0.0120	-0.0588	32.9502	-7.5757	-0.9269	-0.3962	0.6157	-0.3492	-0.5848
9.1	-9.7161	-0.6628	-0.0298	-0.0288	-0.0240	-0.0581	32.9936	-7.5883	-0.6347	-0.3962	0.6157	-0.3491	-0.5849
9.11	-9.6313	-0.6659	0.0284	-0.0260	-0.0419	-0.0606	33.2509	-7.7773	-0.7656	-0.3962	0.6156	-0.3490	-0.5849
9.12	-9.6796	-0.6806	0.0064	-0.0193	-0.0228	-0.0612	32.9470	-7.4360	-0.7789	-0.3963	0.6157	-0.3490	-0.5850
9.13	-9.6855	-0.6765	0.0060	-0.0282	-0.0309	-0.0578	33.0920	-7.4761	-0.5936	-0.3962	0.6156	-0.3489	-0.5851
9.14	-9.6531	-0.6736	0.0272	-0.0267	-0.0290	-0.0488	33.3063	-7.5418	-0.3841	-0.3962	0.6156	-0.3489	-0.5852
9.15	-9.6517	-0.6482	0.0237	-0.0256	-0.0323	-0.0450	33.1881	-7.4309	-0.3962	-0.3961	0.6155	-0.3488	-0.5852
9.16	-9.6471	-0.6305	0.0399	-0.0265	-0.0306	-0.0505	33.1108	-7.2770	-0.7010	-0.3962	0.6155	-0.3488	-0.5854
9.17	-9.6377	-0.6302	0.0436	-0.0275	-0.0399	-0.0561	33.0682	-7.3782	-0.7913	-0.3962	0.6154	-0.3486	-0.5854
9.18	-9.6168	-0.6414	0.0446	-0.0255	-0.0358	-0.0611	32.7778	-7.4291	-0.7003	-0.3962	0.6154	-0.3485	-0.5855
9.19	-9.6051	-0.6513	0.0427	-0.0252	-0.0356	-0.0630	33.0249	-7.6347	-0.9973	-0.3963	0.6154	-0.3484	-0.5856
9.2	-9.6040	-0.6494	0.0411	-0.0238	-0.0309	-0.0589	32.8638	-7.6658	-0.9620	-0.3963	0.6154	-0.3483	-0.5856
9.21	-9.5915	-0.6497	0.0416	-0.0286	-0.0344	-0.0540	33.0091	-7.7573	-0.7724	-0.3963	0.6154	-0.3482	-0.5857
9.22	-9.6036	-0.6523	0.0472	-0.0265	-0.0290	-0.0580	33.3793	-7.6859	-0.8716	-0.3963	0.6153	-0.3481	-0.5857
9.23	-9.6218	-0.6463	0.0461	-0.0236	-0.0223	-0.0514	33.1551	-7.5709	-0.9021	-0.3963	0.6153	-0.3481	-0.5858
9.24	-9.6265	-0.6518	0.0435	-0.0281	-0.0185	-0.0488	33.1583	-7.7489	-1.1570	-0.3962	0.6153	-0.3480	-0.5859
9.25	-9.6234	-0.6586	0.0373	-0.0286	-0.0189	-0.0456	33.3237	-7.8083	-0.8859	-0.3962	0.6154	-0.3480	-0.5859
9.26	-9.6389	-0.6663	0.0438	-0.0292	-0.0165	-0.0418	33.3118	-7.4511	-0.6110	-0.3961	0.6153	-0.3479	-0.5860
9.27	-9.6537	-0.6736	0.0377	-0.0286	-0.0233	-0.0429	33.0715	-7.5506	-0.9210	-0.3961	0.6153	-0.3479	-0.5860
9.28	-9.6451	-0.6730	0.0365	-0.0296	-0.0215	-0.0445	33.2125	-7.5867	-0.7644	-0.3961	0.6153	-0.3479	-0.5861
9.29	-9.6288	-0.6784	0.0370	-0.0241	-0.0219	-0.0450	32.8532	-7.6679	-0.9795	-0.3960	0.6153	-0.3478	-0.5861
9.3	-9.6294	-0.6770	0.0308	-0.0245	-0.0160	-0.0428	32.8714	-7.7883	-0.8565	-0.3960	0.6153	-0.3478	-0.5862
9.31	-9.6160	-0.6725	0.0346	-0.0274	-0.0166	-0.0457	33.1599	-7.4509	-0.7565	-0.3959	0.6153	-0.3478	-0.5862
9.32	-9.6321	-0.6632	0.0372	-0.0180	-0.0112	-0.0483	33.0725	-7.3920	-0.8841	-0.3959	0.6154	-0.3478	-0.5863
9.33	-9.6353	-0.6498	0.0315	-0.0152	-0.0088	-0.0424	32.9498	-7.4363	-0.7301	-0.3958	0.6153	-0.3478	-0.5862
9.34	-9.6219	-0.6402	0.0309	-0.0093	-0.0093	-0.0455	32.8326	-7.4951	-0.8633	-0.3959	0.6153	-0.3478	-0.5863
9.35	-9.6287	-0.6292	0.0301	-0.0021	-0.0080	-0.0532	32.9405	-7.3637	-0.8480	-0.3959	0.6153	-0.3478	-0.5862
9.36	-9.6390	-0.6201	0.0279	-0.0040	-0.0046	-0.0473	32.9151	-7.2058	-0.7644	-0.3959	0.6153	-0.3479	-0.5861
9.37	-9.6429	-0.6073	0.0326	-0.0018	-0.0023	-0.0486	32.7211	-7.4769	-0.7427	-0.3959	0.6154	-0.3480	-0.5862
9.38	-9.6481	-0.6032	0.0313	-0.0034	-0.0085	-0.0522	32.7245	-7.4662	-0.8918	-0.3959	0.6153	-0.3480	-0.5861
9.39	-9.6643	-0.6000	0.0300	-0.0036	-0.0076	-0.0534	32.8281	-7.4381	-0.7558	-0.3960	0.6154	-0.3480	-0.5861
9.4	-9.6610	-0.5927	0.0358	-0.0086	-0.0149	-0.0463	33.0701	-7.6213	-0.7312	-0.3960	0.6153	-0.3480	-0.5860
9.41	-9.6466	-0.5918	0.0327	-0.0082	-0.0197	-0.0477	33.2348	-7.6775	-0.8729	-0.3960	0.6153	-0.3480	-0.5861
9.42	-9.6463	-0.5920	0.0336	-0.0160	-0.0173	-0.0542	33.0988	-7.6809	-0.7736	-0.3960	0.6153	-0.3480	-0.5861
9.43	-9.6420	-0.5940	0.0277	-0.0232	-0.0097	-0.0510	33.1503	-7.6699	-0.7140	-0.3960	0.6153	-0.3480	-0.5861
9.44	-9.6385	-0.5964	0.0297	-0.0222	-0.0096	-0.0568	33.1322	-7.6892	-0.8577	-0.3960	0.6153	-0.3480	-0.5861
9.45	-9.6428	-0.6040	0.0315	-0.0296	-0.0135	-0.0585	33.1239	-7.5212	-0.9598	-0.3960	0.6154	-0.3479	-0.5861
9.46	-9.6513	-0.6102	0.0274	-0.0281	-0.0115	-0.0574	32.9625	-7.5337	-0.8466	-0.3960	0.6154	-0.3478	-0.5861
9.47	-9.6598	-0.6215	0.0342	-0.0299	-0.0095	-0.0577	32.9398	-7.7136	-0.4828	-0.3959	0.6154	-0.3477	-0.5860
9.48	-9.6728	-0.6269	0.0287	-0.0303	-0.0134	-0.0574	33.0899	-7.5324	-0.7627	-0.3959	0.6155	-0.3477	-0.5861
9.49	-9.6688	-0.6320	0.0255	-0.0339	-0.0166	-0.0478	32.9809	-7.6756	-0.7844	-0.3958	0.6155	-0.3476	-0.5862
9.5	-9.6554	-0.6381	0.0338	-0.0352	-0.0154	-0.0557	32.9565	-7.6057	-0.8056	-0.3957	0.6156	-0.3476	-0.5862
9.51	-9.6619	-0.6446	0.0300	-0.0352	-0.0188	-0.0593	32.9381	-7.5893	-0.8421	-0.3957	0.6156	-0.3475	-0.5863
9.52	-9.6655	-0.6504	0.0321	-0.0288	-0.0192	-0.0546	33.1315	-7.5683	-0.7368	-0.3956	0.6156	-0.3474	-0.5863
9.53	-9.6518	-0.6526	0.0327	-0.0281	-0.0220	-0.0528	33.0467	-7.4687	-0.8882	-0.3956	0.6156	-0.3474	-0.5864
9.54	-9.6334	-0.6593	0.0433	-0.0289	-0.0219	-0.0585	32.8218	-7.5295	-0.8042	-0.3956	0.6156	-0.3473	-0.5864
9.55	-9.6353	-0.6596	0.0344	-0.0290	-0.0135	-0.0585	33.0038	-7.4744	-0.8727	-0.3956	0.6157	-0.3472	-0.5865
9.56	-9.6329	-0.6611	0.0396	-0.0310	-0.0233	-0.0557	32.7649	-7.4023	-0.7967	-0.3956	0.6157	-0.3471	-0.5865
9.57	-9.6378	-0.6642	0.0469	-0.0284	-0.0147	-0.0502	32.8512	-7.4230	-0.9536	-0.3956	0.6157	-0.3471	-0.5866
9.58	-9.6392	-0.6674	0.0356	-0.0291	-0.0166	-0.0560	32.9562	-7.4034	-0.8183	-0.3955	0.6157	-0.3470	-0.5865
9.59	-9.6455	-0.6656	0.0461	-0.0263	-0.0187	-0.0515	33.1017	-7.6613	-0.7546	-0.3955	0.6157	-0.3470	-0.5866
9.6	-9.6538	-0.6613	0.0422	-0.0266	-0.0133	-0.0530	33.1148	-7.6750	-0.8538	-0.3955	0.6158	-0.3469	-0.5866
9.61	-9.6496	-0.6618	0.0460	-0.0249	-0.0199	-0.0560	32.9251	-7.6929	-0.8873	-0.3954	0.6157	-0.3468	-0.5866
9.62	-9.6546	-0.6542	0.0534	-0.0171	-0.0222	-0.0568	33.0744	-7.5643	-1.0706	-0.3955	0.6158	-0.3468	-0.5867
9.63	-9.6482	-0.6495	0.0475	-0.0164	-0.0219	-0.0530	33.1785	-7.6219	-0.8098	-0.3955	0.6157	-0.3468	-0.5867
9.64	-9.6306	-0.6477	0.0566	-0.0207	-0.0289	-0.0540	33.5367	-7.5008	-0.7021	-0.3955	0.6157	-0.3467	-0.5868
9.65	-9.6289	-0.6422	0.0608	-0.0143	-0.0220	-0.0518	33.7195	-7.5111	-0.8562	-0.3955	0.6156	-0.3467	-0.5867
9.66	-9.6173	-0.6352	0.0565	-0.0220	-0.0194	-0.0562	33.3445	-7.4179	-0.8086	-0.3955	0.6157	-0.3466	-0.5868
9.67	-9.5964	-0.6352	0.0662	-0.0288	-0.0150	-0.0517	33.1852	-7.3198	-0.9787	-0.3955	0.6157	-0.3466	-0.5868
9.68	-9.5966	-0.6394	0.0636	-0.0262	-0.0123	-0.0582	33.0007	-7.4460	-0.6158	-0.3954	0.6157	-0.3465	-0.5868
9.69	-9.6190	-0.6433	0.0636	-0.0250	-0.0088	-0.0543	32.8171	-7.5611	-0.5076	-0.3954	0.6158	-0.3465	-0.5869
9.7	-9.6342	-0.6424	0.0608	-0.0292	-0.0051	-0.0546	32.8616	-7.5576	-0.7635	-0.3954	0.6158	-0.3464	-0.5868
9.71	-9.6156	-0.6432	0.0620	-0.0230	-0.0116	-0.0545	33.0197	-7.3597	-0.8729	-0.3954	0.6159	-0.3464	-0.5869
9.72	-9.6360	-0.6365	0.0673	-0.0273	-0.0092	-0.0555	33.0082	-7.5546	-0.8111	-0.3953	0.6159	-0.3463	-0.5868
9.73	-9.6666	-0.6245	0.0580	-0.0285	-0.0004	-0.0585	33.0418	-7.3795	-0.6595	-0.3953	0.6160	-0.3463	-0.5868
9.74	-9.6077	-0.6259	0.0658	-0.0287	-0.0118	-0.0575	32.9516	-7.4902	-1.0766	-0.3953	0.6160	-0.3462	-0.5868
9.75	-9.6348	-0.6419	0.0679	-0.0288	-0.0058	-0.0586	32.6931	-7.5441	-0.9886	-0.3952	0.6161	-0.3462	-0.5868
9.76	-9.6735	-0.6544	0.0494	-0.0287	-0.0017	-0.0524	32.9718	-7.4092	-0.8833	-0.3952	0.6162	-0.3461	-0.5868
9.77	-9.6456	-0.6538	0.0740	-0.0268	-0.0150	-0.0505	33.0233	-7.4492	-1.1113	-0.3951	0.6162	-0.3461	-0.5868
9.78	-9.6774	-0.6553	0.0668	-0.0290	-0.0056	-0.0475	33.2220	-7.5936	-0.8436	-0.3951	0.6163	-0.3461	-0.5868
9.79	-9.6765	-0.6524	0.0472	-0.0283	-0.0080	-0.0435	33.0828	-7.6111	-0.9784	-0.3950	0.6162	-0.3460	-0.5868
9.8	-9.6218	-0.6560	0.0588	-0.0292	-0.0088	-0.0486	33.1480	-7.5986	-0.9712	-0.3950	0.6164	-0.3460	-0.5869
9.81	-9.5910	-0.6727	0.0510	-0.0285	-0.0126	-0.0472	33.3120	-7.6096	-0.9663	-0.3949	0.6163	-0.3460	-0.5869
9.82	-9.5901	-0.6758	0.0431	-0.0291	-0.0114	-0.0501	33.0404	-7.5973	-0.9865	-0.3949	0.6164	-0.3460	-0.5870
9.83	-9.6149	-0.6789	0.0363	-0.0232	-0.0025	-0.0467	32.8864	-7.6186	-0.8712	-0.3948	0.6164	-0.3459	-0.5869
9.84	-9.6209	-0.6692	0.0305	-0.0218	-0.0105	-0.0441	33.1168	-7.5776	-0.8854	-0.3947	0.6164	-0.3460	-0.5869
9.85	-9.6217	-0.6454	0.0419	-0.0289	-0.0041	-0.0446	32.9853	-7.4907	-1.0689	-0.3947	0.6165	-0.3459	-0.5869
9.86	-9.6475	-0.6378	0.0279	-0.0296	-0.0007	-0.0439	32.9680	-7.5465	-1.0101	-0.3946	0.6165	-0.3459	-0.5869
9.87	-9.6479	-0.6402	0.0205	-0.0248	-0.0102	-0.0508	33.1502	-7.3879	-0.7290	-0.3946	0.6166	-0.3459	-0.5870
9.88	-9.6466	-0.6484	0.0261	-0.0256	-0.0078	-0.0558	32.9502	-7.4833	-1.0164	-0.3945	0.6166	-0.3459	-0.5869
9.89	-9.6556	-0.6487	0.0158	-0.0293	-0.0058	-0.0561	33.1170	-7.5279	-1.0482	-0.3945	0.6167	-0.3459	-0.5870
9.9	-9.6407	-0.6442	0.0153	-0.0263	-0.0074	-0.0587	33.1003	-7.5148	-0.7587	-0.3944	0.6167	-0.3458	-0.5869
9.91	-9.6434	-0.6377	0.0177	-0.0266	-0.0071	-0.0566	33.0057	-7.5040	-0.6844	-0.3944	0.6168	-0.3457	-0.5869
9.92	-9.6417	-0.6340	0.0141	-0.0294	-0.0105	-0.0544	33.0055	-7.5584	-0.7146	-0.3944	0.6168	-0.3457	-0.5869
9.93	-9.6438	-0.6370	0.0171	-0.0280	-0.0085	-0.0481	32.7874	-7.6409	-0.6187	-0.3943	0.6169	-0.3456	-0.5869
9.94	-9.6478	-0.6356	0.0029	-0.0301	-0.0057	-0.0509	33.0829	-7.4786	-0.5825	-0.3943	0.6169	-0.3456	-0.5869
9.95	-9.6400	-0.6424	0.0049	-0.0325	-0.0112	-0.0488	32.9347	-7.4228	-0.7874	-0.3942	0.6170	-0.3456	-0.5870
9.96	-9.6594	-0.6503	0.0000	-0.0285	-0.0019	-0.0397	33.0313	-7.4210	-0.9760	-0.3941	0.6170	-0.3456	-0.5870
9.97	-9.6709	-0.6489	-0.0036	-0.0290	-0.0057	-0.0455	33.2297	-7.5038	-0.9811	-0.3940	0.6170	-0.3455	-0.5869
9.98	-9.6814	-0.6505	-0.0062	-0.0332	-0.0060	-0.0472	33.1776	-7.6406	-0.9523	-0.3940	0.6171	-0.3456	-0.5870
9.99	-9.7014	-0.6582	-0.0081	-0.0261	-0.0075	-0.0487	33.3664	-7.7175	-1.0126	-0.3939	0.6171	-0.3456	-0.5870
10	-9.7037	-0.6619	-0.0053	-0.0272	-0.0131	-0.0474	33.0905	-7.6213	-1.1055	-0.3938	0.6171	-0.3456	-0.5871
10.01	-9.7148	-0.6660	-0.0086	-0.0289	-0.0198	-0.0512	33.2205	-7.5810	-0.8494	-0.3937	0.6171	-0.3455	-0.5871
10.02	-9.6417	-0.6605	-0.0187	-0.0282	-0.0245	-0.0460	33.0283	-7.6409	-0.8894	-0.3937	0.6171	-0.3455	-0.5872
10.03	-9.6175	-0.6491	0.0190	-0.0294	-0.0201	-0.0467	33.0739	-7.7185	-0.8694	-0.3937	0.6171	-0.3454	-0.5873
10.04	-9.7629	-0.6444	0.0040	-0.0197	-0.0137	-0.0444	33.1056	-7.6110	-0.8928	-0.3936	0.6170	-0.3454	-0.5873
10.05	-9.6769	-0.6297	0.0026	-0.0252	-0.0394	-0.0505	33.2297	-7.5792	-0.7570	-0.3936	0.6170	-0.3454	-0.5875
10.06	-9.6088	-0.6481	0.0494	-0.0290	-0.0382	-0.0603	33.1272	-7.5041	-0.8271	-0.3936	0.6170	-0.3453	-0.5875
10.07	-9.6442	-0.6618	0.0168	-0.0277	-0.0237	-0.0581	32.8992	-7.5136	-0.9667	-0.3937	0.6170	-0.3452	-0.5876
10.08	-9.6431	-0.6693	0.0418	-0.0289	-0.0258	-0.0572	33.0295	-7.5338	-0.9939	-0.3936	0.6169	-0.3451	-0.5876
10.09	-9.6312	-0.6711	0.0320	-0.0268	-0.0308	-0.0478	32.9032	-7.5932	-0.8154	-0.3936	0.6169	-0.3450	-0.5877
10.1	-9.6234	-0.6412	0.0443	-0.0210	-0.0302	-0.0400	32.9390	-7.4914	-0.7997	-0.3936	0.6169	-0.3450	-0.5878
10.11	-9.6354	-0.6276	0.0484	-0.0272	-0.0302	-0.0403	32.9249	-7.5289	-0.7535	-0.3935	0.6168	-0.3450	-0.5879
10.12	-9.6430	-0.6259	0.0501	-0.0263	-0.0245	-0.0475	32.9273	-7.4263	-0.9576	-0.3936	0.6169	-0.3450	-0.5880
10.13	-9.6473	-0.6395	0.0555	-0.0283	-0.0255	-0.0525	32.9552	-7.3990	-0.8853	-0.3935	0.6168	-0.3449	-0.5880
10.14	-9.6400	-0.6485	0.0543	-0.0263	-0.0301	-0.0597	33.3372	-7.3034	-0.5763	-0.3936	0.6168	-0.3448	-0.5881
10.15	-9.6355	-0.6575	0.0631	-0.0180	-0.0314	-0.0555	33.5731	-7.4331	-1.0447	-0.3935	0.6167	-0.3447	-0.5881
10.16	-9.6283	-0.6625	0.0551	-0.0255	-0.0329	-0.0543	33.3790	-7.4385	-0.7533	-0.3936	0.6167	-0.3446	-0.5882
10.17	-9.6246	-0.6558	0.0704	-0.0269	-0.0284	-0.0556	33.1513	-7.4555	-0.5181	-0.3936	0.6167	-0.3446	-0.5883
10.18	-9.6352	-0.6500	0.0768	-0.0253	-0.0263	-0.0445	33.1521	-7.4561	-1.0448	-0.3936	0.6167	-0.3445	-0.5883
10.19	-9.6402	-0.6489	0.0746	-0.0292	-0.0249	-0.0433	33.2437	-7.5155	-1.0175	-0.3935	0.6167	-0.3445	-0.5884
10.2	-9.6214	-0.6534	0.0790	-0.0284	-0.0312	-0.0434	32.9413	-7.4027	-0.9290	-0.3935	0.6166	-0.3444	-0.5885
10.21	-9.6260	-0.6604	0.0889	-0.0282	-0.0223	-0.0476	32.9948	-7.4355	-0.9108	-0.3935	0.6166	-0.3444	-0.5886
10.22	-9.6466	-0.6682	0.0810	-0.0286	-0.0251	-0.0459	33.1566	-7.4192	-1.1382	-0.3934	0.6165	-0.3443	-0.5886
10.23	-9.6280	-0.6726	0.0820	-0.0273	-0.0200	-0.0439	33.0955	-7.5341	-0.9870	-0.3934	0.6166	-0.3443	-0.5887
10.24	-9.6195	-0.6774	0.0877	-0.0281	-0.0173	-0.0452	33.0234	-7.3386	-0.7790	-0.3933	0.6166	-0.3443	-0.5887
10.25	-9.6354	-0.6783	0.0839	-0.0222	-0.0175	-0.0427	32.8014	-7.3793	-0.9595	-0.3933	0.6166	-0.3443	-0.5888
10.26	-9.6365	-0.6719	0.0937	-0.0099	-0.0133	-0.0426	33.1136	-7.6508	-0.9178	-0.3933	0.6165	-0.3443	-0.5888
10.27	-9.6387	-0.6637	0.0958	-0.0190	-0.0156	-0.0413	33.2877	-7.5437	-0.9617	-0.3933	0.6165	-0.3443	-0.5888
10.28	-9.6317	-0.6623	0.0979	-0.0081	-0.0200	-0.0355	33.0885	-7.5405	-1.0737	-0.3932	0.6165	-0.3444	-0.5889
10.29	-9.6252	-0.6502	0.0991	-0.0105	-0.0140	-0.0412	33.4489	-7.7146	-0.9103	-0.3932	0.6164	-0.3444	-0.5888
10.3	-9.6311	-0.6391	0.0942	-0.0113	-0.0182	-0.0427	33.1647	-7.5708	-0.9547	-0.3932	0.6164	-0.3444	-0.5889
10.31	-9.6241	-0.6261	0.0953	-0.0068	-0.0154	-0.0402	33.2471	-7.6191	-1.0503	-0.3932	0.6163	-0.3445	-0.5889
10.32	-9.6205	-0.6249	0.0934	-0.0038	-0.0066	-0.0429	33.1648	-7.3128	-1.0160	-0.3933	0.6164	-0.3446	-0.5889
10.33	-9.6144	-0.6102	0.1036	-0.0026	-0.0140	-0.0430	32.9995	-7.5226	-1.0569	-0.3932	0.6163	-0.3446	-0.5889
10.34	-9.6181	-0.6015	0.0970	-0.0090	-0.0086	-0.0420	33.0970	-7.7434	-0.7362	-0.3932	0.6163	-0.3446	-0.5889
10.35	-9.6154	-0.5937	0.0953	-0.0084	-0.0094	-0.0499	33.2701	-7.6380	-1.0134	-0.3932	0.6163	-0.3447	-0.5889
10.36	-9.6256	-0.5869	0.1061	-0.0070	-0.0105	-0.0439	33.1202	-7.8080	-0.9350	-0.3932	0.6162	-0.3447	-0.5888
10.37	-9.6422	-0.5757	0.0914	-0.0088	0.0023	-0.0479	33.1150	-7.6438	-0.9519	-0.3933	0.6163	-0.3448	-0.5889
10.38	-9.6390	-0.5726	0.0898	-0.0150	-0.0097	-0.0514	33.1670	-7.6198	-0.8694	-0.3932	0.6163	-0.3448	-0.5888
10.39	-9.6447	-0.5791	0.0850	-0.0138	-0.0042	-0.0531	32.9992	-7.4828	-0.9066	-0.3932	0.6163	-0.3448	-0.5888
10.4	-9.6423	-0.5854	0.0842	-0.0282	-0.0104	-0.0587	32.8393	-7.3758	-0.9437	-0.3932	0.6163	-0.3447	-0.5887
10.41	-9.6608	-0.5967	0.0676	-0.0279	-0.0041	-0.0572	32.9708	-7.5974	-0.9665	-0.3932	0.6164	-0.3447	-0.5888
10.42	-9.6684	-0.6050	0.0589	-0.0289	-0.0035	-0.0585	33.3099	-7.7240	-1.0001	-0.3931	0.6165	-0.3447	-0.5887
10.43	-9.6625	-0.6127	0.0627	-0.0284	-0.0050	-0.0504	33.1600	-7.6102	-0.8966	-0.3931	0.6165	-0.3446	-0.5887
10.44	-9.6694	-0.6231	0.0545	-0.0315	-0.0041	-0.0581	33.0208	-7.5781	-0.9600	-0.3930	0.6166	-0.3446	-0.5887
10.45	-9.6865	-0.6351	0.0562	-0.0308	-0.0051	-0.0560	33.1552	-7.6515	-0.9145	-0.3930	0.6167	-0.3445	-0.5887
10.46	-9.6977	-0.6407	0.0483	-0.0382	-0.0114	-0.0524	33.1324	-7.6628	-0.9504	-0.3929	0.6167	-0.3445	-0.5888
10.47	-9.6758	-0.6548	0.0574	-0.0314	-0.0181	-0.0582	33.0397	-7.4882	-0.9170	-0.3928	0.6167	-0.3444	-0.5888
10.48	-9.6657	-0.6619	0.0684	-0.0325	-0.0118	-0.0574	32.9402	-7.4248	-0.9721	-0.3928	0.6168	-0.3444	-0.5889
10.49	-9.6653	-0.6649	0.0669	-0.0288	-0.0178	-0.0603	33.1041	-7.4222	-0.8670	-0.3928	0.6167	-0.3443	-0.5889
10.5	-9.6402	-0.6709	0.0710	-0.0290	-0.0247	-0.0582	33.1709	-7.4236	-0.8971	-0.3928	0.6168	-0.3443	-0.5889
10.51	-9.6217	-0.6761	0.0836	-0.0272	-0.0270	-0.0560	32.9787	-7.5039	-1.0589	-0.3928	0.6167	-0.3442	-0.5890
10.52	-9.6242	-0.6761	0.0870	-0.0229	-0.0130	-0.0570	33.1413	-7.6779	-1.0095	-0.3928	0.6168	-0.3441	-0.5890
10.53	-9.6144	-0.6738	0.0941	-0.0293	-0.0168	-0.0506	33.1755	-7.8311	-1.0325	-0.3927	0.6168	-0.3441	-0.5890
10.54	-9.6047	-0.6675	0.0997	-0.0287	-0.0171	-0.0535	33.1190	-7.6675	-1.0079	-0.3927	0.6167	-0.3440	-0.5890
10.55	-9.6049	-0.6647	0.0929	-0.0293	-0.0130	-0.0527	33.0973	-7.7097	-1.1522	-0.3927	0.6169	-0.3440	-0.5891
10.56	-9.6136	-0.6629	0.0983	-0.0281	-0.0207	-0.0477	33.0785	-7.5070	-0.9109	-0.3926	0.6168	-0.3439	-0.5891
10.57	-9.6294	-0.6655	0.0988	-0.0288	-0.0126	-0.0528	33.0853	-7.5847	-0.8007	-0.3926	0.6169	-0.3439	-0.5892
10.58	-9.6198	-0.6657	0.0953	-0.0295	-0.0090	-0.0455	33.0119	-7.6064	-0.9575	-0.3925	0.6168	-0.3439	-0.5891
10.59	-9.6239	-0.6641	0.0986	-0.0265	-0.0131	-0.0425	33.2797	-7.6106	-1.0439	-0.3925	0.6169	-0.3439	-0.5892
10.6	-9.6086	-0.6655	0.0829	-0.0180	-0.0108	-0.0410	33.1762	-7.7395	-0.9886	-0.3924	0.6169	-0.3439	-0.5892
10.61	-9.5942	-0.6609	0.0925	-0.0246	-0.0087	-0.0487	33.2686	-7.5848	-0.8147	-0.3924	0.6169	-0.3439	-0.5892
10.62	-9.6335	-0.6653	0.0868	-0.0261	0.0016	-0.0488	32.8765	-7.5276	-0.8806	-0.3924	0.6170	-0.3439	-0.5893
10.63	-9.6518	-0.6732	0.0813	-0.0165	-0.0036	-0.0502	32.7527	-7.3250	-0.7746	-0.3923	0.6170	-0.3439	-0.5892
10.64	-9.6386	-0.6644	0.0834	-0.0155	-0.0052	-0.0519	33.2651	-7.2107	-0.5944	-0.3923	0.6171	-0.3439	-0.5892
10.65	-9.6274	-0.6580	0.0827	-0.0090	-0.0078	-0.0517	33.5056	-7.3326	-0.8741	-0.3923	0.6170	-0.3439	-0.5891
10.66	-9.6433	-0.6385	0.0745	-0.0108	-0.0005	-0.0467	33.3077	-7.5038	-0.9437	-0.3923	0.6171	-0.3440	-0.5891
10.67	-9.6288	-0.6239	0.0780	-0.0143	-0.0069	-0.0491	33.0724	-7.4053	-1.0341	-0.3923	0.6171	-0.3440	-0.5891
10.68	-9.6033	-0.6299	0.0872	-0.0164	0.0016	-0.0450	32.8363	-7.3476	-1.0708	-0.3922	0.6171	-0.3440	-0.5890
10.69	-9.6347	-0.6448	0.0790	-0.0234	0.0053	-0.0504	33.0705	-7.4328	-0.9162	-0.3922	0.6172	-0.3441	-0.5890
10.7	-9.6595	-0.6496	0.0704	-0.0200	-0.0010	-0.0409	32.9942	-7.4373	-0.9903	-0.3921	0.6172	-0.3441	-0.5890
10.71	-9.6446	-0.6421	0.0828	-0.0157	-0.0121	-0.0387	33.2809	-7.5771	-1.0653	-0.3921	0.6172	-0.3441	-0.5890
10.72	-9.6744	-0.6447	0.0781	-0.0230	0.0022	-0.0354	33.2774	-7.6935	-0.9393	-0.3920	0.6171	-0.3442	-0.5890
10.73	-9.6621	-0.6518	0.0618	-0.0207	-0.0066	-0.0334	33.3122	-7.6628	-0.9260	-0.3919	0.6172	-0.3442	-0.5891
10.74	-9.6047	-0.6618	0.0640	-0.0256	-0.0111	-0.0416	33.0514	-7.7426	-0.9848	-0.3919	0.6172	-0.3442	-0.5891
10.75	-9.5917	-0.6746	0.0554	-0.0074	-0.0068	-0.0427	33.0768	-7.7377	-1.0771	-0.3919	0.6172	-0.3443	-0.5891
10.76	-9.6252	-0.6672	0.0496	-0.0074	0.0010	-0.0333	33.1230	-7.5527	-0.8199	-0.3918	0.6172	-0.3444	-0.5890
10.77	-9.6372	-0.6528	0.0349	-0.0040	0.0040	-0.0316	32.9869	-7.5156	-0.8712	-0.3917	0.6172	-0.3445	-0.5890
10.78	-9.6266	-0.6335	0.0340	0.0005	0.0060	-0.0321	33.0369	-7.4690	-0.8322	-0.3917	0.6172	-0.3447	-0.5890
10.79	-9.6399	-0.6035	0.0306	0.0078	0.0176	-0.0309	33.0133	-7.3034	-0.9578	-0.3916	0.6171	-0.3448	-0.5888
10.8	-9.6608	-0.5846	0.0253	0.0095	0.0124	-0.0437	33.0183	-7.5585	-0.8374	-0.3917	0.6172	-0.3450	-0.5888
10.81	-9.6690	-0.5728	0.0290	0.0082	0.0140	-0.0519	33.1910	-7.6087	-1.0142	-0.3917	0.6172	-0.3451	-0.5886
10.82	-9.6768	-0.5680	0.0235	0.0121	0.0043	-0.0537	33.1466	-7.5844	-0.7774	-0.3918	0.6173	-0.3452	-0.5886
10.83	-9.6728	-0.5519	0.0240	0.0019	0.0011	-0.0587	33.0026	-7.6089	-0.7397	-0.3918	0.6172	-0.3452	-0.5884
10.84	-9.6555	-0.5342	0.0279	0.0033	0.0029	-0.0558	33.0135	-7.5727	-1.0226	-0.3919	0.6173	-0.3453	-0.5884
10.85	-9.6546	-0.5247	0.0296	-0.0060	-0.0042	-0.0586	32.8712	-7.4737	-0.8525	-0.3919	0.6173	-0.3454	-0.5883
10.86	-9.6676	-0.5179	0.0229	-0.0200	-0.0061	-0.0577	33.0979	-7.5956	-0.8757	-0.3919	0.6173	-0.3453	-0.5882
10.87	-9.6630	-0.5188	0.0300	-0.0287	-0.0102	-0.0594	33.2303	-7.6057	-0.7098	-0.3919	0.6174	-0.3453	-0.5883
10.88	-9.6487	-0.5347	0.0217	-0.0330	-0.0047	-0.0622	33.0218	-7.4280	-0.8513	-0.3918	0.6174	-0.3452	-0.5883
10.89	-9.6533	-0.5518	0.0165	-0.0324	-0.0061	-0.0667	33.0519	-7.4710	-1.0010	-0.3918	0.6175	-0.3452	-0.5883
10.9	-9.6611	-0.5770	0.0144	-0.0403	-0.0115	-0.0585	32.8871	-7.6054	-0.8239	-0.3917	0.6175	-0.3450	-0.5882
10.91	-9.6654	-0.5981	0.0093	-0.0534	-0.0133	-0.0582	33.1105	-7.7169	-0.9805	-0.3917	0.6176	-0.3450	-0.5884
10.92	-9.6711	-0.6230	0.0127	-0.0527	-0.0141	-0.0621	33.1764	-7.7973	-0.9037	-0.3915	0.6177	-0.3448	-0.5884
10.93	-9.6857	-0.6532	0.0154	-0.0544	-0.0087	-0.0579	33.0677	-7.7149	-1.0327	-0.3914	0.6178	-0.3447	-0.5885
10.94	-9.6780	-0.6761	0.0117	-0.0507	-0.0119	-0.0563	33.2271	-7.4640	-1.0457	-0.3913	0.6179	-0.3446	-0.5886
10.95	-9.6504	-0.6923	0.0189	-0.0455	-0.0208	-0.0574	32.9285	-7.4296	-0.8901	-0.3912	0.6179	-0.3445	-0.5886
10.96	-9.6641	-0.7079	0.0192	-0.0423	-0.0242	-0.0595	33.1436	-7.5921	-0.8277	-0.3912	0.6179	-0.3444	-0.5887
10.97	-9.5894	-0.7003	0.0153	-0.0312	-0.0266	-0.0584	32.9924	-7.6072	-0.9513	-0.3911	0.6178	-0.3443	-0.5887
10.98	-9.6189	-0.6936	0.0517	-0.0279	-0.0174	-0.0604	33.0552	-7.5757	-0.8364	-0.3912	0.6179	-0.3442	-0.5888
10.99	-9.7179	-0.6888	0.0283	-0.0294	-0.0075	-0.0602	33.1009	-7.4832	-0.8589	-0.3911	0.6179	-0.3442	-0.5888
11	-9.6330	-0.6745	0.0497	-0.0232	-0.0267	-0.0630	32.9084	-7.5319	-0.8535	-0.3912	0.6179	-0.3441	-0.5889
11.01	-9.6257	-0.6880	0.0706	-0.0107	-0.0145	-0.0614	33.0277	-7.4010	-0.8552	-0.3912	0.6179	-0.3441	-0.5888
11.02	-9.6529	-0.6881	0.0470	-0.0266	-0.0105	-0.0542	33.0333	-7.5551	-0.8601	-0.3912	0.6179	-0.3441	-0.5889
11.03	-9.6441	-0.6843	0.0667	-0.0194	-0.0233	-0.0565	32.9648	-7.4490	-0.8228	-0.3912	0.6179	-0.3440	-0.5889
11.04	-9.6208	-0.6665	0.0660	-0.0093	-0.0216	-0.0416	32.9007	-7.7126	-0.6262	-0.3911	0.6178	-0.3440	-0.5889
11.05	-9.6200	-0.6414	0.0794	-0.0163	-0.0213	-0.0404	33.0547	-7.5475	-0.8172	-0.3912	0.6179	-0.3441	-0.5890
11.06	-9.6180	-0.6288	0.0700	-0.0047	-0.0130	-0.0440	33.1423	-7.3816	-0.9941	-0.3912	0.6178	-0.3441	-0.5890
11.07	-9.6317	-0.6311	0.0813	-0.0241	-0.0147	-0.0470	33.0336	-7.4402	-0.8842	-0.3912	0.6178	-0.3441	-0.5891
11.08	-9.6371	-0.6455	0.0717	-0.0187	-0.0068	-0.0571	33.0083	-7.4057	-0.7201	-0.3911	0.6178	-0.3440	-0.5890
11.09	-9.6212	-0.6513	0.0709	-0.0034	-0.0150	-0.0531	33.1511	-7.5477	-1.0765	-0.3912	0.6178	-0.3441	-0.5890
11.1	-9.6396	-0.6421	0.0819	-0.0076	-0.0128	-0.0510	33.2333	-7.6577	-1.0806	-0.3912	0.6178	-0.3441	-0.5890
11.11	-9.6484	-0.6318	0.0733	-0.0015	-0.0135	-0.0473	33.0953	-7.7038	-1.0294	-0.3912	0.6177	-0.3441	-0.5889
11.12	-9.6434	-0.6266	0.0794	-0.0083	-0.0124	-0.0413	33.1261	-7.6662	-0.9156	-0.3913	0.6178	-0.3442	-0.5890
11.13	-9.6570	-0.6287	0.0680	-0.0194	-0.0093	-0.0431	33.0776	-7.5710	-0.8525	-0.3912	0.6177	-0.3442	-0.5890
11.14	-9.6566	-0.6253	0.0660	-0.0284	-0.0118	-0.0440	33.4677	-7.6265	-0.7826	-0.3912	0.6178	-0.3442	-0.5890
11.15	-9.6313	-0.6335	0.0767	-0.0243	-0.0128	-0.0434	33.7941	-7.4042	-0.7496	-0.3911	0.6177	-0.3442	-0.5890
11.16	-9.6500	-0.6397	0.0622	-0.0259	-0.0120	-0.0452	33.3691	-7.4651	-0.8479	-0.3911	0.6178	-0.3442	-0.5891
11.17	-9.6728	-0.6400	0.0610	-0.0238	-0.0077	-0.0483	33.0622	-7.5461	-0.9752	-0.3910	0.6178	-0.3442	-0.5891
