time	acceleration_x	acceleration_y	acceleration_z	gyroscope_x	gyroscope_y	gyroscope_z	magnetometer_x	magnetometer_y	magnetometer_z	quaternion_w	quaternion_x	quaternion_y	quaternion_z
0	-9.7564	-0.0345	-1.6080	-0.0273	-0.0064	-0.0535	24.8026	-5.3260	8.4805	0.5346	-0.4401	0.6235	0.3627
0.01	-9.7593	-0.0376	-1.6156	-0.0281	-0.0011	-0.0559	24.7283	-5.1842	8.1280	0.5346	-0.4402	0.6236	0.3627
0.02	-9.7643	-0.0500	-1.6104	-0.0274	0.0002	-0.0555	24.6110	-5.3606	8.6101	0.5346	-0.4403	0.6236	0.3627
0.03	-9.7539	-0.0740	-1.6235	-0.0283	-0.0046	-0.0514	24.7597	-5.3773	8.4084	0.5345	-0.4403	0.6235	0.3627
0.04	-9.7583	-0.0850	-1.6143	-0.0269	-0.0075	-0.0572	24.6449	-5.3674	8.2680	0.5345	-0.4404	0.6235	0.3627
0.05	-9.7582	-0.0763	-1.6157	-0.0247	-0.0011	-0.0461	24.5273	-5.2471	8.4432	0.5345	-0.4405	0.6235	0.3627
0.06	-9.7646	-0.0797	-1.6100	-0.0234	0.0004	-0.0510	24.6438	-5.3513	8.5253	0.5345	-0.4405	0.6235	0.3627
0.07	-9.7835	-0.0932	-1.6192	-0.0258	-0.0005	-0.0525	24.6690	-5.3862	8.6951	0.5343	-0.4405	0.6235	0.3627
0.08	-9.7767	-0.0899	-1.6390	-0.0262	-0.0033	-0.0493	24.5329	-5.3477	8.5124	0.5344	-0.4407	0.6235	0.3627
0.09	-9.7597	-0.0921	-1.6294	-0.0205	-0.0080	-0.0430	24.9545	-5.2630	8.6586	0.5343	-0.4407	0.6235	0.3627
0.1	-9.7723	-0.0684	-1.6055	-0.0087	-0.0077	-0.0436	25.3195	-5.5567	8.5886	0.5343	-0.4407	0.6235	0.3627
0.11	-9.7666	-0.0761	-1.6299	-0.0120	-0.0112	-0.0466	25.1182	-5.5010	8.6387	0.5343	-0.4406	0.6235	0.3627
0.12	-9.7620	-0.0841	-1.6087	-0.0206	-0.0099	-0.0407	24.7813	-5.4167	8.5533	0.5343	-0.4406	0.6235	0.3627
0.13	-9.7593	-0.0774	-1.6099	-0.0155	-0.0109	-0.0415	24.7648	-5.5400	8.5819	0.5343	-0.4406	0.6236	0.3627
0.14	-9.7605	-0.0761	-1.6171	-0.0231	-0.0075	-0.0451	24.5769	-5.5603	8.5120	0.5342	-0.4406	0.6235	0.3627
0.15	-9.8009	-0.0766	-1.6102	-0.0112	-0.0062	-0.0436	24.7960	-5.3638	8.3656	0.5343	-0.4407	0.6236	0.3627
0.16	-9.7703	-0.0681	-1.6256	-0.0064	-0.0172	-0.0410	24.6793	-5.4161	8.4130	0.5343	-0.4406	0.6236	0.3627
0.17	-9.7613	-0.0754	-1.5985	-0.0087	-0.0126	-0.0374	24.4441	-5.5939	8.3797	0.5343	-0.4406	0.6237	0.3627
0.18	-9.7432	-0.0865	-1.5937	-0.0061	-0.0160	-0.0344	24.7454	-5.3089	8.4874	0.5343	-0.4405	0.6236	0.3627
0.19	-9.7306	-0.0760	-1.6093	-0.0037	-0.0074	-0.0319	24.7073	-5.3595	8.6245	0.5343	-0.4404	0.6237	0.3627
0.2	-9.7280	-0.0507	-1.6085	-0.0076	-0.0055	-0.0329	24.6608	-5.5250	8.4855	0.5343	-0.4404	0.6238	0.3627
0.21	-9.7480	-0.0148	-1.6147	-0.0041	-0.0004	-0.0340	24.5859	-5.4536	8.2483	0.5342	-0.4403	0.6238	0.3627
0.22	-9.7507	0.0002	-1.6291	-0.0139	-0.0085	-0.0407	24.7371	-5.3259	8.5549	0.5343	-0.4404	0.6239	0.3627
0.23	-9.7546	-0.0145	-1.6336	-0.0161	-0.0043	-0.0443	24.6972	-5.3530	8.5499	0.5342	-0.4403	0.6239	0.3627
0.24	-9.7673	-0.0208	-1.6615	-0.0072	-0.0024	-0.0516	24.7047	-5.5904	8.4495	0.5342	-0.4404	0.6239	0.3627
0.25	-9.7635	-0.0052	-1.6427	-0.0086	-0.0087	-0.0511	24.7785	-5.6156	8.6147	0.5342	-0.4403	0.6238	0.3626
0.26	-9.7658	-0.0084	-1.6460	-0.0171	-0.0055	-0.0539	24.9374	-5.6132	8.4404	0.5342	-0.4404	0.6239	0.3626
0.27	-9.7534	0.0074	-1.6559	-0.0151	-0.0063	-0.0474	24.6113	-5.3950	8.5814	0.5342	-0.4404	0.6239	0.3625
0.28	-9.7510	0.0093	-1.6313	-0.0253	-0.0083	-0.0526	24.4605	-5.3604	8.8015	0.5342	-0.4404	0.6239	0.3625
0.29	-9.7561	-0.0234	-1.6475	-0.0292	-0.0105	-0.0545	24.8616	-5.6870	8.6454	0.5342	-0.4405	0.6238	0.3626
0.3	-9.7735	-0.0327	-1.6487	-0.0262	-0.0053	-0.0526	24.7473	-5.5155	8.5694	0.5341	-0.4406	0.6238	0.3626
0.31	-9.7723	-0.0559	-1.6442	-0.0398	-0.0046	-0.0554	24.8879	-5.6062	8.3691	0.5341	-0.4407	0.6238	0.3626
0.32	-9.7897	-0.0888	-1.6495	-0.0340	-0.0031	-0.0539	24.8125	-5.5193	8.5850	0.5340	-0.4408	0.6237	0.3626
0.33	-9.7974	-0.0866	-1.6609	-0.0298	-0.0067	-0.0468	24.5593	-5.4358	8.6896	0.5340	-0.4409	0.6237	0.3627
0.34	-9.7986	-0.0907	-1.6446	-0.0313	-0.0063	-0.0430	24.6851	-5.5328	8.3353	0.5339	-0.4409	0.6237	0.3627
0.35	-9.8075	-0.0995	-1.6402	-0.0274	-0.0054	-0.0549	24.7165	-5.3103	8.2710	0.5339	-0.4410	0.6237	0.3627
0.36	-9.7966	-0.1208	-1.6596	-0.0248	-0.0164	-0.0436	24.6994	-5.4537	8.5026	0.5339	-0.4410	0.6236	0.3627
0.37	-9.7791	-0.1335	-1.6467	-0.0258	-0.0216	-0.0399	24.8394	-5.5448	8.7605	0.5339	-0.4410	0.6236	0.3628
0.38	-9.7776	-0.1102	-1.6229	-0.0140	-0.0266	-0.0421	24.7247	-5.4850	8.5221	0.5339	-0.4409	0.6236	0.3629
0.39	-9.8057	-0.0774	-1.6253	-0.0046	-0.0288	-0.0457	24.6874	-5.6338	8.4819	0.5340	-0.4408	0.6235	0.3628
0.4	-9.7793	-0.0812	-1.6040	-0.0034	-0.0317	-0.0484	24.8246	-5.5703	8.4882	0.5341	-0.4408	0.6235	0.3629
0.41	-9.7543	-0.0702	-1.5782	-0.0013	-0.0335	-0.0424	24.6153	-5.3964	8.5130	0.5342	-0.4407	0.6235	0.3629
0.42	-9.7339	-0.0671	-1.5868	-0.0032	-0.0261	-0.0444	24.6737	-5.4469	8.3923	0.5343	-0.4407	0.6235	0.3629
0.43	-9.7402	-0.0669	-1.5890	-0.0046	-0.0241	-0.0425	24.8239	-5.4317	8.4969	0.5343	-0.4406	0.6234	0.3629
0.44	-9.7209	-0.0436	-1.5780	-0.0083	-0.0282	-0.0366	24.6494	-5.5351	8.5933	0.5344	-0.4405	0.6234	0.3629
0.45	-9.7224	-0.0060	-1.5506	0.0012	-0.0253	-0.0379	24.6101	-5.5353	8.6024	0.5344	-0.4404	0.6234	0.3629
0.46	-9.7297	-0.0052	-1.5652	-0.0054	-0.0145	-0.0378	24.6114	-5.4271	8.4769	0.5344	-0.4403	0.6234	0.3629
0.47	-9.7316	-0.0418	-1.5824	-0.0129	-0.0163	-0.0388	24.7253	-5.5476	8.5218	0.5345	-0.4404	0.6235	0.3630
0.48	-9.7477	-0.0443	-1.5922	-0.0055	-0.0103	-0.0438	24.5566	-5.4727	8.4110	0.5345	-0.4403	0.6235	0.3629
0.49	-9.7376	-0.0445	-1.5925	-0.0111	-0.0092	-0.0476	24.9794	-5.4569	8.4819	0.5345	-0.4403	0.6235	0.3629
0.5	-9.7256	-0.0634	-1.5871	-0.0129	-0.0064	-0.0497	24.8758	-5.6494	8.3953	0.5345	-0.4403	0.6234	0.3629
0.51	-9.7286	-0.0611	-1.5941	-0.0055	-0.0055	-0.0496	24.7983	-5.5707	8.3216	0.5345	-0.4403	0.6235	0.3628
0.52	-9.7221	-0.0582	-1.6062	-0.0070	-0.0059	-0.0492	24.5522	-5.5107	8.3826	0.5345	-0.4403	0.6235	0.3628
0.53	-9.7318	-0.0555	-1.6016	-0.0159	-0.0035	-0.0507	24.6497	-5.5279	8.2577	0.5345	-0.4403	0.6235	0.3628
0.54	-9.7350	-0.0691	-1.6112	-0.0096	-0.0015	-0.0430	24.8390	-5.5245	8.4295	0.5345	-0.4404	0.6236	0.3627
0.55	-9.7293	-0.0843	-1.6030	-0.0073	-0.0023	-0.0380	24.7742	-5.3754	8.5279	0.5345	-0.4403	0.6236	0.3627
0.56	-9.7331	-0.0824	-1.6075	-0.0106	0.0038	-0.0454	24.8105	-5.3351	8.6052	0.5345	-0.4403	0.6237	0.3627
0.57	-9.7348	-0.0826	-1.6219	-0.0179	0.0086	-0.0461	24.7961	-5.3399	8.5585	0.5343	-0.4403	0.6237	0.3626
0.58	-9.7594	-0.0815	-1.6317	-0.0046	0.0109	-0.0443	24.6783	-5.4635	8.6001	0.5344	-0.4404	0.6238	0.3626
0.59	-9.7628	-0.0931	-1.6600	-0.0091	0.0098	-0.0431	24.9398	-5.3789	8.7273	0.5343	-0.4404	0.6239	0.3625
0.6	-9.7536	-0.0741	-1.6418	0.0051	0.0046	-0.0409	25.5070	-5.3171	8.8106	0.5343	-0.4404	0.6240	0.3624
0.61	-9.7722	-0.0918	-1.6545	-0.0010	0.0103	-0.0372	25.0140	-5.3506	8.6042	0.5342	-0.4403	0.6240	0.3623
0.62	-9.7688	-0.0760	-1.6723	0.0015	0.0047	-0.0402	24.5921	-5.3007	8.5419	0.5342	-0.4403	0.6241	0.3623
0.63	-9.7569	-0.0300	-1.6307	0.0033	-0.0014	-0.0382	24.3445	-5.1070	8.6892	0.5342	-0.4403	0.6242	0.3622
0.64	-9.7684	-0.0378	-1.6497	-0.0043	0.0034	-0.0426	24.6972	-5.2560	8.3528	0.5341	-0.4402	0.6242	0.3621
0.65	-9.7636	-0.0226	-1.6641	-0.0011	0.0057	-0.0370	24.5340	-5.5089	8.5539	0.5342	-0.4402	0.6244	0.3621
0.66	-9.7637	0.0047	-1.6429	-0.0066	-0.0021	-0.0376	24.6743	-5.6923	8.7430	0.5341	-0.4402	0.6244	0.3621
0.67	-9.7636	-0.0071	-1.6517	-0.0025	0.0027	-0.0368	25.0189	-5.7284	8.6029	0.5341	-0.4402	0.6245	0.3621
0.68	-9.7633	-0.0088	-1.6709	-0.0081	0.0016	-0.0436	24.6962	-5.6964	8.5895	0.5340	-0.4401	0.6245	0.3620
0.69	-9.7624	-0.0097	-1.6557	-0.0261	-0.0008	-0.0400	24.6925	-5.6283	8.6088	0.5340	-0.4402	0.6246	0.3620
0.7	-9.7742	-0.0202	-1.6714	-0.0276	-0.0004	-0.0369	24.9629	-5.7673	8.7565	0.5339	-0.4402	0.6246	0.3620
0.71	-9.7993	-0.0345	-1.6730	-0.0278	-0.0011	-0.0407	24.8487	-5.5530	8.4959	0.5338	-0.4402	0.6245	0.3621
0.72	-9.8038	-0.0459	-1.6805	-0.0278	-0.0017	-0.0424	24.7449	-5.4131	8.4993	0.5338	-0.4403	0.6246	0.3621
0.73	-9.7976	-0.0496	-1.6731	-0.0263	-0.0069	-0.0419	24.6185	-5.5038	8.6421	0.5338	-0.4403	0.6246	0.3621
0.74	-9.7957	-0.0596	-1.6665	-0.0228	-0.0115	-0.0421	24.7707	-5.3008	8.7554	0.5338	-0.4403	0.6246	0.3622
0.75	-9.7975	-0.0634	-1.6688	-0.0282	-0.0122	-0.0477	24.6674	-5.2586	8.7864	0.5337	-0.4403	0.6245	0.3622
0.76	-9.8067	-0.0717	-1.6574	-0.0232	-0.0137	-0.0450	24.4457	-5.3853	8.7519	0.5337	-0.4404	0.6245	0.3622
0.77	-9.7852	-0.0831	-1.6568	-0.0174	-0.0207	-0.0425	24.5295	-5.2010	8.6214	0.5337	-0.4403	0.6245	0.3623
0.78	-9.7608	-0.0664	-1.6314	-0.0087	-0.0217	-0.0437	24.6882	-5.4479	8.4984	0.5338	-0.4403	0.6245	0.3623
0.79	-9.7615	-0.0398	-1.6166	-0.0040	-0.0229	-0.0458	24.6301	-5.5526	8.4989	0.5338	-0.4403	0.6245	0.3623
0.8	-9.7479	-0.0468	-1.6163	-0.0171	-0.0257	-0.0472	24.7444	-5.3997	8.4989	0.5339	-0.4402	0.6244	0.3623
0.81	-9.7403	-0.0497	-1.5894	-0.0165	-0.0221	-0.0474	24.6745	-5.3288	8.4968	0.5339	-0.4402	0.6244	0.3624
0.82	-9.7393	-0.0461	-1.5910	-0.0097	-0.0169	-0.0452	24.7682	-5.4791	8.4906	0.5339	-0.4402	0.6243	0.3623
0.83	-9.7666	-0.0516	-1.5860	-0.0142	-0.0099	-0.0384	24.7077	-5.3047	8.6186	0.5340	-0.4402	0.6244	0.3624
0.84	-9.7644	-0.0564	-1.5926	-0.0095	-0.0172	-0.0379	24.5846	-5.6344	8.7217	0.5340	-0.4401	0.6244	0.3624
0.85	-9.7653	-0.0522	-1.5742	-0.0220	-0.0285	-0.0398	24.9691	-5.7365	8.6144	0.5340	-0.4401	0.6244	0.3624
0.86	-9.7554	-0.0568	-1.5839	-0.0200	-0.0203	-0.0384	24.9202	-5.7281	8.4939	0.5340	-0.4401	0.6243	0.3625
0.87	-9.7259	-0.0696	-1.5819	-0.0237	-0.0166	-0.0361	24.9306	-5.2831	8.4996	0.5340	-0.4400	0.6243	0.3626
0.88	-9.7268	-0.0605	-1.5755	-0.0172	-0.0186	-0.0328	24.7639	-5.3936	8.4966	0.5340	-0.4400	0.6243	0.3626
0.89	-9.7131	-0.0554	-1.5862	-0.0153	-0.0091	-0.0351	24.7364	-5.4620	8.4986	0.5339	-0.4399	0.6243	0.3626
0.9	-9.7191	-0.0364	-1.5828	-0.0127	-0.0109	-0.0317	24.8876	-5.4743	8.5027	0.5340	-0.4399	0.6244	0.3627
0.91	-9.7309	-0.0142	-1.5924	-0.0048	-0.0021	-0.0348	24.7795	-5.6646	8.4966	0.5339	-0.4399	0.6244	0.3627
0.92	-9.7328	-0.0244	-1.5989	-0.0185	-0.0037	-0.0369	24.7660	-5.6331	8.5515	0.5339	-0.4399	0.6245	0.3627
0.93	-9.7381	-0.0329	-1.6056	-0.0170	0.0013	-0.0415	24.6507	-5.5138	8.7314	0.5338	-0.4399	0.6245	0.3626
0.94	-9.7598	-0.0249	-1.6243	-0.0184	0.0019	-0.0438	24.5774	-5.4801	8.4980	0.5338	-0.4399	0.6245	0.3627
0.95	-9.7612	-0.0157	-1.6242	-0.0156	0.0059	-0.0435	24.7170	-5.5044	8.7745	0.5337	-0.4399	0.6246	0.3626
0.96	-9.7615	-0.0001	-1.6262	-0.0116	0.0031	-0.0417	24.5664	-5.4390	8.6097	0.5337	-0.4399	0.6246	0.3626
0.97	-9.7732	-0.0032	-1.6420	-0.0266	0.0010	-0.0505	24.5837	-5.3448	8.5838	0.5337	-0.4400	0.6247	0.3626
0.98	-9.7741	-0.0056	-1.6547	-0.0276	0.0009	-0.0444	24.4368	-5.2760	8.8498	0.5336	-0.4400	0.6246	0.3626
0.99	-9.7896	-0.0035	-1.6427	-0.0273	0.0094	-0.0464	24.6133	-5.4232	8.6813	0.5335	-0.4401	0.6247	0.3626
1	-9.7846	-0.0201	-1.6611	-0.0278	-0.0036	-0.0461	24.8058	-5.2332	8.5909	0.5334	-0.4401	0.6246	0.3626
1.01	-9.7989	-0.0425	-1.6503	-0.0266	-0.0011	-0.0458	24.5828	-5.3156	8.6912	0.5334	-0.4402	0.6247	0.3626
1.02	-9.7996	-0.0468	-1.6399	-0.0279	-0.0072	-0.0429	24.6588	-5.2087	8.4893	0.5334	-0.4403	0.6246	0.3627
1.03	-9.7929	-0.0562	-1.6348	-0.0271	-0.0139	-0.0429	24.8823	-5.5014	8.5684	0.5333	-0.4403	0.6246	0.3627
1.04	-9.7765	-0.0725	-1.6376	-0.0285	-0.0112	-0.0400	24.7289	-5.8398	8.6305	0.5333	-0.4403	0.6246	0.3628
1.05	-9.7588	-0.0748	-1.6591	-0.0247	-0.0197	-0.0446	24.7651	-5.5436	8.5491	0.5333	-0.4403	0.6246	0.3628
1.06	-9.7325	-0.0687	-1.6368	-0.0200	-0.0139	-0.0377	24.7518	-5.7258	8.7029	0.5333	-0.4403	0.6246	0.3629
1.07	-9.7688	-0.0497	-1.6025	-0.0176	-0.0091	-0.0341	24.7471	-5.6375	8.5865	0.5332	-0.4402	0.6245	0.3629
1.08	-9.7770	-0.0512	-1.6484	-0.0221	-0.0125	-0.0446	24.8709	-5.5966	8.5087	0.5333	-0.4403	0.6246	0.3629
1.09	-9.7509	-0.0752	-1.6285	-0.0193	-0.0165	-0.0524	25.1573	-5.3622	8.7942	0.5333	-0.4403	0.6245	0.3629
1.1	-9.7605	-0.0766	-1.6030	-0.0065	-0.0124	-0.0507	25.5298	-5.3414	9.0263	0.5333	-0.4403	0.6245	0.3629
1.11	-9.7662	-0.0824	-1.6224	-0.0054	-0.0085	-0.0416	25.1458	-5.3925	8.6001	0.5333	-0.4402	0.6245	0.3629
1.12	-9.7728	-0.0757	-1.6222	-0.0033	-0.0145	-0.0371	24.8564	-5.4838	8.4678	0.5333	-0.4402	0.6246	0.3629
1.13	-9.7630	-0.0378	-1.6066	-0.0037	-0.0106	-0.0312	24.6180	-5.3286	8.5771	0.5334	-0.4401	0.6246	0.3629
1.14	-9.7609	-0.0166	-1.6045	-0.0060	-0.0119	-0.0419	24.6921	-5.4446	8.4550	0.5333	-0.4400	0.6246	0.3628
1.15	-9.7511	-0.0377	-1.6140	-0.0015	-0.0152	-0.0452	24.5947	-5.2972	8.6468	0.5334	-0.4401	0.6247	0.3629
1.16	-9.7627	-0.0416	-1.6136	-0.0023	-0.0063	-0.0456	24.6079	-5.5346	8.3748	0.5334	-0.4400	0.6247	0.3628
1.17	-9.7679	-0.0362	-1.6226	-0.0006	-0.0075	-0.0424	24.5841	-5.6409	8.2896	0.5335	-0.4400	0.6248	0.3628
1.18	-9.7626	-0.0263	-1.6053	-0.0020	-0.0086	-0.0428	24.7064	-5.4774	8.4350	0.5334	-0.4399	0.6247	0.3627
1.19	-9.7623	-0.0286	-1.6184	-0.0144	-0.0112	-0.0471	24.6692	-5.5422	8.3940	0.5335	-0.4399	0.6248	0.3627
1.2	-9.7633	-0.0277	-1.6059	-0.0156	-0.0202	-0.0446	24.7503	-5.4234	8.4555	0.5335	-0.4399	0.6247	0.3627
1.21	-9.7628	-0.0228	-1.5964	-0.0110	-0.0167	-0.0363	24.7964	-5.1754	8.6050	0.5335	-0.4398	0.6247	0.3627
1.22	-9.7601	-0.0211	-1.5929	-0.0066	-0.0108	-0.0405	24.7728	-5.5978	8.4954	0.5336	-0.4399	0.6248	0.3628
1.23	-9.7581	-0.0337	-1.6003	-0.0135	-0.0092	-0.0426	24.9216	-5.6782	8.3670	0.5335	-0.4398	0.6248	0.3627
1.24	-9.7514	-0.0439	-1.5869	-0.0279	-0.0164	-0.0383	24.7785	-5.5369	8.5217	0.5336	-0.4398	0.6248	0.3628
1.25	-9.7562	-0.0564	-1.6084	-0.0214	-0.0146	-0.0389	24.7809	-5.7320	8.4087	0.5335	-0.4398	0.6247	0.3628
1.26	-9.7599	-0.0530	-1.6140	-0.0012	-0.0120	-0.0437	24.8781	-5.5142	8.3204	0.5336	-0.4398	0.6248	0.3628
1.27	-9.7692	-0.0203	-1.5879	-0.0108	-0.0068	-0.0420	24.7089	-5.5723	8.4580	0.5335	-0.4397	0.6248	0.3628
1.28	-9.7811	-0.0627	-1.6322	-0.0231	-0.0076	-0.0451	24.6245	-5.5455	8.3749	0.5335	-0.4398	0.6247	0.3628
1.29	-9.7695	-0.0472	-1.6155	-0.0048	-0.0131	-0.0395	24.4765	-5.3879	8.5402	0.5335	-0.4397	0.6248	0.3628
1.3	-9.7605	-0.0097	-1.5898	-0.0014	-0.0137	-0.0368	24.8255	-5.7061	8.6019	0.5336	-0.4397	0.6248	0.3628
1.31	-9.7610	-0.0446	-1.6072	-0.0057	-0.0136	-0.0413	24.6346	-5.6222	8.4072	0.5336	-0.4396	0.6249	0.3628
1.32	-9.7625	-0.0345	-1.6046	-0.0037	-0.0080	-0.0436	24.5914	-5.5111	8.4177	0.5336	-0.4395	0.6248	0.3627
1.33	-9.7583	-0.0037	-1.5969	-0.0038	-0.0208	-0.0454	24.5879	-5.4912	8.5106	0.5337	-0.4395	0.6249	0.3628
1.34	-9.7537	-0.0048	-1.5882	-0.0087	-0.0093	-0.0466	24.6626	-5.5472	8.6808	0.5337	-0.4395	0.6248	0.3627
1.35	-9.7656	-0.0139	-1.5915	-0.0062	-0.0094	-0.0468	24.6392	-5.3645	8.3877	0.5337	-0.4395	0.6249	0.3627
1.36	-9.7566	-0.0046	-1.5981	-0.0062	-0.0070	-0.0454	24.5841	-5.2167	8.4523	0.5337	-0.4395	0.6249	0.3626
1.37	-9.7519	-0.0035	-1.6026	-0.0042	-0.0054	-0.0441	24.4843	-5.5183	8.4340	0.5337	-0.4395	0.6249	0.3626
1.38	-9.7515	-0.0142	-1.6123	-0.0055	-0.0031	-0.0549	24.5760	-5.6646	8.5456	0.5338	-0.4395	0.6249	0.3626
1.39	-9.7469	-0.0209	-1.6070	-0.0112	-0.0081	-0.0433	24.6075	-5.3833	8.5368	0.5337	-0.4394	0.6249	0.3625
1.4	-9.7623	-0.0242	-1.5932	-0.0094	-0.0102	-0.0410	24.7058	-5.5708	8.2971	0.5338	-0.4395	0.6250	0.3625
1.41	-9.7617	-0.0349	-1.6072	-0.0197	-0.0072	-0.0465	24.5253	-5.6897	8.5872	0.5337	-0.4394	0.6250	0.3625
1.42	-9.7612	-0.0433	-1.6038	-0.0161	-0.0118	-0.0539	24.7786	-5.5346	8.4558	0.5338	-0.4395	0.6250	0.3625
1.43	-9.7627	-0.0403	-1.6069	-0.0194	-0.0075	-0.0487	24.7615	-5.7226	8.6385	0.5337	-0.4395	0.6249	0.3625
1.44	-9.7588	-0.0448	-1.6109	-0.0176	-0.0073	-0.0451	24.8289	-5.7618	8.3370	0.5337	-0.4395	0.6249	0.3625
1.45	-9.7566	-0.0234	-1.6047	-0.0224	-0.0074	-0.0433	24.8055	-5.6188	8.5211	0.5337	-0.4395	0.6249	0.3625
1.46	-9.7669	-0.0248	-1.6150	-0.0228	-0.0060	-0.0503	24.5397	-5.5222	8.4147	0.5337	-0.4395	0.6249	0.3625
1.47	-9.7591	-0.0479	-1.6228	-0.0260	-0.0090	-0.0529	24.7498	-5.3950	8.5067	0.5337	-0.4397	0.6249	0.3626
1.48	-9.7495	-0.0479	-1.6078	-0.0265	-0.0125	-0.0488	24.7683	-5.4428	8.5109	0.5337	-0.4397	0.6248	0.3626
1.49	-9.7855	-0.0590	-1.6079	-0.0271	-0.0122	-0.0485	24.5894	-5.3846	8.4918	0.5337	-0.4397	0.6248	0.3626
1.5	-9.7887	-0.0596	-1.6241	-0.0292	-0.0132	-0.0488	24.6888	-5.5454	8.5165	0.5336	-0.4397	0.6247	0.3626
1.51	-9.8039	-0.0468	-1.5972	-0.0261	-0.0146	-0.0518	24.7003	-5.4484	8.6006	0.5337	-0.4398	0.6247	0.3627
1.52	-9.7942	-0.0591	-1.5998	-0.0258	-0.0191	-0.0510	24.8426	-5.4756	8.6167	0.5337	-0.4398	0.6246	0.3627
1.53	-9.7633	-0.0887	-1.6068	-0.0228	-0.0211	-0.0469	24.6110	-5.4471	8.5137	0.5337	-0.4398	0.6246	0.3628
1.54	-9.7613	-0.0760	-1.5898	-0.0173	-0.0165	-0.0350	24.5016	-5.4157	8.4042	0.5337	-0.4398	0.6246	0.3628
1.55	-9.7395	-0.0521	-1.6079	-0.0164	-0.0170	-0.0313	24.6397	-5.3991	8.5280	0.5337	-0.4397	0.6246	0.3629
1.56	-9.7251	-0.0423	-1.5959	-0.0190	-0.0174	-0.0365	24.5708	-5.3019	8.4933	0.5337	-0.4397	0.6246	0.3629
1.57	-9.7371	-0.0153	-1.5914	-0.0113	-0.0025	-0.0435	24.7049	-5.3472	8.4957	0.5337	-0.4397	0.6246	0.3629
1.58	-9.7554	-0.0310	-1.6207	-0.0020	-0.0067	-0.0445	24.6793	-5.4286	8.5226	0.5337	-0.4397	0.6247	0.3629
1.59	-9.7424	-0.0457	-1.6217	-0.0081	-0.0077	-0.0445	24.8884	-5.2480	8.6162	0.5337	-0.4396	0.6247	0.3628
1.6	-9.7474	-0.0225	-1.6065	-0.0046	-0.0108	-0.0419	25.0623	-5.2890	8.5860	0.5338	-0.4396	0.6247	0.3628
1.61	-9.7472	-0.0172	-1.5996	-0.0010	-0.0132	-0.0379	24.9999	-5.4641	8.5837	0.5338	-0.4395	0.6247	0.3628
1.62	-9.7393	-0.0138	-1.6059	-0.0071	-0.0106	-0.0388	24.9208	-5.5922	8.6619	0.5338	-0.4395	0.6247	0.3628
1.63	-9.7469	-0.0102	-1.6079	-0.0125	-0.0090	-0.0413	24.6427	-5.6201	8.5945	0.5338	-0.4395	0.6248	0.3628
1.64	-9.7460	-0.0046	-1.6120	-0.0153	-0.0094	-0.0445	24.7526	-5.7361	8.5797	0.5338	-0.4394	0.6247	0.3628
1.65	-9.7616	-0.0151	-1.6277	-0.0149	-0.0060	-0.0464	24.7456	-5.6896	8.5712	0.5338	-0.4395	0.6248	0.3628
1.66	-9.7595	-0.0191	-1.6226	-0.0209	-0.0008	-0.0470	24.7409	-5.5991	8.4460	0.5338	-0.4395	0.6247	0.3628
1.67	-9.7758	-0.0222	-1.6332	-0.0207	-0.0059	-0.0413	24.7596	-5.4198	8.5499	0.5338	-0.4396	0.6248	0.3628
1.68	-9.7794	-0.0305	-1.6434	-0.0257	-0.0050	-0.0478	24.6506	-5.5760	8.6897	0.5337	-0.4395	0.6247	0.3628
1.69	-9.7856	-0.0387	-1.6447	-0.0255	-0.0010	-0.0465	24.6525	-5.4664	8.6373	0.5337	-0.4396	0.6247	0.3628
1.7	-9.8006	-0.0358	-1.6606	-0.0283	-0.0054	-0.0455	24.8548	-5.3441	8.5406	0.5336	-0.4397	0.6247	0.3629
1.71	-9.7859	-0.0516	-1.6607	-0.0281	-0.0058	-0.0469	24.7466	-5.2861	8.6023	0.5336	-0.4397	0.6247	0.3629
1.72	-9.7377	-0.0492	-1.6398	-0.0276	-0.0163	-0.0430	24.6629	-5.2788	8.4283	0.5336	-0.4397	0.6247	0.3630
1.73	-9.7735	-0.0256	-1.6189	-0.0238	-0.0058	-0.0449	24.7555	-5.3808	8.5573	0.5335	-0.4397	0.6247	0.3630
1.74	-9.8117	-0.0248	-1.6513	-0.0245	-0.0023	-0.0542	24.5479	-5.3715	8.7428	0.5336	-0.4398	0.6247	0.3630
1.75	-9.7723	-0.0448	-1.6210	-0.0223	-0.0130	-0.0536	24.6485	-5.2595	8.4205	0.5335	-0.4398	0.6246	0.3630
1.76	-9.7542	-0.0594	-1.5861	-0.0199	-0.0129	-0.0516	24.8012	-5.3051	8.6514	0.5336	-0.4399	0.6246	0.3630
1.77	-9.7614	-0.0666	-1.6084	-0.0278	-0.0114	-0.0438	24.6471	-5.3566	8.6096	0.5335	-0.4399	0.6245	0.3630
1.78	-9.7602	-0.0741	-1.6155	-0.0265	-0.0191	-0.0408	24.7894	-5.4744	8.5620	0.5335	-0.4399	0.6245	0.3631
1.79	-9.7618	-0.0340	-1.5871	-0.0182	-0.0169	-0.0421	25.0559	-5.8660	8.5849	0.5336	-0.4399	0.6245	0.3631
1.8	-9.7612	-0.0091	-1.6012	-0.0259	-0.0155	-0.0399	24.7201	-5.6164	8.4568	0.5335	-0.4399	0.6244	0.3632
1.81	-9.7622	-0.0427	-1.6031	-0.0277	-0.0064	-0.0443	24.7992	-5.6836	8.5025	0.5335	-0.4399	0.6245	0.3633
1.82	-9.7841	-0.0507	-1.6152	-0.0223	-0.0147	-0.0454	24.9470	-5.7410	8.4742	0.5335	-0.4399	0.6244	0.3632
1.83	-9.7840	-0.0555	-1.6142	-0.0050	-0.0178	-0.0503	24.6800	-5.5712	8.6046	0.5336	-0.4399	0.6244	0.3633
1.84	-9.7682	-0.0380	-1.5969	-0.0165	-0.0242	-0.0500	24.6739	-5.5463	8.5669	0.5336	-0.4399	0.6243	0.3633
1.85	-9.7750	-0.0487	-1.5928	-0.0096	-0.0233	-0.0404	24.8509	-5.4638	8.8311	0.5337	-0.4398	0.6243	0.3633
1.86	-9.7716	-0.0466	-1.5887	-0.0056	-0.0207	-0.0434	24.8219	-5.4288	8.4898	0.5337	-0.4398	0.6243	0.3633
1.87	-9.7603	-0.0311	-1.5677	-0.0096	-0.0354	-0.0410	24.8573	-5.7181	8.5765	0.5338	-0.4397	0.6242	0.3633
1.88	-9.7434	-0.0321	-1.5588	-0.0125	-0.0213	-0.0395	24.9523	-5.4673	8.6386	0.5339	-0.4397	0.6242	0.3634
1.89	-9.7237	-0.0283	-1.5487	-0.0132	-0.0196	-0.0372	24.5244	-5.4508	8.5474	0.5338	-0.4396	0.6242	0.3634
1.9	-9.7270	-0.0211	-1.5444	-0.0252	-0.0130	-0.0430	24.5091	-5.4343	8.6671	0.5339	-0.4396	0.6242	0.3635
1.91	-9.7378	-0.0320	-1.5565	-0.0260	-0.0092	-0.0379	24.7015	-5.0527	8.5635	0.5338	-0.4396	0.6242	0.3635
1.92	-9.7498	-0.0290	-1.5516	-0.0285	-0.0062	-0.0412	24.6455	-5.4406	8.7227	0.5338	-0.4397	0.6242	0.3636
1.93	-9.7376	-0.0271	-1.5626	-0.0263	-0.0071	-0.0404	24.6510	-5.4601	8.5393	0.5337	-0.4396	0.6241	0.3636
1.94	-9.7642	-0.0416	-1.5570	-0.0221	-0.0053	-0.0406	24.6855	-5.3234	8.5884	0.5337	-0.4397	0.6242	0.3636
1.95	-9.7809	-0.0395	-1.5857	-0.0254	-0.0031	-0.0411	24.7482	-5.2279	8.5544	0.5337	-0.4397	0.6242	0.3637
1.96	-9.7777	-0.0429	-1.5844	-0.0149	-0.0072	-0.0452	24.5135	-5.4310	8.5838	0.5336	-0.4397	0.6241	0.3637
1.97	-9.7620	-0.0463	-1.5749	-0.0219	-0.0060	-0.0406	24.7157	-5.6613	8.5655	0.5337	-0.4397	0.6242	0.3637
1.98	-9.7720	-0.0400	-1.5846	-0.0124	-0.0076	-0.0367	24.7182	-5.6088	8.4526	0.5336	-0.4397	0.6242	0.3637
1.99	-9.7812	-0.0301	-1.5866	-0.0072	-0.0070	-0.0424	24.8411	-5.6349	8.5457	0.5337	-0.4397	0.6243	0.3637
2	-9.7555	-0.0219	-1.5839	-0.0085	-0.0072	-0.0438	24.7280	-5.6194	8.6922	0.5336	-0.4396	0.6242	0.3636
2.01	-9.7634	-0.0078	-1.5813	-0.0053	-0.0109	-0.0415	24.7816	-5.5164	8.6404	0.5337	-0.4396	0.6243	0.3637
2.02	-9.7635	-0.0184	-1.5900	-0.0052	-0.0056	-0.0482	24.8106	-5.5572	8.5503	0.5337	-0.4396	0.6243	0.3636
2.03	-9.7599	-0.0144	-1.5878	-0.0049	-0.0113	-0.0483	24.7085	-5.4543	8.5914	0.5337	-0.4395	0.6243	0.3636
2.04	-9.7602	-0.0078	-1.5548	-0.0014	-0.0135	-0.0451	24.7725	-5.5303	8.5570	0.5338	-0.4395	0.6243	0.3636
2.05	-9.7560	-0.0104	-1.5638	-0.0064	-0.0101	-0.0494	24.7201	-5.4309	8.5989	0.5338	-0.4395	0.6243	0.3635
2.06	-9.7666	-0.0229	-1.5754	-0.0174	-0.0100	-0.0468	24.7829	-5.4555	8.5225	0.5338	-0.4395	0.6243	0.3635
2.07	-9.7683	-0.0194	-1.5672	-0.0267	-0.0017	-0.0505	24.6287	-5.4401	8.7848	0.5337	-0.4395	0.6242	0.3635
2.08	-9.7532	-0.0138	-1.5792	-0.0232	0.0055	-0.0496	24.6906	-5.5608	8.7207	0.5337	-0.4396	0.6243	0.3635
2.09	-9.7375	-0.0194	-1.5891	-0.0205	0.0038	-0.0466	25.0790	-5.3416	8.6908	0.5337	-0.4397	0.6243	0.3635
2.1	-9.7657	-0.0003	-1.5869	-0.0290	0.0118	-0.0487	25.1416	-5.1583	8.7852	0.5336	-0.4397	0.6243	0.3635
2.11	-9.7782	-0.0244	-1.6020	-0.0266	0.0095	-0.0543	24.8972	-5.2862	8.7419	0.5335	-0.4398	0.6243	0.3635
2.12	-9.7586	-0.0490	-1.6042	-0.0282	0.0008	-0.0566	24.7048	-5.4878	8.7342	0.5335	-0.4399	0.6243	0.3634
2.13	-9.7873	-0.0449	-1.5892	-0.0264	0.0025	-0.0557	24.5553	-5.3534	8.5686	0.5335	-0.4400	0.6243	0.3634
2.14	-9.8149	-0.0466	-1.5978	-0.0289	0.0024	-0.0506	24.5129	-5.4197	8.6228	0.5334	-0.4400	0.6242	0.3634
2.15	-9.8276	-0.0569	-1.5919	-0.0222	-0.0127	-0.0469	24.6222	-5.5054	8.4302	0.5334	-0.4401	0.6243	0.3635
2.16	-9.8086	-0.0576	-1.5871	-0.0198	-0.0118	-0.0490	24.9269	-5.6899	8.4692	0.5334	-0.4401	0.6242	0.3634
2.17	-9.7722	-0.0740	-1.5891	-0.0247	-0.0151	-0.0511	24.9395	-5.5532	8.7248	0.5335	-0.4402	0.6242	0.3635
2.18	-9.7593	-0.0875	-1.5957	-0.0225	-0.0138	-0.0471	24.6573	-5.3806	8.5711	0.5334	-0.4402	0.6241	0.3635
2.19	-9.7552	-0.0732	-1.5897	-0.0099	-0.0071	-0.0411	24.9563	-5.6663	8.5920	0.5334	-0.4402	0.6242	0.3635
2.2	-9.7259	-0.0539	-1.5856	-0.0182	-0.0107	-0.0392	24.7759	-5.5054	8.6119	0.5334	-0.4401	0.6242	0.3635
2.21	-9.7279	-0.0393	-1.5859	-0.0082	-0.0119	-0.0386	24.8667	-5.5052	8.4945	0.5334	-0.4401	0.6241	0.3635
2.22	-9.7406	-0.0316	-1.5967	-0.0183	-0.0047	-0.0440	24.8896	-5.5014	8.5098	0.5335	-0.4401	0.6242	0.3636
2.23	-9.7416	-0.0441	-1.5976	-0.0188	-0.0082	-0.0442	24.7188	-5.3679	8.6093	0.5334	-0.4401	0.6242	0.3636
2.24	-9.7556	-0.0412	-1.5958	-0.0109	-0.0086	-0.0460	24.6945	-5.5112	8.5829	0.5335	-0.4401	0.6242	0.3636
2.25	-9.7518	-0.0385	-1.6032	-0.0177	0.0002	-0.0485	24.7024	-5.4214	8.5902	0.5334	-0.4401	0.6241	0.3635
2.26	-9.7565	-0.0202	-1.5968	-0.0112	0.0048	-0.0460	24.5833	-5.2942	8.4737	0.5334	-0.4402	0.6242	0.3635
2.27	-9.7573	-0.0193	-1.6075	-0.0129	-0.0039	-0.0412	24.8164	-5.3906	8.4981	0.5334	-0.4401	0.6242	0.3635
2.28	-9.7511	-0.0314	-1.6102	-0.0179	-0.0015	-0.0494	24.6409	-5.7233	8.5101	0.5333	-0.4402	0.6242	0.3635
2.29	-9.7482	-0.0233	-1.6041	-0.0136	0.0047	-0.0523	24.4788	-5.5448	8.4738	0.5333	-0.4402	0.6243	0.3634
2.3	-9.7464	-0.0327	-1.6097	-0.0167	0.0066	-0.0513	24.5693	-5.5406	8.6925	0.5333	-0.4403	0.6243	0.3634
2.31	-9.7632	-0.0379	-1.6134	-0.0267	0.0034	-0.0498	24.8388	-5.5677	8.8038	0.5333	-0.4403	0.6243	0.3634
2.32	-9.7638	-0.0403	-1.6143	-0.0256	0.0028	-0.0472	24.5958	-5.3756	8.7625	0.5332	-0.4403	0.6242	0.3633
2.33	-9.7829	-0.0475	-1.6255	-0.0194	0.0019	-0.0449	24.5103	-5.6544	8.7704	0.5332	-0.4404	0.6243	0.3634
2.34	-9.7709	-0.0507	-1.6334	-0.0249	-0.0017	-0.0419	24.5169	-5.3677	8.6255	0.5331	-0.4404	0.6243	0.3634
2.35	-9.7724	-0.0554	-1.6276	-0.0266	-0.0071	-0.0455	24.8525	-5.3022	8.4908	0.5331	-0.4405	0.6243	0.3634
2.36	-9.7647	-0.0617	-1.6375	-0.0274	-0.0056	-0.0425	24.9853	-5.4289	8.5022	0.5330	-0.4405	0.6243	0.3635
2.37	-9.7364	-0.0598	-1.6322	-0.0239	-0.0090	-0.0446	24.8439	-5.5368	8.7408	0.5330	-0.4405	0.6243	0.3635
2.38	-9.7775	-0.0427	-1.6031	-0.0198	0.0017	-0.0428	24.8747	-5.6315	8.6206	0.5330	-0.4405	0.6243	0.3635
2.39	-9.8044	-0.0441	-1.6241	-0.0232	-0.0058	-0.0461	24.5724	-5.4835	8.5395	0.5329	-0.4405	0.6242	0.3635
2.4	-9.7665	-0.0731	-1.6128	-0.0245	-0.0117	-0.0427	24.6413	-5.5287	8.8727	0.5330	-0.4406	0.6243	0.3636
2.41	-9.7251	-0.0778	-1.5808	-0.0227	-0.0118	-0.0458	24.5563	-5.5929	8.7728	0.5329	-0.4406	0.6242	0.3636
2.42	-9.7536	-0.0783	-1.5977	-0.0242	-0.0075	-0.0383	24.7712	-5.3852	8.6506	0.5330	-0.4406	0.6243	0.3637
2.43	-9.7466	-0.0742	-1.6197	-0.0178	-0.0081	-0.0410	24.7934	-5.5213	8.6829	0.5329	-0.4406	0.6242	0.3636
2.44	-9.7293	-0.0194	-1.5849	-0.0132	-0.0007	-0.0439	24.6818	-5.4873	8.7121	0.5329	-0.4406	0.6242	0.3636
2.45	-9.7528	-0.0156	-1.6022	-0.0150	0.0096	-0.0427	24.6694	-5.3409	8.5659	0.5328	-0.4406	0.6243	0.3636
2.46	-9.7660	-0.0439	-1.6296	-0.0116	0.0141	-0.0500	24.5511	-5.3572	8.4419	0.5328	-0.4406	0.6243	0.3635
2.47	-9.7885	-0.0413	-1.6273	-0.0085	0.0132	-0.0513	24.8626	-5.7793	8.7388	0.5328	-0.4407	0.6244	0.3635
2.48	-9.7852	-0.0368	-1.6405	-0.0026	0.0111	-0.0513	24.6939	-5.5435	8.6612	0.5327	-0.4407	0.6244	0.3634
2.49	-9.7860	-0.0343	-1.6410	-0.0142	0.0034	-0.0515	24.8039	-5.5683	8.7024	0.5327	-0.4408	0.6245	0.3633
2.5	-9.7851	-0.0285	-1.6371	-0.0188	-0.0043	-0.0467	25.0289	-5.5092	8.5963	0.5327	-0.4407	0.6244	0.3633
2.51	-9.7772	-0.0357	-1.6367	-0.0106	-0.0076	-0.0473	24.5592	-5.4092	8.5599	0.5327	-0.4408	0.6245	0.3633
2.52	-9.7804	-0.0312	-1.6273	-0.0096	-0.0103	-0.0403	24.7271	-5.5274	8.6595	0.5327	-0.4407	0.6245	0.3633
2.53	-9.7616	-0.0329	-1.6286	-0.0084	-0.0136	-0.0365	24.8601	-5.2611	8.6724	0.5327	-0.4407	0.6245	0.3633
2.54	-9.7627	-0.0443	-1.6173	-0.0188	-0.0127	-0.0394	25.0155	-5.4755	8.7113	0.5328	-0.4407	0.6245	0.3633
2.55	-9.7631	-0.0399	-1.6236	-0.0201	-0.0060	-0.0435	25.0042	-5.7230	8.6182	0.5327	-0.4407	0.6245	0.3634
2.56	-9.7633	-0.0412	-1.6295	-0.0239	-0.0052	-0.0393	24.7880	-5.6596	8.6680	0.5327	-0.4407	0.6245	0.3634
2.57	-9.7584	-0.0500	-1.6204	-0.0219	-0.0122	-0.0396	24.6922	-5.6976	8.6047	0.5326	-0.4406	0.6244	0.3634
2.58	-9.7619	-0.0402	-1.6181	-0.0182	-0.0101	-0.0383	24.6108	-5.4591	8.4875	0.5327	-0.4407	0.6245	0.3635
2.59	-9.7604	-0.0443	-1.6202	-0.0249	-0.0047	-0.0390	25.0542	-5.3647	8.7927	0.5326	-0.4407	0.6245	0.3635
2.6	-9.7524	-0.0383	-1.5983	-0.0085	-0.0144	-0.0361	25.0662	-5.2960	8.7700	0.5327	-0.4406	0.6245	0.3635
2.61	-9.7645	-0.0179	-1.5981	-0.0022	-0.0066	-0.0427	24.9555	-5.3584	8.6766	0.5327	-0.4406	0.6245	0.3635
2.62	-9.7579	-0.0211	-1.6304	-0.0081	-0.0088	-0.0457	24.8636	-5.1861	8.7462	0.5327	-0.4405	0.6245	0.3635
2.63	-9.7383	-0.0187	-1.6063	-0.0205	-0.0130	-0.0438	24.5969	-5.1665	8.6540	0.5327	-0.4405	0.6245	0.3635
2.64	-9.7446	-0.0020	-1.5973	-0.0176	-0.0031	-0.0517	24.5529	-5.3925	8.7574	0.5327	-0.4405	0.6245	0.3635
2.65	-9.7311	-0.0051	-1.6222	-0.0265	-0.0036	-0.0461	24.6682	-5.3846	8.6422	0.5327	-0.4406	0.6245	0.3635
2.66	-9.7323	-0.0067	-1.6070	-0.0199	-0.0040	-0.0480	24.6424	-5.3477	8.8421	0.5326	-0.4406	0.6245	0.3635
2.67	-9.7193	-0.0109	-1.6032	-0.0201	-0.0044	-0.0523	24.6885	-5.2096	8.5399	0.5327	-0.4407	0.6245	0.3635
2.68	-9.7271	-0.0095	-1.5951	-0.0280	-0.0036	-0.0491	24.8988	-5.1797	8.7819	0.5326	-0.4407	0.6244	0.3635
2.69	-9.7301	-0.0145	-1.6063	-0.0268	0.0018	-0.0513	24.5991	-5.2447	8.8181	0.5326	-0.4408	0.6244	0.3635
2.7	-9.7274	-0.0233	-1.5972	-0.0235	0.0045	-0.0527	24.6722	-5.4548	8.5836	0.5325	-0.4409	0.6244	0.3635
2.71	-9.7444	-0.0314	-1.6013	-0.0229	0.0046	-0.0431	24.7018	-5.2286	8.7872	0.5324	-0.4409	0.6244	0.3635
2.72	-9.7179	-0.0337	-1.6239	-0.0276	0.0028	-0.0436	24.4272	-5.6412	8.6394	0.5325	-0.4410	0.6245	0.3635
2.73	-9.7426	-0.0082	-1.5950	-0.0280	0.0111	-0.0490	24.8956	-5.5910	8.5400	0.5323	-0.4410	0.6245	0.3635
2.74	-9.7703	-0.0310	-1.6295	-0.0225	0.0143	-0.0529	24.7204	-5.5798	8.6600	0.5323	-0.4411	0.6245	0.3635
2.75	-9.7441	-0.0454	-1.6417	-0.0280	0.0157	-0.0562	24.8182	-5.7710	8.6755	0.5321	-0.4412	0.6245	0.3634
2.76	-9.7742	-0.0505	-1.6270	-0.0275	0.0159	-0.0583	24.9624	-5.5759	8.5602	0.5321	-0.4413	0.6245	0.3634
2.77	-9.8028	-0.0589	-1.6525	-0.0294	0.0182	-0.0586	24.6459	-5.5623	8.5827	0.5320	-0.4415	0.6245	0.3633
2.78	-9.7950	-0.0587	-1.6439	-0.0252	0.0027	-0.0504	24.4860	-5.5195	8.8803	0.5320	-0.4415	0.6245	0.3633
2.79	-9.7958	-0.0594	-1.6328	-0.0244	0.0010	-0.0484	24.8948	-5.7798	8.7187	0.5320	-0.4416	0.6246	0.3633
2.8	-9.7689	-0.0789	-1.6474	-0.0267	-0.0053	-0.0530	24.9018	-5.6535	8.7132	0.5319	-0.4416	0.6245	0.3633
2.81	-9.7587	-0.0915	-1.6320	-0.0245	-0.0129	-0.0413	24.7369	-5.4834	8.7166	0.5319	-0.4417	0.6245	0.3634
2.82	-9.7588	-0.0748	-1.6315	-0.0270	0.0002	-0.0474	24.7437	-5.2912	8.6329	0.5318	-0.4416	0.6244	0.3634
2.83	-9.7408	-0.0672	-1.6626	-0.0225	0.0052	-0.0456	24.7262	-5.2858	8.7809	0.5318	-0.4417	0.6245	0.3634
2.84	-9.7221	-0.0424	-1.6495	-0.0215	-0.0003	-0.0413	24.7810	-5.4348	8.7534	0.5318	-0.4417	0.6245	0.3634
2.85	-9.7569	-0.0404	-1.6474	-0.0110	0.0174	-0.0480	24.8661	-5.2682	8.7331	0.5317	-0.4418	0.6246	0.3633
2.86	-9.7567	-0.0471	-1.6733	-0.0120	0.0158	-0.0461	24.7085	-5.3113	8.8833	0.5316	-0.4418	0.6246	0.3632
2.87	-9.7430	-0.0487	-1.6645	-0.0198	0.0056	-0.0434	24.7693	-5.3653	8.7744	0.5316	-0.4419	0.6247	0.3632
2.88	-9.7454	-0.0370	-1.6743	-0.0115	0.0087	-0.0520	24.6731	-5.2504	8.4152	0.5316	-0.4419	0.6247	0.3632
2.89	-9.7426	-0.0335	-1.6661	-0.0182	0.0023	-0.0476	24.6313	-5.3844	8.5931	0.5315	-0.4419	0.6247	0.3631
2.9	-9.7652	-0.0386	-1.6709	-0.0183	0.0101	-0.0512	24.7618	-5.3837	8.5547	0.5315	-0.4420	0.6248	0.3631
2.91	-9.7595	-0.0459	-1.6862	-0.0171	0.0074	-0.0533	24.8831	-5.5105	8.6062	0.5314	-0.4420	0.6248	0.3631
2.92	-9.7634	-0.0465	-1.6901	-0.0239	0.0064	-0.0530	24.9408	-5.6346	8.7563	0.5314	-0.4421	0.6248	0.3631
2.93	-9.7600	-0.0504	-1.7026	-0.0280	0.0140	-0.0510	24.8205	-5.6457	8.8529	0.5313	-0.4422	0.6248	0.3630
2.94	-9.7787	-0.0534	-1.6984	-0.0269	0.0073	-0.0499	24.6958	-5.4045	8.8650	0.5313	-0.4423	0.6248	0.3630
2.95	-9.7777	-0.0663	-1.7119	-0.0285	-0.0041	-0.0492	24.6284	-5.9080	8.8059	0.5312	-0.4423	0.6248	0.3630
2.96	-9.7655	-0.0627	-1.7036	-0.0268	-0.0069	-0.0395	24.6564	-5.7700	8.7304	0.5312	-0.4423	0.6247	0.3631
2.97	-9.7704	-0.0619	-1.6943	-0.0236	-0.0086	-0.0492	24.6357	-5.4990	8.8945	0.5312	-0.4424	0.6248	0.3631
2.98	-9.7707	-0.0703	-1.6998	-0.0276	0.0005	-0.0580	24.9580	-5.5895	8.6534	0.5311	-0.4425	0.6247	0.3631
2.99	-9.7920	-0.0867	-1.7235	-0.0275	-0.0082	-0.0497	24.7790	-5.4833	8.7497	0.5312	-0.4425	0.6247	0.3631
3	-9.7240	-0.0789	-1.7052	-0.0233	-0.0143	-0.0472	24.6406	-5.3743	8.7525	0.5311	-0.4425	0.6246	0.3631
3.01	-9.7625	-0.0497	-1.6750	-0.0223	-0.0045	-0.0454	24.6293	-5.3697	8.5471	0.5311	-0.4426	0.6247	0.3632
3.02	-9.7925	-0.0689	-1.7097	-0.0219	-0.0015	-0.0514	24.5430	-5.4093	8.9001	0.5311	-0.4426	0.6246	0.3631
3.03	-9.7481	-0.0560	-1.7043	-0.0234	-0.0165	-0.0493	24.5487	-5.5641	8.7447	0.5311	-0.4426	0.6246	0.3632
3.04	-9.7370	-0.0803	-1.6675	-0.0270	-0.0148	-0.0469	24.6821	-5.5494	8.7716	0.5311	-0.4427	0.6246	0.3632
3.05	-9.7485	-0.0873	-1.6959	-0.0187	-0.0075	-0.0435	24.4502	-5.4236	8.7367	0.5311	-0.4427	0.6245	0.3632
3.06	-9.7832	-0.0645	-1.6798	-0.0188	-0.0084	-0.0391	24.4000	-5.3200	8.7868	0.5311	-0.4427	0.6246	0.3633
3.07	-9.7440	-0.0616	-1.6817	-0.0149	-0.0151	-0.0391	24.5939	-5.1918	8.6229	0.5310	-0.4426	0.6245	0.3633
3.08	-9.7494	-0.0312	-1.6589	-0.0046	-0.0067	-0.0445	24.5390	-5.2078	8.8180	0.5311	-0.4426	0.6246	0.3633
3.09	-9.7696	-0.0433	-1.6715	-0.0195	-0.0058	-0.0426	25.1026	-5.3507	9.1416	0.5311	-0.4426	0.6246	0.3633
3.1	-9.7610	-0.0747	-1.6945	-0.0173	-0.0088	-0.0428	25.5145	-5.3789	9.1315	0.5311	-0.4426	0.6246	0.3633
3.11	-9.7544	-0.0592	-1.6643	-0.0064	-0.0130	-0.0398	25.2282	-5.3701	9.0479	0.5311	-0.4425	0.6246	0.3633
3.12	-9.7561	-0.0623	-1.6626	-0.0102	-0.0117	-0.0404	25.0005	-5.4994	8.7534	0.5311	-0.4425	0.6246	0.3633
3.13	-9.7341	-0.0508	-1.6691	-0.0064	-0.0144	-0.0374	24.9432	-5.5027	8.7355	0.5312	-0.4425	0.6246	0.3633
3.14	-9.7361	-0.0409	-1.6577	-0.0086	-0.0170	-0.0383	24.8154	-5.3072	8.5622	0.5311	-0.4424	0.6246	0.3633
3.15	-9.7452	-0.0451	-1.6593	-0.0175	-0.0099	-0.0340	24.7007	-5.3344	8.6111	0.5312	-0.4424	0.6247	0.3634
3.16	-9.7501	-0.0416	-1.6629	-0.0233	-0.0121	-0.0370	24.5790	-5.4597	8.6960	0.5311	-0.4424	0.6246	0.3634
3.17	-9.7390	-0.0492	-1.6516	-0.0212	-0.0119	-0.0347	24.7659	-5.3118	8.6745	0.5312	-0.4424	0.6247	0.3635
3.18	-9.7327	-0.0456	-1.6473	-0.0221	-0.0100	-0.0367	24.9367	-5.4163	8.6845	0.5311	-0.4423	0.6246	0.3635
3.19	-9.7407	-0.0459	-1.6578	-0.0205	-0.0003	-0.0409	24.7277	-5.5216	8.4397	0.5311	-0.4423	0.6246	0.3635
3.2	-9.7447	-0.0445	-1.6531	-0.0162	-0.0015	-0.0365	24.5758	-5.3061	8.5552	0.5310	-0.4423	0.6247	0.3635
3.21	-9.7421	-0.0431	-1.6410	-0.0155	-0.0021	-0.0417	24.7348	-5.4077	8.6679	0.5310	-0.4423	0.6247	0.3635
3.22	-9.7348	-0.0428	-1.6448	-0.0263	-0.0041	-0.0344	24.7045	-5.4160	8.8001	0.5310	-0.4424	0.6248	0.3636
3.23	-9.7295	-0.0383	-1.6516	-0.0165	0.0048	-0.0423	24.5979	-5.4092	8.5907	0.5309	-0.4423	0.6247	0.3635
3.24	-9.7369	-0.0368	-1.6609	-0.0168	0.0089	-0.0467	24.4386	-5.4178	8.6345	0.5309	-0.4424	0.6248	0.3635
3.25	-9.7362	-0.0402	-1.6635	-0.0171	0.0063	-0.0492	24.5311	-5.4079	8.7988	0.5308	-0.4424	0.6248	0.3634
3.26	-9.7428	-0.0260	-1.6685	-0.0180	0.0083	-0.0462	24.8872	-5.4169	8.6332	0.5308	-0.4425	0.6249	0.3634
3.27	-9.7622	-0.0194	-1.6617	-0.0098	0.0065	-0.0435	24.7119	-5.3962	8.7472	0.5307	-0.4425	0.6249	0.3634
3.28	-9.7592	-0.0156	-1.6676	-0.0085	0.0072	-0.0450	24.4898	-5.4844	8.7827	0.5307	-0.4425	0.6249	0.3633
3.29	-9.7629	-0.0172	-1.6626	-0.0129	-0.0032	-0.0429	24.6833	-5.5172	8.7725	0.5307	-0.4425	0.6250	0.3633
3.3	-9.7587	-0.0166	-1.6769	-0.0194	0.0044	-0.0485	24.9385	-5.6011	8.6320	0.5306	-0.4425	0.6250	0.3633
3.31	-9.7573	-0.0215	-1.6769	-0.0279	-0.0021	-0.0427	24.6812	-5.5838	8.5725	0.5306	-0.4426	0.6250	0.3633
3.32	-9.7648	-0.0332	-1.6808	-0.0255	0.0014	-0.0468	24.8100	-5.5874	8.6034	0.5305	-0.4426	0.6249	0.3633
3.33	-9.7608	-0.0517	-1.6831	-0.0229	0.0005	-0.0461	24.8161	-5.5892	8.6863	0.5305	-0.4427	0.6250	0.3633
3.34	-9.7658	-0.0531	-1.6658	-0.0263	-0.0013	-0.0425	24.6098	-5.5807	8.7095	0.5304	-0.4427	0.6250	0.3633
3.35	-9.7545	-0.0564	-1.6830	-0.0285	-0.0009	-0.0446	24.7608	-5.6042	8.8853	0.5304	-0.4428	0.6250	0.3634
3.36	-9.7366	-0.0572	-1.6887	-0.0269	-0.0028	-0.0373	24.9308	-5.4746	8.7679	0.5303	-0.4428	0.6250	0.3634
3.37	-9.7629	-0.0379	-1.6666	-0.0203	0.0000	-0.0421	24.8683	-5.5251	8.7703	0.5303	-0.4428	0.6250	0.3634
3.38	-9.7756	-0.0522	-1.7057	-0.0267	0.0036	-0.0536	24.7308	-5.4288	8.7856	0.5302	-0.4429	0.6250	0.3634
3.39	-9.7530	-0.0706	-1.7008	-0.0280	-0.0036	-0.0515	24.7114	-5.4098	8.7421	0.5302	-0.4429	0.6250	0.3634
3.4	-9.7754	-0.0653	-1.6965	-0.0220	0.0012	-0.0510	24.7178	-5.3954	8.9247	0.5302	-0.4430	0.6250	0.3634
3.41	-9.7991	-0.0604	-1.7033	-0.0228	-0.0082	-0.0500	24.7312	-5.3113	8.9037	0.5301	-0.4430	0.6250	0.3634
3.42	-9.7944	-0.0691	-1.6952	-0.0259	-0.0102	-0.0487	24.6623	-5.5402	8.6338	0.5302	-0.4431	0.6250	0.3635
3.43	-9.8004	-0.0538	-1.6958	-0.0166	-0.0192	-0.0496	24.5155	-5.3759	8.7951	0.5301	-0.4431	0.6249	0.3634
3.44	-9.7766	-0.0711	-1.6947	-0.0211	-0.0156	-0.0502	24.5596	-5.5738	8.8802	0.5302	-0.4431	0.6249	0.3635
3.45	-9.7605	-0.0706	-1.6977	-0.0125	-0.0198	-0.0433	24.8692	-5.5360	8.8580	0.5302	-0.4431	0.6249	0.3635
3.46	-9.7787	-0.0548	-1.6965	-0.0021	-0.0155	-0.0405	24.5999	-5.4866	8.8896	0.5302	-0.4430	0.6248	0.3634
3.47	-9.7902	-0.0229	-1.7260	-0.0029	-0.0197	-0.0362	24.7652	-5.4047	8.6370	0.5304	-0.4430	0.6249	0.3635
3.48	-9.7817	0.0167	-1.7306	-0.0033	-0.0269	-0.0434	24.9145	-5.5638	8.5805	0.5304	-0.4429	0.6248	0.3635
3.49	-9.7764	0.0167	-1.7281	-0.0135	-0.0276	-0.0521	24.6991	-5.5832	8.5895	0.5305	-0.4429	0.6248	0.3635
3.5	-9.7613	-0.0068	-1.7408	-0.0186	-0.0311	-0.0545	24.7228	-5.6872	8.6747	0.5305	-0.4428	0.6247	0.3635
3.51	-9.7651	-0.0211	-1.7375	-0.0242	-0.0374	-0.0520	24.6050	-5.4343	8.7041	0.5306	-0.4428	0.6246	0.3636
3.52	-9.7564	-0.0102	-1.7301	-0.0205	-0.0432	-0.0523	24.6409	-5.4322	8.8083	0.5307	-0.4428	0.6245	0.3637
3.53	-9.7249	0.0012	-1.7092	-0.0211	-0.0412	-0.0508	24.6058	-5.6057	8.6809	0.5308	-0.4428	0.6244	0.3637
3.54	-9.7255	0.0069	-1.6888	-0.0221	-0.0429	-0.0553	24.8300	-5.5804	8.7762	0.5310	-0.4428	0.6243	0.3638
3.55	-9.7185	-0.0141	-1.6962	-0.0257	-0.0334	-0.0604	24.6668	-5.3288	8.6515	0.5310	-0.4428	0.6241	0.3638
3.56	-9.7151	-0.0238	-1.6906	-0.0231	-0.0296	-0.0604	24.5890	-5.5641	8.6992	0.5311	-0.4428	0.6241	0.3639
3.57	-9.7348	-0.0110	-1.6867	-0.0276	-0.0218	-0.0599	24.7456	-5.6074	8.6571	0.5311	-0.4428	0.6239	0.3639
3.58	-9.7587	-0.0227	-1.7047	-0.0262	-0.0178	-0.0618	24.6680	-5.3644	8.9326	0.5312	-0.4430	0.6239	0.3639
3.59	-9.7601	-0.0367	-1.7000	-0.0326	-0.0202	-0.0572	25.0255	-5.2730	8.9473	0.5312	-0.4430	0.6238	0.3639
3.6	-9.7623	-0.0333	-1.7032	-0.0271	-0.0265	-0.0595	25.5330	-5.1617	8.9807	0.5313	-0.4431	0.6237	0.3640
3.61	-9.7645	-0.0485	-1.7129	-0.0356	-0.0270	-0.0610	25.1197	-5.0261	8.8422	0.5313	-0.4431	0.6236	0.3640
3.62	-9.7611	-0.0635	-1.6994	-0.0451	-0.0316	-0.0541	24.7470	-5.1343	8.7715	0.5313	-0.4432	0.6234	0.3642
3.63	-9.7665	-0.0717	-1.6990	-0.0383	-0.0312	-0.0561	24.6118	-5.0240	9.0231	0.5314	-0.4433	0.6233	0.3643
3.64	-9.7334	-0.0697	-1.6942	-0.0431	-0.0300	-0.0466	24.4704	-5.0625	8.7237	0.5313	-0.4433	0.6231	0.3643
3.65	-9.7458	-0.0587	-1.6711	-0.0351	-0.0395	-0.0483	24.4771	-5.5077	8.7755	0.5314	-0.4433	0.6231	0.3645
3.66	-9.8048	-0.0529	-1.6899	-0.0386	-0.0317	-0.0571	24.9183	-5.5577	8.7352	0.5315	-0.4434	0.6229	0.3646
3.67	-9.8018	-0.0772	-1.6908	-0.0414	-0.0368	-0.0576	24.8516	-5.3662	8.5718	0.5316	-0.4435	0.6228	0.3647
3.68	-9.7729	-0.0903	-1.6673	-0.0398	-0.0420	-0.0578	24.8082	-5.5750	8.5793	0.5315	-0.4435	0.6226	0.3648
3.69	-9.7917	-0.0955	-1.6577	-0.0361	-0.0416	-0.0515	24.9606	-5.5835	8.5786	0.5316	-0.4435	0.6225	0.3649
3.7	-9.8018	-0.0938	-1.6676	-0.0388	-0.0380	-0.0436	24.8570	-5.5190	8.5804	0.5317	-0.4435	0.6224	0.3650
3.71	-9.7622	-0.0750	-1.6614	-0.0267	-0.0478	-0.0420	24.7452	-5.4473	8.5712	0.5317	-0.4434	0.6222	0.3652
3.72	-9.7815	-0.0372	-1.6348	-0.0274	-0.0469	-0.0438	24.7191	-5.6138	8.5840	0.5319	-0.4435	0.6222	0.3653
3.73	-9.7859	-0.0489	-1.6433	-0.0275	-0.0413	-0.0562	24.7759	-5.5207	8.7152	0.5319	-0.4434	0.6220	0.3654
3.74	-9.7902	-0.0836	-1.6531	-0.0273	-0.0455	-0.0552	24.6374	-5.6561	8.5865	0.5321	-0.4434	0.6219	0.3655
3.75	-9.7790	-0.0605	-1.6624	-0.0280	-0.0420	-0.0532	24.7467	-5.2352	8.5684	0.5321	-0.4434	0.6217	0.3655
3.76	-9.7587	-0.0607	-1.6336	-0.0276	-0.0521	-0.0547	24.9426	-5.2978	8.5698	0.5323	-0.4434	0.6216	0.3657
3.77	-9.7571	-0.0583	-1.6157	-0.0276	-0.0547	-0.0512	24.5818	-5.5064	8.5846	0.5324	-0.4434	0.6214	0.3658
3.78	-9.7461	-0.0641	-1.6011	-0.0272	-0.0495	-0.0561	24.5215	-5.2866	8.5545	0.5325	-0.4434	0.6213	0.3659
3.79	-9.7434	-0.0590	-1.5905	-0.0272	-0.0540	-0.0529	24.7994	-5.2901	8.5979	0.5326	-0.4434	0.6212	0.3660
3.8	-9.7421	-0.0624	-1.5740	-0.0223	-0.0483	-0.0500	24.6605	-5.2438	8.6515	0.5327	-0.4433	0.6210	0.3661
3.81	-9.7281	-0.0592	-1.5562	-0.0272	-0.0445	-0.0502	24.7297	-5.2781	8.5212	0.5328	-0.4433	0.6209	0.3662
3.82	-9.7354	-0.0654	-1.5506	-0.0250	-0.0433	-0.0541	24.6499	-5.1812	8.6881	0.5329	-0.4432	0.6207	0.3662
3.83	-9.7349	-0.0652	-1.5528	-0.0232	-0.0360	-0.0476	24.6734	-5.3447	8.5330	0.5330	-0.4433	0.6207	0.3664
3.84	-9.7350	-0.0725	-1.5498	-0.0292	-0.0388	-0.0478	24.7374	-5.4500	8.6164	0.5330	-0.4433	0.6206	0.3664
3.85	-9.7374	-0.0627	-1.5459	-0.0250	-0.0342	-0.0428	24.8492	-5.4870	8.4765	0.5331	-0.4432	0.6205	0.3665
3.86	-9.7223	-0.0633	-1.5413	-0.0265	-0.0306	-0.0427	25.1567	-5.5689	8.5079	0.5331	-0.4432	0.6204	0.3666
3.87	-9.7260	-0.0527	-1.5276	-0.0242	-0.0290	-0.0405	24.7856	-5.5662	8.4455	0.5332	-0.4432	0.6204	0.3667
3.88	-9.7252	-0.0494	-1.5351	-0.0291	-0.0294	-0.0509	24.7289	-5.3895	8.5869	0.5332	-0.4432	0.6203	0.3668
3.89	-9.7252	-0.0510	-1.5290	-0.0277	-0.0216	-0.0466	24.7402	-5.4054	8.4603	0.5332	-0.4432	0.6202	0.3668
3.9	-9.7175	-0.0594	-1.5370	-0.0265	-0.0175	-0.0472	24.7413	-5.3745	8.5374	0.5333	-0.4433	0.6202	0.3669
3.91	-9.7148	-0.0583	-1.5305	-0.0285	-0.0197	-0.0589	24.7351	-5.4418	8.4921	0.5332	-0.4433	0.6201	0.3669
3.92	-9.7306	-0.0653	-1.5288	-0.0272	-0.0093	-0.0530	24.7474	-5.5056	8.3944	0.5333	-0.4434	0.6201	0.3669
3.93	-9.7356	-0.0745	-1.5415	-0.0293	-0.0106	-0.0492	24.7237	-5.3972	8.7143	0.5332	-0.4434	0.6200	0.3669
3.94	-9.7579	-0.0681	-1.5454	-0.0274	-0.0094	-0.0576	24.7717	-5.2432	8.5283	0.5332	-0.4435	0.6200	0.3670
3.95	-9.7461	-0.0760	-1.5515	-0.0279	-0.0050	-0.0568	24.8377	-5.2584	8.5871	0.5332	-0.4436	0.6199	0.3669
3.96	-9.7576	-0.0771	-1.5539	-0.0286	-0.0069	-0.0569	24.5256	-5.3379	8.5828	0.5331	-0.4436	0.6199	0.3669
3.97	-9.7572	-0.0785	-1.5669	-0.0269	-0.0013	-0.0561	24.6872	-5.1942	8.3475	0.5332	-0.4437	0.6199	0.3670
3.98	-9.7512	-0.0868	-1.5842	-0.0308	-0.0039	-0.0579	24.7527	-5.2329	8.2873	0.5331	-0.4438	0.6198	0.3669
3.99	-9.7644	-0.0916	-1.5783	-0.0345	-0.0008	-0.0534	24.7449	-5.2135	8.5110	0.5331	-0.4439	0.6198	0.3670
4	-9.7601	-0.0949	-1.5812	-0.0278	-0.0000	-0.0548	24.6574	-5.2176	8.3631	0.5330	-0.4439	0.6197	0.3669
4.01	-9.7845	-0.0935	-1.5955	-0.0309	-0.0095	-0.0578	24.6324	-5.3397	8.4136	0.5330	-0.4441	0.6198	0.3670
4.02	-9.7955	-0.1050	-1.5998	-0.0302	-0.0092	-0.0539	24.5124	-5.2655	8.5027	0.5330	-0.4441	0.6197	0.3670
4.03	-9.7790	-0.1081	-1.5952	-0.0271	-0.0201	-0.0481	24.7168	-5.4673	8.4744	0.5330	-0.4441	0.6196	0.3670
4.04	-9.7656	-0.1004	-1.5878	-0.0262	-0.0134	-0.0449	24.7683	-5.4963	8.3969	0.5330	-0.4442	0.6196	0.3671
4.05	-9.7593	-0.0872	-1.5886	-0.0276	-0.0143	-0.0477	24.8230	-5.6029	8.5133	0.5329	-0.4442	0.6196	0.3671
4.06	-9.7711	-0.0942	-1.5858	-0.0292	-0.0111	-0.0453	24.8753	-5.4984	8.4619	0.5329	-0.4443	0.6196	0.3672
4.07	-9.7654	-0.1113	-1.5887	-0.0255	-0.0048	-0.0493	25.0284	-5.4822	8.5807	0.5329	-0.4443	0.6195	0.3671
4.08	-9.7670	-0.1131	-1.5758	-0.0280	-0.0141	-0.0486	24.7788	-5.2605	8.5750	0.5329	-0.4443	0.6195	0.3672
4.09	-9.8123	-0.1089	-1.5715	-0.0272	-0.0072	-0.0474	25.2128	-5.1973	8.7353	0.5328	-0.4444	0.6195	0.3672
4.1	-9.8121	-0.1210	-1.5869	-0.0249	-0.0162	-0.0407	25.3206	-5.2223	8.7789	0.5329	-0.4444	0.6195	0.3673
4.11	-9.8065	-0.1198	-1.5731	-0.0265	-0.0254	-0.0439	25.1192	-5.2383	8.6361	0.5328	-0.4444	0.6194	0.3673
4.12	-9.7866	-0.1305	-1.5794	-0.0280	-0.0212	-0.0436	24.9002	-5.1274	8.5973	0.5329	-0.4444	0.6193	0.3674
4.13	-9.7568	-0.1273	-1.5691	-0.0278	-0.0270	-0.0354	24.5551	-5.2730	8.3030	0.5329	-0.4444	0.6193	0.3675
4.14	-9.7414	-0.0993	-1.5523	-0.0293	-0.0245	-0.0327	24.5378	-5.2228	8.4059	0.5328	-0.4443	0.6192	0.3676
4.15	-9.7153	-0.0896	-1.5583	-0.0259	-0.0205	-0.0317	24.6248	-5.3422	8.3977	0.5329	-0.4443	0.6193	0.3677
4.16	-9.7094	-0.0589	-1.5483	-0.0243	-0.0147	-0.0318	24.6588	-5.4283	8.5976	0.5328	-0.4443	0.6192	0.3678
4.17	-9.7108	-0.0583	-1.5563	-0.0277	-0.0152	-0.0384	25.0158	-5.1160	8.5111	0.5328	-0.4443	0.6193	0.3679
4.18	-9.7156	-0.0739	-1.5517	-0.0283	-0.0092	-0.0425	24.8011	-5.2465	8.4977	0.5327	-0.4443	0.6192	0.3679
4.19	-9.7320	-0.0673	-1.5613	-0.0278	-0.0069	-0.0428	24.5354	-5.3144	8.5979	0.5327	-0.4443	0.6192	0.3679
4.2	-9.7366	-0.0516	-1.5637	-0.0145	-0.0088	-0.0445	24.5831	-5.1842	8.4246	0.5327	-0.4443	0.6192	0.3679
4.21	-9.7502	-0.0489	-1.5469	-0.0115	-0.0065	-0.0342	24.6945	-5.3165	8.3113	0.5327	-0.4443	0.6192	0.3679
4.22	-9.7562	-0.0445	-1.5660	-0.0084	-0.0023	-0.0431	24.8459	-5.4256	8.3284	0.5327	-0.4443	0.6193	0.3679
4.23	-9.7457	-0.0321	-1.5645	-0.0132	-0.0045	-0.0424	24.8653	-5.3708	8.4331	0.5327	-0.4443	0.6193	0.3679
4.24	-9.7675	-0.0429	-1.5675	-0.0263	0.0015	-0.0472	24.7683	-5.2743	8.3987	0.5326	-0.4444	0.6194	0.3679
4.25	-9.7503	-0.0473	-1.5857	-0.0200	0.0003	-0.0494	24.8912	-5.4321	8.4087	0.5325	-0.4443	0.6193	0.3678
4.26	-9.7546	-0.0504	-1.5750	-0.0277	0.0026	-0.0536	24.9146	-5.3706	8.4231	0.5325	-0.4445	0.6193	0.3679
4.27	-9.7499	-0.0575	-1.5915	-0.0277	0.0160	-0.0552	24.9697	-5.4751	8.5502	0.5324	-0.4446	0.6193	0.3678
4.28	-9.7541	-0.0581	-1.5878	-0.0269	0.0138	-0.0548	24.4780	-5.4344	8.4043	0.5323	-0.4447	0.6194	0.3678
4.29	-9.7660	-0.0541	-1.6003	-0.0272	0.0144	-0.0572	24.6784	-5.3775	8.4068	0.5323	-0.4448	0.6194	0.3677
4.3	-9.7587	-0.0602	-1.6006	-0.0273	0.0128	-0.0557	24.5354	-5.5738	8.4203	0.5322	-0.4449	0.6194	0.3677
4.31	-9.7691	-0.0652	-1.5966	-0.0294	0.0099	-0.0569	24.6378	-5.5465	8.6161	0.5321	-0.4450	0.6194	0.3676
4.32	-9.7359	-0.0782	-1.6160	-0.0294	0.0184	-0.0555	24.8241	-5.3056	8.4912	0.5320	-0.4451	0.6194	0.3676
4.33	-9.7628	-0.0600	-1.5997	-0.0274	0.0190	-0.0608	24.8046	-5.3051	8.5127	0.5320	-0.4453	0.6195	0.3675
4.34	-9.8009	-0.0754	-1.6306	-0.0313	0.0199	-0.0656	24.7574	-5.5082	8.6254	0.5318	-0.4454	0.6194	0.3674
4.35	-9.7606	-0.0938	-1.6280	-0.0414	0.0066	-0.0666	24.6910	-5.3641	8.2812	0.5318	-0.4456	0.6194	0.3674
4.36	-9.7668	-0.1028	-1.5974	-0.0290	0.0097	-0.0647	24.7206	-5.1871	8.4331	0.5317	-0.4457	0.6194	0.3674
4.37	-9.7802	-0.1241	-1.6214	-0.0402	0.0150	-0.0592	24.7094	-5.3894	8.6256	0.5316	-0.4459	0.6194	0.3674
4.38	-9.7880	-0.1396	-1.6377	-0.0436	0.0019	-0.0497	24.5059	-5.4007	8.3805	0.5315	-0.4460	0.6194	0.3674
4.39	-9.7666	-0.1125	-1.6294	-0.0291	0.0038	-0.0405	24.6452	-5.4179	8.4943	0.5314	-0.4460	0.6193	0.3674
4.4	-9.7814	-0.0976	-1.6113	-0.0267	-0.0078	-0.0363	24.5710	-5.3808	8.6190	0.5314	-0.4461	0.6194	0.3675
4.41	-9.7883	-0.1227	-1.6272	-0.0286	0.0016	-0.0440	24.7590	-5.3025	8.7186	0.5313	-0.4461	0.6194	0.3675
4.42	-9.7962	-0.1368	-1.6336	-0.0267	-0.0058	-0.0440	24.9557	-5.3036	8.6058	0.5313	-0.4462	0.6194	0.3675
4.43	-9.7796	-0.1298	-1.6240	-0.0257	-0.0065	-0.0420	24.7760	-5.4078	8.5790	0.5312	-0.4461	0.6193	0.3675
4.44	-9.7661	-0.1275	-1.6226	-0.0251	-0.0073	-0.0404	24.7829	-5.6282	8.6187	0.5312	-0.4462	0.6194	0.3676
4.45	-9.7715	-0.1219	-1.6204	-0.0170	-0.0062	-0.0333	24.5150	-5.3448	8.3508	0.5312	-0.4462	0.6194	0.3676
4.46	-9.7481	-0.0994	-1.6007	-0.0069	-0.0100	-0.0350	24.8494	-5.2925	8.2799	0.5311	-0.4461	0.6194	0.3676
4.47	-9.7216	-0.0881	-1.5927	-0.0030	-0.0131	-0.0299	24.6559	-5.4369	8.6387	0.5312	-0.4461	0.6195	0.3677
4.48	-9.7101	-0.0830	-1.5937	-0.0038	-0.0040	-0.0342	24.5172	-5.3676	8.5839	0.5312	-0.4460	0.6195	0.3676
4.49	-9.7124	-0.0545	-1.5696	-0.0024	-0.0118	-0.0339	24.7307	-5.4971	8.5873	0.5312	-0.4459	0.6196	0.3676
4.5	-9.7113	-0.0484	-1.5815	-0.0019	0.0036	-0.0322	24.6973	-5.4030	8.6176	0.5311	-0.4458	0.6196	0.3675
4.51	-9.7035	-0.0217	-1.5831	-0.0054	0.0031	-0.0339	24.7247	-5.2967	8.5381	0.5311	-0.4458	0.6198	0.3675
4.52	-9.7225	-0.0021	-1.5865	-0.0095	0.0142	-0.0456	24.6831	-5.3192	8.7284	0.5311	-0.4458	0.6198	0.3675
4.53	-9.7365	-0.0189	-1.5974	-0.0184	0.0268	-0.0516	24.5053	-5.3201	8.7248	0.5309	-0.4459	0.6199	0.3674
4.54	-9.7595	-0.0464	-1.6023	-0.0191	0.0215	-0.0524	24.6561	-5.3054	8.5609	0.5309	-0.4460	0.6200	0.3673
4.55	-9.7668	0.0043	-1.5907	-0.0088	0.0215	-0.0462	24.5855	-5.2074	9.0019	0.5308	-0.4461	0.6200	0.3672
4.56	-9.7684	-0.0187	-1.6150	-0.0307	0.0193	-0.0471	24.9362	-5.2294	8.6673	0.5307	-0.4462	0.6201	0.3672
4.57	-9.7468	-0.0159	-1.6255	-0.0237	0.0231	-0.0503	24.6078	-5.2272	8.7839	0.5305	-0.4462	0.6201	0.3671
4.58	-9.7502	0.0133	-1.6211	-0.0230	0.0165	-0.0498	24.5438	-5.3207	8.6482	0.5305	-0.4464	0.6202	0.3671
4.59	-9.7332	-0.0091	-1.6329	-0.0279	0.0264	-0.0559	25.1201	-5.1893	8.7398	0.5303	-0.4465	0.6203	0.3670
4.6	-9.7395	-0.0356	-1.6566	-0.0401	0.0284	-0.0605	25.2609	-5.5250	8.8016	0.5302	-0.4467	0.6203	0.3669
4.61	-9.7533	-0.0539	-1.6705	-0.0457	0.0301	-0.0591	25.0272	-5.3318	8.7443	0.5300	-0.4468	0.6203	0.3669
4.62	-9.7609	-0.0614	-1.6933	-0.0532	0.0266	-0.0633	24.8569	-5.3477	8.7907	0.5299	-0.4471	0.6203	0.3669
4.63	-9.7870	-0.0832	-1.7037	-0.0531	0.0281	-0.0625	24.5448	-5.2521	8.5857	0.5297	-0.4473	0.6203	0.3669
4.64	-9.7937	-0.0878	-1.7165	-0.0526	0.0262	-0.0637	24.7310	-5.3535	8.5282	0.5295	-0.4475	0.6202	0.3668
4.65	-9.7898	-0.0944	-1.7038	-0.0535	0.0172	-0.0619	24.8556	-5.6241	8.7099	0.5294	-0.4478	0.6203	0.3669
4.66	-9.7985	-0.1141	-1.7118	-0.0541	0.0144	-0.0614	24.9522	-5.3549	8.5710	0.5293	-0.4479	0.6202	0.3669
4.67	-9.7983	-0.1319	-1.7229	-0.0553	0.0112	-0.0566	24.8381	-5.4787	8.6275	0.5292	-0.4481	0.6202	0.3669
4.68	-9.7950	-0.1452	-1.7177	-0.0524	0.0058	-0.0524	24.7524	-5.4560	8.6696	0.5290	-0.4482	0.6201	0.3669
4.69	-9.7910	-0.1510	-1.7233	-0.0535	0.0070	-0.0478	24.5646	-5.5204	8.5253	0.5289	-0.4484	0.6201	0.3670
4.7	-9.8013	-0.1658	-1.7310	-0.0532	0.0047	-0.0515	24.4590	-5.5401	8.7813	0.5288	-0.4486	0.6200	0.3671
4.71	-9.7757	-0.1810	-1.7127	-0.0426	-0.0043	-0.0483	24.7518	-5.3818	8.6342	0.5287	-0.4486	0.6199	0.3671
4.72	-9.7876	-0.1744	-1.6969	-0.0274	-0.0016	-0.0405	24.7487	-5.2803	8.6771	0.5287	-0.4487	0.6200	0.3672
4.73	-9.7998	-0.1754	-1.6967	-0.0302	-0.0080	-0.0466	24.7097	-5.0602	8.5793	0.5286	-0.4487	0.6199	0.3672
4.74	-9.7759	-0.1848	-1.6957	-0.0231	-0.0061	-0.0369	24.5865	-5.4365	8.6033	0.5286	-0.4488	0.6200	0.3673
4.75	-9.7313	-0.1651	-1.6954	-0.0031	-0.0168	-0.0323	24.4488	-5.1851	8.7511	0.5285	-0.4487	0.6199	0.3672
4.76	-9.7304	-0.1324	-1.6718	-0.0018	-0.0155	-0.0333	24.3961	-5.1348	8.7458	0.5286	-0.4486	0.6200	0.3673
4.77	-9.7179	-0.1056	-1.6706	0.0040	-0.0053	-0.0352	24.6700	-5.2487	8.6871	0.5286	-0.4485	0.6201	0.3672
4.78	-9.7083	-0.1004	-1.6665	0.0112	-0.0118	-0.0316	24.6276	-5.4655	8.6364	0.5287	-0.4484	0.6202	0.3672
4.79	-9.7039	-0.0832	-1.6542	0.0165	-0.0108	-0.0365	24.7560	-5.5659	8.6577	0.5287	-0.4483	0.6203	0.3671
4.8	-9.7123	-0.0568	-1.6531	0.0230	-0.0052	-0.0323	24.7332	-5.4602	8.6690	0.5288	-0.4482	0.6203	0.3670
4.81	-9.7382	-0.0445	-1.6592	0.0176	0.0003	-0.0301	24.9484	-5.4485	8.5817	0.5288	-0.4481	0.6205	0.3669
4.82	-9.7424	-0.0247	-1.6599	0.0166	-0.0004	-0.0325	24.7991	-5.6532	8.6225	0.5288	-0.4479	0.6205	0.3668
4.83	-9.7336	-0.0196	-1.6547	0.0153	-0.0024	-0.0347	24.8651	-5.7426	8.8166	0.5289	-0.4479	0.6207	0.3668
4.84	-9.7055	-0.0074	-1.6707	0.0054	0.0060	-0.0298	24.7261	-5.2938	8.8113	0.5288	-0.4478	0.6208	0.3667
4.85	-9.7198	0.0002	-1.6683	0.0135	0.0176	-0.0278	24.6158	-5.5814	8.6368	0.5288	-0.4477	0.6210	0.3666
4.86	-9.7291	0.0167	-1.6855	0.0023	0.0199	-0.0299	24.6601	-5.5379	8.7586	0.5287	-0.4477	0.6211	0.3665
4.87	-9.7292	0.0406	-1.6852	-0.0003	0.0182	-0.0326	24.6515	-5.4947	8.6121	0.5286	-0.4476	0.6212	0.3664
4.88	-9.7423	0.0536	-1.7113	-0.0020	0.0297	-0.0323	24.6067	-5.5658	8.7226	0.5285	-0.4476	0.6214	0.3663
4.89	-9.7574	0.0443	-1.7314	-0.0144	0.0212	-0.0407	24.4652	-5.2804	8.7595	0.5284	-0.4476	0.6214	0.3662
4.9	-9.7585	0.0231	-1.7392	-0.0225	0.0194	-0.0494	24.3602	-5.2020	8.7116	0.5283	-0.4478	0.6216	0.3662
4.91	-9.7691	0.0234	-1.7462	-0.0210	0.0209	-0.0529	24.4243	-5.2346	8.7797	0.5282	-0.4478	0.6216	0.3661
4.92	-9.7805	0.0318	-1.7538	-0.0189	0.0233	-0.0562	24.5089	-5.3968	8.6319	0.5282	-0.4480	0.6217	0.3661
4.93	-9.7934	0.0197	-1.7605	-0.0251	0.0161	-0.0561	24.3453	-5.3872	8.7612	0.5280	-0.4480	0.6216	0.3660
4.94	-9.7891	0.0119	-1.7696	-0.0266	0.0140	-0.0556	24.6601	-5.2678	8.9439	0.5280	-0.4482	0.6217	0.3659
4.95	-9.7707	0.0110	-1.7674	-0.0299	0.0027	-0.0648	24.7795	-5.1543	8.9714	0.5279	-0.4483	0.6217	0.3659
4.96	-9.7643	-0.0177	-1.7628	-0.0386	0.0009	-0.0657	24.6543	-5.3814	8.9896	0.5278	-0.4484	0.6216	0.3659
4.97	-9.7691	-0.0367	-1.7713	-0.0515	0.0023	-0.0641	24.5328	-5.4853	8.6691	0.5278	-0.4486	0.6216	0.3659
4.98	-9.7701	-0.0618	-1.7681	-0.0536	0.0008	-0.0659	24.8862	-5.4897	8.6803	0.5277	-0.4488	0.6214	0.3659
4.99	-9.7855	-0.0773	-1.7744	-0.0526	-0.0015	-0.0662	24.8763	-5.6447	8.8430	0.5277	-0.4490	0.6214	0.3660
5	-9.7839	-0.1018	-1.7657	-0.0556	-0.0105	-0.0673	24.7079	-5.6678	8.7712	0.5275	-0.4491	0.6212	0.3660
5.01	-9.7650	-0.1248	-1.7581	-0.0562	-0.0029	-0.0583	24.8615	-5.5026	8.7009	0.5275	-0.4493	0.6212	0.3661
5.02	-9.7568	-0.1375	-1.7531	-0.0537	-0.0091	-0.0576	24.8042	-5.3284	8.6706	0.5274	-0.4495	0.6210	0.3662
5.03	-9.7618	-0.1535	-1.7468	-0.0520	-0.0156	-0.0551	24.8633	-5.4928	8.8566	0.5274	-0.4496	0.6209	0.3663
5.04	-9.7234	-0.1662	-1.7457	-0.0391	-0.0181	-0.0498	24.6059	-5.3659	8.7399	0.5274	-0.4497	0.6209	0.3664
5.05	-9.7461	-0.1487	-1.7205	-0.0281	-0.0139	-0.0489	24.5625	-5.5419	8.7159	0.5273	-0.4497	0.6208	0.3664
5.06	-9.7560	-0.1534	-1.7487	-0.0300	-0.0054	-0.0497	24.7244	-5.5462	8.6211	0.5273	-0.4498	0.6208	0.3665
5.07	-9.7187	-0.1627	-1.7471	-0.0265	-0.0170	-0.0555	24.4195	-5.2735	8.7399	0.5273	-0.4498	0.6207	0.3664
5.08	-9.7288	-0.1423	-1.7184	-0.0260	-0.0092	-0.0558	24.6381	-5.2151	8.7551	0.5273	-0.4499	0.6207	0.3665
5.09	-9.7436	-0.1544	-1.7439	-0.0217	-0.0066	-0.0464	24.9211	-5.3363	9.0380	0.5273	-0.4499	0.6207	0.3665
5.1	-9.7606	-0.1475	-1.7365	-0.0163	-0.0082	-0.0424	24.9421	-5.2158	8.9582	0.5273	-0.4499	0.6207	0.3665
5.11	-9.7302	-0.1109	-1.7249	-0.0047	-0.0171	-0.0408	24.7476	-5.1482	8.7605	0.5273	-0.4498	0.6207	0.3665
5.12	-9.7488	-0.0732	-1.7001	-0.0049	-0.0111	-0.0340	24.7052	-5.0255	8.9390	0.5273	-0.4498	0.6207	0.3665
5.13	-9.7631	-0.0727	-1.7280	-0.0172	-0.0052	-0.0399	24.5061	-5.2232	8.8348	0.5273	-0.4498	0.6208	0.3665
5.14	-9.7626	-0.0830	-1.7225	-0.0161	-0.0098	-0.0397	24.4153	-5.3234	8.7707	0.5272	-0.4497	0.6207	0.3665
5.15	-9.7620	-0.0747	-1.7120	-0.0051	-0.0126	-0.0339	24.5513	-5.3124	8.7973	0.5273	-0.4497	0.6209	0.3665
5.16	-9.7634	-0.0585	-1.7199	-0.0074	-0.0161	-0.0352	24.6981	-5.4509	8.6440	0.5273	-0.4496	0.6208	0.3665
5.17	-9.7605	-0.0607	-1.7203	-0.0119	-0.0156	-0.0367	24.8753	-5.2965	8.8091	0.5273	-0.4496	0.6209	0.3666
5.18	-9.7433	-0.0549	-1.7028	-0.0189	-0.0151	-0.0358	24.5574	-5.4053	8.6888	0.5273	-0.4495	0.6208	0.3666
5.19	-9.7495	-0.0491	-1.6959	-0.0260	-0.0207	-0.0332	24.6813	-5.5159	8.7122	0.5273	-0.4495	0.6209	0.3667
5.2	-9.7478	-0.0514	-1.7015	-0.0204	-0.0153	-0.0366	24.8333	-5.4453	8.6831	0.5273	-0.4495	0.6209	0.3667
5.21	-9.7434	-0.0414	-1.6918	-0.0266	-0.0139	-0.0402	24.4610	-5.2951	8.7842	0.5272	-0.4495	0.6208	0.3668
5.22	-9.7414	-0.0433	-1.6920	-0.0262	-0.0152	-0.0377	24.6988	-5.3329	8.7962	0.5273	-0.4496	0.6209	0.3669
5.23	-9.7528	-0.0422	-1.6970	-0.0286	-0.0087	-0.0323	24.7801	-5.2707	8.7890	0.5271	-0.4495	0.6208	0.3669
5.24	-9.7642	-0.0499	-1.6970	-0.0234	-0.0091	-0.0369	24.9090	-5.4154	8.7928	0.5271	-0.4495	0.6209	0.3670
5.25	-9.7500	-0.0583	-1.6958	-0.0244	-0.0140	-0.0459	24.6874	-5.2859	8.7968	0.5271	-0.4495	0.6208	0.3670
5.26	-9.7630	-0.0583	-1.7036	-0.0299	-0.0118	-0.0446	24.4186	-5.2554	8.7715	0.5271	-0.4496	0.6208	0.3670
5.27	-9.7526	-0.0571	-1.7079	-0.0259	-0.0162	-0.0369	24.7086	-5.4530	8.6580	0.5270	-0.4496	0.6208	0.3671
5.28	-9.7578	-0.0593	-1.6988	-0.0271	-0.0130	-0.0454	24.5008	-5.3393	8.7946	0.5270	-0.4496	0.6207	0.3671
5.29	-9.7530	-0.0594	-1.7003	-0.0275	-0.0063	-0.0448	24.5368	-5.0682	8.7827	0.5270	-0.4496	0.6207	0.3672
5.3	-9.7399	-0.0560	-1.7094	-0.0231	-0.0078	-0.0473	24.6777	-5.3895	8.7951	0.5270	-0.4497	0.6207	0.3672
5.31	-9.7401	-0.0496	-1.6954	-0.0187	-0.0163	-0.0515	24.6800	-5.4307	8.7890	0.5270	-0.4497	0.6207	0.3672
5.32	-9.7298	-0.0557	-1.6979	-0.0222	-0.0079	-0.0543	24.4901	-5.1542	8.7941	0.5269	-0.4497	0.6206	0.3672
5.33	-9.7231	-0.0572	-1.7025	-0.0221	-0.0062	-0.0572	24.6687	-5.3820	8.7766	0.5270	-0.4498	0.6207	0.3672
5.34	-9.7274	-0.0542	-1.7030	-0.0223	-0.0145	-0.0514	24.5564	-5.3941	8.6608	0.5270	-0.4498	0.6206	0.3672
5.35	-9.7346	-0.0494	-1.6973	-0.0242	-0.0108	-0.0610	24.7914	-5.4082	8.7848	0.5270	-0.4499	0.6206	0.3672
5.36	-9.7510	-0.0661	-1.7023	-0.0274	-0.0117	-0.0550	24.7911	-5.3876	8.8136	0.5270	-0.4499	0.6205	0.3672
5.37	-9.7553	-0.0717	-1.7016	-0.0276	-0.0059	-0.0575	24.7007	-5.2963	8.6252	0.5269	-0.4500	0.6205	0.3672
5.38	-9.7566	-0.0734	-1.7010	-0.0274	-0.0057	-0.0555	24.8564	-5.5107	8.8540	0.5269	-0.4501	0.6205	0.3672
5.39	-9.7598	-0.0898	-1.7136	-0.0339	-0.0074	-0.0577	24.6741	-5.3880	8.8978	0.5269	-0.4502	0.6203	0.3672
5.4	-9.7606	-0.1020	-1.7153	-0.0312	-0.0101	-0.0535	24.7369	-5.4161	8.7898	0.5269	-0.4503	0.6204	0.3672
5.41	-9.7599	-0.1104	-1.7142	-0.0326	-0.0133	-0.0507	24.9524	-5.1996	8.7477	0.5268	-0.4503	0.6203	0.3673
5.42	-9.7475	-0.1166	-1.7101	-0.0290	-0.0091	-0.0462	24.5168	-5.1022	8.6773	0.5268	-0.4504	0.6203	0.3673
5.43	-9.7556	-0.1301	-1.7101	-0.0270	-0.0139	-0.0461	24.6337	-5.2337	8.6970	0.5268	-0.4504	0.6202	0.3673
5.44	-9.7594	-0.1304	-1.7136	-0.0281	-0.0101	-0.0494	24.5871	-5.3549	8.5953	0.5268	-0.4504	0.6202	0.3674
5.45	-9.7628	-0.1252	-1.6988	-0.0269	-0.0101	-0.0479	24.5129	-5.4148	8.7832	0.5267	-0.4505	0.6202	0.3674
5.46	-9.7773	-0.1343	-1.7019	-0.0254	-0.0046	-0.0439	24.5170	-5.3960	8.8169	0.5267	-0.4505	0.6202	0.3674
5.47	-9.7455	-0.1288	-1.7130	-0.0203	-0.0177	-0.0488	24.6537	-5.3962	8.6520	0.5267	-0.4506	0.6202	0.3675
5.48	-9.7244	-0.1071	-1.6856	-0.0066	-0.0195	-0.0438	24.5534	-5.2875	8.6401	0.5267	-0.4505	0.6201	0.3674
5.49	-9.7259	-0.0941	-1.6912	-0.0109	-0.0054	-0.0474	24.5802	-5.5456	8.9509	0.5268	-0.4505	0.6202	0.3674
5.5	-9.7216	-0.0981	-1.6917	-0.0066	-0.0057	-0.0431	24.6345	-5.2800	8.6708	0.5267	-0.4504	0.6202	0.3673
5.51	-9.7245	-0.0897	-1.6730	-0.0055	-0.0076	-0.0429	24.6135	-5.1288	8.7037	0.5268	-0.4504	0.6202	0.3674
5.52	-9.7314	-0.0904	-1.6685	-0.0031	-0.0086	-0.0359	24.6147	-5.2705	8.8734	0.5268	-0.4504	0.6203	0.3673
5.53	-9.7505	-0.0855	-1.6626	-0.0055	-0.0118	-0.0314	24.6316	-5.4670	8.8438	0.5267	-0.4503	0.6203	0.3673
5.54	-9.7574	-0.0608	-1.6811	-0.0063	-0.0077	-0.0391	24.5801	-5.5967	8.5506	0.5268	-0.4503	0.6204	0.3673
5.55	-9.7395	-0.0685	-1.6702	-0.0194	-0.0069	-0.0400	24.8299	-5.3145	8.6836	0.5267	-0.4503	0.6204	0.3673
5.56	-9.7246	-0.0760	-1.6738	-0.0142	0.0010	-0.0371	24.8479	-5.5093	8.8727	0.5267	-0.4503	0.6205	0.3673
5.57	-9.7288	-0.0816	-1.6972	-0.0193	-0.0042	-0.0367	24.7056	-5.3897	8.5703	0.5266	-0.4502	0.6204	0.3673
5.58	-9.7425	-0.0730	-1.6954	-0.0195	-0.0049	-0.0278	24.6623	-5.4123	8.7496	0.5266	-0.4502	0.6205	0.3674
5.59	-9.7308	-0.0455	-1.7008	-0.0161	-0.0049	-0.0310	24.6898	-5.3590	8.9725	0.5265	-0.4502	0.6206	0.3674
5.6	-9.7396	-0.0193	-1.6999	-0.0146	-0.0004	-0.0308	25.1349	-5.2691	8.9779	0.5265	-0.4502	0.6206	0.3674
5.61	-9.7573	-0.0141	-1.7168	-0.0176	0.0079	-0.0375	24.8764	-5.3709	8.9717	0.5264	-0.4502	0.6207	0.3674
5.62	-9.7520	-0.0377	-1.7322	-0.0192	0.0075	-0.0419	24.7034	-5.2302	8.8340	0.5263	-0.4502	0.6207	0.3674
5.63	-9.7548	-0.0307	-1.7354	-0.0213	0.0020	-0.0508	24.4079	-5.1912	8.7215	0.5263	-0.4503	0.6208	0.3674
5.64	-9.7639	-0.0208	-1.7494	-0.0235	0.0046	-0.0495	24.3745	-5.3171	8.7413	0.5262	-0.4503	0.6207	0.3673
5.65	-9.7634	-0.0234	-1.7485	-0.0256	0.0031	-0.0547	24.4891	-5.1877	8.7068	0.5262	-0.4504	0.6208	0.3674
5.66	-9.7642	-0.0236	-1.7405	-0.0295	-0.0002	-0.0500	24.6161	-5.5082	8.9326	0.5261	-0.4505	0.6207	0.3673
5.67	-9.7683	-0.0302	-1.7530	-0.0256	-0.0041	-0.0562	24.6694	-5.3424	8.8283	0.5261	-0.4506	0.6208	0.3674
5.68	-9.7628	-0.0478	-1.7474	-0.0355	-0.0031	-0.0561	24.5599	-5.1545	8.8366	0.5260	-0.4506	0.6207	0.3673
5.69	-9.7618	-0.0627	-1.7512	-0.0407	-0.0023	-0.0576	24.4167	-5.3913	8.7690	0.5260	-0.4508	0.6206	0.3674
5.7	-9.7697	-0.0774	-1.7568	-0.0467	-0.0049	-0.0574	24.5802	-5.2836	8.7826	0.5259	-0.4509	0.6206	0.3674
5.71	-9.7628	-0.0918	-1.7447	-0.0387	-0.0110	-0.0518	24.7500	-5.1310	8.7743	0.5258	-0.4509	0.6205	0.3675
5.72	-9.7621	-0.0987	-1.7545	-0.0281	-0.0156	-0.0519	24.7437	-5.6522	8.5075	0.5259	-0.4510	0.6205	0.3676
5.73	-9.7592	-0.1152	-1.7483	-0.0318	-0.0135	-0.0528	24.6985	-5.6190	8.5702	0.5258	-0.4511	0.6204	0.3676
5.74	-9.7554	-0.1189	-1.7440	-0.0293	-0.0185	-0.0454	24.6164	-5.4743	8.5734	0.5259	-0.4511	0.6204	0.3677
5.75	-9.7487	-0.1217	-1.7472	-0.0277	-0.0099	-0.0406	24.7395	-5.4597	8.8589	0.5258	-0.4511	0.6203	0.3677
5.76	-9.7200	-0.1143	-1.7436	-0.0219	-0.0183	-0.0444	24.7499	-5.5857	8.9260	0.5258	-0.4511	0.6203	0.3677
5.77	-9.7388	-0.1058	-1.7099	-0.0087	-0.0216	-0.0438	24.6882	-5.5173	8.7452	0.5258	-0.4511	0.6203	0.3677
5.78	-9.7559	-0.0959	-1.7362	-0.0133	-0.0116	-0.0488	24.5793	-5.3650	8.7280	0.5259	-0.4511	0.6203	0.3677
5.79	-9.7068	-0.1086	-1.7261	-0.0110	-0.0200	-0.0478	24.4205	-5.4930	8.7367	0.5259	-0.4511	0.6203	0.3677
5.8	-9.7335	-0.1006	-1.6968	-0.0026	-0.0161	-0.0453	24.5554	-5.3134	8.5908	0.5259	-0.4510	0.6203	0.3677
5.81	-9.7520	-0.1150	-1.7313	-0.0090	-0.0015	-0.0394	24.6758	-5.3060	8.7225	0.5260	-0.4510	0.6203	0.3677
5.82	-9.7442	-0.1102	-1.7227	-0.0025	-0.0125	-0.0385	24.6475	-5.1946	8.7214	0.5259	-0.4509	0.6203	0.3676
5.83	-9.7261	-0.0660	-1.7074	-0.0026	-0.0143	-0.0408	24.6207	-5.3261	8.8578	0.5260	-0.4509	0.6204	0.3677
5.84	-9.7478	-0.0403	-1.7060	-0.0017	-0.0053	-0.0402	24.5745	-5.4038	8.7670	0.5260	-0.4508	0.6204	0.3676
5.85	-9.7589	-0.0546	-1.7120	-0.0089	-0.0094	-0.0441	24.6940	-5.3361	8.7169	0.5260	-0.4508	0.6205	0.3676
5.86	-9.7452	-0.0476	-1.7036	-0.0035	-0.0089	-0.0473	24.5377	-5.0601	8.7335	0.5260	-0.4508	0.6205	0.3676
5.87	-9.7435	-0.0436	-1.7000	-0.0077	-0.0082	-0.0532	24.3099	-5.3329	8.5949	0.5260	-0.4508	0.6205	0.3675
5.88	-9.7417	-0.0362	-1.7023	-0.0138	-0.0052	-0.0496	24.5155	-5.5110	8.9140	0.5261	-0.4508	0.6205	0.3675
5.89	-9.7416	-0.0436	-1.7019	-0.0210	-0.0104	-0.0461	24.5804	-5.1276	8.8471	0.5260	-0.4508	0.6204	0.3675
5.9	-9.7431	-0.0531	-1.6972	-0.0290	-0.0140	-0.0364	24.5450	-5.4842	8.5840	0.5260	-0.4508	0.6205	0.3676
5.91	-9.7443	-0.0562	-1.6967	-0.0257	-0.0074	-0.0468	24.7206	-5.5371	8.7060	0.5260	-0.4508	0.6204	0.3676
5.92	-9.7426	-0.0611	-1.6986	-0.0297	-0.0089	-0.0441	24.7429	-5.4290	8.7509	0.5260	-0.4509	0.6205	0.3677
5.93	-9.7474	-0.0788	-1.7027	-0.0280	-0.0081	-0.0472	24.7303	-5.5765	8.7213	0.5259	-0.4509	0.6204	0.3677
5.94	-9.7592	-0.0911	-1.7050	-0.0278	-0.0037	-0.0478	24.7373	-5.5495	8.7605	0.5259	-0.4510	0.6204	0.3677
5.95	-9.7605	-0.0947	-1.7122	-0.0276	-0.0119	-0.0426	24.5438	-5.5583	8.6776	0.5258	-0.4510	0.6204	0.3677
5.96	-9.7576	-0.1018	-1.7181	-0.0269	-0.0092	-0.0426	24.6324	-5.5697	8.6109	0.5258	-0.4510	0.6203	0.3678
5.97	-9.7672	-0.1160	-1.7189	-0.0281	-0.0072	-0.0450	24.7568	-5.4436	8.8707	0.5258	-0.4511	0.6204	0.3678
5.98	-9.7607	-0.1211	-1.7149	-0.0278	-0.0131	-0.0434	24.4510	-5.3633	8.7949	0.5257	-0.4511	0.6203	0.3679
5.99	-9.7634	-0.1223	-1.7066	-0.0238	-0.0178	-0.0381	24.7514	-5.3894	8.8679	0.5257	-0.4511	0.6203	0.3680
6	-9.7544	-0.1121	-1.7096	-0.0165	-0.0080	-0.0372	24.6359	-5.3763	8.6247	0.5257	-0.4510	0.6203	0.3679
6.01	-9.7344	-0.1023	-1.7092	-0.0104	-0.0141	-0.0427	24.5540	-5.3901	8.5307	0.5257	-0.4510	0.6203	0.3680
6.02	-9.7355	-0.0965	-1.6985	-0.0067	-0.0139	-0.0423	24.5350	-5.1855	8.7297	0.5257	-0.4510	0.6203	0.3680
6.03	-9.7317	-0.0936	-1.7050	-0.0024	-0.0103	-0.0437	24.6539	-5.0431	8.7116	0.5257	-0.4509	0.6204	0.3679
6.04	-9.7305	-0.0834	-1.6964	-0.0004	-0.0146	-0.0457	24.7162	-5.4756	8.7619	0.5258	-0.4509	0.6204	0.3679
6.05	-9.7290	-0.0653	-1.6970	-0.0004	-0.0071	-0.0424	24.5476	-5.1368	8.5310	0.5258	-0.4509	0.6204	0.3678
6.06	-9.7279	-0.0475	-1.7091	0.0016	-0.0047	-0.0451	24.6986	-5.4444	8.6647	0.5259	-0.4508	0.6205	0.3678
6.07	-9.7302	-0.0399	-1.7036	-0.0013	-0.0036	-0.0459	24.5429	-5.3256	8.8471	0.5258	-0.4508	0.6205	0.3677
6.08	-9.7488	-0.0256	-1.6962	-0.0032	-0.0043	-0.0429	24.6521	-4.9650	8.8119	0.5259	-0.4508	0.6206	0.3677
6.09	-9.7421	-0.0173	-1.7016	-0.0037	-0.0039	-0.0453	24.8873	-5.3599	8.8065	0.5259	-0.4507	0.6206	0.3676
6.1	-9.7265	-0.0129	-1.7006	-0.0079	-0.0118	-0.0420	25.3628	-5.1668	8.9125	0.5259	-0.4507	0.6206	0.3676
6.11	-9.7345	-0.0007	-1.7043	-0.0215	-0.0139	-0.0479	25.0107	-5.3380	8.8697	0.5259	-0.4507	0.6206	0.3676
6.12	-9.7288	-0.0110	-1.7119	-0.0303	-0.0073	-0.0507	24.8291	-5.3121	8.8645	0.5259	-0.4508	0.6206	0.3677
6.13	-9.7246	-0.0143	-1.7097	-0.0283	-0.0047	-0.0485	24.7042	-5.3153	8.7552	0.5258	-0.4508	0.6205	0.3677
6.14	-9.7267	-0.0237	-1.7162	-0.0309	-0.0041	-0.0549	24.8367	-5.4134	8.6675	0.5258	-0.4509	0.6205	0.3677
6.15	-9.7239	-0.0385	-1.7299	-0.0338	-0.0028	-0.0627	24.6527	-5.3891	8.9512	0.5258	-0.4510	0.6205	0.3677
6.16	-9.7416	-0.0664	-1.7373	-0.0415	0.0032	-0.0562	24.5377	-5.4194	8.8304	0.5257	-0.4511	0.6204	0.3677
6.17	-9.7779	-0.0881	-1.7346	-0.0443	-0.0089	-0.0603	24.9372	-5.3304	8.7720	0.5257	-0.4513	0.6204	0.3678
6.18	-9.7831	-0.1155	-1.7561	-0.0535	-0.0100	-0.0610	24.7909	-5.2957	8.9017	0.5256	-0.4514	0.6202	0.3678
6.19	-9.7541	-0.1174	-1.7606	-0.0491	-0.0048	-0.0540	24.5594	-5.2135	8.9993	0.5255	-0.4515	0.6202	0.3679
6.2	-9.7584	-0.1253	-1.7430	-0.0432	-0.0053	-0.0581	24.5556	-5.2215	8.7541	0.5255	-0.4517	0.6201	0.3680
6.21	-9.7614	-0.1626	-1.7717	-0.0511	-0.0035	-0.0622	24.7533	-5.2772	8.5940	0.5254	-0.4518	0.6200	0.3680
6.22	-9.7615	-0.1795	-1.7675	-0.0506	-0.0127	-0.0566	24.5733	-5.5532	8.7228	0.5254	-0.4520	0.6199	0.3681
6.23	-9.7651	-0.1856	-1.7457	-0.0289	-0.0142	-0.0566	24.7015	-5.2642	8.8497	0.5253	-0.4520	0.6198	0.3681
6.24	-9.7707	-0.1860	-1.7515	-0.0285	-0.0144	-0.0570	24.6542	-5.2594	8.6820	0.5254	-0.4521	0.6198	0.3682
6.25	-9.7827	-0.1975	-1.7396	-0.0263	-0.0157	-0.0561	24.6094	-5.4344	8.8191	0.5253	-0.4521	0.6197	0.3681
6.26	-9.7938	-0.1981	-1.7272	-0.0286	-0.0212	-0.0510	24.7377	-5.1553	8.8681	0.5254	-0.4522	0.6197	0.3682
6.27	-9.7786	-0.1988	-1.7265	-0.0222	-0.0297	-0.0416	24.7163	-5.1229	8.7850	0.5254	-0.4521	0.6196	0.3683
6.28	-9.7403	-0.2023	-1.7109	-0.0126	-0.0323	-0.0414	24.6924	-5.1999	8.7232	0.5255	-0.4521	0.6195	0.3683
6.29	-9.7317	-0.1892	-1.6980	-0.0134	-0.0257	-0.0331	24.8449	-5.3436	8.6080	0.5255	-0.4520	0.6195	0.3684
6.3	-9.7313	-0.1624	-1.7055	-0.0059	-0.0157	-0.0302	24.8611	-5.2809	8.5758	0.5255	-0.4519	0.6195	0.3684
6.31	-9.7244	-0.1235	-1.7044	-0.0026	-0.0257	-0.0205	24.5869	-5.3878	8.5290	0.5256	-0.4518	0.6196	0.3685
6.32	-9.7244	-0.0814	-1.6979	-0.0023	-0.0177	-0.0267	24.7108	-5.4102	8.8261	0.5256	-0.4516	0.6196	0.3685
6.33	-9.7276	-0.0748	-1.6954	-0.0032	-0.0140	-0.0306	24.8442	-5.2873	8.7928	0.5256	-0.4516	0.6197	0.3685
6.34	-9.7130	-0.0709	-1.6977	0.0013	-0.0163	-0.0285	24.8860	-5.4889	8.7812	0.5256	-0.4515	0.6197	0.3685
6.35	-9.7176	-0.0630	-1.6958	0.0003	-0.0165	-0.0362	24.6887	-5.4449	8.5986	0.5257	-0.4514	0.6198	0.3685
6.36	-9.7181	-0.0427	-1.6925	-0.0016	-0.0146	-0.0357	24.7333	-5.1835	8.6233	0.5257	-0.4513	0.6198	0.3685
6.37	-9.7158	-0.0092	-1.6865	0.0017	-0.0167	-0.0306	24.8135	-5.2651	8.5897	0.5257	-0.4512	0.6198	0.3685
6.38	-9.7116	0.0145	-1.6775	0.0029	-0.0038	-0.0396	24.8147	-5.1225	8.6635	0.5258	-0.4512	0.6199	0.3685
6.39	-9.7011	0.0150	-1.6767	-0.0167	-0.0028	-0.0463	24.7304	-4.9128	8.7856	0.5257	-0.4511	0.6199	0.3684
6.4	-9.7199	0.0072	-1.6822	-0.0276	0.0001	-0.0454	24.5968	-5.2022	8.8120	0.5257	-0.4512	0.6199	0.3685
6.41	-9.7056	-0.0387	-1.6986	-0.0261	0.0034	-0.0437	24.8002	-5.3663	8.8999	0.5256	-0.4513	0.6199	0.3685
6.42	-9.7352	-0.0439	-1.6953	-0.0461	-0.0014	-0.0442	24.5307	-5.4744	8.6660	0.5256	-0.4514	0.6199	0.3686
6.43	-9.7576	-0.0347	-1.7213	-0.0521	0.0146	-0.0335	24.5517	-5.5069	8.8395	0.5253	-0.4514	0.6199	0.3686
6.44	-9.7390	-0.0714	-1.7248	-0.0518	0.0023	-0.0369	24.6006	-5.4633	8.6244	0.5252	-0.4515	0.6199	0.3687
6.45	-9.7504	-0.0811	-1.7124	-0.0478	0.0157	-0.0317	24.5535	-5.5393	8.6745	0.5251	-0.4516	0.6199	0.3688
6.46	-9.7429	-0.0897	-1.7322	-0.0503	0.0194	-0.0348	24.6734	-5.3107	8.7110	0.5248	-0.4517	0.6199	0.3689
6.47	-9.7408	-0.0952	-1.7314	-0.0448	0.0151	-0.0369	24.4852	-5.2314	8.7120	0.5248	-0.4519	0.6200	0.3690
6.48	-9.7116	-0.0821	-1.7131	-0.0280	0.0047	-0.0373	24.7416	-5.3166	8.8074	0.5246	-0.4519	0.6200	0.3690
6.49	-9.7555	-0.0676	-1.7055	-0.0281	0.0115	-0.0464	24.8460	-5.3980	8.5894	0.5246	-0.4520	0.6201	0.3690
6.5	-9.7663	-0.0718	-1.7510	-0.0276	0.0155	-0.0552	24.6134	-5.7177	8.7054	0.5244	-0.4520	0.6200	0.3689
6.51	-9.7317	-0.0636	-1.7205	-0.0272	-0.0065	-0.0594	24.6048	-5.6199	8.9724	0.5244	-0.4522	0.6200	0.3689
6.52	-9.7323	-0.0583	-1.6999	-0.0286	0.0085	-0.0619	24.6800	-5.2126	8.7595	0.5244	-0.4523	0.6200	0.3689
6.53	-9.7332	-0.0648	-1.7122	-0.0290	0.0172	-0.0545	24.7371	-5.3159	8.6704	0.5243	-0.4524	0.6200	0.3688
6.54	-9.7428	-0.0587	-1.7021	-0.0267	0.0135	-0.0594	24.6110	-5.2065	8.8150	0.5242	-0.4525	0.6200	0.3688
6.55	-9.7228	-0.0418	-1.6992	-0.0282	0.0132	-0.0484	24.6212	-5.3884	8.7974	0.5241	-0.4526	0.6200	0.3688
6.56	-9.7452	-0.0327	-1.6972	-0.0328	0.0181	-0.0488	24.6658	-5.3653	8.7601	0.5240	-0.4527	0.6201	0.3688
6.57	-9.7391	-0.0643	-1.7331	-0.0418	0.0216	-0.0585	24.8242	-5.6080	8.5828	0.5239	-0.4528	0.6200	0.3687
6.58	-9.7573	-0.0936	-1.7472	-0.0448	0.0186	-0.0547	24.7805	-5.3144	8.7580	0.5238	-0.4530	0.6201	0.3687
6.59	-9.7645	-0.0990	-1.7598	-0.0401	0.0152	-0.0524	25.0180	-5.2274	8.9696	0.5236	-0.4531	0.6201	0.3687
6.6	-9.7795	-0.1050	-1.7721	-0.0373	0.0126	-0.0549	25.1043	-5.3633	9.0011	0.5236	-0.4533	0.6201	0.3687
6.61	-9.7877	-0.1247	-1.7851	-0.0340	0.0106	-0.0504	24.9552	-5.1385	8.8726	0.5234	-0.4534	0.6201	0.3687
6.62	-9.7889	-0.1301	-1.7988	-0.0277	0.0065	-0.0467	24.6777	-5.1831	8.7714	0.5234	-0.4535	0.6201	0.3687
6.63	-9.7888	-0.1320	-1.7955	-0.0273	-0.0055	-0.0417	24.4094	-5.0470	8.7875	0.5234	-0.4535	0.6201	0.3687
6.64	-9.7598	-0.1278	-1.7969	-0.0283	-0.0087	-0.0404	24.3563	-5.2454	8.9403	0.5233	-0.4535	0.6200	0.3687
6.65	-9.7607	-0.1209	-1.7798	-0.0260	-0.0165	-0.0364	24.5192	-5.3269	8.6801	0.5233	-0.4535	0.6201	0.3689
6.66	-9.7425	-0.1100	-1.7672	-0.0183	-0.0210	-0.0317	24.8378	-5.5001	8.8019	0.5233	-0.4535	0.6200	0.3689
6.67	-9.7275	-0.1002	-1.7689	-0.0091	-0.0143	-0.0336	24.8194	-5.6778	8.8436	0.5234	-0.4534	0.6201	0.3690
6.68	-9.7141	-0.0922	-1.7545	-0.0160	-0.0136	-0.0346	24.7503	-5.6833	8.8438	0.5233	-0.4533	0.6200	0.3690
6.69	-9.7141	-0.0774	-1.7488	-0.0067	-0.0149	-0.0363	24.4532	-5.6434	8.6865	0.5233	-0.4533	0.6201	0.3690
6.7	-9.7190	-0.0637	-1.7581	-0.0010	-0.0137	-0.0334	24.7351	-5.3912	8.8345	0.5234	-0.4532	0.6201	0.3690
6.71	-9.7248	-0.0497	-1.7660	-0.0023	-0.0115	-0.0352	24.9487	-5.4288	8.7417	0.5233	-0.4531	0.6201	0.3690
6.72	-9.7405	-0.0272	-1.7739	-0.0019	-0.0068	-0.0377	24.7055	-5.2925	8.6528	0.5234	-0.4531	0.6202	0.3690
6.73	-9.7419	-0.0248	-1.7803	-0.0020	-0.0043	-0.0425	24.7321	-5.5022	8.5769	0.5234	-0.4531	0.6202	0.3689
6.74	-9.7461	-0.0179	-1.7822	-0.0114	-0.0060	-0.0390	24.7602	-5.4340	8.6548	0.5234	-0.4531	0.6203	0.3689
6.75	-9.7458	-0.0092	-1.8002	-0.0176	-0.0050	-0.0482	24.6166	-5.4017	8.8773	0.5233	-0.4530	0.6202	0.3689
6.76	-9.7455	-0.0108	-1.7805	-0.0193	-0.0012	-0.0518	24.5829	-5.3019	8.6749	0.5234	-0.4531	0.6203	0.3689
6.77	-9.7557	-0.0247	-1.7901	-0.0277	-0.0066	-0.0473	24.4477	-5.1753	8.7980	0.5233	-0.4532	0.6202	0.3689
6.78	-9.7406	-0.0366	-1.7962	-0.0271	-0.0079	-0.0521	24.3518	-5.1157	8.8448	0.5233	-0.4532	0.6202	0.3689
6.79	-9.7437	-0.0405	-1.7877	-0.0289	-0.0061	-0.0551	24.4618	-5.2829	8.6978	0.5233	-0.4533	0.6202	0.3689
6.8	-9.7466	-0.0370	-1.7939	-0.0271	-0.0069	-0.0599	24.6672	-5.1624	8.7761	0.5233	-0.4534	0.6201	0.3689
6.81	-9.7429	-0.0626	-1.7786	-0.0329	-0.0123	-0.0559	24.7040	-5.2247	8.8466	0.5233	-0.4535	0.6201	0.3689
6.82	-9.7242	-0.0764	-1.7863	-0.0313	-0.0059	-0.0584	24.5594	-5.5504	8.7500	0.5232	-0.4535	0.6199	0.3689
6.83	-9.7377	-0.0794	-1.7827	-0.0278	-0.0090	-0.0567	24.3928	-5.2531	8.6916	0.5233	-0.4536	0.6200	0.3689
6.84	-9.7428	-0.0937	-1.7942	-0.0339	-0.0133	-0.0582	24.4853	-5.5676	8.8424	0.5233	-0.4537	0.6199	0.3690
6.85	-9.7580	-0.0936	-1.7953	-0.0322	-0.0123	-0.0538	24.7893	-5.5364	8.9687	0.5233	-0.4538	0.6198	0.3690
6.86	-9.7617	-0.1111	-1.8012	-0.0329	-0.0111	-0.0590	24.6208	-5.3731	8.8043	0.5232	-0.4538	0.6197	0.3690
6.87	-9.7695	-0.1344	-1.7854	-0.0347	-0.0135	-0.0567	24.7590	-5.5725	8.8334	0.5232	-0.4539	0.6197	0.3690
6.88	-9.7798	-0.1324	-1.7943	-0.0279	-0.0142	-0.0594	24.7402	-5.5500	8.8542	0.5233	-0.4540	0.6196	0.3691
6.89	-9.7450	-0.1449	-1.7975	-0.0279	-0.0315	-0.0525	24.6415	-5.3964	8.7165	0.5233	-0.4540	0.6194	0.3691
6.9	-9.7527	-0.1275	-1.7548	-0.0242	-0.0298	-0.0424	24.6592	-5.3173	8.8712	0.5234	-0.4540	0.6195	0.3692
6.91	-9.7304	-0.1212	-1.7649	-0.0279	-0.0210	-0.0486	24.9047	-5.4672	8.9055	0.5234	-0.4540	0.6193	0.3692
6.92	-9.7170	-0.1280	-1.7478	-0.0207	-0.0340	-0.0367	24.6744	-5.5284	8.7538	0.5235	-0.4540	0.6193	0.3694
6.93	-9.7088	-0.1135	-1.7345	-0.0150	-0.0343	-0.0462	24.5201	-5.3905	8.6112	0.5235	-0.4539	0.6192	0.3694
6.94	-9.7061	-0.1089	-1.7366	-0.0228	-0.0241	-0.0485	24.7198	-5.3175	8.8189	0.5235	-0.4539	0.6192	0.3694
6.95	-9.7131	-0.1078	-1.7244	-0.0099	-0.0199	-0.0431	24.5008	-5.3047	8.7509	0.5236	-0.4539	0.6191	0.3695
6.96	-9.7247	-0.0997	-1.7155	-0.0025	-0.0191	-0.0450	24.5079	-5.4202	8.8069	0.5236	-0.4538	0.6191	0.3694
6.97	-9.7259	-0.0926	-1.7154	-0.0124	-0.0175	-0.0518	24.7898	-5.2955	8.9284	0.5237	-0.4539	0.6192	0.3695
6.98	-9.7186	-0.1099	-1.7160	-0.0099	-0.0086	-0.0463	24.6942	-5.3638	8.7968	0.5237	-0.4538	0.6191	0.3694
6.99	-9.7122	-0.1213	-1.7058	-0.0126	-0.0102	-0.0379	24.5646	-5.4369	8.6025	0.5237	-0.4538	0.6192	0.3694
7	-9.7203	-0.1034	-1.7063	-0.0063	-0.0085	-0.0349	24.5454	-5.3318	8.8665	0.5237	-0.4537	0.6191	0.3694
7.01	-9.7210	-0.0802	-1.7397	-0.0114	-0.0041	-0.0293	24.6733	-5.1711	8.8618	0.5237	-0.4537	0.6192	0.3694
7.02	-9.7169	-0.0569	-1.7381	-0.0064	-0.0109	-0.0321	24.2873	-5.0353	8.7302	0.5237	-0.4536	0.6193	0.3694
7.03	-9.7244	-0.0477	-1.7335	-0.0021	-0.0017	-0.0309	24.6512	-5.6896	8.8697	0.5237	-0.4536	0.6193	0.3694
7.04	-9.7574	-0.0522	-1.7540	-0.0094	-0.0075	-0.0366	24.6154	-5.5869	8.8286	0.5237	-0.4536	0.6194	0.3694
7.05	-9.7453	-0.0559	-1.7688	-0.0016	-0.0090	-0.0433	24.8524	-5.5719	8.7980	0.5237	-0.4535	0.6194	0.3694
7.06	-9.7253	-0.0469	-1.7571	-0.0065	-0.0097	-0.0441	24.6296	-5.8338	8.7610	0.5237	-0.4535	0.6194	0.3693
7.07	-9.7068	-0.0371	-1.7398	-0.0043	-0.0139	-0.0415	24.5042	-5.8731	8.9774	0.5237	-0.4534	0.6194	0.3693
7.08	-9.7088	-0.0181	-1.7356	-0.0051	-0.0102	-0.0484	24.7845	-5.4124	8.7717	0.5238	-0.4534	0.6195	0.3693
7.09	-9.7063	-0.0134	-1.7322	-0.0199	-0.0053	-0.0550	24.9119	-5.3982	8.9038	0.5238	-0.4535	0.6194	0.3692
7.1	-9.7130	-0.0070	-1.7151	-0.0182	-0.0078	-0.0554	25.3381	-5.4351	8.9218	0.5238	-0.4535	0.6194	0.3692
7.11	-9.7088	-0.0105	-1.7111	-0.0285	0.0032	-0.0565	25.0715	-5.2497	8.9726	0.5237	-0.4536	0.6194	0.3692
7.12	-9.7210	-0.0153	-1.7260	-0.0268	0.0072	-0.0613	24.9771	-5.1301	9.0136	0.5237	-0.4537	0.6194	0.3692
7.13	-9.7347	-0.0415	-1.7374	-0.0353	0.0062	-0.0708	24.7126	-5.2912	8.6031	0.5237	-0.4539	0.6193	0.3691
7.14	-9.7378	-0.0610	-1.7401	-0.0292	0.0092	-0.0772	24.8082	-5.2033	8.6744	0.5236	-0.4540	0.6192	0.3690
7.15	-9.7455	-0.0720	-1.7665	-0.0384	0.0209	-0.0744	24.7791	-5.3287	8.9319	0.5236	-0.4543	0.6193	0.3690
7.16	-9.7539	-0.1050	-1.7823	-0.0514	0.0161	-0.0715	24.6964	-5.2908	8.8341	0.5234	-0.4545	0.6192	0.3689
7.17	-9.7440	-0.1239	-1.7979	-0.0458	0.0180	-0.0723	24.6656	-5.1006	8.7336	0.5234	-0.4547	0.6192	0.3689
7.18	-9.7411	-0.1485	-1.7937	-0.0358	0.0096	-0.0691	24.4923	-5.2526	9.0116	0.5232	-0.4548	0.6190	0.3688
7.19	-9.7899	-0.1430	-1.7858	-0.0312	0.0171	-0.0641	24.7937	-5.3963	8.9311	0.5232	-0.4550	0.6191	0.3688
7.2	-9.7908	-0.1592	-1.8157	-0.0297	0.0061	-0.0726	24.5945	-5.2802	8.8836	0.5232	-0.4552	0.6190	0.3687
7.21	-9.7524	-0.1925	-1.7905	-0.0256	-0.0142	-0.0631	24.7181	-5.3179	8.7905	0.5232	-0.4552	0.6189	0.3687
7.22	-9.7571	-0.1849	-1.7865	-0.0215	-0.0049	-0.0605	24.6798	-5.2222	8.8938	0.5232	-0.4554	0.6189	0.3687
7.23	-9.7610	-0.1863	-1.8065	-0.0209	-0.0043	-0.0504	24.9191	-5.3133	9.0025	0.5232	-0.4554	0.6189	0.3686
7.24	-9.7554	-0.1721	-1.8035	-0.0083	-0.0142	-0.0489	24.7192	-5.3661	8.7034	0.5232	-0.4554	0.6189	0.3686
7.25	-9.7337	-0.1304	-1.7708	-0.0007	-0.0093	-0.0411	24.8029	-5.4146	8.6873	0.5232	-0.4553	0.6189	0.3685
7.26	-9.7306	-0.1104	-1.7696	-0.0055	-0.0124	-0.0394	24.8608	-5.2760	8.9415	0.5233	-0.4553	0.6189	0.3686
7.27	-9.7324	-0.1134	-1.7858	-0.0099	-0.0119	-0.0455	24.8456	-5.3227	8.6411	0.5233	-0.4553	0.6189	0.3685
7.28	-9.7519	-0.1184	-1.7879	-0.0021	-0.0073	-0.0470	24.7748	-5.2993	8.8956	0.5233	-0.4552	0.6189	0.3685
7.29	-9.7344	-0.1101	-1.8017	-0.0023	-0.0086	-0.0520	24.5641	-5.3133	8.7595	0.5234	-0.4552	0.6190	0.3684
7.3	-9.7418	-0.0992	-1.7816	-0.0020	-0.0108	-0.0390	24.6580	-5.3081	8.7148	0.5234	-0.4552	0.6190	0.3684
7.31	-9.7608	-0.1028	-1.7808	-0.0015	-0.0147	-0.0372	24.7919	-5.3047	9.0334	0.5234	-0.4551	0.6190	0.3684
7.32	-9.7494	-0.0968	-1.7909	-0.0035	-0.0110	-0.0392	24.7162	-5.3110	8.8521	0.5234	-0.4550	0.6190	0.3683
7.33	-9.7573	-0.0792	-1.7656	-0.0149	-0.0239	-0.0350	24.8021	-5.2994	8.8021	0.5235	-0.4550	0.6191	0.3684
7.34	-9.7511	-0.0785	-1.7703	-0.0112	-0.0142	-0.0347	24.6325	-5.3270	8.9088	0.5235	-0.4550	0.6191	0.3684
7.35	-9.7616	-0.0770	-1.7860	-0.0194	-0.0193	-0.0346	24.6218	-5.2336	8.8627	0.5235	-0.4549	0.6191	0.3685
7.36	-9.7461	-0.0593	-1.7667	-0.0060	-0.0227	-0.0354	24.5262	-5.2063	8.8981	0.5235	-0.4548	0.6190	0.3685
7.37	-9.7514	-0.0716	-1.7540	-0.0123	-0.0185	-0.0399	24.5213	-5.3628	8.7187	0.5235	-0.4548	0.6190	0.3685
7.38	-9.7519	-0.0772	-1.7622	-0.0203	-0.0199	-0.0426	24.5614	-5.2206	8.7224	0.5236	-0.4548	0.6190	0.3686
7.39	-9.7342	-0.0781	-1.7578	-0.0137	-0.0192	-0.0424	24.7466	-5.2885	8.9246	0.5236	-0.4547	0.6190	0.3686
7.4	-9.7460	-0.0872	-1.7546	-0.0179	-0.0198	-0.0407	24.5538	-5.4326	8.6296	0.5236	-0.4548	0.6190	0.3687
7.41	-9.7546	-0.0825	-1.7649	-0.0133	-0.0136	-0.0465	24.7288	-5.2099	8.7821	0.5236	-0.4547	0.6190	0.3686
7.42	-9.7594	-0.0860	-1.7540	-0.0126	-0.0200	-0.0494	24.8159	-5.2846	8.7221	0.5237	-0.4548	0.6190	0.3687
7.43	-9.7551	-0.0873	-1.7482	-0.0155	-0.0217	-0.0511	24.8030	-5.4024	8.6841	0.5237	-0.4547	0.6189	0.3686
7.44	-9.7458	-0.0800	-1.7462	-0.0143	-0.0269	-0.0459	24.7524	-5.4089	8.8285	0.5238	-0.4547	0.6188	0.3687
7.45	-9.7394	-0.0778	-1.7421	-0.0128	-0.0215	-0.0529	24.5518	-5.3446	8.7633	0.5238	-0.4547	0.6188	0.3687
7.46	-9.7328	-0.0938	-1.7542	-0.0140	-0.0187	-0.0550	24.7240	-5.2880	8.8218	0.5239	-0.4547	0.6187	0.3686
7.47	-9.7224	-0.0965	-1.7431	-0.0211	-0.0226	-0.0569	24.7029	-5.3240	8.6478	0.5240	-0.4548	0.6187	0.3687
7.48	-9.7209	-0.0987	-1.7467	-0.0272	-0.0207	-0.0532	24.8454	-5.2933	8.7734	0.5240	-0.4548	0.6186	0.3687
7.49	-9.7277	-0.1153	-1.7409	-0.0278	-0.0177	-0.0539	24.7126	-5.3323	8.7327	0.5240	-0.4549	0.6186	0.3688
7.5	-9.7241	-0.1229	-1.7450	-0.0255	-0.0155	-0.0568	24.7034	-5.2023	8.6659	0.5240	-0.4549	0.6184	0.3687
7.51	-9.7228	-0.1323	-1.7435	-0.0278	-0.0164	-0.0503	24.7080	-5.3511	8.9513	0.5240	-0.4549	0.6184	0.3688
7.52	-9.7308	-0.1319	-1.7367	-0.0276	-0.0158	-0.0570	24.8869	-5.2327	8.8195	0.5240	-0.4550	0.6184	0.3688
7.53	-9.7299	-0.1378	-1.7507	-0.0271	-0.0172	-0.0528	24.8315	-5.2664	9.0198	0.5240	-0.4550	0.6183	0.3688
7.54	-9.7362	-0.1476	-1.7465	-0.0283	-0.0125	-0.0552	24.5803	-5.4454	8.7341	0.5240	-0.4551	0.6183	0.3688
7.55	-9.7325	-0.1584	-1.7563	-0.0215	-0.0118	-0.0464	24.6388	-5.0727	8.5895	0.5240	-0.4551	0.6182	0.3689
7.56	-9.7178	-0.1476	-1.7407	-0.0224	-0.0146	-0.0476	24.5990	-5.0964	8.9993	0.5240	-0.4552	0.6182	0.3689
7.57	-9.7398	-0.1315	-1.7420	-0.0237	-0.0060	-0.0477	24.7044	-5.1441	8.8732	0.5240	-0.4551	0.6181	0.3689
7.58	-9.7603	-0.1465	-1.7697	-0.0264	-0.0073	-0.0437	24.8252	-5.2341	8.7677	0.5240	-0.4552	0.6182	0.3689
7.59	-9.7516	-0.1508	-1.7584	-0.0113	-0.0109	-0.0409	24.9320	-5.1994	8.8140	0.5240	-0.4552	0.6182	0.3689
7.6	-9.7616	-0.1514	-1.7426	-0.0104	-0.0137	-0.0364	25.0656	-5.2907	9.0039	0.5240	-0.4552	0.6182	0.3689
7.61	-9.7792	-0.1367	-1.7466	-0.0099	-0.0163	-0.0385	25.0280	-5.3160	8.8434	0.5240	-0.4551	0.6182	0.3689
7.62	-9.7757	-0.1390	-1.7393	-0.0091	-0.0219	-0.0369	24.9135	-5.4212	8.6482	0.5240	-0.4550	0.6182	0.3690
7.63	-9.7728	-0.1347	-1.7280	-0.0086	-0.0281	-0.0409	24.5938	-5.4479	8.5591	0.5241	-0.4550	0.6182	0.3690
7.64	-9.7424	-0.1378	-1.7366	-0.0056	-0.0318	-0.0373	24.8330	-5.3499	8.6642	0.5241	-0.4549	0.6181	0.3690
7.65	-9.7101	-0.1438	-1.7211	-0.0026	-0.0331	-0.0324	24.7996	-5.4085	8.7615	0.5243	-0.4548	0.6182	0.3691
7.66	-9.7092	-0.1152	-1.7092	-0.0002	-0.0261	-0.0310	24.6983	-5.3069	8.7896	0.5243	-0.4547	0.6182	0.3691
7.67	-9.7023	-0.0844	-1.7088	-0.0017	-0.0213	-0.0323	24.7401	-5.3331	8.8782	0.5244	-0.4546	0.6182	0.3691
7.68	-9.7123	-0.0666	-1.6999	-0.0026	-0.0146	-0.0322	24.7175	-5.4864	8.8233	0.5244	-0.4545	0.6182	0.3691
7.69	-9.7273	-0.0559	-1.7165	-0.0062	-0.0168	-0.0389	24.6030	-5.3349	8.9997	0.5244	-0.4544	0.6183	0.3691
7.7	-9.7200	-0.0656	-1.7245	-0.0147	-0.0164	-0.0456	24.5049	-5.2231	8.8447	0.5244	-0.4544	0.6182	0.3691
7.71	-9.7296	-0.0702	-1.7293	-0.0186	-0.0105	-0.0477	24.6491	-5.1870	8.8618	0.5244	-0.4544	0.6182	0.3691
7.72	-9.7495	-0.0663	-1.7330	-0.0186	-0.0092	-0.0499	24.6225	-5.2060	8.8002	0.5245	-0.4545	0.6183	0.3691
7.73	-9.7373	-0.0600	-1.7329	-0.0279	-0.0111	-0.0487	24.5277	-5.1969	8.9504	0.5244	-0.4545	0.6182	0.3691
7.74	-9.7387	-0.0541	-1.7261	-0.0269	-0.0094	-0.0478	24.5479	-5.1974	8.9821	0.5244	-0.4546	0.6182	0.3692
7.75	-9.7436	-0.0634	-1.7308	-0.0280	-0.0093	-0.0463	24.6262	-5.2082	8.4783	0.5243	-0.4545	0.6181	0.3692
7.76	-9.7287	-0.0821	-1.7415	-0.0269	-0.0139	-0.0521	24.6516	-5.1828	8.8733	0.5244	-0.4546	0.6181	0.3692
7.77	-9.7331	-0.0845	-1.7322	-0.0306	-0.0114	-0.0456	24.6136	-5.0785	8.9394	0.5244	-0.4547	0.6180	0.3693
7.78	-9.7308	-0.0990	-1.7416	-0.0285	-0.0064	-0.0439	24.7113	-5.4729	8.9568	0.5243	-0.4547	0.6180	0.3693
7.79	-9.7273	-0.1172	-1.7430	-0.0306	-0.0127	-0.0436	24.8231	-5.4548	8.8273	0.5243	-0.4548	0.6180	0.3694
7.8	-9.7440	-0.1213	-1.7432	-0.0285	-0.0116	-0.0490	24.8253	-5.3496	8.7421	0.5243	-0.4548	0.6180	0.3694
7.81	-9.7569	-0.1266	-1.7521	-0.0276	-0.0063	-0.0468	24.9707	-5.3868	8.7524	0.5243	-0.4548	0.6180	0.3694
7.82	-9.7657	-0.1304	-1.7625	-0.0272	-0.0069	-0.0439	24.6945	-5.3590	8.8353	0.5241	-0.4548	0.6179	0.3694
7.83	-9.7565	-0.1334	-1.7720	-0.0223	-0.0119	-0.0405	24.6447	-5.4953	8.9780	0.5242	-0.4549	0.6179	0.3695
7.84	-9.7544	-0.1169	-1.7502	-0.0220	-0.0117	-0.0429	24.7489	-5.4204	8.7365	0.5242	-0.4549	0.6179	0.3695
7.85	-9.7888	-0.0991	-1.7448	-0.0291	-0.0085	-0.0430	24.7139	-5.2924	8.8426	0.5241	-0.4549	0.6179	0.3695
7.86	-9.7978	-0.1152	-1.7737	-0.0218	-0.0109	-0.0430	24.7328	-5.2654	8.8432	0.5241	-0.4549	0.6179	0.3695
7.87	-9.7654	-0.1263	-1.7478	-0.0219	-0.0277	-0.0413	24.5903	-5.5752	8.7401	0.5241	-0.4549	0.6178	0.3696
7.88	-9.7626	-0.1226	-1.7198	-0.0166	-0.0237	-0.0412	24.7017	-5.4457	8.7550	0.5242	-0.4549	0.6178	0.3697
7.89	-9.7787	-0.1293	-1.7482	-0.0184	-0.0186	-0.0357	24.7482	-5.2549	8.8254	0.5241	-0.4548	0.6177	0.3697
7.9	-9.7607	-0.1275	-1.7277	-0.0045	-0.0300	-0.0325	24.5939	-5.4035	8.9764	0.5243	-0.4548	0.6178	0.3698
7.91	-9.7592	-0.0882	-1.7045	-0.0037	-0.0343	-0.0322	24.5413	-5.2051	9.0477	0.5243	-0.4546	0.6178	0.3698
7.92	-9.7513	-0.0827	-1.6972	-0.0025	-0.0234	-0.0359	24.5352	-5.2028	8.7296	0.5244	-0.4546	0.6178	0.3698
7.93	-9.7142	-0.0969	-1.7080	-0.0131	-0.0315	-0.0354	24.6499	-5.1900	8.8688	0.5244	-0.4544	0.6177	0.3698
7.94	-9.7189	-0.0927	-1.6865	-0.0092	-0.0237	-0.0445	24.6138	-5.3307	8.8019	0.5245	-0.4544	0.6177	0.3699
7.95	-9.7247	-0.0957	-1.6857	-0.0082	-0.0220	-0.0404	24.5070	-5.2184	8.7609	0.5245	-0.4544	0.6177	0.3699
7.96	-9.7145	-0.0927	-1.6894	-0.0087	-0.0242	-0.0344	24.6331	-5.1905	8.6522	0.5245	-0.4543	0.6177	0.3699
7.97	-9.7352	-0.0929	-1.6727	-0.0007	-0.0149	-0.0322	24.7393	-5.2931	8.6881	0.5246	-0.4543	0.6178	0.3700
7.98	-9.7509	-0.0864	-1.6966	-0.0131	-0.0146	-0.0317	24.8647	-5.3134	8.8811	0.5246	-0.4541	0.6178	0.3700
7.99	-9.7510	-0.0850	-1.6924	-0.0165	-0.0202	-0.0360	24.9325	-5.6583	8.6345	0.5246	-0.4541	0.6178	0.3700
8	-9.7341	-0.0764	-1.6774	-0.0176	-0.0223	-0.0327	24.7950	-5.5449	8.7712	0.5246	-0.4540	0.6177	0.3700
8.01	-9.7402	-0.0671	-1.6741	-0.0285	-0.0137	-0.0316	24.7124	-5.5481	8.7675	0.5246	-0.4540	0.6178	0.3702
8.02	-9.7457	-0.0737	-1.6805	-0.0225	-0.0142	-0.0376	24.7223	-5.3821	8.9010	0.5246	-0.4540	0.6178	0.3702
8.03	-9.7465	-0.0805	-1.6889	-0.0238	-0.0177	-0.0330	24.7336	-5.3777	8.7422	0.5245	-0.4540	0.6177	0.3703
8.04	-9.7493	-0.0835	-1.6894	-0.0220	-0.0152	-0.0365	24.6999	-5.3591	8.7711	0.5245	-0.4540	0.6178	0.3703
8.05	-9.7190	-0.0838	-1.6940	-0.0214	-0.0174	-0.0346	24.9097	-5.5452	8.7337	0.5245	-0.4540	0.6177	0.3704
8.06	-9.7285	-0.0795	-1.6952	-0.0287	-0.0124	-0.0327	24.7920	-5.4673	8.8376	0.5245	-0.4540	0.6178	0.3705
8.07	-9.7388	-0.0681	-1.7006	-0.0218	-0.0018	-0.0430	24.6112	-5.1517	8.8332	0.5244	-0.4539	0.6177	0.3705
8.08	-9.7279	-0.0657	-1.7036	-0.0264	-0.0082	-0.0436	24.6321	-5.3386	8.9867	0.5244	-0.4540	0.6178	0.3705
8.09	-9.7489	-0.0605	-1.7070	-0.0287	0.0010	-0.0475	25.0175	-5.2155	9.0075	0.5243	-0.4540	0.6177	0.3705
8.1	-9.7625	-0.0714	-1.7260	-0.0256	-0.0046	-0.0465	25.3425	-5.1891	8.9010	0.5243	-0.4541	0.6177	0.3705
8.11	-9.7617	-0.0664	-1.7160	-0.0267	-0.0073	-0.0466	24.9764	-5.1931	8.9273	0.5243	-0.4541	0.6177	0.3706
8.12	-9.7618	-0.0761	-1.7172	-0.0266	-0.0091	-0.0466	24.8950	-5.2249	8.7579	0.5243	-0.4542	0.6177	0.3706
8.13	-9.7477	-0.0681	-1.7265	-0.0194	-0.0067	-0.0482	24.6517	-5.1921	8.7773	0.5243	-0.4542	0.6177	0.3706
8.14	-9.7419	-0.0755	-1.7190	-0.0275	-0.0106	-0.0495	24.6483	-5.5142	9.0869	0.5242	-0.4542	0.6176	0.3706
8.15	-9.7361	-0.0783	-1.7226	-0.0280	-0.0149	-0.0456	24.4964	-5.5711	8.9459	0.5242	-0.4543	0.6176	0.3707
8.16	-9.7355	-0.0915	-1.7248	-0.0237	-0.0164	-0.0519	24.7695	-5.5040	8.9573	0.5242	-0.4543	0.6176	0.3707
8.17	-9.7528	-0.0952	-1.7322	-0.0269	-0.0112	-0.0492	24.7576	-5.6058	8.7642	0.5243	-0.4544	0.6176	0.3707
8.18	-9.7681	-0.1026	-1.7182	-0.0272	-0.0135	-0.0433	24.6913	-5.1478	8.7937	0.5242	-0.4543	0.6175	0.3707
8.19	-9.7564	-0.1173	-1.7247	-0.0285	-0.0182	-0.0452	24.9735	-5.3182	8.7431	0.5242	-0.4544	0.6175	0.3708
8.2	-9.7320	-0.0993	-1.7159	-0.0228	-0.0197	-0.0418	24.6284	-5.4271	8.8634	0.5242	-0.4544	0.6174	0.3709
8.21	-9.7255	-0.0930	-1.7046	-0.0223	-0.0151	-0.0452	24.6402	-5.4136	8.8003	0.5242	-0.4544	0.6174	0.3709
8.22	-9.7402	-0.0920	-1.7132	-0.0290	-0.0143	-0.0511	24.6965	-5.3861	8.6648	0.5242	-0.4545	0.6174	0.3710
8.23	-9.7311	-0.1083	-1.7087	-0.0273	-0.0147	-0.0408	24.6575	-5.1952	8.8250	0.5242	-0.4544	0.6173	0.3710
8.24	-9.7153	-0.1168	-1.7003	-0.0284	-0.0138	-0.0448	24.7298	-5.4644	8.7300	0.5242	-0.4545	0.6173	0.3711
8.25	-9.7381	-0.1110	-1.7112	-0.0277	-0.0023	-0.0448	24.7958	-5.2010	8.9096	0.5241	-0.4545	0.6172	0.3710
8.26	-9.7700	-0.1146	-1.7267	-0.0278	-0.0042	-0.0481	25.0373	-5.3607	8.8125	0.5241	-0.4546	0.6173	0.3711
8.27	-9.7944	-0.1104	-1.7278	-0.0280	-0.0121	-0.0433	24.6078	-5.2597	8.6379	0.5241	-0.4546	0.6172	0.3711
8.28	-9.7724	-0.1182	-1.7185	-0.0274	-0.0203	-0.0435	24.7151	-5.2203	8.7141	0.5240	-0.4546	0.6172	0.3712
8.29	-9.7551	-0.1444	-1.7275	-0.0286	-0.0153	-0.0445	24.8106	-5.2404	8.5667	0.5241	-0.4546	0.6172	0.3713
8.3	-9.7454	-0.1340	-1.7238	-0.0243	-0.0116	-0.0360	24.6991	-5.3579	8.4691	0.5240	-0.4546	0.6171	0.3713
8.31	-9.7284	-0.1051	-1.7257	-0.0178	-0.0167	-0.0335	24.7139	-5.2775	8.8114	0.5240	-0.4546	0.6172	0.3714
8.32	-9.7149	-0.0831	-1.7229	-0.0246	-0.0121	-0.0329	24.8107	-5.4432	8.9281	0.5239	-0.4545	0.6171	0.3714
8.33	-9.7289	-0.0801	-1.7136	-0.0200	-0.0218	-0.0337	24.6913	-5.3523	8.5872	0.5240	-0.4545	0.6172	0.3715
8.34	-9.7369	-0.0857	-1.7364	-0.0182	-0.0151	-0.0390	24.6135	-5.2260	8.6474	0.5240	-0.4545	0.6171	0.3715
8.35	-9.7334	-0.0893	-1.7386	-0.0181	-0.0144	-0.0388	24.9049	-5.4285	8.6979	0.5240	-0.4545	0.6171	0.3716
8.36	-9.7354	-0.0815	-1.7334	-0.0083	-0.0114	-0.0395	24.9803	-5.3933	8.6873	0.5240	-0.4544	0.6171	0.3716
8.37	-9.7305	-0.0619	-1.7361	-0.0022	-0.0125	-0.0368	24.7589	-5.7815	8.8112	0.5240	-0.4544	0.6172	0.3716
8.38	-9.7457	-0.0505	-1.7368	-0.0032	-0.0087	-0.0369	24.8378	-5.3159	8.7914	0.5240	-0.4543	0.6172	0.3716
8.39	-9.7431	-0.0459	-1.7386	-0.0085	-0.0091	-0.0456	24.7274	-5.4169	9.0219	0.5240	-0.4543	0.6172	0.3715
8.4	-9.7517	-0.0438	-1.7345	-0.0134	-0.0122	-0.0415	24.5940	-5.2808	8.7839	0.5241	-0.4543	0.6173	0.3716
8.41	-9.7442	-0.0504	-1.7318	-0.0184	-0.0101	-0.0439	24.5409	-5.2517	8.8473	0.5240	-0.4543	0.6172	0.3715
8.42	-9.7581	-0.0535	-1.7340	-0.0143	-0.0101	-0.0430	24.7801	-5.3893	8.7963	0.5241	-0.4543	0.6173	0.3716
8.43	-9.7587	-0.0643	-1.7280	-0.0253	-0.0150	-0.0428	24.9290	-5.5387	8.7934	0.5240	-0.4542	0.6172	0.3716
8.44	-9.7611	-0.0734	-1.7438	-0.0242	-0.0052	-0.0452	24.8521	-5.1778	8.8450	0.5240	-0.4543	0.6172	0.3716
8.45	-9.7506	-0.0740	-1.7322	-0.0260	-0.0124	-0.0433	24.8137	-5.2413	8.7991	0.5240	-0.4543	0.6172	0.3717
8.46	-9.7659	-0.0779	-1.7327	-0.0285	-0.0143	-0.0437	24.7442	-5.3466	8.9096	0.5239	-0.4543	0.6171	0.3717
8.47	-9.7566	-0.0821	-1.7448	-0.0288	-0.0066	-0.0490	24.4136	-5.3229	8.7455	0.5240	-0.4544	0.6172	0.3718
8.48	-9.7280	-0.0839	-1.7330	-0.0250	-0.0130	-0.0427	24.5949	-5.5628	8.9274	0.5239	-0.4544	0.6171	0.3718
8.49	-9.7147	-0.0734	-1.7365	-0.0208	-0.0137	-0.0463	24.7078	-5.4243	8.5660	0.5240	-0.4544	0.6171	0.3719
8.5	-9.7486	-0.0576	-1.7248	-0.0224	-0.0122	-0.0426	24.7216	-5.3054	8.7009	0.5239	-0.4544	0.6170	0.3718
8.51	-9.7689	-0.0600	-1.7339	-0.0154	-0.0056	-0.0494	24.6190	-5.3493	8.7768	0.5239	-0.4544	0.6170	0.3719
8.52	-9.7459	-0.0809	-1.7295	-0.0193	-0.0228	-0.0501	24.7740	-5.2415	8.8056	0.5239	-0.4544	0.6170	0.3719
8.53	-9.7482	-0.0847	-1.7092	-0.0141	-0.0127	-0.0394	24.6618	-5.3367	8.6602	0.5239	-0.4544	0.6170	0.3719
8.54	-9.7861	-0.0882	-1.7268	-0.0153	-0.0143	-0.0371	24.8790	-5.7551	8.8367	0.5240	-0.4544	0.6170	0.3719
8.55	-9.7737	-0.0815	-1.7150	-0.0215	-0.0260	-0.0369	24.6913	-5.3233	8.8172	0.5240	-0.4543	0.6169	0.3720
8.56	-9.7626	-0.0376	-1.7092	-0.0149	-0.0213	-0.0365	24.6743	-5.4196	8.6238	0.5240	-0.4543	0.6170	0.3721
8.57	-9.7732	-0.0413	-1.7090	-0.0235	-0.0357	-0.0423	24.7361	-5.6439	8.7898	0.5240	-0.4542	0.6168	0.3721
8.58	-9.7604	-0.0681	-1.7047	-0.0277	-0.0305	-0.0405	24.5104	-5.2075	9.0166	0.5241	-0.4542	0.6168	0.3723
8.59	-9.7723	-0.0728	-1.7157	-0.0239	-0.0292	-0.0458	25.1839	-5.1433	9.0348	0.5241	-0.4542	0.6167	0.3723
8.6	-9.7597	-0.0749	-1.7071	-0.0204	-0.0261	-0.0417	25.0871	-5.3487	9.1604	0.5242	-0.4542	0.6167	0.3724
8.61	-9.7506	-0.0610	-1.6908	-0.0218	-0.0340	-0.0420	25.0207	-5.2044	8.9627	0.5242	-0.4541	0.6166	0.3725
8.62	-9.7623	-0.0607	-1.6910	-0.0212	-0.0329	-0.0402	24.7933	-5.3384	8.7936	0.5243	-0.4541	0.6165	0.3726
8.63	-9.7595	-0.0604	-1.6861	-0.0228	-0.0314	-0.0438	24.5541	-5.2426	8.7886	0.5243	-0.4541	0.6165	0.3727
8.64	-9.7371	-0.0567	-1.6779	-0.0193	-0.0328	-0.0412	24.5272	-4.9979	8.7416	0.5243	-0.4540	0.6164	0.3727
8.65	-9.7405	-0.0602	-1.6686	-0.0232	-0.0303	-0.0458	24.5567	-5.1629	8.7595	0.5245	-0.4540	0.6164	0.3728
8.66	-9.7324	-0.0617	-1.6658	-0.0228	-0.0271	-0.0511	24.6235	-5.2424	8.6129	0.5245	-0.4540	0.6163	0.3729
8.67	-9.7285	-0.0638	-1.6558	-0.0276	-0.0302	-0.0485	24.4404	-5.3958	8.7671	0.5246	-0.4541	0.6162	0.3730
8.68	-9.7401	-0.0697	-1.6561	-0.0214	-0.0230	-0.0450	24.8732	-5.3693	8.7596	0.5245	-0.4540	0.6161	0.3730
8.69	-9.7351	-0.0758	-1.6610	-0.0225	-0.0228	-0.0503	24.7134	-5.5336	8.6528	0.5246	-0.4540	0.6161	0.3730
8.7	-9.7346	-0.0732	-1.6536	-0.0236	-0.0263	-0.0439	24.7907	-5.3532	8.6937	0.5246	-0.4540	0.6160	0.3731
8.71	-9.7236	-0.0754	-1.6559	-0.0177	-0.0214	-0.0376	24.7128	-5.2609	8.9559	0.5246	-0.4539	0.6159	0.3731
8.72	-9.7489	-0.0754	-1.6592	-0.0206	-0.0179	-0.0378	24.6395	-5.4164	8.9393	0.5247	-0.4540	0.6160	0.3732
8.73	-9.7574	-0.0620	-1.6617	-0.0102	-0.0165	-0.0444	24.8190	-5.5094	8.6794	0.5247	-0.4539	0.6159	0.3732
8.74	-9.7281	-0.0567	-1.6608	-0.0087	-0.0178	-0.0483	24.8687	-5.6346	8.6664	0.5247	-0.4539	0.6160	0.3732
8.75	-9.7264	-0.0518	-1.6501	-0.0224	-0.0146	-0.0482	24.8034	-5.6781	8.7764	0.5247	-0.4539	0.6159	0.3732
8.76	-9.7312	-0.0577	-1.6630	-0.0128	-0.0156	-0.0528	24.5887	-5.4909	8.6436	0.5248	-0.4539	0.6159	0.3732
8.77	-9.7330	-0.0551	-1.6607	-0.0109	-0.0137	-0.0499	24.7618	-5.3511	8.5357	0.5248	-0.4539	0.6159	0.3732
8.78	-9.7489	-0.0438	-1.6404	-0.0097	-0.0076	-0.0561	24.6760	-5.4565	8.6430	0.5248	-0.4539	0.6158	0.3732
8.79	-9.7320	-0.0552	-1.6604	-0.0121	-0.0054	-0.0547	24.7339	-5.5200	8.3079	0.5248	-0.4540	0.6159	0.3731
8.8	-9.7256	-0.0597	-1.6568	-0.0254	-0.0139	-0.0497	24.6781	-5.5142	8.5342	0.5248	-0.4540	0.6158	0.3732
8.81	-9.7353	-0.0646	-1.6509	-0.0256	-0.0114	-0.0534	24.7788	-5.3037	8.7327	0.5248	-0.4540	0.6158	0.3732
8.82	-9.7475	-0.0767	-1.6615	-0.0252	-0.0066	-0.0575	24.8271	-5.1923	8.9828	0.5248	-0.4540	0.6157	0.3731
8.83	-9.7633	-0.0844	-1.6695	-0.0274	-0.0031	-0.0552	24.5538	-5.2519	8.7532	0.5248	-0.4542	0.6157	0.3732
8.84	-9.7364	-0.0854	-1.6796	-0.0280	-0.0051	-0.0467	24.7014	-5.4145	8.5698	0.5247	-0.4542	0.6157	0.3732
8.85	-9.7324	-0.0786	-1.6643	-0.0282	-0.0026	-0.0532	24.6973	-5.1678	8.7062	0.5247	-0.4543	0.6157	0.3732
8.86	-9.7609	-0.0881	-1.6737	-0.0273	0.0002	-0.0568	24.7412	-5.2474	8.6524	0.5247	-0.4543	0.6156	0.3732
8.87	-9.7487	-0.0997	-1.6861	-0.0299	-0.0027	-0.0580	24.7717	-5.1577	8.9133	0.5246	-0.4544	0.6156	0.3732
8.88	-9.7416	-0.1100	-1.6759	-0.0267	0.0018	-0.0565	24.7112	-4.9178	8.7870	0.5246	-0.4545	0.6156	0.3732
8.89	-9.7743	-0.1148	-1.6799	-0.0272	-0.0045	-0.0526	24.6745	-5.0949	8.6350	0.5245	-0.4546	0.6155	0.3731
8.9	-9.7836	-0.1245	-1.6957	-0.0279	-0.0094	-0.0415	24.8917	-5.2712	8.7201	0.5246	-0.4546	0.6156	0.3732
8.91	-9.7978	-0.1170	-1.6773	-0.0232	-0.0099	-0.0448	24.9006	-5.4157	8.7105	0.5245	-0.4546	0.6155	0.3733
8.92	-9.7897	-0.1129	-1.6773	-0.0246	-0.0149	-0.0444	24.5799	-5.6341	8.7373	0.5246	-0.4547	0.6155	0.3733
8.93	-9.7525	-0.1313	-1.6894	-0.0242	-0.0173	-0.0440	25.0523	-5.6568	8.7763	0.5245	-0.4546	0.6154	0.3733
8.94	-9.7521	-0.1269	-1.6711	-0.0099	-0.0223	-0.0424	25.0375	-5.4216	8.6719	0.5246	-0.4546	0.6154	0.3734
8.95	-9.7534	-0.1025	-1.6780	-0.0065	-0.0160	-0.0309	24.7368	-5.4971	8.8003	0.5246	-0.4545	0.6155	0.3734
8.96	-9.7336	-0.0882	-1.6782	-0.0105	-0.0125	-0.0338	24.6894	-5.4728	8.7591	0.5245	-0.4544	0.6155	0.3734
8.97	-9.7305	-0.0605	-1.6617	-0.0089	-0.0139	-0.0408	24.7286	-5.2793	8.6505	0.5246	-0.4545	0.6156	0.3735
8.98	-9.7281	-0.0563	-1.6674	-0.0114	-0.0060	-0.0437	24.6792	-5.5848	8.7133	0.5246	-0.4544	0.6155	0.3734
8.99	-9.7221	-0.0656	-1.6726	-0.0122	-0.0101	-0.0372	24.5621	-5.2451	8.7853	0.5246	-0.4544	0.6156	0.3735
9	-9.7413	-0.0596	-1.6736	-0.0115	-0.0134	-0.0426	24.8384	-5.1852	8.7408	0.5246	-0.4543	0.6155	0.3734
9.01	-9.7328	-0.0433	-1.6851	-0.0219	-0.0089	-0.0511	24.7546	-5.3365	8.7770	0.5246	-0.4544	0.6155	0.3735
9.02	-9.7295	-0.0387	-1.6809	-0.0290	-0.0062	-0.0465	24.7179	-5.4318	8.7470	0.5246	-0.4544	0.6155	0.3735
9.03	-9.7325	-0.0417	-1.6836	-0.0238	-0.0078	-0.0491	24.6238	-5.2307	8.7882	0.5245	-0.4544	0.6155	0.3735
9.04	-9.7349	-0.0464	-1.6887	-0.0254	-0.0006	-0.0530	24.6377	-5.1023	8.6225	0.5245	-0.4545	0.6155	0.3735
9.05	-9.7322	-0.0532	-1.6898	-0.0286	-0.0026	-0.0575	24.5699	-5.2656	8.5936	0.5245	-0.4546	0.6154	0.3735
9.06	-9.7460	-0.0637	-1.6956	-0.0305	-0.0024	-0.0563	24.5727	-5.3622	8.7056	0.5245	-0.4547	0.6154	0.3735
9.07	-9.7666	-0.0742	-1.7026	-0.0395	0.0059	-0.0573	24.6411	-5.4161	8.6375	0.5243	-0.4548	0.6153	0.3735
9.08	-9.7686	-0.0986	-1.7071	-0.0297	-0.0001	-0.0562	24.7136	-5.2436	8.8144	0.5243	-0.4549	0.6154	0.3735
9.09	-9.7782	-0.1163	-1.7113	-0.0359	-0.0058	-0.0577	24.8880	-5.3858	9.0218	0.5243	-0.4550	0.6153	0.3735
9.1	-9.7721	-0.1218	-1.7104	-0.0326	-0.0088	-0.0544	25.4374	-5.5728	8.7826	0.5243	-0.4551	0.6153	0.3736
9.11	-9.7605	-0.1271	-1.6993	-0.0257	-0.0136	-0.0502	25.2400	-5.5439	8.7573	0.5242	-0.4551	0.6152	0.3736
9.12	-9.7630	-0.1280	-1.7187	-0.0288	-0.0100	-0.0470	24.9056	-5.4047	8.6879	0.5242	-0.4551	0.6152	0.3736
9.13	-9.7459	-0.1378	-1.7243	-0.0270	-0.0152	-0.0400	24.8769	-5.3972	8.5617	0.5242	-0.4552	0.6152	0.3737
9.14	-9.7615	-0.1179	-1.7001	-0.0277	-0.0176	-0.0438	24.7478	-5.5257	8.6897	0.5242	-0.4551	0.6151	0.3737
9.15	-9.7957	-0.1022	-1.7074	-0.0272	-0.0072	-0.0512	24.6592	-5.3751	8.5559	0.5242	-0.4552	0.6151	0.3738
9.16	-9.7666	-0.1296	-1.7099	-0.0229	-0.0171	-0.0524	24.7789	-5.3054	8.6199	0.5242	-0.4552	0.6150	0.3738
9.17	-9.7555	-0.1372	-1.6906	-0.0188	-0.0190	-0.0404	24.7335	-5.5966	8.7188	0.5243	-0.4553	0.6150	0.3739
9.18	-9.7787	-0.1181	-1.6865	-0.0133	-0.0180	-0.0341	24.7516	-5.4974	8.6263	0.5242	-0.4551	0.6150	0.3739
9.19	-9.7774	-0.1191	-1.6998	-0.0252	-0.0255	-0.0320	24.8646	-5.2560	8.8783	0.5242	-0.4551	0.6150	0.3740
9.2	-9.7471	-0.0815	-1.6680	-0.0063	-0.0332	-0.0309	24.6213	-5.2122	8.7024	0.5243	-0.4550	0.6150	0.3741
9.21	-9.7626	-0.0423	-1.6563	-0.0118	-0.0253	-0.0356	24.8274	-5.3185	8.4329	0.5243	-0.4549	0.6149	0.3741
9.22	-9.7620	-0.0601	-1.6658	-0.0233	-0.0152	-0.0429	24.9417	-5.3269	8.6204	0.5244	-0.4550	0.6150	0.3742
9.23	-9.7671	-0.0832	-1.6688	-0.0136	-0.0237	-0.0483	24.6613	-5.1718	8.7092	0.5244	-0.4549	0.6149	0.3742
9.24	-9.7515	-0.0712	-1.6659	-0.0094	-0.0265	-0.0513	24.8778	-5.1240	8.7993	0.5245	-0.4549	0.6149	0.3742
9.25	-9.7440	-0.0539	-1.6476	-0.0185	-0.0251	-0.0443	24.7085	-5.2278	8.6514	0.5244	-0.4548	0.6147	0.3742
9.26	-9.7366	-0.0500	-1.6333	-0.0293	-0.0281	-0.0483	25.0275	-5.4708	8.6890	0.5245	-0.4549	0.6147	0.3743
9.27	-9.7389	-0.0802	-1.6455	-0.0204	-0.0261	-0.0374	24.7576	-5.3199	8.6566	0.5245	-0.4548	0.6147	0.3744
9.28	-9.7262	-0.0458	-1.6111	-0.0229	-0.0304	-0.0412	24.8857	-5.3920	8.7486	0.5246	-0.4548	0.6146	0.3744
9.29	-9.7279	-0.0249	-1.5985	-0.0286	-0.0295	-0.0385	25.0477	-5.4170	8.7964	0.5246	-0.4548	0.6146	0.3746
9.3	-9.7313	-0.0686	-1.6525	-0.0301	-0.0206	-0.0435	24.6141	-5.2725	8.7150	0.5246	-0.4548	0.6145	0.3746
9.31	-9.7348	-0.0444	-1.6313	-0.0271	-0.0192	-0.0451	24.9442	-5.3990	8.6629	0.5246	-0.4548	0.6145	0.3747
9.32	-9.7366	-0.0492	-1.6087	-0.0292	-0.0188	-0.0509	24.8287	-5.4181	8.6822	0.5246	-0.4548	0.6143	0.3747
9.33	-9.7428	-0.0612	-1.6378	-0.0302	-0.0132	-0.0460	24.8505	-5.2946	8.5649	0.5246	-0.4549	0.6144	0.3748
9.34	-9.7585	-0.0543	-1.6422	-0.0254	-0.0135	-0.0479	24.6347	-5.3430	8.7384	0.5246	-0.4549	0.6143	0.3748
9.35	-9.7666	-0.0552	-1.6283	-0.0277	-0.0172	-0.0580	24.5279	-5.2904	8.5484	0.5246	-0.4550	0.6143	0.3749
9.36	-9.7643	-0.0548	-1.6264	-0.0262	-0.0152	-0.0589	24.6877	-5.4523	8.7058	0.5246	-0.4550	0.6142	0.3749
9.37	-9.7635	-0.0561	-1.6247	-0.0240	-0.0153	-0.0573	24.7618	-5.3379	8.7616	0.5246	-0.4551	0.6141	0.3749
9.38	-9.7641	-0.0581	-1.6244	-0.0275	-0.0165	-0.0589	24.7421	-5.1898	8.8184	0.5247	-0.4551	0.6141	0.3749
9.39	-9.7707	-0.0607	-1.6262	-0.0276	-0.0081	-0.0656	24.7528	-5.2629	8.8745	0.5246	-0.4552	0.6139	0.3749
9.4	-9.7604	-0.0626	-1.6321	-0.0277	-0.0231	-0.0647	24.8442	-5.1048	8.8430	0.5247	-0.4553	0.6139	0.3749
9.41	-9.7417	-0.0650	-1.6189	-0.0259	-0.0266	-0.0654	24.7003	-5.0389	8.8439	0.5248	-0.4553	0.6138	0.3749
9.42	-9.7279	-0.0717	-1.6152	-0.0269	-0.0178	-0.0642	24.6144	-5.3682	8.6450	0.5248	-0.4554	0.6137	0.3750
9.43	-9.7241	-0.0786	-1.6220	-0.0361	-0.0184	-0.0631	24.7927	-5.5343	8.7158	0.5248	-0.4555	0.6136	0.3749
9.44	-9.7242	-0.0839	-1.6141	-0.0315	-0.0081	-0.0608	24.9118	-5.3415	8.6068	0.5248	-0.4556	0.6135	0.3750
9.45	-9.7265	-0.0903	-1.6206	-0.0335	-0.0152	-0.0629	24.8426	-5.3236	8.6461	0.5248	-0.4557	0.6134	0.3750
9.46	-9.7468	-0.1002	-1.5975	-0.0397	-0.0176	-0.0679	24.7303	-5.3087	8.6094	0.5248	-0.4558	0.6133	0.3750
9.47	-9.7625	-0.1154	-1.6209	-0.0322	-0.0110	-0.0648	24.8923	-5.3477	8.4688	0.5249	-0.4559	0.6133	0.3751
9.48	-9.7464	-0.0917	-1.6083	-0.0272	-0.0171	-0.0626	25.0103	-5.2611	8.6243	0.5248	-0.4560	0.6131	0.3750
9.49	-9.7287	-0.1082	-1.6145	-0.0384	-0.0156	-0.0581	24.9111	-5.2694	8.5545	0.5249	-0.4561	0.6131	0.3751
9.5	-9.7504	-0.1114	-1.6452	-0.0341	-0.0067	-0.0617	24.8416	-5.4369	8.5993	0.5248	-0.4561	0.6130	0.3751
9.51	-9.7529	-0.0999	-1.6288	-0.0235	-0.0113	-0.0662	24.7378	-5.2848	8.6801	0.5249	-0.4563	0.6129	0.3751
9.52	-9.7242	-0.1365	-1.6257	-0.0386	-0.0079	-0.0641	24.8989	-5.3459	8.6730	0.5248	-0.4564	0.6128	0.3751
9.53	-9.7475	-0.1525	-1.6442	-0.0347	0.0030	-0.0710	25.0311	-5.2852	8.6864	0.5248	-0.4565	0.6128	0.3751
9.54	-9.7821	-0.1421	-1.6392	-0.0313	-0.0016	-0.0584	24.8997	-5.4515	8.4765	0.5248	-0.4566	0.6128	0.3751
9.55	-9.7754	-0.1657	-1.6370	-0.0304	-0.0082	-0.0598	24.7078	-5.4765	8.6252	0.5247	-0.4567	0.6127	0.3751
9.56	-9.7848	-0.1643	-1.6604	-0.0300	0.0039	-0.0603	24.7589	-5.1462	8.7515	0.5247	-0.4568	0.6127	0.3751
9.57	-9.7670	-0.1834	-1.6613	-0.0296	-0.0037	-0.0585	24.8187	-5.1383	8.7719	0.5246	-0.4569	0.6126	0.3750
9.58	-9.7616	-0.1795	-1.6692	-0.0280	-0.0027	-0.0530	24.9661	-5.1532	8.5380	0.5247	-0.4570	0.6126	0.3751
9.59	-9.7438	-0.1804	-1.6790	-0.0268	-0.0027	-0.0463	25.2264	-5.1276	8.7662	0.5246	-0.4570	0.6126	0.3751
9.6	-9.7343	-0.1530	-1.6799	-0.0296	-0.0036	-0.0477	25.3481	-5.1661	8.7575	0.5246	-0.4571	0.6126	0.3751
9.61	-9.7364	-0.1315	-1.6762	-0.0230	-0.0053	-0.0448	24.9503	-5.0463	8.7674	0.5245	-0.4571	0.6125	0.3751
9.62	-9.7191	-0.1280	-1.6896	-0.0136	-0.0067	-0.0470	24.6371	-5.0007	8.6417	0.5245	-0.4571	0.6126	0.3751
9.63	-9.7085	-0.1319	-1.6913	-0.0195	-0.0088	-0.0560	24.5361	-5.1792	8.6322	0.5245	-0.4572	0.6125	0.3751
9.64	-9.7218	-0.1312	-1.6952	-0.0087	0.0062	-0.0548	24.6066	-5.1040	8.6927	0.5245	-0.4572	0.6125	0.3750
9.65	-9.7222	-0.1316	-1.6983	-0.0124	0.0001	-0.0476	24.6672	-5.2223	8.5240	0.5245	-0.4572	0.6126	0.3750
9.66	-9.7396	-0.1264	-1.6959	-0.0049	0.0065	-0.0438	24.8335	-5.2099	8.6361	0.5245	-0.4572	0.6126	0.3749
9.67	-9.7467	-0.1154	-1.7034	-0.0213	0.0092	-0.0458	24.7962	-5.4090	8.6751	0.5245	-0.4573	0.6127	0.3749
9.68	-9.7398	-0.1154	-1.7087	-0.0272	0.0035	-0.0418	24.7857	-5.2717	8.6713	0.5243	-0.4573	0.6127	0.3749
9.69	-9.7572	-0.1044	-1.7054	-0.0227	0.0045	-0.0465	24.8432	-5.1941	8.6412	0.5243	-0.4574	0.6127	0.3749
9.7	-9.7597	-0.0931	-1.7270	-0.0247	0.0027	-0.0512	24.8617	-5.1980	8.5415	0.5242	-0.4574	0.6127	0.3749
9.71	-9.7654	-0.1012	-1.7156	-0.0277	0.0006	-0.0528	24.7624	-5.2281	8.5883	0.5242	-0.4575	0.6127	0.3748
9.72	-9.7645	-0.1119	-1.7245	-0.0288	0.0011	-0.0531	24.8377	-5.0665	8.6489	0.5242	-0.4576	0.6127	0.3749
9.73	-9.7596	-0.1208	-1.7323	-0.0309	-0.0028	-0.0526	24.6143	-5.2054	8.7045	0.5241	-0.4576	0.6127	0.3748
9.74	-9.7647	-0.1190	-1.7224	-0.0329	-0.0060	-0.0494	24.6859	-5.3300	8.7907	0.5241	-0.4577	0.6127	0.3749
9.75	-9.7616	-0.1278	-1.7422	-0.0309	-0.0048	-0.0530	24.8034	-5.2063	8.6487	0.5240	-0.4577	0.6126	0.3749
9.76	-9.7639	-0.1291	-1.7381	-0.0283	-0.0018	-0.0480	24.7100	-5.0547	8.7793	0.5240	-0.4579	0.6126	0.3749
9.77	-9.7444	-0.1232	-1.7367	-0.0296	-0.0084	-0.0465	24.4910	-5.0752	8.7359	0.5239	-0.4579	0.6126	0.3750
9.78	-9.7355	-0.1207	-1.7136	-0.0300	-0.0033	-0.0537	24.4727	-5.1249	8.7654	0.5239	-0.4579	0.6125	0.3750
9.79	-9.7912	-0.1134	-1.7275	-0.0258	-0.0007	-0.0557	24.7703	-5.1295	8.7381	0.5239	-0.4580	0.6125	0.3750
9.8	-9.7624	-0.1306	-1.7393	-0.0286	-0.0067	-0.0619	24.6679	-5.1936	8.7821	0.5239	-0.4581	0.6124	0.3749
9.81	-9.7523	-0.1432	-1.6920	-0.0287	-0.0116	-0.0586	24.7992	-5.0828	8.6817	0.5239	-0.4582	0.6124	0.3750
9.82	-9.7623	-0.1462	-1.7141	-0.0278	-0.0041	-0.0641	24.7425	-5.1310	8.6408	0.5238	-0.4583	0.6123	0.3749
9.83	-9.7656	-0.1514	-1.7084	-0.0300	-0.0067	-0.0505	24.4498	-5.1137	8.8954	0.5238	-0.4584	0.6123	0.3750
9.84	-9.7581	-0.1365	-1.7057	-0.0234	-0.0132	-0.0515	24.6685	-5.2560	8.6433	0.5238	-0.4584	0.6123	0.3750
9.85	-9.7509	-0.1077	-1.6839	-0.0275	-0.0107	-0.0468	24.9883	-5.1365	8.7133	0.5238	-0.4584	0.6122	0.3750
9.86	-9.7508	-0.1134	-1.6858	-0.0276	-0.0115	-0.0510	24.9961	-5.4544	8.4239	0.5238	-0.4585	0.6122	0.3750
9.87	-9.7505	-0.1382	-1.6996	-0.0275	-0.0051	-0.0564	24.8046	-5.2715	8.5756	0.5238	-0.4586	0.6122	0.3750
9.88	-9.7493	-0.1319	-1.7001	-0.0278	-0.0064	-0.0570	24.8760	-5.2630	8.8617	0.5238	-0.4586	0.6121	0.3750
9.89	-9.7481	-0.1361	-1.6981	-0.0287	-0.0075	-0.0533	24.8121	-5.5361	8.5439	0.5237	-0.4587	0.6120	0.3750
9.9	-9.7564	-0.1329	-1.6967	-0.0269	-0.0071	-0.0498	24.7026	-5.2126	8.5928	0.5238	-0.4588	0.6121	0.3751
9.91	-9.7611	-0.1386	-1.6962	-0.0304	-0.0049	-0.0553	24.6769	-5.3718	8.5501	0.5237	-0.4588	0.6120	0.3751
9.92	-9.7620	-0.1338	-1.6948	-0.0289	-0.0091	-0.0470	24.6023	-5.1079	8.6374	0.5237	-0.4589	0.6120	0.3751
9.93	-9.7607	-0.1388	-1.6970	-0.0281	-0.0153	-0.0514	24.6253	-5.2157	8.7665	0.5236	-0.4589	0.6119	0.3751
9.94	-9.7548	-0.1535	-1.6952	-0.0341	-0.0111	-0.0564	24.7528	-5.2946	8.7601	0.5236	-0.4590	0.6119	0.3752
9.95	-9.7628	-0.1559	-1.6753	-0.0344	-0.0113	-0.0524	24.6282	-5.1381	8.7276	0.5236	-0.4591	0.6118	0.3752
9.96	-9.7549	-0.1598	-1.6815	-0.0321	-0.0174	-0.0484	24.6999	-5.0257	8.5213	0.5236	-0.4591	0.6117	0.3752
9.97	-9.7474	-0.1632	-1.6729	-0.0281	-0.0226	-0.0462	24.7180	-5.0410	8.8158	0.5237	-0.4592	0.6117	0.3753
9.98	-9.7597	-0.1580	-1.6725	-0.0307	-0.0179	-0.0490	24.5875	-4.9844	8.8147	0.5236	-0.4592	0.6116	0.3754
9.99	-9.7401	-0.1551	-1.6730	-0.0309	-0.0182	-0.0396	24.6594	-4.9513	8.7141	0.5236	-0.4592	0.6116	0.3755
10	-9.7280	-0.1605	-1.6564	-0.0269	-0.0081	-0.0403	24.5129	-5.2522	8.7862	0.5235	-0.4592	0.6115	0.3755
10.01	-9.7478	-0.1567	-1.6643	-0.0281	-0.0134	-0.0432	24.5508	-5.0531	8.7114	0.5236	-0.4592	0.6116	0.3755
10.02	-9.7487	-0.1497	-1.6605	-0.0270	-0.0159	-0.0401	24.6768	-4.8716	8.6448	0.5235	-0.4592	0.6115	0.3756
10.03	-9.7475	-0.1369	-1.6517	-0.0288	-0.0159	-0.0373	24.5075	-5.1183	8.6578	0.5235	-0.4592	0.6115	0.3757
10.04	-9.7455	-0.1278	-1.6442	-0.0220	-0.0140	-0.0391	24.6550	-5.1173	8.6705	0.5235	-0.4592	0.6115	0.3757
10.05	-9.7263	-0.1275	-1.6457	-0.0191	-0.0090	-0.0407	24.8455	-5.1240	8.7760	0.5235	-0.4592	0.6115	0.3757
10.06	-9.7247	-0.1293	-1.6469	-0.0260	-0.0057	-0.0475	24.7697	-5.2948	8.7503	0.5235	-0.4593	0.6115	0.3758
10.07	-9.7336	-0.1285	-1.6504	-0.0250	-0.0077	-0.0462	24.8943	-5.2881	8.7648	0.5234	-0.4592	0.6114	0.3757
10.08	-9.7378	-0.1339	-1.6601	-0.0279	-0.0046	-0.0430	24.8954	-5.1931	8.6457	0.5234	-0.4593	0.6115	0.3758
10.09	-9.7429	-0.1297	-1.6660	-0.0273	-0.0067	-0.0457	25.0432	-5.1836	8.8333	0.5233	-0.4594	0.6114	0.3758
10.1	-9.7474	-0.1285	-1.6631	-0.0279	-0.0099	-0.0390	25.1066	-5.0030	8.5747	0.5233	-0.4594	0.6115	0.3759
10.11	-9.7552	-0.1344	-1.6627	-0.0275	-0.0085	-0.0398	24.8588	-5.0941	8.5620	0.5233	-0.4594	0.6114	0.3759
10.12	-9.7620	-0.1596	-1.6816	-0.0312	-0.0116	-0.0367	24.6921	-5.0586	8.8877	0.5232	-0.4594	0.6114	0.3760
10.13	-9.7504	-0.1862	-1.7095	-0.0300	-0.0095	-0.0385	24.4574	-4.9018	8.7943	0.5232	-0.4594	0.6114	0.3760
10.14	-9.7243	-0.1777	-1.6715	-0.0275	-0.0116	-0.0384	24.6395	-5.2817	8.6485	0.5231	-0.4594	0.6113	0.3761
10.15	-9.7259	-0.1963	-1.6801	-0.0282	0.0006	-0.0414	24.7671	-5.1921	8.5500	0.5231	-0.4595	0.6114	0.3761
10.16	-9.7356	-0.2241	-1.6974	-0.0258	0.0034	-0.0422	24.7161	-5.1842	8.5713	0.5230	-0.4595	0.6114	0.3761
10.17	-9.7126	-0.2189	-1.6943	-0.0171	-0.0078	-0.0357	24.7660	-5.2249	8.5476	0.5230	-0.4595	0.6115	0.3762
10.18	-9.6734	-0.1885	-1.6766	-0.0059	-0.0049	-0.0305	24.6296	-4.9242	8.6591	0.5229	-0.4594	0.6115	0.3761
10.19	-9.7348	-0.1439	-1.6860	-0.0035	0.0051	-0.0340	24.5559	-5.0129	8.6398	0.5229	-0.4594	0.6116	0.3761
10.2	-9.7530	-0.1272	-1.7011	-0.0072	0.0082	-0.0390	24.9047	-5.0928	8.4808	0.5229	-0.4594	0.6117	0.3761
10.21	-9.7527	-0.1328	-1.6782	-0.0027	0.0055	-0.0355	24.6084	-4.9672	8.4435	0.5228	-0.4593	0.6117	0.3760
10.22	-9.7513	-0.1030	-1.6851	-0.0062	0.0066	-0.0395	24.8025	-5.0712	8.6875	0.5229	-0.4594	0.6119	0.3760
10.23	-9.7807	-0.1092	-1.6870	-0.0154	0.0011	-0.0438	24.9019	-5.1987	8.6374	0.5228	-0.4593	0.6119	0.3759
10.24	-9.7882	-0.1071	-1.7039	-0.0261	0.0051	-0.0395	24.5811	-5.2924	8.6836	0.5227	-0.4594	0.6119	0.3759
10.25	-9.7520	-0.1133	-1.6903	-0.0281	-0.0026	-0.0356	24.8469	-5.4382	8.5463	0.5226	-0.4594	0.6119	0.3759
10.26	-9.7374	-0.1271	-1.6871	-0.0298	-0.0085	-0.0345	24.8244	-5.3776	8.7124	0.5226	-0.4594	0.6119	0.3760
10.27	-9.7244	-0.1306	-1.6974	-0.0272	-0.0067	-0.0312	24.8035	-5.1415	8.5663	0.5225	-0.4594	0.6119	0.3761
10.28	-9.7295	-0.1272	-1.7012	-0.0288	0.0067	-0.0279	24.6132	-5.1488	8.6362	0.5224	-0.4594	0.6120	0.3761
10.29	-9.7344	-0.1093	-1.7039	-0.0263	0.0125	-0.0295	24.8652	-5.2354	8.6682	0.5223	-0.4594	0.6121	0.3762
10.3	-9.7483	-0.0866	-1.7088	-0.0271	0.0084	-0.0319	24.6585	-5.3832	8.5149	0.5222	-0.4595	0.6121	0.3762
10.31	-9.7509	-0.0930	-1.7184	-0.0272	0.0090	-0.0355	24.6635	-5.2172	8.4247	0.5221	-0.4595	0.6122	0.3762
10.32	-9.7444	-0.1019	-1.7312	-0.0291	0.0140	-0.0417	24.5426	-5.3549	8.6686	0.5220	-0.4595	0.6122	0.3762
10.33	-9.7512	-0.1040	-1.7350	-0.0232	0.0060	-0.0484	24.6856	-5.1662	8.7532	0.5220	-0.4596	0.6123	0.3762
10.34	-9.7370	-0.0963	-1.7296	-0.0184	0.0071	-0.0461	24.7509	-5.2150	8.6071	0.5219	-0.4597	0.6123	0.3761
10.35	-9.7270	-0.0940	-1.7350	-0.0148	0.0098	-0.0514	24.7426	-5.1559	8.7114	0.5218	-0.4597	0.6123	0.3761
10.36	-9.7298	-0.0887	-1.7294	-0.0227	0.0057	-0.0512	24.6379	-5.2591	8.4098	0.5218	-0.4598	0.6123	0.3760
10.37	-9.7321	-0.0789	-1.7288	-0.0296	0.0094	-0.0558	24.6572	-5.1781	8.6780	0.5217	-0.4599	0.6123	0.3760
10.38	-9.7429	-0.0916	-1.7427	-0.0266	0.0124	-0.0566	24.6145	-5.0199	8.7261	0.5217	-0.4600	0.6123	0.3759
10.39	-9.7359	-0.0971	-1.7367	-0.0258	0.0141	-0.0526	24.4311	-5.0714	8.5287	0.5215	-0.4601	0.6123	0.3759
10.4	-9.7586	-0.0971	-1.7356	-0.0280	0.0027	-0.0527	24.7115	-5.1727	8.5778	0.5216	-0.4602	0.6124	0.3759
10.41	-9.7614	-0.1022	-1.7633	-0.0298	0.0132	-0.0559	24.7240	-5.5444	8.5611	0.5214	-0.4603	0.6124	0.3758
10.42	-9.7829	-0.1249	-1.7667	-0.0403	0.0037	-0.0569	24.8053	-5.1659	8.5733	0.5214	-0.4604	0.6124	0.3759
10.43	-9.7939	-0.1345	-1.7540	-0.0449	0.0006	-0.0545	24.8418	-5.0467	8.5437	0.5213	-0.4605	0.6122	0.3758
10.44	-9.7867	-0.1439	-1.7628	-0.0439	-0.0050	-0.0583	24.9266	-5.2942	8.7136	0.5212	-0.4607	0.6122	0.3759
10.45	-9.7813	-0.1567	-1.7754	-0.0428	-0.0055	-0.0464	24.5337	-5.1714	8.5592	0.5212	-0.4608	0.6122	0.3760
10.46	-9.7529	-0.1711	-1.7682	-0.0536	-0.0106	-0.0420	24.7170	-5.1220	8.6441	0.5210	-0.4608	0.6121	0.3761
10.47	-9.7599	-0.1707	-1.7443	-0.0457	-0.0113	-0.0434	24.8484	-5.2791	8.6587	0.5211	-0.4610	0.6121	0.3762
10.48	-9.7904	-0.1595	-1.7508	-0.0353	-0.0068	-0.0425	24.8299	-5.1683	8.6712	0.5209	-0.4610	0.6120	0.3762
10.49	-9.7591	-0.1904	-1.7606	-0.0358	-0.0212	-0.0428	24.7698	-5.2012	8.5849	0.5210	-0.4610	0.6120	0.3763
10.5	-9.7503	-0.1943	-1.7307	-0.0274	-0.0227	-0.0414	24.7210	-5.2581	8.5546	0.5209	-0.4610	0.6119	0.3764
10.51	-9.7581	-0.1928	-1.7305	-0.0284	-0.0042	-0.0442	24.5193	-5.2254	8.5605	0.5209	-0.4610	0.6119	0.3764
10.52	-9.7615	-0.2039	-1.7354	-0.0264	-0.0143	-0.0434	24.7895	-5.2459	8.5920	0.5209	-0.4611	0.6119	0.3765
10.53	-9.7391	-0.1826	-1.7289	-0.0254	-0.0262	-0.0313	24.7971	-5.2273	8.7721	0.5209	-0.4610	0.6118	0.3765
10.54	-9.7414	-0.1348	-1.7138	-0.0078	-0.0198	-0.0332	24.5786	-5.2467	8.6353	0.5209	-0.4610	0.6119	0.3766
10.55	-9.7495	-0.1280	-1.7137	-0.0101	-0.0194	-0.0409	24.6157	-5.2218	8.6704	0.5209	-0.4609	0.6119	0.3766
10.56	-9.7369	-0.1547	-1.7166	-0.0125	-0.0137	-0.0415	24.8139	-5.2902	8.6137	0.5210	-0.4609	0.6119	0.3766
10.57	-9.7263	-0.1368	-1.7005	-0.0028	-0.0154	-0.0434	24.5232	-5.3667	8.4442	0.5210	-0.4608	0.6118	0.3765
10.58	-9.7301	-0.1184	-1.7077	-0.0015	-0.0064	-0.0395	24.6813	-5.1671	8.5005	0.5210	-0.4608	0.6119	0.3765
10.59	-9.7361	-0.1070	-1.6984	-0.0031	-0.0080	-0.0380	24.9622	-5.0388	8.9184	0.5210	-0.4607	0.6120	0.3765
10.6	-9.7399	-0.0930	-1.7025	-0.0044	-0.0130	-0.0337	25.3146	-5.3185	8.9339	0.5211	-0.4607	0.6120	0.3765
10.61	-9.7515	-0.0926	-1.7040	-0.0037	-0.0105	-0.0389	25.0633	-5.3572	8.9826	0.5210	-0.4606	0.6120	0.3765
10.62	-9.7540	-0.0905	-1.7139	-0.0044	-0.0093	-0.0384	24.8550	-5.2982	8.8733	0.5211	-0.4606	0.6121	0.3764
10.63	-9.7565	-0.0880	-1.7178	-0.0045	-0.0060	-0.0402	24.6199	-5.2443	8.7654	0.5211	-0.4605	0.6121	0.3764
10.64	-9.7556	-0.0879	-1.7234	-0.0197	-0.0056	-0.0403	24.7232	-5.1762	8.7753	0.5210	-0.4605	0.6121	0.3764
10.65	-9.7591	-0.0918	-1.7155	-0.0249	-0.0062	-0.0436	24.7068	-5.2267	8.7683	0.5211	-0.4606	0.6122	0.3765
10.66	-9.7632	-0.0949	-1.7106	-0.0239	-0.0073	-0.0375	24.7371	-4.9687	8.7657	0.5210	-0.4606	0.6121	0.3765
10.67	-9.7593	-0.0964	-1.7037	-0.0219	-0.0097	-0.0403	24.6371	-5.2388	8.7728	0.5210	-0.4606	0.6122	0.3765
10.68	-9.7623	-0.1004	-1.7074	-0.0237	-0.0147	-0.0403	24.6177	-5.3096	8.7633	0.5209	-0.4606	0.6121	0.3765
10.69	-9.7626	-0.1089	-1.7077	-0.0241	-0.0183	-0.0478	24.7377	-4.9244	8.9035	0.5210	-0.4606	0.6121	0.3766
10.7	-9.7452	-0.1099	-1.7113	-0.0291	-0.0179	-0.0451	24.5194	-5.2714	8.7773	0.5210	-0.4606	0.6120	0.3766
10.71	-9.7471	-0.1055	-1.7068	-0.0268	-0.0111	-0.0489	24.6043	-4.9905	8.8351	0.5209	-0.4606	0.6120	0.3766
10.72	-9.7440	-0.1024	-1.7056	-0.0279	-0.0087	-0.0463	24.7576	-5.0478	8.8801	0.5210	-0.4607	0.6120	0.3767
10.73	-9.7412	-0.0996	-1.6946	-0.0273	-0.0118	-0.0539	24.5096	-5.0881	8.8305	0.5209	-0.4608	0.6119	0.3767
10.74	-9.7279	-0.1074	-1.6986	-0.0264	-0.0075	-0.0503	24.4284	-4.9874	8.6648	0.5209	-0.4608	0.6119	0.3767
10.75	-9.7243	-0.1184	-1.7002	-0.0228	-0.0069	-0.0522	24.4458	-5.0364	8.7621	0.5208	-0.4608	0.6118	0.3766
10.76	-9.7291	-0.1186	-1.6947	-0.0265	-0.0030	-0.0548	24.5749	-5.1162	8.6609	0.5209	-0.4609	0.6119	0.3767
10.77	-9.7262	-0.1286	-1.6971	-0.0273	-0.0106	-0.0503	24.6364	-5.0981	8.6790	0.5208	-0.4610	0.6118	0.3767
10.78	-9.7390	-0.1309	-1.6952	-0.0272	-0.0085	-0.0509	24.6684	-5.1603	8.6749	0.5208	-0.4610	0.6118	0.3767
10.79	-9.7494	-0.1493	-1.6959	-0.0273	-0.0079	-0.0469	24.8581	-5.3230	8.6853	0.5208	-0.4611	0.6118	0.3767
10.8	-9.7348	-0.1520	-1.7064	-0.0277	-0.0092	-0.0457	24.7209	-5.3582	8.5403	0.5208	-0.4611	0.6118	0.3767
10.81	-9.7360	-0.1546	-1.6975	-0.0254	-0.0086	-0.0418	24.5633	-5.4354	8.6777	0.5208	-0.4612	0.6118	0.3768
10.82	-9.7320	-0.1472	-1.6977	-0.0202	-0.0115	-0.0466	24.8070	-5.4688	8.6791	0.5207	-0.4611	0.6117	0.3767
10.83	-9.7325	-0.1353	-1.6956	-0.0282	-0.0054	-0.0476	24.8173	-5.3504	8.7009	0.5207	-0.4612	0.6117	0.3768
10.84	-9.7498	-0.1797	-1.7214	-0.0251	0.0036	-0.0400	24.7601	-5.2006	8.7962	0.5206	-0.4612	0.6117	0.3768
10.85	-9.7511	-0.1548	-1.7277	-0.0186	-0.0021	-0.0453	24.6407	-5.2494	8.7569	0.5206	-0.4613	0.6118	0.3768
10.86	-9.7406	-0.1394	-1.6997	-0.0299	-0.0080	-0.0377	24.5873	-5.3915	8.7882	0.5205	-0.4613	0.6117	0.3768
10.87	-9.7548	-0.1590	-1.7107	-0.0232	0.0006	-0.0381	24.5750	-5.2379	8.6217	0.5205	-0.4613	0.6118	0.3768
10.88	-9.7738	-0.1487	-1.7332	-0.0103	-0.0022	-0.0412	24.7838	-5.1327	8.7897	0.5205	-0.4613	0.6118	0.3768
10.89	-9.7764	-0.1434	-1.7296	-0.0070	-0.0062	-0.0456	24.5984	-5.0223	8.9931	0.5204	-0.4613	0.6118	0.3767
10.9	-9.7441	-0.1349	-1.7244	-0.0102	-0.0085	-0.0429	24.6422	-4.9900	8.8003	0.5205	-0.4613	0.6119	0.3767
10.91	-9.7467	-0.1144	-1.7123	-0.0048	-0.0037	-0.0385	24.4594	-5.0936	8.7812	0.5205	-0.4613	0.6119	0.3767
10.92	-9.7401	-0.1058	-1.7180	-0.0089	-0.0041	-0.0441	24.4386	-5.2913	8.6910	0.5205	-0.4613	0.6120	0.3767
10.93	-9.7316	-0.1122	-1.7073	-0.0166	-0.0044	-0.0421	24.5256	-5.3691	8.6869	0.5204	-0.4612	0.6119	0.3766
10.94	-9.7469	-0.0989	-1.7133	-0.0205	-0.0032	-0.0438	24.5614	-5.3694	8.5313	0.5204	-0.4613	0.6120	0.3766
10.95	-9.7479	-0.1089	-1.7273	-0.0293	-0.0046	-0.0409	24.6490	-5.1991	8.7137	0.5204	-0.4613	0.6120	0.3767
10.96	-9.7767	-0.1014	-1.7030	-0.0226	-0.0064	-0.0435	24.6011	-5.1781	8.7933	0.5203	-0.4613	0.6119	0.3767
10.97	-9.7893	-0.1264	-1.7325	-0.0232	-0.0093	-0.0400	24.7413	-5.3959	8.7683	0.5204	-0.4614	0.6120	0.3767
10.98	-9.7558	-0.1305	-1.7174	-0.0217	-0.0184	-0.0373	24.6904	-5.3594	8.7602	0.5203	-0.4613	0.6120	0.3767
10.99	-9.7302	-0.1258	-1.6897	-0.0214	-0.0121	-0.0378	24.7444	-5.3741	8.5866	0.5203	-0.4613	0.6120	0.3768
11	-9.7264	-0.1540	-1.7061	-0.0271	-0.0015	-0.0394	24.5994	-5.3733	8.5912	0.5202	-0.4613	0.6119	0.3768
11.01	-9.7290	-0.1393	-1.7213	-0.0152	-0.0112	-0.0303	24.5397	-5.2545	8.4705	0.5202	-0.4613	0.6120	0.3769
11.02	-9.7237	-0.1004	-1.7083	-0.0209	-0.0108	-0.0336	24.6767	-5.1548	8.7022	0.5202	-0.4613	0.6120	0.3769
11.03	-9.7393	-0.0840	-1.7209	-0.0215	-0.0021	-0.0316	24.8145	-5.2788	8.8836	0.5201	-0.4613	0.6120	0.3769
11.04	-9.7552	-0.0915	-1.7324	-0.0272	-0.0082	-0.0385	24.7781	-5.3676	8.8521	0.5201	-0.4613	0.6121	0.3770
11.05	-9.7480	-0.0968	-1.7315	-0.0158	-0.0108	-0.0394	24.7255	-5.2618	8.7516	0.5201	-0.4613	0.6121	0.3770
11.06	-9.7493	-0.0961	-1.7282	-0.0181	-0.0040	-0.0458	24.6076	-5.4945	8.7870	0.5201	-0.4613	0.6121	0.3770
11.07	-9.7401	-0.0878	-1.7364	-0.0254	-0.0043	-0.0523	24.3987	-5.2875	8.7636	0.5200	-0.4613	0.6120	0.3769
11.08	-9.7267	-0.0669	-1.7336	-0.0261	-0.0033	-0.0495	24.6886	-5.1569	8.7723	0.5200	-0.4614	0.6121	0.3770
11.09	-9.7387	-0.0757	-1.7265	-0.0277	-0.0011	-0.0500	24.9074	-4.9141	8.9443	0.5200	-0.4615	0.6120	0.3769
11.1	-9.7334	-0.0834	-1.7391	-0.0278	-0.0032	-0.0550	25.0953	-4.9906	9.1883	0.5199	-0.4616	0.6120	0.3769
11.11	-9.7408	-0.0975	-1.7353	-0.0305	-0.0054	-0.0562	24.9473	-5.0537	8.9298	0.5199	-0.4616	0.6120	0.3769
11.12	-9.7570	-0.1030	-1.7463	-0.0279	-0.0007	-0.0573	24.6110	-5.1324	8.8039	0.5199	-0.4617	0.6119	0.3769
11.13	-9.7594	-0.1246	-1.7463	-0.0330	-0.0019	-0.0509	24.5091	-5.0735	8.7524	0.5198	-0.4618	0.6119	0.3769
11.14	-9.7614	-0.1327	-1.7405	-0.0263	-0.0068	-0.0532	24.6589	-5.1539	8.8708	0.5198	-0.4618	0.6118	0.3769
11.15	-9.7642	-0.1366	-1.7440	-0.0278	-0.0104	-0.0505	24.6470	-5.1389	8.6106	0.5198	-0.4619	0.6119	0.3770
11.16	-9.7703	-0.1449	-1.7458	-0.0293	-0.0141	-0.0429	24.7611	-5.3228	8.4512	0.5198	-0.4619	0.6118	0.3770
11.17	-9.7606	-0.1533	-1.7376	-0.0273	-0.0145	-0.0477	24.7003	-5.2605	8.7669	0.5198	-0.4620	0.6118	0.3771
11.18	-9.7570	-0.1447	-1.7441	-0.0264	-0.0185	-0.0425	24.8385	-5.2050	8.8547	0.5197	-0.4620	0.6117	0.3771
11.19	-9.7256	-0.1351	-1.7324	-0.0239	-0.0241	-0.0397	24.7994	-5.5005	8.6286	0.5198	-0.4620	0.6117	0.3771
11.2	-9.7544	-0.1239	-1.7166	-0.0189	-0.0146	-0.0411	24.8433	-5.4560	8.7170	0.5198	-0.4620	0.6117	0.3772
11.21	-9.7645	-0.1143	-1.7467	-0.0055	-0.0137	-0.0450	24.7218	-5.3168	8.5553	0.5198	-0.4619	0.6117	0.3771
11.22	-9.7367	-0.1179	-1.7255	-0.0203	-0.0221	-0.0468	24.7423	-5.3202	8.8068	0.5199	-0.4619	0.6117	0.3772
11.23	-9.7451	-0.1171	-1.6944	-0.0160	-0.0155	-0.0411	24.5579	-5.3296	8.7198	0.5199	-0.4619	0.6116	0.3772
11.24	-9.7426	-0.1298	-1.7045	-0.0128	-0.0176	-0.0380	24.8506	-5.3107	8.6449	0.5199	-0.4619	0.6117	0.3772
11.25	-9.7484	-0.1159	-1.7002	-0.0156	-0.0193	-0.0447	25.0229	-5.3446	8.6988	0.5199	-0.4618	0.6116	0.3772
11.26	-9.7331	-0.0953	-1.6983	-0.0125	-0.0176	-0.0425	24.8812	-5.1662	8.7509	0.5200	-0.4618	0.6116	0.3773
11.27	-9.7394	-0.0846	-1.6945	-0.0275	-0.0187	-0.0453	24.8999	-5.0141	8.6297	0.5199	-0.4618	0.6116	0.3773
11.28	-9.7431	-0.1059	-1.6971	-0.0269	-0.0168	-0.0459	24.6917	-5.1321	8.7483	0.5199	-0.4618	0.6115	0.3773
11.29	-9.7398	-0.1119	-1.6975	-0.0279	-0.0120	-0.0509	24.8567	-5.2674	8.7889	0.5200	-0.4619	0.6115	0.3774
11.3	-9.7351	-0.1093	-1.6978	-0.0258	-0.0106	-0.0530	24.7722	-5.1746	8.8492	0.5199	-0.4619	0.6114	0.3774
11.31	-9.7400	-0.1165	-1.6943	-0.0231	-0.0111	-0.0466	24.7135	-5.1880	8.6757	0.5199	-0.4620	0.6115	0.3774
11.32	-9.7323	-0.1107	-1.6967	-0.0282	-0.0103	-0.0437	24.7424	-5.2770	8.6522	0.5199	-0.4619	0.6114	0.3774
11.33	-9.7359	-0.1180	-1.6973	-0.0262	-0.0113	-0.0440	24.6098	-4.9819	8.7027	0.5199	-0.4620	0.6114	0.3775
11.34	-9.7293	-0.1131	-1.6969	-0.0260	-0.0144	-0.0386	24.6817	-5.1621	8.7400	0.5199	-0.4620	0.6114	0.3775
11.35	-9.7465	-0.1015	-1.6942	-0.0265	-0.0117	-0.0396	24.8165	-5.3236	8.6169	0.5199	-0.4620	0.6114	0.3776
11.36	-9.7525	-0.1157	-1.6945	-0.0260	-0.0134	-0.0410	24.8219	-5.4156	8.9019	0.5198	-0.4620	0.6113	0.3776
11.37	-9.7419	-0.1101	-1.6953	-0.0269	-0.0125	-0.0452	24.8108	-5.2793	8.8268	0.5198	-0.4620	0.6113	0.3776
11.38	-9.7478	-0.1117	-1.6901	-0.0272	-0.0081	-0.0453	24.8273	-5.3981	8.7020	0.5198	-0.4621	0.6113	0.3777
11.39	-9.7451	-0.1152	-1.6978	-0.0170	-0.0114	-0.0414	24.8000	-5.3568	8.5709	0.5197	-0.4620	0.6112	0.3777
11.4	-9.7398	-0.1112	-1.6991	-0.0182	-0.0073	-0.0445	24.8478	-5.1785	8.7870	0.5198	-0.4621	0.6113	0.3777
11.41	-9.7389	-0.1054	-1.6916	-0.0182	-0.0081	-0.0465	24.7558	-5.1563	8.7657	0.5198	-0.4621	0.6113	0.3777
11.42	-9.7366	-0.0974	-1.6903	-0.0257	-0.0085	-0.0458	24.7717	-5.1135	8.7074	0.5198	-0.4622	0.6113	0.3777
