time	acceleration_x	acceleration_y	acceleration_z	gyroscope_x	gyroscope_y	gyroscope_z	magnetometer_x	magnetometer_y	magnetometer_z	quaternion_w	quaternion_x	quaternion_y	quaternion_z
0	-9.4246	-0.8364	-1.5040	-0.0284	-0.0289	-0.1110	31.4988	25.1483	-4.0035	-0.3623	-0.5586	-0.5074	0.5472
0.01	-9.3907	-0.8542	-1.5025	-0.0285	-0.0220	-0.1063	31.6051	25.1515	-3.9269	-0.3622	-0.5582	-0.5075	0.5473
0.02	-9.3715	-0.8753	-1.5029	-0.0278	-0.0118	-0.0997	31.8491	25.1742	-3.8032	-0.3622	-0.5581	-0.5077	0.5474
0.03	-9.3832	-0.9029	-1.4896	-0.0285	-0.0010	-0.1024	32.0670	25.1079	-4.0264	-0.3621	-0.5579	-0.5079	0.5474
0.04	-9.4284	-0.9401	-1.4823	-0.0282	0.0090	-0.1065	32.0026	25.0390	-3.9478	-0.3620	-0.5577	-0.5081	0.5474
0.05	-9.4626	-0.9755	-1.4783	-0.0287	0.0125	-0.1017	32.3135	25.2013	-3.6729	-0.3619	-0.5577	-0.5084	0.5474
0.06	-9.4794	-1.0080	-1.4780	-0.0272	0.0222	-0.0961	32.3786	25.1259	-3.8177	-0.3617	-0.5576	-0.5085	0.5474
0.07	-9.4830	-1.0353	-1.4779	-0.0216	0.0232	-0.0927	31.9507	25.2202	-4.1489	-0.3615	-0.5576	-0.5088	0.5474
0.08	-9.4731	-1.0612	-1.4681	-0.0107	0.0274	-0.0816	31.6918	25.2228	-4.2300	-0.3614	-0.5575	-0.5089	0.5473
0.09	-9.4974	-1.0810	-1.4584	-0.0006	0.0394	-0.0767	31.5948	25.2650	-3.9966	-0.3612	-0.5576	-0.5091	0.5473
0.1	-9.5485	-1.0763	-1.4504	-0.0005	0.0435	-0.0674	31.7279	25.3253	-4.2400	-0.3610	-0.5577	-0.5092	0.5472
0.11	-9.5579	-1.0757	-1.4445	0.0126	0.0396	-0.0597	31.8354	25.6057	-4.1479	-0.3608	-0.5578	-0.5092	0.5471
0.12	-9.5367	-1.0959	-1.4471	0.0201	0.0382	-0.0544	31.8549	25.3499	-3.8435	-0.3606	-0.5580	-0.5092	0.5471
0.13	-9.5607	-1.0930	-1.4417	0.0231	0.0460	-0.0551	31.5564	25.3490	-3.9166	-0.3604	-0.5582	-0.5093	0.5470
0.14	-9.6251	-1.0823	-1.4336	0.0210	0.0491	-0.0533	31.6434	25.3632	-3.8901	-0.3602	-0.5584	-0.5093	0.5470
0.15	-9.6337	-1.0833	-1.4293	0.0285	0.0452	-0.0537	31.6712	25.2844	-3.8878	-0.3600	-0.5585	-0.5092	0.5468
0.16	-9.6170	-1.0891	-1.4199	0.0404	0.0431	-0.0623	31.6568	25.3201	-3.9155	-0.3599	-0.5589	-0.5092	0.5468
0.17	-9.6122	-1.0828	-1.4195	0.0442	0.0412	-0.0664	31.6682	25.4831	-4.0117	-0.3596	-0.5591	-0.5091	0.5467
0.18	-9.5980	-1.0710	-1.4035	0.0477	0.0418	-0.0802	31.6606	25.4156	-3.9832	-0.3594	-0.5593	-0.5090	0.5467
0.19	-9.5821	-1.0782	-1.4001	0.0492	0.0287	-0.0802	31.6704	25.3995	-3.9891	-0.3592	-0.5595	-0.5090	0.5467
0.2	-9.5575	-1.0782	-1.3843	0.0477	0.0302	-0.0800	31.5240	25.2503	-3.8633	-0.3590	-0.5597	-0.5089	0.5467
0.21	-9.5537	-1.0659	-1.3668	0.0557	0.0342	-0.0932	31.6739	25.4549	-3.9406	-0.3587	-0.5599	-0.5089	0.5468
0.22	-9.5867	-1.0732	-1.3669	0.0597	0.0389	-0.1049	31.9498	25.4370	-4.1180	-0.3583	-0.5600	-0.5088	0.5468
0.23	-9.6092	-1.0786	-1.3580	0.0618	0.0407	-0.1102	31.9255	25.1719	-3.9177	-0.3579	-0.5603	-0.5088	0.5470
0.24	-9.6159	-1.0738	-1.3348	0.0565	0.0392	-0.1109	31.7773	25.2587	-3.7952	-0.3576	-0.5604	-0.5088	0.5470
0.25	-9.6226	-1.0879	-1.3268	0.0560	0.0380	-0.1232	31.7320	25.1795	-4.2379	-0.3572	-0.5606	-0.5089	0.5472
0.26	-9.5972	-1.0972	-1.3239	0.0687	0.0296	-0.1329	31.8546	25.4234	-3.9351	-0.3568	-0.5606	-0.5088	0.5472
0.27	-9.5787	-1.1051	-1.3178	0.0605	0.0354	-0.1368	31.7158	25.5004	-4.0521	-0.3563	-0.5607	-0.5089	0.5474
0.28	-9.5880	-1.1116	-1.3190	0.0542	0.0344	-0.1389	31.6217	25.4775	-4.0416	-0.3559	-0.5607	-0.5090	0.5475
0.29	-9.5706	-1.1084	-1.3374	0.0522	0.0355	-0.1359	31.7778	25.4926	-3.9574	-0.3555	-0.5608	-0.5091	0.5476
0.3	-9.5788	-1.1042	-1.3358	0.0495	0.0380	-0.1361	31.6284	25.4769	-4.1183	-0.3552	-0.5609	-0.5092	0.5478
0.31	-9.6068	-1.1130	-1.3583	0.0424	0.0407	-0.1345	31.4408	25.5141	-3.7620	-0.3547	-0.5609	-0.5093	0.5478
0.32	-9.6064	-1.1136	-1.3735	0.0291	0.0348	-0.1306	31.5200	25.8695	-3.9519	-0.3544	-0.5610	-0.5095	0.5479
0.33	-9.6349	-1.1145	-1.3819	0.0178	0.0209	-0.1242	31.4524	25.7105	-4.1230	-0.3541	-0.5610	-0.5095	0.5479
0.34	-9.6545	-1.1254	-1.3981	0.0027	0.0176	-0.1195	31.6482	25.9175	-3.9496	-0.3540	-0.5610	-0.5097	0.5479
0.35	-9.6728	-1.1254	-1.4006	-0.0133	0.0031	-0.1163	31.6353	26.0159	-3.8925	-0.3538	-0.5610	-0.5098	0.5479
0.36	-9.6738	-1.1308	-1.4083	-0.0292	-0.0007	-0.1085	31.4896	25.8087	-3.9709	-0.3538	-0.5608	-0.5099	0.5479
0.37	-9.6526	-1.1450	-1.4048	-0.0498	-0.0178	-0.1098	31.4666	25.8470	-4.1367	-0.3539	-0.5607	-0.5102	0.5479
0.38	-9.6565	-1.1614	-1.4223	-0.0562	-0.0335	-0.1104	31.6730	25.8350	-4.0271	-0.3540	-0.5605	-0.5103	0.5479
0.39	-9.7182	-1.1781	-1.4581	-0.0660	-0.0314	-0.1019	31.3477	25.8079	-3.7961	-0.3542	-0.5603	-0.5105	0.5478
0.4	-9.7900	-1.1918	-1.4870	-0.0813	-0.0497	-0.0905	31.3581	25.6112	-3.8866	-0.3543	-0.5599	-0.5107	0.5478
0.41	-9.8058	-1.2005	-1.4988	-0.0949	-0.0710	-0.0776	31.7424	25.8258	-4.0576	-0.3547	-0.5596	-0.5109	0.5479
0.42	-9.7870	-1.2269	-1.4981	-0.1098	-0.0875	-0.0800	31.6239	25.7704	-4.0570	-0.3550	-0.5591	-0.5110	0.5479
0.43	-9.7333	-1.2652	-1.5075	-0.1252	-0.1144	-0.0761	31.4214	25.5344	-3.9563	-0.3556	-0.5586	-0.5112	0.5479
0.44	-9.6719	-1.2804	-1.5056	-0.1270	-0.1274	-0.0694	31.3796	25.6735	-4.1121	-0.3563	-0.5581	-0.5113	0.5478
0.45	-9.6298	-1.2924	-1.4895	-0.1310	-0.1362	-0.0687	31.4125	25.7914	-4.0841	-0.3571	-0.5575	-0.5114	0.5478
0.46	-9.5696	-1.2985	-1.4689	-0.1317	-0.1414	-0.0601	31.5932	26.0467	-4.0977	-0.3578	-0.5570	-0.5115	0.5479
0.47	-9.5040	-1.3029	-1.4478	-0.1385	-0.1433	-0.0628	31.4775	25.9129	-4.1061	-0.3585	-0.5564	-0.5115	0.5478
0.48	-9.4515	-1.3117	-1.4267	-0.1325	-0.1416	-0.0637	31.6125	25.8367	-3.9669	-0.3593	-0.5558	-0.5117	0.5480
0.49	-9.4145	-1.3098	-1.3943	-0.1310	-0.1389	-0.0506	31.6670	25.8086	-4.0479	-0.3599	-0.5552	-0.5117	0.5480
0.5	-9.3830	-1.3061	-1.3696	-0.1261	-0.1255	-0.0485	31.4680	25.6945	-4.1392	-0.3606	-0.5547	-0.5119	0.5481
0.51	-9.3570	-1.2981	-1.3496	-0.1215	-0.1190	-0.0518	31.5076	25.9561	-4.4206	-0.3612	-0.5541	-0.5119	0.5480
0.52	-9.3545	-1.2824	-1.3421	-0.1110	-0.1116	-0.0440	31.4607	25.8915	-4.1816	-0.3617	-0.5537	-0.5120	0.5481
0.53	-9.3419	-1.2531	-1.3363	-0.1031	-0.0875	-0.0480	31.3632	25.9833	-4.2952	-0.3622	-0.5533	-0.5121	0.5481
0.54	-9.3412	-1.2195	-1.3170	-0.0980	-0.0625	-0.0485	31.5343	26.0240	-4.4279	-0.3626	-0.5529	-0.5122	0.5480
0.55	-9.3421	-1.1923	-1.3175	-0.0903	-0.0502	-0.0501	31.8409	25.9134	-4.1339	-0.3630	-0.5527	-0.5124	0.5480
0.56	-9.3324	-1.1732	-1.3179	-0.0778	-0.0281	-0.0550	31.7845	25.7792	-4.0619	-0.3632	-0.5525	-0.5125	0.5479
0.57	-9.3601	-1.1495	-1.3247	-0.0820	-0.0155	-0.0641	31.7226	25.7658	-4.1559	-0.3634	-0.5524	-0.5127	0.5478
0.58	-9.3886	-1.1278	-1.3357	-0.0729	-0.0092	-0.0692	31.3869	25.8122	-3.9766	-0.3635	-0.5522	-0.5128	0.5476
0.59	-9.4172	-1.1237	-1.3230	-0.0658	0.0039	-0.0750	31.4119	25.5960	-3.8713	-0.3636	-0.5520	-0.5131	0.5475
0.6	-9.4352	-1.1097	-1.3436	-0.0644	0.0131	-0.0839	31.6186	25.7946	-4.1949	-0.3636	-0.5519	-0.5134	0.5474
0.61	-9.4316	-1.0967	-1.3497	-0.0582	0.0153	-0.0825	31.3538	25.7795	-4.0648	-0.3636	-0.5517	-0.5137	0.5472
0.62	-9.4340	-1.0903	-1.3545	-0.0612	0.0257	-0.0855	31.5159	25.8917	-3.9577	-0.3636	-0.5517	-0.5140	0.5471
0.63	-9.4455	-1.1014	-1.3688	-0.0644	0.0246	-0.0861	31.5116	26.0035	-4.2565	-0.3635	-0.5516	-0.5142	0.5469
0.64	-9.4705	-1.1191	-1.3818	-0.0708	0.0348	-0.0905	31.5982	25.6903	-3.9733	-0.3635	-0.5515	-0.5146	0.5468
0.65	-9.5279	-1.1244	-1.4162	-0.0692	0.0445	-0.0944	31.2424	25.8071	-4.0525	-0.3634	-0.5513	-0.5149	0.5465
0.66	-9.5306	-1.1231	-1.4418	-0.0657	0.0437	-0.0839	31.4971	25.7496	-4.0658	-0.3634	-0.5513	-0.5153	0.5463
0.67	-9.5546	-1.1291	-1.4570	-0.0649	0.0440	-0.0834	31.2426	25.9166	-3.9092	-0.3633	-0.5512	-0.5157	0.5461
0.68	-9.6138	-1.1416	-1.4751	-0.0601	0.0424	-0.0825	31.3570	26.1838	-4.1040	-0.3633	-0.5512	-0.5160	0.5459
0.69	-9.6111	-1.1410	-1.4800	-0.0654	0.0446	-0.0825	31.5275	26.1302	-3.9385	-0.3632	-0.5512	-0.5163	0.5457
0.7	-9.6217	-1.1522	-1.4811	-0.0715	0.0333	-0.0804	31.1132	26.0087	-4.0369	-0.3632	-0.5511	-0.5166	0.5454
0.71	-9.6559	-1.1661	-1.4821	-0.0650	0.0231	-0.0775	31.3662	25.9757	-4.0205	-0.3632	-0.5510	-0.5169	0.5453
0.72	-9.6891	-1.1767	-1.4828	-0.0600	0.0184	-0.0798	31.5163	26.1912	-3.9619	-0.3632	-0.5509	-0.5170	0.5451
0.73	-9.6691	-1.1913	-1.4832	-0.0617	0.0021	-0.0700	31.3689	26.0918	-3.8792	-0.3634	-0.5510	-0.5172	0.5450
0.74	-9.6263	-1.2055	-1.4924	-0.0572	-0.0121	-0.0595	31.3146	26.0884	-3.5780	-0.3636	-0.5509	-0.5173	0.5447
0.75	-9.5975	-1.2304	-1.5018	-0.0558	-0.0034	-0.0534	31.2626	25.9389	-3.6945	-0.3638	-0.5509	-0.5174	0.5446
0.76	-9.5813	-1.2542	-1.5063	-0.0562	-0.0171	-0.0412	31.1913	26.1886	-3.6985	-0.3641	-0.5508	-0.5174	0.5443
0.77	-9.5508	-1.2651	-1.5077	-0.0506	-0.0245	-0.0274	31.3933	26.0644	-3.7204	-0.3644	-0.5508	-0.5174	0.5442
0.78	-9.5020	-1.2684	-1.5028	-0.0412	-0.0241	-0.0135	31.3760	25.7929	-3.8206	-0.3648	-0.5509	-0.5173	0.5440
0.79	-9.4922	-1.2591	-1.5042	-0.0295	-0.0177	-0.0087	31.5090	25.6929	-3.7525	-0.3650	-0.5509	-0.5171	0.5438
0.8	-9.4839	-1.2518	-1.5043	-0.0263	-0.0184	-0.0048	31.4578	25.8421	-3.8179	-0.3654	-0.5511	-0.5170	0.5437
0.81	-9.4933	-1.2327	-1.4986	-0.0147	-0.0208	-0.0055	31.4409	25.9689	-4.0282	-0.3657	-0.5512	-0.5168	0.5435
0.82	-9.4917	-1.2063	-1.4950	-0.0018	-0.0148	-0.0048	31.4879	25.8463	-3.8965	-0.3659	-0.5514	-0.5166	0.5435
0.83	-9.4784	-1.1835	-1.4886	0.0189	-0.0098	-0.0016	31.6127	25.8966	-3.7842	-0.3659	-0.5515	-0.5163	0.5434
0.84	-9.4965	-1.1630	-1.4989	0.0250	-0.0088	-0.0004	31.3994	25.7775	-3.6644	-0.3661	-0.5518	-0.5160	0.5434
0.85	-9.5164	-1.1368	-1.5005	0.0216	-0.0114	-0.0022	31.3506	25.7636	-3.9041	-0.3663	-0.5520	-0.5157	0.5433
0.86	-9.5215	-1.1028	-1.5119	0.0316	-0.0040	-0.0001	31.3865	25.6587	-3.7731	-0.3664	-0.5522	-0.5154	0.5432
0.87	-9.5176	-1.0813	-1.5243	0.0349	-0.0100	0.0082	31.6440	25.8388	-3.8070	-0.3665	-0.5526	-0.5151	0.5432
0.88	-9.5161	-1.0656	-1.5278	0.0452	-0.0059	-0.0014	31.5957	25.8794	-3.8670	-0.3666	-0.5529	-0.5147	0.5432
0.89	-9.5403	-1.0493	-1.5321	0.0405	0.0034	0.0006	31.5139	25.9067	-3.7442	-0.3667	-0.5532	-0.5144	0.5431
0.9	-9.5653	-1.0385	-1.5353	0.0341	0.0043	-0.0039	31.6139	25.7708	-3.8772	-0.3667	-0.5534	-0.5141	0.5430
0.91	-9.5801	-1.0281	-1.5352	0.0390	0.0078	-0.0061	31.4711	25.9309	-4.0124	-0.3668	-0.5538	-0.5139	0.5430
0.92	-9.6005	-1.0202	-1.5327	0.0365	0.0007	-0.0058	31.3121	25.9489	-3.7280	-0.3669	-0.5540	-0.5136	0.5429
0.93	-9.6305	-1.0256	-1.5392	0.0238	-0.0090	-0.0187	31.4379	25.7998	-3.7463	-0.3670	-0.5542	-0.5133	0.5429
0.94	-9.6599	-1.0286	-1.5433	0.0252	-0.0075	-0.0212	31.7106	25.6820	-3.8953	-0.3670	-0.5544	-0.5130	0.5428
0.95	-9.6610	-1.0354	-1.5497	0.0233	-0.0225	-0.0146	31.2858	25.9921	-3.6308	-0.3672	-0.5546	-0.5128	0.5428
0.96	-9.6627	-1.0374	-1.5516	0.0221	-0.0311	-0.0114	31.5587	25.6651	-3.9630	-0.3673	-0.5548	-0.5125	0.5428
0.97	-9.6507	-1.0385	-1.5561	0.0224	-0.0460	-0.0117	31.5971	25.6087	-3.9611	-0.3675	-0.5548	-0.5122	0.5428
0.98	-9.6597	-1.0358	-1.5468	0.0216	-0.0476	-0.0118	31.5542	25.5960	-3.9707	-0.3678	-0.5550	-0.5119	0.5430
0.99	-9.6324	-1.0258	-1.5387	0.0178	-0.0603	-0.0199	31.6365	25.2529	-4.0939	-0.3680	-0.5550	-0.5116	0.5430
1	-9.6300	-1.0170	-1.5204	0.0171	-0.0682	-0.0237	31.6359	25.4750	-3.9622	-0.3683	-0.5550	-0.5113	0.5432
1.01	-9.6777	-1.0200	-1.5078	0.0107	-0.0709	-0.0233	31.4458	25.4157	-3.9607	-0.3685	-0.5550	-0.5109	0.5432
1.02	-9.6259	-1.0195	-1.5006	0.0065	-0.0866	-0.0212	31.5350	25.4713	-3.9564	-0.3688	-0.5549	-0.5107	0.5434
1.03	-9.6093	-1.0178	-1.4777	0.0107	-0.0871	-0.0213	31.5813	25.3792	-4.1683	-0.3692	-0.5549	-0.5103	0.5435
1.04	-9.6232	-1.0229	-1.4758	-0.0024	-0.0928	-0.0300	31.6636	25.3274	-3.9894	-0.3695	-0.5547	-0.5100	0.5436
1.05	-9.6154	-1.0208	-1.4628	-0.0075	-0.1094	-0.0255	32.3564	25.5741	-3.7259	-0.3699	-0.5547	-0.5097	0.5439
1.06	-9.6226	-1.0204	-1.4444	-0.0094	-0.0997	-0.0307	32.3027	25.5217	-3.8049	-0.3702	-0.5545	-0.5094	0.5440
1.07	-9.5955	-1.0205	-1.4354	-0.0092	-0.1077	-0.0278	31.7614	25.5060	-3.8029	-0.3706	-0.5544	-0.5091	0.5442
1.08	-9.5838	-1.0110	-1.4042	-0.0138	-0.1181	-0.0145	31.5127	25.4771	-4.1126	-0.3710	-0.5542	-0.5087	0.5443
1.09	-9.6007	-0.9977	-1.3883	-0.0302	-0.1137	-0.0176	31.5894	25.5118	-4.2766	-0.3716	-0.5540	-0.5085	0.5445
1.1	-9.5851	-1.0080	-1.3634	-0.0300	-0.1283	-0.0191	31.7520	25.4240	-4.2380	-0.3721	-0.5538	-0.5081	0.5446
1.11	-9.5809	-1.0099	-1.3508	-0.0431	-0.1257	-0.0262	31.5896	25.3516	-4.2347	-0.3726	-0.5535	-0.5079	0.5448
1.12	-9.5777	-1.0189	-1.3310	-0.0540	-0.1309	-0.0330	31.6026	25.6035	-4.3613	-0.3732	-0.5532	-0.5077	0.5449
1.13	-9.5935	-1.0245	-1.3036	-0.0493	-0.1304	-0.0330	31.7499	25.5276	-4.3165	-0.3738	-0.5529	-0.5075	0.5450
1.14	-9.5909	-1.0265	-1.2874	-0.0533	-0.1346	-0.0287	31.7916	25.4431	-4.4064	-0.3744	-0.5526	-0.5073	0.5452
1.15	-9.5605	-1.0431	-1.2764	-0.0551	-0.1395	-0.0351	31.7711	25.5187	-4.4434	-0.3749	-0.5522	-0.5070	0.5453
1.16	-9.5645	-1.0463	-1.2622	-0.0517	-0.1365	-0.0363	31.8883	25.3065	-4.4198	-0.3755	-0.5519	-0.5069	0.5455
1.17	-9.5809	-1.0462	-1.2538	-0.0564	-0.1385	-0.0323	31.8597	25.0587	-4.5919	-0.3761	-0.5515	-0.5066	0.5456
1.18	-9.5631	-1.0410	-1.2387	-0.0562	-0.1410	-0.0288	31.8675	25.2065	-4.6115	-0.3767	-0.5512	-0.5064	0.5457
1.19	-9.5529	-1.0398	-1.2200	-0.0551	-0.1363	-0.0249	31.8813	25.3153	-4.6087	-0.3773	-0.5508	-0.5062	0.5458
1.2	-9.5659	-1.0438	-1.2025	-0.0496	-0.1363	-0.0203	31.5888	25.3937	-4.6127	-0.3779	-0.5505	-0.5059	0.5460
1.21	-9.5584	-1.0399	-1.1748	-0.0516	-0.1285	-0.0240	31.6738	25.4244	-4.6322	-0.3785	-0.5503	-0.5057	0.5461
1.22	-9.5521	-1.0293	-1.1616	-0.0470	-0.1297	-0.0243	31.6783	25.5163	-4.9254	-0.3790	-0.5499	-0.5054	0.5462
1.23	-9.5557	-1.0262	-1.1358	-0.0459	-0.1363	-0.0232	31.8247	25.3216	-4.7480	-0.3797	-0.5497	-0.5052	0.5464
1.24	-9.5647	-1.0254	-1.1131	-0.0487	-0.1389	-0.0225	31.9931	25.3379	-4.8702	-0.3802	-0.5493	-0.5049	0.5465
1.25	-9.5677	-1.0208	-1.0937	-0.0426	-0.1286	-0.0280	31.6942	25.4050	-4.8296	-0.3808	-0.5491	-0.5048	0.5467
1.26	-9.5582	-1.0181	-1.0611	-0.0413	-0.1298	-0.0363	31.5977	25.3767	-4.7793	-0.3813	-0.5487	-0.5045	0.5468
1.27	-9.5480	-1.0187	-1.0513	-0.0360	-0.1250	-0.0348	31.5979	25.3782	-4.8088	-0.3817	-0.5484	-0.5043	0.5470
1.28	-9.5379	-1.0133	-1.0352	-0.0271	-0.1270	-0.0366	31.7934	25.2373	-4.9823	-0.3821	-0.5481	-0.5041	0.5473
1.29	-9.5192	-1.0001	-1.0136	-0.0301	-0.1207	-0.0347	31.6972	25.4221	-4.9074	-0.3825	-0.5477	-0.5039	0.5475
1.3	-9.4976	-1.0000	-0.9988	-0.0291	-0.1080	-0.0464	31.5908	25.2430	-4.7740	-0.3829	-0.5474	-0.5038	0.5478
1.31	-9.4851	-0.9943	-0.9802	-0.0248	-0.1038	-0.0432	31.7296	25.2444	-4.9470	-0.3832	-0.5471	-0.5036	0.5479
1.32	-9.4853	-0.9969	-0.9696	-0.0278	-0.0918	-0.0379	31.6524	25.3058	-5.0405	-0.3835	-0.5469	-0.5035	0.5481
1.33	-9.4634	-0.9924	-0.9598	-0.0258	-0.0851	-0.0423	31.8038	25.3121	-5.1783	-0.3837	-0.5466	-0.5033	0.5482
1.34	-9.4514	-0.9858	-0.9601	-0.0162	-0.0703	-0.0450	31.7437	25.1322	-5.1536	-0.3840	-0.5464	-0.5033	0.5484
1.35	-9.4716	-0.9820	-0.9484	-0.0176	-0.0639	-0.0446	31.8608	25.0284	-5.1613	-0.3841	-0.5462	-0.5032	0.5485
1.36	-9.4915	-0.9828	-0.9480	-0.0137	-0.0501	-0.0438	32.0845	25.2396	-5.1480	-0.3843	-0.5461	-0.5031	0.5486
1.37	-9.5134	-0.9783	-0.9503	-0.0199	-0.0452	-0.0456	31.9317	25.1073	-5.2656	-0.3844	-0.5460	-0.5031	0.5487
1.38	-9.5527	-0.9829	-0.9577	-0.0085	-0.0307	-0.0436	31.5635	25.1024	-5.2403	-0.3845	-0.5459	-0.5030	0.5487
1.39	-9.5825	-0.9782	-0.9674	-0.0072	-0.0301	-0.0362	31.7123	25.1850	-5.2935	-0.3846	-0.5459	-0.5030	0.5488
1.4	-9.6018	-0.9661	-0.9623	-0.0124	-0.0310	-0.0393	31.9011	25.2072	-5.4781	-0.3847	-0.5457	-0.5028	0.5488
1.41	-9.6377	-0.9622	-0.9601	-0.0086	-0.0329	-0.0379	31.8348	25.2221	-5.2757	-0.3849	-0.5458	-0.5028	0.5489
1.42	-9.6491	-0.9625	-0.9636	-0.0092	-0.0396	-0.0366	31.5990	24.9873	-5.1344	-0.3850	-0.5457	-0.5027	0.5489
1.43	-9.6413	-0.9636	-0.9625	-0.0171	-0.0403	-0.0351	31.8806	24.9770	-5.4047	-0.3851	-0.5456	-0.5027	0.5490
1.44	-9.6272	-0.9584	-0.9613	-0.0210	-0.0391	-0.0380	31.7607	25.1583	-5.1021	-0.3853	-0.5455	-0.5026	0.5490
1.45	-9.6191	-0.9545	-0.9616	-0.0204	-0.0444	-0.0374	31.6768	25.0891	-5.0966	-0.3854	-0.5454	-0.5025	0.5490
1.46	-9.6146	-0.9539	-0.9581	-0.0235	-0.0384	-0.0377	31.8724	25.1733	-5.1725	-0.3857	-0.5454	-0.5024	0.5490
1.47	-9.5920	-0.9520	-0.9577	-0.0305	-0.0399	-0.0398	31.8618	25.3006	-5.2240	-0.3859	-0.5453	-0.5023	0.5489
1.48	-9.5831	-0.9525	-0.9556	-0.0231	-0.0366	-0.0370	31.8718	25.2916	-5.3955	-0.3862	-0.5453	-0.5023	0.5489
1.49	-9.5910	-0.9444	-0.9518	-0.0238	-0.0335	-0.0415	31.8575	25.3030	-5.2854	-0.3863	-0.5452	-0.5022	0.5488
1.5	-9.6201	-0.9313	-0.9453	-0.0220	-0.0329	-0.0420	31.6470	25.2480	-5.2378	-0.3866	-0.5453	-0.5022	0.5488
1.51	-9.6130	-0.9299	-0.9469	-0.0105	-0.0389	-0.0356	31.9025	25.0796	-5.3366	-0.3867	-0.5452	-0.5020	0.5488
1.52	-9.6009	-0.9352	-0.9370	-0.0097	-0.0372	-0.0376	31.8172	25.1659	-5.4940	-0.3869	-0.5452	-0.5019	0.5488
1.53	-9.6017	-0.9249	-0.9344	-0.0111	-0.0376	-0.0342	31.8016	25.1864	-5.3192	-0.3871	-0.5452	-0.5018	0.5488
1.54	-9.5792	-0.9200	-0.9246	-0.0198	-0.0382	-0.0399	31.9928	25.0040	-5.1463	-0.3872	-0.5451	-0.5017	0.5488
1.55	-9.5616	-0.9188	-0.9164	-0.0176	-0.0439	-0.0412	32.5186	25.1512	-5.1392	-0.3874	-0.5451	-0.5016	0.5489
1.56	-9.5559	-0.9168	-0.9088	-0.0132	-0.0426	-0.0415	32.5223	25.1123	-5.2126	-0.3874	-0.5450	-0.5015	0.5490
1.57	-9.5461	-0.9172	-0.9046	-0.0168	-0.0362	-0.0470	32.0610	25.1684	-5.4389	-0.3875	-0.5450	-0.5015	0.5491
1.58	-9.5255	-0.9113	-0.8968	-0.0206	-0.0365	-0.0458	31.8655	25.0698	-5.3302	-0.3876	-0.5448	-0.5014	0.5491
1.59	-9.5181	-0.9080	-0.8843	-0.0189	-0.0242	-0.0485	31.7678	25.0030	-5.5881	-0.3877	-0.5447	-0.5014	0.5491
1.6	-9.4942	-0.9133	-0.8911	-0.0236	-0.0192	-0.0550	31.6932	24.9548	-5.5971	-0.3878	-0.5446	-0.5014	0.5491
1.61	-9.4917	-0.9082	-0.8966	-0.0247	-0.0141	-0.0506	31.6316	24.8448	-5.6287	-0.3878	-0.5446	-0.5015	0.5491
1.62	-9.5041	-0.9132	-0.9042	-0.0232	-0.0050	-0.0482	31.6528	25.1493	-5.3870	-0.3879	-0.5446	-0.5015	0.5491
1.63	-9.5001	-0.9223	-0.9190	-0.0301	0.0193	-0.0552	31.8117	24.9942	-5.3167	-0.3879	-0.5445	-0.5017	0.5490
1.64	-9.4986	-0.9240	-0.9283	-0.0258	0.0217	-0.0514	31.9996	25.0805	-5.3209	-0.3879	-0.5446	-0.5018	0.5489
1.65	-9.5233	-0.9327	-0.9293	-0.0309	0.0346	-0.0566	31.6992	24.9759	-5.4129	-0.3878	-0.5445	-0.5019	0.5487
1.66	-9.5623	-0.9421	-0.9333	-0.0268	0.0381	-0.0571	31.7793	25.1378	-5.4336	-0.3877	-0.5447	-0.5021	0.5486
1.67	-9.5610	-0.9500	-0.9434	-0.0239	0.0333	-0.0578	31.8251	25.2809	-5.5764	-0.3876	-0.5447	-0.5023	0.5484
1.68	-9.5724	-0.9411	-0.9391	-0.0261	0.0399	-0.0574	31.6325	25.2831	-5.3624	-0.3876	-0.5448	-0.5025	0.5483
1.69	-9.5897	-0.9345	-0.9498	-0.0295	0.0437	-0.0558	31.6660	24.9491	-5.2121	-0.3875	-0.5448	-0.5026	0.5481
1.7	-9.5870	-0.9281	-0.9564	-0.0290	0.0406	-0.0539	31.7546	25.0530	-5.2501	-0.3874	-0.5449	-0.5028	0.5479
1.71	-9.5578	-0.9182	-0.9626	-0.0286	0.0394	-0.0549	31.7543	25.0233	-5.4305	-0.3874	-0.5450	-0.5029	0.5478
1.72	-9.5613	-0.9172	-0.9702	-0.0235	0.0445	-0.0594	32.0397	25.0621	-5.3369	-0.3872	-0.5450	-0.5030	0.5476
1.73	-9.6024	-0.9261	-0.9743	-0.0276	0.0488	-0.0629	31.8777	24.9901	-5.2136	-0.3872	-0.5452	-0.5033	0.5475
1.74	-9.6134	-0.9318	-0.9874	-0.0296	0.0510	-0.0666	31.8361	25.0103	-5.4022	-0.3870	-0.5452	-0.5034	0.5473
1.75	-9.5802	-0.9365	-1.0001	-0.0296	0.0471	-0.0638	32.0259	24.9149	-5.4351	-0.3869	-0.5453	-0.5037	0.5471
1.76	-9.5824	-0.9357	-1.0090	-0.0291	0.0537	-0.0652	31.9990	24.9888	-5.3183	-0.3868	-0.5453	-0.5038	0.5469
1.77	-9.6158	-0.9326	-1.0230	-0.0300	0.0521	-0.0583	31.8981	24.9995	-5.2046	-0.3867	-0.5455	-0.5040	0.5467
1.78	-9.6132	-0.9302	-1.0271	-0.0312	0.0499	-0.0641	31.7502	24.9968	-5.0717	-0.3866	-0.5456	-0.5042	0.5465
1.79	-9.6144	-0.9225	-1.0240	-0.0292	0.0519	-0.0629	31.7420	24.9801	-5.0373	-0.3865	-0.5457	-0.5043	0.5462
1.8	-9.6501	-0.9241	-1.0282	-0.0294	0.0522	-0.0673	31.7334	25.1114	-5.0633	-0.3865	-0.5459	-0.5046	0.5461
1.81	-9.6930	-0.9297	-1.0324	-0.0286	0.0475	-0.0603	31.6299	25.1918	-5.1979	-0.3864	-0.5460	-0.5046	0.5458
1.82	-9.7102	-0.9355	-1.0298	-0.0322	0.0354	-0.0596	31.6658	25.3688	-5.2853	-0.3864	-0.5461	-0.5048	0.5456
1.83	-9.6757	-0.9324	-1.0406	-0.0272	0.0294	-0.0586	31.6545	25.2296	-5.1174	-0.3864	-0.5461	-0.5048	0.5454
1.84	-9.6470	-0.9350	-1.0368	-0.0267	0.0280	-0.0638	31.5288	25.3031	-5.1926	-0.3864	-0.5463	-0.5050	0.5453
1.85	-9.6498	-0.9533	-1.0443	-0.0290	0.0244	-0.0641	31.6388	25.3073	-5.2456	-0.3864	-0.5463	-0.5051	0.5451
1.86	-9.6284	-0.9601	-1.0599	-0.0243	0.0204	-0.0564	31.9352	25.2402	-5.2727	-0.3864	-0.5464	-0.5051	0.5449
1.87	-9.5850	-0.9611	-1.0588	-0.0250	0.0205	-0.0566	31.9227	25.2606	-5.0032	-0.3865	-0.5465	-0.5052	0.5448
1.88	-9.5559	-0.9511	-1.0593	-0.0159	0.0129	-0.0593	31.7814	25.1548	-4.8569	-0.3864	-0.5465	-0.5053	0.5447
1.89	-9.5548	-0.9279	-1.0616	-0.0067	0.0256	-0.0648	31.6908	25.1397	-5.0510	-0.3863	-0.5466	-0.5054	0.5447
1.9	-9.5625	-0.9225	-1.0644	-0.0045	0.0274	-0.0634	31.5838	24.9706	-5.1370	-0.3861	-0.5466	-0.5054	0.5446
1.91	-9.5554	-0.9260	-1.0719	-0.0024	0.0293	-0.0714	32.0707	24.8998	-5.2526	-0.3860	-0.5467	-0.5056	0.5446
1.92	-9.5816	-0.9244	-1.0673	-0.0033	0.0314	-0.0770	32.0005	25.0822	-5.0592	-0.3859	-0.5467	-0.5056	0.5445
1.93	-9.6012	-0.9287	-1.0701	-0.0020	0.0377	-0.0832	31.9037	25.0325	-5.0471	-0.3857	-0.5468	-0.5058	0.5445
1.94	-9.5833	-0.9163	-1.0773	0.0027	0.0386	-0.0815	31.9018	24.8715	-5.0526	-0.3855	-0.5469	-0.5058	0.5444
1.95	-9.5849	-0.9119	-1.0918	0.0005	0.0269	-0.0839	31.7374	25.0751	-5.0433	-0.3854	-0.5470	-0.5059	0.5443
1.96	-9.5634	-0.8989	-1.0973	-0.0041	0.0310	-0.0858	31.8347	25.2311	-5.0790	-0.3853	-0.5471	-0.5061	0.5443
1.97	-9.5342	-0.8967	-1.1124	0.0006	0.0298	-0.0907	31.6012	25.0451	-4.9553	-0.3850	-0.5470	-0.5062	0.5442
1.98	-9.5073	-0.9025	-1.1243	-0.0048	0.0347	-0.0974	31.8875	25.1283	-4.9700	-0.3848	-0.5471	-0.5064	0.5443
1.99	-9.4817	-0.9077	-1.1344	-0.0078	0.0386	-0.1024	31.7957	25.2980	-5.0903	-0.3845	-0.5470	-0.5066	0.5443
2	-9.4827	-0.9100	-1.1494	-0.0178	0.0419	-0.1056	31.6396	25.2364	-4.7564	-0.3843	-0.5471	-0.5069	0.5443
2.01	-9.5139	-0.9278	-1.1494	-0.0283	0.0542	-0.1078	31.7652	25.3574	-4.8928	-0.3840	-0.5470	-0.5071	0.5441
2.02	-9.5328	-0.9393	-1.1569	-0.0274	0.0560	-0.1078	31.7022	25.2380	-4.9693	-0.3838	-0.5470	-0.5075	0.5440
2.03	-9.5451	-0.9596	-1.1618	-0.0325	0.0624	-0.1076	31.4803	25.4439	-5.0055	-0.3835	-0.5470	-0.5078	0.5439
2.04	-9.5635	-0.9783	-1.1796	-0.0330	0.0631	-0.1096	31.8038	25.4133	-4.7496	-0.3833	-0.5469	-0.5082	0.5438
2.05	-9.5547	-0.9842	-1.1943	-0.0316	0.0672	-0.1086	32.0886	25.5705	-4.4203	-0.3830	-0.5470	-0.5086	0.5437
2.06	-9.5569	-0.9905	-1.2103	-0.0281	0.0690	-0.1070	31.9131	25.4688	-4.6254	-0.3827	-0.5470	-0.5089	0.5435
2.07	-9.5553	-1.0026	-1.2163	-0.0393	0.0676	-0.1105	31.7943	25.3806	-4.7290	-0.3825	-0.5470	-0.5093	0.5434
2.08	-9.5174	-1.0023	-1.2101	-0.0399	0.0580	-0.1073	31.4370	25.3748	-4.6544	-0.3822	-0.5469	-0.5096	0.5432
2.09	-9.5950	-1.0101	-1.2183	-0.0426	0.0616	-0.1089	31.4339	25.4466	-4.8527	-0.3820	-0.5469	-0.5100	0.5431
2.1	-9.5901	-1.0235	-1.2330	-0.0447	0.0571	-0.1160	31.9996	25.4372	-4.6082	-0.3818	-0.5469	-0.5103	0.5428
2.11	-9.5798	-1.0331	-1.2171	-0.0433	0.0568	-0.1087	31.6649	25.3716	-4.6844	-0.3817	-0.5469	-0.5106	0.5426
2.12	-9.6069	-1.0450	-1.2322	-0.0473	0.0633	-0.1173	31.7104	25.3819	-4.9484	-0.3815	-0.5469	-0.5110	0.5425
2.13	-9.6020	-1.0682	-1.2264	-0.0543	0.0594	-0.1199	31.6845	25.4209	-4.7128	-0.3813	-0.5468	-0.5114	0.5422
2.14	-9.6061	-1.0812	-1.2409	-0.0452	0.0624	-0.1169	31.7080	25.4862	-4.7943	-0.3811	-0.5469	-0.5118	0.5421
2.15	-9.5923	-1.0985	-1.2375	-0.0367	0.0585	-0.1190	31.6815	25.5461	-4.7536	-0.3809	-0.5468	-0.5121	0.5418
2.16	-9.6105	-1.1149	-1.2447	-0.0281	0.0591	-0.1198	31.7172	25.5789	-4.4631	-0.3807	-0.5469	-0.5125	0.5417
2.17	-9.6073	-1.1196	-1.2431	-0.0298	0.0583	-0.1260	31.6545	25.5547	-4.6261	-0.3804	-0.5468	-0.5128	0.5416
2.18	-9.6021	-1.1413	-1.2530	-0.0277	0.0568	-0.1259	31.5382	25.5642	-4.5713	-0.3802	-0.5468	-0.5131	0.5415
2.19	-9.5453	-1.1553	-1.2689	-0.0276	0.0570	-0.1234	31.3982	25.6432	-4.4266	-0.3799	-0.5468	-0.5134	0.5413
2.2	-9.5836	-1.1519	-1.2632	-0.0293	0.0563	-0.1296	31.4845	25.6842	-4.3253	-0.3796	-0.5468	-0.5138	0.5412
2.21	-9.6146	-1.1670	-1.2726	-0.0236	0.0567	-0.1281	31.6860	25.9636	-4.2208	-0.3794	-0.5468	-0.5141	0.5411
2.22	-9.6104	-1.1711	-1.2774	-0.0253	0.0521	-0.1241	31.4750	25.7930	-4.3886	-0.3791	-0.5467	-0.5144	0.5410
2.23	-9.6043	-1.1714	-1.2764	-0.0107	0.0478	-0.1241	31.5738	25.9738	-4.3251	-0.3789	-0.5468	-0.5147	0.5410
2.24	-9.6260	-1.1840	-1.2828	-0.0209	0.0441	-0.1182	31.4320	25.9628	-4.1358	-0.3786	-0.5467	-0.5150	0.5409
2.25	-9.6133	-1.1887	-1.2992	-0.0130	0.0422	-0.1090	31.5189	25.6761	-4.4714	-0.3784	-0.5468	-0.5152	0.5408
2.26	-9.5866	-1.1854	-1.2976	-0.0161	0.0292	-0.1078	31.4976	25.9630	-4.3547	-0.3782	-0.5467	-0.5154	0.5407
2.27	-9.6051	-1.1891	-1.3075	-0.0234	0.0276	-0.1089	31.4707	25.7518	-4.3576	-0.3781	-0.5467	-0.5156	0.5407
2.28	-9.6113	-1.1922	-1.3099	-0.0241	0.0179	-0.1012	31.6571	25.9684	-4.1708	-0.3780	-0.5466	-0.5158	0.5406
2.29	-9.6075	-1.1941	-1.3162	-0.0203	0.0221	-0.0950	31.5944	26.0114	-4.2513	-0.3779	-0.5466	-0.5159	0.5405
2.3	-9.6228	-1.1973	-1.3133	-0.0284	0.0178	-0.0905	31.7026	26.0224	-4.3898	-0.3778	-0.5466	-0.5162	0.5405
2.31	-9.6631	-1.1964	-1.3155	-0.0296	0.0154	-0.0793	31.4728	25.8096	-4.4933	-0.3778	-0.5465	-0.5163	0.5404
2.32	-9.6602	-1.2018	-1.3155	-0.0293	-0.0077	-0.0785	31.7629	25.9646	-4.5994	-0.3779	-0.5465	-0.5164	0.5404
2.33	-9.6581	-1.2018	-1.3083	-0.0309	-0.0091	-0.0791	31.4953	26.0179	-4.3367	-0.3779	-0.5464	-0.5164	0.5403
2.34	-9.6587	-1.2025	-1.3061	-0.0324	-0.0169	-0.0749	31.5323	25.9037	-4.3851	-0.3780	-0.5463	-0.5165	0.5403
2.35	-9.6460	-1.2049	-1.3032	-0.0357	-0.0247	-0.0674	31.5178	26.2213	-4.5006	-0.3781	-0.5462	-0.5166	0.5403
2.36	-9.6235	-1.2047	-1.3035	-0.0340	-0.0365	-0.0649	31.5304	26.0951	-4.3766	-0.3782	-0.5461	-0.5166	0.5402
2.37	-9.5801	-1.2051	-1.2957	-0.0335	-0.0386	-0.0655	31.5133	25.9897	-4.2492	-0.3784	-0.5460	-0.5166	0.5403
2.38	-9.5444	-1.2158	-1.2943	-0.0429	-0.0340	-0.0610	31.5381	26.0221	-4.4396	-0.3786	-0.5458	-0.5166	0.5402
2.39	-9.5286	-1.2294	-1.2923	-0.0575	-0.0335	-0.0683	31.2598	26.1725	-4.4291	-0.3788	-0.5457	-0.5167	0.5402
2.4	-9.5085	-1.2265	-1.2929	-0.0498	-0.0369	-0.0672	31.3346	26.1828	-4.2435	-0.3790	-0.5454	-0.5167	0.5401
2.41	-9.4940	-1.2327	-1.2903	-0.0381	-0.0267	-0.0634	31.4541	26.1718	-4.3096	-0.3791	-0.5453	-0.5168	0.5402
2.42	-9.5142	-1.2527	-1.2860	-0.0429	-0.0237	-0.0666	31.4441	26.3453	-4.3888	-0.3793	-0.5452	-0.5169	0.5401
2.43	-9.5104	-1.2558	-1.2831	-0.0382	-0.0262	-0.0642	31.3633	26.0762	-4.3604	-0.3794	-0.5451	-0.5169	0.5401
2.44	-9.5051	-1.2534	-1.2757	-0.0403	-0.0189	-0.0608	31.3352	26.1192	-4.3780	-0.3796	-0.5450	-0.5169	0.5400
2.45	-9.5122	-1.2617	-1.2776	-0.0337	-0.0243	-0.0675	31.3447	26.1448	-4.0982	-0.3797	-0.5449	-0.5170	0.5400
2.46	-9.5033	-1.2648	-1.2765	-0.0278	-0.0246	-0.0596	31.3781	26.1132	-4.3224	-0.3798	-0.5449	-0.5170	0.5400
2.47	-9.5185	-1.2616	-1.2689	-0.0294	-0.0148	-0.0629	31.5472	25.9068	-4.4638	-0.3799	-0.5447	-0.5170	0.5399
2.48	-9.5657	-1.2592	-1.2713	-0.0286	-0.0129	-0.0595	31.4944	25.8476	-4.3566	-0.3800	-0.5448	-0.5171	0.5399
2.49	-9.5628	-1.2523	-1.2755	-0.0283	-0.0154	-0.0598	31.5815	26.1833	-4.3449	-0.3801	-0.5447	-0.5171	0.5399
2.5	-9.5729	-1.2524	-1.2704	-0.0287	-0.0104	-0.0607	31.5931	25.9966	-4.4451	-0.3802	-0.5447	-0.5172	0.5398
2.51	-9.5805	-1.2497	-1.2775	-0.0291	-0.0225	-0.0636	31.2891	25.9794	-4.5357	-0.3803	-0.5445	-0.5171	0.5398
2.52	-9.5656	-1.2422	-1.2750	-0.0256	-0.0229	-0.0491	31.5177	26.1720	-4.4870	-0.3805	-0.5445	-0.5171	0.5398
2.53	-9.5831	-1.2421	-1.2702	-0.0257	-0.0251	-0.0518	31.4715	26.0990	-4.5287	-0.3806	-0.5445	-0.5171	0.5398
2.54	-9.5867	-1.2480	-1.2654	-0.0286	-0.0171	-0.0520	31.4443	26.1801	-4.3721	-0.3807	-0.5444	-0.5170	0.5397
2.55	-9.5742	-1.2425	-1.2592	-0.0295	-0.0291	-0.0426	31.9997	26.1517	-4.2334	-0.3809	-0.5444	-0.5171	0.5397
2.56	-9.5793	-1.2456	-1.2573	-0.0263	-0.0269	-0.0449	32.0321	26.0123	-4.0614	-0.3810	-0.5444	-0.5169	0.5397
2.57	-9.5721	-1.2463	-1.2576	-0.0241	-0.0242	-0.0489	31.6601	26.2860	-4.3477	-0.3812	-0.5444	-0.5169	0.5397
2.58	-9.5614	-1.2410	-1.2528	-0.0246	-0.0335	-0.0447	31.3922	25.9259	-4.4571	-0.3813	-0.5442	-0.5168	0.5396
2.59	-9.5540	-1.2444	-1.2479	-0.0214	-0.0292	-0.0459	31.4535	26.0982	-4.4119	-0.3815	-0.5442	-0.5168	0.5396
2.6	-9.5365	-1.2494	-1.2496	-0.0144	-0.0318	-0.0410	31.2894	25.9756	-4.2788	-0.3816	-0.5442	-0.5167	0.5396
2.61	-9.5337	-1.2442	-1.2407	-0.0197	-0.0277	-0.0412	31.3921	26.2109	-4.4387	-0.3818	-0.5442	-0.5166	0.5396
2.62	-9.5394	-1.2420	-1.2400	-0.0133	-0.0201	-0.0344	31.2586	26.1232	-4.4154	-0.3819	-0.5442	-0.5165	0.5396
2.63	-9.5381	-1.2306	-1.2371	-0.0022	-0.0250	-0.0330	31.3763	25.9797	-4.3033	-0.3820	-0.5442	-0.5164	0.5396
2.64	-9.5408	-1.2297	-1.2405	-0.0069	-0.0241	-0.0390	31.4665	26.1353	-4.3500	-0.3822	-0.5443	-0.5163	0.5396
2.65	-9.5249	-1.2241	-1.2307	-0.0033	-0.0232	-0.0338	31.3153	26.0385	-4.3058	-0.3823	-0.5442	-0.5161	0.5396
2.66	-9.5306	-1.2183	-1.2264	-0.0030	-0.0188	-0.0320	31.5560	25.8225	-4.4681	-0.3824	-0.5444	-0.5161	0.5396
2.67	-9.5433	-1.2086	-1.2265	-0.0046	-0.0203	-0.0340	31.5063	25.8732	-4.6728	-0.3825	-0.5444	-0.5159	0.5396
2.68	-9.5465	-1.1891	-1.2255	-0.0009	-0.0171	-0.0386	31.4533	25.8498	-4.4439	-0.3826	-0.5445	-0.5158	0.5396
2.69	-9.5148	-1.1826	-1.2275	0.0034	-0.0245	-0.0333	31.5632	25.8669	-4.2906	-0.3826	-0.5444	-0.5157	0.5396
2.7	-9.5268	-1.1820	-1.2226	0.0099	-0.0229	-0.0322	31.4584	25.8519	-4.4928	-0.3827	-0.5445	-0.5155	0.5397
2.71	-9.5627	-1.1700	-1.2304	-0.0016	-0.0098	-0.0334	31.6376	25.8697	-4.2854	-0.3828	-0.5446	-0.5154	0.5397
2.72	-9.5784	-1.1662	-1.2237	0.0004	-0.0134	-0.0377	31.3513	25.8393	-4.5262	-0.3828	-0.5446	-0.5153	0.5397
2.73	-9.5717	-1.1696	-1.2296	0.0027	-0.0172	-0.0408	31.4090	25.9808	-4.4788	-0.3829	-0.5447	-0.5152	0.5398
2.74	-9.5559	-1.1680	-1.2327	-0.0053	-0.0158	-0.0347	31.4773	25.9060	-4.4487	-0.3830	-0.5447	-0.5151	0.5397
2.75	-9.5884	-1.1589	-1.2330	0.0010	-0.0068	-0.0365	31.2558	26.0522	-4.5249	-0.3831	-0.5448	-0.5150	0.5397
2.76	-9.6118	-1.1543	-1.2383	-0.0019	-0.0061	-0.0342	31.4201	25.9115	-4.6080	-0.3831	-0.5449	-0.5149	0.5396
2.77	-9.6028	-1.1503	-1.2303	-0.0041	-0.0153	-0.0374	31.2083	26.1216	-4.7056	-0.3832	-0.5449	-0.5148	0.5397
2.78	-9.5922	-1.1530	-1.2283	-0.0058	-0.0185	-0.0428	31.2777	26.1961	-4.3715	-0.3832	-0.5450	-0.5147	0.5397
2.79	-9.6299	-1.1603	-1.2274	-0.0086	-0.0227	-0.0425	31.2200	26.0663	-4.5380	-0.3833	-0.5449	-0.5146	0.5397
2.8	-9.6460	-1.1625	-1.2272	-0.0113	-0.0363	-0.0422	31.2033	26.2631	-4.4989	-0.3835	-0.5450	-0.5145	0.5398
2.81	-9.6271	-1.1675	-1.2285	-0.0053	-0.0442	-0.0327	31.3342	26.1409	-4.5617	-0.3836	-0.5449	-0.5143	0.5398
2.82	-9.5445	-1.1644	-1.2147	-0.0049	-0.0439	-0.0337	31.2365	25.9067	-4.6269	-0.3838	-0.5449	-0.5142	0.5399
2.83	-9.5751	-1.1494	-1.1948	-0.0068	-0.0384	-0.0322	31.0719	26.0685	-4.5934	-0.3839	-0.5448	-0.5140	0.5399
2.84	-9.5862	-1.1600	-1.2227	-0.0120	-0.0466	-0.0343	31.3983	25.7554	-4.6147	-0.3841	-0.5449	-0.5139	0.5400
2.85	-9.5629	-1.1599	-1.2013	-0.0095	-0.0405	-0.0284	31.4622	25.6833	-4.5804	-0.3843	-0.5448	-0.5137	0.5400
2.86	-9.5767	-1.1588	-1.2117	-0.0047	-0.0357	-0.0200	31.5587	25.5935	-4.6190	-0.3845	-0.5448	-0.5135	0.5400
2.87	-9.5638	-1.1559	-1.2090	-0.0059	-0.0408	-0.0220	31.5345	25.7040	-4.5582	-0.3847	-0.5449	-0.5134	0.5401
2.88	-9.6034	-1.1315	-1.2026	-0.0037	-0.0397	-0.0246	31.4924	25.6353	-4.6790	-0.3848	-0.5448	-0.5132	0.5401
2.89	-9.5999	-1.1296	-1.1992	-0.0012	-0.0455	-0.0344	31.3286	25.6157	-4.8193	-0.3850	-0.5449	-0.5130	0.5402
2.9	-9.5857	-1.1412	-1.1902	-0.0005	-0.0431	-0.0314	31.3436	25.7949	-4.7686	-0.3851	-0.5448	-0.5128	0.5402
2.91	-9.5798	-1.1375	-1.1865	0.0078	-0.0503	-0.0329	31.6125	25.7523	-4.7863	-0.3853	-0.5448	-0.5126	0.5404
2.92	-9.5510	-1.1236	-1.1823	0.0111	-0.0506	-0.0323	31.5410	25.6337	-4.7938	-0.3854	-0.5448	-0.5124	0.5405
2.93	-9.5391	-1.1085	-1.1725	0.0185	-0.0468	-0.0332	31.5118	25.7862	-4.7082	-0.3855	-0.5448	-0.5121	0.5406
2.94	-9.5341	-1.0995	-1.1674	0.0094	-0.0474	-0.0345	31.4262	25.7351	-4.6810	-0.3856	-0.5448	-0.5119	0.5407
2.95	-9.5353	-1.0868	-1.1518	0.0099	-0.0461	-0.0343	31.5273	25.8461	-4.6982	-0.3857	-0.5447	-0.5118	0.5409
2.96	-9.5393	-1.0733	-1.1464	0.0060	-0.0471	-0.0340	31.3345	25.9462	-4.6971	-0.3858	-0.5447	-0.5116	0.5411
2.97	-9.5306	-1.0606	-1.1357	0.0000	-0.0434	-0.0390	31.2651	25.7260	-4.6867	-0.3859	-0.5446	-0.5114	0.5411
2.98	-9.5352	-1.0622	-1.1377	0.0058	-0.0366	-0.0420	31.4034	25.7937	-4.7052	-0.3860	-0.5446	-0.5113	0.5413
2.99	-9.5237	-1.0574	-1.1341	0.0026	-0.0280	-0.0471	31.2337	25.8999	-4.6696	-0.3860	-0.5446	-0.5112	0.5414
3	-9.5257	-1.0429	-1.1320	-0.0003	-0.0297	-0.0461	31.3883	25.9840	-4.7837	-0.3861	-0.5446	-0.5112	0.5415
3.01	-9.5351	-1.0459	-1.1359	-0.0040	-0.0277	-0.0405	31.3819	25.8301	-4.7795	-0.3861	-0.5445	-0.5110	0.5415
3.02	-9.5475	-1.0557	-1.1266	-0.0159	-0.0204	-0.0428	31.2534	25.6459	-4.8074	-0.3862	-0.5445	-0.5110	0.5416
3.03	-9.5529	-1.0548	-1.1270	-0.0225	-0.0198	-0.0495	31.3542	25.6943	-4.9061	-0.3863	-0.5445	-0.5109	0.5416
3.04	-9.5698	-1.0585	-1.1293	-0.0150	-0.0181	-0.0466	31.7942	25.6711	-4.8011	-0.3863	-0.5444	-0.5109	0.5415
3.05	-9.5612	-1.0586	-1.1391	-0.0247	-0.0165	-0.0560	32.0809	25.6983	-4.6334	-0.3865	-0.5444	-0.5109	0.5416
3.06	-9.5232	-1.0574	-1.1181	-0.0299	-0.0070	-0.0544	31.8987	25.6737	-4.7846	-0.3865	-0.5443	-0.5109	0.5415
3.07	-9.6166	-1.0720	-1.1259	-0.0281	-0.0171	-0.0636	31.6733	25.8106	-4.9412	-0.3866	-0.5443	-0.5110	0.5416
3.08	-9.6007	-1.0865	-1.1369	-0.0314	-0.0278	-0.0679	31.4154	25.7135	-4.8544	-0.3866	-0.5441	-0.5110	0.5415
3.09	-9.5312	-1.0840	-1.1159	-0.0288	-0.0235	-0.0628	31.3153	25.9076	-4.9320	-0.3867	-0.5440	-0.5111	0.5416
3.1	-9.5567	-1.1064	-1.1263	-0.0403	-0.0226	-0.0711	31.6792	25.6586	-4.9487	-0.3868	-0.5439	-0.5111	0.5416
3.11	-9.5550	-1.1350	-1.1254	-0.0376	-0.0151	-0.0681	31.5159	25.7710	-5.0540	-0.3868	-0.5437	-0.5112	0.5416
3.12	-9.5362	-1.1517	-1.1272	-0.0380	-0.0140	-0.0575	31.6293	25.9383	-4.8791	-0.3869	-0.5437	-0.5113	0.5416
3.13	-9.5423	-1.1616	-1.1318	-0.0342	-0.0073	-0.0552	31.5047	25.7691	-4.8229	-0.3870	-0.5436	-0.5113	0.5415
3.14	-9.5724	-1.1561	-1.1269	-0.0281	-0.0074	-0.0594	31.5508	25.6476	-4.8061	-0.3871	-0.5436	-0.5114	0.5415
3.15	-9.5886	-1.1550	-1.1339	-0.0292	-0.0073	-0.0649	31.4488	25.7173	-4.9187	-0.3871	-0.5435	-0.5114	0.5414
3.16	-9.5740	-1.1767	-1.1368	-0.0291	-0.0088	-0.0669	31.4154	25.8355	-4.9187	-0.3872	-0.5435	-0.5115	0.5414
3.17	-9.5814	-1.1900	-1.1443	-0.0263	-0.0069	-0.0704	31.3458	25.8339	-4.7544	-0.3872	-0.5434	-0.5115	0.5414
3.18	-9.5938	-1.1827	-1.1408	-0.0285	-0.0117	-0.0670	31.3388	26.0049	-4.7196	-0.3872	-0.5433	-0.5116	0.5414
3.19	-9.5998	-1.1791	-1.1379	-0.0284	-0.0126	-0.0596	31.4735	25.9999	-4.8527	-0.3873	-0.5433	-0.5116	0.5414
3.2	-9.6126	-1.1804	-1.1316	-0.0292	-0.0198	-0.0590	31.5154	25.7278	-4.6711	-0.3874	-0.5432	-0.5117	0.5414
3.21	-9.6103	-1.1790	-1.1343	-0.0228	-0.0269	-0.0530	31.4323	25.7679	-4.8547	-0.3875	-0.5431	-0.5117	0.5414
3.22	-9.5940	-1.1739	-1.1305	-0.0168	-0.0259	-0.0523	31.7508	25.5981	-5.0251	-0.3875	-0.5430	-0.5116	0.5414
3.23	-9.5855	-1.1767	-1.1297	-0.0215	-0.0226	-0.0447	31.5771	25.8161	-5.0021	-0.3877	-0.5431	-0.5116	0.5415
3.24	-9.5904	-1.1729	-1.1275	-0.0281	-0.0288	-0.0429	31.5233	25.7124	-4.8549	-0.3878	-0.5430	-0.5115	0.5414
3.25	-9.6028	-1.1690	-1.1219	-0.0191	-0.0270	-0.0467	31.5336	25.6822	-5.0743	-0.3879	-0.5430	-0.5115	0.5415
3.26	-9.5958	-1.1695	-1.1199	-0.0234	-0.0268	-0.0411	31.5350	25.8177	-5.1314	-0.3880	-0.5428	-0.5114	0.5414
3.27	-9.6058	-1.1689	-1.1087	-0.0269	-0.0323	-0.0426	31.5214	25.7557	-4.8214	-0.3882	-0.5428	-0.5114	0.5415
3.28	-9.6209	-1.1688	-1.1049	-0.0110	-0.0319	-0.0369	31.5587	25.7753	-4.6704	-0.3883	-0.5428	-0.5113	0.5415
3.29	-9.5971	-1.1537	-1.0934	-0.0183	-0.0414	-0.0418	31.4270	25.7830	-4.9278	-0.3884	-0.5427	-0.5111	0.5415
3.3	-9.5835	-1.1457	-1.0846	-0.0131	-0.0412	-0.0345	31.5648	25.9220	-4.8137	-0.3887	-0.5427	-0.5111	0.5416
3.31	-9.5736	-1.1375	-1.0835	-0.0068	-0.0378	-0.0378	31.6237	25.8025	-4.8465	-0.3888	-0.5426	-0.5109	0.5416
3.32	-9.5507	-1.1301	-1.0814	-0.0073	-0.0303	-0.0366	31.4301	25.7623	-5.0029	-0.3889	-0.5426	-0.5108	0.5417
3.33	-9.5499	-1.1123	-1.0658	-0.0111	-0.0308	-0.0321	31.4446	25.7169	-5.1035	-0.3890	-0.5426	-0.5106	0.5417
3.34	-9.5419	-1.1095	-1.0713	-0.0150	-0.0274	-0.0349	31.5504	25.7179	-4.8752	-0.3891	-0.5426	-0.5106	0.5417
3.35	-9.5352	-1.1102	-1.0688	-0.0169	-0.0259	-0.0364	31.5215	25.7880	-4.9395	-0.3892	-0.5425	-0.5105	0.5418
3.36	-9.5393	-1.1064	-1.0677	-0.0178	-0.0257	-0.0359	31.5424	25.8116	-4.8907	-0.3893	-0.5425	-0.5105	0.5418
3.37	-9.5353	-1.1070	-1.0697	-0.0078	-0.0204	-0.0346	31.5183	25.9357	-5.0475	-0.3894	-0.5425	-0.5104	0.5418
3.38	-9.5386	-1.1015	-1.0697	-0.0153	-0.0167	-0.0388	31.5615	25.8465	-4.9700	-0.3894	-0.5425	-0.5103	0.5418
3.39	-9.5514	-1.0934	-1.0673	-0.0102	-0.0074	-0.0316	31.4502	25.8461	-5.1097	-0.3895	-0.5425	-0.5103	0.5418
3.4	-9.5465	-1.0951	-1.0625	-0.0031	-0.0152	-0.0330	31.5108	25.6209	-5.0066	-0.3895	-0.5425	-0.5101	0.5418
3.41	-9.5536	-1.0947	-1.0630	-0.0090	-0.0116	-0.0339	31.6549	25.5816	-4.9020	-0.3897	-0.5426	-0.5101	0.5418
3.42	-9.5601	-1.0817	-1.0632	-0.0200	-0.0092	-0.0340	31.5953	25.7597	-5.0665	-0.3897	-0.5426	-0.5100	0.5418
3.43	-9.5518	-1.0745	-1.0609	-0.0184	-0.0100	-0.0373	31.6460	25.5077	-5.1944	-0.3898	-0.5427	-0.5100	0.5417
3.44	-9.5522	-1.0746	-1.0679	-0.0269	-0.0066	-0.0378	31.5892	25.6633	-5.0875	-0.3899	-0.5426	-0.5100	0.5417
3.45	-9.5507	-1.0720	-1.0702	-0.0136	-0.0120	-0.0381	31.4243	25.7602	-4.9930	-0.3900	-0.5427	-0.5099	0.5416
3.46	-9.5622	-1.0705	-1.0732	-0.0232	-0.0089	-0.0416	31.6206	25.6595	-5.2048	-0.3901	-0.5427	-0.5099	0.5416
3.47	-9.5745	-1.0722	-1.0818	-0.0268	0.0030	-0.0481	31.6281	25.6359	-5.1730	-0.3901	-0.5427	-0.5099	0.5415
3.48	-9.5804	-1.0708	-1.0844	-0.0247	0.0050	-0.0514	31.5979	25.6307	-5.2160	-0.3902	-0.5427	-0.5100	0.5415
3.49	-9.6002	-1.0642	-1.0832	-0.0305	0.0029	-0.0519	31.5213	25.6796	-5.1283	-0.3902	-0.5427	-0.5100	0.5414
3.5	-9.6169	-1.0631	-1.0944	-0.0250	-0.0051	-0.0568	31.5152	25.7639	-4.8606	-0.3902	-0.5427	-0.5101	0.5414
3.51	-9.6286	-1.0651	-1.0915	-0.0303	-0.0060	-0.0608	31.6527	25.6221	-5.1331	-0.3902	-0.5426	-0.5101	0.5413
3.52	-9.6361	-1.0675	-1.0889	-0.0275	-0.0074	-0.0619	31.4404	25.7630	-5.0727	-0.3903	-0.5426	-0.5102	0.5413
3.53	-9.6303	-1.0644	-1.0919	-0.0319	-0.0140	-0.0638	31.5453	25.6981	-4.9553	-0.3903	-0.5425	-0.5102	0.5413
3.54	-9.6125	-1.0703	-1.0886	-0.0323	-0.0225	-0.0657	31.6986	25.8232	-4.8040	-0.3904	-0.5424	-0.5102	0.5413
3.55	-9.5878	-1.0765	-1.0808	-0.0337	-0.0188	-0.0675	31.9520	25.8197	-4.9488	-0.3905	-0.5423	-0.5104	0.5414
3.56	-9.5812	-1.0850	-1.0739	-0.0388	-0.0201	-0.0690	32.0653	25.8272	-5.0095	-0.3906	-0.5421	-0.5104	0.5413
3.57	-9.5652	-1.0894	-1.0708	-0.0344	-0.0233	-0.0693	31.7531	25.7507	-4.8354	-0.3907	-0.5420	-0.5105	0.5413
3.58	-9.5432	-1.0980	-1.0666	-0.0367	-0.0201	-0.0629	31.3318	25.7186	-5.1512	-0.3907	-0.5418	-0.5105	0.5413
3.59	-9.5605	-1.1133	-1.0601	-0.0419	-0.0217	-0.0626	31.4859	25.5865	-5.1463	-0.3908	-0.5418	-0.5106	0.5413
3.6	-9.5793	-1.1289	-1.0625	-0.0371	-0.0162	-0.0647	31.7182	25.6670	-5.0299	-0.3909	-0.5416	-0.5107	0.5413
3.61	-9.5601	-1.1360	-1.0598	-0.0313	-0.0147	-0.0625	31.5925	25.4239	-5.0989	-0.3909	-0.5415	-0.5107	0.5413
3.62	-9.5399	-1.1433	-1.0622	-0.0408	-0.0097	-0.0625	31.7831	25.5516	-4.9291	-0.3910	-0.5415	-0.5109	0.5413
3.63	-9.5637	-1.1519	-1.0642	-0.0374	-0.0071	-0.0590	31.6800	25.7377	-4.8945	-0.3911	-0.5414	-0.5109	0.5412
3.64	-9.5861	-1.1537	-1.0645	-0.0318	-0.0106	-0.0610	31.4307	25.4898	-4.8094	-0.3912	-0.5413	-0.5110	0.5412
3.65	-9.5709	-1.1510	-1.0645	-0.0326	-0.0103	-0.0608	31.5734	25.6180	-4.8394	-0.3912	-0.5412	-0.5110	0.5411
3.66	-9.6033	-1.1606	-1.0562	-0.0302	-0.0072	-0.0577	31.6387	25.7212	-5.1604	-0.3913	-0.5412	-0.5111	0.5411
3.67	-9.6206	-1.1762	-1.0661	-0.0288	-0.0098	-0.0571	31.3735	25.5200	-5.1056	-0.3913	-0.5411	-0.5111	0.5411
3.68	-9.6001	-1.1767	-1.0550	-0.0292	-0.0133	-0.0453	31.6588	25.8548	-5.0472	-0.3914	-0.5411	-0.5111	0.5411
3.69	-9.6095	-1.1745	-1.0512	-0.0291	-0.0077	-0.0427	31.5656	25.9774	-5.1863	-0.3915	-0.5411	-0.5111	0.5410
3.7	-9.5519	-1.1735	-1.0594	-0.0286	-0.0178	-0.0407	31.2813	25.7256	-4.8948	-0.3916	-0.5411	-0.5111	0.5410
3.71	-9.4960	-1.1694	-1.0525	-0.0252	-0.0109	-0.0372	31.3545	25.8346	-4.8888	-0.3917	-0.5410	-0.5111	0.5410
3.72	-9.4974	-1.1662	-1.0613	-0.0119	-0.0088	-0.0354	31.3937	25.6730	-4.8844	-0.3917	-0.5410	-0.5110	0.5409
3.73	-9.4928	-1.1558	-1.0623	-0.0026	-0.0028	-0.0354	31.2718	25.8215	-4.8865	-0.3918	-0.5411	-0.5110	0.5410
3.74	-9.5035	-1.1320	-1.0616	-0.0039	0.0132	-0.0315	31.4461	26.0441	-5.0532	-0.3917	-0.5412	-0.5110	0.5409
3.75	-9.5412	-1.1084	-1.0723	-0.0037	0.0207	-0.0341	31.2683	25.7924	-4.8206	-0.3917	-0.5414	-0.5110	0.5409
3.76	-9.5536	-1.0905	-1.0826	-0.0030	0.0137	-0.0328	31.3996	25.8005	-4.6936	-0.3916	-0.5414	-0.5109	0.5407
3.77	-9.5570	-1.0693	-1.0901	0.0051	0.0116	-0.0375	31.4666	25.6326	-4.8097	-0.3916	-0.5415	-0.5109	0.5408
3.78	-9.5708	-1.0584	-1.0930	0.0053	0.0161	-0.0447	31.5255	25.2953	-4.9817	-0.3915	-0.5416	-0.5108	0.5407
3.79	-9.5822	-1.0459	-1.0976	-0.0021	0.0180	-0.0493	31.8713	25.4544	-4.8633	-0.3914	-0.5417	-0.5108	0.5406
3.8	-9.5808	-1.0291	-1.0994	-0.0002	0.0170	-0.0520	31.6891	25.5167	-4.9176	-0.3914	-0.5419	-0.5109	0.5407
3.81	-9.5853	-1.0210	-1.1024	-0.0012	0.0180	-0.0608	31.5105	25.5687	-4.9213	-0.3913	-0.5419	-0.5109	0.5406
3.82	-9.5896	-1.0126	-1.1096	-0.0080	0.0202	-0.0585	31.6304	25.6294	-4.7184	-0.3913	-0.5420	-0.5110	0.5406
3.83	-9.5863	-1.0100	-1.1127	-0.0225	0.0156	-0.0571	31.6753	25.6122	-4.9165	-0.3912	-0.5419	-0.5110	0.5404
3.84	-9.5854	-1.0136	-1.1186	-0.0312	0.0167	-0.0597	31.4849	25.6015	-4.8638	-0.3912	-0.5420	-0.5111	0.5404
3.85	-9.5998	-1.0301	-1.1251	-0.0293	0.0179	-0.0677	31.6852	25.6484	-4.7117	-0.3912	-0.5420	-0.5112	0.5403
3.86	-9.6067	-1.0543	-1.1274	-0.0439	0.0107	-0.0621	31.4484	25.4961	-4.7053	-0.3912	-0.5419	-0.5114	0.5402
3.87	-9.6108	-1.0743	-1.1263	-0.0558	0.0137	-0.0594	31.6093	25.7517	-4.5814	-0.3913	-0.5419	-0.5115	0.5400
3.88	-9.6298	-1.0921	-1.1339	-0.0534	0.0099	-0.0625	31.7095	25.8936	-4.6582	-0.3913	-0.5418	-0.5117	0.5399
3.89	-9.6421	-1.1104	-1.1388	-0.0558	-0.0005	-0.0608	31.2645	25.7252	-4.7056	-0.3915	-0.5417	-0.5119	0.5398
3.9	-9.6346	-1.1311	-1.1311	-0.0530	-0.0038	-0.0582	31.2766	25.9096	-4.7852	-0.3915	-0.5416	-0.5119	0.5396
3.91	-9.6359	-1.1484	-1.1342	-0.0525	-0.0069	-0.0585	31.5488	25.8446	-4.9165	-0.3917	-0.5416	-0.5121	0.5396
3.92	-9.6518	-1.1591	-1.1286	-0.0496	-0.0103	-0.0569	31.4935	25.7706	-5.0332	-0.3918	-0.5414	-0.5122	0.5395
3.93	-9.5934	-1.1629	-1.1151	-0.0408	-0.0138	-0.0532	31.5440	25.8069	-4.8117	-0.3919	-0.5414	-0.5122	0.5394
3.94	-9.5912	-1.1634	-1.1028	-0.0274	-0.0145	-0.0519	31.4659	25.6824	-4.7731	-0.3920	-0.5413	-0.5122	0.5394
3.95	-9.6455	-1.1656	-1.1059	-0.0296	-0.0191	-0.0582	31.3672	25.9600	-5.0785	-0.3920	-0.5412	-0.5123	0.5394
3.96	-9.5441	-1.1575	-1.0955	-0.0243	-0.0247	-0.0577	31.5548	25.7317	-5.0323	-0.3921	-0.5412	-0.5123	0.5394
3.97	-9.5142	-1.1528	-1.0829	-0.0225	-0.0237	-0.0597	31.6321	25.6911	-4.8467	-0.3921	-0.5410	-0.5122	0.5394
3.98	-9.5414	-1.1580	-1.0893	-0.0212	-0.0141	-0.0618	31.6622	25.6023	-5.0337	-0.3922	-0.5410	-0.5123	0.5395
3.99	-9.5250	-1.1528	-1.0818	-0.0074	-0.0123	-0.0521	31.6298	25.6293	-4.8609	-0.3922	-0.5409	-0.5123	0.5395
4	-9.5213	-1.1397	-1.0744	-0.0092	-0.0137	-0.0455	31.6749	25.5555	-4.5262	-0.3923	-0.5410	-0.5123	0.5396
4.01	-9.5354	-1.1283	-1.0799	-0.0069	-0.0081	-0.0419	31.5349	25.4960	-4.8341	-0.3922	-0.5409	-0.5122	0.5396
4.02	-9.5580	-1.1070	-1.0852	-0.0043	-0.0078	-0.0447	31.4622	25.6805	-4.8767	-0.3923	-0.5410	-0.5122	0.5396
4.03	-9.5751	-1.0968	-1.0857	-0.0075	-0.0054	-0.0457	31.4493	25.6839	-4.9123	-0.3923	-0.5410	-0.5121	0.5396
4.04	-9.5819	-1.1050	-1.0967	-0.0110	-0.0037	-0.0530	31.6025	25.7905	-4.7821	-0.3923	-0.5410	-0.5121	0.5395
4.05	-9.5828	-1.1019	-1.1028	-0.0020	-0.0006	-0.0512	31.8972	25.7854	-4.8153	-0.3923	-0.5411	-0.5121	0.5396
4.06	-9.5812	-1.0867	-1.1066	-0.0130	-0.0064	-0.0517	31.7508	25.6824	-4.8733	-0.3923	-0.5411	-0.5121	0.5396
4.07	-9.5812	-1.0827	-1.1079	-0.0189	-0.0030	-0.0520	31.7754	25.8203	-4.6036	-0.3924	-0.5411	-0.5121	0.5396
4.08	-9.5828	-1.0794	-1.1102	-0.0192	0.0026	-0.0501	31.4250	25.8200	-4.9249	-0.3923	-0.5410	-0.5121	0.5395
4.09	-9.5854	-1.0813	-1.1200	-0.0259	0.0010	-0.0527	31.4225	25.8473	-4.9346	-0.3924	-0.5411	-0.5121	0.5394
4.1	-9.5822	-1.0810	-1.1259	-0.0275	-0.0006	-0.0471	31.5411	25.7588	-4.9494	-0.3924	-0.5411	-0.5122	0.5394
4.11	-9.5852	-1.0810	-1.1251	-0.0347	0.0009	-0.0514	31.5865	25.6966	-4.8534	-0.3925	-0.5410	-0.5122	0.5393
4.12	-9.6111	-1.0931	-1.1334	-0.0337	-0.0038	-0.0510	31.7056	25.8506	-4.8221	-0.3926	-0.5410	-0.5123	0.5392
4.13	-9.6382	-1.1057	-1.1374	-0.0324	-0.0090	-0.0501	31.4765	25.6375	-5.0101	-0.3927	-0.5410	-0.5123	0.5392
4.14	-9.6357	-1.1087	-1.1297	-0.0318	-0.0143	-0.0469	31.7371	25.6963	-4.9832	-0.3928	-0.5410	-0.5123	0.5391
4.15	-9.6260	-1.1216	-1.1296	-0.0346	-0.0182	-0.0536	31.5979	25.7549	-4.8145	-0.3928	-0.5408	-0.5123	0.5391
4.16	-9.6136	-1.1378	-1.1273	-0.0290	-0.0176	-0.0540	31.7091	25.4873	-4.8549	-0.3930	-0.5408	-0.5124	0.5391
4.17	-9.5786	-1.1343	-1.1266	-0.0374	-0.0230	-0.0480	31.5553	25.4719	-4.9647	-0.3931	-0.5407	-0.5124	0.5390
4.18	-9.5946	-1.1338	-1.1136	-0.0329	-0.0229	-0.0479	31.7038	25.6793	-4.8440	-0.3932	-0.5407	-0.5124	0.5390
4.19	-9.5814	-1.1327	-1.1171	-0.0277	-0.0241	-0.0493	31.7016	25.5040	-4.8220	-0.3933	-0.5406	-0.5123	0.5390
4.2	-9.5549	-1.1251	-1.1117	-0.0353	-0.0248	-0.0457	31.5616	25.6259	-4.9840	-0.3935	-0.5405	-0.5123	0.5390
4.21	-9.5694	-1.1209	-1.1135	-0.0398	-0.0232	-0.0359	31.4943	25.7557	-4.8391	-0.3936	-0.5405	-0.5123	0.5390
4.22	-9.5478	-1.1266	-1.1081	-0.0446	-0.0257	-0.0341	31.6029	25.7202	-4.9148	-0.3938	-0.5404	-0.5123	0.5388
4.23	-9.5589	-1.1192	-1.1095	-0.0522	-0.0150	-0.0271	31.7255	25.7118	-5.0524	-0.3941	-0.5404	-0.5123	0.5388
4.24	-9.5672	-1.1255	-1.1121	-0.0564	-0.0213	-0.0177	31.6706	25.4803	-4.9935	-0.3943	-0.5403	-0.5123	0.5386
4.25	-9.5648	-1.1246	-1.1093	-0.0517	-0.0112	-0.0214	31.4814	25.6493	-4.7801	-0.3946	-0.5404	-0.5123	0.5385
4.26	-9.5753	-1.1219	-1.1113	-0.0517	-0.0073	-0.0182	31.2838	25.6340	-4.6990	-0.3947	-0.5403	-0.5123	0.5383
4.27	-9.5722	-1.1278	-1.1125	-0.0595	-0.0101	-0.0118	31.5434	25.6330	-5.0625	-0.3950	-0.5404	-0.5123	0.5381
4.28	-9.5781	-1.1178	-1.1072	-0.0499	-0.0116	-0.0070	31.7642	25.4678	-4.8825	-0.3953	-0.5404	-0.5123	0.5379
4.29	-9.5830	-1.1151	-1.1037	-0.0499	-0.0176	-0.0094	31.5917	25.4648	-4.8167	-0.3955	-0.5404	-0.5122	0.5377
4.3	-9.5871	-1.1048	-1.1004	-0.0417	-0.0144	-0.0096	31.6058	25.4532	-4.9194	-0.3958	-0.5405	-0.5122	0.5377
4.31	-9.5881	-1.0891	-1.0966	-0.0297	-0.0095	-0.0081	31.7785	25.6313	-4.9985	-0.3959	-0.5405	-0.5121	0.5375
4.32	-9.5877	-1.0785	-1.0923	-0.0300	-0.0187	-0.0088	31.7303	25.5890	-5.1732	-0.3962	-0.5406	-0.5120	0.5374
4.33	-9.5866	-1.0683	-1.0890	-0.0268	-0.0200	-0.0091	31.6829	25.4485	-4.9921	-0.3963	-0.5406	-0.5118	0.5372
4.34	-9.5756	-1.0518	-1.0857	-0.0236	-0.0120	-0.0108	31.5852	25.4549	-5.0189	-0.3965	-0.5407	-0.5117	0.5372
4.35	-9.5723	-1.0382	-1.0856	-0.0230	-0.0114	-0.0184	31.6549	25.3280	-4.8641	-0.3967	-0.5407	-0.5116	0.5371
4.36	-9.5815	-1.0348	-1.0928	-0.0159	-0.0202	-0.0309	31.7253	25.4707	-5.0353	-0.3968	-0.5407	-0.5116	0.5371
4.37	-9.5822	-1.0260	-1.0969	-0.0091	-0.0190	-0.0342	31.6685	25.4542	-5.0007	-0.3969	-0.5408	-0.5115	0.5371
4.38	-9.5893	-1.0170	-1.0917	-0.0118	-0.0130	-0.0308	31.7397	25.6070	-4.9145	-0.3970	-0.5408	-0.5114	0.5370
4.39	-9.6018	-1.0158	-1.0850	-0.0055	-0.0120	-0.0412	31.6055	25.4461	-5.1466	-0.3970	-0.5409	-0.5113	0.5371
4.4	-9.6008	-1.0071	-1.0836	-0.0038	-0.0145	-0.0429	31.6325	25.5626	-4.9342	-0.3970	-0.5408	-0.5112	0.5370
4.41	-9.6038	-0.9984	-1.0840	-0.0032	-0.0174	-0.0356	31.5485	25.5216	-4.7942	-0.3971	-0.5409	-0.5112	0.5371
4.42	-9.6000	-0.9888	-1.0736	-0.0064	-0.0216	-0.0378	31.7689	25.4783	-4.8936	-0.3972	-0.5409	-0.5110	0.5371
4.43	-9.5891	-0.9840	-1.0708	-0.0068	-0.0186	-0.0405	31.8877	25.6053	-4.9488	-0.3973	-0.5410	-0.5110	0.5371
4.44	-9.5797	-0.9815	-1.0645	-0.0063	-0.0181	-0.0532	31.4537	25.4172	-4.8184	-0.3973	-0.5409	-0.5109	0.5371
4.45	-9.5637	-0.9756	-1.0657	-0.0249	-0.0209	-0.0463	31.5404	25.5102	-4.9669	-0.3974	-0.5409	-0.5109	0.5372
4.46	-9.5530	-0.9816	-1.0591	-0.0258	-0.0160	-0.0472	31.5385	25.5612	-4.8828	-0.3974	-0.5408	-0.5109	0.5372
4.47	-9.5575	-0.9850	-1.0636	-0.0200	-0.0194	-0.0526	31.7345	25.5456	-5.1025	-0.3975	-0.5407	-0.5109	0.5371
4.48	-9.5838	-0.9895	-1.0598	-0.0209	-0.0106	-0.0557	31.6598	25.5490	-5.2401	-0.3976	-0.5408	-0.5109	0.5372
4.49	-9.5976	-1.0034	-1.0630	-0.0264	-0.0103	-0.0545	31.6171	25.4029	-4.9893	-0.3976	-0.5407	-0.5109	0.5371
4.5	-9.5667	-1.0143	-1.0639	-0.0278	-0.0178	-0.0578	31.8044	25.3428	-4.8786	-0.3977	-0.5407	-0.5110	0.5372
4.51	-9.5629	-1.0112	-1.0667	-0.0289	-0.0119	-0.0581	31.6975	25.5672	-5.0491	-0.3977	-0.5405	-0.5110	0.5371
4.52	-9.6011	-1.0103	-1.0708	-0.0296	-0.0079	-0.0588	31.6809	25.6577	-4.9958	-0.3978	-0.5405	-0.5110	0.5371
4.53	-9.6006	-1.0147	-1.0649	-0.0286	-0.0116	-0.0613	31.7458	25.4374	-5.0632	-0.3978	-0.5405	-0.5111	0.5371
4.54	-9.5945	-1.0249	-1.0656	-0.0294	-0.0107	-0.0669	31.9050	25.5656	-4.8359	-0.3978	-0.5404	-0.5111	0.5370
4.55	-9.6221	-1.0422	-1.0613	-0.0309	-0.0110	-0.0636	32.3533	25.4467	-4.8242	-0.3979	-0.5404	-0.5113	0.5371
4.56	-9.6219	-1.0645	-1.0646	-0.0300	-0.0119	-0.0591	32.3300	25.2227	-5.1095	-0.3979	-0.5402	-0.5113	0.5370
4.57	-9.6182	-1.0743	-1.0568	-0.0318	-0.0158	-0.0558	31.8997	25.3570	-4.8023	-0.3980	-0.5402	-0.5113	0.5370
4.58	-9.5920	-1.0782	-1.0647	-0.0298	-0.0143	-0.0544	31.6150	25.4244	-4.8340	-0.3980	-0.5401	-0.5113	0.5369
4.59	-9.5363	-1.0859	-1.0718	-0.0318	-0.0217	-0.0466	31.3897	25.3385	-5.1001	-0.3982	-0.5401	-0.5114	0.5370
4.6	-9.5345	-1.0998	-1.0730	-0.0278	-0.0161	-0.0433	31.6975	25.3233	-5.1877	-0.3983	-0.5400	-0.5114	0.5369
4.61	-9.5386	-1.1056	-1.0802	-0.0307	-0.0153	-0.0381	31.5664	25.1121	-4.9459	-0.3984	-0.5399	-0.5114	0.5369
4.62	-9.5449	-1.0947	-1.0784	-0.0129	-0.0123	-0.0309	31.4533	25.4018	-4.9701	-0.3985	-0.5400	-0.5113	0.5369
4.63	-9.5796	-1.0834	-1.0853	-0.0029	0.0029	-0.0352	31.6401	25.3831	-4.8984	-0.3985	-0.5400	-0.5112	0.5368
4.64	-9.5881	-1.0745	-1.0934	-0.0053	-0.0045	-0.0367	31.6118	25.3771	-4.9040	-0.3985	-0.5401	-0.5112	0.5368
4.65	-9.5894	-1.0557	-1.0941	0.0038	-0.0099	-0.0431	31.4631	25.4546	-4.9920	-0.3985	-0.5401	-0.5111	0.5368
4.66	-9.5896	-1.0428	-1.0920	0.0011	-0.0053	-0.0469	31.3602	25.4063	-4.7068	-0.3985	-0.5402	-0.5111	0.5369
4.67	-9.5779	-1.0302	-1.0932	-0.0018	-0.0072	-0.0530	31.4400	25.2787	-4.9988	-0.3985	-0.5402	-0.5110	0.5368
4.68	-9.5743	-1.0099	-1.0884	0.0004	-0.0055	-0.0518	31.7626	25.2663	-5.0774	-0.3985	-0.5403	-0.5110	0.5369
4.69	-9.5768	-0.9944	-1.0949	0.0133	-0.0100	-0.0431	31.7299	25.5927	-4.9280	-0.3984	-0.5403	-0.5109	0.5369
4.7	-9.5844	-0.9773	-1.0918	-0.0011	-0.0060	-0.0472	31.6356	25.5370	-4.7310	-0.3984	-0.5404	-0.5108	0.5369
4.71	-9.5870	-0.9690	-1.0947	-0.0045	-0.0157	-0.0406	31.4775	25.3982	-5.0223	-0.3985	-0.5404	-0.5108	0.5370
4.72	-9.5981	-0.9668	-1.0910	-0.0027	-0.0119	-0.0400	31.8643	25.3730	-5.0626	-0.3985	-0.5404	-0.5106	0.5369
4.73	-9.6154	-0.9680	-1.0893	-0.0057	-0.0154	-0.0451	31.7821	25.2073	-5.0171	-0.3986	-0.5405	-0.5106	0.5370
4.74	-9.6125	-0.9726	-1.0905	-0.0201	-0.0097	-0.0451	31.6484	25.3108	-5.0791	-0.3986	-0.5405	-0.5106	0.5369
4.75	-9.6236	-0.9868	-1.0852	-0.0273	-0.0156	-0.0411	31.7972	25.5992	-4.9542	-0.3987	-0.5405	-0.5106	0.5369
4.76	-9.6343	-0.9900	-1.0821	-0.0298	-0.0154	-0.0469	31.6329	25.1067	-4.9600	-0.3988	-0.5404	-0.5105	0.5368
4.77	-9.6406	-0.9886	-1.0790	-0.0292	-0.0210	-0.0443	31.5182	25.0999	-5.0300	-0.3989	-0.5404	-0.5106	0.5368
4.78	-9.6372	-0.9958	-1.0713	-0.0270	-0.0267	-0.0480	31.6736	25.1639	-5.1128	-0.3991	-0.5403	-0.5106	0.5368
4.79	-9.6139	-1.0030	-1.0701	-0.0289	-0.0319	-0.0559	31.7850	25.2919	-5.0675	-0.3991	-0.5402	-0.5105	0.5368
4.8	-9.6070	-1.0015	-1.0637	-0.0303	-0.0251	-0.0583	31.6129	25.4888	-4.9344	-0.3993	-0.5401	-0.5106	0.5369
4.81	-9.5681	-0.9979	-1.0598	-0.0251	-0.0296	-0.0679	31.6908	25.3473	-5.0980	-0.3993	-0.5400	-0.5106	0.5369
4.82	-9.5595	-0.9899	-1.0424	-0.0272	-0.0225	-0.0722	31.5731	25.4104	-5.2043	-0.3994	-0.5399	-0.5107	0.5370
4.83	-9.6301	-0.9894	-1.0469	-0.0292	-0.0245	-0.0764	31.5586	25.8533	-4.8281	-0.3994	-0.5397	-0.5107	0.5369
4.84	-9.5932	-0.9919	-1.0386	-0.0283	-0.0305	-0.0767	31.6791	25.3696	-4.9133	-0.3994	-0.5396	-0.5108	0.5371
4.85	-9.5649	-0.9894	-1.0183	-0.0287	-0.0273	-0.0844	31.6358	25.4048	-5.1041	-0.3995	-0.5394	-0.5109	0.5371
4.86	-9.5871	-1.0041	-1.0162	-0.0311	-0.0262	-0.0844	31.6773	25.6493	-5.2741	-0.3995	-0.5392	-0.5109	0.5372
4.87	-9.5814	-1.0285	-1.0204	-0.0498	-0.0275	-0.0807	31.5381	25.4697	-4.9758	-0.3996	-0.5391	-0.5111	0.5372
4.88	-9.5598	-1.0401	-1.0140	-0.0528	-0.0273	-0.0781	31.4671	25.6943	-5.0417	-0.3997	-0.5388	-0.5112	0.5372
4.89	-9.5673	-1.0450	-1.0082	-0.0527	-0.0261	-0.0669	31.6862	25.6317	-5.1266	-0.3998	-0.5387	-0.5113	0.5372
4.9	-9.6036	-1.0546	-1.0045	-0.0507	-0.0244	-0.0629	31.5389	25.5183	-5.0027	-0.3999	-0.5385	-0.5114	0.5371
4.91	-9.6143	-1.0755	-1.0019	-0.0507	-0.0230	-0.0686	31.7018	25.4835	-5.1846	-0.4000	-0.5384	-0.5115	0.5371
4.92	-9.5988	-1.0984	-0.9989	-0.0516	-0.0255	-0.0710	31.9054	25.2688	-5.1061	-0.4001	-0.5382	-0.5116	0.5371
4.93	-9.5706	-1.1129	-0.9938	-0.0495	-0.0262	-0.0701	31.9532	25.1769	-5.1486	-0.4003	-0.5381	-0.5117	0.5371
4.94	-9.5482	-1.1266	-0.9892	-0.0532	-0.0245	-0.0691	31.6999	25.1526	-5.1194	-0.4003	-0.5378	-0.5118	0.5371
4.95	-9.5442	-1.1332	-0.9885	-0.0345	-0.0193	-0.0617	31.7912	25.4096	-5.0150	-0.4004	-0.5377	-0.5119	0.5371
4.96	-9.5353	-1.1331	-0.9936	-0.0373	-0.0177	-0.0580	31.8106	25.2776	-4.8873	-0.4005	-0.5376	-0.5120	0.5371
4.97	-9.5232	-1.1339	-0.9916	-0.0347	-0.0123	-0.0591	31.6220	25.4734	-5.1533	-0.4005	-0.5375	-0.5120	0.5370
4.98	-9.5294	-1.1403	-0.9865	-0.0300	-0.0101	-0.0485	31.6736	25.3558	-5.2255	-0.4006	-0.5375	-0.5121	0.5371
4.99	-9.5327	-1.1413	-0.9965	-0.0300	-0.0110	-0.0383	31.7782	25.2849	-4.9556	-0.4007	-0.5374	-0.5121	0.5370
5	-9.5389	-1.1350	-1.0017	-0.0243	-0.0023	-0.0390	31.6623	25.5556	-5.1762	-0.4008	-0.5375	-0.5121	0.5370
5.01	-9.5466	-1.1283	-1.0049	-0.0232	0.0034	-0.0351	31.6554	25.4805	-5.0171	-0.4008	-0.5375	-0.5121	0.5368
5.02	-9.5578	-1.1176	-1.0058	-0.0040	0.0053	-0.0351	31.5245	25.8923	-5.0972	-0.4008	-0.5376	-0.5121	0.5368
5.03	-9.5821	-1.1046	-1.0160	-0.0019	0.0108	-0.0325	31.4528	25.4362	-5.1398	-0.4008	-0.5377	-0.5120	0.5367
5.04	-9.5991	-1.0800	-1.0144	-0.0009	0.0088	-0.0358	31.5334	25.4903	-4.8449	-0.4007	-0.5378	-0.5119	0.5367
5.05	-9.5904	-1.0592	-1.0189	0.0034	0.0033	-0.0342	31.8065	25.7172	-4.8753	-0.4008	-0.5380	-0.5119	0.5367
5.06	-9.5939	-1.0338	-1.0198	0.0139	0.0069	-0.0341	31.8134	25.7084	-4.8582	-0.4007	-0.5381	-0.5118	0.5366
5.07	-9.6260	-1.0150	-1.0384	0.0201	0.0046	-0.0402	31.8073	25.5215	-4.7893	-0.4007	-0.5382	-0.5117	0.5367
5.08	-9.6252	-0.9921	-1.0484	0.0236	0.0027	-0.0377	31.6239	25.4051	-4.8108	-0.4005	-0.5383	-0.5115	0.5366
5.09	-9.6274	-0.9670	-1.0469	0.0099	-0.0075	-0.0377	31.8962	25.4021	-4.9840	-0.4006	-0.5385	-0.5115	0.5367
5.1	-9.6295	-0.9538	-1.0503	0.0017	-0.0119	-0.0500	31.8862	25.2942	-5.2040	-0.4005	-0.5385	-0.5114	0.5367
5.11	-9.6364	-0.9374	-1.0515	0.0021	-0.0066	-0.0473	31.9073	25.5565	-4.9062	-0.4005	-0.5385	-0.5113	0.5367
5.12	-9.6410	-0.9269	-1.0513	-0.0046	-0.0106	-0.0489	31.9432	25.2378	-4.9660	-0.4005	-0.5386	-0.5113	0.5368
5.13	-9.6566	-0.9348	-1.0440	-0.0079	-0.0164	-0.0516	31.8246	25.4143	-4.9810	-0.4005	-0.5385	-0.5112	0.5368
5.14	-9.6826	-0.9401	-1.0508	-0.0234	-0.0218	-0.0577	31.8186	25.4777	-4.9746	-0.4006	-0.5385	-0.5113	0.5368
5.15	-9.6797	-0.9503	-1.0522	-0.0284	-0.0286	-0.0573	31.6385	25.2640	-5.0533	-0.4007	-0.5384	-0.5112	0.5368
5.16	-9.6332	-0.9670	-1.0575	-0.0333	-0.0349	-0.0606	31.6841	25.4550	-4.7887	-0.4008	-0.5383	-0.5113	0.5369
5.17	-9.6152	-0.9814	-1.0472	-0.0428	-0.0389	-0.0648	31.4912	25.4917	-5.0369	-0.4009	-0.5381	-0.5113	0.5369
5.18	-9.5938	-1.0047	-1.0523	-0.0446	-0.0396	-0.0692	31.5341	25.4843	-5.0162	-0.4011	-0.5379	-0.5114	0.5369
5.19	-9.5640	-1.0151	-1.0473	-0.0497	-0.0312	-0.0760	31.8022	25.4850	-5.0358	-0.4012	-0.5377	-0.5115	0.5369
5.2	-9.5310	-1.0305	-1.0481	-0.0553	-0.0326	-0.0726	31.7147	25.6151	-5.0145	-0.4013	-0.5375	-0.5116	0.5370
5.21	-9.5423	-1.0578	-1.0392	-0.0516	-0.0227	-0.0742	31.6545	25.5060	-5.0528	-0.4014	-0.5373	-0.5117	0.5370
5.22	-9.5584	-1.0730	-1.0415	-0.0485	-0.0234	-0.0687	31.6735	25.4740	-4.9237	-0.4015	-0.5371	-0.5118	0.5369
5.23	-9.5509	-1.0810	-1.0328	-0.0545	-0.0187	-0.0706	31.6682	25.4979	-4.9467	-0.4016	-0.5370	-0.5120	0.5369
5.24	-9.5667	-1.0942	-1.0248	-0.0512	-0.0178	-0.0708	31.6698	25.6221	-5.0633	-0.4017	-0.5368	-0.5121	0.5369
5.25	-9.5788	-1.1078	-1.0232	-0.0462	-0.0176	-0.0710	31.6734	25.4741	-4.9651	-0.4018	-0.5367	-0.5122	0.5369
5.26	-9.5759	-1.1093	-1.0249	-0.0499	-0.0157	-0.0674	31.6683	25.5886	-4.8040	-0.4018	-0.5365	-0.5123	0.5368
5.27	-9.5714	-1.1155	-1.0175	-0.0285	-0.0179	-0.0659	31.5542	25.6653	-5.0290	-0.4019	-0.5365	-0.5124	0.5368
5.28	-9.5844	-1.1253	-1.0168	-0.0295	-0.0174	-0.0610	31.6164	25.3302	-5.1408	-0.4020	-0.5364	-0.5124	0.5368
5.29	-9.5829	-1.1287	-1.0161	-0.0285	-0.0184	-0.0623	31.7871	25.5875	-5.1165	-0.4020	-0.5363	-0.5124	0.5368
5.3	-9.5904	-1.1259	-1.0117	-0.0303	-0.0163	-0.0578	31.6298	25.5688	-5.1041	-0.4021	-0.5363	-0.5125	0.5368
5.31	-9.5814	-1.1352	-1.0146	-0.0257	-0.0152	-0.0486	31.5891	25.0306	-5.1616	-0.4022	-0.5362	-0.5125	0.5367
5.32	-9.5608	-1.1341	-1.0116	-0.0281	-0.0160	-0.0441	31.7446	25.3593	-5.1740	-0.4023	-0.5362	-0.5125	0.5367
5.33	-9.5718	-1.1225	-1.0042	-0.0278	-0.0121	-0.0405	31.8634	25.4979	-4.9948	-0.4023	-0.5361	-0.5125	0.5366
5.34	-9.5639	-1.1156	-1.0017	-0.0174	-0.0134	-0.0367	31.7108	25.5007	-5.0426	-0.4024	-0.5362	-0.5125	0.5366
5.35	-9.5566	-1.1073	-1.0013	-0.0090	-0.0070	-0.0419	31.8298	25.4319	-5.1833	-0.4025	-0.5362	-0.5124	0.5366
5.36	-9.5429	-1.0950	-1.0053	-0.0102	-0.0091	-0.0404	31.5351	25.3899	-4.9167	-0.4025	-0.5362	-0.5124	0.5366
5.37	-9.5386	-1.0878	-0.9998	-0.0023	-0.0132	-0.0388	31.8312	25.3890	-5.0515	-0.4025	-0.5363	-0.5123	0.5366
5.38	-9.5665	-1.0761	-0.9954	-0.0035	-0.0021	-0.0378	31.8919	25.5726	-4.9758	-0.4025	-0.5363	-0.5122	0.5366
5.39	-9.5906	-1.0691	-0.9970	-0.0037	0.0005	-0.0339	31.5078	25.4974	-5.1840	-0.4026	-0.5364	-0.5122	0.5366
5.4	-9.5728	-1.0537	-1.0016	-0.0017	-0.0023	-0.0330	31.6891	25.5674	-5.1437	-0.4025	-0.5364	-0.5121	0.5365
5.41	-9.5746	-1.0392	-1.0008	0.0017	0.0027	-0.0340	31.7794	25.5646	-4.9986	-0.4026	-0.5366	-0.5121	0.5365
5.42	-9.6007	-1.0245	-1.0038	-0.0025	0.0022	-0.0324	31.7116	25.4642	-5.1887	-0.4026	-0.5367	-0.5120	0.5365
5.43	-9.6022	-1.0099	-0.9951	-0.0039	-0.0023	-0.0323	31.6468	25.4831	-5.0015	-0.4026	-0.5368	-0.5119	0.5364
5.44	-9.5813	-1.0051	-0.9934	-0.0045	0.0028	-0.0323	31.6894	25.5821	-5.0570	-0.4026	-0.5369	-0.5118	0.5364
5.45	-9.6013	-1.0039	-1.0002	-0.0067	-0.0015	-0.0322	31.5216	25.8069	-4.9838	-0.4026	-0.5370	-0.5118	0.5363
5.46	-9.6083	-1.0127	-1.0017	-0.0079	-0.0011	-0.0339	31.6984	25.4697	-4.9483	-0.4027	-0.5371	-0.5117	0.5363
5.47	-9.6078	-1.0096	-0.9976	-0.0099	-0.0050	-0.0337	31.8659	25.2610	-5.2195	-0.4027	-0.5371	-0.5116	0.5362
5.48	-9.5969	-1.0068	-1.0011	-0.0091	-0.0086	-0.0354	31.8344	25.4714	-5.1124	-0.4028	-0.5372	-0.5116	0.5362
5.49	-9.5502	-1.0064	-1.0006	-0.0048	-0.0049	-0.0351	31.7168	25.2792	-5.0784	-0.4028	-0.5372	-0.5115	0.5362
5.5	-9.5539	-1.0126	-1.0030	-0.0033	0.0012	-0.0338	31.8160	25.2506	-4.9816	-0.4028	-0.5373	-0.5115	0.5362
5.51	-9.5624	-1.0189	-1.0138	-0.0037	0.0073	-0.0367	31.5173	25.5132	-5.1354	-0.4027	-0.5374	-0.5114	0.5361
5.52	-9.5504	-1.0034	-1.0162	-0.0035	0.0162	-0.0350	31.7834	25.3721	-5.2385	-0.4027	-0.5375	-0.5114	0.5361
5.53	-9.5595	-0.9880	-1.0279	-0.0036	0.0165	-0.0319	31.6082	25.5859	-5.1364	-0.4027	-0.5376	-0.5114	0.5360
5.54	-9.5896	-0.9695	-1.0418	-0.0032	0.0160	-0.0388	31.7519	25.5164	-4.8125	-0.4026	-0.5377	-0.5113	0.5359
5.55	-9.6076	-0.9642	-1.0516	-0.0052	0.0162	-0.0494	32.3259	25.3540	-4.7603	-0.4026	-0.5379	-0.5114	0.5359
5.56	-9.6094	-0.9559	-1.0528	-0.0028	0.0134	-0.0591	32.0971	25.3580	-4.8387	-0.4025	-0.5379	-0.5114	0.5358
5.57	-9.6171	-0.9460	-1.0525	-0.0034	0.0149	-0.0664	31.8495	25.5520	-4.8754	-0.4024	-0.5380	-0.5115	0.5358
5.58	-9.6203	-0.9470	-1.0573	-0.0040	0.0147	-0.0703	31.4742	25.3445	-4.9336	-0.4023	-0.5380	-0.5115	0.5358
5.59	-9.6221	-0.9311	-1.0643	-0.0160	0.0039	-0.0689	31.5037	25.3605	-4.9554	-0.4022	-0.5380	-0.5116	0.5358
5.6	-9.6144	-0.9281	-1.0665	-0.0269	0.0020	-0.0693	31.6178	25.6733	-4.9338	-0.4022	-0.5379	-0.5117	0.5358
5.61	-9.6101	-0.9306	-1.0638	-0.0388	-0.0051	-0.0748	31.6146	25.6428	-5.0353	-0.4022	-0.5378	-0.5118	0.5357
5.62	-9.6126	-0.9436	-1.0732	-0.0430	-0.0008	-0.0801	31.4514	25.3833	-5.0438	-0.4022	-0.5377	-0.5120	0.5357
5.63	-9.6029	-0.9677	-1.0697	-0.0487	-0.0062	-0.0772	31.6147	25.4539	-5.0443	-0.4022	-0.5376	-0.5121	0.5356
5.64	-9.6098	-0.9902	-1.0685	-0.0569	-0.0039	-0.0702	31.6258	25.5805	-5.2451	-0.4023	-0.5375	-0.5123	0.5356
5.65	-9.6277	-1.0154	-1.0727	-0.0590	-0.0063	-0.0801	31.7305	25.2368	-5.1293	-0.4023	-0.5373	-0.5124	0.5354
5.66	-9.6443	-1.0437	-1.0730	-0.0573	-0.0141	-0.0749	32.0100	25.0486	-5.0022	-0.4025	-0.5372	-0.5127	0.5354
5.67	-9.6585	-1.0648	-1.0682	-0.0568	-0.0181	-0.0647	31.7522	25.2387	-4.8813	-0.4026	-0.5370	-0.5128	0.5353
5.68	-9.6576	-1.0844	-1.0636	-0.0555	-0.0203	-0.0641	31.7908	25.3152	-4.8233	-0.4027	-0.5369	-0.5129	0.5353
5.69	-9.6378	-1.1061	-1.0698	-0.0565	-0.0248	-0.0708	31.7521	25.3738	-4.9637	-0.4028	-0.5367	-0.5130	0.5352
5.7	-9.6316	-1.1191	-1.0702	-0.0572	-0.0284	-0.0685	31.7999	25.1574	-5.0543	-0.4029	-0.5365	-0.5131	0.5352
5.71	-9.5529	-1.1194	-1.0527	-0.0436	-0.0363	-0.0641	31.6947	25.2563	-5.0158	-0.4031	-0.5364	-0.5132	0.5353
5.72	-9.5706	-1.1164	-1.0392	-0.0313	-0.0232	-0.0654	31.7400	25.4739	-5.0565	-0.4031	-0.5362	-0.5132	0.5352
5.73	-9.6376	-1.1232	-1.0503	-0.0306	-0.0297	-0.0616	31.9120	25.1852	-5.1039	-0.4032	-0.5361	-0.5133	0.5353
5.74	-9.5476	-1.1206	-1.0226	-0.0280	-0.0377	-0.0629	31.6388	25.4750	-5.1998	-0.4033	-0.5360	-0.5133	0.5354
5.75	-9.5555	-1.1023	-1.0142	-0.0189	-0.0311	-0.0697	31.5856	25.5123	-5.1810	-0.4034	-0.5359	-0.5133	0.5355
5.76	-9.5712	-1.1000	-1.0144	-0.0151	-0.0316	-0.0657	31.5992	25.6075	-4.9390	-0.4034	-0.5357	-0.5133	0.5355
5.77	-9.5498	-1.1067	-1.0028	-0.0151	-0.0276	-0.0580	31.3652	25.5863	-5.0418	-0.4034	-0.5357	-0.5133	0.5356
5.78	-9.5391	-1.0833	-1.0067	-0.0086	-0.0179	-0.0536	31.6469	25.6506	-4.9225	-0.4035	-0.5356	-0.5133	0.5356
5.79	-9.5421	-1.0562	-0.9966	-0.0004	-0.0158	-0.0447	31.4172	25.7210	-4.9624	-0.4034	-0.5356	-0.5132	0.5357
5.8	-9.5612	-1.0412	-0.9989	-0.0069	-0.0131	-0.0541	31.4117	25.5594	-4.9575	-0.4035	-0.5356	-0.5132	0.5358
5.81	-9.5598	-1.0443	-1.0004	-0.0106	-0.0078	-0.0540	31.7102	25.6583	-5.0762	-0.4034	-0.5356	-0.5131	0.5357
5.82	-9.5743	-1.0389	-0.9984	-0.0108	-0.0112	-0.0579	31.6089	25.6717	-5.2527	-0.4035	-0.5356	-0.5132	0.5358
5.83	-9.5806	-1.0356	-1.0057	-0.0196	-0.0145	-0.0588	31.5793	25.3801	-5.0980	-0.4034	-0.5355	-0.5131	0.5357
5.84	-9.5772	-1.0331	-0.9979	-0.0182	-0.0093	-0.0547	31.8272	25.4685	-5.1930	-0.4035	-0.5355	-0.5132	0.5358
5.85	-9.5889	-1.0316	-0.9926	-0.0230	-0.0148	-0.0524	31.8920	25.3258	-5.3226	-0.4035	-0.5355	-0.5132	0.5358
5.86	-9.5823	-1.0328	-0.9899	-0.0313	-0.0123	-0.0515	31.7643	25.1923	-5.0853	-0.4036	-0.5354	-0.5132	0.5357
5.87	-9.5706	-1.0401	-0.9918	-0.0288	-0.0146	-0.0512	31.7874	25.4011	-5.2502	-0.4037	-0.5354	-0.5132	0.5357
5.88	-9.5597	-1.0508	-1.0019	-0.0340	-0.0096	-0.0468	31.7307	25.1210	-4.9237	-0.4037	-0.5354	-0.5133	0.5356
5.89	-9.5424	-1.0599	-1.0086	-0.0350	-0.0205	-0.0452	31.6702	25.3414	-4.9955	-0.4039	-0.5353	-0.5133	0.5356
5.9	-9.5470	-1.0677	-1.0097	-0.0335	-0.0134	-0.0498	31.6735	25.5602	-5.1555	-0.4039	-0.5352	-0.5133	0.5356
5.91	-9.5684	-1.0865	-1.0121	-0.0328	-0.0099	-0.0501	31.8168	25.2724	-5.1030	-0.4040	-0.5352	-0.5134	0.5356
5.92	-9.5628	-1.0974	-1.0169	-0.0307	-0.0121	-0.0428	31.8494	25.5553	-5.0148	-0.4041	-0.5351	-0.5134	0.5355
5.93	-9.5731	-1.0965	-1.0236	-0.0299	-0.0045	-0.0418	31.6711	25.4052	-5.0560	-0.4042	-0.5352	-0.5134	0.5354
5.94	-9.5901	-1.0987	-1.0263	-0.0288	-0.0044	-0.0456	31.6889	25.5359	-5.0223	-0.4042	-0.5351	-0.5134	0.5353
5.95	-9.5917	-1.1008	-1.0346	-0.0294	0.0030	-0.0441	31.5595	25.7261	-5.0750	-0.4043	-0.5352	-0.5135	0.5353
5.96	-9.6027	-1.0938	-1.0404	-0.0182	0.0036	-0.0460	31.6500	25.6724	-5.1996	-0.4043	-0.5352	-0.5135	0.5352
5.97	-9.6071	-1.0881	-1.0408	-0.0117	-0.0005	-0.0457	31.7825	25.6929	-5.2805	-0.4043	-0.5352	-0.5134	0.5351
5.98	-9.5991	-1.0844	-1.0417	-0.0111	-0.0067	-0.0448	31.7726	25.6943	-4.9455	-0.4043	-0.5353	-0.5135	0.5352
5.99	-9.6080	-1.0680	-1.0486	-0.0030	-0.0069	-0.0460	31.3273	25.5221	-4.7305	-0.4043	-0.5353	-0.5134	0.5351
6	-9.6177	-1.0581	-1.0516	-0.0041	-0.0079	-0.0463	31.6530	25.5631	-5.0279	-0.4043	-0.5354	-0.5134	0.5352
6.01	-9.6038	-1.0519	-1.0502	-0.0019	-0.0135	-0.0406	31.7866	25.7169	-5.1634	-0.4043	-0.5354	-0.5133	0.5351
6.02	-9.5984	-1.0412	-1.0422	-0.0020	-0.0183	-0.0419	31.6726	25.5508	-5.0896	-0.4044	-0.5354	-0.5132	0.5352
6.03	-9.5984	-1.0345	-1.0358	-0.0034	-0.0101	-0.0443	31.8400	25.4769	-5.0448	-0.4044	-0.5355	-0.5132	0.5352
6.04	-9.5938	-1.0214	-1.0336	-0.0053	-0.0164	-0.0441	31.9970	25.3131	-4.9418	-0.4044	-0.5354	-0.5131	0.5352
6.05	-9.6034	-1.0170	-1.0296	-0.0044	-0.0086	-0.0503	32.2856	25.4680	-4.9603	-0.4044	-0.5355	-0.5131	0.5353
6.06	-9.6001	-1.0068	-1.0296	-0.0127	-0.0127	-0.0483	32.1480	25.5241	-5.0331	-0.4044	-0.5355	-0.5130	0.5352
6.07	-9.5951	-0.9995	-1.0281	-0.0107	-0.0215	-0.0462	31.9971	25.5918	-4.9118	-0.4045	-0.5355	-0.5130	0.5353
6.08	-9.5969	-1.0004	-1.0237	-0.0134	-0.0221	-0.0453	31.8474	25.5686	-5.2409	-0.4045	-0.5354	-0.5129	0.5352
6.09	-9.5999	-0.9956	-1.0163	-0.0233	-0.0202	-0.0459	31.7608	25.4511	-5.0400	-0.4046	-0.5354	-0.5129	0.5353
6.1	-9.5898	-0.9965	-1.0131	-0.0255	-0.0184	-0.0466	31.7392	25.4597	-4.9053	-0.4047	-0.5354	-0.5129	0.5353
6.11	-9.5827	-1.0055	-1.0124	-0.0278	-0.0186	-0.0454	31.7564	25.5074	-5.2434	-0.4048	-0.5353	-0.5129	0.5352
6.12	-9.5887	-1.0112	-1.0140	-0.0292	-0.0169	-0.0423	31.6331	25.6821	-5.0927	-0.4049	-0.5353	-0.5129	0.5352
6.13	-9.5853	-1.0193	-1.0162	-0.0307	-0.0126	-0.0438	31.5462	25.5650	-5.0113	-0.4050	-0.5353	-0.5129	0.5351
6.14	-9.5828	-1.0326	-1.0082	-0.0299	-0.0202	-0.0435	31.5714	25.3644	-5.0284	-0.4051	-0.5353	-0.5129	0.5351
6.15	-9.5817	-1.0410	-1.0100	-0.0277	-0.0138	-0.0461	31.5508	25.3694	-5.0190	-0.4051	-0.5352	-0.5129	0.5350
6.16	-9.5797	-1.0507	-1.0137	-0.0319	-0.0074	-0.0482	31.6752	25.2735	-5.0177	-0.4052	-0.5352	-0.5130	0.5350
6.17	-9.5681	-1.0605	-1.0181	-0.0277	-0.0119	-0.0459	31.6373	25.5887	-5.2066	-0.4053	-0.5352	-0.5130	0.5350
6.18	-9.5677	-1.0686	-1.0135	-0.0303	-0.0103	-0.0480	31.6761	25.4372	-5.1532	-0.4054	-0.5352	-0.5130	0.5349
6.19	-9.5599	-1.0658	-1.0149	-0.0241	-0.0122	-0.0442	31.5347	25.5731	-4.9929	-0.4054	-0.5351	-0.5130	0.5349
6.2	-9.5613	-1.0606	-1.0110	-0.0233	-0.0112	-0.0486	31.7265	25.5024	-5.0593	-0.4055	-0.5351	-0.5130	0.5349
6.21	-9.5868	-1.0614	-1.0103	-0.0166	-0.0126	-0.0434	31.7152	25.4601	-5.1562	-0.4055	-0.5351	-0.5130	0.5348
6.22	-9.5893	-1.0563	-1.0121	-0.0068	-0.0151	-0.0451	31.9056	25.3746	-4.9974	-0.4055	-0.5351	-0.5129	0.5348
6.23	-9.5898	-1.0426	-1.0056	-0.0047	-0.0159	-0.0358	32.0358	25.3808	-5.1488	-0.4056	-0.5352	-0.5129	0.5349
6.24	-9.5822	-1.0296	-1.0129	-0.0046	-0.0134	-0.0420	31.8399	25.3349	-5.0620	-0.4056	-0.5352	-0.5128	0.5349
6.25	-9.6084	-1.0125	-1.0160	-0.0031	0.0036	-0.0407	31.8258	25.2585	-5.2664	-0.4056	-0.5353	-0.5128	0.5349
6.26	-9.6191	-0.9925	-1.0150	-0.0054	-0.0101	-0.0468	31.8405	25.2986	-5.3175	-0.4056	-0.5353	-0.5127	0.5348
6.27	-9.6049	-0.9841	-1.0129	-0.0049	-0.0097	-0.0453	31.6875	25.2643	-5.1541	-0.4056	-0.5353	-0.5127	0.5349
6.28	-9.6440	-0.9875	-1.0122	-0.0086	-0.0092	-0.0480	31.8323	25.3216	-5.2716	-0.4056	-0.5354	-0.5126	0.5349
6.29	-9.6488	-1.0001	-1.0057	-0.0159	-0.0121	-0.0551	31.7516	25.4706	-5.3264	-0.4056	-0.5353	-0.5126	0.5348
6.3	-9.6382	-1.0039	-0.9939	-0.0154	-0.0144	-0.0437	31.6476	25.4442	-5.1706	-0.4057	-0.5354	-0.5127	0.5349
6.31	-9.6317	-1.0004	-1.0040	-0.0121	-0.0132	-0.0501	31.6306	25.4840	-5.1082	-0.4057	-0.5353	-0.5126	0.5349
6.32	-9.5783	-1.0024	-0.9981	-0.0205	-0.0202	-0.0473	31.7355	25.3829	-5.1101	-0.4058	-0.5353	-0.5126	0.5349
6.33	-9.5510	-1.0030	-0.9931	-0.0306	-0.0237	-0.0449	31.7271	25.3647	-5.1215	-0.4058	-0.5352	-0.5125	0.5348
6.34	-9.5572	-1.0169	-0.9964	-0.0283	-0.0148	-0.0485	31.6732	25.4727	-5.2086	-0.4059	-0.5352	-0.5126	0.5349
6.35	-9.5529	-1.0207	-0.9941	-0.0295	-0.0120	-0.0446	31.7111	25.2900	-5.2481	-0.4060	-0.5351	-0.5126	0.5348
6.36	-9.5610	-1.0135	-0.9914	-0.0291	-0.0076	-0.0463	31.3245	25.2606	-5.3306	-0.4060	-0.5351	-0.5126	0.5348
6.37	-9.5661	-1.0048	-0.9976	-0.0273	-0.0029	-0.0478	31.6025	25.3919	-5.1795	-0.4061	-0.5351	-0.5127	0.5347
6.38	-9.5768	-0.9995	-1.0030	-0.0298	-0.0032	-0.0478	31.8101	25.4749	-5.2194	-0.4061	-0.5351	-0.5127	0.5347
6.39	-9.5836	-0.9992	-0.9975	-0.0263	-0.0096	-0.0619	31.6195	25.4531	-4.9781	-0.4062	-0.5350	-0.5128	0.5347
6.4	-9.5731	-1.0020	-1.0127	-0.0265	-0.0136	-0.0659	31.8390	25.4574	-5.2179	-0.4061	-0.5349	-0.5128	0.5346
6.41	-9.5740	-0.9994	-1.0061	-0.0301	-0.0141	-0.0590	31.9181	25.4621	-5.3064	-0.4062	-0.5349	-0.5129	0.5347
6.42	-9.5855	-0.9956	-1.0038	-0.0261	-0.0089	-0.0627	31.8065	25.4510	-5.1455	-0.4062	-0.5348	-0.5129	0.5346
6.43	-9.5857	-0.9844	-1.0087	-0.0280	-0.0124	-0.0625	31.8250	25.4743	-5.0301	-0.4063	-0.5348	-0.5130	0.5346
6.44	-9.5708	-0.9845	-1.0125	-0.0310	-0.0076	-0.0662	31.9496	25.4348	-5.0153	-0.4063	-0.5347	-0.5131	0.5346
6.45	-9.5781	-0.9910	-1.0150	-0.0278	0.0010	-0.0648	31.6069	25.5087	-5.1536	-0.4062	-0.5347	-0.5132	0.5346
6.46	-9.5961	-1.0009	-1.0170	-0.0430	-0.0059	-0.0688	31.6355	25.5162	-5.0823	-0.4063	-0.5346	-0.5133	0.5345
6.47	-9.5975	-1.0174	-1.0168	-0.0496	-0.0108	-0.0662	31.8879	25.3566	-5.2151	-0.4063	-0.5344	-0.5134	0.5344
6.48	-9.6017	-1.0391	-1.0163	-0.0482	-0.0095	-0.0669	31.6818	25.3623	-5.1985	-0.4064	-0.5344	-0.5136	0.5344
6.49	-9.6117	-1.0552	-1.0236	-0.0402	-0.0117	-0.0608	31.5108	25.4102	-4.9061	-0.4065	-0.5342	-0.5136	0.5343
6.5	-9.6122	-1.0602	-1.0236	-0.0353	-0.0049	-0.0585	31.6590	25.4823	-5.0149	-0.4065	-0.5342	-0.5138	0.5343
6.51	-9.6053	-1.0797	-1.0398	-0.0353	-0.0082	-0.0624	31.6412	25.4456	-5.0254	-0.4065	-0.5341	-0.5138	0.5342
6.52	-9.6006	-1.0894	-1.0366	-0.0333	-0.0090	-0.0616	31.6744	25.4631	-5.0304	-0.4066	-0.5341	-0.5139	0.5342
6.53	-9.6226	-1.0908	-1.0339	-0.0313	-0.0012	-0.0600	31.6003	25.4719	-4.9889	-0.4066	-0.5340	-0.5140	0.5342
6.54	-9.5647	-1.0861	-1.0312	-0.0301	-0.0050	-0.0600	31.8823	25.7359	-4.8273	-0.4066	-0.5339	-0.5140	0.5341
6.55	-9.6117	-1.0899	-1.0181	-0.0229	-0.0068	-0.0619	32.2558	25.7264	-4.8532	-0.4066	-0.5340	-0.5142	0.5342
6.56	-9.6441	-1.0834	-1.0399	-0.0186	-0.0153	-0.0634	32.1497	25.5921	-4.8274	-0.4066	-0.5339	-0.5141	0.5341
6.57	-9.5684	-1.0650	-1.0184	-0.0200	-0.0130	-0.0629	31.9812	25.5187	-4.8956	-0.4066	-0.5339	-0.5142	0.5342
6.58	-9.5673	-1.0614	-1.0178	-0.0077	-0.0123	-0.0649	31.6086	25.5461	-4.9989	-0.4065	-0.5338	-0.5142	0.5342
6.59	-9.5829	-1.0683	-1.0146	-0.0232	-0.0160	-0.0634	31.6626	25.4520	-5.0835	-0.4066	-0.5337	-0.5142	0.5342
6.6	-9.5941	-1.0738	-1.0082	-0.0172	-0.0119	-0.0583	31.6710	25.4393	-5.2878	-0.4066	-0.5337	-0.5143	0.5342
6.61	-9.5989	-1.0622	-1.0147	-0.0138	-0.0098	-0.0522	31.7503	25.4617	-4.7933	-0.4066	-0.5337	-0.5142	0.5342
6.62	-9.6099	-1.0446	-1.0068	-0.0208	-0.0186	-0.0442	31.8705	25.4340	-5.1068	-0.4067	-0.5337	-0.5142	0.5342
6.63	-9.6338	-1.0343	-1.0053	-0.0274	-0.0168	-0.0378	31.7267	25.2231	-4.9264	-0.4068	-0.5336	-0.5142	0.5342
6.64	-9.6185	-1.0340	-1.0089	-0.0307	-0.0149	-0.0501	31.5906	25.5378	-5.1160	-0.4069	-0.5336	-0.5143	0.5342
6.65	-9.6068	-1.0511	-1.0048	-0.0276	-0.0249	-0.0510	31.6525	25.5211	-5.3742	-0.4069	-0.5335	-0.5142	0.5341
6.66	-9.5837	-1.0595	-1.0036	-0.0286	-0.0205	-0.0571	32.0287	25.5619	-5.1662	-0.4070	-0.5335	-0.5143	0.5342
6.67	-9.5582	-1.0613	-0.9936	-0.0302	-0.0227	-0.0547	31.5266	25.4712	-5.2692	-0.4071	-0.5334	-0.5143	0.5341
6.68	-9.5746	-1.0702	-0.9981	-0.0302	-0.0271	-0.0438	31.2689	25.4787	-5.1265	-0.4072	-0.5333	-0.5143	0.5341
6.69	-9.5666	-1.0700	-1.0004	-0.0299	-0.0184	-0.0468	31.5390	25.7506	-5.1451	-0.4073	-0.5333	-0.5143	0.5341
6.7	-9.5655	-1.0675	-0.9871	-0.0309	-0.0130	-0.0463	31.6015	25.6810	-5.1124	-0.4073	-0.5332	-0.5143	0.5340
6.71	-9.5886	-1.0668	-0.9926	-0.0296	-0.0172	-0.0490	31.5882	25.5747	-4.7851	-0.4074	-0.5332	-0.5143	0.5340
6.72	-9.5840	-1.0690	-0.9853	-0.0297	-0.0167	-0.0472	31.5838	25.7525	-5.0791	-0.4075	-0.5331	-0.5143	0.5339
6.73	-9.5880	-1.0792	-0.9866	-0.0301	-0.0114	-0.0456	31.7026	25.5515	-4.9907	-0.4076	-0.5331	-0.5144	0.5340
6.74	-9.5829	-1.0777	-0.9881	-0.0286	-0.0133	-0.0421	31.5046	25.4610	-4.8469	-0.4077	-0.5331	-0.5144	0.5339
6.75	-9.5820	-1.0698	-0.9818	-0.0229	-0.0074	-0.0462	31.5240	25.5700	-5.2835	-0.4077	-0.5331	-0.5144	0.5339
6.76	-9.5860	-1.0761	-0.9869	-0.0275	-0.0177	-0.0400	31.3765	25.4424	-5.0849	-0.4078	-0.5331	-0.5144	0.5338
6.77	-9.5665	-1.0750	-0.9837	-0.0213	-0.0142	-0.0400	31.5864	25.4069	-5.1848	-0.4079	-0.5331	-0.5144	0.5338
6.78	-9.5614	-1.0619	-0.9819	-0.0190	-0.0137	-0.0377	31.8700	25.2096	-5.1857	-0.4079	-0.5331	-0.5143	0.5338
6.79	-9.5606	-1.0529	-0.9833	-0.0107	-0.0157	-0.0372	31.5524	25.3316	-5.0221	-0.4080	-0.5331	-0.5142	0.5337
6.8	-9.5526	-1.0383	-0.9826	-0.0064	-0.0060	-0.0372	31.6177	25.0159	-5.0245	-0.4080	-0.5332	-0.5143	0.5338
6.81	-9.5602	-1.0303	-0.9856	-0.0042	-0.0032	-0.0425	31.6711	25.2113	-5.0446	-0.4080	-0.5331	-0.5142	0.5338
6.82	-9.5725	-1.0260	-0.9886	-0.0042	0.0012	-0.0460	31.5193	25.4972	-5.0070	-0.4080	-0.5332	-0.5142	0.5338
6.83	-9.5828	-1.0191	-1.0001	-0.0037	0.0107	-0.0435	31.8121	25.3274	-5.1555	-0.4079	-0.5332	-0.5141	0.5337
6.84	-9.5878	-1.0109	-0.9993	-0.0039	0.0002	-0.0459	31.7176	25.4992	-5.1934	-0.4079	-0.5334	-0.5142	0.5337
6.85	-9.5907	-0.9977	-1.0024	-0.0031	0.0008	-0.0466	31.6921	25.3705	-4.9673	-0.4078	-0.5334	-0.5141	0.5337
6.86	-9.6044	-0.9922	-1.0060	-0.0052	-0.0011	-0.0421	31.5918	25.4052	-5.1362	-0.4078	-0.5335	-0.5141	0.5337
6.87	-9.6061	-0.9864	-1.0110	-0.0095	-0.0046	-0.0448	31.5151	25.6662	-5.1439	-0.4078	-0.5335	-0.5141	0.5337
6.88	-9.6129	-0.9821	-1.0064	-0.0119	-0.0017	-0.0437	31.5695	25.5867	-5.2362	-0.4078	-0.5336	-0.5141	0.5336
6.89	-9.6159	-0.9936	-1.0150	-0.0233	-0.0079	-0.0498	31.5123	25.7009	-5.0304	-0.4079	-0.5336	-0.5141	0.5336
6.9	-9.6055	-0.9900	-1.0201	-0.0207	-0.0064	-0.0490	31.7309	25.6592	-5.0518	-0.4078	-0.5335	-0.5141	0.5335
6.91	-9.6086	-0.9883	-1.0168	-0.0242	-0.0070	-0.0506	31.4215	25.3570	-5.0235	-0.4079	-0.5336	-0.5142	0.5335
6.92	-9.6109	-1.0009	-1.0208	-0.0293	-0.0093	-0.0587	31.4205	25.4306	-4.8979	-0.4079	-0.5335	-0.5142	0.5335
6.93	-9.6055	-1.0096	-1.0168	-0.0295	-0.0107	-0.0569	31.3981	25.6592	-5.0509	-0.4080	-0.5334	-0.5143	0.5335
6.94	-9.6118	-1.0063	-1.0185	-0.0250	-0.0040	-0.0554	31.4311	25.5151	-5.0270	-0.4080	-0.5334	-0.5143	0.5334
6.95	-9.6011	-1.0096	-1.0157	-0.0263	-0.0135	-0.0533	31.4953	25.4112	-5.0651	-0.4080	-0.5334	-0.5143	0.5334
6.96	-9.5953	-1.0146	-1.0098	-0.0275	-0.0158	-0.0549	31.5716	25.3270	-4.9538	-0.4081	-0.5333	-0.5144	0.5334
6.97	-9.5989	-1.0217	-1.0098	-0.0246	-0.0140	-0.0618	31.9054	25.4037	-5.0025	-0.4080	-0.5332	-0.5144	0.5333
6.98	-9.5999	-1.0249	-1.0156	-0.0302	-0.0125	-0.0543	31.7088	25.1993	-5.2716	-0.4081	-0.5332	-0.5145	0.5334
6.99	-9.5892	-1.0275	-1.0072	-0.0271	-0.0160	-0.0518	31.8473	25.1088	-5.0059	-0.4082	-0.5331	-0.5145	0.5333
7	-9.5870	-1.0354	-1.0067	-0.0266	-0.0137	-0.0545	31.7915	25.4882	-5.1185	-0.4082	-0.5331	-0.5146	0.5334
7.01	-9.5866	-1.0370	-1.0057	-0.0285	-0.0107	-0.0516	31.7644	25.3436	-5.1342	-0.4082	-0.5330	-0.5145	0.5333
7.02	-9.5752	-1.0374	-1.0011	-0.0293	-0.0122	-0.0468	31.6291	25.2478	-4.9992	-0.4083	-0.5330	-0.5146	0.5333
7.03	-9.5622	-1.0436	-1.0038	-0.0294	-0.0109	-0.0442	31.7851	25.3154	-5.2581	-0.4084	-0.5330	-0.5146	0.5332
7.04	-9.5616	-1.0520	-0.9987	-0.0289	-0.0127	-0.0544	31.9579	25.4505	-5.0568	-0.4084	-0.5329	-0.5146	0.5331
7.05	-9.5720	-1.0575	-1.0013	-0.0284	-0.0169	-0.0448	31.9619	25.5529	-4.8152	-0.4085	-0.5330	-0.5147	0.5332
7.06	-9.5564	-1.0547	-1.0057	-0.0311	-0.0109	-0.0511	31.7588	25.5297	-4.8757	-0.4086	-0.5329	-0.5147	0.5331
7.07	-9.5530	-1.0568	-1.0008	-0.0211	0.0011	-0.0492	31.7100	25.3413	-5.0706	-0.4086	-0.5329	-0.5148	0.5331
7.08	-9.5689	-1.0454	-1.0019	-0.0248	0.0014	-0.0481	31.5783	25.3979	-4.9791	-0.4086	-0.5328	-0.5147	0.5330
7.09	-9.5870	-1.0486	-0.9999	-0.0180	-0.0042	-0.0540	31.4077	25.4909	-5.0360	-0.4086	-0.5329	-0.5148	0.5330
7.1	-9.6048	-1.0476	-1.0099	-0.0144	-0.0015	-0.0442	31.4984	25.4402	-5.1665	-0.4086	-0.5329	-0.5148	0.5329
7.11	-9.5927	-1.0419	-1.0104	-0.0033	0.0043	-0.0452	31.5237	25.4678	-4.9961	-0.4085	-0.5330	-0.5148	0.5329
7.12	-9.5980	-1.0237	-1.0140	-0.0073	-0.0039	-0.0435	31.6918	25.4461	-5.0443	-0.4085	-0.5330	-0.5148	0.5329
7.13	-9.6252	-1.0091	-1.0118	-0.0059	-0.0045	-0.0429	31.6215	25.4796	-5.2370	-0.4085	-0.5331	-0.5147	0.5329
7.14	-9.6223	-1.0003	-1.0073	-0.0124	-0.0045	-0.0477	31.5093	25.6027	-4.9857	-0.4085	-0.5331	-0.5147	0.5329
7.15	-9.5958	-1.0005	-1.0073	-0.0202	-0.0072	-0.0478	31.7712	25.3514	-5.1156	-0.4085	-0.5331	-0.5147	0.5328
7.16	-9.6243	-1.0122	-1.0115	-0.0129	-0.0116	-0.0469	31.7035	25.2750	-5.2122	-0.4086	-0.5331	-0.5147	0.5329
7.17	-9.6289	-1.0221	-1.0090	-0.0258	-0.0150	-0.0455	31.6742	25.4356	-5.1952	-0.4086	-0.5331	-0.5147	0.5328
7.18	-9.6149	-1.0225	-1.0028	-0.0267	-0.0146	-0.0462	31.8238	25.4860	-5.2141	-0.4087	-0.5331	-0.5148	0.5328
7.19	-9.5621	-1.0094	-1.0044	-0.0244	-0.0143	-0.0387	31.9461	25.3366	-5.0978	-0.4087	-0.5330	-0.5147	0.5327
7.2	-9.5252	-1.0295	-1.0028	-0.0314	-0.0088	-0.0389	32.0013	25.4261	-5.1053	-0.4088	-0.5330	-0.5147	0.5327
7.21	-9.5492	-1.0459	-1.0164	-0.0253	-0.0080	-0.0414	31.8738	25.6242	-5.1187	-0.4089	-0.5330	-0.5148	0.5327
7.22	-9.5622	-1.0349	-1.0183	-0.0166	-0.0071	-0.0353	31.6441	25.3529	-5.1025	-0.4089	-0.5330	-0.5147	0.5326
7.23	-9.5764	-1.0200	-1.0171	-0.0168	-0.0007	-0.0353	31.6660	25.2727	-5.0141	-0.4090	-0.5332	-0.5147	0.5326
7.24	-9.5954	-1.0076	-1.0301	-0.0141	0.0037	-0.0386	31.9218	25.4420	-5.1415	-0.4090	-0.5332	-0.5147	0.5325
7.25	-9.6151	-0.9901	-1.0319	-0.0123	0.0012	-0.0492	31.9424	25.4660	-5.0788	-0.4090	-0.5333	-0.5147	0.5325
7.26	-9.6171	-0.9826	-1.0305	-0.0055	-0.0012	-0.0566	31.7409	25.4607	-5.2269	-0.4089	-0.5332	-0.5147	0.5324
7.27	-9.6014	-0.9771	-1.0362	-0.0058	-0.0073	-0.0669	31.6083	25.3279	-5.0477	-0.4088	-0.5333	-0.5147	0.5325
7.28	-9.5782	-0.9648	-1.0306	-0.0104	-0.0072	-0.0683	31.7280	25.4437	-4.8334	-0.4088	-0.5332	-0.5148	0.5326
7.29	-9.5924	-0.9568	-1.0262	-0.0100	-0.0020	-0.0729	31.7521	25.4570	-5.1534	-0.4086	-0.5332	-0.5148	0.5326
7.3	-9.6124	-0.9505	-1.0402	-0.0246	-0.0038	-0.0746	31.6449	25.4719	-4.9552	-0.4086	-0.5332	-0.5150	0.5326
7.31	-9.5949	-0.9591	-1.0424	-0.0294	-0.0061	-0.0714	31.7964	25.4281	-4.9865	-0.4086	-0.5331	-0.5150	0.5326
7.32	-9.5957	-0.9729	-1.0391	-0.0295	-0.0069	-0.0663	31.8829	25.5541	-5.1793	-0.4086	-0.5330	-0.5151	0.5326
7.33	-9.5949	-1.0030	-1.0417	-0.0341	-0.0117	-0.0667	31.6211	25.4486	-4.9770	-0.4086	-0.5329	-0.5152	0.5325
7.34	-9.5881	-1.0413	-1.0383	-0.0469	-0.0089	-0.0703	31.6927	25.3707	-5.1602	-0.4086	-0.5328	-0.5153	0.5325
7.35	-9.6057	-1.0593	-1.0419	-0.0441	-0.0094	-0.0721	31.9055	25.4878	-5.2406	-0.4087	-0.5327	-0.5155	0.5325
7.36	-9.6098	-1.0710	-1.0439	-0.0462	-0.0081	-0.0644	31.7153	25.4564	-5.3674	-0.4087	-0.5326	-0.5156	0.5324
7.37	-9.6147	-1.0839	-1.0430	-0.0388	-0.0090	-0.0591	31.7677	25.2697	-4.9160	-0.4088	-0.5325	-0.5157	0.5324
7.38	-9.6124	-1.1015	-1.0420	-0.0355	-0.0121	-0.0608	31.8363	25.2941	-5.1414	-0.4088	-0.5325	-0.5158	0.5323
7.39	-9.6013	-1.1079	-1.0462	-0.0329	-0.0198	-0.0575	31.8518	25.4582	-5.1229	-0.4089	-0.5324	-0.5158	0.5323
7.4	-9.5962	-1.1080	-1.0472	-0.0231	-0.0149	-0.0589	31.7368	25.5276	-4.8629	-0.4088	-0.5323	-0.5158	0.5323
7.41	-9.5876	-1.1140	-1.0486	-0.0260	-0.0098	-0.0564	31.6485	25.4809	-5.0897	-0.4089	-0.5323	-0.5159	0.5323
7.42	-9.5581	-1.0967	-1.0359	-0.0190	-0.0159	-0.0526	31.8040	25.3801	-5.0884	-0.4089	-0.5323	-0.5159	0.5323
7.43	-9.6305	-1.1000	-1.0449	-0.0089	-0.0152	-0.0481	31.8819	25.4502	-4.8872	-0.4089	-0.5323	-0.5159	0.5323
7.44	-9.6007	-1.0957	-1.0445	-0.0054	-0.0216	-0.0508	31.5964	25.4411	-5.1490	-0.4089	-0.5322	-0.5158	0.5324
7.45	-9.5558	-1.0727	-1.0224	-0.0031	-0.0196	-0.0459	31.6129	25.5158	-4.9376	-0.4089	-0.5323	-0.5157	0.5324
7.46	-9.5916	-1.0593	-1.0287	-0.0056	-0.0079	-0.0518	31.8081	25.4657	-4.9794	-0.4089	-0.5323	-0.5157	0.5324
7.47	-9.6118	-1.0710	-1.0288	-0.0106	-0.0069	-0.0503	31.6324	25.2853	-5.0319	-0.4089	-0.5323	-0.5157	0.5324
7.48	-9.5588	-1.0802	-1.0285	-0.0067	-0.0212	-0.0401	31.6588	25.7534	-5.0173	-0.4090	-0.5324	-0.5157	0.5325
7.49	-9.5877	-1.0350	-1.0161	-0.0077	-0.0109	-0.0342	31.6733	25.6382	-5.0233	-0.4090	-0.5324	-0.5156	0.5324
7.5	-9.6170	-1.0192	-1.0230	-0.0033	-0.0104	-0.0373	31.5818	25.4477	-5.0240	-0.4090	-0.5325	-0.5156	0.5325
7.51	-9.6042	-1.0173	-1.0246	-0.0033	-0.0157	-0.0388	31.5598	25.4527	-5.0038	-0.4090	-0.5324	-0.5154	0.5324
7.52	-9.6195	-1.0121	-1.0162	-0.0052	-0.0197	-0.0421	31.5596	25.5873	-5.0517	-0.4090	-0.5325	-0.5154	0.5325
7.53	-9.6114	-1.0212	-1.0209	-0.0094	-0.0197	-0.0462	31.7909	25.4684	-4.9413	-0.4090	-0.5325	-0.5153	0.5325
7.54	-9.5857	-1.0198	-1.0171	-0.0126	-0.0178	-0.0551	31.8873	25.5239	-4.9359	-0.4090	-0.5324	-0.5153	0.5325
7.55	-9.5920	-1.0152	-1.0160	-0.0181	-0.0143	-0.0510	32.2773	25.5788	-4.8908	-0.4091	-0.5325	-0.5154	0.5326
7.56	-9.5966	-1.0092	-1.0167	-0.0240	-0.0209	-0.0480	32.3528	25.3744	-4.8581	-0.4091	-0.5324	-0.5153	0.5325
7.57	-9.6032	-1.0079	-1.0150	-0.0225	-0.0222	-0.0513	32.0314	25.3797	-4.9755	-0.4092	-0.5324	-0.5153	0.5326
7.58	-9.6017	-1.0155	-1.0137	-0.0263	-0.0257	-0.0469	31.7073	25.3621	-5.1187	-0.4092	-0.5323	-0.5153	0.5325
7.59	-9.6014	-1.0236	-1.0003	-0.0296	-0.0268	-0.0464	31.7449	25.2627	-5.0684	-0.4094	-0.5323	-0.5153	0.5326
7.6	-9.6027	-1.0312	-1.0044	-0.0288	-0.0274	-0.0488	31.7453	25.2621	-5.1155	-0.4095	-0.5322	-0.5153	0.5326
7.61	-9.6009	-1.0410	-0.9979	-0.0294	-0.0283	-0.0440	31.6300	25.2718	-5.2638	-0.4096	-0.5321	-0.5153	0.5325
7.62	-9.6025	-1.0444	-0.9936	-0.0290	-0.0297	-0.0466	31.8124	25.2406	-5.0934	-0.4097	-0.5321	-0.5153	0.5326
7.63	-9.6023	-1.0498	-0.9831	-0.0289	-0.0315	-0.0447	31.7240	25.4497	-5.3943	-0.4098	-0.5320	-0.5152	0.5325
7.64	-9.5910	-1.0505	-0.9763	-0.0293	-0.0350	-0.0475	31.6334	25.5515	-5.2164	-0.4099	-0.5319	-0.5152	0.5326
7.65	-9.5668	-1.0496	-0.9760	-0.0270	-0.0331	-0.0477	31.4629	25.5071	-5.2264	-0.4100	-0.5318	-0.5151	0.5325
7.66	-9.5522	-1.0508	-0.9714	-0.0231	-0.0263	-0.0518	31.6624	25.7390	-5.1141	-0.4101	-0.5318	-0.5152	0.5327
7.67	-9.5444	-1.0466	-0.9726	-0.0252	-0.0221	-0.0542	31.6306	25.6997	-5.1523	-0.4101	-0.5317	-0.5152	0.5327
7.68	-9.5396	-1.0361	-0.9703	-0.0226	-0.0183	-0.0540	31.6306	25.6468	-5.3570	-0.4101	-0.5316	-0.5152	0.5327
7.69	-9.5544	-1.0361	-0.9665	-0.0173	-0.0083	-0.0563	31.8121	25.5064	-5.1678	-0.4101	-0.5316	-0.5152	0.5327
7.7	-9.5613	-1.0318	-0.9668	-0.0212	-0.0075	-0.0554	31.6038	25.4078	-5.1749	-0.4101	-0.5315	-0.5153	0.5327
7.71	-9.5802	-1.0269	-0.9618	-0.0122	-0.0151	-0.0504	31.6122	25.2914	-5.3856	-0.4101	-0.5315	-0.5153	0.5327
7.72	-9.5981	-1.0235	-0.9649	-0.0042	-0.0121	-0.0528	31.8680	25.1574	-5.5113	-0.4101	-0.5315	-0.5152	0.5327
7.73	-9.5908	-1.0222	-0.9641	-0.0176	-0.0115	-0.0514	31.8519	25.2941	-5.3347	-0.4101	-0.5316	-0.5153	0.5328
7.74	-9.5784	-1.0217	-0.9629	-0.0222	-0.0139	-0.0535	31.8688	25.0760	-5.2115	-0.4101	-0.5315	-0.5152	0.5327
7.75	-9.5808	-1.0194	-0.9663	-0.0247	-0.0062	-0.0461	31.8021	25.1692	-5.3443	-0.4102	-0.5316	-0.5153	0.5327
7.76	-9.5682	-1.0225	-0.9688	-0.0260	-0.0118	-0.0443	31.6526	25.1624	-5.2835	-0.4102	-0.5315	-0.5152	0.5326
7.77	-9.5689	-1.0250	-0.9701	-0.0250	-0.0077	-0.0473	31.6977	25.2141	-5.3130	-0.4103	-0.5315	-0.5153	0.5326
7.78	-9.5828	-1.0320	-0.9800	-0.0281	-0.0037	-0.0530	31.8374	25.4241	-5.5141	-0.4103	-0.5315	-0.5153	0.5326
7.79	-9.5894	-1.0420	-0.9837	-0.0251	-0.0096	-0.0431	31.8875	25.2154	-5.3239	-0.4103	-0.5315	-0.5153	0.5325
7.8	-9.5972	-1.0486	-0.9849	-0.0265	-0.0077	-0.0438	31.6313	25.4972	-5.2957	-0.4104	-0.5315	-0.5154	0.5325
7.81	-9.6042	-1.0467	-0.9801	-0.0302	-0.0090	-0.0493	31.5992	25.5136	-5.3226	-0.4104	-0.5315	-0.5154	0.5324
7.82	-9.6036	-1.0534	-0.9920	-0.0230	-0.0072	-0.0462	31.7777	25.3396	-5.3098	-0.4105	-0.5315	-0.5155	0.5324
7.83	-9.5987	-1.0537	-0.9901	-0.0256	-0.0045	-0.0438	31.7709	25.4273	-5.2280	-0.4104	-0.5314	-0.5154	0.5323
7.84	-9.6028	-1.0516	-0.9853	-0.0285	-0.0025	-0.0462	31.5418	25.5756	-5.1989	-0.4105	-0.5315	-0.5155	0.5323
7.85	-9.5939	-1.0455	-0.9895	-0.0302	-0.0110	-0.0512	31.6384	25.6114	-5.0939	-0.4105	-0.5315	-0.5155	0.5322
7.86	-9.5909	-1.0394	-0.9861	-0.0189	-0.0087	-0.0468	31.4751	25.3398	-5.2135	-0.4106	-0.5314	-0.5155	0.5322
7.87	-9.5816	-1.0319	-0.9861	-0.0158	-0.0070	-0.0488	31.6265	25.4309	-5.2246	-0.4106	-0.5315	-0.5156	0.5322
7.88	-9.5821	-1.0221	-0.9902	-0.0174	-0.0074	-0.0471	31.6691	25.7370	-5.3552	-0.4106	-0.5315	-0.5155	0.5321
7.89	-9.5809	-1.0140	-0.9884	-0.0120	-0.0111	-0.0430	31.5479	25.5519	-5.2445	-0.4106	-0.5315	-0.5155	0.5321
7.9	-9.5754	-1.0115	-0.9914	-0.0174	-0.0101	-0.0499	31.6899	25.1375	-5.1891	-0.4106	-0.5315	-0.5155	0.5321
7.91	-9.5898	-1.0037	-0.9961	-0.0200	-0.0100	-0.0448	31.6755	25.1789	-5.2406	-0.4106	-0.5315	-0.5155	0.5321
7.92	-9.5949	-0.9997	-0.9913	-0.0174	-0.0044	-0.0499	31.9987	25.2052	-5.3219	-0.4106	-0.5315	-0.5155	0.5321
7.93	-9.5903	-0.9943	-0.9977	-0.0259	-0.0091	-0.0422	31.7809	25.3141	-5.2979	-0.4107	-0.5315	-0.5156	0.5320
7.94	-9.5901	-0.9921	-1.0005	-0.0288	-0.0087	-0.0502	31.7583	25.1221	-5.3116	-0.4107	-0.5315	-0.5156	0.5319
7.95	-9.6063	-0.9957	-1.0000	-0.0230	-0.0101	-0.0536	31.8865	25.2493	-5.1639	-0.4107	-0.5315	-0.5156	0.5319
7.96	-9.6131	-1.0011	-1.0009	-0.0249	-0.0088	-0.0490	31.6426	25.4009	-5.3012	-0.4108	-0.5315	-0.5156	0.5319
7.97	-9.6080	-1.0130	-1.0091	-0.0301	-0.0078	-0.0502	31.7873	25.2433	-5.2593	-0.4108	-0.5314	-0.5156	0.5318
7.98	-9.5849	-1.0232	-1.0144	-0.0284	-0.0107	-0.0510	31.7391	25.3730	-4.8424	-0.4109	-0.5315	-0.5157	0.5319
7.99	-9.5959	-1.0165	-1.0124	-0.0286	-0.0130	-0.0423	31.6921	25.3516	-4.9052	-0.4109	-0.5314	-0.5157	0.5318
8	-9.6217	-1.0074	-1.0086	-0.0267	-0.0089	-0.0514	31.8320	25.3414	-5.2135	-0.4110	-0.5314	-0.5158	0.5318
8.01	-9.6026	-1.0123	-1.0007	-0.0305	-0.0059	-0.0581	31.5501	25.4390	-5.2326	-0.4109	-0.5313	-0.5158	0.5317
8.02	-9.6051	-1.0260	-1.0005	-0.0281	-0.0097	-0.0535	31.6228	25.6730	-5.1994	-0.4110	-0.5313	-0.5159	0.5317
8.03	-9.6205	-1.0465	-1.0042	-0.0294	-0.0063	-0.0504	31.5286	25.5397	-5.2739	-0.4110	-0.5313	-0.5159	0.5316
8.04	-9.6106	-1.0550	-0.9979	-0.0252	-0.0144	-0.0510	31.5226	25.5156	-5.0263	-0.4110	-0.5313	-0.5159	0.5316
8.05	-9.5989	-1.0482	-0.9981	-0.0259	-0.0221	-0.0438	31.9631	25.5431	-5.0535	-0.4111	-0.5313	-0.5160	0.5316
8.06	-9.5473	-1.0502	-1.0072	-0.0277	-0.0128	-0.0439	32.0170	25.5077	-5.2766	-0.4112	-0.5312	-0.5159	0.5315
8.07	-9.5211	-1.0619	-1.0101	-0.0167	-0.0054	-0.0423	31.8288	25.4227	-5.1948	-0.4112	-0.5313	-0.5159	0.5316
8.08	-9.5393	-1.0628	-1.0157	-0.0150	-0.0069	-0.0362	31.6287	25.4578	-5.1405	-0.4112	-0.5312	-0.5158	0.5315
8.09	-9.5648	-1.0499	-1.0199	-0.0044	0.0045	-0.0352	31.8504	25.4840	-5.3947	-0.4112	-0.5314	-0.5159	0.5315
8.1	-9.5860	-1.0251	-1.0254	-0.0040	0.0059	-0.0327	32.0957	25.2438	-5.4626	-0.4112	-0.5315	-0.5158	0.5314
8.11	-9.6238	-1.0043	-1.0290	-0.0014	0.0002	-0.0450	31.8715	25.4047	-5.2818	-0.4111	-0.5316	-0.5157	0.5314
8.12	-9.6414	-0.9786	-1.0289	-0.0011	-0.0054	-0.0458	31.9679	25.1236	-5.2749	-0.4111	-0.5317	-0.5157	0.5314
8.13	-9.6360	-0.9625	-1.0242	0.0027	-0.0113	-0.0546	31.8183	25.1758	-5.1964	-0.4110	-0.5317	-0.5157	0.5314
8.14	-9.6074	-0.9525	-1.0205	-0.0023	-0.0090	-0.0690	31.7487	25.5063	-5.3565	-0.4110	-0.5317	-0.5157	0.5315
8.15	-9.5859	-0.9436	-1.0254	-0.0030	-0.0143	-0.0656	31.9732	25.3574	-5.1609	-0.4108	-0.5316	-0.5156	0.5315
8.16	-9.5836	-0.9291	-1.0332	-0.0097	-0.0113	-0.0595	31.5455	25.3428	-5.3486	-0.4108	-0.5317	-0.5157	0.5316
8.17	-9.5832	-0.9243	-1.0299	-0.0176	-0.0135	-0.0609	31.5970	25.2765	-5.3847	-0.4108	-0.5316	-0.5157	0.5316
8.18	-9.5875	-0.9375	-1.0293	-0.0295	-0.0121	-0.0667	31.4563	25.4771	-5.4153	-0.4108	-0.5316	-0.5158	0.5317
8.19	-9.6086	-0.9540	-1.0372	-0.0389	-0.0061	-0.0661	31.5773	25.3508	-5.1736	-0.4108	-0.5315	-0.5159	0.5316
8.2	-9.6337	-0.9807	-1.0419	-0.0503	-0.0046	-0.0672	31.6639	25.4821	-5.2333	-0.4109	-0.5314	-0.5160	0.5315
8.21	-9.6489	-1.0119	-1.0434	-0.0592	-0.0128	-0.0629	31.8566	25.4381	-5.3285	-0.4109	-0.5313	-0.5162	0.5315
8.22	-9.6545	-1.0428	-1.0380	-0.0562	-0.0205	-0.0635	31.6518	25.4633	-5.2704	-0.4110	-0.5311	-0.5162	0.5313
8.23	-9.6570	-1.0724	-1.0288	-0.0535	-0.0278	-0.0632	31.5556	25.4386	-5.2249	-0.4112	-0.5310	-0.5164	0.5314
8.24	-9.6412	-1.1045	-1.0249	-0.0547	-0.0342	-0.0590	31.6715	25.3375	-5.2995	-0.4113	-0.5309	-0.5165	0.5313
8.25	-9.6193	-1.1209	-1.0274	-0.0547	-0.0321	-0.0586	31.4222	25.6501	-5.3246	-0.4115	-0.5307	-0.5166	0.5313
8.26	-9.5867	-1.1335	-1.0150	-0.0384	-0.0363	-0.0619	31.6723	25.5218	-5.1768	-0.4115	-0.5305	-0.5166	0.5313
8.27	-9.5857	-1.1423	-1.0102	-0.0285	-0.0382	-0.0644	31.8811	25.4545	-5.1295	-0.4116	-0.5304	-0.5166	0.5314
8.28	-9.5446	-1.1332	-0.9999	-0.0286	-0.0401	-0.0577	31.7566	25.4080	-5.2130	-0.4117	-0.5303	-0.5166	0.5314
8.29	-9.5609	-1.1214	-0.9798	-0.0248	-0.0272	-0.0597	31.7225	25.3324	-5.2673	-0.4117	-0.5302	-0.5166	0.5314
8.3	-9.6366	-1.1199	-0.9927	-0.0125	-0.0214	-0.0575	31.8445	25.4915	-5.4105	-0.4118	-0.5302	-0.5166	0.5316
8.31	-9.5735	-1.1028	-0.9720	-0.0059	-0.0329	-0.0559	31.9688	25.1363	-5.3792	-0.4118	-0.5301	-0.5165	0.5316
8.32	-9.5583	-1.0787	-0.9625	-0.0054	-0.0317	-0.0429	31.7809	25.3425	-5.3394	-0.4118	-0.5301	-0.5165	0.5317
8.33	-9.5827	-1.0769	-0.9698	-0.0023	-0.0319	-0.0545	31.6366	25.3713	-5.1648	-0.4118	-0.5300	-0.5163	0.5317
8.34	-9.5868	-1.0801	-0.9637	-0.0042	-0.0243	-0.0461	31.5270	25.3681	-5.4683	-0.4118	-0.5301	-0.5163	0.5318
8.35	-9.5797	-1.0612	-0.9623	-0.0011	-0.0228	-0.0345	31.6252	25.3365	-5.2798	-0.4119	-0.5301	-0.5162	0.5319
8.36	-9.5836	-1.0228	-0.9598	-0.0035	-0.0229	-0.0319	31.6442	25.4746	-5.3938	-0.4119	-0.5302	-0.5161	0.5319
8.37	-9.6013	-1.0061	-0.9529	-0.0060	-0.0277	-0.0383	31.7586	25.2353	-5.2737	-0.4120	-0.5302	-0.5160	0.5319
8.38	-9.6204	-1.0091	-0.9508	-0.0029	-0.0249	-0.0425	31.8315	25.2147	-5.1787	-0.4120	-0.5302	-0.5159	0.5320
8.39	-9.6174	-1.0100	-0.9482	-0.0036	-0.0320	-0.0459	31.6438	25.5050	-5.2011	-0.4121	-0.5302	-0.5158	0.5321
8.4	-9.5867	-1.0023	-0.9425	-0.0028	-0.0269	-0.0489	31.6484	25.3301	-5.2808	-0.4120	-0.5301	-0.5157	0.5321
8.41	-9.5788	-0.9920	-0.9392	-0.0056	-0.0293	-0.0425	31.6521	25.5015	-5.4212	-0.4121	-0.5302	-0.5157	0.5322
8.42	-9.5813	-0.9833	-0.9356	-0.0128	-0.0326	-0.0450	31.8099	25.5323	-5.5234	-0.4122	-0.5301	-0.5156	0.5322
8.43	-9.5828	-0.9829	-0.9335	-0.0126	-0.0223	-0.0463	31.8456	25.3299	-5.3745	-0.4122	-0.5302	-0.5155	0.5322
8.44	-9.5872	-0.9858	-0.9371	-0.0186	-0.0252	-0.0436	31.7255	25.4835	-5.4113	-0.4122	-0.5301	-0.5155	0.5322
8.45	-9.5878	-0.9880	-0.9355	-0.0268	-0.0207	-0.0419	31.7455	25.5329	-5.3358	-0.4123	-0.5301	-0.5155	0.5322
8.46	-9.5950	-0.9930	-0.9340	-0.0270	-0.0235	-0.0383	31.7286	25.3862	-5.3272	-0.4124	-0.5301	-0.5155	0.5322
8.47	-9.6117	-1.0075	-0.9425	-0.0262	-0.0232	-0.0354	31.8028	25.2682	-5.4888	-0.4125	-0.5300	-0.5154	0.5321
8.48	-9.6200	-1.0174	-0.9393	-0.0245	-0.0240	-0.0452	31.9653	25.2904	-5.3836	-0.4126	-0.5301	-0.5154	0.5322
8.49	-9.6168	-1.0233	-0.9311	-0.0300	-0.0247	-0.0470	31.8432	25.2440	-5.3283	-0.4127	-0.5300	-0.5154	0.5321
8.5	-9.6183	-1.0286	-0.9299	-0.0279	-0.0268	-0.0453	31.8549	25.1439	-5.3240	-0.4128	-0.5300	-0.5154	0.5322
8.51	-9.6140	-1.0296	-0.9264	-0.0243	-0.0326	-0.0460	31.6215	25.3836	-5.5158	-0.4128	-0.5299	-0.5153	0.5321
8.52	-9.6076	-1.0255	-0.9202	-0.0213	-0.0271	-0.0467	31.5694	25.4740	-5.3341	-0.4129	-0.5298	-0.5153	0.5322
8.53	-9.5891	-1.0242	-0.9153	-0.0143	-0.0327	-0.0430	31.8790	25.4233	-5.4581	-0.4130	-0.5298	-0.5152	0.5322
8.54	-9.5654	-1.0217	-0.9143	-0.0231	-0.0301	-0.0517	32.0713	25.5470	-5.5079	-0.4131	-0.5297	-0.5152	0.5322
8.55	-9.5526	-1.0154	-0.9088	-0.0122	-0.0148	-0.0548	32.2285	25.5367	-5.2519	-0.4131	-0.5297	-0.5152	0.5324
8.56	-9.5485	-1.0091	-0.9055	-0.0111	-0.0205	-0.0508	32.1339	25.4296	-5.1801	-0.4131	-0.5297	-0.5152	0.5324
8.57	-9.5446	-1.0020	-0.9034	-0.0132	-0.0173	-0.0547	31.9051	25.5002	-5.1033	-0.4131	-0.5297	-0.5152	0.5324
8.58	-9.5498	-0.9945	-0.9061	-0.0101	-0.0067	-0.0537	31.6841	25.4435	-5.2922	-0.4130	-0.5296	-0.5151	0.5324
8.59	-9.5616	-0.9892	-0.9070	-0.0094	-0.0080	-0.0546	31.5040	25.3326	-5.3399	-0.4130	-0.5296	-0.5152	0.5325
8.6	-9.5774	-0.9908	-0.9100	-0.0158	-0.0083	-0.0565	31.5355	25.4139	-5.4680	-0.4130	-0.5296	-0.5152	0.5325
8.61	-9.5958	-0.9922	-0.9120	-0.0263	-0.0068	-0.0552	31.4754	25.6965	-5.2447	-0.4130	-0.5296	-0.5152	0.5324
8.62	-9.5992	-0.9892	-0.9156	-0.0296	-0.0058	-0.0581	31.6511	25.2547	-5.2098	-0.4130	-0.5296	-0.5153	0.5324
8.63	-9.6022	-0.9959	-0.9105	-0.0293	-0.0074	-0.0552	31.6487	25.3494	-5.2387	-0.4130	-0.5295	-0.5153	0.5324
8.64	-9.6064	-1.0017	-0.9184	-0.0268	-0.0155	-0.0531	31.6266	25.4326	-5.4482	-0.4131	-0.5295	-0.5154	0.5324
8.65	-9.5887	-1.0045	-0.9152	-0.0292	-0.0132	-0.0515	31.7976	25.2165	-5.6216	-0.4131	-0.5294	-0.5154	0.5323
8.66	-9.5806	-1.0158	-0.9211	-0.0289	-0.0125	-0.0512	31.7719	25.3977	-5.5631	-0.4132	-0.5295	-0.5154	0.5323
8.67	-9.5843	-1.0215	-0.9255	-0.0296	-0.0131	-0.0517	31.9373	25.3033	-5.4785	-0.4132	-0.5294	-0.5155	0.5323
8.68	-9.5901	-1.0254	-0.9228	-0.0261	-0.0086	-0.0513	31.9781	25.1856	-5.5143	-0.4132	-0.5294	-0.5155	0.5322
8.69	-9.5933	-1.0276	-0.9265	-0.0305	-0.0067	-0.0481	31.8426	25.1556	-5.3918	-0.4132	-0.5294	-0.5155	0.5322
8.7	-9.5986	-1.0318	-0.9316	-0.0246	-0.0036	-0.0474	31.7649	25.4590	-5.4086	-0.4133	-0.5294	-0.5156	0.5321
8.71	-9.6175	-1.0314	-0.9314	-0.0236	-0.0109	-0.0551	31.5806	25.3410	-5.4400	-0.4133	-0.5294	-0.5156	0.5321
8.72	-9.6197	-1.0319	-0.9339	-0.0242	-0.0080	-0.0550	31.6935	25.1271	-5.6365	-0.4132	-0.5293	-0.5156	0.5320
8.73	-9.6106	-1.0278	-0.9356	-0.0298	-0.0170	-0.0483	31.7643	25.3160	-5.3241	-0.4134	-0.5294	-0.5157	0.5321
8.74	-9.6145	-1.0253	-0.9330	-0.0229	-0.0137	-0.0535	31.6943	25.4974	-5.3864	-0.4133	-0.5293	-0.5157	0.5320
8.75	-9.6071	-1.0257	-0.9437	-0.0274	-0.0075	-0.0526	31.6012	25.3331	-5.5928	-0.4134	-0.5293	-0.5157	0.5321
8.76	-9.5955	-1.0245	-0.9470	-0.0247	-0.0079	-0.0514	31.7010	25.4493	-5.2451	-0.4134	-0.5293	-0.5157	0.5319
8.77	-9.5885	-1.0186	-0.9365	-0.0189	-0.0120	-0.0538	31.7694	25.5438	-5.4062	-0.4134	-0.5293	-0.5157	0.5320
8.78	-9.5898	-1.0156	-0.9322	-0.0237	-0.0098	-0.0479	31.6736	25.3361	-5.5236	-0.4134	-0.5293	-0.5158	0.5319
8.79	-9.5794	-1.0127	-0.9276	-0.0248	-0.0095	-0.0436	31.6167	25.4182	-5.5128	-0.4134	-0.5292	-0.5157	0.5319
8.8	-9.5695	-1.0172	-0.9304	-0.0284	-0.0042	-0.0546	31.5959	25.5594	-5.3800	-0.4135	-0.5293	-0.5158	0.5319
8.81	-9.5883	-1.0171	-0.9299	-0.0297	-0.0104	-0.0542	31.7260	25.4884	-5.1851	-0.4135	-0.5292	-0.5158	0.5318
8.82	-9.5743	-1.0130	-0.9280	-0.0244	-0.0094	-0.0473	31.4348	25.3996	-5.5027	-0.4136	-0.5292	-0.5159	0.5318
8.83	-9.5455	-1.0138	-0.9286	-0.0212	-0.0123	-0.0481	31.8176	25.5544	-5.5136	-0.4135	-0.5291	-0.5158	0.5318
8.84	-9.5626	-1.0140	-0.9299	-0.0178	0.0022	-0.0548	31.8510	25.3854	-5.4836	-0.4135	-0.5292	-0.5159	0.5318
8.85	-9.5981	-1.0027	-0.9302	-0.0221	0.0043	-0.0451	31.7598	25.3393	-5.5487	-0.4135	-0.5292	-0.5159	0.5317
8.86	-9.5817	-0.9973	-0.9308	-0.0292	-0.0043	-0.0484	31.7578	25.0662	-5.6289	-0.4135	-0.5292	-0.5160	0.5317
8.87	-9.6132	-1.0121	-0.9303	-0.0285	0.0028	-0.0581	31.9916	25.1203	-5.3576	-0.4135	-0.5292	-0.5161	0.5316
8.88	-9.6500	-1.0351	-0.9400	-0.0220	-0.0015	-0.0535	31.9065	25.2825	-5.4377	-0.4135	-0.5292	-0.5161	0.5316
8.89	-9.6358	-1.0365	-0.9312	-0.0285	-0.0110	-0.0446	31.8675	25.3195	-5.3576	-0.4136	-0.5292	-0.5161	0.5315
8.9	-9.6384	-1.0295	-0.9383	-0.0207	-0.0074	-0.0445	31.7827	25.3613	-5.6096	-0.4135	-0.5292	-0.5161	0.5314
8.91	-9.5893	-1.0365	-0.9392	-0.0234	-0.0136	-0.0459	31.6704	25.2516	-5.6811	-0.4136	-0.5293	-0.5161	0.5315
8.92	-9.5459	-1.0364	-0.9431	-0.0208	-0.0105	-0.0417	31.8417	25.5540	-5.5668	-0.4137	-0.5292	-0.5161	0.5314
8.93	-9.5370	-1.0358	-0.9488	-0.0122	-0.0121	-0.0436	31.6715	25.4710	-5.5856	-0.4137	-0.5292	-0.5161	0.5315
8.94	-9.5455	-1.0332	-0.9456	-0.0173	-0.0014	-0.0470	31.7085	25.2216	-5.1396	-0.4137	-0.5292	-0.5161	0.5314
8.95	-9.5579	-1.0178	-0.9583	-0.0095	0.0054	-0.0452	31.6512	25.4390	-5.4465	-0.4136	-0.5293	-0.5161	0.5314
8.96	-9.5813	-0.9995	-0.9566	-0.0070	0.0121	-0.0484	31.7825	25.3668	-5.4687	-0.4136	-0.5294	-0.5161	0.5314
8.97	-9.5962	-0.9822	-0.9629	-0.0076	0.0138	-0.0579	31.6820	25.4170	-5.3653	-0.4134	-0.5294	-0.5161	0.5313
8.98	-9.6104	-0.9712	-0.9702	-0.0026	0.0071	-0.0570	31.7130	25.5489	-5.5632	-0.4134	-0.5295	-0.5162	0.5314
8.99	-9.6202	-0.9599	-0.9685	-0.0025	0.0071	-0.0675	31.9209	25.5304	-5.2755	-0.4132	-0.5295	-0.5162	0.5314
9	-9.6105	-0.9504	-0.9708	-0.0148	-0.0008	-0.0697	31.5792	25.4773	-5.4858	-0.4132	-0.5296	-0.5163	0.5314
9.01	-9.5977	-0.9426	-0.9702	-0.0199	0.0057	-0.0653	31.6134	25.3199	-5.5013	-0.4131	-0.5295	-0.5163	0.5313
9.02	-9.6133	-0.9412	-0.9690	-0.0231	0.0074	-0.0707	31.6968	25.4873	-5.5282	-0.4130	-0.5295	-0.5165	0.5313
9.03	-9.6166	-0.9486	-0.9765	-0.0336	0.0011	-0.0646	31.8938	25.1849	-5.4014	-0.4130	-0.5295	-0.5166	0.5313
9.04	-9.6149	-0.9590	-0.9760	-0.0467	-0.0081	-0.0654	32.0965	25.2364	-5.1872	-0.4130	-0.5293	-0.5167	0.5312
9.05	-9.6291	-0.9876	-0.9802	-0.0528	-0.0054	-0.0724	32.4017	25.4841	-5.2401	-0.4131	-0.5293	-0.5169	0.5312
9.06	-9.6362	-1.0180	-0.9791	-0.0585	-0.0065	-0.0668	32.3143	25.5709	-5.2182	-0.4131	-0.5291	-0.5170	0.5311
9.07	-9.6464	-1.0411	-0.9763	-0.0627	-0.0103	-0.0600	31.8828	25.3773	-5.3179	-0.4132	-0.5290	-0.5172	0.5310
9.08	-9.6473	-1.0689	-0.9824	-0.0553	-0.0164	-0.0611	31.6897	25.1751	-5.2410	-0.4133	-0.5288	-0.5173	0.5309
9.09	-9.6483	-1.0897	-0.9719	-0.0592	-0.0257	-0.0591	31.5102	25.4713	-5.4481	-0.4135	-0.5287	-0.5174	0.5309
9.1	-9.6337	-1.1078	-0.9705	-0.0519	-0.0211	-0.0603	31.7451	25.5811	-5.3033	-0.4136	-0.5286	-0.5175	0.5308
9.11	-9.6148	-1.1260	-0.9646	-0.0459	-0.0212	-0.0594	31.5294	25.4648	-5.3648	-0.4136	-0.5285	-0.5176	0.5308
9.12	-9.6141	-1.1355	-0.9657	-0.0330	-0.0233	-0.0617	31.7823	25.3560	-5.4004	-0.4137	-0.5284	-0.5176	0.5308
9.13	-9.5415	-1.1238	-0.9473	-0.0307	-0.0247	-0.0592	31.7321	25.3754	-5.5085	-0.4138	-0.5283	-0.5177	0.5308
9.14	-9.5899	-1.1113	-0.9320	-0.0232	-0.0104	-0.0580	31.5517	25.3567	-5.4087	-0.4138	-0.5282	-0.5177	0.5308
9.15	-9.6306	-1.1096	-0.9437	-0.0194	-0.0218	-0.0563	31.6666	25.4469	-5.3747	-0.4138	-0.5281	-0.5177	0.5308
9.16	-9.5257	-1.0864	-0.9181	-0.0053	-0.0299	-0.0558	31.7450	25.4801	-5.2873	-0.4138	-0.5281	-0.5177	0.5310
9.17	-9.5238	-1.0682	-0.9173	-0.0036	-0.0155	-0.0573	31.6461	25.4101	-5.1309	-0.4138	-0.5281	-0.5176	0.5310
9.18	-9.5520	-1.0722	-0.9201	-0.0071	-0.0054	-0.0576	31.8905	25.3368	-5.3749	-0.4137	-0.5281	-0.5177	0.5311
9.19	-9.5491	-1.0728	-0.9129	-0.0041	-0.0109	-0.0469	31.6304	25.5635	-5.4775	-0.4137	-0.5281	-0.5176	0.5311
9.2	-9.5581	-1.0466	-0.9174	-0.0029	-0.0028	-0.0387	31.2952	25.5433	-5.3961	-0.4137	-0.5281	-0.5176	0.5311
9.21	-9.5864	-1.0206	-0.9153	-0.0009	-0.0017	-0.0391	31.5636	25.3131	-5.5154	-0.4137	-0.5282	-0.5175	0.5311
9.22	-9.6179	-1.0080	-0.9197	-0.0040	-0.0062	-0.0379	31.8588	25.2589	-5.4421	-0.4136	-0.5282	-0.5174	0.5311
9.23	-9.6158	-1.0095	-0.9218	-0.0012	-0.0028	-0.0450	31.9310	25.3948	-5.6102	-0.4136	-0.5284	-0.5174	0.5312
9.24	-9.6180	-1.0143	-0.9239	-0.0069	-0.0088	-0.0530	31.9329	25.3559	-5.3665	-0.4136	-0.5283	-0.5174	0.5311
9.25	-9.6135	-1.0119	-0.9305	-0.0186	-0.0072	-0.0518	31.8909	25.1449	-5.4524	-0.4136	-0.5284	-0.5174	0.5312
9.26	-9.6039	-1.0074	-0.9216	-0.0132	-0.0084	-0.0522	31.6073	25.4923	-5.5697	-0.4136	-0.5283	-0.5174	0.5311
9.27	-9.6020	-1.0128	-0.9297	-0.0155	-0.0123	-0.0462	31.9562	25.5307	-5.6020	-0.4136	-0.5283	-0.5174	0.5311
9.28	-9.5946	-1.0012	-0.9293	-0.0205	-0.0118	-0.0463	31.8184	25.4334	-5.4822	-0.4136	-0.5283	-0.5174	0.5311
9.29	-9.5978	-1.0013	-0.9306	-0.0305	-0.0101	-0.0444	31.6594	25.4578	-5.5657	-0.4137	-0.5283	-0.5174	0.5311
9.3	-9.5953	-1.0106	-0.9328	-0.0279	-0.0113	-0.0436	31.5338	25.4715	-5.5654	-0.4138	-0.5284	-0.5174	0.5311
9.31	-9.5844	-1.0218	-0.9317	-0.0290	-0.0078	-0.0438	31.6582	25.2711	-5.1684	-0.4138	-0.5283	-0.5174	0.5310
9.32	-9.5894	-1.0318	-0.9352	-0.0296	-0.0089	-0.0481	32.0126	25.4026	-5.4753	-0.4139	-0.5283	-0.5175	0.5310
9.33	-9.6041	-1.0408	-0.9311	-0.0355	-0.0089	-0.0436	31.6347	25.5730	-5.4936	-0.4139	-0.5282	-0.5175	0.5308
9.34	-9.6120	-1.0540	-0.9357	-0.0282	-0.0059	-0.0462	31.5395	25.3158	-5.2290	-0.4140	-0.5283	-0.5175	0.5308
9.35	-9.5956	-1.0653	-0.9377	-0.0282	-0.0036	-0.0510	31.4504	25.3927	-5.5568	-0.4140	-0.5282	-0.5176	0.5308
9.36	-9.6010	-1.0583	-0.9368	-0.0239	-0.0072	-0.0445	31.5568	25.3491	-5.5167	-0.4140	-0.5282	-0.5176	0.5307
9.37	-9.6029	-1.0538	-0.9358	-0.0153	-0.0059	-0.0442	31.5939	25.3838	-5.2547	-0.4140	-0.5283	-0.5176	0.5307
9.38	-9.5998	-1.0458	-0.9380	-0.0065	-0.0051	-0.0431	31.6537	25.3579	-5.4525	-0.4140	-0.5283	-0.5175	0.5307
9.39	-9.6051	-1.0360	-0.9315	0.0015	-0.0073	-0.0454	31.5096	25.5907	-5.4991	-0.4140	-0.5284	-0.5175	0.5307
9.4	-9.5967	-1.0173	-0.9347	0.0006	-0.0138	-0.0403	31.7610	25.3467	-5.4602	-0.4139	-0.5284	-0.5174	0.5307
9.41	-9.5885	-1.0048	-0.9272	0.0050	-0.0141	-0.0388	31.8524	25.2973	-5.3935	-0.4140	-0.5285	-0.5173	0.5308
9.42	-9.5904	-0.9838	-0.9319	-0.0011	-0.0110	-0.0465	31.8300	25.3632	-5.4928	-0.4139	-0.5285	-0.5172	0.5308
9.43	-9.5899	-0.9742	-0.9261	-0.0031	-0.0070	-0.0523	31.8425	25.2227	-5.5159	-0.4139	-0.5285	-0.5172	0.5309
9.44	-9.5870	-0.9681	-0.9272	-0.0178	-0.0107	-0.0458	31.8307	25.4157	-5.7117	-0.4139	-0.5285	-0.5172	0.5309
9.45	-9.5928	-0.9658	-0.9330	-0.0164	-0.0095	-0.0482	31.8467	25.4415	-5.4732	-0.4139	-0.5285	-0.5172	0.5309
9.46	-9.5968	-0.9668	-0.9319	-0.0203	-0.0090	-0.0477	31.6062	25.5012	-5.5491	-0.4140	-0.5285	-0.5172	0.5309
9.47	-9.5874	-0.9668	-0.9277	-0.0266	-0.0084	-0.0489	31.5330	25.2678	-5.5758	-0.4140	-0.5285	-0.5172	0.5308
9.48	-9.5889	-0.9761	-0.9263	-0.0260	-0.0098	-0.0526	31.8031	25.1969	-5.4685	-0.4140	-0.5285	-0.5173	0.5308
9.49	-9.5938	-0.9898	-0.9349	-0.0291	-0.0094	-0.0509	31.7027	25.4579	-5.4488	-0.4141	-0.5285	-0.5173	0.5307
9.5	-9.5882	-1.0018	-0.9369	-0.0286	-0.0043	-0.0522	31.8535	25.4660	-5.5943	-0.4141	-0.5285	-0.5174	0.5308
9.51	-9.5964	-1.0057	-0.9345	-0.0289	-0.0080	-0.0554	31.7395	25.4351	-5.3554	-0.4141	-0.5284	-0.5174	0.5307
9.52	-9.6056	-1.0129	-0.9401	-0.0287	-0.0076	-0.0518	31.6430	25.5046	-5.4419	-0.4141	-0.5284	-0.5174	0.5307
9.53	-9.5905	-1.0248	-0.9460	-0.0284	-0.0036	-0.0587	31.8459	25.5106	-5.4154	-0.4141	-0.5283	-0.5175	0.5306
9.54	-9.5947	-1.0270	-0.9493	-0.0291	-0.0047	-0.0562	31.8612	25.4266	-5.1373	-0.4141	-0.5283	-0.5175	0.5306
9.55	-9.6112	-1.0331	-0.9532	-0.0269	-0.0013	-0.0523	32.3088	25.5803	-5.3513	-0.4142	-0.5283	-0.5176	0.5306
9.56	-9.6101	-1.0368	-0.9574	-0.0233	-0.0030	-0.0530	32.3220	25.3982	-5.3748	-0.4142	-0.5283	-0.5176	0.5305
9.57	-9.6129	-1.0354	-0.9571	-0.0153	-0.0039	-0.0511	31.9016	25.5094	-5.3225	-0.4142	-0.5283	-0.5177	0.5305
9.58	-9.6037	-1.0382	-0.9544	-0.0100	-0.0120	-0.0543	31.6513	25.3614	-5.3639	-0.4141	-0.5283	-0.5176	0.5305
9.59	-9.5998	-1.0316	-0.9554	-0.0107	-0.0164	-0.0513	31.7835	25.1664	-5.4406	-0.4142	-0.5283	-0.5176	0.5306
9.6	-9.5992	-1.0280	-0.9480	-0.0036	-0.0106	-0.0527	32.0218	25.0265	-5.4895	-0.4141	-0.5283	-0.5176	0.5306
9.61	-9.6006	-1.0252	-0.9527	-0.0055	-0.0070	-0.0539	31.8420	25.3404	-5.2479	-0.4141	-0.5283	-0.5175	0.5306
9.62	-9.6023	-1.0183	-0.9531	-0.0080	-0.0091	-0.0445	31.8553	25.4661	-5.5784	-0.4141	-0.5283	-0.5175	0.5306
9.63	-9.5861	-1.0100	-0.9473	-0.0204	-0.0112	-0.0402	31.8815	25.4500	-5.3873	-0.4141	-0.5283	-0.5175	0.5306
9.64	-9.5895	-1.0034	-0.9465	-0.0110	-0.0108	-0.0476	31.7812	25.2001	-5.3323	-0.4141	-0.5284	-0.5175	0.5306
9.65	-9.5814	-1.0065	-0.9479	-0.0147	-0.0066	-0.0484	31.7723	25.1997	-5.5135	-0.4141	-0.5283	-0.5174	0.5306
9.66	-9.5815	-1.0003	-0.9427	-0.0135	-0.0104	-0.0425	31.7335	25.0259	-5.4975	-0.4142	-0.5284	-0.5175	0.5306
9.67	-9.6040	-0.9967	-0.9404	-0.0166	-0.0070	-0.0528	31.6974	25.2558	-5.4416	-0.4141	-0.5284	-0.5174	0.5306
9.68	-9.6208	-1.0092	-0.9463	-0.0198	-0.0134	-0.0532	31.8204	25.3973	-5.4370	-0.4142	-0.5284	-0.5175	0.5306
9.69	-9.5958	-1.0155	-0.9459	-0.0163	-0.0087	-0.0517	31.5626	25.3499	-5.6489	-0.4142	-0.5283	-0.5174	0.5306
9.7	-9.5920	-1.0112	-0.9407	-0.0185	-0.0046	-0.0512	31.4586	25.5716	-5.3969	-0.4142	-0.5284	-0.5175	0.5306
9.71	-9.6199	-0.9965	-0.9453	-0.0145	-0.0011	-0.0528	31.4145	25.3694	-5.2830	-0.4142	-0.5284	-0.5175	0.5306
9.72	-9.6236	-0.9929	-0.9399	-0.0278	-0.0071	-0.0592	31.7085	25.5774	-5.4023	-0.4141	-0.5283	-0.5175	0.5305
9.73	-9.6184	-1.0021	-0.9314	-0.0283	-0.0051	-0.0589	31.6614	25.4939	-5.4393	-0.4142	-0.5283	-0.5176	0.5306
9.74	-9.6336	-1.0175	-0.9228	-0.0282	-0.0137	-0.0562	31.7089	25.3166	-5.3311	-0.4142	-0.5282	-0.5176	0.5305
9.75	-9.6340	-1.0352	-0.9242	-0.0286	-0.0156	-0.0548	31.5993	25.6618	-5.3852	-0.4143	-0.5282	-0.5177	0.5306
9.76	-9.6205	-1.0338	-0.9187	-0.0267	-0.0216	-0.0435	31.5917	25.4313	-5.4173	-0.4143	-0.5281	-0.5176	0.5305
9.77	-9.5690	-1.0299	-0.9163	-0.0280	-0.0211	-0.0381	31.6890	25.2172	-5.4097	-0.4144	-0.5281	-0.5176	0.5305
9.78	-9.5118	-1.0370	-0.9128	-0.0293	-0.0160	-0.0336	31.7073	25.1569	-5.3615	-0.4145	-0.5281	-0.5176	0.5305
9.79	-9.5097	-1.0552	-0.9153	-0.0273	-0.0094	-0.0455	31.8701	25.2690	-5.5908	-0.4145	-0.5280	-0.5176	0.5304
9.8	-9.5301	-1.0587	-0.9268	-0.0161	-0.0060	-0.0376	31.8537	25.3680	-5.4746	-0.4146	-0.5281	-0.5176	0.5305
9.81	-9.5464	-1.0388	-0.9256	-0.0209	0.0090	-0.0344	32.0024	25.2398	-5.5419	-0.4146	-0.5281	-0.5176	0.5303
9.82	-9.5754	-1.0215	-0.9264	-0.0082	0.0110	-0.0405	31.8194	25.2958	-5.5645	-0.4146	-0.5283	-0.5176	0.5303
9.83	-9.5943	-1.0058	-0.9395	-0.0066	0.0051	-0.0463	31.6395	25.2417	-5.3571	-0.4145	-0.5283	-0.5175	0.5302
9.84	-9.6185	-0.9894	-0.9433	-0.0028	0.0089	-0.0518	31.7217	25.4239	-5.4510	-0.4145	-0.5284	-0.5176	0.5303
9.85	-9.6093	-0.9777	-0.9449	-0.0024	0.0022	-0.0565	31.7629	25.4200	-5.3237	-0.4144	-0.5284	-0.5176	0.5303
9.86	-9.5946	-0.9554	-0.9447	-0.0034	-0.0026	-0.0634	31.5397	25.2666	-5.3721	-0.4143	-0.5284	-0.5176	0.5303
9.87	-9.5959	-0.9384	-0.9525	-0.0013	-0.0017	-0.0614	31.8224	25.2555	-5.5268	-0.4142	-0.5284	-0.5176	0.5304
9.88	-9.5856	-0.9295	-0.9536	-0.0119	0.0069	-0.0611	31.7092	25.5783	-5.3365	-0.4141	-0.5285	-0.5176	0.5303
9.89	-9.5895	-0.9174	-0.9580	-0.0264	-0.0017	-0.0625	31.6924	25.3843	-5.3116	-0.4141	-0.5284	-0.5177	0.5303
9.9	-9.5982	-0.9177	-0.9549	-0.0297	0.0026	-0.0632	31.5773	25.4294	-5.3134	-0.4141	-0.5283	-0.5178	0.5302
9.91	-9.6109	-0.9406	-0.9628	-0.0338	0.0037	-0.0645	31.6161	25.5530	-5.3235	-0.4141	-0.5284	-0.5179	0.5303
9.92	-9.6181	-0.9715	-0.9685	-0.0486	-0.0031	-0.0612	31.6908	25.3960	-5.4673	-0.4141	-0.5283	-0.5180	0.5302
9.93	-9.6347	-0.9980	-0.9682	-0.0526	-0.0003	-0.0633	31.7052	25.5325	-5.2522	-0.4142	-0.5282	-0.5182	0.5301
9.94	-9.6420	-1.0209	-0.9721	-0.0547	-0.0016	-0.0600	31.4657	25.5572	-5.1058	-0.4142	-0.5281	-0.5183	0.5300
9.95	-9.6526	-1.0526	-0.9750	-0.0517	-0.0108	-0.0572	31.5583	25.4842	-5.2899	-0.4143	-0.5280	-0.5184	0.5299
9.96	-9.6476	-1.0723	-0.9721	-0.0499	-0.0149	-0.0568	31.9595	25.2690	-5.5452	-0.4144	-0.5279	-0.5185	0.5298
9.97	-9.6203	-1.0863	-0.9699	-0.0445	-0.0235	-0.0564	31.9474	25.2530	-5.6304	-0.4145	-0.5277	-0.5185	0.5298
9.98	-9.6111	-1.0990	-0.9673	-0.0298	-0.0090	-0.0585	31.7409	25.4122	-5.4312	-0.4146	-0.5278	-0.5187	0.5298
9.99	-9.5924	-1.0930	-0.9693	-0.0287	-0.0112	-0.0571	31.6345	25.1130	-5.2813	-0.4146	-0.5277	-0.5187	0.5298
10	-9.5406	-1.0872	-0.9558	-0.0290	-0.0112	-0.0614	31.7736	25.2245	-5.3147	-0.4146	-0.5276	-0.5188	0.5298
10.01	-9.6163	-1.0772	-0.9544	-0.0244	-0.0125	-0.0567	31.7572	25.2926	-5.3163	-0.4146	-0.5275	-0.5187	0.5297
10.02	-9.6123	-1.0650	-0.9565	-0.0048	-0.0168	-0.0629	31.6777	25.3939	-5.4121	-0.4146	-0.5275	-0.5188	0.5298
10.03	-9.5477	-1.0507	-0.9305	-0.0094	-0.0161	-0.0590	31.8319	25.4488	-5.2554	-0.4146	-0.5275	-0.5187	0.5299
10.04	-9.5709	-1.0438	-0.9351	-0.0126	-0.0073	-0.0714	31.9942	25.2223	-5.4227	-0.4145	-0.5274	-0.5187	0.5299
10.05	-9.5820	-1.0559	-0.9311	-0.0107	-0.0090	-0.0568	32.2827	25.4205	-5.3813	-0.4145	-0.5275	-0.5188	0.5300
10.06	-9.5809	-1.0382	-0.9344	-0.0136	-0.0074	-0.0485	32.1399	25.5673	-5.4484	-0.4145	-0.5274	-0.5188	0.5300
10.07	-9.5762	-1.0201	-0.9291	-0.0125	-0.0072	-0.0476	31.8724	25.3490	-5.3740	-0.4145	-0.5275	-0.5188	0.5300
10.08	-9.6084	-1.0134	-0.9323	-0.0283	-0.0086	-0.0480	31.6241	25.4102	-5.1775	-0.4145	-0.5274	-0.5187	0.5299
10.09	-9.6391	-1.0110	-0.9350	-0.0231	-0.0053	-0.0531	31.5195	25.4929	-5.2527	-0.4146	-0.5274	-0.5188	0.5299
10.1	-9.6251	-1.0218	-0.9335	-0.0238	-0.0098	-0.0564	31.5858	25.4269	-5.2052	-0.4146	-0.5274	-0.5188	0.5299
10.11	-9.6178	-1.0315	-0.9388	-0.0290	-0.0061	-0.0578	31.5711	25.2574	-5.2829	-0.4146	-0.5273	-0.5189	0.5299
10.12	-9.5985	-1.0300	-0.9372	-0.0203	-0.0116	-0.0561	31.5433	25.3997	-5.5514	-0.4146	-0.5273	-0.5189	0.5299
10.13	-9.5864	-1.0271	-0.9313	-0.0234	-0.0110	-0.0512	31.6338	25.4649	-5.1727	-0.4146	-0.5273	-0.5189	0.5299
10.14	-9.5800	-1.0264	-0.9261	-0.0205	-0.0183	-0.0528	31.5946	25.4800	-5.3900	-0.4147	-0.5273	-0.5189	0.5299
10.15	-9.5744	-1.0339	-0.9320	-0.0287	-0.0180	-0.0537	31.6279	25.3464	-5.3356	-0.4147	-0.5272	-0.5189	0.5298
10.16	-9.5762	-1.0365	-0.9287	-0.0292	-0.0108	-0.0535	31.8881	25.5200	-5.1981	-0.4148	-0.5272	-0.5190	0.5299
10.17	-9.5733	-1.0464	-0.9298	-0.0258	-0.0153	-0.0484	31.6558	25.5082	-5.5703	-0.4148	-0.5271	-0.5190	0.5299
10.18	-9.5839	-1.0616	-0.9323	-0.0281	-0.0083	-0.0456	31.9330	25.4447	-5.3243	-0.4149	-0.5271	-0.5190	0.5298
10.19	-9.5951	-1.0695	-0.9368	-0.0304	-0.0099	-0.0446	31.9267	25.4646	-5.3077	-0.4149	-0.5271	-0.5190	0.5298
10.2	-9.5924	-1.0762	-0.9322	-0.0279	-0.0078	-0.0427	31.6720	25.3482	-5.4523	-0.4150	-0.5271	-0.5190	0.5297
10.21	-9.6076	-1.0754	-0.9328	-0.0186	-0.0089	-0.0402	31.6518	25.3778	-5.3396	-0.4150	-0.5271	-0.5190	0.5297
10.22	-9.6142	-1.0761	-0.9335	-0.0182	-0.0097	-0.0357	31.6684	25.3709	-5.2828	-0.4150	-0.5271	-0.5189	0.5296
10.23	-9.6013	-1.0672	-0.9323	-0.0128	-0.0156	-0.0377	31.5386	25.4544	-5.5719	-0.4152	-0.5272	-0.5189	0.5297
10.24	-9.5932	-1.0569	-0.9288	-0.0076	-0.0106	-0.0394	31.6168	25.5071	-5.2554	-0.4152	-0.5272	-0.5188	0.5296
10.25	-9.5944	-1.0385	-0.9308	-0.0046	-0.0048	-0.0479	31.6843	25.5308	-5.2881	-0.4152	-0.5273	-0.5188	0.5297
10.26	-9.5906	-1.0238	-0.9271	-0.0031	-0.0045	-0.0469	31.6292	25.2342	-5.3317	-0.4151	-0.5273	-0.5187	0.5296
10.27	-9.5879	-1.0076	-0.9244	-0.0007	-0.0053	-0.0464	31.8132	25.4396	-5.1872	-0.4151	-0.5273	-0.5187	0.5297
10.28	-9.5766	-0.9898	-0.9161	-0.0030	-0.0085	-0.0496	31.8086	25.2771	-5.2581	-0.4151	-0.5274	-0.5187	0.5297
10.29	-9.5770	-0.9711	-0.9224	-0.0021	-0.0055	-0.0458	31.6346	25.3598	-5.4970	-0.4150	-0.5274	-0.5186	0.5297
10.3	-9.5779	-0.9655	-0.9223	-0.0042	0.0008	-0.0474	31.6760	25.4666	-5.5132	-0.4150	-0.5275	-0.5186	0.5298
10.31	-9.5660	-0.9625	-0.9192	-0.0130	-0.0032	-0.0479	31.6346	25.4856	-5.3439	-0.4150	-0.5275	-0.5186	0.5298
10.32	-9.5720	-0.9600	-0.9271	-0.0172	-0.0053	-0.0406	31.7306	25.5897	-5.3000	-0.4150	-0.5275	-0.5186	0.5298
10.33	-9.5807	-0.9590	-0.9302	-0.0205	-0.0087	-0.0424	31.7652	25.4386	-5.4211	-0.4150	-0.5275	-0.5185	0.5297
10.34	-9.5882	-0.9659	-0.9392	-0.0293	-0.0007	-0.0501	31.6110	25.4714	-5.2874	-0.4150	-0.5275	-0.5186	0.5297
10.35	-9.5946	-0.9783	-0.9390	-0.0267	0.0003	-0.0428	31.7373	25.4373	-5.1756	-0.4151	-0.5275	-0.5186	0.5296
10.36	-9.6089	-0.9849	-0.9451	-0.0290	0.0002	-0.0450	32.0313	25.2500	-5.3774	-0.4151	-0.5275	-0.5186	0.5295
10.37	-9.6151	-0.9921	-0.9487	-0.0275	-0.0045	-0.0452	31.9186	25.4197	-5.5345	-0.4152	-0.5275	-0.5187	0.5295
10.38	-9.6177	-0.9960	-0.9573	-0.0290	-0.0052	-0.0465	31.7810	25.4239	-5.4671	-0.4152	-0.5275	-0.5187	0.5294
10.39	-9.6159	-1.0026	-0.9594	-0.0279	-0.0030	-0.0482	31.7311	25.1614	-5.5701	-0.4152	-0.5275	-0.5188	0.5294
10.4	-9.6155	-1.0067	-0.9627	-0.0270	-0.0063	-0.0505	31.7536	25.2776	-5.6157	-0.4152	-0.5275	-0.5187	0.5293
10.41	-9.6164	-1.0092	-0.9650	-0.0221	-0.0058	-0.0597	31.7370	25.4124	-5.2359	-0.4153	-0.5275	-0.5188	0.5293
10.42	-9.6025	-1.0038	-0.9572	-0.0243	-0.0103	-0.0574	31.6017	25.3100	-5.5694	-0.4153	-0.5274	-0.5188	0.5293
10.43	-9.6062	-1.0012	-0.9630	-0.0252	-0.0117	-0.0585	31.8141	25.5570	-5.5584	-0.4153	-0.5274	-0.5189	0.5293
10.44	-9.6136	-1.0076	-0.9661	-0.0287	-0.0001	-0.0575	31.8647	25.4374	-5.2735	-0.4153	-0.5274	-0.5189	0.5293
10.45	-9.6089	-1.0032	-0.9642	-0.0259	-0.0075	-0.0587	31.7922	25.3913	-5.3441	-0.4153	-0.5273	-0.5190	0.5293
10.46	-9.6059	-0.9987	-0.9615	-0.0200	-0.0049	-0.0545	31.7319	25.4551	-5.2810	-0.4153	-0.5273	-0.5190	0.5293
10.47	-9.6230	-1.0015	-0.9577	-0.0292	-0.0048	-0.0558	31.7623	25.2396	-5.4262	-0.4153	-0.5272	-0.5190	0.5292
10.48	-9.6137	-1.0075	-0.9627	-0.0272	-0.0071	-0.0566	31.5279	25.4146	-5.3777	-0.4153	-0.5273	-0.5191	0.5292
10.49	-9.5982	-1.0127	-0.9577	-0.0249	-0.0059	-0.0583	31.6063	25.4769	-5.3328	-0.4153	-0.5272	-0.5191	0.5292
10.5	-9.6007	-1.0103	-0.9526	-0.0293	-0.0064	-0.0645	31.7404	25.4341	-5.4721	-0.4154	-0.5272	-0.5193	0.5292
10.51	-9.5995	-1.0113	-0.9578	-0.0272	-0.0171	-0.0576	31.8381	25.5781	-5.1898	-0.4153	-0.5271	-0.5192	0.5291
10.52	-9.5917	-1.0164	-0.9478	-0.0284	-0.0196	-0.0563	31.7335	25.5007	-5.2512	-0.4154	-0.5270	-0.5193	0.5292
10.53	-9.5819	-1.0249	-0.9428	-0.0307	-0.0156	-0.0580	31.7341	25.1175	-5.3798	-0.4155	-0.5270	-0.5193	0.5292
10.54	-9.5691	-1.0284	-0.9392	-0.0313	-0.0173	-0.0546	31.8545	25.3936	-5.4331	-0.4155	-0.5269	-0.5193	0.5291
10.55	-9.5814	-1.0304	-0.9405	-0.0288	-0.0166	-0.0565	32.3982	25.3555	-5.2762	-0.4156	-0.5269	-0.5194	0.5292
10.56	-9.5919	-1.0389	-0.9403	-0.0289	-0.0108	-0.0624	32.2901	25.2956	-5.2122	-0.4156	-0.5268	-0.5194	0.5292
10.57	-9.5844	-1.0463	-0.9449	-0.0274	-0.0099	-0.0565	31.9719	25.4903	-5.4766	-0.4156	-0.5268	-0.5195	0.5292
10.58	-9.5752	-1.0457	-0.9442	-0.0259	-0.0141	-0.0474	31.7640	25.2364	-5.3310	-0.4156	-0.5267	-0.5194	0.5291
10.59	-9.5992	-1.0374	-0.9429	-0.0218	-0.0091	-0.0484	31.4900	25.2944	-5.2768	-0.4157	-0.5267	-0.5195	0.5291
10.6	-9.6176	-1.0331	-0.9479	-0.0242	-0.0085	-0.0514	31.7518	25.3400	-5.4623	-0.4157	-0.5267	-0.5195	0.5291
10.61	-9.6073	-1.0444	-0.9431	-0.0281	-0.0101	-0.0515	31.8089	25.3839	-5.4694	-0.4158	-0.5266	-0.5195	0.5291
10.62	-9.6272	-1.0676	-0.9439	-0.0285	-0.0119	-0.0576	31.6806	25.5604	-5.3849	-0.4158	-0.5266	-0.5195	0.5291
10.63	-9.6265	-1.0736	-0.9446	-0.0279	-0.0142	-0.0514	31.5694	25.3136	-5.3395	-0.4158	-0.5265	-0.5196	0.5290
10.64	-9.6326	-1.0704	-0.9291	-0.0291	-0.0169	-0.0444	31.6856	25.4342	-5.2600	-0.4159	-0.5265	-0.5196	0.5290
10.65	-9.6146	-1.0651	-0.9367	-0.0251	-0.0224	-0.0417	31.6906	25.3132	-5.3035	-0.4160	-0.5264	-0.5195	0.5290
10.66	-9.5427	-1.0626	-0.9291	-0.0173	-0.0201	-0.0377	31.8172	25.3865	-5.1494	-0.4161	-0.5265	-0.5195	0.5290
10.67	-9.5340	-1.0670	-0.9246	-0.0200	-0.0221	-0.0349	31.5792	25.5320	-5.2516	-0.4162	-0.5264	-0.5194	0.5290
10.68	-9.5420	-1.0626	-0.9362	-0.0072	-0.0086	-0.0321	31.7312	25.5748	-5.3199	-0.4162	-0.5265	-0.5194	0.5290
10.69	-9.5353	-1.0377	-0.9352	-0.0032	-0.0125	-0.0325	31.4665	25.6040	-5.1626	-0.4162	-0.5265	-0.5192	0.5290
10.7	-9.5446	-1.0128	-0.9399	0.0022	-0.0013	-0.0352	31.6081	25.4936	-5.3728	-0.4162	-0.5266	-0.5192	0.5291
10.71	-9.5698	-0.9873	-0.9490	0.0137	0.0137	-0.0354	31.6918	25.4758	-5.5256	-0.4161	-0.5268	-0.5191	0.5291
10.72	-9.5854	-0.9671	-0.9606	0.0101	0.0040	-0.0381	31.8704	25.3308	-5.3492	-0.4160	-0.5269	-0.5190	0.5290
10.73	-9.5935	-0.9491	-0.9601	0.0130	0.0043	-0.0469	31.8537	25.2179	-5.3929	-0.4160	-0.5270	-0.5190	0.5291
10.74	-9.5932	-0.9315	-0.9667	0.0097	0.0043	-0.0624	31.6571	25.3083	-5.4831	-0.4158	-0.5271	-0.5189	0.5291
10.75	-9.5883	-0.9159	-0.9696	-0.0021	-0.0022	-0.0603	31.9271	25.2982	-5.2088	-0.4158	-0.5271	-0.5190	0.5292
10.76	-9.6035	-0.8962	-0.9782	-0.0038	-0.0015	-0.0582	31.7515	25.1312	-5.6100	-0.4157	-0.5271	-0.5189	0.5292
10.77	-9.6117	-0.8921	-0.9787	-0.0188	-0.0001	-0.0575	31.8061	25.1701	-5.4912	-0.4156	-0.5271	-0.5190	0.5292
10.78	-9.6224	-0.8936	-0.9801	-0.0247	0.0059	-0.0583	31.9427	25.3438	-5.3169	-0.4156	-0.5271	-0.5190	0.5292
10.79	-9.6372	-0.9075	-0.9863	-0.0401	-0.0031	-0.0600	31.9978	25.2609	-5.4690	-0.4156	-0.5270	-0.5191	0.5291
10.8	-9.6496	-0.9374	-0.9947	-0.0543	-0.0121	-0.0573	31.6381	25.1447	-5.4790	-0.4158	-0.5270	-0.5193	0.5291
10.81	-9.6497	-0.9588	-1.0002	-0.0549	-0.0102	-0.0614	31.7400	25.2994	-5.2652	-0.4158	-0.5268	-0.5193	0.5290
10.82	-9.6537	-0.9904	-1.0011	-0.0579	-0.0112	-0.0634	31.6016	25.4050	-5.1794	-0.4159	-0.5268	-0.5195	0.5289
10.83	-9.6593	-1.0144	-1.0020	-0.0548	-0.0180	-0.0602	31.6994	25.5045	-5.6261	-0.4160	-0.5266	-0.5195	0.5288
10.84	-9.6630	-1.0409	-0.9950	-0.0559	-0.0220	-0.0620	31.6903	25.5367	-5.2823	-0.4161	-0.5265	-0.5197	0.5288
10.85	-9.6526	-1.0616	-1.0009	-0.0539	-0.0207	-0.0615	31.7208	25.4400	-5.3254	-0.4162	-0.5263	-0.5198	0.5287
10.86	-9.6281	-1.0744	-0.9960	-0.0489	-0.0293	-0.0625	31.6056	25.4786	-5.1188	-0.4163	-0.5262	-0.5199	0.5287
10.87	-9.6333	-1.0879	-0.9833	-0.0345	-0.0226	-0.0632	31.6213	25.6325	-5.0838	-0.4164	-0.5261	-0.5199	0.5287
10.88	-9.5783	-1.0850	-0.9733	-0.0281	-0.0303	-0.0599	31.7056	25.3105	-5.3988	-0.4165	-0.5259	-0.5199	0.5288
10.89	-9.6030	-1.0682	-0.9562	-0.0287	-0.0283	-0.0579	31.7359	25.1754	-5.2939	-0.4166	-0.5259	-0.5199	0.5288
10.9	-9.6516	-1.0645	-0.9568	-0.0209	-0.0315	-0.0600	31.8812	25.1443	-5.2600	-0.4166	-0.5257	-0.5199	0.5288
10.91	-9.5697	-1.0616	-0.9325	-0.0187	-0.0453	-0.0587	31.9886	25.1809	-5.5089	-0.4167	-0.5257	-0.5199	0.5290
10.92	-9.5601	-1.0437	-0.9216	-0.0117	-0.0395	-0.0617	31.9157	25.2845	-5.2586	-0.4167	-0.5255	-0.5198	0.5291
10.93	-9.5723	-1.0415	-0.9217	-0.0130	-0.0340	-0.0624	31.8438	25.1694	-5.3617	-0.4168	-0.5254	-0.5198	0.5292
10.94	-9.5577	-1.0455	-0.9041	-0.0219	-0.0370	-0.0520	31.9789	25.1476	-5.3673	-0.4168	-0.5253	-0.5197	0.5293
10.95	-9.5408	-1.0369	-0.9038	-0.0266	-0.0351	-0.0454	32.0798	25.1840	-5.5087	-0.4169	-0.5252	-0.5197	0.5293
10.96	-9.5673	-1.0146	-0.8978	-0.0218	-0.0196	-0.0459	31.8007	25.3087	-5.3734	-0.4170	-0.5252	-0.5197	0.5294
10.97	-9.5876	-1.0047	-0.8954	-0.0225	-0.0228	-0.0452	31.7888	25.4333	-5.4529	-0.4170	-0.5251	-0.5196	0.5293
10.98	-9.5904	-1.0142	-0.8934	-0.0259	-0.0195	-0.0522	31.7620	25.3136	-5.5834	-0.4172	-0.5251	-0.5197	0.5294
10.99	-9.5920	-1.0372	-0.8994	-0.0217	-0.0217	-0.0579	31.6954	25.0616	-5.3801	-0.4172	-0.5250	-0.5196	0.5294
11	-9.5837	-1.0283	-0.9008	-0.0241	-0.0179	-0.0579	31.6258	25.3800	-5.3684	-0.4172	-0.5250	-0.5197	0.5295
11.01	-9.5821	-1.0224	-0.8974	-0.0209	-0.0193	-0.0577	31.6114	25.6161	-5.4020	-0.4172	-0.5249	-0.5196	0.5294
11.02	-9.5895	-1.0282	-0.9033	-0.0137	-0.0182	-0.0577	31.5793	25.6075	-5.0987	-0.4172	-0.5249	-0.5197	0.5295
11.03	-9.5835	-1.0187	-0.9023	-0.0295	-0.0188	-0.0489	31.7122	25.3767	-5.1704	-0.4173	-0.5249	-0.5197	0.5295
11.04	-9.5819	-1.0196	-0.9015	-0.0283	-0.0119	-0.0563	31.8793	25.6712	-5.1337	-0.4173	-0.5248	-0.5197	0.5294
11.05	-9.5857	-1.0270	-0.9044	-0.0294	-0.0144	-0.0506	32.0017	25.7973	-5.0787	-0.4174	-0.5248	-0.5198	0.5295
11.06	-9.5884	-1.0445	-0.9036	-0.0284	-0.0157	-0.0448	32.0473	25.6516	-5.2891	-0.4175	-0.5247	-0.5197	0.5294
11.07	-9.6063	-1.0543	-0.9037	-0.0264	-0.0196	-0.0470	32.0372	25.4720	-5.3670	-0.4176	-0.5247	-0.5197	0.5294
11.08	-9.5914	-1.0646	-0.9080	-0.0253	-0.0170	-0.0337	31.6731	25.4210	-5.5007	-0.4176	-0.5247	-0.5196	0.5293
11.09	-9.5795	-1.0631	-0.8992	-0.0233	-0.0153	-0.0382	31.8177	25.2910	-5.4606	-0.4177	-0.5247	-0.5196	0.5294
11.1	-9.6212	-1.0523	-0.8969	-0.0146	-0.0103	-0.0371	31.8466	25.3689	-5.4325	-0.4177	-0.5247	-0.5196	0.5293
11.11	-9.6145	-1.0401	-0.9020	-0.0087	-0.0087	-0.0400	31.8444	25.3570	-5.5424	-0.4177	-0.5248	-0.5195	0.5293
