time	acceleration_x	acceleration_y	acceleration_z	gyroscope_x	gyroscope_y	gyroscope_z	magnetometer_x	magnetometer_y	magnetometer_z	quaternion_w	quaternion_x	quaternion_y	quaternion_z
0	-9.4300	-0.0959	-1.7881	0.0114	-0.0079	0.0099	26.1038	-10.2953	9.0649	0.5371	-0.4209	0.6443	0.3451
0.01	-9.4523	-0.1017	-1.8101	0.0090	-0.0121	0.0133	26.0661	-10.3370	9.1267	0.5371	-0.4209	0.6444	0.3451
0.02	-9.4396	-0.0889	-1.8058	0.0051	-0.0109	0.0134	26.0356	-10.2495	9.0559	0.5371	-0.4209	0.6444	0.3451
0.03	-9.4269	-0.0940	-1.7861	0.0057	-0.0106	0.0098	26.1829	-10.2688	9.2703	0.5371	-0.4209	0.6444	0.3451
0.04	-9.4598	-0.0794	-1.8135	0.0080	-0.0082	0.0103	26.1883	-10.5124	9.0316	0.5372	-0.4209	0.6444	0.3451
0.05	-9.4391	-0.0766	-1.7981	0.0089	-0.0082	0.0078	26.2774	-10.4561	9.2077	0.5371	-0.4209	0.6444	0.3450
0.06	-9.4334	-0.0773	-1.8008	0.0143	-0.0120	0.0093	26.4552	-10.4800	9.2961	0.5372	-0.4209	0.6444	0.3450
0.07	-9.4414	-0.0739	-1.8062	0.0072	-0.0141	0.0124	26.5816	-10.4531	9.4332	0.5371	-0.4208	0.6444	0.3449
0.08	-9.4473	-0.0734	-1.8127	0.0073	-0.0087	0.0097	26.5183	-10.5571	9.4066	0.5372	-0.4209	0.6445	0.3450
0.09	-9.4426	-0.0672	-1.8105	0.0035	-0.0047	0.0112	26.4047	-10.3330	9.1871	0.5372	-0.4209	0.6444	0.3449
0.1	-9.4252	-0.0743	-1.7968	-0.0056	-0.0062	0.0126	26.2914	-10.4215	9.1137	0.5371	-0.4209	0.6445	0.3450
0.11	-9.4459	-0.0695	-1.8231	0.0047	-0.0085	0.0175	26.2805	-10.5287	9.1193	0.5371	-0.4209	0.6445	0.3450
0.12	-9.4444	-0.0644	-1.8211	0.0020	-0.0080	0.0103	26.1991	-10.3776	9.2565	0.5371	-0.4209	0.6445	0.3450
0.13	-9.4372	-0.0554	-1.8168	0.0022	-0.0041	0.0068	26.1532	-10.3141	9.1062	0.5371	-0.4210	0.6445	0.3449
0.14	-9.4423	-0.0444	-1.8219	0.0007	-0.0058	0.0090	26.1119	-10.4418	9.2167	0.5370	-0.4210	0.6444	0.3449
0.15	-9.4470	-0.0384	-1.8139	0.0095	-0.0050	0.0071	26.1163	-10.4055	9.0756	0.5371	-0.4210	0.6445	0.3449
0.16	-9.4433	-0.0332	-1.8088	0.0043	-0.0085	0.0047	26.1677	-10.4772	9.3555	0.5371	-0.4210	0.6445	0.3449
0.17	-9.4408	-0.0285	-1.8079	0.0047	-0.0077	0.0096	26.4028	-10.2411	9.2782	0.5371	-0.4211	0.6446	0.3449
0.18	-9.4476	-0.0304	-1.8080	0.0044	-0.0081	0.0091	26.2591	-9.9679	9.0632	0.5370	-0.4210	0.6445	0.3448
0.19	-9.4371	-0.0333	-1.8054	0.0030	-0.0057	0.0100	26.1923	-10.1470	9.1371	0.5370	-0.4211	0.6445	0.3448
0.2	-9.4371	-0.0407	-1.8059	0.0006	-0.0062	0.0057	26.0342	-10.3996	9.2812	0.5370	-0.4211	0.6445	0.3448
0.21	-9.4495	-0.0447	-1.8148	0.0055	-0.0096	0.0163	26.1038	-10.4336	9.2369	0.5370	-0.4211	0.6445	0.3448
0.22	-9.4461	-0.0522	-1.8196	0.0016	-0.0122	0.0122	26.2258	-10.5198	9.0825	0.5370	-0.4211	0.6446	0.3448
0.23	-9.4335	-0.0635	-1.8178	-0.0032	-0.0098	0.0092	26.3304	-10.6107	9.1757	0.5370	-0.4211	0.6445	0.3448
0.24	-9.4393	-0.0657	-1.8114	-0.0031	-0.0083	0.0080	26.3790	-10.3665	9.2388	0.5370	-0.4212	0.6445	0.3449
0.25	-9.4482	-0.0719	-1.8143	0.0032	-0.0081	0.0077	26.3527	-10.6225	9.1088	0.5369	-0.4211	0.6444	0.3448
0.26	-9.4458	-0.0750	-1.8100	0.0029	-0.0055	0.0131	26.3739	-10.6443	9.2580	0.5370	-0.4212	0.6445	0.3448
0.27	-9.4355	-0.0764	-1.8077	-0.0022	-0.0074	0.0116	26.3503	-10.4393	9.1486	0.5369	-0.4212	0.6445	0.3448
0.28	-9.4375	-0.0790	-1.8151	-0.0044	-0.0144	0.0124	26.3900	-10.6024	9.1169	0.5369	-0.4212	0.6445	0.3449
0.29	-9.4403	-0.0826	-1.8153	-0.0012	-0.0103	0.0104	26.2529	-10.5855	9.1323	0.5369	-0.4213	0.6445	0.3449
0.3	-9.4314	-0.0817	-1.8026	0.0006	-0.0151	0.0115	26.2113	-10.4643	9.1169	0.5369	-0.4212	0.6445	0.3449
0.31	-9.4355	-0.0814	-1.8045	0.0046	-0.0088	0.0089	26.1500	-10.3802	9.1211	0.5369	-0.4213	0.6445	0.3449
0.32	-9.4436	-0.0803	-1.8113	0.0038	-0.0036	0.0026	26.1000	-10.2357	9.1028	0.5368	-0.4213	0.6444	0.3448
0.33	-9.4407	-0.0718	-1.8028	0.0029	-0.0077	0.0116	26.3269	-10.2948	9.2333	0.5369	-0.4213	0.6445	0.3449
0.34	-9.4384	-0.0626	-1.7971	0.0044	-0.0036	0.0126	26.2488	-10.3337	9.3321	0.5368	-0.4213	0.6445	0.3448
0.35	-9.4448	-0.0576	-1.8035	-0.0022	-0.0036	0.0041	26.3226	-10.4180	9.2059	0.5368	-0.4214	0.6445	0.3448
0.36	-9.4418	-0.0554	-1.8028	0.0069	-0.0086	0.0103	26.0813	-10.4195	9.2132	0.5368	-0.4214	0.6445	0.3448
0.37	-9.4401	-0.0518	-1.7931	0.0024	-0.0084	0.0064	26.1634	-10.3456	9.1816	0.5368	-0.4214	0.6445	0.3448
0.38	-9.4458	-0.0571	-1.7940	0.0061	-0.0074	0.0100	26.0121	-10.2850	9.2650	0.5368	-0.4214	0.6445	0.3448
0.39	-9.4429	-0.0584	-1.7911	0.0075	-0.0104	0.0148	25.9097	-10.3252	9.2882	0.5368	-0.4214	0.6445	0.3447
0.4	-9.4352	-0.0595	-1.7866	0.0024	-0.0101	0.0164	26.1834	-10.4543	9.3101	0.5368	-0.4214	0.6446	0.3448
0.41	-9.4379	-0.0585	-1.7930	0.0022	-0.0057	0.0069	26.4783	-10.4096	9.0918	0.5368	-0.4214	0.6445	0.3447
0.42	-9.4441	-0.0655	-1.7967	-0.0003	-0.0081	0.0075	26.5741	-10.4093	8.8012	0.5368	-0.4215	0.6446	0.3448
0.43	-9.4388	-0.0640	-1.7898	0.0052	-0.0137	0.0081	26.4182	-10.5144	9.0780	0.5368	-0.4214	0.6445	0.3447
0.44	-9.4364	-0.0594	-1.7963	0.0012	-0.0049	0.0081	26.3722	-10.3762	9.0064	0.5368	-0.4215	0.6445	0.3447
0.45	-9.4385	-0.0595	-1.7951	0.0079	-0.0055	0.0081	26.3242	-10.3308	9.0882	0.5368	-0.4215	0.6445	0.3447
0.46	-9.4367	-0.0586	-1.7924	0.0057	-0.0050	0.0106	26.2480	-10.3355	9.1469	0.5367	-0.4215	0.6445	0.3446
0.47	-9.4402	-0.0637	-1.7920	0.0002	-0.0068	0.0090	26.4147	-10.4382	8.9946	0.5368	-0.4216	0.6446	0.3447
0.48	-9.4448	-0.0709	-1.7958	0.0076	-0.0046	0.0092	26.1789	-10.6681	9.2438	0.5367	-0.4215	0.6445	0.3446
0.49	-9.4447	-0.0743	-1.8087	0.0122	-0.0070	0.0125	26.2941	-10.4421	9.2899	0.5368	-0.4216	0.6446	0.3446
0.5	-9.4356	-0.0741	-1.8099	0.0062	-0.0037	0.0100	26.1868	-10.4127	8.9897	0.5367	-0.4215	0.6446	0.3445
0.51	-9.4353	-0.0713	-1.8137	0.0056	-0.0047	0.0069	26.1509	-10.4356	8.9539	0.5367	-0.4216	0.6446	0.3446
0.52	-9.4365	-0.0672	-1.8163	0.0050	-0.0052	0.0094	26.1905	-10.2525	9.2483	0.5367	-0.4216	0.6446	0.3445
0.53	-9.4384	-0.0604	-1.8206	0.0062	-0.0044	0.0112	26.3035	-10.3212	9.0455	0.5367	-0.4216	0.6446	0.3445
0.54	-9.4406	-0.0567	-1.8146	-0.0010	-0.0025	0.0089	26.1601	-10.4452	9.0117	0.5367	-0.4216	0.6447	0.3445
0.55	-9.4433	-0.0544	-1.8218	0.0024	-0.0040	0.0076	26.0742	-10.4189	9.1921	0.5366	-0.4216	0.6447	0.3445
0.56	-9.4434	-0.0532	-1.8312	-0.0035	-0.0052	0.0027	26.6404	-10.2077	9.4057	0.5366	-0.4217	0.6447	0.3445
0.57	-9.4340	-0.0575	-1.8184	-0.0025	-0.0082	0.0109	26.5156	-10.1303	9.2874	0.5365	-0.4217	0.6446	0.3444
0.58	-9.4407	-0.0598	-1.8124	0.0031	-0.0144	0.0165	26.3605	-10.3231	9.3189	0.5366	-0.4217	0.6447	0.3445
0.59	-9.4475	-0.0612	-1.8216	0.0003	-0.0124	0.0139	26.2968	-10.3400	9.2970	0.5366	-0.4217	0.6446	0.3445
0.6	-9.4392	-0.0627	-1.8121	0.0038	-0.0123	0.0140	26.4632	-10.2689	9.1805	0.5366	-0.4217	0.6447	0.3445
0.61	-9.4439	-0.0641	-1.8079	0.0084	-0.0117	0.0145	26.3284	-10.5204	8.9329	0.5366	-0.4217	0.6446	0.3445
0.62	-9.4414	-0.0698	-1.8120	0.0024	-0.0107	0.0196	26.1310	-10.5375	9.1449	0.5366	-0.4217	0.6447	0.3445
0.63	-9.4425	-0.0643	-1.8135	0.0039	-0.0083	0.0135	26.2409	-10.4352	9.2810	0.5366	-0.4217	0.6447	0.3445
0.64	-9.4339	-0.0592	-1.8105	0.0055	-0.0151	0.0076	26.2705	-10.5683	9.1411	0.5365	-0.4216	0.6446	0.3445
0.65	-9.4396	-0.0581	-1.8123	0.0084	-0.0131	0.0146	26.2464	-10.4521	9.0492	0.5366	-0.4217	0.6447	0.3445
0.66	-9.4447	-0.0549	-1.8178	0.0071	-0.0137	0.0180	26.1641	-10.3510	9.0580	0.5366	-0.4216	0.6447	0.3445
0.67	-9.4438	-0.0557	-1.8138	0.0156	-0.0075	0.0149	26.4072	-10.4716	9.0616	0.5366	-0.4216	0.6448	0.3445
0.68	-9.4454	-0.0569	-1.8074	0.0096	-0.0098	0.0163	26.0479	-10.4678	9.0581	0.5366	-0.4215	0.6447	0.3445
0.69	-9.4465	-0.0582	-1.8101	0.0063	-0.0080	0.0084	26.1627	-10.3879	9.0496	0.5366	-0.4216	0.6447	0.3445
0.7	-9.4395	-0.0674	-1.8055	0.0071	-0.0080	0.0081	26.2736	-10.5290	9.2738	0.5366	-0.4216	0.6448	0.3445
0.71	-9.4317	-0.0741	-1.7989	0.0069	-0.0062	0.0070	26.0239	-10.3178	9.3631	0.5366	-0.4216	0.6447	0.3444
0.72	-9.4454	-0.0775	-1.8055	-0.0012	-0.0056	0.0075	26.3399	-10.2831	9.0766	0.5366	-0.4217	0.6448	0.3444
0.73	-9.4444	-0.0787	-1.8038	0.0017	-0.0091	0.0164	26.4155	-10.3503	9.0908	0.5365	-0.4216	0.6448	0.3444
0.74	-9.4392	-0.0756	-1.8000	0.0053	-0.0039	0.0101	26.2602	-10.3968	9.1809	0.5366	-0.4217	0.6448	0.3444
0.75	-9.4403	-0.0724	-1.8038	0.0009	-0.0101	0.0057	26.2501	-10.3918	9.0426	0.5365	-0.4216	0.6447	0.3444
0.76	-9.4414	-0.0726	-1.8052	0.0023	-0.0142	0.0124	26.1835	-10.4744	9.0632	0.5365	-0.4217	0.6448	0.3444
0.77	-9.4388	-0.0707	-1.7982	0.0064	-0.0151	0.0204	26.3098	-10.5124	9.0613	0.5365	-0.4216	0.6448	0.3444
0.78	-9.4382	-0.0684	-1.7955	0.0034	-0.0064	0.0121	26.4253	-10.5741	9.0658	0.5365	-0.4216	0.6448	0.3444
0.79	-9.4435	-0.0627	-1.8074	0.0065	-0.0056	0.0147	26.4954	-10.4548	9.0653	0.5365	-0.4216	0.6448	0.3444
0.8	-9.4443	-0.0578	-1.8008	0.0076	-0.0045	0.0139	26.1771	-10.3384	9.1823	0.5365	-0.4216	0.6448	0.3444
0.81	-9.4387	-0.0563	-1.7967	0.0089	-0.0112	0.0068	26.3523	-10.5238	9.0793	0.5365	-0.4216	0.6449	0.3444
0.82	-9.4364	-0.0549	-1.8013	0.0094	-0.0131	0.0163	26.2821	-10.5096	9.0492	0.5365	-0.4215	0.6448	0.3443
0.83	-9.4345	-0.0529	-1.7987	0.0040	-0.0083	0.0161	26.1168	-10.2353	9.0616	0.5365	-0.4216	0.6449	0.3444
0.84	-9.4365	-0.0570	-1.8005	0.0046	-0.0089	0.0096	26.1571	-10.2491	9.1997	0.5365	-0.4216	0.6449	0.3444
0.85	-9.4408	-0.0596	-1.8018	0.0039	-0.0089	0.0110	26.3600	-10.4370	9.2560	0.5365	-0.4216	0.6449	0.3444
0.86	-9.4443	-0.0627	-1.8046	-0.0007	-0.0124	0.0150	26.3308	-10.5992	9.2170	0.5365	-0.4216	0.6449	0.3444
0.87	-9.4441	-0.0665	-1.8046	0.0012	-0.0111	0.0130	26.3298	-10.3673	9.2704	0.5365	-0.4216	0.6449	0.3444
0.88	-9.4400	-0.0702	-1.8086	0.0023	-0.0069	0.0107	26.3619	-10.3195	9.1433	0.5365	-0.4216	0.6449	0.3444
0.89	-9.4414	-0.0701	-1.8065	0.0017	-0.0110	0.0087	26.2336	-10.5021	9.2281	0.5364	-0.4216	0.6448	0.3444
0.9	-9.4449	-0.0670	-1.8062	0.0022	-0.0117	0.0115	26.3828	-10.3591	9.3320	0.5365	-0.4216	0.6449	0.3444
0.91	-9.4380	-0.0602	-1.8077	0.0106	-0.0094	0.0137	26.2524	-10.4057	8.8955	0.5365	-0.4216	0.6449	0.3444
0.92	-9.4435	-0.0553	-1.8093	-0.0000	-0.0127	0.0098	26.1611	-10.3702	9.1253	0.5365	-0.4216	0.6449	0.3444
0.93	-9.4471	-0.0550	-1.8155	0.0048	-0.0149	0.0110	26.1705	-10.4936	9.2435	0.5364	-0.4216	0.6448	0.3444
0.94	-9.4364	-0.0466	-1.8120	0.0013	-0.0169	0.0101	26.2073	-10.3410	9.1150	0.5365	-0.4216	0.6448	0.3444
0.95	-9.4371	-0.0473	-1.8089	0.0006	-0.0126	0.0188	26.1103	-10.3116	8.9775	0.5365	-0.4216	0.6448	0.3444
0.96	-9.4430	-0.0569	-1.8169	-0.0001	-0.0146	0.0141	26.4513	-10.5690	8.9744	0.5364	-0.4216	0.6448	0.3444
0.97	-9.4390	-0.0589	-1.8133	0.0016	-0.0158	0.0122	26.3662	-10.5396	9.0599	0.5365	-0.4216	0.6449	0.3445
0.98	-9.4377	-0.0591	-1.8187	0.0117	-0.0091	0.0117	26.3082	-10.3085	9.2460	0.5365	-0.4216	0.6448	0.3445
0.99	-9.4482	-0.0624	-1.8302	0.0073	-0.0127	0.0139	26.4065	-10.3279	9.3211	0.5365	-0.4216	0.6449	0.3445
1	-9.4435	-0.0658	-1.8262	0.0053	-0.0137	0.0170	26.2418	-10.5998	9.0159	0.5365	-0.4215	0.6448	0.3445
1.01	-9.4316	-0.0699	-1.8262	0.0053	-0.0107	0.0127	26.3322	-10.3920	9.0927	0.5365	-0.4215	0.6449	0.3445
1.02	-9.4385	-0.0717	-1.8296	0.0039	-0.0180	0.0154	26.1347	-10.3043	9.0060	0.5365	-0.4215	0.6448	0.3445
1.03	-9.4435	-0.0669	-1.8377	0.0073	-0.0128	0.0134	26.4499	-10.5057	9.2205	0.5365	-0.4215	0.6448	0.3445
1.04	-9.4402	-0.0659	-1.8317	0.0006	-0.0167	0.0158	26.3979	-10.3543	9.3490	0.5365	-0.4215	0.6448	0.3445
1.05	-9.4365	-0.0669	-1.8288	0.0093	-0.0173	0.0096	26.4337	-10.4155	9.0408	0.5366	-0.4214	0.6448	0.3445
1.06	-9.4429	-0.0643	-1.8322	0.0017	-0.0134	0.0109	26.6135	-10.3112	9.1276	0.5366	-0.4214	0.6448	0.3445
1.07	-9.4366	-0.0633	-1.8247	0.0043	-0.0139	0.0057	26.7703	-10.2977	9.2223	0.5365	-0.4214	0.6447	0.3445
1.08	-9.4325	-0.0621	-1.8153	0.0039	-0.0111	0.0109	26.4862	-10.1475	9.4677	0.5366	-0.4215	0.6448	0.3445
1.09	-9.4375	-0.0598	-1.8125	-0.0017	-0.0096	0.0103	26.3225	-10.3050	9.3558	0.5366	-0.4215	0.6448	0.3445
1.1	-9.4425	-0.0568	-1.8071	0.0016	-0.0118	0.0077	26.0606	-10.2305	9.0509	0.5366	-0.4215	0.6448	0.3445
1.11	-9.4382	-0.0601	-1.8026	0.0047	-0.0066	0.0073	26.1569	-10.2601	9.2288	0.5366	-0.4215	0.6447	0.3445
1.12	-9.4438	-0.0584	-1.7966	-0.0021	-0.0074	0.0127	26.1247	-10.4041	9.1550	0.5366	-0.4215	0.6448	0.3445
1.13	-9.4418	-0.0571	-1.7952	-0.0001	-0.0065	0.0082	26.1960	-10.2781	9.0843	0.5366	-0.4216	0.6448	0.3445
1.14	-9.4365	-0.0587	-1.7937	-0.0002	-0.0147	0.0134	26.2391	-10.2590	9.1236	0.5365	-0.4215	0.6447	0.3445
1.15	-9.4361	-0.0597	-1.7947	-0.0014	-0.0042	0.0078	26.2051	-10.4618	9.0878	0.5365	-0.4216	0.6448	0.3446
1.16	-9.4400	-0.0650	-1.8046	-0.0015	-0.0092	0.0135	26.5353	-10.4277	9.0187	0.5365	-0.4216	0.6447	0.3446
1.17	-9.4449	-0.0695	-1.8046	-0.0001	-0.0107	0.0123	26.4906	-10.6603	9.2890	0.5365	-0.4216	0.6448	0.3446
1.18	-9.4438	-0.0745	-1.8033	0.0024	-0.0113	0.0144	26.3680	-10.7064	9.3208	0.5364	-0.4216	0.6447	0.3446
1.19	-9.4383	-0.0780	-1.7991	0.0015	-0.0099	0.0138	26.4832	-10.6291	9.0250	0.5365	-0.4216	0.6448	0.3446
1.2	-9.4382	-0.0797	-1.7912	0.0016	-0.0046	0.0086	26.4749	-10.4438	9.0926	0.5365	-0.4216	0.6448	0.3446
1.21	-9.4398	-0.0739	-1.7827	0.0022	-0.0066	0.0142	26.3923	-10.6800	9.1232	0.5364	-0.4216	0.6447	0.3446
1.22	-9.4437	-0.0716	-1.7800	0.0012	-0.0051	0.0106	26.3013	-10.6958	9.1332	0.5364	-0.4217	0.6448	0.3446
1.23	-9.4445	-0.0618	-1.7794	0.0021	-0.0134	0.0153	26.2752	-10.6436	9.2199	0.5364	-0.4216	0.6448	0.3446
1.24	-9.4448	-0.0574	-1.7778	0.0014	-0.0111	0.0109	26.1946	-10.3448	9.2065	0.5364	-0.4217	0.6448	0.3446
1.25	-9.4341	-0.0544	-1.7841	0.0033	-0.0020	0.0075	26.2458	-10.4223	9.1021	0.5363	-0.4216	0.6447	0.3446
1.26	-9.4330	-0.0540	-1.7881	0.0083	-0.0017	0.0095	26.1000	-10.5660	9.0217	0.5364	-0.4217	0.6448	0.3446
1.27	-9.4387	-0.0578	-1.7949	0.0013	-0.0037	0.0057	26.2089	-10.2811	9.1481	0.5363	-0.4217	0.6448	0.3445
1.28	-9.4379	-0.0631	-1.8021	0.0059	-0.0062	0.0079	26.2197	-10.3319	9.0684	0.5363	-0.4217	0.6448	0.3445
1.29	-9.4419	-0.0643	-1.8031	0.0034	-0.0050	0.0113	26.2401	-10.4454	9.2399	0.5363	-0.4218	0.6449	0.3445
1.3	-9.4422	-0.0691	-1.8103	0.0036	-0.0018	0.0043	26.0501	-10.2175	9.2657	0.5363	-0.4218	0.6448	0.3445
1.31	-9.4370	-0.0699	-1.8131	-0.0000	-0.0025	0.0088	26.1627	-10.5066	9.1218	0.5363	-0.4218	0.6449	0.3445
1.32	-9.4371	-0.0693	-1.8083	0.0007	-0.0088	0.0123	26.3298	-10.2238	9.0301	0.5362	-0.4218	0.6448	0.3444
1.33	-9.4367	-0.0676	-1.8050	0.0028	-0.0112	0.0127	26.2061	-10.3207	8.8927	0.5363	-0.4218	0.6449	0.3445
1.34	-9.4373	-0.0660	-1.8085	0.0020	-0.0074	0.0120	26.3801	-10.6119	9.0046	0.5362	-0.4218	0.6449	0.3445
1.35	-9.4368	-0.0672	-1.7949	0.0035	-0.0068	0.0087	26.4033	-10.6005	9.0417	0.5362	-0.4219	0.6449	0.3445
1.36	-9.4378	-0.0659	-1.7991	0.0024	-0.0102	0.0110	26.2856	-10.5053	9.0210	0.5362	-0.4219	0.6449	0.3444
1.37	-9.4413	-0.0588	-1.8015	0.0007	-0.0092	0.0078	26.3368	-10.4177	9.1506	0.5362	-0.4219	0.6449	0.3444
1.38	-9.4405	-0.0593	-1.8039	0.0021	-0.0041	0.0094	26.5668	-10.6051	9.0620	0.5362	-0.4219	0.6449	0.3444
1.39	-9.4341	-0.0564	-1.7996	0.0020	-0.0103	0.0091	26.1885	-10.5844	8.9948	0.5361	-0.4219	0.6448	0.3444
1.4	-9.4379	-0.0565	-1.8020	0.0023	-0.0107	0.0075	26.2623	-10.6228	9.1719	0.5362	-0.4220	0.6449	0.3444
1.41	-9.4469	-0.0606	-1.8039	0.0009	-0.0097	0.0114	26.2874	-10.6842	9.0347	0.5362	-0.4219	0.6448	0.3444
1.42	-9.4402	-0.0571	-1.7959	0.0043	-0.0138	0.0129	26.4135	-10.4873	9.1046	0.5362	-0.4220	0.6449	0.3445
1.43	-9.4294	-0.0612	-1.8007	0.0009	-0.0089	0.0106	26.1218	-10.5535	9.1050	0.5361	-0.4219	0.6448	0.3444
1.44	-9.4391	-0.0677	-1.7999	0.0071	-0.0017	0.0036	25.9601	-10.3542	9.0250	0.5362	-0.4220	0.6449	0.3444
1.45	-9.4518	-0.0649	-1.8203	0.0095	-0.0055	0.0056	26.1285	-10.2756	9.3037	0.5362	-0.4220	0.6449	0.3444
1.46	-9.4277	-0.0564	-1.8190	0.0032	-0.0043	0.0079	26.2182	-10.4670	9.2783	0.5361	-0.4220	0.6448	0.3443
1.47	-9.4313	-0.0622	-1.8146	0.0041	-0.0067	0.0077	26.1251	-10.4127	9.1936	0.5362	-0.4221	0.6449	0.3443
1.48	-9.4552	-0.0538	-1.8372	-0.0004	-0.0030	0.0081	26.3049	-10.5948	9.0572	0.5361	-0.4221	0.6449	0.3443
1.49	-9.4283	-0.0617	-1.8140	0.0027	-0.0046	0.0045	26.2453	-10.3528	9.0009	0.5361	-0.4221	0.6449	0.3443
1.5	-9.4424	-0.0581	-1.8209	0.0091	-0.0060	0.0142	26.2274	-10.3687	9.1138	0.5361	-0.4221	0.6449	0.3442
1.51	-9.4481	-0.0614	-1.8264	0.0039	-0.0100	0.0092	26.0910	-10.4086	9.1091	0.5361	-0.4221	0.6449	0.3443
1.52	-9.4394	-0.0646	-1.8214	0.0005	-0.0092	0.0109	26.2695	-10.4007	9.1059	0.5361	-0.4221	0.6449	0.3443
1.53	-9.4403	-0.0652	-1.8219	0.0034	-0.0051	0.0112	26.5149	-10.6422	9.1318	0.5361	-0.4221	0.6449	0.3442
1.54	-9.4405	-0.0715	-1.8304	0.0009	-0.0119	0.0098	26.3470	-10.4787	9.0951	0.5361	-0.4221	0.6449	0.3443
1.55	-9.4450	-0.0702	-1.8317	0.0049	-0.0069	0.0078	26.4159	-10.6617	9.2979	0.5361	-0.4222	0.6449	0.3442
1.56	-9.4322	-0.0684	-1.8152	0.0066	-0.0093	0.0083	26.7192	-10.4695	9.4319	0.5361	-0.4222	0.6450	0.3442
1.57	-9.4335	-0.0648	-1.8099	0.0043	-0.0128	0.0125	26.9080	-10.3111	9.2762	0.5360	-0.4221	0.6449	0.3442
1.58	-9.4424	-0.0616	-1.8187	0.0013	-0.0119	0.0140	26.5745	-10.4043	9.3268	0.5361	-0.4222	0.6449	0.3442
1.59	-9.4351	-0.0595	-1.8046	0.0036	-0.0086	0.0167	26.3385	-10.3286	9.2850	0.5360	-0.4221	0.6449	0.3442
1.6	-9.4419	-0.0584	-1.8058	0.0075	-0.0109	0.0106	26.2624	-10.4117	9.2191	0.5361	-0.4221	0.6450	0.3442
1.61	-9.4436	-0.0605	-1.8047	0.0078	-0.0142	0.0180	26.2646	-10.3698	9.2474	0.5361	-0.4221	0.6449	0.3442
1.62	-9.4375	-0.0628	-1.8039	0.0019	-0.0088	0.0109	26.2335	-10.4225	9.1975	0.5361	-0.4221	0.6450	0.3442
1.63	-9.4400	-0.0629	-1.7980	0.0003	-0.0007	0.0139	26.3134	-10.4502	9.1270	0.5360	-0.4221	0.6450	0.3442
1.64	-9.4434	-0.0643	-1.8005	0.0079	-0.0111	0.0161	26.3475	-10.2619	9.1515	0.5360	-0.4221	0.6450	0.3442
1.65	-9.4432	-0.0671	-1.8029	0.0003	-0.0090	0.0166	26.2384	-10.4262	9.1395	0.5360	-0.4221	0.6450	0.3443
1.66	-9.4357	-0.0671	-1.8003	0.0046	-0.0040	0.0116	26.2571	-10.3318	9.1428	0.5360	-0.4221	0.6450	0.3442
1.67	-9.4372	-0.0652	-1.7905	-0.0002	-0.0070	0.0092	26.2675	-10.2872	9.1509	0.5360	-0.4222	0.6451	0.3443
1.68	-9.4388	-0.0634	-1.7888	0.0018	-0.0055	0.0132	26.1647	-10.3097	9.0443	0.5359	-0.4221	0.6450	0.3442
1.69	-9.4331	-0.0615	-1.7810	0.0049	-0.0088	0.0108	26.1869	-10.4094	9.1732	0.5359	-0.4221	0.6451	0.3442
1.7	-9.4371	-0.0618	-1.7761	0.0012	-0.0080	0.0144	26.1461	-10.6938	9.1155	0.5359	-0.4221	0.6451	0.3443
1.71	-9.4469	-0.0613	-1.7789	0.0042	-0.0120	0.0145	26.3132	-10.4395	9.2590	0.5359	-0.4221	0.6450	0.3442
1.72	-9.4463	-0.0597	-1.7827	0.0087	-0.0112	0.0123	26.4457	-10.5035	9.0199	0.5360	-0.4221	0.6451	0.3443
1.73	-9.4373	-0.0553	-1.7768	-0.0014	-0.0085	0.0089	26.5310	-10.6236	8.9802	0.5359	-0.4221	0.6451	0.3443
1.74	-9.4384	-0.0537	-1.7844	0.0078	-0.0053	0.0079	26.2053	-10.5174	8.9450	0.5359	-0.4222	0.6451	0.3442
1.75	-9.4405	-0.0533	-1.7870	0.0032	-0.0109	0.0099	26.2184	-10.5680	9.1603	0.5359	-0.4221	0.6450	0.3442
1.76	-9.4379	-0.0477	-1.7880	-0.0006	-0.0046	0.0184	26.5021	-10.3314	9.1345	0.5359	-0.4222	0.6451	0.3442
1.77	-9.4414	-0.0508	-1.7888	0.0032	-0.0064	0.0123	26.2955	-10.4065	9.0133	0.5358	-0.4222	0.6451	0.3442
1.78	-9.4455	-0.0554	-1.7954	0.0026	-0.0050	0.0127	26.2295	-10.3570	9.1465	0.5358	-0.4222	0.6451	0.3442
1.79	-9.4393	-0.0608	-1.7959	0.0016	-0.0067	0.0114	26.4370	-10.5691	9.1535	0.5358	-0.4222	0.6451	0.3442
1.8	-9.4406	-0.0614	-1.8030	0.0040	-0.0080	0.0152	26.1801	-10.5484	9.1441	0.5358	-0.4222	0.6451	0.3442
1.81	-9.4384	-0.0694	-1.8092	0.0029	-0.0045	0.0118	26.1693	-10.5261	9.1518	0.5358	-0.4222	0.6452	0.3442
1.82	-9.4382	-0.0712	-1.8137	-0.0010	-0.0066	0.0109	26.1880	-10.2775	9.1235	0.5357	-0.4222	0.6451	0.3442
1.83	-9.4389	-0.0718	-1.8149	0.0051	-0.0055	0.0101	26.1392	-10.4181	9.2699	0.5357	-0.4222	0.6452	0.3442
1.84	-9.4480	-0.0682	-1.8257	0.0059	-0.0035	0.0099	26.2561	-10.4981	9.3327	0.5357	-0.4222	0.6452	0.3442
1.85	-9.4470	-0.0657	-1.8358	0.0014	-0.0051	0.0121	26.3740	-10.3935	9.3259	0.5357	-0.4222	0.6452	0.3442
1.86	-9.4388	-0.0616	-1.8300	0.0035	-0.0002	0.0133	26.2236	-10.2912	9.2249	0.5356	-0.4222	0.6452	0.3442
1.87	-9.4370	-0.0613	-1.8284	0.0019	-0.0044	0.0083	26.2706	-10.4164	9.1037	0.5356	-0.4223	0.6452	0.3442
1.88	-9.4352	-0.0625	-1.8373	0.0032	-0.0073	0.0137	26.2427	-10.3526	9.2133	0.5356	-0.4223	0.6453	0.3442
1.89	-9.4360	-0.0691	-1.8305	0.0013	-0.0109	0.0150	26.2605	-10.4734	9.2418	0.5356	-0.4222	0.6452	0.3442
1.9	-9.4418	-0.0705	-1.8286	0.0103	-0.0078	0.0151	26.2432	-10.5517	9.2321	0.5356	-0.4223	0.6453	0.3442
1.91	-9.4434	-0.0740	-1.8289	0.0037	-0.0085	0.0152	26.1412	-10.4307	9.0784	0.5356	-0.4222	0.6453	0.3442
1.92	-9.4401	-0.0768	-1.8228	0.0029	-0.0132	0.0103	26.2533	-10.5356	9.0524	0.5356	-0.4223	0.6453	0.3442
1.93	-9.4374	-0.0755	-1.8202	-0.0005	-0.0138	0.0125	26.2646	-10.5739	9.0606	0.5356	-0.4222	0.6452	0.3442
1.94	-9.4466	-0.0720	-1.8186	0.0046	-0.0162	0.0097	26.2452	-10.3943	9.1812	0.5356	-0.4222	0.6453	0.3442
1.95	-9.4425	-0.0689	-1.8147	0.0071	-0.0139	0.0084	26.4393	-10.4213	9.2688	0.5356	-0.4222	0.6452	0.3442
1.96	-9.4353	-0.0654	-1.8038	0.0038	-0.0138	0.0166	26.2698	-10.1982	9.1353	0.5356	-0.4222	0.6452	0.3442
1.97	-9.4357	-0.0650	-1.7966	0.0087	-0.0159	0.0104	26.1531	-10.3512	9.1392	0.5357	-0.4222	0.6453	0.3442
1.98	-9.4378	-0.0652	-1.7863	0.0103	-0.0157	0.0111	26.1921	-10.3363	9.1428	0.5357	-0.4222	0.6452	0.3442
1.99	-9.4457	-0.0723	-1.7861	0.0140	-0.0082	0.0150	26.3568	-10.3827	9.1443	0.5357	-0.4221	0.6453	0.3442
2	-9.4463	-0.0542	-1.8044	0.0013	-0.0064	0.0088	26.2298	-10.5988	9.1464	0.5357	-0.4221	0.6452	0.3441
2.01	-9.4160	-0.0473	-1.7645	0.0114	-0.0112	0.0085	26.3942	-10.4064	9.2591	0.5357	-0.4221	0.6453	0.3442
2.02	-9.4503	-0.0534	-1.7895	0.0062	-0.0084	0.0152	26.0511	-10.3727	9.0312	0.5357	-0.4221	0.6453	0.3441
2.03	-9.4545	-0.0437	-1.7945	0.0070	-0.0128	0.0058	26.1156	-10.4555	9.1435	0.5357	-0.4221	0.6453	0.3441
2.04	-9.4275	-0.0563	-1.7700	0.0070	-0.0049	0.0080	26.3808	-10.4794	9.1344	0.5357	-0.4221	0.6453	0.3441
2.05	-9.4443	-0.0532	-1.7841	0.0031	-0.0078	0.0081	26.2041	-10.4445	9.3207	0.5357	-0.4221	0.6453	0.3441
2.06	-9.4365	-0.0651	-1.7729	0.0035	-0.0077	0.0057	26.4776	-10.3079	9.4440	0.5357	-0.4222	0.6453	0.3441
2.07	-9.4438	-0.0666	-1.7753	0.0016	-0.0062	0.0084	26.5646	-10.2765	9.3876	0.5357	-0.4222	0.6452	0.3440
2.08	-9.4379	-0.0722	-1.7710	0.0024	-0.0123	0.0130	26.4601	-10.4266	9.4133	0.5357	-0.4222	0.6453	0.3441
2.09	-9.4386	-0.0739	-1.7818	0.0079	-0.0097	0.0124	26.3958	-10.4243	9.0146	0.5357	-0.4222	0.6453	0.3441
2.1	-9.4511	-0.0727	-1.8075	-0.0000	-0.0046	0.0090	26.0968	-10.6096	9.0214	0.5357	-0.4222	0.6453	0.3441
2.11	-9.4320	-0.0721	-1.8017	0.0008	-0.0052	0.0059	26.4030	-10.5838	9.1437	0.5357	-0.4222	0.6453	0.3440
2.12	-9.4375	-0.0735	-1.8152	0.0001	-0.0075	0.0117	26.5786	-10.4672	9.2914	0.5357	-0.4222	0.6453	0.3440
2.13	-9.4411	-0.0753	-1.8192	0.0027	-0.0076	0.0105	26.4444	-10.3330	9.2658	0.5357	-0.4223	0.6453	0.3440
2.14	-9.4366	-0.0775	-1.8128	0.0034	-0.0055	0.0069	26.4572	-10.4013	9.1965	0.5356	-0.4222	0.6453	0.3440
2.15	-9.4445	-0.0767	-1.8220	0.0062	-0.0067	0.0138	26.4204	-10.5196	9.2476	0.5357	-0.4223	0.6454	0.3440
2.16	-9.4417	-0.0732	-1.8188	0.0062	-0.0067	0.0086	26.3756	-10.4967	9.0483	0.5356	-0.4223	0.6453	0.3440
2.17	-9.4447	-0.0750	-1.8167	0.0065	-0.0100	0.0085	26.3037	-10.4696	9.0931	0.5357	-0.4223	0.6454	0.3440
2.18	-9.4378	-0.0742	-1.8122	0.0100	-0.0082	0.0116	26.2897	-10.2201	9.3227	0.5356	-0.4222	0.6453	0.3439
2.19	-9.4404	-0.0684	-1.8137	0.0088	-0.0057	0.0073	26.1364	-10.2854	9.2970	0.5356	-0.4223	0.6454	0.3439
2.2	-9.4463	-0.0624	-1.8141	0.0040	-0.0034	0.0092	26.0233	-10.3806	9.2971	0.5356	-0.4223	0.6454	0.3439
2.21	-9.4391	-0.0583	-1.8040	0.0033	-0.0020	0.0114	26.3066	-10.2441	9.3186	0.5356	-0.4223	0.6454	0.3439
2.22	-9.4454	-0.0493	-1.8078	0.0024	-0.0018	0.0067	26.2747	-10.2661	9.1822	0.5356	-0.4224	0.6455	0.3439
2.23	-9.4415	-0.0469	-1.8102	0.0014	-0.0046	0.0083	26.2935	-10.2336	9.4037	0.5356	-0.4224	0.6454	0.3438
2.24	-9.4444	-0.0446	-1.8033	-0.0008	-0.0048	0.0105	26.2335	-10.3248	9.2990	0.5356	-0.4224	0.6455	0.3439
2.25	-9.4429	-0.0492	-1.8075	0.0060	-0.0003	0.0050	26.1633	-10.3452	9.4117	0.5355	-0.4224	0.6454	0.3438
2.26	-9.4420	-0.0473	-1.8054	0.0042	-0.0100	0.0087	26.2567	-10.3412	9.2307	0.5355	-0.4224	0.6454	0.3438
2.27	-9.4387	-0.0468	-1.8048	0.0043	-0.0085	0.0146	26.2585	-10.4823	9.1360	0.5355	-0.4224	0.6454	0.3438
2.28	-9.4375	-0.0513	-1.8098	0.0023	-0.0082	0.0127	26.4315	-10.5662	9.2873	0.5355	-0.4224	0.6454	0.3438
2.29	-9.4397	-0.0578	-1.8092	0.0003	-0.0093	0.0105	26.5367	-10.6021	9.0946	0.5355	-0.4224	0.6455	0.3438
2.3	-9.4377	-0.0588	-1.8037	-0.0027	-0.0103	0.0072	26.2053	-10.5443	8.9208	0.5355	-0.4225	0.6454	0.3438
2.31	-9.4417	-0.0667	-1.8107	0.0011	-0.0104	0.0080	26.3929	-10.4804	9.0273	0.5355	-0.4225	0.6454	0.3438
2.32	-9.4423	-0.0675	-1.8135	0.0034	-0.0040	0.0104	26.2928	-10.5725	9.0727	0.5354	-0.4225	0.6454	0.3438
2.33	-9.4438	-0.0679	-1.8106	0.0015	-0.0145	0.0110	26.2744	-10.6184	9.0179	0.5355	-0.4225	0.6454	0.3438
2.34	-9.4456	-0.0673	-1.8104	0.0034	-0.0133	0.0120	26.1806	-10.5073	9.2794	0.5355	-0.4225	0.6454	0.3438
2.35	-9.4406	-0.0647	-1.8075	-0.0016	-0.0091	0.0080	26.2606	-10.5870	9.2536	0.5355	-0.4225	0.6454	0.3438
2.36	-9.4476	-0.0656	-1.8072	0.0005	-0.0159	0.0157	26.3284	-10.4853	9.2111	0.5355	-0.4225	0.6454	0.3439
2.37	-9.4443	-0.0590	-1.8053	-0.0002	-0.0094	0.0125	26.3133	-10.3092	9.2116	0.5355	-0.4225	0.6454	0.3439
2.38	-9.4417	-0.0606	-1.8138	0.0031	-0.0032	0.0078	26.1693	-10.3086	9.2646	0.5354	-0.4225	0.6454	0.3439
2.39	-9.4369	-0.0648	-1.8141	-0.0017	-0.0072	0.0104	26.2112	-10.2132	9.3237	0.5354	-0.4225	0.6453	0.3439
2.4	-9.4390	-0.0624	-1.8072	-0.0018	-0.0019	0.0069	26.1235	-10.4845	9.2858	0.5354	-0.4226	0.6454	0.3439
2.41	-9.4390	-0.0625	-1.8086	-0.0030	-0.0052	0.0089	26.0834	-10.2277	9.1809	0.5353	-0.4226	0.6454	0.3439
2.42	-9.4377	-0.0654	-1.8097	-0.0019	-0.0142	0.0096	26.0419	-10.3582	9.2510	0.5354	-0.4227	0.6454	0.3439
2.43	-9.4460	-0.0618	-1.8149	0.0083	-0.0078	0.0086	26.0217	-10.2378	9.0799	0.5353	-0.4226	0.6453	0.3439
2.44	-9.4384	-0.0573	-1.8136	0.0032	-0.0070	0.0067	26.2157	-10.2979	9.1937	0.5354	-0.4227	0.6454	0.3439
2.45	-9.4445	-0.0591	-1.8149	0.0038	-0.0108	0.0137	26.0814	-10.4908	9.3282	0.5354	-0.4227	0.6454	0.3439
2.46	-9.4413	-0.0638	-1.8094	0.0077	-0.0112	0.0118	26.1395	-10.3062	9.0012	0.5353	-0.4226	0.6453	0.3438
2.47	-9.4395	-0.0679	-1.8110	0.0051	-0.0124	0.0159	26.6088	-10.4490	9.1720	0.5354	-0.4227	0.6454	0.3439
2.48	-9.4394	-0.0701	-1.8128	0.0043	-0.0066	0.0094	26.4961	-10.3733	9.1107	0.5354	-0.4226	0.6454	0.3439
2.49	-9.4432	-0.0721	-1.8117	-0.0015	-0.0080	0.0071	26.5242	-10.5300	9.2005	0.5354	-0.4227	0.6454	0.3439
2.5	-9.4445	-0.0715	-1.8098	0.0013	-0.0133	0.0097	26.2319	-10.7092	9.3276	0.5353	-0.4226	0.6453	0.3438
2.51	-9.4409	-0.0669	-1.8064	-0.0013	-0.0109	0.0096	26.3358	-10.4154	9.3021	0.5354	-0.4227	0.6454	0.3439
2.52	-9.4338	-0.0690	-1.8039	0.0011	-0.0090	0.0108	26.3376	-10.4658	9.1455	0.5353	-0.4227	0.6453	0.3439
2.53	-9.4367	-0.0671	-1.8044	-0.0020	-0.0121	0.0112	26.2467	-10.5270	9.1361	0.5353	-0.4227	0.6453	0.3439
2.54	-9.4394	-0.0658	-1.8063	0.0011	-0.0020	0.0067	26.4884	-10.3941	9.1229	0.5353	-0.4228	0.6453	0.3439
2.55	-9.4392	-0.0701	-1.8021	0.0003	-0.0065	0.0099	26.4161	-10.4297	9.3064	0.5353	-0.4228	0.6453	0.3439
2.56	-9.4396	-0.0657	-1.7995	0.0058	-0.0044	0.0076	26.4969	-10.3963	9.4525	0.5353	-0.4228	0.6454	0.3439
2.57	-9.4388	-0.0667	-1.8053	0.0022	-0.0077	0.0077	26.5569	-10.5018	9.2929	0.5352	-0.4228	0.6453	0.3438
2.58	-9.4420	-0.0686	-1.8019	0.0092	-0.0026	0.0089	26.2780	-10.4583	9.2341	0.5353	-0.4228	0.6454	0.3439
2.59	-9.4435	-0.0687	-1.8010	0.0132	-0.0077	0.0073	26.2096	-10.2694	9.1906	0.5353	-0.4228	0.6454	0.3438
2.6	-9.4384	-0.0635	-1.8018	0.0052	-0.0051	0.0101	26.0536	-10.4823	9.1464	0.5353	-0.4228	0.6454	0.3438
2.61	-9.4394	-0.0614	-1.7948	0.0076	-0.0046	0.0051	26.0224	-10.6065	9.1389	0.5353	-0.4228	0.6454	0.3437
2.62	-9.4414	-0.0576	-1.8004	0.0097	-0.0096	0.0138	26.2660	-10.4148	9.0417	0.5353	-0.4228	0.6454	0.3437
2.63	-9.4440	-0.0544	-1.8014	0.0074	-0.0084	0.0126	26.4491	-10.4050	9.0671	0.5353	-0.4228	0.6454	0.3437
2.64	-9.4401	-0.0555	-1.7952	0.0026	-0.0121	0.0124	26.3423	-10.3789	9.0625	0.5352	-0.4228	0.6454	0.3437
2.65	-9.4443	-0.0555	-1.7990	0.0082	-0.0081	0.0109	26.3714	-10.4360	9.0519	0.5353	-0.4228	0.6455	0.3437
2.66	-9.4356	-0.0551	-1.7992	0.0172	-0.0132	0.0153	26.3025	-10.4569	8.9391	0.5353	-0.4227	0.6455	0.3437
2.67	-9.4377	-0.0582	-1.8049	0.0066	-0.0089	0.0143	26.3095	-10.3720	9.0342	0.5354	-0.4227	0.6455	0.3437
2.68	-9.4424	-0.0581	-1.8072	0.0176	-0.0130	0.0162	26.4533	-10.4831	9.1770	0.5353	-0.4226	0.6455	0.3436
2.69	-9.4452	-0.0616	-1.8055	0.0055	-0.0101	0.0190	26.4170	-10.5020	9.1196	0.5353	-0.4226	0.6455	0.3437
2.7	-9.4408	-0.0588	-1.8086	0.0037	-0.0059	0.0095	26.2755	-10.4149	9.0413	0.5353	-0.4226	0.6455	0.3437
2.71	-9.4404	-0.0604	-1.8069	0.0076	-0.0074	0.0093	26.2877	-10.4201	9.0602	0.5353	-0.4226	0.6455	0.3436
2.72	-9.4403	-0.0633	-1.8086	0.0082	-0.0071	0.0113	26.1475	-10.2670	9.1551	0.5354	-0.4227	0.6456	0.3437
2.73	-9.4360	-0.0687	-1.8066	0.0149	-0.0113	0.0134	26.2719	-10.3008	8.9824	0.5353	-0.4226	0.6456	0.3436
2.74	-9.4407	-0.0680	-1.8065	0.0079	-0.0080	0.0107	26.3923	-10.4334	9.0130	0.5354	-0.4226	0.6456	0.3436
2.75	-9.4429	-0.0679	-1.8094	0.0056	-0.0076	0.0065	26.2612	-10.3912	9.1671	0.5353	-0.4226	0.6455	0.3435
2.76	-9.4432	-0.0707	-1.8055	0.0036	-0.0099	0.0073	26.2424	-10.4902	9.3547	0.5354	-0.4226	0.6456	0.3436
2.77	-9.4392	-0.0688	-1.8141	0.0087	-0.0062	0.0082	26.1734	-10.3722	9.2848	0.5354	-0.4226	0.6456	0.3435
2.78	-9.4379	-0.0682	-1.8149	0.0080	-0.0039	0.0115	26.1740	-10.4160	9.1248	0.5353	-0.4226	0.6456	0.3435
2.79	-9.4380	-0.0670	-1.8123	0.0038	-0.0132	0.0127	26.3011	-10.3986	9.1712	0.5354	-0.4226	0.6456	0.3435
2.8	-9.4414	-0.0666	-1.8146	0.0056	-0.0075	0.0059	26.4421	-10.5080	9.2319	0.5354	-0.4226	0.6456	0.3435
2.81	-9.4387	-0.0668	-1.8150	0.0084	-0.0053	0.0083	26.0809	-10.4728	9.0953	0.5354	-0.4226	0.6456	0.3435
2.82	-9.4397	-0.0693	-1.8188	0.0027	-0.0131	0.0131	26.1941	-10.4966	9.2571	0.5353	-0.4226	0.6456	0.3434
2.83	-9.4401	-0.0656	-1.8175	0.0073	-0.0093	0.0114	26.1807	-10.4751	9.2188	0.5354	-0.4226	0.6456	0.3435
2.84	-9.4367	-0.0674	-1.8167	0.0106	-0.0078	0.0144	26.3561	-10.5001	9.2494	0.5354	-0.4226	0.6456	0.3434
2.85	-9.4398	-0.0685	-1.8128	0.0066	-0.0111	0.0114	26.5312	-10.4170	8.9485	0.5354	-0.4226	0.6457	0.3434
2.86	-9.4411	-0.0618	-1.8131	0.0055	-0.0172	0.0119	26.5052	-10.2857	9.0959	0.5354	-0.4225	0.6456	0.3434
2.87	-9.4429	-0.0624	-1.8081	0.0125	-0.0097	0.0144	26.2897	-10.5806	9.1247	0.5354	-0.4225	0.6456	0.3434
2.88	-9.4453	-0.0580	-1.8056	0.0148	-0.0077	0.0149	26.2439	-10.5040	9.0740	0.5354	-0.4225	0.6457	0.3434
2.89	-9.4435	-0.0565	-1.8061	0.0082	-0.0129	0.0157	26.0624	-10.4838	9.2720	0.5354	-0.4224	0.6456	0.3434
2.9	-9.4385	-0.0620	-1.8074	0.0041	-0.0068	0.0116	26.2571	-10.4778	9.0106	0.5355	-0.4225	0.6457	0.3434
2.91	-9.4380	-0.0620	-1.8073	0.0069	-0.0117	0.0147	26.4930	-10.5004	9.0987	0.5354	-0.4224	0.6457	0.3434
2.92	-9.4391	-0.0620	-1.8136	0.0112	-0.0115	0.0139	26.3626	-10.4065	9.0161	0.5355	-0.4224	0.6458	0.3434
2.93	-9.4394	-0.0659	-1.8139	0.0060	-0.0100	0.0116	26.2595	-10.4016	9.2724	0.5354	-0.4223	0.6457	0.3434
2.94	-9.4350	-0.0727	-1.8108	-0.0003	-0.0014	0.0136	26.0638	-10.5034	9.0739	0.5354	-0.4224	0.6457	0.3434
2.95	-9.4354	-0.0675	-1.8061	0.0029	-0.0079	0.0114	26.1619	-10.6596	9.0996	0.5354	-0.4224	0.6458	0.3434
2.96	-9.4395	-0.0700	-1.8023	0.0013	-0.0122	0.0075	26.2671	-10.2300	9.2313	0.5354	-0.4224	0.6457	0.3434
2.97	-9.4394	-0.0665	-1.8055	0.0029	-0.0060	0.0094	26.2662	-10.2494	9.2482	0.5355	-0.4224	0.6458	0.3434
2.98	-9.4397	-0.0648	-1.8166	0.0045	-0.0027	0.0075	26.1507	-10.5809	9.0457	0.5354	-0.4224	0.6457	0.3434
2.99	-9.4384	-0.0650	-1.8199	0.0037	-0.0055	0.0143	26.2650	-10.3792	9.1881	0.5354	-0.4224	0.6458	0.3434
3	-9.4331	-0.0661	-1.8129	0.0087	-0.0057	0.0089	26.2595	-10.4146	9.2661	0.5353	-0.4224	0.6457	0.3433
3.01	-9.4400	-0.0703	-1.8204	0.0087	-0.0106	0.0136	26.3863	-10.4864	8.9973	0.5354	-0.4224	0.6458	0.3433
3.02	-9.4430	-0.0708	-1.8174	0.0025	-0.0079	0.0147	26.2924	-10.5020	9.3007	0.5354	-0.4224	0.6458	0.3433
3.03	-9.4352	-0.0679	-1.8171	0.0038	-0.0067	0.0124	26.2443	-10.6832	9.3464	0.5354	-0.4224	0.6458	0.3433
3.04	-9.4333	-0.0624	-1.8184	0.0038	-0.0144	0.0139	26.3604	-10.5256	9.2230	0.5354	-0.4224	0.6458	0.3434
3.05	-9.4360	-0.0597	-1.8134	0.0042	-0.0044	0.0087	26.4770	-10.4971	9.2486	0.5354	-0.4224	0.6458	0.3433
3.06	-9.4368	-0.0545	-1.8104	0.0068	-0.0102	0.0110	26.7045	-10.5919	9.2418	0.5354	-0.4224	0.6458	0.3434
3.07	-9.4389	-0.0475	-1.8090	0.0047	-0.0121	0.0194	26.5650	-10.4747	9.2518	0.5353	-0.4223	0.6458	0.3433
3.08	-9.4443	-0.0492	-1.8060	0.0007	-0.0068	0.0106	26.5951	-10.3921	9.1927	0.5354	-0.4224	0.6459	0.3434
3.09	-9.4432	-0.0512	-1.8037	0.0007	-0.0091	0.0082	26.4165	-10.4625	9.0432	0.5353	-0.4224	0.6458	0.3434
3.1	-9.4369	-0.0508	-1.7990	0.0049	-0.0056	0.0110	26.2612	-10.5414	9.1244	0.5354	-0.4224	0.6459	0.3434
3.11	-9.4386	-0.0515	-1.8059	0.0027	-0.0125	0.0131	26.3599	-10.5124	9.1125	0.5353	-0.4224	0.6458	0.3434
3.12	-9.4426	-0.0527	-1.8033	0.0021	-0.0068	0.0085	26.2573	-10.2418	9.2559	0.5353	-0.4224	0.6458	0.3434
3.13	-9.4381	-0.0546	-1.8012	0.0019	-0.0050	0.0067	26.4123	-10.3364	9.1031	0.5353	-0.4224	0.6458	0.3434
3.14	-9.4381	-0.0581	-1.8009	0.0017	-0.0046	0.0094	26.1745	-10.2543	9.2196	0.5353	-0.4224	0.6458	0.3433
3.15	-9.4409	-0.0617	-1.7979	0.0027	-0.0037	0.0075	26.1889	-10.2834	9.0558	0.5353	-0.4225	0.6459	0.3434
3.16	-9.4372	-0.0610	-1.7980	0.0020	-0.0020	0.0064	26.0657	-10.4720	9.2327	0.5353	-0.4225	0.6458	0.3433
3.17	-9.4360	-0.0633	-1.7986	0.0042	-0.0047	0.0048	26.1863	-10.4045	9.2470	0.5353	-0.4225	0.6459	0.3433
3.18	-9.4325	-0.0636	-1.7944	0.0037	-0.0056	0.0065	26.1917	-10.4408	9.1895	0.5352	-0.4225	0.6458	0.3433
3.19	-9.4404	-0.0652	-1.7939	0.0061	-0.0098	0.0094	26.0754	-10.1936	9.1829	0.5353	-0.4225	0.6459	0.3433
3.2	-9.4429	-0.0659	-1.7990	0.0023	-0.0094	0.0080	26.1515	-10.1813	9.2640	0.5353	-0.4225	0.6458	0.3433
3.21	-9.4371	-0.0616	-1.8001	0.0027	-0.0085	0.0122	26.2557	-10.4917	9.2280	0.5352	-0.4225	0.6458	0.3432
3.22	-9.4372	-0.0629	-1.8060	0.0013	-0.0133	0.0143	26.4619	-10.7021	9.2127	0.5353	-0.4226	0.6459	0.3433
3.23	-9.4399	-0.0611	-1.8093	0.0019	-0.0075	0.0083	26.4036	-10.5116	9.1899	0.5353	-0.4225	0.6458	0.3433
3.24	-9.4388	-0.0598	-1.8128	-0.0010	-0.0047	0.0086	26.2752	-10.5038	9.0804	0.5353	-0.4226	0.6459	0.3433
3.25	-9.4371	-0.0649	-1.8110	0.0021	-0.0067	0.0090	26.2626	-10.5043	9.1646	0.5352	-0.4226	0.6458	0.3433
3.26	-9.4435	-0.0649	-1.8192	0.0016	-0.0063	0.0080	26.3815	-10.5026	8.9489	0.5352	-0.4226	0.6458	0.3433
3.27	-9.4330	-0.0709	-1.8182	0.0051	-0.0048	0.0125	26.1737	-10.5044	9.0391	0.5352	-0.4226	0.6458	0.3433
3.28	-9.4381	-0.0747	-1.8214	0.0061	-0.0043	0.0129	26.2549	-10.5157	9.4672	0.5352	-0.4226	0.6459	0.3432
3.29	-9.4437	-0.0795	-1.8210	0.0014	-0.0034	0.0098	26.3530	-10.4073	9.0364	0.5352	-0.4226	0.6459	0.3433
3.3	-9.4437	-0.0771	-1.8161	0.0063	-0.0048	0.0100	26.3732	-10.4299	9.0788	0.5352	-0.4226	0.6459	0.3432
3.31	-9.4379	-0.0709	-1.8202	0.0025	-0.0060	0.0098	26.0877	-10.3899	9.1113	0.5352	-0.4227	0.6459	0.3432
3.32	-9.4384	-0.0676	-1.8155	-0.0012	-0.0003	0.0110	26.2742	-10.2271	9.2003	0.5351	-0.4226	0.6459	0.3432
3.33	-9.4381	-0.0639	-1.8133	0.0012	-0.0057	0.0102	26.4294	-10.2882	9.1959	0.5351	-0.4227	0.6459	0.3432
3.34	-9.4357	-0.0575	-1.8086	0.0023	-0.0035	0.0087	26.0613	-10.3439	9.2315	0.5351	-0.4227	0.6459	0.3432
3.35	-9.4437	-0.0564	-1.8125	0.0014	-0.0039	0.0086	26.1427	-10.4049	9.0645	0.5351	-0.4227	0.6459	0.3432
3.36	-9.4407	-0.0602	-1.8081	0.0010	-0.0020	0.0134	26.0190	-10.4418	8.9082	0.5350	-0.4227	0.6459	0.3432
3.37	-9.4368	-0.0660	-1.8058	0.0014	-0.0054	0.0022	26.0304	-10.4173	9.0823	0.5350	-0.4228	0.6459	0.3432
3.38	-9.4382	-0.0693	-1.8058	0.0042	-0.0039	0.0079	26.0437	-10.4310	9.1412	0.5350	-0.4228	0.6460	0.3432
3.39	-9.4419	-0.0700	-1.8046	-0.0009	-0.0101	0.0116	25.9913	-10.4822	9.0168	0.5350	-0.4228	0.6459	0.3431
3.4	-9.4434	-0.0722	-1.7996	0.0056	-0.0105	0.0146	26.2799	-10.5492	9.0472	0.5350	-0.4228	0.6460	0.3432
3.41	-9.4383	-0.0653	-1.8029	0.0041	-0.0043	0.0077	26.4555	-10.5591	9.1639	0.5350	-0.4228	0.6460	0.3432
3.42	-9.4483	-0.0639	-1.8119	0.0010	-0.0069	0.0107	26.2365	-10.6885	9.3150	0.5350	-0.4229	0.6460	0.3432
3.43	-9.4437	-0.0648	-1.8023	0.0035	-0.0039	0.0097	26.3596	-10.5571	9.2046	0.5349	-0.4228	0.6459	0.3431
3.44	-9.4348	-0.0652	-1.7974	-0.0019	-0.0055	0.0112	26.2542	-10.4304	8.9820	0.5349	-0.4229	0.6460	0.3432
3.45	-9.4391	-0.0662	-1.8043	-0.0037	-0.0082	0.0075	26.2778	-10.6607	9.0880	0.5349	-0.4229	0.6460	0.3432
3.46	-9.4380	-0.0642	-1.8057	-0.0054	-0.0091	0.0109	26.2649	-10.4830	9.2195	0.5349	-0.4229	0.6459	0.3432
3.47	-9.4372	-0.0609	-1.7971	0.0001	-0.0118	0.0099	26.3523	-10.5106	9.1926	0.5349	-0.4230	0.6460	0.3433
3.48	-9.4371	-0.0614	-1.8019	0.0006	-0.0081	0.0099	26.1159	-10.3789	9.1108	0.5349	-0.4229	0.6459	0.3432
3.49	-9.4422	-0.0612	-1.8064	-0.0014	-0.0069	0.0101	26.0906	-10.2821	9.2768	0.5349	-0.4230	0.6460	0.3433
3.5	-9.4389	-0.0575	-1.8043	-0.0036	-0.0036	0.0082	26.1973	-10.1716	8.9594	0.5348	-0.4230	0.6459	0.3432
3.51	-9.4327	-0.0576	-1.8057	0.0011	-0.0057	0.0116	26.2799	-10.2644	9.2125	0.5348	-0.4230	0.6459	0.3433
3.52	-9.4368	-0.0572	-1.8102	0.0024	-0.0045	0.0068	26.2712	-10.2849	9.2665	0.5348	-0.4230	0.6459	0.3432
3.53	-9.4440	-0.0567	-1.8084	-0.0098	-0.0031	0.0094	26.2062	-10.4356	9.1682	0.5348	-0.4231	0.6459	0.3433
3.54	-9.4435	-0.0569	-1.8132	0.0035	-0.0007	0.0048	26.1644	-10.3431	9.3045	0.5348	-0.4231	0.6459	0.3432
3.55	-9.4406	-0.0553	-1.8138	-0.0010	-0.0026	0.0071	26.2115	-10.3148	9.5653	0.5347	-0.4231	0.6459	0.3432
3.56	-9.4390	-0.0566	-1.8193	0.0029	-0.0037	0.0061	26.4952	-10.2225	9.4454	0.5347	-0.4232	0.6459	0.3432
3.57	-9.4334	-0.0593	-1.8151	0.0012	-0.0053	0.0080	26.5094	-10.3351	9.2800	0.5347	-0.4232	0.6459	0.3432
3.58	-9.4339	-0.0614	-1.8138	0.0072	-0.0127	0.0171	26.4646	-10.3907	9.0936	0.5347	-0.4232	0.6460	0.3432
3.59	-9.4427	-0.0663	-1.8149	0.0009	-0.0096	0.0125	26.5540	-10.3804	9.2135	0.5347	-0.4232	0.6459	0.3432
3.6	-9.4415	-0.0684	-1.8112	0.0061	-0.0063	0.0097	26.4185	-10.3976	9.2774	0.5347	-0.4232	0.6460	0.3432
3.61	-9.4389	-0.0656	-1.8116	0.0082	-0.0068	0.0122	26.4311	-10.3831	9.2053	0.5347	-0.4231	0.6459	0.3432
3.62	-9.4393	-0.0640	-1.8078	0.0050	-0.0082	0.0104	26.3969	-10.5054	9.0245	0.5347	-0.4232	0.6460	0.3432
3.63	-9.4394	-0.0675	-1.8107	0.0011	-0.0091	0.0121	26.4869	-10.3811	8.9218	0.5347	-0.4232	0.6460	0.3432
3.64	-9.4338	-0.0666	-1.8021	0.0055	-0.0053	0.0121	26.5027	-10.4528	9.1166	0.5346	-0.4231	0.6459	0.3432
3.65	-9.4413	-0.0648	-1.7989	0.0071	-0.0047	0.0119	26.4238	-10.4701	8.8832	0.5347	-0.4232	0.6460	0.3432
3.66	-9.4417	-0.0565	-1.8036	0.0050	-0.0073	0.0127	26.3872	-10.3259	9.0092	0.5346	-0.4231	0.6460	0.3432
3.67	-9.4419	-0.0578	-1.8039	0.0063	-0.0106	0.0132	26.3095	-10.5157	9.2056	0.5347	-0.4232	0.6461	0.3432
3.68	-9.4373	-0.0584	-1.8036	0.0007	-0.0120	0.0097	26.4301	-10.6595	9.1302	0.5346	-0.4231	0.6460	0.3432
3.69	-9.4386	-0.0653	-1.8012	0.0062	-0.0048	0.0086	26.3112	-10.5960	9.2721	0.5347	-0.4231	0.6460	0.3432
3.7	-9.4370	-0.0678	-1.8006	0.0009	-0.0057	0.0084	26.3423	-10.3610	9.2291	0.5347	-0.4232	0.6460	0.3432
3.71	-9.4373	-0.0701	-1.8044	0.0020	-0.0080	0.0122	26.3333	-10.4562	9.1739	0.5346	-0.4231	0.6460	0.3432
3.72	-9.4422	-0.0678	-1.8016	0.0068	-0.0003	0.0128	26.3394	-10.5715	9.0372	0.5347	-0.4232	0.6461	0.3432
3.73	-9.4432	-0.0696	-1.8067	0.0001	-0.0046	0.0085	26.2260	-10.5201	9.0755	0.5346	-0.4232	0.6460	0.3432
3.74	-9.4434	-0.0712	-1.8069	0.0030	-0.0061	0.0094	26.2945	-10.1941	9.0590	0.5346	-0.4232	0.6461	0.3432
3.75	-9.4354	-0.0687	-1.8082	0.0019	-0.0027	0.0082	26.1315	-10.3264	9.4493	0.5345	-0.4232	0.6460	0.3431
3.76	-9.4330	-0.0668	-1.8066	0.0027	-0.0114	0.0112	26.3171	-10.3705	9.3642	0.5346	-0.4232	0.6461	0.3432
3.77	-9.4340	-0.0699	-1.8019	0.0067	-0.0110	0.0160	26.4421	-10.4672	9.3353	0.5346	-0.4232	0.6460	0.3432
3.78	-9.4368	-0.0708	-1.8028	0.0046	-0.0123	0.0163	26.4016	-10.5999	9.2094	0.5346	-0.4232	0.6460	0.3432
3.79	-9.4406	-0.0675	-1.7994	0.0045	-0.0091	0.0125	26.4275	-10.4211	8.9127	0.5346	-0.4232	0.6461	0.3432
3.8	-9.4420	-0.0693	-1.7986	-0.0001	-0.0045	0.0081	26.5455	-10.3760	9.0390	0.5346	-0.4232	0.6461	0.3432
3.81	-9.4410	-0.0689	-1.7992	0.0035	-0.0051	0.0141	26.3922	-10.3832	9.0535	0.5346	-0.4232	0.6461	0.3432
3.82	-9.4372	-0.0673	-1.7991	-0.0002	-0.0090	0.0142	26.2256	-10.3745	9.1355	0.5345	-0.4231	0.6460	0.3432
3.83	-9.4400	-0.0677	-1.8032	0.0013	-0.0084	0.0108	26.3707	-10.5973	9.2694	0.5345	-0.4232	0.6461	0.3432
3.84	-9.4309	-0.0646	-1.7985	0.0008	-0.0113	0.0125	26.4444	-10.4882	9.2070	0.5345	-0.4232	0.6461	0.3432
3.85	-9.4331	-0.0664	-1.8029	0.0002	-0.0067	0.0060	26.3441	-10.4555	9.0428	0.5345	-0.4232	0.6461	0.3432
3.86	-9.4450	-0.0683	-1.8126	0.0019	-0.0116	0.0109	26.3323	-10.4738	9.1719	0.5345	-0.4232	0.6460	0.3432
3.87	-9.4444	-0.0704	-1.8157	0.0072	-0.0071	0.0130	26.4531	-10.4494	8.9975	0.5345	-0.4232	0.6461	0.3432
3.88	-9.4302	-0.0720	-1.8085	0.0046	-0.0051	0.0080	26.3695	-10.1357	9.1906	0.5345	-0.4232	0.6461	0.3432
3.89	-9.4398	-0.0744	-1.8122	0.0020	-0.0026	0.0081	26.2320	-10.5043	9.2463	0.5344	-0.4232	0.6460	0.3432
3.9	-9.4402	-0.0654	-1.8084	0.0139	-0.0058	0.0093	26.3691	-10.4149	9.2435	0.5345	-0.4232	0.6461	0.3432
3.91	-9.4295	-0.0643	-1.7982	0.0077	-0.0096	0.0065	26.2843	-10.3119	9.1915	0.5345	-0.4232	0.6461	0.3431
3.92	-9.4453	-0.0610	-1.8084	-0.0013	-0.0095	0.0073	26.2511	-10.4017	9.1184	0.5346	-0.4233	0.6461	0.3432
3.93	-9.4468	-0.0656	-1.8192	0.0123	-0.0028	0.0116	26.2460	-10.4735	9.2428	0.5345	-0.4232	0.6461	0.3431
3.94	-9.4335	-0.0686	-1.8126	0.0023	-0.0103	0.0046	26.3862	-10.4368	9.1365	0.5345	-0.4232	0.6461	0.3431
3.95	-9.4340	-0.0702	-1.8055	0.0129	-0.0156	0.0166	26.4058	-10.3843	9.3051	0.5346	-0.4232	0.6461	0.3431
3.96	-9.4401	-0.0714	-1.8101	0.0105	-0.0100	0.0184	26.4977	-10.2853	9.0520	0.5345	-0.4231	0.6461	0.3431
3.97	-9.4413	-0.0666	-1.8000	0.0039	-0.0120	0.0124	26.4100	-10.5078	9.0630	0.5346	-0.4232	0.6462	0.3431
3.98	-9.4361	-0.0576	-1.7953	0.0059	-0.0104	0.0145	26.3116	-10.5288	9.0669	0.5346	-0.4231	0.6461	0.3431
3.99	-9.4362	-0.0501	-1.7982	0.0048	-0.0081	0.0074	26.3612	-10.4405	9.0564	0.5346	-0.4231	0.6462	0.3431
4	-9.4385	-0.0451	-1.7973	0.0048	-0.0125	0.0079	26.3204	-10.4754	9.0694	0.5345	-0.4231	0.6461	0.3431
4.01	-9.4352	-0.0441	-1.7930	0.0016	-0.0129	0.0107	26.2646	-10.4719	9.0440	0.5346	-0.4231	0.6461	0.3431
4.02	-9.4378	-0.0481	-1.7941	0.0029	-0.0136	0.0090	26.3793	-10.5965	9.1119	0.5346	-0.4231	0.6461	0.3431
4.03	-9.4425	-0.0467	-1.7976	0.0013	-0.0080	0.0140	26.2522	-10.4546	9.1837	0.5346	-0.4231	0.6461	0.3431
4.04	-9.4369	-0.0506	-1.7929	0.0045	-0.0062	0.0109	26.2587	-10.4833	9.0147	0.5346	-0.4231	0.6461	0.3432
4.05	-9.4349	-0.0585	-1.7912	0.0004	-0.0130	0.0130	26.2657	-10.4377	9.2595	0.5346	-0.4231	0.6461	0.3432
4.06	-9.4426	-0.0590	-1.7981	0.0011	-0.0045	0.0068	26.6118	-10.3452	9.5409	0.5346	-0.4232	0.6461	0.3432
4.07	-9.4389	-0.0645	-1.8024	0.0076	-0.0022	0.0046	26.7484	-10.4724	9.4187	0.5345	-0.4231	0.6460	0.3431
4.08	-9.4352	-0.0641	-1.7938	0.0017	-0.0040	0.0052	26.5051	-10.3713	9.1768	0.5346	-0.4232	0.6461	0.3431
4.09	-9.4418	-0.0660	-1.7939	0.0089	-0.0011	0.0089	26.2186	-10.2943	9.0608	0.5346	-0.4232	0.6461	0.3431
4.1	-9.4383	-0.0620	-1.7958	0.0035	-0.0067	0.0067	26.0436	-10.4972	9.0979	0.5346	-0.4232	0.6461	0.3431
4.11	-9.4351	-0.0656	-1.7967	-0.0038	-0.0052	0.0058	26.1551	-10.3209	9.2312	0.5345	-0.4232	0.6461	0.3431
4.12	-9.4335	-0.0695	-1.7952	-0.0040	-0.0068	0.0076	26.0258	-10.3024	9.1827	0.5345	-0.4233	0.6461	0.3431
4.13	-9.4404	-0.0704	-1.7939	0.0033	-0.0035	0.0078	26.0890	-10.3610	9.2424	0.5345	-0.4233	0.6461	0.3431
4.14	-9.4427	-0.0734	-1.8066	0.0013	-0.0094	0.0081	26.3032	-10.4341	9.1013	0.5345	-0.4233	0.6460	0.3430
4.15	-9.4436	-0.0744	-1.8116	0.0015	-0.0048	0.0079	26.3886	-10.4162	9.1711	0.5345	-0.4234	0.6461	0.3431
4.16	-9.4395	-0.0773	-1.8171	0.0069	-0.0075	0.0137	26.2594	-10.6396	9.0268	0.5345	-0.4233	0.6461	0.3430
4.17	-9.4384	-0.0751	-1.8139	0.0010	-0.0041	0.0099	26.3842	-10.6435	8.9804	0.5345	-0.4234	0.6461	0.3431
4.18	-9.4394	-0.0770	-1.8073	0.0046	-0.0079	0.0135	26.3848	-10.5037	9.1707	0.5344	-0.4233	0.6461	0.3430
4.19	-9.4452	-0.0736	-1.8141	-0.0029	-0.0116	0.0137	26.3699	-10.4962	9.1032	0.5345	-0.4233	0.6461	0.3431
4.2	-9.4439	-0.0740	-1.8217	-0.0022	-0.0090	0.0096	26.4088	-10.5922	8.9769	0.5345	-0.4234	0.6461	0.3431
4.21	-9.4373	-0.0714	-1.8254	0.0016	-0.0039	0.0087	26.2990	-10.5236	8.9466	0.5344	-0.4233	0.6460	0.3431
4.22	-9.4336	-0.0710	-1.8228	0.0019	-0.0118	0.0091	26.3191	-10.4450	8.9522	0.5345	-0.4234	0.6461	0.3431
4.23	-9.4397	-0.0657	-1.8271	0.0091	-0.0113	0.0149	26.2709	-10.6300	8.9730	0.5345	-0.4233	0.6461	0.3431
4.24	-9.4419	-0.0557	-1.8323	0.0036	-0.0125	0.0049	26.2001	-10.4179	9.1290	0.5345	-0.4234	0.6461	0.3431
4.25	-9.4350	-0.0545	-1.8261	0.0047	-0.0046	0.0056	26.2309	-10.4444	9.1167	0.5344	-0.4233	0.6460	0.3431
4.26	-9.4409	-0.0488	-1.8246	0.0019	-0.0025	0.0069	26.2062	-10.3392	9.2445	0.5345	-0.4234	0.6461	0.3431
4.27	-9.4410	-0.0558	-1.8254	-0.0047	-0.0033	0.0027	26.2283	-10.1865	9.1489	0.5344	-0.4235	0.6460	0.3431
4.28	-9.4361	-0.0599	-1.8186	-0.0008	-0.0058	0.0077	26.1999	-10.2675	9.0995	0.5344	-0.4235	0.6460	0.3431
4.29	-9.4366	-0.0637	-1.8195	0.0050	-0.0117	0.0094	26.3254	-10.2581	9.1390	0.5345	-0.4235	0.6460	0.3431
4.3	-9.4387	-0.0630	-1.8196	-0.0021	-0.0062	0.0025	26.2599	-10.3177	9.2288	0.5344	-0.4235	0.6460	0.3431
4.31	-9.4379	-0.0636	-1.8135	0.0037	-0.0056	0.0035	26.1992	-10.3211	9.1906	0.5345	-0.4236	0.6460	0.3430
4.32	-9.4378	-0.0618	-1.8042	-0.0001	-0.0077	0.0102	26.2197	-10.2380	9.2907	0.5344	-0.4235	0.6459	0.3430
4.33	-9.4465	-0.0590	-1.8029	0.0064	-0.0112	0.0112	26.3038	-10.3958	9.3143	0.5345	-0.4236	0.6460	0.3431
4.34	-9.4480	-0.0535	-1.8034	0.0036	-0.0036	0.0091	26.4488	-10.6206	9.1197	0.5344	-0.4236	0.6460	0.3430
4.35	-9.4430	-0.0462	-1.7957	-0.0009	-0.0118	0.0108	26.4584	-10.7273	9.2333	0.5344	-0.4236	0.6460	0.3431
4.36	-9.4360	-0.0424	-1.7961	0.0011	-0.0071	0.0134	26.4722	-10.5561	9.1128	0.5344	-0.4236	0.6460	0.3431
4.37	-9.4384	-0.0368	-1.7919	0.0066	-0.0045	0.0086	26.4294	-10.4173	9.1729	0.5344	-0.4236	0.6460	0.3430
4.38	-9.4388	-0.0409	-1.7897	0.0032	-0.0073	0.0101	26.3636	-10.7950	9.1975	0.5344	-0.4236	0.6460	0.3431
4.39	-9.4394	-0.0440	-1.7847	0.0054	-0.0092	0.0118	26.3809	-10.6122	9.0922	0.5344	-0.4236	0.6459	0.3430
4.4	-9.4443	-0.0526	-1.7858	0.0066	-0.0042	0.0077	26.4803	-10.4800	9.1722	0.5344	-0.4236	0.6460	0.3430
4.41	-9.4443	-0.0626	-1.7822	0.0077	-0.0083	0.0121	26.2954	-10.5623	9.2110	0.5344	-0.4236	0.6460	0.3430
4.42	-9.4328	-0.0692	-1.7884	0.0071	-0.0115	0.0128	26.3460	-10.6382	9.0214	0.5345	-0.4236	0.6461	0.3430
4.43	-9.4276	-0.0728	-1.7881	-0.0001	-0.0063	0.0096	26.0773	-10.4228	9.1347	0.5344	-0.4235	0.6460	0.3430
4.44	-9.4432	-0.0729	-1.7924	0.0023	-0.0014	0.0052	26.5549	-10.3214	9.2316	0.5344	-0.4236	0.6460	0.3430
4.45	-9.4407	-0.0770	-1.7924	0.0076	-0.0036	0.0083	26.3543	-10.2234	9.0179	0.5344	-0.4236	0.6460	0.3430
4.46	-9.4381	-0.0772	-1.7908	0.0017	0.0002	0.0035	26.1395	-10.3942	9.1151	0.5343	-0.4236	0.6460	0.3429
4.47	-9.4467	-0.0752	-1.7984	0.0004	-0.0035	0.0057	26.3662	-10.1205	9.1266	0.5344	-0.4237	0.6461	0.3430
4.48	-9.4437	-0.0787	-1.7966	-0.0014	-0.0052	0.0043	26.1040	-10.4270	9.1155	0.5343	-0.4237	0.6460	0.3429
4.49	-9.4299	-0.0713	-1.7901	-0.0022	-0.0025	0.0027	26.0334	-10.3197	9.1247	0.5344	-0.4238	0.6460	0.3429
4.5	-9.4380	-0.0739	-1.8007	0.0022	-0.0059	0.0108	26.1509	-10.3214	9.1108	0.5343	-0.4238	0.6460	0.3429
4.51	-9.4471	-0.0762	-1.8063	0.0022	-0.0072	0.0143	26.1271	-10.5907	9.1425	0.5343	-0.4238	0.6460	0.3429
4.52	-9.4405	-0.0732	-1.8096	0.0044	-0.0123	0.0130	26.1709	-10.4625	9.2588	0.5343	-0.4238	0.6460	0.3429
4.53	-9.4387	-0.0714	-1.8145	0.0060	-0.0111	0.0105	26.2977	-10.6679	9.1137	0.5343	-0.4238	0.6460	0.3429
4.54	-9.4453	-0.0701	-1.8306	0.0034	-0.0039	0.0046	26.3883	-10.7981	9.2514	0.5343	-0.4238	0.6460	0.3429
4.55	-9.4367	-0.0720	-1.8306	0.0015	-0.0050	0.0088	26.4998	-10.4595	9.1898	0.5343	-0.4238	0.6460	0.3429
4.56	-9.4339	-0.0749	-1.8275	-0.0036	-0.0062	0.0139	26.7775	-10.2736	9.2943	0.5343	-0.4238	0.6460	0.3429
4.57	-9.4413	-0.0772	-1.8293	0.0042	-0.0092	0.0138	26.7140	-10.5352	9.3149	0.5342	-0.4238	0.6460	0.3429
4.58	-9.4479	-0.0810	-1.8287	0.0030	-0.0053	0.0113	26.4837	-10.4707	9.2258	0.5343	-0.4238	0.6460	0.3430
4.59	-9.4459	-0.0787	-1.8221	0.0019	-0.0078	0.0134	26.2704	-10.3477	9.0217	0.5342	-0.4238	0.6460	0.3429
4.6	-9.4435	-0.0766	-1.8265	0.0080	-0.0084	0.0107	26.1864	-10.3456	8.8377	0.5343	-0.4238	0.6460	0.3430
4.61	-9.4454	-0.0736	-1.8222	0.0110	-0.0091	0.0086	26.2875	-10.3966	9.1060	0.5343	-0.4238	0.6460	0.3429
4.62	-9.4373	-0.0633	-1.8187	0.0021	-0.0061	0.0089	26.1468	-10.4322	9.0574	0.5343	-0.4238	0.6460	0.3429
4.63	-9.4341	-0.0557	-1.8165	0.0114	-0.0070	0.0124	26.2524	-10.5179	9.0786	0.5343	-0.4238	0.6461	0.3429
4.64	-9.4405	-0.0465	-1.8134	0.0117	-0.0074	0.0105	26.2838	-10.3944	9.0716	0.5342	-0.4237	0.6460	0.3428
4.65	-9.4402	-0.0452	-1.8091	0.0083	-0.0044	0.0079	26.1586	-10.4950	9.0668	0.5343	-0.4238	0.6461	0.3429
4.66	-9.4352	-0.0416	-1.8029	0.0041	-0.0025	0.0092	26.2350	-10.5003	8.9417	0.5343	-0.4238	0.6461	0.3428
4.67	-9.4439	-0.0427	-1.7969	0.0049	0.0009	0.0092	26.2918	-10.4186	9.0707	0.5343	-0.4238	0.6462	0.3428
4.68	-9.4417	-0.0414	-1.7965	0.0033	-0.0030	0.0070	26.2490	-10.3941	9.0710	0.5342	-0.4238	0.6461	0.3428
4.69	-9.4374	-0.0449	-1.7969	0.0023	-0.0058	0.0097	26.1857	-10.4078	9.0715	0.5342	-0.4238	0.6461	0.3428
4.7	-9.4366	-0.0433	-1.7896	-0.0000	-0.0086	0.0132	26.1725	-10.4093	9.0633	0.5342	-0.4238	0.6461	0.3428
4.71	-9.4452	-0.0426	-1.7968	0.0066	-0.0118	0.0150	26.2538	-10.3803	9.0878	0.5342	-0.4238	0.6461	0.3428
4.72	-9.4406	-0.0428	-1.7968	0.0085	-0.0099	0.0133	26.4542	-10.6078	8.9623	0.5343	-0.4238	0.6462	0.3428
4.73	-9.4282	-0.0439	-1.7923	-0.0010	-0.0062	0.0163	26.4441	-10.6400	8.9054	0.5342	-0.4238	0.6461	0.3428
4.74	-9.4325	-0.0431	-1.7919	-0.0012	-0.0086	0.0112	26.3688	-10.4748	9.1004	0.5342	-0.4238	0.6462	0.3429
4.75	-9.4393	-0.0495	-1.7903	0.0044	-0.0082	0.0084	26.3419	-10.4887	8.9782	0.5342	-0.4238	0.6461	0.3428
4.76	-9.4399	-0.0575	-1.7843	-0.0032	-0.0054	0.0103	26.3475	-10.4749	8.9919	0.5342	-0.4238	0.6461	0.3429
4.77	-9.4433	-0.0639	-1.7941	-0.0011	-0.0048	0.0125	26.2192	-10.3466	9.1464	0.5342	-0.4238	0.6461	0.3429
4.78	-9.4448	-0.0665	-1.8054	0.0056	-0.0112	0.0097	26.3513	-10.5639	9.1715	0.5342	-0.4238	0.6461	0.3429
4.79	-9.4359	-0.0745	-1.8046	-0.0009	-0.0112	0.0114	26.4280	-10.5659	9.0804	0.5342	-0.4238	0.6461	0.3429
4.8	-9.4350	-0.0857	-1.8058	0.0056	-0.0084	0.0141	26.3292	-10.5735	9.0499	0.5342	-0.4238	0.6461	0.3429
4.81	-9.4387	-0.0906	-1.8141	-0.0013	-0.0072	0.0166	26.3633	-10.5245	8.9527	0.5342	-0.4238	0.6462	0.3429
4.82	-9.4411	-0.1006	-1.8196	-0.0036	-0.0037	0.0115	26.3342	-10.3877	9.0885	0.5341	-0.4238	0.6461	0.3429
4.83	-9.4348	-0.1046	-1.8191	0.0072	-0.0069	0.0076	26.4599	-10.3041	8.9590	0.5341	-0.4239	0.6462	0.3429
4.84	-9.4365	-0.1043	-1.8144	-0.0029	-0.0093	0.0102	26.2527	-10.3343	9.0126	0.5341	-0.4238	0.6461	0.3429
4.85	-9.4443	-0.1017	-1.8115	0.0012	-0.0039	0.0080	26.3426	-10.5555	9.1702	0.5341	-0.4239	0.6461	0.3429
4.86	-9.4388	-0.0943	-1.8053	0.0051	-0.0069	0.0139	26.3420	-10.5867	9.2432	0.5341	-0.4239	0.6461	0.3429
4.87	-9.4363	-0.0845	-1.8059	0.0081	-0.0084	0.0067	26.2474	-10.4190	9.1539	0.5341	-0.4239	0.6461	0.3429
4.88	-9.4425	-0.0790	-1.8105	0.0027	-0.0047	0.0114	26.2749	-10.2312	8.9334	0.5341	-0.4239	0.6462	0.3429
4.89	-9.4431	-0.0793	-1.8125	-0.0029	-0.0091	0.0133	26.2690	-10.2871	9.1850	0.5340	-0.4238	0.6461	0.3429
4.9	-9.4380	-0.0780	-1.8069	0.0037	-0.0111	0.0156	26.2498	-10.5609	9.1049	0.5341	-0.4239	0.6462	0.3430
4.91	-9.4365	-0.0723	-1.8074	0.0099	-0.0077	0.0122	26.3230	-10.3780	8.8647	0.5341	-0.4238	0.6461	0.3429
4.92	-9.4448	-0.0628	-1.8042	0.0117	-0.0065	0.0102	26.3540	-10.5436	9.0630	0.5341	-0.4239	0.6462	0.3429
4.93	-9.4370	-0.0546	-1.8017	0.0130	-0.0147	0.0137	26.3670	-10.5702	8.8477	0.5341	-0.4238	0.6461	0.3429
4.94	-9.4349	-0.0519	-1.7984	0.0103	-0.0113	0.0133	26.4131	-10.3658	9.1863	0.5342	-0.4237	0.6462	0.3429
4.95	-9.4382	-0.0441	-1.8019	0.0011	-0.0084	0.0143	26.3259	-10.3965	9.2546	0.5341	-0.4237	0.6462	0.3429
4.96	-9.4422	-0.0407	-1.8050	0.0049	-0.0107	0.0093	26.3457	-10.4785	8.9537	0.5341	-0.4237	0.6461	0.3429
4.97	-9.4390	-0.0377	-1.8042	0.0068	-0.0050	0.0126	26.3777	-10.5605	9.0267	0.5342	-0.4238	0.6462	0.3429
4.98	-9.4367	-0.0392	-1.8016	0.0069	-0.0114	0.0136	26.4043	-10.3539	9.1947	0.5341	-0.4237	0.6462	0.3429
4.99	-9.4484	-0.0448	-1.8005	0.0075	-0.0173	0.0104	26.3273	-10.4190	9.1513	0.5342	-0.4237	0.6462	0.3429
5	-9.4385	-0.0439	-1.8018	0.0027	-0.0127	0.0133	26.3486	-10.4012	9.1597	0.5342	-0.4236	0.6461	0.3429
5.01	-9.4397	-0.0477	-1.8013	0.0009	-0.0136	0.0104	26.2622	-10.3828	9.0620	0.5342	-0.4237	0.6462	0.3430
5.02	-9.4425	-0.0504	-1.8025	0.0043	-0.0142	0.0072	26.2375	-10.6345	8.8851	0.5342	-0.4237	0.6461	0.3430
5.03	-9.4378	-0.0545	-1.8075	0.0030	-0.0056	0.0138	26.1628	-10.5434	9.0365	0.5342	-0.4236	0.6461	0.3430
5.04	-9.4346	-0.0522	-1.8032	0.0023	-0.0067	0.0071	26.2745	-10.2724	9.2726	0.5342	-0.4237	0.6461	0.3430
5.05	-9.4342	-0.0498	-1.8002	0.0019	-0.0065	0.0123	26.4023	-10.3452	9.1264	0.5342	-0.4237	0.6461	0.3430
5.06	-9.4401	-0.0511	-1.8049	0.0096	-0.0150	0.0102	26.5962	-10.2703	9.3773	0.5343	-0.4237	0.6461	0.3430
5.07	-9.4330	-0.0521	-1.7969	0.0019	-0.0123	0.0073	26.5731	-10.1094	9.2234	0.5342	-0.4236	0.6460	0.3430
5.08	-9.4373	-0.0535	-1.7970	0.0051	-0.0097	0.0139	26.5253	-10.3714	9.2256	0.5343	-0.4237	0.6461	0.3430
5.09	-9.4446	-0.0602	-1.8100	0.0055	-0.0139	0.0152	26.4520	-10.4336	9.1038	0.5343	-0.4236	0.6461	0.3430
5.1	-9.4390	-0.0648	-1.8107	-0.0027	-0.0095	0.0082	26.1938	-10.4543	9.2102	0.5343	-0.4236	0.6461	0.3431
5.11	-9.4390	-0.0713	-1.8101	0.0008	-0.0074	0.0073	26.2881	-10.6875	9.0590	0.5343	-0.4236	0.6460	0.3430
5.12	-9.4414	-0.0788	-1.8096	-0.0059	-0.0088	0.0077	26.5224	-10.4950	8.9357	0.5342	-0.4237	0.6460	0.3431
5.13	-9.4461	-0.0812	-1.8151	0.0001	-0.0075	0.0111	26.4871	-10.6488	9.0271	0.5343	-0.4237	0.6460	0.3431
5.14	-9.4405	-0.0815	-1.8135	-0.0030	-0.0075	0.0091	26.3512	-10.5706	9.0948	0.5342	-0.4237	0.6460	0.3431
5.15	-9.4399	-0.0818	-1.8103	-0.0014	-0.0130	0.0117	26.2663	-10.4595	9.1763	0.5343	-0.4238	0.6460	0.3432
5.16	-9.4375	-0.0797	-1.8129	0.0025	-0.0067	0.0129	26.2990	-10.3564	9.1039	0.5342	-0.4237	0.6460	0.3431
5.17	-9.4374	-0.0783	-1.8072	0.0032	-0.0081	0.0139	26.4246	-10.4908	9.2219	0.5343	-0.4238	0.6461	0.3432
5.18	-9.4410	-0.0726	-1.8095	0.0054	-0.0132	0.0142	26.1341	-10.3846	9.1623	0.5342	-0.4237	0.6460	0.3432
5.19	-9.4410	-0.0674	-1.8069	-0.0025	-0.0116	0.0080	26.1754	-10.4280	9.1816	0.5342	-0.4237	0.6460	0.3432
5.2	-9.4394	-0.0602	-1.8090	0.0055	-0.0059	0.0052	26.1102	-10.5012	9.1989	0.5342	-0.4237	0.6460	0.3432
5.21	-9.4380	-0.0606	-1.8056	0.0010	-0.0074	0.0048	25.9953	-10.4831	9.0813	0.5342	-0.4237	0.6459	0.3431
5.22	-9.4382	-0.0598	-1.8070	0.0018	-0.0094	0.0073	26.2294	-10.4774	9.2077	0.5343	-0.4238	0.6460	0.3432
5.23	-9.4390	-0.0645	-1.8073	0.0018	-0.0137	0.0059	26.2073	-10.2372	9.2704	0.5343	-0.4238	0.6459	0.3432
5.24	-9.4388	-0.0675	-1.8053	-0.0045	-0.0162	0.0109	26.3191	-10.2306	9.0619	0.5343	-0.4238	0.6459	0.3432
5.25	-9.4388	-0.0677	-1.8068	-0.0035	-0.0099	0.0042	26.1867	-10.2355	9.1821	0.5342	-0.4238	0.6458	0.3432
5.26	-9.4417	-0.0702	-1.8065	-0.0039	-0.0138	0.0131	26.0779	-10.3359	9.2835	0.5343	-0.4238	0.6458	0.3433
5.27	-9.4408	-0.0739	-1.8080	0.0028	-0.0145	0.0142	26.2007	-10.3105	9.0743	0.5343	-0.4238	0.6458	0.3433
5.28	-9.4362	-0.0724	-1.8024	0.0029	-0.0081	0.0064	26.3793	-10.3480	9.1686	0.5343	-0.4238	0.6458	0.3433
5.29	-9.4448	-0.0702	-1.8055	0.0047	-0.0126	0.0112	26.3452	-10.6330	9.2893	0.5343	-0.4238	0.6458	0.3433
5.3	-9.4450	-0.0645	-1.8059	0.0032	-0.0107	0.0088	26.3650	-10.4598	9.1485	0.5343	-0.4238	0.6458	0.3433
5.31	-9.4409	-0.0583	-1.8004	0.0038	-0.0083	0.0111	26.3523	-10.6189	9.2235	0.5343	-0.4238	0.6458	0.3433
5.32	-9.4461	-0.0544	-1.8026	0.0027	-0.0125	0.0102	26.3699	-10.5729	9.0849	0.5343	-0.4238	0.6457	0.3433
5.33	-9.4414	-0.0474	-1.7999	0.0042	-0.0071	0.0076	26.2506	-10.3813	9.1058	0.5344	-0.4238	0.6458	0.3433
5.34	-9.4399	-0.0426	-1.8019	0.0061	-0.0058	0.0103	26.1673	-10.4939	9.2377	0.5343	-0.4238	0.6458	0.3433
5.35	-9.4385	-0.0418	-1.8024	0.0012	-0.0054	0.0088	26.2585	-10.3032	9.3020	0.5343	-0.4238	0.6458	0.3433
5.36	-9.4396	-0.0445	-1.7980	0.0044	-0.0078	0.0128	26.3711	-10.2266	9.1347	0.5343	-0.4238	0.6458	0.3433
5.37	-9.4403	-0.0457	-1.7999	0.0021	-0.0098	0.0122	26.3439	-10.2477	9.2424	0.5343	-0.4238	0.6458	0.3433
5.38	-9.4368	-0.0442	-1.8028	0.0021	-0.0045	0.0090	26.1956	-10.3615	9.2150	0.5343	-0.4238	0.6458	0.3433
5.39	-9.4428	-0.0502	-1.8050	0.0027	-0.0054	0.0067	26.1971	-10.2123	9.1640	0.5343	-0.4238	0.6457	0.3433
5.4	-9.4400	-0.0535	-1.8124	0.0056	-0.0042	0.0112	26.2766	-10.3431	9.1695	0.5343	-0.4239	0.6458	0.3433
5.41	-9.4368	-0.0560	-1.8098	-0.0020	-0.0000	0.0062	26.3064	-10.4250	9.0859	0.5343	-0.4239	0.6458	0.3433
5.42	-9.4358	-0.0547	-1.8036	0.0042	0.0006	0.0114	26.1902	-10.3465	9.2929	0.5343	-0.4239	0.6459	0.3433
5.43	-9.4428	-0.0597	-1.8055	-0.0010	-0.0012	0.0075	26.2146	-10.1329	9.2366	0.5342	-0.4239	0.6458	0.3432
5.44	-9.4486	-0.0620	-1.8089	0.0019	0.0002	0.0053	26.2428	-10.3731	9.2971	0.5342	-0.4240	0.6458	0.3432
5.45	-9.4401	-0.0587	-1.8051	0.0052	-0.0032	0.0119	26.2328	-10.2617	9.1976	0.5342	-0.4240	0.6458	0.3432
5.46	-9.4401	-0.0586	-1.8101	0.0042	-0.0068	0.0164	26.2767	-10.4853	9.1777	0.5341	-0.4239	0.6458	0.3432
5.47	-9.4391	-0.0576	-1.8096	0.0040	-0.0113	0.0120	26.3911	-10.4759	9.1871	0.5342	-0.4240	0.6459	0.3433
5.48	-9.4327	-0.0591	-1.8047	0.0050	-0.0071	0.0117	26.5466	-10.3539	8.9141	0.5342	-0.4239	0.6458	0.3432
5.49	-9.4377	-0.0598	-1.8033	0.0001	-0.0046	0.0111	26.3489	-10.4570	8.9629	0.5342	-0.4240	0.6459	0.3433
5.5	-9.4428	-0.0640	-1.8006	0.0006	-0.0046	0.0074	26.3560	-10.5670	9.2096	0.5341	-0.4239	0.6458	0.3432
5.51	-9.4426	-0.0693	-1.7971	-0.0045	-0.0077	0.0080	26.3744	-10.6625	9.1766	0.5341	-0.4240	0.6458	0.3433
5.52	-9.4382	-0.0688	-1.7993	-0.0009	-0.0043	0.0110	26.1505	-10.4686	9.0449	0.5341	-0.4240	0.6458	0.3433
5.53	-9.4370	-0.0738	-1.7972	0.0038	-0.0075	0.0125	26.1547	-10.5569	9.1989	0.5341	-0.4240	0.6458	0.3433
5.54	-9.4396	-0.0810	-1.8002	0.0066	-0.0025	0.0065	26.3907	-10.5729	9.1699	0.5341	-0.4240	0.6459	0.3433
5.55	-9.4430	-0.0797	-1.8029	0.0028	-0.0073	0.0103	26.3599	-10.2956	9.0911	0.5341	-0.4240	0.6458	0.3433
5.56	-9.4380	-0.0792	-1.8040	0.0040	-0.0021	0.0063	26.5155	-10.1593	9.2700	0.5341	-0.4241	0.6459	0.3433
5.57	-9.4399	-0.0765	-1.8101	0.0020	-0.0014	0.0058	26.5274	-10.1207	9.2673	0.5340	-0.4241	0.6458	0.3432
5.58	-9.4403	-0.0756	-1.8029	0.0033	-0.0069	0.0158	26.3065	-10.2636	9.3009	0.5341	-0.4241	0.6459	0.3433
5.59	-9.4360	-0.0744	-1.8000	0.0033	-0.0031	0.0132	26.1230	-10.4045	9.3613	0.5340	-0.4241	0.6459	0.3433
5.6	-9.4383	-0.0705	-1.8025	0.0068	-0.0125	0.0099	26.1731	-10.4463	9.2937	0.5341	-0.4241	0.6459	0.3433
5.61	-9.4422	-0.0714	-1.8068	0.0042	-0.0041	0.0102	26.2963	-10.3185	9.0259	0.5340	-0.4241	0.6458	0.3432
5.62	-9.4425	-0.0661	-1.8046	0.0058	-0.0113	0.0104	26.3556	-10.2212	9.1058	0.5341	-0.4241	0.6459	0.3432
5.63	-9.4422	-0.0601	-1.8053	0.0017	-0.0063	0.0106	26.3428	-10.4422	9.3890	0.5341	-0.4241	0.6459	0.3433
5.64	-9.4447	-0.0595	-1.8043	0.0061	-0.0121	0.0112	26.3351	-10.3065	9.1454	0.5340	-0.4240	0.6458	0.3432
5.65	-9.4427	-0.0620	-1.8045	0.0094	-0.0106	0.0096	26.3715	-10.3532	9.0766	0.5341	-0.4241	0.6459	0.3433
5.66	-9.4346	-0.0640	-1.8013	0.0024	-0.0111	0.0118	26.4258	-10.5409	9.1771	0.5341	-0.4240	0.6458	0.3433
5.67	-9.4379	-0.0647	-1.8011	0.0042	-0.0073	0.0145	26.2838	-10.4489	8.9525	0.5341	-0.4241	0.6459	0.3433
5.68	-9.4423	-0.0612	-1.7953	0.0124	-0.0117	0.0159	26.5706	-10.6098	9.0965	0.5341	-0.4240	0.6458	0.3432
5.69	-9.4417	-0.0617	-1.7999	0.0161	-0.0101	0.0161	26.4301	-10.4063	9.1898	0.5341	-0.4239	0.6459	0.3432
5.7	-9.4396	-0.0553	-1.8069	0.0037	-0.0089	0.0147	26.3333	-10.3133	9.2943	0.5341	-0.4239	0.6459	0.3433
5.71	-9.4338	-0.0542	-1.8048	0.0077	-0.0055	0.0123	26.2844	-10.6022	9.0894	0.5341	-0.4239	0.6459	0.3432
5.72	-9.4362	-0.0534	-1.8055	0.0094	-0.0091	0.0130	26.1840	-10.5579	8.9577	0.5342	-0.4239	0.6460	0.3433
5.73	-9.4431	-0.0577	-1.8068	0.0059	-0.0125	0.0147	26.4210	-10.4718	9.1579	0.5341	-0.4238	0.6459	0.3432
5.74	-9.4496	-0.0594	-1.8092	0.0134	-0.0066	0.0170	26.2548	-10.5084	9.1497	0.5342	-0.4238	0.6460	0.3433
5.75	-9.4409	-0.0585	-1.8102	0.0133	-0.0067	0.0075	26.2775	-10.4170	9.1791	0.5341	-0.4238	0.6459	0.3432
5.76	-9.4412	-0.0622	-1.8044	0.0164	-0.0115	0.0114	26.2455	-10.2842	9.2203	0.5342	-0.4238	0.6460	0.3432
5.77	-9.4405	-0.0594	-1.8033	0.0116	-0.0024	0.0113	26.3162	-10.5662	9.0013	0.5342	-0.4237	0.6460	0.3431
5.78	-9.4385	-0.0570	-1.8011	0.0154	-0.0059	0.0096	26.3821	-10.4973	9.1979	0.5342	-0.4237	0.6460	0.3431
5.79	-9.4403	-0.0597	-1.8043	0.0035	-0.0056	0.0069	26.1521	-10.5046	9.0352	0.5343	-0.4237	0.6460	0.3431
5.8	-9.4399	-0.0623	-1.8122	0.0086	-0.0067	0.0094	26.2144	-10.6963	9.2537	0.5342	-0.4237	0.6460	0.3431
5.81	-9.4366	-0.0630	-1.8198	0.0041	-0.0063	0.0110	26.1399	-10.4666	9.1853	0.5343	-0.4237	0.6461	0.3431
5.82	-9.4335	-0.0709	-1.8119	0.0036	-0.0083	0.0103	26.3708	-10.5253	9.1447	0.5342	-0.4237	0.6460	0.3430
5.83	-9.4449	-0.0732	-1.8076	0.0052	-0.0082	0.0111	26.3120	-10.2506	9.2711	0.5343	-0.4237	0.6461	0.3431
5.84	-9.4450	-0.0729	-1.8105	0.0040	-0.0069	0.0132	26.2698	-10.4410	9.2289	0.5342	-0.4237	0.6460	0.3431
5.85	-9.4391	-0.0683	-1.8074	0.0080	-0.0076	0.0152	26.1932	-10.5145	9.2696	0.5343	-0.4237	0.6461	0.3431
5.86	-9.4393	-0.0628	-1.8068	0.0063	-0.0090	0.0107	26.1846	-10.4903	9.1424	0.5342	-0.4236	0.6460	0.3431
5.87	-9.4427	-0.0594	-1.8121	0.0026	-0.0082	0.0100	26.5133	-10.4744	9.0555	0.5343	-0.4237	0.6461	0.3431
5.88	-9.4414	-0.0583	-1.8083	0.0090	-0.0099	0.0142	26.3365	-10.3619	9.0912	0.5343	-0.4236	0.6461	0.3431
5.89	-9.4412	-0.0581	-1.8015	0.0091	-0.0115	0.0166	26.4163	-10.5045	9.0455	0.5342	-0.4236	0.6460	0.3431
5.9	-9.4440	-0.0551	-1.8014	0.0052	-0.0112	0.0145	26.4560	-10.5684	9.2252	0.5343	-0.4236	0.6461	0.3431
5.91	-9.4441	-0.0581	-1.8046	0.0040	-0.0128	0.0095	26.2300	-10.4614	9.2102	0.5343	-0.4236	0.6461	0.3431
5.92	-9.4384	-0.0600	-1.7984	0.0083	-0.0141	0.0141	26.4249	-10.5302	9.1479	0.5344	-0.4236	0.6461	0.3431
5.93	-9.4395	-0.0607	-1.8026	0.0060	-0.0091	0.0134	26.3433	-10.2948	9.1633	0.5343	-0.4235	0.6460	0.3431
5.94	-9.4432	-0.0590	-1.7988	0.0074	-0.0008	0.0065	26.0544	-10.4697	9.0451	0.5343	-0.4235	0.6461	0.3431
5.95	-9.4415	-0.0650	-1.7950	0.0137	-0.0083	0.0104	26.4611	-10.4923	9.0805	0.5344	-0.4235	0.6461	0.3431
5.96	-9.4421	-0.0642	-1.7918	0.0034	-0.0105	0.0119	26.3467	-10.4952	9.1301	0.5343	-0.4235	0.6461	0.3430
5.97	-9.4447	-0.0632	-1.7990	0.0058	-0.0124	0.0104	26.2557	-10.4825	9.2930	0.5344	-0.4235	0.6461	0.3431
5.98	-9.4412	-0.0646	-1.7948	0.0070	-0.0026	0.0121	26.2625	-10.3913	9.3271	0.5344	-0.4235	0.6461	0.3430
5.99	-9.4389	-0.0626	-1.7931	0.0001	-0.0032	0.0096	26.2709	-10.4194	9.1209	0.5344	-0.4235	0.6461	0.3431
6	-9.4395	-0.0670	-1.7964	0.0039	-0.0043	0.0089	26.2673	-10.4021	8.9156	0.5343	-0.4235	0.6461	0.3430
6.01	-9.4465	-0.0676	-1.8051	0.0043	-0.0093	0.0135	26.2671	-10.5183	9.5235	0.5344	-0.4235	0.6461	0.3431
6.02	-9.4388	-0.0683	-1.8047	0.0036	-0.0076	0.0146	26.3926	-10.3101	9.1976	0.5343	-0.4235	0.6461	0.3431
6.03	-9.4384	-0.0662	-1.8012	0.0046	-0.0049	0.0116	26.2385	-10.3969	9.3004	0.5343	-0.4235	0.6461	0.3431
6.04	-9.4481	-0.0684	-1.8049	0.0032	-0.0081	0.0109	26.3736	-10.5048	9.2489	0.5343	-0.4235	0.6461	0.3431
6.05	-9.4433	-0.0684	-1.8012	0.0035	-0.0079	0.0074	26.4312	-10.4901	9.1622	0.5343	-0.4235	0.6461	0.3431
6.06	-9.4372	-0.0675	-1.7977	0.0038	-0.0052	0.0116	26.6631	-10.4525	9.2966	0.5343	-0.4235	0.6461	0.3431
6.07	-9.4409	-0.0701	-1.8106	0.0083	-0.0113	0.0160	26.9474	-10.2747	9.2366	0.5343	-0.4234	0.6461	0.3431
6.08	-9.4421	-0.0677	-1.8152	0.0036	-0.0075	0.0092	26.6907	-10.4411	9.2231	0.5343	-0.4235	0.6461	0.3431
6.09	-9.4385	-0.0707	-1.8165	0.0021	-0.0066	0.0118	26.3931	-10.3885	9.1534	0.5343	-0.4235	0.6461	0.3431
6.1	-9.4400	-0.0716	-1.8175	0.0026	-0.0062	0.0107	26.2746	-10.4775	9.0917	0.5343	-0.4235	0.6461	0.3431
6.11	-9.4420	-0.0675	-1.8168	0.0018	-0.0075	0.0095	26.2960	-10.5811	9.2171	0.5343	-0.4235	0.6461	0.3431
6.12	-9.4339	-0.0575	-1.8186	0.0030	-0.0029	0.0105	26.0344	-10.4502	9.1564	0.5343	-0.4235	0.6461	0.3431
6.13	-9.4372	-0.0565	-1.8167	-0.0005	-0.0015	0.0051	26.2523	-10.3267	9.0765	0.5343	-0.4235	0.6461	0.3431
6.14	-9.4424	-0.0551	-1.8166	0.0028	-0.0062	0.0078	26.2929	-10.3190	9.1254	0.5342	-0.4235	0.6461	0.3430
6.15	-9.4461	-0.0548	-1.8133	0.0048	-0.0063	0.0092	26.1805	-10.2950	8.9727	0.5343	-0.4236	0.6462	0.3431
6.16	-9.4380	-0.0593	-1.8137	0.0078	-0.0036	0.0059	26.3410	-10.5156	9.2279	0.5343	-0.4235	0.6461	0.3430
6.17	-9.4406	-0.0615	-1.8126	-0.0005	-0.0039	0.0091	26.1280	-10.2948	9.2976	0.5343	-0.4236	0.6462	0.3431
6.18	-9.4433	-0.0679	-1.8119	0.0009	-0.0092	0.0073	26.0976	-10.1244	9.2585	0.5342	-0.4236	0.6461	0.3430
6.19	-9.4379	-0.0685	-1.8075	0.0050	-0.0097	0.0121	26.1326	-10.2644	9.0415	0.5343	-0.4236	0.6461	0.3430
6.2	-9.4387	-0.0691	-1.8007	0.0014	-0.0064	0.0073	26.2651	-10.4374	9.1872	0.5343	-0.4236	0.6461	0.3430
6.21	-9.4466	-0.0716	-1.8072	0.0071	-0.0099	0.0139	26.2838	-10.7412	9.1369	0.5342	-0.4235	0.6461	0.3430
6.22	-9.4403	-0.0657	-1.8093	-0.0004	-0.0122	0.0080	26.2768	-10.2757	9.0752	0.5343	-0.4236	0.6461	0.3431
6.23	-9.4371	-0.0653	-1.8048	0.0021	-0.0098	0.0123	26.2812	-10.4305	9.1421	0.5343	-0.4236	0.6461	0.3431
6.24	-9.4428	-0.0617	-1.8044	0.0004	-0.0053	0.0112	26.2718	-10.4287	9.0121	0.5343	-0.4236	0.6461	0.3431
6.25	-9.4417	-0.0620	-1.8006	0.0031	-0.0048	0.0080	26.3586	-10.4053	9.1049	0.5342	-0.4236	0.6460	0.3431
6.26	-9.4364	-0.0615	-1.7908	-0.0002	-0.0052	0.0083	26.2626	-10.2446	9.2063	0.5343	-0.4236	0.6461	0.3431
6.27	-9.4383	-0.0597	-1.7894	-0.0008	-0.0049	0.0089	26.4259	-10.4875	9.1965	0.5342	-0.4236	0.6461	0.3431
6.28	-9.4438	-0.0631	-1.7952	0.0046	-0.0056	0.0081	26.1788	-10.5317	9.1409	0.5342	-0.4236	0.6461	0.3431
6.29	-9.4459	-0.0671	-1.7980	0.0026	-0.0091	0.0111	26.3123	-10.3776	8.9738	0.5343	-0.4236	0.6461	0.3431
6.3	-9.4456	-0.0702	-1.8017	0.0007	-0.0124	0.0109	26.1096	-10.4940	9.0748	0.5342	-0.4236	0.6460	0.3431
6.31	-9.4404	-0.0694	-1.8032	0.0030	-0.0029	0.0081	26.2127	-10.3542	9.3028	0.5343	-0.4237	0.6461	0.3431
6.32	-9.4414	-0.0695	-1.8022	0.0049	-0.0042	0.0050	26.3792	-10.4356	9.1955	0.5342	-0.4236	0.6460	0.3431
6.33	-9.4392	-0.0678	-1.8055	0.0017	-0.0064	0.0113	26.2598	-10.1641	9.0697	0.5343	-0.4237	0.6461	0.3431
6.34	-9.4401	-0.0638	-1.8098	0.0027	-0.0139	0.0087	26.1197	-10.1617	9.1255	0.5342	-0.4237	0.6460	0.3431
6.35	-9.4429	-0.0641	-1.8100	0.0006	-0.0053	0.0091	26.1863	-10.1347	9.0013	0.5343	-0.4237	0.6460	0.3431
6.36	-9.4430	-0.0574	-1.8109	0.0004	-0.0045	0.0069	26.1963	-10.2514	9.0976	0.5342	-0.4237	0.6460	0.3431
6.37	-9.4380	-0.0579	-1.8117	0.0073	-0.0032	0.0082	26.1048	-10.3354	9.3535	0.5342	-0.4237	0.6460	0.3431
6.38	-9.4381	-0.0551	-1.8091	0.0060	-0.0048	0.0118	26.2389	-10.3272	9.3415	0.5342	-0.4237	0.6461	0.3431
6.39	-9.4373	-0.0565	-1.8102	0.0033	-0.0045	0.0097	26.1454	-10.5858	9.0901	0.5342	-0.4237	0.6460	0.3430
6.4	-9.4384	-0.0620	-1.8150	-0.0001	-0.0113	0.0136	26.4446	-10.6378	9.1251	0.5342	-0.4237	0.6461	0.3431
6.41	-9.4427	-0.0625	-1.8147	-0.0025	-0.0080	0.0121	26.5098	-10.5217	9.0975	0.5342	-0.4237	0.6460	0.3431
6.42	-9.4429	-0.0674	-1.8091	0.0020	-0.0035	0.0105	26.3912	-10.3802	9.1387	0.5342	-0.4238	0.6461	0.3431
6.43	-9.4373	-0.0670	-1.8049	0.0015	-0.0068	0.0095	26.5631	-10.4931	8.9855	0.5341	-0.4237	0.6460	0.3431
6.44	-9.4362	-0.0694	-1.8030	-0.0001	-0.0043	0.0093	26.3659	-10.4441	9.0853	0.5342	-0.4238	0.6460	0.3431
6.45	-9.4384	-0.0670	-1.8038	-0.0002	-0.0048	0.0099	26.3922	-10.3962	9.2279	0.5342	-0.4238	0.6460	0.3431
6.46	-9.4459	-0.0612	-1.7962	0.0046	-0.0053	0.0138	26.1909	-10.3204	9.1721	0.5341	-0.4238	0.6460	0.3431
6.47	-9.4389	-0.0645	-1.7965	0.0040	-0.0042	0.0096	26.2051	-10.4099	9.2845	0.5342	-0.4238	0.6461	0.3432
6.48	-9.4440	-0.0649	-1.8012	0.0033	-0.0083	0.0095	26.4204	-10.6414	9.0391	0.5341	-0.4238	0.6460	0.3431
6.49	-9.4493	-0.0635	-1.8059	-0.0018	-0.0064	0.0125	26.2870	-10.4183	9.2073	0.5341	-0.4238	0.6461	0.3432
6.5	-9.4404	-0.0634	-1.8111	0.0019	-0.0030	0.0111	26.1861	-10.3211	9.1091	0.5341	-0.4238	0.6460	0.3431
6.51	-9.4385	-0.0655	-1.8063	0.0021	-0.0044	0.0105	26.3141	-10.1867	8.9599	0.5341	-0.4238	0.6461	0.3432
6.52	-9.4375	-0.0633	-1.8132	0.0007	-0.0055	0.0127	26.2231	-10.3167	9.1044	0.5341	-0.4238	0.6461	0.3432
6.53	-9.4364	-0.0620	-1.8095	0.0037	-0.0039	0.0068	26.1884	-10.2409	9.0071	0.5340	-0.4238	0.6460	0.3431
6.54	-9.4361	-0.0562	-1.8054	-0.0032	-0.0034	0.0044	26.2038	-10.2463	9.1147	0.5341	-0.4239	0.6461	0.3432
6.55	-9.4404	-0.0618	-1.7972	0.0015	-0.0013	0.0053	26.0707	-10.1943	9.3201	0.5340	-0.4239	0.6460	0.3431
6.56	-9.4459	-0.0644	-1.8017	0.0057	-0.0027	0.0080	26.3858	-10.1771	9.2424	0.5340	-0.4239	0.6461	0.3431
6.57	-9.4429	-0.0581	-1.7973	0.0034	-0.0056	0.0109	26.5370	-10.3222	9.3141	0.5340	-0.4239	0.6460	0.3431
6.58	-9.4415	-0.0594	-1.8024	0.0144	-0.0111	0.0122	26.4318	-10.3789	9.1779	0.5341	-0.4239	0.6461	0.3431
6.59	-9.4442	-0.0585	-1.8079	0.0085	-0.0112	0.0140	26.4100	-10.4011	9.3462	0.5341	-0.4239	0.6461	0.3431
6.6	-9.4378	-0.0598	-1.8101	0.0115	-0.0118	0.0149	26.4360	-10.4001	9.3049	0.5341	-0.4238	0.6461	0.3431
6.61	-9.4419	-0.0654	-1.8102	0.0075	-0.0120	0.0142	26.4256	-10.5846	9.0420	0.5341	-0.4238	0.6461	0.3431
6.62	-9.4406	-0.0724	-1.8161	0.0128	-0.0130	0.0147	26.4344	-10.4586	9.0953	0.5341	-0.4237	0.6461	0.3431
6.63	-9.4382	-0.0807	-1.8050	0.0031	-0.0144	0.0119	26.2107	-10.3175	9.0591	0.5342	-0.4237	0.6461	0.3431
6.64	-9.4352	-0.0825	-1.8000	-0.0032	-0.0077	0.0120	26.1679	-10.4008	9.0703	0.5341	-0.4237	0.6460	0.3431
6.65	-9.4382	-0.0783	-1.8009	0.0007	-0.0102	0.0103	26.2805	-10.5899	9.1804	0.5342	-0.4238	0.6461	0.3432
6.66	-9.4418	-0.0694	-1.7996	0.0069	-0.0143	0.0072	26.1324	-10.4596	9.1411	0.5342	-0.4237	0.6460	0.3432
6.67	-9.4421	-0.0628	-1.7961	0.0098	-0.0168	0.0133	26.2751	-10.5011	8.9641	0.5342	-0.4237	0.6461	0.3432
6.68	-9.4444	-0.0601	-1.7965	0.0049	-0.0093	0.0140	26.2583	-10.4933	9.0923	0.5342	-0.4237	0.6460	0.3432
6.69	-9.4449	-0.0590	-1.8067	0.0013	-0.0068	0.0112	26.2713	-10.3541	9.1630	0.5342	-0.4237	0.6460	0.3432
6.7	-9.4366	-0.0606	-1.8043	0.0083	-0.0063	0.0164	26.2400	-10.1777	9.1901	0.5342	-0.4237	0.6460	0.3432
6.71	-9.4290	-0.0610	-1.8009	0.0078	-0.0056	0.0121	26.3380	-10.3551	9.2911	0.5342	-0.4236	0.6460	0.3432
6.72	-9.4396	-0.0646	-1.8053	0.0027	-0.0136	0.0125	26.3414	-10.2842	9.1023	0.5343	-0.4237	0.6461	0.3432
6.73	-9.4382	-0.0665	-1.8016	0.0030	-0.0068	0.0087	26.3547	-10.4003	9.2407	0.5342	-0.4236	0.6460	0.3432
6.74	-9.4374	-0.0620	-1.8096	0.0066	-0.0097	0.0157	26.2899	-10.5366	9.1888	0.5342	-0.4236	0.6461	0.3432
6.75	-9.4384	-0.0643	-1.8140	0.0013	-0.0070	0.0084	26.1808	-10.3822	9.1461	0.5342	-0.4236	0.6460	0.3432
6.76	-9.4399	-0.0598	-1.8090	0.0098	-0.0078	0.0105	26.0578	-10.5288	9.2656	0.5342	-0.4236	0.6461	0.3432
6.77	-9.4383	-0.0595	-1.8079	0.0156	-0.0165	0.0167	26.3493	-10.4620	9.2562	0.5343	-0.4235	0.6461	0.3432
6.78	-9.4380	-0.0577	-1.8012	0.0037	-0.0139	0.0136	26.4637	-10.5179	9.1903	0.5343	-0.4235	0.6460	0.3432
6.79	-9.4463	-0.0552	-1.8113	0.0039	-0.0102	0.0098	26.3139	-10.3624	9.0524	0.5343	-0.4235	0.6461	0.3432
6.8	-9.4439	-0.0569	-1.8150	0.0037	-0.0111	0.0132	26.4857	-10.3425	9.0831	0.5343	-0.4235	0.6460	0.3432
6.81	-9.4375	-0.0559	-1.8107	0.0004	-0.0078	0.0139	26.5222	-10.4246	9.3061	0.5343	-0.4235	0.6461	0.3433
6.82	-9.4359	-0.0587	-1.8113	0.0023	-0.0053	0.0095	26.3519	-10.3891	9.3711	0.5342	-0.4235	0.6460	0.3432
6.83	-9.4388	-0.0601	-1.8124	0.0024	-0.0121	0.0091	26.2131	-10.5154	9.0925	0.5343	-0.4235	0.6460	0.3433
6.84	-9.4373	-0.0653	-1.8126	-0.0003	-0.0101	0.0161	26.3492	-10.4741	9.0821	0.5343	-0.4235	0.6460	0.3433
6.85	-9.4378	-0.0622	-1.8022	0.0026	-0.0098	0.0116	26.2706	-10.4971	9.0570	0.5343	-0.4235	0.6460	0.3433
6.86	-9.4413	-0.0637	-1.8058	0.0095	-0.0106	0.0113	26.2742	-10.4821	9.1808	0.5343	-0.4234	0.6460	0.3433
6.87	-9.4408	-0.0651	-1.8021	0.0035	-0.0086	0.0074	26.3272	-10.4945	9.2653	0.5343	-0.4235	0.6460	0.3433
6.88	-9.4413	-0.0667	-1.8077	0.0040	-0.0068	0.0109	26.0633	-10.2832	9.2425	0.5343	-0.4235	0.6460	0.3433
6.89	-9.4388	-0.0672	-1.8097	0.0017	-0.0101	0.0135	26.1700	-10.2040	9.1738	0.5343	-0.4234	0.6459	0.3433
6.9	-9.4422	-0.0664	-1.8085	0.0043	-0.0076	0.0126	26.3948	-10.4690	9.0319	0.5343	-0.4235	0.6460	0.3434
6.91	-9.4425	-0.0687	-1.8063	0.0031	-0.0079	0.0179	26.4086	-10.3280	9.2928	0.5343	-0.4234	0.6460	0.3434
6.92	-9.4421	-0.0691	-1.8052	0.0054	-0.0077	0.0104	26.2493	-10.3505	9.3130	0.5344	-0.4234	0.6461	0.3434
6.93	-9.4412	-0.0687	-1.8008	0.0013	-0.0160	0.0108	26.2693	-10.2022	9.0179	0.5343	-0.4234	0.6459	0.3434
6.94	-9.4405	-0.0648	-1.7990	0.0010	-0.0054	0.0102	26.2558	-10.3134	9.2268	0.5343	-0.4234	0.6460	0.3434
6.95	-9.4382	-0.0676	-1.7986	0.0050	-0.0129	0.0151	26.2686	-10.5743	9.2321	0.5343	-0.4234	0.6460	0.3434
6.96	-9.4384	-0.0678	-1.7935	0.0071	-0.0137	0.0167	26.2438	-10.3627	8.9913	0.5343	-0.4233	0.6459	0.3434
6.97	-9.4417	-0.0689	-1.8008	0.0089	-0.0128	0.0154	26.4744	-10.5265	8.8720	0.5344	-0.4233	0.6460	0.3435
6.98	-9.4401	-0.0697	-1.7963	0.0061	-0.0096	0.0144	26.3795	-10.4428	9.0952	0.5344	-0.4233	0.6460	0.3435
6.99	-9.4374	-0.0640	-1.7962	0.0074	-0.0086	0.0136	26.3287	-10.5837	9.2036	0.5344	-0.4233	0.6460	0.3435
7	-9.4413	-0.0640	-1.8008	0.0028	-0.0091	0.0177	26.3537	-10.4826	9.0646	0.5343	-0.4232	0.6460	0.3435
7.01	-9.4436	-0.0597	-1.7992	0.0063	-0.0135	0.0110	26.3364	-10.2897	9.0664	0.5344	-0.4232	0.6460	0.3435
7.02	-9.4385	-0.0596	-1.8021	0.0029	-0.0114	0.0193	26.1987	-10.4959	9.0950	0.5344	-0.4232	0.6460	0.3435
7.03	-9.4352	-0.0607	-1.8062	-0.0019	-0.0129	0.0123	26.1759	-10.4856	8.9807	0.5344	-0.4232	0.6460	0.3436
7.04	-9.4403	-0.0633	-1.7998	0.0001	-0.0161	0.0147	26.2730	-10.4932	9.0875	0.5344	-0.4232	0.6460	0.3436
7.05	-9.4393	-0.0680	-1.8013	0.0039	-0.0144	0.0158	26.2793	-10.4847	9.0632	0.5344	-0.4231	0.6459	0.3437
7.06	-9.4376	-0.0674	-1.8039	0.0035	-0.0114	0.0101	26.6172	-10.4840	9.3400	0.5345	-0.4231	0.6460	0.3437
7.07	-9.4382	-0.0681	-1.8047	0.0025	-0.0110	0.0101	26.7722	-10.4825	9.2657	0.5344	-0.4231	0.6459	0.3437
7.08	-9.4380	-0.0675	-1.8006	0.0017	-0.0067	0.0077	26.5204	-10.3188	9.2289	0.5345	-0.4231	0.6459	0.3437
7.09	-9.4380	-0.0690	-1.7997	0.0012	-0.0076	0.0102	26.2047	-10.0748	9.4120	0.5344	-0.4231	0.6459	0.3437
7.1	-9.4447	-0.0681	-1.8032	0.0035	-0.0096	0.0110	26.1058	-10.2104	9.0659	0.5345	-0.4231	0.6459	0.3437
7.11	-9.4436	-0.0638	-1.8083	0.0006	-0.0111	0.0067	26.2493	-10.2539	9.2073	0.5345	-0.4231	0.6459	0.3437
7.12	-9.4383	-0.0580	-1.8073	-0.0011	-0.0116	0.0102	26.1530	-10.3283	9.2781	0.5345	-0.4232	0.6459	0.3437
7.13	-9.4411	-0.0573	-1.8080	-0.0003	-0.0033	0.0135	25.9607	-10.4809	9.3120	0.5345	-0.4232	0.6459	0.3438
7.14	-9.4438	-0.0587	-1.8056	0.0050	-0.0119	0.0144	25.9508	-10.4218	9.4112	0.5344	-0.4231	0.6458	0.3437
7.15	-9.4396	-0.0604	-1.8057	-0.0040	-0.0129	0.0094	26.0765	-10.4403	9.1003	0.5345	-0.4232	0.6459	0.3438
7.16	-9.4404	-0.0651	-1.8048	-0.0014	-0.0084	0.0148	26.4278	-10.5962	9.3208	0.5344	-0.4231	0.6458	0.3438
7.17	-9.4416	-0.0715	-1.8087	0.0019	-0.0084	0.0148	26.4493	-10.7343	9.3862	0.5345	-0.4232	0.6459	0.3439
7.18	-9.4399	-0.0727	-1.8114	0.0020	-0.0079	0.0153	26.4439	-10.5509	9.3884	0.5344	-0.4231	0.6458	0.3439
7.19	-9.4377	-0.0705	-1.8118	-0.0001	-0.0108	0.0126	26.5412	-10.5318	9.4361	0.5344	-0.4231	0.6458	0.3439
7.2	-9.4461	-0.0723	-1.8168	0.0072	-0.0040	0.0073	26.3621	-10.4400	8.8375	0.5344	-0.4231	0.6458	0.3439
7.21	-9.4467	-0.0690	-1.8224	-0.0038	-0.0145	0.0116	26.4445	-10.4886	9.1965	0.5344	-0.4231	0.6458	0.3439
7.22	-9.4456	-0.0661	-1.8161	-0.0008	-0.0098	0.0127	26.4581	-10.6171	9.3078	0.5345	-0.4232	0.6458	0.3440
7.23	-9.4435	-0.0609	-1.8164	0.0003	-0.0110	0.0151	26.1777	-10.4608	9.1181	0.5344	-0.4231	0.6458	0.3440
7.24	-9.4384	-0.0599	-1.8156	-0.0010	-0.0126	0.0127	26.1030	-10.3768	9.1200	0.5345	-0.4231	0.6458	0.3440
7.25	-9.4392	-0.0595	-1.8136	0.0006	-0.0068	0.0078	26.2156	-10.3346	9.3992	0.5344	-0.4231	0.6457	0.3440
7.26	-9.4384	-0.0605	-1.8116	-0.0041	-0.0106	0.0082	26.0924	-10.2721	9.4280	0.5344	-0.4232	0.6457	0.3441
7.27	-9.4419	-0.0616	-1.8071	-0.0008	-0.0099	0.0073	26.3147	-10.4081	9.1721	0.5344	-0.4232	0.6457	0.3441
7.28	-9.4436	-0.0602	-1.8078	-0.0004	-0.0083	0.0105	26.1897	-10.1856	9.2057	0.5344	-0.4232	0.6457	0.3441
7.29	-9.4330	-0.0683	-1.8027	0.0023	-0.0038	0.0063	26.3248	-10.2623	9.0642	0.5344	-0.4232	0.6457	0.3441
7.3	-9.4376	-0.0648	-1.8004	0.0024	-0.0044	0.0033	26.2196	-10.4119	9.4139	0.5344	-0.4232	0.6457	0.3440
7.31	-9.4430	-0.0673	-1.8037	-0.0029	-0.0021	0.0066	26.0702	-10.4430	9.4168	0.5344	-0.4233	0.6457	0.3441
7.32	-9.4365	-0.0625	-1.8007	0.0026	-0.0074	0.0140	26.2263	-10.4254	9.2621	0.5344	-0.4232	0.6456	0.3440
7.33	-9.4408	-0.0643	-1.8012	0.0070	-0.0100	0.0121	26.1996	-10.6348	9.1752	0.5344	-0.4233	0.6457	0.3441
7.34	-9.4483	-0.0631	-1.8003	0.0039	-0.0052	0.0080	26.2241	-10.5812	9.2355	0.5344	-0.4232	0.6457	0.3441
7.35	-9.4446	-0.0625	-1.8030	0.0018	-0.0102	0.0109	26.4293	-10.6154	9.3253	0.5344	-0.4233	0.6457	0.3441
7.36	-9.4300	-0.0610	-1.7947	0.0031	-0.0035	0.0113	26.5518	-10.4896	9.1672	0.5344	-0.4232	0.6457	0.3441
7.37	-9.4336	-0.0594	-1.7953	0.0020	-0.0062	0.0130	26.2919	-10.5316	9.1055	0.5344	-0.4232	0.6457	0.3441
7.38	-9.4408	-0.0520	-1.7961	0.0003	-0.0087	0.0072	26.4830	-10.4688	9.2872	0.5344	-0.4233	0.6457	0.3441
7.39	-9.4366	-0.0539	-1.7931	0.0044	-0.0055	0.0117	26.2767	-10.3313	9.2692	0.5343	-0.4232	0.6456	0.3441
7.4	-9.4390	-0.0583	-1.7923	0.0067	-0.0106	0.0079	26.2999	-10.4570	9.2907	0.5344	-0.4233	0.6457	0.3441
7.41	-9.4452	-0.0629	-1.7913	0.0016	-0.0132	0.0113	26.3864	-10.5478	9.2618	0.5344	-0.4232	0.6456	0.3441
7.42	-9.4415	-0.0596	-1.7946	0.0062	-0.0151	0.0155	26.3687	-10.4356	9.3557	0.5345	-0.4232	0.6457	0.3442
7.43	-9.4298	-0.0623	-1.7935	0.0071	-0.0111	0.0110	26.2820	-10.4335	9.3765	0.5344	-0.4232	0.6456	0.3441
7.44	-9.4344	-0.0684	-1.8019	-0.0003	-0.0007	0.0088	26.1818	-10.4235	9.2409	0.5344	-0.4232	0.6456	0.3441
7.45	-9.4418	-0.0749	-1.8027	-0.0009	-0.0145	0.0043	26.2214	-10.3033	9.3080	0.5345	-0.4232	0.6456	0.3441
7.46	-9.4421	-0.0801	-1.8023	-0.0058	-0.0062	0.0060	26.1914	-10.4561	9.1804	0.5344	-0.4233	0.6455	0.3441
7.47	-9.4456	-0.0821	-1.8085	0.0015	-0.0119	0.0111	26.2314	-10.4059	9.2035	0.5345	-0.4233	0.6456	0.3442
7.48	-9.4372	-0.0851	-1.8062	-0.0036	-0.0076	0.0071	26.1718	-10.4931	9.0223	0.5344	-0.4233	0.6455	0.3442
7.49	-9.4303	-0.0830	-1.7960	0.0048	-0.0037	0.0060	26.1116	-10.4807	9.3146	0.5345	-0.4233	0.6456	0.3442
7.5	-9.4383	-0.0763	-1.8015	-0.0011	-0.0081	0.0079	26.1269	-10.3391	9.3985	0.5344	-0.4233	0.6455	0.3442
7.51	-9.4459	-0.0742	-1.8085	0.0006	-0.0102	0.0124	26.1252	-10.3477	9.2139	0.5345	-0.4233	0.6455	0.3442
7.52	-9.4448	-0.0691	-1.8098	0.0027	-0.0089	0.0125	26.1334	-10.7209	9.1892	0.5344	-0.4233	0.6455	0.3442
7.53	-9.4418	-0.0688	-1.8125	0.0037	-0.0134	0.0107	26.4276	-10.7277	9.2169	0.5344	-0.4233	0.6455	0.3442
7.54	-9.4433	-0.0707	-1.8155	0.0024	-0.0142	0.0100	26.5632	-10.4659	9.0875	0.5345	-0.4233	0.6455	0.3443
7.55	-9.4423	-0.0684	-1.8083	0.0063	-0.0088	0.0135	26.5013	-10.6499	9.2798	0.5345	-0.4233	0.6455	0.3443
7.56	-9.4375	-0.0645	-1.8047	0.0012	-0.0107	0.0096	26.5770	-10.5130	9.4674	0.5345	-0.4233	0.6455	0.3443
7.57	-9.4401	-0.0622	-1.8090	0.0011	-0.0131	0.0176	26.6893	-10.5030	9.4725	0.5345	-0.4232	0.6454	0.3443
7.58	-9.4439	-0.0575	-1.8170	0.0069	-0.0132	0.0159	26.5893	-10.4829	9.2961	0.5345	-0.4232	0.6455	0.3444
7.59	-9.4381	-0.0559	-1.8105	0.0016	-0.0101	0.0128	26.5103	-10.4100	9.1055	0.5345	-0.4232	0.6454	0.3444
7.6	-9.4388	-0.0501	-1.8117	0.0013	-0.0074	0.0146	26.2738	-10.4112	9.1714	0.5345	-0.4232	0.6455	0.3444
7.61	-9.4376	-0.0474	-1.8053	0.0006	-0.0180	0.0131	26.2468	-10.4061	9.2720	0.5345	-0.4232	0.6454	0.3444
7.62	-9.4438	-0.0455	-1.8090	0.0010	-0.0127	0.0115	26.2821	-10.2649	9.1561	0.5345	-0.4232	0.6454	0.3444
7.63	-9.4361	-0.0476	-1.8051	0.0006	-0.0125	0.0040	26.3810	-10.3863	9.3830	0.5346	-0.4232	0.6454	0.3445
7.64	-9.4398	-0.0484	-1.8032	0.0058	-0.0143	0.0111	26.5121	-10.3878	9.2717	0.5345	-0.4232	0.6453	0.3444
7.65	-9.4464	-0.0517	-1.8029	0.0067	-0.0083	0.0092	26.4725	-10.3109	9.1739	0.5346	-0.4232	0.6454	0.3445
7.66	-9.4449	-0.0519	-1.8027	0.0007	-0.0125	0.0055	26.4232	-10.2684	9.0172	0.5346	-0.4232	0.6453	0.3445
7.67	-9.4378	-0.0555	-1.7997	0.0058	-0.0118	0.0107	26.3676	-10.2077	9.0477	0.5347	-0.4232	0.6454	0.3445
7.68	-9.4429	-0.0564	-1.8040	0.0057	-0.0062	0.0059	26.2518	-10.3036	9.2090	0.5346	-0.4232	0.6453	0.3444
7.69	-9.4449	-0.0548	-1.8069	-0.0006	-0.0132	0.0120	26.2399	-10.4644	9.0395	0.5347	-0.4232	0.6453	0.3445
7.7	-9.4348	-0.0556	-1.7918	0.0022	-0.0181	0.0162	26.5013	-10.4102	9.1770	0.5347	-0.4232	0.6453	0.3445
7.71	-9.4388	-0.0627	-1.7962	0.0088	-0.0181	0.0151	26.3573	-10.4512	9.1849	0.5347	-0.4231	0.6452	0.3445
7.72	-9.4484	-0.0694	-1.8062	-0.0037	-0.0156	0.0145	26.2509	-10.5742	9.1034	0.5348	-0.4231	0.6453	0.3446
7.73	-9.4394	-0.0738	-1.8006	0.0005	-0.0179	0.0105	26.4928	-10.5715	9.0623	0.5347	-0.4231	0.6452	0.3446
7.74	-9.4349	-0.0770	-1.8024	0.0029	-0.0200	0.0124	26.5701	-10.4685	9.0011	0.5348	-0.4231	0.6452	0.3447
7.75	-9.4395	-0.0802	-1.8049	0.0062	-0.0071	0.0103	26.5222	-10.5691	9.0127	0.5347	-0.4230	0.6451	0.3446
7.76	-9.4404	-0.0764	-1.8024	0.0013	-0.0092	0.0114	26.3802	-10.4110	9.0299	0.5348	-0.4231	0.6452	0.3447
7.77	-9.4384	-0.0759	-1.7949	0.0006	-0.0135	0.0117	26.3140	-10.2980	9.1117	0.5348	-0.4230	0.6451	0.3447
7.78	-9.4423	-0.0703	-1.8048	0.0041	-0.0133	0.0127	26.4245	-10.5164	9.0946	0.5348	-0.4230	0.6451	0.3447
7.79	-9.4404	-0.0689	-1.8058	0.0061	-0.0139	0.0127	26.3338	-10.3576	9.0876	0.5348	-0.4230	0.6451	0.3448
7.8	-9.4367	-0.0667	-1.7966	0.0098	-0.0164	0.0108	26.3442	-10.4276	9.1153	0.5349	-0.4230	0.6451	0.3447
7.81	-9.4364	-0.0671	-1.7967	0.0011	-0.0148	0.0076	26.3295	-10.5297	9.0486	0.5349	-0.4230	0.6451	0.3448
7.82	-9.4477	-0.0659	-1.8068	0.0024	-0.0087	0.0047	26.4145	-10.6573	9.3181	0.5349	-0.4230	0.6450	0.3447
7.83	-9.4408	-0.0625	-1.8032	0.0069	-0.0077	0.0140	26.4235	-10.5229	9.1080	0.5349	-0.4230	0.6451	0.3448
7.84	-9.4300	-0.0612	-1.7890	0.0010	-0.0058	0.0164	26.4167	-10.2868	9.1907	0.5349	-0.4230	0.6451	0.3448
7.85	-9.4456	-0.0631	-1.8032	0.0040	-0.0049	0.0160	26.4134	-10.1546	9.2369	0.5349	-0.4230	0.6451	0.3448
7.86	-9.4461	-0.0599	-1.8079	0.0029	-0.0120	0.0140	26.4278	-10.5512	9.1440	0.5349	-0.4229	0.6451	0.3448
7.87	-9.4339	-0.0644	-1.7985	0.0024	-0.0062	0.0095	26.2857	-10.3757	9.3442	0.5349	-0.4229	0.6451	0.3448
7.88	-9.4379	-0.0653	-1.8049	0.0013	-0.0061	0.0126	26.4202	-10.1613	9.1360	0.5349	-0.4229	0.6451	0.3448
7.89	-9.4440	-0.0680	-1.8012	0.0051	-0.0117	0.0102	26.3955	-10.3261	8.9891	0.5349	-0.4229	0.6450	0.3448
7.9	-9.4371	-0.0674	-1.7998	0.0054	-0.0126	0.0147	26.5623	-10.3053	9.1129	0.5349	-0.4229	0.6451	0.3449
7.91	-9.4367	-0.0685	-1.8026	0.0027	-0.0116	0.0133	26.6451	-10.4312	9.2559	0.5349	-0.4229	0.6450	0.3449
7.92	-9.4451	-0.0640	-1.8083	0.0019	-0.0091	0.0153	26.3175	-10.5566	9.2480	0.5350	-0.4229	0.6451	0.3449
7.93	-9.4395	-0.0649	-1.8015	0.0012	-0.0099	0.0170	26.3528	-10.5586	8.9718	0.5349	-0.4228	0.6450	0.3449
7.94	-9.4365	-0.0666	-1.8031	0.0017	-0.0080	0.0104	26.2382	-10.3486	8.9223	0.5349	-0.4228	0.6451	0.3449
7.95	-9.4446	-0.0661	-1.8031	0.0067	-0.0163	0.0102	26.4484	-10.4227	9.0675	0.5349	-0.4228	0.6450	0.3450
7.96	-9.4408	-0.0635	-1.8033	-0.0006	-0.0097	0.0119	26.3362	-10.3092	8.8725	0.5349	-0.4228	0.6450	0.3450
7.97	-9.4392	-0.0623	-1.8017	0.0037	-0.0169	0.0090	26.3523	-10.3019	9.1581	0.5350	-0.4228	0.6450	0.3450
7.98	-9.4370	-0.0622	-1.7976	0.0113	-0.0182	0.0139	26.4331	-10.3320	9.2807	0.5350	-0.4228	0.6450	0.3450
7.99	-9.4460	-0.0655	-1.8031	0.0025	-0.0091	0.0156	26.4168	-10.4671	9.0825	0.5350	-0.4228	0.6450	0.3450
8	-9.4426	-0.0635	-1.8139	0.0053	-0.0143	0.0085	26.4169	-10.4953	9.1109	0.5350	-0.4227	0.6449	0.3450
8.01	-9.4333	-0.0647	-1.8094	0.0010	-0.0057	0.0124	26.4349	-10.2270	8.9713	0.5350	-0.4227	0.6450	0.3451
8.02	-9.4371	-0.0687	-1.8098	-0.0011	-0.0090	0.0171	26.5425	-10.4398	9.0469	0.5350	-0.4227	0.6450	0.3451
8.03	-9.4414	-0.0681	-1.8153	0.0045	-0.0063	0.0072	26.4211	-10.4194	8.9122	0.5350	-0.4227	0.6450	0.3451
8.04	-9.4363	-0.0672	-1.8120	0.0050	-0.0107	0.0072	26.4240	-10.3703	9.0149	0.5350	-0.4227	0.6450	0.3451
8.05	-9.4419	-0.0639	-1.8135	0.0006	-0.0110	0.0106	26.4183	-10.5296	9.2817	0.5350	-0.4227	0.6449	0.3451
8.06	-9.4414	-0.0650	-1.8126	-0.0015	-0.0099	0.0139	26.6121	-10.3682	9.4458	0.5351	-0.4227	0.6450	0.3451
8.07	-9.4366	-0.0627	-1.8029	0.0043	-0.0123	0.0101	26.7528	-10.1047	9.4618	0.5350	-0.4227	0.6449	0.3451
8.08	-9.4389	-0.0613	-1.8009	-0.0035	-0.0153	0.0132	26.5767	-10.2388	9.1762	0.5351	-0.4228	0.6449	0.3452
8.09	-9.4481	-0.0605	-1.8035	0.0074	-0.0107	0.0155	26.5348	-10.3968	9.3679	0.5351	-0.4227	0.6449	0.3452
8.1	-9.4456	-0.0572	-1.8031	0.0031	-0.0070	0.0149	26.3570	-10.6076	9.3202	0.5351	-0.4227	0.6449	0.3452
8.11	-9.4406	-0.0603	-1.8070	0.0022	-0.0087	0.0083	26.4496	-10.4452	9.1412	0.5350	-0.4227	0.6449	0.3452
8.12	-9.4427	-0.0599	-1.8023	-0.0044	-0.0060	0.0086	26.5534	-10.5156	8.9808	0.5350	-0.4227	0.6449	0.3452
8.13	-9.4440	-0.0603	-1.8091	-0.0028	-0.0045	0.0089	26.2976	-10.5509	9.0220	0.5350	-0.4228	0.6449	0.3453
8.14	-9.4336	-0.0646	-1.7999	0.0031	-0.0070	0.0136	26.2814	-10.6553	8.9885	0.5350	-0.4227	0.6448	0.3452
8.15	-9.4398	-0.0699	-1.7987	0.0049	-0.0084	0.0095	26.2712	-10.5171	9.1279	0.5350	-0.4228	0.6449	0.3453
8.16	-9.4454	-0.0695	-1.8028	0.0094	-0.0029	0.0063	26.3050	-10.5090	9.1944	0.5350	-0.4227	0.6449	0.3452
8.17	-9.4407	-0.0725	-1.7997	0.0013	-0.0095	0.0161	26.1893	-10.5504	9.1714	0.5351	-0.4228	0.6449	0.3453
8.18	-9.4386	-0.0707	-1.7937	0.0019	-0.0073	0.0122	26.3042	-10.2656	9.1821	0.5350	-0.4227	0.6448	0.3453
8.19	-9.4458	-0.0666	-1.8015	0.0054	-0.0036	0.0082	26.0100	-10.4608	9.0427	0.5350	-0.4227	0.6449	0.3453
8.2	-9.4436	-0.0635	-1.8032	0.0012	-0.0113	0.0071	26.0140	-10.3047	9.1466	0.5350	-0.4227	0.6449	0.3453
8.21	-9.4312	-0.0623	-1.7977	0.0020	-0.0117	0.0066	26.2375	-10.1106	9.1834	0.5350	-0.4227	0.6448	0.3452
8.22	-9.4400	-0.0584	-1.8039	0.0030	-0.0122	0.0159	26.1729	-10.2783	9.0583	0.5351	-0.4228	0.6449	0.3453
8.23	-9.4414	-0.0601	-1.8045	-0.0018	-0.0082	0.0122	26.2195	-10.3022	9.3896	0.5350	-0.4227	0.6448	0.3453
8.24	-9.4345	-0.0635	-1.7971	-0.0006	-0.0061	0.0094	26.1289	-10.3855	9.4575	0.5351	-0.4228	0.6448	0.3454
8.25	-9.4404	-0.0635	-1.7993	0.0022	-0.0078	0.0079	26.0288	-10.4054	9.3556	0.5350	-0.4227	0.6448	0.3453
8.26	-9.4508	-0.0613	-1.8037	-0.0023	-0.0129	0.0119	26.0241	-10.3070	9.0874	0.5350	-0.4228	0.6448	0.3454
8.27	-9.4421	-0.0607	-1.8033	0.0004	-0.0126	0.0158	26.2599	-10.4607	8.9768	0.5350	-0.4227	0.6448	0.3454
8.28	-9.4326	-0.0596	-1.7986	-0.0047	-0.0122	0.0158	26.4866	-10.5380	9.3110	0.5350	-0.4227	0.6447	0.3454
8.29	-9.4400	-0.0657	-1.8132	-0.0055	-0.0138	0.0126	26.3111	-10.6617	9.1463	0.5350	-0.4228	0.6447	0.3455
8.3	-9.4480	-0.0731	-1.8222	-0.0068	-0.0098	0.0142	26.3095	-10.6263	9.1049	0.5350	-0.4228	0.6447	0.3456
8.31	-9.4389	-0.0762	-1.8107	0.0010	-0.0083	0.0075	26.5699	-10.4642	9.2643	0.5350	-0.4228	0.6447	0.3456
8.32	-9.4385	-0.0783	-1.8175	-0.0031	-0.0087	0.0175	26.3293	-10.5002	9.2853	0.5349	-0.4227	0.6446	0.3456
8.33	-9.4423	-0.0777	-1.8162	0.0015	-0.0035	0.0116	26.4750	-10.3310	9.2295	0.5350	-0.4228	0.6447	0.3456
8.34	-9.4375	-0.0752	-1.8103	0.0009	-0.0059	0.0078	26.2269	-10.2120	9.1884	0.5349	-0.4228	0.6447	0.3456
8.35	-9.4394	-0.0693	-1.8075	0.0050	-0.0097	0.0102	26.2309	-10.4805	9.3134	0.5350	-0.4228	0.6447	0.3456
8.36	-9.4465	-0.0679	-1.8095	0.0028	-0.0075	0.0126	26.3919	-10.4958	9.1404	0.5349	-0.4228	0.6447	0.3456
8.37	-9.4451	-0.0667	-1.8069	0.0004	-0.0136	0.0113	26.3321	-10.3087	9.2176	0.5350	-0.4228	0.6447	0.3457
8.38	-9.4393	-0.0594	-1.8168	0.0007	-0.0103	0.0080	26.3832	-10.2247	9.2843	0.5350	-0.4228	0.6447	0.3457
8.39	-9.4406	-0.0581	-1.8161	-0.0032	-0.0131	0.0084	26.2739	-10.4497	9.1842	0.5349	-0.4228	0.6446	0.3457
8.4	-9.4461	-0.0556	-1.8164	0.0023	-0.0105	0.0054	26.1009	-10.2500	9.1457	0.5350	-0.4228	0.6446	0.3457
8.41	-9.4377	-0.0591	-1.8104	-0.0047	-0.0120	0.0067	26.1061	-10.2770	9.2202	0.5350	-0.4228	0.6445	0.3457
8.42	-9.4399	-0.0578	-1.8092	-0.0021	-0.0083	0.0100	26.1704	-10.3255	9.2699	0.5350	-0.4229	0.6446	0.3458
8.43	-9.4471	-0.0574	-1.8089	-0.0037	-0.0127	0.0109	26.2876	-10.3206	9.2553	0.5350	-0.4228	0.6445	0.3458
8.44	-9.4426	-0.0607	-1.8102	-0.0086	-0.0057	0.0083	26.1608	-10.2816	9.4847	0.5350	-0.4229	0.6445	0.3458
8.45	-9.4366	-0.0591	-1.8016	0.0020	-0.0119	0.0129	26.0414	-10.0941	9.1854	0.5350	-0.4229	0.6445	0.3458
8.46	-9.4397	-0.0585	-1.8027	-0.0039	-0.0151	0.0132	26.0851	-10.5287	9.1594	0.5350	-0.4229	0.6444	0.3459
8.47	-9.4446	-0.0583	-1.8020	-0.0061	-0.0139	0.0123	26.3231	-10.5139	9.1987	0.5350	-0.4229	0.6445	0.3460
8.48	-9.4359	-0.0566	-1.7940	0.0025	-0.0104	0.0086	26.2467	-10.6727	9.1537	0.5350	-0.4229	0.6444	0.3459
8.49	-9.4414	-0.0593	-1.7951	0.0013	-0.0112	0.0083	26.3469	-10.6530	9.2722	0.5350	-0.4229	0.6444	0.3460
8.5	-9.4483	-0.0585	-1.7958	0.0017	-0.0140	0.0078	26.3645	-10.3486	9.1799	0.5350	-0.4229	0.6443	0.3459
8.51	-9.4443	-0.0530	-1.7996	0.0047	-0.0103	0.0083	26.3490	-10.5103	9.1769	0.5351	-0.4229	0.6444	0.3460
8.52	-9.4408	-0.0505	-1.7860	0.0034	-0.0136	0.0071	26.3803	-10.4764	9.0043	0.5351	-0.4229	0.6443	0.3460
8.53	-9.4392	-0.0551	-1.7980	0.0002	-0.0162	0.0151	26.2982	-10.6905	9.0805	0.5351	-0.4229	0.6443	0.3460
8.54	-9.4387	-0.0568	-1.7925	0.0000	-0.0106	0.0095	26.1764	-10.4286	9.0964	0.5351	-0.4229	0.6443	0.3460
8.55	-9.4362	-0.0586	-1.7834	0.0016	-0.0073	0.0135	26.3466	-10.5293	9.2266	0.5351	-0.4229	0.6443	0.3460
8.56	-9.4441	-0.0606	-1.7937	0.0033	-0.0057	0.0079	26.5259	-10.3406	9.2900	0.5351	-0.4229	0.6443	0.3461
8.57	-9.4499	-0.0659	-1.7975	0.0032	-0.0059	0.0061	26.5093	-10.2947	9.2461	0.5350	-0.4229	0.6442	0.3460
8.58	-9.4390	-0.0709	-1.7956	0.0044	-0.0032	0.0097	26.3968	-10.2587	9.2433	0.5351	-0.4229	0.6443	0.3460
8.59	-9.4334	-0.0738	-1.8016	0.0013	-0.0088	0.0077	26.2465	-10.1425	9.0663	0.5351	-0.4229	0.6443	0.3460
8.6	-9.4429	-0.0769	-1.8063	0.0032	-0.0152	0.0103	26.2578	-10.2609	9.0373	0.5351	-0.4229	0.6443	0.3460
8.61	-9.4427	-0.0744	-1.8056	-0.0018	-0.0116	0.0073	26.3518	-10.4537	9.3186	0.5351	-0.4229	0.6442	0.3460
8.62	-9.4424	-0.0724	-1.8045	-0.0020	-0.0105	0.0094	26.2520	-10.3965	9.1083	0.5351	-0.4230	0.6442	0.3461
8.63	-9.4469	-0.0690	-1.8164	0.0049	-0.0066	0.0161	26.4203	-10.3066	8.9083	0.5351	-0.4229	0.6442	0.3461
8.64	-9.4455	-0.0642	-1.8261	-0.0011	-0.0132	0.0138	26.1641	-10.4262	8.9911	0.5351	-0.4229	0.6442	0.3461
8.65	-9.4318	-0.0687	-1.8210	-0.0015	-0.0091	0.0117	26.2032	-10.5334	9.1314	0.5351	-0.4230	0.6442	0.3462
8.66	-9.4417	-0.0727	-1.8177	0.0046	-0.0123	0.0129	26.4235	-10.3346	9.0615	0.5351	-0.4229	0.6442	0.3462
8.67	-9.4435	-0.0727	-1.8220	0.0050	-0.0092	0.0145	26.2150	-10.4042	9.1813	0.5352	-0.4229	0.6442	0.3462
8.68	-9.4360	-0.0741	-1.8141	0.0067	-0.0108	0.0106	26.4743	-10.5048	9.1812	0.5351	-0.4229	0.6441	0.3462
8.69	-9.4389	-0.0721	-1.8164	0.0062	-0.0070	0.0098	26.3480	-10.6373	9.2177	0.5351	-0.4229	0.6442	0.3462
8.7	-9.4463	-0.0703	-1.8125	0.0061	-0.0124	0.0161	26.2804	-10.4982	9.0996	0.5351	-0.4229	0.6442	0.3462
8.71	-9.4468	-0.0654	-1.8119	0.0007	-0.0073	0.0146	26.3980	-10.5971	8.8776	0.5351	-0.4228	0.6442	0.3462
8.72	-9.4379	-0.0594	-1.8055	0.0028	-0.0069	0.0120	26.1385	-10.5604	9.1543	0.5352	-0.4229	0.6442	0.3462
8.73	-9.4434	-0.0524	-1.8102	0.0063	-0.0144	0.0151	26.3513	-10.5501	9.1885	0.5351	-0.4228	0.6442	0.3462
8.74	-9.4399	-0.0510	-1.8074	0.0133	-0.0135	0.0159	26.5016	-10.5140	9.2061	0.5352	-0.4228	0.6442	0.3463
8.75	-9.4303	-0.0506	-1.8006	0.0122	-0.0023	0.0071	26.1338	-10.2151	9.0764	0.5351	-0.4227	0.6442	0.3462
8.76	-9.4344	-0.0568	-1.7978	0.0030	-0.0080	0.0103	26.1420	-10.3905	9.2106	0.5352	-0.4228	0.6442	0.3462
8.77	-9.4462	-0.0624	-1.7990	0.0027	-0.0101	0.0137	26.2982	-10.4769	9.1493	0.5352	-0.4227	0.6442	0.3462
8.78	-9.4378	-0.0694	-1.7928	0.0058	-0.0110	0.0097	26.2625	-10.5245	9.2991	0.5352	-0.4227	0.6442	0.3462
8.79	-9.4370	-0.0718	-1.7864	0.0055	-0.0106	0.0102	26.1597	-10.5034	9.0566	0.5352	-0.4227	0.6442	0.3462
8.8	-9.4469	-0.0705	-1.7897	0.0073	-0.0122	0.0106	26.2461	-10.5066	9.1495	0.5352	-0.4227	0.6442	0.3462
8.81	-9.4394	-0.0682	-1.7882	0.0123	-0.0070	0.0074	26.3938	-10.3226	9.1712	0.5353	-0.4227	0.6442	0.3462
8.82	-9.4417	-0.0631	-1.7810	0.0074	-0.0120	0.0116	26.2427	-10.4257	9.3537	0.5352	-0.4226	0.6441	0.3461
8.83	-9.4390	-0.0577	-1.7899	0.0052	-0.0182	0.0194	26.2557	-10.5283	9.2631	0.5353	-0.4226	0.6442	0.3462
8.84	-9.4436	-0.0555	-1.7938	0.0003	-0.0085	0.0113	26.3028	-10.4978	9.1249	0.5353	-0.4226	0.6442	0.3462
8.85	-9.4376	-0.0555	-1.7828	0.0032	-0.0156	0.0156	26.3769	-10.5126	9.0347	0.5353	-0.4226	0.6442	0.3463
8.86	-9.4358	-0.0573	-1.7833	0.0075	-0.0137	0.0114	26.2539	-10.5013	8.9804	0.5353	-0.4226	0.6442	0.3463
8.87	-9.4423	-0.0601	-1.7875	0.0004	-0.0114	0.0045	26.2637	-10.5164	9.0626	0.5354	-0.4226	0.6441	0.3463
8.88	-9.4420	-0.0623	-1.7935	0.0008	-0.0138	0.0126	26.1200	-10.2974	9.0793	0.5354	-0.4226	0.6441	0.3463
8.89	-9.4346	-0.0667	-1.7958	0.0026	-0.0126	0.0124	26.3723	-10.2247	9.1849	0.5353	-0.4225	0.6441	0.3463
8.9	-9.4424	-0.0656	-1.8091	0.0033	-0.0100	0.0126	26.2188	-10.4815	9.1661	0.5354	-0.4226	0.6441	0.3463
8.91	-9.4469	-0.0704	-1.8182	0.0016	-0.0130	0.0110	26.2119	-10.5147	9.0888	0.5354	-0.4225	0.6441	0.3463
8.92	-9.4414	-0.0735	-1.8143	0.0081	-0.0124	0.0175	26.2890	-10.5060	9.0516	0.5355	-0.4225	0.6441	0.3464
8.93	-9.4385	-0.0755	-1.8140	0.0007	-0.0128	0.0107	26.3321	-10.5081	8.9001	0.5354	-0.4225	0.6440	0.3464
8.94	-9.4449	-0.0800	-1.8257	0.0065	-0.0148	0.0087	26.3754	-10.5020	9.0534	0.5355	-0.4225	0.6441	0.3464
8.95	-9.4410	-0.0803	-1.8184	0.0036	-0.0077	0.0140	26.1173	-10.5170	9.1584	0.5355	-0.4225	0.6441	0.3464
8.96	-9.4349	-0.0768	-1.8184	0.0046	-0.0112	0.0082	26.1510	-10.5083	9.1974	0.5354	-0.4225	0.6440	0.3464
8.97	-9.4410	-0.0747	-1.8211	0.0011	-0.0091	0.0154	26.3853	-10.4264	9.1762	0.5355	-0.4225	0.6441	0.3464
8.98	-9.4455	-0.0736	-1.8296	-0.0030	-0.0062	0.0068	26.1940	-10.4040	9.1906	0.5354	-0.4225	0.6440	0.3464
8.99	-9.4419	-0.0726	-1.8239	0.0090	-0.0041	0.0076	26.3953	-10.4988	9.1793	0.5355	-0.4225	0.6441	0.3464
9	-9.4415	-0.0693	-1.8244	0.0117	-0.0110	0.0127	26.5221	-10.4989	9.1985	0.5354	-0.4224	0.6440	0.3464
9.01	-9.4453	-0.0678	-1.8343	0.0141	-0.0151	0.0159	26.3847	-10.4230	9.2824	0.5355	-0.4224	0.6441	0.3464
9.02	-9.4374	-0.0722	-1.8217	0.0080	-0.0129	0.0127	26.1556	-10.3916	9.2695	0.5355	-0.4224	0.6441	0.3464
9.03	-9.4392	-0.0723	-1.8187	0.0059	-0.0031	0.0083	26.2768	-10.5931	8.9322	0.5355	-0.4224	0.6441	0.3464
9.04	-9.4496	-0.0676	-1.8218	0.0098	-0.0165	0.0096	26.2572	-10.4897	8.9122	0.5356	-0.4224	0.6441	0.3464
9.05	-9.4391	-0.0614	-1.8166	-0.0013	-0.0169	0.0081	26.1893	-10.4294	9.1916	0.5356	-0.4224	0.6440	0.3464
9.06	-9.4339	-0.0595	-1.8107	0.0077	-0.0116	0.0127	26.7188	-10.5664	9.3826	0.5356	-0.4224	0.6440	0.3464
9.07	-9.4396	-0.0578	-1.8087	0.0080	-0.0128	0.0164	26.7712	-10.6792	9.2941	0.5356	-0.4223	0.6440	0.3464
9.08	-9.4465	-0.0540	-1.8084	0.0014	-0.0076	0.0039	26.5294	-10.5714	9.2139	0.5357	-0.4223	0.6440	0.3464
9.09	-9.4384	-0.0498	-1.8025	0.0029	-0.0061	0.0086	26.3990	-10.3826	9.1195	0.5356	-0.4223	0.6440	0.3464
9.1	-9.4415	-0.0474	-1.8008	0.0025	-0.0086	0.0100	26.1580	-10.4492	9.1081	0.5357	-0.4223	0.6440	0.3464
9.11	-9.4483	-0.0502	-1.7999	0.0040	-0.0153	0.0136	26.1273	-10.2941	8.9498	0.5356	-0.4223	0.6440	0.3464
9.12	-9.4432	-0.0525	-1.7964	0.0016	-0.0102	0.0151	26.1484	-10.4346	9.0597	0.5357	-0.4223	0.6440	0.3464
9.13	-9.4387	-0.0509	-1.7957	-0.0064	-0.0051	0.0075	26.2912	-10.3534	9.2204	0.5356	-0.4223	0.6440	0.3465
9.14	-9.4355	-0.0500	-1.7928	0.0023	-0.0103	0.0109	26.2285	-10.5036	9.0829	0.5356	-0.4223	0.6439	0.3464
9.15	-9.4381	-0.0575	-1.7909	-0.0032	-0.0042	0.0068	26.1957	-10.3485	8.9622	0.5357	-0.4224	0.6440	0.3465
9.16	-9.4380	-0.0636	-1.7935	0.0035	-0.0058	0.0108	26.1144	-10.3266	9.0465	0.5356	-0.4224	0.6439	0.3465
9.17	-9.4480	-0.0705	-1.7979	0.0056	-0.0039	0.0079	26.1728	-10.2392	9.0721	0.5357	-0.4224	0.6440	0.3465
9.18	-9.4470	-0.0822	-1.8038	0.0061	-0.0026	0.0100	26.4006	-10.2291	9.1818	0.5356	-0.4224	0.6439	0.3464
9.19	-9.4358	-0.0796	-1.8019	0.0014	-0.0084	0.0109	26.4454	-10.3065	9.1424	0.5356	-0.4224	0.6440	0.3464
9.2	-9.4368	-0.0818	-1.7939	0.0013	-0.0068	0.0132	26.3202	-10.1873	9.0621	0.5356	-0.4224	0.6440	0.3465
9.21	-9.4483	-0.0836	-1.7993	0.0021	-0.0095	0.0133	26.1978	-10.2960	9.0695	0.5356	-0.4224	0.6439	0.3465
9.22	-9.4463	-0.0767	-1.7996	0.0031	-0.0145	0.0089	26.3183	-10.5200	9.2115	0.5356	-0.4224	0.6440	0.3465
9.23	-9.4424	-0.0724	-1.7990	0.0017	-0.0087	0.0089	26.3887	-10.6699	8.9712	0.5356	-0.4224	0.6439	0.3465
9.24	-9.4402	-0.0729	-1.8072	-0.0005	-0.0108	0.0090	26.3890	-10.4147	8.9480	0.5356	-0.4224	0.6440	0.3465
9.25	-9.4405	-0.0742	-1.8009	0.0027	-0.0063	0.0095	26.2868	-10.6769	9.0360	0.5356	-0.4224	0.6439	0.3465
9.26	-9.4371	-0.0693	-1.7937	0.0019	-0.0043	0.0069	26.3125	-10.5960	8.9771	0.5356	-0.4224	0.6439	0.3465
9.27	-9.4403	-0.0706	-1.7960	-0.0014	-0.0061	0.0068	26.2568	-10.5736	8.8636	0.5356	-0.4224	0.6439	0.3465
9.28	-9.4438	-0.0613	-1.7962	0.0001	-0.0064	0.0103	26.1875	-10.4285	9.0704	0.5356	-0.4225	0.6439	0.3465
9.29	-9.4426	-0.0579	-1.7985	0.0081	-0.0086	0.0082	26.3145	-10.2729	9.0886	0.5356	-0.4225	0.6439	0.3465
9.3	-9.4436	-0.0567	-1.8060	-0.0005	-0.0122	0.0121	26.2801	-10.5916	9.2168	0.5356	-0.4225	0.6439	0.3465
9.31	-9.4493	-0.0557	-1.8157	0.0008	-0.0131	0.0101	26.3013	-10.4535	9.0902	0.5356	-0.4225	0.6439	0.3465
9.32	-9.4402	-0.0550	-1.8077	-0.0010	-0.0053	0.0089	26.2894	-10.2649	9.1013	0.5356	-0.4224	0.6438	0.3465
9.33	-9.4376	-0.0558	-1.8103	-0.0083	-0.0079	0.0077	26.2060	-10.4603	8.8275	0.5356	-0.4225	0.6439	0.3466
9.34	-9.4456	-0.0571	-1.8154	-0.0024	-0.0036	0.0069	26.2281	-10.2806	9.0424	0.5356	-0.4226	0.6438	0.3466
9.35	-9.4455	-0.0636	-1.8056	0.0009	-0.0063	0.0073	26.1568	-10.2169	9.0141	0.5356	-0.4226	0.6438	0.3466
9.36	-9.4415	-0.0658	-1.8101	-0.0013	-0.0056	0.0094	26.1064	-10.2304	8.9841	0.5355	-0.4226	0.6438	0.3466
9.37	-9.4421	-0.0642	-1.8091	0.0037	-0.0049	0.0061	26.0713	-10.0229	9.0769	0.5355	-0.4226	0.6438	0.3466
9.38	-9.4442	-0.0678	-1.8102	0.0051	-0.0051	0.0055	26.3180	-10.2830	9.1174	0.5355	-0.4226	0.6438	0.3465
9.39	-9.4393	-0.0648	-1.8068	0.0082	-0.0073	0.0117	25.9247	-10.3995	8.8758	0.5355	-0.4226	0.6438	0.3465
9.4	-9.4434	-0.0614	-1.8047	0.0045	-0.0103	0.0101	26.2098	-10.4878	9.0579	0.5356	-0.4226	0.6438	0.3465
9.41	-9.4452	-0.0588	-1.8082	0.0095	-0.0091	0.0082	26.4317	-10.6212	9.1655	0.5356	-0.4226	0.6438	0.3465
9.42	-9.4412	-0.0606	-1.8059	0.0080	-0.0039	0.0104	26.3373	-10.6017	8.8499	0.5356	-0.4226	0.6439	0.3465
9.43	-9.4434	-0.0633	-1.8084	0.0066	-0.0066	0.0091	26.4884	-10.4345	9.0407	0.5355	-0.4226	0.6438	0.3464
9.44	-9.4427	-0.0664	-1.8162	0.0013	-0.0096	0.0097	26.5229	-10.5046	9.0881	0.5356	-0.4226	0.6438	0.3465
9.45	-9.4411	-0.0696	-1.8173	0.0022	-0.0050	0.0108	26.2401	-10.4067	8.9097	0.5356	-0.4226	0.6438	0.3465
9.46	-9.4357	-0.0728	-1.8079	0.0077	-0.0051	0.0100	26.1910	-10.3981	8.9600	0.5355	-0.4226	0.6438	0.3464
9.47	-9.4420	-0.0702	-1.8052	0.0068	-0.0071	0.0112	26.3286	-10.3720	9.1353	0.5356	-0.4226	0.6439	0.3465
9.48	-9.4487	-0.0694	-1.8047	0.0116	-0.0064	0.0096	26.3740	-10.4445	9.0121	0.5356	-0.4226	0.6439	0.3464
9.49	-9.4416	-0.0646	-1.8035	0.0122	-0.0067	0.0140	26.2018	-10.4405	9.0544	0.5356	-0.4226	0.6439	0.3464
9.5	-9.4374	-0.0630	-1.8002	0.0078	-0.0034	0.0088	26.2304	-10.2951	9.0910	0.5355	-0.4225	0.6439	0.3463
9.51	-9.4405	-0.0620	-1.7994	0.0020	-0.0034	0.0024	26.0803	-10.3070	9.0775	0.5356	-0.4226	0.6439	0.3464
9.52	-9.4424	-0.0632	-1.8088	0.0060	-0.0076	0.0094	26.2303	-10.3592	9.2227	0.5356	-0.4226	0.6439	0.3463
9.53	-9.4368	-0.0630	-1.7927	0.0043	-0.0035	0.0084	26.3329	-10.3770	9.0720	0.5356	-0.4226	0.6439	0.3463
9.54	-9.4434	-0.0611	-1.8016	0.0044	-0.0010	0.0048	26.1759	-9.9873	8.9920	0.5356	-0.4227	0.6439	0.3463
9.55	-9.4452	-0.0616	-1.8060	0.0024	-0.0042	0.0067	26.3745	-10.1433	9.0867	0.5356	-0.4227	0.6439	0.3463
9.56	-9.4358	-0.0545	-1.7975	0.0009	-0.0053	0.0066	26.5304	-10.2688	9.0973	0.5356	-0.4227	0.6439	0.3463
9.57	-9.4374	-0.0566	-1.7972	0.0025	-0.0060	0.0092	26.5428	-10.1102	9.0404	0.5355	-0.4227	0.6438	0.3462
9.58	-9.4409	-0.0580	-1.8023	0.0014	-0.0109	0.0134	26.4594	-10.2889	9.3205	0.5356	-0.4227	0.6439	0.3463
9.59	-9.4427	-0.0609	-1.8007	0.0017	-0.0128	0.0164	26.4459	-10.4629	9.2444	0.5355	-0.4227	0.6439	0.3463
9.6	-9.4361	-0.0682	-1.7998	0.0111	-0.0118	0.0138	26.3537	-10.5008	9.0301	0.5356	-0.4227	0.6439	0.3463
9.61	-9.4400	-0.0690	-1.8074	0.0052	-0.0063	0.0131	26.2334	-10.4866	9.2094	0.5356	-0.4226	0.6439	0.3463
9.62	-9.4410	-0.0671	-1.8011	0.0145	-0.0101	0.0148	26.2334	-10.4620	9.1661	0.5356	-0.4226	0.6439	0.3463
9.63	-9.4363	-0.0689	-1.7964	0.0158	-0.0117	0.0164	26.2763	-10.3294	9.1404	0.5356	-0.4226	0.6440	0.3463
9.64	-9.4392	-0.0651	-1.8042	0.0121	-0.0071	0.0172	26.4158	-10.2835	9.0286	0.5356	-0.4225	0.6439	0.3462
9.65	-9.4491	-0.0611	-1.8042	0.0065	-0.0133	0.0130	26.3915	-10.4407	9.2625	0.5357	-0.4225	0.6440	0.3463
9.66	-9.4439	-0.0586	-1.8066	0.0075	-0.0083	0.0115	26.4062	-10.6017	9.1876	0.5356	-0.4225	0.6440	0.3463
9.67	-9.4425	-0.0544	-1.8089	0.0048	-0.0092	0.0169	26.3983	-10.4949	9.0451	0.5357	-0.4225	0.6440	0.3463
9.68	-9.4425	-0.0508	-1.8042	0.0150	-0.0105	0.0141	26.4090	-10.3713	9.2003	0.5356	-0.4224	0.6440	0.3462
9.69	-9.4427	-0.0548	-1.8106	0.0076	-0.0059	0.0113	26.3800	-10.4218	9.0557	0.5357	-0.4224	0.6440	0.3463
9.7	-9.4386	-0.0532	-1.8080	0.0069	-0.0050	0.0123	26.1198	-10.3272	9.0997	0.5357	-0.4224	0.6440	0.3462
9.71	-9.4392	-0.0590	-1.8142	0.0030	-0.0095	0.0113	26.3059	-10.3701	9.0739	0.5356	-0.4224	0.6440	0.3462
9.72	-9.4418	-0.0594	-1.8147	0.0048	-0.0127	0.0127	26.4325	-10.5024	9.1011	0.5357	-0.4224	0.6441	0.3463
9.73	-9.4378	-0.0644	-1.8167	0.0027	-0.0067	0.0108	26.3709	-10.3251	9.2238	0.5357	-0.4224	0.6440	0.3463
9.74	-9.4436	-0.0683	-1.8171	0.0045	-0.0044	0.0098	26.4421	-10.3052	9.2946	0.5357	-0.4224	0.6441	0.3463
9.75	-9.4401	-0.0676	-1.8155	0.0006	-0.0085	0.0085	26.2096	-10.3164	9.1494	0.5356	-0.4224	0.6440	0.3462
9.76	-9.4419	-0.0730	-1.8084	0.0083	-0.0090	0.0164	26.1706	-10.4134	9.1960	0.5357	-0.4224	0.6441	0.3463
9.77	-9.4448	-0.0700	-1.8107	0.0082	-0.0150	0.0165	26.4256	-10.3970	9.2827	0.5357	-0.4223	0.6440	0.3463
9.78	-9.4430	-0.0700	-1.8089	0.0010	-0.0142	0.0181	26.6051	-10.6490	8.9829	0.5357	-0.4223	0.6440	0.3463
9.79	-9.4397	-0.0633	-1.8034	0.0064	-0.0079	0.0135	26.3486	-10.5469	9.0425	0.5357	-0.4223	0.6441	0.3463
9.8	-9.4386	-0.0639	-1.8046	0.0075	-0.0101	0.0099	26.3748	-10.5674	8.9319	0.5357	-0.4223	0.6440	0.3463
9.81	-9.4421	-0.0663	-1.8045	0.0076	-0.0172	0.0170	26.5463	-10.5169	9.0172	0.5357	-0.4222	0.6441	0.3463
9.82	-9.4388	-0.0666	-1.8071	0.0028	-0.0145	0.0181	26.3642	-10.3660	9.2094	0.5357	-0.4222	0.6440	0.3463
9.83	-9.4376	-0.0713	-1.8049	0.0060	-0.0085	0.0097	26.5197	-10.4196	9.1645	0.5358	-0.4222	0.6441	0.3464
9.84	-9.4404	-0.0722	-1.8022	-0.0001	-0.0165	0.0147	26.4334	-10.4877	9.1845	0.5357	-0.4222	0.6440	0.3464
9.85	-9.4424	-0.0748	-1.8025	0.0050	-0.0166	0.0118	26.3658	-10.4750	9.1888	0.5358	-0.4222	0.6440	0.3464
9.86	-9.4388	-0.0764	-1.8053	0.0036	-0.0102	0.0166	26.5266	-10.4660	9.0789	0.5358	-0.4221	0.6440	0.3464
9.87	-9.4435	-0.0757	-1.8025	0.0078	-0.0089	0.0118	26.2975	-10.4950	9.1071	0.5358	-0.4221	0.6440	0.3464
9.88	-9.4432	-0.0759	-1.8016	0.0019	-0.0051	0.0105	26.0948	-10.4270	9.0496	0.5358	-0.4221	0.6440	0.3464
9.89	-9.4404	-0.0709	-1.8034	0.0017	-0.0092	0.0137	26.2689	-10.3747	9.1998	0.5357	-0.4221	0.6440	0.3464
9.9	-9.4383	-0.0642	-1.8097	0.0055	-0.0062	0.0163	26.2113	-10.5070	9.1298	0.5358	-0.4221	0.6441	0.3465
9.91	-9.4408	-0.0604	-1.8054	0.0076	-0.0102	0.0134	26.4358	-10.3220	9.1345	0.5358	-0.4221	0.6440	0.3464
9.92	-9.4394	-0.0567	-1.8040	0.0030	-0.0123	0.0108	26.4675	-10.5136	9.1412	0.5358	-0.4221	0.6441	0.3465
9.93	-9.4387	-0.0533	-1.8058	0.0052	-0.0094	0.0121	26.2047	-10.3557	8.9736	0.5358	-0.4220	0.6440	0.3464
9.94	-9.4437	-0.0511	-1.8029	0.0061	-0.0046	0.0127	26.1547	-10.2496	9.2193	0.5358	-0.4220	0.6441	0.3464
9.95	-9.4451	-0.0545	-1.8026	0.0087	-0.0093	0.0151	26.1687	-10.4700	9.1492	0.5358	-0.4220	0.6441	0.3464
9.96	-9.4400	-0.0592	-1.8007	0.0104	-0.0130	0.0215	26.4188	-10.2751	9.1981	0.5358	-0.4219	0.6440	0.3464
9.97	-9.4387	-0.0580	-1.7911	0.0120	-0.0141	0.0143	26.3816	-10.5107	8.9729	0.5359	-0.4219	0.6441	0.3465
9.98	-9.4414	-0.0578	-1.7970	0.0025	-0.0170	0.0124	26.3328	-10.3369	9.1465	0.5358	-0.4219	0.6441	0.3465
9.99	-9.4448	-0.0584	-1.7974	0.0020	-0.0099	0.0176	26.4418	-10.4786	8.9930	0.5359	-0.4219	0.6441	0.3465
10	-9.4395	-0.0624	-1.7944	0.0101	-0.0086	0.0126	26.3737	-10.4732	9.0921	0.5358	-0.4218	0.6440	0.3465
10.01	-9.4371	-0.0627	-1.7929	0.0071	-0.0103	0.0160	26.4304	-10.3773	9.0929	0.5359	-0.4218	0.6441	0.3465
10.02	-9.4407	-0.0695	-1.7913	0.0042	-0.0061	0.0136	26.5208	-10.2289	9.0824	0.5358	-0.4218	0.6441	0.3465
10.03	-9.4438	-0.0716	-1.7948	0.0098	-0.0160	0.0183	26.6189	-10.2708	9.0961	0.5358	-0.4218	0.6441	0.3465
10.04	-9.4398	-0.0736	-1.7964	0.0069	-0.0131	0.0109	26.3261	-10.5153	9.0830	0.5359	-0.4218	0.6441	0.3465
10.05	-9.4356	-0.0792	-1.7914	0.0148	-0.0086	0.0099	26.2860	-10.3250	9.0998	0.5359	-0.4217	0.6441	0.3465
10.06	-9.4399	-0.0808	-1.7957	0.0139	-0.0120	0.0149	26.8368	-10.3239	9.2955	0.5360	-0.4217	0.6442	0.3465
10.07	-9.4435	-0.0799	-1.7914	0.0038	-0.0022	0.0119	26.7066	-10.5280	9.5137	0.5359	-0.4217	0.6441	0.3464
10.08	-9.4463	-0.0706	-1.7947	0.0031	-0.0085	0.0087	26.5429	-10.1576	9.1055	0.5359	-0.4217	0.6442	0.3465
10.09	-9.4436	-0.0688	-1.8024	0.0018	-0.0135	0.0065	26.1617	-10.2165	9.1830	0.5359	-0.4217	0.6441	0.3465
10.1	-9.4398	-0.0680	-1.8004	-0.0006	-0.0095	0.0114	26.2076	-10.2953	9.1312	0.5359	-0.4217	0.6441	0.3465
10.11	-9.4398	-0.0646	-1.8077	0.0030	-0.0062	0.0123	26.3411	-10.0539	9.0967	0.5359	-0.4217	0.6441	0.3465
10.12	-9.4327	-0.0683	-1.8043	0.0003	-0.0065	0.0064	26.1717	-10.4100	9.1875	0.5359	-0.4217	0.6441	0.3465
10.13	-9.4359	-0.0684	-1.8044	0.0051	-0.0089	0.0107	26.1406	-10.2592	8.8861	0.5359	-0.4217	0.6441	0.3465
10.14	-9.4342	-0.0703	-1.8015	0.0044	-0.0123	0.0134	26.2135	-10.4346	8.9533	0.5359	-0.4217	0.6441	0.3465
10.15	-9.4389	-0.0695	-1.8026	0.0085	-0.0044	0.0100	26.4468	-10.6328	9.0221	0.5360	-0.4217	0.6442	0.3465
10.16	-9.4432	-0.0694	-1.8009	0.0088	-0.0093	0.0112	26.4646	-10.6164	9.0626	0.5359	-0.4217	0.6441	0.3465
10.17	-9.4409	-0.0682	-1.7957	0.0057	-0.0067	0.0148	26.2941	-10.5077	9.1724	0.5360	-0.4217	0.6442	0.3465
10.18	-9.4447	-0.0606	-1.7929	0.0119	-0.0063	0.0150	26.3293	-10.3057	8.8043	0.5359	-0.4216	0.6441	0.3464
10.19	-9.4443	-0.0565	-1.7913	0.0057	-0.0101	0.0093	26.5077	-10.5260	8.8803	0.5360	-0.4217	0.6442	0.3464
10.2	-9.4427	-0.0521	-1.7928	0.0054	-0.0128	0.0042	26.2972	-10.4681	8.9868	0.5360	-0.4217	0.6442	0.3464
10.21	-9.4438	-0.0524	-1.7967	-0.0001	-0.0124	0.0068	26.3727	-10.4337	9.1266	0.5360	-0.4216	0.6441	0.3464
10.22	-9.4448	-0.0499	-1.7999	0.0020	-0.0134	0.0151	26.5104	-10.5237	9.0016	0.5360	-0.4217	0.6442	0.3465
10.23	-9.4354	-0.0563	-1.7972	-0.0001	-0.0111	0.0111	26.2918	-10.4346	9.0615	0.5360	-0.4217	0.6441	0.3465
10.24	-9.4367	-0.0610	-1.7978	0.0048	-0.0055	0.0127	26.2076	-10.6071	9.1436	0.5360	-0.4217	0.6441	0.3465
10.25	-9.4410	-0.0572	-1.8022	0.0063	-0.0066	0.0005	26.2398	-10.3123	9.0052	0.5360	-0.4216	0.6441	0.3464
10.26	-9.4444	-0.0574	-1.7984	-0.0022	-0.0091	0.0017	26.3294	-10.3132	9.0179	0.5360	-0.4217	0.6441	0.3464
10.27	-9.4351	-0.0605	-1.7967	0.0023	-0.0049	0.0119	26.1304	-10.3475	9.1965	0.5360	-0.4217	0.6441	0.3464
10.28	-9.4371	-0.0692	-1.7956	0.0078	-0.0037	0.0106	26.2292	-10.1880	9.1240	0.5360	-0.4217	0.6441	0.3464
10.29	-9.4440	-0.0718	-1.8110	0.0062	-0.0078	0.0076	26.2218	-10.2713	8.9068	0.5360	-0.4217	0.6441	0.3464
10.3	-9.4421	-0.0769	-1.8140	0.0044	-0.0056	0.0105	26.2705	-10.3319	9.0510	0.5360	-0.4217	0.6441	0.3464
10.31	-9.4356	-0.0790	-1.8128	0.0096	-0.0102	0.0114	26.3191	-10.3178	8.9960	0.5360	-0.4217	0.6441	0.3464
10.32	-9.4414	-0.0804	-1.8105	0.0105	-0.0109	0.0157	26.3236	-10.2525	9.0986	0.5360	-0.4217	0.6441	0.3463
10.33	-9.4485	-0.0744	-1.8153	0.0080	-0.0107	0.0132	26.2668	-10.4886	9.1328	0.5361	-0.4217	0.6442	0.3464
10.34	-9.4436	-0.0681	-1.8109	0.0142	-0.0059	0.0108	26.2834	-10.5813	9.2170	0.5360	-0.4216	0.6441	0.3463
10.35	-9.4435	-0.0579	-1.8106	0.0126	-0.0054	0.0104	26.4869	-10.6115	9.2036	0.5361	-0.4216	0.6442	0.3463
10.36	-9.4386	-0.0527	-1.8168	0.0057	-0.0045	0.0103	26.5478	-10.6188	9.2011	0.5360	-0.4216	0.6442	0.3463
10.37	-9.4361	-0.0514	-1.8132	0.0061	-0.0062	0.0109	26.6558	-10.4396	9.1031	0.5360	-0.4216	0.6442	0.3463
10.38	-9.4393	-0.0506	-1.8167	0.0086	-0.0057	0.0086	26.4309	-10.5353	9.0889	0.5361	-0.4216	0.6442	0.3462
10.39	-9.4447	-0.0539	-1.8300	0.0099	-0.0082	0.0095	26.2869	-10.6607	8.9047	0.5360	-0.4216	0.6442	0.3462
10.4	-9.4419	-0.0505	-1.8259	0.0097	-0.0065	0.0083	26.5309	-10.4625	9.0714	0.5361	-0.4216	0.6443	0.3462
10.41	-9.4419	-0.0548	-1.8258	0.0019	-0.0108	0.0119	26.2518	-10.6053	9.2633	0.5361	-0.4216	0.6442	0.3462
10.42	-9.4464	-0.0568	-1.8279	0.0037	-0.0162	0.0124	26.2856	-10.5605	9.0955	0.5361	-0.4216	0.6443	0.3462
10.43	-9.4382	-0.0581	-1.8231	0.0072	-0.0052	0.0086	26.3221	-10.4269	9.1407	0.5361	-0.4216	0.6442	0.3462
10.44	-9.4382	-0.0553	-1.8187	0.0071	-0.0116	0.0096	26.2115	-10.4490	8.9302	0.5361	-0.4216	0.6442	0.3462
10.45	-9.4435	-0.0588	-1.8179	0.0025	-0.0044	0.0099	26.3999	-10.2751	8.8308	0.5361	-0.4216	0.6442	0.3462
10.46	-9.4474	-0.0585	-1.8152	0.0042	-0.0066	0.0083	26.1172	-10.2893	8.8163	0.5361	-0.4216	0.6442	0.3461
10.47	-9.4453	-0.0578	-1.8115	0.0043	-0.0120	0.0117	26.2845	-10.2691	8.9819	0.5362	-0.4216	0.6443	0.3462
10.48	-9.4411	-0.0606	-1.8063	0.0041	-0.0085	0.0051	26.3971	-10.1698	9.2463	0.5361	-0.4216	0.6442	0.3461
10.49	-9.4439	-0.0600	-1.8037	0.0019	-0.0086	0.0016	26.2173	-10.2407	9.1706	0.5362	-0.4217	0.6442	0.3461
10.5	-9.4381	-0.0692	-1.7996	0.0048	-0.0053	0.0073	26.2212	-10.4642	9.1953	0.5361	-0.4216	0.6441	0.3461
10.51	-9.4422	-0.0722	-1.7975	0.0014	-0.0105	0.0124	26.3497	-10.5332	9.1147	0.5361	-0.4217	0.6442	0.3461
10.52	-9.4460	-0.0688	-1.7893	0.0038	-0.0089	0.0093	26.2372	-10.5494	9.2164	0.5361	-0.4217	0.6442	0.3461
10.53	-9.4360	-0.0662	-1.7846	0.0023	-0.0033	0.0130	26.2917	-10.7103	8.9277	0.5361	-0.4217	0.6442	0.3461
10.54	-9.4331	-0.0712	-1.7756	0.0070	-0.0073	0.0130	26.4139	-10.6752	8.9359	0.5361	-0.4217	0.6442	0.3461
10.55	-9.4408	-0.0737	-1.7823	0.0046	-0.0085	0.0086	26.3974	-10.5880	9.2320	0.5361	-0.4217	0.6442	0.3461
10.56	-9.4381	-0.0807	-1.7833	0.0022	-0.0131	0.0126	26.7449	-10.6166	9.3163	0.5361	-0.4217	0.6442	0.3461
10.57	-9.4358	-0.0806	-1.7766	0.0030	-0.0106	0.0169	26.9105	-10.5288	9.2934	0.5361	-0.4216	0.6441	0.3461
10.58	-9.4408	-0.0854	-1.7844	0.0009	-0.0109	0.0142	26.4909	-10.2762	9.3301	0.5361	-0.4217	0.6442	0.3462
10.59	-9.4436	-0.0828	-1.7912	-0.0033	-0.0098	0.0124	26.2570	-10.3508	9.2092	0.5361	-0.4216	0.6442	0.3462
10.6	-9.4394	-0.0844	-1.7871	0.0038	-0.0116	0.0098	26.1548	-10.3978	9.3753	0.5361	-0.4217	0.6442	0.3462
10.61	-9.4347	-0.0844	-1.7831	0.0075	-0.0092	0.0114	26.3817	-10.5598	9.1239	0.5361	-0.4216	0.6442	0.3462
10.62	-9.4396	-0.0799	-1.7946	0.0060	-0.0056	0.0128	26.2955	-10.5244	9.2107	0.5361	-0.4216	0.6442	0.3462
10.63	-9.4466	-0.0980	-1.8004	0.0095	-0.0064	0.0125	26.2588	-10.4038	9.2528	0.5361	-0.4216	0.6442	0.3462
10.64	-9.4327	-0.0910	-1.7989	0.0061	-0.0114	0.0092	26.1848	-10.2862	9.2580	0.5361	-0.4216	0.6441	0.3461
10.65	-9.4420	-0.0840	-1.8033	0.0016	-0.0084	0.0143	26.0849	-10.4095	9.1088	0.5362	-0.4216	0.6442	0.3462
10.66	-9.4495	-0.0808	-1.8102	0.0038	-0.0018	0.0104	26.2337	-10.3484	9.2410	0.5361	-0.4216	0.6442	0.3461
10.67	-9.4343	-0.0782	-1.8041	0.0028	-0.0150	0.0116	26.3217	-10.4692	9.1709	0.5362	-0.4216	0.6443	0.3462
10.68	-9.4277	-0.0659	-1.7957	0.0043	-0.0051	0.0118	26.3676	-10.3686	9.1841	0.5361	-0.4216	0.6442	0.3461
10.69	-9.4435	-0.0590	-1.8106	0.0045	-0.0073	0.0120	26.0817	-10.2888	9.0798	0.5361	-0.4216	0.6442	0.3461
10.7	-9.4457	-0.0550	-1.8138	0.0017	-0.0092	0.0145	26.0222	-10.2911	8.9911	0.5361	-0.4216	0.6442	0.3462
10.71	-9.4388	-0.0560	-1.8077	0.0039	-0.0109	0.0170	26.2740	-10.3752	9.1084	0.5361	-0.4216	0.6442	0.3462
10.72	-9.4402	-0.0551	-1.8144	-0.0003	-0.0119	0.0162	26.2647	-10.3744	8.9638	0.5361	-0.4216	0.6443	0.3462
10.73	-9.4448	-0.0464	-1.8250	0.0050	-0.0104	0.0123	26.2566	-10.4080	9.1091	0.5361	-0.4216	0.6442	0.3462
10.74	-9.4355	-0.0541	-1.8192	0.0028	-0.0139	0.0127	26.2986	-10.4897	9.0599	0.5361	-0.4216	0.6443	0.3463
10.75	-9.4356	-0.0564	-1.8220	0.0044	-0.0088	0.0082	26.4646	-10.4379	9.0816	0.5361	-0.4215	0.6442	0.3462
10.76	-9.4408	-0.0563	-1.8299	0.0018	-0.0073	0.0120	26.2629	-10.3781	9.0780	0.5361	-0.4216	0.6442	0.3462
10.77	-9.4410	-0.0513	-1.8312	0.0064	-0.0077	0.0107	26.1814	-10.3663	9.0457	0.5361	-0.4216	0.6442	0.3462
10.78	-9.4332	-0.0454	-1.8292	0.0063	-0.0111	0.0135	26.3778	-10.4421	9.1664	0.5361	-0.4215	0.6442	0.3462
10.79	-9.4404	-0.0420	-1.8276	0.0030	-0.0127	0.0139	26.1504	-10.5653	9.1500	0.5361	-0.4215	0.6442	0.3462
10.8	-9.4431	-0.0355	-1.8309	0.0103	-0.0140	0.0151	26.1925	-10.5358	9.0653	0.5361	-0.4215	0.6442	0.3462
10.81	-9.4425	-0.0338	-1.8283	0.0082	-0.0132	0.0119	26.1968	-10.3364	9.0508	0.5362	-0.4215	0.6442	0.3462
10.82	-9.4464	-0.0421	-1.8269	0.0045	-0.0083	0.0142	26.4515	-10.2576	9.1715	0.5361	-0.4214	0.6442	0.3462
10.83	-9.4418	-0.0457	-1.8201	0.0043	-0.0079	0.0103	26.3843	-10.3367	9.2380	0.5362	-0.4215	0.6443	0.3462
10.84	-9.4402	-0.0516	-1.8213	0.0147	-0.0108	0.0097	26.1885	-10.3730	9.1364	0.5362	-0.4214	0.6442	0.3462
10.85	-9.4398	-0.0542	-1.8160	0.0038	-0.0127	0.0134	26.1729	-10.4444	8.8809	0.5362	-0.4214	0.6443	0.3462
10.86	-9.4386	-0.0597	-1.8072	-0.0004	-0.0107	0.0087	26.2087	-10.5545	9.0152	0.5362	-0.4214	0.6442	0.3462
10.87	-9.4420	-0.0573	-1.8080	0.0094	-0.0095	0.0045	26.2396	-10.4372	9.2932	0.5362	-0.4214	0.6442	0.3462
10.88	-9.4377	-0.0581	-1.7980	0.0055	-0.0118	0.0105	26.3407	-10.2868	9.0640	0.5362	-0.4214	0.6442	0.3462
10.89	-9.4346	-0.0592	-1.7973	0.0037	-0.0070	0.0084	26.2617	-10.3774	9.0018	0.5362	-0.4214	0.6442	0.3461
10.9	-9.4376	-0.0619	-1.7941	-0.0008	-0.0053	0.0158	26.1998	-10.4599	8.8749	0.5362	-0.4215	0.6443	0.3462
10.91	-9.4411	-0.0685	-1.7941	0.0091	-0.0070	0.0131	26.3932	-10.5064	8.9064	0.5362	-0.4214	0.6442	0.3462
10.92	-9.4464	-0.0670	-1.7984	0.0079	-0.0089	0.0114	26.3328	-10.5148	8.9446	0.5363	-0.4214	0.6443	0.3462
10.93	-9.4416	-0.0720	-1.8066	0.0004	-0.0117	0.0133	26.3363	-10.2723	9.1118	0.5362	-0.4214	0.6442	0.3462
10.94	-9.4366	-0.0856	-1.7984	0.0080	-0.0095	0.0136	26.3711	-10.2856	8.9057	0.5362	-0.4214	0.6443	0.3462
10.95	-9.4399	-0.0840	-1.7908	0.0024	-0.0119	0.0150	26.2550	-10.5233	9.1351	0.5362	-0.4214	0.6443	0.3462
10.96	-9.4410	-0.0894	-1.7909	0.0052	-0.0150	0.0122	26.0743	-10.4902	9.1041	0.5362	-0.4213	0.6442	0.3462
10.97	-9.4354	-0.0917	-1.7802	0.0050	-0.0144	0.0072	26.1930	-10.3641	8.9511	0.5363	-0.4214	0.6443	0.3462
10.98	-9.4355	-0.0915	-1.7846	0.0066	-0.0137	0.0099	26.4798	-10.4921	9.0134	0.5363	-0.4213	0.6442	0.3462
10.99	-9.4434	-0.0815	-1.7902	0.0096	-0.0104	0.0106	26.6224	-10.4339	9.1981	0.5363	-0.4213	0.6443	0.3462
11	-9.4345	-0.0838	-1.7889	0.0096	-0.0112	0.0131	26.1202	-10.4831	8.9677	0.5363	-0.4213	0.6442	0.3461
11.01	-9.4397	-0.0826	-1.7850	0.0106	-0.0073	0.0141	26.2295	-10.3373	9.0031	0.5363	-0.4213	0.6443	0.3462
11.02	-9.4465	-0.0762	-1.7921	0.0088	-0.0032	0.0081	26.2547	-10.4411	9.2731	0.5363	-0.4213	0.6443	0.3461
11.03	-9.4401	-0.0696	-1.7949	0.0021	-0.0074	0.0108	26.3133	-10.4754	9.1826	0.5363	-0.4213	0.6443	0.3461
11.04	-9.4368	-0.0639	-1.8028	0.0114	-0.0060	0.0087	26.4540	-10.3675	9.0395	0.5363	-0.4213	0.6443	0.3461
11.05	-9.4375	-0.0529	-1.8100	0.0060	-0.0065	0.0122	26.2684	-10.2450	9.2538	0.5363	-0.4213	0.6443	0.3461
11.06	-9.4437	-0.0459	-1.8054	0.0044	-0.0075	0.0096	26.4632	-10.1980	9.3693	0.5363	-0.4213	0.6443	0.3461
11.07	-9.4429	-0.0471	-1.8021	0.0085	-0.0065	0.0097	26.5753	-10.2642	9.2483	0.5363	-0.4212	0.6443	0.3460
11.08	-9.4408	-0.0458	-1.8040	0.0056	-0.0127	0.0103	26.5506	-10.4899	9.1985	0.5364	-0.4213	0.6443	0.3460
11.09	-9.4378	-0.0441	-1.8035	-0.0007	-0.0118	0.0133	26.3909	-10.4326	9.0514	0.5363	-0.4213	0.6443	0.3461
11.1	-9.4411	-0.0429	-1.8041	-0.0036	-0.0133	0.0115	26.1462	-10.5140	9.0439	0.5364	-0.4213	0.6443	0.3461
11.11	-9.4402	-0.0444	-1.8051	0.0065	-0.0087	0.0122	26.4873	-10.5033	8.9191	0.5363	-0.4213	0.6443	0.3461
11.12	-9.4465	-0.0506	-1.8067	0.0067	-0.0042	0.0123	26.4185	-10.2909	9.1977	0.5363	-0.4213	0.6443	0.3461
11.13	-9.4462	-0.0500	-1.8097	0.0059	-0.0074	0.0087	26.2691	-10.3542	8.9638	0.5363	-0.4213	0.6443	0.3461
11.14	-9.4397	-0.0529	-1.8103	0.0048	-0.0093	0.0117	26.3225	-10.3775	8.9126	0.5363	-0.4212	0.6443	0.3460
11.15	-9.4411	-0.0530	-1.8128	0.0009	-0.0116	0.0082	26.0211	-10.7574	9.0548	0.5364	-0.4213	0.6443	0.3461
11.16	-9.4440	-0.0539	-1.8101	0.0030	-0.0066	0.0092	26.1643	-10.7185	9.0085	0.5363	-0.4213	0.6443	0.3460
11.17	-9.4401	-0.0547	-1.8020	0.0011	-0.0108	0.0071	26.3171	-10.3878	9.0772	0.5364	-0.4213	0.6443	0.3461
11.18	-9.4314	-0.0629	-1.7923	0.0016	-0.0146	0.0146	26.2671	-10.5454	9.2334	0.5363	-0.4213	0.6442	0.3461
11.19	-9.4438	-0.0704	-1.7998	0.0050	-0.0097	0.0094	26.3448	-10.3258	9.1493	0.5364	-0.4213	0.6443	0.3461
11.2	-9.4487	-0.0785	-1.8087	0.0018	-0.0038	0.0086	26.1150	-10.2864	9.1268	0.5363	-0.4213	0.6443	0.3461
11.21	-9.4308	-0.0795	-1.8043	0.0026	-0.0047	0.0074	26.3157	-10.3646	9.2558	0.5363	-0.4213	0.6442	0.3460
11.22	-9.4377	-0.0825	-1.8074	0.0014	-0.0048	0.0028	26.0744	-10.3340	8.9383	0.5364	-0.4214	0.6443	0.3460
11.23	-9.4448	-0.0836	-1.8099	-0.0035	-0.0018	0.0081	26.0251	-10.3491	8.9795	0.5363	-0.4214	0.6443	0.3460
11.24	-9.4436	-0.0842	-1.8098	0.0013	-0.0090	0.0098	26.0783	-10.5644	9.2355	0.5363	-0.4214	0.6443	0.3460
11.25	-9.4367	-0.0789	-1.8069	0.0027	-0.0079	0.0064	26.2080	-10.2243	9.0794	0.5363	-0.4214	0.6442	0.3460
11.26	-9.4478	-0.0776	-1.8186	0.0088	-0.0028	0.0093	26.3837	-10.1990	9.2352	0.5363	-0.4215	0.6443	0.3460
11.27	-9.4394	-0.0783	-1.8085	0.0071	-0.0097	0.0139	26.3361	-10.5520	8.9647	0.5363	-0.4214	0.6443	0.3460
11.28	-9.4318	-0.0708	-1.8079	0.0044	-0.0110	0.0128	26.4374	-10.4580	8.9844	0.5363	-0.4214	0.6443	0.3460
11.29	-9.4428	-0.0638	-1.8147	0.0049	-0.0066	0.0102	26.3625	-10.6276	9.1631	0.5363	-0.4214	0.6443	0.3460
11.3	-9.4413	-0.0550	-1.8154	0.0021	-0.0053	0.0097	26.4492	-10.6556	8.9432	0.5363	-0.4214	0.6443	0.3459
11.31	-9.4418	-0.0490	-1.8139	0.0003	-0.0046	0.0077	26.2799	-10.5083	9.2007	0.5363	-0.4215	0.6443	0.3459
11.32	-9.4453	-0.0483	-1.8102	0.0037	-0.0084	0.0089	26.5721	-10.4913	9.1230	0.5362	-0.4214	0.6442	0.3459
11.33	-9.4418	-0.0497	-1.8180	0.0053	-0.0079	0.0084	26.2587	-10.5146	8.9121	0.5363	-0.4215	0.6443	0.3459
11.34	-9.4356	-0.0571	-1.8093	0.0043	-0.0140	0.0107	26.2490	-10.4854	9.0829	0.5363	-0.4215	0.6443	0.3459
11.35	-9.4369	-0.0662	-1.8038	0.0020	-0.0072	0.0069	26.4378	-10.5742	9.2136	0.5363	-0.4215	0.6443	0.3459
11.36	-9.4478	-0.0708	-1.8033	0.0047	-0.0111	0.0104	26.0487	-10.6020	9.0949	0.5363	-0.4215	0.6443	0.3459
11.37	-9.4431	-0.0759	-1.7985	0.0075	-0.0078	0.0132	26.2868	-10.4619	9.0194	0.5363	-0.4215	0.6443	0.3459
11.38	-9.4418	-0.0781	-1.7954	0.0051	-0.0051	0.0117	26.2172	-10.3735	9.1817	0.5363	-0.4215	0.6443	0.3459
11.39	-9.4419	-0.0674	-1.7883	0.0018	-0.0017	0.0086	26.1767	-10.2593	9.2824	0.5362	-0.4215	0.6443	0.3458
11.4	-9.4421	-0.0648	-1.7866	0.0031	-0.0117	0.0105	26.1984	-10.1570	9.1673	0.5363	-0.4215	0.6443	0.3459
11.41	-9.4358	-0.0650	-1.7807	0.0046	-0.0050	0.0068	26.2026	-10.3396	9.0756	0.5363	-0.4215	0.6443	0.3458
11.42	-9.4365	-0.0694	-1.7816	0.0042	-0.0058	0.0095	26.3876	-10.3152	9.1427	0.5363	-0.4216	0.6444	0.3459
11.43	-9.4411	-0.0700	-1.7856	-0.0019	-0.0088	0.0131	26.2514	-10.4532	8.9929	0.5362	-0.4215	0.6443	0.3458
11.44	-9.4416	-0.0715	-1.7822	0.0055	-0.0049	0.0094	26.2068	-10.3710	9.0601	0.5362	-0.4216	0.6443	0.3458
11.45	-9.4447	-0.0729	-1.7848	0.0030	-0.0144	0.0114	26.3160	-10.3839	9.2856	0.5362	-0.4216	0.6443	0.3458
11.46	-9.4407	-0.0733	-1.7884	0.0103	-0.0129	0.0158	26.4663	-10.4188	8.9963	0.5362	-0.4215	0.6443	0.3458
11.47	-9.4388	-0.0711	-1.7946	0.0045	-0.0118	0.0133	26.3075	-10.5322	9.0593	0.5363	-0.4215	0.6444	0.3459
11.48	-9.4369	-0.0698	-1.7958	-0.0011	-0.0100	0.0142	26.4509	-10.4418	9.0979	0.5362	-0.4215	0.6443	0.3459
11.49	-9.4449	-0.0763	-1.8004	-0.0009	-0.0111	0.0077	26.2994	-10.4732	8.9820	0.5363	-0.4215	0.6443	0.3459
