time	acceleration_x	acceleration_y	acceleration_z	gyroscope_x	gyroscope_y	gyroscope_z	magnetometer_x	magnetometer_y	magnetometer_z	quaternion_w	quaternion_x	quaternion_y	quaternion_z
0	-9.6045	-0.3513	-1.3100	0.0089	-0.0119	0.0111	45.1329	-5.7947	3.2213	0.4039	-0.6088	0.4416	0.5209
0.01	-9.6062	-0.3594	-1.2994	0.0058	-0.0073	0.0146	45.1723	-5.6104	3.1876	0.4039	-0.6087	0.4416	0.5209
0.02	-9.6083	-0.3628	-1.3185	0.0030	-0.0155	0.0083	45.1190	-5.6790	3.2854	0.4039	-0.6088	0.4415	0.5209
0.03	-9.6160	-0.3537	-1.3178	0.0051	-0.0061	0.0135	45.2049	-5.8013	3.2370	0.4038	-0.6088	0.4415	0.5209
0.04	-9.6201	-0.3505	-1.3311	0.0027	-0.0068	0.0124	45.2609	-5.5402	3.2680	0.4038	-0.6088	0.4415	0.5209
0.05	-9.6166	-0.3453	-1.3545	0.0044	-0.0113	0.0159	45.3724	-5.9136	3.2505	0.4038	-0.6088	0.4415	0.5209
0.06	-9.6115	-0.3379	-1.3440	0.0073	-0.0153	0.0156	45.4614	-5.9499	3.2787	0.4037	-0.6088	0.4415	0.5209
0.07	-9.6271	-0.3364	-1.3519	0.0177	-0.0135	0.0118	45.4192	-5.9478	3.3510	0.4038	-0.6088	0.4415	0.5210
0.08	-9.6169	-0.3386	-1.3380	0.0074	-0.0109	0.0147	45.4301	-5.7705	3.2229	0.4038	-0.6088	0.4415	0.5209
0.09	-9.6188	-0.3352	-1.3301	0.0113	-0.0125	0.0103	45.4956	-5.8755	3.0848	0.4038	-0.6089	0.4415	0.5210
0.1	-9.6145	-0.3304	-1.3225	0.0113	-0.0125	0.0135	45.5396	-6.1405	3.1122	0.4037	-0.6088	0.4415	0.5209
0.11	-9.6099	-0.3236	-1.3172	0.0091	-0.0130	0.0112	45.4864	-6.0876	3.2979	0.4037	-0.6089	0.4415	0.5210
0.12	-9.6057	-0.3151	-1.3179	0.0031	-0.0085	0.0096	45.5826	-5.9320	3.2965	0.4037	-0.6089	0.4414	0.5210
0.13	-9.6076	-0.3151	-1.3072	-0.0002	-0.0086	0.0062	45.8512	-5.6763	3.4537	0.4037	-0.6089	0.4414	0.5210
0.14	-9.6088	-0.3180	-1.3078	0.0067	-0.0155	0.0032	45.8164	-5.6769	3.4501	0.4037	-0.6090	0.4414	0.5210
0.15	-9.6080	-0.3178	-1.2892	-0.0014	-0.0112	0.0163	45.5037	-5.7719	3.3894	0.4037	-0.6090	0.4413	0.5210
0.16	-9.6120	-0.3098	-1.2832	0.0087	-0.0080	0.0157	45.2613	-5.7910	3.3922	0.4037	-0.6090	0.4414	0.5210
0.17	-9.6045	-0.3232	-1.2905	0.0097	-0.0093	0.0140	45.1702	-5.9625	3.2215	0.4036	-0.6089	0.4413	0.5210
0.18	-9.6044	-0.3299	-1.2756	0.0057	-0.0121	0.0165	45.4383	-6.0137	3.1694	0.4036	-0.6090	0.4414	0.5210
0.19	-9.6077	-0.3284	-1.2810	0.0143	-0.0124	0.0172	45.2778	-6.0373	3.2749	0.4036	-0.6090	0.4414	0.5210
0.2	-9.6072	-0.3402	-1.2771	0.0093	-0.0147	0.0156	45.2935	-5.8827	3.2419	0.4036	-0.6089	0.4414	0.5210
0.21	-9.6054	-0.3436	-1.2753	0.0087	-0.0139	0.0102	45.2470	-5.7299	3.1355	0.4036	-0.6090	0.4414	0.5211
0.22	-9.6056	-0.3375	-1.2837	0.0143	-0.0084	0.0126	45.4720	-5.7983	3.3171	0.4036	-0.6089	0.4414	0.5210
0.23	-9.6128	-0.3315	-1.2846	0.0067	-0.0147	0.0179	45.4738	-5.9048	3.2888	0.4036	-0.6090	0.4414	0.5211
0.24	-9.6165	-0.3442	-1.2826	0.0106	-0.0170	0.0146	45.4297	-5.9595	3.2258	0.4036	-0.6089	0.4413	0.5210
0.25	-9.6150	-0.3383	-1.2896	0.0102	-0.0171	0.0141	45.5156	-5.7814	3.1605	0.4036	-0.6089	0.4414	0.5211
0.26	-9.6082	-0.3381	-1.2763	0.0163	-0.0129	0.0113	45.4515	-5.9437	3.1494	0.4036	-0.6089	0.4414	0.5211
0.27	-9.6081	-0.3354	-1.2915	0.0175	-0.0119	0.0081	45.5647	-5.8195	3.1796	0.4037	-0.6089	0.4414	0.5211
0.28	-9.5980	-0.3254	-1.2912	0.0198	-0.0119	0.0135	45.4177	-5.9749	3.1300	0.4037	-0.6089	0.4414	0.5210
0.29	-9.6137	-0.3193	-1.2965	0.0212	-0.0098	0.0127	45.4475	-6.0572	3.2263	0.4037	-0.6089	0.4414	0.5210
0.3	-9.6231	-0.3091	-1.2991	0.0179	-0.0077	0.0094	45.4506	-5.7130	3.1902	0.4037	-0.6089	0.4415	0.5210
0.31	-9.6178	-0.3040	-1.2874	0.0165	-0.0055	0.0119	45.3621	-5.7894	3.1475	0.4037	-0.6088	0.4414	0.5209
0.32	-9.6033	-0.3053	-1.2958	0.0194	-0.0087	0.0160	45.3595	-5.6637	3.1366	0.4038	-0.6089	0.4415	0.5209
0.33	-9.6192	-0.2941	-1.3038	0.0101	-0.0153	0.0131	45.5030	-5.8036	3.0669	0.4037	-0.6088	0.4415	0.5209
0.34	-9.6122	-0.2998	-1.3105	0.0132	-0.0134	0.0164	45.5416	-5.7257	3.2687	0.4038	-0.6089	0.4416	0.5210
0.35	-9.6026	-0.2978	-1.3111	0.0236	-0.0159	0.0120	45.4299	-5.8608	3.1559	0.4038	-0.6088	0.4415	0.5209
0.36	-9.6154	-0.3025	-1.3045	0.0108	-0.0117	0.0097	45.3390	-6.0578	3.1428	0.4038	-0.6088	0.4416	0.5209
0.37	-9.6163	-0.3052	-1.3121	0.0024	-0.0033	0.0128	45.4024	-5.7776	3.2182	0.4038	-0.6088	0.4416	0.5209
0.38	-9.6083	-0.3242	-1.3123	0.0079	-0.0081	0.0151	45.4785	-5.7733	3.2480	0.4037	-0.6088	0.4415	0.5209
0.39	-9.6060	-0.3332	-1.3033	0.0164	-0.0110	0.0144	45.3023	-5.6482	3.2455	0.4038	-0.6089	0.4416	0.5209
0.4	-9.6059	-0.3358	-1.3023	0.0133	-0.0076	0.0152	45.1899	-5.6254	3.4809	0.4037	-0.6088	0.4416	0.5208
0.41	-9.6179	-0.3499	-1.3072	0.0092	-0.0029	0.0139	45.3517	-5.9387	3.3015	0.4037	-0.6089	0.4417	0.5209
0.42	-9.6142	-0.3505	-1.3032	0.0145	-0.0078	0.0133	45.4468	-5.9266	3.0316	0.4037	-0.6088	0.4416	0.5208
0.43	-9.6126	-0.3403	-1.3047	0.0153	-0.0102	0.0158	45.6285	-5.9182	3.2347	0.4037	-0.6089	0.4417	0.5208
0.44	-9.6105	-0.3384	-1.3018	0.0187	-0.0128	0.0164	45.2956	-5.9417	3.2019	0.4037	-0.6088	0.4417	0.5208
0.45	-9.6060	-0.3299	-1.3038	0.0170	-0.0130	0.0142	45.5282	-5.9057	3.1382	0.4037	-0.6088	0.4417	0.5208
0.46	-9.6072	-0.3280	-1.3071	0.0161	-0.0095	0.0121	45.5155	-5.9614	3.2585	0.4037	-0.6088	0.4417	0.5208
0.47	-9.6100	-0.3158	-1.3077	0.0092	-0.0084	0.0145	45.4112	-5.8539	3.3962	0.4037	-0.6088	0.4417	0.5208
0.48	-9.6146	-0.3163	-1.3049	0.0154	-0.0176	0.0140	45.4550	-5.7243	3.1716	0.4038	-0.6088	0.4417	0.5208
0.49	-9.6029	-0.3118	-1.3103	0.0105	-0.0144	0.0124	45.4310	-5.8468	3.2316	0.4037	-0.6087	0.4417	0.5208
0.5	-9.6203	-0.3351	-1.3226	0.0046	-0.0094	0.0124	45.3447	-5.7764	3.3450	0.4037	-0.6088	0.4417	0.5208
0.51	-9.6246	-0.3304	-1.3170	0.0138	-0.0072	0.0170	45.3778	-5.8487	3.1938	0.4037	-0.6088	0.4417	0.5208
0.52	-9.6090	-0.3286	-1.3181	0.0056	-0.0147	0.0114	45.5412	-5.9141	3.3271	0.4037	-0.6088	0.4417	0.5208
0.53	-9.6091	-0.3327	-1.3209	0.0109	-0.0090	0.0178	45.4918	-5.9253	3.4472	0.4037	-0.6088	0.4417	0.5208
0.54	-9.6086	-0.3301	-1.3263	0.0004	-0.0081	0.0122	45.2176	-5.7265	3.2538	0.4037	-0.6088	0.4417	0.5208
0.55	-9.6094	-0.3299	-1.3113	0.0054	-0.0076	0.0108	45.3368	-5.7780	3.2784	0.4037	-0.6089	0.4417	0.5208
0.56	-9.6031	-0.3316	-1.2933	0.0039	-0.0087	0.0186	45.3902	-5.7680	3.4320	0.4036	-0.6088	0.4417	0.5208
0.57	-9.6139	-0.3331	-1.3087	0.0003	-0.0124	0.0151	45.2006	-5.7448	3.3166	0.4036	-0.6089	0.4417	0.5209
0.58	-9.6161	-0.3328	-1.2881	0.0199	-0.0154	0.0174	45.1624	-5.9779	3.3054	0.4036	-0.6088	0.4417	0.5208
0.59	-9.6003	-0.3124	-1.2823	0.0138	-0.0087	0.0132	45.5895	-5.9640	3.1977	0.4036	-0.6089	0.4418	0.5209
0.6	-9.6155	-0.3008	-1.2873	0.0099	-0.0088	0.0140	45.3179	-5.8428	3.4627	0.4036	-0.6088	0.4417	0.5208
0.61	-9.6073	-0.3117	-1.2782	0.0140	-0.0072	0.0126	45.3742	-5.8121	3.1430	0.4036	-0.6089	0.4418	0.5208
0.62	-9.6054	-0.3020	-1.2802	0.0162	-0.0124	0.0133	45.3641	-5.6176	3.2130	0.4036	-0.6089	0.4418	0.5208
0.63	-9.6039	-0.2965	-1.2752	0.0101	-0.0103	0.0119	45.6170	-5.7782	3.2521	0.4036	-0.6088	0.4418	0.5208
0.64	-9.6095	-0.3093	-1.2797	0.0120	-0.0144	0.0123	45.5834	-5.7483	3.2524	0.4036	-0.6089	0.4418	0.5208
0.65	-9.6078	-0.3203	-1.2804	0.0134	-0.0134	0.0098	45.5632	-5.9779	3.3511	0.4036	-0.6088	0.4418	0.5208
0.66	-9.6055	-0.3217	-1.2989	0.0066	-0.0076	0.0064	45.3628	-5.9209	3.4138	0.4036	-0.6089	0.4418	0.5208
0.67	-9.6129	-0.3270	-1.3046	0.0045	-0.0086	0.0091	45.2069	-5.8893	3.2225	0.4036	-0.6089	0.4417	0.5207
0.68	-9.6096	-0.3268	-1.3019	0.0046	-0.0060	0.0073	45.3893	-5.7432	2.9407	0.4036	-0.6090	0.4418	0.5208
0.69	-9.6164	-0.3217	-1.3022	0.0100	-0.0093	0.0089	45.2725	-5.6850	3.1518	0.4036	-0.6090	0.4417	0.5207
0.7	-9.6112	-0.3248	-1.3014	0.0077	-0.0085	0.0108	45.1755	-5.7225	3.1649	0.4036	-0.6090	0.4417	0.5207
0.71	-9.6108	-0.3270	-1.3130	0.0121	-0.0076	0.0034	45.1511	-5.6046	3.1191	0.4036	-0.6090	0.4417	0.5207
0.72	-9.6099	-0.3195	-1.3128	0.0109	-0.0016	0.0095	45.1959	-5.6336	3.0912	0.4036	-0.6090	0.4417	0.5206
0.73	-9.5979	-0.3156	-1.3177	0.0074	-0.0079	0.0106	45.3013	-5.6011	3.3467	0.4036	-0.6091	0.4417	0.5206
0.74	-9.6118	-0.3240	-1.3256	0.0029	-0.0072	0.0144	45.3658	-5.7037	2.9294	0.4035	-0.6090	0.4417	0.5206
0.75	-9.6245	-0.3315	-1.3144	0.0123	-0.0130	0.0126	45.1740	-5.7009	3.1226	0.4036	-0.6091	0.4417	0.5206
0.76	-9.6100	-0.3275	-1.3186	0.0125	-0.0074	0.0079	45.2442	-6.0200	3.3035	0.4036	-0.6091	0.4417	0.5206
0.77	-9.6058	-0.3335	-1.3088	0.0102	-0.0134	0.0104	45.3703	-5.9783	3.1640	0.4036	-0.6091	0.4417	0.5206
0.78	-9.6131	-0.3345	-1.3129	0.0065	-0.0143	0.0122	45.2287	-5.8512	3.0688	0.4036	-0.6091	0.4417	0.5206
0.79	-9.6101	-0.3345	-1.3134	0.0068	-0.0113	0.0129	45.3548	-5.8646	3.1834	0.4036	-0.6091	0.4417	0.5206
0.8	-9.6062	-0.3131	-1.2989	0.0157	-0.0165	0.0145	45.3340	-5.8851	3.1415	0.4036	-0.6091	0.4417	0.5206
0.81	-9.6097	-0.3061	-1.3076	0.0101	-0.0125	0.0138	45.5870	-5.7686	3.2406	0.4036	-0.6090	0.4417	0.5206
0.82	-9.6037	-0.3053	-1.2922	0.0015	-0.0079	0.0124	45.5529	-5.7962	3.2719	0.4036	-0.6091	0.4417	0.5207
0.83	-9.6164	-0.3137	-1.2982	0.0021	-0.0115	0.0095	45.4528	-6.0132	3.2046	0.4035	-0.6091	0.4416	0.5206
0.84	-9.6164	-0.3286	-1.2845	0.0009	-0.0117	0.0135	45.5624	-5.8461	3.1507	0.4035	-0.6092	0.4417	0.5207
0.85	-9.6126	-0.3292	-1.2794	-0.0025	-0.0074	0.0075	45.5937	-5.8795	3.1680	0.4034	-0.6092	0.4415	0.5207
0.86	-9.6115	-0.3435	-1.2762	-0.0038	-0.0060	0.0025	45.0961	-5.7285	3.1612	0.4034	-0.6093	0.4415	0.5207
0.87	-9.6027	-0.3610	-1.2764	0.0048	-0.0109	0.0091	45.1505	-5.7326	3.2896	0.4034	-0.6093	0.4415	0.5207
0.88	-9.6115	-0.3524	-1.2836	0.0024	-0.0142	0.0149	45.4168	-5.8775	3.1479	0.4033	-0.6093	0.4414	0.5207
0.89	-9.6061	-0.3428	-1.2743	0.0100	-0.0156	0.0119	45.5063	-5.8579	3.0839	0.4034	-0.6094	0.4415	0.5208
0.9	-9.6053	-0.3324	-1.2713	0.0071	-0.0094	0.0113	45.5934	-5.8602	3.1830	0.4033	-0.6093	0.4414	0.5207
0.91	-9.6177	-0.3167	-1.2742	0.0101	-0.0037	0.0129	45.3193	-5.8692	3.1572	0.4033	-0.6094	0.4414	0.5208
0.92	-9.5958	-0.3092	-1.2714	0.0092	-0.0089	0.0120	45.4146	-5.8609	3.1577	0.4033	-0.6093	0.4414	0.5207
0.93	-9.6190	-0.2966	-1.2823	0.0163	-0.0065	0.0066	45.2945	-5.7728	3.0627	0.4033	-0.6094	0.4414	0.5207
0.94	-9.6228	-0.2998	-1.2978	0.0207	-0.0082	0.0074	45.2325	-5.9366	3.2128	0.4034	-0.6094	0.4415	0.5206
0.95	-9.6143	-0.3049	-1.3023	0.0092	-0.0064	0.0073	45.2477	-5.6912	3.0528	0.4034	-0.6094	0.4414	0.5206
0.96	-9.6123	-0.3048	-1.3018	-0.0005	-0.0076	0.0037	45.3374	-5.7944	3.0773	0.4034	-0.6095	0.4414	0.5206
0.97	-9.6029	-0.3153	-1.3144	0.0052	-0.0075	0.0055	45.3248	-5.8912	3.1946	0.4034	-0.6095	0.4414	0.5206
0.98	-9.6189	-0.3112	-1.3248	0.0034	-0.0041	0.0065	45.3339	-5.6498	3.0886	0.4034	-0.6096	0.4414	0.5206
0.99	-9.6115	-0.3195	-1.3149	0.0100	-0.0111	0.0107	45.3150	-5.8831	3.0495	0.4033	-0.6095	0.4413	0.5205
1	-9.6115	-0.3286	-1.3160	0.0192	-0.0131	0.0063	45.4488	-6.0379	3.1108	0.4034	-0.6096	0.4414	0.5205
1.01	-9.6245	-0.3253	-1.3149	0.0146	-0.0106	0.0157	45.4887	-5.9134	3.1772	0.4034	-0.6095	0.4414	0.5205
1.02	-9.6134	-0.3323	-1.3135	0.0159	-0.0060	0.0134	45.2828	-5.9695	3.1556	0.4034	-0.6096	0.4414	0.5205
1.03	-9.6089	-0.3368	-1.3108	0.0152	-0.0085	0.0099	45.5306	-5.8566	3.2449	0.4034	-0.6095	0.4414	0.5205
1.04	-9.6123	-0.3372	-1.2998	0.0110	-0.0081	0.0091	45.4325	-5.8440	3.1589	0.4034	-0.6096	0.4414	0.5205
1.05	-9.6104	-0.3319	-1.3057	0.0117	-0.0037	0.0069	45.4476	-5.7447	3.1145	0.4034	-0.6096	0.4414	0.5204
1.06	-9.6113	-0.3364	-1.3063	0.0152	-0.0149	0.0117	45.5196	-5.8649	2.9766	0.4034	-0.6096	0.4413	0.5204
1.07	-9.6178	-0.3429	-1.2950	0.0146	-0.0135	0.0100	45.3783	-5.8736	3.1751	0.4034	-0.6096	0.4414	0.5204
1.08	-9.6107	-0.3462	-1.2776	0.0064	-0.0138	0.0122	45.2901	-5.9759	3.1904	0.4034	-0.6096	0.4414	0.5204
1.09	-9.6108	-0.3407	-1.2804	0.0071	-0.0022	0.0033	45.2125	-5.6840	3.0446	0.4034	-0.6097	0.4414	0.5204
1.1	-9.6108	-0.3365	-1.2834	0.0054	-0.0045	0.0059	45.3675	-5.7995	3.1967	0.4034	-0.6097	0.4413	0.5203
1.11	-9.6124	-0.3337	-1.2788	0.0058	-0.0035	0.0049	45.1572	-5.7620	3.1848	0.4034	-0.6097	0.4413	0.5203
1.12	-9.6121	-0.3272	-1.2842	0.0172	-0.0010	0.0045	45.1030	-5.6839	3.0803	0.4034	-0.6098	0.4413	0.5203
1.13	-9.6019	-0.3236	-1.2918	0.0114	-0.0009	0.0063	45.5664	-5.7088	3.4785	0.4034	-0.6098	0.4413	0.5202
1.14	-9.6072	-0.3339	-1.3005	0.0097	-0.0059	0.0059	45.6693	-5.6851	3.3913	0.4034	-0.6099	0.4414	0.5202
1.15	-9.6063	-0.3316	-1.3070	0.0101	-0.0127	0.0148	45.3824	-5.7273	3.2631	0.4034	-0.6098	0.4413	0.5202
1.16	-9.6061	-0.3306	-1.3138	0.0176	-0.0121	0.0154	45.3887	-5.8110	3.2425	0.4035	-0.6098	0.4414	0.5202
1.17	-9.6065	-0.3322	-1.3171	0.0177	-0.0113	0.0128	45.2805	-5.7856	2.9504	0.4034	-0.6097	0.4413	0.5201
1.18	-9.6042	-0.3243	-1.3113	0.0244	-0.0096	0.0149	45.1224	-5.7874	3.1226	0.4035	-0.6098	0.4414	0.5201
1.19	-9.6121	-0.3264	-1.3209	0.0144	-0.0104	0.0177	45.5634	-5.7463	3.3369	0.4035	-0.6097	0.4414	0.5201
1.2	-9.6132	-0.3320	-1.3188	0.0160	-0.0152	0.0143	45.4180	-5.8571	3.3615	0.4035	-0.6097	0.4415	0.5201
1.21	-9.6128	-0.3128	-1.3143	0.0187	-0.0072	0.0140	45.5697	-5.8374	3.1386	0.4035	-0.6097	0.4415	0.5201
1.22	-9.6149	-0.3199	-1.3101	0.0142	-0.0076	0.0135	45.4631	-6.0140	3.2008	0.4035	-0.6097	0.4415	0.5201
1.23	-9.6055	-0.3228	-1.3114	0.0160	-0.0165	0.0103	45.3184	-5.9603	3.3002	0.4035	-0.6097	0.4415	0.5201
1.24	-9.6071	-0.3229	-1.3040	0.0127	-0.0150	0.0072	45.4649	-5.9442	3.1456	0.4035	-0.6097	0.4414	0.5201
1.25	-9.6094	-0.3212	-1.3076	0.0191	-0.0150	0.0126	45.4476	-5.8021	3.0888	0.4036	-0.6097	0.4415	0.5201
1.26	-9.6131	-0.3102	-1.3089	0.0089	-0.0132	0.0113	45.4407	-5.6690	3.3463	0.4036	-0.6097	0.4414	0.5201
1.27	-9.6200	-0.3200	-1.3138	0.0110	-0.0127	0.0105	45.4610	-5.8991	3.3342	0.4036	-0.6097	0.4414	0.5201
1.28	-9.6086	-0.3209	-1.3131	0.0143	-0.0098	0.0128	45.3415	-5.7391	3.3490	0.4036	-0.6097	0.4414	0.5201
1.29	-9.6090	-0.3253	-1.3067	0.0175	-0.0128	0.0179	45.3994	-5.8091	3.1951	0.4036	-0.6097	0.4415	0.5201
1.3	-9.6122	-0.3255	-1.3065	0.0198	-0.0098	0.0096	45.4694	-5.8807	3.1544	0.4036	-0.6097	0.4415	0.5201
1.31	-9.6005	-0.3357	-1.2863	0.0132	-0.0084	0.0110	45.4344	-5.7760	3.2260	0.4036	-0.6096	0.4414	0.5200
1.32	-9.6205	-0.3313	-1.3023	0.0174	-0.0106	0.0154	45.4494	-5.6646	3.3961	0.4037	-0.6097	0.4415	0.5201
1.33	-9.6119	-0.3353	-1.3149	0.0145	-0.0134	0.0098	45.4437	-5.7271	3.2302	0.4037	-0.6096	0.4415	0.5200
1.34	-9.6023	-0.3407	-1.3042	0.0172	-0.0146	0.0114	45.4543	-5.8034	3.1473	0.4037	-0.6097	0.4416	0.5201
1.35	-9.6155	-0.3374	-1.3061	0.0188	-0.0138	0.0120	45.4479	-5.7307	3.1603	0.4037	-0.6096	0.4415	0.5200
1.36	-9.6099	-0.3408	-1.3054	0.0184	-0.0153	0.0148	45.4466	-5.9441	3.0844	0.4038	-0.6096	0.4416	0.5200
1.37	-9.6090	-0.3412	-1.3089	0.0205	-0.0140	0.0120	45.4754	-5.8535	3.1990	0.4038	-0.6096	0.4416	0.5200
1.38	-9.6140	-0.3282	-1.3092	0.0133	-0.0147	0.0170	45.6374	-5.9405	3.1598	0.4038	-0.6095	0.4415	0.5200
1.39	-9.6064	-0.3202	-1.3060	0.0135	-0.0147	0.0157	45.4938	-5.8966	3.1727	0.4038	-0.6096	0.4416	0.5201
1.4	-9.6034	-0.3170	-1.2950	0.0153	-0.0102	0.0123	45.5934	-5.9131	3.0420	0.4038	-0.6095	0.4415	0.5201
1.41	-9.6165	-0.3264	-1.3035	0.0035	-0.0081	0.0099	45.5695	-6.0186	3.1528	0.4037	-0.6096	0.4415	0.5201
1.42	-9.6168	-0.3303	-1.3184	0.0166	-0.0080	0.0128	45.4983	-5.8020	3.2648	0.4037	-0.6096	0.4415	0.5200
1.43	-9.6059	-0.3327	-1.3047	0.0178	-0.0079	0.0160	45.5526	-5.9910	3.2515	0.4037	-0.6096	0.4415	0.5201
1.44	-9.6241	-0.3344	-1.3114	0.0230	-0.0119	0.0128	45.3316	-5.8713	3.0953	0.4037	-0.6096	0.4415	0.5201
1.45	-9.6095	-0.3291	-1.2978	0.0166	-0.0109	0.0124	45.2510	-5.8479	3.0551	0.4038	-0.6095	0.4415	0.5200
1.46	-9.6158	-0.3121	-1.2972	0.0155	-0.0095	0.0116	45.5665	-5.8697	3.1902	0.4038	-0.6096	0.4416	0.5200
1.47	-9.6192	-0.3229	-1.2865	0.0184	-0.0159	0.0142	45.6378	-5.5710	3.2763	0.4038	-0.6095	0.4416	0.5200
1.48	-9.6056	-0.3144	-1.2771	0.0169	-0.0143	0.0153	45.7294	-5.9135	3.2132	0.4038	-0.6095	0.4416	0.5201
1.49	-9.6135	-0.3194	-1.2846	0.0155	-0.0191	0.0133	45.5294	-5.8645	3.0542	0.4038	-0.6095	0.4415	0.5200
1.5	-9.6154	-0.3186	-1.2897	0.0156	-0.0094	0.0126	45.5114	-5.6616	3.2089	0.4038	-0.6095	0.4416	0.5201
1.51	-9.6136	-0.3234	-1.2937	0.0121	-0.0063	0.0154	45.2709	-5.8178	3.2536	0.4038	-0.6095	0.4416	0.5200
1.52	-9.6080	-0.3235	-1.3033	0.0170	-0.0108	0.0139	45.3482	-5.7523	3.2634	0.4039	-0.6095	0.4416	0.5200
1.53	-9.6017	-0.3301	-1.2830	0.0178	-0.0092	0.0170	45.3891	-5.7805	3.1447	0.4038	-0.6094	0.4416	0.5200
1.54	-9.6150	-0.3404	-1.2922	0.0186	-0.0078	0.0100	45.4508	-5.8941	3.0705	0.4039	-0.6095	0.4416	0.5200
1.55	-9.6176	-0.3440	-1.2814	0.0202	-0.0077	0.0101	45.3000	-5.9382	3.0661	0.4039	-0.6095	0.4417	0.5200
1.56	-9.6115	-0.3287	-1.2788	0.0194	-0.0095	0.0166	45.2686	-5.7111	3.1592	0.4039	-0.6094	0.4417	0.5199
1.57	-9.6077	-0.3116	-1.2848	0.0157	-0.0117	0.0169	45.4048	-5.9460	3.1636	0.4039	-0.6094	0.4418	0.5200
1.58	-9.6085	-0.3038	-1.2842	0.0207	-0.0154	0.0146	45.7359	-5.9713	3.0490	0.4039	-0.6094	0.4417	0.5200
1.59	-9.6057	-0.2961	-1.2818	0.0199	-0.0092	0.0143	45.6044	-5.9753	3.1542	0.4040	-0.6094	0.4418	0.5200
1.6	-9.6159	-0.2960	-1.3037	0.0104	-0.0098	0.0128	45.6359	-6.1093	3.2881	0.4039	-0.6094	0.4417	0.5199
1.61	-9.6193	-0.3073	-1.3222	0.0148	-0.0118	0.0127	45.3349	-5.9087	3.1075	0.4039	-0.6094	0.4417	0.5200
1.62	-9.6074	-0.3274	-1.3392	0.0114	-0.0089	0.0122	45.5362	-5.9026	3.1025	0.4039	-0.6094	0.4417	0.5200
1.63	-9.6235	-0.3281	-1.3565	0.0124	-0.0118	0.0180	45.9097	-5.8118	3.2898	0.4039	-0.6094	0.4417	0.5199
1.64	-9.6069	-0.3430	-1.3607	0.0095	-0.0083	0.0054	45.7255	-5.9583	3.2394	0.4039	-0.6095	0.4418	0.5200
1.65	-9.6107	-0.3560	-1.3581	0.0046	-0.0061	0.0056	45.4813	-5.7162	3.2206	0.4039	-0.6095	0.4417	0.5200
1.66	-9.6134	-0.3628	-1.3484	0.0150	-0.0098	0.0045	45.2281	-5.7278	3.1819	0.4039	-0.6095	0.4417	0.5200
1.67	-9.6158	-0.3565	-1.3443	0.0078	-0.0101	0.0088	45.0632	-5.8222	3.1036	0.4039	-0.6094	0.4416	0.5199
1.68	-9.6111	-0.3393	-1.3393	0.0090	-0.0075	0.0056	45.2571	-5.8880	3.3859	0.4039	-0.6095	0.4417	0.5199
1.69	-9.6064	-0.3313	-1.3254	0.0044	-0.0106	0.0060	45.2257	-5.7123	3.2236	0.4039	-0.6095	0.4416	0.5199
1.7	-9.6079	-0.3126	-1.3188	0.0117	-0.0079	0.0091	45.4091	-5.7192	3.2476	0.4039	-0.6095	0.4416	0.5199
1.71	-9.6087	-0.3064	-1.3074	0.0089	-0.0084	0.0121	45.5173	-5.6056	3.1023	0.4039	-0.6096	0.4416	0.5199
1.72	-9.6079	-0.3120	-1.3044	0.0028	-0.0056	0.0109	45.1671	-5.5270	2.9272	0.4039	-0.6096	0.4416	0.5199
1.73	-9.6161	-0.3140	-1.3040	0.0145	-0.0119	0.0082	45.4133	-5.7674	3.1623	0.4039	-0.6096	0.4416	0.5199
1.74	-9.6105	-0.3141	-1.3027	0.0043	-0.0112	0.0124	45.4371	-5.8688	3.1193	0.4039	-0.6095	0.4416	0.5198
1.75	-9.6064	-0.3287	-1.2899	0.0115	-0.0167	0.0135	45.4049	-5.8901	3.2801	0.4039	-0.6096	0.4416	0.5199
1.76	-9.6283	-0.3396	-1.3057	0.0137	-0.0086	0.0068	45.4689	-5.8352	3.1475	0.4039	-0.6096	0.4416	0.5199
1.77	-9.6091	-0.3410	-1.2910	0.0075	-0.0141	0.0129	45.5486	-5.9682	2.9405	0.4039	-0.6096	0.4415	0.5199
1.78	-9.6014	-0.3444	-1.3054	0.0029	-0.0166	0.0122	45.3166	-5.9151	3.0808	0.4039	-0.6096	0.4415	0.5199
1.79	-9.6087	-0.3366	-1.3038	0.0151	-0.0116	0.0134	45.6013	-6.0449	3.0378	0.4039	-0.6096	0.4415	0.5200
1.8	-9.6164	-0.3397	-1.3063	0.0082	-0.0169	0.0151	45.7208	-6.0487	2.9366	0.4038	-0.6096	0.4414	0.5200
1.81	-9.6083	-0.3335	-1.3084	0.0070	-0.0085	0.0116	45.5687	-5.8247	3.0799	0.4038	-0.6096	0.4414	0.5200
1.82	-9.6059	-0.3246	-1.3061	0.0092	-0.0066	0.0054	45.4369	-5.9826	3.0310	0.4038	-0.6097	0.4414	0.5200
1.83	-9.6077	-0.3300	-1.3080	0.0086	-0.0060	0.0079	45.3662	-5.6753	3.1126	0.4038	-0.6097	0.4414	0.5200
1.84	-9.6029	-0.3299	-1.3045	0.0063	-0.0075	0.0084	45.1655	-5.7774	3.0939	0.4038	-0.6098	0.4414	0.5200
1.85	-9.6077	-0.3315	-1.3129	0.0115	-0.0054	0.0055	45.2730	-5.8944	2.9303	0.4038	-0.6097	0.4413	0.5199
1.86	-9.6165	-0.3296	-1.3195	0.0118	-0.0052	0.0090	45.1780	-5.7462	3.2227	0.4038	-0.6098	0.4414	0.5199
1.87	-9.6110	-0.3205	-1.3126	0.0074	-0.0124	0.0111	45.3267	-6.0472	3.2003	0.4038	-0.6098	0.4414	0.5199
1.88	-9.6170	-0.3247	-1.3170	0.0100	-0.0143	0.0164	45.4240	-5.9406	3.0321	0.4038	-0.6097	0.4413	0.5199
1.89	-9.6064	-0.3103	-1.3083	0.0133	-0.0136	0.0147	45.5122	-5.9934	3.1823	0.4038	-0.6098	0.4414	0.5200
1.9	-9.6063	-0.3245	-1.3142	0.0134	-0.0018	0.0125	45.5293	-5.9758	3.2385	0.4038	-0.6098	0.4414	0.5199
1.91	-9.6050	-0.3303	-1.3057	0.0115	0.0034	0.0139	45.4046	-5.8318	3.0353	0.4037	-0.6098	0.4414	0.5199
1.92	-9.6099	-0.3314	-1.3083	0.0081	-0.0088	0.0146	45.2316	-5.9011	3.0744	0.4037	-0.6098	0.4414	0.5199
1.93	-9.6139	-0.3379	-1.3002	0.0160	-0.0101	0.0131	45.3949	-5.5532	3.0110	0.4037	-0.6098	0.4414	0.5199
1.94	-9.6052	-0.3402	-1.2962	0.0163	-0.0113	0.0122	45.4502	-6.0035	2.9673	0.4037	-0.6098	0.4414	0.5199
1.95	-9.6211	-0.3174	-1.3065	0.0149	-0.0099	0.0158	45.4044	-6.0624	2.9494	0.4037	-0.6098	0.4415	0.5199
1.96	-9.6110	-0.3099	-1.2963	0.0142	-0.0101	0.0105	45.5492	-5.9248	3.1880	0.4037	-0.6098	0.4415	0.5199
1.97	-9.6081	-0.2920	-1.3027	0.0078	-0.0058	0.0086	45.4304	-5.8609	3.3492	0.4037	-0.6098	0.4414	0.5199
1.98	-9.6091	-0.2822	-1.2977	0.0028	-0.0122	0.0094	45.3035	-5.8768	3.1055	0.4037	-0.6099	0.4414	0.5199
1.99	-9.6088	-0.2902	-1.2984	0.0101	-0.0132	0.0113	45.4374	-5.8748	3.2350	0.4037	-0.6098	0.4414	0.5198
2	-9.6092	-0.3007	-1.2836	0.0099	-0.0079	0.0152	45.3240	-5.8643	3.4411	0.4037	-0.6098	0.4414	0.5199
2.01	-9.6046	-0.3110	-1.3006	0.0063	-0.0113	0.0071	45.3280	-5.9083	3.2070	0.4037	-0.6098	0.4414	0.5199
2.02	-9.6076	-0.3197	-1.3004	0.0010	-0.0109	0.0103	45.2005	-6.0070	3.0396	0.4037	-0.6099	0.4414	0.5199
2.03	-9.6052	-0.3380	-1.2966	0.0074	-0.0108	0.0088	45.5771	-5.7460	3.1501	0.4037	-0.6099	0.4413	0.5199
2.04	-9.6001	-0.3517	-1.3019	0.0103	-0.0082	0.0089	45.3059	-5.7109	3.1367	0.4037	-0.6099	0.4413	0.5199
2.05	-9.6115	-0.3506	-1.2990	0.0139	-0.0046	0.0106	45.1439	-5.6947	2.9327	0.4037	-0.6099	0.4414	0.5199
2.06	-9.6031	-0.3458	-1.3054	0.0070	-0.0039	0.0064	45.2144	-5.7940	3.0657	0.4036	-0.6099	0.4413	0.5198
2.07	-9.6130	-0.3515	-1.3066	0.0142	-0.0082	0.0069	45.1634	-5.8820	3.0206	0.4037	-0.6100	0.4414	0.5198
2.08	-9.6120	-0.3363	-1.2960	0.0123	-0.0078	0.0073	45.3732	-5.9001	2.8386	0.4037	-0.6100	0.4414	0.5198
2.09	-9.6103	-0.3324	-1.3057	-0.0010	-0.0132	0.0066	45.2644	-5.9968	3.1572	0.4037	-0.6100	0.4413	0.5198
2.1	-9.6081	-0.3318	-1.3102	0.0037	-0.0126	0.0119	45.3491	-5.8518	3.1305	0.4036	-0.6100	0.4413	0.5198
2.11	-9.6135	-0.3348	-1.3001	0.0027	-0.0128	0.0125	45.5412	-5.7747	3.2722	0.4036	-0.6100	0.4413	0.5199
2.12	-9.6088	-0.3340	-1.3165	0.0073	-0.0098	0.0126	45.5029	-5.9756	3.1758	0.4036	-0.6100	0.4412	0.5199
2.13	-9.6084	-0.3546	-1.3191	0.0042	-0.0071	0.0100	45.7513	-5.8108	3.4735	0.4036	-0.6100	0.4412	0.5198
2.14	-9.6050	-0.3733	-1.3191	0.0115	-0.0175	0.0148	45.8162	-5.6586	3.6305	0.4036	-0.6101	0.4413	0.5199
2.15	-9.6197	-0.3674	-1.3276	0.0137	-0.0172	0.0183	45.5897	-5.6738	3.2577	0.4036	-0.6100	0.4412	0.5199
2.16	-9.6134	-0.3714	-1.3138	0.0108	-0.0170	0.0136	45.4444	-5.7249	3.2568	0.4036	-0.6100	0.4413	0.5200
2.17	-9.6028	-0.3513	-1.3121	0.0153	-0.0099	0.0146	45.2110	-5.7123	3.3807	0.4036	-0.6099	0.4412	0.5199
2.18	-9.6111	-0.3246	-1.3125	0.0168	-0.0090	0.0172	45.3243	-5.9066	3.2151	0.4036	-0.6100	0.4413	0.5199
2.19	-9.6050	-0.3177	-1.3218	0.0043	-0.0129	0.0114	45.4771	-5.8071	3.0201	0.4036	-0.6099	0.4413	0.5199
2.2	-9.6061	-0.3232	-1.3117	0.0134	-0.0074	0.0162	45.3343	-5.7456	3.2872	0.4036	-0.6099	0.4413	0.5199
2.21	-9.6048	-0.3016	-1.2992	0.0122	-0.0075	0.0131	45.3463	-5.9055	3.1573	0.4036	-0.6099	0.4413	0.5199
2.22	-9.6104	-0.3040	-1.2936	0.0141	-0.0083	0.0091	45.3488	-5.9162	3.2292	0.4036	-0.6099	0.4413	0.5199
2.23	-9.6098	-0.3032	-1.2928	0.0106	-0.0110	0.0138	45.3327	-5.6521	3.0444	0.4036	-0.6100	0.4414	0.5199
2.24	-9.6048	-0.2973	-1.2868	0.0098	-0.0146	0.0050	45.4373	-5.8059	2.9840	0.4036	-0.6099	0.4413	0.5198
2.25	-9.6140	-0.3052	-1.2911	0.0199	-0.0200	0.0128	45.3195	-5.6497	3.1176	0.4037	-0.6099	0.4414	0.5199
2.26	-9.6086	-0.3104	-1.2864	0.0131	-0.0171	0.0159	45.2342	-5.6250	3.2330	0.4037	-0.6099	0.4413	0.5199
2.27	-9.6090	-0.3157	-1.2907	0.0195	-0.0097	0.0148	45.3319	-5.8385	3.0030	0.4037	-0.6098	0.4414	0.5199
2.28	-9.6110	-0.3238	-1.2928	0.0179	-0.0211	0.0152	45.4491	-5.9803	3.1137	0.4037	-0.6098	0.4414	0.5199
2.29	-9.6103	-0.3152	-1.2804	0.0136	-0.0183	0.0171	45.3988	-5.7686	3.3097	0.4038	-0.6097	0.4414	0.5199
2.3	-9.6048	-0.3123	-1.2978	0.0179	-0.0162	0.0147	45.4656	-5.6765	3.0628	0.4038	-0.6097	0.4414	0.5200
2.31	-9.6098	-0.3259	-1.3100	0.0192	-0.0146	0.0106	45.3095	-5.6879	3.1728	0.4038	-0.6096	0.4414	0.5199
2.32	-9.6127	-0.3165	-1.3106	0.0143	-0.0103	0.0173	45.3967	-5.8194	3.2997	0.4039	-0.6097	0.4415	0.5200
2.33	-9.6068	-0.3093	-1.3121	0.0148	-0.0116	0.0173	45.4851	-5.9734	3.3802	0.4038	-0.6096	0.4415	0.5199
2.34	-9.6170	-0.3249	-1.3126	0.0112	-0.0089	0.0167	45.2033	-5.7236	3.0880	0.4038	-0.6097	0.4416	0.5200
2.35	-9.6090	-0.3161	-1.3123	0.0093	-0.0076	0.0130	45.4651	-5.9815	3.1053	0.4038	-0.6096	0.4415	0.5199
2.36	-9.6101	-0.3183	-1.3140	0.0116	-0.0053	0.0128	45.4025	-6.0091	3.0910	0.4038	-0.6097	0.4415	0.5199
2.37	-9.6146	-0.3295	-1.3180	0.0139	-0.0125	0.0132	45.3008	-5.5695	3.1258	0.4038	-0.6096	0.4415	0.5199
2.38	-9.6027	-0.3419	-1.3159	0.0155	-0.0143	0.0164	45.4881	-5.7665	3.2791	0.4038	-0.6096	0.4415	0.5199
2.39	-9.6123	-0.3455	-1.3097	0.0130	-0.0144	0.0157	45.6143	-5.9580	3.2855	0.4038	-0.6096	0.4416	0.5200
2.4	-9.6114	-0.3425	-1.3161	0.0074	-0.0099	0.0194	45.3033	-5.9572	3.1117	0.4038	-0.6096	0.4416	0.5200
2.41	-9.6108	-0.3465	-1.3122	0.0160	-0.0087	0.0129	45.4799	-5.8758	3.1397	0.4038	-0.6096	0.4416	0.5200
2.42	-9.6090	-0.3331	-1.3099	0.0080	-0.0101	0.0124	45.5255	-5.8506	3.3064	0.4037	-0.6096	0.4415	0.5200
2.43	-9.6118	-0.3306	-1.3028	0.0095	-0.0057	0.0131	45.2811	-5.9600	3.1353	0.4037	-0.6096	0.4416	0.5200
2.44	-9.6039	-0.3291	-1.2980	0.0170	-0.0131	0.0117	45.2638	-5.8045	3.2508	0.4037	-0.6096	0.4416	0.5200
2.45	-9.6074	-0.3225	-1.3097	0.0180	-0.0056	0.0176	45.2529	-5.9764	3.2743	0.4037	-0.6096	0.4416	0.5199
2.46	-9.6077	-0.3163	-1.3118	0.0147	-0.0141	0.0097	45.3534	-5.8312	3.2794	0.4038	-0.6096	0.4417	0.5200
2.47	-9.6047	-0.3185	-1.2995	0.0125	-0.0139	0.0125	45.3405	-5.7761	3.2405	0.4038	-0.6095	0.4417	0.5199
2.48	-9.6062	-0.3129	-1.3072	0.0139	-0.0106	0.0159	45.3463	-5.7629	3.1411	0.4038	-0.6095	0.4417	0.5200
2.49	-9.6048	-0.3220	-1.3069	0.0160	-0.0144	0.0145	45.3415	-5.8728	3.2932	0.4038	-0.6094	0.4417	0.5199
2.5	-9.6050	-0.3315	-1.3067	0.0121	-0.0094	0.0129	45.3396	-5.8415	3.1487	0.4038	-0.6095	0.4417	0.5200
2.51	-9.6062	-0.3430	-1.3131	0.0136	-0.0148	0.0185	45.5152	-5.9157	3.0700	0.4038	-0.6095	0.4417	0.5200
2.52	-9.6083	-0.3445	-1.3234	0.0152	-0.0135	0.0179	45.4386	-5.9016	3.1794	0.4038	-0.6095	0.4418	0.5200
2.53	-9.6208	-0.3498	-1.3178	0.0194	-0.0206	0.0146	45.4164	-5.7505	3.1939	0.4038	-0.6094	0.4418	0.5200
2.54	-9.6184	-0.3450	-1.3116	0.0178	-0.0183	0.0157	45.5403	-5.6741	3.0444	0.4039	-0.6093	0.4418	0.5200
2.55	-9.6106	-0.3325	-1.3198	0.0116	-0.0081	0.0113	45.4632	-5.7230	3.1774	0.4039	-0.6094	0.4418	0.5200
2.56	-9.6112	-0.3097	-1.3085	0.0179	-0.0125	0.0167	45.3146	-5.5869	3.1653	0.4038	-0.6093	0.4418	0.5200
2.57	-9.6068	-0.3005	-1.3030	0.0179	-0.0120	0.0156	45.4715	-5.8385	3.2130	0.4039	-0.6093	0.4419	0.5200
2.58	-9.6054	-0.2973	-1.3084	0.0162	-0.0087	0.0153	45.4876	-5.9605	3.1189	0.4039	-0.6093	0.4419	0.5200
2.59	-9.6092	-0.2904	-1.3065	0.0066	-0.0076	0.0147	45.3686	-5.7367	3.1823	0.4039	-0.6093	0.4419	0.5200
2.6	-9.6121	-0.2942	-1.3055	0.0155	-0.0086	0.0109	45.1532	-5.9016	3.5136	0.4038	-0.6093	0.4419	0.5199
2.61	-9.6082	-0.2968	-1.2989	0.0228	-0.0081	0.0074	45.2061	-5.8227	3.1379	0.4039	-0.6093	0.4420	0.5199
2.62	-9.6050	-0.3197	-1.3094	0.0201	-0.0086	0.0118	45.3212	-5.7813	3.1171	0.4039	-0.6093	0.4420	0.5199
2.63	-9.6046	-0.3325	-1.2977	0.0177	-0.0125	0.0100	45.7332	-5.7055	3.2915	0.4039	-0.6092	0.4420	0.5198
2.64	-9.6125	-0.3327	-1.2893	0.0202	-0.0126	0.0140	45.9358	-5.5806	3.2721	0.4040	-0.6093	0.4421	0.5199
2.65	-9.6270	-0.3390	-1.2972	0.0144	-0.0129	0.0133	45.5374	-5.6543	3.0686	0.4040	-0.6092	0.4420	0.5199
2.66	-9.6109	-0.3330	-1.2994	0.0056	-0.0095	0.0112	45.3223	-5.7180	3.1406	0.4040	-0.6092	0.4421	0.5199
2.67	-9.6081	-0.3413	-1.3033	0.0055	-0.0071	0.0085	45.1700	-5.7031	3.2216	0.4040	-0.6092	0.4420	0.5198
2.68	-9.6162	-0.3400	-1.3007	0.0029	-0.0112	0.0098	45.3135	-5.8231	3.2162	0.4040	-0.6092	0.4420	0.5199
2.69	-9.6017	-0.3341	-1.2860	0.0157	-0.0121	0.0180	45.4108	-5.8538	3.2235	0.4040	-0.6092	0.4420	0.5199
2.7	-9.5991	-0.3401	-1.2878	0.0160	-0.0148	0.0154	45.4446	-5.9274	3.2306	0.4040	-0.6092	0.4421	0.5199
2.71	-9.6061	-0.3292	-1.2887	0.0098	-0.0114	0.0162	45.4290	-5.9455	3.2126	0.4040	-0.6092	0.4421	0.5199
2.72	-9.6088	-0.3283	-1.3044	0.0136	-0.0037	0.0101	45.5571	-5.9432	3.3949	0.4040	-0.6092	0.4421	0.5199
2.73	-9.6072	-0.3320	-1.3171	0.0084	-0.0067	0.0081	45.4178	-5.9014	3.3279	0.4040	-0.6092	0.4421	0.5199
2.74	-9.6034	-0.3365	-1.3105	0.0125	-0.0080	0.0095	45.1697	-5.7656	2.9775	0.4039	-0.6092	0.4420	0.5198
2.75	-9.6060	-0.3418	-1.3209	0.0095	-0.0083	0.0076	45.2149	-5.6888	3.2060	0.4040	-0.6093	0.4421	0.5198
2.76	-9.6064	-0.3308	-1.3157	0.0067	-0.0111	0.0115	45.3045	-5.8526	3.1780	0.4040	-0.6092	0.4421	0.5198
2.77	-9.6172	-0.3401	-1.3217	0.0064	-0.0148	0.0120	45.2316	-5.8539	3.3551	0.4040	-0.6093	0.4421	0.5199
2.78	-9.6072	-0.3267	-1.3275	0.0080	-0.0158	0.0100	45.4826	-5.9484	3.0662	0.4039	-0.6092	0.4420	0.5199
2.79	-9.6121	-0.3218	-1.3385	0.0116	-0.0143	0.0116	45.2763	-6.0463	3.1482	0.4040	-0.6092	0.4420	0.5199
2.8	-9.6107	-0.3155	-1.3419	0.0020	-0.0151	0.0117	45.5159	-5.8249	3.3364	0.4040	-0.6093	0.4420	0.5199
2.81	-9.6088	-0.3104	-1.3374	0.0034	-0.0132	0.0099	45.3698	-5.9593	3.0892	0.4039	-0.6092	0.4419	0.5199
2.82	-9.6047	-0.3146	-1.3378	0.0086	-0.0106	0.0105	45.2640	-5.9168	3.2535	0.4040	-0.6093	0.4420	0.5200
2.83	-9.6103	-0.3263	-1.3279	0.0108	-0.0077	0.0107	45.3855	-5.7261	3.2202	0.4039	-0.6093	0.4420	0.5199
2.84	-9.6127	-0.3387	-1.3314	0.0067	-0.0085	0.0040	45.3465	-5.8189	3.1582	0.4040	-0.6093	0.4420	0.5199
2.85	-9.6102	-0.3329	-1.3124	-0.0027	-0.0072	0.0096	45.3594	-5.6561	3.1133	0.4039	-0.6093	0.4419	0.5199
2.86	-9.6094	-0.3369	-1.2971	0.0053	-0.0106	0.0092	45.2545	-5.8534	3.2538	0.4039	-0.6093	0.4419	0.5199
2.87	-9.6070	-0.3442	-1.2903	0.0074	-0.0080	0.0145	45.4470	-5.9852	3.2061	0.4039	-0.6094	0.4419	0.5199
2.88	-9.6062	-0.3362	-1.2824	0.0027	-0.0126	0.0095	45.4067	-5.8484	3.2498	0.4038	-0.6093	0.4418	0.5199
2.89	-9.5983	-0.3407	-1.2732	0.0084	-0.0153	0.0117	45.6451	-5.8549	3.1041	0.4039	-0.6094	0.4419	0.5200
2.9	-9.6094	-0.3325	-1.2752	0.0076	-0.0100	0.0107	45.5554	-5.9837	3.0560	0.4038	-0.6094	0.4418	0.5200
2.91	-9.6059	-0.3311	-1.2644	0.0111	-0.0064	0.0049	45.4788	-5.8449	3.2486	0.4038	-0.6095	0.4418	0.5200
2.92	-9.6098	-0.3362	-1.2731	0.0138	-0.0074	0.0138	45.2485	-5.9590	3.1251	0.4038	-0.6094	0.4418	0.5199
2.93	-9.6083	-0.3261	-1.2668	0.0154	-0.0099	0.0117	45.2081	-5.8138	3.1384	0.4038	-0.6095	0.4418	0.5199
2.94	-9.6052	-0.3253	-1.2634	0.0138	-0.0146	0.0100	45.4568	-5.7973	3.1179	0.4038	-0.6094	0.4418	0.5199
2.95	-9.6048	-0.3222	-1.2770	0.0132	-0.0085	0.0104	45.4129	-5.9059	3.2139	0.4038	-0.6094	0.4418	0.5199
2.96	-9.6082	-0.3138	-1.2801	0.0068	-0.0102	0.0129	45.5410	-5.7218	3.2355	0.4038	-0.6094	0.4418	0.5199
2.97	-9.6113	-0.3139	-1.2878	0.0137	-0.0110	0.0110	45.3668	-5.8440	3.2001	0.4038	-0.6094	0.4418	0.5199
2.98	-9.6052	-0.3206	-1.3034	0.0075	-0.0051	0.0080	45.3738	-5.8090	3.0711	0.4038	-0.6095	0.4418	0.5199
2.99	-9.6100	-0.3232	-1.3081	0.0003	-0.0093	0.0048	45.2599	-5.7565	3.3439	0.4038	-0.6094	0.4418	0.5198
3	-9.6090	-0.3195	-1.3271	0.0092	-0.0071	0.0107	45.2888	-5.8944	3.1581	0.4038	-0.6095	0.4418	0.5199
3.01	-9.6100	-0.3120	-1.3252	0.0156	-0.0066	0.0041	45.3897	-5.6760	3.1732	0.4038	-0.6095	0.4418	0.5198
3.02	-9.6222	-0.3165	-1.3248	0.0112	-0.0100	0.0093	45.2894	-5.7712	3.2294	0.4038	-0.6095	0.4418	0.5198
3.03	-9.6091	-0.3186	-1.3187	0.0047	-0.0090	0.0053	45.1704	-5.7843	3.2230	0.4038	-0.6095	0.4418	0.5198
3.04	-9.6051	-0.2973	-1.3168	0.0125	-0.0092	0.0090	45.3337	-5.7803	3.3075	0.4038	-0.6096	0.4418	0.5198
3.05	-9.6064	-0.3041	-1.3183	0.0090	-0.0103	0.0084	45.3380	-5.7640	3.1678	0.4039	-0.6096	0.4418	0.5198
3.06	-9.6111	-0.3075	-1.3142	0.0125	-0.0118	0.0110	45.4892	-5.8527	3.3339	0.4038	-0.6095	0.4417	0.5197
3.07	-9.6109	-0.3142	-1.3130	0.0188	-0.0146	0.0107	45.6351	-5.8560	3.2058	0.4039	-0.6096	0.4418	0.5198
3.08	-9.6113	-0.3306	-1.3063	0.0116	-0.0141	0.0111	45.5531	-6.0020	3.2406	0.4039	-0.6096	0.4417	0.5198
3.09	-9.6171	-0.3364	-1.3170	0.0060	-0.0113	0.0080	45.4538	-5.9990	3.2240	0.4039	-0.6097	0.4417	0.5199
3.1	-9.6064	-0.3309	-1.3067	0.0104	-0.0063	0.0060	45.4140	-5.7304	3.2180	0.4038	-0.6096	0.4417	0.5198
3.11	-9.6097	-0.3321	-1.3079	0.0056	-0.0063	0.0039	45.3543	-5.8235	3.3438	0.4039	-0.6097	0.4417	0.5198
3.12	-9.6052	-0.3328	-1.3040	0.0067	-0.0052	0.0074	45.3172	-5.8457	3.4469	0.4039	-0.6097	0.4416	0.5197
3.13	-9.6048	-0.3343	-1.3078	0.0087	-0.0046	0.0072	45.4827	-5.6649	3.5755	0.4038	-0.6097	0.4416	0.5197
3.14	-9.6129	-0.3355	-1.3144	0.0056	-0.0079	0.0044	45.6999	-5.7146	3.5708	0.4039	-0.6098	0.4417	0.5197
3.15	-9.6058	-0.3447	-1.3054	0.0128	-0.0108	0.0126	45.4310	-5.6087	3.5160	0.4038	-0.6097	0.4416	0.5197
3.16	-9.6190	-0.3371	-1.3155	0.0180	-0.0079	0.0086	45.3463	-5.7739	3.4928	0.4039	-0.6098	0.4417	0.5197
3.17	-9.6131	-0.3386	-1.3207	0.0165	-0.0098	0.0080	45.1513	-5.9122	3.4349	0.4039	-0.6097	0.4416	0.5196
3.18	-9.6145	-0.3373	-1.3107	0.0124	-0.0123	0.0152	45.1886	-5.7490	3.3187	0.4039	-0.6097	0.4417	0.5196
3.19	-9.6135	-0.3383	-1.3072	0.0059	-0.0115	0.0142	45.3300	-5.8131	3.5660	0.4039	-0.6097	0.4417	0.5196
3.2	-9.6170	-0.3364	-1.3067	0.0115	-0.0144	0.0130	45.2728	-5.7132	3.3584	0.4039	-0.6097	0.4417	0.5196
3.21	-9.6169	-0.3272	-1.3077	0.0089	-0.0114	0.0111	45.1580	-5.5997	3.3451	0.4039	-0.6097	0.4417	0.5197
3.22	-9.6203	-0.3301	-1.2968	0.0111	-0.0053	0.0110	45.2938	-5.7714	3.3247	0.4039	-0.6097	0.4417	0.5196
3.23	-9.6204	-0.3284	-1.2924	0.0111	-0.0097	0.0132	45.2237	-5.7516	3.2341	0.4039	-0.6098	0.4417	0.5196
3.24	-9.6016	-0.3317	-1.2792	0.0123	-0.0166	0.0149	45.3483	-5.5875	3.2772	0.4039	-0.6097	0.4417	0.5196
3.25	-9.6101	-0.3354	-1.2888	0.0190	-0.0142	0.0111	45.4174	-5.7413	3.2506	0.4040	-0.6097	0.4417	0.5196
3.26	-9.6224	-0.3300	-1.2993	0.0064	-0.0100	0.0126	45.2941	-5.9380	3.4490	0.4039	-0.6097	0.4417	0.5196
3.27	-9.6156	-0.3245	-1.2868	0.0211	-0.0090	0.0106	45.4108	-5.7304	3.3871	0.4040	-0.6097	0.4418	0.5196
3.28	-9.6115	-0.3133	-1.2968	0.0132	-0.0079	0.0155	45.4278	-6.0040	3.1585	0.4039	-0.6097	0.4418	0.5196
3.29	-9.6162	-0.3146	-1.2961	0.0125	-0.0178	0.0151	45.5169	-5.9704	3.3211	0.4039	-0.6097	0.4418	0.5196
3.3	-9.6128	-0.3151	-1.2887	0.0152	-0.0133	0.0129	45.4889	-5.8330	3.2012	0.4039	-0.6097	0.4418	0.5196
3.31	-9.6195	-0.3089	-1.2930	0.0054	-0.0158	0.0146	45.5145	-5.8022	3.1654	0.4039	-0.6096	0.4417	0.5196
3.32	-9.6147	-0.3138	-1.3056	0.0154	-0.0085	0.0144	45.3892	-5.7658	3.2009	0.4040	-0.6097	0.4418	0.5197
3.33	-9.6207	-0.3233	-1.3019	0.0041	-0.0127	0.0109	45.4629	-5.7853	3.2782	0.4039	-0.6096	0.4417	0.5197
3.34	-9.6131	-0.3355	-1.3116	0.0187	-0.0089	0.0138	45.5294	-5.7936	3.0459	0.4039	-0.6097	0.4418	0.5197
3.35	-9.6031	-0.3343	-1.3173	0.0075	-0.0090	0.0105	45.4154	-5.6051	3.2857	0.4039	-0.6096	0.4417	0.5196
3.36	-9.6058	-0.3267	-1.3163	0.0079	-0.0045	0.0130	45.1723	-5.7367	3.5895	0.4039	-0.6097	0.4417	0.5197
3.37	-9.6051	-0.3330	-1.3256	0.0169	-0.0057	0.0153	45.3931	-5.8190	3.2788	0.4039	-0.6097	0.4418	0.5196
3.38	-9.6105	-0.3347	-1.3208	0.0074	-0.0076	0.0106	45.3641	-5.6929	3.2640	0.4038	-0.6097	0.4417	0.5196
3.39	-9.6121	-0.3376	-1.3208	0.0083	-0.0139	0.0156	45.2336	-5.6216	3.2473	0.4039	-0.6097	0.4418	0.5197
3.4	-9.6156	-0.3371	-1.3236	0.0003	-0.0134	0.0140	45.2723	-5.7237	3.2953	0.4038	-0.6097	0.4418	0.5197
3.41	-9.6131	-0.3309	-1.3190	0.0062	-0.0142	0.0131	45.4420	-5.7108	3.3893	0.4038	-0.6097	0.4418	0.5197
3.42	-9.6095	-0.3361	-1.3169	0.0150	-0.0168	0.0127	45.2995	-6.0004	3.2581	0.4038	-0.6096	0.4417	0.5197
3.43	-9.6140	-0.3371	-1.3134	0.0157	-0.0141	0.0125	45.5067	-5.7805	3.1623	0.4039	-0.6097	0.4418	0.5197
3.44	-9.6222	-0.3390	-1.3089	0.0123	-0.0138	0.0142	45.3874	-5.6895	3.3702	0.4039	-0.6096	0.4418	0.5197
3.45	-9.6136	-0.3348	-1.2958	0.0115	-0.0106	0.0144	45.3779	-5.9523	3.2627	0.4039	-0.6096	0.4418	0.5197
3.46	-9.6147	-0.3342	-1.2970	0.0175	-0.0063	0.0150	45.5103	-5.9556	3.3836	0.4039	-0.6096	0.4418	0.5197
3.47	-9.6085	-0.3188	-1.2974	0.0149	-0.0111	0.0134	45.5283	-5.9120	3.3210	0.4039	-0.6096	0.4418	0.5197
3.48	-9.6128	-0.3265	-1.2876	0.0169	-0.0103	0.0103	45.5595	-5.8284	3.2575	0.4039	-0.6097	0.4418	0.5197
3.49	-9.6122	-0.3262	-1.2801	0.0150	-0.0162	0.0151	45.3949	-5.9615	3.2650	0.4038	-0.6096	0.4418	0.5196
3.5	-9.6047	-0.3100	-1.2723	0.0142	-0.0111	0.0158	45.4144	-5.7451	3.3943	0.4039	-0.6096	0.4418	0.5197
3.51	-9.6073	-0.3128	-1.2799	0.0160	-0.0049	0.0154	45.4384	-5.6457	3.2743	0.4039	-0.6096	0.4419	0.5197
3.52	-9.6057	-0.3115	-1.2719	0.0106	-0.0135	0.0163	45.3313	-5.5912	3.3259	0.4039	-0.6096	0.4419	0.5197
3.53	-9.6052	-0.3143	-1.2719	0.0226	-0.0145	0.0143	45.3575	-5.7910	3.3620	0.4039	-0.6095	0.4419	0.5196
3.54	-9.6101	-0.3180	-1.2686	0.0132	-0.0135	0.0144	45.2744	-5.9213	3.2395	0.4039	-0.6095	0.4419	0.5197
3.55	-9.6048	-0.3236	-1.2669	0.0147	-0.0126	0.0118	45.1646	-5.7437	3.2735	0.4040	-0.6095	0.4420	0.5197
3.56	-9.6093	-0.3318	-1.2806	0.0178	-0.0063	0.0100	45.4384	-5.6703	3.2533	0.4039	-0.6094	0.4419	0.5196
3.57	-9.6187	-0.3293	-1.2908	0.0171	-0.0095	0.0129	45.4171	-5.8981	3.3743	0.4040	-0.6095	0.4420	0.5196
3.58	-9.6099	-0.3189	-1.2901	0.0196	-0.0146	0.0130	45.5246	-5.8579	3.3565	0.4040	-0.6094	0.4420	0.5196
3.59	-9.6084	-0.3217	-1.2986	0.0154	-0.0085	0.0111	45.2384	-5.8234	3.3466	0.4041	-0.6095	0.4421	0.5196
3.6	-9.6073	-0.3309	-1.2955	0.0135	-0.0056	0.0103	45.3459	-5.6714	3.3638	0.4040	-0.6094	0.4420	0.5195
3.61	-9.6045	-0.3292	-1.3024	0.0138	-0.0118	0.0094	45.3180	-5.8326	3.3221	0.4040	-0.6095	0.4420	0.5195
3.62	-9.6104	-0.3237	-1.3054	0.0155	-0.0097	0.0134	45.3962	-5.7120	3.4468	0.4041	-0.6094	0.4421	0.5195
3.63	-9.6103	-0.3290	-1.2942	0.0152	-0.0082	0.0130	45.6686	-5.6850	3.6459	0.4040	-0.6094	0.4421	0.5195
3.64	-9.6054	-0.3313	-1.2974	0.0153	-0.0139	0.0140	45.7228	-5.7813	3.6124	0.4041	-0.6095	0.4421	0.5195
3.65	-9.6159	-0.3338	-1.3208	0.0085	-0.0094	0.0107	45.5806	-5.8723	3.4512	0.4041	-0.6094	0.4421	0.5195
3.66	-9.6082	-0.3326	-1.3160	0.0022	-0.0071	0.0075	45.3708	-5.8353	3.2627	0.4041	-0.6095	0.4421	0.5195
3.67	-9.6044	-0.3337	-1.3216	0.0058	-0.0085	0.0072	45.2392	-5.7067	3.2230	0.4040	-0.6094	0.4420	0.5195
3.68	-9.6046	-0.3447	-1.3256	0.0077	-0.0036	0.0078	45.4108	-5.6811	3.2058	0.4040	-0.6095	0.4421	0.5195
3.69	-9.6086	-0.3428	-1.3237	0.0019	-0.0089	0.0044	45.4515	-5.9054	3.2619	0.4040	-0.6096	0.4420	0.5195
3.7	-9.6150	-0.3357	-1.3232	0.0112	-0.0084	0.0074	45.3688	-5.9136	3.1301	0.4040	-0.6096	0.4420	0.5194
3.71	-9.6050	-0.3394	-1.3092	0.0068	-0.0139	0.0107	45.3403	-5.6406	3.1548	0.4040	-0.6096	0.4420	0.5195
3.72	-9.6118	-0.3469	-1.3128	0.0097	-0.0120	0.0119	45.3830	-5.8690	3.2139	0.4040	-0.6096	0.4420	0.5195
3.73	-9.6055	-0.3487	-1.3091	0.0117	-0.0113	0.0154	45.4789	-5.7980	3.1088	0.4040	-0.6096	0.4420	0.5195
3.74	-9.6075	-0.3318	-1.3129	0.0092	-0.0152	0.0097	45.3234	-5.7592	3.1515	0.4040	-0.6095	0.4419	0.5194
3.75	-9.6056	-0.3313	-1.3128	0.0115	-0.0118	0.0107	45.4896	-5.8913	3.1358	0.4041	-0.6096	0.4420	0.5195
3.76	-9.6056	-0.3228	-1.3086	0.0033	-0.0091	0.0082	45.4983	-5.8158	3.1362	0.4040	-0.6096	0.4419	0.5195
3.77	-9.6055	-0.3180	-1.3067	0.0049	-0.0067	0.0071	45.3515	-5.7004	3.1927	0.4040	-0.6096	0.4419	0.5195
3.78	-9.6050	-0.3351	-1.3072	0.0078	-0.0122	0.0074	45.3408	-5.6925	3.2520	0.4040	-0.6096	0.4419	0.5195
3.79	-9.6050	-0.3363	-1.2987	0.0060	-0.0096	0.0079	45.4936	-5.4670	3.2922	0.4040	-0.6096	0.4419	0.5195
3.8	-9.6065	-0.3417	-1.3019	0.0120	-0.0164	0.0157	45.4780	-5.8152	3.1833	0.4040	-0.6096	0.4419	0.5195
3.81	-9.6087	-0.3398	-1.3080	0.0135	-0.0161	0.0124	45.3957	-5.8867	3.3362	0.4040	-0.6096	0.4418	0.5195
3.82	-9.6053	-0.3343	-1.3060	0.0093	-0.0121	0.0093	45.5626	-5.8312	3.2023	0.4041	-0.6097	0.4419	0.5195
3.83	-9.6092	-0.3314	-1.3099	0.0110	-0.0168	0.0082	45.3220	-6.0386	3.2573	0.4041	-0.6096	0.4418	0.5195
3.84	-9.6068	-0.3272	-1.3047	0.0020	-0.0125	0.0096	45.4947	-5.9496	3.1672	0.4041	-0.6097	0.4418	0.5196
3.85	-9.6057	-0.3123	-1.2990	0.0103	-0.0165	0.0117	45.5380	-5.9398	3.0385	0.4040	-0.6096	0.4417	0.5195
3.86	-9.6095	-0.3102	-1.2902	0.0018	-0.0120	0.0119	45.3925	-5.9275	3.3018	0.4040	-0.6097	0.4417	0.5196
3.87	-9.6081	-0.3130	-1.2932	0.0137	-0.0117	0.0129	45.3142	-5.9866	3.3169	0.4040	-0.6096	0.4417	0.5196
3.88	-9.6134	-0.3136	-1.3008	0.0167	-0.0164	0.0134	45.5018	-5.7631	3.3298	0.4040	-0.6096	0.4417	0.5196
3.89	-9.6074	-0.3146	-1.2917	0.0071	-0.0158	0.0124	45.5322	-5.8862	3.1116	0.4041	-0.6097	0.4417	0.5197
3.9	-9.6060	-0.3150	-1.2884	0.0100	-0.0171	0.0130	45.5049	-5.9231	3.1709	0.4040	-0.6096	0.4417	0.5197
3.91	-9.6110	-0.3124	-1.2932	0.0068	-0.0078	0.0064	45.3088	-5.6239	3.3052	0.4041	-0.6097	0.4417	0.5197
3.92	-9.6100	-0.3055	-1.2906	0.0091	-0.0091	0.0118	45.1640	-5.9125	3.3209	0.4040	-0.6096	0.4416	0.5196
3.93	-9.6034	-0.3031	-1.2872	0.0050	-0.0134	0.0074	45.3191	-5.8112	3.0807	0.4040	-0.6097	0.4416	0.5197
3.94	-9.6175	-0.3147	-1.2935	0.0052	-0.0097	0.0113	45.3795	-5.7955	3.2041	0.4040	-0.6097	0.4416	0.5197
3.95	-9.6104	-0.3098	-1.2990	0.0081	-0.0069	0.0090	45.2845	-5.6812	3.2388	0.4040	-0.6097	0.4416	0.5196
3.96	-9.6135	-0.3168	-1.2916	0.0051	-0.0071	0.0085	45.1818	-5.8189	3.1149	0.4040	-0.6097	0.4416	0.5197
3.97	-9.6113	-0.3158	-1.2982	0.0073	-0.0069	0.0082	45.2070	-5.8280	3.1531	0.4040	-0.6097	0.4416	0.5196
3.98	-9.6047	-0.3015	-1.3070	0.0049	-0.0124	0.0148	45.3859	-5.6136	3.3076	0.4040	-0.6098	0.4416	0.5197
3.99	-9.6108	-0.3116	-1.3077	0.0035	-0.0141	0.0103	45.5367	-5.8939	3.3187	0.4039	-0.6097	0.4415	0.5196
4	-9.6164	-0.3341	-1.3077	0.0038	-0.0150	0.0079	45.4881	-5.7352	3.2180	0.4040	-0.6098	0.4415	0.5197
4.01	-9.6153	-0.3263	-1.3060	0.0078	-0.0138	0.0108	45.5687	-5.8187	3.2035	0.4039	-0.6098	0.4415	0.5197
4.02	-9.6238	-0.3331	-1.3072	0.0106	-0.0151	0.0110	45.6141	-5.9201	3.0941	0.4039	-0.6098	0.4414	0.5198
4.03	-9.6277	-0.3410	-1.3151	0.0088	-0.0122	0.0113	45.5115	-6.0454	3.2875	0.4039	-0.6098	0.4414	0.5198
4.04	-9.6033	-0.3393	-1.3157	0.0049	-0.0127	0.0119	45.6064	-5.8790	3.2835	0.4039	-0.6098	0.4414	0.5198
4.05	-9.6150	-0.3333	-1.3124	0.0069	-0.0113	0.0090	45.6144	-6.0381	3.0377	0.4039	-0.6099	0.4413	0.5198
4.06	-9.6092	-0.3399	-1.3111	0.0137	-0.0133	0.0120	45.5167	-5.9137	3.1393	0.4038	-0.6098	0.4413	0.5198
4.07	-9.6059	-0.3305	-1.3202	0.0150	-0.0119	0.0085	45.4400	-6.0850	3.0710	0.4039	-0.6099	0.4413	0.5199
4.08	-9.6074	-0.3249	-1.3281	0.0132	-0.0105	0.0046	45.3995	-5.8943	3.2971	0.4039	-0.6099	0.4413	0.5198
4.09	-9.6091	-0.3328	-1.3173	0.0128	-0.0111	0.0126	45.3448	-5.7229	3.1267	0.4040	-0.6099	0.4413	0.5198
4.1	-9.6182	-0.3269	-1.3157	0.0028	-0.0055	0.0123	45.2947	-5.8806	3.1423	0.4039	-0.6098	0.4413	0.5198
4.11	-9.6102	-0.3273	-1.3100	0.0034	-0.0071	0.0091	45.1369	-5.8800	3.1313	0.4039	-0.6099	0.4413	0.5198
4.12	-9.6119	-0.3290	-1.3095	0.0007	-0.0092	0.0115	45.3170	-5.7801	3.1525	0.4038	-0.6099	0.4412	0.5198
4.13	-9.6022	-0.3318	-1.2980	0.0108	-0.0101	0.0056	45.6849	-5.5708	3.4131	0.4038	-0.6099	0.4412	0.5198
4.14	-9.6178	-0.3266	-1.3057	0.0123	-0.0095	0.0163	45.6771	-5.7136	3.3907	0.4039	-0.6100	0.4413	0.5198
4.15	-9.6121	-0.3331	-1.2954	0.0089	-0.0107	0.0158	45.3907	-5.7258	3.4592	0.4038	-0.6099	0.4413	0.5198
4.16	-9.6070	-0.3210	-1.3034	0.0069	-0.0148	0.0118	45.3119	-5.6300	3.4203	0.4039	-0.6100	0.4413	0.5199
4.17	-9.6121	-0.3248	-1.2968	0.0204	-0.0092	0.0160	45.1440	-5.7457	3.2212	0.4038	-0.6098	0.4413	0.5198
4.18	-9.6113	-0.3205	-1.2833	0.0140	-0.0122	0.0172	45.2469	-5.6584	3.2604	0.4039	-0.6099	0.4413	0.5198
4.19	-9.6123	-0.3188	-1.2781	0.0137	-0.0173	0.0157	45.3674	-5.8186	3.2525	0.4039	-0.6098	0.4413	0.5198
4.2	-9.6150	-0.3187	-1.2785	0.0248	-0.0163	0.0137	45.3763	-5.8298	3.2611	0.4039	-0.6098	0.4414	0.5198
4.21	-9.6103	-0.3268	-1.2848	0.0148	-0.0160	0.0114	45.6324	-5.6553	3.2534	0.4040	-0.6098	0.4414	0.5198
4.22	-9.6228	-0.3290	-1.2921	0.0214	-0.0176	0.0140	45.4224	-5.9752	3.4050	0.4040	-0.6097	0.4414	0.5198
4.23	-9.6128	-0.3304	-1.2811	0.0175	-0.0183	0.0144	45.4390	-5.8851	3.4528	0.4040	-0.6097	0.4414	0.5199
4.24	-9.6205	-0.3181	-1.2873	0.0204	-0.0182	0.0145	45.3264	-5.7894	3.4190	0.4040	-0.6096	0.4414	0.5198
4.25	-9.6205	-0.3284	-1.2920	0.0179	-0.0140	0.0149	45.3530	-5.7630	3.3431	0.4041	-0.6096	0.4414	0.5199
4.26	-9.6081	-0.3297	-1.2846	0.0162	-0.0111	0.0136	45.3222	-5.9894	3.1662	0.4041	-0.6096	0.4415	0.5198
4.27	-9.6115	-0.3193	-1.2935	0.0146	-0.0122	0.0183	45.4389	-6.0373	3.2514	0.4041	-0.6096	0.4415	0.5199
4.28	-9.6142	-0.3163	-1.2932	0.0092	-0.0134	0.0123	45.2490	-6.0501	3.3504	0.4041	-0.6095	0.4415	0.5199
4.29	-9.6115	-0.3251	-1.2993	0.0114	-0.0080	0.0151	45.1648	-5.8680	3.1270	0.4041	-0.6095	0.4415	0.5199
4.3	-9.6096	-0.3140	-1.3093	0.0086	-0.0105	0.0133	45.3781	-5.7716	3.1727	0.4041	-0.6096	0.4415	0.5199
4.31	-9.6050	-0.3105	-1.3141	0.0138	-0.0077	0.0129	45.2482	-5.7063	3.2340	0.4041	-0.6095	0.4415	0.5198
4.32	-9.6058	-0.3118	-1.3095	0.0139	-0.0119	0.0180	45.1899	-5.8107	3.3661	0.4041	-0.6096	0.4416	0.5199
4.33	-9.6116	-0.3097	-1.3098	0.0145	-0.0094	0.0159	45.2787	-5.8777	3.1912	0.4041	-0.6095	0.4416	0.5198
4.34	-9.6080	-0.3116	-1.3148	0.0168	-0.0140	0.0193	45.2998	-5.9150	3.3672	0.4041	-0.6095	0.4416	0.5199
4.35	-9.6048	-0.3230	-1.3100	0.0073	-0.0174	0.0127	45.4621	-5.9824	3.3248	0.4041	-0.6094	0.4416	0.5199
4.36	-9.6082	-0.3311	-1.3120	0.0073	-0.0092	0.0112	45.1657	-5.7959	3.2779	0.4041	-0.6095	0.4416	0.5199
4.37	-9.6130	-0.3381	-1.3056	0.0092	-0.0158	0.0141	45.4122	-5.8285	3.5204	0.4041	-0.6094	0.4416	0.5199
4.38	-9.6081	-0.3432	-1.3132	0.0100	-0.0168	0.0159	45.3371	-5.8999	3.2422	0.4041	-0.6094	0.4415	0.5199
4.39	-9.6080	-0.3433	-1.3149	0.0148	-0.0159	0.0153	45.4550	-5.6555	3.2604	0.4041	-0.6094	0.4416	0.5200
4.4	-9.6015	-0.3383	-1.2982	0.0139	-0.0164	0.0126	45.6157	-5.7396	3.2566	0.4041	-0.6094	0.4416	0.5200
4.41	-9.6028	-0.3456	-1.3024	0.0129	-0.0125	0.0137	45.3860	-6.0372	3.2679	0.4041	-0.6094	0.4416	0.5200
4.42	-9.6132	-0.3344	-1.3022	0.0173	-0.0127	0.0118	45.5260	-6.0166	3.2678	0.4041	-0.6093	0.4415	0.5199
4.43	-9.6051	-0.3322	-1.2934	0.0119	-0.0122	0.0129	45.4877	-5.9513	3.1510	0.4041	-0.6094	0.4416	0.5200
4.44	-9.6028	-0.3339	-1.2914	0.0102	-0.0064	0.0111	45.3850	-5.7285	3.0327	0.4041	-0.6094	0.4416	0.5200
4.45	-9.6058	-0.3276	-1.2959	0.0093	-0.0120	0.0134	45.2613	-5.7558	3.1883	0.4041	-0.6093	0.4416	0.5200
4.46	-9.6050	-0.3331	-1.2845	0.0148	-0.0177	0.0126	45.2684	-5.8827	3.1318	0.4042	-0.6093	0.4416	0.5200
4.47	-9.6060	-0.3319	-1.2952	0.0085	-0.0152	0.0163	45.3822	-5.7586	3.2522	0.4041	-0.6093	0.4416	0.5200
4.48	-9.6065	-0.3264	-1.2935	0.0166	-0.0151	0.0179	45.4834	-5.7770	3.3711	0.4042	-0.6093	0.4416	0.5201
4.49	-9.6101	-0.3303	-1.2943	0.0106	-0.0189	0.0147	45.5263	-5.8638	3.3481	0.4041	-0.6092	0.4416	0.5200
4.5	-9.6073	-0.3295	-1.2702	0.0111	-0.0155	0.0143	45.2726	-5.8566	3.4245	0.4042	-0.6092	0.4416	0.5201
4.51	-9.6018	-0.3305	-1.2803	0.0134	-0.0137	0.0137	45.2973	-5.9151	3.1723	0.4042	-0.6092	0.4416	0.5201
4.52	-9.6086	-0.3286	-1.2871	0.0044	-0.0147	0.0137	45.3871	-5.9271	3.1489	0.4042	-0.6092	0.4416	0.5201
4.53	-9.6078	-0.3414	-1.2827	0.0075	-0.0176	0.0130	45.2246	-5.6517	3.2884	0.4042	-0.6092	0.4416	0.5201
4.54	-9.6114	-0.3444	-1.2839	0.0168	-0.0133	0.0136	45.2983	-5.7477	3.4259	0.4042	-0.6091	0.4416	0.5201
4.55	-9.6218	-0.3384	-1.3019	0.0123	-0.0082	0.0141	45.1745	-5.6331	3.3319	0.4042	-0.6091	0.4416	0.5202
4.56	-9.6081	-0.3401	-1.2870	0.0164	-0.0134	0.0120	45.2509	-5.9772	3.5844	0.4042	-0.6091	0.4416	0.5201
4.57	-9.6058	-0.3323	-1.2915	0.0203	-0.0124	0.0143	45.3458	-5.9129	3.1688	0.4043	-0.6091	0.4417	0.5202
4.58	-9.6118	-0.3333	-1.3036	0.0140	-0.0149	0.0141	45.3900	-5.7692	3.3501	0.4042	-0.6091	0.4417	0.5201
4.59	-9.6073	-0.3299	-1.2872	0.0105	-0.0114	0.0173	45.3854	-6.1789	3.2858	0.4043	-0.6091	0.4417	0.5202
4.6	-9.6096	-0.3275	-1.2875	0.0109	-0.0104	0.0122	45.3200	-5.9127	3.2477	0.4042	-0.6090	0.4417	0.5201
4.61	-9.6174	-0.3279	-1.2927	0.0175	-0.0107	0.0145	45.3523	-5.7593	3.3760	0.4043	-0.6090	0.4417	0.5201
4.62	-9.6117	-0.3261	-1.2947	0.0141	-0.0147	0.0177	45.3555	-5.7926	3.1290	0.4043	-0.6090	0.4418	0.5202
4.63	-9.6208	-0.3169	-1.3130	0.0209	-0.0158	0.0159	45.5816	-5.7747	3.3345	0.4043	-0.6089	0.4418	0.5201
4.64	-9.6098	-0.3147	-1.2945	0.0087	-0.0094	0.0132	45.7624	-5.7754	3.4628	0.4043	-0.6090	0.4418	0.5202
4.65	-9.6049	-0.3122	-1.2898	0.0083	-0.0117	0.0129	45.5420	-5.8048	3.3893	0.4043	-0.6089	0.4418	0.5202
4.66	-9.6071	-0.3166	-1.3003	0.0104	-0.0076	0.0077	45.4133	-5.8321	3.2910	0.4043	-0.6090	0.4418	0.5202
4.67	-9.6096	-0.3205	-1.2929	0.0133	-0.0083	0.0045	45.3378	-5.6054	3.1993	0.4043	-0.6089	0.4418	0.5201
4.68	-9.6069	-0.3229	-1.3079	0.0076	-0.0068	0.0055	45.2565	-5.6243	3.3641	0.4043	-0.6090	0.4418	0.5201
4.69	-9.6063	-0.3083	-1.3055	0.0088	-0.0079	0.0061	45.2994	-5.5906	3.3988	0.4043	-0.6090	0.4418	0.5201
4.7	-9.6112	-0.3212	-1.3090	0.0145	-0.0087	0.0062	45.3956	-5.6943	3.1419	0.4043	-0.6090	0.4417	0.5200
4.71	-9.6082	-0.3227	-1.3083	0.0147	-0.0084	0.0064	45.2265	-5.6047	3.0467	0.4044	-0.6090	0.4418	0.5200
4.72	-9.6046	-0.3282	-1.3086	0.0220	-0.0068	0.0077	45.1107	-5.6275	3.0387	0.4044	-0.6090	0.4418	0.5200
4.73	-9.6072	-0.3324	-1.2998	0.0121	-0.0075	0.0140	45.4531	-5.7704	3.3178	0.4044	-0.6090	0.4418	0.5200
4.74	-9.6083	-0.3344	-1.3032	0.0097	-0.0127	0.0105	45.3391	-5.8392	3.2388	0.4044	-0.6090	0.4418	0.5199
4.75	-9.6050	-0.3394	-1.2980	0.0081	-0.0125	0.0082	45.4503	-5.8930	3.2445	0.4044	-0.6090	0.4418	0.5200
4.76	-9.6096	-0.3326	-1.2982	0.0127	-0.0087	0.0120	45.5714	-6.0705	3.2074	0.4044	-0.6090	0.4418	0.5200
4.77	-9.6063	-0.3385	-1.2955	0.0160	-0.0112	0.0140	45.6143	-5.9405	3.1293	0.4044	-0.6091	0.4418	0.5200
4.78	-9.6074	-0.3274	-1.2931	0.0069	-0.0066	0.0105	45.5007	-5.8373	3.1668	0.4043	-0.6091	0.4417	0.5200
4.79	-9.6052	-0.3313	-1.3133	0.0207	-0.0108	0.0089	45.5183	-5.9986	3.2642	0.4044	-0.6091	0.4417	0.5200
4.8	-9.6198	-0.3401	-1.3119	0.0088	-0.0198	0.0154	45.6749	-6.1707	3.2118	0.4044	-0.6091	0.4417	0.5200
4.81	-9.6080	-0.3265	-1.3050	0.0078	-0.0083	0.0116	45.3265	-5.9236	3.0330	0.4043	-0.6090	0.4417	0.5200
4.82	-9.6072	-0.3197	-1.3128	0.0177	-0.0112	0.0119	45.3876	-5.7679	3.1875	0.4044	-0.6091	0.4417	0.5200
4.83	-9.6018	-0.3316	-1.3056	0.0112	-0.0089	0.0083	45.5468	-5.8771	3.2454	0.4043	-0.6091	0.4417	0.5200
4.84	-9.6024	-0.3354	-1.2886	-0.0009	-0.0114	0.0104	45.5102	-5.8783	3.2545	0.4043	-0.6092	0.4417	0.5201
4.85	-9.6077	-0.3352	-1.3018	0.0135	-0.0129	0.0100	45.4343	-6.0885	3.1339	0.4043	-0.6091	0.4416	0.5200
4.86	-9.6144	-0.3272	-1.3079	0.0144	-0.0052	0.0132	45.3279	-5.5977	3.2923	0.4043	-0.6091	0.4417	0.5200
4.87	-9.6063	-0.3293	-1.2927	0.0127	-0.0061	0.0088	45.3388	-5.5859	3.2745	0.4043	-0.6091	0.4417	0.5200
4.88	-9.6075	-0.3294	-1.2975	0.0101	-0.0058	0.0112	45.1452	-5.8303	3.2021	0.4043	-0.6091	0.4417	0.5200
4.89	-9.6059	-0.3341	-1.2895	0.0099	-0.0062	0.0167	45.3271	-5.6491	3.2511	0.4043	-0.6092	0.4418	0.5200
4.9	-9.6064	-0.3328	-1.2875	0.0108	-0.0091	0.0061	45.3173	-5.8708	3.2071	0.4043	-0.6092	0.4417	0.5200
4.91	-9.6130	-0.3261	-1.2912	0.0067	-0.0063	0.0075	45.2606	-5.7949	3.3026	0.4043	-0.6092	0.4417	0.5200
4.92	-9.6111	-0.3300	-1.2916	0.0093	-0.0082	0.0119	45.2566	-5.7641	3.3368	0.4043	-0.6092	0.4417	0.5199
4.93	-9.6100	-0.3317	-1.2828	0.0034	-0.0178	0.0142	45.3018	-5.8931	3.1865	0.4043	-0.6092	0.4417	0.5200
4.94	-9.6113	-0.3268	-1.3000	0.0114	-0.0125	0.0131	45.6796	-5.9671	2.9861	0.4042	-0.6092	0.4416	0.5200
4.95	-9.6044	-0.3315	-1.2970	0.0134	-0.0099	0.0090	45.6435	-5.8434	3.2691	0.4042	-0.6092	0.4416	0.5200
4.96	-9.6161	-0.3190	-1.2999	0.0134	-0.0080	0.0148	45.2751	-5.8707	3.1055	0.4043	-0.6092	0.4417	0.5200
4.97	-9.6221	-0.3068	-1.3021	0.0097	-0.0100	0.0141	45.5827	-5.9499	3.2324	0.4042	-0.6092	0.4417	0.5200
4.98	-9.6218	-0.3108	-1.3050	0.0106	-0.0157	0.0105	45.6587	-5.9342	3.3506	0.4042	-0.6092	0.4417	0.5200
4.99	-9.6112	-0.3058	-1.3122	0.0123	-0.0124	0.0101	45.5052	-5.9286	3.0053	0.4042	-0.6092	0.4416	0.5200
5	-9.6057	-0.3094	-1.3069	0.0093	-0.0094	0.0110	45.3008	-5.8674	3.2188	0.4042	-0.6093	0.4416	0.5200
5.01	-9.6059	-0.3102	-1.3030	0.0119	-0.0067	0.0116	45.3064	-5.7957	3.0391	0.4042	-0.6092	0.4416	0.5200
5.02	-9.6151	-0.3039	-1.3072	0.0134	-0.0105	0.0036	45.3734	-5.5712	3.1910	0.4042	-0.6093	0.4416	0.5200
5.03	-9.6173	-0.3088	-1.3112	0.0176	-0.0120	0.0134	45.3389	-5.7182	3.3369	0.4043	-0.6092	0.4416	0.5200
5.04	-9.6075	-0.3010	-1.3148	0.0076	-0.0067	0.0122	45.3435	-5.6816	3.3268	0.4042	-0.6092	0.4416	0.5200
5.05	-9.6115	-0.2994	-1.3113	0.0078	-0.0092	0.0086	45.3672	-5.8874	3.4613	0.4043	-0.6093	0.4416	0.5200
5.06	-9.6140	-0.2978	-1.3109	0.0080	-0.0049	0.0114	45.2462	-5.7580	3.2969	0.4042	-0.6092	0.4416	0.5199
5.07	-9.6169	-0.3100	-1.3034	0.0048	-0.0088	0.0074	45.3964	-5.8098	3.3402	0.4042	-0.6093	0.4416	0.5200
5.08	-9.6136	-0.3231	-1.3097	0.0028	-0.0068	0.0074	45.2551	-5.6916	3.2780	0.4042	-0.6093	0.4416	0.5199
5.09	-9.6063	-0.3240	-1.3056	-0.0029	-0.0163	0.0139	45.2040	-5.5765	3.1909	0.4042	-0.6094	0.4416	0.5200
5.1	-9.6138	-0.3287	-1.2975	-0.0001	-0.0101	0.0168	45.4045	-5.6996	3.2604	0.4041	-0.6093	0.4415	0.5200
5.11	-9.6147	-0.3349	-1.2947	0.0047	-0.0082	0.0095	45.1741	-5.7200	3.4132	0.4041	-0.6094	0.4415	0.5200
5.12	-9.6056	-0.3460	-1.2849	0.0017	-0.0125	0.0082	45.2864	-5.7940	3.2638	0.4041	-0.6094	0.4415	0.5200
5.13	-9.6045	-0.3410	-1.2801	0.0149	-0.0073	0.0083	45.7061	-5.7638	3.4456	0.4041	-0.6094	0.4415	0.5200
5.14	-9.6051	-0.3382	-1.2800	0.0121	-0.0146	0.0086	45.6447	-5.8439	3.1969	0.4041	-0.6095	0.4415	0.5200
5.15	-9.6065	-0.3345	-1.2905	0.0167	-0.0084	0.0111	45.5877	-5.8597	3.5190	0.4041	-0.6094	0.4415	0.5200
5.16	-9.6093	-0.3285	-1.2915	0.0121	-0.0112	0.0184	45.4193	-5.7831	3.2238	0.4041	-0.6094	0.4416	0.5200
5.17	-9.6084	-0.3212	-1.2926	0.0218	-0.0146	0.0126	45.3308	-5.8913	3.1480	0.4041	-0.6093	0.4415	0.5199
5.18	-9.6080	-0.3226	-1.2897	0.0178	-0.0113	0.0163	45.2108	-5.8273	3.1380	0.4042	-0.6094	0.4416	0.5200
5.19	-9.6132	-0.3124	-1.2860	0.0135	-0.0100	0.0163	45.2210	-5.8188	3.0658	0.4042	-0.6093	0.4416	0.5199
5.2	-9.6107	-0.3090	-1.2962	0.0190	-0.0129	0.0158	45.4990	-5.8236	3.2943	0.4042	-0.6093	0.4416	0.5199
5.21	-9.6115	-0.3091	-1.3059	0.0200	-0.0134	0.0128	45.5913	-5.7343	3.1192	0.4042	-0.6093	0.4417	0.5199
5.22	-9.6107	-0.3075	-1.3171	0.0142	-0.0074	0.0130	45.4136	-5.8246	3.2172	0.4042	-0.6093	0.4417	0.5199
5.23	-9.6035	-0.3103	-1.3286	0.0067	-0.0026	0.0133	45.2782	-5.6889	3.4480	0.4042	-0.6093	0.4417	0.5199
5.24	-9.6097	-0.3212	-1.3311	0.0151	-0.0106	0.0144	45.4232	-5.7807	3.3229	0.4041	-0.6092	0.4417	0.5199
5.25	-9.6144	-0.3282	-1.3382	0.0143	-0.0062	0.0130	45.4003	-5.8671	3.3465	0.4042	-0.6093	0.4418	0.5199
5.26	-9.6067	-0.3298	-1.3323	0.0168	-0.0074	0.0150	45.2673	-6.0433	3.3197	0.4042	-0.6093	0.4418	0.5198
5.27	-9.6215	-0.3281	-1.3288	0.0084	-0.0077	0.0155	45.2337	-5.8977	3.4092	0.4042	-0.6093	0.4418	0.5199
5.28	-9.6089	-0.3261	-1.3278	0.0081	-0.0132	0.0116	45.3233	-5.8442	3.4311	0.4041	-0.6093	0.4418	0.5198
5.29	-9.6082	-0.3296	-1.3016	0.0148	-0.0096	0.0166	45.4595	-5.8686	3.4233	0.4041	-0.6093	0.4418	0.5199
5.3	-9.6047	-0.3372	-1.2988	0.0134	-0.0137	0.0130	45.4792	-5.8682	3.6039	0.4042	-0.6093	0.4418	0.5199
5.31	-9.6062	-0.3312	-1.2890	0.0147	-0.0100	0.0067	45.5051	-5.7829	3.2237	0.4041	-0.6092	0.4418	0.5198
5.32	-9.6090	-0.3371	-1.2825	0.0116	-0.0142	0.0125	45.4570	-5.7716	3.1790	0.4042	-0.6093	0.4418	0.5199
5.33	-9.6132	-0.3371	-1.2924	0.0097	-0.0148	0.0160	45.4429	-5.7808	3.2332	0.4041	-0.6093	0.4418	0.5199
5.34	-9.6120	-0.3256	-1.2965	0.0099	-0.0109	0.0146	45.4986	-5.7777	3.1275	0.4042	-0.6093	0.4418	0.5199
5.35	-9.6090	-0.3288	-1.2954	0.0094	-0.0094	0.0113	45.5857	-5.7693	3.1779	0.4041	-0.6092	0.4418	0.5199
5.36	-9.6071	-0.3295	-1.2976	0.0193	-0.0064	0.0110	45.5279	-5.7866	3.2767	0.4041	-0.6093	0.4418	0.5199
5.37	-9.6080	-0.3179	-1.2969	0.0150	-0.0141	0.0116	45.3517	-5.7577	3.5580	0.4042	-0.6093	0.4419	0.5198
5.38	-9.6037	-0.3210	-1.3028	0.0115	-0.0136	0.0115	45.4370	-5.8659	3.3491	0.4041	-0.6092	0.4418	0.5198
5.39	-9.6094	-0.3264	-1.2967	0.0189	-0.0142	0.0139	45.3902	-5.8479	3.1333	0.4042	-0.6093	0.4419	0.5199
5.4	-9.6077	-0.3253	-1.2810	0.0176	-0.0129	0.0151	45.3226	-6.0278	3.3110	0.4042	-0.6092	0.4419	0.5198
5.41	-9.6050	-0.3321	-1.2872	0.0068	-0.0048	0.0089	45.5268	-5.7295	3.3998	0.4042	-0.6092	0.4419	0.5198
5.42	-9.6127	-0.3289	-1.2818	0.0125	-0.0083	0.0109	45.3041	-5.6839	3.4443	0.4042	-0.6092	0.4419	0.5198
5.43	-9.6074	-0.3342	-1.2856	0.0147	-0.0078	0.0124	45.2430	-5.7940	3.2711	0.4042	-0.6092	0.4419	0.5198
5.44	-9.6058	-0.3304	-1.2816	0.0138	-0.0058	0.0059	45.2340	-5.5036	3.2569	0.4042	-0.6092	0.4419	0.5197
5.45	-9.6122	-0.3363	-1.2887	0.0099	-0.0076	0.0149	45.3180	-5.8690	3.4399	0.4042	-0.6092	0.4419	0.5197
5.46	-9.6087	-0.3272	-1.2931	0.0059	-0.0050	0.0147	45.3274	-5.9507	3.4121	0.4042	-0.6093	0.4420	0.5197
5.47	-9.6083	-0.3178	-1.2930	0.0135	-0.0069	0.0122	45.2206	-5.8362	3.4389	0.4042	-0.6093	0.4420	0.5197
5.48	-9.6120	-0.3225	-1.2881	0.0172	-0.0101	0.0140	45.4481	-5.8891	3.3712	0.4042	-0.6093	0.4420	0.5197
5.49	-9.6094	-0.3047	-1.2984	0.0136	-0.0139	0.0172	45.2910	-5.7652	3.2437	0.4042	-0.6092	0.4420	0.5197
5.5	-9.6052	-0.2974	-1.3075	0.0082	-0.0082	0.0112	45.4808	-5.8898	3.1322	0.4042	-0.6093	0.4421	0.5197
5.51	-9.6077	-0.3085	-1.3074	0.0114	-0.0078	0.0104	45.5799	-5.9659	3.2239	0.4041	-0.6093	0.4420	0.5197
5.52	-9.6139	-0.3120	-1.3049	0.0067	-0.0160	0.0158	45.3858	-5.9106	3.2637	0.4041	-0.6093	0.4420	0.5197
5.53	-9.6203	-0.3154	-1.3043	0.0114	-0.0110	0.0133	45.4273	-6.0707	3.2509	0.4041	-0.6092	0.4420	0.5197
5.54	-9.6098	-0.3134	-1.3125	0.0122	-0.0108	0.0183	45.3921	-5.8392	3.2479	0.4041	-0.6092	0.4420	0.5197
5.55	-9.6142	-0.3202	-1.3081	0.0139	-0.0113	0.0127	45.2557	-5.8101	3.2507	0.4041	-0.6092	0.4421	0.5197
5.56	-9.6107	-0.3204	-1.3001	0.0144	-0.0074	0.0100	45.2905	-5.9000	3.2346	0.4041	-0.6092	0.4420	0.5197
5.57	-9.6038	-0.3238	-1.2963	0.0085	-0.0108	0.0124	45.5660	-5.7360	3.2757	0.4041	-0.6093	0.4421	0.5197
5.58	-9.6104	-0.3308	-1.3075	0.0128	-0.0166	0.0145	45.5173	-5.9467	3.1919	0.4041	-0.6092	0.4421	0.5197
5.59	-9.6111	-0.3236	-1.3042	0.0143	-0.0200	0.0142	45.3038	-5.6803	3.1969	0.4042	-0.6092	0.4421	0.5198
5.6	-9.6105	-0.3254	-1.2945	0.0096	-0.0132	0.0168	45.3578	-5.8013	3.3585	0.4041	-0.6091	0.4421	0.5197
5.61	-9.6056	-0.3284	-1.2914	0.0162	-0.0124	0.0117	45.0661	-5.8563	3.3212	0.4042	-0.6092	0.4421	0.5198
5.62	-9.6047	-0.3230	-1.2968	0.0141	-0.0079	0.0101	45.3610	-5.7653	3.3273	0.4042	-0.6092	0.4421	0.5197
5.63	-9.6069	-0.3384	-1.2959	0.0057	-0.0061	0.0103	45.6880	-5.7193	3.4077	0.4041	-0.6091	0.4421	0.5197
5.64	-9.6051	-0.3394	-1.3007	0.0004	-0.0074	0.0091	45.5386	-5.5810	3.4434	0.4041	-0.6093	0.4421	0.5198
5.65	-9.6200	-0.3452	-1.3001	0.0051	-0.0067	0.0099	45.3875	-5.6530	3.3443	0.4041	-0.6092	0.4421	0.5197
5.66	-9.6141	-0.3445	-1.2942	0.0038	-0.0080	0.0077	45.2247	-5.5094	3.3817	0.4041	-0.6093	0.4421	0.5197
5.67	-9.6019	-0.3360	-1.3068	0.0041	-0.0092	0.0118	45.1796	-5.7548	3.2368	0.4040	-0.6092	0.4420	0.5197
5.68	-9.6111	-0.3434	-1.3074	0.0065	-0.0074	0.0104	45.2210	-5.7744	2.9179	0.4040	-0.6093	0.4421	0.5197
5.69	-9.6146	-0.3373	-1.3044	0.0078	-0.0106	0.0109	45.4824	-5.8561	3.2247	0.4040	-0.6093	0.4420	0.5197
5.7	-9.6059	-0.3370	-1.3033	0.0121	-0.0153	0.0114	45.2641	-6.0768	3.2758	0.4040	-0.6093	0.4420	0.5197
5.71	-9.6080	-0.3287	-1.2972	0.0075	-0.0133	0.0100	45.3697	-5.9224	3.2324	0.4040	-0.6093	0.4420	0.5197
5.72	-9.6104	-0.3307	-1.3106	0.0092	-0.0103	0.0090	45.4488	-5.8496	3.1594	0.4040	-0.6093	0.4420	0.5197
5.73	-9.6051	-0.3294	-1.2927	0.0195	-0.0095	0.0093	45.4464	-5.8925	3.1318	0.4041	-0.6093	0.4420	0.5197
5.74	-9.6110	-0.3261	-1.2971	0.0093	-0.0095	0.0091	45.3536	-5.7672	2.9529	0.4040	-0.6093	0.4420	0.5196
5.75	-9.6082	-0.3174	-1.2934	0.0096	-0.0100	0.0038	45.3679	-5.9098	3.1267	0.4041	-0.6094	0.4420	0.5197
5.76	-9.6046	-0.3126	-1.2856	0.0126	-0.0098	0.0103	45.4694	-5.9529	3.0215	0.4041	-0.6094	0.4420	0.5196
5.77	-9.6074	-0.3078	-1.2972	0.0132	-0.0101	0.0132	45.4111	-5.9739	3.2537	0.4041	-0.6094	0.4420	0.5197
5.78	-9.6103	-0.3132	-1.2895	0.0045	-0.0118	0.0092	45.4638	-5.7555	3.2433	0.4041	-0.6094	0.4420	0.5196
5.79	-9.6170	-0.3097	-1.2853	0.0120	-0.0042	0.0091	45.1547	-5.8260	3.1543	0.4041	-0.6094	0.4420	0.5196
5.8	-9.6063	-0.3107	-1.2873	0.0073	-0.0096	0.0051	45.1446	-5.8912	3.1190	0.4041	-0.6094	0.4420	0.5196
5.81	-9.6052	-0.3079	-1.2883	0.0109	-0.0087	0.0082	45.2795	-5.8657	3.4108	0.4041	-0.6094	0.4419	0.5195
5.82	-9.6064	-0.3212	-1.2998	0.0036	-0.0055	0.0056	45.1779	-5.8752	3.5386	0.4041	-0.6095	0.4420	0.5196
5.83	-9.6044	-0.3258	-1.3056	0.0030	-0.0086	0.0039	45.3062	-5.5981	3.1961	0.4041	-0.6095	0.4419	0.5196
5.84	-9.6062	-0.3231	-1.2990	-0.0019	-0.0045	0.0079	45.2430	-5.7006	3.3480	0.4041	-0.6096	0.4419	0.5196
5.85	-9.6037	-0.3320	-1.3025	0.0047	-0.0083	0.0057	45.3681	-5.7072	3.2367	0.4040	-0.6096	0.4418	0.5195
5.86	-9.6073	-0.3290	-1.3032	0.0076	-0.0060	0.0074	45.3437	-5.7076	3.1440	0.4040	-0.6096	0.4419	0.5195
5.87	-9.6076	-0.3372	-1.3140	0.0111	-0.0153	0.0112	45.5386	-5.8623	3.1530	0.4040	-0.6096	0.4418	0.5195
5.88	-9.6101	-0.3371	-1.3141	0.0060	-0.0134	0.0118	45.4286	-5.8647	2.9451	0.4040	-0.6096	0.4418	0.5195
5.89	-9.6116	-0.3476	-1.3205	0.0051	-0.0166	0.0123	45.4580	-5.8710	3.1391	0.4040	-0.6097	0.4418	0.5196
5.9	-9.6138	-0.3479	-1.3194	0.0040	-0.0076	0.0090	45.6528	-5.9909	3.1303	0.4039	-0.6097	0.4417	0.5196
5.91	-9.6223	-0.3330	-1.3191	0.0126	-0.0089	0.0101	45.7296	-6.0612	3.1194	0.4039	-0.6097	0.4417	0.5196
5.92	-9.6168	-0.3307	-1.3193	0.0158	-0.0116	0.0117	45.4627	-5.9243	3.2856	0.4039	-0.6097	0.4417	0.5196
5.93	-9.6107	-0.3267	-1.3097	0.0137	-0.0110	0.0035	45.5874	-5.8778	3.2390	0.4039	-0.6097	0.4417	0.5196
5.94	-9.6115	-0.3075	-1.3086	0.0076	-0.0091	0.0068	45.4865	-5.9695	3.2767	0.4039	-0.6098	0.4416	0.5196
5.95	-9.6086	-0.3051	-1.3063	0.0167	-0.0067	0.0069	45.4915	-5.9444	3.1927	0.4039	-0.6098	0.4416	0.5196
5.96	-9.6042	-0.3075	-1.3101	0.0118	-0.0113	0.0126	45.4311	-5.9483	3.0398	0.4039	-0.6098	0.4416	0.5196
5.97	-9.6084	-0.3191	-1.3113	0.0024	-0.0082	0.0135	45.3553	-5.7178	3.3945	0.4039	-0.6098	0.4416	0.5196
5.98	-9.6087	-0.3240	-1.3165	0.0024	-0.0084	0.0087	45.4363	-5.6843	3.1403	0.4039	-0.6099	0.4416	0.5196
5.99	-9.6050	-0.3276	-1.3245	0.0099	-0.0090	0.0045	45.2341	-5.7962	3.0158	0.4038	-0.6098	0.4416	0.5195
6	-9.6047	-0.3273	-1.3108	0.0002	-0.0067	0.0080	45.2034	-5.7815	3.4345	0.4039	-0.6099	0.4416	0.5196
6.01	-9.6102	-0.3313	-1.3243	-0.0019	-0.0047	0.0115	45.3105	-5.8121	3.2240	0.4038	-0.6099	0.4415	0.5196
6.02	-9.6146	-0.3349	-1.3154	0.0063	-0.0120	0.0116	45.4419	-5.7027	3.0724	0.4038	-0.6100	0.4415	0.5196
6.03	-9.6072	-0.3331	-1.3141	0.0065	-0.0069	0.0073	45.4371	-5.7100	3.0590	0.4038	-0.6100	0.4415	0.5196
6.04	-9.6024	-0.3293	-1.3145	0.0055	-0.0071	0.0141	45.2039	-5.7978	3.3472	0.4038	-0.6100	0.4415	0.5196
6.05	-9.6045	-0.3307	-1.3021	0.0025	-0.0071	0.0115	45.1800	-5.8279	3.2646	0.4037	-0.6100	0.4415	0.5196
6.06	-9.6059	-0.3254	-1.2990	0.0021	-0.0150	0.0117	45.2542	-5.9624	3.2546	0.4037	-0.6100	0.4414	0.5196
6.07	-9.6060	-0.3094	-1.2996	0.0076	-0.0141	0.0152	45.3900	-5.9578	3.2355	0.4037	-0.6101	0.4415	0.5196
6.08	-9.6007	-0.3369	-1.2991	0.0071	-0.0191	0.0140	45.5804	-6.2057	3.1683	0.4037	-0.6100	0.4414	0.5197
6.09	-9.6144	-0.3302	-1.3023	0.0034	-0.0086	0.0048	45.4115	-6.1580	3.1632	0.4037	-0.6101	0.4414	0.5197
6.1	-9.6083	-0.3278	-1.2974	0.0031	-0.0153	0.0074	45.5467	-5.9186	3.1993	0.4036	-0.6101	0.4413	0.5197
6.11	-9.5985	-0.3291	-1.3062	0.0046	-0.0108	0.0110	45.4552	-5.8671	3.2131	0.4036	-0.6101	0.4413	0.5197
6.12	-9.6066	-0.3285	-1.3014	0.0030	-0.0156	0.0115	45.3462	-6.0129	3.2318	0.4036	-0.6101	0.4413	0.5198
6.13	-9.6068	-0.3314	-1.3121	0.0066	-0.0107	0.0135	45.8640	-5.7775	3.4914	0.4035	-0.6101	0.4412	0.5197
6.14	-9.6044	-0.3208	-1.3038	0.0066	-0.0094	0.0149	45.8190	-5.6781	3.2045	0.4036	-0.6102	0.4413	0.5198
6.15	-9.6049	-0.3138	-1.2892	0.0107	-0.0164	0.0165	45.5410	-5.8429	3.3510	0.4035	-0.6101	0.4412	0.5198
6.16	-9.6028	-0.3276	-1.2876	0.0048	-0.0143	0.0092	45.2937	-5.5938	3.2950	0.4036	-0.6102	0.4413	0.5199
6.17	-9.6047	-0.3400	-1.2912	0.0105	-0.0123	0.0134	45.1474	-5.5417	3.4186	0.4035	-0.6101	0.4412	0.5198
6.18	-9.6073	-0.3485	-1.2833	0.0084	-0.0054	0.0156	45.3347	-5.7729	3.3373	0.4035	-0.6101	0.4413	0.5198
6.19	-9.6083	-0.3486	-1.2844	0.0124	-0.0077	0.0116	45.1824	-5.7972	3.3486	0.4035	-0.6101	0.4413	0.5198
6.2	-9.6097	-0.3489	-1.2948	0.0094	-0.0094	0.0068	45.2523	-5.7945	3.4115	0.4035	-0.6101	0.4412	0.5198
6.21	-9.6084	-0.3553	-1.3011	0.0116	-0.0084	0.0136	45.3579	-5.7858	3.3079	0.4035	-0.6102	0.4413	0.5198
6.22	-9.6079	-0.3406	-1.3068	0.0068	-0.0092	0.0140	45.2497	-5.9308	3.3971	0.4035	-0.6102	0.4413	0.5198
6.23	-9.6069	-0.3358	-1.3062	0.0102	-0.0108	0.0107	45.4540	-5.9643	3.2708	0.4035	-0.6102	0.4413	0.5198
6.24	-9.5984	-0.3376	-1.3054	0.0083	-0.0143	0.0185	45.4103	-5.9481	3.3533	0.4034	-0.6101	0.4412	0.5198
6.25	-9.5995	-0.3328	-1.2950	0.0128	-0.0152	0.0163	45.3630	-5.9622	3.1650	0.4035	-0.6102	0.4413	0.5199
6.26	-9.6050	-0.3295	-1.2900	0.0116	-0.0129	0.0154	45.6118	-5.7871	3.3155	0.4035	-0.6101	0.4413	0.5199
6.27	-9.6161	-0.3161	-1.3156	0.0138	-0.0065	0.0175	45.5206	-5.8301	3.2379	0.4035	-0.6101	0.4413	0.5199
6.28	-9.5965	-0.3112	-1.2978	0.0140	-0.0105	0.0133	45.5783	-6.0664	3.2309	0.4034	-0.6101	0.4413	0.5198
6.29	-9.6110	-0.3126	-1.3084	0.0163	-0.0075	0.0113	45.6281	-6.0079	3.3429	0.4034	-0.6101	0.4413	0.5198
6.3	-9.6053	-0.3155	-1.3106	0.0168	-0.0082	0.0135	45.4890	-5.8902	3.3153	0.4034	-0.6102	0.4413	0.5198
6.31	-9.6025	-0.3224	-1.3028	0.0110	-0.0079	0.0138	45.3291	-5.8043	3.2337	0.4034	-0.6101	0.4413	0.5198
6.32	-9.6177	-0.3191	-1.3093	0.0111	-0.0095	0.0145	45.4470	-5.6663	3.2023	0.4034	-0.6102	0.4414	0.5199
6.33	-9.6085	-0.3196	-1.3064	0.0098	-0.0092	0.0130	45.4482	-5.7809	3.3975	0.4034	-0.6101	0.4413	0.5198
6.34	-9.6205	-0.3243	-1.3053	0.0133	-0.0134	0.0132	45.5642	-5.9406	3.3526	0.4034	-0.6102	0.4414	0.5199
6.35	-9.6122	-0.3199	-1.2993	0.0147	-0.0071	0.0127	45.3188	-5.6576	3.1923	0.4034	-0.6101	0.4413	0.5198
6.36	-9.6037	-0.3281	-1.2910	0.0159	-0.0164	0.0093	45.3725	-5.6524	3.2331	0.4034	-0.6101	0.4413	0.5198
6.37	-9.6166	-0.3278	-1.2921	0.0091	-0.0106	0.0112	45.3182	-5.7185	3.2015	0.4034	-0.6101	0.4413	0.5198
6.38	-9.6064	-0.3277	-1.2858	0.0111	-0.0117	0.0117	45.4969	-5.7515	3.2386	0.4034	-0.6101	0.4413	0.5198
6.39	-9.6099	-0.3328	-1.2855	0.0118	-0.0097	0.0145	45.5378	-6.0055	3.2968	0.4034	-0.6102	0.4413	0.5199
6.4	-9.6128	-0.3164	-1.2993	0.0091	-0.0058	0.0102	45.3456	-5.7661	3.2363	0.4034	-0.6102	0.4413	0.5198
6.41	-9.6105	-0.3075	-1.2860	0.0074	-0.0072	0.0127	45.1850	-5.6789	3.3408	0.4034	-0.6102	0.4413	0.5199
6.42	-9.6040	-0.3188	-1.2911	0.0210	-0.0090	0.0139	45.2523	-5.8087	3.2020	0.4033	-0.6101	0.4413	0.5198
6.43	-9.6126	-0.3243	-1.2974	0.0141	-0.0165	0.0128	45.3116	-5.7834	3.3296	0.4034	-0.6102	0.4414	0.5198
6.44	-9.6125	-0.3321	-1.3070	0.0146	-0.0140	0.0131	45.4899	-5.7982	3.1357	0.4034	-0.6101	0.4414	0.5198
6.45	-9.6139	-0.3304	-1.3198	0.0085	-0.0109	0.0124	45.3383	-5.7699	3.1293	0.4034	-0.6101	0.4414	0.5198
6.46	-9.6112	-0.3324	-1.3216	0.0104	-0.0081	0.0131	45.4415	-5.8997	3.2277	0.4034	-0.6101	0.4414	0.5198
6.47	-9.6040	-0.3288	-1.3094	0.0129	-0.0095	0.0072	45.4466	-5.9544	3.2440	0.4034	-0.6101	0.4414	0.5198
6.48	-9.6113	-0.3294	-1.3168	0.0077	-0.0109	0.0123	45.5671	-5.7812	3.3948	0.4034	-0.6102	0.4414	0.5198
6.49	-9.6024	-0.3315	-1.3191	0.0110	-0.0094	0.0124	45.3189	-5.7902	3.4021	0.4034	-0.6101	0.4413	0.5198
6.5	-9.6099	-0.3366	-1.3194	0.0128	-0.0149	0.0107	45.3708	-5.8927	3.3870	0.4034	-0.6102	0.4414	0.5198
6.51	-9.6128	-0.3292	-1.3216	0.0103	-0.0136	0.0090	45.6044	-5.8498	3.2719	0.4034	-0.6101	0.4413	0.5198
6.52	-9.6113	-0.3347	-1.3259	0.0119	-0.0177	0.0096	45.5440	-5.9336	3.4063	0.4034	-0.6102	0.4413	0.5199
6.53	-9.6217	-0.3276	-1.3093	0.0142	-0.0153	0.0135	45.3171	-5.9848	3.4004	0.4034	-0.6101	0.4413	0.5199
6.54	-9.6053	-0.3296	-1.3103	0.0139	-0.0116	0.0057	45.2600	-5.7963	3.2749	0.4035	-0.6101	0.4413	0.5198
6.55	-9.6076	-0.3208	-1.3039	0.0096	-0.0069	0.0144	45.2876	-5.8519	3.3427	0.4035	-0.6101	0.4413	0.5198
6.56	-9.6056	-0.3262	-1.2957	0.0085	-0.0081	0.0112	45.5365	-5.8643	3.1999	0.4034	-0.6101	0.4412	0.5198
6.57	-9.6119	-0.3149	-1.2934	0.0110	-0.0184	0.0150	45.4819	-5.9908	3.4619	0.4034	-0.6102	0.4413	0.5199
6.58	-9.6089	-0.3084	-1.2798	0.0101	-0.0142	0.0144	45.2899	-5.8773	3.3124	0.4034	-0.6101	0.4412	0.5199
6.59	-9.6142	-0.3192	-1.2747	0.0095	-0.0082	0.0111	45.2337	-5.7512	3.1521	0.4034	-0.6102	0.4413	0.5199
6.6	-9.6101	-0.3237	-1.2760	0.0139	-0.0065	0.0099	45.4730	-5.8158	3.3658	0.4034	-0.6101	0.4412	0.5198
6.61	-9.6065	-0.3187	-1.2747	0.0126	-0.0111	0.0159	45.4618	-5.8703	3.3577	0.4034	-0.6101	0.4413	0.5199
6.62	-9.6070	-0.3269	-1.2773	0.0171	-0.0127	0.0110	45.3538	-5.7127	3.1484	0.4034	-0.6101	0.4413	0.5199
6.63	-9.6047	-0.3168	-1.2861	0.0192	-0.0132	0.0149	45.7974	-5.7067	3.3973	0.4034	-0.6101	0.4413	0.5198
6.64	-9.6092	-0.3231	-1.2793	0.0125	-0.0130	0.0128	45.7165	-5.5931	3.4261	0.4035	-0.6101	0.4414	0.5199
6.65	-9.6075	-0.3176	-1.2822	0.0193	-0.0103	0.0121	45.6399	-5.8246	3.3188	0.4035	-0.6101	0.4413	0.5198
6.66	-9.6083	-0.3299	-1.2843	0.0097	-0.0145	0.0143	45.3806	-5.8042	3.3089	0.4035	-0.6101	0.4413	0.5199
6.67	-9.6066	-0.3255	-1.2926	0.0038	-0.0079	0.0122	45.2292	-5.8588	3.2540	0.4034	-0.6100	0.4413	0.5198
6.68	-9.6041	-0.3194	-1.3040	0.0047	-0.0079	0.0142	45.4966	-5.8508	3.1927	0.4034	-0.6101	0.4413	0.5199
6.69	-9.6098	-0.3289	-1.2953	0.0164	-0.0076	0.0109	45.1991	-6.0173	3.1157	0.4034	-0.6101	0.4413	0.5199
6.7	-9.6089	-0.3345	-1.2940	0.0142	-0.0096	0.0114	45.2222	-5.9516	3.1639	0.4034	-0.6101	0.4413	0.5199
6.71	-9.6110	-0.3372	-1.3056	0.0096	-0.0145	0.0101	45.4774	-5.9217	3.1870	0.4034	-0.6101	0.4413	0.5199
6.72	-9.6079	-0.3274	-1.3177	0.0068	-0.0058	0.0122	45.3712	-5.6798	3.0820	0.4034	-0.6101	0.4413	0.5199
6.73	-9.6068	-0.3346	-1.3166	0.0042	-0.0098	0.0099	45.3477	-5.7405	3.4711	0.4034	-0.6101	0.4413	0.5199
6.74	-9.6189	-0.3331	-1.3308	0.0039	-0.0080	0.0113	45.2429	-5.7847	3.3537	0.4033	-0.6101	0.4412	0.5198
6.75	-9.6060	-0.3334	-1.3303	-0.0006	-0.0066	0.0086	45.3864	-5.7564	3.1375	0.4034	-0.6102	0.4413	0.5199
6.76	-9.6046	-0.3325	-1.3270	0.0034	-0.0096	0.0063	45.2769	-5.7725	3.0596	0.4033	-0.6102	0.4412	0.5199
6.77	-9.6129	-0.3231	-1.3307	0.0128	-0.0051	0.0094	45.3280	-5.7714	3.1761	0.4033	-0.6102	0.4412	0.5199
6.78	-9.6043	-0.3221	-1.3224	0.0069	-0.0070	0.0021	45.3430	-5.6827	3.1727	0.4033	-0.6102	0.4412	0.5198
6.79	-9.6098	-0.3217	-1.3083	0.0086	-0.0129	0.0064	45.4741	-5.6713	3.3193	0.4034	-0.6103	0.4412	0.5198
6.8	-9.6061	-0.3319	-1.3045	0.0123	-0.0137	0.0166	45.2963	-5.7240	3.1436	0.4034	-0.6103	0.4412	0.5199
6.81	-9.6052	-0.3327	-1.2977	0.0007	-0.0160	0.0118	45.3084	-5.8600	3.0563	0.4033	-0.6102	0.4411	0.5199
6.82	-9.6091	-0.3307	-1.2923	0.0044	-0.0085	0.0064	45.5601	-5.9305	3.1381	0.4033	-0.6103	0.4411	0.5199
6.83	-9.6088	-0.3272	-1.3024	0.0017	-0.0111	0.0048	45.4760	-6.0753	3.1981	0.4033	-0.6103	0.4410	0.5199
6.84	-9.6044	-0.3316	-1.2944	0.0072	-0.0119	0.0108	45.5406	-5.8522	3.1901	0.4033	-0.6104	0.4410	0.5200
6.85	-9.6032	-0.3133	-1.2988	0.0081	-0.0085	0.0127	45.3966	-5.8515	3.1764	0.4032	-0.6103	0.4410	0.5199
6.86	-9.6105	-0.3162	-1.2919	0.0040	-0.0073	0.0051	45.4589	-5.9280	3.0840	0.4032	-0.6104	0.4410	0.5200
6.87	-9.6065	-0.3214	-1.2937	0.0074	-0.0086	0.0105	45.3626	-5.6391	2.9154	0.4032	-0.6104	0.4409	0.5200
6.88	-9.6072	-0.3230	-1.2930	0.0064	-0.0089	0.0137	45.3918	-5.7726	3.2953	0.4032	-0.6104	0.4409	0.5199
6.89	-9.6114	-0.3303	-1.2885	0.0016	-0.0147	0.0112	45.5454	-5.8452	3.1352	0.4032	-0.6105	0.4409	0.5200
6.9	-9.6114	-0.3256	-1.2974	0.0068	-0.0122	0.0053	45.3342	-5.9919	3.2913	0.4032	-0.6105	0.4409	0.5200
6.91	-9.6123	-0.3274	-1.2933	0.0049	-0.0054	0.0069	45.1790	-5.5642	3.3076	0.4032	-0.6105	0.4409	0.5200
6.92	-9.6048	-0.3242	-1.2959	-0.0023	-0.0123	0.0063	45.1824	-5.4901	3.2433	0.4031	-0.6105	0.4408	0.5200
6.93	-9.6073	-0.3193	-1.2897	0.0035	-0.0073	0.0070	45.0767	-5.7565	3.1297	0.4031	-0.6106	0.4408	0.5200
6.94	-9.6061	-0.3262	-1.2947	0.0086	-0.0095	0.0060	45.3142	-5.6156	2.9529	0.4031	-0.6106	0.4407	0.5200
6.95	-9.6097	-0.3237	-1.2921	0.0032	-0.0112	0.0066	45.3539	-5.5845	3.3152	0.4031	-0.6106	0.4407	0.5200
6.96	-9.6141	-0.3321	-1.3057	0.0068	-0.0123	0.0022	45.3408	-5.7039	3.1243	0.4032	-0.6106	0.4407	0.5200
6.97	-9.6111	-0.3214	-1.2951	0.0009	-0.0113	0.0096	45.3383	-5.7912	3.2487	0.4031	-0.6106	0.4406	0.5200
6.98	-9.6110	-0.3277	-1.3035	0.0088	-0.0076	0.0063	45.1768	-5.9379	3.0132	0.4031	-0.6107	0.4406	0.5200
6.99	-9.6077	-0.3372	-1.3051	0.0047	-0.0148	0.0114	45.2535	-5.9183	3.0904	0.4031	-0.6106	0.4406	0.5200
7	-9.6086	-0.3309	-1.3011	0.0057	-0.0125	0.0125	45.4741	-5.9630	3.2897	0.4031	-0.6107	0.4406	0.5201
7.01	-9.6076	-0.3304	-1.2930	0.0139	-0.0123	0.0079	45.3754	-5.9931	3.1667	0.4031	-0.6107	0.4406	0.5200
7.02	-9.6071	-0.3342	-1.3097	0.0071	-0.0087	0.0155	45.5699	-5.8852	3.1357	0.4031	-0.6107	0.4406	0.5201
7.03	-9.6088	-0.3262	-1.3136	0.0096	-0.0086	0.0121	45.6839	-6.0386	3.0063	0.4031	-0.6107	0.4405	0.5201
7.04	-9.6139	-0.3189	-1.3044	0.0105	-0.0121	0.0103	45.5599	-5.8655	2.9976	0.4030	-0.6107	0.4405	0.5201
7.05	-9.6139	-0.3322	-1.3191	0.0090	-0.0117	0.0041	45.4307	-6.0254	3.2831	0.4031	-0.6108	0.4405	0.5201
7.06	-9.6101	-0.3182	-1.3199	0.0045	-0.0100	0.0077	45.4324	-5.9304	3.1099	0.4030	-0.6107	0.4404	0.5201
7.07	-9.6061	-0.3216	-1.3295	0.0119	-0.0138	0.0123	45.4075	-5.8418	3.0028	0.4031	-0.6108	0.4405	0.5201
7.08	-9.6088	-0.3151	-1.3416	0.0073	-0.0165	0.0140	45.6158	-5.9561	3.2660	0.4030	-0.6108	0.4404	0.5202
7.09	-9.6105	-0.3209	-1.3485	0.0064	-0.0111	0.0124	45.1981	-5.6684	3.0877	0.4030	-0.6108	0.4404	0.5202
7.1	-9.6143	-0.3273	-1.3616	0.0087	-0.0053	0.0085	45.2846	-5.7784	2.9922	0.4030	-0.6108	0.4403	0.5201
7.11	-9.6202	-0.3224	-1.3722	-0.0026	-0.0092	0.0053	45.3054	-5.7579	3.1400	0.4030	-0.6109	0.4403	0.5202
7.12	-9.6034	-0.3119	-1.3503	-0.0021	-0.0149	0.0087	45.3786	-5.7860	3.1873	0.4030	-0.6109	0.4403	0.5202
7.13	-9.6058	-0.3141	-1.3152	-0.0021	-0.0117	0.0086	45.8967	-5.6713	3.2026	0.4029	-0.6109	0.4402	0.5202
7.14	-9.6076	-0.3131	-1.3005	0.0134	-0.0151	0.0154	45.7899	-5.6751	3.0593	0.4030	-0.6109	0.4402	0.5203
7.15	-9.6043	-0.3121	-1.2818	0.0129	-0.0150	0.0081	45.5796	-5.6812	3.3263	0.4029	-0.6109	0.4402	0.5203
7.16	-9.6048	-0.3260	-1.2619	-0.0006	-0.0145	0.0110	45.3578	-5.8162	3.3477	0.4030	-0.6109	0.4402	0.5203
7.17	-9.6086	-0.3247	-1.2367	0.0070	-0.0119	0.0171	45.3505	-5.6984	3.2745	0.4029	-0.6108	0.4401	0.5203
7.18	-9.6104	-0.3379	-1.2361	0.0033	-0.0149	0.0191	45.3395	-5.7422	3.3674	0.4029	-0.6109	0.4402	0.5204
7.19	-9.6060	-0.3370	-1.2375	0.0084	-0.0136	0.0158	45.2484	-5.9232	3.2706	0.4029	-0.6109	0.4402	0.5204
7.2	-9.6061	-0.3383	-1.2148	0.0120	-0.0181	0.0166	45.5462	-5.8214	3.2387	0.4029	-0.6108	0.4401	0.5204
7.21	-9.6116	-0.3494	-1.2103	0.0192	-0.0144	0.0154	45.4000	-5.9929	3.0841	0.4029	-0.6108	0.4402	0.5205
7.22	-9.5985	-0.3425	-1.2139	0.0036	-0.0090	0.0139	45.3626	-5.8995	3.4012	0.4029	-0.6108	0.4402	0.5205
7.23	-9.6073	-0.3443	-1.2316	0.0099	-0.0079	0.0195	45.4607	-5.8613	3.3147	0.4028	-0.6108	0.4402	0.5205
7.24	-9.6086	-0.3399	-1.2389	0.0103	-0.0076	0.0174	45.4105	-5.8661	3.2045	0.4028	-0.6107	0.4402	0.5204
7.25	-9.6040	-0.3370	-1.2594	0.0064	-0.0087	0.0133	45.3568	-5.7798	3.1785	0.4028	-0.6108	0.4402	0.5205
7.26	-9.6145	-0.3266	-1.2794	0.0153	-0.0093	0.0110	45.4783	-6.0629	3.1055	0.4028	-0.6108	0.4402	0.5205
7.27	-9.6120	-0.3256	-1.2862	0.0115	-0.0112	0.0132	45.3368	-5.9587	3.3955	0.4028	-0.6108	0.4402	0.5205
7.28	-9.6064	-0.3246	-1.3086	0.0111	-0.0083	0.0169	45.4388	-5.8655	3.2837	0.4028	-0.6108	0.4402	0.5205
7.29	-9.6157	-0.3184	-1.3294	0.0087	-0.0091	0.0136	45.4231	-5.8529	3.1624	0.4028	-0.6108	0.4402	0.5205
7.3	-9.6274	-0.3223	-1.3521	0.0142	-0.0138	0.0138	45.2726	-5.9006	3.2701	0.4028	-0.6108	0.4403	0.5205
7.31	-9.6160	-0.3256	-1.3574	0.0167	-0.0065	0.0123	45.2668	-5.7707	3.2927	0.4028	-0.6107	0.4402	0.5204
7.32	-9.6176	-0.3345	-1.3739	0.0151	-0.0071	0.0117	45.2663	-5.7282	3.2761	0.4028	-0.6108	0.4403	0.5205
7.33	-9.6100	-0.3107	-1.3780	0.0142	-0.0096	0.0123	45.2774	-5.7620	3.2915	0.4028	-0.6107	0.4403	0.5204
7.34	-9.6089	-0.3031	-1.3890	0.0159	-0.0093	0.0144	45.2490	-5.7176	3.5350	0.4028	-0.6108	0.4404	0.5205
7.35	-9.6092	-0.2962	-1.3925	0.0167	-0.0078	0.0116	45.2897	-6.0005	3.4888	0.4028	-0.6107	0.4403	0.5204
7.36	-9.6173	-0.3039	-1.3837	0.0164	-0.0092	0.0164	45.2144	-5.8110	3.2972	0.4028	-0.6107	0.4404	0.5204
7.37	-9.6223	-0.3058	-1.3721	0.0188	-0.0145	0.0159	45.2513	-5.7831	3.1427	0.4028	-0.6107	0.4404	0.5204
7.38	-9.6267	-0.3134	-1.3541	0.0153	-0.0133	0.0120	45.5258	-5.7810	3.3138	0.4028	-0.6106	0.4404	0.5204
7.39	-9.6291	-0.3189	-1.3412	0.0223	-0.0096	0.0091	45.5192	-5.8658	3.1764	0.4029	-0.6107	0.4405	0.5204
7.4	-9.6136	-0.3185	-1.3350	0.0199	-0.0143	0.0107	45.6188	-6.0144	3.1005	0.4029	-0.6106	0.4404	0.5204
7.41	-9.6152	-0.3258	-1.3101	0.0126	-0.0133	0.0140	45.5936	-5.9921	3.1696	0.4029	-0.6107	0.4404	0.5205
7.42	-9.6105	-0.3137	-1.3059	0.0177	-0.0157	0.0174	45.5197	-5.7778	3.3290	0.4029	-0.6106	0.4404	0.5204
7.43	-9.6112	-0.3219	-1.2906	0.0220	-0.0165	0.0160	45.3897	-5.6544	3.1153	0.4029	-0.6106	0.4405	0.5205
7.44	-9.6098	-0.3240	-1.2762	0.0151	-0.0139	0.0116	45.3459	-5.8070	3.0175	0.4030	-0.6105	0.4405	0.5204
7.45	-9.6040	-0.3275	-1.2698	0.0144	-0.0150	0.0121	45.3635	-5.9035	3.2384	0.4030	-0.6105	0.4405	0.5204
7.46	-9.6098	-0.3335	-1.2545	0.0175	-0.0094	0.0158	45.2562	-5.7680	3.1639	0.4030	-0.6105	0.4405	0.5205
7.47	-9.6079	-0.3278	-1.2573	0.0169	-0.0117	0.0167	45.4051	-5.6566	3.2439	0.4030	-0.6105	0.4405	0.5204
7.48	-9.6107	-0.3305	-1.2614	0.0138	-0.0097	0.0115	45.4392	-5.6265	3.2934	0.4030	-0.6105	0.4406	0.5205
7.49	-9.6048	-0.3266	-1.2427	0.0118	-0.0082	0.0135	45.4245	-5.8961	3.2856	0.4030	-0.6104	0.4405	0.5204
7.5	-9.6053	-0.3275	-1.2533	0.0182	-0.0071	0.0146	45.3333	-5.9480	3.3909	0.4030	-0.6105	0.4406	0.5204
7.51	-9.6054	-0.3305	-1.2666	0.0182	-0.0047	0.0132	45.2220	-5.8183	3.2225	0.4030	-0.6104	0.4406	0.5204
7.52	-9.6046	-0.3272	-1.2752	0.0149	-0.0108	0.0093	45.3678	-5.7485	3.4069	0.4030	-0.6104	0.4407	0.5204
7.53	-9.6098	-0.3337	-1.2819	0.0164	-0.0084	0.0112	45.3139	-5.9177	3.1714	0.4030	-0.6104	0.4407	0.5203
7.54	-9.6101	-0.3371	-1.2885	0.0145	-0.0108	0.0129	45.4330	-5.7885	3.1066	0.4031	-0.6104	0.4407	0.5203
7.55	-9.6080	-0.3343	-1.2888	0.0176	-0.0129	0.0128	45.3158	-5.6858	3.2871	0.4031	-0.6104	0.4407	0.5203
7.56	-9.6076	-0.3428	-1.3044	0.0209	-0.0096	0.0145	45.2993	-5.6889	3.2865	0.4031	-0.6103	0.4407	0.5203
7.57	-9.6044	-0.3399	-1.3087	0.0182	-0.0121	0.0134	45.6604	-5.8350	3.0926	0.4031	-0.6104	0.4408	0.5204
7.58	-9.6117	-0.3373	-1.3157	0.0182	-0.0061	0.0150	45.5600	-5.8073	3.2677	0.4031	-0.6103	0.4407	0.5203
7.59	-9.6143	-0.3262	-1.3238	0.0197	-0.0108	0.0174	45.3804	-5.8562	3.0794	0.4031	-0.6104	0.4408	0.5203
7.6	-9.6090	-0.3294	-1.3254	0.0236	-0.0115	0.0157	45.3342	-5.7766	3.3124	0.4031	-0.6102	0.4408	0.5203
7.61	-9.6093	-0.3209	-1.3195	0.0227	-0.0098	0.0140	45.4500	-5.7176	3.2529	0.4032	-0.6102	0.4409	0.5203
7.62	-9.6138	-0.3208	-1.3124	0.0215	-0.0093	0.0064	45.2936	-5.9431	3.1986	0.4032	-0.6102	0.4409	0.5202
7.63	-9.6083	-0.3299	-1.3171	0.0230	-0.0133	0.0146	45.7606	-5.7519	3.4806	0.4032	-0.6102	0.4409	0.5202
7.64	-9.6008	-0.3285	-1.3090	0.0100	-0.0089	0.0063	45.9101	-5.7885	3.5694	0.4033	-0.6103	0.4410	0.5202
7.65	-9.6081	-0.3313	-1.3130	0.0128	-0.0132	0.0122	45.6115	-5.6289	3.3038	0.4033	-0.6102	0.4409	0.5202
7.66	-9.6067	-0.3293	-1.3138	0.0136	-0.0075	0.0103	45.2727	-5.5395	3.3285	0.4033	-0.6102	0.4410	0.5202
7.67	-9.6039	-0.3187	-1.3112	0.0162	-0.0063	0.0098	45.1605	-5.6735	3.2553	0.4033	-0.6101	0.4409	0.5201
7.68	-9.6180	-0.3195	-1.3109	0.0115	-0.0104	0.0142	45.2999	-5.5893	3.4433	0.4033	-0.6102	0.4410	0.5202
7.69	-9.6100	-0.3195	-1.3005	0.0182	-0.0043	0.0113	45.1194	-5.7307	3.2357	0.4033	-0.6102	0.4410	0.5201
7.7	-9.6038	-0.3190	-1.2816	0.0146	-0.0063	0.0051	45.3047	-5.8362	3.2666	0.4033	-0.6102	0.4410	0.5201
7.71	-9.6103	-0.3115	-1.2873	0.0141	-0.0092	0.0086	45.2298	-5.6731	3.2928	0.4033	-0.6102	0.4410	0.5201
7.72	-9.6171	-0.3065	-1.2907	0.0098	-0.0061	0.0120	45.1041	-5.8806	3.3195	0.4033	-0.6102	0.4410	0.5201
7.73	-9.6071	-0.3003	-1.2900	0.0068	-0.0069	0.0063	45.4464	-5.8222	3.3793	0.4033	-0.6103	0.4410	0.5201
7.74	-9.6067	-0.3026	-1.2897	0.0106	-0.0139	0.0092	45.3569	-5.7596	3.1496	0.4033	-0.6102	0.4410	0.5200
7.75	-9.6109	-0.3110	-1.2790	0.0146	-0.0172	0.0143	45.3288	-5.9310	3.2720	0.4034	-0.6102	0.4410	0.5201
7.76	-9.6105	-0.3141	-1.2838	0.0115	-0.0079	0.0128	45.4063	-5.9310	3.2436	0.4033	-0.6102	0.4410	0.5201
7.77	-9.6055	-0.3311	-1.2735	0.0135	-0.0129	0.0114	45.4402	-5.8184	2.9746	0.4034	-0.6102	0.4410	0.5201
7.78	-9.6130	-0.3392	-1.2863	0.0143	-0.0113	0.0113	45.4496	-6.0900	3.2651	0.4034	-0.6102	0.4410	0.5200
7.79	-9.6122	-0.3343	-1.2823	0.0150	-0.0088	0.0100	45.3842	-5.8613	3.1638	0.4034	-0.6102	0.4411	0.5200
7.8	-9.6076	-0.3332	-1.2773	0.0153	-0.0068	0.0079	45.3965	-5.7699	3.1044	0.4034	-0.6102	0.4411	0.5200
7.81	-9.6103	-0.3361	-1.2905	0.0133	-0.0086	0.0029	45.4504	-5.7941	3.1295	0.4034	-0.6102	0.4410	0.5199
7.82	-9.6081	-0.3323	-1.2854	0.0168	-0.0070	0.0096	45.3429	-5.7970	3.1104	0.4035	-0.6102	0.4411	0.5200
7.83	-9.6075	-0.3363	-1.2939	0.0112	-0.0115	0.0084	45.4722	-5.9078	3.2882	0.4035	-0.6102	0.4411	0.5199
7.84	-9.6094	-0.3331	-1.3027	0.0086	-0.0134	0.0160	45.3707	-5.8122	3.2913	0.4035	-0.6102	0.4411	0.5200
7.85	-9.6147	-0.3390	-1.3011	0.0078	-0.0082	0.0100	45.2452	-5.6925	3.2974	0.4034	-0.6102	0.4410	0.5199
7.86	-9.6071	-0.3379	-1.2959	0.0139	-0.0061	0.0084	45.2976	-5.7351	3.3873	0.4034	-0.6102	0.4411	0.5199
7.87	-9.6257	-0.3447	-1.3208	0.0156	-0.0027	0.0074	45.1755	-5.8304	3.3874	0.4035	-0.6102	0.4411	0.5199
7.88	-9.6041	-0.3403	-1.3137	0.0166	-0.0062	0.0091	45.0370	-5.7163	3.3484	0.4034	-0.6102	0.4411	0.5198
7.89	-9.6230	-0.3320	-1.3275	0.0135	-0.0001	0.0051	45.4357	-5.7002	3.4263	0.4035	-0.6103	0.4412	0.5198
7.9	-9.6141	-0.3270	-1.3155	0.0185	-0.0039	0.0125	45.3771	-5.7283	3.4117	0.4035	-0.6103	0.4411	0.5198
7.91	-9.6101	-0.3112	-1.3192	0.0130	-0.0032	0.0056	45.3507	-5.6481	3.2243	0.4035	-0.6103	0.4412	0.5198
7.92	-9.6287	-0.3186	-1.3332	0.0111	-0.0076	0.0074	45.3275	-5.6015	3.4178	0.4035	-0.6103	0.4411	0.5197
7.93	-9.5950	-0.3147	-1.3193	0.0174	-0.0118	0.0126	45.3899	-5.8664	3.1307	0.4035	-0.6103	0.4412	0.5197
7.94	-9.6228	-0.3277	-1.3263	0.0142	-0.0127	0.0105	45.4246	-6.1706	3.3146	0.4035	-0.6103	0.4412	0.5197
7.95	-9.6223	-0.3313	-1.3193	0.0184	-0.0142	0.0120	45.5045	-5.9586	3.2275	0.4035	-0.6103	0.4412	0.5197
7.96	-9.6111	-0.3273	-1.3073	0.0142	-0.0103	0.0069	45.5863	-5.9465	3.2047	0.4035	-0.6103	0.4411	0.5197
7.97	-9.6183	-0.3189	-1.3044	0.0150	-0.0143	0.0093	45.5243	-6.0694	3.2288	0.4035	-0.6103	0.4411	0.5197
7.98	-9.6147	-0.3116	-1.2963	0.0144	-0.0117	0.0087	45.4117	-5.7950	3.1958	0.4036	-0.6103	0.4411	0.5197
7.99	-9.6032	-0.3193	-1.2866	0.0124	-0.0089	0.0077	45.2507	-5.7921	3.2205	0.4035	-0.6103	0.4411	0.5197
8	-9.6060	-0.3119	-1.2888	0.0113	-0.0142	0.0137	45.3573	-5.8836	3.1821	0.4036	-0.6103	0.4411	0.5197
8.01	-9.6045	-0.3147	-1.2789	0.0118	-0.0117	0.0088	45.2492	-5.8883	3.2668	0.4036	-0.6103	0.4411	0.5197
8.02	-9.6229	-0.3125	-1.2828	0.0177	-0.0108	0.0104	45.2662	-5.8147	3.2942	0.4036	-0.6103	0.4411	0.5197
8.03	-9.6189	-0.3217	-1.2788	0.0179	-0.0087	0.0149	45.2947	-5.7036	3.3100	0.4036	-0.6103	0.4411	0.5197
8.04	-9.6183	-0.3185	-1.2864	0.0218	-0.0082	0.0088	45.2015	-5.5823	3.1091	0.4036	-0.6103	0.4412	0.5196
8.05	-9.6110	-0.3105	-1.2797	0.0151	-0.0067	0.0067	45.1148	-5.7476	3.2098	0.4037	-0.6103	0.4412	0.5196
8.06	-9.6091	-0.3223	-1.2808	0.0136	-0.0039	0.0050	45.2939	-5.8304	3.4094	0.4036	-0.6102	0.4411	0.5195
8.07	-9.6116	-0.3272	-1.2926	0.0095	-0.0095	0.0055	45.1701	-5.6691	3.2717	0.4037	-0.6103	0.4412	0.5196
8.08	-9.5993	-0.3260	-1.2802	0.0141	-0.0109	0.0034	45.3167	-5.8994	3.2750	0.4037	-0.6103	0.4411	0.5195
8.09	-9.6124	-0.3292	-1.2905	0.0104	-0.0061	0.0059	45.2237	-5.7932	3.4121	0.4038	-0.6104	0.4412	0.5195
8.1	-9.6147	-0.3299	-1.3021	0.0044	-0.0060	0.0111	45.3869	-5.8122	3.6022	0.4037	-0.6103	0.4411	0.5195
8.11	-9.6090	-0.3292	-1.2851	0.0165	-0.0075	0.0115	45.1724	-5.7446	3.2777	0.4037	-0.6104	0.4412	0.5195
8.12	-9.6209	-0.3388	-1.2981	0.0168	-0.0069	0.0077	45.3209	-5.7730	3.3395	0.4037	-0.6104	0.4412	0.5195
8.13	-9.6105	-0.3341	-1.2908	0.0102	-0.0095	0.0057	45.8683	-5.9966	3.4863	0.4037	-0.6104	0.4411	0.5194
8.14	-9.6132	-0.3338	-1.2909	0.0188	-0.0148	0.0149	45.8126	-5.8195	3.4907	0.4038	-0.6104	0.4412	0.5195
8.15	-9.6067	-0.3333	-1.3162	0.0180	-0.0103	0.0150	45.6577	-5.8587	3.3524	0.4037	-0.6104	0.4411	0.5194
8.16	-9.6042	-0.3368	-1.3107	0.0196	-0.0154	0.0127	45.5522	-5.8693	3.3316	0.4038	-0.6104	0.4412	0.5195
8.17	-9.6077	-0.3234	-1.3062	0.0166	-0.0095	0.0122	45.3030	-5.8778	3.3020	0.4037	-0.6103	0.4411	0.5194
8.18	-9.6215	-0.3318	-1.3048	0.0101	-0.0078	0.0095	45.4015	-5.8389	3.0619	0.4038	-0.6104	0.4412	0.5194
8.19	-9.6085	-0.3308	-1.3009	0.0096	-0.0100	0.0125	45.4025	-5.7257	3.1826	0.4037	-0.6104	0.4412	0.5194
8.2	-9.6141	-0.3342	-1.3039	0.0169	-0.0119	0.0136	45.2898	-5.8695	3.2578	0.4038	-0.6103	0.4412	0.5194
8.21	-9.6128	-0.3429	-1.2996	0.0161	-0.0163	0.0132	45.5583	-5.8322	3.5309	0.4038	-0.6103	0.4412	0.5195
8.22	-9.6136	-0.3351	-1.3122	0.0126	-0.0091	0.0164	45.3155	-5.8900	3.2660	0.4038	-0.6103	0.4412	0.5194
8.23	-9.6129	-0.3326	-1.3178	0.0058	-0.0036	0.0160	45.4461	-5.7601	3.4308	0.4037	-0.6103	0.4412	0.5195
8.24	-9.6100	-0.3246	-1.3119	0.0142	-0.0128	0.0119	45.2272	-5.8786	3.4739	0.4037	-0.6103	0.4412	0.5194
8.25	-9.6106	-0.3259	-1.3021	0.0101	-0.0125	0.0097	45.4045	-5.7109	3.4902	0.4038	-0.6103	0.4412	0.5195
8.26	-9.6156	-0.3189	-1.3050	0.0123	-0.0075	0.0131	45.1928	-5.6048	3.5242	0.4037	-0.6103	0.4412	0.5194
8.27	-9.6162	-0.3125	-1.3034	0.0088	-0.0131	0.0070	45.3176	-5.7832	3.1612	0.4038	-0.6103	0.4412	0.5195
8.28	-9.6043	-0.3018	-1.2987	0.0096	-0.0142	0.0115	45.3386	-5.8594	3.3186	0.4038	-0.6103	0.4412	0.5194
8.29	-9.6181	-0.3045	-1.2976	0.0160	-0.0124	0.0109	45.1678	-5.8434	3.4012	0.4038	-0.6103	0.4412	0.5194
8.3	-9.6088	-0.3062	-1.2985	0.0155	-0.0136	0.0157	45.4652	-5.7256	3.3361	0.4038	-0.6103	0.4413	0.5195
8.31	-9.6108	-0.3021	-1.2968	0.0148	-0.0092	0.0157	45.3413	-5.8648	3.1864	0.4038	-0.6102	0.4412	0.5194
8.32	-9.6156	-0.3032	-1.2892	0.0178	-0.0154	0.0118	45.4070	-5.9443	3.3286	0.4038	-0.6103	0.4413	0.5195
8.33	-9.6145	-0.3090	-1.2921	0.0176	-0.0146	0.0094	45.3658	-5.7841	3.2560	0.4038	-0.6102	0.4413	0.5194
8.34	-9.6090	-0.3170	-1.3001	0.0091	-0.0110	0.0100	45.4672	-5.5523	3.1296	0.4039	-0.6103	0.4413	0.5195
8.35	-9.6099	-0.3244	-1.3082	0.0125	-0.0148	0.0153	45.7400	-5.8001	3.0206	0.4038	-0.6102	0.4412	0.5195
8.36	-9.6124	-0.3264	-1.2904	0.0140	-0.0163	0.0148	45.4331	-5.9395	3.1746	0.4038	-0.6102	0.4412	0.5195
8.37	-9.6126	-0.3221	-1.2847	0.0142	-0.0112	0.0107	45.2816	-5.6461	3.2126	0.4038	-0.6102	0.4412	0.5195
8.38	-9.6076	-0.3274	-1.2839	0.0140	-0.0124	0.0156	45.5676	-5.7781	3.1971	0.4038	-0.6101	0.4412	0.5195
8.39	-9.6123	-0.3325	-1.2858	0.0079	-0.0155	0.0144	45.3862	-5.7623	3.3088	0.4038	-0.6102	0.4413	0.5196
8.4	-9.6145	-0.3321	-1.2855	0.0183	-0.0167	0.0152	45.4336	-5.9147	3.2935	0.4038	-0.6101	0.4412	0.5196
8.41	-9.6056	-0.3350	-1.2903	0.0211	-0.0063	0.0072	45.4626	-5.7102	3.2940	0.4039	-0.6102	0.4413	0.5196
8.42	-9.6176	-0.3298	-1.2920	0.0228	-0.0108	0.0086	45.5457	-5.6675	3.2950	0.4039	-0.6101	0.4413	0.5195
8.43	-9.6256	-0.3425	-1.2928	0.0121	-0.0128	0.0154	45.2415	-5.8066	3.2854	0.4039	-0.6101	0.4413	0.5195
8.44	-9.6101	-0.3410	-1.3073	0.0112	-0.0127	0.0167	45.3543	-5.7457	3.3075	0.4039	-0.6101	0.4413	0.5195
8.45	-9.6029	-0.3442	-1.3070	0.0155	-0.0131	0.0150	45.4745	-5.8375	3.2223	0.4039	-0.6100	0.4413	0.5195
8.46	-9.6173	-0.3379	-1.3023	0.0156	-0.0046	0.0129	45.2209	-5.9629	3.1968	0.4039	-0.6101	0.4414	0.5195
8.47	-9.6094	-0.3258	-1.3027	0.0177	-0.0095	0.0116	45.3022	-5.7911	3.0857	0.4039	-0.6100	0.4414	0.5195
8.48	-9.6074	-0.3325	-1.3014	0.0073	-0.0111	0.0186	45.2035	-5.9756	3.1830	0.4039	-0.6100	0.4414	0.5195
8.49	-9.6250	-0.3341	-1.3047	0.0101	-0.0151	0.0134	45.1525	-5.7545	3.2299	0.4039	-0.6099	0.4414	0.5195
8.5	-9.6223	-0.3258	-1.3116	0.0194	-0.0092	0.0135	45.5109	-5.8050	3.0639	0.4039	-0.6100	0.4415	0.5195
8.51	-9.6065	-0.3345	-1.2983	0.0257	-0.0133	0.0140	45.6233	-5.9599	3.2315	0.4039	-0.6100	0.4414	0.5195
8.52	-9.6175	-0.3266	-1.3042	0.0174	-0.0111	0.0117	45.5106	-5.7143	3.3408	0.4040	-0.6100	0.4415	0.5195
8.53	-9.6220	-0.3234	-1.3082	0.0116	-0.0119	0.0144	45.4168	-5.9016	3.1699	0.4040	-0.6099	0.4415	0.5195
8.54	-9.6101	-0.3142	-1.3021	0.0119	-0.0138	0.0160	45.5311	-5.7877	3.3725	0.4039	-0.6099	0.4415	0.5195
8.55	-9.6089	-0.3224	-1.3032	0.0124	-0.0104	0.0157	45.2857	-5.8178	3.1506	0.4039	-0.6099	0.4415	0.5196
8.56	-9.6107	-0.3180	-1.3017	0.0198	-0.0138	0.0137	45.2516	-5.8811	3.1000	0.4039	-0.6098	0.4415	0.5195
8.57	-9.6150	-0.3182	-1.2915	0.0100	-0.0167	0.0124	45.3644	-5.7432	3.2231	0.4040	-0.6099	0.4415	0.5196
8.58	-9.6065	-0.3339	-1.2920	0.0148	-0.0195	0.0111	45.4778	-5.6500	3.2047	0.4040	-0.6098	0.4415	0.5196
8.59	-9.6150	-0.3324	-1.2911	0.0204	-0.0074	0.0119	45.5253	-5.7771	3.1894	0.4041	-0.6099	0.4416	0.5196
8.6	-9.6068	-0.3290	-1.2950	0.0145	-0.0205	0.0109	45.4247	-5.6752	3.3163	0.4040	-0.6098	0.4415	0.5196
8.61	-9.6037	-0.3295	-1.3005	0.0204	-0.0159	0.0157	45.2843	-5.7142	3.2479	0.4041	-0.6098	0.4415	0.5196
8.62	-9.6069	-0.3148	-1.3030	0.0085	-0.0157	0.0131	45.3103	-5.7963	3.4079	0.4041	-0.6097	0.4415	0.5196
8.63	-9.6029	-0.3252	-1.2977	0.0175	-0.0117	0.0062	45.6106	-5.7544	3.5052	0.4041	-0.6097	0.4415	0.5196
8.64	-9.6099	-0.3148	-1.3033	0.0091	-0.0042	0.0081	45.5608	-5.7749	3.3617	0.4041	-0.6098	0.4416	0.5196
8.65	-9.6092	-0.3170	-1.2928	0.0041	-0.0063	0.0048	45.4145	-5.7110	3.3990	0.4041	-0.6098	0.4415	0.5196
8.66	-9.6167	-0.3224	-1.2905	0.0106	-0.0083	0.0024	45.2079	-5.7220	3.3897	0.4041	-0.6098	0.4415	0.5196
8.67	-9.6089	-0.3170	-1.2935	0.0076	-0.0064	0.0080	45.0649	-5.8160	3.3570	0.4041	-0.6098	0.4414	0.5195
8.68	-9.6169	-0.3287	-1.3000	0.0120	-0.0108	0.0122	45.3686	-5.9046	3.2512	0.4041	-0.6098	0.4415	0.5195
8.69	-9.6110	-0.3220	-1.3148	0.0129	-0.0148	0.0127	45.4772	-5.9906	3.1272	0.4041	-0.6098	0.4415	0.5195
8.7	-9.6224	-0.3391	-1.3132	0.0109	-0.0143	0.0124	45.6168	-5.8572	3.1015	0.4041	-0.6098	0.4414	0.5196
8.71	-9.6093	-0.3335	-1.3178	0.0058	-0.0145	0.0098	45.4950	-5.9733	3.0985	0.4041	-0.6099	0.4414	0.5196
8.72	-9.6041	-0.3329	-1.3283	0.0082	-0.0068	0.0106	45.4301	-5.8068	3.2606	0.4040	-0.6099	0.4414	0.5196
8.73	-9.6107	-0.3326	-1.3242	0.0074	-0.0096	0.0073	45.3921	-5.8249	3.2345	0.4041	-0.6099	0.4414	0.5196
8.74	-9.6057	-0.3446	-1.3170	0.0026	-0.0089	0.0083	45.3259	-5.9824	3.0857	0.4040	-0.6098	0.4413	0.5196
8.75	-9.6076	-0.3424	-1.3136	0.0039	-0.0108	0.0094	45.3906	-5.9377	3.2103	0.4040	-0.6099	0.4413	0.5196
8.76	-9.6101	-0.3293	-1.2992	0.0088	-0.0110	0.0045	45.2914	-5.8447	3.1852	0.4040	-0.6099	0.4413	0.5196
8.77	-9.6174	-0.3365	-1.2870	0.0082	-0.0131	0.0074	45.3117	-5.9226	3.1794	0.4040	-0.6100	0.4413	0.5196
8.78	-9.6132	-0.3292	-1.2759	0.0049	-0.0109	0.0086	45.5523	-5.6541	3.2100	0.4040	-0.6099	0.4412	0.5196
8.79	-9.6042	-0.3235	-1.2698	0.0057	-0.0136	0.0049	45.3723	-5.7768	3.1356	0.4040	-0.6100	0.4412	0.5196
8.8	-9.6146	-0.3263	-1.2586	0.0038	-0.0075	0.0088	45.3571	-5.7308	3.3278	0.4040	-0.6100	0.4412	0.5197
8.81	-9.6072	-0.3298	-1.2741	0.0047	-0.0105	0.0044	45.2858	-5.7795	3.3066	0.4040	-0.6100	0.4411	0.5196
8.82	-9.6029	-0.3184	-1.2728	0.0035	-0.0043	0.0098	45.1644	-5.7991	3.0485	0.4040	-0.6101	0.4412	0.5197
8.83	-9.6071	-0.3192	-1.2820	0.0037	-0.0094	0.0099	45.1076	-5.6864	3.2604	0.4040	-0.6101	0.4411	0.5196
8.84	-9.6048	-0.3165	-1.2863	0.0035	-0.0060	0.0045	45.3433	-5.9685	3.2930	0.4040	-0.6102	0.4411	0.5197
8.85	-9.6103	-0.3175	-1.2822	0.0057	-0.0085	0.0115	45.3783	-5.9586	3.1735	0.4039	-0.6101	0.4411	0.5196
8.86	-9.6168	-0.3198	-1.2937	0.0128	-0.0106	0.0084	45.2031	-5.7373	3.3246	0.4039	-0.6101	0.4411	0.5196
8.87	-9.6204	-0.3197	-1.2877	0.0069	-0.0114	0.0072	45.0762	-5.7153	3.1487	0.4039	-0.6101	0.4411	0.5196
8.88	-9.6146	-0.3256	-1.2990	0.0088	-0.0161	0.0113	45.5091	-6.0244	3.0696	0.4039	-0.6101	0.4410	0.5196
8.89	-9.6167	-0.3266	-1.3090	0.0101	-0.0105	0.0100	45.7251	-6.2370	3.2437	0.4039	-0.6102	0.4410	0.5197
8.9	-9.6106	-0.3234	-1.3053	0.0082	-0.0110	0.0123	45.3646	-5.9059	3.2998	0.4039	-0.6102	0.4410	0.5197
8.91	-9.6074	-0.3271	-1.2981	0.0131	-0.0107	0.0089	45.4128	-5.8701	3.2209	0.4039	-0.6102	0.4410	0.5197
8.92	-9.6100	-0.3287	-1.3173	0.0081	-0.0118	0.0075	45.4492	-5.8671	3.0932	0.4039	-0.6101	0.4409	0.5197
8.93	-9.6089	-0.3276	-1.3127	0.0077	-0.0081	0.0090	45.3372	-5.8920	2.9917	0.4039	-0.6102	0.4410	0.5197
8.94	-9.6174	-0.3244	-1.3145	0.0064	-0.0084	0.0116	45.3666	-5.9918	3.2163	0.4039	-0.6102	0.4410	0.5197
8.95	-9.6199	-0.3224	-1.3250	0.0087	-0.0099	0.0126	45.3519	-5.8865	3.0866	0.4039	-0.6102	0.4409	0.5197
8.96	-9.6268	-0.3329	-1.3154	0.0083	-0.0108	0.0118	45.3571	-5.7734	3.2158	0.4039	-0.6102	0.4410	0.5197
8.97	-9.6161	-0.3280	-1.3313	0.0063	-0.0082	0.0147	45.3533	-5.6930	3.2585	0.4038	-0.6102	0.4409	0.5197
8.98	-9.6134	-0.3309	-1.3269	0.0019	-0.0059	0.0033	45.3516	-5.7207	3.1421	0.4038	-0.6103	0.4409	0.5197
8.99	-9.6097	-0.3293	-1.3204	0.0026	-0.0091	0.0095	45.3643	-5.7012	3.2802	0.4038	-0.6102	0.4409	0.5197
9	-9.6197	-0.3276	-1.3143	0.0115	-0.0071	0.0061	45.2309	-5.7242	3.2796	0.4038	-0.6103	0.4409	0.5197
9.01	-9.6085	-0.3286	-1.3057	0.0098	-0.0038	0.0080	45.1929	-5.8421	3.2280	0.4038	-0.6103	0.4409	0.5197
9.02	-9.6113	-0.3248	-1.3082	0.0052	-0.0100	0.0044	45.1758	-5.6973	3.1577	0.4038	-0.6104	0.4409	0.5197
9.03	-9.6166	-0.3398	-1.2996	0.0044	-0.0093	0.0105	45.2992	-5.8157	3.1973	0.4038	-0.6104	0.4408	0.5197
9.04	-9.6028	-0.3371	-1.2915	0.0060	-0.0087	0.0101	45.4549	-5.7565	3.2998	0.4038	-0.6104	0.4408	0.5197
9.05	-9.6178	-0.3396	-1.2873	0.0093	-0.0118	0.0082	45.2665	-5.7114	3.0359	0.4038	-0.6104	0.4408	0.5197
9.06	-9.6223	-0.3398	-1.2794	0.0121	-0.0131	0.0120	45.3173	-5.9891	3.3769	0.4037	-0.6103	0.4408	0.5197
9.07	-9.6127	-0.3281	-1.2815	0.0085	-0.0159	0.0102	45.5915	-5.9290	3.2598	0.4038	-0.6104	0.4408	0.5198
9.08	-9.6134	-0.3224	-1.2860	0.0033	-0.0146	0.0051	45.6637	-5.8599	3.1693	0.4037	-0.6104	0.4407	0.5198
9.09	-9.6084	-0.3192	-1.2916	0.0032	-0.0085	0.0084	45.3395	-6.0813	2.9460	0.4037	-0.6105	0.4407	0.5198
9.1	-9.6115	-0.3180	-1.3056	0.0103	-0.0081	0.0051	45.3841	-5.9195	2.9983	0.4037	-0.6105	0.4406	0.5197
9.11	-9.6078	-0.3196	-1.2964	0.0085	-0.0096	0.0073	45.2133	-5.9062	3.1498	0.4037	-0.6105	0.4406	0.5198
9.12	-9.6050	-0.3252	-1.3025	0.0065	-0.0095	0.0081	45.4082	-5.9439	3.2311	0.4037	-0.6105	0.4406	0.5198
9.13	-9.6112	-0.3327	-1.3017	0.0052	-0.0117	0.0108	45.6963	-5.7591	3.3781	0.4037	-0.6105	0.4405	0.5198
9.14	-9.6085	-0.3381	-1.3020	0.0061	-0.0154	0.0140	45.6632	-5.8908	3.4545	0.4037	-0.6106	0.4406	0.5199
9.15	-9.6054	-0.3426	-1.2914	0.0014	-0.0139	0.0165	45.4494	-5.6916	3.3933	0.4036	-0.6105	0.4405	0.5199
9.16	-9.6092	-0.3385	-1.2930	0.0058	-0.0139	0.0132	45.3263	-5.7801	3.3814	0.4036	-0.6106	0.4405	0.5199
9.17	-9.6050	-0.3306	-1.3060	0.0059	-0.0104	0.0128	45.1656	-5.8786	3.1779	0.4036	-0.6105	0.4405	0.5199
9.18	-9.6038	-0.3304	-1.3084	-0.0004	-0.0086	0.0157	45.2071	-5.8612	3.3516	0.4036	-0.6106	0.4405	0.5199
9.19	-9.6101	-0.3249	-1.3123	0.0063	-0.0188	0.0146	45.3123	-5.8367	3.2330	0.4035	-0.6105	0.4405	0.5200
9.2	-9.6150	-0.3185	-1.3124	0.0008	-0.0116	0.0160	45.4231	-5.6075	3.2178	0.4035	-0.6105	0.4405	0.5200
9.21	-9.6044	-0.3124	-1.3189	0.0037	-0.0136	0.0101	45.4378	-5.6698	3.1088	0.4035	-0.6106	0.4405	0.5200
9.22	-9.6061	-0.3175	-1.3189	0.0062	-0.0175	0.0141	45.1725	-5.8632	3.1564	0.4035	-0.6105	0.4404	0.5201
9.23	-9.6094	-0.3173	-1.3126	0.0111	-0.0125	0.0175	45.2501	-5.7827	3.2476	0.4035	-0.6105	0.4405	0.5201
9.24	-9.6111	-0.3257	-1.2981	0.0094	-0.0197	0.0164	45.2571	-5.7924	3.1754	0.4034	-0.6104	0.4404	0.5201
9.25	-9.6102	-0.3369	-1.3067	0.0074	-0.0175	0.0169	45.4724	-5.7148	3.3739	0.4035	-0.6105	0.4405	0.5202
9.26	-9.6189	-0.3303	-1.3077	0.0116	-0.0176	0.0177	45.3594	-5.6195	3.0190	0.4035	-0.6104	0.4404	0.5202
9.27	-9.6103	-0.3274	-1.3124	0.0135	-0.0155	0.0152	45.4034	-5.9637	3.2441	0.4035	-0.6104	0.4405	0.5202
9.28	-9.6054	-0.3302	-1.2993	0.0145	-0.0118	0.0090	45.4331	-5.9308	3.5300	0.4035	-0.6104	0.4405	0.5202
9.29	-9.6079	-0.3174	-1.2971	0.0145	-0.0168	0.0099	45.4148	-5.9168	3.2223	0.4035	-0.6104	0.4405	0.5202
9.3	-9.6049	-0.3095	-1.2945	0.0127	-0.0206	0.0175	45.4372	-5.6297	3.1991	0.4035	-0.6103	0.4405	0.5203
9.31	-9.6054	-0.3039	-1.3032	0.0154	-0.0099	0.0107	45.4040	-5.8674	3.3100	0.4035	-0.6103	0.4404	0.5202
9.32	-9.6060	-0.3002	-1.3036	0.0174	-0.0151	0.0129	45.5369	-5.8392	3.2970	0.4036	-0.6103	0.4405	0.5203
9.33	-9.6148	-0.3154	-1.3045	0.0082	-0.0140	0.0125	45.6071	-5.8700	3.2008	0.4035	-0.6103	0.4404	0.5203
9.34	-9.6162	-0.3265	-1.2981	0.0188	-0.0133	0.0157	45.5463	-5.7763	3.2265	0.4036	-0.6103	0.4405	0.5203
9.35	-9.6018	-0.3262	-1.2914	0.0092	-0.0105	0.0115	45.3241	-5.7685	3.2191	0.4035	-0.6102	0.4404	0.5203
9.36	-9.6090	-0.3541	-1.2942	0.0048	-0.0133	0.0130	45.1429	-5.8789	3.1941	0.4035	-0.6103	0.4405	0.5203
9.37	-9.6107	-0.3626	-1.2906	0.0118	-0.0188	0.0138	45.2423	-5.8513	3.0917	0.4035	-0.6103	0.4404	0.5204
9.38	-9.6099	-0.3785	-1.2837	0.0080	-0.0130	0.0155	45.3347	-5.8491	3.2090	0.4035	-0.6102	0.4404	0.5203
9.39	-9.6101	-0.3816	-1.2745	0.0056	-0.0171	0.0176	45.4494	-5.8688	3.3362	0.4035	-0.6103	0.4405	0.5205
9.4	-9.6045	-0.3915	-1.2718	0.0137	-0.0066	0.0166	45.3967	-5.8111	3.2607	0.4035	-0.6102	0.4405	0.5204
9.41	-9.6133	-0.3829	-1.2827	0.0094	-0.0111	0.0171	45.2766	-5.7620	3.1960	0.4035	-0.6102	0.4405	0.5205
9.42	-9.6062	-0.3625	-1.2942	0.0106	-0.0167	0.0170	45.2487	-5.7704	3.2177	0.4034	-0.6101	0.4405	0.5204
9.43	-9.6053	-0.3549	-1.2980	0.0167	-0.0112	0.0170	45.2860	-5.7922	3.3245	0.4035	-0.6101	0.4405	0.5205
9.44	-9.6139	-0.3280	-1.3001	0.0178	-0.0160	0.0169	45.5283	-5.8740	3.2871	0.4035	-0.6101	0.4405	0.5205
9.45	-9.6070	-0.3058	-1.2998	0.0175	-0.0134	0.0155	45.4264	-5.8343	3.3509	0.4035	-0.6101	0.4406	0.5205
9.46	-9.6052	-0.3029	-1.3013	0.0121	-0.0136	0.0125	45.4237	-5.9471	3.0679	0.4035	-0.6101	0.4406	0.5205
9.47	-9.6172	-0.2893	-1.3119	0.0155	-0.0093	0.0172	45.5525	-5.9359	3.2349	0.4035	-0.6101	0.4406	0.5205
9.48	-9.6139	-0.2873	-1.3121	0.0117	-0.0148	0.0169	45.2323	-5.9017	3.3101	0.4035	-0.6101	0.4406	0.5205
9.49	-9.6102	-0.2898	-1.3176	0.0130	-0.0128	0.0118	45.4375	-5.7469	3.3920	0.4034	-0.6100	0.4406	0.5205
9.5	-9.6262	-0.2791	-1.3226	0.0085	-0.0141	0.0142	45.3828	-5.7903	3.4734	0.4035	-0.6100	0.4406	0.5206
9.51	-9.6178	-0.2922	-1.3376	0.0075	-0.0139	0.0162	45.3873	-6.0408	3.0732	0.4034	-0.6100	0.4406	0.5206
9.52	-9.6169	-0.2851	-1.3223	0.0140	-0.0120	0.0172	45.3965	-5.9385	3.2361	0.4034	-0.6100	0.4406	0.5206
9.53	-9.6079	-0.2827	-1.3218	0.0105	-0.0150	0.0150	45.2305	-5.9511	3.2111	0.4034	-0.6099	0.4406	0.5206
9.54	-9.6119	-0.2927	-1.3269	0.0000	-0.0126	0.0160	45.4015	-5.6659	3.0964	0.4034	-0.6100	0.4406	0.5207
9.55	-9.6081	-0.3018	-1.3209	0.0100	-0.0141	0.0117	45.2759	-5.6164	3.1722	0.4034	-0.6100	0.4406	0.5207
9.56	-9.6059	-0.3043	-1.3167	0.0004	-0.0151	0.0145	45.2409	-5.8122	3.3046	0.4033	-0.6099	0.4405	0.5207
9.57	-9.6055	-0.3173	-1.3272	0.0110	-0.0092	0.0108	45.4693	-5.7342	3.4080	0.4034	-0.6100	0.4406	0.5207
9.58	-9.6093	-0.3372	-1.3093	0.0058	-0.0103	0.0101	45.2308	-5.6973	3.3664	0.4034	-0.6100	0.4406	0.5207
9.59	-9.6070	-0.3304	-1.2981	0.0017	-0.0101	0.0170	45.4011	-5.8775	3.1942	0.4033	-0.6100	0.4406	0.5208
9.6	-9.6051	-0.3342	-1.2981	0.0115	-0.0122	0.0110	45.4434	-5.7501	3.3332	0.4033	-0.6099	0.4405	0.5207
9.61	-9.6066	-0.3574	-1.2928	0.0114	-0.0108	0.0144	45.3005	-5.9009	3.1464	0.4033	-0.6100	0.4406	0.5207
9.62	-9.6118	-0.3676	-1.2937	0.0102	-0.0092	0.0161	45.4228	-5.7795	3.3636	0.4033	-0.6100	0.4406	0.5208
9.63	-9.6032	-0.3675	-1.2763	0.0105	-0.0124	0.0170	45.6736	-5.7714	3.3373	0.4033	-0.6099	0.4406	0.5207
9.64	-9.6113	-0.3697	-1.2778	0.0129	-0.0126	0.0119	45.7492	-5.7383	3.2077	0.4033	-0.6100	0.4407	0.5208
9.65	-9.6097	-0.3662	-1.2785	0.0071	-0.0108	0.0156	45.6496	-5.8257	3.1856	0.4033	-0.6099	0.4406	0.5208
9.66	-9.6058	-0.3687	-1.2856	0.0043	-0.0143	0.0129	45.5107	-5.8800	3.0894	0.4032	-0.6100	0.4406	0.5209
9.67	-9.6055	-0.3522	-1.2804	0.0131	-0.0111	0.0107	45.3099	-5.8672	3.3031	0.4032	-0.6099	0.4406	0.5208
9.68	-9.6102	-0.3566	-1.2836	0.0045	-0.0072	0.0126	45.2583	-5.9553	3.1409	0.4032	-0.6100	0.4406	0.5208
9.69	-9.6051	-0.3476	-1.2862	0.0056	-0.0102	0.0115	45.4513	-5.8042	3.0760	0.4032	-0.6100	0.4406	0.5208
9.7	-9.6083	-0.3471	-1.2897	0.0134	-0.0110	0.0119	45.5317	-5.9078	3.1759	0.4031	-0.6100	0.4405	0.5208
9.71	-9.6196	-0.3417	-1.3027	0.0074	-0.0103	0.0133	45.4740	-5.7078	3.2948	0.4032	-0.6100	0.4406	0.5209
9.72	-9.6122	-0.3295	-1.3067	-0.0003	-0.0111	0.0106	45.2837	-5.7535	3.2503	0.4031	-0.6100	0.4405	0.5209
9.73	-9.6103	-0.3265	-1.3131	0.0029	-0.0067	0.0101	45.2285	-5.7206	3.3171	0.4031	-0.6101	0.4405	0.5209
9.74	-9.6117	-0.3238	-1.3124	0.0067	-0.0129	0.0079	45.3393	-5.6981	3.4659	0.4030	-0.6100	0.4405	0.5208
9.75	-9.6086	-0.3160	-1.3106	0.0030	-0.0076	0.0108	45.4159	-5.7529	3.3244	0.4031	-0.6101	0.4405	0.5209
9.76	-9.6036	-0.3200	-1.3071	0.0080	-0.0093	0.0075	45.3079	-5.5838	3.0875	0.4030	-0.6101	0.4405	0.5209
9.77	-9.6117	-0.3182	-1.3226	0.0068	-0.0065	0.0110	45.3639	-5.8180	3.3812	0.4030	-0.6101	0.4405	0.5209
9.78	-9.6107	-0.3045	-1.3285	0.0039	-0.0056	0.0049	45.2318	-5.6756	3.3169	0.4030	-0.6101	0.4404	0.5209
9.79	-9.6046	-0.3024	-1.3275	0.0112	-0.0094	0.0133	45.1591	-5.6991	3.4341	0.4030	-0.6102	0.4404	0.5209
9.8	-9.6070	-0.2975	-1.3147	0.0092	-0.0136	0.0153	45.1763	-5.7323	3.3276	0.4030	-0.6102	0.4405	0.5209
9.81	-9.6148	-0.3003	-1.3061	0.0024	-0.0116	0.0129	45.2252	-5.8716	3.2503	0.4029	-0.6101	0.4404	0.5209
9.82	-9.6126	-0.3117	-1.3000	0.0079	-0.0061	0.0142	45.3947	-5.9511	3.3658	0.4030	-0.6102	0.4405	0.5209
9.83	-9.6230	-0.3078	-1.2972	0.0079	-0.0106	0.0116	45.2506	-5.9358	3.1360	0.4029	-0.6102	0.4404	0.5209
9.84	-9.6140	-0.3161	-1.2926	0.0120	-0.0173	0.0121	45.3695	-5.9578	3.4351	0.4030	-0.6102	0.4405	0.5210
9.85	-9.6043	-0.3240	-1.2939	0.0092	-0.0108	0.0105	45.5933	-5.8406	3.1545	0.4029	-0.6101	0.4404	0.5209
9.86	-9.6158	-0.3287	-1.2965	0.0086	-0.0154	0.0113	45.5082	-5.8624	2.9806	0.4029	-0.6102	0.4404	0.5209
9.87	-9.6137	-0.3266	-1.3075	0.0086	-0.0065	0.0115	45.5950	-5.6658	3.0564	0.4029	-0.6102	0.4404	0.5209
9.88	-9.6131	-0.3283	-1.3097	0.0002	-0.0181	0.0109	45.3256	-5.7825	3.1962	0.4029	-0.6102	0.4404	0.5209
9.89	-9.6162	-0.3362	-1.3142	0.0129	-0.0162	0.0126	45.2488	-5.8474	3.1742	0.4029	-0.6102	0.4404	0.5210
9.9	-9.6025	-0.3323	-1.3128	0.0056	-0.0160	0.0128	45.2913	-5.7843	3.0709	0.4029	-0.6102	0.4404	0.5210
9.91	-9.6155	-0.3303	-1.3241	-0.0016	-0.0096	0.0104	45.3746	-5.7007	3.3542	0.4029	-0.6102	0.4403	0.5211
9.92	-9.6098	-0.3345	-1.3225	-0.0025	-0.0064	0.0071	45.2224	-5.7143	3.3644	0.4028	-0.6102	0.4403	0.5210
9.93	-9.6078	-0.3342	-1.3153	0.0021	-0.0140	0.0115	45.3915	-5.7379	3.1319	0.4028	-0.6103	0.4403	0.5211
9.94	-9.6043	-0.3461	-1.3073	0.0022	-0.0103	0.0107	45.2582	-5.7645	3.2374	0.4028	-0.6103	0.4402	0.5211
9.95	-9.6128	-0.3650	-1.2947	0.0071	-0.0120	0.0106	45.3232	-5.9181	3.3484	0.4028	-0.6103	0.4402	0.5211
9.96	-9.6021	-0.3541	-1.2818	0.0043	-0.0045	0.0100	45.3304	-5.6553	3.4697	0.4028	-0.6103	0.4402	0.5211
9.97	-9.6071	-0.3509	-1.2748	0.0049	-0.0065	0.0091	45.4729	-5.8141	3.2835	0.4027	-0.6103	0.4402	0.5211
9.98	-9.6162	-0.3469	-1.2729	0.0122	-0.0088	0.0100	45.2897	-5.5586	3.0846	0.4027	-0.6104	0.4402	0.5211
9.99	-9.6053	-0.3444	-1.2769	0.0140	-0.0168	0.0154	45.2484	-5.7920	3.0910	0.4027	-0.6103	0.4402	0.5210
10	-9.6202	-0.3479	-1.2786	0.0030	-0.0130	0.0137	45.3449	-5.8684	3.2118	0.4027	-0.6104	0.4402	0.5211
10.01	-9.6095	-0.3439	-1.2698	0.0078	-0.0083	0.0130	45.5269	-5.8553	3.3201	0.4027	-0.6103	0.4402	0.5211
10.02	-9.6104	-0.3328	-1.2740	0.0126	-0.0178	0.0081	45.5675	-5.8462	3.1845	0.4027	-0.6104	0.4402	0.5211
10.03	-9.6076	-0.3277	-1.2791	0.0068	-0.0160	0.0105	45.2135	-5.8785	3.1986	0.4027	-0.6103	0.4401	0.5211
10.04	-9.6164	-0.3262	-1.2766	0.0101	-0.0110	0.0104	45.3841	-5.8194	3.1542	0.4027	-0.6104	0.4402	0.5211
10.05	-9.6099	-0.3177	-1.2850	0.0146	-0.0137	0.0075	45.3103	-5.7839	3.0716	0.4027	-0.6104	0.4402	0.5211
10.06	-9.6105	-0.3041	-1.2893	0.0082	-0.0170	0.0153	45.4255	-6.0376	3.1745	0.4027	-0.6103	0.4401	0.5211
10.07	-9.6152	-0.2991	-1.2956	0.0135	-0.0099	0.0133	45.4189	-6.0251	3.3361	0.4027	-0.6104	0.4402	0.5212
10.08	-9.6197	-0.3025	-1.3050	0.0138	-0.0139	0.0127	45.5439	-5.8612	3.3282	0.4027	-0.6103	0.4402	0.5211
10.09	-9.6095	-0.3011	-1.3038	0.0044	-0.0144	0.0109	45.4104	-5.8855	3.2646	0.4028	-0.6104	0.4402	0.5212
10.1	-9.6067	-0.2987	-1.3108	0.0020	-0.0108	0.0131	45.4413	-5.6663	3.2657	0.4027	-0.6103	0.4401	0.5211
10.11	-9.6159	-0.2978	-1.3200	0.0004	-0.0148	0.0082	45.2543	-5.6201	3.1789	0.4027	-0.6104	0.4401	0.5212
10.12	-9.6102	-0.3132	-1.3221	0.0048	-0.0086	0.0063	45.1968	-5.7292	3.3169	0.4027	-0.6104	0.4401	0.5212
10.13	-9.6056	-0.3226	-1.3146	-0.0022	-0.0029	0.0019	45.5932	-5.6694	3.5249	0.4026	-0.6104	0.4400	0.5211
10.14	-9.6206	-0.3289	-1.3293	0.0008	-0.0086	0.0109	45.6539	-5.7028	3.6458	0.4026	-0.6106	0.4400	0.5212
10.15	-9.6136	-0.3293	-1.3201	0.0086	-0.0145	0.0094	45.4561	-5.7342	3.1696	0.4026	-0.6105	0.4400	0.5212
10.16	-9.6123	-0.3307	-1.2991	0.0086	-0.0150	0.0075	45.3635	-5.6170	3.2917	0.4026	-0.6105	0.4400	0.5212
10.17	-9.6170	-0.3275	-1.3065	0.0117	-0.0111	0.0190	45.1635	-5.7248	3.1500	0.4026	-0.6104	0.4399	0.5211
10.18	-9.6085	-0.3382	-1.3049	0.0145	-0.0140	0.0158	45.2552	-5.8087	3.1389	0.4026	-0.6105	0.4400	0.5212
10.19	-9.6062	-0.3374	-1.3085	0.0138	-0.0151	0.0137	45.4236	-5.9297	3.1896	0.4026	-0.6105	0.4400	0.5212
10.2	-9.6099	-0.3364	-1.3005	0.0100	-0.0159	0.0157	45.5215	-5.9603	3.0753	0.4026	-0.6104	0.4400	0.5212
10.21	-9.6276	-0.3420	-1.3050	0.0078	-0.0145	0.0139	45.5254	-5.8514	3.0789	0.4026	-0.6105	0.4400	0.5213
10.22	-9.6131	-0.3359	-1.2976	0.0083	-0.0157	0.0152	45.4148	-5.9898	3.1895	0.4026	-0.6104	0.4399	0.5213
10.23	-9.6128	-0.3371	-1.2915	0.0193	-0.0131	0.0179	45.4674	-5.8812	3.1453	0.4026	-0.6104	0.4400	0.5213
10.24	-9.6069	-0.3304	-1.2942	0.0164	-0.0149	0.0145	45.3621	-5.8514	3.1722	0.4026	-0.6103	0.4400	0.5212
10.25	-9.6081	-0.3254	-1.2879	0.0182	-0.0154	0.0143	45.2519	-5.8930	3.1389	0.4026	-0.6104	0.4400	0.5213
10.26	-9.6040	-0.3157	-1.2817	0.0071	-0.0129	0.0092	45.3375	-5.6718	3.0293	0.4026	-0.6104	0.4400	0.5213
10.27	-9.6078	-0.3220	-1.2782	0.0204	-0.0160	0.0150	45.3737	-5.8514	3.1446	0.4027	-0.6104	0.4400	0.5213
10.28	-9.6060	-0.3233	-1.2772	0.0074	-0.0139	0.0089	45.3536	-5.8719	3.2582	0.4027	-0.6103	0.4400	0.5213
10.29	-9.6105	-0.3212	-1.2839	0.0106	-0.0106	0.0155	45.4725	-5.7686	3.2414	0.4027	-0.6103	0.4400	0.5213
10.3	-9.6108	-0.3271	-1.2758	0.0157	-0.0177	0.0095	45.3938	-5.9396	3.2506	0.4027	-0.6103	0.4400	0.5213
10.31	-9.6037	-0.3232	-1.2797	0.0066	-0.0117	0.0077	45.2650	-5.6807	3.2367	0.4027	-0.6103	0.4400	0.5213
10.32	-9.6109	-0.3258	-1.2920	0.0077	-0.0073	0.0191	45.2898	-5.7232	3.2435	0.4027	-0.6104	0.4400	0.5213
10.33	-9.6046	-0.3229	-1.2832	0.0088	-0.0136	0.0119	45.3974	-5.6719	3.2270	0.4026	-0.6103	0.4400	0.5213
10.34	-9.6091	-0.3234	-1.2803	0.0136	-0.0035	0.0115	45.2938	-5.7944	3.0402	0.4027	-0.6104	0.4401	0.5213
10.35	-9.6101	-0.3157	-1.3017	0.0069	-0.0136	0.0161	45.2687	-5.6898	3.1729	0.4026	-0.6103	0.4400	0.5213
10.36	-9.6064	-0.3035	-1.2914	0.0122	-0.0100	0.0155	45.4016	-5.8368	3.2435	0.4026	-0.6103	0.4401	0.5213
10.37	-9.6081	-0.3120	-1.2940	0.0156	-0.0108	0.0185	45.4646	-5.6814	3.1061	0.4026	-0.6103	0.4401	0.5213
10.38	-9.6152	-0.3221	-1.2938	0.0173	-0.0130	0.0153	45.4029	-5.8587	3.2589	0.4026	-0.6103	0.4401	0.5212
10.39	-9.6137	-0.3191	-1.3014	0.0121	-0.0133	0.0157	45.6634	-5.8558	3.2458	0.4026	-0.6103	0.4401	0.5213
10.4	-9.6046	-0.3278	-1.3138	0.0116	-0.0165	0.0153	45.5101	-5.7756	3.2491	0.4026	-0.6103	0.4401	0.5213
10.41	-9.6109	-0.3266	-1.3282	0.0082	-0.0201	0.0171	45.2229	-5.9404	2.9996	0.4026	-0.6103	0.4401	0.5214
10.42	-9.6154	-0.3276	-1.3216	0.0108	-0.0160	0.0169	45.4775	-5.6596	2.9639	0.4026	-0.6102	0.4401	0.5213
10.43	-9.6199	-0.3218	-1.3234	0.0170	-0.0149	0.0141	45.5153	-5.7318	3.1065	0.4026	-0.6102	0.4401	0.5214
10.44	-9.6020	-0.3154	-1.3170	0.0130	-0.0111	0.0174	45.4085	-5.8022	3.2086	0.4026	-0.6102	0.4402	0.5214
10.45	-9.6210	-0.3150	-1.3139	0.0190	-0.0136	0.0153	45.4699	-5.7706	3.2897	0.4026	-0.6101	0.4402	0.5214
10.46	-9.6163	-0.3241	-1.3143	0.0144	-0.0193	0.0127	45.3299	-5.7981	3.0169	0.4027	-0.6101	0.4402	0.5214
10.47	-9.6041	-0.3261	-1.3128	0.0166	-0.0122	0.0108	45.2987	-5.7689	2.9940	0.4027	-0.6101	0.4402	0.5214
10.48	-9.6115	-0.3252	-1.3073	0.0079	-0.0153	0.0104	45.4099	-5.8145	3.1412	0.4027	-0.6101	0.4402	0.5214
10.49	-9.6082	-0.3356	-1.3067	0.0088	-0.0131	0.0071	45.2441	-5.6863	3.2426	0.4027	-0.6101	0.4401	0.5213
10.5	-9.6053	-0.3339	-1.2962	0.0156	-0.0136	0.0085	45.4098	-5.6322	3.2375	0.4028	-0.6101	0.4402	0.5214
10.51	-9.6049	-0.3287	-1.2966	0.0078	-0.0095	0.0088	45.2829	-5.8702	3.2428	0.4027	-0.6101	0.4401	0.5213
10.52	-9.6050	-0.3313	-1.2888	0.0093	-0.0112	0.0117	45.3541	-5.8835	2.9757	0.4028	-0.6102	0.4402	0.5214
10.53	-9.6068	-0.3225	-1.2829	0.0043	-0.0149	0.0117	45.3668	-5.7622	2.9921	0.4027	-0.6101	0.4401	0.5213
10.54	-9.6055	-0.3210	-1.2870	0.0104	-0.0160	0.0064	45.3788	-5.7049	3.1904	0.4028	-0.6101	0.4401	0.5214
10.55	-9.6215	-0.3313	-1.2738	0.0106	-0.0130	0.0111	45.4806	-5.8454	2.9573	0.4028	-0.6102	0.4401	0.5214
10.56	-9.6053	-0.3281	-1.2796	0.0098	-0.0147	0.0138	45.4120	-5.9614	3.0748	0.4027	-0.6101	0.4401	0.5213
10.57	-9.6140	-0.3300	-1.2740	0.0110	-0.0156	0.0144	45.5733	-5.8307	3.0841	0.4028	-0.6102	0.4401	0.5214
10.58	-9.6130	-0.3319	-1.2742	0.0129	-0.0196	0.0129	45.4550	-5.7829	3.1970	0.4028	-0.6101	0.4401	0.5214
10.59	-9.6134	-0.3253	-1.2868	0.0128	-0.0145	0.0148	45.4893	-5.9739	3.0874	0.4028	-0.6102	0.4401	0.5215
10.6	-9.6066	-0.3303	-1.2774	0.0057	-0.0099	0.0137	45.6385	-5.8509	3.0586	0.4027	-0.6101	0.4400	0.5214
10.61	-9.6073	-0.3284	-1.2864	0.0117	-0.0146	0.0101	45.3518	-5.7588	3.2129	0.4027	-0.6101	0.4400	0.5215
10.62	-9.6101	-0.3296	-1.2890	0.0149	-0.0172	0.0125	45.5937	-5.6367	3.2393	0.4028	-0.6101	0.4400	0.5215
10.63	-9.6083	-0.3243	-1.2998	0.0111	-0.0148	0.0152	45.7923	-5.5909	3.3135	0.4028	-0.6101	0.4400	0.5214
10.64	-9.6146	-0.3171	-1.3047	0.0040	-0.0104	0.0129	45.7318	-5.6379	3.4539	0.4028	-0.6102	0.4401	0.5215
10.65	-9.6123	-0.3302	-1.3032	0.0092	-0.0134	0.0115	45.4809	-5.6214	3.2196	0.4027	-0.6101	0.4400	0.5215
10.66	-9.6109	-0.3344	-1.3046	-0.0001	-0.0135	0.0103	45.2035	-5.6524	3.1980	0.4028	-0.6102	0.4400	0.5215
10.67	-9.6078	-0.3262	-1.3028	0.0040	-0.0109	0.0091	45.0735	-5.6405	3.1461	0.4027	-0.6101	0.4399	0.5215
10.68	-9.6059	-0.3294	-1.3147	0.0011	-0.0038	0.0122	45.3350	-5.5434	3.1540	0.4027	-0.6102	0.4400	0.5215
10.69	-9.6120	-0.3363	-1.3257	0.0061	-0.0101	0.0102	45.3486	-5.5055	3.1326	0.4027	-0.6102	0.4399	0.5215
10.7	-9.6038	-0.3260	-1.3076	0.0057	-0.0050	0.0109	45.3342	-5.6978	2.9462	0.4026	-0.6102	0.4399	0.5215
10.71	-9.6098	-0.3286	-1.3164	0.0144	-0.0059	0.0123	45.4540	-5.7826	3.1141	0.4026	-0.6103	0.4400	0.5215
10.72	-9.6080	-0.3182	-1.3129	0.0046	-0.0093	0.0138	45.2582	-5.7223	3.2714	0.4026	-0.6103	0.4399	0.5215
10.73	-9.6119	-0.3186	-1.3131	-0.0024	-0.0081	0.0076	45.1457	-5.8098	3.0357	0.4026	-0.6103	0.4399	0.5215
10.74	-9.6099	-0.3041	-1.3086	0.0027	-0.0144	0.0121	45.2738	-5.8588	3.1690	0.4025	-0.6103	0.4398	0.5215
10.75	-9.6162	-0.3110	-1.3114	0.0111	-0.0154	0.0169	45.3561	-5.9768	3.2659	0.4026	-0.6103	0.4399	0.5215
10.76	-9.6176	-0.3143	-1.3000	0.0128	-0.0143	0.0102	45.3359	-5.9587	3.0880	0.4026	-0.6103	0.4399	0.5215
10.77	-9.6084	-0.3111	-1.2932	0.0126	-0.0141	0.0115	45.3988	-5.8913	3.0750	0.4026	-0.6103	0.4399	0.5215
10.78	-9.6043	-0.3079	-1.2859	0.0132	-0.0084	0.0084	45.5376	-5.8572	3.0731	0.4026	-0.6103	0.4399	0.5215
10.79	-9.6199	-0.3118	-1.2835	0.0063	-0.0073	0.0052	45.5770	-5.7582	3.2157	0.4026	-0.6103	0.4398	0.5215
10.8	-9.6224	-0.3142	-1.2842	0.0107	-0.0110	0.0116	45.2544	-6.0330	3.2674	0.4026	-0.6104	0.4399	0.5215
10.81	-9.6070	-0.3144	-1.2762	0.0106	-0.0166	0.0081	45.3386	-5.9723	3.2367	0.4026	-0.6103	0.4398	0.5214
10.82	-9.6133	-0.3196	-1.2805	0.0021	-0.0128	0.0100	45.2527	-5.8532	3.3668	0.4026	-0.6104	0.4398	0.5215
10.83	-9.6070	-0.3282	-1.2922	0.0013	-0.0104	0.0122	45.4083	-6.0173	3.1454	0.4026	-0.6104	0.4398	0.5215
10.84	-9.6064	-0.3319	-1.2785	0.0150	-0.0092	0.0134	45.4390	-5.8183	3.0385	0.4026	-0.6104	0.4398	0.5215
10.85	-9.6104	-0.3257	-1.2907	0.0110	-0.0144	0.0133	45.4244	-5.6787	3.1043	0.4026	-0.6103	0.4398	0.5215
10.86	-9.6080	-0.3339	-1.2886	0.0001	-0.0104	0.0094	45.3113	-5.7376	3.1364	0.4026	-0.6104	0.4398	0.5215
10.87	-9.6043	-0.3396	-1.2853	0.0097	-0.0084	0.0152	45.2373	-5.8233	3.0622	0.4025	-0.6104	0.4398	0.5215
10.88	-9.6083	-0.3354	-1.2993	0.0068	-0.0096	0.0128	45.3322	-5.7044	3.3709	0.4025	-0.6104	0.4398	0.5215
10.89	-9.6080	-0.3408	-1.3068	0.0033	-0.0077	0.0109	45.4434	-5.7896	3.1195	0.4025	-0.6105	0.4398	0.5215
10.9	-9.6042	-0.3362	-1.3058	0.0038	-0.0071	0.0132	45.4150	-5.8053	3.0563	0.4025	-0.6105	0.4398	0.5215
10.91	-9.6111	-0.3345	-1.3160	0.0051	-0.0067	0.0092	45.2458	-5.7358	3.1158	0.4025	-0.6105	0.4398	0.5215
10.92	-9.6145	-0.3173	-1.3178	0.0080	-0.0077	0.0058	45.3565	-5.6123	3.2747	0.4024	-0.6105	0.4397	0.5214
10.93	-9.6145	-0.3221	-1.3140	0.0127	-0.0141	0.0140	45.3124	-5.8321	3.2093	0.4025	-0.6105	0.4398	0.5215
10.94	-9.6130	-0.3174	-1.3084	0.0141	-0.0152	0.0150	45.4323	-5.9308	3.3276	0.4024	-0.6105	0.4397	0.5215
10.95	-9.6105	-0.3051	-1.3013	0.0122	-0.0149	0.0071	45.5480	-5.9551	2.9964	0.4024	-0.6105	0.4397	0.5215
10.96	-9.6153	-0.3080	-1.3031	0.0089	-0.0148	0.0117	45.4838	-5.9584	3.0046	0.4024	-0.6106	0.4397	0.5215
10.97	-9.6094	-0.3092	-1.3003	0.0135	-0.0137	0.0108	45.4190	-5.9297	3.1974	0.4024	-0.6105	0.4397	0.5215
10.98	-9.6192	-0.3072	-1.3095	0.0139	-0.0155	0.0125	45.6239	-6.0264	3.0081	0.4025	-0.6106	0.4396	0.5216
10.99	-9.6136	-0.3060	-1.3047	0.0043	-0.0071	0.0119	45.4216	-5.9641	3.2186	0.4024	-0.6105	0.4396	0.5215
11	-9.6071	-0.3111	-1.2936	0.0042	-0.0116	0.0140	45.3255	-5.8518	3.1044	0.4024	-0.6106	0.4396	0.5216
11.01	-9.6079	-0.3097	-1.2848	0.0070	-0.0111	0.0106	45.3598	-5.8763	3.2699	0.4024	-0.6106	0.4396	0.5215
11.02	-9.6144	-0.3103	-1.2831	0.0156	-0.0078	0.0175	45.2969	-5.8932	3.0970	0.4024	-0.6106	0.4396	0.5215
11.03	-9.6088	-0.3216	-1.2875	0.0153	-0.0173	0.0091	45.1403	-5.6927	3.0560	0.4024	-0.6106	0.4396	0.5215
11.04	-9.6052	-0.3212	-1.2797	0.0066	-0.0098	0.0089	45.4811	-5.6066	3.3047	0.4024	-0.6106	0.4396	0.5215
11.05	-9.6075	-0.3158	-1.2771	0.0060	-0.0114	0.0066	45.5753	-5.8095	3.1954	0.4024	-0.6106	0.4396	0.5215
11.06	-9.6051	-0.3222	-1.2877	0.0050	-0.0074	-0.0016	45.1157	-5.7110	3.0472	0.4024	-0.6106	0.4395	0.5215
11.07	-9.6106	-0.3203	-1.2859	0.0041	-0.0072	0.0067	45.2502	-5.6174	3.0955	0.4024	-0.6107	0.4395	0.5215
11.08	-9.6091	-0.3199	-1.2848	0.0051	-0.0073	0.0068	45.3376	-5.7627	3.2988	0.4024	-0.6107	0.4395	0.5215
11.09	-9.6100	-0.3266	-1.2910	0.0036	-0.0175	0.0080	45.2099	-5.8596	3.1807	0.4024	-0.6108	0.4395	0.5215
11.1	-9.6064	-0.3338	-1.3023	0.0058	-0.0088	0.0063	45.4665	-5.8885	3.0520	0.4024	-0.6107	0.4394	0.5214
11.11	-9.6142	-0.3388	-1.2998	0.0164	-0.0147	0.0099	45.2883	-5.8451	3.0002	0.4024	-0.6108	0.4394	0.5215
11.12	-9.6193	-0.3482	-1.3156	0.0107	-0.0141	0.0115	45.2944	-5.7620	3.1020	0.4024	-0.6108	0.4394	0.5215
11.13	-9.6102	-0.3485	-1.3204	0.0084	-0.0119	0.0113	45.7490	-5.8594	3.4068	0.4024	-0.6107	0.4394	0.5214
11.14	-9.6049	-0.3525	-1.3172	0.0087	-0.0154	0.0117	45.8241	-5.8796	3.6526	0.4025	-0.6108	0.4394	0.5215
11.15	-9.6086	-0.3471	-1.3154	0.0136	-0.0140	0.0170	45.6510	-5.7818	3.4234	0.4024	-0.6107	0.4394	0.5215
11.16	-9.6097	-0.3377	-1.3073	0.0161	-0.0206	0.0154	45.5523	-5.7121	3.3070	0.4025	-0.6108	0.4395	0.5215
11.17	-9.6162	-0.3406	-1.3113	0.0191	-0.0153	0.0122	45.3961	-5.8075	3.2359	0.4025	-0.6106	0.4394	0.5215
11.18	-9.6141	-0.3409	-1.3082	0.0145	-0.0170	0.0117	45.5886	-5.7722	3.1210	0.4025	-0.6107	0.4395	0.5215
11.19	-9.6157	-0.3366	-1.2958	0.0165	-0.0159	0.0143	45.4069	-5.7777	3.2185	0.4025	-0.6106	0.4395	0.5215
11.2	-9.6073	-0.3381	-1.2888	0.0164	-0.0176	0.0163	45.3180	-5.7898	3.2349	0.4025	-0.6106	0.4395	0.5215
11.21	-9.6080	-0.3351	-1.2896	0.0214	-0.0131	0.0185	45.4678	-5.7658	3.3494	0.4026	-0.6106	0.4395	0.5215
11.22	-9.6059	-0.3297	-1.2877	0.0163	-0.0098	0.0158	45.2699	-5.6921	3.2869	0.4026	-0.6105	0.4395	0.5215
11.23	-9.6038	-0.3220	-1.2968	0.0154	-0.0116	0.0166	45.1372	-5.8889	3.2179	0.4026	-0.6106	0.4396	0.5215
11.24	-9.6078	-0.3226	-1.2877	0.0100	-0.0067	0.0119	45.3761	-5.7856	3.2446	0.4025	-0.6105	0.4395	0.5214
11.25	-9.6112	-0.3108	-1.2752	0.0179	-0.0092	0.0127	45.3296	-5.6677	3.3436	0.4026	-0.6106	0.4396	0.5215
11.26	-9.6098	-0.3219	-1.2763	0.0131	-0.0167	0.0150	45.1008	-5.7557	3.2884	0.4026	-0.6105	0.4396	0.5215
11.27	-9.6151	-0.3112	-1.2723	0.0085	-0.0142	0.0165	45.1663	-5.8032	3.1452	0.4026	-0.6105	0.4396	0.5215
11.28	-9.6050	-0.3025	-1.2865	0.0012	-0.0122	0.0138	45.3067	-5.7664	3.1492	0.4025	-0.6105	0.4396	0.5215
11.29	-9.6199	-0.3160	-1.2767	0.0118	-0.0071	0.0168	45.4612	-5.8031	3.1598	0.4025	-0.6105	0.4396	0.5215
11.3	-9.6250	-0.3157	-1.2879	0.0173	-0.0151	0.0177	45.2511	-5.9077	3.1460	0.4026	-0.6105	0.4397	0.5215
11.31	-9.6020	-0.3295	-1.2839	0.0139	-0.0112	0.0163	45.4073	-5.7538	3.1656	0.4025	-0.6104	0.4396	0.5215
11.32	-9.6161	-0.3281	-1.2941	0.0173	-0.0158	0.0168	45.5814	-5.9017	3.1399	0.4026	-0.6105	0.4397	0.5215
11.33	-9.6082	-0.3272	-1.3014	0.0141	-0.0155	0.0107	45.4160	-5.7903	2.9028	0.4025	-0.6105	0.4397	0.5215
11.34	-9.6094	-0.3253	-1.3005	0.0141	-0.0189	0.0099	45.3871	-5.8638	3.1283	0.4026	-0.6105	0.4397	0.5216
11.35	-9.6107	-0.3225	-1.3123	0.0160	-0.0123	0.0112	45.5494	-6.1749	3.2782	0.4026	-0.6104	0.4396	0.5215
11.36	-9.6063	-0.3271	-1.3069	0.0165	-0.0111	0.0161	45.3839	-5.9285	3.2246	0.4026	-0.6104	0.4397	0.5215
11.37	-9.6075	-0.3306	-1.3087	0.0158	-0.0126	0.0124	45.3331	-5.8568	3.2735	0.4026	-0.6104	0.4397	0.5215
11.38	-9.6058	-0.3191	-1.3101	0.0176	-0.0076	0.0135	45.4382	-5.8477	3.1420	0.4026	-0.6104	0.4397	0.5215
11.39	-9.6087	-0.3231	-1.3127	0.0028	-0.0118	0.0143	45.3534	-5.8992	3.1792	0.4026	-0.6105	0.4397	0.5215
11.4	-9.6080	-0.3290	-1.3149	0.0143	-0.0150	0.0114	45.2296	-5.9121	3.2396	0.4026	-0.6104	0.4397	0.5215
11.41	-9.6066	-0.3258	-1.3269	0.0076	-0.0053	0.0099	45.3582	-5.6649	3.3002	0.4026	-0.6105	0.4397	0.5215
11.42	-9.6179	-0.3266	-1.3229	0.0050	-0.0124	0.0139	45.3295	-5.7860	3.3337	0.4025	-0.6104	0.4397	0.5215
11.43	-9.6114	-0.3266	-1.3226	0.0085	-0.0156	0.0127	45.4936	-5.7985	3.3398	0.4026	-0.6104	0.4397	0.5215
11.44	-9.6004	-0.3251	-1.3111	0.0095	-0.0101	0.0082	45.4554	-5.7146	3.2814	0.4026	-0.6104	0.4397	0.5215
11.45	-9.6017	-0.3176	-1.3143	0.0134	-0.0085	0.0095	45.2307	-5.7531	3.2141	0.4026	-0.6104	0.4397	0.5215
11.46	-9.6110	-0.3202	-1.3212	0.0081	-0.0039	0.0101	45.3089	-5.8887	3.2567	0.4026	-0.6105	0.4397	0.5215
11.47	-9.6143	-0.3163	-1.3115	0.0116	-0.0114	0.0182	45.3498	-5.7411	3.2265	0.4026	-0.6105	0.4397	0.5215
11.48	-9.6082	-0.3323	-1.3022	0.0085	-0.0205	0.0105	45.3809	-6.0094	3.2590	0.4026	-0.6105	0.4397	0.5215
11.49	-9.6088	-0.3343	-1.2934	0.0132	-0.0158	0.0149	45.2555	-5.7473	3.2218	0.4025	-0.6104	0.4396	0.5215
11.5	-9.6051	-0.3415	-1.2694	0.0171	-0.0157	0.0158	45.2054	-5.7348	3.2568	0.4026	-0.6104	0.4397	0.5215
11.51	-9.6127	-0.3489	-1.2742	0.0135	-0.0133	0.0121	45.4344	-5.8997	3.2057	0.4026	-0.6104	0.4397	0.5215
11.52	-9.5988	-0.3512	-1.2682	0.0056	-0.0140	0.0107	45.4805	-5.8520	3.3554	0.4026	-0.6104	0.4397	0.5215
11.53	-9.6048	-0.3523	-1.2722	0.0182	-0.0092	0.0169	45.6266	-5.8510	3.2141	0.4026	-0.6104	0.4397	0.5215
11.54	-9.6149	-0.3457	-1.2829	0.0227	-0.0106	0.0187	45.4509	-5.7753	3.0584	0.4026	-0.6104	0.4398	0.5215
11.55	-9.6111	-0.3343	-1.2791	0.0148	-0.0156	0.0114	45.2865	-5.7345	3.1901	0.4026	-0.6104	0.4398	0.5215
11.56	-9.6104	-0.3292	-1.2875	0.0149	-0.0148	0.0120	45.5501	-5.6687	3.1252	0.4026	-0.6103	0.4397	0.5215
11.57	-9.6075	-0.3278	-1.2875	0.0079	-0.0122	0.0137	45.3841	-5.8971	3.2744	0.4027	-0.6104	0.4398	0.5215
11.58	-9.6055	-0.3306	-1.2842	0.0137	-0.0154	0.0133	45.3838	-5.8606	3.2255	0.4027	-0.6103	0.4398	0.5215
11.59	-9.6179	-0.3241	-1.2901	0.0123	-0.0097	0.0158	45.2223	-5.8218	3.2521	0.4027	-0.6104	0.4398	0.5216
11.6	-9.6237	-0.3174	-1.3074	0.0101	-0.0065	0.0119	45.1824	-5.6800	3.2176	0.4026	-0.6103	0.4398	0.5215
11.61	-9.6109	-0.3213	-1.3135	0.0221	-0.0047	0.0150	45.2847	-5.7128	3.2606	0.4026	-0.6103	0.4399	0.5215
