time	acceleration_x	acceleration_y	acceleration_z	gyroscope_x	gyroscope_y	gyroscope_z	magnetometer_x	magnetometer_y	magnetometer_z	quaternion_w	quaternion_x	quaternion_y	quaternion_z
0	-9.5021	-0.3669	1.1371	-0.0294	-0.0309	-0.0762	32.9033	-23.5065	1.6332	-0.5677	0.4461	-0.4969	-0.4813
0.01	-9.4723	-0.3681	1.1306	-0.0234	-0.0272	-0.0789	32.6049	-23.5194	1.7470	-0.5679	0.4461	-0.4968	-0.4814
0.02	-9.4467	-0.3840	1.1381	-0.0187	-0.0204	-0.0904	32.8421	-23.2127	1.9221	-0.5680	0.4462	-0.4966	-0.4813
0.03	-9.4888	-0.4083	1.1519	-0.0057	-0.0141	-0.0894	33.3323	-23.0769	1.7851	-0.5681	0.4462	-0.4965	-0.4813
0.04	-9.5938	-0.4380	1.1687	-0.0024	-0.0121	-0.0947	32.8224	-23.0896	1.7107	-0.5683	0.4463	-0.4964	-0.4811
0.05	-9.6295	-0.4554	1.1725	0.0092	-0.0176	-0.1093	32.5203	-23.0484	1.8689	-0.5685	0.4463	-0.4963	-0.4810
0.06	-9.5866	-0.4509	1.1574	0.0275	-0.0269	-0.0991	32.4292	-23.1942	1.6127	-0.5688	0.4463	-0.4962	-0.4808
0.07	-9.5217	-0.4233	1.1443	0.0343	-0.0399	-0.0862	32.5698	-23.2757	1.7086	-0.5690	0.4461	-0.4961	-0.4806
0.08	-9.4820	-0.3888	1.1285	0.0404	-0.0427	-0.0750	32.6000	-23.1326	1.6824	-0.5694	0.4460	-0.4961	-0.4806
0.09	-9.4365	-0.3475	1.1191	0.0442	-0.0421	-0.0458	32.5639	-23.1917	1.7749	-0.5695	0.4457	-0.4961	-0.4805
0.1	-9.4348	-0.2909	1.1028	0.0464	-0.0291	-0.0262	32.8422	-23.0856	1.7322	-0.5697	0.4454	-0.4963	-0.4805
0.11	-9.3848	-0.2153	1.1002	0.0331	-0.0212	-0.0056	32.4104	-23.0576	1.6896	-0.5697	0.4450	-0.4964	-0.4805
0.12	-9.4053	-0.1607	1.1059	0.0258	-0.0130	0.0083	32.5989	-23.3309	1.9428	-0.5697	0.4448	-0.4966	-0.4806
0.13	-9.4286	-0.1427	1.0867	0.0193	-0.0079	0.0182	32.5892	-23.1123	1.8688	-0.5696	0.4445	-0.4968	-0.4808
0.14	-9.4515	-0.1055	1.0980	0.0022	0.0011	0.0099	32.4440	-23.1047	1.8960	-0.5695	0.4442	-0.4970	-0.4809
0.15	-9.5022	-0.1091	1.0746	-0.0205	0.0004	0.0073	32.5121	-23.3241	1.8001	-0.5694	0.4442	-0.4972	-0.4811
0.16	-9.4755	-0.1246	1.0710	-0.0317	0.0094	-0.0051	32.2129	-23.2885	1.7600	-0.5692	0.4441	-0.4972	-0.4813
0.17	-9.5055	-0.1634	1.0653	-0.0419	0.0165	-0.0177	32.7004	-23.2791	1.6809	-0.5690	0.4441	-0.4973	-0.4814
0.18	-9.5072	-0.2138	1.0526	-0.0562	0.0140	-0.0291	32.4719	-23.5329	1.8064	-0.5688	0.4442	-0.4972	-0.4815
0.19	-9.4997	-0.2674	1.0533	-0.0610	0.0194	-0.0471	32.4995	-23.4127	1.7121	-0.5686	0.4444	-0.4972	-0.4816
0.2	-9.5533	-0.3557	1.0527	-0.0598	0.0360	-0.0585	32.6332	-23.5777	1.6603	-0.5684	0.4446	-0.4972	-0.4816
0.21	-9.5933	-0.4433	1.0413	-0.0550	0.0347	-0.0568	32.7604	-23.3566	1.6103	-0.5683	0.4448	-0.4972	-0.4817
0.22	-9.6154	-0.4990	1.0580	-0.0468	0.0312	-0.0584	32.6647	-23.2192	1.5999	-0.5681	0.4450	-0.4972	-0.4817
0.23	-9.6531	-0.5330	1.0544	-0.0299	0.0285	-0.0512	32.5278	-23.1635	1.6685	-0.5680	0.4451	-0.4972	-0.4816
0.24	-9.6764	-0.5694	1.0483	-0.0181	0.0167	-0.0366	32.4593	-23.3528	1.8782	-0.5679	0.4452	-0.4973	-0.4817
0.25	-9.7396	-0.5574	1.0585	0.0062	0.0087	-0.0328	32.5905	-23.2519	1.6571	-0.5678	0.4450	-0.4974	-0.4816
0.26	-9.7573	-0.5114	1.0647	0.0231	-0.0050	-0.0285	32.5626	-23.3414	1.7633	-0.5679	0.4449	-0.4976	-0.4816
0.27	-9.7478	-0.4455	1.0795	0.0350	-0.0209	-0.0243	32.4571	-23.2023	1.7659	-0.5680	0.4447	-0.4977	-0.4816
0.28	-9.7522	-0.3846	1.1015	0.0497	-0.0349	-0.0247	32.5233	-23.3516	1.6612	-0.5681	0.4443	-0.4978	-0.4816
0.29	-9.7180	-0.3297	1.1166	0.0473	-0.0472	-0.0334	32.3637	-23.2424	1.9214	-0.5683	0.4440	-0.4979	-0.4816
0.3	-9.6873	-0.2816	1.1408	0.0490	-0.0544	-0.0310	32.4480	-23.2506	1.8791	-0.5685	0.4436	-0.4979	-0.4817
0.31	-9.6204	-0.2282	1.1630	0.0486	-0.0707	-0.0416	32.4898	-23.2509	1.9009	-0.5688	0.4433	-0.4979	-0.4817
0.32	-9.5386	-0.1889	1.1972	0.0481	-0.0645	-0.0410	32.5660	-23.2474	1.8272	-0.5691	0.4429	-0.4979	-0.4817
0.33	-9.5462	-0.1946	1.2276	0.0359	-0.0590	-0.0490	32.5906	-23.2512	1.6414	-0.5694	0.4426	-0.4979	-0.4818
0.34	-9.5166	-0.2079	1.2445	0.0270	-0.0588	-0.0459	32.4145	-23.4054	1.9809	-0.5696	0.4423	-0.4978	-0.4818
0.35	-9.4771	-0.2164	1.2779	0.0241	-0.0587	-0.0539	32.3900	-23.4345	1.8495	-0.5698	0.4421	-0.4978	-0.4818
0.36	-9.4515	-0.2418	1.2834	0.0224	-0.0501	-0.0509	32.4800	-23.4257	1.7021	-0.5700	0.4418	-0.4977	-0.4818
0.37	-9.4181	-0.2557	1.3001	0.0242	-0.0454	-0.0525	32.6319	-23.4183	1.7939	-0.5702	0.4416	-0.4977	-0.4818
0.38	-9.4119	-0.2724	1.3157	0.0077	-0.0388	-0.0464	32.6688	-23.4554	1.9125	-0.5703	0.4415	-0.4976	-0.4819
0.39	-9.4223	-0.3097	1.3252	0.0018	-0.0346	-0.0494	32.6798	-23.6247	2.0385	-0.5704	0.4413	-0.4975	-0.4819
0.4	-9.4222	-0.3275	1.3312	0.0072	-0.0271	-0.0508	32.5460	-23.4870	1.7709	-0.5706	0.4412	-0.4976	-0.4820
0.41	-9.4176	-0.3405	1.3396	0.0080	-0.0109	-0.0472	32.3445	-23.2642	1.9229	-0.5706	0.4411	-0.4976	-0.4819
0.42	-9.4249	-0.3384	1.3415	0.0095	-0.0080	-0.0525	32.4791	-23.4901	1.6673	-0.5707	0.4410	-0.4976	-0.4819
0.43	-9.4176	-0.3283	1.3392	0.0055	0.0036	-0.0570	32.5029	-23.5357	1.8296	-0.5707	0.4409	-0.4976	-0.4818
0.44	-9.4428	-0.3273	1.3405	0.0020	0.0139	-0.0543	32.4526	-23.4878	1.7855	-0.5707	0.4410	-0.4977	-0.4818
0.45	-9.4555	-0.3344	1.3086	0.0023	0.0213	-0.0591	32.4077	-23.2159	1.8250	-0.5707	0.4410	-0.4978	-0.4817
0.46	-9.4518	-0.3120	1.2984	-0.0023	0.0230	-0.0638	32.6130	-23.3986	1.7113	-0.5707	0.4410	-0.4979	-0.4815
0.47	-9.4885	-0.3099	1.2672	0.0000	0.0329	-0.0743	32.4539	-23.4633	1.7122	-0.5707	0.4411	-0.4980	-0.4814
0.48	-9.4838	-0.3056	1.2391	0.0000	0.0402	-0.0601	32.5279	-23.3653	1.8356	-0.5706	0.4412	-0.4981	-0.4812
0.49	-9.5169	-0.3179	1.2225	-0.0060	0.0466	-0.0564	32.6136	-23.1406	1.7650	-0.5706	0.4413	-0.4983	-0.4811
0.5	-9.5693	-0.3323	1.2057	-0.0039	0.0466	-0.0570	32.4830	-23.2385	1.8961	-0.5704	0.4414	-0.4984	-0.4809
0.51	-9.5918	-0.3214	1.1984	-0.0081	0.0477	-0.0586	32.3756	-23.3821	2.0026	-0.5704	0.4415	-0.4986	-0.4809
0.52	-9.6407	-0.3261	1.1951	-0.0049	0.0431	-0.0571	32.7706	-23.2533	2.1453	-0.5703	0.4416	-0.4987	-0.4807
0.53	-9.6784	-0.3428	1.1820	-0.0052	0.0305	-0.0513	32.9012	-23.0323	2.1780	-0.5702	0.4417	-0.4988	-0.4806
0.54	-9.6763	-0.3429	1.1914	-0.0050	0.0174	-0.0538	32.6853	-23.1958	2.1140	-0.5702	0.4417	-0.4989	-0.4805
0.55	-9.7360	-0.3504	1.1914	-0.0070	0.0078	-0.0564	32.5842	-23.3194	1.9166	-0.5702	0.4417	-0.4989	-0.4805
0.56	-9.7562	-0.3640	1.1940	-0.0062	-0.0068	-0.0596	32.2070	-23.3114	1.6169	-0.5702	0.4417	-0.4989	-0.4805
0.57	-9.7482	-0.3665	1.2023	0.0037	-0.0168	-0.0600	32.4969	-23.3070	1.8795	-0.5703	0.4416	-0.4988	-0.4804
0.58	-9.7251	-0.3716	1.2068	0.0025	-0.0374	-0.0581	32.5876	-23.4525	1.9715	-0.5705	0.4415	-0.4988	-0.4805
0.59	-9.6524	-0.3656	1.2193	0.0150	-0.0510	-0.0607	32.2960	-23.3557	1.8227	-0.5707	0.4413	-0.4987	-0.4805
0.6	-9.5993	-0.3578	1.2255	0.0228	-0.0524	-0.0578	32.5845	-23.3197	1.9257	-0.5709	0.4411	-0.4987	-0.4805
0.61	-9.5572	-0.3176	1.2388	0.0257	-0.0533	-0.0535	32.5684	-23.3225	1.6346	-0.5711	0.4408	-0.4985	-0.4805
0.62	-9.5136	-0.2625	1.2558	0.0418	-0.0547	-0.0506	32.5951	-23.2232	1.8658	-0.5714	0.4406	-0.4986	-0.4805
0.63	-9.4760	-0.2243	1.2619	0.0478	-0.0521	-0.0419	32.3345	-23.4156	1.9927	-0.5716	0.4403	-0.4986	-0.4805
0.64	-9.4276	-0.1765	1.2638	0.0462	-0.0441	-0.0487	32.3586	-23.3743	1.9496	-0.5718	0.4399	-0.4986	-0.4804
0.65	-9.3997	-0.1217	1.2591	0.0421	-0.0395	-0.0512	32.5354	-22.9718	1.9587	-0.5721	0.4397	-0.4987	-0.4804
0.66	-9.3345	-0.0740	1.2509	0.0468	-0.0254	-0.0524	32.4496	-23.0432	1.6660	-0.5722	0.4395	-0.4987	-0.4803
0.67	-9.3058	-0.0307	1.2511	0.0307	-0.0006	-0.0580	32.3266	-23.2367	1.9660	-0.5724	0.4394	-0.4988	-0.4802
0.68	-9.3323	-0.0318	1.2312	0.0250	0.0228	-0.0632	32.2907	-23.3342	1.8680	-0.5724	0.4393	-0.4989	-0.4800
0.69	-9.3645	-0.0415	1.2243	0.0032	0.0324	-0.0737	32.3328	-23.3040	1.7564	-0.5724	0.4394	-0.4990	-0.4799
0.7	-9.4404	-0.0565	1.2282	-0.0012	0.0454	-0.0780	32.4381	-23.2189	1.9574	-0.5724	0.4395	-0.4991	-0.4797
0.71	-9.5002	-0.1049	1.2191	-0.0074	0.0481	-0.0777	32.3103	-23.2321	1.9564	-0.5723	0.4396	-0.4992	-0.4795
0.72	-9.5449	-0.1596	1.2256	-0.0164	0.0386	-0.0720	32.3015	-23.3428	1.9663	-0.5723	0.4398	-0.4993	-0.4793
0.73	-9.5855	-0.1972	1.2293	-0.0217	0.0376	-0.0767	32.4642	-23.4350	1.8158	-0.5722	0.4400	-0.4993	-0.4792
0.74	-9.5798	-0.2105	1.2304	-0.0147	0.0294	-0.0731	32.6967	-23.6128	2.0000	-0.5722	0.4401	-0.4994	-0.4791
0.75	-9.5714	-0.2117	1.2136	-0.0061	0.0167	-0.0703	32.5587	-23.4072	2.1907	-0.5722	0.4401	-0.4994	-0.4789
0.76	-9.5324	-0.2191	1.1894	-0.0119	0.0174	-0.0793	32.5969	-23.3113	1.9924	-0.5723	0.4403	-0.4994	-0.4789
0.77	-9.4803	-0.2261	1.1764	-0.0174	0.0219	-0.0817	32.6968	-23.4647	1.8169	-0.5722	0.4404	-0.4994	-0.4787
0.78	-9.4443	-0.2390	1.1503	-0.0240	0.0281	-0.0897	32.6097	-23.3259	1.9705	-0.5723	0.4406	-0.4994	-0.4786
0.79	-9.4458	-0.2489	1.1306	-0.0286	0.0399	-0.0870	32.3674	-23.2340	1.9534	-0.5722	0.4408	-0.4994	-0.4784
0.8	-9.4286	-0.2712	1.0959	-0.0319	0.0464	-0.0930	32.3053	-23.2337	1.8415	-0.5721	0.4411	-0.4994	-0.4783
0.81	-9.4420	-0.2975	1.1034	-0.0265	0.0635	-0.0934	32.4953	-23.2431	2.0969	-0.5721	0.4414	-0.4994	-0.4781
0.82	-9.5552	-0.3368	1.1054	-0.0469	0.0641	-0.0918	32.4791	-23.2297	1.8484	-0.5719	0.4416	-0.4994	-0.4778
0.83	-9.6123	-0.3899	1.0939	-0.0460	0.0582	-0.0957	32.5049	-23.1522	2.0959	-0.5718	0.4421	-0.4995	-0.4777
0.84	-9.6154	-0.4237	1.0982	-0.0343	0.0571	-0.0929	32.4563	-22.9634	1.9817	-0.5717	0.4423	-0.4995	-0.4775
0.85	-9.6237	-0.4319	1.0834	-0.0293	0.0520	-0.0864	32.3585	-23.0860	1.9943	-0.5717	0.4426	-0.4996	-0.4774
0.86	-9.5717	-0.4451	1.0578	-0.0260	0.0440	-0.0831	32.5259	-23.3660	2.1038	-0.5715	0.4428	-0.4995	-0.4772
0.87	-9.5294	-0.4472	1.0469	-0.0272	0.0475	-0.0722	32.4406	-23.0658	2.0998	-0.5714	0.4430	-0.4996	-0.4771
0.88	-9.5649	-0.4544	1.0431	-0.0195	0.0459	-0.0629	32.4111	-23.0452	2.0668	-0.5713	0.4432	-0.4997	-0.4770
0.89	-9.5888	-0.4424	1.0261	-0.0122	0.0392	-0.0495	32.3138	-22.8257	2.2497	-0.5712	0.4432	-0.4998	-0.4768
0.9	-9.5783	-0.4038	1.0143	-0.0150	0.0296	-0.0440	32.3205	-23.1408	2.1235	-0.5712	0.4433	-0.5000	-0.4769
0.91	-9.5852	-0.3783	1.0129	-0.0063	0.0290	-0.0393	32.5698	-23.3704	2.1405	-0.5710	0.4433	-0.5000	-0.4768
0.92	-9.6432	-0.3629	1.0067	-0.0198	0.0267	-0.0406	32.5978	-23.3046	1.9409	-0.5710	0.4434	-0.5002	-0.4768
0.93	-9.6309	-0.3482	1.0154	-0.0200	0.0234	-0.0441	32.4654	-23.3343	2.0532	-0.5708	0.4434	-0.5002	-0.4767
0.94	-9.6699	-0.3387	1.0349	-0.0304	0.0172	-0.0411	32.6342	-23.2073	2.1794	-0.5707	0.4435	-0.5003	-0.4768
0.95	-9.6297	-0.3549	1.0032	-0.0254	0.0035	-0.0358	32.6467	-23.2479	2.0880	-0.5706	0.4435	-0.5003	-0.4769
0.96	-9.5496	-0.3555	1.0372	-0.0319	-0.0032	-0.0346	32.4766	-23.2269	2.0197	-0.5706	0.4435	-0.5003	-0.4770
0.97	-9.6016	-0.3880	1.0322	-0.0363	0.0052	-0.0330	32.4855	-23.2420	2.1778	-0.5705	0.4435	-0.5003	-0.4771
0.98	-9.5789	-0.4044	1.0260	-0.0341	-0.0021	-0.0321	32.6413	-23.2266	2.1083	-0.5704	0.4435	-0.5003	-0.4772
0.99	-9.5366	-0.3975	1.0404	-0.0405	-0.0110	-0.0342	32.4341	-23.2499	2.2262	-0.5703	0.4435	-0.5002	-0.4774
1	-9.5395	-0.4176	1.0437	-0.0326	-0.0025	-0.0308	32.3854	-23.1544	2.2334	-0.5702	0.4435	-0.5002	-0.4774
1.01	-9.5352	-0.4297	1.0413	-0.0285	-0.0050	-0.0296	32.3968	-23.0256	2.1342	-0.5701	0.4435	-0.5002	-0.4776
1.02	-9.5064	-0.4174	1.0449	-0.0273	0.0067	-0.0322	32.6193	-22.9412	2.4419	-0.5700	0.4435	-0.5002	-0.4777
1.03	-9.5172	-0.4022	1.0532	-0.0283	0.0056	-0.0281	32.9257	-23.0366	2.3537	-0.5699	0.4435	-0.5003	-0.4778
1.04	-9.5379	-0.3796	1.0492	-0.0238	0.0086	-0.0256	32.5943	-23.1060	2.1370	-0.5698	0.4434	-0.5003	-0.4778
1.05	-9.5509	-0.3364	1.0563	-0.0187	0.0156	-0.0207	32.3748	-23.0639	1.9033	-0.5697	0.4434	-0.5004	-0.4779
1.06	-9.5861	-0.3147	1.0533	-0.0140	0.0164	-0.0279	32.1883	-23.0777	2.1015	-0.5696	0.4434	-0.5006	-0.4780
1.07	-9.6197	-0.2996	1.0614	-0.0123	0.0240	-0.0317	32.2500	-23.2713	2.3147	-0.5694	0.4433	-0.5006	-0.4779
1.08	-9.6267	-0.2914	1.0677	-0.0201	0.0168	-0.0316	32.2188	-23.1412	2.0094	-0.5694	0.4434	-0.5008	-0.4780
1.09	-9.6252	-0.2965	1.0716	-0.0148	0.0098	-0.0305	32.4639	-23.1792	2.0137	-0.5693	0.4433	-0.5008	-0.4780
1.1	-9.6169	-0.2958	1.0748	-0.0226	0.0016	-0.0372	32.6991	-23.3630	2.1807	-0.5693	0.4434	-0.5009	-0.4781
1.11	-9.5895	-0.3018	1.0783	-0.0232	-0.0072	-0.0437	32.2528	-23.2204	2.1882	-0.5692	0.4433	-0.5008	-0.4781
1.12	-9.5778	-0.3229	1.0884	-0.0177	-0.0112	-0.0444	32.5153	-23.1764	2.0247	-0.5692	0.4433	-0.5008	-0.4782
1.13	-9.5566	-0.3407	1.0922	-0.0175	-0.0097	-0.0437	32.6183	-23.4508	1.8014	-0.5692	0.4433	-0.5008	-0.4783
1.14	-9.5261	-0.3448	1.0943	-0.0237	-0.0104	-0.0405	32.5870	-23.4025	1.8699	-0.5691	0.4432	-0.5007	-0.4784
1.15	-9.4940	-0.3474	1.1031	-0.0172	-0.0109	-0.0371	32.4986	-23.4491	2.1545	-0.5692	0.4432	-0.5008	-0.4785
1.16	-9.4878	-0.3483	1.0968	-0.0081	-0.0087	-0.0383	32.5186	-23.2426	1.9945	-0.5691	0.4431	-0.5008	-0.4785
1.17	-9.4848	-0.3422	1.0952	-0.0046	-0.0028	-0.0311	32.6851	-23.3138	1.8458	-0.5691	0.4430	-0.5009	-0.4786
1.18	-9.4646	-0.3249	1.1036	-0.0014	0.0114	-0.0320	32.2617	-23.4098	2.0334	-0.5690	0.4429	-0.5009	-0.4785
1.19	-9.4756	-0.3193	1.1084	0.0048	0.0112	-0.0308	32.4006	-23.5871	1.8482	-0.5690	0.4429	-0.5011	-0.4786
1.2	-9.4946	-0.3084	1.1045	-0.0066	0.0217	-0.0358	32.5024	-23.3453	2.1739	-0.5689	0.4428	-0.5012	-0.4785
1.21	-9.5077	-0.2922	1.1042	0.0046	0.0304	-0.0317	32.3156	-23.1879	2.0899	-0.5688	0.4428	-0.5013	-0.4785
1.22	-9.5085	-0.2858	1.0849	0.0005	0.0315	-0.0403	32.3067	-23.4674	2.0960	-0.5688	0.4428	-0.5015	-0.4784
1.23	-9.5137	-0.2735	1.0785	0.0078	0.0380	-0.0414	32.5256	-23.2872	2.3157	-0.5687	0.4428	-0.5017	-0.4783
1.24	-9.5530	-0.2597	1.0691	0.0137	0.0389	-0.0361	32.5780	-23.5758	1.8248	-0.5687	0.4428	-0.5019	-0.4783
1.25	-9.5635	-0.2333	1.0590	0.0096	0.0452	-0.0443	32.3202	-23.3085	2.2002	-0.5685	0.4428	-0.5021	-0.4781
1.26	-9.5587	-0.2153	1.0604	0.0178	0.0410	-0.0465	32.2892	-23.2557	2.3760	-0.5685	0.4428	-0.5023	-0.4780
1.27	-9.5800	-0.2184	1.0447	0.0118	0.0391	-0.0496	32.2792	-23.3615	2.3873	-0.5684	0.4428	-0.5025	-0.4778
1.28	-9.5785	-0.2136	1.0427	0.0116	0.0302	-0.0441	32.3232	-23.3231	2.2282	-0.5684	0.4428	-0.5027	-0.4777
1.29	-9.5854	-0.2058	1.0453	-0.0028	0.0253	-0.0421	32.4438	-23.3384	1.9558	-0.5683	0.4428	-0.5028	-0.4776
1.3	-9.6093	-0.2006	1.0435	-0.0030	0.0245	-0.0400	32.5991	-23.4664	2.1451	-0.5683	0.4428	-0.5029	-0.4776
1.31	-9.6341	-0.1972	1.0427	-0.0033	0.0183	-0.0366	32.4801	-23.5307	2.2250	-0.5682	0.4427	-0.5030	-0.4776
1.32	-9.6331	-0.1953	1.0421	-0.0029	0.0186	-0.0400	32.4411	-23.4935	2.0516	-0.5681	0.4427	-0.5031	-0.4775
1.33	-9.6075	-0.1961	1.0284	-0.0038	0.0165	-0.0407	32.2951	-23.5334	2.2547	-0.5681	0.4427	-0.5033	-0.4776
1.34	-9.5679	-0.2033	1.0325	-0.0071	0.0061	-0.0348	32.4972	-23.3171	2.3543	-0.5681	0.4426	-0.5033	-0.4775
1.35	-9.5617	-0.2140	1.0386	-0.0113	0.0074	-0.0312	32.5190	-23.4554	2.2309	-0.5680	0.4426	-0.5034	-0.4776
1.36	-9.5709	-0.2264	1.0340	-0.0088	0.0138	-0.0322	32.4105	-23.6411	2.3858	-0.5679	0.4425	-0.5034	-0.4776
1.37	-9.5534	-0.2277	1.0387	-0.0023	0.0068	-0.0316	32.2923	-23.4381	2.2557	-0.5679	0.4425	-0.5036	-0.4776
1.38	-9.5569	-0.2294	1.0332	-0.0043	0.0109	-0.0323	32.1748	-23.4416	2.4391	-0.5678	0.4424	-0.5037	-0.4777
1.39	-9.5525	-0.2265	1.0228	-0.0028	0.0148	-0.0315	32.1247	-23.3289	2.1634	-0.5677	0.4424	-0.5037	-0.4776
1.4	-9.5371	-0.2195	1.0191	0.0021	0.0164	-0.0328	32.1749	-23.4431	2.2764	-0.5678	0.4424	-0.5039	-0.4777
1.41	-9.5117	-0.2058	1.0115	0.0047	0.0204	-0.0376	32.3812	-23.5370	2.4367	-0.5677	0.4423	-0.5040	-0.4776
1.42	-9.4987	-0.1833	1.0127	0.0053	0.0217	-0.0418	32.0203	-23.4921	2.1997	-0.5677	0.4423	-0.5042	-0.4776
1.43	-9.5160	-0.1691	1.0053	0.0107	0.0261	-0.0387	32.2550	-23.5374	2.1700	-0.5675	0.4422	-0.5043	-0.4774
1.44	-9.5210	-0.1581	0.9952	0.0143	0.0325	-0.0474	32.2134	-23.4668	2.4085	-0.5676	0.4422	-0.5045	-0.4774
1.45	-9.5210	-0.1341	0.9956	0.0114	0.0389	-0.0486	32.3003	-23.4455	2.3493	-0.5675	0.4422	-0.5047	-0.4772
1.46	-9.5410	-0.1246	0.9916	0.0071	0.0330	-0.0464	32.3183	-23.5676	2.3688	-0.5674	0.4422	-0.5048	-0.4771
1.47	-9.5513	-0.1241	0.9826	-0.0051	0.0286	-0.0449	32.4444	-23.2707	2.3763	-0.5674	0.4422	-0.5050	-0.4771
1.48	-9.5572	-0.1146	0.9819	0.0012	0.0375	-0.0478	32.4922	-23.4072	2.1841	-0.5673	0.4422	-0.5051	-0.4769
1.49	-9.5633	-0.1267	0.9645	-0.0019	0.0358	-0.0514	32.1644	-23.6043	2.2727	-0.5672	0.4423	-0.5053	-0.4769
1.5	-9.5609	-0.1279	0.9644	-0.0082	0.0382	-0.0517	32.4459	-23.5993	2.5967	-0.5671	0.4423	-0.5053	-0.4767
1.51	-9.5738	-0.1442	0.9520	-0.0145	0.0434	-0.0532	32.3826	-23.5831	2.4164	-0.5671	0.4425	-0.5055	-0.4767
1.52	-9.5763	-0.1597	0.9405	-0.0147	0.0355	-0.0493	32.6582	-23.3054	2.6773	-0.5669	0.4425	-0.5056	-0.4766
1.53	-9.5913	-0.1658	0.9421	-0.0126	0.0413	-0.0530	32.9084	-23.4050	2.7842	-0.5668	0.4426	-0.5057	-0.4765
1.54	-9.6060	-0.1790	0.9267	-0.0085	0.0324	-0.0575	32.6919	-23.4151	2.5376	-0.5668	0.4427	-0.5058	-0.4764
1.55	-9.6184	-0.1790	0.9202	-0.0088	0.0388	-0.0535	32.3831	-23.3676	2.4388	-0.5667	0.4428	-0.5059	-0.4763
1.56	-9.6157	-0.1841	0.9171	-0.0171	0.0348	-0.0546	32.1328	-23.3954	2.7295	-0.5666	0.4429	-0.5060	-0.4762
1.57	-9.6202	-0.1833	0.9158	-0.0099	0.0390	-0.0569	32.5443	-23.3873	2.4834	-0.5665	0.4429	-0.5061	-0.4761
1.58	-9.6606	-0.1812	0.9158	-0.0080	0.0304	-0.0599	32.3239	-23.5710	2.5100	-0.5665	0.4430	-0.5062	-0.4761
1.59	-9.6509	-0.1865	0.9203	-0.0117	0.0221	-0.0679	32.1906	-23.5282	2.4618	-0.5664	0.4431	-0.5062	-0.4759
1.6	-9.6417	-0.1696	0.9195	-0.0057	0.0170	-0.0686	32.1774	-23.3426	2.6337	-0.5665	0.4432	-0.5063	-0.4759
1.61	-9.6282	-0.1739	0.9120	-0.0102	0.0110	-0.0692	31.9901	-23.6428	2.7182	-0.5664	0.4432	-0.5062	-0.4757
1.62	-9.5926	-0.1838	0.9207	-0.0155	0.0014	-0.0716	32.1911	-23.4340	2.6368	-0.5665	0.4433	-0.5062	-0.4757
1.63	-9.6043	-0.2021	0.9253	-0.0126	0.0102	-0.0614	32.2104	-23.4283	2.5594	-0.5665	0.4433	-0.5062	-0.4757
1.64	-9.6024	-0.2132	0.9316	-0.0174	-0.0014	-0.0649	32.2158	-23.3385	2.6660	-0.5665	0.4433	-0.5062	-0.4756
1.65	-9.5955	-0.2145	0.9441	-0.0170	-0.0041	-0.0591	32.3010	-23.3106	2.6972	-0.5666	0.4434	-0.5062	-0.4757
1.66	-9.5858	-0.2142	0.9462	-0.0046	-0.0091	-0.0555	32.0548	-23.5052	2.6340	-0.5666	0.4433	-0.5061	-0.4756
1.67	-9.5773	-0.2142	0.9525	-0.0161	0.0017	-0.0582	32.4634	-23.6928	2.5720	-0.5666	0.4434	-0.5062	-0.4757
1.68	-9.5633	-0.2212	0.9501	-0.0184	-0.0049	-0.0573	32.4898	-23.5967	2.6117	-0.5666	0.4433	-0.5061	-0.4756
1.69	-9.5410	-0.2214	0.9504	-0.0160	-0.0108	-0.0576	32.4678	-23.5645	2.4525	-0.5667	0.4433	-0.5061	-0.4757
1.7	-9.5240	-0.2225	0.9541	-0.0200	0.0013	-0.0570	32.4964	-23.4841	2.3778	-0.5667	0.4434	-0.5060	-0.4757
1.71	-9.5306	-0.2293	0.9517	-0.0192	0.0049	-0.0597	32.4131	-23.5189	2.4863	-0.5666	0.4434	-0.5060	-0.4757
1.72	-9.5429	-0.2269	0.9495	-0.0221	0.0052	-0.0622	32.2674	-23.4031	2.5067	-0.5667	0.4435	-0.5060	-0.4757
1.73	-9.5486	-0.2330	0.9530	-0.0183	0.0108	-0.0576	32.4801	-23.5474	2.6147	-0.5666	0.4435	-0.5060	-0.4756
1.74	-9.5535	-0.2371	0.9537	-0.0090	0.0105	-0.0626	32.4173	-23.4300	2.5615	-0.5666	0.4435	-0.5060	-0.4756
1.75	-9.5595	-0.2426	0.9566	-0.0147	0.0127	-0.0651	32.3804	-23.4004	2.6908	-0.5666	0.4436	-0.5060	-0.4755
1.76	-9.5598	-0.2476	0.9532	-0.0093	0.0159	-0.0651	32.3870	-23.4318	2.5594	-0.5666	0.4437	-0.5061	-0.4755
1.77	-9.5601	-0.2479	0.9535	-0.0208	0.0179	-0.0655	32.4193	-23.3806	2.6142	-0.5666	0.4437	-0.5060	-0.4754
1.78	-9.5599	-0.2535	0.9488	-0.0126	0.0178	-0.0642	32.2609	-23.2415	2.4971	-0.5666	0.4438	-0.5061	-0.4753
1.79	-9.5720	-0.2538	0.9519	-0.0117	0.0170	-0.0614	32.0738	-23.2301	2.4823	-0.5665	0.4438	-0.5061	-0.4752
1.8	-9.5773	-0.2568	0.9556	-0.0196	0.0175	-0.0607	32.4331	-23.3953	2.4994	-0.5665	0.4439	-0.5061	-0.4752
1.81	-9.5806	-0.2629	0.9456	-0.0071	0.0149	-0.0570	32.2610	-23.5650	2.6999	-0.5665	0.4440	-0.5062	-0.4752
1.82	-9.5794	-0.2654	0.9465	-0.0192	0.0165	-0.0573	32.1820	-23.0064	2.5678	-0.5664	0.4440	-0.5062	-0.4751
1.83	-9.5839	-0.2659	0.9489	-0.0059	0.0226	-0.0606	32.3412	-23.1245	2.5969	-0.5665	0.4441	-0.5063	-0.4751
1.84	-9.5875	-0.2687	0.9495	-0.0081	0.0147	-0.0590	32.2761	-23.2430	2.6828	-0.5664	0.4441	-0.5063	-0.4750
1.85	-9.5924	-0.2705	0.9503	-0.0045	0.0128	-0.0554	32.3669	-23.3516	2.4551	-0.5665	0.4441	-0.5064	-0.4750
1.86	-9.5932	-0.2713	0.9546	-0.0019	0.0025	-0.0624	32.5046	-23.6124	2.6184	-0.5664	0.4441	-0.5063	-0.4748
1.87	-9.5850	-0.2678	0.9490	-0.0027	0.0035	-0.0627	32.3262	-23.7254	2.5657	-0.5665	0.4441	-0.5064	-0.4748
1.88	-9.5862	-0.2637	0.9460	-0.0023	0.0092	-0.0569	32.5005	-23.5577	2.4594	-0.5665	0.4441	-0.5064	-0.4747
1.89	-9.5792	-0.2541	0.9420	-0.0025	0.0048	-0.0588	32.3123	-23.4842	2.5864	-0.5665	0.4441	-0.5064	-0.4747
1.9	-9.5658	-0.2451	0.9435	-0.0026	0.0068	-0.0682	32.2993	-23.5032	2.6926	-0.5666	0.4441	-0.5065	-0.4746
1.91	-9.5621	-0.2387	0.9513	-0.0017	0.0124	-0.0643	32.2890	-23.2556	2.6719	-0.5666	0.4441	-0.5065	-0.4745
1.92	-9.5631	-0.2365	0.9506	-0.0011	0.0101	-0.0613	32.3782	-23.4203	2.6763	-0.5667	0.4441	-0.5066	-0.4745
1.93	-9.5612	-0.2377	0.9520	-0.0036	0.0080	-0.0669	32.3228	-23.4115	2.6890	-0.5666	0.4441	-0.5065	-0.4743
1.94	-9.5474	-0.2415	0.9552	-0.0083	0.0151	-0.0654	32.1586	-23.5252	2.5447	-0.5667	0.4442	-0.5066	-0.4743
1.95	-9.5587	-0.2513	0.9533	-0.0096	0.0181	-0.0706	32.2904	-23.3183	2.6530	-0.5667	0.4443	-0.5066	-0.4742
1.96	-9.5611	-0.2616	0.9416	-0.0196	0.0180	-0.0715	32.2912	-23.3950	2.6823	-0.5667	0.4443	-0.5066	-0.4741
1.97	-9.5299	-0.2707	0.9358	-0.0270	0.0179	-0.0662	32.4140	-23.4443	2.6813	-0.5667	0.4445	-0.5066	-0.4741
1.98	-9.5536	-0.2787	0.9333	-0.0284	0.0215	-0.0613	32.3624	-23.2267	2.9344	-0.5666	0.4446	-0.5066	-0.4740
1.99	-9.5863	-0.2797	0.9221	-0.0288	0.0238	-0.0599	32.4807	-23.1130	2.7481	-0.5665	0.4447	-0.5066	-0.4740
2	-9.5710	-0.2835	0.9241	-0.0277	0.0247	-0.0634	32.4033	-23.2353	2.8598	-0.5664	0.4448	-0.5066	-0.4739
2.01	-9.5738	-0.2994	0.9169	-0.0296	0.0195	-0.0585	32.2749	-23.3648	2.8619	-0.5664	0.4449	-0.5066	-0.4740
2.02	-9.5764	-0.3187	0.9183	-0.0261	0.0225	-0.0577	32.6612	-23.2466	2.8729	-0.5663	0.4450	-0.5066	-0.4739
2.03	-9.5714	-0.3271	0.9167	-0.0312	0.0178	-0.0594	32.8774	-23.0185	3.0866	-0.5662	0.4451	-0.5066	-0.4739
2.04	-9.5916	-0.3219	0.9148	-0.0220	0.0124	-0.0574	32.6896	-23.1692	2.8362	-0.5662	0.4452	-0.5066	-0.4739
2.05	-9.6345	-0.3370	0.9143	-0.0205	0.0168	-0.0489	32.5844	-23.3024	2.7187	-0.5661	0.4452	-0.5067	-0.4739
2.06	-9.6424	-0.3427	0.9192	-0.0149	0.0123	-0.0531	32.4066	-23.3629	2.7199	-0.5661	0.4453	-0.5067	-0.4739
2.07	-9.6270	-0.3329	0.9145	-0.0035	0.0106	-0.0541	32.6131	-23.4303	2.5310	-0.5660	0.4452	-0.5067	-0.4738
2.08	-9.6027	-0.3293	0.9091	-0.0092	0.0157	-0.0568	32.4544	-23.3940	2.6933	-0.5661	0.4453	-0.5068	-0.4738
2.09	-9.5894	-0.3226	0.9017	-0.0005	0.0059	-0.0496	32.4191	-23.2987	2.7710	-0.5661	0.4452	-0.5068	-0.4737
2.1	-9.5821	-0.3271	0.8914	-0.0063	0.0101	-0.0428	32.2958	-23.3523	2.6831	-0.5661	0.4453	-0.5070	-0.4738
2.11	-9.5702	-0.3082	0.8928	-0.0020	0.0075	-0.0440	32.0793	-23.2169	2.5286	-0.5660	0.4452	-0.5070	-0.4737
2.12	-9.5882	-0.2933	0.8971	0.0021	0.0033	-0.0408	32.4424	-23.3784	2.7142	-0.5660	0.4451	-0.5071	-0.4737
2.13	-9.5925	-0.2813	0.8858	-0.0002	0.0010	-0.0443	32.4931	-23.5926	2.7592	-0.5660	0.4451	-0.5071	-0.4737
2.14	-9.5834	-0.2681	0.8954	-0.0039	-0.0010	-0.0527	32.5352	-23.2299	2.7465	-0.5660	0.4450	-0.5071	-0.4736
2.15	-9.5811	-0.2627	0.8814	-0.0009	0.0115	-0.0530	32.1510	-23.1441	2.7254	-0.5661	0.4450	-0.5072	-0.4736
2.16	-9.5715	-0.2579	0.8838	-0.0022	0.0131	-0.0572	32.2022	-23.2785	2.9321	-0.5661	0.4450	-0.5072	-0.4735
2.17	-9.5696	-0.2468	0.8840	-0.0024	0.0114	-0.0570	32.3906	-23.4162	3.0863	-0.5661	0.4450	-0.5073	-0.4735
2.18	-9.5680	-0.2442	0.8731	-0.0003	0.0067	-0.0538	32.1783	-23.3201	2.8173	-0.5661	0.4450	-0.5073	-0.4734
2.19	-9.5741	-0.2402	0.8850	-0.0030	0.0071	-0.0598	32.2786	-23.3341	2.7170	-0.5661	0.4450	-0.5074	-0.4734
2.2	-9.5818	-0.2447	0.8833	-0.0023	0.0059	-0.0528	32.4845	-23.4678	2.8114	-0.5661	0.4450	-0.5074	-0.4733
2.21	-9.5881	-0.2487	0.8826	-0.0053	0.0025	-0.0497	32.1844	-23.5911	3.1698	-0.5661	0.4449	-0.5074	-0.4733
2.22	-9.5849	-0.2565	0.8814	-0.0008	0.0017	-0.0485	31.8825	-23.4961	2.8858	-0.5662	0.4449	-0.5075	-0.4733
2.23	-9.5726	-0.2653	0.8717	-0.0072	0.0041	-0.0507	32.3362	-23.3723	2.5589	-0.5662	0.4449	-0.5075	-0.4732
2.24	-9.5566	-0.2719	0.8706	-0.0092	-0.0035	-0.0482	32.3664	-23.4873	2.5685	-0.5662	0.4448	-0.5076	-0.4733
2.25	-9.5487	-0.2757	0.8624	-0.0070	0.0004	-0.0515	32.2979	-23.5178	2.5645	-0.5661	0.4448	-0.5075	-0.4732
2.26	-9.5571	-0.2733	0.8613	-0.0035	0.0081	-0.0427	32.3073	-23.3759	2.5588	-0.5662	0.4448	-0.5076	-0.4733
2.27	-9.5667	-0.2667	0.8649	-0.0055	0.0114	-0.0400	32.3874	-23.4678	2.7433	-0.5661	0.4447	-0.5077	-0.4732
2.28	-9.5910	-0.2571	0.8625	-0.0105	0.0109	-0.0422	32.5814	-23.5215	2.7308	-0.5661	0.4447	-0.5078	-0.4732
2.29	-9.6096	-0.2469	0.8622	-0.0112	0.0060	-0.0384	32.2459	-23.4015	2.8733	-0.5660	0.4447	-0.5078	-0.4732
2.3	-9.6307	-0.2428	0.8639	-0.0120	0.0091	-0.0413	32.1446	-23.2856	2.7760	-0.5660	0.4447	-0.5079	-0.4733
2.31	-9.6519	-0.2435	0.8758	-0.0089	0.0081	-0.0394	32.2766	-23.4009	2.7905	-0.5660	0.4446	-0.5080	-0.4733
2.32	-9.6733	-0.2463	0.8966	-0.0101	-0.0023	-0.0432	32.1213	-23.4078	2.8739	-0.5659	0.4446	-0.5079	-0.4733
2.33	-9.7142	-0.2570	0.9068	-0.0164	-0.0101	-0.0434	32.1495	-23.4349	2.6033	-0.5660	0.4446	-0.5080	-0.4734
2.34	-9.6828	-0.2628	0.9167	-0.0142	-0.0197	-0.0452	32.1278	-23.3611	2.8476	-0.5660	0.4445	-0.5079	-0.4734
2.35	-9.6591	-0.2654	0.9271	-0.0061	-0.0234	-0.0463	32.1641	-23.3211	2.7732	-0.5661	0.4444	-0.5079	-0.4735
2.36	-9.6075	-0.2778	0.9427	-0.0031	-0.0317	-0.0511	32.0294	-23.3180	2.7074	-0.5661	0.4443	-0.5078	-0.4735
2.37	-9.5599	-0.2828	0.9528	-0.0028	-0.0278	-0.0515	32.0736	-23.2383	2.8002	-0.5662	0.4442	-0.5078	-0.4736
2.38	-9.5264	-0.2868	0.9623	0.0000	-0.0351	-0.0450	32.1958	-23.1965	2.7928	-0.5663	0.4440	-0.5077	-0.4736
2.39	-9.5051	-0.2773	0.9692	0.0130	-0.0223	-0.0393	32.3253	-23.4207	2.7069	-0.5664	0.4438	-0.5077	-0.4736
2.4	-9.4822	-0.2627	0.9743	0.0176	-0.0273	-0.0372	32.3050	-23.3828	2.9786	-0.5666	0.4437	-0.5078	-0.4737
2.41	-9.4623	-0.2418	0.9742	0.0224	-0.0199	-0.0397	32.3563	-23.3648	2.7500	-0.5666	0.4435	-0.5078	-0.4736
2.42	-9.4643	-0.2274	0.9731	0.0216	-0.0095	-0.0415	32.4369	-23.5809	2.7670	-0.5667	0.4434	-0.5080	-0.4736
2.43	-9.4678	-0.2152	0.9695	0.0133	-0.0008	-0.0440	32.3040	-23.3584	2.6486	-0.5667	0.4432	-0.5080	-0.4735
2.44	-9.4882	-0.2043	0.9708	0.0150	0.0174	-0.0503	32.4262	-23.4653	2.6558	-0.5668	0.4432	-0.5082	-0.4735
2.45	-9.5031	-0.1962	0.9635	0.0159	0.0173	-0.0500	32.3994	-23.6591	2.6723	-0.5668	0.4431	-0.5083	-0.4734
2.46	-9.5168	-0.1859	0.9547	0.0196	0.0284	-0.0615	32.4097	-23.4115	2.9461	-0.5668	0.4431	-0.5084	-0.4732
2.47	-9.5366	-0.1801	0.9473	0.0096	0.0267	-0.0606	32.3206	-23.4016	2.8285	-0.5668	0.4431	-0.5086	-0.4730
2.48	-9.5481	-0.1797	0.9424	0.0010	0.0312	-0.0633	32.4175	-23.5632	2.7082	-0.5668	0.4432	-0.5086	-0.4729
2.49	-9.5613	-0.1857	0.9335	-0.0001	0.0339	-0.0666	32.2053	-23.5786	2.6048	-0.5668	0.4433	-0.5088	-0.4728
2.5	-9.5541	-0.1794	0.9158	-0.0012	0.0365	-0.0666	32.3223	-23.2769	2.8607	-0.5667	0.4433	-0.5088	-0.4726
2.51	-9.5535	-0.1869	0.9167	-0.0151	0.0309	-0.0685	32.2089	-23.4784	2.8089	-0.5667	0.4435	-0.5089	-0.4725
2.52	-9.5890	-0.1994	0.8970	-0.0280	0.0375	-0.0610	32.7506	-23.4563	2.7668	-0.5666	0.4436	-0.5090	-0.4724
2.53	-9.5992	-0.2116	0.8901	-0.0273	0.0359	-0.0569	32.9301	-23.3930	3.1946	-0.5665	0.4437	-0.5090	-0.4723
2.54	-9.6165	-0.2159	0.8822	-0.0291	0.0380	-0.0595	32.6199	-23.3159	2.8267	-0.5663	0.4439	-0.5091	-0.4723
2.55	-9.6395	-0.2436	0.8747	-0.0281	0.0319	-0.0505	32.5008	-23.1248	2.7851	-0.5662	0.4440	-0.5092	-0.4722
2.56	-9.6456	-0.2638	0.8776	-0.0282	0.0257	-0.0491	32.1221	-23.3054	2.8579	-0.5661	0.4441	-0.5092	-0.4722
2.57	-9.6476	-0.2752	0.8739	-0.0278	0.0281	-0.0460	32.1160	-23.3800	2.6096	-0.5660	0.4441	-0.5092	-0.4722
2.58	-9.6480	-0.2948	0.8775	-0.0295	0.0180	-0.0439	32.2539	-23.2526	2.9545	-0.5659	0.4443	-0.5094	-0.4723
2.59	-9.6588	-0.3035	0.8746	-0.0237	0.0112	-0.0393	32.0748	-23.2796	2.8757	-0.5658	0.4443	-0.5094	-0.4723
2.6	-9.6469	-0.3054	0.8825	-0.0149	0.0031	-0.0423	32.2284	-23.5567	2.6624	-0.5658	0.4443	-0.5094	-0.4723
2.61	-9.6285	-0.3040	0.8856	-0.0080	-0.0073	-0.0433	32.2999	-23.8595	2.6880	-0.5658	0.4442	-0.5094	-0.4723
2.62	-9.6169	-0.3013	0.8887	-0.0023	-0.0095	-0.0437	32.2205	-23.6144	2.8189	-0.5658	0.4441	-0.5094	-0.4723
2.63	-9.5948	-0.2861	0.8934	-0.0032	-0.0044	-0.0498	32.3904	-23.5258	2.6877	-0.5658	0.4441	-0.5095	-0.4723
2.64	-9.5767	-0.2732	0.8970	0.0010	-0.0095	-0.0496	32.4139	-23.8268	2.7629	-0.5659	0.4440	-0.5095	-0.4723
2.65	-9.5533	-0.2569	0.9023	0.0075	-0.0080	-0.0506	32.3792	-23.6858	2.7905	-0.5660	0.4439	-0.5096	-0.4723
2.66	-9.5382	-0.2432	0.9039	0.0144	-0.0087	-0.0540	32.3085	-23.5972	2.6233	-0.5660	0.4438	-0.5096	-0.4722
2.67	-9.5255	-0.2271	0.9018	0.0130	-0.0026	-0.0533	32.2674	-23.6567	2.7809	-0.5661	0.4437	-0.5096	-0.4722
2.68	-9.5129	-0.2167	0.9050	0.0197	-0.0009	-0.0551	32.1078	-23.5093	2.7643	-0.5661	0.4436	-0.5097	-0.4720
2.69	-9.5154	-0.2136	0.9119	0.0106	0.0052	-0.0545	32.2620	-23.5705	2.6760	-0.5662	0.4436	-0.5098	-0.4720
2.7	-9.5120	-0.2037	0.9025	0.0066	0.0089	-0.0485	32.3572	-23.4548	2.8285	-0.5662	0.4435	-0.5099	-0.4719
2.71	-9.5260	-0.1996	0.9050	0.0067	0.0228	-0.0585	32.1689	-23.5203	2.6636	-0.5662	0.4435	-0.5099	-0.4718
2.72	-9.5546	-0.2018	0.8997	-0.0044	0.0186	-0.0592	31.9081	-23.5431	2.6917	-0.5663	0.4436	-0.5100	-0.4717
2.73	-9.5614	-0.2100	0.8889	-0.0022	0.0237	-0.0549	32.2662	-23.4192	2.7970	-0.5662	0.4436	-0.5101	-0.4716
2.74	-9.5693	-0.2108	0.8771	-0.0042	0.0309	-0.0511	32.1231	-23.4419	2.9665	-0.5662	0.4436	-0.5103	-0.4715
2.75	-9.6087	-0.1990	0.8682	-0.0072	0.0238	-0.0506	32.2346	-23.1275	2.8499	-0.5661	0.4436	-0.5103	-0.4714
2.76	-9.6175	-0.1970	0.8611	-0.0021	0.0356	-0.0544	32.3076	-23.4492	2.8752	-0.5661	0.4437	-0.5105	-0.4714
2.77	-9.5919	-0.2063	0.8550	-0.0127	0.0246	-0.0583	32.2075	-23.3857	2.9881	-0.5660	0.4438	-0.5105	-0.4713
2.78	-9.5888	-0.2214	0.8523	-0.0262	0.0183	-0.0583	32.2131	-23.4022	2.9266	-0.5659	0.4439	-0.5106	-0.4712
2.79	-9.5968	-0.2288	0.8483	-0.0221	0.0259	-0.0502	32.3367	-23.5615	2.9929	-0.5658	0.4439	-0.5106	-0.4712
2.8	-9.6074	-0.2332	0.8445	-0.0272	0.0214	-0.0533	32.5136	-23.6434	2.7745	-0.5658	0.4440	-0.5106	-0.4712
2.81	-9.6487	-0.2336	0.8531	-0.0278	0.0093	-0.0503	32.3310	-23.7706	2.8590	-0.5657	0.4441	-0.5107	-0.4712
2.82	-9.6891	-0.2500	0.8544	-0.0293	0.0180	-0.0522	32.5332	-23.5151	2.7853	-0.5656	0.4441	-0.5106	-0.4712
2.83	-9.6880	-0.2570	0.8626	-0.0255	0.0072	-0.0483	32.3483	-23.5479	2.7741	-0.5656	0.4442	-0.5107	-0.4712
2.84	-9.6695	-0.2580	0.8577	-0.0267	-0.0025	-0.0472	32.3250	-23.6582	2.7549	-0.5655	0.4442	-0.5106	-0.4713
2.85	-9.6339	-0.2729	0.8652	-0.0209	-0.0089	-0.0536	32.2478	-23.5594	2.8654	-0.5656	0.4443	-0.5107	-0.4713
2.86	-9.5914	-0.2777	0.8691	-0.0202	-0.0096	-0.0525	32.1342	-23.4262	2.7628	-0.5655	0.4442	-0.5106	-0.4713
2.87	-9.5721	-0.2816	0.8691	-0.0145	-0.0077	-0.0456	32.1088	-23.4743	2.7899	-0.5655	0.4442	-0.5106	-0.4714
2.88	-9.5593	-0.2848	0.8728	-0.0121	-0.0123	-0.0418	32.2106	-23.5700	2.8986	-0.5655	0.4441	-0.5106	-0.4714
2.89	-9.5351	-0.2753	0.8714	-0.0086	-0.0071	-0.0543	32.2057	-23.4526	2.8397	-0.5655	0.4441	-0.5105	-0.4714
2.9	-9.5123	-0.2676	0.8750	-0.0015	-0.0045	-0.0555	32.2798	-23.3385	2.8825	-0.5657	0.4441	-0.5106	-0.4714
2.91	-9.4960	-0.2563	0.8677	-0.0027	0.0031	-0.0588	32.0968	-23.3823	2.8292	-0.5656	0.4440	-0.5106	-0.4713
2.92	-9.4782	-0.2434	0.8630	-0.0002	0.0135	-0.0604	32.1557	-23.3165	2.9406	-0.5657	0.4441	-0.5107	-0.4713
2.93	-9.4819	-0.2282	0.8523	-0.0013	0.0249	-0.0606	32.2629	-23.5618	2.9583	-0.5656	0.4441	-0.5107	-0.4711
2.94	-9.4920	-0.2183	0.8520	0.0019	0.0291	-0.0670	31.9856	-23.4996	2.9665	-0.5657	0.4442	-0.5108	-0.4710
2.95	-9.5248	-0.2103	0.8478	-0.0007	0.0305	-0.0651	32.0685	-23.4504	2.9083	-0.5656	0.4442	-0.5109	-0.4708
2.96	-9.5777	-0.2079	0.8411	-0.0096	0.0267	-0.0610	32.0860	-23.3644	2.8213	-0.5656	0.4443	-0.5110	-0.4707
2.97	-9.6109	-0.2078	0.8359	-0.0105	0.0302	-0.0571	32.2791	-23.4523	2.9994	-0.5655	0.4444	-0.5111	-0.4707
2.98	-9.6370	-0.2078	0.8326	-0.0158	0.0304	-0.0586	32.1617	-23.5657	2.7612	-0.5655	0.4444	-0.5112	-0.4706
2.99	-9.6636	-0.2232	0.8274	-0.0285	0.0250	-0.0550	32.3723	-23.5160	2.6373	-0.5654	0.4446	-0.5112	-0.4706
3	-9.6870	-0.2442	0.8279	-0.0281	0.0184	-0.0521	32.4173	-23.5564	2.7831	-0.5652	0.4446	-0.5112	-0.4705
3.01	-9.6845	-0.2602	0.8246	-0.0290	0.0086	-0.0572	32.2901	-23.3985	2.8803	-0.5653	0.4447	-0.5112	-0.4706
3.02	-9.6758	-0.2795	0.8319	-0.0287	-0.0029	-0.0501	32.6624	-23.5186	3.0225	-0.5652	0.4447	-0.5112	-0.4706
3.03	-9.6576	-0.2954	0.8309	-0.0272	-0.0066	-0.0448	32.9075	-23.4730	3.0773	-0.5652	0.4447	-0.5112	-0.4707
3.04	-9.6416	-0.3070	0.8418	-0.0286	-0.0085	-0.0449	32.5669	-23.3676	2.9623	-0.5651	0.4447	-0.5111	-0.4707
3.05	-9.6190	-0.3171	0.8431	-0.0164	-0.0095	-0.0445	32.3258	-23.3926	2.9316	-0.5651	0.4447	-0.5111	-0.4708
3.06	-9.5800	-0.3190	0.8490	0.0002	-0.0142	-0.0466	32.2238	-23.3602	2.6851	-0.5652	0.4446	-0.5111	-0.4708
3.07	-9.5480	-0.3103	0.8536	-0.0040	-0.0069	-0.0425	32.1291	-23.4643	2.6367	-0.5652	0.4445	-0.5111	-0.4708
3.08	-9.5170	-0.2942	0.8611	0.0009	-0.0027	-0.0542	32.1531	-23.7391	2.7654	-0.5653	0.4445	-0.5112	-0.4708
3.09	-9.5456	-0.2834	0.8703	0.0025	-0.0046	-0.0572	32.1339	-23.5541	3.0873	-0.5653	0.4444	-0.5112	-0.4707
3.1	-9.5275	-0.2784	0.8827	0.0114	0.0003	-0.0611	32.4210	-23.4622	3.0648	-0.5654	0.4444	-0.5113	-0.4707
3.11	-9.5168	-0.2498	0.8853	0.0194	0.0016	-0.0683	32.3131	-23.4973	2.9258	-0.5654	0.4443	-0.5113	-0.4705
3.12	-9.4974	-0.2355	0.8771	0.0175	0.0137	-0.0700	32.3306	-23.3709	2.8981	-0.5656	0.4443	-0.5114	-0.4704
3.13	-9.4787	-0.2268	0.8845	0.0085	0.0205	-0.0725	32.2776	-23.4155	2.8509	-0.5656	0.4444	-0.5114	-0.4702
3.14	-9.5065	-0.2323	0.8696	0.0029	0.0211	-0.0647	32.1937	-23.3817	3.0509	-0.5656	0.4444	-0.5115	-0.4700
3.15	-9.5246	-0.2292	0.8690	-0.0018	0.0272	-0.0596	32.2750	-23.5081	2.9175	-0.5656	0.4445	-0.5116	-0.4700
3.16	-9.5443	-0.2160	0.8607	-0.0009	0.0289	-0.0496	32.2996	-23.6165	2.7742	-0.5655	0.4445	-0.5117	-0.4698
3.17	-9.5770	-0.2175	0.8510	-0.0129	0.0322	-0.0541	32.4349	-23.4915	2.7819	-0.5655	0.4446	-0.5118	-0.4698
3.18	-9.6078	-0.2252	0.8452	-0.0170	0.0373	-0.0472	32.6332	-23.4896	3.0389	-0.5653	0.4446	-0.5119	-0.4697
3.19	-9.6262	-0.2368	0.8361	-0.0214	0.0392	-0.0506	32.4314	-23.4608	3.1587	-0.5652	0.4447	-0.5120	-0.4697
3.2	-9.6458	-0.2458	0.8213	-0.0286	0.0392	-0.0470	32.4254	-23.3800	2.8518	-0.5651	0.4448	-0.5121	-0.4696
3.21	-9.6449	-0.2577	0.8171	-0.0231	0.0270	-0.0419	32.3361	-23.3968	2.9139	-0.5650	0.4449	-0.5122	-0.4696
3.22	-9.6531	-0.2660	0.8132	-0.0265	0.0215	-0.0442	32.2150	-23.4985	3.0176	-0.5649	0.4450	-0.5123	-0.4696
3.23	-9.6573	-0.2715	0.8123	-0.0296	0.0201	-0.0485	32.3720	-23.5993	2.9586	-0.5648	0.4450	-0.5123	-0.4696
3.24	-9.6580	-0.2774	0.8122	-0.0228	0.0117	-0.0555	32.4483	-23.3430	3.2269	-0.5647	0.4451	-0.5123	-0.4696
3.25	-9.6541	-0.2842	0.8136	-0.0194	0.0043	-0.0574	32.2915	-23.6011	2.8044	-0.5647	0.4451	-0.5123	-0.4695
3.26	-9.6461	-0.2873	0.8198	-0.0166	-0.0017	-0.0547	32.3573	-23.5432	2.8557	-0.5647	0.4452	-0.5123	-0.4696
3.27	-9.6338	-0.2903	0.8272	-0.0209	-0.0090	-0.0559	32.2392	-23.3273	2.9977	-0.5647	0.4451	-0.5123	-0.4696
3.28	-9.6195	-0.2928	0.8358	-0.0028	-0.0057	-0.0615	32.3120	-23.2282	3.0342	-0.5648	0.4451	-0.5123	-0.4696
3.29	-9.6031	-0.2915	0.8406	-0.0066	-0.0093	-0.0584	32.3128	-23.3092	2.9281	-0.5648	0.4451	-0.5122	-0.4695
3.3	-9.5835	-0.2914	0.8485	-0.0031	-0.0058	-0.0577	32.2372	-23.3168	2.7742	-0.5649	0.4451	-0.5122	-0.4695
3.31	-9.5661	-0.2865	0.8519	-0.0091	-0.0062	-0.0505	32.1522	-23.3135	2.9724	-0.5649	0.4450	-0.5122	-0.4695
3.32	-9.5430	-0.2935	0.8562	-0.0055	-0.0072	-0.0493	32.2782	-23.2971	3.0570	-0.5649	0.4450	-0.5122	-0.4695
3.33	-9.5361	-0.2828	0.8584	-0.0022	-0.0041	-0.0488	32.5685	-23.4306	2.7873	-0.5650	0.4450	-0.5123	-0.4695
3.34	-9.5267	-0.2733	0.8609	-0.0034	-0.0040	-0.0449	32.1329	-23.3612	2.8792	-0.5650	0.4449	-0.5123	-0.4695
3.35	-9.5233	-0.2697	0.8580	0.0016	0.0002	-0.0446	32.2207	-23.5060	3.0218	-0.5650	0.4448	-0.5124	-0.4695
3.36	-9.5335	-0.2616	0.8587	0.0021	0.0058	-0.0443	32.2977	-23.3702	3.0208	-0.5650	0.4447	-0.5124	-0.4694
3.37	-9.5409	-0.2621	0.8535	0.0011	0.0144	-0.0495	32.6240	-23.4480	3.0367	-0.5650	0.4447	-0.5125	-0.4694
3.38	-9.5553	-0.2565	0.8495	0.0013	0.0195	-0.0459	32.4290	-23.6267	2.9814	-0.5650	0.4447	-0.5126	-0.4693
3.39	-9.5689	-0.2503	0.8450	0.0062	0.0235	-0.0478	32.1923	-23.5036	2.8967	-0.5649	0.4447	-0.5127	-0.4692
3.4	-9.5753	-0.2445	0.8409	-0.0030	0.0179	-0.0469	32.3340	-23.1695	2.9684	-0.5649	0.4447	-0.5129	-0.4692
3.41	-9.5786	-0.2457	0.8322	-0.0025	0.0157	-0.0524	32.5094	-23.0140	2.7024	-0.5649	0.4447	-0.5129	-0.4691
3.42	-9.5823	-0.2386	0.8247	0.0005	0.0218	-0.0552	32.3669	-23.5469	2.9003	-0.5649	0.4447	-0.5131	-0.4691
3.43	-9.5920	-0.2340	0.8223	-0.0008	0.0182	-0.0572	32.2984	-23.6874	3.0208	-0.5648	0.4447	-0.5131	-0.4689
3.44	-9.5988	-0.2402	0.8190	-0.0030	0.0146	-0.0464	32.4211	-23.3085	2.9646	-0.5648	0.4447	-0.5132	-0.4689
3.45	-9.6005	-0.2387	0.8126	-0.0044	0.0145	-0.0493	32.1196	-23.3350	3.3212	-0.5648	0.4447	-0.5133	-0.4688
3.46	-9.6049	-0.2443	0.8098	-0.0075	0.0185	-0.0446	32.4484	-23.5119	3.0042	-0.5647	0.4447	-0.5133	-0.4688
3.47	-9.6043	-0.2471	0.8198	-0.0107	0.0236	-0.0516	32.2875	-23.4498	3.1178	-0.5647	0.4448	-0.5134	-0.4688
3.48	-9.6083	-0.2532	0.8144	-0.0248	0.0180	-0.0460	32.0938	-23.4356	3.0120	-0.5646	0.4448	-0.5135	-0.4687
3.49	-9.6160	-0.2612	0.8037	-0.0261	0.0218	-0.0464	32.2024	-23.6732	3.2213	-0.5645	0.4449	-0.5135	-0.4688
3.5	-9.6193	-0.2629	0.8057	-0.0260	0.0213	-0.0523	32.3458	-23.2752	3.1989	-0.5644	0.4449	-0.5135	-0.4687
3.51	-9.6255	-0.2650	0.7981	-0.0235	0.0151	-0.0455	32.0763	-23.3229	3.3137	-0.5644	0.4450	-0.5136	-0.4688
3.52	-9.6346	-0.2718	0.8070	-0.0197	0.0166	-0.0489	32.5793	-23.2943	3.1238	-0.5643	0.4450	-0.5136	-0.4687
3.53	-9.6333	-0.2726	0.8075	-0.0112	0.0099	-0.0392	32.7275	-23.3630	3.1141	-0.5642	0.4450	-0.5137	-0.4687
3.54	-9.6287	-0.2732	0.8055	-0.0095	-0.0021	-0.0384	32.5962	-23.5083	3.1060	-0.5642	0.4450	-0.5137	-0.4687
3.55	-9.6179	-0.2782	0.8147	-0.0075	-0.0047	-0.0419	32.5086	-23.4630	3.0372	-0.5642	0.4449	-0.5138	-0.4688
3.56	-9.5992	-0.2752	0.8182	-0.0024	0.0048	-0.0413	32.3936	-23.4122	3.0472	-0.5642	0.4449	-0.5139	-0.4688
3.57	-9.5833	-0.2760	0.8113	-0.0037	-0.0046	-0.0494	32.4093	-23.6354	2.9589	-0.5642	0.4448	-0.5138	-0.4687
3.58	-9.5672	-0.2749	0.8060	-0.0024	-0.0056	-0.0479	32.2407	-23.5765	2.8170	-0.5643	0.4448	-0.5139	-0.4688
3.59	-9.5539	-0.2743	0.8104	-0.0046	-0.0031	-0.0550	32.1876	-23.4953	3.0457	-0.5643	0.4447	-0.5139	-0.4687
3.6	-9.5493	-0.2675	0.8119	-0.0037	-0.0105	-0.0530	32.1983	-23.5323	2.9610	-0.5644	0.4447	-0.5140	-0.4688
3.61	-9.5674	-0.2605	0.8168	-0.0004	0.0101	-0.0479	32.1982	-23.4166	2.8564	-0.5643	0.4446	-0.5140	-0.4687
3.62	-9.5768	-0.2686	0.8105	-0.0036	0.0115	-0.0517	32.1860	-23.5457	2.6793	-0.5643	0.4446	-0.5141	-0.4686
3.63	-9.5565	-0.2615	0.8075	-0.0005	0.0124	-0.0490	32.2171	-23.4755	2.7474	-0.5643	0.4446	-0.5141	-0.4686
3.64	-9.5721	-0.2495	0.8148	0.0044	0.0178	-0.0475	32.1059	-23.3190	2.9738	-0.5642	0.4446	-0.5142	-0.4685
3.65	-9.5977	-0.2299	0.8099	-0.0008	0.0149	-0.0442	32.1121	-23.3629	2.9145	-0.5643	0.4446	-0.5144	-0.4685
3.66	-9.5710	-0.2185	0.8042	0.0038	0.0208	-0.0534	32.2336	-23.4270	3.1025	-0.5642	0.4445	-0.5144	-0.4684
3.67	-9.5705	-0.2217	0.8048	-0.0016	0.0165	-0.0569	32.1592	-23.2392	2.9049	-0.5643	0.4446	-0.5145	-0.4683
3.68	-9.5815	-0.2288	0.7990	-0.0026	0.0198	-0.0552	32.3228	-23.2508	3.0533	-0.5642	0.4446	-0.5145	-0.4682
3.69	-9.5908	-0.2298	0.8031	-0.0005	0.0219	-0.0553	32.1233	-23.3575	3.1026	-0.5642	0.4446	-0.5147	-0.4681
3.7	-9.6152	-0.2213	0.8052	-0.0122	0.0182	-0.0478	32.1591	-23.4984	2.8506	-0.5641	0.4446	-0.5147	-0.4681
3.71	-9.6530	-0.2254	0.8115	-0.0086	0.0143	-0.0495	32.1937	-23.5173	3.1277	-0.5641	0.4446	-0.5148	-0.4680
3.72	-9.6643	-0.2420	0.8154	-0.0198	0.0014	-0.0481	32.3063	-23.5136	3.1477	-0.5641	0.4447	-0.5148	-0.4681
3.73	-9.6375	-0.2448	0.8066	-0.0170	0.0033	-0.0418	32.3801	-23.4986	2.8005	-0.5640	0.4446	-0.5148	-0.4681
3.74	-9.6042	-0.2487	0.8087	-0.0121	-0.0027	-0.0460	32.4026	-23.3607	2.7911	-0.5640	0.4446	-0.5149	-0.4681
3.75	-9.5744	-0.2580	0.8100	-0.0269	-0.0101	-0.0397	32.2381	-23.6283	2.9578	-0.5639	0.4445	-0.5148	-0.4681
3.76	-9.5688	-0.2649	0.8116	-0.0203	0.0025	-0.0371	32.5740	-23.6743	2.9586	-0.5640	0.4446	-0.5149	-0.4683
3.77	-9.5656	-0.2730	0.8058	-0.0218	-0.0015	-0.0370	32.4161	-23.4258	3.0617	-0.5639	0.4445	-0.5149	-0.4683
3.78	-9.5591	-0.2668	0.7995	-0.0078	0.0049	-0.0382	32.1839	-23.6787	3.0234	-0.5639	0.4445	-0.5150	-0.4683
3.79	-9.5574	-0.2638	0.8004	-0.0194	0.0152	-0.0455	32.0731	-23.7949	3.0427	-0.5638	0.4445	-0.5150	-0.4683
3.8	-9.5600	-0.2693	0.7974	-0.0091	0.0115	-0.0463	32.1866	-23.6360	3.1708	-0.5637	0.4445	-0.5151	-0.4683
3.81	-9.5561	-0.2647	0.7972	-0.0019	0.0132	-0.0490	32.2654	-23.5668	3.0495	-0.5637	0.4445	-0.5151	-0.4683
3.82	-9.5477	-0.2569	0.7903	-0.0034	0.0142	-0.0535	32.1653	-23.3260	3.0292	-0.5637	0.4445	-0.5152	-0.4681
3.83	-9.5465	-0.2486	0.7861	-0.0019	0.0241	-0.0542	32.2025	-23.3440	3.0157	-0.5637	0.4446	-0.5153	-0.4681
3.84	-9.5420	-0.2432	0.7745	-0.0015	0.0178	-0.0578	32.0736	-23.4721	3.0677	-0.5637	0.4445	-0.5154	-0.4680
3.85	-9.5569	-0.2377	0.7780	0.0001	0.0158	-0.0534	32.1234	-23.3417	2.9199	-0.5637	0.4446	-0.5155	-0.4680
3.86	-9.5765	-0.2307	0.7727	0.0028	0.0226	-0.0573	32.1049	-23.3331	3.0559	-0.5636	0.4445	-0.5155	-0.4678
3.87	-9.5912	-0.2233	0.7691	-0.0015	0.0232	-0.0525	32.0968	-23.4575	3.0970	-0.5636	0.4446	-0.5156	-0.4677
3.88	-9.5977	-0.2175	0.7642	-0.0007	0.0284	-0.0530	32.3283	-23.3792	3.0557	-0.5636	0.4446	-0.5158	-0.4676
3.89	-9.6038	-0.2129	0.7591	-0.0029	0.0251	-0.0507	32.0900	-23.2383	3.1606	-0.5635	0.4446	-0.5158	-0.4675
3.9	-9.6196	-0.2168	0.7584	-0.0042	0.0172	-0.0477	32.2415	-23.2547	2.9947	-0.5636	0.4447	-0.5160	-0.4675
3.91	-9.6284	-0.2221	0.7556	-0.0078	0.0170	-0.0463	32.3954	-23.5268	2.9044	-0.5635	0.4446	-0.5160	-0.4675
3.92	-9.6373	-0.2164	0.7489	-0.0203	0.0163	-0.0461	32.4353	-23.4493	3.0397	-0.5634	0.4447	-0.5161	-0.4675
3.93	-9.6371	-0.2184	0.7485	-0.0250	0.0133	-0.0435	32.4025	-23.3915	2.9304	-0.5633	0.4447	-0.5161	-0.4674
3.94	-9.6466	-0.2213	0.7418	-0.0159	0.0149	-0.0452	32.2297	-23.6896	2.9683	-0.5633	0.4447	-0.5162	-0.4675
3.95	-9.6434	-0.2241	0.7436	-0.0227	0.0073	-0.0456	32.3524	-23.6370	3.0598	-0.5632	0.4448	-0.5162	-0.4675
3.96	-9.6363	-0.2250	0.7504	-0.0148	-0.0018	-0.0434	32.3983	-23.5819	3.0306	-0.5632	0.4447	-0.5162	-0.4675
3.97	-9.6221	-0.2322	0.7575	-0.0157	-0.0037	-0.0465	32.1673	-23.6092	3.0291	-0.5632	0.4447	-0.5162	-0.4676
3.98	-9.6419	-0.2371	0.7679	-0.0117	0.0005	-0.0524	32.2067	-23.7291	3.0636	-0.5632	0.4447	-0.5162	-0.4675
3.99	-9.6485	-0.2569	0.7715	-0.0148	-0.0073	-0.0579	32.1770	-23.6104	2.9526	-0.5632	0.4447	-0.5162	-0.4676
4	-9.6053	-0.2632	0.7815	-0.0089	-0.0101	-0.0600	32.2833	-23.6096	3.0179	-0.5632	0.4446	-0.5161	-0.4675
4.01	-9.5926	-0.2681	0.7782	-0.0169	-0.0084	-0.0598	32.2876	-23.4678	3.1565	-0.5633	0.4447	-0.5161	-0.4675
4.02	-9.5464	-0.2674	0.7870	-0.0207	-0.0059	-0.0583	32.4612	-23.2704	3.4499	-0.5633	0.4447	-0.5161	-0.4675
4.03	-9.5446	-0.2755	0.7884	-0.0167	-0.0086	-0.0557	32.6970	-23.4333	3.4638	-0.5633	0.4447	-0.5161	-0.4676
4.04	-9.5537	-0.2802	0.7943	-0.0092	-0.0047	-0.0537	32.4066	-23.3615	3.2594	-0.5633	0.4447	-0.5160	-0.4675
4.05	-9.5629	-0.2632	0.7969	-0.0069	-0.0047	-0.0438	32.3033	-23.2821	3.1746	-0.5633	0.4446	-0.5161	-0.4676
4.06	-9.5818	-0.2456	0.7943	-0.0040	-0.0077	-0.0410	32.2319	-23.3909	3.0575	-0.5634	0.4446	-0.5161	-0.4676
4.07	-9.5962	-0.2308	0.7995	-0.0044	0.0085	-0.0472	32.1585	-23.3907	3.0307	-0.5633	0.4445	-0.5161	-0.4675
4.08	-9.6074	-0.2316	0.7908	-0.0025	0.0033	-0.0473	32.1557	-23.4630	3.1425	-0.5634	0.4445	-0.5162	-0.4676
4.09	-9.6135	-0.2339	0.7958	-0.0052	-0.0076	-0.0466	32.0288	-23.4523	3.0009	-0.5634	0.4444	-0.5162	-0.4675
4.1	-9.6091	-0.2321	0.7939	-0.0022	0.0046	-0.0514	32.1428	-23.4567	3.3523	-0.5634	0.4444	-0.5163	-0.4675
4.11	-9.6106	-0.2338	0.7856	-0.0036	0.0023	-0.0538	32.2567	-23.6062	3.1269	-0.5634	0.4443	-0.5163	-0.4674
4.12	-9.6000	-0.2350	0.7938	-0.0026	0.0028	-0.0569	32.3585	-23.3650	2.8835	-0.5634	0.4444	-0.5163	-0.4674
4.13	-9.5916	-0.2288	0.7881	-0.0097	-0.0006	-0.0580	32.3222	-23.6138	3.0350	-0.5635	0.4444	-0.5163	-0.4674
4.14	-9.5766	-0.2338	0.7866	-0.0026	0.0033	-0.0561	32.3550	-23.5197	3.0510	-0.5635	0.4443	-0.5163	-0.4673
4.15	-9.5728	-0.2362	0.7865	-0.0065	-0.0001	-0.0590	32.2227	-23.2794	2.9338	-0.5636	0.4444	-0.5164	-0.4673
4.16	-9.5725	-0.2441	0.7815	-0.0113	-0.0043	-0.0595	32.1407	-23.2525	3.0874	-0.5635	0.4443	-0.5163	-0.4673
4.17	-9.5737	-0.2420	0.7905	-0.0050	0.0031	-0.0499	32.1956	-23.6239	3.2115	-0.5636	0.4443	-0.5164	-0.4673
4.18	-9.5829	-0.2409	0.7934	-0.0080	-0.0016	-0.0542	32.4637	-23.4675	3.2557	-0.5635	0.4443	-0.5164	-0.4672
4.19	-9.5953	-0.2383	0.7906	-0.0128	-0.0056	-0.0464	32.2702	-23.5422	2.9559	-0.5636	0.4443	-0.5164	-0.4673
4.2	-9.5969	-0.2424	0.7908	-0.0071	0.0004	-0.0456	32.2782	-23.3926	3.1757	-0.5636	0.4442	-0.5164	-0.4673
4.21	-9.6036	-0.2382	0.7855	-0.0038	0.0066	-0.0445	32.0886	-23.2841	3.2383	-0.5636	0.4442	-0.5165	-0.4672
4.22	-9.6043	-0.2301	0.7866	-0.0159	0.0056	-0.0462	32.0595	-23.4352	3.2174	-0.5635	0.4442	-0.5165	-0.4673
4.23	-9.5961	-0.2303	0.7839	-0.0139	0.0008	-0.0475	32.1965	-23.5468	3.3657	-0.5635	0.4442	-0.5165	-0.4673
4.24	-9.5967	-0.2303	0.7840	-0.0074	0.0025	-0.0477	32.1496	-23.5776	3.4707	-0.5635	0.4442	-0.5166	-0.4673
4.25	-9.5952	-0.2318	0.7832	-0.0009	0.0072	-0.0484	32.5057	-23.2910	3.1823	-0.5635	0.4441	-0.5166	-0.4672
4.26	-9.5914	-0.2332	0.7849	-0.0053	0.0071	-0.0515	32.1175	-23.2333	3.3875	-0.5635	0.4441	-0.5167	-0.4672
4.27	-9.5795	-0.2402	0.7810	-0.0027	0.0034	-0.0539	31.9862	-23.5611	3.3339	-0.5635	0.4441	-0.5167	-0.4671
4.28	-9.5725	-0.2448	0.7825	-0.0036	0.0028	-0.0563	32.1366	-23.5573	3.1290	-0.5636	0.4441	-0.5168	-0.4671
4.29	-9.5677	-0.2474	0.7889	-0.0027	0.0006	-0.0569	32.3863	-23.3473	3.0180	-0.5636	0.4440	-0.5168	-0.4670
4.3	-9.5632	-0.2483	0.7860	-0.0048	0.0125	-0.0602	32.3777	-23.6251	3.0993	-0.5636	0.4441	-0.5168	-0.4670
4.31	-9.5679	-0.2471	0.7851	-0.0069	0.0050	-0.0578	32.3984	-23.6279	3.3070	-0.5636	0.4441	-0.5169	-0.4669
4.32	-9.5717	-0.2489	0.7834	-0.0020	0.0102	-0.0572	32.3427	-23.5690	3.0440	-0.5636	0.4440	-0.5169	-0.4668
4.33	-9.5744	-0.2479	0.7775	-0.0031	0.0107	-0.0511	32.3602	-23.6862	2.9122	-0.5636	0.4441	-0.5170	-0.4669
4.34	-9.5709	-0.2364	0.7755	-0.0028	0.0169	-0.0439	32.3924	-23.4024	3.1894	-0.5636	0.4440	-0.5170	-0.4668
4.35	-9.5726	-0.2318	0.7660	-0.0033	0.0173	-0.0494	32.1186	-23.4067	3.1656	-0.5636	0.4440	-0.5172	-0.4668
4.36	-9.5765	-0.2234	0.7662	-0.0026	0.0171	-0.0610	32.1821	-23.5079	3.1144	-0.5635	0.4440	-0.5172	-0.4666
4.37	-9.5844	-0.2171	0.7615	-0.0021	0.0144	-0.0518	32.1386	-23.4860	3.3824	-0.5636	0.4440	-0.5173	-0.4666
4.38	-9.5962	-0.2111	0.7507	-0.0052	0.0220	-0.0572	32.1965	-23.5361	3.2576	-0.5635	0.4440	-0.5173	-0.4665
4.39	-9.6019	-0.2048	0.7426	-0.0087	0.0228	-0.0615	32.3646	-23.3224	3.1261	-0.5635	0.4441	-0.5174	-0.4664
4.4	-9.6140	-0.2083	0.7395	-0.0108	0.0205	-0.0589	32.2110	-23.4242	3.1436	-0.5635	0.4442	-0.5175	-0.4664
4.41	-9.6207	-0.2100	0.7409	-0.0199	0.0172	-0.0605	32.1702	-23.3901	3.0951	-0.5634	0.4442	-0.5175	-0.4663
4.42	-9.6370	-0.2100	0.7418	-0.0171	0.0190	-0.0555	32.3156	-23.2727	3.0258	-0.5634	0.4443	-0.5175	-0.4663
4.43	-9.6441	-0.2197	0.7384	-0.0240	0.0132	-0.0574	32.0280	-23.4426	3.4653	-0.5633	0.4443	-0.5175	-0.4662
4.44	-9.6468	-0.2287	0.7391	-0.0279	0.0167	-0.0569	32.2173	-23.5889	3.4795	-0.5633	0.4444	-0.5175	-0.4663
4.45	-9.6480	-0.2413	0.7372	-0.0286	0.0022	-0.0576	32.0651	-23.2896	3.2029	-0.5633	0.4444	-0.5175	-0.4663
4.46	-9.6463	-0.2525	0.7401	-0.0262	-0.0014	-0.0595	32.1929	-23.4073	3.2911	-0.5633	0.4444	-0.5174	-0.4663
4.47	-9.6380	-0.2631	0.7502	-0.0289	-0.0029	-0.0576	32.4879	-23.4185	3.3625	-0.5633	0.4445	-0.5174	-0.4664
4.48	-9.6308	-0.2824	0.7571	-0.0274	-0.0122	-0.0573	32.3747	-23.3919	3.2287	-0.5633	0.4445	-0.5173	-0.4664
4.49	-9.6145	-0.2905	0.7598	-0.0255	-0.0049	-0.0544	32.5310	-23.4646	3.1039	-0.5633	0.4445	-0.5173	-0.4665
4.5	-9.5906	-0.2982	0.7553	-0.0278	-0.0104	-0.0537	32.4129	-23.5901	3.1558	-0.5632	0.4445	-0.5171	-0.4665
4.51	-9.5768	-0.3006	0.7620	-0.0199	-0.0085	-0.0466	32.4441	-23.5997	2.9152	-0.5633	0.4445	-0.5172	-0.4666
4.52	-9.5680	-0.3026	0.7628	-0.0119	-0.0106	-0.0443	32.7147	-23.5352	3.3016	-0.5633	0.4444	-0.5171	-0.4666
4.53	-9.5575	-0.2969	0.7669	-0.0152	-0.0097	-0.0555	32.9201	-23.1940	3.3363	-0.5634	0.4444	-0.5171	-0.4666
4.54	-9.5557	-0.2881	0.7644	-0.0030	-0.0085	-0.0490	32.6012	-23.3642	3.1981	-0.5634	0.4443	-0.5171	-0.4666
4.55	-9.5461	-0.2846	0.7644	-0.0064	-0.0044	-0.0540	32.3028	-23.4527	3.0156	-0.5634	0.4443	-0.5171	-0.4666
4.56	-9.5528	-0.2709	0.7606	0.0010	0.0024	-0.0472	32.0182	-23.5317	3.0743	-0.5635	0.4442	-0.5172	-0.4666
4.57	-9.5768	-0.2482	0.7594	0.0099	0.0156	-0.0524	32.0183	-23.5328	3.2438	-0.5634	0.4442	-0.5172	-0.4665
4.58	-9.5703	-0.2247	0.7580	0.0041	0.0098	-0.0606	32.1697	-23.2412	2.9623	-0.5635	0.4442	-0.5173	-0.4665
4.59	-9.5653	-0.2191	0.7528	0.0056	0.0163	-0.0550	32.1023	-23.2619	2.9493	-0.5635	0.4441	-0.5174	-0.4663
4.6	-9.5792	-0.2183	0.7466	0.0107	0.0203	-0.0577	32.1992	-23.3498	3.3564	-0.5636	0.4442	-0.5175	-0.4663
4.61	-9.5851	-0.2054	0.7470	0.0077	0.0167	-0.0564	32.3330	-23.1963	3.1500	-0.5635	0.4441	-0.5176	-0.4661
4.62	-9.6189	-0.1892	0.7511	0.0016	0.0206	-0.0548	32.1665	-23.2516	3.1756	-0.5636	0.4441	-0.5177	-0.4660
4.63	-9.6612	-0.1892	0.7528	-0.0028	0.0201	-0.0511	32.1231	-23.5374	3.3124	-0.5636	0.4441	-0.5178	-0.4660
4.64	-9.6924	-0.2020	0.7558	-0.0029	0.0155	-0.0527	32.1220	-23.3115	3.0759	-0.5635	0.4441	-0.5178	-0.4659
4.65	-9.6818	-0.2123	0.7576	-0.0080	0.0041	-0.0581	32.2442	-23.3154	3.2321	-0.5636	0.4441	-0.5179	-0.4659
4.66	-9.6421	-0.2208	0.7568	-0.0026	-0.0018	-0.0574	32.3365	-23.2983	3.2127	-0.5636	0.4440	-0.5179	-0.4658
4.67	-9.6014	-0.2345	0.7524	-0.0171	-0.0055	-0.0532	32.2886	-23.6190	3.1561	-0.5637	0.4441	-0.5179	-0.4659
4.68	-9.5770	-0.2499	0.7526	-0.0218	-0.0057	-0.0511	32.3292	-23.7011	3.0976	-0.5636	0.4440	-0.5178	-0.4659
4.69	-9.5652	-0.2571	0.7511	-0.0224	0.0018	-0.0459	32.2702	-23.5121	3.2658	-0.5636	0.4440	-0.5178	-0.4659
4.7	-9.5595	-0.2518	0.7531	-0.0269	-0.0037	-0.0395	32.2182	-23.6661	3.1433	-0.5636	0.4440	-0.5178	-0.4660
4.71	-9.5541	-0.2465	0.7418	-0.0226	0.0013	-0.0466	32.1539	-23.5978	3.1175	-0.5635	0.4440	-0.5178	-0.4660
4.72	-9.5543	-0.2462	0.7400	-0.0242	0.0060	-0.0501	32.0141	-23.4691	3.1143	-0.5635	0.4440	-0.5178	-0.4661
4.73	-9.5601	-0.2470	0.7305	-0.0167	0.0068	-0.0515	32.3274	-23.6279	3.1454	-0.5635	0.4440	-0.5178	-0.4661
4.74	-9.5610	-0.2512	0.7266	-0.0101	0.0191	-0.0560	32.2501	-23.4934	3.2665	-0.5635	0.4441	-0.5179	-0.4660
4.75	-9.5723	-0.2540	0.7190	-0.0188	0.0086	-0.0611	32.1255	-23.4756	3.0821	-0.5634	0.4441	-0.5178	-0.4660
4.76	-9.5821	-0.2607	0.7213	-0.0229	0.0148	-0.0621	32.1176	-23.7131	3.1717	-0.5634	0.4442	-0.5179	-0.4660
4.77	-9.5908	-0.2612	0.7168	-0.0177	0.0182	-0.0564	32.0028	-23.2822	3.3433	-0.5634	0.4442	-0.5179	-0.4659
4.78	-9.6036	-0.2608	0.7135	-0.0255	0.0167	-0.0582	32.1211	-23.2332	2.9726	-0.5633	0.4443	-0.5179	-0.4659
4.79	-9.6078	-0.2609	0.7163	-0.0227	0.0172	-0.0545	32.2300	-23.5675	3.2513	-0.5633	0.4443	-0.5179	-0.4659
4.8	-9.6224	-0.2600	0.7103	-0.0251	0.0115	-0.0517	32.2145	-23.3853	3.3066	-0.5632	0.4444	-0.5179	-0.4659
4.81	-9.6316	-0.2584	0.7047	-0.0273	0.0163	-0.0536	32.2343	-23.3275	3.3190	-0.5632	0.4445	-0.5179	-0.4659
4.82	-9.6412	-0.2594	0.7027	-0.0292	0.0155	-0.0465	32.1390	-23.5134	3.1942	-0.5630	0.4445	-0.5179	-0.4659
4.83	-9.6616	-0.2638	0.7052	-0.0222	0.0125	-0.0473	32.1139	-23.3808	3.4468	-0.5631	0.4446	-0.5180	-0.4660
4.84	-9.6657	-0.2667	0.7086	-0.0230	-0.0002	-0.0407	32.0142	-23.3945	3.3144	-0.5630	0.4445	-0.5180	-0.4660
4.85	-9.6775	-0.2708	0.7086	-0.0176	0.0051	-0.0367	32.1014	-23.4591	3.0944	-0.5630	0.4445	-0.5180	-0.4661
4.86	-9.6800	-0.2774	0.7135	-0.0203	-0.0065	-0.0333	32.2403	-23.5898	3.1394	-0.5629	0.4444	-0.5180	-0.4661
4.87	-9.6606	-0.2770	0.7232	-0.0062	-0.0151	-0.0387	32.4277	-23.5778	3.1019	-0.5629	0.4443	-0.5180	-0.4662
4.88	-9.6336	-0.2803	0.7226	-0.0037	-0.0207	-0.0494	32.1979	-23.7295	2.9851	-0.5630	0.4442	-0.5180	-0.4662
4.89	-9.6093	-0.2784	0.7315	-0.0024	-0.0230	-0.0445	32.2977	-23.4939	3.1357	-0.5630	0.4441	-0.5179	-0.4662
4.9	-9.5771	-0.2549	0.7540	-0.0008	-0.0191	-0.0429	32.3310	-23.2795	3.1922	-0.5632	0.4440	-0.5180	-0.4664
4.91	-9.5906	-0.2491	0.7667	0.0131	-0.0229	-0.0510	32.2705	-23.6273	3.1303	-0.5632	0.4439	-0.5180	-0.4663
4.92	-9.5611	-0.2451	0.7709	0.0172	-0.0190	-0.0525	32.1785	-23.8878	3.2871	-0.5634	0.4437	-0.5180	-0.4663
4.93	-9.5256	-0.2180	0.7784	0.0157	-0.0167	-0.0621	32.3333	-23.7127	2.9937	-0.5635	0.4436	-0.5179	-0.4662
4.94	-9.5107	-0.2075	0.7799	0.0184	-0.0184	-0.0608	32.1644	-23.6968	3.2966	-0.5637	0.4435	-0.5180	-0.4662
4.95	-9.4797	-0.1960	0.7854	0.0052	-0.0040	-0.0607	32.1261	-23.5392	3.2813	-0.5638	0.4434	-0.5180	-0.4661
4.96	-9.5021	-0.1991	0.7833	0.0014	-0.0008	-0.0542	32.1245	-23.2029	3.0887	-0.5638	0.4434	-0.5180	-0.4660
4.97	-9.5319	-0.2003	0.7809	-0.0058	0.0122	-0.0471	32.1528	-23.2141	3.1381	-0.5638	0.4433	-0.5181	-0.4660
4.98	-9.5437	-0.1876	0.7737	-0.0109	0.0122	-0.0432	32.0862	-23.4068	3.2052	-0.5638	0.4433	-0.5181	-0.4660
4.99	-9.5689	-0.1849	0.7690	-0.0168	0.0281	-0.0416	32.0348	-23.5144	3.0520	-0.5637	0.4434	-0.5183	-0.4660
5	-9.5935	-0.1908	0.7539	-0.0254	0.0263	-0.0429	32.0211	-23.4931	3.3281	-0.5635	0.4434	-0.5183	-0.4660
5.01	-9.6138	-0.2049	0.7487	-0.0315	0.0278	-0.0449	32.1905	-23.3500	3.2856	-0.5635	0.4435	-0.5184	-0.4660
5.02	-9.6399	-0.2244	0.7288	-0.0328	0.0227	-0.0361	32.6756	-23.3405	3.3288	-0.5633	0.4435	-0.5184	-0.4660
5.03	-9.6545	-0.2514	0.7274	-0.0287	0.0111	-0.0392	32.6644	-23.4163	3.2205	-0.5632	0.4436	-0.5185	-0.4661
5.04	-9.6525	-0.2628	0.7254	-0.0272	0.0081	-0.0377	32.5827	-23.4013	3.2108	-0.5631	0.4436	-0.5185	-0.4662
5.05	-9.6557	-0.2723	0.7209	-0.0259	0.0051	-0.0409	32.3551	-23.4710	3.1434	-0.5631	0.4436	-0.5185	-0.4662
5.06	-9.6629	-0.2826	0.7192	-0.0200	-0.0023	-0.0390	32.1488	-23.4420	2.9642	-0.5631	0.4435	-0.5185	-0.4663
5.07	-9.6651	-0.2904	0.7227	-0.0117	-0.0079	-0.0408	32.5702	-23.6132	3.2545	-0.5630	0.4434	-0.5184	-0.4663
5.08	-9.6562	-0.2757	0.7327	-0.0093	-0.0129	-0.0449	32.1174	-23.6137	3.2035	-0.5631	0.4434	-0.5185	-0.4664
5.09	-9.6532	-0.2660	0.7451	-0.0092	-0.0185	-0.0449	31.9233	-23.5786	3.1118	-0.5631	0.4433	-0.5184	-0.4664
5.1	-9.6430	-0.2516	0.7580	-0.0026	-0.0203	-0.0462	32.1943	-23.4365	3.1449	-0.5632	0.4432	-0.5185	-0.4665
5.11	-9.6347	-0.2363	0.7650	-0.0026	-0.0197	-0.0432	32.0059	-23.4147	3.0406	-0.5632	0.4431	-0.5184	-0.4665
5.12	-9.6266	-0.2317	0.7766	0.0053	-0.0201	-0.0446	31.9813	-23.4648	3.0073	-0.5633	0.4430	-0.5184	-0.4665
5.13	-9.6070	-0.2249	0.7853	0.0032	-0.0152	-0.0423	32.2572	-23.5337	3.1369	-0.5634	0.4428	-0.5184	-0.4666
5.14	-9.5733	-0.2246	0.7935	0.0047	-0.0236	-0.0463	32.1374	-23.5108	3.3623	-0.5635	0.4427	-0.5184	-0.4666
5.15	-9.5414	-0.2270	0.8034	0.0030	-0.0193	-0.0425	32.1321	-23.5134	3.0859	-0.5636	0.4426	-0.5185	-0.4667
5.16	-9.5185	-0.2330	0.8019	0.0041	-0.0185	-0.0459	32.0079	-23.5475	3.0121	-0.5636	0.4424	-0.5184	-0.4666
5.17	-9.4977	-0.2289	0.8003	0.0039	-0.0140	-0.0468	32.1242	-23.6515	3.1177	-0.5638	0.4424	-0.5185	-0.4667
5.18	-9.4867	-0.2178	0.7992	0.0114	-0.0075	-0.0463	32.1472	-23.4866	3.1424	-0.5638	0.4422	-0.5185	-0.4666
5.19	-9.4851	-0.2022	0.8034	0.0191	-0.0024	-0.0447	32.1225	-23.5490	3.1230	-0.5639	0.4421	-0.5186	-0.4666
5.2	-9.4973	-0.1826	0.7936	0.0189	0.0061	-0.0424	32.1635	-23.4540	3.1531	-0.5639	0.4420	-0.5187	-0.4665
5.21	-9.5127	-0.1623	0.7943	0.0214	0.0121	-0.0417	32.0505	-23.4246	3.3604	-0.5639	0.4418	-0.5188	-0.4664
5.22	-9.5327	-0.1417	0.7925	0.0124	0.0147	-0.0394	32.0377	-23.4178	3.0730	-0.5640	0.4418	-0.5190	-0.4664
5.23	-9.5610	-0.1238	0.7848	0.0160	0.0193	-0.0405	32.5970	-23.6033	2.9341	-0.5639	0.4417	-0.5191	-0.4663
5.24	-9.5877	-0.1151	0.7723	0.0112	0.0223	-0.0453	32.2666	-23.7398	3.1524	-0.5639	0.4416	-0.5193	-0.4662
5.25	-9.6038	-0.1050	0.7671	0.0073	0.0289	-0.0552	32.2068	-23.5837	3.1267	-0.5639	0.4416	-0.5193	-0.4660
5.26	-9.6220	-0.1052	0.7611	0.0002	0.0279	-0.0550	32.2235	-23.7169	3.1397	-0.5639	0.4417	-0.5195	-0.4660
5.27	-9.6297	-0.1075	0.7440	-0.0024	0.0244	-0.0648	32.2516	-23.5211	3.1452	-0.5639	0.4417	-0.5195	-0.4659
5.28	-9.6355	-0.1160	0.7402	-0.0065	0.0245	-0.0611	32.1259	-23.5189	3.3564	-0.5639	0.4417	-0.5196	-0.4658
5.29	-9.6386	-0.1272	0.7285	-0.0258	0.0204	-0.0657	32.2500	-23.5072	3.1784	-0.5638	0.4418	-0.5196	-0.4657
5.3	-9.6475	-0.1444	0.7270	-0.0281	0.0139	-0.0729	32.3015	-23.6566	3.2949	-0.5638	0.4419	-0.5196	-0.4657
5.31	-9.6561	-0.1599	0.7251	-0.0284	0.0083	-0.0638	32.1983	-23.7111	3.0636	-0.5638	0.4420	-0.5195	-0.4657
5.32	-9.6583	-0.1756	0.7277	-0.0284	0.0054	-0.0631	32.2294	-23.6246	3.1194	-0.5637	0.4421	-0.5195	-0.4656
5.33	-9.6584	-0.2002	0.7313	-0.0287	0.0068	-0.0750	32.2376	-23.4640	3.3276	-0.5638	0.4422	-0.5195	-0.4656
5.34	-9.6582	-0.2212	0.7317	-0.0303	0.0085	-0.0691	32.3418	-23.4569	3.2256	-0.5638	0.4423	-0.5194	-0.4656
5.35	-9.6506	-0.2369	0.7334	-0.0277	-0.0035	-0.0705	32.3067	-23.5499	3.3692	-0.5639	0.4424	-0.5193	-0.4656
5.36	-9.6361	-0.2527	0.7366	-0.0291	-0.0044	-0.0680	32.3219	-23.4150	3.1976	-0.5638	0.4424	-0.5192	-0.4656
5.37	-9.6191	-0.2645	0.7492	-0.0273	-0.0091	-0.0670	32.1976	-23.4178	3.3461	-0.5639	0.4425	-0.5191	-0.4656
5.38	-9.6005	-0.2797	0.7530	-0.0292	-0.0080	-0.0646	32.4441	-23.2886	3.3015	-0.5639	0.4425	-0.5190	-0.4656
5.39	-9.5838	-0.2911	0.7527	-0.0280	-0.0111	-0.0618	32.2444	-23.4510	3.3146	-0.5639	0.4425	-0.5189	-0.4657
5.4	-9.5620	-0.2997	0.7571	-0.0297	-0.0100	-0.0641	32.1100	-23.3077	3.3235	-0.5640	0.4426	-0.5189	-0.4657
5.41	-9.5538	-0.3034	0.7614	-0.0255	-0.0157	-0.0573	32.1696	-23.5337	3.2821	-0.5640	0.4426	-0.5188	-0.4658
5.42	-9.5593	-0.3044	0.7670	-0.0257	-0.0139	-0.0584	32.3082	-23.6388	3.1661	-0.5640	0.4426	-0.5187	-0.4658
5.43	-9.5645	-0.3044	0.7682	-0.0173	-0.0059	-0.0576	32.3257	-23.5771	3.0085	-0.5640	0.4425	-0.5186	-0.4658
5.44	-9.5666	-0.3039	0.7709	-0.0098	-0.0082	-0.0522	32.1850	-23.6370	3.0987	-0.5641	0.4426	-0.5186	-0.4658
5.45	-9.5666	-0.2988	0.7677	-0.0089	0.0013	-0.0438	32.1071	-23.7193	3.0758	-0.5641	0.4425	-0.5186	-0.4659
5.46	-9.5674	-0.2900	0.7686	-0.0014	0.0002	-0.0462	32.2088	-23.6372	2.8005	-0.5641	0.4424	-0.5187	-0.4658
5.47	-9.5809	-0.2908	0.7640	-0.0017	-0.0006	-0.0483	32.3395	-23.3853	2.9919	-0.5641	0.4424	-0.5187	-0.4658
5.48	-9.5816	-0.2730	0.7616	0.0007	0.0047	-0.0483	32.2922	-23.4804	3.0405	-0.5641	0.4423	-0.5188	-0.4658
5.49	-9.5925	-0.2670	0.7645	0.0055	0.0010	-0.0439	32.1444	-23.5220	3.0481	-0.5642	0.4423	-0.5189	-0.4658
5.5	-9.5934	-0.2593	0.7695	0.0119	0.0039	-0.0433	32.1287	-23.5877	3.0264	-0.5642	0.4421	-0.5189	-0.4657
5.51	-9.6052	-0.2461	0.7654	0.0043	0.0023	-0.0435	32.1380	-23.7354	3.0684	-0.5642	0.4421	-0.5190	-0.4657
5.52	-9.5939	-0.2348	0.7614	0.0090	0.0006	-0.0481	32.4771	-23.4690	3.3367	-0.5643	0.4420	-0.5190	-0.4657
5.53	-9.5895	-0.2126	0.7675	0.0076	-0.0035	-0.0478	32.7279	-23.4083	3.5432	-0.5643	0.4419	-0.5191	-0.4656
5.54	-9.6037	-0.1838	0.7612	0.0212	0.0070	-0.0469	32.4392	-23.3696	3.2763	-0.5644	0.4418	-0.5192	-0.4655
5.55	-9.5968	-0.1559	0.7703	0.0081	-0.0001	-0.0504	32.1592	-23.1743	3.1648	-0.5644	0.4417	-0.5193	-0.4655
5.56	-9.5774	-0.1529	0.7675	0.0072	0.0036	-0.0530	31.8805	-23.3134	3.2221	-0.5645	0.4416	-0.5193	-0.4655
5.57	-9.5790	-0.1563	0.7694	0.0018	0.0110	-0.0486	32.0396	-23.6272	3.2747	-0.5644	0.4415	-0.5194	-0.4654
5.58	-9.5745	-0.1517	0.7690	-0.0022	0.0088	-0.0524	32.1647	-23.6090	3.4564	-0.5645	0.4416	-0.5195	-0.4654
5.59	-9.5694	-0.1420	0.7709	-0.0005	0.0072	-0.0400	32.0993	-23.4310	3.1572	-0.5645	0.4415	-0.5195	-0.4653
5.6	-9.6114	-0.1436	0.7743	-0.0070	0.0030	-0.0470	31.9813	-23.4940	3.1577	-0.5645	0.4415	-0.5196	-0.4654
5.61	-9.6390	-0.1570	0.7732	-0.0076	0.0050	-0.0520	32.3531	-23.6036	3.3515	-0.5645	0.4414	-0.5196	-0.4653
5.62	-9.6353	-0.1690	0.7783	-0.0159	0.0097	-0.0471	32.5084	-23.6316	3.1499	-0.5645	0.4414	-0.5196	-0.4653
5.63	-9.6195	-0.1798	0.7701	-0.0267	0.0117	-0.0487	32.3324	-23.6928	3.1290	-0.5644	0.4415	-0.5196	-0.4653
5.64	-9.5864	-0.1923	0.7707	-0.0269	0.0046	-0.0557	32.5307	-23.4160	3.1113	-0.5644	0.4415	-0.5196	-0.4653
5.65	-9.5600	-0.2062	0.7629	-0.0288	0.0058	-0.0539	32.3591	-23.4181	3.1425	-0.5644	0.4416	-0.5196	-0.4654
5.66	-9.5573	-0.2238	0.7581	-0.0291	0.0133	-0.0506	32.0384	-23.6081	3.0716	-0.5643	0.4416	-0.5196	-0.4654
5.67	-9.5625	-0.2353	0.7544	-0.0284	0.0176	-0.0500	32.2961	-23.5352	3.0543	-0.5643	0.4417	-0.5196	-0.4654
5.68	-9.5599	-0.2414	0.7436	-0.0239	0.0176	-0.0568	32.3293	-23.5191	3.2652	-0.5641	0.4417	-0.5196	-0.4653
5.69	-9.5604	-0.2419	0.7368	-0.0216	0.0154	-0.0572	32.2896	-23.4841	3.1597	-0.5641	0.4418	-0.5196	-0.4654
5.7	-9.5655	-0.2489	0.7256	-0.0243	0.0175	-0.0590	32.3573	-23.4474	3.3172	-0.5641	0.4419	-0.5196	-0.4653
5.71	-9.5850	-0.2521	0.7258	-0.0251	0.0208	-0.0654	32.1523	-23.5633	3.1984	-0.5640	0.4420	-0.5196	-0.4653
5.72	-9.5917	-0.2485	0.7166	-0.0211	0.0196	-0.0649	32.0309	-23.3918	3.3498	-0.5640	0.4421	-0.5196	-0.4652
5.73	-9.5955	-0.2488	0.7154	-0.0154	0.0225	-0.0571	32.0402	-23.3321	3.2018	-0.5640	0.4421	-0.5197	-0.4652
5.74	-9.5990	-0.2494	0.7157	-0.0141	0.0194	-0.0577	32.1018	-23.3512	3.1470	-0.5640	0.4422	-0.5197	-0.4651
5.75	-9.6042	-0.2562	0.7136	-0.0076	0.0216	-0.0613	32.1596	-23.3232	3.2312	-0.5639	0.4422	-0.5197	-0.4650
5.76	-9.6095	-0.2549	0.7044	-0.0095	0.0175	-0.0573	32.1082	-23.4722	3.3264	-0.5639	0.4423	-0.5198	-0.4650
5.77	-9.6094	-0.2549	0.7035	-0.0130	0.0168	-0.0481	32.1855	-23.5236	3.2520	-0.5639	0.4423	-0.5199	-0.4649
5.78	-9.6095	-0.2592	0.6980	-0.0130	0.0126	-0.0384	32.2538	-23.5460	3.2084	-0.5638	0.4423	-0.5200	-0.4650
5.79	-9.6102	-0.2575	0.6941	-0.0200	0.0104	-0.0396	32.1021	-23.9237	3.2078	-0.5638	0.4422	-0.5200	-0.4650
5.8	-9.6136	-0.2584	0.6917	-0.0050	0.0157	-0.0439	32.2814	-23.6991	3.2738	-0.5637	0.4422	-0.5201	-0.4650
5.81	-9.6191	-0.2595	0.6876	-0.0072	0.0128	-0.0425	31.9249	-23.7167	3.4708	-0.5637	0.4422	-0.5201	-0.4650
5.82	-9.6252	-0.2573	0.6837	-0.0061	0.0189	-0.0461	32.1291	-23.5818	3.2737	-0.5636	0.4422	-0.5202	-0.4649
5.83	-9.6266	-0.2528	0.6861	-0.0018	0.0093	-0.0444	32.3240	-23.7385	3.4435	-0.5637	0.4422	-0.5203	-0.4649
5.84	-9.6217	-0.2398	0.6768	-0.0042	0.0050	-0.0423	32.2072	-23.7551	3.2087	-0.5636	0.4421	-0.5203	-0.4649
5.85	-9.6125	-0.2296	0.6738	0.0032	0.0074	-0.0436	32.1626	-23.6563	3.2846	-0.5637	0.4421	-0.5205	-0.4649
5.86	-9.5938	-0.2161	0.6707	0.0108	0.0099	-0.0441	32.1198	-23.7993	3.4173	-0.5636	0.4419	-0.5205	-0.4648
5.87	-9.5830	-0.1999	0.6721	0.0102	0.0054	-0.0556	32.2401	-23.6556	3.2844	-0.5637	0.4419	-0.5206	-0.4647
5.88	-9.6070	-0.1818	0.6750	0.0132	-0.0007	-0.0582	32.0555	-23.5390	3.3184	-0.5638	0.4418	-0.5206	-0.4646
5.89	-9.6399	-0.1811	0.6824	0.0031	0.0004	-0.0669	31.9598	-23.4998	3.2917	-0.5638	0.4418	-0.5206	-0.4645
5.9	-9.6396	-0.1770	0.6887	-0.0008	0.0054	-0.0731	32.0473	-23.6232	3.4172	-0.5640	0.4418	-0.5207	-0.4645
5.91	-9.6499	-0.1607	0.6863	-0.0000	-0.0035	-0.0728	32.0588	-23.6008	3.3957	-0.5640	0.4418	-0.5206	-0.4644
5.92	-9.6346	-0.1572	0.6961	-0.0027	-0.0065	-0.0851	32.2448	-23.3292	3.3932	-0.5642	0.4418	-0.5206	-0.4643
5.93	-9.6453	-0.1572	0.7045	-0.0115	-0.0056	-0.0755	32.1321	-23.0838	3.3945	-0.5642	0.4418	-0.5204	-0.4642
5.94	-9.6697	-0.1685	0.7089	-0.0217	-0.0056	-0.0718	32.0232	-23.5978	3.3836	-0.5643	0.4419	-0.5204	-0.4642
5.95	-9.6636	-0.1650	0.7097	-0.0270	-0.0111	-0.0785	32.0664	-23.6754	3.2638	-0.5644	0.4420	-0.5203	-0.4642
5.96	-9.6569	-0.1724	0.7179	-0.0278	-0.0089	-0.0720	32.3027	-23.5171	3.4126	-0.5644	0.4420	-0.5202	-0.4642
5.97	-9.6597	-0.1984	0.7191	-0.0323	-0.0153	-0.0646	32.4187	-23.4818	3.3010	-0.5645	0.4421	-0.5201	-0.4642
5.98	-9.6542	-0.2327	0.7296	-0.0505	-0.0175	-0.0683	32.2625	-23.4747	3.0249	-0.5645	0.4421	-0.5199	-0.4643
5.99	-9.6369	-0.2648	0.7388	-0.0552	-0.0265	-0.0632	32.1768	-23.6725	3.3075	-0.5645	0.4422	-0.5197	-0.4645
6	-9.6114	-0.2990	0.7451	-0.0540	-0.0277	-0.0633	32.4182	-23.4807	3.2219	-0.5645	0.4423	-0.5195	-0.4645
6.01	-9.5817	-0.3234	0.7581	-0.0523	-0.0318	-0.0536	32.3797	-23.6383	3.1115	-0.5645	0.4423	-0.5193	-0.4648
6.02	-9.5545	-0.3403	0.7602	-0.0492	-0.0276	-0.0421	32.6352	-23.4207	3.2779	-0.5645	0.4423	-0.5192	-0.4649
6.03	-9.5315	-0.3558	0.7718	-0.0509	-0.0229	-0.0350	32.9050	-23.4336	3.4015	-0.5645	0.4423	-0.5191	-0.4651
6.04	-9.5144	-0.3649	0.7763	-0.0359	-0.0274	-0.0301	32.6483	-23.4122	3.3104	-0.5644	0.4422	-0.5190	-0.4653
6.05	-9.4992	-0.3651	0.7813	-0.0300	-0.0200	-0.0320	32.4757	-23.4916	3.2515	-0.5644	0.4422	-0.5189	-0.4655
6.06	-9.4948	-0.3730	0.7904	-0.0272	-0.0123	-0.0289	32.2809	-23.4299	3.1815	-0.5644	0.4421	-0.5189	-0.4656
6.07	-9.4978	-0.3658	0.7843	-0.0045	-0.0085	-0.0287	32.2483	-23.2932	3.3189	-0.5643	0.4420	-0.5189	-0.4656
6.08	-9.5043	-0.3559	0.7734	-0.0027	0.0008	-0.0275	31.9129	-23.4316	3.1680	-0.5644	0.4419	-0.5190	-0.4657
6.09	-9.5170	-0.3375	0.7689	0.0174	0.0096	-0.0292	31.9907	-23.4039	3.1226	-0.5643	0.4418	-0.5191	-0.4657
6.1	-9.5372	-0.3129	0.7583	0.0241	0.0059	-0.0311	32.1521	-23.6281	3.3205	-0.5644	0.4416	-0.5193	-0.4657
6.11	-9.5620	-0.2830	0.7523	0.0369	0.0195	-0.0405	32.1220	-23.3737	3.2997	-0.5644	0.4414	-0.5195	-0.4655
6.12	-9.5767	-0.2455	0.7457	0.0499	0.0231	-0.0503	31.9391	-23.2029	3.1666	-0.5645	0.4413	-0.5197	-0.4653
6.13	-9.5923	-0.1969	0.7392	0.0499	0.0249	-0.0513	32.1325	-23.6016	3.2776	-0.5646	0.4412	-0.5199	-0.4651
6.14	-9.6028	-0.1579	0.7288	0.0499	0.0223	-0.0596	32.1532	-23.4863	3.3283	-0.5646	0.4410	-0.5201	-0.4648
6.15	-9.6177	-0.1167	0.7189	0.0477	0.0198	-0.0727	32.1048	-23.5022	3.1774	-0.5648	0.4410	-0.5203	-0.4646
6.16	-9.6325	-0.0774	0.7198	0.0505	0.0155	-0.0724	32.2195	-23.6058	3.4087	-0.5650	0.4409	-0.5204	-0.4643
6.17	-9.6498	-0.0549	0.7146	0.0399	0.0181	-0.0785	32.3740	-23.5577	3.5500	-0.5651	0.4408	-0.5206	-0.4641
6.18	-9.6660	-0.0370	0.7158	0.0254	0.0186	-0.0712	32.1197	-23.6015	3.3511	-0.5652	0.4407	-0.5206	-0.4639
6.19	-9.6774	-0.0282	0.7157	0.0179	0.0161	-0.0743	32.3435	-23.4326	3.4572	-0.5653	0.4408	-0.5207	-0.4637
6.2	-9.6763	-0.0282	0.7163	-0.0015	-0.0016	-0.0717	32.3482	-23.7577	3.2636	-0.5654	0.4408	-0.5207	-0.4636
6.21	-9.6807	-0.0375	0.7160	-0.0158	-0.0079	-0.0669	32.4457	-23.6191	3.2649	-0.5654	0.4408	-0.5206	-0.4636
6.22	-9.6758	-0.0634	0.7199	-0.0318	-0.0092	-0.0624	32.1975	-23.3712	3.4229	-0.5655	0.4408	-0.5206	-0.4637
6.23	-9.6773	-0.0917	0.7260	-0.0493	-0.0164	-0.0633	32.2321	-23.3986	3.2544	-0.5655	0.4409	-0.5204	-0.4637
6.24	-9.6742	-0.1359	0.7357	-0.0717	-0.0126	-0.0573	32.2471	-23.4628	3.3361	-0.5654	0.4410	-0.5202	-0.4639
6.25	-9.6660	-0.1828	0.7375	-0.0784	-0.0189	-0.0601	32.1174	-23.5068	3.2722	-0.5653	0.4411	-0.5200	-0.4641
6.26	-9.6555	-0.2324	0.7534	-0.0792	-0.0296	-0.0582	32.2771	-23.3809	3.3438	-0.5653	0.4413	-0.5198	-0.4643
6.27	-9.6340	-0.2732	0.7549	-0.0815	-0.0320	-0.0511	32.3006	-23.5682	3.2239	-0.5652	0.4414	-0.5195	-0.4646
6.28	-9.6135	-0.3177	0.7599	-0.0793	-0.0320	-0.0527	32.1281	-23.5977	3.2775	-0.5652	0.4415	-0.5193	-0.4648
6.29	-9.5936	-0.3476	0.7690	-0.0806	-0.0338	-0.0524	32.1346	-23.4689	3.4081	-0.5651	0.4416	-0.5190	-0.4650
6.3	-9.5814	-0.3740	0.7735	-0.0672	-0.0300	-0.0493	32.1542	-23.5221	3.2826	-0.5651	0.4417	-0.5188	-0.4653
6.31	-9.5677	-0.3945	0.7866	-0.0563	-0.0264	-0.0528	32.0813	-23.6064	3.2825	-0.5651	0.4417	-0.5186	-0.4655
6.32	-9.5525	-0.4033	0.7896	-0.0510	-0.0343	-0.0501	32.0119	-23.5659	3.0820	-0.5650	0.4417	-0.5184	-0.4656
6.33	-9.5410	-0.4031	0.8076	-0.0299	-0.0244	-0.0507	32.2881	-23.4982	3.2565	-0.5651	0.4417	-0.5183	-0.4658
6.34	-9.5384	-0.3997	0.8115	-0.0272	-0.0174	-0.0467	32.0145	-23.4573	3.3183	-0.5651	0.4417	-0.5182	-0.4658
6.35	-9.5327	-0.3849	0.8173	-0.0060	-0.0269	-0.0432	32.1894	-23.3585	3.2588	-0.5652	0.4416	-0.5182	-0.4659
6.36	-9.5279	-0.3645	0.8228	-0.0024	-0.0196	-0.0427	32.3419	-23.6071	2.9934	-0.5652	0.4414	-0.5181	-0.4659
6.37	-9.5375	-0.3488	0.8265	0.0008	-0.0146	-0.0413	32.1798	-23.5660	2.9457	-0.5653	0.4413	-0.5182	-0.4660
6.38	-9.5412	-0.3298	0.8290	0.0092	-0.0094	-0.0439	32.2906	-23.6028	3.2752	-0.5654	0.4412	-0.5182	-0.4660
6.39	-9.5388	-0.3048	0.8254	0.0214	-0.0081	-0.0391	32.3435	-23.4890	3.0244	-0.5654	0.4410	-0.5183	-0.4659
6.4	-9.5442	-0.2808	0.8313	0.0231	-0.0046	-0.0335	32.1872	-23.4995	3.0275	-0.5656	0.4409	-0.5185	-0.4659
6.41	-9.5374	-0.2608	0.8272	0.0241	-0.0010	-0.0349	32.1504	-23.4813	3.0215	-0.5655	0.4407	-0.5185	-0.4659
6.42	-9.5339	-0.2386	0.8232	0.0307	0.0006	-0.0374	32.2913	-23.5245	3.0492	-0.5657	0.4406	-0.5187	-0.4658
6.43	-9.5292	-0.2165	0.8217	0.0292	0.0176	-0.0318	32.0145	-23.3635	2.9052	-0.5656	0.4404	-0.5188	-0.4657
6.44	-9.5292	-0.1997	0.8092	0.0265	0.0078	-0.0303	32.0719	-23.6940	3.2083	-0.5657	0.4402	-0.5190	-0.4657
6.45	-9.5298	-0.1717	0.7996	0.0215	0.0200	-0.0313	32.1867	-23.3707	3.3416	-0.5657	0.4401	-0.5192	-0.4656
6.46	-9.5379	-0.1496	0.7992	0.0233	0.0228	-0.0303	32.3330	-23.3684	3.2639	-0.5656	0.4400	-0.5194	-0.4655
6.47	-9.5597	-0.1394	0.7897	0.0194	0.0262	-0.0323	32.2080	-23.4866	3.4388	-0.5656	0.4399	-0.5196	-0.4654
6.48	-9.5795	-0.1263	0.7848	0.0192	0.0234	-0.0357	32.1248	-23.5661	3.3437	-0.5656	0.4398	-0.5198	-0.4653
6.49	-9.6043	-0.1125	0.7813	0.0167	0.0254	-0.0394	32.3265	-23.6597	3.3024	-0.5656	0.4397	-0.5199	-0.4653
6.5	-9.6116	-0.1102	0.7638	0.0201	0.0258	-0.0543	31.9052	-23.4655	3.2889	-0.5655	0.4396	-0.5200	-0.4651
6.51	-9.6224	-0.1018	0.7576	0.0120	0.0278	-0.0566	32.0167	-23.4849	3.4406	-0.5656	0.4397	-0.5202	-0.4650
6.52	-9.6457	-0.0903	0.7572	0.0021	0.0287	-0.0566	32.6639	-23.3777	3.4908	-0.5656	0.4397	-0.5203	-0.4648
6.53	-9.6559	-0.0798	0.7543	-0.0027	0.0173	-0.0566	32.6907	-23.3849	3.5106	-0.5656	0.4397	-0.5204	-0.4648
6.54	-9.6300	-0.0764	0.7440	-0.0064	0.0175	-0.0636	32.5127	-23.5541	3.3786	-0.5656	0.4397	-0.5204	-0.4647
6.55	-9.6352	-0.0961	0.7423	-0.0170	0.0108	-0.0635	32.3158	-23.5785	3.1477	-0.5656	0.4398	-0.5204	-0.4646
6.56	-9.6382	-0.1100	0.7449	-0.0267	0.0120	-0.0629	32.1234	-23.7331	3.4641	-0.5656	0.4399	-0.5204	-0.4646
6.57	-9.6405	-0.1153	0.7500	-0.0283	0.0130	-0.0628	32.2885	-23.8911	3.2112	-0.5655	0.4399	-0.5203	-0.4645
6.58	-9.6680	-0.1368	0.7534	-0.0412	0.0048	-0.0600	32.4357	-23.5916	3.2096	-0.5655	0.4401	-0.5203	-0.4646
6.59	-9.6936	-0.1720	0.7662	-0.0516	-0.0058	-0.0565	32.3039	-23.5719	3.0695	-0.5654	0.4401	-0.5202	-0.4647
6.6	-9.6819	-0.1965	0.7706	-0.0536	-0.0061	-0.0572	32.1446	-23.5735	3.2243	-0.5654	0.4403	-0.5201	-0.4649
6.61	-9.6541	-0.2212	0.7691	-0.0559	-0.0104	-0.0572	32.3632	-23.5682	3.1103	-0.5653	0.4403	-0.5199	-0.4649
6.62	-9.6099	-0.2560	0.7707	-0.0544	-0.0127	-0.0466	32.0914	-23.5803	3.1332	-0.5653	0.4404	-0.5198	-0.4651
6.63	-9.5680	-0.2739	0.7730	-0.0530	-0.0223	-0.0456	32.0707	-23.5427	3.2645	-0.5652	0.4404	-0.5197	-0.4653
6.64	-9.5444	-0.3034	0.7807	-0.0509	-0.0070	-0.0454	32.1424	-23.3657	3.0894	-0.5652	0.4405	-0.5195	-0.4654
6.65	-9.5397	-0.3171	0.7799	-0.0489	-0.0143	-0.0343	32.0275	-23.5225	3.1466	-0.5652	0.4405	-0.5195	-0.4656
6.66	-9.5247	-0.3192	0.7795	-0.0276	-0.0051	-0.0318	31.9977	-23.7195	3.2086	-0.5650	0.4405	-0.5195	-0.4657
6.67	-9.5255	-0.3218	0.7767	-0.0290	0.0048	-0.0316	32.1702	-23.5737	3.0260	-0.5650	0.4405	-0.5195	-0.4658
6.68	-9.5284	-0.3160	0.7677	-0.0097	0.0028	-0.0345	32.2321	-23.5735	3.0063	-0.5649	0.4404	-0.5195	-0.4658
6.69	-9.5275	-0.3086	0.7660	-0.0027	0.0124	-0.0424	32.0901	-23.5671	3.2996	-0.5649	0.4404	-0.5196	-0.4658
6.7	-9.5332	-0.2976	0.7630	0.0030	0.0183	-0.0379	32.1174	-23.5818	3.2472	-0.5649	0.4403	-0.5197	-0.4658
6.71	-9.5350	-0.2778	0.7579	0.0240	0.0165	-0.0468	31.8949	-23.5508	3.2017	-0.5649	0.4402	-0.5199	-0.4656
6.72	-9.5320	-0.2483	0.7539	0.0226	0.0174	-0.0505	32.0764	-23.6975	3.2058	-0.5650	0.4401	-0.5200	-0.4655
6.73	-9.5413	-0.2166	0.7547	0.0362	0.0176	-0.0448	32.2439	-23.5998	3.1069	-0.5650	0.4400	-0.5202	-0.4654
6.74	-9.5480	-0.1795	0.7476	0.0408	0.0223	-0.0506	32.4015	-23.6326	3.1073	-0.5651	0.4399	-0.5204	-0.4652
6.75	-9.5599	-0.1442	0.7448	0.0375	0.0286	-0.0562	32.2903	-24.0002	3.2303	-0.5651	0.4398	-0.5205	-0.4650
6.76	-9.5725	-0.1109	0.7342	0.0346	0.0346	-0.0567	32.1041	-23.6304	3.3002	-0.5652	0.4398	-0.5208	-0.4648
6.77	-9.5948	-0.0808	0.7253	0.0215	0.0323	-0.0589	32.0842	-23.4416	3.3598	-0.5652	0.4397	-0.5209	-0.4646
6.78	-9.6116	-0.0648	0.7157	0.0249	0.0381	-0.0600	32.0072	-23.5351	3.3428	-0.5652	0.4397	-0.5211	-0.4644
6.79	-9.6360	-0.0556	0.7102	0.0144	0.0338	-0.0606	32.1189	-23.7962	3.2756	-0.5652	0.4397	-0.5212	-0.4642
6.8	-9.6486	-0.0530	0.6984	0.0004	0.0349	-0.0632	32.1563	-23.9202	3.4733	-0.5652	0.4398	-0.5213	-0.4641
6.81	-9.6602	-0.0601	0.6886	-0.0069	0.0262	-0.0558	32.1910	-23.5919	3.2947	-0.5652	0.4398	-0.5214	-0.4640
6.82	-9.6707	-0.0724	0.6870	-0.0293	0.0310	-0.0605	32.0001	-23.4722	3.3275	-0.5650	0.4399	-0.5214	-0.4639
6.83	-9.6677	-0.0940	0.6804	-0.0260	0.0224	-0.0592	32.1484	-23.5080	3.2515	-0.5650	0.4401	-0.5215	-0.4639
6.84	-9.6607	-0.1148	0.6782	-0.0433	0.0214	-0.0634	32.1145	-23.2792	3.0997	-0.5649	0.4402	-0.5214	-0.4639
6.85	-9.6517	-0.1402	0.6729	-0.0527	0.0148	-0.0626	32.1242	-23.4675	3.3166	-0.5649	0.4404	-0.5214	-0.4640
6.86	-9.6601	-0.1590	0.6877	-0.0530	0.0070	-0.0620	32.1270	-23.4691	3.3009	-0.5647	0.4404	-0.5212	-0.4640
6.87	-9.6800	-0.2003	0.6965	-0.0562	0.0074	-0.0630	32.1046	-23.5421	3.4080	-0.5647	0.4406	-0.5212	-0.4641
6.88	-9.6408	-0.2379	0.7020	-0.0566	-0.0057	-0.0620	32.3523	-23.4814	3.4102	-0.5646	0.4408	-0.5210	-0.4642
6.89	-9.6244	-0.2531	0.7076	-0.0580	-0.0080	-0.0599	32.0496	-23.3407	3.3017	-0.5646	0.4408	-0.5209	-0.4643
6.9	-9.5889	-0.2786	0.7059	-0.0533	-0.0091	-0.0603	31.9208	-23.6186	3.2110	-0.5646	0.4410	-0.5208	-0.4644
6.91	-9.5629	-0.2989	0.7152	-0.0523	-0.0147	-0.0561	32.2322	-23.5703	3.3230	-0.5645	0.4410	-0.5206	-0.4645
6.92	-9.5865	-0.3197	0.7218	-0.0369	-0.0074	-0.0452	32.4098	-23.7530	3.3214	-0.5645	0.4411	-0.5206	-0.4646
6.93	-9.5886	-0.3261	0.7224	-0.0304	-0.0100	-0.0516	32.2076	-23.7563	3.2055	-0.5644	0.4411	-0.5204	-0.4646
6.94	-9.5764	-0.3131	0.7263	-0.0208	-0.0085	-0.0482	32.0883	-23.6122	3.1211	-0.5645	0.4411	-0.5204	-0.4647
6.95	-9.5826	-0.3023	0.7258	-0.0161	-0.0015	-0.0472	32.1497	-23.5741	3.2474	-0.5645	0.4410	-0.5204	-0.4648
6.96	-9.5849	-0.2902	0.7217	-0.0020	0.0040	-0.0477	32.0456	-23.5370	3.1899	-0.5645	0.4410	-0.5205	-0.4647
6.97	-9.5916	-0.2721	0.7173	0.0079	0.0014	-0.0554	31.9124	-23.8144	3.2292	-0.5646	0.4410	-0.5205	-0.4647
6.98	-9.5950	-0.2529	0.7215	0.0176	0.0030	-0.0599	32.2422	-23.6395	3.2030	-0.5646	0.4409	-0.5206	-0.4646
6.99	-9.6010	-0.2260	0.7187	0.0240	0.0032	-0.0608	32.1113	-23.4046	3.2179	-0.5648	0.4408	-0.5207	-0.4645
7	-9.5959	-0.1999	0.7169	0.0198	0.0038	-0.0714	32.2307	-23.6116	3.1991	-0.5648	0.4407	-0.5206	-0.4643
7.01	-9.5981	-0.1726	0.7216	0.0227	0.0054	-0.0705	32.0535	-23.5422	3.2319	-0.5650	0.4407	-0.5208	-0.4642
7.02	-9.5996	-0.1571	0.7215	0.0165	-0.0002	-0.0713	32.2805	-23.2897	3.4887	-0.5651	0.4406	-0.5208	-0.4640
7.03	-9.6004	-0.1438	0.7258	0.0136	0.0065	-0.0736	32.7267	-23.3792	3.1842	-0.5652	0.4406	-0.5208	-0.4639
7.04	-9.5986	-0.1450	0.7202	0.0016	0.0059	-0.0717	32.4340	-23.4074	3.3481	-0.5653	0.4406	-0.5208	-0.4638
7.05	-9.5983	-0.1438	0.7250	-0.0032	0.0040	-0.0658	32.1553	-23.5255	3.3539	-0.5653	0.4406	-0.5208	-0.4637
7.06	-9.5990	-0.1488	0.7238	-0.0048	0.0026	-0.0602	31.8287	-23.5441	3.1363	-0.5654	0.4406	-0.5208	-0.4636
7.07	-9.6060	-0.1573	0.7200	-0.0253	0.0000	-0.0596	32.1975	-23.4002	3.4238	-0.5653	0.4406	-0.5207	-0.4636
7.08	-9.6190	-0.1705	0.7262	-0.0292	0.0026	-0.0580	32.1388	-23.5654	3.3924	-0.5654	0.4407	-0.5208	-0.4637
7.09	-9.6272	-0.1832	0.7252	-0.0280	0.0049	-0.0494	32.0391	-23.4517	3.1004	-0.5653	0.4407	-0.5207	-0.4637
7.1	-9.6207	-0.2042	0.7221	-0.0292	-0.0011	-0.0422	32.1313	-23.4760	3.2081	-0.5653	0.4408	-0.5207	-0.4638
7.11	-9.6182	-0.2242	0.7203	-0.0349	0.0019	-0.0482	32.2702	-23.6346	3.2219	-0.5652	0.4408	-0.5206	-0.4638
7.12	-9.6139	-0.2416	0.7202	-0.0324	-0.0071	-0.0439	32.3316	-23.5845	3.2320	-0.5652	0.4408	-0.5206	-0.4639
7.13	-9.6143	-0.2602	0.7205	-0.0325	-0.0078	-0.0469	32.1960	-23.6293	3.3866	-0.5652	0.4408	-0.5206	-0.4640
7.14	-9.6049	-0.2711	0.7198	-0.0282	-0.0074	-0.0568	32.3556	-23.5641	3.4345	-0.5651	0.4408	-0.5205	-0.4640
7.15	-9.5979	-0.2728	0.7283	-0.0282	-0.0097	-0.0606	32.2246	-23.7597	3.2682	-0.5652	0.4409	-0.5204	-0.4641
7.16	-9.6048	-0.2777	0.7254	-0.0216	-0.0046	-0.0566	32.2607	-23.5875	3.2445	-0.5652	0.4409	-0.5203	-0.4641
7.17	-9.5937	-0.2765	0.7306	-0.0107	-0.0045	-0.0549	31.9771	-23.7612	3.3551	-0.5653	0.4409	-0.5204	-0.4641
7.18	-9.5858	-0.2625	0.7359	-0.0072	-0.0028	-0.0597	32.0527	-23.7045	3.2095	-0.5652	0.4408	-0.5203	-0.4641
7.19	-9.5849	-0.2607	0.7376	-0.0028	-0.0111	-0.0581	32.3093	-23.4887	3.2125	-0.5654	0.4408	-0.5203	-0.4641
7.2	-9.5729	-0.2450	0.7491	-0.0029	-0.0010	-0.0627	32.3572	-23.4778	3.2534	-0.5654	0.4408	-0.5203	-0.4640
7.21	-9.5773	-0.2323	0.7419	-0.0025	0.0058	-0.0632	32.2636	-23.4594	3.4074	-0.5655	0.4407	-0.5203	-0.4639
7.22	-9.5774	-0.2321	0.7433	-0.0030	0.0059	-0.0663	32.1413	-23.6567	3.4147	-0.5655	0.4408	-0.5203	-0.4639
7.23	-9.5709	-0.2281	0.7354	0.0039	0.0027	-0.0629	32.1572	-23.5568	3.2422	-0.5656	0.4407	-0.5203	-0.4638
7.24	-9.5783	-0.2231	0.7393	0.0001	0.0090	-0.0645	31.9595	-23.4942	3.2213	-0.5657	0.4408	-0.5204	-0.4637
7.25	-9.5772	-0.2228	0.7331	-0.0003	0.0079	-0.0600	32.0662	-23.6143	3.1920	-0.5656	0.4407	-0.5204	-0.4636
7.26	-9.5862	-0.2209	0.7294	0.0002	0.0107	-0.0639	32.1785	-23.6015	3.3869	-0.5657	0.4408	-0.5205	-0.4636
7.27	-9.6002	-0.2147	0.7337	-0.0069	0.0077	-0.0606	32.1365	-23.6071	3.3261	-0.5657	0.4407	-0.5204	-0.4635
7.28	-9.6034	-0.2108	0.7289	-0.0033	0.0072	-0.0592	31.9398	-23.3281	3.1457	-0.5658	0.4408	-0.5205	-0.4634
7.29	-9.6072	-0.2093	0.7251	-0.0017	0.0011	-0.0578	32.1980	-23.4493	3.3649	-0.5658	0.4407	-0.5205	-0.4634
7.3	-9.6065	-0.2095	0.7321	-0.0066	0.0014	-0.0561	32.3617	-23.5210	3.1224	-0.5658	0.4407	-0.5205	-0.4633
7.31	-9.6136	-0.2099	0.7231	-0.0158	-0.0006	-0.0577	32.3450	-23.5671	3.1924	-0.5659	0.4407	-0.5205	-0.4633
7.32	-9.6130	-0.2187	0.7213	-0.0198	0.0023	-0.0593	32.2421	-23.6275	3.2400	-0.5658	0.4407	-0.5204	-0.4633
7.33	-9.6134	-0.2230	0.7266	-0.0207	0.0044	-0.0566	32.2612	-23.5904	3.1030	-0.5659	0.4408	-0.5205	-0.4633
7.34	-9.6143	-0.2330	0.7257	-0.0200	0.0020	-0.0559	32.3505	-23.6277	3.1528	-0.5659	0.4408	-0.5204	-0.4633
7.35	-9.6149	-0.2414	0.7322	-0.0316	-0.0016	-0.0494	32.0898	-23.5417	3.3377	-0.5659	0.4408	-0.5204	-0.4634
7.36	-9.6036	-0.2471	0.7294	-0.0281	-0.0002	-0.0580	31.9510	-23.4889	3.1861	-0.5658	0.4408	-0.5203	-0.4634
7.37	-9.5973	-0.2618	0.7295	-0.0285	0.0027	-0.0543	32.1376	-23.6861	3.2720	-0.5658	0.4409	-0.5203	-0.4634
7.38	-9.5940	-0.2709	0.7324	-0.0282	-0.0006	-0.0530	32.3048	-23.6264	3.2813	-0.5658	0.4409	-0.5203	-0.4635
7.39	-9.5856	-0.2828	0.7262	-0.0279	0.0011	-0.0508	32.1372	-23.3034	3.1652	-0.5657	0.4409	-0.5202	-0.4635
7.4	-9.5835	-0.2900	0.7241	-0.0289	0.0058	-0.0535	32.1787	-23.5556	3.4598	-0.5658	0.4410	-0.5202	-0.4636
7.41	-9.5807	-0.2991	0.7239	-0.0286	0.0086	-0.0544	32.2624	-23.5018	3.2081	-0.5657	0.4411	-0.5202	-0.4635
7.42	-9.5762	-0.3080	0.7312	-0.0270	-0.0001	-0.0497	32.0203	-23.5396	3.2850	-0.5657	0.4411	-0.5202	-0.4636
7.43	-9.5750	-0.3129	0.7277	-0.0105	-0.0012	-0.0493	32.2707	-23.4241	3.3241	-0.5656	0.4410	-0.5201	-0.4636
7.44	-9.5822	-0.3072	0.7294	-0.0109	-0.0017	-0.0470	32.3350	-23.4230	3.4113	-0.5657	0.4410	-0.5202	-0.4636
7.45	-9.5837	-0.3062	0.7336	-0.0055	0.0049	-0.0488	32.0257	-23.6212	3.3896	-0.5657	0.4410	-0.5202	-0.4636
7.46	-9.5628	-0.3058	0.7270	-0.0018	0.0016	-0.0384	32.1753	-23.5126	3.1640	-0.5657	0.4409	-0.5202	-0.4636
7.47	-9.5693	-0.2960	0.7250	0.0040	0.0077	-0.0388	32.0430	-23.6281	3.3884	-0.5657	0.4409	-0.5203	-0.4636
7.48	-9.5972	-0.2718	0.7191	0.0160	0.0090	-0.0400	32.2366	-23.5621	3.3123	-0.5657	0.4407	-0.5204	-0.4635
7.49	-9.5947	-0.2449	0.7224	0.0160	0.0127	-0.0418	32.2181	-23.3087	3.0208	-0.5657	0.4407	-0.5206	-0.4635
7.5	-9.5849	-0.2295	0.7188	0.0135	0.0172	-0.0490	32.4425	-23.4220	3.3435	-0.5657	0.4406	-0.5207	-0.4633
7.51	-9.5956	-0.2247	0.7166	0.0128	0.0089	-0.0497	32.2895	-23.7637	3.3114	-0.5658	0.4405	-0.5208	-0.4633
7.52	-9.5997	-0.2158	0.7145	0.0150	0.0059	-0.0453	32.5982	-23.4410	3.4602	-0.5658	0.4404	-0.5209	-0.4632
7.53	-9.6070	-0.2020	0.7216	0.0061	0.0035	-0.0432	32.7513	-23.2112	3.2944	-0.5659	0.4403	-0.5210	-0.4632
7.54	-9.6342	-0.2003	0.7213	0.0011	0.0089	-0.0425	32.5573	-23.3747	3.3429	-0.5658	0.4403	-0.5210	-0.4631
7.55	-9.6625	-0.2063	0.7251	0.0015	0.0130	-0.0465	32.2934	-23.4728	3.2632	-0.5658	0.4402	-0.5211	-0.4631
7.56	-9.6547	-0.2019	0.7252	-0.0004	-0.0078	-0.0452	32.0492	-23.4758	3.4080	-0.5659	0.4402	-0.5212	-0.4631
7.57	-9.6329	-0.2008	0.7296	-0.0010	-0.0071	-0.0419	32.0572	-23.3877	3.3020	-0.5659	0.4400	-0.5211	-0.4631
7.58	-9.6009	-0.1985	0.7227	-0.0061	-0.0031	-0.0498	31.9042	-23.4038	3.3140	-0.5660	0.4400	-0.5212	-0.4631
7.59	-9.5724	-0.1977	0.7193	-0.0083	-0.0011	-0.0430	31.9784	-23.2201	3.2575	-0.5659	0.4400	-0.5212	-0.4631
7.6	-9.5702	-0.1985	0.7214	-0.0058	0.0004	-0.0389	32.1123	-23.2732	3.1785	-0.5660	0.4399	-0.5213	-0.4632
7.61	-9.5754	-0.1974	0.7211	-0.0102	-0.0042	-0.0364	32.1332	-23.4100	3.3086	-0.5659	0.4398	-0.5213	-0.4632
7.62	-9.5725	-0.1948	0.7170	-0.0195	0.0060	-0.0438	31.9631	-23.2715	3.4412	-0.5659	0.4398	-0.5213	-0.4632
7.63	-9.5821	-0.1934	0.7081	-0.0153	0.0026	-0.0406	31.7946	-23.5161	3.3015	-0.5659	0.4398	-0.5213	-0.4632
7.64	-9.5843	-0.2041	0.7051	-0.0151	0.0079	-0.0511	32.2641	-23.3611	3.3886	-0.5658	0.4398	-0.5213	-0.4632
7.65	-9.5801	-0.2116	0.6998	-0.0053	0.0134	-0.0489	32.0437	-23.6155	3.4908	-0.5659	0.4398	-0.5214	-0.4632
7.66	-9.5819	-0.2130	0.6978	-0.0037	0.0100	-0.0468	31.9647	-23.7878	3.3978	-0.5658	0.4398	-0.5215	-0.4632
7.67	-9.5801	-0.2173	0.6960	-0.0018	0.0082	-0.0580	32.4832	-23.7091	3.3422	-0.5659	0.4398	-0.5215	-0.4631
7.68	-9.5813	-0.2166	0.6931	-0.0051	0.0027	-0.0521	32.4871	-23.7777	3.3021	-0.5658	0.4397	-0.5215	-0.4630
7.69	-9.5921	-0.2165	0.6945	-0.0034	0.0032	-0.0475	32.2044	-23.5737	3.4204	-0.5659	0.4397	-0.5216	-0.4631
7.7	-9.5953	-0.2088	0.6920	-0.0028	0.0051	-0.0508	32.1059	-23.6311	3.4120	-0.5659	0.4396	-0.5216	-0.4630
7.71	-9.6029	-0.2064	0.6900	-0.0062	0.0096	-0.0431	32.3491	-23.5997	3.3192	-0.5659	0.4396	-0.5216	-0.4630
7.72	-9.6099	-0.2014	0.6850	-0.0092	0.0057	-0.0524	32.0647	-23.4533	3.3039	-0.5659	0.4396	-0.5217	-0.4630
7.73	-9.6172	-0.2026	0.6803	-0.0058	0.0160	-0.0469	31.9008	-23.6192	3.4297	-0.5659	0.4396	-0.5217	-0.4629
7.74	-9.6232	-0.2050	0.6768	-0.0072	0.0102	-0.0439	32.1974	-23.5155	3.3846	-0.5659	0.4396	-0.5218	-0.4629
7.75	-9.6253	-0.2050	0.6759	-0.0045	0.0108	-0.0459	32.2028	-23.6979	3.4123	-0.5658	0.4395	-0.5218	-0.4629
7.76	-9.6339	-0.2064	0.6670	-0.0081	0.0082	-0.0436	32.2136	-23.4874	3.3935	-0.5658	0.4395	-0.5220	-0.4629
7.77	-9.6397	-0.2013	0.6688	-0.0101	0.0095	-0.0436	32.1712	-23.5475	3.4038	-0.5658	0.4395	-0.5220	-0.4629
7.78	-9.6446	-0.2021	0.6690	-0.0035	0.0057	-0.0492	32.0663	-23.4953	3.3952	-0.5658	0.4395	-0.5220	-0.4629
7.79	-9.6370	-0.2045	0.6612	-0.0132	-0.0044	-0.0504	32.2552	-23.4886	3.4024	-0.5658	0.4394	-0.5220	-0.4629
7.8	-9.6197	-0.1979	0.6645	-0.0039	-0.0050	-0.0475	32.2593	-23.4269	3.3908	-0.5658	0.4394	-0.5220	-0.4629
7.81	-9.6162	-0.1939	0.6826	-0.0076	-0.0054	-0.0501	32.0024	-23.4417	3.2008	-0.5659	0.4393	-0.5220	-0.4629
7.82	-9.6470	-0.1997	0.6939	-0.0147	-0.0100	-0.0542	32.0954	-23.4830	3.2925	-0.5659	0.4393	-0.5220	-0.4629
7.83	-9.6370	-0.2131	0.7026	-0.0101	-0.0116	-0.0581	32.2617	-23.5049	3.4288	-0.5660	0.4393	-0.5220	-0.4629
7.84	-9.6114	-0.2097	0.7098	-0.0043	-0.0170	-0.0575	31.9528	-23.5412	3.3662	-0.5661	0.4392	-0.5219	-0.4629
7.85	-9.5997	-0.2055	0.7042	-0.0043	-0.0148	-0.0534	32.0588	-23.4934	3.2089	-0.5662	0.4392	-0.5219	-0.4629
7.86	-9.5531	-0.2046	0.7109	-0.0047	-0.0180	-0.0564	32.2208	-23.7950	3.2341	-0.5662	0.4390	-0.5218	-0.4629
7.87	-9.5646	-0.2121	0.7194	-0.0122	-0.0086	-0.0509	32.3418	-23.4715	3.0679	-0.5663	0.4390	-0.5218	-0.4629
7.88	-9.6001	-0.2124	0.7139	-0.0135	-0.0076	-0.0448	32.3527	-23.5181	3.2235	-0.5663	0.4390	-0.5218	-0.4630
7.89	-9.5925	-0.1984	0.7220	-0.0158	-0.0099	-0.0468	32.2636	-23.6697	3.1184	-0.5663	0.4389	-0.5218	-0.4630
7.9	-9.5938	-0.1878	0.7273	-0.0091	-0.0097	-0.0443	32.2155	-23.6395	3.2451	-0.5664	0.4389	-0.5218	-0.4631
7.91	-9.6138	-0.1963	0.7244	-0.0100	-0.0061	-0.0400	32.3283	-23.6896	3.6097	-0.5663	0.4388	-0.5218	-0.4631
7.92	-9.6080	-0.1995	0.7222	-0.0111	-0.0090	-0.0442	32.2179	-23.7729	3.3192	-0.5664	0.4388	-0.5218	-0.4631
7.93	-9.5944	-0.2001	0.7209	-0.0161	-0.0132	-0.0525	32.1969	-23.6560	3.3054	-0.5663	0.4387	-0.5217	-0.4631
7.94	-9.5858	-0.2039	0.7217	-0.0085	-0.0105	-0.0531	32.0937	-23.4130	3.3080	-0.5664	0.4387	-0.5217	-0.4632
7.95	-9.5898	-0.2019	0.7187	-0.0114	-0.0082	-0.0528	32.1420	-23.5784	3.3059	-0.5665	0.4386	-0.5217	-0.4632
7.96	-9.5831	-0.2021	0.7244	-0.0087	-0.0059	-0.0575	32.0276	-23.4699	3.3011	-0.5665	0.4386	-0.5217	-0.4632
7.97	-9.5976	-0.2019	0.7231	-0.0103	-0.0057	-0.0575	32.0265	-23.5994	3.4066	-0.5666	0.4386	-0.5217	-0.4632
7.98	-9.5811	-0.1996	0.7288	-0.0095	-0.0097	-0.0576	32.1452	-23.5042	3.2702	-0.5666	0.4386	-0.5216	-0.4632
7.99	-9.5961	-0.2028	0.7272	-0.0040	-0.0029	-0.0584	31.8799	-23.5440	3.3447	-0.5667	0.4385	-0.5216	-0.4631
8	-9.5743	-0.1947	0.7391	-0.0108	-0.0051	-0.0567	32.1471	-23.5009	3.1830	-0.5667	0.4385	-0.5216	-0.4631
8.01	-9.6010	-0.1930	0.7443	-0.0043	-0.0048	-0.0549	32.0701	-23.3651	3.3609	-0.5668	0.4385	-0.5216	-0.4631
8.02	-9.6321	-0.2124	0.7263	-0.0131	-0.0033	-0.0511	32.2430	-23.3841	3.5433	-0.5668	0.4384	-0.5216	-0.4631
8.03	-9.5896	-0.2003	0.7370	-0.0133	-0.0149	-0.0459	32.5303	-23.1774	3.3917	-0.5668	0.4384	-0.5216	-0.4632
8.04	-9.5974	-0.2046	0.7406	-0.0151	-0.0110	-0.0416	32.3575	-23.3465	3.4110	-0.5668	0.4383	-0.5215	-0.4632
8.05	-9.6165	-0.2134	0.7302	-0.0138	-0.0114	-0.0399	32.3627	-23.4228	3.2546	-0.5668	0.4383	-0.5215	-0.4633
8.06	-9.5920	-0.2027	0.7359	-0.0125	-0.0102	-0.0430	32.2499	-23.5292	3.2051	-0.5669	0.4382	-0.5215	-0.4633
8.07	-9.5939	-0.2103	0.7394	-0.0078	-0.0091	-0.0461	32.3172	-23.6515	3.3130	-0.5668	0.4381	-0.5215	-0.4633
8.08	-9.5967	-0.2052	0.7381	-0.0007	-0.0092	-0.0484	32.3337	-23.4410	3.5321	-0.5670	0.4381	-0.5215	-0.4634
8.09	-9.5881	-0.2038	0.7468	-0.0037	-0.0074	-0.0494	31.9610	-23.4914	3.3309	-0.5670	0.4380	-0.5215	-0.4634
8.1	-9.5912	-0.2087	0.7436	-0.0026	-0.0032	-0.0503	31.8089	-23.7246	3.3040	-0.5671	0.4380	-0.5216	-0.4634
8.11	-9.5896	-0.2027	0.7410	0.0005	-0.0097	-0.0493	32.0752	-23.6004	3.3478	-0.5671	0.4378	-0.5215	-0.4633
8.12	-9.5818	-0.2003	0.7450	-0.0001	-0.0081	-0.0515	32.0379	-23.5810	3.1421	-0.5671	0.4378	-0.5215	-0.4633
8.13	-9.5839	-0.1894	0.7470	-0.0047	-0.0087	-0.0507	32.2360	-23.6795	3.3944	-0.5672	0.4377	-0.5215	-0.4633
8.14	-9.5854	-0.1827	0.7531	-0.0018	-0.0068	-0.0553	32.1513	-23.6226	3.3385	-0.5672	0.4377	-0.5215	-0.4633
8.15	-9.5856	-0.1741	0.7505	-0.0003	-0.0076	-0.0573	32.0200	-23.5034	3.1238	-0.5674	0.4377	-0.5216	-0.4633
8.16	-9.5830	-0.1656	0.7554	-0.0004	-0.0010	-0.0573	32.0815	-23.6439	3.3696	-0.5674	0.4376	-0.5215	-0.4633
8.17	-9.5843	-0.1610	0.7538	-0.0001	0.0018	-0.0569	32.1832	-23.5695	3.3094	-0.5675	0.4376	-0.5216	-0.4632
8.18	-9.5875	-0.1583	0.7481	-0.0036	-0.0039	-0.0603	32.0051	-23.7141	3.3047	-0.5674	0.4375	-0.5215	-0.4631
8.19	-9.5754	-0.1553	0.7541	-0.0055	-0.0014	-0.0541	32.0969	-23.5612	3.2560	-0.5675	0.4375	-0.5215	-0.4632
8.2	-9.5764	-0.1555	0.7507	-0.0148	0.0048	-0.0629	32.1178	-23.4922	3.2716	-0.5675	0.4375	-0.5215	-0.4631
8.21	-9.5906	-0.1629	0.7435	-0.0268	-0.0013	-0.0601	32.2434	-23.5748	3.2733	-0.5675	0.4376	-0.5215	-0.4631
8.22	-9.5949	-0.1680	0.7373	-0.0158	0.0033	-0.0567	32.0865	-23.8234	3.4438	-0.5676	0.4376	-0.5215	-0.4631
8.23	-9.5885	-0.1778	0.7348	-0.0245	-0.0049	-0.0574	32.2352	-23.4690	3.2745	-0.5676	0.4376	-0.5214	-0.4631
8.24	-9.5977	-0.1905	0.7329	-0.0274	-0.0039	-0.0564	32.2834	-23.6547	3.3419	-0.5676	0.4377	-0.5214	-0.4632
8.25	-9.6033	-0.2019	0.7326	-0.0276	0.0025	-0.0574	32.1989	-23.7072	3.3100	-0.5675	0.4376	-0.5213	-0.4632
8.26	-9.6052	-0.2152	0.7281	-0.0295	0.0071	-0.0572	32.2239	-23.5863	3.3248	-0.5676	0.4378	-0.5213	-0.4632
8.27	-9.6046	-0.2225	0.7270	-0.0283	0.0075	-0.0580	31.9347	-23.5816	3.3163	-0.5675	0.4378	-0.5212	-0.4632
8.28	-9.6034	-0.2356	0.7263	-0.0258	-0.0004	-0.0576	32.0083	-23.4665	3.3047	-0.5675	0.4379	-0.5212	-0.4633
8.29	-9.6088	-0.2432	0.7222	-0.0250	0.0093	-0.0524	32.2750	-23.6406	3.4186	-0.5675	0.4379	-0.5212	-0.4633
8.3	-9.6084	-0.2434	0.7275	-0.0191	0.0128	-0.0596	32.1509	-23.8065	3.5459	-0.5674	0.4379	-0.5212	-0.4632
8.31	-9.6092	-0.2467	0.7211	-0.0159	-0.0047	-0.0541	32.0062	-23.5493	3.2291	-0.5675	0.4379	-0.5212	-0.4633
8.32	-9.6071	-0.2486	0.7147	-0.0195	-0.0026	-0.0549	32.0668	-23.4851	3.2896	-0.5674	0.4379	-0.5211	-0.4632
8.33	-9.6102	-0.2483	0.7122	-0.0091	0.0018	-0.0584	32.0339	-23.5538	3.5512	-0.5675	0.4380	-0.5211	-0.4633
8.34	-9.6078	-0.2450	0.7110	-0.0155	0.0039	-0.0566	32.0668	-23.5852	3.4535	-0.5675	0.4379	-0.5211	-0.4632
8.35	-9.6157	-0.2423	0.7156	-0.0073	-0.0018	-0.0607	32.2534	-23.4667	3.0857	-0.5676	0.4380	-0.5211	-0.4632
8.36	-9.6242	-0.2388	0.7196	-0.0039	-0.0041	-0.0556	32.1077	-23.6484	3.3605	-0.5676	0.4379	-0.5210	-0.4632
8.37	-9.6385	-0.2299	0.7194	-0.0023	-0.0037	-0.0537	32.1744	-23.4296	3.3761	-0.5677	0.4379	-0.5211	-0.4632
8.38	-9.6273	-0.2341	0.7223	0.0022	-0.0054	-0.0581	32.0472	-23.4890	3.3421	-0.5677	0.4378	-0.5211	-0.4631
8.39	-9.6039	-0.2268	0.7183	0.0009	-0.0091	-0.0556	32.1293	-23.5150	3.4493	-0.5678	0.4377	-0.5210	-0.4631
8.4	-9.6132	-0.2053	0.7191	0.0066	-0.0063	-0.0558	32.2182	-23.5333	3.2842	-0.5679	0.4377	-0.5211	-0.4631
8.41	-9.6065	-0.1899	0.7284	0.0121	-0.0144	-0.0568	32.1547	-23.6060	3.3351	-0.5680	0.4376	-0.5211	-0.4630
8.42	-9.5713	-0.1824	0.7354	0.0163	-0.0115	-0.0605	32.4701	-23.6618	3.3131	-0.5682	0.4375	-0.5211	-0.4630
8.43	-9.5768	-0.1915	0.7379	0.0029	-0.0059	-0.0590	32.1970	-23.7062	3.3266	-0.5682	0.4374	-0.5211	-0.4629
8.44	-9.5779	-0.1951	0.7355	0.0022	-0.0099	-0.0593	32.2274	-23.5747	3.3161	-0.5683	0.4374	-0.5211	-0.4629
8.45	-9.5713	-0.1756	0.7496	0.0020	-0.0067	-0.0546	32.0671	-23.6169	3.1337	-0.5684	0.4373	-0.5211	-0.4628
8.46	-9.6031	-0.1744	0.7532	-0.0047	-0.0074	-0.0534	32.3192	-23.6056	3.1984	-0.5684	0.4372	-0.5211	-0.4628
8.47	-9.6388	-0.1788	0.7606	-0.0021	-0.0117	-0.0540	32.2261	-23.5048	3.3468	-0.5685	0.4372	-0.5211	-0.4628
8.48	-9.6357	-0.1739	0.7603	-0.0037	-0.0086	-0.0538	32.0780	-23.5244	3.2935	-0.5685	0.4371	-0.5210	-0.4628
8.49	-9.6109	-0.1727	0.7603	-0.0036	-0.0100	-0.0568	32.0297	-23.4969	3.3483	-0.5686	0.4371	-0.5210	-0.4628
8.5	-9.5790	-0.1758	0.7571	-0.0169	-0.0078	-0.0505	32.1224	-23.6164	3.2056	-0.5686	0.4370	-0.5209	-0.4628
8.51	-9.5491	-0.1806	0.7599	-0.0100	-0.0040	-0.0528	32.2663	-23.4811	3.2513	-0.5687	0.4370	-0.5210	-0.4628
8.52	-9.5437	-0.1831	0.7570	-0.0249	0.0003	-0.0548	32.5055	-23.4033	3.5031	-0.5687	0.4370	-0.5209	-0.4628
8.53	-9.5444	-0.1814	0.7495	-0.0224	0.0023	-0.0531	32.7221	-23.4399	3.5075	-0.5687	0.4371	-0.5209	-0.4629
8.54	-9.5538	-0.1815	0.7468	-0.0163	0.0063	-0.0576	32.3816	-23.3473	3.4296	-0.5686	0.4371	-0.5209	-0.4628
8.55	-9.5642	-0.1826	0.7347	-0.0257	0.0187	-0.0579	31.9715	-23.2626	3.2378	-0.5686	0.4372	-0.5209	-0.4628
8.56	-9.5784	-0.1928	0.7295	-0.0256	0.0151	-0.0645	31.7349	-23.4145	3.4239	-0.5686	0.4373	-0.5209	-0.4628
8.57	-9.5961	-0.2042	0.7240	-0.0173	0.0186	-0.0634	31.8755	-23.6107	3.2889	-0.5685	0.4373	-0.5209	-0.4627
8.58	-9.5989	-0.2156	0.7206	-0.0213	0.0162	-0.0650	32.0241	-23.4759	3.3430	-0.5686	0.4374	-0.5209	-0.4627
8.59	-9.5943	-0.2236	0.7189	-0.0220	0.0034	-0.0640	32.0866	-23.3582	3.3702	-0.5685	0.4374	-0.5209	-0.4627
8.6	-9.5950	-0.2287	0.7146	-0.0231	0.0078	-0.0630	32.3204	-23.5390	3.2835	-0.5686	0.4375	-0.5209	-0.4627
8.61	-9.5962	-0.2266	0.7145	-0.0204	0.0061	-0.0592	32.3611	-23.7839	3.3248	-0.5685	0.4375	-0.5208	-0.4626
8.62	-9.5977	-0.2314	0.7121	-0.0229	-0.0044	-0.0590	32.0625	-23.6330	3.3158	-0.5686	0.4376	-0.5208	-0.4627
8.63	-9.5951	-0.2293	0.7080	-0.0186	0.0107	-0.0600	32.1198	-23.5378	3.2818	-0.5686	0.4376	-0.5208	-0.4626
8.64	-9.5970	-0.2293	0.7089	-0.0240	0.0106	-0.0545	32.2371	-23.7063	3.4253	-0.5685	0.4377	-0.5207	-0.4626
8.65	-9.6072	-0.2326	0.7021	-0.0221	0.0146	-0.0576	32.2766	-23.5201	3.2686	-0.5685	0.4378	-0.5208	-0.4627
8.66	-9.6132	-0.2324	0.7022	-0.0202	0.0152	-0.0565	32.3297	-23.5691	3.0947	-0.5685	0.4378	-0.5208	-0.4626
8.67	-9.6226	-0.2446	0.7002	-0.0283	0.0110	-0.0616	32.1608	-23.6857	3.3562	-0.5685	0.4379	-0.5208	-0.4626
8.68	-9.6275	-0.2481	0.6969	-0.0278	0.0133	-0.0530	32.1423	-23.3432	3.1821	-0.5683	0.4379	-0.5207	-0.4626
8.69	-9.6288	-0.2565	0.7043	-0.0184	-0.0011	-0.0504	32.1948	-23.6806	3.3652	-0.5684	0.4379	-0.5207	-0.4626
8.7	-9.6184	-0.2612	0.7000	-0.0080	0.0039	-0.0514	32.2370	-23.4477	3.4086	-0.5684	0.4379	-0.5207	-0.4626
8.71	-9.6074	-0.2593	0.7003	-0.0159	0.0067	-0.0498	32.0443	-23.3902	3.4006	-0.5684	0.4379	-0.5207	-0.4626
8.72	-9.5885	-0.2560	0.6940	-0.0144	-0.0026	-0.0507	32.1738	-23.4173	3.3002	-0.5684	0.4379	-0.5207	-0.4626
8.73	-9.5880	-0.2417	0.6964	-0.0021	-0.0008	-0.0477	32.1718	-23.4037	3.1665	-0.5684	0.4378	-0.5207	-0.4626
8.74	-9.6271	-0.2318	0.7082	-0.0045	0.0076	-0.0499	32.3156	-23.4105	3.2944	-0.5684	0.4378	-0.5208	-0.4626
8.75	-9.6411	-0.2452	0.7162	-0.0012	0.0001	-0.0571	32.0453	-23.4059	3.3699	-0.5684	0.4378	-0.5208	-0.4625
8.76	-9.6300	-0.2360	0.7232	0.0007	-0.0046	-0.0575	31.9829	-23.4043	3.5680	-0.5685	0.4378	-0.5208	-0.4625
8.77	-9.6168	-0.2168	0.7180	0.0031	-0.0066	-0.0568	32.1188	-23.4287	3.3268	-0.5686	0.4377	-0.5208	-0.4625
8.78	-9.5747	-0.2116	0.7192	0.0027	-0.0129	-0.0604	31.9709	-23.6062	3.1601	-0.5687	0.4376	-0.5208	-0.4624
8.79	-9.5771	-0.2161	0.7202	-0.0001	-0.0104	-0.0542	32.0692	-23.5561	3.3320	-0.5688	0.4375	-0.5208	-0.4624
8.8	-9.5994	-0.2183	0.7222	-0.0027	-0.0062	-0.0475	32.0880	-23.7590	3.4561	-0.5688	0.4375	-0.5208	-0.4624
8.81	-9.6002	-0.1989	0.7211	-0.0032	-0.0093	-0.0443	32.4121	-23.6658	3.4775	-0.5689	0.4374	-0.5208	-0.4624
8.82	-9.6043	-0.1897	0.7255	0.0012	-0.0039	-0.0498	32.0556	-23.4452	3.2760	-0.5689	0.4373	-0.5208	-0.4624
8.83	-9.6191	-0.1922	0.7247	-0.0060	-0.0114	-0.0445	32.0782	-23.7371	3.3315	-0.5690	0.4373	-0.5209	-0.4625
8.84	-9.6263	-0.1948	0.7200	-0.0085	-0.0074	-0.0476	32.1903	-23.6057	3.4441	-0.5690	0.4372	-0.5208	-0.4625
8.85	-9.6360	-0.2018	0.7257	-0.0042	-0.0085	-0.0547	32.1394	-23.5756	3.3195	-0.5691	0.4372	-0.5208	-0.4625
8.86	-9.6392	-0.2115	0.7206	-0.0109	-0.0094	-0.0555	32.1764	-23.5909	3.2225	-0.5691	0.4371	-0.5207	-0.4624
8.87	-9.6324	-0.2197	0.7231	-0.0065	-0.0130	-0.0577	32.1334	-23.5727	3.3077	-0.5692	0.4371	-0.5207	-0.4625
8.88	-9.6309	-0.2139	0.7327	-0.0125	-0.0174	-0.0586	32.2072	-23.4208	3.1658	-0.5692	0.4370	-0.5207	-0.4625
8.89	-9.6307	-0.2146	0.7398	-0.0078	-0.0167	-0.0599	31.9782	-23.3943	3.3170	-0.5693	0.4370	-0.5206	-0.4625
8.9	-9.6228	-0.2234	0.7404	-0.0067	-0.0101	-0.0614	31.9852	-23.5189	3.2051	-0.5694	0.4370	-0.5206	-0.4625
8.91	-9.6147	-0.2228	0.7521	-0.0035	-0.0233	-0.0590	32.2438	-23.4823	3.3539	-0.5695	0.4369	-0.5205	-0.4625
8.92	-9.6057	-0.2291	0.7608	-0.0109	-0.0264	-0.0554	32.0360	-23.5183	3.2285	-0.5696	0.4368	-0.5205	-0.4625
8.93	-9.5949	-0.2298	0.7721	-0.0156	-0.0207	-0.0486	32.1885	-23.3972	3.1972	-0.5696	0.4367	-0.5203	-0.4625
8.94	-9.5845	-0.2276	0.7789	-0.0060	-0.0235	-0.0516	32.1139	-23.4174	3.2383	-0.5697	0.4367	-0.5203	-0.4626
8.95	-9.5696	-0.2198	0.7880	-0.0202	-0.0167	-0.0489	32.0982	-23.5591	3.1584	-0.5698	0.4366	-0.5202	-0.4627
8.96	-9.5568	-0.2212	0.7985	-0.0132	-0.0239	-0.0418	32.2012	-23.3253	3.0974	-0.5698	0.4365	-0.5202	-0.4628
8.97	-9.5453	-0.2180	0.8008	-0.0201	-0.0248	-0.0348	32.0326	-23.3106	3.2245	-0.5699	0.4364	-0.5202	-0.4629
8.98	-9.5455	-0.2152	0.8019	-0.0189	-0.0209	-0.0388	32.2457	-23.5930	3.2240	-0.5699	0.4363	-0.5201	-0.4630
8.99	-9.5442	-0.2205	0.8087	-0.0214	-0.0123	-0.0398	32.4307	-23.3402	3.1693	-0.5699	0.4363	-0.5201	-0.4631
9	-9.5370	-0.2247	0.8049	-0.0159	-0.0080	-0.0416	32.4339	-23.7052	3.0159	-0.5698	0.4362	-0.5200	-0.4631
9.01	-9.5418	-0.2277	0.8068	-0.0083	-0.0045	-0.0458	32.1955	-23.6250	3.0491	-0.5699	0.4362	-0.5201	-0.4632
9.02	-9.5429	-0.2340	0.8021	-0.0023	-0.0008	-0.0447	32.6508	-23.4672	3.3488	-0.5699	0.4361	-0.5201	-0.4632
9.03	-9.5441	-0.2412	0.7920	-0.0026	0.0012	-0.0418	32.9413	-23.4338	3.1883	-0.5699	0.4361	-0.5201	-0.4632
9.04	-9.5406	-0.2348	0.7873	-0.0028	-0.0014	-0.0479	32.6452	-23.3882	3.4491	-0.5699	0.4360	-0.5201	-0.4631
9.05	-9.5409	-0.2316	0.7798	-0.0027	0.0018	-0.0577	32.5224	-23.4695	3.1439	-0.5700	0.4360	-0.5202	-0.4631
9.06	-9.5494	-0.2286	0.7772	0.0048	0.0127	-0.0566	32.3616	-23.4036	3.2234	-0.5700	0.4360	-0.5202	-0.4630
9.07	-9.5616	-0.2145	0.7714	0.0070	0.0150	-0.0502	32.2985	-23.3307	3.3330	-0.5700	0.4359	-0.5203	-0.4629
9.08	-9.5790	-0.2004	0.7644	0.0109	0.0190	-0.0562	32.2860	-23.4468	3.2788	-0.5701	0.4359	-0.5204	-0.4629
9.09	-9.5959	-0.1896	0.7559	0.0154	0.0191	-0.0581	32.1712	-23.5362	3.1405	-0.5701	0.4359	-0.5205	-0.4627
9.1	-9.6197	-0.1739	0.7521	-0.0035	0.0168	-0.0562	32.2373	-23.4967	3.1480	-0.5701	0.4359	-0.5206	-0.4627
9.11	-9.6208	-0.1642	0.7463	0.0066	0.0142	-0.0554	32.0910	-23.5209	3.3406	-0.5701	0.4358	-0.5206	-0.4625
9.12	-9.6289	-0.1515	0.7430	-0.0026	0.0188	-0.0573	32.1335	-23.6132	3.3797	-0.5701	0.4359	-0.5207	-0.4625
9.13	-9.6347	-0.1469	0.7357	-0.0030	0.0157	-0.0567	32.2732	-23.5818	3.2448	-0.5701	0.4359	-0.5208	-0.4624
9.14	-9.6413	-0.1491	0.7306	-0.0035	0.0070	-0.0574	32.3115	-23.3070	3.4758	-0.5701	0.4358	-0.5208	-0.4623
9.15	-9.6491	-0.1496	0.7330	-0.0100	0.0073	-0.0585	32.2714	-23.4561	3.4021	-0.5702	0.4359	-0.5208	-0.4623
9.16	-9.6530	-0.1605	0.7375	-0.0182	0.0047	-0.0628	32.3418	-23.5114	3.2016	-0.5701	0.4359	-0.5208	-0.4623
9.17	-9.6576	-0.1707	0.7327	-0.0263	-0.0028	-0.0571	32.3944	-23.5651	3.2871	-0.5702	0.4360	-0.5208	-0.4623
9.18	-9.6477	-0.1867	0.7358	-0.0273	-0.0092	-0.0576	32.3837	-23.6195	3.3035	-0.5701	0.4359	-0.5206	-0.4623
9.19	-9.6427	-0.2019	0.7468	-0.0288	-0.0071	-0.0583	32.3589	-23.5758	3.0922	-0.5702	0.4360	-0.5206	-0.4624
9.2	-9.6272	-0.2208	0.7515	-0.0288	-0.0132	-0.0565	32.1075	-23.6317	3.2608	-0.5702	0.4360	-0.5205	-0.4624
9.21	-9.6063	-0.2384	0.7510	-0.0287	-0.0162	-0.0553	32.4030	-23.5028	3.1633	-0.5702	0.4360	-0.5204	-0.4625
9.22	-9.5875	-0.2483	0.7580	-0.0288	-0.0092	-0.0532	32.3653	-23.5258	3.3453	-0.5702	0.4361	-0.5203	-0.4626
9.23	-9.5713	-0.2592	0.7577	-0.0287	-0.0089	-0.0542	32.1583	-23.3418	3.2396	-0.5702	0.4361	-0.5202	-0.4626
9.24	-9.5583	-0.2608	0.7629	-0.0290	-0.0075	-0.0588	32.4493	-23.6251	3.2001	-0.5703	0.4361	-0.5202	-0.4627
9.25	-9.5408	-0.2631	0.7691	-0.0287	-0.0108	-0.0551	32.1489	-23.7319	3.2175	-0.5702	0.4361	-0.5201	-0.4627
9.26	-9.5474	-0.2685	0.7738	-0.0292	-0.0072	-0.0511	32.4855	-23.4387	3.0951	-0.5703	0.4361	-0.5201	-0.4628
9.27	-9.5569	-0.2704	0.7727	-0.0261	-0.0001	-0.0593	32.2017	-23.5766	3.2919	-0.5702	0.4362	-0.5200	-0.4628
9.28	-9.5744	-0.2751	0.7718	-0.0155	-0.0002	-0.0573	32.1330	-23.3439	3.2962	-0.5703	0.4362	-0.5200	-0.4628
9.29	-9.5677	-0.2821	0.7686	-0.0080	0.0032	-0.0544	32.3435	-23.3211	3.2939	-0.5703	0.4362	-0.5200	-0.4628
9.3	-9.5822	-0.2753	0.7654	-0.0060	-0.0045	-0.0465	32.2607	-23.4745	3.2984	-0.5703	0.4361	-0.5200	-0.4628
9.31	-9.6052	-0.2573	0.7633	-0.0029	0.0095	-0.0546	32.3289	-23.5203	3.2984	-0.5703	0.4361	-0.5200	-0.4628
9.32	-9.5946	-0.2504	0.7655	-0.0022	0.0012	-0.0583	32.1987	-23.1211	3.2907	-0.5703	0.4360	-0.5200	-0.4627
9.33	-9.5874	-0.2467	0.7685	-0.0040	0.0009	-0.0568	32.1073	-23.2935	3.2883	-0.5704	0.4361	-0.5201	-0.4627
9.34	-9.6073	-0.2462	0.7658	0.0049	0.0006	-0.0525	32.4223	-23.4793	3.3154	-0.5704	0.4360	-0.5201	-0.4626
9.35	-9.5972	-0.2228	0.7700	0.0131	-0.0019	-0.0503	32.2522	-23.5916	3.5108	-0.5706	0.4359	-0.5202	-0.4626
9.36	-9.6005	-0.1916	0.7785	0.0097	-0.0067	-0.0580	32.0676	-23.5915	3.3794	-0.5706	0.4358	-0.5201	-0.4625
9.37	-9.6460	-0.1887	0.7837	-0.0025	-0.0084	-0.0467	32.4011	-23.6213	3.1620	-0.5707	0.4358	-0.5202	-0.4625
9.38	-9.6452	-0.1833	0.7837	-0.0041	-0.0107	-0.0568	32.4982	-23.5278	3.2489	-0.5707	0.4357	-0.5201	-0.4625
9.39	-9.6113	-0.1640	0.7886	-0.0034	-0.0078	-0.0519	32.4033	-23.5164	3.0928	-0.5707	0.4356	-0.5201	-0.4625
9.4	-9.5816	-0.1657	0.7862	-0.0030	-0.0111	-0.0492	32.2477	-23.4798	3.3284	-0.5709	0.4356	-0.5202	-0.4625
9.41	-9.5450	-0.1668	0.7825	-0.0077	-0.0055	-0.0524	32.2316	-23.4561	3.5748	-0.5709	0.4355	-0.5201	-0.4625
9.42	-9.5332	-0.1734	0.7865	-0.0192	-0.0092	-0.0453	32.3265	-23.7257	3.2828	-0.5709	0.4355	-0.5201	-0.4626
9.43	-9.5415	-0.1778	0.7835	-0.0258	0.0038	-0.0453	32.1904	-23.5931	2.9816	-0.5708	0.4355	-0.5200	-0.4626
9.44	-9.5466	-0.1818	0.7733	-0.0229	0.0087	-0.0476	32.3064	-23.5790	3.2815	-0.5708	0.4355	-0.5201	-0.4626
9.45	-9.5444	-0.1899	0.7655	-0.0302	0.0176	-0.0558	32.3078	-23.4859	3.3066	-0.5707	0.4356	-0.5201	-0.4626
9.46	-9.5645	-0.2061	0.7551	-0.0278	0.0208	-0.0579	32.2088	-23.5256	3.2871	-0.5707	0.4357	-0.5201	-0.4626
9.47	-9.5818	-0.2285	0.7422	-0.0300	0.0204	-0.0610	32.2045	-23.4132	3.3138	-0.5706	0.4358	-0.5201	-0.4626
9.48	-9.5818	-0.2352	0.7374	-0.0253	0.0204	-0.0648	32.4561	-23.5386	3.3997	-0.5706	0.4359	-0.5201	-0.4625
9.49	-9.5789	-0.2455	0.7283	-0.0210	0.0233	-0.0691	32.2862	-23.4920	3.1885	-0.5706	0.4360	-0.5201	-0.4625
9.5	-9.5801	-0.2516	0.7267	-0.0214	0.0209	-0.0653	32.3099	-23.5311	3.2929	-0.5705	0.4361	-0.5201	-0.4624
9.51	-9.5820	-0.2485	0.7130	-0.0186	0.0223	-0.0677	32.1544	-23.3769	3.3149	-0.5705	0.4362	-0.5201	-0.4623
9.52	-9.5914	-0.2496	0.7167	-0.0251	0.0158	-0.0642	32.4772	-23.1699	3.4162	-0.5704	0.4363	-0.5201	-0.4623
9.53	-9.6081	-0.2473	0.7114	-0.0187	0.0182	-0.0583	32.8884	-23.4114	3.3233	-0.5704	0.4364	-0.5201	-0.4623
9.54	-9.6165	-0.2463	0.7114	-0.0239	0.0187	-0.0546	32.6415	-23.4145	3.1959	-0.5704	0.4364	-0.5201	-0.4622
9.55	-9.6384	-0.2513	0.7046	-0.0231	0.0112	-0.0567	32.4087	-23.3615	3.0910	-0.5703	0.4365	-0.5201	-0.4622
9.56	-9.6534	-0.2553	0.7033	-0.0186	0.0150	-0.0577	32.2532	-23.5586	3.2046	-0.5703	0.4366	-0.5202	-0.4622
9.57	-9.6584	-0.2592	0.6990	-0.0253	0.0128	-0.0542	32.3328	-23.4896	3.3447	-0.5702	0.4366	-0.5201	-0.4622
9.58	-9.6630	-0.2660	0.6954	-0.0148	0.0121	-0.0541	32.4318	-23.5007	3.1961	-0.5703	0.4367	-0.5202	-0.4622
9.59	-9.6699	-0.2633	0.6880	-0.0198	0.0065	-0.0521	32.2479	-23.4618	3.1413	-0.5702	0.4367	-0.5202	-0.4622
9.6	-9.6646	-0.2609	0.6938	-0.0089	-0.0028	-0.0553	32.2457	-23.5888	3.3494	-0.5703	0.4367	-0.5202	-0.4622
9.61	-9.6494	-0.2613	0.6986	-0.0148	-0.0070	-0.0584	32.1364	-23.4705	3.3129	-0.5703	0.4366	-0.5201	-0.4621
9.62	-9.6342	-0.2573	0.6965	-0.0082	-0.0136	-0.0514	32.2727	-23.5307	3.0963	-0.5703	0.4366	-0.5201	-0.4622
9.63	-9.6167	-0.2569	0.7090	-0.0034	-0.0086	-0.0547	32.1746	-23.5596	3.3862	-0.5704	0.4365	-0.5201	-0.4622
9.64	-9.5982	-0.2435	0.7183	-0.0036	-0.0109	-0.0564	32.1206	-23.3842	3.4432	-0.5704	0.4365	-0.5200	-0.4621
9.65	-9.6229	-0.2390	0.7311	-0.0039	-0.0122	-0.0567	32.2695	-23.4008	3.2845	-0.5706	0.4365	-0.5201	-0.4622
9.66	-9.6313	-0.2513	0.7434	-0.0034	-0.0116	-0.0600	32.3437	-23.4292	3.3751	-0.5706	0.4364	-0.5200	-0.4621
9.67	-9.5969	-0.2502	0.7611	-0.0020	-0.0074	-0.0634	32.0640	-23.5303	3.4343	-0.5707	0.4364	-0.5200	-0.4621
9.68	-9.5762	-0.2457	0.7603	-0.0045	-0.0223	-0.0556	32.0548	-23.3877	3.4082	-0.5707	0.4363	-0.5199	-0.4621
9.69	-9.5301	-0.2475	0.7678	-0.0093	-0.0185	-0.0604	32.1628	-23.2938	3.2982	-0.5709	0.4363	-0.5199	-0.4621
9.7	-9.5243	-0.2557	0.7798	-0.0078	-0.0125	-0.0546	32.1559	-23.1753	3.3368	-0.5709	0.4362	-0.5198	-0.4621
9.71	-9.5475	-0.2612	0.7778	-0.0068	-0.0070	-0.0485	32.1195	-23.3750	3.2806	-0.5710	0.4361	-0.5198	-0.4621
9.72	-9.5436	-0.2495	0.7849	-0.0116	-0.0058	-0.0407	32.2834	-23.6082	3.5760	-0.5710	0.4361	-0.5198	-0.4622
9.73	-9.5463	-0.2342	0.7835	-0.0083	0.0006	-0.0358	32.2847	-23.6933	3.2874	-0.5710	0.4360	-0.5199	-0.4622
9.74	-9.5567	-0.2302	0.7718	-0.0119	0.0117	-0.0404	32.2633	-23.5991	3.2821	-0.5709	0.4360	-0.5199	-0.4622
9.75	-9.5637	-0.2278	0.7734	-0.0136	0.0105	-0.0430	32.4359	-23.5659	3.3507	-0.5708	0.4360	-0.5199	-0.4622
9.76	-9.5700	-0.2235	0.7655	-0.0065	0.0137	-0.0458	32.3076	-23.4770	3.2112	-0.5709	0.4360	-0.5200	-0.4622
9.77	-9.5799	-0.2249	0.7578	-0.0103	0.0163	-0.0433	32.4707	-23.6660	3.2305	-0.5708	0.4360	-0.5201	-0.4622
9.78	-9.5792	-0.2198	0.7529	-0.0040	0.0148	-0.0524	32.3162	-23.6022	3.3115	-0.5708	0.4360	-0.5202	-0.4621
9.79	-9.5912	-0.2183	0.7463	-0.0118	0.0139	-0.0512	32.3295	-23.5486	3.3372	-0.5708	0.4360	-0.5202	-0.4621
9.8	-9.5986	-0.2208	0.7446	-0.0040	0.0089	-0.0550	32.3152	-23.7417	3.2029	-0.5708	0.4360	-0.5202	-0.4621
9.81	-9.5965	-0.2263	0.7385	-0.0191	0.0116	-0.0569	32.1355	-23.7163	3.2642	-0.5708	0.4360	-0.5203	-0.4620
9.82	-9.5985	-0.2349	0.7327	-0.0197	0.0117	-0.0583	32.2187	-23.5641	3.2013	-0.5707	0.4360	-0.5202	-0.4620
9.83	-9.6034	-0.2415	0.7318	-0.0254	0.0148	-0.0535	32.3593	-23.5811	3.3820	-0.5707	0.4362	-0.5203	-0.4620
9.84	-9.6067	-0.2469	0.7271	-0.0178	0.0143	-0.0491	32.1263	-23.4242	3.4041	-0.5706	0.4362	-0.5203	-0.4620
9.85	-9.6138	-0.2555	0.7278	-0.0223	0.0168	-0.0501	32.0106	-23.3909	3.4595	-0.5706	0.4362	-0.5204	-0.4620
9.86	-9.6136	-0.2516	0.7228	-0.0220	0.0212	-0.0455	32.1903	-23.4173	3.1830	-0.5705	0.4362	-0.5203	-0.4620
9.87	-9.6166	-0.2483	0.7204	-0.0088	0.0167	-0.0434	32.0892	-23.3797	3.1783	-0.5705	0.4363	-0.5204	-0.4620
9.88	-9.6154	-0.2474	0.7143	-0.0235	0.0090	-0.0378	32.0963	-23.4662	3.1850	-0.5704	0.4363	-0.5205	-0.4620
9.89	-9.6137	-0.2417	0.7184	-0.0141	0.0063	-0.0367	32.1873	-23.4998	3.1788	-0.5703	0.4362	-0.5205	-0.4620
9.9	-9.6268	-0.2448	0.7170	-0.0083	0.0111	-0.0444	31.9155	-23.4906	3.4737	-0.5704	0.4362	-0.5206	-0.4621
9.91	-9.6273	-0.2366	0.7157	-0.0044	0.0014	-0.0375	32.3094	-23.6189	3.2349	-0.5703	0.4361	-0.5206	-0.4620
9.92	-9.6309	-0.2292	0.7185	-0.0026	0.0017	-0.0375	32.5234	-23.5325	3.2443	-0.5703	0.4361	-0.5207	-0.4621
9.93	-9.6312	-0.2285	0.7186	0.0005	-0.0072	-0.0423	32.4195	-23.7040	3.2284	-0.5703	0.4360	-0.5207	-0.4620
9.94	-9.6240	-0.2158	0.7201	0.0013	-0.0075	-0.0465	32.2730	-23.6085	3.2504	-0.5704	0.4359	-0.5207	-0.4621
9.95	-9.6094	-0.2111	0.7193	0.0001	-0.0095	-0.0480	32.2350	-23.6240	3.2091	-0.5704	0.4358	-0.5207	-0.4621
9.96	-9.5969	-0.2035	0.7228	0.0056	-0.0102	-0.0569	32.2112	-23.6801	3.3300	-0.5705	0.4357	-0.5207	-0.4620
9.97	-9.5967	-0.1964	0.7299	0.0111	-0.0090	-0.0502	32.3689	-23.5848	3.3201	-0.5706	0.4357	-0.5208	-0.4620
9.98	-9.5915	-0.1873	0.7305	-0.0026	-0.0101	-0.0484	32.2454	-23.5247	3.3559	-0.5706	0.4356	-0.5208	-0.4620
9.99	-9.5904	-0.1778	0.7368	0.0026	-0.0089	-0.0507	32.1093	-23.7480	3.4556	-0.5707	0.4355	-0.5208	-0.4620
10	-9.5975	-0.1704	0.7404	0.0014	-0.0064	-0.0503	32.1532	-23.5973	3.3860	-0.5707	0.4354	-0.5208	-0.4619
10.01	-9.6039	-0.1652	0.7467	-0.0026	-0.0087	-0.0504	32.2607	-23.2586	3.5629	-0.5708	0.4354	-0.5208	-0.4620
10.02	-9.6005	-0.1651	0.7444	-0.0046	0.0004	-0.0546	32.5337	-23.2982	3.5795	-0.5708	0.4353	-0.5208	-0.4619
10.03	-9.6033	-0.1673	0.7506	-0.0178	-0.0078	-0.0550	32.7144	-23.1757	3.4000	-0.5709	0.4353	-0.5208	-0.4620
10.04	-9.6009	-0.1752	0.7494	-0.0085	-0.0061	-0.0523	32.4465	-23.2974	3.4204	-0.5709	0.4353	-0.5208	-0.4620
10.05	-9.5959	-0.1821	0.7526	-0.0227	-0.0081	-0.0538	32.1891	-23.2627	3.3218	-0.5709	0.4353	-0.5207	-0.4620
10.06	-9.5972	-0.1822	0.7562	-0.0173	-0.0097	-0.0507	31.9692	-23.3885	3.2813	-0.5709	0.4353	-0.5207	-0.4620
10.07	-9.5948	-0.1904	0.7542	-0.0213	-0.0063	-0.0558	32.1057	-23.4118	3.2829	-0.5709	0.4352	-0.5206	-0.4620
10.08	-9.5895	-0.1969	0.7568	-0.0241	-0.0048	-0.0507	32.2786	-23.5501	3.2950	-0.5710	0.4353	-0.5206	-0.4621
10.09	-9.5808	-0.1979	0.7592	-0.0233	-0.0102	-0.0540	32.2757	-23.4420	3.2654	-0.5710	0.4353	-0.5205	-0.4621
10.1	-9.5811	-0.2070	0.7586	-0.0256	-0.0074	-0.0515	32.4176	-23.4680	3.0917	-0.5710	0.4353	-0.5205	-0.4622
10.11	-9.5810	-0.2167	0.7568	-0.0269	0.0042	-0.0556	32.2676	-23.6210	3.1159	-0.5709	0.4353	-0.5204	-0.4622
10.12	-9.5773	-0.2289	0.7554	-0.0263	0.0010	-0.0569	32.2579	-23.5916	3.2065	-0.5709	0.4354	-0.5204	-0.4622
10.13	-9.5767	-0.2359	0.7560	-0.0256	0.0041	-0.0618	32.2474	-23.5802	3.0275	-0.5709	0.4354	-0.5204	-0.4622
10.14	-9.5731	-0.2474	0.7522	-0.0271	0.0025	-0.0604	32.2889	-23.3790	3.3106	-0.5709	0.4355	-0.5203	-0.4622
10.15	-9.5687	-0.2539	0.7453	-0.0212	0.0039	-0.0603	32.2985	-23.5627	3.1628	-0.5710	0.4356	-0.5203	-0.4623
10.16	-9.5630	-0.2564	0.7476	-0.0173	0.0006	-0.0570	32.0746	-23.5827	3.1099	-0.5709	0.4355	-0.5203	-0.4622
10.17	-9.5839	-0.2568	0.7480	-0.0079	0.0130	-0.0576	32.1477	-23.6759	3.5286	-0.5710	0.4356	-0.5203	-0.4622
10.18	-9.5828	-0.2602	0.7390	-0.0059	0.0127	-0.0562	32.1183	-23.6732	3.2709	-0.5709	0.4355	-0.5203	-0.4621
10.19	-9.5675	-0.2481	0.7306	-0.0022	0.0108	-0.0586	32.2231	-23.7285	3.0782	-0.5709	0.4356	-0.5204	-0.4621
10.2	-9.5908	-0.2221	0.7291	-0.0033	0.0129	-0.0499	32.2541	-23.5520	3.4760	-0.5709	0.4356	-0.5204	-0.4620
10.21	-9.6096	-0.2006	0.7214	-0.0021	0.0219	-0.0518	32.3492	-23.2733	3.4039	-0.5709	0.4356	-0.5205	-0.4619
10.22	-9.5878	-0.1907	0.7179	-0.0045	0.0164	-0.0576	32.0900	-23.4660	3.2551	-0.5709	0.4356	-0.5206	-0.4619
10.23	-9.5902	-0.1928	0.7120	-0.0132	0.0170	-0.0601	32.2771	-23.3889	3.1765	-0.5709	0.4356	-0.5206	-0.4618
10.24	-9.6035	-0.1945	0.7073	-0.0240	0.0120	-0.0595	32.1299	-23.4894	3.2129	-0.5709	0.4357	-0.5206	-0.4618
10.25	-9.6083	-0.1870	0.7125	-0.0207	0.0043	-0.0568	32.1225	-23.5439	3.1009	-0.5708	0.4357	-0.5206	-0.4617
10.26	-9.6414	-0.1952	0.7163	-0.0267	0.0116	-0.0569	32.2324	-23.2537	3.1994	-0.5708	0.4358	-0.5206	-0.4618
10.27	-9.6852	-0.2196	0.7153	-0.0293	0.0025	-0.0522	32.0635	-23.6146	3.2120	-0.5708	0.4358	-0.5206	-0.4618
10.28	-9.6870	-0.2515	0.7188	-0.0272	-0.0081	-0.0509	32.2487	-23.4376	3.4187	-0.5708	0.4359	-0.5205	-0.4619
10.29	-9.6475	-0.2663	0.7173	-0.0302	-0.0143	-0.0484	32.0867	-23.4287	3.1555	-0.5708	0.4359	-0.5204	-0.4619
10.3	-9.6087	-0.2783	0.7103	-0.0252	-0.0126	-0.0445	32.3138	-23.6249	3.2363	-0.5708	0.4358	-0.5204	-0.4620
10.31	-9.5818	-0.2906	0.7155	-0.0243	-0.0094	-0.0430	32.2090	-23.6409	3.3196	-0.5708	0.4358	-0.5204	-0.4621
10.32	-9.5837	-0.2963	0.7152	-0.0132	-0.0077	-0.0426	32.3762	-23.7045	3.2198	-0.5707	0.4357	-0.5203	-0.4621
10.33	-9.5962	-0.2843	0.7112	-0.0022	-0.0025	-0.0409	32.4999	-23.5882	2.9509	-0.5708	0.4357	-0.5204	-0.4622
10.34	-9.6057	-0.2632	0.7088	-0.0025	-0.0037	-0.0435	32.2008	-23.5644	3.2528	-0.5708	0.4356	-0.5204	-0.4622
10.35	-9.6136	-0.2501	0.7079	0.0006	-0.0044	-0.0417	32.2178	-23.4928	2.9945	-0.5709	0.4356	-0.5205	-0.4622
10.36	-9.6198	-0.2314	0.7127	0.0067	-0.0053	-0.0455	32.3080	-23.5127	3.2190	-0.5708	0.4354	-0.5205	-0.4621
10.37	-9.6201	-0.2056	0.7162	0.0135	-0.0069	-0.0520	32.1821	-23.5233	3.3902	-0.5709	0.4353	-0.5205	-0.4621
10.38	-9.6132	-0.1900	0.7207	0.0107	-0.0126	-0.0574	32.0751	-23.6407	3.2656	-0.5710	0.4353	-0.5205	-0.4621
10.39	-9.5997	-0.1719	0.7224	0.0138	-0.0066	-0.0653	31.9363	-23.5134	3.2181	-0.5711	0.4352	-0.5205	-0.4620
10.4	-9.5767	-0.1560	0.7329	0.0037	-0.0097	-0.0573	31.9614	-23.4067	3.1799	-0.5713	0.4351	-0.5206	-0.4620
10.41	-9.5640	-0.1462	0.7376	-0.0033	-0.0118	-0.0563	32.2156	-23.4477	3.3342	-0.5713	0.4351	-0.5205	-0.4619
10.42	-9.5614	-0.1463	0.7511	-0.0005	-0.0116	-0.0583	32.2056	-23.5934	3.2223	-0.5714	0.4350	-0.5205	-0.4619
10.43	-9.5567	-0.1497	0.7514	-0.0126	-0.0078	-0.0507	32.3046	-23.6128	3.0756	-0.5714	0.4349	-0.5205	-0.4619
10.44	-9.5617	-0.1599	0.7513	-0.0268	-0.0050	-0.0522	32.1988	-23.4610	3.3770	-0.5714	0.4350	-0.5205	-0.4620
10.45	-9.5710	-0.1761	0.7426	-0.0274	-0.0018	-0.0542	32.2399	-23.4155	3.3195	-0.5714	0.4350	-0.5204	-0.4620
10.46	-9.5788	-0.2007	0.7456	-0.0289	0.0032	-0.0510	32.4368	-23.4089	3.2878	-0.5714	0.4350	-0.5204	-0.4620
10.47	-9.5869	-0.2280	0.7427	-0.0289	0.0103	-0.0449	32.2499	-23.5290	3.1729	-0.5713	0.4351	-0.5204	-0.4621
10.48	-9.5883	-0.2510	0.7337	-0.0294	0.0119	-0.0478	32.2644	-23.6230	3.2454	-0.5712	0.4351	-0.5204	-0.4621
10.49	-9.5916	-0.2585	0.7263	-0.0272	0.0048	-0.0457	32.2553	-23.7835	3.2752	-0.5712	0.4352	-0.5204	-0.4622
10.5	-9.5974	-0.2666	0.7201	-0.0248	-0.0000	-0.0470	32.2030	-23.6932	3.0606	-0.5711	0.4352	-0.5203	-0.4622
10.51	-9.6013	-0.2650	0.7234	-0.0188	0.0054	-0.0525	32.1974	-23.4734	3.2547	-0.5712	0.4352	-0.5204	-0.4622
10.52	-9.6016	-0.2626	0.7162	-0.0049	0.0039	-0.0476	32.4726	-23.5139	3.4560	-0.5711	0.4352	-0.5204	-0.4622
10.53	-9.5974	-0.2511	0.7110	-0.0068	0.0045	-0.0528	32.9098	-23.2344	3.4976	-0.5712	0.4352	-0.5204	-0.4622
10.54	-9.6075	-0.2393	0.7255	-0.0041	0.0010	-0.0580	32.6216	-23.2686	3.2936	-0.5712	0.4351	-0.5204	-0.4621
10.55	-9.6469	-0.2312	0.7297	-0.0022	0.0032	-0.0560	32.3385	-23.3973	3.1806	-0.5712	0.4351	-0.5205	-0.4621
10.56	-9.6328	-0.2317	0.7326	-0.0058	-0.0063	-0.0597	32.1601	-23.4999	3.3288	-0.5713	0.4351	-0.5205	-0.4621
10.57	-9.6190	-0.2178	0.7377	0.0007	-0.0097	-0.0644	32.2520	-23.3991	3.3156	-0.5713	0.4350	-0.5204	-0.4620
10.58	-9.6105	-0.2087	0.7382	-0.0053	-0.0030	-0.0574	32.2545	-23.4207	3.3439	-0.5714	0.4351	-0.5204	-0.4620
10.59	-9.5829	-0.2081	0.7481	-0.0033	-0.0071	-0.0567	32.2105	-23.3883	3.4390	-0.5715	0.4350	-0.5204	-0.4619
10.6	-9.6041	-0.2136	0.7531	-0.0028	-0.0081	-0.0495	32.3437	-23.4454	3.4080	-0.5716	0.4350	-0.5205	-0.4620
10.61	-9.6132	-0.2187	0.7439	-0.0103	-0.0088	-0.0436	32.2274	-23.2711	3.4250	-0.5715	0.4348	-0.5204	-0.4619
10.62	-9.5991	-0.2092	0.7459	-0.0188	-0.0054	-0.0507	32.1519	-23.4019	3.2813	-0.5715	0.4349	-0.5204	-0.4620
10.63	-9.6031	-0.2113	0.7447	-0.0270	-0.0094	-0.0458	32.1036	-23.4846	3.3926	-0.5715	0.4349	-0.5203	-0.4621
10.64	-9.6178	-0.2193	0.7408	-0.0224	-0.0084	-0.0423	32.0305	-23.3534	3.4385	-0.5715	0.4348	-0.5203	-0.4621
10.65	-9.6220	-0.2292	0.7498	-0.0266	-0.0060	-0.0466	32.2772	-23.6373	3.3038	-0.5715	0.4349	-0.5203	-0.4622
10.66	-9.6152	-0.2325	0.7452	-0.0217	-0.0096	-0.0406	32.0905	-23.7029	3.0638	-0.5715	0.4348	-0.5202	-0.4623
10.67	-9.6199	-0.2355	0.7454	-0.0104	-0.0134	-0.0426	32.2415	-23.8086	3.3160	-0.5715	0.4348	-0.5203	-0.4624
10.68	-9.6148	-0.2321	0.7526	-0.0018	-0.0079	-0.0427	32.2258	-23.6397	3.3451	-0.5715	0.4346	-0.5202	-0.4623
10.69	-9.6137	-0.2235	0.7552	-0.0034	-0.0114	-0.0430	32.4834	-23.5943	3.2061	-0.5716	0.4346	-0.5203	-0.4624
10.7	-9.6150	-0.2239	0.7632	-0.0034	-0.0215	-0.0474	32.1542	-23.7108	3.0914	-0.5716	0.4345	-0.5202	-0.4624
10.71	-9.6027	-0.2242	0.7702	-0.0047	-0.0184	-0.0489	32.2369	-23.5975	3.3249	-0.5717	0.4344	-0.5202	-0.4624
10.72	-9.5901	-0.2185	0.7783	-0.0018	-0.0117	-0.0477	32.1372	-23.4726	3.3276	-0.5718	0.4343	-0.5202	-0.4625
10.73	-9.5825	-0.2172	0.7840	-0.0079	-0.0175	-0.0487	32.1875	-23.4024	3.2019	-0.5718	0.4342	-0.5202	-0.4625
10.74	-9.5717	-0.2165	0.7867	-0.0059	-0.0193	-0.0434	32.2602	-23.6014	3.2481	-0.5719	0.4341	-0.5202	-0.4626
10.75	-9.5682	-0.2185	0.7913	-0.0110	-0.0146	-0.0403	32.2404	-23.5575	3.2956	-0.5718	0.4340	-0.5201	-0.4626
10.76	-9.5666	-0.2194	0.7936	-0.0085	-0.0094	-0.0427	32.1145	-23.7282	3.4938	-0.5719	0.4340	-0.5202	-0.4626
10.77	-9.5658	-0.2121	0.7941	-0.0058	-0.0116	-0.0442	32.0631	-23.4143	3.1330	-0.5719	0.4339	-0.5202	-0.4627
10.78	-9.5647	-0.2071	0.7936	-0.0047	-0.0052	-0.0420	32.2867	-23.5451	3.3004	-0.5720	0.4338	-0.5202	-0.4627
10.79	-9.5627	-0.1991	0.7891	-0.0036	-0.0094	-0.0429	32.0204	-23.6092	3.3356	-0.5720	0.4337	-0.5202	-0.4627
10.8	-9.5665	-0.1925	0.7970	-0.0074	-0.0057	-0.0400	32.2277	-23.4527	3.2237	-0.5720	0.4337	-0.5202	-0.4627
10.81	-9.5721	-0.1871	0.8028	-0.0023	0.0035	-0.0426	32.2000	-23.5262	3.3830	-0.5720	0.4336	-0.5203	-0.4627
10.82	-9.5762	-0.1855	0.8022	-0.0039	-0.0062	-0.0470	32.1108	-23.4732	3.2735	-0.5720	0.4335	-0.5203	-0.4627
10.83	-9.5697	-0.1818	0.8001	-0.0075	-0.0004	-0.0536	32.2019	-23.4250	3.4938	-0.5721	0.4336	-0.5203	-0.4627
10.84	-9.5687	-0.1761	0.7958	-0.0022	-0.0036	-0.0506	32.0627	-23.5131	3.1355	-0.5721	0.4335	-0.5203	-0.4627
10.85	-9.5681	-0.1760	0.8001	-0.0029	0.0025	-0.0472	32.1726	-23.4963	3.0341	-0.5721	0.4335	-0.5204	-0.4627
10.86	-9.5629	-0.1727	0.7928	-0.0022	0.0058	-0.0512	32.4668	-23.5647	2.9598	-0.5721	0.4334	-0.5204	-0.4626
10.87	-9.5704	-0.1700	0.7901	-0.0030	0.0093	-0.0525	32.1465	-23.6437	2.9809	-0.5721	0.4334	-0.5204	-0.4626
10.88	-9.5725	-0.1671	0.7860	-0.0033	0.0059	-0.0548	32.3724	-23.8083	3.2844	-0.5721	0.4334	-0.5205	-0.4626
10.89	-9.5889	-0.1693	0.7841	-0.0153	0.0128	-0.0484	32.4602	-23.6729	3.1472	-0.5721	0.4334	-0.5205	-0.4625
10.9	-9.5936	-0.1714	0.7817	-0.0139	0.0113	-0.0545	32.1831	-23.6532	3.0402	-0.5721	0.4335	-0.5206	-0.4625
10.91	-9.5936	-0.1742	0.7812	-0.0190	0.0094	-0.0537	32.1661	-23.4511	3.2087	-0.5720	0.4334	-0.5206	-0.4625
10.92	-9.6044	-0.1765	0.7802	-0.0219	0.0176	-0.0549	32.3336	-23.5421	3.2485	-0.5720	0.4335	-0.5206	-0.4625
10.93	-9.6016	-0.1849	0.7732	-0.0111	0.0119	-0.0535	32.3275	-23.7937	3.2277	-0.5719	0.4335	-0.5206	-0.4624
10.94	-9.5971	-0.1906	0.7685	-0.0185	0.0096	-0.0546	32.3239	-23.7070	3.3763	-0.5720	0.4336	-0.5206	-0.4624
10.95	-9.6066	-0.1937	0.7668	-0.0236	0.0172	-0.0577	32.1639	-23.3710	3.2577	-0.5719	0.4336	-0.5206	-0.4624
10.96	-9.6133	-0.2004	0.7582	-0.0238	0.0101	-0.0580	32.1552	-23.4424	3.2154	-0.5719	0.4337	-0.5206	-0.4624
10.97	-9.6085	-0.2043	0.7605	-0.0163	0.0078	-0.0570	32.0594	-23.2891	3.3362	-0.5719	0.4337	-0.5206	-0.4624
10.98	-9.6169	-0.2062	0.7595	-0.0119	0.0028	-0.0577	31.9280	-23.3583	3.1836	-0.5719	0.4337	-0.5206	-0.4623
10.99	-9.6187	-0.2112	0.7578	-0.0083	0.0079	-0.0617	32.0594	-23.4698	3.3082	-0.5719	0.4338	-0.5207	-0.4623
11	-9.6113	-0.2105	0.7512	-0.0094	0.0056	-0.0696	32.0529	-23.6026	3.3465	-0.5719	0.4338	-0.5206	-0.4622
11.01	-9.6137	-0.2079	0.7573	-0.0071	0.0039	-0.0660	32.0808	-23.4596	3.2995	-0.5720	0.4338	-0.5206	-0.4622
11.02	-9.6104	-0.2054	0.7589	-0.0126	0.0012	-0.0692	32.5208	-23.3908	3.3837	-0.5720	0.4339	-0.5206	-0.4621
11.03	-9.6050	-0.1989	0.7571	-0.0152	-0.0081	-0.0605	32.7221	-23.4059	3.4313	-0.5721	0.4339	-0.5206	-0.4621
11.04	-9.5907	-0.1972	0.7648	-0.0093	-0.0090	-0.0600	32.5020	-23.4714	3.4267	-0.5721	0.4338	-0.5205	-0.4621
11.05	-9.5834	-0.2004	0.7673	-0.0121	-0.0134	-0.0615	32.3917	-23.5549	3.1927	-0.5722	0.4338	-0.5205	-0.4621
11.06	-9.5854	-0.1991	0.7677	-0.0191	-0.0040	-0.0608	32.0459	-23.6502	3.1341	-0.5722	0.4339	-0.5204	-0.4621
11.07	-9.5846	-0.2003	0.7698	-0.0273	-0.0082	-0.0594	32.1907	-23.6803	3.3431	-0.5722	0.4339	-0.5203	-0.4621
11.08	-9.5734	-0.2159	0.7638	-0.0284	0.0009	-0.0551	32.2086	-23.7922	3.2687	-0.5722	0.4340	-0.5203	-0.4622
11.09	-9.5656	-0.2246	0.7676	-0.0286	0.0007	-0.0582	32.0435	-23.4515	3.2105	-0.5722	0.4340	-0.5203	-0.4622
11.1	-9.5942	-0.2127	0.7660	-0.0284	0.0050	-0.0580	32.2213	-23.6774	3.4216	-0.5722	0.4341	-0.5203	-0.4622
11.11	-9.5816	-0.2149	0.7633	-0.0288	0.0049	-0.0578	32.1632	-23.6005	3.2885	-0.5721	0.4341	-0.5202	-0.4622
11.12	-9.5608	-0.2322	0.7618	-0.0280	0.0046	-0.0568	32.1445	-23.3578	3.3013	-0.5721	0.4342	-0.5202	-0.4622
11.13	-9.5678	-0.2574	0.7581	-0.0276	0.0136	-0.0522	32.3551	-23.4810	3.2942	-0.5721	0.4342	-0.5202	-0.4622
11.14	-9.5553	-0.2583	0.7545	-0.0291	0.0113	-0.0489	32.1756	-23.5874	3.3097	-0.5719	0.4343	-0.5201	-0.4622
11.15	-9.5670	-0.2573	0.7544	-0.0283	0.0094	-0.0446	32.2069	-23.6029	3.2867	-0.5720	0.4344	-0.5202	-0.4623
11.16	-9.6129	-0.2661	0.7550	-0.0295	0.0177	-0.0473	32.0576	-23.7278	3.3408	-0.5718	0.4344	-0.5202	-0.4623
11.17	-9.6363	-0.2851	0.7534	-0.0248	0.0096	-0.0416	32.1643	-23.5660	3.4320	-0.5718	0.4344	-0.5202	-0.4624
11.18	-9.6233	-0.2923	0.7555	-0.0265	0.0100	-0.0434	31.9630	-23.3661	3.2739	-0.5716	0.4344	-0.5202	-0.4623
11.19	-9.6099	-0.2905	0.7552	-0.0187	0.0109	-0.0440	32.1022	-23.5939	3.3180	-0.5716	0.4345	-0.5203	-0.4624
11.2	-9.5765	-0.2918	0.7462	-0.0038	0.0073	-0.0391	32.1763	-23.5232	3.4437	-0.5716	0.4344	-0.5203	-0.4624
11.21	-9.5669	-0.2858	0.7414	-0.0035	0.0074	-0.0335	32.0758	-23.5678	3.2801	-0.5716	0.4343	-0.5204	-0.4624
11.22	-9.5860	-0.2718	0.7367	-0.0033	0.0078	-0.0316	32.2027	-23.6941	3.3351	-0.5715	0.4343	-0.5205	-0.4624
11.23	-9.5914	-0.2421	0.7303	0.0041	0.0101	-0.0325	32.2371	-23.7005	3.2432	-0.5715	0.4342	-0.5206	-0.4624
11.24	-9.6063	-0.2114	0.7209	0.0146	0.0121	-0.0336	32.2538	-23.5991	3.4731	-0.5715	0.4341	-0.5208	-0.4624
11.25	-9.6168	-0.1969	0.7115	0.0231	0.0143	-0.0381	32.1586	-23.6713	3.4047	-0.5715	0.4339	-0.5209	-0.4622
11.26	-9.6226	-0.1788	0.7096	0.0193	0.0159	-0.0497	32.2247	-23.7845	3.1935	-0.5716	0.4339	-0.5211	-0.4622
11.27	-9.6191	-0.1627	0.7090	0.0215	0.0166	-0.0566	32.1577	-23.4691	3.1677	-0.5716	0.4338	-0.5212	-0.4620
