time	acceleration_x	acceleration_y	acceleration_z	gyroscope_x	gyroscope_y	gyroscope_z	magnetometer_x	magnetometer_y	magnetometer_z	quaternion_w	quaternion_x	quaternion_y	quaternion_z
0	-9.4855	-0.2031	-1.7101	0.0061	-0.0033	0.0098	20.3636	-28.6900	24.1953	0.5757	-0.3514	0.6829	0.2803
0.01	-9.4926	-0.2027	-1.7115	0.0055	-0.0047	0.0073	20.3996	-28.5966	24.0424	0.5758	-0.3515	0.6829	0.2803
0.02	-9.4902	-0.1985	-1.7061	0.0055	-0.0064	0.0107	20.5340	-28.6935	24.1242	0.5758	-0.3514	0.6829	0.2803
0.03	-9.4905	-0.1913	-1.7197	0.0088	-0.0080	0.0044	20.5577	-28.4661	23.9847	0.5759	-0.3514	0.6829	0.2802
0.04	-9.4924	-0.1912	-1.7328	0.0064	-0.0102	0.0115	20.5524	-28.7179	24.0875	0.5759	-0.3514	0.6829	0.2802
0.05	-9.5013	-0.1942	-1.7390	0.0044	-0.0062	0.0101	20.5343	-28.4143	24.3341	0.5759	-0.3513	0.6829	0.2802
0.06	-9.4811	-0.1952	-1.7282	0.0035	-0.0049	0.0115	20.5701	-28.5079	24.1173	0.5759	-0.3513	0.6829	0.2803
0.07	-9.5020	-0.2049	-1.7452	0.0061	-0.0042	0.0053	20.4677	-28.7961	24.0664	0.5759	-0.3513	0.6829	0.2802
0.08	-9.5043	-0.2183	-1.7547	0.0047	-0.0058	0.0086	20.3900	-28.7351	24.1011	0.5760	-0.3513	0.6830	0.2802
0.09	-9.4610	-0.2214	-1.7177	0.0069	-0.0028	0.0136	20.3602	-28.6821	24.0679	0.5759	-0.3512	0.6829	0.2802
0.1	-9.4971	-0.2136	-1.7368	0.0062	-0.0023	0.0055	20.2784	-28.6314	24.0994	0.5760	-0.3513	0.6830	0.2802
0.11	-9.5024	-0.2097	-1.7347	0.0024	-0.0028	0.0094	20.4074	-28.5796	24.0480	0.5759	-0.3512	0.6829	0.2802
0.12	-9.4838	-0.2072	-1.7300	0.0008	-0.0130	0.0096	20.3801	-28.5100	24.2499	0.5760	-0.3512	0.6830	0.2802
0.13	-9.4921	-0.2116	-1.7455	0.0002	-0.0107	0.0114	20.3718	-28.5193	24.1780	0.5760	-0.3512	0.6829	0.2802
0.14	-9.5001	-0.2141	-1.7547	0.0051	-0.0084	0.0058	20.1742	-28.5168	24.2439	0.5760	-0.3511	0.6829	0.2802
0.15	-9.4876	-0.2099	-1.7407	0.0077	-0.0058	0.0110	20.4582	-28.6097	24.1531	0.5761	-0.3511	0.6830	0.2802
0.16	-9.4881	-0.2070	-1.7423	0.0067	-0.0058	0.0127	20.5568	-28.5970	23.9335	0.5760	-0.3511	0.6829	0.2802
0.17	-9.4907	-0.2048	-1.7392	-0.0014	-0.0072	0.0081	20.6182	-28.5888	24.0749	0.5761	-0.3511	0.6830	0.2802
0.18	-9.4931	-0.2015	-1.7371	0.0000	-0.0132	0.0153	20.5601	-28.6080	24.1816	0.5760	-0.3510	0.6829	0.2803
0.19	-9.4970	-0.1937	-1.7373	-0.0041	-0.0106	0.0084	20.4424	-28.5720	24.0431	0.5761	-0.3510	0.6829	0.2803
0.2	-9.4930	-0.1919	-1.7296	-0.0016	-0.0104	0.0099	20.4888	-28.4995	23.9745	0.5761	-0.3510	0.6829	0.2803
0.21	-9.4917	-0.1919	-1.7315	0.0039	-0.0111	0.0111	20.4683	-28.5172	23.9959	0.5761	-0.3510	0.6829	0.2803
0.22	-9.4976	-0.1899	-1.7257	0.0070	-0.0089	0.0139	20.3857	-28.5194	24.0782	0.5761	-0.3510	0.6829	0.2804
0.23	-9.4939	-0.1938	-1.7131	0.0036	-0.0123	0.0060	20.6307	-28.7468	24.1026	0.5762	-0.3509	0.6829	0.2804
0.24	-9.4901	-0.1954	-1.7137	0.0001	-0.0055	0.0063	20.6147	-28.5640	24.0548	0.5762	-0.3509	0.6829	0.2804
0.25	-9.4958	-0.1986	-1.7134	0.0051	0.0001	0.0063	20.7118	-28.3354	24.2359	0.5761	-0.3509	0.6828	0.2803
0.26	-9.4919	-0.1993	-1.7076	0.0044	-0.0045	0.0045	20.6843	-28.2413	24.5964	0.5762	-0.3509	0.6829	0.2803
0.27	-9.4908	-0.1966	-1.7183	0.0021	-0.0015	0.0078	20.5730	-28.3487	24.3872	0.5762	-0.3509	0.6829	0.2803
0.28	-9.4937	-0.1999	-1.7243	0.0052	0.0018	0.0074	20.3609	-28.3830	24.2348	0.5762	-0.3509	0.6829	0.2803
0.29	-9.4911	-0.2012	-1.7300	-0.0047	-0.0007	0.0054	20.1665	-28.3456	23.9853	0.5761	-0.3509	0.6829	0.2803
0.3	-9.4876	-0.2050	-1.7293	0.0034	-0.0052	0.0075	20.2379	-28.4083	23.9603	0.5761	-0.3509	0.6829	0.2803
0.31	-9.4896	-0.2029	-1.7331	-0.0006	-0.0015	0.0085	20.3451	-28.5367	24.2430	0.5761	-0.3509	0.6829	0.2803
0.32	-9.4969	-0.2022	-1.7442	0.0037	-0.0098	0.0056	20.3739	-28.5420	24.1155	0.5761	-0.3509	0.6828	0.2803
0.33	-9.4963	-0.2021	-1.7400	0.0071	-0.0044	0.0102	20.3569	-28.6435	24.0183	0.5762	-0.3509	0.6829	0.2803
0.34	-9.4909	-0.1967	-1.7351	0.0057	-0.0072	0.0016	20.3994	-28.8953	23.7534	0.5762	-0.3509	0.6829	0.2803
0.35	-9.4952	-0.1979	-1.7362	0.0025	-0.0055	0.0057	20.5394	-28.7950	23.9016	0.5763	-0.3509	0.6829	0.2803
0.36	-9.4957	-0.1988	-1.7389	0.0056	-0.0019	0.0077	20.5201	-28.7976	24.0878	0.5762	-0.3508	0.6828	0.2802
0.37	-9.4894	-0.2030	-1.7435	0.0030	-0.0048	0.0122	20.5386	-28.6498	23.9817	0.5762	-0.3508	0.6829	0.2803
0.38	-9.4921	-0.2077	-1.7495	0.0028	-0.0041	0.0101	20.3381	-28.8362	23.9776	0.5762	-0.3508	0.6829	0.2803
0.39	-9.4950	-0.2152	-1.7451	0.0045	-0.0020	0.0148	20.5214	-28.8328	24.1503	0.5762	-0.3508	0.6829	0.2802
0.4	-9.4962	-0.2223	-1.7532	0.0007	-0.0042	0.0106	20.5269	-28.6619	24.0209	0.5763	-0.3508	0.6830	0.2803
0.41	-9.4888	-0.2210	-1.7543	0.0018	-0.0035	0.0123	20.4186	-28.7548	24.1818	0.5762	-0.3507	0.6829	0.2803
0.42	-9.4922	-0.2212	-1.7503	0.0044	-0.0038	0.0123	20.4589	-28.6003	24.0233	0.5762	-0.3507	0.6830	0.2803
0.43	-9.4897	-0.2107	-1.7497	-0.0025	-0.0029	0.0027	20.4395	-28.3392	24.1121	0.5762	-0.3507	0.6829	0.2803
0.44	-9.4920	-0.2040	-1.7514	0.0000	-0.0029	0.0041	20.4368	-28.6185	24.2342	0.5762	-0.3508	0.6830	0.2803
0.45	-9.4957	-0.1978	-1.7483	0.0018	-0.0017	0.0094	20.3030	-28.6113	24.0151	0.5762	-0.3507	0.6830	0.2803
0.46	-9.4914	-0.1999	-1.7534	0.0020	-0.0001	0.0064	20.2759	-28.7065	24.1060	0.5762	-0.3507	0.6830	0.2803
0.47	-9.4897	-0.1990	-1.7461	0.0052	0.0017	0.0065	20.2087	-28.7194	24.2248	0.5762	-0.3507	0.6830	0.2802
0.48	-9.4909	-0.2021	-1.7434	0.0092	-0.0012	0.0044	20.5364	-28.5782	24.0744	0.5762	-0.3507	0.6830	0.2802
0.49	-9.4974	-0.2015	-1.7410	-0.0005	-0.0016	0.0033	20.3053	-28.5137	24.1944	0.5762	-0.3508	0.6830	0.2802
0.5	-9.4931	-0.2013	-1.7309	0.0015	-0.0066	0.0030	20.2581	-28.6474	24.2163	0.5761	-0.3507	0.6829	0.2802
0.51	-9.4937	-0.2022	-1.7285	0.0064	-0.0036	0.0116	20.3133	-28.7004	24.0938	0.5762	-0.3507	0.6830	0.2802
0.52	-9.4954	-0.1944	-1.7323	0.0043	-0.0059	0.0101	20.3888	-28.7653	23.9994	0.5762	-0.3507	0.6830	0.2802
0.53	-9.4951	-0.1932	-1.7241	-0.0025	-0.0092	0.0088	20.6001	-28.7768	24.1329	0.5762	-0.3507	0.6830	0.2802
0.54	-9.4897	-0.1906	-1.7256	0.0043	-0.0087	0.0133	20.6157	-28.8986	24.1299	0.5762	-0.3506	0.6830	0.2802
0.55	-9.4969	-0.1858	-1.7347	0.0010	-0.0043	0.0076	20.2668	-28.9311	24.0184	0.5762	-0.3506	0.6830	0.2802
0.56	-9.4941	-0.1839	-1.7400	0.0087	-0.0021	0.0092	20.5172	-28.7019	24.0468	0.5763	-0.3506	0.6830	0.2802
0.57	-9.4934	-0.1842	-1.7492	0.0079	-0.0034	0.0062	20.4794	-28.6259	24.0388	0.5762	-0.3506	0.6830	0.2801
0.58	-9.4975	-0.1837	-1.7528	0.0016	-0.0105	0.0082	20.2275	-28.7330	23.9251	0.5763	-0.3506	0.6831	0.2802
0.59	-9.4988	-0.1854	-1.7567	0.0007	-0.0040	0.0011	20.5040	-28.6680	23.8292	0.5763	-0.3506	0.6830	0.2802
0.6	-9.4954	-0.1899	-1.7514	0.0022	-0.0047	0.0021	20.2856	-28.6070	23.9231	0.5763	-0.3506	0.6830	0.2802
0.61	-9.4926	-0.1912	-1.7487	0.0032	-0.0050	0.0048	20.3848	-28.6491	24.0547	0.5763	-0.3506	0.6829	0.2801
0.62	-9.4924	-0.1912	-1.7472	-0.0030	0.0004	0.0005	20.4281	-28.4834	23.8926	0.5763	-0.3506	0.6830	0.2801
0.63	-9.4924	-0.1978	-1.7421	-0.0042	-0.0067	0.0053	20.2090	-28.3131	24.0153	0.5763	-0.3507	0.6830	0.2801
0.64	-9.4935	-0.1990	-1.7426	-0.0073	-0.0044	0.0022	20.1204	-28.5604	23.9984	0.5763	-0.3507	0.6829	0.2801
0.65	-9.4981	-0.2001	-1.7421	-0.0064	-0.0008	0.0036	20.2268	-28.6303	24.2660	0.5763	-0.3508	0.6830	0.2802
0.66	-9.4934	-0.2058	-1.7442	0.0014	-0.0047	0.0098	20.4025	-28.3960	24.2529	0.5763	-0.3507	0.6829	0.2802
0.67	-9.4919	-0.2104	-1.7459	0.0003	-0.0021	0.0051	20.3400	-28.5551	24.2032	0.5763	-0.3507	0.6830	0.2802
0.68	-9.4884	-0.2203	-1.7348	-0.0046	-0.0043	0.0063	20.3815	-28.5316	24.1073	0.5762	-0.3507	0.6829	0.2801
0.69	-9.4929	-0.2280	-1.7390	-0.0009	-0.0051	0.0024	20.2416	-28.6687	24.2565	0.5763	-0.3508	0.6829	0.2802
0.7	-9.4928	-0.2264	-1.7273	0.0046	-0.0098	0.0009	20.3484	-28.7445	24.1017	0.5763	-0.3508	0.6829	0.2801
0.71	-9.4930	-0.2225	-1.7178	0.0060	-0.0036	0.0018	20.6415	-28.8923	24.0163	0.5763	-0.3508	0.6829	0.2801
0.72	-9.4912	-0.2202	-1.7129	0.0043	-0.0018	0.0069	20.4936	-28.7595	24.0584	0.5763	-0.3508	0.6829	0.2801
0.73	-9.4898	-0.2149	-1.7043	0.0040	-0.0050	0.0111	20.4626	-28.7110	23.8958	0.5763	-0.3507	0.6829	0.2801
0.74	-9.4894	-0.2119	-1.6945	0.0032	-0.0075	0.0003	20.5884	-28.6519	24.0566	0.5764	-0.3508	0.6829	0.2801
0.75	-9.4870	-0.2063	-1.6809	0.0052	-0.0037	0.0017	20.6932	-28.5982	24.3288	0.5763	-0.3507	0.6828	0.2800
0.76	-9.4894	-0.2035	-1.6779	0.0058	-0.0077	0.0125	20.6541	-28.7366	24.3838	0.5764	-0.3507	0.6829	0.2801
0.77	-9.4882	-0.2082	-1.6818	0.0070	-0.0066	0.0070	20.5948	-28.5113	24.1042	0.5764	-0.3507	0.6829	0.2800
0.78	-9.4858	-0.2135	-1.6878	0.0059	-0.0041	0.0052	20.4976	-28.4989	23.9933	0.5764	-0.3507	0.6829	0.2800
0.79	-9.4914	-0.2150	-1.6960	0.0063	-0.0042	0.0113	20.4525	-28.5738	23.8766	0.5764	-0.3507	0.6829	0.2800
0.8	-9.4910	-0.2190	-1.7022	0.0023	-0.0026	0.0096	20.5468	-28.7656	24.1904	0.5764	-0.3506	0.6829	0.2800
0.81	-9.4932	-0.2174	-1.7087	0.0044	-0.0022	0.0003	20.5582	-28.5384	24.0775	0.5764	-0.3507	0.6829	0.2800
0.82	-9.4913	-0.2150	-1.7146	0.0082	-0.0039	0.0036	20.3678	-28.5990	24.1535	0.5764	-0.3506	0.6829	0.2799
0.83	-9.4898	-0.2146	-1.7217	0.0043	-0.0003	0.0072	20.3831	-28.6061	24.1569	0.5765	-0.3507	0.6830	0.2799
0.84	-9.4924	-0.2159	-1.7304	0.0037	-0.0026	0.0089	20.4670	-28.6479	23.8970	0.5764	-0.3506	0.6829	0.2799
0.85	-9.4936	-0.2233	-1.7439	0.0034	-0.0032	0.0126	20.2705	-28.7034	24.1513	0.5765	-0.3506	0.6830	0.2800
0.86	-9.4902	-0.2257	-1.7565	-0.0039	-0.0034	0.0047	20.3007	-28.7795	24.2599	0.5764	-0.3506	0.6829	0.2799
0.87	-9.4940	-0.2229	-1.7606	-0.0007	-0.0022	0.0082	20.3870	-28.7629	24.0201	0.5764	-0.3506	0.6830	0.2799
0.88	-9.4943	-0.2168	-1.7638	0.0100	-0.0089	0.0141	20.2000	-28.6431	24.1393	0.5764	-0.3506	0.6830	0.2799
0.89	-9.4937	-0.2069	-1.7668	0.0006	-0.0105	0.0140	20.2687	-28.5222	24.1686	0.5764	-0.3505	0.6829	0.2800
0.9	-9.4952	-0.1921	-1.7689	-0.0008	-0.0053	0.0120	20.4859	-28.5370	24.1448	0.5765	-0.3505	0.6830	0.2800
0.91	-9.4910	-0.1832	-1.7707	0.0027	-0.0096	0.0070	20.4309	-28.7739	24.1952	0.5765	-0.3505	0.6829	0.2800
0.92	-9.4967	-0.1753	-1.7744	-0.0040	-0.0070	0.0089	20.5005	-28.9799	24.0954	0.5765	-0.3505	0.6830	0.2800
0.93	-9.4937	-0.1770	-1.7769	0.0027	-0.0082	0.0084	20.6516	-28.7416	24.0827	0.5764	-0.3505	0.6829	0.2800
0.94	-9.4972	-0.1858	-1.7658	0.0063	-0.0114	0.0090	20.3574	-28.7099	24.1668	0.5765	-0.3505	0.6829	0.2800
0.95	-9.4976	-0.1930	-1.7545	-0.0005	-0.0121	0.0120	20.1515	-28.7774	23.8559	0.5765	-0.3504	0.6829	0.2801
0.96	-9.4936	-0.1984	-1.7462	0.0031	-0.0062	0.0096	20.3213	-28.5884	23.9930	0.5765	-0.3504	0.6829	0.2801
0.97	-9.4877	-0.1966	-1.7332	0.0034	-0.0060	0.0130	20.2692	-28.6230	23.9682	0.5766	-0.3504	0.6829	0.2801
0.98	-9.4930	-0.1942	-1.7315	0.0003	-0.0117	0.0156	20.3418	-28.6083	24.1533	0.5766	-0.3503	0.6829	0.2801
0.99	-9.4946	-0.1853	-1.7167	-0.0011	-0.0128	0.0122	20.5494	-28.6063	24.3167	0.5766	-0.3503	0.6829	0.2802
1	-9.4893	-0.1825	-1.7113	0.0053	0.0003	0.0099	20.4661	-28.6143	24.0567	0.5765	-0.3503	0.6828	0.2801
1.01	-9.4936	-0.1834	-1.7082	0.0036	-0.0063	0.0084	20.2330	-28.5970	23.9697	0.5766	-0.3503	0.6829	0.2802
1.02	-9.4957	-0.1861	-1.7161	0.0024	-0.0045	0.0043	20.3957	-28.7983	23.9982	0.5766	-0.3503	0.6829	0.2801
1.03	-9.4939	-0.1903	-1.7126	0.0043	-0.0049	0.0085	20.4936	-28.6675	23.9835	0.5766	-0.3503	0.6829	0.2801
1.04	-9.4892	-0.1955	-1.7096	0.0086	-0.0010	0.0121	20.3500	-28.8245	24.0038	0.5766	-0.3502	0.6829	0.2801
1.05	-9.4909	-0.1987	-1.7124	0.0031	-0.0073	0.0054	20.5090	-28.6716	23.8429	0.5766	-0.3502	0.6829	0.2801
1.06	-9.4914	-0.2010	-1.7052	0.0023	-0.0043	0.0118	20.3837	-28.4838	24.0224	0.5766	-0.3502	0.6829	0.2801
1.07	-9.4893	-0.1980	-1.7115	0.0065	-0.0099	0.0128	20.3672	-28.5256	24.1043	0.5766	-0.3501	0.6829	0.2801
1.08	-9.4910	-0.1968	-1.7180	-0.0002	-0.0084	0.0098	20.3779	-28.6572	23.9442	0.5767	-0.3502	0.6830	0.2802
1.09	-9.4936	-0.1963	-1.7322	0.0055	-0.0016	0.0091	20.3870	-28.7838	24.0355	0.5766	-0.3501	0.6829	0.2801
1.1	-9.4899	-0.2044	-1.7416	0.0023	-0.0032	0.0081	20.5671	-28.6279	23.8889	0.5767	-0.3501	0.6830	0.2802
1.11	-9.4909	-0.2183	-1.7492	-0.0006	-0.0024	0.0060	20.4282	-28.8852	24.0033	0.5766	-0.3501	0.6829	0.2801
1.12	-9.5011	-0.2331	-1.7621	0.0057	-0.0066	0.0085	20.5967	-28.8490	24.2144	0.5767	-0.3501	0.6830	0.2801
1.13	-9.4904	-0.2351	-1.7638	0.0050	-0.0029	0.0126	20.4005	-28.6570	24.1398	0.5767	-0.3501	0.6830	0.2801
1.14	-9.4897	-0.2379	-1.7626	-0.0046	-0.0131	0.0111	20.4180	-28.5762	24.1816	0.5766	-0.3500	0.6829	0.2802
1.15	-9.4942	-0.2350	-1.7631	0.0037	-0.0053	0.0133	20.5619	-28.7231	24.0550	0.5767	-0.3501	0.6830	0.2802
1.16	-9.4972	-0.2284	-1.7664	0.0030	-0.0045	0.0156	20.5327	-28.5366	23.9588	0.5767	-0.3500	0.6830	0.2802
1.17	-9.4914	-0.2189	-1.7539	0.0031	-0.0100	0.0164	20.4998	-28.7263	24.0520	0.5767	-0.3500	0.6830	0.2803
1.18	-9.4888	-0.2117	-1.7471	0.0059	-0.0044	0.0125	20.3428	-28.5696	24.1651	0.5766	-0.3499	0.6829	0.2802
1.19	-9.4909	-0.2136	-1.7359	0.0060	0.0008	0.0098	20.3887	-28.6799	24.2734	0.5767	-0.3499	0.6830	0.2802
1.2	-9.4933	-0.2142	-1.7195	0.0010	-0.0067	0.0089	20.3468	-28.7634	24.0534	0.5767	-0.3499	0.6830	0.2802
1.21	-9.4843	-0.2154	-1.6998	0.0066	-0.0042	0.0086	20.4541	-28.6598	24.1760	0.5767	-0.3498	0.6830	0.2802
1.22	-9.4872	-0.2125	-1.6924	0.0018	-0.0063	0.0128	20.4487	-28.7037	24.0522	0.5767	-0.3498	0.6830	0.2802
1.23	-9.4937	-0.2082	-1.6869	0.0052	-0.0056	0.0090	20.3574	-28.6989	23.9898	0.5767	-0.3498	0.6830	0.2802
1.24	-9.4879	-0.1930	-1.6781	0.0043	-0.0038	0.0125	20.5833	-28.6376	24.1572	0.5767	-0.3498	0.6831	0.2803
1.25	-9.4893	-0.1902	-1.6755	0.0047	-0.0011	0.0135	20.7002	-28.5822	24.2466	0.5766	-0.3497	0.6830	0.2802
1.26	-9.4935	-0.1879	-1.6807	0.0054	-0.0069	0.0069	20.6770	-28.6190	24.3656	0.5767	-0.3498	0.6831	0.2803
1.27	-9.4947	-0.1844	-1.6948	0.0035	-0.0049	0.0102	20.5577	-28.5871	24.2556	0.5767	-0.3497	0.6831	0.2803
1.28	-9.4910	-0.1884	-1.6942	0.0054	-0.0103	0.0093	20.5667	-28.7370	24.1385	0.5767	-0.3497	0.6831	0.2803
1.29	-9.4861	-0.1919	-1.7061	0.0051	-0.0044	0.0043	20.4228	-28.7283	24.0201	0.5767	-0.3497	0.6830	0.2802
1.3	-9.4915	-0.1944	-1.7199	0.0037	-0.0010	0.0043	20.3554	-28.8128	24.1890	0.5767	-0.3497	0.6831	0.2802
1.31	-9.4882	-0.1944	-1.7362	0.0051	-0.0050	0.0014	20.3720	-28.6817	24.1904	0.5768	-0.3497	0.6831	0.2802
1.32	-9.4925	-0.1943	-1.7520	0.0038	-0.0024	0.0018	20.3575	-28.7805	23.9404	0.5767	-0.3497	0.6830	0.2802
1.33	-9.4990	-0.1970	-1.7727	0.0039	-0.0021	0.0075	20.4812	-28.6462	23.8415	0.5768	-0.3497	0.6831	0.2802
1.34	-9.4919	-0.1929	-1.7902	-0.0001	-0.0034	0.0032	20.4276	-28.6264	23.8861	0.5767	-0.3497	0.6831	0.2801
1.35	-9.4977	-0.1931	-1.7980	0.0017	-0.0052	0.0030	20.4963	-28.7132	24.0436	0.5768	-0.3497	0.6831	0.2802
1.36	-9.5025	-0.1973	-1.8133	0.0047	-0.0029	0.0033	20.2403	-28.6789	24.0196	0.5767	-0.3497	0.6830	0.2801
1.37	-9.4954	-0.1978	-1.8145	-0.0021	-0.0045	0.0051	20.3525	-28.6838	24.1691	0.5768	-0.3497	0.6830	0.2801
1.38	-9.4925	-0.2056	-1.8094	-0.0045	-0.0003	0.0041	20.4513	-28.3760	24.0172	0.5768	-0.3498	0.6830	0.2801
1.39	-9.4960	-0.2135	-1.8129	-0.0021	-0.0024	-0.0011	20.2562	-28.6222	23.8088	0.5767	-0.3498	0.6830	0.2801
1.4	-9.5010	-0.2138	-1.8067	0.0008	-0.0045	0.0050	20.3985	-28.5875	24.0804	0.5768	-0.3498	0.6831	0.2801
1.41	-9.4899	-0.2116	-1.7888	-0.0035	-0.0053	0.0063	20.3319	-28.5154	24.4040	0.5768	-0.3498	0.6830	0.2801
1.42	-9.4909	-0.2031	-1.7744	0.0031	-0.0008	-0.0003	20.2011	-28.2839	24.0543	0.5768	-0.3499	0.6830	0.2801
1.43	-9.4991	-0.1982	-1.7587	0.0056	-0.0024	0.0050	20.2274	-28.3508	23.9281	0.5767	-0.3498	0.6830	0.2801
1.44	-9.4944	-0.1839	-1.7398	0.0059	-0.0055	0.0038	20.0689	-28.6711	23.9111	0.5768	-0.3498	0.6830	0.2801
1.45	-9.4913	-0.1716	-1.7303	0.0021	-0.0101	0.0091	20.2576	-28.4305	24.2115	0.5768	-0.3498	0.6830	0.2801
1.46	-9.4920	-0.1674	-1.7214	-0.0031	-0.0033	0.0115	20.4802	-28.7462	24.2859	0.5768	-0.3498	0.6830	0.2801
1.47	-9.4967	-0.1689	-1.7230	-0.0012	-0.0082	0.0081	20.3481	-28.9792	23.9816	0.5768	-0.3498	0.6830	0.2801
1.48	-9.4889	-0.1743	-1.7102	0.0014	-0.0099	0.0069	20.5010	-28.7603	23.9497	0.5768	-0.3498	0.6830	0.2801
1.49	-9.4907	-0.1859	-1.7039	-0.0014	-0.0097	0.0133	20.5722	-28.8370	23.9676	0.5768	-0.3498	0.6830	0.2802
1.5	-9.4920	-0.1939	-1.6861	-0.0005	-0.0027	0.0068	20.3625	-28.7869	23.8616	0.5768	-0.3497	0.6829	0.2801
1.51	-9.4777	-0.2105	-1.6613	0.0053	-0.0031	0.0082	20.2900	-28.6559	23.8527	0.5768	-0.3498	0.6830	0.2802
1.52	-9.4817	-0.2192	-1.6465	0.0092	-0.0021	0.0009	20.4021	-28.5720	24.1763	0.5768	-0.3498	0.6830	0.2801
1.53	-9.4819	-0.2219	-1.6367	0.0036	-0.0040	0.0035	20.3351	-28.6979	23.9418	0.5769	-0.3498	0.6830	0.2801
1.54	-9.4826	-0.2238	-1.6460	0.0041	-0.0107	0.0057	20.4883	-28.5895	24.0428	0.5769	-0.3497	0.6830	0.2801
1.55	-9.4841	-0.2154	-1.6614	0.0046	-0.0021	0.0094	20.2789	-28.6258	24.1331	0.5769	-0.3497	0.6830	0.2801
1.56	-9.5086	-0.2049	-1.7066	0.0009	-0.0010	0.0001	20.3584	-28.5500	24.1266	0.5769	-0.3498	0.6830	0.2801
1.57	-9.4877	-0.2028	-1.7064	0.0044	0.0010	0.0041	20.2903	-28.5094	24.0257	0.5768	-0.3497	0.6829	0.2800
1.58	-9.4894	-0.1954	-1.7290	0.0024	0.0014	0.0074	20.3011	-28.5302	24.0351	0.5769	-0.3498	0.6831	0.2800
1.59	-9.4950	-0.1870	-1.7597	-0.0003	-0.0043	0.0021	20.0946	-28.6789	24.1485	0.5768	-0.3498	0.6830	0.2800
1.6	-9.4981	-0.1766	-1.7913	0.0011	-0.0008	0.0099	20.0719	-28.6628	24.0854	0.5769	-0.3498	0.6831	0.2800
1.61	-9.4869	-0.1740	-1.8097	-0.0021	-0.0001	0.0097	20.2334	-28.4817	24.2188	0.5768	-0.3498	0.6830	0.2800
1.62	-9.4852	-0.1914	-1.8124	-0.0194	-0.0038	0.0066	20.1866	-28.6854	24.1896	0.5768	-0.3498	0.6830	0.2801
1.63	-9.4964	-0.2179	-1.8266	-0.0115	-0.0011	0.0018	20.2093	-28.4865	24.2233	0.5768	-0.3499	0.6830	0.2801
1.64	-9.5033	-0.2323	-1.8363	-0.0146	-0.0078	0.0061	20.2398	-28.7078	24.1168	0.5767	-0.3499	0.6829	0.2801
1.65	-9.4929	-0.2313	-1.8248	-0.0069	-0.0085	0.0117	20.5147	-28.6463	24.1257	0.5768	-0.3500	0.6830	0.2802
1.66	-9.4998	-0.2202	-1.8196	-0.0018	-0.0003	0.0071	20.6152	-28.5246	24.2513	0.5767	-0.3500	0.6829	0.2802
1.67	-9.5021	-0.2091	-1.8221	-0.0022	-0.0043	0.0068	20.6137	-28.6139	24.1425	0.5767	-0.3500	0.6830	0.2802
1.68	-9.4871	-0.1881	-1.8049	-0.0044	-0.0115	0.0018	20.5878	-28.6785	24.0347	0.5767	-0.3500	0.6829	0.2802
1.69	-9.5078	-0.1730	-1.8062	-0.0035	-0.0098	0.0040	20.5582	-28.8705	24.0343	0.5768	-0.3500	0.6829	0.2803
1.7	-9.5016	-0.1657	-1.8003	0.0014	-0.0063	0.0095	20.7273	-28.7230	24.0653	0.5767	-0.3500	0.6829	0.2803
1.71	-9.4957	-0.1636	-1.7808	-0.0037	-0.0072	0.0028	20.4194	-28.7846	23.9529	0.5767	-0.3500	0.6828	0.2803
1.72	-9.4838	-0.1578	-1.7545	-0.0089	-0.0080	0.0036	20.4779	-28.7648	23.9473	0.5768	-0.3501	0.6828	0.2803
1.73	-9.5133	-0.1579	-1.7784	-0.0074	-0.0111	0.0055	20.2885	-28.8767	24.2114	0.5768	-0.3501	0.6828	0.2803
1.74	-9.4956	-0.1799	-1.7507	-0.0182	-0.0099	0.0028	20.5371	-28.4417	24.1985	0.5768	-0.3502	0.6828	0.2804
1.75	-9.4677	-0.1912	-1.7146	-0.0070	-0.0084	0.0070	20.7247	-28.4302	24.2170	0.5767	-0.3501	0.6826	0.2804
1.76	-9.5004	-0.2008	-1.7169	-0.0030	-0.0063	0.0029	20.4573	-28.5281	24.1889	0.5768	-0.3502	0.6827	0.2805
1.77	-9.4988	-0.2023	-1.7019	-0.0103	-0.0062	0.0084	20.5225	-28.6610	24.1055	0.5767	-0.3502	0.6827	0.2805
1.78	-9.4872	-0.1940	-1.6871	-0.0091	-0.0105	0.0112	20.3834	-28.4790	24.1773	0.5768	-0.3502	0.6827	0.2806
1.79	-9.4887	-0.1902	-1.6845	-0.0130	-0.0128	0.0088	20.2582	-28.5259	23.9195	0.5767	-0.3502	0.6826	0.2806
1.8	-9.5005	-0.1932	-1.7000	-0.0111	-0.0118	0.0062	20.4535	-28.6028	24.0717	0.5767	-0.3503	0.6826	0.2807
1.81	-9.4868	-0.2027	-1.6901	-0.0070	-0.0110	0.0089	20.4066	-28.7264	24.1715	0.5768	-0.3503	0.6825	0.2807
1.82	-9.4839	-0.2040	-1.6950	-0.0027	-0.0149	0.0104	20.3357	-28.7525	24.1852	0.5767	-0.3502	0.6825	0.2808
1.83	-9.4929	-0.2076	-1.7048	0.0000	-0.0160	0.0115	20.5949	-28.3603	23.9877	0.5768	-0.3503	0.6825	0.2808
1.84	-9.4884	-0.2200	-1.7031	-0.0010	-0.0153	0.0070	20.6068	-28.8030	23.9503	0.5768	-0.3502	0.6824	0.2808
1.85	-9.4873	-0.2262	-1.7125	-0.0111	-0.0084	0.0073	20.4367	-28.8901	24.1453	0.5769	-0.3503	0.6825	0.2809
1.86	-9.4939	-0.2374	-1.7297	-0.0058	-0.0103	0.0100	20.5482	-28.7644	23.9581	0.5768	-0.3502	0.6824	0.2809
1.87	-9.4944	-0.2405	-1.7368	-0.0024	-0.0111	0.0124	20.5311	-28.6564	23.9844	0.5769	-0.3502	0.6824	0.2810
1.88	-9.4815	-0.2505	-1.7274	-0.0056	-0.0142	0.0147	20.5542	-28.4224	23.8392	0.5769	-0.3502	0.6824	0.2810
1.89	-9.4966	-0.2446	-1.7478	-0.0065	-0.0128	0.0109	20.4720	-28.8073	24.0018	0.5768	-0.3502	0.6823	0.2811
1.9	-9.4885	-0.2506	-1.7403	-0.0016	-0.0062	0.0119	20.3546	-28.7396	23.9778	0.5769	-0.3502	0.6824	0.2811
1.91	-9.4863	-0.2337	-1.7310	0.0013	-0.0105	0.0133	20.3976	-28.6153	23.9938	0.5769	-0.3502	0.6823	0.2811
1.92	-9.4860	-0.2215	-1.7224	-0.0001	-0.0083	0.0123	20.3415	-28.9382	24.1877	0.5769	-0.3502	0.6824	0.2812
1.93	-9.4891	-0.2143	-1.7231	-0.0000	-0.0022	0.0104	20.4851	-28.6460	24.0581	0.5768	-0.3501	0.6823	0.2812
1.94	-9.4959	-0.1884	-1.7270	0.0032	-0.0061	0.0108	20.4111	-28.8409	23.9816	0.5769	-0.3501	0.6823	0.2812
1.95	-9.4851	-0.1743	-1.7167	0.0023	-0.0032	0.0056	20.4106	-28.8350	24.1471	0.5769	-0.3501	0.6823	0.2812
1.96	-9.4956	-0.1642	-1.7358	-0.0017	-0.0108	0.0067	20.4643	-28.6906	24.1845	0.5769	-0.3501	0.6823	0.2812
1.97	-9.4890	-0.1629	-1.7187	0.0040	-0.0081	0.0105	20.4622	-28.6012	24.0320	0.5769	-0.3501	0.6823	0.2812
1.98	-9.4939	-0.1649	-1.7264	-0.0038	-0.0014	0.0106	20.4200	-28.8714	24.1320	0.5769	-0.3501	0.6823	0.2812
1.99	-9.4961	-0.1663	-1.7398	-0.0039	-0.0068	0.0061	20.3761	-28.8027	23.9208	0.5769	-0.3501	0.6823	0.2813
2	-9.4885	-0.1749	-1.7381	0.0024	-0.0152	0.0087	20.3014	-28.7641	23.9632	0.5769	-0.3501	0.6822	0.2812
2.01	-9.4988	-0.1866	-1.7565	0.0034	-0.0100	0.0207	20.2969	-28.7907	24.0951	0.5769	-0.3500	0.6823	0.2813
2.02	-9.4926	-0.1849	-1.7638	-0.0018	-0.0060	0.0111	20.5715	-28.7669	23.9280	0.5769	-0.3500	0.6823	0.2813
2.03	-9.4979	-0.1859	-1.7784	-0.0041	-0.0070	0.0096	20.4607	-28.7834	24.0820	0.5769	-0.3500	0.6823	0.2814
2.04	-9.4931	-0.1892	-1.7764	-0.0002	-0.0136	0.0096	20.3752	-28.7705	24.1539	0.5769	-0.3500	0.6822	0.2814
2.05	-9.4889	-0.2000	-1.7730	-0.0016	-0.0079	0.0121	20.3534	-28.7924	24.0581	0.5769	-0.3500	0.6822	0.2814
2.06	-9.4993	-0.2071	-1.7757	-0.0015	-0.0092	0.0106	20.4410	-28.7369	24.0745	0.5769	-0.3500	0.6823	0.2815
2.07	-9.4876	-0.2158	-1.7601	0.0069	-0.0088	0.0125	20.4487	-28.5966	24.0736	0.5769	-0.3499	0.6822	0.2814
2.08	-9.4976	-0.2215	-1.7695	0.0012	-0.0049	0.0086	20.4799	-28.6200	24.0567	0.5770	-0.3499	0.6823	0.2815
2.09	-9.4878	-0.2125	-1.7491	0.0023	-0.0114	0.0106	20.3895	-28.7406	24.1043	0.5770	-0.3499	0.6822	0.2815
2.1	-9.5168	-0.2057	-1.7692	0.0040	-0.0111	0.0102	20.4402	-28.6076	23.9720	0.5770	-0.3499	0.6823	0.2815
2.11	-9.4853	-0.2112	-1.7532	-0.0057	-0.0109	0.0114	20.4489	-28.6270	24.0815	0.5770	-0.3498	0.6822	0.2815
2.12	-9.4580	-0.2041	-1.7067	-0.0061	-0.0175	0.0042	20.4822	-28.5734	24.2731	0.5770	-0.3499	0.6822	0.2816
2.13	-9.5312	-0.2024	-1.7665	-0.0039	-0.0102	0.0070	20.3453	-28.7348	24.0689	0.5771	-0.3499	0.6821	0.2816
2.14	-9.4852	-0.2068	-1.7277	-0.0024	-0.0150	0.0086	20.2832	-29.0822	24.0710	0.5770	-0.3498	0.6821	0.2816
2.15	-9.4660	-0.2151	-1.7219	-0.0063	-0.0194	0.0085	20.2798	-28.8135	24.0939	0.5772	-0.3499	0.6821	0.2817
2.16	-9.4953	-0.2307	-1.7397	-0.0054	-0.0085	0.0086	20.3640	-28.7712	24.0284	0.5771	-0.3499	0.6820	0.2817
2.17	-9.4996	-0.2367	-1.7404	-0.0035	-0.0133	0.0132	20.4900	-28.7914	24.1989	0.5772	-0.3499	0.6820	0.2818
2.18	-9.4720	-0.2324	-1.7121	-0.0041	-0.0155	0.0108	20.4434	-28.6905	23.9392	0.5771	-0.3498	0.6819	0.2818
2.19	-9.4909	-0.2342	-1.7180	-0.0017	-0.0076	0.0128	20.4471	-28.6892	24.1730	0.5772	-0.3498	0.6820	0.2819
2.2	-9.4956	-0.2270	-1.7129	0.0001	-0.0090	0.0160	20.1840	-28.7241	24.1764	0.5771	-0.3498	0.6820	0.2819
2.21	-9.4824	-0.2221	-1.6920	0.0017	-0.0087	0.0135	20.5503	-28.8861	24.0249	0.5771	-0.3497	0.6820	0.2819
2.22	-9.4855	-0.2146	-1.6934	0.0041	-0.0028	0.0109	20.5280	-28.7387	24.1099	0.5772	-0.3497	0.6820	0.2819
2.23	-9.4822	-0.2071	-1.7026	0.0052	-0.0048	0.0073	20.3189	-28.8351	23.9174	0.5771	-0.3497	0.6820	0.2819
2.24	-9.4988	-0.1969	-1.7180	0.0032	-0.0013	0.0097	20.4685	-28.8279	24.1072	0.5772	-0.3497	0.6820	0.2819
2.25	-9.4870	-0.1829	-1.7245	0.0038	-0.0072	0.0156	20.7790	-28.6634	24.3566	0.5771	-0.3496	0.6820	0.2819
2.26	-9.4917	-0.1785	-1.7357	-0.0038	-0.0081	0.0112	20.8685	-28.7926	24.3399	0.5772	-0.3497	0.6820	0.2820
2.27	-9.4993	-0.1840	-1.7496	-0.0041	-0.0023	0.0053	20.6288	-28.7041	24.2708	0.5771	-0.3497	0.6820	0.2820
2.28	-9.4885	-0.1882	-1.7501	-0.0066	-0.0085	0.0129	20.4070	-28.6459	24.0709	0.5771	-0.3497	0.6820	0.2820
2.29	-9.4842	-0.1948	-1.7478	-0.0057	-0.0073	0.0133	20.3648	-28.6659	24.1546	0.5771	-0.3497	0.6820	0.2821
2.3	-9.4909	-0.1944	-1.7469	-0.0061	-0.0049	0.0022	20.2802	-28.5780	24.0547	0.5771	-0.3497	0.6820	0.2821
2.31	-9.4956	-0.1976	-1.7503	-0.0131	-0.0032	0.0018	20.3293	-28.6756	24.0689	0.5771	-0.3498	0.6820	0.2821
2.32	-9.4886	-0.1954	-1.7455	-0.0016	-0.0033	0.0030	20.1972	-28.6902	24.1431	0.5770	-0.3498	0.6819	0.2821
2.33	-9.4890	-0.1884	-1.7364	-0.0066	-0.0023	0.0066	20.3403	-28.7064	23.9929	0.5771	-0.3498	0.6820	0.2822
2.34	-9.4956	-0.1770	-1.7388	-0.0045	-0.0051	0.0050	20.3764	-28.6429	24.2117	0.5770	-0.3498	0.6819	0.2822
2.35	-9.4937	-0.1755	-1.7305	0.0071	-0.0031	0.0092	20.4265	-28.5978	24.1459	0.5771	-0.3499	0.6820	0.2822
2.36	-9.4939	-0.1742	-1.7320	-0.0087	0.0009	0.0052	20.5641	-28.6025	24.0110	0.5770	-0.3498	0.6819	0.2822
2.37	-9.4780	-0.1778	-1.7302	-0.0073	-0.0005	0.0037	20.4199	-28.3978	24.0344	0.5770	-0.3499	0.6819	0.2822
2.38	-9.5170	-0.1821	-1.7582	0.0010	-0.0064	0.0067	20.3291	-28.6503	24.1932	0.5770	-0.3499	0.6819	0.2822
2.39	-9.4847	-0.1856	-1.7318	-0.0044	-0.0078	0.0167	20.2553	-28.7846	24.2042	0.5769	-0.3499	0.6819	0.2822
2.4	-9.4842	-0.1892	-1.7356	-0.0128	-0.0074	0.0059	20.5190	-28.7572	24.2144	0.5770	-0.3500	0.6819	0.2823
2.41	-9.5102	-0.2012	-1.7564	-0.0076	-0.0038	0.0002	20.5058	-28.7966	24.3318	0.5769	-0.3500	0.6819	0.2823
2.42	-9.4859	-0.2052	-1.7443	-0.0077	-0.0022	0.0009	20.4327	-28.6862	24.0090	0.5770	-0.3500	0.6819	0.2823
2.43	-9.4849	-0.2144	-1.7361	-0.0089	-0.0017	0.0085	20.5506	-28.7695	24.1999	0.5769	-0.3500	0.6818	0.2823
2.44	-9.5040	-0.2153	-1.7444	-0.0028	-0.0021	0.0029	20.4279	-28.7594	24.4527	0.5769	-0.3501	0.6819	0.2824
2.45	-9.4876	-0.2264	-1.7375	-0.0075	-0.0079	0.0049	20.4662	-28.6492	24.2691	0.5769	-0.3501	0.6818	0.2824
2.46	-9.4872	-0.2328	-1.7377	-0.0049	-0.0066	0.0107	20.4601	-28.7647	23.8142	0.5769	-0.3501	0.6818	0.2824
2.47	-9.4985	-0.2227	-1.7450	0.0020	-0.0029	0.0082	20.4705	-28.7851	24.0752	0.5769	-0.3501	0.6818	0.2824
2.48	-9.4926	-0.2002	-1.7410	0.0019	-0.0088	0.0026	20.4448	-28.7295	24.1203	0.5769	-0.3501	0.6818	0.2824
2.49	-9.4890	-0.1819	-1.7495	-0.0002	-0.0022	0.0056	20.2906	-28.4866	24.1551	0.5769	-0.3501	0.6818	0.2824
2.5	-9.4938	-0.1724	-1.7444	-0.0055	-0.0034	0.0059	20.3697	-28.6331	24.2421	0.5768	-0.3501	0.6817	0.2824
2.51	-9.4956	-0.1749	-1.7443	-0.0152	-0.0026	0.0082	20.2959	-28.4753	24.0405	0.5769	-0.3502	0.6818	0.2825
2.52	-9.4914	-0.1844	-1.7472	-0.0069	-0.0003	0.0018	20.2886	-28.6182	24.2201	0.5768	-0.3502	0.6818	0.2825
2.53	-9.4917	-0.1953	-1.7462	-0.0064	-0.0034	0.0081	20.3169	-28.7455	24.0626	0.5768	-0.3503	0.6818	0.2825
2.54	-9.4921	-0.2104	-1.7413	-0.0172	-0.0026	0.0085	20.2724	-28.4837	23.9136	0.5768	-0.3503	0.6817	0.2826
2.55	-9.4896	-0.2170	-1.7402	-0.0110	-0.0006	0.0019	20.4715	-28.5524	24.1791	0.5767	-0.3504	0.6817	0.2826
2.56	-9.4826	-0.2215	-1.7338	-0.0086	-0.0058	0.0071	20.3427	-28.6631	24.0503	0.5767	-0.3504	0.6817	0.2826
2.57	-9.4869	-0.2266	-1.7315	-0.0002	-0.0066	0.0085	20.3477	-28.7723	23.9429	0.5767	-0.3504	0.6817	0.2826
2.58	-9.4936	-0.2245	-1.7350	-0.0009	-0.0069	0.0044	20.5022	-28.7721	23.8486	0.5768	-0.3504	0.6817	0.2827
2.59	-9.4869	-0.2175	-1.7348	-0.0037	-0.0034	0.0035	20.4519	-28.7639	24.1507	0.5767	-0.3504	0.6817	0.2826
2.6	-9.4766	-0.2213	-1.7197	-0.0050	-0.0037	0.0062	20.6608	-28.7753	24.0469	0.5768	-0.3505	0.6817	0.2827
2.61	-9.5056	-0.2392	-1.7523	-0.0039	0.0001	0.0055	20.5227	-28.7559	24.0286	0.5767	-0.3505	0.6816	0.2827
2.62	-9.5117	-0.2084	-1.7599	0.0038	-0.0063	0.0062	20.2415	-28.6879	24.0285	0.5767	-0.3505	0.6817	0.2827
2.63	-9.4586	-0.1938	-1.7132	-0.0029	-0.0048	0.0087	20.3609	-28.8292	24.0329	0.5767	-0.3505	0.6817	0.2827
2.64	-9.5115	-0.1993	-1.7552	-0.0021	-0.0082	0.0081	20.4551	-28.6490	24.0270	0.5767	-0.3505	0.6816	0.2827
2.65	-9.5063	-0.1976	-1.7510	-0.0099	-0.0113	0.0020	20.4745	-28.8210	24.0415	0.5767	-0.3505	0.6817	0.2828
2.66	-9.4773	-0.1962	-1.7348	-0.0054	-0.0068	0.0032	20.5681	-28.8190	24.0253	0.5767	-0.3505	0.6816	0.2828
2.67	-9.4919	-0.1930	-1.7467	0.0009	-0.0107	0.0114	20.2903	-28.7561	24.0790	0.5767	-0.3506	0.6816	0.2828
2.68	-9.5021	-0.1858	-1.7582	-0.0049	-0.0017	0.0032	20.3887	-28.7825	24.2298	0.5767	-0.3505	0.6815	0.2828
2.69	-9.4645	-0.1811	-1.7188	-0.0027	-0.0062	0.0018	20.2512	-28.5635	24.1768	0.5767	-0.3506	0.6816	0.2828
2.7	-9.5075	-0.1867	-1.7541	-0.0104	0.0005	0.0024	20.3899	-28.4731	24.2310	0.5767	-0.3506	0.6816	0.2828
2.71	-9.5196	-0.2096	-1.7747	-0.0187	-0.0020	0.0024	20.5075	-28.4143	24.1001	0.5766	-0.3507	0.6815	0.2828
2.72	-9.4552	-0.2192	-1.7253	-0.0066	-0.0047	0.0039	20.2571	-28.5459	24.1314	0.5766	-0.3508	0.6815	0.2829
2.73	-9.4987	-0.2213	-1.7566	-0.0137	-0.0003	0.0030	20.2028	-28.5216	24.1855	0.5766	-0.3508	0.6815	0.2829
2.74	-9.5024	-0.2259	-1.7567	-0.0132	0.0003	-0.0011	20.4653	-28.5237	24.0706	0.5766	-0.3509	0.6815	0.2829
2.75	-9.4762	-0.2302	-1.7262	0.0000	-0.0031	0.0053	20.7270	-28.5167	24.2164	0.5765	-0.3509	0.6814	0.2829
2.76	-9.4747	-0.2393	-1.7182	0.0004	-0.0090	0.0051	20.6793	-28.5104	24.2105	0.5766	-0.3509	0.6815	0.2829
2.77	-9.4803	-0.2190	-1.7199	0.0022	-0.0099	0.0147	20.4939	-28.4414	24.1555	0.5766	-0.3509	0.6814	0.2830
2.78	-9.4950	-0.2110	-1.7072	0.0033	-0.0100	0.0184	20.4955	-28.4802	24.1389	0.5766	-0.3509	0.6815	0.2830
2.79	-9.5003	-0.1729	-1.7059	0.0058	-0.0079	0.0159	20.5301	-28.7023	24.0742	0.5766	-0.3508	0.6815	0.2830
2.8	-9.4849	-0.1568	-1.6854	0.0013	-0.0022	0.0110	20.5385	-28.7929	24.0895	0.5766	-0.3508	0.6815	0.2830
2.81	-9.5162	-0.1278	-1.7204	0.0047	-0.0033	0.0135	20.3555	-28.7913	23.8437	0.5766	-0.3508	0.6815	0.2830
2.82	-9.4967	-0.1134	-1.7080	0.0003	-0.0056	0.0129	20.4715	-28.7049	24.1625	0.5765	-0.3507	0.6815	0.2830
2.83	-9.4924	-0.1259	-1.7066	0.0022	-0.0101	0.0117	20.3161	-28.6028	24.2454	0.5766	-0.3507	0.6815	0.2831
2.84	-9.5065	-0.1438	-1.7237	-0.0033	-0.0055	0.0106	20.4853	-28.6204	23.9926	0.5765	-0.3507	0.6815	0.2831
2.85	-9.4879	-0.1796	-1.7166	-0.0086	-0.0080	0.0132	20.6989	-28.6127	24.1800	0.5766	-0.3508	0.6815	0.2832
2.86	-9.4885	-0.2039	-1.7356	-0.0030	-0.0083	0.0134	20.3856	-28.6095	24.1511	0.5765	-0.3507	0.6814	0.2832
2.87	-9.4738	-0.2272	-1.7394	-0.0078	0.0010	0.0073	20.5163	-28.6320	24.0420	0.5765	-0.3507	0.6815	0.2832
2.88	-9.4951	-0.2369	-1.7627	-0.0049	-0.0005	0.0050	20.4897	-28.7365	24.1299	0.5765	-0.3508	0.6815	0.2832
2.89	-9.4955	-0.2254	-1.7778	-0.0002	0.0007	0.0113	20.4270	-28.6142	24.1876	0.5764	-0.3508	0.6815	0.2832
2.9	-9.4881	-0.2112	-1.7753	0.0007	-0.0037	0.0084	20.4727	-28.5232	24.0266	0.5765	-0.3508	0.6816	0.2833
2.91	-9.4976	-0.1915	-1.7892	0.0065	-0.0010	0.0091	20.2928	-28.5484	24.2606	0.5764	-0.3508	0.6815	0.2832
2.92	-9.4989	-0.1740	-1.7882	0.0041	-0.0023	0.0120	20.3219	-28.7262	24.1501	0.5764	-0.3508	0.6816	0.2832
2.93	-9.4933	-0.1676	-1.7908	-0.0047	-0.0012	0.0056	20.5519	-28.5968	24.2673	0.5763	-0.3507	0.6815	0.2832
2.94	-9.4855	-0.1920	-1.7801	-0.0004	-0.0101	0.0082	20.4105	-28.5388	24.1915	0.5764	-0.3508	0.6816	0.2833
2.95	-9.4987	-0.2284	-1.7881	-0.0037	-0.0173	0.0056	20.3481	-28.8109	24.0537	0.5764	-0.3508	0.6815	0.2833
2.96	-9.4943	-0.2689	-1.7844	-0.0079	-0.0114	0.0137	20.4327	-28.7530	24.2979	0.5764	-0.3508	0.6815	0.2833
2.97	-9.4860	-0.2930	-1.7718	-0.0029	-0.0093	0.0122	20.5544	-28.8174	24.1297	0.5764	-0.3508	0.6815	0.2834
2.98	-9.4874	-0.2935	-1.7603	-0.0011	-0.0083	0.0055	20.3912	-28.7099	24.0591	0.5764	-0.3507	0.6814	0.2834
2.99	-9.4932	-0.2665	-1.7423	0.0022	-0.0105	0.0114	20.5830	-28.7821	24.0979	0.5765	-0.3507	0.6815	0.2834
3	-9.4775	-0.2253	-1.7172	0.0037	-0.0084	0.0133	20.6340	-28.9971	23.9879	0.5764	-0.3507	0.6814	0.2834
3.01	-9.4938	-0.1780	-1.7133	0.0068	-0.0067	0.0132	20.6011	-28.5935	24.0986	0.5765	-0.3507	0.6815	0.2834
3.02	-9.4947	-0.1425	-1.7011	-0.0001	-0.0096	0.0136	20.4724	-28.6682	24.0442	0.5765	-0.3506	0.6815	0.2835
3.03	-9.4844	-0.1254	-1.6801	-0.0045	-0.0065	0.0063	20.4501	-28.7178	24.1648	0.5765	-0.3507	0.6815	0.2835
3.04	-9.5114	-0.1480	-1.7099	-0.0024	-0.0062	0.0138	20.3709	-28.6104	24.0604	0.5764	-0.3506	0.6814	0.2835
3.05	-9.4822	-0.1664	-1.6820	-0.0045	-0.0055	0.0151	20.3610	-28.4969	24.1962	0.5764	-0.3506	0.6814	0.2836
3.06	-9.4786	-0.1856	-1.6834	-0.0094	-0.0049	0.0092	20.4018	-28.7917	24.0786	0.5764	-0.3507	0.6815	0.2836
3.07	-9.4903	-0.2026	-1.7035	-0.0083	-0.0075	0.0015	20.5663	-28.6807	24.1521	0.5764	-0.3507	0.6814	0.2836
3.08	-9.4919	-0.1998	-1.7057	-0.0038	-0.0049	0.0115	20.3959	-28.7356	24.0703	0.5764	-0.3507	0.6814	0.2837
3.09	-9.4901	-0.2044	-1.7162	0.0058	-0.0045	0.0080	20.4171	-28.8832	24.0751	0.5764	-0.3507	0.6814	0.2836
3.1	-9.4917	-0.1911	-1.7386	0.0117	-0.0009	0.0066	20.4233	-28.6802	24.0772	0.5764	-0.3507	0.6815	0.2836
3.11	-9.4735	-0.1881	-1.7306	0.0044	-0.0070	0.0087	20.2584	-28.7045	24.0598	0.5764	-0.3506	0.6814	0.2836
3.12	-9.4966	-0.1889	-1.7627	0.0062	-0.0030	0.0082	20.4175	-28.7128	24.2003	0.5764	-0.3506	0.6815	0.2836
3.13	-9.4880	-0.1869	-1.7634	0.0051	-0.0081	0.0091	20.3223	-28.6434	23.9055	0.5764	-0.3506	0.6815	0.2836
3.14	-9.4907	-0.1931	-1.7692	0.0004	-0.0038	0.0098	20.5441	-28.6514	23.9592	0.5764	-0.3506	0.6814	0.2836
3.15	-9.5088	-0.2038	-1.7944	0.0001	-0.0066	0.0069	20.5222	-28.8348	24.1092	0.5765	-0.3506	0.6815	0.2836
3.16	-9.4922	-0.2072	-1.7851	-0.0010	-0.0063	0.0035	20.5717	-28.7073	23.9151	0.5764	-0.3506	0.6814	0.2836
3.17	-9.4910	-0.2108	-1.7759	0.0048	-0.0053	0.0079	20.6382	-28.7380	23.8997	0.5765	-0.3506	0.6815	0.2836
3.18	-9.4972	-0.2130	-1.7812	0.0019	-0.0102	0.0099	20.6170	-28.8769	23.9061	0.5764	-0.3506	0.6814	0.2836
3.19	-9.4871	-0.2146	-1.7630	-0.0032	-0.0079	0.0136	20.4048	-28.7519	24.0068	0.5764	-0.3506	0.6815	0.2836
3.2	-9.4902	-0.2236	-1.7554	-0.0008	-0.0049	0.0116	20.3606	-28.6424	24.1418	0.5764	-0.3506	0.6815	0.2837
3.21	-9.5014	-0.2433	-1.7536	-0.0024	-0.0111	0.0113	20.3793	-28.5977	24.1570	0.5764	-0.3505	0.6814	0.2837
3.22	-9.4898	-0.2560	-1.7381	0.0033	-0.0087	0.0080	20.2807	-28.7189	24.1652	0.5765	-0.3505	0.6814	0.2837
3.23	-9.4828	-0.2528	-1.7389	0.0038	-0.0069	0.0079	20.4085	-28.6964	24.1383	0.5765	-0.3505	0.6814	0.2837
3.24	-9.4969	-0.2228	-1.7345	-0.0016	-0.0060	0.0075	20.5281	-28.6770	24.2293	0.5765	-0.3505	0.6815	0.2837
3.25	-9.4800	-0.1877	-1.7091	0.0066	-0.0015	0.0062	20.8733	-28.4121	24.2593	0.5764	-0.3505	0.6814	0.2837
3.26	-9.4901	-0.1722	-1.7165	-0.0013	-0.0025	0.0087	20.8382	-28.4642	24.1424	0.5765	-0.3505	0.6815	0.2837
3.27	-9.4908	-0.1721	-1.7224	-0.0010	-0.0001	-0.0012	20.6979	-28.4966	24.3434	0.5764	-0.3506	0.6814	0.2837
3.28	-9.4916	-0.1831	-1.7217	-0.0019	-0.0039	0.0067	20.4416	-28.6772	24.0910	0.5764	-0.3506	0.6814	0.2837
3.29	-9.4972	-0.1961	-1.7397	-0.0008	0.0046	0.0048	20.3789	-28.6403	24.1391	0.5764	-0.3506	0.6814	0.2837
3.3	-9.4849	-0.2157	-1.7400	-0.0026	-0.0010	0.0076	20.3480	-28.4953	24.0637	0.5764	-0.3506	0.6815	0.2837
3.31	-9.4858	-0.2308	-1.7430	-0.0025	0.0018	0.0032	20.2927	-28.5120	24.0330	0.5763	-0.3507	0.6815	0.2837
3.32	-9.4956	-0.2346	-1.7573	0.0025	-0.0056	0.0055	20.2718	-28.5984	24.2355	0.5763	-0.3507	0.6814	0.2836
3.33	-9.4849	-0.2202	-1.7502	0.0080	-0.0044	0.0072	20.4345	-28.5901	24.0610	0.5764	-0.3507	0.6815	0.2837
3.34	-9.4936	-0.1958	-1.7566	0.0064	-0.0039	0.0024	20.5447	-28.6400	24.1773	0.5763	-0.3507	0.6815	0.2836
3.35	-9.4992	-0.1783	-1.7750	-0.0016	-0.0037	0.0051	20.6148	-28.8984	23.9534	0.5764	-0.3507	0.6815	0.2836
3.36	-9.4932	-0.1683	-1.7754	0.0010	-0.0044	0.0034	20.5444	-28.7033	24.0230	0.5763	-0.3507	0.6814	0.2836
3.37	-9.5035	-0.1640	-1.7918	-0.0002	-0.0027	0.0066	20.3312	-28.9516	24.2649	0.5763	-0.3507	0.6815	0.2836
3.38	-9.4873	-0.1632	-1.7904	-0.0000	-0.0022	0.0069	20.5625	-28.8023	24.1484	0.5763	-0.3507	0.6815	0.2836
3.39	-9.5000	-0.1739	-1.7977	-0.0010	-0.0038	0.0084	20.5083	-28.8057	24.0286	0.5763	-0.3507	0.6815	0.2836
3.4	-9.5027	-0.1891	-1.8014	-0.0015	-0.0019	0.0006	20.6720	-28.9501	24.0417	0.5763	-0.3508	0.6815	0.2836
3.41	-9.4775	-0.1908	-1.7678	0.0013	-0.0082	0.0030	20.5362	-28.7926	24.1627	0.5763	-0.3508	0.6815	0.2836
3.42	-9.5066	-0.1919	-1.7723	-0.0001	-0.0077	0.0032	20.1970	-28.6734	24.0317	0.5764	-0.3508	0.6815	0.2836
3.43	-9.4817	-0.1919	-1.7404	-0.0038	-0.0107	0.0004	20.2899	-28.3909	23.9981	0.5763	-0.3508	0.6814	0.2836
3.44	-9.4883	-0.1874	-1.7462	-0.0044	-0.0084	0.0013	20.5243	-28.5677	24.1553	0.5764	-0.3508	0.6814	0.2836
3.45	-9.4877	-0.1705	-1.7323	-0.0021	-0.0040	-0.0002	20.3535	-28.6035	23.8680	0.5764	-0.3509	0.6814	0.2836
3.46	-9.4833	-0.1629	-1.7131	-0.0035	-0.0026	0.0034	20.2746	-28.6061	23.8972	0.5763	-0.3509	0.6814	0.2836
3.47	-9.4905	-0.1453	-1.7121	0.0015	-0.0017	0.0047	20.3947	-28.5030	24.0481	0.5764	-0.3509	0.6814	0.2836
3.48	-9.4948	-0.1393	-1.7083	-0.0018	-0.0044	0.0045	20.3857	-28.6516	24.1399	0.5763	-0.3509	0.6814	0.2836
3.49	-9.4953	-0.1407	-1.7169	0.0018	-0.0050	0.0013	20.5200	-28.6985	24.0495	0.5764	-0.3510	0.6814	0.2836
3.5	-9.4789	-0.1547	-1.6992	0.0005	-0.0074	0.0048	20.2735	-28.6065	24.0071	0.5763	-0.3509	0.6813	0.2835
3.51	-9.4951	-0.1876	-1.7130	-0.0013	-0.0046	0.0037	20.3174	-28.4783	24.0250	0.5764	-0.3510	0.6814	0.2835
3.52	-9.5026	-0.2327	-1.7306	0.0009	-0.0071	0.0033	20.7135	-28.7285	23.8753	0.5763	-0.3510	0.6813	0.2835
3.53	-9.4771	-0.2660	-1.7347	0.0030	-0.0065	0.0047	20.6354	-28.7129	24.1173	0.5764	-0.3510	0.6813	0.2835
3.54	-9.4824	-0.2630	-1.7341	0.0026	-0.0031	0.0024	20.5368	-28.5741	24.1089	0.5764	-0.3510	0.6813	0.2835
3.55	-9.4907	-0.2430	-1.7473	0.0022	-0.0069	0.0053	20.3966	-28.6009	24.1270	0.5764	-0.3510	0.6813	0.2835
3.56	-9.4855	-0.2095	-1.7196	0.0054	-0.0010	0.0043	20.4195	-28.8127	24.0575	0.5764	-0.3510	0.6813	0.2835
3.57	-9.5043	-0.2037	-1.7481	0.0057	-0.0035	0.0073	20.4964	-28.8555	24.0188	0.5763	-0.3510	0.6813	0.2834
3.58	-9.4760	-0.2607	-1.7502	-0.0018	-0.0046	0.0050	20.2456	-28.8495	24.0320	0.5764	-0.3511	0.6814	0.2835
3.59	-9.5110	-0.2568	-1.7689	-0.0012	-0.0022	-0.0007	20.3702	-28.8254	23.8898	0.5764	-0.3511	0.6813	0.2834
3.6	-9.4830	-0.2893	-1.7600	0.0014	-0.0040	0.0115	20.5904	-28.6817	24.0365	0.5764	-0.3511	0.6814	0.2835
3.61	-9.4755	-0.2676	-1.7669	-0.0060	-0.0041	0.0066	20.3395	-28.6044	24.0123	0.5763	-0.3511	0.6813	0.2834
3.62	-9.4893	-0.2676	-1.7724	-0.0011	-0.0041	0.0054	20.4268	-28.3639	24.0344	0.5763	-0.3511	0.6813	0.2835
3.63	-9.5066	-0.2319	-1.7866	-0.0028	-0.0028	0.0024	20.4274	-28.5231	23.9704	0.5763	-0.3511	0.6813	0.2835
3.64	-9.4740	-0.2034	-1.7626	0.0000	-0.0018	0.0006	20.3571	-28.4875	23.8928	0.5763	-0.3512	0.6813	0.2834
3.65	-9.5074	-0.1740	-1.7584	-0.0057	-0.0044	0.0048	20.3943	-28.5711	24.1617	0.5763	-0.3512	0.6814	0.2835
3.66	-9.4739	-0.1580	-1.7157	-0.0033	-0.0076	0.0011	20.2366	-28.5309	24.0549	0.5763	-0.3512	0.6813	0.2834
3.67	-9.4908	-0.1491	-1.7131	0.0064	-0.0033	0.0060	20.4136	-28.4287	23.9921	0.5763	-0.3513	0.6813	0.2834
3.68	-9.5014	-0.1573	-1.7085	0.0026	-0.0039	0.0038	20.1958	-28.7311	24.1145	0.5763	-0.3512	0.6812	0.2834
3.69	-9.4855	-0.1697	-1.7118	0.0063	-0.0041	0.0048	20.2381	-28.4529	24.2166	0.5763	-0.3513	0.6813	0.2834
3.7	-9.4968	-0.1884	-1.7258	0.0028	-0.0015	0.0133	20.3122	-28.5889	23.9817	0.5763	-0.3512	0.6813	0.2834
3.71	-9.4906	-0.1951	-1.7132	-0.0053	-0.0088	0.0047	20.3487	-28.9203	23.8990	0.5763	-0.3512	0.6813	0.2834
3.72	-9.4912	-0.1924	-1.7213	-0.0004	-0.0067	0.0008	20.4950	-28.9472	24.1741	0.5763	-0.3513	0.6813	0.2834
3.73	-9.4895	-0.1935	-1.7257	0.0004	-0.0068	0.0058	20.5405	-28.6463	23.9301	0.5763	-0.3513	0.6813	0.2834
3.74	-9.4843	-0.1975	-1.7327	0.0057	-0.0071	0.0076	20.5953	-28.5670	24.0350	0.5763	-0.3513	0.6813	0.2834
3.75	-9.4824	-0.1969	-1.7335	0.0006	-0.0025	0.0008	20.9861	-28.6690	24.2625	0.5763	-0.3513	0.6812	0.2833
3.76	-9.4950	-0.1919	-1.7325	0.0007	-0.0033	0.0087	20.9814	-28.6759	24.1577	0.5763	-0.3513	0.6813	0.2834
3.77	-9.4870	-0.1819	-1.7338	0.0104	-0.0034	0.0143	20.5707	-28.6588	24.1074	0.5763	-0.3513	0.6813	0.2834
3.78	-9.4972	-0.1744	-1.7351	0.0055	-0.0039	0.0134	20.5208	-28.6561	24.0738	0.5763	-0.3513	0.6813	0.2834
3.79	-9.4973	-0.1715	-1.7310	0.0069	-0.0079	0.0185	20.4686	-28.6975	23.9004	0.5763	-0.3512	0.6813	0.2834
3.8	-9.4895	-0.1741	-1.7332	0.0067	-0.0060	0.0071	20.4226	-28.4758	24.1430	0.5763	-0.3512	0.6814	0.2834
3.81	-9.4894	-0.1853	-1.7337	0.0011	0.0009	0.0067	20.2249	-28.6828	24.0019	0.5763	-0.3512	0.6814	0.2834
3.82	-9.4909	-0.1986	-1.7375	-0.0023	-0.0005	0.0092	20.4868	-28.7307	23.9865	0.5762	-0.3512	0.6813	0.2833
3.83	-9.4874	-0.2201	-1.7415	0.0032	-0.0025	0.0084	20.4514	-28.6012	24.0109	0.5763	-0.3512	0.6814	0.2834
3.84	-9.4885	-0.2360	-1.7487	0.0052	0.0001	0.0131	20.2005	-28.8011	24.1124	0.5762	-0.3512	0.6814	0.2833
3.85	-9.4841	-0.2453	-1.7475	0.0001	-0.0063	0.0124	20.2944	-28.7535	24.0277	0.5763	-0.3512	0.6815	0.2834
3.86	-9.4865	-0.2395	-1.7548	0.0038	-0.0005	0.0089	20.3105	-28.5993	23.8658	0.5762	-0.3511	0.6814	0.2833
3.87	-9.4962	-0.2246	-1.7642	0.0060	-0.0045	0.0078	20.1950	-28.6698	24.0736	0.5762	-0.3512	0.6815	0.2833
3.88	-9.4894	-0.2165	-1.7545	0.0064	-0.0107	0.0161	20.4137	-28.7290	24.2004	0.5762	-0.3511	0.6815	0.2834
3.89	-9.5009	-0.1988	-1.7685	0.0057	-0.0091	0.0134	20.5533	-28.6940	24.1747	0.5762	-0.3510	0.6814	0.2833
3.9	-9.4901	-0.1838	-1.7661	0.0022	-0.0044	0.0137	20.4488	-28.8129	23.9792	0.5763	-0.3511	0.6816	0.2834
3.91	-9.4838	-0.1741	-1.7551	0.0049	-0.0103	0.0149	20.4774	-28.6564	23.8737	0.5762	-0.3510	0.6815	0.2834
3.92	-9.4947	-0.1692	-1.7548	0.0028	-0.0015	0.0070	20.4480	-28.8022	23.9788	0.5763	-0.3510	0.6816	0.2834
3.93	-9.4973	-0.1645	-1.7526	0.0046	-0.0022	0.0066	20.5438	-28.7730	24.1008	0.5762	-0.3510	0.6815	0.2833
3.94	-9.4872	-0.1706	-1.7378	0.0068	-0.0024	0.0088	20.6456	-28.8247	23.9735	0.5762	-0.3510	0.6816	0.2833
3.95	-9.4886	-0.1681	-1.7407	0.0047	-0.0103	0.0116	20.4515	-28.6972	23.8676	0.5762	-0.3510	0.6815	0.2833
3.96	-9.5017	-0.1738	-1.7471	0.0100	-0.0080	0.0118	20.5415	-28.5746	24.0151	0.5762	-0.3509	0.6815	0.2833
3.97	-9.4838	-0.1835	-1.7297	0.0070	-0.0018	0.0100	20.4681	-28.8381	23.8849	0.5762	-0.3509	0.6816	0.2833
3.98	-9.4931	-0.1913	-1.7373	0.0011	-0.0075	0.0115	20.3337	-28.7641	23.9561	0.5762	-0.3509	0.6816	0.2833
3.99	-9.4973	-0.2019	-1.7374	0.0030	-0.0036	0.0104	20.2833	-28.6452	23.9922	0.5762	-0.3509	0.6816	0.2833
4	-9.4839	-0.2134	-1.7445	0.0017	-0.0014	0.0046	20.3795	-28.6099	24.0765	0.5762	-0.3509	0.6816	0.2833
4.01	-9.4817	-0.2279	-1.7454	0.0060	-0.0085	0.0118	20.3886	-28.8477	24.0843	0.5762	-0.3509	0.6816	0.2833
4.02	-9.4795	-0.2477	-1.7383	0.0043	-0.0090	0.0086	20.2251	-28.4425	24.0924	0.5762	-0.3508	0.6816	0.2833
4.03	-9.4974	-0.2397	-1.7575	-0.0008	-0.0081	0.0067	20.4841	-28.6099	24.0010	0.5763	-0.3509	0.6816	0.2833
4.04	-9.4784	-0.2207	-1.7405	0.0070	-0.0095	0.0115	20.3494	-28.6334	23.9952	0.5762	-0.3508	0.6816	0.2833
4.05	-9.4875	-0.2159	-1.7392	0.0073	-0.0036	0.0078	20.3329	-28.6536	24.0960	0.5763	-0.3508	0.6816	0.2833
4.06	-9.4971	-0.2074	-1.7539	0.0036	-0.0064	0.0109	20.5320	-28.9177	23.9024	0.5763	-0.3508	0.6816	0.2833
4.07	-9.4878	-0.2190	-1.7399	0.0003	-0.0109	0.0128	20.3586	-28.7735	23.9843	0.5762	-0.3507	0.6816	0.2833
4.08	-9.4924	-0.2214	-1.7469	0.0070	-0.0062	0.0068	20.3940	-28.8171	24.0264	0.5763	-0.3508	0.6817	0.2833
4.09	-9.4813	-0.2238	-1.7276	0.0047	-0.0024	0.0057	20.3787	-28.7530	24.0849	0.5763	-0.3507	0.6816	0.2833
4.1	-9.4982	-0.2234	-1.7390	0.0039	-0.0031	0.0094	20.3779	-28.6883	23.8872	0.5763	-0.3508	0.6817	0.2833
4.11	-9.4869	-0.2180	-1.7327	0.0023	-0.0096	0.0111	20.4726	-28.7991	23.9344	0.5762	-0.3507	0.6816	0.2833
4.12	-9.4808	-0.2114	-1.7268	-0.0002	-0.0124	0.0169	20.4601	-28.9094	23.8827	0.5763	-0.3507	0.6816	0.2833
4.13	-9.5013	-0.2057	-1.7419	0.0046	-0.0100	0.0094	20.4845	-28.8116	23.9883	0.5763	-0.3507	0.6816	0.2833
4.14	-9.4803	-0.1967	-1.7170	0.0054	-0.0079	0.0051	20.3753	-28.7958	23.9936	0.5763	-0.3506	0.6816	0.2833
4.15	-9.4906	-0.1943	-1.7293	0.0029	-0.0066	0.0094	20.4840	-28.6944	23.9321	0.5764	-0.3507	0.6817	0.2833
4.16	-9.4837	-0.1719	-1.7060	0.0065	-0.0048	0.0075	20.4470	-28.6093	23.8349	0.5763	-0.3506	0.6816	0.2833
4.17	-9.4997	-0.1788	-1.7331	0.0041	-0.0050	0.0103	20.5099	-28.8653	24.1538	0.5764	-0.3506	0.6817	0.2833
4.18	-9.4872	-0.1875	-1.7362	0.0088	-0.0003	0.0147	20.1934	-28.9024	24.0872	0.5763	-0.3506	0.6816	0.2833
4.19	-9.4810	-0.1835	-1.7293	0.0044	0.0017	0.0043	20.2490	-28.6427	24.0025	0.5763	-0.3506	0.6817	0.2833
4.2	-9.5042	-0.1766	-1.7518	0.0144	-0.0024	0.0019	20.3045	-28.6535	24.2221	0.5763	-0.3506	0.6817	0.2832
4.21	-9.4837	-0.1618	-1.7356	0.0137	-0.0034	0.0043	20.3609	-28.5453	23.8601	0.5763	-0.3505	0.6817	0.2831
4.22	-9.4900	-0.1555	-1.7509	0.0105	-0.0029	0.0056	20.4043	-28.5557	23.9347	0.5764	-0.3505	0.6818	0.2831
4.23	-9.5011	-0.1509	-1.7555	0.0109	0.0015	0.0056	20.4849	-28.6423	23.8720	0.5763	-0.3505	0.6818	0.2830
4.24	-9.4915	-0.1577	-1.7537	0.0065	-0.0015	0.0004	20.4358	-28.6369	24.0088	0.5764	-0.3506	0.6818	0.2830
4.25	-9.4884	-0.1775	-1.7572	0.0066	-0.0036	0.0055	20.6034	-28.5460	24.2808	0.5763	-0.3505	0.6818	0.2829
4.26	-9.4935	-0.1876	-1.7595	0.0082	-0.0014	0.0014	20.7335	-28.4389	24.3528	0.5764	-0.3506	0.6819	0.2829
4.27	-9.4888	-0.2009	-1.7508	0.0029	-0.0049	0.0021	20.6711	-28.6846	24.1732	0.5763	-0.3506	0.6818	0.2829
4.28	-9.4914	-0.2021	-1.7540	0.0083	-0.0020	-0.0001	20.5954	-28.7215	23.9000	0.5764	-0.3506	0.6818	0.2829
4.29	-9.4946	-0.2072	-1.7502	0.0001	-0.0033	-0.0004	20.5745	-28.8659	23.9919	0.5763	-0.3506	0.6818	0.2828
4.3	-9.5004	-0.2121	-1.7525	0.0036	-0.0001	-0.0015	20.5156	-28.7941	23.8984	0.5764	-0.3507	0.6818	0.2828
4.31	-9.4921	-0.2104	-1.7473	0.0080	-0.0064	0.0006	20.4757	-28.8242	24.0819	0.5764	-0.3507	0.6818	0.2827
4.32	-9.4877	-0.2142	-1.7463	0.0025	-0.0054	0.0055	20.3321	-28.6908	24.1350	0.5763	-0.3506	0.6818	0.2827
4.33	-9.4903	-0.2166	-1.7432	0.0013	-0.0046	0.0075	20.3547	-28.3791	24.0115	0.5764	-0.3507	0.6819	0.2827
4.34	-9.4851	-0.2194	-1.7334	-0.0017	-0.0093	0.0046	20.3499	-28.6526	24.0014	0.5764	-0.3507	0.6818	0.2827
4.35	-9.4904	-0.2242	-1.7328	0.0044	-0.0061	0.0043	20.3462	-28.6903	24.1677	0.5764	-0.3507	0.6819	0.2827
4.36	-9.4864	-0.2310	-1.7301	0.0015	-0.0042	0.0073	20.3473	-28.6424	24.2405	0.5764	-0.3507	0.6818	0.2827
4.37	-9.4846	-0.2367	-1.7329	-0.0010	-0.0021	0.0008	20.3460	-28.4954	23.8118	0.5764	-0.3507	0.6818	0.2827
4.38	-9.4826	-0.2465	-1.7354	0.0040	0.0039	0.0026	20.3725	-28.3920	23.9216	0.5764	-0.3508	0.6818	0.2827
4.39	-9.4884	-0.2482	-1.7379	0.0002	0.0011	0.0053	20.2689	-28.5869	23.9372	0.5763	-0.3508	0.6818	0.2826
4.4	-9.4885	-0.2355	-1.7364	0.0003	-0.0024	0.0002	20.2794	-28.6527	23.9473	0.5764	-0.3508	0.6819	0.2826
4.41	-9.4893	-0.2237	-1.7289	0.0056	0.0004	0.0011	20.3693	-28.4969	24.0579	0.5763	-0.3508	0.6818	0.2826
4.42	-9.4836	-0.2065	-1.7096	0.0004	-0.0032	0.0005	20.1456	-28.5197	23.9861	0.5764	-0.3509	0.6819	0.2826
4.43	-9.4896	-0.1880	-1.7058	0.0052	0.0003	-0.0027	20.3039	-28.6834	24.1461	0.5763	-0.3509	0.6818	0.2825
4.44	-9.4922	-0.1796	-1.7104	0.0028	-0.0045	0.0065	20.3137	-28.4011	23.9590	0.5763	-0.3509	0.6819	0.2825
4.45	-9.4798	-0.1830	-1.7132	0.0038	-0.0057	0.0083	20.3096	-28.5984	23.9576	0.5763	-0.3509	0.6819	0.2825
4.46	-9.4921	-0.1953	-1.7342	0.0010	-0.0097	0.0015	20.3620	-28.6747	23.8431	0.5763	-0.3509	0.6818	0.2824
4.47	-9.4931	-0.2086	-1.7435	0.0009	-0.0070	0.0036	20.3626	-28.5348	23.9683	0.5764	-0.3509	0.6818	0.2825
4.48	-9.4884	-0.2116	-1.7512	-0.0010	-0.0035	0.0052	20.6701	-28.7025	23.8929	0.5763	-0.3509	0.6818	0.2824
4.49	-9.4860	-0.2046	-1.7524	0.0043	-0.0021	0.0032	20.5255	-28.7276	23.9061	0.5764	-0.3510	0.6819	0.2824
4.5	-9.4944	-0.1916	-1.7581	0.0015	-0.0012	0.0029	20.4255	-28.7237	23.9632	0.5763	-0.3509	0.6818	0.2824
4.51	-9.4869	-0.1820	-1.7544	0.0007	-0.0097	0.0070	20.4474	-28.7246	23.9414	0.5764	-0.3510	0.6819	0.2824
4.52	-9.4805	-0.1766	-1.7484	0.0020	-0.0078	0.0021	20.5374	-28.5738	23.9304	0.5764	-0.3510	0.6818	0.2824
4.53	-9.4966	-0.1755	-1.7594	-0.0014	-0.0062	0.0104	20.4970	-28.5532	24.0160	0.5764	-0.3510	0.6818	0.2824
4.54	-9.4944	-0.1773	-1.7562	0.0034	-0.0036	0.0037	20.5229	-28.5594	24.0313	0.5763	-0.3510	0.6818	0.2824
4.55	-9.4899	-0.1821	-1.7523	0.0016	-0.0007	0.0018	20.3755	-28.6803	24.1633	0.5763	-0.3510	0.6818	0.2823
4.56	-9.4960	-0.1818	-1.7502	0.0020	-0.0046	0.0087	20.3387	-28.5842	24.0228	0.5764	-0.3510	0.6818	0.2824
4.57	-9.4918	-0.1820	-1.7466	-0.0022	-0.0008	0.0033	20.3540	-28.5406	24.1125	0.5763	-0.3510	0.6818	0.2823
4.58	-9.4836	-0.1901	-1.7361	-0.0009	-0.0025	-0.0004	20.3412	-28.6806	24.1024	0.5763	-0.3511	0.6819	0.2823
4.59	-9.4884	-0.2007	-1.7400	-0.0041	0.0020	0.0026	20.2171	-28.4693	24.1623	0.5763	-0.3511	0.6818	0.2823
4.6	-9.4956	-0.2102	-1.7335	0.0045	0.0012	0.0017	20.1475	-28.5627	24.1617	0.5763	-0.3512	0.6819	0.2823
4.61	-9.4875	-0.2145	-1.7388	-0.0025	-0.0065	0.0042	20.3745	-28.5549	24.0004	0.5762	-0.3512	0.6818	0.2822
4.62	-9.4846	-0.2180	-1.7367	-0.0050	0.0008	-0.0010	20.4365	-28.5864	23.9191	0.5763	-0.3512	0.6818	0.2823
4.63	-9.4891	-0.2182	-1.7300	-0.0013	-0.0071	0.0082	20.2896	-28.6581	23.9939	0.5763	-0.3513	0.6818	0.2823
4.64	-9.4868	-0.2144	-1.7268	-0.0005	-0.0011	0.0055	20.5060	-28.6975	24.0534	0.5762	-0.3513	0.6818	0.2822
4.65	-9.4897	-0.2083	-1.7277	-0.0006	-0.0068	0.0098	20.6914	-28.7489	24.0275	0.5763	-0.3513	0.6819	0.2823
4.66	-9.4886	-0.2068	-1.7270	-0.0014	-0.0101	0.0053	20.6841	-28.6821	23.7683	0.5762	-0.3513	0.6818	0.2823
4.67	-9.4902	-0.1990	-1.7284	0.0020	-0.0078	0.0058	20.6320	-28.8110	23.8317	0.5763	-0.3513	0.6818	0.2823
4.68	-9.4917	-0.2012	-1.7244	-0.0021	-0.0116	0.0067	20.5018	-28.7270	23.9492	0.5762	-0.3513	0.6817	0.2823
4.69	-9.4904	-0.1952	-1.7224	0.0011	-0.0082	0.0038	20.4013	-28.5145	24.1707	0.5763	-0.3513	0.6818	0.2823
4.7	-9.4894	-0.1992	-1.7300	0.0003	-0.0098	0.0091	20.4761	-28.6076	24.0387	0.5763	-0.3513	0.6818	0.2823
4.71	-9.4854	-0.2114	-1.7334	-0.0010	-0.0074	0.0096	20.5383	-28.7235	24.0525	0.5763	-0.3513	0.6817	0.2823
4.72	-9.4896	-0.2166	-1.7378	-0.0044	-0.0058	0.0041	20.4063	-28.7273	23.9088	0.5763	-0.3513	0.6818	0.2823
4.73	-9.4973	-0.2185	-1.7493	0.0024	-0.0028	0.0072	20.4614	-28.7207	23.8823	0.5763	-0.3513	0.6817	0.2823
4.74	-9.4926	-0.2131	-1.7554	-0.0046	0.0006	0.0012	20.3747	-28.3234	24.1768	0.5763	-0.3514	0.6818	0.2823
4.75	-9.4877	-0.2036	-1.7525	-0.0032	-0.0012	0.0106	20.6588	-28.3665	24.2939	0.5762	-0.3514	0.6817	0.2823
4.76	-9.4944	-0.1981	-1.7545	0.0025	-0.0043	0.0124	20.8660	-28.7002	24.3960	0.5762	-0.3514	0.6818	0.2823
4.77	-9.4890	-0.1872	-1.7491	-0.0022	0.0013	0.0083	20.5939	-28.5848	24.1962	0.5762	-0.3514	0.6818	0.2823
4.78	-9.4864	-0.1814	-1.7524	0.0040	-0.0044	0.0102	20.5658	-28.7085	24.1766	0.5762	-0.3514	0.6818	0.2823
4.79	-9.4945	-0.1832	-1.7574	0.0089	0.0022	0.0032	20.3417	-28.6772	23.9571	0.5761	-0.3514	0.6818	0.2823
4.8	-9.4944	-0.1835	-1.7524	0.0023	-0.0017	0.0121	20.2247	-28.6539	24.0300	0.5761	-0.3514	0.6818	0.2823
4.81	-9.4902	-0.1811	-1.7529	0.0045	-0.0048	0.0078	20.3738	-28.6143	24.0881	0.5761	-0.3514	0.6819	0.2823
4.82	-9.4895	-0.1853	-1.7530	0.0093	-0.0102	0.0144	20.4681	-28.7316	24.0786	0.5761	-0.3513	0.6818	0.2822
4.83	-9.4945	-0.1975	-1.7569	-0.0007	-0.0111	0.0117	20.4657	-28.7931	24.0741	0.5762	-0.3514	0.6819	0.2823
4.84	-9.4979	-0.2042	-1.7508	0.0024	-0.0089	0.0111	20.3482	-28.5831	24.1105	0.5762	-0.3513	0.6818	0.2823
4.85	-9.4912	-0.2039	-1.7504	-0.0028	-0.0100	0.0057	20.4513	-28.7141	24.1987	0.5762	-0.3514	0.6819	0.2823
4.86	-9.4892	-0.2100	-1.7431	-0.0003	-0.0087	0.0049	20.5571	-28.8120	24.1441	0.5761	-0.3513	0.6818	0.2823
4.87	-9.4964	-0.2149	-1.7481	0.0064	-0.0115	0.0159	20.5363	-28.8918	24.2140	0.5762	-0.3513	0.6818	0.2823
4.88	-9.4868	-0.2141	-1.7373	0.0061	-0.0074	0.0124	20.3912	-28.7482	24.2560	0.5762	-0.3513	0.6818	0.2823
4.89	-9.4879	-0.2115	-1.7331	0.0050	-0.0141	0.0115	20.3884	-28.9156	23.9682	0.5762	-0.3512	0.6818	0.2823
4.9	-9.4903	-0.2072	-1.7363	-0.0013	-0.0087	0.0098	20.3887	-28.8561	24.1143	0.5763	-0.3513	0.6819	0.2824
4.91	-9.4959	-0.2065	-1.7291	0.0005	-0.0151	0.0139	20.3993	-28.8234	24.0490	0.5762	-0.3512	0.6818	0.2824
4.92	-9.4933	-0.1999	-1.7261	0.0002	-0.0067	0.0092	20.5664	-28.9298	24.1793	0.5763	-0.3512	0.6818	0.2824
4.93	-9.4837	-0.1995	-1.7185	0.0007	-0.0100	0.0064	20.4616	-28.7135	24.0837	0.5762	-0.3512	0.6817	0.2824
4.94	-9.4931	-0.2010	-1.7260	0.0036	-0.0094	0.0046	20.3738	-28.7016	23.9641	0.5763	-0.3512	0.6818	0.2824
4.95	-9.4900	-0.2015	-1.7257	0.0040	-0.0011	0.0109	20.3932	-28.6235	24.1837	0.5763	-0.3512	0.6818	0.2824
4.96	-9.4880	-0.2025	-1.7295	0.0065	-0.0016	0.0047	20.3818	-28.6494	24.0530	0.5762	-0.3512	0.6818	0.2824
4.97	-9.4895	-0.2037	-1.7335	-0.0012	-0.0027	0.0073	20.4059	-28.5532	23.6333	0.5763	-0.3512	0.6818	0.2824
4.98	-9.4939	-0.2052	-1.7370	0.0038	-0.0038	0.0095	20.3795	-28.7817	24.1078	0.5762	-0.3512	0.6818	0.2823
4.99	-9.4809	-0.2011	-1.7366	-0.0007	-0.0077	0.0116	20.4051	-28.6745	24.1173	0.5763	-0.3512	0.6818	0.2824
5	-9.4831	-0.2001	-1.7360	0.0057	-0.0060	0.0122	20.2977	-28.8449	24.0714	0.5762	-0.3511	0.6818	0.2823
5.01	-9.4968	-0.2037	-1.7496	0.0028	-0.0117	0.0111	20.4097	-28.6581	24.1576	0.5763	-0.3512	0.6819	0.2824
5.02	-9.4913	-0.2031	-1.7488	0.0066	-0.0090	0.0079	20.5092	-28.6837	24.0903	0.5763	-0.3511	0.6818	0.2824
5.03	-9.4902	-0.2044	-1.7481	0.0056	-0.0112	0.0137	20.6297	-28.7173	24.2188	0.5763	-0.3511	0.6818	0.2824
5.04	-9.4944	-0.2034	-1.7508	-0.0019	-0.0103	0.0085	20.5499	-28.8157	24.0576	0.5763	-0.3511	0.6818	0.2824
5.05	-9.4947	-0.2027	-1.7501	0.0004	-0.0096	0.0086	20.5356	-28.8867	24.0924	0.5763	-0.3511	0.6818	0.2824
5.06	-9.4909	-0.1974	-1.7471	0.0014	-0.0078	0.0115	20.4015	-28.7379	23.8989	0.5763	-0.3511	0.6818	0.2824
5.07	-9.4918	-0.1924	-1.7547	0.0024	-0.0050	0.0113	20.3852	-28.6344	23.9021	0.5763	-0.3510	0.6818	0.2824
5.08	-9.4889	-0.1921	-1.7550	-0.0011	-0.0095	0.0138	20.3965	-28.6514	23.9983	0.5763	-0.3511	0.6819	0.2825
5.09	-9.4907	-0.1943	-1.7548	0.0002	-0.0136	0.0037	20.3883	-28.7495	23.8595	0.5763	-0.3510	0.6818	0.2825
5.1	-9.4912	-0.1928	-1.7430	-0.0030	-0.0113	0.0068	20.3922	-28.7025	24.2449	0.5764	-0.3511	0.6818	0.2825
5.11	-9.4931	-0.1970	-1.7440	0.0060	-0.0035	0.0112	20.3741	-28.8160	24.2707	0.5763	-0.3510	0.6817	0.2825
5.12	-9.4919	-0.2044	-1.7363	-0.0022	-0.0081	-0.0004	20.3001	-28.8079	24.0063	0.5763	-0.3511	0.6818	0.2825
5.13	-9.4877	-0.2035	-1.7292	0.0001	-0.0123	0.0044	20.4726	-28.6071	24.0010	0.5764	-0.3511	0.6817	0.2825
5.14	-9.4923	-0.2002	-1.7288	-0.0069	-0.0048	0.0023	20.4487	-28.5045	24.2663	0.5763	-0.3511	0.6817	0.2825
5.15	-9.4966	-0.1950	-1.7312	-0.0044	-0.0056	0.0052	20.5700	-28.7908	24.2474	0.5764	-0.3512	0.6818	0.2825
5.16	-9.4861	-0.1950	-1.7311	0.0001	-0.0013	0.0089	20.3940	-28.7615	23.8675	0.5763	-0.3512	0.6817	0.2825
5.17	-9.4916	-0.2023	-1.7389	-0.0051	-0.0014	0.0076	20.4460	-28.5096	23.9723	0.5763	-0.3512	0.6818	0.2825
5.18	-9.4938	-0.2025	-1.7520	-0.0013	-0.0039	0.0048	20.4876	-28.7278	24.0735	0.5762	-0.3512	0.6817	0.2825
5.19	-9.4916	-0.2092	-1.7437	0.0032	-0.0064	0.0069	20.3459	-28.9405	24.2173	0.5763	-0.3512	0.6817	0.2825
5.2	-9.4890	-0.2117	-1.7382	0.0042	-0.0107	0.0123	20.4376	-28.6567	24.0921	0.5763	-0.3512	0.6817	0.2825
5.21	-9.4950	-0.2052	-1.7353	0.0047	-0.0130	0.0167	20.5360	-28.6793	24.0876	0.5763	-0.3511	0.6817	0.2825
5.22	-9.4951	-0.1952	-1.7312	0.0037	-0.0107	0.0090	20.5778	-28.9210	24.0662	0.5764	-0.3511	0.6817	0.2825
5.23	-9.4871	-0.1891	-1.7257	0.0053	-0.0034	0.0066	20.3755	-28.8720	24.0068	0.5763	-0.3511	0.6817	0.2825
5.24	-9.4933	-0.1924	-1.7408	0.0055	-0.0045	0.0068	20.5202	-28.8832	23.9192	0.5764	-0.3511	0.6818	0.2825
5.25	-9.4944	-0.1977	-1.7499	0.0042	-0.0028	0.0026	20.9129	-28.5191	23.9848	0.5763	-0.3511	0.6817	0.2824
5.26	-9.4855	-0.2088	-1.7550	0.0029	-0.0049	0.0028	20.8468	-28.4630	24.1975	0.5764	-0.3512	0.6817	0.2825
5.27	-9.4883	-0.2114	-1.7601	0.0016	-0.0049	0.0057	20.6874	-28.6935	23.9363	0.5763	-0.3512	0.6817	0.2824
5.28	-9.4957	-0.2124	-1.7624	-0.0001	-0.0014	0.0006	20.6183	-28.7030	24.0912	0.5763	-0.3512	0.6817	0.2824
5.29	-9.4919	-0.2037	-1.7538	0.0012	-0.0049	0.0112	20.3035	-28.7179	24.1104	0.5763	-0.3512	0.6817	0.2824
5.3	-9.4906	-0.1982	-1.7481	-0.0017	-0.0057	0.0052	20.3198	-28.7354	24.2551	0.5763	-0.3512	0.6817	0.2824
5.31	-9.4882	-0.1877	-1.7495	-0.0021	-0.0018	0.0006	20.3346	-28.5739	24.1008	0.5763	-0.3513	0.6817	0.2824
5.32	-9.4864	-0.1804	-1.7502	-0.0021	-0.0048	0.0037	20.2386	-28.5781	24.1884	0.5763	-0.3512	0.6817	0.2824
5.33	-9.4916	-0.1855	-1.7443	-0.0062	-0.0029	0.0009	20.4073	-28.4733	24.2924	0.5763	-0.3513	0.6817	0.2824
5.34	-9.4883	-0.1936	-1.7340	-0.0053	-0.0016	0.0020	20.2953	-28.5007	24.0099	0.5763	-0.3514	0.6817	0.2824
5.35	-9.4952	-0.2014	-1.7304	-0.0058	-0.0044	-0.0014	20.0809	-28.4881	24.2509	0.5763	-0.3515	0.6817	0.2824
5.36	-9.4871	-0.2003	-1.7240	-0.0127	0.0006	0.0036	20.2983	-28.5007	23.9565	0.5762	-0.3515	0.6816	0.2824
5.37	-9.4879	-0.1996	-1.7295	-0.0065	-0.0008	0.0028	20.4902	-28.5731	24.2228	0.5762	-0.3515	0.6817	0.2824
5.38	-9.4928	-0.1973	-1.7227	-0.0022	-0.0070	0.0002	20.2229	-28.4313	23.8691	0.5762	-0.3516	0.6816	0.2824
5.39	-9.4967	-0.1916	-1.7272	-0.0025	-0.0093	0.0079	20.5247	-28.6467	24.0001	0.5762	-0.3516	0.6816	0.2824
5.4	-9.4928	-0.1901	-1.7342	-0.0020	-0.0111	0.0043	20.6075	-28.7470	24.0289	0.5763	-0.3516	0.6817	0.2825
5.41	-9.4868	-0.1940	-1.7262	0.0023	-0.0053	0.0015	20.5263	-28.8558	23.9642	0.5762	-0.3516	0.6816	0.2824
5.42	-9.4948	-0.1954	-1.7385	-0.0076	-0.0041	0.0090	20.6539	-28.7315	24.2547	0.5762	-0.3517	0.6816	0.2825
5.43	-9.4828	-0.1989	-1.7351	-0.0002	-0.0040	0.0042	20.4927	-28.7451	24.1812	0.5762	-0.3516	0.6815	0.2824
5.44	-9.4883	-0.2020	-1.7444	0.0022	-0.0052	0.0063	20.4455	-28.7025	24.1051	0.5762	-0.3517	0.6816	0.2824
5.45	-9.4910	-0.2114	-1.7470	-0.0001	-0.0062	0.0060	20.4243	-28.5007	23.9497	0.5762	-0.3517	0.6816	0.2824
5.46	-9.4918	-0.2102	-1.7464	-0.0033	-0.0027	0.0081	20.2548	-28.7162	23.9172	0.5762	-0.3517	0.6816	0.2824
5.47	-9.4929	-0.2084	-1.7430	-0.0024	-0.0036	0.0033	20.4889	-28.9455	24.0637	0.5762	-0.3517	0.6816	0.2824
5.48	-9.4951	-0.2077	-1.7446	0.0065	-0.0057	-0.0014	20.2820	-28.7133	23.8632	0.5762	-0.3517	0.6816	0.2824
5.49	-9.4967	-0.1996	-1.7494	0.0010	-0.0095	-0.0006	20.3571	-28.4573	24.0842	0.5762	-0.3518	0.6816	0.2824
5.5	-9.4886	-0.1975	-1.7422	-0.0088	-0.0051	0.0045	20.2832	-28.5211	24.1123	0.5761	-0.3518	0.6815	0.2824
5.51	-9.4922	-0.2020	-1.7583	-0.0001	-0.0013	0.0068	20.2912	-28.3528	24.0086	0.5762	-0.3518	0.6816	0.2824
5.52	-9.4885	-0.2020	-1.7557	-0.0033	-0.0030	-0.0009	20.4003	-28.3474	23.9854	0.5762	-0.3519	0.6815	0.2824
5.53	-9.4919	-0.2020	-1.7534	0.0022	-0.0023	0.0033	20.2924	-28.4850	24.1675	0.5762	-0.3519	0.6816	0.2823
5.54	-9.4928	-0.2063	-1.7552	0.0026	-0.0007	0.0058	20.2488	-28.5898	24.2121	0.5761	-0.3519	0.6815	0.2823
5.55	-9.4901	-0.2046	-1.7529	-0.0008	-0.0003	0.0002	20.4576	-28.5482	24.0708	0.5761	-0.3519	0.6816	0.2823
5.56	-9.4945	-0.2020	-1.7528	-0.0070	-0.0017	0.0023	20.5155	-28.6303	24.1429	0.5761	-0.3520	0.6816	0.2823
5.57	-9.5008	-0.2018	-1.7470	0.0013	-0.0051	0.0040	20.2724	-28.6557	24.0811	0.5761	-0.3520	0.6815	0.2823
5.58	-9.4967	-0.1998	-1.7493	0.0052	-0.0072	0.0016	20.3525	-28.7578	24.1531	0.5762	-0.3520	0.6816	0.2823
5.59	-9.4924	-0.1943	-1.7467	0.0005	-0.0017	0.0010	20.3020	-28.8504	24.0434	0.5761	-0.3520	0.6815	0.2822
5.6	-9.4918	-0.1956	-1.7476	0.0036	-0.0044	0.0034	20.6282	-28.7580	24.0960	0.5762	-0.3521	0.6816	0.2822
5.61	-9.4901	-0.1948	-1.7449	0.0023	-0.0049	0.0015	20.5909	-28.6228	24.1302	0.5761	-0.3521	0.6815	0.2822
5.62	-9.4883	-0.1974	-1.7408	-0.0053	-0.0072	0.0035	20.6131	-28.6811	23.9994	0.5761	-0.3521	0.6815	0.2822
5.63	-9.4923	-0.1998	-1.7391	0.0010	-0.0034	0.0061	20.4300	-28.7525	24.2329	0.5761	-0.3521	0.6815	0.2822
5.64	-9.4954	-0.2004	-1.7292	0.0025	-0.0032	0.0107	20.4708	-28.7208	24.1088	0.5761	-0.3521	0.6815	0.2821
5.65	-9.4930	-0.1994	-1.7256	-0.0080	-0.0039	0.0051	20.3131	-28.8368	24.1252	0.5761	-0.3522	0.6816	0.2822
5.66	-9.4899	-0.1989	-1.7299	0.0023	-0.0007	0.0024	20.3230	-28.6867	24.2320	0.5761	-0.3522	0.6815	0.2822
5.67	-9.4928	-0.2010	-1.7228	-0.0020	-0.0061	0.0010	20.3206	-28.6018	24.1632	0.5761	-0.3522	0.6816	0.2822
5.68	-9.4847	-0.1980	-1.7257	-0.0047	-0.0036	0.0016	20.2516	-28.4721	24.3085	0.5760	-0.3522	0.6815	0.2821
5.69	-9.4863	-0.1982	-1.7301	-0.0096	0.0029	-0.0021	20.3931	-28.6081	24.1363	0.5761	-0.3523	0.6815	0.2821
5.7	-9.4864	-0.1977	-1.7306	-0.0067	-0.0045	0.0031	20.3504	-28.5191	23.9657	0.5760	-0.3524	0.6815	0.2821
5.71	-9.4906	-0.2028	-1.7338	-0.0083	-0.0039	0.0053	20.3696	-28.4610	24.1173	0.5760	-0.3524	0.6815	0.2821
5.72	-9.4921	-0.2054	-1.7382	-0.0043	-0.0039	-0.0013	20.3621	-28.6010	24.1039	0.5760	-0.3525	0.6815	0.2822
5.73	-9.4951	-0.2081	-1.7415	0.0015	-0.0025	0.0065	20.2343	-28.6650	24.1189	0.5760	-0.3525	0.6815	0.2821
5.74	-9.4872	-0.2075	-1.7397	-0.0022	0.0014	0.0050	20.4119	-28.4448	24.0878	0.5760	-0.3525	0.6815	0.2821
5.75	-9.4836	-0.2023	-1.7438	-0.0018	-0.0043	0.0090	20.8079	-28.2924	24.2025	0.5759	-0.3525	0.6814	0.2821
5.76	-9.4957	-0.2032	-1.7496	0.0056	-0.0059	0.0135	20.8156	-28.3301	24.1943	0.5760	-0.3525	0.6815	0.2821
5.77	-9.4948	-0.1992	-1.7463	0.0050	-0.0075	0.0011	20.6022	-28.5616	24.1877	0.5760	-0.3525	0.6815	0.2821
5.78	-9.4922	-0.1992	-1.7460	0.0059	-0.0130	0.0058	20.5779	-28.8109	24.1446	0.5760	-0.3525	0.6815	0.2821
5.79	-9.4924	-0.1969	-1.7469	0.0059	-0.0126	0.0117	20.6382	-28.7492	23.9616	0.5760	-0.3524	0.6815	0.2821
5.8	-9.4962	-0.2050	-1.7506	0.0043	-0.0057	0.0106	20.5847	-28.7105	24.0224	0.5760	-0.3524	0.6815	0.2821
5.81	-9.4953	-0.2076	-1.7478	0.0053	-0.0109	0.0080	20.5472	-28.6711	24.1005	0.5760	-0.3524	0.6815	0.2821
5.82	-9.4874	-0.2108	-1.7445	-0.0058	-0.0054	0.0038	20.4079	-28.5833	23.9789	0.5760	-0.3524	0.6814	0.2821
5.83	-9.4965	-0.2071	-1.7498	0.0030	-0.0026	0.0158	20.1693	-28.7879	23.9654	0.5760	-0.3525	0.6815	0.2821
5.84	-9.4850	-0.2065	-1.7437	0.0089	-0.0033	0.0031	20.4089	-28.5966	23.8701	0.5760	-0.3524	0.6815	0.2820
5.85	-9.4880	-0.2086	-1.7438	0.0040	-0.0076	0.0133	20.2989	-28.5839	24.1634	0.5761	-0.3524	0.6816	0.2821
5.86	-9.4950	-0.1994	-1.7487	0.0045	-0.0031	0.0081	20.3011	-28.7433	24.0688	0.5760	-0.3524	0.6815	0.2820
5.87	-9.4858	-0.1969	-1.7386	-0.0026	-0.0045	0.0086	20.3953	-28.5928	23.9408	0.5760	-0.3524	0.6815	0.2820
5.88	-9.4895	-0.1917	-1.7418	0.0021	-0.0065	0.0105	20.5555	-28.8255	24.0311	0.5760	-0.3524	0.6815	0.2821
5.89	-9.4946	-0.1923	-1.7443	0.0039	-0.0081	0.0058	20.4477	-28.7004	23.8710	0.5760	-0.3524	0.6815	0.2820
5.9	-9.4907	-0.1906	-1.7302	0.0019	-0.0073	0.0048	20.5886	-28.6361	23.9309	0.5761	-0.3524	0.6816	0.2820
5.91	-9.4902	-0.1932	-1.7275	0.0019	-0.0048	0.0035	20.4466	-28.7235	24.0985	0.5760	-0.3524	0.6815	0.2820
5.92	-9.4924	-0.1921	-1.7254	0.0011	-0.0066	0.0070	20.4102	-28.7227	23.8587	0.5761	-0.3524	0.6816	0.2820
5.93	-9.4890	-0.1909	-1.7273	0.0054	-0.0036	0.0097	20.4979	-28.6757	24.0039	0.5760	-0.3524	0.6815	0.2820
5.94	-9.4920	-0.1961	-1.7401	0.0055	-0.0073	0.0114	20.3362	-28.8847	23.8569	0.5760	-0.3524	0.6816	0.2820
5.95	-9.4922	-0.2000	-1.7483	0.0016	-0.0057	0.0093	20.4343	-28.7670	24.1346	0.5760	-0.3524	0.6816	0.2820
5.96	-9.4914	-0.2018	-1.7529	0.0033	-0.0091	0.0140	20.5238	-28.7505	24.1081	0.5760	-0.3523	0.6815	0.2820
5.97	-9.4919	-0.2042	-1.7568	0.0050	-0.0120	0.0171	20.5659	-28.8902	24.0472	0.5761	-0.3523	0.6816	0.2820
5.98	-9.4858	-0.1999	-1.7544	0.0040	-0.0087	0.0046	20.4982	-28.9046	23.9813	0.5761	-0.3523	0.6816	0.2820
5.99	-9.4937	-0.1993	-1.7484	0.0052	-0.0009	0.0078	20.4698	-28.9416	23.7871	0.5761	-0.3523	0.6816	0.2820
6	-9.4955	-0.2001	-1.7433	0.0037	-0.0087	0.0101	20.3915	-28.7702	23.9113	0.5760	-0.3522	0.6815	0.2820
6.01	-9.4900	-0.1942	-1.7285	0.0028	-0.0057	0.0103	20.2763	-28.7045	24.0669	0.5761	-0.3523	0.6816	0.2820
6.02	-9.4893	-0.1957	-1.7265	0.0001	-0.0082	0.0125	20.4661	-28.5875	23.8165	0.5760	-0.3522	0.6816	0.2820
6.03	-9.4956	-0.2035	-1.7342	0.0021	-0.0070	0.0078	20.4554	-28.7037	23.9987	0.5761	-0.3522	0.6816	0.2820
6.04	-9.4917	-0.2116	-1.7427	0.0020	-0.0091	0.0097	20.4671	-28.8053	23.9775	0.5761	-0.3522	0.6816	0.2820
6.05	-9.4876	-0.2158	-1.7482	0.0057	-0.0057	0.0102	20.6709	-28.6616	24.1116	0.5761	-0.3522	0.6816	0.2820
6.06	-9.4885	-0.2177	-1.7564	0.0062	-0.0034	0.0084	20.3715	-28.6037	24.0255	0.5761	-0.3522	0.6816	0.2820
6.07	-9.4867	-0.2179	-1.7527	0.0050	-0.0044	0.0078	20.4612	-28.7095	24.1849	0.5760	-0.3522	0.6816	0.2819
6.08	-9.4860	-0.2103	-1.7525	0.0052	-0.0129	0.0110	20.3541	-28.8133	24.0232	0.5761	-0.3522	0.6817	0.2820
6.09	-9.4901	-0.2011	-1.7515	-0.0005	-0.0012	0.0070	20.4306	-28.6477	24.1479	0.5761	-0.3522	0.6816	0.2819
6.1	-9.4939	-0.2001	-1.7453	0.0078	-0.0034	0.0080	20.4219	-28.8622	24.0908	0.5761	-0.3522	0.6817	0.2819
6.11	-9.4888	-0.2002	-1.7442	0.0148	-0.0044	0.0069	20.3470	-28.9007	24.0909	0.5761	-0.3521	0.6816	0.2818
6.12	-9.4900	-0.2049	-1.7369	-0.0020	-0.0085	0.0011	20.3198	-28.6306	23.7725	0.5761	-0.3521	0.6817	0.2818
6.13	-9.4968	-0.2058	-1.7380	0.0033	-0.0068	0.0131	20.4253	-28.6670	23.7805	0.5761	-0.3521	0.6817	0.2819
6.14	-9.4935	-0.2056	-1.7331	0.0068	-0.0090	0.0075	20.3171	-28.8025	24.0328	0.5761	-0.3521	0.6816	0.2818
6.15	-9.4844	-0.1993	-1.7192	0.0040	-0.0120	0.0043	20.8132	-28.7867	23.8710	0.5762	-0.3521	0.6817	0.2819
6.16	-9.4865	-0.1953	-1.7236	0.0030	-0.0087	0.0108	20.5722	-28.9169	23.7857	0.5762	-0.3521	0.6816	0.2818
6.17	-9.4909	-0.1922	-1.7243	0.0056	-0.0113	0.0153	20.4274	-28.7963	23.8912	0.5762	-0.3521	0.6817	0.2819
6.18	-9.4862	-0.1893	-1.7247	0.0107	-0.0090	0.0109	20.4832	-28.8027	23.8856	0.5761	-0.3520	0.6816	0.2818
6.19	-9.4926	-0.1884	-1.7308	0.0021	-0.0080	0.0099	20.3553	-28.6657	24.0357	0.5762	-0.3520	0.6817	0.2818
6.2	-9.4981	-0.1844	-1.7355	0.0088	-0.0059	0.0051	20.3864	-28.6465	23.8700	0.5762	-0.3520	0.6817	0.2818
6.21	-9.4908	-0.1878	-1.7411	0.0039	-0.0054	0.0092	20.4354	-28.8106	24.0709	0.5762	-0.3520	0.6817	0.2818
6.22	-9.4910	-0.1878	-1.7449	0.0021	-0.0099	0.0042	20.4921	-28.7846	23.9607	0.5762	-0.3520	0.6817	0.2818
6.23	-9.4944	-0.1881	-1.7475	-0.0025	-0.0044	0.0042	20.2966	-28.8047	24.0547	0.5762	-0.3520	0.6817	0.2818
6.24	-9.4921	-0.1965	-1.7483	0.0026	-0.0027	0.0068	20.3617	-28.7902	24.3982	0.5762	-0.3520	0.6817	0.2818
6.25	-9.4840	-0.1945	-1.7489	-0.0011	-0.0143	0.0070	20.7214	-28.7960	24.2258	0.5762	-0.3520	0.6816	0.2818
6.26	-9.4856	-0.1979	-1.7405	-0.0029	-0.0091	0.0040	20.6943	-28.7763	24.1633	0.5763	-0.3520	0.6817	0.2818
6.27	-9.4869	-0.1997	-1.7421	-0.0062	-0.0024	0.0026	20.5852	-28.5006	24.3455	0.5762	-0.3520	0.6816	0.2818
6.28	-9.4890	-0.1993	-1.7413	-0.0102	-0.0018	0.0027	20.3534	-28.3261	24.1555	0.5762	-0.3521	0.6816	0.2818
6.29	-9.4888	-0.2058	-1.7383	-0.0034	-0.0026	0.0071	20.3802	-28.4413	24.0929	0.5762	-0.3521	0.6816	0.2818
6.3	-9.4910	-0.2088	-1.7430	-0.0092	-0.0032	0.0107	20.2290	-28.6837	24.2517	0.5762	-0.3521	0.6816	0.2818
6.31	-9.4936	-0.2139	-1.7466	0.0003	-0.0035	0.0001	20.2442	-28.7279	24.1146	0.5762	-0.3522	0.6816	0.2818
6.32	-9.4924	-0.2167	-1.7417	-0.0007	-0.0104	0.0026	20.3736	-28.6012	24.1199	0.5761	-0.3522	0.6815	0.2818
6.33	-9.4895	-0.2144	-1.7435	0.0012	-0.0078	0.0018	20.4755	-28.6326	24.0880	0.5762	-0.3522	0.6816	0.2818
6.34	-9.4938	-0.2123	-1.7462	0.0045	-0.0098	-0.0004	20.5551	-28.9923	24.0479	0.5762	-0.3522	0.6815	0.2818
6.35	-9.4856	-0.2124	-1.7391	-0.0050	-0.0031	0.0027	20.5216	-28.8256	24.1856	0.5763	-0.3523	0.6816	0.2818
6.36	-9.4860	-0.2089	-1.7416	0.0027	-0.0032	0.0104	20.5441	-28.5720	23.8944	0.5762	-0.3522	0.6815	0.2817
6.37	-9.5009	-0.2145	-1.7502	0.0013	-0.0091	0.0032	20.5296	-28.7597	23.9810	0.5762	-0.3523	0.6815	0.2818
6.38	-9.4924	-0.2118	-1.7447	-0.0030	-0.0077	0.0027	20.5418	-28.7452	24.0540	0.5762	-0.3523	0.6815	0.2818
6.39	-9.4923	-0.2068	-1.7498	0.0031	-0.0060	-0.0011	20.5235	-28.6476	24.0007	0.5762	-0.3523	0.6815	0.2817
6.4	-9.4924	-0.2045	-1.7469	0.0006	-0.0058	0.0060	20.5500	-28.8398	24.1607	0.5763	-0.3524	0.6816	0.2817
6.41	-9.4896	-0.1964	-1.7465	0.0017	-0.0044	0.0023	20.4987	-28.6840	24.0705	0.5762	-0.3523	0.6815	0.2817
6.42	-9.4924	-0.1929	-1.7439	-0.0024	-0.0041	0.0001	20.3995	-28.5941	24.2177	0.5763	-0.3524	0.6815	0.2817
6.43	-9.4935	-0.1888	-1.7467	-0.0037	-0.0051	0.0035	20.2519	-28.6264	24.0872	0.5762	-0.3524	0.6814	0.2816
6.44	-9.4894	-0.1891	-1.7416	0.0016	-0.0053	0.0017	20.4546	-28.5148	24.0406	0.5762	-0.3524	0.6815	0.2817
6.45	-9.4884	-0.1898	-1.7423	-0.0022	-0.0023	0.0051	20.3586	-28.5272	24.1092	0.5762	-0.3525	0.6815	0.2816
6.46	-9.4884	-0.1916	-1.7384	-0.0080	-0.0005	0.0038	20.2632	-28.6046	24.1948	0.5762	-0.3525	0.6815	0.2816
6.47	-9.4942	-0.1939	-1.7437	-0.0043	-0.0039	0.0098	20.2923	-28.6307	24.0941	0.5762	-0.3525	0.6815	0.2817
6.48	-9.4871	-0.1958	-1.7391	-0.0025	-0.0012	0.0017	20.3268	-28.4847	23.8883	0.5762	-0.3525	0.6815	0.2817
6.49	-9.4883	-0.1969	-1.7400	0.0002	-0.0039	0.0002	20.3782	-28.6140	24.1503	0.5762	-0.3526	0.6815	0.2816
6.5	-9.4857	-0.1947	-1.7449	-0.0013	-0.0060	0.0010	20.4392	-28.6092	24.0769	0.5761	-0.3526	0.6814	0.2816
6.51	-9.4934	-0.1979	-1.7396	-0.0002	-0.0091	0.0086	20.5528	-28.6224	24.0595	0.5762	-0.3526	0.6815	0.2816
6.52	-9.4946	-0.1995	-1.7455	-0.0006	-0.0088	0.0016	20.5421	-28.5890	24.0954	0.5762	-0.3526	0.6814	0.2816
6.53	-9.4897	-0.1962	-1.7369	0.0025	-0.0089	0.0021	20.7155	-28.6874	23.9481	0.5762	-0.3527	0.6814	0.2816
6.54	-9.4903	-0.1943	-1.7403	0.0092	-0.0028	0.0029	20.6911	-28.6878	23.9193	0.5762	-0.3526	0.6814	0.2815
6.55	-9.4937	-0.1946	-1.7426	-0.0056	-0.0025	0.0074	20.4727	-28.5972	24.0037	0.5762	-0.3527	0.6814	0.2816
6.56	-9.4864	-0.1945	-1.7350	-0.0054	-0.0021	0.0109	20.4454	-28.7996	24.1427	0.5762	-0.3527	0.6815	0.2816
6.57	-9.4945	-0.1989	-1.7382	-0.0067	-0.0026	0.0068	20.4594	-28.6977	23.8005	0.5761	-0.3527	0.6814	0.2816
6.58	-9.4878	-0.2056	-1.7413	-0.0024	0.0012	0.0115	20.5483	-28.6821	23.9932	0.5761	-0.3527	0.6815	0.2816
6.59	-9.4845	-0.2080	-1.7339	-0.0103	-0.0030	0.0081	20.3870	-28.7331	24.1752	0.5761	-0.3527	0.6815	0.2816
6.6	-9.4895	-0.2139	-1.7387	-0.0030	-0.0039	0.0095	20.3674	-28.8214	24.0109	0.5761	-0.3528	0.6815	0.2817
6.61	-9.4900	-0.2083	-1.7405	-0.0020	-0.0018	0.0035	20.3797	-28.6652	24.1224	0.5760	-0.3528	0.6814	0.2816
6.62	-9.4900	-0.2069	-1.7370	0.0060	0.0039	-0.0002	20.3518	-28.7392	24.3330	0.5760	-0.3528	0.6815	0.2816
6.63	-9.4905	-0.2010	-1.7458	0.0011	-0.0002	0.0004	20.3944	-28.7776	24.2522	0.5760	-0.3529	0.6815	0.2815
6.64	-9.4923	-0.2061	-1.7487	-0.0054	-0.0009	0.0028	20.2818	-28.5221	24.0311	0.5760	-0.3529	0.6815	0.2815
6.65	-9.4918	-0.2059	-1.7493	-0.0035	-0.0009	-0.0004	20.3144	-28.5367	23.9025	0.5760	-0.3530	0.6815	0.2815
6.66	-9.4893	-0.2092	-1.7504	0.0001	-0.0049	0.0017	20.3758	-28.5377	24.2532	0.5760	-0.3530	0.6815	0.2815
6.67	-9.4929	-0.2093	-1.7480	-0.0085	-0.0009	0.0023	20.3837	-28.5280	24.2589	0.5760	-0.3530	0.6815	0.2815
6.68	-9.4891	-0.2023	-1.7439	-0.0031	-0.0027	0.0052	20.2678	-28.5472	23.9912	0.5759	-0.3530	0.6814	0.2815
6.69	-9.4918	-0.2032	-1.7480	-0.0015	-0.0014	0.0069	20.4377	-28.5055	24.0333	0.5759	-0.3531	0.6815	0.2815
6.7	-9.4889	-0.2018	-1.7465	-0.0008	-0.0103	0.0108	20.3990	-28.6093	24.0100	0.5759	-0.3531	0.6815	0.2815
6.71	-9.4931	-0.2044	-1.7433	-0.0010	-0.0079	0.0033	20.4288	-28.8186	24.0967	0.5759	-0.3531	0.6814	0.2815
6.72	-9.4908	-0.2032	-1.7388	0.0049	-0.0029	0.0076	20.4588	-28.6614	24.1473	0.5759	-0.3531	0.6815	0.2815
6.73	-9.4851	-0.2103	-1.7334	0.0057	-0.0023	0.0038	20.4677	-28.7369	24.0559	0.5759	-0.3531	0.6815	0.2815
6.74	-9.4931	-0.2067	-1.7370	-0.0002	-0.0027	0.0079	20.5915	-28.8027	24.0712	0.5759	-0.3531	0.6815	0.2815
6.75	-9.4928	-0.1964	-1.7336	0.0030	-0.0057	0.0064	20.7613	-28.6847	24.2327	0.5759	-0.3531	0.6814	0.2814
6.76	-9.4916	-0.1900	-1.7332	0.0022	-0.0090	0.0027	20.8868	-28.6806	23.9936	0.5760	-0.3531	0.6815	0.2815
6.77	-9.4884	-0.1865	-1.7463	0.0057	-0.0063	0.0108	20.6460	-28.7792	23.9853	0.5759	-0.3531	0.6815	0.2814
6.78	-9.4905	-0.1878	-1.7484	0.0057	-0.0079	0.0077	20.6791	-28.5628	24.0310	0.5760	-0.3531	0.6815	0.2814
6.79	-9.4907	-0.1934	-1.7533	0.0054	-0.0097	0.0117	20.5068	-28.7570	23.9058	0.5759	-0.3530	0.6815	0.2814
6.8	-9.4886	-0.1947	-1.7532	0.0025	-0.0067	0.0100	20.4970	-28.8315	23.8100	0.5760	-0.3530	0.6815	0.2814
6.81	-9.4925	-0.1999	-1.7527	-0.0008	-0.0092	0.0079	20.5395	-28.7232	24.0131	0.5760	-0.3530	0.6815	0.2814
6.82	-9.4907	-0.2003	-1.7421	0.0034	-0.0091	0.0088	20.3419	-28.7653	23.9700	0.5759	-0.3530	0.6814	0.2814
6.83	-9.4927	-0.2009	-1.7312	0.0054	-0.0074	0.0061	20.4233	-28.7610	24.1295	0.5760	-0.3530	0.6815	0.2814
6.84	-9.4948	-0.1990	-1.7286	0.0011	-0.0067	0.0052	20.4434	-28.5885	24.1565	0.5760	-0.3530	0.6815	0.2814
6.85	-9.4943	-0.1997	-1.7368	0.0020	-0.0086	0.0105	20.2988	-28.6641	23.9823	0.5761	-0.3530	0.6815	0.2814
6.86	-9.4918	-0.2048	-1.7495	0.0022	-0.0038	0.0032	20.3736	-28.6708	23.9920	0.5760	-0.3530	0.6814	0.2814
6.87	-9.4905	-0.2032	-1.7534	0.0038	-0.0018	0.0093	20.3081	-28.5915	24.1094	0.5760	-0.3530	0.6815	0.2814
6.88	-9.4897	-0.2036	-1.7521	0.0042	-0.0108	0.0074	20.4184	-28.7101	23.8401	0.5760	-0.3530	0.6815	0.2814
6.89	-9.4851	-0.1992	-1.7489	0.0054	-0.0078	0.0130	20.3567	-28.6410	23.8664	0.5760	-0.3529	0.6815	0.2814
6.9	-9.4933	-0.1907	-1.7466	0.0047	-0.0105	0.0104	20.5845	-28.7887	24.0472	0.5761	-0.3530	0.6816	0.2814
6.91	-9.4938	-0.1914	-1.7492	0.0070	-0.0106	0.0082	20.5151	-28.7177	23.9443	0.5761	-0.3529	0.6815	0.2814
6.92	-9.4894	-0.1910	-1.7396	0.0018	-0.0091	0.0116	20.3937	-28.8341	23.8960	0.5761	-0.3529	0.6815	0.2814
6.93	-9.4852	-0.1989	-1.7358	0.0049	-0.0128	0.0121	20.3833	-28.8367	23.9277	0.5761	-0.3528	0.6814	0.2814
6.94	-9.4895	-0.2032	-1.7298	0.0078	-0.0084	0.0123	20.3885	-28.7443	23.7712	0.5761	-0.3528	0.6815	0.2814
6.95	-9.4982	-0.2121	-1.7321	0.0060	-0.0068	0.0151	20.4071	-28.7356	23.9115	0.5761	-0.3528	0.6815	0.2814
6.96	-9.4890	-0.2167	-1.7245	0.0042	-0.0151	0.0078	20.5699	-28.5625	24.1162	0.5761	-0.3527	0.6815	0.2814
6.97	-9.4855	-0.2140	-1.7178	0.0079	-0.0079	0.0134	20.4295	-28.6904	23.9627	0.5762	-0.3527	0.6815	0.2814
6.98	-9.4952	-0.2151	-1.7239	0.0017	-0.0168	0.0118	20.5174	-28.7806	24.0357	0.5762	-0.3527	0.6815	0.2814
6.99	-9.4852	-0.2061	-1.7297	0.0067	-0.0105	0.0090	20.5098	-28.5029	24.1158	0.5762	-0.3527	0.6815	0.2814
7	-9.4881	-0.2005	-1.7316	0.0006	-0.0039	0.0076	20.3652	-28.5793	23.9655	0.5762	-0.3526	0.6814	0.2814
7.01	-9.4921	-0.1987	-1.7385	0.0004	-0.0111	0.0044	20.3850	-28.7946	24.1255	0.5763	-0.3527	0.6815	0.2814
7.02	-9.4884	-0.2013	-1.7387	0.0003	-0.0136	0.0066	20.3895	-28.7325	24.0212	0.5763	-0.3526	0.6814	0.2814
7.03	-9.4901	-0.2028	-1.7425	-0.0023	-0.0082	0.0133	20.3628	-28.5414	23.9895	0.5763	-0.3526	0.6815	0.2814
7.04	-9.4901	-0.2074	-1.7490	-0.0015	-0.0108	0.0071	20.4992	-28.8961	23.9037	0.5762	-0.3526	0.6814	0.2815
7.05	-9.4984	-0.2095	-1.7545	0.0023	-0.0092	0.0075	20.4113	-28.7501	24.0509	0.5763	-0.3526	0.6814	0.2815
7.06	-9.4878	-0.2095	-1.7466	0.0026	-0.0088	0.0115	20.4203	-28.5123	24.0626	0.5763	-0.3526	0.6814	0.2815
7.07	-9.4952	-0.2073	-1.7550	-0.0000	-0.0169	0.0087	20.4925	-28.6977	23.8627	0.5763	-0.3526	0.6814	0.2815
7.08	-9.5012	-0.2003	-1.7532	0.0003	-0.0188	0.0121	20.3607	-28.7528	23.9575	0.5764	-0.3526	0.6814	0.2815
7.09	-9.4897	-0.1936	-1.7467	-0.0008	-0.0054	0.0117	20.3962	-28.6240	24.1130	0.5763	-0.3525	0.6814	0.2815
7.1	-9.4908	-0.1894	-1.7404	0.0030	-0.0100	0.0108	20.6068	-28.5500	24.0514	0.5764	-0.3526	0.6814	0.2816
7.11	-9.4936	-0.1946	-1.7473	0.0034	-0.0132	0.0059	20.6499	-28.7664	23.6861	0.5764	-0.3525	0.6813	0.2815
7.12	-9.4986	-0.2028	-1.7505	0.0046	-0.0085	0.0081	20.5078	-28.8562	23.8057	0.5764	-0.3525	0.6814	0.2815
7.13	-9.4876	-0.2005	-1.7467	0.0112	-0.0119	0.0080	20.2644	-28.8078	24.1214	0.5764	-0.3525	0.6814	0.2815
7.14	-9.4926	-0.2030	-1.7496	0.0025	-0.0128	0.0093	20.4527	-28.6373	24.0528	0.5764	-0.3524	0.6813	0.2815
7.15	-9.4960	-0.1981	-1.7529	0.0018	-0.0092	0.0090	20.5561	-28.8888	24.1187	0.5765	-0.3524	0.6814	0.2816
7.16	-9.4933	-0.1932	-1.7508	0.0049	-0.0086	0.0086	20.4209	-28.7681	24.0411	0.5765	-0.3524	0.6813	0.2815
7.17	-9.4918	-0.1941	-1.7453	0.0058	-0.0166	0.0085	20.3099	-28.5842	23.9595	0.5766	-0.3524	0.6814	0.2815
7.18	-9.4950	-0.1904	-1.7468	0.0054	-0.0136	0.0067	20.3015	-28.5841	24.0884	0.5765	-0.3523	0.6812	0.2815
7.19	-9.4885	-0.1972	-1.7455	0.0058	-0.0049	0.0086	20.3870	-28.7167	24.0744	0.5766	-0.3523	0.6813	0.2815
7.2	-9.4858	-0.2014	-1.7450	0.0039	-0.0116	0.0012	20.4097	-28.5867	23.9174	0.5766	-0.3523	0.6813	0.2815
7.21	-9.4910	-0.1993	-1.7469	0.0009	-0.0115	0.0076	20.2859	-28.3989	23.8827	0.5766	-0.3523	0.6813	0.2815
7.22	-9.4903	-0.2014	-1.7430	0.0031	-0.0109	0.0086	20.4262	-28.5201	24.0035	0.5766	-0.3523	0.6813	0.2815
7.23	-9.4898	-0.1981	-1.7489	-0.0003	-0.0077	0.0076	20.3023	-28.7653	23.8590	0.5766	-0.3523	0.6813	0.2815
7.24	-9.4985	-0.2028	-1.7490	-0.0024	-0.0026	0.0054	20.4695	-28.6908	24.0072	0.5766	-0.3523	0.6813	0.2815
7.25	-9.4920	-0.2013	-1.7466	0.0032	-0.0098	0.0121	20.9306	-28.6529	24.2995	0.5766	-0.3523	0.6812	0.2815
7.26	-9.4874	-0.2039	-1.7391	0.0017	-0.0061	0.0091	20.8040	-28.7558	24.3384	0.5767	-0.3523	0.6813	0.2815
7.27	-9.4897	-0.2061	-1.7401	0.0004	-0.0053	-0.0006	20.7096	-28.5872	24.0122	0.5766	-0.3523	0.6812	0.2815
7.28	-9.4980	-0.2026	-1.7398	0.0019	-0.0096	0.0087	20.6005	-28.5201	24.1711	0.5767	-0.3523	0.6813	0.2815
7.29	-9.4884	-0.2042	-1.7337	0.0008	-0.0081	0.0030	20.5240	-28.6131	23.9355	0.5767	-0.3523	0.6812	0.2815
7.3	-9.4859	-0.2049	-1.7360	0.0030	-0.0032	0.0032	20.4989	-28.7346	23.8532	0.5767	-0.3523	0.6812	0.2815
7.31	-9.4891	-0.2060	-1.7365	0.0018	-0.0071	0.0027	20.4315	-28.8893	23.8796	0.5767	-0.3524	0.6812	0.2815
7.32	-9.4947	-0.2098	-1.7412	0.0007	-0.0068	0.0051	20.4485	-28.7762	23.8663	0.5766	-0.3523	0.6812	0.2814
7.33	-9.4914	-0.2053	-1.7362	0.0029	-0.0082	0.0033	20.3647	-28.8312	23.8684	0.5767	-0.3524	0.6813	0.2815
7.34	-9.4892	-0.2016	-1.7367	0.0035	-0.0088	0.0035	20.4718	-28.8408	23.8846	0.5767	-0.3524	0.6812	0.2814
7.35	-9.4938	-0.2021	-1.7441	0.0067	-0.0110	0.0047	20.4231	-28.7956	24.0997	0.5768	-0.3524	0.6812	0.2814
7.36	-9.4909	-0.2015	-1.7393	0.0013	-0.0097	0.0061	20.5165	-28.7010	24.2554	0.5767	-0.3523	0.6811	0.2814
7.37	-9.4908	-0.2004	-1.7424	0.0020	-0.0100	0.0054	20.4253	-28.4098	24.0411	0.5768	-0.3523	0.6812	0.2814
7.38	-9.4926	-0.1982	-1.7404	0.0023	-0.0043	0.0050	20.2671	-28.4773	23.9003	0.5768	-0.3524	0.6812	0.2814
7.39	-9.4929	-0.2012	-1.7404	-0.0038	-0.0076	0.0047	20.3704	-28.5219	24.0370	0.5768	-0.3523	0.6811	0.2814
7.4	-9.4914	-0.2045	-1.7417	-0.0068	-0.0124	0.0040	20.3279	-28.6565	24.0455	0.5768	-0.3524	0.6812	0.2814
7.41	-9.4971	-0.2048	-1.7471	0.0027	-0.0065	0.0030	20.3085	-28.4958	24.2936	0.5768	-0.3524	0.6811	0.2814
7.42	-9.4920	-0.2024	-1.7477	0.0019	-0.0021	0.0028	20.3193	-28.6330	24.0539	0.5768	-0.3524	0.6812	0.2814
7.43	-9.4884	-0.1993	-1.7440	-0.0049	-0.0036	-0.0005	20.2605	-28.6296	24.0251	0.5768	-0.3524	0.6810	0.2814
7.44	-9.4908	-0.1953	-1.7385	0.0056	-0.0067	0.0013	20.3749	-28.6324	24.0449	0.5768	-0.3525	0.6811	0.2814
7.45	-9.4924	-0.1939	-1.7391	0.0048	-0.0092	0.0072	20.2424	-28.7889	24.0290	0.5768	-0.3525	0.6811	0.2813
7.46	-9.4950	-0.1986	-1.7433	0.0003	-0.0048	0.0100	20.5783	-28.7949	23.7703	0.5768	-0.3524	0.6811	0.2813
7.47	-9.4910	-0.2023	-1.7380	0.0043	-0.0094	0.0047	20.3918	-28.7107	23.8804	0.5769	-0.3525	0.6811	0.2813
7.48	-9.4944	-0.2059	-1.7360	-0.0033	-0.0108	0.0027	20.3982	-28.6936	24.1099	0.5769	-0.3525	0.6811	0.2813
7.49	-9.4999	-0.2038	-1.7434	0.0004	-0.0075	0.0068	20.4165	-28.7738	23.9495	0.5769	-0.3525	0.6811	0.2814
7.5	-9.4894	-0.2020	-1.7425	-0.0017	-0.0056	-0.0038	20.2609	-28.8150	23.9667	0.5768	-0.3525	0.6810	0.2813
7.51	-9.4855	-0.2014	-1.7359	0.0018	-0.0077	0.0044	20.3782	-28.5822	23.9241	0.5769	-0.3525	0.6810	0.2813
7.52	-9.4950	-0.2020	-1.7427	0.0026	-0.0065	0.0038	20.3839	-28.6728	23.8522	0.5769	-0.3525	0.6810	0.2813
7.53	-9.4935	-0.2025	-1.7456	-0.0035	-0.0069	0.0008	20.5306	-28.7876	23.8626	0.5769	-0.3526	0.6810	0.2813
7.54	-9.4839	-0.2038	-1.7332	0.0041	-0.0054	0.0135	20.5382	-28.7986	23.9783	0.5769	-0.3525	0.6810	0.2813
7.55	-9.4866	-0.2044	-1.7445	-0.0018	-0.0026	0.0112	20.2596	-28.6677	23.9175	0.5769	-0.3525	0.6810	0.2813
7.56	-9.4960	-0.2026	-1.7412	-0.0058	-0.0076	0.0032	20.3816	-28.6042	23.8433	0.5769	-0.3526	0.6810	0.2813
7.57	-9.4902	-0.2039	-1.7422	-0.0063	-0.0078	0.0074	20.1998	-28.7152	23.8636	0.5768	-0.3526	0.6809	0.2813
7.58	-9.4897	-0.2010	-1.7403	-0.0089	-0.0024	0.0115	20.2246	-28.7231	23.9691	0.5769	-0.3526	0.6810	0.2814
7.59	-9.4931	-0.1963	-1.7461	-0.0120	-0.0050	0.0014	20.2610	-28.5580	23.9250	0.5768	-0.3526	0.6810	0.2814
7.6	-9.4952	-0.1914	-1.7449	-0.0181	-0.0144	-0.0011	20.2125	-28.5865	24.0199	0.5769	-0.3528	0.6810	0.2815
7.61	-9.4903	-0.1995	-1.7436	-0.0075	-0.0048	-0.0013	20.4108	-28.8249	24.0552	0.5768	-0.3528	0.6808	0.2815
7.62	-9.4852	-0.2031	-1.7369	-0.0012	-0.0034	-0.0016	20.3062	-28.7704	24.0319	0.5768	-0.3528	0.6809	0.2814
7.63	-9.4907	-0.2060	-1.7363	-0.0121	-0.0099	0.0008	20.1363	-28.5048	23.8552	0.5768	-0.3529	0.6808	0.2815
7.64	-9.4859	-0.2013	-1.7390	-0.0076	-0.0071	0.0009	20.3765	-28.7078	23.9190	0.5768	-0.3529	0.6808	0.2815
7.65	-9.4862	-0.1985	-1.7383	-0.0055	-0.0107	0.0071	20.3412	-28.8049	24.1850	0.5769	-0.3530	0.6808	0.2815
7.66	-9.4967	-0.1953	-1.7512	-0.0043	-0.0129	0.0084	20.5277	-28.6784	23.9381	0.5768	-0.3529	0.6807	0.2815
7.67	-9.4912	-0.1954	-1.7514	-0.0084	-0.0069	0.0050	20.4505	-28.7281	24.0413	0.5769	-0.3530	0.6808	0.2816
7.68	-9.4933	-0.1965	-1.7555	-0.0090	-0.0141	0.0029	20.4589	-28.6927	23.9611	0.5768	-0.3530	0.6806	0.2816
7.69	-9.4976	-0.1941	-1.7603	-0.0088	-0.0085	0.0051	20.2953	-28.8335	23.8396	0.5768	-0.3530	0.6807	0.2816
7.7	-9.4923	-0.1943	-1.7444	-0.0091	-0.0112	0.0024	20.3635	-28.7500	24.0617	0.5768	-0.3531	0.6806	0.2817
7.71	-9.4923	-0.1888	-1.7376	-0.0093	-0.0160	0.0080	20.4821	-28.9431	23.9686	0.5768	-0.3531	0.6806	0.2817
7.72	-9.4913	-0.1901	-1.7273	-0.0092	-0.0103	0.0055	20.3475	-28.9831	23.9556	0.5769	-0.3531	0.6806	0.2818
7.73	-9.4946	-0.1950	-1.7288	-0.0057	-0.0139	0.0061	20.3417	-28.6766	23.9577	0.5769	-0.3531	0.6805	0.2818
7.74	-9.4855	-0.2006	-1.7411	-0.0060	-0.0068	0.0085	20.2695	-28.6214	24.1739	0.5769	-0.3532	0.6805	0.2818
7.75	-9.4916	-0.2074	-1.7484	-0.0039	-0.0064	0.0028	20.5563	-28.6308	24.2494	0.5768	-0.3531	0.6804	0.2818
7.76	-9.4935	-0.2166	-1.7514	-0.0021	-0.0126	0.0092	20.4786	-28.5296	24.1721	0.5769	-0.3532	0.6805	0.2819
7.77	-9.4875	-0.2124	-1.7525	-0.0074	-0.0105	0.0072	20.5976	-28.5843	24.2486	0.5769	-0.3532	0.6804	0.2819
7.78	-9.4897	-0.2042	-1.7527	-0.0029	-0.0100	0.0090	20.5329	-28.6159	23.9160	0.5769	-0.3532	0.6804	0.2819
7.79	-9.4921	-0.1942	-1.7507	-0.0033	-0.0088	0.0037	20.3716	-28.7268	23.8279	0.5769	-0.3532	0.6804	0.2819
7.8	-9.4922	-0.1838	-1.7419	-0.0057	-0.0089	0.0102	20.3626	-28.6249	24.0092	0.5769	-0.3532	0.6804	0.2820
7.81	-9.4889	-0.1824	-1.7396	-0.0022	-0.0121	0.0110	20.3043	-28.5378	23.8379	0.5769	-0.3532	0.6804	0.2820
7.82	-9.4920	-0.1856	-1.7403	-0.0041	-0.0113	0.0153	20.5643	-28.6714	24.0077	0.5768	-0.3532	0.6803	0.2820
7.83	-9.4912	-0.1987	-1.7359	0.0009	-0.0176	0.0124	20.5379	-28.6275	23.9931	0.5769	-0.3532	0.6804	0.2821
7.84	-9.4867	-0.2121	-1.7272	-0.0021	-0.0124	0.0116	20.5472	-28.5757	23.8262	0.5769	-0.3531	0.6803	0.2821
7.85	-9.4919	-0.2166	-1.7282	-0.0055	-0.0102	0.0139	20.5476	-28.7467	24.1051	0.5770	-0.3532	0.6804	0.2822
7.86	-9.4931	-0.2188	-1.7293	-0.0024	-0.0082	0.0096	20.5336	-28.7406	23.8800	0.5769	-0.3531	0.6803	0.2822
7.87	-9.4880	-0.2146	-1.7258	-0.0009	-0.0125	0.0135	20.5721	-28.6059	23.8370	0.5769	-0.3531	0.6803	0.2822
7.88	-9.4845	-0.2074	-1.7175	-0.0081	-0.0103	0.0094	20.4769	-28.5662	24.0677	0.5769	-0.3531	0.6803	0.2823
7.89	-9.4946	-0.1959	-1.7315	-0.0067	-0.0096	0.0114	20.4758	-28.5597	23.8664	0.5769	-0.3531	0.6802	0.2823
7.9	-9.4941	-0.1902	-1.7307	0.0020	-0.0122	0.0090	20.3481	-28.6913	23.9265	0.5770	-0.3531	0.6803	0.2824
7.91	-9.4859	-0.1877	-1.7332	-0.0018	-0.0122	0.0062	20.4634	-28.4715	24.0044	0.5769	-0.3531	0.6802	0.2823
7.92	-9.4937	-0.1883	-1.7417	0.0052	-0.0112	0.0125	20.7727	-28.6073	23.9811	0.5770	-0.3531	0.6803	0.2824
7.93	-9.4978	-0.1947	-1.7460	-0.0006	-0.0020	0.0070	20.5125	-28.6800	24.0104	0.5769	-0.3530	0.6802	0.2823
7.94	-9.4887	-0.1953	-1.7448	0.0025	-0.0132	0.0112	20.4589	-28.5346	23.9530	0.5770	-0.3531	0.6802	0.2824
7.95	-9.4895	-0.2004	-1.7521	-0.0047	-0.0105	0.0073	20.6172	-28.7617	24.0753	0.5770	-0.3530	0.6802	0.2824
7.96	-9.4949	-0.1995	-1.7596	-0.0122	-0.0047	0.0066	20.6176	-28.6534	24.0161	0.5769	-0.3531	0.6802	0.2824
7.97	-9.4898	-0.2017	-1.7578	-0.0035	-0.0103	0.0053	20.6411	-28.5677	23.8903	0.5770	-0.3531	0.6802	0.2825
7.98	-9.4901	-0.1974	-1.7517	-0.0004	-0.0159	0.0099	20.5827	-28.6739	24.0250	0.5770	-0.3531	0.6801	0.2825
7.99	-9.4944	-0.1983	-1.7534	-0.0053	-0.0134	0.0112	20.3484	-28.6508	23.9722	0.5770	-0.3531	0.6801	0.2826
8	-9.4951	-0.2019	-1.7515	-0.0017	-0.0100	0.0115	20.4727	-28.6586	24.0038	0.5770	-0.3530	0.6801	0.2826
8.01	-9.4957	-0.2058	-1.7494	0.0001	-0.0121	0.0145	20.5524	-28.5556	23.8716	0.5770	-0.3531	0.6801	0.2826
8.02	-9.4942	-0.2122	-1.7495	-0.0038	-0.0156	0.0143	20.7039	-28.7123	23.9462	0.5770	-0.3530	0.6801	0.2827
8.03	-9.4964	-0.2112	-1.7556	-0.0016	-0.0152	0.0082	20.6459	-28.5292	24.0823	0.5771	-0.3530	0.6801	0.2827
8.04	-9.4843	-0.2022	-1.7494	-0.0036	-0.0129	0.0119	20.5230	-28.7769	24.0849	0.5771	-0.3530	0.6800	0.2827
8.05	-9.4854	-0.1992	-1.7433	-0.0048	-0.0107	0.0124	20.6672	-28.7949	23.8387	0.5771	-0.3530	0.6800	0.2828
8.06	-9.4953	-0.1912	-1.7435	0.0035	-0.0106	0.0118	20.5662	-28.5294	24.0048	0.5771	-0.3530	0.6800	0.2828
8.07	-9.4877	-0.1871	-1.7409	-0.0003	-0.0058	0.0112	20.5176	-28.6671	23.8983	0.5770	-0.3529	0.6800	0.2828
8.08	-9.4893	-0.1887	-1.7360	-0.0025	-0.0147	0.0073	20.5871	-28.6413	23.9164	0.5771	-0.3530	0.6800	0.2829
8.09	-9.4913	-0.1992	-1.7404	-0.0001	-0.0076	0.0083	20.5937	-28.6703	24.0221	0.5771	-0.3529	0.6800	0.2829
8.1	-9.4930	-0.2075	-1.7413	0.0050	-0.0113	0.0109	20.5204	-28.6155	23.9728	0.5772	-0.3529	0.6800	0.2829
8.11	-9.4894	-0.2102	-1.7442	0.0027	-0.0122	0.0047	20.6311	-28.8577	24.0204	0.5771	-0.3529	0.6799	0.2828
8.12	-9.4882	-0.2079	-1.7457	0.0019	-0.0037	0.0084	20.4255	-28.6522	23.8441	0.5771	-0.3529	0.6800	0.2829
8.13	-9.4917	-0.2015	-1.7405	0.0047	-0.0018	0.0088	20.3264	-28.5774	23.9950	0.5771	-0.3529	0.6800	0.2828
8.14	-9.4870	-0.1974	-1.7360	0.0003	-0.0005	0.0081	20.5715	-28.7703	23.8993	0.5771	-0.3529	0.6800	0.2828
8.15	-9.4892	-0.1928	-1.7348	-0.0031	-0.0113	0.0104	20.4954	-28.6249	24.0169	0.5772	-0.3529	0.6801	0.2829
8.16	-9.4897	-0.1924	-1.7431	-0.0008	-0.0021	0.0093	20.4024	-28.6788	24.2196	0.5771	-0.3529	0.6800	0.2829
8.17	-9.4853	-0.1939	-1.7334	-0.0009	-0.0118	0.0028	20.6174	-28.6321	24.1270	0.5771	-0.3529	0.6800	0.2829
8.18	-9.4829	-0.1980	-1.7292	-0.0020	-0.0077	0.0135	20.3486	-28.6807	24.2174	0.5771	-0.3529	0.6799	0.2829
8.19	-9.4932	-0.2003	-1.7324	-0.0009	-0.0093	0.0084	20.3800	-28.7208	23.8611	0.5771	-0.3529	0.6800	0.2829
8.2	-9.4911	-0.2068	-1.7309	-0.0026	-0.0087	0.0098	20.4390	-28.6434	24.0582	0.5771	-0.3529	0.6800	0.2830
8.21	-9.4903	-0.2049	-1.7327	-0.0012	-0.0136	0.0099	20.7086	-28.6498	24.2355	0.5771	-0.3529	0.6799	0.2830
8.22	-9.4982	-0.2048	-1.7358	-0.0020	-0.0150	0.0086	20.7158	-28.5737	23.9453	0.5772	-0.3529	0.6799	0.2830
8.23	-9.4952	-0.2075	-1.7415	0.0054	-0.0032	0.0126	20.5487	-29.0228	24.0214	0.5771	-0.3528	0.6799	0.2830
8.24	-9.4846	-0.2061	-1.7407	-0.0047	-0.0094	0.0107	20.6213	-28.7270	24.0101	0.5772	-0.3528	0.6800	0.2831
8.25	-9.4803	-0.2109	-1.7384	0.0012	-0.0103	0.0053	20.8856	-28.3818	24.2794	0.5771	-0.3528	0.6799	0.2830
8.26	-9.4894	-0.2114	-1.7428	0.0021	-0.0064	0.0029	20.8393	-28.2037	24.3343	0.5772	-0.3528	0.6799	0.2831
8.27	-9.4954	-0.2103	-1.7492	-0.0002	-0.0024	0.0074	20.6523	-28.5603	24.1076	0.5771	-0.3528	0.6799	0.2831
8.28	-9.4878	-0.2038	-1.7480	0.0045	-0.0027	0.0024	20.5343	-28.6888	23.9713	0.5772	-0.3529	0.6799	0.2830
8.29	-9.4932	-0.2052	-1.7443	0.0013	-0.0086	0.0071	20.4603	-28.5777	23.9588	0.5771	-0.3528	0.6799	0.2830
8.3	-9.4915	-0.1995	-1.7438	-0.0029	-0.0102	0.0017	20.2235	-28.4231	23.9528	0.5772	-0.3529	0.6799	0.2830
8.31	-9.4887	-0.1957	-1.7431	-0.0066	-0.0007	0.0004	20.2621	-28.5288	24.1323	0.5772	-0.3529	0.6799	0.2830
8.32	-9.4875	-0.1928	-1.7490	-0.0039	-0.0009	0.0063	20.3275	-28.5543	24.0533	0.5771	-0.3529	0.6798	0.2830
8.33	-9.4965	-0.1969	-1.7556	0.0007	0.0010	-0.0002	20.1794	-28.5349	23.9141	0.5771	-0.3530	0.6799	0.2830
8.34	-9.4951	-0.2005	-1.7498	0.0003	-0.0046	0.0051	20.2794	-28.5712	23.9975	0.5771	-0.3530	0.6799	0.2830
8.35	-9.4880	-0.1985	-1.7459	-0.0060	-0.0060	0.0059	20.2998	-28.7111	24.0704	0.5771	-0.3530	0.6799	0.2830
8.36	-9.4876	-0.1984	-1.7442	-0.0066	-0.0001	0.0025	20.3147	-28.7207	24.0131	0.5770	-0.3530	0.6798	0.2830
8.37	-9.4930	-0.1977	-1.7489	-0.0071	-0.0012	0.0009	20.2600	-28.4694	24.0810	0.5770	-0.3531	0.6799	0.2830
8.38	-9.4827	-0.1931	-1.7361	-0.0038	-0.0062	-0.0021	20.2395	-28.4937	23.9183	0.5770	-0.3532	0.6799	0.2830
8.39	-9.4875	-0.1917	-1.7332	0.0008	-0.0089	0.0028	20.4027	-28.6696	23.8253	0.5770	-0.3531	0.6798	0.2830
8.4	-9.5007	-0.1924	-1.7387	-0.0002	-0.0042	0.0090	20.3723	-29.0383	24.1032	0.5771	-0.3532	0.6799	0.2831
8.41	-9.4868	-0.1959	-1.7354	-0.0009	-0.0070	0.0053	20.6540	-28.8396	23.8797	0.5770	-0.3532	0.6798	0.2830
8.42	-9.4864	-0.1949	-1.7340	-0.0029	0.0003	0.0055	20.7499	-28.8059	23.9209	0.5771	-0.3532	0.6799	0.2830
8.43	-9.4950	-0.2008	-1.7386	-0.0011	-0.0074	0.0039	20.5290	-28.9814	24.0941	0.5770	-0.3532	0.6798	0.2830
8.44	-9.4949	-0.2035	-1.7439	-0.0064	-0.0086	0.0037	20.3407	-28.8373	23.9944	0.5770	-0.3532	0.6798	0.2831
8.45	-9.4855	-0.2038	-1.7376	-0.0024	-0.0070	0.0054	20.4201	-28.8984	24.0000	0.5770	-0.3532	0.6798	0.2831
8.46	-9.4920	-0.2044	-1.7426	-0.0047	-0.0039	0.0057	20.2892	-28.8136	24.0805	0.5770	-0.3533	0.6798	0.2831
8.47	-9.4916	-0.2082	-1.7416	-0.0015	-0.0098	0.0051	20.3186	-28.5931	23.8390	0.5770	-0.3533	0.6798	0.2831
8.48	-9.4916	-0.2051	-1.7437	-0.0076	-0.0101	0.0063	20.3938	-28.6582	23.9934	0.5770	-0.3533	0.6797	0.2831
8.49	-9.4869	-0.2034	-1.7440	-0.0047	-0.0012	0.0043	20.3870	-28.7427	23.9317	0.5770	-0.3533	0.6798	0.2831
8.5	-9.4933	-0.2068	-1.7482	-0.0101	-0.0095	0.0041	20.3634	-28.6132	24.0356	0.5770	-0.3533	0.6797	0.2831
8.51	-9.4966	-0.2058	-1.7528	-0.0088	-0.0071	0.0042	20.4096	-28.5311	24.1649	0.5770	-0.3534	0.6797	0.2832
8.52	-9.4873	-0.2122	-1.7497	-0.0060	-0.0049	0.0062	20.4396	-28.7021	24.0699	0.5770	-0.3534	0.6797	0.2832
8.53	-9.4935	-0.2106	-1.7605	-0.0054	-0.0043	0.0025	20.3394	-28.6669	24.0476	0.5770	-0.3535	0.6797	0.2832
8.54	-9.4928	-0.2119	-1.7545	-0.0063	-0.0030	0.0027	20.4958	-28.4948	23.9401	0.5769	-0.3535	0.6797	0.2832
8.55	-9.4887	-0.2071	-1.7413	-0.0042	-0.0044	0.0040	20.3189	-28.6029	23.8513	0.5769	-0.3535	0.6797	0.2832
8.56	-9.4880	-0.2041	-1.7359	-0.0011	-0.0085	0.0037	20.1223	-28.5913	24.0530	0.5770	-0.3536	0.6797	0.2832
8.57	-9.4930	-0.2023	-1.7339	-0.0051	-0.0095	0.0027	20.2550	-28.5025	23.9607	0.5769	-0.3535	0.6796	0.2832
8.58	-9.4884	-0.1929	-1.7346	0.0001	-0.0085	0.0094	20.6492	-28.8536	23.8429	0.5770	-0.3536	0.6796	0.2833
8.59	-9.4833	-0.1869	-1.7332	-0.0060	-0.0087	0.0049	20.5399	-28.7337	23.9299	0.5769	-0.3536	0.6796	0.2833
8.6	-9.5024	-0.1857	-1.7496	-0.0121	-0.0084	0.0041	20.4262	-28.8944	23.9741	0.5770	-0.3537	0.6796	0.2834
8.61	-9.4907	-0.1853	-1.7510	-0.0076	-0.0045	0.0043	20.5571	-28.7614	23.9589	0.5769	-0.3536	0.6795	0.2833
8.62	-9.4839	-0.1805	-1.7459	-0.0080	-0.0113	0.0074	20.5470	-28.8231	24.0729	0.5769	-0.3537	0.6795	0.2834
8.63	-9.4985	-0.1832	-1.7534	0.0030	-0.0037	0.0016	20.4993	-28.8601	24.0436	0.5769	-0.3537	0.6795	0.2834
8.64	-9.5000	-0.1828	-1.7434	-0.0048	-0.0089	0.0062	20.4289	-28.6685	24.0443	0.5769	-0.3537	0.6795	0.2834
8.65	-9.4879	-0.1830	-1.7318	-0.0006	-0.0039	0.0102	20.5764	-28.8253	24.0612	0.5770	-0.3537	0.6796	0.2834
8.66	-9.4900	-0.1859	-1.7264	-0.0082	-0.0071	0.0030	20.5090	-28.8727	23.8887	0.5769	-0.3537	0.6795	0.2834
8.67	-9.4955	-0.1918	-1.7350	0.0010	-0.0103	0.0073	20.4086	-28.6555	23.9131	0.5769	-0.3538	0.6795	0.2835
8.68	-9.4856	-0.1992	-1.7464	-0.0021	-0.0067	0.0083	20.2756	-28.5209	24.0561	0.5769	-0.3537	0.6794	0.2834
8.69	-9.4852	-0.2071	-1.7481	-0.0114	-0.0020	-0.0001	20.4264	-28.6638	24.0352	0.5769	-0.3538	0.6795	0.2835
8.7	-9.4903	-0.2073	-1.7558	-0.0056	-0.0092	0.0017	20.3014	-28.5822	24.0440	0.5769	-0.3538	0.6794	0.2835
8.71	-9.4942	-0.2115	-1.7593	-0.0052	-0.0086	0.0022	20.3729	-28.7443	24.0411	0.5769	-0.3539	0.6794	0.2835
8.72	-9.4859	-0.2084	-1.7464	-0.0051	-0.0030	0.0015	20.2990	-28.4897	24.0410	0.5769	-0.3539	0.6794	0.2835
8.73	-9.4883	-0.2046	-1.7473	-0.0156	0.0010	-0.0016	20.1783	-28.5106	24.0219	0.5768	-0.3540	0.6794	0.2835
8.74	-9.4995	-0.2024	-1.7509	-0.0067	-0.0039	0.0029	20.3055	-28.6934	23.8765	0.5768	-0.3541	0.6794	0.2835
8.75	-9.4875	-0.2105	-1.7414	-0.0059	-0.0098	0.0050	20.6391	-28.5005	24.2385	0.5768	-0.3540	0.6793	0.2835
8.76	-9.4891	-0.2148	-1.7358	0.0027	-0.0053	0.0070	20.6868	-28.5649	24.4151	0.5768	-0.3541	0.6794	0.2836
8.77	-9.4955	-0.2180	-1.7338	0.0035	-0.0085	0.0050	20.6633	-28.5524	24.0460	0.5768	-0.3541	0.6793	0.2835
8.78	-9.4905	-0.2206	-1.7226	0.0046	-0.0145	0.0105	20.6048	-28.6712	23.9144	0.5769	-0.3540	0.6793	0.2836
8.79	-9.4823	-0.2166	-1.7195	0.0082	-0.0048	0.0103	20.5154	-28.9286	23.9126	0.5769	-0.3540	0.6793	0.2835
8.8	-9.4940	-0.2072	-1.7190	0.0035	-0.0073	0.0087	20.5147	-28.6662	24.1434	0.5769	-0.3540	0.6794	0.2835
8.81	-9.4926	-0.1997	-1.7169	0.0066	-0.0103	0.0084	20.5598	-28.5403	23.9727	0.5769	-0.3540	0.6794	0.2835
8.82	-9.4821	-0.1957	-1.7158	0.0043	-0.0097	0.0137	20.3575	-28.6979	24.0664	0.5769	-0.3539	0.6793	0.2835
8.83	-9.4890	-0.1963	-1.7246	0.0016	-0.0093	0.0113	20.2803	-28.6485	24.0729	0.5769	-0.3539	0.6794	0.2836
8.84	-9.4997	-0.2014	-1.7352	0.0006	-0.0163	0.0092	20.5255	-28.5957	24.0681	0.5769	-0.3539	0.6793	0.2836
8.85	-9.4875	-0.2056	-1.7236	-0.0007	-0.0139	0.0058	20.5407	-28.7611	23.8177	0.5770	-0.3539	0.6794	0.2836
8.86	-9.4849	-0.2072	-1.7286	0.0028	-0.0046	0.0026	20.4443	-28.7656	23.8903	0.5769	-0.3539	0.6793	0.2836
8.87	-9.4976	-0.2065	-1.7475	-0.0002	-0.0047	0.0101	20.2302	-28.5131	24.0205	0.5770	-0.3539	0.6793	0.2836
8.88	-9.4927	-0.2032	-1.7468	-0.0054	-0.0020	0.0065	20.3425	-28.7384	24.1036	0.5769	-0.3539	0.6793	0.2836
8.89	-9.4879	-0.2025	-1.7490	-0.0012	-0.0016	0.0021	20.3873	-28.6894	23.9775	0.5769	-0.3539	0.6793	0.2836
8.9	-9.4949	-0.1987	-1.7529	-0.0121	-0.0035	0.0085	20.2487	-28.6757	23.9926	0.5769	-0.3540	0.6794	0.2837
8.91	-9.4905	-0.1910	-1.7576	0.0008	-0.0011	0.0047	20.2126	-28.7915	23.9537	0.5769	-0.3540	0.6793	0.2836
8.92	-9.4853	-0.1925	-1.7498	0.0036	-0.0040	0.0047	20.3727	-28.7398	23.8574	0.5769	-0.3540	0.6794	0.2836
8.93	-9.4939	-0.1890	-1.7518	0.0015	-0.0055	0.0060	20.3655	-28.7729	24.0111	0.5768	-0.3539	0.6793	0.2836
8.94	-9.5000	-0.1908	-1.7538	0.0007	-0.0017	0.0079	20.3574	-28.6340	23.9585	0.5769	-0.3540	0.6794	0.2836
8.95	-9.4924	-0.1943	-1.7539	-0.0017	-0.0037	0.0101	20.5387	-28.7308	24.0266	0.5768	-0.3540	0.6793	0.2836
8.96	-9.4894	-0.1935	-1.7506	0.0010	-0.0083	0.0125	20.4464	-28.7642	23.8813	0.5768	-0.3539	0.6793	0.2836
8.97	-9.5019	-0.1914	-1.7580	0.0042	-0.0079	0.0161	20.4560	-28.7552	23.9394	0.5768	-0.3539	0.6794	0.2837
8.98	-9.4959	-0.1905	-1.7528	0.0052	-0.0108	0.0041	20.6559	-28.4939	23.8068	0.5768	-0.3539	0.6794	0.2837
8.99	-9.4897	-0.1905	-1.7427	-0.0033	-0.0134	0.0059	20.5840	-28.5638	23.7364	0.5769	-0.3539	0.6794	0.2837
9	-9.4941	-0.1868	-1.7517	-0.0025	-0.0154	0.0121	20.6382	-28.5946	23.9242	0.5768	-0.3539	0.6793	0.2837
9.01	-9.4937	-0.1900	-1.7433	-0.0025	-0.0081	0.0029	20.3760	-28.5878	23.8937	0.5769	-0.3539	0.6793	0.2837
9.02	-9.4848	-0.1955	-1.7418	-0.0017	-0.0120	0.0081	20.5367	-28.7346	24.0317	0.5769	-0.3539	0.6793	0.2838
9.03	-9.4840	-0.2062	-1.7332	0.0014	-0.0025	0.0051	20.4363	-28.5092	23.9102	0.5769	-0.3539	0.6793	0.2838
9.04	-9.4973	-0.2163	-1.7467	0.0049	-0.0065	0.0162	20.5576	-28.5786	23.7782	0.5769	-0.3539	0.6793	0.2838
9.05	-9.4913	-0.2176	-1.7407	0.0026	-0.0126	0.0052	20.4613	-28.7229	23.9834	0.5769	-0.3539	0.6793	0.2838
9.06	-9.4898	-0.2180	-1.7390	-0.0004	-0.0085	0.0086	20.1764	-28.5968	23.9150	0.5769	-0.3539	0.6793	0.2838
9.07	-9.5014	-0.2151	-1.7417	-0.0041	-0.0131	0.0117	20.5019	-28.5962	23.8910	0.5769	-0.3538	0.6792	0.2838
9.08	-9.4934	-0.2089	-1.7427	0.0010	-0.0093	0.0091	20.3876	-28.6590	23.9765	0.5770	-0.3538	0.6793	0.2839
9.09	-9.4838	-0.2010	-1.7370	-0.0068	-0.0074	0.0058	20.2773	-28.4677	24.0384	0.5769	-0.3538	0.6792	0.2839
9.1	-9.4870	-0.2024	-1.7324	-0.0046	-0.0068	0.0052	20.4553	-28.7777	24.0168	0.5770	-0.3539	0.6793	0.2839
9.11	-9.4914	-0.2039	-1.7342	0.0014	-0.0038	0.0066	20.4491	-28.6664	23.9783	0.5769	-0.3538	0.6792	0.2839
9.12	-9.4908	-0.2094	-1.7298	0.0011	-0.0043	0.0037	20.4183	-28.6672	24.0782	0.5769	-0.3539	0.6792	0.2839
9.13	-9.4889	-0.2123	-1.7253	0.0056	-0.0081	0.0104	20.3567	-28.6883	23.9407	0.5769	-0.3539	0.6792	0.2839
9.14	-9.4969	-0.2124	-1.7353	0.0014	-0.0037	0.0104	20.6282	-28.6441	24.0222	0.5769	-0.3538	0.6792	0.2839
9.15	-9.4909	-0.2080	-1.7314	0.0085	-0.0048	0.0094	20.5905	-28.7080	23.8647	0.5770	-0.3538	0.6793	0.2839
9.16	-9.4789	-0.2065	-1.7290	0.0066	-0.0105	0.0123	20.6373	-28.8527	23.9465	0.5769	-0.3538	0.6793	0.2839
9.17	-9.4958	-0.1977	-1.7389	0.0003	-0.0096	0.0094	20.5270	-28.8801	23.8151	0.5770	-0.3538	0.6793	0.2839
9.18	-9.4955	-0.1948	-1.7361	0.0084	-0.0097	0.0069	20.6171	-28.9549	23.9025	0.5769	-0.3537	0.6792	0.2838
9.19	-9.4863	-0.1906	-1.7326	0.0042	-0.0102	0.0118	20.4832	-28.5611	24.0143	0.5770	-0.3537	0.6793	0.2839
9.2	-9.4910	-0.1937	-1.7415	-0.0038	-0.0078	0.0127	20.4398	-28.6721	24.1222	0.5770	-0.3537	0.6793	0.2839
9.21	-9.4926	-0.1949	-1.7428	0.0019	-0.0030	0.0098	20.3855	-28.8775	23.9125	0.5769	-0.3537	0.6793	0.2839
9.22	-9.4879	-0.1932	-1.7435	0.0064	-0.0123	0.0109	20.3514	-28.7190	23.8856	0.5770	-0.3537	0.6793	0.2839
9.23	-9.4903	-0.1899	-1.7380	0.0019	-0.0044	0.0101	20.4956	-28.6827	24.0402	0.5770	-0.3536	0.6793	0.2839
9.24	-9.4888	-0.1852	-1.7488	-0.0081	-0.0013	0.0071	20.3707	-28.8132	24.1268	0.5769	-0.3537	0.6793	0.2840
9.25	-9.4900	-0.1872	-1.7454	-0.0036	-0.0098	0.0063	20.6973	-28.5668	24.2602	0.5769	-0.3536	0.6792	0.2839
9.26	-9.4962	-0.1893	-1.7507	-0.0034	-0.0058	0.0027	20.8449	-28.5880	24.3515	0.5769	-0.3537	0.6793	0.2840
9.27	-9.4864	-0.1929	-1.7501	-0.0078	0.0017	0.0030	20.6324	-28.5578	24.1196	0.5769	-0.3537	0.6793	0.2840
9.28	-9.4914	-0.1920	-1.7482	-0.0092	-0.0012	0.0039	20.3244	-28.5917	24.0598	0.5769	-0.3538	0.6793	0.2840
9.29	-9.4902	-0.1943	-1.7496	-0.0044	-0.0005	0.0031	20.1043	-28.7067	24.0566	0.5768	-0.3538	0.6793	0.2840
9.3	-9.4846	-0.1930	-1.7467	-0.0024	-0.0023	0.0037	20.4355	-28.4718	23.8990	0.5768	-0.3538	0.6793	0.2840
9.31	-9.4962	-0.1959	-1.7490	-0.0065	-0.0075	0.0070	20.3284	-28.4949	24.0416	0.5768	-0.3539	0.6793	0.2840
9.32	-9.4998	-0.2018	-1.7493	-0.0019	-0.0123	0.0066	20.3164	-28.6447	23.9580	0.5768	-0.3538	0.6792	0.2840
9.33	-9.4848	-0.2025	-1.7386	-0.0046	-0.0085	0.0040	20.4075	-28.7046	23.9555	0.5768	-0.3539	0.6793	0.2841
9.34	-9.4925	-0.2040	-1.7460	-0.0103	-0.0072	0.0035	20.5576	-28.8752	24.1059	0.5768	-0.3539	0.6792	0.2841
9.35	-9.4956	-0.2083	-1.7465	-0.0020	-0.0075	0.0044	20.5017	-28.8097	23.9560	0.5768	-0.3540	0.6793	0.2841
9.36	-9.4890	-0.2138	-1.7371	-0.0028	-0.0079	0.0011	20.4748	-28.7153	23.9720	0.5768	-0.3539	0.6791	0.2841
9.37	-9.4918	-0.2136	-1.7372	-0.0017	-0.0019	0.0023	20.5800	-28.6574	23.9306	0.5768	-0.3540	0.6792	0.2841
9.38	-9.4939	-0.2169	-1.7377	-0.0072	-0.0035	0.0007	20.3987	-28.6860	24.0336	0.5768	-0.3540	0.6792	0.2841
9.39	-9.4849	-0.2108	-1.7259	-0.0022	-0.0071	0.0040	20.3936	-28.9410	23.9877	0.5767	-0.3540	0.6791	0.2841
9.4	-9.4876	-0.2073	-1.7270	-0.0021	-0.0051	0.0065	20.5073	-28.5477	23.8462	0.5768	-0.3541	0.6792	0.2841
9.41	-9.4942	-0.2022	-1.7395	-0.0016	-0.0033	0.0076	20.4564	-28.6994	23.7430	0.5767	-0.3541	0.6792	0.2841
9.42	-9.4920	-0.2020	-1.7375	-0.0113	-0.0089	0.0060	20.3684	-28.6719	24.1213	0.5768	-0.3541	0.6792	0.2842
9.43	-9.4856	-0.1966	-1.7363	-0.0077	-0.0085	-0.0004	20.4282	-28.5118	24.0504	0.5767	-0.3541	0.6791	0.2842
9.44	-9.4907	-0.1921	-1.7391	-0.0062	-0.0032	0.0018	20.3592	-28.6806	23.8233	0.5767	-0.3542	0.6791	0.2842
9.45	-9.4917	-0.1876	-1.7429	-0.0083	-0.0017	0.0043	20.3499	-28.6991	24.0572	0.5767	-0.3542	0.6791	0.2842
9.46	-9.4858	-0.1897	-1.7410	-0.0050	-0.0019	0.0063	20.4314	-28.5066	24.0202	0.5767	-0.3543	0.6791	0.2842
9.47	-9.4894	-0.1932	-1.7437	-0.0061	-0.0016	0.0073	20.2877	-28.6745	24.1524	0.5767	-0.3543	0.6791	0.2842
9.48	-9.4986	-0.1981	-1.7487	-0.0123	-0.0031	0.0013	20.4639	-28.5600	23.9730	0.5766	-0.3543	0.6791	0.2843
9.49	-9.4940	-0.2019	-1.7461	-0.0064	-0.0045	0.0013	20.4918	-28.5969	23.9811	0.5766	-0.3544	0.6791	0.2843
9.5	-9.4896	-0.1960	-1.7496	-0.0063	-0.0042	0.0062	20.4111	-28.6321	24.1749	0.5765	-0.3544	0.6790	0.2843
9.51	-9.4943	-0.1958	-1.7492	-0.0027	-0.0139	0.0012	20.2671	-28.6412	24.0699	0.5766	-0.3544	0.6791	0.2843
9.52	-9.4923	-0.1977	-1.7451	-0.0006	-0.0117	0.0002	20.4257	-28.7453	23.9316	0.5766	-0.3544	0.6790	0.2843
9.53	-9.4892	-0.1978	-1.7396	0.0007	-0.0100	0.0057	20.7596	-28.8941	23.9722	0.5767	-0.3545	0.6790	0.2843
9.54	-9.4848	-0.1972	-1.7312	-0.0031	-0.0085	0.0095	20.6217	-28.7404	23.9809	0.5766	-0.3544	0.6790	0.2843
9.55	-9.4946	-0.2030	-1.7256	0.0018	-0.0036	0.0036	20.6558	-28.8724	23.9198	0.5766	-0.3545	0.6790	0.2843
9.56	-9.4915	-0.2059	-1.7262	-0.0072	-0.0032	0.0053	20.4318	-28.9302	24.1080	0.5766	-0.3545	0.6790	0.2843
9.57	-9.4892	-0.2035	-1.7340	-0.0032	-0.0082	-0.0003	20.3689	-28.8551	24.0733	0.5766	-0.3545	0.6789	0.2843
9.58	-9.4962	-0.2052	-1.7512	-0.0010	-0.0041	0.0047	20.5270	-28.8658	23.9474	0.5766	-0.3546	0.6790	0.2843
9.59	-9.4949	-0.2069	-1.7533	-0.0056	-0.0048	0.0093	20.4345	-28.7801	23.9328	0.5766	-0.3545	0.6789	0.2844
9.6	-9.4901	-0.2114	-1.7527	0.0013	-0.0060	0.0070	20.6027	-28.7341	23.8742	0.5766	-0.3546	0.6790	0.2844
9.61	-9.4897	-0.2122	-1.7503	-0.0007	-0.0024	0.0038	20.3569	-28.6978	24.2077	0.5765	-0.3545	0.6789	0.2843
9.62	-9.4939	-0.2018	-1.7464	-0.0002	-0.0016	0.0046	20.3557	-28.7060	23.9244	0.5766	-0.3546	0.6790	0.2843
9.63	-9.4826	-0.1997	-1.7304	0.0032	-0.0052	0.0089	20.3560	-28.5759	23.9040	0.5766	-0.3546	0.6790	0.2843
9.64	-9.4881	-0.2002	-1.7251	-0.0035	0.0007	0.0032	20.0845	-28.7429	23.9685	0.5765	-0.3546	0.6790	0.2843
9.65	-9.4963	-0.2036	-1.7371	-0.0015	-0.0026	0.0102	20.4927	-28.5955	23.9522	0.5765	-0.3546	0.6791	0.2844
9.66	-9.4904	-0.2071	-1.7351	-0.0035	-0.0014	0.0062	20.2961	-28.4074	24.2179	0.5765	-0.3546	0.6790	0.2844
9.67	-9.4864	-0.2097	-1.7434	0.0021	-0.0014	0.0092	20.4291	-28.5512	24.1791	0.5765	-0.3546	0.6791	0.2844
9.68	-9.4953	-0.2100	-1.7546	-0.0029	0.0008	0.0041	20.5313	-28.5294	23.9341	0.5764	-0.3546	0.6790	0.2843
9.69	-9.4937	-0.2012	-1.7524	0.0034	-0.0025	0.0078	20.1228	-28.5709	23.7398	0.5764	-0.3547	0.6791	0.2843
9.7	-9.4903	-0.1950	-1.7528	0.0008	-0.0099	0.0091	20.2854	-28.8216	23.8117	0.5764	-0.3546	0.6791	0.2844
9.71	-9.4911	-0.1896	-1.7486	-0.0032	-0.0084	0.0058	20.5879	-28.7055	24.0010	0.5764	-0.3546	0.6790	0.2844
9.72	-9.4959	-0.1852	-1.7405	-0.0002	-0.0092	0.0111	20.5546	-28.7055	23.8105	0.5764	-0.3546	0.6791	0.2844
9.73	-9.4865	-0.1874	-1.7356	0.0016	-0.0004	0.0048	20.5716	-28.6990	23.9910	0.5764	-0.3546	0.6790	0.2844
9.74	-9.4887	-0.1992	-1.7359	-0.0013	-0.0032	0.0062	20.5575	-28.5265	24.1855	0.5764	-0.3547	0.6791	0.2844
9.75	-9.4970	-0.2079	-1.7445	0.0031	-0.0018	0.0043	20.9018	-28.6107	24.1087	0.5763	-0.3546	0.6790	0.2843
9.76	-9.4941	-0.2093	-1.7360	-0.0007	-0.0092	0.0077	21.0497	-28.7190	24.2641	0.5764	-0.3547	0.6791	0.2844
9.77	-9.4881	-0.2093	-1.7307	0.0018	-0.0068	0.0037	20.6432	-28.7144	24.0532	0.5764	-0.3547	0.6790	0.2844
9.78	-9.4955	-0.2035	-1.7265	0.0067	-0.0047	0.0111	20.4682	-28.6090	24.0067	0.5764	-0.3547	0.6791	0.2844
9.79	-9.4908	-0.1966	-1.7275	-0.0013	-0.0095	0.0014	20.3481	-28.8578	24.0873	0.5764	-0.3547	0.6790	0.2844
9.8	-9.4894	-0.1900	-1.7279	0.0090	-0.0048	0.0033	20.5101	-28.6673	24.0520	0.5764	-0.3547	0.6791	0.2843
9.81	-9.4921	-0.1902	-1.7344	0.0047	0.0002	0.0057	20.3745	-28.5920	24.0908	0.5764	-0.3547	0.6791	0.2843
9.82	-9.4901	-0.1956	-1.7364	0.0097	-0.0001	0.0025	20.3867	-28.7991	23.9536	0.5763	-0.3546	0.6791	0.2842
9.83	-9.4888	-0.2028	-1.7346	0.0050	-0.0029	0.0086	20.3490	-28.6207	24.1127	0.5764	-0.3547	0.6792	0.2843
9.84	-9.4897	-0.2090	-1.7311	0.0022	-0.0027	0.0057	20.4335	-28.8898	24.1294	0.5764	-0.3546	0.6791	0.2842
9.85	-9.4895	-0.2081	-1.7396	0.0056	-0.0020	0.0044	20.4146	-28.8806	24.0404	0.5764	-0.3547	0.6792	0.2842
9.86	-9.4893	-0.2095	-1.7434	0.0047	-0.0028	0.0028	20.2683	-28.7402	24.1565	0.5763	-0.3546	0.6791	0.2842
9.87	-9.4900	-0.2060	-1.7478	0.0058	-0.0018	0.0039	20.5097	-28.6403	24.1689	0.5764	-0.3547	0.6792	0.2841
9.88	-9.4977	-0.2033	-1.7499	0.0045	-0.0114	0.0122	20.3963	-28.5595	23.9025	0.5764	-0.3546	0.6792	0.2841
9.89	-9.4922	-0.2056	-1.7440	0.0092	-0.0086	0.0057	20.3495	-28.6624	23.9547	0.5764	-0.3546	0.6792	0.2841
9.9	-9.4799	-0.2055	-1.7397	0.0019	-0.0118	0.0098	20.5006	-28.7811	24.0787	0.5764	-0.3546	0.6792	0.2842
9.91	-9.4905	-0.2121	-1.7425	0.0059	-0.0070	0.0107	20.5121	-28.7184	23.9614	0.5764	-0.3545	0.6792	0.2841
9.92	-9.4971	-0.2081	-1.7414	0.0026	-0.0030	0.0055	20.4391	-28.8438	23.9455	0.5764	-0.3546	0.6792	0.2841
9.93	-9.4862	-0.2130	-1.7403	0.0070	-0.0092	0.0099	20.4733	-28.7470	23.7768	0.5764	-0.3545	0.6792	0.2841
9.94	-9.4872	-0.2148	-1.7368	0.0081	-0.0035	0.0115	20.3549	-28.6644	23.9230	0.5764	-0.3545	0.6793	0.2841
9.95	-9.4932	-0.2108	-1.7424	0.0093	-0.0028	0.0068	20.5486	-28.9693	24.0489	0.5764	-0.3545	0.6793	0.2841
9.96	-9.4870	-0.2074	-1.7433	0.0062	-0.0058	0.0141	20.4754	-28.7730	24.0874	0.5764	-0.3544	0.6793	0.2841
9.97	-9.4864	-0.1992	-1.7419	0.0031	-0.0110	0.0077	20.3470	-28.5639	23.9593	0.5764	-0.3544	0.6793	0.2841
9.98	-9.4945	-0.1953	-1.7438	0.0075	-0.0134	0.0073	20.5292	-28.6023	23.9720	0.5764	-0.3544	0.6793	0.2841
9.99	-9.4917	-0.1888	-1.7427	0.0052	-0.0031	0.0080	20.3117	-28.7708	24.0195	0.5765	-0.3544	0.6793	0.2841
10	-9.4868	-0.1861	-1.7357	0.0002	-0.0042	0.0006	20.2909	-28.6744	24.1702	0.5764	-0.3544	0.6792	0.2840
10.01	-9.4903	-0.1871	-1.7407	0.0019	-0.0021	0.0060	20.3638	-28.5769	24.1279	0.5765	-0.3544	0.6793	0.2840
10.02	-9.4967	-0.1900	-1.7440	0.0004	0.0042	0.0007	20.1424	-28.5932	24.1853	0.5764	-0.3544	0.6793	0.2840
10.03	-9.4925	-0.1923	-1.7402	0.0018	-0.0022	0.0053	20.3014	-28.6434	24.2821	0.5764	-0.3545	0.6794	0.2840
10.04	-9.4900	-0.1965	-1.7401	0.0067	-0.0000	0.0120	20.2884	-28.7896	24.0227	0.5764	-0.3544	0.6794	0.2840
10.05	-9.4972	-0.1946	-1.7511	-0.0009	-0.0013	0.0027	20.4067	-28.6062	24.1048	0.5763	-0.3544	0.6794	0.2840
10.06	-9.4904	-0.1933	-1.7433	0.0067	-0.0110	0.0066	20.3378	-28.7868	24.1546	0.5764	-0.3544	0.6794	0.2840
10.07	-9.4806	-0.1965	-1.7350	0.0044	-0.0084	0.0116	20.4765	-28.5864	23.8447	0.5763	-0.3544	0.6793	0.2839
10.08	-9.4947	-0.1988	-1.7469	0.0007	-0.0143	0.0098	20.4328	-28.5013	24.0232	0.5764	-0.3544	0.6794	0.2840
10.09	-9.4928	-0.2019	-1.7495	-0.0013	-0.0052	0.0114	20.3703	-28.7659	24.2032	0.5764	-0.3544	0.6794	0.2840
10.1	-9.4843	-0.2034	-1.7414	0.0009	-0.0120	0.0101	20.5539	-28.7548	24.0831	0.5764	-0.3544	0.6794	0.2840
10.11	-9.4921	-0.2040	-1.7450	-0.0041	-0.0049	0.0104	20.5265	-28.6710	23.9785	0.5763	-0.3543	0.6793	0.2840
10.12	-9.4957	-0.2095	-1.7458	0.0058	-0.0060	0.0101	20.4490	-28.6594	23.7360	0.5764	-0.3543	0.6794	0.2840
10.13	-9.4852	-0.2111	-1.7397	0.0055	-0.0120	0.0080	20.4628	-28.7000	24.0794	0.5764	-0.3543	0.6794	0.2840
10.14	-9.4841	-0.2126	-1.7401	0.0057	-0.0068	0.0084	20.4444	-28.8780	23.9639	0.5764	-0.3543	0.6794	0.2840
10.15	-9.4944	-0.2031	-1.7446	0.0106	-0.0096	0.0118	20.5549	-28.5185	24.1111	0.5765	-0.3543	0.6795	0.2840
10.16	-9.4894	-0.2003	-1.7417	0.0056	-0.0088	0.0137	20.5147	-28.6728	24.1119	0.5764	-0.3542	0.6794	0.2840
10.17	-9.4868	-0.2024	-1.7311	0.0018	-0.0100	0.0117	20.5698	-28.7973	24.1120	0.5765	-0.3542	0.6795	0.2841
10.18	-9.4927	-0.2005	-1.7343	0.0091	-0.0038	0.0083	20.3599	-28.6550	24.1826	0.5764	-0.3541	0.6794	0.2840
10.19	-9.4915	-0.1993	-1.7361	0.0015	-0.0043	0.0065	20.1816	-28.5790	23.9022	0.5764	-0.3541	0.6795	0.2840
10.2	-9.4882	-0.1981	-1.7303	0.0032	-0.0044	0.0077	20.5597	-28.7671	23.8619	0.5764	-0.3541	0.6795	0.2840
10.21	-9.4908	-0.1967	-1.7335	0.0028	-0.0031	0.0102	20.4578	-28.6688	23.7440	0.5764	-0.3541	0.6795	0.2840
10.22	-9.4973	-0.1930	-1.7382	0.0024	-0.0021	0.0111	20.4726	-28.6816	24.0467	0.5764	-0.3541	0.6795	0.2840
10.23	-9.4952	-0.1874	-1.7434	0.0007	-0.0049	0.0083	20.5270	-28.7564	24.0248	0.5764	-0.3541	0.6795	0.2840
10.24	-9.4874	-0.1925	-1.7415	0.0059	-0.0016	0.0077	20.4350	-28.5921	24.0196	0.5764	-0.3541	0.6796	0.2840
10.25	-9.4928	-0.1959	-1.7424	0.0018	-0.0038	0.0062	20.7986	-28.5118	24.4762	0.5763	-0.3541	0.6795	0.2840
10.26	-9.4893	-0.2004	-1.7396	0.0001	-0.0074	0.0104	20.8353	-28.3779	24.4669	0.5764	-0.3541	0.6796	0.2840
10.27	-9.4826	-0.2021	-1.7369	0.0035	-0.0032	0.0063	20.6667	-28.7701	24.0894	0.5763	-0.3541	0.6796	0.2840
10.28	-9.4905	-0.2026	-1.7435	-0.0019	-0.0104	0.0021	20.6315	-28.8714	24.1132	0.5764	-0.3541	0.6796	0.2840
10.29	-9.4934	-0.2011	-1.7384	0.0015	-0.0058	0.0081	20.4224	-28.7497	23.7664	0.5763	-0.3541	0.6795	0.2840
10.3	-9.4943	-0.1991	-1.7440	0.0083	-0.0072	0.0086	20.5059	-28.6199	23.8128	0.5764	-0.3541	0.6796	0.2840
10.31	-9.4900	-0.1995	-1.7443	0.0057	-0.0058	0.0099	20.3696	-28.6918	24.1478	0.5764	-0.3540	0.6796	0.2840
10.32	-9.4935	-0.2018	-1.7477	-0.0047	-0.0044	0.0075	20.4498	-28.8946	24.0744	0.5763	-0.3540	0.6795	0.2840
10.33	-9.4943	-0.2002	-1.7525	0.0048	-0.0065	-0.0035	20.5502	-28.6428	23.8440	0.5764	-0.3541	0.6796	0.2840
10.34	-9.4800	-0.2034	-1.7417	0.0002	-0.0049	0.0052	20.5559	-28.7059	24.0508	0.5763	-0.3541	0.6796	0.2840
10.35	-9.4936	-0.2121	-1.7495	0.0009	-0.0087	0.0048	20.4588	-28.6817	24.0579	0.5764	-0.3541	0.6796	0.2840
10.36	-9.4944	-0.2182	-1.7491	-0.0022	-0.0023	-0.0031	20.4780	-28.6952	24.0504	0.5763	-0.3541	0.6795	0.2839
10.37	-9.4849	-0.2200	-1.7454	0.0001	-0.0044	0.0082	20.2894	-28.5795	24.0556	0.5763	-0.3541	0.6796	0.2839
10.38	-9.4903	-0.2159	-1.7446	0.0030	-0.0049	0.0025	20.4081	-28.6397	24.0227	0.5763	-0.3541	0.6796	0.2839
10.39	-9.4932	-0.2057	-1.7445	0.0012	-0.0032	0.0044	20.4178	-28.5095	23.8354	0.5763	-0.3541	0.6795	0.2839
10.4	-9.4923	-0.1972	-1.7358	-0.0021	-0.0080	0.0051	20.2738	-28.6357	24.1014	0.5764	-0.3542	0.6796	0.2839
10.41	-9.4892	-0.1964	-1.7367	-0.0007	-0.0115	0.0024	20.2798	-28.5779	24.1310	0.5763	-0.3542	0.6795	0.2839
10.42	-9.4927	-0.1984	-1.7419	0.0025	-0.0022	0.0068	20.3906	-28.4967	24.1884	0.5764	-0.3542	0.6796	0.2839
10.43	-9.4886	-0.2010	-1.7445	-0.0067	-0.0051	0.0048	20.5731	-28.5524	24.2644	0.5763	-0.3542	0.6795	0.2839
10.44	-9.4889	-0.2035	-1.7412	-0.0019	-0.0026	0.0046	20.2953	-28.4808	24.0578	0.5763	-0.3542	0.6796	0.2839
10.45	-9.4911	-0.2040	-1.7405	-0.0025	-0.0031	0.0035	20.4813	-28.6332	24.1025	0.5763	-0.3542	0.6796	0.2839
10.46	-9.5006	-0.2028	-1.7410	0.0010	-0.0024	0.0085	20.6103	-28.7122	24.1581	0.5763	-0.3542	0.6796	0.2839
10.47	-9.4913	-0.1973	-1.7407	-0.0019	-0.0080	0.0041	20.7165	-28.5931	24.1487	0.5763	-0.3543	0.6796	0.2839
10.48	-9.4886	-0.1927	-1.7440	0.0012	-0.0055	0.0066	20.4206	-28.5798	23.9857	0.5763	-0.3543	0.6796	0.2839
10.49	-9.4928	-0.1891	-1.7435	0.0008	-0.0053	0.0100	20.3900	-28.5264	24.2038	0.5763	-0.3543	0.6796	0.2839
10.5	-9.4862	-0.1902	-1.7350	0.0064	-0.0059	0.0091	20.5721	-28.8059	24.1676	0.5762	-0.3542	0.6795	0.2839
10.51	-9.4853	-0.1967	-1.7308	0.0032	-0.0087	0.0044	20.4042	-28.7444	24.0265	0.5763	-0.3542	0.6796	0.2839
10.52	-9.4943	-0.2019	-1.7367	-0.0034	-0.0077	0.0115	20.3962	-28.6719	23.8980	0.5762	-0.3542	0.6796	0.2839
10.53	-9.4946	-0.2035	-1.7379	-0.0026	-0.0043	0.0050	20.5611	-28.7000	23.9243	0.5763	-0.3542	0.6796	0.2840
10.54	-9.4906	-0.1970	-1.7271	0.0014	-0.0128	0.0117	20.4405	-28.6747	24.0917	0.5762	-0.3542	0.6796	0.2840
10.55	-9.4928	-0.1915	-1.7337	0.0017	-0.0034	0.0078	20.4681	-28.7122	24.0200	0.5762	-0.3542	0.6796	0.2840
10.56	-9.4920	-0.1914	-1.7482	-0.0001	-0.0061	-0.0005	20.4209	-28.6294	24.1221	0.5763	-0.3542	0.6796	0.2840
10.57	-9.4899	-0.1912	-1.7473	-0.0016	-0.0044	0.0099	20.2674	-28.6003	24.1471	0.5762	-0.3542	0.6795	0.2839
10.58	-9.4901	-0.2016	-1.7549	-0.0061	-0.0018	0.0099	20.3221	-28.6142	24.0299	0.5762	-0.3543	0.6796	0.2840
10.59	-9.4925	-0.2067	-1.7571	0.0005	-0.0035	0.0051	20.3852	-28.4771	24.0561	0.5762	-0.3543	0.6796	0.2840
10.6	-9.4869	-0.2129	-1.7476	-0.0064	-0.0016	0.0016	20.3798	-28.6096	24.0460	0.5762	-0.3543	0.6797	0.2840
10.61	-9.4828	-0.2202	-1.7420	-0.0027	-0.0092	0.0082	20.3654	-28.6843	24.0566	0.5761	-0.3543	0.6796	0.2840
10.62	-9.4886	-0.2190	-1.7389	0.0052	-0.0025	0.0049	20.2937	-28.4998	24.0397	0.5761	-0.3543	0.6796	0.2840
10.63	-9.4936	-0.2145	-1.7371	-0.0027	-0.0057	0.0078	20.2566	-28.5284	24.0541	0.5761	-0.3543	0.6796	0.2840
10.64	-9.4942	-0.2103	-1.7317	-0.0093	-0.0023	0.0070	20.1650	-28.5792	24.0245	0.5761	-0.3543	0.6796	0.2840
10.65	-9.4953	-0.2063	-1.7476	-0.0034	-0.0089	0.0139	20.6070	-28.9048	24.1889	0.5761	-0.3544	0.6797	0.2841
10.66	-9.4908	-0.2083	-1.7577	0.0005	-0.0036	0.0087	20.4820	-28.8152	24.0869	0.5761	-0.3543	0.6796	0.2841
10.67	-9.4864	-0.2045	-1.7499	0.0006	-0.0048	0.0093	20.4468	-28.4924	23.8382	0.5761	-0.3544	0.6797	0.2841
10.68	-9.4796	-0.2016	-1.7486	-0.0012	-0.0037	0.0080	20.4701	-28.7003	23.9855	0.5760	-0.3543	0.6796	0.2841
10.69	-9.4951	-0.1972	-1.7495	0.0014	-0.0025	0.0028	20.5400	-28.8746	23.9573	0.5760	-0.3544	0.6797	0.2841
10.7	-9.4931	-0.1984	-1.7420	-0.0011	-0.0046	0.0107	20.4107	-28.8727	23.8395	0.5760	-0.3543	0.6797	0.2841
10.71	-9.4861	-0.1952	-1.7385	-0.0043	-0.0022	0.0038	20.2977	-28.7304	23.9752	0.5760	-0.3544	0.6797	0.2841
10.72	-9.4943	-0.1937	-1.7402	0.0035	-0.0038	0.0091	20.2999	-28.4883	23.9438	0.5760	-0.3544	0.6797	0.2841
10.73	-9.4955	-0.1899	-1.7366	0.0065	-0.0023	0.0094	20.4057	-28.7932	24.0008	0.5760	-0.3543	0.6797	0.2841
10.74	-9.4884	-0.1849	-1.7271	-0.0021	-0.0068	0.0017	20.3684	-28.7237	24.1024	0.5760	-0.3544	0.6797	0.2841
10.75	-9.4863	-0.1929	-1.7256	-0.0065	0.0017	0.0065	20.7176	-28.5902	24.3250	0.5759	-0.3544	0.6797	0.2841
10.76	-9.4934	-0.1993	-1.7210	0.0025	-0.0089	0.0051	20.8523	-28.5086	24.4202	0.5759	-0.3544	0.6797	0.2841
10.77	-9.4892	-0.1991	-1.7284	-0.0012	-0.0069	0.0073	20.6535	-28.5211	24.1396	0.5759	-0.3544	0.6797	0.2841
10.78	-9.4826	-0.1964	-1.7243	0.0047	-0.0107	0.0075	20.4925	-28.4670	24.1065	0.5759	-0.3544	0.6797	0.2841
10.79	-9.4884	-0.1933	-1.7283	-0.0003	-0.0126	0.0018	20.3473	-28.6895	23.9495	0.5759	-0.3544	0.6797	0.2841
10.8	-9.4880	-0.1947	-1.7309	-0.0043	-0.0101	0.0048	20.3624	-28.6883	24.0403	0.5760	-0.3544	0.6797	0.2841
10.81	-9.4895	-0.1957	-1.7297	0.0035	-0.0077	0.0071	20.3879	-28.5389	24.2212	0.5760	-0.3544	0.6797	0.2841
10.82	-9.4971	-0.1963	-1.7364	0.0048	-0.0107	0.0159	20.2524	-28.8111	23.9774	0.5759	-0.3543	0.6796	0.2841
10.83	-9.5015	-0.2013	-1.7399	0.0021	-0.0093	0.0095	20.4350	-28.7272	23.8688	0.5760	-0.3544	0.6797	0.2841
10.84	-9.4861	-0.2046	-1.7393	0.0026	-0.0116	0.0089	20.7937	-28.5892	23.9473	0.5760	-0.3543	0.6797	0.2841
10.85	-9.4906	-0.2027	-1.7510	0.0015	-0.0061	0.0101	20.7720	-28.7724	24.0136	0.5760	-0.3543	0.6797	0.2842
10.86	-9.4966	-0.2042	-1.7574	0.0094	-0.0038	0.0107	20.6809	-28.8534	23.9729	0.5759	-0.3543	0.6797	0.2841
10.87	-9.4907	-0.2015	-1.7549	0.0028	-0.0103	0.0114	20.4867	-28.8384	24.1253	0.5760	-0.3543	0.6797	0.2841
10.88	-9.4875	-0.1951	-1.7537	0.0020	-0.0083	0.0113	20.3682	-28.7429	23.9922	0.5760	-0.3542	0.6797	0.2842
10.89	-9.4900	-0.1963	-1.7468	0.0073	-0.0044	0.0074	20.4405	-28.7961	23.9968	0.5759	-0.3542	0.6797	0.2841
10.9	-9.4909	-0.1970	-1.7530	0.0039	-0.0073	0.0139	20.4418	-28.7487	23.8654	0.5760	-0.3542	0.6798	0.2842
10.91	-9.4827	-0.2034	-1.7423	-0.0023	-0.0116	0.0129	20.3657	-28.6894	23.9487	0.5760	-0.3542	0.6797	0.2842
10.92	-9.4915	-0.2102	-1.7490	0.0076	-0.0055	0.0093	20.5063	-28.8796	23.9841	0.5760	-0.3542	0.6798	0.2842
10.93	-9.4992	-0.2146	-1.7547	0.0034	-0.0076	0.0074	20.3155	-28.7612	24.0750	0.5759	-0.3541	0.6797	0.2841
10.94	-9.4894	-0.2177	-1.7417	0.0079	-0.0048	0.0098	20.5174	-28.7829	24.1659	0.5760	-0.3541	0.6798	0.2842
10.95	-9.4868	-0.2159	-1.7452	0.0053	-0.0013	0.0036	20.4717	-28.5893	24.0129	0.5760	-0.3541	0.6798	0.2841
10.96	-9.4972	-0.2089	-1.7548	-0.0033	-0.0053	0.0050	20.4493	-28.6940	23.8776	0.5759	-0.3541	0.6798	0.2841
10.97	-9.4882	-0.1982	-1.7406	-0.0026	-0.0138	0.0090	20.4250	-28.6732	24.0139	0.5760	-0.3541	0.6798	0.2842
10.98	-9.4832	-0.1964	-1.7334	-0.0012	-0.0075	0.0045	20.5000	-28.6133	24.0539	0.5760	-0.3541	0.6798	0.2842
10.99	-9.4913	-0.1965	-1.7442	0.0002	-0.0038	0.0118	20.4765	-28.5345	23.9478	0.5760	-0.3541	0.6798	0.2842
11	-9.4926	-0.1994	-1.7405	-0.0077	-0.0048	0.0096	20.4425	-28.5977	23.9964	0.5759	-0.3541	0.6797	0.2842
11.01	-9.4899	-0.2019	-1.7340	0.0028	-0.0093	0.0136	20.4200	-28.6984	23.9709	0.5759	-0.3541	0.6798	0.2842
11.02	-9.4924	-0.2059	-1.7440	0.0071	-0.0083	0.0163	20.3993	-28.8863	23.9975	0.5759	-0.3541	0.6798	0.2842
11.03	-9.4916	-0.2031	-1.7425	0.0093	-0.0086	0.0106	20.6761	-28.9066	23.9838	0.5759	-0.3540	0.6799	0.2842
11.04	-9.4855	-0.2004	-1.7423	0.0049	-0.0099	0.0126	20.3887	-28.7330	23.9992	0.5759	-0.3540	0.6798	0.2842
11.05	-9.4875	-0.1997	-1.7375	0.0052	-0.0088	0.0106	20.6205	-28.7979	23.8404	0.5759	-0.3540	0.6799	0.2842
11.06	-9.4911	-0.1939	-1.7388	0.0048	-0.0023	0.0071	20.3444	-28.7260	24.0034	0.5759	-0.3540	0.6799	0.2842
11.07	-9.4878	-0.1899	-1.7346	0.0026	-0.0022	0.0109	20.2486	-28.5959	23.8640	0.5759	-0.3539	0.6799	0.2842
11.08	-9.4914	-0.1934	-1.7325	0.0040	-0.0076	0.0093	20.4097	-28.7154	23.9438	0.5759	-0.3539	0.6800	0.2842
11.09	-9.4908	-0.1921	-1.7388	0.0019	-0.0052	0.0110	20.3268	-28.6684	24.0695	0.5759	-0.3539	0.6799	0.2842
11.1	-9.4923	-0.1955	-1.7393	0.0053	-0.0080	0.0126	20.4479	-28.7692	23.9378	0.5759	-0.3539	0.6800	0.2843
11.11	-9.4873	-0.1948	-1.7416	0.0025	-0.0055	0.0077	20.4449	-28.7047	24.0888	0.5759	-0.3538	0.6799	0.2842
11.12	-9.4904	-0.1982	-1.7461	0.0005	-0.0072	0.0049	20.3359	-28.5533	24.0718	0.5759	-0.3539	0.6800	0.2842
11.13	-9.4898	-0.2004	-1.7446	0.0008	-0.0009	0.0126	20.2163	-28.5344	24.1919	0.5759	-0.3539	0.6800	0.2842
11.14	-9.4887	-0.2087	-1.7397	-0.0010	-0.0013	0.0077	20.1865	-28.5149	24.0661	0.5758	-0.3538	0.6800	0.2842
11.15	-9.4888	-0.2128	-1.7395	-0.0051	-0.0054	0.0110	20.3052	-28.5553	23.8578	0.5759	-0.3539	0.6801	0.2843
11.16	-9.4957	-0.2120	-1.7385	-0.0024	-0.0031	0.0094	20.4104	-28.8641	23.9252	0.5758	-0.3539	0.6800	0.2843
11.17	-9.4930	-0.2084	-1.7392	-0.0053	-0.0056	0.0093	20.2850	-28.6382	23.8456	0.5758	-0.3539	0.6801	0.2843
11.18	-9.4877	-0.2052	-1.7409	0.0039	-0.0016	0.0125	20.3020	-28.5096	24.0883	0.5757	-0.3538	0.6800	0.2843
11.19	-9.4938	-0.1979	-1.7402	0.0051	-0.0027	0.0150	20.2331	-28.5467	24.1364	0.5757	-0.3538	0.6801	0.2843
11.2	-9.4963	-0.1926	-1.7441	0.0050	-0.0105	0.0159	20.5650	-28.5034	24.0453	0.5757	-0.3538	0.6801	0.2843
11.21	-9.4891	-0.2008	-1.7417	0.0039	-0.0047	0.0146	20.5370	-28.8741	24.0795	0.5757	-0.3537	0.6801	0.2843
11.22	-9.4898	-0.2037	-1.7439	0.0015	-0.0042	0.0126	20.5526	-28.7390	24.0885	0.5757	-0.3537	0.6802	0.2844
11.23	-9.4911	-0.2102	-1.7492	0.0037	-0.0072	0.0109	20.4240	-28.7132	24.0255	0.5757	-0.3537	0.6802	0.2844
11.24	-9.4874	-0.2182	-1.7434	0.0038	-0.0089	0.0129	20.4908	-28.7630	24.0083	0.5757	-0.3537	0.6802	0.2844
11.25	-9.4901	-0.2177	-1.7474	0.0041	-0.0046	0.0131	21.0911	-28.5520	24.1988	0.5756	-0.3536	0.6801	0.2844
11.26	-9.4946	-0.2148	-1.7453	0.0025	-0.0092	0.0152	20.9464	-28.6268	24.1437	0.5757	-0.3536	0.6802	0.2844
11.27	-9.4928	-0.2043	-1.7479	-0.0030	-0.0015	0.0066	20.7469	-28.6610	24.0627	0.5756	-0.3536	0.6802	0.2844
11.28	-9.4868	-0.1993	-1.7403	0.0061	-0.0035	0.0117	20.3443	-28.7904	24.0295	0.5756	-0.3536	0.6803	0.2844
11.29	-9.4924	-0.1925	-1.7371	0.0062	-0.0081	0.0058	20.4144	-28.6340	24.1715	0.5756	-0.3536	0.6802	0.2844
11.3	-9.4942	-0.1907	-1.7447	0.0074	-0.0030	0.0063	20.4585	-28.5373	24.0706	0.5756	-0.3536	0.6803	0.2844
11.31	-9.4904	-0.1941	-1.7391	-0.0065	-0.0023	-0.0005	20.3877	-28.6535	24.0476	0.5756	-0.3536	0.6803	0.2844
11.32	-9.4900	-0.1962	-1.7363	-0.0055	-0.0102	0.0098	20.3291	-28.5787	23.9415	0.5756	-0.3536	0.6802	0.2844
11.33	-9.4887	-0.1971	-1.7375	-0.0044	-0.0004	0.0081	20.2291	-28.8478	23.9699	0.5756	-0.3537	0.6803	0.2844
11.34	-9.4914	-0.1961	-1.7411	-0.0077	-0.0034	0.0072	20.2056	-28.7083	24.1880	0.5755	-0.3537	0.6803	0.2844
11.35	-9.4893	-0.1961	-1.7392	-0.0083	-0.0079	0.0112	20.1288	-28.5215	23.7965	0.5756	-0.3537	0.6803	0.2845
