time	acceleration_x	acceleration_y	acceleration_z	gyroscope_x	gyroscope_y	gyroscope_z	magnetometer_x	magnetometer_y	magnetometer_z	quaternion_w	quaternion_x	quaternion_y	quaternion_z
0	-9.6023	-0.2256	0.4178	-0.0139	-0.0056	-0.0579	35.1086	9.3172	-8.0882	-0.3696	-0.5848	-0.3821	0.6126
0.01	-9.6195	-0.2322	0.4212	-0.0170	-0.0042	-0.0569	35.1614	9.3880	-7.9244	-0.3696	-0.5849	-0.3821	0.6127
0.02	-9.6346	-0.2427	0.4185	-0.0194	0.0010	-0.0543	35.0681	9.0322	-7.9052	-0.3695	-0.5849	-0.3820	0.6127
0.03	-9.6384	-0.2380	0.4183	-0.0207	0.0033	-0.0486	35.0488	9.0999	-8.0124	-0.3695	-0.5850	-0.3820	0.6127
0.04	-9.6228	-0.2308	0.4170	-0.0232	0.0010	-0.0452	34.9312	9.2646	-7.9380	-0.3695	-0.5850	-0.3819	0.6127
0.05	-9.6031	-0.2190	0.4139	-0.0224	0.0021	-0.0525	34.9921	9.1618	-8.0318	-0.3694	-0.5851	-0.3819	0.6127
0.06	-9.5947	-0.2040	0.4040	-0.0199	-0.0026	-0.0481	35.0539	9.4526	-8.0448	-0.3694	-0.5851	-0.3818	0.6127
0.07	-9.5852	-0.2048	0.3993	-0.0225	0.0073	-0.0595	35.0544	9.4216	-7.8625	-0.3693	-0.5851	-0.3818	0.6126
0.08	-9.5729	-0.2135	0.3932	-0.0236	0.0094	-0.0603	35.0082	9.3016	-7.9010	-0.3693	-0.5853	-0.3818	0.6127
0.09	-9.5697	-0.2375	0.3896	-0.0281	0.0157	-0.0665	34.9856	9.4028	-7.8721	-0.3692	-0.5853	-0.3818	0.6126
0.1	-9.5941	-0.2622	0.3862	-0.0200	0.0149	-0.0652	35.0619	9.3690	-7.9074	-0.3691	-0.5854	-0.3819	0.6127
0.11	-9.6293	-0.2822	0.3851	-0.0261	0.0149	-0.0592	35.0465	9.2493	-7.8513	-0.3690	-0.5854	-0.3819	0.6126
0.12	-9.6562	-0.3045	0.3845	-0.0256	0.0129	-0.0612	35.1259	9.0877	-7.9391	-0.3690	-0.5855	-0.3819	0.6126
0.13	-9.6613	-0.3156	0.3737	-0.0211	0.0173	-0.0541	35.2019	9.1393	-8.1205	-0.3689	-0.5855	-0.3819	0.6126
0.14	-9.6576	-0.3023	0.3779	-0.0223	0.0065	-0.0501	35.1502	9.0833	-7.9640	-0.3688	-0.5856	-0.3818	0.6125
0.15	-9.6649	-0.2832	0.3766	-0.0224	0.0070	-0.0373	35.0337	9.0795	-7.9617	-0.3688	-0.5857	-0.3818	0.6126
0.16	-9.6514	-0.2772	0.3769	-0.0223	0.0024	-0.0448	35.1510	9.3031	-8.0059	-0.3688	-0.5858	-0.3817	0.6125
0.17	-9.6521	-0.2699	0.3810	-0.0146	0.0001	-0.0380	34.9254	9.2178	-7.8879	-0.3688	-0.5859	-0.3816	0.6125
0.18	-9.6240	-0.2610	0.3871	-0.0133	-0.0090	-0.0471	35.0410	9.2588	-7.8949	-0.3687	-0.5858	-0.3815	0.6125
0.19	-9.6146	-0.2368	0.4035	-0.0074	-0.0065	-0.0482	35.1743	9.3539	-7.9619	-0.3687	-0.5859	-0.3814	0.6126
0.2	-9.6301	-0.2335	0.3939	-0.0155	-0.0050	-0.0542	35.0628	9.4780	-7.8846	-0.3687	-0.5860	-0.3813	0.6126
0.21	-9.6330	-0.2399	0.4073	-0.0184	-0.0097	-0.0620	35.0476	9.2663	-7.8030	-0.3686	-0.5859	-0.3813	0.6127
0.22	-9.6332	-0.2405	0.4046	-0.0175	-0.0059	-0.0566	35.0161	9.1315	-7.7940	-0.3686	-0.5860	-0.3812	0.6128
0.23	-9.6241	-0.2304	0.4130	-0.0115	-0.0018	-0.0657	35.1126	9.3173	-7.8948	-0.3685	-0.5860	-0.3812	0.6128
0.24	-9.6127	-0.2350	0.4165	-0.0119	-0.0046	-0.0585	35.2769	9.1258	-7.9321	-0.3684	-0.5860	-0.3811	0.6129
0.25	-9.5993	-0.2275	0.4180	-0.0209	-0.0060	-0.0546	35.1066	9.3450	-7.9988	-0.3683	-0.5860	-0.3810	0.6128
0.26	-9.5968	-0.2146	0.4173	-0.0153	-0.0027	-0.0477	35.2477	9.4218	-7.9673	-0.3684	-0.5861	-0.3810	0.6129
0.27	-9.5839	-0.2059	0.4071	-0.0074	-0.0019	-0.0391	35.2168	9.3126	-7.9812	-0.3683	-0.5862	-0.3809	0.6129
0.28	-9.5589	-0.1881	0.4033	-0.0120	-0.0033	-0.0439	35.2088	9.2988	-7.9762	-0.3683	-0.5862	-0.3808	0.6130
0.29	-9.5278	-0.1919	0.3893	-0.0222	-0.0017	-0.0436	35.3300	9.1168	-7.9696	-0.3683	-0.5863	-0.3807	0.6130
0.3	-9.5324	-0.2160	0.3894	-0.0226	0.0158	-0.0520	35.2719	9.0876	-7.8434	-0.3682	-0.5864	-0.3807	0.6129
0.31	-9.5585	-0.2497	0.3725	-0.0228	0.0189	-0.0487	35.0067	9.2100	-7.7303	-0.3682	-0.5865	-0.3807	0.6129
0.32	-9.5814	-0.2631	0.3712	-0.0228	0.0214	-0.0416	35.1331	9.0440	-7.9853	-0.3681	-0.5865	-0.3806	0.6128
0.33	-9.5933	-0.2634	0.3703	-0.0165	0.0267	-0.0399	35.2314	9.1032	-8.0575	-0.3681	-0.5868	-0.3806	0.6128
0.34	-9.5981	-0.2553	0.3675	-0.0132	0.0256	-0.0416	35.0777	9.3083	-7.7964	-0.3680	-0.5869	-0.3805	0.6127
0.35	-9.6222	-0.2424	0.3569	-0.0121	0.0314	-0.0361	35.2315	9.1543	-7.7671	-0.3680	-0.5871	-0.3805	0.6126
0.36	-9.6240	-0.2241	0.3520	-0.0059	0.0219	-0.0286	35.2081	9.2388	-7.9103	-0.3679	-0.5872	-0.3803	0.6125
0.37	-9.6058	-0.2051	0.3546	-0.0047	0.0238	-0.0279	35.1315	9.2786	-7.8335	-0.3678	-0.5874	-0.3802	0.6124
0.38	-9.6075	-0.2045	0.3444	-0.0006	0.0255	-0.0297	35.6673	9.3658	-7.6305	-0.3678	-0.5876	-0.3801	0.6124
0.39	-9.6238	-0.2023	0.3369	0.0019	0.0323	-0.0330	35.6047	9.2759	-7.8070	-0.3676	-0.5878	-0.3800	0.6123
0.4	-9.6356	-0.1856	0.3352	0.0039	0.0331	-0.0331	35.3601	9.1355	-7.8255	-0.3676	-0.5881	-0.3799	0.6123
0.41	-9.6529	-0.1686	0.3345	0.0026	0.0392	-0.0346	35.0053	9.2985	-7.8640	-0.3674	-0.5883	-0.3798	0.6121
0.42	-9.6731	-0.1686	0.3311	0.0039	0.0404	-0.0377	34.7927	9.3006	-7.8416	-0.3673	-0.5885	-0.3797	0.6121
0.43	-9.6794	-0.1541	0.3268	0.0030	0.0301	-0.0453	34.9808	9.1813	-7.6975	-0.3671	-0.5887	-0.3796	0.6120
0.44	-9.6903	-0.1401	0.3321	0.0049	0.0287	-0.0485	35.0924	9.1345	-7.8319	-0.3670	-0.5889	-0.3795	0.6120
0.45	-9.6984	-0.1467	0.3254	0.0012	0.0246	-0.0485	35.1606	9.1563	-7.7729	-0.3669	-0.5890	-0.3794	0.6119
0.46	-9.6769	-0.1447	0.3260	0.0031	0.0150	-0.0481	35.1387	9.3942	-7.8959	-0.3667	-0.5892	-0.3793	0.6119
0.47	-9.6348	-0.1458	0.3282	0.0002	0.0110	-0.0508	35.1492	9.2623	-7.9013	-0.3666	-0.5893	-0.3792	0.6120
0.48	-9.6118	-0.1437	0.3394	-0.0075	0.0043	-0.0488	35.0138	8.9631	-7.8874	-0.3665	-0.5894	-0.3791	0.6120
0.49	-9.6537	-0.1615	0.3491	-0.0028	0.0150	-0.0538	35.3316	8.9650	-7.8892	-0.3664	-0.5895	-0.3791	0.6120
0.5	-9.6475	-0.2063	0.3449	-0.0098	0.0067	-0.0623	35.2251	9.0151	-7.8964	-0.3663	-0.5895	-0.3790	0.6120
0.51	-9.6134	-0.2131	0.3467	-0.0078	0.0000	-0.0612	35.2465	9.0231	-7.7694	-0.3662	-0.5896	-0.3790	0.6121
0.52	-9.5745	-0.2335	0.3469	-0.0139	0.0019	-0.0653	35.1869	9.0944	-7.8411	-0.3661	-0.5896	-0.3789	0.6121
0.53	-9.5454	-0.2660	0.3593	-0.0113	0.0021	-0.0636	35.1219	8.8953	-7.9704	-0.3660	-0.5897	-0.3789	0.6122
0.54	-9.5785	-0.2678	0.3561	0.0021	0.0173	-0.0521	35.1524	8.9158	-8.0894	-0.3658	-0.5898	-0.3788	0.6122
0.55	-9.6023	-0.2594	0.3599	0.0027	0.0197	-0.0424	35.1378	9.1793	-7.9310	-0.3657	-0.5900	-0.3787	0.6122
0.56	-9.6070	-0.2292	0.3680	0.0027	0.0151	-0.0394	35.1485	9.1267	-7.8778	-0.3656	-0.5901	-0.3785	0.6122
0.57	-9.6119	-0.1854	0.3607	0.0027	0.0214	-0.0353	35.1338	9.0736	-7.9045	-0.3655	-0.5903	-0.3784	0.6121
0.58	-9.6116	-0.1594	0.3519	0.0018	0.0218	-0.0343	35.2517	9.1048	-7.8757	-0.3655	-0.5905	-0.3783	0.6122
0.59	-9.6135	-0.1397	0.3437	0.0039	0.0189	-0.0376	35.2236	8.9453	-8.0776	-0.3653	-0.5907	-0.3781	0.6121
0.6	-9.6057	-0.1238	0.3419	-0.0012	0.0263	-0.0410	35.2490	9.3744	-8.0171	-0.3653	-0.5909	-0.3781	0.6121
0.61	-9.6069	-0.1426	0.3370	-0.0150	0.0260	-0.0478	35.1433	9.2517	-7.8941	-0.3651	-0.5909	-0.3780	0.6120
0.62	-9.6219	-0.1651	0.3300	-0.0220	0.0303	-0.0534	35.1290	9.0717	-7.8653	-0.3650	-0.5911	-0.3780	0.6119
0.63	-9.6276	-0.1764	0.3202	-0.0222	0.0283	-0.0538	35.1898	9.4275	-7.7889	-0.3650	-0.5912	-0.3780	0.6119
0.64	-9.6301	-0.1798	0.3198	-0.0190	0.0302	-0.0469	35.3318	9.1738	-7.8037	-0.3648	-0.5913	-0.3780	0.6118
0.65	-9.6403	-0.1702	0.3114	-0.0225	0.0276	-0.0431	35.2348	9.1803	-7.8090	-0.3648	-0.5915	-0.3780	0.6118
0.66	-9.6607	-0.1654	0.3121	-0.0215	0.0285	-0.0422	35.0584	9.3225	-8.0747	-0.3647	-0.5916	-0.3779	0.6116
0.67	-9.6904	-0.1664	0.3122	-0.0216	0.0213	-0.0363	34.9002	9.1422	-7.8418	-0.3647	-0.5918	-0.3779	0.6116
0.68	-9.6957	-0.1691	0.3091	-0.0229	0.0064	-0.0339	35.1743	8.9037	-7.6704	-0.3647	-0.5918	-0.3778	0.6115
0.69	-9.6938	-0.1856	0.3135	-0.0261	0.0058	-0.0373	35.1160	8.9066	-7.8579	-0.3647	-0.5920	-0.3777	0.6115
0.7	-9.6737	-0.2119	0.3170	-0.0282	0.0015	-0.0413	35.1944	8.7885	-7.8660	-0.3647	-0.5920	-0.3777	0.6114
0.71	-9.6552	-0.2355	0.3213	-0.0210	0.0007	-0.0410	35.2592	8.9130	-7.6676	-0.3647	-0.5920	-0.3776	0.6114
0.72	-9.6337	-0.2541	0.3267	-0.0221	0.0006	-0.0471	35.1154	9.0189	-7.9242	-0.3647	-0.5921	-0.3775	0.6115
0.73	-9.6106	-0.2576	0.3234	-0.0173	-0.0000	-0.0455	35.1688	8.9904	-7.8717	-0.3647	-0.5922	-0.3774	0.6114
0.74	-9.5845	-0.2472	0.3272	0.0011	-0.0001	-0.0430	35.0775	8.8249	-7.9194	-0.3646	-0.5923	-0.3773	0.6115
0.75	-9.5678	-0.2142	0.3322	0.0013	0.0006	-0.0408	35.0237	8.8327	-7.7060	-0.3645	-0.5923	-0.3771	0.6115
0.76	-9.5921	-0.1839	0.3363	0.0186	0.0159	-0.0417	35.1912	8.9236	-7.6853	-0.3644	-0.5925	-0.3770	0.6116
0.77	-9.5980	-0.1544	0.3415	0.0247	0.0130	-0.0464	35.2406	9.1025	-7.5774	-0.3642	-0.5927	-0.3768	0.6116
0.78	-9.6029	-0.1171	0.3428	0.0269	0.0216	-0.0517	35.2342	9.0134	-7.7003	-0.3640	-0.5929	-0.3767	0.6117
0.79	-9.6007	-0.0988	0.3381	0.0117	0.0218	-0.0557	35.2228	9.0117	-7.7109	-0.3638	-0.5930	-0.3765	0.6117
0.8	-9.5952	-0.0985	0.3323	0.0116	0.0245	-0.0660	35.2545	9.2248	-7.8309	-0.3636	-0.5932	-0.3765	0.6117
0.81	-9.5920	-0.1059	0.3342	0.0058	0.0331	-0.0665	35.1714	9.1682	-7.5646	-0.3634	-0.5934	-0.3765	0.6117
0.82	-9.5982	-0.1219	0.3283	0.0014	0.0314	-0.0694	35.1292	9.1866	-7.8298	-0.3632	-0.5934	-0.3764	0.6117
0.83	-9.6053	-0.1326	0.3128	-0.0080	0.0398	-0.0675	35.1510	9.0889	-7.6556	-0.3630	-0.5937	-0.3765	0.6117
0.84	-9.6173	-0.1381	0.3044	-0.0167	0.0286	-0.0569	35.1457	9.2209	-7.6552	-0.3629	-0.5937	-0.3765	0.6116
0.85	-9.6485	-0.1441	0.2964	-0.0205	0.0260	-0.0534	35.1335	9.1217	-7.7179	-0.3628	-0.5939	-0.3765	0.6116
0.86	-9.6847	-0.1539	0.2942	-0.0196	0.0330	-0.0498	35.2403	8.9773	-7.7970	-0.3626	-0.5940	-0.3765	0.6114
0.87	-9.6950	-0.1566	0.2913	-0.0261	0.0320	-0.0452	35.2218	8.9332	-7.9068	-0.3626	-0.5942	-0.3765	0.6114
0.88	-9.6942	-0.1655	0.2818	-0.0203	0.0306	-0.0461	35.6593	9.2224	-7.4977	-0.3625	-0.5943	-0.3765	0.6113
0.89	-9.6962	-0.1874	0.2743	-0.0257	0.0189	-0.0447	35.9247	9.1000	-7.2984	-0.3625	-0.5944	-0.3764	0.6112
0.9	-9.6866	-0.2084	0.2819	-0.0404	0.0121	-0.0534	35.5671	9.1349	-7.4844	-0.3625	-0.5945	-0.3765	0.6112
0.91	-9.6827	-0.2324	0.2716	-0.0288	0.0140	-0.0497	35.4334	8.9855	-7.6400	-0.3625	-0.5945	-0.3765	0.6111
0.92	-9.6679	-0.2505	0.2597	-0.0253	0.0018	-0.0500	35.1569	9.1963	-7.6781	-0.3625	-0.5946	-0.3765	0.6111
0.93	-9.6610	-0.2534	0.2706	-0.0221	0.0025	-0.0480	35.3518	9.2806	-7.7118	-0.3624	-0.5945	-0.3764	0.6111
0.94	-9.6593	-0.2508	0.2661	-0.0205	-0.0015	-0.0465	35.2743	8.9557	-7.5464	-0.3624	-0.5946	-0.3764	0.6111
0.95	-9.6406	-0.2398	0.2798	-0.0200	0.0002	-0.0486	35.2516	9.0779	-7.4751	-0.3624	-0.5946	-0.3763	0.6111
0.96	-9.6287	-0.2249	0.2811	-0.0166	-0.0043	-0.0488	35.3621	9.1970	-7.5883	-0.3624	-0.5947	-0.3762	0.6111
0.97	-9.6162	-0.2147	0.2905	-0.0046	-0.0023	-0.0503	35.1873	9.0228	-7.6051	-0.3623	-0.5948	-0.3761	0.6112
0.98	-9.6239	-0.2041	0.3044	-0.0022	0.0016	-0.0553	35.2658	9.2324	-7.7194	-0.3622	-0.5948	-0.3760	0.6112
0.99	-9.6233	-0.1984	0.3077	0.0040	-0.0059	-0.0531	35.1469	9.1981	-7.6581	-0.3621	-0.5949	-0.3759	0.6114
1	-9.5978	-0.1933	0.3128	0.0036	-0.0018	-0.0585	35.1860	9.0337	-7.8095	-0.3619	-0.5949	-0.3757	0.6114
1.01	-9.5969	-0.1629	0.3080	0.0038	0.0021	-0.0579	35.6039	9.0926	-7.5171	-0.3619	-0.5950	-0.3757	0.6115
1.02	-9.5743	-0.1417	0.2994	0.0059	0.0070	-0.0607	35.3409	9.1751	-7.3815	-0.3617	-0.5951	-0.3756	0.6115
1.03	-9.5421	-0.1405	0.3054	0.0044	0.0061	-0.0651	35.1098	9.1279	-7.7133	-0.3615	-0.5952	-0.3755	0.6116
1.04	-9.5607	-0.1477	0.3013	-0.0025	0.0196	-0.0681	35.1525	9.2524	-7.6709	-0.3614	-0.5952	-0.3755	0.6116
1.05	-9.5831	-0.1604	0.2988	-0.0070	0.0206	-0.0594	35.1352	9.2320	-7.6036	-0.3612	-0.5954	-0.3755	0.6116
1.06	-9.6195	-0.1643	0.3081	-0.0165	0.0286	-0.0637	35.3323	9.2279	-7.7460	-0.3611	-0.5955	-0.3755	0.6116
1.07	-9.6687	-0.1845	0.3024	-0.0212	0.0286	-0.0579	35.2876	8.9342	-7.5658	-0.3609	-0.5955	-0.3755	0.6115
1.08	-9.7123	-0.2086	0.2876	-0.0234	0.0213	-0.0592	35.3628	9.1229	-7.6197	-0.3609	-0.5957	-0.3755	0.6115
1.09	-9.7039	-0.2135	0.2829	-0.0221	0.0201	-0.0548	35.5108	9.1200	-7.5559	-0.3608	-0.5957	-0.3755	0.6115
1.1	-9.6729	-0.2090	0.2708	-0.0226	0.0146	-0.0478	35.0559	9.2994	-7.7087	-0.3608	-0.5959	-0.3755	0.6115
1.11	-9.6300	-0.2159	0.2666	-0.0231	0.0043	-0.0444	35.4715	9.3308	-7.5824	-0.3607	-0.5958	-0.3754	0.6114
1.12	-9.6149	-0.2191	0.2685	-0.0225	0.0109	-0.0413	35.3347	9.3522	-7.5131	-0.3607	-0.5960	-0.3754	0.6114
1.13	-9.6231	-0.2146	0.2619	-0.0231	0.0127	-0.0355	35.0086	9.2277	-7.6392	-0.3607	-0.5961	-0.3753	0.6113
1.14	-9.6404	-0.2120	0.2614	-0.0225	0.0110	-0.0360	35.1227	9.0448	-7.5692	-0.3607	-0.5961	-0.3753	0.6112
1.15	-9.6404	-0.2207	0.2521	-0.0244	0.0087	-0.0393	35.3589	9.0540	-7.6168	-0.3608	-0.5963	-0.3752	0.6113
1.16	-9.6393	-0.2286	0.2535	-0.0242	0.0143	-0.0390	35.4106	9.1133	-7.5677	-0.3607	-0.5963	-0.3752	0.6112
1.17	-9.6353	-0.2378	0.2504	-0.0196	0.0166	-0.0474	35.1967	9.1198	-7.6473	-0.3607	-0.5964	-0.3751	0.6112
1.18	-9.6227	-0.2436	0.2552	-0.0208	0.0104	-0.0409	35.3361	8.9502	-7.3706	-0.3606	-0.5965	-0.3750	0.6111
1.19	-9.6203	-0.2449	0.2633	-0.0041	0.0072	-0.0460	35.2868	8.9845	-7.4544	-0.3606	-0.5966	-0.3750	0.6111
1.2	-9.6131	-0.2305	0.2612	0.0056	0.0097	-0.0481	35.3872	8.9935	-7.6566	-0.3605	-0.5967	-0.3748	0.6111
1.21	-9.5984	-0.2133	0.2630	0.0031	0.0052	-0.0418	35.3528	9.1790	-7.4995	-0.3604	-0.5968	-0.3747	0.6112
1.22	-9.5934	-0.1993	0.2634	0.0028	0.0186	-0.0457	35.1965	9.1253	-7.4052	-0.3603	-0.5970	-0.3746	0.6112
1.23	-9.5834	-0.1919	0.2723	0.0069	0.0080	-0.0442	35.2531	9.0703	-7.4197	-0.3601	-0.5971	-0.3745	0.6112
1.24	-9.5867	-0.1771	0.2667	0.0052	0.0112	-0.0479	35.4036	9.2153	-7.6092	-0.3600	-0.5972	-0.3744	0.6113
1.25	-9.5758	-0.1684	0.2562	0.0046	0.0236	-0.0482	35.4099	8.9537	-7.5654	-0.3599	-0.5973	-0.3742	0.6112
1.26	-9.5677	-0.1607	0.2536	0.0026	0.0228	-0.0469	35.1909	8.9864	-7.7475	-0.3598	-0.5975	-0.3742	0.6112
1.27	-9.5796	-0.1526	0.2430	0.0058	0.0352	-0.0515	35.2451	8.9550	-7.5680	-0.3596	-0.5977	-0.3741	0.6112
1.28	-9.5919	-0.1517	0.2454	0.0033	0.0320	-0.0514	35.1688	9.0491	-7.4788	-0.3594	-0.5979	-0.3740	0.6112
1.29	-9.6135	-0.1381	0.2372	0.0035	0.0383	-0.0428	35.0871	9.0807	-7.5059	-0.3593	-0.5981	-0.3739	0.6111
1.3	-9.6368	-0.1376	0.2305	-0.0051	0.0379	-0.0464	35.2327	8.9130	-7.5250	-0.3591	-0.5983	-0.3739	0.6110
1.31	-9.6545	-0.1309	0.2218	-0.0102	0.0419	-0.0427	35.2881	8.8866	-7.5986	-0.3590	-0.5985	-0.3739	0.6109
1.32	-9.6557	-0.1175	0.2239	-0.0131	0.0399	-0.0494	35.1897	8.8749	-7.2814	-0.3588	-0.5986	-0.3738	0.6108
1.33	-9.6671	-0.1223	0.2056	-0.0218	0.0320	-0.0507	35.3441	9.0159	-7.2298	-0.3588	-0.5988	-0.3739	0.6108
1.34	-9.6637	-0.1264	0.1951	-0.0199	0.0352	-0.0519	35.3172	8.9225	-7.6783	-0.3587	-0.5989	-0.3739	0.6106
1.35	-9.6393	-0.1385	0.1898	-0.0231	0.0338	-0.0527	35.2577	9.1341	-7.6344	-0.3586	-0.5991	-0.3739	0.6106
1.36	-9.6398	-0.1384	0.1995	-0.0208	0.0298	-0.0501	35.2022	9.1555	-7.4866	-0.3585	-0.5991	-0.3739	0.6105
1.37	-9.6907	-0.1655	0.1872	-0.0376	0.0308	-0.0557	35.3714	9.0524	-7.3843	-0.3584	-0.5993	-0.3740	0.6104
1.38	-9.6792	-0.1970	0.1874	-0.0383	0.0194	-0.0584	35.6237	9.2367	-7.2503	-0.3584	-0.5993	-0.3740	0.6103
1.39	-9.6645	-0.1867	0.1928	-0.0320	0.0122	-0.0538	35.7826	9.2694	-7.1962	-0.3584	-0.5993	-0.3740	0.6102
1.4	-9.6388	-0.1952	0.1909	-0.0274	0.0148	-0.0528	35.6265	9.1064	-7.4376	-0.3584	-0.5994	-0.3741	0.6103
1.41	-9.6302	-0.2153	0.2025	-0.0229	0.0145	-0.0549	35.3410	9.1379	-7.4726	-0.3583	-0.5994	-0.3740	0.6102
1.42	-9.6746	-0.2216	0.1901	-0.0264	0.0139	-0.0444	35.1014	8.9923	-7.4879	-0.3583	-0.5996	-0.3740	0.6102
1.43	-9.6872	-0.2224	0.1936	-0.0245	0.0091	-0.0349	35.4261	8.8427	-7.5370	-0.3582	-0.5996	-0.3739	0.6101
1.44	-9.6649	-0.2068	0.2051	-0.0196	0.0008	-0.0331	35.3703	8.8511	-7.3410	-0.3583	-0.5997	-0.3739	0.6101
1.45	-9.6544	-0.1884	0.2143	-0.0191	0.0073	-0.0369	35.4210	8.7634	-7.3564	-0.3583	-0.5998	-0.3738	0.6101
1.46	-9.6560	-0.1854	0.2110	-0.0218	-0.0012	-0.0332	35.5855	9.0073	-7.4535	-0.3583	-0.5998	-0.3736	0.6101
1.47	-9.6421	-0.1841	0.2123	-0.0163	-0.0035	-0.0373	35.4645	8.8056	-7.2807	-0.3583	-0.5999	-0.3736	0.6101
1.48	-9.6235	-0.1793	0.2171	-0.0116	-0.0003	-0.0462	35.3445	8.8140	-7.3533	-0.3583	-0.5999	-0.3734	0.6101
1.49	-9.6184	-0.1790	0.2115	-0.0123	0.0085	-0.0477	35.2534	8.8625	-7.2636	-0.3582	-0.6000	-0.3734	0.6101
1.5	-9.6153	-0.1775	0.2123	-0.0066	0.0059	-0.0456	35.4914	8.9463	-7.5344	-0.3581	-0.6001	-0.3733	0.6101
1.51	-9.6130	-0.1689	0.2171	-0.0098	0.0057	-0.0504	35.3645	9.0452	-7.5791	-0.3581	-0.6002	-0.3732	0.6102
1.52	-9.6164	-0.1773	0.2110	-0.0041	0.0160	-0.0533	35.2588	9.0735	-7.1812	-0.3579	-0.6003	-0.3731	0.6102
1.53	-9.6233	-0.1871	0.2143	-0.0084	0.0126	-0.0544	35.3951	9.1556	-7.3188	-0.3579	-0.6004	-0.3731	0.6102
1.54	-9.6252	-0.1841	0.2131	-0.0030	0.0150	-0.0479	35.3815	9.1086	-7.4356	-0.3577	-0.6005	-0.3730	0.6102
1.55	-9.6179	-0.1891	0.2115	-0.0062	0.0103	-0.0446	35.4089	9.0218	-7.2629	-0.3577	-0.6006	-0.3729	0.6102
1.56	-9.6193	-0.1837	0.2154	0.0020	0.0129	-0.0402	35.3293	9.2585	-7.2338	-0.3576	-0.6007	-0.3728	0.6102
1.57	-9.6180	-0.1747	0.2136	-0.0051	0.0123	-0.0430	35.2916	9.0203	-7.2103	-0.3575	-0.6008	-0.3727	0.6101
1.58	-9.6112	-0.1612	0.2126	-0.0063	0.0172	-0.0400	35.1971	9.1641	-7.4840	-0.3575	-0.6010	-0.3726	0.6102
1.59	-9.6217	-0.1519	0.2103	-0.0136	0.0169	-0.0337	35.3907	9.1991	-7.4762	-0.3574	-0.6011	-0.3725	0.6101
1.6	-9.6346	-0.1441	0.2065	0.0011	0.0111	-0.0339	35.3279	9.0553	-7.1433	-0.3574	-0.6012	-0.3724	0.6101
1.61	-9.6468	-0.1325	0.2052	-0.0016	0.0223	-0.0299	35.2764	8.8571	-7.5720	-0.3573	-0.6013	-0.3722	0.6100
1.62	-9.6611	-0.1231	0.2028	-0.0111	0.0070	-0.0342	35.4367	8.6207	-7.4264	-0.3572	-0.6015	-0.3721	0.6100
1.63	-9.6628	-0.1217	0.1920	-0.0009	0.0124	-0.0361	35.6884	8.7900	-7.4690	-0.3572	-0.6016	-0.3720	0.6100
1.64	-9.6586	-0.1257	0.1972	-0.0136	0.0165	-0.0420	35.5392	9.0026	-7.4597	-0.3571	-0.6017	-0.3719	0.6100
1.65	-9.6638	-0.1309	0.1878	-0.0090	0.0099	-0.0376	35.7116	8.7067	-7.1700	-0.3571	-0.6019	-0.3718	0.6100
1.66	-9.6583	-0.1360	0.1912	-0.0050	0.0088	-0.0492	35.5452	8.7416	-7.3992	-0.3570	-0.6019	-0.3717	0.6100
1.67	-9.6603	-0.1423	0.1916	-0.0039	0.0069	-0.0506	35.2673	8.9749	-7.1870	-0.3569	-0.6020	-0.3716	0.6101
1.68	-9.6619	-0.1531	0.1939	-0.0125	0.0049	-0.0466	35.3031	8.9388	-7.4362	-0.3568	-0.6020	-0.3715	0.6100
1.69	-9.6552	-0.1577	0.1996	-0.0114	-0.0011	-0.0483	35.4254	8.9537	-7.5054	-0.3568	-0.6021	-0.3715	0.6101
1.7	-9.6529	-0.1542	0.2005	-0.0142	-0.0024	-0.0433	35.4924	8.9552	-7.1830	-0.3568	-0.6022	-0.3714	0.6101
1.71	-9.6538	-0.1521	0.2008	-0.0198	-0.0013	-0.0428	35.4838	8.9376	-7.3417	-0.3567	-0.6022	-0.3713	0.6101
1.72	-9.6512	-0.1430	0.2078	-0.0223	0.0019	-0.0485	35.3693	9.0631	-7.2054	-0.3567	-0.6023	-0.3712	0.6101
1.73	-9.6404	-0.1247	0.2153	-0.0198	-0.0083	-0.0455	35.4232	9.0118	-7.2693	-0.3567	-0.6023	-0.3712	0.6101
1.74	-9.6278	-0.1286	0.2157	-0.0131	-0.0070	-0.0524	35.2780	9.1122	-7.3537	-0.3567	-0.6023	-0.3711	0.6102
1.75	-9.6116	-0.1342	0.2212	-0.0139	-0.0073	-0.0485	35.0891	9.1237	-7.3043	-0.3566	-0.6022	-0.3710	0.6102
1.76	-9.6077	-0.1383	0.2244	-0.0153	-0.0054	-0.0503	35.1411	9.1408	-7.3559	-0.3566	-0.6023	-0.3709	0.6103
1.77	-9.6036	-0.1452	0.2261	-0.0147	-0.0036	-0.0518	35.2720	9.0737	-7.4450	-0.3566	-0.6023	-0.3708	0.6103
1.78	-9.6024	-0.1581	0.2235	-0.0205	0.0003	-0.0580	35.3265	9.0334	-7.3481	-0.3565	-0.6024	-0.3708	0.6104
1.79	-9.6001	-0.1568	0.2260	-0.0105	-0.0059	-0.0494	35.1804	8.9488	-7.2845	-0.3565	-0.6024	-0.3707	0.6104
1.8	-9.5992	-0.1606	0.2285	-0.0129	0.0058	-0.0475	35.4990	8.8321	-7.3882	-0.3564	-0.6025	-0.3707	0.6104
1.81	-9.5959	-0.1680	0.2170	-0.0048	0.0009	-0.0496	35.7910	8.8882	-7.3516	-0.3564	-0.6025	-0.3706	0.6105
1.82	-9.5996	-0.1659	0.2142	-0.0148	0.0011	-0.0408	35.6406	8.8480	-7.3090	-0.3563	-0.6025	-0.3704	0.6104
1.83	-9.6037	-0.1667	0.2095	-0.0092	0.0094	-0.0413	35.4727	8.7901	-7.4040	-0.3563	-0.6027	-0.3704	0.6105
1.84	-9.6115	-0.1676	0.2021	-0.0079	0.0094	-0.0426	35.5897	8.7213	-7.4722	-0.3562	-0.6028	-0.3703	0.6105
1.85	-9.6265	-0.1609	0.1974	0.0035	0.0163	-0.0419	35.5637	8.7132	-7.4355	-0.3561	-0.6029	-0.3702	0.6105
1.86	-9.6388	-0.1471	0.1972	-0.0028	0.0121	-0.0385	35.5599	8.9953	-7.4147	-0.3560	-0.6030	-0.3700	0.6104
1.87	-9.6504	-0.1345	0.1920	-0.0083	0.0161	-0.0398	35.4754	8.8010	-7.3724	-0.3560	-0.6031	-0.3699	0.6105
1.88	-9.6615	-0.1216	0.1840	-0.0037	0.0181	-0.0384	35.8018	8.9746	-7.1523	-0.3559	-0.6033	-0.3698	0.6104
1.89	-9.6654	-0.1086	0.1902	-0.0080	0.0095	-0.0441	35.6342	9.1542	-7.3550	-0.3558	-0.6033	-0.3697	0.6104
1.9	-9.6775	-0.1041	0.1788	-0.0138	0.0110	-0.0443	35.5835	9.1047	-7.2637	-0.3558	-0.6035	-0.3697	0.6105
1.91	-9.6712	-0.1056	0.1807	-0.0209	0.0059	-0.0507	35.3797	8.9667	-7.2886	-0.3558	-0.6035	-0.3696	0.6104
1.92	-9.6643	-0.1117	0.1836	-0.0218	0.0035	-0.0495	35.1570	8.9719	-7.2574	-0.3558	-0.6036	-0.3696	0.6104
1.93	-9.6568	-0.1242	0.1802	-0.0217	0.0072	-0.0509	35.2535	8.8919	-7.2384	-0.3557	-0.6035	-0.3695	0.6104
1.94	-9.6479	-0.1347	0.1884	-0.0207	0.0034	-0.0540	35.0093	8.7449	-7.2446	-0.3557	-0.6036	-0.3695	0.6104
1.95	-9.6335	-0.1505	0.1828	-0.0207	0.0009	-0.0536	35.0677	8.8776	-7.4066	-0.3556	-0.6036	-0.3695	0.6104
1.96	-9.6282	-0.1547	0.1856	-0.0209	0.0004	-0.0509	35.3834	8.8107	-7.1381	-0.3556	-0.6036	-0.3694	0.6104
1.97	-9.6476	-0.1586	0.1898	-0.0212	-0.0007	-0.0527	35.5270	8.7967	-7.1607	-0.3556	-0.6037	-0.3694	0.6105
1.98	-9.6534	-0.1647	0.1882	-0.0213	-0.0103	-0.0418	35.2171	8.7756	-7.2439	-0.3556	-0.6037	-0.3693	0.6105
1.99	-9.6379	-0.1543	0.1942	-0.0232	-0.0045	-0.0498	35.4984	8.6611	-7.2903	-0.3556	-0.6037	-0.3693	0.6106
2	-9.6536	-0.1269	0.1991	-0.0187	-0.0044	-0.0420	35.8298	8.8297	-7.3564	-0.3555	-0.6037	-0.3692	0.6105
2.01	-9.6576	-0.1136	0.2019	-0.0078	-0.0052	-0.0386	35.3731	8.6587	-7.1949	-0.3555	-0.6038	-0.3691	0.6106
2.02	-9.6336	-0.1120	0.2106	-0.0176	-0.0128	-0.0526	35.3372	8.6315	-7.1176	-0.3555	-0.6038	-0.3690	0.6107
2.03	-9.6144	-0.1102	0.2104	-0.0185	-0.0112	-0.0489	35.2212	8.8172	-7.5114	-0.3555	-0.6038	-0.3689	0.6107
2.04	-9.5945	-0.1025	0.2104	-0.0152	-0.0068	-0.0522	35.2638	8.7665	-7.5181	-0.3554	-0.6038	-0.3688	0.6108
2.05	-9.6017	-0.0912	0.2194	-0.0223	-0.0032	-0.0538	35.2686	8.8428	-7.4034	-0.3554	-0.6038	-0.3688	0.6108
2.06	-9.6402	-0.1013	0.2223	-0.0227	-0.0011	-0.0583	35.3171	8.8600	-7.4035	-0.3554	-0.6038	-0.3688	0.6109
2.07	-9.6713	-0.1248	0.2210	-0.0236	-0.0080	-0.0569	35.5235	8.6831	-7.1979	-0.3553	-0.6038	-0.3687	0.6108
2.08	-9.6641	-0.1362	0.2129	-0.0221	-0.0008	-0.0549	35.4080	8.7251	-7.2752	-0.3553	-0.6039	-0.3687	0.6110
2.09	-9.6182	-0.1431	0.2120	-0.0271	-0.0081	-0.0551	35.3369	8.8430	-7.1699	-0.3553	-0.6038	-0.3687	0.6110
2.1	-9.5892	-0.1533	0.2145	-0.0232	0.0001	-0.0514	35.1832	8.9520	-7.1978	-0.3553	-0.6039	-0.3687	0.6110
2.11	-9.5929	-0.1461	0.2106	-0.0189	-0.0023	-0.0418	35.2567	9.0777	-7.3666	-0.3553	-0.6038	-0.3685	0.6110
2.12	-9.6039	-0.1344	0.1990	-0.0230	0.0073	-0.0421	35.3343	8.9196	-7.3184	-0.3553	-0.6039	-0.3685	0.6110
2.13	-9.5991	-0.1195	0.1946	-0.0196	0.0062	-0.0389	35.2974	8.8727	-7.3456	-0.3553	-0.6040	-0.3684	0.6110
2.14	-9.6103	-0.1130	0.1973	-0.0216	0.0111	-0.0435	35.4099	8.8801	-7.3264	-0.3552	-0.6040	-0.3683	0.6109
2.15	-9.6246	-0.1204	0.1853	-0.0218	0.0076	-0.0475	35.4043	8.9880	-7.2459	-0.3552	-0.6042	-0.3684	0.6110
2.16	-9.6282	-0.1259	0.1856	-0.0218	0.0120	-0.0531	35.4314	8.9528	-7.3648	-0.3552	-0.6041	-0.3683	0.6109
2.17	-9.6284	-0.1228	0.1730	-0.0189	0.0164	-0.0502	35.3591	8.7888	-7.3038	-0.3551	-0.6043	-0.3683	0.6109
2.18	-9.6290	-0.1183	0.1749	-0.0215	0.0109	-0.0567	35.6257	8.8072	-7.4338	-0.3550	-0.6042	-0.3682	0.6108
2.19	-9.6370	-0.1192	0.1766	-0.0223	0.0123	-0.0565	35.6350	8.7756	-7.4159	-0.3550	-0.6044	-0.3683	0.6109
2.2	-9.6494	-0.1226	0.1694	-0.0194	0.0082	-0.0586	35.6438	8.6794	-7.2403	-0.3549	-0.6044	-0.3683	0.6109
2.21	-9.6474	-0.1333	0.1730	-0.0212	0.0017	-0.0548	35.5604	8.7711	-7.2818	-0.3548	-0.6044	-0.3682	0.6109
2.22	-9.6359	-0.1355	0.1617	-0.0176	0.0069	-0.0554	35.3551	9.0125	-7.5801	-0.3548	-0.6045	-0.3682	0.6109
2.23	-9.6333	-0.1343	0.1579	-0.0188	-0.0037	-0.0442	35.5862	8.9178	-7.4477	-0.3547	-0.6045	-0.3681	0.6109
2.24	-9.6324	-0.1299	0.1544	-0.0227	0.0021	-0.0478	35.3505	8.6771	-7.2242	-0.3548	-0.6045	-0.3681	0.6109
2.25	-9.6279	-0.1281	0.1629	-0.0220	0.0083	-0.0426	35.2095	8.7980	-7.2398	-0.3547	-0.6045	-0.3680	0.6108
2.26	-9.6336	-0.1288	0.1525	-0.0225	0.0014	-0.0395	35.5565	8.9062	-7.3541	-0.3547	-0.6047	-0.3680	0.6109
2.27	-9.6464	-0.1261	0.1493	-0.0228	0.0070	-0.0478	35.1479	8.8610	-7.3125	-0.3547	-0.6047	-0.3679	0.6108
2.28	-9.6469	-0.1236	0.1555	-0.0208	0.0124	-0.0475	35.4325	8.9472	-7.4101	-0.3547	-0.6048	-0.3679	0.6108
2.29	-9.6532	-0.1262	0.1540	-0.0186	0.0095	-0.0436	35.2861	9.0848	-7.4498	-0.3546	-0.6048	-0.3679	0.6108
2.3	-9.6562	-0.1278	0.1519	-0.0207	0.0036	-0.0528	35.3820	8.9029	-7.3975	-0.3546	-0.6049	-0.3678	0.6108
2.31	-9.6537	-0.1317	0.1559	-0.0157	0.0039	-0.0521	35.3497	8.6934	-7.2684	-0.3545	-0.6049	-0.3678	0.6108
2.32	-9.6482	-0.1330	0.1519	-0.0190	0.0022	-0.0522	35.3670	8.7805	-7.1353	-0.3545	-0.6049	-0.3677	0.6108
2.33	-9.6420	-0.1268	0.1535	-0.0193	0.0038	-0.0467	35.6470	8.9246	-7.1594	-0.3545	-0.6050	-0.3677	0.6108
2.34	-9.6192	-0.1213	0.1519	-0.0137	0.0012	-0.0471	35.2412	8.9827	-7.2809	-0.3544	-0.6051	-0.3677	0.6108
2.35	-9.6053	-0.1037	0.1596	-0.0134	0.0019	-0.0498	35.2475	8.9672	-7.2045	-0.3544	-0.6052	-0.3676	0.6109
2.36	-9.6441	-0.1021	0.1604	-0.0165	0.0003	-0.0569	35.1889	8.9751	-7.3759	-0.3543	-0.6051	-0.3675	0.6108
2.37	-9.6502	-0.1187	0.1583	-0.0089	-0.0007	-0.0570	35.6664	8.8490	-7.2736	-0.3543	-0.6052	-0.3675	0.6109
2.38	-9.6499	-0.0988	0.1645	-0.0175	0.0021	-0.0585	35.9381	8.7615	-7.0776	-0.3542	-0.6052	-0.3675	0.6109
2.39	-9.6346	-0.1095	0.1524	-0.0153	-0.0027	-0.0603	35.7377	8.9103	-7.2651	-0.3541	-0.6052	-0.3674	0.6109
2.4	-9.6069	-0.1328	0.1625	-0.0233	-0.0064	-0.0576	35.6988	8.7471	-7.1598	-0.3541	-0.6052	-0.3675	0.6111
2.41	-9.6508	-0.1358	0.1625	-0.0182	-0.0039	-0.0554	35.4590	8.6155	-7.1796	-0.3541	-0.6052	-0.3674	0.6110
2.42	-9.6730	-0.1480	0.1549	-0.0171	0.0003	-0.0538	35.3073	8.7659	-7.3524	-0.3540	-0.6053	-0.3674	0.6111
2.43	-9.6603	-0.1402	0.1621	-0.0201	-0.0035	-0.0441	35.5121	8.7745	-7.2001	-0.3540	-0.6052	-0.3673	0.6111
2.44	-9.6663	-0.1171	0.1731	-0.0139	-0.0057	-0.0431	35.4723	8.7691	-7.2470	-0.3540	-0.6053	-0.3672	0.6111
2.45	-9.6822	-0.1118	0.1635	-0.0162	-0.0022	-0.0384	35.1391	8.7974	-7.1456	-0.3540	-0.6053	-0.3671	0.6111
2.46	-9.6730	-0.1228	0.1587	-0.0222	-0.0069	-0.0459	35.1903	8.9789	-6.8880	-0.3540	-0.6053	-0.3670	0.6111
2.47	-9.6518	-0.1129	0.1732	-0.0177	-0.0112	-0.0454	35.2377	8.8288	-7.1941	-0.3540	-0.6054	-0.3670	0.6112
2.48	-9.6412	-0.1148	0.1676	-0.0176	-0.0067	-0.0512	35.3295	8.9058	-7.2026	-0.3540	-0.6053	-0.3669	0.6112
2.49	-9.6346	-0.1195	0.1676	-0.0135	-0.0044	-0.0566	35.2515	8.9563	-7.3108	-0.3539	-0.6054	-0.3669	0.6113
2.5	-9.6195	-0.1195	0.1726	-0.0189	-0.0090	-0.0549	35.1801	9.0164	-7.2447	-0.3539	-0.6053	-0.3668	0.6113
2.51	-9.6191	-0.1263	0.1762	-0.0183	-0.0096	-0.0530	35.2679	9.0643	-7.1043	-0.3539	-0.6054	-0.3668	0.6114
2.52	-9.6199	-0.1341	0.1780	-0.0126	-0.0053	-0.0526	35.1201	8.8315	-7.1543	-0.3538	-0.6053	-0.3667	0.6114
2.53	-9.6119	-0.1347	0.1842	-0.0208	-0.0077	-0.0549	35.2315	8.9717	-7.1065	-0.3538	-0.6054	-0.3667	0.6115
2.54	-9.6137	-0.1382	0.1887	-0.0217	-0.0114	-0.0519	35.0840	8.8235	-7.2490	-0.3538	-0.6053	-0.3666	0.6115
2.55	-9.6242	-0.1462	0.1863	-0.0172	-0.0155	-0.0397	35.2197	8.6808	-7.3242	-0.3538	-0.6053	-0.3665	0.6116
2.56	-9.6231	-0.1451	0.1839	-0.0116	-0.0092	-0.0408	35.4641	8.8037	-7.3125	-0.3538	-0.6054	-0.3664	0.6116
2.57	-9.6225	-0.1404	0.1851	-0.0191	-0.0033	-0.0414	35.3546	8.7736	-7.3078	-0.3538	-0.6053	-0.3663	0.6116
2.58	-9.6389	-0.1274	0.1892	-0.0206	-0.0043	-0.0394	35.4150	8.6515	-7.3252	-0.3538	-0.6055	-0.3663	0.6117
2.59	-9.6419	-0.1203	0.1864	-0.0190	-0.0051	-0.0416	35.5334	8.6053	-7.1161	-0.3538	-0.6054	-0.3662	0.6117
2.6	-9.6466	-0.1130	0.1818	-0.0063	0.0009	-0.0410	35.3304	8.5188	-7.2064	-0.3538	-0.6056	-0.3661	0.6117
2.61	-9.6441	-0.1043	0.1795	-0.0055	-0.0013	-0.0429	35.2885	8.5898	-7.2004	-0.3537	-0.6055	-0.3660	0.6117
2.62	-9.6481	-0.1023	0.1789	0.0006	0.0024	-0.0400	35.3070	8.8298	-7.3992	-0.3537	-0.6057	-0.3659	0.6117
2.63	-9.6520	-0.0954	0.1793	0.0028	-0.0040	-0.0449	35.3152	8.7274	-7.5004	-0.3536	-0.6057	-0.3658	0.6118
2.64	-9.6560	-0.0930	0.1810	0.0019	-0.0004	-0.0468	35.2716	8.8654	-7.2838	-0.3535	-0.6057	-0.3656	0.6118
2.65	-9.6607	-0.0964	0.1892	-0.0030	-0.0034	-0.0520	35.4648	8.9545	-7.2421	-0.3535	-0.6059	-0.3656	0.6120
2.66	-9.6630	-0.0911	0.1885	-0.0081	-0.0120	-0.0544	35.1277	8.9603	-7.0437	-0.3534	-0.6058	-0.3655	0.6120
2.67	-9.6593	-0.0854	0.1931	-0.0002	-0.0135	-0.0527	35.0661	8.8995	-7.0988	-0.3534	-0.6058	-0.3654	0.6121
2.68	-9.6463	-0.0767	0.1992	0.0023	-0.0162	-0.0524	35.2191	8.7390	-7.2309	-0.3532	-0.6058	-0.3652	0.6121
2.69	-9.6383	-0.0727	0.2045	-0.0015	-0.0153	-0.0526	35.3727	9.0296	-7.2342	-0.3532	-0.6058	-0.3652	0.6123
2.7	-9.6296	-0.0796	0.2110	-0.0086	-0.0166	-0.0553	35.3144	9.0057	-7.2014	-0.3532	-0.6058	-0.3651	0.6124
2.71	-9.6152	-0.0832	0.2152	-0.0104	-0.0135	-0.0545	35.1594	8.8504	-7.3272	-0.3531	-0.6058	-0.3650	0.6124
2.72	-9.6033	-0.0994	0.2206	-0.0137	-0.0176	-0.0544	35.3425	8.8626	-7.1991	-0.3531	-0.6058	-0.3649	0.6126
2.73	-9.5949	-0.1167	0.2233	-0.0069	-0.0125	-0.0543	35.2984	8.8647	-7.2676	-0.3530	-0.6057	-0.3649	0.6126
2.74	-9.5832	-0.1257	0.2301	-0.0135	-0.0155	-0.0590	35.4829	8.8353	-7.3198	-0.3530	-0.6057	-0.3648	0.6127
2.75	-9.5763	-0.1225	0.2295	-0.0072	-0.0016	-0.0580	35.1483	8.5694	-7.3916	-0.3529	-0.6057	-0.3647	0.6127
2.76	-9.5783	-0.1179	0.2280	-0.0029	0.0050	-0.0532	35.3991	8.6171	-7.4099	-0.3528	-0.6058	-0.3647	0.6128
2.77	-9.5751	-0.0994	0.2277	-0.0148	-0.0041	-0.0509	35.6137	8.7174	-7.2302	-0.3528	-0.6058	-0.3646	0.6128
2.78	-9.5921	-0.0823	0.2222	-0.0091	0.0112	-0.0548	35.2900	8.6535	-7.2073	-0.3527	-0.6059	-0.3646	0.6129
2.79	-9.6048	-0.0666	0.2176	-0.0179	0.0072	-0.0540	35.3000	8.8059	-7.3206	-0.3526	-0.6059	-0.3646	0.6128
2.8	-9.6040	-0.0586	0.2100	-0.0182	0.0163	-0.0535	35.3244	8.7276	-7.3187	-0.3526	-0.6060	-0.3646	0.6128
2.81	-9.6083	-0.0699	0.2062	-0.0231	0.0148	-0.0546	35.2400	8.6906	-7.2932	-0.3525	-0.6061	-0.3646	0.6128
2.82	-9.6142	-0.0816	0.1939	-0.0215	0.0153	-0.0617	35.2017	8.9755	-7.4112	-0.3524	-0.6060	-0.3646	0.6128
2.83	-9.6217	-0.0950	0.1873	-0.0252	0.0184	-0.0533	35.3200	8.8295	-7.4100	-0.3524	-0.6062	-0.3647	0.6128
2.84	-9.6277	-0.1145	0.1732	-0.0263	0.0264	-0.0554	35.1687	8.8895	-7.2499	-0.3523	-0.6062	-0.3647	0.6127
2.85	-9.6425	-0.1283	0.1677	-0.0284	0.0257	-0.0584	35.2925	8.7783	-7.1978	-0.3522	-0.6063	-0.3648	0.6127
2.86	-9.6551	-0.1422	0.1634	-0.0335	0.0298	-0.0605	35.4055	8.8408	-7.3373	-0.3521	-0.6063	-0.3648	0.6125
2.87	-9.6691	-0.1584	0.1499	-0.0299	0.0258	-0.0533	35.3861	9.1333	-7.1732	-0.3521	-0.6064	-0.3649	0.6125
2.88	-9.6861	-0.1738	0.1529	-0.0295	0.0154	-0.0511	35.6208	9.0713	-7.1269	-0.3521	-0.6065	-0.3649	0.6124
2.89	-9.6901	-0.1779	0.1500	-0.0261	0.0113	-0.0528	35.6996	8.9818	-7.1325	-0.3520	-0.6065	-0.3649	0.6123
2.9	-9.6973	-0.1850	0.1485	-0.0223	0.0041	-0.0446	35.4581	8.7482	-7.0901	-0.3521	-0.6066	-0.3650	0.6124
2.91	-9.6827	-0.1860	0.1506	-0.0092	-0.0044	-0.0413	35.2976	8.7644	-6.9190	-0.3520	-0.6066	-0.3649	0.6124
2.92	-9.6760	-0.1837	0.1575	-0.0049	-0.0082	-0.0469	35.1826	8.9605	-7.2333	-0.3520	-0.6066	-0.3648	0.6125
2.93	-9.6681	-0.1812	0.1624	-0.0054	-0.0057	-0.0407	35.1992	8.6504	-7.2366	-0.3519	-0.6066	-0.3646	0.6124
2.94	-9.6602	-0.1680	0.1739	0.0015	-0.0073	-0.0405	35.3782	8.8665	-7.1578	-0.3519	-0.6067	-0.3645	0.6125
2.95	-9.6615	-0.1454	0.1758	0.0028	-0.0112	-0.0431	35.5194	8.6803	-7.2468	-0.3518	-0.6067	-0.3644	0.6126
2.96	-9.6500	-0.1223	0.1882	0.0056	-0.0133	-0.0416	35.4572	8.5776	-7.3099	-0.3518	-0.6068	-0.3642	0.6127
2.97	-9.6378	-0.0985	0.1912	0.0097	-0.0173	-0.0475	35.5973	8.7435	-7.3294	-0.3517	-0.6068	-0.3640	0.6128
2.98	-9.6337	-0.0786	0.2037	0.0076	-0.0165	-0.0478	35.4213	8.9373	-7.2308	-0.3516	-0.6068	-0.3639	0.6129
2.99	-9.6232	-0.0688	0.2052	0.0185	-0.0113	-0.0488	35.1696	8.7905	-7.4149	-0.3515	-0.6069	-0.3637	0.6131
3	-9.5951	-0.0623	0.2136	0.0092	-0.0076	-0.0522	35.4109	8.8774	-7.1110	-0.3514	-0.6069	-0.3636	0.6131
3.01	-9.5817	-0.0608	0.2191	0.0035	-0.0057	-0.0564	35.4817	8.7895	-7.1799	-0.3513	-0.6070	-0.3635	0.6132
3.02	-9.5670	-0.0651	0.2118	0.0026	-0.0026	-0.0530	35.2047	8.8033	-7.2579	-0.3512	-0.6070	-0.3634	0.6133
3.03	-9.5551	-0.0737	0.2130	-0.0074	-0.0004	-0.0547	35.2193	9.0161	-7.2410	-0.3512	-0.6070	-0.3634	0.6134
3.04	-9.5625	-0.0811	0.2122	-0.0073	0.0090	-0.0574	35.3037	8.8299	-7.2445	-0.3510	-0.6071	-0.3633	0.6133
3.05	-9.5802	-0.0848	0.2050	-0.0181	0.0133	-0.0556	35.4424	8.7225	-7.1075	-0.3510	-0.6071	-0.3633	0.6133
3.06	-9.6028	-0.0866	0.2065	-0.0226	0.0128	-0.0513	35.3176	8.8005	-7.2118	-0.3509	-0.6072	-0.3633	0.6133
3.07	-9.6318	-0.0916	0.2046	-0.0242	0.0207	-0.0505	35.2987	8.8778	-7.2717	-0.3509	-0.6072	-0.3633	0.6132
3.08	-9.6383	-0.1011	0.1881	-0.0212	0.0185	-0.0519	35.4078	8.9668	-7.2018	-0.3508	-0.6074	-0.3634	0.6133
3.09	-9.6274	-0.0990	0.1869	-0.0230	0.0175	-0.0526	35.4095	8.7337	-7.3233	-0.3508	-0.6074	-0.3634	0.6132
3.1	-9.6349	-0.0849	0.1730	-0.0228	0.0180	-0.0522	35.3260	8.8367	-7.2553	-0.3507	-0.6075	-0.3634	0.6132
3.11	-9.6268	-0.0808	0.1700	-0.0238	0.0129	-0.0532	35.2969	8.6848	-7.2521	-0.3506	-0.6075	-0.3634	0.6131
3.12	-9.6256	-0.0909	0.1713	-0.0221	0.0159	-0.0511	35.3002	8.7143	-7.1823	-0.3506	-0.6076	-0.3634	0.6131
3.13	-9.6389	-0.1070	0.1617	-0.0227	0.0200	-0.0595	35.1546	8.7092	-7.0271	-0.3505	-0.6076	-0.3634	0.6131
3.14	-9.6573	-0.1197	0.1623	-0.0224	0.0085	-0.0561	35.3813	8.6905	-7.3520	-0.3505	-0.6076	-0.3634	0.6130
3.15	-9.6831	-0.1230	0.1717	-0.0236	0.0140	-0.0538	35.6133	8.8280	-7.4344	-0.3505	-0.6078	-0.3635	0.6131
3.16	-9.7242	-0.1474	0.1690	-0.0248	0.0124	-0.0579	35.4037	8.8847	-7.2539	-0.3504	-0.6077	-0.3635	0.6130
3.17	-9.7356	-0.1628	0.1607	-0.0237	-0.0009	-0.0513	35.4098	8.6876	-7.0278	-0.3504	-0.6078	-0.3635	0.6130
3.18	-9.7023	-0.1633	0.1670	-0.0224	-0.0088	-0.0553	35.3033	8.7954	-7.1476	-0.3503	-0.6077	-0.3634	0.6130
3.19	-9.6616	-0.1661	0.1755	-0.0231	-0.0088	-0.0507	35.1922	8.9137	-7.2819	-0.3503	-0.6077	-0.3634	0.6131
3.2	-9.6183	-0.1666	0.1759	-0.0215	-0.0091	-0.0380	35.0726	8.6687	-7.0054	-0.3504	-0.6077	-0.3634	0.6131
3.21	-9.6029	-0.1543	0.1764	-0.0220	-0.0032	-0.0428	35.2925	8.8660	-7.2455	-0.3504	-0.6077	-0.3633	0.6131
3.22	-9.6041	-0.1375	0.1821	-0.0129	0.0014	-0.0402	35.4140	8.9791	-7.2272	-0.3504	-0.6078	-0.3632	0.6131
3.23	-9.5899	-0.1228	0.1800	-0.0043	0.0008	-0.0476	35.2639	8.9958	-7.0301	-0.3503	-0.6078	-0.3631	0.6131
3.24	-9.5805	-0.1055	0.1867	-0.0139	0.0021	-0.0482	35.3752	8.8640	-7.2516	-0.3503	-0.6079	-0.3631	0.6132
3.25	-9.5760	-0.0959	0.1818	-0.0091	0.0058	-0.0487	35.4313	8.6697	-7.3173	-0.3502	-0.6079	-0.3630	0.6131
3.26	-9.5864	-0.0902	0.1805	0.0004	0.0073	-0.0542	35.1224	8.8345	-7.2370	-0.3501	-0.6080	-0.3630	0.6132
3.27	-9.5919	-0.0866	0.1801	-0.0005	0.0048	-0.0537	35.2165	8.7576	-7.2410	-0.3500	-0.6080	-0.3629	0.6133
3.28	-9.5974	-0.0895	0.1751	-0.0026	0.0076	-0.0538	35.3612	8.8886	-7.2266	-0.3499	-0.6081	-0.3628	0.6133
3.29	-9.6066	-0.0877	0.1742	-0.0061	0.0105	-0.0543	35.1756	8.7911	-7.4416	-0.3498	-0.6082	-0.3628	0.6133
3.3	-9.6146	-0.0860	0.1721	-0.0154	0.0096	-0.0517	35.3777	8.7862	-7.1664	-0.3497	-0.6082	-0.3628	0.6133
3.31	-9.6122	-0.0874	0.1632	-0.0209	0.0126	-0.0491	35.3967	8.8147	-7.3407	-0.3497	-0.6083	-0.3628	0.6133
3.32	-9.6000	-0.0791	0.1609	-0.0208	0.0110	-0.0449	35.3973	8.7175	-7.2530	-0.3496	-0.6083	-0.3627	0.6132
3.33	-9.6089	-0.0735	0.1476	-0.0175	0.0169	-0.0412	35.3852	8.4968	-7.1108	-0.3496	-0.6085	-0.3627	0.6132
3.34	-9.6288	-0.0753	0.1362	-0.0242	0.0189	-0.0394	35.4149	8.5587	-7.0160	-0.3496	-0.6085	-0.3627	0.6131
3.35	-9.6613	-0.0788	0.1357	-0.0250	0.0248	-0.0393	35.3248	8.7587	-7.1289	-0.3496	-0.6087	-0.3627	0.6131
3.36	-9.6972	-0.0884	0.1235	-0.0233	0.0249	-0.0397	35.2901	8.9181	-7.2529	-0.3495	-0.6087	-0.3626	0.6129
3.37	-9.7217	-0.0993	0.1257	-0.0254	0.0218	-0.0453	35.4421	8.7270	-7.1217	-0.3495	-0.6088	-0.3627	0.6129
3.38	-9.7294	-0.1052	0.1176	-0.0223	0.0090	-0.0417	35.7152	8.7405	-7.1425	-0.3495	-0.6089	-0.3626	0.6129
3.39	-9.7270	-0.1082	0.1185	-0.0245	0.0054	-0.0470	35.7920	8.9084	-6.8376	-0.3495	-0.6089	-0.3626	0.6128
3.4	-9.7189	-0.1041	0.1237	-0.0228	0.0050	-0.0535	35.4934	8.8240	-7.0319	-0.3495	-0.6090	-0.3627	0.6129
3.41	-9.7073	-0.1079	0.1281	-0.0228	-0.0088	-0.0527	35.1571	8.9200	-7.2182	-0.3494	-0.6089	-0.3626	0.6129
3.42	-9.6823	-0.1147	0.1331	-0.0234	-0.0132	-0.0526	34.9685	8.7580	-7.3189	-0.3495	-0.6089	-0.3626	0.6130
3.43	-9.6540	-0.1154	0.1409	-0.0209	-0.0175	-0.0535	35.1801	8.8595	-7.2078	-0.3494	-0.6088	-0.3625	0.6130
3.44	-9.6093	-0.1153	0.1534	-0.0243	-0.0239	-0.0549	35.2436	8.9838	-7.2094	-0.3495	-0.6088	-0.3625	0.6131
3.45	-9.5910	-0.1066	0.1748	-0.0195	-0.0139	-0.0573	35.2587	8.7517	-7.3870	-0.3494	-0.6087	-0.3624	0.6132
3.46	-9.6171	-0.1258	0.1869	-0.0190	-0.0114	-0.0573	35.4547	8.8693	-7.3837	-0.3494	-0.6087	-0.3624	0.6132
3.47	-9.5899	-0.1360	0.1923	-0.0180	-0.0166	-0.0527	35.1947	8.8532	-7.4151	-0.3494	-0.6087	-0.3624	0.6133
3.48	-9.5693	-0.1117	0.2030	-0.0037	-0.0158	-0.0549	35.2886	8.7644	-7.2041	-0.3493	-0.6087	-0.3623	0.6134
3.49	-9.5442	-0.1104	0.2025	-0.0025	-0.0078	-0.0586	35.5485	8.7548	-7.2883	-0.3493	-0.6087	-0.3622	0.6135
3.5	-9.5291	-0.1132	0.2121	-0.0032	-0.0079	-0.0607	35.3789	8.5042	-7.1950	-0.3491	-0.6086	-0.3621	0.6135
3.51	-9.5771	-0.1084	0.2035	-0.0002	0.0061	-0.0543	35.5620	8.3993	-7.3263	-0.3490	-0.6088	-0.3620	0.6137
3.52	-9.5910	-0.1100	0.1934	-0.0038	0.0120	-0.0501	35.7235	8.6421	-7.3863	-0.3489	-0.6088	-0.3620	0.6136
3.53	-9.5759	-0.0974	0.1928	-0.0049	0.0150	-0.0439	35.3436	8.7168	-7.4342	-0.3489	-0.6089	-0.3619	0.6137
3.54	-9.5843	-0.0778	0.1832	-0.0075	0.0210	-0.0486	35.2112	8.5875	-7.0485	-0.3487	-0.6090	-0.3618	0.6136
3.55	-9.6096	-0.0774	0.1750	-0.0213	0.0223	-0.0435	35.2632	8.7242	-7.1956	-0.3487	-0.6091	-0.3618	0.6136
3.56	-9.6215	-0.0808	0.1606	-0.0222	0.0255	-0.0422	35.3970	8.8639	-7.3271	-0.3487	-0.6092	-0.3618	0.6135
3.57	-9.6395	-0.0703	0.1467	-0.0202	0.0249	-0.0445	35.4443	8.7974	-7.3028	-0.3486	-0.6093	-0.3618	0.6134
3.58	-9.6652	-0.0759	0.1391	-0.0221	0.0247	-0.0446	35.2741	8.6584	-7.2590	-0.3486	-0.6095	-0.3618	0.6134
3.59	-9.6825	-0.0780	0.1284	-0.0241	0.0293	-0.0512	35.1095	8.8649	-7.2482	-0.3485	-0.6095	-0.3619	0.6132
3.6	-9.6948	-0.0808	0.1242	-0.0271	0.0197	-0.0471	35.1815	8.8519	-7.2756	-0.3485	-0.6097	-0.3619	0.6132
3.61	-9.7022	-0.0916	0.1139	-0.0248	0.0058	-0.0489	35.0395	8.8902	-6.9931	-0.3484	-0.6096	-0.3619	0.6131
3.62	-9.7070	-0.1042	0.1108	-0.0251	0.0053	-0.0505	35.1886	8.8160	-7.2624	-0.3484	-0.6097	-0.3619	0.6132
3.63	-9.7031	-0.1161	0.1102	-0.0263	-0.0013	-0.0496	35.1025	8.8112	-6.9912	-0.3484	-0.6097	-0.3619	0.6132
3.64	-9.6983	-0.1330	0.1151	-0.0225	0.0021	-0.0527	35.3188	8.9049	-7.1142	-0.3484	-0.6096	-0.3618	0.6131
3.65	-9.6910	-0.1504	0.1179	-0.0228	-0.0070	-0.0422	35.3490	8.7452	-7.1267	-0.3484	-0.6097	-0.3618	0.6132
3.66	-9.6883	-0.1582	0.1290	-0.0221	-0.0162	-0.0434	35.0124	8.6568	-7.0850	-0.3484	-0.6096	-0.3617	0.6132
3.67	-9.6871	-0.1574	0.1321	-0.0193	-0.0131	-0.0363	35.4553	8.5537	-7.1899	-0.3485	-0.6097	-0.3617	0.6133
3.68	-9.6680	-0.1523	0.1420	-0.0159	-0.0225	-0.0368	35.5377	8.7371	-7.2004	-0.3485	-0.6096	-0.3615	0.6133
3.69	-9.6594	-0.1376	0.1535	-0.0122	-0.0212	-0.0318	35.3683	8.6257	-7.2203	-0.3486	-0.6097	-0.3614	0.6134
3.7	-9.6513	-0.1191	0.1599	-0.0063	-0.0225	-0.0397	35.4634	8.5039	-7.1494	-0.3486	-0.6096	-0.3612	0.6135
3.71	-9.6356	-0.1014	0.1711	0.0026	-0.0175	-0.0412	35.6104	8.7363	-7.3942	-0.3485	-0.6096	-0.3611	0.6136
3.72	-9.6263	-0.0779	0.1763	0.0024	-0.0181	-0.0405	35.3976	8.5633	-7.2712	-0.3485	-0.6097	-0.3609	0.6137
3.73	-9.6186	-0.0603	0.1834	0.0054	-0.0184	-0.0440	35.2857	8.6451	-7.2059	-0.3484	-0.6097	-0.3607	0.6138
3.74	-9.6097	-0.0408	0.1890	0.0085	-0.0173	-0.0482	35.3976	8.7216	-7.3525	-0.3484	-0.6097	-0.3606	0.6139
3.75	-9.6032	-0.0331	0.2002	0.0075	-0.0183	-0.0448	35.4933	8.5874	-7.1737	-0.3483	-0.6097	-0.3604	0.6140
3.76	-9.6012	-0.0333	0.2043	0.0056	-0.0129	-0.0534	35.5334	8.7222	-7.2232	-0.3482	-0.6098	-0.3603	0.6141
3.77	-9.5900	-0.0229	0.2121	0.0061	-0.0106	-0.0512	35.4395	8.6605	-7.1649	-0.3481	-0.6098	-0.3602	0.6142
3.78	-9.5684	-0.0230	0.2178	-0.0019	-0.0176	-0.0544	35.4276	8.7806	-7.0532	-0.3481	-0.6098	-0.3601	0.6143
3.79	-9.5661	-0.0263	0.2160	-0.0112	-0.0155	-0.0564	35.3086	8.7651	-7.3556	-0.3480	-0.6097	-0.3600	0.6144
3.8	-9.5739	-0.0248	0.2176	-0.0076	0.0000	-0.0543	34.9865	8.9317	-7.4908	-0.3480	-0.6097	-0.3599	0.6145
3.81	-9.5748	-0.0327	0.2107	-0.0165	0.0050	-0.0540	35.3302	9.1101	-7.1251	-0.3479	-0.6098	-0.3599	0.6145
3.82	-9.5786	-0.0354	0.2077	-0.0145	0.0101	-0.0543	35.3234	8.8617	-7.1079	-0.3478	-0.6098	-0.3599	0.6144
3.83	-9.5865	-0.0428	0.1950	-0.0168	0.0123	-0.0616	35.3329	8.7554	-7.1255	-0.3478	-0.6099	-0.3600	0.6145
3.84	-9.5924	-0.0482	0.1864	-0.0198	0.0082	-0.0637	35.3205	8.8154	-7.2516	-0.3477	-0.6099	-0.3600	0.6145
3.85	-9.6093	-0.0512	0.1852	-0.0220	0.0184	-0.0666	35.3421	8.9146	-7.3924	-0.3476	-0.6100	-0.3600	0.6145
3.86	-9.6250	-0.0487	0.1691	-0.0235	0.0214	-0.0674	35.3005	8.6591	-7.3925	-0.3474	-0.6099	-0.3601	0.6144
3.87	-9.6482	-0.0468	0.1622	-0.0246	0.0228	-0.0632	35.4896	8.5979	-7.1393	-0.3474	-0.6100	-0.3601	0.6144
3.88	-9.6625	-0.0515	0.1553	-0.0300	0.0222	-0.0693	35.8444	8.7853	-7.0694	-0.3473	-0.6100	-0.3602	0.6144
3.89	-9.6804	-0.0630	0.1506	-0.0372	0.0177	-0.0712	35.8984	8.7754	-6.9018	-0.3472	-0.6100	-0.3603	0.6143
3.9	-9.6991	-0.0828	0.1442	-0.0411	0.0052	-0.0686	35.6089	8.8313	-7.1059	-0.3472	-0.6101	-0.3605	0.6144
3.91	-9.6914	-0.1092	0.1417	-0.0451	0.0019	-0.0637	35.4378	8.8606	-7.2270	-0.3472	-0.6100	-0.3606	0.6143
3.92	-9.6807	-0.1216	0.1447	-0.0493	0.0017	-0.0656	35.2819	8.6859	-7.1505	-0.3472	-0.6099	-0.3607	0.6143
3.93	-9.6714	-0.1454	0.1407	-0.0515	-0.0008	-0.0583	35.3060	8.7007	-7.1745	-0.3472	-0.6098	-0.3607	0.6142
3.94	-9.6639	-0.1728	0.1462	-0.0492	-0.0005	-0.0562	35.5471	8.8138	-7.2282	-0.3473	-0.6098	-0.3608	0.6143
3.95	-9.6537	-0.1926	0.1456	-0.0498	-0.0044	-0.0530	35.5986	8.7718	-7.1591	-0.3474	-0.6097	-0.3609	0.6142
3.96	-9.6503	-0.2097	0.1430	-0.0454	-0.0059	-0.0406	35.2174	8.8596	-7.3750	-0.3474	-0.6097	-0.3609	0.6142
3.97	-9.6470	-0.2168	0.1480	-0.0482	-0.0120	-0.0429	35.1477	8.9037	-7.2361	-0.3476	-0.6097	-0.3609	0.6142
3.98	-9.6307	-0.2258	0.1484	-0.0293	-0.0150	-0.0452	35.2074	8.6966	-7.1031	-0.3476	-0.6096	-0.3609	0.6142
3.99	-9.6145	-0.2267	0.1587	-0.0230	-0.0096	-0.0422	35.3443	8.7782	-7.0498	-0.3476	-0.6096	-0.3609	0.6143
4	-9.6046	-0.2219	0.1579	-0.0188	-0.0072	-0.0437	35.4455	8.7733	-7.0627	-0.3476	-0.6096	-0.3608	0.6142
4.01	-9.5942	-0.2137	0.1657	-0.0038	-0.0133	-0.0411	35.0492	8.9420	-7.1871	-0.3476	-0.6097	-0.3607	0.6144
4.02	-9.5977	-0.1993	0.1693	0.0008	-0.0029	-0.0452	35.2101	8.7386	-7.1264	-0.3476	-0.6097	-0.3605	0.6144
4.03	-9.6082	-0.1788	0.1666	0.0181	-0.0007	-0.0401	35.2344	8.7768	-7.2456	-0.3475	-0.6098	-0.3604	0.6145
4.04	-9.6137	-0.1435	0.1688	0.0241	-0.0047	-0.0354	35.1951	8.6864	-7.2468	-0.3473	-0.6099	-0.3602	0.6145
4.05	-9.6253	-0.1086	0.1754	0.0283	-0.0068	-0.0357	35.5302	8.5090	-7.1218	-0.3472	-0.6100	-0.3599	0.6147
4.06	-9.6388	-0.0723	0.1732	0.0267	-0.0062	-0.0405	35.7372	8.6636	-7.1671	-0.3471	-0.6101	-0.3597	0.6148
4.07	-9.6438	-0.0375	0.1677	0.0274	-0.0013	-0.0377	35.5515	8.5871	-7.1251	-0.3470	-0.6101	-0.3595	0.6148
4.08	-9.6548	-0.0142	0.1693	0.0221	-0.0018	-0.0428	35.4986	8.7292	-7.3897	-0.3469	-0.6103	-0.3593	0.6150
4.09	-9.6531	0.0038	0.1744	0.0233	-0.0030	-0.0473	35.4618	8.6929	-7.2931	-0.3467	-0.6104	-0.3591	0.6150
4.1	-9.6472	0.0203	0.1628	0.0180	-0.0088	-0.0507	35.3077	8.7001	-7.4433	-0.3466	-0.6105	-0.3590	0.6152
4.11	-9.6443	0.0264	0.1563	-0.0024	-0.0017	-0.0555	35.3922	8.7060	-7.3349	-0.3465	-0.6104	-0.3589	0.6152
4.12	-9.6507	0.0141	0.1645	-0.0026	0.0024	-0.0569	35.3134	8.8021	-7.1022	-0.3464	-0.6105	-0.3588	0.6153
4.13	-9.6653	0.0000	0.1611	-0.0072	-0.0045	-0.0643	35.4421	8.8014	-7.3977	-0.3463	-0.6105	-0.3588	0.6153
4.14	-9.6734	-0.0151	0.1618	-0.0172	-0.0050	-0.0600	34.9987	8.7046	-7.1473	-0.3463	-0.6104	-0.3588	0.6153
4.15	-9.6704	-0.0297	0.1683	-0.0236	-0.0082	-0.0593	35.1819	8.6974	-7.1677	-0.3463	-0.6105	-0.3588	0.6155
4.16	-9.6646	-0.0435	0.1689	-0.0329	-0.0114	-0.0612	35.3504	8.9751	-7.2746	-0.3463	-0.6104	-0.3588	0.6154
4.17	-9.6575	-0.0640	0.1729	-0.0340	-0.0123	-0.0561	35.2963	8.7034	-7.2425	-0.3463	-0.6104	-0.3589	0.6155
4.18	-9.6510	-0.0755	0.1773	-0.0401	-0.0111	-0.0597	35.3214	8.7022	-7.2391	-0.3463	-0.6102	-0.3589	0.6155
4.19	-9.6497	-0.0941	0.1826	-0.0462	-0.0087	-0.0612	35.1934	8.9045	-7.2746	-0.3463	-0.6102	-0.3590	0.6155
4.2	-9.6242	-0.1182	0.1821	-0.0437	-0.0176	-0.0621	35.4278	8.8863	-7.1880	-0.3464	-0.6101	-0.3590	0.6156
4.21	-9.6034	-0.1279	0.1871	-0.0466	-0.0096	-0.0632	35.3017	8.7974	-7.1528	-0.3464	-0.6100	-0.3591	0.6156
4.22	-9.6048	-0.1331	0.1931	-0.0410	-0.0106	-0.0569	35.4214	8.7954	-7.1373	-0.3465	-0.6099	-0.3592	0.6156
4.23	-9.5906	-0.1517	0.1911	-0.0312	-0.0138	-0.0584	35.3746	8.7601	-7.3491	-0.3465	-0.6098	-0.3591	0.6157
4.24	-9.5743	-0.1831	0.2008	-0.0346	-0.0152	-0.0563	35.4815	8.6758	-7.2128	-0.3465	-0.6098	-0.3592	0.6157
4.25	-9.5684	-0.2008	0.2035	-0.0266	-0.0084	-0.0566	35.4206	8.7261	-7.1119	-0.3465	-0.6097	-0.3591	0.6157
4.26	-9.5726	-0.1994	0.2049	-0.0229	-0.0028	-0.0597	35.2668	8.5710	-7.3998	-0.3465	-0.6097	-0.3592	0.6158
4.27	-9.5876	-0.1945	0.2034	-0.0223	0.0051	-0.0547	35.5373	8.8324	-7.2954	-0.3464	-0.6097	-0.3592	0.6158
4.28	-9.6280	-0.1956	0.1988	-0.0117	0.0114	-0.0524	35.5980	8.9061	-7.4334	-0.3464	-0.6098	-0.3591	0.6158
4.29	-9.6598	-0.1908	0.1989	-0.0076	0.0010	-0.0531	35.5811	8.7753	-7.4417	-0.3463	-0.6098	-0.3591	0.6158
4.3	-9.6455	-0.1724	0.1973	-0.0048	-0.0013	-0.0420	35.1869	8.6668	-7.2792	-0.3462	-0.6099	-0.3590	0.6159
4.31	-9.6158	-0.1519	0.1929	0.0011	0.0004	-0.0408	35.3181	8.9626	-7.2465	-0.3462	-0.6100	-0.3589	0.6159
4.32	-9.5972	-0.1314	0.1868	0.0044	0.0004	-0.0402	35.2198	8.8924	-7.2482	-0.3461	-0.6100	-0.3587	0.6159
4.33	-9.6065	-0.1135	0.1872	0.0033	0.0011	-0.0383	35.2402	8.6722	-7.2609	-0.3461	-0.6101	-0.3586	0.6160
4.34	-9.6132	-0.0908	0.1849	0.0036	0.0023	-0.0379	35.3165	8.6943	-7.2056	-0.3460	-0.6102	-0.3585	0.6160
4.35	-9.6192	-0.0744	0.1728	0.0009	0.0154	-0.0380	35.1093	8.7722	-7.1226	-0.3459	-0.6104	-0.3584	0.6160
4.36	-9.6235	-0.0620	0.1600	0.0020	0.0099	-0.0426	35.2241	8.7948	-7.2650	-0.3458	-0.6104	-0.3582	0.6160
4.37	-9.6345	-0.0632	0.1537	-0.0012	0.0248	-0.0480	35.3618	8.6813	-7.3639	-0.3457	-0.6105	-0.3582	0.6160
4.38	-9.6530	-0.0679	0.1495	0.0032	0.0204	-0.0515	35.7914	8.8875	-7.0988	-0.3456	-0.6106	-0.3582	0.6160
4.39	-9.6743	-0.0678	0.1407	-0.0011	0.0179	-0.0491	35.9702	8.8734	-7.0452	-0.3455	-0.6107	-0.3581	0.6159
4.4	-9.6831	-0.0629	0.1417	-0.0085	0.0181	-0.0504	35.6824	8.9690	-7.0915	-0.3454	-0.6109	-0.3581	0.6160
4.41	-9.6775	-0.0633	0.1443	-0.0066	0.0052	-0.0407	35.3637	8.7169	-7.1754	-0.3453	-0.6109	-0.3580	0.6159
4.42	-9.6709	-0.0553	0.1445	-0.0166	0.0012	-0.0463	34.9095	8.6745	-7.1068	-0.3454	-0.6109	-0.3580	0.6160
4.43	-9.6579	-0.0471	0.1547	-0.0094	-0.0057	-0.0431	35.3440	8.6023	-7.2280	-0.3453	-0.6109	-0.3579	0.6159
4.44	-9.6519	-0.0430	0.1556	-0.0190	-0.0124	-0.0421	35.3767	8.5858	-7.2897	-0.3454	-0.6109	-0.3578	0.6160
4.45	-9.6389	-0.0419	0.1582	-0.0201	-0.0069	-0.0374	35.4505	8.7923	-7.1879	-0.3454	-0.6109	-0.3577	0.6160
4.46	-9.6320	-0.0505	0.1583	-0.0248	-0.0140	-0.0398	35.4320	8.6848	-7.2217	-0.3454	-0.6109	-0.3577	0.6160
4.47	-9.6194	-0.0635	0.1649	-0.0246	-0.0059	-0.0471	35.2572	8.6959	-7.1207	-0.3455	-0.6109	-0.3577	0.6161
4.48	-9.6335	-0.0778	0.1720	-0.0228	-0.0036	-0.0438	35.4716	8.7870	-7.2211	-0.3455	-0.6109	-0.3576	0.6161
4.49	-9.6419	-0.0961	0.1636	-0.0237	-0.0030	-0.0527	35.2361	8.7861	-7.2651	-0.3455	-0.6109	-0.3576	0.6161
4.5	-9.6374	-0.1093	0.1636	-0.0245	-0.0018	-0.0525	35.1788	8.6771	-7.3476	-0.3454	-0.6109	-0.3575	0.6161
4.51	-9.6370	-0.1106	0.1686	-0.0255	-0.0022	-0.0510	35.5574	8.5998	-6.9231	-0.3455	-0.6109	-0.3576	0.6161
4.52	-9.6363	-0.1105	0.1720	-0.0228	0.0007	-0.0539	35.2247	8.7305	-7.1501	-0.3454	-0.6109	-0.3576	0.6161
4.53	-9.6405	-0.1091	0.1641	-0.0209	-0.0005	-0.0520	34.9891	8.8811	-7.2633	-0.3454	-0.6109	-0.3576	0.6162
4.54	-9.6410	-0.1118	0.1617	-0.0170	0.0062	-0.0547	35.1564	8.7342	-7.0782	-0.3454	-0.6109	-0.3575	0.6161
4.55	-9.6115	-0.1132	0.1589	-0.0119	0.0020	-0.0580	35.3255	8.8452	-7.1770	-0.3453	-0.6110	-0.3575	0.6162
4.56	-9.5771	-0.1071	0.1746	-0.0114	-0.0032	-0.0595	35.1063	8.7762	-7.1933	-0.3452	-0.6110	-0.3575	0.6163
4.57	-9.6096	-0.1057	0.1782	-0.0250	0.0062	-0.0652	35.1416	8.9355	-6.9923	-0.3451	-0.6109	-0.3575	0.6162
4.58	-9.6414	-0.1269	0.1688	-0.0174	0.0049	-0.0665	34.9941	8.9421	-7.1790	-0.3451	-0.6110	-0.3576	0.6163
4.59	-9.6213	-0.1199	0.1796	-0.0180	0.0011	-0.0541	35.2487	8.8453	-7.2055	-0.3450	-0.6110	-0.3575	0.6163
4.6	-9.6351	-0.1115	0.1764	-0.0116	-0.0009	-0.0526	35.3189	8.8094	-7.0069	-0.3450	-0.6110	-0.3575	0.6164
4.61	-9.6117	-0.1303	0.1787	-0.0153	-0.0009	-0.0566	35.2944	8.7530	-7.1315	-0.3449	-0.6109	-0.3575	0.6163
4.62	-9.6286	-0.1337	0.1911	-0.0120	0.0031	-0.0461	35.4065	8.7870	-7.1179	-0.3449	-0.6110	-0.3574	0.6164
4.63	-9.6687	-0.1267	0.1821	-0.0186	0.0058	-0.0419	35.4097	8.7554	-7.3174	-0.3449	-0.6111	-0.3574	0.6164
4.64	-9.6695	-0.1183	0.1873	-0.0129	0.0035	-0.0326	35.5982	8.4867	-7.2165	-0.3449	-0.6111	-0.3573	0.6163
4.65	-9.6538	-0.0872	0.1964	-0.0174	0.0002	-0.0281	35.4401	8.6366	-7.0987	-0.3450	-0.6112	-0.3572	0.6164
4.66	-9.6496	-0.0549	0.1967	-0.0135	0.0007	-0.0300	35.5295	8.6790	-7.2735	-0.3449	-0.6113	-0.3571	0.6163
4.67	-9.6390	-0.0587	0.1982	-0.0125	-0.0016	-0.0333	35.5678	8.7623	-7.3325	-0.3450	-0.6114	-0.3570	0.6164
4.68	-9.6227	-0.0491	0.2030	-0.0232	-0.0117	-0.0385	35.1558	8.6989	-7.1964	-0.3450	-0.6113	-0.3569	0.6163
4.69	-9.6204	-0.0443	0.2093	-0.0141	-0.0024	-0.0442	35.3667	8.5612	-7.1118	-0.3450	-0.6113	-0.3568	0.6164
4.7	-9.6267	-0.0574	0.2093	-0.0127	-0.0025	-0.0441	35.3583	8.6416	-7.2661	-0.3450	-0.6114	-0.3568	0.6164
4.71	-9.6269	-0.0465	0.2157	-0.0147	0.0021	-0.0475	35.2121	8.7815	-7.1058	-0.3449	-0.6114	-0.3567	0.6164
4.72	-9.6257	-0.0362	0.2161	-0.0085	0.0044	-0.0552	35.1017	8.7597	-7.1385	-0.3449	-0.6114	-0.3567	0.6165
4.73	-9.6268	-0.0317	0.2276	-0.0089	0.0036	-0.0558	35.2866	8.8055	-7.0935	-0.3448	-0.6115	-0.3566	0.6165
4.74	-9.6318	-0.0307	0.2320	-0.0154	-0.0006	-0.0537	35.2616	8.8952	-7.2020	-0.3448	-0.6115	-0.3566	0.6165
4.75	-9.6219	-0.0248	0.2314	-0.0184	-0.0001	-0.0546	35.1017	8.7639	-7.2132	-0.3447	-0.6114	-0.3566	0.6165
4.76	-9.5990	-0.0206	0.2418	-0.0208	0.0039	-0.0540	35.1241	8.7667	-7.2303	-0.3447	-0.6115	-0.3566	0.6166
4.77	-9.5924	-0.0416	0.2480	-0.0226	0.0040	-0.0601	35.1395	8.7884	-7.3332	-0.3446	-0.6115	-0.3566	0.6165
4.78	-9.5884	-0.0731	0.2458	-0.0213	-0.0010	-0.0635	35.3263	8.7051	-7.2906	-0.3446	-0.6115	-0.3566	0.6166
4.79	-9.5734	-0.0935	0.2512	-0.0218	-0.0007	-0.0542	35.1854	8.5837	-7.3120	-0.3445	-0.6115	-0.3566	0.6166
4.8	-9.5582	-0.1116	0.2475	-0.0210	0.0120	-0.0542	35.2339	8.5914	-7.1629	-0.3445	-0.6115	-0.3566	0.6166
4.81	-9.5412	-0.1174	0.2426	-0.0219	0.0195	-0.0520	35.3577	8.4255	-7.2781	-0.3444	-0.6116	-0.3566	0.6166
4.82	-9.5277	-0.1135	0.2292	-0.0178	0.0291	-0.0493	35.4940	8.4119	-7.3151	-0.3443	-0.6117	-0.3566	0.6164
4.83	-9.5113	-0.1028	0.2222	-0.0183	0.0388	-0.0498	35.2503	8.5329	-7.1739	-0.3443	-0.6119	-0.3567	0.6164
4.84	-9.5118	-0.0776	0.2055	-0.0163	0.0472	-0.0463	35.3609	8.6351	-7.2476	-0.3441	-0.6120	-0.3567	0.6163
4.85	-9.5308	-0.0603	0.1844	-0.0051	0.0592	-0.0499	35.3598	8.5172	-7.1059	-0.3440	-0.6123	-0.3568	0.6162
4.86	-9.5595	-0.0428	0.1707	-0.0055	0.0641	-0.0473	35.1537	8.5053	-7.2224	-0.3438	-0.6124	-0.3567	0.6159
4.87	-9.5967	-0.0274	0.1490	0.0027	0.0638	-0.0478	35.2780	8.5081	-7.0592	-0.3436	-0.6127	-0.3568	0.6158
4.88	-9.6171	-0.0129	0.1223	-0.0147	0.0642	-0.0448	35.6187	8.7263	-7.0294	-0.3435	-0.6130	-0.3568	0.6157
4.89	-9.6284	-0.0090	0.1037	-0.0228	0.0641	-0.0534	35.4674	8.8153	-6.9478	-0.3433	-0.6131	-0.3569	0.6154
4.9	-9.6545	-0.0167	0.0754	-0.0204	0.0716	-0.0512	35.3673	8.6847	-6.9434	-0.3432	-0.6134	-0.3570	0.6153
4.91	-9.6732	-0.0314	0.0582	-0.0276	0.0708	-0.0474	35.1821	8.7744	-6.9421	-0.3431	-0.6136	-0.3571	0.6150
4.92	-9.6923	-0.0543	0.0398	-0.0402	0.0630	-0.0417	34.9203	8.8141	-6.8808	-0.3431	-0.6138	-0.3573	0.6148
4.93	-9.7058	-0.0755	0.0132	-0.0453	0.0582	-0.0448	35.3636	8.7926	-6.8884	-0.3431	-0.6138	-0.3574	0.6145
4.94	-9.7182	-0.0776	0.0050	-0.0471	0.0527	-0.0374	35.4239	8.9303	-6.8691	-0.3431	-0.6141	-0.3576	0.6143
4.95	-9.7276	-0.0664	-0.0086	-0.0403	0.0493	-0.0329	35.4000	8.6921	-6.9100	-0.3431	-0.6142	-0.3577	0.6141
4.96	-9.7339	-0.0560	-0.0094	-0.0453	0.0411	-0.0312	35.4217	8.8154	-7.0848	-0.3431	-0.6143	-0.3577	0.6139
4.97	-9.7626	-0.0608	-0.0119	-0.0377	0.0365	-0.0377	35.3979	8.7874	-6.9541	-0.3432	-0.6145	-0.3578	0.6138
4.98	-9.7596	-0.0711	-0.0161	-0.0225	0.0349	-0.0437	35.2970	8.8552	-6.8457	-0.3431	-0.6146	-0.3578	0.6136
4.99	-9.7383	-0.0618	-0.0030	-0.0225	0.0199	-0.0500	35.3881	8.6642	-6.9456	-0.3431	-0.6147	-0.3578	0.6136
5	-9.7259	-0.0608	-0.0045	-0.0207	0.0156	-0.0544	35.7735	8.6377	-6.9914	-0.3430	-0.6146	-0.3577	0.6136
5.01	-9.7035	-0.0595	-0.0005	-0.0197	0.0079	-0.0559	35.4313	8.4930	-6.8205	-0.3431	-0.6147	-0.3578	0.6137
5.02	-9.7080	-0.0492	0.0157	-0.0167	0.0024	-0.0555	35.2481	8.3490	-6.7748	-0.3431	-0.6146	-0.3577	0.6137
5.03	-9.6926	-0.0457	0.0204	-0.0146	-0.0057	-0.0617	35.5487	8.5832	-6.7627	-0.3430	-0.6146	-0.3577	0.6138
5.04	-9.6801	-0.0279	0.0489	-0.0034	-0.0117	-0.0548	35.3225	8.5138	-6.9014	-0.3430	-0.6145	-0.3576	0.6139
5.05	-9.6969	-0.0150	0.0535	-0.0078	-0.0104	-0.0542	35.3592	8.7102	-6.8299	-0.3430	-0.6145	-0.3575	0.6140
5.06	-9.6610	0.0004	0.0652	-0.0174	-0.0243	-0.0605	35.2317	8.8778	-6.8098	-0.3430	-0.6144	-0.3574	0.6141
5.07	-9.6297	0.0190	0.0848	-0.0038	-0.0151	-0.0637	35.4320	8.6078	-6.9980	-0.3429	-0.6143	-0.3573	0.6142
5.08	-9.6190	0.0197	0.0873	-0.0158	-0.0095	-0.0729	35.3262	8.6546	-6.9464	-0.3428	-0.6144	-0.3574	0.6143
5.09	-9.6053	0.0006	0.0963	-0.0217	-0.0078	-0.0797	35.3956	8.7375	-6.6926	-0.3427	-0.6142	-0.3574	0.6144
5.1	-9.5861	-0.0238	0.0999	-0.0217	0.0001	-0.0787	35.2978	8.7185	-6.9749	-0.3427	-0.6143	-0.3575	0.6145
5.11	-9.5713	-0.0396	0.1062	-0.0251	-0.0014	-0.0812	35.3208	8.7135	-6.9537	-0.3425	-0.6141	-0.3575	0.6145
5.12	-9.5512	-0.0599	0.0941	-0.0226	0.0097	-0.0799	35.2287	8.6210	-6.8929	-0.3424	-0.6141	-0.3576	0.6146
5.13	-9.5329	-0.0831	0.0954	-0.0288	0.0116	-0.0824	35.3638	8.6181	-6.9634	-0.3423	-0.6141	-0.3578	0.6146
5.14	-9.5351	-0.0908	0.0884	-0.0271	0.0200	-0.0819	35.2357	8.7118	-6.7519	-0.3422	-0.6141	-0.3579	0.6145
5.15	-9.5456	-0.0936	0.0793	-0.0222	0.0265	-0.0765	35.2033	8.8148	-6.8090	-0.3421	-0.6142	-0.3580	0.6146
5.16	-9.5769	-0.0924	0.0686	-0.0219	0.0247	-0.0723	35.3147	8.8276	-6.9165	-0.3419	-0.6142	-0.3581	0.6145
5.17	-9.6114	-0.0855	0.0536	-0.0232	0.0349	-0.0683	35.4584	8.7240	-6.7924	-0.3418	-0.6143	-0.3582	0.6145
5.18	-9.6422	-0.0816	0.0480	-0.0277	0.0324	-0.0775	35.3093	8.8135	-6.8610	-0.3416	-0.6143	-0.3583	0.6143
5.19	-9.6714	-0.0888	0.0385	-0.0215	0.0306	-0.0783	35.3025	8.6768	-6.9090	-0.3415	-0.6144	-0.3584	0.6144
5.2	-9.6793	-0.1025	0.0207	-0.0331	0.0312	-0.0788	35.3890	8.6433	-6.8096	-0.3414	-0.6144	-0.3586	0.6143
5.21	-9.6801	-0.1082	0.0136	-0.0425	0.0272	-0.0797	35.3557	8.8277	-6.7749	-0.3413	-0.6144	-0.3588	0.6142
5.22	-9.6703	-0.1224	0.0007	-0.0440	0.0268	-0.0833	35.2055	8.8801	-6.8850	-0.3412	-0.6145	-0.3590	0.6142
5.23	-9.6679	-0.1505	-0.0024	-0.0477	0.0157	-0.0791	35.3840	9.0594	-6.9095	-0.3411	-0.6144	-0.3591	0.6141
5.24	-9.6787	-0.1818	-0.0115	-0.0473	0.0251	-0.0801	35.4429	8.8257	-6.8003	-0.3411	-0.6144	-0.3593	0.6141
5.25	-9.6654	-0.2152	-0.0160	-0.0488	0.0165	-0.0784	35.2977	8.8174	-6.7966	-0.3410	-0.6143	-0.3595	0.6140
5.26	-9.6639	-0.2342	-0.0187	-0.0474	0.0172	-0.0664	35.3562	8.7670	-6.7526	-0.3410	-0.6144	-0.3596	0.6140
5.27	-9.6540	-0.2476	-0.0213	-0.0502	0.0212	-0.0641	35.4001	8.9404	-6.5498	-0.3410	-0.6143	-0.3598	0.6139
5.28	-9.6431	-0.2576	-0.0209	-0.0450	0.0103	-0.0562	35.2343	9.1704	-6.6550	-0.3410	-0.6143	-0.3599	0.6138
5.29	-9.6411	-0.2621	-0.0288	-0.0320	0.0146	-0.0449	35.1329	8.7323	-6.4745	-0.3411	-0.6143	-0.3600	0.6137
5.3	-9.6456	-0.2726	-0.0296	-0.0298	0.0086	-0.0385	35.1594	8.9935	-6.6784	-0.3411	-0.6144	-0.3600	0.6137
5.31	-9.6336	-0.2713	-0.0333	-0.0220	0.0059	-0.0347	35.3115	8.9262	-6.4902	-0.3412	-0.6145	-0.3599	0.6136
5.32	-9.6288	-0.2679	-0.0336	-0.0090	0.0073	-0.0372	35.3482	8.8802	-6.6739	-0.3411	-0.6145	-0.3598	0.6136
5.33	-9.6318	-0.2748	-0.0338	0.0003	0.0075	-0.0411	35.0804	8.9107	-6.9377	-0.3411	-0.6146	-0.3597	0.6137
5.34	-9.6473	-0.2710	-0.0342	0.0133	0.0050	-0.0405	35.3849	8.7179	-6.6743	-0.3410	-0.6147	-0.3596	0.6137
5.35	-9.6486	-0.2508	-0.0305	0.0290	-0.0031	-0.0390	35.3524	8.7873	-6.7723	-0.3409	-0.6149	-0.3594	0.6138
5.36	-9.6484	-0.2087	-0.0157	0.0309	-0.0066	-0.0345	35.3053	8.8329	-6.8044	-0.3407	-0.6149	-0.3591	0.6138
5.37	-9.6892	-0.1795	-0.0197	0.0532	0.0033	-0.0428	35.5527	8.5464	-6.6378	-0.3405	-0.6151	-0.3589	0.6140
5.38	-9.7089	-0.1527	-0.0172	0.0533	0.0029	-0.0492	35.6833	8.7893	-6.5742	-0.3403	-0.6152	-0.3586	0.6141
5.39	-9.7155	-0.1174	-0.0197	0.0564	-0.0084	-0.0559	36.2133	9.1170	-6.6941	-0.3400	-0.6153	-0.3583	0.6142
5.4	-9.6911	-0.0815	-0.0153	0.0546	-0.0117	-0.0541	35.7863	8.9434	-6.6688	-0.3398	-0.6155	-0.3581	0.6145
5.41	-9.6554	-0.0460	-0.0191	0.0553	-0.0115	-0.0554	35.5261	8.6354	-6.5735	-0.3395	-0.6155	-0.3578	0.6146
5.42	-9.6188	-0.0214	-0.0135	0.0355	-0.0136	-0.0510	35.2870	8.6335	-6.7111	-0.3394	-0.6156	-0.3576	0.6148
5.43	-9.5974	0.0025	-0.0123	0.0300	-0.0055	-0.0494	35.3030	8.7940	-6.8955	-0.3392	-0.6156	-0.3574	0.6149
5.44	-9.6168	0.0215	-0.0161	0.0200	-0.0001	-0.0461	35.5312	8.7612	-6.5733	-0.3391	-0.6158	-0.3573	0.6150
5.45	-9.6448	0.0362	-0.0214	0.0045	-0.0026	-0.0439	35.2980	8.8068	-6.6244	-0.3390	-0.6158	-0.3571	0.6151
5.46	-9.6619	0.0407	-0.0231	-0.0110	-0.0012	-0.0416	35.3184	8.9717	-6.7001	-0.3390	-0.6159	-0.3570	0.6151
5.47	-9.6773	0.0400	-0.0326	-0.0230	0.0003	-0.0423	35.3002	8.8415	-6.6416	-0.3390	-0.6159	-0.3570	0.6151
5.48	-9.6855	0.0292	-0.0386	-0.0339	-0.0009	-0.0476	35.4547	8.7547	-6.7031	-0.3390	-0.6159	-0.3570	0.6150
5.49	-9.6764	0.0136	-0.0363	-0.0490	-0.0137	-0.0503	35.2767	8.7900	-6.6008	-0.3391	-0.6158	-0.3571	0.6151
5.5	-9.6680	-0.0076	-0.0348	-0.0554	-0.0133	-0.0592	35.0965	8.7492	-6.9061	-0.3392	-0.6157	-0.3571	0.6150
5.51	-9.6667	-0.0455	-0.0320	-0.0618	-0.0193	-0.0656	35.1596	8.9066	-6.7713	-0.3393	-0.6156	-0.3573	0.6151
5.52	-9.6681	-0.0892	-0.0193	-0.0714	-0.0245	-0.0699	35.0807	8.9540	-6.5593	-0.3395	-0.6154	-0.3574	0.6151
5.53	-9.6754	-0.1346	-0.0159	-0.0706	-0.0174	-0.0741	35.0142	8.9612	-6.7343	-0.3396	-0.6152	-0.3577	0.6151
5.54	-9.6754	-0.1709	-0.0068	-0.0692	-0.0322	-0.0706	35.1495	8.8448	-6.6229	-0.3398	-0.6149	-0.3578	0.6151
5.55	-9.6746	-0.1792	0.0067	-0.0648	-0.0323	-0.0741	35.2433	8.7576	-6.8497	-0.3399	-0.6147	-0.3579	0.6152
5.56	-9.6666	-0.1736	0.0081	-0.0540	-0.0318	-0.0703	35.1871	8.7730	-6.8073	-0.3400	-0.6146	-0.3580	0.6153
5.57	-9.6595	-0.1686	0.0207	-0.0488	-0.0326	-0.0665	35.3694	8.7896	-6.6483	-0.3400	-0.6144	-0.3581	0.6153
5.58	-9.6609	-0.1673	0.0191	-0.0476	-0.0315	-0.0718	35.6466	8.6488	-6.7792	-0.3401	-0.6143	-0.3582	0.6155
5.59	-9.6532	-0.1746	0.0260	-0.0484	-0.0350	-0.0649	35.3292	8.6065	-6.7355	-0.3402	-0.6141	-0.3582	0.6155
5.6	-9.6429	-0.1828	0.0371	-0.0470	-0.0301	-0.0668	35.3746	8.7853	-6.8180	-0.3403	-0.6140	-0.3583	0.6157
5.61	-9.6391	-0.2003	0.0396	-0.0481	-0.0293	-0.0704	35.4024	8.7699	-6.9767	-0.3403	-0.6137	-0.3583	0.6157
5.62	-9.6418	-0.2174	0.0410	-0.0480	-0.0278	-0.0561	35.4120	8.7698	-6.7807	-0.3404	-0.6136	-0.3584	0.6158
5.63	-9.6480	-0.2311	0.0543	-0.0454	-0.0341	-0.0574	35.5261	8.8032	-6.7769	-0.3405	-0.6135	-0.3584	0.6158
5.64	-9.6364	-0.2417	0.0570	-0.0459	-0.0298	-0.0459	35.4203	8.9844	-6.6663	-0.3406	-0.6133	-0.3584	0.6159
5.65	-9.6375	-0.2451	0.0807	-0.0405	-0.0262	-0.0399	35.0758	8.8132	-6.6874	-0.3409	-0.6133	-0.3585	0.6159
5.66	-9.6772	-0.2569	0.0813	-0.0210	-0.0348	-0.0405	35.0516	9.0774	-6.7690	-0.3410	-0.6131	-0.3584	0.6159
5.67	-9.6668	-0.2623	0.0981	-0.0207	-0.0381	-0.0378	35.2330	9.0856	-6.6005	-0.3411	-0.6131	-0.3583	0.6161
5.68	-9.6343	-0.2484	0.1141	-0.0184	-0.0459	-0.0292	35.2168	9.0047	-6.9016	-0.3412	-0.6129	-0.3581	0.6161
5.69	-9.5905	-0.2440	0.1175	-0.0014	-0.0455	-0.0292	35.1121	9.0611	-6.8198	-0.3413	-0.6129	-0.3579	0.6163
5.7	-9.5507	-0.2289	0.1401	0.0129	-0.0400	-0.0294	35.3259	8.9971	-6.7536	-0.3413	-0.6129	-0.3576	0.6165
5.71	-9.5755	-0.2062	0.1376	0.0179	-0.0348	-0.0326	35.2278	8.8463	-6.7540	-0.3413	-0.6128	-0.3574	0.6166
5.72	-9.5977	-0.1927	0.1502	0.0244	-0.0332	-0.0289	35.2097	8.9678	-6.8722	-0.3413	-0.6129	-0.3571	0.6168
5.73	-9.5867	-0.1449	0.1584	0.0335	-0.0290	-0.0261	35.5005	8.7894	-6.9704	-0.3412	-0.6129	-0.3568	0.6169
5.74	-9.5845	-0.0913	0.1655	0.0344	-0.0356	-0.0227	35.4291	8.5826	-6.9188	-0.3412	-0.6130	-0.3565	0.6171
5.75	-9.6004	-0.0582	0.1683	0.0392	-0.0209	-0.0282	35.3065	8.6118	-6.9609	-0.3411	-0.6130	-0.3561	0.6172
5.76	-9.6071	-0.0170	0.1749	0.0366	-0.0138	-0.0267	35.1804	8.5715	-6.9092	-0.3410	-0.6132	-0.3559	0.6174
5.77	-9.6088	0.0227	0.1762	0.0429	-0.0142	-0.0291	35.4515	8.6586	-7.0044	-0.3409	-0.6133	-0.3555	0.6175
5.78	-9.6121	0.0469	0.1774	0.0352	-0.0121	-0.0341	35.4465	8.9635	-7.0422	-0.3408	-0.6134	-0.3553	0.6176
5.79	-9.6142	0.0567	0.1733	0.0266	-0.0083	-0.0393	35.2762	8.8638	-7.0543	-0.3407	-0.6135	-0.3550	0.6177
5.8	-9.6070	0.0646	0.1618	0.0305	-0.0091	-0.0442	35.3268	8.7026	-6.9872	-0.3405	-0.6136	-0.3548	0.6178
5.81	-9.6111	0.0680	0.1624	0.0138	-0.0056	-0.0501	35.5048	8.5269	-6.9676	-0.3404	-0.6136	-0.3547	0.6179
5.82	-9.6281	0.0586	0.1567	0.0021	0.0007	-0.0518	35.7137	8.7982	-7.0822	-0.3403	-0.6136	-0.3546	0.6179
5.83	-9.6415	0.0523	0.1538	0.0011	-0.0006	-0.0556	35.4137	8.6548	-6.8821	-0.3402	-0.6137	-0.3545	0.6180
5.84	-9.6592	0.0396	0.1468	-0.0133	0.0025	-0.0633	35.1223	9.0194	-6.8630	-0.3402	-0.6137	-0.3545	0.6180
5.85	-9.6681	0.0218	0.1441	-0.0167	-0.0018	-0.0695	35.1432	8.7200	-6.8366	-0.3401	-0.6137	-0.3546	0.6181
5.86	-9.6765	0.0088	0.1456	-0.0233	-0.0005	-0.0656	35.1084	8.6563	-6.8733	-0.3401	-0.6136	-0.3546	0.6181
5.87	-9.6834	-0.0151	0.1384	-0.0296	-0.0090	-0.0697	35.2856	8.9335	-6.9298	-0.3400	-0.6136	-0.3547	0.6181
5.88	-9.6838	-0.0458	0.1437	-0.0432	-0.0136	-0.0738	35.6661	8.9804	-6.8458	-0.3401	-0.6135	-0.3548	0.6182
5.89	-9.6721	-0.0724	0.1432	-0.0491	-0.0160	-0.0776	35.6731	9.1547	-7.1658	-0.3401	-0.6133	-0.3549	0.6182
5.9	-9.6448	-0.1004	0.1455	-0.0471	-0.0232	-0.0681	35.4825	8.9704	-6.9663	-0.3402	-0.6132	-0.3550	0.6183
5.91	-9.6248	-0.1196	0.1515	-0.0485	-0.0249	-0.0617	35.2034	8.8795	-6.9759	-0.3402	-0.6130	-0.3550	0.6183
5.92	-9.6261	-0.1371	0.1532	-0.0487	-0.0189	-0.0645	35.2028	8.7243	-7.0444	-0.3403	-0.6130	-0.3551	0.6184
5.93	-9.6207	-0.1576	0.1580	-0.0478	-0.0265	-0.0554	35.4558	8.7083	-7.1447	-0.3403	-0.6128	-0.3551	0.6184
5.94	-9.6112	-0.1631	0.1646	-0.0490	-0.0195	-0.0542	35.2693	8.7373	-7.1735	-0.3405	-0.6127	-0.3552	0.6185
5.95	-9.6036	-0.1735	0.1634	-0.0451	-0.0129	-0.0499	35.3690	8.6931	-7.2599	-0.3405	-0.6126	-0.3552	0.6185
5.96	-9.5886	-0.1830	0.1707	-0.0455	-0.0173	-0.0395	35.5007	8.8117	-7.2421	-0.3407	-0.6126	-0.3552	0.6185
5.97	-9.5721	-0.1805	0.1769	-0.0353	-0.0162	-0.0407	35.4070	8.8044	-7.1394	-0.3408	-0.6125	-0.3552	0.6185
5.98	-9.5552	-0.1796	0.1753	-0.0225	-0.0078	-0.0354	35.3885	8.6974	-7.1571	-0.3408	-0.6125	-0.3551	0.6185
5.99	-9.5566	-0.1766	0.1718	-0.0202	-0.0039	-0.0373	35.2522	8.7334	-7.1254	-0.3409	-0.6126	-0.3551	0.6185
6	-9.5609	-0.1824	0.1642	-0.0238	-0.0074	-0.0379	35.5346	8.7137	-7.2582	-0.3409	-0.6125	-0.3549	0.6185
6.01	-9.5665	-0.1713	0.1675	-0.0069	0.0056	-0.0403	35.3419	8.7273	-7.1015	-0.3409	-0.6127	-0.3549	0.6185
6.02	-9.5726	-0.1547	0.1594	0.0024	0.0093	-0.0430	35.0419	9.0322	-7.2388	-0.3408	-0.6127	-0.3548	0.6185
6.03	-9.5833	-0.1333	0.1520	0.0035	0.0137	-0.0458	35.3178	8.8173	-7.1736	-0.3407	-0.6128	-0.3547	0.6185
6.04	-9.5887	-0.1131	0.1429	0.0036	0.0262	-0.0524	35.4093	8.8166	-7.1416	-0.3405	-0.6129	-0.3546	0.6185
6.05	-9.6018	-0.0816	0.1359	0.0129	0.0257	-0.0531	35.4180	8.7738	-7.1405	-0.3404	-0.6131	-0.3546	0.6185
6.06	-9.6267	-0.0582	0.1304	0.0197	0.0289	-0.0520	35.3654	8.7358	-7.2009	-0.3402	-0.6133	-0.3545	0.6185
6.07	-9.6452	-0.0332	0.1081	0.0135	0.0381	-0.0520	35.2107	8.9270	-7.2795	-0.3400	-0.6134	-0.3544	0.6184
6.08	-9.6519	-0.0229	0.0967	0.0089	0.0296	-0.0553	35.2422	8.8738	-7.1077	-0.3398	-0.6136	-0.3544	0.6184
6.09	-9.6575	-0.0121	0.0913	0.0076	0.0310	-0.0651	35.2177	8.9243	-7.2018	-0.3396	-0.6137	-0.3544	0.6184
6.1	-9.6762	-0.0102	0.0857	0.0043	0.0295	-0.0599	35.2491	8.8267	-7.0408	-0.3395	-0.6139	-0.3544	0.6184
6.11	-9.6810	-0.0232	0.0721	-0.0015	0.0221	-0.0597	35.1950	8.7174	-7.1631	-0.3393	-0.6139	-0.3543	0.6183
6.12	-9.6960	-0.0347	0.0655	-0.0029	0.0240	-0.0607	35.4054	8.7061	-7.3691	-0.3391	-0.6141	-0.3543	0.6184
6.13	-9.7068	-0.0539	0.0614	-0.0196	0.0188	-0.0572	35.5128	8.7593	-7.1133	-0.3391	-0.6141	-0.3543	0.6183
6.14	-9.7020	-0.0734	0.0610	-0.0229	0.0121	-0.0590	35.5578	8.5988	-6.9209	-0.3390	-0.6141	-0.3543	0.6183
6.15	-9.6992	-0.0870	0.0558	-0.0191	0.0029	-0.0507	35.6131	8.8841	-7.1181	-0.3390	-0.6143	-0.3544	0.6183
6.16	-9.6927	-0.0881	0.0535	-0.0210	-0.0020	-0.0583	35.2770	8.8348	-7.0969	-0.3389	-0.6142	-0.3543	0.6183
6.17	-9.6818	-0.0930	0.0612	-0.0222	-0.0054	-0.0500	35.4210	8.8909	-6.8813	-0.3390	-0.6142	-0.3544	0.6184
6.18	-9.6753	-0.1014	0.0582	-0.0228	-0.0126	-0.0460	35.3732	8.7368	-7.1886	-0.3389	-0.6141	-0.3543	0.6183
6.19	-9.6738	-0.1066	0.0665	-0.0221	-0.0110	-0.0550	35.4736	8.4912	-7.2316	-0.3390	-0.6142	-0.3543	0.6184
6.2	-9.6627	-0.1093	0.0804	-0.0227	-0.0130	-0.0542	35.5673	8.5873	-7.0664	-0.3390	-0.6141	-0.3542	0.6185
6.21	-9.6615	-0.1163	0.0833	-0.0218	-0.0119	-0.0545	35.1762	8.7977	-7.0485	-0.3389	-0.6141	-0.3542	0.6185
6.22	-9.6590	-0.1193	0.0824	-0.0200	-0.0160	-0.0492	35.2650	8.8195	-7.0713	-0.3390	-0.6141	-0.3541	0.6186
6.23	-9.6462	-0.1172	0.0915	-0.0217	-0.0153	-0.0465	35.3230	8.6789	-6.9001	-0.3390	-0.6140	-0.3541	0.6186
6.24	-9.6278	-0.1118	0.0997	-0.0202	-0.0162	-0.0465	35.5368	8.7881	-7.0790	-0.3390	-0.6140	-0.3540	0.6187
6.25	-9.6061	-0.0993	0.1069	-0.0211	-0.0141	-0.0508	35.3102	8.9030	-6.9381	-0.3390	-0.6139	-0.3540	0.6187
6.26	-9.5798	-0.0861	0.0988	-0.0114	-0.0135	-0.0497	35.1165	8.8970	-7.1344	-0.3390	-0.6140	-0.3539	0.6188
6.27	-9.5664	-0.0759	0.0977	-0.0048	-0.0037	-0.0463	35.2939	8.8878	-7.0752	-0.3390	-0.6140	-0.3538	0.6188
6.28	-9.5792	-0.0748	0.0949	-0.0004	0.0021	-0.0543	35.4076	8.6415	-6.8905	-0.3389	-0.6140	-0.3538	0.6189
6.29	-9.6010	-0.0750	0.0991	-0.0032	-0.0050	-0.0487	35.3103	8.6240	-7.1883	-0.3388	-0.6140	-0.3537	0.6189
6.3	-9.6330	-0.0811	0.0961	-0.0029	0.0059	-0.0576	35.3286	8.7624	-7.2650	-0.3387	-0.6141	-0.3536	0.6189
6.31	-9.6605	-0.0822	0.0943	-0.0067	0.0035	-0.0571	35.4792	8.4595	-7.1689	-0.3387	-0.6141	-0.3536	0.6190
6.32	-9.6684	-0.0823	0.0882	-0.0013	-0.0019	-0.0579	35.5795	8.5326	-7.1277	-0.3385	-0.6141	-0.3535	0.6190
6.33	-9.6763	-0.0791	0.0800	0.0018	-0.0032	-0.0583	35.4931	8.6563	-7.1518	-0.3385	-0.6142	-0.3535	0.6191
6.34	-9.6853	-0.0532	0.0845	0.0026	-0.0034	-0.0575	35.4852	8.6389	-7.1473	-0.3383	-0.6142	-0.3533	0.6192
6.35	-9.6824	-0.0442	0.0812	0.0027	-0.0005	-0.0573	35.5248	8.8371	-7.1329	-0.3383	-0.6143	-0.3533	0.6193
6.36	-9.6644	-0.0536	0.0881	-0.0050	-0.0121	-0.0659	35.3820	8.7775	-7.2677	-0.3381	-0.6142	-0.3532	0.6193
6.37	-9.6550	-0.0670	0.0847	-0.0093	-0.0146	-0.0658	35.3259	8.8632	-6.9586	-0.3381	-0.6142	-0.3532	0.6194
6.38	-9.6368	-0.0817	0.0963	-0.0140	-0.0097	-0.0636	35.6477	8.8713	-6.8433	-0.3380	-0.6142	-0.3532	0.6195
6.39	-9.6426	-0.0996	0.1031	-0.0179	-0.0119	-0.0706	35.7677	8.7247	-6.8901	-0.3379	-0.6141	-0.3532	0.6196
6.4	-9.6855	-0.1234	0.1085	-0.0220	-0.0125	-0.0686	35.6523	8.6902	-6.7914	-0.3380	-0.6141	-0.3533	0.6197
6.41	-9.7027	-0.1471	0.1139	-0.0214	-0.0147	-0.0591	35.4511	8.8314	-7.0664	-0.3379	-0.6140	-0.3532	0.6197
6.42	-9.6949	-0.1400	0.1169	-0.0175	-0.0217	-0.0561	35.0635	8.9868	-6.9864	-0.3380	-0.6140	-0.3532	0.6198
6.43	-9.6662	-0.1274	0.1210	-0.0177	-0.0283	-0.0491	35.2421	8.7112	-6.9383	-0.3380	-0.6138	-0.3531	0.6198
6.44	-9.6337	-0.1221	0.1280	-0.0196	-0.0302	-0.0443	35.2068	8.7603	-6.9557	-0.3381	-0.6138	-0.3531	0.6200
6.45	-9.6212	-0.1110	0.1325	-0.0191	-0.0251	-0.0404	35.2644	8.5781	-6.9464	-0.3381	-0.6137	-0.3530	0.6200
6.46	-9.6160	-0.0950	0.1384	-0.0231	-0.0275	-0.0352	35.3416	8.8553	-6.9414	-0.3382	-0.6137	-0.3528	0.6201
6.47	-9.6133	-0.0858	0.1416	-0.0177	-0.0246	-0.0331	35.2808	8.8086	-7.0555	-0.3383	-0.6137	-0.3527	0.6202
6.48	-9.6076	-0.0842	0.1438	-0.0104	-0.0289	-0.0355	35.2299	8.6271	-7.3054	-0.3383	-0.6136	-0.3526	0.6202
6.49	-9.6062	-0.0954	0.1483	-0.0131	-0.0252	-0.0416	35.5999	8.6333	-7.0990	-0.3384	-0.6136	-0.3525	0.6203
6.5	-9.6127	-0.1094	0.1398	-0.0028	-0.0243	-0.0453	35.4758	8.4443	-7.2459	-0.3383	-0.6135	-0.3523	0.6204
6.51	-9.6085	-0.1096	0.1535	-0.0031	-0.0196	-0.0538	35.4991	8.7223	-7.1764	-0.3383	-0.6136	-0.3522	0.6205
6.52	-9.6100	-0.1092	0.1520	-0.0045	-0.0188	-0.0517	35.2988	8.5925	-7.1751	-0.3383	-0.6135	-0.3521	0.6206
6.53	-9.6217	-0.1059	0.1597	0.0056	-0.0216	-0.0575	35.3914	8.5491	-7.1856	-0.3382	-0.6135	-0.3520	0.6208
6.54	-9.6274	-0.0918	0.1659	0.0034	-0.0110	-0.0613	35.3928	8.6819	-6.9979	-0.3381	-0.6135	-0.3519	0.6208
6.55	-9.6252	-0.0770	0.1610	0.0034	-0.0137	-0.0580	35.3034	8.5092	-7.1927	-0.3380	-0.6135	-0.3518	0.6209
6.56	-9.6119	-0.0694	0.1610	0.0034	-0.0137	-0.0630	35.4580	8.6978	-7.0593	-0.3379	-0.6135	-0.3518	0.6211
6.57	-9.6011	-0.0612	0.1642	0.0069	-0.0109	-0.0668	35.2813	8.7788	-7.3539	-0.3378	-0.6134	-0.3516	0.6211
6.58	-9.6015	-0.0488	0.1603	-0.0101	-0.0074	-0.0671	35.3361	8.7082	-7.2723	-0.3377	-0.6135	-0.3517	0.6213
6.59	-9.6151	-0.0427	0.1590	-0.0143	-0.0012	-0.0652	35.1180	8.8059	-7.2688	-0.3376	-0.6135	-0.3516	0.6213
6.6	-9.6406	-0.0474	0.1539	-0.0210	-0.0064	-0.0619	35.2178	8.8320	-7.2945	-0.3376	-0.6135	-0.3517	0.6214
6.61	-9.6614	-0.0541	0.1623	-0.0191	-0.0023	-0.0685	35.2123	8.8452	-7.0893	-0.3375	-0.6134	-0.3517	0.6214
6.62	-9.6835	-0.0707	0.1587	-0.0205	0.0006	-0.0644	35.1381	8.9146	-7.3059	-0.3375	-0.6134	-0.3517	0.6214
6.63	-9.6873	-0.0813	0.1531	-0.0231	-0.0115	-0.0623	35.4453	8.9778	-7.2995	-0.3374	-0.6134	-0.3517	0.6215
6.64	-9.6883	-0.0896	0.1561	-0.0273	-0.0147	-0.0590	35.3025	9.0216	-7.1001	-0.3374	-0.6133	-0.3517	0.6215
6.65	-9.6814	-0.0975	0.1562	-0.0306	-0.0257	-0.0564	35.3157	8.9215	-7.2862	-0.3375	-0.6133	-0.3517	0.6216
6.66	-9.6768	-0.1096	0.1677	-0.0291	-0.0242	-0.0561	35.3124	8.8795	-7.2866	-0.3375	-0.6131	-0.3517	0.6217
6.67	-9.6685	-0.1211	0.1746	-0.0397	-0.0282	-0.0563	35.3092	8.8071	-7.2344	-0.3376	-0.6130	-0.3517	0.6218
6.68	-9.6364	-0.1211	0.1796	-0.0298	-0.0291	-0.0561	35.3065	8.4380	-7.5541	-0.3376	-0.6129	-0.3516	0.6218
6.69	-9.6164	-0.1189	0.1886	-0.0263	-0.0316	-0.0586	35.4127	8.3190	-7.2052	-0.3377	-0.6128	-0.3516	0.6219
6.7	-9.6548	-0.1411	0.1972	-0.0240	-0.0243	-0.0640	35.5711	8.5556	-7.2825	-0.3377	-0.6127	-0.3516	0.6220
6.71	-9.6560	-0.1752	0.2090	-0.0214	-0.0281	-0.0797	35.5252	8.7129	-7.3168	-0.3376	-0.6126	-0.3516	0.6222
6.72	-9.6476	-0.1734	0.2277	-0.0220	-0.0331	-0.0727	35.2761	8.8559	-7.4285	-0.3376	-0.6125	-0.3516	0.6223
6.73	-9.6263	-0.1789	0.2285	-0.0150	-0.0363	-0.0742	35.1921	8.6968	-7.3831	-0.3376	-0.6123	-0.3516	0.6225
6.74	-9.5864	-0.1895	0.2488	-0.0195	-0.0318	-0.0712	35.2873	8.5715	-7.2749	-0.3375	-0.6122	-0.3516	0.6226
6.75	-9.6017	-0.1823	0.2480	-0.0219	-0.0246	-0.0640	35.3271	8.6443	-7.3559	-0.3375	-0.6121	-0.3515	0.6227
6.76	-9.6085	-0.1670	0.2563	-0.0195	-0.0241	-0.0561	35.1850	8.7661	-7.2632	-0.3375	-0.6121	-0.3515	0.6228
6.77	-9.5881	-0.1428	0.2691	-0.0149	-0.0262	-0.0482	35.2585	8.7508	-7.2680	-0.3375	-0.6120	-0.3514	0.6229
6.78	-9.5869	-0.1242	0.2744	-0.0131	-0.0205	-0.0541	35.1294	8.9540	-7.3479	-0.3375	-0.6120	-0.3514	0.6230
6.79	-9.5850	-0.1163	0.2756	-0.0117	-0.0167	-0.0538	35.1391	8.8020	-7.2300	-0.3375	-0.6119	-0.3513	0.6231
6.8	-9.5788	-0.1259	0.2729	-0.0141	-0.0113	-0.0545	35.2365	8.7448	-7.1857	-0.3375	-0.6119	-0.3512	0.6231
6.81	-9.5631	-0.1424	0.2752	-0.0226	-0.0028	-0.0609	35.2237	8.9176	-7.1601	-0.3375	-0.6119	-0.3513	0.6232
6.82	-9.5535	-0.1595	0.2727	-0.0193	0.0027	-0.0609	35.2070	8.9305	-7.3472	-0.3374	-0.6118	-0.3512	0.6231
6.83	-9.5503	-0.1710	0.2682	-0.0219	0.0028	-0.0564	35.2526	8.8010	-7.3141	-0.3374	-0.6119	-0.3513	0.6232
6.84	-9.5457	-0.1648	0.2623	-0.0184	0.0124	-0.0561	35.2987	8.8806	-7.3144	-0.3373	-0.6119	-0.3513	0.6232
6.85	-9.5616	-0.1631	0.2541	-0.0115	0.0140	-0.0491	35.1647	8.9184	-7.3780	-0.3373	-0.6121	-0.3513	0.6232
6.86	-9.5795	-0.1604	0.2444	-0.0097	0.0203	-0.0486	35.4313	8.5045	-7.5282	-0.3372	-0.6121	-0.3512	0.6231
6.87	-9.6073	-0.1476	0.2401	-0.0096	0.0222	-0.0429	35.3757	8.5144	-7.3429	-0.3371	-0.6122	-0.3512	0.6231
6.88	-9.6232	-0.1350	0.2278	-0.0204	0.0202	-0.0427	35.8308	8.7639	-7.3119	-0.3371	-0.6123	-0.3512	0.6230
6.89	-9.6261	-0.1219	0.2220	-0.0180	0.0231	-0.0443	36.0894	8.7307	-7.3033	-0.3370	-0.6124	-0.3511	0.6229
6.9	-9.6324	-0.1172	0.2112	-0.0176	0.0184	-0.0404	35.6921	8.9131	-7.4275	-0.3370	-0.6126	-0.3512	0.6229
6.91	-9.6377	-0.1201	0.2018	-0.0178	0.0202	-0.0386	35.4058	9.0134	-7.4532	-0.3370	-0.6126	-0.3511	0.6228
6.92	-9.6506	-0.1272	0.1912	-0.0219	0.0230	-0.0441	35.1790	8.9049	-7.3800	-0.3370	-0.6127	-0.3511	0.6227
6.93	-9.6637	-0.1333	0.1846	-0.0228	0.0252	-0.0366	35.3332	8.7860	-7.1039	-0.3369	-0.6128	-0.3511	0.6226
6.94	-9.6664	-0.1340	0.1847	-0.0158	0.0271	-0.0356	35.2182	8.9097	-7.1672	-0.3370	-0.6130	-0.3511	0.6225
6.95	-9.6778	-0.1372	0.1751	-0.0172	0.0224	-0.0421	35.4194	8.7175	-7.2553	-0.3369	-0.6131	-0.3510	0.6224
6.96	-9.6773	-0.1286	0.1711	-0.0191	0.0266	-0.0320	35.3406	8.9992	-7.5069	-0.3369	-0.6132	-0.3510	0.6223
6.97	-9.6769	-0.1130	0.1708	-0.0165	0.0201	-0.0334	35.3089	8.8533	-7.5011	-0.3369	-0.6133	-0.3510	0.6223
6.98	-9.6760	-0.1017	0.1633	-0.0076	0.0092	-0.0379	35.2077	8.8043	-7.3861	-0.3369	-0.6134	-0.3509	0.6222
6.99	-9.6626	-0.0932	0.1706	-0.0120	0.0067	-0.0340	35.2647	8.7353	-7.1768	-0.3369	-0.6135	-0.3508	0.6222
7	-9.6479	-0.0802	0.1717	-0.0160	0.0075	-0.0419	35.1179	8.7082	-7.0985	-0.3368	-0.6135	-0.3507	0.6221
7.01	-9.6304	-0.0748	0.1765	-0.0107	0.0021	-0.0409	35.2813	8.6930	-7.2734	-0.3368	-0.6136	-0.3507	0.6222
7.02	-9.6181	-0.0757	0.1726	-0.0129	0.0003	-0.0463	35.1553	8.9371	-7.1710	-0.3368	-0.6136	-0.3506	0.6222
7.03	-9.6100	-0.0902	0.1781	-0.0118	0.0028	-0.0431	35.2148	8.9278	-7.1026	-0.3368	-0.6137	-0.3505	0.6222
7.04	-9.6110	-0.0906	0.1825	-0.0043	0.0017	-0.0481	35.2315	8.7844	-7.3437	-0.3367	-0.6137	-0.3505	0.6222
7.05	-9.6140	-0.0924	0.1794	-0.0091	0.0009	-0.0385	35.5144	8.7767	-7.4377	-0.3367	-0.6138	-0.3504	0.6222
7.06	-9.6034	-0.0862	0.1797	0.0034	0.0118	-0.0434	35.5928	8.6928	-7.3552	-0.3366	-0.6139	-0.3503	0.6222
7.07	-9.5971	-0.0754	0.1772	-0.0117	0.0155	-0.0458	35.3460	8.7127	-7.2121	-0.3366	-0.6139	-0.3502	0.6221
7.08	-9.5970	-0.0684	0.1705	-0.0167	0.0195	-0.0475	35.5877	8.7302	-7.2298	-0.3366	-0.6141	-0.3502	0.6221
7.09	-9.6001	-0.0596	0.1686	-0.0084	0.0183	-0.0434	35.2064	8.8151	-7.2204	-0.3365	-0.6142	-0.3502	0.6221
7.1	-9.6085	-0.0635	0.1651	-0.0156	0.0212	-0.0451	35.1982	8.8030	-7.2396	-0.3365	-0.6143	-0.3502	0.6221
7.11	-9.6186	-0.0656	0.1519	-0.0174	0.0261	-0.0476	35.2420	8.7814	-7.2026	-0.3364	-0.6143	-0.3501	0.6219
7.12	-9.6243	-0.0641	0.1421	-0.0214	0.0252	-0.0502	35.1340	8.7277	-7.3920	-0.3363	-0.6145	-0.3502	0.6219
7.13	-9.6258	-0.0714	0.1352	-0.0227	0.0236	-0.0529	35.2961	8.7939	-7.3680	-0.3363	-0.6146	-0.3502	0.6218
7.14	-9.6269	-0.0871	0.1268	-0.0226	0.0230	-0.0509	35.4382	8.5873	-7.2341	-0.3362	-0.6146	-0.3502	0.6217
7.15	-9.6325	-0.0937	0.1131	-0.0231	0.0286	-0.0440	35.1708	8.7434	-7.0876	-0.3362	-0.6148	-0.3503	0.6217
7.16	-9.6455	-0.1020	0.1025	-0.0223	0.0330	-0.0443	35.2031	8.8308	-7.0748	-0.3361	-0.6148	-0.3502	0.6215
7.17	-9.6540	-0.0945	0.1056	-0.0229	0.0331	-0.0490	35.3921	8.7272	-7.1501	-0.3361	-0.6150	-0.3503	0.6214
7.18	-9.6630	-0.0885	0.0939	-0.0226	0.0284	-0.0422	35.1891	8.7097	-7.1325	-0.3360	-0.6150	-0.3503	0.6213
7.19	-9.6768	-0.0767	0.0870	-0.0186	0.0237	-0.0347	35.3742	8.5944	-7.2217	-0.3360	-0.6152	-0.3503	0.6212
7.2	-9.6934	-0.0691	0.0835	-0.0234	0.0182	-0.0351	35.2684	8.6784	-7.0973	-0.3360	-0.6153	-0.3502	0.6211
7.21	-9.6982	-0.0633	0.0782	-0.0226	0.0129	-0.0388	35.4472	8.7409	-7.1481	-0.3360	-0.6154	-0.3502	0.6211
7.22	-9.6826	-0.0556	0.0802	-0.0231	-0.0021	-0.0415	35.2704	8.5984	-7.1248	-0.3361	-0.6154	-0.3502	0.6211
7.23	-9.6721	-0.0587	0.0803	-0.0181	-0.0027	-0.0409	35.2775	8.6484	-7.1196	-0.3361	-0.6154	-0.3501	0.6211
7.24	-9.6632	-0.0584	0.0816	-0.0125	-0.0032	-0.0508	35.5139	8.5678	-6.9626	-0.3361	-0.6155	-0.3501	0.6211
7.25	-9.6518	-0.0629	0.0829	-0.0158	0.0010	-0.0543	35.5056	8.5060	-7.2566	-0.3360	-0.6154	-0.3500	0.6211
7.26	-9.6546	-0.0731	0.0886	-0.0124	-0.0016	-0.0553	35.4673	8.6843	-7.1795	-0.3360	-0.6155	-0.3500	0.6212
7.27	-9.6522	-0.0731	0.0947	-0.0072	-0.0021	-0.0574	35.2761	8.6845	-7.3188	-0.3359	-0.6155	-0.3499	0.6212
7.28	-9.6536	-0.0657	0.0978	-0.0075	0.0020	-0.0540	35.6235	8.5720	-7.1789	-0.3358	-0.6156	-0.3499	0.6212
7.29	-9.6508	-0.0554	0.0977	-0.0033	-0.0016	-0.0569	35.4879	8.8517	-7.0004	-0.3357	-0.6156	-0.3498	0.6212
7.3	-9.6505	-0.0425	0.0972	0.0037	0.0015	-0.0507	35.2446	8.7498	-7.3309	-0.3357	-0.6156	-0.3497	0.6213
7.31	-9.6490	-0.0280	0.1023	0.0019	0.0025	-0.0558	35.0591	8.7016	-7.2883	-0.3356	-0.6157	-0.3497	0.6214
7.32	-9.6478	-0.0249	0.1064	-0.0114	-0.0023	-0.0619	35.4190	8.7007	-7.4225	-0.3354	-0.6157	-0.3496	0.6214
7.33	-9.6410	-0.0295	0.1044	-0.0150	-0.0019	-0.0590	35.5146	8.8385	-7.2947	-0.3354	-0.6157	-0.3496	0.6215
7.34	-9.6324	-0.0432	0.1128	-0.0222	-0.0066	-0.0567	35.3515	8.5827	-7.1737	-0.3354	-0.6157	-0.3496	0.6215
7.35	-9.6418	-0.0635	0.1200	-0.0227	0.0021	-0.0613	35.2510	8.5690	-7.0751	-0.3354	-0.6157	-0.3496	0.6215
7.36	-9.6361	-0.0842	0.1144	-0.0247	-0.0006	-0.0672	35.2109	8.7449	-7.3706	-0.3353	-0.6156	-0.3496	0.6215
7.37	-9.6177	-0.0957	0.1199	-0.0272	-0.0022	-0.0600	35.3788	8.6912	-7.1238	-0.3353	-0.6157	-0.3497	0.6215
7.38	-9.6278	-0.0869	0.1190	-0.0218	0.0027	-0.0572	35.6206	8.7384	-6.8355	-0.3353	-0.6157	-0.3497	0.6215
7.39	-9.6292	-0.0778	0.1205	-0.0247	-0.0035	-0.0531	35.8057	8.6887	-6.8580	-0.3352	-0.6156	-0.3497	0.6215
7.4	-9.6213	-0.0760	0.1314	-0.0244	-0.0007	-0.0588	35.5358	8.8287	-6.8183	-0.3353	-0.6157	-0.3497	0.6216
7.41	-9.6313	-0.0750	0.1300	-0.0208	-0.0047	-0.0527	35.3147	9.0206	-6.8792	-0.3352	-0.6156	-0.3497	0.6216
7.42	-9.6271	-0.0698	0.1363	-0.0228	-0.0002	-0.0484	35.0344	8.5731	-7.1286	-0.3353	-0.6156	-0.3497	0.6216
7.43	-9.6403	-0.0587	0.1398	-0.0208	0.0004	-0.0552	35.3279	8.5896	-7.1319	-0.3352	-0.6156	-0.3497	0.6215
7.44	-9.6663	-0.0733	0.1388	-0.0287	-0.0056	-0.0592	35.5087	8.5744	-7.1588	-0.3353	-0.6156	-0.3497	0.6216
7.45	-9.6857	-0.1081	0.1315	-0.0231	-0.0030	-0.0610	35.3039	8.4551	-7.2257	-0.3352	-0.6156	-0.3497	0.6216
7.46	-9.6851	-0.1379	0.1308	-0.0258	-0.0059	-0.0582	35.2854	8.5890	-7.3469	-0.3352	-0.6155	-0.3497	0.6216
7.47	-9.6558	-0.1601	0.1306	-0.0258	-0.0052	-0.0556	35.4199	8.5800	-7.5861	-0.3352	-0.6156	-0.3497	0.6217
7.48	-9.6261	-0.1724	0.1316	-0.0226	-0.0126	-0.0602	35.3456	8.7259	-6.9749	-0.3352	-0.6155	-0.3497	0.6217
7.49	-9.6204	-0.1726	0.1393	-0.0235	-0.0165	-0.0469	35.3192	8.5773	-7.3004	-0.3352	-0.6155	-0.3497	0.6218
7.5	-9.6363	-0.1617	0.1368	-0.0086	-0.0073	-0.0373	35.5310	8.6826	-7.1509	-0.3352	-0.6154	-0.3495	0.6217
7.51	-9.6471	-0.1375	0.1438	-0.0013	-0.0060	-0.0376	35.3179	8.5566	-6.9247	-0.3352	-0.6156	-0.3495	0.6218
7.52	-9.6506	-0.1072	0.1417	-0.0077	-0.0140	-0.0439	35.1848	8.6412	-7.2438	-0.3352	-0.6155	-0.3493	0.6219
7.53	-9.6457	-0.0788	0.1446	-0.0006	-0.0076	-0.0471	35.2254	8.6754	-7.2556	-0.3352	-0.6156	-0.3492	0.6219
7.54	-9.6408	-0.0620	0.1516	-0.0044	-0.0106	-0.0597	35.2071	8.7684	-6.9929	-0.3351	-0.6156	-0.3491	0.6220
7.55	-9.6297	-0.0552	0.1494	0.0010	-0.0112	-0.0636	35.3413	8.7531	-7.2751	-0.3350	-0.6156	-0.3491	0.6221
7.56	-9.6145	-0.0528	0.1547	-0.0099	-0.0152	-0.0658	35.2500	8.7836	-7.4136	-0.3349	-0.6156	-0.3491	0.6222
7.57	-9.6044	-0.0592	0.1591	-0.0129	-0.0154	-0.0726	35.1062	8.6631	-6.8722	-0.3349	-0.6154	-0.3491	0.6222
7.58	-9.5981	-0.0742	0.1621	-0.0180	-0.0139	-0.0733	35.2412	8.6922	-7.1155	-0.3348	-0.6154	-0.3491	0.6224
7.59	-9.5990	-0.0992	0.1673	-0.0217	-0.0079	-0.0651	35.1888	8.9329	-7.2850	-0.3348	-0.6153	-0.3491	0.6224
7.6	-9.5999	-0.1101	0.1738	-0.0211	-0.0085	-0.0575	35.2955	8.9228	-7.4157	-0.3348	-0.6154	-0.3491	0.6225
7.61	-9.6022	-0.1219	0.1689	-0.0233	-0.0074	-0.0527	35.3063	8.5148	-7.4178	-0.3347	-0.6153	-0.3491	0.6224
7.62	-9.6049	-0.1236	0.1693	-0.0259	-0.0042	-0.0478	35.3009	8.6750	-7.1583	-0.3348	-0.6153	-0.3491	0.6225
7.63	-9.6191	-0.1160	0.1683	-0.0234	0.0038	-0.0404	35.2969	8.7408	-7.1286	-0.3348	-0.6153	-0.3490	0.6225
7.64	-9.6304	-0.1092	0.1621	-0.0229	0.0031	-0.0412	35.3616	8.6442	-7.1472	-0.3348	-0.6153	-0.3490	0.6224
7.65	-9.6438	-0.1004	0.1607	-0.0200	-0.0015	-0.0416	35.5336	8.6900	-7.1126	-0.3349	-0.6155	-0.3490	0.6225
7.66	-9.6456	-0.0943	0.1558	-0.0224	0.0055	-0.0395	35.2601	8.5330	-7.3343	-0.3348	-0.6154	-0.3489	0.6224
7.67	-9.6433	-0.0935	0.1622	-0.0222	0.0035	-0.0444	35.2421	8.4153	-7.4453	-0.3349	-0.6155	-0.3489	0.6224
7.68	-9.6369	-0.0917	0.1560	-0.0215	-0.0002	-0.0549	35.4193	8.4779	-7.3077	-0.3348	-0.6155	-0.3488	0.6223
7.69	-9.6350	-0.1003	0.1532	-0.0189	-0.0002	-0.0538	35.3725	8.6373	-7.3034	-0.3348	-0.6155	-0.3488	0.6224
7.7	-9.6320	-0.1085	0.1469	-0.0115	-0.0044	-0.0575	35.2357	8.8598	-7.2010	-0.3347	-0.6155	-0.3488	0.6224
7.71	-9.6245	-0.1095	0.1462	-0.0231	0.0029	-0.0625	35.2099	8.7774	-7.2621	-0.3347	-0.6155	-0.3488	0.6224
7.72	-9.6095	-0.1144	0.1477	-0.0174	0.0065	-0.0678	35.1206	8.7412	-7.1031	-0.3347	-0.6155	-0.3489	0.6225
7.73	-9.6113	-0.1087	0.1562	-0.0104	0.0052	-0.0649	35.2616	8.7892	-7.3204	-0.3346	-0.6155	-0.3489	0.6225
7.74	-9.6683	-0.1105	0.1559	-0.0143	0.0087	-0.0666	35.3385	8.6898	-7.2704	-0.3345	-0.6156	-0.3489	0.6225
7.75	-9.6704	-0.1253	0.1566	-0.0165	0.0025	-0.0686	35.1989	8.6624	-7.1281	-0.3343	-0.6155	-0.3489	0.6225
7.76	-9.6618	-0.1092	0.1616	-0.0174	0.0043	-0.0628	35.1202	8.7817	-7.1313	-0.3343	-0.6156	-0.3489	0.6226
7.77	-9.6325	-0.1041	0.1480	-0.0162	0.0016	-0.0658	35.1110	8.7539	-7.1670	-0.3342	-0.6156	-0.3489	0.6226
7.78	-9.5893	-0.1017	0.1632	-0.0217	-0.0045	-0.0609	35.1995	8.7610	-7.0461	-0.3342	-0.6156	-0.3490	0.6226
7.79	-9.6172	-0.1029	0.1527	-0.0224	-0.0035	-0.0539	35.2209	8.7747	-7.0550	-0.3342	-0.6155	-0.3489	0.6226
7.8	-9.6326	-0.1127	0.1514	-0.0229	-0.0014	-0.0541	35.3410	8.6067	-7.2722	-0.3342	-0.6156	-0.3489	0.6226
7.81	-9.6201	-0.1137	0.1553	-0.0208	-0.0008	-0.0510	35.4221	8.6194	-7.2073	-0.3342	-0.6156	-0.3489	0.6226
7.82	-9.6348	-0.1186	0.1520	-0.0214	0.0039	-0.0525	35.3590	8.7834	-7.2441	-0.3341	-0.6155	-0.3489	0.6226
7.83	-9.6531	-0.1316	0.1489	-0.0228	0.0035	-0.0412	35.4398	8.6546	-7.1184	-0.3342	-0.6157	-0.3489	0.6226
7.84	-9.6475	-0.1451	0.1412	-0.0220	0.0026	-0.0427	35.2926	8.5365	-7.1243	-0.3342	-0.6157	-0.3488	0.6226
7.85	-9.6478	-0.1521	0.1391	-0.0227	0.0048	-0.0466	35.1773	8.7011	-6.9264	-0.3342	-0.6157	-0.3488	0.6226
7.86	-9.6409	-0.1504	0.1392	-0.0220	-0.0008	-0.0448	35.3106	8.5491	-7.0545	-0.3342	-0.6157	-0.3488	0.6225
7.87	-9.6539	-0.1529	0.1366	-0.0224	-0.0009	-0.0406	35.3223	8.6575	-7.1586	-0.3342	-0.6157	-0.3487	0.6225
7.88	-9.6505	-0.1509	0.1372	-0.0172	-0.0003	-0.0429	35.8115	8.9661	-7.1057	-0.3342	-0.6158	-0.3487	0.6225
7.89	-9.6370	-0.1405	0.1357	-0.0164	0.0009	-0.0460	35.8770	8.9518	-6.9215	-0.3342	-0.6158	-0.3486	0.6225
7.9	-9.6249	-0.1402	0.1408	-0.0184	-0.0011	-0.0449	35.5670	8.7847	-7.0537	-0.3343	-0.6159	-0.3486	0.6226
7.91	-9.6146	-0.1417	0.1389	-0.0095	-0.0055	-0.0493	35.2961	8.7219	-6.9849	-0.3342	-0.6158	-0.3485	0.6225
7.92	-9.6076	-0.1431	0.1366	-0.0067	-0.0010	-0.0405	35.2054	8.9062	-7.0076	-0.3342	-0.6159	-0.3485	0.6226
7.93	-9.6112	-0.1372	0.1446	-0.0108	0.0020	-0.0453	35.1434	8.8280	-7.1504	-0.3341	-0.6159	-0.3483	0.6225
7.94	-9.6220	-0.1333	0.1408	-0.0051	0.0009	-0.0406	35.1466	8.6513	-7.1521	-0.3341	-0.6160	-0.3483	0.6226
7.95	-9.6264	-0.1246	0.1420	0.0041	0.0029	-0.0295	35.4879	8.8766	-7.0681	-0.3341	-0.6161	-0.3481	0.6226
7.96	-9.6276	-0.1063	0.1372	0.0029	0.0014	-0.0281	35.4537	8.7957	-7.0994	-0.3341	-0.6162	-0.3480	0.6226
7.97	-9.6244	-0.0822	0.1337	0.0015	-0.0004	-0.0301	35.1808	8.3943	-7.2487	-0.3341	-0.6163	-0.3478	0.6226
7.98	-9.6255	-0.0587	0.1381	0.0028	0.0006	-0.0342	35.2775	8.7578	-7.0839	-0.3341	-0.6164	-0.3477	0.6226
7.99	-9.6288	-0.0248	0.1295	0.0015	-0.0013	-0.0302	35.5796	8.6655	-7.1826	-0.3341	-0.6165	-0.3475	0.6226
8	-9.6410	-0.0115	0.1305	0.0025	0.0021	-0.0306	35.5876	8.5383	-6.9947	-0.3340	-0.6165	-0.3473	0.6226
8.01	-9.6519	0.0026	0.1255	0.0043	0.0090	-0.0369	35.5926	8.6670	-7.2029	-0.3340	-0.6167	-0.3472	0.6226
8.02	-9.6551	0.0127	0.1239	0.0009	0.0077	-0.0498	35.5648	8.7637	-7.1802	-0.3339	-0.6167	-0.3472	0.6226
8.03	-9.6545	0.0211	0.1193	0.0041	-0.0002	-0.0543	35.3950	8.6395	-7.1202	-0.3338	-0.6168	-0.3471	0.6227
8.04	-9.6546	0.0285	0.1206	-0.0011	0.0062	-0.0522	35.4306	8.6370	-7.1283	-0.3337	-0.6168	-0.3470	0.6227
8.05	-9.6487	0.0273	0.1180	-0.0143	-0.0040	-0.0515	35.1175	8.6339	-7.0348	-0.3337	-0.6168	-0.3470	0.6227
8.06	-9.6455	0.0342	0.1246	-0.0227	-0.0021	-0.0546	35.2495	8.6451	-7.1989	-0.3337	-0.6168	-0.3470	0.6227
8.07	-9.6464	0.0383	0.1242	-0.0252	-0.0031	-0.0544	35.4298	8.6097	-6.9971	-0.3337	-0.6168	-0.3470	0.6227
8.08	-9.6396	0.0398	0.1165	-0.0257	-0.0022	-0.0558	35.4089	8.8822	-7.1953	-0.3337	-0.6168	-0.3470	0.6228
8.09	-9.6266	0.0286	0.1178	-0.0402	0.0071	-0.0544	35.2425	8.7081	-7.2068	-0.3337	-0.6168	-0.3470	0.6227
8.1	-9.6245	0.0043	0.1068	-0.0468	0.0015	-0.0564	35.2794	8.6025	-7.0418	-0.3338	-0.6168	-0.3472	0.6227
8.11	-9.6288	-0.0243	0.1037	-0.0473	0.0031	-0.0618	35.4391	8.7348	-7.0283	-0.3338	-0.6167	-0.3472	0.6226
8.12	-9.6339	-0.0596	0.1043	-0.0490	0.0047	-0.0648	35.2680	8.7428	-7.0725	-0.3338	-0.6167	-0.3474	0.6226
8.13	-9.6372	-0.0868	0.1029	-0.0489	0.0044	-0.0618	35.3959	8.6626	-6.9684	-0.3339	-0.6167	-0.3475	0.6225
8.14	-9.6440	-0.1110	0.0914	-0.0468	0.0110	-0.0673	35.4112	8.6407	-6.9463	-0.3339	-0.6166	-0.3476	0.6224
8.15	-9.6536	-0.1328	0.0823	-0.0315	0.0110	-0.0655	35.4127	8.6134	-7.0238	-0.3339	-0.6167	-0.3477	0.6225
8.16	-9.6616	-0.1498	0.0774	-0.0260	-0.0032	-0.0624	35.4046	8.7145	-7.1204	-0.3338	-0.6166	-0.3477	0.6224
8.17	-9.6656	-0.1583	0.0674	-0.0222	0.0005	-0.0702	35.4230	8.8621	-7.2834	-0.3338	-0.6166	-0.3478	0.6225
8.18	-9.6669	-0.1625	0.0748	-0.0231	-0.0072	-0.0678	35.3875	8.7110	-7.1080	-0.3337	-0.6165	-0.3478	0.6225
8.19	-9.6864	-0.1569	0.0656	-0.0216	-0.0032	-0.0715	35.4502	8.7130	-7.3697	-0.3337	-0.6165	-0.3478	0.6226
8.2	-9.6999	-0.1439	0.0617	-0.0083	-0.0067	-0.0693	35.6468	8.6024	-7.1036	-0.3336	-0.6165	-0.3478	0.6226
8.21	-9.7124	-0.1288	0.0728	-0.0002	-0.0174	-0.0639	35.1918	8.7132	-7.2264	-0.3335	-0.6165	-0.3477	0.6227
8.22	-9.7248	-0.1109	0.0813	-0.0007	-0.0221	-0.0664	35.3610	8.7502	-7.1430	-0.3334	-0.6164	-0.3477	0.6229
8.23	-9.7260	-0.0966	0.0872	0.0008	-0.0265	-0.0631	35.2612	8.7999	-7.1029	-0.3334	-0.6163	-0.3475	0.6230
8.24	-9.7123	-0.0807	0.1061	-0.0030	-0.0361	-0.0629	35.2737	8.6823	-7.0079	-0.3334	-0.6163	-0.3474	0.6232
8.25	-9.6956	-0.0743	0.1227	-0.0018	-0.0357	-0.0557	35.3568	8.8314	-7.1437	-0.3334	-0.6161	-0.3472	0.6233
8.26	-9.6798	-0.0697	0.1368	-0.0103	-0.0381	-0.0621	35.1770	8.6995	-7.1414	-0.3334	-0.6161	-0.3471	0.6236
8.27	-9.6603	-0.0723	0.1506	-0.0226	-0.0435	-0.0658	35.3039	8.7372	-7.1161	-0.3335	-0.6159	-0.3471	0.6237
8.28	-9.6400	-0.0831	0.1702	-0.0221	-0.0465	-0.0610	35.3190	8.7147	-7.2132	-0.3335	-0.6157	-0.3470	0.6239
8.29	-9.6146	-0.0964	0.1811	-0.0246	-0.0445	-0.0538	35.3298	8.7347	-7.2430	-0.3336	-0.6156	-0.3469	0.6240
8.3	-9.6050	-0.1120	0.1963	-0.0239	-0.0375	-0.0541	35.4174	8.7106	-7.0757	-0.3336	-0.6155	-0.3469	0.6241
8.31	-9.5859	-0.1241	0.2049	-0.0307	-0.0385	-0.0560	35.2311	8.7559	-7.0296	-0.3337	-0.6154	-0.3468	0.6243
8.32	-9.5591	-0.1344	0.2175	-0.0305	-0.0336	-0.0518	35.2195	8.6124	-7.0539	-0.3338	-0.6152	-0.3468	0.6243
8.33	-9.5538	-0.1393	0.2281	-0.0357	-0.0334	-0.0507	35.3472	8.7746	-7.0235	-0.3339	-0.6151	-0.3468	0.6245
8.34	-9.5550	-0.1483	0.2254	-0.0269	-0.0288	-0.0422	35.4423	8.6421	-7.2390	-0.3340	-0.6150	-0.3467	0.6245
8.35	-9.5522	-0.1523	0.2363	-0.0237	-0.0255	-0.0411	35.3461	8.7218	-7.1306	-0.3341	-0.6150	-0.3467	0.6246
8.36	-9.5495	-0.1400	0.2334	-0.0187	-0.0177	-0.0388	35.2021	8.6214	-7.2419	-0.3341	-0.6149	-0.3465	0.6246
8.37	-9.5548	-0.1398	0.2247	-0.0170	-0.0147	-0.0457	35.5020	8.6790	-7.1853	-0.3341	-0.6149	-0.3465	0.6246
8.38	-9.5541	-0.1289	0.2274	-0.0106	-0.0066	-0.0465	35.8313	8.8846	-6.9508	-0.3341	-0.6149	-0.3464	0.6247
8.39	-9.5627	-0.1206	0.2289	0.0000	-0.0006	-0.0456	35.9462	8.7169	-6.8740	-0.3341	-0.6150	-0.3463	0.6246
8.4	-9.5787	-0.1100	0.2206	0.0030	-0.0018	-0.0442	35.7620	8.6585	-6.8271	-0.3341	-0.6151	-0.3462	0.6248
8.41	-9.5766	-0.1063	0.2102	0.0030	0.0036	-0.0519	35.3798	8.4126	-7.2284	-0.3340	-0.6151	-0.3461	0.6247
8.42	-9.5942	-0.0908	0.1997	0.0028	0.0072	-0.0479	35.0819	8.6451	-7.3325	-0.3339	-0.6152	-0.3461	0.6248
8.43	-9.6255	-0.0652	0.1956	0.0032	0.0145	-0.0505	35.4448	8.6607	-7.3107	-0.3338	-0.6152	-0.3459	0.6247
8.44	-9.6429	-0.0584	0.1884	0.0031	0.0171	-0.0488	35.3727	8.6900	-7.2961	-0.3337	-0.6154	-0.3459	0.6248
8.45	-9.6427	-0.0560	0.1807	-0.0005	0.0255	-0.0471	35.2364	8.7733	-7.1787	-0.3336	-0.6155	-0.3458	0.6247
8.46	-9.6466	-0.0454	0.1751	-0.0047	0.0169	-0.0488	35.2140	8.7501	-7.3048	-0.3335	-0.6156	-0.3458	0.6247
8.47	-9.6591	-0.0263	0.1702	-0.0157	0.0096	-0.0516	35.1205	8.7409	-7.4279	-0.3334	-0.6157	-0.3458	0.6247
8.48	-9.6803	-0.0210	0.1732	-0.0258	0.0104	-0.0541	35.2603	8.7890	-7.2335	-0.3334	-0.6157	-0.3458	0.6246
8.49	-9.7120	-0.0367	0.1650	-0.0221	0.0121	-0.0497	35.1590	8.8629	-7.0511	-0.3334	-0.6158	-0.3458	0.6246
8.5	-9.7375	-0.0663	0.1619	-0.0235	0.0072	-0.0559	35.4298	8.8284	-7.3521	-0.3334	-0.6157	-0.3458	0.6245
8.51	-9.7402	-0.0786	0.1639	-0.0215	-0.0021	-0.0536	35.3475	8.9524	-7.3852	-0.3334	-0.6158	-0.3458	0.6246
8.52	-9.7076	-0.0940	0.1664	-0.0247	-0.0112	-0.0553	35.1817	8.7569	-7.3138	-0.3334	-0.6158	-0.3458	0.6246
8.53	-9.6601	-0.1036	0.1748	-0.0228	-0.0134	-0.0510	35.2230	8.7541	-7.2366	-0.3334	-0.6157	-0.3458	0.6247
8.54	-9.6482	-0.1145	0.1739	-0.0269	-0.0123	-0.0481	35.2287	8.7601	-7.2168	-0.3334	-0.6157	-0.3457	0.6246
8.55	-9.6323	-0.1114	0.1755	-0.0249	-0.0190	-0.0419	35.2929	8.4923	-7.3295	-0.3335	-0.6157	-0.3457	0.6247
8.56	-9.6302	-0.1065	0.1819	-0.0229	-0.0167	-0.0437	35.2006	8.5280	-7.3112	-0.3336	-0.6156	-0.3456	0.6248
8.57	-9.6256	-0.0968	0.1822	-0.0217	-0.0092	-0.0529	35.5332	8.6857	-7.2267	-0.3335	-0.6156	-0.3456	0.6247
8.58	-9.6208	-0.0962	0.1872	-0.0157	-0.0140	-0.0569	35.2417	8.6534	-7.2086	-0.3336	-0.6156	-0.3456	0.6249
8.59	-9.6101	-0.1114	0.1875	-0.0186	-0.0167	-0.0624	35.2174	8.5458	-7.3831	-0.3335	-0.6155	-0.3455	0.6249
8.6	-9.5964	-0.0888	0.1991	-0.0111	-0.0102	-0.0624	35.2033	8.8687	-7.4232	-0.3335	-0.6156	-0.3455	0.6250
8.61	-9.5825	-0.0991	0.1969	-0.0230	-0.0106	-0.0587	35.3141	8.7346	-7.3090	-0.3334	-0.6154	-0.3455	0.6250
8.62	-9.5738	-0.1184	0.2014	-0.0193	-0.0102	-0.0591	35.4121	8.4355	-7.2942	-0.3334	-0.6154	-0.3455	0.6251
8.63	-9.6224	-0.0744	0.1878	-0.0167	-0.0047	-0.0567	35.3827	8.7102	-7.3348	-0.3334	-0.6154	-0.3454	0.6251
8.64	-9.5705	-0.0973	0.1946	-0.0238	-0.0075	-0.0569	35.4161	8.8691	-7.2269	-0.3334	-0.6154	-0.3454	0.6251
8.65	-9.5907	-0.1022	0.2049	-0.0219	-0.0014	-0.0509	35.1837	8.7125	-7.1177	-0.3334	-0.6155	-0.3455	0.6252
8.66	-9.6217	-0.1061	0.1816	-0.0226	0.0006	-0.0542	35.2361	8.6872	-7.2710	-0.3334	-0.6154	-0.3454	0.6251
8.67	-9.6024	-0.1080	0.1907	-0.0230	0.0071	-0.0514	35.1909	8.7835	-7.3689	-0.3334	-0.6155	-0.3454	0.6252
8.68	-9.6134	-0.1008	0.1877	-0.0230	0.0079	-0.0470	35.3179	8.7362	-7.0856	-0.3334	-0.6154	-0.3454	0.6250
8.69	-9.6229	-0.1201	0.1793	-0.0241	0.0126	-0.0493	35.4028	8.7704	-7.1847	-0.3334	-0.6155	-0.3454	0.6250
8.7	-9.6357	-0.1131	0.1767	-0.0246	0.0040	-0.0406	35.0482	8.5611	-7.1656	-0.3334	-0.6156	-0.3454	0.6250
8.71	-9.6420	-0.1089	0.1722	-0.0219	0.0127	-0.0434	35.0828	8.6608	-7.1719	-0.3334	-0.6156	-0.3454	0.6249
8.72	-9.6455	-0.1115	0.1671	-0.0232	0.0060	-0.0398	35.2668	8.6633	-7.3502	-0.3335	-0.6157	-0.3454	0.6249
8.73	-9.6485	-0.1112	0.1672	-0.0207	-0.0030	-0.0358	35.2828	8.6826	-7.1462	-0.3335	-0.6157	-0.3453	0.6249
8.74	-9.6512	-0.1064	0.1641	-0.0193	-0.0017	-0.0406	35.3934	8.6039	-7.3484	-0.3335	-0.6157	-0.3453	0.6249
8.75	-9.6401	-0.1071	0.1583	-0.0165	-0.0033	-0.0489	35.2999	8.5664	-7.5281	-0.3335	-0.6157	-0.3452	0.6248
8.76	-9.6319	-0.0989	0.1522	-0.0113	0.0010	-0.0471	35.3181	8.4741	-7.3414	-0.3335	-0.6158	-0.3452	0.6249
8.77	-9.6040	-0.0858	0.1593	-0.0056	-0.0017	-0.0496	35.5778	8.6765	-7.3187	-0.3334	-0.6158	-0.3451	0.6249
8.78	-9.6349	-0.0715	0.1753	-0.0078	0.0007	-0.0495	35.2978	8.5835	-7.2328	-0.3334	-0.6159	-0.3450	0.6249
8.79	-9.6781	-0.0933	0.1693	-0.0036	-0.0007	-0.0557	35.3057	8.6677	-7.2053	-0.3333	-0.6159	-0.3449	0.6250
8.8	-9.6601	-0.0939	0.1788	-0.0080	-0.0043	-0.0526	35.4261	8.6637	-7.3542	-0.3333	-0.6159	-0.3449	0.6250
8.81	-9.6530	-0.0684	0.1725	-0.0097	-0.0066	-0.0496	35.3467	8.6826	-7.2638	-0.3332	-0.6159	-0.3448	0.6251
8.82	-9.5979	-0.0749	0.1726	-0.0022	-0.0081	-0.0553	35.1896	8.5763	-7.4308	-0.3332	-0.6159	-0.3447	0.6251
8.83	-9.5813	-0.0742	0.1868	-0.0111	-0.0095	-0.0503	35.3436	8.5755	-7.3597	-0.3332	-0.6160	-0.3447	0.6252
8.84	-9.6131	-0.0754	0.1752	-0.0147	0.0005	-0.0512	35.1013	8.8834	-7.1826	-0.3331	-0.6160	-0.3446	0.6252
8.85	-9.6248	-0.0683	0.1794	-0.0204	-0.0005	-0.0500	35.2677	8.9622	-7.2439	-0.3332	-0.6160	-0.3447	0.6252
8.86	-9.6236	-0.0493	0.1742	-0.0104	0.0029	-0.0409	35.4203	8.8249	-7.2154	-0.3331	-0.6160	-0.3445	0.6251
8.87	-9.6313	-0.0403	0.1767	-0.0179	0.0058	-0.0453	35.1525	8.7382	-7.2162	-0.3331	-0.6161	-0.3445	0.6251
8.88	-9.6487	-0.0431	0.1713	-0.0165	0.0028	-0.0440	35.4668	8.7633	-7.2426	-0.3331	-0.6161	-0.3445	0.6251
8.89	-9.6583	-0.0480	0.1608	-0.0165	0.0010	-0.0506	35.4993	8.7483	-7.1133	-0.3331	-0.6161	-0.3444	0.6251
8.9	-9.6563	-0.0449	0.1619	-0.0133	0.0067	-0.0533	35.3552	8.7922	-7.2713	-0.3331	-0.6162	-0.3445	0.6252
8.91	-9.6542	-0.0555	0.1589	-0.0140	0.0007	-0.0523	35.2800	8.7673	-7.2684	-0.3330	-0.6162	-0.3444	0.6251
8.92	-9.6633	-0.0552	0.1570	-0.0161	-0.0018	-0.0572	35.0002	8.6662	-7.4329	-0.3330	-0.6162	-0.3444	0.6252
8.93	-9.6646	-0.0551	0.1584	-0.0172	0.0003	-0.0546	35.4641	8.5142	-7.2946	-0.3330	-0.6161	-0.3444	0.6251
8.94	-9.6619	-0.0609	0.1591	-0.0240	-0.0078	-0.0555	35.4482	8.7180	-7.3600	-0.3330	-0.6162	-0.3444	0.6252
8.95	-9.6639	-0.0658	0.1630	-0.0163	-0.0033	-0.0648	35.1032	8.6591	-7.1881	-0.3330	-0.6161	-0.3444	0.6252
8.96	-9.6566	-0.0749	0.1623	-0.0210	-0.0119	-0.0548	35.4391	8.4140	-6.8564	-0.3330	-0.6161	-0.3444	0.6252
8.97	-9.6475	-0.0780	0.1667	-0.0187	-0.0071	-0.0542	35.2791	8.6871	-7.3007	-0.3330	-0.6161	-0.3444	0.6253
8.98	-9.6407	-0.0822	0.1730	-0.0222	-0.0023	-0.0532	35.2201	8.7363	-7.3172	-0.3330	-0.6161	-0.3444	0.6253
8.99	-9.6398	-0.0891	0.1769	-0.0223	-0.0096	-0.0546	35.4247	8.7212	-7.5454	-0.3330	-0.6161	-0.3444	0.6253
9	-9.6414	-0.0990	0.1775	-0.0224	-0.0151	-0.0491	35.2985	8.7362	-7.3095	-0.3330	-0.6160	-0.3443	0.6253
9.01	-9.6337	-0.1090	0.1815	-0.0216	-0.0142	-0.0453	35.4327	8.7158	-7.2188	-0.3331	-0.6160	-0.3443	0.6254
9.02	-9.6271	-0.1171	0.1793	-0.0220	-0.0112	-0.0495	35.3580	8.6027	-7.3694	-0.3331	-0.6160	-0.3442	0.6254
9.03	-9.6229	-0.1203	0.1812	-0.0215	-0.0114	-0.0506	35.2402	8.7159	-7.2245	-0.3331	-0.6160	-0.3442	0.6254
9.04	-9.6190	-0.1176	0.1894	-0.0214	-0.0094	-0.0488	35.1071	8.8241	-7.2244	-0.3331	-0.6159	-0.3441	0.6254
9.05	-9.6370	-0.1121	0.1924	-0.0160	-0.0080	-0.0546	35.2999	8.9404	-7.3760	-0.3331	-0.6159	-0.3441	0.6255
9.06	-9.6364	-0.1099	0.1941	-0.0145	-0.0011	-0.0539	35.2764	8.8360	-7.2271	-0.3331	-0.6160	-0.3441	0.6255
9.07	-9.6243	-0.0942	0.1992	-0.0028	-0.0048	-0.0531	35.1161	8.8033	-7.3157	-0.3330	-0.6159	-0.3440	0.6255
9.08	-9.6257	-0.0751	0.1967	0.0007	-0.0089	-0.0538	35.2361	8.8249	-7.3262	-0.3329	-0.6160	-0.3439	0.6257
9.09	-9.6232	-0.0642	0.1993	-0.0010	-0.0083	-0.0530	35.3961	8.6569	-7.0081	-0.3329	-0.6160	-0.3438	0.6257
9.1	-9.6149	-0.0660	0.2069	0.0047	-0.0108	-0.0535	35.3372	8.6436	-7.1312	-0.3328	-0.6161	-0.3438	0.6258
9.11	-9.6063	-0.0684	0.2023	-0.0071	-0.0093	-0.0570	35.2949	8.6330	-7.1214	-0.3327	-0.6160	-0.3436	0.6258
9.12	-9.6002	-0.0698	0.2004	-0.0049	-0.0016	-0.0537	35.5543	8.6639	-7.2834	-0.3327	-0.6161	-0.3436	0.6259
9.13	-9.5988	-0.0756	0.2007	-0.0137	-0.0022	-0.0561	35.2316	8.7671	-7.3100	-0.3326	-0.6161	-0.3436	0.6259
9.14	-9.6032	-0.0737	0.2011	-0.0084	-0.0005	-0.0528	35.2765	8.6349	-7.4147	-0.3326	-0.6161	-0.3435	0.6259
9.15	-9.6132	-0.0724	0.2049	-0.0122	0.0011	-0.0546	35.4548	8.6370	-7.2910	-0.3326	-0.6162	-0.3435	0.6260
9.16	-9.6264	-0.0643	0.2050	-0.0236	-0.0020	-0.0467	35.1899	8.7918	-7.5126	-0.3325	-0.6162	-0.3434	0.6259
9.17	-9.6331	-0.0553	0.1995	-0.0202	0.0012	-0.0471	35.3724	8.8266	-7.4243	-0.3325	-0.6163	-0.3434	0.6259
9.18	-9.6309	-0.0508	0.1998	-0.0224	0.0009	-0.0472	35.4129	8.7371	-7.4288	-0.3325	-0.6162	-0.3433	0.6258
9.19	-9.6225	-0.0478	0.2024	-0.0126	-0.0041	-0.0484	35.3005	8.8048	-7.3583	-0.3325	-0.6163	-0.3433	0.6259
9.2	-9.6157	-0.0461	0.1920	-0.0179	-0.0017	-0.0529	35.6209	8.5312	-7.3729	-0.3325	-0.6163	-0.3433	0.6259
9.21	-9.6131	-0.0522	0.1939	-0.0229	0.0076	-0.0543	35.1945	8.6215	-7.3532	-0.3324	-0.6163	-0.3432	0.6259
9.22	-9.6168	-0.0607	0.1937	-0.0194	0.0055	-0.0619	35.2536	8.6692	-7.1202	-0.3324	-0.6164	-0.3433	0.6259
9.23	-9.6236	-0.0662	0.1917	-0.0235	0.0084	-0.0546	35.2938	8.8503	-7.3630	-0.3323	-0.6164	-0.3433	0.6259
9.24	-9.6240	-0.0738	0.1863	-0.0210	0.0123	-0.0516	35.2019	8.8061	-7.1209	-0.3323	-0.6165	-0.3433	0.6259
9.25	-9.6210	-0.0736	0.1913	-0.0216	0.0097	-0.0543	35.2215	8.8202	-7.1265	-0.3323	-0.6165	-0.3433	0.6258
9.26	-9.6345	-0.0691	0.1864	-0.0250	0.0100	-0.0521	35.3494	8.7197	-7.2828	-0.3323	-0.6166	-0.3433	0.6258
9.27	-9.6397	-0.0672	0.1840	-0.0252	0.0142	-0.0507	35.4027	8.8686	-7.2723	-0.3322	-0.6166	-0.3433	0.6257
9.28	-9.6481	-0.0654	0.1813	-0.0222	0.0018	-0.0510	35.1879	8.7253	-6.9833	-0.3322	-0.6167	-0.3433	0.6257
9.29	-9.6553	-0.0701	0.1816	-0.0253	-0.0021	-0.0523	35.3413	8.7308	-7.1772	-0.3322	-0.6166	-0.3433	0.6257
9.3	-9.6626	-0.0733	0.1797	-0.0232	0.0035	-0.0551	35.2865	8.7272	-7.3499	-0.3322	-0.6167	-0.3433	0.6257
9.31	-9.6524	-0.0739	0.1797	-0.0250	-0.0005	-0.0535	35.5753	8.7309	-7.0924	-0.3322	-0.6167	-0.3433	0.6257
9.32	-9.6472	-0.0797	0.1745	-0.0235	0.0028	-0.0581	35.5042	8.7437	-7.3092	-0.3322	-0.6167	-0.3433	0.6256
9.33	-9.6439	-0.0922	0.1738	-0.0226	-0.0033	-0.0578	35.3847	8.5094	-7.4362	-0.3322	-0.6168	-0.3433	0.6257
9.34	-9.6387	-0.1011	0.1729	-0.0222	0.0001	-0.0603	35.3881	8.7467	-7.3783	-0.3321	-0.6167	-0.3433	0.6257
9.35	-9.6369	-0.1082	0.1702	-0.0212	0.0023	-0.0603	35.2178	8.6342	-7.2226	-0.3321	-0.6168	-0.3434	0.6257
9.36	-9.6277	-0.1054	0.1691	-0.0222	0.0005	-0.0566	35.2213	8.8106	-7.2359	-0.3320	-0.6167	-0.3433	0.6257
9.37	-9.6301	-0.1050	0.1733	-0.0183	0.0008	-0.0607	35.2380	8.9550	-7.2181	-0.3320	-0.6168	-0.3433	0.6257
9.38	-9.6416	-0.1029	0.1769	-0.0212	-0.0008	-0.0539	35.7715	9.0010	-7.0684	-0.3320	-0.6168	-0.3433	0.6257
9.39	-9.6463	-0.0929	0.1799	-0.0237	-0.0007	-0.0580	35.9814	8.6891	-7.0065	-0.3319	-0.6167	-0.3433	0.6257
9.4	-9.6472	-0.0750	0.1795	-0.0216	-0.0075	-0.0546	35.6523	8.9611	-7.1828	-0.3320	-0.6168	-0.3433	0.6258
9.41	-9.6497	-0.0645	0.1863	-0.0177	-0.0014	-0.0607	35.2889	8.8262	-7.2437	-0.3319	-0.6167	-0.3433	0.6257
9.42	-9.6448	-0.0579	0.1885	-0.0130	-0.0029	-0.0546	34.9546	8.7701	-7.2166	-0.3320	-0.6168	-0.3434	0.6258
9.43	-9.6499	-0.0542	0.1887	-0.0201	-0.0016	-0.0622	35.2478	8.8656	-7.2326	-0.3319	-0.6167	-0.3433	0.6257
9.44	-9.6337	-0.0685	0.1819	-0.0235	-0.0010	-0.0602	35.2338	8.6973	-7.1108	-0.3319	-0.6168	-0.3434	0.6258
9.45	-9.6135	-0.0785	0.1866	-0.0224	-0.0015	-0.0607	35.3673	8.8049	-7.2957	-0.3318	-0.6167	-0.3434	0.6258
9.46	-9.6165	-0.0782	0.1787	-0.0230	0.0023	-0.0594	35.2003	8.8705	-7.0886	-0.3318	-0.6167	-0.3434	0.6258
9.47	-9.6065	-0.0780	0.1830	-0.0228	-0.0027	-0.0593	35.3490	8.6127	-7.2753	-0.3318	-0.6168	-0.3434	0.6258
9.48	-9.6134	-0.1014	0.1904	-0.0217	-0.0023	-0.0576	35.2636	8.5732	-7.2656	-0.3317	-0.6168	-0.3434	0.6258
9.49	-9.6277	-0.1174	0.1854	-0.0234	-0.0055	-0.0593	35.4539	8.5246	-7.2461	-0.3317	-0.6168	-0.3434	0.6259
9.5	-9.6143	-0.1113	0.1974	-0.0230	-0.0061	-0.0570	35.5077	8.3818	-7.4262	-0.3316	-0.6167	-0.3433	0.6258
9.51	-9.6441	-0.1114	0.1964	-0.0239	-0.0025	-0.0545	35.3800	8.3916	-7.1675	-0.3317	-0.6168	-0.3434	0.6259
9.52	-9.6620	-0.1215	0.1937	-0.0229	0.0006	-0.0553	35.5572	8.4235	-7.0661	-0.3316	-0.6168	-0.3433	0.6259
9.53	-9.6587	-0.1155	0.2000	-0.0198	0.0003	-0.0555	35.3507	8.5787	-7.3025	-0.3316	-0.6168	-0.3433	0.6259
9.54	-9.6521	-0.1088	0.1996	-0.0151	-0.0035	-0.0520	35.0877	8.5551	-7.3035	-0.3316	-0.6168	-0.3433	0.6259
9.55	-9.6391	-0.1054	0.2019	-0.0183	-0.0053	-0.0515	35.3201	8.8396	-7.2275	-0.3316	-0.6168	-0.3433	0.6259
9.56	-9.6110	-0.0982	0.2048	-0.0173	-0.0036	-0.0505	35.6432	8.7635	-7.3502	-0.3316	-0.6168	-0.3432	0.6259
9.57	-9.5749	-0.0905	0.2033	-0.0169	-0.0047	-0.0472	35.3956	8.4272	-7.2857	-0.3315	-0.6168	-0.3431	0.6259
9.58	-9.5682	-0.0860	0.2017	-0.0171	0.0001	-0.0496	35.2976	8.6362	-7.3229	-0.3315	-0.6169	-0.3431	0.6260
9.59	-9.5737	-0.0884	0.1952	-0.0203	0.0144	-0.0554	35.1764	8.6198	-7.1550	-0.3315	-0.6169	-0.3431	0.6259
9.6	-9.5850	-0.0838	0.1899	-0.0211	0.0186	-0.0524	35.3363	8.8095	-7.3420	-0.3314	-0.6171	-0.3432	0.6259
9.61	-9.5922	-0.0918	0.1845	-0.0163	0.0173	-0.0498	35.1972	8.8404	-7.2070	-0.3314	-0.6171	-0.3431	0.6258
9.62	-9.6039	-0.1029	0.1737	-0.0164	0.0257	-0.0525	35.3908	8.7337	-7.0020	-0.3313	-0.6172	-0.3431	0.6257
9.63	-9.6082	-0.1009	0.1682	-0.0160	0.0206	-0.0518	35.1524	8.7099	-7.2390	-0.3313	-0.6173	-0.3432	0.6257
9.64	-9.6092	-0.0941	0.1592	-0.0196	0.0208	-0.0530	35.2700	8.6090	-7.1927	-0.3312	-0.6173	-0.3432	0.6256
9.65	-9.6085	-0.0782	0.1534	-0.0160	0.0225	-0.0488	35.4440	8.8938	-7.3586	-0.3312	-0.6175	-0.3432	0.6256
9.66	-9.6073	-0.0697	0.1525	-0.0066	0.0259	-0.0502	35.3920	8.7691	-7.2562	-0.3311	-0.6176	-0.3431	0.6255
9.67	-9.6014	-0.0595	0.1478	-0.0024	0.0202	-0.0530	35.3885	8.5071	-7.2110	-0.3310	-0.6177	-0.3431	0.6255
9.68	-9.6014	-0.0536	0.1448	-0.0069	0.0178	-0.0524	35.5696	8.3775	-7.2007	-0.3308	-0.6178	-0.3430	0.6254
9.69	-9.6170	-0.0549	0.1329	-0.0166	0.0300	-0.0566	35.7125	8.5233	-7.2435	-0.3308	-0.6179	-0.3431	0.6254
9.7	-9.6355	-0.0537	0.1258	-0.0222	0.0299	-0.0528	35.4349	8.6031	-7.3229	-0.3307	-0.6180	-0.3431	0.6253
9.71	-9.6591	-0.0548	0.1208	-0.0226	0.0339	-0.0547	35.3893	8.4822	-7.3202	-0.3306	-0.6181	-0.3431	0.6252
9.72	-9.6753	-0.0598	0.1110	-0.0212	0.0310	-0.0538	35.4059	8.4787	-7.1847	-0.3305	-0.6183	-0.3432	0.6251
9.73	-9.6891	-0.0627	0.0989	-0.0230	0.0224	-0.0540	35.4067	8.6194	-7.1357	-0.3305	-0.6184	-0.3432	0.6250
9.74	-9.6864	-0.0645	0.0946	-0.0226	0.0222	-0.0535	35.3856	8.4825	-7.2672	-0.3304	-0.6185	-0.3432	0.6250
9.75	-9.6777	-0.0614	0.0887	-0.0234	0.0175	-0.0522	35.4952	8.5480	-7.0950	-0.3303	-0.6185	-0.3432	0.6249
9.76	-9.6693	-0.0590	0.0871	-0.0233	0.0122	-0.0483	35.4872	8.8129	-7.2605	-0.3303	-0.6186	-0.3432	0.6249
9.77	-9.6596	-0.0682	0.0817	-0.0236	0.0076	-0.0525	35.1920	8.8291	-7.1914	-0.3303	-0.6186	-0.3432	0.6248
9.78	-9.6539	-0.0731	0.0781	-0.0228	0.0141	-0.0612	35.3190	8.8433	-7.2802	-0.3303	-0.6187	-0.3432	0.6248
9.79	-9.6359	-0.0772	0.0787	-0.0228	0.0099	-0.0578	35.3087	8.8240	-6.9716	-0.3302	-0.6187	-0.3432	0.6248
9.8	-9.6517	-0.0723	0.0923	-0.0172	0.0012	-0.0595	35.2058	8.6083	-7.1325	-0.3302	-0.6187	-0.3432	0.6248
9.81	-9.7084	-0.0918	0.0923	-0.0225	0.0093	-0.0681	35.2305	8.7137	-7.2064	-0.3301	-0.6188	-0.3433	0.6248
9.82	-9.6999	-0.1150	0.0931	-0.0207	-0.0055	-0.0686	35.2222	8.8394	-7.0221	-0.3300	-0.6187	-0.3433	0.6248
9.83	-9.6906	-0.0946	0.1063	-0.0177	-0.0111	-0.0684	35.3259	8.9282	-7.0303	-0.3300	-0.6187	-0.3433	0.6249
9.84	-9.6493	-0.0967	0.1058	-0.0020	-0.0120	-0.0687	35.1733	8.7930	-6.9420	-0.3299	-0.6187	-0.3432	0.6250
9.85	-9.6081	-0.1010	0.1283	-0.0119	-0.0120	-0.0647	35.0806	8.8813	-7.1537	-0.3299	-0.6187	-0.3433	0.6251
9.86	-9.6365	-0.0940	0.1243	-0.0158	-0.0051	-0.0604	35.4462	8.6231	-7.1186	-0.3298	-0.6186	-0.3432	0.6251
9.87	-9.6512	-0.1053	0.1229	-0.0211	-0.0083	-0.0551	35.4740	8.6952	-7.1275	-0.3298	-0.6186	-0.3432	0.6251
9.88	-9.6268	-0.0953	0.1301	-0.0225	-0.0040	-0.0585	35.7918	8.7691	-6.9266	-0.3298	-0.6186	-0.3432	0.6252
9.89	-9.6223	-0.0879	0.1302	-0.0220	-0.0077	-0.0545	36.1326	8.7529	-6.7005	-0.3297	-0.6185	-0.3432	0.6251
9.9	-9.6288	-0.1191	0.1319	-0.0229	-0.0055	-0.0529	35.5840	8.6718	-7.0033	-0.3298	-0.6186	-0.3432	0.6252
9.91	-9.6348	-0.1344	0.1322	-0.0223	-0.0055	-0.0552	35.3063	8.6948	-7.1512	-0.3297	-0.6186	-0.3431	0.6252
9.92	-9.6325	-0.1336	0.1289	-0.0229	-0.0015	-0.0537	34.9780	8.7718	-7.3259	-0.3298	-0.6186	-0.3432	0.6252
9.93	-9.6428	-0.1447	0.1326	-0.0220	-0.0005	-0.0546	35.2822	8.9220	-7.1962	-0.3297	-0.6185	-0.3431	0.6252
9.94	-9.6414	-0.1483	0.1311	-0.0210	0.0025	-0.0487	35.3144	8.6470	-7.2649	-0.3297	-0.6186	-0.3431	0.6252
9.95	-9.6379	-0.1457	0.1355	-0.0154	0.0007	-0.0494	35.2533	8.8270	-7.2511	-0.3297	-0.6186	-0.3431	0.6252
9.96	-9.6369	-0.1306	0.1408	-0.0214	-0.0006	-0.0476	35.4000	8.6981	-7.2794	-0.3297	-0.6187	-0.3430	0.6252
9.97	-9.6338	-0.1226	0.1387	-0.0082	0.0025	-0.0468	35.0918	8.9467	-7.3147	-0.3297	-0.6187	-0.3430	0.6252
9.98	-9.6370	-0.1125	0.1383	-0.0050	-0.0011	-0.0498	35.0870	8.8130	-7.2010	-0.3296	-0.6187	-0.3429	0.6252
9.99	-9.6328	-0.0995	0.1389	-0.0114	-0.0041	-0.0480	35.2353	8.9297	-7.1974	-0.3296	-0.6188	-0.3428	0.6253
10	-9.6390	-0.0853	0.1447	0.0015	0.0040	-0.0446	35.2546	8.9569	-7.3431	-0.3295	-0.6188	-0.3427	0.6252
10.01	-9.6426	-0.0831	0.1520	-0.0072	-0.0022	-0.0469	35.3289	8.5219	-7.2356	-0.3295	-0.6189	-0.3426	0.6253
10.02	-9.6505	-0.0930	0.1535	-0.0101	0.0022	-0.0501	35.3754	8.9240	-6.9764	-0.3295	-0.6189	-0.3426	0.6253
10.03	-9.6529	-0.0929	0.1547	-0.0098	-0.0076	-0.0466	35.4660	8.7519	-7.3271	-0.3295	-0.6190	-0.3425	0.6253
10.04	-9.6490	-0.0974	0.1570	-0.0034	-0.0088	-0.0393	35.2086	8.6177	-7.3067	-0.3294	-0.6190	-0.3423	0.6254
10.05	-9.6410	-0.1053	0.1556	-0.0069	-0.0078	-0.0362	35.3897	8.7461	-7.2811	-0.3294	-0.6191	-0.3422	0.6254
10.06	-9.6304	-0.1031	0.1580	0.0020	-0.0092	-0.0428	35.4484	8.5240	-7.3828	-0.3294	-0.6191	-0.3421	0.6255
10.07	-9.6281	-0.1043	0.1634	0.0040	-0.0009	-0.0430	35.3247	8.6223	-7.3214	-0.3293	-0.6191	-0.3419	0.6255
10.08	-9.6177	-0.0925	0.1631	0.0036	-0.0023	-0.0433	35.3390	8.7585	-7.1921	-0.3293	-0.6193	-0.3418	0.6256
10.09	-9.6130	-0.0833	0.1596	0.0050	-0.0022	-0.0466	35.4713	8.6673	-7.3665	-0.3292	-0.6193	-0.3417	0.6256
10.1	-9.6158	-0.0709	0.1629	0.0058	0.0005	-0.0456	35.3308	8.6261	-7.1948	-0.3291	-0.6194	-0.3416	0.6257
10.11	-9.6141	-0.0616	0.1651	0.0052	0.0001	-0.0539	35.3407	8.6302	-7.3060	-0.3290	-0.6194	-0.3414	0.6256
10.12	-9.6132	-0.0506	0.1708	0.0036	-0.0024	-0.0525	35.3088	8.6515	-7.4345	-0.3289	-0.6195	-0.3413	0.6257
10.13	-9.6177	-0.0471	0.1656	-0.0002	-0.0003	-0.0553	35.4027	8.7616	-7.3351	-0.3288	-0.6196	-0.3412	0.6258
10.14	-9.6222	-0.0510	0.1635	-0.0008	-0.0020	-0.0546	35.3759	8.6309	-7.2754	-0.3287	-0.6196	-0.3411	0.6258
10.15	-9.6328	-0.0564	0.1698	-0.0120	-0.0004	-0.0565	35.0961	8.6238	-7.4339	-0.3287	-0.6197	-0.3411	0.6259
10.16	-9.6321	-0.0541	0.1628	-0.0191	0.0002	-0.0528	35.2091	8.7892	-7.3562	-0.3286	-0.6197	-0.3411	0.6259
10.17	-9.6225	-0.0600	0.1648	-0.0203	0.0043	-0.0512	35.0448	8.5635	-7.2469	-0.3286	-0.6197	-0.3411	0.6259
10.18	-9.6088	-0.0672	0.1613	-0.0191	0.0007	-0.0511	35.1698	8.5342	-7.0715	-0.3286	-0.6196	-0.3411	0.6258
10.19	-9.6037	-0.0737	0.1558	-0.0222	0.0078	-0.0441	35.2331	8.7628	-7.4247	-0.3286	-0.6198	-0.3411	0.6258
10.2	-9.6121	-0.0744	0.1528	-0.0219	0.0192	-0.0396	35.1338	8.7033	-7.4485	-0.3286	-0.6198	-0.3410	0.6257
10.21	-9.6256	-0.0821	0.1429	-0.0225	0.0142	-0.0505	35.1526	8.7253	-7.0899	-0.3286	-0.6199	-0.3410	0.6256
10.22	-9.6309	-0.0858	0.1445	-0.0232	0.0117	-0.0465	35.1741	8.7264	-7.1328	-0.3286	-0.6200	-0.3410	0.6256
10.23	-9.6431	-0.0938	0.1383	-0.0216	0.0089	-0.0428	35.2399	8.8308	-7.2638	-0.3286	-0.6200	-0.3410	0.6255
10.24	-9.6511	-0.1003	0.1347	-0.0212	0.0102	-0.0448	35.3143	8.5781	-7.3362	-0.3286	-0.6201	-0.3410	0.6255
10.25	-9.6514	-0.1015	0.1353	-0.0204	0.0161	-0.0479	35.3192	8.4384	-7.1894	-0.3286	-0.6201	-0.3409	0.6254
10.26	-9.6574	-0.1029	0.1241	-0.0195	0.0100	-0.0516	35.3730	8.5819	-7.3314	-0.3286	-0.6202	-0.3409	0.6255
10.27	-9.6581	-0.0939	0.1285	-0.0077	0.0083	-0.0495	35.5418	8.5068	-7.2705	-0.3285	-0.6203	-0.3409	0.6254
10.28	-9.6621	-0.0911	0.1272	-0.0024	0.0110	-0.0546	35.2382	8.6542	-7.3887	-0.3284	-0.6204	-0.3408	0.6255
10.29	-9.6665	-0.0892	0.1232	0.0022	0.0012	-0.0526	35.2207	8.5064	-7.4004	-0.3283	-0.6204	-0.3407	0.6255
10.3	-9.6658	-0.0829	0.1205	-0.0014	0.0005	-0.0558	35.4205	8.7377	-7.3899	-0.3282	-0.6205	-0.3406	0.6255
10.31	-9.6686	-0.0712	0.1258	-0.0049	0.0007	-0.0536	35.3441	8.7944	-7.2013	-0.3281	-0.6205	-0.3406	0.6256
10.32	-9.6692	-0.0652	0.1341	-0.0060	0.0011	-0.0539	35.4187	8.6083	-7.3015	-0.3280	-0.6205	-0.3405	0.6255
10.33	-9.6747	-0.0606	0.1398	-0.0017	0.0019	-0.0530	35.4011	8.7360	-7.3034	-0.3280	-0.6207	-0.3404	0.6256
10.34	-9.6663	-0.0655	0.1397	-0.0181	-0.0068	-0.0597	35.2035	8.7471	-7.3149	-0.3279	-0.6206	-0.3404	0.6256
10.35	-9.6600	-0.0758	0.1421	-0.0215	-0.0097	-0.0580	35.4837	8.8559	-7.0066	-0.3279	-0.6207	-0.3404	0.6257
10.36	-9.6532	-0.0808	0.1447	-0.0214	-0.0103	-0.0560	35.2897	8.6910	-7.2275	-0.3279	-0.6206	-0.3403	0.6257
10.37	-9.6379	-0.0941	0.1554	-0.0205	-0.0123	-0.0544	35.2652	8.8638	-7.4410	-0.3279	-0.6206	-0.3403	0.6258
10.38	-9.6222	-0.1030	0.1645	-0.0209	-0.0120	-0.0546	35.5496	8.7159	-6.9882	-0.3279	-0.6205	-0.3403	0.6258
10.39	-9.6129	-0.1061	0.1632	-0.0183	-0.0113	-0.0548	35.4101	8.5042	-6.8102	-0.3279	-0.6205	-0.3402	0.6258
10.4	-9.6103	-0.1086	0.1646	-0.0205	-0.0065	-0.0516	35.4285	8.7211	-7.0662	-0.3279	-0.6206	-0.3402	0.6259
10.41	-9.6017	-0.1065	0.1662	-0.0219	-0.0111	-0.0399	35.2937	8.8957	-7.2103	-0.3279	-0.6205	-0.3401	0.6259
10.42	-9.5985	-0.0985	0.1651	-0.0154	-0.0077	-0.0411	35.0444	8.7001	-7.2453	-0.3280	-0.6206	-0.3401	0.6259
10.43	-9.5964	-0.0986	0.1653	-0.0166	-0.0072	-0.0434	35.5337	8.4295	-7.2252	-0.3280	-0.6205	-0.3400	0.6259
10.44	-9.6005	-0.0979	0.1721	-0.0129	-0.0044	-0.0447	35.3884	8.6460	-7.3541	-0.3280	-0.6206	-0.3399	0.6260
10.45	-9.6036	-0.0959	0.1732	-0.0054	0.0015	-0.0413	35.4502	8.4104	-7.2984	-0.3279	-0.6206	-0.3398	0.6259
10.46	-9.6104	-0.0880	0.1686	0.0013	0.0004	-0.0333	35.6190	8.5142	-7.3576	-0.3279	-0.6207	-0.3396	0.6259
10.47	-9.6208	-0.0890	0.1671	0.0027	-0.0005	-0.0437	35.3105	8.6984	-7.1837	-0.3278	-0.6208	-0.3395	0.6260
10.48	-9.6193	-0.0896	0.1582	0.0081	0.0056	-0.0422	35.2869	8.3608	-7.3137	-0.3277	-0.6209	-0.3394	0.6260
10.49	-9.6353	-0.0711	0.1529	0.0051	0.0036	-0.0385	35.2639	8.6625	-7.2245	-0.3277	-0.6210	-0.3392	0.6261
10.5	-9.6506	-0.0499	0.1526	0.0058	0.0006	-0.0409	35.3671	8.5677	-6.9972	-0.3276	-0.6210	-0.3391	0.6260
10.51	-9.6389	-0.0508	0.1509	0.0047	0.0033	-0.0498	35.4833	8.4640	-7.4102	-0.3275	-0.6212	-0.3390	0.6261
10.52	-9.6392	-0.0481	0.1543	0.0065	0.0028	-0.0427	35.2782	8.6317	-7.2498	-0.3274	-0.6212	-0.3388	0.6261
10.53	-9.6542	-0.0417	0.1459	-0.0015	0.0029	-0.0535	35.3007	8.7142	-7.2258	-0.3274	-0.6213	-0.3388	0.6262
10.54	-9.6485	-0.0284	0.1532	0.0018	0.0018	-0.0478	35.2541	8.8585	-7.2616	-0.3273	-0.6214	-0.3387	0.6262
10.55	-9.6741	-0.0209	0.1612	0.0029	0.0053	-0.0543	35.2158	8.6707	-7.0666	-0.3272	-0.6214	-0.3386	0.6262
10.56	-9.7157	-0.0394	0.1518	-0.0060	0.0009	-0.0545	35.2989	8.6688	-7.3100	-0.3271	-0.6215	-0.3385	0.6262
10.57	-9.7146	-0.0529	0.1608	0.0006	-0.0001	-0.0529	35.2854	8.5474	-7.2437	-0.3270	-0.6215	-0.3384	0.6262
10.58	-9.6864	-0.0546	0.1682	-0.0038	-0.0128	-0.0548	35.2552	8.7896	-7.2451	-0.3270	-0.6216	-0.3384	0.6264
10.59	-9.6432	-0.0628	0.1711	-0.0079	-0.0155	-0.0501	35.2144	8.6766	-7.3558	-0.3269	-0.6215	-0.3382	0.6264
10.6	-9.6027	-0.0686	0.1766	-0.0074	-0.0142	-0.0478	35.3142	8.6597	-7.3207	-0.3270	-0.6216	-0.3382	0.6265
10.61	-9.5893	-0.0636	0.1810	-0.0172	-0.0118	-0.0478	35.2617	8.5496	-7.3186	-0.3269	-0.6215	-0.3380	0.6265
10.62	-9.5998	-0.0606	0.1884	-0.0215	-0.0112	-0.0455	35.4118	8.5902	-7.3511	-0.3270	-0.6215	-0.3380	0.6265
10.63	-9.6094	-0.0584	0.1848	-0.0189	-0.0077	-0.0521	35.5020	8.3062	-7.2408	-0.3269	-0.6215	-0.3379	0.6266
10.64	-9.6114	-0.0576	0.1832	-0.0204	-0.0012	-0.0509	35.3388	8.4372	-7.2873	-0.3269	-0.6215	-0.3379	0.6266
10.65	-9.6079	-0.0630	0.1828	-0.0115	-0.0006	-0.0553	35.4235	8.6916	-7.5549	-0.3269	-0.6216	-0.3379	0.6267
10.66	-9.6122	-0.0691	0.1781	-0.0212	0.0002	-0.0529	35.3986	8.6502	-7.3450	-0.3268	-0.6216	-0.3378	0.6266
10.67	-9.6135	-0.0714	0.1777	-0.0222	0.0003	-0.0613	35.2268	8.5951	-7.3037	-0.3268	-0.6216	-0.3379	0.6267
10.68	-9.6080	-0.0747	0.1749	-0.0194	-0.0033	-0.0536	35.3849	8.5502	-7.4333	-0.3268	-0.6216	-0.3378	0.6266
10.69	-9.5998	-0.0816	0.1787	-0.0235	-0.0073	-0.0542	35.3813	8.4580	-7.3930	-0.3268	-0.6216	-0.3378	0.6267
10.7	-9.6017	-0.0907	0.1728	-0.0220	-0.0027	-0.0541	35.3151	8.6775	-7.2831	-0.3268	-0.6216	-0.3378	0.6267
10.71	-9.6049	-0.0967	0.1710	-0.0198	0.0002	-0.0524	35.2815	8.5382	-7.1139	-0.3267	-0.6216	-0.3377	0.6267
10.72	-9.6041	-0.0958	0.1688	-0.0213	0.0006	-0.0499	35.1741	8.7909	-7.2788	-0.3267	-0.6217	-0.3377	0.6267
10.73	-9.6081	-0.0885	0.1687	-0.0200	0.0030	-0.0460	35.1054	8.7876	-7.3150	-0.3268	-0.6217	-0.3377	0.6267
10.74	-9.6267	-0.0823	0.1729	-0.0132	0.0087	-0.0456	35.2541	8.7745	-7.4259	-0.3267	-0.6218	-0.3377	0.6267
10.75	-9.6399	-0.0768	0.1644	-0.0087	0.0109	-0.0504	35.0671	8.8599	-7.2715	-0.3267	-0.6217	-0.3376	0.6266
10.76	-9.6494	-0.0721	0.1622	-0.0187	0.0088	-0.0467	35.1420	8.7011	-6.8735	-0.3267	-0.6218	-0.3377	0.6266
10.77	-9.6582	-0.0657	0.1593	-0.0203	0.0118	-0.0461	35.3599	8.7850	-7.2144	-0.3267	-0.6219	-0.3376	0.6265
10.78	-9.6645	-0.0628	0.1569	-0.0138	0.0040	-0.0527	35.1178	8.8908	-7.2479	-0.3267	-0.6219	-0.3376	0.6265
10.79	-9.6612	-0.0574	0.1568	-0.0072	-0.0050	-0.0530	35.0713	8.4967	-7.2335	-0.3267	-0.6219	-0.3376	0.6265
10.8	-9.6628	-0.0502	0.1624	-0.0146	0.0016	-0.0482	35.5309	8.5233	-7.2278	-0.3267	-0.6220	-0.3375	0.6265
10.81	-9.6578	-0.0584	0.1530	-0.0197	-0.0039	-0.0512	35.4899	8.5269	-7.4511	-0.3267	-0.6220	-0.3375	0.6265
10.82	-9.6479	-0.0577	0.1508	-0.0117	-0.0009	-0.0545	35.4457	8.4549	-7.2286	-0.3266	-0.6220	-0.3374	0.6265
10.83	-9.6430	-0.0611	0.1510	-0.0124	0.0019	-0.0526	35.5538	8.4854	-7.2345	-0.3266	-0.6221	-0.3374	0.6266
10.84	-9.6128	-0.0629	0.1562	-0.0158	0.0000	-0.0573	35.5823	8.5003	-7.2045	-0.3265	-0.6221	-0.3374	0.6266
10.85	-9.6376	-0.0522	0.1740	-0.0192	-0.0012	-0.0560	35.4120	8.6212	-7.3570	-0.3265	-0.6221	-0.3374	0.6267
10.86	-9.6733	-0.0740	0.1673	-0.0175	-0.0049	-0.0588	35.2636	8.4224	-7.5719	-0.3264	-0.6220	-0.3373	0.6266
10.87	-9.6562	-0.0813	0.1788	-0.0161	-0.0115	-0.0568	35.3832	8.5492	-7.0608	-0.3264	-0.6221	-0.3373	0.6267
10.88	-9.6497	-0.0628	0.1843	-0.0192	-0.0040	-0.0589	35.6181	8.8803	-6.9374	-0.3264	-0.6220	-0.3373	0.6267
10.89	-9.5963	-0.0777	0.1906	-0.0204	-0.0132	-0.0578	35.8800	8.7345	-6.9516	-0.3263	-0.6220	-0.3372	0.6267
10.9	-9.5957	-0.0830	0.2044	-0.0204	-0.0037	-0.0522	35.5809	8.7800	-7.1286	-0.3264	-0.6221	-0.3373	0.6268
10.91	-9.6286	-0.0806	0.1885	-0.0196	0.0003	-0.0551	35.3148	8.7683	-7.0948	-0.3263	-0.6220	-0.3372	0.6268
10.92	-9.6237	-0.0799	0.1990	-0.0184	-0.0098	-0.0458	35.1988	8.6738	-7.1916	-0.3264	-0.6221	-0.3372	0.6269
10.93	-9.6081	-0.0613	0.2049	-0.0224	0.0016	-0.0491	35.1689	8.5407	-7.2230	-0.3264	-0.6220	-0.3371	0.6268
10.94	-9.6119	-0.0551	0.2027	-0.0217	0.0006	-0.0506	35.0264	8.6984	-7.2018	-0.3264	-0.6220	-0.3372	0.6268
10.95	-9.6185	-0.0689	0.1967	-0.0229	0.0033	-0.0537	35.2915	8.5814	-7.0275	-0.3264	-0.6220	-0.3372	0.6267
10.96	-9.6173	-0.0721	0.1929	-0.0176	0.0036	-0.0567	35.3562	8.6148	-7.0819	-0.3264	-0.6220	-0.3372	0.6267
10.97	-9.6217	-0.0747	0.1962	-0.0175	0.0060	-0.0536	35.2235	8.7864	-7.2437	-0.3264	-0.6221	-0.3372	0.6268
10.98	-9.6247	-0.0747	0.1891	-0.0183	0.0084	-0.0543	35.2478	8.6853	-7.3224	-0.3263	-0.6221	-0.3372	0.6267
10.99	-9.6181	-0.0672	0.1865	-0.0101	0.0027	-0.0531	35.2626	8.6479	-7.2739	-0.3263	-0.6222	-0.3371	0.6268
11	-9.6113	-0.0584	0.1875	-0.0192	-0.0021	-0.0544	35.5344	8.6523	-7.4113	-0.3262	-0.6221	-0.3371	0.6267
11.01	-9.6186	-0.0572	0.1791	-0.0151	0.0002	-0.0542	35.5933	8.5631	-7.2529	-0.3262	-0.6222	-0.3371	0.6268
11.02	-9.6149	-0.0546	0.1795	-0.0222	0.0022	-0.0541	35.4631	8.5451	-7.3718	-0.3262	-0.6222	-0.3370	0.6268
11.03	-9.6268	-0.0489	0.1777	-0.0189	0.0014	-0.0528	35.3151	8.6511	-7.3423	-0.3261	-0.6223	-0.3370	0.6268
11.04	-9.6316	-0.0514	0.1793	-0.0183	0.0000	-0.0548	35.4398	8.6453	-7.1814	-0.3261	-0.6223	-0.3370	0.6268
11.05	-9.6343	-0.0568	0.1767	-0.0228	0.0070	-0.0517	35.5149	8.5688	-7.0868	-0.3261	-0.6223	-0.3370	0.6268
11.06	-9.6502	-0.0686	0.1748	-0.0226	0.0002	-0.0450	35.5393	8.7076	-7.1770	-0.3261	-0.6224	-0.3369	0.6268
11.07	-9.6591	-0.0847	0.1707	-0.0215	-0.0007	-0.0472	35.3302	8.5424	-7.2362	-0.3261	-0.6223	-0.3369	0.6267
11.08	-9.6612	-0.0968	0.1708	-0.0225	0.0021	-0.0513	35.3335	8.6817	-7.0697	-0.3261	-0.6224	-0.3369	0.6268
11.09	-9.6570	-0.1094	0.1643	-0.0169	0.0057	-0.0495	35.4643	8.6342	-7.3359	-0.3261	-0.6224	-0.3368	0.6267
11.1	-9.6562	-0.1145	0.1623	-0.0091	0.0006	-0.0528	35.3517	8.7101	-7.1469	-0.3260	-0.6225	-0.3368	0.6268
11.11	-9.6547	-0.1020	0.1646	-0.0074	0.0012	-0.0514	35.2227	8.8600	-7.0999	-0.3260	-0.6225	-0.3367	0.6267
11.12	-9.6512	-0.0867	0.1735	0.0043	0.0013	-0.0537	35.3814	8.7906	-7.3766	-0.3259	-0.6226	-0.3366	0.6268
11.13	-9.6471	-0.0753	0.1648	0.0055	-0.0009	-0.0582	35.2632	8.7287	-7.2192	-0.3258	-0.6226	-0.3366	0.6269
11.14	-9.6530	-0.0588	0.1701	0.0053	0.0023	-0.0591	35.5534	8.7430	-7.2101	-0.3256	-0.6226	-0.3365	0.6269
11.15	-9.6539	-0.0438	0.1732	0.0010	-0.0012	-0.0614	35.2506	8.7506	-7.1159	-0.3256	-0.6228	-0.3364	0.6270
11.16	-9.6522	-0.0317	0.1810	0.0034	-0.0027	-0.0645	35.4828	8.8634	-6.9622	-0.3254	-0.6227	-0.3364	0.6270
11.17	-9.6403	-0.0244	0.1862	0.0023	-0.0048	-0.0624	35.6004	8.7807	-7.1795	-0.3253	-0.6228	-0.3363	0.6271
11.18	-9.6256	-0.0234	0.1852	-0.0078	-0.0094	-0.0554	35.3728	8.6199	-7.3026	-0.3252	-0.6227	-0.3362	0.6271
11.19	-9.6197	-0.0222	0.1960	-0.0211	-0.0017	-0.0601	35.5522	8.7040	-7.2119	-0.3252	-0.6228	-0.3362	0.6272
11.2	-9.6134	-0.0373	0.1944	-0.0210	-0.0019	-0.0584	35.4892	8.7101	-7.3292	-0.3252	-0.6228	-0.3362	0.6272
11.21	-9.6153	-0.0484	0.1965	-0.0221	-0.0006	-0.0558	35.5254	8.6199	-7.2913	-0.3252	-0.6228	-0.3362	0.6272
11.22	-9.6075	-0.0647	0.1952	-0.0210	0.0011	-0.0555	35.4160	8.7660	-7.2979	-0.3252	-0.6228	-0.3362	0.6272
11.23	-9.6136	-0.0785	0.1977	-0.0282	0.0055	-0.0552	35.2647	8.7372	-7.1942	-0.3251	-0.6228	-0.3362	0.6272
11.24	-9.6141	-0.0956	0.1890	-0.0271	0.0003	-0.0523	35.2882	8.9396	-7.4295	-0.3252	-0.6228	-0.3362	0.6272
11.25	-9.6155	-0.1078	0.1888	-0.0207	0.0018	-0.0530	35.3661	8.8254	-7.2914	-0.3251	-0.6228	-0.3361	0.6271
11.26	-9.6205	-0.1169	0.1896	-0.0242	0.0010	-0.0541	35.2926	8.7240	-7.4219	-0.3251	-0.6229	-0.3362	0.6272
11.27	-9.6242	-0.1175	0.1874	-0.0203	0.0036	-0.0543	35.4013	8.7482	-7.1972	-0.3251	-0.6229	-0.3361	0.6272
11.28	-9.6318	-0.1247	0.1839	-0.0215	0.0101	-0.0578	35.4211	8.7402	-7.2987	-0.3250	-0.6229	-0.3362	0.6272
11.29	-9.6270	-0.1313	0.1790	-0.0214	0.0039	-0.0545	35.3621	8.7411	-7.2107	-0.3250	-0.6229	-0.3361	0.6272
11.3	-9.6228	-0.1255	0.1836	-0.0196	0.0003	-0.0536	35.1171	8.7447	-7.2122	-0.3250	-0.6229	-0.3361	0.6272
11.31	-9.6283	-0.1319	0.1771	-0.0093	0.0097	-0.0605	35.1475	8.7251	-7.4123	-0.3249	-0.6230	-0.3362	0.6272
11.32	-9.6240	-0.1237	0.1722	-0.0179	0.0048	-0.0585	35.3574	8.8163	-7.3130	-0.3248	-0.6230	-0.3361	0.6271
11.33	-9.6319	-0.1070	0.1727	-0.0107	0.0045	-0.0558	35.3439	8.9488	-7.1945	-0.3248	-0.6231	-0.3361	0.6272
11.34	-9.6455	-0.0943	0.1724	-0.0036	0.0054	-0.0518	35.2753	8.7353	-7.0600	-0.3247	-0.6231	-0.3360	0.6272
11.35	-9.6514	-0.0824	0.1757	-0.0032	0.0097	-0.0488	35.2929	8.7853	-7.0303	-0.3247	-0.6232	-0.3360	0.6272
11.36	-9.6470	-0.0712	0.1787	-0.0025	0.0067	-0.0486	35.4170	8.5199	-7.4615	-0.3246	-0.6232	-0.3359	0.6272
