time	acceleration_x	acceleration_y	acceleration_z	gyroscope_x	gyroscope_y	gyroscope_z	magnetometer_x	magnetometer_y	magnetometer_z	quaternion_w	quaternion_x	quaternion_y	quaternion_z
0	-9.4364	-0.0924	-1.8821	-0.0003	-0.0057	0.0133	30.8825	-11.9591	12.3415	0.5610	-0.3643	0.6816	0.2969
0.01	-9.4321	-0.0947	-1.8791	0.0016	-0.0050	0.0093	31.0000	-11.6867	12.3476	0.5609	-0.3643	0.6815	0.2969
0.02	-9.4277	-0.0933	-1.8830	0.0051	-0.0091	0.0044	30.8175	-11.8913	12.3280	0.5610	-0.3644	0.6816	0.2969
0.03	-9.4254	-0.0942	-1.8785	0.0035	-0.0045	0.0073	30.8317	-11.7531	12.4313	0.5609	-0.3643	0.6815	0.2968
0.04	-9.4295	-0.0936	-1.8803	0.0006	-0.0042	0.0149	30.7231	-11.8044	12.4244	0.5609	-0.3644	0.6816	0.2968
0.05	-9.4318	-0.0930	-1.8882	0.0055	-0.0084	0.0119	30.7613	-11.8831	12.4374	0.5609	-0.3644	0.6816	0.2968
0.06	-9.4336	-0.0946	-1.8869	0.0031	-0.0090	0.0150	30.7269	-11.8383	12.3704	0.5608	-0.3644	0.6816	0.2968
0.07	-9.4282	-0.0919	-1.8993	-0.0007	-0.0135	0.0139	30.8573	-11.9611	12.2172	0.5609	-0.3644	0.6816	0.2968
0.08	-9.4283	-0.0902	-1.9027	0.0031	-0.0081	0.0153	30.9203	-12.0454	12.3204	0.5608	-0.3644	0.6816	0.2968
0.09	-9.4315	-0.0820	-1.9134	0.0056	-0.0135	0.0177	30.7245	-11.9794	12.3149	0.5609	-0.3644	0.6816	0.2969
0.1	-9.4310	-0.0765	-1.9120	0.0009	-0.0199	0.0142	30.8431	-11.8331	12.1378	0.5608	-0.3644	0.6815	0.2969
0.11	-9.4315	-0.0750	-1.9099	0.0018	-0.0158	0.0155	30.9149	-11.9786	12.1949	0.5609	-0.3644	0.6816	0.2969
0.12	-9.4335	-0.0693	-1.9056	0.0091	-0.0186	0.0119	30.7997	-11.8827	12.1379	0.5609	-0.3644	0.6815	0.2969
0.13	-9.4373	-0.0670	-1.9011	0.0005	-0.0182	0.0143	30.8722	-11.8508	12.2539	0.5609	-0.3644	0.6815	0.2969
0.14	-9.4320	-0.0592	-1.8958	0.0092	-0.0147	0.0189	30.6314	-11.8589	12.2505	0.5609	-0.3643	0.6815	0.2969
0.15	-9.4271	-0.0569	-1.8900	0.0156	-0.0175	0.0127	30.8269	-11.8739	12.1423	0.5610	-0.3643	0.6815	0.2969
0.16	-9.4284	-0.0480	-1.8875	0.0098	-0.0149	0.0167	30.7856	-11.8046	12.3905	0.5610	-0.3643	0.6815	0.2969
0.17	-9.4263	-0.0364	-1.8852	0.0040	-0.0148	0.0109	30.7076	-11.7578	12.5235	0.5609	-0.3642	0.6815	0.2969
0.18	-9.4278	-0.0306	-1.8777	0.0077	-0.0176	0.0107	30.8748	-11.8839	12.4174	0.5610	-0.3643	0.6815	0.2969
0.19	-9.4329	-0.0240	-1.8724	0.0080	-0.0197	0.0153	30.8996	-11.8409	12.2814	0.5610	-0.3642	0.6815	0.2969
0.2	-9.4304	-0.0140	-1.8602	0.0143	-0.0189	0.0146	30.7412	-11.8752	12.2389	0.5611	-0.3642	0.6815	0.2969
0.21	-9.4252	-0.0084	-1.8477	0.0080	-0.0082	0.0165	30.7603	-11.8417	12.3349	0.5611	-0.3641	0.6815	0.2968
0.22	-9.4271	-0.0137	-1.8421	0.0047	-0.0109	0.0107	30.7204	-11.8898	12.4846	0.5611	-0.3641	0.6815	0.2969
0.23	-9.4307	-0.0163	-1.8373	-0.0008	-0.0143	0.0133	30.4707	-11.9764	12.3168	0.5611	-0.3642	0.6815	0.2969
0.24	-9.4261	-0.0220	-1.8300	0.0049	-0.0117	0.0130	30.6447	-11.8711	12.5044	0.5611	-0.3641	0.6815	0.2969
0.25	-9.4257	-0.0245	-1.8231	0.0043	-0.0132	0.0166	30.7786	-11.8397	12.5157	0.5611	-0.3642	0.6816	0.2969
0.26	-9.4312	-0.0193	-1.8277	0.0056	-0.0160	0.0122	30.7147	-11.7783	12.2622	0.5611	-0.3641	0.6815	0.2969
0.27	-9.4344	-0.0087	-1.8309	0.0071	-0.0129	0.0043	30.8304	-11.9521	12.4437	0.5612	-0.3642	0.6815	0.2969
0.28	-9.4206	0.0036	-1.8232	0.0062	-0.0115	0.0121	30.7995	-11.9316	12.4224	0.5611	-0.3641	0.6814	0.2968
0.29	-9.4230	0.0160	-1.8172	0.0014	-0.0101	0.0151	31.0819	-12.0477	12.4524	0.5611	-0.3641	0.6815	0.2969
0.3	-9.4325	0.0203	-1.8280	0.0077	-0.0104	0.0163	31.4429	-11.6531	12.5769	0.5611	-0.3642	0.6815	0.2969
0.31	-9.4324	0.0217	-1.8250	0.0031	-0.0073	0.0089	31.2542	-11.8228	12.4124	0.5611	-0.3642	0.6814	0.2969
0.32	-9.4262	0.0109	-1.8341	-0.0054	-0.0111	0.0057	30.9135	-11.8904	12.3689	0.5611	-0.3643	0.6814	0.2969
0.33	-9.4298	0.0004	-1.8414	-0.0006	-0.0093	0.0075	30.6507	-11.9084	12.4955	0.5611	-0.3643	0.6814	0.2969
0.34	-9.4259	-0.0222	-1.8580	0.0030	-0.0079	0.0112	30.8548	-12.0233	12.5643	0.5611	-0.3643	0.6815	0.2969
0.35	-9.4222	-0.0381	-1.8641	0.0042	-0.0091	0.0067	30.8819	-11.8627	12.6093	0.5610	-0.3643	0.6814	0.2969
0.36	-9.4257	-0.0519	-1.8657	-0.0052	-0.0038	0.0116	30.7491	-11.7839	12.2575	0.5610	-0.3644	0.6815	0.2969
0.37	-9.4279	-0.0638	-1.8630	-0.0029	-0.0020	0.0072	30.7017	-11.6855	12.3452	0.5610	-0.3644	0.6814	0.2969
0.38	-9.4279	-0.0732	-1.8561	0.0004	-0.0072	0.0080	30.7069	-11.7555	12.2902	0.5610	-0.3645	0.6815	0.2969
0.39	-9.4367	-0.0816	-1.8627	0.0031	-0.0093	0.0057	30.7203	-11.5957	12.4214	0.5610	-0.3645	0.6814	0.2969
0.4	-9.4361	-0.0866	-1.8737	0.0036	-0.0072	0.0102	30.5566	-11.6967	12.3861	0.5610	-0.3645	0.6814	0.2968
0.41	-9.4277	-0.0988	-1.8814	-0.0026	-0.0086	0.0055	30.6083	-11.6825	12.4163	0.5610	-0.3646	0.6814	0.2968
0.42	-9.4250	-0.1044	-1.8845	-0.0022	-0.0068	0.0071	30.9097	-11.6006	12.3757	0.5609	-0.3646	0.6814	0.2968
0.43	-9.4297	-0.1135	-1.8966	-0.0064	-0.0087	0.0078	30.7357	-11.7518	12.5490	0.5609	-0.3647	0.6814	0.2969
0.44	-9.4322	-0.1118	-1.9007	-0.0048	-0.0115	0.0059	30.7259	-11.8462	12.3962	0.5609	-0.3647	0.6814	0.2969
0.45	-9.4292	-0.1075	-1.9021	-0.0012	-0.0114	0.0067	31.0864	-12.1414	12.3004	0.5609	-0.3648	0.6814	0.2969
0.46	-9.4319	-0.1061	-1.9082	-0.0010	-0.0119	0.0057	30.8258	-12.1102	12.4273	0.5609	-0.3647	0.6813	0.2968
0.47	-9.4263	-0.1012	-1.9105	-0.0014	-0.0159	0.0090	30.8167	-12.0537	12.4322	0.5609	-0.3648	0.6813	0.2969
0.48	-9.4213	-0.0953	-1.9030	0.0012	-0.0075	0.0143	31.0227	-11.9870	12.3564	0.5609	-0.3648	0.6813	0.2969
0.49	-9.4258	-0.0916	-1.9036	-0.0019	-0.0136	0.0117	30.7910	-11.9583	12.3230	0.5609	-0.3648	0.6813	0.2969
0.5	-9.4334	-0.0931	-1.8991	-0.0008	-0.0123	0.0082	30.6852	-11.9571	12.3083	0.5609	-0.3649	0.6813	0.2969
0.51	-9.4258	-0.0883	-1.8846	0.0029	-0.0150	0.0139	30.7614	-11.8778	12.0975	0.5609	-0.3648	0.6813	0.2969
0.52	-9.4289	-0.0873	-1.8830	0.0051	-0.0112	0.0054	30.7990	-12.0352	12.4241	0.5609	-0.3649	0.6813	0.2969
0.53	-9.4338	-0.0795	-1.8711	-0.0010	-0.0090	0.0146	30.7837	-11.7607	12.3951	0.5608	-0.3648	0.6812	0.2969
0.54	-9.4287	-0.0707	-1.8597	0.0018	-0.0133	0.0126	30.8731	-11.7291	12.5333	0.5609	-0.3649	0.6813	0.2969
0.55	-9.4259	-0.0617	-1.8487	0.0020	-0.0092	0.0108	30.7229	-11.6692	12.4293	0.5609	-0.3649	0.6813	0.2969
0.56	-9.4321	-0.0557	-1.8430	0.0003	-0.0049	0.0130	30.6427	-11.6180	12.3856	0.5608	-0.3649	0.6813	0.2969
0.57	-9.4325	-0.0486	-1.8343	0.0080	-0.0095	0.0092	30.5240	-11.7342	12.4089	0.5609	-0.3649	0.6813	0.2969
0.58	-9.4267	-0.0423	-1.8217	-0.0013	-0.0046	0.0045	30.6859	-11.7328	12.3972	0.5608	-0.3650	0.6813	0.2969
0.59	-9.4208	-0.0359	-1.8228	0.0038	-0.0067	0.0114	30.7193	-11.8589	12.4144	0.5608	-0.3650	0.6813	0.2969
0.6	-9.4258	-0.0326	-1.8210	0.0056	-0.0045	0.0086	30.6405	-11.6171	12.3915	0.5608	-0.3650	0.6812	0.2968
0.61	-9.4272	-0.0261	-1.8269	-0.0027	-0.0079	0.0131	30.4948	-11.6529	12.4078	0.5608	-0.3650	0.6813	0.2969
0.62	-9.4269	-0.0245	-1.8207	0.0033	-0.0045	0.0118	30.4943	-11.7776	12.5352	0.5608	-0.3650	0.6813	0.2968
0.63	-9.4272	-0.0214	-1.8221	0.0051	-0.0108	0.0123	30.8532	-11.8604	12.4026	0.5608	-0.3650	0.6813	0.2968
0.64	-9.4309	-0.0213	-1.8240	0.0067	-0.0049	0.0070	30.9810	-11.9841	12.4275	0.5607	-0.3650	0.6813	0.2968
0.65	-9.4298	-0.0265	-1.8336	-0.0003	-0.0060	0.0093	30.7789	-11.9360	12.5111	0.5607	-0.3651	0.6813	0.2968
0.66	-9.4251	-0.0279	-1.8415	0.0024	-0.0084	0.0114	30.6826	-11.8512	12.5047	0.5607	-0.3651	0.6813	0.2968
0.67	-9.4248	-0.0306	-1.8471	0.0045	-0.0064	0.0084	30.7049	-11.9739	12.4199	0.5607	-0.3651	0.6813	0.2967
0.68	-9.4282	-0.0347	-1.8530	0.0026	-0.0070	0.0143	30.8181	-11.9630	12.3067	0.5607	-0.3651	0.6814	0.2968
0.69	-9.4245	-0.0326	-1.8533	0.0006	-0.0085	0.0123	30.7416	-11.8229	12.3255	0.5607	-0.3651	0.6813	0.2968
0.7	-9.4279	-0.0312	-1.8657	0.0041	-0.0076	0.0066	30.7086	-11.7856	12.3279	0.5607	-0.3652	0.6814	0.2968
0.71	-9.4306	-0.0318	-1.8789	0.0074	-0.0076	0.0103	30.6334	-11.8811	12.2208	0.5606	-0.3651	0.6813	0.2967
0.72	-9.4250	-0.0271	-1.8773	0.0003	-0.0118	0.0155	30.5208	-12.1316	12.3673	0.5607	-0.3652	0.6814	0.2967
0.73	-9.4275	-0.0337	-1.8887	0.0006	-0.0037	0.0055	30.7480	-11.8995	12.6183	0.5607	-0.3652	0.6814	0.2967
0.74	-9.4324	-0.0438	-1.8937	0.0028	-0.0032	0.0047	30.8205	-11.6634	12.4706	0.5606	-0.3652	0.6813	0.2967
0.75	-9.4351	-0.0519	-1.9031	0.0006	-0.0072	0.0106	30.5666	-11.8617	12.6207	0.5607	-0.3653	0.6814	0.2967
0.76	-9.4264	-0.0597	-1.9083	0.0048	-0.0039	0.0043	30.6962	-11.7286	12.3672	0.5606	-0.3653	0.6814	0.2966
0.77	-9.4320	-0.0692	-1.9127	-0.0057	-0.0012	0.0057	30.6602	-11.7766	12.3493	0.5606	-0.3654	0.6814	0.2966
0.78	-9.4302	-0.0727	-1.9165	0.0079	-0.0040	0.0126	30.5890	-11.8165	12.5021	0.5605	-0.3653	0.6813	0.2966
0.79	-9.4346	-0.0734	-1.9055	0.0041	-0.0027	0.0107	30.9559	-11.7951	12.7338	0.5605	-0.3654	0.6814	0.2966
0.8	-9.4295	-0.0730	-1.9079	-0.0005	-0.0047	0.0079	31.0478	-11.7710	12.7504	0.5605	-0.3654	0.6814	0.2966
0.81	-9.4227	-0.0639	-1.9025	0.0070	-0.0104	0.0177	30.9482	-11.6419	12.8203	0.5605	-0.3654	0.6814	0.2966
0.82	-9.4362	-0.0643	-1.8938	0.0041	-0.0207	0.0174	31.0174	-11.7563	12.3996	0.5605	-0.3654	0.6814	0.2966
0.83	-9.4329	-0.0634	-1.8882	0.0138	-0.0151	0.0156	30.8461	-11.8565	12.3837	0.5605	-0.3653	0.6814	0.2966
0.84	-9.4338	-0.0616	-1.8863	0.0085	-0.0098	0.0098	30.8674	-11.8321	12.4067	0.5606	-0.3654	0.6814	0.2966
0.85	-9.4336	-0.0605	-1.8786	0.0153	-0.0128	0.0168	30.9039	-11.9800	12.3261	0.5605	-0.3653	0.6814	0.2965
0.86	-9.4316	-0.0589	-1.8756	0.0093	-0.0147	0.0170	30.7770	-11.8514	12.3635	0.5606	-0.3653	0.6815	0.2966
0.87	-9.4340	-0.0505	-1.8772	0.0096	-0.0076	0.0151	30.6877	-12.0449	12.3599	0.5606	-0.3652	0.6815	0.2965
0.88	-9.4275	-0.0442	-1.8743	0.0097	-0.0126	0.0172	30.8165	-11.7756	12.5670	0.5606	-0.3652	0.6815	0.2965
0.89	-9.4146	-0.0432	-1.8631	0.0010	-0.0092	0.0106	30.7027	-11.9062	12.3140	0.5606	-0.3652	0.6815	0.2965
0.9	-9.4246	-0.0430	-1.8609	0.0061	-0.0126	0.0142	30.6572	-11.9512	12.2587	0.5606	-0.3652	0.6815	0.2965
0.91	-9.4340	-0.0499	-1.8594	0.0035	-0.0134	0.0113	30.7541	-11.8529	12.4442	0.5606	-0.3652	0.6815	0.2965
0.92	-9.4267	-0.0558	-1.8587	0.0054	-0.0141	0.0125	30.7021	-11.8912	12.4178	0.5606	-0.3652	0.6814	0.2965
0.93	-9.4307	-0.0575	-1.8589	0.0002	-0.0106	0.0153	30.7354	-11.8806	12.5628	0.5606	-0.3652	0.6815	0.2966
0.94	-9.4393	-0.0634	-1.8613	0.0090	-0.0114	0.0167	30.8310	-11.7289	12.7550	0.5606	-0.3652	0.6815	0.2965
0.95	-9.4332	-0.0571	-1.8558	0.0123	-0.0161	0.0175	30.7222	-11.9704	12.3544	0.5607	-0.3652	0.6816	0.2965
0.96	-9.4247	-0.0561	-1.8491	0.0171	-0.0054	0.0122	30.8036	-11.8618	12.3397	0.5606	-0.3651	0.6815	0.2965
0.97	-9.4319	-0.0529	-1.8483	0.0187	-0.0086	0.0140	30.9066	-11.8071	12.7033	0.5606	-0.3651	0.6816	0.2964
0.98	-9.4294	-0.0486	-1.8428	0.0133	-0.0048	0.0115	30.8378	-11.8854	12.5164	0.5606	-0.3651	0.6816	0.2964
0.99	-9.4243	-0.0455	-1.8379	0.0205	-0.0086	0.0146	30.7113	-11.9658	12.5518	0.5606	-0.3650	0.6816	0.2963
1	-9.4261	-0.0453	-1.8373	0.0122	-0.0139	0.0161	30.7303	-11.7628	12.3893	0.5607	-0.3650	0.6817	0.2963
1.01	-9.4315	-0.0440	-1.8402	0.0114	-0.0126	0.0155	30.8419	-11.9880	12.3715	0.5607	-0.3649	0.6817	0.2963
1.02	-9.4234	-0.0436	-1.8327	0.0061	-0.0073	0.0142	30.7624	-12.0165	12.2689	0.5607	-0.3650	0.6817	0.2963
1.03	-9.4251	-0.0454	-1.8263	0.0091	-0.0059	0.0172	30.9967	-11.9159	12.3555	0.5606	-0.3649	0.6817	0.2962
1.04	-9.4396	-0.0475	-1.8434	0.0069	-0.0102	0.0127	30.9253	-11.9988	12.4534	0.5607	-0.3649	0.6817	0.2962
1.05	-9.4274	-0.0513	-1.8484	0.0067	-0.0141	0.0153	30.7421	-12.0450	12.4797	0.5607	-0.3649	0.6817	0.2962
1.06	-9.4185	-0.0548	-1.8462	0.0042	-0.0075	0.0145	30.9036	-11.7891	12.5519	0.5606	-0.3649	0.6817	0.2962
1.07	-9.4246	-0.0589	-1.8538	0.0015	-0.0139	0.0153	30.7796	-11.7169	12.5019	0.5607	-0.3649	0.6817	0.2963
1.08	-9.4306	-0.0572	-1.8632	0.0003	-0.0070	0.0157	30.8152	-11.6915	12.5387	0.5606	-0.3649	0.6817	0.2963
1.09	-9.4262	-0.0534	-1.8583	0.0011	-0.0119	0.0131	30.7784	-12.0016	12.4834	0.5606	-0.3649	0.6818	0.2963
1.1	-9.4257	-0.0476	-1.8496	0.0103	-0.0111	0.0150	30.8999	-12.0663	12.3328	0.5606	-0.3648	0.6817	0.2962
1.11	-9.4319	-0.0441	-1.8546	0.0024	-0.0071	0.0170	30.8673	-11.9303	12.3827	0.5606	-0.3649	0.6818	0.2963
1.12	-9.4295	-0.0402	-1.8471	0.0015	-0.0065	0.0124	30.6323	-11.9751	12.4522	0.5606	-0.3649	0.6818	0.2963
1.13	-9.4292	-0.0376	-1.8461	-0.0010	-0.0138	0.0110	30.6624	-11.9756	12.4363	0.5606	-0.3649	0.6818	0.2963
1.14	-9.4298	-0.0379	-1.8586	0.0034	-0.0100	0.0136	30.5404	-11.7918	12.4265	0.5606	-0.3649	0.6818	0.2963
1.15	-9.4320	-0.0382	-1.8663	0.0067	-0.0048	0.0138	30.7016	-11.7955	12.3242	0.5606	-0.3649	0.6818	0.2963
1.16	-9.4275	-0.0408	-1.8830	-0.0004	-0.0105	0.0115	30.7276	-11.8022	12.3578	0.5606	-0.3649	0.6818	0.2963
1.17	-9.4286	-0.0426	-1.8991	0.0032	-0.0047	0.0104	30.7354	-11.7910	12.3340	0.5605	-0.3649	0.6818	0.2962
1.18	-9.4385	-0.0458	-1.9149	0.0112	-0.0127	0.0136	30.6079	-11.8082	12.4543	0.5606	-0.3649	0.6819	0.2963
1.19	-9.4270	-0.0554	-1.9046	0.0102	-0.0129	0.0137	30.7069	-11.7912	12.4193	0.5606	-0.3649	0.6818	0.2962
1.2	-9.4218	-0.0592	-1.8919	0.0090	-0.0093	0.0152	30.9166	-12.0547	12.4675	0.5606	-0.3649	0.6819	0.2962
1.21	-9.4359	-0.0609	-1.8994	0.0071	-0.0082	0.0147	30.7854	-11.9435	12.3365	0.5605	-0.3648	0.6818	0.2962
1.22	-9.4365	-0.0657	-1.9068	0.0072	-0.0204	0.0147	30.9259	-11.9914	12.3702	0.5606	-0.3648	0.6818	0.2962
1.23	-9.4271	-0.0661	-1.9078	0.0171	-0.0129	0.0103	30.8283	-12.0306	12.3311	0.5606	-0.3648	0.6819	0.2962
1.24	-9.4280	-0.0684	-1.9179	0.0052	-0.0092	0.0179	30.7878	-11.8595	12.4424	0.5606	-0.3647	0.6818	0.2962
1.25	-9.4347	-0.0705	-1.9204	0.0120	-0.0104	0.0109	30.8183	-11.7973	12.4238	0.5607	-0.3648	0.6819	0.2962
1.26	-9.4278	-0.0694	-1.9023	0.0120	-0.0076	0.0157	30.9082	-11.9179	12.4803	0.5606	-0.3647	0.6819	0.2961
1.27	-9.4298	-0.0673	-1.8934	0.0105	-0.0162	0.0132	30.8536	-11.7920	12.5464	0.5607	-0.3647	0.6819	0.2961
1.28	-9.4375	-0.0680	-1.8955	0.0141	-0.0093	0.0112	30.9749	-11.8717	12.5115	0.5606	-0.3646	0.6819	0.2960
1.29	-9.4315	-0.0643	-1.8831	0.0122	-0.0148	0.0136	31.0406	-11.8771	12.6560	0.5607	-0.3646	0.6819	0.2961
1.3	-9.4257	-0.0650	-1.8729	0.0054	-0.0154	0.0125	31.0515	-11.7101	12.9117	0.5607	-0.3646	0.6819	0.2960
1.31	-9.4336	-0.0635	-1.8655	0.0046	-0.0143	0.0091	30.9148	-11.7384	12.7225	0.5607	-0.3646	0.6819	0.2960
1.32	-9.4274	-0.0607	-1.8582	0.0053	-0.0049	0.0061	30.6888	-11.7920	12.5143	0.5607	-0.3647	0.6819	0.2960
1.33	-9.4253	-0.0568	-1.8516	0.0102	-0.0102	0.0163	30.3972	-11.7641	12.4535	0.5607	-0.3646	0.6819	0.2960
1.34	-9.4259	-0.0512	-1.8470	-0.0006	-0.0113	0.0128	30.3597	-11.7337	12.3736	0.5607	-0.3647	0.6819	0.2960
1.35	-9.4266	-0.0513	-1.8386	-0.0017	-0.0113	0.0070	30.5874	-11.7075	12.4189	0.5607	-0.3646	0.6818	0.2960
1.36	-9.4297	-0.0503	-1.8363	0.0045	-0.0090	0.0100	30.6657	-11.8325	12.3912	0.5607	-0.3647	0.6819	0.2960
1.37	-9.4230	-0.0489	-1.8271	0.0061	-0.0133	0.0130	30.6513	-11.7538	12.2648	0.5607	-0.3647	0.6819	0.2960
1.38	-9.4247	-0.0487	-1.8292	0.0012	-0.0075	0.0151	30.6601	-11.6878	12.1837	0.5607	-0.3647	0.6819	0.2960
1.39	-9.4313	-0.0471	-1.8280	-0.0022	-0.0077	0.0116	30.7226	-11.8225	12.4503	0.5607	-0.3647	0.6819	0.2960
1.4	-9.4291	-0.0544	-1.8256	-0.0051	-0.0109	0.0149	30.7664	-11.8923	12.4867	0.5607	-0.3647	0.6819	0.2961
1.41	-9.4358	-0.0581	-1.8308	-0.0011	-0.0155	0.0142	31.0061	-11.8731	12.3703	0.5607	-0.3647	0.6819	0.2961
1.42	-9.4298	-0.0582	-1.8297	-0.0033	-0.0137	0.0135	30.8834	-11.8695	12.5084	0.5606	-0.3647	0.6818	0.2961
1.43	-9.4265	-0.0597	-1.8449	-0.0028	-0.0056	0.0059	30.8943	-11.9859	12.6041	0.5607	-0.3648	0.6819	0.2961
1.44	-9.4196	-0.0608	-1.8493	-0.0001	-0.0071	0.0102	30.7500	-11.9342	12.4278	0.5606	-0.3648	0.6819	0.2961
1.45	-9.4256	-0.0650	-1.8572	0.0056	-0.0045	0.0098	30.7335	-12.0503	12.4128	0.5606	-0.3649	0.6819	0.2961
1.46	-9.4224	-0.0628	-1.8529	-0.0034	-0.0122	0.0127	30.7345	-11.9649	12.4096	0.5605	-0.3648	0.6818	0.2961
1.47	-9.4254	-0.0589	-1.8564	0.0010	-0.0095	0.0110	30.6309	-11.8508	12.4156	0.5606	-0.3649	0.6819	0.2961
1.48	-9.4325	-0.0527	-1.8637	-0.0032	-0.0057	0.0067	30.6687	-11.7574	12.3891	0.5605	-0.3649	0.6819	0.2961
1.49	-9.4357	-0.0507	-1.8688	-0.0054	-0.0032	0.0069	30.6310	-11.9154	12.4423	0.5605	-0.3650	0.6818	0.2961
1.5	-9.4315	-0.0488	-1.8717	-0.0049	-0.0029	0.0092	30.7694	-11.7445	12.2583	0.5605	-0.3651	0.6819	0.2962
1.51	-9.4306	-0.0539	-1.8791	0.0005	-0.0031	0.0094	30.8216	-11.7618	12.4336	0.5604	-0.3651	0.6819	0.2961
1.52	-9.4359	-0.0481	-1.8776	-0.0023	-0.0052	0.0099	30.5901	-11.7545	12.4533	0.5604	-0.3651	0.6819	0.2961
1.53	-9.4293	-0.0462	-1.8845	0.0043	-0.0027	0.0029	30.5518	-11.7119	12.3739	0.5604	-0.3651	0.6818	0.2961
1.54	-9.4205	-0.0457	-1.8793	0.0017	-0.0033	0.0064	30.5970	-11.7016	12.5188	0.5604	-0.3652	0.6819	0.2961
1.55	-9.4288	-0.0389	-1.8828	-0.0031	-0.0062	0.0082	30.6694	-11.6367	12.4919	0.5603	-0.3652	0.6819	0.2961
1.56	-9.4328	-0.0395	-1.8842	0.0048	-0.0118	0.0121	30.6352	-11.8224	12.3800	0.5603	-0.3652	0.6819	0.2960
1.57	-9.4260	-0.0430	-1.8801	-0.0010	-0.0112	0.0114	30.7575	-11.8648	12.1630	0.5604	-0.3652	0.6819	0.2961
1.58	-9.4299	-0.0432	-1.8897	0.0014	-0.0077	0.0097	30.8519	-12.0355	12.2146	0.5603	-0.3653	0.6819	0.2961
1.59	-9.4358	-0.0428	-1.8919	-0.0037	-0.0113	0.0115	30.7530	-12.0046	12.4182	0.5603	-0.3653	0.6819	0.2961
1.6	-9.4271	-0.0432	-1.8795	0.0039	-0.0128	0.0089	30.7128	-11.8628	12.4180	0.5603	-0.3653	0.6818	0.2961
1.61	-9.4285	-0.0461	-1.8733	0.0039	-0.0086	0.0093	30.8488	-11.9871	12.4904	0.5603	-0.3653	0.6819	0.2961
1.62	-9.4348	-0.0449	-1.8696	0.0028	-0.0123	0.0112	30.9173	-12.0804	12.4217	0.5603	-0.3653	0.6818	0.2961
1.63	-9.4277	-0.0488	-1.8681	0.0044	-0.0136	0.0114	30.8313	-11.6932	12.5976	0.5604	-0.3653	0.6819	0.2961
1.64	-9.4260	-0.0451	-1.8642	0.0070	-0.0135	0.0127	30.6995	-11.8251	12.5901	0.5603	-0.3653	0.6818	0.2961
1.65	-9.4330	-0.0447	-1.8670	0.0160	-0.0118	0.0132	30.8838	-12.0914	12.3148	0.5604	-0.3653	0.6819	0.2960
1.66	-9.4281	-0.0454	-1.8668	0.0076	-0.0148	0.0114	30.6909	-11.8595	12.2297	0.5604	-0.3653	0.6819	0.2960
1.67	-9.4230	-0.0431	-1.8598	0.0056	-0.0156	0.0078	30.6322	-11.8941	12.5257	0.5604	-0.3652	0.6818	0.2960
1.68	-9.4243	-0.0449	-1.8672	0.0044	-0.0162	0.0115	30.7458	-11.8801	12.4799	0.5605	-0.3653	0.6819	0.2960
1.69	-9.4275	-0.0514	-1.8622	0.0032	-0.0073	0.0050	30.6119	-11.7314	12.5161	0.5604	-0.3653	0.6818	0.2960
1.7	-9.4334	-0.0598	-1.8686	-0.0001	-0.0064	0.0083	30.6808	-11.7583	12.4173	0.5605	-0.3653	0.6819	0.2960
1.71	-9.4299	-0.0675	-1.8670	0.0041	-0.0070	0.0061	30.6266	-11.9222	12.4023	0.5604	-0.3653	0.6818	0.2959
1.72	-9.4298	-0.0774	-1.8666	0.0009	-0.0032	0.0085	30.6891	-11.6215	12.4039	0.5604	-0.3654	0.6818	0.2959
1.73	-9.4311	-0.0851	-1.8725	0.0000	-0.0063	0.0064	30.7443	-11.6949	12.4073	0.5604	-0.3654	0.6818	0.2959
1.74	-9.4220	-0.0863	-1.8654	-0.0001	-0.0095	0.0134	30.7261	-11.7132	12.3917	0.5603	-0.3654	0.6818	0.2959
1.75	-9.4218	-0.0879	-1.8641	0.0005	-0.0145	0.0120	30.8157	-11.8165	12.5251	0.5604	-0.3655	0.6819	0.2960
1.76	-9.4288	-0.0810	-1.8646	0.0045	-0.0103	0.0079	30.7164	-12.0325	12.4620	0.5604	-0.3654	0.6818	0.2959
1.77	-9.4253	-0.0775	-1.8580	0.0077	-0.0165	0.0116	31.1543	-11.8500	12.3932	0.5604	-0.3655	0.6818	0.2960
1.78	-9.4218	-0.0675	-1.8526	0.0048	-0.0114	0.0082	31.0460	-11.9706	12.4409	0.5604	-0.3655	0.6817	0.2959
1.79	-9.4316	-0.0610	-1.8559	0.0032	-0.0056	0.0088	30.9671	-11.9394	12.3903	0.5604	-0.3655	0.6818	0.2959
1.8	-9.4346	-0.0537	-1.8572	0.0110	-0.0156	0.0141	31.2624	-11.8394	12.6399	0.5604	-0.3655	0.6818	0.2959
1.81	-9.4283	-0.0431	-1.8522	0.0103	-0.0172	0.0132	31.0719	-11.9157	12.4101	0.5604	-0.3654	0.6817	0.2959
1.82	-9.4324	-0.0258	-1.8597	0.0060	-0.0062	0.0170	30.9003	-11.8639	12.3628	0.5604	-0.3654	0.6818	0.2959
1.83	-9.4389	-0.0245	-1.8632	0.0013	-0.0061	0.0165	30.6239	-12.0538	12.3845	0.5604	-0.3654	0.6818	0.2959
1.84	-9.4333	-0.0285	-1.8646	0.0070	-0.0123	0.0152	30.8220	-12.0431	12.1903	0.5604	-0.3654	0.6818	0.2959
1.85	-9.4200	-0.0308	-1.8621	0.0105	-0.0140	0.0135	30.9813	-11.7632	12.3768	0.5604	-0.3654	0.6817	0.2959
1.86	-9.4299	-0.0381	-1.8708	0.0031	-0.0134	0.0167	30.8568	-11.8226	12.3153	0.5604	-0.3654	0.6818	0.2960
1.87	-9.4267	-0.0435	-1.8693	0.0013	-0.0168	0.0124	31.0016	-11.9104	12.5453	0.5604	-0.3654	0.6818	0.2960
1.88	-9.4207	-0.0446	-1.8660	0.0020	-0.0094	0.0113	30.8766	-11.8090	12.3951	0.5604	-0.3654	0.6818	0.2960
1.89	-9.4325	-0.0496	-1.8767	0.0035	-0.0058	0.0114	30.7944	-11.7816	12.1087	0.5604	-0.3654	0.6817	0.2960
1.9	-9.4422	-0.0558	-1.8794	0.0022	-0.0118	0.0147	30.7993	-11.9497	12.4729	0.5604	-0.3654	0.6818	0.2960
1.91	-9.4269	-0.0520	-1.8741	0.0033	-0.0114	0.0124	30.9516	-11.9313	12.5086	0.5604	-0.3654	0.6818	0.2960
1.92	-9.4248	-0.0506	-1.8807	0.0044	-0.0112	0.0136	30.9632	-11.7793	12.2468	0.5604	-0.3654	0.6817	0.2960
1.93	-9.4277	-0.0473	-1.8779	0.0113	-0.0046	0.0157	30.7775	-11.8059	12.1396	0.5604	-0.3654	0.6818	0.2960
1.94	-9.4329	-0.0393	-1.8770	0.0114	-0.0102	0.0149	30.8020	-11.9493	12.5108	0.5604	-0.3654	0.6818	0.2960
1.95	-9.4368	-0.0368	-1.8820	0.0080	-0.0136	0.0165	31.0205	-11.9303	12.4262	0.5605	-0.3654	0.6819	0.2960
1.96	-9.4311	-0.0314	-1.8797	0.0036	-0.0072	0.0116	31.1229	-11.7456	12.1130	0.5603	-0.3654	0.6818	0.2960
1.97	-9.4257	-0.0252	-1.8763	0.0045	-0.0111	0.0128	31.0327	-11.8551	12.3367	0.5604	-0.3654	0.6818	0.2960
1.98	-9.4276	-0.0278	-1.8719	0.0002	-0.0102	0.0103	31.1673	-12.0061	12.3208	0.5604	-0.3654	0.6818	0.2960
1.99	-9.4314	-0.0287	-1.8732	-0.0013	-0.0140	0.0127	30.9890	-11.8699	12.1495	0.5603	-0.3654	0.6817	0.2960
2	-9.4281	-0.0448	-1.8612	0.0006	-0.0083	0.0098	30.7318	-11.8808	12.2738	0.5604	-0.3655	0.6818	0.2960
2.01	-9.4235	-0.0614	-1.8638	-0.0030	-0.0141	0.0168	30.9000	-11.9034	12.3880	0.5603	-0.3654	0.6818	0.2961
2.02	-9.4319	-0.0745	-1.8626	0.0067	-0.0088	0.0063	30.9251	-12.0192	12.4839	0.5604	-0.3655	0.6818	0.2961
2.03	-9.4391	-0.0858	-1.8723	0.0095	-0.0110	0.0127	30.7834	-11.7680	12.2260	0.5603	-0.3654	0.6817	0.2960
2.04	-9.4253	-0.0836	-1.8712	0.0053	-0.0129	0.0116	30.7804	-11.8330	12.2734	0.5604	-0.3654	0.6818	0.2960
2.05	-9.4161	-0.0793	-1.8628	0.0036	-0.0076	0.0061	30.8633	-12.0481	12.3859	0.5604	-0.3655	0.6818	0.2960
2.06	-9.4192	-0.0726	-1.8526	0.0017	-0.0066	0.0066	30.8090	-11.7816	12.2611	0.5604	-0.3655	0.6817	0.2960
2.07	-9.4388	-0.0675	-1.8554	0.0015	-0.0101	0.0116	30.8066	-11.8183	12.1422	0.5604	-0.3655	0.6818	0.2960
2.08	-9.4097	-0.0520	-1.8423	0.0013	-0.0053	0.0103	30.8786	-12.0036	12.4628	0.5603	-0.3655	0.6818	0.2960
2.09	-9.4285	-0.0592	-1.8411	-0.0018	-0.0038	0.0116	30.9264	-11.7442	12.3361	0.5603	-0.3656	0.6818	0.2960
2.1	-9.5160	-0.0693	-1.9466	0.0052	-0.0125	0.0124	30.9720	-11.9892	12.4430	0.5603	-0.3655	0.6817	0.2960
2.11	-9.3436	-0.0507	-1.8042	0.0078	-0.0108	0.0119	30.7567	-11.8401	12.4061	0.5603	-0.3656	0.6818	0.2960
2.12	-9.4431	-0.0766	-1.8836	0.0055	-0.0080	0.0163	30.8040	-11.6588	12.3223	0.5603	-0.3655	0.6818	0.2960
2.13	-9.4622	-0.0661	-1.9080	0.0073	-0.0132	0.0117	30.8292	-11.8105	12.3331	0.5603	-0.3655	0.6818	0.2960
2.14	-9.3957	-0.0845	-1.8274	0.0057	-0.0123	0.0156	31.0764	-11.8579	12.3731	0.5603	-0.3655	0.6818	0.2960
2.15	-9.4546	-0.0818	-1.9028	0.0023	-0.0069	0.0186	30.9982	-11.9311	12.4075	0.5603	-0.3655	0.6818	0.2960
2.16	-9.4113	-0.0739	-1.8556	0.0052	-0.0047	0.0202	30.9283	-12.1127	12.3691	0.5603	-0.3655	0.6819	0.2960
2.17	-9.4377	-0.0848	-1.8776	0.0093	-0.0096	0.0173	31.0376	-11.8666	12.5526	0.5602	-0.3654	0.6818	0.2960
2.18	-9.4205	-0.0614	-1.8670	0.0120	-0.0071	0.0171	30.9441	-11.8746	12.3132	0.5603	-0.3654	0.6819	0.2960
2.19	-9.4144	-0.0714	-1.8597	0.0105	-0.0071	0.0150	30.8309	-12.0373	12.3345	0.5603	-0.3654	0.6819	0.2959
2.2	-9.4484	-0.0564	-1.8889	0.0104	-0.0075	0.0125	30.9748	-11.7876	12.1917	0.5603	-0.3654	0.6820	0.2959
2.21	-9.4198	-0.0492	-1.8594	0.0069	-0.0114	0.0141	30.9233	-11.8935	12.4829	0.5602	-0.3653	0.6819	0.2959
2.22	-9.4344	-0.0493	-1.8738	0.0131	-0.0102	0.0144	31.0152	-12.0626	12.2715	0.5603	-0.3653	0.6820	0.2959
2.23	-9.4320	-0.0473	-1.8697	0.0091	-0.0069	0.0158	30.8140	-11.9176	12.3088	0.5603	-0.3653	0.6820	0.2959
2.24	-9.4292	-0.0566	-1.8721	0.0034	-0.0105	0.0133	30.8836	-12.0029	12.3551	0.5602	-0.3653	0.6819	0.2959
2.25	-9.4214	-0.0493	-1.8687	0.0125	-0.0084	0.0095	30.7428	-11.8396	12.4359	0.5603	-0.3653	0.6821	0.2959
2.26	-9.4386	-0.0539	-1.8718	0.0105	-0.0083	0.0132	30.7861	-11.9418	12.5539	0.5603	-0.3653	0.6820	0.2958
2.27	-9.4351	-0.0375	-1.8845	0.0081	-0.0060	0.0121	30.8498	-11.9649	12.2417	0.5603	-0.3653	0.6821	0.2958
2.28	-9.4061	-0.0319	-1.8561	0.0071	-0.0075	0.0098	30.8299	-11.9825	12.3428	0.5602	-0.3652	0.6820	0.2957
2.29	-9.4393	-0.0364	-1.8963	0.0054	-0.0052	0.0133	31.3051	-11.8115	12.6828	0.5603	-0.3653	0.6821	0.2958
2.3	-9.4197	-0.0327	-1.8723	0.0061	-0.0114	0.0077	31.3762	-11.6695	12.8961	0.5603	-0.3653	0.6820	0.2958
2.31	-9.4295	-0.0443	-1.8841	-0.0005	-0.0112	0.0128	31.2027	-11.7417	12.7237	0.5602	-0.3654	0.6820	0.2958
2.32	-9.4375	-0.0366	-1.8889	-0.0039	-0.0111	0.0144	31.0038	-11.8082	12.4946	0.5602	-0.3654	0.6820	0.2959
2.33	-9.4194	-0.0555	-1.8636	0.0019	-0.0123	0.0108	30.8073	-11.9271	12.4725	0.5602	-0.3654	0.6820	0.2959
2.34	-9.4496	-0.0594	-1.8858	-0.0000	-0.0053	0.0115	30.7688	-12.2435	12.3520	0.5602	-0.3654	0.6820	0.2959
2.35	-9.4359	-0.0563	-1.8718	0.0042	-0.0087	0.0161	30.9172	-12.0164	12.2201	0.5601	-0.3654	0.6819	0.2958
2.36	-9.4256	-0.0557	-1.8643	0.0080	-0.0122	0.0087	30.7870	-11.9669	12.3627	0.5602	-0.3654	0.6820	0.2959
2.37	-9.4302	-0.0473	-1.8877	-0.0003	-0.0128	0.0118	30.8180	-11.8759	12.4039	0.5602	-0.3654	0.6820	0.2959
2.38	-9.4286	-0.0458	-1.8729	0.0046	-0.0037	0.0142	30.8117	-11.7343	12.1919	0.5602	-0.3654	0.6820	0.2959
2.39	-9.4273	-0.0455	-1.8676	0.0018	-0.0061	0.0095	30.8142	-11.9126	12.3480	0.5602	-0.3654	0.6820	0.2958
2.4	-9.4262	-0.0485	-1.8685	0.0065	-0.0086	0.0122	30.5807	-11.7230	12.4051	0.5602	-0.3654	0.6820	0.2958
2.41	-9.4353	-0.0484	-1.8779	0.0066	-0.0092	0.0142	30.7335	-11.7165	12.6035	0.5602	-0.3654	0.6820	0.2958
2.42	-9.4233	-0.0460	-1.8664	0.0041	-0.0078	0.0078	30.6573	-11.6878	12.4099	0.5601	-0.3654	0.6820	0.2958
2.43	-9.4168	-0.0474	-1.8609	0.0045	-0.0077	0.0078	30.4634	-11.8402	12.1879	0.5602	-0.3655	0.6821	0.2958
2.44	-9.4411	-0.0378	-1.8843	0.0050	-0.0008	0.0092	30.3663	-11.8680	12.3832	0.5601	-0.3655	0.6820	0.2958
2.45	-9.4277	-0.0365	-1.8760	0.0014	-0.0072	0.0078	30.5344	-11.7096	12.4249	0.5602	-0.3655	0.6821	0.2958
2.46	-9.4246	-0.0309	-1.8692	0.0022	-0.0069	0.0142	30.6708	-11.7005	12.2075	0.5601	-0.3655	0.6820	0.2957
2.47	-9.4329	-0.0234	-1.8873	0.0074	-0.0060	0.0095	30.6511	-11.7336	12.1201	0.5601	-0.3655	0.6821	0.2957
2.48	-9.4266	-0.0176	-1.8895	0.0059	-0.0134	0.0058	30.6360	-11.7992	12.5087	0.5601	-0.3655	0.6821	0.2957
2.49	-9.4235	-0.0218	-1.8827	-0.0021	-0.0126	0.0111	30.7152	-11.5642	12.3920	0.5601	-0.3655	0.6820	0.2957
2.5	-9.4189	-0.0418	-1.8708	0.0050	-0.0144	0.0132	30.7412	-11.7848	12.3231	0.5602	-0.3656	0.6821	0.2958
2.51	-9.4398	-0.0582	-1.8851	0.0038	-0.0100	0.0052	30.8530	-11.8473	12.4112	0.5601	-0.3655	0.6820	0.2957
2.52	-9.4331	-0.0716	-1.8784	0.0027	-0.0055	0.0094	30.9178	-11.7703	12.4650	0.5602	-0.3656	0.6821	0.2957
2.53	-9.4229	-0.0766	-1.8699	0.0057	-0.0116	0.0129	30.7907	-11.8487	12.5141	0.5601	-0.3655	0.6820	0.2957
2.54	-9.4345	-0.0719	-1.8736	0.0033	-0.0118	0.0117	30.7221	-11.8426	12.2570	0.5602	-0.3656	0.6820	0.2957
2.55	-9.4304	-0.0660	-1.8660	0.0079	-0.0076	0.0139	30.7336	-12.2596	12.3890	0.5601	-0.3655	0.6820	0.2957
2.56	-9.4253	-0.0591	-1.8617	0.0109	-0.0120	0.0110	30.7290	-11.8606	12.4459	0.5601	-0.3655	0.6820	0.2957
2.57	-9.4299	-0.0572	-1.8550	0.0024	-0.0112	0.0120	30.7295	-11.8593	12.1701	0.5602	-0.3655	0.6821	0.2957
2.58	-9.4381	-0.0587	-1.8582	0.0056	-0.0122	0.0135	30.7445	-11.9152	12.3162	0.5602	-0.3655	0.6820	0.2957
2.59	-9.4291	-0.0595	-1.8506	0.0047	-0.0072	0.0115	30.6998	-11.9357	12.4385	0.5602	-0.3655	0.6821	0.2957
2.6	-9.4180	-0.0681	-1.8381	0.0088	-0.0163	0.0101	30.8369	-11.7556	12.3905	0.5601	-0.3655	0.6820	0.2956
2.61	-9.4284	-0.0821	-1.8416	0.0033	-0.0074	0.0137	30.6649	-11.8167	12.4004	0.5602	-0.3655	0.6821	0.2957
2.62	-9.4200	-0.0875	-1.8348	0.0007	-0.0074	0.0140	30.5607	-11.7568	12.4165	0.5602	-0.3655	0.6820	0.2957
2.63	-9.4137	-0.0870	-1.8249	-0.0010	-0.0076	0.0104	30.7562	-11.6232	12.3174	0.5602	-0.3655	0.6821	0.2957
2.64	-9.4357	-0.0757	-1.8429	-0.0051	-0.0083	0.0063	30.6425	-11.6954	12.3138	0.5601	-0.3656	0.6820	0.2957
2.65	-9.4271	-0.0606	-1.8421	-0.0008	-0.0060	0.0092	30.6352	-11.8688	12.2959	0.5601	-0.3656	0.6820	0.2957
2.66	-9.4163	-0.0497	-1.8342	0.0025	-0.0075	0.0083	30.7037	-11.8107	12.5808	0.5601	-0.3656	0.6820	0.2957
2.67	-9.4339	-0.0435	-1.8583	0.0070	-0.0031	0.0125	30.7278	-11.8467	12.4306	0.5600	-0.3656	0.6820	0.2956
2.68	-9.4307	-0.0433	-1.8588	0.0044	-0.0093	0.0130	30.7495	-11.9860	12.1888	0.5601	-0.3657	0.6821	0.2957
2.69	-9.4259	-0.0472	-1.8557	0.0072	-0.0082	0.0122	30.8295	-11.9346	12.4040	0.5601	-0.3656	0.6821	0.2956
2.7	-9.4293	-0.0506	-1.8615	0.0054	-0.0116	0.0164	31.0465	-11.9635	12.4271	0.5601	-0.3656	0.6821	0.2957
2.71	-9.4342	-0.0505	-1.8698	0.0093	-0.0084	0.0111	30.9785	-11.9379	12.3139	0.5601	-0.3656	0.6820	0.2956
2.72	-9.4275	-0.0469	-1.8737	0.0045	-0.0049	0.0062	30.7523	-11.8600	12.3300	0.5601	-0.3656	0.6821	0.2956
2.73	-9.4183	-0.0492	-1.8636	0.0077	-0.0078	0.0083	30.7107	-11.8756	12.2716	0.5601	-0.3656	0.6821	0.2956
2.74	-9.4338	-0.0565	-1.8788	0.0057	-0.0118	0.0119	30.8124	-11.8723	12.1929	0.5601	-0.3656	0.6821	0.2956
2.75	-9.4396	-0.0637	-1.8834	0.0076	-0.0065	0.0101	30.8917	-11.8624	12.3698	0.5601	-0.3657	0.6822	0.2956
2.76	-9.4276	-0.0699	-1.8716	-0.0004	-0.0072	0.0180	30.9181	-11.8896	12.2598	0.5601	-0.3656	0.6821	0.2956
2.77	-9.4287	-0.0740	-1.8779	0.0006	-0.0029	0.0070	30.5804	-12.0368	12.4848	0.5601	-0.3657	0.6822	0.2956
2.78	-9.4351	-0.0742	-1.8891	0.0056	-0.0059	0.0074	30.6337	-12.0606	12.4144	0.5600	-0.3657	0.6821	0.2955
2.79	-9.4279	-0.0674	-1.8853	0.0059	-0.0080	0.0133	30.9511	-11.7891	12.3036	0.5600	-0.3657	0.6821	0.2955
2.8	-9.4247	-0.0639	-1.8821	0.0027	-0.0052	0.0066	31.0228	-11.6671	12.6368	0.5600	-0.3658	0.6821	0.2955
2.81	-9.4343	-0.0603	-1.8840	0.0059	-0.0043	0.0141	30.9697	-11.7535	12.4671	0.5600	-0.3658	0.6821	0.2955
2.82	-9.4329	-0.0602	-1.8914	0.0046	-0.0050	0.0059	30.7155	-11.8179	12.5911	0.5600	-0.3658	0.6821	0.2955
2.83	-9.4185	-0.0614	-1.8800	0.0092	-0.0104	0.0148	30.6485	-11.7622	12.5073	0.5600	-0.3658	0.6821	0.2955
2.84	-9.4245	-0.0591	-1.8814	0.0048	-0.0127	0.0172	30.6751	-11.7500	12.2229	0.5600	-0.3658	0.6822	0.2955
2.85	-9.4331	-0.0569	-1.8888	0.0032	-0.0090	0.0149	30.5220	-11.9177	12.6435	0.5599	-0.3657	0.6821	0.2955
2.86	-9.4227	-0.0564	-1.8781	0.0033	-0.0100	0.0159	30.6749	-11.8406	12.5722	0.5600	-0.3658	0.6822	0.2955
2.87	-9.4277	-0.0588	-1.8736	0.0041	-0.0130	0.0155	30.8507	-11.9580	12.4952	0.5600	-0.3657	0.6821	0.2955
2.88	-9.4399	-0.0529	-1.8808	0.0019	-0.0140	0.0143	30.9432	-11.8798	12.5490	0.5600	-0.3657	0.6822	0.2956
2.89	-9.4305	-0.0596	-1.8661	0.0049	-0.0192	0.0170	30.9584	-11.8929	12.4059	0.5600	-0.3657	0.6821	0.2956
2.9	-9.4285	-0.0557	-1.8602	0.0166	-0.0117	0.0140	30.8494	-11.8149	12.3363	0.5600	-0.3656	0.6821	0.2956
2.91	-9.4284	-0.0520	-1.8624	0.0125	-0.0104	0.0163	31.0713	-11.8792	12.3377	0.5600	-0.3656	0.6822	0.2956
2.92	-9.4322	-0.0486	-1.8687	0.0093	-0.0113	0.0174	30.9370	-11.9960	12.3721	0.5600	-0.3655	0.6821	0.2955
2.93	-9.4269	-0.0398	-1.8591	0.0060	-0.0063	0.0112	30.8983	-11.9346	12.3000	0.5601	-0.3656	0.6822	0.2955
2.94	-9.4264	-0.0345	-1.8507	0.0078	-0.0065	0.0107	30.8038	-11.9722	12.3055	0.5600	-0.3656	0.6822	0.2955
2.95	-9.4334	-0.0323	-1.8547	0.0084	-0.0073	0.0116	30.6573	-11.9654	12.5647	0.5601	-0.3656	0.6823	0.2955
2.96	-9.4263	-0.0343	-1.8389	0.0092	-0.0120	0.0138	30.8938	-11.8781	12.3284	0.5600	-0.3655	0.6822	0.2955
2.97	-9.4252	-0.0333	-1.8358	0.0068	-0.0110	0.0159	30.9915	-11.8610	12.4414	0.5600	-0.3655	0.6822	0.2955
2.98	-9.4319	-0.0318	-1.8399	0.0046	-0.0079	0.0117	30.8634	-11.7328	12.2866	0.5600	-0.3656	0.6822	0.2955
2.99	-9.4256	-0.0312	-1.8450	0.0066	-0.0090	0.0143	30.6961	-11.9805	12.4366	0.5600	-0.3655	0.6822	0.2955
3	-9.4257	-0.0378	-1.8497	0.0003	-0.0139	0.0120	30.7071	-11.8523	12.5239	0.5601	-0.3656	0.6823	0.2955
3.01	-9.4354	-0.0415	-1.8613	0.0016	-0.0107	0.0083	30.8702	-11.9171	12.5083	0.5600	-0.3656	0.6822	0.2955
3.02	-9.4322	-0.0427	-1.8683	0.0034	-0.0060	0.0158	30.7921	-11.7683	12.3222	0.5600	-0.3656	0.6823	0.2955
3.03	-9.4253	-0.0441	-1.8657	-0.0016	-0.0055	0.0165	30.5109	-11.9911	12.3607	0.5599	-0.3655	0.6822	0.2955
3.04	-9.4248	-0.0524	-1.8634	0.0078	-0.0079	0.0112	30.6806	-11.9182	12.4059	0.5600	-0.3656	0.6823	0.2955
3.05	-9.4359	-0.0570	-1.8711	0.0090	-0.0090	0.0069	30.7525	-11.9219	12.1809	0.5600	-0.3656	0.6822	0.2955
3.06	-9.4360	-0.0613	-1.8769	0.0060	-0.0130	0.0121	30.8874	-11.9165	12.3760	0.5600	-0.3655	0.6822	0.2955
3.07	-9.4242	-0.0681	-1.8745	0.0067	-0.0151	0.0151	30.8654	-11.7613	12.2251	0.5600	-0.3655	0.6823	0.2955
3.08	-9.4260	-0.0736	-1.8858	0.0035	-0.0090	0.0126	30.9053	-12.0486	12.2901	0.5600	-0.3655	0.6822	0.2955
3.09	-9.4267	-0.0766	-1.8903	0.0103	-0.0097	0.0177	30.9978	-11.8353	12.4123	0.5600	-0.3655	0.6823	0.2955
3.1	-9.4223	-0.0845	-1.8852	0.0041	-0.0096	0.0188	30.7852	-11.9921	12.5318	0.5600	-0.3654	0.6822	0.2955
3.11	-9.4212	-0.0796	-1.8861	-0.0008	-0.0090	0.0133	30.7833	-11.9111	12.2995	0.5600	-0.3655	0.6823	0.2955
3.12	-9.4327	-0.0836	-1.8869	0.0010	-0.0131	0.0171	30.8362	-11.9279	12.3931	0.5600	-0.3655	0.6823	0.2955
3.13	-9.4306	-0.0769	-1.8837	0.0035	-0.0168	0.0177	30.9027	-12.1721	12.4655	0.5600	-0.3654	0.6823	0.2956
3.14	-9.4225	-0.0707	-1.8719	0.0047	-0.0164	0.0161	30.7711	-11.9374	12.4828	0.5600	-0.3654	0.6822	0.2956
3.15	-9.4325	-0.0650	-1.8757	0.0094	-0.0168	0.0188	30.8064	-11.8394	12.4695	0.5600	-0.3654	0.6822	0.2956
3.16	-9.4286	-0.0504	-1.8609	0.0104	-0.0112	0.0161	30.9558	-11.9585	12.4847	0.5601	-0.3653	0.6823	0.2956
3.17	-9.4266	-0.0501	-1.8626	0.0035	-0.0077	0.0139	30.8917	-11.8857	12.3973	0.5600	-0.3653	0.6822	0.2956
3.18	-9.4269	-0.0419	-1.8585	0.0092	-0.0066	0.0123	30.7523	-11.6937	12.6416	0.5601	-0.3653	0.6823	0.2956
3.19	-9.4342	-0.0327	-1.8485	0.0072	-0.0058	0.0088	30.6997	-11.8350	12.4400	0.5600	-0.3653	0.6823	0.2956
3.2	-9.4362	-0.0318	-1.8498	-0.0003	-0.0051	0.0108	30.7170	-11.7724	12.6300	0.5601	-0.3654	0.6824	0.2956
3.21	-9.4264	-0.0370	-1.8458	-0.0008	-0.0072	0.0146	30.6963	-11.8887	12.4967	0.5600	-0.3653	0.6823	0.2956
3.22	-9.4269	-0.0408	-1.8484	0.0009	-0.0041	0.0170	30.8443	-11.8853	12.3035	0.5600	-0.3654	0.6823	0.2956
3.23	-9.4283	-0.0417	-1.8490	0.0091	-0.0053	0.0154	30.7134	-11.8345	12.3805	0.5600	-0.3653	0.6824	0.2956
3.24	-9.4198	-0.0416	-1.8442	0.0111	-0.0056	0.0169	30.7737	-11.7701	12.5345	0.5599	-0.3653	0.6823	0.2955
3.25	-9.4365	-0.0377	-1.8534	0.0021	-0.0065	0.0166	30.8895	-11.8173	12.4875	0.5600	-0.3653	0.6825	0.2956
3.26	-9.4385	-0.0364	-1.8688	0.0022	-0.0072	0.0120	30.7429	-11.8946	12.4395	0.5599	-0.3653	0.6824	0.2956
3.27	-9.4232	-0.0376	-1.8675	0.0080	-0.0066	0.0146	30.6761	-11.8662	12.3448	0.5599	-0.3653	0.6825	0.2956
3.28	-9.4207	-0.0338	-1.8740	0.0118	-0.0037	0.0080	30.8900	-11.9560	12.4217	0.5599	-0.3653	0.6824	0.2955
3.29	-9.4373	-0.0318	-1.8992	0.0056	-0.0080	0.0128	31.0468	-11.9705	12.7680	0.5599	-0.3653	0.6825	0.2955
3.3	-9.4302	-0.0311	-1.9016	0.0038	-0.0127	0.0161	31.5228	-11.8989	12.4973	0.5599	-0.3653	0.6824	0.2955
3.31	-9.4184	-0.0308	-1.9011	0.0021	-0.0101	0.0062	31.3010	-11.8340	12.6045	0.5599	-0.3653	0.6824	0.2956
3.32	-9.4408	-0.0366	-1.9156	-0.0008	-0.0092	0.0069	30.8586	-11.7589	12.6053	0.5599	-0.3654	0.6824	0.2956
3.33	-9.4374	-0.0432	-1.9102	0.0031	-0.0123	0.0073	30.8277	-11.8318	12.2828	0.5599	-0.3654	0.6824	0.2956
3.34	-9.4212	-0.0489	-1.8991	0.0042	-0.0119	0.0120	30.7491	-11.8207	12.3989	0.5599	-0.3654	0.6824	0.2956
3.35	-9.4254	-0.0510	-1.8977	-0.0023	-0.0079	0.0109	30.6771	-11.7885	12.3906	0.5598	-0.3654	0.6823	0.2956
3.36	-9.4329	-0.0435	-1.8989	0.0013	-0.0076	0.0050	30.5535	-11.8348	12.4263	0.5599	-0.3655	0.6824	0.2956
3.37	-9.4276	-0.0465	-1.8908	-0.0030	-0.0039	0.0044	30.6179	-11.7513	12.3291	0.5599	-0.3655	0.6823	0.2956
3.38	-9.4243	-0.0459	-1.8713	-0.0037	-0.0081	0.0089	30.7612	-11.7184	12.3664	0.5599	-0.3655	0.6823	0.2956
3.39	-9.4352	-0.0478	-1.8800	0.0017	-0.0031	0.0040	30.6450	-11.7117	12.5044	0.5598	-0.3656	0.6823	0.2955
3.4	-9.4318	-0.0539	-1.8786	0.0048	-0.0065	0.0090	30.5747	-11.7641	12.3673	0.5598	-0.3656	0.6823	0.2955
3.41	-9.4240	-0.0569	-1.8740	0.0030	-0.0017	0.0016	30.7338	-11.7899	12.6081	0.5598	-0.3656	0.6824	0.2955
3.42	-9.4267	-0.0597	-1.8755	0.0059	-0.0051	0.0076	30.4557	-11.6115	12.4791	0.5598	-0.3656	0.6823	0.2954
3.43	-9.4274	-0.0590	-1.8810	0.0060	-0.0088	0.0081	30.6500	-11.7592	12.2836	0.5599	-0.3657	0.6824	0.2955
3.44	-9.4225	-0.0579	-1.8710	0.0018	-0.0113	0.0079	30.6209	-11.8389	12.3326	0.5598	-0.3657	0.6823	0.2954
3.45	-9.4242	-0.0569	-1.8753	-0.0033	-0.0109	0.0139	30.8537	-11.9619	12.5283	0.5599	-0.3657	0.6824	0.2955
3.46	-9.4293	-0.0641	-1.8758	-0.0015	-0.0082	0.0083	31.0152	-12.0429	12.3791	0.5598	-0.3657	0.6823	0.2955
3.47	-9.4230	-0.0716	-1.8679	0.0014	-0.0106	0.0068	30.7672	-12.0674	12.4693	0.5598	-0.3657	0.6823	0.2955
3.48	-9.4219	-0.0796	-1.8561	0.0032	-0.0050	0.0081	30.8665	-11.8250	12.2522	0.5598	-0.3658	0.6823	0.2955
3.49	-9.4332	-0.0882	-1.8598	-0.0014	-0.0145	0.0121	30.7439	-11.8446	12.3619	0.5598	-0.3658	0.6822	0.2955
3.5	-9.4346	-0.0946	-1.8674	0.0004	-0.0081	0.0130	30.7304	-12.1074	12.5316	0.5598	-0.3658	0.6823	0.2955
3.51	-9.4178	-0.0893	-1.8530	0.0064	-0.0087	0.0139	30.7858	-11.8712	12.3596	0.5598	-0.3658	0.6823	0.2955
3.52	-9.4287	-0.0804	-1.8514	0.0063	-0.0079	0.0109	30.8311	-11.9524	12.6576	0.5598	-0.3658	0.6823	0.2955
3.53	-9.4374	-0.0732	-1.8567	0.0099	-0.0096	0.0130	30.8320	-11.9802	12.3539	0.5598	-0.3657	0.6823	0.2954
3.54	-9.4253	-0.0639	-1.8506	0.0037	-0.0095	0.0112	30.6982	-11.8559	12.4731	0.5598	-0.3658	0.6823	0.2955
3.55	-9.4307	-0.0604	-1.8638	0.0051	-0.0067	0.0047	30.8264	-11.7523	12.5828	0.5598	-0.3658	0.6823	0.2954
3.56	-9.4347	-0.0591	-1.8698	0.0015	-0.0094	0.0083	30.6986	-11.6899	12.3693	0.5598	-0.3658	0.6823	0.2954
3.57	-9.4198	-0.0666	-1.8595	0.0024	-0.0080	0.0063	30.5561	-11.8497	12.4180	0.5598	-0.3658	0.6823	0.2954
3.58	-9.4307	-0.0602	-1.8826	0.0029	-0.0030	0.0052	30.6003	-11.7488	12.2490	0.5598	-0.3659	0.6823	0.2954
3.59	-9.4251	-0.0601	-1.8801	0.0046	-0.0071	0.0098	30.5862	-11.7637	12.2049	0.5598	-0.3659	0.6823	0.2954
3.6	-9.4242	-0.0616	-1.8786	-0.0009	-0.0044	0.0133	30.5813	-11.8508	12.3059	0.5597	-0.3659	0.6822	0.2954
3.61	-9.4283	-0.0564	-1.8856	0.0069	-0.0073	0.0078	30.5955	-11.5606	12.4240	0.5598	-0.3659	0.6823	0.2954
3.62	-9.4266	-0.0571	-1.8790	0.0016	-0.0046	0.0077	30.6851	-11.6131	12.6700	0.5598	-0.3659	0.6823	0.2953
3.63	-9.4341	-0.0468	-1.8802	0.0018	-0.0138	0.0166	30.6318	-11.9016	12.3259	0.5598	-0.3659	0.6823	0.2954
3.64	-9.4296	-0.0446	-1.8796	0.0062	-0.0109	0.0136	30.8544	-11.8798	12.3124	0.5598	-0.3659	0.6823	0.2954
3.65	-9.4278	-0.0419	-1.8762	0.0046	-0.0117	0.0181	30.9170	-11.8865	12.4382	0.5598	-0.3659	0.6823	0.2954
3.66	-9.4307	-0.0275	-1.8777	0.0106	-0.0089	0.0145	30.7190	-11.8840	12.3892	0.5598	-0.3658	0.6823	0.2954
3.67	-9.4265	-0.0337	-1.8709	0.0060	-0.0104	0.0170	30.8389	-11.8838	12.4157	0.5597	-0.3658	0.6823	0.2954
3.68	-9.4276	-0.0271	-1.8754	0.0056	-0.0057	0.0064	30.7990	-11.9789	12.4036	0.5598	-0.3658	0.6824	0.2954
3.69	-9.4293	-0.0301	-1.8682	0.0000	-0.0118	0.0115	30.8955	-11.8230	12.2639	0.5598	-0.3658	0.6823	0.2954
3.7	-9.4347	-0.0328	-1.8746	-0.0002	-0.0167	0.0089	30.8438	-11.7807	12.4569	0.5598	-0.3659	0.6824	0.2954
3.71	-9.4231	-0.0411	-1.8608	0.0009	-0.0087	0.0169	30.8166	-11.8952	12.6081	0.5598	-0.3658	0.6823	0.2954
3.72	-9.4300	-0.0506	-1.8606	0.0024	-0.0181	0.0133	30.9089	-12.0947	12.4534	0.5598	-0.3658	0.6823	0.2954
3.73	-9.4362	-0.0491	-1.8649	0.0066	-0.0145	0.0109	30.9410	-11.6450	12.5595	0.5598	-0.3658	0.6823	0.2954
3.74	-9.4294	-0.0586	-1.8633	0.0013	-0.0083	0.0114	30.6764	-11.7040	12.5808	0.5598	-0.3658	0.6822	0.2954
3.75	-9.4263	-0.0552	-1.8695	-0.0014	-0.0125	0.0066	30.5630	-11.8278	12.5711	0.5599	-0.3659	0.6823	0.2955
3.76	-9.4263	-0.0506	-1.8660	0.0009	-0.0101	0.0115	30.5723	-11.6815	12.4343	0.5598	-0.3659	0.6822	0.2955
3.77	-9.4305	-0.0538	-1.8774	-0.0007	-0.0068	0.0039	30.6536	-11.7880	12.5859	0.5598	-0.3660	0.6822	0.2955
3.78	-9.4220	-0.0532	-1.8719	0.0006	-0.0086	0.0016	30.5721	-11.9073	12.4813	0.5598	-0.3660	0.6821	0.2954
3.79	-9.4277	-0.0520	-1.8662	0.0031	-0.0048	0.0023	30.8076	-11.7617	12.5041	0.5598	-0.3660	0.6822	0.2954
3.8	-9.4343	-0.0504	-1.8779	-0.0002	-0.0093	0.0072	31.2501	-11.5351	12.7933	0.5598	-0.3661	0.6821	0.2954
3.81	-9.4315	-0.0464	-1.8773	0.0035	-0.0158	0.0162	31.1067	-11.5960	12.6430	0.5598	-0.3661	0.6821	0.2955
3.82	-9.4278	-0.0416	-1.8827	0.0013	-0.0123	0.0124	31.0686	-11.8588	12.3775	0.5598	-0.3662	0.6821	0.2956
3.83	-9.4255	-0.0369	-1.8917	0.0033	-0.0102	0.0164	30.8038	-11.9481	12.4927	0.5598	-0.3661	0.6821	0.2956
3.84	-9.4257	-0.0370	-1.8907	-0.0021	-0.0083	0.0125	30.6657	-12.0060	12.5767	0.5598	-0.3662	0.6821	0.2956
3.85	-9.4192	-0.0373	-1.8870	-0.0010	-0.0183	0.0179	31.0492	-12.0524	12.4347	0.5597	-0.3661	0.6820	0.2956
3.86	-9.4345	-0.0495	-1.8937	0.0024	-0.0123	0.0179	30.9649	-11.7707	12.4826	0.5598	-0.3662	0.6821	0.2957
3.87	-9.4370	-0.0575	-1.8946	-0.0026	-0.0117	0.0162	30.7713	-11.9815	12.6767	0.5597	-0.3661	0.6820	0.2957
3.88	-9.4235	-0.0703	-1.8879	-0.0030	-0.0168	0.0194	30.7126	-11.7569	12.0291	0.5598	-0.3661	0.6820	0.2958
3.89	-9.4206	-0.0809	-1.8746	-0.0043	-0.0129	0.0168	30.6644	-11.9891	12.3404	0.5597	-0.3661	0.6820	0.2958
3.9	-9.4311	-0.0807	-1.8710	0.0054	-0.0160	0.0156	30.7189	-11.8503	12.4133	0.5597	-0.3661	0.6820	0.2958
3.91	-9.4353	-0.0859	-1.8638	0.0078	-0.0167	0.0158	30.9643	-11.8375	12.2395	0.5598	-0.3661	0.6820	0.2959
3.92	-9.4238	-0.0800	-1.8515	0.0120	-0.0100	0.0147	30.8191	-12.0021	12.5902	0.5597	-0.3660	0.6820	0.2958
3.93	-9.4327	-0.0839	-1.8598	0.0037	-0.0134	0.0156	30.8675	-11.7994	12.5031	0.5598	-0.3660	0.6820	0.2959
3.94	-9.4287	-0.0904	-1.8560	0.0036	-0.0091	0.0140	30.7834	-11.9079	12.5748	0.5598	-0.3660	0.6820	0.2959
3.95	-9.4227	-0.0910	-1.8408	0.0020	-0.0164	0.0156	30.7761	-11.7682	12.4448	0.5598	-0.3660	0.6820	0.2959
3.96	-9.4215	-0.0984	-1.8456	0.0035	-0.0146	0.0135	30.6589	-11.7831	12.4536	0.5598	-0.3660	0.6819	0.2959
3.97	-9.4264	-0.1110	-1.8486	0.0070	-0.0139	0.0078	30.6195	-11.9881	12.4183	0.5598	-0.3660	0.6820	0.2959
3.98	-9.4253	-0.1137	-1.8408	0.0080	-0.0147	0.0144	30.6941	-11.8959	12.3606	0.5599	-0.3660	0.6820	0.2959
3.99	-9.4257	-0.1048	-1.8390	0.0033	-0.0212	0.0180	30.7375	-11.7717	12.5846	0.5599	-0.3659	0.6819	0.2959
4	-9.4314	-0.0902	-1.8400	0.0082	-0.0124	0.0164	30.8587	-11.6951	12.3858	0.5600	-0.3659	0.6820	0.2960
4.01	-9.4301	-0.0822	-1.8470	0.0048	-0.0146	0.0162	30.8664	-11.6605	12.2496	0.5599	-0.3659	0.6819	0.2960
4.02	-9.4304	-0.0713	-1.8567	0.0113	-0.0136	0.0162	30.9701	-11.8042	12.2667	0.5600	-0.3658	0.6820	0.2960
4.03	-9.4260	-0.0706	-1.8744	0.0020	-0.0140	0.0186	30.8183	-11.9616	12.3705	0.5599	-0.3658	0.6819	0.2960
4.04	-9.4265	-0.0633	-1.8816	0.0113	-0.0133	0.0194	30.9625	-11.9302	12.4611	0.5600	-0.3658	0.6820	0.2960
4.05	-9.4238	-0.0590	-1.8831	0.0122	-0.0117	0.0172	30.7230	-11.7704	12.3049	0.5600	-0.3657	0.6820	0.2960
4.06	-9.4248	-0.0404	-1.8881	0.0016	-0.0111	0.0202	30.9265	-11.8549	12.4532	0.5600	-0.3657	0.6820	0.2960
4.07	-9.4230	-0.0148	-1.8867	0.0137	-0.0152	0.0161	30.8304	-11.7614	12.5389	0.5600	-0.3656	0.6820	0.2960
4.08	-9.4248	0.0033	-1.8908	0.0116	-0.0118	0.0168	30.6187	-11.8054	12.5320	0.5600	-0.3656	0.6820	0.2960
4.09	-9.4240	0.0228	-1.8864	0.0138	-0.0127	0.0177	30.7665	-11.9130	12.3047	0.5600	-0.3655	0.6820	0.2960
4.1	-9.4270	0.0207	-1.8878	0.0121	-0.0126	0.0131	30.7748	-12.0460	12.2437	0.5600	-0.3655	0.6820	0.2959
4.11	-9.4416	0.0185	-1.8987	0.0050	-0.0112	0.0142	30.6531	-11.9865	12.5233	0.5601	-0.3655	0.6821	0.2960
4.12	-9.4360	0.0124	-1.8980	0.0127	-0.0155	0.0170	30.7296	-11.9735	12.3517	0.5601	-0.3654	0.6820	0.2960
4.13	-9.4231	0.0070	-1.8916	0.0058	-0.0089	0.0154	30.8024	-12.0162	12.1759	0.5601	-0.3654	0.6821	0.2960
4.14	-9.4287	-0.0031	-1.8928	0.0019	-0.0118	0.0104	30.6514	-11.6276	12.2539	0.5601	-0.3654	0.6820	0.2960
4.15	-9.4306	-0.0202	-1.8991	0.0042	-0.0083	0.0135	30.9481	-11.9772	12.5718	0.5601	-0.3654	0.6820	0.2960
4.16	-9.4268	-0.0286	-1.8768	0.0080	-0.0127	0.0196	30.8158	-11.8472	12.6033	0.5601	-0.3654	0.6821	0.2960
4.17	-9.4326	-0.0316	-1.8734	-0.0005	-0.0116	0.0154	30.6738	-11.9462	12.4314	0.5600	-0.3653	0.6820	0.2960
4.18	-9.4339	-0.0399	-1.8708	0.0074	-0.0117	0.0160	30.5801	-12.0222	12.3481	0.5601	-0.3654	0.6821	0.2960
4.19	-9.4271	-0.0456	-1.8597	0.0039	-0.0142	0.0165	30.6676	-11.7956	12.5306	0.5601	-0.3653	0.6820	0.2960
4.2	-9.4174	-0.0544	-1.8535	0.0030	-0.0179	0.0131	31.0688	-11.9395	12.4795	0.5602	-0.3653	0.6821	0.2961
4.21	-9.4225	-0.0720	-1.8564	0.0022	-0.0167	0.0174	30.8010	-11.9458	12.4442	0.5601	-0.3652	0.6820	0.2961
4.22	-9.4350	-0.0671	-1.8628	0.0045	-0.0087	0.0163	30.6749	-11.9218	12.3260	0.5601	-0.3653	0.6820	0.2961
4.23	-9.4253	-0.0643	-1.8518	0.0086	-0.0172	0.0143	30.8339	-11.8298	12.4279	0.5602	-0.3652	0.6820	0.2961
4.24	-9.4209	-0.0590	-1.8492	0.0051	-0.0163	0.0116	30.8655	-11.8760	12.4534	0.5602	-0.3652	0.6820	0.2961
4.25	-9.4321	-0.0665	-1.8591	0.0092	-0.0093	0.0090	30.7193	-11.8381	12.4565	0.5603	-0.3652	0.6821	0.2961
4.26	-9.4307	-0.0716	-1.8655	0.0039	-0.0104	0.0107	30.7143	-11.9004	12.5495	0.5602	-0.3652	0.6820	0.2961
4.27	-9.4254	-0.0832	-1.8585	-0.0000	-0.0120	0.0167	30.9710	-11.9632	12.3357	0.5602	-0.3652	0.6820	0.2961
4.28	-9.4256	-0.0860	-1.8664	0.0062	-0.0115	0.0164	30.8145	-11.8491	12.4566	0.5602	-0.3651	0.6819	0.2961
4.29	-9.4271	-0.0777	-1.8692	0.0055	-0.0125	0.0121	30.9589	-11.8509	12.6701	0.5602	-0.3652	0.6820	0.2961
4.3	-9.4259	-0.0746	-1.8720	0.0035	-0.0102	0.0117	31.1755	-11.8648	12.7564	0.5602	-0.3651	0.6820	0.2961
4.31	-9.4245	-0.0703	-1.8764	0.0008	-0.0050	0.0111	31.0574	-11.7969	12.6115	0.5602	-0.3652	0.6820	0.2961
4.32	-9.4297	-0.0733	-1.8878	0.0018	-0.0049	0.0079	30.8497	-11.8596	12.5440	0.5602	-0.3652	0.6820	0.2961
4.33	-9.4327	-0.0755	-1.8947	-0.0029	-0.0093	0.0077	30.5767	-11.8353	12.4051	0.5602	-0.3652	0.6820	0.2961
4.34	-9.4301	-0.0664	-1.8978	0.0049	-0.0018	0.0096	30.5782	-11.7222	12.2643	0.5602	-0.3652	0.6820	0.2961
4.35	-9.4335	-0.0535	-1.8947	-0.0008	-0.0036	0.0130	30.7007	-11.7621	12.4080	0.5601	-0.3652	0.6820	0.2961
4.36	-9.4362	-0.0422	-1.8883	0.0017	-0.0090	0.0087	30.7783	-11.6120	12.4096	0.5602	-0.3653	0.6820	0.2961
4.37	-9.4277	-0.0382	-1.8876	0.0041	-0.0108	0.0123	30.6130	-11.5774	12.3480	0.5601	-0.3653	0.6820	0.2961
4.38	-9.4274	-0.0393	-1.8827	0.0005	-0.0088	0.0137	30.6504	-11.8130	12.2791	0.5602	-0.3653	0.6820	0.2961
4.39	-9.4271	-0.0450	-1.8872	-0.0004	-0.0116	0.0121	30.8771	-11.9127	12.5153	0.5601	-0.3653	0.6820	0.2962
4.4	-9.4219	-0.0467	-1.8743	-0.0007	-0.0134	0.0128	31.0546	-11.8923	12.3794	0.5601	-0.3653	0.6820	0.2962
4.41	-9.4251	-0.0464	-1.8814	-0.0046	-0.0177	0.0126	30.7713	-11.9049	12.2354	0.5602	-0.3653	0.6820	0.2962
4.42	-9.4186	-0.0581	-1.8631	0.0018	-0.0131	0.0127	30.8442	-11.8993	12.2336	0.5601	-0.3653	0.6819	0.2962
4.43	-9.4381	-0.0686	-1.8612	0.0041	-0.0060	0.0138	30.9449	-11.8975	12.4097	0.5602	-0.3653	0.6820	0.2963
4.44	-9.4514	-0.0633	-1.8837	0.0028	-0.0093	0.0140	30.7987	-12.0550	12.3300	0.5601	-0.3653	0.6819	0.2963
4.45	-9.4158	-0.0546	-1.8546	-0.0000	-0.0123	0.0124	30.7282	-12.0350	12.4588	0.5602	-0.3653	0.6820	0.2963
4.46	-9.4305	-0.0533	-1.8624	0.0057	-0.0149	0.0122	30.9741	-11.8559	12.2880	0.5601	-0.3652	0.6819	0.2963
4.47	-9.4385	-0.0544	-1.8709	0.0009	-0.0090	0.0150	30.8687	-11.9529	12.4613	0.5602	-0.3653	0.6819	0.2963
4.48	-9.4217	-0.0493	-1.8510	0.0010	-0.0154	0.0081	30.7421	-11.9597	12.3351	0.5602	-0.3653	0.6819	0.2963
4.49	-9.4274	-0.0449	-1.8592	0.0000	-0.0153	0.0077	30.7696	-11.8102	12.3011	0.5602	-0.3653	0.6818	0.2963
4.5	-9.4313	-0.0489	-1.8607	0.0028	-0.0098	0.0105	30.8779	-11.8150	12.4224	0.5602	-0.3653	0.6819	0.2963
4.51	-9.4255	-0.0499	-1.8616	-0.0027	-0.0176	0.0078	30.7863	-11.7099	12.5308	0.5602	-0.3653	0.6818	0.2963
4.52	-9.4205	-0.0547	-1.8562	0.0020	-0.0120	0.0080	30.5979	-11.7672	12.3980	0.5603	-0.3653	0.6818	0.2964
4.53	-9.4377	-0.0579	-1.8714	-0.0002	-0.0086	0.0051	30.5916	-11.6549	12.4071	0.5602	-0.3653	0.6817	0.2963
4.54	-9.4266	-0.0539	-1.8605	0.0044	-0.0063	0.0060	30.8473	-11.5447	12.3615	0.5602	-0.3654	0.6818	0.2963
4.55	-9.4248	-0.0561	-1.8611	0.0020	-0.0097	0.0097	30.7770	-11.7681	12.5032	0.5602	-0.3654	0.6818	0.2963
4.56	-9.4442	-0.0475	-1.8740	0.0007	-0.0100	0.0150	30.5706	-11.6365	12.6194	0.5602	-0.3654	0.6818	0.2963
4.57	-9.4259	-0.0457	-1.8625	0.0002	-0.0064	0.0077	30.6248	-11.7811	12.3586	0.5602	-0.3654	0.6818	0.2964
4.58	-9.4258	-0.0452	-1.8709	0.0003	-0.0096	0.0121	30.7212	-12.0385	12.4244	0.5602	-0.3654	0.6818	0.2964
4.59	-9.4333	-0.0431	-1.8813	0.0006	-0.0156	0.0120	30.8301	-11.9690	12.4029	0.5603	-0.3654	0.6818	0.2964
4.6	-9.4250	-0.0474	-1.8768	-0.0021	-0.0086	0.0064	30.9327	-11.9767	12.4112	0.5602	-0.3654	0.6817	0.2964
4.61	-9.4208	-0.0546	-1.8750	-0.0027	-0.0059	0.0069	30.9314	-12.0086	12.4184	0.5602	-0.3655	0.6817	0.2964
4.62	-9.4242	-0.0538	-1.8783	0.0123	-0.0069	0.0070	30.7818	-11.9111	12.3879	0.5602	-0.3655	0.6817	0.2963
4.63	-9.4313	-0.0602	-1.8812	0.0034	-0.0175	0.0123	30.7621	-11.9853	12.4825	0.5603	-0.3655	0.6817	0.2964
4.64	-9.4298	-0.0690	-1.8783	0.0034	-0.0093	0.0132	30.8376	-11.8794	12.5074	0.5602	-0.3655	0.6817	0.2964
4.65	-9.4324	-0.0694	-1.8785	0.0076	-0.0121	0.0143	30.9964	-11.9561	12.3595	0.5603	-0.3655	0.6817	0.2964
4.66	-9.4401	-0.0699	-1.8890	-0.0007	-0.0114	0.0138	30.7953	-11.8994	12.2953	0.5603	-0.3655	0.6817	0.2964
4.67	-9.4261	-0.0655	-1.8797	-0.0009	-0.0128	0.0131	30.7753	-11.7721	12.3936	0.5602	-0.3654	0.6816	0.2964
4.68	-9.4242	-0.0563	-1.8711	-0.0007	-0.0072	0.0095	30.7292	-11.8598	12.5189	0.5603	-0.3655	0.6817	0.2964
4.69	-9.4340	-0.0625	-1.8771	0.0058	-0.0075	0.0050	30.7283	-11.7744	12.4524	0.5602	-0.3655	0.6817	0.2964
4.7	-9.4290	-0.0659	-1.8721	0.0008	-0.0100	0.0050	30.4898	-11.7073	12.3205	0.5603	-0.3656	0.6817	0.2964
4.71	-9.4271	-0.0686	-1.8684	0.0026	-0.0080	0.0049	30.4345	-11.9399	12.2156	0.5602	-0.3655	0.6816	0.2964
4.72	-9.4266	-0.0768	-1.8712	0.0050	-0.0068	0.0069	30.7569	-11.7648	12.2285	0.5603	-0.3656	0.6816	0.2964
4.73	-9.4276	-0.0751	-1.8661	0.0082	-0.0110	0.0093	30.5149	-11.7463	12.4177	0.5603	-0.3656	0.6816	0.2963
4.74	-9.4251	-0.0779	-1.8633	0.0043	-0.0117	0.0076	30.7895	-11.7110	12.6074	0.5603	-0.3656	0.6816	0.2963
4.75	-9.4240	-0.0678	-1.8552	0.0133	-0.0124	0.0097	30.7475	-11.9570	12.4555	0.5604	-0.3656	0.6817	0.2963
4.76	-9.4316	-0.0628	-1.8695	0.0113	-0.0098	0.0094	30.9303	-12.0924	12.5519	0.5603	-0.3656	0.6816	0.2963
4.77	-9.4352	-0.0608	-1.8680	0.0040	-0.0049	0.0086	30.8727	-12.0643	12.3590	0.5604	-0.3656	0.6817	0.2963
4.78	-9.4311	-0.0537	-1.8704	0.0010	-0.0120	0.0093	30.8399	-11.9923	12.2969	0.5603	-0.3656	0.6816	0.2962
4.79	-9.4361	-0.0472	-1.8803	0.0031	-0.0136	0.0125	30.9510	-11.8666	12.4491	0.5604	-0.3656	0.6816	0.2963
4.8	-9.4209	-0.0495	-1.8768	0.0016	-0.0142	0.0148	31.2430	-11.9232	12.5545	0.5604	-0.3656	0.6816	0.2963
4.81	-9.4188	-0.0469	-1.8735	0.0056	-0.0133	0.0152	31.1106	-11.8241	12.6200	0.5604	-0.3655	0.6816	0.2963
4.82	-9.4283	-0.0408	-1.8760	0.0139	-0.0182	0.0152	30.7772	-11.7512	12.5158	0.5604	-0.3655	0.6816	0.2963
4.83	-9.4360	-0.0326	-1.8732	0.0091	-0.0060	0.0109	30.7158	-11.8634	12.2494	0.5604	-0.3655	0.6816	0.2963
4.84	-9.4310	-0.0319	-1.8715	0.0155	-0.0156	0.0181	30.8639	-11.9368	12.5042	0.5605	-0.3654	0.6816	0.2963
4.85	-9.4273	-0.0342	-1.8776	0.0043	-0.0191	0.0176	30.7511	-11.9531	12.4654	0.5604	-0.3654	0.6815	0.2963
4.86	-9.4292	-0.0349	-1.8824	0.0066	-0.0097	0.0122	30.8588	-11.8410	12.2747	0.5605	-0.3654	0.6816	0.2963
4.87	-9.4274	-0.0420	-1.8846	0.0120	-0.0177	0.0097	30.8265	-11.8693	12.3026	0.5605	-0.3654	0.6816	0.2963
4.88	-9.4281	-0.0418	-1.8898	0.0072	-0.0113	0.0157	30.6105	-11.8634	12.6271	0.5606	-0.3653	0.6816	0.2963
4.89	-9.4283	-0.0436	-1.8904	0.0026	-0.0181	0.0158	30.4932	-11.8711	12.4982	0.5605	-0.3653	0.6815	0.2963
4.9	-9.4273	-0.0463	-1.8907	0.0018	-0.0108	0.0146	30.6516	-11.8654	12.3960	0.5606	-0.3653	0.6816	0.2963
4.91	-9.4275	-0.0490	-1.8752	0.0114	-0.0076	0.0139	30.6824	-11.8634	12.6639	0.5606	-0.3653	0.6816	0.2963
4.92	-9.4261	-0.0495	-1.8676	0.0066	-0.0174	0.0182	30.6696	-11.8748	12.3352	0.5605	-0.3652	0.6815	0.2963
4.93	-9.4336	-0.0554	-1.8737	0.0126	-0.0161	0.0173	30.6944	-11.7544	12.2426	0.5606	-0.3652	0.6816	0.2963
4.94	-9.4268	-0.0579	-1.8714	0.0074	-0.0149	0.0191	30.7909	-11.8220	12.5194	0.5606	-0.3651	0.6816	0.2963
4.95	-9.4196	-0.0643	-1.8749	0.0069	-0.0099	0.0135	30.6972	-11.8901	12.2902	0.5607	-0.3652	0.6816	0.2964
4.96	-9.4300	-0.0670	-1.8753	0.0140	-0.0116	0.0152	30.5893	-11.8418	12.5514	0.5606	-0.3651	0.6816	0.2963
4.97	-9.4374	-0.0609	-1.8797	0.0054	-0.0168	0.0146	30.5884	-11.9045	12.4655	0.5607	-0.3651	0.6816	0.2963
4.98	-9.4292	-0.0599	-1.8782	0.0069	-0.0137	0.0193	30.8027	-11.9551	12.2728	0.5607	-0.3650	0.6816	0.2963
4.99	-9.4223	-0.0539	-1.8687	0.0091	-0.0163	0.0161	30.9090	-11.9360	12.4707	0.5607	-0.3650	0.6815	0.2963
5	-9.4349	-0.0521	-1.8749	0.0096	-0.0173	0.0154	30.9551	-12.0298	12.3969	0.5608	-0.3650	0.6816	0.2964
5.01	-9.4275	-0.0494	-1.8717	0.0060	-0.0180	0.0186	30.8398	-11.9054	12.3660	0.5608	-0.3649	0.6816	0.2964
5.02	-9.4230	-0.0429	-1.8631	0.0056	-0.0137	0.0107	30.7392	-11.7815	12.2373	0.5608	-0.3649	0.6816	0.2964
5.03	-9.4409	-0.0453	-1.8775	0.0113	-0.0166	0.0160	30.7571	-11.7872	12.4253	0.5608	-0.3648	0.6815	0.2964
5.04	-9.4324	-0.0429	-1.8706	0.0018	-0.0199	0.0178	30.7755	-11.8581	12.6439	0.5609	-0.3648	0.6815	0.2964
5.05	-9.4163	-0.0430	-1.8599	-0.0001	-0.0159	0.0066	30.8322	-11.6006	12.4141	0.5609	-0.3648	0.6815	0.2964
5.06	-9.4264	-0.0440	-1.8644	0.0033	-0.0098	0.0140	30.6565	-11.8970	12.4246	0.5609	-0.3648	0.6815	0.2964
5.07	-9.4391	-0.0468	-1.8683	0.0045	-0.0144	0.0116	30.6835	-11.7453	12.5201	0.5609	-0.3648	0.6815	0.2965
5.08	-9.4291	-0.0480	-1.8651	-0.0037	-0.0211	0.0158	30.6797	-11.9622	12.5034	0.5609	-0.3648	0.6814	0.2965
5.09	-9.4230	-0.0496	-1.8600	0.0027	-0.0160	0.0116	30.8589	-11.8313	12.1291	0.5610	-0.3648	0.6815	0.2965
5.1	-9.4336	-0.0571	-1.8753	0.0043	-0.0164	0.0147	30.8165	-11.7344	12.3483	0.5609	-0.3647	0.6814	0.2965
5.11	-9.4332	-0.0548	-1.8650	-0.0004	-0.0125	0.0195	30.9710	-12.0123	12.4386	0.5610	-0.3648	0.6814	0.2966
5.12	-9.4194	-0.0579	-1.8581	0.0029	-0.0172	0.0183	30.8269	-11.8653	12.3104	0.5610	-0.3647	0.6814	0.2966
5.13	-9.4278	-0.0626	-1.8655	0.0056	-0.0184	0.0158	30.7220	-11.8811	12.3563	0.5610	-0.3647	0.6814	0.2967
5.14	-9.4346	-0.0553	-1.8721	0.0096	-0.0160	0.0162	30.8712	-11.7528	12.3366	0.5610	-0.3646	0.6814	0.2967
5.15	-9.4270	-0.0565	-1.8748	0.0045	-0.0181	0.0152	30.5927	-11.8200	12.2062	0.5610	-0.3646	0.6814	0.2967
5.16	-9.4287	-0.0521	-1.8876	0.0019	-0.0184	0.0146	30.8435	-11.8755	12.3416	0.5611	-0.3646	0.6814	0.2967
5.17	-9.4332	-0.0532	-1.8877	0.0111	-0.0175	0.0113	31.0520	-11.8529	12.2687	0.5610	-0.3646	0.6813	0.2967
5.18	-9.4232	-0.0550	-1.8786	0.0138	-0.0142	0.0131	30.8621	-11.8513	12.2513	0.5612	-0.3646	0.6813	0.2967
5.19	-9.4229	-0.0530	-1.8758	0.0057	-0.0132	0.0112	30.7436	-11.8974	12.2463	0.5611	-0.3646	0.6813	0.2967
5.2	-9.4348	-0.0533	-1.8786	0.0119	-0.0139	0.0105	30.7641	-11.9787	12.3174	0.5612	-0.3646	0.6814	0.2967
5.21	-9.4308	-0.0544	-1.8780	0.0085	-0.0085	0.0122	30.7723	-11.8442	12.3627	0.5612	-0.3645	0.6813	0.2967
5.22	-9.4239	-0.0559	-1.8778	0.0080	-0.0103	0.0156	30.7239	-11.8711	12.4299	0.5612	-0.3645	0.6813	0.2967
5.23	-9.4286	-0.0527	-1.8796	0.0064	-0.0179	0.0113	30.8491	-11.8576	12.4413	0.5612	-0.3645	0.6813	0.2967
5.24	-9.4313	-0.0569	-1.8738	0.0014	-0.0127	0.0066	30.6962	-11.8656	12.4050	0.5612	-0.3645	0.6812	0.2967
5.25	-9.4250	-0.0589	-1.8696	0.0048	-0.0145	0.0167	30.5831	-11.8692	12.4631	0.5613	-0.3645	0.6813	0.2967
5.26	-9.4243	-0.0587	-1.8695	0.0075	-0.0175	0.0127	30.8353	-11.7288	12.4827	0.5613	-0.3644	0.6812	0.2967
5.27	-9.4308	-0.0525	-1.8712	0.0015	-0.0131	0.0113	30.6545	-11.8829	12.4371	0.5613	-0.3645	0.6813	0.2967
5.28	-9.4286	-0.0521	-1.8711	0.0014	-0.0142	0.0101	30.7488	-11.7593	12.7231	0.5613	-0.3644	0.6812	0.2967
5.29	-9.4236	-0.0550	-1.8651	0.0054	-0.0116	0.0140	30.9617	-11.9188	12.6802	0.5613	-0.3644	0.6812	0.2967
5.3	-9.4318	-0.0589	-1.8718	0.0076	-0.0118	0.0100	31.0064	-11.8985	12.7077	0.5613	-0.3644	0.6812	0.2967
5.31	-9.4311	-0.0639	-1.8685	0.0046	-0.0123	0.0113	30.9602	-11.8711	12.6846	0.5613	-0.3644	0.6812	0.2967
5.32	-9.4250	-0.0713	-1.8673	0.0022	-0.0156	0.0146	30.9443	-12.0522	12.6234	0.5614	-0.3644	0.6812	0.2968
5.33	-9.4285	-0.0713	-1.8649	0.0002	-0.0133	0.0122	30.8017	-11.8226	12.5228	0.5614	-0.3644	0.6812	0.2968
5.34	-9.4350	-0.0700	-1.8802	-0.0054	-0.0123	0.0105	30.9705	-11.9150	12.4759	0.5614	-0.3644	0.6812	0.2968
5.35	-9.4215	-0.0612	-1.8690	-0.0033	-0.0118	0.0171	31.0105	-12.0898	12.5078	0.5613	-0.3644	0.6811	0.2968
5.36	-9.4229	-0.0551	-1.8678	0.0038	-0.0124	0.0151	30.7799	-12.0218	12.4796	0.5614	-0.3644	0.6812	0.2969
5.37	-9.4320	-0.0503	-1.8706	0.0026	-0.0083	0.0119	30.7287	-11.8225	12.3343	0.5613	-0.3644	0.6811	0.2969
5.38	-9.4275	-0.0484	-1.8666	0.0041	-0.0137	0.0095	30.8050	-11.7963	12.2913	0.5614	-0.3644	0.6811	0.2969
5.39	-9.4220	-0.0501	-1.8697	0.0014	-0.0089	0.0085	30.4451	-11.8401	12.3158	0.5614	-0.3644	0.6811	0.2969
5.4	-9.4294	-0.0551	-1.8721	0.0045	-0.0113	0.0145	30.7090	-11.8849	12.5352	0.5614	-0.3644	0.6811	0.2969
5.41	-9.4334	-0.0573	-1.8769	0.0036	-0.0113	0.0141	30.8428	-11.7775	12.4244	0.5614	-0.3644	0.6811	0.2969
5.42	-9.4273	-0.0573	-1.8771	-0.0070	-0.0046	0.0123	30.6223	-11.8421	12.3030	0.5613	-0.3644	0.6811	0.2969
5.43	-9.4256	-0.0459	-1.8847	0.0063	-0.0100	0.0093	30.7119	-11.6910	12.2992	0.5614	-0.3645	0.6811	0.2969
5.44	-9.4342	-0.0398	-1.8869	-0.0012	-0.0064	0.0115	30.6047	-11.7762	12.6125	0.5613	-0.3645	0.6811	0.2969
5.45	-9.4296	-0.0328	-1.8869	0.0003	-0.0098	0.0127	30.5879	-11.6397	12.4176	0.5614	-0.3645	0.6812	0.2970
5.46	-9.4217	-0.0334	-1.8835	-0.0004	-0.0052	0.0126	30.5771	-11.6745	12.2851	0.5613	-0.3645	0.6811	0.2969
5.47	-9.4276	-0.0343	-1.8827	-0.0068	-0.0129	0.0108	30.7192	-11.7027	12.5284	0.5613	-0.3645	0.6811	0.2970
5.48	-9.4357	-0.0399	-1.8863	-0.0005	-0.0117	0.0067	30.3841	-11.6786	12.4479	0.5613	-0.3646	0.6811	0.2970
5.49	-9.4262	-0.0488	-1.8759	-0.0054	-0.0143	0.0090	30.3847	-11.8158	12.4957	0.5613	-0.3646	0.6810	0.2970
5.5	-9.4292	-0.0560	-1.8800	-0.0011	-0.0142	0.0163	30.6228	-11.9345	12.3757	0.5613	-0.3646	0.6811	0.2971
5.51	-9.4361	-0.0578	-1.8880	-0.0012	-0.0109	0.0171	30.8651	-12.0842	12.2811	0.5613	-0.3646	0.6810	0.2971
5.52	-9.4237	-0.0545	-1.8766	-0.0036	-0.0064	0.0116	30.8866	-12.0645	12.4007	0.5613	-0.3646	0.6810	0.2971
5.53	-9.4234	-0.0559	-1.8726	0.0023	-0.0110	0.0106	30.7275	-11.9693	12.4005	0.5612	-0.3646	0.6810	0.2971
5.54	-9.4296	-0.0464	-1.8755	0.0008	-0.0153	0.0082	30.7495	-11.7942	12.2953	0.5613	-0.3646	0.6810	0.2971
5.55	-9.4288	-0.0466	-1.8667	-0.0006	-0.0167	0.0156	30.7930	-12.1005	12.3078	0.5613	-0.3646	0.6810	0.2972
5.56	-9.4237	-0.0455	-1.8633	0.0008	-0.0135	0.0137	30.8578	-11.9715	12.3838	0.5613	-0.3646	0.6809	0.2972
5.57	-9.4297	-0.0511	-1.8656	-0.0015	-0.0135	0.0149	30.7276	-11.9724	12.5064	0.5613	-0.3646	0.6809	0.2972
5.58	-9.4312	-0.0565	-1.8666	-0.0003	-0.0124	0.0109	30.7586	-11.9931	12.3532	0.5613	-0.3646	0.6809	0.2972
5.59	-9.4263	-0.0553	-1.8669	0.0008	-0.0117	0.0112	30.7481	-11.9202	12.4741	0.5613	-0.3646	0.6809	0.2973
5.6	-9.4303	-0.0648	-1.8698	-0.0029	-0.0116	0.0107	30.7398	-11.8764	12.5025	0.5613	-0.3646	0.6808	0.2973
5.61	-9.4351	-0.0691	-1.8754	-0.0033	-0.0089	0.0130	30.7640	-11.9121	12.3558	0.5613	-0.3647	0.6809	0.2973
5.62	-9.4267	-0.0685	-1.8643	-0.0013	-0.0120	0.0049	30.7144	-11.7162	12.4686	0.5613	-0.3647	0.6808	0.2973
5.63	-9.4243	-0.0631	-1.8718	0.0011	-0.0086	0.0078	30.5844	-11.8123	12.7028	0.5613	-0.3647	0.6809	0.2973
5.64	-9.4295	-0.0605	-1.8727	0.0020	-0.0070	0.0101	30.5717	-11.8131	12.4452	0.5613	-0.3647	0.6808	0.2973
5.65	-9.4252	-0.0614	-1.8674	-0.0016	-0.0084	0.0059	30.6219	-11.7171	12.3786	0.5613	-0.3648	0.6808	0.2973
5.66	-9.4241	-0.0561	-1.8719	0.0003	-0.0071	0.0112	30.6849	-11.7238	12.3978	0.5613	-0.3648	0.6808	0.2973
5.67	-9.4279	-0.0565	-1.8788	-0.0021	-0.0036	0.0066	30.6573	-11.8045	12.3898	0.5612	-0.3648	0.6808	0.2973
5.68	-9.4377	-0.0571	-1.8815	0.0009	-0.0122	0.0126	30.7632	-11.9094	12.4004	0.5613	-0.3648	0.6808	0.2973
5.69	-9.4250	-0.0572	-1.8797	0.0022	-0.0144	0.0152	30.7624	-11.9053	12.4084	0.5613	-0.3648	0.6808	0.2973
5.7	-9.4177	-0.0555	-1.8687	0.0036	-0.0131	0.0171	30.9164	-12.0695	12.6149	0.5613	-0.3648	0.6808	0.2974
5.71	-9.4337	-0.0583	-1.8781	0.0031	-0.0055	0.0086	30.9062	-12.0465	12.4686	0.5612	-0.3648	0.6808	0.2973
5.72	-9.4343	-0.0607	-1.8753	0.0079	-0.0064	0.0121	30.8055	-12.0703	12.2961	0.5613	-0.3648	0.6808	0.2973
5.73	-9.4242	-0.0576	-1.8751	0.0041	-0.0094	0.0105	30.8777	-12.0221	12.4775	0.5613	-0.3648	0.6808	0.2973
5.74	-9.4385	-0.0542	-1.8806	0.0026	-0.0103	0.0125	30.9465	-11.8742	12.2190	0.5612	-0.3648	0.6808	0.2973
5.75	-9.4377	-0.0522	-1.8869	0.0017	-0.0139	0.0128	30.7928	-11.9078	12.2215	0.5613	-0.3648	0.6808	0.2974
5.76	-9.4173	-0.0425	-1.8683	0.0089	-0.0077	0.0133	30.7736	-11.7406	12.2358	0.5613	-0.3648	0.6808	0.2973
5.77	-9.4276	-0.0351	-1.8766	0.0103	-0.0052	0.0111	30.8714	-11.9704	12.4130	0.5613	-0.3648	0.6809	0.2973
5.78	-9.4292	-0.0387	-1.8768	0.0020	-0.0122	0.0108	30.7221	-11.9042	12.3742	0.5612	-0.3648	0.6808	0.2973
5.79	-9.4190	-0.0389	-1.8610	0.0057	-0.0094	0.0088	30.8661	-11.6814	12.6543	0.5613	-0.3648	0.6808	0.2973
5.8	-9.4228	-0.0424	-1.8620	0.0072	-0.0048	0.0104	31.2390	-11.7452	12.6110	0.5613	-0.3648	0.6808	0.2973
5.81	-9.4479	-0.0469	-1.8752	0.0127	-0.0070	0.0173	31.1047	-11.6887	12.5831	0.5612	-0.3648	0.6808	0.2973
5.82	-9.4288	-0.0484	-1.8624	0.0080	-0.0124	0.0059	30.8379	-11.6876	12.4557	0.5613	-0.3648	0.6808	0.2973
5.83	-9.4192	-0.0476	-1.8619	0.0035	-0.0138	0.0148	30.6683	-11.7341	12.1623	0.5613	-0.3648	0.6808	0.2973
5.84	-9.4284	-0.0535	-1.8676	0.0020	-0.0092	0.0168	30.6205	-11.9259	12.4469	0.5613	-0.3648	0.6808	0.2973
5.85	-9.4340	-0.0594	-1.8819	0.0041	-0.0191	0.0131	30.6041	-11.9789	12.3721	0.5613	-0.3647	0.6807	0.2973
5.86	-9.4297	-0.0603	-1.8852	0.0057	-0.0119	0.0088	30.7267	-11.8082	12.2395	0.5613	-0.3648	0.6808	0.2973
5.87	-9.4200	-0.0653	-1.8645	0.0060	-0.0169	0.0126	30.7981	-11.8029	12.3059	0.5613	-0.3647	0.6808	0.2973
5.88	-9.4325	-0.0744	-1.8674	0.0084	-0.0165	0.0147	30.7450	-11.9478	12.4670	0.5614	-0.3647	0.6808	0.2973
5.89	-9.4318	-0.0746	-1.8606	0.0064	-0.0120	0.0123	30.8863	-11.9546	12.3441	0.5614	-0.3647	0.6807	0.2973
5.9	-9.4240	-0.0729	-1.8590	0.0006	-0.0178	0.0106	30.6971	-11.9173	12.5095	0.5614	-0.3647	0.6807	0.2974
5.91	-9.4251	-0.0717	-1.8709	0.0091	-0.0136	0.0144	30.9201	-11.8403	12.3340	0.5614	-0.3647	0.6807	0.2974
5.92	-9.4294	-0.0727	-1.8773	0.0104	-0.0166	0.0120	30.8736	-11.8695	12.5435	0.5614	-0.3646	0.6807	0.2973
5.93	-9.4236	-0.0737	-1.8713	0.0079	-0.0170	0.0137	30.5637	-11.8658	12.5111	0.5615	-0.3646	0.6807	0.2974
5.94	-9.4331	-0.0683	-1.8783	0.0093	-0.0179	0.0098	30.7537	-11.8626	12.4479	0.5615	-0.3646	0.6807	0.2973
5.95	-9.4311	-0.0670	-1.8710	0.0019	-0.0193	0.0123	30.6017	-11.8737	12.3657	0.5616	-0.3646	0.6807	0.2974
5.96	-9.4231	-0.0617	-1.8611	0.0125	-0.0209	0.0200	30.6806	-11.8525	12.4500	0.5616	-0.3645	0.6806	0.2974
5.97	-9.4263	-0.0534	-1.8683	0.0122	-0.0132	0.0140	30.9383	-11.8840	12.4272	0.5616	-0.3645	0.6807	0.2974
5.98	-9.4276	-0.0548	-1.8781	0.0082	-0.0136	0.0131	30.6873	-11.8019	12.3560	0.5617	-0.3645	0.6807	0.2974
5.99	-9.4212	-0.0500	-1.8706	0.0075	-0.0069	0.0082	30.5570	-11.7866	12.5769	0.5616	-0.3644	0.6806	0.2973
6	-9.4264	-0.0549	-1.8653	0.0087	-0.0150	0.0136	30.7405	-11.7630	12.3945	0.5617	-0.3645	0.6807	0.2974
6.01	-9.4359	-0.0588	-1.8681	0.0077	-0.0125	0.0147	30.6480	-11.8386	12.2282	0.5617	-0.3644	0.6806	0.2973
6.02	-9.4347	-0.0535	-1.8745	0.0076	-0.0149	0.0158	30.5949	-11.8209	12.3286	0.5617	-0.3644	0.6807	0.2974
6.03	-9.4221	-0.0497	-1.8686	0.0025	-0.0056	0.0157	30.6893	-11.7642	12.4625	0.5617	-0.3644	0.6806	0.2973
6.04	-9.4213	-0.0390	-1.8761	0.0088	-0.0133	0.0121	30.8024	-11.7862	12.4225	0.5617	-0.3644	0.6807	0.2974
6.05	-9.4286	-0.0338	-1.8805	0.0038	-0.0163	0.0113	30.8868	-11.7834	12.3210	0.5617	-0.3644	0.6806	0.2974
6.06	-9.4305	-0.0330	-1.8743	0.0034	-0.0126	0.0133	30.7782	-11.7496	12.1466	0.5617	-0.3643	0.6806	0.2974
6.07	-9.4273	-0.0285	-1.8724	0.0060	-0.0144	0.0143	30.7710	-11.9959	12.4144	0.5618	-0.3643	0.6806	0.2974
6.08	-9.4343	-0.0339	-1.8783	0.0095	-0.0158	0.0144	30.8938	-11.8685	12.4282	0.5618	-0.3643	0.6806	0.2974
6.09	-9.4227	-0.0356	-1.8759	0.0057	-0.0131	0.0138	30.7764	-11.7454	12.5409	0.5618	-0.3643	0.6806	0.2974
6.1	-9.4193	-0.0377	-1.8691	-0.0018	-0.0124	0.0152	30.7705	-11.7933	12.3707	0.5617	-0.3642	0.6806	0.2974
6.11	-9.4301	-0.0522	-1.8761	0.0022	-0.0144	0.0099	30.7758	-11.8750	12.1457	0.5618	-0.3643	0.6806	0.2974
6.12	-9.4316	-0.0561	-1.8806	0.0045	-0.0122	0.0160	30.6498	-11.9932	12.0392	0.5618	-0.3643	0.6806	0.2974
6.13	-9.4254	-0.0547	-1.8835	0.0051	-0.0145	0.0138	30.5779	-11.8584	12.3151	0.5618	-0.3643	0.6806	0.2975
6.14	-9.4261	-0.0558	-1.8856	0.0051	-0.0110	0.0113	30.8067	-11.8720	12.4770	0.5618	-0.3642	0.6806	0.2974
6.15	-9.4330	-0.0583	-1.8807	0.0098	-0.0149	0.0162	30.8475	-11.9570	12.3246	0.5619	-0.3642	0.6806	0.2974
6.16	-9.4301	-0.0552	-1.8777	0.0101	-0.0081	0.0205	30.7155	-11.9536	12.3856	0.5619	-0.3642	0.6806	0.2975
6.17	-9.4258	-0.0538	-1.8796	0.0007	-0.0098	0.0154	30.5982	-11.8748	12.3325	0.5618	-0.3641	0.6806	0.2974
6.18	-9.4313	-0.0518	-1.8851	0.0048	-0.0144	0.0098	30.7229	-11.8545	12.4816	0.5619	-0.3642	0.6806	0.2975
6.19	-9.4296	-0.0497	-1.8875	0.0079	-0.0073	0.0134	30.7729	-11.8745	12.5594	0.5619	-0.3641	0.6806	0.2975
6.2	-9.4252	-0.0562	-1.8799	0.0029	-0.0126	0.0123	30.8196	-11.8506	12.4795	0.5619	-0.3642	0.6807	0.2975
6.21	-9.4246	-0.0601	-1.8783	0.0051	-0.0090	0.0098	30.8866	-11.8774	12.3272	0.5618	-0.3641	0.6806	0.2974
6.22	-9.4302	-0.0616	-1.8704	0.0021	-0.0109	0.0102	30.7987	-11.8327	12.6375	0.5619	-0.3642	0.6806	0.2975
6.23	-9.4292	-0.0565	-1.8677	0.0004	-0.0158	0.0110	30.6250	-11.9408	12.3475	0.5619	-0.3642	0.6806	0.2975
6.24	-9.4256	-0.0511	-1.8676	0.0008	-0.0112	0.0127	30.8744	-11.8868	12.2277	0.5619	-0.3641	0.6805	0.2975
6.25	-9.4316	-0.0555	-1.8676	0.0037	-0.0134	0.0149	30.7573	-11.6649	12.3952	0.5619	-0.3642	0.6806	0.2975
6.26	-9.4329	-0.0545	-1.8705	0.0041	-0.0071	0.0103	30.6576	-11.8454	12.4664	0.5619	-0.3641	0.6806	0.2975
6.27	-9.4250	-0.0550	-1.8650	0.0059	-0.0206	0.0109	30.7585	-11.9115	12.3866	0.5620	-0.3642	0.6806	0.2975
6.28	-9.4205	-0.0607	-1.8618	0.0136	-0.0179	0.0148	30.8400	-12.0520	12.3394	0.5619	-0.3641	0.6805	0.2975
6.29	-9.4295	-0.0564	-1.8703	0.0058	-0.0149	0.0124	31.1891	-11.8892	12.5141	0.5620	-0.3641	0.6805	0.2975
6.3	-9.4290	-0.0644	-1.8672	0.0049	-0.0131	0.0140	31.2526	-11.8413	12.5415	0.5620	-0.3641	0.6805	0.2975
6.31	-9.4257	-0.0593	-1.8653	-0.0000	-0.0141	0.0130	31.0105	-11.8761	12.5838	0.5620	-0.3641	0.6805	0.2976
6.32	-9.4302	-0.0604	-1.8685	0.0035	-0.0142	0.0144	30.8242	-11.9025	12.6013	0.5620	-0.3641	0.6805	0.2976
6.33	-9.4348	-0.0579	-1.8792	0.0035	-0.0111	0.0107	30.5571	-11.7735	12.3829	0.5620	-0.3641	0.6805	0.2976
6.34	-9.4245	-0.0533	-1.8750	0.0051	-0.0121	0.0157	30.5559	-11.9813	12.4206	0.5620	-0.3641	0.6805	0.2976
6.35	-9.4316	-0.0517	-1.8762	0.0085	-0.0122	0.0105	30.6774	-11.9039	12.5976	0.5620	-0.3640	0.6804	0.2976
6.36	-9.4338	-0.0527	-1.8787	0.0031	-0.0148	0.0055	30.7537	-11.6990	12.4033	0.5621	-0.3641	0.6805	0.2976
6.37	-9.4229	-0.0519	-1.8740	0.0003	-0.0067	0.0105	30.6150	-11.7272	12.4163	0.5620	-0.3641	0.6804	0.2976
6.38	-9.4277	-0.0548	-1.8746	0.0076	-0.0080	0.0138	30.7732	-11.7904	12.4973	0.5621	-0.3641	0.6805	0.2976
6.39	-9.4306	-0.0536	-1.8819	0.0022	-0.0083	0.0043	30.6381	-11.9025	12.3788	0.5620	-0.3641	0.6804	0.2975
6.4	-9.4315	-0.0548	-1.8812	0.0028	-0.0075	0.0057	30.6123	-11.8003	12.2315	0.5620	-0.3641	0.6804	0.2975
6.41	-9.4261	-0.0575	-1.8807	0.0011	-0.0038	0.0067	30.8750	-11.7771	12.2437	0.5620	-0.3642	0.6804	0.2975
6.42	-9.4281	-0.0583	-1.8819	0.0017	-0.0069	0.0109	30.6903	-11.6269	12.3811	0.5620	-0.3642	0.6804	0.2975
6.43	-9.4322	-0.0601	-1.8810	0.0037	-0.0051	0.0104	30.4338	-11.7492	12.4889	0.5620	-0.3642	0.6805	0.2975
6.44	-9.4260	-0.0602	-1.8761	0.0044	-0.0081	0.0127	30.6308	-12.0314	12.4256	0.5620	-0.3642	0.6804	0.2975
6.45	-9.4277	-0.0574	-1.8786	0.0072	-0.0072	0.0114	30.8577	-12.0094	12.3790	0.5620	-0.3642	0.6805	0.2975
6.46	-9.4314	-0.0547	-1.8768	0.0027	-0.0068	0.0145	30.8264	-11.9522	12.3894	0.5619	-0.3642	0.6804	0.2975
6.47	-9.4263	-0.0528	-1.8752	0.0000	-0.0118	0.0134	30.8131	-11.9861	12.4037	0.5620	-0.3642	0.6805	0.2975
6.48	-9.4271	-0.0502	-1.8732	0.0054	-0.0101	0.0116	30.7207	-11.8032	12.5162	0.5620	-0.3642	0.6805	0.2975
6.49	-9.4327	-0.0507	-1.8713	0.0008	-0.0104	0.0125	30.7636	-11.8152	12.3692	0.5619	-0.3642	0.6804	0.2975
6.5	-9.4245	-0.0475	-1.8735	0.0011	-0.0056	0.0111	30.7388	-11.9712	12.4034	0.5620	-0.3642	0.6805	0.2975
6.51	-9.4224	-0.0485	-1.8680	0.0071	-0.0086	0.0089	30.9043	-12.0281	12.2247	0.5620	-0.3642	0.6805	0.2975
6.52	-9.4271	-0.0486	-1.8663	0.0064	-0.0076	0.0069	30.8904	-12.0049	12.2680	0.5620	-0.3643	0.6805	0.2975
6.53	-9.4295	-0.0469	-1.8706	0.0124	-0.0096	0.0085	30.6399	-11.9615	12.3867	0.5619	-0.3642	0.6804	0.2974
6.54	-9.4322	-0.0463	-1.8774	0.0042	-0.0043	0.0070	30.6859	-12.0820	12.6314	0.5620	-0.3643	0.6805	0.2974
6.55	-9.4266	-0.0454	-1.8695	0.0003	-0.0035	0.0053	30.6231	-11.9047	12.4424	0.5620	-0.3643	0.6805	0.2974
6.56	-9.4288	-0.0453	-1.8683	0.0018	-0.0114	0.0090	30.5592	-11.8361	12.3504	0.5619	-0.3643	0.6805	0.2974
6.57	-9.4274	-0.0470	-1.8677	0.0049	-0.0057	0.0077	30.7022	-11.7891	12.4006	0.5620	-0.3643	0.6805	0.2974
6.58	-9.4278	-0.0507	-1.8672	-0.0017	-0.0036	0.0041	30.6342	-11.7242	12.3611	0.5619	-0.3644	0.6805	0.2973
6.59	-9.4275	-0.0549	-1.8691	0.0013	-0.0055	0.0092	30.7464	-11.7189	12.4218	0.5619	-0.3644	0.6805	0.2974
6.6	-9.4312	-0.0592	-1.8678	-0.0006	-0.0036	0.0049	30.7270	-11.8043	12.6009	0.5619	-0.3644	0.6804	0.2973
6.61	-9.4257	-0.0617	-1.8665	0.0031	-0.0070	0.0079	30.7910	-11.9184	12.2954	0.5619	-0.3645	0.6805	0.2973
6.62	-9.4254	-0.0601	-1.8637	0.0066	-0.0060	0.0075	30.6553	-11.8751	12.2133	0.5619	-0.3645	0.6805	0.2973
6.63	-9.4264	-0.0592	-1.8657	0.0077	-0.0110	0.0118	30.5973	-11.9196	12.3964	0.5619	-0.3645	0.6805	0.2973
6.64	-9.4248	-0.0563	-1.8687	0.0074	-0.0056	0.0124	30.9587	-11.8556	12.3923	0.5619	-0.3645	0.6805	0.2972
6.65	-9.4243	-0.0574	-1.8640	0.0018	-0.0052	0.0055	30.8939	-11.9498	12.3684	0.5619	-0.3645	0.6805	0.2972
6.66	-9.4355	-0.0584	-1.8641	0.0076	-0.0081	0.0125	30.9194	-11.9229	12.2629	0.5619	-0.3645	0.6805	0.2972
6.67	-9.4365	-0.0592	-1.8659	0.0049	-0.0062	0.0070	30.9180	-11.8752	12.3977	0.5618	-0.3645	0.6805	0.2972
6.68	-9.4316	-0.0565	-1.8676	0.0019	-0.0067	0.0090	30.7991	-11.9813	12.3897	0.5619	-0.3646	0.6806	0.2972
6.69	-9.4294	-0.0573	-1.8679	0.0025	-0.0088	0.0121	30.8928	-11.8643	12.2362	0.5619	-0.3645	0.6805	0.2972
6.7	-9.4309	-0.0576	-1.8740	0.0001	-0.0116	0.0111	30.8732	-11.8909	12.4612	0.5619	-0.3646	0.6806	0.2972
6.71	-9.4191	-0.0601	-1.8725	0.0045	-0.0096	0.0106	30.7196	-11.9781	12.4847	0.5618	-0.3645	0.6805	0.2972
6.72	-9.4241	-0.0597	-1.8662	0.0023	-0.0103	0.0188	30.7702	-12.0793	12.3626	0.5619	-0.3645	0.6805	0.2972
6.73	-9.4321	-0.0593	-1.8805	0.0107	-0.0056	0.0106	30.7150	-11.8634	12.4017	0.5619	-0.3645	0.6805	0.2972
6.74	-9.4302	-0.0617	-1.8790	0.0006	-0.0047	0.0043	30.5710	-11.7096	12.3550	0.5618	-0.3646	0.6805	0.2971
6.75	-9.4242	-0.0560	-1.8717	0.0064	-0.0084	0.0060	30.6042	-11.7613	12.4993	0.5619	-0.3646	0.6806	0.2972
6.76	-9.4288	-0.0464	-1.8711	0.0029	-0.0043	0.0116	30.8133	-11.6686	12.2881	0.5618	-0.3646	0.6805	0.2971
6.77	-9.4350	-0.0434	-1.8799	0.0027	-0.0042	0.0068	30.6574	-11.6851	12.3579	0.5618	-0.3647	0.6806	0.2971
6.78	-9.4239	-0.0345	-1.8711	0.0081	-0.0055	0.0052	30.7495	-11.8380	12.3857	0.5618	-0.3646	0.6805	0.2970
6.79	-9.4182	-0.0331	-1.8769	0.0022	-0.0025	0.0082	30.7496	-11.5879	12.4976	0.5618	-0.3647	0.6806	0.2970
6.8	-9.4373	-0.0388	-1.8897	0.0050	-0.0057	0.0076	31.0611	-11.5340	12.4072	0.5618	-0.3647	0.6806	0.2970
6.81	-9.4329	-0.0492	-1.8908	0.0115	-0.0138	0.0148	31.0023	-11.6491	12.3830	0.5618	-0.3647	0.6805	0.2970
6.82	-9.4246	-0.0572	-1.8841	0.0171	-0.0173	0.0139	30.8530	-11.9199	12.4812	0.5618	-0.3647	0.6806	0.2970
6.83	-9.4247	-0.0627	-1.8790	0.0107	-0.0129	0.0126	30.9070	-11.7670	12.4258	0.5619	-0.3646	0.6806	0.2970
6.84	-9.4303	-0.0684	-1.8737	0.0111	-0.0084	0.0128	30.6183	-11.8895	12.2580	0.5619	-0.3646	0.6806	0.2970
6.85	-9.4354	-0.0670	-1.8668	0.0079	-0.0159	0.0149	30.9551	-12.0430	12.3774	0.5618	-0.3646	0.6805	0.2969
6.86	-9.4343	-0.0665	-1.8711	0.0075	-0.0167	0.0192	30.9588	-11.9871	12.4521	0.5619	-0.3646	0.6806	0.2970
6.87	-9.4322	-0.0617	-1.8718	0.0097	-0.0129	0.0140	30.6847	-11.9306	12.3520	0.5619	-0.3645	0.6806	0.2970
6.88	-9.4250	-0.0591	-1.8729	0.0125	-0.0154	0.0107	30.8031	-12.1649	12.5862	0.5620	-0.3645	0.6806	0.2970
6.89	-9.4226	-0.0520	-1.8744	0.0081	-0.0136	0.0129	30.6392	-11.7997	12.4169	0.5620	-0.3645	0.6806	0.2969
6.9	-9.4209	-0.0498	-1.8676	0.0066	-0.0176	0.0126	30.7042	-11.6897	12.3426	0.5620	-0.3644	0.6805	0.2970
6.91	-9.4315	-0.0536	-1.8597	0.0084	-0.0178	0.0147	30.6429	-12.0033	12.3691	0.5620	-0.3644	0.6806	0.2970
6.92	-9.4303	-0.0477	-1.8616	0.0100	-0.0114	0.0164	30.7822	-11.7542	12.3533	0.5620	-0.3644	0.6805	0.2969
6.93	-9.4277	-0.0463	-1.8613	0.0097	-0.0047	0.0096	30.6313	-11.7848	12.3632	0.5621	-0.3644	0.6806	0.2969
6.94	-9.4272	-0.0411	-1.8684	0.0136	-0.0093	0.0139	30.6232	-11.7575	12.3424	0.5620	-0.3643	0.6806	0.2969
6.95	-9.4222	-0.0464	-1.8646	0.0098	-0.0046	0.0179	30.7034	-11.8383	12.4118	0.5621	-0.3643	0.6807	0.2969
6.96	-9.4250	-0.0455	-1.8740	0.0107	-0.0149	0.0113	30.6558	-11.8773	12.5740	0.5620	-0.3643	0.6806	0.2968
6.97	-9.4324	-0.0477	-1.8754	0.0065	-0.0154	0.0134	30.6885	-11.7198	12.2462	0.5621	-0.3643	0.6806	0.2969
6.98	-9.4296	-0.0513	-1.8731	0.0014	-0.0104	0.0118	30.6677	-11.8626	12.5617	0.5621	-0.3643	0.6806	0.2969
6.99	-9.4277	-0.0533	-1.8714	0.0116	-0.0095	0.0121	30.6703	-11.7793	12.5959	0.5621	-0.3642	0.6806	0.2968
7	-9.4298	-0.0506	-1.8741	0.0073	-0.0157	0.0138	30.6804	-11.7721	12.2843	0.5622	-0.3643	0.6807	0.2969
7.01	-9.4252	-0.0480	-1.8722	-0.0002	-0.0121	0.0126	30.8081	-12.0287	12.4433	0.5621	-0.3642	0.6806	0.2969
7.02	-9.4255	-0.0531	-1.8709	0.0094	-0.0101	0.0149	30.8591	-11.9793	12.4165	0.5622	-0.3642	0.6807	0.2969
7.03	-9.4247	-0.0501	-1.8695	0.0043	-0.0123	0.0149	30.8051	-11.7443	12.2264	0.5621	-0.3642	0.6806	0.2968
7.04	-9.4266	-0.0562	-1.8717	0.0013	-0.0101	0.0150	31.0895	-11.8891	12.5563	0.5621	-0.3642	0.6806	0.2969
7.05	-9.4313	-0.0579	-1.8681	0.0119	-0.0118	0.0106	30.8270	-11.9491	12.4575	0.5621	-0.3642	0.6806	0.2969
7.06	-9.4266	-0.0604	-1.8693	0.0114	-0.0108	0.0115	30.7291	-11.9409	12.2412	0.5621	-0.3642	0.6806	0.2968
7.07	-9.4272	-0.0637	-1.8860	0.0070	-0.0116	0.0095	30.8494	-11.7633	12.3826	0.5622	-0.3642	0.6806	0.2968
7.08	-9.4260	-0.0618	-1.8894	0.0044	-0.0143	0.0061	30.7387	-11.7561	12.3544	0.5622	-0.3642	0.6806	0.2968
7.09	-9.4255	-0.0698	-1.8828	0.0136	-0.0094	0.0141	30.7402	-11.8267	12.5618	0.5622	-0.3642	0.6806	0.2968
7.1	-9.4245	-0.0718	-1.8842	0.0083	-0.0118	0.0144	30.8502	-11.9400	12.4318	0.5622	-0.3641	0.6806	0.2967
7.11	-9.4331	-0.0763	-1.8826	0.0054	-0.0122	0.0136	30.7966	-11.8469	12.5815	0.5622	-0.3641	0.6807	0.2968
7.12	-9.4300	-0.0726	-1.8774	0.0079	-0.0125	0.0159	30.6341	-11.9968	12.6168	0.5622	-0.3641	0.6806	0.2968
7.13	-9.4267	-0.0638	-1.8759	0.0115	-0.0151	0.0089	30.6811	-12.0652	12.4308	0.5623	-0.3641	0.6806	0.2968
7.14	-9.4323	-0.0589	-1.8797	0.0058	-0.0127	0.0183	30.7648	-11.8076	12.4670	0.5623	-0.3640	0.6806	0.2968
7.15	-9.4337	-0.0504	-1.8790	0.0031	-0.0115	0.0182	30.7270	-11.6881	12.4153	0.5623	-0.3640	0.6806	0.2968
7.16	-9.4226	-0.0471	-1.8786	0.0115	-0.0178	0.0146	30.6633	-12.0001	12.5046	0.5623	-0.3640	0.6807	0.2968
7.17	-9.4287	-0.0501	-1.8807	-0.0003	-0.0128	0.0130	30.6196	-11.7698	12.2375	0.5623	-0.3640	0.6806	0.2968
7.18	-9.4330	-0.0495	-1.8806	0.0025	-0.0135	0.0149	30.5728	-11.6736	12.4082	0.5623	-0.3640	0.6807	0.2968
7.19	-9.4263	-0.0521	-1.8695	0.0086	-0.0129	0.0152	30.5044	-11.7251	12.3942	0.5623	-0.3639	0.6806	0.2968
7.2	-9.4289	-0.0532	-1.8732	0.0068	-0.0192	0.0144	30.9997	-11.8423	12.4015	0.5624	-0.3639	0.6807	0.2969
7.21	-9.4274	-0.0548	-1.8737	0.0060	-0.0198	0.0182	30.9131	-11.9349	12.5745	0.5623	-0.3639	0.6806	0.2968
7.22	-9.4297	-0.0545	-1.8713	0.0046	-0.0156	0.0139	30.9219	-11.9395	12.2948	0.5624	-0.3639	0.6806	0.2969
7.23	-9.4250	-0.0488	-1.8605	0.0128	-0.0206	0.0129	30.7287	-11.7507	12.4270	0.5624	-0.3638	0.6806	0.2969
7.24	-9.4314	-0.0430	-1.8716	0.0064	-0.0165	0.0144	30.9231	-11.8567	12.1618	0.5624	-0.3638	0.6805	0.2969
7.25	-9.4317	-0.0435	-1.8688	0.0050	-0.0170	0.0104	30.8260	-11.9190	12.4015	0.5625	-0.3638	0.6806	0.2969
7.26	-9.4220	-0.0396	-1.8613	0.0117	-0.0117	0.0105	30.6054	-11.8794	12.6049	0.5625	-0.3638	0.6805	0.2968
7.27	-9.4244	-0.0393	-1.8626	0.0053	-0.0158	0.0179	30.7670	-11.9520	12.4033	0.5625	-0.3638	0.6806	0.2969
7.28	-9.4328	-0.0423	-1.8694	0.0037	-0.0112	0.0139	30.7527	-11.9563	12.2326	0.5625	-0.3637	0.6805	0.2969
7.29	-9.4297	-0.0416	-1.8695	0.0054	-0.0179	0.0134	30.7570	-11.6740	12.7584	0.5626	-0.3637	0.6805	0.2969
7.3	-9.4268	-0.0438	-1.8640	0.0066	-0.0134	0.0128	31.0355	-11.4726	12.5932	0.5625	-0.3637	0.6805	0.2969
7.31	-9.4257	-0.0490	-1.8626	0.0012	-0.0082	0.0051	30.8530	-11.5323	12.4762	0.5625	-0.3637	0.6805	0.2969
7.32	-9.4288	-0.0465	-1.8693	0.0016	-0.0083	0.0060	30.7044	-11.5092	12.3978	0.5626	-0.3638	0.6805	0.2969
7.33	-9.4282	-0.0464	-1.8730	0.0061	-0.0084	0.0113	30.4968	-11.6133	12.3598	0.5625	-0.3638	0.6805	0.2969
7.34	-9.4259	-0.0445	-1.8741	0.0001	-0.0106	0.0086	30.5729	-11.6852	12.4030	0.5626	-0.3638	0.6805	0.2969
7.35	-9.4303	-0.0494	-1.8699	0.0046	-0.0136	0.0150	30.6511	-11.9628	12.3052	0.5625	-0.3638	0.6804	0.2969
7.36	-9.4292	-0.0540	-1.8713	0.0047	-0.0113	0.0089	30.5072	-11.8978	12.2855	0.5626	-0.3638	0.6805	0.2969
7.37	-9.4218	-0.0584	-1.8675	0.0078	-0.0134	0.0136	30.8541	-11.6657	12.3371	0.5626	-0.3638	0.6805	0.2969
7.38	-9.4286	-0.0608	-1.8708	0.0055	-0.0066	0.0115	30.8459	-11.7225	12.4698	0.5626	-0.3638	0.6805	0.2969
7.39	-9.4326	-0.0693	-1.8719	0.0028	-0.0123	0.0082	30.8762	-11.8721	12.5013	0.5626	-0.3638	0.6805	0.2968
7.4	-9.4310	-0.0701	-1.8752	0.0094	-0.0123	0.0166	30.8138	-11.9126	12.4391	0.5626	-0.3638	0.6805	0.2968
7.41	-9.4260	-0.0674	-1.8748	0.0086	-0.0117	0.0120	30.7998	-11.9765	12.3903	0.5626	-0.3638	0.6805	0.2968
7.42	-9.4329	-0.0604	-1.8804	0.0044	-0.0131	0.0167	30.9670	-12.0182	12.3796	0.5626	-0.3637	0.6804	0.2968
7.43	-9.4273	-0.0572	-1.8756	0.0006	-0.0089	0.0075	30.8279	-11.8999	12.5371	0.5626	-0.3638	0.6805	0.2969
7.44	-9.4252	-0.0492	-1.8700	0.0032	-0.0111	0.0095	30.7355	-12.0693	12.5218	0.5626	-0.3638	0.6805	0.2968
7.45	-9.4340	-0.0465	-1.8758	-0.0001	-0.0063	0.0141	30.6680	-11.8965	12.2630	0.5626	-0.3638	0.6805	0.2969
7.46	-9.4309	-0.0478	-1.8731	0.0001	-0.0132	0.0116	30.8134	-12.0349	12.4180	0.5625	-0.3638	0.6804	0.2968
7.47	-9.4217	-0.0516	-1.8680	0.0035	-0.0126	0.0166	30.6293	-11.9595	12.2683	0.5626	-0.3638	0.6805	0.2969
7.48	-9.4298	-0.0558	-1.8784	0.0002	-0.0095	0.0051	30.6708	-11.9470	12.3479	0.5626	-0.3638	0.6805	0.2969
7.49	-9.4329	-0.0567	-1.8813	0.0027	-0.0075	0.0144	30.6994	-11.7723	12.4910	0.5625	-0.3638	0.6804	0.2969
7.5	-9.4310	-0.0545	-1.8809	-0.0004	-0.0070	0.0137	30.7073	-11.6677	12.4536	0.5626	-0.3638	0.6805	0.2969
7.51	-9.4180	-0.0622	-1.8733	0.0043	-0.0118	0.0055	30.7889	-11.7831	12.2395	0.5625	-0.3638	0.6805	0.2969
7.52	-9.4356	-0.0695	-1.8842	0.0123	-0.0064	0.0104	30.6190	-11.7558	12.3860	0.5626	-0.3638	0.6805	0.2969
7.53	-9.4400	-0.0672	-1.8916	0.0018	-0.0047	0.0062	30.9846	-11.7455	12.3940	0.5625	-0.3638	0.6804	0.2968
7.54	-9.4250	-0.0562	-1.8798	0.0036	-0.0065	0.0079	30.7932	-11.6793	12.3811	0.5625	-0.3639	0.6805	0.2968
7.55	-9.4240	-0.0559	-1.8816	-0.0015	-0.0077	0.0131	30.8207	-11.7827	12.2385	0.5625	-0.3639	0.6805	0.2968
7.56	-9.4305	-0.0522	-1.8809	0.0065	-0.0097	0.0130	30.8760	-11.7335	12.4717	0.5625	-0.3639	0.6805	0.2968
7.57	-9.4253	-0.0476	-1.8700	0.0042	-0.0092	0.0077	30.8439	-11.9303	12.5776	0.5625	-0.3639	0.6805	0.2968
7.58	-9.4291	-0.0529	-1.8720	0.0004	-0.0122	0.0147	30.7446	-12.0739	12.4500	0.5625	-0.3639	0.6805	0.2968
7.59	-9.4325	-0.0560	-1.8770	-0.0001	-0.0097	0.0148	30.8498	-11.8379	12.3047	0.5625	-0.3639	0.6805	0.2968
7.6	-9.4255	-0.0582	-1.8685	0.0049	-0.0074	0.0135	30.8620	-11.9378	12.3254	0.5624	-0.3639	0.6804	0.2968
7.61	-9.4270	-0.0613	-1.8699	0.0025	-0.0069	0.0145	30.8691	-11.8646	12.2617	0.5625	-0.3639	0.6805	0.2968
7.62	-9.4330	-0.0599	-1.8711	0.0050	-0.0106	0.0086	30.6937	-11.7834	12.2637	0.5625	-0.3639	0.6805	0.2968
7.63	-9.4304	-0.0599	-1.8654	0.0044	-0.0123	0.0051	30.7700	-12.0598	12.5324	0.5625	-0.3640	0.6805	0.2968
7.64	-9.4273	-0.0558	-1.8695	0.0051	-0.0090	0.0092	30.7725	-11.8955	12.3642	0.5625	-0.3639	0.6805	0.2968
7.65	-9.4303	-0.0563	-1.8678	0.0125	-0.0141	0.0129	30.6969	-11.9254	12.4052	0.5625	-0.3639	0.6805	0.2968
7.66	-9.4263	-0.0533	-1.8646	0.0004	-0.0110	0.0096	30.8269	-11.7580	12.3808	0.5625	-0.3639	0.6805	0.2968
7.67	-9.4194	-0.0445	-1.8592	0.0008	-0.0065	0.0041	30.6727	-11.7508	12.3989	0.5625	-0.3640	0.6804	0.2967
7.68	-9.4255	-0.0429	-1.8581	0.0039	-0.0040	0.0065	30.8110	-11.7750	12.2730	0.5625	-0.3640	0.6805	0.2967
7.69	-9.4309	-0.0439	-1.8663	0.0048	-0.0092	0.0087	30.6062	-11.7168	12.4899	0.5625	-0.3640	0.6805	0.2967
7.7	-9.4267	-0.0461	-1.8672	0.0091	-0.0146	0.0154	30.6977	-11.6594	12.6088	0.5625	-0.3640	0.6806	0.2967
7.71	-9.4272	-0.0528	-1.8691	0.0066	-0.0121	0.0143	31.0112	-11.7440	12.4425	0.5625	-0.3640	0.6805	0.2967
7.72	-9.4332	-0.0588	-1.8824	0.0086	-0.0087	0.0062	30.6269	-11.9079	12.4055	0.5625	-0.3640	0.6805	0.2967
7.73	-9.4318	-0.0652	-1.8882	0.0038	-0.0099	0.0080	30.5564	-11.8806	12.5096	0.5625	-0.3640	0.6805	0.2966
7.74	-9.4221	-0.0686	-1.8789	0.0041	-0.0130	0.0123	30.6468	-11.8332	12.3991	0.5625	-0.3640	0.6805	0.2966
7.75	-9.4286	-0.0689	-1.8772	0.0008	-0.0141	0.0148	30.5172	-11.8362	12.2675	0.5626	-0.3640	0.6805	0.2967
7.76	-9.4356	-0.0583	-1.8714	0.0022	-0.0114	0.0115	30.9439	-11.8771	12.2130	0.5625	-0.3640	0.6805	0.2967
7.77	-9.4264	-0.0525	-1.8672	0.0040	-0.0152	0.0058	31.1243	-11.9140	12.2147	0.5626	-0.3640	0.6805	0.2967
7.78	-9.4294	-0.0441	-1.8665	-0.0030	-0.0084	0.0088	31.0071	-12.0097	12.3108	0.5625	-0.3640	0.6804	0.2966
7.79	-9.4337	-0.0440	-1.8741	0.0030	-0.0082	0.0055	31.1346	-11.8641	12.5363	0.5625	-0.3641	0.6805	0.2967
7.8	-9.4333	-0.0425	-1.8828	0.0077	-0.0122	0.0109	31.4944	-12.0200	12.6189	0.5625	-0.3641	0.6804	0.2966
7.81	-9.4139	-0.0533	-1.8714	0.0103	-0.0116	0.0181	31.1930	-12.0414	12.4940	0.5625	-0.3640	0.6804	0.2966
7.82	-9.4210	-0.0620	-1.8748	0.0075	-0.0143	0.0096	30.8755	-11.6949	12.4862	0.5626	-0.3641	0.6805	0.2966
7.83	-9.4411	-0.0582	-1.8778	0.0057	-0.0093	0.0076	30.7314	-11.7616	12.4720	0.5626	-0.3641	0.6804	0.2966
7.84	-9.4317	-0.0515	-1.8657	0.0076	-0.0124	0.0082	30.7514	-11.8045	12.3105	0.5626	-0.3641	0.6805	0.2966
7.85	-9.4227	-0.0408	-1.8663	0.0138	-0.0111	0.0108	30.7427	-11.6845	12.7653	0.5626	-0.3640	0.6804	0.2965
7.86	-9.4317	-0.0305	-1.8771	0.0105	-0.0120	0.0121	30.8826	-11.6785	12.6458	0.5626	-0.3640	0.6805	0.2965
7.87	-9.4269	-0.0274	-1.8696	0.0068	-0.0169	0.0080	30.8745	-11.7146	12.4789	0.5627	-0.3640	0.6804	0.2965
7.88	-9.4225	-0.0316	-1.8638	0.0054	-0.0070	0.0090	30.6346	-11.8591	12.3424	0.5627	-0.3640	0.6805	0.2965
7.89	-9.4283	-0.0394	-1.8645	0.0013	-0.0045	0.0150	30.7978	-11.8575	12.3785	0.5626	-0.3640	0.6804	0.2965
7.9	-9.4340	-0.0445	-1.8716	0.0055	-0.0073	0.0173	30.7269	-11.8397	12.5437	0.5626	-0.3640	0.6805	0.2965
7.91	-9.4296	-0.0532	-1.8665	0.0053	-0.0025	0.0090	30.8121	-11.9038	12.3982	0.5626	-0.3640	0.6805	0.2965
7.92	-9.4231	-0.0558	-1.8641	-0.0016	-0.0116	0.0117	30.5748	-11.9626	12.4806	0.5625	-0.3640	0.6804	0.2964
7.93	-9.4318	-0.0490	-1.8708	0.0068	-0.0126	0.0123	30.7256	-11.9152	12.3087	0.5626	-0.3641	0.6805	0.2965
7.94	-9.4321	-0.0462	-1.8745	0.0085	-0.0138	0.0126	30.7606	-11.6917	12.2595	0.5626	-0.3640	0.6805	0.2965
7.95	-9.4272	-0.0404	-1.8688	0.0087	-0.0165	0.0156	31.0738	-11.9321	12.2757	0.5627	-0.3640	0.6805	0.2965
7.96	-9.4281	-0.0370	-1.8658	0.0081	-0.0064	0.0154	31.0153	-11.8414	12.2804	0.5626	-0.3640	0.6805	0.2964
7.97	-9.4294	-0.0430	-1.8672	0.0057	-0.0119	0.0138	30.8997	-11.9691	12.2576	0.5626	-0.3640	0.6805	0.2964
7.98	-9.4208	-0.0526	-1.8663	0.0086	-0.0146	0.0153	30.9333	-12.0397	12.3313	0.5626	-0.3639	0.6805	0.2964
7.99	-9.4258	-0.0613	-1.8762	0.0004	-0.0145	0.0151	30.9443	-11.9516	12.3766	0.5626	-0.3639	0.6805	0.2965
8	-9.4316	-0.0670	-1.8801	0.0038	-0.0117	0.0121	30.6272	-11.7278	12.4341	0.5627	-0.3640	0.6806	0.2965
8.01	-9.4272	-0.0743	-1.8791	0.0055	-0.0094	0.0169	30.7488	-11.8309	12.3185	0.5626	-0.3639	0.6805	0.2965
8.02	-9.4315	-0.0779	-1.8764	0.0099	-0.0132	0.0081	30.7149	-11.8227	12.4254	0.5627	-0.3639	0.6806	0.2965
8.03	-9.4323	-0.0784	-1.8724	0.0168	-0.0108	0.0168	30.6537	-11.6564	12.4516	0.5626	-0.3638	0.6805	0.2964
8.04	-9.4337	-0.0739	-1.8772	0.0082	-0.0148	0.0116	30.8018	-11.8218	12.4195	0.5627	-0.3639	0.6806	0.2964
8.05	-9.4250	-0.0714	-1.8759	0.0084	-0.0074	0.0135	30.8720	-11.8576	12.3267	0.5627	-0.3638	0.6806	0.2964
8.06	-9.4296	-0.0652	-1.8753	0.0128	-0.0092	0.0129	30.7661	-11.8509	12.4223	0.5627	-0.3638	0.6806	0.2964
8.07	-9.4283	-0.0596	-1.8795	0.0112	-0.0069	0.0110	30.6702	-11.8567	12.6444	0.5627	-0.3638	0.6806	0.2963
8.08	-9.4239	-0.0557	-1.8730	0.0062	-0.0064	0.0115	30.7818	-11.8552	12.7338	0.5627	-0.3638	0.6806	0.2963
8.09	-9.4314	-0.0521	-1.8800	0.0042	-0.0091	0.0153	30.9230	-11.8488	12.6531	0.5627	-0.3638	0.6807	0.2963
8.1	-9.4324	-0.0464	-1.8780	0.0103	-0.0129	0.0169	30.8440	-11.8499	12.5273	0.5626	-0.3637	0.6806	0.2963
8.11	-9.4244	-0.0452	-1.8720	0.0046	-0.0104	0.0067	30.6490	-11.9540	12.4240	0.5627	-0.3638	0.6807	0.2963
8.12	-9.4263	-0.0422	-1.8777	0.0025	-0.0119	0.0150	30.6935	-11.9306	12.2997	0.5627	-0.3638	0.6806	0.2963
8.13	-9.4335	-0.0418	-1.8820	0.0107	-0.0147	0.0183	30.7201	-11.9468	12.2401	0.5627	-0.3637	0.6807	0.2963
8.14	-9.4327	-0.0361	-1.8769	0.0126	-0.0082	0.0088	30.9620	-11.8444	12.3920	0.5627	-0.3637	0.6806	0.2962
8.15	-9.4252	-0.0458	-1.8695	0.0172	-0.0138	0.0170	31.0052	-11.8366	12.3156	0.5627	-0.3637	0.6807	0.2962
8.16	-9.4309	-0.0552	-1.8761	0.0163	-0.0117	0.0179	30.8293	-11.8973	12.0693	0.5628	-0.3636	0.6807	0.2962
8.17	-9.4365	-0.0605	-1.8877	0.0122	-0.0142	0.0156	30.6402	-11.9735	12.1755	0.5627	-0.3635	0.6807	0.2962
8.18	-9.4268	-0.0614	-1.8723	0.0045	-0.0156	0.0167	30.9244	-11.7946	12.2969	0.5628	-0.3636	0.6808	0.2962
8.19	-9.4260	-0.0620	-1.8718	0.0083	-0.0150	0.0132	30.9974	-11.9309	12.2460	0.5628	-0.3635	0.6807	0.2962
8.2	-9.4353	-0.0564	-1.8846	0.0087	-0.0102	0.0144	30.6460	-11.8599	12.3479	0.5628	-0.3635	0.6808	0.2962
8.21	-9.4299	-0.0516	-1.8731	0.0043	-0.0114	0.0110	30.7869	-11.9356	12.3527	0.5628	-0.3635	0.6807	0.2962
8.22	-9.4226	-0.0547	-1.8714	0.0080	-0.0155	0.0124	30.8414	-12.1385	12.5008	0.5628	-0.3635	0.6807	0.2962
8.23	-9.4332	-0.0511	-1.8795	0.0066	-0.0133	0.0112	30.6938	-11.7435	12.3498	0.5628	-0.3635	0.6807	0.2962
8.24	-9.4319	-0.0476	-1.8749	0.0020	-0.0153	0.0118	30.6594	-11.8658	12.4359	0.5628	-0.3635	0.6807	0.2962
8.25	-9.4285	-0.0473	-1.8739	0.0004	-0.0152	0.0119	30.7981	-11.8388	12.4377	0.5629	-0.3635	0.6807	0.2962
8.26	-9.4264	-0.0458	-1.8759	0.0004	-0.0193	0.0167	30.7062	-11.7569	12.3315	0.5629	-0.3635	0.6807	0.2962
8.27	-9.4292	-0.0521	-1.8792	0.0013	-0.0099	0.0133	30.4974	-11.7722	12.3457	0.5629	-0.3635	0.6807	0.2963
8.28	-9.4292	-0.0514	-1.8787	0.0006	-0.0063	0.0061	30.5916	-11.8571	12.4247	0.5628	-0.3635	0.6806	0.2962
8.29	-9.4275	-0.0509	-1.8765	0.0029	-0.0157	0.0101	30.9196	-11.8513	12.7963	0.5629	-0.3635	0.6807	0.2962
8.3	-9.4271	-0.0519	-1.8779	0.0064	-0.0051	0.0127	31.0209	-11.8545	12.7760	0.5628	-0.3635	0.6807	0.2962
8.31	-9.4308	-0.0542	-1.8742	0.0076	-0.0104	0.0125	30.9580	-11.8176	12.5749	0.5628	-0.3635	0.6807	0.2962
8.32	-9.4274	-0.0498	-1.8704	0.0009	-0.0145	0.0140	30.9850	-11.7579	12.5242	0.5629	-0.3635	0.6807	0.2962
8.33	-9.4274	-0.0494	-1.8631	0.0065	-0.0075	0.0122	30.8242	-11.9069	12.3961	0.5628	-0.3635	0.6807	0.2962
8.34	-9.4302	-0.0457	-1.8675	0.0048	-0.0136	0.0080	30.9097	-11.9636	12.2907	0.5629	-0.3635	0.6807	0.2962
8.35	-9.4242	-0.0446	-1.8691	0.0007	-0.0123	0.0138	30.8381	-12.0736	12.3102	0.5628	-0.3635	0.6806	0.2962
8.36	-9.4304	-0.0441	-1.8679	0.0053	-0.0073	0.0104	30.6017	-12.0779	12.4451	0.5629	-0.3635	0.6807	0.2962
8.37	-9.4313	-0.0438	-1.8743	0.0002	-0.0065	0.0091	30.7228	-11.9124	12.3022	0.5628	-0.3636	0.6807	0.2962
8.38	-9.4308	-0.0501	-1.8719	0.0014	-0.0073	0.0114	30.7416	-11.9237	12.4504	0.5628	-0.3636	0.6807	0.2962
8.39	-9.4294	-0.0484	-1.8688	0.0029	-0.0069	0.0108	30.7327	-11.7977	12.5000	0.5628	-0.3636	0.6807	0.2962
8.4	-9.4280	-0.0558	-1.8686	0.0012	-0.0063	0.0081	30.7326	-11.8692	12.3540	0.5628	-0.3636	0.6807	0.2962
8.41	-9.4293	-0.0584	-1.8670	0.0056	-0.0111	0.0107	30.5678	-11.8884	12.4396	0.5628	-0.3636	0.6807	0.2962
8.42	-9.4268	-0.0565	-1.8664	0.0005	-0.0114	0.0104	30.6324	-11.7300	12.5961	0.5627	-0.3636	0.6806	0.2961
8.43	-9.4304	-0.0567	-1.8690	-0.0011	-0.0068	0.0082	30.7704	-11.6469	12.4146	0.5628	-0.3637	0.6807	0.2962
8.44	-9.4337	-0.0586	-1.8741	-0.0004	-0.0087	0.0038	30.6875	-11.6849	12.4503	0.5627	-0.3637	0.6807	0.2961
8.45	-9.4317	-0.0575	-1.8705	0.0020	-0.0171	0.0091	30.6327	-11.8231	12.6451	0.5628	-0.3638	0.6807	0.2962
8.46	-9.4296	-0.0586	-1.8826	0.0015	-0.0070	0.0080	30.6793	-11.9128	12.3413	0.5627	-0.3637	0.6806	0.2961
8.47	-9.4262	-0.0625	-1.8778	0.0005	-0.0110	0.0116	30.5124	-11.8030	12.5492	0.5628	-0.3638	0.6806	0.2962
8.48	-9.4277	-0.0647	-1.8771	0.0002	-0.0086	0.0100	30.5169	-11.8583	12.3518	0.5627	-0.3638	0.6806	0.2962
8.49	-9.4263	-0.0684	-1.8719	0.0008	-0.0148	0.0115	30.7379	-11.7284	12.2673	0.5627	-0.3638	0.6806	0.2961
8.5	-9.4347	-0.0719	-1.8702	0.0023	-0.0153	0.0123	30.6680	-11.8512	12.4343	0.5628	-0.3638	0.6807	0.2962
8.51	-9.4333	-0.0662	-1.8703	0.0066	-0.0084	0.0084	30.8763	-11.6579	12.3449	0.5628	-0.3638	0.6806	0.2962
8.52	-9.4286	-0.0625	-1.8747	0.0042	-0.0065	0.0056	30.9404	-11.9420	12.2867	0.5628	-0.3638	0.6807	0.2961
8.53	-9.4231	-0.0586	-1.8738	-0.0010	-0.0082	0.0104	30.7697	-12.0144	12.4063	0.5627	-0.3638	0.6806	0.2961
8.54	-9.4290	-0.0510	-1.8766	0.0022	-0.0121	0.0083	30.8945	-11.9701	12.5155	0.5627	-0.3639	0.6806	0.2961
8.55	-9.4344	-0.0443	-1.8771	0.0050	-0.0096	0.0071	30.9301	-11.9938	12.4451	0.5627	-0.3639	0.6806	0.2961
8.56	-9.4244	-0.0405	-1.8752	0.0083	-0.0063	0.0122	30.7062	-11.9919	12.3610	0.5627	-0.3639	0.6806	0.2961
8.57	-9.4309	-0.0383	-1.8767	0.0051	-0.0077	0.0071	30.7400	-11.8977	12.4460	0.5627	-0.3639	0.6806	0.2961
8.58	-9.4386	-0.0393	-1.8754	0.0043	-0.0057	0.0085	30.7672	-12.0343	12.3068	0.5627	-0.3639	0.6806	0.2960
8.59	-9.4272	-0.0411	-1.8751	0.0014	-0.0074	0.0072	30.8398	-11.9051	12.2277	0.5627	-0.3640	0.6807	0.2960
8.6	-9.4181	-0.0458	-1.8655	-0.0008	-0.0113	0.0128	30.8190	-11.9213	12.5128	0.5626	-0.3639	0.6806	0.2960
8.61	-9.4303	-0.0447	-1.8699	-0.0020	-0.0063	0.0089	30.6939	-11.7733	12.3749	0.5627	-0.3640	0.6807	0.2960
8.62	-9.4329	-0.0486	-1.8802	0.0017	-0.0049	0.0106	30.6791	-11.9229	12.5388	0.5626	-0.3640	0.6806	0.2960
8.63	-9.4253	-0.0530	-1.8820	0.0025	-0.0039	0.0073	30.7627	-11.7651	12.3786	0.5626	-0.3641	0.6807	0.2960
8.64	-9.4318	-0.0568	-1.8824	0.0036	-0.0085	0.0043	30.7267	-11.7323	12.4832	0.5626	-0.3641	0.6806	0.2960
8.65	-9.4256	-0.0561	-1.8812	0.0036	-0.0058	0.0073	30.5001	-11.9658	12.4901	0.5626	-0.3641	0.6807	0.2960
8.66	-9.4245	-0.0603	-1.8635	0.0038	-0.0111	0.0105	30.5384	-11.8833	12.4404	0.5626	-0.3641	0.6807	0.2960
8.67	-9.4330	-0.0628	-1.8717	-0.0042	-0.0103	0.0052	30.6044	-11.9339	12.2753	0.5626	-0.3642	0.6806	0.2959
8.68	-9.4348	-0.0645	-1.8684	0.0061	-0.0130	0.0098	30.5471	-11.7924	12.5296	0.5626	-0.3642	0.6807	0.2960
8.69	-9.4263	-0.0633	-1.8743	0.0096	-0.0105	0.0136	30.7539	-12.0152	12.4298	0.5626	-0.3642	0.6806	0.2959
8.7	-9.4231	-0.0672	-1.8779	0.0031	-0.0143	0.0114	30.6600	-12.1127	12.3886	0.5627	-0.3642	0.6807	0.2960
8.71	-9.4289	-0.0672	-1.8798	0.0051	-0.0082	0.0143	30.6713	-11.9668	12.4041	0.5626	-0.3641	0.6806	0.2959
8.72	-9.4267	-0.0619	-1.8727	0.0087	-0.0058	0.0120	30.7185	-11.9014	12.3896	0.5626	-0.3642	0.6807	0.2959
8.73	-9.4214	-0.0585	-1.8694	0.0040	-0.0069	0.0070	30.6668	-12.0804	12.4061	0.5626	-0.3642	0.6807	0.2959
8.74	-9.4248	-0.0525	-1.8716	0.0027	-0.0091	0.0153	30.8475	-12.0025	12.3933	0.5625	-0.3642	0.6806	0.2959
8.75	-9.4320	-0.0552	-1.8765	0.0095	-0.0100	0.0066	30.6318	-11.9721	12.4113	0.5626	-0.3642	0.6807	0.2959
8.76	-9.4281	-0.0543	-1.8711	0.0060	-0.0079	0.0052	30.7870	-11.8891	12.2272	0.5626	-0.3642	0.6807	0.2958
8.77	-9.4270	-0.0520	-1.8653	0.0020	-0.0097	0.0069	30.6774	-11.9210	12.2724	0.5626	-0.3643	0.6807	0.2958
8.78	-9.4347	-0.0527	-1.8745	0.0046	-0.0142	0.0121	30.6191	-11.8372	12.4016	0.5626	-0.3642	0.6806	0.2958
8.79	-9.4327	-0.0476	-1.8720	-0.0038	-0.0076	0.0085	30.9194	-11.6850	12.4017	0.5626	-0.3643	0.6807	0.2958
8.8	-9.4227	-0.0446	-1.8627	-0.0008	-0.0063	0.0141	31.2547	-11.3443	12.7082	0.5625	-0.3643	0.6807	0.2959
8.81	-9.4285	-0.0434	-1.8746	0.0052	-0.0102	0.0188	31.1116	-11.5541	12.7908	0.5625	-0.3643	0.6807	0.2959
8.82	-9.4370	-0.0430	-1.8720	0.0023	-0.0098	0.0069	30.9664	-11.8101	12.6251	0.5625	-0.3644	0.6807	0.2959
8.83	-9.4252	-0.0427	-1.8666	0.0058	-0.0135	0.0145	30.9398	-11.7311	12.6021	0.5625	-0.3643	0.6807	0.2959
8.84	-9.4233	-0.0419	-1.8698	0.0046	-0.0099	0.0147	30.9478	-11.8322	12.3790	0.5625	-0.3643	0.6807	0.2959
8.85	-9.4293	-0.0393	-1.8786	-0.0005	-0.0084	0.0138	30.9374	-11.8246	12.3313	0.5624	-0.3643	0.6806	0.2958
8.86	-9.4309	-0.0377	-1.8725	0.0050	-0.0142	0.0133	30.9166	-11.8374	12.2528	0.5625	-0.3643	0.6807	0.2959
8.87	-9.4252	-0.0441	-1.8697	0.0087	-0.0157	0.0204	30.8406	-11.8170	12.2604	0.5625	-0.3643	0.6807	0.2959
8.88	-9.4353	-0.0572	-1.8721	0.0031	-0.0189	0.0149	30.8494	-11.8605	12.2479	0.5625	-0.3643	0.6807	0.2959
8.89	-9.4378	-0.0575	-1.8832	0.0078	-0.0181	0.0122	30.9474	-11.7053	12.3578	0.5625	-0.3642	0.6806	0.2959
8.9	-9.4280	-0.0598	-1.8758	0.0063	-0.0140	0.0172	30.9096	-11.8134	12.2074	0.5626	-0.3642	0.6807	0.2959
8.91	-9.4242	-0.0586	-1.8791	0.0045	-0.0142	0.0137	31.0289	-11.7616	12.1562	0.5626	-0.3642	0.6807	0.2960
8.92	-9.4254	-0.0590	-1.8767	0.0073	-0.0124	0.0146	31.2075	-11.8074	12.1846	0.5625	-0.3642	0.6806	0.2960
8.93	-9.4259	-0.0572	-1.8765	0.0025	-0.0124	0.0152	31.1595	-11.9147	12.2692	0.5626	-0.3643	0.6807	0.2960
8.94	-9.4279	-0.0547	-1.8761	0.0013	-0.0080	0.0138	30.7841	-11.8055	12.1291	0.5625	-0.3643	0.6806	0.2960
8.95	-9.4356	-0.0521	-1.8866	0.0074	-0.0090	0.0117	30.8293	-11.8380	12.5095	0.5625	-0.3643	0.6807	0.2960
8.96	-9.4328	-0.0499	-1.8908	0.0079	-0.0102	0.0140	30.8540	-11.8396	12.4594	0.5625	-0.3642	0.6806	0.2960
8.97	-9.4229	-0.0466	-1.8818	0.0031	-0.0100	0.0154	30.9673	-11.9065	12.2746	0.5625	-0.3642	0.6807	0.2960
8.98	-9.4280	-0.0426	-1.8798	0.0051	-0.0128	0.0148	30.8738	-11.9733	12.3051	0.5625	-0.3642	0.6807	0.2960
8.99	-9.4337	-0.0421	-1.8765	-0.0004	-0.0107	0.0168	30.8461	-11.9556	12.4326	0.5624	-0.3642	0.6807	0.2960
9	-9.4279	-0.0433	-1.8754	0.0062	-0.0125	0.0081	30.8420	-11.6149	12.4481	0.5625	-0.3643	0.6807	0.2960
9.01	-9.4274	-0.0543	-1.8735	0.0011	-0.0085	0.0155	30.8744	-11.8169	12.5235	0.5625	-0.3642	0.6807	0.2960
9.02	-9.4311	-0.0672	-1.8728	0.0092	-0.0063	0.0155	30.7617	-11.6516	12.5453	0.5625	-0.3642	0.6808	0.2960
9.03	-9.4243	-0.0740	-1.8745	0.0077	-0.0057	0.0154	30.8581	-11.7449	12.3277	0.5624	-0.3642	0.6807	0.2960
9.04	-9.4215	-0.0775	-1.8645	0.0031	-0.0065	0.0156	30.9356	-11.9656	12.1530	0.5624	-0.3642	0.6808	0.2960
9.05	-9.4308	-0.0680	-1.8746	0.0067	-0.0089	0.0093	30.8415	-11.8460	12.3279	0.5624	-0.3642	0.6808	0.2960
9.06	-9.4303	-0.0663	-1.8682	0.0055	-0.0125	0.0166	31.0649	-11.8238	12.4309	0.5624	-0.3642	0.6808	0.2960
9.07	-9.4283	-0.0588	-1.8614	0.0011	-0.0057	0.0188	30.7930	-11.8287	12.4331	0.5624	-0.3642	0.6808	0.2960
9.08	-9.4313	-0.0535	-1.8657	0.0078	-0.0104	0.0196	30.9200	-11.8418	12.3115	0.5624	-0.3642	0.6808	0.2960
9.09	-9.4265	-0.0473	-1.8586	0.0084	-0.0173	0.0132	30.8915	-11.8012	12.1687	0.5624	-0.3641	0.6809	0.2960
9.1	-9.4244	-0.0509	-1.8617	-0.0002	-0.0136	0.0170	30.8296	-11.9432	12.2495	0.5623	-0.3641	0.6808	0.2960
9.11	-9.4301	-0.0549	-1.8612	0.0032	-0.0075	0.0174	30.9695	-11.7653	12.3709	0.5624	-0.3641	0.6809	0.2960
9.12	-9.4304	-0.0559	-1.8656	0.0030	-0.0062	0.0122	31.0236	-11.6533	12.4966	0.5623	-0.3642	0.6808	0.2960
9.13	-9.4259	-0.0613	-1.8596	0.0018	-0.0063	0.0149	30.7384	-11.8602	12.4914	0.5623	-0.3642	0.6809	0.2960
9.14	-9.4254	-0.0680	-1.8685	0.0066	-0.0078	0.0144	30.8921	-11.8149	12.2015	0.5623	-0.3641	0.6809	0.2960
9.15	-9.4284	-0.0697	-1.8601	0.0045	-0.0126	0.0157	31.0148	-11.8385	12.3234	0.5623	-0.3641	0.6809	0.2960
9.16	-9.4270	-0.0680	-1.8624	0.0095	-0.0091	0.0134	30.9011	-11.8197	12.5262	0.5623	-0.3641	0.6809	0.2960
9.17	-9.4222	-0.0644	-1.8682	0.0118	-0.0046	0.0098	30.9351	-11.8423	12.5229	0.5622	-0.3641	0.6809	0.2960
9.18	-9.4260	-0.0559	-1.8692	0.0106	-0.0045	0.0154	30.8473	-11.8130	12.5133	0.5623	-0.3641	0.6810	0.2960
9.19	-9.4343	-0.0512	-1.8776	0.0162	-0.0095	0.0152	30.9486	-11.8660	12.5410	0.5622	-0.3641	0.6810	0.2959
9.2	-9.4295	-0.0552	-1.8721	0.0110	-0.0093	0.0115	30.9311	-11.7245	12.4497	0.5623	-0.3641	0.6811	0.2959
9.21	-9.4233	-0.0513	-1.8647	0.0044	-0.0038	0.0116	30.9128	-11.9331	12.4277	0.5622	-0.3640	0.6810	0.2958
9.22	-9.4291	-0.0538	-1.8778	0.0057	-0.0057	0.0147	30.9779	-11.9893	12.3271	0.5622	-0.3641	0.6811	0.2958
9.23	-9.4333	-0.0511	-1.8793	0.0110	-0.0060	0.0103	30.8078	-11.8803	12.3975	0.5622	-0.3640	0.6811	0.2958
9.24	-9.4230	-0.0481	-1.8726	0.0111	-0.0120	0.0133	30.8168	-11.9421	12.4573	0.5622	-0.3640	0.6811	0.2958
9.25	-9.4267	-0.0434	-1.8791	0.0056	-0.0122	0.0191	30.9521	-11.7972	12.5059	0.5623	-0.3640	0.6812	0.2958
9.26	-9.4301	-0.0429	-1.8769	0.0117	-0.0086	0.0134	30.8165	-12.0000	12.2856	0.5622	-0.3640	0.6811	0.2958
9.27	-9.4277	-0.0469	-1.8774	0.0072	-0.0136	0.0094	30.8836	-11.9382	12.2218	0.5623	-0.3640	0.6812	0.2958
9.28	-9.4249	-0.0448	-1.8787	0.0072	-0.0072	0.0069	30.8138	-11.8994	12.4449	0.5622	-0.3640	0.6811	0.2957
9.29	-9.4335	-0.0558	-1.8836	0.0048	-0.0119	0.0125	31.1892	-11.8180	12.7588	0.5622	-0.3640	0.6812	0.2957
9.3	-9.4346	-0.0596	-1.8824	0.0006	-0.0133	0.0093	31.2396	-11.6567	12.6708	0.5622	-0.3640	0.6811	0.2958
9.31	-9.4248	-0.0576	-1.8699	-0.0004	-0.0073	0.0073	31.0250	-11.7161	12.7081	0.5622	-0.3641	0.6811	0.2958
9.32	-9.4304	-0.0580	-1.8713	0.0003	-0.0073	0.0142	30.8451	-11.8674	12.4711	0.5622	-0.3641	0.6811	0.2958
9.33	-9.4308	-0.0566	-1.8824	0.0003	-0.0047	0.0118	30.6453	-11.9761	12.3803	0.5621	-0.3641	0.6811	0.2958
9.34	-9.4246	-0.0621	-1.8753	0.0000	-0.0125	0.0109	30.6636	-12.0583	12.4218	0.5622	-0.3641	0.6811	0.2958
9.35	-9.4253	-0.0635	-1.8743	0.0004	-0.0121	0.0163	30.7600	-11.8324	12.3836	0.5621	-0.3641	0.6811	0.2958
9.36	-9.4316	-0.0678	-1.8841	0.0008	-0.0107	0.0111	30.7870	-11.6181	12.4199	0.5621	-0.3642	0.6811	0.2958
9.37	-9.4278	-0.0664	-1.8877	0.0031	-0.0070	0.0095	30.6978	-11.7503	12.3443	0.5621	-0.3642	0.6811	0.2958
9.38	-9.4199	-0.0696	-1.8806	0.0027	-0.0052	0.0102	30.7479	-11.9421	12.2971	0.5621	-0.3642	0.6812	0.2958
9.39	-9.4256	-0.0666	-1.8763	-0.0002	-0.0072	0.0078	30.7736	-11.9035	12.4083	0.5621	-0.3642	0.6811	0.2958
9.4	-9.4270	-0.0744	-1.8827	0.0018	-0.0049	0.0148	30.5405	-11.7058	12.4119	0.5620	-0.3642	0.6812	0.2958
9.41	-9.4233	-0.0856	-1.8783	-0.0049	-0.0069	0.0128	30.6653	-11.8268	12.5284	0.5620	-0.3643	0.6812	0.2958
9.42	-9.4287	-0.0695	-1.8779	-0.0025	-0.0065	0.0133	30.7570	-11.8351	12.3884	0.5619	-0.3642	0.6811	0.2958
9.43	-9.4354	-0.0558	-1.8742	0.0056	-0.0033	0.0142	30.7736	-11.9283	12.4081	0.5620	-0.3643	0.6812	0.2958
9.44	-9.4260	-0.0374	-1.8715	0.0021	-0.0095	0.0120	30.7553	-11.9233	12.5543	0.5619	-0.3643	0.6812	0.2958
9.45	-9.4204	-0.0330	-1.8645	0.0037	-0.0075	0.0177	31.0015	-12.1135	12.6073	0.5619	-0.3643	0.6813	0.2958
9.46	-9.4264	-0.0258	-1.8593	0.0014	-0.0113	0.0144	30.9992	-11.9549	12.4988	0.5619	-0.3643	0.6812	0.2958
9.47	-9.4317	-0.0277	-1.8618	-0.0011	-0.0083	0.0117	30.9139	-12.0593	12.3573	0.5619	-0.3643	0.6812	0.2958
9.48	-9.4266	-0.0304	-1.8600	-0.0012	-0.0071	0.0096	30.9137	-12.0035	12.1538	0.5619	-0.3643	0.6812	0.2958
9.49	-9.4274	-0.0338	-1.8530	0.0033	-0.0097	0.0138	30.7236	-11.8005	12.4213	0.5618	-0.3643	0.6812	0.2958
9.5	-9.4317	-0.0334	-1.8519	-0.0001	-0.0046	0.0136	30.9790	-11.9334	12.3876	0.5619	-0.3644	0.6813	0.2959
9.51	-9.4225	-0.0368	-1.8495	0.0053	-0.0075	0.0132	30.7390	-11.9203	12.3071	0.5618	-0.3643	0.6813	0.2958
9.52	-9.4192	-0.0414	-1.8571	0.0041	-0.0045	0.0118	30.6696	-11.8932	12.2971	0.5618	-0.3644	0.6813	0.2958
9.53	-9.4292	-0.0318	-1.8695	0.0059	-0.0039	0.0148	30.6902	-12.0390	12.4238	0.5617	-0.3643	0.6813	0.2958
9.54	-9.4374	-0.0305	-1.8705	0.0028	-0.0068	0.0130	30.6816	-11.8305	12.3660	0.5617	-0.3644	0.6814	0.2958
9.55	-9.4271	-0.0299	-1.8839	-0.0025	-0.0025	0.0086	30.8463	-11.7775	12.3155	0.5617	-0.3644	0.6813	0.2958
9.56	-9.4220	-0.0458	-1.8858	-0.0003	-0.0094	0.0080	30.7989	-11.8464	12.2312	0.5617	-0.3644	0.6813	0.2958
9.57	-9.4253	-0.0501	-1.8908	0.0021	-0.0011	0.0161	30.6480	-11.8504	12.3205	0.5616	-0.3645	0.6814	0.2958
9.58	-9.4207	-0.0495	-1.8788	0.0004	-0.0054	0.0098	30.6170	-11.9063	12.4222	0.5616	-0.3645	0.6814	0.2958
9.59	-9.4212	-0.0464	-1.8710	0.0000	-0.0035	0.0069	30.7264	-11.8226	12.4179	0.5616	-0.3645	0.6814	0.2958
9.6	-9.4300	-0.0292	-1.8777	-0.0006	-0.0054	0.0092	30.5728	-11.7645	12.6255	0.5615	-0.3645	0.6813	0.2957
9.61	-9.4395	-0.0563	-1.8872	-0.0014	-0.0056	0.0102	30.6226	-11.7600	12.3973	0.5615	-0.3646	0.6814	0.2958
9.62	-9.4256	-0.0728	-1.8907	-0.0009	-0.0085	0.0038	30.5739	-12.0248	12.3260	0.5615	-0.3646	0.6814	0.2957
9.63	-9.4202	-0.0825	-1.8939	0.0027	-0.0147	0.0134	30.7205	-11.9807	12.4633	0.5615	-0.3646	0.6814	0.2958
9.64	-9.4377	-0.0828	-1.8928	0.0027	-0.0085	0.0147	30.9703	-12.0162	12.1918	0.5615	-0.3646	0.6814	0.2958
9.65	-9.4308	-0.0803	-1.8796	0.0053	-0.0116	0.0159	30.7879	-12.0754	12.2670	0.5615	-0.3646	0.6814	0.2958
9.66	-9.4238	-0.0725	-1.8767	0.0076	-0.0085	0.0147	30.9399	-11.9465	12.3809	0.5615	-0.3646	0.6814	0.2958
9.67	-9.4335	-0.0606	-1.8766	0.0079	-0.0106	0.0127	30.8399	-12.1096	12.4925	0.5614	-0.3646	0.6814	0.2957
9.68	-9.4263	-0.0521	-1.8678	0.0027	-0.0070	0.0116	30.7577	-11.9573	12.6083	0.5615	-0.3646	0.6815	0.2957
9.69	-9.4177	-0.0465	-1.8645	-0.0025	-0.0087	0.0153	30.8705	-12.0641	12.5375	0.5614	-0.3646	0.6815	0.2958
9.7	-9.4268	-0.0472	-1.8650	-0.0003	-0.0065	0.0092	30.8293	-12.0374	12.2117	0.5614	-0.3647	0.6815	0.2958
9.71	-9.4300	-0.0482	-1.8600	-0.0013	-0.0126	0.0115	30.9389	-11.8913	12.3298	0.5614	-0.3646	0.6814	0.2958
9.72	-9.4308	-0.0556	-1.8617	-0.0009	-0.0128	0.0096	30.8132	-11.9238	12.4227	0.5614	-0.3647	0.6814	0.2958
9.73	-9.4252	-0.0604	-1.8587	-0.0005	-0.0053	0.0051	30.7014	-11.7415	12.3922	0.5614	-0.3647	0.6814	0.2958
9.74	-9.4303	-0.0658	-1.8653	0.0017	-0.0055	0.0062	30.6735	-11.8267	12.3900	0.5613	-0.3647	0.6814	0.2957
9.75	-9.4258	-0.0617	-1.8598	0.0045	-0.0076	0.0094	30.6862	-11.8534	12.5128	0.5614	-0.3648	0.6815	0.2958
9.76	-9.4230	-0.0539	-1.8544	0.0038	-0.0066	0.0107	30.6862	-11.6766	12.3077	0.5613	-0.3648	0.6815	0.2957
9.77	-9.4281	-0.0501	-1.8600	0.0008	-0.0054	0.0164	30.6747	-11.7152	12.3741	0.5613	-0.3648	0.6815	0.2957
9.78	-9.4240	-0.0489	-1.8612	0.0006	-0.0008	0.0100	30.7578	-11.8636	12.3939	0.5612	-0.3648	0.6815	0.2957
9.79	-9.4242	-0.0489	-1.8603	-0.0034	-0.0040	0.0112	30.8665	-11.6007	12.7551	0.5612	-0.3649	0.6815	0.2957
9.8	-9.4288	-0.0545	-1.8610	-0.0035	-0.0085	0.0096	31.1016	-11.7455	12.6799	0.5612	-0.3649	0.6815	0.2957
9.81	-9.4312	-0.0569	-1.8757	0.0076	-0.0106	0.0175	30.9936	-11.7137	12.4544	0.5612	-0.3649	0.6815	0.2957
9.82	-9.4287	-0.0569	-1.8794	0.0065	-0.0114	0.0180	30.9481	-11.6072	12.4811	0.5612	-0.3649	0.6816	0.2957
9.83	-9.4248	-0.0579	-1.8825	0.0156	-0.0122	0.0141	30.8662	-11.7604	12.3601	0.5612	-0.3648	0.6816	0.2957
9.84	-9.4338	-0.0536	-1.8831	0.0076	-0.0117	0.0168	30.7110	-11.8893	12.5957	0.5612	-0.3648	0.6816	0.2957
9.85	-9.4293	-0.0478	-1.8807	0.0008	-0.0071	0.0154	30.8366	-12.0486	12.5358	0.5611	-0.3648	0.6815	0.2957
9.86	-9.4266	-0.0465	-1.8788	0.0073	-0.0078	0.0163	30.8271	-11.7955	12.4183	0.5612	-0.3648	0.6816	0.2957
9.87	-9.4306	-0.0477	-1.8852	0.0080	-0.0079	0.0160	30.8266	-11.9102	12.2388	0.5611	-0.3648	0.6816	0.2957
9.88	-9.4225	-0.0531	-1.8818	0.0011	-0.0054	0.0169	30.8570	-11.9553	12.1766	0.5611	-0.3648	0.6817	0.2957
9.89	-9.4219	-0.0518	-1.8817	0.0054	-0.0082	0.0173	30.7148	-11.8338	12.5020	0.5611	-0.3647	0.6817	0.2957
9.9	-9.4265	-0.0568	-1.8855	0.0109	-0.0071	0.0193	30.7930	-11.8773	12.4793	0.5611	-0.3647	0.6817	0.2957
9.91	-9.4313	-0.0638	-1.8782	0.0050	-0.0137	0.0171	30.8040	-11.9765	12.4273	0.5611	-0.3647	0.6817	0.2957
9.92	-9.4284	-0.0565	-1.8766	0.0030	-0.0125	0.0156	30.6443	-11.8356	12.4203	0.5610	-0.3646	0.6817	0.2957
9.93	-9.4267	-0.0527	-1.8768	0.0088	-0.0067	0.0075	30.7635	-11.8776	12.4554	0.5611	-0.3647	0.6818	0.2957
9.94	-9.4291	-0.0445	-1.8771	0.0023	-0.0013	0.0117	30.7595	-11.8036	12.3641	0.5610	-0.3647	0.6818	0.2957
9.95	-9.4303	-0.0427	-1.8772	0.0030	-0.0105	0.0189	30.9355	-11.7594	12.1370	0.5610	-0.3647	0.6818	0.2957
9.96	-9.4273	-0.0455	-1.8718	0.0046	-0.0103	0.0133	30.8260	-11.7621	12.2631	0.5610	-0.3647	0.6818	0.2957
9.97	-9.4288	-0.0494	-1.8786	0.0029	-0.0066	0.0138	30.8200	-11.7938	12.3825	0.5610	-0.3647	0.6818	0.2957
9.98	-9.4263	-0.0483	-1.8764	0.0047	-0.0088	0.0182	30.6786	-11.8753	12.4510	0.5610	-0.3647	0.6818	0.2957
9.99	-9.4285	-0.0571	-1.8792	0.0075	-0.0067	0.0100	30.6553	-11.8542	12.4066	0.5609	-0.3647	0.6818	0.2957
10	-9.4299	-0.0631	-1.8780	0.0143	-0.0131	0.0198	30.6809	-11.7582	12.5444	0.5610	-0.3647	0.6819	0.2957
10.01	-9.4288	-0.0611	-1.8754	0.0031	-0.0110	0.0149	30.6400	-11.8076	12.3496	0.5609	-0.3646	0.6819	0.2957
10.02	-9.4272	-0.0553	-1.8766	-0.0030	-0.0116	0.0134	30.7631	-12.0908	12.5789	0.5610	-0.3646	0.6819	0.2957
10.03	-9.4268	-0.0545	-1.8771	0.0051	-0.0100	0.0173	31.0263	-11.7845	12.2993	0.5609	-0.3646	0.6818	0.2957
10.04	-9.4332	-0.0457	-1.8732	0.0093	-0.0135	0.0116	30.8643	-12.0390	12.3185	0.5609	-0.3646	0.6819	0.2957
10.05	-9.4316	-0.0439	-1.8712	0.0013	-0.0112	0.0132	30.8173	-11.8734	12.4274	0.5609	-0.3646	0.6819	0.2957
10.06	-9.4229	-0.0456	-1.8693	0.0044	-0.0087	0.0081	30.8376	-11.7168	12.2976	0.5609	-0.3646	0.6819	0.2957
10.07	-9.4281	-0.0523	-1.8666	0.0044	-0.0071	0.0134	30.8166	-11.8799	12.4571	0.5609	-0.3647	0.6819	0.2957
10.08	-9.4297	-0.0558	-1.8702	0.0015	-0.0082	0.0094	30.9651	-11.7340	12.3085	0.5609	-0.3647	0.6819	0.2957
10.09	-9.4272	-0.0611	-1.8668	0.0107	-0.0101	0.0099	30.6015	-11.9747	12.3550	0.5609	-0.3647	0.6819	0.2957
10.1	-9.4238	-0.0638	-1.8622	0.0036	-0.0121	0.0153	30.6506	-11.8523	12.3955	0.5608	-0.3646	0.6819	0.2957
10.11	-9.4297	-0.0623	-1.8686	0.0009	-0.0041	0.0148	30.8540	-11.6487	12.6789	0.5609	-0.3647	0.6820	0.2957
10.12	-9.4260	-0.0675	-1.8672	0.0022	-0.0074	0.0179	30.6879	-11.7275	12.3410	0.5608	-0.3647	0.6820	0.2957
10.13	-9.4244	-0.0578	-1.8634	0.0024	-0.0143	0.0123	30.8414	-11.5832	12.4199	0.5608	-0.3647	0.6820	0.2957
10.14	-9.4308	-0.0589	-1.8737	0.0011	-0.0091	0.0118	30.8190	-11.7919	12.4108	0.5608	-0.3647	0.6819	0.2957
10.15	-9.4304	-0.0538	-1.8770	0.0047	-0.0053	0.0117	30.7195	-11.7510	12.4882	0.5608	-0.3647	0.6820	0.2957
10.16	-9.4252	-0.0481	-1.8665	0.0038	-0.0206	0.0190	30.5975	-11.8336	12.4329	0.5608	-0.3647	0.6820	0.2957
10.17	-9.4292	-0.0458	-1.8712	0.0005	-0.0169	0.0149	30.5814	-11.8675	12.2100	0.5608	-0.3646	0.6819	0.2957
10.18	-9.4358	-0.0433	-1.8758	0.0076	-0.0086	0.0165	30.6854	-11.8514	12.3744	0.5608	-0.3646	0.6820	0.2958
10.19	-9.4276	-0.0465	-1.8704	0.0105	-0.0135	0.0137	30.8061	-11.8499	12.3332	0.5608	-0.3646	0.6820	0.2957
10.2	-9.4241	-0.0488	-1.8748	0.0007	-0.0115	0.0158	30.8390	-11.8669	12.3455	0.5608	-0.3646	0.6820	0.2958
10.21	-9.4268	-0.0535	-1.8812	0.0108	-0.0072	0.0207	30.8328	-11.7551	12.3544	0.5608	-0.3645	0.6820	0.2957
10.22	-9.4319	-0.0556	-1.8815	0.0035	-0.0073	0.0163	30.7074	-11.7891	12.3055	0.5608	-0.3645	0.6820	0.2958
10.23	-9.4249	-0.0560	-1.8786	0.0028	-0.0122	0.0165	30.8325	-11.9045	12.2669	0.5608	-0.3645	0.6821	0.2958
10.24	-9.4307	-0.0561	-1.8792	0.0100	-0.0070	0.0162	30.7583	-12.0299	12.4837	0.5607	-0.3645	0.6820	0.2958
10.25	-9.4308	-0.0540	-1.8792	0.0081	-0.0064	0.0121	30.6661	-11.9213	12.1977	0.5608	-0.3645	0.6822	0.2958
10.26	-9.4292	-0.0470	-1.8763	0.0087	-0.0119	0.0112	30.7816	-11.6920	12.3161	0.5607	-0.3645	0.6821	0.2957
10.27	-9.4267	-0.0436	-1.8790	0.0022	-0.0059	0.0124	30.7294	-11.9201	12.3379	0.5608	-0.3645	0.6822	0.2957
10.28	-9.4317	-0.0446	-1.8867	0.0093	-0.0119	0.0178	30.8190	-11.9543	12.4358	0.5607	-0.3644	0.6821	0.2957
10.29	-9.4262	-0.0385	-1.8805	0.0097	-0.0066	0.0168	31.0539	-11.7005	12.5387	0.5607	-0.3645	0.6822	0.2957
10.3	-9.4237	-0.0410	-1.8725	0.0055	-0.0029	0.0080	31.1770	-11.8414	12.8731	0.5607	-0.3645	0.6822	0.2957
10.31	-9.4268	-0.0443	-1.8726	0.0110	-0.0082	0.0142	31.0581	-11.8157	12.7547	0.5606	-0.3645	0.6822	0.2957
10.32	-9.4288	-0.0459	-1.8766	0.0016	-0.0033	0.0111	30.8260	-11.7764	12.3964	0.5606	-0.3645	0.6822	0.2957
10.33	-9.4284	-0.0522	-1.8783	0.0028	-0.0096	0.0080	30.6526	-11.6665	12.4307	0.5606	-0.3645	0.6822	0.2957
10.34	-9.4269	-0.0578	-1.8778	0.0013	-0.0020	0.0140	30.5900	-11.8083	12.5941	0.5606	-0.3646	0.6822	0.2957
10.35	-9.4294	-0.0580	-1.8786	0.0032	-0.0055	0.0065	30.6842	-11.8636	12.5026	0.5605	-0.3645	0.6822	0.2956
10.36	-9.4260	-0.0597	-1.8727	0.0016	-0.0110	0.0103	30.6735	-11.8189	12.5001	0.5606	-0.3646	0.6823	0.2957
10.37	-9.4291	-0.0589	-1.8735	0.0058	-0.0149	0.0126	30.8497	-11.8726	12.4867	0.5606	-0.3646	0.6822	0.2957
10.38	-9.4296	-0.0557	-1.8687	0.0013	-0.0088	0.0133	30.7692	-11.9950	12.3125	0.5606	-0.3646	0.6822	0.2957
10.39	-9.4299	-0.0542	-1.8742	0.0066	-0.0094	0.0128	30.8494	-12.0910	12.3590	0.5605	-0.3646	0.6822	0.2956
10.4	-9.4258	-0.0510	-1.8716	0.0011	-0.0148	0.0128	30.9508	-12.0778	12.2980	0.5606	-0.3646	0.6822	0.2957
10.41	-9.4263	-0.0513	-1.8669	0.0059	-0.0107	0.0105	30.9230	-11.8998	12.2340	0.5606	-0.3646	0.6822	0.2957
10.42	-9.4293	-0.0533	-1.8655	0.0066	-0.0110	0.0189	30.8830	-11.9929	12.2433	0.5605	-0.3645	0.6822	0.2956
10.43	-9.4276	-0.0506	-1.8644	0.0021	-0.0133	0.0170	30.6211	-12.1954	12.2650	0.5606	-0.3646	0.6823	0.2957
10.44	-9.4273	-0.0575	-1.8661	0.0026	-0.0132	0.0052	30.6463	-11.8960	12.1978	0.5605	-0.3646	0.6822	0.2957
10.45	-9.4304	-0.0639	-1.8741	-0.0004	-0.0080	0.0073	30.7120	-11.9585	12.3847	0.5606	-0.3646	0.6823	0.2957
10.46	-9.4287	-0.0682	-1.8787	0.0040	-0.0117	0.0122	30.5869	-11.8004	12.5091	0.5605	-0.3646	0.6822	0.2957
10.47	-9.4277	-0.0737	-1.8775	0.0056	-0.0109	0.0158	30.7070	-12.0096	12.4065	0.5605	-0.3646	0.6822	0.2957
10.48	-9.4309	-0.0741	-1.8827	0.0032	-0.0076	0.0104	30.6749	-11.9101	12.3757	0.5605	-0.3646	0.6822	0.2957
10.49	-9.4250	-0.0751	-1.8838	0.0021	-0.0041	0.0099	30.6892	-11.7868	12.2894	0.5605	-0.3646	0.6822	0.2957
10.5	-9.4201	-0.0703	-1.8643	0.0062	-0.0037	0.0059	30.6827	-12.0634	12.4541	0.5605	-0.3647	0.6823	0.2957
10.51	-9.4308	-0.0624	-1.8617	0.0004	-0.0123	0.0077	30.6877	-11.8161	12.3885	0.5605	-0.3647	0.6823	0.2956
10.52	-9.4391	-0.0590	-1.8706	0.0032	-0.0064	0.0167	30.8872	-11.7116	12.4461	0.5605	-0.3647	0.6823	0.2957
10.53	-9.4237	-0.0566	-1.8753	-0.0009	-0.0066	0.0123	30.5869	-11.8726	12.2993	0.5604	-0.3647	0.6822	0.2956
10.54	-9.4203	-0.0543	-1.8805	-0.0005	-0.0020	0.0100	30.6163	-11.7990	12.3548	0.5604	-0.3647	0.6823	0.2956
10.55	-9.4246	-0.0629	-1.8837	0.0003	-0.0085	0.0079	30.7191	-11.7769	12.4256	0.5604	-0.3647	0.6823	0.2956
10.56	-9.4261	-0.0600	-1.8738	0.0049	-0.0138	0.0154	30.6488	-11.9235	12.4222	0.5604	-0.3647	0.6823	0.2956
10.57	-9.4307	-0.0561	-1.8729	0.0003	-0.0136	0.0094	30.7261	-12.0198	12.3111	0.5604	-0.3648	0.6823	0.2957
10.58	-9.4296	-0.0506	-1.8761	0.0019	-0.0077	0.0101	30.8572	-11.9758	12.3687	0.5604	-0.3648	0.6823	0.2957
10.59	-9.4277	-0.0454	-1.8784	0.0005	-0.0083	0.0072	30.8918	-12.0754	12.4481	0.5604	-0.3648	0.6823	0.2957
10.6	-9.4251	-0.0494	-1.8759	-0.0045	-0.0090	0.0113	30.9453	-12.0149	12.4086	0.5603	-0.3648	0.6822	0.2956
10.61	-9.4296	-0.0473	-1.8824	-0.0001	-0.0067	0.0087	30.8117	-11.8873	12.4307	0.5603	-0.3649	0.6823	0.2957
10.62	-9.4263	-0.0449	-1.8835	0.0011	-0.0100	0.0090	30.8813	-11.9432	12.2391	0.5603	-0.3649	0.6823	0.2957
10.63	-9.4315	-0.0435	-1.8828	-0.0010	-0.0121	0.0127	31.0292	-11.8736	12.3164	0.5603	-0.3649	0.6823	0.2957
10.64	-9.4302	-0.0431	-1.8766	0.0022	-0.0082	0.0119	30.8308	-12.1233	12.3518	0.5603	-0.3649	0.6822	0.2957
10.65	-9.4347	-0.0454	-1.8795	0.0062	-0.0120	0.0141	30.7415	-12.1540	12.3201	0.5603	-0.3649	0.6823	0.2957
10.66	-9.4310	-0.0440	-1.8727	-0.0019	-0.0138	0.0095	30.7997	-11.8512	12.1545	0.5603	-0.3650	0.6823	0.2957
10.67	-9.4214	-0.0393	-1.8697	-0.0013	-0.0063	0.0062	30.6769	-11.7646	12.2029	0.5602	-0.3650	0.6822	0.2957
10.68	-9.4287	-0.0420	-1.8682	0.0013	-0.0022	0.0091	30.6921	-11.7396	12.4775	0.5603	-0.3650	0.6823	0.2957
10.69	-9.4324	-0.0441	-1.8715	-0.0028	-0.0118	0.0083	30.6581	-11.6544	12.4676	0.5602	-0.3650	0.6822	0.2957
10.7	-9.4274	-0.0446	-1.8642	-0.0006	-0.0102	0.0081	30.7628	-11.6940	12.3623	0.5602	-0.3651	0.6823	0.2958
10.71	-9.4237	-0.0526	-1.8646	0.0007	-0.0070	0.0129	30.6852	-11.5772	12.5367	0.5602	-0.3651	0.6822	0.2957
10.72	-9.4231	-0.0596	-1.8695	0.0034	-0.0039	0.0149	30.5587	-11.7143	12.4343	0.5602	-0.3651	0.6823	0.2957
10.73	-9.4277	-0.0614	-1.8794	0.0015	-0.0061	0.0068	30.4958	-11.6349	12.4475	0.5601	-0.3651	0.6823	0.2957
10.74	-9.4203	-0.0632	-1.8757	0.0051	-0.0117	0.0134	30.5981	-11.8333	12.5149	0.5601	-0.3651	0.6822	0.2957
10.75	-9.4253	-0.0616	-1.8773	0.0016	-0.0118	0.0144	30.5989	-11.9386	12.5029	0.5602	-0.3652	0.6823	0.2958
10.76	-9.4316	-0.0607	-1.8785	-0.0043	-0.0127	0.0123	30.8800	-12.0543	12.3481	0.5601	-0.3651	0.6822	0.2958
10.77	-9.4338	-0.0533	-1.8728	-0.0025	-0.0153	0.0052	30.9440	-12.0869	12.3974	0.5602	-0.3652	0.6823	0.2958
10.78	-9.4282	-0.0465	-1.8720	0.0071	-0.0070	0.0161	30.9111	-12.0969	12.4229	0.5601	-0.3651	0.6822	0.2958
10.79	-9.4340	-0.0515	-1.8793	0.0012	-0.0097	0.0172	31.0228	-11.8382	12.7742	0.5601	-0.3652	0.6823	0.2958
10.8	-9.4281	-0.0527	-1.8791	0.0018	-0.0161	0.0153	31.2759	-11.8783	12.8824	0.5601	-0.3652	0.6822	0.2958
10.81	-9.4237	-0.0554	-1.8783	0.0154	-0.0160	0.0163	31.0593	-11.9085	12.5795	0.5601	-0.3651	0.6822	0.2958
10.82	-9.4322	-0.0556	-1.8792	0.0136	-0.0138	0.0168	30.8294	-11.8729	12.4492	0.5601	-0.3651	0.6823	0.2958
10.83	-9.4330	-0.0554	-1.8771	0.0131	-0.0088	0.0184	30.6550	-11.8586	12.5014	0.5601	-0.3650	0.6823	0.2958
10.84	-9.4333	-0.0549	-1.8755	0.0085	-0.0085	0.0152	30.7061	-11.5916	12.3233	0.5601	-0.3650	0.6823	0.2958
10.85	-9.4254	-0.0521	-1.8677	0.0127	-0.0095	0.0182	30.9121	-11.9868	12.3293	0.5601	-0.3649	0.6823	0.2957
10.86	-9.4273	-0.0440	-1.8724	0.0068	-0.0087	0.0166	30.7001	-11.7803	12.4474	0.5601	-0.3649	0.6824	0.2958
10.87	-9.4254	-0.0495	-1.8754	0.0090	-0.0041	0.0151	30.7386	-11.6893	12.5285	0.5601	-0.3649	0.6824	0.2957
10.88	-9.4247	-0.0541	-1.8682	0.0146	-0.0061	0.0110	30.7783	-11.8617	12.4749	0.5601	-0.3649	0.6824	0.2957
10.89	-9.4284	-0.0520	-1.8738	0.0059	-0.0134	0.0100	30.7799	-11.9350	12.6299	0.5601	-0.3649	0.6824	0.2957
10.9	-9.4321	-0.0501	-1.8722	0.0069	-0.0074	0.0057	30.7306	-12.0528	12.6774	0.5601	-0.3649	0.6824	0.2956
10.91	-9.4309	-0.0521	-1.8735	0.0092	-0.0120	0.0092	30.7076	-11.7873	12.5274	0.5601	-0.3649	0.6824	0.2956
10.92	-9.4285	-0.0557	-1.8692	0.0045	-0.0162	0.0141	30.8784	-11.7638	12.4085	0.5601	-0.3649	0.6824	0.2956
10.93	-9.4286	-0.0529	-1.8671	0.0101	-0.0129	0.0094	30.8396	-11.7631	12.4359	0.5602	-0.3649	0.6825	0.2956
10.94	-9.4290	-0.0454	-1.8690	0.0040	-0.0106	0.0165	30.8704	-11.8015	12.3741	0.5601	-0.3649	0.6824	0.2956
10.95	-9.4277	-0.0437	-1.8736	0.0092	-0.0134	0.0127	30.8380	-12.1295	12.3275	0.5602	-0.3649	0.6825	0.2956
10.96	-9.4286	-0.0418	-1.8730	0.0132	-0.0098	0.0152	30.9569	-12.0012	12.3424	0.5601	-0.3648	0.6824	0.2956
10.97	-9.4312	-0.0461	-1.8708	0.0056	-0.0083	0.0162	30.9127	-11.6973	12.3420	0.5602	-0.3648	0.6825	0.2956
10.98	-9.4236	-0.0563	-1.8706	0.0075	-0.0147	0.0117	30.8112	-12.0192	12.4757	0.5602	-0.3648	0.6825	0.2956
10.99	-9.4322	-0.0653	-1.8771	0.0123	-0.0080	0.0129	30.6727	-11.9554	12.3068	0.5601	-0.3648	0.6825	0.2955
11	-9.4381	-0.0726	-1.8787	0.0069	-0.0087	0.0115	30.8132	-11.8298	12.4538	0.5602	-0.3648	0.6826	0.2956
11.01	-9.4262	-0.0728	-1.8689	0.0134	-0.0072	0.0144	30.9659	-11.8617	12.3840	0.5602	-0.3647	0.6825	0.2955
11.02	-9.4275	-0.0647	-1.8790	0.0106	-0.0136	0.0130	30.7227	-11.8443	12.5196	0.5602	-0.3647	0.6826	0.2955
11.03	-9.4370	-0.0567	-1.8837	0.0130	-0.0106	0.0180	30.9588	-11.8556	12.3984	0.5601	-0.3647	0.6825	0.2955
11.04	-9.4272	-0.0444	-1.8798	0.0110	-0.0092	0.0122	30.9117	-11.9436	12.5833	0.5602	-0.3647	0.6826	0.2955
11.05	-9.4195	-0.0323	-1.8708	0.0088	-0.0083	0.0152	30.8083	-11.9267	12.5252	0.5602	-0.3647	0.6826	0.2955
11.06	-9.4326	-0.0279	-1.8721	-0.0007	-0.0074	0.0136	30.6823	-11.6747	12.2962	0.5601	-0.3647	0.6826	0.2955
11.07	-9.4302	-0.0303	-1.8748	0.0051	-0.0125	0.0161	30.7962	-11.7032	12.3290	0.5602	-0.3647	0.6826	0.2955
11.08	-9.4134	-0.0405	-1.8653	0.0018	-0.0025	0.0167	30.7452	-12.0192	12.6239	0.5601	-0.3647	0.6826	0.2955
11.09	-9.4294	-0.0537	-1.8673	0.0058	-0.0131	0.0126	30.8409	-11.8425	12.4687	0.5601	-0.3647	0.6827	0.2955
11.1	-9.4382	-0.0740	-1.8808	0.0035	-0.0119	0.0113	30.8524	-11.8570	12.3992	0.5601	-0.3646	0.6826	0.2955
11.11	-9.4200	-0.0757	-1.8672	0.0065	-0.0039	0.0090	30.8708	-11.8434	12.4230	0.5601	-0.3647	0.6827	0.2955
11.12	-9.4229	-0.0604	-1.8614	0.0073	-0.0069	0.0109	30.8060	-11.7214	12.4501	0.5601	-0.3647	0.6827	0.2954
11.13	-9.4371	-0.0487	-1.8784	0.0094	-0.0101	0.0129	30.7567	-11.8713	12.5386	0.5601	-0.3647	0.6827	0.2954
11.14	-9.4331	-0.0372	-1.8804	0.0100	-0.0072	0.0139	30.8472	-11.8168	12.4842	0.5601	-0.3646	0.6827	0.2954
11.15	-9.4179	-0.0374	-1.8678	0.0080	-0.0117	0.0153	30.8951	-12.0404	12.4196	0.5601	-0.3646	0.6827	0.2954
11.16	-9.4336	-0.0443	-1.8822	0.0064	-0.0084	0.0178	30.9136	-12.0448	12.4125	0.5601	-0.3646	0.6827	0.2954
11.17	-9.4302	-0.0592	-1.8911	0.0026	-0.0122	0.0170	30.7657	-11.7257	12.1234	0.5600	-0.3646	0.6827	0.2954
11.18	-9.4208	-0.0657	-1.8792	0.0015	-0.0082	0.0120	30.7762	-11.8848	12.2853	0.5601	-0.3646	0.6828	0.2954
11.19	-9.4285	-0.0674	-1.8862	0.0028	-0.0110	0.0100	30.6720	-11.8397	12.1897	0.5600	-0.3646	0.6827	0.2954
11.2	-9.4305	-0.0682	-1.8912	0.0038	-0.0125	0.0102	30.7146	-11.8632	12.4016	0.5601	-0.3646	0.6828	0.2955
11.21	-9.4250	-0.0646	-1.8858	0.0136	-0.0058	0.0161	30.6775	-11.8549	12.4191	0.5600	-0.3646	0.6827	0.2954
11.22	-9.4256	-0.0590	-1.8812	0.0164	-0.0108	0.0167	30.7116	-11.7384	12.4346	0.5601	-0.3645	0.6828	0.2954
11.23	-9.4335	-0.0541	-1.8894	0.0121	-0.0074	0.0159	30.8310	-11.8292	12.5324	0.5601	-0.3645	0.6828	0.2954
11.24	-9.4262	-0.0503	-1.8808	0.0077	-0.0106	0.0192	30.8774	-11.8622	12.5045	0.5600	-0.3645	0.6828	0.2953
11.25	-9.4306	-0.0557	-1.8741	0.0032	-0.0106	0.0170	30.7352	-11.8469	12.4084	0.5601	-0.3645	0.6829	0.2954
11.26	-9.4242	-0.0568	-1.8699	0.0001	-0.0153	0.0161	30.8379	-11.8580	12.4333	0.5600	-0.3644	0.6828	0.2954
11.27	-9.4278	-0.0571	-1.8657	0.0021	-0.0117	0.0160	30.8087	-11.8442	12.3886	0.5601	-0.3645	0.6829	0.2954
11.28	-9.4222	-0.0611	-1.8701	0.0082	-0.0073	0.0173	30.7401	-11.8696	12.5982	0.5600	-0.3644	0.6828	0.2954
11.29	-9.4267	-0.0622	-1.8692	-0.0016	-0.0080	0.0190	30.9886	-11.7204	12.8187	0.5600	-0.3644	0.6829	0.2955
11.3	-9.4315	-0.0595	-1.8689	0.0043	-0.0104	0.0179	31.1750	-11.6719	12.5458	0.5600	-0.3644	0.6829	0.2955
11.31	-9.4276	-0.0645	-1.8605	0.0060	-0.0170	0.0131	31.1050	-11.6967	12.4829	0.5599	-0.3645	0.6828	0.2955
11.32	-9.4294	-0.0580	-1.8502	0.0065	-0.0156	0.0125	30.9732	-11.8787	12.3538	0.5600	-0.3645	0.6828	0.2956
11.33	-9.4307	-0.0428	-1.8561	-0.0017	-0.0111	0.0134	30.7249	-11.8891	12.3024	0.5599	-0.3645	0.6828	0.2956
11.34	-9.4286	-0.0309	-1.8550	-0.0011	-0.0105	0.0102	30.6915	-11.8775	12.2127	0.5600	-0.3645	0.6828	0.2956
11.35	-9.4266	-0.0321	-1.8618	0.0029	-0.0109	0.0071	30.9210	-11.9175	12.4241	0.5599	-0.3645	0.6827	0.2956
11.36	-9.4228	-0.0428	-1.8645	0.0077	-0.0013	0.0137	30.9808	-11.8011	12.4599	0.5599	-0.3646	0.6828	0.2956
11.37	-9.4252	-0.0550	-1.8693	0.0087	-0.0103	0.0117	30.8505	-12.1124	12.3634	0.5599	-0.3646	0.6828	0.2956
11.38	-9.4301	-0.0611	-1.8777	-0.0002	-0.0084	0.0137	30.7523	-11.9773	12.3958	0.5599	-0.3646	0.6828	0.2956
