time	acceleration_x	acceleration_y	acceleration_z	gyroscope_x	gyroscope_y	gyroscope_z	magnetometer_x	magnetometer_y	magnetometer_z	quaternion_w	quaternion_x	quaternion_y	quaternion_z
0	-5.3406	-0.1426	-0.8692	0.0085	-0.0042	0.0033	17.3868	8.8216	-3.7385	0.1628	0.3674	0.2015	-0.3169
0.01	-10.5499	-0.2835	-1.7168	0.0218	-0.0083	0.0091	34.1946	17.2655	-7.8224	0.3216	0.7260	0.3982	-0.6262
0.02	-9.2850	-0.2513	-1.5126	0.0207	-0.0092	0.0095	29.9067	15.2187	-6.6812	0.2830	0.6390	0.3504	-0.5511
0.03	-9.9729	-0.2698	-1.6224	0.0172	-0.0078	0.0103	32.2609	16.2534	-7.1629	0.3039	0.6860	0.3762	-0.5917
0.04	-9.5469	-0.2608	-1.5524	0.0207	-0.0072	0.0100	30.8253	15.6026	-6.9592	0.2910	0.6569	0.3602	-0.5665
0.05	-9.8134	-0.2658	-1.5965	0.0124	-0.0073	0.0062	31.8189	16.0763	-6.9198	0.2992	0.6756	0.3705	-0.5826
0.06	-9.6483	-0.2619	-1.5638	0.0208	-0.0156	0.0117	31.3759	15.8069	-7.1553	0.2940	0.6637	0.3640	-0.5724
0.07	-9.7528	-0.2690	-1.5888	0.0181	-0.0128	0.0103	31.7755	15.9036	-7.1118	0.2972	0.6710	0.3679	-0.5787
0.08	-9.6819	-0.2655	-1.5749	0.0171	-0.0096	0.0136	31.5467	15.7973	-7.0630	0.2953	0.6668	0.3656	-0.5751
0.09	-9.7134	-0.2655	-1.5872	0.0187	-0.0078	0.0051	31.6792	15.6098	-7.0659	0.2963	0.6690	0.3668	-0.5769
0.1	-9.7092	-0.2646	-1.5897	0.0149	-0.0088	0.0108	31.4529	15.7559	-7.0973	0.2959	0.6681	0.3663	-0.5761
0.11	-9.7091	-0.2678	-1.5855	0.0152	-0.0079	0.0099	31.5227	16.0177	-7.0043	0.2959	0.6681	0.3663	-0.5761
0.12	-9.7022	-0.2702	-1.5817	0.0172	-0.0092	0.0118	31.5360	15.9458	-6.9902	0.2959	0.6681	0.3663	-0.5761
0.13	-9.7085	-0.2690	-1.5818	0.0145	-0.0093	0.0119	31.5493	16.1195	-6.9836	0.2959	0.6681	0.3663	-0.5761
0.14	-9.7094	-0.2681	-1.5789	0.0128	-0.0132	0.0094	31.4826	15.9536	-7.0438	0.2959	0.6681	0.3664	-0.5761
0.15	-9.6976	-0.2678	-1.5724	0.0157	-0.0136	0.0128	31.4584	15.7933	-7.1027	0.2959	0.6681	0.3663	-0.5761
0.16	-9.7040	-0.2654	-1.5753	0.0120	-0.0133	0.0083	31.3554	15.8103	-6.9623	0.2959	0.6681	0.3664	-0.5761
0.17	-9.7130	-0.2614	-1.5781	0.0167	-0.0079	0.0130	31.4064	16.0796	-7.0269	0.2959	0.6681	0.3663	-0.5761
0.18	-9.7058	-0.2566	-1.5707	0.0209	-0.0087	0.0039	31.2892	15.9457	-7.1475	0.2959	0.6681	0.3664	-0.5761
0.19	-9.7062	-0.2577	-1.5774	0.0169	-0.0099	0.0092	31.3898	15.7721	-6.8525	0.2959	0.6681	0.3664	-0.5761
0.2	-9.7093	-0.2638	-1.5764	0.0211	-0.0049	0.0081	31.3353	15.8381	-6.9692	0.2959	0.6681	0.3664	-0.5761
0.21	-9.7045	-0.2634	-1.5801	0.0213	-0.0086	0.0084	31.4869	15.9177	-7.1035	0.2958	0.6681	0.3664	-0.5761
0.22	-9.7051	-0.2624	-1.5846	0.0161	-0.0054	0.0093	31.5469	15.8579	-7.0895	0.2958	0.6681	0.3664	-0.5761
0.23	-9.7111	-0.2643	-1.5864	0.0151	-0.0061	0.0100	31.5558	16.1109	-6.9568	0.2958	0.6681	0.3664	-0.5761
0.24	-9.7123	-0.2643	-1.5818	0.0179	-0.0087	0.0065	31.5737	15.8734	-6.8124	0.2958	0.6681	0.3664	-0.5761
0.25	-9.7032	-0.2655	-1.5778	0.0196	-0.0144	0.0103	31.3986	15.9917	-7.1453	0.2958	0.6681	0.3664	-0.5761
0.26	-9.7053	-0.2639	-1.5871	0.0213	-0.0093	0.0106	31.5558	15.8050	-6.9537	0.2958	0.6682	0.3664	-0.5761
0.27	-9.7153	-0.2643	-1.5977	0.0128	-0.0103	0.0102	31.5383	15.7380	-7.0145	0.2958	0.6682	0.3664	-0.5761
0.28	-9.7037	-0.2662	-1.5937	0.0139	-0.0083	0.0164	31.8132	15.8115	-7.2426	0.2958	0.6682	0.3664	-0.5760
0.29	-9.7028	-0.2645	-1.5890	0.0176	-0.0087	0.0102	31.7051	15.6844	-6.9729	0.2958	0.6682	0.3664	-0.5760
0.3	-9.7088	-0.2727	-1.5901	0.0177	-0.0078	0.0074	31.6741	15.8452	-6.9385	0.2958	0.6682	0.3664	-0.5760
0.31	-9.7100	-0.2714	-1.5872	0.0174	-0.0104	0.0144	31.9487	15.9187	-6.2924	0.2958	0.6682	0.3663	-0.5760
0.32	-9.7012	-0.2629	-1.5811	0.0170	-0.0088	0.0069	32.1293	15.9479	-6.3231	0.2957	0.6682	0.3663	-0.5760
0.33	-9.7066	-0.2600	-1.5862	0.0200	-0.0085	0.0098	31.5580	15.9499	-6.8752	0.2957	0.6682	0.3663	-0.5760
0.34	-9.7117	-0.2559	-1.5831	0.0222	-0.0079	0.0142	31.4667	16.2567	-6.7747	0.2957	0.6683	0.3663	-0.5760
0.35	-9.7080	-0.2546	-1.5746	0.0203	-0.0089	0.0108	31.5010	15.9270	-6.9868	0.2957	0.6683	0.3663	-0.5760
0.36	-9.7064	-0.2481	-1.5689	0.0133	-0.0108	0.0099	31.3222	15.9672	-7.0152	0.2957	0.6683	0.3663	-0.5760
0.37	-9.7141	-0.2469	-1.5791	0.0186	-0.0046	0.0081	31.3262	15.8923	-6.9049	0.2957	0.6683	0.3663	-0.5760
0.38	-9.7090	-0.2491	-1.5727	0.0193	-0.0103	0.0133	31.3572	15.9265	-7.0376	0.2957	0.6683	0.3663	-0.5760
0.39	-9.7039	-0.2532	-1.5692	0.0140	-0.0089	0.0040	31.4365	16.1499	-7.1328	0.2957	0.6683	0.3663	-0.5760
0.4	-9.7110	-0.2548	-1.5725	0.0131	-0.0073	0.0060	31.4108	15.8810	-6.9874	0.2957	0.6683	0.3663	-0.5760
0.41	-9.7095	-0.2580	-1.5709	0.0164	-0.0091	0.0072	31.3246	15.9003	-7.0152	0.2956	0.6683	0.3664	-0.5760
0.42	-9.7049	-0.2622	-1.5707	0.0116	-0.0112	0.0105	31.2181	16.1639	-7.1212	0.2957	0.6683	0.3664	-0.5760
0.43	-9.7110	-0.2616	-1.5715	0.0100	-0.0132	0.0115	31.3210	16.0467	-7.0839	0.2957	0.6683	0.3664	-0.5760
0.44	-9.7096	-0.2623	-1.5774	0.0050	-0.0121	0.0154	31.4062	15.7878	-7.0885	0.2957	0.6683	0.3664	-0.5759
0.45	-9.7016	-0.2676	-1.5742	0.0121	-0.0091	0.0168	31.6505	15.7304	-7.0758	0.2958	0.6683	0.3664	-0.5759
0.46	-9.7052	-0.2649	-1.5742	0.0139	-0.0084	0.0086	31.4553	15.7573	-7.0793	0.2958	0.6683	0.3664	-0.5759
0.47	-9.7098	-0.2607	-1.5760	0.0131	-0.0085	0.0063	31.4446	15.9270	-7.1004	0.2958	0.6683	0.3664	-0.5759
0.48	-9.7114	-0.2622	-1.5782	0.0111	-0.0082	0.0130	31.7083	15.8742	-6.9716	0.2958	0.6683	0.3664	-0.5759
0.49	-9.7047	-0.2649	-1.5786	0.0147	-0.0101	0.0146	31.4828	15.8360	-7.0250	0.2958	0.6683	0.3664	-0.5759
0.5	-9.7099	-0.2653	-1.5848	0.0141	-0.0178	0.0079	31.3751	15.7325	-7.1261	0.2958	0.6683	0.3664	-0.5759
0.51	-9.7107	-0.2660	-1.5838	0.0085	-0.0177	0.0131	31.5214	15.8241	-6.9703	0.2959	0.6683	0.3664	-0.5759
0.52	-9.7016	-0.2656	-1.5836	0.0204	-0.0137	0.0089	31.4613	15.8893	-7.0271	0.2959	0.6682	0.3664	-0.5759
0.53	-9.7080	-0.2668	-1.5919	0.0174	-0.0100	0.0089	31.5674	15.9840	-6.9341	0.2958	0.6682	0.3664	-0.5759
0.54	-9.7140	-0.2667	-1.5969	0.0141	-0.0091	0.0163	31.4733	16.1100	-6.9593	0.2959	0.6683	0.3664	-0.5759
0.55	-9.7069	-0.2652	-1.5997	0.0190	-0.0094	0.0099	31.2045	15.9588	-7.1313	0.2959	0.6683	0.3664	-0.5759
0.56	-9.7043	-0.2630	-1.5903	0.0085	-0.0114	0.0062	31.4087	15.9710	-7.0514	0.2959	0.6682	0.3664	-0.5759
0.57	-9.7100	-0.2595	-1.5879	0.0006	-0.0084	0.0092	31.2172	15.8536	-6.9688	0.2959	0.6682	0.3665	-0.5758
0.58	-9.7108	-0.2600	-1.5863	0.0188	-0.0153	0.0088	31.4264	15.9854	-7.1040	0.2959	0.6682	0.3665	-0.5759
0.59	-9.7043	-0.2567	-1.5798	0.0127	-0.0140	0.0165	31.3934	16.0873	-6.9805	0.2959	0.6682	0.3665	-0.5759
0.6	-9.7051	-0.2577	-1.5830	0.0112	-0.0089	0.0100	31.4712	15.8901	-7.0261	0.2960	0.6682	0.3665	-0.5758
0.61	-9.7112	-0.2619	-1.5800	0.0077	-0.0075	0.0133	31.4436	15.9805	-6.9162	0.2960	0.6682	0.3665	-0.5758
0.62	-9.7034	-0.2686	-1.5774	0.0176	-0.0145	0.0134	31.3961	15.9020	-6.9897	0.2960	0.6682	0.3665	-0.5758
0.63	-9.7070	-0.2682	-1.5783	0.0176	-0.0129	0.0120	31.4247	15.6833	-7.1284	0.2960	0.6682	0.3665	-0.5758
0.64	-9.7130	-0.2726	-1.5783	0.0179	-0.0123	0.0103	31.4342	15.9514	-7.0133	0.2960	0.6682	0.3665	-0.5758
0.65	-9.7070	-0.2704	-1.5761	0.0096	-0.0089	0.0079	31.6080	15.7326	-6.9912	0.2960	0.6682	0.3665	-0.5758
0.66	-9.7036	-0.2697	-1.5715	0.0133	-0.0128	0.0083	31.4575	15.7432	-6.9821	0.2960	0.6682	0.3665	-0.5758
0.67	-9.7088	-0.2746	-1.5800	0.0200	-0.0100	0.0104	31.4189	15.7125	-7.0299	0.2960	0.6682	0.3665	-0.5758
0.68	-9.7057	-0.2724	-1.5782	0.0226	-0.0080	0.0154	31.5969	15.8125	-7.1063	0.2960	0.6682	0.3665	-0.5758
0.69	-9.7008	-0.2720	-1.5774	0.0185	-0.0146	0.0113	31.4973	15.8079	-7.0630	0.2960	0.6682	0.3665	-0.5758
0.7	-9.7075	-0.2701	-1.5783	0.0176	-0.0095	0.0106	31.3852	15.9541	-7.1102	0.2960	0.6682	0.3665	-0.5758
0.71	-9.7096	-0.2704	-1.5851	0.0178	-0.0075	0.0081	31.4659	15.9475	-7.0554	0.2960	0.6682	0.3665	-0.5758
0.72	-9.7080	-0.2665	-1.5821	0.0116	-0.0085	0.0127	31.5248	15.8771	-7.1789	0.2960	0.6682	0.3665	-0.5758
0.73	-9.7060	-0.2656	-1.5813	0.0122	-0.0090	0.0091	31.3949	15.9936	-7.1680	0.2960	0.6682	0.3665	-0.5758
0.74	-9.7040	-0.2629	-1.5805	0.0091	-0.0086	0.0110	31.3117	15.9928	-6.9437	0.2960	0.6682	0.3665	-0.5758
0.75	-9.7090	-0.2608	-1.5833	0.0151	-0.0058	0.0081	31.3588	15.9188	-7.0811	0.2960	0.6682	0.3665	-0.5757
0.76	-9.7050	-0.2624	-1.5876	0.0182	-0.0066	0.0118	31.2481	15.8873	-7.1013	0.2960	0.6683	0.3665	-0.5757
0.77	-9.7054	-0.2585	-1.5836	0.0156	-0.0066	0.0078	31.2605	15.9878	-7.0749	0.2960	0.6683	0.3666	-0.5757
0.78	-9.7096	-0.2579	-1.5830	0.0088	-0.0090	0.0087	31.3930	16.0115	-6.9726	0.2960	0.6683	0.3666	-0.5757
0.79	-9.7022	-0.2505	-1.5726	0.0059	-0.0028	0.0135	31.4243	16.1022	-7.0433	0.2960	0.6683	0.3666	-0.5757
0.8	-9.7094	-0.2505	-1.5757	0.0121	-0.0072	0.0157	31.4562	15.9505	-6.7972	0.2960	0.6683	0.3666	-0.5756
0.81	-9.7119	-0.2513	-1.5800	0.0157	-0.0090	0.0138	31.9042	16.1391	-6.7094	0.2960	0.6683	0.3666	-0.5756
0.82	-9.7065	-0.2500	-1.5792	0.0151	-0.0098	0.0099	32.0632	16.0439	-6.6271	0.2960	0.6683	0.3666	-0.5756
0.83	-9.7055	-0.2489	-1.5707	0.0111	-0.0118	0.0148	31.6105	16.0360	-7.0851	0.2961	0.6683	0.3666	-0.5756
0.84	-9.7119	-0.2491	-1.5738	0.0118	-0.0118	0.0122	31.8050	16.3440	-6.9316	0.2961	0.6683	0.3666	-0.5756
0.85	-9.7058	-0.2468	-1.5801	0.0183	-0.0087	0.0155	31.7467	15.6013	-6.9803	0.2961	0.6683	0.3666	-0.5756
0.86	-9.7044	-0.2515	-1.5795	0.0198	-0.0087	0.0086	31.4214	15.7252	-7.1576	0.2961	0.6683	0.3666	-0.5756
0.87	-9.7113	-0.2542	-1.5792	0.0140	-0.0121	0.0105	31.5532	16.0467	-6.9923	0.2961	0.6683	0.3666	-0.5756
0.88	-9.7090	-0.2546	-1.5845	0.0190	-0.0084	0.0140	31.5000	15.8397	-7.1353	0.2961	0.6683	0.3666	-0.5756
0.89	-9.7047	-0.2577	-1.5829	0.0178	-0.0141	0.0094	31.6055	15.9842	-6.9063	0.2961	0.6683	0.3666	-0.5756
0.9	-9.7067	-0.2597	-1.5763	0.0210	-0.0147	0.0107	31.5251	15.9838	-7.0148	0.2961	0.6683	0.3666	-0.5756
0.91	-9.7098	-0.2588	-1.5901	0.0099	-0.0092	0.0079	31.6363	15.9952	-7.0291	0.2961	0.6683	0.3666	-0.5756
0.92	-9.7043	-0.2603	-1.5938	0.0130	-0.0056	0.0068	31.4260	15.9731	-6.9983	0.2961	0.6683	0.3666	-0.5756
0.93	-9.7038	-0.2633	-1.5881	0.0194	-0.0068	0.0065	31.5863	16.0120	-7.0897	0.2960	0.6683	0.3666	-0.5756
0.94	-9.7059	-0.2593	-1.5891	0.0157	-0.0060	0.0103	31.5465	15.8849	-7.1115	0.2960	0.6683	0.3666	-0.5756
0.95	-9.7086	-0.2559	-1.5898	0.0139	-0.0093	0.0102	31.4315	15.9307	-7.1059	0.2960	0.6683	0.3666	-0.5755
0.96	-9.7049	-0.2593	-1.5891	0.0147	-0.0059	0.0099	31.4269	15.9969	-7.0893	0.2960	0.6684	0.3667	-0.5755
0.97	-9.7101	-0.2558	-1.5820	0.0154	-0.0076	0.0105	31.3210	15.9854	-6.9083	0.2960	0.6684	0.3667	-0.5755
0.98	-9.7127	-0.2633	-1.5815	0.0164	-0.0103	0.0073	31.4888	15.9662	-6.9631	0.2960	0.6684	0.3667	-0.5755
0.99	-9.7057	-0.2695	-1.5787	0.0142	-0.0141	0.0105	31.4050	16.0291	-7.0069	0.2960	0.6683	0.3667	-0.5755
1	-9.7036	-0.2699	-1.5810	0.0186	-0.0101	0.0139	31.5290	15.8501	-6.8881	0.2960	0.6684	0.3667	-0.5755
1.01	-9.7074	-0.2780	-1.5809	0.0166	-0.0126	0.0131	31.5145	15.8213	-7.0232	0.2960	0.6684	0.3667	-0.5755
1.02	-9.7021	-0.2793	-1.5798	0.0105	-0.0139	0.0095	31.4719	15.7891	-7.0213	0.2961	0.6683	0.3667	-0.5755
1.03	-9.7088	-0.2836	-1.5733	0.0194	-0.0117	0.0102	31.6595	15.9283	-7.1455	0.2960	0.6683	0.3667	-0.5755
1.04	-9.7050	-0.2800	-1.5747	0.0165	-0.0079	0.0154	31.5796	15.9556	-7.0185	0.2960	0.6684	0.3666	-0.5755
1.05	-9.7073	-0.2792	-1.5833	0.0195	-0.0135	0.0114	31.7072	15.8725	-7.0062	0.2960	0.6684	0.3666	-0.5755
1.06	-9.7092	-0.2742	-1.5825	0.0188	-0.0123	0.0129	31.5770	16.0502	-7.0289	0.2960	0.6684	0.3666	-0.5755
1.07	-9.7058	-0.2776	-1.5833	0.0180	-0.0079	0.0095	31.6284	15.9018	-7.0013	0.2960	0.6684	0.3666	-0.5755
1.08	-9.7100	-0.2741	-1.5881	0.0219	-0.0109	0.0138	31.5926	15.9193	-7.0363	0.2960	0.6684	0.3666	-0.5755
1.09	-9.7099	-0.2777	-1.5894	0.0212	-0.0153	0.0166	31.6314	15.8792	-6.9788	0.2960	0.6684	0.3665	-0.5756
1.1	-9.7100	-0.2759	-1.5915	0.0164	-0.0088	0.0099	31.4302	16.1013	-7.0996	0.2960	0.6684	0.3665	-0.5756
1.11	-9.7060	-0.2740	-1.5952	0.0159	-0.0127	0.0076	31.5668	15.9115	-7.0365	0.2960	0.6684	0.3666	-0.5756
1.12	-9.7065	-0.2768	-1.5919	0.0222	-0.0152	0.0051	31.7164	15.9996	-7.0131	0.2960	0.6684	0.3665	-0.5756
1.13	-9.7085	-0.2734	-1.5888	0.0174	-0.0097	0.0117	31.5704	16.0623	-7.1093	0.2960	0.6684	0.3665	-0.5756
1.14	-9.7088	-0.2666	-1.5923	0.0158	-0.0103	0.0119	31.4690	15.9728	-6.8141	0.2960	0.6684	0.3665	-0.5756
1.15	-9.7092	-0.2645	-1.5850	0.0197	-0.0109	0.0075	31.4349	15.9155	-7.1723	0.2960	0.6684	0.3665	-0.5756
1.16	-9.7078	-0.2580	-1.5820	0.0183	-0.0095	0.0089	31.4630	15.9032	-6.9324	0.2960	0.6684	0.3665	-0.5756
1.17	-9.7113	-0.2547	-1.5800	0.0159	-0.0068	0.0087	31.4261	16.0070	-7.0312	0.2959	0.6684	0.3666	-0.5756
1.18	-9.7130	-0.2460	-1.5789	0.0170	-0.0145	0.0102	31.5085	15.9895	-7.0759	0.2959	0.6684	0.3666	-0.5756
1.19	-9.7041	-0.2487	-1.5765	0.0203	-0.0111	0.0121	31.6070	15.9019	-6.9797	0.2959	0.6684	0.3665	-0.5756
1.2	-9.7026	-0.2489	-1.5746	0.0182	-0.0138	0.0089	31.7354	15.9211	-7.2500	0.2959	0.6684	0.3665	-0.5756
1.21	-9.7074	-0.2480	-1.5773	0.0168	-0.0132	0.0125	31.6200	15.8630	-7.1500	0.2959	0.6684	0.3665	-0.5757
1.22	-9.7075	-0.2529	-1.5791	0.0178	-0.0090	0.0113	31.6792	15.7973	-7.2247	0.2959	0.6684	0.3665	-0.5757
1.23	-9.7001	-0.2555	-1.5711	0.0206	-0.0106	0.0135	31.7008	15.9327	-7.0568	0.2959	0.6684	0.3665	-0.5757
1.24	-9.7055	-0.2583	-1.5707	0.0204	-0.0124	0.0125	31.5725	15.8842	-7.1559	0.2959	0.6684	0.3665	-0.5757
1.25	-9.7067	-0.2554	-1.5720	0.0190	-0.0190	0.0070	31.6558	15.7448	-6.9785	0.2959	0.6684	0.3665	-0.5757
1.26	-9.7023	-0.2566	-1.5703	0.0214	-0.0137	0.0120	31.4454	15.7295	-7.2013	0.2959	0.6684	0.3664	-0.5757
1.27	-9.7070	-0.2557	-1.5689	0.0223	-0.0179	0.0099	31.3614	15.9354	-7.2728	0.2959	0.6684	0.3664	-0.5758
1.28	-9.7116	-0.2587	-1.5780	0.0213	-0.0115	0.0103	31.6723	16.0450	-7.1909	0.2959	0.6683	0.3664	-0.5758
1.29	-9.7062	-0.2578	-1.5783	0.0228	-0.0099	0.0139	31.4359	16.0851	-7.0902	0.2959	0.6684	0.3664	-0.5758
1.3	-9.7027	-0.2574	-1.5777	0.0198	-0.0041	0.0051	31.6059	15.9784	-6.7886	0.2958	0.6684	0.3664	-0.5758
1.31	-9.7068	-0.2648	-1.5918	0.0226	-0.0077	0.0058	32.0706	16.1101	-6.9961	0.2958	0.6684	0.3664	-0.5758
1.32	-9.7114	-0.2648	-1.5873	0.0142	-0.0047	0.0062	32.0317	16.1402	-6.8622	0.2958	0.6684	0.3664	-0.5758
1.33	-9.7117	-0.2689	-1.5889	0.0134	-0.0093	0.0070	31.3636	16.1521	-6.7859	0.2958	0.6684	0.3664	-0.5758
1.34	-9.7090	-0.2741	-1.5913	0.0165	-0.0104	0.0136	31.4234	16.4965	-6.7195	0.2958	0.6684	0.3664	-0.5758
1.35	-9.7097	-0.2711	-1.5883	0.0161	-0.0080	0.0092	31.3013	16.1343	-7.1114	0.2958	0.6684	0.3664	-0.5758
1.36	-9.7106	-0.2690	-1.5885	0.0194	-0.0103	0.0165	31.3242	16.0155	-6.9993	0.2958	0.6684	0.3664	-0.5758
1.37	-9.7109	-0.2681	-1.5918	0.0134	-0.0123	0.0110	31.4158	15.9758	-6.7305	0.2958	0.6684	0.3664	-0.5757
1.38	-9.7098	-0.2682	-1.5903	0.0203	-0.0156	0.0118	31.7065	15.8518	-6.8577	0.2958	0.6684	0.3664	-0.5758
1.39	-9.7074	-0.2671	-1.5829	0.0106	-0.0135	0.0092	31.6784	16.0712	-6.8586	0.2958	0.6684	0.3664	-0.5758
1.4	-9.7095	-0.2672	-1.5818	0.0176	-0.0172	0.0092	31.5315	15.6779	-6.7333	0.2958	0.6684	0.3664	-0.5758
1.41	-9.7101	-0.2684	-1.5855	0.0174	-0.0108	0.0118	31.8092	15.8565	-6.8726	0.2958	0.6684	0.3664	-0.5758
1.42	-9.7094	-0.2690	-1.5883	0.0197	-0.0124	0.0104	31.5858	15.8413	-7.0391	0.2958	0.6684	0.3664	-0.5758
1.43	-9.7055	-0.2696	-1.5830	0.0176	-0.0070	0.0129	31.4177	15.8272	-6.8184	0.2958	0.6684	0.3664	-0.5758
1.44	-9.7057	-0.2680	-1.5773	0.0104	-0.0112	0.0142	31.5125	15.9902	-6.8530	0.2958	0.6684	0.3664	-0.5758
1.45	-9.7065	-0.2717	-1.5843	0.0198	-0.0117	0.0107	31.6142	15.7481	-6.9433	0.2958	0.6684	0.3664	-0.5758
1.46	-9.7119	-0.2758	-1.5760	0.0154	-0.0118	0.0126	31.5900	15.6919	-6.8975	0.2958	0.6684	0.3664	-0.5758
1.47	-9.7090	-0.2766	-1.5801	0.0191	-0.0102	0.0110	31.5605	16.0764	-7.0179	0.2958	0.6684	0.3664	-0.5758
1.48	-9.7101	-0.2713	-1.5791	0.0166	-0.0069	0.0033	31.2975	15.9911	-7.0243	0.2958	0.6684	0.3664	-0.5758
1.49	-9.7056	-0.2728	-1.5787	0.0148	-0.0094	0.0120	31.4255	15.9250	-7.0304	0.2958	0.6684	0.3664	-0.5758
1.5	-9.7013	-0.2697	-1.5716	0.0181	-0.0083	0.0104	31.3788	16.2395	-6.9775	0.2958	0.6684	0.3664	-0.5758
1.51	-9.7059	-0.2630	-1.5788	0.0139	-0.0070	0.0077	31.3410	15.9074	-6.9021	0.2958	0.6684	0.3664	-0.5758
1.52	-9.7024	-0.2622	-1.5793	0.0169	-0.0106	0.0059	31.4455	15.9959	-6.9744	0.2957	0.6684	0.3664	-0.5758
1.53	-9.7064	-0.2610	-1.5754	0.0167	-0.0078	0.0049	31.4593	16.0716	-7.0115	0.2957	0.6684	0.3664	-0.5758
1.54	-9.7107	-0.2581	-1.5852	0.0146	-0.0071	0.0037	31.5590	15.9737	-6.8210	0.2957	0.6684	0.3665	-0.5758
1.55	-9.7100	-0.2566	-1.5755	0.0212	-0.0118	0.0101	31.3142	15.9511	-6.9467	0.2957	0.6684	0.3665	-0.5758
1.56	-9.7074	-0.2579	-1.5715	0.0216	-0.0150	0.0101	31.3841	15.9670	-6.9345	0.2957	0.6684	0.3664	-0.5758
1.57	-9.7096	-0.2567	-1.5799	0.0062	-0.0127	0.0100	31.4839	15.9581	-6.9266	0.2957	0.6683	0.3665	-0.5758
1.58	-9.7100	-0.2532	-1.5796	0.0123	-0.0136	0.0033	31.6030	15.9651	-6.9405	0.2957	0.6683	0.3665	-0.5758
1.59	-9.7095	-0.2540	-1.5749	0.0180	-0.0115	0.0067	31.5853	16.0594	-6.9120	0.2957	0.6683	0.3665	-0.5759
1.6	-9.7071	-0.2533	-1.5813	0.0156	-0.0103	0.0151	31.6107	15.9022	-6.9768	0.2957	0.6683	0.3665	-0.5759
1.61	-9.7077	-0.2537	-1.5809	0.0210	-0.0144	0.0093	31.5433	15.8702	-7.0275	0.2957	0.6683	0.3665	-0.5759
1.62	-9.7086	-0.2538	-1.5805	0.0184	-0.0098	0.0064	31.4157	15.8926	-7.0202	0.2957	0.6683	0.3665	-0.5759
1.63	-9.7064	-0.2532	-1.5795	0.0184	-0.0065	0.0090	31.5591	15.8593	-6.9971	0.2956	0.6683	0.3665	-0.5759
1.64	-9.7058	-0.2534	-1.5715	0.0215	-0.0118	0.0060	31.6197	15.7669	-6.8883	0.2956	0.6683	0.3665	-0.5759
1.65	-9.7077	-0.2534	-1.5739	0.0153	-0.0142	0.0071	31.5206	15.8774	-6.9655	0.2956	0.6683	0.3665	-0.5759
1.66	-9.7055	-0.2522	-1.5750	0.0165	-0.0101	0.0067	31.4161	15.9756	-6.7947	0.2956	0.6683	0.3665	-0.5759
1.67	-9.7064	-0.2547	-1.5780	0.0200	-0.0053	0.0065	31.4301	16.0818	-6.9303	0.2956	0.6683	0.3665	-0.5759
1.68	-9.7088	-0.2625	-1.5805	0.0141	-0.0029	0.0090	31.2509	15.9658	-7.0894	0.2956	0.6683	0.3665	-0.5759
1.69	-9.7053	-0.2646	-1.5789	0.0133	-0.0098	0.0069	31.3651	15.9523	-6.8176	0.2955	0.6683	0.3666	-0.5759
1.7	-9.7051	-0.2616	-1.5805	0.0146	-0.0026	0.0069	31.4314	16.0710	-6.8636	0.2955	0.6683	0.3666	-0.5759
1.71	-9.7123	-0.2652	-1.5892	0.0163	-0.0037	0.0088	31.2961	16.0086	-7.0063	0.2955	0.6683	0.3666	-0.5759
1.72	-9.7108	-0.2665	-1.5974	0.0101	-0.0063	0.0082	31.2413	15.8535	-7.0390	0.2955	0.6683	0.3666	-0.5759
1.73	-9.7074	-0.2671	-1.5891	0.0144	-0.0064	0.0121	31.4050	15.9840	-6.9182	0.2955	0.6683	0.3667	-0.5758
1.74	-9.7100	-0.2633	-1.5887	0.0194	-0.0126	0.0173	31.3818	16.1751	-6.9471	0.2955	0.6683	0.3666	-0.5758
1.75	-9.7073	-0.2575	-1.5988	0.0146	-0.0151	0.0132	31.4227	15.8542	-6.9274	0.2955	0.6683	0.3666	-0.5758
1.76	-9.7022	-0.2556	-1.5876	0.0143	-0.0129	0.0116	31.7169	15.6147	-6.9130	0.2956	0.6683	0.3666	-0.5759
1.77	-9.7106	-0.2537	-1.5895	0.0166	-0.0115	0.0122	31.4703	15.7419	-7.0369	0.2956	0.6683	0.3666	-0.5758
1.78	-9.7094	-0.2495	-1.5859	0.0150	-0.0107	0.0089	31.5407	15.8496	-6.9820	0.2956	0.6683	0.3666	-0.5759
1.79	-9.7095	-0.2503	-1.5837	0.0139	-0.0078	0.0126	31.4770	15.9174	-6.8429	0.2956	0.6683	0.3666	-0.5758
1.8	-9.7044	-0.2515	-1.5819	0.0157	-0.0103	0.0097	31.7615	15.6840	-6.7481	0.2956	0.6683	0.3666	-0.5758
1.81	-9.7098	-0.2557	-1.5817	0.0179	-0.0099	0.0111	32.0114	15.8802	-6.7171	0.2956	0.6683	0.3666	-0.5758
1.82	-9.7145	-0.2607	-1.5821	0.0113	-0.0141	0.0137	32.0242	15.9446	-6.6816	0.2956	0.6683	0.3666	-0.5758
1.83	-9.7021	-0.2655	-1.5753	0.0181	-0.0122	0.0099	31.4484	15.9643	-6.8199	0.2956	0.6683	0.3666	-0.5759
1.84	-9.7049	-0.2708	-1.5787	0.0230	-0.0165	0.0096	31.6317	16.2619	-6.8933	0.2956	0.6683	0.3666	-0.5759
1.85	-9.7049	-0.2716	-1.5711	0.0191	-0.0092	0.0075	31.4558	15.9477	-7.0148	0.2955	0.6683	0.3666	-0.5759
1.86	-9.7039	-0.2741	-1.5728	0.0148	-0.0135	0.0057	31.5035	15.7145	-6.9423	0.2955	0.6683	0.3666	-0.5759
1.87	-9.7041	-0.2750	-1.5714	0.0198	-0.0062	0.0148	31.5359	15.7602	-7.1044	0.2955	0.6683	0.3666	-0.5759
1.88	-9.7076	-0.2705	-1.5778	0.0190	-0.0072	0.0137	31.4257	16.0637	-7.0247	0.2955	0.6683	0.3665	-0.5759
1.89	-9.7096	-0.2712	-1.5784	0.0184	-0.0114	0.0100	31.4389	15.9080	-7.0115	0.2955	0.6683	0.3665	-0.5759
1.9	-9.7030	-0.2701	-1.5774	0.0173	-0.0096	0.0115	31.5100	15.9705	-6.8189	0.2955	0.6683	0.3665	-0.5759
1.91	-9.7094	-0.2696	-1.5835	0.0167	-0.0100	0.0101	31.5219	16.1128	-6.8146	0.2955	0.6683	0.3665	-0.5759
1.92	-9.7144	-0.2732	-1.5898	0.0190	-0.0061	0.0100	31.5315	15.9018	-7.0696	0.2955	0.6683	0.3665	-0.5759
1.93	-9.7047	-0.2771	-1.5831	0.0125	-0.0135	0.0097	31.5010	15.9881	-7.0873	0.2955	0.6683	0.3665	-0.5759
1.94	-9.7025	-0.2767	-1.5826	0.0134	-0.0148	0.0094	31.6903	15.9226	-6.9719	0.2955	0.6683	0.3665	-0.5759
1.95	-9.7107	-0.2796	-1.5864	0.0157	-0.0137	0.0122	31.7842	15.9154	-6.9934	0.2955	0.6683	0.3665	-0.5759
1.96	-9.7089	-0.2756	-1.5788	0.0188	-0.0070	0.0102	31.6027	15.7311	-7.1053	0.2955	0.6683	0.3665	-0.5759
1.97	-9.7046	-0.2674	-1.5788	0.0153	-0.0087	0.0136	31.6262	15.6139	-6.9741	0.2955	0.6683	0.3665	-0.5759
1.98	-9.7094	-0.2625	-1.5757	0.0171	-0.0085	0.0149	31.4923	15.8039	-6.9687	0.2955	0.6683	0.3665	-0.5759
1.99	-9.7091	-0.2558	-1.5755	0.0101	-0.0095	0.0091	31.5831	15.7912	-7.1400	0.2956	0.6683	0.3665	-0.5759
2	-9.7052	-0.2476	-1.5714	0.0184	-0.0128	0.0114	31.7657	15.7757	-7.1107	0.2956	0.6683	0.3665	-0.5759
2.01	-9.7064	-0.2442	-1.5677	0.0202	-0.0086	0.0088	31.4833	15.9401	-6.9679	0.2955	0.6683	0.3665	-0.5759
2.02	-9.7094	-0.2429	-1.5714	0.0187	-0.0077	0.0137	31.5665	15.8930	-6.9874	0.2955	0.6683	0.3665	-0.5759
2.03	-9.7053	-0.2462	-1.5695	0.0210	-0.0133	0.0072	31.5846	16.0902	-7.1542	0.2955	0.6683	0.3665	-0.5759
2.04	-9.7101	-0.2490	-1.5746	0.0175	-0.0181	0.0089	31.4872	16.0183	-7.1220	0.2955	0.6683	0.3665	-0.5760
2.05	-9.7062	-0.2510	-1.5799	0.0211	-0.0095	0.0098	31.6381	15.8237	-6.8532	0.2955	0.6683	0.3665	-0.5760
2.06	-9.7062	-0.2545	-1.5761	0.0183	-0.0063	0.0089	31.4468	15.8020	-6.9244	0.2955	0.6683	0.3665	-0.5760
2.07	-9.7086	-0.2569	-1.5775	0.0210	-0.0097	0.0087	31.3081	15.9270	-7.0369	0.2955	0.6683	0.3665	-0.5760
2.08	-9.7118	-0.2593	-1.5799	0.0212	-0.0064	0.0104	31.5294	16.0504	-6.8633	0.2954	0.6683	0.3665	-0.5760
2.09	-9.7061	-0.2554	-1.5817	0.0214	-0.0074	0.0121	31.5257	15.7499	-7.0427	0.2954	0.6684	0.3665	-0.5760
2.1	-9.7070	-0.2561	-1.5818	0.0153	-0.0079	0.0145	31.5277	15.9342	-7.0209	0.2954	0.6684	0.3664	-0.5760
2.11	-9.7110	-0.2545	-1.5866	0.0184	-0.0070	0.0098	31.5140	16.0284	-7.0292	0.2954	0.6684	0.3664	-0.5759
2.12	-9.7078	-0.2564	-1.5825	0.0238	-0.0066	0.0131	31.6105	15.8960	-7.1742	0.2954	0.6684	0.3664	-0.5759
2.13	-9.7021	-0.2586	-1.5829	0.0166	-0.0136	0.0154	31.7248	16.0323	-7.1668	0.2954	0.6684	0.3664	-0.5759
2.14	-9.7101	-0.2632	-1.5897	0.0159	-0.0124	0.0142	31.6238	15.7977	-6.9149	0.2954	0.6684	0.3664	-0.5760
2.15	-9.7112	-0.2678	-1.5922	0.0158	-0.0096	0.0134	31.5924	15.9400	-6.9563	0.2954	0.6684	0.3664	-0.5759
2.16	-9.7133	-0.2664	-1.5880	0.0156	-0.0116	0.0114	31.6161	15.7849	-7.0835	0.2954	0.6684	0.3664	-0.5759
2.17	-9.7077	-0.2753	-1.5918	0.0183	-0.0101	0.0134	31.5991	15.7918	-7.0803	0.2954	0.6684	0.3664	-0.5759
2.18	-9.7072	-0.2789	-1.5906	0.0169	-0.0099	0.0130	31.6207	16.0014	-6.9918	0.2954	0.6684	0.3663	-0.5759
2.19	-9.7091	-0.2745	-1.5946	0.0200	-0.0138	0.0159	31.5260	15.6909	-7.0576	0.2955	0.6684	0.3663	-0.5759
2.2	-9.7038	-0.2754	-1.5840	0.0155	-0.0124	0.0120	31.4232	15.8051	-7.1796	0.2955	0.6684	0.3663	-0.5760
2.21	-9.7100	-0.2711	-1.5820	0.0130	-0.0138	0.0103	31.4870	15.9406	-7.1622	0.2955	0.6684	0.3663	-0.5760
2.22	-9.7132	-0.2704	-1.5852	0.0131	-0.0129	0.0124	31.6129	15.6295	-7.0892	0.2955	0.6684	0.3663	-0.5760
2.23	-9.7045	-0.2664	-1.5748	0.0088	-0.0096	0.0112	31.6035	15.7844	-6.9509	0.2955	0.6684	0.3663	-0.5759
2.24	-9.7058	-0.2680	-1.5761	0.0178	-0.0107	0.0097	31.6069	15.8277	-7.0025	0.2955	0.6684	0.3663	-0.5759
2.25	-9.7068	-0.2651	-1.5805	0.0103	-0.0167	0.0088	31.5910	15.8771	-7.1609	0.2956	0.6684	0.3663	-0.5760
2.26	-9.7071	-0.2632	-1.5767	0.0124	-0.0125	0.0093	31.3239	16.0043	-7.0948	0.2956	0.6684	0.3663	-0.5760
2.27	-9.7056	-0.2686	-1.5745	0.0183	-0.0111	0.0107	31.6025	15.8981	-6.9399	0.2956	0.6684	0.3663	-0.5760
2.28	-9.7045	-0.2694	-1.5775	0.0148	-0.0142	0.0101	31.5467	15.9087	-6.8867	0.2956	0.6683	0.3663	-0.5760
2.29	-9.7100	-0.2685	-1.5783	0.0137	-0.0156	0.0042	31.5661	15.9638	-7.1834	0.2956	0.6683	0.3663	-0.5760
2.3	-9.7058	-0.2700	-1.5769	0.0177	-0.0179	0.0118	31.7841	16.1208	-6.9710	0.2956	0.6683	0.3663	-0.5760
2.31	-9.7076	-0.2691	-1.5727	0.0215	-0.0154	0.0165	31.8885	15.8097	-6.8520	0.2956	0.6683	0.3663	-0.5761
2.32	-9.7128	-0.2676	-1.5761	0.0221	-0.0160	0.0072	31.9039	15.8205	-6.9869	0.2956	0.6683	0.3663	-0.5761
2.33	-9.7101	-0.2667	-1.5802	0.0105	-0.0114	0.0147	31.7199	15.8457	-7.0453	0.2956	0.6683	0.3663	-0.5761
2.34	-9.7010	-0.2671	-1.5781	0.0159	-0.0169	0.0134	31.5833	16.1603	-7.0057	0.2956	0.6683	0.3663	-0.5761
2.35	-9.7078	-0.2651	-1.5823	0.0162	-0.0125	0.0122	31.5404	15.9386	-6.9993	0.2957	0.6683	0.3662	-0.5761
2.36	-9.7114	-0.2651	-1.5858	0.0153	-0.0158	0.0104	31.5484	15.7090	-7.0930	0.2957	0.6682	0.3662	-0.5761
2.37	-9.7102	-0.2601	-1.5790	0.0138	-0.0183	0.0106	31.3887	16.0367	-7.1277	0.2957	0.6682	0.3662	-0.5761
2.38	-9.7067	-0.2603	-1.5768	0.0214	-0.0081	0.0112	31.4323	15.7757	-6.9893	0.2957	0.6682	0.3662	-0.5761
2.39	-9.7081	-0.2583	-1.5838	0.0197	-0.0150	0.0135	31.5779	15.9156	-7.2398	0.2957	0.6682	0.3662	-0.5762
2.4	-9.7100	-0.2579	-1.5861	0.0130	-0.0170	0.0127	31.5280	15.9804	-7.0302	0.2957	0.6682	0.3662	-0.5762
2.41	-9.7056	-0.2580	-1.5792	0.0172	-0.0099	0.0136	31.2889	16.0546	-7.0297	0.2957	0.6682	0.3662	-0.5762
2.42	-9.7098	-0.2583	-1.5859	0.0083	-0.0071	0.0117	31.2459	16.0140	-7.0273	0.2957	0.6682	0.3662	-0.5761
2.43	-9.7068	-0.2546	-1.5861	0.0042	-0.0190	0.0105	31.2636	15.9255	-7.0736	0.2958	0.6682	0.3662	-0.5762
2.44	-9.7029	-0.2543	-1.5853	0.0141	-0.0055	0.0126	31.2498	16.0528	-7.2423	0.2958	0.6682	0.3662	-0.5761
2.45	-9.7080	-0.2545	-1.5824	0.0152	-0.0165	0.0141	31.2731	16.1528	-7.0663	0.2958	0.6682	0.3662	-0.5761
2.46	-9.7111	-0.2552	-1.5825	0.0062	-0.0159	0.0125	31.3677	16.2438	-7.0434	0.2959	0.6681	0.3662	-0.5761
2.47	-9.7060	-0.2522	-1.5790	0.0089	-0.0131	0.0056	31.2555	16.1282	-6.9672	0.2959	0.6681	0.3662	-0.5761
2.48	-9.7063	-0.2528	-1.5788	0.0149	-0.0112	0.0100	31.2378	16.1163	-6.9257	0.2959	0.6681	0.3662	-0.5761
2.49	-9.7085	-0.2581	-1.5812	0.0110	-0.0162	0.0116	31.4064	16.1403	-7.1096	0.2959	0.6681	0.3662	-0.5761
2.5	-9.7059	-0.2625	-1.5793	0.0187	-0.0181	0.0122	31.5774	15.8991	-6.8619	0.2960	0.6681	0.3662	-0.5762
2.51	-9.7094	-0.2637	-1.5749	0.0148	-0.0171	0.0170	31.5730	15.8793	-6.9084	0.2960	0.6681	0.3662	-0.5762
2.52	-9.7149	-0.2676	-1.5853	0.0150	-0.0179	0.0081	31.5770	15.9768	-7.1713	0.2960	0.6680	0.3662	-0.5762
2.53	-9.7127	-0.2642	-1.5842	0.0118	-0.0117	0.0092	31.4502	15.9828	-7.2212	0.2960	0.6680	0.3662	-0.5762
2.54	-9.7096	-0.2629	-1.5785	0.0134	-0.0142	0.0125	31.6039	15.8882	-7.1249	0.2960	0.6680	0.3662	-0.5762
2.55	-9.7109	-0.2639	-1.5871	0.0152	-0.0185	0.0078	31.4738	15.8933	-7.0970	0.2961	0.6680	0.3662	-0.5762
2.56	-9.7118	-0.2648	-1.5879	0.0187	-0.0136	0.0090	31.3108	15.9558	-7.1330	0.2961	0.6680	0.3662	-0.5763
2.57	-9.7073	-0.2595	-1.5893	0.0186	-0.0087	0.0058	31.5221	15.6630	-7.0832	0.2960	0.6680	0.3662	-0.5763
2.58	-9.7003	-0.2627	-1.5864	0.0179	-0.0141	0.0125	31.4213	15.8753	-7.1543	0.2960	0.6680	0.3662	-0.5763
2.59	-9.7043	-0.2651	-1.5823	0.0076	-0.0133	0.0124	31.3986	16.0937	-6.8611	0.2961	0.6680	0.3662	-0.5763
2.6	-9.7084	-0.2560	-1.5822	0.0030	-0.0075	0.0085	31.4347	15.8399	-6.7678	0.2961	0.6679	0.3662	-0.5762
2.61	-9.7063	-0.2599	-1.5827	0.0127	-0.0069	0.0082	31.3116	15.8143	-6.9299	0.2961	0.6679	0.3663	-0.5762
2.62	-9.7090	-0.2585	-1.5801	0.0137	-0.0091	0.0088	31.0470	16.0765	-7.0601	0.2961	0.6679	0.3663	-0.5762
2.63	-9.7100	-0.2646	-1.5812	0.0075	-0.0068	0.0117	31.2424	16.1254	-6.9966	0.2961	0.6679	0.3663	-0.5762
2.64	-9.7060	-0.2644	-1.5734	0.0083	-0.0114	0.0089	31.2328	15.9609	-6.9503	0.2962	0.6679	0.3663	-0.5762
2.65	-9.7077	-0.2647	-1.5767	0.0166	-0.0110	0.0052	31.3310	15.9681	-6.8468	0.2962	0.6679	0.3663	-0.5762
2.66	-9.7090	-0.2694	-1.5765	0.0148	-0.0074	0.0064	31.4090	15.9471	-6.9737	0.2961	0.6679	0.3664	-0.5762
2.67	-9.7045	-0.2717	-1.5746	0.0172	-0.0143	0.0131	31.3253	16.0011	-6.8752	0.2961	0.6679	0.3663	-0.5762
2.68	-9.7095	-0.2708	-1.5795	0.0106	-0.0174	0.0153	31.5026	16.0699	-6.9242	0.2962	0.6679	0.3663	-0.5762
2.69	-9.7143	-0.2741	-1.5768	0.0177	-0.0078	0.0065	31.4859	15.9736	-6.8521	0.2962	0.6679	0.3663	-0.5762
2.7	-9.7078	-0.2718	-1.5780	0.0081	-0.0158	0.0063	31.5923	15.8308	-6.9749	0.2962	0.6678	0.3664	-0.5762
2.71	-9.7093	-0.2696	-1.5843	0.0060	-0.0142	0.0150	31.4295	15.8199	-7.1810	0.2963	0.6678	0.3664	-0.5762
2.72	-9.7134	-0.2704	-1.5847	0.0159	-0.0167	0.0106	31.6681	15.7048	-6.9910	0.2963	0.6678	0.3664	-0.5762
2.73	-9.7069	-0.2685	-1.5879	0.0144	-0.0109	0.0090	31.6447	15.8378	-7.0358	0.2963	0.6678	0.3664	-0.5762
2.74	-9.7093	-0.2683	-1.5941	0.0094	-0.0136	0.0136	31.5731	16.1040	-7.1429	0.2963	0.6678	0.3664	-0.5762
2.75	-9.7109	-0.2704	-1.5918	0.0215	-0.0161	0.0066	31.7330	15.8441	-7.2671	0.2963	0.6678	0.3664	-0.5762
2.76	-9.7094	-0.2699	-1.5848	0.0139	-0.0183	0.0079	31.4619	15.9854	-6.9139	0.2963	0.6678	0.3664	-0.5763
2.77	-9.7045	-0.2691	-1.5853	0.0152	-0.0151	0.0127	31.4249	15.9481	-6.8629	0.2963	0.6677	0.3664	-0.5763
2.78	-9.7078	-0.2646	-1.5807	0.0115	-0.0124	0.0144	31.3636	16.1372	-6.9600	0.2964	0.6677	0.3664	-0.5763
2.79	-9.7109	-0.2630	-1.5859	0.0087	-0.0148	0.0044	31.3159	16.0608	-7.0002	0.2964	0.6677	0.3664	-0.5763
2.8	-9.7052	-0.2529	-1.5850	0.0140	-0.0147	0.0126	31.4810	15.9629	-7.0607	0.2964	0.6677	0.3664	-0.5763
2.81	-9.7061	-0.2498	-1.5785	0.0158	-0.0100	0.0120	31.7906	15.9482	-6.7285	0.2964	0.6677	0.3664	-0.5763
2.82	-9.7135	-0.2463	-1.5764	0.0103	-0.0066	0.0117	31.8431	15.9586	-6.6966	0.2964	0.6677	0.3664	-0.5763
2.83	-9.7150	-0.2465	-1.5773	0.0129	-0.0088	0.0148	31.3711	16.1710	-6.8236	0.2964	0.6677	0.3664	-0.5762
2.84	-9.7061	-0.2424	-1.5761	0.0173	-0.0139	0.0120	31.4448	16.2947	-6.9135	0.2964	0.6677	0.3664	-0.5763
2.85	-9.7069	-0.2453	-1.5700	0.0152	-0.0111	0.0112	31.2485	15.9170	-6.9994	0.2964	0.6677	0.3664	-0.5762
2.86	-9.7116	-0.2502	-1.5743	0.0172	-0.0095	0.0028	31.4245	15.9686	-6.9884	0.2964	0.6677	0.3664	-0.5763
2.87	-9.7077	-0.2545	-1.5717	0.0206	-0.0120	0.0101	31.6429	15.9061	-6.9753	0.2964	0.6677	0.3664	-0.5763
2.88	-9.7046	-0.2591	-1.5673	0.0221	-0.0144	0.0132	31.6188	15.9179	-7.0034	0.2964	0.6677	0.3663	-0.5763
2.89	-9.7136	-0.2644	-1.5721	0.0177	-0.0127	0.0140	31.6322	15.8467	-7.2940	0.2964	0.6677	0.3663	-0.5763
2.9	-9.7083	-0.2649	-1.5724	0.0169	-0.0123	0.0165	31.6231	15.8679	-7.0707	0.2964	0.6677	0.3663	-0.5763
2.91	-9.7067	-0.2617	-1.5717	0.0181	-0.0069	0.0069	31.7075	16.0308	-7.0678	0.2964	0.6677	0.3663	-0.5763
2.92	-9.7106	-0.2614	-1.5791	0.0221	-0.0100	0.0123	31.7166	15.9476	-6.9336	0.2964	0.6677	0.3663	-0.5763
2.93	-9.7127	-0.2573	-1.5777	0.0162	-0.0126	0.0121	31.6508	15.8434	-7.0799	0.2964	0.6677	0.3663	-0.5763
2.94	-9.7053	-0.2581	-1.5803	0.0172	-0.0099	0.0137	31.5362	15.7933	-6.9739	0.2964	0.6678	0.3663	-0.5763
2.95	-9.7073	-0.2588	-1.5818	0.0216	-0.0118	0.0118	31.6299	15.8650	-6.8875	0.2964	0.6678	0.3662	-0.5763
2.96	-9.7097	-0.2634	-1.5825	0.0210	-0.0114	0.0145	31.6389	16.0477	-7.0402	0.2964	0.6678	0.3662	-0.5763
2.97	-9.7126	-0.2646	-1.5842	0.0251	-0.0116	0.0145	31.5407	15.8789	-6.8777	0.2964	0.6678	0.3662	-0.5763
2.98	-9.7084	-0.2653	-1.5869	0.0120	-0.0110	0.0108	31.5502	16.0080	-7.0018	0.2964	0.6678	0.3662	-0.5763
2.99	-9.7059	-0.2701	-1.5863	0.0104	-0.0066	0.0088	31.6302	15.9660	-6.9807	0.2964	0.6678	0.3662	-0.5763
3	-9.7105	-0.2691	-1.5901	0.0138	-0.0111	0.0106	31.4533	15.8190	-6.9768	0.2964	0.6678	0.3662	-0.5763
3.01	-9.7069	-0.2678	-1.5879	0.0177	-0.0072	0.0053	31.4730	15.8757	-7.0607	0.2964	0.6678	0.3662	-0.5763
3.02	-9.7102	-0.2669	-1.5866	0.0172	-0.0109	0.0127	31.3614	16.0427	-7.1039	0.2964	0.6678	0.3662	-0.5763
3.03	-9.7096	-0.2646	-1.5858	0.0160	-0.0076	0.0100	31.4113	15.8758	-7.0208	0.2964	0.6678	0.3662	-0.5763
3.04	-9.7025	-0.2676	-1.5836	0.0191	-0.0050	0.0072	31.5473	15.7864	-6.9586	0.2963	0.6678	0.3662	-0.5763
3.05	-9.7075	-0.2663	-1.5802	0.0177	-0.0109	0.0093	31.6146	15.9956	-7.0892	0.2963	0.6678	0.3662	-0.5763
3.06	-9.7112	-0.2689	-1.5807	0.0183	-0.0173	0.0123	31.5429	16.0181	-6.8277	0.2963	0.6678	0.3662	-0.5763
3.07	-9.7084	-0.2688	-1.5817	0.0182	-0.0166	0.0115	31.6647	15.8714	-6.9849	0.2963	0.6678	0.3662	-0.5763
3.08	-9.7044	-0.2723	-1.5789	0.0219	-0.0173	0.0093	31.5265	15.7905	-6.9625	0.2963	0.6678	0.3662	-0.5763
3.09	-9.7089	-0.2725	-1.5831	0.0161	-0.0072	0.0146	31.6436	16.0220	-7.1167	0.2963	0.6678	0.3662	-0.5763
3.1	-9.7106	-0.2764	-1.5832	0.0195	-0.0102	0.0115	31.4902	15.7134	-7.1385	0.2963	0.6678	0.3662	-0.5763
3.11	-9.7038	-0.2768	-1.5723	0.0187	-0.0119	0.0114	31.6467	16.0014	-7.0176	0.2963	0.6678	0.3661	-0.5763
3.12	-9.7033	-0.2743	-1.5783	0.0222	-0.0105	0.0094	31.5312	15.9689	-7.2137	0.2963	0.6678	0.3661	-0.5763
3.13	-9.7075	-0.2686	-1.5818	0.0217	-0.0076	0.0156	31.3544	16.0129	-6.9809	0.2963	0.6679	0.3661	-0.5763
3.14	-9.7058	-0.2659	-1.5759	0.0191	-0.0111	0.0126	31.5544	15.9063	-7.0877	0.2963	0.6679	0.3661	-0.5763
3.15	-9.7054	-0.2648	-1.5767	0.0204	-0.0186	0.0155	31.5358	15.9801	-7.2137	0.2963	0.6679	0.3661	-0.5763
3.16	-9.7067	-0.2613	-1.5747	0.0219	-0.0073	0.0067	31.6384	15.9823	-6.9307	0.2963	0.6679	0.3660	-0.5763
3.17	-9.7077	-0.2573	-1.5751	0.0162	-0.0064	0.0069	31.6092	15.7562	-6.8827	0.2962	0.6679	0.3661	-0.5763
3.18	-9.7041	-0.2531	-1.5756	0.0201	-0.0097	0.0062	31.6455	15.9019	-7.1545	0.2962	0.6679	0.3661	-0.5763
3.19	-9.7085	-0.2551	-1.5782	0.0243	-0.0067	0.0104	31.5372	15.9858	-7.0856	0.2962	0.6679	0.3661	-0.5763
3.2	-9.7100	-0.2525	-1.5831	0.0170	-0.0107	0.0117	31.5457	15.8867	-6.9486	0.2962	0.6679	0.3661	-0.5763
3.21	-9.7027	-0.2579	-1.5779	0.0149	-0.0086	0.0075	31.5270	15.9117	-6.8496	0.2962	0.6679	0.3661	-0.5763
3.22	-9.7053	-0.2565	-1.5798	0.0201	-0.0097	0.0080	31.6063	15.8880	-7.0584	0.2961	0.6679	0.3661	-0.5763
3.23	-9.7109	-0.2572	-1.5892	0.0218	-0.0115	0.0100	31.6547	16.0087	-7.0873	0.2961	0.6679	0.3661	-0.5763
3.24	-9.7037	-0.2576	-1.5863	0.0230	-0.0122	0.0078	31.4399	16.0818	-6.8069	0.2961	0.6679	0.3660	-0.5764
3.25	-9.7033	-0.2561	-1.5786	0.0209	-0.0135	0.0160	31.3770	15.8383	-7.0621	0.2961	0.6680	0.3660	-0.5764
3.26	-9.7114	-0.2563	-1.5836	0.0178	-0.0127	0.0098	31.7306	15.8012	-7.0658	0.2961	0.6680	0.3660	-0.5764
3.27	-9.7105	-0.2559	-1.5840	0.0165	-0.0099	0.0124	31.7007	15.9503	-6.9805	0.2961	0.6680	0.3660	-0.5764
3.28	-9.7045	-0.2534	-1.5857	0.0163	-0.0100	0.0168	31.4104	15.9909	-7.1085	0.2961	0.6680	0.3660	-0.5764
3.29	-9.7035	-0.2559	-1.5847	0.0151	-0.0077	0.0072	31.6272	15.9872	-7.0618	0.2961	0.6680	0.3660	-0.5763
3.3	-9.7101	-0.2582	-1.5868	0.0194	-0.0075	0.0086	31.6661	15.9803	-7.0019	0.2961	0.6680	0.3660	-0.5763
3.31	-9.7060	-0.2614	-1.5844	0.0220	-0.0111	0.0104	31.9201	16.1294	-6.6967	0.2960	0.6680	0.3660	-0.5764
3.32	-9.7083	-0.2649	-1.5777	0.0121	-0.0139	0.0134	32.1102	16.0552	-6.8778	0.2961	0.6680	0.3660	-0.5763
3.33	-9.7103	-0.2656	-1.5869	0.0140	-0.0108	0.0118	31.4677	16.0406	-7.1960	0.2961	0.6680	0.3660	-0.5763
3.34	-9.7040	-0.2662	-1.5859	0.0176	-0.0096	0.0122	31.4628	16.2113	-6.7188	0.2961	0.6680	0.3660	-0.5763
3.35	-9.7047	-0.2682	-1.5872	0.0198	-0.0106	0.0073	31.4418	15.9732	-6.8394	0.2961	0.6680	0.3660	-0.5763
3.36	-9.7094	-0.2651	-1.5886	0.0158	-0.0110	0.0115	31.5344	16.0248	-7.0382	0.2960	0.6680	0.3660	-0.5763
3.37	-9.7067	-0.2635	-1.5881	0.0194	-0.0066	0.0038	31.3904	16.1618	-7.0405	0.2960	0.6680	0.3660	-0.5763
3.38	-9.7042	-0.2668	-1.5842	0.0188	-0.0065	0.0098	31.3313	15.8937	-6.9966	0.2960	0.6680	0.3660	-0.5763
3.39	-9.7079	-0.2623	-1.5863	0.0099	-0.0101	0.0129	31.4822	15.8972	-6.7549	0.2960	0.6680	0.3660	-0.5763
3.4	-9.7066	-0.2617	-1.5799	0.0129	-0.0080	0.0135	31.1782	15.8634	-7.0561	0.2960	0.6680	0.3660	-0.5763
3.41	-9.7036	-0.2634	-1.5760	0.0165	-0.0076	0.0148	31.1647	16.0008	-7.1021	0.2960	0.6681	0.3660	-0.5763
3.42	-9.7027	-0.2628	-1.5766	0.0150	-0.0083	0.0049	31.3169	15.9157	-6.8932	0.2960	0.6681	0.3661	-0.5763
3.43	-9.7124	-0.2655	-1.5740	0.0178	-0.0132	0.0136	31.3391	15.8901	-6.9725	0.2960	0.6681	0.3660	-0.5763
3.44	-9.7085	-0.2638	-1.5753	0.0198	-0.0140	0.0129	31.3112	15.8027	-6.8328	0.2960	0.6681	0.3660	-0.5763
3.45	-9.6995	-0.2649	-1.5737	0.0168	-0.0095	0.0143	31.7678	15.7166	-6.9535	0.2960	0.6681	0.3660	-0.5763
3.46	-9.7047	-0.2657	-1.5770	0.0124	-0.0132	0.0095	31.6573	15.8750	-6.9139	0.2960	0.6681	0.3660	-0.5763
3.47	-9.7084	-0.2672	-1.5809	0.0146	-0.0120	0.0136	31.4605	15.6859	-6.9489	0.2960	0.6681	0.3660	-0.5763
3.48	-9.7020	-0.2702	-1.5832	0.0193	-0.0186	0.0090	31.5282	15.8589	-6.9083	0.2960	0.6681	0.3660	-0.5763
3.49	-9.7041	-0.2691	-1.5781	0.0192	-0.0106	0.0096	31.5559	15.7275	-6.9796	0.2960	0.6681	0.3660	-0.5763
3.5	-9.7150	-0.2692	-1.5888	0.0215	-0.0104	0.0088	31.4719	15.8328	-7.0067	0.2960	0.6681	0.3660	-0.5763
3.51	-9.7070	-0.2683	-1.5858	0.0239	-0.0091	0.0149	31.5076	15.9258	-6.7329	0.2960	0.6681	0.3660	-0.5763
3.52	-9.7025	-0.2673	-1.5894	0.0182	-0.0124	0.0092	31.3807	15.7642	-6.8773	0.2960	0.6681	0.3660	-0.5763
3.53	-9.7136	-0.2679	-1.5872	0.0181	-0.0070	0.0128	31.5955	15.7032	-6.9706	0.2960	0.6681	0.3659	-0.5763
3.54	-9.7117	-0.2698	-1.5919	0.0119	-0.0084	0.0122	31.4924	16.0579	-6.8426	0.2960	0.6681	0.3660	-0.5763
3.55	-9.7053	-0.2685	-1.5955	0.0150	-0.0086	0.0089	31.4987	16.0397	-6.8691	0.2960	0.6681	0.3660	-0.5763
3.56	-9.7047	-0.2709	-1.5922	0.0173	-0.0045	0.0106	31.4737	15.9943	-7.0563	0.2960	0.6681	0.3660	-0.5762
3.57	-9.7066	-0.2717	-1.5918	0.0153	-0.0061	0.0122	31.5609	16.2238	-6.8441	0.2960	0.6682	0.3660	-0.5762
3.58	-9.7033	-0.2717	-1.5865	0.0146	-0.0031	0.0121	31.5096	15.9555	-6.8559	0.2959	0.6682	0.3660	-0.5762
3.59	-9.7032	-0.2672	-1.5868	0.0126	-0.0070	0.0159	31.3893	15.8749	-6.8460	0.2960	0.6682	0.3660	-0.5761
3.6	-9.7089	-0.2620	-1.5868	0.0184	-0.0058	0.0096	31.4187	15.9122	-7.1501	0.2959	0.6682	0.3660	-0.5761
3.61	-9.7045	-0.2550	-1.5841	0.0168	-0.0076	0.0143	31.2254	16.0526	-7.0170	0.2959	0.6682	0.3660	-0.5761
3.62	-9.7054	-0.2505	-1.5749	0.0152	-0.0143	0.0168	31.3516	16.0604	-7.1437	0.2960	0.6682	0.3660	-0.5761
3.63	-9.7114	-0.2423	-1.5800	0.0175	-0.0132	0.0132	31.5441	15.8233	-7.0607	0.2960	0.6683	0.3660	-0.5761
3.64	-9.7103	-0.2429	-1.5833	0.0161	-0.0113	0.0114	31.6032	15.8147	-6.8679	0.2960	0.6683	0.3660	-0.5761
3.65	-9.7032	-0.2432	-1.5719	0.0152	-0.0093	0.0107	31.4928	15.7890	-7.0331	0.2960	0.6683	0.3660	-0.5761
3.66	-9.7018	-0.2464	-1.5736	0.0212	-0.0072	0.0137	31.4227	15.9218	-7.1170	0.2960	0.6683	0.3660	-0.5761
3.67	-9.7113	-0.2501	-1.5740	0.0160	-0.0091	0.0086	31.5087	16.1007	-7.1186	0.2959	0.6683	0.3660	-0.5761
3.68	-9.7109	-0.2535	-1.5707	0.0136	-0.0101	0.0104	31.3140	15.7837	-7.1087	0.2959	0.6683	0.3660	-0.5761
3.69	-9.7021	-0.2570	-1.5673	0.0196	-0.0072	0.0093	31.4270	15.9018	-7.1159	0.2959	0.6683	0.3660	-0.5761
3.7	-9.7064	-0.2629	-1.5683	0.0113	-0.0082	0.0095	31.4199	15.8711	-7.1073	0.2959	0.6683	0.3660	-0.5760
3.71	-9.7086	-0.2664	-1.5712	0.0182	-0.0086	0.0111	31.5692	15.9431	-7.1175	0.2959	0.6683	0.3660	-0.5760
3.72	-9.7029	-0.2621	-1.5675	0.0179	-0.0059	0.0101	31.5872	15.9833	-7.1005	0.2959	0.6683	0.3660	-0.5760
3.73	-9.7065	-0.2612	-1.5682	0.0161	-0.0078	0.0072	31.4992	16.0595	-7.1380	0.2959	0.6683	0.3660	-0.5760
3.74	-9.7063	-0.2597	-1.5690	0.0222	-0.0066	0.0051	31.2296	15.9230	-6.9418	0.2958	0.6684	0.3660	-0.5760
3.75	-9.7025	-0.2595	-1.5740	0.0125	-0.0061	0.0047	31.3597	16.0604	-7.0130	0.2958	0.6684	0.3661	-0.5760
3.76	-9.7104	-0.2592	-1.5832	0.0179	-0.0065	0.0096	31.5211	15.9148	-7.0172	0.2958	0.6684	0.3661	-0.5760
3.77	-9.7115	-0.2648	-1.5826	0.0184	-0.0064	0.0058	31.3938	15.7521	-7.0543	0.2958	0.6684	0.3661	-0.5760
3.78	-9.7037	-0.2638	-1.5836	0.0176	-0.0107	0.0164	31.4268	15.8813	-7.0854	0.2958	0.6684	0.3661	-0.5760
3.79	-9.7056	-0.2670	-1.5883	0.0183	-0.0065	0.0101	31.4112	15.8736	-7.0045	0.2958	0.6684	0.3661	-0.5760
3.8	-9.7099	-0.2666	-1.5936	0.0177	-0.0054	0.0076	31.4734	15.9224	-6.9528	0.2957	0.6684	0.3661	-0.5759
3.81	-9.7093	-0.2695	-1.5917	0.0229	-0.0132	0.0109	31.8935	15.9434	-6.6605	0.2957	0.6684	0.3661	-0.5760
3.82	-9.7091	-0.2675	-1.5857	0.0138	-0.0148	0.0153	32.1018	16.0319	-6.7581	0.2957	0.6684	0.3661	-0.5760
3.83	-9.7118	-0.2688	-1.5914	0.0224	-0.0163	0.0131	31.6619	16.1988	-7.0160	0.2957	0.6684	0.3660	-0.5760
3.84	-9.7089	-0.2680	-1.5906	0.0213	-0.0171	0.0117	31.6772	16.0918	-6.9546	0.2957	0.6684	0.3660	-0.5760
3.85	-9.7037	-0.2644	-1.5828	0.0202	-0.0140	0.0109	31.7197	15.9401	-7.1195	0.2957	0.6684	0.3660	-0.5760
3.86	-9.7093	-0.2636	-1.5801	0.0174	-0.0074	0.0099	31.6188	15.9445	-7.1863	0.2957	0.6684	0.3660	-0.5760
3.87	-9.7088	-0.2658	-1.5810	0.0187	-0.0124	0.0091	31.5865	16.1006	-7.0428	0.2957	0.6684	0.3660	-0.5760
3.88	-9.7056	-0.2653	-1.5756	0.0189	-0.0101	0.0079	31.5274	15.9465	-7.2250	0.2957	0.6685	0.3660	-0.5760
3.89	-9.7029	-0.2704	-1.5697	0.0219	-0.0101	0.0109	31.6587	15.8613	-7.2071	0.2956	0.6685	0.3660	-0.5760
3.9	-9.7036	-0.2764	-1.5730	0.0151	-0.0184	0.0132	31.4931	15.7370	-7.0566	0.2956	0.6684	0.3660	-0.5760
3.91	-9.7070	-0.2767	-1.5761	0.0140	-0.0136	0.0074	31.6460	15.8198	-7.0537	0.2957	0.6684	0.3660	-0.5761
3.92	-9.7059	-0.2738	-1.5766	0.0208	-0.0067	0.0133	31.5306	15.8635	-7.2377	0.2956	0.6685	0.3660	-0.5761
3.93	-9.7034	-0.2736	-1.5721	0.0207	-0.0101	0.0144	31.1960	15.9112	-7.1951	0.2956	0.6685	0.3660	-0.5760
3.94	-9.7064	-0.2677	-1.5713	0.0181	-0.0127	0.0163	31.5769	15.9027	-7.0685	0.2956	0.6685	0.3659	-0.5760
3.95	-9.7003	-0.2687	-1.5746	0.0134	-0.0108	0.0104	31.4657	16.0004	-7.0382	0.2956	0.6685	0.3659	-0.5760
3.96	-9.7039	-0.2652	-1.5690	0.0187	-0.0075	0.0100	31.3203	15.8265	-7.0160	0.2956	0.6685	0.3659	-0.5760
3.97	-9.7104	-0.2597	-1.5761	0.0149	-0.0092	0.0039	31.4424	15.8055	-7.3814	0.2956	0.6685	0.3660	-0.5760
3.98	-9.7055	-0.2600	-1.5742	0.0195	-0.0085	0.0049	31.4735	15.9284	-7.1991	0.2956	0.6685	0.3660	-0.5760
3.99	-9.7028	-0.2566	-1.5754	0.0176	-0.0140	0.0118	31.5090	15.9914	-7.3052	0.2956	0.6685	0.3660	-0.5760
4	-9.7116	-0.2584	-1.5759	0.0168	-0.0103	0.0064	31.6360	15.6198	-7.2915	0.2956	0.6685	0.3660	-0.5760
4.01	-9.7147	-0.2569	-1.5765	0.0143	-0.0097	0.0107	31.7882	15.8345	-7.1168	0.2956	0.6685	0.3660	-0.5760
4.02	-9.7080	-0.2582	-1.5811	0.0117	-0.0165	0.0156	31.5785	16.0185	-7.1872	0.2956	0.6685	0.3660	-0.5760
4.03	-9.7072	-0.2542	-1.5810	0.0109	-0.0140	0.0118	31.7228	15.8368	-7.0969	0.2956	0.6685	0.3660	-0.5760
4.04	-9.7040	-0.2555	-1.5781	0.0147	-0.0151	0.0151	31.4089	15.7952	-7.0439	0.2956	0.6685	0.3660	-0.5760
4.05	-9.7060	-0.2567	-1.5766	0.0182	-0.0142	0.0073	31.5520	16.0157	-7.1739	0.2956	0.6684	0.3660	-0.5761
4.06	-9.7082	-0.2533	-1.5785	0.0153	-0.0178	0.0161	31.4969	15.9609	-7.1569	0.2957	0.6684	0.3660	-0.5761
4.07	-9.7074	-0.2527	-1.5818	0.0144	-0.0138	0.0108	31.5956	15.8732	-7.3430	0.2957	0.6684	0.3660	-0.5761
4.08	-9.7103	-0.2496	-1.5796	0.0116	-0.0143	0.0096	31.6088	15.9922	-7.2601	0.2957	0.6684	0.3660	-0.5761
4.09	-9.7023	-0.2559	-1.5812	0.0183	-0.0138	0.0123	31.6154	16.0920	-7.0289	0.2957	0.6684	0.3660	-0.5761
4.1	-9.7081	-0.2518	-1.5791	0.0107	-0.0075	0.0030	31.4133	15.9070	-6.9666	0.2957	0.6684	0.3660	-0.5761
4.11	-9.7086	-0.2552	-1.5802	0.0095	-0.0057	0.0125	31.3758	15.9161	-7.2653	0.2957	0.6684	0.3660	-0.5760
4.12	-9.7070	-0.2578	-1.5822	0.0201	-0.0045	0.0047	31.6619	15.8752	-7.1433	0.2957	0.6684	0.3661	-0.5760
4.13	-9.7047	-0.2552	-1.5792	0.0192	-0.0070	0.0095	31.3281	16.0802	-6.8366	0.2956	0.6684	0.3661	-0.5760
4.14	-9.7091	-0.2573	-1.5812	0.0121	-0.0104	0.0112	31.4532	16.1099	-7.1265	0.2956	0.6684	0.3661	-0.5760
4.15	-9.7088	-0.2540	-1.5787	0.0187	-0.0083	0.0044	31.6231	15.7907	-6.9356	0.2956	0.6684	0.3661	-0.5760
4.16	-9.7052	-0.2587	-1.5785	0.0225	-0.0063	0.0161	31.5960	15.8373	-7.2172	0.2956	0.6685	0.3661	-0.5760
4.17	-9.7097	-0.2606	-1.5839	0.0162	-0.0065	0.0117	31.4805	15.8254	-7.0610	0.2956	0.6685	0.3661	-0.5760
4.18	-9.7107	-0.2614	-1.5858	0.0165	-0.0152	0.0110	31.4055	16.0088	-6.9556	0.2956	0.6685	0.3661	-0.5760
4.19	-9.7071	-0.2592	-1.5801	0.0177	-0.0132	0.0096	31.5437	15.8927	-6.9899	0.2956	0.6685	0.3661	-0.5760
4.2	-9.7076	-0.2621	-1.5865	0.0180	-0.0114	0.0172	31.4956	15.9175	-7.0951	0.2956	0.6685	0.3660	-0.5760
4.21	-9.7133	-0.2626	-1.5891	0.0220	-0.0115	0.0081	31.5911	15.7081	-7.1955	0.2956	0.6685	0.3660	-0.5760
4.22	-9.7072	-0.2648	-1.5867	0.0177	-0.0103	0.0062	31.5676	15.6262	-7.3393	0.2956	0.6685	0.3660	-0.5760
4.23	-9.7079	-0.2664	-1.5855	0.0178	-0.0107	0.0138	31.4091	15.7656	-7.2172	0.2956	0.6685	0.3660	-0.5760
4.24	-9.7102	-0.2719	-1.5805	0.0173	-0.0111	0.0123	31.6068	15.8408	-7.1512	0.2956	0.6685	0.3660	-0.5760
4.25	-9.7043	-0.2730	-1.5811	0.0162	-0.0137	0.0107	31.5603	15.6067	-7.3059	0.2956	0.6685	0.3660	-0.5760
4.26	-9.7039	-0.2783	-1.5811	0.0146	-0.0127	0.0169	31.4950	15.9026	-7.0402	0.2956	0.6685	0.3660	-0.5760
4.27	-9.7053	-0.2831	-1.5811	0.0169	-0.0152	0.0136	31.6457	16.2142	-6.9969	0.2956	0.6685	0.3660	-0.5760
4.28	-9.7062	-0.2820	-1.5789	0.0204	-0.0090	0.0123	31.6825	15.9586	-7.0995	0.2956	0.6685	0.3660	-0.5760
4.29	-9.7080	-0.2830	-1.5810	0.0179	-0.0055	0.0109	31.4360	15.8406	-7.0075	0.2956	0.6685	0.3660	-0.5760
4.3	-9.7067	-0.2817	-1.5815	0.0167	-0.0042	0.0071	31.5683	16.2176	-6.8639	0.2956	0.6685	0.3660	-0.5760
4.31	-9.7048	-0.2793	-1.5748	0.0193	-0.0088	0.0103	32.1324	16.2074	-6.9479	0.2955	0.6685	0.3660	-0.5760
4.32	-9.7080	-0.2790	-1.5754	0.0140	-0.0099	0.0092	32.1999	16.0978	-6.7837	0.2955	0.6685	0.3660	-0.5760
4.33	-9.7087	-0.2764	-1.5748	0.0211	-0.0043	0.0024	31.5155	16.2658	-6.7830	0.2955	0.6685	0.3660	-0.5760
4.34	-9.7083	-0.2722	-1.5803	0.0149	-0.0133	0.0057	31.3756	16.4651	-6.8836	0.2955	0.6685	0.3660	-0.5760
4.35	-9.7074	-0.2719	-1.5850	0.0130	-0.0151	0.0059	31.1427	16.1478	-7.0423	0.2955	0.6685	0.3661	-0.5760
4.36	-9.7050	-0.2732	-1.5863	0.0146	-0.0069	0.0064	31.5391	15.9769	-6.9947	0.2955	0.6685	0.3661	-0.5760
4.37	-9.7143	-0.2766	-1.5883	0.0155	-0.0087	0.0121	31.4162	16.1744	-6.9468	0.2955	0.6685	0.3661	-0.5760
4.38	-9.7090	-0.2763	-1.5865	0.0217	-0.0138	0.0154	31.3811	15.8475	-7.0954	0.2955	0.6685	0.3661	-0.5760
4.39	-9.7009	-0.2719	-1.5832	0.0228	-0.0156	0.0098	31.6156	15.7865	-7.1648	0.2954	0.6685	0.3660	-0.5761
4.4	-9.7044	-0.2681	-1.5810	0.0212	-0.0139	0.0125	31.6590	15.7905	-7.0184	0.2954	0.6685	0.3660	-0.5761
4.41	-9.7150	-0.2657	-1.5888	0.0220	-0.0070	0.0146	31.7132	15.9041	-7.1728	0.2954	0.6685	0.3660	-0.5761
4.42	-9.7107	-0.2558	-1.5799	0.0235	-0.0097	0.0114	31.5108	15.8444	-7.0603	0.2954	0.6685	0.3660	-0.5761
4.43	-9.7061	-0.2474	-1.5760	0.0223	-0.0128	0.0123	31.3939	15.7327	-7.1150	0.2954	0.6685	0.3659	-0.5761
4.44	-9.7102	-0.2429	-1.5798	0.0233	-0.0088	0.0057	31.6286	15.6110	-7.0496	0.2953	0.6686	0.3659	-0.5761
4.45	-9.7076	-0.2387	-1.5756	0.0219	-0.0078	0.0042	31.5856	15.6584	-6.9245	0.2953	0.6686	0.3660	-0.5761
4.46	-9.7050	-0.2344	-1.5727	0.0242	-0.0140	0.0113	31.6239	15.7375	-6.9566	0.2953	0.6686	0.3659	-0.5761
4.47	-9.7143	-0.2367	-1.5758	0.0142	-0.0107	0.0105	31.5286	15.9681	-7.0130	0.2953	0.6686	0.3659	-0.5761
4.48	-9.7098	-0.2413	-1.5767	0.0194	-0.0061	0.0049	31.4394	15.9349	-7.1805	0.2953	0.6686	0.3659	-0.5761
4.49	-9.7052	-0.2440	-1.5775	0.0169	-0.0052	0.0070	31.5454	16.0275	-6.9558	0.2952	0.6686	0.3660	-0.5761
4.5	-9.7037	-0.2473	-1.5700	0.0180	-0.0093	0.0078	31.5049	16.1440	-7.0336	0.2952	0.6686	0.3660	-0.5761
4.51	-9.7076	-0.2482	-1.5724	0.0208	-0.0056	0.0041	31.5413	15.8215	-7.0556	0.2952	0.6686	0.3660	-0.5761
4.52	-9.7076	-0.2537	-1.5685	0.0155	-0.0073	0.0056	31.4016	16.0217	-6.9473	0.2951	0.6686	0.3660	-0.5761
4.53	-9.7047	-0.2566	-1.5667	0.0136	-0.0063	0.0093	31.3476	15.8616	-7.1246	0.2951	0.6686	0.3660	-0.5761
4.54	-9.7130	-0.2610	-1.5788	0.0183	-0.0072	0.0076	31.3853	15.9946	-7.1588	0.2951	0.6686	0.3660	-0.5761
4.55	-9.7086	-0.2625	-1.5769	0.0212	-0.0103	0.0090	31.2555	16.1600	-7.0426	0.2951	0.6686	0.3660	-0.5761
4.56	-9.7016	-0.2668	-1.5781	0.0191	-0.0143	0.0117	31.4239	15.9631	-6.9531	0.2951	0.6686	0.3660	-0.5761
4.57	-9.7053	-0.2698	-1.5800	0.0238	-0.0106	0.0105	31.6143	15.8012	-7.3406	0.2951	0.6686	0.3660	-0.5761
4.58	-9.7117	-0.2716	-1.5877	0.0223	-0.0076	0.0120	31.6060	15.7874	-7.1400	0.2951	0.6686	0.3660	-0.5761
4.59	-9.7067	-0.2724	-1.5880	0.0192	-0.0085	0.0144	31.5980	15.8997	-6.9210	0.2950	0.6686	0.3660	-0.5761
4.6	-9.7031	-0.2744	-1.5865	0.0168	-0.0081	0.0074	31.6033	15.8603	-7.1273	0.2950	0.6686	0.3660	-0.5761
4.61	-9.7147	-0.2762	-1.5934	0.0241	-0.0081	0.0134	31.3717	15.9334	-7.1134	0.2950	0.6687	0.3660	-0.5761
4.62	-9.7126	-0.2719	-1.5944	0.0173	-0.0109	0.0154	31.3424	15.9866	-6.8139	0.2950	0.6687	0.3659	-0.5761
4.63	-9.7041	-0.2718	-1.5900	0.0162	-0.0158	0.0131	31.5858	15.8008	-7.0727	0.2950	0.6687	0.3659	-0.5762
4.64	-9.7086	-0.2730	-1.6011	0.0215	-0.0112	0.0084	31.2845	15.8483	-7.2767	0.2950	0.6687	0.3659	-0.5762
4.65	-9.7106	-0.2688	-1.5896	0.0238	-0.0122	0.0126	31.3546	15.8648	-7.1527	0.2950	0.6687	0.3659	-0.5762
4.66	-9.7075	-0.2616	-1.5942	0.0197	-0.0134	0.0117	31.4481	15.9939	-6.9963	0.2950	0.6687	0.3659	-0.5762
4.67	-9.7126	-0.2548	-1.5926	0.0172	-0.0094	0.0123	31.4558	16.0180	-7.0189	0.2950	0.6687	0.3659	-0.5762
4.68	-9.7092	-0.2559	-1.5891	0.0161	-0.0090	0.0133	31.3735	15.9366	-6.9915	0.2950	0.6687	0.3659	-0.5762
4.69	-9.7083	-0.2541	-1.5866	0.0115	-0.0086	0.0151	31.3605	15.9505	-6.9674	0.2950	0.6687	0.3659	-0.5762
4.7	-9.7033	-0.2529	-1.5847	0.0192	-0.0057	0.0079	31.3392	16.0887	-7.0355	0.2950	0.6687	0.3659	-0.5762
4.71	-9.7122	-0.2529	-1.5804	0.0194	-0.0073	0.0065	31.2778	16.0874	-7.0150	0.2950	0.6687	0.3659	-0.5762
4.72	-9.7072	-0.2548	-1.5797	0.0172	-0.0072	0.0122	31.4822	16.0118	-7.2859	0.2950	0.6687	0.3659	-0.5762
4.73	-9.7039	-0.2589	-1.5768	0.0147	-0.0147	0.0129	31.4124	16.1387	-7.0970	0.2950	0.6687	0.3659	-0.5762
4.74	-9.7124	-0.2636	-1.5718	0.0182	-0.0097	0.0096	31.3738	16.2465	-7.3189	0.2950	0.6687	0.3659	-0.5762
4.75	-9.7103	-0.2682	-1.5701	0.0068	-0.0165	0.0092	31.5204	15.9023	-7.0663	0.2950	0.6687	0.3659	-0.5762
4.76	-9.7049	-0.2673	-1.5726	0.0153	-0.0151	0.0143	31.5259	15.8803	-7.0426	0.2950	0.6687	0.3659	-0.5762
4.77	-9.7033	-0.2655	-1.5709	0.0191	-0.0125	0.0151	31.6080	15.8453	-7.0335	0.2950	0.6687	0.3658	-0.5762
4.78	-9.7106	-0.2648	-1.5778	0.0165	-0.0092	0.0134	31.6215	15.8304	-7.0843	0.2951	0.6687	0.3658	-0.5762
4.79	-9.7099	-0.2661	-1.5748	0.0185	-0.0130	0.0078	31.5216	15.8786	-7.1644	0.2950	0.6687	0.3658	-0.5762
4.8	-9.7038	-0.2652	-1.5738	0.0187	-0.0095	0.0067	31.6740	15.9845	-7.0357	0.2950	0.6687	0.3658	-0.5762
4.81	-9.7085	-0.2660	-1.5771	0.0183	-0.0168	0.0126	32.0501	16.0335	-6.7805	0.2950	0.6687	0.3658	-0.5762
4.82	-9.7101	-0.2653	-1.5811	0.0159	-0.0102	0.0090	32.0109	15.8719	-6.6860	0.2950	0.6687	0.3658	-0.5762
4.83	-9.7057	-0.2616	-1.5764	0.0156	-0.0073	0.0082	31.4391	15.9852	-6.8815	0.2950	0.6687	0.3658	-0.5762
4.84	-9.7032	-0.2661	-1.5764	0.0215	-0.0103	0.0116	31.7187	16.1425	-7.0679	0.2950	0.6687	0.3658	-0.5762
4.85	-9.7106	-0.2649	-1.5833	0.0176	-0.0147	0.0102	31.5069	16.0345	-7.1148	0.2950	0.6687	0.3658	-0.5763
4.86	-9.7044	-0.2681	-1.5817	0.0070	-0.0080	0.0146	31.3979	15.7705	-6.9476	0.2950	0.6687	0.3658	-0.5762
4.87	-9.7054	-0.2654	-1.5819	0.0098	-0.0057	0.0121	31.4454	15.9542	-6.9569	0.2951	0.6687	0.3658	-0.5762
4.88	-9.7094	-0.2709	-1.5882	0.0212	-0.0065	0.0152	31.5277	15.8549	-6.9578	0.2950	0.6687	0.3658	-0.5762
4.89	-9.7050	-0.2694	-1.5880	0.0117	-0.0074	0.0100	31.4905	16.0289	-7.1340	0.2951	0.6687	0.3658	-0.5762
4.9	-9.7098	-0.2666	-1.5800	0.0157	-0.0097	0.0111	31.6110	15.7731	-7.0732	0.2951	0.6687	0.3658	-0.5762
4.91	-9.7147	-0.2669	-1.5807	0.0224	-0.0094	0.0101	31.3927	15.5446	-6.8003	0.2950	0.6687	0.3658	-0.5762
4.92	-9.7119	-0.2643	-1.5812	0.0126	-0.0084	0.0097	31.4611	15.9669	-6.8011	0.2950	0.6687	0.3658	-0.5762
4.93	-9.7028	-0.2653	-1.5780	0.0168	-0.0122	0.0120	31.3340	15.8170	-6.9451	0.2951	0.6687	0.3658	-0.5762
4.94	-9.7120	-0.2650	-1.5798	0.0155	-0.0157	0.0098	31.5139	15.8375	-7.0430	0.2951	0.6687	0.3658	-0.5762
4.95	-9.7095	-0.2621	-1.5771	0.0161	-0.0121	0.0095	31.6161	15.7133	-7.0361	0.2951	0.6687	0.3658	-0.5762
4.96	-9.7055	-0.2620	-1.5747	0.0120	-0.0077	0.0114	31.5744	15.8007	-7.0351	0.2951	0.6687	0.3658	-0.5762
4.97	-9.7077	-0.2584	-1.5689	0.0230	-0.0086	0.0103	31.3492	15.8380	-7.0467	0.2951	0.6687	0.3658	-0.5762
4.98	-9.7043	-0.2536	-1.5702	0.0184	-0.0079	0.0105	31.3597	15.8895	-7.0410	0.2950	0.6687	0.3658	-0.5762
4.99	-9.7062	-0.2550	-1.5697	0.0180	-0.0093	0.0103	31.4444	16.0763	-7.0560	0.2950	0.6687	0.3658	-0.5762
5	-9.7041	-0.2557	-1.5748	0.0183	-0.0139	0.0149	31.4617	16.0072	-7.0277	0.2950	0.6687	0.3658	-0.5762
5.01	-9.7085	-0.2576	-1.5830	0.0180	-0.0120	0.0125	31.6195	16.0031	-7.1408	0.2951	0.6687	0.3658	-0.5762
5.02	-9.7131	-0.2647	-1.5880	0.0183	-0.0125	0.0108	31.5758	15.9622	-7.0154	0.2951	0.6687	0.3658	-0.5762
5.03	-9.7024	-0.2664	-1.5809	0.0167	-0.0074	0.0118	31.6103	15.7948	-6.9136	0.2950	0.6687	0.3658	-0.5762
5.04	-9.7016	-0.2673	-1.5846	0.0197	-0.0100	0.0058	31.5299	16.0558	-7.0339	0.2950	0.6687	0.3658	-0.5762
5.05	-9.7123	-0.2707	-1.5884	0.0196	-0.0077	0.0099	31.4207	15.8498	-7.1480	0.2950	0.6687	0.3658	-0.5762
5.06	-9.7071	-0.2698	-1.5847	0.0152	-0.0102	0.0052	31.4352	15.8735	-6.8655	0.2950	0.6687	0.3658	-0.5762
5.07	-9.7074	-0.2695	-1.5836	0.0191	-0.0076	0.0088	31.4216	15.8661	-6.9159	0.2950	0.6687	0.3658	-0.5762
5.08	-9.7072	-0.2727	-1.5810	0.0143	-0.0080	0.0160	31.4459	15.8050	-6.9866	0.2950	0.6687	0.3658	-0.5762
5.09	-9.7061	-0.2709	-1.5809	0.0133	-0.0096	0.0120	31.3172	15.9214	-6.9172	0.2950	0.6687	0.3658	-0.5762
5.1	-9.7014	-0.2737	-1.5774	0.0146	-0.0085	0.0101	31.3982	15.9266	-7.0379	0.2950	0.6687	0.3658	-0.5762
5.11	-9.7096	-0.2755	-1.5845	0.0115	-0.0125	0.0132	31.4462	16.0389	-6.9712	0.2950	0.6687	0.3658	-0.5762
5.12	-9.7117	-0.2773	-1.5820	0.0160	-0.0147	0.0095	31.4161	15.8747	-7.0334	0.2951	0.6687	0.3658	-0.5762
5.13	-9.7036	-0.2765	-1.5782	0.0111	-0.0152	0.0095	31.5670	15.8357	-7.2745	0.2951	0.6687	0.3658	-0.5762
5.14	-9.7030	-0.2705	-1.5825	0.0129	-0.0191	0.0141	31.6034	15.8046	-6.9716	0.2951	0.6686	0.3658	-0.5762
5.15	-9.7146	-0.2730	-1.5833	0.0184	-0.0111	0.0111	31.5853	15.9226	-6.8795	0.2951	0.6686	0.3658	-0.5762
5.16	-9.7079	-0.2677	-1.5837	0.0065	-0.0140	0.0144	31.5075	15.8866	-6.9249	0.2952	0.6686	0.3658	-0.5762
5.17	-9.7050	-0.2656	-1.5838	0.0097	-0.0151	0.0172	31.5070	15.9695	-7.1826	0.2952	0.6686	0.3658	-0.5762
5.18	-9.7079	-0.2624	-1.5857	0.0125	-0.0067	0.0074	31.5340	15.9437	-7.1335	0.2952	0.6686	0.3658	-0.5762
5.19	-9.7101	-0.2596	-1.5899	0.0191	-0.0115	0.0122	31.4740	15.8962	-6.8148	0.2952	0.6686	0.3658	-0.5762
5.2	-9.7070	-0.2574	-1.5877	0.0206	-0.0128	0.0154	31.5793	15.9084	-7.2253	0.2952	0.6686	0.3657	-0.5762
5.21	-9.7042	-0.2530	-1.5837	0.0215	-0.0098	0.0037	31.5095	15.7834	-6.8576	0.2952	0.6686	0.3658	-0.5762
5.22	-9.7151	-0.2538	-1.5870	0.0161	-0.0094	0.0124	31.3835	15.9046	-6.9456	0.2952	0.6686	0.3658	-0.5762
5.23	-9.7112	-0.2461	-1.5801	0.0183	-0.0088	0.0108	31.5433	16.0057	-6.9664	0.2952	0.6686	0.3657	-0.5762
5.24	-9.7069	-0.2466	-1.5740	0.0225	-0.0029	0.0119	31.3685	15.9732	-6.9523	0.2952	0.6686	0.3657	-0.5762
5.25	-9.7090	-0.2412	-1.5708	0.0178	-0.0032	0.0094	31.3287	15.8409	-6.9634	0.2951	0.6687	0.3657	-0.5762
5.26	-9.7107	-0.2433	-1.5737	0.0230	-0.0078	0.0076	31.4454	16.1173	-6.9601	0.2951	0.6687	0.3657	-0.5762
5.27	-9.7049	-0.2473	-1.5669	0.0123	-0.0065	0.0110	31.3066	15.9174	-6.8580	0.2951	0.6687	0.3657	-0.5762
5.28	-9.7122	-0.2491	-1.5714	0.0186	-0.0089	0.0083	31.5717	15.9722	-7.0370	0.2951	0.6687	0.3657	-0.5762
5.29	-9.7114	-0.2528	-1.5726	0.0154	-0.0050	0.0134	31.5256	15.9308	-7.0073	0.2951	0.6687	0.3657	-0.5762
5.3	-9.7009	-0.2481	-1.5706	0.0177	-0.0141	0.0075	31.5812	15.9115	-6.7209	0.2951	0.6687	0.3658	-0.5762
5.31	-9.7076	-0.2588	-1.5672	0.0175	-0.0106	0.0090	31.6996	15.9998	-6.9734	0.2951	0.6687	0.3657	-0.5762
5.32	-9.7171	-0.2620	-1.5725	0.0167	-0.0082	0.0101	31.8227	15.9551	-7.0878	0.2951	0.6687	0.3658	-0.5762
5.33	-9.7102	-0.2670	-1.5729	0.0180	-0.0120	0.0088	31.6855	16.1491	-6.9041	0.2951	0.6687	0.3657	-0.5762
5.34	-9.7036	-0.2661	-1.5747	0.0208	-0.0159	0.0099	31.5251	16.2747	-6.8928	0.2951	0.6687	0.3657	-0.5762
5.35	-9.7073	-0.2661	-1.5818	0.0248	-0.0114	0.0138	31.5133	15.8889	-7.0276	0.2951	0.6687	0.3657	-0.5762
5.36	-9.7080	-0.2696	-1.5808	0.0165	-0.0138	0.0075	31.5102	15.7530	-7.1357	0.2951	0.6687	0.3657	-0.5763
5.37	-9.7038	-0.2683	-1.5784	0.0184	-0.0105	0.0126	31.4884	15.8976	-7.2643	0.2951	0.6687	0.3657	-0.5763
5.38	-9.7080	-0.2763	-1.5877	0.0084	-0.0098	0.0126	31.5509	15.8898	-7.2283	0.2951	0.6687	0.3657	-0.5763
5.39	-9.7176	-0.2786	-1.5899	0.0130	-0.0156	0.0099	31.4007	16.0068	-7.2893	0.2951	0.6687	0.3657	-0.5763
5.4	-9.7123	-0.2816	-1.5930	0.0185	-0.0141	0.0148	31.6021	15.8646	-7.0855	0.2951	0.6686	0.3657	-0.5763
5.41	-9.7073	-0.2801	-1.5920	0.0126	-0.0123	0.0123	31.4451	15.9809	-6.9635	0.2952	0.6686	0.3657	-0.5763
5.42	-9.7102	-0.2777	-1.5912	0.0158	-0.0049	0.0068	31.3683	15.9437	-7.0041	0.2951	0.6686	0.3657	-0.5763
5.43	-9.7080	-0.2761	-1.5938	0.0171	-0.0114	0.0156	31.5674	16.0097	-6.9671	0.2952	0.6687	0.3657	-0.5763
5.44	-9.7032	-0.2700	-1.5881	0.0183	-0.0127	0.0117	31.3914	16.1566	-7.0876	0.2952	0.6686	0.3657	-0.5763
5.45	-9.7070	-0.2674	-1.5899	0.0190	-0.0134	0.0083	31.4276	15.9844	-7.0789	0.2951	0.6686	0.3657	-0.5763
5.46	-9.7104	-0.2645	-1.5905	0.0156	-0.0178	0.0135	31.4461	15.8236	-6.8888	0.2952	0.6686	0.3656	-0.5763
5.47	-9.7019	-0.2573	-1.5867	0.0187	-0.0101	0.0105	31.5415	15.9872	-6.9675	0.2952	0.6686	0.3656	-0.5763
5.48	-9.7074	-0.2556	-1.5846	0.0093	-0.0140	0.0105	31.3834	15.8463	-7.0874	0.2952	0.6686	0.3656	-0.5763
5.49	-9.7147	-0.2607	-1.5852	0.0179	-0.0138	0.0120	31.3405	16.1636	-7.0885	0.2952	0.6686	0.3656	-0.5763
5.5	-9.7081	-0.2572	-1.5782	0.0169	-0.0119	0.0152	31.3492	15.7774	-7.0235	0.2952	0.6686	0.3656	-0.5763
5.51	-9.7014	-0.2580	-1.5745	0.0220	-0.0078	0.0146	31.6353	15.6688	-6.9339	0.2952	0.6686	0.3656	-0.5763
5.52	-9.7124	-0.2620	-1.5773	0.0163	-0.0085	0.0110	31.5066	15.9506	-7.1417	0.2952	0.6686	0.3656	-0.5763
5.53	-9.7112	-0.2614	-1.5760	0.0134	-0.0081	0.0091	31.3368	15.9638	-7.2893	0.2952	0.6686	0.3656	-0.5763
5.54	-9.7030	-0.2629	-1.5708	0.0199	-0.0062	0.0102	31.7229	15.9227	-7.1813	0.2952	0.6686	0.3656	-0.5763
5.55	-9.7080	-0.2595	-1.5685	0.0182	-0.0087	0.0181	31.5484	15.7563	-7.0272	0.2952	0.6687	0.3656	-0.5763
5.56	-9.7123	-0.2593	-1.5735	0.0221	-0.0072	0.0145	31.4962	15.9692	-7.1366	0.2952	0.6687	0.3655	-0.5763
5.57	-9.7047	-0.2576	-1.5739	0.0151	-0.0093	0.0177	31.5282	15.8769	-7.1091	0.2952	0.6687	0.3655	-0.5763
5.58	-9.7036	-0.2571	-1.5735	0.0203	-0.0174	0.0111	31.7073	15.6760	-7.0429	0.2952	0.6687	0.3655	-0.5763
5.59	-9.7128	-0.2501	-1.5775	0.0141	-0.0134	0.0140	31.5214	15.8459	-7.1694	0.2953	0.6687	0.3655	-0.5763
5.6	-9.7082	-0.2467	-1.5815	0.0216	-0.0088	0.0123	31.4200	15.8899	-7.1791	0.2952	0.6687	0.3655	-0.5763
5.61	-9.7046	-0.2527	-1.5790	0.0170	-0.0073	0.0096	31.3588	16.0802	-7.0859	0.2952	0.6687	0.3655	-0.5763
5.62	-9.7108	-0.2571	-1.5820	0.0179	-0.0032	0.0114	31.3437	15.9158	-7.0824	0.2952	0.6687	0.3655	-0.5763
5.63	-9.7108	-0.2564	-1.5854	0.0147	-0.0056	0.0130	31.3225	15.9221	-7.2736	0.2952	0.6687	0.3655	-0.5763
5.64	-9.7061	-0.2593	-1.5848	0.0130	-0.0122	0.0120	31.4226	15.9051	-6.9179	0.2952	0.6687	0.3655	-0.5763
5.65	-9.7070	-0.2563	-1.5910	0.0092	-0.0089	0.0050	31.2836	15.9377	-7.1712	0.2953	0.6687	0.3655	-0.5762
5.66	-9.7103	-0.2609	-1.5888	0.0116	-0.0071	0.0113	31.2544	16.0410	-7.1716	0.2953	0.6687	0.3655	-0.5762
5.67	-9.7075	-0.2612	-1.5872	0.0097	-0.0123	0.0068	31.3834	16.0928	-7.3004	0.2953	0.6687	0.3655	-0.5762
5.68	-9.7037	-0.2646	-1.5815	0.0138	-0.0210	0.0100	31.3240	15.8447	-7.1574	0.2953	0.6687	0.3655	-0.5763
5.69	-9.7158	-0.2570	-1.5895	0.0137	-0.0111	0.0124	31.3550	15.7728	-7.2469	0.2953	0.6686	0.3655	-0.5763
5.7	-9.7097	-0.2574	-1.5873	0.0150	-0.0125	0.0099	31.5429	15.8959	-7.1377	0.2953	0.6686	0.3655	-0.5763
5.71	-9.7022	-0.2610	-1.5811	0.0158	-0.0145	0.0106	31.6198	15.9148	-7.1810	0.2953	0.6686	0.3655	-0.5763
5.72	-9.7109	-0.2589	-1.5855	0.0151	-0.0188	0.0124	31.4971	15.7116	-7.0662	0.2954	0.6686	0.3655	-0.5763
5.73	-9.7140	-0.2617	-1.5869	0.0200	-0.0140	0.0122	31.5141	15.8236	-7.1564	0.2954	0.6686	0.3655	-0.5763
5.74	-9.7030	-0.2622	-1.5834	0.0169	-0.0083	0.0111	31.6083	15.8629	-7.2994	0.2954	0.6686	0.3655	-0.5763
5.75	-9.7025	-0.2634	-1.5829	0.0122	-0.0145	0.0096	31.5778	15.7927	-7.1201	0.2954	0.6686	0.3655	-0.5763
5.76	-9.7156	-0.2630	-1.5891	0.0187	-0.0159	0.0123	31.5860	15.7191	-6.9528	0.2954	0.6686	0.3655	-0.5763
5.77	-9.7089	-0.2686	-1.5774	0.0169	-0.0163	0.0167	31.4887	15.6331	-6.9928	0.2954	0.6686	0.3655	-0.5764
5.78	-9.7094	-0.2665	-1.5776	0.0237	-0.0130	0.0086	31.3467	15.8720	-7.1310	0.2954	0.6686	0.3654	-0.5764
5.79	-9.7073	-0.2640	-1.5863	0.0223	-0.0057	0.0094	31.1437	15.7005	-7.1988	0.2954	0.6686	0.3654	-0.5764
5.8	-9.7034	-0.2638	-1.5836	0.0207	-0.0066	0.0121	31.4316	16.2058	-6.9654	0.2954	0.6686	0.3654	-0.5764
5.81	-9.7054	-0.2668	-1.5842	0.0207	-0.0072	0.0071	31.7841	16.1735	-6.8863	0.2953	0.6686	0.3654	-0.5764
5.82	-9.7103	-0.2672	-1.5820	0.0169	-0.0102	0.0141	31.9536	16.0379	-6.9520	0.2953	0.6686	0.3654	-0.5764
5.83	-9.7061	-0.2661	-1.5836	0.0144	-0.0097	0.0106	31.7171	16.1123	-6.8460	0.2953	0.6686	0.3654	-0.5764
5.84	-9.7080	-0.2665	-1.5821	0.0207	-0.0058	0.0039	31.4182	16.4497	-6.9981	0.2953	0.6686	0.3654	-0.5764
5.85	-9.7086	-0.2688	-1.5778	0.0167	-0.0090	0.0138	31.4331	16.0702	-6.8368	0.2953	0.6686	0.3654	-0.5764
5.86	-9.7099	-0.2672	-1.5772	0.0115	-0.0071	0.0143	31.6103	15.8136	-6.7889	0.2953	0.6686	0.3654	-0.5763
5.87	-9.7136	-0.2678	-1.5798	0.0151	-0.0094	0.0109	31.6164	16.1582	-6.9957	0.2953	0.6686	0.3654	-0.5763
5.88	-9.7061	-0.2677	-1.5755	0.0198	-0.0129	0.0128	31.5722	16.0008	-6.9103	0.2953	0.6686	0.3654	-0.5763
5.89	-9.7047	-0.2701	-1.5762	0.0177	-0.0127	0.0125	31.6981	15.8941	-7.0085	0.2953	0.6686	0.3654	-0.5764
5.9	-9.7077	-0.2701	-1.5758	0.0192	-0.0165	0.0149	31.5481	15.9358	-7.0504	0.2954	0.6686	0.3654	-0.5764
5.91	-9.7097	-0.2721	-1.5733	0.0228	-0.0076	0.0085	31.4291	15.7189	-6.9234	0.2953	0.6686	0.3653	-0.5764
5.92	-9.7075	-0.2729	-1.5721	0.0209	-0.0097	0.0136	31.6861	16.0246	-6.9551	0.2953	0.6687	0.3653	-0.5764
5.93	-9.7100	-0.2704	-1.5829	0.0128	-0.0094	0.0149	31.4845	15.9311	-6.9424	0.2953	0.6687	0.3653	-0.5764
5.94	-9.7073	-0.2701	-1.5838	0.0195	-0.0099	0.0090	31.2541	15.8902	-6.9516	0.2953	0.6687	0.3653	-0.5764
5.95	-9.6990	-0.2675	-1.5775	0.0189	-0.0130	0.0108	31.5226	15.9409	-7.0574	0.2953	0.6687	0.3653	-0.5764
5.96	-9.7087	-0.2668	-1.5824	0.0239	-0.0118	0.0128	31.4869	16.0165	-7.0184	0.2953	0.6687	0.3653	-0.5764
5.97	-9.7091	-0.2640	-1.5819	0.0155	-0.0159	0.0120	31.4266	15.9827	-7.0756	0.2953	0.6687	0.3653	-0.5764
5.98	-9.7075	-0.2614	-1.5914	0.0199	-0.0118	0.0164	31.4567	16.0102	-6.8070	0.2953	0.6687	0.3652	-0.5764
5.99	-9.7026	-0.2669	-1.5893	0.0107	-0.0166	0.0147	31.4334	15.8447	-7.0631	0.2954	0.6686	0.3652	-0.5764
6	-9.7033	-0.2643	-1.5871	0.0142	-0.0167	0.0070	31.4622	15.8631	-6.8895	0.2954	0.6686	0.3652	-0.5764
6.01	-9.7088	-0.2649	-1.5860	0.0197	-0.0163	0.0145	31.4178	16.0209	-6.9274	0.2954	0.6686	0.3652	-0.5765
6.02	-9.7108	-0.2612	-1.5942	0.0122	-0.0149	0.0122	31.4928	15.9742	-7.0638	0.2954	0.6686	0.3652	-0.5765
6.03	-9.7098	-0.2544	-1.5859	0.0137	-0.0076	0.0087	31.4937	15.8844	-7.0340	0.2954	0.6686	0.3652	-0.5765
6.04	-9.7041	-0.2510	-1.5750	0.0126	-0.0095	0.0078	31.4320	15.9826	-6.9744	0.2954	0.6686	0.3652	-0.5765
6.05	-9.7092	-0.2444	-1.5818	0.0132	-0.0077	0.0125	31.4420	16.0151	-6.9327	0.2954	0.6686	0.3653	-0.5764
6.06	-9.7121	-0.2428	-1.5768	0.0108	-0.0143	0.0095	31.3611	15.9576	-6.9716	0.2955	0.6686	0.3653	-0.5764
6.07	-9.7080	-0.2415	-1.5719	0.0172	-0.0182	0.0107	31.6939	15.9027	-7.0948	0.2955	0.6685	0.3653	-0.5765
6.08	-9.7095	-0.2381	-1.5695	0.0113	-0.0112	0.0133	31.6850	15.9300	-6.8211	0.2955	0.6685	0.3653	-0.5765
6.09	-9.7037	-0.2415	-1.5716	0.0103	-0.0107	0.0154	31.5963	15.8175	-7.0010	0.2955	0.6685	0.3653	-0.5764
6.1	-9.7063	-0.2507	-1.5722	0.0136	-0.0102	0.0114	31.4691	15.6961	-6.9804	0.2956	0.6685	0.3653	-0.5764
6.11	-9.7035	-0.2525	-1.5736	0.0165	-0.0148	0.0097	31.4638	15.8869	-6.9912	0.2956	0.6685	0.3653	-0.5764
6.12	-9.7022	-0.2583	-1.5729	0.0126	-0.0111	0.0113	31.7436	16.0099	-7.0674	0.2956	0.6685	0.3653	-0.5764
6.13	-9.7082	-0.2616	-1.5760	0.0170	-0.0155	0.0121	31.6166	16.0146	-6.7679	0.2956	0.6685	0.3653	-0.5765
6.14	-9.7133	-0.2666	-1.5777	0.0195	-0.0093	0.0095	31.4827	15.9372	-6.8101	0.2956	0.6685	0.3653	-0.5765
6.15	-9.7088	-0.2673	-1.5695	0.0119	-0.0143	0.0116	31.6000	15.9142	-6.9680	0.2956	0.6685	0.3653	-0.5765
6.16	-9.7059	-0.2659	-1.5767	0.0166	-0.0088	0.0103	31.6308	15.9014	-6.8266	0.2956	0.6685	0.3653	-0.5765
6.17	-9.7101	-0.2629	-1.5847	0.0168	-0.0081	0.0043	31.5292	15.8351	-6.7542	0.2956	0.6685	0.3653	-0.5765
6.18	-9.7095	-0.2645	-1.5819	0.0147	-0.0085	0.0080	31.3909	15.9644	-6.7815	0.2956	0.6685	0.3653	-0.5765
6.19	-9.7103	-0.2667	-1.5865	0.0122	-0.0121	0.0097	31.5573	15.7982	-6.7620	0.2956	0.6685	0.3653	-0.5765
6.2	-9.7081	-0.2662	-1.5918	0.0073	-0.0100	0.0072	31.1917	15.8557	-6.8894	0.2956	0.6685	0.3653	-0.5764
6.21	-9.7054	-0.2675	-1.5856	0.0164	-0.0132	0.0045	31.2352	15.9401	-7.0190	0.2956	0.6684	0.3654	-0.5765
6.22	-9.7107	-0.2737	-1.5861	0.0181	-0.0141	0.0110	31.4229	16.1082	-7.0594	0.2956	0.6684	0.3654	-0.5765
6.23	-9.7099	-0.2727	-1.5905	0.0092	-0.0116	0.0084	31.5651	15.9572	-6.9324	0.2956	0.6684	0.3654	-0.5765
6.24	-9.7100	-0.2702	-1.5916	0.0119	-0.0122	0.0105	31.3519	15.8164	-6.9496	0.2956	0.6684	0.3654	-0.5765
6.25	-9.7056	-0.2712	-1.5876	0.0108	-0.0184	0.0121	31.6563	15.9759	-6.9490	0.2957	0.6684	0.3654	-0.5765
6.26	-9.7062	-0.2681	-1.5885	0.0102	-0.0169	0.0098	31.6354	15.8020	-6.9318	0.2957	0.6684	0.3654	-0.5765
6.27	-9.7069	-0.2662	-1.5881	0.0143	-0.0175	0.0097	31.3973	15.8605	-6.9653	0.2957	0.6683	0.3654	-0.5765
6.28	-9.7087	-0.2667	-1.5847	0.0167	-0.0145	0.0067	31.4708	15.9183	-7.0653	0.2957	0.6683	0.3654	-0.5765
6.29	-9.7077	-0.2637	-1.5824	0.0136	-0.0096	0.0125	31.4608	15.6886	-6.9738	0.2957	0.6683	0.3654	-0.5765
6.3	-9.7092	-0.2649	-1.5761	0.0124	-0.0207	0.0106	31.8114	16.0584	-6.7316	0.2957	0.6683	0.3654	-0.5766
6.31	-9.7038	-0.2656	-1.5792	0.0124	-0.0157	0.0087	32.0653	16.0646	-6.8081	0.2958	0.6683	0.3654	-0.5766
6.32	-9.7105	-0.2679	-1.5713	0.0033	-0.0164	0.0115	32.0916	15.8986	-6.9165	0.2958	0.6682	0.3655	-0.5766
6.33	-9.7057	-0.2680	-1.5689	0.0110	-0.0178	0.0085	31.6860	16.0486	-6.9799	0.2958	0.6682	0.3655	-0.5766
6.34	-9.7075	-0.2759	-1.5726	0.0093	-0.0138	0.0085	31.6160	16.3752	-7.0856	0.2959	0.6682	0.3655	-0.5766
6.35	-9.7058	-0.2780	-1.5693	0.0114	-0.0087	0.0168	31.5671	16.1008	-6.9936	0.2959	0.6682	0.3655	-0.5766
6.36	-9.7057	-0.2692	-1.5696	0.0181	-0.0081	0.0072	31.3498	15.9925	-6.7518	0.2959	0.6682	0.3655	-0.5765
6.37	-9.7061	-0.2694	-1.5721	0.0108	-0.0145	0.0095	31.2084	16.0554	-7.0175	0.2959	0.6682	0.3655	-0.5766
6.38	-9.7035	-0.2674	-1.5714	0.0056	-0.0154	0.0097	31.4128	16.1032	-7.0591	0.2959	0.6681	0.3655	-0.5766
6.39	-9.7049	-0.2628	-1.5783	0.0169	-0.0048	0.0083	31.3311	15.9768	-6.9401	0.2959	0.6681	0.3656	-0.5765
6.4	-9.7057	-0.2586	-1.5803	0.0173	-0.0092	0.0131	31.4108	15.8570	-7.0039	0.2959	0.6681	0.3656	-0.5765
6.41	-9.7041	-0.2537	-1.5778	0.0057	-0.0080	0.0068	31.3821	15.8776	-6.9384	0.2959	0.6681	0.3656	-0.5765
6.42	-9.7039	-0.2550	-1.5832	0.0075	-0.0070	0.0103	31.2259	15.9618	-6.9049	0.2959	0.6681	0.3656	-0.5765
6.43	-9.7107	-0.2574	-1.5831	0.0128	-0.0154	0.0120	31.4143	15.9501	-7.0582	0.2960	0.6681	0.3656	-0.5765
6.44	-9.7054	-0.2530	-1.5828	0.0173	-0.0178	0.0149	31.4850	15.8770	-7.0769	0.2960	0.6681	0.3656	-0.5765
6.45	-9.7112	-0.2536	-1.5836	0.0224	-0.0087	0.0138	31.6908	15.7539	-7.0144	0.2960	0.6681	0.3656	-0.5765
6.46	-9.7117	-0.2529	-1.5854	0.0167	-0.0122	0.0059	31.4734	15.9891	-6.9869	0.2960	0.6681	0.3656	-0.5765
6.47	-9.7093	-0.2544	-1.5870	0.0214	-0.0098	0.0076	31.5176	15.8010	-7.1705	0.2959	0.6681	0.3656	-0.5765
6.48	-9.7064	-0.2568	-1.5862	0.0215	-0.0135	0.0090	31.3841	15.6860	-7.0412	0.2959	0.6681	0.3656	-0.5765
6.49	-9.7048	-0.2564	-1.5868	0.0110	-0.0148	0.0113	31.3214	15.9375	-6.9323	0.2959	0.6681	0.3656	-0.5765
6.5	-9.7085	-0.2563	-1.5857	0.0134	-0.0188	0.0139	31.5115	15.7759	-7.0629	0.2960	0.6681	0.3656	-0.5766
6.51	-9.7074	-0.2563	-1.5796	0.0112	-0.0114	0.0145	31.4047	15.7922	-6.9713	0.2960	0.6681	0.3656	-0.5766
6.52	-9.7098	-0.2551	-1.5912	0.0094	-0.0160	0.0092	31.4059	15.8643	-6.8773	0.2960	0.6680	0.3656	-0.5766
6.53	-9.7063	-0.2602	-1.5870	0.0044	-0.0112	0.0152	31.5544	15.9007	-7.1791	0.2961	0.6680	0.3656	-0.5765
6.54	-9.7039	-0.2637	-1.5862	0.0078	-0.0073	0.0088	31.3365	16.0242	-7.0800	0.2961	0.6680	0.3657	-0.5765
6.55	-9.7074	-0.2616	-1.5851	0.0130	-0.0104	0.0087	31.3196	16.0533	-6.9641	0.2961	0.6680	0.3657	-0.5765
6.56	-9.7098	-0.2635	-1.5862	0.0029	-0.0059	0.0078	31.4493	15.8623	-7.1080	0.2961	0.6680	0.3657	-0.5765
6.57	-9.7074	-0.2646	-1.5842	0.0112	-0.0070	0.0102	31.5357	15.9711	-6.9807	0.2961	0.6680	0.3658	-0.5764
6.58	-9.7082	-0.2647	-1.5781	0.0103	-0.0085	0.0146	31.3077	16.0693	-6.9938	0.2962	0.6680	0.3658	-0.5764
6.59	-9.7105	-0.2646	-1.5839	0.0030	-0.0140	0.0142	31.4389	15.9081	-6.8451	0.2962	0.6680	0.3658	-0.5764
6.6	-9.7092	-0.2662	-1.5877	0.0059	-0.0142	0.0116	31.6148	15.8560	-6.9589	0.2963	0.6680	0.3658	-0.5764
6.61	-9.7063	-0.2651	-1.5850	0.0230	-0.0114	0.0103	31.2991	16.1308	-7.1710	0.2962	0.6680	0.3658	-0.5764
6.62	-9.7055	-0.2659	-1.5835	0.0226	-0.0190	0.0108	31.4330	16.0095	-7.1555	0.2962	0.6680	0.3658	-0.5764
6.63	-9.7122	-0.2660	-1.5850	0.0229	-0.0141	0.0099	31.5993	15.9691	-7.1270	0.2962	0.6680	0.3658	-0.5765
6.64	-9.7040	-0.2618	-1.5820	0.0178	-0.0111	0.0099	31.5707	15.6827	-7.0028	0.2962	0.6680	0.3658	-0.5765
6.65	-9.7050	-0.2648	-1.5769	0.0142	-0.0102	0.0106	31.5093	15.6386	-6.8560	0.2962	0.6680	0.3658	-0.5765
6.66	-9.7070	-0.2648	-1.5760	0.0116	-0.0138	0.0108	31.3752	16.0173	-6.9242	0.2962	0.6679	0.3658	-0.5765
6.67	-9.7095	-0.2647	-1.5780	0.0125	-0.0177	0.0052	31.4404	15.7753	-6.9515	0.2962	0.6679	0.3658	-0.5765
6.68	-9.7050	-0.2651	-1.5728	0.0113	-0.0087	0.0100	31.5622	15.8000	-7.0655	0.2962	0.6679	0.3658	-0.5765
6.69	-9.7072	-0.2658	-1.5754	0.0171	-0.0131	0.0057	31.5799	15.7682	-6.9369	0.2962	0.6679	0.3658	-0.5765
6.7	-9.7087	-0.2681	-1.5773	0.0181	-0.0090	0.0084	31.5550	15.9178	-7.0415	0.2962	0.6679	0.3658	-0.5765
6.71	-9.7022	-0.2718	-1.5733	0.0048	-0.0085	0.0122	31.5979	15.9535	-7.1134	0.2962	0.6679	0.3659	-0.5765
6.72	-9.7078	-0.2687	-1.5790	0.0173	-0.0061	0.0030	31.4848	16.0006	-6.8229	0.2962	0.6679	0.3659	-0.5765
6.73	-9.7109	-0.2675	-1.5857	0.0163	-0.0121	0.0098	31.4156	16.1540	-7.0330	0.2962	0.6679	0.3659	-0.5765
6.74	-9.7076	-0.2668	-1.5804	0.0188	-0.0094	0.0108	31.3574	15.9383	-6.7977	0.2962	0.6679	0.3659	-0.5765
6.75	-9.7093	-0.2679	-1.5810	0.0164	-0.0081	0.0015	31.1414	16.0086	-6.8565	0.2961	0.6679	0.3659	-0.5765
6.76	-9.7105	-0.2657	-1.5889	0.0138	-0.0100	0.0093	31.2323	16.0293	-6.9975	0.2961	0.6679	0.3660	-0.5765
6.77	-9.7120	-0.2638	-1.5948	0.0192	-0.0105	0.0100	31.3828	15.9478	-6.9654	0.2961	0.6679	0.3659	-0.5765
6.78	-9.7060	-0.2648	-1.5912	0.0158	-0.0090	0.0082	31.3700	16.0474	-7.0023	0.2961	0.6679	0.3660	-0.5765
6.79	-9.7044	-0.2631	-1.5920	0.0125	-0.0069	0.0123	31.3129	15.8076	-7.1776	0.2961	0.6679	0.3660	-0.5764
6.8	-9.7088	-0.2665	-1.5969	0.0151	-0.0078	0.0126	31.4658	16.0810	-6.9671	0.2961	0.6679	0.3660	-0.5764
6.81	-9.7068	-0.2686	-1.5894	0.0126	-0.0147	0.0101	31.9087	16.1052	-6.5883	0.2961	0.6679	0.3660	-0.5764
6.82	-9.7077	-0.2683	-1.5833	0.0147	-0.0149	0.0116	32.0093	16.0831	-6.5712	0.2961	0.6679	0.3660	-0.5764
6.83	-9.7107	-0.2675	-1.5863	0.0186	-0.0129	0.0102	31.6747	16.1047	-6.7786	0.2961	0.6679	0.3660	-0.5764
6.84	-9.7100	-0.2638	-1.5872	0.0164	-0.0174	0.0108	31.6674	16.2339	-6.7508	0.2961	0.6679	0.3660	-0.5765
6.85	-9.7046	-0.2559	-1.5806	0.0151	-0.0138	0.0139	31.5224	15.8794	-6.9150	0.2962	0.6679	0.3659	-0.5765
6.86	-9.7115	-0.2494	-1.5787	0.0129	-0.0133	0.0130	31.5260	15.8942	-6.9596	0.2962	0.6679	0.3659	-0.5765
6.87	-9.7112	-0.2456	-1.5781	0.0113	-0.0134	0.0154	31.7130	15.8839	-6.9268	0.2962	0.6679	0.3659	-0.5765
6.88	-9.7065	-0.2493	-1.5694	0.0102	-0.0106	0.0152	31.5754	15.7997	-6.9575	0.2962	0.6679	0.3659	-0.5764
6.89	-9.7056	-0.2462	-1.5680	0.0137	-0.0143	0.0091	31.5453	15.9395	-6.9166	0.2962	0.6679	0.3660	-0.5764
6.9	-9.7097	-0.2517	-1.5683	0.0177	-0.0134	0.0095	31.7448	15.8443	-7.0293	0.2962	0.6679	0.3660	-0.5764
6.91	-9.7091	-0.2537	-1.5718	0.0137	-0.0087	0.0049	31.5713	15.8678	-7.1170	0.2962	0.6678	0.3660	-0.5764
6.92	-9.7035	-0.2578	-1.5679	0.0098	-0.0108	0.0027	31.5678	16.0536	-6.8689	0.2962	0.6678	0.3660	-0.5764
6.93	-9.7053	-0.2630	-1.5713	0.0131	-0.0130	0.0088	31.6088	15.9948	-6.8452	0.2962	0.6678	0.3661	-0.5764
6.94	-9.7043	-0.2668	-1.5733	0.0183	-0.0121	0.0023	31.3327	16.0156	-6.8907	0.2962	0.6678	0.3661	-0.5765
6.95	-9.6992	-0.2645	-1.5745	0.0092	-0.0143	0.0065	31.4100	15.9055	-6.8085	0.2962	0.6678	0.3661	-0.5765
6.96	-9.7093	-0.2629	-1.5728	0.0075	-0.0109	0.0026	31.4670	15.9181	-6.8140	0.2962	0.6677	0.3662	-0.5765
6.97	-9.7090	-0.2611	-1.5733	0.0007	-0.0137	0.0062	31.4462	15.7160	-6.8638	0.2962	0.6677	0.3662	-0.5765
6.98	-9.7064	-0.2587	-1.5815	0.0123	-0.0130	0.0084	31.5414	15.9802	-6.8671	0.2963	0.6677	0.3662	-0.5764
6.99	-9.7058	-0.2622	-1.5759	0.0137	-0.0127	0.0096	31.6695	15.8720	-7.0762	0.2962	0.6677	0.3662	-0.5764
7	-9.7116	-0.2597	-1.5841	0.0182	-0.0120	0.0117	31.5285	15.8801	-7.0101	0.2963	0.6677	0.3662	-0.5764
7.01	-9.7129	-0.2644	-1.5896	0.0226	-0.0160	0.0089	31.6228	16.0300	-7.0426	0.2962	0.6677	0.3662	-0.5765
7.02	-9.7062	-0.2679	-1.5890	0.0179	-0.0158	0.0096	31.7986	16.0184	-7.0308	0.2962	0.6677	0.3662	-0.5765
7.03	-9.7057	-0.2689	-1.5965	0.0226	-0.0060	0.0071	31.6620	15.8353	-7.0118	0.2962	0.6677	0.3662	-0.5765
7.04	-9.7101	-0.2712	-1.5897	0.0223	-0.0137	0.0089	31.7406	15.7118	-7.0953	0.2962	0.6677	0.3662	-0.5765
7.05	-9.7109	-0.2696	-1.5933	0.0229	-0.0133	0.0094	31.5171	15.9745	-7.1356	0.2961	0.6677	0.3662	-0.5765
7.06	-9.7099	-0.2739	-1.5955	0.0170	-0.0086	0.0101	31.6613	16.0066	-6.9821	0.2961	0.6677	0.3662	-0.5765
7.07	-9.7091	-0.2698	-1.5990	0.0143	-0.0098	0.0076	31.5570	15.8541	-6.9137	0.2961	0.6677	0.3662	-0.5765
7.08	-9.7087	-0.2681	-1.5913	0.0182	-0.0131	0.0140	31.5218	15.8313	-7.0378	0.2961	0.6677	0.3662	-0.5765
7.09	-9.7050	-0.2679	-1.5887	0.0174	-0.0129	0.0091	31.5683	15.9589	-7.0247	0.2961	0.6677	0.3662	-0.5765
7.1	-9.7140	-0.2646	-1.5906	0.0169	-0.0081	0.0048	31.6178	16.0366	-7.0536	0.2961	0.6677	0.3662	-0.5765
7.11	-9.7058	-0.2635	-1.5845	0.0183	-0.0084	0.0084	31.4382	15.9567	-6.9625	0.2961	0.6677	0.3662	-0.5765
7.12	-9.7039	-0.2684	-1.5800	0.0176	-0.0110	0.0126	31.5363	15.8158	-6.9380	0.2960	0.6677	0.3662	-0.5765
7.13	-9.7149	-0.2700	-1.5815	0.0124	-0.0110	0.0102	31.7673	15.8903	-6.8184	0.2961	0.6677	0.3662	-0.5765
7.14	-9.7097	-0.2727	-1.5720	0.0207	-0.0091	0.0112	31.5757	15.9370	-6.9178	0.2960	0.6677	0.3662	-0.5765
7.15	-9.7055	-0.2700	-1.5753	0.0139	-0.0096	0.0133	31.5232	15.9307	-6.9669	0.2960	0.6677	0.3662	-0.5765
7.16	-9.7031	-0.2706	-1.5670	0.0121	-0.0107	0.0090	31.5367	16.0015	-6.8342	0.2961	0.6677	0.3663	-0.5765
7.17	-9.7116	-0.2721	-1.5700	0.0224	-0.0088	0.0058	31.5596	15.8007	-7.0140	0.2960	0.6677	0.3663	-0.5765
7.18	-9.7067	-0.2715	-1.5727	0.0176	-0.0148	0.0118	31.6686	16.1073	-7.0373	0.2960	0.6677	0.3663	-0.5765
7.19	-9.7047	-0.2672	-1.5733	0.0116	-0.0136	0.0116	31.5032	16.0259	-7.0383	0.2960	0.6677	0.3663	-0.5765
7.2	-9.7115	-0.2612	-1.5728	0.0170	-0.0122	0.0086	31.5857	15.8711	-7.0236	0.2960	0.6677	0.3663	-0.5765
7.21	-9.7092	-0.2566	-1.5756	0.0121	-0.0113	0.0080	31.6077	15.8826	-7.0461	0.2960	0.6677	0.3663	-0.5765
7.22	-9.7067	-0.2559	-1.5700	0.0154	-0.0094	0.0110	31.7090	15.9659	-6.9628	0.2960	0.6677	0.3663	-0.5765
7.23	-9.7049	-0.2515	-1.5707	0.0159	-0.0098	0.0129	31.5903	15.8206	-6.8242	0.2960	0.6677	0.3663	-0.5765
7.24	-9.7113	-0.2525	-1.5803	0.0146	-0.0103	0.0104	31.5560	15.7448	-7.1471	0.2960	0.6677	0.3663	-0.5765
7.25	-9.7049	-0.2547	-1.5876	0.0122	-0.0117	0.0075	31.6506	16.0101	-7.0066	0.2960	0.6677	0.3663	-0.5765
7.26	-9.7086	-0.2566	-1.5829	0.0111	-0.0114	0.0115	31.6029	15.9398	-6.8214	0.2960	0.6677	0.3663	-0.5765
7.27	-9.7088	-0.2584	-1.5886	0.0169	-0.0127	0.0116	31.5285	15.9209	-6.9918	0.2960	0.6677	0.3663	-0.5765
7.28	-9.7055	-0.2556	-1.5887	0.0120	-0.0071	0.0109	31.5537	15.9283	-6.8820	0.2960	0.6677	0.3663	-0.5764
7.29	-9.7071	-0.2515	-1.5853	0.0114	-0.0092	0.0092	31.4565	15.9683	-6.8566	0.2961	0.6677	0.3664	-0.5764
7.3	-9.7078	-0.2542	-1.5889	0.0156	-0.0082	0.0034	31.6000	16.1410	-6.7875	0.2960	0.6677	0.3664	-0.5764
7.31	-9.7120	-0.2570	-1.5907	0.0162	-0.0114	0.0105	31.7625	16.0326	-6.4902	0.2960	0.6677	0.3664	-0.5764
7.32	-9.7035	-0.2615	-1.5864	0.0181	-0.0081	0.0064	31.6843	15.9564	-6.6529	0.2960	0.6677	0.3664	-0.5764
7.33	-9.7067	-0.2583	-1.5972	0.0153	-0.0094	0.0078	31.3125	16.1258	-6.8199	0.2960	0.6677	0.3664	-0.5764
7.34	-9.7127	-0.2597	-1.5926	0.0191	-0.0087	0.0050	31.3698	16.2465	-6.6774	0.2960	0.6677	0.3665	-0.5764
7.35	-9.7077	-0.2603	-1.5923	0.0088	-0.0094	0.0069	31.3552	15.8947	-6.9977	0.2960	0.6677	0.3665	-0.5764
7.36	-9.7049	-0.2649	-1.5883	0.0120	-0.0101	0.0108	31.2525	15.9015	-6.8942	0.2960	0.6677	0.3665	-0.5764
7.37	-9.7145	-0.2661	-1.5915	0.0167	-0.0055	0.0131	31.3147	15.9760	-6.8688	0.2960	0.6677	0.3665	-0.5764
7.38	-9.7143	-0.2631	-1.5915	0.0184	-0.0122	0.0141	31.4670	15.8016	-7.2505	0.2960	0.6678	0.3665	-0.5764
7.39	-9.7046	-0.2654	-1.5837	0.0182	-0.0149	0.0100	31.5190	15.7879	-6.9664	0.2960	0.6677	0.3665	-0.5764
7.4	-9.7045	-0.2689	-1.5794	0.0199	-0.0113	0.0111	31.6836	15.7656	-6.7405	0.2959	0.6677	0.3665	-0.5764
7.41	-9.7101	-0.2694	-1.5816	0.0100	-0.0091	0.0078	31.5147	15.9012	-6.9236	0.2959	0.6677	0.3665	-0.5764
7.42	-9.7109	-0.2689	-1.5773	0.0147	-0.0070	0.0119	31.4106	15.9382	-6.9751	0.2959	0.6678	0.3665	-0.5764
7.43	-9.7090	-0.2709	-1.5659	0.0115	-0.0087	0.0067	31.5391	15.7749	-6.9700	0.2959	0.6678	0.3666	-0.5763
7.44	-9.7166	-0.2704	-1.5623	0.0192	-0.0081	0.0064	31.3878	15.8414	-6.9477	0.2959	0.6678	0.3666	-0.5763
7.45	-9.7108	-0.2658	-1.5670	0.0192	-0.0107	0.0065	31.4262	16.0171	-7.1217	0.2959	0.6678	0.3666	-0.5763
7.46	-9.7063	-0.2694	-1.5719	0.0192	-0.0116	0.0100	31.5537	15.9622	-6.9356	0.2959	0.6678	0.3666	-0.5763
7.47	-9.7141	-0.2601	-1.5839	0.0153	-0.0096	0.0132	31.2758	15.7348	-6.8617	0.2959	0.6678	0.3666	-0.5763
7.48	-9.7141	-0.2587	-1.5912	0.0102	-0.0150	0.0096	31.1288	15.9653	-6.8844	0.2959	0.6678	0.3666	-0.5763
7.49	-9.7060	-0.2564	-1.5901	0.0132	-0.0138	0.0109	31.4545	15.9545	-7.0518	0.2959	0.6677	0.3666	-0.5763
7.5	-9.7042	-0.2508	-1.6015	0.0138	-0.0124	0.0084	31.4959	16.0887	-6.9675	0.2959	0.6677	0.3666	-0.5763
7.51	-9.7094	-0.2538	-1.6032	0.0126	-0.0041	0.0034	31.4943	15.8491	-6.7437	0.2959	0.6678	0.3666	-0.5763
7.52	-9.7054	-0.2530	-1.6071	0.0179	-0.0067	0.0114	31.3743	15.7666	-6.9340	0.2959	0.6678	0.3666	-0.5763
7.53	-9.7115	-0.2529	-1.6010	0.0214	-0.0141	0.0055	31.3174	15.9381	-6.8145	0.2959	0.6678	0.3666	-0.5763
7.54	-9.7175	-0.2576	-1.5963	0.0117	-0.0124	0.0063	31.3167	15.9298	-6.8273	0.2958	0.6677	0.3667	-0.5763
7.55	-9.7122	-0.2694	-1.5904	0.0195	-0.0139	0.0084	31.4294	16.0500	-7.1202	0.2958	0.6677	0.3667	-0.5763
7.56	-9.7097	-0.2788	-1.5783	0.0071	-0.0168	0.0081	31.3936	15.8813	-6.9875	0.2959	0.6677	0.3667	-0.5763
7.57	-9.7092	-0.2808	-1.5786	0.0140	-0.0172	0.0113	31.6460	15.8880	-7.0169	0.2959	0.6677	0.3667	-0.5763
7.58	-9.7054	-0.2854	-1.5695	0.0123	-0.0100	0.0090	31.5856	15.7202	-7.0593	0.2959	0.6677	0.3667	-0.5763
7.59	-9.7039	-0.2805	-1.5617	0.0082	-0.0067	0.0105	31.4888	15.5794	-7.0515	0.2959	0.6677	0.3667	-0.5763
7.6	-9.7065	-0.2717	-1.5622	0.0141	-0.0098	0.0117	31.5915	15.9455	-7.0187	0.2959	0.6677	0.3667	-0.5763
7.61	-9.7061	-0.2575	-1.5543	0.0161	-0.0141	0.0088	31.3701	15.8849	-6.9431	0.2959	0.6677	0.3668	-0.5763
7.62	-9.7038	-0.2471	-1.5491	0.0161	-0.0116	0.0088	31.5180	15.7821	-6.9842	0.2959	0.6677	0.3668	-0.5763
7.63	-9.7017	-0.2373	-1.5525	0.0140	-0.0097	0.0087	31.5702	15.7560	-6.9399	0.2959	0.6677	0.3668	-0.5763
7.64	-9.7083	-0.2372	-1.5510	0.0182	-0.0099	0.0144	31.4323	15.6975	-6.8115	0.2959	0.6677	0.3668	-0.5763
7.65	-9.7049	-0.2388	-1.5418	0.0172	-0.0103	0.0089	31.6087	15.9603	-6.7643	0.2959	0.6677	0.3668	-0.5763
7.66	-9.7035	-0.2468	-1.5448	0.0087	-0.0149	0.0126	31.3448	15.9481	-6.9237	0.2959	0.6677	0.3668	-0.5763
7.67	-9.7085	-0.2603	-1.5547	0.0070	-0.0077	0.0126	31.2391	16.0531	-6.9806	0.2960	0.6677	0.3668	-0.5762
7.68	-9.7099	-0.2696	-1.5579	0.0127	-0.0119	0.0127	31.2286	15.9963	-6.9944	0.2960	0.6677	0.3668	-0.5762
7.69	-9.7058	-0.2720	-1.5657	0.0138	-0.0086	0.0111	31.3545	16.1234	-6.8731	0.2960	0.6677	0.3668	-0.5762
7.7	-9.7034	-0.2731	-1.5656	0.0088	-0.0047	0.0168	31.3742	16.0986	-6.9173	0.2960	0.6677	0.3668	-0.5762
7.71	-9.7089	-0.2680	-1.5715	0.0097	-0.0053	0.0145	31.3649	15.9624	-6.8067	0.2960	0.6677	0.3668	-0.5761
7.72	-9.7016	-0.2619	-1.5760	0.0100	-0.0061	0.0120	31.4063	15.9243	-6.9044	0.2960	0.6678	0.3669	-0.5761
7.73	-9.7019	-0.2620	-1.5727	0.0102	-0.0105	0.0166	31.4552	16.0549	-7.2269	0.2961	0.6678	0.3669	-0.5761
7.74	-9.7099	-0.2632	-1.5821	0.0126	-0.0084	0.0078	31.4162	15.9976	-6.7910	0.2961	0.6678	0.3669	-0.5761
7.75	-9.7141	-0.2704	-1.5841	0.0163	-0.0142	0.0112	31.3635	15.8859	-6.7070	0.2961	0.6678	0.3669	-0.5761
7.76	-9.7056	-0.2695	-1.5873	0.0160	-0.0142	0.0111	31.7082	15.7738	-7.0021	0.2961	0.6678	0.3669	-0.5761
7.77	-9.7062	-0.2731	-1.5967	0.0116	-0.0094	0.0099	31.5270	15.7981	-6.8280	0.2961	0.6677	0.3669	-0.5761
7.78	-9.7124	-0.2713	-1.6086	0.0138	-0.0110	0.0127	31.3022	15.8897	-6.9470	0.2961	0.6677	0.3669	-0.5760
7.79	-9.7123	-0.2738	-1.6101	0.0112	-0.0134	0.0119	31.4632	15.8323	-6.9802	0.2961	0.6677	0.3669	-0.5760
7.8	-9.7128	-0.2726	-1.6187	0.0135	-0.0160	0.0055	31.6415	15.9833	-6.8875	0.2961	0.6677	0.3669	-0.5760
7.81	-9.7182	-0.2782	-1.6222	0.0174	-0.0154	0.0107	31.9403	15.9161	-6.5834	0.2961	0.6677	0.3669	-0.5761
7.82	-9.7113	-0.2812	-1.6228	0.0142	-0.0098	0.0118	32.0061	15.9349	-6.6023	0.2961	0.6677	0.3669	-0.5761
7.83	-9.7117	-0.2796	-1.6319	0.0195	-0.0089	0.0122	31.6892	15.9832	-6.9728	0.2961	0.6677	0.3669	-0.5760
7.84	-9.7175	-0.2844	-1.6416	0.0196	-0.0117	0.0108	31.6550	16.4063	-7.0123	0.2961	0.6678	0.3669	-0.5761
7.85	-9.7148	-0.2779	-1.6444	0.0157	-0.0103	0.0109	31.5573	16.0774	-7.1582	0.2961	0.6678	0.3669	-0.5761
7.86	-9.7074	-0.2685	-1.6417	0.0137	-0.0092	0.0082	31.6518	15.8476	-6.9780	0.2961	0.6678	0.3669	-0.5760
7.87	-9.7085	-0.2571	-1.6400	0.0136	-0.0063	0.0055	31.5871	16.0367	-6.7166	0.2961	0.6678	0.3669	-0.5760
7.88	-9.7111	-0.2500	-1.6345	0.0212	-0.0066	0.0067	31.5318	16.0005	-7.0262	0.2961	0.6678	0.3669	-0.5760
7.89	-9.7054	-0.2499	-1.6161	0.0136	-0.0061	0.0124	31.7014	16.1280	-6.8058	0.2961	0.6678	0.3669	-0.5760
7.9	-9.7084	-0.2557	-1.6036	0.0098	-0.0191	0.0104	31.6263	15.7189	-7.0198	0.2961	0.6678	0.3669	-0.5760
7.91	-9.7152	-0.2618	-1.5933	0.0145	-0.0115	0.0095	31.6114	15.8726	-6.9891	0.2961	0.6678	0.3669	-0.5760
7.92	-9.7141	-0.2731	-1.5830	0.0072	-0.0084	0.0125	31.6224	16.0607	-7.1034	0.2961	0.6678	0.3670	-0.5760
7.93	-9.7042	-0.2749	-1.5713	0.0092	-0.0158	0.0149	31.6231	15.9199	-7.2035	0.2962	0.6678	0.3670	-0.5760
7.94	-9.7027	-0.2723	-1.5598	0.0185	-0.0194	0.0143	31.6117	15.9260	-6.8694	0.2962	0.6677	0.3669	-0.5760
7.95	-9.7049	-0.2630	-1.5547	0.0182	-0.0139	0.0157	31.6254	15.9111	-7.0901	0.2962	0.6677	0.3669	-0.5760
7.96	-9.7026	-0.2477	-1.5434	0.0110	-0.0196	0.0129	31.6062	15.9476	-7.0787	0.2962	0.6677	0.3669	-0.5760
7.97	-9.7024	-0.2377	-1.5312	0.0157	-0.0100	0.0152	31.6758	15.8241	-6.9053	0.2963	0.6677	0.3669	-0.5760
7.98	-9.7069	-0.2278	-1.5308	0.0139	-0.0122	0.0134	31.8053	16.0317	-7.0323	0.2963	0.6677	0.3669	-0.5760
7.99	-9.7053	-0.2294	-1.5286	0.0218	-0.0121	0.0079	31.6331	16.1110	-7.1484	0.2963	0.6677	0.3669	-0.5760
8	-9.7054	-0.2364	-1.5295	0.0100	-0.0092	0.0116	31.6301	16.0513	-7.2460	0.2963	0.6677	0.3669	-0.5760
8.01	-9.7013	-0.2477	-1.5294	0.0080	-0.0149	0.0072	31.6011	15.8245	-7.0024	0.2963	0.6677	0.3669	-0.5760
8.02	-9.7036	-0.2539	-1.5345	0.0101	-0.0159	0.0104	31.6499	15.8486	-6.9184	0.2963	0.6677	0.3669	-0.5760
8.03	-9.7033	-0.2630	-1.5441	0.0067	-0.0117	0.0095	31.6799	15.8266	-6.9163	0.2963	0.6677	0.3669	-0.5760
8.04	-9.7022	-0.2664	-1.5558	0.0147	-0.0094	0.0049	31.5344	16.1642	-6.9997	0.2963	0.6677	0.3670	-0.5760
8.05	-9.7066	-0.2644	-1.5660	0.0182	-0.0075	0.0043	31.5259	16.0928	-7.1294	0.2963	0.6677	0.3670	-0.5760
8.06	-9.7059	-0.2646	-1.5738	0.0105	-0.0059	0.0098	31.4712	15.8449	-7.2194	0.2963	0.6677	0.3670	-0.5759
8.07	-9.7060	-0.2647	-1.5802	0.0066	-0.0094	0.0108	31.5606	16.0133	-6.7487	0.2963	0.6677	0.3670	-0.5759
8.08	-9.7103	-0.2680	-1.5924	0.0115	-0.0076	0.0067	31.5148	15.9852	-6.9202	0.2963	0.6677	0.3671	-0.5759
8.09	-9.7083	-0.2675	-1.6016	0.0094	-0.0061	0.0079	31.5551	15.9411	-7.0356	0.2963	0.6677	0.3671	-0.5759
8.1	-9.7138	-0.2706	-1.6122	0.0081	-0.0050	0.0106	31.5038	16.1223	-6.7417	0.2964	0.6677	0.3671	-0.5758
8.11	-9.7186	-0.2709	-1.6215	0.0124	-0.0056	0.0094	31.3553	15.8303	-6.8035	0.2964	0.6677	0.3672	-0.5758
8.12	-9.7131	-0.2701	-1.6268	0.0157	-0.0169	0.0147	31.5294	15.7542	-7.0475	0.2964	0.6677	0.3671	-0.5758
8.13	-9.7134	-0.2696	-1.6288	0.0124	-0.0119	0.0110	31.7905	15.8645	-7.0913	0.2964	0.6677	0.3671	-0.5758
8.14	-9.7112	-0.2723	-1.6305	0.0149	-0.0094	0.0114	31.7147	15.8208	-6.9585	0.2964	0.6677	0.3671	-0.5758
8.15	-9.7155	-0.2765	-1.6254	0.0134	-0.0117	0.0090	31.6984	15.9230	-6.8173	0.2964	0.6677	0.3672	-0.5758
8.16	-9.7090	-0.2791	-1.6273	0.0080	-0.0120	0.0076	31.6740	15.8388	-6.9675	0.2964	0.6677	0.3672	-0.5758
8.17	-9.7123	-0.2841	-1.6207	0.0106	-0.0134	0.0090	31.5059	15.8238	-7.1377	0.2965	0.6677	0.3672	-0.5758
8.18	-9.7120	-0.2834	-1.6106	0.0156	-0.0136	0.0089	31.5517	15.8880	-7.1046	0.2965	0.6676	0.3672	-0.5758
8.19	-9.7112	-0.2897	-1.6031	0.0179	-0.0195	0.0084	31.5330	16.0227	-7.0217	0.2965	0.6676	0.3672	-0.5758
8.2	-9.7042	-0.2888	-1.5910	0.0142	-0.0184	0.0088	31.7298	15.8894	-7.0216	0.2965	0.6676	0.3672	-0.5758
8.21	-9.7079	-0.2846	-1.5885	0.0119	-0.0143	0.0135	31.5405	15.9568	-7.1554	0.2965	0.6676	0.3672	-0.5758
8.22	-9.7091	-0.2802	-1.5790	0.0177	-0.0114	0.0107	31.5346	15.8208	-7.0135	0.2965	0.6676	0.3672	-0.5758
8.23	-9.7051	-0.2694	-1.5757	0.0123	-0.0147	0.0108	31.5432	15.9427	-6.9327	0.2965	0.6676	0.3672	-0.5758
8.24	-9.7109	-0.2549	-1.5691	0.0191	-0.0087	0.0087	31.6331	16.0094	-6.9113	0.2965	0.6676	0.3672	-0.5758
8.25	-9.7103	-0.2434	-1.5607	0.0100	-0.0136	0.0096	31.6036	15.8279	-6.7841	0.2965	0.6676	0.3672	-0.5758
8.26	-9.7006	-0.2394	-1.5615	0.0079	-0.0124	0.0147	31.6271	15.8487	-7.0282	0.2966	0.6676	0.3672	-0.5758
8.27	-9.7058	-0.2432	-1.5618	0.0076	-0.0077	0.0114	31.5198	15.8247	-7.1173	0.2966	0.6676	0.3672	-0.5758
8.28	-9.7091	-0.2401	-1.5567	0.0029	-0.0092	0.0123	31.5561	16.0146	-7.1029	0.2966	0.6676	0.3673	-0.5758
8.29	-9.7003	-0.2451	-1.5480	0.0047	-0.0094	0.0072	31.5060	15.9257	-7.1161	0.2967	0.6675	0.3673	-0.5757
8.3	-9.7051	-0.2552	-1.5472	0.0064	-0.0109	0.0064	31.7983	15.9288	-7.0153	0.2967	0.6675	0.3673	-0.5757
8.31	-9.7058	-0.2652	-1.5511	0.0097	-0.0116	0.0163	32.0118	16.0269	-6.8677	0.2967	0.6675	0.3673	-0.5757
8.32	-9.7081	-0.2759	-1.5547	0.0097	-0.0152	0.0107	32.1417	15.9138	-6.8895	0.2968	0.6675	0.3673	-0.5757
8.33	-9.6985	-0.2833	-1.5584	0.0058	-0.0182	0.0128	31.8216	15.9242	-6.9186	0.2968	0.6675	0.3674	-0.5757
8.34	-9.7080	-0.2790	-1.5644	0.0085	-0.0175	0.0125	31.6866	16.1327	-6.9895	0.2969	0.6675	0.3674	-0.5757
8.35	-9.7072	-0.2816	-1.5706	0.0164	-0.0102	0.0154	31.5188	15.8229	-7.3742	0.2969	0.6675	0.3674	-0.5757
8.36	-9.7030	-0.2769	-1.5816	0.0146	-0.0136	0.0135	31.2894	15.6499	-7.2029	0.2969	0.6675	0.3673	-0.5757
8.37	-9.7059	-0.2706	-1.5846	0.0189	-0.0147	0.0100	31.5052	15.8282	-6.9470	0.2969	0.6675	0.3673	-0.5757
8.38	-9.7104	-0.2639	-1.5934	0.0137	-0.0132	0.0105	31.5901	15.7759	-6.9952	0.2969	0.6675	0.3673	-0.5757
8.39	-9.7063	-0.2537	-1.5884	0.0160	-0.0153	0.0087	31.5372	15.8318	-7.3403	0.2969	0.6674	0.3673	-0.5757
8.4	-9.7029	-0.2514	-1.5896	0.0196	-0.0151	0.0100	31.4113	15.9877	-7.5059	0.2969	0.6674	0.3673	-0.5757
8.41	-9.7115	-0.2483	-1.5966	0.0095	-0.0156	0.0057	31.4148	15.8299	-7.0397	0.2969	0.6674	0.3673	-0.5757
8.42	-9.7144	-0.2525	-1.5939	0.0095	-0.0081	0.0087	31.2646	16.0823	-7.1797	0.2969	0.6674	0.3674	-0.5757
8.43	-9.7070	-0.2615	-1.6006	0.0100	-0.0083	0.0129	31.2747	16.0716	-7.0152	0.2969	0.6674	0.3674	-0.5757
8.44	-9.7100	-0.2677	-1.5986	0.0149	-0.0084	0.0120	31.4496	16.0319	-7.0684	0.2969	0.6674	0.3674	-0.5757
8.45	-9.7129	-0.2698	-1.5957	0.0061	-0.0100	0.0101	31.2593	16.0272	-7.1663	0.2970	0.6674	0.3674	-0.5757
8.46	-9.7029	-0.2681	-1.5896	0.0129	-0.0120	0.0048	31.2882	16.0800	-6.8857	0.2970	0.6674	0.3674	-0.5757
8.47	-9.7012	-0.2659	-1.5865	0.0125	-0.0131	0.0087	31.3331	15.8657	-6.8847	0.2970	0.6674	0.3674	-0.5757
8.48	-9.7061	-0.2629	-1.5942	0.0150	-0.0128	0.0106	31.3280	15.9766	-7.1061	0.2970	0.6674	0.3674	-0.5757
8.49	-9.7046	-0.2519	-1.5785	0.0197	-0.0136	0.0144	31.5483	16.2843	-7.0397	0.2970	0.6674	0.3674	-0.5757
8.5	-9.7014	-0.2419	-1.5763	0.0167	-0.0145	0.0085	31.4279	15.9234	-7.1954	0.2970	0.6674	0.3674	-0.5757
8.51	-9.7131	-0.2370	-1.5788	0.0128	-0.0154	0.0092	31.6980	15.7012	-7.2774	0.2970	0.6674	0.3674	-0.5757
8.52	-9.7140	-0.2379	-1.5798	0.0097	-0.0112	0.0111	31.5036	15.7243	-6.9898	0.2970	0.6673	0.3674	-0.5757
8.53	-9.7072	-0.2407	-1.5738	0.0110	-0.0109	0.0095	31.5365	15.8425	-6.9869	0.2970	0.6673	0.3674	-0.5757
8.54	-9.7137	-0.2454	-1.5736	0.0066	-0.0103	0.0088	31.5210	15.9585	-6.9637	0.2971	0.6673	0.3675	-0.5757
8.55	-9.7055	-0.2533	-1.5799	0.0101	-0.0081	0.0069	31.4609	15.9623	-7.0898	0.2971	0.6673	0.3675	-0.5757
8.56	-9.7052	-0.2560	-1.5799	0.0173	-0.0160	0.0138	31.6307	15.8469	-7.1692	0.2971	0.6673	0.3675	-0.5757
8.57	-9.7064	-0.2584	-1.5889	0.0150	-0.0152	0.0128	31.4855	15.9340	-7.1499	0.2971	0.6673	0.3675	-0.5757
8.58	-9.7061	-0.2602	-1.5893	0.0150	-0.0124	0.0129	31.5081	15.9870	-7.1628	0.2971	0.6673	0.3675	-0.5757
8.59	-9.7112	-0.2647	-1.5827	0.0133	-0.0127	0.0102	31.4595	15.9237	-7.1577	0.2971	0.6673	0.3675	-0.5757
8.6	-9.7089	-0.2643	-1.5898	0.0062	-0.0055	0.0070	31.2855	15.8874	-7.0062	0.2971	0.6673	0.3675	-0.5756
8.61	-9.7083	-0.2616	-1.5942	0.0159	-0.0086	0.0119	31.3474	16.0373	-6.9764	0.2971	0.6673	0.3675	-0.5756
8.62	-9.7079	-0.2681	-1.5995	0.0149	-0.0127	0.0111	31.3018	16.0557	-7.0771	0.2972	0.6673	0.3675	-0.5756
8.63	-9.7103	-0.2725	-1.6011	0.0114	-0.0070	0.0100	31.5696	16.0033	-6.9741	0.2972	0.6673	0.3675	-0.5756
8.64	-9.7099	-0.2703	-1.5942	0.0204	-0.0114	0.0170	31.3586	15.9831	-7.1632	0.2972	0.6673	0.3675	-0.5756
8.65	-9.7119	-0.2745	-1.5956	0.0047	-0.0101	0.0104	31.3226	16.0826	-7.1047	0.2972	0.6673	0.3675	-0.5756
8.66	-9.7087	-0.2745	-1.5973	0.0065	-0.0146	0.0081	31.3183	15.9053	-7.1196	0.2972	0.6673	0.3675	-0.5756
8.67	-9.7055	-0.2748	-1.5879	0.0123	-0.0110	0.0097	31.3677	16.1525	-7.1299	0.2972	0.6673	0.3676	-0.5756
8.68	-9.7102	-0.2771	-1.5868	0.0110	-0.0160	0.0132	31.4142	15.9985	-7.1072	0.2973	0.6673	0.3676	-0.5756
8.69	-9.7116	-0.2794	-1.5880	0.0082	-0.0081	0.0096	31.4802	15.8737	-7.0546	0.2973	0.6673	0.3676	-0.5756
8.7	-9.7087	-0.2756	-1.5847	0.0134	-0.0112	0.0103	31.6018	15.7502	-7.2731	0.2973	0.6673	0.3676	-0.5755
8.71	-9.7088	-0.2752	-1.5850	0.0122	-0.0141	0.0144	31.5546	15.7438	-7.0698	0.2973	0.6673	0.3676	-0.5755
8.72	-9.7071	-0.2755	-1.5835	0.0096	-0.0103	0.0096	31.5801	15.8250	-7.0314	0.2974	0.6672	0.3676	-0.5755
8.73	-9.7025	-0.2693	-1.5790	0.0150	-0.0062	0.0135	31.5642	15.7758	-7.2986	0.2974	0.6673	0.3676	-0.5755
8.74	-9.7030	-0.2706	-1.5746	0.0149	-0.0112	0.0129	31.5878	15.9443	-7.1495	0.2974	0.6673	0.3676	-0.5755
8.75	-9.7097	-0.2685	-1.5749	0.0157	-0.0118	0.0080	31.5227	15.9644	-7.0789	0.2974	0.6673	0.3676	-0.5755
8.76	-9.7086	-0.2675	-1.5739	0.0089	-0.0142	0.0148	31.3972	15.9574	-7.3010	0.2974	0.6673	0.3676	-0.5755
8.77	-9.7076	-0.2677	-1.5743	0.0203	-0.0202	0.0128	31.5103	15.9604	-6.8900	0.2974	0.6672	0.3676	-0.5755
8.78	-9.7114	-0.2703	-1.5705	0.0129	-0.0089	0.0132	31.6054	15.9621	-6.9201	0.2974	0.6672	0.3676	-0.5755
8.79	-9.7042	-0.2742	-1.5636	0.0147	-0.0081	0.0107	31.4375	15.9592	-7.0955	0.2974	0.6673	0.3676	-0.5755
8.8	-9.7073	-0.2696	-1.5713	0.0104	-0.0078	0.0045	31.3591	15.9537	-6.9628	0.2974	0.6672	0.3676	-0.5755
8.81	-9.7056	-0.2632	-1.5728	0.0180	-0.0078	0.0098	31.8168	16.0890	-6.8920	0.2974	0.6673	0.3676	-0.5755
8.82	-9.7124	-0.2585	-1.5793	0.0219	-0.0105	0.0084	31.8527	16.0587	-6.8890	0.2974	0.6673	0.3676	-0.5755
8.83	-9.7085	-0.2500	-1.5842	0.0213	-0.0098	0.0132	31.6610	16.1107	-6.7759	0.2974	0.6673	0.3676	-0.5755
8.84	-9.7020	-0.2498	-1.5792	0.0128	-0.0134	0.0125	31.6195	16.4497	-6.9131	0.2974	0.6673	0.3676	-0.5755
8.85	-9.7040	-0.2456	-1.5803	0.0145	-0.0088	0.0085	31.2941	16.1052	-7.2434	0.2974	0.6673	0.3676	-0.5755
8.86	-9.7066	-0.2474	-1.5909	0.0126	-0.0119	0.0110	31.4889	15.9034	-7.1493	0.2974	0.6673	0.3676	-0.5755
8.87	-9.7061	-0.2487	-1.5902	0.0101	-0.0181	0.0112	31.3354	15.8284	-7.1052	0.2974	0.6672	0.3676	-0.5755
8.88	-9.7092	-0.2503	-1.5862	0.0214	-0.0153	0.0107	31.6371	16.0617	-7.1669	0.2974	0.6672	0.3676	-0.5755
8.89	-9.7174	-0.2565	-1.5851	0.0222	-0.0169	0.0086	31.6965	15.9156	-7.2144	0.2974	0.6672	0.3676	-0.5756
8.9	-9.7053	-0.2578	-1.5754	0.0169	-0.0139	0.0082	31.7654	16.0062	-6.9216	0.2974	0.6672	0.3675	-0.5756
8.91	-9.7055	-0.2577	-1.5694	0.0081	-0.0092	0.0119	31.6815	15.9043	-7.0660	0.2974	0.6672	0.3676	-0.5755
8.92	-9.7116	-0.2565	-1.5692	0.0209	-0.0108	0.0161	31.5823	15.8140	-7.0043	0.2974	0.6672	0.3675	-0.5755
8.93	-9.7057	-0.2546	-1.5729	0.0221	-0.0098	0.0113	31.6354	15.8468	-7.1226	0.2974	0.6673	0.3675	-0.5756
8.94	-9.7033	-0.2537	-1.5788	0.0190	-0.0121	0.0204	31.5893	15.8331	-7.0408	0.2974	0.6673	0.3675	-0.5755
8.95	-9.7066	-0.2519	-1.5764	0.0210	-0.0091	0.0106	31.6441	15.8329	-7.0318	0.2974	0.6673	0.3675	-0.5755
8.96	-9.7126	-0.2502	-1.5768	0.0194	-0.0119	0.0123	31.6970	16.0257	-7.2003	0.2974	0.6673	0.3674	-0.5756
8.97	-9.7048	-0.2499	-1.5771	0.0222	-0.0100	0.0140	31.4410	16.1699	-6.9513	0.2974	0.6673	0.3674	-0.5756
8.98	-9.7047	-0.2582	-1.5767	0.0141	-0.0064	0.0067	31.4432	16.1745	-6.9790	0.2974	0.6673	0.3674	-0.5755
8.99	-9.7097	-0.2612	-1.5839	0.0168	-0.0080	0.0096	31.4617	15.8817	-6.9129	0.2973	0.6673	0.3674	-0.5755
9	-9.7074	-0.2752	-1.5908	0.0133	-0.0094	0.0093	31.6044	16.0468	-7.0873	0.2973	0.6673	0.3674	-0.5755
9.01	-9.7058	-0.2790	-1.5924	0.0154	-0.0074	0.0039	31.6805	16.1083	-7.1443	0.2973	0.6673	0.3675	-0.5755
9.02	-9.7037	-0.2838	-1.5950	0.0215	-0.0073	0.0083	31.7275	15.8861	-7.2314	0.2973	0.6673	0.3675	-0.5755
9.03	-9.7124	-0.2810	-1.5994	0.0170	-0.0050	0.0062	31.6192	16.0718	-7.1675	0.2973	0.6674	0.3675	-0.5755
9.04	-9.7098	-0.2787	-1.6007	0.0156	-0.0088	0.0107	31.4281	15.8474	-7.1217	0.2973	0.6674	0.3675	-0.5755
9.05	-9.7057	-0.2793	-1.6003	0.0178	-0.0067	0.0122	31.5426	15.8068	-7.0300	0.2972	0.6674	0.3675	-0.5755
9.06	-9.7167	-0.2707	-1.6036	0.0205	-0.0110	0.0113	31.4317	15.8823	-7.1740	0.2972	0.6674	0.3675	-0.5755
9.07	-9.7114	-0.2678	-1.5974	0.0214	-0.0121	0.0177	31.6329	15.9106	-6.8416	0.2972	0.6674	0.3674	-0.5755
9.08	-9.7010	-0.2639	-1.5891	0.0164	-0.0081	0.0180	31.5210	15.9555	-7.0390	0.2972	0.6674	0.3674	-0.5755
9.09	-9.7050	-0.2629	-1.5903	0.0189	-0.0094	0.0042	31.5452	15.7505	-7.1205	0.2972	0.6674	0.3674	-0.5755
9.1	-9.7104	-0.2632	-1.5851	0.0204	-0.0108	0.0065	31.6463	15.5935	-7.1629	0.2972	0.6674	0.3674	-0.5755
9.11	-9.7029	-0.2600	-1.5753	0.0179	-0.0090	0.0063	31.5768	15.8995	-6.9494	0.2972	0.6674	0.3674	-0.5755
9.12	-9.7056	-0.2575	-1.5730	0.0093	-0.0140	0.0115	31.7255	15.7146	-7.0499	0.2972	0.6674	0.3674	-0.5755
9.13	-9.7097	-0.2553	-1.5632	0.0146	-0.0097	0.0116	31.5465	15.8972	-7.2084	0.2972	0.6674	0.3675	-0.5755
9.14	-9.7083	-0.2561	-1.5613	0.0189	-0.0076	0.0128	31.5770	15.9206	-6.9698	0.2972	0.6674	0.3674	-0.5755
9.15	-9.7095	-0.2557	-1.5546	0.0152	-0.0084	0.0110	31.6176	15.9189	-7.0780	0.2972	0.6674	0.3674	-0.5755
9.16	-9.7100	-0.2507	-1.5506	0.0121	-0.0084	0.0107	31.7068	15.9243	-7.0064	0.2972	0.6675	0.3675	-0.5755
9.17	-9.7046	-0.2477	-1.5446	0.0172	-0.0082	0.0133	31.5385	15.6510	-7.2057	0.2972	0.6675	0.3674	-0.5755
9.18	-9.7037	-0.2430	-1.5428	0.0113	-0.0089	0.0091	31.6014	15.9713	-7.1775	0.2972	0.6675	0.3675	-0.5754
9.19	-9.7050	-0.2406	-1.5456	0.0138	-0.0096	0.0124	31.5382	16.0250	-6.9350	0.2972	0.6675	0.3675	-0.5754
9.2	-9.7046	-0.2361	-1.5405	0.0188	-0.0053	0.0113	31.5213	15.7749	-6.9567	0.2972	0.6675	0.3675	-0.5754
9.21	-9.7052	-0.2290	-1.5526	0.0060	-0.0071	0.0066	31.5338	16.0451	-7.1213	0.2972	0.6675	0.3675	-0.5754
9.22	-9.7091	-0.2313	-1.5547	0.0087	-0.0054	0.0061	31.5438	15.8906	-7.1196	0.2972	0.6675	0.3676	-0.5754
9.23	-9.7114	-0.2307	-1.5693	0.0124	-0.0093	0.0106	31.4396	15.9584	-7.2342	0.2972	0.6675	0.3676	-0.5754
9.24	-9.7086	-0.2356	-1.5749	0.0076	-0.0064	0.0114	31.3553	15.9527	-7.1978	0.2972	0.6675	0.3676	-0.5753
9.25	-9.7086	-0.2448	-1.5886	0.0080	-0.0128	0.0090	31.5934	16.1559	-7.0634	0.2972	0.6675	0.3676	-0.5753
9.26	-9.7121	-0.2580	-1.6056	0.0120	-0.0136	0.0103	31.6173	16.0846	-6.9484	0.2973	0.6675	0.3676	-0.5753
9.27	-9.7105	-0.2703	-1.6225	0.0166	-0.0101	0.0109	31.6980	15.8271	-7.0543	0.2973	0.6675	0.3676	-0.5753
9.28	-9.7116	-0.2809	-1.6226	0.0141	-0.0082	0.0103	31.5621	15.8931	-7.1840	0.2973	0.6675	0.3676	-0.5753
9.29	-9.7130	-0.2902	-1.6281	0.0094	-0.0073	0.0138	31.7255	15.8833	-7.2452	0.2973	0.6675	0.3677	-0.5753
9.3	-9.7055	-0.2974	-1.6285	0.0042	-0.0109	0.0107	31.5698	15.9286	-7.0098	0.2973	0.6675	0.3677	-0.5753
9.31	-9.7067	-0.3001	-1.6275	0.0152	-0.0126	0.0133	31.7980	15.8342	-7.0508	0.2973	0.6675	0.3677	-0.5753
9.32	-9.7132	-0.2994	-1.6276	0.0144	-0.0154	0.0136	31.9785	16.0431	-7.0627	0.2973	0.6674	0.3677	-0.5753
9.33	-9.7133	-0.2988	-1.6242	0.0126	-0.0087	0.0071	31.6309	16.1172	-7.2387	0.2973	0.6674	0.3677	-0.5753
9.34	-9.7123	-0.2936	-1.6187	0.0199	-0.0086	0.0086	31.4116	16.2827	-6.9874	0.2973	0.6675	0.3677	-0.5753
9.35	-9.7121	-0.2916	-1.6117	0.0104	-0.0091	0.0089	31.3669	16.0233	-7.1743	0.2973	0.6674	0.3677	-0.5752
9.36	-9.7099	-0.2888	-1.6131	0.0070	-0.0077	0.0155	31.4684	16.1250	-7.2172	0.2974	0.6674	0.3677	-0.5752
9.37	-9.7072	-0.2900	-1.6044	0.0110	-0.0083	0.0083	31.3041	15.9521	-7.0276	0.2974	0.6674	0.3677	-0.5752
9.38	-9.7098	-0.2897	-1.5956	0.0165	-0.0065	0.0126	31.1702	15.8254	-7.2015	0.2974	0.6675	0.3678	-0.5752
9.39	-9.7091	-0.2823	-1.5857	0.0184	-0.0135	0.0112	31.3386	15.9220	-7.2809	0.2974	0.6675	0.3677	-0.5752
9.4	-9.7021	-0.2795	-1.5774	0.0222	-0.0108	0.0088	31.3515	16.0347	-7.0713	0.2973	0.6675	0.3677	-0.5752
9.41	-9.7017	-0.2731	-1.5675	0.0146	-0.0099	0.0149	31.3146	15.9507	-7.0634	0.2973	0.6675	0.3677	-0.5752
9.42	-9.7009	-0.2673	-1.5527	0.0071	-0.0133	0.0112	31.3914	15.9279	-7.0506	0.2974	0.6675	0.3677	-0.5752
9.43	-9.7059	-0.2611	-1.5492	0.0190	-0.0127	0.0111	31.4056	15.7955	-7.1221	0.2974	0.6675	0.3677	-0.5752
9.44	-9.7084	-0.2559	-1.5419	0.0150	-0.0169	0.0117	31.5851	15.7743	-7.1521	0.2974	0.6674	0.3677	-0.5752
9.45	-9.7018	-0.2558	-1.5313	0.0260	-0.0125	0.0124	31.7824	15.8260	-7.2444	0.2974	0.6675	0.3677	-0.5752
9.46	-9.7078	-0.2485	-1.5343	0.0161	-0.0077	0.0131	31.4279	15.8816	-7.2138	0.2973	0.6675	0.3677	-0.5752
9.47	-9.7051	-0.2453	-1.5319	0.0114	-0.0082	0.0129	31.6909	15.8814	-7.3096	0.2974	0.6675	0.3677	-0.5752
9.48	-9.6999	-0.2431	-1.5279	0.0178	-0.0115	0.0158	31.6372	15.8524	-7.3313	0.2974	0.6675	0.3677	-0.5752
9.49	-9.7032	-0.2410	-1.5260	0.0202	-0.0073	0.0110	31.6043	16.0574	-7.0434	0.2974	0.6675	0.3676	-0.5752
9.5	-9.7062	-0.2414	-1.5391	0.0213	-0.0046	0.0130	31.4596	16.1017	-7.1363	0.2973	0.6675	0.3676	-0.5752
9.51	-9.7051	-0.2435	-1.5415	0.0144	-0.0072	0.0111	31.4088	15.9304	-7.1619	0.2973	0.6676	0.3676	-0.5752
9.52	-9.7048	-0.2437	-1.5506	0.0189	-0.0067	0.0110	31.5031	15.8572	-7.0364	0.2973	0.6676	0.3676	-0.5752
9.53	-9.7100	-0.2455	-1.5550	0.0149	-0.0091	0.0126	31.2585	16.0542	-7.0797	0.2973	0.6676	0.3676	-0.5751
9.54	-9.7034	-0.2461	-1.5617	0.0158	-0.0101	0.0039	31.4514	16.1575	-7.0558	0.2973	0.6676	0.3677	-0.5752
9.55	-9.6998	-0.2497	-1.5694	0.0218	-0.0075	0.0067	31.3190	16.0071	-7.1632	0.2972	0.6676	0.3677	-0.5752
9.56	-9.7092	-0.2537	-1.5873	0.0159	-0.0083	0.0147	31.2455	15.9331	-7.0342	0.2972	0.6676	0.3677	-0.5751
9.57	-9.7071	-0.2545	-1.5968	0.0142	-0.0115	0.0068	31.4462	15.9675	-7.0939	0.2972	0.6676	0.3677	-0.5751
9.58	-9.7069	-0.2598	-1.5980	0.0143	-0.0035	0.0078	31.3200	15.9234	-6.9620	0.2972	0.6676	0.3677	-0.5751
9.59	-9.7098	-0.2621	-1.6065	0.0116	-0.0100	0.0094	31.3661	16.0854	-7.0929	0.2972	0.6676	0.3677	-0.5751
9.6	-9.7166	-0.2638	-1.6174	0.0143	-0.0074	0.0100	31.4163	16.0862	-7.1875	0.2972	0.6676	0.3677	-0.5751
9.61	-9.7146	-0.2673	-1.6218	0.0162	-0.0037	0.0124	31.4957	16.0155	-7.0832	0.2972	0.6676	0.3677	-0.5751
9.62	-9.7108	-0.2791	-1.6274	0.0164	-0.0160	0.0150	31.4066	16.0508	-6.9663	0.2972	0.6676	0.3677	-0.5751
9.63	-9.7088	-0.2792	-1.6244	0.0224	-0.0118	0.0140	31.5512	15.8033	-6.9733	0.2972	0.6676	0.3677	-0.5751
9.64	-9.7006	-0.2754	-1.6086	0.0115	-0.0079	0.0125	31.5456	15.6110	-6.9588	0.2972	0.6676	0.3677	-0.5751
9.65	-9.6995	-0.2771	-1.5971	0.0175	-0.0082	0.0089	31.4790	15.7041	-6.9716	0.2972	0.6676	0.3677	-0.5751
9.66	-9.7034	-0.2787	-1.5875	0.0207	-0.0083	0.0121	31.4195	15.6959	-6.9599	0.2972	0.6676	0.3677	-0.5751
9.67	-9.7107	-0.2798	-1.5752	0.0165	-0.0079	0.0079	31.5457	15.8699	-6.9904	0.2972	0.6677	0.3677	-0.5751
9.68	-9.7114	-0.2779	-1.5710	0.0185	-0.0098	0.0092	31.6086	15.8052	-7.1439	0.2972	0.6677	0.3677	-0.5751
9.69	-9.7100	-0.2715	-1.5618	0.0189	-0.0066	0.0098	31.4975	15.8573	-7.1446	0.2971	0.6677	0.3677	-0.5751
9.7	-9.7100	-0.2737	-1.5598	0.0206	-0.0084	0.0143	31.3959	15.9839	-7.1550	0.2971	0.6677	0.3677	-0.5751
9.71	-9.7107	-0.2703	-1.5606	0.0199	-0.0120	0.0142	31.6086	15.7693	-6.9587	0.2971	0.6677	0.3676	-0.5751
9.72	-9.7059	-0.2690	-1.5686	0.0164	-0.0125	0.0093	31.4459	15.8619	-7.0485	0.2971	0.6677	0.3676	-0.5751
9.73	-9.7007	-0.2647	-1.5706	0.0137	-0.0085	0.0121	31.2356	15.9556	-7.0693	0.2971	0.6677	0.3676	-0.5751
9.74	-9.7037	-0.2584	-1.5782	0.0108	-0.0117	0.0107	31.2599	15.9555	-7.2123	0.2971	0.6677	0.3677	-0.5751
9.75	-9.7030	-0.2648	-1.5875	0.0120	-0.0112	0.0149	31.4993	15.9322	-7.2145	0.2972	0.6677	0.3677	-0.5751
9.76	-9.7044	-0.2700	-1.5987	0.0162	-0.0074	0.0124	31.4220	16.0512	-7.0224	0.2972	0.6677	0.3677	-0.5751
9.77	-9.7163	-0.2778	-1.6094	0.0161	-0.0110	0.0124	31.3367	16.0058	-7.1148	0.2972	0.6677	0.3677	-0.5751
9.78	-9.7146	-0.2856	-1.6148	0.0171	-0.0070	0.0126	31.3020	15.9545	-7.2891	0.2971	0.6677	0.3676	-0.5751
9.79	-9.7131	-0.2862	-1.6238	0.0119	-0.0058	0.0162	31.2799	16.1382	-7.1777	0.2972	0.6677	0.3676	-0.5750
9.8	-9.7204	-0.2838	-1.6216	0.0161	-0.0106	0.0106	31.6087	16.0338	-6.9608	0.2972	0.6677	0.3676	-0.5750
9.81	-9.7123	-0.2753	-1.6160	0.0149	-0.0132	0.0112	31.8086	15.9097	-6.7156	0.2972	0.6677	0.3676	-0.5750
9.82	-9.7058	-0.2670	-1.6045	0.0187	-0.0180	0.0142	31.9131	15.9604	-6.7756	0.2972	0.6677	0.3676	-0.5751
9.83	-9.7049	-0.2551	-1.6039	0.0214	-0.0170	0.0126	31.6007	16.0545	-6.9015	0.2972	0.6677	0.3676	-0.5751
9.84	-9.7042	-0.2465	-1.6032	0.0090	-0.0127	0.0171	31.5520	16.2420	-6.8358	0.2972	0.6677	0.3676	-0.5751
9.85	-9.7036	-0.2373	-1.6022	0.0135	-0.0163	0.0123	31.5540	15.8116	-7.1768	0.2972	0.6677	0.3676	-0.5751
9.86	-9.7090	-0.2370	-1.6016	0.0140	-0.0154	0.0136	31.4620	15.7905	-7.1631	0.2973	0.6677	0.3676	-0.5751
9.87	-9.7126	-0.2403	-1.5913	0.0179	-0.0124	0.0128	31.4235	15.8334	-7.0132	0.2973	0.6677	0.3675	-0.5751
9.88	-9.7112	-0.2413	-1.5937	0.0170	-0.0134	0.0127	31.5761	16.0802	-7.0418	0.2973	0.6677	0.3675	-0.5751
9.89	-9.7132	-0.2456	-1.5856	0.0176	-0.0137	0.0111	31.6052	15.8205	-7.0448	0.2973	0.6677	0.3675	-0.5751
9.9	-9.7120	-0.2441	-1.5739	0.0159	-0.0230	0.0141	31.6161	15.7595	-6.9389	0.2973	0.6676	0.3675	-0.5752
9.91	-9.7031	-0.2455	-1.5735	0.0154	-0.0123	0.0113	31.4902	16.1639	-7.0584	0.2973	0.6676	0.3675	-0.5752
9.92	-9.6998	-0.2468	-1.5653	0.0090	-0.0065	0.0036	31.4451	15.8746	-6.8720	0.2973	0.6676	0.3675	-0.5752
9.93	-9.7103	-0.2405	-1.5676	0.0168	-0.0173	0.0092	31.5793	16.0129	-6.9038	0.2973	0.6676	0.3675	-0.5752
9.94	-9.7059	-0.2429	-1.5659	0.0156	-0.0164	0.0156	31.3289	15.8935	-7.0609	0.2973	0.6676	0.3675	-0.5752
9.95	-9.7010	-0.2426	-1.5716	0.0195	-0.0085	0.0135	31.3925	15.9395	-7.0264	0.2973	0.6676	0.3675	-0.5752
9.96	-9.7046	-0.2375	-1.5746	0.0148	-0.0094	0.0156	31.2928	16.0012	-6.8812	0.2973	0.6676	0.3675	-0.5752
9.97	-9.7113	-0.2459	-1.5755	0.0057	-0.0067	0.0125	31.3221	16.0065	-6.8584	0.2973	0.6676	0.3675	-0.5752
9.98	-9.7074	-0.2470	-1.5807	0.0173	-0.0169	0.0103	31.4746	15.8773	-6.9485	0.2973	0.6676	0.3675	-0.5752
9.99	-9.7032	-0.2544	-1.5836	0.0163	-0.0177	0.0113	31.4124	15.9776	-6.9715	0.2974	0.6676	0.3675	-0.5752
10	-9.7098	-0.2575	-1.5851	0.0190	-0.0098	0.0150	31.6884	15.9205	-6.8916	0.2974	0.6676	0.3675	-0.5752
10.01	-9.7138	-0.2640	-1.5826	0.0140	-0.0162	0.0120	31.6054	15.6455	-7.1563	0.2974	0.6676	0.3675	-0.5752
10.02	-9.7063	-0.2721	-1.5752	0.0113	-0.0167	0.0081	31.5206	15.6575	-6.9423	0.2974	0.6675	0.3675	-0.5752
10.03	-9.7100	-0.2784	-1.5706	0.0124	-0.0106	0.0118	31.6286	15.5710	-6.8780	0.2974	0.6675	0.3675	-0.5752
10.04	-9.7110	-0.2791	-1.5725	0.0185	-0.0194	0.0154	31.5937	15.8347	-6.9039	0.2974	0.6675	0.3675	-0.5753
10.05	-9.7070	-0.2776	-1.5684	0.0194	-0.0113	0.0119	31.5200	15.8462	-6.8269	0.2974	0.6675	0.3674	-0.5753
10.06	-9.7032	-0.2788	-1.5602	0.0134	-0.0116	0.0156	31.5189	15.6837	-6.9968	0.2974	0.6675	0.3674	-0.5753
10.07	-9.7023	-0.2776	-1.5591	0.0210	-0.0131	0.0144	31.5225	15.8861	-7.0871	0.2974	0.6675	0.3674	-0.5753
10.08	-9.6991	-0.2785	-1.5675	0.0181	-0.0147	0.0083	31.5858	15.9166	-7.1496	0.2974	0.6675	0.3674	-0.5753
10.09	-9.7014	-0.2796	-1.5771	0.0214	-0.0157	0.0104	31.6412	15.9398	-7.0891	0.2974	0.6675	0.3674	-0.5753
10.1	-9.7083	-0.2749	-1.5819	0.0128	-0.0143	0.0090	31.5229	16.1220	-7.0316	0.2974	0.6675	0.3674	-0.5753
10.11	-9.7118	-0.2787	-1.5890	0.0129	-0.0069	0.0014	31.3866	15.8164	-7.0316	0.2974	0.6675	0.3674	-0.5753
10.12	-9.7038	-0.2769	-1.5850	0.0093	-0.0090	0.0048	31.6353	15.8381	-7.0432	0.2974	0.6675	0.3675	-0.5753
10.13	-9.7066	-0.2838	-1.5817	0.0166	-0.0098	0.0160	31.5863	15.8350	-7.0004	0.2974	0.6675	0.3675	-0.5753
10.14	-9.7096	-0.2811	-1.5811	0.0233	-0.0079	0.0127	31.4493	15.9958	-6.9354	0.2974	0.6675	0.3674	-0.5753
10.15	-9.7043	-0.2778	-1.5785	0.0159	-0.0075	0.0068	31.4385	15.9797	-6.9467	0.2973	0.6675	0.3674	-0.5753
10.16	-9.7032	-0.2677	-1.5813	0.0174	-0.0077	0.0159	31.4385	16.1111	-7.0644	0.2973	0.6675	0.3674	-0.5753
10.17	-9.7036	-0.2570	-1.5746	0.0181	-0.0106	0.0095	31.3281	15.8901	-7.0073	0.2973	0.6675	0.3674	-0.5753
10.18	-9.7054	-0.2486	-1.5728	0.0156	-0.0154	0.0087	31.4217	16.0348	-7.1299	0.2973	0.6675	0.3674	-0.5753
10.19	-9.7037	-0.2425	-1.5731	0.0196	-0.0090	0.0128	31.5320	16.1138	-7.0467	0.2973	0.6675	0.3674	-0.5753
10.2	-9.7077	-0.2425	-1.5735	0.0186	-0.0140	0.0123	31.6092	15.8444	-6.8106	0.2973	0.6675	0.3674	-0.5754
10.21	-9.7150	-0.2448	-1.5835	0.0227	-0.0146	0.0155	31.4580	15.8320	-7.2297	0.2973	0.6675	0.3674	-0.5754
10.22	-9.7124	-0.2457	-1.5823	0.0217	-0.0158	0.0102	31.7061	15.8312	-7.1123	0.2973	0.6675	0.3673	-0.5754
10.23	-9.7081	-0.2486	-1.5748	0.0158	-0.0153	0.0125	31.5809	15.9175	-7.1393	0.2973	0.6675	0.3673	-0.5754
10.24	-9.7115	-0.2483	-1.5841	0.0165	-0.0157	0.0100	31.5241	15.9304	-6.9401	0.2973	0.6675	0.3673	-0.5754
10.25	-9.7067	-0.2492	-1.5786	0.0153	-0.0134	0.0125	31.6502	15.8627	-6.8461	0.2973	0.6675	0.3673	-0.5755
10.26	-9.7025	-0.2485	-1.5809	0.0152	-0.0116	0.0063	31.4969	15.7405	-7.1711	0.2973	0.6675	0.3673	-0.5755
10.27	-9.7056	-0.2447	-1.5826	0.0165	-0.0160	0.0095	31.5547	15.9379	-6.9715	0.2973	0.6675	0.3673	-0.5755
10.28	-9.7030	-0.2452	-1.5769	0.0136	-0.0240	0.0102	31.4584	15.9198	-6.9634	0.2973	0.6674	0.3673	-0.5755
10.29	-9.7040	-0.2446	-1.5870	0.0086	-0.0179	0.0036	31.4465	15.8793	-6.8776	0.2974	0.6674	0.3673	-0.5756
10.3	-9.7046	-0.2502	-1.5826	0.0172	-0.0137	0.0054	31.4017	16.0446	-6.7741	0.2973	0.6673	0.3674	-0.5756
10.31	-9.7108	-0.2599	-1.5916	0.0183	-0.0108	0.0140	31.6245	16.0220	-6.7511	0.2973	0.6673	0.3673	-0.5756
10.32	-9.7088	-0.2632	-1.5931	0.0108	-0.0097	0.0158	31.7836	15.9783	-6.7177	0.2974	0.6674	0.3673	-0.5756
10.33	-9.7036	-0.2746	-1.5910	0.0153	-0.0148	0.0080	31.4225	16.0654	-7.0140	0.2974	0.6673	0.3673	-0.5756
10.34	-9.7106	-0.2855	-1.5877	0.0214	-0.0120	0.0056	31.4555	16.3039	-7.0364	0.2973	0.6673	0.3673	-0.5756
10.35	-9.7094	-0.2890	-1.5753	0.0170	-0.0108	0.0114	31.3542	16.2259	-6.9308	0.2973	0.6673	0.3673	-0.5756
10.36	-9.7046	-0.2885	-1.5689	0.0163	-0.0147	0.0107	31.4928	15.8304	-7.0366	0.2973	0.6673	0.3673	-0.5756
10.37	-9.7090	-0.2894	-1.5662	0.0214	-0.0099	0.0108	31.2066	15.8140	-7.0677	0.2973	0.6673	0.3673	-0.5756
10.38	-9.7133	-0.2819	-1.5668	0.0204	-0.0087	0.0136	31.6690	15.7496	-7.1300	0.2973	0.6673	0.3673	-0.5756
10.39	-9.7034	-0.2788	-1.5647	0.0231	-0.0182	0.0131	31.5771	15.8595	-7.1767	0.2973	0.6673	0.3673	-0.5757
10.4	-9.7021	-0.2706	-1.5682	0.0209	-0.0123	0.0118	31.4829	15.5851	-7.2528	0.2973	0.6673	0.3672	-0.5757
10.41	-9.7106	-0.2657	-1.5749	0.0127	-0.0095	0.0108	31.6138	15.6862	-7.0874	0.2973	0.6673	0.3673	-0.5757
10.42	-9.7112	-0.2601	-1.5725	0.0166	-0.0137	0.0155	31.5881	15.8771	-6.9067	0.2973	0.6673	0.3672	-0.5757
10.43	-9.7017	-0.2612	-1.5725	0.0241	-0.0106	0.0085	31.5521	15.5691	-7.2788	0.2973	0.6673	0.3672	-0.5757
10.44	-9.7067	-0.2554	-1.5835	0.0210	-0.0070	0.0128	31.4280	15.7216	-7.3281	0.2972	0.6674	0.3672	-0.5757
10.45	-9.7117	-0.2603	-1.5856	0.0189	-0.0073	0.0139	31.4246	15.7154	-7.1811	0.2972	0.6674	0.3672	-0.5757
10.46	-9.7053	-0.2570	-1.5778	0.0177	-0.0157	0.0107	31.4678	15.8083	-6.9232	0.2972	0.6674	0.3672	-0.5757
10.47	-9.7080	-0.2552	-1.5854	0.0134	-0.0115	0.0090	31.5452	15.8204	-7.1128	0.2972	0.6674	0.3672	-0.5757
10.48	-9.7112	-0.2468	-1.5923	0.0069	-0.0135	0.0113	31.3242	16.0895	-7.2518	0.2973	0.6673	0.3672	-0.5757
10.49	-9.7102	-0.2420	-1.5905	0.0161	-0.0141	0.0121	31.3602	15.9724	-7.0995	0.2973	0.6673	0.3672	-0.5757
10.5	-9.7080	-0.2365	-1.5851	0.0229	-0.0096	0.0108	31.3358	15.9766	-6.9683	0.2972	0.6673	0.3672	-0.5757
10.51	-9.7120	-0.2260	-1.5831	0.0172	-0.0166	0.0136	31.4148	16.1540	-7.0518	0.2973	0.6673	0.3672	-0.5758
10.52	-9.7084	-0.2270	-1.5778	0.0149	-0.0134	0.0064	31.4605	15.9796	-7.0567	0.2972	0.6673	0.3672	-0.5758
10.53	-9.7045	-0.2290	-1.5746	0.0156	-0.0133	0.0111	31.5032	16.1204	-7.2142	0.2972	0.6673	0.3672	-0.5758
10.54	-9.7038	-0.2322	-1.5703	0.0156	-0.0122	0.0117	31.3261	16.0395	-6.9541	0.2973	0.6673	0.3672	-0.5758
10.55	-9.7099	-0.2394	-1.5756	0.0135	-0.0073	0.0106	31.4353	16.0476	-7.0873	0.2973	0.6673	0.3672	-0.5758
10.56	-9.7058	-0.2473	-1.5752	0.0220	-0.0173	0.0119	31.4382	15.8726	-6.9840	0.2972	0.6673	0.3672	-0.5758
10.57	-9.7035	-0.2562	-1.5690	0.0161	-0.0136	0.0116	31.3965	15.7589	-7.0478	0.2972	0.6673	0.3671	-0.5758
10.58	-9.7080	-0.2622	-1.5690	0.0161	-0.0117	0.0118	31.5914	15.7902	-7.2402	0.2973	0.6673	0.3671	-0.5758
10.59	-9.7056	-0.2643	-1.5668	0.0158	-0.0117	0.0055	31.6960	15.9071	-7.3295	0.2972	0.6673	0.3672	-0.5758
10.6	-9.7009	-0.2677	-1.5660	0.0133	-0.0204	0.0086	31.3996	15.8062	-7.2487	0.2973	0.6672	0.3672	-0.5759
10.61	-9.7101	-0.2711	-1.5696	0.0176	-0.0185	0.0103	31.5124	15.8414	-7.0185	0.2973	0.6672	0.3671	-0.5759
10.62	-9.7088	-0.2759	-1.5707	0.0175	-0.0122	0.0116	31.5021	15.8829	-7.0667	0.2973	0.6672	0.3671	-0.5759
10.63	-9.7014	-0.2755	-1.5732	0.0139	-0.0146	0.0127	31.4227	15.8736	-7.0321	0.2973	0.6672	0.3671	-0.5759
10.64	-9.7057	-0.2780	-1.5791	0.0184	-0.0161	0.0098	31.4064	16.0010	-6.9089	0.2973	0.6672	0.3671	-0.5759
10.65	-9.7082	-0.2891	-1.5798	0.0214	-0.0132	0.0146	31.5192	15.8525	-7.1347	0.2973	0.6672	0.3671	-0.5759
10.66	-9.7041	-0.2875	-1.5886	0.0093	-0.0128	0.0136	31.4944	15.8853	-7.2340	0.2973	0.6672	0.3671	-0.5759
10.67	-9.7073	-0.2871	-1.5851	0.0114	-0.0166	0.0129	31.5548	16.1141	-6.9589	0.2973	0.6672	0.3671	-0.5760
10.68	-9.7108	-0.2911	-1.5916	0.0149	-0.0153	0.0114	31.3523	16.1120	-6.9836	0.2973	0.6672	0.3671	-0.5760
10.69	-9.7088	-0.2916	-1.5912	0.0209	-0.0070	0.0081	31.4296	16.1365	-6.9499	0.2973	0.6672	0.3671	-0.5760
10.7	-9.7032	-0.2893	-1.5853	0.0188	-0.0075	0.0091	31.5023	15.7730	-7.1006	0.2973	0.6672	0.3671	-0.5760
10.71	-9.7092	-0.2874	-1.5919	0.0138	-0.0082	0.0064	31.4276	15.8582	-7.1287	0.2973	0.6672	0.3671	-0.5760
10.72	-9.7065	-0.2849	-1.5873	0.0201	-0.0080	0.0138	31.3513	16.0810	-7.2213	0.2973	0.6672	0.3671	-0.5760
10.73	-9.7051	-0.2769	-1.5863	0.0150	-0.0124	0.0074	31.4573	15.9042	-7.2358	0.2973	0.6672	0.3671	-0.5760
10.74	-9.7037	-0.2742	-1.5845	0.0220	-0.0167	0.0081	31.6070	15.8995	-7.0809	0.2972	0.6672	0.3671	-0.5760
10.75	-9.7138	-0.2682	-1.5843	0.0174	-0.0214	0.0135	31.2651	15.9672	-7.0275	0.2972	0.6671	0.3671	-0.5760
10.76	-9.7139	-0.2620	-1.5858	0.0201	-0.0159	0.0173	31.5535	15.9525	-7.1472	0.2973	0.6672	0.3670	-0.5761
10.77	-9.7061	-0.2605	-1.5823	0.0178	-0.0165	0.0123	31.5665	15.8499	-7.2265	0.2973	0.6671	0.3670	-0.5761
10.78	-9.7095	-0.2539	-1.5933	0.0157	-0.0158	0.0149	31.5356	15.9031	-7.2390	0.2973	0.6671	0.3670	-0.5761
10.79	-9.7098	-0.2578	-1.5888	0.0137	-0.0094	0.0057	31.6213	15.7788	-7.1539	0.2973	0.6671	0.3670	-0.5761
10.8	-9.7065	-0.2545	-1.5862	0.0163	-0.0105	0.0135	31.6289	15.8929	-6.9588	0.2973	0.6671	0.3670	-0.5761
10.81	-9.7067	-0.2542	-1.5863	0.0165	-0.0133	0.0156	32.0746	15.9648	-6.7808	0.2973	0.6671	0.3670	-0.5761
10.82	-9.7146	-0.2560	-1.5857	0.0175	-0.0103	0.0139	31.9110	15.8936	-6.7275	0.2973	0.6671	0.3670	-0.5761
10.83	-9.7099	-0.2479	-1.5825	0.0172	-0.0118	0.0105	31.2955	16.0788	-6.9059	0.2973	0.6671	0.3670	-0.5761
10.84	-9.7092	-0.2472	-1.5778	0.0209	-0.0149	0.0143	31.5386	16.3567	-6.9594	0.2973	0.6672	0.3669	-0.5761
10.85	-9.7100	-0.2414	-1.5764	0.0204	-0.0149	0.0149	31.4188	16.0002	-6.9264	0.2973	0.6672	0.3669	-0.5761
10.86	-9.7113	-0.2397	-1.5766	0.0188	-0.0158	0.0147	31.5326	15.8987	-7.0670	0.2973	0.6672	0.3669	-0.5761
10.87	-9.7114	-0.2412	-1.5767	0.0201	-0.0073	0.0034	31.4680	15.8289	-7.2764	0.2972	0.6672	0.3669	-0.5762
10.88	-9.7088	-0.2354	-1.5762	0.0150	-0.0091	0.0104	31.2176	15.7435	-7.0173	0.2972	0.6672	0.3669	-0.5762
10.89	-9.7018	-0.2379	-1.5780	0.0139	-0.0169	0.0118	31.5716	15.8598	-6.9826	0.2972	0.6671	0.3669	-0.5762
10.9	-9.7014	-0.2429	-1.5742	0.0145	-0.0149	0.0150	31.6270	15.8688	-7.0638	0.2973	0.6671	0.3669	-0.5762
10.91	-9.7053	-0.2423	-1.5773	0.0111	-0.0129	0.0120	31.5256	16.1435	-7.0327	0.2973	0.6671	0.3669	-0.5762
10.92	-9.7090	-0.2470	-1.5815	0.0132	-0.0113	0.0091	31.6227	16.0091	-7.0532	0.2973	0.6671	0.3669	-0.5762
10.93	-9.7062	-0.2519	-1.5824	0.0112	-0.0214	0.0165	31.4416	15.8156	-7.2581	0.2973	0.6671	0.3669	-0.5762
10.94	-9.7102	-0.2568	-1.5819	0.0144	-0.0167	0.0119	31.4482	15.8452	-6.9413	0.2974	0.6671	0.3669	-0.5762
10.95	-9.7110	-0.2669	-1.5850	0.0208	-0.0152	0.0171	31.6545	15.8110	-6.8414	0.2974	0.6671	0.3668	-0.5762
10.96	-9.7079	-0.2619	-1.5883	0.0063	-0.0099	0.0084	31.7038	15.8915	-7.0351	0.2974	0.6671	0.3669	-0.5762
10.97	-9.7066	-0.2593	-1.5794	0.0145	-0.0152	0.0030	31.6877	15.9351	-7.0455	0.2974	0.6670	0.3669	-0.5762
10.98	-9.7078	-0.2557	-1.5772	0.0114	-0.0139	0.0101	31.6188	15.8240	-6.9312	0.2974	0.6670	0.3669	-0.5762
10.99	-9.7078	-0.2553	-1.5778	0.0093	-0.0210	0.0097	31.3417	15.9431	-7.2381	0.2974	0.6670	0.3669	-0.5762
11	-9.7077	-0.2494	-1.5802	0.0174	-0.0165	0.0076	31.4999	15.8867	-7.1445	0.2974	0.6670	0.3669	-0.5763
11.01	-9.7044	-0.2527	-1.5816	0.0125	-0.0163	0.0114	31.5429	16.0113	-7.1278	0.2974	0.6670	0.3669	-0.5763
11.02	-9.7097	-0.2568	-1.5814	0.0203	-0.0155	0.0064	31.5444	15.8925	-7.1180	0.2974	0.6669	0.3669	-0.5763
11.03	-9.7032	-0.2562	-1.5898	0.0089	-0.0147	0.0087	31.6181	15.9350	-6.9931	0.2974	0.6669	0.3669	-0.5763
11.04	-9.7018	-0.2597	-1.5831	0.0134	-0.0110	0.0115	31.4125	15.8779	-6.8534	0.2974	0.6669	0.3669	-0.5763
11.05	-9.7092	-0.2638	-1.5798	0.0091	-0.0078	0.0112	31.4756	16.1117	-6.9762	0.2975	0.6669	0.3670	-0.5763
11.06	-9.7084	-0.2648	-1.5830	0.0127	-0.0122	0.0048	31.5206	16.1596	-7.0574	0.2975	0.6669	0.3670	-0.5763
11.07	-9.7019	-0.2695	-1.5767	0.0150	-0.0176	0.0062	31.3943	15.8178	-6.8614	0.2974	0.6669	0.3670	-0.5763
11.08	-9.7042	-0.2710	-1.5797	0.0152	-0.0071	0.0119	31.6144	15.8993	-6.8587	0.2974	0.6669	0.3670	-0.5763
11.09	-9.7087	-0.2749	-1.5809	0.0161	-0.0102	0.0095	31.5216	16.1236	-6.9780	0.2974	0.6669	0.3670	-0.5763
11.1	-9.7035	-0.2749	-1.5782	0.0096	-0.0134	0.0117	31.5171	15.9068	-6.9436	0.2975	0.6669	0.3670	-0.5763
11.11	-9.7050	-0.2766	-1.5787	0.0227	-0.0130	0.0099	31.5872	16.1927	-7.2344	0.2974	0.6669	0.3670	-0.5763
11.12	-9.7128	-0.2778	-1.5812	0.0142	-0.0152	0.0131	31.7138	15.9849	-7.1174	0.2974	0.6669	0.3670	-0.5763
11.13	-9.7104	-0.2788	-1.5879	0.0195	-0.0097	0.0132	31.5711	15.6944	-7.0203	0.2974	0.6669	0.3670	-0.5763
11.14	-9.7076	-0.2802	-1.5976	0.0127	-0.0129	0.0071	31.6702	15.9540	-7.0257	0.2974	0.6669	0.3670	-0.5763
11.15	-9.7140	-0.2868	-1.5997	0.0173	-0.0113	0.0121	31.7150	15.8308	-7.1263	0.2974	0.6669	0.3670	-0.5763
11.16	-9.7073	-0.2834	-1.5977	0.0220	-0.0071	0.0145	31.5807	15.8369	-7.0200	0.2974	0.6669	0.3670	-0.5763
11.17	-9.7068	-0.2827	-1.6043	0.0117	-0.0155	0.0129	31.7729	15.7025	-6.9134	0.2974	0.6669	0.3670	-0.5763
11.18	-9.7091	-0.2773	-1.6050	0.0083	-0.0221	0.0152	31.7169	15.8764	-6.9965	0.2975	0.6669	0.3670	-0.5763
11.19	-9.7081	-0.2741	-1.6098	0.0159	-0.0179	0.0106	31.6181	16.0217	-7.1728	0.2975	0.6668	0.3670	-0.5763
11.2	-9.7082	-0.2738	-1.6030	0.0159	-0.0077	0.0161	31.4770	16.0869	-6.9584	0.2975	0.6669	0.3669	-0.5763
11.21	-9.7056	-0.2759	-1.5964	0.0191	-0.0160	0.0142	31.4811	15.8967	-7.0484	0.2975	0.6669	0.3669	-0.5763
11.22	-9.7092	-0.2732	-1.5886	0.0235	-0.0066	0.0108	31.5632	15.7646	-7.1787	0.2975	0.6669	0.3669	-0.5763
11.23	-9.7072	-0.2701	-1.5860	0.0159	-0.0097	0.0102	31.5032	16.0844	-6.8333	0.2975	0.6669	0.3669	-0.5763
11.24	-9.7095	-0.2658	-1.5768	0.0148	-0.0115	0.0105	31.5455	15.8693	-6.8506	0.2975	0.6669	0.3669	-0.5763
11.25	-9.7083	-0.2618	-1.5730	0.0145	-0.0082	0.0090	31.4915	15.9282	-6.7316	0.2975	0.6669	0.3669	-0.5763
11.26	-9.7052	-0.2552	-1.5674	0.0136	-0.0119	0.0122	31.6288	16.0408	-6.9482	0.2975	0.6669	0.3669	-0.5763
11.27	-9.7036	-0.2512	-1.5652	0.0219	-0.0128	0.0131	31.5824	15.7819	-6.9899	0.2975	0.6669	0.3669	-0.5763
11.28	-9.7054	-0.2435	-1.5626	0.0152	-0.0080	0.0109	31.3776	15.9943	-7.0104	0.2975	0.6669	0.3669	-0.5763
11.29	-9.7122	-0.2460	-1.5640	0.0020	-0.0039	0.0113	31.3295	15.7731	-6.9393	0.2975	0.6669	0.3670	-0.5762
11.3	-9.7082	-0.2416	-1.5576	0.0112	-0.0122	0.0137	31.7065	16.0554	-6.9476	0.2975	0.6669	0.3670	-0.5762
11.31	-9.7075	-0.2416	-1.5605	0.0186	-0.0142	0.0150	32.1612	16.0591	-6.8551	0.2975	0.6669	0.3669	-0.5762
11.32	-9.7088	-0.2439	-1.5607	0.0176	-0.0116	0.0128	32.2656	15.9074	-6.8361	0.2975	0.6670	0.3669	-0.5762
11.33	-9.7026	-0.2468	-1.5587	0.0114	-0.0137	0.0093	31.7337	15.9752	-6.8918	0.2975	0.6669	0.3669	-0.5762
11.34	-9.7081	-0.2487	-1.5652	0.0135	-0.0125	0.0145	31.5241	16.1116	-7.1011	0.2975	0.6670	0.3669	-0.5762
11.35	-9.7064	-0.2559	-1.5642	0.0076	-0.0208	0.0114	31.5388	16.0284	-7.1568	0.2975	0.6669	0.3669	-0.5763
11.36	-9.7070	-0.2592	-1.5716	0.0131	-0.0126	0.0108	31.4718	15.8945	-6.8628	0.2976	0.6669	0.3669	-0.5762
11.37	-9.7081	-0.2579	-1.5770	0.0119	-0.0102	0.0128	31.6188	15.7880	-7.0799	0.2976	0.6669	0.3669	-0.5762
11.38	-9.7043	-0.2562	-1.5728	0.0130	-0.0124	0.0147	31.4387	15.8248	-7.0215	0.2976	0.6669	0.3669	-0.5762
11.39	-9.7076	-0.2544	-1.5799	0.0193	-0.0130	0.0173	31.3063	15.9090	-6.8007	0.2976	0.6669	0.3669	-0.5762
11.4	-9.7120	-0.2542	-1.5811	0.0132	-0.0162	0.0156	31.6525	15.8116	-6.7607	0.2976	0.6669	0.3669	-0.5762
11.41	-9.7092	-0.2512	-1.5882	0.0042	-0.0089	0.0123	31.2483	15.7699	-7.1385	0.2977	0.6669	0.3669	-0.5762
11.42	-9.7112	-0.2551	-1.5962	0.0170	-0.0088	0.0105	31.2255	15.9889	-6.8277	0.2976	0.6669	0.3669	-0.5762
11.43	-9.7116	-0.2598	-1.5939	0.0097	-0.0092	0.0060	31.4236	16.0273	-6.9100	0.2976	0.6669	0.3670	-0.5762
11.44	-9.7097	-0.2691	-1.5939	0.0086	-0.0069	0.0042	31.5249	15.8352	-7.0901	0.2976	0.6669	0.3670	-0.5761
11.45	-9.7041	-0.2732	-1.5931	0.0100	-0.0111	0.0102	31.3614	16.2395	-6.9618	0.2976	0.6669	0.3670	-0.5761
11.46	-9.7049	-0.2717	-1.5925	0.0042	-0.0121	0.0113	31.3963	16.1461	-6.9670	0.2977	0.6669	0.3671	-0.5761
11.47	-9.7060	-0.2773	-1.5947	0.0124	-0.0070	0.0078	31.3611	16.1350	-6.7852	0.2977	0.6669	0.3671	-0.5761
11.48	-9.7053	-0.2784	-1.5893	0.0101	-0.0122	0.0098	31.3369	16.0245	-6.9063	0.2977	0.6669	0.3671	-0.5761
11.49	-9.7108	-0.2787	-1.5843	0.0147	-0.0147	0.0110	31.3208	16.0793	-6.9003	0.2977	0.6669	0.3671	-0.5761
11.5	-9.7040	-0.2736	-1.5783	0.0160	-0.0097	0.0117	31.4378	16.1379	-6.8727	0.2977	0.6669	0.3671	-0.5761
