time	acceleration_x	acceleration_y	acceleration_z	gyroscope_x	gyroscope_y	gyroscope_z	magnetometer_x	magnetometer_y	magnetometer_z	quaternion_w	quaternion_x	quaternion_y	quaternion_z
0	-9.6047	-0.0159	-0.7102	-0.0034	0.0030	-0.0329	29.3077	21.6234	-15.3893	-0.3492	-0.6235	-0.3949	0.5774
0.01	-9.5916	-0.0126	-0.7296	0.0054	0.0017	-0.0387	29.2766	21.4318	-15.2988	-0.3492	-0.6235	-0.3948	0.5774
0.02	-9.5834	-0.0049	-0.7150	0.0062	0.0076	-0.0411	29.5854	21.4141	-15.3508	-0.3492	-0.6235	-0.3948	0.5774
0.03	-9.5890	0.0096	-0.7246	0.0043	0.0099	-0.0395	29.3327	21.4007	-15.2091	-0.3492	-0.6235	-0.3947	0.5773
0.04	-9.6124	0.0251	-0.7315	0.0029	0.0224	-0.0470	29.3559	21.5324	-15.2614	-0.3492	-0.6237	-0.3948	0.5773
0.05	-9.6277	0.0374	-0.7398	0.0049	0.0173	-0.0463	29.6364	21.3118	-15.3051	-0.3492	-0.6237	-0.3948	0.5772
0.06	-9.6361	0.0506	-0.7434	0.0141	0.0117	-0.0422	29.5487	21.4186	-15.1629	-0.3492	-0.6238	-0.3948	0.5772
0.07	-9.6457	0.0618	-0.7424	0.0044	0.0134	-0.0480	29.4244	21.3134	-15.4511	-0.3491	-0.6238	-0.3948	0.5771
0.08	-9.6482	0.0629	-0.7507	0.0028	0.0113	-0.0474	29.5452	21.3495	-15.3781	-0.3491	-0.6239	-0.3948	0.5771
0.09	-9.6422	0.0529	-0.7552	0.0055	0.0097	-0.0499	29.3606	21.4373	-15.2679	-0.3491	-0.6239	-0.3948	0.5771
0.1	-9.6415	0.0409	-0.7571	-0.0111	0.0131	-0.0557	29.9787	21.4082	-15.1223	-0.3490	-0.6239	-0.3948	0.5770
0.11	-9.6420	0.0427	-0.7712	-0.0118	0.0170	-0.0519	30.1759	21.4200	-15.1348	-0.3490	-0.6240	-0.3948	0.5771
0.12	-9.6448	0.0466	-0.7674	-0.0084	0.0181	-0.0509	29.5337	21.5043	-15.5032	-0.3490	-0.6240	-0.3949	0.5770
0.13	-9.6577	0.0472	-0.7612	-0.0024	0.0065	-0.0504	29.3125	21.6906	-15.4210	-0.3490	-0.6240	-0.3949	0.5770
0.14	-9.6608	0.0520	-0.7673	-0.0127	0.0079	-0.0523	29.1110	21.6470	-15.3950	-0.3490	-0.6239	-0.3949	0.5768
0.15	-9.6475	0.0326	-0.7677	-0.0114	0.0054	-0.0581	29.3555	21.6492	-15.2716	-0.3491	-0.6240	-0.3950	0.5769
0.16	-9.6443	0.0268	-0.7630	-0.0122	0.0029	-0.0567	29.3896	21.8038	-15.3274	-0.3491	-0.6239	-0.3951	0.5768
0.17	-9.6282	0.0175	-0.7598	-0.0125	0.0065	-0.0660	29.3631	21.5472	-15.2023	-0.3491	-0.6239	-0.3952	0.5768
0.18	-9.6255	0.0172	-0.7533	-0.0100	0.0080	-0.0623	29.4019	21.5782	-15.2046	-0.3491	-0.6239	-0.3953	0.5768
0.19	-9.6160	0.0237	-0.7515	-0.0045	0.0034	-0.0632	29.1979	21.6343	-15.1922	-0.3490	-0.6238	-0.3954	0.5768
0.2	-9.6135	0.0282	-0.7459	-0.0057	-0.0018	-0.0592	29.5028	21.2999	-15.2390	-0.3491	-0.6238	-0.3954	0.5768
0.21	-9.6116	0.0311	-0.7424	-0.0106	0.0042	-0.0578	29.5766	21.2155	-15.4584	-0.3490	-0.6237	-0.3954	0.5767
0.22	-9.6152	0.0254	-0.7487	-0.0074	0.0048	-0.0619	29.4396	21.1867	-15.6225	-0.3491	-0.6238	-0.3956	0.5768
0.23	-9.6125	0.0213	-0.7520	-0.0061	0.0130	-0.0630	29.6143	21.3997	-15.4336	-0.3490	-0.6237	-0.3956	0.5767
0.24	-9.6038	0.0189	-0.7470	-0.0099	0.0046	-0.0659	29.4615	21.3048	-15.1248	-0.3490	-0.6237	-0.3957	0.5767
0.25	-9.5997	0.0088	-0.7551	-0.0101	0.0131	-0.0622	29.3732	21.2107	-15.4287	-0.3490	-0.6237	-0.3958	0.5767
0.26	-9.6026	-0.0085	-0.7600	-0.0119	0.0107	-0.0629	29.4872	21.4103	-15.3392	-0.3490	-0.6236	-0.3959	0.5766
0.27	-9.6130	-0.0215	-0.7652	-0.0108	0.0154	-0.0603	29.2458	21.2166	-15.2526	-0.3490	-0.6237	-0.3960	0.5766
0.28	-9.6265	-0.0291	-0.7768	-0.0137	0.0137	-0.0591	29.4580	21.4881	-15.3904	-0.3490	-0.6236	-0.3961	0.5765
0.29	-9.6489	-0.0342	-0.7731	-0.0149	0.0131	-0.0536	29.5755	21.4657	-15.3778	-0.3490	-0.6237	-0.3962	0.5765
0.3	-9.6605	-0.0312	-0.7872	-0.0119	0.0184	-0.0546	29.5534	21.6182	-15.3988	-0.3490	-0.6236	-0.3963	0.5764
0.31	-9.6627	-0.0296	-0.7893	-0.0109	0.0146	-0.0519	29.5154	21.4453	-15.3276	-0.3491	-0.6237	-0.3964	0.5764
0.32	-9.6649	-0.0249	-0.7844	-0.0133	0.0087	-0.0519	29.3322	21.5901	-15.1722	-0.3490	-0.6236	-0.3964	0.5762
0.33	-9.6557	-0.0236	-0.7858	-0.0095	0.0071	-0.0545	29.4296	21.5057	-15.2307	-0.3491	-0.6236	-0.3965	0.5762
0.34	-9.6484	-0.0255	-0.7873	-0.0126	0.0106	-0.0523	29.4558	21.5127	-15.3284	-0.3491	-0.6236	-0.3965	0.5762
0.35	-9.6367	-0.0214	-0.7868	-0.0095	0.0042	-0.0593	29.5457	21.5757	-15.1982	-0.3491	-0.6236	-0.3966	0.5761
0.36	-9.6363	-0.0157	-0.7824	-0.0086	0.0075	-0.0590	29.6567	21.5612	-15.1967	-0.3491	-0.6236	-0.3967	0.5762
0.37	-9.6285	-0.0168	-0.7799	-0.0027	0.0032	-0.0589	29.3762	21.8105	-15.2151	-0.3491	-0.6235	-0.3967	0.5761
0.38	-9.6286	-0.0193	-0.7780	-0.0018	0.0007	-0.0518	29.3735	21.3959	-15.1811	-0.3491	-0.6236	-0.3968	0.5762
0.39	-9.6224	-0.0125	-0.7786	0.0029	0.0023	-0.0501	29.4442	21.3039	-15.2875	-0.3491	-0.6235	-0.3967	0.5761
0.4	-9.6252	-0.0006	-0.7675	0.0049	0.0015	-0.0513	29.7181	21.2608	-15.4034	-0.3491	-0.6236	-0.3967	0.5761
0.41	-9.6365	0.0095	-0.7664	-0.0071	0.0064	-0.0588	29.5456	21.3834	-15.3591	-0.3491	-0.6235	-0.3968	0.5761
0.42	-9.6469	0.0181	-0.7760	-0.0001	0.0054	-0.0546	29.5915	21.2944	-15.4091	-0.3491	-0.6235	-0.3968	0.5761
0.43	-9.6216	0.0121	-0.7758	0.0000	0.0010	-0.0578	29.3957	21.3199	-15.2437	-0.3491	-0.6235	-0.3969	0.5761
0.44	-9.6014	0.0187	-0.7649	0.0016	-0.0021	-0.0530	29.4600	21.3500	-15.3554	-0.3491	-0.6235	-0.3969	0.5761
0.45	-9.6089	0.0401	-0.7594	0.0106	-0.0005	-0.0535	29.5292	21.3384	-15.3290	-0.3491	-0.6235	-0.3969	0.5761
0.46	-9.5992	0.0506	-0.7714	-0.0097	0.0031	-0.0575	29.4251	21.3356	-15.2654	-0.3490	-0.6234	-0.3969	0.5761
0.47	-9.5872	0.0446	-0.7562	-0.0087	-0.0002	-0.0566	29.6910	21.1552	-15.2923	-0.3491	-0.6235	-0.3970	0.5761
0.48	-9.5985	0.0321	-0.7599	-0.0114	0.0035	-0.0671	29.2995	21.4180	-15.1309	-0.3491	-0.6234	-0.3970	0.5761
0.49	-9.6170	0.0277	-0.7710	-0.0110	0.0122	-0.0654	29.2703	21.3145	-15.3181	-0.3491	-0.6234	-0.3971	0.5761
0.5	-9.6481	0.0185	-0.7699	-0.0158	0.0136	-0.0699	29.3950	21.6415	-15.2511	-0.3490	-0.6233	-0.3973	0.5760
0.51	-9.6933	-0.0085	-0.7792	-0.0260	0.0162	-0.0685	29.3540	21.6706	-15.3849	-0.3490	-0.6233	-0.3974	0.5759
0.52	-9.7009	-0.0304	-0.8039	-0.0286	0.0119	-0.0621	29.4455	21.3770	-15.4664	-0.3491	-0.6233	-0.3976	0.5759
0.53	-9.6458	-0.0339	-0.7967	-0.0305	-0.0064	-0.0599	29.4194	21.5934	-15.2629	-0.3491	-0.6231	-0.3976	0.5758
0.54	-9.5907	-0.0374	-0.7731	-0.0275	-0.0022	-0.0533	29.1209	21.5439	-15.3069	-0.3493	-0.6232	-0.3978	0.5758
0.55	-9.5840	-0.0539	-0.7754	-0.0311	0.0081	-0.0527	29.3038	21.4003	-15.1314	-0.3493	-0.6231	-0.3979	0.5757
0.56	-9.6092	-0.0622	-0.7910	-0.0178	0.0093	-0.0486	29.4212	21.4345	-15.0681	-0.3494	-0.6231	-0.3980	0.5757
0.57	-9.6310	-0.0606	-0.7981	-0.0136	0.0099	-0.0470	29.2522	21.5059	-15.3189	-0.3494	-0.6230	-0.3980	0.5755
0.58	-9.6281	-0.0434	-0.7961	-0.0126	0.0063	-0.0471	29.5506	21.3073	-15.3827	-0.3495	-0.6231	-0.3980	0.5755
0.59	-9.6403	-0.0418	-0.8025	-0.0096	0.0105	-0.0482	29.5483	21.3342	-15.2046	-0.3495	-0.6231	-0.3981	0.5754
0.6	-9.6436	-0.0459	-0.8164	-0.0111	0.0091	-0.0570	29.9105	21.4801	-15.1807	-0.3495	-0.6231	-0.3981	0.5754
0.61	-9.6318	-0.0415	-0.8166	-0.0020	0.0020	-0.0559	30.1122	21.4838	-15.2210	-0.3495	-0.6232	-0.3981	0.5755
0.62	-9.6097	-0.0267	-0.8051	0.0020	-0.0011	-0.0566	29.7223	21.5006	-15.2186	-0.3495	-0.6231	-0.3981	0.5754
0.63	-9.6032	-0.0186	-0.7988	-0.0071	-0.0000	-0.0583	29.3780	21.5138	-15.2696	-0.3495	-0.6231	-0.3982	0.5755
0.64	-9.5899	-0.0202	-0.8077	-0.0042	-0.0017	-0.0555	29.2358	21.5258	-15.2325	-0.3495	-0.6230	-0.3981	0.5754
0.65	-9.5799	-0.0138	-0.7905	-0.0024	-0.0009	-0.0523	29.3780	21.4784	-15.3067	-0.3495	-0.6230	-0.3982	0.5755
0.66	-9.5795	-0.0130	-0.7904	0.0003	0.0013	-0.0502	29.4513	21.5323	-15.2715	-0.3495	-0.6230	-0.3982	0.5754
0.67	-9.5947	-0.0117	-0.7905	-0.0055	0.0113	-0.0465	29.3087	21.4172	-15.3304	-0.3495	-0.6230	-0.3982	0.5754
0.68	-9.6099	-0.0032	-0.7989	-0.0076	0.0153	-0.0410	29.5330	21.2369	-15.2180	-0.3496	-0.6231	-0.3982	0.5753
0.69	-9.6185	0.0060	-0.8003	-0.0100	0.0158	-0.0408	29.4844	21.3347	-15.0288	-0.3496	-0.6231	-0.3982	0.5752
0.7	-9.6406	0.0235	-0.7929	-0.0086	0.0155	-0.0411	29.5526	21.5866	-15.2324	-0.3496	-0.6232	-0.3983	0.5751
0.71	-9.6370	0.0340	-0.8145	-0.0080	0.0167	-0.0442	29.3071	21.4968	-15.0158	-0.3496	-0.6232	-0.3983	0.5750
0.72	-9.6349	0.0432	-0.8094	-0.0066	0.0147	-0.0492	29.3542	21.4262	-15.1039	-0.3497	-0.6233	-0.3984	0.5750
0.73	-9.6418	0.0504	-0.8105	-0.0125	0.0189	-0.0522	29.4280	21.4977	-14.9944	-0.3497	-0.6233	-0.3984	0.5749
0.74	-9.6579	0.0431	-0.8266	-0.0148	0.0196	-0.0545	29.4690	21.6057	-15.2634	-0.3497	-0.6233	-0.3985	0.5748
0.75	-9.6611	0.0325	-0.8314	-0.0179	0.0103	-0.0555	29.6340	21.3808	-15.1169	-0.3497	-0.6233	-0.3986	0.5747
0.76	-9.6586	0.0208	-0.8255	-0.0160	0.0047	-0.0557	29.3070	21.2291	-15.2171	-0.3497	-0.6233	-0.3987	0.5747
0.77	-9.6397	-0.0020	-0.8354	-0.0231	0.0021	-0.0554	29.5959	21.3579	-15.3728	-0.3498	-0.6232	-0.3987	0.5747
0.78	-9.6184	-0.0129	-0.8296	-0.0198	0.0050	-0.0504	29.5018	21.3264	-15.3293	-0.3498	-0.6232	-0.3988	0.5746
0.79	-9.6580	-0.0204	-0.8119	-0.0181	0.0001	-0.0572	29.5249	21.1973	-15.2056	-0.3499	-0.6232	-0.3989	0.5746
0.8	-9.6635	-0.0593	-0.8460	-0.0107	0.0123	-0.0635	29.5934	21.1878	-15.3089	-0.3499	-0.6231	-0.3989	0.5745
0.81	-9.6461	-0.0738	-0.8387	-0.0142	-0.0020	-0.0513	29.4070	21.4701	-15.2771	-0.3501	-0.6232	-0.3990	0.5746
0.82	-9.6272	-0.0562	-0.8212	-0.0100	-0.0063	-0.0478	29.4148	21.2812	-15.2215	-0.3501	-0.6230	-0.3989	0.5745
0.83	-9.5987	-0.0520	-0.8183	-0.0086	-0.0057	-0.0523	29.4287	21.4876	-15.4956	-0.3502	-0.6231	-0.3989	0.5745
0.84	-9.6157	-0.0613	-0.7966	-0.0078	0.0035	-0.0501	29.3894	21.6422	-15.3701	-0.3502	-0.6230	-0.3990	0.5745
0.85	-9.6444	-0.0476	-0.8111	0.0061	0.0077	-0.0417	29.5292	21.4783	-15.2512	-0.3502	-0.6230	-0.3989	0.5744
0.86	-9.6519	-0.0187	-0.8262	0.0133	0.0012	-0.0375	29.3726	21.5272	-15.1409	-0.3502	-0.6232	-0.3989	0.5745
0.87	-9.6340	0.0207	-0.7971	0.0122	-0.0105	-0.0463	29.3738	21.5887	-15.3030	-0.3502	-0.6231	-0.3988	0.5745
0.88	-9.6466	0.0367	-0.7961	0.0058	0.0052	-0.0476	29.6019	21.4026	-15.1532	-0.3502	-0.6232	-0.3988	0.5745
0.89	-9.6510	0.0377	-0.8198	0.0058	0.0062	-0.0497	29.2669	21.4223	-15.1484	-0.3502	-0.6231	-0.3987	0.5744
0.9	-9.6518	0.0558	-0.8063	0.0062	-0.0072	-0.0547	29.3873	21.3972	-15.2696	-0.3503	-0.6232	-0.3987	0.5745
0.91	-9.6433	0.0606	-0.7898	-0.0045	-0.0017	-0.0587	29.5604	21.4527	-15.3969	-0.3504	-0.6231	-0.3986	0.5745
0.92	-9.6329	0.0514	-0.8023	-0.0045	-0.0038	-0.0607	29.4178	21.5823	-15.1632	-0.3504	-0.6231	-0.3986	0.5745
0.93	-9.6246	0.0509	-0.8028	-0.0038	-0.0070	-0.0549	29.3242	21.6992	-15.0666	-0.3504	-0.6231	-0.3987	0.5745
0.94	-9.6086	0.0410	-0.7851	-0.0136	-0.0093	-0.0569	29.3298	21.5128	-15.0293	-0.3504	-0.6230	-0.3987	0.5745
0.95	-9.5958	0.0269	-0.7860	-0.0099	-0.0107	-0.0531	29.3232	21.3183	-15.1893	-0.3505	-0.6230	-0.3987	0.5746
0.96	-9.6022	0.0165	-0.7794	-0.0079	-0.0076	-0.0518	29.3968	21.3198	-15.2726	-0.3505	-0.6228	-0.3987	0.5745
0.97	-9.6017	0.0043	-0.7859	-0.0134	-0.0004	-0.0529	29.4528	21.4377	-15.2243	-0.3506	-0.6229	-0.3988	0.5746
0.98	-9.6011	-0.0050	-0.7821	-0.0164	0.0007	-0.0517	29.5116	21.5476	-15.2621	-0.3506	-0.6228	-0.3988	0.5745
0.99	-9.6092	-0.0088	-0.7775	-0.0114	0.0038	-0.0450	29.5281	21.3658	-15.2293	-0.3507	-0.6228	-0.3989	0.5745
1	-9.6218	-0.0074	-0.7873	-0.0124	0.0068	-0.0450	29.3815	21.1842	-15.2544	-0.3507	-0.6228	-0.3989	0.5744
1.01	-9.6308	-0.0057	-0.7876	-0.0115	0.0043	-0.0463	29.3509	21.5565	-15.2204	-0.3508	-0.6228	-0.3989	0.5744
1.02	-9.6359	-0.0017	-0.7882	-0.0138	0.0043	-0.0388	29.4287	21.5378	-15.1118	-0.3509	-0.6229	-0.3989	0.5743
1.03	-9.6406	0.0072	-0.7900	-0.0103	0.0075	-0.0476	29.4982	21.4854	-15.2613	-0.3509	-0.6228	-0.3989	0.5742
1.04	-9.6374	0.0148	-0.7912	-0.0055	-0.0028	-0.0459	29.4081	21.5958	-15.2335	-0.3510	-0.6229	-0.3990	0.5743
1.05	-9.6339	0.0186	-0.7915	-0.0060	0.0010	-0.0489	29.2883	21.6189	-15.2796	-0.3510	-0.6228	-0.3990	0.5742
1.06	-9.6393	0.0261	-0.7919	-0.0053	0.0082	-0.0525	29.4036	21.4479	-15.1511	-0.3510	-0.6229	-0.3990	0.5742
1.07	-9.6300	0.0299	-0.7986	-0.0066	0.0096	-0.0550	29.5175	21.3920	-15.2468	-0.3510	-0.6228	-0.3990	0.5741
1.08	-9.6266	0.0324	-0.7897	-0.0005	0.0026	-0.0614	29.4955	21.5371	-15.2372	-0.3510	-0.6228	-0.3991	0.5741
1.09	-9.6305	0.0390	-0.7903	0.0019	0.0005	-0.0630	29.5568	21.4849	-15.0819	-0.3510	-0.6228	-0.3991	0.5741
1.1	-9.6317	0.0372	-0.7929	0.0013	0.0009	-0.0637	29.9870	21.5115	-14.9751	-0.3509	-0.6228	-0.3991	0.5742
1.11	-9.6288	0.0267	-0.7849	-0.0071	0.0043	-0.0583	29.9273	21.6006	-14.9519	-0.3509	-0.6229	-0.3992	0.5742
1.12	-9.6334	0.0281	-0.7856	0.0011	-0.0019	-0.0535	29.7934	21.5892	-15.1296	-0.3509	-0.6228	-0.3991	0.5742
1.13	-9.6371	0.0241	-0.7793	-0.0089	-0.0051	-0.0524	29.5481	21.4661	-15.1343	-0.3509	-0.6228	-0.3992	0.5742
1.14	-9.6326	0.0208	-0.7796	-0.0126	-0.0050	-0.0569	29.3528	21.2961	-15.0928	-0.3509	-0.6227	-0.3992	0.5741
1.15	-9.6206	0.0196	-0.7797	-0.0096	-0.0028	-0.0556	29.6069	21.3264	-15.3712	-0.3510	-0.6227	-0.3993	0.5742
1.16	-9.6092	0.0231	-0.7700	-0.0132	0.0003	-0.0513	29.6548	21.4595	-15.1735	-0.3510	-0.6226	-0.3993	0.5742
1.17	-9.5989	0.0259	-0.7680	-0.0082	-0.0034	-0.0547	29.5386	21.5265	-15.0562	-0.3511	-0.6226	-0.3993	0.5741
1.18	-9.5949	0.0252	-0.7774	-0.0104	0.0004	-0.0560	29.5515	21.2592	-15.3502	-0.3511	-0.6226	-0.3994	0.5742
1.19	-9.5937	0.0335	-0.7717	-0.0115	0.0030	-0.0553	29.5049	21.2441	-15.2244	-0.3511	-0.6225	-0.3994	0.5741
1.2	-9.6045	0.0438	-0.7685	-0.0133	0.0083	-0.0565	29.6391	21.5555	-15.2374	-0.3512	-0.6226	-0.3995	0.5741
1.21	-9.6048	0.0512	-0.7756	-0.0126	0.0080	-0.0624	29.5267	21.2720	-15.4070	-0.3511	-0.6225	-0.3995	0.5740
1.22	-9.6063	0.0544	-0.7765	-0.0128	0.0012	-0.0585	29.4666	21.3470	-15.4774	-0.3512	-0.6225	-0.3996	0.5740
1.23	-9.6070	0.0558	-0.7757	-0.0132	0.0069	-0.0611	29.5240	21.5409	-15.3225	-0.3512	-0.6224	-0.3997	0.5740
1.24	-9.6155	0.0444	-0.7825	-0.0124	0.0136	-0.0719	29.4169	21.4351	-15.2732	-0.3512	-0.6224	-0.3998	0.5740
1.25	-9.6167	0.0182	-0.7962	-0.0121	0.0150	-0.0676	29.4737	21.6238	-15.3287	-0.3511	-0.6224	-0.3999	0.5739
1.26	-9.6255	-0.0002	-0.7983	-0.0132	0.0158	-0.0720	29.3125	21.5018	-15.2447	-0.3511	-0.6224	-0.4000	0.5739
1.27	-9.6283	-0.0122	-0.8094	-0.0166	0.0159	-0.0704	29.4277	21.5408	-15.2154	-0.3511	-0.6224	-0.4002	0.5738
1.28	-9.6327	-0.0286	-0.8181	-0.0131	0.0130	-0.0635	29.5430	21.5805	-15.1060	-0.3510	-0.6223	-0.4002	0.5737
1.29	-9.6418	-0.0324	-0.8267	-0.0142	0.0151	-0.0601	29.4468	21.5881	-15.1369	-0.3510	-0.6224	-0.4004	0.5738
1.3	-9.6536	-0.0319	-0.8321	-0.0092	0.0153	-0.0617	29.4373	21.5196	-15.2001	-0.3510	-0.6224	-0.4004	0.5737
1.31	-9.6579	-0.0332	-0.8328	-0.0121	0.0176	-0.0527	29.2456	21.5258	-15.0425	-0.3510	-0.6224	-0.4005	0.5736
1.32	-9.6608	-0.0365	-0.8270	-0.0133	0.0030	-0.0570	29.4628	21.6205	-15.3550	-0.3510	-0.6223	-0.4006	0.5735
1.33	-9.6650	-0.0316	-0.8321	-0.0094	0.0102	-0.0557	29.4542	21.2780	-15.1106	-0.3511	-0.6224	-0.4006	0.5735
1.34	-9.6582	-0.0304	-0.8297	-0.0088	0.0028	-0.0555	29.6317	21.4142	-14.9712	-0.3511	-0.6224	-0.4006	0.5735
1.35	-9.6456	-0.0281	-0.8272	-0.0062	0.0006	-0.0545	29.5595	21.2470	-15.1026	-0.3512	-0.6223	-0.4006	0.5735
1.36	-9.6348	-0.0195	-0.8180	-0.0016	-0.0056	-0.0506	29.5068	21.1075	-15.2141	-0.3513	-0.6224	-0.4006	0.5735
1.37	-9.6352	-0.0086	-0.8053	-0.0082	-0.0009	-0.0529	29.7391	21.2930	-15.1785	-0.3513	-0.6223	-0.4006	0.5735
1.38	-9.6322	0.0005	-0.8071	-0.0059	-0.0005	-0.0560	29.5939	21.3332	-15.2566	-0.3513	-0.6223	-0.4006	0.5735
1.39	-9.6216	0.0052	-0.8082	-0.0036	-0.0045	-0.0583	29.4210	21.2037	-15.4036	-0.3513	-0.6222	-0.4006	0.5735
1.4	-9.6059	0.0092	-0.7967	-0.0037	-0.0055	-0.0518	29.5671	21.2425	-15.2485	-0.3513	-0.6222	-0.4006	0.5735
1.41	-9.5959	0.0126	-0.7847	-0.0002	-0.0040	-0.0578	29.5367	21.5176	-15.3443	-0.3513	-0.6222	-0.4006	0.5735
1.42	-9.6199	0.0139	-0.7939	0.0042	0.0050	-0.0583	29.4867	21.3892	-15.1328	-0.3513	-0.6222	-0.4006	0.5735
1.43	-9.6214	0.0077	-0.8065	-0.0080	0.0109	-0.0568	29.3217	21.4967	-14.9889	-0.3513	-0.6222	-0.4007	0.5735
1.44	-9.6024	0.0081	-0.7939	-0.0047	0.0010	-0.0669	29.4066	21.4826	-15.1883	-0.3513	-0.6221	-0.4008	0.5735
1.45	-9.6277	0.0241	-0.7805	0.0059	0.0101	-0.0605	29.2677	21.7177	-15.2084	-0.3512	-0.6222	-0.4008	0.5735
1.46	-9.6427	0.0433	-0.8033	-0.0007	0.0073	-0.0531	29.3626	21.7754	-15.2217	-0.3512	-0.6221	-0.4008	0.5734
1.47	-9.6136	0.0461	-0.7955	-0.0098	-0.0043	-0.0622	29.4611	21.6158	-15.1839	-0.3512	-0.6221	-0.4009	0.5735
1.48	-9.6038	0.0426	-0.7763	-0.0092	0.0004	-0.0639	29.3175	21.3945	-15.0968	-0.3512	-0.6221	-0.4009	0.5735
1.49	-9.6056	0.0467	-0.7873	-0.0134	0.0105	-0.0654	29.4033	21.4466	-15.3948	-0.3512	-0.6221	-0.4010	0.5735
1.5	-9.6212	0.0489	-0.7799	-0.0103	0.0053	-0.0705	29.2281	21.6097	-15.3906	-0.3512	-0.6220	-0.4011	0.5735
1.51	-9.6521	0.0277	-0.7722	-0.0191	0.0107	-0.0720	29.4594	21.5184	-15.3935	-0.3512	-0.6220	-0.4012	0.5734
1.52	-9.6686	0.0037	-0.8092	-0.0331	0.0111	-0.0700	29.5684	21.2967	-15.3602	-0.3512	-0.6219	-0.4014	0.5734
1.53	-9.6256	-0.0164	-0.8071	-0.0225	0.0088	-0.0611	29.5154	21.3189	-15.0820	-0.3512	-0.6218	-0.4015	0.5733
1.54	-9.5773	-0.0336	-0.7792	-0.0371	0.0045	-0.0596	29.6619	21.3012	-15.2281	-0.3514	-0.6218	-0.4017	0.5733
1.55	-9.5787	-0.0574	-0.7833	-0.0333	0.0134	-0.0506	29.4420	21.3311	-15.4764	-0.3514	-0.6218	-0.4018	0.5731
1.56	-9.6068	-0.0827	-0.8126	-0.0320	0.0188	-0.0524	29.5209	21.5005	-15.2035	-0.3515	-0.6218	-0.4019	0.5731
1.57	-9.6178	-0.0832	-0.8227	-0.0205	0.0068	-0.0389	29.5583	21.3996	-15.2088	-0.3516	-0.6217	-0.4019	0.5729
1.58	-9.6216	-0.0753	-0.8190	-0.0113	0.0142	-0.0406	29.5121	21.2642	-15.2925	-0.3517	-0.6218	-0.4020	0.5728
1.59	-9.6213	-0.0748	-0.8266	-0.0129	0.0228	-0.0498	29.6148	21.3999	-15.1351	-0.3517	-0.6218	-0.4020	0.5727
1.6	-9.6143	-0.0792	-0.8482	-0.0054	0.0253	-0.0494	29.9302	21.6786	-15.0130	-0.3516	-0.6219	-0.4021	0.5726
1.61	-9.6079	-0.0648	-0.8547	0.0012	0.0178	-0.0518	29.8790	21.6695	-15.0388	-0.3516	-0.6220	-0.4021	0.5726
1.62	-9.6124	-0.0367	-0.8462	0.0138	0.0138	-0.0516	29.6133	21.5491	-15.1110	-0.3516	-0.6220	-0.4021	0.5726
1.63	-9.6295	-0.0147	-0.8527	0.0128	0.0181	-0.0591	29.3648	21.4525	-15.1070	-0.3515	-0.6221	-0.4021	0.5726
1.64	-9.6310	0.0035	-0.8621	0.0128	0.0110	-0.0577	29.1553	21.4162	-15.2938	-0.3514	-0.6221	-0.4021	0.5725
1.65	-9.6239	0.0215	-0.8538	0.0117	0.0096	-0.0513	29.3931	21.5443	-14.9484	-0.3514	-0.6222	-0.4021	0.5726
1.66	-9.6139	0.0325	-0.8439	0.0100	0.0104	-0.0478	29.2901	21.4454	-15.0182	-0.3513	-0.6222	-0.4021	0.5725
1.67	-9.6225	0.0462	-0.8453	-0.0074	0.0118	-0.0505	29.4304	21.4069	-15.0548	-0.3513	-0.6222	-0.4021	0.5725
1.68	-9.6306	0.0377	-0.8579	-0.0117	0.0058	-0.0529	29.4118	21.4241	-15.0495	-0.3514	-0.6222	-0.4022	0.5724
1.69	-9.6417	0.0240	-0.8578	-0.0128	0.0132	-0.0517	29.4474	21.4216	-15.1681	-0.3514	-0.6222	-0.4022	0.5724
1.7	-9.6577	0.0204	-0.8633	-0.0122	0.0063	-0.0470	29.5785	21.3861	-15.1206	-0.3514	-0.6223	-0.4023	0.5723
1.71	-9.6641	0.0111	-0.8767	-0.0128	0.0039	-0.0444	29.6957	21.2018	-15.1520	-0.3515	-0.6222	-0.4022	0.5722
1.72	-9.6748	0.0028	-0.8785	-0.0126	0.0025	-0.0503	29.6795	21.4003	-15.0043	-0.3516	-0.6222	-0.4023	0.5722
1.73	-9.6790	0.0034	-0.8825	-0.0130	0.0034	-0.0528	29.7144	21.2272	-14.9248	-0.3517	-0.6222	-0.4022	0.5722
1.74	-9.6766	0.0060	-0.8833	-0.0118	-0.0012	-0.0494	29.5951	21.3908	-15.0174	-0.3518	-0.6222	-0.4022	0.5722
1.75	-9.6720	0.0143	-0.8734	-0.0105	-0.0057	-0.0510	29.7078	21.5164	-15.1690	-0.3519	-0.6221	-0.4022	0.5721
1.76	-9.6718	0.0204	-0.8690	-0.0129	-0.0098	-0.0542	29.5316	21.4112	-15.2354	-0.3520	-0.6221	-0.4022	0.5721
1.77	-9.6554	0.0127	-0.8662	-0.0119	-0.0148	-0.0548	29.5540	21.3638	-15.2464	-0.3521	-0.6220	-0.4021	0.5722
1.78	-9.6163	0.0111	-0.8455	-0.0139	-0.0280	-0.0575	29.6345	21.3196	-15.1380	-0.3522	-0.6219	-0.4021	0.5722
1.79	-9.6063	0.0174	-0.8185	-0.0105	-0.0260	-0.0604	29.4655	21.4185	-15.0359	-0.3523	-0.6218	-0.4022	0.5723
1.8	-9.6495	0.0110	-0.8135	-0.0115	-0.0189	-0.0682	29.5761	21.6196	-15.1958	-0.3523	-0.6217	-0.4022	0.5724
1.81	-9.6386	-0.0262	-0.8352	-0.0121	-0.0172	-0.0683	29.5825	21.4394	-15.0512	-0.3524	-0.6216	-0.4022	0.5725
1.82	-9.5934	-0.0318	-0.8004	-0.0123	-0.0269	-0.0636	29.2751	21.4281	-15.0316	-0.3524	-0.6214	-0.4022	0.5725
1.83	-9.5611	-0.0175	-0.7947	-0.0120	-0.0207	-0.0619	29.3994	21.5902	-15.3237	-0.3525	-0.6214	-0.4023	0.5726
1.84	-9.5369	-0.0226	-0.7876	-0.0131	-0.0088	-0.0582	29.5659	21.5275	-15.0903	-0.3526	-0.6213	-0.4023	0.5726
1.85	-9.5776	-0.0293	-0.7765	-0.0111	-0.0033	-0.0583	29.4135	21.6258	-15.0307	-0.3526	-0.6212	-0.4023	0.5726
1.86	-9.6131	-0.0293	-0.8128	-0.0131	0.0058	-0.0447	29.4246	21.4956	-15.1532	-0.3527	-0.6213	-0.4024	0.5726
1.87	-9.6077	-0.0070	-0.8051	-0.0101	-0.0103	-0.0366	29.2908	21.6071	-15.1697	-0.3528	-0.6212	-0.4023	0.5725
1.88	-9.6128	0.0155	-0.7742	-0.0117	-0.0051	-0.0394	29.4140	21.4104	-15.2770	-0.3529	-0.6212	-0.4023	0.5725
1.89	-9.6283	0.0061	-0.7991	-0.0065	0.0013	-0.0388	29.4285	21.3431	-15.1127	-0.3529	-0.6212	-0.4023	0.5724
1.9	-9.6302	-0.0025	-0.8300	-0.0100	0.0025	-0.0506	29.4086	21.2034	-15.1524	-0.3530	-0.6212	-0.4023	0.5724
1.91	-9.6257	0.0096	-0.8095	0.0032	-0.0006	-0.0527	29.6331	21.4626	-15.1040	-0.3530	-0.6212	-0.4023	0.5724
1.92	-9.6266	0.0093	-0.8192	0.0069	0.0089	-0.0519	29.7403	21.2565	-14.9281	-0.3529	-0.6213	-0.4022	0.5724
1.93	-9.6363	0.0061	-0.8296	0.0021	0.0090	-0.0518	29.4573	21.2326	-15.0618	-0.3529	-0.6213	-0.4023	0.5724
1.94	-9.6378	0.0077	-0.8300	0.0011	0.0023	-0.0561	29.4287	21.5118	-15.1695	-0.3529	-0.6213	-0.4023	0.5724
1.95	-9.6349	0.0165	-0.8190	-0.0025	-0.0026	-0.0472	29.3974	21.4920	-15.1119	-0.3529	-0.6213	-0.4023	0.5724
1.96	-9.6498	0.0174	-0.8191	0.0012	-0.0044	-0.0516	29.5370	21.5257	-15.2401	-0.3529	-0.6212	-0.4022	0.5724
1.97	-9.6534	0.0189	-0.8298	-0.0125	-0.0010	-0.0505	29.3642	21.4717	-15.3368	-0.3530	-0.6213	-0.4023	0.5724
1.98	-9.6399	0.0239	-0.8198	-0.0087	-0.0152	-0.0469	29.3704	21.4102	-15.4946	-0.3530	-0.6212	-0.4022	0.5724
1.99	-9.6360	0.0297	-0.8079	-0.0176	-0.0152	-0.0488	29.4418	21.3983	-15.1766	-0.3531	-0.6212	-0.4023	0.5724
2	-9.6410	0.0234	-0.8205	-0.0137	-0.0081	-0.0524	29.4164	21.5423	-15.0146	-0.3532	-0.6211	-0.4023	0.5724
2.01	-9.6321	0.0175	-0.8217	-0.0124	-0.0103	-0.0434	29.5393	21.4436	-15.3333	-0.3533	-0.6210	-0.4023	0.5724
2.02	-9.6241	0.0175	-0.8125	-0.0122	-0.0105	-0.0462	29.4996	21.4767	-15.2845	-0.3534	-0.6210	-0.4023	0.5724
2.03	-9.6297	0.0157	-0.8063	-0.0123	-0.0069	-0.0508	29.5144	21.4492	-15.0988	-0.3534	-0.6209	-0.4022	0.5724
2.04	-9.6435	0.0168	-0.8158	-0.0094	-0.0030	-0.0458	29.5145	21.2979	-15.3937	-0.3535	-0.6210	-0.4023	0.5724
2.05	-9.6529	0.0275	-0.8092	-0.0116	-0.0120	-0.0436	29.4886	21.3404	-15.3756	-0.3536	-0.6209	-0.4022	0.5724
2.06	-9.6680	0.0369	-0.8029	0.0016	-0.0134	-0.0444	29.3358	21.3625	-15.3009	-0.3538	-0.6209	-0.4022	0.5725
2.07	-9.6662	0.0479	-0.8043	0.0027	-0.0178	-0.0439	29.2446	21.5588	-15.3386	-0.3538	-0.6208	-0.4020	0.5724
2.08	-9.6600	0.0591	-0.7908	0.0037	-0.0215	-0.0523	29.3475	21.3129	-15.3177	-0.3539	-0.6208	-0.4019	0.5725
2.09	-9.6588	0.0633	-0.7825	0.0093	-0.0188	-0.0561	29.7360	21.4452	-15.1117	-0.3540	-0.6208	-0.4019	0.5726
2.1	-9.6546	0.0568	-0.7799	0.0038	-0.0237	-0.0617	30.1000	21.5456	-14.9351	-0.3540	-0.6207	-0.4017	0.5727
2.11	-9.6341	0.0450	-0.7672	0.0053	-0.0287	-0.0572	29.9137	21.4057	-14.9579	-0.3540	-0.6207	-0.4016	0.5729
2.12	-9.6165	0.0429	-0.7523	-0.0008	-0.0258	-0.0624	29.8511	21.3207	-15.0510	-0.3540	-0.6206	-0.4016	0.5730
2.13	-9.6067	0.0327	-0.7419	0.0066	-0.0242	-0.0580	29.5374	21.2065	-15.2181	-0.3541	-0.6205	-0.4016	0.5731
2.14	-9.5928	0.0268	-0.7448	0.0026	-0.0159	-0.0596	29.5709	21.3532	-15.1177	-0.3540	-0.6204	-0.4015	0.5731
2.15	-9.5811	0.0283	-0.7314	0.0011	-0.0205	-0.0655	29.5975	21.1563	-15.2237	-0.3541	-0.6204	-0.4015	0.5732
2.16	-9.5820	0.0333	-0.7238	0.0025	-0.0128	-0.0577	29.7191	21.3222	-15.3584	-0.3541	-0.6203	-0.4015	0.5733
2.17	-9.5930	0.0404	-0.7282	-0.0123	-0.0084	-0.0578	29.8324	21.4956	-15.4723	-0.3541	-0.6202	-0.4015	0.5733
2.18	-9.5855	0.0459	-0.7231	-0.0072	-0.0077	-0.0599	29.6983	21.4799	-15.4181	-0.3542	-0.6202	-0.4016	0.5733
2.19	-9.5859	0.0512	-0.7187	-0.0118	-0.0098	-0.0563	29.5352	21.4731	-15.3164	-0.3542	-0.6201	-0.4016	0.5733
2.2	-9.5834	0.0622	-0.7208	-0.0112	0.0037	-0.0678	29.4031	21.5223	-15.1576	-0.3542	-0.6201	-0.4017	0.5733
2.21	-9.5801	0.0648	-0.7279	-0.0164	0.0032	-0.0621	29.4557	21.6855	-15.3182	-0.3542	-0.6200	-0.4017	0.5733
2.22	-9.5825	0.0616	-0.7265	-0.0196	0.0108	-0.0689	29.4366	21.5210	-15.3097	-0.3542	-0.6200	-0.4019	0.5733
2.23	-9.5819	0.0474	-0.7347	-0.0293	0.0101	-0.0688	29.5915	21.4734	-15.4302	-0.3543	-0.6199	-0.4020	0.5732
2.24	-9.5790	0.0220	-0.7423	-0.0293	0.0115	-0.0647	29.6925	21.4801	-15.3533	-0.3543	-0.6199	-0.4022	0.5731
2.25	-9.5758	-0.0046	-0.7511	-0.0354	0.0103	-0.0588	29.7239	21.4902	-15.5270	-0.3544	-0.6198	-0.4023	0.5730
2.26	-9.5970	-0.0244	-0.7599	-0.0376	0.0093	-0.0553	29.6816	21.4586	-15.2923	-0.3545	-0.6198	-0.4024	0.5729
2.27	-9.6090	-0.0501	-0.7745	-0.0368	0.0180	-0.0518	29.7696	21.3402	-15.1746	-0.3546	-0.6198	-0.4026	0.5728
2.28	-9.6183	-0.0694	-0.7844	-0.0337	0.0112	-0.0529	29.8147	21.1964	-15.2054	-0.3546	-0.6197	-0.4026	0.5727
2.29	-9.6313	-0.0763	-0.7904	-0.0273	0.0223	-0.0510	29.6727	21.3510	-15.3090	-0.3547	-0.6198	-0.4028	0.5726
2.3	-9.6430	-0.0867	-0.8061	-0.0111	0.0204	-0.0474	29.7487	21.3770	-15.4463	-0.3547	-0.6198	-0.4028	0.5725
2.31	-9.6492	-0.0957	-0.8098	-0.0103	0.0119	-0.0407	29.8457	21.2551	-15.5203	-0.3548	-0.6199	-0.4029	0.5724
2.32	-9.6590	-0.0757	-0.8182	-0.0036	0.0118	-0.0436	29.5745	21.4345	-15.2698	-0.3548	-0.6198	-0.4028	0.5723
2.33	-9.6749	-0.0503	-0.8250	0.0096	0.0092	-0.0393	29.7815	21.3474	-15.3155	-0.3548	-0.6199	-0.4028	0.5723
2.34	-9.6780	-0.0255	-0.8219	0.0149	0.0104	-0.0356	29.7479	21.3085	-15.0646	-0.3548	-0.6200	-0.4027	0.5723
2.35	-9.6755	0.0032	-0.8247	0.0172	-0.0005	-0.0437	29.6826	21.2765	-15.3040	-0.3548	-0.6200	-0.4026	0.5723
2.36	-9.6704	0.0339	-0.8225	0.0216	-0.0016	-0.0413	29.7229	21.5426	-15.2755	-0.3548	-0.6202	-0.4026	0.5724
2.37	-9.6648	0.0645	-0.8182	0.0200	-0.0009	-0.0507	29.6936	21.6781	-15.0912	-0.3548	-0.6201	-0.4024	0.5723
2.38	-9.6613	0.0792	-0.8067	0.0206	-0.0048	-0.0506	29.5059	21.4508	-15.2996	-0.3548	-0.6202	-0.4023	0.5724
2.39	-9.6509	0.0885	-0.8035	0.0153	-0.0046	-0.0519	29.6384	21.5857	-14.9671	-0.3548	-0.6202	-0.4022	0.5724
2.4	-9.6400	0.0930	-0.7950	0.0082	-0.0112	-0.0503	29.5830	21.4550	-15.0774	-0.3549	-0.6202	-0.4021	0.5725
2.41	-9.6241	0.1001	-0.7902	0.0109	-0.0037	-0.0561	29.7095	21.5105	-15.1058	-0.3548	-0.6202	-0.4021	0.5725
2.42	-9.6176	0.0976	-0.7796	-0.0095	-0.0145	-0.0538	29.5700	21.3945	-15.1824	-0.3549	-0.6201	-0.4021	0.5725
2.43	-9.6165	0.0842	-0.7818	-0.0119	-0.0039	-0.0524	29.4025	21.4751	-15.4119	-0.3550	-0.6201	-0.4021	0.5726
2.44	-9.6059	0.0736	-0.7790	-0.0108	-0.0134	-0.0534	29.5945	21.5065	-15.2737	-0.3550	-0.6200	-0.4021	0.5726
2.45	-9.6072	0.0611	-0.7704	-0.0137	-0.0091	-0.0559	29.6694	21.3924	-15.2827	-0.3551	-0.6200	-0.4022	0.5726
2.46	-9.6206	0.0353	-0.7683	-0.0176	0.0005	-0.0603	29.7408	21.0850	-14.9763	-0.3550	-0.6199	-0.4021	0.5725
2.47	-9.6205	0.0133	-0.7891	-0.0159	0.0016	-0.0683	29.6504	21.2796	-15.1504	-0.3551	-0.6199	-0.4023	0.5726
2.48	-9.6006	-0.0051	-0.7788	-0.0220	0.0040	-0.0648	29.9915	21.2959	-15.2400	-0.3551	-0.6199	-0.4023	0.5726
2.49	-9.6214	-0.0074	-0.7657	-0.0224	0.0022	-0.0636	30.0427	21.3854	-15.4001	-0.3551	-0.6198	-0.4024	0.5726
2.5	-9.6401	0.0123	-0.7925	-0.0149	0.0045	-0.0628	29.7556	21.3971	-15.2889	-0.3551	-0.6198	-0.4025	0.5725
2.51	-9.6125	0.0185	-0.7876	-0.0117	-0.0082	-0.0604	29.7966	21.4046	-15.2983	-0.3551	-0.6197	-0.4025	0.5725
2.52	-9.6019	0.0089	-0.7520	-0.0146	0.0022	-0.0676	29.6445	21.3469	-15.2882	-0.3552	-0.6197	-0.4026	0.5725
2.53	-9.6111	0.0022	-0.7766	-0.0173	0.0100	-0.0631	29.8331	21.2616	-15.3725	-0.3551	-0.6196	-0.4027	0.5724
2.54	-9.6354	0.0091	-0.7840	-0.0159	0.0088	-0.0637	29.6527	21.5547	-15.3151	-0.3552	-0.6196	-0.4028	0.5725
2.55	-9.6660	0.0008	-0.7640	-0.0267	0.0093	-0.0626	29.6454	21.5464	-15.2504	-0.3552	-0.6196	-0.4029	0.5724
2.56	-9.6847	-0.0316	-0.7958	-0.0192	0.0117	-0.0628	29.7534	21.6632	-15.1927	-0.3553	-0.6196	-0.4031	0.5724
2.57	-9.6420	-0.0481	-0.8105	-0.0274	-0.0032	-0.0666	29.5934	21.5582	-15.2956	-0.3553	-0.6194	-0.4031	0.5723
2.58	-9.5761	-0.0575	-0.7736	-0.0166	-0.0102	-0.0597	29.5180	21.7066	-15.3435	-0.3554	-0.6194	-0.4032	0.5723
2.59	-9.5645	-0.0765	-0.7657	-0.0163	-0.0016	-0.0508	29.7413	21.7328	-15.1874	-0.3554	-0.6193	-0.4032	0.5723
2.6	-9.5887	-0.0926	-0.7966	-0.0141	0.0076	-0.0532	29.9010	21.5464	-15.0736	-0.3555	-0.6193	-0.4033	0.5722
2.61	-9.6154	-0.0796	-0.8026	-0.0102	0.0103	-0.0396	29.8854	21.5022	-15.2429	-0.3556	-0.6194	-0.4033	0.5722
2.62	-9.6260	-0.0426	-0.7938	-0.0059	0.0051	-0.0398	29.5651	21.4707	-15.0849	-0.3556	-0.6194	-0.4033	0.5721
2.63	-9.6292	-0.0168	-0.8030	0.0079	0.0048	-0.0399	29.3928	21.5719	-15.1659	-0.3556	-0.6195	-0.4032	0.5721
2.64	-9.6202	-0.0049	-0.8128	0.0093	0.0090	-0.0487	29.3087	21.4054	-15.1741	-0.3556	-0.6194	-0.4032	0.5720
2.65	-9.6150	0.0151	-0.8123	0.0141	0.0090	-0.0553	29.3943	21.2269	-15.1539	-0.3555	-0.6195	-0.4032	0.5721
2.66	-9.6074	0.0254	-0.8225	0.0138	-0.0007	-0.0533	29.3568	21.3604	-15.3451	-0.3555	-0.6195	-0.4031	0.5721
2.67	-9.6085	0.0520	-0.8084	0.0144	0.0020	-0.0570	29.4018	21.3136	-15.2884	-0.3554	-0.6195	-0.4031	0.5721
2.68	-9.6105	0.0660	-0.8180	0.0072	0.0053	-0.0594	29.1525	21.3192	-15.0202	-0.3554	-0.6196	-0.4031	0.5721
2.69	-9.6048	0.0798	-0.8189	0.0015	0.0013	-0.0597	29.2403	21.4949	-15.2546	-0.3554	-0.6195	-0.4031	0.5721
2.7	-9.5934	0.0625	-0.8082	-0.0079	0.0034	-0.0545	29.3035	21.6403	-15.2036	-0.3554	-0.6196	-0.4032	0.5721
2.71	-9.6114	0.0312	-0.8121	-0.0184	0.0179	-0.0547	29.2732	21.4885	-15.1279	-0.3554	-0.6195	-0.4032	0.5720
2.72	-9.6475	0.0377	-0.8497	-0.0109	0.0200	-0.0476	29.2882	21.3927	-15.3112	-0.3555	-0.6196	-0.4033	0.5720
2.73	-9.6452	0.0268	-0.8457	-0.0194	0.0105	-0.0508	29.4416	21.4495	-15.3292	-0.3555	-0.6196	-0.4034	0.5719
2.74	-9.6487	0.0098	-0.8344	-0.0276	0.0126	-0.0509	29.1897	21.5871	-15.1488	-0.3556	-0.6196	-0.4035	0.5718
2.75	-9.6681	-0.0027	-0.8624	-0.0213	0.0185	-0.0557	29.2950	21.6066	-15.1766	-0.3556	-0.6196	-0.4035	0.5717
2.76	-9.6689	-0.0099	-0.8713	-0.0185	0.0133	-0.0494	29.3891	21.4283	-15.2767	-0.3556	-0.6196	-0.4036	0.5716
2.77	-9.6695	-0.0060	-0.8548	-0.0143	0.0094	-0.0511	29.3835	21.4626	-15.2155	-0.3557	-0.6196	-0.4037	0.5715
2.78	-9.6698	-0.0093	-0.8622	-0.0120	0.0057	-0.0557	29.2774	21.5304	-15.0367	-0.3558	-0.6195	-0.4036	0.5714
2.79	-9.6685	-0.0065	-0.8658	-0.0082	-0.0018	-0.0622	29.4002	21.3797	-15.1150	-0.3559	-0.6196	-0.4037	0.5715
2.8	-9.6561	-0.0080	-0.8488	-0.0083	-0.0030	-0.0718	29.3265	21.4562	-15.1239	-0.3559	-0.6195	-0.4037	0.5715
2.81	-9.6385	-0.0097	-0.8456	-0.0095	-0.0129	-0.0639	29.2695	21.5551	-15.0903	-0.3560	-0.6195	-0.4037	0.5716
2.82	-9.6129	-0.0019	-0.8460	-0.0011	-0.0133	-0.0598	29.2834	21.2806	-15.3871	-0.3560	-0.6193	-0.4036	0.5715
2.83	-9.5838	0.0150	-0.8299	-0.0105	-0.0183	-0.0623	29.4110	21.3766	-15.3181	-0.3561	-0.6193	-0.4037	0.5716
2.84	-9.6254	0.0247	-0.7949	-0.0125	-0.0045	-0.0644	29.4919	21.3880	-15.3721	-0.3561	-0.6192	-0.4037	0.5717
2.85	-9.6704	0.0031	-0.8398	-0.0121	0.0040	-0.0655	29.3754	21.2344	-15.2549	-0.3561	-0.6191	-0.4038	0.5716
2.86	-9.6411	-0.0204	-0.8341	-0.0121	-0.0106	-0.0637	29.3553	21.1238	-15.1356	-0.3563	-0.6191	-0.4038	0.5717
2.87	-9.6145	-0.0193	-0.7961	-0.0117	-0.0162	-0.0591	29.4060	21.4923	-15.3192	-0.3563	-0.6190	-0.4038	0.5717
2.88	-9.5894	-0.0264	-0.8026	-0.0125	-0.0160	-0.0553	29.2888	21.6279	-15.1436	-0.3564	-0.6190	-0.4038	0.5717
2.89	-9.6118	-0.0560	-0.7901	-0.0109	-0.0059	-0.0588	29.2946	21.5807	-15.2751	-0.3564	-0.6188	-0.4038	0.5717
2.9	-9.6462	-0.0748	-0.8145	-0.0139	-0.0039	-0.0428	29.3583	21.3561	-15.3356	-0.3565	-0.6189	-0.4039	0.5717
2.91	-9.6384	-0.0673	-0.8175	-0.0064	-0.0043	-0.0321	29.2761	21.3408	-15.2239	-0.3566	-0.6189	-0.4038	0.5717
2.92	-9.6168	-0.0309	-0.7865	-0.0028	-0.0166	-0.0356	29.2103	21.5235	-15.2658	-0.3567	-0.6188	-0.4037	0.5717
2.93	-9.6215	-0.0082	-0.7834	-0.0010	-0.0054	-0.0416	29.1915	21.4846	-15.2592	-0.3568	-0.6188	-0.4037	0.5717
2.94	-9.6415	-0.0134	-0.8062	0.0012	-0.0053	-0.0481	29.3123	21.3938	-15.2285	-0.3568	-0.6188	-0.4037	0.5717
2.95	-9.6402	-0.0063	-0.8060	0.0019	-0.0081	-0.0512	29.2721	21.4280	-15.1158	-0.3568	-0.6188	-0.4036	0.5717
2.96	-9.6325	0.0169	-0.7900	0.0018	-0.0059	-0.0508	29.2845	21.3978	-15.2738	-0.3568	-0.6187	-0.4036	0.5717
2.97	-9.6295	0.0287	-0.7947	0.0123	-0.0045	-0.0518	29.2896	21.4351	-15.2363	-0.3568	-0.6188	-0.4036	0.5718
2.98	-9.6277	0.0295	-0.7930	0.0105	-0.0058	-0.0506	29.2650	21.5271	-15.2861	-0.3568	-0.6188	-0.4035	0.5718
2.99	-9.6310	0.0373	-0.7861	0.0149	-0.0035	-0.0579	29.3633	21.4756	-15.1570	-0.3568	-0.6188	-0.4035	0.5718
3	-9.6307	0.0371	-0.7823	0.0016	-0.0092	-0.0514	29.3862	21.6165	-15.2622	-0.3568	-0.6188	-0.4034	0.5718
3.01	-9.6309	0.0363	-0.7786	-0.0077	-0.0172	-0.0545	29.1109	21.5507	-15.3850	-0.3569	-0.6187	-0.4034	0.5719
3.02	-9.6218	0.0283	-0.7769	-0.0095	-0.0014	-0.0518	29.3319	21.2811	-15.2910	-0.3569	-0.6187	-0.4035	0.5719
3.03	-9.6163	0.0218	-0.7775	-0.0136	-0.0112	-0.0480	29.4069	21.4479	-15.1368	-0.3570	-0.6186	-0.4034	0.5718
3.04	-9.6323	0.0215	-0.7758	-0.0118	-0.0154	-0.0386	29.2326	21.2687	-15.2901	-0.3571	-0.6186	-0.4034	0.5719
3.05	-9.6399	0.0168	-0.7746	-0.0120	-0.0139	-0.0345	29.3497	21.1286	-15.1929	-0.3572	-0.6186	-0.4034	0.5719
3.06	-9.6418	0.0184	-0.7760	-0.0114	-0.0151	-0.0420	29.3687	21.3978	-15.4159	-0.3574	-0.6186	-0.4034	0.5719
3.07	-9.6360	0.0188	-0.7774	-0.0136	-0.0144	-0.0408	29.3978	21.5182	-15.4508	-0.3574	-0.6184	-0.4033	0.5718
3.08	-9.6372	0.0183	-0.7695	-0.0074	-0.0130	-0.0463	29.3120	21.5904	-15.3232	-0.3576	-0.6184	-0.4033	0.5719
3.09	-9.6409	0.0123	-0.7688	0.0010	-0.0078	-0.0490	29.1846	21.4301	-15.3404	-0.3576	-0.6184	-0.4033	0.5719
3.1	-9.6434	0.0209	-0.7668	0.0032	-0.0158	-0.0514	29.7675	21.3427	-15.0565	-0.3576	-0.6184	-0.4032	0.5719
3.11	-9.6445	0.0282	-0.7614	0.0118	-0.0179	-0.0495	29.8059	21.2203	-14.9528	-0.3576	-0.6184	-0.4031	0.5721
3.12	-9.6352	0.0306	-0.7481	0.0144	-0.0117	-0.0544	29.7052	21.5087	-15.2228	-0.3576	-0.6184	-0.4030	0.5721
3.13	-9.6342	0.0422	-0.7531	0.0129	-0.0137	-0.0567	29.4173	21.5201	-15.3090	-0.3576	-0.6184	-0.4030	0.5722
3.14	-9.6176	0.0555	-0.7397	0.0159	-0.0176	-0.0606	29.2312	21.4737	-15.0820	-0.3575	-0.6183	-0.4029	0.5722
3.15	-9.6063	0.0643	-0.7290	0.0059	-0.0132	-0.0587	29.3305	21.3390	-15.2322	-0.3575	-0.6183	-0.4029	0.5724
3.16	-9.6085	0.0684	-0.7330	0.0024	-0.0127	-0.0526	29.4957	21.2795	-15.2975	-0.3576	-0.6182	-0.4028	0.5724
3.17	-9.6119	0.0659	-0.7288	-0.0048	-0.0059	-0.0619	29.3899	21.5661	-15.2661	-0.3576	-0.6182	-0.4029	0.5724
3.18	-9.6097	0.0574	-0.7216	-0.0074	-0.0107	-0.0562	29.5298	21.6282	-15.3091	-0.3576	-0.6181	-0.4029	0.5725
3.19	-9.6110	0.0431	-0.7216	-0.0065	-0.0063	-0.0596	29.4029	21.5527	-15.2410	-0.3576	-0.6181	-0.4029	0.5725
3.2	-9.6199	0.0311	-0.7244	-0.0123	-0.0050	-0.0621	29.3374	21.4729	-15.4137	-0.3577	-0.6180	-0.4030	0.5725
3.21	-9.6195	0.0264	-0.7301	-0.0112	-0.0062	-0.0529	29.8324	21.1447	-15.5067	-0.3577	-0.6179	-0.4029	0.5724
3.22	-9.6215	0.0215	-0.7223	-0.0121	-0.0035	-0.0531	29.5815	21.3586	-15.1856	-0.3578	-0.6180	-0.4030	0.5725
3.23	-9.6182	0.0256	-0.7280	-0.0124	-0.0034	-0.0546	29.4772	21.1909	-15.4045	-0.3578	-0.6179	-0.4030	0.5724
3.24	-9.6074	0.0276	-0.7307	-0.0137	-0.0035	-0.0539	29.7135	21.2881	-15.4879	-0.3579	-0.6179	-0.4031	0.5724
3.25	-9.6033	0.0161	-0.7259	-0.0133	-0.0007	-0.0617	29.5307	21.2717	-15.3591	-0.3579	-0.6178	-0.4031	0.5724
3.26	-9.6049	-0.0000	-0.7346	-0.0143	0.0022	-0.0632	29.5172	21.2164	-15.3557	-0.3579	-0.6178	-0.4032	0.5724
3.27	-9.6054	-0.0174	-0.7379	-0.0120	0.0054	-0.0560	29.5682	21.3015	-15.4040	-0.3580	-0.6178	-0.4033	0.5724
3.28	-9.6079	-0.0277	-0.7334	-0.0123	0.0034	-0.0570	29.3440	21.3607	-15.2491	-0.3580	-0.6177	-0.4033	0.5723
3.29	-9.6102	-0.0363	-0.7383	-0.0112	0.0095	-0.0520	29.6542	21.3804	-15.3317	-0.3581	-0.6178	-0.4034	0.5723
3.3	-9.6226	-0.0419	-0.7396	-0.0126	0.0094	-0.0511	29.6365	21.4011	-15.6126	-0.3581	-0.6177	-0.4034	0.5722
3.31	-9.6243	-0.0447	-0.7519	-0.0124	0.0092	-0.0515	29.5074	21.5149	-15.0305	-0.3581	-0.6178	-0.4035	0.5722
3.32	-9.6208	-0.0455	-0.7496	-0.0098	0.0081	-0.0501	29.3849	21.3390	-15.3318	-0.3581	-0.6177	-0.4035	0.5721
3.33	-9.6272	-0.0290	-0.7478	-0.0140	0.0045	-0.0443	29.2937	21.4150	-15.0989	-0.3582	-0.6178	-0.4035	0.5721
3.34	-9.6368	-0.0131	-0.7597	-0.0037	0.0075	-0.0458	29.5189	21.4819	-15.1668	-0.3582	-0.6178	-0.4035	0.5720
3.35	-9.6448	-0.0006	-0.7586	0.0090	0.0090	-0.0505	29.6984	21.4651	-15.1644	-0.3582	-0.6178	-0.4035	0.5720
3.36	-9.6419	0.0147	-0.7603	0.0067	0.0065	-0.0441	29.5396	21.3650	-15.4360	-0.3582	-0.6179	-0.4035	0.5720
3.37	-9.6396	0.0324	-0.7566	0.0128	0.0061	-0.0497	29.4900	21.5299	-15.5618	-0.3582	-0.6179	-0.4034	0.5720
3.38	-9.6477	0.0361	-0.7512	0.0129	0.0039	-0.0508	29.4596	21.5325	-15.4138	-0.3582	-0.6180	-0.4034	0.5720
3.39	-9.6385	0.0377	-0.7664	0.0061	-0.0007	-0.0526	29.6781	21.2489	-15.5788	-0.3581	-0.6179	-0.4033	0.5720
3.4	-9.6313	0.0483	-0.7508	0.0029	-0.0007	-0.0513	29.7604	21.2145	-15.4224	-0.3582	-0.6180	-0.4033	0.5720
3.41	-9.6446	0.0549	-0.7491	0.0050	0.0020	-0.0507	29.6142	21.4970	-15.4933	-0.3581	-0.6180	-0.4033	0.5720
3.42	-9.6515	0.0510	-0.7581	-0.0103	-0.0024	-0.0520	29.7664	21.3761	-15.3822	-0.3582	-0.6179	-0.4033	0.5720
3.43	-9.6452	0.0554	-0.7537	-0.0075	-0.0094	-0.0498	29.7512	21.3785	-15.3497	-0.3583	-0.6179	-0.4033	0.5720
3.44	-9.6382	0.0539	-0.7418	-0.0126	-0.0038	-0.0595	29.7618	21.5011	-15.2729	-0.3583	-0.6178	-0.4034	0.5720
3.45	-9.6355	0.0447	-0.7402	-0.0148	-0.0050	-0.0588	29.5148	21.2046	-15.2603	-0.3584	-0.6178	-0.4034	0.5720
3.46	-9.6231	0.0330	-0.7459	-0.0114	-0.0057	-0.0541	29.4652	21.2044	-15.3626	-0.3584	-0.6177	-0.4034	0.5719
3.47	-9.6258	0.0308	-0.7345	-0.0120	-0.0107	-0.0517	29.5067	21.2792	-15.5906	-0.3585	-0.6177	-0.4035	0.5720
3.48	-9.6272	0.0215	-0.7323	-0.0137	-0.0025	-0.0520	29.6194	21.3566	-15.3709	-0.3585	-0.6177	-0.4035	0.5720
3.49	-9.6182	0.0158	-0.7361	-0.0137	-0.0043	-0.0576	29.4857	21.5916	-15.3788	-0.3586	-0.6176	-0.4035	0.5720
3.5	-9.6039	0.0090	-0.7407	-0.0115	0.0026	-0.0553	29.5040	21.4403	-15.3712	-0.3586	-0.6176	-0.4036	0.5719
3.51	-9.5915	0.0085	-0.7366	-0.0117	-0.0044	-0.0608	29.3226	21.4729	-15.3757	-0.3586	-0.6175	-0.4036	0.5719
3.52	-9.6003	0.0093	-0.7284	-0.0133	0.0041	-0.0594	29.1673	21.4558	-15.3765	-0.3587	-0.6175	-0.4037	0.5719
3.53	-9.6037	0.0059	-0.7404	-0.0096	0.0119	-0.0665	29.3286	21.4652	-15.3651	-0.3586	-0.6174	-0.4037	0.5718
3.54	-9.6115	0.0057	-0.7369	-0.0067	0.0016	-0.0624	29.2977	21.4598	-15.4920	-0.3587	-0.6175	-0.4038	0.5719
3.55	-9.6239	0.0110	-0.7323	-0.0095	0.0078	-0.0586	29.4832	21.4639	-15.4356	-0.3587	-0.6174	-0.4039	0.5718
3.56	-9.6447	0.0120	-0.7426	-0.0068	0.0115	-0.0580	29.4719	21.4720	-15.2799	-0.3587	-0.6175	-0.4040	0.5718
3.57	-9.6286	0.0027	-0.7505	-0.0102	0.0079	-0.0561	29.6021	21.3862	-15.2755	-0.3587	-0.6174	-0.4040	0.5717
3.58	-9.6072	0.0029	-0.7399	-0.0052	0.0049	-0.0535	29.5338	21.2287	-15.4009	-0.3587	-0.6175	-0.4040	0.5717
3.59	-9.6244	0.0171	-0.7446	0.0012	0.0111	-0.0561	29.7079	21.2259	-15.3181	-0.3587	-0.6175	-0.4040	0.5717
3.6	-9.6135	0.0192	-0.7678	-0.0066	0.0073	-0.0554	30.0681	21.4088	-15.1751	-0.3586	-0.6175	-0.4040	0.5717
3.61	-9.5926	0.0096	-0.7477	-0.0139	0.0031	-0.0559	30.0047	21.2679	-15.1865	-0.3586	-0.6176	-0.4040	0.5718
3.62	-9.5958	0.0086	-0.7377	-0.0094	0.0078	-0.0531	29.5567	21.2711	-15.2197	-0.3586	-0.6175	-0.4040	0.5717
3.63	-9.6212	0.0257	-0.7609	-0.0126	0.0156	-0.0529	29.3196	21.2581	-15.2930	-0.3587	-0.6176	-0.4041	0.5716
3.64	-9.6675	0.0323	-0.7537	-0.0121	0.0093	-0.0549	29.2696	21.3527	-15.3598	-0.3586	-0.6175	-0.4041	0.5715
3.65	-9.7064	0.0151	-0.7603	-0.0119	0.0136	-0.0509	29.3614	21.4273	-15.3360	-0.3587	-0.6176	-0.4042	0.5715
3.66	-9.6974	0.0036	-0.7835	-0.0124	0.0038	-0.0548	29.4776	21.2672	-15.3397	-0.3587	-0.6175	-0.4042	0.5714
3.67	-9.6450	-0.0028	-0.7687	-0.0113	-0.0062	-0.0562	29.2519	21.5039	-15.3396	-0.3588	-0.6175	-0.4043	0.5714
3.68	-9.5905	-0.0143	-0.7539	-0.0120	-0.0095	-0.0533	29.2353	21.5189	-15.3500	-0.3588	-0.6175	-0.4043	0.5715
3.69	-9.5814	-0.0263	-0.7488	-0.0114	0.0038	-0.0508	29.3899	21.3607	-15.3261	-0.3589	-0.6174	-0.4043	0.5714
3.7	-9.6072	-0.0263	-0.7632	-0.0127	0.0124	-0.0446	29.4509	21.3180	-15.1433	-0.3589	-0.6175	-0.4044	0.5714
3.71	-9.6138	-0.0096	-0.7767	-0.0092	0.0062	-0.0426	29.3199	21.4133	-15.2345	-0.3589	-0.6174	-0.4043	0.5712
3.72	-9.6176	0.0163	-0.7721	-0.0087	0.0103	-0.0426	29.3472	21.4427	-15.3844	-0.3590	-0.6175	-0.4044	0.5712
3.73	-9.6179	0.0280	-0.7764	-0.0102	0.0106	-0.0522	29.1442	21.3640	-15.1084	-0.3591	-0.6175	-0.4044	0.5712
3.74	-9.6212	0.0185	-0.7876	-0.0039	0.0177	-0.0588	29.2331	21.3575	-15.0443	-0.3590	-0.6176	-0.4045	0.5711
3.75	-9.6130	0.0274	-0.7898	-0.0029	0.0058	-0.0554	29.3251	21.6584	-15.1532	-0.3590	-0.6175	-0.4045	0.5711
3.76	-9.6107	0.0342	-0.7795	0.0031	0.0054	-0.0543	29.3913	21.5264	-15.4694	-0.3590	-0.6176	-0.4045	0.5711
3.77	-9.6051	0.0454	-0.7820	-0.0055	0.0101	-0.0568	29.5696	21.3457	-15.4929	-0.3590	-0.6176	-0.4045	0.5710
3.78	-9.5981	0.0411	-0.7892	-0.0032	0.0111	-0.0622	29.4080	21.2454	-15.3333	-0.3590	-0.6175	-0.4045	0.5710
3.79	-9.6022	0.0353	-0.7875	-0.0110	0.0088	-0.0572	29.4148	21.2467	-15.2031	-0.3590	-0.6176	-0.4047	0.5710
3.8	-9.6097	0.0420	-0.7894	-0.0117	0.0155	-0.0528	29.3071	21.2442	-15.3368	-0.3590	-0.6176	-0.4047	0.5709
3.81	-9.6206	0.0361	-0.7970	-0.0118	0.0197	-0.0519	29.3391	21.5155	-15.4876	-0.3591	-0.6177	-0.4048	0.5709
3.82	-9.6279	0.0237	-0.8028	-0.0140	0.0186	-0.0549	29.4229	21.4066	-15.3165	-0.3590	-0.6176	-0.4048	0.5707
3.83	-9.6429	0.0130	-0.8138	-0.0183	0.0175	-0.0491	29.3047	21.5623	-15.3435	-0.3591	-0.6177	-0.4049	0.5706
3.84	-9.6508	0.0012	-0.8266	-0.0141	0.0174	-0.0514	29.3902	21.3949	-15.1850	-0.3591	-0.6177	-0.4050	0.5706
3.85	-9.6572	0.0050	-0.8235	-0.0149	0.0200	-0.0487	29.4450	21.2505	-15.3760	-0.3591	-0.6177	-0.4050	0.5704
3.86	-9.6688	0.0017	-0.8320	-0.0136	0.0103	-0.0484	29.3964	21.1154	-15.1846	-0.3592	-0.6178	-0.4051	0.5704
3.87	-9.6724	0.0042	-0.8391	-0.0133	0.0120	-0.0505	29.3254	21.2498	-15.3401	-0.3592	-0.6177	-0.4051	0.5703
3.88	-9.6823	0.0152	-0.8341	-0.0118	0.0061	-0.0488	29.2970	21.3485	-15.4729	-0.3594	-0.6178	-0.4051	0.5703
3.89	-9.6842	0.0224	-0.8240	-0.0125	-0.0003	-0.0574	29.1112	21.4099	-15.3473	-0.3594	-0.6177	-0.4050	0.5702
3.9	-9.6772	0.0153	-0.8275	-0.0098	0.0004	-0.0568	29.3183	21.5252	-15.0707	-0.3595	-0.6177	-0.4050	0.5702
3.91	-9.6617	0.0090	-0.8234	-0.0063	-0.0051	-0.0632	29.4730	21.5335	-15.1394	-0.3596	-0.6177	-0.4050	0.5702
3.92	-9.6280	0.0117	-0.8212	-0.0064	-0.0122	-0.0634	29.3302	21.3598	-15.0732	-0.3596	-0.6176	-0.4050	0.5703
3.93	-9.6052	0.0129	-0.7932	-0.0035	-0.0115	-0.0592	29.3305	21.3119	-15.1653	-0.3597	-0.6176	-0.4050	0.5703
3.94	-9.6492	0.0077	-0.7724	-0.0108	-0.0106	-0.0579	29.2137	21.4796	-15.2589	-0.3597	-0.6175	-0.4050	0.5703
3.95	-9.6540	-0.0183	-0.8023	-0.0120	-0.0155	-0.0569	29.5131	21.3328	-15.0842	-0.3599	-0.6174	-0.4050	0.5704
3.96	-9.6180	-0.0231	-0.7792	-0.0127	-0.0209	-0.0532	29.4300	21.3437	-15.2929	-0.3599	-0.6173	-0.4049	0.5703
3.97	-9.6034	-0.0131	-0.7599	-0.0071	-0.0134	-0.0537	29.4141	21.3120	-15.1891	-0.3600	-0.6173	-0.4050	0.5704
3.98	-9.5754	-0.0187	-0.7639	-0.0026	-0.0220	-0.0554	29.4174	21.2276	-15.2024	-0.3601	-0.6172	-0.4049	0.5705
3.99	-9.6021	-0.0188	-0.7341	-0.0087	-0.0089	-0.0548	29.1946	21.2485	-15.5016	-0.3601	-0.6172	-0.4050	0.5705
4	-9.6208	-0.0198	-0.7690	-0.0064	-0.0005	-0.0424	29.3901	21.2452	-15.1816	-0.3602	-0.6171	-0.4049	0.5705
4.01	-9.6072	-0.0035	-0.7667	-0.0038	-0.0069	-0.0398	29.3615	21.3591	-15.3182	-0.3602	-0.6171	-0.4049	0.5705
4.02	-9.6060	0.0373	-0.7318	-0.0048	-0.0112	-0.0350	29.2242	21.3245	-15.5021	-0.3604	-0.6171	-0.4048	0.5705
4.03	-9.6246	0.0440	-0.7463	-0.0017	-0.0011	-0.0388	29.5455	21.7058	-15.2496	-0.3604	-0.6171	-0.4047	0.5704
4.04	-9.6384	0.0291	-0.7732	0.0008	0.0061	-0.0470	29.5109	21.6789	-15.1378	-0.3604	-0.6172	-0.4048	0.5704
4.05	-9.6269	0.0429	-0.7643	0.0064	-0.0039	-0.0500	29.3393	21.5498	-15.0437	-0.3604	-0.6172	-0.4047	0.5704
4.06	-9.6235	0.0592	-0.7508	0.0003	0.0053	-0.0529	29.1411	21.4301	-15.3586	-0.3605	-0.6172	-0.4047	0.5705
4.07	-9.6251	0.0485	-0.7638	-0.0068	-0.0002	-0.0596	29.1571	21.4090	-15.3100	-0.3604	-0.6171	-0.4047	0.5704
4.08	-9.6177	0.0438	-0.7727	-0.0096	0.0014	-0.0581	29.2751	21.4297	-15.5305	-0.3605	-0.6171	-0.4048	0.5704
4.09	-9.6090	0.0412	-0.7612	-0.0073	0.0011	-0.0614	29.2185	21.5866	-15.4046	-0.3605	-0.6171	-0.4048	0.5704
4.1	-9.6022	0.0376	-0.7692	-0.0074	0.0013	-0.0651	29.6858	21.6006	-15.0109	-0.3605	-0.6170	-0.4048	0.5704
4.11	-9.6127	0.0248	-0.7635	-0.0132	0.0098	-0.0603	29.8971	21.6080	-15.1984	-0.3605	-0.6171	-0.4050	0.5704
4.12	-9.6268	0.0076	-0.7681	-0.0112	0.0058	-0.0565	29.7997	21.6897	-15.0939	-0.3605	-0.6170	-0.4050	0.5703
4.13	-9.6420	0.0049	-0.7792	-0.0126	-0.0005	-0.0483	29.5464	21.5389	-15.1733	-0.3606	-0.6171	-0.4050	0.5703
4.14	-9.6453	0.0006	-0.7779	-0.0110	0.0035	-0.0433	29.3916	21.3914	-15.2160	-0.3606	-0.6170	-0.4050	0.5702
4.15	-9.6520	-0.0089	-0.7803	-0.0151	0.0076	-0.0336	29.9561	21.1494	-15.3172	-0.3607	-0.6171	-0.4050	0.5702
4.16	-9.6546	-0.0157	-0.7816	-0.0142	-0.0005	-0.0387	29.7105	20.9364	-15.4189	-0.3608	-0.6171	-0.4050	0.5701
4.17	-9.6585	-0.0184	-0.7874	-0.0120	0.0026	-0.0345	29.4739	21.0037	-15.2842	-0.3609	-0.6171	-0.4049	0.5700
4.18	-9.6539	-0.0163	-0.7881	-0.0142	-0.0069	-0.0359	29.6373	21.1468	-15.1974	-0.3611	-0.6171	-0.4049	0.5700
4.19	-9.6446	-0.0136	-0.7831	-0.0048	-0.0031	-0.0431	29.4544	21.3561	-15.4564	-0.3611	-0.6170	-0.4049	0.5700
4.2	-9.6456	0.0029	-0.7771	0.0120	-0.0064	-0.0476	29.6227	21.1948	-15.2922	-0.3612	-0.6171	-0.4048	0.5700
4.21	-9.6450	0.0236	-0.7772	0.0133	-0.0146	-0.0481	29.5132	21.2920	-15.3036	-0.3612	-0.6170	-0.4046	0.5700
4.22	-9.6495	0.0337	-0.7720	0.0139	-0.0093	-0.0478	29.4206	21.3986	-15.0622	-0.3613	-0.6171	-0.4045	0.5701
4.23	-9.6433	0.0485	-0.7659	0.0139	-0.0196	-0.0479	29.4080	21.3837	-15.3313	-0.3614	-0.6171	-0.4044	0.5702
4.24	-9.6479	0.0555	-0.7580	0.0122	-0.0123	-0.0566	29.2415	21.3613	-15.1756	-0.3614	-0.6171	-0.4043	0.5703
4.25	-9.6455	0.0590	-0.7617	0.0082	-0.0074	-0.0593	29.2494	21.4942	-15.4308	-0.3614	-0.6170	-0.4042	0.5703
4.26	-9.6275	0.0655	-0.7533	0.0128	-0.0102	-0.0535	29.3869	21.5482	-15.4656	-0.3614	-0.6170	-0.4042	0.5704
4.27	-9.6163	0.0642	-0.7423	0.0010	-0.0172	-0.0552	29.4738	21.6253	-15.3772	-0.3615	-0.6170	-0.4041	0.5704
4.28	-9.6191	0.0601	-0.7318	-0.0061	-0.0139	-0.0586	29.6575	21.5872	-15.3296	-0.3615	-0.6169	-0.4041	0.5704
4.29	-9.6244	0.0568	-0.7429	-0.0018	-0.0113	-0.0607	29.2405	21.4327	-15.1622	-0.3615	-0.6169	-0.4041	0.5706
4.3	-9.6224	0.0604	-0.7334	-0.0087	-0.0162	-0.0612	29.3274	21.3502	-15.4187	-0.3616	-0.6168	-0.4041	0.5706
4.31	-9.6230	0.0644	-0.7258	-0.0119	-0.0141	-0.0605	29.2543	21.4640	-15.5295	-0.3616	-0.6167	-0.4042	0.5707
4.32	-9.6128	0.0570	-0.7236	-0.0114	-0.0157	-0.0579	29.4268	21.3977	-15.3508	-0.3617	-0.6166	-0.4041	0.5706
4.33	-9.6105	0.0545	-0.7185	-0.0112	-0.0142	-0.0636	29.6601	21.1171	-15.4302	-0.3617	-0.6165	-0.4042	0.5707
4.34	-9.6086	0.0618	-0.7200	-0.0119	-0.0079	-0.0627	29.5730	21.1610	-15.6531	-0.3618	-0.6165	-0.4042	0.5707
4.35	-9.6105	0.0621	-0.7201	-0.0129	-0.0050	-0.0680	29.6375	21.2942	-15.3571	-0.3618	-0.6164	-0.4043	0.5707
4.36	-9.6125	0.0588	-0.7136	-0.0168	-0.0082	-0.0710	29.4805	21.3054	-15.5116	-0.3618	-0.6163	-0.4044	0.5708
4.37	-9.6183	0.0464	-0.7176	-0.0178	-0.0055	-0.0728	29.5614	21.4045	-15.4370	-0.3618	-0.6162	-0.4045	0.5708
4.38	-9.6220	0.0319	-0.7227	-0.0194	-0.0012	-0.0644	29.4189	21.3686	-15.3577	-0.3619	-0.6162	-0.4046	0.5708
4.39	-9.6107	0.0073	-0.7180	-0.0276	-0.0032	-0.0661	29.5301	21.3957	-15.4841	-0.3619	-0.6160	-0.4046	0.5707
4.4	-9.6015	-0.0195	-0.7226	-0.0374	-0.0023	-0.0638	29.4887	21.2480	-15.6060	-0.3620	-0.6160	-0.4048	0.5707
4.41	-9.5982	-0.0369	-0.7254	-0.0336	-0.0037	-0.0606	29.2572	21.3571	-15.4998	-0.3621	-0.6159	-0.4049	0.5706
4.42	-9.5902	-0.0626	-0.7332	-0.0331	-0.0011	-0.0572	29.4765	21.3960	-15.1837	-0.3622	-0.6158	-0.4050	0.5706
4.43	-9.5980	-0.0784	-0.7341	-0.0306	0.0127	-0.0637	29.2823	21.2862	-15.2149	-0.3623	-0.6157	-0.4051	0.5705
4.44	-9.6140	-0.0947	-0.7404	-0.0215	0.0127	-0.0557	29.4306	21.2924	-15.1896	-0.3623	-0.6157	-0.4052	0.5704
4.45	-9.6361	-0.1045	-0.7524	-0.0133	0.0124	-0.0556	29.5299	21.7411	-15.4730	-0.3624	-0.6157	-0.4053	0.5704
4.46	-9.6489	-0.1030	-0.7582	-0.0100	0.0112	-0.0496	29.2028	21.6319	-15.4930	-0.3624	-0.6157	-0.4053	0.5703
4.47	-9.6505	-0.0925	-0.7606	-0.0067	0.0095	-0.0474	29.3937	21.4733	-15.3845	-0.3624	-0.6158	-0.4053	0.5703
4.48	-9.6515	-0.0718	-0.7591	0.0085	0.0090	-0.0464	29.4400	21.5336	-15.3558	-0.3624	-0.6158	-0.4053	0.5702
4.49	-9.6435	-0.0459	-0.7613	0.0147	0.0026	-0.0439	29.4240	21.4852	-15.2605	-0.3624	-0.6159	-0.4052	0.5703
4.5	-9.6372	-0.0294	-0.7590	0.0136	-0.0040	-0.0453	29.4454	21.7921	-15.4307	-0.3624	-0.6159	-0.4051	0.5703
4.51	-9.6376	-0.0080	-0.7555	0.0147	-0.0021	-0.0436	29.2737	21.3131	-15.2272	-0.3624	-0.6159	-0.4051	0.5703
4.52	-9.6366	0.0154	-0.7609	0.0264	-0.0039	-0.0445	29.2927	21.1044	-15.2098	-0.3624	-0.6160	-0.4050	0.5704
4.53	-9.6355	0.0409	-0.7470	0.0242	-0.0026	-0.0412	29.7494	21.1996	-15.5104	-0.3623	-0.6160	-0.4048	0.5703
4.54	-9.6461	0.0618	-0.7489	0.0147	0.0038	-0.0391	29.6445	21.2163	-15.3343	-0.3624	-0.6161	-0.4048	0.5704
4.55	-9.6436	0.0671	-0.7510	0.0237	0.0028	-0.0406	29.4884	21.1969	-15.3078	-0.3623	-0.6162	-0.4046	0.5704
4.56	-9.6432	0.0835	-0.7382	0.0089	-0.0087	-0.0418	29.5209	21.2425	-15.4720	-0.3624	-0.6162	-0.4046	0.5705
4.57	-9.6257	0.0954	-0.7381	0.0013	-0.0051	-0.0501	29.5336	21.5209	-15.5845	-0.3623	-0.6161	-0.4045	0.5704
4.58	-9.6279	0.1039	-0.7304	-0.0058	-0.0017	-0.0474	29.5886	21.1662	-15.5540	-0.3624	-0.6162	-0.4045	0.5704
4.59	-9.6317	0.0958	-0.7330	-0.0100	0.0041	-0.0494	29.7241	21.1721	-15.2031	-0.3624	-0.6162	-0.4045	0.5704
4.6	-9.6329	0.0889	-0.7310	-0.0127	0.0019	-0.0524	30.1161	21.5128	-15.2610	-0.3625	-0.6161	-0.4045	0.5703
4.61	-9.6419	0.0782	-0.7281	-0.0111	0.0058	-0.0536	29.9212	21.4493	-15.4397	-0.3626	-0.6162	-0.4046	0.5704
4.62	-9.6408	0.0676	-0.7348	-0.0140	0.0086	-0.0572	29.5847	21.5292	-15.2107	-0.3625	-0.6161	-0.4046	0.5703
4.63	-9.6337	0.0490	-0.7347	-0.0146	-0.0025	-0.0630	29.2907	21.4387	-15.0793	-0.3626	-0.6161	-0.4047	0.5703
4.64	-9.6237	0.0274	-0.7381	-0.0225	-0.0018	-0.0644	29.1251	21.5494	-15.1893	-0.3626	-0.6159	-0.4048	0.5702
4.65	-9.6115	0.0110	-0.7344	-0.0212	-0.0005	-0.0640	29.2254	21.4491	-15.2050	-0.3627	-0.6159	-0.4049	0.5702
4.66	-9.6084	0.0073	-0.7330	-0.0164	0.0046	-0.0641	29.1796	21.3121	-15.2836	-0.3627	-0.6159	-0.4050	0.5702
4.67	-9.6194	-0.0054	-0.7384	-0.0320	0.0106	-0.0615	29.2594	21.5675	-15.2666	-0.3628	-0.6158	-0.4051	0.5701
4.68	-9.6350	-0.0216	-0.7455	-0.0265	0.0070	-0.0512	29.4207	21.2703	-15.3468	-0.3629	-0.6158	-0.4052	0.5701
4.69	-9.6419	-0.0265	-0.7420	-0.0268	0.0076	-0.0512	29.3062	21.5301	-15.4183	-0.3629	-0.6158	-0.4052	0.5700
4.7	-9.6358	-0.0279	-0.7431	-0.0167	-0.0008	-0.0539	29.1298	21.3907	-15.4102	-0.3630	-0.6158	-0.4053	0.5700
4.71	-9.6321	-0.0353	-0.7467	-0.0127	0.0044	-0.0550	29.3922	21.2206	-15.3228	-0.3630	-0.6157	-0.4053	0.5699
4.72	-9.6478	-0.0456	-0.7437	-0.0125	-0.0003	-0.0472	29.3736	21.2485	-15.4894	-0.3631	-0.6157	-0.4054	0.5699
4.73	-9.6599	-0.0545	-0.7487	-0.0102	0.0014	-0.0520	29.3699	21.2527	-15.2461	-0.3631	-0.6157	-0.4054	0.5699
4.74	-9.6448	-0.0570	-0.7542	-0.0043	0.0002	-0.0515	29.3940	21.2117	-15.3363	-0.3632	-0.6157	-0.4054	0.5699
4.75	-9.6345	-0.0397	-0.7334	0.0005	-0.0073	-0.0487	29.2633	21.4600	-15.4670	-0.3632	-0.6156	-0.4053	0.5698
4.76	-9.6601	-0.0136	-0.7299	0.0068	-0.0010	-0.0486	29.3213	21.3607	-15.4570	-0.3632	-0.6157	-0.4053	0.5699
4.77	-9.6432	0.0112	-0.7420	0.0132	-0.0040	-0.0491	29.3990	21.3740	-15.6189	-0.3632	-0.6157	-0.4052	0.5699
4.78	-9.5986	0.0217	-0.7107	0.0149	-0.0175	-0.0512	29.3610	21.4387	-15.3408	-0.3632	-0.6156	-0.4051	0.5699
4.79	-9.5825	0.0258	-0.6913	0.0114	-0.0111	-0.0551	29.3905	21.4163	-15.1749	-0.3632	-0.6157	-0.4051	0.5701
4.8	-9.5736	0.0381	-0.7076	0.0155	0.0036	-0.0530	29.3546	21.4103	-15.2872	-0.3632	-0.6157	-0.4050	0.5701
4.81	-9.5928	0.0576	-0.6866	0.0150	-0.0021	-0.0554	29.1805	21.4851	-15.2794	-0.3632	-0.6157	-0.4050	0.5702
4.82	-9.6266	0.0438	-0.6928	0.0025	0.0067	-0.0610	29.3080	21.5210	-15.2400	-0.3631	-0.6157	-0.4050	0.5701
4.83	-9.6363	0.0250	-0.7220	-0.0112	0.0065	-0.0579	29.1415	21.6123	-15.3457	-0.3631	-0.6157	-0.4051	0.5701
4.84	-9.5897	0.0231	-0.7141	-0.0125	-0.0028	-0.0483	29.3197	21.3747	-15.2638	-0.3632	-0.6157	-0.4051	0.5701
4.85	-9.5397	0.0209	-0.6866	-0.0107	0.0027	-0.0447	29.4061	21.3052	-15.1150	-0.3632	-0.6156	-0.4051	0.5700
4.86	-9.5379	0.0090	-0.6948	-0.0115	0.0123	-0.0403	29.3572	21.3598	-15.4132	-0.3633	-0.6157	-0.4051	0.5700
4.87	-9.5585	0.0056	-0.7250	-0.0111	0.0264	-0.0348	29.2556	21.2943	-15.1900	-0.3633	-0.6158	-0.4051	0.5698
4.88	-9.5875	0.0212	-0.7337	-0.0138	0.0301	-0.0311	29.3534	21.4292	-15.3849	-0.3634	-0.6159	-0.4052	0.5697
4.89	-9.6091	0.0491	-0.7507	-0.0098	0.0314	-0.0284	29.4688	21.3270	-15.2536	-0.3634	-0.6159	-0.4051	0.5695
4.9	-9.6183	0.0708	-0.7605	0.0042	0.0398	-0.0396	29.4732	21.2376	-15.2718	-0.3634	-0.6161	-0.4052	0.5694
4.91	-9.6302	0.0700	-0.7785	0.0034	0.0404	-0.0482	29.4457	21.3882	-15.4347	-0.3633	-0.6163	-0.4052	0.5692
4.92	-9.6359	0.0853	-0.8021	-0.0054	0.0366	-0.0503	29.5039	21.2214	-15.4652	-0.3633	-0.6163	-0.4052	0.5691
4.93	-9.6387	0.1113	-0.7944	-0.0089	0.0280	-0.0527	29.3163	21.3520	-15.3429	-0.3633	-0.6164	-0.4053	0.5690
4.94	-9.6410	0.1088	-0.8029	-0.0123	0.0314	-0.0624	29.2142	21.4408	-15.2335	-0.3632	-0.6165	-0.4054	0.5689
4.95	-9.6369	0.0908	-0.8136	-0.0110	0.0194	-0.0662	29.2936	21.1896	-15.3351	-0.3632	-0.6165	-0.4055	0.5689
4.96	-9.6432	0.0718	-0.8178	-0.0086	0.0312	-0.0638	29.3733	21.4572	-15.3841	-0.3631	-0.6165	-0.4056	0.5687
4.97	-9.6537	0.0527	-0.8257	-0.0236	0.0296	-0.0595	29.4634	21.2612	-15.2185	-0.3632	-0.6166	-0.4058	0.5686
4.98	-9.6569	0.0317	-0.8234	-0.0232	0.0151	-0.0584	29.3587	21.0069	-15.1544	-0.3632	-0.6165	-0.4059	0.5685
4.99	-9.6707	0.0096	-0.8331	-0.0194	0.0267	-0.0570	29.3153	21.3783	-15.1810	-0.3632	-0.6166	-0.4060	0.5684
5	-9.6773	-0.0006	-0.8398	-0.0241	0.0231	-0.0484	29.2692	21.2835	-15.1681	-0.3632	-0.6166	-0.4061	0.5683
5.01	-9.6861	-0.0004	-0.8352	-0.0108	0.0136	-0.0527	29.4156	21.5392	-15.3116	-0.3633	-0.6166	-0.4061	0.5682
5.02	-9.6955	-0.0061	-0.8388	-0.0132	0.0086	-0.0480	29.1474	21.5580	-14.9996	-0.3634	-0.6166	-0.4061	0.5682
5.03	-9.6890	-0.0053	-0.8419	-0.0111	0.0076	-0.0584	29.3879	21.4834	-15.0672	-0.3634	-0.6166	-0.4060	0.5681
5.04	-9.6758	0.0071	-0.8305	-0.0127	-0.0055	-0.0586	29.3687	21.6187	-15.2071	-0.3636	-0.6166	-0.4061	0.5681
5.05	-9.6664	0.0101	-0.8188	-0.0112	-0.0017	-0.0631	29.4042	21.4483	-15.1678	-0.3636	-0.6165	-0.4061	0.5681
5.06	-9.6549	0.0060	-0.8147	-0.0106	-0.0069	-0.0620	29.2851	21.3553	-15.1698	-0.3637	-0.6165	-0.4061	0.5682
5.07	-9.6328	-0.0012	-0.8061	-0.0119	-0.0131	-0.0614	29.3796	21.2399	-15.2665	-0.3638	-0.6164	-0.4061	0.5681
5.08	-9.6134	-0.0029	-0.7950	-0.0131	-0.0184	-0.0527	29.4765	21.2277	-15.2629	-0.3639	-0.6163	-0.4061	0.5682
5.09	-9.5962	-0.0144	-0.7910	-0.0109	-0.0132	-0.0520	29.5068	21.3083	-15.0732	-0.3639	-0.6163	-0.4061	0.5682
5.1	-9.5635	-0.0199	-0.7905	-0.0104	-0.0038	-0.0428	29.9433	21.3491	-15.1410	-0.3640	-0.6162	-0.4061	0.5682
5.11	-9.5780	-0.0167	-0.7543	-0.0090	-0.0029	-0.0338	29.8929	21.2464	-15.4055	-0.3641	-0.6163	-0.4061	0.5682
5.12	-9.6169	-0.0236	-0.7748	-0.0012	0.0009	-0.0300	29.8209	21.2371	-15.1079	-0.3642	-0.6163	-0.4060	0.5681
5.13	-9.5872	-0.0299	-0.7894	-0.0113	-0.0091	-0.0292	29.5652	21.2936	-15.2762	-0.3643	-0.6163	-0.4059	0.5681
5.14	-9.5556	0.0013	-0.7516	0.0120	-0.0061	-0.0271	29.2653	21.4183	-15.2865	-0.3644	-0.6163	-0.4058	0.5680
5.15	-9.5264	0.0380	-0.7554	0.0137	0.0012	-0.0293	29.5992	21.2478	-15.2920	-0.3644	-0.6164	-0.4057	0.5681
5.16	-9.5388	0.0612	-0.7445	0.0217	0.0105	-0.0309	29.6432	21.3462	-15.5529	-0.3644	-0.6165	-0.4055	0.5680
5.17	-9.5942	0.0784	-0.7661	0.0201	0.0277	-0.0360	29.4581	21.4603	-15.2657	-0.3643	-0.6166	-0.4055	0.5679
5.18	-9.6139	0.1127	-0.8034	0.0325	0.0301	-0.0359	29.5870	21.4863	-15.1837	-0.3643	-0.6168	-0.4054	0.5679
5.19	-9.6130	0.1696	-0.7822	0.0343	0.0210	-0.0486	29.4382	21.4400	-15.4409	-0.3641	-0.6170	-0.4053	0.5679
5.2	-9.6459	0.2044	-0.7850	0.0273	0.0375	-0.0647	29.5349	21.5426	-15.2654	-0.3640	-0.6171	-0.4053	0.5679
5.21	-9.6859	0.2094	-0.8274	0.0180	0.0430	-0.0772	29.2767	21.5545	-15.3673	-0.3637	-0.6171	-0.4054	0.5678
5.22	-9.7122	0.2069	-0.8437	0.0210	0.0312	-0.0930	29.4337	21.5678	-15.3794	-0.3635	-0.6173	-0.4055	0.5678
5.23	-9.7067	0.1983	-0.8381	0.0024	0.0160	-0.1024	29.6554	21.5119	-15.3567	-0.3633	-0.6172	-0.4057	0.5679
5.24	-9.6965	0.1854	-0.8380	-0.0109	0.0171	-0.1002	29.3894	21.4525	-15.3926	-0.3632	-0.6171	-0.4059	0.5679
5.25	-9.6878	0.1614	-0.8530	-0.0197	0.0095	-0.1044	29.3940	21.3967	-15.2412	-0.3632	-0.6170	-0.4061	0.5679
5.26	-9.6776	0.1207	-0.8469	-0.0349	0.0027	-0.1014	29.5025	21.2211	-15.4478	-0.3632	-0.6169	-0.4063	0.5679
5.27	-9.6668	0.0785	-0.8385	-0.0554	-0.0015	-0.1031	29.4707	21.2350	-15.3925	-0.3633	-0.6167	-0.4065	0.5679
5.28	-9.6655	0.0252	-0.8394	-0.0645	-0.0025	-0.1006	29.4767	21.4156	-15.3661	-0.3634	-0.6164	-0.4068	0.5678
5.29	-9.6681	-0.0366	-0.8402	-0.0830	-0.0042	-0.0936	29.5879	21.1458	-15.2366	-0.3636	-0.6162	-0.4071	0.5678
5.3	-9.6765	-0.0938	-0.8363	-0.0947	-0.0113	-0.0745	29.7009	21.2865	-15.3246	-0.3639	-0.6160	-0.4074	0.5676
5.31	-9.6891	-0.1464	-0.8359	-0.0962	-0.0194	-0.0636	29.5743	21.4927	-15.0995	-0.3643	-0.6158	-0.4076	0.5676
5.32	-9.6916	-0.2013	-0.8306	-0.0935	-0.0180	-0.0540	29.5782	21.4616	-15.1845	-0.3646	-0.6155	-0.4078	0.5674
5.33	-9.6873	-0.2528	-0.8310	-0.0897	-0.0196	-0.0420	29.4272	21.2413	-15.2792	-0.3650	-0.6153	-0.4079	0.5673
5.34	-9.6783	-0.2880	-0.8264	-0.0735	-0.0289	-0.0374	29.4040	21.3587	-15.3261	-0.3654	-0.6151	-0.4080	0.5672
5.35	-9.6542	-0.3080	-0.8225	-0.0596	-0.0392	-0.0286	29.6134	21.3908	-15.3338	-0.3658	-0.6149	-0.4080	0.5671
5.36	-9.6417	-0.3112	-0.8036	-0.0325	-0.0338	-0.0268	29.4312	21.4624	-15.0118	-0.3661	-0.6149	-0.4079	0.5671
5.37	-9.6338	-0.2915	-0.7873	-0.0076	-0.0410	-0.0207	29.4125	21.6446	-15.3403	-0.3663	-0.6147	-0.4077	0.5671
5.38	-9.6327	-0.2600	-0.7766	0.0148	-0.0427	-0.0153	29.3150	21.5739	-15.3212	-0.3665	-0.6148	-0.4075	0.5672
5.39	-9.6371	-0.2091	-0.7612	0.0458	-0.0398	-0.0179	29.3077	21.5499	-15.2462	-0.3665	-0.6147	-0.4072	0.5673
5.4	-9.6422	-0.1515	-0.7425	0.0638	-0.0410	-0.0191	29.3876	21.6513	-15.4276	-0.3666	-0.6148	-0.4068	0.5676
5.41	-9.6430	-0.0793	-0.7307	0.0845	-0.0415	-0.0225	29.4608	21.6715	-15.2996	-0.3666	-0.6149	-0.4063	0.5678
5.42	-9.6484	0.0072	-0.7104	0.0961	-0.0418	-0.0220	29.4228	21.4955	-15.2638	-0.3665	-0.6150	-0.4058	0.5680
5.43	-9.6405	0.0862	-0.6870	0.1075	-0.0430	-0.0323	29.2883	21.3535	-15.3775	-0.3663	-0.6152	-0.4054	0.5684
5.44	-9.6308	0.1696	-0.6695	0.1139	-0.0519	-0.0340	29.2839	21.5214	-15.2415	-0.3661	-0.6152	-0.4049	0.5687
5.45	-9.6199	0.2376	-0.6471	0.1022	-0.0461	-0.0472	29.4090	21.3686	-15.5472	-0.3660	-0.6153	-0.4045	0.5691
5.46	-9.6176	0.2751	-0.6268	0.0847	-0.0479	-0.0619	29.5996	21.0605	-15.5278	-0.3657	-0.6153	-0.4042	0.5693
5.47	-9.6187	0.2873	-0.6293	0.0683	-0.0373	-0.0774	29.5521	21.2885	-15.6883	-0.3656	-0.6153	-0.4040	0.5697
5.48	-9.6104	0.2912	-0.6220	0.0582	-0.0315	-0.0897	29.4054	21.3510	-15.5576	-0.3654	-0.6152	-0.4039	0.5700
5.49	-9.5899	0.2855	-0.5989	0.0307	-0.0330	-0.0951	29.1505	21.0307	-15.6193	-0.3652	-0.6151	-0.4038	0.5702
5.5	-9.5603	0.2607	-0.5900	0.0043	-0.0312	-0.0992	29.4410	21.3566	-15.6400	-0.3651	-0.6149	-0.4039	0.5704
5.51	-9.5412	0.2314	-0.5839	-0.0221	-0.0197	-0.1011	29.5881	21.3412	-15.6733	-0.3651	-0.6147	-0.4041	0.5705
5.52	-9.5386	0.1961	-0.5872	-0.0458	-0.0101	-0.0960	29.5812	21.2809	-15.7261	-0.3652	-0.6146	-0.4043	0.5706
5.53	-9.5480	0.1412	-0.5887	-0.0776	-0.0037	-0.0995	29.4791	21.2825	-15.4933	-0.3652	-0.6142	-0.4046	0.5705
5.54	-9.5583	0.0596	-0.5969	-0.0993	-0.0031	-0.0937	29.3920	21.3113	-15.7098	-0.3655	-0.6141	-0.4051	0.5704
5.55	-9.5388	-0.0255	-0.6105	-0.1231	0.0109	-0.0832	29.3427	21.5368	-15.5428	-0.3657	-0.6137	-0.4055	0.5702
5.56	-9.5245	-0.1067	-0.6249	-0.1339	0.0149	-0.0693	29.0695	21.6201	-15.4199	-0.3661	-0.6136	-0.4060	0.5700
5.57	-9.4986	-0.1827	-0.6365	-0.1372	0.0201	-0.0596	29.3333	21.6655	-15.5909	-0.3664	-0.6133	-0.4064	0.5696
5.58	-9.4981	-0.2472	-0.6455	-0.1349	0.0381	-0.0418	29.4037	21.3781	-15.4005	-0.3668	-0.6132	-0.4068	0.5692
5.59	-9.5052	-0.3044	-0.6728	-0.1173	0.0466	-0.0252	29.4005	21.6070	-15.3445	-0.3672	-0.6131	-0.4071	0.5688
5.6	-9.5170	-0.3321	-0.6926	-0.1070	0.0470	-0.0231	29.6780	21.6604	-15.0957	-0.3675	-0.6131	-0.4074	0.5683
5.61	-9.5365	-0.3473	-0.7057	-0.0757	0.0553	-0.0060	29.7443	21.6504	-14.9886	-0.3678	-0.6133	-0.4077	0.5680
5.62	-9.5600	-0.3439	-0.7360	-0.0467	0.0630	-0.0010	29.4969	21.4282	-15.0877	-0.3679	-0.6134	-0.4077	0.5676
5.63	-9.5787	-0.3190	-0.7556	-0.0113	0.0615	0.0015	29.3224	21.5635	-15.2371	-0.3680	-0.6137	-0.4077	0.5673
5.64	-9.6020	-0.2775	-0.7713	0.0246	0.0658	0.0026	29.2116	21.5247	-15.3819	-0.3680	-0.6139	-0.4076	0.5669
5.65	-9.6193	-0.2177	-0.7956	0.0577	0.0680	0.0021	29.5850	21.5422	-15.3261	-0.3679	-0.6144	-0.4074	0.5668
5.66	-9.6396	-0.1472	-0.8133	0.0825	0.0684	-0.0010	29.5559	21.2609	-15.3682	-0.3676	-0.6148	-0.4071	0.5667
5.67	-9.6653	-0.0543	-0.8276	0.1100	0.0724	-0.0084	29.5894	21.1078	-15.2349	-0.3673	-0.6153	-0.4068	0.5666
5.68	-9.6980	0.0455	-0.8457	0.1244	0.0604	-0.0219	29.5490	21.3907	-15.3526	-0.3669	-0.6158	-0.4065	0.5666
5.69	-9.7233	0.1381	-0.8540	0.1401	0.0603	-0.0244	29.4865	21.4483	-15.4692	-0.3664	-0.6162	-0.4061	0.5666
5.7	-9.7487	0.2318	-0.8629	0.1433	0.0527	-0.0357	29.6670	21.1759	-15.1577	-0.3659	-0.6167	-0.4058	0.5667
5.71	-9.7720	0.3065	-0.8728	0.1326	0.0426	-0.0475	29.5996	21.1896	-15.1529	-0.3654	-0.6170	-0.4054	0.5668
5.72	-9.7929	0.3613	-0.8604	0.1161	0.0320	-0.0560	29.4048	21.1119	-15.2456	-0.3650	-0.6174	-0.4052	0.5670
5.73	-9.7955	0.4006	-0.8634	0.0894	0.0148	-0.0738	29.6315	21.1612	-15.2874	-0.3647	-0.6175	-0.4049	0.5672
5.74	-9.7958	0.4086	-0.8589	0.0558	0.0099	-0.0773	29.5520	21.3014	-15.3627	-0.3644	-0.6176	-0.4048	0.5673
5.75	-9.7874	0.4050	-0.8423	0.0270	-0.0056	-0.0754	29.2615	21.1518	-15.3252	-0.3643	-0.6176	-0.4048	0.5674
5.76	-9.7748	0.3830	-0.8299	-0.0050	-0.0143	-0.0792	29.4331	21.2642	-15.3496	-0.3643	-0.6175	-0.4048	0.5675
5.77	-9.7688	0.3403	-0.8156	-0.0399	-0.0227	-0.0770	29.3780	21.1129	-15.5341	-0.3645	-0.6174	-0.4049	0.5675
5.78	-9.7496	0.2795	-0.7971	-0.0649	-0.0332	-0.0769	29.3913	21.2672	-15.4359	-0.3647	-0.6171	-0.4050	0.5675
5.79	-9.7236	0.2164	-0.7799	-0.0907	-0.0395	-0.0767	29.4110	21.2548	-15.3318	-0.3651	-0.6168	-0.4053	0.5676
5.8	-9.7001	0.1465	-0.7516	-0.1125	-0.0400	-0.0797	29.3467	21.5452	-15.3191	-0.3654	-0.6164	-0.4055	0.5675
5.81	-9.6672	0.0623	-0.7458	-0.1179	-0.0483	-0.0743	29.3002	21.4422	-15.2072	-0.3659	-0.6161	-0.4059	0.5675
5.82	-9.6209	-0.0143	-0.7244	-0.1251	-0.0566	-0.0694	29.2879	21.4226	-15.3735	-0.3663	-0.6156	-0.4061	0.5674
5.83	-9.5990	-0.0805	-0.7013	-0.1228	-0.0541	-0.0728	29.4734	21.4370	-15.4410	-0.3668	-0.6152	-0.4064	0.5673
5.84	-9.5818	-0.1459	-0.6946	-0.1105	-0.0465	-0.0720	29.5927	21.5989	-15.4438	-0.3672	-0.6148	-0.4067	0.5673
5.85	-9.5591	-0.1923	-0.6822	-0.0970	-0.0506	-0.0618	29.2770	21.2624	-15.4276	-0.3675	-0.6144	-0.4069	0.5672
5.86	-9.5387	-0.2230	-0.6625	-0.0813	-0.0457	-0.0593	29.3130	21.0527	-15.3417	-0.3679	-0.6142	-0.4071	0.5673
5.87	-9.5379	-0.2520	-0.6509	-0.0659	-0.0398	-0.0612	29.4427	21.3662	-15.4546	-0.3681	-0.6139	-0.4072	0.5673
5.88	-9.5340	-0.2669	-0.6636	-0.0419	-0.0301	-0.0562	29.2965	21.5237	-15.4375	-0.3684	-0.6137	-0.4073	0.5673
5.89	-9.5092	-0.2690	-0.6473	-0.0106	-0.0273	-0.0501	29.4001	21.5055	-15.4264	-0.3684	-0.6135	-0.4073	0.5673
5.9	-9.5122	-0.2438	-0.6297	0.0066	-0.0166	-0.0484	29.4910	21.4386	-15.4663	-0.3685	-0.6135	-0.4072	0.5674
5.91	-9.5303	-0.2033	-0.6490	0.0305	-0.0069	-0.0449	29.3451	21.3672	-15.5254	-0.3685	-0.6136	-0.4071	0.5675
5.92	-9.5052	-0.1667	-0.6518	0.0487	-0.0019	-0.0369	29.4510	21.3858	-15.2987	-0.3684	-0.6137	-0.4069	0.5675
5.93	-9.5064	-0.1203	-0.6238	0.0610	0.0086	-0.0381	29.1477	21.6452	-15.4873	-0.3682	-0.6139	-0.4067	0.5676
5.94	-9.5344	-0.0596	-0.6410	0.0689	0.0252	-0.0311	29.3144	21.4573	-15.3776	-0.3680	-0.6141	-0.4065	0.5676
5.95	-9.5660	0.0096	-0.6540	0.0673	0.0204	-0.0283	29.3935	21.6070	-15.1342	-0.3679	-0.6143	-0.4063	0.5677
5.96	-9.6045	0.0675	-0.6407	0.0693	0.0274	-0.0300	29.1592	21.6035	-15.2575	-0.3676	-0.6145	-0.4060	0.5677
5.97	-9.6384	0.1094	-0.6608	0.0688	0.0383	-0.0302	29.3833	21.6119	-15.3742	-0.3675	-0.6148	-0.4059	0.5677
5.98	-9.6428	0.1491	-0.6875	0.0649	0.0384	-0.0319	29.3499	21.2660	-15.4768	-0.3672	-0.6151	-0.4057	0.5677
5.99	-9.5900	0.1844	-0.6781	0.0637	0.0247	-0.0323	29.2774	21.3186	-15.3357	-0.3670	-0.6153	-0.4055	0.5677
6	-9.5523	0.2093	-0.6600	0.0480	0.0231	-0.0292	29.4092	21.3606	-15.3513	-0.3669	-0.6155	-0.4053	0.5677
6.01	-9.5594	0.2196	-0.6810	0.0313	0.0383	-0.0299	29.3911	21.2049	-15.4490	-0.3668	-0.6157	-0.4052	0.5676
6.02	-9.5998	0.2225	-0.7096	0.0142	0.0500	-0.0323	29.3889	21.3279	-15.6370	-0.3667	-0.6159	-0.4052	0.5674
6.03	-9.6268	0.2223	-0.7280	-0.0017	0.0565	-0.0338	29.4053	21.3489	-15.5150	-0.3666	-0.6161	-0.4052	0.5672
6.04	-9.6412	0.2221	-0.7360	-0.0144	0.0601	-0.0353	29.3701	21.3349	-15.4538	-0.3667	-0.6163	-0.4053	0.5670
6.05	-9.6587	0.1980	-0.7559	-0.0185	0.0574	-0.0494	29.4505	21.2078	-15.5013	-0.3666	-0.6164	-0.4055	0.5668
6.06	-9.6660	0.1570	-0.7811	-0.0320	0.0549	-0.0565	29.4862	21.3552	-15.4094	-0.3666	-0.6166	-0.4057	0.5666
6.07	-9.6673	0.1357	-0.7894	-0.0377	0.0506	-0.0577	29.4989	21.2476	-15.4369	-0.3666	-0.6165	-0.4058	0.5663
6.08	-9.6662	0.1124	-0.7949	-0.0378	0.0370	-0.0581	29.5491	21.2620	-15.3244	-0.3666	-0.6166	-0.4061	0.5661
6.09	-9.6530	0.0819	-0.8110	-0.0402	0.0450	-0.0674	29.5152	21.2416	-15.3070	-0.3666	-0.6166	-0.4063	0.5660
6.1	-9.6489	0.0594	-0.8132	-0.0428	0.0359	-0.0598	29.9068	21.3333	-15.1447	-0.3666	-0.6166	-0.4065	0.5657
6.11	-9.6608	0.0323	-0.8172	-0.0495	0.0327	-0.0704	29.6888	21.4567	-15.1498	-0.3667	-0.6166	-0.4068	0.5657
6.12	-9.6715	-0.0016	-0.8338	-0.0423	0.0379	-0.0752	29.6708	21.4823	-15.0958	-0.3667	-0.6166	-0.4070	0.5654
6.13	-9.6754	-0.0269	-0.8289	-0.0379	0.0356	-0.0649	29.3908	21.5190	-15.2955	-0.3667	-0.6166	-0.4072	0.5653
6.14	-9.6718	-0.0406	-0.8255	-0.0393	0.0254	-0.0676	29.2325	21.4233	-15.2202	-0.3668	-0.6165	-0.4074	0.5651
6.15	-9.6776	-0.0583	-0.8343	-0.0350	0.0259	-0.0695	29.4249	21.4815	-15.1747	-0.3668	-0.6165	-0.4076	0.5650
6.16	-9.6694	-0.0703	-0.8404	-0.0134	0.0184	-0.0669	29.4316	21.3592	-15.4471	-0.3668	-0.6165	-0.4076	0.5650
6.17	-9.6605	-0.0673	-0.8329	-0.0136	0.0185	-0.0627	29.5130	21.4235	-15.4271	-0.3669	-0.6165	-0.4077	0.5649
6.18	-9.6598	-0.0485	-0.8322	-0.0106	0.0105	-0.0601	29.3835	21.5386	-15.1670	-0.3669	-0.6165	-0.4078	0.5649
6.19	-9.6619	-0.0334	-0.8320	0.0086	0.0060	-0.0533	29.5126	21.4217	-15.3436	-0.3669	-0.6165	-0.4077	0.5649
6.2	-9.6614	-0.0175	-0.8218	0.0134	0.0086	-0.0553	29.4975	21.2115	-15.2145	-0.3669	-0.6166	-0.4077	0.5649
6.21	-9.6562	-0.0017	-0.8142	0.0139	0.0008	-0.0613	29.7786	21.1695	-15.1614	-0.3668	-0.6165	-0.4076	0.5649
6.22	-9.6443	0.0130	-0.8041	0.0167	-0.0041	-0.0577	29.7377	21.2775	-15.2437	-0.3668	-0.6166	-0.4076	0.5650
6.23	-9.6206	0.0130	-0.7936	0.0152	-0.0023	-0.0617	29.5919	21.1483	-15.2521	-0.3668	-0.6166	-0.4075	0.5650
6.24	-9.5901	0.0113	-0.7914	0.0176	-0.0043	-0.0638	29.2891	21.1849	-15.1304	-0.3667	-0.6166	-0.4075	0.5651
6.25	-9.5754	0.0260	-0.7744	0.0111	0.0018	-0.0618	29.3175	21.2763	-14.9498	-0.3666	-0.6165	-0.4075	0.5651
6.26	-9.6342	0.0431	-0.7575	0.0085	0.0033	-0.0628	29.5289	21.1256	-15.2568	-0.3666	-0.6165	-0.4075	0.5652
6.27	-9.6393	0.0326	-0.7942	0.0119	0.0044	-0.0638	29.4506	21.1091	-15.3532	-0.3665	-0.6166	-0.4075	0.5652
6.28	-9.6003	0.0354	-0.7668	0.0061	-0.0087	-0.0589	29.5716	21.2993	-15.2690	-0.3665	-0.6165	-0.4075	0.5652
6.29	-9.5838	0.0570	-0.7476	-0.0006	0.0059	-0.0548	29.5908	21.3358	-15.2686	-0.3665	-0.6166	-0.4075	0.5653
6.3	-9.5569	0.0498	-0.7583	-0.0079	0.0051	-0.0640	29.3757	21.2698	-15.2282	-0.3665	-0.6165	-0.4076	0.5652
6.31	-9.5832	0.0217	-0.7521	-0.0100	0.0296	-0.0608	29.2582	21.4569	-15.5359	-0.3665	-0.6166	-0.4077	0.5652
6.32	-9.6074	0.0057	-0.7747	-0.0132	0.0289	-0.0478	29.5115	21.4278	-15.3588	-0.3664	-0.6166	-0.4077	0.5650
6.33	-9.6095	0.0175	-0.7879	-0.0118	0.0221	-0.0415	29.3568	21.5768	-15.2704	-0.3665	-0.6167	-0.4078	0.5649
6.34	-9.6054	0.0364	-0.7691	-0.0134	0.0200	-0.0447	29.2641	21.4548	-15.3413	-0.3665	-0.6167	-0.4078	0.5648
6.35	-9.6182	0.0227	-0.7834	-0.0173	0.0292	-0.0475	29.4137	21.4505	-15.0993	-0.3665	-0.6167	-0.4079	0.5647
6.36	-9.6283	0.0004	-0.8188	-0.0118	0.0399	-0.0566	29.4564	21.3307	-15.2163	-0.3665	-0.6169	-0.4081	0.5646
6.37	-9.6211	0.0036	-0.8144	-0.0130	0.0266	-0.0496	29.5819	21.4013	-15.4640	-0.3664	-0.6169	-0.4081	0.5644
6.38	-9.6207	-0.0018	-0.8125	-0.0076	0.0299	-0.0535	29.6493	21.4358	-15.2395	-0.3664	-0.6170	-0.4082	0.5644
6.39	-9.6329	-0.0088	-0.8331	-0.0061	0.0273	-0.0559	29.4416	21.1374	-15.0591	-0.3663	-0.6170	-0.4082	0.5642
6.4	-9.6394	0.0041	-0.8431	-0.0051	0.0240	-0.0524	29.6156	21.1066	-15.3819	-0.3664	-0.6171	-0.4083	0.5642
6.41	-9.6441	0.0190	-0.8276	-0.0091	0.0200	-0.0539	29.7088	21.2142	-15.4849	-0.3663	-0.6171	-0.4084	0.5641
6.42	-9.6538	0.0198	-0.8341	-0.0035	0.0238	-0.0580	29.4914	21.1370	-15.1650	-0.3663	-0.6171	-0.4084	0.5640
6.43	-9.6587	0.0170	-0.8431	-0.0019	0.0168	-0.0570	29.4816	21.4097	-15.3173	-0.3663	-0.6172	-0.4085	0.5640
6.44	-9.6485	0.0183	-0.8414	-0.0068	0.0057	-0.0520	29.6013	21.2904	-15.1194	-0.3663	-0.6172	-0.4085	0.5640
6.45	-9.6354	0.0142	-0.8386	-0.0073	0.0080	-0.0512	29.3511	21.0850	-15.1344	-0.3663	-0.6172	-0.4086	0.5639
6.46	-9.6270	0.0067	-0.8436	-0.0106	0.0072	-0.0499	29.5104	21.0828	-15.3207	-0.3663	-0.6171	-0.4086	0.5638
6.47	-9.6321	-0.0009	-0.8439	-0.0117	0.0068	-0.0492	29.4436	21.2152	-15.1357	-0.3664	-0.6172	-0.4086	0.5639
6.48	-9.6391	0.0038	-0.8497	-0.0048	0.0064	-0.0481	29.4070	21.2930	-15.2989	-0.3664	-0.6172	-0.4086	0.5638
6.49	-9.6442	0.0110	-0.8489	-0.0062	0.0054	-0.0445	29.3023	21.5142	-15.4469	-0.3664	-0.6172	-0.4086	0.5638
6.5	-9.6509	0.0197	-0.8398	-0.0061	0.0072	-0.0431	29.4190	21.5518	-15.2391	-0.3665	-0.6172	-0.4086	0.5637
6.51	-9.6599	0.0300	-0.8404	0.0042	0.0060	-0.0460	29.3446	21.2532	-15.3587	-0.3665	-0.6172	-0.4085	0.5637
6.52	-9.6529	0.0364	-0.8412	0.0055	-0.0020	-0.0509	29.3446	21.3411	-15.3382	-0.3666	-0.6173	-0.4085	0.5637
6.53	-9.6404	0.0464	-0.8322	0.0121	0.0061	-0.0496	29.4214	21.6773	-15.2068	-0.3665	-0.6172	-0.4084	0.5637
6.54	-9.6254	0.0493	-0.8268	0.0069	-0.0026	-0.0625	29.3869	21.3571	-15.1700	-0.3666	-0.6173	-0.4084	0.5638
6.55	-9.6234	0.0375	-0.8329	0.0022	0.0026	-0.0636	29.3896	21.4204	-15.1249	-0.3665	-0.6172	-0.4084	0.5638
6.56	-9.6171	0.0348	-0.8343	0.0091	-0.0028	-0.0622	29.4588	21.3853	-15.2468	-0.3665	-0.6173	-0.4085	0.5639
6.57	-9.6103	0.0371	-0.8261	0.0106	-0.0028	-0.0558	29.5094	21.3491	-15.0737	-0.3664	-0.6172	-0.4084	0.5638
6.58	-9.6184	0.0487	-0.8247	0.0066	0.0005	-0.0559	29.4503	21.3401	-15.2502	-0.3664	-0.6172	-0.4084	0.5639
6.59	-9.6349	0.0546	-0.8233	-0.0043	0.0042	-0.0564	29.5806	21.2367	-15.3170	-0.3664	-0.6172	-0.4084	0.5639
6.6	-9.6496	0.0586	-0.8250	-0.0127	0.0013	-0.0493	30.1447	21.2921	-15.1871	-0.3664	-0.6172	-0.4084	0.5638
6.61	-9.6483	0.0576	-0.8233	-0.0113	0.0005	-0.0582	30.0901	21.2586	-15.2004	-0.3665	-0.6172	-0.4085	0.5639
6.62	-9.6390	0.0498	-0.8060	-0.0140	-0.0090	-0.0593	29.8274	21.2686	-15.1532	-0.3666	-0.6171	-0.4085	0.5638
6.63	-9.6247	0.0416	-0.8155	-0.0129	-0.0095	-0.0617	29.6468	21.3058	-15.1608	-0.3667	-0.6171	-0.4086	0.5639
6.64	-9.5921	0.0299	-0.8053	-0.0169	-0.0070	-0.0624	29.5063	21.2857	-15.1467	-0.3666	-0.6169	-0.4086	0.5639
6.65	-9.5821	0.0222	-0.7961	-0.0125	-0.0014	-0.0621	29.4681	21.2507	-15.3305	-0.3667	-0.6169	-0.4087	0.5639
6.66	-9.5884	0.0179	-0.8045	-0.0140	-0.0026	-0.0655	29.5449	21.3059	-15.4531	-0.3667	-0.6168	-0.4087	0.5639
6.67	-9.6052	0.0123	-0.7982	-0.0154	0.0050	-0.0569	29.5317	21.4455	-15.1577	-0.3667	-0.6168	-0.4088	0.5639
6.68	-9.6200	0.0033	-0.8097	-0.0102	0.0104	-0.0617	29.3468	21.4501	-15.1492	-0.3667	-0.6168	-0.4089	0.5639
6.69	-9.6265	-0.0109	-0.8148	-0.0166	0.0077	-0.0612	29.4531	21.5529	-15.2167	-0.3667	-0.6167	-0.4089	0.5638
6.7	-9.6339	-0.0204	-0.8108	-0.0232	0.0066	-0.0586	29.4891	21.3101	-15.2315	-0.3668	-0.6167	-0.4091	0.5638
6.71	-9.6246	-0.0300	-0.8137	-0.0135	0.0085	-0.0593	29.4894	21.5422	-15.0321	-0.3668	-0.6166	-0.4091	0.5637
6.72	-9.6091	-0.0304	-0.8192	-0.0118	-0.0005	-0.0552	29.4700	21.6273	-15.2223	-0.3669	-0.6167	-0.4092	0.5637
6.73	-9.5910	-0.0330	-0.8156	-0.0120	0.0022	-0.0580	29.2002	21.6358	-15.2785	-0.3669	-0.6166	-0.4092	0.5637
6.74	-9.5815	-0.0310	-0.8130	-0.0113	0.0095	-0.0568	29.2790	21.4962	-15.2077	-0.3669	-0.6166	-0.4093	0.5637
6.75	-9.5940	-0.0244	-0.8153	-0.0115	0.0079	-0.0530	29.4252	21.3028	-15.0181	-0.3669	-0.6166	-0.4093	0.5636
6.76	-9.6045	-0.0296	-0.8268	-0.0119	0.0028	-0.0506	29.3586	21.4185	-15.1557	-0.3669	-0.6166	-0.4094	0.5636
6.77	-9.6062	-0.0290	-0.8262	-0.0116	0.0056	-0.0523	29.4763	21.4162	-15.4783	-0.3670	-0.6166	-0.4094	0.5635
6.78	-9.6158	-0.0346	-0.8235	-0.0121	0.0118	-0.0497	29.4674	21.1765	-15.0182	-0.3670	-0.6165	-0.4094	0.5634
6.79	-9.6306	-0.0406	-0.8327	0.0033	0.0182	-0.0488	29.5218	21.2585	-15.1095	-0.3670	-0.6167	-0.4095	0.5635
6.8	-9.6386	-0.0312	-0.8398	-0.0004	0.0081	-0.0513	29.5372	21.1904	-15.1496	-0.3669	-0.6166	-0.4095	0.5634
6.81	-9.6329	-0.0170	-0.8388	0.0010	0.0098	-0.0479	29.5099	21.5822	-15.2460	-0.3670	-0.6167	-0.4095	0.5634
6.82	-9.6333	0.0015	-0.8378	0.0055	0.0104	-0.0476	29.7167	21.3971	-15.2591	-0.3669	-0.6167	-0.4094	0.5633
6.83	-9.6450	0.0181	-0.8453	0.0010	0.0091	-0.0447	29.3734	21.6249	-15.1489	-0.3669	-0.6168	-0.4095	0.5633
6.84	-9.6465	0.0245	-0.8562	0.0016	0.0016	-0.0447	29.6593	21.5271	-14.9674	-0.3670	-0.6168	-0.4094	0.5633
6.85	-9.6411	0.0342	-0.8478	-0.0044	0.0047	-0.0468	29.5815	21.3330	-15.1232	-0.3670	-0.6168	-0.4094	0.5632
6.86	-9.6405	0.0422	-0.8478	-0.0022	0.0093	-0.0407	29.4898	21.4515	-15.4019	-0.3670	-0.6169	-0.4094	0.5633
6.87	-9.6325	0.0437	-0.8630	-0.0093	0.0038	-0.0441	29.4304	21.3283	-15.1661	-0.3670	-0.6168	-0.4094	0.5632
6.88	-9.6274	0.0448	-0.8536	-0.0096	0.0058	-0.0487	29.4423	21.3868	-15.1685	-0.3671	-0.6169	-0.4095	0.5632
6.89	-9.6448	0.0429	-0.8448	-0.0116	0.0097	-0.0517	29.5124	21.6691	-15.1643	-0.3671	-0.6168	-0.4094	0.5630
6.9	-9.6574	0.0251	-0.8640	-0.0073	0.0064	-0.0495	29.3571	21.6504	-15.1770	-0.3672	-0.6169	-0.4095	0.5631
6.91	-9.6543	0.0259	-0.8635	-0.0112	-0.0010	-0.0490	29.4364	21.3650	-15.1557	-0.3672	-0.6168	-0.4095	0.5630
6.92	-9.6456	0.0327	-0.8420	-0.0119	-0.0068	-0.0439	29.5951	21.5046	-15.1767	-0.3674	-0.6168	-0.4094	0.5630
6.93	-9.6366	0.0323	-0.8452	-0.0127	-0.0029	-0.0487	29.4576	21.2082	-15.1435	-0.3675	-0.6168	-0.4094	0.5630
6.94	-9.6284	0.0337	-0.8435	-0.0076	-0.0067	-0.0476	29.2552	21.5910	-15.0680	-0.3675	-0.6167	-0.4094	0.5630
6.95	-9.6270	0.0328	-0.8395	-0.0100	-0.0090	-0.0475	29.3720	21.5652	-15.2838	-0.3676	-0.6167	-0.4094	0.5630
6.96	-9.6219	0.0305	-0.8410	-0.0125	-0.0028	-0.0511	29.4864	21.1144	-15.1608	-0.3676	-0.6166	-0.4094	0.5629
6.97	-9.6191	0.0281	-0.8470	-0.0127	-0.0046	-0.0497	29.5821	21.2488	-15.0328	-0.3677	-0.6166	-0.4095	0.5630
6.98	-9.6432	0.0263	-0.8356	-0.0103	-0.0027	-0.0544	29.5855	21.3669	-15.1312	-0.3677	-0.6166	-0.4095	0.5630
6.99	-9.6557	0.0259	-0.8411	-0.0114	-0.0050	-0.0544	29.4985	21.1398	-15.4628	-0.3678	-0.6165	-0.4095	0.5630
7	-9.6379	0.0233	-0.8278	-0.0121	-0.0018	-0.0434	29.4712	21.3638	-15.3322	-0.3679	-0.6165	-0.4094	0.5629
7.01	-9.6249	0.0207	-0.8193	-0.0118	-0.0108	-0.0519	29.4947	21.6301	-15.1067	-0.3680	-0.6164	-0.4095	0.5630
7.02	-9.6137	0.0410	-0.8243	-0.0124	-0.0123	-0.0470	29.4784	21.3278	-15.2458	-0.3681	-0.6164	-0.4095	0.5630
7.03	-9.6238	0.0535	-0.8077	-0.0117	-0.0150	-0.0388	29.4792	21.2289	-15.2613	-0.3681	-0.6163	-0.4094	0.5629
7.04	-9.6499	0.0477	-0.8141	-0.0129	-0.0037	-0.0476	29.5911	21.4860	-15.1445	-0.3683	-0.6164	-0.4094	0.5630
7.05	-9.6622	0.0419	-0.8142	-0.0129	-0.0064	-0.0475	29.4102	21.4416	-15.1876	-0.3683	-0.6163	-0.4094	0.5629
7.06	-9.6446	0.0374	-0.8100	-0.0127	-0.0175	-0.0510	29.3933	21.3829	-15.3741	-0.3685	-0.6163	-0.4094	0.5630
7.07	-9.5943	0.0290	-0.8007	-0.0128	-0.0151	-0.0567	29.3919	21.3324	-15.2311	-0.3685	-0.6161	-0.4094	0.5630
7.08	-9.5623	0.0193	-0.7858	-0.0108	-0.0109	-0.0508	29.4008	21.4898	-15.2919	-0.3686	-0.6161	-0.4094	0.5630
7.09	-9.5719	0.0104	-0.7873	-0.0124	-0.0015	-0.0509	29.5853	21.5711	-14.9666	-0.3687	-0.6160	-0.4094	0.5630
7.1	-9.5915	0.0107	-0.8090	-0.0121	0.0054	-0.0441	29.8465	21.3854	-14.8377	-0.3687	-0.6160	-0.4094	0.5629
7.11	-9.6017	0.0238	-0.8050	-0.0122	0.0047	-0.0493	29.9436	21.2286	-15.0086	-0.3688	-0.6161	-0.4095	0.5630
7.12	-9.6017	0.0495	-0.8019	-0.0097	0.0042	-0.0425	29.6488	21.4799	-15.2251	-0.3688	-0.6160	-0.4095	0.5629
7.13	-9.5952	0.0531	-0.8139	-0.0112	0.0044	-0.0477	29.4071	21.5515	-15.1759	-0.3689	-0.6161	-0.4095	0.5629
7.14	-9.6024	0.0492	-0.8211	-0.0118	0.0098	-0.0583	29.2916	21.1523	-15.2712	-0.3688	-0.6160	-0.4095	0.5628
7.15	-9.6105	0.0449	-0.8263	-0.0119	0.0055	-0.0497	29.6898	21.0775	-15.2484	-0.3689	-0.6160	-0.4096	0.5628
7.16	-9.6154	0.0482	-0.8300	-0.0125	0.0042	-0.0547	29.5783	21.2831	-15.1164	-0.3689	-0.6160	-0.4096	0.5627
7.17	-9.6100	0.0444	-0.8337	-0.0122	0.0037	-0.0550	29.6421	21.1830	-15.2640	-0.3689	-0.6159	-0.4097	0.5627
7.18	-9.6063	0.0367	-0.8316	-0.0134	-0.0011	-0.0548	29.6680	21.1770	-15.3489	-0.3690	-0.6159	-0.4097	0.5627
7.19	-9.6122	0.0388	-0.8354	-0.0129	0.0025	-0.0505	29.5348	21.4375	-15.2364	-0.3690	-0.6159	-0.4097	0.5627
7.2	-9.6170	0.0315	-0.8370	-0.0124	0.0051	-0.0438	29.6001	21.4250	-15.0684	-0.3691	-0.6159	-0.4098	0.5626
7.21	-9.6311	0.0251	-0.8400	-0.0137	0.0074	-0.0488	29.5447	21.1389	-15.1598	-0.3691	-0.6158	-0.4098	0.5625
7.22	-9.6434	0.0211	-0.8504	-0.0112	0.0025	-0.0433	29.4981	21.2241	-15.3885	-0.3692	-0.6159	-0.4098	0.5625
7.23	-9.6443	0.0206	-0.8561	-0.0179	0.0024	-0.0480	29.5803	21.2419	-15.3360	-0.3693	-0.6159	-0.4098	0.5625
7.24	-9.6496	0.0182	-0.8639	-0.0167	0.0082	-0.0487	29.3083	21.4095	-15.0786	-0.3693	-0.6159	-0.4099	0.5624
7.25	-9.6614	0.0220	-0.8582	-0.0099	0.0083	-0.0502	29.2810	21.5438	-15.1036	-0.3693	-0.6159	-0.4099	0.5624
7.26	-9.6749	0.0329	-0.8688	-0.0131	0.0118	-0.0477	29.6041	21.4264	-15.0247	-0.3694	-0.6159	-0.4099	0.5623
7.27	-9.6797	0.0452	-0.8664	-0.0099	0.0042	-0.0487	29.4446	21.4044	-15.2653	-0.3695	-0.6159	-0.4099	0.5623
7.28	-9.6639	0.0578	-0.8572	-0.0056	-0.0026	-0.0480	29.3702	21.3096	-15.4151	-0.3695	-0.6158	-0.4099	0.5622
7.29	-9.6633	0.0672	-0.8539	-0.0072	-0.0096	-0.0543	29.3954	21.4937	-15.2055	-0.3696	-0.6158	-0.4099	0.5623
7.3	-9.6521	0.0680	-0.8451	-0.0097	-0.0140	-0.0553	29.5722	21.3762	-15.4864	-0.3697	-0.6157	-0.4099	0.5623
7.31	-9.6287	0.0581	-0.8511	-0.0118	-0.0180	-0.0593	29.4971	21.3503	-15.3138	-0.3698	-0.6157	-0.4099	0.5624
7.32	-9.6025	0.0511	-0.8269	-0.0115	-0.0256	-0.0584	29.4875	21.3553	-15.0552	-0.3698	-0.6155	-0.4098	0.5624
7.33	-9.6321	0.0430	-0.8016	-0.0120	-0.0144	-0.0584	29.5647	21.2455	-15.0723	-0.3699	-0.6154	-0.4099	0.5625
7.34	-9.6527	0.0121	-0.8364	-0.0114	-0.0060	-0.0643	29.6462	21.2808	-15.1152	-0.3700	-0.6154	-0.4099	0.5625
7.35	-9.6322	-0.0083	-0.8240	-0.0118	-0.0197	-0.0611	29.5786	21.2494	-15.2619	-0.3700	-0.6152	-0.4099	0.5626
7.36	-9.6273	0.0037	-0.7985	-0.0139	-0.0207	-0.0523	29.5873	21.3816	-15.3768	-0.3701	-0.6152	-0.4100	0.5627
7.37	-9.5982	0.0042	-0.8063	-0.0137	-0.0238	-0.0518	29.6514	21.1836	-15.1741	-0.3702	-0.6151	-0.4099	0.5627
7.38	-9.6037	-0.0019	-0.7754	-0.0106	-0.0214	-0.0548	29.5337	21.2338	-15.2162	-0.3703	-0.6150	-0.4099	0.5628
7.39	-9.6237	-0.0131	-0.7879	-0.0116	-0.0041	-0.0432	29.5922	21.2894	-15.3789	-0.3703	-0.6149	-0.4099	0.5627
7.4	-9.6162	-0.0013	-0.8118	-0.0051	-0.0177	-0.0395	29.5551	21.3466	-15.2212	-0.3704	-0.6149	-0.4098	0.5628
7.41	-9.5865	0.0349	-0.7775	-0.0079	-0.0266	-0.0395	29.5878	21.0486	-15.1264	-0.3706	-0.6148	-0.4098	0.5628
7.42	-9.5917	0.0525	-0.7631	-0.0038	-0.0172	-0.0408	29.5117	21.2404	-15.2656	-0.3706	-0.6148	-0.4097	0.5628
7.43	-9.6177	0.0428	-0.8012	-0.0080	0.0040	-0.0515	29.2582	21.3812	-15.2609	-0.3707	-0.6148	-0.4097	0.5628
7.44	-9.6242	0.0540	-0.8064	-0.0028	-0.0034	-0.0496	29.4899	21.4611	-15.0073	-0.3707	-0.6148	-0.4097	0.5628
7.45	-9.6274	0.0625	-0.7816	-0.0025	-0.0032	-0.0598	29.4084	21.4271	-15.1894	-0.3707	-0.6148	-0.4097	0.5629
7.46	-9.6387	0.0555	-0.7908	-0.0006	-0.0019	-0.0549	29.4600	21.4618	-15.0753	-0.3707	-0.6147	-0.4097	0.5628
7.47	-9.6444	0.0496	-0.8131	-0.0051	-0.0047	-0.0518	29.6119	21.4108	-15.1933	-0.3707	-0.6147	-0.4097	0.5629
7.48	-9.6296	0.0573	-0.7935	-0.0079	-0.0065	-0.0558	29.3699	21.3501	-15.1496	-0.3708	-0.6146	-0.4097	0.5629
7.49	-9.6314	0.0676	-0.7813	-0.0132	-0.0078	-0.0514	29.4802	21.3305	-15.2544	-0.3708	-0.6146	-0.4098	0.5629
7.5	-9.6290	0.0540	-0.7946	-0.0126	-0.0068	-0.0518	29.4845	21.4854	-15.1897	-0.3709	-0.6145	-0.4098	0.5629
7.51	-9.6214	0.0453	-0.7957	-0.0142	-0.0168	-0.0527	29.2394	21.3554	-15.1382	-0.3710	-0.6145	-0.4098	0.5629
7.52	-9.6236	0.0453	-0.7892	-0.0128	-0.0075	-0.0483	29.5990	21.0851	-15.2452	-0.3710	-0.6144	-0.4098	0.5629
7.53	-9.6319	0.0337	-0.7931	-0.0127	-0.0070	-0.0523	29.7723	21.3325	-15.2569	-0.3711	-0.6143	-0.4098	0.5629
7.54	-9.6394	0.0178	-0.7945	-0.0137	-0.0049	-0.0467	29.7326	21.0028	-15.1756	-0.3712	-0.6144	-0.4098	0.5630
7.55	-9.6441	0.0138	-0.7928	-0.0156	-0.0106	-0.0441	29.6130	21.0706	-15.0860	-0.3713	-0.6143	-0.4098	0.5629
7.56	-9.6499	0.0136	-0.7861	-0.0131	-0.0214	-0.0450	29.4994	21.3037	-14.9152	-0.3714	-0.6143	-0.4098	0.5630
7.57	-9.6511	0.0094	-0.7853	-0.0157	-0.0174	-0.0371	29.3853	21.1623	-15.2006	-0.3715	-0.6141	-0.4097	0.5629
7.58	-9.6485	0.0156	-0.7829	-0.0069	-0.0191	-0.0413	29.3823	21.1774	-15.2821	-0.3716	-0.6141	-0.4097	0.5630
7.59	-9.6422	0.0279	-0.7795	0.0006	-0.0159	-0.0491	29.6315	21.0126	-15.1995	-0.3717	-0.6141	-0.4096	0.5630
7.6	-9.6281	0.0468	-0.7736	0.0020	-0.0170	-0.0497	29.9633	21.3475	-15.1415	-0.3717	-0.6140	-0.4096	0.5631
7.61	-9.6237	0.0638	-0.7696	0.0118	-0.0176	-0.0518	29.9103	21.4765	-15.1975	-0.3718	-0.6140	-0.4095	0.5632
7.62	-9.6289	0.0714	-0.7690	0.0118	-0.0175	-0.0524	29.6738	21.1835	-15.2234	-0.3717	-0.6139	-0.4094	0.5633
7.63	-9.6289	0.0709	-0.7674	0.0072	-0.0129	-0.0533	29.4654	21.1877	-15.2447	-0.3718	-0.6139	-0.4094	0.5634
7.64	-9.6244	0.0779	-0.7541	0.0052	-0.0150	-0.0464	29.2948	21.4085	-15.3716	-0.3717	-0.6138	-0.4093	0.5633
7.65	-9.6224	0.0814	-0.7465	-0.0019	-0.0151	-0.0517	29.4319	21.4804	-15.3647	-0.3718	-0.6138	-0.4093	0.5634
7.66	-9.6199	0.0780	-0.7437	-0.0061	-0.0166	-0.0553	29.3358	21.4612	-15.1471	-0.3719	-0.6138	-0.4093	0.5635
7.67	-9.6131	0.0744	-0.7469	-0.0022	-0.0141	-0.0518	29.5063	21.4742	-15.3157	-0.3719	-0.6137	-0.4092	0.5635
7.68	-9.6097	0.0814	-0.7314	-0.0052	-0.0175	-0.0547	29.3375	21.4595	-15.5856	-0.3720	-0.6137	-0.4092	0.5636
7.69	-9.6116	0.0840	-0.7247	-0.0019	-0.0133	-0.0543	29.2053	21.3478	-15.2317	-0.3720	-0.6136	-0.4092	0.5636
7.7	-9.6105	0.0810	-0.7286	-0.0099	-0.0185	-0.0472	29.5441	21.4162	-15.1182	-0.3721	-0.6135	-0.4092	0.5637
7.71	-9.6013	0.0840	-0.7249	-0.0083	-0.0099	-0.0560	29.3227	21.2701	-15.3562	-0.3721	-0.6134	-0.4092	0.5637
7.72	-9.5929	0.0786	-0.7250	-0.0115	-0.0061	-0.0528	29.6661	21.3163	-15.5727	-0.3722	-0.6134	-0.4092	0.5637
7.73	-9.5940	0.0718	-0.7258	-0.0099	-0.0022	-0.0585	29.7254	21.2395	-15.3470	-0.3722	-0.6134	-0.4093	0.5637
7.74	-9.6031	0.0652	-0.7334	-0.0130	0.0013	-0.0589	29.5645	21.1958	-15.3483	-0.3722	-0.6133	-0.4093	0.5637
7.75	-9.6020	0.0537	-0.7301	-0.0144	-0.0066	-0.0585	29.4543	21.1987	-15.4327	-0.3722	-0.6133	-0.4093	0.5637
7.76	-9.6071	0.0495	-0.7322	-0.0148	-0.0024	-0.0590	29.4986	21.2304	-15.4717	-0.3723	-0.6132	-0.4094	0.5637
7.77	-9.6174	0.0409	-0.7411	-0.0203	0.0058	-0.0534	29.3966	21.5143	-15.3709	-0.3723	-0.6132	-0.4095	0.5637
7.78	-9.6232	0.0325	-0.7452	-0.0144	0.0039	-0.0583	29.4481	21.3526	-15.3603	-0.3723	-0.6131	-0.4095	0.5636
7.79	-9.6224	0.0356	-0.7434	-0.0118	-0.0002	-0.0493	29.5965	21.4125	-15.3243	-0.3724	-0.6131	-0.4096	0.5637
7.8	-9.6281	0.0334	-0.7434	-0.0125	0.0084	-0.0535	29.3877	21.4714	-15.1273	-0.3724	-0.6131	-0.4096	0.5636
7.81	-9.6238	0.0260	-0.7534	-0.0117	0.0095	-0.0607	29.3941	21.4988	-15.4611	-0.3725	-0.6131	-0.4097	0.5636
7.82	-9.6070	0.0217	-0.7524	-0.0130	0.0045	-0.0632	29.3645	21.2623	-15.4464	-0.3724	-0.6130	-0.4097	0.5635
7.83	-9.6154	0.0252	-0.7486	-0.0113	0.0076	-0.0608	29.5320	21.2123	-15.3056	-0.3724	-0.6130	-0.4098	0.5635
7.84	-9.6252	0.0214	-0.7671	-0.0128	0.0105	-0.0592	29.3515	21.3388	-15.2324	-0.3724	-0.6130	-0.4099	0.5635
7.85	-9.6248	0.0066	-0.7655	-0.0079	0.0065	-0.0613	29.2546	21.5512	-15.3446	-0.3724	-0.6129	-0.4099	0.5634
7.86	-9.6343	0.0125	-0.7658	-0.0102	0.0118	-0.0555	29.4293	21.5532	-15.4836	-0.3725	-0.6130	-0.4100	0.5635
7.87	-9.6415	0.0185	-0.7654	-0.0107	0.0077	-0.0585	29.3395	21.4359	-15.4011	-0.3724	-0.6130	-0.4101	0.5634
7.88	-9.6553	0.0199	-0.7700	-0.0086	0.0055	-0.0567	29.2551	21.4896	-15.3362	-0.3725	-0.6130	-0.4101	0.5634
7.89	-9.6536	0.0277	-0.7737	-0.0049	0.0023	-0.0502	29.4764	21.3830	-15.3695	-0.3724	-0.6129	-0.4101	0.5633
7.9	-9.6502	0.0329	-0.7656	-0.0028	0.0048	-0.0517	29.7080	21.2456	-15.3301	-0.3725	-0.6130	-0.4101	0.5634
7.91	-9.6448	0.0357	-0.7726	-0.0124	-0.0016	-0.0522	29.3988	21.2072	-15.3810	-0.3725	-0.6129	-0.4102	0.5633
7.92	-9.6324	0.0354	-0.7681	-0.0070	-0.0001	-0.0527	29.4354	21.1403	-15.2507	-0.3725	-0.6129	-0.4102	0.5633
7.93	-9.6255	0.0359	-0.7640	-0.0075	-0.0039	-0.0547	29.5949	21.0004	-15.2580	-0.3726	-0.6129	-0.4102	0.5634
7.94	-9.6189	0.0351	-0.7650	-0.0121	0.0006	-0.0470	29.4010	21.4519	-15.5180	-0.3726	-0.6128	-0.4102	0.5633
7.95	-9.6091	0.0313	-0.7677	-0.0066	-0.0050	-0.0472	29.5989	21.4266	-15.3536	-0.3727	-0.6128	-0.4102	0.5633
7.96	-9.6022	0.0370	-0.7646	-0.0073	0.0046	-0.0456	29.3734	21.2729	-15.3528	-0.3727	-0.6128	-0.4102	0.5632
7.97	-9.6153	0.0394	-0.7555	-0.0056	0.0033	-0.0479	29.2873	21.2978	-15.3485	-0.3727	-0.6128	-0.4102	0.5633
7.98	-9.6261	0.0390	-0.7698	-0.0015	0.0104	-0.0531	29.5985	21.4518	-15.3615	-0.3727	-0.6128	-0.4102	0.5632
7.99	-9.6222	0.0445	-0.7686	-0.0161	0.0036	-0.0514	29.4847	21.4720	-15.3447	-0.3728	-0.6128	-0.4103	0.5632
8	-9.6221	0.0532	-0.7537	-0.0052	0.0028	-0.0506	29.3735	21.4713	-15.3766	-0.3728	-0.6128	-0.4103	0.5632
8.01	-9.6390	0.0632	-0.7562	-0.0055	0.0080	-0.0496	29.5097	21.4486	-15.3110	-0.3728	-0.6128	-0.4103	0.5632
8.02	-9.6284	0.0527	-0.7743	-0.0057	0.0110	-0.0521	29.4351	21.3342	-15.2737	-0.3728	-0.6128	-0.4103	0.5631
8.03	-9.5973	0.0508	-0.7694	-0.0046	0.0048	-0.0498	29.5884	21.4932	-15.5020	-0.3728	-0.6128	-0.4103	0.5631
8.04	-9.6154	0.0729	-0.7521	-0.0098	0.0109	-0.0511	29.4260	21.3408	-15.1799	-0.3729	-0.6129	-0.4104	0.5631
8.05	-9.6255	0.0838	-0.7820	-0.0104	0.0127	-0.0552	29.4065	21.4436	-15.2136	-0.3728	-0.6128	-0.4104	0.5630
8.06	-9.6010	0.0733	-0.7794	-0.0119	0.0071	-0.0563	29.5221	21.4360	-15.2866	-0.3729	-0.6129	-0.4105	0.5630
8.07	-9.6089	0.0674	-0.7516	-0.0108	0.0064	-0.0548	29.3500	21.2445	-15.2332	-0.3729	-0.6128	-0.4105	0.5629
8.08	-9.6261	0.0682	-0.7885	-0.0097	0.0157	-0.0567	29.4126	21.4596	-15.5396	-0.3729	-0.6128	-0.4106	0.5629
8.09	-9.6470	0.0736	-0.7777	-0.0120	0.0125	-0.0582	29.7302	21.2344	-15.0870	-0.3729	-0.6128	-0.4107	0.5629
8.1	-9.6914	0.0681	-0.7627	-0.0114	0.0075	-0.0554	30.0289	21.2605	-14.8363	-0.3729	-0.6128	-0.4107	0.5628
8.11	-9.7176	0.0509	-0.8048	-0.0133	0.0054	-0.0562	30.0981	21.5266	-15.0242	-0.3729	-0.6128	-0.4108	0.5628
8.12	-9.6773	0.0416	-0.7960	-0.0203	-0.0059	-0.0546	29.7538	21.0948	-15.1792	-0.3730	-0.6127	-0.4108	0.5628
8.13	-9.6004	0.0461	-0.7657	-0.0186	-0.0136	-0.0552	29.4787	20.9756	-15.2614	-0.3731	-0.6126	-0.4108	0.5628
8.14	-9.5578	0.0327	-0.7577	-0.0230	-0.0127	-0.0529	29.3283	21.2456	-15.3745	-0.3732	-0.6125	-0.4108	0.5628
8.15	-9.5639	0.0093	-0.7714	-0.0176	0.0042	-0.0460	29.4257	21.0991	-15.2251	-0.3733	-0.6125	-0.4109	0.5628
8.16	-9.5814	0.0051	-0.7803	-0.0154	0.0067	-0.0510	29.5767	21.0145	-15.4758	-0.3733	-0.6125	-0.4109	0.5627
8.17	-9.6041	0.0119	-0.7872	-0.0115	0.0116	-0.0501	29.5154	21.1751	-15.2735	-0.3733	-0.6125	-0.4110	0.5626
8.18	-9.6149	0.0152	-0.7865	-0.0121	0.0157	-0.0553	29.3849	21.2946	-15.2507	-0.3733	-0.6125	-0.4111	0.5626
8.19	-9.6226	0.0077	-0.8037	-0.0122	0.0159	-0.0627	29.5424	21.6057	-15.4090	-0.3733	-0.6125	-0.4111	0.5625
8.2	-9.6319	0.0145	-0.8141	-0.0033	0.0155	-0.0568	29.4243	21.4577	-15.2887	-0.3733	-0.6125	-0.4112	0.5625
8.21	-9.6228	0.0344	-0.8250	0.0016	0.0112	-0.0532	29.3797	21.3445	-15.1753	-0.3732	-0.6125	-0.4112	0.5624
8.22	-9.6123	0.0546	-0.8155	0.0010	0.0129	-0.0497	29.4402	21.3756	-15.0449	-0.3733	-0.6126	-0.4112	0.5625
8.23	-9.6065	0.0700	-0.8134	-0.0112	0.0076	-0.0513	29.4978	21.4535	-15.3051	-0.3733	-0.6126	-0.4112	0.5624
8.24	-9.6080	0.0740	-0.8166	-0.0124	0.0106	-0.0552	29.5175	21.2174	-15.3852	-0.3733	-0.6126	-0.4113	0.5624
8.25	-9.5999	0.0744	-0.8236	-0.0124	0.0057	-0.0503	29.3608	21.4050	-15.2432	-0.3733	-0.6125	-0.4113	0.5623
8.26	-9.6060	0.0788	-0.8183	-0.0129	-0.0020	-0.0522	29.4861	21.2839	-15.2755	-0.3734	-0.6125	-0.4114	0.5623
8.27	-9.6185	0.0714	-0.8309	-0.0122	0.0077	-0.0516	29.7949	21.3193	-15.4463	-0.3734	-0.6125	-0.4114	0.5623
8.28	-9.6368	0.0530	-0.8425	-0.0124	0.0201	-0.0488	29.7490	20.9923	-15.4285	-0.3734	-0.6125	-0.4114	0.5622
8.29	-9.6581	0.0383	-0.8453	-0.0121	0.0153	-0.0511	29.6515	21.0285	-15.3618	-0.3734	-0.6126	-0.4115	0.5622
8.3	-9.6595	0.0377	-0.8591	-0.0138	0.0091	-0.0459	29.7041	21.2303	-15.2746	-0.3734	-0.6126	-0.4115	0.5621
8.31	-9.6704	0.0409	-0.8618	-0.0152	0.0082	-0.0431	29.5446	21.1622	-15.0922	-0.3735	-0.6126	-0.4116	0.5621
8.32	-9.6772	0.0513	-0.8736	-0.0131	0.0058	-0.0484	29.3657	21.1751	-15.3922	-0.3735	-0.6125	-0.4116	0.5619
8.33	-9.6875	0.0603	-0.8732	-0.0126	0.0043	-0.0494	29.4347	21.3190	-15.4546	-0.3736	-0.6126	-0.4116	0.5619
8.34	-9.6914	0.0597	-0.8722	-0.0129	-0.0086	-0.0510	29.5355	21.1312	-15.2273	-0.3737	-0.6125	-0.4116	0.5620
8.35	-9.6782	0.0598	-0.8690	-0.0125	-0.0100	-0.0549	29.3673	20.8199	-15.0471	-0.3738	-0.6124	-0.4116	0.5619
8.36	-9.6598	0.0519	-0.8599	-0.0124	-0.0184	-0.0591	29.6367	21.3902	-15.0897	-0.3739	-0.6124	-0.4116	0.5621
8.37	-9.6381	0.0346	-0.8519	-0.0117	-0.0162	-0.0587	29.6606	21.4245	-15.2107	-0.3740	-0.6122	-0.4116	0.5621
8.38	-9.6125	0.0359	-0.8515	-0.0124	-0.0159	-0.0564	29.5016	21.2848	-15.1223	-0.3740	-0.6122	-0.4116	0.5622
8.39	-9.6094	0.0427	-0.8202	-0.0112	-0.0275	-0.0528	29.4004	21.2267	-15.3028	-0.3741	-0.6120	-0.4115	0.5621
8.4	-9.6622	0.0400	-0.8168	-0.0103	-0.0087	-0.0585	29.4046	21.4501	-15.3150	-0.3742	-0.6120	-0.4116	0.5622
8.41	-9.6552	0.0217	-0.8431	-0.0120	-0.0102	-0.0616	29.5714	21.6678	-15.1351	-0.3742	-0.6119	-0.4116	0.5623
8.42	-9.6276	0.0265	-0.8018	-0.0103	-0.0219	-0.0530	29.3011	21.3093	-15.1843	-0.3743	-0.6118	-0.4115	0.5623
8.43	-9.6026	0.0394	-0.7916	-0.0104	-0.0148	-0.0511	29.3363	21.4804	-15.1783	-0.3744	-0.6118	-0.4115	0.5624
8.44	-9.5818	0.0219	-0.7855	-0.0121	-0.0188	-0.0533	29.4036	21.2728	-15.2777	-0.3745	-0.6117	-0.4115	0.5624
8.45	-9.6067	0.0032	-0.7747	-0.0106	-0.0233	-0.0513	29.6987	21.2914	-15.3012	-0.3746	-0.6116	-0.4115	0.5625
8.46	-9.6102	-0.0025	-0.8026	-0.0136	-0.0214	-0.0498	29.8084	21.1617	-15.3964	-0.3746	-0.6114	-0.4115	0.5625
8.47	-9.5957	0.0155	-0.7868	-0.0092	-0.0158	-0.0416	29.5035	21.2121	-15.1844	-0.3748	-0.6115	-0.4115	0.5625
8.48	-9.5881	0.0440	-0.7702	-0.0099	-0.0161	-0.0459	29.6645	21.0918	-15.3728	-0.3748	-0.6114	-0.4114	0.5625
8.49	-9.6072	0.0504	-0.7847	-0.0097	-0.0063	-0.0440	29.6605	20.9491	-15.1833	-0.3749	-0.6114	-0.4114	0.5626
8.5	-9.6252	0.0565	-0.8081	-0.0073	-0.0035	-0.0456	29.6855	21.1347	-15.1562	-0.3749	-0.6113	-0.4114	0.5625
8.51	-9.6390	0.0806	-0.7899	0.0051	-0.0082	-0.0447	29.7628	21.1814	-15.2781	-0.3750	-0.6113	-0.4113	0.5626
8.52	-9.6488	0.0878	-0.7920	-0.0117	-0.0033	-0.0508	29.5858	21.1873	-15.2904	-0.3750	-0.6113	-0.4114	0.5626
8.53	-9.6520	0.0808	-0.8068	-0.0089	-0.0105	-0.0529	29.5691	21.1658	-15.4114	-0.3750	-0.6112	-0.4113	0.5625
8.54	-9.6359	0.0821	-0.7959	-0.0106	-0.0134	-0.0554	29.6042	21.1994	-15.0713	-0.3752	-0.6112	-0.4114	0.5626
8.55	-9.6187	0.0740	-0.7865	-0.0130	-0.0061	-0.0594	29.5338	21.4471	-15.1519	-0.3752	-0.6111	-0.4114	0.5626
8.56	-9.6222	0.0679	-0.7892	-0.0105	-0.0109	-0.0530	29.4844	21.4369	-15.3897	-0.3752	-0.6111	-0.4114	0.5627
8.57	-9.6174	0.0530	-0.7959	-0.0139	-0.0031	-0.0546	29.4922	21.4548	-15.2604	-0.3752	-0.6110	-0.4114	0.5626
8.58	-9.6143	0.0410	-0.7933	-0.0166	-0.0051	-0.0525	29.5091	21.3079	-15.1205	-0.3753	-0.6110	-0.4115	0.5626
8.59	-9.6189	0.0369	-0.7944	-0.0178	-0.0032	-0.0442	29.6441	21.6277	-15.0882	-0.3754	-0.6109	-0.4115	0.5626
8.6	-9.6309	0.0353	-0.7894	-0.0128	-0.0079	-0.0408	29.7686	21.4817	-15.3713	-0.3755	-0.6109	-0.4114	0.5626
8.61	-9.6535	0.0376	-0.7923	-0.0129	-0.0090	-0.0431	29.7515	21.2200	-15.3479	-0.3756	-0.6109	-0.4115	0.5626
8.62	-9.6600	0.0335	-0.7921	-0.0125	-0.0080	-0.0411	29.6072	21.4790	-15.4204	-0.3757	-0.6108	-0.4114	0.5626
8.63	-9.6609	0.0418	-0.7928	-0.0124	-0.0166	-0.0319	29.4812	21.3246	-15.1930	-0.3758	-0.6108	-0.4114	0.5626
8.64	-9.6590	0.0558	-0.7866	-0.0057	-0.0090	-0.0392	29.2806	21.3112	-15.3735	-0.3759	-0.6107	-0.4113	0.5625
8.65	-9.6559	0.0552	-0.7798	0.0019	-0.0182	-0.0479	29.5678	20.9915	-15.5909	-0.3760	-0.6107	-0.4112	0.5626
8.66	-9.6483	0.0652	-0.7721	0.0100	-0.0218	-0.0514	29.5129	21.1181	-15.3166	-0.3760	-0.6107	-0.4111	0.5627
8.67	-9.6310	0.0701	-0.7706	0.0129	-0.0207	-0.0510	29.4456	21.2109	-15.4703	-0.3760	-0.6106	-0.4110	0.5628
8.68	-9.6143	0.0793	-0.7604	0.0145	-0.0248	-0.0559	29.5945	21.1799	-15.4175	-0.3761	-0.6106	-0.4110	0.5630
8.69	-9.6073	0.0902	-0.7543	0.0120	-0.0171	-0.0503	29.4007	21.3007	-15.3948	-0.3761	-0.6105	-0.4109	0.5630
8.7	-9.6128	0.1057	-0.7480	0.0148	-0.0174	-0.0545	29.4103	21.2692	-15.6703	-0.3761	-0.6105	-0.4108	0.5631
8.71	-9.6199	0.1059	-0.7348	-0.0007	-0.0179	-0.0581	29.6811	21.1953	-15.6081	-0.3760	-0.6104	-0.4107	0.5632
8.72	-9.6220	0.0979	-0.7351	-0.0042	-0.0213	-0.0567	29.5237	21.1684	-15.7700	-0.3761	-0.6104	-0.4108	0.5633
8.73	-9.6170	0.0940	-0.7332	-0.0082	-0.0203	-0.0515	29.4582	21.3800	-15.5055	-0.3762	-0.6103	-0.4107	0.5633
8.74	-9.6071	0.0822	-0.7283	-0.0129	-0.0145	-0.0560	29.4909	21.5142	-15.4263	-0.3763	-0.6102	-0.4108	0.5634
8.75	-9.5961	0.0744	-0.7296	-0.0092	-0.0058	-0.0558	29.4641	21.2092	-15.5638	-0.3763	-0.6101	-0.4108	0.5634
8.76	-9.5918	0.0698	-0.7252	-0.0149	-0.0116	-0.0548	29.3650	21.2257	-15.6642	-0.3764	-0.6101	-0.4108	0.5634
8.77	-9.5887	0.0747	-0.7314	-0.0118	-0.0078	-0.0519	29.3989	21.4576	-15.5908	-0.3764	-0.6100	-0.4108	0.5634
8.78	-9.5997	0.0776	-0.7262	-0.0120	-0.0036	-0.0520	29.3822	21.4515	-15.4528	-0.3765	-0.6099	-0.4108	0.5634
8.79	-9.6141	0.0823	-0.7329	-0.0109	0.0032	-0.0564	29.2928	21.4295	-15.3518	-0.3765	-0.6100	-0.4109	0.5634
8.8	-9.6207	0.0837	-0.7359	-0.0143	0.0044	-0.0627	29.4413	21.3619	-15.2161	-0.3765	-0.6099	-0.4109	0.5634
8.81	-9.6214	0.0830	-0.7269	-0.0146	-0.0003	-0.0600	29.2797	21.5273	-15.4206	-0.3766	-0.6099	-0.4110	0.5634
8.82	-9.6134	0.0755	-0.7339	-0.0127	0.0008	-0.0556	29.4767	21.2093	-15.5741	-0.3766	-0.6098	-0.4110	0.5633
8.83	-9.6177	0.0665	-0.7370	-0.0145	-0.0044	-0.0641	29.6065	21.2303	-15.5136	-0.3766	-0.6098	-0.4111	0.5634
8.84	-9.6182	0.0558	-0.7430	-0.0115	0.0000	-0.0640	29.4961	21.2389	-15.4106	-0.3766	-0.6097	-0.4111	0.5634
8.85	-9.6066	0.0404	-0.7499	-0.0122	-0.0016	-0.0585	29.4561	21.1503	-15.5536	-0.3766	-0.6096	-0.4112	0.5633
8.86	-9.5958	0.0338	-0.7520	-0.0112	0.0048	-0.0603	29.5870	21.3025	-15.5307	-0.3767	-0.6097	-0.4113	0.5634
8.87	-9.6024	0.0382	-0.7515	-0.0136	0.0076	-0.0551	29.5509	21.2643	-15.5821	-0.3767	-0.6096	-0.4113	0.5633
8.88	-9.6272	0.0303	-0.7600	-0.0163	0.0121	-0.0494	29.3378	21.2424	-15.6743	-0.3767	-0.6096	-0.4114	0.5633
8.89	-9.6537	0.0234	-0.7724	-0.0119	0.0089	-0.0519	29.1751	21.0389	-15.5251	-0.3767	-0.6095	-0.4114	0.5632
8.9	-9.6592	0.0270	-0.7775	-0.0125	0.0036	-0.0525	29.3457	21.2769	-15.5518	-0.3768	-0.6096	-0.4114	0.5632
8.91	-9.6552	0.0318	-0.7683	-0.0101	-0.0011	-0.0509	29.4043	21.3534	-15.5451	-0.3768	-0.6095	-0.4114	0.5632
8.92	-9.6487	0.0318	-0.7698	-0.0122	-0.0017	-0.0504	29.3612	21.1576	-15.5445	-0.3769	-0.6095	-0.4114	0.5631
8.93	-9.6443	0.0348	-0.7701	-0.0126	0.0028	-0.0527	29.5070	21.2813	-15.5413	-0.3769	-0.6095	-0.4115	0.5632
8.94	-9.6306	0.0433	-0.7701	-0.0111	-0.0027	-0.0500	29.4341	21.4245	-15.6921	-0.3770	-0.6095	-0.4115	0.5631
8.95	-9.6210	0.0555	-0.7656	-0.0050	-0.0055	-0.0524	29.3678	21.4060	-15.5506	-0.3770	-0.6095	-0.4115	0.5632
8.96	-9.6175	0.0692	-0.7653	-0.0132	-0.0034	-0.0554	29.4035	21.3181	-15.5694	-0.3770	-0.6093	-0.4115	0.5631
8.97	-9.6192	0.0734	-0.7668	-0.0073	-0.0033	-0.0508	29.2623	21.5103	-15.2855	-0.3771	-0.6094	-0.4115	0.5632
8.98	-9.6296	0.0711	-0.7645	-0.0106	0.0054	-0.0512	29.3465	21.1975	-15.4985	-0.3771	-0.6093	-0.4116	0.5631
8.99	-9.6335	0.0692	-0.7680	-0.0122	0.0082	-0.0507	29.4468	21.2492	-15.4929	-0.3772	-0.6094	-0.4116	0.5631
9	-9.6417	0.0585	-0.7651	-0.0117	-0.0006	-0.0530	29.6865	21.3635	-15.4300	-0.3772	-0.6093	-0.4116	0.5630
9.01	-9.6489	0.0465	-0.7618	-0.0124	-0.0075	-0.0516	29.6251	21.3960	-15.5941	-0.3773	-0.6093	-0.4116	0.5631
9.02	-9.6575	0.0389	-0.7655	-0.0127	-0.0092	-0.0515	29.5081	21.2378	-15.5031	-0.3773	-0.6092	-0.4117	0.5631
9.03	-9.6435	0.0305	-0.7717	-0.0066	-0.0048	-0.0510	29.3680	21.1552	-15.6497	-0.3773	-0.6091	-0.4116	0.5630
9.04	-9.6259	0.0386	-0.7520	-0.0011	-0.0108	-0.0461	29.4087	21.2887	-15.6275	-0.3774	-0.6092	-0.4116	0.5631
9.05	-9.6102	0.0541	-0.7503	0.0039	-0.0098	-0.0472	29.4817	21.1532	-15.4982	-0.3774	-0.6091	-0.4115	0.5631
9.06	-9.6056	0.0666	-0.7495	0.0132	-0.0037	-0.0458	29.2633	21.4250	-15.6403	-0.3775	-0.6092	-0.4115	0.5632
9.07	-9.5963	0.0886	-0.7352	0.0076	-0.0046	-0.0497	29.4084	21.1345	-15.6343	-0.3774	-0.6091	-0.4114	0.5632
9.08	-9.6082	0.1059	-0.7265	-0.0030	-0.0009	-0.0552	29.4732	21.1206	-15.6382	-0.3774	-0.6091	-0.4114	0.5632
9.09	-9.6123	0.1071	-0.7429	-0.0015	0.0015	-0.0527	29.3399	21.5754	-15.4257	-0.3774	-0.6091	-0.4114	0.5632
9.1	-9.6044	0.1088	-0.7453	-0.0060	-0.0023	-0.0574	29.8432	21.3838	-15.2669	-0.3774	-0.6091	-0.4114	0.5632
9.11	-9.6178	0.1142	-0.7246	-0.0083	0.0002	-0.0587	29.9322	21.2437	-15.1544	-0.3775	-0.6091	-0.4115	0.5633
9.12	-9.6322	0.1112	-0.7496	-0.0110	0.0152	-0.0658	29.7473	21.3235	-15.1448	-0.3774	-0.6091	-0.4115	0.5632
9.13	-9.6037	0.0950	-0.7508	-0.0136	0.0087	-0.0664	29.4682	21.3998	-15.2006	-0.3774	-0.6091	-0.4116	0.5632
9.14	-9.5932	0.0691	-0.7208	-0.0218	0.0052	-0.0718	29.2964	21.0189	-15.2996	-0.3774	-0.6089	-0.4117	0.5632
9.15	-9.6040	0.0461	-0.7409	-0.0188	0.0146	-0.0673	29.4310	21.4224	-15.3620	-0.3774	-0.6089	-0.4118	0.5632
9.16	-9.6093	0.0466	-0.7486	-0.0148	0.0073	-0.0589	29.5346	21.4928	-15.4325	-0.3774	-0.6089	-0.4119	0.5632
9.17	-9.6426	0.0426	-0.7323	-0.0328	0.0133	-0.0614	29.5969	21.2121	-15.4134	-0.3774	-0.6088	-0.4120	0.5631
9.18	-9.6608	0.0171	-0.7600	-0.0340	0.0094	-0.0565	29.4453	21.3964	-15.2308	-0.3775	-0.6088	-0.4121	0.5630
9.19	-9.6341	0.0115	-0.7709	-0.0161	0.0056	-0.0520	29.5163	21.3407	-15.1880	-0.3776	-0.6088	-0.4122	0.5630
9.2	-9.5738	0.0223	-0.7482	-0.0130	-0.0015	-0.0508	29.6251	21.3504	-15.3853	-0.3776	-0.6088	-0.4122	0.5630
9.21	-9.5473	0.0167	-0.7341	-0.0134	0.0023	-0.0479	29.7569	21.0556	-15.2581	-0.3776	-0.6087	-0.4122	0.5629
9.22	-9.5764	0.0043	-0.7631	-0.0129	0.0297	-0.0428	29.8296	21.0340	-15.3862	-0.3777	-0.6088	-0.4123	0.5629
9.23	-9.6037	0.0109	-0.7796	-0.0129	0.0224	-0.0471	29.8675	21.2523	-15.3245	-0.3777	-0.6088	-0.4123	0.5628
9.24	-9.6087	0.0405	-0.7832	-0.0112	0.0214	-0.0536	29.6970	21.0845	-15.1794	-0.3777	-0.6089	-0.4124	0.5627
9.25	-9.6038	0.0594	-0.7832	-0.0126	0.0241	-0.0538	29.4485	21.0985	-15.1614	-0.3776	-0.6089	-0.4124	0.5626
9.26	-9.6068	0.0513	-0.8036	-0.0060	0.0338	-0.0611	29.5930	21.2181	-15.3426	-0.3776	-0.6089	-0.4125	0.5625
9.27	-9.6063	0.0476	-0.8348	-0.0021	0.0350	-0.0649	29.3842	21.1165	-15.3457	-0.3775	-0.6090	-0.4126	0.5625
9.28	-9.6078	0.0728	-0.8270	0.0068	0.0328	-0.0527	29.7052	21.0781	-15.4681	-0.3774	-0.6091	-0.4126	0.5624
9.29	-9.6221	0.0849	-0.8312	0.0075	0.0316	-0.0564	29.4961	21.1068	-15.3216	-0.3773	-0.6092	-0.4127	0.5624
9.3	-9.6441	0.0863	-0.8494	0.0030	0.0258	-0.0565	29.2302	21.3791	-15.1339	-0.3772	-0.6092	-0.4127	0.5623
9.31	-9.6576	0.0904	-0.8574	-0.0092	0.0215	-0.0516	29.3832	21.2797	-15.2176	-0.3772	-0.6093	-0.4128	0.5623
9.32	-9.6568	0.0949	-0.8565	-0.0113	0.0135	-0.0480	29.4845	21.2731	-15.1540	-0.3772	-0.6093	-0.4128	0.5622
9.33	-9.6589	0.0899	-0.8610	-0.0108	0.0199	-0.0467	29.5809	21.2552	-15.0927	-0.3772	-0.6093	-0.4128	0.5621
9.34	-9.6613	0.0770	-0.8708	-0.0164	0.0198	-0.0526	29.3977	21.3299	-15.0652	-0.3772	-0.6094	-0.4129	0.5621
9.35	-9.6655	0.0728	-0.8765	-0.0150	0.0119	-0.0453	29.6857	21.3695	-15.1866	-0.3772	-0.6093	-0.4129	0.5620
9.36	-9.6653	0.0797	-0.8850	-0.0148	0.0097	-0.0425	29.5320	21.3658	-15.2684	-0.3774	-0.6094	-0.4129	0.5620
9.37	-9.6634	0.0796	-0.8730	-0.0137	0.0121	-0.0484	29.4805	21.1886	-15.1826	-0.3774	-0.6094	-0.4129	0.5619
9.38	-9.6834	0.0752	-0.8831	-0.0132	0.0059	-0.0528	29.4114	21.2528	-15.3345	-0.3775	-0.6094	-0.4130	0.5619
9.39	-9.6896	0.0696	-0.8904	-0.0145	0.0046	-0.0560	29.4429	21.1972	-15.1353	-0.3775	-0.6093	-0.4129	0.5618
9.4	-9.6823	0.0631	-0.8823	-0.0117	-0.0042	-0.0569	29.6340	21.1696	-15.3423	-0.3775	-0.6093	-0.4130	0.5619
9.41	-9.6765	0.0529	-0.8718	-0.0134	-0.0125	-0.0668	29.8147	20.8457	-15.5035	-0.3776	-0.6092	-0.4130	0.5619
9.42	-9.6815	0.0389	-0.8699	-0.0090	-0.0139	-0.0669	29.8481	20.8911	-15.3382	-0.3776	-0.6091	-0.4130	0.5620
9.43	-9.6792	0.0355	-0.8702	-0.0094	-0.0172	-0.0639	29.8106	21.0269	-15.3776	-0.3777	-0.6090	-0.4130	0.5621
9.44	-9.6652	0.0373	-0.8540	-0.0130	-0.0198	-0.0571	29.7379	21.1466	-15.3244	-0.3778	-0.6089	-0.4130	0.5621
9.45	-9.6336	0.0474	-0.8435	-0.0123	-0.0295	-0.0617	29.4921	21.1927	-15.2412	-0.3779	-0.6088	-0.4130	0.5622
9.46	-9.6160	0.0649	-0.8106	-0.0129	-0.0325	-0.0536	29.5447	21.1859	-15.3646	-0.3779	-0.6086	-0.4129	0.5623
9.47	-9.6705	0.0654	-0.7957	-0.0128	-0.0236	-0.0549	29.6866	21.1603	-15.3787	-0.3781	-0.6086	-0.4129	0.5624
9.48	-9.6569	0.0396	-0.8283	-0.0202	-0.0311	-0.0595	29.4765	21.2547	-15.4820	-0.3782	-0.6084	-0.4129	0.5625
9.49	-9.6226	0.0331	-0.7780	-0.0180	-0.0380	-0.0536	29.4778	21.4818	-15.1601	-0.3783	-0.6083	-0.4128	0.5626
9.5	-9.5943	0.0301	-0.7657	-0.0286	-0.0352	-0.0574	29.5664	21.3445	-15.2924	-0.3784	-0.6081	-0.4128	0.5626
9.51	-9.5731	0.0074	-0.7624	-0.0187	-0.0304	-0.0534	29.4550	21.2284	-15.5149	-0.3786	-0.6080	-0.4128	0.5627
9.52	-9.5898	-0.0289	-0.7400	-0.0162	-0.0275	-0.0546	29.4916	21.3472	-15.3909	-0.3787	-0.6079	-0.4128	0.5628
9.53	-9.6072	-0.0376	-0.7631	-0.0123	-0.0180	-0.0451	29.4519	21.3555	-15.2871	-0.3787	-0.6077	-0.4127	0.5628
9.54	-9.6001	-0.0168	-0.7571	-0.0100	-0.0276	-0.0344	29.7106	21.2815	-15.1454	-0.3789	-0.6077	-0.4127	0.5629
9.55	-9.5949	0.0147	-0.7211	-0.0084	-0.0229	-0.0377	29.7454	21.2244	-15.2314	-0.3790	-0.6076	-0.4126	0.5629
9.56	-9.6131	0.0238	-0.7352	0.0077	-0.0155	-0.0383	29.5023	21.4426	-15.3066	-0.3791	-0.6077	-0.4125	0.5630
9.57	-9.6211	0.0273	-0.7537	0.0128	-0.0183	-0.0420	29.3696	21.3575	-15.1714	-0.3791	-0.6076	-0.4124	0.5630
9.58	-9.6091	0.0532	-0.7417	0.0152	-0.0216	-0.0469	29.5159	21.0291	-15.1768	-0.3791	-0.6076	-0.4123	0.5632
9.59	-9.5992	0.0791	-0.7303	0.0148	-0.0151	-0.0490	29.6325	21.1196	-15.1816	-0.3791	-0.6076	-0.4122	0.5632
9.6	-9.5926	0.0930	-0.7419	0.0182	-0.0128	-0.0531	30.0218	21.1435	-15.1654	-0.3791	-0.6075	-0.4121	0.5633
9.61	-9.6022	0.1139	-0.7392	0.0147	-0.0131	-0.0498	30.1150	21.3263	-15.1971	-0.3790	-0.6077	-0.4120	0.5635
9.62	-9.6109	0.1337	-0.7308	0.0152	-0.0083	-0.0524	29.7282	21.4681	-15.2504	-0.3790	-0.6076	-0.4118	0.5635
9.63	-9.6192	0.1379	-0.7385	0.0043	-0.0095	-0.0561	29.5879	21.2233	-15.3699	-0.3790	-0.6076	-0.4118	0.5636
9.64	-9.6274	0.1381	-0.7390	-0.0061	-0.0113	-0.0543	29.4273	21.2708	-15.4763	-0.3790	-0.6075	-0.4118	0.5636
9.65	-9.6156	0.1275	-0.7331	-0.0108	-0.0078	-0.0513	29.5195	21.2666	-15.3088	-0.3791	-0.6075	-0.4118	0.5637
9.66	-9.6160	0.1165	-0.7347	-0.0149	-0.0080	-0.0462	29.4900	21.2687	-15.3969	-0.3791	-0.6074	-0.4118	0.5637
9.67	-9.6172	0.0984	-0.7474	-0.0184	-0.0014	-0.0513	29.5064	21.2556	-15.5375	-0.3792	-0.6074	-0.4118	0.5636
9.68	-9.6215	0.0737	-0.7424	-0.0281	0.0025	-0.0434	29.3999	21.2747	-15.5305	-0.3793	-0.6074	-0.4119	0.5636
9.69	-9.6290	0.0575	-0.7486	-0.0268	-0.0033	-0.0415	29.4119	21.5006	-15.5518	-0.3794	-0.6073	-0.4119	0.5635
9.7	-9.6305	0.0496	-0.7576	-0.0208	-0.0012	-0.0404	29.6195	21.1297	-15.4827	-0.3795	-0.6073	-0.4119	0.5635
9.71	-9.6352	0.0456	-0.7590	-0.0180	-0.0069	-0.0416	29.4606	21.0425	-15.3221	-0.3796	-0.6072	-0.4118	0.5634
9.72	-9.6486	0.0416	-0.7659	-0.0108	-0.0006	-0.0430	29.5551	21.3571	-15.3675	-0.3797	-0.6073	-0.4119	0.5635
9.73	-9.6544	0.0386	-0.7670	-0.0135	-0.0085	-0.0486	29.6872	21.2976	-15.4869	-0.3797	-0.6072	-0.4119	0.5635
9.74	-9.6605	0.0492	-0.7634	-0.0075	-0.0016	-0.0562	29.4693	21.2621	-15.3444	-0.3798	-0.6072	-0.4119	0.5635
9.75	-9.6629	0.0618	-0.7604	0.0012	-0.0050	-0.0521	29.5972	21.2523	-15.3535	-0.3797	-0.6071	-0.4118	0.5635
9.76	-9.6645	0.0736	-0.7562	0.0075	-0.0180	-0.0507	29.3543	21.3026	-15.4653	-0.3798	-0.6071	-0.4118	0.5636
9.77	-9.6480	0.0834	-0.7465	0.0125	-0.0219	-0.0546	29.6449	21.1437	-15.4273	-0.3798	-0.6071	-0.4117	0.5637
9.78	-9.6342	0.0925	-0.7412	0.0072	-0.0209	-0.0553	29.3838	21.0565	-15.4476	-0.3798	-0.6070	-0.4116	0.5638
9.79	-9.6164	0.1003	-0.7334	0.0028	-0.0239	-0.0526	29.5273	21.2049	-15.3264	-0.3799	-0.6070	-0.4116	0.5639
9.8	-9.6095	0.1086	-0.7253	-0.0010	-0.0150	-0.0513	29.6124	21.0384	-15.3547	-0.3799	-0.6069	-0.4115	0.5640
9.81	-9.6123	0.1102	-0.7274	-0.0103	-0.0150	-0.0500	29.5323	21.4063	-15.3427	-0.3800	-0.6069	-0.4115	0.5640
9.82	-9.6137	0.1059	-0.7179	-0.0095	-0.0165	-0.0556	29.3743	21.1405	-15.3601	-0.3800	-0.6067	-0.4114	0.5640
9.83	-9.6127	0.0926	-0.7196	-0.0113	-0.0097	-0.0542	29.4476	20.9897	-15.3191	-0.3800	-0.6067	-0.4115	0.5641
9.84	-9.6015	0.0806	-0.7138	-0.0115	-0.0138	-0.0574	29.5054	21.3256	-15.4115	-0.3801	-0.6066	-0.4115	0.5641
9.85	-9.5953	0.0697	-0.7099	-0.0120	-0.0061	-0.0541	29.5054	21.1380	-15.4606	-0.3801	-0.6065	-0.4115	0.5641
9.86	-9.6029	0.0681	-0.7145	-0.0108	0.0006	-0.0610	29.4715	21.3187	-15.3275	-0.3802	-0.6066	-0.4116	0.5642
9.87	-9.6061	0.0693	-0.7210	-0.0120	-0.0030	-0.0522	29.4284	21.3238	-15.3634	-0.3802	-0.6065	-0.4115	0.5641
9.88	-9.6096	0.0797	-0.7143	-0.0128	-0.0043	-0.0502	29.5281	21.2421	-15.3400	-0.3802	-0.6065	-0.4116	0.5642
9.89	-9.6135	0.0840	-0.7165	-0.0125	-0.0006	-0.0541	29.4777	21.2871	-15.3529	-0.3802	-0.6064	-0.4116	0.5641
9.9	-9.6166	0.0842	-0.7240	-0.0121	0.0033	-0.0562	29.6172	21.0232	-15.4551	-0.3803	-0.6064	-0.4116	0.5641
9.91	-9.6118	0.0865	-0.7206	-0.0118	0.0057	-0.0513	29.3886	21.3452	-15.4154	-0.3803	-0.6064	-0.4116	0.5641
9.92	-9.6031	0.0903	-0.7136	-0.0121	0.0055	-0.0540	29.4842	21.2842	-15.2300	-0.3803	-0.6063	-0.4117	0.5641
9.93	-9.6053	0.0903	-0.7190	-0.0115	0.0046	-0.0559	29.6017	21.2571	-15.2910	-0.3803	-0.6064	-0.4117	0.5641
9.94	-9.6092	0.0802	-0.7300	-0.0110	0.0079	-0.0545	29.5836	21.2668	-15.3245	-0.3803	-0.6063	-0.4118	0.5640
9.95	-9.6169	0.0667	-0.7338	-0.0120	0.0017	-0.0521	29.5852	21.0693	-15.2304	-0.3804	-0.6063	-0.4118	0.5641
9.96	-9.6109	0.0575	-0.7311	-0.0114	0.0097	-0.0542	29.5835	21.1820	-15.2546	-0.3804	-0.6063	-0.4118	0.5640
9.97	-9.6132	0.0561	-0.7368	-0.0147	0.0072	-0.0592	29.6912	21.2814	-15.2743	-0.3804	-0.6063	-0.4119	0.5640
9.98	-9.6145	0.0544	-0.7448	-0.0150	0.0107	-0.0532	29.5102	21.1088	-15.5255	-0.3804	-0.6063	-0.4119	0.5639
9.99	-9.6256	0.0687	-0.7418	-0.0117	0.0070	-0.0516	29.4820	21.3427	-15.3053	-0.3804	-0.6063	-0.4120	0.5639
10	-9.6361	0.0730	-0.7449	-0.0118	0.0074	-0.0574	29.5984	21.3707	-15.4904	-0.3804	-0.6062	-0.4120	0.5639
10.01	-9.6347	0.0664	-0.7519	-0.0114	0.0074	-0.0572	29.7038	21.2050	-15.4978	-0.3804	-0.6062	-0.4121	0.5639
10.02	-9.6284	0.0687	-0.7488	-0.0115	0.0037	-0.0612	29.4316	21.1728	-15.2264	-0.3805	-0.6062	-0.4121	0.5639
10.03	-9.6268	0.0728	-0.7421	-0.0126	0.0045	-0.0617	29.3762	21.1812	-15.3316	-0.3804	-0.6061	-0.4121	0.5638
10.04	-9.6311	0.0664	-0.7512	-0.0130	0.0059	-0.0557	29.7371	21.0781	-15.4852	-0.3805	-0.6062	-0.4122	0.5639
10.05	-9.6228	0.0657	-0.7582	-0.0130	0.0082	-0.0562	29.6282	21.0968	-15.5046	-0.3805	-0.6061	-0.4123	0.5638
10.06	-9.6163	0.0772	-0.7455	-0.0124	0.0086	-0.0542	29.5135	21.3445	-15.3985	-0.3805	-0.6062	-0.4123	0.5638
10.07	-9.6223	0.0816	-0.7502	-0.0131	0.0118	-0.0573	29.4078	21.3640	-15.5701	-0.3805	-0.6061	-0.4124	0.5637
10.08	-9.6205	0.0768	-0.7595	-0.0126	0.0105	-0.0537	29.3841	21.1084	-15.3750	-0.3805	-0.6061	-0.4124	0.5637
10.09	-9.6180	0.0754	-0.7586	-0.0132	0.0086	-0.0473	29.5023	21.2634	-15.1493	-0.3805	-0.6061	-0.4125	0.5637
10.1	-9.6124	0.0768	-0.7573	-0.0125	0.0131	-0.0546	30.0606	21.2647	-15.2354	-0.3805	-0.6061	-0.4125	0.5636
10.11	-9.6071	0.0636	-0.7636	-0.0119	0.0114	-0.0598	30.1261	21.2852	-15.3755	-0.3806	-0.6062	-0.4126	0.5636
10.12	-9.6049	0.0570	-0.7637	-0.0123	0.0090	-0.0590	29.7576	21.1966	-15.2724	-0.3805	-0.6061	-0.4126	0.5635
10.13	-9.6111	0.0522	-0.7677	-0.0121	0.0029	-0.0517	29.4247	21.3989	-15.3093	-0.3806	-0.6061	-0.4127	0.5636
10.14	-9.6230	0.0594	-0.7780	-0.0125	0.0088	-0.0518	29.3806	20.9682	-15.3667	-0.3805	-0.6060	-0.4126	0.5635
10.15	-9.6383	0.0646	-0.7809	-0.0116	0.0082	-0.0529	29.6356	20.9998	-15.4758	-0.3806	-0.6061	-0.4127	0.5635
10.16	-9.6547	0.0779	-0.7809	-0.0099	0.0072	-0.0483	29.8004	20.9091	-15.3853	-0.3806	-0.6061	-0.4127	0.5635
10.17	-9.6576	0.0789	-0.7973	-0.0137	0.0056	-0.0539	29.5553	20.9095	-15.3265	-0.3805	-0.6061	-0.4127	0.5634
10.18	-9.6424	0.0841	-0.7847	-0.0086	-0.0010	-0.0512	29.5606	20.9112	-15.3745	-0.3806	-0.6061	-0.4127	0.5634
10.19	-9.6552	0.1015	-0.7754	-0.0061	0.0021	-0.0525	29.4020	21.0351	-15.3192	-0.3806	-0.6061	-0.4127	0.5634
10.2	-9.6516	0.1176	-0.7927	-0.0128	0.0039	-0.0608	29.4090	21.0222	-15.4441	-0.3806	-0.6061	-0.4128	0.5634
10.21	-9.6196	0.1092	-0.7881	-0.0117	-0.0049	-0.0656	29.5846	20.8881	-15.3698	-0.3806	-0.6059	-0.4128	0.5634
10.22	-9.6140	0.0878	-0.7704	-0.0146	-0.0025	-0.0618	29.5313	21.0513	-15.1092	-0.3806	-0.6060	-0.4129	0.5635
10.23	-9.6113	0.0882	-0.7850	-0.0112	0.0028	-0.0650	29.5965	21.2127	-15.4095	-0.3806	-0.6059	-0.4129	0.5635
10.24	-9.6267	0.0921	-0.7694	-0.0128	0.0045	-0.0671	29.4585	21.3101	-15.4788	-0.3806	-0.6059	-0.4130	0.5635
10.25	-9.6688	0.0689	-0.7775	-0.0278	0.0067	-0.0600	29.5009	21.2872	-15.3444	-0.3806	-0.6058	-0.4131	0.5634
10.26	-9.6901	0.0416	-0.7999	-0.0228	0.0088	-0.0601	29.2735	21.2460	-15.3636	-0.3807	-0.6058	-0.4132	0.5634
10.27	-9.6606	0.0319	-0.7921	-0.0210	-0.0038	-0.0598	29.4287	21.2177	-15.3614	-0.3808	-0.6057	-0.4132	0.5634
10.28	-9.6094	0.0246	-0.7620	-0.0157	-0.0121	-0.0589	29.4091	21.3964	-15.3494	-0.3808	-0.6056	-0.4132	0.5634
10.29	-9.5883	0.0075	-0.7594	-0.0182	-0.0065	-0.0550	29.2704	21.2664	-15.4874	-0.3809	-0.6056	-0.4133	0.5634
10.3	-9.5931	0.0055	-0.7706	-0.0126	0.0004	-0.0492	29.5803	21.2783	-15.4003	-0.3809	-0.6055	-0.4133	0.5634
10.31	-9.6106	0.0173	-0.7697	-0.0077	0.0057	-0.0474	29.5467	21.3254	-15.3420	-0.3810	-0.6056	-0.4133	0.5634
10.32	-9.6097	0.0400	-0.7714	-0.0090	-0.0025	-0.0435	29.5700	21.0683	-15.3673	-0.3810	-0.6055	-0.4132	0.5633
10.33	-9.6009	0.0665	-0.7729	-0.0043	0.0029	-0.0474	29.4244	21.1675	-15.3453	-0.3810	-0.6056	-0.4133	0.5633
10.34	-9.5958	0.0741	-0.7867	0.0009	0.0012	-0.0548	29.5371	21.1472	-15.3709	-0.3810	-0.6056	-0.4132	0.5634
10.35	-9.6008	0.0876	-0.7830	0.0036	0.0098	-0.0584	29.5681	21.1131	-15.3347	-0.3809	-0.6055	-0.4132	0.5633
10.36	-9.6068	0.1012	-0.7837	0.0052	0.0084	-0.0638	29.5478	20.9860	-15.3837	-0.3809	-0.6056	-0.4133	0.5634
10.37	-9.6038	0.1039	-0.7868	0.0066	0.0100	-0.0647	29.5718	20.8288	-15.4326	-0.3808	-0.6056	-0.4133	0.5634
10.38	-9.6003	0.0922	-0.7905	-0.0083	0.0085	-0.0639	29.5012	21.2545	-15.2678	-0.3808	-0.6056	-0.4134	0.5634
10.39	-9.5912	0.0810	-0.7863	-0.0049	0.0060	-0.0552	29.4278	21.0045	-15.2531	-0.3807	-0.6055	-0.4133	0.5634
10.4	-9.5861	0.0666	-0.7917	-0.0109	0.0094	-0.0507	29.6341	20.9116	-15.1627	-0.3808	-0.6056	-0.4134	0.5634
10.41	-9.5967	0.0554	-0.8079	-0.0169	0.0145	-0.0476	29.4161	20.9759	-15.3233	-0.3808	-0.6056	-0.4134	0.5633
10.42	-9.6153	0.0545	-0.8147	-0.0164	0.0148	-0.0432	29.3825	21.1027	-15.4483	-0.3808	-0.6056	-0.4135	0.5632
10.43	-9.6459	0.0527	-0.8198	-0.0174	0.0298	-0.0482	29.3442	21.2051	-15.4481	-0.3809	-0.6057	-0.4136	0.5631
10.44	-9.6673	0.0547	-0.8298	-0.0284	0.0303	-0.0454	29.3457	21.3305	-15.3337	-0.3809	-0.6057	-0.4136	0.5629
10.45	-9.6837	0.0530	-0.8399	-0.0196	0.0208	-0.0471	29.5165	21.4066	-15.3782	-0.3809	-0.6058	-0.4137	0.5629
10.46	-9.6825	0.0574	-0.8408	-0.0149	0.0095	-0.0427	29.4551	21.2626	-15.3535	-0.3809	-0.6057	-0.4137	0.5627
10.47	-9.6820	0.0659	-0.8445	-0.0083	0.0135	-0.0533	29.4556	21.4148	-15.2574	-0.3810	-0.6058	-0.4138	0.5628
10.48	-9.6710	0.0741	-0.8508	-0.0117	0.0044	-0.0540	29.5487	21.3100	-15.2756	-0.3810	-0.6058	-0.4138	0.5627
10.49	-9.6520	0.0765	-0.8454	-0.0111	0.0042	-0.0587	29.7235	21.3157	-15.2536	-0.3810	-0.6058	-0.4138	0.5627
10.5	-9.6392	0.0774	-0.8371	-0.0116	-0.0111	-0.0631	29.4097	21.6120	-15.3795	-0.3811	-0.6057	-0.4138	0.5627
10.51	-9.6430	0.0743	-0.8253	-0.0113	-0.0113	-0.0569	29.6528	21.2227	-15.3569	-0.3811	-0.6057	-0.4138	0.5627
10.52	-9.6321	0.0591	-0.8258	-0.0114	-0.0045	-0.0621	29.5854	21.0798	-15.5595	-0.3812	-0.6056	-0.4138	0.5628
10.53	-9.6028	0.0567	-0.8163	-0.0112	-0.0140	-0.0505	29.5455	21.4484	-15.4482	-0.3812	-0.6055	-0.4138	0.5627
10.54	-9.6414	0.0722	-0.7840	-0.0115	-0.0038	-0.0523	29.5637	20.9906	-15.4589	-0.3813	-0.6056	-0.4139	0.5628
10.55	-9.6858	0.0461	-0.8081	-0.0148	-0.0047	-0.0569	29.5565	21.1298	-15.5605	-0.3813	-0.6055	-0.4138	0.5628
10.56	-9.6534	0.0307	-0.8170	-0.0132	-0.0204	-0.0523	29.5558	21.1676	-15.2742	-0.3814	-0.6055	-0.4139	0.5629
10.57	-9.6238	0.0496	-0.7737	-0.0089	-0.0174	-0.0504	29.5680	21.0772	-15.1617	-0.3815	-0.6053	-0.4138	0.5628
10.58	-9.5800	0.0509	-0.7891	-0.0117	-0.0135	-0.0530	29.5299	21.0215	-15.2922	-0.3815	-0.6053	-0.4138	0.5629
10.59	-9.5816	0.0348	-0.7695	-0.0114	-0.0063	-0.0549	29.6413	21.2075	-15.2206	-0.3816	-0.6052	-0.4138	0.5629
10.6	-9.6072	0.0265	-0.7739	-0.0108	0.0078	-0.0467	29.9286	21.1242	-15.0683	-0.3815	-0.6053	-0.4137	0.5629
10.61	-9.6251	0.0374	-0.7950	-0.0061	-0.0013	-0.0427	29.9249	21.1071	-14.9835	-0.3815	-0.6054	-0.4137	0.5630
10.62	-9.6259	0.0673	-0.7775	-0.0045	-0.0071	-0.0403	29.6669	21.2942	-15.1732	-0.3816	-0.6053	-0.4136	0.5629
10.63	-9.6238	0.0853	-0.7542	-0.0080	-0.0048	-0.0467	29.6388	21.3039	-15.1918	-0.3816	-0.6054	-0.4136	0.5630
10.64	-9.6321	0.0864	-0.7726	-0.0115	0.0004	-0.0499	29.4037	21.1562	-15.4003	-0.3816	-0.6053	-0.4135	0.5629
10.65	-9.6307	0.0920	-0.7786	-0.0040	-0.0031	-0.0555	29.5408	21.1615	-15.0607	-0.3817	-0.6053	-0.4136	0.5629
10.66	-9.6223	0.1043	-0.7707	-0.0045	-0.0121	-0.0585	29.7261	21.3326	-15.3220	-0.3817	-0.6053	-0.4136	0.5630
10.67	-9.6147	0.1072	-0.7702	-0.0085	0.0005	-0.0634	29.6037	21.3169	-15.2781	-0.3817	-0.6052	-0.4136	0.5630
10.68	-9.6117	0.1081	-0.7761	-0.0000	-0.0076	-0.0613	29.8382	21.4582	-15.2558	-0.3817	-0.6052	-0.4136	0.5631
10.69	-9.6159	0.1124	-0.7732	-0.0096	0.0011	-0.0556	29.4812	21.3645	-15.2370	-0.3817	-0.6051	-0.4136	0.5631
10.7	-9.6233	0.1129	-0.7704	-0.0085	-0.0021	-0.0538	29.2535	21.1426	-15.3354	-0.3817	-0.6052	-0.4137	0.5631
10.71	-9.6251	0.1062	-0.7744	-0.0127	-0.0047	-0.0542	29.7216	21.1561	-15.3217	-0.3817	-0.6050	-0.4136	0.5630
10.72	-9.6239	0.0954	-0.7665	-0.0192	-0.0030	-0.0520	29.6283	21.2734	-15.5155	-0.3818	-0.6051	-0.4137	0.5631
10.73	-9.6190	0.0777	-0.7701	-0.0318	-0.0071	-0.0538	29.7113	21.2109	-15.4400	-0.3819	-0.6050	-0.4137	0.5630
10.74	-9.6260	0.0504	-0.7805	-0.0369	-0.0054	-0.0521	29.5184	21.3497	-15.3135	-0.3820	-0.6049	-0.4138	0.5630
10.75	-9.6198	0.0295	-0.7823	-0.0358	-0.0048	-0.0415	29.3694	21.2212	-15.3546	-0.3821	-0.6048	-0.4139	0.5629
10.76	-9.6191	0.0258	-0.7772	-0.0320	-0.0097	-0.0396	29.4134	21.1639	-15.3684	-0.3823	-0.6048	-0.4139	0.5629
10.77	-9.6226	0.0202	-0.7787	-0.0211	-0.0043	-0.0349	29.3906	21.2840	-15.2521	-0.3824	-0.6047	-0.4139	0.5628
10.78	-9.6330	0.0218	-0.7830	-0.0144	-0.0014	-0.0338	29.7750	21.2176	-15.4328	-0.3825	-0.6047	-0.4138	0.5627
10.79	-9.6558	0.0252	-0.7812	-0.0127	0.0035	-0.0299	29.8385	21.2797	-15.2220	-0.3826	-0.6048	-0.4138	0.5627
10.8	-9.6653	0.0325	-0.7886	-0.0059	-0.0011	-0.0414	29.5751	21.1952	-15.1463	-0.3826	-0.6048	-0.4138	0.5627
10.81	-9.6656	0.0481	-0.7922	0.0059	-0.0046	-0.0416	29.5644	21.1472	-15.1164	-0.3827	-0.6049	-0.4137	0.5627
10.82	-9.6533	0.0608	-0.7795	0.0171	-0.0074	-0.0401	29.6707	21.1690	-15.0229	-0.3826	-0.6048	-0.4136	0.5627
10.83	-9.6445	0.0747	-0.7740	0.0123	-0.0086	-0.0474	29.7706	21.1556	-15.0069	-0.3826	-0.6049	-0.4134	0.5628
10.84	-9.6343	0.0911	-0.7721	0.0185	-0.0119	-0.0453	29.3754	20.9784	-15.2652	-0.3826	-0.6050	-0.4133	0.5629
10.85	-9.6142	0.1099	-0.7623	0.0251	-0.0092	-0.0485	29.4819	21.0479	-15.2322	-0.3825	-0.6049	-0.4132	0.5629
10.86	-9.6005	0.1378	-0.7483	0.0164	-0.0117	-0.0440	29.5764	21.1889	-15.3738	-0.3826	-0.6050	-0.4131	0.5631
10.87	-9.6094	0.1511	-0.7361	0.0149	-0.0142	-0.0471	29.4658	21.1332	-15.1675	-0.3825	-0.6050	-0.4130	0.5631
10.88	-9.6136	0.1644	-0.7399	0.0160	-0.0057	-0.0508	29.4796	21.2242	-15.2007	-0.3825	-0.6051	-0.4129	0.5632
10.89	-9.6120	0.1760	-0.7245	0.0151	-0.0102	-0.0508	29.5766	21.2744	-15.4541	-0.3824	-0.6050	-0.4128	0.5632
10.9	-9.6114	0.1752	-0.7218	0.0090	-0.0102	-0.0503	29.6764	21.0910	-15.5563	-0.3825	-0.6050	-0.4128	0.5633
10.91	-9.6063	0.1768	-0.7292	-0.0046	-0.0079	-0.0538	29.6764	21.0971	-15.2937	-0.3825	-0.6050	-0.4127	0.5633
10.92	-9.5961	0.1737	-0.7258	-0.0083	-0.0088	-0.0579	29.5723	20.9627	-15.2209	-0.3825	-0.6049	-0.4127	0.5633
10.93	-9.5948	0.1657	-0.7253	-0.0120	-0.0063	-0.0576	29.6742	21.1155	-15.3644	-0.3825	-0.6049	-0.4128	0.5634
10.94	-9.5946	0.1605	-0.7296	-0.0140	0.0033	-0.0620	29.6446	20.9891	-15.1980	-0.3825	-0.6049	-0.4128	0.5634
10.95	-9.5951	0.1471	-0.7408	-0.0228	0.0117	-0.0659	29.7339	21.1029	-15.3229	-0.3826	-0.6049	-0.4130	0.5633
10.96	-9.5880	0.1320	-0.7434	-0.0317	0.0063	-0.0627	29.6973	21.1785	-15.4270	-0.3826	-0.6047	-0.4130	0.5632
10.97	-9.5875	0.1141	-0.7507	-0.0355	0.0089	-0.0627	29.5104	21.1636	-15.5716	-0.3827	-0.6047	-0.4132	0.5632
10.98	-9.6026	0.1007	-0.7563	-0.0362	0.0130	-0.0660	29.5094	21.2583	-15.2960	-0.3827	-0.6046	-0.4133	0.5631
10.99	-9.6248	0.0797	-0.7691	-0.0383	0.0198	-0.0689	29.3809	21.0277	-15.2446	-0.3827	-0.6046	-0.4135	0.5630
11	-9.6373	0.0623	-0.7806	-0.0385	0.0215	-0.0751	29.5897	21.1912	-15.2378	-0.3827	-0.6045	-0.4137	0.5629
11.01	-9.6499	0.0458	-0.7849	-0.0361	0.0133	-0.0669	29.6863	21.1298	-15.2983	-0.3827	-0.6045	-0.4139	0.5629
11.02	-9.6527	0.0310	-0.7884	-0.0389	0.0151	-0.0658	29.6597	21.2243	-15.3190	-0.3828	-0.6044	-0.4141	0.5628
11.03	-9.6459	0.0181	-0.7967	-0.0358	0.0110	-0.0663	29.5939	21.2673	-15.1451	-0.3828	-0.6043	-0.4142	0.5626
11.04	-9.6395	0.0152	-0.7987	-0.0332	0.0110	-0.0618	29.6466	21.1282	-15.1554	-0.3829	-0.6044	-0.4144	0.5627
11.05	-9.6342	0.0118	-0.8051	-0.0236	0.0094	-0.0604	29.5652	21.2027	-15.1883	-0.3829	-0.6043	-0.4144	0.5626
11.06	-9.6403	0.0111	-0.8028	-0.0102	0.0116	-0.0652	29.5627	21.2883	-15.0669	-0.3829	-0.6043	-0.4145	0.5626
11.07	-9.6481	0.0076	-0.8098	-0.0124	0.0102	-0.0600	29.6840	21.1289	-15.1635	-0.3828	-0.6042	-0.4146	0.5625
11.08	-9.6497	0.0109	-0.8073	-0.0112	0.0069	-0.0544	29.6240	21.0832	-15.3843	-0.3829	-0.6043	-0.4146	0.5625
11.09	-9.6441	0.0112	-0.8046	-0.0055	0.0019	-0.0573	29.6047	21.3787	-15.1465	-0.3829	-0.6042	-0.4146	0.5625
11.1	-9.6350	0.0139	-0.8065	-0.0031	-0.0020	-0.0501	30.0570	21.2349	-15.1768	-0.3828	-0.6043	-0.4145	0.5625
11.11	-9.6357	0.0246	-0.7937	0.0001	-0.0029	-0.0517	30.0979	21.2738	-15.1347	-0.3828	-0.6044	-0.4145	0.5626
11.12	-9.6359	0.0305	-0.8010	0.0080	-0.0032	-0.0472	29.8676	21.1007	-15.3578	-0.3827	-0.6044	-0.4144	0.5626
11.13	-9.6425	0.0332	-0.7937	0.0087	-0.0069	-0.0406	29.5260	21.0497	-15.2825	-0.3828	-0.6044	-0.4143	0.5627
11.14	-9.6469	0.0443	-0.7857	0.0127	-0.0084	-0.0397	29.3755	21.0564	-14.9474	-0.3827	-0.6044	-0.4142	0.5626
