time	acceleration_x	acceleration_y	acceleration_z	gyroscope_x	gyroscope_y	gyroscope_z	magnetometer_x	magnetometer_y	magnetometer_z	quaternion_w	quaternion_x	quaternion_y	quaternion_z
0	-5.2165	-0.1640	0.2628	0.0006	0.0173	-0.0039	11.2838	9.1155	-4.5406	0.1886	0.3272	0.1850	-0.3547
0.01	-10.3446	-0.3088	0.5031	-0.0009	0.0422	-0.0073	22.2537	17.6881	-8.7393	0.3725	0.6465	0.3654	-0.7006
0.02	-9.1238	-0.2808	0.4505	-0.0006	0.0328	-0.0067	19.6301	15.5221	-7.7842	0.3278	0.5691	0.3216	-0.6165
0.03	-9.7894	-0.2900	0.4794	0.0013	0.0302	-0.0075	21.5125	16.7092	-8.4789	0.3519	0.6112	0.3453	-0.6618
0.04	-9.3550	-0.2727	0.4601	-0.0072	0.0186	-0.0073	20.4671	15.9174	-7.8971	0.3369	0.5853	0.3306	-0.6336
0.05	-9.6004	-0.2937	0.4876	-0.0072	0.0139	-0.0098	20.7504	16.3857	-8.2691	0.3465	0.6020	0.3400	-0.6516
0.06	-9.4412	-0.2869	0.4851	-0.0068	0.0104	-0.0070	20.2440	16.1420	-8.1234	0.3404	0.5915	0.3340	-0.6401
0.07	-9.5098	-0.2857	0.4996	-0.0071	0.0165	-0.0080	20.7403	16.3449	-8.1312	0.3442	0.5980	0.3377	-0.6471
0.08	-9.4283	-0.2878	0.5023	-0.0094	0.0114	-0.0080	20.6516	16.0576	-8.0361	0.3421	0.5943	0.3356	-0.6430
0.09	-9.4504	-0.2916	0.5119	-0.0122	0.0089	-0.0075	20.6711	16.2658	-8.1937	0.3432	0.5963	0.3366	-0.6450
0.1	-9.4345	-0.2953	0.5114	-0.0090	0.0203	-0.0066	20.5587	16.3489	-8.1683	0.3427	0.5955	0.3362	-0.6441
0.11	-9.4360	-0.2993	0.5098	-0.0073	0.0328	-0.0112	20.6055	16.4112	-8.1077	0.3427	0.5956	0.3362	-0.6440
0.12	-9.4226	-0.3060	0.4945	-0.0098	0.0385	-0.0132	20.4682	16.2723	-7.9450	0.3427	0.5958	0.3363	-0.6439
0.13	-9.4253	-0.3146	0.4768	-0.0056	0.0460	-0.0177	20.6423	16.4415	-8.1505	0.3426	0.5959	0.3364	-0.6437
0.14	-9.4381	-0.3231	0.4638	-0.0039	0.0581	-0.0186	20.4783	16.2714	-8.1339	0.3425	0.5961	0.3364	-0.6436
0.15	-9.4743	-0.3214	0.4470	0.0081	0.0624	-0.0176	20.5880	16.0828	-7.9331	0.3424	0.5963	0.3365	-0.6434
0.16	-9.4995	-0.3139	0.4334	0.0098	0.0589	-0.0245	20.5596	16.2591	-8.1300	0.3422	0.5965	0.3366	-0.6433
0.17	-9.5207	-0.3130	0.4177	0.0094	0.0652	-0.0245	20.4906	16.1434	-8.1310	0.3420	0.5967	0.3366	-0.6432
0.18	-9.5452	-0.3105	0.4036	0.0142	0.0610	-0.0299	20.6889	16.3819	-8.0299	0.3418	0.5969	0.3367	-0.6430
0.19	-9.5606	-0.3060	0.3856	0.0162	0.0569	-0.0292	20.6627	16.3708	-8.1949	0.3416	0.5971	0.3368	-0.6429
0.2	-9.5484	-0.3017	0.3791	0.0199	0.0596	-0.0266	20.6768	16.3131	-8.1349	0.3414	0.5973	0.3368	-0.6428
0.21	-9.5504	-0.2930	0.3648	0.0196	0.0526	-0.0275	20.6552	16.3793	-8.0283	0.3412	0.5975	0.3368	-0.6427
0.22	-9.5653	-0.2855	0.3617	0.0182	0.0542	-0.0260	20.3764	16.1705	-8.1861	0.3410	0.5977	0.3369	-0.6426
0.23	-9.5692	-0.2837	0.3553	0.0129	0.0525	-0.0278	20.5243	16.3231	-8.0348	0.3408	0.5979	0.3369	-0.6426
0.24	-9.5825	-0.2816	0.3443	0.0162	0.0513	-0.0235	20.7316	16.2899	-7.9878	0.3407	0.5981	0.3369	-0.6425
0.25	-9.5681	-0.2623	0.3514	0.0053	0.0414	-0.0200	20.5899	16.2695	-8.4001	0.3405	0.5982	0.3370	-0.6424
0.26	-9.5827	-0.2671	0.3391	-0.0000	0.0391	-0.0135	20.4812	15.9918	-8.1308	0.3405	0.5983	0.3370	-0.6423
0.27	-9.5534	-0.2625	0.3404	-0.0045	0.0339	-0.0125	20.7201	16.0683	-8.0676	0.3404	0.5984	0.3370	-0.6422
0.28	-9.5551	-0.2590	0.3470	-0.0069	0.0326	-0.0090	20.6080	16.1477	-8.2023	0.3404	0.5986	0.3371	-0.6421
0.29	-9.5564	-0.2703	0.3349	-0.0047	0.0268	-0.0086	20.5600	16.3851	-8.1313	0.3404	0.5987	0.3371	-0.6420
0.3	-9.5590	-0.2678	0.3436	-0.0109	0.0303	-0.0085	20.6040	16.3787	-8.2078	0.3404	0.5988	0.3371	-0.6419
0.31	-9.5480	-0.2631	0.3205	-0.0180	0.0225	-0.0070	20.8094	16.2786	-8.0866	0.3404	0.5988	0.3371	-0.6418
0.32	-9.5345	-0.2622	0.3389	-0.0153	0.0228	-0.0090	20.4831	16.5059	-7.8933	0.3404	0.5989	0.3372	-0.6417
0.33	-9.5659	-0.2776	0.3084	-0.0187	0.0266	-0.0068	20.5704	16.3745	-7.8757	0.3404	0.5990	0.3372	-0.6416
0.34	-9.5288	-0.2679	0.3393	-0.0189	0.0211	-0.0107	20.8129	16.2925	-7.8089	0.3404	0.5990	0.3373	-0.6415
0.35	-9.5606	-0.2704	0.3190	-0.0164	0.0196	-0.0084	20.5430	16.2863	-8.0580	0.3405	0.5991	0.3373	-0.6414
0.36	-9.5314	-0.2744	0.3305	-0.0041	0.0160	-0.0114	20.7286	16.3586	-7.8591	0.3405	0.5991	0.3373	-0.6414
0.37	-9.5308	-0.2685	0.3260	-0.0048	0.0179	-0.0104	20.8821	16.5064	-7.9970	0.3405	0.5992	0.3373	-0.6413
0.38	-9.5248	-0.2642	0.3232	-0.0054	0.0103	-0.0125	20.6979	16.3109	-8.1110	0.3404	0.5992	0.3373	-0.6413
0.39	-9.5200	-0.2671	0.3392	-0.0057	0.0131	-0.0119	20.6480	16.1157	-7.9730	0.3404	0.5993	0.3373	-0.6413
0.4	-9.5267	-0.2592	0.3423	-0.0063	0.0137	-0.0164	20.7927	16.1327	-7.6562	0.3404	0.5993	0.3373	-0.6412
0.41	-9.5336	-0.2626	0.3471	-0.0045	0.0106	-0.0157	21.3447	16.1137	-7.8329	0.3404	0.5993	0.3373	-0.6412
0.42	-9.5488	-0.2529	0.3333	0.0025	0.0109	-0.0144	21.5980	16.1784	-7.9180	0.3404	0.5994	0.3373	-0.6412
0.43	-9.5110	-0.2490	0.3468	0.0006	0.0130	-0.0194	20.8521	16.4330	-7.8565	0.3403	0.5994	0.3373	-0.6412
0.44	-9.5049	-0.2470	0.3441	-0.0027	0.0103	-0.0148	20.8262	16.1639	-7.9741	0.3403	0.5995	0.3373	-0.6412
0.45	-9.5114	-0.2425	0.3394	0.0040	0.0096	-0.0197	20.7782	16.3177	-7.9116	0.3403	0.5995	0.3372	-0.6412
0.46	-9.4867	-0.2461	0.3579	-0.0033	0.0097	-0.0199	20.7386	16.3692	-8.0798	0.3402	0.5995	0.3373	-0.6412
0.47	-9.5195	-0.2390	0.3663	-0.0020	0.0113	-0.0154	20.6726	16.1760	-7.8777	0.3402	0.5996	0.3372	-0.6411
0.48	-9.5515	-0.2448	0.3720	-0.0012	0.0053	-0.0212	20.5258	16.2229	-7.8755	0.3402	0.5996	0.3372	-0.6411
0.49	-9.5357	-0.2498	0.3718	-0.0074	0.0012	-0.0337	20.7394	16.1855	-7.9822	0.3401	0.5995	0.3373	-0.6412
0.5	-9.4876	-0.2515	0.3727	-0.0058	0.0060	-0.0250	20.6888	16.2364	-8.0047	0.3401	0.5995	0.3373	-0.6412
0.51	-9.4714	-0.2608	0.3751	-0.0110	0.0128	-0.0214	20.5290	16.0803	-8.1040	0.3401	0.5996	0.3373	-0.6412
0.52	-9.4727	-0.2498	0.3695	-0.0048	0.0179	-0.0292	20.7030	16.2790	-7.8743	0.3400	0.5996	0.3374	-0.6411
0.53	-9.4607	-0.2443	0.3626	-0.0075	0.0179	-0.0181	20.5634	16.2347	-7.9367	0.3400	0.5996	0.3374	-0.6411
0.54	-9.4647	-0.2421	0.3570	-0.0140	0.0256	-0.0186	20.6319	16.2504	-7.9558	0.3399	0.5997	0.3375	-0.6410
0.55	-9.4600	-0.2461	0.3493	-0.0158	0.0247	-0.0173	20.6634	16.4149	-8.0906	0.3399	0.5997	0.3376	-0.6409
0.56	-9.4709	-0.2406	0.3313	-0.0186	0.0343	-0.0200	20.6397	16.3548	-8.1392	0.3399	0.5998	0.3377	-0.6408
0.57	-9.4739	-0.2407	0.3321	-0.0213	0.0304	-0.0202	20.6797	16.4068	-8.0190	0.3399	0.5999	0.3378	-0.6407
0.58	-9.4898	-0.2395	0.3166	-0.0212	0.0359	-0.0228	20.9542	16.2885	-8.0919	0.3398	0.6000	0.3379	-0.6406
0.59	-9.4924	-0.2427	0.3153	-0.0229	0.0363	-0.0231	20.7701	16.1873	-7.9031	0.3398	0.6000	0.3380	-0.6405
0.6	-9.5256	-0.2408	0.3089	-0.0236	0.0376	-0.0295	20.7560	16.2172	-7.8723	0.3398	0.6001	0.3381	-0.6404
0.61	-9.5389	-0.2450	0.3095	-0.0318	0.0378	-0.0265	20.6411	16.1931	-7.8500	0.3397	0.6001	0.3383	-0.6403
0.62	-9.5521	-0.2537	0.3028	-0.0301	0.0374	-0.0311	20.7610	16.2224	-7.9920	0.3397	0.6002	0.3385	-0.6402
0.63	-9.5644	-0.2608	0.2856	-0.0288	0.0402	-0.0319	20.8155	16.1746	-7.9182	0.3397	0.6002	0.3387	-0.6400
0.64	-9.5655	-0.2608	0.2769	-0.0282	0.0360	-0.0327	20.5078	16.2970	-7.8611	0.3396	0.6003	0.3388	-0.6399
0.65	-9.5685	-0.2674	0.2625	-0.0291	0.0303	-0.0334	20.6771	16.5786	-7.8759	0.3396	0.6003	0.3390	-0.6398
0.66	-9.5425	-0.2734	0.2595	-0.0311	0.0339	-0.0332	20.6310	16.5543	-7.9008	0.3396	0.6003	0.3392	-0.6397
0.67	-9.5552	-0.2682	0.2554	-0.0302	0.0287	-0.0331	20.3842	16.3890	-7.8157	0.3395	0.6004	0.3393	-0.6396
0.68	-9.5752	-0.2841	0.2653	-0.0296	0.0266	-0.0369	20.6517	16.4265	-7.8158	0.3395	0.6004	0.3395	-0.6396
0.69	-9.5783	-0.2968	0.2637	-0.0291	0.0161	-0.0396	20.6430	16.5949	-8.1060	0.3395	0.6003	0.3397	-0.6395
0.7	-9.5478	-0.2973	0.2815	-0.0313	0.0104	-0.0341	20.6792	16.2773	-7.7841	0.3395	0.6003	0.3398	-0.6395
0.71	-9.5552	-0.3162	0.2863	-0.0304	0.0070	-0.0332	20.7606	16.3673	-7.8042	0.3395	0.6002	0.3399	-0.6395
0.72	-9.5540	-0.3191	0.2906	-0.0342	0.0035	-0.0333	20.7263	16.3242	-8.0233	0.3395	0.6002	0.3401	-0.6395
0.73	-9.5354	-0.3229	0.2929	-0.0330	0.0005	-0.0335	20.8412	16.1670	-7.6866	0.3395	0.6001	0.3402	-0.6394
0.74	-9.5324	-0.3292	0.2908	-0.0330	-0.0022	-0.0328	20.6900	16.2545	-7.6185	0.3396	0.6000	0.3403	-0.6394
0.75	-9.5107	-0.3346	0.2953	-0.0307	-0.0055	-0.0329	20.8282	16.3288	-7.6981	0.3396	0.5999	0.3404	-0.6395
0.76	-9.5073	-0.3409	0.2948	-0.0324	-0.0041	-0.0330	20.7635	16.1740	-7.7752	0.3396	0.5998	0.3405	-0.6395
0.77	-9.4867	-0.3454	0.2978	-0.0349	-0.0034	-0.0331	20.5740	16.4672	-7.8886	0.3397	0.5997	0.3407	-0.6395
0.78	-9.4957	-0.3427	0.2990	-0.0359	0.0149	-0.0327	20.4524	16.2409	-7.9104	0.3397	0.5997	0.3408	-0.6394
0.79	-9.5128	-0.3396	0.3029	-0.0319	0.0093	-0.0338	20.7585	16.2025	-8.0011	0.3397	0.5996	0.3409	-0.6394
0.8	-9.5091	-0.3417	0.3025	-0.0317	0.0069	-0.0334	20.7318	16.1781	-7.8367	0.3397	0.5996	0.3411	-0.6394
0.81	-9.5078	-0.3383	0.2992	-0.0303	0.0083	-0.0334	20.6106	16.4147	-7.8969	0.3397	0.5995	0.3412	-0.6393
0.82	-9.5129	-0.3438	0.2966	-0.0327	0.0062	-0.0331	20.7247	16.4208	-7.8553	0.3398	0.5994	0.3413	-0.6393
0.83	-9.5022	-0.3524	0.3056	-0.0311	0.0010	-0.0377	20.7622	16.3729	-7.9065	0.3398	0.5994	0.3415	-0.6393
0.84	-9.5121	-0.3515	0.3099	-0.0315	0.0058	-0.0345	20.4998	16.4609	-7.7151	0.3398	0.5993	0.3416	-0.6393
0.85	-9.5059	-0.3583	0.3185	-0.0314	0.0008	-0.0338	20.6347	16.3931	-7.7509	0.3398	0.5992	0.3417	-0.6393
0.86	-9.5043	-0.3671	0.3181	-0.0304	0.0038	-0.0328	20.6515	16.5050	-8.0345	0.3398	0.5992	0.3419	-0.6393
0.87	-9.4933	-0.3799	0.3126	-0.0316	0.0075	-0.0331	20.6628	16.4496	-7.7275	0.3398	0.5991	0.3420	-0.6393
0.88	-9.4734	-0.3867	0.3183	-0.0312	0.0106	-0.0316	20.6241	16.4752	-7.9748	0.3398	0.5991	0.3421	-0.6392
0.89	-9.4622	-0.3995	0.3139	-0.0320	0.0162	-0.0237	20.5162	16.4913	-7.8861	0.3399	0.5990	0.3422	-0.6392
0.9	-9.4848	-0.4018	0.3015	-0.0319	0.0199	-0.0296	20.7760	16.6869	-7.5686	0.3399	0.5990	0.3424	-0.6391
0.91	-9.4929	-0.4032	0.2924	-0.0316	0.0233	-0.0205	21.2441	16.6061	-7.6233	0.3399	0.5990	0.3425	-0.6390
0.92	-9.5099	-0.3980	0.2970	-0.0243	0.0254	-0.0206	21.4533	16.5959	-7.6177	0.3399	0.5991	0.3426	-0.6389
0.93	-9.5246	-0.4022	0.2824	-0.0239	0.0259	-0.0179	20.6748	16.6032	-7.7778	0.3399	0.5991	0.3427	-0.6388
0.94	-9.4937	-0.3930	0.2983	-0.0084	0.0260	-0.0125	20.7186	16.3989	-7.6573	0.3399	0.5992	0.3427	-0.6387
0.95	-9.5460	-0.3883	0.2829	-0.0043	0.0275	-0.0141	20.7704	16.4583	-7.5810	0.3399	0.5993	0.3428	-0.6387
0.96	-9.5438	-0.3866	0.2818	-0.0057	0.0161	-0.0172	20.8405	16.3472	-7.7948	0.3398	0.5993	0.3428	-0.6386
0.97	-9.5264	-0.3774	0.2902	-0.0049	0.0204	-0.0198	20.5533	16.2123	-7.7637	0.3398	0.5994	0.3428	-0.6386
0.98	-9.5423	-0.3666	0.2809	-0.0066	0.0252	-0.0213	20.5632	16.2359	-7.8125	0.3397	0.5994	0.3428	-0.6385
0.99	-9.5226	-0.3593	0.2968	-0.0048	0.0135	-0.0245	20.7412	16.3343	-7.7126	0.3397	0.5995	0.3429	-0.6385
1	-9.5278	-0.3529	0.2799	-0.0056	0.0145	-0.0230	20.6897	16.3048	-7.5063	0.3396	0.5995	0.3429	-0.6385
1.01	-9.5079	-0.3532	0.2940	-0.0056	0.0095	-0.0208	20.6387	16.3120	-7.9253	0.3396	0.5995	0.3429	-0.6385
1.02	-9.5357	-0.3422	0.2888	-0.0064	0.0137	-0.0203	20.6763	16.3152	-7.8363	0.3396	0.5995	0.3429	-0.6385
1.03	-9.5212	-0.3406	0.2792	-0.0024	0.0171	-0.0205	20.6228	16.2946	-7.7814	0.3395	0.5996	0.3429	-0.6384
1.04	-9.4945	-0.3361	0.2864	-0.0079	0.0097	-0.0256	20.4726	16.3864	-8.0353	0.3395	0.5996	0.3430	-0.6384
1.05	-9.5300	-0.3298	0.2707	-0.0073	0.0175	-0.0280	20.4008	16.4073	-7.7136	0.3394	0.5996	0.3430	-0.6384
1.06	-9.5134	-0.3374	0.2828	-0.0112	0.0127	-0.0269	20.3552	16.3897	-7.4682	0.3394	0.5996	0.3431	-0.6384
1.07	-9.5246	-0.3418	0.2815	-0.0203	0.0167	-0.0228	20.5135	16.4277	-7.7346	0.3394	0.5996	0.3432	-0.6384
1.08	-9.5355	-0.3366	0.2801	-0.0233	0.0137	-0.0175	20.6884	16.7039	-7.5940	0.3394	0.5996	0.3432	-0.6383
1.09	-9.5384	-0.3363	0.2861	-0.0296	0.0179	-0.0247	20.5464	16.4102	-7.6072	0.3394	0.5996	0.3433	-0.6382
1.1	-9.5290	-0.3466	0.2777	-0.0276	0.0102	-0.0179	20.5633	16.4413	-7.5989	0.3395	0.5996	0.3434	-0.6382
1.11	-9.5374	-0.3555	0.2860	-0.0307	0.0168	-0.0179	20.3572	16.5098	-7.6083	0.3395	0.5996	0.3435	-0.6381
1.12	-9.5438	-0.3478	0.2790	-0.0314	0.0074	-0.0178	20.5130	16.4719	-7.6032	0.3396	0.5996	0.3436	-0.6381
1.13	-9.5199	-0.3692	0.3028	-0.0302	0.0074	-0.0176	20.5738	16.5014	-7.4759	0.3396	0.5996	0.3437	-0.6380
1.14	-9.5623	-0.3739	0.3008	-0.0287	0.0046	-0.0174	20.6067	16.2589	-7.7712	0.3397	0.5995	0.3437	-0.6380
1.15	-9.5337	-0.3753	0.3131	-0.0307	-0.0068	-0.0234	20.7611	16.1357	-7.7716	0.3398	0.5995	0.3438	-0.6380
1.16	-9.5012	-0.3910	0.3195	-0.0309	-0.0123	-0.0225	20.8437	16.1199	-7.8058	0.3399	0.5994	0.3439	-0.6380
1.17	-9.4661	-0.3949	0.3241	-0.0286	-0.0130	-0.0177	20.6798	16.3300	-7.7012	0.3399	0.5993	0.3439	-0.6380
1.18	-9.4099	-0.3927	0.3379	-0.0270	-0.0142	-0.0139	20.6475	16.2121	-7.5238	0.3400	0.5992	0.3439	-0.6380
1.19	-9.4154	-0.4014	0.3355	-0.0269	-0.0090	-0.0082	20.6686	16.3401	-7.8302	0.3401	0.5991	0.3440	-0.6380
1.2	-9.3887	-0.4040	0.3341	-0.0164	0.0058	-0.0083	20.6479	16.3646	-7.7540	0.3402	0.5991	0.3440	-0.6380
1.21	-9.3870	-0.4038	0.3287	-0.0179	0.0212	-0.0075	20.6823	16.3716	-7.6269	0.3402	0.5992	0.3440	-0.6379
1.22	-9.3746	-0.4119	0.3151	-0.0042	0.0280	-0.0080	20.5723	16.6348	-7.5757	0.3402	0.5993	0.3440	-0.6378
1.23	-9.3813	-0.4375	0.3041	-0.0094	0.0340	-0.0063	20.5720	16.4385	-7.7419	0.3402	0.5994	0.3440	-0.6377
1.24	-9.3667	-0.4242	0.2821	0.0043	0.0494	-0.0069	20.5626	16.3857	-7.7662	0.3401	0.5995	0.3440	-0.6376
1.25	-9.3522	-0.4093	0.2785	0.0037	0.0493	-0.0064	20.5944	16.4485	-7.3838	0.3401	0.5997	0.3440	-0.6374
1.26	-9.4298	-0.3970	0.2371	0.0038	0.0683	-0.0073	20.4567	16.6116	-7.5340	0.3399	0.6000	0.3441	-0.6373
1.27	-9.4625	-0.3875	0.2224	0.0206	0.0694	-0.0015	20.6356	16.4222	-7.6020	0.3398	0.6002	0.3441	-0.6371
1.28	-9.5125	-0.3693	0.2029	0.0175	0.0784	-0.0048	20.8011	16.4364	-7.6405	0.3396	0.6005	0.3441	-0.6369
1.29	-9.5680	-0.3498	0.1781	0.0214	0.0816	-0.0057	20.6654	16.5302	-7.7532	0.3395	0.6009	0.3441	-0.6367
1.3	-9.6208	-0.3240	0.1561	0.0184	0.0796	-0.0015	20.5464	16.3563	-7.3572	0.3393	0.6012	0.3441	-0.6365
1.31	-9.6571	-0.3046	0.1217	0.0222	0.0809	0.0025	20.7472	16.4586	-7.1823	0.3391	0.6015	0.3440	-0.6363
1.32	-9.6547	-0.2940	0.1037	0.0237	0.0734	-0.0012	20.9144	16.2642	-7.5504	0.3390	0.6018	0.3440	-0.6361
1.33	-9.6554	-0.2726	0.0957	0.0194	0.0687	-0.0038	21.0322	16.2004	-7.7098	0.3388	0.6021	0.3440	-0.6359
1.34	-9.7104	-0.2611	0.0849	0.0215	0.0565	-0.0066	20.7766	16.3537	-7.4620	0.3387	0.6023	0.3440	-0.6358
1.35	-9.7122	-0.2627	0.0771	0.0162	0.0462	-0.0086	20.7540	16.1125	-7.8690	0.3385	0.6025	0.3439	-0.6357
1.36	-9.6739	-0.2520	0.0801	0.0009	0.0224	-0.0063	20.6769	16.2154	-7.8150	0.3385	0.6026	0.3439	-0.6356
1.37	-9.6433	-0.2552	0.0843	0.0003	0.0109	-0.0074	20.6435	16.3090	-7.6657	0.3385	0.6027	0.3439	-0.6356
1.38	-9.6042	-0.2453	0.1237	-0.0033	-0.0072	-0.0103	20.6792	16.3436	-7.4457	0.3385	0.6027	0.3438	-0.6356
1.39	-9.6270	-0.2213	0.1289	-0.0036	-0.0154	-0.0072	20.8256	16.2297	-7.3906	0.3386	0.6026	0.3437	-0.6356
1.4	-9.5808	-0.2182	0.1542	-0.0084	-0.0182	-0.0067	20.8945	16.3033	-7.4392	0.3386	0.6026	0.3437	-0.6357
1.41	-9.5509	-0.2255	0.1711	-0.0111	-0.0293	-0.0082	21.1908	16.5174	-7.3750	0.3387	0.6025	0.3436	-0.6358
1.42	-9.5049	-0.2492	0.1821	-0.0213	-0.0308	-0.0145	21.4078	16.5365	-7.3943	0.3388	0.6024	0.3435	-0.6359
1.43	-9.4778	-0.2686	0.1901	-0.0294	-0.0210	-0.0210	20.7738	16.5798	-7.5400	0.3389	0.6022	0.3436	-0.6359
1.44	-9.4360	-0.2884	0.1861	-0.0293	-0.0225	-0.0193	20.8295	16.2689	-7.6772	0.3390	0.6021	0.3436	-0.6359
1.45	-9.4230	-0.2997	0.2058	-0.0290	-0.0130	-0.0234	20.7602	16.1492	-7.7428	0.3391	0.6020	0.3437	-0.6360
1.46	-9.4398	-0.3180	0.1968	-0.0301	-0.0116	-0.0118	20.7444	16.2900	-7.6626	0.3392	0.6019	0.3437	-0.6360
1.47	-9.4133	-0.3181	0.2057	-0.0314	-0.0059	-0.0103	20.6342	16.2939	-7.6104	0.3393	0.6019	0.3437	-0.6360
1.48	-9.4181	-0.3121	0.1942	-0.0289	0.0124	-0.0114	20.7655	16.5100	-7.4672	0.3394	0.6019	0.3438	-0.6359
1.49	-9.4270	-0.3070	0.1906	-0.0317	0.0115	-0.0074	20.6722	16.3102	-7.6510	0.3395	0.6019	0.3439	-0.6358
1.5	-9.4423	-0.3081	0.1739	-0.0304	0.0188	-0.0070	20.6897	16.3197	-7.4725	0.3396	0.6019	0.3439	-0.6357
1.51	-9.4633	-0.2995	0.1715	-0.0315	0.0301	-0.0081	20.7592	16.1938	-7.5870	0.3396	0.6019	0.3440	-0.6356
1.52	-9.4999	-0.3001	0.1452	-0.0235	0.0343	-0.0062	20.7112	16.3586	-7.6957	0.3397	0.6020	0.3441	-0.6354
1.53	-9.5012	-0.3038	0.1499	-0.0173	0.0369	-0.0044	20.9345	16.3705	-7.3086	0.3397	0.6021	0.3441	-0.6353
1.54	-9.5694	-0.3063	0.1238	-0.0241	0.0432	-0.0069	20.8255	16.2050	-7.6781	0.3397	0.6023	0.3442	-0.6352
1.55	-9.5676	-0.3215	0.1085	-0.0228	0.0369	-0.0075	20.7293	16.2067	-7.6566	0.3397	0.6024	0.3443	-0.6350
1.56	-9.5888	-0.3178	0.0981	-0.0061	0.0335	-0.0073	20.8453	16.3716	-7.7299	0.3397	0.6025	0.3443	-0.6349
1.57	-9.6113	-0.3259	0.0805	-0.0047	0.0328	-0.0067	20.8144	16.1405	-7.7277	0.3397	0.6026	0.3443	-0.6348
1.58	-9.6158	-0.3198	0.0882	-0.0054	0.0227	-0.0092	20.8158	16.1961	-7.5657	0.3397	0.6027	0.3443	-0.6347
1.59	-9.6389	-0.3086	0.0680	0.0060	0.0248	-0.0076	20.8440	16.4378	-7.5739	0.3396	0.6028	0.3443	-0.6347
1.6	-9.6152	-0.3048	0.0834	0.0188	0.0196	-0.0136	20.9168	16.2082	-7.4606	0.3395	0.6029	0.3442	-0.6347
1.61	-9.6459	-0.2839	0.0744	0.0126	0.0158	-0.0175	20.6931	16.2255	-7.4995	0.3394	0.6029	0.3442	-0.6347
1.62	-9.6186	-0.2701	0.0822	0.0094	-0.0010	-0.0185	20.7704	16.2001	-7.4868	0.3394	0.6030	0.3441	-0.6347
1.63	-9.6203	-0.2564	0.1047	0.0192	-0.0034	-0.0238	20.7962	16.3692	-7.6087	0.3393	0.6030	0.3440	-0.6348
1.64	-9.6391	-0.2405	0.0941	0.0139	-0.0083	-0.0203	20.9374	16.3692	-7.3672	0.3392	0.6030	0.3439	-0.6349
1.65	-9.5891	-0.2346	0.1189	0.0066	-0.0195	-0.0268	21.0581	16.1713	-7.4929	0.3392	0.6029	0.3439	-0.6350
1.66	-9.6071	-0.2176	0.1200	0.0074	-0.0160	-0.0234	20.6380	16.4662	-7.5892	0.3392	0.6029	0.3438	-0.6351
1.67	-9.5693	-0.2291	0.1324	-0.0056	-0.0321	-0.0239	20.8337	16.5880	-7.6234	0.3392	0.6027	0.3438	-0.6352
1.68	-9.5548	-0.2210	0.1555	-0.0042	-0.0329	-0.0193	20.7542	16.3014	-7.7176	0.3392	0.6026	0.3437	-0.6353
1.69	-9.5552	-0.2325	0.1478	-0.0189	-0.0409	-0.0134	20.6303	16.2928	-7.5524	0.3394	0.6025	0.3436	-0.6354
1.7	-9.5074	-0.2459	0.1880	-0.0258	-0.0364	-0.0148	20.8833	16.4347	-7.6180	0.3395	0.6023	0.3436	-0.6355
1.71	-9.5306	-0.2518	0.1848	-0.0245	-0.0327	-0.0111	20.9444	16.3261	-7.7069	0.3396	0.6022	0.3436	-0.6356
1.72	-9.5008	-0.2767	0.2091	-0.0310	-0.0390	-0.0146	20.8039	16.2409	-7.6347	0.3398	0.6020	0.3436	-0.6357
1.73	-9.5034	-0.2865	0.2212	-0.0335	-0.0412	-0.0133	20.8493	16.0662	-7.8236	0.3399	0.6018	0.3436	-0.6358
1.74	-9.4969	-0.3048	0.2114	-0.0344	-0.0371	-0.0126	20.8908	16.2381	-7.6647	0.3401	0.6017	0.3436	-0.6358
1.75	-9.4287	-0.3115	0.2369	-0.0400	-0.0367	-0.0156	20.7913	16.2690	-7.8105	0.3403	0.6015	0.3436	-0.6359
1.76	-9.4620	-0.3219	0.2358	-0.0354	-0.0283	-0.0154	20.8389	16.1696	-7.8904	0.3404	0.6013	0.3436	-0.6359
1.77	-9.4484	-0.3362	0.2308	-0.0287	-0.0278	-0.0111	20.7001	16.4780	-7.6081	0.3406	0.6012	0.3436	-0.6360
1.78	-9.4214	-0.3317	0.2482	-0.0326	-0.0204	-0.0094	20.7557	16.2702	-7.5600	0.3407	0.6011	0.3436	-0.6360
1.79	-9.4603	-0.3426	0.2492	-0.0287	-0.0135	-0.0145	20.7010	16.1540	-7.6777	0.3408	0.6010	0.3437	-0.6360
1.8	-9.4730	-0.3450	0.2585	-0.0313	-0.0091	-0.0189	20.8649	16.5503	-7.5746	0.3409	0.6009	0.3437	-0.6360
1.81	-9.4844	-0.3380	0.2632	-0.0200	-0.0091	-0.0219	20.7636	16.5412	-7.4706	0.3409	0.6008	0.3437	-0.6361
1.82	-9.4827	-0.3522	0.2481	-0.0144	-0.0096	-0.0142	20.7645	16.4202	-7.5083	0.3410	0.6008	0.3437	-0.6361
1.83	-9.4441	-0.3425	0.2566	-0.0170	-0.0052	-0.0072	20.9445	16.2804	-7.4788	0.3411	0.6008	0.3437	-0.6361
1.84	-9.4502	-0.3273	0.2361	-0.0040	0.0114	-0.0083	20.7760	16.3415	-7.5012	0.3411	0.6008	0.3437	-0.6361
1.85	-9.4368	-0.3271	0.2315	-0.0077	0.0108	-0.0073	20.5565	16.5383	-7.4851	0.3411	0.6008	0.3437	-0.6360
1.86	-9.4731	-0.3057	0.2153	-0.0047	0.0228	-0.0074	20.8498	16.3864	-7.5170	0.3411	0.6009	0.3437	-0.6360
1.87	-9.4768	-0.3003	0.2051	-0.0025	0.0172	-0.0078	20.6909	16.3872	-7.3699	0.3411	0.6010	0.3436	-0.6359
1.88	-9.4749	-0.2939	0.2035	-0.0037	0.0227	-0.0071	20.8164	16.4092	-7.4444	0.3411	0.6011	0.3436	-0.6358
1.89	-9.5138	-0.2895	0.1877	0.0018	0.0325	-0.0146	20.9155	16.3361	-7.5043	0.3410	0.6012	0.3436	-0.6358
1.9	-9.5206	-0.2894	0.1824	-0.0048	0.0284	-0.0106	21.1081	16.2729	-7.4886	0.3410	0.6013	0.3436	-0.6357
1.91	-9.5419	-0.2823	0.1786	-0.0026	0.0285	-0.0115	21.6756	16.5454	-7.4778	0.3409	0.6014	0.3437	-0.6356
1.92	-9.5429	-0.2743	0.1680	-0.0031	0.0235	-0.0085	21.8219	16.5816	-7.4209	0.3409	0.6015	0.3437	-0.6355
1.93	-9.5437	-0.2722	0.1666	0.0018	0.0248	-0.0103	21.2616	16.3278	-7.5098	0.3409	0.6016	0.3436	-0.6355
1.94	-9.5575	-0.2705	0.1504	-0.0022	0.0208	-0.0098	20.8910	16.3314	-7.3753	0.3408	0.6016	0.3436	-0.6354
1.95	-9.5574	-0.2635	0.1522	-0.0066	0.0199	-0.0118	20.8041	16.2239	-7.8209	0.3408	0.6017	0.3436	-0.6354
1.96	-9.5688	-0.2642	0.1433	-0.0004	0.0146	-0.0147	20.7102	16.0615	-7.4967	0.3408	0.6018	0.3436	-0.6354
1.97	-9.5828	-0.2616	0.1366	-0.0007	0.0099	-0.0123	20.8610	16.0109	-7.3591	0.3408	0.6018	0.3436	-0.6353
1.98	-9.5638	-0.2610	0.1100	-0.0004	0.0119	-0.0121	20.8205	16.3843	-7.5858	0.3408	0.6018	0.3436	-0.6353
1.99	-9.5411	-0.2491	0.1339	-0.0055	0.0159	-0.0073	20.7486	16.3718	-7.5769	0.3408	0.6019	0.3435	-0.6353
2	-9.6299	-0.2472	0.1169	-0.0073	0.0138	-0.0112	20.7364	16.4998	-7.4893	0.3408	0.6019	0.3435	-0.6352
2.01	-9.6014	-0.2553	0.1311	-0.0102	0.0012	-0.0089	20.8639	16.3104	-7.6154	0.3408	0.6019	0.3435	-0.6352
2.02	-9.6016	-0.2454	0.1328	-0.0120	0.0019	-0.0199	20.9182	16.2008	-7.7332	0.3408	0.6019	0.3435	-0.6352
2.03	-9.6001	-0.2465	0.1470	-0.0124	-0.0161	-0.0155	20.8317	16.4031	-7.4601	0.3409	0.6019	0.3435	-0.6353
2.04	-9.5756	-0.2486	0.1519	-0.0116	-0.0217	-0.0167	20.7884	16.4026	-7.4229	0.3409	0.6018	0.3435	-0.6353
2.05	-9.5528	-0.2382	0.1596	-0.0132	-0.0167	-0.0183	20.6355	16.3083	-7.4099	0.3410	0.6017	0.3435	-0.6354
2.06	-9.5510	-0.2296	0.1701	-0.0182	-0.0220	-0.0165	20.8191	16.2976	-7.4781	0.3410	0.6016	0.3434	-0.6354
2.07	-9.5241	-0.2479	0.1827	-0.0136	-0.0268	-0.0178	20.8877	16.1361	-7.4727	0.3411	0.6015	0.3434	-0.6355
2.08	-9.5226	-0.2488	0.1813	-0.0179	-0.0259	-0.0258	21.0498	16.1415	-7.3802	0.3412	0.6014	0.3434	-0.6356
2.09	-9.4852	-0.2632	0.1859	-0.0186	-0.0265	-0.0305	20.9910	16.1294	-7.5665	0.3412	0.6012	0.3434	-0.6357
2.1	-9.4843	-0.2652	0.2051	-0.0257	-0.0176	-0.0311	20.9138	15.9973	-7.6130	0.3413	0.6011	0.3435	-0.6358
2.11	-9.5039	-0.2678	0.1954	-0.0285	-0.0132	-0.0241	20.9383	16.1499	-7.5869	0.3413	0.6010	0.3435	-0.6358
2.12	-9.4629	-0.2750	0.2163	-0.0235	-0.0195	-0.0284	20.9326	16.1172	-7.7159	0.3414	0.6009	0.3436	-0.6359
2.13	-9.4871	-0.2710	0.2079	-0.0291	-0.0107	-0.0152	20.9176	16.0480	-7.6768	0.3415	0.6008	0.3436	-0.6359
2.14	-9.4864	-0.2711	0.2173	-0.0167	-0.0109	-0.0210	20.7828	15.9954	-7.7275	0.3415	0.6007	0.3436	-0.6359
2.15	-9.5025	-0.2691	0.2221	-0.0207	-0.0120	-0.0180	20.9702	15.9207	-7.5767	0.3416	0.6007	0.3436	-0.6359
2.16	-9.4904	-0.2753	0.2170	-0.0224	-0.0111	-0.0174	20.8813	16.2984	-7.6467	0.3417	0.6006	0.3437	-0.6360
2.17	-9.4928	-0.2769	0.2196	-0.0177	-0.0075	-0.0180	20.8804	16.3104	-7.6763	0.3417	0.6005	0.3437	-0.6360
2.18	-9.5129	-0.2864	0.2060	-0.0278	-0.0084	-0.0185	20.6826	16.3098	-7.5818	0.3418	0.6005	0.3437	-0.6360
2.19	-9.4957	-0.2945	0.2147	-0.0243	-0.0050	-0.0226	20.6674	16.3133	-7.6146	0.3418	0.6004	0.3438	-0.6360
2.2	-9.4937	-0.2902	0.2154	-0.0115	-0.0041	-0.0227	20.8666	16.2991	-7.8705	0.3418	0.6004	0.3438	-0.6360
2.21	-9.4946	-0.2903	0.2193	-0.0090	-0.0007	-0.0166	20.7047	16.1576	-7.6487	0.3419	0.6003	0.3438	-0.6360
2.22	-9.5038	-0.2855	0.2141	-0.0066	0.0013	-0.0172	20.7895	16.4121	-7.6133	0.3419	0.6003	0.3438	-0.6360
2.23	-9.5052	-0.2893	0.2143	-0.0118	0.0070	-0.0172	20.6329	16.3865	-7.3880	0.3419	0.6003	0.3438	-0.6360
2.24	-9.5097	-0.2856	0.2140	-0.0060	0.0099	-0.0152	20.8285	16.2892	-7.4903	0.3419	0.6004	0.3438	-0.6360
2.25	-9.5119	-0.2783	0.2071	-0.0071	0.0132	-0.0164	20.6287	16.3237	-7.7281	0.3418	0.6004	0.3438	-0.6360
2.26	-9.5185	-0.2829	0.2066	-0.0053	0.0051	-0.0132	20.8492	16.2395	-7.6905	0.3419	0.6004	0.3438	-0.6360
2.27	-9.5514	-0.2771	0.1960	-0.0051	0.0102	-0.0227	21.1835	15.9580	-7.5773	0.3418	0.6004	0.3438	-0.6360
2.28	-9.5527	-0.2807	0.1882	-0.0018	0.0043	-0.0178	21.0387	16.0285	-7.6366	0.3418	0.6004	0.3438	-0.6360
2.29	-9.5628	-0.2781	0.1873	0.0004	0.0087	-0.0179	20.9586	16.0264	-7.8020	0.3418	0.6005	0.3438	-0.6360
2.3	-9.5981	-0.2773	0.1631	-0.0041	0.0047	-0.0199	20.7987	16.1881	-7.7796	0.3417	0.6005	0.3438	-0.6360
2.31	-9.5529	-0.2805	0.1785	0.0040	-0.0078	-0.0183	21.0384	16.1519	-7.6643	0.3417	0.6005	0.3437	-0.6360
2.32	-9.5860	-0.2756	0.1630	0.0010	-0.0134	-0.0209	20.9229	15.8396	-7.5070	0.3417	0.6004	0.3437	-0.6361
2.33	-9.5547	-0.2772	0.1724	0.0007	-0.0190	-0.0128	21.0399	16.2675	-7.5189	0.3417	0.6004	0.3436	-0.6362
2.34	-9.5443	-0.2615	0.1796	0.0108	-0.0150	-0.0093	20.9776	16.3144	-7.6091	0.3417	0.6003	0.3435	-0.6363
2.35	-9.5320	-0.2535	0.1810	0.0080	-0.0244	-0.0106	20.6553	16.4716	-7.6580	0.3418	0.6003	0.3433	-0.6364
2.36	-9.4957	-0.2462	0.1826	0.0072	-0.0231	-0.0067	20.8901	16.4912	-7.7365	0.3418	0.6003	0.3432	-0.6364
2.37	-9.5076	-0.2300	0.1925	0.0007	-0.0193	-0.0111	20.7236	16.4838	-7.5933	0.3418	0.6002	0.3431	-0.6365
2.38	-9.5150	-0.2294	0.1920	-0.0001	-0.0236	-0.0093	20.6632	16.4839	-7.7521	0.3419	0.6001	0.3430	-0.6366
2.39	-9.4973	-0.2192	0.2124	0.0003	-0.0195	-0.0155	20.8509	16.2916	-7.6388	0.3419	0.6001	0.3430	-0.6367
2.4	-9.5293	-0.2088	0.1944	0.0009	-0.0170	-0.0119	20.8740	16.4009	-7.5199	0.3419	0.6000	0.3429	-0.6368
2.41	-9.5048	-0.2259	0.2167	-0.0037	-0.0141	-0.0098	21.3374	16.5010	-7.4079	0.3420	0.6000	0.3428	-0.6368
2.42	-9.5439	-0.2217	0.2047	-0.0052	-0.0114	-0.0236	21.5868	16.5103	-7.3295	0.3420	0.6000	0.3428	-0.6369
2.43	-9.5120	-0.2262	0.2117	-0.0024	-0.0119	-0.0202	21.1076	16.2492	-7.4755	0.3420	0.5999	0.3427	-0.6369
2.44	-9.5455	-0.2258	0.2279	-0.0031	-0.0168	-0.0257	20.9893	16.3446	-7.7692	0.3420	0.5998	0.3427	-0.6370
2.45	-9.5685	-0.2425	0.2181	-0.0050	-0.0169	-0.0232	20.9866	16.4318	-7.7154	0.3420	0.5998	0.3427	-0.6371
2.46	-9.5470	-0.2251	0.2357	-0.0058	-0.0159	-0.0321	20.9599	16.2316	-7.6205	0.3420	0.5997	0.3427	-0.6372
2.47	-9.5384	-0.2442	0.2182	-0.0032	-0.0251	-0.0305	20.8604	16.1278	-7.7433	0.3420	0.5996	0.3427	-0.6373
2.48	-9.5006	-0.2530	0.2550	-0.0040	-0.0245	-0.0219	20.9553	16.1467	-7.8559	0.3420	0.5995	0.3426	-0.6374
2.49	-9.5126	-0.2478	0.2325	-0.0048	-0.0158	-0.0230	20.9633	16.2256	-7.6766	0.3420	0.5994	0.3426	-0.6375
2.5	-9.4749	-0.2557	0.2556	-0.0054	-0.0207	-0.0249	20.8539	16.2702	-7.6492	0.3420	0.5993	0.3426	-0.6376
2.51	-9.5025	-0.2427	0.2474	-0.0120	-0.0168	-0.0206	20.6770	16.4053	-7.6677	0.3420	0.5993	0.3425	-0.6376
2.52	-9.4830	-0.2540	0.2466	-0.0056	-0.0097	-0.0307	20.8167	16.2965	-7.6526	0.3420	0.5992	0.3426	-0.6377
2.53	-9.4763	-0.2577	0.2429	-0.0094	-0.0087	-0.0320	20.8637	16.2709	-7.6659	0.3420	0.5991	0.3426	-0.6377
2.54	-9.4705	-0.2673	0.2519	-0.0093	-0.0108	-0.0304	20.8765	16.1753	-7.6356	0.3420	0.5991	0.3426	-0.6378
2.55	-9.4879	-0.2653	0.2439	-0.0168	-0.0005	-0.0274	20.9108	16.4383	-7.7834	0.3420	0.5990	0.3426	-0.6378
2.56	-9.4737	-0.2704	0.2485	-0.0111	0.0013	-0.0341	20.6752	16.3606	-7.7096	0.3420	0.5990	0.3427	-0.6379
2.57	-9.4978	-0.2717	0.2511	-0.0152	0.0019	-0.0305	20.9569	16.2317	-7.6358	0.3419	0.5989	0.3428	-0.6379
2.58	-9.4867	-0.2809	0.2527	-0.0188	-0.0025	-0.0347	20.7940	16.2039	-7.6624	0.3419	0.5989	0.3428	-0.6379
2.59	-9.4724	-0.2780	0.2616	-0.0172	-0.0003	-0.0325	20.7258	16.3407	-7.7687	0.3419	0.5988	0.3429	-0.6379
2.6	-9.5101	-0.2793	0.2375	-0.0149	0.0069	-0.0324	20.7198	16.4228	-7.7420	0.3419	0.5988	0.3430	-0.6379
2.61	-9.4944	-0.2832	0.2451	-0.0227	0.0072	-0.0267	20.7456	16.3221	-7.7745	0.3419	0.5987	0.3430	-0.6379
2.62	-9.5399	-0.2766	0.2328	-0.0117	0.0134	-0.0217	20.6908	16.1984	-7.6277	0.3419	0.5988	0.3431	-0.6379
2.63	-9.5040	-0.2928	0.2069	-0.0180	0.0053	-0.0286	20.9325	16.3607	-7.7032	0.3419	0.5987	0.3432	-0.6379
2.64	-9.4678	-0.2777	0.2263	-0.0236	0.0123	-0.0286	20.9436	16.2132	-7.9678	0.3419	0.5987	0.3432	-0.6378
2.65	-9.5611	-0.2680	0.2002	-0.0265	0.0168	-0.0279	20.5707	16.2960	-7.8407	0.3419	0.5987	0.3434	-0.6378
2.66	-9.5370	-0.2937	0.2110	-0.0276	0.0048	-0.0315	20.8954	16.3145	-7.7364	0.3419	0.5987	0.3435	-0.6378
2.67	-9.5320	-0.2953	0.2003	-0.0323	0.0073	-0.0335	21.0385	16.1497	-7.5967	0.3419	0.5986	0.3436	-0.6378
2.68	-9.5431	-0.3062	0.2132	-0.0310	0.0018	-0.0216	20.9067	16.1171	-7.7745	0.3420	0.5985	0.3437	-0.6377
2.69	-9.5491	-0.3126	0.2048	-0.0298	0.0003	-0.0206	20.9063	16.2190	-7.6200	0.3420	0.5985	0.3438	-0.6377
2.7	-9.5417	-0.3054	0.2154	-0.0294	0.0038	-0.0233	20.8986	16.3553	-7.5999	0.3421	0.5984	0.3438	-0.6377
2.71	-9.5649	-0.3031	0.2008	-0.0204	0.0060	-0.0178	20.7407	16.4083	-7.6314	0.3421	0.5984	0.3439	-0.6377
2.72	-9.5533	-0.3024	0.2227	-0.0194	0.0045	-0.0238	20.7044	16.3867	-7.5318	0.3421	0.5984	0.3439	-0.6376
2.73	-9.5878	-0.3059	0.1874	-0.0066	0.0069	-0.0309	20.9525	16.4031	-7.6895	0.3421	0.5984	0.3440	-0.6376
2.74	-9.5226	-0.3089	0.2121	-0.0092	-0.0114	-0.0296	20.8569	16.2456	-7.6470	0.3421	0.5983	0.3440	-0.6377
2.75	-9.5625	-0.2979	0.2010	-0.0115	0.0027	-0.0338	20.7963	16.4299	-7.6590	0.3420	0.5983	0.3440	-0.6377
2.76	-9.5324	-0.3068	0.2107	-0.0116	-0.0098	-0.0333	20.8362	16.1874	-7.6755	0.3420	0.5982	0.3441	-0.6378
2.77	-9.5507	-0.3091	0.2250	-0.0083	-0.0105	-0.0341	20.7887	16.3785	-7.4999	0.3420	0.5981	0.3441	-0.6379
2.78	-9.5262	-0.3111	0.2177	-0.0121	-0.0195	-0.0335	20.7055	16.5003	-7.5244	0.3420	0.5980	0.3441	-0.6380
2.79	-9.5176	-0.3005	0.2506	-0.0168	-0.0150	-0.0345	20.7514	16.2562	-7.5911	0.3420	0.5979	0.3442	-0.6380
2.8	-9.5415	-0.3084	0.2171	-0.0141	-0.0163	-0.0319	20.6137	16.3532	-7.4615	0.3420	0.5978	0.3442	-0.6381
2.81	-9.4617	-0.3150	0.2592	-0.0076	-0.0201	-0.0286	20.5331	16.4958	-7.6093	0.3420	0.5977	0.3442	-0.6382
2.82	-9.5471	-0.3077	0.2259	-0.0113	-0.0106	-0.0290	20.7914	16.2876	-7.5376	0.3420	0.5977	0.3442	-0.6382
2.83	-9.4822	-0.3338	0.2500	-0.0095	-0.0185	-0.0251	20.9067	16.3949	-7.6632	0.3420	0.5976	0.3442	-0.6383
2.84	-9.4986	-0.3260	0.2493	-0.0100	-0.0131	-0.0267	20.9250	16.3041	-7.6709	0.3420	0.5975	0.3442	-0.6384
2.85	-9.5216	-0.3265	0.2409	-0.0132	-0.0140	-0.0208	20.8532	16.4422	-7.6181	0.3421	0.5974	0.3442	-0.6384
2.86	-9.5222	-0.3353	0.2392	-0.0152	-0.0122	-0.0209	20.8063	16.3057	-7.5281	0.3421	0.5974	0.3442	-0.6385
2.87	-9.4979	-0.3382	0.2430	-0.0112	-0.0226	-0.0184	20.8172	16.3043	-7.6899	0.3422	0.5973	0.3442	-0.6385
2.88	-9.5116	-0.3295	0.2557	-0.0058	-0.0122	-0.0159	20.7101	16.3103	-7.7582	0.3422	0.5972	0.3441	-0.6386
2.89	-9.5333	-0.3370	0.2403	-0.0207	-0.0136	-0.0211	20.9193	16.2945	-7.5458	0.3422	0.5971	0.3442	-0.6386
2.9	-9.4877	-0.3355	0.2556	-0.0091	-0.0108	-0.0200	20.9368	16.3830	-7.6609	0.3423	0.5971	0.3441	-0.6387
2.91	-9.5301	-0.3274	0.2495	-0.0042	-0.0007	-0.0200	21.3935	16.5182	-7.6607	0.3423	0.5971	0.3441	-0.6387
2.92	-9.5340	-0.3286	0.2428	-0.0085	0.0018	-0.0138	21.6612	16.6196	-7.5496	0.3423	0.5971	0.3441	-0.6387
2.93	-9.5091	-0.3236	0.2491	-0.0076	0.0008	-0.0198	20.9333	16.6726	-7.5780	0.3423	0.5971	0.3441	-0.6387
2.94	-9.5140	-0.3202	0.2358	-0.0080	-0.0054	-0.0183	20.8626	16.4877	-7.6086	0.3423	0.5970	0.3441	-0.6387
2.95	-9.5209	-0.3172	0.2565	-0.0108	-0.0053	-0.0188	20.6532	16.4138	-7.6018	0.3423	0.5970	0.3441	-0.6388
2.96	-9.5294	-0.3161	0.2472	-0.0056	-0.0045	-0.0198	20.5883	16.3638	-7.6492	0.3423	0.5970	0.3441	-0.6388
2.97	-9.5006	-0.3157	0.2667	-0.0125	-0.0057	-0.0145	20.8098	16.4686	-7.5186	0.3424	0.5969	0.3441	-0.6388
2.98	-9.5171	-0.3124	0.2534	-0.0087	-0.0045	-0.0176	20.5296	16.5822	-7.5492	0.3424	0.5969	0.3441	-0.6388
2.99	-9.4781	-0.3121	0.2710	-0.0075	-0.0126	-0.0180	20.4855	16.5432	-7.6385	0.3424	0.5969	0.3440	-0.6389
3	-9.5079	-0.3025	0.2601	-0.0063	-0.0050	-0.0131	20.5249	16.3714	-7.6573	0.3424	0.5968	0.3440	-0.6389
3.01	-9.4915	-0.3130	0.2684	-0.0137	-0.0082	-0.0149	20.7949	16.4170	-7.8416	0.3425	0.5968	0.3440	-0.6389
3.02	-9.4999	-0.3088	0.2766	-0.0231	-0.0115	-0.0138	20.8391	16.2184	-7.7639	0.3425	0.5967	0.3440	-0.6389
3.03	-9.4858	-0.3140	0.2681	-0.0255	-0.0064	-0.0136	20.9004	16.2867	-7.6687	0.3426	0.5967	0.3440	-0.6389
3.04	-9.4747	-0.3141	0.2759	-0.0227	-0.0051	-0.0112	20.9629	16.2230	-7.4988	0.3427	0.5966	0.3440	-0.6389
3.05	-9.4792	-0.3157	0.2725	-0.0240	0.0063	-0.0107	20.8322	16.2269	-7.5488	0.3428	0.5966	0.3441	-0.6389
3.06	-9.4964	-0.3257	0.2743	-0.0167	0.0145	-0.0118	20.8501	16.4190	-7.8871	0.3428	0.5967	0.3441	-0.6388
3.07	-9.4988	-0.3253	0.2546	-0.0141	0.0154	-0.0167	20.8670	16.1939	-7.4788	0.3428	0.5967	0.3441	-0.6388
3.08	-9.4834	-0.3321	0.2794	-0.0158	0.0124	-0.0116	20.7494	16.2229	-7.7235	0.3429	0.5967	0.3441	-0.6387
3.09	-9.5472	-0.3333	0.2578	-0.0071	0.0122	-0.0158	20.7767	16.1039	-7.5820	0.3428	0.5967	0.3441	-0.6387
3.1	-9.5094	-0.3295	0.2793	-0.0076	0.0053	-0.0142	20.8775	16.4593	-7.6564	0.3428	0.5968	0.3441	-0.6387
3.11	-9.5530	-0.3153	0.2520	-0.0048	0.0154	-0.0247	20.8362	16.4801	-7.5064	0.3428	0.5968	0.3442	-0.6386
3.12	-9.4792	-0.3201	0.2504	-0.0045	0.0089	-0.0201	20.8663	16.4796	-7.7412	0.3428	0.5968	0.3442	-0.6386
3.13	-9.4710	-0.3001	0.2658	-0.0045	0.0181	-0.0207	20.7043	16.4653	-7.6801	0.3427	0.5969	0.3442	-0.6386
3.14	-9.5165	-0.2979	0.2338	-0.0053	0.0217	-0.0197	20.8661	16.5011	-7.5940	0.3427	0.5969	0.3442	-0.6386
3.15	-9.4894	-0.3181	0.2564	-0.0042	0.0165	-0.0182	20.7033	16.3769	-7.6379	0.3426	0.5970	0.3442	-0.6385
3.16	-9.5338	-0.2946	0.2286	-0.0052	0.0263	-0.0246	20.4222	16.4032	-7.6021	0.3426	0.5970	0.3443	-0.6385
3.17	-9.4967	-0.3042	0.2393	-0.0070	0.0219	-0.0224	20.7364	16.4942	-7.8120	0.3425	0.5971	0.3443	-0.6384
3.18	-9.5330	-0.2973	0.2131	-0.0052	0.0221	-0.0246	20.7232	16.4751	-7.7414	0.3425	0.5971	0.3444	-0.6384
3.19	-9.5053	-0.3077	0.2323	-0.0121	0.0220	-0.0201	20.4609	16.3945	-7.6093	0.3424	0.5972	0.3444	-0.6383
3.2	-9.5555	-0.3053	0.2010	-0.0118	0.0240	-0.0193	20.7423	16.1352	-7.6092	0.3424	0.5973	0.3445	-0.6383
3.21	-9.5047	-0.3143	0.2266	-0.0098	0.0139	-0.0308	20.7913	16.3185	-7.8359	0.3423	0.5973	0.3445	-0.6382
3.22	-9.5578	-0.3307	0.2028	-0.0108	0.0232	-0.0201	20.9709	16.2040	-7.6219	0.3423	0.5973	0.3446	-0.6382
3.23	-9.4965	-0.3065	0.2088	-0.0083	0.0138	-0.0278	20.8087	16.2347	-7.5119	0.3423	0.5974	0.3446	-0.6382
3.24	-9.5284	-0.3138	0.2163	-0.0143	0.0187	-0.0251	20.7559	16.3003	-7.9427	0.3422	0.5974	0.3447	-0.6381
3.25	-9.5351	-0.3014	0.1895	-0.0081	0.0162	-0.0220	20.7524	16.3373	-7.5834	0.3422	0.5974	0.3447	-0.6381
3.26	-9.5154	-0.3109	0.2320	-0.0109	0.0217	-0.0282	20.7801	16.0871	-7.7319	0.3421	0.5974	0.3448	-0.6381
3.27	-9.5927	-0.3055	0.1728	-0.0075	0.0268	-0.0204	20.7140	16.1821	-7.7796	0.3421	0.5975	0.3448	-0.6380
3.28	-9.4669	-0.3092	0.2172	-0.0115	0.0108	-0.0288	20.8825	16.3246	-7.5126	0.3420	0.5975	0.3449	-0.6380
3.29	-9.5923	-0.3103	0.1874	-0.0064	0.0293	-0.0295	20.9233	16.3678	-7.5257	0.3420	0.5976	0.3450	-0.6379
3.3	-9.5988	-0.3135	0.1696	-0.0119	0.0214	-0.0326	20.5115	16.3895	-7.5363	0.3419	0.5976	0.3451	-0.6379
3.31	-9.5070	-0.3297	0.1902	-0.0112	0.0128	-0.0308	20.6286	16.4194	-7.6434	0.3418	0.5976	0.3451	-0.6379
3.32	-9.5384	-0.3320	0.1884	-0.0200	0.0079	-0.0291	20.5070	16.6978	-7.6198	0.3418	0.5976	0.3452	-0.6379
3.33	-9.5381	-0.3411	0.1957	-0.0170	-0.0024	-0.0200	20.4795	16.5475	-7.6301	0.3418	0.5976	0.3452	-0.6379
3.34	-9.5268	-0.3260	0.2045	-0.0155	-0.0047	-0.0206	20.6197	16.3606	-7.5097	0.3419	0.5975	0.3452	-0.6379
3.35	-9.5267	-0.3302	0.2055	-0.0286	-0.0024	-0.0257	20.6978	16.3999	-7.5305	0.3419	0.5975	0.3453	-0.6379
3.36	-9.5361	-0.3447	0.1995	-0.0162	-0.0059	-0.0330	20.6079	16.3728	-7.5261	0.3419	0.5974	0.3454	-0.6379
3.37	-9.5165	-0.3569	0.1986	-0.0151	-0.0020	-0.0238	20.4585	16.4897	-7.6100	0.3419	0.5974	0.3454	-0.6379
3.38	-9.5555	-0.3513	0.2019	-0.0124	0.0036	-0.0288	20.6709	16.3360	-7.6670	0.3419	0.5973	0.3455	-0.6379
3.39	-9.5461	-0.3558	0.1864	-0.0191	-0.0073	-0.0220	20.8191	16.2771	-7.6885	0.3419	0.5973	0.3455	-0.6379
3.4	-9.5203	-0.3428	0.2030	-0.0269	0.0001	-0.0260	21.0176	16.3360	-7.4292	0.3420	0.5972	0.3456	-0.6379
3.41	-9.5541	-0.3436	0.1827	-0.0154	-0.0042	-0.0261	21.1482	16.1562	-7.3979	0.3420	0.5972	0.3456	-0.6380
3.42	-9.4947	-0.3465	0.2012	-0.0118	-0.0167	-0.0278	21.2143	16.1877	-7.3820	0.3420	0.5971	0.3456	-0.6380
3.43	-9.4978	-0.3336	0.1938	-0.0069	-0.0084	-0.0277	20.7924	16.4966	-7.5262	0.3420	0.5970	0.3456	-0.6381
3.44	-9.5166	-0.3468	0.1961	-0.0141	-0.0117	-0.0275	20.8018	16.5741	-7.6793	0.3420	0.5970	0.3456	-0.6381
3.45	-9.4992	-0.3530	0.1994	-0.0260	-0.0106	-0.0225	20.7762	16.4557	-7.6030	0.3420	0.5969	0.3457	-0.6382
3.46	-9.4960	-0.3529	0.2002	-0.0289	-0.0120	-0.0174	20.6995	16.5054	-7.6530	0.3421	0.5968	0.3457	-0.6382
3.47	-9.5032	-0.3626	0.1990	-0.0232	-0.0129	-0.0156	20.7420	16.5730	-7.8626	0.3422	0.5967	0.3457	-0.6382
3.48	-9.5093	-0.3654	0.2005	-0.0268	-0.0003	-0.0156	20.7077	16.4249	-7.3467	0.3423	0.5967	0.3458	-0.6382
3.49	-9.4994	-0.3685	0.1982	-0.0275	0.0005	-0.0165	20.6055	16.4946	-7.6654	0.3424	0.5967	0.3458	-0.6381
3.5	-9.5391	-0.3705	0.1958	-0.0202	0.0028	-0.0136	20.6703	16.5878	-7.7549	0.3424	0.5967	0.3458	-0.6381
3.51	-9.5336	-0.3860	0.1874	-0.0252	-0.0020	-0.0149	20.5034	16.4175	-7.4536	0.3425	0.5966	0.3459	-0.6381
3.52	-9.5327	-0.3917	0.1996	-0.0129	0.0016	-0.0200	20.8344	16.5144	-7.4762	0.3425	0.5966	0.3459	-0.6381
3.53	-9.5643	-0.3918	0.1885	-0.0037	0.0052	-0.0222	20.6891	16.5030	-7.5368	0.3425	0.5966	0.3459	-0.6381
3.54	-9.5416	-0.3929	0.1816	-0.0058	0.0012	-0.0258	20.3707	16.4402	-7.5971	0.3424	0.5966	0.3459	-0.6381
3.55	-9.5465	-0.3765	0.1922	-0.0012	-0.0024	-0.0246	20.7224	16.4526	-7.4772	0.3424	0.5966	0.3459	-0.6381
3.56	-9.5587	-0.3668	0.1900	0.0027	-0.0026	-0.0225	20.5241	16.4891	-7.4535	0.3424	0.5966	0.3458	-0.6382
3.57	-9.5281	-0.3675	0.1960	0.0107	-0.0054	-0.0157	20.4654	16.3302	-7.6093	0.3423	0.5966	0.3458	-0.6382
3.58	-9.5437	-0.3478	0.2044	0.0011	-0.0085	-0.0168	20.7393	16.2435	-7.7104	0.3423	0.5966	0.3457	-0.6383
3.59	-9.5359	-0.3417	0.2051	0.0063	-0.0136	-0.0216	20.8412	16.4215	-7.3959	0.3423	0.5965	0.3456	-0.6384
3.6	-9.5089	-0.3344	0.2162	-0.0014	-0.0187	-0.0299	20.7553	16.3091	-7.5861	0.3423	0.5965	0.3456	-0.6385
3.61	-9.5271	-0.3256	0.2172	-0.0023	-0.0189	-0.0185	20.7112	16.2552	-7.7835	0.3423	0.5964	0.3456	-0.6385
3.62	-9.5144	-0.3272	0.2278	-0.0028	-0.0201	-0.0199	20.7203	16.3899	-7.5582	0.3423	0.5963	0.3455	-0.6386
3.63	-9.5249	-0.3271	0.2333	-0.0127	-0.0171	-0.0210	20.7465	16.4790	-7.5682	0.3423	0.5963	0.3455	-0.6387
3.64	-9.5111	-0.3416	0.2328	-0.0156	-0.0149	-0.0202	20.8564	16.6368	-7.8287	0.3424	0.5962	0.3455	-0.6387
3.65	-9.5155	-0.3434	0.2465	-0.0108	-0.0131	-0.0169	20.7067	16.5633	-7.8671	0.3424	0.5961	0.3455	-0.6388
3.66	-9.5213	-0.3469	0.2340	-0.0198	-0.0151	-0.0122	20.8364	16.3190	-7.7457	0.3425	0.5961	0.3454	-0.6388
3.67	-9.5097	-0.3510	0.2494	-0.0315	-0.0104	-0.0142	20.7871	16.5659	-7.7329	0.3426	0.5960	0.3455	-0.6388
3.68	-9.5279	-0.3524	0.2314	-0.0295	-0.0101	-0.0156	20.6235	16.4622	-7.6013	0.3427	0.5959	0.3455	-0.6388
3.69	-9.5163	-0.3611	0.2407	-0.0250	-0.0141	-0.0165	20.6465	16.4635	-7.3584	0.3428	0.5959	0.3455	-0.6388
3.7	-9.5243	-0.3665	0.2323	-0.0223	-0.0112	-0.0110	20.7265	16.4380	-7.5558	0.3429	0.5958	0.3455	-0.6388
3.71	-9.5105	-0.3684	0.2388	-0.0253	-0.0092	-0.0165	20.5768	16.5173	-7.5298	0.3430	0.5957	0.3456	-0.6388
3.72	-9.5063	-0.3721	0.2394	-0.0106	-0.0111	-0.0187	20.7508	16.5615	-7.4627	0.3430	0.5957	0.3455	-0.6388
3.73	-9.4983	-0.3922	0.2423	-0.0155	-0.0172	-0.0222	20.6977	16.4474	-7.4954	0.3430	0.5956	0.3455	-0.6389
3.74	-9.5163	-0.3853	0.2459	-0.0144	-0.0139	-0.0191	20.6189	16.4438	-7.3281	0.3431	0.5955	0.3455	-0.6389
3.75	-9.5162	-0.3897	0.2487	-0.0049	-0.0131	-0.0175	20.4116	16.5241	-7.5239	0.3431	0.5955	0.3455	-0.6390
3.76	-9.5154	-0.3932	0.2599	-0.0101	-0.0179	-0.0087	20.6680	16.5645	-7.7851	0.3432	0.5954	0.3454	-0.6390
3.77	-9.5359	-0.3884	0.2672	-0.0062	-0.0182	-0.0129	20.8050	16.1923	-7.8611	0.3432	0.5954	0.3454	-0.6391
3.78	-9.5434	-0.3923	0.2620	-0.0050	-0.0163	-0.0109	20.7339	16.3718	-7.6491	0.3433	0.5953	0.3453	-0.6391
3.79	-9.5269	-0.4002	0.2666	-0.0064	-0.0201	-0.0088	20.8624	16.3505	-7.7496	0.3433	0.5953	0.3452	-0.6392
3.8	-9.5223	-0.3984	0.2714	-0.0045	-0.0137	-0.0093	20.6864	16.4871	-7.7677	0.3434	0.5953	0.3452	-0.6392
3.81	-9.5455	-0.3866	0.2630	-0.0047	-0.0134	-0.0033	20.6110	16.4106	-7.4785	0.3434	0.5952	0.3451	-0.6393
3.82	-9.5217	-0.3718	0.2615	0.0031	-0.0165	-0.0036	20.6968	16.3582	-7.7385	0.3435	0.5952	0.3450	-0.6393
3.83	-9.5134	-0.3596	0.2653	0.0016	-0.0143	-0.0005	20.7415	16.3576	-7.7761	0.3436	0.5952	0.3449	-0.6393
3.84	-9.4984	-0.3608	0.2573	0.0011	-0.0172	-0.0060	20.7060	16.5041	-7.5229	0.3436	0.5952	0.3447	-0.6394
3.85	-9.5011	-0.3599	0.2534	0.0105	-0.0184	-0.0083	20.7507	16.5295	-7.6303	0.3436	0.5952	0.3446	-0.6395
3.86	-9.4881	-0.3615	0.2546	0.0076	-0.0142	-0.0078	20.6397	16.3571	-7.7090	0.3436	0.5952	0.3445	-0.6395
3.87	-9.4983	-0.3550	0.2588	0.0119	-0.0121	-0.0080	20.6268	16.3679	-7.5128	0.3436	0.5952	0.3444	-0.6396
3.88	-9.5028	-0.3444	0.2625	0.0182	-0.0123	-0.0070	20.7665	16.3808	-7.8017	0.3436	0.5952	0.3442	-0.6397
3.89	-9.5070	-0.3245	0.2746	0.0195	-0.0072	-0.0067	20.6478	16.3316	-7.7711	0.3436	0.5952	0.3441	-0.6397
3.9	-9.5125	-0.3196	0.2746	0.0201	-0.0142	-0.0090	20.6686	16.5428	-7.4658	0.3436	0.5952	0.3440	-0.6398
3.91	-9.5034	-0.3110	0.2899	0.0194	-0.0094	-0.0128	21.1101	16.6533	-7.4622	0.3435	0.5953	0.3438	-0.6399
3.92	-9.5357	-0.3020	0.2821	0.0197	-0.0131	-0.0095	21.2744	16.5070	-7.4423	0.3435	0.5953	0.3437	-0.6400
3.93	-9.5217	-0.3037	0.2884	0.0129	-0.0117	-0.0132	20.8062	16.5939	-7.7316	0.3435	0.5953	0.3436	-0.6400
3.94	-9.5381	-0.2922	0.2810	0.0148	-0.0158	-0.0114	20.4887	16.5938	-7.7059	0.3435	0.5953	0.3434	-0.6401
3.95	-9.4762	-0.2868	0.2766	0.0155	-0.0186	-0.0080	20.7834	16.4376	-7.8137	0.3435	0.5953	0.3433	-0.6402
3.96	-9.4951	-0.2688	0.2993	0.0084	-0.0105	-0.0080	20.7634	16.3372	-7.6564	0.3435	0.5953	0.3432	-0.6402
3.97	-9.5755	-0.2646	0.2730	-0.0015	-0.0104	-0.0182	20.6080	16.0198	-7.8262	0.3435	0.5952	0.3431	-0.6403
3.98	-9.4936	-0.2824	0.2980	-0.0034	-0.0138	-0.0153	20.8006	16.2785	-7.7791	0.3435	0.5952	0.3431	-0.6403
3.99	-9.5227	-0.2774	0.2793	-0.0044	-0.0134	-0.0169	20.7236	16.3449	-8.0085	0.3435	0.5952	0.3430	-0.6404
4	-9.4966	-0.2969	0.2983	-0.0068	-0.0147	-0.0110	20.5576	16.2896	-7.8786	0.3435	0.5951	0.3430	-0.6404
4.01	-9.5309	-0.2932	0.2960	-0.0057	-0.0149	-0.0100	20.7568	16.4386	-7.5937	0.3436	0.5951	0.3429	-0.6405
4.02	-9.5053	-0.2887	0.3160	-0.0066	-0.0127	-0.0196	20.8771	16.4877	-7.7500	0.3436	0.5950	0.3429	-0.6405
4.03	-9.5035	-0.2841	0.3178	-0.0114	-0.0124	-0.0139	20.6425	16.3877	-7.8941	0.3437	0.5950	0.3428	-0.6406
4.04	-9.5054	-0.3004	0.3252	-0.0119	-0.0155	-0.0156	20.7572	16.4170	-7.8399	0.3437	0.5950	0.3428	-0.6406
4.05	-9.5299	-0.3099	0.3269	-0.0192	-0.0131	-0.0230	20.7579	16.4183	-7.6901	0.3438	0.5949	0.3428	-0.6406
4.06	-9.5095	-0.3301	0.3197	-0.0153	-0.0105	-0.0281	20.4958	16.5151	-7.8737	0.3438	0.5948	0.3429	-0.6407
4.07	-9.4792	-0.3323	0.3285	-0.0143	-0.0064	-0.0336	20.6987	16.2930	-7.7171	0.3438	0.5947	0.3429	-0.6407
4.08	-9.4908	-0.3304	0.3144	-0.0109	-0.0073	-0.0281	20.5504	16.4211	-7.7158	0.3438	0.5947	0.3429	-0.6408
4.09	-9.4714	-0.3341	0.3314	-0.0157	-0.0069	-0.0271	20.6244	16.5083	-7.8318	0.3438	0.5946	0.3430	-0.6408
4.1	-9.4809	-0.3350	0.3198	-0.0103	-0.0023	-0.0269	20.6355	16.6707	-7.8092	0.3437	0.5946	0.3430	-0.6408
4.11	-9.4581	-0.3408	0.3263	-0.0129	-0.0007	-0.0252	20.5606	16.6161	-7.8204	0.3437	0.5946	0.3430	-0.6408
4.12	-9.4846	-0.3465	0.3275	-0.0142	-0.0002	-0.0217	20.5781	16.4817	-7.8095	0.3438	0.5945	0.3430	-0.6409
4.13	-9.4864	-0.3597	0.3260	-0.0175	0.0001	-0.0141	20.6071	16.3698	-7.8128	0.3438	0.5945	0.3430	-0.6408
4.14	-9.4923	-0.3563	0.3190	-0.0233	0.0054	-0.0166	20.8895	16.3028	-7.8037	0.3438	0.5945	0.3431	-0.6408
4.15	-9.5091	-0.3624	0.3211	-0.0204	-0.0078	-0.0163	20.7326	16.3408	-7.8119	0.3439	0.5945	0.3431	-0.6408
4.16	-9.5101	-0.3540	0.3193	-0.0170	0.0056	-0.0103	20.8813	16.3068	-7.7995	0.3439	0.5945	0.3431	-0.6408
4.17	-9.4930	-0.3532	0.3212	-0.0090	0.0045	-0.0090	20.7940	16.3500	-8.1404	0.3440	0.5945	0.3431	-0.6407
4.18	-9.5199	-0.3560	0.3115	-0.0180	0.0106	-0.0107	20.7426	16.2409	-7.9099	0.3440	0.5945	0.3431	-0.6407
4.19	-9.5175	-0.3627	0.3049	-0.0121	0.0116	-0.0061	20.6804	16.2365	-7.8977	0.3441	0.5946	0.3431	-0.6406
4.2	-9.5188	-0.3670	0.3045	-0.0069	0.0053	-0.0085	20.7565	16.2193	-8.1213	0.3441	0.5946	0.3431	-0.6406
4.21	-9.5155	-0.3660	0.3009	-0.0097	0.0071	-0.0071	20.7780	16.2896	-7.8842	0.3441	0.5946	0.3430	-0.6406
4.22	-9.5240	-0.3631	0.2950	-0.0109	0.0093	-0.0098	20.6657	16.3358	-7.9218	0.3441	0.5947	0.3430	-0.6405
4.23	-9.5242	-0.3541	0.2993	-0.0053	0.0071	-0.0079	20.5803	16.4097	-7.6894	0.3441	0.5947	0.3430	-0.6405
4.24	-9.5380	-0.3459	0.2859	-0.0051	0.0109	-0.0073	20.6826	16.5626	-7.5776	0.3442	0.5948	0.3430	-0.6405
4.25	-9.5332	-0.3383	0.2892	0.0006	0.0130	-0.0076	20.4576	16.3832	-7.7684	0.3442	0.5948	0.3429	-0.6404
4.26	-9.5393	-0.3266	0.2829	0.0060	0.0120	-0.0077	20.5877	16.5242	-7.9269	0.3441	0.5949	0.3429	-0.6404
4.27	-9.5460	-0.3212	0.2867	0.0039	0.0106	-0.0067	20.6930	16.5640	-7.7855	0.3441	0.5950	0.3428	-0.6404
4.28	-9.5498	-0.3145	0.2880	0.0050	0.0139	-0.0068	20.4624	16.3382	-7.8256	0.3441	0.5950	0.3428	-0.6404
4.29	-9.5381	-0.3161	0.2943	0.0124	-0.0011	-0.0079	20.5898	16.5125	-7.7583	0.3441	0.5951	0.3427	-0.6404
4.3	-9.5396	-0.3068	0.2953	0.0111	-0.0040	-0.0127	20.5570	16.5857	-7.5659	0.3440	0.5951	0.3426	-0.6404
4.31	-9.5235	-0.3086	0.2963	0.0055	-0.0118	-0.0105	20.3738	16.7186	-7.7518	0.3440	0.5951	0.3425	-0.6405
4.32	-9.5152	-0.3069	0.3032	0.0082	-0.0138	-0.0066	20.8328	16.1592	-7.9866	0.3441	0.5951	0.3423	-0.6405
4.33	-9.5002	-0.3044	0.3021	0.0010	-0.0160	-0.0104	20.8657	16.1613	-7.6743	0.3441	0.5951	0.3423	-0.6406
4.34	-9.5038	-0.3053	0.2985	0.0026	-0.0133	-0.0109	20.7038	16.2063	-7.8375	0.3441	0.5951	0.3422	-0.6406
4.35	-9.4984	-0.3002	0.3075	0.0029	-0.0095	-0.0083	20.8372	16.0371	-7.7860	0.3441	0.5951	0.3421	-0.6407
4.36	-9.4992	-0.3035	0.3157	0.0058	0.0035	-0.0091	20.7737	16.2697	-7.8145	0.3441	0.5951	0.3420	-0.6407
4.37	-9.5064	-0.3053	0.3220	-0.0076	-0.0069	-0.0089	20.7507	16.2143	-7.8008	0.3442	0.5951	0.3420	-0.6407
4.38	-9.4956	-0.3047	0.3229	-0.0047	-0.0004	-0.0078	20.7473	16.5000	-7.8150	0.3442	0.5951	0.3419	-0.6407
4.39	-9.4850	-0.3089	0.3198	-0.0056	0.0037	-0.0079	20.8057	16.2929	-7.8044	0.3442	0.5951	0.3419	-0.6407
4.4	-9.4959	-0.3048	0.3176	-0.0015	0.0103	-0.0069	20.9307	16.4356	-7.8178	0.3442	0.5952	0.3418	-0.6406
4.41	-9.4933	-0.3017	0.3199	0.0050	0.0056	-0.0083	21.0631	16.3799	-7.6943	0.3442	0.5953	0.3418	-0.6406
4.42	-9.5046	-0.2957	0.3108	0.0094	0.0146	-0.0104	21.2415	16.3560	-7.4544	0.3442	0.5953	0.3417	-0.6406
4.43	-9.5082	-0.2927	0.3119	0.0023	0.0161	-0.0152	20.7957	16.3213	-7.5241	0.3441	0.5954	0.3417	-0.6406
4.44	-9.4973	-0.2964	0.3140	0.0042	0.0131	-0.0158	20.6869	16.5229	-7.6619	0.3441	0.5955	0.3416	-0.6406
4.45	-9.4953	-0.2934	0.3143	0.0095	0.0108	-0.0130	20.5861	16.5476	-7.5613	0.3440	0.5955	0.3416	-0.6406
4.46	-9.4794	-0.2910	0.3142	-0.0006	0.0049	-0.0192	20.6682	16.2896	-7.7551	0.3440	0.5956	0.3416	-0.6406
4.47	-9.4539	-0.2919	0.3107	-0.0001	0.0121	-0.0265	20.5166	16.4790	-7.4524	0.3439	0.5956	0.3416	-0.6406
4.48	-9.4435	-0.2977	0.3150	0.0006	0.0159	-0.0231	20.6650	16.4617	-7.6286	0.3439	0.5956	0.3416	-0.6405
4.49	-9.4637	-0.2892	0.3176	-0.0030	0.0146	-0.0214	20.8650	16.4198	-7.6555	0.3438	0.5957	0.3416	-0.6405
4.5	-9.4831	-0.2927	0.3179	0.0002	0.0237	-0.0252	20.7240	16.3830	-7.7523	0.3437	0.5958	0.3416	-0.6405
4.51	-9.5133	-0.3014	0.3241	-0.0005	0.0326	-0.0234	20.7020	16.6125	-7.7618	0.3436	0.5959	0.3417	-0.6404
4.52	-9.5500	-0.3102	0.3128	-0.0067	0.0269	-0.0213	20.8644	16.2415	-7.6750	0.3436	0.5959	0.3417	-0.6403
4.53	-9.5301	-0.3290	0.3074	-0.0056	0.0218	-0.0214	20.8687	16.2378	-7.7786	0.3435	0.5960	0.3417	-0.6403
4.54	-9.4984	-0.3355	0.2937	-0.0066	0.0257	-0.0169	20.7467	16.2937	-7.7741	0.3435	0.5961	0.3418	-0.6402
4.55	-9.5142	-0.3314	0.2949	-0.0053	0.0338	-0.0073	21.0566	16.2917	-7.6229	0.3434	0.5962	0.3418	-0.6401
4.56	-9.5361	-0.3140	0.2768	-0.0068	0.0241	-0.0075	20.8950	16.3754	-7.7597	0.3434	0.5963	0.3418	-0.6400
4.57	-9.4917	-0.3011	0.2821	-0.0023	0.0324	-0.0074	20.7685	16.2176	-7.8464	0.3434	0.5964	0.3418	-0.6399
4.58	-9.4968	-0.2950	0.2649	0.0068	0.0384	-0.0059	20.8381	16.4135	-7.6307	0.3433	0.5966	0.3418	-0.6398
4.59	-9.4897	-0.2978	0.2543	0.0025	0.0292	-0.0113	20.6692	16.3225	-7.5819	0.3433	0.5967	0.3417	-0.6398
4.6	-9.4710	-0.3035	0.2487	0.0023	0.0335	-0.0159	20.7748	16.3088	-7.4036	0.3432	0.5968	0.3417	-0.6397
4.61	-9.4913	-0.3081	0.2545	0.0031	0.0426	-0.0238	20.5570	16.4250	-7.6748	0.3431	0.5970	0.3418	-0.6396
4.62	-9.5376	-0.3066	0.2390	0.0079	0.0455	-0.0285	20.4317	16.1336	-7.7445	0.3429	0.5971	0.3418	-0.6395
4.63	-9.5192	-0.3080	0.2476	0.0077	0.0327	-0.0208	20.7105	16.5063	-7.6872	0.3428	0.5973	0.3419	-0.6394
4.64	-9.5286	-0.3060	0.2402	0.0134	0.0460	-0.0184	20.9288	16.3208	-7.5757	0.3427	0.5974	0.3419	-0.6393
4.65	-9.5303	-0.3010	0.2413	0.0203	0.0486	-0.0203	20.7223	16.2687	-7.6856	0.3425	0.5976	0.3419	-0.6393
4.66	-9.5304	-0.2973	0.2310	0.0075	0.0402	-0.0284	20.6119	16.3759	-7.5141	0.3424	0.5978	0.3419	-0.6392
4.67	-9.5426	-0.2983	0.2292	0.0140	0.0449	-0.0181	20.7722	16.2565	-7.5613	0.3422	0.5979	0.3419	-0.6391
4.68	-9.5616	-0.2942	0.2143	0.0217	0.0456	-0.0162	20.6335	16.2801	-7.7082	0.3421	0.5981	0.3419	-0.6390
4.69	-9.5731	-0.2886	0.2034	0.0165	0.0347	-0.0234	20.5337	16.3727	-7.6652	0.3419	0.5983	0.3419	-0.6390
4.7	-9.5496	-0.2892	0.1891	0.0174	0.0424	-0.0173	20.6614	16.4756	-7.6442	0.3418	0.5984	0.3418	-0.6389
4.71	-9.5259	-0.2725	0.1953	0.0194	0.0372	-0.0178	20.9770	16.2772	-7.5843	0.3417	0.5986	0.3418	-0.6388
4.72	-9.5602	-0.2650	0.1872	0.0201	0.0338	-0.0265	20.9285	16.2909	-7.7931	0.3415	0.5987	0.3418	-0.6388
4.73	-9.5469	-0.2645	0.2007	0.0166	0.0271	-0.0299	20.6689	16.2699	-7.6436	0.3413	0.5989	0.3418	-0.6388
4.74	-9.5368	-0.2576	0.2135	0.0187	0.0275	-0.0344	20.8936	16.3130	-7.6726	0.3412	0.5990	0.3418	-0.6388
4.75	-9.5225	-0.2684	0.2269	0.0178	0.0128	-0.0356	20.6400	16.4177	-7.6843	0.3410	0.5990	0.3418	-0.6388
4.76	-9.5325	-0.2533	0.2280	0.0195	0.0204	-0.0398	20.6120	16.2366	-7.5734	0.3408	0.5991	0.3418	-0.6388
4.77	-9.5104	-0.2446	0.2283	0.0159	0.0206	-0.0393	20.9818	16.4599	-7.4602	0.3407	0.5992	0.3418	-0.6389
4.78	-9.4922	-0.2415	0.2267	0.0207	0.0247	-0.0307	20.8101	16.3706	-7.5180	0.3405	0.5993	0.3418	-0.6389
4.79	-9.5012	-0.2295	0.2250	0.0066	0.0256	-0.0397	20.8186	16.2241	-7.6994	0.3403	0.5993	0.3418	-0.6389
4.8	-9.5113	-0.2325	0.2057	-0.0011	0.0378	-0.0392	20.6979	16.4254	-7.5343	0.3402	0.5994	0.3419	-0.6388
4.81	-9.5193	-0.2369	0.1998	-0.0044	0.0373	-0.0444	20.7366	16.3149	-7.5119	0.3400	0.5995	0.3420	-0.6387
4.82	-9.5319	-0.2433	0.1880	-0.0090	0.0440	-0.0484	20.6838	16.4826	-7.5824	0.3399	0.5996	0.3422	-0.6387
4.83	-9.5267	-0.2533	0.1829	-0.0127	0.0395	-0.0445	20.8495	16.3507	-7.2488	0.3397	0.5996	0.3424	-0.6386
4.84	-9.5198	-0.2627	0.1761	-0.0267	0.0413	-0.0455	20.5262	16.3112	-7.4542	0.3396	0.5997	0.3426	-0.6385
4.85	-9.5209	-0.2756	0.1736	-0.0324	0.0398	-0.0496	20.6471	16.5010	-7.6610	0.3395	0.5997	0.3428	-0.6384
4.86	-9.5061	-0.2836	0.1749	-0.0310	0.0385	-0.0473	20.6984	16.4513	-7.6835	0.3394	0.5998	0.3430	-0.6383
4.87	-9.5030	-0.3022	0.1699	-0.0318	0.0338	-0.0441	20.4796	16.3617	-7.6611	0.3394	0.5998	0.3432	-0.6382
4.88	-9.5149	-0.3218	0.1565	-0.0295	0.0344	-0.0412	20.8533	16.2652	-7.5498	0.3393	0.5998	0.3434	-0.6381
4.89	-9.5119	-0.3396	0.1534	-0.0372	0.0278	-0.0453	20.6889	16.2773	-7.3907	0.3393	0.5998	0.3436	-0.6380
4.9	-9.5153	-0.3550	0.1563	-0.0437	0.0364	-0.0377	20.9449	16.3720	-7.4081	0.3392	0.5998	0.3438	-0.6379
4.91	-9.5237	-0.3713	0.1443	-0.0469	0.0373	-0.0369	21.3502	16.3702	-7.3548	0.3392	0.5998	0.3441	-0.6378
4.92	-9.5190	-0.3862	0.1333	-0.0407	0.0361	-0.0348	21.4369	16.4261	-7.2034	0.3392	0.5999	0.3443	-0.6376
4.93	-9.5176	-0.3925	0.1326	-0.0324	0.0409	-0.0344	21.0833	16.5677	-7.2805	0.3392	0.5999	0.3445	-0.6375
4.94	-9.5307	-0.3921	0.1314	-0.0345	0.0367	-0.0320	21.0003	16.3202	-7.3233	0.3392	0.6000	0.3447	-0.6374
4.95	-9.5339	-0.3906	0.1254	-0.0306	0.0355	-0.0276	20.8862	16.1396	-7.4271	0.3391	0.6000	0.3448	-0.6372
4.96	-9.5341	-0.3860	0.1312	-0.0316	0.0414	-0.0254	20.7820	16.3608	-7.4696	0.3391	0.6001	0.3450	-0.6371
4.97	-9.5410	-0.3807	0.1210	-0.0304	0.0318	-0.0256	20.6684	16.1865	-7.6144	0.3391	0.6001	0.3451	-0.6370
4.98	-9.5401	-0.3760	0.1259	-0.0318	0.0324	-0.0305	20.6441	16.5013	-7.6399	0.3391	0.6002	0.3453	-0.6369
4.99	-9.5606	-0.3801	0.1037	-0.0299	0.0360	-0.0331	20.7025	16.5335	-7.4088	0.3390	0.6002	0.3455	-0.6367
5	-9.5315	-0.3791	0.1143	-0.0302	0.0309	-0.0332	20.5585	16.3640	-7.3316	0.3390	0.6003	0.3456	-0.6366
5.01	-9.5559	-0.3751	0.1044	-0.0292	0.0273	-0.0322	20.6880	16.4333	-7.2506	0.3390	0.6003	0.3458	-0.6365
5.02	-9.5511	-0.3837	0.1042	-0.0246	0.0261	-0.0329	20.6097	16.3039	-7.1381	0.3389	0.6003	0.3459	-0.6365
5.03	-9.5464	-0.3816	0.1084	-0.0170	0.0297	-0.0362	20.4610	16.4837	-7.5138	0.3389	0.6003	0.3460	-0.6364
5.04	-9.5549	-0.3710	0.0988	-0.0203	0.0238	-0.0359	20.7238	16.5750	-7.5432	0.3388	0.6004	0.3462	-0.6363
5.05	-9.5171	-0.3803	0.1123	-0.0209	0.0289	-0.0322	20.5212	16.5929	-7.4186	0.3388	0.6004	0.3463	-0.6363
5.06	-9.5299	-0.3792	0.1052	-0.0277	0.0211	-0.0355	20.5070	16.5879	-7.4515	0.3387	0.6004	0.3464	-0.6362
5.07	-9.5080	-0.3843	0.1116	-0.0144	0.0170	-0.0370	20.6423	16.5488	-7.4106	0.3387	0.6004	0.3465	-0.6362
5.08	-9.5086	-0.3770	0.1121	-0.0167	0.0119	-0.0325	20.7664	16.3866	-7.5376	0.3386	0.6004	0.3466	-0.6362
5.09	-9.5079	-0.3690	0.1125	-0.0250	0.0192	-0.0334	20.7323	16.3292	-7.5026	0.3386	0.6004	0.3467	-0.6361
5.1	-9.5208	-0.3635	0.1163	-0.0240	0.0211	-0.0347	20.8046	16.1285	-7.3965	0.3386	0.6004	0.3469	-0.6360
5.11	-9.5515	-0.3663	0.0996	-0.0325	0.0188	-0.0407	20.8201	16.2798	-7.4471	0.3385	0.6004	0.3470	-0.6360
5.12	-9.5245	-0.3709	0.1070	-0.0238	0.0110	-0.0417	20.5109	16.5298	-7.4178	0.3385	0.6004	0.3472	-0.6360
5.13	-9.5448	-0.3742	0.0951	-0.0304	0.0186	-0.0406	20.5204	16.3708	-7.4615	0.3385	0.6003	0.3473	-0.6359
5.14	-9.5305	-0.3925	0.0973	-0.0313	0.0203	-0.0454	20.7889	16.4329	-7.5698	0.3384	0.6003	0.3475	-0.6359
5.15	-9.5121	-0.4007	0.0905	-0.0311	0.0118	-0.0467	20.6582	16.3880	-7.4030	0.3384	0.6003	0.3477	-0.6358
5.16	-9.5180	-0.4148	0.0894	-0.0309	0.0183	-0.0424	20.5655	16.5339	-7.5756	0.3383	0.6002	0.3479	-0.6358
5.17	-9.5178	-0.4170	0.0853	-0.0314	0.0174	-0.0496	20.5654	16.6065	-7.3050	0.3383	0.6002	0.3481	-0.6358
5.18	-9.4947	-0.4213	0.0939	-0.0306	0.0211	-0.0460	20.3600	16.5593	-7.4848	0.3382	0.6002	0.3482	-0.6357
5.19	-9.4905	-0.4330	0.0966	-0.0317	0.0187	-0.0415	20.6008	16.7026	-7.1837	0.3382	0.6002	0.3484	-0.6356
5.2	-9.4982	-0.4292	0.1058	-0.0298	0.0237	-0.0511	20.5560	16.5218	-7.3798	0.3381	0.6001	0.3486	-0.6356
5.21	-9.5007	-0.4340	0.1098	-0.0311	0.0263	-0.0472	20.4349	16.5261	-7.2957	0.3380	0.6001	0.3488	-0.6355
5.22	-9.4909	-0.4375	0.1155	-0.0231	0.0194	-0.0536	20.6076	16.6947	-7.0849	0.3380	0.6001	0.3490	-0.6355
5.23	-9.4954	-0.4396	0.1030	-0.0225	0.0341	-0.0523	20.4444	16.6648	-7.4068	0.3378	0.6001	0.3492	-0.6355
5.24	-9.4820	-0.4529	0.1052	-0.0230	0.0306	-0.0488	20.4047	16.6810	-7.1873	0.3377	0.6001	0.3494	-0.6354
5.25	-9.4917	-0.4520	0.1054	-0.0253	0.0335	-0.0501	20.3514	16.6647	-7.3350	0.3376	0.6001	0.3496	-0.6353
5.26	-9.5011	-0.4564	0.0881	-0.0237	0.0340	-0.0479	20.6832	16.6965	-7.4594	0.3375	0.6002	0.3498	-0.6352
5.27	-9.5063	-0.4671	0.0907	-0.0200	0.0402	-0.0560	20.8781	16.4148	-7.2775	0.3374	0.6002	0.3500	-0.6352
5.28	-9.5583	-0.4707	0.0907	-0.0293	0.0455	-0.0494	20.6535	16.3019	-7.2801	0.3373	0.6003	0.3502	-0.6351
5.29	-9.5631	-0.4975	0.0682	-0.0257	0.0381	-0.0471	20.6738	16.6189	-7.3859	0.3372	0.6003	0.3504	-0.6350
5.3	-9.5097	-0.5073	0.0700	-0.0171	0.0337	-0.0494	20.6608	16.5603	-7.2122	0.3370	0.6003	0.3506	-0.6349
5.31	-9.5360	-0.5102	0.0594	-0.0209	0.0366	-0.0439	20.5272	16.3746	-7.4251	0.3369	0.6004	0.3508	-0.6348
5.32	-9.5471	-0.5307	0.0563	-0.0197	0.0386	-0.0408	20.4497	16.6288	-7.4265	0.3368	0.6004	0.3509	-0.6347
5.33	-9.5481	-0.5198	0.0522	-0.0262	0.0326	-0.0338	20.6030	16.4689	-7.4609	0.3368	0.6005	0.3511	-0.6346
5.34	-9.5425	-0.5192	0.0529	-0.0282	0.0344	-0.0346	20.4330	16.5317	-7.3878	0.3367	0.6005	0.3512	-0.6345
5.35	-9.5447	-0.5232	0.0429	-0.0265	0.0269	-0.0312	20.5735	16.6014	-7.2096	0.3367	0.6006	0.3514	-0.6344
5.36	-9.5192	-0.5363	0.0458	-0.0145	0.0259	-0.0354	20.5013	16.8620	-7.2870	0.3366	0.6006	0.3515	-0.6344
5.37	-9.5339	-0.5356	0.0264	-0.0261	0.0295	-0.0337	20.4949	16.8262	-7.1521	0.3366	0.6006	0.3516	-0.6343
5.38	-9.5080	-0.5273	0.0467	-0.0240	0.0242	-0.0326	20.4538	16.6676	-7.2851	0.3365	0.6007	0.3517	-0.6342
5.39	-9.5431	-0.5427	0.0261	-0.0250	0.0226	-0.0303	20.3967	16.7921	-7.0353	0.3365	0.6007	0.3518	-0.6342
5.4	-9.5037	-0.5343	0.0477	-0.0165	0.0187	-0.0299	20.7534	16.8123	-7.1929	0.3365	0.6007	0.3519	-0.6341
5.41	-9.5252	-0.5339	0.0324	-0.0190	0.0230	-0.0260	20.9037	17.0960	-7.0315	0.3365	0.6007	0.3520	-0.6340
5.42	-9.5073	-0.5420	0.0406	-0.0190	0.0176	-0.0256	21.0101	16.9835	-6.7171	0.3364	0.6008	0.3521	-0.6340
5.43	-9.5087	-0.5334	0.0342	-0.0129	0.0244	-0.0194	20.3047	16.8100	-6.8964	0.3364	0.6008	0.3521	-0.6339
5.44	-9.5045	-0.5453	0.0269	-0.0078	0.0220	-0.0082	20.4692	16.8888	-7.1662	0.3364	0.6009	0.3521	-0.6338
5.45	-9.5238	-0.5308	0.0341	-0.0059	0.0313	-0.0129	20.5336	16.7190	-6.9576	0.3364	0.6010	0.3521	-0.6337
5.46	-9.5504	-0.5411	0.0021	-0.0095	0.0319	-0.0127	20.6284	16.6291	-7.4053	0.3363	0.6011	0.3522	-0.6336
5.47	-9.5102	-0.5461	0.0025	-0.0062	0.0226	-0.0130	20.5913	16.6360	-7.2510	0.3363	0.6012	0.3522	-0.6336
5.48	-9.5454	-0.5082	0.0044	-0.0062	0.0239	-0.0120	20.4288	16.7707	-7.1309	0.3363	0.6013	0.3522	-0.6335
5.49	-9.5642	-0.5222	-0.0017	-0.0102	0.0213	-0.0075	20.5086	16.6636	-7.3835	0.3363	0.6014	0.3522	-0.6334
5.5	-9.5510	-0.5072	-0.0027	-0.0089	0.0168	-0.0104	20.6333	16.7133	-7.0348	0.3363	0.6014	0.3522	-0.6334
5.51	-9.5342	-0.5031	-0.0028	-0.0170	0.0094	-0.0113	20.6688	16.6646	-7.0357	0.3363	0.6015	0.3522	-0.6333
5.52	-9.5418	-0.5030	0.0017	-0.0092	0.0139	-0.0070	20.4999	16.6350	-7.1834	0.3364	0.6015	0.3521	-0.6333
5.53	-9.5515	-0.4862	0.0012	-0.0044	0.0088	-0.0076	20.4751	16.6433	-7.2384	0.3364	0.6016	0.3521	-0.6332
5.54	-9.5310	-0.4862	0.0062	-0.0080	0.0045	-0.0080	20.3933	16.7068	-7.2344	0.3364	0.6016	0.3521	-0.6332
5.55	-9.5365	-0.4789	0.0082	-0.0097	0.0090	-0.0070	20.3685	16.7656	-7.2151	0.3364	0.6017	0.3520	-0.6332
5.56	-9.5427	-0.4737	-0.0007	-0.0162	0.0157	-0.0075	20.3882	16.6772	-7.2718	0.3365	0.6017	0.3520	-0.6331
5.57	-9.5286	-0.4790	0.0035	-0.0245	0.0036	-0.0079	20.3659	16.6650	-7.0923	0.3366	0.6017	0.3521	-0.6330
5.58	-9.5259	-0.4777	0.0041	-0.0285	-0.0006	-0.0093	20.4525	16.9399	-7.0182	0.3367	0.6017	0.3521	-0.6330
5.59	-9.5193	-0.4808	0.0079	-0.0244	0.0054	-0.0098	20.7224	16.7913	-7.1829	0.3367	0.6017	0.3521	-0.6329
5.6	-9.5217	-0.4819	0.0059	-0.0231	0.0021	-0.0099	20.3750	16.8502	-6.9291	0.3368	0.6017	0.3521	-0.6329
5.61	-9.5181	-0.4913	0.0018	-0.0317	-0.0009	-0.0082	20.5144	16.7521	-7.0489	0.3369	0.6017	0.3521	-0.6328
5.62	-9.5224	-0.4944	-0.0043	-0.0270	0.0056	-0.0088	20.7568	16.6296	-7.0331	0.3370	0.6017	0.3522	-0.6328
5.63	-9.5037	-0.5024	0.0024	-0.0294	0.0006	-0.0082	20.6353	16.7921	-6.9438	0.3371	0.6016	0.3522	-0.6327
5.64	-9.5058	-0.5054	0.0022	-0.0282	0.0033	-0.0095	20.6009	16.6238	-7.1414	0.3372	0.6016	0.3522	-0.6327
5.65	-9.5172	-0.5156	-0.0009	-0.0326	0.0098	-0.0093	20.4735	16.4380	-7.1286	0.3373	0.6016	0.3523	-0.6326
5.66	-9.5060	-0.5195	0.0030	-0.0291	0.0078	-0.0076	20.4242	16.5012	-7.1334	0.3374	0.6016	0.3523	-0.6325
5.67	-9.5165	-0.5195	-0.0008	-0.0227	0.0050	-0.0121	20.4260	16.4192	-7.1340	0.3374	0.6016	0.3523	-0.6325
5.68	-9.5284	-0.5253	-0.0003	-0.0213	0.0018	-0.0120	20.4124	16.6278	-7.1294	0.3375	0.6016	0.3523	-0.6324
5.69	-9.5309	-0.5223	-0.0033	-0.0192	0.0068	-0.0178	20.3699	16.6540	-7.1547	0.3375	0.6016	0.3524	-0.6324
5.7	-9.5244	-0.5153	-0.0029	-0.0125	0.0088	-0.0072	20.4747	16.5359	-6.9788	0.3376	0.6017	0.3524	-0.6324
5.71	-9.5298	-0.5146	-0.0023	-0.0081	0.0045	-0.0134	20.3481	16.7513	-7.1591	0.3376	0.6017	0.3523	-0.6323
5.72	-9.5417	-0.5088	-0.0049	-0.0182	0.0049	-0.0132	20.7036	16.6656	-7.0159	0.3376	0.6017	0.3524	-0.6323
5.73	-9.5384	-0.5103	-0.0044	-0.0079	0.0046	-0.0090	20.4974	16.5225	-7.2008	0.3376	0.6017	0.3523	-0.6323
5.74	-9.5427	-0.5069	-0.0084	-0.0076	0.0080	-0.0145	20.3458	16.6153	-6.9920	0.3376	0.6018	0.3523	-0.6323
5.75	-9.5422	-0.5014	-0.0104	-0.0090	0.0019	-0.0120	20.4261	16.8761	-6.8469	0.3377	0.6018	0.3523	-0.6322
5.76	-9.5330	-0.4992	-0.0033	-0.0058	-0.0075	-0.0148	20.6188	16.6255	-7.1945	0.3377	0.6018	0.3522	-0.6323
5.77	-9.5337	-0.4990	0.0013	-0.0072	-0.0052	-0.0116	20.2295	16.5445	-6.9860	0.3377	0.6018	0.3522	-0.6323
5.78	-9.5260	-0.5019	0.0084	-0.0081	-0.0098	-0.0089	20.3207	16.4005	-6.9104	0.3378	0.6018	0.3521	-0.6323
5.79	-9.5214	-0.4997	0.0005	-0.0058	-0.0119	-0.0078	20.6140	16.6685	-7.1058	0.3378	0.6017	0.3521	-0.6323
5.8	-9.5076	-0.4993	0.0019	-0.0116	-0.0118	-0.0083	20.4412	16.6057	-7.2658	0.3379	0.6017	0.3520	-0.6323
5.81	-9.5111	-0.4979	0.0055	-0.0058	-0.0112	-0.0065	20.4584	16.7382	-7.0544	0.3379	0.6017	0.3519	-0.6324
5.82	-9.5115	-0.4992	0.0084	-0.0045	-0.0065	-0.0033	20.5571	16.5940	-7.0718	0.3380	0.6017	0.3519	-0.6324
5.83	-9.5210	-0.4973	0.0075	-0.0123	-0.0055	-0.0081	20.8677	16.6340	-7.3533	0.3381	0.6017	0.3518	-0.6324
5.84	-9.5202	-0.4898	0.0119	-0.0061	-0.0075	-0.0078	20.6941	16.7356	-7.0716	0.3381	0.6017	0.3518	-0.6324
5.85	-9.5219	-0.4920	0.0086	-0.0049	-0.0102	-0.0063	20.4438	16.3305	-7.0347	0.3382	0.6017	0.3517	-0.6324
5.86	-9.5179	-0.4866	0.0114	-0.0070	-0.0134	0.0059	20.5584	16.6996	-7.0331	0.3383	0.6017	0.3516	-0.6324
5.87	-9.5196	-0.4792	0.0070	-0.0008	-0.0029	0.0003	20.5479	16.5131	-7.1480	0.3383	0.6017	0.3515	-0.6324
5.88	-9.5196	-0.4692	0.0065	0.0036	-0.0054	-0.0008	20.3365	16.4947	-7.1187	0.3383	0.6017	0.3514	-0.6324
5.89	-9.5172	-0.4638	0.0039	-0.0028	-0.0119	0.0034	20.5977	16.5766	-7.1668	0.3384	0.6018	0.3513	-0.6324
5.9	-9.5227	-0.4548	-0.0011	0.0104	-0.0093	-0.0036	20.8874	16.6090	-6.9685	0.3384	0.6018	0.3511	-0.6325
5.91	-9.5358	-0.4430	0.0066	0.0170	-0.0129	-0.0031	21.0743	16.9071	-6.7122	0.3384	0.6018	0.3510	-0.6325
5.92	-9.5439	-0.4309	0.0066	0.0191	-0.0077	-0.0025	21.0242	16.8988	-6.7325	0.3384	0.6018	0.3508	-0.6326
5.93	-9.5409	-0.4176	0.0075	0.0147	-0.0053	-0.0059	20.6453	16.8178	-7.0995	0.3384	0.6019	0.3507	-0.6326
5.94	-9.5454	-0.4052	0.0010	0.0052	-0.0111	-0.0052	20.4082	16.6818	-7.2206	0.3384	0.6019	0.3506	-0.6327
5.95	-9.5336	-0.3939	0.0088	0.0099	-0.0061	-0.0078	20.5635	16.5118	-7.1974	0.3384	0.6019	0.3505	-0.6327
5.96	-9.5394	-0.3837	0.0074	0.0051	-0.0082	-0.0075	20.8420	16.6486	-7.0502	0.3384	0.6019	0.3503	-0.6328
5.97	-9.5280	-0.3850	0.0065	0.0027	-0.0060	-0.0076	20.6576	16.7520	-7.0259	0.3385	0.6020	0.3503	-0.6328
5.98	-9.5249	-0.3753	0.0092	0.0023	-0.0106	-0.0096	20.4688	16.8613	-7.1505	0.3385	0.6020	0.3502	-0.6328
5.99	-9.5273	-0.3601	0.0100	-0.0047	-0.0136	-0.0082	20.5245	16.8343	-7.2822	0.3385	0.6019	0.3501	-0.6329
6	-9.5244	-0.3772	0.0092	0.0028	-0.0165	-0.0067	20.6179	16.6118	-7.0806	0.3386	0.6019	0.3500	-0.6329
6.01	-9.5355	-0.3722	0.0064	-0.0043	-0.0134	-0.0105	20.5381	16.4919	-6.9151	0.3386	0.6019	0.3499	-0.6329
6.02	-9.5251	-0.3698	0.0171	-0.0071	-0.0188	-0.0077	20.6382	16.3658	-7.0687	0.3387	0.6019	0.3498	-0.6330
6.03	-9.5337	-0.3758	0.0192	-0.0100	-0.0212	-0.0111	20.7969	16.3084	-7.3702	0.3387	0.6018	0.3498	-0.6330
6.04	-9.5362	-0.3843	0.0294	-0.0071	-0.0163	-0.0098	20.7245	16.3080	-7.3508	0.3388	0.6018	0.3497	-0.6331
6.05	-9.5376	-0.3911	0.0338	-0.0182	-0.0133	-0.0088	20.8775	16.4305	-7.1704	0.3389	0.6017	0.3497	-0.6331
6.06	-9.5282	-0.3984	0.0313	-0.0285	-0.0200	-0.0143	20.6823	16.5037	-7.1212	0.3390	0.6016	0.3497	-0.6331
6.07	-9.5121	-0.4119	0.0362	-0.0115	-0.0166	-0.0107	20.6695	16.2965	-7.1187	0.3391	0.6016	0.3496	-0.6332
6.08	-9.5372	-0.4196	0.0315	-0.0179	-0.0183	-0.0105	20.6512	16.4041	-7.1225	0.3391	0.6015	0.3496	-0.6332
6.09	-9.5151	-0.4264	0.0361	-0.0114	-0.0184	-0.0135	20.8050	16.5258	-7.2353	0.3392	0.6015	0.3495	-0.6332
6.1	-9.5260	-0.4302	0.0544	-0.0154	-0.0182	-0.0133	20.6773	16.6173	-7.0390	0.3393	0.6014	0.3495	-0.6333
6.11	-9.5657	-0.4310	0.0542	-0.0128	-0.0119	-0.0167	20.7360	16.5015	-7.0470	0.3393	0.6014	0.3495	-0.6333
6.12	-9.5447	-0.4341	0.0571	-0.0116	-0.0247	-0.0167	20.7736	16.4879	-6.9210	0.3394	0.6013	0.3495	-0.6334
6.13	-9.4940	-0.4402	0.0637	-0.0142	-0.0249	-0.0079	20.4968	16.6333	-6.9691	0.3395	0.6012	0.3494	-0.6334
6.14	-9.4758	-0.4434	0.0676	-0.0075	-0.0186	-0.0078	20.6894	16.4947	-7.0983	0.3396	0.6012	0.3493	-0.6335
6.15	-9.4855	-0.4444	0.0726	-0.0093	-0.0188	-0.0082	20.5773	16.5643	-7.2336	0.3396	0.6011	0.3492	-0.6335
6.16	-9.4827	-0.4312	0.0711	-0.0070	-0.0094	-0.0082	20.4811	16.7023	-7.1009	0.3397	0.6011	0.3492	-0.6335
6.17	-9.4718	-0.4195	0.0672	-0.0070	-0.0113	-0.0066	20.7889	16.4948	-7.1707	0.3397	0.6011	0.3491	-0.6336
6.18	-9.4708	-0.4175	0.0633	-0.0054	-0.0105	-0.0000	20.6763	16.7755	-7.2592	0.3398	0.6011	0.3490	-0.6336
6.19	-9.4749	-0.4184	0.0570	-0.0048	-0.0054	-0.0030	20.6624	16.6529	-7.1040	0.3399	0.6011	0.3489	-0.6336
6.2	-9.4709	-0.4209	0.0487	-0.0039	-0.0006	-0.0037	20.7920	16.4714	-7.1496	0.3399	0.6011	0.3489	-0.6336
6.21	-9.4870	-0.4146	0.0517	0.0047	0.0081	-0.0082	20.7207	16.4623	-7.0474	0.3399	0.6012	0.3488	-0.6336
6.22	-9.5155	-0.4094	0.0378	0.0103	0.0047	-0.0068	20.8593	16.3714	-6.7510	0.3399	0.6013	0.3487	-0.6335
6.23	-9.5193	-0.3961	0.0368	0.0097	-0.0018	-0.0077	20.8273	16.5399	-7.2613	0.3398	0.6013	0.3486	-0.6336
6.24	-9.5350	-0.3899	0.0338	0.0148	0.0023	-0.0066	20.8857	16.3041	-7.3639	0.3398	0.6014	0.3485	-0.6336
6.25	-9.5330	-0.3836	0.0315	0.0164	0.0051	-0.0099	20.7124	16.3939	-7.1193	0.3398	0.6014	0.3484	-0.6336
6.26	-9.5397	-0.3642	0.0321	0.0193	0.0046	-0.0063	20.5562	16.4105	-7.4619	0.3397	0.6015	0.3483	-0.6336
6.27	-9.5575	-0.3624	0.0216	0.0199	-0.0016	-0.0089	20.6897	16.2975	-7.1089	0.3397	0.6016	0.3481	-0.6337
6.28	-9.5719	-0.3532	0.0290	0.0168	0.0013	-0.0135	20.6811	16.5029	-7.0114	0.3396	0.6016	0.3480	-0.6337
6.29	-9.5856	-0.3414	0.0053	0.0100	0.0047	-0.0082	20.8825	16.4747	-7.3483	0.3396	0.6017	0.3479	-0.6337
6.3	-9.5484	-0.3334	0.0153	0.0052	-0.0056	-0.0185	20.7233	16.6168	-7.2645	0.3395	0.6017	0.3479	-0.6338
6.31	-9.5877	-0.3183	0.0120	-0.0018	-0.0081	-0.0207	20.6627	16.3989	-7.1277	0.3395	0.6017	0.3478	-0.6338
6.32	-9.5995	-0.3198	0.0159	-0.0073	-0.0085	-0.0250	20.8686	16.5050	-7.2275	0.3395	0.6016	0.3478	-0.6338
6.33	-9.5770	-0.3245	0.0164	-0.0044	-0.0197	-0.0188	20.7642	16.7809	-6.8812	0.3396	0.6016	0.3478	-0.6339
6.34	-9.5644	-0.3383	0.0289	-0.0166	-0.0135	-0.0231	20.5331	16.8710	-7.3399	0.3396	0.6015	0.3478	-0.6340
6.35	-9.5652	-0.3477	0.0351	-0.0323	-0.0184	-0.0210	20.6331	16.6231	-7.4325	0.3397	0.6014	0.3478	-0.6340
6.36	-9.5653	-0.3538	0.0455	-0.0322	-0.0286	-0.0155	20.7043	16.5739	-7.3396	0.3398	0.6013	0.3478	-0.6340
6.37	-9.5440	-0.3587	0.0471	-0.0311	-0.0346	-0.0156	20.5374	16.5700	-7.1755	0.3399	0.6011	0.3479	-0.6341
6.38	-9.5415	-0.3689	0.0636	-0.0316	-0.0400	-0.0110	20.6442	16.4950	-7.5487	0.3401	0.6010	0.3478	-0.6342
6.39	-9.5415	-0.3795	0.0601	-0.0317	-0.0389	-0.0135	20.8082	16.4283	-7.5161	0.3403	0.6008	0.3478	-0.6342
6.4	-9.5109	-0.4028	0.0700	-0.0324	-0.0385	-0.0159	20.7501	16.4068	-7.1682	0.3404	0.6007	0.3478	-0.6343
6.41	-9.5102	-0.4063	0.0724	-0.0326	-0.0342	-0.0149	21.3839	16.4836	-7.2460	0.3406	0.6005	0.3478	-0.6344
6.42	-9.5083	-0.4123	0.0797	-0.0309	-0.0373	-0.0179	21.5333	16.6026	-7.0550	0.3407	0.6004	0.3478	-0.6344
6.43	-9.5080	-0.4260	0.0806	-0.0325	-0.0294	-0.0207	20.9014	16.6153	-7.1479	0.3408	0.6002	0.3478	-0.6345
6.44	-9.5052	-0.4284	0.0815	-0.0290	-0.0289	-0.0262	20.8193	16.4866	-7.3497	0.3409	0.6001	0.3479	-0.6346
6.45	-9.5111	-0.4278	0.0824	-0.0318	-0.0193	-0.0217	20.4680	16.5072	-7.0936	0.3410	0.6000	0.3479	-0.6346
6.46	-9.5171	-0.4306	0.0836	-0.0304	-0.0272	-0.0242	20.6840	16.5125	-7.2772	0.3411	0.5998	0.3479	-0.6347
6.47	-9.5139	-0.4384	0.0874	-0.0259	-0.0243	-0.0241	20.8832	16.5878	-7.4880	0.3412	0.5997	0.3480	-0.6347
6.48	-9.5152	-0.4396	0.0908	-0.0264	-0.0317	-0.0216	20.6783	16.5534	-7.4000	0.3413	0.5996	0.3480	-0.6348
6.49	-9.5209	-0.4409	0.0960	-0.0301	-0.0239	-0.0248	20.7302	16.5552	-7.0877	0.3414	0.5995	0.3480	-0.6348
6.5	-9.5170	-0.4411	0.0971	-0.0176	-0.0282	-0.0202	20.8860	16.3815	-7.2621	0.3414	0.5993	0.3480	-0.6349
6.51	-9.5149	-0.4452	0.0978	-0.0102	-0.0303	-0.0190	20.7398	16.3870	-7.2569	0.3415	0.5992	0.3479	-0.6350
6.52	-9.5167	-0.4460	0.0985	-0.0079	-0.0243	-0.0171	20.6066	16.5046	-7.3687	0.3416	0.5992	0.3479	-0.6351
6.53	-9.5295	-0.4432	0.0970	-0.0054	-0.0274	-0.0108	20.4161	16.6027	-7.1897	0.3416	0.5991	0.3478	-0.6352
6.54	-9.5356	-0.4355	0.0973	-0.0056	-0.0258	-0.0086	20.6231	16.4632	-7.4110	0.3417	0.5990	0.3477	-0.6352
6.55	-9.5403	-0.4324	0.0990	-0.0045	-0.0280	-0.0074	20.9063	16.4962	-7.0865	0.3418	0.5990	0.3476	-0.6353
6.56	-9.5336	-0.4296	0.1027	-0.0069	-0.0256	-0.0084	20.7308	16.4314	-7.1475	0.3418	0.5989	0.3475	-0.6354
6.57	-9.5306	-0.4237	0.1168	0.0010	-0.0307	-0.0080	20.6771	16.1727	-7.2925	0.3419	0.5988	0.3474	-0.6355
6.58	-9.5265	-0.4192	0.1193	-0.0022	-0.0311	-0.0076	20.8569	16.3143	-7.2370	0.3420	0.5988	0.3473	-0.6356
6.59	-9.5165	-0.4077	0.1238	0.0049	-0.0320	-0.0083	20.8421	16.3981	-7.3667	0.3420	0.5987	0.3472	-0.6357
6.6	-9.5138	-0.4007	0.1315	0.0002	-0.0299	-0.0084	20.7903	16.3904	-7.1990	0.3421	0.5986	0.3471	-0.6358
6.61	-9.5179	-0.3893	0.1381	-0.0001	-0.0319	-0.0080	20.7294	16.3747	-7.3562	0.3421	0.5986	0.3469	-0.6359
6.62	-9.5223	-0.3841	0.1419	0.0068	-0.0298	-0.0102	20.7506	16.4866	-7.3490	0.3422	0.5985	0.3468	-0.6360
6.63	-9.5116	-0.3725	0.1467	0.0077	-0.0336	-0.0080	20.7619	16.5964	-7.4855	0.3422	0.5984	0.3467	-0.6361
6.64	-9.5097	-0.3642	0.1510	0.0071	-0.0350	-0.0086	20.6915	16.7052	-7.3899	0.3423	0.5984	0.3465	-0.6362
6.65	-9.5125	-0.3528	0.1563	0.0013	-0.0263	-0.0095	20.6345	16.4579	-7.2616	0.3423	0.5983	0.3464	-0.6363
6.66	-9.5141	-0.3517	0.1666	0.0023	-0.0311	-0.0097	20.7794	16.4982	-7.1420	0.3424	0.5982	0.3463	-0.6364
6.67	-9.5072	-0.3444	0.1692	0.0031	-0.0282	-0.0119	20.7217	16.5703	-7.2057	0.3424	0.5982	0.3462	-0.6365
6.68	-9.5094	-0.3403	0.1683	-0.0027	-0.0237	-0.0081	20.8172	16.3611	-7.3375	0.3425	0.5981	0.3461	-0.6365
6.69	-9.5051	-0.3390	0.1736	-0.0024	-0.0245	-0.0076	20.8639	16.4090	-7.4494	0.3425	0.5981	0.3460	-0.6366
6.7	-9.4985	-0.3349	0.1780	-0.0075	-0.0250	-0.0078	20.6688	16.4764	-7.4432	0.3426	0.5980	0.3459	-0.6367
6.71	-9.4951	-0.3452	0.1759	-0.0046	-0.0162	-0.0099	20.5190	16.4885	-7.4472	0.3426	0.5980	0.3458	-0.6367
6.72	-9.4967	-0.3480	0.1768	-0.0111	-0.0137	-0.0090	20.6745	16.4371	-7.4340	0.3427	0.5979	0.3458	-0.6368
6.73	-9.5021	-0.3523	0.1745	-0.0152	-0.0157	-0.0116	20.5516	16.6305	-7.5630	0.3428	0.5979	0.3457	-0.6368
6.74	-9.4994	-0.3577	0.1732	-0.0120	-0.0175	-0.0107	20.7265	16.5671	-7.3676	0.3428	0.5978	0.3457	-0.6368
6.75	-9.5067	-0.3604	0.1786	-0.0075	-0.0161	-0.0106	20.7572	16.2358	-7.3502	0.3429	0.5978	0.3456	-0.6369
6.76	-9.5210	-0.3683	0.1824	-0.0078	-0.0162	-0.0105	20.7348	16.4250	-7.3346	0.3429	0.5978	0.3456	-0.6369
6.77	-9.5114	-0.3699	0.1897	-0.0113	-0.0118	-0.0124	20.7624	16.2485	-7.3801	0.3430	0.5977	0.3455	-0.6369
6.78	-9.5113	-0.3703	0.1829	-0.0122	-0.0123	-0.0135	20.7148	16.3676	-7.4521	0.3430	0.5977	0.3455	-0.6370
6.79	-9.5086	-0.3774	0.1859	-0.0100	-0.0130	-0.0160	20.8462	16.3906	-7.4502	0.3431	0.5977	0.3455	-0.6370
6.8	-9.5082	-0.3740	0.1808	-0.0071	-0.0121	-0.0166	20.8194	16.4789	-7.4163	0.3431	0.5976	0.3454	-0.6370
6.81	-9.5003	-0.3737	0.1867	-0.0148	-0.0120	-0.0159	20.6078	16.3478	-7.3733	0.3431	0.5976	0.3454	-0.6371
6.82	-9.4989	-0.3743	0.1892	-0.0175	-0.0127	-0.0147	20.6909	16.4532	-7.6872	0.3432	0.5975	0.3454	-0.6371
6.83	-9.5004	-0.3724	0.1914	-0.0095	-0.0126	-0.0143	20.5624	16.4920	-7.4419	0.3433	0.5975	0.3454	-0.6371
6.84	-9.4975	-0.3775	0.1877	-0.0156	-0.0103	-0.0181	20.5580	16.4495	-7.3100	0.3433	0.5974	0.3454	-0.6371
6.85	-9.4952	-0.3780	0.1837	-0.0097	-0.0122	-0.0141	20.7749	16.3641	-7.4315	0.3433	0.5974	0.3454	-0.6372
6.86	-9.4929	-0.3889	0.1787	-0.0088	-0.0050	-0.0146	20.8739	16.4039	-7.6804	0.3433	0.5974	0.3453	-0.6372
6.87	-9.5022	-0.3841	0.1726	-0.0160	-0.0028	-0.0163	20.7235	16.3628	-7.3118	0.3434	0.5974	0.3453	-0.6372
6.88	-9.5092	-0.3788	0.1711	-0.0109	0.0023	-0.0218	20.6287	16.5594	-7.3620	0.3434	0.5974	0.3454	-0.6372
6.89	-9.5226	-0.3796	0.1680	-0.0019	0.0019	-0.0161	20.5155	16.6987	-7.3576	0.3434	0.5974	0.3453	-0.6372
6.9	-9.5376	-0.3759	0.1679	-0.0099	-0.0007	-0.0160	20.7894	16.5408	-7.3611	0.3434	0.5974	0.3453	-0.6372
6.91	-9.5467	-0.3699	0.1632	-0.0093	0.0004	-0.0159	21.4305	16.6869	-7.1383	0.3434	0.5974	0.3453	-0.6372
6.92	-9.5415	-0.3733	0.1665	-0.0095	0.0028	-0.0194	21.6968	16.7966	-7.0638	0.3434	0.5974	0.3453	-0.6372
6.93	-9.5432	-0.3806	0.1624	-0.0114	-0.0006	-0.0177	20.7300	16.5868	-7.2141	0.3434	0.5974	0.3453	-0.6372
6.94	-9.5431	-0.3870	0.1642	-0.0084	-0.0035	-0.0090	20.6421	16.5256	-7.3955	0.3434	0.5974	0.3453	-0.6372
6.95	-9.5335	-0.3891	0.1766	-0.0044	-0.0041	-0.0112	20.8517	16.2857	-7.5092	0.3434	0.5974	0.3453	-0.6372
6.96	-9.5636	-0.3888	0.1903	-0.0085	-0.0081	-0.0102	20.8461	16.4346	-7.6181	0.3435	0.5974	0.3452	-0.6372
6.97	-9.5864	-0.3918	0.1796	-0.0052	-0.0130	-0.0072	20.7421	16.5385	-7.5402	0.3435	0.5974	0.3451	-0.6372
6.98	-9.5346	-0.3913	0.1841	-0.0047	-0.0126	-0.0092	20.7613	16.3699	-7.6407	0.3435	0.5974	0.3451	-0.6372
6.99	-9.5107	-0.3993	0.1871	-0.0060	-0.0183	-0.0081	20.9732	16.3000	-7.4425	0.3436	0.5973	0.3450	-0.6373
7	-9.5046	-0.4018	0.1870	-0.0062	-0.0208	-0.0073	20.6466	16.3882	-7.2236	0.3437	0.5973	0.3449	-0.6373
7.01	-9.4901	-0.3910	0.1965	-0.0026	-0.0161	-0.0020	20.6535	16.4346	-7.5039	0.3437	0.5973	0.3448	-0.6373
7.02	-9.5006	-0.3698	0.1914	0.0002	-0.0088	-0.0041	20.7736	16.2617	-7.7436	0.3437	0.5973	0.3448	-0.6374
7.03	-9.4929	-0.3634	0.1950	0.0035	-0.0047	-0.0063	20.8756	16.4242	-7.5240	0.3438	0.5973	0.3447	-0.6374
7.04	-9.4859	-0.3567	0.1912	0.0138	-0.0001	-0.0056	20.7351	16.6092	-7.5534	0.3437	0.5974	0.3446	-0.6374
7.05	-9.4919	-0.3529	0.1849	0.0075	0.0075	-0.0075	20.7593	16.4814	-7.5942	0.3437	0.5974	0.3445	-0.6374
7.06	-9.4927	-0.3384	0.1824	0.0087	0.0010	-0.0078	20.8466	16.4983	-7.4442	0.3437	0.5975	0.3444	-0.6374
7.07	-9.4986	-0.3218	0.1835	0.0130	-0.0023	-0.0074	20.6118	16.5129	-7.3024	0.3436	0.5975	0.3443	-0.6374
7.08	-9.5057	-0.3078	0.1836	0.0154	0.0056	-0.0091	20.4294	16.4037	-7.3919	0.3436	0.5976	0.3442	-0.6374
7.09	-9.5105	-0.2929	0.1827	0.0111	-0.0017	-0.0111	20.7581	16.4165	-7.5013	0.3436	0.5977	0.3441	-0.6375
7.1	-9.5239	-0.2840	0.1835	0.0095	0.0034	-0.0183	20.6459	16.2202	-7.4958	0.3435	0.5977	0.3441	-0.6375
7.11	-9.5180	-0.2768	0.1895	0.0056	0.0059	-0.0206	20.5169	16.3573	-7.4053	0.3434	0.5977	0.3440	-0.6375
7.12	-9.5193	-0.2724	0.1831	-0.0106	-0.0011	-0.0198	20.7642	16.5512	-7.3948	0.3434	0.5977	0.3441	-0.6375
7.13	-9.5277	-0.2784	0.1816	-0.0133	0.0039	-0.0201	20.8984	16.3103	-7.5110	0.3434	0.5977	0.3441	-0.6375
7.14	-9.5431	-0.2817	0.1695	-0.0211	0.0016	-0.0190	20.8714	16.1976	-7.4684	0.3434	0.5977	0.3441	-0.6375
7.15	-9.5231	-0.2952	0.1648	-0.0265	0.0070	-0.0191	20.8138	16.3327	-7.4894	0.3435	0.5977	0.3442	-0.6374
7.16	-9.5139	-0.3029	0.1693	-0.0327	0.0017	-0.0247	20.9357	16.2201	-7.4815	0.3435	0.5977	0.3443	-0.6374
7.17	-9.5438	-0.3140	0.1566	-0.0318	-0.0025	-0.0206	20.7957	16.3914	-7.6310	0.3436	0.5976	0.3444	-0.6373
7.18	-9.5482	-0.3406	0.1494	-0.0320	-0.0019	-0.0206	20.8280	16.4197	-7.4872	0.3436	0.5976	0.3445	-0.6373
7.19	-9.5314	-0.3602	0.1526	-0.0335	-0.0075	-0.0218	20.4898	16.4016	-7.4066	0.3437	0.5975	0.3445	-0.6373
7.2	-9.5260	-0.3872	0.1554	-0.0349	-0.0084	-0.0275	20.6605	16.3027	-7.4776	0.3438	0.5974	0.3446	-0.6373
7.21	-9.5405	-0.4032	0.1632	-0.0323	-0.0041	-0.0233	20.7313	16.3281	-7.3495	0.3438	0.5974	0.3447	-0.6373
7.22	-9.5462	-0.4056	0.1645	-0.0318	-0.0155	-0.0154	20.5417	16.3551	-7.4933	0.3439	0.5973	0.3448	-0.6373
7.23	-9.5234	-0.4157	0.1787	-0.0322	-0.0126	-0.0161	20.6691	16.7686	-7.4009	0.3440	0.5972	0.3448	-0.6373
7.24	-9.5182	-0.4204	0.1859	-0.0313	-0.0115	-0.0232	20.5347	16.5447	-7.6717	0.3441	0.5971	0.3449	-0.6373
7.25	-9.5185	-0.4293	0.1801	-0.0323	-0.0116	-0.0182	20.5826	16.5402	-7.4231	0.3442	0.5971	0.3450	-0.6373
7.26	-9.4995	-0.4337	0.1852	-0.0227	-0.0040	-0.0197	20.5562	16.6070	-7.3713	0.3442	0.5970	0.3450	-0.6372
7.27	-9.4965	-0.4303	0.1805	-0.0109	-0.0035	-0.0201	20.6867	16.5783	-7.4433	0.3442	0.5970	0.3450	-0.6372
7.28	-9.4994	-0.4216	0.1809	-0.0069	-0.0047	-0.0194	20.4546	16.5634	-7.4793	0.3442	0.5970	0.3450	-0.6373
7.29	-9.5048	-0.4100	0.1814	-0.0053	-0.0023	-0.0141	20.5670	16.3870	-7.2622	0.3442	0.5970	0.3450	-0.6373
7.3	-9.5099	-0.3976	0.1791	-0.0023	0.0031	-0.0130	20.5592	16.4225	-7.5296	0.3442	0.5970	0.3450	-0.6373
7.31	-9.5086	-0.3885	0.1744	0.0057	0.0006	-0.0108	20.5933	16.6553	-7.4572	0.3442	0.5971	0.3449	-0.6373
7.32	-9.5065	-0.3828	0.1750	0.0108	0.0011	-0.0100	20.7144	16.4574	-7.3499	0.3441	0.5971	0.3448	-0.6373
7.33	-9.5212	-0.3793	0.1768	0.0048	0.0036	-0.0119	20.9248	16.2928	-7.5152	0.3441	0.5972	0.3448	-0.6373
7.34	-9.5251	-0.3684	0.1792	0.0078	0.0059	-0.0146	20.9297	16.4565	-7.4437	0.3440	0.5972	0.3447	-0.6373
7.35	-9.5241	-0.3615	0.1809	0.0031	0.0054	-0.0175	20.7505	16.3450	-7.4164	0.3440	0.5973	0.3447	-0.6373
7.36	-9.5370	-0.3566	0.1711	0.0066	-0.0002	-0.0082	20.7411	16.3223	-7.5342	0.3440	0.5973	0.3446	-0.6373
7.37	-9.5402	-0.3562	0.1789	0.0022	0.0009	-0.0081	20.8316	16.2317	-7.3434	0.3440	0.5974	0.3446	-0.6373
7.38	-9.5431	-0.3534	0.1744	-0.0048	-0.0032	-0.0078	20.5996	16.1107	-7.5716	0.3440	0.5974	0.3445	-0.6373
7.39	-9.5390	-0.3508	0.1753	0.0031	0.0005	-0.0076	20.7086	16.3957	-7.5237	0.3440	0.5974	0.3444	-0.6373
7.4	-9.5356	-0.3472	0.1747	-0.0054	-0.0037	-0.0079	20.9034	16.4120	-7.4061	0.3440	0.5974	0.3444	-0.6373
7.41	-9.5365	-0.3459	0.1735	0.0032	-0.0083	-0.0097	21.1627	16.4242	-7.2469	0.3440	0.5974	0.3443	-0.6373
7.42	-9.5375	-0.3407	0.1760	0.0023	-0.0017	-0.0084	21.1694	16.5513	-7.1472	0.3440	0.5975	0.3443	-0.6373
7.43	-9.5385	-0.3343	0.1667	-0.0078	-0.0054	-0.0108	20.9223	16.6057	-7.4303	0.3440	0.5975	0.3442	-0.6373
7.44	-9.5400	-0.3301	0.1729	-0.0028	-0.0073	-0.0109	20.7968	16.6882	-7.2918	0.3440	0.5975	0.3442	-0.6373
7.45	-9.5368	-0.3247	0.1809	-0.0026	-0.0096	-0.0064	20.7157	16.5221	-7.3908	0.3440	0.5975	0.3441	-0.6374
7.46	-9.5290	-0.3173	0.1798	0.0006	-0.0114	-0.0130	20.7134	16.4046	-7.6267	0.3441	0.5975	0.3441	-0.6374
7.47	-9.5224	-0.3132	0.1916	-0.0060	-0.0091	-0.0116	20.5258	16.2513	-7.2957	0.3441	0.5975	0.3440	-0.6374
7.48	-9.5125	-0.3075	0.1944	-0.0021	-0.0125	-0.0157	20.6796	16.3121	-7.4939	0.3441	0.5974	0.3440	-0.6375
7.49	-9.5046	-0.3022	0.2078	-0.0030	-0.0162	-0.0145	20.7557	16.4763	-7.7919	0.3441	0.5974	0.3439	-0.6375
7.5	-9.5073	-0.3042	0.2138	-0.0062	-0.0186	-0.0155	20.7230	16.4913	-7.6235	0.3441	0.5974	0.3439	-0.6376
7.51	-9.4975	-0.3005	0.2142	-0.0109	-0.0122	-0.0111	20.7554	16.5896	-7.6252	0.3442	0.5973	0.3438	-0.6376
7.52	-9.4920	-0.3051	0.2143	-0.0144	-0.0114	-0.0147	20.7061	16.1429	-7.3918	0.3442	0.5973	0.3438	-0.6376
7.53	-9.4931	-0.3111	0.2119	-0.0114	-0.0071	-0.0145	20.8048	16.3017	-7.4604	0.3442	0.5973	0.3438	-0.6376
7.54	-9.5018	-0.3130	0.2100	-0.0151	-0.0006	-0.0137	20.7859	16.4117	-7.7193	0.3443	0.5973	0.3438	-0.6376
7.55	-9.4984	-0.3220	0.2078	-0.0145	0.0002	-0.0152	20.4984	16.1332	-7.6992	0.3443	0.5973	0.3438	-0.6376
7.56	-9.5058	-0.3296	0.1987	-0.0261	-0.0080	-0.0192	20.7449	16.3641	-7.6054	0.3443	0.5972	0.3439	-0.6376
7.57	-9.5174	-0.3398	0.1978	-0.0272	-0.0041	-0.0190	20.6959	16.3348	-7.6053	0.3444	0.5972	0.3439	-0.6376
7.58	-9.5107	-0.3451	0.1960	-0.0252	-0.0055	-0.0192	20.8763	16.4760	-7.7407	0.3444	0.5971	0.3440	-0.6375
7.59	-9.5147	-0.3536	0.1898	-0.0308	0.0007	-0.0145	20.6375	16.4105	-7.4475	0.3445	0.5971	0.3440	-0.6375
7.6	-9.5186	-0.3560	0.1974	-0.0295	-0.0032	-0.0181	20.6040	16.3870	-7.6699	0.3446	0.5971	0.3441	-0.6375
7.61	-9.5289	-0.3571	0.1903	-0.0114	-0.0055	-0.0233	20.5878	16.4886	-7.6691	0.3446	0.5970	0.3441	-0.6375
7.62	-9.5241	-0.3645	0.1906	-0.0204	0.0010	-0.0251	20.5492	16.3365	-7.5111	0.3446	0.5970	0.3442	-0.6375
7.63	-9.5258	-0.3664	0.1863	-0.0139	0.0029	-0.0286	20.9161	16.3777	-7.5081	0.3445	0.5970	0.3443	-0.6375
7.64	-9.5345	-0.3666	0.1831	-0.0210	-0.0029	-0.0265	20.7474	16.3575	-7.4059	0.3445	0.5970	0.3443	-0.6375
7.65	-9.5298	-0.3685	0.1847	-0.0077	-0.0010	-0.0253	20.6409	16.3681	-7.4575	0.3445	0.5969	0.3444	-0.6375
7.66	-9.5344	-0.3711	0.1797	-0.0145	0.0016	-0.0228	20.7638	16.3600	-7.3171	0.3445	0.5969	0.3444	-0.6375
7.67	-9.5281	-0.3702	0.1824	-0.0159	-0.0022	-0.0221	20.8478	16.6756	-7.5262	0.3445	0.5969	0.3444	-0.6375
7.68	-9.5220	-0.3681	0.1781	-0.0057	0.0011	-0.0204	20.8264	16.4779	-7.5330	0.3445	0.5969	0.3444	-0.6375
7.69	-9.5146	-0.3657	0.1754	-0.0053	-0.0001	-0.0128	20.7385	16.3599	-7.5267	0.3445	0.5969	0.3444	-0.6375
7.7	-9.5180	-0.3607	0.1789	-0.0039	0.0034	-0.0130	20.7289	16.3362	-7.5288	0.3445	0.5970	0.3444	-0.6375
7.71	-9.5213	-0.3608	0.1797	-0.0043	-0.0053	-0.0111	20.7455	16.2629	-7.3264	0.3445	0.5970	0.3444	-0.6375
7.72	-9.5276	-0.3509	0.1806	-0.0060	-0.0065	-0.0088	20.7224	16.2706	-7.4327	0.3445	0.5970	0.3443	-0.6375
7.73	-9.5265	-0.3500	0.1857	-0.0066	-0.0055	-0.0100	20.7576	16.3011	-7.4303	0.3445	0.5970	0.3443	-0.6375
7.74	-9.5175	-0.3471	0.1956	-0.0040	-0.0073	-0.0140	20.6896	16.3558	-7.4601	0.3445	0.5970	0.3443	-0.6375
7.75	-9.5308	-0.3401	0.1892	-0.0058	-0.0030	-0.0136	20.6336	16.4462	-7.6122	0.3445	0.5970	0.3442	-0.6375
7.76	-9.5031	-0.3385	0.1974	-0.0055	0.0079	-0.0108	20.6490	16.3587	-7.7177	0.3445	0.5970	0.3442	-0.6375
7.77	-9.5133	-0.3381	0.1896	-0.0068	0.0059	-0.0198	20.6559	16.2706	-7.7106	0.3445	0.5971	0.3442	-0.6374
7.78	-9.5076	-0.3397	0.1863	-0.0060	0.0032	-0.0146	20.7862	16.4005	-7.5321	0.3445	0.5971	0.3442	-0.6374
7.79	-9.5076	-0.3426	0.1999	-0.0063	0.0043	-0.0167	20.6341	16.3437	-7.5434	0.3445	0.5971	0.3442	-0.6374
7.8	-9.5610	-0.3328	0.1985	-0.0064	0.0008	-0.0184	20.6607	16.3708	-7.4101	0.3444	0.5971	0.3442	-0.6374
7.81	-9.5640	-0.3277	0.2078	-0.0111	0.0013	-0.0194	20.6234	16.5051	-7.4757	0.3444	0.5971	0.3442	-0.6374
7.82	-9.5038	-0.3371	0.2076	-0.0059	-0.0121	-0.0143	20.7206	16.5263	-7.3478	0.3445	0.5971	0.3442	-0.6374
7.83	-9.4924	-0.3376	0.2125	-0.0036	-0.0039	-0.0209	20.7411	16.3073	-7.4231	0.3444	0.5971	0.3442	-0.6375
7.84	-9.4946	-0.3571	0.1988	-0.0154	-0.0028	-0.0153	20.7419	16.4354	-7.6667	0.3444	0.5971	0.3442	-0.6375
7.85	-9.5074	-0.3270	0.2093	-0.0065	-0.0050	-0.0088	20.5492	16.5340	-7.6072	0.3445	0.5971	0.3442	-0.6374
7.86	-9.5033	-0.3167	0.2015	-0.0051	0.0013	-0.0103	20.6422	16.3536	-7.6298	0.3445	0.5971	0.3442	-0.6374
7.87	-9.5183	-0.3229	0.1977	-0.0106	0.0005	-0.0068	20.6372	16.3467	-7.6223	0.3445	0.5972	0.3441	-0.6374
7.88	-9.5049	-0.3360	0.1806	-0.0080	0.0013	-0.0134	20.5613	16.4121	-7.4801	0.3445	0.5972	0.3441	-0.6374
7.89	-9.4938	-0.3129	0.1840	-0.0086	0.0068	-0.0078	20.7012	16.4112	-7.6336	0.3445	0.5972	0.3441	-0.6374
7.9	-9.5208	-0.3342	0.1692	-0.0056	0.0158	-0.0100	20.9660	16.3410	-7.4614	0.3445	0.5973	0.3441	-0.6373
7.91	-9.5243	-0.3272	0.1723	-0.0067	0.0087	-0.0185	21.3645	16.3819	-7.2941	0.3445	0.5973	0.3441	-0.6373
7.92	-9.5315	-0.3199	0.1661	-0.0054	-0.0006	-0.0169	21.4713	16.3833	-7.2908	0.3445	0.5973	0.3441	-0.6373
7.93	-9.5420	-0.3158	0.1650	-0.0054	0.0068	-0.0193	21.1810	16.4630	-7.2407	0.3444	0.5974	0.3441	-0.6373
7.94	-9.5348	-0.3110	0.1693	-0.0055	0.0008	-0.0290	20.7868	16.4310	-7.3012	0.3444	0.5974	0.3442	-0.6373
7.95	-9.5268	-0.3153	0.1704	-0.0076	0.0044	-0.0324	20.6068	16.3408	-7.4029	0.3443	0.5974	0.3442	-0.6373
7.96	-9.5220	-0.3207	0.1767	-0.0132	0.0034	-0.0278	20.8866	16.3297	-7.4322	0.3443	0.5973	0.3443	-0.6373
7.97	-9.5298	-0.3264	0.1673	-0.0111	0.0056	-0.0265	20.6719	16.3111	-7.6003	0.3442	0.5973	0.3443	-0.6373
7.98	-9.5479	-0.3313	0.1644	-0.0147	-0.0001	-0.0269	20.4502	16.4389	-7.5824	0.3442	0.5973	0.3444	-0.6373
7.99	-9.5244	-0.3416	0.1511	-0.0267	0.0036	-0.0296	20.6364	16.6626	-7.4408	0.3442	0.5973	0.3445	-0.6373
8	-9.4930	-0.3473	0.1581	-0.0267	0.0080	-0.0247	20.7226	16.4538	-7.3854	0.3442	0.5973	0.3446	-0.6372
8.01	-9.5518	-0.3407	0.1454	-0.0293	0.0091	-0.0268	20.7824	16.2905	-7.4080	0.3442	0.5973	0.3447	-0.6372
8.02	-9.5593	-0.3648	0.1397	-0.0312	0.0045	-0.0283	20.5849	16.5945	-7.5124	0.3442	0.5972	0.3448	-0.6371
8.03	-9.5478	-0.3758	0.1425	-0.0312	-0.0080	-0.0285	20.4527	16.5156	-7.4935	0.3443	0.5972	0.3449	-0.6371
8.04	-9.5387	-0.3918	0.1486	-0.0316	-0.0090	-0.0331	20.8067	16.2733	-7.4967	0.3443	0.5971	0.3450	-0.6371
8.05	-9.5447	-0.4069	0.1501	-0.0163	-0.0071	-0.0216	20.4165	16.4687	-7.4027	0.3443	0.5970	0.3450	-0.6371
8.06	-9.5440	-0.4016	0.1499	-0.0212	-0.0125	-0.0176	20.4141	16.4705	-7.2413	0.3444	0.5970	0.3451	-0.6371
8.07	-9.5180	-0.3946	0.1697	-0.0293	-0.0192	-0.0180	20.5407	16.3951	-7.2542	0.3445	0.5969	0.3451	-0.6372
8.08	-9.5107	-0.3912	0.1709	-0.0216	-0.0163	-0.0163	20.7535	16.4328	-7.4234	0.3445	0.5968	0.3451	-0.6372
8.09	-9.5163	-0.3893	0.1655	-0.0226	-0.0168	-0.0204	20.7509	16.1897	-7.4944	0.3446	0.5967	0.3452	-0.6372
8.1	-9.4984	-0.3906	0.1813	-0.0070	-0.0145	-0.0222	20.7503	16.6094	-7.4992	0.3446	0.5967	0.3452	-0.6372
8.11	-9.5097	-0.3857	0.1683	-0.0066	-0.0086	-0.0220	20.7397	16.4574	-7.4906	0.3446	0.5967	0.3451	-0.6373
8.12	-9.5000	-0.3783	0.1724	-0.0107	-0.0115	-0.0189	20.8539	16.2882	-7.4972	0.3446	0.5966	0.3451	-0.6373
8.13	-9.5059	-0.3692	0.1753	-0.0058	-0.0109	-0.0199	20.6919	16.3668	-7.4764	0.3446	0.5966	0.3451	-0.6373
8.14	-9.5001	-0.3675	0.1772	-0.0071	-0.0069	-0.0166	20.6479	16.2278	-7.3145	0.3446	0.5966	0.3451	-0.6374
8.15	-9.5016	-0.3694	0.1758	-0.0037	0.0029	-0.0195	20.6663	16.0006	-7.2830	0.3445	0.5966	0.3451	-0.6374
8.16	-9.5024	-0.3744	0.1661	-0.0066	-0.0019	-0.0101	20.5529	16.4346	-7.4388	0.3446	0.5966	0.3451	-0.6374
8.17	-9.5021	-0.3783	0.1659	-0.0159	-0.0029	-0.0150	20.4321	16.6331	-7.3568	0.3446	0.5966	0.3451	-0.6373
8.18	-9.5169	-0.3861	0.1597	-0.0064	0.0003	-0.0177	20.5882	16.3009	-7.2787	0.3446	0.5966	0.3451	-0.6373
8.19	-9.5128	-0.3921	0.1671	-0.0091	-0.0009	-0.0128	20.5364	16.4248	-7.4126	0.3446	0.5966	0.3451	-0.6373
8.2	-9.5299	-0.3921	0.1602	-0.0066	0.0045	-0.0164	20.5252	16.5279	-7.5338	0.3446	0.5967	0.3451	-0.6373
8.21	-9.5403	-0.3922	0.1570	-0.0022	0.0007	-0.0189	20.5249	16.6495	-7.4341	0.3445	0.5967	0.3451	-0.6373
8.22	-9.5337	-0.3922	0.1618	0.0041	-0.0013	-0.0176	20.4757	16.3929	-7.3819	0.3445	0.5967	0.3451	-0.6373
8.23	-9.5381	-0.3868	0.1615	-0.0021	0.0012	-0.0181	20.5492	16.5352	-7.5196	0.3445	0.5967	0.3451	-0.6373
8.24	-9.5488	-0.3821	0.1570	-0.0013	0.0004	-0.0114	20.5308	16.5820	-7.6355	0.3444	0.5968	0.3450	-0.6373
8.25	-9.5472	-0.3676	0.1523	0.0050	-0.0056	-0.0159	20.7510	16.4184	-7.4869	0.3444	0.5968	0.3450	-0.6374
8.26	-9.5531	-0.3526	0.1521	0.0106	-0.0022	-0.0117	20.8621	16.3264	-7.5768	0.3444	0.5968	0.3449	-0.6374
8.27	-9.5574	-0.3410	0.1588	0.0121	-0.0086	-0.0126	20.7709	16.3247	-7.8251	0.3443	0.5968	0.3448	-0.6374
8.28	-9.5528	-0.3259	0.1624	0.0128	-0.0066	-0.0131	20.5053	16.4928	-7.7153	0.3443	0.5969	0.3447	-0.6375
8.29	-9.5448	-0.3130	0.1671	0.0073	-0.0082	-0.0132	20.8988	16.5019	-7.5905	0.3443	0.5969	0.3447	-0.6375
8.3	-9.5250	-0.3071	0.1804	0.0064	-0.0126	-0.0122	20.7071	16.5103	-7.5853	0.3442	0.5969	0.3446	-0.6376
8.31	-9.5284	-0.2991	0.1785	-0.0014	-0.0111	-0.0106	20.5203	16.3455	-7.4429	0.3442	0.5969	0.3445	-0.6376
8.32	-9.5201	-0.2995	0.1833	-0.0059	-0.0181	-0.0139	20.6429	16.3378	-7.3689	0.3443	0.5969	0.3445	-0.6376
8.33	-9.5114	-0.2966	0.1944	-0.0071	-0.0161	-0.0140	20.7396	16.2329	-7.4891	0.3443	0.5968	0.3444	-0.6377
8.34	-9.5187	-0.3002	0.1983	-0.0114	-0.0159	-0.0146	20.7747	16.2487	-7.7213	0.3443	0.5968	0.3444	-0.6377
8.35	-9.5118	-0.3052	0.1993	-0.0116	-0.0164	-0.0176	20.6840	16.3729	-7.6272	0.3444	0.5967	0.3444	-0.6378
8.36	-9.5100	-0.3135	0.2004	-0.0240	-0.0131	-0.0171	20.6634	16.5094	-7.5045	0.3444	0.5967	0.3444	-0.6378
8.37	-9.5030	-0.3221	0.2081	-0.0306	-0.0133	-0.0185	20.6431	16.4805	-7.4755	0.3445	0.5966	0.3445	-0.6378
8.38	-9.5058	-0.3317	0.1985	-0.0285	-0.0129	-0.0183	20.4595	16.6742	-7.6665	0.3446	0.5965	0.3445	-0.6378
8.39	-9.4993	-0.3433	0.1937	-0.0308	-0.0077	-0.0222	20.6540	16.5994	-7.4460	0.3446	0.5964	0.3446	-0.6378
8.4	-9.5102	-0.3490	0.1956	-0.0264	-0.0055	-0.0211	20.8001	16.6736	-7.3278	0.3447	0.5964	0.3447	-0.6377
8.41	-9.5117	-0.3595	0.1912	-0.0279	-0.0044	-0.0197	21.1036	16.7690	-7.2647	0.3447	0.5964	0.3447	-0.6377
8.42	-9.5120	-0.3622	0.1928	-0.0235	0.0016	-0.0233	21.2000	16.6891	-7.1890	0.3447	0.5963	0.3448	-0.6377
8.43	-9.5239	-0.3671	0.1904	-0.0147	-0.0049	-0.0190	20.7229	16.6856	-7.3136	0.3447	0.5963	0.3448	-0.6377
8.44	-9.5289	-0.3739	0.1917	-0.0139	-0.0101	-0.0177	20.7140	16.4512	-7.2970	0.3448	0.5963	0.3448	-0.6377
8.45	-9.5346	-0.3786	0.1900	-0.0138	-0.0072	-0.0186	20.6906	16.4053	-7.5732	0.3448	0.5962	0.3449	-0.6377
8.46	-9.5320	-0.3803	0.1898	-0.0073	-0.0132	-0.0214	20.9799	16.3573	-7.6497	0.3448	0.5962	0.3448	-0.6378
8.47	-9.5262	-0.3786	0.1959	-0.0114	-0.0139	-0.0194	20.9342	16.3843	-7.4070	0.3448	0.5962	0.3448	-0.6378
8.48	-9.5205	-0.3723	0.1926	-0.0108	-0.0108	-0.0186	20.6918	16.3635	-7.5431	0.3448	0.5961	0.3448	-0.6378
8.49	-9.5115	-0.3695	0.1966	-0.0102	-0.0132	-0.0182	20.7188	16.3803	-7.5986	0.3448	0.5961	0.3448	-0.6379
8.5	-9.5038	-0.3705	0.2012	-0.0123	-0.0126	-0.0152	20.5643	16.3538	-7.4529	0.3449	0.5961	0.3448	-0.6379
8.51	-9.5057	-0.3670	0.1954	-0.0102	-0.0073	-0.0166	20.8633	16.4626	-7.6490	0.3449	0.5960	0.3448	-0.6379
8.52	-9.5033	-0.3668	0.1896	-0.0072	-0.0041	-0.0133	20.7652	16.5753	-7.5642	0.3449	0.5960	0.3448	-0.6379
8.53	-9.5082	-0.3667	0.1919	-0.0101	-0.0065	-0.0150	20.5718	16.5061	-7.6985	0.3449	0.5960	0.3448	-0.6379
8.54	-9.5162	-0.3554	0.1976	-0.0065	-0.0050	-0.0163	20.7543	16.3596	-7.6231	0.3449	0.5960	0.3448	-0.6379
8.55	-9.5222	-0.3588	0.1973	-0.0127	-0.0063	-0.0127	20.6082	16.3849	-7.5068	0.3449	0.5960	0.3448	-0.6379
8.56	-9.5278	-0.3574	0.1985	-0.0060	-0.0049	-0.0169	20.5304	16.3444	-7.4863	0.3449	0.5960	0.3448	-0.6379
8.57	-9.5366	-0.3487	0.1982	-0.0099	-0.0059	-0.0187	20.5570	16.4452	-7.6314	0.3449	0.5960	0.3448	-0.6379
8.58	-9.5151	-0.3545	0.2003	-0.0166	-0.0058	-0.0101	20.5332	16.4540	-7.8294	0.3450	0.5960	0.3448	-0.6379
8.59	-9.5107	-0.3541	0.2009	-0.0085	-0.0068	-0.0120	20.6734	16.4751	-7.6593	0.3450	0.5960	0.3447	-0.6379
8.6	-9.5123	-0.3628	0.1925	-0.0078	-0.0016	-0.0147	20.7527	16.4156	-7.7294	0.3450	0.5960	0.3447	-0.6379
8.61	-9.5096	-0.3573	0.1964	-0.0089	-0.0052	-0.0148	20.6604	16.5953	-7.6295	0.3450	0.5960	0.3447	-0.6379
8.62	-9.5370	-0.3553	0.2091	-0.0085	-0.0070	-0.0140	20.5189	16.2146	-7.4863	0.3450	0.5960	0.3447	-0.6379
8.63	-9.5664	-0.3629	0.2078	-0.0053	-0.0016	-0.0099	20.5783	16.2645	-7.5402	0.3450	0.5960	0.3447	-0.6379
8.64	-9.5404	-0.3606	0.2065	-0.0120	-0.0133	-0.0158	20.6752	16.5603	-7.6536	0.3451	0.5959	0.3447	-0.6379
8.65	-9.4975	-0.3691	0.2082	-0.0077	-0.0137	-0.0177	20.5358	16.3077	-7.4928	0.3451	0.5959	0.3447	-0.6380
8.66	-9.5002	-0.3744	0.2144	-0.0114	-0.0110	-0.0108	20.5521	16.5323	-7.5360	0.3451	0.5959	0.3446	-0.6380
8.67	-9.5110	-0.3625	0.2083	-0.0083	-0.0116	-0.0080	20.7016	16.3530	-7.7912	0.3451	0.5959	0.3446	-0.6380
8.68	-9.5079	-0.3537	0.2001	-0.0053	-0.0096	-0.0081	20.7383	16.5028	-7.5057	0.3452	0.5959	0.3445	-0.6380
8.69	-9.5095	-0.3470	0.2040	-0.0099	-0.0059	-0.0083	20.7225	16.6663	-7.6205	0.3452	0.5959	0.3445	-0.6380
8.7	-9.5066	-0.3468	0.1944	-0.0134	-0.0055	-0.0106	20.6109	16.3815	-7.5921	0.3452	0.5959	0.3445	-0.6380
8.71	-9.5001	-0.3507	0.1898	-0.0081	0.0010	-0.0142	20.6663	16.5525	-7.6604	0.3452	0.5959	0.3445	-0.6380
8.72	-9.4990	-0.3456	0.1811	-0.0096	-0.0051	-0.0149	20.5367	16.4806	-7.7366	0.3453	0.5959	0.3445	-0.6380
8.73	-9.4986	-0.3412	0.1828	-0.0063	-0.0065	-0.0145	20.6555	16.3275	-7.5633	0.3453	0.5959	0.3445	-0.6380
8.74	-9.5155	-0.3287	0.1872	-0.0061	0.0079	-0.0190	20.6189	16.5759	-7.3602	0.3452	0.5959	0.3445	-0.6380
8.75	-9.5219	-0.3255	0.1884	-0.0035	0.0065	-0.0218	20.6786	16.4159	-7.5342	0.3452	0.5959	0.3445	-0.6380
8.76	-9.5139	-0.3168	0.1933	-0.0047	0.0030	-0.0259	20.4224	16.2680	-7.4022	0.3451	0.5959	0.3445	-0.6380
8.77	-9.5064	-0.3175	0.1858	-0.0078	0.0103	-0.0323	20.6134	16.3797	-7.4485	0.3451	0.5960	0.3446	-0.6380
8.78	-9.5007	-0.3266	0.1846	-0.0109	0.0080	-0.0314	20.4212	16.2492	-7.5323	0.3450	0.5960	0.3447	-0.6380
8.79	-9.5145	-0.3380	0.1764	-0.0106	0.0044	-0.0236	20.6978	16.5949	-7.5112	0.3450	0.5960	0.3447	-0.6380
8.8	-9.5425	-0.3421	0.1671	-0.0265	0.0114	-0.0234	20.7448	16.4093	-7.5117	0.3450	0.5960	0.3448	-0.6379
8.81	-9.5347	-0.3506	0.1566	-0.0202	0.0095	-0.0259	20.5944	16.5311	-7.5290	0.3449	0.5960	0.3449	-0.6379
8.82	-9.5161	-0.3555	0.1505	-0.0292	0.0067	-0.0316	20.6574	16.4890	-7.4805	0.3449	0.5960	0.3450	-0.6378
8.83	-9.5396	-0.3565	0.1519	-0.0286	0.0080	-0.0212	20.6902	16.4508	-7.7037	0.3449	0.5959	0.3451	-0.6378
8.84	-9.5638	-0.3782	0.1464	-0.0289	0.0113	-0.0316	20.7801	16.4467	-7.8089	0.3449	0.5959	0.3453	-0.6377
8.85	-9.5424	-0.3927	0.1371	-0.0327	-0.0058	-0.0329	20.7782	16.3438	-7.6174	0.3449	0.5959	0.3454	-0.6377
8.86	-9.5167	-0.4055	0.1456	-0.0214	0.0009	-0.0257	20.6934	16.3851	-7.5524	0.3450	0.5958	0.3455	-0.6377
8.87	-9.5423	-0.4186	0.1440	-0.0231	-0.0023	-0.0239	20.8372	16.3647	-7.3679	0.3450	0.5958	0.3455	-0.6377
8.88	-9.5499	-0.4165	0.1534	-0.0130	-0.0064	-0.0206	20.6849	16.5018	-7.6296	0.3450	0.5958	0.3456	-0.6377
8.89	-9.5483	-0.4147	0.1583	-0.0068	-0.0082	-0.0202	20.7554	16.3924	-7.4755	0.3450	0.5958	0.3456	-0.6377
8.9	-9.5421	-0.4083	0.1655	-0.0166	-0.0135	-0.0236	20.7344	16.3489	-7.3968	0.3450	0.5957	0.3456	-0.6377
8.91	-9.5350	-0.4123	0.1659	-0.0106	-0.0126	-0.0187	21.2428	16.5076	-7.4255	0.3450	0.5957	0.3456	-0.6378
8.92	-9.5214	-0.4218	0.1605	-0.0048	-0.0098	-0.0243	21.4266	16.5679	-7.1818	0.3450	0.5956	0.3456	-0.6378
8.93	-9.5089	-0.4112	0.1636	-0.0048	-0.0104	-0.0295	20.7891	16.5679	-7.1721	0.3449	0.5956	0.3456	-0.6378
8.94	-9.5292	-0.4046	0.1665	-0.0058	-0.0083	-0.0259	20.7637	16.6262	-7.2935	0.3449	0.5956	0.3456	-0.6379
8.95	-9.5361	-0.4072	0.1696	-0.0057	-0.0021	-0.0187	20.5121	16.5004	-7.5903	0.3449	0.5956	0.3456	-0.6379
8.96	-9.5229	-0.4058	0.1741	-0.0036	-0.0036	-0.0247	20.4837	16.5224	-7.3576	0.3448	0.5956	0.3456	-0.6379
8.97	-9.5180	-0.4102	0.1726	-0.0046	-0.0054	-0.0237	20.5929	16.7094	-7.3059	0.3448	0.5956	0.3456	-0.6379
8.98	-9.5003	-0.4137	0.1722	0.0005	-0.0093	-0.0204	20.6835	16.5396	-7.4217	0.3448	0.5955	0.3456	-0.6380
8.99	-9.4924	-0.4169	0.1754	-0.0017	-0.0063	-0.0168	20.7100	16.3682	-7.4311	0.3447	0.5955	0.3456	-0.6380
9	-9.5013	-0.4180	0.1850	-0.0033	-0.0082	-0.0117	20.5824	16.4395	-7.5744	0.3447	0.5955	0.3456	-0.6380
9.01	-9.5028	-0.4166	0.1925	-0.0003	-0.0072	-0.0080	20.6970	16.3086	-7.7068	0.3448	0.5956	0.3455	-0.6380
9.02	-9.5135	-0.4082	0.1972	0.0038	-0.0115	-0.0081	20.7499	16.2084	-7.6382	0.3448	0.5956	0.3454	-0.6381
9.03	-9.5182	-0.3961	0.2009	0.0087	-0.0130	-0.0077	20.6993	16.4505	-7.4298	0.3448	0.5956	0.3453	-0.6381
9.04	-9.4909	-0.3839	0.2089	0.0137	-0.0112	-0.0080	20.8130	16.5314	-7.6256	0.3447	0.5956	0.3452	-0.6382
9.05	-9.4776	-0.3872	0.2064	0.0165	-0.0035	-0.0066	20.7357	16.3781	-7.4712	0.3447	0.5957	0.3451	-0.6382
9.06	-9.4867	-0.3574	0.2074	0.0172	-0.0014	-0.0076	20.9510	16.3010	-7.5286	0.3446	0.5957	0.3450	-0.6382
9.07	-9.4683	-0.3557	0.2026	0.0141	-0.0038	-0.0073	20.8736	16.1358	-7.6352	0.3446	0.5958	0.3449	-0.6382
9.08	-9.4717	-0.3292	0.2111	0.0137	0.0038	-0.0047	20.4475	16.2185	-7.4548	0.3445	0.5959	0.3448	-0.6382
9.09	-9.4958	-0.3391	0.1955	0.0188	0.0076	-0.0107	20.6587	16.4614	-7.6714	0.3445	0.5960	0.3447	-0.6382
9.1	-9.4786	-0.3104	0.2017	0.0182	0.0082	-0.0074	20.6464	16.3581	-7.6210	0.3444	0.5961	0.3446	-0.6382
9.11	-9.4914	-0.2996	0.1830	0.0032	0.0142	-0.0120	20.5543	16.5196	-7.6573	0.3443	0.5961	0.3446	-0.6382
9.12	-9.4827	-0.3079	0.1882	0.0024	0.0184	-0.0114	20.7124	16.3757	-7.7022	0.3443	0.5962	0.3446	-0.6381
9.13	-9.5076	-0.2952	0.1715	0.0089	0.0253	-0.0210	20.6504	16.3352	-7.5488	0.3442	0.5964	0.3446	-0.6381
9.14	-9.5257	-0.2971	0.1690	-0.0003	0.0183	-0.0177	20.5407	16.4378	-7.6308	0.3441	0.5964	0.3446	-0.6380
9.15	-9.5391	-0.2967	0.1569	-0.0033	0.0220	-0.0178	20.7765	16.3854	-7.4963	0.3440	0.5965	0.3446	-0.6380
9.16	-9.5473	-0.2947	0.1437	-0.0031	0.0162	-0.0250	20.7753	16.5310	-7.3908	0.3439	0.5966	0.3447	-0.6379
9.17	-9.5623	-0.3056	0.1437	-0.0078	0.0166	-0.0238	20.7623	16.6163	-7.7497	0.3439	0.5966	0.3447	-0.6379
9.18	-9.5759	-0.3223	0.1274	-0.0133	0.0152	-0.0261	20.5401	16.5009	-7.5115	0.3438	0.5967	0.3448	-0.6379
9.19	-9.5782	-0.3583	0.1207	-0.0087	0.0084	-0.0153	20.8988	16.5042	-7.5140	0.3438	0.5967	0.3448	-0.6378
9.2	-9.5972	-0.3795	0.1114	-0.0107	0.0130	-0.0179	20.9446	16.3566	-7.4516	0.3438	0.5968	0.3449	-0.6378
9.21	-9.6005	-0.3947	0.1091	-0.0067	0.0029	-0.0143	20.7955	16.1524	-7.4368	0.3438	0.5968	0.3449	-0.6377
9.22	-9.6062	-0.4014	0.1083	0.0006	0.0006	-0.0146	20.6663	16.4325	-7.5362	0.3437	0.5968	0.3449	-0.6377
9.23	-9.6005	-0.3997	0.1195	-0.0024	-0.0111	-0.0164	20.8032	16.3864	-7.3741	0.3437	0.5968	0.3448	-0.6378
9.24	-9.5852	-0.4016	0.1234	0.0110	-0.0128	-0.0197	20.7237	16.4536	-7.7256	0.3437	0.5968	0.3448	-0.6378
9.25	-9.5683	-0.4041	0.1346	0.0160	-0.0117	-0.0271	20.8951	16.2630	-7.5899	0.3436	0.5968	0.3447	-0.6379
9.26	-9.5721	-0.3924	0.1419	0.0154	-0.0121	-0.0281	20.6388	16.2166	-7.5897	0.3435	0.5968	0.3446	-0.6380
9.27	-9.5535	-0.3907	0.1590	0.0172	-0.0245	-0.0248	20.7530	16.3411	-7.6989	0.3434	0.5968	0.3446	-0.6381
9.28	-9.5359	-0.3816	0.1727	0.0183	-0.0261	-0.0213	20.6613	16.1585	-7.6791	0.3434	0.5967	0.3445	-0.6383
9.29	-9.5336	-0.3662	0.1872	0.0206	-0.0287	-0.0149	20.6258	16.3945	-7.6754	0.3433	0.5967	0.3443	-0.6384
9.3	-9.5201	-0.3621	0.1983	0.0203	-0.0281	-0.0254	20.8065	16.6134	-7.7105	0.3432	0.5967	0.3442	-0.6385
9.31	-9.4954	-0.3519	0.2117	0.0204	-0.0306	-0.0266	20.6347	16.4267	-7.7747	0.3432	0.5966	0.3441	-0.6387
9.32	-9.4693	-0.3378	0.2244	0.0205	-0.0288	-0.0237	20.7061	16.4053	-7.6061	0.3431	0.5966	0.3440	-0.6388
9.33	-9.4424	-0.3288	0.2391	0.0197	-0.0217	-0.0281	20.6660	16.3892	-7.4876	0.3430	0.5965	0.3439	-0.6389
9.34	-9.4243	-0.3197	0.2378	0.0148	-0.0164	-0.0302	20.6954	16.7588	-7.6403	0.3429	0.5965	0.3438	-0.6390
9.35	-9.4145	-0.3095	0.2513	0.0165	-0.0132	-0.0292	20.5022	16.5521	-7.5394	0.3428	0.5965	0.3438	-0.6391
9.36	-9.4277	-0.3055	0.2531	0.0170	-0.0090	-0.0256	20.5592	16.4656	-7.7852	0.3427	0.5965	0.3437	-0.6392
9.37	-9.4338	-0.3100	0.2595	0.0166	-0.0015	-0.0294	20.7116	16.5189	-7.6674	0.3426	0.5965	0.3437	-0.6393
9.38	-9.4621	-0.3051	0.2552	0.0029	0.0084	-0.0292	20.7831	16.3396	-7.7253	0.3425	0.5966	0.3437	-0.6393
9.39	-9.4548	-0.3093	0.2426	0.0006	0.0146	-0.0315	20.7508	16.1267	-7.5416	0.3424	0.5966	0.3437	-0.6393
9.4	-9.4485	-0.3169	0.2369	-0.0022	0.0194	-0.0328	20.9001	16.2219	-7.4802	0.3423	0.5967	0.3438	-0.6392
9.41	-9.4819	-0.3158	0.2233	-0.0058	0.0195	-0.0324	21.2355	16.4542	-7.4874	0.3422	0.5967	0.3439	-0.6392
9.42	-9.4863	-0.3265	0.2232	-0.0115	0.0240	-0.0334	21.4002	16.5445	-7.2989	0.3421	0.5968	0.3440	-0.6392
9.43	-9.5104	-0.3321	0.2103	-0.0143	0.0279	-0.0349	20.7619	16.4190	-7.5030	0.3420	0.5968	0.3441	-0.6391
9.44	-9.5495	-0.3471	0.2137	-0.0157	0.0231	-0.0331	20.6223	16.3856	-7.4850	0.3419	0.5969	0.3442	-0.6390
9.45	-9.5716	-0.3568	0.1990	-0.0186	0.0193	-0.0327	20.4968	16.4085	-7.6403	0.3418	0.5969	0.3444	-0.6390
9.46	-9.5327	-0.3752	0.1989	-0.0300	0.0181	-0.0327	20.6275	16.3560	-7.7378	0.3418	0.5969	0.3445	-0.6389
9.47	-9.5207	-0.3879	0.1943	-0.0213	0.0188	-0.0322	20.6551	16.3760	-7.5741	0.3418	0.5969	0.3446	-0.6388
9.48	-9.5364	-0.3909	0.1847	-0.0247	0.0227	-0.0307	20.5375	16.3733	-7.7415	0.3417	0.5970	0.3448	-0.6387
9.49	-9.5365	-0.3884	0.1789	-0.0165	0.0177	-0.0279	20.5544	16.2145	-7.7520	0.3417	0.5970	0.3449	-0.6387
9.5	-9.5508	-0.3840	0.1691	-0.0101	0.0151	-0.0299	20.5584	16.4433	-7.4465	0.3416	0.5970	0.3450	-0.6387
9.51	-9.5435	-0.3780	0.1704	-0.0189	0.0134	-0.0309	20.5376	16.4619	-7.6584	0.3415	0.5970	0.3451	-0.6386
9.52	-9.5401	-0.3846	0.1661	-0.0214	0.0138	-0.0333	20.6968	16.3631	-7.5310	0.3415	0.5970	0.3452	-0.6386
9.53	-9.5342	-0.3882	0.1590	-0.0179	0.0115	-0.0303	20.5475	16.3432	-7.5733	0.3414	0.5971	0.3453	-0.6385
9.54	-9.5118	-0.3804	0.1681	-0.0225	0.0116	-0.0342	20.6447	16.5228	-7.5556	0.3414	0.5971	0.3454	-0.6385
9.55	-9.5162	-0.3764	0.1648	-0.0190	0.0075	-0.0326	20.6265	16.6547	-7.2915	0.3414	0.5970	0.3455	-0.6385
9.56	-9.5110	-0.3799	0.1675	-0.0171	0.0060	-0.0338	20.5698	16.6436	-7.7688	0.3413	0.5970	0.3456	-0.6384
9.57	-9.5141	-0.3870	0.1664	-0.0157	0.0062	-0.0322	20.6733	16.5485	-7.8009	0.3413	0.5970	0.3457	-0.6384
9.58	-9.5127	-0.3865	0.1658	-0.0270	0.0063	-0.0329	20.6268	16.2368	-7.7684	0.3412	0.5970	0.3458	-0.6384
9.59	-9.5083	-0.3959	0.1706	-0.0216	0.0103	-0.0325	20.7499	16.3185	-7.8126	0.3412	0.5970	0.3459	-0.6384
9.6	-9.5241	-0.4026	0.1687	-0.0186	0.0135	-0.0326	20.5779	16.2169	-7.7145	0.3412	0.5970	0.3460	-0.6383
9.61	-9.5289	-0.4063	0.1565	-0.0289	0.0151	-0.0336	20.7562	16.2258	-7.7113	0.3411	0.5970	0.3462	-0.6383
9.62	-9.5366	-0.4094	0.1493	-0.0286	0.0108	-0.0336	20.6245	16.5153	-7.4777	0.3411	0.5970	0.3463	-0.6382
9.63	-9.5244	-0.4148	0.1452	-0.0287	0.0126	-0.0335	20.5323	16.4035	-7.4329	0.3411	0.5970	0.3465	-0.6382
9.64	-9.5166	-0.4133	0.1470	-0.0303	0.0113	-0.0338	20.3700	16.5876	-7.5502	0.3411	0.5969	0.3466	-0.6381
9.65	-9.5528	-0.4184	0.1403	-0.0313	0.0113	-0.0323	20.4558	16.6707	-7.4999	0.3410	0.5969	0.3468	-0.6381
9.66	-9.5505	-0.4279	0.1336	-0.0219	0.0074	-0.0319	20.5755	16.4035	-7.5195	0.3410	0.5969	0.3469	-0.6380
9.67	-9.5372	-0.4299	0.1360	-0.0308	0.0033	-0.0343	20.6986	16.5024	-7.8295	0.3410	0.5969	0.3470	-0.6380
9.68	-9.5513	-0.4335	0.1441	-0.0276	0.0031	-0.0320	20.4848	16.3593	-7.6368	0.3410	0.5968	0.3471	-0.6380
9.69	-9.5487	-0.4335	0.1472	-0.0269	0.0000	-0.0291	20.4541	16.4613	-7.5027	0.3410	0.5968	0.3472	-0.6380
9.7	-9.5388	-0.4276	0.1475	-0.0221	-0.0045	-0.0306	20.4632	16.5784	-7.4947	0.3410	0.5967	0.3473	-0.6380
9.71	-9.5235	-0.4212	0.1543	-0.0149	-0.0096	-0.0274	20.5071	16.5133	-7.3935	0.3410	0.5967	0.3474	-0.6380
9.72	-9.5236	-0.4181	0.1596	-0.0282	-0.0049	-0.0316	20.5939	16.6476	-7.4514	0.3410	0.5966	0.3475	-0.6380
9.73	-9.5174	-0.4278	0.1558	-0.0244	-0.0094	-0.0343	20.5135	16.6187	-7.2046	0.3410	0.5965	0.3476	-0.6380
9.74	-9.4892	-0.4378	0.1682	-0.0272	-0.0027	-0.0324	20.6242	16.6831	-7.2553	0.3410	0.5965	0.3477	-0.6380
9.75	-9.4982	-0.4345	0.1559	-0.0203	0.0020	-0.0332	20.3778	16.7118	-7.4952	0.3410	0.5965	0.3478	-0.6380
9.76	-9.4874	-0.4428	0.1611	-0.0164	0.0043	-0.0334	20.4638	16.4070	-7.5327	0.3409	0.5964	0.3478	-0.6380
9.77	-9.4869	-0.4429	0.1596	-0.0138	0.0071	-0.0330	20.7873	16.5129	-7.3770	0.3409	0.5964	0.3479	-0.6380
9.78	-9.4840	-0.4486	0.1459	-0.0210	0.0070	-0.0334	20.5536	16.5250	-7.6613	0.3408	0.5964	0.3480	-0.6379
9.79	-9.4791	-0.4531	0.1492	-0.0233	0.0063	-0.0303	20.4868	16.3539	-7.7291	0.3408	0.5964	0.3481	-0.6379
9.8	-9.4949	-0.4548	0.1470	-0.0272	0.0138	-0.0267	20.4447	16.3737	-7.4750	0.3408	0.5964	0.3482	-0.6379
9.81	-9.4885	-0.4614	0.1481	-0.0223	0.0119	-0.0291	20.4840	16.5045	-7.5403	0.3408	0.5964	0.3484	-0.6378
9.82	-9.4947	-0.4692	0.1431	-0.0252	0.0147	-0.0330	20.4379	16.3644	-7.6749	0.3407	0.5964	0.3485	-0.6378
9.83	-9.4931	-0.4736	0.1433	-0.0222	0.0122	-0.0249	20.5606	16.4527	-7.3652	0.3407	0.5964	0.3486	-0.6377
9.84	-9.4934	-0.4759	0.1399	-0.0230	0.0155	-0.0286	20.6583	16.5711	-7.6088	0.3407	0.5965	0.3487	-0.6376
9.85	-9.5220	-0.4801	0.1311	-0.0274	0.0172	-0.0171	20.6446	16.3697	-7.6671	0.3407	0.5965	0.3488	-0.6375
9.86	-9.5058	-0.4813	0.1273	-0.0289	0.0117	-0.0197	20.5927	16.3802	-7.5923	0.3407	0.5965	0.3489	-0.6375
9.87	-9.5201	-0.4803	0.1136	-0.0228	0.0212	-0.0266	20.4210	16.3460	-7.4984	0.3407	0.5966	0.3490	-0.6374
9.88	-9.5269	-0.4843	0.1015	-0.0143	0.0237	-0.0237	20.5235	16.6730	-7.4217	0.3406	0.5966	0.3491	-0.6373
9.89	-9.5136	-0.4818	0.1053	-0.0074	0.0161	-0.0226	20.5409	16.6984	-7.3683	0.3406	0.5967	0.3491	-0.6373
9.9	-9.5343	-0.4711	0.0896	-0.0114	0.0183	-0.0247	20.7121	16.5309	-7.3193	0.3405	0.5967	0.3492	-0.6372
9.91	-9.5238	-0.4701	0.0879	-0.0050	0.0167	-0.0194	20.8642	16.5520	-7.3168	0.3405	0.5968	0.3492	-0.6372
9.92	-9.5290	-0.4651	0.0901	-0.0059	0.0213	-0.0167	20.9261	16.5798	-7.2843	0.3404	0.5969	0.3492	-0.6371
9.93	-9.5320	-0.4584	0.0828	-0.0048	0.0182	-0.0194	20.7801	16.6983	-7.4995	0.3404	0.5970	0.3493	-0.6370
9.94	-9.5379	-0.4579	0.0840	-0.0051	0.0130	-0.0133	20.6928	16.5046	-7.3816	0.3403	0.5970	0.3493	-0.6370
9.95	-9.5568	-0.4504	0.0801	-0.0040	0.0136	-0.0130	20.5942	16.4283	-7.5207	0.3403	0.5971	0.3493	-0.6369
9.96	-9.5583	-0.4414	0.0762	-0.0054	0.0118	-0.0171	20.6800	16.4009	-7.2903	0.3402	0.5972	0.3493	-0.6369
9.97	-9.5633	-0.4353	0.0760	-0.0027	0.0089	-0.0139	20.5302	16.4244	-7.4095	0.3402	0.5972	0.3493	-0.6369
9.98	-9.5707	-0.4273	0.0780	-0.0096	-0.0021	-0.0128	20.5749	16.2010	-7.4007	0.3402	0.5972	0.3493	-0.6368
9.99	-9.5638	-0.4202	0.0757	-0.0060	0.0083	-0.0172	20.6369	16.2437	-7.2635	0.3402	0.5973	0.3493	-0.6368
10	-9.5560	-0.4111	0.0724	-0.0051	0.0009	-0.0181	20.6783	16.2496	-7.3976	0.3402	0.5973	0.3493	-0.6368
10.01	-9.5578	-0.4166	0.0765	-0.0086	-0.0054	-0.0106	20.4156	16.5550	-7.4098	0.3402	0.5973	0.3493	-0.6368
10.02	-9.5479	-0.4203	0.0783	-0.0124	-0.0033	-0.0176	20.6466	16.3060	-7.5280	0.3402	0.5973	0.3493	-0.6368
10.03	-9.5436	-0.4250	0.0848	-0.0124	-0.0119	-0.0182	20.6906	16.4336	-7.4619	0.3402	0.5973	0.3493	-0.6368
10.04	-9.5445	-0.4258	0.0886	-0.0085	-0.0152	-0.0109	20.6875	16.5023	-7.6129	0.3402	0.5973	0.3492	-0.6369
10.05	-9.5351	-0.4315	0.0924	-0.0212	-0.0129	-0.0210	20.7588	16.6090	-7.4704	0.3403	0.5972	0.3492	-0.6369
10.06	-9.5327	-0.4412	0.0853	-0.0188	-0.0119	-0.0210	20.4334	16.6516	-7.5565	0.3403	0.5971	0.3493	-0.6369
10.07	-9.5141	-0.4440	0.0946	-0.0288	-0.0151	-0.0215	20.3174	16.5684	-7.3572	0.3404	0.5971	0.3493	-0.6369
10.08	-9.5130	-0.4496	0.0953	-0.0238	-0.0111	-0.0180	20.5790	16.4936	-7.3062	0.3404	0.5970	0.3494	-0.6369
10.09	-9.5190	-0.4530	0.0904	-0.0168	-0.0111	-0.0239	20.5184	16.7284	-7.3096	0.3404	0.5970	0.3494	-0.6369
10.1	-9.5120	-0.4512	0.0908	-0.0159	-0.0131	-0.0169	20.6235	16.5705	-7.3818	0.3405	0.5969	0.3494	-0.6369
10.11	-9.5170	-0.4489	0.0960	-0.0143	-0.0099	-0.0169	20.2954	16.4547	-7.3557	0.3405	0.5969	0.3494	-0.6369
10.12	-9.5222	-0.4463	0.0951	-0.0191	-0.0141	-0.0182	20.2856	16.5257	-7.2890	0.3405	0.5969	0.3494	-0.6370
10.13	-9.5252	-0.4481	0.0989	-0.0051	-0.0177	-0.0207	20.4985	16.3358	-7.4764	0.3405	0.5968	0.3494	-0.6370
10.14	-9.5187	-0.4413	0.1050	-0.0075	-0.0153	-0.0201	20.6901	16.5277	-7.5076	0.3405	0.5968	0.3494	-0.6370
10.15	-9.5329	-0.4298	0.1049	-0.0070	-0.0125	-0.0172	20.6804	16.3149	-7.4854	0.3405	0.5968	0.3494	-0.6371
10.16	-9.5205	-0.4250	0.1086	-0.0096	-0.0118	-0.0291	20.4017	16.3261	-7.6209	0.3405	0.5967	0.3494	-0.6371
10.17	-9.5158	-0.4280	0.1064	-0.0199	-0.0121	-0.0255	20.5034	16.4339	-7.3962	0.3405	0.5967	0.3494	-0.6371
10.18	-9.5214	-0.4326	0.1079	-0.0141	-0.0110	-0.0307	20.6436	16.4009	-7.4867	0.3405	0.5966	0.3495	-0.6372
10.19	-9.5152	-0.4347	0.1182	-0.0180	-0.0152	-0.0309	20.6247	16.3278	-7.5015	0.3405	0.5965	0.3495	-0.6372
10.2	-9.5295	-0.4444	0.1162	-0.0180	-0.0177	-0.0317	20.5556	16.3014	-7.3813	0.3405	0.5965	0.3496	-0.6373
10.21	-9.5376	-0.4518	0.1260	-0.0265	-0.0106	-0.0343	20.6767	16.3653	-7.4117	0.3405	0.5964	0.3496	-0.6373
10.22	-9.5580	-0.4544	0.1301	-0.0139	-0.0126	-0.0334	20.5649	16.4966	-7.4196	0.3405	0.5963	0.3497	-0.6373
10.23	-9.5174	-0.4739	0.1321	-0.0123	-0.0212	-0.0300	20.4192	16.5962	-7.2924	0.3405	0.5962	0.3497	-0.6374
10.24	-9.4722	-0.4761	0.1426	-0.0168	-0.0151	-0.0228	20.2541	16.5725	-7.2193	0.3405	0.5962	0.3497	-0.6374
10.25	-9.4947	-0.4764	0.1303	-0.0240	-0.0127	-0.0153	20.5067	16.6245	-7.4507	0.3406	0.5961	0.3498	-0.6374
10.26	-9.4842	-0.4670	0.1361	-0.0247	-0.0122	-0.0136	20.3441	16.7987	-7.2919	0.3406	0.5961	0.3498	-0.6374
10.27	-9.5083	-0.4570	0.1307	-0.0151	-0.0071	-0.0098	20.4079	16.7038	-7.4857	0.3407	0.5961	0.3498	-0.6374
10.28	-9.4831	-0.4638	0.1333	-0.0179	-0.0078	-0.0131	20.2944	16.5275	-7.4608	0.3407	0.5960	0.3498	-0.6374
10.29	-9.4999	-0.4691	0.1349	-0.0079	-0.0041	-0.0132	20.3506	16.6672	-7.3905	0.3407	0.5960	0.3498	-0.6374
10.3	-9.5188	-0.4824	0.1167	-0.0093	-0.0007	-0.0192	20.3901	16.7764	-7.4316	0.3407	0.5961	0.3498	-0.6374
10.31	-9.5022	-0.4811	0.1348	-0.0077	-0.0008	-0.0186	20.3638	16.7253	-7.4071	0.3407	0.5961	0.3498	-0.6374
10.32	-9.5197	-0.4796	0.1164	-0.0070	0.0018	-0.0112	20.6157	16.4057	-7.4133	0.3407	0.5961	0.3498	-0.6374
10.33	-9.5115	-0.4658	0.1296	-0.0078	-0.0015	-0.0153	20.6591	16.4132	-7.4023	0.3407	0.5961	0.3498	-0.6374
10.34	-9.5191	-0.4593	0.1191	-0.0031	-0.0029	-0.0209	20.6140	16.3961	-7.4104	0.3407	0.5961	0.3498	-0.6374
10.35	-9.5121	-0.4529	0.1298	0.0045	-0.0071	-0.0148	20.6883	16.4338	-7.5765	0.3406	0.5961	0.3497	-0.6374
10.36	-9.5303	-0.4371	0.1188	0.0005	-0.0028	-0.0182	20.7720	16.3128	-7.5915	0.3406	0.5962	0.3497	-0.6374
10.37	-9.5199	-0.4444	0.1229	-0.0030	-0.0033	-0.0219	20.4250	16.4115	-7.5963	0.3406	0.5962	0.3497	-0.6374
10.38	-9.5490	-0.4314	0.1323	-0.0032	-0.0031	-0.0230	20.5982	16.6477	-7.5849	0.3405	0.5962	0.3497	-0.6374
10.39	-9.5485	-0.4331	0.1152	-0.0001	-0.0002	-0.0168	20.4936	16.4954	-7.6292	0.3405	0.5962	0.3496	-0.6375
10.4	-9.5033	-0.4256	0.1257	-0.0041	-0.0093	-0.0202	20.8009	16.4990	-7.4174	0.3405	0.5962	0.3496	-0.6375
10.41	-9.5422	-0.4131	0.1201	-0.0096	-0.0053	-0.0147	20.9612	16.4930	-7.2845	0.3405	0.5962	0.3496	-0.6375
10.42	-9.5644	-0.4281	0.1271	-0.0072	-0.0024	-0.0166	20.9669	16.5266	-7.4106	0.3405	0.5962	0.3496	-0.6375
10.43	-9.5602	-0.4292	0.1170	-0.0127	-0.0086	-0.0211	20.6507	16.6584	-7.5133	0.3405	0.5962	0.3496	-0.6375
10.44	-9.5316	-0.4404	0.1276	-0.0182	-0.0113	-0.0191	20.6324	16.6833	-7.2676	0.3405	0.5962	0.3496	-0.6375
10.45	-9.5426	-0.4498	0.1366	-0.0179	-0.0097	-0.0113	20.2882	16.5524	-7.5006	0.3405	0.5962	0.3496	-0.6375
10.46	-9.5635	-0.4455	0.1282	-0.0265	-0.0177	-0.0082	20.3486	16.5746	-7.4493	0.3406	0.5961	0.3496	-0.6375
10.47	-9.5234	-0.4408	0.1484	-0.0288	-0.0174	-0.0096	20.5071	16.4531	-7.4162	0.3407	0.5960	0.3496	-0.6375
10.48	-9.5344	-0.4359	0.1424	-0.0223	-0.0112	-0.0129	20.4619	16.4887	-7.3866	0.3408	0.5960	0.3497	-0.6375
10.49	-9.5326	-0.4474	0.1445	-0.0132	-0.0149	-0.0149	20.5384	16.4006	-7.5018	0.3408	0.5960	0.3497	-0.6375
10.5	-9.5202	-0.4601	0.1552	-0.0201	-0.0192	-0.0172	20.5747	16.4288	-7.6334	0.3409	0.5959	0.3497	-0.6375
10.51	-9.5182	-0.4656	0.1533	-0.0117	-0.0209	-0.0193	20.6634	16.4828	-7.5924	0.3409	0.5959	0.3496	-0.6376
10.52	-9.5059	-0.4628	0.1676	-0.0071	-0.0194	-0.0238	20.7736	16.3488	-7.5771	0.3409	0.5958	0.3496	-0.6376
10.53	-9.5193	-0.4536	0.1672	-0.0119	-0.0214	-0.0149	20.5826	16.3814	-7.6716	0.3410	0.5958	0.3496	-0.6377
10.54	-9.4893	-0.4537	0.1876	-0.0132	-0.0184	-0.0181	20.8593	16.4200	-7.6183	0.3410	0.5957	0.3496	-0.6377
10.55	-9.4783	-0.4507	0.1785	-0.0091	-0.0155	-0.0222	20.8336	16.6934	-7.5984	0.3410	0.5957	0.3496	-0.6377
10.56	-9.4463	-0.4542	0.1843	-0.0079	-0.0134	-0.0241	20.5983	16.7205	-7.5921	0.3410	0.5956	0.3496	-0.6378
10.57	-9.4549	-0.4588	0.1837	-0.0136	-0.0122	-0.0156	20.5474	16.5230	-7.6490	0.3410	0.5956	0.3496	-0.6378
10.58	-9.4499	-0.4589	0.1879	-0.0090	-0.0135	-0.0150	20.6919	16.2617	-7.3741	0.3410	0.5956	0.3495	-0.6378
10.59	-9.4625	-0.4596	0.1914	-0.0163	-0.0039	-0.0118	20.5123	16.3116	-7.4690	0.3410	0.5956	0.3495	-0.6378
10.6	-9.4725	-0.4687	0.1920	-0.0263	-0.0055	-0.0122	20.5321	16.4118	-7.6104	0.3411	0.5956	0.3496	-0.6378
10.61	-9.4734	-0.4784	0.1856	-0.0227	0.0117	-0.0079	20.5456	16.5786	-7.3883	0.3412	0.5956	0.3496	-0.6377
10.62	-9.4860	-0.4838	0.1798	-0.0234	0.0176	-0.0087	20.3442	16.4238	-7.5131	0.3412	0.5957	0.3497	-0.6376
10.63	-9.4817	-0.4874	0.1746	-0.0153	0.0110	-0.0136	20.5818	16.5329	-7.4105	0.3412	0.5957	0.3497	-0.6375
10.64	-9.4930	-0.4863	0.1597	-0.0212	0.0134	-0.0110	20.5144	16.6862	-7.5736	0.3412	0.5958	0.3498	-0.6374
10.65	-9.4848	-0.4919	0.1548	-0.0213	0.0131	-0.0076	20.4763	16.5564	-7.3836	0.3412	0.5958	0.3498	-0.6373
10.66	-9.4962	-0.4832	0.1602	-0.0055	0.0230	-0.0101	20.4890	16.4170	-7.5519	0.3412	0.5959	0.3498	-0.6373
10.67	-9.5146	-0.4718	0.1461	-0.0066	0.0183	-0.0076	20.4948	16.5590	-7.4506	0.3412	0.5960	0.3498	-0.6372
10.68	-9.5001	-0.4714	0.1436	-0.0049	0.0104	-0.0103	20.4383	16.6793	-7.4013	0.3412	0.5961	0.3498	-0.6371
10.69	-9.5139	-0.4635	0.1438	-0.0032	0.0171	-0.0090	20.2709	16.5433	-7.5140	0.3411	0.5962	0.3498	-0.6371
10.7	-9.5238	-0.4582	0.1320	-0.0057	0.0166	-0.0093	20.4711	16.4043	-7.5221	0.3411	0.5963	0.3498	-0.6370
10.71	-9.5126	-0.4530	0.1370	-0.0038	0.0147	-0.0071	20.4589	16.4154	-7.4697	0.3411	0.5964	0.3498	-0.6369
10.72	-9.5362	-0.4475	0.1268	-0.0076	0.0106	-0.0096	20.6435	16.4935	-7.6272	0.3411	0.5964	0.3498	-0.6369
10.73	-9.5172	-0.4517	0.1373	-0.0095	0.0137	-0.0112	20.7884	16.3491	-7.5462	0.3411	0.5965	0.3498	-0.6368
10.74	-9.5411	-0.4444	0.1280	-0.0083	0.0105	-0.0072	20.5718	16.5354	-7.5643	0.3411	0.5966	0.3498	-0.6367
10.75	-9.5357	-0.4519	0.1231	-0.0058	0.0075	-0.0082	20.3813	16.5608	-7.5405	0.3411	0.5966	0.3497	-0.6367
10.76	-9.5333	-0.4479	0.1326	-0.0066	0.0115	-0.0076	20.4801	16.5300	-7.5118	0.3410	0.5967	0.3497	-0.6366
10.77	-9.5567	-0.4476	0.1128	-0.0053	0.0066	-0.0099	20.7369	16.7022	-7.5851	0.3410	0.5968	0.3497	-0.6366
10.78	-9.5223	-0.4555	0.1231	-0.0068	0.0069	-0.0071	20.7378	16.5118	-7.3518	0.3410	0.5968	0.3497	-0.6366
10.79	-9.5457	-0.4506	0.1072	-0.0064	0.0088	-0.0086	20.5336	16.1617	-7.4423	0.3410	0.5969	0.3497	-0.6365
10.8	-9.5260	-0.4574	0.1144	-0.0069	0.0046	-0.0125	20.7188	16.3088	-7.3866	0.3410	0.5969	0.3497	-0.6365
10.81	-9.5286	-0.4532	0.1186	-0.0061	0.0063	-0.0074	20.4383	16.5595	-7.5755	0.3410	0.5970	0.3496	-0.6364
10.82	-9.5269	-0.4571	0.1068	-0.0051	0.0031	-0.0071	20.4826	16.6912	-7.4117	0.3410	0.5971	0.3496	-0.6364
10.83	-9.5053	-0.4497	0.1215	-0.0066	-0.0007	-0.0084	20.7247	16.5217	-7.4370	0.3410	0.5971	0.3496	-0.6364
10.84	-9.5222	-0.4366	0.1066	-0.0050	0.0055	-0.0067	20.5071	16.5871	-7.3771	0.3410	0.5972	0.3495	-0.6363
10.85	-9.5102	-0.4303	0.1128	-0.0055	0.0081	-0.0069	20.5093	16.4850	-7.3442	0.3410	0.5972	0.3495	-0.6363
10.86	-9.5228	-0.4283	0.1154	0.0033	0.0061	-0.0070	20.6874	16.4716	-7.5063	0.3410	0.5973	0.3495	-0.6363
10.87	-9.5254	-0.4284	0.1206	0.0024	0.0036	-0.0071	20.5597	16.4310	-7.5314	0.3410	0.5974	0.3494	-0.6362
10.88	-9.5274	-0.4175	0.1154	-0.0026	0.0005	-0.0069	20.4646	16.6663	-7.4500	0.3410	0.5974	0.3494	-0.6362
10.89	-9.5254	-0.4090	0.1164	-0.0062	0.0001	-0.0080	20.5185	16.4652	-7.4762	0.3410	0.5974	0.3493	-0.6362
10.9	-9.5201	-0.4160	0.1174	-0.0047	0.0056	-0.0076	20.8044	16.3210	-7.4485	0.3410	0.5975	0.3493	-0.6362
10.91	-9.5128	-0.4214	0.1152	-0.0024	0.0006	-0.0078	21.3218	16.6206	-7.1729	0.3410	0.5976	0.3493	-0.6361
10.92	-9.5009	-0.4170	0.1169	0.0011	0.0018	-0.0092	21.5077	16.5416	-7.3231	0.3410	0.5976	0.3492	-0.6361
10.93	-9.5089	-0.4104	0.1163	-0.0025	0.0049	-0.0151	20.8391	16.6644	-7.4879	0.3409	0.5977	0.3492	-0.6361
10.94	-9.5238	-0.4144	0.1182	0.0014	0.0070	-0.0083	20.6171	16.4671	-7.4026	0.3409	0.5977	0.3492	-0.6361
10.95	-9.5518	-0.4100	0.1178	-0.0050	0.0032	-0.0081	20.6468	16.3296	-7.5416	0.3409	0.5978	0.3491	-0.6360
10.96	-9.5365	-0.4104	0.1067	-0.0023	0.0015	-0.0072	20.4829	16.4431	-7.6441	0.3409	0.5978	0.3491	-0.6360
10.97	-9.5086	-0.4088	0.1167	0.0001	-0.0035	-0.0017	20.4845	16.2614	-7.5010	0.3409	0.5979	0.3490	-0.6360
10.98	-9.5214	-0.3982	0.1185	-0.0054	-0.0004	-0.0065	20.4671	16.6439	-7.5192	0.3409	0.5979	0.3490	-0.6360
10.99	-9.5283	-0.3902	0.1045	-0.0074	0.0023	0.0017	20.5197	16.6236	-7.5136	0.3410	0.5980	0.3489	-0.6359
11	-9.5173	-0.3823	0.0948	-0.0065	0.0106	-0.0020	20.6042	16.5451	-7.5260	0.3410	0.5981	0.3489	-0.6359
11.01	-9.5188	-0.3647	0.0973	-0.0049	0.0140	-0.0042	20.4668	16.5864	-7.4237	0.3410	0.5981	0.3489	-0.6358
11.02	-9.5262	-0.3683	0.0868	-0.0048	0.0107	-0.0033	20.4851	16.5549	-7.4147	0.3410	0.5982	0.3488	-0.6357
11.03	-9.5111	-0.3885	0.0908	-0.0067	0.0130	-0.0050	20.4811	16.4144	-7.4331	0.3410	0.5983	0.3488	-0.6357
11.04	-9.5230	-0.3776	0.0813	-0.0053	0.0186	-0.0071	20.4689	16.3741	-7.3911	0.3409	0.5984	0.3488	-0.6356
11.05	-9.5138	-0.3802	0.0777	0.0010	0.0163	-0.0078	20.5879	16.5048	-7.5572	0.3409	0.5985	0.3488	-0.6355
11.06	-9.5076	-0.3738	0.0815	0.0016	0.0085	-0.0067	20.5558	16.4599	-7.4405	0.3409	0.5986	0.3488	-0.6355
11.07	-9.5126	-0.3699	0.0831	-0.0045	0.0091	-0.0114	20.8322	16.3107	-7.4931	0.3408	0.5987	0.3487	-0.6355
11.08	-9.5153	-0.3692	0.0844	-0.0036	0.0116	-0.0092	20.7606	16.3113	-7.8434	0.3408	0.5987	0.3487	-0.6354
11.09	-9.5238	-0.3650	0.0864	-0.0040	0.0105	-0.0136	20.6259	16.1863	-7.6223	0.3408	0.5988	0.3487	-0.6354
11.1	-9.5318	-0.3658	0.0776	-0.0005	0.0114	-0.0145	20.6873	16.2697	-7.6127	0.3407	0.5989	0.3487	-0.6353
11.11	-9.5341	-0.3657	0.0744	-0.0064	0.0132	-0.0097	20.8719	16.3309	-7.5230	0.3407	0.5989	0.3487	-0.6353
11.12	-9.5566	-0.3615	0.0556	-0.0077	0.0129	-0.0084	20.6171	16.2815	-7.4941	0.3407	0.5990	0.3487	-0.6352
11.13	-9.5096	-0.3648	0.0549	-0.0043	0.0143	-0.0070	20.7103	16.4733	-7.5249	0.3407	0.5991	0.3487	-0.6351
11.14	-9.5168	-0.3520	0.0542	-0.0118	0.0133	-0.0080	20.7381	16.4340	-7.4971	0.3407	0.5992	0.3487	-0.6351
11.15	-9.5595	-0.3603	0.0526	-0.0180	0.0119	-0.0063	20.8590	16.3656	-7.5145	0.3407	0.5992	0.3488	-0.6350
11.16	-9.5758	-0.3786	0.0474	-0.0229	0.0082	-0.0083	20.5905	16.5251	-7.7112	0.3407	0.5993	0.3488	-0.6349
11.17	-9.5269	-0.3859	0.0512	-0.0309	0.0020	-0.0076	20.4743	16.2747	-7.5518	0.3408	0.5993	0.3488	-0.6348
11.18	-9.5125	-0.3901	0.0666	-0.0286	-0.0014	-0.0089	20.9071	16.4448	-7.4119	0.3409	0.5992	0.3489	-0.6348
11.19	-9.5465	-0.3893	0.0514	-0.0317	0.0088	-0.0050	20.6153	16.5990	-7.4385	0.3410	0.5993	0.3489	-0.6347
11.2	-9.5221	-0.3901	0.0614	-0.0236	0.0031	-0.0047	20.4635	16.4374	-7.5037	0.3410	0.5993	0.3490	-0.6346
11.21	-9.5337	-0.3794	0.0579	-0.0268	0.0005	-0.0091	20.6579	16.5245	-7.5871	0.3411	0.5993	0.3490	-0.6346
11.22	-9.5293	-0.3928	0.0618	-0.0334	0.0027	-0.0079	20.6706	16.3761	-7.5346	0.3412	0.5993	0.3491	-0.6345
11.23	-9.5347	-0.3972	0.0677	-0.0235	0.0115	-0.0084	20.5415	16.4203	-7.3999	0.3412	0.5993	0.3491	-0.6344
11.24	-9.5518	-0.4051	0.0471	-0.0215	0.0020	-0.0081	20.6106	16.3419	-7.4069	0.3413	0.5993	0.3492	-0.6344
11.25	-9.5109	-0.4032	0.0580	-0.0221	-0.0068	-0.0077	20.6855	16.3125	-7.4857	0.3413	0.5993	0.3492	-0.6343
11.26	-9.5086	-0.3908	0.0593	-0.0139	-0.0080	-0.0078	20.6215	16.2091	-7.5183	0.3414	0.5993	0.3492	-0.6343
11.27	-9.5071	-0.3959	0.0479	-0.0180	-0.0047	-0.0076	20.9336	16.2440	-7.3875	0.3414	0.5993	0.3492	-0.6343
11.28	-9.4939	-0.3889	0.0616	-0.0111	0.0020	-0.0071	20.6802	16.3293	-7.6071	0.3415	0.5994	0.3492	-0.6343
11.29	-9.5141	-0.3922	0.0490	-0.0075	0.0057	-0.0076	20.7217	16.2982	-7.5832	0.3415	0.5994	0.3491	-0.6342
11.3	-9.5152	-0.3841	0.0576	-0.0079	0.0084	-0.0083	20.8473	16.3081	-7.7140	0.3415	0.5995	0.3491	-0.6342
11.31	-9.5415	-0.3867	0.0454	-0.0091	0.0033	-0.0077	20.7219	16.1834	-7.6679	0.3415	0.5995	0.3491	-0.6341
11.32	-9.5129	-0.3737	0.0541	-0.0062	0.0048	-0.0085	20.7434	16.2518	-7.7336	0.3415	0.5995	0.3491	-0.6341
11.33	-9.5412	-0.3961	0.0445	-0.0059	0.0057	-0.0074	20.7751	16.1150	-7.4853	0.3415	0.5996	0.3491	-0.6341
11.34	-9.5422	-0.3824	0.0423	-0.0011	-0.0026	-0.0056	20.5739	16.1467	-7.5241	0.3415	0.5996	0.3490	-0.6340
11.35	-9.5304	-0.3712	0.0592	0.0089	-0.0016	-0.0053	20.6573	16.2691	-7.4548	0.3414	0.5997	0.3490	-0.6340
11.36	-9.5667	-0.3738	0.0460	0.0094	-0.0024	-0.0037	20.5029	16.3875	-7.3957	0.3414	0.5997	0.3489	-0.6341
11.37	-9.5472	-0.3747	0.0611	0.0026	-0.0034	-0.0084	20.4899	16.4831	-7.5198	0.3414	0.5998	0.3488	-0.6341
11.38	-9.5666	-0.3556	0.0504	0.0054	-0.0051	-0.0072	20.5480	16.5008	-7.5314	0.3414	0.5998	0.3487	-0.6341
11.39	-9.5425	-0.3559	0.0567	0.0077	-0.0121	-0.0054	20.5002	16.4184	-7.4485	0.3414	0.5998	0.3486	-0.6341
11.4	-9.5341	-0.3422	0.0530	0.0182	-0.0056	-0.0031	20.7103	16.3822	-7.3428	0.3413	0.5999	0.3485	-0.6341
11.41	-9.5268	-0.3401	0.0545	0.0150	-0.0023	-0.0065	21.1541	16.5056	-7.2714	0.3413	0.6000	0.3484	-0.6342
11.42	-9.5445	-0.3317	0.0572	0.0176	-0.0079	-0.0056	21.3853	16.5020	-7.2031	0.3413	0.6000	0.3483	-0.6342
11.43	-9.5324	-0.3295	0.0670	0.0150	-0.0139	-0.0080	20.9276	16.4238	-7.5715	0.3412	0.6001	0.3482	-0.6343
11.44	-9.5510	-0.3145	0.0713	0.0143	-0.0139	-0.0038	20.8881	16.3156	-7.5748	0.3412	0.6001	0.3480	-0.6343
11.45	-9.5249	-0.3165	0.0744	0.0170	-0.0216	-0.0035	20.6570	16.0956	-7.5413	0.3412	0.6001	0.3479	-0.6344
11.46	-9.5115	-0.3044	0.0844	0.0207	-0.0179	-0.0042	20.7429	16.2364	-7.6697	0.3412	0.6001	0.3477	-0.6345
11.47	-9.5272	-0.2952	0.0807	0.0159	-0.0133	-0.0027	20.7658	16.4070	-7.5856	0.3411	0.6002	0.3476	-0.6345
