time	acceleration_x	acceleration_y	acceleration_z	gyroscope_x	gyroscope_y	gyroscope_z	magnetometer_x	magnetometer_y	magnetometer_z	quaternion_w	quaternion_x	quaternion_y	quaternion_z
0	-9.6009	-0.3375	0.6043	-0.0291	-0.0080	-0.0586	24.2739	-19.8784	17.0245	0.0966	-0.6842	0.0702	0.7195
0.01	-9.6184	-0.3612	0.6079	-0.0287	-0.0074	-0.0674	23.8326	-19.9009	16.9225	0.0966	-0.6842	0.0700	0.7196
0.02	-9.5866	-0.3717	0.6147	-0.0215	-0.0112	-0.0676	24.1773	-19.7965	16.8932	0.0966	-0.6841	0.0699	0.7195
0.03	-9.5869	-0.3629	0.6226	-0.0193	-0.0087	-0.0573	24.2289	-19.9880	16.9311	0.0966	-0.6841	0.0699	0.7196
0.04	-9.5743	-0.3686	0.6177	-0.0103	-0.0062	-0.0564	24.1119	-19.9280	17.2158	0.0966	-0.6841	0.0699	0.7196
0.05	-9.5568	-0.3693	0.6299	-0.0075	-0.0009	-0.0583	24.1622	-19.9846	17.0991	0.0966	-0.6840	0.0699	0.7196
0.06	-9.5721	-0.3589	0.6320	-0.0107	-0.0029	-0.0507	24.1301	-19.9890	16.9974	0.0966	-0.6841	0.0699	0.7197
0.07	-9.5864	-0.3504	0.6267	-0.0008	-0.0012	-0.0404	24.2964	-19.9201	16.9789	0.0966	-0.6840	0.0700	0.7196
0.08	-9.5867	-0.3331	0.6237	0.0044	0.0032	-0.0449	24.3364	-20.0220	16.8597	0.0966	-0.6840	0.0701	0.7197
0.09	-9.5850	-0.3138	0.6266	0.0006	-0.0068	-0.0384	24.3011	-20.0566	17.0407	0.0965	-0.6839	0.0701	0.7196
0.1	-9.5947	-0.3031	0.6261	-0.0016	0.0028	-0.0436	24.4542	-20.2186	16.8527	0.0965	-0.6840	0.0702	0.7197
0.11	-9.5950	-0.2937	0.6226	-0.0027	0.0020	-0.0410	24.5163	-19.8014	17.0196	0.0965	-0.6840	0.0703	0.7197
0.12	-9.5866	-0.2863	0.6145	-0.0022	0.0006	-0.0491	24.4654	-19.9481	17.1354	0.0965	-0.6840	0.0704	0.7197
0.13	-9.5956	-0.2832	0.6065	-0.0028	0.0021	-0.0536	24.1695	-20.2128	16.9798	0.0965	-0.6839	0.0704	0.7197
0.14	-9.6036	-0.2898	0.6060	-0.0053	0.0105	-0.0531	24.1942	-20.0300	17.1435	0.0965	-0.6840	0.0704	0.7196
0.15	-9.6134	-0.2994	0.6129	-0.0063	0.0045	-0.0606	24.3865	-20.1624	17.0340	0.0966	-0.6840	0.0704	0.7196
0.16	-9.6334	-0.3014	0.6183	-0.0067	0.0012	-0.0587	24.2019	-20.1853	16.9206	0.0966	-0.6839	0.0704	0.7196
0.17	-9.6352	-0.3027	0.6164	-0.0057	0.0011	-0.0589	24.3521	-20.0651	16.7888	0.0966	-0.6840	0.0704	0.7197
0.18	-9.6221	-0.2980	0.6169	-0.0090	0.0062	-0.0565	24.1507	-19.9619	17.0235	0.0966	-0.6840	0.0704	0.7196
0.19	-9.6113	-0.2931	0.6112	-0.0080	-0.0062	-0.0530	24.1496	-20.0538	17.1442	0.0967	-0.6840	0.0704	0.7197
0.2	-9.6013	-0.2899	0.6123	-0.0129	-0.0046	-0.0521	24.1323	-19.7740	16.9581	0.0966	-0.6839	0.0704	0.7196
0.21	-9.6027	-0.2826	0.6119	-0.0232	0.0008	-0.0505	24.2875	-19.7685	17.0381	0.0966	-0.6840	0.0704	0.7197
0.22	-9.6027	-0.2822	0.6105	-0.0221	-0.0003	-0.0539	24.1450	-19.8128	17.1051	0.0965	-0.6840	0.0704	0.7197
0.23	-9.6016	-0.2803	0.6143	-0.0266	-0.0006	-0.0500	24.2181	-19.9206	17.0787	0.0965	-0.6839	0.0703	0.7196
0.24	-9.5962	-0.2781	0.6152	-0.0259	-0.0073	-0.0546	24.3423	-19.8738	17.2022	0.0964	-0.6840	0.0703	0.7198
0.25	-9.6007	-0.2917	0.6121	-0.0266	-0.0032	-0.0563	24.0490	-19.7261	17.0217	0.0964	-0.6839	0.0702	0.7197
0.26	-9.5972	-0.3194	0.6125	-0.0258	0.0041	-0.0559	24.3148	-19.9000	16.9809	0.0963	-0.6840	0.0702	0.7198
0.27	-9.5969	-0.3389	0.6116	-0.0184	-0.0021	-0.0566	24.3273	-20.0141	17.0283	0.0963	-0.6839	0.0701	0.7197
0.28	-9.5949	-0.3442	0.6148	-0.0228	-0.0083	-0.0605	24.3186	-20.1721	16.9630	0.0963	-0.6839	0.0701	0.7198
0.29	-9.5974	-0.3433	0.6175	-0.0225	-0.0049	-0.0517	24.3227	-20.0946	17.1025	0.0962	-0.6839	0.0700	0.7198
0.3	-9.6046	-0.3421	0.6172	-0.0132	-0.0090	-0.0544	24.3220	-20.2276	17.0016	0.0962	-0.6838	0.0700	0.7198
0.31	-9.6078	-0.3256	0.6208	-0.0021	-0.0082	-0.0518	24.3198	-19.9533	17.0321	0.0962	-0.6838	0.0700	0.7199
0.32	-9.6125	-0.3183	0.6213	-0.0038	-0.0064	-0.0499	24.3290	-20.1465	17.1982	0.0962	-0.6838	0.0701	0.7199
0.33	-9.6056	-0.3126	0.6181	-0.0072	-0.0059	-0.0537	24.3110	-19.9984	17.0382	0.0962	-0.6838	0.0701	0.7200
0.34	-9.5949	-0.3046	0.6277	-0.0021	-0.0075	-0.0547	24.3421	-20.0002	16.7812	0.0963	-0.6837	0.0701	0.7199
0.35	-9.5965	-0.3076	0.6277	-0.0054	-0.0134	-0.0579	24.2860	-19.9929	16.9943	0.0963	-0.6837	0.0701	0.7200
0.36	-9.5858	-0.3153	0.6274	-0.0044	-0.0087	-0.0574	24.0838	-20.0129	17.0635	0.0963	-0.6836	0.0701	0.7200
0.37	-9.5728	-0.3107	0.6307	-0.0125	-0.0053	-0.0550	24.2391	-19.9386	17.0435	0.0963	-0.6836	0.0701	0.7201
0.38	-9.5675	-0.3190	0.6240	-0.0060	-0.0036	-0.0481	24.2365	-19.7913	17.1167	0.0963	-0.6836	0.0701	0.7201
0.39	-9.5600	-0.3133	0.6296	-0.0020	-0.0028	-0.0534	24.3462	-19.9768	16.9562	0.0963	-0.6836	0.0702	0.7201
0.4	-9.5664	-0.3090	0.6265	-0.0030	-0.0007	-0.0488	24.1113	-19.9968	17.0319	0.0963	-0.6836	0.0702	0.7201
0.41	-9.5735	-0.3131	0.6266	-0.0024	-0.0038	-0.0442	24.2505	-20.0159	16.9684	0.0963	-0.6835	0.0703	0.7201
0.42	-9.5801	-0.3104	0.6345	-0.0032	0.0024	-0.0478	24.2064	-19.8678	17.1439	0.0963	-0.6836	0.0703	0.7202
0.43	-9.5895	-0.3038	0.6281	-0.0041	0.0006	-0.0477	24.3059	-19.6807	17.0101	0.0963	-0.6835	0.0704	0.7201
0.44	-9.5974	-0.3013	0.6256	-0.0020	0.0098	-0.0473	24.2677	-19.8140	17.0496	0.0963	-0.6836	0.0704	0.7202
0.45	-9.5916	-0.2915	0.6255	-0.0039	0.0057	-0.0437	24.2117	-19.9007	17.2053	0.0963	-0.6835	0.0705	0.7200
0.46	-9.5931	-0.2738	0.6211	0.0001	0.0098	-0.0463	24.4807	-20.2822	17.1880	0.0963	-0.6836	0.0706	0.7201
0.47	-9.6045	-0.2734	0.6151	-0.0030	0.0143	-0.0541	24.7330	-20.1698	17.1915	0.0963	-0.6836	0.0706	0.7200
0.48	-9.6158	-0.2777	0.6134	-0.0080	0.0094	-0.0554	25.1027	-19.9407	17.2066	0.0963	-0.6836	0.0706	0.7199
0.49	-9.6131	-0.2688	0.6140	-0.0018	0.0008	-0.0546	24.6992	-20.0796	17.0541	0.0964	-0.6837	0.0707	0.7200
0.5	-9.6113	-0.2701	0.6067	-0.0022	0.0017	-0.0578	24.4079	-20.0108	17.1175	0.0964	-0.6836	0.0707	0.7200
0.51	-9.6089	-0.2688	0.6039	-0.0054	0.0011	-0.0569	24.2620	-19.7735	16.8877	0.0964	-0.6837	0.0707	0.7200
0.52	-9.6140	-0.2692	0.6049	-0.0187	-0.0006	-0.0578	24.3655	-20.2008	17.1219	0.0964	-0.6836	0.0707	0.7199
0.53	-9.6211	-0.2772	0.6064	-0.0271	0.0014	-0.0541	24.4604	-20.1432	17.0494	0.0963	-0.6837	0.0706	0.7200
0.54	-9.6178	-0.2934	0.6080	-0.0234	0.0011	-0.0548	24.2632	-20.0036	16.8594	0.0963	-0.6836	0.0706	0.7200
0.55	-9.6249	-0.2974	0.6054	-0.0259	-0.0058	-0.0554	24.2827	-19.9702	16.9275	0.0962	-0.6836	0.0705	0.7200
0.56	-9.6369	-0.3036	0.6097	-0.0253	-0.0013	-0.0554	24.1507	-20.0835	16.8995	0.0962	-0.6836	0.0704	0.7200
0.57	-9.6251	-0.3098	0.6137	-0.0193	-0.0079	-0.0467	24.2098	-20.2115	17.0466	0.0961	-0.6836	0.0704	0.7201
0.58	-9.6068	-0.3147	0.6075	-0.0251	-0.0059	-0.0528	24.3039	-20.0389	16.9416	0.0961	-0.6836	0.0704	0.7201
0.59	-9.5864	-0.3066	0.6089	-0.0194	-0.0021	-0.0585	24.1558	-19.8770	16.7850	0.0960	-0.6835	0.0703	0.7200
0.6	-9.5878	-0.3039	0.6121	-0.0192	-0.0035	-0.0543	24.2992	-19.9050	16.9556	0.0960	-0.6836	0.0703	0.7202
0.61	-9.6015	-0.2999	0.6113	-0.0115	-0.0035	-0.0557	24.2403	-19.7425	16.9861	0.0960	-0.6835	0.0703	0.7201
0.62	-9.5977	-0.2982	0.6119	-0.0112	-0.0095	-0.0591	24.3164	-19.9678	17.0805	0.0960	-0.6835	0.0703	0.7202
0.63	-9.5904	-0.3001	0.6220	-0.0084	-0.0025	-0.0607	24.0269	-20.0855	17.0127	0.0961	-0.6835	0.0703	0.7202
0.64	-9.6008	-0.2814	0.6145	-0.0104	0.0011	-0.0567	24.1704	-20.0797	16.8432	0.0961	-0.6835	0.0703	0.7202
0.65	-9.5966	-0.2712	0.6189	-0.0114	-0.0029	-0.0648	24.2852	-20.0328	16.8279	0.0961	-0.6835	0.0702	0.7202
0.66	-9.5830	-0.2741	0.6210	-0.0160	-0.0086	-0.0639	24.3311	-19.9269	17.1234	0.0961	-0.6834	0.0702	0.7202
0.67	-9.5904	-0.2864	0.6195	-0.0116	-0.0039	-0.0670	24.4701	-20.2533	16.9611	0.0962	-0.6835	0.0701	0.7203
0.68	-9.5849	-0.3032	0.6293	-0.0153	-0.0037	-0.0673	24.2895	-20.1704	17.0753	0.0962	-0.6834	0.0701	0.7202
0.69	-9.6010	-0.3150	0.6301	-0.0209	-0.0010	-0.0634	24.4594	-19.9781	17.0464	0.0962	-0.6835	0.0700	0.7203
0.7	-9.6396	-0.3384	0.6394	-0.0281	-0.0004	-0.0586	24.4378	-19.9664	16.8814	0.0961	-0.6834	0.0699	0.7202
0.71	-9.6524	-0.3504	0.6422	-0.0241	-0.0086	-0.0583	24.2160	-20.0338	16.9182	0.0961	-0.6834	0.0699	0.7203
0.72	-9.6253	-0.3452	0.6361	-0.0226	-0.0070	-0.0462	24.3264	-20.0350	16.9042	0.0960	-0.6834	0.0698	0.7203
0.73	-9.5739	-0.3375	0.6292	-0.0243	-0.0113	-0.0427	24.3898	-19.9637	16.9074	0.0960	-0.6833	0.0698	0.7203
0.74	-9.5512	-0.3246	0.6324	-0.0237	-0.0003	-0.0384	24.2153	-19.9881	16.9051	0.0959	-0.6834	0.0698	0.7205
0.75	-9.5573	-0.3191	0.6247	-0.0135	0.0004	-0.0360	24.2080	-20.0120	17.2051	0.0958	-0.6833	0.0699	0.7204
0.76	-9.5726	-0.3073	0.6268	-0.0092	0.0029	-0.0392	24.2872	-20.1018	17.1094	0.0957	-0.6834	0.0699	0.7205
0.77	-9.5820	-0.2924	0.6231	-0.0179	0.0019	-0.0437	24.2605	-20.0552	17.0868	0.0956	-0.6833	0.0700	0.7204
0.78	-9.5910	-0.2857	0.6229	-0.0118	0.0004	-0.0462	24.2531	-19.9739	17.0885	0.0956	-0.6833	0.0700	0.7204
0.79	-9.5833	-0.2928	0.6132	-0.0140	0.0131	-0.0504	24.1516	-19.9902	17.1018	0.0956	-0.6834	0.0700	0.7204
0.8	-9.5665	-0.2949	0.6072	-0.0067	0.0052	-0.0615	24.4929	-19.9701	17.0622	0.0956	-0.6834	0.0700	0.7204
0.81	-9.5500	-0.2927	0.6076	-0.0014	0.0032	-0.0661	24.2189	-20.0870	17.2405	0.0957	-0.6834	0.0700	0.7204
0.82	-9.5480	-0.2957	0.6038	-0.0082	0.0056	-0.0650	24.0521	-20.0639	16.9444	0.0957	-0.6834	0.0700	0.7203
0.83	-9.5556	-0.2953	0.6080	-0.0020	0.0105	-0.0602	24.3331	-20.0950	16.7924	0.0958	-0.6835	0.0700	0.7203
0.84	-9.5801	-0.2912	0.6121	-0.0032	0.0127	-0.0629	24.4500	-19.9679	17.1535	0.0958	-0.6834	0.0700	0.7202
0.85	-9.6016	-0.2826	0.6007	-0.0023	0.0128	-0.0617	24.3406	-20.1051	16.9338	0.0959	-0.6836	0.0700	0.7202
0.86	-9.6192	-0.2722	0.5961	-0.0046	0.0172	-0.0554	24.1950	-20.3396	17.1014	0.0959	-0.6836	0.0700	0.7201
0.87	-9.6353	-0.2612	0.5935	-0.0156	0.0138	-0.0569	24.4539	-20.0550	17.0169	0.0959	-0.6836	0.0700	0.7201
0.88	-9.6442	-0.2577	0.5907	-0.0201	0.0118	-0.0524	24.3349	-20.0974	16.9937	0.0958	-0.6837	0.0700	0.7201
0.89	-9.6407	-0.2562	0.5843	-0.0240	0.0081	-0.0575	24.3915	-20.1334	17.1324	0.0958	-0.6837	0.0699	0.7201
0.9	-9.6389	-0.2643	0.5797	-0.0251	0.0121	-0.0545	24.2345	-20.0920	17.0446	0.0957	-0.6838	0.0699	0.7200
0.91	-9.6391	-0.2726	0.5793	-0.0272	0.0087	-0.0584	24.1365	-20.2163	16.8809	0.0957	-0.6837	0.0698	0.7199
0.92	-9.6453	-0.2852	0.5752	-0.0286	0.0001	-0.0556	24.3031	-20.0038	17.0520	0.0956	-0.6838	0.0698	0.7200
0.93	-9.6445	-0.2986	0.5772	-0.0275	-0.0024	-0.0582	24.2439	-20.1679	16.9185	0.0956	-0.6838	0.0697	0.7200
0.94	-9.6388	-0.3083	0.5756	-0.0287	0.0011	-0.0559	24.2897	-20.0789	16.9871	0.0955	-0.6839	0.0696	0.7201
0.95	-9.6258	-0.3062	0.5779	-0.0284	-0.0046	-0.0571	24.1628	-20.0900	16.9901	0.0955	-0.6838	0.0696	0.7200
0.96	-9.6320	-0.3074	0.5881	-0.0286	-0.0071	-0.0589	24.1820	-20.0198	17.0455	0.0954	-0.6838	0.0695	0.7201
0.97	-9.6531	-0.3277	0.6016	-0.0244	-0.0056	-0.0619	24.5606	-19.8462	17.4547	0.0954	-0.6838	0.0694	0.7201
0.98	-9.6472	-0.3437	0.6064	-0.0186	-0.0105	-0.0614	24.7329	-19.9133	17.4878	0.0954	-0.6837	0.0693	0.7201
0.99	-9.6243	-0.3286	0.6195	-0.0221	-0.0200	-0.0606	24.5731	-19.8362	17.2384	0.0954	-0.6837	0.0693	0.7203
1	-9.6012	-0.3276	0.6231	-0.0110	-0.0183	-0.0584	24.2939	-19.7757	17.0842	0.0954	-0.6836	0.0693	0.7203
1.01	-9.5593	-0.3356	0.6347	-0.0098	-0.0186	-0.0570	23.9413	-19.8184	17.2034	0.0954	-0.6836	0.0692	0.7204
1.02	-9.5570	-0.3222	0.6379	-0.0069	-0.0177	-0.0592	24.4776	-19.9929	17.1858	0.0954	-0.6834	0.0692	0.7204
1.03	-9.5587	-0.3221	0.6440	-0.0082	-0.0145	-0.0582	24.3513	-20.2176	17.0556	0.0955	-0.6834	0.0692	0.7205
1.04	-9.5624	-0.3237	0.6428	-0.0064	-0.0113	-0.0559	24.3356	-20.4011	16.9903	0.0955	-0.6833	0.0692	0.7205
1.05	-9.5579	-0.3095	0.6509	-0.0050	-0.0121	-0.0491	24.5050	-20.2184	17.0125	0.0955	-0.6833	0.0693	0.7205
1.06	-9.5686	-0.3043	0.6512	-0.0028	-0.0124	-0.0458	24.4960	-20.1993	17.0045	0.0955	-0.6833	0.0693	0.7206
1.07	-9.5834	-0.3054	0.6473	-0.0067	-0.0115	-0.0472	24.4811	-19.9228	16.8483	0.0955	-0.6832	0.0694	0.7206
1.08	-9.5875	-0.3012	0.6498	0.0011	0.0014	-0.0531	24.3238	-19.8012	16.7950	0.0955	-0.6832	0.0694	0.7207
1.09	-9.5921	-0.2959	0.6417	-0.0065	0.0036	-0.0549	24.3013	-20.1092	16.8185	0.0955	-0.6831	0.0694	0.7206
1.1	-9.5858	-0.2882	0.6458	0.0013	0.0029	-0.0537	24.4461	-19.8560	16.9193	0.0956	-0.6832	0.0695	0.7206
1.11	-9.5921	-0.2829	0.6456	0.0029	-0.0027	-0.0486	24.5134	-19.8869	17.0673	0.0956	-0.6832	0.0695	0.7206
1.12	-9.5881	-0.2900	0.6461	-0.0057	-0.0045	-0.0530	24.4955	-19.6916	17.0932	0.0956	-0.6832	0.0696	0.7207
1.13	-9.5918	-0.2789	0.6428	-0.0035	0.0012	-0.0562	24.4195	-19.8209	17.0813	0.0956	-0.6831	0.0696	0.7206
1.14	-9.5897	-0.2694	0.6435	-0.0080	0.0043	-0.0546	24.2490	-19.6871	17.0854	0.0956	-0.6831	0.0696	0.7206
1.15	-9.5900	-0.2681	0.6379	-0.0121	0.0029	-0.0584	24.2649	-19.9386	17.0882	0.0956	-0.6832	0.0696	0.7206
1.16	-9.5921	-0.2648	0.6417	-0.0163	0.0026	-0.0590	24.4276	-19.7651	17.0774	0.0956	-0.6831	0.0696	0.7206
1.17	-9.6010	-0.2627	0.6439	-0.0261	0.0036	-0.0492	24.2995	-19.9668	17.2049	0.0956	-0.6832	0.0695	0.7207
1.18	-9.6164	-0.2729	0.6418	-0.0245	0.0066	-0.0522	24.3140	-19.9065	17.1526	0.0955	-0.6832	0.0695	0.7206
1.19	-9.6132	-0.2765	0.6397	-0.0215	0.0106	-0.0537	24.1099	-19.7544	16.9842	0.0955	-0.6833	0.0695	0.7206
1.2	-9.6093	-0.2927	0.6341	-0.0294	0.0028	-0.0513	24.2473	-19.9959	17.0120	0.0954	-0.6832	0.0694	0.7205
1.21	-9.6154	-0.3052	0.6357	-0.0266	0.0033	-0.0481	24.4430	-20.0150	16.8463	0.0953	-0.6833	0.0694	0.7206
1.22	-9.5997	-0.3070	0.6328	-0.0248	-0.0050	-0.0424	24.5744	-20.0659	16.8381	0.0952	-0.6833	0.0694	0.7206
1.23	-9.5982	-0.3069	0.6314	-0.0211	-0.0049	-0.0500	24.5650	-20.1604	17.0363	0.0951	-0.6832	0.0693	0.7206
1.24	-9.5992	-0.3084	0.6309	-0.0229	-0.0026	-0.0520	24.7226	-20.1303	16.8791	0.0951	-0.6833	0.0693	0.7207
1.25	-9.5966	-0.3140	0.6300	-0.0200	-0.0045	-0.0514	24.5798	-20.1031	16.7966	0.0950	-0.6832	0.0693	0.7207
1.26	-9.5959	-0.3102	0.6342	-0.0065	0.0001	-0.0557	24.4746	-20.1255	16.8595	0.0951	-0.6833	0.0693	0.7207
1.27	-9.5900	-0.3138	0.6332	-0.0082	-0.0109	-0.0543	24.4263	-20.0363	17.1241	0.0950	-0.6831	0.0693	0.7207
1.28	-9.5886	-0.3131	0.6381	-0.0027	0.0042	-0.0589	24.1639	-20.0940	16.9428	0.0951	-0.6832	0.0693	0.7207
1.29	-9.5833	-0.3088	0.6300	-0.0040	0.0023	-0.0565	24.1144	-20.0480	16.9204	0.0951	-0.6832	0.0693	0.7207
1.3	-9.5877	-0.2963	0.6316	-0.0033	0.0058	-0.0579	24.2292	-19.8123	17.1123	0.0951	-0.6832	0.0694	0.7207
1.31	-9.5873	-0.2902	0.6349	-0.0038	0.0015	-0.0596	24.2205	-19.7990	17.0623	0.0952	-0.6832	0.0694	0.7207
1.32	-9.5871	-0.2753	0.6296	-0.0027	0.0051	-0.0586	24.2630	-19.9453	16.9856	0.0952	-0.6832	0.0694	0.7206
1.33	-9.5924	-0.2613	0.6302	-0.0029	0.0047	-0.0545	24.3401	-19.8130	16.9921	0.0953	-0.6832	0.0694	0.7207
1.34	-9.5900	-0.2515	0.6329	-0.0028	0.0044	-0.0535	24.3097	-19.8138	16.9986	0.0953	-0.6832	0.0695	0.7206
1.35	-9.5924	-0.2413	0.6268	-0.0025	0.0054	-0.0571	24.3183	-19.6823	17.0818	0.0953	-0.6833	0.0695	0.7206
1.36	-9.5945	-0.2361	0.6256	-0.0044	0.0071	-0.0510	24.3351	-19.9538	17.1310	0.0953	-0.6832	0.0695	0.7206
1.37	-9.6035	-0.2375	0.6246	-0.0181	0.0117	-0.0549	24.2396	-20.2038	17.2279	0.0953	-0.6833	0.0695	0.7206
1.38	-9.6018	-0.2502	0.6225	-0.0219	0.0026	-0.0557	24.2151	-20.0419	16.9753	0.0952	-0.6833	0.0695	0.7205
1.39	-9.5978	-0.2640	0.6205	-0.0283	0.0010	-0.0554	24.3665	-19.9702	16.9909	0.0952	-0.6833	0.0694	0.7205
1.4	-9.5954	-0.2806	0.6147	-0.0278	0.0111	-0.0597	24.4420	-19.9923	17.0511	0.0951	-0.6834	0.0694	0.7205
1.41	-9.5988	-0.3008	0.6088	-0.0299	0.0104	-0.0576	24.2938	-19.9568	17.1236	0.0951	-0.6834	0.0693	0.7204
1.42	-9.6050	-0.3146	0.6109	-0.0244	0.0103	-0.0569	24.4478	-20.2164	16.9548	0.0950	-0.6835	0.0692	0.7205
1.43	-9.5983	-0.3177	0.6087	-0.0229	0.0122	-0.0580	24.4865	-20.0852	17.0674	0.0950	-0.6835	0.0692	0.7204
1.44	-9.5990	-0.3165	0.6129	-0.0274	0.0081	-0.0509	24.3079	-20.0967	17.0965	0.0949	-0.6836	0.0691	0.7205
1.45	-9.6105	-0.3120	0.6139	-0.0204	0.0061	-0.0493	24.3206	-19.8631	17.0977	0.0949	-0.6835	0.0691	0.7204
1.46	-9.6305	-0.3099	0.6120	-0.0125	0.0089	-0.0509	24.3180	-20.0540	17.0576	0.0948	-0.6836	0.0691	0.7204
1.47	-9.6371	-0.3081	0.6169	-0.0066	0.0011	-0.0525	24.7137	-20.0169	17.2135	0.0948	-0.6836	0.0692	0.7204
1.48	-9.6250	-0.2940	0.6160	-0.0073	-0.0016	-0.0551	25.1262	-19.9628	17.6421	0.0948	-0.6835	0.0692	0.7203
1.49	-9.6150	-0.2845	0.6220	-0.0083	0.0033	-0.0544	24.4921	-19.9240	17.2204	0.0949	-0.6836	0.0692	0.7204
1.5	-9.6102	-0.2854	0.6174	-0.0123	0.0020	-0.0553	24.2108	-19.9403	16.9433	0.0948	-0.6836	0.0692	0.7204
1.51	-9.5957	-0.2819	0.6205	-0.0110	-0.0006	-0.0594	23.9035	-19.9798	17.1376	0.0949	-0.6836	0.0692	0.7204
1.52	-9.5808	-0.2682	0.6262	-0.0098	-0.0005	-0.0576	23.9289	-20.0044	17.0997	0.0949	-0.6835	0.0692	0.7203
1.53	-9.5700	-0.2705	0.6237	-0.0115	-0.0027	-0.0577	24.0929	-20.0974	17.2486	0.0949	-0.6836	0.0692	0.7204
1.54	-9.5648	-0.2772	0.6257	-0.0131	0.0028	-0.0591	24.1532	-19.9438	17.1429	0.0949	-0.6836	0.0691	0.7204
1.55	-9.5758	-0.2898	0.6323	-0.0129	0.0123	-0.0563	24.0512	-20.1104	17.0971	0.0949	-0.6836	0.0691	0.7203
1.56	-9.5845	-0.3015	0.6268	-0.0135	0.0035	-0.0573	24.0260	-19.9890	17.1347	0.0949	-0.6837	0.0691	0.7203
1.57	-9.5645	-0.3065	0.6254	-0.0135	0.0046	-0.0524	24.2025	-19.7408	16.9343	0.0948	-0.6836	0.0691	0.7203
1.58	-9.5898	-0.3087	0.6209	-0.0063	0.0152	-0.0555	24.2126	-20.0033	16.9742	0.0949	-0.6837	0.0691	0.7203
1.59	-9.6081	-0.2910	0.6192	-0.0038	0.0062	-0.0499	24.3008	-20.3051	17.1392	0.0948	-0.6837	0.0692	0.7202
1.6	-9.5994	-0.2818	0.6200	-0.0130	0.0058	-0.0491	24.3156	-20.1252	17.1133	0.0948	-0.6838	0.0692	0.7203
1.61	-9.5986	-0.2754	0.6200	-0.0050	0.0105	-0.0562	24.3006	-20.2455	17.1081	0.0948	-0.6838	0.0692	0.7202
1.62	-9.5964	-0.2659	0.6227	-0.0080	0.0035	-0.0602	24.3144	-20.2319	16.9045	0.0949	-0.6838	0.0692	0.7202
1.63	-9.6039	-0.2709	0.6243	0.0001	0.0131	-0.0614	24.3042	-19.9496	16.9717	0.0949	-0.6838	0.0692	0.7201
1.64	-9.6369	-0.2726	0.6322	-0.0174	0.0164	-0.0607	24.1916	-20.0584	16.8539	0.0949	-0.6839	0.0692	0.7201
1.65	-9.6585	-0.2734	0.6319	-0.0229	0.0087	-0.0660	24.2457	-20.2612	17.1455	0.0949	-0.6839	0.0691	0.7201
1.66	-9.6528	-0.2828	0.6345	-0.0175	-0.0087	-0.0597	24.1305	-19.9597	17.2311	0.0949	-0.6838	0.0691	0.7200
1.67	-9.6203	-0.2915	0.6251	-0.0223	-0.0069	-0.0570	24.0255	-20.0487	17.1114	0.0949	-0.6839	0.0690	0.7201
1.68	-9.5613	-0.2925	0.6204	-0.0244	0.0022	-0.0588	24.2061	-19.9065	17.0430	0.0948	-0.6839	0.0690	0.7201
1.69	-9.5465	-0.2956	0.6201	-0.0277	0.0061	-0.0523	24.2258	-20.0519	16.8657	0.0948	-0.6840	0.0689	0.7202
1.7	-9.5609	-0.3031	0.6136	-0.0285	0.0086	-0.0475	24.2162	-20.1163	17.0590	0.0947	-0.6839	0.0689	0.7200
1.71	-9.5768	-0.3059	0.6147	-0.0264	0.0095	-0.0460	24.2203	-19.7255	17.1217	0.0946	-0.6840	0.0689	0.7201
1.72	-9.5996	-0.3004	0.6140	-0.0282	0.0139	-0.0430	23.8462	-20.1143	17.0795	0.0945	-0.6840	0.0689	0.7200
1.73	-9.6048	-0.2992	0.6132	-0.0260	0.0088	-0.0462	24.0026	-19.9937	16.9037	0.0944	-0.6840	0.0688	0.7200
1.74	-9.6051	-0.3087	0.6103	-0.0221	0.0083	-0.0527	24.2733	-20.0203	17.0450	0.0943	-0.6841	0.0688	0.7200
1.75	-9.5962	-0.3109	0.6020	-0.0144	0.0091	-0.0620	24.3179	-19.9525	17.3078	0.0943	-0.6841	0.0688	0.7200
1.76	-9.5713	-0.3096	0.6054	-0.0115	0.0043	-0.0586	24.0543	-19.9025	17.2287	0.0943	-0.6842	0.0688	0.7200
1.77	-9.5612	-0.3114	0.6093	-0.0139	0.0084	-0.0605	24.0366	-19.9076	17.1850	0.0943	-0.6841	0.0687	0.7199
1.78	-9.5589	-0.3033	0.6122	-0.0065	0.0042	-0.0614	24.1451	-19.9358	17.2198	0.0944	-0.6842	0.0687	0.7199
1.79	-9.5635	-0.2936	0.6094	-0.0098	0.0029	-0.0653	24.1537	-20.0180	17.0057	0.0944	-0.6842	0.0687	0.7199
1.8	-9.5701	-0.2835	0.6038	-0.0084	0.0093	-0.0648	24.3295	-20.0295	17.1048	0.0945	-0.6842	0.0687	0.7198
1.81	-9.5845	-0.2728	0.6027	-0.0039	0.0162	-0.0602	24.2048	-20.4190	17.2238	0.0945	-0.6843	0.0687	0.7198
1.82	-9.5997	-0.2679	0.5985	-0.0117	0.0155	-0.0557	24.2147	-20.1575	17.0905	0.0945	-0.6843	0.0687	0.7197
1.83	-9.6156	-0.2626	0.5890	-0.0220	0.0149	-0.0499	24.2410	-20.0475	17.1274	0.0944	-0.6844	0.0687	0.7197
1.84	-9.6313	-0.2724	0.5880	-0.0288	0.0177	-0.0572	24.1164	-20.1978	17.1149	0.0944	-0.6844	0.0686	0.7196
1.85	-9.6496	-0.2890	0.5837	-0.0254	0.0105	-0.0556	24.1461	-20.0528	17.1094	0.0943	-0.6845	0.0686	0.7197
1.86	-9.6509	-0.2966	0.5860	-0.0238	0.0113	-0.0567	24.4210	-19.9772	16.9822	0.0943	-0.6845	0.0686	0.7196
1.87	-9.6439	-0.3048	0.5786	-0.0239	0.0088	-0.0553	24.3303	-20.0196	17.3666	0.0942	-0.6846	0.0685	0.7196
1.88	-9.6371	-0.3093	0.5735	-0.0237	0.0083	-0.0453	24.2037	-19.9720	16.9599	0.0941	-0.6846	0.0685	0.7195
1.89	-9.6008	-0.3061	0.5737	-0.0211	0.0013	-0.0519	24.1034	-20.0549	16.8325	0.0941	-0.6846	0.0685	0.7196
1.9	-9.5874	-0.2885	0.5829	-0.0255	-0.0071	-0.0546	24.1614	-20.0821	17.0012	0.0940	-0.6846	0.0684	0.7196
1.91	-9.6163	-0.2953	0.5897	-0.0223	0.0062	-0.0596	24.0264	-20.1336	17.1402	0.0940	-0.6846	0.0684	0.7195
1.92	-9.6292	-0.3189	0.5826	-0.0085	0.0010	-0.0622	24.0604	-19.8087	16.9579	0.0940	-0.6847	0.0684	0.7196
1.93	-9.5922	-0.3141	0.5853	-0.0084	0.0004	-0.0702	24.0094	-19.8173	16.9842	0.0941	-0.6846	0.0683	0.7196
1.94	-9.5833	-0.3117	0.5884	-0.0117	0.0007	-0.0738	24.1443	-20.1607	17.2053	0.0942	-0.6847	0.0683	0.7196
1.95	-9.5581	-0.3260	0.5919	-0.0054	-0.0115	-0.0689	24.0217	-19.9605	16.8707	0.0942	-0.6845	0.0682	0.7195
1.96	-9.5621	-0.3199	0.5938	-0.0034	0.0014	-0.0659	23.9617	-20.1463	16.9795	0.0943	-0.6846	0.0682	0.7196
1.97	-9.5949	-0.3161	0.5824	0.0001	0.0090	-0.0533	24.6548	-20.0195	17.2375	0.0943	-0.6846	0.0683	0.7196
1.98	-9.6256	-0.3164	0.5899	-0.0088	0.0083	-0.0508	24.9699	-19.9133	17.1105	0.0943	-0.6846	0.0683	0.7195
1.99	-9.6487	-0.2864	0.5934	-0.0162	0.0002	-0.0458	24.7945	-19.9449	17.1382	0.0943	-0.6847	0.0683	0.7196
2	-9.6619	-0.2713	0.5912	-0.0204	-0.0081	-0.0409	24.5587	-20.0342	17.0179	0.0942	-0.6846	0.0683	0.7196
2.01	-9.6715	-0.2880	0.5939	-0.0150	-0.0079	-0.0492	24.1968	-19.9417	17.0661	0.0942	-0.6846	0.0683	0.7196
2.02	-9.6716	-0.2900	0.5960	-0.0184	-0.0086	-0.0456	24.1808	-19.9734	17.0837	0.0941	-0.6845	0.0683	0.7196
2.03	-9.6610	-0.2880	0.6017	-0.0309	-0.0096	-0.0590	24.2677	-20.1745	16.9623	0.0941	-0.6845	0.0682	0.7197
2.04	-9.6394	-0.3147	0.6062	-0.0230	-0.0201	-0.0556	24.1253	-19.9854	16.9881	0.0940	-0.6844	0.0682	0.7198
2.05	-9.6139	-0.3223	0.6101	-0.0284	-0.0229	-0.0566	24.2682	-19.8859	16.9890	0.0940	-0.6843	0.0681	0.7198
2.06	-9.5921	-0.3233	0.6200	-0.0267	-0.0193	-0.0542	24.2750	-19.9728	16.8642	0.0939	-0.6843	0.0681	0.7199
2.07	-9.5900	-0.3388	0.6257	-0.0262	-0.0189	-0.0490	24.1027	-19.9672	17.0708	0.0938	-0.6842	0.0680	0.7200
2.08	-9.5683	-0.3469	0.6221	-0.0151	-0.0224	-0.0494	24.1265	-19.7797	17.2166	0.0938	-0.6842	0.0680	0.7201
2.09	-9.5540	-0.3414	0.6397	-0.0114	-0.0162	-0.0476	24.2839	-19.8042	17.0402	0.0938	-0.6840	0.0680	0.7201
2.1	-9.5605	-0.3422	0.6439	-0.0072	-0.0078	-0.0416	24.2569	-19.9773	17.0999	0.0938	-0.6841	0.0681	0.7202
2.11	-9.5508	-0.3465	0.6524	-0.0023	-0.0158	-0.0411	24.2688	-19.8517	17.0191	0.0937	-0.6840	0.0681	0.7202
2.12	-9.5432	-0.3382	0.6547	-0.0030	-0.0029	-0.0427	24.2642	-19.9016	16.9560	0.0937	-0.6840	0.0682	0.7203
2.13	-9.5337	-0.3170	0.6514	0.0002	-0.0081	-0.0407	24.2660	-19.7824	17.0036	0.0937	-0.6839	0.0683	0.7203
2.14	-9.5337	-0.3017	0.6545	0.0062	-0.0091	-0.0352	24.2600	-20.0383	16.8138	0.0937	-0.6839	0.0684	0.7203
2.15	-9.5432	-0.2774	0.6479	0.0187	0.0034	-0.0337	24.0845	-20.0881	17.0451	0.0937	-0.6839	0.0686	0.7203
2.16	-9.5563	-0.2594	0.6395	0.0183	0.0091	-0.0460	24.4736	-19.9432	17.0759	0.0938	-0.6838	0.0687	0.7202
2.17	-9.5665	-0.2316	0.6341	0.0103	0.0084	-0.0559	24.4024	-20.1052	17.0989	0.0938	-0.6839	0.0688	0.7203
2.18	-9.5831	-0.2065	0.6397	0.0072	0.0129	-0.0555	24.3892	-20.1146	17.1675	0.0939	-0.6839	0.0689	0.7202
2.19	-9.6176	-0.2309	0.6243	0.0003	0.0181	-0.0590	24.4170	-20.0398	16.9761	0.0940	-0.6840	0.0689	0.7202
2.2	-9.6240	-0.2091	0.6184	0.0088	0.0181	-0.0619	24.2209	-19.9849	16.9697	0.0940	-0.6840	0.0690	0.7200
2.21	-9.6218	-0.1965	0.6190	-0.0020	0.0148	-0.0632	24.4138	-19.9462	17.1348	0.0941	-0.6841	0.0690	0.7200
2.22	-9.6427	-0.2225	0.6149	-0.0052	0.0127	-0.0595	24.2737	-20.0145	16.9569	0.0941	-0.6841	0.0690	0.7200
2.23	-9.6367	-0.2302	0.6105	-0.0157	0.0079	-0.0643	24.2603	-20.1573	17.1675	0.0941	-0.6841	0.0690	0.7199
2.24	-9.6347	-0.2505	0.6025	-0.0210	0.0029	-0.0611	24.2627	-20.0463	17.1541	0.0941	-0.6842	0.0689	0.7200
2.25	-9.6236	-0.2649	0.6008	-0.0261	0.0014	-0.0577	24.2741	-19.7770	16.9324	0.0941	-0.6842	0.0689	0.7199
2.26	-9.6209	-0.2674	0.6049	-0.0283	-0.0029	-0.0591	24.2453	-19.8681	17.2160	0.0940	-0.6842	0.0688	0.7200
2.27	-9.6218	-0.2792	0.6052	-0.0261	-0.0046	-0.0579	24.3691	-19.8852	17.0389	0.0940	-0.6841	0.0687	0.7199
2.28	-9.6222	-0.2829	0.6057	-0.0283	-0.0051	-0.0549	24.3320	-19.7759	17.1018	0.0939	-0.6842	0.0687	0.7200
2.29	-9.6144	-0.2857	0.6064	-0.0283	-0.0045	-0.0520	24.2402	-19.9644	17.0052	0.0939	-0.6841	0.0686	0.7200
2.3	-9.6161	-0.2882	0.6110	-0.0277	-0.0073	-0.0561	24.2765	-19.9814	17.0150	0.0938	-0.6841	0.0686	0.7200
2.31	-9.6105	-0.2901	0.6120	-0.0290	-0.0084	-0.0528	24.2602	-19.8647	17.3253	0.0937	-0.6841	0.0685	0.7201
2.32	-9.5982	-0.2834	0.6159	-0.0280	-0.0105	-0.0628	24.1404	-19.7672	17.1689	0.0937	-0.6841	0.0684	0.7201
2.33	-9.5868	-0.2822	0.6165	-0.0287	-0.0124	-0.0605	24.4574	-20.0477	16.9982	0.0937	-0.6840	0.0683	0.7202
2.34	-9.5774	-0.2981	0.6169	-0.0253	-0.0119	-0.0607	24.3288	-20.0558	16.8844	0.0936	-0.6839	0.0682	0.7202
2.35	-9.5790	-0.3070	0.6151	-0.0240	-0.0100	-0.0624	24.5043	-20.0684	16.9022	0.0936	-0.6840	0.0682	0.7203
2.36	-9.5791	-0.3126	0.6165	-0.0292	-0.0067	-0.0597	24.6367	-20.3441	17.0505	0.0936	-0.6839	0.0681	0.7203
2.37	-9.5781	-0.3259	0.6102	-0.0272	-0.0099	-0.0636	24.3731	-20.2409	17.1396	0.0936	-0.6839	0.0680	0.7204
2.38	-9.5854	-0.3262	0.6157	-0.0289	0.0014	-0.0583	24.1279	-20.2294	16.7386	0.0935	-0.6839	0.0679	0.7203
2.39	-9.5964	-0.3331	0.6147	-0.0254	-0.0019	-0.0574	24.3685	-20.1182	16.8800	0.0935	-0.6839	0.0679	0.7204
2.4	-9.5934	-0.3302	0.6164	-0.0196	-0.0031	-0.0504	24.6272	-20.1768	17.2334	0.0934	-0.6839	0.0678	0.7204
2.41	-9.6074	-0.3224	0.6201	-0.0212	-0.0043	-0.0460	24.3170	-19.9843	17.0517	0.0934	-0.6838	0.0678	0.7203
2.42	-9.6318	-0.3227	0.6179	-0.0196	-0.0066	-0.0495	24.3813	-19.8402	16.9877	0.0933	-0.6839	0.0678	0.7205
2.43	-9.6309	-0.3237	0.6170	-0.0199	-0.0040	-0.0489	24.4601	-19.7890	16.9382	0.0933	-0.6838	0.0678	0.7204
2.44	-9.6267	-0.3251	0.6207	-0.0168	-0.0053	-0.0429	24.1788	-19.7831	16.8500	0.0932	-0.6839	0.0678	0.7205
2.45	-9.6227	-0.3289	0.6257	-0.0156	-0.0081	-0.0509	24.1665	-19.8999	16.9905	0.0932	-0.6838	0.0678	0.7205
2.46	-9.6148	-0.3305	0.6259	-0.0113	-0.0031	-0.0490	24.4210	-19.7391	17.2232	0.0931	-0.6838	0.0678	0.7205
2.47	-9.6119	-0.3273	0.6322	-0.0022	-0.0057	-0.0533	24.4764	-19.6867	17.0697	0.0932	-0.6838	0.0679	0.7206
2.48	-9.6188	-0.3197	0.6369	-0.0008	-0.0089	-0.0502	24.6640	-19.4008	17.1276	0.0932	-0.6837	0.0679	0.7205
2.49	-9.5946	-0.3141	0.6351	-0.0007	-0.0043	-0.0510	24.4230	-19.6702	17.3037	0.0932	-0.6837	0.0680	0.7207
2.5	-9.5707	-0.3018	0.6427	0.0102	-0.0081	-0.0515	24.3714	-19.8480	17.4650	0.0932	-0.6836	0.0681	0.7206
2.51	-9.5783	-0.2749	0.6440	0.0155	-0.0146	-0.0459	23.9856	-19.9040	17.1421	0.0933	-0.6836	0.0682	0.7207
2.52	-9.5683	-0.2475	0.6510	0.0211	-0.0133	-0.0581	24.0400	-20.1182	16.9715	0.0934	-0.6835	0.0683	0.7206
2.53	-9.5429	-0.2143	0.6515	0.0205	-0.0058	-0.0600	24.3938	-20.0690	17.1152	0.0936	-0.6835	0.0684	0.7207
2.54	-9.5588	-0.2024	0.6490	-0.0000	-0.0043	-0.0593	24.2586	-20.2570	17.2723	0.0936	-0.6835	0.0684	0.7207
2.55	-9.5625	-0.2024	0.6505	0.0009	0.0032	-0.0604	24.1363	-20.2572	17.2004	0.0937	-0.6834	0.0684	0.7207
2.56	-9.5859	-0.2011	0.6644	-0.0032	0.0006	-0.0646	24.1444	-20.1809	17.1792	0.0937	-0.6835	0.0684	0.7207
2.57	-9.6277	-0.2178	0.6599	-0.0151	0.0026	-0.0679	24.3871	-19.9992	17.0255	0.0938	-0.6835	0.0684	0.7207
2.58	-9.6363	-0.2428	0.6625	-0.0250	0.0039	-0.0684	24.2316	-20.0587	17.2421	0.0938	-0.6835	0.0683	0.7207
2.59	-9.6211	-0.2574	0.6576	-0.0246	-0.0029	-0.0717	24.2266	-20.0821	17.2208	0.0938	-0.6834	0.0682	0.7206
2.6	-9.5637	-0.2724	0.6501	-0.0285	-0.0087	-0.0644	24.2312	-20.1055	16.9145	0.0938	-0.6835	0.0681	0.7207
2.61	-9.5322	-0.2945	0.6359	-0.0291	-0.0078	-0.0578	24.2253	-20.1697	17.1015	0.0937	-0.6834	0.0680	0.7207
2.62	-9.5192	-0.3078	0.6237	-0.0396	0.0015	-0.0544	24.2423	-19.9788	17.2934	0.0936	-0.6835	0.0679	0.7208
2.63	-9.5418	-0.3107	0.6132	-0.0415	0.0136	-0.0469	24.1357	-19.9173	17.1651	0.0935	-0.6835	0.0679	0.7207
2.64	-9.5620	-0.3102	0.5990	-0.0296	0.0217	-0.0466	24.0142	-19.8877	17.0420	0.0934	-0.6836	0.0678	0.7207
2.65	-9.5875	-0.3183	0.5895	-0.0327	0.0189	-0.0529	24.3207	-19.9598	17.1585	0.0933	-0.6837	0.0678	0.7206
2.66	-9.6068	-0.3260	0.5682	-0.0292	0.0191	-0.0532	24.2376	-20.0753	17.1881	0.0932	-0.6837	0.0677	0.7205
2.67	-9.6144	-0.3359	0.5607	-0.0284	0.0212	-0.0565	24.1303	-20.2026	17.1807	0.0931	-0.6839	0.0677	0.7205
2.68	-9.6325	-0.3366	0.5553	-0.0175	0.0241	-0.0637	24.1108	-20.2704	17.0188	0.0931	-0.6839	0.0676	0.7204
2.69	-9.6486	-0.3386	0.5422	-0.0179	0.0092	-0.0670	24.0120	-20.0131	17.0011	0.0931	-0.6840	0.0676	0.7204
2.7	-9.6584	-0.3285	0.5461	-0.0138	-0.0015	-0.0744	24.1563	-19.8956	16.8797	0.0932	-0.6839	0.0675	0.7203
2.71	-9.6697	-0.3151	0.5481	-0.0190	-0.0018	-0.0741	24.3791	-20.0296	17.1763	0.0932	-0.6840	0.0674	0.7204
2.72	-9.6931	-0.3132	0.5505	-0.0045	-0.0099	-0.0747	24.4065	-19.9392	17.1270	0.0933	-0.6839	0.0674	0.7204
2.73	-9.7012	-0.3082	0.5435	-0.0102	-0.0054	-0.0766	24.1174	-19.8647	17.0510	0.0934	-0.6839	0.0673	0.7204
2.74	-9.6947	-0.2989	0.5605	-0.0206	-0.0194	-0.0707	24.1618	-20.1483	17.2123	0.0934	-0.6839	0.0672	0.7205
2.75	-9.7123	-0.3020	0.5656	-0.0202	-0.0187	-0.0733	24.2444	-20.1385	17.1621	0.0935	-0.6838	0.0671	0.7205
2.76	-9.7117	-0.3082	0.5719	-0.0275	-0.0303	-0.0736	24.2301	-20.0563	17.2059	0.0935	-0.6838	0.0670	0.7207
2.77	-9.6997	-0.3199	0.5894	-0.0269	-0.0350	-0.0712	24.2185	-20.1101	17.0726	0.0935	-0.6835	0.0668	0.7207
2.78	-9.6778	-0.3347	0.5962	-0.0325	-0.0373	-0.0674	24.2543	-19.8281	17.0964	0.0935	-0.6835	0.0667	0.7209
2.79	-9.6569	-0.3582	0.6191	-0.0360	-0.0458	-0.0617	24.1817	-19.8484	17.2253	0.0935	-0.6833	0.0666	0.7211
2.8	-9.6447	-0.3807	0.6256	-0.0326	-0.0498	-0.0598	24.4088	-20.0061	17.0707	0.0934	-0.6831	0.0665	0.7212
2.81	-9.6096	-0.3819	0.6418	-0.0330	-0.0472	-0.0569	24.4014	-19.9850	17.1044	0.0934	-0.6830	0.0664	0.7214
2.82	-9.5605	-0.3841	0.6595	-0.0321	-0.0530	-0.0558	24.0466	-20.0087	17.1906	0.0933	-0.6828	0.0663	0.7216
2.83	-9.5762	-0.3895	0.6835	-0.0317	-0.0486	-0.0444	24.2382	-19.9681	17.1663	0.0932	-0.6826	0.0662	0.7218
2.84	-9.5883	-0.4144	0.6946	-0.0272	-0.0480	-0.0422	24.2921	-20.1014	16.7843	0.0931	-0.6824	0.0662	0.7219
2.85	-9.5400	-0.4131	0.7151	-0.0280	-0.0537	-0.0431	24.3584	-20.0601	16.6192	0.0931	-0.6823	0.0661	0.7222
2.86	-9.5233	-0.3913	0.7262	-0.0267	-0.0507	-0.0381	24.2459	-19.9809	17.0876	0.0929	-0.6820	0.0661	0.7223
2.87	-9.4791	-0.4009	0.7270	-0.0243	-0.0500	-0.0405	24.2378	-19.9937	17.0833	0.0929	-0.6819	0.0661	0.7226
2.88	-9.4526	-0.3851	0.7386	-0.0165	-0.0399	-0.0320	24.2825	-20.0066	17.0886	0.0928	-0.6817	0.0661	0.7227
2.89	-9.4717	-0.3683	0.7369	-0.0100	-0.0356	-0.0285	24.2959	-20.0857	16.9564	0.0927	-0.6816	0.0662	0.7228
2.9	-9.4599	-0.3548	0.7408	-0.0012	-0.0196	-0.0175	24.6027	-20.1326	17.0686	0.0926	-0.6815	0.0663	0.7229
2.91	-9.4806	-0.3232	0.7344	-0.0010	-0.0143	-0.0157	24.2757	-20.1868	17.0666	0.0925	-0.6814	0.0665	0.7229
2.92	-9.5019	-0.2974	0.7352	0.0006	-0.0051	-0.0149	24.5369	-20.1642	16.5884	0.0924	-0.6814	0.0667	0.7231
2.93	-9.5254	-0.2775	0.7327	0.0080	-0.0000	-0.0119	24.3315	-20.4685	16.6154	0.0923	-0.6813	0.0669	0.7230
2.94	-9.5540	-0.2713	0.7223	0.0111	0.0061	-0.0262	24.2661	-20.0952	16.8100	0.0923	-0.6814	0.0671	0.7231
2.95	-9.5683	-0.2535	0.7139	0.0108	0.0157	-0.0292	24.1035	-20.0840	16.9258	0.0922	-0.6813	0.0673	0.7229
2.96	-9.5717	-0.2403	0.7044	0.0105	0.0123	-0.0304	24.4159	-20.1772	16.9718	0.0922	-0.6814	0.0674	0.7229
2.97	-9.5790	-0.2250	0.7038	0.0144	0.0126	-0.0346	24.7411	-20.0306	16.9455	0.0922	-0.6814	0.0676	0.7229
2.98	-9.5886	-0.2058	0.6902	0.0209	0.0119	-0.0343	24.7909	-20.1269	17.3333	0.0922	-0.6814	0.0678	0.7228
2.99	-9.6062	-0.1916	0.6889	0.0170	0.0077	-0.0417	24.6180	-19.8860	17.1163	0.0923	-0.6815	0.0680	0.7229
3	-9.6154	-0.1802	0.6849	0.0073	0.0115	-0.0437	24.3587	-19.7990	16.9603	0.0923	-0.6815	0.0681	0.7228
3.01	-9.6286	-0.1702	0.6816	0.0106	0.0068	-0.0467	24.2618	-19.8998	16.8494	0.0923	-0.6815	0.0682	0.7228
3.02	-9.6296	-0.1590	0.6748	0.0096	0.0111	-0.0507	24.2648	-19.9154	16.8038	0.0924	-0.6815	0.0683	0.7227
3.03	-9.6350	-0.1546	0.6740	0.0019	0.0010	-0.0496	24.2403	-20.0392	16.9806	0.0924	-0.6815	0.0684	0.7227
3.04	-9.6485	-0.1634	0.6719	-0.0029	0.0101	-0.0581	24.1086	-19.8079	16.9932	0.0924	-0.6815	0.0684	0.7227
3.05	-9.6402	-0.1557	0.6594	-0.0031	-0.0004	-0.0684	24.3229	-19.9251	17.1048	0.0925	-0.6815	0.0684	0.7227
3.06	-9.6310	-0.1558	0.6677	-0.0063	-0.0008	-0.0734	24.4603	-19.9018	17.0004	0.0926	-0.6816	0.0684	0.7227
3.07	-9.6389	-0.1742	0.6692	-0.0159	-0.0034	-0.0748	24.4003	-19.9651	16.8905	0.0926	-0.6815	0.0683	0.7227
3.08	-9.6328	-0.1796	0.6617	-0.0257	-0.0072	-0.0774	24.2884	-20.0087	16.9463	0.0927	-0.6816	0.0682	0.7227
3.09	-9.6351	-0.1848	0.6638	-0.0240	-0.0097	-0.0797	24.5369	-20.0893	16.8345	0.0927	-0.6814	0.0680	0.7227
3.1	-9.6226	-0.1976	0.6691	-0.0310	-0.0105	-0.0815	24.5026	-20.1974	16.7075	0.0928	-0.6815	0.0679	0.7228
3.11	-9.6164	-0.2151	0.6711	-0.0318	-0.0146	-0.0849	24.5562	-20.0448	16.6184	0.0928	-0.6814	0.0677	0.7228
3.12	-9.6088	-0.2389	0.6647	-0.0426	-0.0113	-0.0844	24.3686	-20.1872	16.7222	0.0928	-0.6814	0.0675	0.7229
3.13	-9.5884	-0.2616	0.6696	-0.0473	-0.0083	-0.0827	24.3159	-20.1963	16.7631	0.0928	-0.6814	0.0672	0.7228
3.14	-9.5758	-0.2827	0.6720	-0.0505	-0.0102	-0.0839	24.3628	-20.0347	16.9537	0.0927	-0.6814	0.0670	0.7229
3.15	-9.5886	-0.3069	0.6761	-0.0525	-0.0122	-0.0805	24.3156	-20.0126	16.7088	0.0927	-0.6814	0.0668	0.7230
3.16	-9.5774	-0.3314	0.6772	-0.0520	-0.0130	-0.0724	24.4156	-19.9894	16.8224	0.0926	-0.6813	0.0665	0.7229
3.17	-9.5901	-0.3481	0.6779	-0.0550	-0.0132	-0.0706	24.7604	-20.0470	16.9501	0.0925	-0.6814	0.0663	0.7231
3.18	-9.5911	-0.3682	0.6714	-0.0546	-0.0025	-0.0650	24.0349	-19.7653	16.8815	0.0924	-0.6814	0.0661	0.7231
3.19	-9.5877	-0.3818	0.6762	-0.0540	-0.0132	-0.0574	24.2981	-19.8607	16.7313	0.0923	-0.6814	0.0660	0.7232
3.2	-9.6010	-0.3937	0.6748	-0.0531	-0.0111	-0.0592	24.3581	-20.1145	16.7403	0.0922	-0.6813	0.0658	0.7231
3.21	-9.6037	-0.4090	0.6682	-0.0551	-0.0099	-0.0591	24.4649	-20.0146	16.7290	0.0920	-0.6813	0.0656	0.7232
3.22	-9.5939	-0.4156	0.6788	-0.0403	-0.0118	-0.0557	24.3377	-19.9096	16.7734	0.0919	-0.6813	0.0655	0.7233
3.23	-9.6004	-0.4147	0.6849	-0.0303	-0.0091	-0.0529	24.1276	-19.7862	16.8776	0.0919	-0.6812	0.0654	0.7233
3.24	-9.6009	-0.4202	0.6879	-0.0315	-0.0194	-0.0463	24.2799	-20.0515	16.6558	0.0918	-0.6812	0.0654	0.7234
3.25	-9.5933	-0.4082	0.7010	-0.0222	-0.0153	-0.0462	24.3869	-19.8713	16.8715	0.0917	-0.6811	0.0654	0.7234
3.26	-9.5882	-0.3994	0.7085	-0.0066	-0.0191	-0.0410	24.4893	-19.9533	16.8312	0.0917	-0.6811	0.0654	0.7236
3.27	-9.5808	-0.3843	0.7122	-0.0029	-0.0190	-0.0337	24.6409	-19.8825	16.5107	0.0916	-0.6809	0.0655	0.7235
3.28	-9.5722	-0.3593	0.7144	-0.0022	-0.0138	-0.0360	24.5564	-20.1898	16.6737	0.0916	-0.6809	0.0656	0.7237
3.29	-9.5602	-0.3466	0.7181	-0.0022	-0.0148	-0.0349	24.5607	-20.3125	16.6782	0.0915	-0.6808	0.0657	0.7237
3.3	-9.5351	-0.3314	0.7225	0.0005	-0.0179	-0.0341	24.5787	-20.4825	16.8388	0.0915	-0.6808	0.0658	0.7238
3.31	-9.5224	-0.3136	0.7239	0.0085	-0.0123	-0.0301	24.2780	-20.2252	16.9524	0.0915	-0.6807	0.0660	0.7238
3.32	-9.5122	-0.3000	0.7191	0.0202	-0.0091	-0.0303	24.4011	-19.9442	16.8657	0.0915	-0.6806	0.0662	0.7239
3.33	-9.4980	-0.2733	0.7255	0.0168	-0.0045	-0.0318	24.4310	-20.2785	16.6307	0.0915	-0.6806	0.0663	0.7239
3.34	-9.4938	-0.2602	0.7191	0.0227	0.0043	-0.0310	24.4973	-20.2731	16.6553	0.0915	-0.6805	0.0665	0.7238
3.35	-9.4930	-0.2412	0.7209	0.0191	0.0063	-0.0317	24.5523	-20.1680	16.7610	0.0915	-0.6806	0.0667	0.7239
3.36	-9.5206	-0.2200	0.7134	0.0244	0.0193	-0.0305	24.2888	-20.0187	16.8781	0.0916	-0.6806	0.0670	0.7238
3.37	-9.5488	-0.2105	0.7040	0.0203	0.0231	-0.0313	24.2496	-19.7795	16.7188	0.0916	-0.6807	0.0672	0.7237
3.38	-9.5500	-0.2045	0.6907	0.0182	0.0261	-0.0304	24.3156	-20.0621	16.7487	0.0916	-0.6807	0.0674	0.7236
3.39	-9.5656	-0.1798	0.6735	0.0198	0.0425	-0.0352	24.3005	-20.0673	16.9717	0.0916	-0.6809	0.0676	0.7235
3.4	-9.6055	-0.1505	0.6718	0.0209	0.0441	-0.0366	24.4581	-19.9999	16.8686	0.0916	-0.6810	0.0678	0.7234
3.41	-9.6258	-0.1327	0.6596	0.0208	0.0404	-0.0442	24.1177	-19.9378	16.7084	0.0917	-0.6811	0.0680	0.7231
3.42	-9.6436	-0.1122	0.6594	0.0106	0.0307	-0.0527	24.2870	-19.9111	16.7679	0.0917	-0.6813	0.0681	0.7231
3.43	-9.6678	-0.1132	0.6424	0.0008	0.0250	-0.0605	24.2396	-19.9291	16.9703	0.0918	-0.6813	0.0681	0.7230
3.44	-9.6471	-0.1048	0.6402	0.0009	0.0201	-0.0657	24.2547	-19.9189	16.8802	0.0918	-0.6815	0.0682	0.7230
3.45	-9.6889	-0.1050	0.6507	-0.0042	0.0197	-0.0697	24.3313	-19.9109	17.0346	0.0919	-0.6814	0.0681	0.7228
3.46	-9.7671	-0.1236	0.6455	-0.0141	0.0122	-0.0814	24.4840	-20.1709	16.9985	0.0920	-0.6815	0.0681	0.7228
3.47	-9.7887	-0.1471	0.6585	-0.0242	-0.0061	-0.0877	24.9174	-20.1491	17.0614	0.0921	-0.6815	0.0679	0.7228
3.48	-9.7748	-0.1603	0.6581	-0.0273	-0.0115	-0.0929	25.0153	-19.9786	17.2164	0.0921	-0.6815	0.0677	0.7228
3.49	-9.7241	-0.1703	0.6618	-0.0336	-0.0256	-0.0936	24.6911	-20.0538	17.1621	0.0922	-0.6815	0.0675	0.7229
3.5	-9.6707	-0.2016	0.6673	-0.0392	-0.0283	-0.1016	24.4847	-20.0097	17.1027	0.0923	-0.6814	0.0672	0.7230
3.51	-9.6472	-0.2406	0.6762	-0.0551	-0.0300	-0.0959	24.2805	-19.8161	17.0444	0.0923	-0.6813	0.0669	0.7231
3.52	-9.6388	-0.2733	0.6919	-0.0552	-0.0393	-0.0954	24.2351	-20.0903	16.8683	0.0923	-0.6811	0.0666	0.7231
3.53	-9.6105	-0.2977	0.7047	-0.0551	-0.0402	-0.0940	24.2590	-20.2963	17.0622	0.0923	-0.6811	0.0663	0.7233
3.54	-9.5778	-0.3301	0.7182	-0.0606	-0.0451	-0.0857	24.3994	-20.0217	16.8815	0.0923	-0.6810	0.0660	0.7235
3.55	-9.5319	-0.3525	0.7208	-0.0636	-0.0451	-0.0848	24.4511	-19.9595	16.7488	0.0922	-0.6808	0.0657	0.7236
3.56	-9.4754	-0.3603	0.7257	-0.0729	-0.0394	-0.0852	24.3078	-20.0992	17.0563	0.0921	-0.6807	0.0654	0.7238
3.57	-9.4384	-0.3704	0.7291	-0.0601	-0.0321	-0.0790	24.0972	-20.0527	16.9316	0.0921	-0.6806	0.0651	0.7239
3.58	-9.4076	-0.3823	0.7335	-0.0545	-0.0284	-0.0666	24.2446	-19.8986	16.9016	0.0920	-0.6806	0.0649	0.7240
3.59	-9.3952	-0.3813	0.7400	-0.0540	-0.0199	-0.0615	24.2365	-19.9632	16.8136	0.0918	-0.6804	0.0647	0.7240
3.6	-9.4090	-0.3857	0.7367	-0.0521	0.0002	-0.0625	24.3681	-20.1307	16.8016	0.0917	-0.6805	0.0645	0.7241
3.61	-9.4295	-0.4019	0.7278	-0.0368	0.0205	-0.0582	24.2807	-20.1440	16.8247	0.0916	-0.6806	0.0644	0.7241
3.62	-9.4509	-0.4058	0.7259	-0.0297	0.0263	-0.0555	24.2210	-19.9726	16.7899	0.0916	-0.6807	0.0644	0.7240
3.63	-9.4653	-0.4000	0.7066	-0.0255	0.0315	-0.0547	24.3456	-20.0759	16.8420	0.0915	-0.6808	0.0643	0.7239
3.64	-9.4835	-0.3946	0.6824	-0.0301	0.0356	-0.0641	24.4660	-20.0963	16.6225	0.0914	-0.6809	0.0642	0.7238
3.65	-9.5230	-0.3813	0.6729	-0.0151	0.0513	-0.0629	24.5403	-20.2053	16.7200	0.0914	-0.6811	0.0642	0.7236
3.66	-9.5653	-0.3703	0.6505	-0.0083	0.0538	-0.0656	24.4297	-20.0592	16.6128	0.0915	-0.6813	0.0642	0.7234
3.67	-9.6067	-0.3588	0.6380	-0.0009	0.0586	-0.0722	24.3033	-20.0868	16.7700	0.0915	-0.6816	0.0642	0.7232
3.68	-9.6455	-0.3447	0.6128	-0.0036	0.0581	-0.0729	24.3743	-20.3516	16.7778	0.0916	-0.6817	0.0642	0.7230
3.69	-9.6656	-0.3264	0.5958	0.0051	0.0567	-0.0788	24.2213	-20.0449	16.7142	0.0917	-0.6820	0.0642	0.7228
3.7	-9.6505	-0.3120	0.5831	0.0063	0.0478	-0.0762	24.4412	-20.2843	16.6919	0.0918	-0.6821	0.0642	0.7226
3.71	-9.6647	-0.2922	0.5855	0.0089	0.0402	-0.0785	24.5155	-20.1951	16.8087	0.0920	-0.6823	0.0643	0.7225
3.72	-9.7311	-0.2993	0.5852	0.0001	0.0393	-0.0814	24.5471	-20.0251	16.8682	0.0921	-0.6824	0.0642	0.7223
3.73	-9.7406	-0.3154	0.5864	-0.0021	0.0193	-0.0792	24.3310	-20.1010	16.8509	0.0922	-0.6825	0.0642	0.7222
3.74	-9.7361	-0.3083	0.5879	-0.0107	0.0109	-0.0778	24.4458	-20.0561	17.1318	0.0923	-0.6826	0.0642	0.7222
3.75	-9.7201	-0.3086	0.5937	-0.0221	0.0020	-0.0765	24.3823	-19.9429	16.9416	0.0923	-0.6825	0.0640	0.7221
3.76	-9.6826	-0.3225	0.6058	-0.0212	-0.0079	-0.0718	24.3307	-19.8594	17.0181	0.0924	-0.6826	0.0639	0.7222
3.77	-9.6798	-0.3284	0.6109	-0.0284	-0.0129	-0.0611	24.2450	-20.0128	16.9743	0.0923	-0.6825	0.0639	0.7222
3.78	-9.6885	-0.3346	0.6168	-0.0281	-0.0229	-0.0580	24.3649	-19.9552	17.0062	0.0923	-0.6824	0.0638	0.7223
3.79	-9.6755	-0.3402	0.6297	-0.0281	-0.0234	-0.0550	24.2799	-20.0427	16.7940	0.0922	-0.6824	0.0637	0.7224
3.8	-9.6592	-0.3339	0.6459	-0.0287	-0.0282	-0.0510	24.2290	-19.8043	16.8955	0.0922	-0.6822	0.0636	0.7225
3.81	-9.6439	-0.3374	0.6538	-0.0287	-0.0266	-0.0575	24.2589	-19.8307	16.7962	0.0921	-0.6822	0.0636	0.7226
3.82	-9.6166	-0.3532	0.6623	-0.0282	-0.0302	-0.0558	24.2378	-20.0195	16.9528	0.0921	-0.6821	0.0635	0.7227
3.83	-9.5918	-0.3612	0.6676	-0.0280	-0.0347	-0.0629	24.2532	-20.0158	16.7995	0.0920	-0.6820	0.0634	0.7228
3.84	-9.5584	-0.3676	0.6703	-0.0262	-0.0335	-0.0624	24.2353	-20.1852	16.9162	0.0920	-0.6818	0.0633	0.7229
3.85	-9.5275	-0.3835	0.6785	-0.0265	-0.0314	-0.0697	24.2544	-20.1591	16.7682	0.0920	-0.6818	0.0632	0.7231
3.86	-9.5212	-0.4028	0.6844	-0.0254	-0.0155	-0.0701	24.5497	-20.1402	16.5697	0.0920	-0.6817	0.0631	0.7231
3.87	-9.5255	-0.4056	0.6853	-0.0135	-0.0137	-0.0669	24.4049	-20.0139	17.0039	0.0921	-0.6817	0.0630	0.7231
3.88	-9.5293	-0.4115	0.6936	-0.0024	-0.0141	-0.0646	24.5432	-20.2294	17.0025	0.0921	-0.6816	0.0630	0.7232
3.89	-9.5273	-0.4083	0.6956	-0.0011	-0.0106	-0.0659	24.4576	-19.9326	16.7284	0.0922	-0.6815	0.0630	0.7232
3.9	-9.5374	-0.3922	0.6958	-0.0036	-0.0083	-0.0585	24.4676	-19.9996	16.7173	0.0923	-0.6815	0.0630	0.7232
3.91	-9.5451	-0.3838	0.6971	-0.0034	-0.0092	-0.0549	24.5379	-20.1137	16.7112	0.0923	-0.6814	0.0630	0.7232
3.92	-9.5566	-0.3608	0.6980	-0.0020	-0.0052	-0.0549	24.4036	-19.9580	16.8312	0.0923	-0.6815	0.0631	0.7233
3.93	-9.5720	-0.3437	0.6866	-0.0026	0.0054	-0.0559	24.2646	-20.1228	16.9458	0.0923	-0.6815	0.0631	0.7232
3.94	-9.5894	-0.3405	0.6850	-0.0049	0.0074	-0.0555	24.2926	-19.8042	16.8078	0.0924	-0.6815	0.0632	0.7233
3.95	-9.5895	-0.3219	0.6772	-0.0078	0.0148	-0.0515	24.4487	-20.2495	16.8082	0.0923	-0.6815	0.0632	0.7231
3.96	-9.5921	-0.3161	0.6709	-0.0077	0.0185	-0.0609	24.4092	-20.0415	17.0588	0.0924	-0.6816	0.0632	0.7231
3.97	-9.6039	-0.3277	0.6706	-0.0110	0.0166	-0.0578	24.6403	-19.7032	17.1179	0.0924	-0.6817	0.0632	0.7231
3.98	-9.6172	-0.3384	0.6646	-0.0298	0.0149	-0.0596	24.8028	-19.9408	17.2986	0.0923	-0.6817	0.0631	0.7230
3.99	-9.6237	-0.3496	0.6547	-0.0201	0.0072	-0.0599	24.6641	-19.7724	17.1207	0.0923	-0.6818	0.0631	0.7230
4	-9.6233	-0.3614	0.6477	-0.0245	-0.0020	-0.0627	24.5550	-19.7921	17.0924	0.0923	-0.6817	0.0630	0.7230
4.01	-9.6258	-0.3710	0.6509	-0.0129	0.0009	-0.0633	24.2413	-19.5744	17.0212	0.0923	-0.6818	0.0630	0.7230
4.02	-9.6226	-0.3765	0.6498	-0.0211	-0.0035	-0.0611	24.3076	-19.8557	16.9115	0.0923	-0.6817	0.0629	0.7229
4.03	-9.6265	-0.3798	0.6496	-0.0222	0.0003	-0.0652	24.6841	-20.0338	16.6366	0.0923	-0.6818	0.0629	0.7230
4.04	-9.6249	-0.3799	0.6486	-0.0153	-0.0095	-0.0666	24.4677	-19.8338	16.8647	0.0923	-0.6817	0.0628	0.7230
4.05	-9.6196	-0.3771	0.6550	-0.0196	-0.0110	-0.0670	24.6529	-19.8240	16.8499	0.0923	-0.6817	0.0627	0.7230
4.06	-9.6296	-0.3779	0.6575	-0.0139	-0.0140	-0.0629	24.7901	-19.8384	16.6899	0.0924	-0.6817	0.0627	0.7231
4.07	-9.6249	-0.3829	0.6625	-0.0188	-0.0106	-0.0633	24.6234	-20.0732	16.8652	0.0924	-0.6816	0.0626	0.7231
4.08	-9.6294	-0.3918	0.6657	-0.0288	-0.0078	-0.0656	24.5213	-19.9116	16.7668	0.0923	-0.6816	0.0625	0.7232
4.09	-9.6086	-0.3983	0.6761	-0.0160	-0.0179	-0.0664	24.4790	-19.9907	16.9293	0.0924	-0.6815	0.0625	0.7232
4.1	-9.5995	-0.4053	0.6726	-0.0152	-0.0128	-0.0644	24.5127	-20.1381	16.8811	0.0924	-0.6815	0.0624	0.7233
4.11	-9.5907	-0.4105	0.6783	-0.0271	-0.0178	-0.0612	24.6384	-20.0269	16.9639	0.0924	-0.6814	0.0623	0.7233
4.12	-9.5741	-0.4105	0.6931	-0.0271	-0.0197	-0.0586	24.4343	-20.0111	17.0168	0.0923	-0.6814	0.0623	0.7234
4.13	-9.5724	-0.4288	0.6904	-0.0289	-0.0179	-0.0534	24.3794	-19.9101	16.8992	0.0923	-0.6813	0.0622	0.7234
4.14	-9.5502	-0.4345	0.6927	-0.0272	-0.0225	-0.0449	24.4525	-19.8076	16.8754	0.0922	-0.6813	0.0622	0.7236
4.15	-9.5397	-0.4365	0.6985	-0.0235	-0.0031	-0.0425	24.5154	-19.8458	16.7728	0.0921	-0.6813	0.0622	0.7236
4.16	-9.5228	-0.4406	0.7038	-0.0287	-0.0093	-0.0343	24.4896	-19.8181	16.8995	0.0920	-0.6812	0.0622	0.7236
4.17	-9.5269	-0.4425	0.7062	-0.0193	-0.0098	-0.0317	24.5056	-19.8444	16.9202	0.0918	-0.6812	0.0622	0.7237
4.18	-9.5209	-0.4383	0.7046	-0.0206	0.0018	-0.0242	24.3471	-19.9512	16.8536	0.0917	-0.6812	0.0623	0.7237
4.19	-9.5148	-0.4260	0.7060	-0.0125	-0.0047	-0.0223	24.5328	-19.6220	16.7894	0.0916	-0.6812	0.0624	0.7238
4.2	-9.5184	-0.4161	0.7025	-0.0031	0.0026	-0.0132	24.3711	-19.8472	16.8153	0.0914	-0.6811	0.0625	0.7237
4.21	-9.5340	-0.3964	0.6997	-0.0065	0.0126	-0.0116	24.4718	-20.1704	16.6959	0.0913	-0.6812	0.0627	0.7237
4.22	-9.5505	-0.3823	0.6868	0.0015	0.0134	-0.0156	24.6156	-20.2051	16.9443	0.0912	-0.6812	0.0629	0.7237
4.23	-9.5469	-0.3751	0.6841	0.0108	0.0159	-0.0140	24.6310	-20.0783	16.7512	0.0911	-0.6812	0.0631	0.7236
4.24	-9.5798	-0.3607	0.6758	0.0175	0.0165	-0.0135	24.8163	-20.2169	16.5873	0.0911	-0.6813	0.0634	0.7237
4.25	-9.5990	-0.3323	0.6692	0.0218	0.0144	-0.0151	24.5533	-20.2633	16.7086	0.0910	-0.6813	0.0637	0.7235
4.26	-9.5948	-0.3076	0.6650	0.0233	0.0200	-0.0264	24.2251	-20.1065	16.9339	0.0910	-0.6814	0.0639	0.7235
4.27	-9.6025	-0.2856	0.6586	0.0270	0.0168	-0.0310	24.2335	-19.9978	16.8044	0.0910	-0.6813	0.0641	0.7234
4.28	-9.6120	-0.2656	0.6583	0.0266	0.0184	-0.0330	24.2167	-20.0296	16.8064	0.0911	-0.6814	0.0644	0.7234
4.29	-9.6137	-0.2489	0.6631	0.0350	0.0136	-0.0358	24.4479	-20.1125	17.0139	0.0911	-0.6814	0.0646	0.7233
4.3	-9.6534	-0.2241	0.6686	0.0269	0.0125	-0.0387	24.5282	-19.7968	16.9036	0.0912	-0.6814	0.0648	0.7233
4.31	-9.6939	-0.2155	0.6621	0.0223	0.0197	-0.0387	24.3952	-19.9481	16.9056	0.0913	-0.6815	0.0650	0.7232
4.32	-9.7009	-0.2007	0.6617	0.0240	0.0092	-0.0529	24.1346	-20.1448	17.1631	0.0914	-0.6815	0.0651	0.7231
4.33	-9.6572	-0.1773	0.6594	0.0197	0.0048	-0.0493	24.4234	-19.8190	16.9920	0.0915	-0.6815	0.0653	0.7232
4.34	-9.6081	-0.1679	0.6628	0.0179	-0.0016	-0.0527	24.2313	-19.9151	16.9939	0.0915	-0.6814	0.0654	0.7231
4.35	-9.5941	-0.1762	0.6619	0.0060	-0.0087	-0.0493	24.1352	-20.0286	16.9947	0.0916	-0.6815	0.0655	0.7232
4.36	-9.5916	-0.1770	0.6606	-0.0029	0.0035	-0.0439	24.2608	-19.8378	16.9944	0.0916	-0.6814	0.0655	0.7231
4.37	-9.5971	-0.1777	0.6605	-0.0105	-0.0006	-0.0488	24.2581	-19.8332	16.9878	0.0916	-0.6815	0.0656	0.7232
4.38	-9.5982	-0.1796	0.6561	-0.0253	0.0083	-0.0378	24.5523	-19.8213	17.0048	0.0914	-0.6815	0.0656	0.7231
4.39	-9.5982	-0.1955	0.6596	-0.0257	-0.0047	-0.0419	24.4506	-19.9731	16.8402	0.0913	-0.6815	0.0656	0.7232
4.4	-9.5841	-0.2138	0.6469	-0.0294	-0.0069	-0.0450	24.3907	-20.0195	16.8347	0.0912	-0.6815	0.0656	0.7232
4.41	-9.5672	-0.2164	0.6453	-0.0280	-0.0013	-0.0493	24.4233	-19.9992	17.0402	0.0912	-0.6814	0.0655	0.7232
4.42	-9.5602	-0.2309	0.6503	-0.0312	0.0022	-0.0587	24.3873	-20.0104	16.8480	0.0911	-0.6815	0.0654	0.7232
4.43	-9.5680	-0.2522	0.6436	-0.0368	0.0018	-0.0584	24.4540	-20.1554	16.6770	0.0910	-0.6815	0.0653	0.7232
4.44	-9.5738	-0.2663	0.6443	-0.0344	-0.0035	-0.0618	24.5258	-19.9693	16.7936	0.0910	-0.6815	0.0652	0.7233
4.45	-9.5732	-0.2874	0.6454	-0.0343	0.0038	-0.0650	24.4016	-20.2277	16.9246	0.0909	-0.6815	0.0651	0.7232
4.46	-9.5780	-0.3093	0.6423	-0.0380	0.0057	-0.0664	24.2736	-19.9957	17.0083	0.0909	-0.6815	0.0650	0.7232
4.47	-9.5794	-0.3192	0.6387	-0.0262	0.0124	-0.0678	24.6207	-19.9420	17.0159	0.0908	-0.6816	0.0649	0.7232
4.48	-9.5942	-0.3339	0.6366	-0.0298	0.0127	-0.0677	25.0197	-20.0294	17.2288	0.0908	-0.6816	0.0648	0.7231
4.49	-9.6058	-0.3532	0.6319	-0.0280	0.0127	-0.0671	24.5768	-19.9573	17.0305	0.0908	-0.6818	0.0647	0.7231
4.5	-9.6123	-0.3583	0.6262	-0.0289	0.0196	-0.0597	24.3131	-19.9499	17.0714	0.0908	-0.6818	0.0646	0.7230
4.51	-9.6191	-0.3595	0.6249	-0.0257	0.0182	-0.0623	23.9868	-20.1047	17.0400	0.0907	-0.6819	0.0646	0.7230
4.52	-9.6230	-0.3526	0.6252	-0.0266	0.0071	-0.0591	24.1978	-20.1677	17.0122	0.0907	-0.6818	0.0645	0.7229
4.53	-9.6269	-0.3619	0.6278	-0.0272	-0.0003	-0.0547	24.2920	-20.0623	16.8589	0.0906	-0.6819	0.0645	0.7230
4.54	-9.6151	-0.3609	0.6255	-0.0248	0.0061	-0.0529	24.2651	-20.2062	16.8578	0.0906	-0.6819	0.0644	0.7229
4.55	-9.5934	-0.3460	0.6244	-0.0157	0.0011	-0.0452	24.2800	-20.0764	16.9464	0.0905	-0.6819	0.0644	0.7229
4.56	-9.5759	-0.3356	0.6310	-0.0190	-0.0010	-0.0388	24.1842	-19.9613	16.8803	0.0904	-0.6819	0.0645	0.7230
4.57	-9.5939	-0.3223	0.6439	-0.0171	0.0001	-0.0404	24.1707	-20.0158	17.2273	0.0903	-0.6819	0.0645	0.7229
4.58	-9.6183	-0.3361	0.6480	-0.0118	-0.0075	-0.0450	24.4486	-20.0955	17.0673	0.0903	-0.6819	0.0645	0.7230
4.59	-9.5918	-0.3215	0.6554	-0.0040	-0.0156	-0.0386	24.4331	-20.0396	16.8812	0.0903	-0.6818	0.0646	0.7230
4.6	-9.5884	-0.3044	0.6516	-0.0025	-0.0089	-0.0384	24.3996	-20.2074	17.0505	0.0902	-0.6818	0.0647	0.7231
4.61	-9.5572	-0.3119	0.6532	-0.0022	-0.0031	-0.0379	24.3825	-20.4004	16.9690	0.0902	-0.6818	0.0648	0.7231
4.62	-9.5441	-0.3042	0.6583	-0.0031	-0.0083	-0.0409	24.2117	-20.1811	16.8297	0.0902	-0.6818	0.0649	0.7231
4.63	-9.5512	-0.2927	0.6563	-0.0001	-0.0004	-0.0390	24.4009	-20.0440	16.8023	0.0902	-0.6817	0.0649	0.7231
4.64	-9.5649	-0.2791	0.6519	0.0038	0.0065	-0.0362	24.2197	-20.2151	17.1161	0.0901	-0.6817	0.0651	0.7231
4.65	-9.5717	-0.2516	0.6506	0.0097	0.0082	-0.0297	24.3223	-20.0610	17.0331	0.0901	-0.6818	0.0652	0.7231
4.66	-9.5817	-0.2308	0.6534	0.0071	0.0162	-0.0362	24.1561	-20.1498	16.9344	0.0901	-0.6817	0.0654	0.7230
4.67	-9.6035	-0.2240	0.6417	0.0150	0.0155	-0.0437	24.2118	-20.2641	16.8634	0.0901	-0.6819	0.0655	0.7230
4.68	-9.6109	-0.2118	0.6344	0.0058	0.0201	-0.0543	24.4353	-19.9473	17.0411	0.0902	-0.6819	0.0656	0.7229
4.69	-9.6048	-0.1980	0.6305	0.0004	0.0221	-0.0655	24.2238	-20.0593	17.0473	0.0902	-0.6820	0.0656	0.7229
4.7	-9.6148	-0.1990	0.6262	0.0041	0.0234	-0.0668	24.0504	-20.1565	16.9183	0.0903	-0.6820	0.0657	0.7227
4.71	-9.6209	-0.1927	0.6308	-0.0053	0.0193	-0.0654	24.2696	-20.1790	16.9714	0.0904	-0.6821	0.0657	0.7227
4.72	-9.6309	-0.1957	0.6251	-0.0011	0.0133	-0.0726	24.2095	-20.0968	16.7989	0.0905	-0.6822	0.0656	0.7226
4.73	-9.6336	-0.2051	0.6243	-0.0186	0.0089	-0.0721	24.1887	-20.0618	17.0567	0.0905	-0.6822	0.0656	0.7225
4.74	-9.6397	-0.2279	0.6265	-0.0238	0.0205	-0.0705	24.1517	-20.0708	16.8732	0.0905	-0.6823	0.0655	0.7226
4.75	-9.6287	-0.2461	0.6226	-0.0239	0.0052	-0.0693	24.2829	-19.8083	17.0834	0.0905	-0.6823	0.0654	0.7225
4.76	-9.6312	-0.2658	0.6226	-0.0333	-0.0014	-0.0624	24.3518	-20.0397	17.0979	0.0905	-0.6824	0.0653	0.7225
4.77	-9.6398	-0.2918	0.6233	-0.0338	-0.0018	-0.0585	24.1287	-20.1759	17.1047	0.0904	-0.6823	0.0652	0.7224
4.78	-9.6396	-0.3109	0.6264	-0.0394	-0.0079	-0.0587	24.5637	-20.0301	16.9762	0.0903	-0.6823	0.0651	0.7225
4.79	-9.6277	-0.3253	0.6258	-0.0352	-0.0078	-0.0488	24.3190	-19.9434	17.0354	0.0902	-0.6823	0.0650	0.7226
4.8	-9.6173	-0.3262	0.6242	-0.0338	-0.0079	-0.0424	24.2377	-20.1132	16.9119	0.0901	-0.6823	0.0650	0.7226
4.81	-9.6119	-0.3229	0.6287	-0.0268	-0.0103	-0.0470	24.4002	-20.3956	16.9297	0.0900	-0.6823	0.0649	0.7227
4.82	-9.6068	-0.3235	0.6320	-0.0296	-0.0161	-0.0410	24.3090	-20.2534	16.8979	0.0899	-0.6822	0.0649	0.7227
4.83	-9.6030	-0.3231	0.6367	-0.0281	-0.0088	-0.0431	24.2742	-20.1036	16.9834	0.0898	-0.6822	0.0649	0.7228
4.84	-9.5941	-0.3295	0.6474	-0.0228	-0.0080	-0.0457	24.1941	-20.2764	17.0269	0.0897	-0.6821	0.0649	0.7227
4.85	-9.5864	-0.3260	0.6496	-0.0156	-0.0054	-0.0532	24.0607	-20.1144	16.8832	0.0897	-0.6821	0.0649	0.7228
4.86	-9.5729	-0.3242	0.6513	-0.0051	-0.0088	-0.0578	24.4639	-20.0563	16.9462	0.0897	-0.6821	0.0649	0.7228
4.87	-9.5625	-0.3190	0.6464	-0.0020	-0.0070	-0.0614	24.3292	-20.0814	17.1229	0.0898	-0.6821	0.0649	0.7229
4.88	-9.5509	-0.3148	0.6536	-0.0025	-0.0057	-0.0552	24.0501	-19.9775	16.9766	0.0898	-0.6820	0.0649	0.7229
4.89	-9.5455	-0.3061	0.6532	-0.0034	0.0018	-0.0552	24.2489	-19.9710	16.9135	0.0898	-0.6820	0.0650	0.7229
4.9	-9.5504	-0.2895	0.6585	-0.0023	-0.0014	-0.0554	24.0969	-19.8294	17.0570	0.0899	-0.6820	0.0650	0.7229
4.91	-9.5583	-0.2781	0.6581	-0.0029	0.0091	-0.0461	24.1059	-20.0988	16.8843	0.0898	-0.6820	0.0650	0.7228
4.92	-9.5652	-0.2623	0.6536	0.0005	0.0055	-0.0503	24.0706	-19.9426	16.9371	0.0899	-0.6821	0.0651	0.7229
4.93	-9.5652	-0.2522	0.6509	0.0019	0.0094	-0.0508	24.0113	-19.9036	17.0180	0.0899	-0.6821	0.0652	0.7228
4.94	-9.5664	-0.2435	0.6450	-0.0023	0.0144	-0.0558	24.2001	-20.0838	16.9933	0.0899	-0.6822	0.0652	0.7228
4.95	-9.5695	-0.2333	0.6331	-0.0026	0.0162	-0.0528	24.1778	-20.0587	17.0934	0.0899	-0.6821	0.0653	0.7226
4.96	-9.5735	-0.2194	0.6315	-0.0033	0.0148	-0.0500	24.1871	-20.1969	17.1258	0.0899	-0.6822	0.0653	0.7226
4.97	-9.5934	-0.2120	0.6222	-0.0030	0.0151	-0.0583	24.5752	-20.0900	17.2268	0.0900	-0.6823	0.0654	0.7226
4.98	-9.6034	-0.2112	0.6228	-0.0159	0.0116	-0.0508	24.6666	-20.0491	17.1078	0.0899	-0.6823	0.0654	0.7225
4.99	-9.6129	-0.2116	0.6162	-0.0278	0.0161	-0.0534	24.5378	-20.0593	17.0573	0.0899	-0.6824	0.0653	0.7226
5	-9.6190	-0.2170	0.6106	-0.0255	0.0132	-0.0575	24.4236	-19.8838	17.0353	0.0898	-0.6824	0.0653	0.7224
5.01	-9.6110	-0.2220	0.5990	-0.0255	0.0113	-0.0613	24.1943	-19.8217	17.1017	0.0898	-0.6825	0.0652	0.7225
5.02	-9.6200	-0.2332	0.5948	-0.0284	0.0179	-0.0658	24.3435	-20.1074	17.0786	0.0897	-0.6825	0.0651	0.7223
5.03	-9.6185	-0.2506	0.5945	-0.0284	0.0136	-0.0621	24.1384	-19.9793	17.0684	0.0897	-0.6826	0.0650	0.7223
5.04	-9.6124	-0.2672	0.5849	-0.0282	0.0114	-0.0598	24.1841	-20.1657	17.1095	0.0897	-0.6827	0.0650	0.7223
5.05	-9.6079	-0.2838	0.5758	-0.0286	0.0132	-0.0653	24.1640	-19.8459	16.9682	0.0896	-0.6827	0.0649	0.7222
5.06	-9.6071	-0.3011	0.5776	-0.0287	0.0095	-0.0663	24.0069	-19.7863	17.0969	0.0896	-0.6828	0.0648	0.7222
5.07	-9.6103	-0.3057	0.5722	-0.0282	0.0150	-0.0696	24.1843	-19.8811	17.1689	0.0896	-0.6828	0.0647	0.7221
5.08	-9.6338	-0.3100	0.5739	-0.0281	0.0182	-0.0595	24.0412	-19.9039	16.9815	0.0896	-0.6829	0.0646	0.7221
5.09	-9.6352	-0.3205	0.5682	-0.0287	0.0143	-0.0658	24.0259	-19.9475	16.9677	0.0895	-0.6829	0.0645	0.7220
5.1	-9.6351	-0.3167	0.5716	-0.0192	0.0097	-0.0693	24.1546	-19.7312	17.1187	0.0895	-0.6831	0.0645	0.7220
5.11	-9.6459	-0.3094	0.5722	-0.0256	0.0084	-0.0701	24.2566	-19.8587	17.1572	0.0895	-0.6831	0.0644	0.7220
5.12	-9.6425	-0.2926	0.5736	-0.0136	-0.0000	-0.0682	24.1196	-20.0861	16.9594	0.0896	-0.6831	0.0643	0.7220
5.13	-9.6152	-0.2923	0.5688	-0.0176	-0.0045	-0.0751	24.1379	-19.7519	17.0897	0.0896	-0.6831	0.0642	0.7220
5.14	-9.6127	-0.2874	0.5731	-0.0173	-0.0067	-0.0754	24.0959	-20.2558	17.0724	0.0897	-0.6831	0.0641	0.7220
5.15	-9.6075	-0.2915	0.5821	-0.0179	-0.0067	-0.0792	24.4190	-20.2017	17.1040	0.0897	-0.6831	0.0640	0.7220
5.16	-9.6320	-0.2958	0.5948	-0.0272	-0.0055	-0.0712	24.5181	-20.1586	16.9864	0.0897	-0.6830	0.0639	0.7220
5.17	-9.6783	-0.3042	0.6001	-0.0246	-0.0029	-0.0770	24.3540	-20.0849	17.0958	0.0898	-0.6831	0.0638	0.7221
5.18	-9.6696	-0.3177	0.5997	-0.0292	-0.0111	-0.0709	24.4216	-19.9178	16.9098	0.0898	-0.6830	0.0637	0.7220
5.19	-9.6309	-0.3226	0.6048	-0.0280	-0.0106	-0.0665	24.3334	-19.9515	16.8912	0.0898	-0.6830	0.0636	0.7222
5.2	-9.5784	-0.3376	0.5955	-0.0336	-0.0106	-0.0617	24.1839	-20.2041	16.8848	0.0897	-0.6829	0.0635	0.7221
5.21	-9.5502	-0.3502	0.5947	-0.0277	-0.0095	-0.0548	24.2472	-20.0414	17.1688	0.0897	-0.6829	0.0634	0.7222
5.22	-9.5493	-0.3630	0.5975	-0.0288	-0.0131	-0.0480	24.1393	-20.1356	17.1203	0.0896	-0.6829	0.0634	0.7222
5.23	-9.5571	-0.3681	0.5942	-0.0286	-0.0094	-0.0375	24.1269	-19.9109	17.0531	0.0895	-0.6828	0.0633	0.7222
5.24	-9.5672	-0.3660	0.6018	-0.0286	-0.0069	-0.0419	24.1947	-19.9081	17.0915	0.0894	-0.6829	0.0633	0.7224
5.25	-9.5673	-0.3653	0.5965	-0.0287	-0.0001	-0.0439	24.4360	-19.9007	17.0645	0.0892	-0.6828	0.0633	0.7223
5.26	-9.5672	-0.3695	0.5844	-0.0232	-0.0032	-0.0471	24.1858	-19.7112	17.0848	0.0892	-0.6829	0.0633	0.7224
5.27	-9.5499	-0.3543	0.5805	-0.0147	0.0008	-0.0554	24.0317	-19.8324	17.0542	0.0891	-0.6828	0.0633	0.7223
5.28	-9.5499	-0.3351	0.5869	-0.0026	0.0021	-0.0539	24.0929	-19.9209	17.1043	0.0892	-0.6829	0.0633	0.7223
5.29	-9.5599	-0.3214	0.5808	-0.0012	0.0097	-0.0688	24.1141	-19.9302	17.0081	0.0892	-0.6829	0.0633	0.7223
5.3	-9.5704	-0.3168	0.5794	-0.0008	0.0128	-0.0659	24.2501	-20.1151	16.9956	0.0893	-0.6829	0.0633	0.7222
5.31	-9.5845	-0.3056	0.5810	-0.0033	0.0156	-0.0695	24.2127	-19.9741	16.8621	0.0894	-0.6830	0.0633	0.7222
5.32	-9.5984	-0.2982	0.5833	-0.0010	0.0135	-0.0668	24.3007	-19.7649	17.0878	0.0895	-0.6830	0.0633	0.7221
5.33	-9.6085	-0.3083	0.5724	-0.0030	0.0091	-0.0613	24.2093	-20.1098	17.1734	0.0895	-0.6831	0.0633	0.7221
5.34	-9.6072	-0.3016	0.5692	-0.0020	0.0121	-0.0602	24.4495	-19.9724	16.8585	0.0895	-0.6830	0.0633	0.7220
5.35	-9.6053	-0.3030	0.5600	-0.0063	0.0134	-0.0575	24.3353	-20.0426	16.9089	0.0896	-0.6832	0.0634	0.7220
5.36	-9.6004	-0.3105	0.5549	-0.0169	0.0150	-0.0564	24.3332	-20.0466	17.0605	0.0895	-0.6832	0.0634	0.7219
5.37	-9.6027	-0.3039	0.5500	-0.0138	0.0174	-0.0535	24.4447	-19.9938	17.0816	0.0895	-0.6833	0.0634	0.7219
5.38	-9.6307	-0.2969	0.5472	-0.0233	0.0187	-0.0537	24.1672	-19.8890	17.0847	0.0895	-0.6833	0.0633	0.7218
5.39	-9.6521	-0.3042	0.5516	-0.0266	0.0169	-0.0457	24.3859	-19.9604	17.0465	0.0894	-0.6834	0.0633	0.7218
5.4	-9.6598	-0.3066	0.5481	-0.0245	0.0117	-0.0495	24.3491	-20.1506	16.9664	0.0893	-0.6835	0.0633	0.7218
5.41	-9.6563	-0.3091	0.5432	-0.0264	0.0030	-0.0521	24.2039	-19.9728	16.9978	0.0892	-0.6834	0.0633	0.7217
5.42	-9.6391	-0.3060	0.5512	-0.0281	-0.0004	-0.0511	24.2097	-20.0113	16.9759	0.0892	-0.6835	0.0632	0.7218
5.43	-9.6365	-0.3054	0.5539	-0.0286	-0.0021	-0.0607	24.2351	-19.8448	17.0019	0.0891	-0.6835	0.0631	0.7217
5.44	-9.6679	-0.3091	0.5669	-0.0261	-0.0075	-0.0603	24.1407	-20.0368	17.1964	0.0891	-0.6835	0.0631	0.7218
5.45	-9.6746	-0.3292	0.5717	-0.0282	-0.0114	-0.0686	24.1190	-19.7934	17.0532	0.0891	-0.6834	0.0630	0.7218
5.46	-9.6484	-0.3285	0.5760	-0.0283	-0.0179	-0.0582	24.1249	-19.7385	16.9757	0.0890	-0.6834	0.0629	0.7219
5.47	-9.6253	-0.3417	0.5800	-0.0289	-0.0150	-0.0656	24.3443	-19.8793	17.3471	0.0890	-0.6834	0.0628	0.7219
5.48	-9.5921	-0.3631	0.5881	-0.0283	-0.0167	-0.0631	24.4327	-20.0090	17.3478	0.0890	-0.6833	0.0627	0.7219
5.49	-9.5809	-0.3653	0.5884	-0.0274	-0.0218	-0.0565	24.2021	-19.8558	17.4401	0.0890	-0.6833	0.0626	0.7221
5.5	-9.5851	-0.3619	0.5911	-0.0177	-0.0188	-0.0486	24.1346	-19.8178	17.3051	0.0889	-0.6832	0.0626	0.7221
5.51	-9.5889	-0.3582	0.6025	-0.0063	-0.0213	-0.0351	23.9359	-20.0021	17.0203	0.0889	-0.6831	0.0627	0.7222
5.52	-9.5843	-0.3315	0.6096	-0.0089	-0.0196	-0.0374	23.9681	-19.8455	16.9860	0.0888	-0.6829	0.0627	0.7222
5.53	-9.6025	-0.3109	0.6119	-0.0079	-0.0181	-0.0437	24.2907	-20.1822	17.0225	0.0888	-0.6829	0.0628	0.7224
5.54	-9.6055	-0.3165	0.6125	-0.0071	-0.0132	-0.0427	24.3336	-20.2119	17.3365	0.0887	-0.6829	0.0628	0.7224
5.55	-9.6013	-0.3087	0.6139	-0.0022	-0.0170	-0.0533	24.1773	-20.1178	17.1028	0.0888	-0.6828	0.0629	0.7224
5.56	-9.5960	-0.3067	0.6192	0.0003	-0.0150	-0.0582	24.1523	-20.2744	17.1026	0.0888	-0.6828	0.0629	0.7225
5.57	-9.5858	-0.3034	0.6143	-0.0017	-0.0119	-0.0574	24.2418	-20.0938	16.9415	0.0889	-0.6827	0.0629	0.7225
5.58	-9.5705	-0.2944	0.6198	0.0013	-0.0129	-0.0609	24.2098	-20.2568	17.1588	0.0889	-0.6827	0.0629	0.7226
5.59	-9.5655	-0.2821	0.6167	-0.0001	-0.0100	-0.0590	24.1736	-20.1501	17.2001	0.0890	-0.6826	0.0630	0.7225
5.6	-9.5653	-0.2690	0.6168	-0.0013	-0.0097	-0.0614	24.1525	-20.1605	17.1987	0.0890	-0.6826	0.0630	0.7227
5.61	-9.5674	-0.2712	0.6217	-0.0028	-0.0122	-0.0619	24.1046	-20.1322	16.9789	0.0891	-0.6825	0.0630	0.7227
5.62	-9.5847	-0.2728	0.6159	-0.0033	0.0009	-0.0556	24.2263	-19.9748	17.1654	0.0891	-0.6825	0.0630	0.7227
5.63	-9.6047	-0.2770	0.6253	-0.0078	-0.0041	-0.0577	24.0603	-19.8939	17.1801	0.0891	-0.6825	0.0630	0.7226
5.64	-9.6182	-0.2847	0.6252	-0.0269	-0.0014	-0.0495	24.1057	-20.0025	17.2252	0.0891	-0.6825	0.0630	0.7227
5.65	-9.6224	-0.2919	0.6283	-0.0282	-0.0047	-0.0512	24.0781	-20.1548	17.2590	0.0890	-0.6825	0.0629	0.7227
5.66	-9.6164	-0.2991	0.6198	-0.0288	-0.0091	-0.0478	24.0965	-20.1461	17.0782	0.0889	-0.6824	0.0629	0.7227
5.67	-9.6107	-0.3016	0.6185	-0.0276	-0.0080	-0.0385	24.0799	-20.0862	17.0894	0.0888	-0.6825	0.0629	0.7228
5.68	-9.5939	-0.3007	0.6173	-0.0290	-0.0051	-0.0453	24.0999	-19.9903	17.1355	0.0887	-0.6824	0.0629	0.7228
5.69	-9.5863	-0.3083	0.6162	-0.0282	-0.0080	-0.0445	23.8116	-19.8311	17.2017	0.0886	-0.6825	0.0628	0.7229
5.7	-9.5922	-0.3103	0.6156	-0.0254	-0.0152	-0.0441	23.9086	-20.0995	17.1797	0.0885	-0.6823	0.0628	0.7229
5.71	-9.5986	-0.3096	0.6131	-0.0246	-0.0081	-0.0486	24.3861	-20.0601	17.1794	0.0884	-0.6824	0.0628	0.7229
5.72	-9.6079	-0.3180	0.6158	-0.0224	-0.0047	-0.0484	24.3128	-20.2409	17.0515	0.0884	-0.6823	0.0628	0.7230
5.73	-9.5997	-0.3165	0.6168	-0.0123	-0.0078	-0.0563	24.1539	-20.2421	17.1561	0.0884	-0.6823	0.0628	0.7229
5.74	-9.5910	-0.3145	0.6155	-0.0049	-0.0065	-0.0554	24.2123	-20.2482	16.9238	0.0884	-0.6823	0.0628	0.7231
5.75	-9.5772	-0.3178	0.6179	-0.0031	-0.0077	-0.0506	24.1051	-20.0952	17.1491	0.0884	-0.6822	0.0628	0.7230
5.76	-9.5742	-0.3164	0.6150	-0.0047	-0.0064	-0.0534	24.1587	-20.0552	17.0800	0.0884	-0.6823	0.0629	0.7231
5.77	-9.5720	-0.3116	0.6205	-0.0026	-0.0083	-0.0501	24.1685	-20.0802	16.8758	0.0884	-0.6821	0.0629	0.7230
5.78	-9.5653	-0.3045	0.6212	-0.0006	-0.0029	-0.0405	24.2219	-20.0519	17.1411	0.0884	-0.6822	0.0630	0.7231
5.79	-9.5703	-0.2821	0.6129	-0.0038	-0.0022	-0.0409	24.2269	-20.0958	16.9288	0.0884	-0.6822	0.0631	0.7231
5.8	-9.5789	-0.2678	0.6134	-0.0015	0.0032	-0.0399	24.1775	-19.9770	17.1180	0.0884	-0.6821	0.0632	0.7231
5.81	-9.5937	-0.2527	0.6027	-0.0063	0.0058	-0.0494	24.0626	-19.9873	17.0752	0.0884	-0.6822	0.0632	0.7231
5.82	-9.6054	-0.2344	0.6029	-0.0019	0.0062	-0.0476	24.0205	-20.0919	17.1152	0.0884	-0.6822	0.0633	0.7230
5.83	-9.6212	-0.2314	0.6021	-0.0107	0.0140	-0.0516	24.1004	-20.0577	17.0640	0.0883	-0.6823	0.0633	0.7230
5.84	-9.6229	-0.2321	0.6011	-0.0182	0.0094	-0.0579	24.1732	-20.0763	17.2025	0.0883	-0.6822	0.0633	0.7229
5.85	-9.6200	-0.2426	0.6005	-0.0119	0.0040	-0.0568	24.1686	-19.9526	17.2724	0.0883	-0.6823	0.0633	0.7230
5.86	-9.6071	-0.2523	0.5975	-0.0202	0.0116	-0.0596	24.0651	-20.0026	17.3183	0.0883	-0.6823	0.0632	0.7229
5.87	-9.6039	-0.2634	0.5907	-0.0273	0.0031	-0.0607	24.0975	-19.9091	17.1168	0.0883	-0.6824	0.0632	0.7229
5.88	-9.5990	-0.2683	0.5931	-0.0238	-0.0031	-0.0582	24.0982	-19.8662	16.9898	0.0882	-0.6824	0.0631	0.7229
5.89	-9.5988	-0.2801	0.5959	-0.0238	0.0014	-0.0566	24.0601	-20.0651	17.1045	0.0882	-0.6824	0.0630	0.7229
5.9	-9.6011	-0.2910	0.5886	-0.0238	-0.0049	-0.0589	24.1893	-20.2019	17.1524	0.0882	-0.6824	0.0630	0.7229
5.91	-9.6003	-0.2944	0.5851	-0.0255	-0.0030	-0.0568	24.4017	-20.0518	17.2026	0.0881	-0.6823	0.0629	0.7229
5.92	-9.5995	-0.2924	0.5857	-0.0249	-0.0037	-0.0582	24.1203	-20.0693	17.1931	0.0881	-0.6824	0.0629	0.7230
5.93	-9.6055	-0.2926	0.5881	-0.0189	-0.0084	-0.0554	24.0802	-20.2215	16.9980	0.0881	-0.6823	0.0628	0.7230
5.94	-9.6073	-0.2956	0.5921	-0.0051	-0.0014	-0.0562	24.0998	-19.9963	17.1282	0.0881	-0.6824	0.0629	0.7230
5.95	-9.6157	-0.2931	0.5981	-0.0148	0.0006	-0.0592	24.0765	-19.9697	17.3109	0.0881	-0.6823	0.0628	0.7229
5.96	-9.6215	-0.2974	0.5949	-0.0179	-0.0080	-0.0615	24.1161	-20.0923	17.2636	0.0881	-0.6823	0.0628	0.7230
5.97	-9.5972	-0.2968	0.5876	-0.0027	-0.0017	-0.0633	24.5978	-20.0527	17.2894	0.0881	-0.6823	0.0628	0.7230
5.98	-9.6073	-0.2887	0.5865	-0.0018	0.0003	-0.0566	24.6426	-20.0674	17.2884	0.0882	-0.6823	0.0628	0.7230
5.99	-9.6169	-0.2634	0.5946	-0.0040	-0.0008	-0.0636	24.5190	-20.0077	17.1570	0.0882	-0.6824	0.0628	0.7231
6	-9.5977	-0.2598	0.5919	-0.0084	0.0022	-0.0706	24.2112	-19.8387	17.1007	0.0883	-0.6823	0.0628	0.7230
6.01	-9.5939	-0.2639	0.5896	-0.0153	-0.0032	-0.0728	24.1143	-19.6595	17.0835	0.0883	-0.6824	0.0627	0.7230
6.02	-9.5914	-0.2650	0.5986	-0.0272	-0.0067	-0.0715	24.1400	-19.8583	17.1995	0.0883	-0.6823	0.0626	0.7229
6.03	-9.5897	-0.2786	0.6087	-0.0205	0.0004	-0.0709	24.1194	-19.9242	17.0565	0.0884	-0.6823	0.0625	0.7230
6.04	-9.6173	-0.2902	0.6169	-0.0282	-0.0045	-0.0635	24.1131	-19.9223	17.1578	0.0883	-0.6823	0.0624	0.7230
6.05	-9.6433	-0.3172	0.6126	-0.0275	-0.0059	-0.0573	24.1928	-19.9138	17.2019	0.0883	-0.6823	0.0624	0.7230
6.06	-9.6251	-0.3423	0.6158	-0.0293	-0.0032	-0.0586	24.2331	-19.8423	17.1782	0.0882	-0.6823	0.0623	0.7231
6.07	-9.5796	-0.3444	0.6144	-0.0281	-0.0149	-0.0459	24.3151	-19.7864	17.1860	0.0882	-0.6823	0.0622	0.7231
6.08	-9.5433	-0.3458	0.6062	-0.0272	-0.0111	-0.0418	24.0825	-19.9631	16.9741	0.0881	-0.6822	0.0622	0.7232
6.09	-9.5333	-0.3456	0.6007	-0.0227	-0.0052	-0.0400	24.3081	-20.0919	17.1278	0.0880	-0.6821	0.0622	0.7231
6.1	-9.5462	-0.3274	0.6012	-0.0160	-0.0020	-0.0315	24.2909	-20.1298	16.9463	0.0879	-0.6822	0.0623	0.7232
6.11	-9.5729	-0.3056	0.5975	-0.0135	0.0094	-0.0357	24.3326	-20.3147	16.9758	0.0878	-0.6822	0.0624	0.7232
6.12	-9.5914	-0.2897	0.5885	-0.0027	0.0121	-0.0353	24.4335	-20.2500	17.2561	0.0877	-0.6823	0.0625	0.7232
6.13	-9.5975	-0.2781	0.5868	-0.0027	0.0122	-0.0474	24.2572	-20.2707	17.0584	0.0877	-0.6823	0.0625	0.7231
6.14	-9.6037	-0.2783	0.5730	-0.0018	0.0192	-0.0570	24.2202	-20.2845	17.0309	0.0877	-0.6824	0.0626	0.7230
6.15	-9.6092	-0.2703	0.5695	0.0021	0.0107	-0.0581	24.1513	-20.0132	17.3485	0.0878	-0.6824	0.0626	0.7230
6.16	-9.6120	-0.2585	0.5592	-0.0011	0.0034	-0.0598	24.1067	-20.0850	17.0743	0.0878	-0.6824	0.0626	0.7229
6.17	-9.6170	-0.2534	0.5655	-0.0032	0.0015	-0.0638	24.1234	-20.1878	17.1306	0.0879	-0.6825	0.0626	0.7230
6.18	-9.6216	-0.2569	0.5662	0.0002	0.0041	-0.0672	24.2905	-19.9149	17.1879	0.0880	-0.6824	0.0626	0.7229
6.19	-9.6261	-0.2613	0.5602	-0.0120	-0.0034	-0.0699	24.2484	-19.9079	17.2662	0.0880	-0.6825	0.0626	0.7230
6.2	-9.6220	-0.2597	0.5586	-0.0133	-0.0017	-0.0608	24.1864	-19.9418	17.1952	0.0880	-0.6824	0.0626	0.7229
6.21	-9.6203	-0.2572	0.5534	-0.0212	-0.0052	-0.0575	24.1179	-19.9760	17.3067	0.0880	-0.6824	0.0625	0.7229
6.22	-9.6316	-0.2630	0.5580	-0.0237	0.0016	-0.0547	24.1191	-19.9450	17.2265	0.0880	-0.6824	0.0625	0.7229
6.23	-9.6354	-0.2615	0.5555	-0.0278	0.0030	-0.0509	24.1228	-20.0479	17.1673	0.0879	-0.6824	0.0624	0.7229
6.24	-9.6401	-0.2644	0.5584	-0.0286	-0.0016	-0.0509	24.2123	-19.7915	17.1125	0.0878	-0.6825	0.0624	0.7230
6.25	-9.6513	-0.2714	0.5640	-0.0281	-0.0044	-0.0536	24.2389	-19.8408	17.0467	0.0878	-0.6824	0.0623	0.7230
6.26	-9.6531	-0.2783	0.5616	-0.0290	-0.0091	-0.0489	24.1313	-19.8600	17.2429	0.0877	-0.6825	0.0623	0.7230
6.27	-9.6395	-0.2883	0.5687	-0.0263	-0.0050	-0.0572	24.1264	-20.1081	17.3093	0.0876	-0.6824	0.0622	0.7230
6.28	-9.6285	-0.2958	0.5703	-0.0279	-0.0156	-0.0578	24.2027	-20.3191	17.1557	0.0876	-0.6824	0.0622	0.7231
6.29	-9.6058	-0.2994	0.5728	-0.0284	-0.0172	-0.0612	24.2697	-20.3769	17.0512	0.0875	-0.6823	0.0621	0.7231
6.3	-9.5738	-0.2997	0.5745	-0.0286	-0.0183	-0.0659	24.2827	-20.3037	16.9866	0.0875	-0.6823	0.0620	0.7232
6.31	-9.5860	-0.2957	0.5940	-0.0264	-0.0165	-0.0608	24.4378	-20.0434	17.0361	0.0875	-0.6822	0.0619	0.7233
6.32	-9.6191	-0.3170	0.6018	-0.0272	-0.0058	-0.0681	24.2885	-20.1535	16.9683	0.0875	-0.6822	0.0618	0.7233
6.33	-9.6015	-0.3181	0.6082	-0.0204	-0.0125	-0.0685	24.2427	-20.1710	17.1099	0.0875	-0.6822	0.0617	0.7233
6.34	-9.5987	-0.3044	0.6126	-0.0110	-0.0199	-0.0653	24.3167	-20.2840	17.0112	0.0875	-0.6821	0.0617	0.7233
6.35	-9.5720	-0.3171	0.6152	-0.0076	-0.0134	-0.0653	24.3092	-20.1385	16.9105	0.0876	-0.6821	0.0616	0.7234
6.36	-9.5560	-0.3220	0.6157	-0.0199	-0.0128	-0.0618	24.0707	-20.0924	17.0609	0.0876	-0.6820	0.0616	0.7234
6.37	-9.5704	-0.3209	0.6164	-0.0109	-0.0049	-0.0575	24.1250	-19.7914	17.1993	0.0876	-0.6820	0.0616	0.7235
6.38	-9.5735	-0.3142	0.6149	-0.0090	-0.0047	-0.0503	24.4672	-20.0634	17.0735	0.0876	-0.6820	0.0616	0.7235
6.39	-9.5752	-0.3024	0.6153	-0.0064	-0.0086	-0.0419	24.0642	-20.0226	17.1503	0.0876	-0.6820	0.0616	0.7235
6.4	-9.5886	-0.2841	0.6149	-0.0038	-0.0084	-0.0463	24.2672	-19.7401	17.3558	0.0876	-0.6819	0.0617	0.7235
6.41	-9.6039	-0.2778	0.6113	-0.0041	-0.0023	-0.0551	24.3171	-19.9483	17.0939	0.0876	-0.6819	0.0617	0.7235
6.42	-9.6139	-0.2774	0.6118	-0.0115	-0.0001	-0.0576	24.1985	-19.9129	16.8668	0.0876	-0.6820	0.0617	0.7236
6.43	-9.6160	-0.2734	0.6142	-0.0175	-0.0045	-0.0562	24.1944	-19.9079	16.9697	0.0876	-0.6819	0.0617	0.7235
6.44	-9.6067	-0.2745	0.6119	-0.0064	-0.0048	-0.0633	24.0331	-19.9930	17.0103	0.0876	-0.6819	0.0617	0.7236
6.45	-9.5944	-0.2682	0.6124	-0.0110	-0.0112	-0.0602	24.0115	-20.0069	17.0892	0.0876	-0.6818	0.0617	0.7235
6.46	-9.5929	-0.2634	0.6101	-0.0270	-0.0088	-0.0614	24.3150	-20.1419	17.1184	0.0876	-0.6818	0.0616	0.7236
6.47	-9.5957	-0.2682	0.6100	-0.0154	-0.0066	-0.0628	24.7853	-20.1622	17.2605	0.0876	-0.6818	0.0616	0.7236
6.48	-9.5987	-0.2710	0.6095	-0.0232	-0.0121	-0.0551	24.9652	-19.9686	16.9973	0.0876	-0.6817	0.0615	0.7236
6.49	-9.5974	-0.2707	0.6085	-0.0267	-0.0108	-0.0619	24.5681	-20.0449	17.0779	0.0876	-0.6818	0.0614	0.7238
6.5	-9.5992	-0.2783	0.6086	-0.0287	-0.0051	-0.0556	24.2630	-19.9936	17.0791	0.0875	-0.6817	0.0614	0.7237
6.51	-9.6076	-0.2935	0.6080	-0.0278	-0.0066	-0.0553	24.0913	-19.8865	17.1227	0.0874	-0.6818	0.0613	0.7238
6.52	-9.6111	-0.3076	0.6093	-0.0286	-0.0068	-0.0461	24.3381	-20.0925	17.2941	0.0873	-0.6817	0.0613	0.7237
6.53	-9.6134	-0.3124	0.6113	-0.0275	-0.0057	-0.0473	24.1564	-20.0230	17.1003	0.0873	-0.6817	0.0612	0.7238
6.54	-9.6106	-0.3129	0.6094	-0.0290	-0.0099	-0.0469	24.1318	-19.9556	17.0753	0.0872	-0.6817	0.0612	0.7239
6.55	-9.6080	-0.3190	0.6041	-0.0270	-0.0059	-0.0483	24.0458	-19.9826	17.0017	0.0871	-0.6816	0.0612	0.7239
6.56	-9.5998	-0.3145	0.6044	-0.0301	-0.0022	-0.0533	24.0282	-19.8786	16.8537	0.0870	-0.6817	0.0611	0.7239
6.57	-9.5979	-0.3092	0.6085	-0.0162	-0.0090	-0.0489	24.1648	-20.0030	16.9116	0.0870	-0.6816	0.0611	0.7239
6.58	-9.5985	-0.3091	0.6100	-0.0198	-0.0062	-0.0582	24.0809	-19.9460	17.0614	0.0870	-0.6816	0.0611	0.7240
6.59	-9.5963	-0.3094	0.6120	-0.0154	-0.0047	-0.0568	24.2469	-20.0547	17.0740	0.0869	-0.6816	0.0610	0.7239
6.6	-9.5972	-0.3094	0.6126	-0.0032	-0.0006	-0.0609	24.0573	-20.1774	17.0728	0.0870	-0.6816	0.0611	0.7240
6.61	-9.5969	-0.3097	0.6121	-0.0088	-0.0059	-0.0675	24.2350	-19.9462	17.0682	0.0870	-0.6816	0.0610	0.7240
6.62	-9.5963	-0.3112	0.6108	-0.0097	-0.0079	-0.0647	24.0537	-20.0742	17.0677	0.0871	-0.6816	0.0610	0.7240
6.63	-9.5900	-0.3056	0.6125	-0.0018	-0.0083	-0.0592	24.0316	-19.9398	17.1533	0.0871	-0.6815	0.0610	0.7240
6.64	-9.5782	-0.2883	0.6183	-0.0037	-0.0103	-0.0572	24.2619	-20.0281	17.1894	0.0872	-0.6815	0.0610	0.7240
6.65	-9.5806	-0.2835	0.6136	-0.0026	-0.0080	-0.0489	24.3952	-20.0002	17.0979	0.0872	-0.6815	0.0611	0.7241
6.66	-9.5942	-0.2692	0.6178	-0.0010	-0.0119	-0.0429	24.2957	-20.0246	16.9852	0.0872	-0.6814	0.0611	0.7240
6.67	-9.5964	-0.2541	0.6216	-0.0116	-0.0092	-0.0494	24.2310	-20.1801	17.1542	0.0871	-0.6814	0.0612	0.7242
6.68	-9.5988	-0.2562	0.6232	-0.0196	-0.0037	-0.0427	24.4223	-20.1284	17.1009	0.0871	-0.6814	0.0612	0.7241
6.69	-9.6031	-0.2559	0.6156	-0.0182	0.0011	-0.0412	24.1557	-20.1465	17.1878	0.0870	-0.6814	0.0612	0.7242
6.7	-9.5850	-0.2484	0.6226	-0.0070	-0.0104	-0.0454	23.8924	-20.2324	17.0949	0.0870	-0.6813	0.0612	0.7241
6.71	-9.5724	-0.2589	0.6119	-0.0148	-0.0053	-0.0488	24.1421	-20.2411	16.9908	0.0869	-0.6813	0.0613	0.7242
6.72	-9.5739	-0.2640	0.6100	-0.0287	-0.0070	-0.0430	24.1670	-20.0418	16.9349	0.0868	-0.6813	0.0612	0.7242
6.73	-9.5831	-0.2610	0.6142	-0.0173	-0.0056	-0.0457	24.1736	-20.1443	17.2279	0.0868	-0.6813	0.0612	0.7242
6.74	-9.6002	-0.2633	0.6117	-0.0250	0.0074	-0.0567	24.3251	-20.1452	17.0289	0.0867	-0.6814	0.0612	0.7243
6.75	-9.6006	-0.2616	0.6144	-0.0212	0.0015	-0.0562	24.3141	-19.8763	17.0964	0.0867	-0.6813	0.0612	0.7242
6.76	-9.6082	-0.2548	0.6110	-0.0190	0.0058	-0.0531	24.2294	-19.8950	17.0368	0.0867	-0.6814	0.0611	0.7243
6.77	-9.6100	-0.2550	0.6117	-0.0065	0.0008	-0.0547	24.2214	-19.8593	17.1760	0.0867	-0.6813	0.0612	0.7241
6.78	-9.6066	-0.2517	0.6078	-0.0077	-0.0027	-0.0598	24.1734	-20.0264	17.1456	0.0867	-0.6814	0.0612	0.7242
6.79	-9.6078	-0.2466	0.6112	-0.0177	0.0019	-0.0620	24.1541	-20.0489	17.0225	0.0867	-0.6814	0.0611	0.7242
6.8	-9.6094	-0.2437	0.6068	-0.0231	0.0044	-0.0639	24.2417	-20.1343	17.1785	0.0867	-0.6814	0.0611	0.7242
6.81	-9.5996	-0.2513	0.6024	-0.0150	0.0028	-0.0744	24.1113	-20.1536	17.1467	0.0867	-0.6814	0.0610	0.7242
6.82	-9.5912	-0.2553	0.6084	-0.0116	0.0000	-0.0706	24.1012	-20.0096	17.2050	0.0868	-0.6814	0.0609	0.7241
6.83	-9.5934	-0.2613	0.6016	-0.0231	0.0017	-0.0714	24.2327	-19.9243	17.2495	0.0868	-0.6815	0.0608	0.7242
6.84	-9.6099	-0.2705	0.6130	-0.0233	0.0050	-0.0717	24.4275	-20.1543	16.9267	0.0868	-0.6814	0.0607	0.7241
6.85	-9.6158	-0.2875	0.6057	-0.0253	0.0010	-0.0695	24.2568	-20.2400	17.2592	0.0868	-0.6815	0.0606	0.7241
6.86	-9.5977	-0.2988	0.6090	-0.0266	0.0007	-0.0717	24.3395	-20.2509	17.0332	0.0868	-0.6815	0.0605	0.7241
6.87	-9.6094	-0.2920	0.6066	-0.0262	-0.0049	-0.0680	24.2090	-20.1281	17.0208	0.0868	-0.6815	0.0604	0.7241
6.88	-9.6125	-0.2778	0.6094	-0.0219	-0.0032	-0.0640	24.2180	-19.7293	17.1090	0.0868	-0.6815	0.0604	0.7241
6.89	-9.5986	-0.2730	0.6070	-0.0265	-0.0002	-0.0692	24.3268	-19.9753	17.0140	0.0868	-0.6815	0.0603	0.7241
6.9	-9.5972	-0.2763	0.6092	-0.0282	0.0034	-0.0737	24.2875	-20.1055	17.1836	0.0868	-0.6816	0.0602	0.7241
6.91	-9.5926	-0.2854	0.6099	-0.0268	-0.0012	-0.0671	24.3132	-19.9458	17.0559	0.0868	-0.6815	0.0600	0.7240
6.92	-9.5973	-0.3015	0.6160	-0.0302	-0.0041	-0.0718	24.2916	-19.9960	16.9981	0.0868	-0.6816	0.0599	0.7241
6.93	-9.6350	-0.3086	0.6250	-0.0380	0.0018	-0.0740	24.0162	-19.9191	17.2073	0.0868	-0.6816	0.0598	0.7241
6.94	-9.6565	-0.3327	0.6233	-0.0356	-0.0029	-0.0766	24.1119	-19.8734	17.1428	0.0868	-0.6817	0.0596	0.7242
6.95	-9.6359	-0.3470	0.6203	-0.0317	-0.0058	-0.0623	24.1332	-19.8792	17.1597	0.0867	-0.6816	0.0595	0.7241
6.96	-9.5870	-0.3540	0.6174	-0.0301	-0.0082	-0.0628	24.1202	-19.9003	17.0572	0.0867	-0.6816	0.0594	0.7241
6.97	-9.5439	-0.3682	0.6109	-0.0330	-0.0047	-0.0604	24.5109	-20.0068	17.4338	0.0866	-0.6816	0.0593	0.7242
6.98	-9.5248	-0.3798	0.6054	-0.0334	-0.0062	-0.0444	24.6760	-19.8703	17.4481	0.0865	-0.6816	0.0593	0.7241
6.99	-9.5359	-0.3732	0.6102	-0.0272	-0.0032	-0.0442	24.5379	-19.8567	17.3449	0.0864	-0.6816	0.0593	0.7243
7	-9.5542	-0.3606	0.6056	-0.0288	-0.0017	-0.0394	24.1914	-19.7677	17.3062	0.0863	-0.6816	0.0592	0.7242
7.01	-9.5704	-0.3612	0.5962	-0.0278	0.0053	-0.0372	23.9609	-19.9744	17.0293	0.0862	-0.6816	0.0592	0.7242
7.02	-9.5850	-0.3633	0.5917	-0.0232	0.0157	-0.0373	24.1992	-19.9209	17.1233	0.0861	-0.6816	0.0593	0.7241
7.03	-9.5852	-0.3536	0.5872	-0.0168	0.0117	-0.0482	24.2075	-19.9118	17.1045	0.0860	-0.6817	0.0593	0.7241
7.04	-9.5831	-0.3447	0.5674	-0.0065	0.0110	-0.0483	24.2851	-20.0843	17.1609	0.0860	-0.6818	0.0593	0.7241
7.05	-9.5764	-0.3279	0.5626	-0.0004	0.0081	-0.0541	24.2851	-20.0943	16.9543	0.0860	-0.6818	0.0594	0.7240
7.06	-9.5796	-0.3021	0.5696	0.0030	0.0070	-0.0578	24.1509	-20.0030	16.9200	0.0861	-0.6818	0.0594	0.7240
7.07	-9.5961	-0.2812	0.5666	0.0038	0.0137	-0.0559	24.1060	-20.1196	17.0884	0.0861	-0.6818	0.0595	0.7240
7.08	-9.6163	-0.2730	0.5603	-0.0015	0.0101	-0.0575	24.0045	-20.0509	17.1541	0.0862	-0.6819	0.0595	0.7239
7.09	-9.6213	-0.2503	0.5578	-0.0009	0.0114	-0.0507	24.1567	-19.8648	16.9876	0.0862	-0.6819	0.0596	0.7238
7.1	-9.6319	-0.2224	0.5624	-0.0000	0.0092	-0.0553	24.4241	-20.1943	17.3046	0.0862	-0.6820	0.0596	0.7239
7.11	-9.6442	-0.2140	0.5497	0.0000	0.0147	-0.0578	24.1331	-20.0584	17.0713	0.0862	-0.6820	0.0597	0.7238
7.12	-9.6523	-0.2158	0.5434	-0.0120	0.0197	-0.0565	24.0643	-19.7825	17.0774	0.0862	-0.6821	0.0597	0.7237
7.13	-9.6668	-0.2226	0.5405	-0.0262	0.0112	-0.0635	24.2201	-19.8515	17.1307	0.0862	-0.6821	0.0596	0.7236
7.14	-9.6817	-0.2356	0.5450	-0.0284	0.0069	-0.0642	24.0083	-19.8108	17.1207	0.0862	-0.6822	0.0595	0.7236
7.15	-9.6752	-0.2524	0.5447	-0.0276	0.0046	-0.0677	23.8721	-19.8442	17.2800	0.0862	-0.6822	0.0594	0.7236
7.16	-9.6644	-0.2717	0.5452	-0.0314	-0.0031	-0.0752	24.0086	-19.8016	17.3970	0.0862	-0.6822	0.0593	0.7236
7.17	-9.6582	-0.2895	0.5482	-0.0327	-0.0062	-0.0732	24.1144	-19.9566	17.2826	0.0862	-0.6823	0.0591	0.7237
7.18	-9.6338	-0.3051	0.5492	-0.0293	-0.0111	-0.0750	24.2325	-19.8569	17.0106	0.0862	-0.6822	0.0590	0.7237
7.19	-9.6094	-0.3164	0.5648	-0.0366	-0.0212	-0.0724	24.3249	-19.8157	17.0766	0.0862	-0.6822	0.0589	0.7238
7.2	-9.6346	-0.3394	0.5703	-0.0405	-0.0206	-0.0743	24.0577	-19.8921	17.3270	0.0861	-0.6821	0.0587	0.7238
7.21	-9.6278	-0.3730	0.5791	-0.0298	-0.0232	-0.0798	24.0118	-20.2127	17.1694	0.0861	-0.6820	0.0585	0.7239
7.22	-9.5929	-0.3823	0.5942	-0.0307	-0.0296	-0.0760	24.1493	-20.2076	17.0899	0.0862	-0.6820	0.0584	0.7240
7.23	-9.5738	-0.3951	0.5918	-0.0332	-0.0272	-0.0831	24.2857	-19.9323	17.2159	0.0862	-0.6818	0.0582	0.7240
7.24	-9.5347	-0.4126	0.6009	-0.0292	-0.0232	-0.0689	24.2507	-20.2531	17.2148	0.0862	-0.6819	0.0581	0.7242
7.25	-9.5371	-0.4060	0.6088	-0.0282	-0.0193	-0.0624	24.0393	-19.9604	17.0739	0.0862	-0.6817	0.0580	0.7242
7.26	-9.5531	-0.4090	0.6121	-0.0285	-0.0147	-0.0524	24.1590	-20.1549	16.9397	0.0861	-0.6817	0.0579	0.7243
7.27	-9.5673	-0.4122	0.6098	-0.0268	-0.0108	-0.0399	24.2983	-20.1869	17.0205	0.0860	-0.6816	0.0579	0.7242
7.28	-9.5684	-0.3931	0.6152	-0.0280	-0.0136	-0.0329	24.1141	-20.0780	17.0497	0.0859	-0.6816	0.0579	0.7243
7.29	-9.5781	-0.3881	0.6154	-0.0294	-0.0076	-0.0328	24.3205	-20.0621	17.1662	0.0857	-0.6816	0.0579	0.7244
7.3	-9.5853	-0.3940	0.6076	-0.0244	-0.0122	-0.0317	24.3128	-19.9157	17.0168	0.0856	-0.6816	0.0579	0.7244
7.31	-9.5799	-0.3886	0.6057	-0.0255	-0.0080	-0.0381	24.1626	-19.8053	17.0309	0.0855	-0.6816	0.0579	0.7245
7.32	-9.5844	-0.3729	0.5954	-0.0156	-0.0002	-0.0400	24.1742	-19.9983	17.1530	0.0854	-0.6815	0.0580	0.7245
7.33	-9.5834	-0.3697	0.5887	-0.0099	-0.0050	-0.0308	24.0215	-19.9343	17.2797	0.0853	-0.6816	0.0581	0.7245
7.34	-9.5888	-0.3527	0.5910	-0.0028	-0.0067	-0.0316	23.8997	-19.9803	16.9735	0.0852	-0.6814	0.0582	0.7244
7.35	-9.5990	-0.3414	0.5916	0.0066	-0.0086	-0.0337	24.0464	-20.1303	17.1043	0.0852	-0.6815	0.0583	0.7246
7.36	-9.6090	-0.3344	0.5913	0.0047	-0.0043	-0.0313	23.9195	-19.9000	17.1783	0.0852	-0.6814	0.0584	0.7245
7.37	-9.6176	-0.3187	0.5999	0.0176	-0.0038	-0.0329	23.7509	-19.9570	16.8574	0.0852	-0.6814	0.0586	0.7246
7.38	-9.6205	-0.3081	0.6025	0.0203	-0.0075	-0.0324	24.0721	-19.7798	17.1651	0.0852	-0.6814	0.0588	0.7246
7.39	-9.6359	-0.2857	0.6031	0.0227	-0.0171	-0.0301	24.0597	-19.7829	16.9534	0.0853	-0.6813	0.0590	0.7246
7.4	-9.6409	-0.2632	0.6000	0.0225	-0.0143	-0.0314	24.2147	-20.0015	17.1075	0.0853	-0.6812	0.0592	0.7247
7.41	-9.6332	-0.2383	0.6029	0.0244	-0.0199	-0.0252	24.3110	-20.0815	16.7867	0.0853	-0.6811	0.0594	0.7247
7.42	-9.6243	-0.2042	0.5995	0.0207	-0.0152	-0.0302	24.1359	-20.1926	17.1350	0.0853	-0.6811	0.0596	0.7248
7.43	-9.6104	-0.1721	0.6057	0.0221	-0.0140	-0.0288	24.0853	-20.0436	17.0120	0.0853	-0.6810	0.0598	0.7248
7.44	-9.6214	-0.1552	0.6097	0.0202	-0.0152	-0.0306	24.3685	-20.1713	16.9700	0.0854	-0.6810	0.0600	0.7249
7.45	-9.6236	-0.1492	0.6152	0.0202	-0.0112	-0.0312	24.2711	-20.1955	17.1522	0.0854	-0.6808	0.0602	0.7249
7.46	-9.6167	-0.1445	0.6240	0.0189	-0.0162	-0.0418	24.1491	-20.1387	17.0086	0.0854	-0.6808	0.0604	0.7250
7.47	-9.6139	-0.1358	0.6260	0.0114	-0.0112	-0.0564	24.4286	-19.9128	17.3945	0.0855	-0.6808	0.0605	0.7250
7.48	-9.6078	-0.1430	0.6306	0.0028	-0.0155	-0.0545	24.7793	-20.2043	17.4146	0.0856	-0.6807	0.0605	0.7250
7.49	-9.5903	-0.1454	0.6276	-0.0031	-0.0104	-0.0592	24.3844	-19.9647	17.2596	0.0856	-0.6807	0.0605	0.7251
7.5	-9.5749	-0.1423	0.6292	-0.0040	-0.0111	-0.0592	24.1773	-19.8262	17.1567	0.0857	-0.6806	0.0605	0.7251
7.51	-9.5773	-0.1557	0.6337	-0.0049	-0.0076	-0.0707	23.9557	-19.9469	17.1601	0.0857	-0.6806	0.0605	0.7251
7.52	-9.5760	-0.1696	0.6371	-0.0118	-0.0077	-0.0703	24.1365	-20.0846	17.1830	0.0858	-0.6805	0.0605	0.7251
7.53	-9.5705	-0.1641	0.6351	-0.0211	-0.0060	-0.0696	24.3636	-20.1047	17.0121	0.0858	-0.6806	0.0604	0.7251
7.54	-9.5715	-0.1768	0.6378	-0.0235	0.0056	-0.0754	24.0941	-20.0276	16.9984	0.0858	-0.6806	0.0603	0.7251
7.55	-9.5718	-0.1939	0.6337	-0.0278	-0.0015	-0.0690	23.9511	-19.9879	17.1743	0.0858	-0.6806	0.0602	0.7251
7.56	-9.5730	-0.2005	0.6314	-0.0265	-0.0010	-0.0770	23.9627	-19.9942	17.1527	0.0858	-0.6807	0.0601	0.7251
7.57	-9.5724	-0.2137	0.6288	-0.0352	-0.0049	-0.0716	23.9492	-20.0213	17.1572	0.0858	-0.6806	0.0599	0.7251
7.58	-9.5756	-0.2328	0.6247	-0.0373	0.0034	-0.0758	24.2055	-20.1304	16.9623	0.0858	-0.6807	0.0598	0.7251
7.59	-9.5901	-0.2578	0.6232	-0.0381	0.0075	-0.0711	24.2325	-19.9676	16.9966	0.0858	-0.6807	0.0596	0.7250
7.6	-9.5975	-0.2712	0.6144	-0.0388	0.0071	-0.0735	24.1202	-20.1276	17.0468	0.0857	-0.6808	0.0595	0.7251
7.61	-9.5948	-0.2939	0.6099	-0.0369	0.0068	-0.0727	24.2919	-20.3518	16.9929	0.0857	-0.6808	0.0593	0.7250
7.62	-9.6002	-0.3080	0.6043	-0.0438	0.0055	-0.0730	24.3408	-20.3116	16.8886	0.0857	-0.6809	0.0591	0.7250
7.63	-9.6097	-0.3253	0.5993	-0.0471	0.0059	-0.0693	24.1895	-19.9521	16.9882	0.0856	-0.6809	0.0590	0.7249
7.64	-9.6118	-0.3393	0.5975	-0.0361	0.0005	-0.0642	24.1558	-20.0236	17.3266	0.0855	-0.6809	0.0588	0.7249
7.65	-9.6168	-0.3451	0.5897	-0.0295	-0.0073	-0.0632	24.2345	-20.1517	17.0125	0.0855	-0.6809	0.0587	0.7250
7.66	-9.6172	-0.3567	0.5944	-0.0275	-0.0030	-0.0601	23.8966	-20.2069	17.1985	0.0855	-0.6809	0.0587	0.7249
7.67	-9.6203	-0.3707	0.5951	-0.0291	-0.0072	-0.0600	24.3151	-19.9243	17.1181	0.0854	-0.6810	0.0586	0.7250
7.68	-9.6083	-0.3745	0.5907	-0.0257	-0.0058	-0.0622	24.2749	-20.1019	16.9389	0.0854	-0.6809	0.0585	0.7250
7.69	-9.5963	-0.3773	0.5778	-0.0288	-0.0039	-0.0567	24.1950	-20.2007	17.2723	0.0853	-0.6810	0.0584	0.7251
7.7	-9.5896	-0.3725	0.5791	-0.0124	-0.0003	-0.0546	24.2485	-20.1566	17.2448	0.0853	-0.6809	0.0584	0.7250
7.71	-9.5845	-0.3618	0.5808	-0.0009	-0.0068	-0.0584	24.3013	-20.1683	17.2761	0.0854	-0.6809	0.0584	0.7250
7.72	-9.5832	-0.3492	0.5837	-0.0033	0.0023	-0.0532	24.0006	-20.0211	17.2042	0.0854	-0.6809	0.0585	0.7250
7.73	-9.5918	-0.3337	0.5865	0.0072	-0.0028	-0.0540	24.1538	-20.2165	17.0723	0.0854	-0.6809	0.0586	0.7250
7.74	-9.6205	-0.3124	0.5892	0.0074	-0.0052	-0.0523	24.1065	-20.0209	17.0518	0.0855	-0.6809	0.0586	0.7251
7.75	-9.6166	-0.3007	0.5851	0.0176	0.0016	-0.0520	24.2015	-20.0604	17.2624	0.0856	-0.6809	0.0587	0.7250
7.76	-9.5858	-0.2601	0.6042	0.0209	-0.0099	-0.0509	24.1761	-20.2227	17.1433	0.0857	-0.6809	0.0589	0.7251
7.77	-9.6272	-0.2534	0.5829	0.0167	-0.0066	-0.0462	24.0338	-20.1404	16.9380	0.0857	-0.6807	0.0590	0.7250
7.78	-9.6234	-0.2301	0.5910	0.0156	-0.0094	-0.0472	24.1362	-20.2038	17.0077	0.0858	-0.6808	0.0591	0.7251
7.79	-9.6171	-0.1986	0.5903	-0.0027	-0.0080	-0.0538	24.1969	-20.1201	16.9490	0.0858	-0.6807	0.0592	0.7251
7.8	-9.6219	-0.1900	0.5871	0.0050	-0.0006	-0.0580	24.5051	-20.0407	17.0605	0.0859	-0.6807	0.0592	0.7251
7.81	-9.5977	-0.1992	0.5943	-0.0007	-0.0093	-0.0511	24.5048	-20.3140	17.1861	0.0859	-0.6807	0.0593	0.7251
7.82	-9.6042	-0.1940	0.5969	-0.0056	-0.0056	-0.0581	24.3107	-19.9232	17.0149	0.0859	-0.6807	0.0593	0.7251
7.83	-9.6541	-0.1931	0.6095	-0.0163	-0.0093	-0.0563	24.1927	-20.0038	17.1560	0.0859	-0.6807	0.0593	0.7252
7.84	-9.6823	-0.2201	0.6154	-0.0266	-0.0083	-0.0527	24.2435	-20.2140	17.1563	0.0858	-0.6806	0.0592	0.7251
7.85	-9.6596	-0.2433	0.6197	-0.0239	-0.0111	-0.0529	24.1036	-20.0358	17.2909	0.0858	-0.6806	0.0592	0.7252
7.86	-9.6036	-0.2570	0.6098	-0.0248	-0.0177	-0.0592	24.3265	-20.1270	17.1946	0.0858	-0.6805	0.0591	0.7252
7.87	-9.5586	-0.2719	0.6134	-0.0292	-0.0079	-0.0586	24.2480	-19.9847	17.1586	0.0857	-0.6806	0.0590	0.7253
7.88	-9.5364	-0.2877	0.6078	-0.0270	-0.0019	-0.0562	24.1183	-20.0131	17.0628	0.0857	-0.6805	0.0590	0.7253
7.89	-9.5385	-0.2891	0.6068	-0.0284	0.0018	-0.0497	24.1409	-20.0817	17.0807	0.0856	-0.6806	0.0589	0.7253
7.9	-9.5546	-0.2812	0.6025	-0.0275	0.0031	-0.0560	24.1356	-19.9439	17.2237	0.0855	-0.6806	0.0589	0.7253
7.91	-9.5636	-0.2697	0.5958	-0.0285	0.0056	-0.0567	24.1260	-20.1055	17.0224	0.0855	-0.6806	0.0588	0.7252
7.92	-9.5649	-0.2614	0.5888	-0.0263	0.0093	-0.0611	24.2474	-20.0659	17.1368	0.0854	-0.6807	0.0588	0.7253
7.93	-9.5687	-0.2642	0.5894	-0.0240	0.0143	-0.0738	24.2038	-20.1136	16.9335	0.0854	-0.6807	0.0587	0.7252
7.94	-9.5747	-0.2698	0.5805	-0.0204	0.0135	-0.0784	24.2673	-20.0050	16.9507	0.0855	-0.6809	0.0586	0.7252
7.95	-9.5620	-0.2705	0.5782	-0.0137	0.0119	-0.0796	24.0094	-19.9948	16.9699	0.0856	-0.6808	0.0585	0.7250
7.96	-9.5669	-0.2795	0.5766	-0.0111	0.0157	-0.0827	24.0913	-20.1102	16.7856	0.0856	-0.6809	0.0584	0.7250
7.97	-9.5838	-0.2931	0.5738	-0.0226	0.0127	-0.0837	24.7021	-20.0694	17.2886	0.0857	-0.6810	0.0583	0.7249
7.98	-9.6005	-0.3059	0.5721	-0.0205	0.0155	-0.0828	24.8814	-20.0812	17.2444	0.0858	-0.6810	0.0581	0.7248
7.99	-9.6136	-0.3119	0.5623	-0.0265	0.0064	-0.0784	24.5611	-20.0615	17.2047	0.0858	-0.6812	0.0580	0.7249
8	-9.6239	-0.3094	0.5569	-0.0314	0.0074	-0.0628	24.2857	-20.0289	17.1599	0.0858	-0.6812	0.0579	0.7248
8.01	-9.6303	-0.3183	0.5514	-0.0265	0.0090	-0.0544	23.9960	-19.9338	17.2646	0.0857	-0.6812	0.0579	0.7248
8.02	-9.6495	-0.3202	0.5418	-0.0282	0.0106	-0.0580	24.1212	-19.9876	17.0727	0.0856	-0.6812	0.0578	0.7247
8.03	-9.6626	-0.3254	0.5443	-0.0303	0.0077	-0.0571	24.0929	-19.9744	17.1726	0.0856	-0.6813	0.0577	0.7247
8.04	-9.6693	-0.3343	0.5414	-0.0316	0.0010	-0.0576	24.2909	-20.1532	17.5166	0.0855	-0.6813	0.0577	0.7247
8.05	-9.6720	-0.3436	0.5392	-0.0321	-0.0020	-0.0566	24.2035	-20.0903	17.1629	0.0854	-0.6813	0.0576	0.7247
8.06	-9.6620	-0.3529	0.5416	-0.0273	-0.0027	-0.0508	24.0973	-19.9526	17.3502	0.0854	-0.6814	0.0575	0.7247
8.07	-9.6439	-0.3514	0.5412	-0.0291	-0.0115	-0.0560	24.0776	-19.8621	17.2122	0.0853	-0.6813	0.0575	0.7247
8.08	-9.6232	-0.3561	0.5471	-0.0248	-0.0118	-0.0506	23.9810	-19.9549	17.0689	0.0853	-0.6813	0.0574	0.7248
8.09	-9.6064	-0.3475	0.5638	-0.0287	-0.0141	-0.0508	24.0428	-19.9996	17.1480	0.0852	-0.6812	0.0574	0.7247
8.1	-9.6348	-0.3484	0.5824	-0.0172	-0.0189	-0.0621	23.8661	-19.9535	16.9658	0.0852	-0.6812	0.0573	0.7249
8.11	-9.6193	-0.3658	0.5884	-0.0184	-0.0195	-0.0626	24.0237	-20.0348	17.0958	0.0852	-0.6811	0.0573	0.7249
8.12	-9.5933	-0.3511	0.5979	-0.0093	-0.0212	-0.0558	24.1571	-20.0848	17.1168	0.0852	-0.6811	0.0573	0.7250
8.13	-9.5763	-0.3440	0.6038	-0.0049	-0.0214	-0.0581	23.9594	-19.9747	17.1196	0.0852	-0.6810	0.0573	0.7250
8.14	-9.5469	-0.3534	0.6133	-0.0089	-0.0217	-0.0565	24.0862	-19.9570	17.2269	0.0852	-0.6809	0.0573	0.7251
8.15	-9.5467	-0.3470	0.6101	0.0010	-0.0147	-0.0527	24.4457	-20.0626	17.3924	0.0853	-0.6809	0.0573	0.7252
8.16	-9.5572	-0.3357	0.6107	-0.0016	-0.0133	-0.0343	24.1461	-20.2979	16.9896	0.0852	-0.6808	0.0574	0.7251
8.17	-9.5742	-0.3196	0.6128	0.0001	-0.0052	-0.0360	24.4389	-20.0821	17.0849	0.0852	-0.6808	0.0575	0.7253
8.18	-9.5886	-0.2947	0.6139	0.0029	-0.0035	-0.0357	24.2668	-20.1093	17.0439	0.0852	-0.6808	0.0576	0.7252
8.19	-9.6021	-0.2694	0.6106	0.0083	-0.0070	-0.0368	24.1556	-20.1728	17.1636	0.0852	-0.6808	0.0578	0.7253
8.2	-9.6027	-0.2693	0.6095	-0.0017	-0.0073	-0.0365	24.2171	-20.0731	17.2286	0.0851	-0.6807	0.0579	0.7252
8.21	-9.6050	-0.2629	0.6085	0.0026	-0.0073	-0.0507	24.0463	-20.0216	16.9762	0.0852	-0.6807	0.0580	0.7253
8.22	-9.6018	-0.2465	0.6077	0.0020	-0.0060	-0.0558	24.3714	-20.0140	17.0162	0.0852	-0.6807	0.0580	0.7253
8.23	-9.5969	-0.2354	0.6040	-0.0004	-0.0000	-0.0523	24.2886	-20.0913	17.1751	0.0852	-0.6806	0.0580	0.7252
8.24	-9.5950	-0.2315	0.5985	-0.0020	-0.0025	-0.0610	24.1900	-19.9599	17.3360	0.0853	-0.6807	0.0581	0.7253
8.25	-9.5896	-0.2253	0.6004	-0.0044	-0.0037	-0.0563	24.1572	-19.9649	17.1277	0.0853	-0.6807	0.0581	0.7253
8.26	-9.5980	-0.2158	0.6057	-0.0049	-0.0060	-0.0573	24.0812	-19.8065	17.0950	0.0853	-0.6807	0.0581	0.7253
8.27	-9.6095	-0.2303	0.6041	-0.0152	-0.0024	-0.0570	24.1218	-19.7805	17.1947	0.0853	-0.6806	0.0581	0.7252
8.28	-9.6193	-0.2408	0.6045	-0.0275	-0.0031	-0.0567	23.8660	-19.9537	17.4504	0.0853	-0.6807	0.0580	0.7253
8.29	-9.6228	-0.2559	0.6005	-0.0269	-0.0050	-0.0518	24.1471	-19.9348	17.1276	0.0852	-0.6806	0.0580	0.7253
8.3	-9.6260	-0.2618	0.6048	-0.0283	-0.0051	-0.0550	23.9814	-19.8798	17.1750	0.0851	-0.6806	0.0579	0.7253
8.31	-9.6219	-0.2700	0.6062	-0.0283	-0.0103	-0.0495	24.1571	-19.7971	17.2294	0.0851	-0.6806	0.0579	0.7254
8.32	-9.6213	-0.2836	0.5955	-0.0275	-0.0118	-0.0419	24.0054	-19.8152	17.0266	0.0850	-0.6806	0.0579	0.7254
8.33	-9.6124	-0.2977	0.5870	-0.0283	-0.0122	-0.0435	23.9595	-19.9943	17.0610	0.0849	-0.6806	0.0579	0.7255
8.34	-9.6082	-0.3069	0.5969	-0.0275	-0.0156	-0.0456	24.4340	-20.3538	17.2498	0.0848	-0.6805	0.0578	0.7254
8.35	-9.6079	-0.3134	0.5996	-0.0236	-0.0126	-0.0520	24.2117	-20.2039	17.0685	0.0847	-0.6805	0.0578	0.7256
8.36	-9.6035	-0.3204	0.6035	-0.0205	-0.0107	-0.0552	24.3683	-19.9791	17.1836	0.0847	-0.6805	0.0577	0.7256
8.37	-9.5990	-0.3174	0.6050	-0.0078	-0.0079	-0.0576	24.3046	-20.2479	16.9238	0.0847	-0.6805	0.0578	0.7256
8.38	-9.6012	-0.3132	0.6074	-0.0087	-0.0147	-0.0569	24.1821	-20.2361	17.0543	0.0847	-0.6804	0.0578	0.7256
8.39	-9.5955	-0.3060	0.6091	-0.0031	-0.0110	-0.0577	23.9166	-20.1366	17.0981	0.0847	-0.6804	0.0578	0.7257
8.4	-9.5775	-0.2845	0.6129	-0.0018	-0.0159	-0.0587	24.0110	-20.1585	17.0142	0.0848	-0.6803	0.0578	0.7257
8.41	-9.5782	-0.2733	0.6148	-0.0038	-0.0115	-0.0584	24.2423	-20.1665	16.9396	0.0848	-0.6802	0.0578	0.7257
8.42	-9.5770	-0.2668	0.6196	0.0062	-0.0067	-0.0569	24.0384	-20.0320	17.0413	0.0849	-0.6803	0.0579	0.7258
8.43	-9.5727	-0.2575	0.6242	-0.0002	-0.0054	-0.0589	24.0450	-19.8269	17.1384	0.0849	-0.6802	0.0579	0.7257
8.44	-9.5703	-0.2503	0.6180	-0.0037	-0.0090	-0.0563	24.1465	-19.9946	17.0993	0.0850	-0.6803	0.0579	0.7258
8.45	-9.5615	-0.2415	0.6224	-0.0015	-0.0035	-0.0575	23.9746	-19.8959	17.1207	0.0850	-0.6802	0.0579	0.7257
8.46	-9.5656	-0.2446	0.6229	-0.0028	0.0027	-0.0509	24.1811	-19.6328	17.0991	0.0850	-0.6802	0.0580	0.7258
8.47	-9.5745	-0.2505	0.6122	-0.0174	0.0025	-0.0532	24.5383	-19.6620	17.3106	0.0850	-0.6802	0.0580	0.7258
8.48	-9.5714	-0.2465	0.6142	-0.0134	0.0072	-0.0490	24.5720	-19.7942	17.2044	0.0849	-0.6802	0.0580	0.7257
8.49	-9.5826	-0.2440	0.6110	-0.0269	0.0134	-0.0539	24.3303	-19.9214	17.2144	0.0849	-0.6804	0.0580	0.7257
8.5	-9.5983	-0.2508	0.5996	-0.0233	0.0064	-0.0524	24.0662	-19.9844	17.2083	0.0848	-0.6803	0.0579	0.7256
8.51	-9.5978	-0.2580	0.5985	-0.0225	0.0024	-0.0521	23.8719	-19.9940	16.9350	0.0848	-0.6804	0.0579	0.7257
8.52	-9.5982	-0.2645	0.5904	-0.0227	0.0093	-0.0483	24.2469	-20.1834	17.2349	0.0847	-0.6804	0.0579	0.7255
8.53	-9.6045	-0.2749	0.5863	-0.0221	0.0082	-0.0535	24.1720	-20.2448	16.9982	0.0847	-0.6805	0.0579	0.7256
8.54	-9.6075	-0.2773	0.5840	-0.0273	0.0115	-0.0557	24.0877	-20.1031	16.9063	0.0846	-0.6805	0.0578	0.7255
8.55	-9.6093	-0.2733	0.5767	-0.0240	0.0137	-0.0573	24.1677	-20.2796	17.1108	0.0845	-0.6806	0.0578	0.7255
8.56	-9.6102	-0.2748	0.5813	-0.0221	0.0013	-0.0502	24.4413	-20.0251	17.0861	0.0845	-0.6806	0.0578	0.7255
8.57	-9.6190	-0.2692	0.5724	-0.0182	0.0067	-0.0531	24.1656	-19.9866	17.0639	0.0845	-0.6806	0.0578	0.7254
8.58	-9.6268	-0.2671	0.5734	-0.0146	0.0018	-0.0547	23.9220	-20.1601	16.9363	0.0844	-0.6807	0.0577	0.7254
8.59	-9.6295	-0.2617	0.5695	-0.0110	0.0086	-0.0573	23.9150	-20.1687	17.1924	0.0844	-0.6806	0.0577	0.7253
8.6	-9.6231	-0.2595	0.5642	-0.0110	0.0029	-0.0557	24.1932	-20.0307	17.1782	0.0844	-0.6807	0.0578	0.7254
8.61	-9.6199	-0.2614	0.5676	-0.0122	0.0049	-0.0581	24.3055	-19.9639	17.1723	0.0844	-0.6807	0.0577	0.7253
8.62	-9.6200	-0.2628	0.5643	-0.0224	0.0072	-0.0622	24.0798	-19.9951	17.1769	0.0844	-0.6808	0.0577	0.7253
8.63	-9.6256	-0.2571	0.5730	-0.0126	0.0055	-0.0593	24.1520	-19.8881	17.2573	0.0844	-0.6808	0.0577	0.7253
8.64	-9.6453	-0.2636	0.5687	-0.0051	-0.0031	-0.0633	23.9331	-19.8786	17.1679	0.0845	-0.6808	0.0577	0.7253
8.65	-9.6227	-0.2707	0.5702	-0.0076	-0.0017	-0.0605	23.8116	-19.9555	17.1328	0.0845	-0.6808	0.0577	0.7253
8.66	-9.6059	-0.2759	0.5723	-0.0092	-0.0021	-0.0561	23.9253	-19.9927	16.9712	0.0845	-0.6808	0.0577	0.7252
8.67	-9.6214	-0.2634	0.5741	-0.0132	-0.0050	-0.0577	24.0690	-20.0794	17.1019	0.0845	-0.6809	0.0577	0.7253
8.68	-9.6198	-0.2626	0.5716	-0.0192	-0.0034	-0.0584	23.9525	-19.9155	17.2409	0.0845	-0.6808	0.0576	0.7253
8.69	-9.6039	-0.2609	0.5752	-0.0217	-0.0092	-0.0595	23.9925	-20.1525	16.9971	0.0845	-0.6809	0.0576	0.7254
8.7	-9.6005	-0.2630	0.5872	-0.0232	-0.0146	-0.0561	24.1188	-20.0768	17.0886	0.0844	-0.6807	0.0575	0.7253
8.71	-9.5887	-0.2697	0.5865	-0.0175	-0.0132	-0.0565	24.1411	-20.0600	17.1899	0.0844	-0.6807	0.0575	0.7254
8.72	-9.5976	-0.2580	0.5975	-0.0220	-0.0055	-0.0574	24.2156	-20.2624	17.0132	0.0844	-0.6807	0.0575	0.7254
8.73	-9.6377	-0.2590	0.5983	-0.0197	-0.0085	-0.0574	24.2158	-20.1594	16.9114	0.0843	-0.6807	0.0574	0.7254
8.74	-9.6510	-0.2754	0.6075	-0.0231	-0.0128	-0.0569	24.0728	-20.1608	16.8951	0.0843	-0.6807	0.0574	0.7255
8.75	-9.6235	-0.2733	0.6016	-0.0233	-0.0158	-0.0573	24.0531	-20.1454	17.0619	0.0843	-0.6806	0.0573	0.7255
8.76	-9.5814	-0.2728	0.6002	-0.0227	-0.0182	-0.0578	24.1277	-19.9717	17.0978	0.0843	-0.6806	0.0573	0.7256
8.77	-9.5537	-0.2763	0.6068	-0.0234	-0.0149	-0.0478	24.1935	-19.9934	17.0675	0.0842	-0.6805	0.0572	0.7255
8.78	-9.5515	-0.2875	0.5986	-0.0273	-0.0104	-0.0484	24.3191	-19.9563	17.1099	0.0841	-0.6805	0.0572	0.7257
8.79	-9.5583	-0.2933	0.6048	-0.0314	-0.0108	-0.0381	24.1100	-20.0430	16.8397	0.0840	-0.6805	0.0572	0.7257
8.8	-9.5724	-0.2906	0.5888	-0.0269	-0.0059	-0.0409	24.1269	-20.0795	16.8506	0.0839	-0.6805	0.0572	0.7257
8.81	-9.5749	-0.2875	0.5960	-0.0246	0.0063	-0.0490	24.0087	-20.0671	17.1281	0.0838	-0.6805	0.0572	0.7257
8.82	-9.5781	-0.2958	0.5785	-0.0272	0.0041	-0.0573	24.0411	-20.3267	17.2097	0.0837	-0.6805	0.0571	0.7257
8.83	-9.5716	-0.3021	0.5667	-0.0288	-0.0011	-0.0594	24.1852	-20.1022	17.1106	0.0837	-0.6806	0.0570	0.7257
8.84	-9.5696	-0.2936	0.5720	-0.0207	0.0048	-0.0592	23.8906	-20.0397	17.0638	0.0836	-0.6805	0.0570	0.7256
8.85	-9.5724	-0.2953	0.5649	-0.0091	0.0027	-0.0670	23.9934	-20.1078	17.2096	0.0837	-0.6806	0.0570	0.7256
8.86	-9.5785	-0.2824	0.5629	-0.0075	0.0026	-0.0631	24.1258	-20.3157	16.9992	0.0837	-0.6806	0.0570	0.7256
8.87	-9.5928	-0.2670	0.5640	-0.0126	0.0037	-0.0645	23.9079	-20.0950	17.2950	0.0838	-0.6807	0.0569	0.7256
8.88	-9.6106	-0.2546	0.5599	-0.0065	0.0065	-0.0647	23.9504	-19.9500	17.1409	0.0838	-0.6807	0.0569	0.7255
8.89	-9.6279	-0.2459	0.5587	-0.0100	0.0049	-0.0546	23.9302	-20.0264	17.1045	0.0838	-0.6807	0.0569	0.7255
8.9	-9.6398	-0.2430	0.5553	-0.0150	0.0007	-0.0600	24.1370	-20.2768	17.1871	0.0838	-0.6807	0.0569	0.7255
8.91	-9.6407	-0.2431	0.5493	-0.0268	0.0033	-0.0610	24.0084	-20.1558	16.8697	0.0838	-0.6807	0.0568	0.7254
8.92	-9.6428	-0.2518	0.5449	-0.0283	0.0036	-0.0559	24.1446	-20.0578	17.0156	0.0837	-0.6808	0.0568	0.7255
8.93	-9.6420	-0.2657	0.5407	-0.0281	0.0044	-0.0582	24.3732	-20.2217	17.1604	0.0836	-0.6808	0.0567	0.7254
8.94	-9.6450	-0.2866	0.5395	-0.0275	-0.0071	-0.0586	24.1332	-20.2663	17.1554	0.0836	-0.6809	0.0566	0.7255
8.95	-9.6505	-0.2966	0.5416	-0.0289	-0.0069	-0.0535	24.0163	-20.1506	16.8500	0.0835	-0.6808	0.0566	0.7254
8.96	-9.6449	-0.2971	0.5418	-0.0262	-0.0126	-0.0510	24.0168	-20.0416	17.1947	0.0835	-0.6808	0.0565	0.7255
8.97	-9.6451	-0.2979	0.5389	-0.0274	-0.0120	-0.0521	24.4569	-19.9086	17.2962	0.0834	-0.6808	0.0565	0.7256
8.98	-9.6227	-0.2999	0.5404	-0.0231	-0.0134	-0.0525	24.7056	-19.8766	17.2463	0.0833	-0.6807	0.0565	0.7255
8.99	-9.6350	-0.2870	0.5594	-0.0168	-0.0139	-0.0574	24.4359	-19.8751	17.3026	0.0833	-0.6807	0.0564	0.7257
9	-9.6701	-0.3020	0.5716	-0.0170	-0.0117	-0.0647	24.2021	-19.7989	17.2561	0.0833	-0.6806	0.0564	0.7256
9.01	-9.6440	-0.3144	0.5773	-0.0154	-0.0205	-0.0622	23.8761	-19.8512	17.0594	0.0834	-0.6806	0.0563	0.7258
9.02	-9.6128	-0.2980	0.5829	-0.0121	-0.0238	-0.0729	23.8423	-20.0553	17.2105	0.0834	-0.6805	0.0563	0.7257
9.03	-9.5772	-0.3058	0.5826	-0.0016	-0.0211	-0.0777	23.8757	-19.9898	17.0264	0.0835	-0.6805	0.0562	0.7258
9.04	-9.5557	-0.3127	0.5966	-0.0032	-0.0215	-0.0741	23.9701	-20.0835	17.0203	0.0836	-0.6804	0.0562	0.7259
9.05	-9.5547	-0.3110	0.5955	-0.0018	-0.0197	-0.0626	23.9020	-20.1123	17.1978	0.0837	-0.6803	0.0562	0.7259
9.06	-9.5601	-0.3096	0.6049	-0.0059	-0.0218	-0.0514	24.1661	-20.1165	17.1813	0.0837	-0.6803	0.0562	0.7260
9.07	-9.5752	-0.3008	0.6003	-0.0055	-0.0161	-0.0481	24.0688	-19.9436	17.0398	0.0837	-0.6802	0.0562	0.7260
9.08	-9.5870	-0.2805	0.6088	0.0001	-0.0043	-0.0434	24.0382	-20.2166	17.1889	0.0837	-0.6802	0.0563	0.7261
9.09	-9.5990	-0.2748	0.6086	-0.0024	-0.0078	-0.0417	24.3375	-20.3288	17.1029	0.0836	-0.6801	0.0564	0.7260
9.1	-9.6135	-0.2666	0.6036	-0.0122	-0.0131	-0.0465	24.1493	-20.1339	17.0900	0.0836	-0.6802	0.0564	0.7261
9.11	-9.6083	-0.2553	0.6104	-0.0109	-0.0043	-0.0576	24.1441	-20.1076	16.9123	0.0836	-0.6801	0.0564	0.7261
9.12	-9.6026	-0.2566	0.6016	-0.0053	-0.0134	-0.0566	24.2595	-20.1106	16.9736	0.0836	-0.6801	0.0565	0.7262
9.13	-9.5930	-0.2568	0.6032	-0.0080	-0.0099	-0.0572	24.0738	-20.0194	17.0153	0.0837	-0.6800	0.0565	0.7262
9.14	-9.5835	-0.2562	0.6157	-0.0155	-0.0065	-0.0565	24.0462	-20.1281	17.1119	0.0836	-0.6800	0.0564	0.7262
9.15	-9.5864	-0.2621	0.6073	-0.0190	-0.0092	-0.0541	23.9779	-20.0982	17.0656	0.0836	-0.6800	0.0564	0.7262
9.16	-9.5838	-0.2705	0.6094	-0.0213	-0.0113	-0.0573	24.2338	-20.1167	17.1950	0.0836	-0.6800	0.0564	0.7262
9.17	-9.5828	-0.2741	0.6106	-0.0234	-0.0101	-0.0581	24.1669	-19.9944	17.0644	0.0836	-0.6800	0.0563	0.7263
9.18	-9.5847	-0.2854	0.6068	-0.0280	-0.0042	-0.0560	23.8606	-20.0436	17.1184	0.0835	-0.6800	0.0563	0.7263
9.19	-9.5946	-0.2931	0.6100	-0.0275	-0.0053	-0.0559	24.0206	-19.9603	17.0026	0.0834	-0.6800	0.0562	0.7264
9.2	-9.6046	-0.2936	0.6128	-0.0290	-0.0046	-0.0491	24.2232	-19.8196	16.9969	0.0833	-0.6799	0.0562	0.7263
9.21	-9.6097	-0.3002	0.6087	-0.0262	-0.0087	-0.0442	24.1898	-19.9820	16.9763	0.0833	-0.6800	0.0562	0.7263
9.22	-9.6171	-0.3035	0.6094	-0.0280	-0.0060	-0.0445	23.8966	-20.0367	17.0603	0.0832	-0.6800	0.0561	0.7264
9.23	-9.6152	-0.3031	0.6030	-0.0242	-0.0014	-0.0380	24.0418	-20.0041	17.1014	0.0830	-0.6799	0.0561	0.7263
9.24	-9.6010	-0.3012	0.6031	-0.0212	-0.0029	-0.0442	24.1114	-20.0393	16.9927	0.0830	-0.6800	0.0562	0.7264
9.25	-9.5965	-0.2868	0.6115	-0.0064	-0.0084	-0.0500	24.0242	-20.1211	17.1196	0.0829	-0.6799	0.0562	0.7264
9.26	-9.5963	-0.2798	0.6032	-0.0044	-0.0055	-0.0490	24.2260	-19.8789	17.0781	0.0830	-0.6800	0.0562	0.7264
9.27	-9.5891	-0.2730	0.6080	-0.0029	0.0023	-0.0571	24.1917	-20.1973	17.0918	0.0830	-0.6799	0.0563	0.7263
9.28	-9.5929	-0.2616	0.6061	0.0001	-0.0084	-0.0537	24.3348	-20.4316	17.1137	0.0830	-0.6799	0.0563	0.7264
9.29	-9.5991	-0.2554	0.6037	-0.0046	-0.0023	-0.0647	24.2365	-20.1138	17.0584	0.0830	-0.6799	0.0563	0.7264
9.3	-9.6009	-0.2510	0.6119	0.0023	-0.0051	-0.0608	24.1953	-20.1632	17.2159	0.0831	-0.6799	0.0563	0.7264
9.31	-9.5973	-0.2396	0.6097	0.0025	0.0027	-0.0618	24.1321	-20.3952	16.9548	0.0832	-0.6799	0.0564	0.7264
9.32	-9.6010	-0.2303	0.6085	0.0033	0.0015	-0.0630	23.9420	-20.2489	16.9483	0.0832	-0.6799	0.0564	0.7263
9.33	-9.5954	-0.2233	0.6102	-0.0044	-0.0018	-0.0554	24.0002	-20.0793	17.1901	0.0833	-0.6800	0.0564	0.7264
9.34	-9.5915	-0.2155	0.6106	-0.0049	-0.0056	-0.0604	24.1079	-19.8917	16.8426	0.0833	-0.6799	0.0564	0.7263
9.35	-9.5986	-0.2112	0.6103	-0.0043	-0.0067	-0.0569	24.1633	-20.1748	17.0760	0.0833	-0.6799	0.0565	0.7264
9.36	-9.5934	-0.2109	0.6093	-0.0102	-0.0010	-0.0628	24.1684	-20.1855	17.3837	0.0834	-0.6799	0.0565	0.7263
9.37	-9.5885	-0.2078	0.6089	-0.0264	-0.0030	-0.0563	24.1129	-19.9358	17.0713	0.0833	-0.6799	0.0564	0.7264
9.38	-9.5916	-0.2253	0.6081	-0.0251	-0.0032	-0.0572	24.0975	-19.9192	17.1089	0.0833	-0.6799	0.0563	0.7263
9.39	-9.5943	-0.2431	0.6099	-0.0250	0.0009	-0.0572	24.1887	-20.1879	17.0435	0.0832	-0.6800	0.0563	0.7263
9.4	-9.5928	-0.2607	0.5961	-0.0284	0.0023	-0.0632	24.3101	-19.9911	17.0317	0.0832	-0.6800	0.0562	0.7263
9.41	-9.5921	-0.2737	0.5963	-0.0304	0.0093	-0.0667	24.0139	-20.1321	17.1321	0.0831	-0.6800	0.0561	0.7262
9.42	-9.5904	-0.2877	0.5918	-0.0293	0.0076	-0.0574	23.9088	-19.9683	17.0440	0.0831	-0.6801	0.0561	0.7263
9.43	-9.5924	-0.2889	0.5805	-0.0282	0.0058	-0.0640	24.0267	-19.6707	17.1596	0.0830	-0.6801	0.0560	0.7262
9.44	-9.5969	-0.2781	0.5777	-0.0245	0.0081	-0.0626	24.1829	-19.8614	17.4011	0.0830	-0.6802	0.0559	0.7262
9.45	-9.6001	-0.2856	0.5781	-0.0263	0.0050	-0.0578	23.9870	-19.8237	17.1753	0.0830	-0.6802	0.0558	0.7261
9.46	-9.6130	-0.2943	0.5757	-0.0276	0.0059	-0.0630	24.1922	-19.9884	16.9032	0.0829	-0.6803	0.0558	0.7261
9.47	-9.6158	-0.2903	0.5728	-0.0227	0.0058	-0.0621	24.5843	-20.0031	17.1790	0.0829	-0.6803	0.0557	0.7261
9.48	-9.6153	-0.2966	0.5768	-0.0265	0.0023	-0.0634	24.7928	-19.7828	17.4015	0.0829	-0.6803	0.0556	0.7260
9.49	-9.6211	-0.3151	0.5756	-0.0284	0.0043	-0.0627	24.4537	-20.0294	17.2543	0.0829	-0.6804	0.0556	0.7261
9.5	-9.6141	-0.3190	0.5731	-0.0203	-0.0028	-0.0603	24.1841	-20.0172	17.2536	0.0828	-0.6804	0.0555	0.7260
9.51	-9.5928	-0.3178	0.5706	-0.0135	-0.0052	-0.0603	24.0349	-20.0873	16.9884	0.0828	-0.6804	0.0555	0.7261
9.52	-9.5906	-0.3152	0.5715	-0.0109	0.0026	-0.0565	24.1275	-20.0451	17.0994	0.0828	-0.6803	0.0555	0.7260
9.53	-9.5942	-0.3173	0.5696	-0.0127	-0.0026	-0.0550	24.1350	-19.9541	17.0831	0.0828	-0.6804	0.0555	0.7261
9.54	-9.5915	-0.3093	0.5628	-0.0101	-0.0012	-0.0534	24.1073	-19.8963	16.9244	0.0828	-0.6804	0.0555	0.7260
9.55	-9.5940	-0.2916	0.5654	-0.0069	-0.0027	-0.0572	24.1581	-19.9166	17.1854	0.0828	-0.6804	0.0555	0.7260
9.56	-9.6174	-0.2823	0.5692	-0.0033	0.0069	-0.0565	23.9886	-20.0614	17.1713	0.0829	-0.6804	0.0555	0.7260
9.57	-9.6086	-0.2791	0.5717	-0.0066	0.0024	-0.0570	23.8412	-20.1893	17.2204	0.0829	-0.6804	0.0556	0.7260
9.58	-9.5980	-0.2777	0.5651	-0.0059	0.0071	-0.0550	24.0385	-20.1835	17.3010	0.0829	-0.6805	0.0556	0.7260
9.59	-9.6245	-0.2661	0.5634	-0.0115	0.0072	-0.0561	24.0378	-20.0287	17.2626	0.0829	-0.6805	0.0556	0.7258
9.6	-9.6237	-0.2572	0.5660	-0.0131	0.0014	-0.0594	24.1225	-19.9256	17.2748	0.0829	-0.6806	0.0556	0.7259
9.61	-9.6094	-0.2657	0.5568	-0.0069	-0.0014	-0.0649	24.1682	-19.6925	17.1126	0.0829	-0.6805	0.0556	0.7259
9.62	-9.6127	-0.2727	0.5565	-0.0221	-0.0015	-0.0596	23.9606	-19.9507	17.3019	0.0829	-0.6806	0.0555	0.7259
9.63	-9.6102	-0.2839	0.5679	-0.0188	-0.0037	-0.0579	23.9463	-20.0398	17.1493	0.0829	-0.6806	0.0555	0.7258
9.64	-9.6241	-0.2787	0.5717	-0.0209	-0.0072	-0.0527	24.0419	-20.0749	17.1017	0.0828	-0.6806	0.0555	0.7259
9.65	-9.6633	-0.2810	0.5751	-0.0225	-0.0086	-0.0473	24.0847	-20.3295	17.2359	0.0828	-0.6806	0.0555	0.7259
9.66	-9.6908	-0.2928	0.5754	-0.0290	-0.0078	-0.0475	24.1375	-19.9026	17.0763	0.0827	-0.6805	0.0554	0.7259
9.67	-9.6625	-0.2918	0.5777	-0.0203	-0.0128	-0.0465	24.1283	-20.1074	17.0916	0.0826	-0.6805	0.0554	0.7260
9.68	-9.6044	-0.2829	0.5857	-0.0277	-0.0192	-0.0403	24.0883	-20.2295	16.9524	0.0825	-0.6804	0.0554	0.7260
9.69	-9.5762	-0.2907	0.5779	-0.0264	-0.0168	-0.0446	23.9987	-20.0240	17.0938	0.0824	-0.6805	0.0554	0.7261
9.7	-9.5647	-0.2936	0.5783	-0.0197	-0.0155	-0.0423	24.1444	-20.0547	17.0782	0.0823	-0.6803	0.0554	0.7261
9.71	-9.5566	-0.2860	0.5774	-0.0105	-0.0104	-0.0382	24.1132	-19.9134	17.2353	0.0823	-0.6803	0.0555	0.7262
9.72	-9.5644	-0.2742	0.5792	-0.0039	-0.0036	-0.0405	23.9463	-20.0086	17.2766	0.0822	-0.6803	0.0555	0.7262
9.73	-9.5727	-0.2625	0.5820	-0.0030	-0.0086	-0.0429	24.0056	-20.1271	17.2925	0.0822	-0.6803	0.0556	0.7262
9.74	-9.5753	-0.2598	0.5769	-0.0040	-0.0050	-0.0584	24.1658	-20.1386	17.1470	0.0822	-0.6803	0.0556	0.7263
9.75	-9.5711	-0.2599	0.5747	-0.0055	-0.0031	-0.0620	23.9319	-20.1166	17.2451	0.0823	-0.6803	0.0556	0.7262
9.76	-9.5623	-0.2503	0.5763	-0.0018	-0.0044	-0.0616	24.0227	-20.1580	17.0082	0.0823	-0.6803	0.0557	0.7262
9.77	-9.5605	-0.2324	0.5707	0.0001	0.0013	-0.0673	24.0285	-20.0243	17.0924	0.0824	-0.6802	0.0557	0.7261
9.78	-9.5723	-0.2325	0.5712	-0.0105	0.0059	-0.0704	24.0603	-19.9575	17.1739	0.0824	-0.6803	0.0556	0.7261
9.79	-9.5865	-0.2436	0.5725	-0.0145	0.0020	-0.0659	24.1387	-20.0791	17.0898	0.0825	-0.6803	0.0556	0.7261
9.8	-9.5979	-0.2399	0.5656	-0.0089	0.0094	-0.0621	24.1405	-20.0063	17.3007	0.0825	-0.6804	0.0556	0.7261
9.81	-9.5990	-0.2330	0.5651	-0.0213	0.0066	-0.0604	23.9120	-20.1642	17.2678	0.0825	-0.6805	0.0555	0.7260
9.82	-9.6122	-0.2390	0.5617	-0.0167	0.0137	-0.0531	23.8537	-20.2219	17.2752	0.0824	-0.6805	0.0555	0.7260
9.83	-9.6227	-0.2466	0.5566	-0.0234	0.0074	-0.0548	24.0344	-20.0213	17.2948	0.0824	-0.6806	0.0555	0.7260
9.84	-9.6363	-0.2474	0.5452	-0.0284	0.0043	-0.0525	24.1077	-20.1214	17.1706	0.0823	-0.6805	0.0555	0.7259
9.85	-9.6598	-0.2640	0.5420	-0.0316	0.0054	-0.0540	24.1456	-20.3524	17.2134	0.0822	-0.6806	0.0554	0.7259
9.86	-9.6684	-0.2700	0.5428	-0.0304	0.0037	-0.0549	24.2401	-20.2444	17.1299	0.0821	-0.6806	0.0553	0.7259
9.87	-9.6737	-0.2800	0.5441	-0.0262	-0.0073	-0.0581	24.1504	-19.9287	17.0829	0.0821	-0.6807	0.0553	0.7259
9.88	-9.6663	-0.2924	0.5387	-0.0263	-0.0086	-0.0508	24.0069	-19.9829	17.0744	0.0820	-0.6806	0.0552	0.7259
9.89	-9.6503	-0.2982	0.5435	-0.0281	-0.0139	-0.0613	23.9437	-20.1437	17.1343	0.0820	-0.6806	0.0552	0.7259
9.9	-9.6191	-0.3066	0.5492	-0.0286	-0.0174	-0.0556	24.1215	-19.9877	17.1791	0.0819	-0.6806	0.0551	0.7260
9.91	-9.6035	-0.3028	0.5669	-0.0263	-0.0200	-0.0531	24.1344	-20.1420	17.2767	0.0819	-0.6805	0.0550	0.7260
9.92	-9.6377	-0.3125	0.5793	-0.0199	-0.0192	-0.0650	24.0048	-20.1313	17.2640	0.0819	-0.6805	0.0550	0.7262
9.93	-9.6309	-0.3262	0.5890	-0.0187	-0.0209	-0.0626	24.0719	-19.9615	17.0093	0.0819	-0.6804	0.0549	0.7262
9.94	-9.6014	-0.3115	0.6039	-0.0137	-0.0306	-0.0637	23.9377	-20.0160	17.2002	0.0819	-0.6804	0.0549	0.7263
9.95	-9.5726	-0.3084	0.6026	-0.0117	-0.0241	-0.0723	24.0432	-20.0561	17.1700	0.0819	-0.6802	0.0548	0.7263
9.96	-9.5403	-0.3192	0.6158	-0.0094	-0.0213	-0.0656	24.1335	-20.1488	17.0793	0.0820	-0.6802	0.0548	0.7264
9.97	-9.5473	-0.3121	0.6192	-0.0121	-0.0173	-0.0541	24.3551	-19.9026	17.2996	0.0820	-0.6801	0.0548	0.7264
9.98	-9.5552	-0.3045	0.6248	-0.0079	-0.0113	-0.0448	24.7127	-19.8381	17.4943	0.0819	-0.6801	0.0548	0.7264
9.99	-9.5691	-0.2944	0.6314	-0.0012	-0.0043	-0.0436	24.4909	-19.8181	17.3193	0.0819	-0.6801	0.0549	0.7265
10	-9.5765	-0.2729	0.6324	-0.0030	-0.0043	-0.0383	24.3775	-19.7702	17.3798	0.0819	-0.6801	0.0550	0.7265
10.01	-9.5875	-0.2595	0.6323	-0.0030	-0.0047	-0.0360	23.9753	-19.8962	17.0748	0.0819	-0.6801	0.0551	0.7265
10.02	-9.5837	-0.2616	0.6218	-0.0028	-0.0107	-0.0378	24.2112	-20.0162	16.8763	0.0818	-0.6800	0.0552	0.7265
10.03	-9.5848	-0.2512	0.6199	-0.0072	-0.0092	-0.0432	24.2510	-20.1927	17.0395	0.0818	-0.6800	0.0552	0.7266
10.04	-9.5908	-0.2472	0.6162	-0.0038	-0.0012	-0.0472	24.1811	-20.3150	16.9990	0.0818	-0.6800	0.0553	0.7265
10.05	-9.5858	-0.2550	0.6148	-0.0024	0.0011	-0.0539	24.3779	-20.3064	17.0002	0.0818	-0.6800	0.0553	0.7265
10.06	-9.5911	-0.2489	0.6155	-0.0040	-0.0046	-0.0544	24.3547	-20.1628	17.1194	0.0818	-0.6800	0.0554	0.7265
10.07	-9.5956	-0.2544	0.6121	-0.0041	-0.0072	-0.0604	24.2095	-20.2863	17.2078	0.0818	-0.6800	0.0554	0.7265
10.08	-9.5957	-0.2590	0.6182	-0.0037	-0.0017	-0.0614	24.1758	-20.1765	17.1981	0.0819	-0.6800	0.0554	0.7265
10.09	-9.5978	-0.2533	0.6130	-0.0066	-0.0037	-0.0576	24.1550	-20.0928	17.0958	0.0819	-0.6799	0.0554	0.7265
10.1	-9.6051	-0.2481	0.6213	-0.0107	-0.0002	-0.0514	24.4415	-20.1165	17.0991	0.0819	-0.6800	0.0554	0.7265
10.11	-9.6078	-0.2517	0.6131	-0.0191	-0.0038	-0.0484	24.0418	-19.9878	16.9104	0.0818	-0.6800	0.0554	0.7265
10.12	-9.6042	-0.2525	0.6096	-0.0143	-0.0056	-0.0516	23.8414	-19.8265	16.9640	0.0818	-0.6800	0.0555	0.7265
10.13	-9.6110	-0.2543	0.6114	-0.0219	-0.0004	-0.0495	24.0518	-20.0746	17.1109	0.0817	-0.6800	0.0554	0.7265
10.14	-9.6141	-0.2587	0.5980	-0.0152	-0.0026	-0.0460	23.9587	-20.0812	17.2246	0.0817	-0.6800	0.0555	0.7265
10.15	-9.5991	-0.2653	0.6018	-0.0101	0.0060	-0.0496	24.0796	-19.8709	17.1054	0.0816	-0.6801	0.0555	0.7265
10.16	-9.6000	-0.2575	0.5999	-0.0231	0.0029	-0.0464	24.0933	-20.0645	17.0893	0.0816	-0.6800	0.0555	0.7264
10.17	-9.6015	-0.2637	0.5990	-0.0157	-0.0013	-0.0459	24.0926	-19.9055	17.1835	0.0815	-0.6801	0.0555	0.7265
10.18	-9.6030	-0.2622	0.5994	-0.0076	0.0006	-0.0511	24.0878	-20.1314	17.0788	0.0815	-0.6801	0.0555	0.7264
10.19	-9.6049	-0.2573	0.6012	-0.0022	-0.0011	-0.0539	24.0988	-20.0399	17.3297	0.0815	-0.6802	0.0556	0.7265
10.2	-9.5979	-0.2515	0.6121	0.0024	-0.0093	-0.0608	24.0721	-20.0989	17.0748	0.0816	-0.6801	0.0556	0.7264
10.21	-9.5983	-0.2453	0.6104	-0.0036	-0.0092	-0.0608	24.2428	-20.2700	16.8573	0.0816	-0.6801	0.0556	0.7265
10.22	-9.5906	-0.2404	0.6085	-0.0014	-0.0034	-0.0683	24.4198	-20.2878	17.0003	0.0817	-0.6801	0.0556	0.7265
10.23	-9.5803	-0.2402	0.6051	-0.0040	0.0027	-0.0653	24.2366	-20.3107	16.9976	0.0817	-0.6800	0.0556	0.7264
10.24	-9.5745	-0.2403	0.6025	-0.0016	0.0081	-0.0630	24.3026	-20.2632	17.1335	0.0818	-0.6802	0.0557	0.7264
10.25	-9.5649	-0.2379	0.6005	-0.0033	0.0067	-0.0579	24.2013	-20.0795	17.0406	0.0818	-0.6802	0.0557	0.7263
10.26	-9.5627	-0.2330	0.5931	-0.0015	0.0079	-0.0581	23.9773	-20.1363	17.0284	0.0819	-0.6802	0.0557	0.7263
10.27	-9.5728	-0.2332	0.5903	-0.0047	0.0154	-0.0577	24.0923	-20.1073	17.2415	0.0819	-0.6802	0.0557	0.7262
10.28	-9.5791	-0.2330	0.5864	-0.0221	0.0190	-0.0580	23.9909	-20.2321	17.0098	0.0818	-0.6804	0.0557	0.7262
10.29	-9.5917	-0.2302	0.5873	-0.0229	0.0091	-0.0516	24.1602	-20.3622	17.0866	0.0818	-0.6804	0.0557	0.7261
10.3	-9.5969	-0.2340	0.5843	-0.0284	0.0151	-0.0551	24.2143	-20.0528	17.3341	0.0817	-0.6805	0.0556	0.7260
10.31	-9.5982	-0.2357	0.5760	-0.0277	0.0104	-0.0544	23.9512	-19.9186	17.0434	0.0816	-0.6806	0.0556	0.7260
10.32	-9.6024	-0.2388	0.5723	-0.0294	0.0122	-0.0607	24.0755	-20.0801	16.9923	0.0816	-0.6806	0.0555	0.7260
10.33	-9.6037	-0.2425	0.5678	-0.0277	0.0178	-0.0594	24.2172	-19.7544	17.0048	0.0815	-0.6807	0.0555	0.7259
10.34	-9.6107	-0.2497	0.5608	-0.0287	0.0162	-0.0610	23.8161	-19.8540	16.9771	0.0815	-0.6807	0.0554	0.7258
10.35	-9.6171	-0.2540	0.5503	-0.0227	0.0181	-0.0623	24.2435	-19.9604	17.1371	0.0815	-0.6809	0.0553	0.7258
10.36	-9.6175	-0.2560	0.5504	-0.0249	0.0174	-0.0629	24.1511	-19.9373	17.1948	0.0814	-0.6809	0.0553	0.7257
10.37	-9.6275	-0.2613	0.5468	-0.0259	0.0180	-0.0675	23.8716	-19.9357	17.1828	0.0814	-0.6810	0.0552	0.7256
10.38	-9.6309	-0.2712	0.5391	-0.0278	0.0167	-0.0625	24.0011	-20.0364	17.1725	0.0814	-0.6811	0.0551	0.7255
10.39	-9.6382	-0.2768	0.5426	-0.0212	0.0097	-0.0641	24.0559	-20.1543	17.3472	0.0813	-0.6812	0.0551	0.7255
10.4	-9.6397	-0.2872	0.5408	-0.0238	0.0002	-0.0617	24.2264	-20.2549	17.1426	0.0813	-0.6812	0.0550	0.7255
10.41	-9.6338	-0.2922	0.5402	-0.0275	-0.0035	-0.0601	24.1456	-20.0213	17.0691	0.0813	-0.6812	0.0549	0.7254
10.42	-9.6359	-0.2996	0.5445	-0.0257	-0.0013	-0.0612	24.4001	-20.0313	17.2103	0.0812	-0.6813	0.0549	0.7255
10.43	-9.6266	-0.3036	0.5405	-0.0238	-0.0039	-0.0605	24.3500	-20.3171	17.0431	0.0812	-0.6812	0.0548	0.7255
10.44	-9.6204	-0.2971	0.5399	-0.0200	-0.0042	-0.0575	24.3122	-20.2224	17.1977	0.0812	-0.6813	0.0548	0.7255
10.45	-9.6068	-0.2986	0.5456	-0.0160	-0.0046	-0.0565	24.1504	-20.1183	17.1801	0.0812	-0.6812	0.0548	0.7254
10.46	-9.6000	-0.2973	0.5409	-0.0057	-0.0115	-0.0577	24.2007	-19.9752	17.3195	0.0812	-0.6812	0.0548	0.7255
10.47	-9.5987	-0.2884	0.5495	-0.0033	-0.0049	-0.0660	24.5452	-19.9451	17.2093	0.0812	-0.6812	0.0548	0.7255
10.48	-9.6203	-0.2779	0.5541	-0.0024	-0.0096	-0.0564	24.7655	-19.8521	17.1742	0.0813	-0.6811	0.0548	0.7255
10.49	-9.6264	-0.2738	0.5531	-0.0048	-0.0053	-0.0613	24.4701	-19.9318	17.1803	0.0813	-0.6812	0.0548	0.7256
10.5	-9.6060	-0.2754	0.5578	-0.0055	-0.0058	-0.0643	24.2674	-20.1001	17.1220	0.0814	-0.6812	0.0548	0.7255
10.51	-9.6152	-0.2635	0.5625	-0.0019	-0.0069	-0.0580	23.9819	-20.0820	17.1141	0.0814	-0.6812	0.0548	0.7256
10.52	-9.6076	-0.2450	0.5574	-0.0105	-0.0074	-0.0632	23.9525	-20.0294	17.0680	0.0814	-0.6811	0.0548	0.7255
10.53	-9.5951	-0.2415	0.5668	-0.0137	-0.0062	-0.0631	24.0789	-19.9975	17.2364	0.0814	-0.6812	0.0548	0.7256
10.54	-9.5897	-0.2499	0.5737	-0.0189	-0.0001	-0.0734	24.0199	-19.8896	17.4404	0.0815	-0.6812	0.0547	0.7255
10.55	-9.5871	-0.2695	0.5675	-0.0267	-0.0104	-0.0680	24.1324	-20.0227	17.1781	0.0815	-0.6811	0.0546	0.7255
10.56	-9.5790	-0.2749	0.5770	-0.0278	0.0003	-0.0662	24.1463	-19.9297	17.1761	0.0814	-0.6812	0.0545	0.7256
10.57	-9.6251	-0.2811	0.5846	-0.0272	0.0016	-0.0644	24.1205	-19.9065	17.3143	0.0814	-0.6812	0.0545	0.7255
10.58	-9.6695	-0.3062	0.5881	-0.0261	0.0005	-0.0604	23.9830	-19.7888	17.2181	0.0814	-0.6812	0.0544	0.7255
10.59	-9.6639	-0.3066	0.5870	-0.0273	-0.0147	-0.0587	24.2584	-20.0236	17.4075	0.0813	-0.6811	0.0543	0.7255
10.6	-9.6158	-0.3043	0.5835	-0.0245	-0.0171	-0.0553	24.2903	-20.1209	17.3081	0.0813	-0.6812	0.0543	0.7256
10.61	-9.5632	-0.3044	0.5851	-0.0239	-0.0155	-0.0548	24.2426	-20.0938	17.0021	0.0812	-0.6811	0.0542	0.7256
10.62	-9.5488	-0.3109	0.5782	-0.0284	-0.0111	-0.0521	24.3689	-20.1222	17.2160	0.0812	-0.6811	0.0542	0.7257
10.63	-9.5506	-0.3067	0.5827	-0.0279	-0.0037	-0.0420	24.1016	-19.9992	17.0725	0.0810	-0.6811	0.0542	0.7257
10.64	-9.5569	-0.2996	0.5783	-0.0278	-0.0065	-0.0443	24.1510	-20.0388	17.0879	0.0809	-0.6811	0.0541	0.7257
10.65	-9.5626	-0.2858	0.5727	-0.0190	-0.0069	-0.0428	24.3344	-20.1619	17.1280	0.0809	-0.6811	0.0542	0.7257
10.66	-9.5673	-0.2848	0.5690	-0.0071	0.0089	-0.0472	24.1584	-19.9154	17.2986	0.0808	-0.6811	0.0542	0.7256
10.67	-9.5747	-0.2939	0.5569	-0.0037	0.0094	-0.0530	24.0106	-19.9362	17.2439	0.0808	-0.6812	0.0543	0.7257
10.68	-9.5831	-0.2904	0.5602	-0.0047	0.0086	-0.0609	24.0889	-20.0643	17.1661	0.0809	-0.6812	0.0543	0.7256
10.69	-9.5887	-0.2800	0.5568	-0.0106	0.0045	-0.0652	24.2283	-19.9299	17.1858	0.0809	-0.6813	0.0543	0.7256
10.7	-9.5903	-0.2798	0.5538	-0.0086	0.0062	-0.0717	24.1504	-19.9268	17.1758	0.0809	-0.6812	0.0542	0.7255
10.71	-9.6034	-0.2667	0.5552	-0.0079	0.0077	-0.0609	24.1041	-20.0445	17.3005	0.0810	-0.6813	0.0542	0.7255
10.72	-9.6231	-0.2582	0.5469	-0.0022	0.0016	-0.0573	24.2193	-19.9783	17.2583	0.0810	-0.6814	0.0543	0.7254
10.73	-9.6341	-0.2582	0.5441	-0.0074	0.0055	-0.0591	24.1605	-19.8110	17.2737	0.0810	-0.6813	0.0543	0.7254
10.74	-9.6403	-0.2584	0.5446	-0.0242	-0.0020	-0.0531	24.0240	-19.9715	17.3672	0.0810	-0.6815	0.0542	0.7255
10.75	-9.6416	-0.2570	0.5410	-0.0283	0.0020	-0.0567	24.3437	-20.0017	17.2263	0.0809	-0.6814	0.0542	0.7254
10.76	-9.6539	-0.2599	0.5434	-0.0286	-0.0012	-0.0529	23.9966	-19.8745	17.1307	0.0808	-0.6815	0.0541	0.7254
10.77	-9.6567	-0.2731	0.5375	-0.0278	-0.0006	-0.0562	23.9122	-20.1192	17.3146	0.0808	-0.6814	0.0541	0.7253
10.78	-9.6582	-0.2785	0.5415	-0.0298	-0.0090	-0.0518	24.3460	-20.3284	17.3356	0.0807	-0.6815	0.0540	0.7254
10.79	-9.6573	-0.2850	0.5468	-0.0280	-0.0062	-0.0514	24.2367	-20.0382	16.9480	0.0806	-0.6814	0.0540	0.7254
10.8	-9.6435	-0.2909	0.5480	-0.0292	-0.0123	-0.0532	24.2464	-20.0669	17.0821	0.0805	-0.6814	0.0539	0.7254
10.81	-9.6351	-0.2951	0.5527	-0.0269	-0.0088	-0.0572	24.0929	-20.2340	17.2073	0.0805	-0.6814	0.0539	0.7255
10.82	-9.6165	-0.2950	0.5528	-0.0262	-0.0209	-0.0567	24.0815	-19.8892	17.4198	0.0804	-0.6814	0.0538	0.7255
10.83	-9.5970	-0.2950	0.5619	-0.0171	-0.0108	-0.0547	24.1381	-20.0301	17.0730	0.0804	-0.6814	0.0538	0.7256
10.84	-9.6168	-0.2965	0.5777	-0.0198	-0.0136	-0.0668	24.2330	-19.9204	17.1790	0.0804	-0.6813	0.0537	0.7255
10.85	-9.6326	-0.3131	0.5831	-0.0191	-0.0137	-0.0690	24.1994	-19.8453	17.2837	0.0804	-0.6813	0.0537	0.7256
10.86	-9.5962	-0.3091	0.5960	-0.0102	-0.0287	-0.0688	24.1563	-19.9428	17.1167	0.0805	-0.6812	0.0536	0.7257
10.87	-9.5702	-0.2986	0.5953	-0.0111	-0.0210	-0.0652	24.2728	-19.7002	17.2933	0.0805	-0.6812	0.0536	0.7258
10.88	-9.5333	-0.3121	0.6087	-0.0174	-0.0155	-0.0686	24.1114	-19.9707	17.1517	0.0805	-0.6811	0.0535	0.7258
10.89	-9.5371	-0.3133	0.6121	-0.0209	-0.0087	-0.0628	24.1493	-19.8943	17.2164	0.0805	-0.6811	0.0534	0.7258
10.9	-9.5562	-0.3154	0.6068	-0.0240	-0.0086	-0.0568	24.3328	-20.0056	17.2954	0.0805	-0.6811	0.0534	0.7258
10.91	-9.5729	-0.3110	0.6064	-0.0156	-0.0016	-0.0488	24.2217	-19.9502	17.2604	0.0804	-0.6810	0.0534	0.7258
10.92	-9.5848	-0.2957	0.6116	-0.0160	-0.0062	-0.0432	24.1439	-19.8974	17.2776	0.0804	-0.6811	0.0534	0.7259
10.93	-9.6008	-0.2867	0.6095	-0.0202	-0.0029	-0.0429	24.2427	-20.1377	17.2734	0.0803	-0.6811	0.0535	0.7258
10.94	-9.6170	-0.2925	0.6042	-0.0128	-0.0012	-0.0470	24.2406	-20.2174	17.2806	0.0803	-0.6812	0.0535	0.7259
10.95	-9.6175	-0.2813	0.6122	-0.0057	-0.0082	-0.0414	24.1138	-20.1030	17.2862	0.0802	-0.6810	0.0535	0.7258
10.96	-9.6075	-0.2719	0.6040	-0.0185	-0.0063	-0.0541	24.0639	-20.0803	17.0071	0.0802	-0.6811	0.0535	0.7258
10.97	-9.6010	-0.2777	0.6001	-0.0052	-0.0067	-0.0552	24.7230	-19.9950	17.2317	0.0802	-0.6811	0.0536	0.7259
10.98	-9.5882	-0.2659	0.6087	-0.0022	-0.0097	-0.0584	24.8592	-20.0086	17.2962	0.0802	-0.6810	0.0536	0.7258
10.99	-9.5866	-0.2599	0.6097	-0.0037	-0.0074	-0.0539	24.6923	-20.0790	17.2815	0.0802	-0.6811	0.0536	0.7259
11	-9.5952	-0.2602	0.6100	-0.0091	-0.0089	-0.0516	24.2952	-20.0107	17.3589	0.0802	-0.6810	0.0536	0.7259
11.01	-9.5921	-0.2517	0.6108	-0.0061	-0.0083	-0.0589	24.1588	-20.0044	17.1882	0.0803	-0.6810	0.0537	0.7259
11.02	-9.5889	-0.2487	0.6064	-0.0040	-0.0079	-0.0550	24.1824	-20.0500	17.1909	0.0803	-0.6809	0.0537	0.7259
11.03	-9.5955	-0.2523	0.6066	-0.0098	-0.0101	-0.0560	23.9482	-20.0804	17.1613	0.0803	-0.6810	0.0537	0.7259
11.04	-9.6017	-0.2571	0.6133	-0.0231	-0.0085	-0.0455	23.9928	-20.1388	17.0520	0.0802	-0.6809	0.0537	0.7260
11.05	-9.5951	-0.2587	0.6102	-0.0157	-0.0094	-0.0485	24.0441	-19.9250	17.1672	0.0801	-0.6809	0.0537	0.7260
11.06	-9.5982	-0.2619	0.6104	-0.0226	-0.0038	-0.0466	24.2041	-20.0905	17.2912	0.0801	-0.6809	0.0537	0.7260
11.07	-9.5920	-0.2589	0.6077	-0.0225	-0.0026	-0.0436	23.9992	-19.8682	17.3946	0.0800	-0.6809	0.0537	0.7260
11.08	-9.5939	-0.2553	0.6057	-0.0140	-0.0090	-0.0498	24.0015	-19.7348	17.2979	0.0799	-0.6809	0.0537	0.7260
11.09	-9.5939	-0.2495	0.6042	-0.0137	-0.0002	-0.0456	23.9664	-19.9671	17.1613	0.0799	-0.6809	0.0537	0.7259
11.1	-9.6025	-0.2490	0.6030	-0.0019	-0.0033	-0.0461	24.0250	-20.0856	17.3028	0.0799	-0.6809	0.0538	0.7260
11.11	-9.5960	-0.2411	0.6061	-0.0040	-0.0055	-0.0528	24.0759	-19.9967	17.0752	0.0799	-0.6809	0.0539	0.7260
11.12	-9.5985	-0.2386	0.5984	-0.0036	0.0033	-0.0547	24.1129	-19.9509	17.1582	0.0799	-0.6809	0.0539	0.7260
11.13	-9.6065	-0.2453	0.5989	-0.0022	0.0002	-0.0611	23.9303	-19.9696	17.2836	0.0799	-0.6809	0.0539	0.7259
11.14	-9.5992	-0.2456	0.5986	-0.0026	-0.0070	-0.0618	23.9789	-19.9685	17.1447	0.0800	-0.6809	0.0539	0.7260
11.15	-9.5939	-0.2320	0.6018	-0.0029	-0.0000	-0.0637	24.4501	-20.1415	17.2154	0.0800	-0.6810	0.0539	0.7260
11.16	-9.5861	-0.2238	0.6011	-0.0015	-0.0086	-0.0613	24.1232	-20.1285	17.0814	0.0801	-0.6809	0.0540	0.7259
11.17	-9.5880	-0.2213	0.5956	-0.0009	-0.0018	-0.0599	24.2933	-20.1600	17.1994	0.0801	-0.6810	0.0540	0.7260
11.18	-9.5946	-0.2129	0.5938	-0.0045	0.0026	-0.0665	24.2178	-20.0853	17.1826	0.0802	-0.6810	0.0540	0.7259
11.19	-9.5962	-0.2104	0.5959	-0.0154	0.0074	-0.0673	24.0888	-20.0810	17.1698	0.0802	-0.6811	0.0540	0.7259
11.2	-9.5936	-0.2242	0.5934	-0.0213	0.0050	-0.0586	23.9828	-20.2730	17.2866	0.0802	-0.6810	0.0539	0.7258
11.21	-9.5927	-0.2285	0.5868	-0.0260	0.0074	-0.0625	24.0909	-20.2911	17.2688	0.0801	-0.6811	0.0538	0.7258
11.22	-9.5908	-0.2339	0.5867	-0.0287	0.0109	-0.0626	24.0894	-20.2028	17.1218	0.0801	-0.6812	0.0538	0.7258
11.23	-9.5895	-0.2429	0.5766	-0.0282	0.0123	-0.0587	24.3566	-20.2584	17.3264	0.0800	-0.6812	0.0537	0.7257
11.24	-9.5960	-0.2560	0.5717	-0.0280	0.0164	-0.0620	24.2521	-19.9119	17.1082	0.0800	-0.6814	0.0536	0.7257
11.25	-9.6016	-0.2662	0.5650	-0.0302	0.0139	-0.0595	24.1030	-19.8641	17.1594	0.0799	-0.6814	0.0536	0.7256
11.26	-9.6065	-0.2816	0.5662	-0.0287	0.0153	-0.0661	24.0750	-20.1336	17.3184	0.0799	-0.6815	0.0535	0.7256
11.27	-9.6101	-0.3004	0.5606	-0.0280	0.0198	-0.0690	24.0678	-20.1417	17.2581	0.0799	-0.6815	0.0534	0.7254
11.28	-9.6119	-0.3073	0.5544	-0.0289	0.0146	-0.0707	24.1002	-19.9289	17.2668	0.0799	-0.6817	0.0533	0.7254
11.29	-9.6247	-0.3179	0.5489	-0.0225	0.0179	-0.0666	24.1931	-20.1302	17.5042	0.0799	-0.6817	0.0532	0.7253
11.3	-9.6271	-0.3327	0.5486	-0.0284	0.0140	-0.0630	24.1502	-19.8576	17.5201	0.0798	-0.6818	0.0531	0.7252
11.31	-9.6295	-0.3299	0.5508	-0.0265	0.0066	-0.0613	24.1893	-19.9721	17.2074	0.0798	-0.6819	0.0531	0.7252
11.32	-9.6368	-0.3273	0.5461	-0.0277	0.0038	-0.0567	23.9974	-20.0954	17.3289	0.0797	-0.6819	0.0530	0.7252
11.33	-9.6323	-0.3325	0.5479	-0.0171	-0.0029	-0.0567	24.0312	-20.2026	17.1715	0.0797	-0.6819	0.0530	0.7252
11.34	-9.6245	-0.3222	0.5453	-0.0050	-0.0020	-0.0511	24.1790	-20.2615	17.2864	0.0797	-0.6818	0.0530	0.7251
