time	acceleration_x	acceleration_y	acceleration_z	gyroscope_x	gyroscope_y	gyroscope_z	magnetometer_x	magnetometer_y	magnetometer_z	quaternion_w	quaternion_x	quaternion_y	quaternion_z
0	-9.1081	-0.8740	3.1446	-0.0400	-0.0065	-0.0528	23.5274	28.0624	-7.0522	0.5731	0.3695	0.4310	-0.5911
0.01	-9.0149	-0.8639	3.1668	-0.0364	-0.0248	-0.0550	23.2241	28.1200	-7.1886	0.5731	0.3693	0.4309	-0.5910
0.02	-8.9450	-0.8876	3.1715	-0.0406	-0.0148	-0.0554	23.4155	28.1042	-7.1808	0.5732	0.3693	0.4310	-0.5910
0.03	-9.0066	-0.9212	3.1559	-0.0224	-0.0208	-0.0607	23.2780	28.0583	-7.3419	0.5732	0.3692	0.4311	-0.5910
0.04	-8.9641	-0.9052	3.1871	-0.0095	-0.0279	-0.0564	23.5554	27.9116	-7.3685	0.5732	0.3691	0.4310	-0.5910
0.05	-8.9171	-0.8787	3.1965	0.0087	-0.0234	-0.0466	23.4829	27.9191	-7.3271	0.5733	0.3692	0.4309	-0.5912
0.06	-8.9215	-0.8373	3.2087	0.0031	-0.0179	-0.0506	23.5014	28.0806	-7.2632	0.5732	0.3692	0.4308	-0.5912
0.07	-8.9394	-0.7993	3.2184	0.0027	-0.0114	-0.0537	23.6464	28.0850	-7.4670	0.5732	0.3693	0.4308	-0.5913
0.08	-8.9440	-0.8011	3.2188	-0.0047	-0.0074	-0.0549	23.2656	28.2006	-7.3624	0.5731	0.3693	0.4307	-0.5912
0.09	-8.9508	-0.7990	3.2215	-0.0076	-0.0083	-0.0565	23.6619	28.0420	-7.3352	0.5731	0.3694	0.4308	-0.5913
0.1	-8.9686	-0.7908	3.2098	-0.0009	0.0006	-0.0542	23.4779	27.8656	-7.2177	0.5730	0.3694	0.4308	-0.5913
0.11	-8.9809	-0.7895	3.1987	-0.0032	-0.0021	-0.0576	23.1909	28.0097	-7.3613	0.5730	0.3695	0.4308	-0.5913
0.12	-8.9878	-0.7911	3.1952	-0.0064	-0.0026	-0.0503	23.5078	28.1036	-7.2726	0.5729	0.3695	0.4308	-0.5913
0.13	-8.9994	-0.7953	3.1815	-0.0170	0.0012	-0.0534	23.2421	28.0997	-6.9507	0.5729	0.3695	0.4308	-0.5913
0.14	-9.0006	-0.8203	3.1756	-0.0139	-0.0088	-0.0512	23.5607	28.0965	-7.1511	0.5729	0.3696	0.4308	-0.5913
0.15	-8.9999	-0.8399	3.1738	-0.0168	-0.0128	-0.0552	23.3265	28.0980	-7.5088	0.5728	0.3695	0.4308	-0.5912
0.16	-9.0024	-0.8609	3.1647	-0.0122	-0.0119	-0.0550	23.2950	28.0867	-7.2941	0.5729	0.3696	0.4308	-0.5913
0.17	-8.9846	-0.8687	3.1637	-0.0097	-0.0151	-0.0482	23.4551	28.2816	-7.2704	0.5729	0.3696	0.4308	-0.5913
0.18	-8.9733	-0.8623	3.1689	-0.0058	-0.0125	-0.0492	23.2875	28.1948	-7.2579	0.5729	0.3696	0.4308	-0.5913
0.19	-8.9825	-0.8510	3.1743	-0.0040	-0.0145	-0.0436	23.4891	28.1868	-7.2849	0.5729	0.3696	0.4307	-0.5913
0.2	-8.9921	-0.8321	3.1782	-0.0023	-0.0138	-0.0370	23.2757	28.1641	-7.2315	0.5729	0.3697	0.4306	-0.5913
0.21	-8.9985	-0.8223	3.1859	0.0031	-0.0168	-0.0389	23.4651	28.2578	-7.3601	0.5729	0.3698	0.4306	-0.5913
0.22	-9.0002	-0.8095	3.1957	0.0060	-0.0214	-0.0351	23.3359	28.2097	-7.2761	0.5729	0.3698	0.4304	-0.5913
0.23	-9.0070	-0.7951	3.1878	0.0050	-0.0248	-0.0370	23.3763	28.0629	-7.1633	0.5730	0.3699	0.4303	-0.5914
0.24	-9.0051	-0.7831	3.1954	0.0028	-0.0182	-0.0356	23.5893	27.9793	-7.2985	0.5730	0.3699	0.4302	-0.5914
0.25	-9.0087	-0.7715	3.1918	0.0045	-0.0196	-0.0367	23.4773	28.0989	-7.2363	0.5731	0.3700	0.4301	-0.5914
0.26	-9.0005	-0.7562	3.1873	-0.0024	-0.0240	-0.0358	23.6658	28.0131	-7.3679	0.5730	0.3700	0.4300	-0.5914
0.27	-8.9746	-0.7410	3.1946	0.0040	-0.0240	-0.0380	23.5554	28.0029	-7.2319	0.5731	0.3701	0.4299	-0.5914
0.28	-8.9654	-0.7272	3.1989	0.0023	-0.0232	-0.0378	23.5556	28.0183	-7.2791	0.5731	0.3701	0.4298	-0.5914
0.29	-8.9664	-0.7129	3.2009	-0.0020	-0.0269	-0.0396	23.4118	27.9993	-7.2408	0.5732	0.3701	0.4297	-0.5914
0.3	-8.9619	-0.7042	3.2063	-0.0115	-0.0262	-0.0463	23.4968	28.0217	-7.3851	0.5733	0.3702	0.4297	-0.5915
0.31	-8.9473	-0.7004	3.2114	-0.0143	-0.0278	-0.0438	23.4492	28.1258	-7.4641	0.5733	0.3701	0.4296	-0.5915
0.32	-8.9446	-0.7018	3.2144	-0.0215	-0.0177	-0.0466	23.3413	28.0661	-7.2085	0.5734	0.3701	0.4296	-0.5915
0.33	-8.9503	-0.7157	3.2128	-0.0249	-0.0228	-0.0478	23.2393	28.2030	-7.4985	0.5733	0.3700	0.4295	-0.5914
0.34	-8.9542	-0.7297	3.2183	-0.0308	-0.0215	-0.0534	23.3302	28.1564	-7.2721	0.5734	0.3700	0.4296	-0.5914
0.35	-8.9557	-0.7344	3.2127	-0.0275	-0.0153	-0.0486	23.4146	28.0764	-7.3574	0.5735	0.3699	0.4296	-0.5914
0.36	-8.9459	-0.7527	3.2037	-0.0341	-0.0141	-0.0473	23.3866	28.1039	-7.5045	0.5735	0.3699	0.4296	-0.5913
0.37	-8.9404	-0.7647	3.2024	-0.0262	-0.0169	-0.0500	23.5625	28.0946	-7.3143	0.5736	0.3698	0.4297	-0.5913
0.38	-8.9457	-0.7758	3.2018	-0.0257	-0.0113	-0.0471	23.2594	28.0907	-7.3877	0.5736	0.3698	0.4297	-0.5913
0.39	-8.9565	-0.7860	3.2011	-0.0340	-0.0077	-0.0541	23.2414	27.9014	-7.2983	0.5736	0.3698	0.4298	-0.5913
0.4	-8.9659	-0.7923	3.1883	-0.0194	-0.0035	-0.0517	23.4190	28.0089	-7.1438	0.5735	0.3697	0.4297	-0.5912
0.41	-8.9812	-0.7991	3.1888	-0.0213	-0.0033	-0.0475	23.6817	28.1175	-7.3112	0.5736	0.3698	0.4298	-0.5912
0.42	-8.9984	-0.8030	3.1792	-0.0146	-0.0065	-0.0539	23.5506	28.0905	-7.3619	0.5736	0.3698	0.4298	-0.5912
0.43	-8.9968	-0.8033	3.1712	-0.0145	-0.0078	-0.0517	23.5114	28.0993	-7.3642	0.5736	0.3698	0.4299	-0.5912
0.44	-9.0023	-0.7924	3.1703	-0.0206	-0.0047	-0.0550	23.6318	28.1005	-7.3335	0.5735	0.3698	0.4299	-0.5911
0.45	-9.0076	-0.7984	3.1703	-0.0221	-0.0077	-0.0546	23.6107	28.0843	-7.4030	0.5735	0.3698	0.4299	-0.5911
0.46	-9.0007	-0.8011	3.1700	-0.0163	-0.0059	-0.0563	23.6420	27.9489	-7.2168	0.5735	0.3698	0.4300	-0.5912
0.47	-8.9929	-0.7908	3.1648	-0.0147	-0.0089	-0.0578	23.8960	28.1993	-7.1404	0.5735	0.3698	0.4299	-0.5911
0.48	-8.9909	-0.7891	3.1685	-0.0150	-0.0145	-0.0501	23.9894	28.2834	-7.3946	0.5735	0.3698	0.4300	-0.5912
0.49	-8.9904	-0.7863	3.1628	-0.0146	-0.0177	-0.0488	23.6422	28.0981	-7.3435	0.5735	0.3698	0.4299	-0.5911
0.5	-9.0023	-0.7844	3.1643	-0.0155	-0.0131	-0.0504	23.3511	27.8182	-7.2752	0.5736	0.3698	0.4300	-0.5912
0.51	-8.9958	-0.7853	3.1642	-0.0160	-0.0162	-0.0463	23.1629	27.8459	-7.2741	0.5735	0.3698	0.4299	-0.5911
0.52	-9.0082	-0.7842	3.1704	-0.0180	-0.0187	-0.0511	23.3310	28.1852	-7.2513	0.5736	0.3698	0.4299	-0.5911
0.53	-9.0152	-0.7855	3.1723	-0.0249	-0.0149	-0.0530	23.3793	28.1834	-7.3466	0.5736	0.3697	0.4299	-0.5911
0.54	-8.9996	-0.7883	3.1716	-0.0268	-0.0178	-0.0459	23.3463	28.1814	-7.3132	0.5736	0.3697	0.4299	-0.5911
0.55	-9.0003	-0.7922	3.1755	-0.0172	-0.0105	-0.0404	23.3867	28.1985	-7.0348	0.5737	0.3697	0.4300	-0.5911
0.56	-8.9978	-0.8004	3.1756	-0.0267	-0.0215	-0.0473	23.4661	28.1613	-7.4320	0.5737	0.3696	0.4299	-0.5910
0.57	-8.9908	-0.8024	3.1732	-0.0185	-0.0155	-0.0487	23.4526	28.0179	-7.4166	0.5738	0.3697	0.4300	-0.5911
0.58	-8.9850	-0.8028	3.1772	-0.0110	-0.0203	-0.0448	23.4397	27.9893	-7.2338	0.5737	0.3696	0.4299	-0.5910
0.59	-8.9830	-0.7935	3.1849	-0.0149	-0.0282	-0.0402	23.4756	28.1594	-7.1928	0.5739	0.3696	0.4298	-0.5910
0.6	-8.9833	-0.7872	3.1889	-0.0117	-0.0240	-0.0420	23.2226	28.1436	-7.3057	0.5739	0.3696	0.4298	-0.5910
0.61	-8.9783	-0.7817	3.2011	-0.0135	-0.0253	-0.0456	23.5111	27.7828	-7.2317	0.5739	0.3696	0.4297	-0.5910
0.62	-8.9840	-0.7726	3.2079	-0.0164	-0.0236	-0.0476	23.6463	27.9762	-7.3936	0.5740	0.3696	0.4297	-0.5911
0.63	-8.9935	-0.7713	3.2098	-0.0180	-0.0219	-0.0476	23.5167	27.9798	-7.3172	0.5740	0.3695	0.4296	-0.5910
0.64	-8.9808	-0.7708	3.2113	-0.0154	-0.0226	-0.0423	23.5105	27.9084	-7.2336	0.5741	0.3695	0.4296	-0.5911
0.65	-8.9662	-0.7624	3.2135	-0.0147	-0.0260	-0.0367	23.3284	27.9170	-7.3708	0.5741	0.3695	0.4295	-0.5910
0.66	-8.9522	-0.7558	3.2234	-0.0138	-0.0240	-0.0414	23.4891	27.9446	-7.2480	0.5742	0.3695	0.4295	-0.5910
0.67	-8.9508	-0.7508	3.2195	-0.0132	-0.0203	-0.0397	23.4074	27.8599	-7.2614	0.5743	0.3695	0.4294	-0.5910
0.68	-8.9285	-0.7377	3.2203	-0.0104	-0.0223	-0.0413	23.3034	27.8827	-7.0193	0.5743	0.3695	0.4294	-0.5910
0.69	-8.9168	-0.7235	3.2330	-0.0129	-0.0206	-0.0448	23.6057	28.0333	-7.4190	0.5743	0.3695	0.4293	-0.5910
0.7	-8.9182	-0.7091	3.2327	-0.0136	-0.0215	-0.0449	23.5709	28.1310	-7.4278	0.5744	0.3695	0.4293	-0.5910
0.71	-8.9431	-0.7036	3.2391	-0.0158	-0.0138	-0.0529	23.2115	28.0208	-7.1357	0.5744	0.3695	0.4293	-0.5910
0.72	-8.9582	-0.7078	3.2338	-0.0149	-0.0189	-0.0528	23.3848	28.0711	-7.2818	0.5744	0.3694	0.4292	-0.5910
0.73	-8.9540	-0.7132	3.2331	-0.0156	-0.0182	-0.0519	23.3503	28.2222	-7.2703	0.5745	0.3695	0.4292	-0.5910
0.74	-8.9526	-0.7060	3.2158	-0.0144	-0.0092	-0.0577	23.2339	28.3034	-7.1214	0.5744	0.3694	0.4292	-0.5910
0.75	-8.9770	-0.6946	3.2144	-0.0157	-0.0067	-0.0607	23.3633	28.1992	-7.0583	0.5745	0.3695	0.4293	-0.5911
0.76	-9.0168	-0.6887	3.2189	-0.0321	-0.0075	-0.0638	23.3641	28.1848	-7.2781	0.5744	0.3694	0.4293	-0.5910
0.77	-8.9844	-0.6932	3.2117	-0.0334	-0.0130	-0.0647	23.2490	28.0549	-7.4146	0.5744	0.3693	0.4294	-0.5910
0.78	-8.9656	-0.7181	3.2276	-0.0373	-0.0196	-0.0593	23.2866	27.9892	-7.4613	0.5744	0.3692	0.4295	-0.5910
0.79	-9.0115	-0.7475	3.2264	-0.0425	-0.0195	-0.0610	23.2539	28.0194	-7.4570	0.5744	0.3691	0.4295	-0.5909
0.8	-9.0180	-0.7679	3.2370	-0.0422	-0.0234	-0.0577	23.3881	27.9981	-7.4440	0.5746	0.3690	0.4296	-0.5910
0.81	-8.9954	-0.7875	3.2324	-0.0487	-0.0206	-0.0606	23.3466	28.0311	-7.1888	0.5746	0.3688	0.4297	-0.5909
0.82	-8.9678	-0.8143	3.2185	-0.0529	-0.0222	-0.0490	23.6287	27.9477	-7.3870	0.5747	0.3687	0.4298	-0.5909
0.83	-8.9596	-0.8432	3.2150	-0.0402	-0.0205	-0.0479	23.6209	27.8972	-7.2475	0.5747	0.3686	0.4297	-0.5907
0.84	-8.9391	-0.8546	3.2167	-0.0398	-0.0226	-0.0473	23.5452	28.0673	-7.1755	0.5749	0.3685	0.4298	-0.5907
0.85	-8.9385	-0.8418	3.2221	-0.0422	-0.0212	-0.0400	23.4809	28.0992	-7.3337	0.5750	0.3685	0.4298	-0.5907
0.86	-8.9468	-0.8099	3.2162	-0.0342	-0.0204	-0.0353	23.5047	28.1131	-7.4525	0.5751	0.3684	0.4298	-0.5906
0.87	-8.9557	-0.8037	3.2122	-0.0241	-0.0098	-0.0386	23.5718	27.9838	-7.4569	0.5752	0.3684	0.4298	-0.5905
0.88	-8.9604	-0.8154	3.2089	-0.0215	-0.0166	-0.0405	23.3762	27.9212	-7.1730	0.5752	0.3684	0.4298	-0.5905
0.89	-8.9583	-0.8082	3.1991	-0.0190	-0.0148	-0.0473	23.5735	28.1064	-7.1909	0.5753	0.3684	0.4298	-0.5905
0.9	-8.9586	-0.8073	3.1915	-0.0181	-0.0071	-0.0540	23.4246	28.1021	-7.1524	0.5752	0.3684	0.4298	-0.5904
0.91	-8.9667	-0.8011	3.1931	-0.0155	-0.0118	-0.0489	23.3937	27.9836	-7.3276	0.5753	0.3684	0.4298	-0.5904
0.92	-8.9778	-0.7946	3.1917	-0.0149	-0.0105	-0.0586	23.5728	28.2049	-7.3355	0.5752	0.3684	0.4298	-0.5904
0.93	-8.9870	-0.7976	3.1943	-0.0132	-0.0026	-0.0569	23.3106	28.0999	-7.2178	0.5752	0.3684	0.4299	-0.5905
0.94	-8.9934	-0.7936	3.1968	-0.0129	-0.0054	-0.0583	23.4929	28.1033	-7.5013	0.5752	0.3684	0.4299	-0.5904
0.95	-8.9927	-0.7936	3.1972	-0.0147	-0.0079	-0.0610	23.4105	28.3198	-7.2896	0.5751	0.3684	0.4299	-0.5905
0.96	-8.9923	-0.8013	3.2001	-0.0066	-0.0161	-0.0500	23.5637	28.4500	-7.0845	0.5752	0.3685	0.4299	-0.5905
0.97	-8.9902	-0.8056	3.1975	-0.0116	-0.0182	-0.0543	23.7544	28.3801	-7.1537	0.5751	0.3684	0.4298	-0.5905
0.98	-8.9899	-0.8047	3.2071	-0.0128	-0.0264	-0.0434	23.6935	28.1626	-7.4317	0.5752	0.3685	0.4298	-0.5905
0.99	-8.9978	-0.8107	3.2097	-0.0170	-0.0185	-0.0408	23.5930	27.9547	-7.2503	0.5753	0.3684	0.4297	-0.5905
1	-8.9950	-0.8206	3.2082	-0.0099	-0.0186	-0.0414	23.4032	27.9063	-7.3307	0.5753	0.3685	0.4297	-0.5905
1.01	-8.9858	-0.8237	3.2150	-0.0153	-0.0242	-0.0385	23.3323	27.8342	-7.4563	0.5753	0.3684	0.4296	-0.5904
1.02	-8.9866	-0.8240	3.1913	-0.0008	-0.0209	-0.0385	23.4533	27.9890	-7.3402	0.5754	0.3685	0.4295	-0.5905
1.03	-8.9321	-0.8076	3.2173	-0.0032	-0.0265	-0.0439	23.5991	28.1313	-7.3120	0.5755	0.3685	0.4294	-0.5905
1.04	-9.0304	-0.7977	3.2196	0.0069	-0.0111	-0.0428	23.5415	28.0842	-7.2248	0.5754	0.3686	0.4293	-0.5905
1.05	-9.0025	-0.7793	3.2124	0.0006	-0.0320	-0.0467	23.2998	28.0893	-7.3933	0.5755	0.3686	0.4292	-0.5906
1.06	-8.8802	-0.7734	3.2353	0.0010	-0.0322	-0.0482	23.2086	28.1214	-7.3163	0.5755	0.3686	0.4291	-0.5906
1.07	-8.9567	-0.8014	3.2147	0.0067	-0.0111	-0.0483	23.3352	28.0016	-7.2137	0.5755	0.3687	0.4290	-0.5907
1.08	-8.9463	-0.7889	3.2278	0.0090	-0.0187	-0.0570	23.3141	28.1032	-7.3977	0.5754	0.3687	0.4289	-0.5907
1.09	-8.9021	-0.7712	3.2463	0.0080	-0.0205	-0.0518	23.3856	28.1714	-7.2954	0.5754	0.3688	0.4288	-0.5908
1.1	-8.9064	-0.7434	3.2430	0.0052	-0.0090	-0.0453	23.5429	27.9246	-7.3072	0.5754	0.3688	0.4287	-0.5908
1.11	-8.9388	-0.7128	3.2462	-0.0034	0.0033	-0.0470	23.2226	28.1332	-7.3680	0.5754	0.3689	0.4287	-0.5908
1.12	-8.9572	-0.7131	3.2439	-0.0010	-0.0051	-0.0443	23.2507	27.9669	-7.2740	0.5754	0.3690	0.4287	-0.5908
1.13	-8.9378	-0.7118	3.2421	-0.0118	-0.0112	-0.0478	23.2508	28.0543	-7.3282	0.5754	0.3690	0.4287	-0.5908
1.14	-8.9565	-0.7263	3.2351	-0.0101	0.0040	-0.0488	23.4416	28.1084	-7.2835	0.5754	0.3691	0.4287	-0.5908
1.15	-8.9840	-0.7333	3.2275	-0.0110	-0.0001	-0.0473	23.3325	28.0881	-7.4763	0.5753	0.3691	0.4287	-0.5907
1.16	-8.9735	-0.7278	3.2341	-0.0153	0.0039	-0.0502	23.3308	28.0904	-7.3333	0.5753	0.3692	0.4288	-0.5907
1.17	-8.9911	-0.7277	3.2209	-0.0141	0.0004	-0.0479	23.5045	28.1117	-7.3368	0.5753	0.3693	0.4288	-0.5906
1.18	-8.9889	-0.7367	3.2122	-0.0155	-0.0035	-0.0520	23.5167	28.0303	-7.1587	0.5753	0.3693	0.4288	-0.5906
1.19	-8.9677	-0.7583	3.2089	-0.0148	-0.0074	-0.0571	23.4297	27.9079	-7.1568	0.5752	0.3693	0.4288	-0.5906
1.2	-8.9649	-0.7760	3.2019	-0.0146	-0.0084	-0.0534	23.5106	27.9158	-7.3238	0.5752	0.3693	0.4288	-0.5906
1.21	-8.9594	-0.7773	3.2077	-0.0136	-0.0110	-0.0461	23.3678	27.9406	-7.3214	0.5753	0.3693	0.4288	-0.5906
1.22	-8.9653	-0.7813	3.2098	-0.0171	-0.0145	-0.0448	23.5416	27.8234	-7.1326	0.5752	0.3693	0.4287	-0.5905
1.23	-8.9865	-0.7821	3.2057	-0.0140	0.0027	-0.0446	23.3787	27.8493	-7.2889	0.5753	0.3694	0.4288	-0.5906
1.24	-8.9950	-0.7860	3.1945	-0.0162	-0.0058	-0.0417	23.4815	27.7898	-7.3827	0.5753	0.3694	0.4288	-0.5905
1.25	-8.9980	-0.7933	3.1969	-0.0117	-0.0085	-0.0357	23.5257	27.9833	-7.2671	0.5754	0.3695	0.4288	-0.5905
1.26	-9.0081	-0.7968	3.1898	-0.0112	-0.0057	-0.0367	23.4387	28.0236	-7.2526	0.5753	0.3695	0.4287	-0.5904
1.27	-9.0096	-0.7898	3.1992	-0.0158	-0.0101	-0.0399	23.2517	27.8836	-7.3844	0.5754	0.3696	0.4287	-0.5904
1.28	-9.0235	-0.7776	3.1993	-0.0107	-0.0064	-0.0421	23.3191	28.1368	-7.3229	0.5754	0.3697	0.4287	-0.5903
1.29	-9.0203	-0.7652	3.1956	-0.0089	-0.0192	-0.0440	23.2633	28.2838	-7.4573	0.5754	0.3697	0.4286	-0.5903
1.3	-9.0031	-0.7528	3.2023	-0.0081	-0.0195	-0.0444	23.1500	28.1649	-7.4456	0.5755	0.3697	0.4286	-0.5904
1.31	-8.9962	-0.7452	3.2037	-0.0133	-0.0164	-0.0447	23.5456	27.9116	-7.4522	0.5755	0.3697	0.4285	-0.5903
1.32	-9.0010	-0.7366	3.2083	-0.0161	-0.0222	-0.0469	23.2433	27.9709	-7.4191	0.5756	0.3697	0.4285	-0.5903
1.33	-8.9664	-0.7246	3.2174	-0.0148	-0.0234	-0.0500	23.2392	28.1076	-7.5674	0.5755	0.3696	0.4284	-0.5903
1.34	-8.9694	-0.7249	3.2197	-0.0152	-0.0241	-0.0469	23.3648	28.0839	-7.3829	0.5756	0.3696	0.4284	-0.5903
1.35	-8.9635	-0.7299	3.2219	-0.0150	-0.0228	-0.0484	23.4756	27.9339	-7.3772	0.5757	0.3696	0.4284	-0.5903
1.36	-8.9591	-0.7387	3.2291	-0.0143	-0.0271	-0.0423	23.5957	27.9146	-7.1875	0.5757	0.3696	0.4283	-0.5903
1.37	-8.9477	-0.7450	3.2287	-0.0083	-0.0284	-0.0434	23.6144	27.9282	-7.1435	0.5758	0.3696	0.4282	-0.5904
1.38	-8.9411	-0.7506	3.2336	-0.0139	-0.0189	-0.0518	23.5710	27.7841	-7.4535	0.5758	0.3696	0.4282	-0.5904
1.39	-8.9497	-0.7532	3.2389	-0.0125	-0.0219	-0.0480	23.4677	27.9124	-7.4157	0.5759	0.3696	0.4281	-0.5904
1.4	-8.9468	-0.7486	3.2379	-0.0103	-0.0206	-0.0500	23.6299	27.9230	-7.4780	0.5758	0.3695	0.4280	-0.5903
1.41	-8.9424	-0.7489	3.2359	-0.0138	-0.0245	-0.0479	23.4603	27.8132	-7.3781	0.5759	0.3695	0.4280	-0.5904
1.42	-8.9516	-0.7490	3.2403	-0.0163	-0.0215	-0.0530	23.4252	27.8492	-7.4093	0.5759	0.3695	0.4280	-0.5904
1.43	-8.9609	-0.7387	3.2360	-0.0142	-0.0202	-0.0456	23.3654	28.0461	-7.3817	0.5760	0.3695	0.4280	-0.5904
1.44	-8.9623	-0.7436	3.2358	-0.0142	-0.0237	-0.0469	23.2203	27.8663	-7.3459	0.5760	0.3695	0.4279	-0.5904
1.45	-8.9627	-0.7442	3.2362	-0.0126	-0.0220	-0.0509	23.2546	27.8853	-7.3233	0.5760	0.3695	0.4279	-0.5904
1.46	-8.9680	-0.7452	3.2258	-0.0139	-0.0182	-0.0578	23.4724	28.2449	-7.2520	0.5760	0.3694	0.4278	-0.5905
1.47	-8.9736	-0.7545	3.2230	-0.0153	-0.0141	-0.0565	23.9149	28.0783	-7.1871	0.5760	0.3694	0.4278	-0.5904
1.48	-8.9827	-0.7586	3.2253	-0.0145	-0.0198	-0.0560	23.9359	28.1075	-7.1476	0.5761	0.3694	0.4278	-0.5905
1.49	-8.9830	-0.7610	3.2215	-0.0121	-0.0084	-0.0562	23.6645	28.0874	-7.3603	0.5760	0.3694	0.4278	-0.5905
1.5	-8.9772	-0.7595	3.2231	-0.0138	-0.0179	-0.0484	23.3076	28.0894	-7.5565	0.5761	0.3694	0.4278	-0.5906
1.51	-8.9788	-0.7484	3.2277	-0.0149	-0.0207	-0.0530	23.2034	28.0038	-7.4471	0.5760	0.3694	0.4277	-0.5905
1.52	-8.9807	-0.7444	3.2213	-0.0157	-0.0194	-0.0500	23.4337	27.9911	-7.3176	0.5761	0.3694	0.4277	-0.5906
1.53	-8.9714	-0.7401	3.2198	-0.0154	-0.0266	-0.0437	23.2020	28.0034	-7.4028	0.5761	0.3693	0.4277	-0.5906
1.54	-8.9726	-0.7363	3.2183	-0.0143	-0.0270	-0.0434	23.5053	27.9341	-7.5411	0.5762	0.3693	0.4276	-0.5905
1.55	-8.9771	-0.7378	3.2266	-0.0166	-0.0250	-0.0398	23.4424	27.6783	-7.5229	0.5763	0.3693	0.4276	-0.5906
1.56	-8.9771	-0.7391	3.2300	-0.0162	-0.0246	-0.0480	23.5254	27.7959	-7.6861	0.5763	0.3693	0.4275	-0.5905
1.57	-8.9729	-0.7415	3.2410	-0.0186	-0.0220	-0.0441	23.3450	28.0273	-7.4863	0.5764	0.3693	0.4275	-0.5906
1.58	-8.9699	-0.7415	3.2454	-0.0172	-0.0231	-0.0399	23.6093	27.8834	-7.3252	0.5764	0.3692	0.4274	-0.5905
1.59	-8.9580	-0.7309	3.2558	-0.0174	-0.0306	-0.0416	23.4790	28.0431	-7.4772	0.5765	0.3692	0.4273	-0.5905
1.6	-8.9445	-0.7297	3.2599	-0.0214	-0.0318	-0.0420	23.4456	28.0736	-7.6048	0.5766	0.3692	0.4273	-0.5905
1.61	-8.9309	-0.7308	3.2641	-0.0245	-0.0242	-0.0414	23.6284	27.8676	-7.6412	0.5766	0.3691	0.4272	-0.5905
1.62	-8.9298	-0.7335	3.2656	-0.0267	-0.0227	-0.0378	23.4349	27.9491	-7.5252	0.5768	0.3691	0.4272	-0.5905
1.63	-8.9391	-0.7384	3.2649	-0.0255	-0.0230	-0.0459	23.4834	27.9563	-7.5173	0.5768	0.3691	0.4272	-0.5904
1.64	-8.9326	-0.7398	3.2684	-0.0267	-0.0206	-0.0465	23.2835	27.9296	-7.3871	0.5769	0.3690	0.4272	-0.5904
1.65	-8.9259	-0.7382	3.2704	-0.0131	-0.0214	-0.0443	23.2988	28.1090	-7.5830	0.5769	0.3690	0.4271	-0.5903
1.66	-8.9374	-0.7367	3.2688	-0.0193	-0.0173	-0.0470	23.4029	27.9618	-7.3689	0.5770	0.3690	0.4271	-0.5904
1.67	-8.9411	-0.7306	3.2713	-0.0180	-0.0150	-0.0486	23.3739	28.0143	-7.4157	0.5770	0.3690	0.4271	-0.5904
1.68	-8.9443	-0.7315	3.2727	-0.0168	-0.0147	-0.0502	23.4082	27.9673	-7.6765	0.5770	0.3690	0.4271	-0.5904
1.69	-8.9432	-0.7245	3.2732	-0.0210	-0.0158	-0.0478	23.2665	28.1042	-7.5037	0.5770	0.3690	0.4271	-0.5903
1.7	-8.9403	-0.7155	3.2608	-0.0210	-0.0173	-0.0493	23.4659	28.0507	-7.5693	0.5770	0.3690	0.4271	-0.5903
1.71	-8.9292	-0.7187	3.2528	-0.0172	-0.0100	-0.0495	23.4216	27.9623	-7.4675	0.5770	0.3690	0.4271	-0.5903
1.72	-8.9327	-0.7204	3.2504	-0.0201	-0.0111	-0.0467	23.3679	28.0232	-7.4158	0.5770	0.3690	0.4271	-0.5903
1.73	-8.9516	-0.7217	3.2510	-0.0320	-0.0039	-0.0429	23.3906	27.9495	-7.6821	0.5771	0.3690	0.4272	-0.5903
1.74	-8.9564	-0.7252	3.2441	-0.0300	-0.0122	-0.0461	23.5472	27.9331	-7.5673	0.5771	0.3690	0.4272	-0.5902
1.75	-8.9626	-0.7372	3.2540	-0.0332	-0.0134	-0.0472	23.5519	28.0305	-7.5175	0.5772	0.3690	0.4272	-0.5902
1.76	-8.9977	-0.7535	3.2529	-0.0329	-0.0081	-0.0547	23.6795	27.8933	-7.5508	0.5772	0.3689	0.4272	-0.5901
1.77	-9.0005	-0.7753	3.2465	-0.0238	-0.0111	-0.0529	23.4827	27.8966	-7.5034	0.5772	0.3689	0.4273	-0.5901
1.78	-8.9569	-0.7860	3.2431	-0.0185	-0.0121	-0.0471	23.3558	27.7680	-7.4047	0.5772	0.3689	0.4273	-0.5901
1.79	-8.9815	-0.7840	3.2460	-0.0177	-0.0097	-0.0550	23.3819	27.9217	-7.5301	0.5772	0.3689	0.4273	-0.5900
1.8	-9.0099	-0.7881	3.2394	-0.0171	-0.0056	-0.0515	23.5060	27.8880	-7.5483	0.5773	0.3689	0.4274	-0.5901
1.81	-8.9763	-0.7930	3.2386	-0.0139	-0.0174	-0.0582	23.2750	27.9452	-7.5063	0.5772	0.3689	0.4273	-0.5901
1.82	-8.9420	-0.8077	3.2449	-0.0140	-0.0236	-0.0608	23.4359	28.0159	-7.6193	0.5772	0.3689	0.4273	-0.5901
1.83	-8.9651	-0.8206	3.2458	-0.0066	-0.0120	-0.0558	23.4919	27.9748	-7.6273	0.5771	0.3688	0.4272	-0.5901
1.84	-8.9921	-0.8240	3.2665	-0.0093	-0.0162	-0.0533	23.3675	28.0113	-7.5289	0.5772	0.3689	0.4273	-0.5902
1.85	-8.9780	-0.8114	3.2757	-0.0023	-0.0193	-0.0534	23.5357	28.1287	-7.5010	0.5771	0.3689	0.4272	-0.5902
1.86	-8.9397	-0.7983	3.2789	0.0058	-0.0227	-0.0549	23.3781	27.9702	-7.4006	0.5771	0.3689	0.4271	-0.5903
1.87	-8.9227	-0.7990	3.2723	0.0123	-0.0192	-0.0506	23.2965	28.1138	-7.5822	0.5771	0.3690	0.4270	-0.5904
1.88	-8.9046	-0.7961	3.2705	0.0116	-0.0157	-0.0474	23.2896	28.0258	-7.4893	0.5770	0.3691	0.4269	-0.5904
1.89	-8.9068	-0.7793	3.2757	0.0113	0.0008	-0.0449	23.3101	28.0238	-7.4191	0.5770	0.3692	0.4268	-0.5904
1.9	-8.9206	-0.7514	3.2736	0.0123	-0.0008	-0.0434	23.2710	28.1891	-7.5413	0.5769	0.3693	0.4267	-0.5904
1.91	-8.9409	-0.7228	3.2619	0.0151	-0.0022	-0.0379	23.4477	28.1616	-7.5525	0.5769	0.3695	0.4267	-0.5905
1.92	-8.9460	-0.7071	3.2447	0.0140	0.0027	-0.0414	23.4375	27.8392	-7.5045	0.5768	0.3696	0.4266	-0.5904
1.93	-8.9457	-0.7021	3.2323	0.0135	0.0014	-0.0427	23.3606	27.8726	-7.6238	0.5768	0.3698	0.4265	-0.5905
1.94	-8.9424	-0.6986	3.2213	0.0050	-0.0018	-0.0399	23.3985	27.9235	-7.6209	0.5767	0.3699	0.4265	-0.5904
1.95	-8.9571	-0.6932	3.2205	0.0101	0.0003	-0.0429	23.3740	28.0140	-7.5232	0.5767	0.3700	0.4264	-0.5904
1.96	-8.9686	-0.6889	3.2177	0.0069	-0.0021	-0.0530	23.4299	27.9584	-7.5042	0.5767	0.3702	0.4264	-0.5905
1.97	-8.9841	-0.6897	3.2196	0.0058	-0.0002	-0.0505	23.9528	28.1667	-7.3277	0.5765	0.3702	0.4263	-0.5905
1.98	-9.0053	-0.6890	3.2168	-0.0056	-0.0076	-0.0462	24.1027	28.1920	-7.3689	0.5766	0.3704	0.4263	-0.5905
1.99	-9.0067	-0.6959	3.2247	-0.0157	-0.0106	-0.0514	23.6067	27.9350	-7.3527	0.5765	0.3703	0.4263	-0.5905
2	-8.9970	-0.7066	3.2243	-0.0064	-0.0101	-0.0506	23.3520	27.9962	-7.4222	0.5766	0.3704	0.4263	-0.5906
2.01	-8.9796	-0.7120	3.2226	-0.0144	-0.0151	-0.0524	23.1488	28.1741	-7.5919	0.5765	0.3704	0.4263	-0.5905
2.02	-8.9722	-0.7141	3.2283	-0.0151	-0.0092	-0.0559	23.2718	27.9403	-7.3738	0.5765	0.3704	0.4263	-0.5905
2.03	-8.9702	-0.7112	3.2292	-0.0153	-0.0119	-0.0533	23.4358	27.9927	-7.4037	0.5765	0.3704	0.4263	-0.5905
2.04	-8.9816	-0.7056	3.2342	-0.0135	-0.0073	-0.0514	23.3237	28.0351	-7.4886	0.5765	0.3704	0.4263	-0.5905
2.05	-8.9969	-0.7083	3.2388	-0.0157	-0.0097	-0.0478	23.3734	28.0244	-7.3220	0.5765	0.3705	0.4263	-0.5906
2.06	-8.9900	-0.7046	3.2154	-0.0192	-0.0064	-0.0512	23.3781	28.1587	-7.2582	0.5765	0.3705	0.4263	-0.5905
2.07	-8.9247	-0.6911	3.2250	-0.0257	-0.0131	-0.0486	23.1672	28.0347	-7.5416	0.5765	0.3705	0.4264	-0.5905
2.08	-9.0146	-0.7013	3.2461	-0.0272	0.0058	-0.0447	23.4596	28.0053	-7.4667	0.5765	0.3705	0.4264	-0.5903
2.09	-9.0600	-0.6999	3.2178	-0.0383	-0.0146	-0.0483	23.3001	28.1612	-7.4304	0.5766	0.3705	0.4265	-0.5903
2.1	-8.9017	-0.7008	3.2528	-0.0358	-0.0298	-0.0467	23.3721	28.0388	-7.3217	0.5766	0.3703	0.4264	-0.5903
2.11	-8.9711	-0.7644	3.2186	-0.0382	-0.0088	-0.0480	23.5364	28.0272	-7.4606	0.5767	0.3703	0.4265	-0.5902
2.12	-8.9702	-0.7958	3.2328	-0.0352	-0.0197	-0.0445	23.4803	28.0932	-7.3440	0.5768	0.3703	0.4265	-0.5902
2.13	-8.9362	-0.7957	3.2347	-0.0334	-0.0195	-0.0455	23.4589	28.1846	-7.6618	0.5768	0.3702	0.4266	-0.5901
2.14	-8.9072	-0.7975	3.2478	-0.0208	-0.0227	-0.0343	23.4928	28.1016	-7.5320	0.5769	0.3702	0.4265	-0.5901
2.15	-8.9613	-0.7752	3.2365	-0.0176	-0.0082	-0.0469	23.3075	27.9043	-7.3018	0.5769	0.3702	0.4265	-0.5900
2.16	-8.9707	-0.7681	3.2354	-0.0159	-0.0170	-0.0416	23.3411	28.0444	-7.5300	0.5770	0.3702	0.4265	-0.5901
2.17	-8.9753	-0.7754	3.2431	-0.0152	-0.0124	-0.0453	23.5138	27.8893	-7.4930	0.5770	0.3702	0.4265	-0.5900
2.18	-8.9757	-0.7715	3.2298	-0.0105	-0.0151	-0.0474	23.4324	27.9738	-7.4342	0.5770	0.3703	0.4264	-0.5901
2.19	-8.9603	-0.7774	3.2432	-0.0042	-0.0100	-0.0469	23.5147	27.8954	-7.4555	0.5770	0.3703	0.4264	-0.5900
2.2	-9.0043	-0.7643	3.2197	-0.0117	-0.0021	-0.0516	23.5037	28.1281	-7.3265	0.5769	0.3704	0.4264	-0.5900
2.21	-8.9754	-0.7610	3.2257	0.0006	-0.0189	-0.0519	23.3537	28.0074	-7.3921	0.5769	0.3704	0.4264	-0.5901
2.22	-8.9800	-0.7570	3.2188	-0.0060	-0.0182	-0.0532	23.2391	27.8241	-7.2566	0.5769	0.3704	0.4263	-0.5901
2.23	-8.9732	-0.7473	3.2216	0.0070	-0.0181	-0.0507	23.3498	27.9501	-7.2678	0.5769	0.3705	0.4262	-0.5902
2.24	-8.9524	-0.7452	3.2233	0.0041	-0.0224	-0.0522	23.4766	28.1137	-7.4190	0.5769	0.3705	0.4261	-0.5902
2.25	-8.9595	-0.7432	3.2269	0.0055	-0.0227	-0.0531	23.3192	28.0306	-7.2530	0.5769	0.3706	0.4261	-0.5903
2.26	-8.9504	-0.7380	3.2249	0.0117	-0.0177	-0.0561	23.4409	28.1223	-7.2911	0.5768	0.3706	0.4259	-0.5903
2.27	-8.9455	-0.7318	3.2275	0.0105	-0.0155	-0.0501	23.5180	28.1972	-7.4673	0.5767	0.3707	0.4258	-0.5904
2.28	-8.9521	-0.7324	3.2305	0.0110	-0.0234	-0.0487	23.3702	28.0886	-7.3129	0.5767	0.3707	0.4257	-0.5905
2.29	-8.9660	-0.7231	3.2313	0.0104	-0.0200	-0.0473	23.5328	28.0728	-7.4513	0.5767	0.3708	0.4256	-0.5905
2.3	-8.9872	-0.7138	3.2380	0.0105	-0.0170	-0.0454	23.4979	27.7900	-7.4643	0.5767	0.3709	0.4255	-0.5907
2.31	-9.0044	-0.7001	3.2393	0.0109	-0.0173	-0.0450	23.3983	27.9087	-7.6949	0.5767	0.3710	0.4254	-0.5907
2.32	-9.0090	-0.6869	3.2368	0.0102	-0.0228	-0.0445	23.4449	27.9455	-7.5596	0.5767	0.3711	0.4253	-0.5907
2.33	-9.0032	-0.6759	3.2454	0.0040	-0.0257	-0.0511	23.3932	27.9337	-7.4379	0.5766	0.3710	0.4251	-0.5907
2.34	-9.0096	-0.6670	3.2444	0.0062	-0.0202	-0.0481	23.5848	27.9350	-7.4631	0.5766	0.3711	0.4251	-0.5908
2.35	-8.9951	-0.6592	3.2454	0.0093	-0.0261	-0.0471	23.5438	27.7847	-7.5949	0.5766	0.3712	0.4250	-0.5909
2.36	-8.9688	-0.6551	3.2481	-0.0004	-0.0304	-0.0493	23.2221	28.0135	-7.7365	0.5766	0.3712	0.4248	-0.5909
2.37	-8.9545	-0.6456	3.2615	-0.0048	-0.0303	-0.0511	23.2534	28.1212	-7.6311	0.5767	0.3712	0.4248	-0.5910
2.38	-8.9373	-0.6318	3.2701	-0.0069	-0.0340	-0.0508	23.3785	27.9867	-7.6369	0.5767	0.3711	0.4247	-0.5911
2.39	-8.9312	-0.6150	3.2766	-0.0120	-0.0205	-0.0497	23.2482	28.0593	-7.3954	0.5767	0.3711	0.4246	-0.5911
2.4	-8.9270	-0.6067	3.2824	-0.0174	-0.0207	-0.0543	23.3165	27.9133	-7.3244	0.5767	0.3711	0.4246	-0.5911
2.41	-8.9017	-0.6110	3.2869	-0.0232	-0.0217	-0.0517	23.4638	28.0662	-7.5066	0.5768	0.3711	0.4246	-0.5911
2.42	-8.8962	-0.6199	3.2981	-0.0326	-0.0210	-0.0503	23.3765	27.9640	-7.5470	0.5768	0.3710	0.4246	-0.5911
2.43	-8.9240	-0.6329	3.2982	-0.0415	-0.0223	-0.0562	23.2628	27.9267	-7.5474	0.5769	0.3709	0.4247	-0.5911
2.44	-8.9260	-0.6482	3.3047	-0.0442	-0.0175	-0.0557	23.1312	27.9339	-7.5348	0.5769	0.3708	0.4247	-0.5910
2.45	-8.9367	-0.6718	3.2927	-0.0500	-0.0166	-0.0527	23.3126	27.9476	-7.4342	0.5770	0.3707	0.4248	-0.5910
2.46	-8.9354	-0.7001	3.2998	-0.0632	-0.0160	-0.0561	23.5420	28.1073	-7.4387	0.5771	0.3705	0.4250	-0.5909
2.47	-8.9493	-0.7260	3.2971	-0.0543	-0.0170	-0.0570	23.7980	28.1243	-7.1535	0.5771	0.3704	0.4250	-0.5908
2.48	-8.9397	-0.7478	3.2975	-0.0531	-0.0248	-0.0496	23.7725	28.1081	-7.1825	0.5772	0.3703	0.4252	-0.5908
2.49	-8.9366	-0.7722	3.2972	-0.0543	-0.0199	-0.0545	23.7093	27.9792	-7.5013	0.5773	0.3701	0.4252	-0.5907
2.5	-8.9470	-0.7905	3.2887	-0.0517	-0.0224	-0.0501	23.3954	27.9146	-7.7343	0.5774	0.3700	0.4253	-0.5907
2.51	-8.9355	-0.8056	3.3007	-0.0496	-0.0260	-0.0466	23.2605	27.9167	-7.5771	0.5774	0.3699	0.4253	-0.5905
2.52	-8.9456	-0.8228	3.2902	-0.0412	-0.0150	-0.0580	23.4121	28.0063	-7.5322	0.5775	0.3698	0.4254	-0.5905
2.53	-8.9358	-0.8283	3.2896	-0.0408	-0.0173	-0.0569	23.3141	27.7872	-7.4354	0.5776	0.3697	0.4255	-0.5905
2.54	-8.9586	-0.8238	3.2925	-0.0324	-0.0087	-0.0499	23.1758	27.9005	-7.4795	0.5775	0.3696	0.4255	-0.5904
2.55	-8.9705	-0.8078	3.2873	-0.0218	-0.0119	-0.0486	23.1981	27.8857	-7.7407	0.5776	0.3697	0.4256	-0.5905
2.56	-8.9726	-0.7972	3.2987	-0.0164	-0.0180	-0.0432	23.4463	27.9276	-7.5314	0.5776	0.3697	0.4255	-0.5904
2.57	-8.9830	-0.7896	3.2938	-0.0169	-0.0180	-0.0525	23.2367	27.8074	-7.4892	0.5777	0.3697	0.4255	-0.5905
2.58	-8.9627	-0.7761	3.2962	-0.0210	-0.0180	-0.0554	23.4741	27.8988	-7.6166	0.5776	0.3696	0.4255	-0.5904
2.59	-8.9464	-0.7657	3.3064	-0.0125	-0.0208	-0.0458	23.4335	27.9937	-7.7056	0.5777	0.3696	0.4255	-0.5905
2.6	-8.9410	-0.7503	3.3106	-0.0160	-0.0221	-0.0517	23.3370	27.8461	-7.5454	0.5777	0.3696	0.4254	-0.5905
2.61	-8.9456	-0.7403	3.3181	-0.0126	-0.0239	-0.0539	23.3847	27.9846	-7.7243	0.5777	0.3696	0.4254	-0.5905
2.62	-8.9284	-0.7321	3.3145	-0.0158	-0.0204	-0.0541	23.3490	28.0794	-7.5859	0.5777	0.3696	0.4254	-0.5905
2.63	-8.9188	-0.7387	3.3142	-0.0162	-0.0247	-0.0526	23.3949	28.2047	-7.4993	0.5777	0.3695	0.4253	-0.5905
2.64	-8.9331	-0.7619	3.3102	-0.0168	-0.0220	-0.0487	23.2988	28.0900	-7.5402	0.5778	0.3695	0.4253	-0.5906
2.65	-8.9281	-0.7744	3.3044	-0.0157	-0.0264	-0.0477	23.2586	27.9965	-7.4183	0.5778	0.3694	0.4252	-0.5905
2.66	-8.9382	-0.7781	3.3088	-0.0142	-0.0201	-0.0505	23.3970	27.9522	-7.5276	0.5778	0.3695	0.4252	-0.5906
2.67	-8.9479	-0.7755	3.2944	-0.0148	-0.0179	-0.0498	23.6672	27.9047	-7.6831	0.5778	0.3695	0.4252	-0.5906
2.68	-8.9391	-0.7720	3.3083	-0.0134	-0.0209	-0.0460	23.4818	27.8283	-7.6882	0.5779	0.3695	0.4252	-0.5906
2.69	-8.9569	-0.7630	3.3067	-0.0126	-0.0217	-0.0462	23.4301	27.7159	-7.7163	0.5779	0.3695	0.4251	-0.5906
2.7	-8.9625	-0.7479	3.3193	-0.0122	-0.0204	-0.0443	23.4763	27.9438	-7.6449	0.5779	0.3695	0.4251	-0.5906
2.71	-8.9437	-0.7387	3.3173	-0.0129	-0.0277	-0.0465	23.4108	27.8787	-7.8509	0.5780	0.3695	0.4250	-0.5906
2.72	-8.9197	-0.7245	3.3267	-0.0093	-0.0280	-0.0445	23.2472	27.9026	-7.8092	0.5780	0.3694	0.4249	-0.5906
2.73	-8.9179	-0.7111	3.3302	-0.0131	-0.0233	-0.0497	23.4082	27.7968	-7.7899	0.5781	0.3694	0.4249	-0.5907
2.74	-8.9022	-0.7016	3.3263	-0.0170	-0.0291	-0.0472	23.4515	28.1007	-7.7442	0.5781	0.3694	0.4248	-0.5907
2.75	-8.8913	-0.6892	3.3395	-0.0113	-0.0285	-0.0422	23.2515	27.9997	-7.4622	0.5782	0.3694	0.4248	-0.5907
2.76	-8.8991	-0.6747	3.3305	-0.0111	-0.0224	-0.0458	23.3903	27.9700	-7.6411	0.5781	0.3694	0.4247	-0.5907
2.77	-8.8905	-0.6595	3.3276	-0.0148	-0.0177	-0.0525	23.1019	28.0045	-7.7010	0.5782	0.3694	0.4247	-0.5907
2.78	-8.8575	-0.6577	3.3300	-0.0127	-0.0143	-0.0562	23.3262	28.1153	-7.7217	0.5782	0.3694	0.4247	-0.5907
2.79	-8.8720	-0.6624	3.3376	-0.0260	-0.0097	-0.0504	23.3883	27.9708	-7.6167	0.5781	0.3693	0.4247	-0.5907
2.8	-8.9417	-0.6708	3.3262	-0.0394	0.0041	-0.0541	23.2614	27.9981	-7.5008	0.5782	0.3694	0.4248	-0.5907
2.81	-8.9165	-0.6738	3.3360	-0.0302	-0.0124	-0.0545	23.2747	28.2426	-7.5279	0.5782	0.3693	0.4248	-0.5906
2.82	-8.9058	-0.6671	3.3402	-0.0385	-0.0042	-0.0572	23.3257	28.0070	-7.7729	0.5782	0.3693	0.4250	-0.5906
2.83	-8.9322	-0.6514	3.3252	-0.0361	0.0045	-0.0557	23.4799	27.9581	-7.8051	0.5781	0.3692	0.4250	-0.5905
2.84	-8.9572	-0.6487	3.3259	-0.0401	-0.0010	-0.0570	23.3264	28.1266	-7.6730	0.5782	0.3692	0.4252	-0.5905
2.85	-8.9562	-0.6661	3.3316	-0.0411	-0.0104	-0.0654	23.4090	28.1524	-7.7208	0.5782	0.3691	0.4253	-0.5904
2.86	-8.9485	-0.7050	3.3243	-0.0409	-0.0086	-0.0674	23.2629	27.9083	-7.6848	0.5782	0.3690	0.4254	-0.5904
2.87	-8.9371	-0.7463	3.3231	-0.0461	-0.0055	-0.0625	23.2888	27.6941	-7.7075	0.5782	0.3689	0.4255	-0.5904
2.88	-8.9768	-0.7677	3.3284	-0.0413	0.0025	-0.0677	23.5156	27.8678	-7.6765	0.5781	0.3689	0.4256	-0.5903
2.89	-8.9950	-0.7764	3.3268	-0.0397	-0.0091	-0.0670	23.5870	27.7067	-7.7268	0.5781	0.3688	0.4258	-0.5903
2.9	-8.9395	-0.7857	3.3297	-0.0399	-0.0244	-0.0651	23.3542	27.8816	-7.5758	0.5781	0.3686	0.4258	-0.5903
2.91	-8.9040	-0.8063	3.3114	-0.0372	-0.0193	-0.0693	23.1658	27.9236	-7.6527	0.5782	0.3686	0.4259	-0.5904
2.92	-8.8655	-0.8345	3.3112	-0.0343	-0.0175	-0.0588	23.4962	28.0076	-7.6668	0.5782	0.3685	0.4259	-0.5903
2.93	-8.8836	-0.8487	3.3093	-0.0246	-0.0074	-0.0559	23.3674	27.9555	-7.5827	0.5782	0.3685	0.4260	-0.5903
2.94	-8.8815	-0.8252	3.3073	-0.0160	-0.0077	-0.0524	23.3670	28.1851	-7.6226	0.5781	0.3685	0.4260	-0.5903
2.95	-8.8954	-0.7977	3.3140	-0.0199	0.0017	-0.0518	23.2426	28.1458	-7.4865	0.5781	0.3685	0.4261	-0.5903
2.96	-8.9484	-0.7876	3.2989	-0.0132	0.0104	-0.0513	23.5565	27.9899	-7.5333	0.5781	0.3686	0.4261	-0.5903
2.97	-8.9423	-0.7830	3.2924	-0.0146	0.0107	-0.0544	23.7625	27.9924	-7.4983	0.5780	0.3686	0.4261	-0.5902
2.98	-8.9443	-0.7902	3.2907	-0.0192	0.0087	-0.0565	23.6895	27.9751	-7.5283	0.5780	0.3687	0.4263	-0.5902
2.99	-8.9459	-0.7891	3.2773	-0.0159	0.0081	-0.0601	23.3586	28.0946	-7.4288	0.5779	0.3688	0.4263	-0.5902
3	-8.9357	-0.7859	3.2798	-0.0168	0.0021	-0.0582	23.2744	28.2629	-7.6328	0.5779	0.3688	0.4264	-0.5902
3.01	-8.9485	-0.7828	3.2800	-0.0117	0.0041	-0.0630	23.1415	28.4128	-7.6873	0.5777	0.3688	0.4264	-0.5901
3.02	-8.9444	-0.7718	3.2892	-0.0186	0.0053	-0.0585	23.4577	28.1666	-7.5228	0.5777	0.3689	0.4265	-0.5902
3.03	-8.9215	-0.7729	3.3002	-0.0137	-0.0062	-0.0563	23.3505	28.0988	-7.6167	0.5777	0.3689	0.4265	-0.5902
3.04	-8.9287	-0.7745	3.2988	-0.0124	-0.0057	-0.0526	23.4167	27.9318	-7.7572	0.5776	0.3689	0.4265	-0.5901
3.05	-8.9345	-0.7772	3.2928	-0.0125	-0.0042	-0.0410	23.5317	27.9067	-7.6298	0.5777	0.3690	0.4266	-0.5902
3.06	-8.9147	-0.7813	3.2994	-0.0163	-0.0043	-0.0438	23.4078	28.0443	-7.6824	0.5776	0.3690	0.4265	-0.5901
3.07	-8.9420	-0.7846	3.2935	-0.0186	0.0041	-0.0490	23.4304	27.9708	-7.8080	0.5777	0.3691	0.4266	-0.5901
3.08	-8.9473	-0.7773	3.2877	-0.0199	-0.0001	-0.0414	23.5310	28.0353	-7.5203	0.5776	0.3691	0.4266	-0.5899
3.09	-8.9868	-0.7832	3.2937	-0.0167	0.0071	-0.0428	23.3893	27.9551	-7.6058	0.5776	0.3692	0.4267	-0.5899
3.1	-8.9912	-0.8005	3.2728	-0.0176	-0.0012	-0.0443	23.3443	28.1014	-7.8186	0.5776	0.3693	0.4267	-0.5899
3.11	-8.9095	-0.7980	3.2925	-0.0229	-0.0058	-0.0397	23.2675	27.9432	-7.6286	0.5776	0.3693	0.4267	-0.5898
3.12	-8.9965	-0.7992	3.3051	-0.0114	0.0020	-0.0407	23.3335	27.8036	-7.6768	0.5777	0.3694	0.4267	-0.5898
3.13	-9.0523	-0.7918	3.2855	-0.0140	-0.0082	-0.0494	23.3679	27.9592	-7.4631	0.5776	0.3694	0.4267	-0.5897
3.14	-8.9290	-0.7811	3.3115	-0.0197	-0.0222	-0.0554	23.5010	28.0932	-7.5723	0.5777	0.3694	0.4267	-0.5898
3.15	-8.9355	-0.8133	3.2774	-0.0166	-0.0074	-0.0529	23.1568	27.9985	-7.8064	0.5776	0.3694	0.4267	-0.5897
3.16	-8.9322	-0.8262	3.2827	-0.0140	-0.0112	-0.0516	23.0498	28.0099	-7.4681	0.5776	0.3694	0.4267	-0.5898
3.17	-8.9327	-0.8020	3.2915	-0.0149	-0.0160	-0.0506	23.1136	28.1235	-7.5281	0.5776	0.3694	0.4267	-0.5898
3.18	-8.9338	-0.7842	3.2994	-0.0129	-0.0092	-0.0488	23.2626	28.0582	-7.5766	0.5776	0.3694	0.4267	-0.5898
3.19	-8.9347	-0.7507	3.3034	-0.0137	-0.0079	-0.0465	23.2472	28.2046	-7.5649	0.5776	0.3695	0.4267	-0.5897
3.2	-8.9548	-0.7462	3.3180	-0.0133	0.0010	-0.0485	23.2789	28.1476	-7.5539	0.5776	0.3695	0.4267	-0.5897
3.21	-8.9879	-0.7645	3.3011	-0.0138	-0.0067	-0.0600	23.3899	28.0525	-7.4031	0.5776	0.3695	0.4267	-0.5897
3.22	-8.9614	-0.7662	3.3037	-0.0140	-0.0220	-0.0554	23.2373	28.1838	-7.6713	0.5775	0.3695	0.4267	-0.5897
3.23	-8.9496	-0.7812	3.2995	-0.0136	-0.0161	-0.0469	23.2707	28.2723	-7.7578	0.5776	0.3695	0.4267	-0.5898
3.24	-8.9315	-0.7802	3.3004	-0.0138	-0.0207	-0.0563	23.5407	27.9658	-7.6043	0.5776	0.3695	0.4267	-0.5898
3.25	-8.9171	-0.7778	3.3047	-0.0132	-0.0214	-0.0597	23.4488	27.8738	-7.7364	0.5776	0.3695	0.4267	-0.5899
3.26	-8.9072	-0.7770	3.3031	-0.0125	-0.0118	-0.0629	23.4262	28.0396	-7.7561	0.5775	0.3694	0.4266	-0.5898
3.27	-8.9160	-0.7837	3.3147	-0.0135	-0.0151	-0.0582	23.3170	27.9468	-7.7298	0.5775	0.3695	0.4266	-0.5899
3.28	-8.9075	-0.7849	3.3200	-0.0147	-0.0155	-0.0591	23.3762	27.9477	-7.7725	0.5775	0.3694	0.4266	-0.5899
3.29	-8.9143	-0.7854	3.3246	-0.0137	-0.0034	-0.0628	23.2428	28.0440	-7.6536	0.5774	0.3694	0.4267	-0.5899
3.3	-8.9304	-0.7863	3.3228	-0.0175	-0.0081	-0.0551	23.2735	27.7735	-7.5578	0.5774	0.3695	0.4267	-0.5900
3.31	-8.9168	-0.7870	3.3232	-0.0285	-0.0132	-0.0507	23.2199	28.0121	-7.6779	0.5774	0.3694	0.4267	-0.5899
3.32	-8.9014	-0.7909	3.3321	-0.0160	-0.0020	-0.0552	23.5978	27.9604	-7.6469	0.5774	0.3695	0.4268	-0.5900
3.33	-8.9149	-0.7981	3.3218	-0.0191	-0.0023	-0.0485	23.6070	28.2113	-7.6535	0.5773	0.3695	0.4268	-0.5899
3.34	-8.9064	-0.8070	3.3316	-0.0197	-0.0006	-0.0491	23.4319	28.1338	-7.5593	0.5774	0.3695	0.4268	-0.5899
3.35	-8.9100	-0.8040	3.3244	-0.0183	-0.0044	-0.0480	23.5181	28.1130	-7.5242	0.5773	0.3695	0.4269	-0.5898
3.36	-8.9000	-0.8038	3.3286	-0.0142	-0.0005	-0.0464	23.3427	27.9360	-7.4200	0.5773	0.3696	0.4269	-0.5898
3.37	-8.8999	-0.8047	3.3206	-0.0153	0.0032	-0.0437	23.2242	27.8985	-7.6959	0.5773	0.3697	0.4269	-0.5898
3.38	-8.9086	-0.7964	3.3163	-0.0153	0.0013	-0.0445	23.0637	28.1755	-7.7646	0.5773	0.3697	0.4269	-0.5897
3.39	-8.9102	-0.7956	3.3153	-0.0181	0.0079	-0.0471	23.4344	28.1843	-7.4974	0.5773	0.3698	0.4270	-0.5897
3.4	-8.9019	-0.7996	3.3084	-0.0164	0.0085	-0.0397	23.1189	28.0982	-7.4459	0.5772	0.3699	0.4270	-0.5895
3.41	-8.9316	-0.7994	3.3173	-0.0108	0.0045	-0.0382	23.2114	28.0715	-7.7180	0.5773	0.3700	0.4270	-0.5895
3.42	-8.9547	-0.7859	3.3104	-0.0097	-0.0003	-0.0399	23.5699	28.1181	-7.5889	0.5772	0.3701	0.4270	-0.5895
3.43	-8.9377	-0.7802	3.3186	-0.0144	0.0004	-0.0384	23.4275	28.0162	-7.5399	0.5773	0.3701	0.4270	-0.5894
3.44	-8.9604	-0.7733	3.3024	-0.0082	0.0046	-0.0389	23.4454	27.9077	-7.6627	0.5772	0.3702	0.4270	-0.5893
3.45	-8.9415	-0.7626	3.3002	-0.0133	0.0038	-0.0383	23.2790	28.0188	-7.7825	0.5772	0.3703	0.4270	-0.5893
3.46	-8.9502	-0.7600	3.2936	-0.0144	0.0043	-0.0368	23.4973	27.8222	-7.6794	0.5773	0.3704	0.4271	-0.5892
3.47	-8.9413	-0.7656	3.2897	-0.0113	0.0020	-0.0370	23.8357	28.1992	-7.5666	0.5772	0.3705	0.4270	-0.5891
3.48	-8.9412	-0.7638	3.2877	-0.0110	0.0030	-0.0356	23.7633	28.2686	-7.5470	0.5773	0.3706	0.4271	-0.5891
3.49	-8.9478	-0.7539	3.2788	-0.0146	0.0011	-0.0364	23.6604	28.2501	-7.4876	0.5772	0.3707	0.4271	-0.5890
3.5	-8.9471	-0.7546	3.2847	-0.0117	-0.0021	-0.0417	23.3796	28.0217	-7.4077	0.5773	0.3708	0.4271	-0.5891
3.51	-8.9683	-0.7554	3.2834	-0.0134	-0.0027	-0.0432	23.2627	28.0221	-7.5691	0.5772	0.3708	0.4270	-0.5889
3.52	-8.9634	-0.7552	3.2792	-0.0165	-0.0006	-0.0448	23.2630	27.9578	-7.6072	0.5773	0.3709	0.4271	-0.5889
3.53	-8.9462	-0.7466	3.2760	-0.0139	-0.0018	-0.0449	23.3089	27.9268	-7.7068	0.5772	0.3709	0.4271	-0.5889
3.54	-8.9572	-0.7453	3.2830	-0.0112	-0.0015	-0.0483	23.3871	28.0832	-7.6311	0.5772	0.3710	0.4271	-0.5888
3.55	-8.9670	-0.7377	3.2799	-0.0132	0.0024	-0.0465	23.3275	28.2962	-7.6510	0.5772	0.3711	0.4272	-0.5889
3.56	-8.9526	-0.7381	3.2859	-0.0149	-0.0065	-0.0419	23.2617	28.2029	-7.7088	0.5772	0.3711	0.4271	-0.5888
3.57	-8.9416	-0.7505	3.2883	-0.0140	-0.0018	-0.0438	23.2579	27.9574	-7.5924	0.5772	0.3712	0.4272	-0.5888
3.58	-8.9392	-0.7359	3.2792	-0.0146	-0.0026	-0.0405	23.2914	28.0923	-7.6394	0.5772	0.3712	0.4271	-0.5887
3.59	-8.9326	-0.7276	3.2824	-0.0175	-0.0111	-0.0453	23.1022	28.2997	-7.6373	0.5772	0.3712	0.4271	-0.5887
3.6	-8.9380	-0.7460	3.2721	-0.0159	-0.0048	-0.0434	23.1783	28.0407	-7.4160	0.5772	0.3713	0.4271	-0.5887
3.61	-8.9443	-0.7503	3.2743	-0.0160	0.0005	-0.0485	23.6166	27.9234	-7.6046	0.5772	0.3713	0.4272	-0.5886
3.62	-8.9571	-0.7548	3.2740	-0.0127	0.0004	-0.0493	23.2721	27.7890	-7.6224	0.5772	0.3714	0.4272	-0.5886
3.63	-8.9474	-0.7622	3.2790	-0.0123	-0.0019	-0.0481	23.3218	27.8683	-7.6439	0.5771	0.3714	0.4272	-0.5886
3.64	-8.9554	-0.7512	3.2758	-0.0116	0.0003	-0.0486	23.5423	27.9116	-7.5347	0.5771	0.3715	0.4272	-0.5886
3.65	-8.9622	-0.7458	3.2736	-0.0124	0.0009	-0.0472	23.5443	27.9840	-7.6152	0.5770	0.3715	0.4272	-0.5885
3.66	-8.9572	-0.7433	3.2817	-0.0124	-0.0029	-0.0478	23.3989	28.1105	-7.7330	0.5771	0.3716	0.4273	-0.5885
3.67	-8.9550	-0.7443	3.2778	-0.0133	-0.0107	-0.0542	23.2056	27.9065	-7.5642	0.5771	0.3716	0.4272	-0.5885
3.68	-8.9473	-0.7498	3.2753	-0.0145	-0.0041	-0.0470	23.3542	27.9123	-7.4309	0.5771	0.3717	0.4273	-0.5885
3.69	-8.9480	-0.7507	3.2755	-0.0157	-0.0110	-0.0477	23.4480	27.9829	-7.5390	0.5770	0.3717	0.4272	-0.5885
3.7	-8.9479	-0.7429	3.2805	-0.0145	-0.0032	-0.0508	23.4439	28.0366	-7.7798	0.5770	0.3717	0.4273	-0.5885
3.71	-8.9476	-0.7381	3.2821	-0.0166	-0.0064	-0.0562	23.2468	28.0902	-7.6489	0.5770	0.3717	0.4273	-0.5885
3.72	-8.9468	-0.7538	3.2720	-0.0140	0.0010	-0.0526	23.3556	28.0940	-7.5386	0.5769	0.3717	0.4273	-0.5884
3.73	-8.9226	-0.7700	3.2673	-0.0150	-0.0043	-0.0518	23.4530	28.0536	-7.5221	0.5770	0.3718	0.4274	-0.5885
3.74	-8.9265	-0.7914	3.2613	-0.0146	-0.0054	-0.0507	23.0097	28.0248	-7.5557	0.5769	0.3718	0.4274	-0.5884
3.75	-8.9271	-0.7955	3.2706	-0.0150	0.0052	-0.0469	23.2639	28.3327	-7.4772	0.5769	0.3719	0.4274	-0.5884
3.76	-8.9398	-0.7836	3.2722	-0.0129	-0.0019	-0.0506	23.2682	28.0403	-7.3324	0.5768	0.3719	0.4274	-0.5883
3.77	-8.9452	-0.7789	3.2703	-0.0138	-0.0039	-0.0509	23.1599	28.0015	-7.3605	0.5769	0.3720	0.4275	-0.5884
3.78	-8.9377	-0.7799	3.2680	-0.0158	-0.0047	-0.0426	23.5323	27.9785	-7.7224	0.5769	0.3720	0.4275	-0.5883
3.79	-8.9344	-0.7647	3.2665	-0.0036	0.0029	-0.0429	23.2122	28.0311	-7.6268	0.5768	0.3721	0.4274	-0.5883
3.8	-8.9534	-0.7480	3.2772	-0.0055	0.0051	-0.0491	23.4351	27.8449	-7.6326	0.5768	0.3722	0.4275	-0.5883
3.81	-8.9832	-0.7317	3.2625	-0.0123	0.0032	-0.0477	23.4914	27.8804	-7.8651	0.5767	0.3723	0.4275	-0.5882
3.82	-8.9584	-0.7224	3.2784	-0.0074	0.0032	-0.0506	23.5083	27.8469	-7.5100	0.5767	0.3724	0.4276	-0.5883
3.83	-8.9807	-0.7382	3.2703	-0.0156	0.0024	-0.0534	23.4505	27.8174	-7.5435	0.5766	0.3724	0.4275	-0.5882
3.84	-8.9747	-0.7647	3.2709	-0.0090	0.0040	-0.0458	23.2404	28.1159	-7.6221	0.5766	0.3725	0.4276	-0.5882
3.85	-8.9686	-0.7576	3.2815	-0.0119	0.0009	-0.0498	23.3962	27.7967	-7.4916	0.5766	0.3725	0.4276	-0.5881
3.86	-8.9950	-0.7262	3.2899	-0.0119	-0.0046	-0.0464	23.3474	28.1183	-7.5688	0.5765	0.3726	0.4276	-0.5881
3.87	-8.9864	-0.7146	3.2920	-0.0104	-0.0135	-0.0434	23.2497	27.8876	-7.3988	0.5766	0.3726	0.4276	-0.5881
3.88	-8.9409	-0.7173	3.2925	-0.0148	-0.0230	-0.0426	23.4343	27.9014	-7.6250	0.5766	0.3726	0.4276	-0.5881
3.89	-8.9109	-0.7356	3.2927	-0.0135	-0.0102	-0.0465	23.3816	27.9578	-7.5582	0.5766	0.3726	0.4276	-0.5881
3.9	-8.9200	-0.7468	3.2854	-0.0124	0.0019	-0.0436	23.3586	28.0977	-7.5123	0.5765	0.3727	0.4275	-0.5880
3.91	-8.9013	-0.7406	3.2966	-0.0139	-0.0062	-0.0417	23.2180	27.9771	-7.7684	0.5766	0.3728	0.4276	-0.5880
3.92	-8.9192	-0.7298	3.2935	-0.0142	-0.0020	-0.0429	23.2071	28.1465	-7.6792	0.5766	0.3728	0.4276	-0.5880
3.93	-8.9374	-0.7234	3.2802	-0.0136	0.0059	-0.0432	23.2931	27.9645	-7.5168	0.5766	0.3729	0.4276	-0.5880
3.94	-8.9387	-0.7245	3.2734	-0.0137	0.0020	-0.0385	23.2549	28.1223	-7.6467	0.5766	0.3730	0.4276	-0.5879
3.95	-8.9524	-0.7266	3.2661	-0.0141	0.0052	-0.0510	23.2625	28.0177	-7.6001	0.5765	0.3730	0.4277	-0.5878
3.96	-8.9600	-0.7270	3.2592	-0.0151	0.0017	-0.0509	23.3224	28.0736	-7.4757	0.5765	0.3731	0.4277	-0.5878
3.97	-8.9333	-0.7268	3.2673	-0.0111	-0.0046	-0.0529	23.7447	28.3205	-7.3356	0.5764	0.3731	0.4277	-0.5878
3.98	-8.9565	-0.7238	3.2626	-0.0114	-0.0017	-0.0559	23.8987	28.1186	-7.3738	0.5764	0.3732	0.4278	-0.5879
3.99	-8.9629	-0.7185	3.2633	-0.0154	-0.0016	-0.0578	23.6445	27.9086	-7.4891	0.5764	0.3732	0.4278	-0.5878
4	-8.9639	-0.7211	3.2672	-0.0116	-0.0085	-0.0574	23.3804	27.9455	-7.4609	0.5764	0.3732	0.4279	-0.5879
4.01	-8.9587	-0.7321	3.2618	-0.0150	-0.0048	-0.0579	23.4437	27.7859	-7.4448	0.5763	0.3732	0.4278	-0.5878
4.02	-8.9538	-0.7395	3.2721	-0.0177	-0.0083	-0.0557	23.6574	27.7384	-7.4956	0.5763	0.3732	0.4279	-0.5879
4.03	-8.9645	-0.7429	3.2687	-0.0135	-0.0023	-0.0510	23.3885	27.8271	-7.5219	0.5762	0.3732	0.4279	-0.5878
4.04	-8.9582	-0.7382	3.2725	-0.0172	-0.0008	-0.0521	23.2278	27.8565	-7.4082	0.5762	0.3732	0.4279	-0.5878
4.05	-8.9728	-0.7351	3.2755	-0.0169	-0.0055	-0.0504	23.3779	27.8511	-7.5999	0.5762	0.3733	0.4280	-0.5878
4.06	-8.9863	-0.7468	3.2849	-0.0165	-0.0019	-0.0452	23.5790	27.9835	-7.7852	0.5762	0.3733	0.4280	-0.5878
4.07	-8.9851	-0.7601	3.2695	-0.0185	-0.0062	-0.0415	23.4425	28.1054	-7.4005	0.5762	0.3734	0.4280	-0.5877
4.08	-8.9212	-0.7598	3.2658	-0.0193	-0.0110	-0.0502	23.4129	28.1198	-7.3416	0.5762	0.3733	0.4280	-0.5877
4.09	-8.9460	-0.7486	3.2882	-0.0190	0.0028	-0.0462	23.5822	28.1162	-7.5168	0.5762	0.3734	0.4281	-0.5877
4.1	-9.0527	-0.7496	3.2787	-0.0165	-0.0033	-0.0548	23.5786	28.0953	-7.5660	0.5762	0.3734	0.4281	-0.5876
4.11	-8.9397	-0.7400	3.2947	-0.0232	-0.0268	-0.0548	23.1453	27.9016	-7.5415	0.5762	0.3734	0.4281	-0.5876
4.12	-8.9002	-0.7705	3.2835	-0.0249	-0.0116	-0.0520	23.1641	28.0626	-7.5733	0.5762	0.3734	0.4281	-0.5877
4.13	-8.9606	-0.8015	3.2617	-0.0145	-0.0104	-0.0509	23.5720	28.1049	-7.3814	0.5762	0.3734	0.4281	-0.5876
4.14	-8.9222	-0.7799	3.2800	-0.0128	-0.0213	-0.0494	23.1813	27.9737	-7.4159	0.5762	0.3734	0.4281	-0.5877
4.15	-8.9330	-0.7671	3.2742	-0.0149	-0.0201	-0.0465	23.2398	28.1519	-7.5624	0.5762	0.3733	0.4280	-0.5876
4.16	-8.8976	-0.7324	3.2866	-0.0146	-0.0241	-0.0477	23.3595	27.8574	-7.6738	0.5763	0.3733	0.4280	-0.5877
4.17	-8.9107	-0.7180	3.2915	-0.0166	-0.0123	-0.0498	23.3695	28.0472	-7.7577	0.5762	0.3733	0.4280	-0.5877
4.18	-8.9604	-0.7312	3.2889	-0.0130	-0.0036	-0.0437	23.4795	27.8740	-7.7307	0.5763	0.3734	0.4280	-0.5877
4.19	-8.9526	-0.7287	3.2960	-0.0207	-0.0185	-0.0518	23.3050	27.8404	-7.6498	0.5762	0.3733	0.4280	-0.5876
4.2	-8.9450	-0.7277	3.2912	-0.0239	-0.0150	-0.0513	23.2528	27.8346	-7.4870	0.5763	0.3733	0.4281	-0.5876
4.21	-8.9429	-0.7250	3.2875	-0.0284	-0.0061	-0.0491	23.4438	27.9380	-7.4544	0.5763	0.3733	0.4281	-0.5876
4.22	-8.9493	-0.7301	3.2705	-0.0230	-0.0083	-0.0492	23.3537	28.1680	-7.4665	0.5762	0.3733	0.4281	-0.5875
4.23	-8.9399	-0.7586	3.2751	-0.0220	-0.0107	-0.0486	23.3275	27.9599	-7.3593	0.5763	0.3733	0.4282	-0.5876
4.24	-8.9621	-0.7836	3.2674	-0.0308	-0.0026	-0.0532	23.5276	28.1332	-7.5219	0.5763	0.3733	0.4282	-0.5875
4.25	-8.9458	-0.7999	3.2672	-0.0211	-0.0176	-0.0479	23.4637	28.2140	-7.6069	0.5764	0.3733	0.4283	-0.5875
4.26	-8.9236	-0.8160	3.2723	-0.0133	-0.0178	-0.0497	23.3296	27.7743	-7.3179	0.5763	0.3732	0.4282	-0.5875
4.27	-8.9246	-0.8191	3.2618	-0.0147	-0.0057	-0.0474	23.4525	28.0454	-7.4295	0.5763	0.3733	0.4282	-0.5875
4.28	-8.9094	-0.8094	3.2720	-0.0138	-0.0184	-0.0467	23.2526	28.3047	-7.6114	0.5763	0.3733	0.4282	-0.5875
4.29	-8.9223	-0.7975	3.2626	-0.0155	-0.0098	-0.0446	23.2603	28.2453	-7.5259	0.5763	0.3733	0.4282	-0.5874
4.3	-8.9233	-0.7771	3.2662	-0.0135	-0.0039	-0.0460	23.2484	27.8459	-7.5828	0.5764	0.3734	0.4283	-0.5875
4.31	-8.9517	-0.7586	3.2723	-0.0152	-0.0020	-0.0401	23.2708	28.0722	-7.5013	0.5763	0.3734	0.4282	-0.5874
4.32	-8.9750	-0.7472	3.2761	-0.0106	-0.0099	-0.0411	23.4528	28.2682	-7.4772	0.5764	0.3735	0.4282	-0.5874
4.33	-8.9998	-0.7338	3.2658	-0.0143	-0.0039	-0.0415	23.3425	28.0860	-7.8006	0.5763	0.3735	0.4282	-0.5873
4.34	-8.9879	-0.7269	3.2706	-0.0104	-0.0062	-0.0398	23.2269	28.0048	-7.5532	0.5764	0.3736	0.4282	-0.5873
4.35	-8.9953	-0.7314	3.2714	-0.0140	-0.0097	-0.0391	23.2879	28.0639	-7.4484	0.5764	0.3736	0.4282	-0.5872
4.36	-9.0117	-0.7367	3.2652	-0.0122	-0.0111	-0.0425	23.4960	27.8739	-7.4380	0.5764	0.3737	0.4282	-0.5872
4.37	-8.9987	-0.7308	3.2692	-0.0170	-0.0265	-0.0409	23.6447	27.7466	-7.5847	0.5764	0.3737	0.4281	-0.5872
4.38	-8.9825	-0.7377	3.2681	-0.0160	-0.0205	-0.0395	23.6968	27.7599	-7.7520	0.5765	0.3736	0.4281	-0.5872
4.39	-8.9566	-0.7437	3.2781	-0.0161	-0.0217	-0.0426	23.5113	27.8059	-7.7598	0.5765	0.3737	0.4281	-0.5872
4.4	-8.9493	-0.7455	3.2787	-0.0160	-0.0243	-0.0375	23.5430	27.9536	-7.5344	0.5765	0.3736	0.4279	-0.5871
4.41	-8.9557	-0.7535	3.2765	-0.0157	-0.0254	-0.0347	23.2753	27.9331	-7.5852	0.5767	0.3736	0.4279	-0.5872
4.42	-8.9301	-0.7419	3.2965	-0.0102	-0.0286	-0.0393	23.4359	27.9360	-7.6198	0.5767	0.3736	0.4278	-0.5872
4.43	-8.9219	-0.7341	3.2955	-0.0089	-0.0233	-0.0397	23.3527	27.9519	-7.5206	0.5768	0.3737	0.4278	-0.5872
4.44	-8.9099	-0.7336	3.3043	-0.0139	-0.0250	-0.0358	23.3480	27.8334	-7.5622	0.5768	0.3736	0.4277	-0.5871
4.45	-8.9029	-0.7296	3.3128	-0.0142	-0.0182	-0.0394	23.4320	27.8700	-7.5525	0.5769	0.3737	0.4277	-0.5871
4.46	-8.9066	-0.7257	3.3091	-0.0134	-0.0181	-0.0415	23.3103	28.0049	-7.4966	0.5769	0.3737	0.4276	-0.5871
4.47	-8.8852	-0.7173	3.3147	-0.0146	-0.0169	-0.0434	23.7356	28.1170	-7.0543	0.5769	0.3737	0.4276	-0.5871
4.48	-8.8812	-0.7167	3.3176	-0.0138	-0.0137	-0.0388	23.7832	28.1308	-7.0107	0.5770	0.3737	0.4276	-0.5871
4.49	-8.8785	-0.7068	3.3155	-0.0138	-0.0077	-0.0429	23.6463	28.0492	-7.2771	0.5769	0.3737	0.4275	-0.5871
4.5	-8.9022	-0.7040	3.3185	-0.0109	0.0028	-0.0391	23.3956	27.9791	-7.6356	0.5770	0.3739	0.4276	-0.5871
4.51	-8.9140	-0.6921	3.3266	-0.0145	-0.0010	-0.0445	23.1521	28.0264	-7.4671	0.5769	0.3739	0.4276	-0.5869
4.52	-8.9076	-0.6899	3.3303	-0.0166	0.0003	-0.0473	23.2956	27.8297	-7.6070	0.5769	0.3739	0.4276	-0.5869
4.53	-8.9307	-0.6982	3.3178	-0.0130	-0.0007	-0.0416	23.4244	28.0227	-7.6370	0.5769	0.3740	0.4276	-0.5869
4.54	-8.9256	-0.7057	3.3133	-0.0224	-0.0023	-0.0395	23.4252	28.1114	-7.3732	0.5769	0.3740	0.4276	-0.5868
4.55	-8.9312	-0.7183	3.3068	-0.0228	0.0006	-0.0409	23.5642	27.8577	-7.5337	0.5770	0.3741	0.4277	-0.5868
4.56	-8.9511	-0.7256	3.2977	-0.0181	0.0049	-0.0462	23.5983	28.0626	-7.5232	0.5769	0.3741	0.4277	-0.5867
4.57	-8.9485	-0.7229	3.2977	-0.0178	0.0047	-0.0494	23.4927	27.8384	-7.4269	0.5769	0.3742	0.4278	-0.5867
4.58	-8.9512	-0.7226	3.2912	-0.0180	-0.0038	-0.0441	23.5406	27.7805	-7.4946	0.5768	0.3742	0.4278	-0.5866
4.59	-8.9510	-0.7280	3.2839	-0.0164	-0.0027	-0.0501	23.6244	27.9580	-7.6294	0.5769	0.3743	0.4279	-0.5866
4.6	-8.9639	-0.7391	3.2834	-0.0159	0.0039	-0.0472	23.4378	27.9800	-7.6000	0.5768	0.3743	0.4279	-0.5866
4.61	-8.9807	-0.7436	3.2839	-0.0106	0.0021	-0.0537	23.4557	28.0114	-7.5502	0.5768	0.3743	0.4279	-0.5865
4.62	-8.9850	-0.7403	3.2832	-0.0132	-0.0055	-0.0428	23.3127	27.8527	-7.3735	0.5768	0.3744	0.4280	-0.5865
4.63	-8.9598	-0.7330	3.2896	-0.0142	-0.0060	-0.0534	23.4067	27.9747	-7.4723	0.5768	0.3744	0.4280	-0.5865
4.64	-8.9491	-0.7281	3.2882	-0.0131	-0.0088	-0.0545	23.3945	27.9098	-7.5225	0.5767	0.3744	0.4280	-0.5866
4.65	-8.9380	-0.7191	3.2809	-0.0131	-0.0111	-0.0515	23.3165	27.9792	-7.5034	0.5767	0.3744	0.4279	-0.5865
4.66	-8.9311	-0.6997	3.2940	-0.0151	-0.0096	-0.0551	23.3725	28.0717	-7.6276	0.5767	0.3745	0.4280	-0.5866
4.67	-8.9443	-0.6954	3.2931	-0.0105	-0.0019	-0.0544	23.3251	27.9707	-7.5949	0.5766	0.3745	0.4280	-0.5865
4.68	-8.9458	-0.6946	3.2964	-0.0130	0.0004	-0.0564	23.3748	27.9225	-7.6138	0.5766	0.3745	0.4281	-0.5866
4.69	-8.9513	-0.7014	3.2945	-0.0101	0.0029	-0.0566	23.3101	27.8844	-7.5114	0.5765	0.3746	0.4281	-0.5865
4.7	-8.9356	-0.6951	3.2989	-0.0118	-0.0099	-0.0558	23.2926	28.0176	-7.3600	0.5765	0.3746	0.4281	-0.5866
4.71	-8.9480	-0.6776	3.2971	-0.0143	-0.0025	-0.0576	23.3250	27.9722	-7.3301	0.5765	0.3746	0.4282	-0.5866
4.72	-8.9590	-0.6546	3.2891	-0.0108	-0.0015	-0.0586	23.1936	27.9901	-7.2971	0.5764	0.3746	0.4282	-0.5865
4.73	-8.9659	-0.6684	3.2938	-0.0149	-0.0046	-0.0616	23.6279	27.9898	-7.5887	0.5764	0.3747	0.4282	-0.5866
4.74	-8.9570	-0.7056	3.2815	-0.0202	-0.0054	-0.0638	23.5708	27.8219	-7.6977	0.5763	0.3746	0.4283	-0.5866
4.75	-8.9186	-0.7379	3.2933	-0.0203	-0.0104	-0.0592	23.7322	27.8311	-7.4903	0.5763	0.3746	0.4284	-0.5867
4.76	-8.9721	-0.7603	3.3023	-0.0269	0.0061	-0.0481	23.5111	27.6931	-7.5054	0.5762	0.3746	0.4284	-0.5865
4.77	-9.0093	-0.7582	3.3059	-0.0201	-0.0071	-0.0475	23.1792	27.8872	-7.5240	0.5763	0.3746	0.4284	-0.5865
4.78	-8.9543	-0.7627	3.3068	-0.0264	-0.0181	-0.0473	23.3410	28.0142	-7.6572	0.5763	0.3746	0.4284	-0.5865
4.79	-8.9020	-0.7973	3.2854	-0.0270	-0.0231	-0.0480	23.3543	27.9808	-7.4928	0.5763	0.3745	0.4284	-0.5865
4.8	-8.8866	-0.8106	3.2857	-0.0193	-0.0091	-0.0463	23.3385	27.8840	-7.5282	0.5764	0.3746	0.4285	-0.5865
4.81	-8.8981	-0.7989	3.2918	-0.0091	-0.0007	-0.0402	23.2253	27.7793	-7.6229	0.5763	0.3746	0.4285	-0.5864
4.82	-8.8933	-0.7643	3.2939	-0.0081	0.0050	-0.0395	23.3141	27.8526	-7.5824	0.5764	0.3747	0.4285	-0.5864
4.83	-8.8958	-0.7360	3.2833	-0.0087	0.0033	-0.0430	23.4584	28.0992	-7.6983	0.5762	0.3748	0.4284	-0.5863
4.84	-8.9286	-0.7174	3.2748	-0.0130	0.0118	-0.0447	23.5234	28.0418	-7.7126	0.5763	0.3749	0.4285	-0.5863
4.85	-8.9504	-0.7113	3.2623	-0.0126	0.0114	-0.0481	23.3816	27.9721	-7.6510	0.5762	0.3750	0.4286	-0.5863
4.86	-8.9472	-0.7029	3.2534	-0.0091	0.0074	-0.0502	23.2522	27.9730	-7.5261	0.5761	0.3750	0.4286	-0.5862
4.87	-8.9469	-0.6908	3.2443	-0.0075	0.0057	-0.0489	23.2709	28.0990	-7.3944	0.5761	0.3751	0.4287	-0.5862
4.88	-8.9378	-0.6830	3.2413	-0.0094	0.0054	-0.0520	23.3658	28.1633	-7.3319	0.5760	0.3752	0.4287	-0.5862
4.89	-8.9563	-0.6739	3.2349	-0.0097	0.0140	-0.0507	23.3568	27.9835	-7.5173	0.5760	0.3753	0.4288	-0.5862
4.9	-8.9643	-0.6808	3.2338	-0.0159	0.0047	-0.0467	23.2570	27.9776	-7.5068	0.5759	0.3753	0.4288	-0.5861
4.91	-8.9657	-0.7033	3.2453	-0.0135	-0.0018	-0.0467	23.2604	27.9984	-7.6259	0.5759	0.3754	0.4288	-0.5861
4.92	-8.9690	-0.7274	3.2359	-0.0152	-0.0023	-0.0435	23.5779	27.7927	-7.5875	0.5759	0.3755	0.4288	-0.5860
4.93	-8.9724	-0.7422	3.2315	-0.0143	0.0007	-0.0466	23.6508	27.9112	-7.6159	0.5759	0.3755	0.4289	-0.5860
4.94	-8.9782	-0.7479	3.2315	-0.0134	0.0050	-0.0493	23.4082	27.7859	-7.5008	0.5758	0.3756	0.4289	-0.5860
4.95	-8.9933	-0.7433	3.2240	-0.0126	0.0031	-0.0448	23.4476	27.6161	-7.3636	0.5758	0.3756	0.4289	-0.5860
4.96	-8.9912	-0.7518	3.2300	-0.0128	0.0034	-0.0458	23.6345	27.9997	-7.2974	0.5758	0.3757	0.4290	-0.5859
4.97	-9.0114	-0.7535	3.2257	-0.0158	0.0042	-0.0480	23.8981	27.9830	-7.4116	0.5757	0.3757	0.4290	-0.5858
4.98	-9.0133	-0.7474	3.2203	-0.0129	-0.0021	-0.0421	23.8839	27.9934	-7.5338	0.5758	0.3758	0.4291	-0.5859
4.99	-8.9981	-0.7313	3.2078	-0.0074	0.0038	-0.0414	23.6499	27.9577	-7.5560	0.5757	0.3759	0.4290	-0.5858
5	-8.9570	-0.6968	3.2268	-0.0136	0.0028	-0.0422	23.4891	27.9142	-7.5645	0.5757	0.3760	0.4291	-0.5858
5.01	-9.0630	-0.6824	3.2198	-0.0162	0.0110	-0.0444	23.4360	28.0548	-7.4790	0.5756	0.3760	0.4291	-0.5857
5.02	-9.0395	-0.6678	3.2242	-0.0154	-0.0204	-0.0540	23.4513	28.0980	-7.3521	0.5757	0.3760	0.4291	-0.5857
5.03	-8.9177	-0.6734	3.2343	-0.0173	-0.0146	-0.0560	23.2316	28.1238	-7.6121	0.5757	0.3760	0.4291	-0.5857
5.04	-8.9783	-0.7293	3.2048	-0.0153	0.0007	-0.0596	23.3624	27.9952	-7.4358	0.5756	0.3760	0.4292	-0.5857
5.05	-8.9774	-0.7293	3.2286	-0.0134	-0.0132	-0.0537	23.3170	28.0399	-7.6391	0.5756	0.3761	0.4292	-0.5858
5.06	-8.9566	-0.6944	3.2316	-0.0143	-0.0144	-0.0510	23.1456	28.2186	-7.5825	0.5756	0.3760	0.4292	-0.5858
5.07	-8.9416	-0.6550	3.2366	-0.0136	-0.0150	-0.0529	23.3697	27.9408	-7.4783	0.5756	0.3760	0.4292	-0.5858
5.08	-8.9526	-0.6242	3.2454	-0.0186	-0.0121	-0.0524	23.3300	27.8801	-7.7084	0.5755	0.3760	0.4292	-0.5857
5.09	-8.9800	-0.6324	3.2373	-0.0185	-0.0077	-0.0571	23.4677	28.1063	-7.5073	0.5756	0.3760	0.4292	-0.5858
5.1	-8.9718	-0.6566	3.2396	-0.0296	-0.0120	-0.0615	23.2392	28.1635	-7.6463	0.5755	0.3759	0.4293	-0.5858
5.11	-8.9809	-0.6741	3.2373	-0.0306	-0.0076	-0.0654	23.3348	28.0250	-7.6762	0.5755	0.3759	0.4294	-0.5858
5.12	-8.9838	-0.6811	3.2277	-0.0311	-0.0150	-0.0672	23.4420	27.8667	-7.5437	0.5755	0.3758	0.4295	-0.5858
5.13	-8.9550	-0.6848	3.2226	-0.0401	-0.0111	-0.0688	23.5887	28.0425	-7.5901	0.5755	0.3757	0.4296	-0.5858
5.14	-8.9803	-0.7004	3.2088	-0.0367	-0.0065	-0.0677	23.5866	28.0047	-7.7158	0.5755	0.3756	0.4297	-0.5858
5.15	-8.9967	-0.7183	3.1992	-0.0398	-0.0099	-0.0748	23.4008	27.8783	-7.5157	0.5754	0.3755	0.4298	-0.5858
5.16	-9.0217	-0.7371	3.1988	-0.0382	-0.0004	-0.0731	23.4669	28.0443	-7.6361	0.5754	0.3754	0.4300	-0.5858
5.17	-9.0439	-0.7559	3.2132	-0.0428	-0.0139	-0.0660	23.2237	28.0101	-7.5771	0.5753	0.3753	0.4301	-0.5858
5.18	-9.0588	-0.7717	3.2189	-0.0401	-0.0219	-0.0649	23.4148	27.9429	-7.4174	0.5754	0.3752	0.4301	-0.5858
5.19	-9.0501	-0.7814	3.2130	-0.0379	-0.0269	-0.0636	23.4524	27.9144	-7.5989	0.5754	0.3750	0.4302	-0.5858
5.2	-9.0434	-0.8032	3.2252	-0.0407	-0.0356	-0.0618	23.1780	28.0382	-7.4260	0.5755	0.3749	0.4302	-0.5858
5.21	-9.0383	-0.8238	3.2331	-0.0381	-0.0345	-0.0629	23.3562	28.0007	-7.5147	0.5755	0.3747	0.4303	-0.5859
5.22	-8.9974	-0.8286	3.2492	-0.0405	-0.0375	-0.0572	23.3346	28.0047	-7.4240	0.5755	0.3745	0.4302	-0.5859
5.23	-8.9647	-0.8378	3.2733	-0.0345	-0.0386	-0.0503	23.2691	28.1237	-7.6526	0.5757	0.3745	0.4303	-0.5859
5.24	-8.9358	-0.8388	3.2869	-0.0367	-0.0448	-0.0527	23.3685	28.2090	-7.5904	0.5758	0.3743	0.4302	-0.5859
5.25	-8.8915	-0.8396	3.2997	-0.0333	-0.0455	-0.0515	23.3397	28.1706	-7.6549	0.5759	0.3742	0.4302	-0.5860
5.26	-8.8431	-0.8407	3.3142	-0.0176	-0.0386	-0.0442	23.4337	28.2031	-7.5622	0.5759	0.3740	0.4301	-0.5860
5.27	-8.8250	-0.8335	3.3208	-0.0147	-0.0311	-0.0496	23.2303	28.1567	-7.4881	0.5760	0.3740	0.4301	-0.5860
5.28	-8.8213	-0.8098	3.3295	-0.0139	-0.0311	-0.0433	23.4398	28.0725	-7.5647	0.5760	0.3740	0.4300	-0.5860
5.29	-8.8180	-0.7840	3.3283	-0.0138	-0.0249	-0.0439	23.4355	28.1261	-7.4049	0.5760	0.3739	0.4299	-0.5860
5.3	-8.8359	-0.7619	3.3248	-0.0044	-0.0124	-0.0408	23.5241	27.9766	-7.6473	0.5761	0.3740	0.4299	-0.5861
5.31	-8.8565	-0.7488	3.3295	0.0002	-0.0046	-0.0462	23.5559	27.9169	-7.5958	0.5760	0.3741	0.4299	-0.5861
5.32	-8.8724	-0.7463	3.3168	0.0004	-0.0022	-0.0425	23.4264	27.9121	-7.6053	0.5760	0.3742	0.4299	-0.5861
5.33	-8.8903	-0.7462	3.3117	0.0055	-0.0025	-0.0469	23.5386	28.0190	-7.7767	0.5759	0.3742	0.4298	-0.5860
5.34	-8.9083	-0.7461	3.3053	0.0068	0.0004	-0.0466	23.6011	27.8880	-7.6212	0.5759	0.3744	0.4298	-0.5861
5.35	-8.9153	-0.7585	3.2989	0.0026	0.0044	-0.0399	23.3384	27.9844	-7.4915	0.5759	0.3745	0.4297	-0.5861
5.36	-8.9250	-0.7655	3.3002	0.0005	0.0017	-0.0411	23.3317	28.0130	-7.5291	0.5758	0.3746	0.4297	-0.5860
5.37	-8.9410	-0.7623	3.2938	0.0054	0.0071	-0.0412	23.4707	28.1064	-7.6077	0.5758	0.3747	0.4297	-0.5861
5.38	-8.9418	-0.7577	3.2824	0.0073	0.0055	-0.0435	23.5096	28.0902	-7.6527	0.5757	0.3749	0.4297	-0.5860
5.39	-8.9469	-0.7494	3.2851	0.0090	0.0097	-0.0432	23.4072	28.1365	-7.6940	0.5756	0.3750	0.4297	-0.5860
5.4	-8.9644	-0.7438	3.2717	0.0132	0.0113	-0.0368	23.4521	28.3137	-7.5555	0.5755	0.3752	0.4296	-0.5860
5.41	-8.9564	-0.7294	3.2704	0.0101	0.0102	-0.0373	23.4328	28.0198	-7.3802	0.5755	0.3754	0.4296	-0.5860
5.42	-8.9756	-0.7166	3.2713	0.0121	0.0155	-0.0357	23.4201	28.0585	-7.4937	0.5754	0.3755	0.4295	-0.5859
5.43	-8.9783	-0.6989	3.2630	0.0115	0.0030	-0.0357	23.2387	28.0895	-7.4981	0.5754	0.3757	0.4295	-0.5860
5.44	-8.9677	-0.6837	3.2563	0.0113	0.0061	-0.0395	23.2683	27.6728	-7.3235	0.5753	0.3758	0.4294	-0.5859
5.45	-8.9691	-0.6618	3.2481	0.0120	0.0086	-0.0394	23.4851	27.9472	-7.6144	0.5752	0.3760	0.4294	-0.5859
5.46	-8.9635	-0.6398	3.2526	0.0087	0.0033	-0.0434	23.3944	28.0173	-7.5279	0.5752	0.3762	0.4294	-0.5859
5.47	-8.9731	-0.6273	3.2512	-0.0017	0.0073	-0.0408	23.5520	28.0872	-7.2111	0.5751	0.3762	0.4293	-0.5859
5.48	-8.9895	-0.6134	3.2476	-0.0030	0.0056	-0.0419	23.3921	28.1122	-7.4587	0.5751	0.3764	0.4294	-0.5859
5.49	-9.0062	-0.6129	3.2453	-0.0080	0.0131	-0.0440	23.7372	27.9935	-7.2873	0.5750	0.3765	0.4294	-0.5858
5.5	-9.0211	-0.6182	3.2457	-0.0093	0.0038	-0.0548	23.6384	27.9515	-7.2865	0.5750	0.3766	0.4295	-0.5859
5.51	-9.0286	-0.6242	3.2435	-0.0136	0.0012	-0.0576	23.7069	27.8011	-7.6576	0.5749	0.3766	0.4295	-0.5858
5.52	-9.0474	-0.6362	3.2358	-0.0146	-0.0042	-0.0605	23.7512	27.9811	-7.5873	0.5749	0.3766	0.4295	-0.5858
5.53	-9.0449	-0.6443	3.2363	-0.0301	-0.0057	-0.0559	23.5071	27.9430	-7.4773	0.5749	0.3766	0.4296	-0.5858
5.54	-9.0482	-0.6548	3.2388	-0.0348	-0.0147	-0.0534	23.4111	27.8815	-7.6315	0.5749	0.3765	0.4296	-0.5858
5.55	-9.0330	-0.6682	3.2418	-0.0297	-0.0236	-0.0635	23.4398	28.0084	-7.5951	0.5749	0.3764	0.4297	-0.5859
5.56	-9.0045	-0.6970	3.2493	-0.0385	-0.0286	-0.0604	23.4763	27.8632	-7.6634	0.5749	0.3763	0.4297	-0.5858
5.57	-8.9705	-0.7314	3.2537	-0.0394	-0.0338	-0.0632	23.1848	27.9394	-7.7187	0.5750	0.3761	0.4298	-0.5859
5.58	-8.9370	-0.7636	3.2627	-0.0410	-0.0294	-0.0584	23.3400	27.7791	-7.7178	0.5750	0.3759	0.4298	-0.5858
5.59	-8.9205	-0.7871	3.2748	-0.0434	-0.0306	-0.0581	23.4375	28.0758	-7.5574	0.5751	0.3758	0.4299	-0.5859
5.6	-8.9241	-0.8073	3.2866	-0.0397	-0.0260	-0.0541	23.5493	28.2130	-7.5692	0.5752	0.3757	0.4299	-0.5859
5.61	-8.9248	-0.8206	3.2908	-0.0392	-0.0226	-0.0517	23.4130	28.0815	-7.6433	0.5752	0.3756	0.4299	-0.5858
5.62	-8.8977	-0.8268	3.3038	-0.0321	-0.0284	-0.0538	23.3279	27.9791	-7.6039	0.5753	0.3755	0.4300	-0.5858
5.63	-8.8935	-0.8139	3.3059	-0.0286	-0.0231	-0.0488	23.2997	28.1301	-7.7630	0.5753	0.3754	0.4300	-0.5858
5.64	-8.9122	-0.7937	3.3093	-0.0298	-0.0174	-0.0482	23.4298	28.1946	-7.6413	0.5754	0.3754	0.4300	-0.5858
5.65	-8.9202	-0.7919	3.3122	-0.0335	-0.0207	-0.0452	23.6586	28.0828	-7.5351	0.5754	0.3753	0.4300	-0.5857
5.66	-8.8998	-0.7998	3.3215	-0.0158	-0.0183	-0.0477	23.1979	27.8585	-7.3859	0.5755	0.3753	0.4300	-0.5858
5.67	-8.8974	-0.8100	3.3168	-0.0179	-0.0204	-0.0489	23.5079	27.9570	-7.5154	0.5755	0.3752	0.4300	-0.5858
5.68	-8.9018	-0.8225	3.3216	-0.0213	-0.0162	-0.0500	23.6329	28.0266	-7.7403	0.5755	0.3752	0.4300	-0.5858
5.69	-8.9238	-0.8170	3.3301	-0.0166	-0.0143	-0.0413	23.4900	27.8713	-7.6774	0.5755	0.3752	0.4299	-0.5857
5.7	-8.9008	-0.8066	3.3211	-0.0143	-0.0189	-0.0386	23.4826	27.8187	-7.7494	0.5756	0.3752	0.4299	-0.5857
5.71	-8.8692	-0.8135	3.3118	-0.0096	-0.0120	-0.0412	23.5822	27.9824	-7.7988	0.5756	0.3753	0.4299	-0.5857
5.72	-8.8616	-0.8218	3.3093	0.0027	-0.0034	-0.0372	23.5256	28.0130	-7.4779	0.5755	0.3753	0.4298	-0.5857
5.73	-8.8561	-0.7994	3.3134	0.0063	-0.0001	-0.0352	23.2903	27.8561	-7.7761	0.5756	0.3755	0.4298	-0.5857
5.74	-8.8724	-0.7535	3.3120	0.0092	0.0095	-0.0329	23.3235	27.9790	-7.6230	0.5755	0.3756	0.4297	-0.5857
5.75	-8.8974	-0.7077	3.3103	0.0089	0.0019	-0.0365	23.3911	27.9295	-7.6852	0.5755	0.3758	0.4297	-0.5857
5.76	-8.9191	-0.6828	3.2904	0.0135	0.0097	-0.0344	23.4260	27.8846	-7.7149	0.5754	0.3759	0.4296	-0.5856
5.77	-8.9460	-0.6812	3.2792	0.0097	0.0138	-0.0375	23.4114	28.1431	-7.7175	0.5753	0.3761	0.4296	-0.5856
5.78	-8.9558	-0.6799	3.2651	0.0073	0.0119	-0.0465	23.4068	28.0074	-7.6849	0.5753	0.3763	0.4296	-0.5856
5.79	-8.9522	-0.6645	3.2578	0.0124	0.0184	-0.0499	23.4789	27.9651	-7.8163	0.5751	0.3764	0.4296	-0.5856
5.8	-8.9633	-0.6558	3.2495	0.0085	0.0172	-0.0520	23.6333	28.1211	-7.6760	0.5751	0.3766	0.4297	-0.5857
5.81	-8.9724	-0.6439	3.2441	0.0043	0.0140	-0.0561	23.4054	28.1597	-7.6267	0.5749	0.3767	0.4296	-0.5856
5.82	-8.9788	-0.6285	3.2416	0.0048	0.0144	-0.0605	23.4956	27.9886	-7.5452	0.5748	0.3769	0.4297	-0.5857
5.83	-8.9851	-0.6283	3.2385	-0.0049	0.0076	-0.0659	23.4299	27.9945	-7.5235	0.5746	0.3769	0.4297	-0.5856
5.84	-9.0043	-0.6350	3.2370	-0.0124	0.0110	-0.0634	23.2789	27.8782	-7.5025	0.5746	0.3770	0.4298	-0.5857
5.85	-9.0073	-0.6550	3.2294	-0.0135	0.0093	-0.0583	23.3990	27.9366	-7.7745	0.5745	0.3770	0.4299	-0.5857
5.86	-9.0045	-0.6793	3.2293	-0.0249	-0.0033	-0.0653	23.7125	28.0958	-7.7369	0.5744	0.3770	0.4300	-0.5857
5.87	-9.0193	-0.6892	3.2259	-0.0330	0.0097	-0.0601	23.5645	28.0658	-7.6125	0.5744	0.3770	0.4301	-0.5857
5.88	-9.0230	-0.7100	3.2279	-0.0406	0.0028	-0.0574	23.5007	27.8489	-7.7058	0.5744	0.3769	0.4302	-0.5856
5.89	-9.0470	-0.7280	3.2305	-0.0382	-0.0000	-0.0522	23.6880	27.9539	-7.5721	0.5744	0.3769	0.4304	-0.5856
5.9	-9.0398	-0.7400	3.2262	-0.0395	-0.0140	-0.0487	23.6832	27.7786	-7.6353	0.5744	0.3768	0.4304	-0.5854
5.91	-9.0239	-0.7541	3.2281	-0.0381	-0.0130	-0.0468	23.5677	27.9687	-7.5964	0.5745	0.3768	0.4305	-0.5855
5.92	-8.9768	-0.7403	3.2165	-0.0334	-0.0228	-0.0479	23.6208	27.9545	-7.8074	0.5745	0.3767	0.4305	-0.5854
5.93	-8.9877	-0.7333	3.2412	-0.0391	-0.0136	-0.0500	23.5073	27.8730	-7.7345	0.5746	0.3766	0.4306	-0.5854
5.94	-9.0990	-0.7346	3.2178	-0.0380	-0.0153	-0.0477	23.5093	28.0110	-7.5851	0.5746	0.3765	0.4306	-0.5853
5.95	-8.9559	-0.7218	3.2574	-0.0435	-0.0389	-0.0595	23.3544	27.8632	-7.9022	0.5747	0.3764	0.4306	-0.5853
5.96	-8.9548	-0.7639	3.2392	-0.0396	-0.0160	-0.0552	23.5647	28.1528	-7.4149	0.5748	0.3763	0.4307	-0.5853
5.97	-8.9793	-0.7912	3.2402	-0.0406	-0.0305	-0.0516	23.9139	28.1807	-7.2314	0.5748	0.3761	0.4307	-0.5852
5.98	-8.9389	-0.7766	3.2705	-0.0399	-0.0364	-0.0543	23.8217	28.1689	-7.3389	0.5750	0.3760	0.4308	-0.5853
5.99	-8.9305	-0.7650	3.2683	-0.0417	-0.0328	-0.0454	23.7126	28.1738	-7.4789	0.5750	0.3759	0.4307	-0.5853
6	-8.9154	-0.7403	3.2903	-0.0392	-0.0290	-0.0458	23.4328	28.0606	-7.5836	0.5752	0.3758	0.4308	-0.5853
6.01	-8.9442	-0.7423	3.2952	-0.0399	-0.0278	-0.0499	23.1599	27.9277	-7.5230	0.5752	0.3756	0.4307	-0.5852
6.02	-8.9438	-0.7695	3.3038	-0.0406	-0.0335	-0.0482	23.4802	28.0675	-7.6879	0.5753	0.3755	0.4308	-0.5852
6.03	-8.9359	-0.7975	3.3094	-0.0408	-0.0312	-0.0463	23.6268	28.1251	-7.7871	0.5754	0.3754	0.4308	-0.5852
6.04	-8.9364	-0.8106	3.3037	-0.0385	-0.0301	-0.0459	23.6563	28.0495	-7.8492	0.5754	0.3752	0.4308	-0.5851
6.05	-8.9262	-0.8099	3.3032	-0.0386	-0.0283	-0.0495	23.7280	27.7848	-7.7887	0.5756	0.3752	0.4309	-0.5852
6.06	-8.9136	-0.8163	3.2980	-0.0338	-0.0269	-0.0475	23.6150	27.7887	-7.5580	0.5756	0.3750	0.4308	-0.5851
6.07	-8.9114	-0.8184	3.2996	-0.0247	-0.0198	-0.0468	23.4485	27.8709	-7.5174	0.5757	0.3750	0.4309	-0.5851
6.08	-8.8970	-0.8161	3.2922	-0.0171	-0.0286	-0.0425	23.5634	27.8178	-7.6477	0.5757	0.3749	0.4307	-0.5851
6.09	-8.8975	-0.8181	3.2996	-0.0177	-0.0233	-0.0368	23.7604	28.0911	-7.6175	0.5758	0.3750	0.4307	-0.5851
6.1	-8.8924	-0.8071	3.3065	-0.0096	-0.0270	-0.0350	23.5746	27.9378	-7.6889	0.5759	0.3749	0.4306	-0.5851
6.11	-8.8876	-0.7913	3.3129	-0.0011	-0.0117	-0.0382	23.4727	27.9381	-7.7474	0.5759	0.3750	0.4306	-0.5851
6.12	-8.8878	-0.7823	3.3131	0.0018	-0.0200	-0.0361	23.4630	27.9066	-7.7099	0.5759	0.3751	0.4305	-0.5851
6.13	-8.8941	-0.7593	3.3159	0.0120	-0.0155	-0.0370	23.6015	28.1178	-7.8883	0.5759	0.3751	0.4304	-0.5851
6.14	-8.8987	-0.7413	3.3161	0.0074	0.0026	-0.0409	23.6984	27.9900	-7.6873	0.5759	0.3753	0.4303	-0.5852
6.15	-8.8981	-0.7218	3.3174	0.0089	-0.0048	-0.0408	23.4441	27.8880	-7.5131	0.5758	0.3754	0.4302	-0.5851
6.16	-8.9154	-0.6964	3.3154	0.0094	0.0061	-0.0512	23.3907	28.1737	-7.6798	0.5757	0.3755	0.4302	-0.5852
6.17	-8.9198	-0.6832	3.3048	0.0127	0.0049	-0.0530	23.3125	28.0412	-7.6020	0.5756	0.3756	0.4302	-0.5852
6.18	-8.9392	-0.6710	3.3015	0.0052	0.0077	-0.0517	23.3803	27.9930	-7.7309	0.5755	0.3758	0.4302	-0.5853
6.19	-8.9581	-0.6654	3.2911	-0.0002	0.0090	-0.0529	23.7348	28.1357	-7.7230	0.5754	0.3758	0.4302	-0.5852
6.2	-8.9737	-0.6683	3.2869	0.0034	0.0099	-0.0552	23.2922	28.0707	-7.7552	0.5753	0.3759	0.4302	-0.5853
6.21	-8.9878	-0.6718	3.2855	0.0018	0.0042	-0.0611	23.4020	28.1742	-7.8718	0.5753	0.3760	0.4303	-0.5853
6.22	-8.9866	-0.6785	3.2814	0.0061	-0.0010	-0.0598	23.5537	27.8271	-7.7001	0.5751	0.3761	0.4302	-0.5853
6.23	-8.9785	-0.6757	3.2773	-0.0105	-0.0014	-0.0539	23.6900	27.7703	-7.8497	0.5751	0.3762	0.4303	-0.5854
6.24	-8.9653	-0.6747	3.2694	-0.0103	-0.0041	-0.0603	23.8464	27.8369	-7.7674	0.5750	0.3761	0.4303	-0.5854
6.25	-8.9616	-0.6748	3.2689	-0.0094	-0.0076	-0.0609	23.6150	27.9751	-7.6931	0.5750	0.3762	0.4303	-0.5855
6.26	-8.9704	-0.6797	3.2686	-0.0154	-0.0141	-0.0590	23.6677	28.0506	-7.8421	0.5749	0.3761	0.4303	-0.5855
6.27	-8.9623	-0.6762	3.2821	-0.0138	-0.0218	-0.0565	23.6196	27.8789	-7.9211	0.5750	0.3761	0.4303	-0.5855
6.28	-8.9784	-0.6785	3.2815	-0.0194	-0.0188	-0.0562	23.4980	27.9791	-7.7164	0.5750	0.3760	0.4303	-0.5856
6.29	-8.9775	-0.6882	3.2835	-0.0270	-0.0231	-0.0521	23.3835	27.8178	-7.7973	0.5750	0.3759	0.4303	-0.5855
6.3	-8.9815	-0.6962	3.2898	-0.0290	-0.0136	-0.0530	23.2659	27.8673	-7.9450	0.5751	0.3759	0.4304	-0.5856
6.31	-8.9864	-0.7093	3.2946	-0.0367	-0.0172	-0.0481	23.3162	27.9336	-7.7302	0.5751	0.3758	0.4304	-0.5855
6.32	-8.9913	-0.7316	3.2990	-0.0340	-0.0185	-0.0467	23.4627	27.9548	-7.7553	0.5752	0.3758	0.4304	-0.5855
6.33	-8.9799	-0.7475	3.2914	-0.0366	-0.0214	-0.0488	23.4765	27.8091	-7.6013	0.5751	0.3757	0.4304	-0.5854
6.34	-8.9576	-0.7600	3.2920	-0.0382	-0.0211	-0.0489	23.3368	28.0102	-7.6879	0.5753	0.3756	0.4305	-0.5854
6.35	-8.9519	-0.7792	3.2893	-0.0384	-0.0268	-0.0528	23.4421	28.1136	-7.8805	0.5753	0.3755	0.4305	-0.5854
6.36	-8.9306	-0.7914	3.2910	-0.0384	-0.0305	-0.0443	23.4870	28.1889	-7.7353	0.5754	0.3754	0.4305	-0.5854
6.37	-8.9290	-0.8023	3.2973	-0.0338	-0.0209	-0.0421	23.3620	28.0878	-7.7087	0.5755	0.3753	0.4305	-0.5854
6.38	-8.9296	-0.8070	3.3076	-0.0357	-0.0215	-0.0372	23.5174	28.1534	-7.7899	0.5756	0.3752	0.4305	-0.5853
6.39	-8.9224	-0.8080	3.3169	-0.0359	-0.0261	-0.0423	23.3891	28.1591	-7.7895	0.5757	0.3752	0.4305	-0.5853
6.4	-8.9076	-0.7958	3.3156	-0.0169	-0.0220	-0.0395	23.3785	28.0698	-7.6188	0.5757	0.3751	0.4304	-0.5852
6.41	-8.9135	-0.7910	3.3209	-0.0196	-0.0260	-0.0394	23.2664	28.1352	-7.7467	0.5758	0.3751	0.4304	-0.5853
6.42	-8.9109	-0.7799	3.3248	-0.0162	-0.0279	-0.0429	23.4895	28.0621	-7.7617	0.5758	0.3751	0.4304	-0.5852
6.43	-8.9036	-0.7638	3.3296	-0.0180	-0.0250	-0.0388	23.6499	27.9377	-7.8631	0.5759	0.3750	0.4303	-0.5853
6.44	-8.9058	-0.7604	3.3334	-0.0140	-0.0151	-0.0489	23.6536	27.9228	-7.6871	0.5759	0.3750	0.4303	-0.5852
6.45	-8.9096	-0.7561	3.3302	-0.0157	-0.0209	-0.0443	23.6165	27.8239	-7.8889	0.5759	0.3750	0.4303	-0.5853
6.46	-8.9090	-0.7526	3.3312	-0.0130	-0.0208	-0.0467	23.5389	28.0566	-7.4779	0.5760	0.3750	0.4302	-0.5853
6.47	-8.9090	-0.7450	3.3304	-0.0046	-0.0216	-0.0422	23.9347	27.8576	-7.5043	0.5760	0.3750	0.4301	-0.5853
6.48	-8.9105	-0.7324	3.3308	-0.0111	-0.0245	-0.0446	24.0092	27.7275	-7.7689	0.5761	0.3750	0.4301	-0.5854
6.49	-8.9117	-0.7296	3.3262	-0.0134	-0.0155	-0.0492	23.3702	27.8297	-7.5117	0.5760	0.3750	0.4301	-0.5853
6.5	-8.9120	-0.7169	3.3234	-0.0106	-0.0122	-0.0514	23.1370	27.9086	-7.7574	0.5761	0.3750	0.4301	-0.5854
6.51	-8.9208	-0.7137	3.3268	-0.0105	-0.0141	-0.0498	22.8992	27.8816	-7.6133	0.5760	0.3750	0.4300	-0.5853
6.52	-8.9203	-0.7087	3.3278	-0.0147	-0.0098	-0.0565	22.9245	28.1646	-7.8342	0.5760	0.3750	0.4300	-0.5854
6.53	-8.9089	-0.7085	3.3274	-0.0132	-0.0153	-0.0539	23.0820	28.2441	-7.7364	0.5760	0.3750	0.4300	-0.5854
6.54	-8.9123	-0.7098	3.3292	-0.0145	-0.0024	-0.0503	23.0884	27.9605	-7.5869	0.5759	0.3750	0.4300	-0.5854
6.55	-8.9204	-0.7108	3.3322	-0.0086	-0.0037	-0.0585	23.0919	27.9756	-7.7956	0.5760	0.3751	0.4301	-0.5855
6.56	-8.9186	-0.7030	3.3329	-0.0180	-0.0049	-0.0598	23.0746	28.1360	-7.6780	0.5759	0.3750	0.4301	-0.5855
6.57	-8.9099	-0.7010	3.3333	-0.0211	-0.0026	-0.0618	22.9033	28.1184	-7.6363	0.5759	0.3750	0.4302	-0.5855
6.58	-8.9164	-0.7014	3.3300	-0.0205	-0.0016	-0.0612	22.9092	27.9273	-7.7286	0.5757	0.3750	0.4302	-0.5854
6.59	-8.9076	-0.7080	3.3327	-0.0323	-0.0113	-0.0594	23.1286	28.2507	-7.7741	0.5758	0.3749	0.4303	-0.5855
6.6	-8.9007	-0.7154	3.3277	-0.0312	-0.0078	-0.0598	23.0659	27.9886	-7.8460	0.5758	0.3749	0.4304	-0.5855
6.61	-8.9043	-0.7254	3.3234	-0.0381	-0.0020	-0.0636	23.1478	27.7709	-7.8311	0.5757	0.3748	0.4305	-0.5854
6.62	-8.9130	-0.7411	3.3201	-0.0406	0.0010	-0.0594	23.3069	27.8151	-7.7120	0.5757	0.3747	0.4306	-0.5854
6.63	-8.9332	-0.7654	3.3210	-0.0394	0.0027	-0.0625	23.3370	27.8042	-7.7671	0.5757	0.3747	0.4307	-0.5854
6.64	-8.9513	-0.7833	3.3161	-0.0408	0.0022	-0.0635	23.2064	27.9902	-7.8567	0.5757	0.3746	0.4309	-0.5853
6.65	-8.9420	-0.8059	3.3096	-0.0366	-0.0043	-0.0566	23.0533	27.9558	-7.8149	0.5756	0.3745	0.4309	-0.5852
6.66	-8.9451	-0.8149	3.3039	-0.0360	-0.0082	-0.0533	23.2493	28.0086	-7.7350	0.5757	0.3745	0.4311	-0.5853
6.67	-8.9828	-0.8029	3.2983	-0.0405	0.0029	-0.0489	23.0382	27.9081	-7.7150	0.5757	0.3744	0.4311	-0.5852
6.68	-8.9872	-0.8025	3.2975	-0.0371	-0.0057	-0.0530	23.0626	27.9324	-7.5263	0.5758	0.3744	0.4313	-0.5851
6.69	-8.9429	-0.8068	3.3066	-0.0334	-0.0121	-0.0566	23.0870	28.1804	-7.6756	0.5757	0.3743	0.4313	-0.5851
6.7	-8.9502	-0.8287	3.3147	-0.0268	-0.0091	-0.0514	23.0060	28.1522	-7.6166	0.5758	0.3743	0.4313	-0.5851
6.71	-8.9707	-0.8355	3.3218	-0.0305	-0.0060	-0.0524	22.8974	28.1156	-7.5315	0.5758	0.3743	0.4314	-0.5851
6.72	-8.9829	-0.8275	3.3302	-0.0202	-0.0125	-0.0434	22.7626	27.9581	-7.5692	0.5758	0.3742	0.4314	-0.5850
6.73	-8.9426	-0.8198	3.3409	-0.0165	-0.0184	-0.0400	23.0665	27.9831	-7.6398	0.5759	0.3743	0.4314	-0.5851
6.74	-8.9129	-0.8240	3.3294	-0.0123	-0.0102	-0.0394	23.0978	27.9791	-7.6822	0.5759	0.3743	0.4313	-0.5850
6.75	-8.8814	-0.8355	3.3133	-0.0104	-0.0145	-0.0364	23.0383	27.9644	-7.7871	0.5759	0.3743	0.4313	-0.5850
6.76	-8.8640	-0.8257	3.3276	-0.0159	-0.0098	-0.0324	22.8757	28.0683	-7.5277	0.5759	0.3743	0.4312	-0.5849
6.77	-8.8820	-0.7884	3.3301	0.0016	0.0027	-0.0325	23.0656	28.1822	-7.5753	0.5759	0.3745	0.4312	-0.5849
6.78	-8.8953	-0.7411	3.3254	0.0057	-0.0001	-0.0312	23.0793	28.1107	-7.7269	0.5759	0.3746	0.4312	-0.5849
6.79	-8.8997	-0.7060	3.3161	0.0084	0.0066	-0.0336	23.1728	27.9536	-7.7520	0.5759	0.3747	0.4311	-0.5848
6.8	-8.9009	-0.6945	3.3081	0.0079	0.0068	-0.0361	23.0867	28.0987	-7.6272	0.5759	0.3749	0.4311	-0.5849
6.81	-8.9059	-0.6933	3.3000	0.0010	0.0049	-0.0361	23.0852	28.0195	-7.6617	0.5758	0.3750	0.4310	-0.5848
6.82	-8.9309	-0.6829	3.2919	0.0122	0.0137	-0.0444	23.0932	27.9595	-7.6220	0.5758	0.3752	0.4310	-0.5848
6.83	-8.9457	-0.6680	3.2882	0.0087	0.0127	-0.0460	23.0868	27.9921	-7.7516	0.5756	0.3753	0.4310	-0.5848
6.84	-8.9560	-0.6580	3.2858	0.0097	0.0109	-0.0494	22.9737	27.8461	-7.7215	0.5756	0.3755	0.4310	-0.5848
6.85	-8.9732	-0.6538	3.2841	0.0056	0.0033	-0.0522	23.0322	27.9493	-7.9499	0.5755	0.3755	0.4310	-0.5848
6.86	-8.9834	-0.6616	3.2796	-0.0002	0.0044	-0.0569	23.1940	27.9897	-7.7657	0.5754	0.3756	0.4310	-0.5849
6.87	-8.9895	-0.6720	3.2822	-0.0065	0.0038	-0.0548	23.1569	27.9647	-7.6230	0.5753	0.3757	0.4310	-0.5849
6.88	-8.9749	-0.6765	3.2876	-0.0140	0.0012	-0.0498	23.2160	28.1287	-7.6468	0.5753	0.3757	0.4310	-0.5849
6.89	-8.9596	-0.6812	3.2888	-0.0141	-0.0057	-0.0503	23.0782	27.9297	-7.6950	0.5753	0.3758	0.4311	-0.5849
6.9	-8.9439	-0.6845	3.2885	-0.0247	-0.0060	-0.0533	23.1889	27.8467	-7.7737	0.5752	0.3757	0.4311	-0.5848
6.91	-8.9429	-0.6965	3.2961	-0.0189	-0.0017	-0.0489	23.1436	28.1450	-7.5849	0.5753	0.3757	0.4311	-0.5849
6.92	-8.9505	-0.7110	3.2994	-0.0233	0.0016	-0.0450	22.9497	27.9666	-7.5731	0.5752	0.3758	0.4312	-0.5848
6.93	-8.9436	-0.7222	3.2908	-0.0292	-0.0100	-0.0483	23.0244	28.0614	-7.4626	0.5753	0.3757	0.4312	-0.5848
6.94	-8.9298	-0.7292	3.2947	-0.0249	-0.0002	-0.0479	22.9834	28.0578	-7.5551	0.5753	0.3757	0.4313	-0.5847
6.95	-8.9443	-0.7266	3.2737	-0.0336	0.0044	-0.0484	23.1315	27.9706	-7.8165	0.5753	0.3757	0.4314	-0.5847
6.96	-8.9034	-0.7099	3.2903	-0.0345	-0.0057	-0.0507	23.0573	28.1427	-7.6160	0.5753	0.3757	0.4314	-0.5846
6.97	-9.0129	-0.7176	3.2880	-0.0320	0.0132	-0.0454	23.5540	28.2324	-7.4314	0.5753	0.3757	0.4315	-0.5845
6.98	-9.0097	-0.7168	3.2836	-0.0272	-0.0157	-0.0516	23.7317	28.3634	-7.6023	0.5753	0.3757	0.4316	-0.5845
6.99	-8.8957	-0.7238	3.3000	-0.0354	-0.0184	-0.0561	23.7216	27.9948	-7.5708	0.5753	0.3756	0.4316	-0.5845
7	-8.9553	-0.7703	3.2705	-0.0331	0.0002	-0.0545	23.5279	27.9353	-7.7993	0.5754	0.3756	0.4317	-0.5845
7.01	-8.9325	-0.7730	3.2926	-0.0192	-0.0084	-0.0529	23.5065	27.9626	-7.6828	0.5753	0.3755	0.4317	-0.5844
7.02	-8.9071	-0.7541	3.2953	-0.0279	-0.0025	-0.0454	23.6939	28.0505	-7.5065	0.5754	0.3755	0.4318	-0.5844
7.03	-8.9105	-0.7350	3.2980	-0.0241	-0.0038	-0.0504	23.5388	27.9932	-7.6484	0.5754	0.3755	0.4318	-0.5844
7.04	-8.9396	-0.7188	3.2985	-0.0191	0.0045	-0.0474	23.6069	28.1367	-7.5883	0.5753	0.3755	0.4318	-0.5843
7.05	-8.9610	-0.7345	3.3055	-0.0410	0.0051	-0.0463	23.4774	27.8924	-7.7191	0.5754	0.3755	0.4320	-0.5843
7.06	-8.9631	-0.7498	3.3091	-0.0327	0.0006	-0.0463	23.4771	27.8576	-7.5543	0.5754	0.3755	0.4320	-0.5842
7.07	-8.9851	-0.7627	3.3008	-0.0346	-0.0032	-0.0483	23.3198	28.0206	-7.6926	0.5754	0.3755	0.4321	-0.5842
7.08	-8.9757	-0.7545	3.2899	-0.0293	-0.0026	-0.0520	23.2808	28.1093	-7.7285	0.5754	0.3754	0.4322	-0.5841
7.09	-8.9580	-0.7586	3.2896	-0.0323	-0.0093	-0.0494	23.7100	28.0068	-7.5441	0.5754	0.3754	0.4322	-0.5841
7.1	-8.9443	-0.7613	3.2846	-0.0393	-0.0121	-0.0494	23.3709	28.0462	-7.5535	0.5755	0.3753	0.4323	-0.5840
7.11	-8.9423	-0.7639	3.2821	-0.0316	-0.0066	-0.0502	23.3587	27.9379	-7.6590	0.5755	0.3753	0.4324	-0.5840
7.12	-8.9445	-0.7835	3.2775	-0.0322	-0.0055	-0.0564	23.5137	28.0238	-7.3778	0.5755	0.3752	0.4324	-0.5840
7.13	-8.9429	-0.7907	3.2772	-0.0286	-0.0074	-0.0500	23.3833	28.0420	-7.3314	0.5755	0.3752	0.4325	-0.5839
7.14	-8.9353	-0.7897	3.2792	-0.0223	-0.0070	-0.0484	23.5756	27.9949	-7.5454	0.5755	0.3752	0.4325	-0.5839
7.15	-8.9304	-0.7957	3.2750	-0.0183	-0.0131	-0.0470	23.2810	28.1367	-7.4100	0.5755	0.3752	0.4325	-0.5839
7.16	-8.9363	-0.8014	3.2848	-0.0197	-0.0184	-0.0434	23.2300	28.0717	-7.4586	0.5756	0.3752	0.4325	-0.5839
7.17	-8.9511	-0.7955	3.2914	-0.0201	-0.0096	-0.0456	23.5366	27.7363	-7.5152	0.5756	0.3751	0.4325	-0.5839
7.18	-8.9606	-0.7906	3.2926	-0.0169	-0.0127	-0.0433	23.6188	28.0477	-7.5760	0.5756	0.3752	0.4325	-0.5839
7.19	-8.9610	-0.7879	3.3009	-0.0113	-0.0131	-0.0478	23.4603	28.0095	-7.7288	0.5756	0.3752	0.4324	-0.5839
7.2	-8.9621	-0.7798	3.2948	-0.0116	-0.0131	-0.0458	23.4025	27.8002	-7.5501	0.5756	0.3752	0.4324	-0.5839
7.21	-8.9571	-0.7701	3.3007	-0.0032	-0.0115	-0.0477	23.5772	27.9062	-7.4817	0.5756	0.3752	0.4324	-0.5839
7.22	-8.9618	-0.7675	3.2953	-0.0137	-0.0155	-0.0486	23.5948	28.0362	-7.6246	0.5756	0.3752	0.4323	-0.5839
7.23	-8.9720	-0.7579	3.3001	-0.0087	-0.0154	-0.0483	23.4600	28.0111	-7.5876	0.5757	0.3752	0.4323	-0.5840
7.24	-8.9672	-0.7450	3.2990	-0.0117	-0.0233	-0.0494	23.3946	27.9111	-7.5126	0.5756	0.3752	0.4323	-0.5840
7.25	-8.9567	-0.7347	3.3071	-0.0096	-0.0281	-0.0501	23.6345	27.9545	-7.7246	0.5757	0.3752	0.4322	-0.5841
7.26	-8.9400	-0.7259	3.3074	-0.0133	-0.0252	-0.0484	23.3641	27.9250	-7.6781	0.5757	0.3751	0.4321	-0.5840
7.27	-8.9260	-0.7280	3.3086	-0.0155	-0.0230	-0.0465	23.3267	27.8292	-7.7344	0.5757	0.3751	0.4321	-0.5841
7.28	-8.9153	-0.7252	3.3209	-0.0159	-0.0238	-0.0464	23.6218	28.0479	-7.8007	0.5758	0.3750	0.4321	-0.5841
7.29	-8.9070	-0.7257	3.3205	-0.0167	-0.0220	-0.0433	23.4889	27.9239	-7.4859	0.5758	0.3750	0.4320	-0.5841
7.3	-8.8937	-0.7197	3.3263	-0.0146	-0.0172	-0.0478	23.3983	28.0525	-7.5427	0.5759	0.3750	0.4320	-0.5842
7.31	-8.8894	-0.7219	3.3286	-0.0151	-0.0172	-0.0399	23.3965	28.1242	-7.7731	0.5759	0.3750	0.4319	-0.5841
7.32	-8.8859	-0.7277	3.3292	-0.0139	-0.0142	-0.0442	23.4504	28.1207	-7.6008	0.5759	0.3750	0.4319	-0.5841
7.33	-8.8830	-0.7322	3.3295	-0.0167	-0.0084	-0.0479	23.6169	28.0202	-7.6989	0.5758	0.3750	0.4319	-0.5841
7.34	-8.8844	-0.7365	3.3350	-0.0158	-0.0096	-0.0457	23.4273	28.0303	-7.7140	0.5759	0.3750	0.4319	-0.5841
7.35	-8.9001	-0.7435	3.3264	-0.0204	-0.0101	-0.0484	23.4321	27.9908	-7.4991	0.5759	0.3750	0.4319	-0.5841
7.36	-8.9103	-0.7419	3.3304	-0.0129	-0.0056	-0.0473	23.5862	27.8861	-7.6084	0.5759	0.3750	0.4319	-0.5841
7.37	-8.9224	-0.7406	3.3212	-0.0213	-0.0059	-0.0448	23.5912	28.0895	-7.5975	0.5759	0.3750	0.4319	-0.5841
7.38	-8.9307	-0.7438	3.3242	-0.0264	0.0002	-0.0473	23.5536	27.9270	-7.5120	0.5759	0.3750	0.4320	-0.5840
7.39	-8.9464	-0.7459	3.3222	-0.0155	-0.0001	-0.0495	23.4491	27.8604	-7.6990	0.5759	0.3751	0.4320	-0.5840
7.4	-8.9537	-0.7559	3.3171	-0.0208	-0.0039	-0.0470	23.6063	28.0654	-7.7155	0.5759	0.3750	0.4320	-0.5839
7.41	-8.9599	-0.7664	3.3125	-0.0136	-0.0054	-0.0452	23.4507	27.8869	-7.6685	0.5759	0.3751	0.4321	-0.5840
7.42	-8.9496	-0.7743	3.3079	-0.0150	-0.0153	-0.0427	23.5505	27.9982	-7.6145	0.5759	0.3751	0.4320	-0.5839
7.43	-8.9470	-0.7879	3.3129	-0.0175	-0.0132	-0.0466	23.6035	28.0467	-7.8211	0.5760	0.3751	0.4320	-0.5839
7.44	-8.9421	-0.7929	3.3069	-0.0171	-0.0148	-0.0416	23.4856	27.9136	-7.6924	0.5760	0.3751	0.4320	-0.5839
7.45	-8.9299	-0.7845	3.3047	-0.0108	-0.0170	-0.0483	23.3484	28.0825	-7.5593	0.5760	0.3751	0.4319	-0.5839
7.46	-8.9413	-0.7757	3.3081	-0.0118	-0.0031	-0.0404	23.3451	28.1214	-7.5114	0.5760	0.3751	0.4319	-0.5839
7.47	-8.9423	-0.7645	3.3109	-0.0056	-0.0007	-0.0444	23.8869	28.1122	-7.5154	0.5759	0.3751	0.4319	-0.5839
7.48	-8.9359	-0.7537	3.3169	-0.0137	-0.0158	-0.0483	23.9341	28.1158	-7.5326	0.5760	0.3752	0.4319	-0.5840
7.49	-8.9457	-0.7442	3.3234	-0.0006	-0.0156	-0.0482	23.5683	28.1064	-7.4211	0.5760	0.3752	0.4318	-0.5840
7.5	-8.9530	-0.7302	3.3244	-0.0024	-0.0159	-0.0445	23.3505	28.1164	-7.2549	0.5760	0.3752	0.4318	-0.5840
7.51	-8.9474	-0.7164	3.3271	-0.0041	-0.0173	-0.0457	23.3088	27.9712	-7.5175	0.5759	0.3752	0.4317	-0.5840
7.52	-8.9532	-0.7044	3.3272	-0.0050	-0.0164	-0.0461	23.4080	28.1333	-7.7303	0.5760	0.3752	0.4317	-0.5841
7.53	-8.9415	-0.7044	3.3335	-0.0074	-0.0232	-0.0404	23.2280	28.3110	-7.5946	0.5760	0.3752	0.4316	-0.5841
7.54	-8.9302	-0.6997	3.3309	-0.0063	-0.0178	-0.0430	23.4869	28.0770	-7.6395	0.5760	0.3752	0.4315	-0.5841
7.55	-8.9148	-0.6917	3.3350	-0.0027	-0.0247	-0.0411	23.5715	27.8661	-7.8048	0.5761	0.3753	0.4315	-0.5842
7.56	-8.9172	-0.6844	3.3432	-0.0011	-0.0198	-0.0438	23.4425	27.7633	-7.7005	0.5761	0.3753	0.4313	-0.5842
7.57	-8.9236	-0.6782	3.3441	-0.0136	-0.0146	-0.0414	23.5090	27.6749	-7.6510	0.5761	0.3753	0.4313	-0.5842
7.58	-8.9179	-0.6751	3.3471	-0.0105	-0.0294	-0.0396	23.3679	27.9093	-7.6785	0.5761	0.3752	0.4312	-0.5841
7.59	-8.9191	-0.6809	3.3473	-0.0154	-0.0239	-0.0445	23.4097	27.8842	-7.5450	0.5762	0.3753	0.4312	-0.5842
7.6	-8.9208	-0.6797	3.3511	-0.0133	-0.0165	-0.0428	23.6840	27.9275	-7.4307	0.5762	0.3752	0.4311	-0.5842
7.61	-8.9141	-0.6819	3.3551	-0.0164	-0.0148	-0.0450	23.2800	28.0531	-7.6551	0.5763	0.3752	0.4311	-0.5842
7.62	-8.9135	-0.6795	3.3575	-0.0065	-0.0194	-0.0452	23.3248	27.6200	-7.7740	0.5763	0.3752	0.4310	-0.5842
7.63	-8.8970	-0.6780	3.3524	-0.0105	-0.0116	-0.0532	23.4965	27.8481	-7.7546	0.5763	0.3752	0.4310	-0.5843
7.64	-8.8947	-0.6851	3.3602	-0.0171	-0.0173	-0.0590	23.3189	28.0288	-7.7599	0.5763	0.3752	0.4310	-0.5843
7.65	-8.8976	-0.6856	3.3660	-0.0192	-0.0150	-0.0514	23.5850	27.9586	-7.7816	0.5762	0.3751	0.4310	-0.5843
7.66	-8.9033	-0.6854	3.3638	-0.0185	-0.0125	-0.0643	23.5729	27.9875	-7.6138	0.5763	0.3751	0.4310	-0.5844
7.67	-8.9034	-0.6833	3.3619	-0.0236	-0.0107	-0.0628	23.5359	27.8418	-7.6010	0.5762	0.3750	0.4311	-0.5844
7.68	-8.8993	-0.6855	3.3654	-0.0238	-0.0085	-0.0611	23.3976	27.9884	-7.7505	0.5762	0.3750	0.4311	-0.5844
7.69	-8.9068	-0.6993	3.3621	-0.0292	-0.0016	-0.0574	23.2798	27.9694	-7.8907	0.5762	0.3750	0.4312	-0.5844
7.7	-8.9104	-0.7075	3.3567	-0.0359	0.0019	-0.0556	23.4570	28.1161	-7.6646	0.5762	0.3749	0.4313	-0.5843
7.71	-8.9133	-0.7271	3.3508	-0.0385	0.0006	-0.0539	23.4507	27.9890	-7.5692	0.5762	0.3749	0.4314	-0.5843
7.72	-8.9180	-0.7470	3.3386	-0.0372	-0.0040	-0.0491	23.2738	27.9985	-7.4890	0.5762	0.3748	0.4314	-0.5842
7.73	-8.9133	-0.7584	3.3389	-0.0413	-0.0055	-0.0525	23.3184	27.7475	-7.5992	0.5763	0.3748	0.4316	-0.5842
7.74	-8.8982	-0.7757	3.3366	-0.0377	-0.0060	-0.0470	23.4183	27.7448	-7.6782	0.5763	0.3747	0.4316	-0.5841
7.75	-8.9095	-0.7853	3.3318	-0.0350	-0.0021	-0.0498	23.3533	27.8397	-7.7096	0.5763	0.3747	0.4317	-0.5841
7.76	-8.9353	-0.7922	3.3299	-0.0351	-0.0007	-0.0468	23.5140	27.7718	-7.8876	0.5763	0.3746	0.4317	-0.5840
7.77	-8.9413	-0.8052	3.3318	-0.0299	-0.0084	-0.0522	23.4207	27.9603	-7.8147	0.5763	0.3746	0.4318	-0.5840
7.78	-8.9303	-0.8082	3.3357	-0.0204	-0.0112	-0.0546	23.2435	27.9654	-7.5482	0.5763	0.3746	0.4318	-0.5840
7.79	-8.9368	-0.7888	3.3286	-0.0187	-0.0070	-0.0473	23.4009	28.0657	-7.6727	0.5763	0.3745	0.4318	-0.5840
7.8	-8.9587	-0.7706	3.3305	-0.0140	-0.0041	-0.0491	23.3901	28.0661	-7.7696	0.5764	0.3746	0.4319	-0.5840
7.81	-8.9538	-0.7722	3.3324	-0.0149	-0.0035	-0.0489	23.5312	28.0864	-7.6406	0.5763	0.3746	0.4319	-0.5840
7.82	-8.9180	-0.7781	3.3350	-0.0133	-0.0115	-0.0522	23.6137	28.0055	-7.6905	0.5763	0.3746	0.4319	-0.5840
7.83	-8.9167	-0.7901	3.3425	-0.0148	-0.0058	-0.0558	23.3736	27.9610	-7.6463	0.5762	0.3746	0.4318	-0.5840
7.84	-8.9498	-0.7894	3.3535	-0.0139	-0.0084	-0.0478	23.1754	28.1035	-7.8229	0.5763	0.3746	0.4319	-0.5840
7.85	-8.9562	-0.7856	3.3592	-0.0127	-0.0154	-0.0491	23.2290	28.0303	-7.6811	0.5763	0.3746	0.4318	-0.5840
7.86	-8.9188	-0.7837	3.3585	-0.0173	-0.0189	-0.0397	23.2016	28.1672	-7.6923	0.5763	0.3746	0.4318	-0.5840
7.87	-8.8838	-0.8027	3.3461	-0.0156	-0.0212	-0.0379	23.2144	28.0509	-7.6367	0.5764	0.3746	0.4318	-0.5840
7.88	-8.8552	-0.8172	3.3389	-0.0118	-0.0191	-0.0385	23.4800	28.0887	-7.6176	0.5764	0.3746	0.4317	-0.5840
7.89	-8.8509	-0.7939	3.3479	-0.0063	-0.0130	-0.0351	23.2212	28.0075	-7.6650	0.5765	0.3746	0.4316	-0.5840
7.9	-8.8659	-0.7568	3.3479	-0.0004	-0.0095	-0.0364	23.2821	27.9560	-7.7797	0.5764	0.3746	0.4315	-0.5840
7.91	-8.8926	-0.7088	3.3483	0.0063	0.0059	-0.0350	23.4180	28.0030	-7.8232	0.5765	0.3748	0.4315	-0.5840
7.92	-8.9083	-0.6862	3.3355	0.0072	-0.0022	-0.0366	23.5414	27.9396	-7.8155	0.5764	0.3749	0.4314	-0.5840
7.93	-8.9218	-0.6774	3.3263	0.0010	0.0047	-0.0393	23.5733	27.8152	-7.7479	0.5764	0.3750	0.4314	-0.5840
7.94	-8.9250	-0.6721	3.3165	-0.0046	0.0087	-0.0476	23.5765	27.7828	-7.4194	0.5763	0.3751	0.4314	-0.5839
7.95	-8.9214	-0.6616	3.3097	0.0019	0.0015	-0.0487	23.4097	27.9791	-7.7814	0.5763	0.3752	0.4314	-0.5840
7.96	-8.9298	-0.6457	3.3058	0.0049	0.0016	-0.0545	23.6510	28.1103	-7.7257	0.5762	0.3753	0.4314	-0.5840
7.97	-8.9470	-0.6437	3.3055	-0.0127	0.0011	-0.0623	23.8867	27.9846	-7.4840	0.5761	0.3753	0.4314	-0.5840
7.98	-8.9619	-0.6425	3.3044	-0.0134	0.0047	-0.0552	23.6972	27.9647	-7.3717	0.5761	0.3753	0.4315	-0.5841
7.99	-8.9610	-0.6512	3.2983	-0.0219	0.0013	-0.0573	23.6980	28.1826	-7.5548	0.5760	0.3753	0.4315	-0.5840
8	-8.9623	-0.6682	3.2987	-0.0342	-0.0034	-0.0549	23.5505	27.9197	-7.4790	0.5761	0.3753	0.4316	-0.5841
8.01	-8.9542	-0.6825	3.2914	-0.0376	-0.0062	-0.0446	23.3986	28.0735	-7.6202	0.5761	0.3752	0.4316	-0.5839
8.02	-8.9595	-0.7057	3.2929	-0.0395	-0.0078	-0.0541	23.3862	28.0262	-7.4286	0.5761	0.3752	0.4317	-0.5839
8.03	-8.9738	-0.7325	3.2920	-0.0407	-0.0073	-0.0486	23.4460	27.7989	-7.4268	0.5762	0.3751	0.4318	-0.5839
8.04	-8.9655	-0.7465	3.2962	-0.0412	-0.0089	-0.0417	23.5194	28.0630	-7.6022	0.5762	0.3750	0.4318	-0.5838
8.05	-8.9618	-0.7660	3.2857	-0.0438	-0.0154	-0.0436	23.2645	27.9831	-7.5884	0.5764	0.3750	0.4319	-0.5838
8.06	-8.9543	-0.7832	3.2956	-0.0403	-0.0168	-0.0430	23.3381	28.0365	-7.4303	0.5764	0.3749	0.4319	-0.5837
8.07	-8.9585	-0.7907	3.2834	-0.0414	-0.0081	-0.0445	23.2412	28.2111	-7.6594	0.5765	0.3748	0.4320	-0.5836
8.08	-8.9065	-0.7732	3.2799	-0.0355	-0.0168	-0.0442	23.1838	27.9976	-7.7012	0.5765	0.3747	0.4320	-0.5835
8.09	-8.9460	-0.7604	3.3042	-0.0353	-0.0037	-0.0441	23.4882	28.0237	-7.4372	0.5766	0.3747	0.4321	-0.5835
8.1	-9.0412	-0.7598	3.2773	-0.0265	-0.0111	-0.0407	23.2603	28.1456	-7.5418	0.5766	0.3747	0.4321	-0.5834
8.11	-8.9158	-0.7388	3.3143	-0.0261	-0.0246	-0.0457	23.5443	28.0052	-7.3994	0.5767	0.3746	0.4321	-0.5834
8.12	-8.9362	-0.7758	3.2882	-0.0216	-0.0007	-0.0469	23.6875	28.0213	-7.3963	0.5767	0.3746	0.4321	-0.5834
8.13	-8.9847	-0.8014	3.2848	-0.0197	-0.0195	-0.0477	23.4109	27.9985	-7.5517	0.5767	0.3746	0.4321	-0.5834
8.14	-8.9240	-0.7813	3.3043	-0.0177	-0.0212	-0.0419	23.7596	27.8365	-7.6256	0.5768	0.3745	0.4321	-0.5835
8.15	-8.9003	-0.7515	3.3221	-0.0128	-0.0177	-0.0356	23.3468	27.8324	-7.8067	0.5768	0.3745	0.4320	-0.5834
8.16	-8.9331	-0.7098	3.3271	-0.0126	-0.0164	-0.0362	23.3400	27.9323	-7.7148	0.5769	0.3746	0.4320	-0.5834
8.17	-8.9481	-0.6990	3.3367	-0.0164	-0.0160	-0.0394	23.5368	28.0976	-7.5575	0.5769	0.3746	0.4319	-0.5834
8.18	-8.9316	-0.7037	3.3401	-0.0138	-0.0232	-0.0445	23.4220	28.0395	-7.5815	0.5770	0.3745	0.4319	-0.5834
8.19	-8.9142	-0.7024	3.3381	-0.0142	-0.0153	-0.0399	23.2561	27.9070	-7.7077	0.5770	0.3745	0.4318	-0.5834
8.2	-8.9328	-0.6964	3.3307	-0.0131	-0.0169	-0.0475	23.3968	27.9165	-7.4851	0.5770	0.3745	0.4318	-0.5834
8.21	-8.9229	-0.6928	3.3383	-0.0138	-0.0171	-0.0506	23.4702	27.9754	-7.4099	0.5770	0.3745	0.4317	-0.5835
8.22	-8.9163	-0.6805	3.3389	-0.0135	-0.0117	-0.0528	23.2877	28.0483	-7.6158	0.5770	0.3745	0.4317	-0.5834
8.23	-8.9217	-0.6873	3.3423	-0.0142	-0.0125	-0.0503	23.3899	27.7683	-7.6779	0.5771	0.3745	0.4317	-0.5835
8.24	-8.9199	-0.7040	3.3340	-0.0157	-0.0143	-0.0511	23.3156	28.0698	-7.5152	0.5770	0.3745	0.4317	-0.5835
8.25	-8.9163	-0.7218	3.3303	-0.0143	-0.0164	-0.0544	23.4447	28.0618	-7.5044	0.5771	0.3745	0.4317	-0.5836
8.26	-8.9081	-0.7328	3.3319	-0.0144	-0.0121	-0.0519	23.2853	27.8853	-7.3888	0.5770	0.3744	0.4316	-0.5835
8.27	-8.9151	-0.7393	3.3336	-0.0177	-0.0215	-0.0511	23.3039	28.1919	-7.4294	0.5770	0.3744	0.4316	-0.5836
8.28	-8.9262	-0.7435	3.3435	-0.0175	-0.0227	-0.0413	23.1643	28.1435	-7.7313	0.5771	0.3743	0.4316	-0.5836
8.29	-8.9284	-0.7459	3.3420	-0.0128	-0.0176	-0.0481	23.3278	28.0002	-7.5638	0.5771	0.3743	0.4315	-0.5836
8.3	-8.9489	-0.7583	3.3493	-0.0126	-0.0131	-0.0461	23.2827	28.0168	-7.6208	0.5772	0.3743	0.4315	-0.5837
8.31	-8.9569	-0.7603	3.3451	-0.0030	-0.0127	-0.0456	23.4978	28.0002	-7.6625	0.5771	0.3743	0.4315	-0.5836
8.32	-8.9317	-0.7458	3.3472	-0.0038	-0.0198	-0.0450	23.3921	27.8148	-7.5375	0.5772	0.3744	0.4314	-0.5837
8.33	-8.9378	-0.7363	3.3397	-0.0062	-0.0188	-0.0472	23.4977	27.9327	-7.6909	0.5771	0.3743	0.4313	-0.5837
8.34	-8.9191	-0.7168	3.3394	0.0043	-0.0147	-0.0451	23.4490	28.0186	-7.7982	0.5772	0.3744	0.4312	-0.5838
8.35	-8.9143	-0.7042	3.3396	0.0018	-0.0204	-0.0478	23.4063	27.8506	-7.7156	0.5771	0.3744	0.4311	-0.5838
8.36	-8.9232	-0.6894	3.3365	-0.0009	-0.0123	-0.0448	23.2892	27.8011	-7.6484	0.5771	0.3744	0.4311	-0.5838
8.37	-8.9169	-0.6742	3.3389	-0.0083	-0.0107	-0.0478	23.4385	28.0545	-7.7076	0.5771	0.3745	0.4311	-0.5839
8.38	-8.9199	-0.6697	3.3370	-0.0136	-0.0171	-0.0438	23.5706	28.0978	-7.6411	0.5771	0.3745	0.4310	-0.5839
8.39	-8.9196	-0.6635	3.3373	-0.0100	-0.0135	-0.0449	23.2620	28.1237	-7.7806	0.5772	0.3745	0.4310	-0.5839
8.4	-8.9307	-0.6698	3.3281	-0.0152	-0.0198	-0.0396	23.3398	27.9823	-7.6811	0.5772	0.3744	0.4309	-0.5838
8.41	-8.9368	-0.6749	3.3223	-0.0142	-0.0131	-0.0404	23.1696	28.0582	-7.5772	0.5773	0.3745	0.4309	-0.5839
8.42	-8.9341	-0.6867	3.3352	-0.0224	-0.0160	-0.0438	23.2762	28.0426	-7.9116	0.5773	0.3744	0.4309	-0.5839
8.43	-8.9375	-0.6913	3.3361	-0.0162	-0.0186	-0.0382	23.3627	27.7904	-7.7238	0.5774	0.3744	0.4308	-0.5839
8.44	-8.9374	-0.7014	3.3367	-0.0245	-0.0164	-0.0448	23.5334	27.9410	-7.4365	0.5774	0.3744	0.4308	-0.5838
8.45	-8.9242	-0.7111	3.3307	-0.0234	-0.0195	-0.0398	23.2803	28.1800	-7.6915	0.5775	0.3744	0.4308	-0.5838
8.46	-8.9077	-0.7079	3.3382	-0.0138	-0.0200	-0.0451	23.2722	28.1357	-7.3813	0.5775	0.3743	0.4307	-0.5838
8.47	-8.9086	-0.7057	3.3464	-0.0155	-0.0213	-0.0428	23.6244	28.0831	-7.2649	0.5775	0.3743	0.4306	-0.5838
8.48	-8.9113	-0.7000	3.3456	-0.0154	-0.0256	-0.0448	23.5418	28.1147	-7.5515	0.5776	0.3743	0.4306	-0.5839
8.49	-8.8991	-0.6947	3.3443	-0.0155	-0.0226	-0.0487	23.6650	27.7747	-7.4851	0.5776	0.3742	0.4306	-0.5839
8.5	-8.9040	-0.6865	3.3494	-0.0173	-0.0117	-0.0418	23.4531	27.7617	-7.6504	0.5777	0.3743	0.4306	-0.5839
8.51	-8.9131	-0.6708	3.3473	-0.0146	-0.0158	-0.0491	23.2486	27.6227	-7.8675	0.5776	0.3742	0.4305	-0.5839
8.52	-8.9183	-0.6725	3.3501	-0.0177	-0.0090	-0.0465	23.5907	27.9517	-7.8444	0.5777	0.3742	0.4305	-0.5839
8.53	-8.9287	-0.6811	3.3536	-0.0148	-0.0191	-0.0499	23.2967	28.1347	-7.6741	0.5777	0.3742	0.4305	-0.5839
8.54	-8.9406	-0.6835	3.3355	-0.0188	-0.0100	-0.0504	23.3821	28.0221	-7.6787	0.5777	0.3741	0.4304	-0.5839
8.55	-8.9293	-0.6821	3.3350	-0.0203	-0.0153	-0.0494	23.4600	27.7575	-7.6390	0.5778	0.3741	0.4305	-0.5840
8.56	-8.9274	-0.6917	3.3366	-0.0171	-0.0133	-0.0445	23.2561	27.8010	-7.8689	0.5777	0.3741	0.4304	-0.5839
8.57	-8.9433	-0.6946	3.3285	-0.0234	-0.0143	-0.0458	23.2871	27.9593	-7.7142	0.5778	0.3741	0.4305	-0.5839
8.58	-8.9285	-0.6922	3.3280	-0.0368	-0.0133	-0.0509	23.4060	27.8767	-7.6389	0.5778	0.3740	0.4304	-0.5838
8.59	-8.9239	-0.6970	3.3276	-0.0299	-0.0099	-0.0473	23.3277	28.1558	-7.8006	0.5779	0.3739	0.4305	-0.5839
8.6	-8.9296	-0.6953	3.3343	-0.0301	-0.0191	-0.0477	23.2024	28.0252	-7.7455	0.5779	0.3739	0.4305	-0.5838
8.61	-8.9318	-0.7013	3.3377	-0.0285	-0.0148	-0.0513	23.3578	28.2189	-7.7828	0.5779	0.3738	0.4305	-0.5838
8.62	-8.9262	-0.7098	3.3375	-0.0252	-0.0181	-0.0549	23.1567	27.9410	-7.6574	0.5780	0.3737	0.4306	-0.5839
8.63	-8.9233	-0.7144	3.3466	-0.0210	-0.0137	-0.0601	23.1200	27.9440	-7.6676	0.5780	0.3737	0.4306	-0.5839
8.64	-8.9307	-0.7173	3.3466	-0.0210	-0.0128	-0.0560	23.3161	28.0020	-7.9208	0.5780	0.3736	0.4306	-0.5839
8.65	-8.9145	-0.7146	3.3514	-0.0173	-0.0214	-0.0478	23.1949	28.0790	-7.9765	0.5780	0.3736	0.4305	-0.5839
8.66	-8.9108	-0.7167	3.3542	-0.0143	-0.0199	-0.0492	23.2202	28.0820	-7.5958	0.5781	0.3736	0.4305	-0.5840
8.67	-8.9054	-0.7146	3.3545	-0.0161	-0.0203	-0.0494	23.5082	27.7894	-7.9017	0.5781	0.3735	0.4305	-0.5840
8.68	-8.9038	-0.7031	3.3551	-0.0135	-0.0109	-0.0511	23.6199	27.6245	-7.9638	0.5781	0.3735	0.4305	-0.5840
8.69	-8.9091	-0.6997	3.3520	-0.0140	-0.0038	-0.0476	23.3138	27.8439	-7.8299	0.5780	0.3735	0.4304	-0.5840
8.7	-8.9004	-0.7009	3.3565	-0.0218	-0.0081	-0.0494	23.4800	27.8060	-7.7349	0.5781	0.3735	0.4305	-0.5840
8.71	-8.9146	-0.6964	3.3584	-0.0199	0.0023	-0.0455	23.5388	27.8806	-7.7731	0.5781	0.3735	0.4305	-0.5840
8.72	-8.9120	-0.6952	3.3484	-0.0202	-0.0037	-0.0413	23.4357	27.9326	-7.7414	0.5780	0.3735	0.4305	-0.5839
8.73	-8.9323	-0.7104	3.3508	-0.0266	-0.0014	-0.0436	23.4988	27.8897	-7.7832	0.5781	0.3736	0.4306	-0.5839
8.74	-8.9464	-0.7171	3.3335	-0.0218	0.0008	-0.0431	23.2967	27.9530	-7.8684	0.5781	0.3736	0.4306	-0.5838
8.75	-8.9160	-0.7282	3.3336	-0.0165	-0.0110	-0.0423	23.3081	28.0349	-7.8523	0.5782	0.3736	0.4306	-0.5838
8.76	-8.9405	-0.7311	3.3403	-0.0153	-0.0051	-0.0444	23.2681	27.8775	-7.8536	0.5781	0.3736	0.4305	-0.5838
8.77	-8.9619	-0.7282	3.3407	-0.0178	0.0018	-0.0494	23.4605	28.0652	-7.6152	0.5781	0.3736	0.4306	-0.5838
8.78	-8.9281	-0.7281	3.3457	-0.0144	-0.0078	-0.0472	23.4210	28.0745	-7.7164	0.5781	0.3736	0.4306	-0.5838
8.79	-8.9132	-0.7258	3.3407	-0.0149	-0.0036	-0.0477	23.3808	28.1797	-7.5581	0.5781	0.3736	0.4305	-0.5837
8.8	-8.9166	-0.7205	3.3392	-0.0044	-0.0057	-0.0508	23.2788	28.0704	-7.7021	0.5781	0.3737	0.4306	-0.5838
8.81	-8.9005	-0.7090	3.3416	-0.0033	-0.0012	-0.0519	23.3272	28.1114	-7.7820	0.5780	0.3737	0.4305	-0.5838
8.82	-8.8921	-0.6975	3.3446	-0.0121	-0.0033	-0.0513	23.2012	28.0093	-7.7553	0.5780	0.3738	0.4306	-0.5838
8.83	-8.9068	-0.6939	3.3447	-0.0031	0.0049	-0.0496	23.3019	28.0065	-7.7591	0.5779	0.3738	0.4305	-0.5838
8.84	-8.9266	-0.6902	3.3475	-0.0101	-0.0059	-0.0458	23.3774	27.8562	-7.8850	0.5780	0.3739	0.4305	-0.5838
8.85	-8.9447	-0.6846	3.3494	-0.0080	-0.0034	-0.0492	23.2942	27.8478	-7.9614	0.5779	0.3739	0.4305	-0.5838
8.86	-8.9442	-0.6759	3.3528	-0.0086	-0.0029	-0.0497	23.7967	28.0021	-7.6299	0.5779	0.3739	0.4305	-0.5838
8.87	-8.9307	-0.6790	3.3459	-0.0076	-0.0027	-0.0456	23.6063	28.0296	-7.7104	0.5779	0.3740	0.4305	-0.5839
8.88	-8.9269	-0.6816	3.3450	-0.0125	-0.0009	-0.0493	23.4420	27.7959	-7.8549	0.5779	0.3740	0.4305	-0.5838
8.89	-8.9116	-0.6905	3.3507	-0.0138	-0.0084	-0.0474	23.4806	27.7669	-7.7013	0.5779	0.3741	0.4305	-0.5839
8.9	-8.9036	-0.6958	3.3423	-0.0136	-0.0062	-0.0455	23.4744	27.9187	-7.8738	0.5778	0.3740	0.4304	-0.5838
8.91	-8.8933	-0.6944	3.3423	-0.0141	-0.0025	-0.0439	23.4570	27.9371	-7.7352	0.5779	0.3741	0.4305	-0.5838
8.92	-8.8992	-0.6974	3.3379	-0.0141	0.0049	-0.0436	23.3693	27.9826	-7.7632	0.5778	0.3741	0.4305	-0.5838
8.93	-8.9192	-0.6931	3.3400	-0.0136	-0.0021	-0.0451	23.6252	27.8740	-7.8058	0.5778	0.3742	0.4305	-0.5838
8.94	-8.9456	-0.7000	3.3372	-0.0141	0.0008	-0.0426	23.3278	27.9379	-7.9922	0.5778	0.3742	0.4305	-0.5837
8.95	-8.9391	-0.7014	3.3343	-0.0151	0.0034	-0.0503	23.1952	27.8792	-7.7538	0.5778	0.3743	0.4305	-0.5837
8.96	-8.9211	-0.6947	3.3280	-0.0126	0.0034	-0.0520	23.3903	27.9700	-7.8377	0.5778	0.3743	0.4306	-0.5837
8.97	-8.9248	-0.6883	3.3257	-0.0133	0.0065	-0.0517	23.7512	28.0892	-7.7909	0.5777	0.3743	0.4306	-0.5836
8.98	-8.9425	-0.6752	3.3299	-0.0144	0.0020	-0.0550	23.9366	28.0068	-7.5251	0.5777	0.3744	0.4306	-0.5837
8.99	-8.9376	-0.6727	3.3359	-0.0158	0.0001	-0.0558	23.5699	28.0465	-7.6345	0.5776	0.3744	0.4306	-0.5837
9	-8.9087	-0.6832	3.3521	-0.0217	-0.0064	-0.0542	23.3569	27.9414	-7.4903	0.5777	0.3744	0.4307	-0.5837
9.01	-8.9321	-0.7071	3.3491	-0.0307	-0.0040	-0.0517	23.0132	27.9153	-7.6398	0.5776	0.3743	0.4307	-0.5836
9.02	-8.9604	-0.7193	3.3601	-0.0190	-0.0051	-0.0513	23.0854	27.9439	-7.6816	0.5776	0.3743	0.4308	-0.5837
9.03	-8.9486	-0.7226	3.3681	-0.0210	-0.0113	-0.0506	23.2006	28.0033	-7.5656	0.5776	0.3743	0.4308	-0.5837
9.04	-8.9117	-0.7395	3.3598	-0.0218	-0.0098	-0.0427	23.3040	27.7146	-7.6683	0.5776	0.3743	0.4307	-0.5836
9.05	-8.8918	-0.7674	3.3403	-0.0309	-0.0110	-0.0421	23.4381	27.8421	-7.9240	0.5778	0.3743	0.4308	-0.5836
9.06	-8.8767	-0.7824	3.3401	-0.0211	-0.0080	-0.0368	23.5113	27.6918	-7.9529	0.5778	0.3743	0.4308	-0.5835
9.07	-8.8982	-0.7733	3.3457	-0.0126	0.0016	-0.0384	23.4930	28.0402	-7.7912	0.5778	0.3743	0.4308	-0.5835
9.08	-8.9168	-0.7370	3.3508	-0.0142	-0.0041	-0.0336	23.4977	27.8008	-7.6876	0.5778	0.3743	0.4307	-0.5834
9.09	-8.9102	-0.6992	3.3432	-0.0015	0.0010	-0.0391	23.4991	27.8610	-7.8010	0.5778	0.3745	0.4307	-0.5835
9.1	-8.9135	-0.6826	3.3328	-0.0059	0.0053	-0.0398	23.4770	27.9027	-7.7728	0.5778	0.3745	0.4307	-0.5834
9.11	-8.9177	-0.6838	3.3229	-0.0119	0.0028	-0.0457	23.2868	27.7192	-7.7981	0.5777	0.3746	0.4307	-0.5834
9.12	-8.9200	-0.6792	3.3105	-0.0054	0.0007	-0.0466	23.3547	27.7377	-7.6643	0.5777	0.3747	0.4307	-0.5834
9.13	-8.9072	-0.6596	3.3090	0.0023	-0.0011	-0.0543	23.3823	27.8889	-7.7174	0.5777	0.3747	0.4307	-0.5834
9.14	-8.9201	-0.6446	3.3115	-0.0004	-0.0021	-0.0604	23.3004	27.9056	-7.6237	0.5776	0.3748	0.4307	-0.5835
9.15	-8.9431	-0.6342	3.3077	0.0017	0.0059	-0.0635	23.3244	28.0012	-7.5813	0.5774	0.3748	0.4306	-0.5835
9.16	-8.9429	-0.6293	3.3101	-0.0148	0.0038	-0.0594	23.2239	28.0968	-7.7343	0.5774	0.3749	0.4307	-0.5836
9.17	-8.9501	-0.6389	3.3156	-0.0165	0.0025	-0.0592	23.2106	28.1086	-7.6615	0.5774	0.3749	0.4308	-0.5836
9.18	-8.9671	-0.6560	3.3100	-0.0244	0.0050	-0.0550	23.3206	28.0009	-7.7876	0.5773	0.3749	0.4308	-0.5836
9.19	-8.9721	-0.6781	3.3117	-0.0374	-0.0070	-0.0510	23.3074	28.0187	-7.7812	0.5773	0.3748	0.4309	-0.5835
9.2	-8.9872	-0.7008	3.3148	-0.0335	-0.0040	-0.0536	23.1125	27.9472	-7.8051	0.5774	0.3748	0.4310	-0.5835
9.21	-8.9824	-0.7222	3.3122	-0.0402	-0.0089	-0.0515	23.3074	27.9422	-7.7243	0.5774	0.3747	0.4310	-0.5835
9.22	-8.9658	-0.7511	3.3172	-0.0329	-0.0091	-0.0436	23.0730	27.7214	-7.6711	0.5774	0.3746	0.4310	-0.5834
9.23	-8.9622	-0.7750	3.3093	-0.0385	-0.0100	-0.0430	23.5132	27.7744	-7.6992	0.5775	0.3746	0.4311	-0.5834
9.24	-8.9516	-0.7882	3.3047	-0.0411	-0.0176	-0.0419	23.5869	27.9447	-7.8439	0.5776	0.3745	0.4311	-0.5833
9.25	-8.9464	-0.7913	3.2839	-0.0359	-0.0144	-0.0441	23.6264	27.9393	-7.9031	0.5777	0.3745	0.4312	-0.5833
9.26	-8.8803	-0.7603	3.3126	-0.0243	-0.0186	-0.0450	23.3618	27.6931	-7.7593	0.5777	0.3744	0.4311	-0.5832
9.27	-8.9954	-0.7585	3.3213	-0.0146	-0.0005	-0.0468	23.4755	27.9333	-7.9215	0.5777	0.3745	0.4312	-0.5832
9.28	-8.9672	-0.7418	3.3193	-0.0162	-0.0261	-0.0483	23.4111	27.9374	-7.8066	0.5777	0.3744	0.4311	-0.5832
9.29	-8.8367	-0.7365	3.3405	-0.0161	-0.0269	-0.0479	23.2561	27.7007	-7.7743	0.5778	0.3743	0.4310	-0.5832
9.3	-8.9283	-0.7758	3.3163	-0.0136	-0.0122	-0.0490	23.4635	27.7437	-7.6861	0.5778	0.3744	0.4311	-0.5833
9.31	-8.9135	-0.7626	3.3291	-0.0135	-0.0246	-0.0475	23.3567	27.7728	-7.5313	0.5778	0.3743	0.4310	-0.5833
9.32	-8.8736	-0.7396	3.3387	-0.0117	-0.0219	-0.0435	23.5102	27.8482	-7.7531	0.5779	0.3743	0.4309	-0.5834
9.33	-8.8993	-0.7109	3.3428	-0.0081	-0.0045	-0.0356	23.4097	27.8119	-7.8059	0.5778	0.3743	0.4308	-0.5833
9.34	-8.9304	-0.6719	3.3417	-0.0154	-0.0104	-0.0373	23.1781	28.0443	-7.6499	0.5779	0.3744	0.4308	-0.5833
9.35	-8.9442	-0.6739	3.3497	-0.0148	0.0002	-0.0406	23.2863	27.9838	-7.5727	0.5779	0.3744	0.4308	-0.5832
9.36	-8.9426	-0.6796	3.3403	-0.0145	-0.0041	-0.0363	23.4019	28.0162	-7.6902	0.5779	0.3745	0.4308	-0.5832
9.37	-8.9390	-0.6737	3.3439	-0.0111	-0.0126	-0.0362	23.4254	27.9037	-7.6961	0.5780	0.3745	0.4308	-0.5832
9.38	-8.9486	-0.6714	3.3430	-0.0154	-0.0060	-0.0356	23.2441	28.0372	-7.6938	0.5780	0.3746	0.4307	-0.5831
9.39	-8.9263	-0.6665	3.3405	-0.0109	-0.0126	-0.0400	23.2698	27.9675	-7.6953	0.5781	0.3746	0.4307	-0.5832
9.4	-8.9223	-0.6710	3.3349	-0.0105	-0.0113	-0.0438	23.4313	28.1057	-7.6914	0.5780	0.3746	0.4306	-0.5831
9.41	-8.9172	-0.6794	3.3309	-0.0166	-0.0133	-0.0421	23.3953	28.0729	-7.8093	0.5781	0.3746	0.4306	-0.5832
9.42	-8.9152	-0.6884	3.3278	-0.0004	-0.0107	-0.0405	23.4244	27.8001	-7.7689	0.5781	0.3747	0.4305	-0.5831
9.43	-8.9103	-0.6946	3.3232	-0.0091	-0.0108	-0.0430	23.3783	27.9136	-7.8038	0.5781	0.3747	0.4305	-0.5832
9.44	-8.9128	-0.6905	3.3269	-0.0152	-0.0067	-0.0463	23.5403	27.8339	-7.6669	0.5781	0.3747	0.4305	-0.5831
9.45	-8.9436	-0.6917	3.3177	-0.0114	-0.0043	-0.0402	23.3002	27.6794	-7.8402	0.5781	0.3748	0.4305	-0.5831
9.46	-8.9463	-0.6872	3.3221	-0.0122	-0.0058	-0.0362	23.4590	27.8561	-7.6606	0.5781	0.3748	0.4305	-0.5831
9.47	-8.9557	-0.6763	3.3270	-0.0105	0.0003	-0.0358	23.8120	28.0307	-7.4870	0.5781	0.3749	0.4304	-0.5830
9.48	-8.9800	-0.6745	3.3242	-0.0144	-0.0102	-0.0365	23.7441	27.8923	-7.5102	0.5782	0.3749	0.4304	-0.5831
9.49	-8.9860	-0.6706	3.3270	-0.0139	-0.0112	-0.0338	23.6893	27.9716	-7.5327	0.5782	0.3749	0.4303	-0.5830
9.5	-8.9673	-0.6552	3.3292	-0.0147	-0.0195	-0.0328	23.4602	27.9446	-7.9718	0.5783	0.3750	0.4303	-0.5830
9.51	-8.9488	-0.6538	3.3324	-0.0143	-0.0186	-0.0379	23.3742	27.8129	-7.6898	0.5783	0.3749	0.4302	-0.5829
9.52	-8.9468	-0.6437	3.3343	-0.0154	-0.0162	-0.0330	23.3655	28.0899	-7.6879	0.5784	0.3750	0.4302	-0.5829
9.53	-8.9351	-0.6306	3.3324	-0.0149	-0.0182	-0.0374	23.2167	28.0235	-7.8961	0.5785	0.3750	0.4301	-0.5829
9.54	-8.9131	-0.6161	3.3404	-0.0153	-0.0177	-0.0396	23.4654	27.9971	-7.7272	0.5785	0.3750	0.4300	-0.5829
9.55	-8.9100	-0.6083	3.3451	-0.0136	-0.0140	-0.0394	23.4567	27.8891	-7.7214	0.5786	0.3750	0.4300	-0.5830
9.56	-8.9240	-0.6019	3.3531	-0.0205	-0.0150	-0.0472	23.4685	27.9571	-7.7857	0.5786	0.3750	0.4300	-0.5829
9.57	-8.9239	-0.5947	3.3541	-0.0288	-0.0160	-0.0453	23.4339	27.9814	-7.8043	0.5786	0.3749	0.4300	-0.5829
9.58	-8.9125	-0.5964	3.3566	-0.0200	-0.0207	-0.0470	23.5804	27.7587	-7.5903	0.5786	0.3749	0.4299	-0.5829
9.59	-8.9042	-0.6087	3.3601	-0.0278	-0.0240	-0.0425	23.2703	28.1215	-7.8097	0.5787	0.3748	0.4299	-0.5829
9.6	-8.8986	-0.6254	3.3631	-0.0273	-0.0249	-0.0452	23.2008	27.9463	-7.8232	0.5788	0.3748	0.4299	-0.5829
9.61	-8.8977	-0.6366	3.3704	-0.0350	-0.0165	-0.0471	23.3766	27.6710	-7.8404	0.5788	0.3747	0.4299	-0.5828
9.62	-8.8985	-0.6510	3.3729	-0.0398	-0.0076	-0.0479	23.4655	27.9614	-7.7960	0.5789	0.3746	0.4300	-0.5828
9.63	-8.9048	-0.6646	3.3723	-0.0404	-0.0189	-0.0513	23.5819	27.8703	-7.7570	0.5789	0.3745	0.4300	-0.5828
9.64	-8.9034	-0.6787	3.3747	-0.0404	-0.0135	-0.0474	23.5122	27.7824	-7.8449	0.5790	0.3744	0.4301	-0.5828
9.65	-8.9024	-0.6948	3.3638	-0.0399	-0.0071	-0.0540	23.6544	27.9384	-7.8265	0.5790	0.3743	0.4301	-0.5826
9.66	-8.8930	-0.7044	3.3635	-0.0322	-0.0108	-0.0586	23.6189	27.8694	-7.8049	0.5791	0.3743	0.4302	-0.5827
9.67	-8.8929	-0.7128	3.3634	-0.0357	-0.0095	-0.0529	23.5039	27.8505	-7.8888	0.5791	0.3742	0.4303	-0.5827
9.68	-8.9092	-0.7278	3.3630	-0.0268	-0.0031	-0.0589	23.3616	27.9360	-7.9076	0.5791	0.3742	0.4303	-0.5827
9.69	-8.9201	-0.7304	3.3545	-0.0189	-0.0038	-0.0589	23.3856	27.8886	-8.0495	0.5790	0.3742	0.4304	-0.5827
9.7	-8.9077	-0.7319	3.3581	-0.0216	-0.0136	-0.0627	23.3311	28.0453	-7.9359	0.5790	0.3741	0.4304	-0.5827
9.71	-8.9117	-0.7409	3.3520	-0.0221	-0.0084	-0.0616	23.2718	27.9232	-7.5994	0.5790	0.3741	0.4304	-0.5827
9.72	-8.9252	-0.7387	3.3394	-0.0130	0.0007	-0.0576	23.2678	27.8995	-7.7246	0.5789	0.3740	0.4304	-0.5827
9.73	-8.9473	-0.7406	3.3402	-0.0156	0.0002	-0.0596	23.3124	27.9148	-7.8829	0.5789	0.3741	0.4305	-0.5828
9.74	-8.9497	-0.7360	3.3351	-0.0096	0.0005	-0.0623	23.5020	28.0526	-7.8733	0.5788	0.3741	0.4305	-0.5828
9.75	-8.9496	-0.7275	3.3371	-0.0058	-0.0064	-0.0569	23.1745	27.8545	-7.5967	0.5788	0.3741	0.4306	-0.5829
9.76	-8.9576	-0.7204	3.3314	-0.0133	-0.0097	-0.0521	23.2770	27.7834	-7.7560	0.5787	0.3741	0.4305	-0.5828
9.77	-8.9409	-0.7075	3.3288	-0.0053	-0.0118	-0.0519	23.2987	27.9893	-7.7278	0.5787	0.3741	0.4305	-0.5829
9.78	-8.9470	-0.6939	3.3356	-0.0085	-0.0101	-0.0432	23.2399	28.1344	-7.7582	0.5788	0.3742	0.4304	-0.5829
9.79	-8.9538	-0.6773	3.3381	-0.0139	-0.0134	-0.0457	23.4495	27.9458	-8.0385	0.5787	0.3741	0.4304	-0.5829
9.8	-8.9399	-0.6624	3.3371	-0.0134	-0.0207	-0.0477	23.5595	27.5634	-7.8763	0.5788	0.3742	0.4304	-0.5830
9.81	-8.9250	-0.6643	3.3423	-0.0157	-0.0213	-0.0485	23.2780	27.7631	-7.6743	0.5788	0.3741	0.4303	-0.5830
9.82	-8.9382	-0.6600	3.3477	-0.0137	-0.0187	-0.0418	23.4979	28.0340	-7.8206	0.5789	0.3741	0.4303	-0.5830
9.83	-8.9402	-0.6640	3.3460	-0.0199	-0.0175	-0.0401	23.3414	27.9791	-7.8473	0.5789	0.3740	0.4302	-0.5829
9.84	-8.9152	-0.6652	3.3509	-0.0208	-0.0231	-0.0435	23.2967	27.8957	-7.7964	0.5790	0.3740	0.4302	-0.5830
9.85	-8.8986	-0.6739	3.3525	-0.0168	-0.0227	-0.0493	23.3828	27.9230	-7.8892	0.5790	0.3740	0.4301	-0.5830
9.86	-8.8950	-0.6841	3.3548	-0.0272	-0.0213	-0.0468	23.4209	27.8474	-7.6334	0.5790	0.3739	0.4301	-0.5830
9.87	-8.8969	-0.6917	3.3634	-0.0234	-0.0195	-0.0456	23.5828	27.7045	-7.5683	0.5791	0.3739	0.4301	-0.5830
9.88	-8.9023	-0.6944	3.3646	-0.0224	-0.0102	-0.0413	23.5117	27.7803	-7.8739	0.5791	0.3739	0.4301	-0.5829
9.89	-8.9084	-0.7034	3.3668	-0.0291	-0.0103	-0.0445	23.3956	28.0433	-7.6222	0.5792	0.3738	0.4301	-0.5829
9.9	-8.9028	-0.7109	3.3602	-0.0315	-0.0131	-0.0423	23.2744	27.8823	-7.6987	0.5792	0.3738	0.4301	-0.5828
9.91	-8.8946	-0.7079	3.3639	-0.0174	-0.0089	-0.0389	23.2736	27.8375	-8.0419	0.5793	0.3738	0.4301	-0.5829
9.92	-8.9060	-0.7117	3.3617	-0.0273	-0.0131	-0.0431	23.4606	27.9129	-8.0100	0.5793	0.3738	0.4301	-0.5828
9.93	-8.9019	-0.7095	3.3664	-0.0190	-0.0058	-0.0405	23.4046	27.9768	-7.6524	0.5794	0.3738	0.4301	-0.5828
9.94	-8.8961	-0.7062	3.3718	-0.0183	-0.0097	-0.0445	23.1700	28.0091	-7.9797	0.5794	0.3738	0.4301	-0.5827
9.95	-8.8946	-0.7011	3.3705	-0.0233	-0.0103	-0.0518	23.3084	27.8648	-7.7510	0.5794	0.3738	0.4301	-0.5827
9.96	-8.8938	-0.6971	3.3630	-0.0183	-0.0061	-0.0464	23.5023	27.9718	-7.5264	0.5794	0.3738	0.4302	-0.5827
9.97	-8.9107	-0.6956	3.3539	-0.0183	-0.0008	-0.0447	23.9547	28.0984	-7.6529	0.5794	0.3737	0.4301	-0.5827
9.98	-8.9247	-0.6908	3.3540	-0.0146	0.0005	-0.0368	23.8731	27.9855	-7.7221	0.5795	0.3739	0.4302	-0.5827
9.99	-8.9430	-0.6857	3.3620	-0.0145	-0.0048	-0.0425	23.5373	28.0156	-7.8154	0.5794	0.3739	0.4301	-0.5826
10	-8.9385	-0.6939	3.3505	-0.0153	-0.0134	-0.0431	23.3657	27.8362	-7.8919	0.5795	0.3739	0.4302	-0.5827
10.01	-8.9222	-0.6935	3.3507	-0.0160	-0.0156	-0.0470	23.4446	27.8490	-7.8835	0.5794	0.3738	0.4301	-0.5826
10.02	-8.9358	-0.6905	3.3400	-0.0115	-0.0158	-0.0473	23.5404	27.9228	-8.0042	0.5795	0.3738	0.4301	-0.5827
10.03	-8.9197	-0.6867	3.3326	-0.0120	-0.0067	-0.0476	23.3089	27.9240	-7.7891	0.5795	0.3739	0.4300	-0.5827
10.04	-8.9151	-0.6771	3.3416	-0.0150	-0.0055	-0.0453	23.1261	27.8283	-7.7985	0.5795	0.3739	0.4300	-0.5826
10.05	-8.9321	-0.6668	3.3353	-0.0076	-0.0094	-0.0434	23.2919	27.8226	-7.8901	0.5795	0.3739	0.4300	-0.5827
10.06	-8.9542	-0.6628	3.3472	-0.0132	-0.0065	-0.0421	23.4734	27.8183	-7.9017	0.5795	0.3739	0.4300	-0.5826
10.07	-8.9728	-0.6664	3.3441	-0.0175	-0.0071	-0.0460	23.3892	27.8709	-7.8303	0.5796	0.3740	0.4300	-0.5826
10.08	-8.9632	-0.6629	3.3520	-0.0167	-0.0153	-0.0500	23.5525	28.0292	-7.6923	0.5795	0.3739	0.4299	-0.5826
10.09	-8.9606	-0.6475	3.3454	-0.0200	-0.0109	-0.0443	23.2526	27.9723	-7.7092	0.5796	0.3739	0.4300	-0.5826
10.1	-8.9652	-0.6422	3.3416	-0.0173	-0.0208	-0.0503	23.2985	27.8853	-7.8935	0.5796	0.3739	0.4299	-0.5826
10.11	-8.9606	-0.6423	3.3436	-0.0190	-0.0179	-0.0501	23.3597	27.9414	-7.8190	0.5796	0.3738	0.4299	-0.5826
10.12	-8.9420	-0.6470	3.3418	-0.0271	-0.0182	-0.0541	23.3249	27.7880	-7.6889	0.5797	0.3738	0.4299	-0.5827
10.13	-8.9089	-0.6558	3.3510	-0.0234	-0.0228	-0.0544	23.3473	27.8826	-7.5569	0.5797	0.3737	0.4299	-0.5827
10.14	-8.9098	-0.6703	3.3677	-0.0289	-0.0246	-0.0469	23.3591	28.1163	-7.7583	0.5798	0.3736	0.4299	-0.5827
10.15	-8.9371	-0.6676	3.3919	-0.0367	-0.0259	-0.0466	23.5869	28.0033	-7.8292	0.5798	0.3735	0.4298	-0.5826
10.16	-8.9144	-0.6747	3.3908	-0.0338	-0.0311	-0.0458	23.3103	27.8827	-7.6614	0.5799	0.3734	0.4299	-0.5827
10.17	-8.8642	-0.6968	3.3810	-0.0409	-0.0276	-0.0407	23.5008	27.7880	-7.9107	0.5800	0.3733	0.4298	-0.5826
10.18	-8.8408	-0.7218	3.3798	-0.0375	-0.0272	-0.0376	23.5958	27.6404	-7.7899	0.5801	0.3732	0.4298	-0.5826
10.19	-8.8427	-0.7284	3.3815	-0.0240	-0.0194	-0.0365	23.2976	27.6634	-7.8005	0.5802	0.3732	0.4298	-0.5825
10.2	-8.8282	-0.7101	3.3838	-0.0163	-0.0177	-0.0384	23.3284	27.7379	-7.7632	0.5803	0.3732	0.4297	-0.5825
10.21	-8.8295	-0.6770	3.3904	-0.0122	-0.0042	-0.0356	23.4185	27.7887	-7.9033	0.5803	0.3732	0.4297	-0.5825
10.22	-8.8608	-0.6466	3.3813	-0.0112	0.0064	-0.0373	23.3306	27.8403	-8.0448	0.5802	0.3733	0.4297	-0.5824
10.23	-8.8843	-0.6334	3.3623	-0.0149	0.0019	-0.0384	23.4726	27.8152	-7.8004	0.5803	0.3734	0.4297	-0.5824
10.24	-8.8932	-0.6311	3.3612	-0.0144	-0.0010	-0.0446	23.6292	27.8338	-7.8608	0.5803	0.3734	0.4297	-0.5824
10.25	-8.9132	-0.6281	3.3567	-0.0147	-0.0009	-0.0465	23.4025	27.8222	-7.8360	0.5803	0.3735	0.4298	-0.5824
10.26	-8.9182	-0.6187	3.3414	-0.0148	0.0067	-0.0555	23.4324	27.8247	-7.6784	0.5802	0.3735	0.4297	-0.5823
10.27	-8.9293	-0.6123	3.3341	-0.0150	0.0087	-0.0619	23.5571	27.9432	-7.9548	0.5802	0.3735	0.4298	-0.5824
10.28	-8.9467	-0.6120	3.3278	-0.0167	0.0020	-0.0602	23.4244	27.8782	-8.0181	0.5801	0.3735	0.4299	-0.5824
10.29	-8.9541	-0.6124	3.3322	-0.0119	0.0049	-0.0596	23.2104	28.0087	-7.8183	0.5800	0.3735	0.4299	-0.5824
10.3	-8.9584	-0.6243	3.3242	-0.0253	-0.0007	-0.0621	23.2880	27.9898	-7.6774	0.5801	0.3735	0.4300	-0.5825
10.31	-8.9470	-0.6469	3.3213	-0.0309	-0.0053	-0.0617	23.3275	27.7526	-8.0167	0.5800	0.3734	0.4300	-0.5824
10.32	-8.9578	-0.6673	3.3264	-0.0372	-0.0047	-0.0482	23.1839	27.9240	-7.8886	0.5801	0.3734	0.4301	-0.5824
10.33	-8.9610	-0.6917	3.3235	-0.0405	-0.0141	-0.0450	23.4638	27.8888	-7.9089	0.5800	0.3733	0.4301	-0.5823
10.34	-8.9828	-0.7092	3.3201	-0.0408	-0.0068	-0.0475	23.5039	28.0631	-7.7308	0.5802	0.3733	0.4302	-0.5823
10.35	-8.9860	-0.7268	3.3167	-0.0259	-0.0034	-0.0486	23.4090	27.7115	-7.7479	0.5802	0.3733	0.4303	-0.5822
10.36	-8.9687	-0.7319	3.3231	-0.0278	-0.0151	-0.0455	23.7295	27.6360	-7.7992	0.5802	0.3732	0.4303	-0.5822
10.37	-8.9805	-0.7378	3.3112	-0.0303	-0.0200	-0.0461	23.4842	27.6377	-7.8049	0.5803	0.3732	0.4303	-0.5822
10.38	-8.9080	-0.7101	3.3173	-0.0142	-0.0253	-0.0457	23.4049	27.7034	-7.5982	0.5803	0.3731	0.4302	-0.5822
10.39	-8.9616	-0.7007	3.3404	-0.0180	-0.0041	-0.0560	23.6823	27.7120	-7.7527	0.5803	0.3731	0.4302	-0.5822
10.4	-9.0227	-0.6941	3.3253	-0.0132	-0.0165	-0.0612	23.6957	27.9417	-8.1492	0.5802	0.3730	0.4302	-0.5822
10.41	-8.8731	-0.6770	3.3561	-0.0165	-0.0277	-0.0550	23.7079	27.7486	-7.7829	0.5803	0.3730	0.4302	-0.5823
10.42	-8.9101	-0.7183	3.3278	-0.0223	-0.0102	-0.0526	23.4837	27.8433	-7.8479	0.5803	0.3730	0.4302	-0.5823
10.43	-8.9441	-0.7312	3.3273	-0.0189	-0.0195	-0.0556	23.4138	27.8677	-7.9077	0.5803	0.3729	0.4302	-0.5824
10.44	-8.9099	-0.7121	3.3439	-0.0144	-0.0198	-0.0422	23.3379	27.8140	-7.8697	0.5803	0.3729	0.4301	-0.5824
10.45	-8.9202	-0.7029	3.3440	-0.0155	-0.0158	-0.0437	23.4692	27.9150	-7.9121	0.5804	0.3729	0.4301	-0.5824
10.46	-8.9481	-0.6754	3.3459	-0.0154	-0.0053	-0.0472	23.5600	27.8098	-7.6014	0.5804	0.3729	0.4301	-0.5824
10.47	-8.9604	-0.6735	3.3493	-0.0159	-0.0112	-0.0415	23.7901	28.1317	-7.3819	0.5804	0.3729	0.4300	-0.5823
10.48	-8.9641	-0.6871	3.3470	-0.0141	-0.0207	-0.0410	23.7893	28.0750	-7.5762	0.5805	0.3729	0.4300	-0.5824
10.49	-8.9448	-0.6788	3.3508	-0.0144	-0.0197	-0.0487	23.7265	27.9033	-7.7745	0.5805	0.3729	0.4299	-0.5824
10.5	-8.9177	-0.6741	3.3546	-0.0114	-0.0222	-0.0430	23.5111	27.9852	-7.8110	0.5806	0.3729	0.4299	-0.5824
10.51	-8.9016	-0.6623	3.3441	-0.0145	-0.0213	-0.0456	23.3293	28.1256	-7.8272	0.5805	0.3728	0.4298	-0.5824
10.52	-8.8872	-0.6526	3.3469	-0.0125	-0.0147	-0.0505	23.3696	27.8204	-7.8383	0.5806	0.3728	0.4298	-0.5824
10.53	-8.8683	-0.6494	3.3533	-0.0138	-0.0214	-0.0446	23.5094	27.8338	-7.9781	0.5806	0.3728	0.4297	-0.5825
10.54	-8.8587	-0.6431	3.3625	-0.0115	-0.0224	-0.0470	23.5295	27.7257	-8.0541	0.5806	0.3728	0.4296	-0.5824
10.55	-8.8754	-0.6437	3.3585	-0.0129	-0.0166	-0.0491	23.5245	27.8299	-7.6364	0.5807	0.3728	0.4297	-0.5826
10.56	-8.8675	-0.6523	3.3604	-0.0151	-0.0124	-0.0481	23.5155	27.6717	-7.8463	0.5806	0.3728	0.4296	-0.5825
10.57	-8.8688	-0.6418	3.3627	-0.0168	-0.0124	-0.0451	23.3202	27.6158	-7.8819	0.5807	0.3728	0.4296	-0.5825
10.58	-8.8841	-0.6538	3.3586	-0.0165	-0.0143	-0.0423	23.4456	27.7385	-7.6879	0.5807	0.3727	0.4295	-0.5825
10.59	-8.9028	-0.6700	3.3467	-0.0249	-0.0020	-0.0451	23.5313	27.7254	-7.9793	0.5807	0.3728	0.4296	-0.5825
10.6	-8.9085	-0.6630	3.3504	-0.0304	-0.0094	-0.0394	23.5399	27.7347	-7.6536	0.5808	0.3728	0.4296	-0.5824
10.61	-8.9134	-0.6749	3.3493	-0.0362	-0.0073	-0.0356	23.4400	27.7193	-7.6752	0.5808	0.3727	0.4296	-0.5823
10.62	-8.9340	-0.6849	3.3403	-0.0237	-0.0091	-0.0368	23.4376	27.8242	-7.8791	0.5809	0.3727	0.4296	-0.5823
10.63	-8.9433	-0.6728	3.3340	-0.0329	-0.0092	-0.0416	23.4247	28.0813	-8.0209	0.5809	0.3727	0.4296	-0.5822
10.64	-8.9465	-0.6657	3.3331	-0.0282	-0.0084	-0.0448	23.7082	27.8243	-7.8107	0.5810	0.3727	0.4297	-0.5822
10.65	-8.9612	-0.6635	3.3225	-0.0199	-0.0089	-0.0404	23.5543	27.8991	-7.8812	0.5810	0.3727	0.4296	-0.5821
10.66	-8.9482	-0.6672	3.3215	-0.0154	-0.0076	-0.0514	23.1686	27.8946	-8.0955	0.5810	0.3727	0.4297	-0.5822
10.67	-8.9548	-0.6570	3.3165	-0.0124	-0.0077	-0.0478	23.3578	28.1006	-7.6629	0.5810	0.3727	0.4296	-0.5822
10.68	-8.9616	-0.6377	3.3167	-0.0148	-0.0084	-0.0477	23.5603	27.9386	-7.5484	0.5810	0.3727	0.4296	-0.5822
10.69	-8.9701	-0.6292	3.3180	-0.0186	-0.0140	-0.0516	23.4023	27.8808	-7.8809	0.5810	0.3727	0.4296	-0.5822
10.7	-8.9692	-0.6217	3.3200	-0.0250	-0.0208	-0.0494	23.3613	28.1604	-7.6728	0.5811	0.3726	0.4296	-0.5822
10.71	-8.9635	-0.6153	3.3283	-0.0289	-0.0201	-0.0496	23.4792	27.7897	-7.8001	0.5811	0.3726	0.4296	-0.5822
10.72	-8.9607	-0.6194	3.3303	-0.0399	-0.0290	-0.0470	23.3314	27.9229	-7.9122	0.5812	0.3724	0.4296	-0.5821
10.73	-8.9619	-0.6358	3.3285	-0.0401	-0.0279	-0.0535	23.4480	27.8689	-7.9212	0.5813	0.3723	0.4296	-0.5822
10.74	-8.9546	-0.6433	3.3357	-0.0412	-0.0291	-0.0504	23.7481	27.6928	-7.7473	0.5814	0.3722	0.4296	-0.5821
10.75	-8.9331	-0.6576	3.3375	-0.0399	-0.0310	-0.0459	23.5401	27.7434	-7.9552	0.5815	0.3721	0.4297	-0.5822
10.76	-8.9218	-0.6756	3.3336	-0.0424	-0.0306	-0.0509	23.5278	27.7296	-7.6808	0.5815	0.3719	0.4296	-0.5821
10.77	-8.9019	-0.6797	3.3484	-0.0389	-0.0376	-0.0469	23.6053	27.8287	-7.7917	0.5817	0.3718	0.4296	-0.5821
10.78	-8.8852	-0.6916	3.3492	-0.0391	-0.0361	-0.0512	23.3204	27.8475	-7.9565	0.5818	0.3716	0.4296	-0.5821
10.79	-8.8858	-0.7056	3.3645	-0.0372	-0.0369	-0.0480	23.3598	27.9967	-7.8992	0.5818	0.3715	0.4296	-0.5821
10.8	-8.8989	-0.7129	3.3675	-0.0343	-0.0286	-0.0551	23.3397	28.0064	-7.9217	0.5820	0.3714	0.4296	-0.5822
10.81	-8.8969	-0.7176	3.3658	-0.0337	-0.0252	-0.0567	23.6392	27.8137	-7.9254	0.5820	0.3712	0.4296	-0.5822
10.82	-8.9058	-0.7278	3.3654	-0.0209	-0.0222	-0.0551	23.5365	27.8958	-7.8459	0.5820	0.3712	0.4296	-0.5822
10.83	-8.9246	-0.7224	3.3612	-0.0193	-0.0222	-0.0593	23.5275	27.8882	-7.8039	0.5820	0.3711	0.4295	-0.5822
10.84	-8.9249	-0.7150	3.3644	-0.0164	-0.0252	-0.0537	23.3979	27.9557	-7.9500	0.5821	0.3711	0.4295	-0.5823
10.85	-8.9333	-0.7154	3.3655	-0.0183	-0.0158	-0.0598	23.3305	28.0988	-7.7118	0.5820	0.3710	0.4295	-0.5823
10.86	-8.9611	-0.7177	3.3589	-0.0161	-0.0170	-0.0578	23.3565	27.8565	-7.8202	0.5820	0.3709	0.4295	-0.5824
10.87	-8.9443	-0.7060	3.3632	-0.0129	-0.0294	-0.0555	23.3377	28.0324	-7.8256	0.5821	0.3709	0.4295	-0.5825
10.88	-8.9318	-0.6995	3.3721	-0.0154	-0.0323	-0.0511	23.4918	27.8225	-7.6996	0.5821	0.3708	0.4294	-0.5825
10.89	-8.9361	-0.6917	3.3653	-0.0135	-0.0221	-0.0510	23.3335	27.8560	-7.9652	0.5821	0.3708	0.4293	-0.5826
10.9	-8.9306	-0.6849	3.3646	-0.0189	-0.0342	-0.0464	23.4496	28.0214	-7.7732	0.5821	0.3707	0.4292	-0.5825
10.91	-8.9326	-0.6732	3.3705	-0.0123	-0.0343	-0.0463	23.3040	27.8542	-8.0117	0.5823	0.3707	0.4292	-0.5826
10.92	-8.9406	-0.6579	3.3838	-0.0109	-0.0336	-0.0480	23.4309	27.8221	-8.0508	0.5823	0.3706	0.4291	-0.5827
10.93	-8.9506	-0.6546	3.3853	-0.0113	-0.0347	-0.0473	23.6359	28.0287	-7.7835	0.5824	0.3706	0.4290	-0.5827
10.94	-8.9203	-0.6545	3.3917	-0.0102	-0.0377	-0.0496	23.6143	27.8801	-7.8311	0.5824	0.3705	0.4288	-0.5828
10.95	-8.9164	-0.6534	3.3976	-0.0148	-0.0386	-0.0485	23.4682	27.6827	-8.0881	0.5824	0.3704	0.4288	-0.5828
10.96	-8.9039	-0.6586	3.3909	-0.0137	-0.0400	-0.0529	23.6683	27.7839	-7.8106	0.5825	0.3703	0.4287	-0.5829
10.97	-8.8860	-0.6647	3.4058	-0.0140	-0.0386	-0.0487	24.0349	27.9183	-7.6676	0.5825	0.3702	0.4285	-0.5829
10.98	-8.9040	-0.6726	3.4148	-0.0153	-0.0354	-0.0470	23.8165	27.9954	-7.7863	0.5827	0.3702	0.4285	-0.5831
10.99	-8.8969	-0.6782	3.4178	-0.0148	-0.0360	-0.0592	23.5552	28.0348	-7.9186	0.5827	0.3701	0.4284	-0.5831
11	-8.8948	-0.6805	3.4219	-0.0142	-0.0318	-0.0604	23.3964	27.7686	-7.8094	0.5827	0.3700	0.4284	-0.5832
11.01	-8.8968	-0.6734	3.4233	-0.0148	-0.0286	-0.0554	23.1698	27.7676	-7.7978	0.5827	0.3699	0.4283	-0.5832
11.02	-8.9074	-0.6702	3.4196	-0.0167	-0.0220	-0.0522	23.1862	27.8199	-7.9642	0.5827	0.3699	0.4283	-0.5833
11.03	-8.9055	-0.6517	3.4288	-0.0134	-0.0278	-0.0556	23.2146	27.9169	-7.9837	0.5827	0.3698	0.4282	-0.5834
11.04	-8.9083	-0.6377	3.4362	-0.0206	-0.0333	-0.0506	23.3810	28.1176	-8.0977	0.5828	0.3697	0.4281	-0.5834
11.05	-8.9162	-0.6314	3.4351	-0.0209	-0.0307	-0.0507	23.3570	28.0922	-7.9764	0.5829	0.3697	0.4281	-0.5835
11.06	-8.8873	-0.6352	3.4444	-0.0257	-0.0365	-0.0547	23.0912	28.0681	-8.0458	0.5829	0.3695	0.4280	-0.5835
11.07	-8.8930	-0.6536	3.4376	-0.0355	-0.0336	-0.0550	23.3689	27.9603	-8.0825	0.5830	0.3694	0.4281	-0.5835
11.08	-8.8720	-0.6781	3.4293	-0.0350	-0.0352	-0.0558	23.2712	28.1211	-7.7620	0.5830	0.3692	0.4280	-0.5835
11.09	-8.8635	-0.6874	3.4439	-0.0292	-0.0311	-0.0551	23.1754	28.0679	-7.8678	0.5831	0.3691	0.4280	-0.5836
11.1	-8.8807	-0.6894	3.4430	-0.0216	-0.0342	-0.0466	23.3393	27.9608	-7.8962	0.5832	0.3691	0.4279	-0.5836
11.11	-8.8742	-0.6980	3.4534	-0.0321	-0.0369	-0.0469	23.4537	27.8198	-7.9755	0.5833	0.3689	0.4279	-0.5836
11.12	-8.8711	-0.7012	3.4595	-0.0239	-0.0330	-0.0489	23.3483	27.8493	-8.0953	0.5834	0.3688	0.4278	-0.5836
11.13	-8.8488	-0.6948	3.4630	-0.0242	-0.0314	-0.0498	23.5171	27.6533	-8.0964	0.5834	0.3687	0.4278	-0.5837
11.14	-8.8436	-0.6810	3.4739	-0.0144	-0.0272	-0.0416	23.5092	27.7536	-8.0129	0.5835	0.3687	0.4277	-0.5837
11.15	-8.8535	-0.6526	3.4747	-0.0149	-0.0208	-0.0437	23.3306	27.9570	-7.9910	0.5835	0.3687	0.4276	-0.5836
11.16	-8.8660	-0.6428	3.4785	-0.0158	-0.0241	-0.0498	23.3896	27.8886	-7.9833	0.5836	0.3687	0.4276	-0.5837
11.17	-8.8492	-0.6562	3.4823	-0.0253	-0.0277	-0.0490	23.3090	27.6329	-8.0360	0.5836	0.3686	0.4276	-0.5837
11.18	-8.8263	-0.6816	3.4890	-0.0274	-0.0192	-0.0507	23.2493	27.7668	-8.1050	0.5837	0.3685	0.4276	-0.5838
11.19	-8.8606	-0.7015	3.4838	-0.0324	-0.0178	-0.0506	23.2964	28.0654	-8.0824	0.5837	0.3684	0.4276	-0.5837
11.2	-8.9075	-0.6987	3.4976	-0.0293	-0.0155	-0.0489	23.2413	27.9362	-8.0872	0.5837	0.3684	0.4276	-0.5837
11.21	-8.9139	-0.6872	3.5019	-0.0292	-0.0278	-0.0514	23.3478	27.9637	-7.8993	0.5838	0.3683	0.4276	-0.5837
11.22	-8.8670	-0.6870	3.5043	-0.0323	-0.0356	-0.0508	23.3668	28.0377	-7.9155	0.5838	0.3681	0.4275	-0.5837
11.23	-8.8312	-0.7170	3.5018	-0.0213	-0.0240	-0.0417	23.2721	27.8761	-7.8838	0.5840	0.3681	0.4275	-0.5838
11.24	-8.8142	-0.7488	3.4895	-0.0180	-0.0208	-0.0398	23.2368	27.9695	-8.1039	0.5840	0.3681	0.4275	-0.5837
11.25	-8.8028	-0.7608	3.4928	-0.0154	-0.0254	-0.0381	23.1548	28.0312	-7.9950	0.5841	0.3681	0.4274	-0.5838
11.26	-8.7724	-0.7285	3.5001	-0.0148	-0.0211	-0.0360	23.2833	27.9053	-8.1015	0.5841	0.3680	0.4273	-0.5837
11.27	-8.7824	-0.6925	3.4968	-0.0082	-0.0122	-0.0362	23.2805	27.7980	-8.1713	0.5842	0.3681	0.4273	-0.5837
11.28	-8.8110	-0.6719	3.4871	-0.0121	-0.0060	-0.0370	23.2278	27.8835	-8.0614	0.5842	0.3682	0.4272	-0.5837
11.29	-8.8340	-0.6660	3.4890	-0.0063	-0.0013	-0.0389	23.1382	27.9410	-8.0437	0.5842	0.3682	0.4272	-0.5836
11.3	-8.8510	-0.6550	3.4819	-0.0099	-0.0030	-0.0490	23.4217	27.8923	-7.8443	0.5842	0.3683	0.4272	-0.5837
11.31	-8.8529	-0.6469	3.4727	-0.0089	-0.0010	-0.0523	23.4474	27.8204	-7.9796	0.5841	0.3683	0.4272	-0.5837
11.32	-8.8826	-0.6328	3.4704	-0.0016	-0.0010	-0.0531	23.4698	27.6058	-8.1945	0.5841	0.3684	0.4272	-0.5837
11.33	-8.9071	-0.6173	3.4746	-0.0072	0.0066	-0.0617	23.3453	27.8699	-8.0849	0.5839	0.3684	0.4272	-0.5837
11.34	-8.9130	-0.6194	3.4745	-0.0096	-0.0035	-0.0632	23.3832	27.8699	-8.0747	0.5839	0.3684	0.4272	-0.5838
11.35	-8.9014	-0.6171	3.4718	-0.0144	-0.0103	-0.0575	23.3065	27.9097	-8.1147	0.5839	0.3684	0.4272	-0.5838
11.36	-8.8869	-0.6187	3.4656	-0.0125	-0.0050	-0.0584	23.2610	28.0443	-7.9967	0.5838	0.3684	0.4272	-0.5838
11.37	-8.8863	-0.6193	3.4608	-0.0168	-0.0063	-0.0568	23.2755	27.9944	-8.0070	0.5838	0.3684	0.4273	-0.5839
11.38	-8.8881	-0.6214	3.4654	-0.0187	-0.0083	-0.0581	23.2876	27.9829	-8.1036	0.5838	0.3684	0.4273	-0.5839
11.39	-8.8955	-0.6381	3.4662	-0.0379	-0.0051	-0.0513	23.4470	27.8923	-7.8771	0.5839	0.3683	0.4274	-0.5838
11.4	-8.9093	-0.6504	3.4689	-0.0406	-0.0061	-0.0594	23.4660	27.9235	-7.9974	0.5838	0.3682	0.4274	-0.5837
11.41	-8.9308	-0.6714	3.4662	-0.0407	-0.0083	-0.0602	23.3212	28.0300	-8.0040	0.5839	0.3682	0.4275	-0.5838
11.42	-8.9252	-0.6867	3.4630	-0.0397	-0.0076	-0.0584	23.2627	27.8037	-7.9834	0.5839	0.3681	0.4276	-0.5837
