time	acceleration_x	acceleration_y	acceleration_z	gyroscope_x	gyroscope_y	gyroscope_z	magnetometer_x	magnetometer_y	magnetometer_z	quaternion_w	quaternion_x	quaternion_y	quaternion_z
0	-9.6157	-0.3175	-1.3142	0.0041	-0.0123	0.0161	45.4102	-5.6545	3.1764	0.3917	-0.6196	0.4287	0.5281
0.01	-9.6034	-0.3154	-1.3039	0.0140	-0.0106	0.0157	45.2922	-6.0543	3.2269	0.3917	-0.6196	0.4287	0.5281
0.02	-9.6130	-0.3279	-1.3060	0.0154	-0.0084	0.0131	45.5563	-6.0143	3.1967	0.3917	-0.6196	0.4287	0.5281
0.03	-9.6091	-0.3269	-1.3106	0.0113	-0.0080	0.0175	45.5645	-5.8407	3.3588	0.3917	-0.6196	0.4287	0.5281
0.04	-9.6045	-0.3270	-1.3062	0.0123	-0.0122	0.0161	45.4783	-5.8576	3.1854	0.3917	-0.6196	0.4288	0.5281
0.05	-9.6059	-0.3297	-1.3110	0.0118	-0.0133	0.0077	45.5316	-5.9601	3.3757	0.3917	-0.6195	0.4287	0.5281
0.06	-9.6050	-0.3283	-1.3045	0.0171	-0.0087	0.0124	45.3744	-5.9283	3.4953	0.3918	-0.6196	0.4288	0.5281
0.07	-9.6111	-0.3305	-1.3053	0.0079	-0.0115	0.0119	45.2231	-5.7484	3.1565	0.3918	-0.6195	0.4288	0.5281
0.08	-9.6097	-0.3383	-1.3072	0.0110	-0.0100	0.0139	45.3412	-5.8096	3.3001	0.3918	-0.6196	0.4288	0.5281
0.09	-9.6043	-0.3554	-1.3080	0.0133	-0.0148	0.0128	45.3512	-5.7788	3.2810	0.3918	-0.6195	0.4288	0.5280
0.1	-9.6116	-0.3611	-1.3075	0.0130	-0.0127	0.0147	45.4390	-5.8957	3.0905	0.3918	-0.6195	0.4288	0.5281
0.11	-9.6124	-0.3312	-1.3069	0.0013	-0.0075	0.0124	45.0954	-5.6890	3.2938	0.3918	-0.6195	0.4288	0.5281
0.12	-9.6113	-0.3303	-1.3117	0.0135	-0.0084	0.0070	45.1694	-5.7949	3.2722	0.3918	-0.6195	0.4288	0.5280
0.13	-9.6098	-0.3228	-1.3095	0.0140	-0.0064	0.0140	45.2755	-5.7901	3.3983	0.3918	-0.6195	0.4289	0.5281
0.14	-9.6064	-0.3183	-1.3131	0.0123	-0.0073	0.0142	45.5260	-5.7930	3.5060	0.3918	-0.6195	0.4289	0.5280
0.15	-9.6080	-0.3267	-1.3152	0.0083	-0.0059	0.0127	45.6063	-5.7628	3.3921	0.3918	-0.6195	0.4289	0.5280
0.16	-9.6069	-0.3253	-1.3110	-0.0017	-0.0044	0.0067	45.5282	-5.8993	3.4087	0.3917	-0.6195	0.4288	0.5280
0.17	-9.6057	-0.3251	-1.3102	0.0049	-0.0085	0.0119	45.4277	-5.8842	3.4317	0.3918	-0.6195	0.4289	0.5280
0.18	-9.6059	-0.3289	-1.3076	0.0049	-0.0065	0.0123	45.2313	-5.5223	3.3706	0.3917	-0.6195	0.4289	0.5280
0.19	-9.6122	-0.3183	-1.2876	0.0050	-0.0075	0.0099	45.2762	-5.6491	3.3238	0.3917	-0.6196	0.4288	0.5280
0.2	-9.6073	-0.3142	-1.2934	0.0101	-0.0081	0.0165	45.2533	-6.0826	3.4950	0.3917	-0.6196	0.4289	0.5280
0.21	-9.6111	-0.3167	-1.2941	0.0145	-0.0111	0.0142	45.5033	-5.9927	3.3987	0.3917	-0.6195	0.4289	0.5280
0.22	-9.6109	-0.3119	-1.2859	0.0052	-0.0121	0.0112	45.4723	-6.0577	3.1736	0.3917	-0.6196	0.4289	0.5280
0.23	-9.6087	-0.3159	-1.3046	0.0072	-0.0075	0.0094	45.3063	-5.8487	3.2692	0.3917	-0.6195	0.4288	0.5280
0.24	-9.6044	-0.3150	-1.3048	0.0077	-0.0086	0.0126	45.4793	-5.9563	3.3034	0.3917	-0.6196	0.4289	0.5280
0.25	-9.6036	-0.3173	-1.3131	0.0013	-0.0051	0.0118	45.6169	-5.9132	3.2267	0.3916	-0.6196	0.4288	0.5280
0.26	-9.6107	-0.3165	-1.3128	0.0025	-0.0026	0.0123	45.3134	-5.7507	3.1777	0.3916	-0.6196	0.4289	0.5280
0.27	-9.6080	-0.3270	-1.3396	0.0013	-0.0067	0.0112	45.4564	-5.8769	3.1814	0.3916	-0.6196	0.4288	0.5280
0.28	-9.6043	-0.3291	-1.3246	0.0053	-0.0106	0.0104	45.3754	-6.0631	3.2271	0.3916	-0.6197	0.4288	0.5280
0.29	-9.6063	-0.3340	-1.3301	0.0044	-0.0093	0.0096	45.1964	-5.9875	3.2940	0.3916	-0.6197	0.4288	0.5280
0.3	-9.6080	-0.3259	-1.3345	0.0061	0.0009	0.0090	45.3903	-5.7769	3.2648	0.3915	-0.6197	0.4288	0.5279
0.31	-9.6048	-0.3293	-1.3185	0.0104	-0.0095	0.0062	45.0992	-5.6795	3.3611	0.3916	-0.6198	0.4288	0.5280
0.32	-9.6017	-0.3291	-1.3165	0.0092	-0.0120	0.0063	45.1669	-5.7181	3.3710	0.3916	-0.6197	0.4288	0.5280
0.33	-9.6100	-0.3258	-1.3184	0.0157	-0.0051	0.0052	45.3217	-5.8826	3.2890	0.3916	-0.6198	0.4288	0.5280
0.34	-9.6138	-0.3207	-1.3100	0.0131	-0.0054	0.0064	45.1394	-5.7598	3.2585	0.3916	-0.6197	0.4288	0.5279
0.35	-9.6033	-0.3210	-1.2951	0.0039	-0.0044	0.0103	45.2141	-5.7022	3.4976	0.3916	-0.6198	0.4288	0.5279
0.36	-9.6030	-0.3145	-1.2975	0.0086	-0.0036	0.0122	45.2745	-5.6396	3.4049	0.3916	-0.6198	0.4288	0.5279
0.37	-9.6076	-0.3111	-1.2901	0.0039	-0.0092	0.0101	45.1973	-5.6511	3.4844	0.3916	-0.6198	0.4288	0.5278
0.38	-9.6030	-0.3191	-1.2773	0.0076	-0.0134	0.0122	45.0534	-5.9238	3.2991	0.3916	-0.6199	0.4288	0.5279
0.39	-9.6076	-0.3210	-1.2825	0.0106	-0.0154	0.0134	45.2051	-5.8100	3.1677	0.3916	-0.6198	0.4288	0.5279
0.4	-9.6053	-0.3317	-1.2811	0.0108	-0.0081	0.0100	45.6650	-5.9535	3.1793	0.3916	-0.6198	0.4288	0.5279
0.41	-9.6123	-0.3287	-1.2717	0.0103	-0.0052	0.0119	45.3692	-5.8356	3.2975	0.3916	-0.6198	0.4288	0.5278
0.42	-9.6117	-0.3351	-1.2727	0.0041	-0.0112	0.0102	45.4790	-5.8950	3.3435	0.3916	-0.6198	0.4288	0.5279
0.43	-9.5954	-0.3346	-1.2794	0.0024	-0.0072	0.0090	45.4510	-5.9113	3.1244	0.3916	-0.6199	0.4287	0.5279
0.44	-9.6041	-0.3362	-1.2928	0.0032	-0.0101	0.0087	45.2057	-5.8333	3.2823	0.3915	-0.6199	0.4287	0.5279
0.45	-9.6051	-0.3438	-1.3007	0.0005	-0.0103	0.0053	45.4748	-5.8698	3.2820	0.3916	-0.6199	0.4287	0.5279
0.46	-9.6045	-0.3432	-1.3199	0.0053	-0.0060	0.0074	45.3715	-5.9789	3.3891	0.3915	-0.6199	0.4287	0.5279
0.47	-9.6153	-0.3448	-1.3418	0.0074	-0.0041	0.0097	45.3303	-6.0553	3.3620	0.3915	-0.6200	0.4287	0.5279
0.48	-9.6062	-0.3459	-1.3295	0.0076	-0.0054	0.0144	45.3498	-5.9412	3.3614	0.3915	-0.6199	0.4286	0.5278
0.49	-9.6037	-0.3375	-1.3213	0.0012	-0.0049	0.0122	45.2307	-5.7370	3.3731	0.3915	-0.6200	0.4287	0.5279
0.5	-9.6076	-0.3299	-1.3145	0.0057	0.0005	0.0043	45.2935	-5.8172	3.3121	0.3915	-0.6200	0.4286	0.5278
0.51	-9.6224	-0.3363	-1.3253	-0.0008	-0.0065	0.0079	45.1716	-5.6805	3.2505	0.3914	-0.6201	0.4286	0.5278
0.52	-9.6058	-0.3336	-1.3249	-0.0004	-0.0052	0.0037	45.2769	-5.7986	3.2710	0.3914	-0.6201	0.4286	0.5278
0.53	-9.6089	-0.3303	-1.3199	0.0032	-0.0086	0.0064	45.2288	-5.8599	3.5329	0.3914	-0.6201	0.4285	0.5278
0.54	-9.6094	-0.3329	-1.3224	0.0087	-0.0073	0.0073	45.1556	-5.7289	3.2842	0.3914	-0.6202	0.4285	0.5278
0.55	-9.6080	-0.3207	-1.3145	0.0004	-0.0125	0.0065	45.1975	-5.8915	3.3388	0.3914	-0.6201	0.4285	0.5277
0.56	-9.6158	-0.2999	-1.3180	0.0078	-0.0089	0.0092	45.1535	-5.7401	3.4677	0.3914	-0.6202	0.4285	0.5278
0.57	-9.6078	-0.2963	-1.3151	0.0079	-0.0131	0.0086	45.2366	-5.8361	3.1450	0.3914	-0.6202	0.4285	0.5278
0.58	-9.6057	-0.2899	-1.3097	0.0095	-0.0137	0.0080	45.5081	-5.8512	3.2804	0.3915	-0.6202	0.4285	0.5278
0.59	-9.6061	-0.2671	-1.3167	0.0113	-0.0062	0.0121	45.5056	-5.9443	3.2750	0.3914	-0.6202	0.4284	0.5277
0.6	-9.6056	-0.2757	-1.3054	-0.0046	-0.0120	0.0117	45.4941	-5.9248	3.2962	0.3914	-0.6202	0.4284	0.5278
0.61	-9.6084	-0.2766	-1.3204	-0.0006	-0.0122	0.0114	45.3534	-5.9865	3.2307	0.3914	-0.6202	0.4284	0.5278
0.62	-9.6055	-0.2792	-1.3106	-0.0008	-0.0105	0.0058	45.3416	-6.0531	3.1537	0.3914	-0.6202	0.4283	0.5278
0.63	-9.6041	-0.2945	-1.3061	-0.0028	-0.0133	0.0115	45.3374	-5.9089	3.4155	0.3914	-0.6203	0.4283	0.5279
0.64	-9.6171	-0.2998	-1.3115	0.0042	-0.0109	0.0073	45.6165	-5.8381	3.4654	0.3913	-0.6203	0.4283	0.5279
0.65	-9.6212	-0.3146	-1.3034	0.0037	-0.0107	0.0082	45.8654	-5.8617	3.6741	0.3914	-0.6204	0.4283	0.5279
0.66	-9.6032	-0.3286	-1.3010	0.0080	-0.0181	0.0110	45.6272	-5.8103	3.4314	0.3913	-0.6203	0.4282	0.5279
0.67	-9.6105	-0.3501	-1.3100	0.0029	-0.0157	0.0083	45.3999	-5.7637	3.1664	0.3914	-0.6203	0.4282	0.5279
0.68	-9.6100	-0.3671	-1.3079	-0.0004	-0.0159	0.0154	45.1545	-5.6600	3.2365	0.3914	-0.6203	0.4282	0.5280
0.69	-9.6024	-0.3736	-1.2965	0.0042	-0.0067	0.0101	45.2953	-5.9522	3.2309	0.3913	-0.6203	0.4281	0.5280
0.7	-9.6115	-0.3679	-1.3011	0.0090	-0.0164	0.0087	45.2584	-6.0599	3.2535	0.3914	-0.6203	0.4281	0.5280
0.71	-9.6146	-0.3794	-1.2994	0.0105	-0.0131	0.0112	45.3265	-5.8010	3.2281	0.3914	-0.6203	0.4281	0.5280
0.72	-9.6102	-0.3805	-1.2961	0.0057	-0.0084	0.0043	45.5105	-5.7809	3.2537	0.3914	-0.6203	0.4281	0.5280
0.73	-9.6066	-0.3701	-1.3095	0.0095	-0.0108	0.0106	45.2414	-5.8756	3.2197	0.3914	-0.6203	0.4280	0.5279
0.74	-9.6205	-0.3634	-1.3142	0.0075	-0.0132	0.0094	45.3003	-5.9873	3.2749	0.3914	-0.6204	0.4281	0.5280
0.75	-9.6117	-0.3575	-1.3096	0.0185	-0.0139	0.0140	45.2294	-5.7809	3.3157	0.3914	-0.6203	0.4281	0.5280
0.76	-9.6043	-0.3416	-1.2916	0.0167	-0.0151	0.0121	45.1694	-5.6447	3.1232	0.3915	-0.6203	0.4281	0.5280
0.77	-9.6060	-0.3333	-1.3053	0.0139	-0.0220	0.0184	45.3003	-6.0415	3.1690	0.3915	-0.6202	0.4281	0.5280
0.78	-9.6036	-0.3268	-1.2927	0.0113	-0.0133	0.0147	45.3709	-5.7454	3.1373	0.3915	-0.6202	0.4281	0.5281
0.79	-9.6076	-0.3231	-1.2920	0.0150	-0.0132	0.0119	45.3519	-5.9877	3.1774	0.3915	-0.6202	0.4281	0.5281
0.8	-9.6081	-0.3136	-1.2972	0.0101	-0.0110	0.0185	45.3766	-5.9957	3.0748	0.3915	-0.6201	0.4281	0.5280
0.81	-9.6076	-0.3033	-1.2762	0.0069	-0.0061	0.0152	45.1606	-5.8599	2.9531	0.3915	-0.6202	0.4281	0.5281
0.82	-9.6089	-0.2947	-1.2857	0.0151	-0.0116	0.0126	45.2577	-5.8575	3.1416	0.3915	-0.6201	0.4281	0.5281
0.83	-9.6093	-0.3023	-1.2853	0.0136	-0.0170	0.0135	45.4926	-5.7669	3.1515	0.3916	-0.6202	0.4282	0.5281
0.84	-9.6108	-0.2905	-1.2892	0.0135	-0.0146	0.0150	45.2406	-5.8030	3.1519	0.3915	-0.6200	0.4281	0.5281
0.85	-9.6104	-0.2998	-1.2901	0.0146	-0.0161	0.0144	45.2073	-5.9240	3.2581	0.3916	-0.6201	0.4282	0.5281
0.86	-9.6074	-0.2965	-1.3077	0.0183	-0.0113	0.0100	45.3063	-5.9528	3.2338	0.3916	-0.6200	0.4282	0.5281
0.87	-9.6096	-0.2873	-1.3062	0.0106	-0.0165	0.0127	45.2529	-5.7587	3.2391	0.3916	-0.6200	0.4281	0.5281
0.88	-9.6076	-0.2915	-1.3201	0.0112	-0.0077	0.0096	45.2991	-5.9230	3.2397	0.3917	-0.6201	0.4282	0.5281
0.89	-9.6009	-0.2928	-1.3270	0.0089	-0.0106	0.0124	45.2487	-5.9548	3.2340	0.3916	-0.6200	0.4282	0.5281
0.9	-9.6108	-0.3014	-1.3189	0.0102	-0.0157	0.0078	45.3538	-5.7908	3.0359	0.3917	-0.6200	0.4282	0.5281
0.91	-9.6185	-0.3093	-1.3253	0.0055	-0.0137	0.0052	45.3655	-5.7916	3.1734	0.3917	-0.6200	0.4281	0.5281
0.92	-9.6171	-0.3220	-1.3281	0.0024	-0.0171	0.0088	45.1532	-5.9103	3.1177	0.3917	-0.6200	0.4281	0.5282
0.93	-9.6073	-0.3276	-1.3296	0.0086	-0.0122	0.0085	45.2309	-5.8499	3.2295	0.3917	-0.6200	0.4281	0.5282
0.94	-9.6063	-0.3357	-1.3117	0.0027	-0.0143	0.0094	45.1405	-5.9781	3.1647	0.3917	-0.6200	0.4280	0.5282
0.95	-9.6055	-0.3365	-1.3087	0.0170	-0.0214	0.0133	45.5145	-5.8569	3.1571	0.3918	-0.6200	0.4280	0.5282
0.96	-9.6061	-0.3455	-1.3196	0.0159	-0.0159	0.0138	45.4592	-5.7758	3.2595	0.3918	-0.6199	0.4280	0.5282
0.97	-9.6129	-0.3505	-1.3174	0.0128	-0.0148	0.0113	45.3018	-5.8055	3.2447	0.3918	-0.6199	0.4281	0.5282
0.98	-9.6048	-0.3466	-1.3172	0.0204	-0.0125	0.0126	45.4586	-5.7847	3.1553	0.3918	-0.6198	0.4280	0.5282
0.99	-9.6092	-0.3561	-1.3228	0.0135	-0.0111	0.0103	45.4313	-5.8969	3.0552	0.3919	-0.6199	0.4281	0.5282
1	-9.6104	-0.3440	-1.3145	0.0078	-0.0125	0.0102	45.3016	-5.8678	3.0530	0.3919	-0.6199	0.4280	0.5282
1.01	-9.6099	-0.3426	-1.3105	0.0109	-0.0096	0.0141	45.2719	-5.8890	3.1382	0.3919	-0.6199	0.4280	0.5282
1.02	-9.6092	-0.3375	-1.3101	0.0089	-0.0133	0.0104	45.2755	-5.8744	3.1632	0.3919	-0.6198	0.4280	0.5282
1.03	-9.6057	-0.3422	-1.3007	0.0114	-0.0116	0.0097	45.4110	-5.7629	2.9039	0.3919	-0.6198	0.4280	0.5282
1.04	-9.6071	-0.3421	-1.3079	0.0149	-0.0179	0.0129	45.4460	-5.6645	3.2615	0.3919	-0.6198	0.4280	0.5283
1.05	-9.6038	-0.3383	-1.3112	0.0111	-0.0157	0.0120	45.4376	-5.8283	3.1259	0.3919	-0.6197	0.4280	0.5282
1.06	-9.6035	-0.3298	-1.3045	0.0161	-0.0128	0.0130	45.3403	-5.7443	3.2978	0.3920	-0.6198	0.4281	0.5283
1.07	-9.6011	-0.3349	-1.3160	0.0081	-0.0076	0.0104	45.2270	-5.6405	3.2541	0.3920	-0.6197	0.4280	0.5282
1.08	-9.6091	-0.3140	-1.3117	0.0126	-0.0151	0.0119	45.1700	-5.9981	3.0887	0.3920	-0.6198	0.4281	0.5283
1.09	-9.6065	-0.3126	-1.3067	0.0137	-0.0109	0.0121	45.3109	-5.8702	3.2793	0.3920	-0.6197	0.4280	0.5282
1.1	-9.6072	-0.3006	-1.3059	0.0120	-0.0197	0.0127	45.1139	-5.8746	3.2076	0.3921	-0.6197	0.4281	0.5283
1.11	-9.6075	-0.2956	-1.2965	0.0143	-0.0140	0.0129	45.1999	-5.7357	3.2670	0.3921	-0.6196	0.4281	0.5283
1.12	-9.5986	-0.2849	-1.2793	0.0169	-0.0094	0.0129	45.3729	-5.6825	3.1381	0.3921	-0.6196	0.4281	0.5282
1.13	-9.6057	-0.2735	-1.2703	0.0153	-0.0152	0.0157	45.3603	-5.8444	3.1619	0.3922	-0.6196	0.4281	0.5283
1.14	-9.6130	-0.2778	-1.2798	0.0142	-0.0128	0.0166	45.7231	-5.9680	3.4187	0.3921	-0.6195	0.4281	0.5283
1.15	-9.6023	-0.2849	-1.2764	0.0090	-0.0127	0.0097	45.7887	-5.7722	3.2076	0.3922	-0.6196	0.4282	0.5283
1.16	-9.6013	-0.2973	-1.2806	0.0057	-0.0148	0.0103	45.6108	-5.7682	3.4242	0.3921	-0.6195	0.4281	0.5283
1.17	-9.6074	-0.3159	-1.2928	0.0170	-0.0147	0.0149	45.4588	-5.8629	3.3397	0.3922	-0.6195	0.4281	0.5283
1.18	-9.6088	-0.3305	-1.3161	0.0048	-0.0113	0.0102	45.3473	-5.8059	3.3273	0.3922	-0.6195	0.4281	0.5283
1.19	-9.6067	-0.3300	-1.3228	0.0013	-0.0085	0.0100	45.3488	-5.7783	3.4616	0.3922	-0.6195	0.4281	0.5283
1.2	-9.6048	-0.3346	-1.3247	0.0090	-0.0072	0.0122	45.3474	-5.6754	3.1595	0.3922	-0.6195	0.4281	0.5283
1.21	-9.6117	-0.3217	-1.3212	0.0152	-0.0127	0.0105	45.3578	-5.9528	3.3055	0.3922	-0.6195	0.4281	0.5283
1.22	-9.6173	-0.3046	-1.3154	0.0065	-0.0144	0.0155	45.3053	-5.8731	3.2648	0.3922	-0.6195	0.4281	0.5284
1.23	-9.6094	-0.2936	-1.3110	0.0084	-0.0124	0.0069	45.1719	-5.8596	3.2040	0.3922	-0.6194	0.4281	0.5283
1.24	-9.6085	-0.2863	-1.3027	-0.0012	-0.0048	0.0043	45.1927	-5.7471	3.2407	0.3922	-0.6195	0.4281	0.5284
1.25	-9.6050	-0.2974	-1.3140	0.0095	-0.0069	0.0104	45.1828	-5.6756	3.3512	0.3922	-0.6195	0.4281	0.5283
1.26	-9.6032	-0.3300	-1.3114	0.0056	-0.0054	0.0049	45.1793	-5.7045	3.2123	0.3922	-0.6196	0.4281	0.5283
1.27	-9.6073	-0.3517	-1.3297	0.0047	-0.0094	0.0115	45.2749	-5.6814	3.2425	0.3922	-0.6195	0.4280	0.5283
1.28	-9.6045	-0.3692	-1.3253	0.0156	-0.0080	0.0149	45.2597	-5.8191	3.1790	0.3922	-0.6195	0.4281	0.5283
1.29	-9.6151	-0.3860	-1.3418	0.0020	-0.0070	0.0101	45.1238	-5.7048	3.1599	0.3922	-0.6196	0.4281	0.5283
1.3	-9.5990	-0.4143	-1.3203	0.0018	-0.0076	0.0077	45.3729	-5.6902	3.3263	0.3921	-0.6195	0.4280	0.5283
1.31	-9.6065	-0.4193	-1.3135	0.0023	-0.0129	0.0119	45.3063	-5.6790	3.3183	0.3922	-0.6196	0.4281	0.5284
1.32	-9.6171	-0.4180	-1.3165	0.0148	-0.0115	0.0075	45.1686	-5.8764	3.2754	0.3922	-0.6196	0.4280	0.5283
1.33	-9.6006	-0.3992	-1.3067	0.0125	-0.0064	0.0062	45.3774	-5.9777	3.2039	0.3922	-0.6196	0.4281	0.5283
1.34	-9.6110	-0.3807	-1.3099	0.0050	-0.0091	0.0119	45.3294	-5.8226	3.3217	0.3921	-0.6196	0.4280	0.5283
1.35	-9.6198	-0.3485	-1.3191	0.0152	-0.0101	0.0161	45.3553	-6.1084	3.4532	0.3922	-0.6196	0.4280	0.5283
1.36	-9.6075	-0.3248	-1.3208	0.0037	-0.0099	0.0118	45.5098	-6.0400	3.1486	0.3922	-0.6196	0.4280	0.5283
1.37	-9.6047	-0.3013	-1.3224	0.0027	-0.0070	0.0084	45.4536	-5.7205	3.2422	0.3921	-0.6196	0.4280	0.5283
1.38	-9.6099	-0.2702	-1.3262	0.0080	-0.0070	0.0120	45.3158	-5.9161	3.0932	0.3921	-0.6197	0.4280	0.5284
1.39	-9.6084	-0.2586	-1.3105	0.0088	-0.0125	0.0124	45.4008	-5.8812	3.1159	0.3921	-0.6196	0.4280	0.5283
1.4	-9.6059	-0.2687	-1.3187	0.0040	-0.0126	0.0110	45.4633	-5.7040	3.2767	0.3921	-0.6197	0.4280	0.5284
1.41	-9.6123	-0.2785	-1.3421	0.0087	-0.0097	0.0151	45.6495	-5.8965	3.2077	0.3921	-0.6196	0.4280	0.5283
1.42	-9.6095	-0.2983	-1.3405	0.0044	-0.0056	0.0063	45.2832	-5.7002	3.3513	0.3921	-0.6197	0.4280	0.5284
1.43	-9.6020	-0.2853	-1.3309	0.0042	-0.0021	0.0089	45.2198	-5.7399	3.4405	0.3921	-0.6197	0.4280	0.5283
1.44	-9.6050	-0.2912	-1.3061	0.0006	-0.0033	0.0077	45.2038	-5.7965	3.2808	0.3920	-0.6197	0.4280	0.5283
1.45	-9.6090	-0.2821	-1.3034	0.0022	-0.0113	0.0019	45.1931	-5.6832	3.4527	0.3920	-0.6198	0.4279	0.5283
1.46	-9.6056	-0.2654	-1.2951	0.0085	-0.0113	0.0078	45.3608	-5.6813	3.2886	0.3921	-0.6197	0.4279	0.5283
1.47	-9.6152	-0.2837	-1.3017	0.0065	-0.0073	0.0068	45.2271	-5.7397	3.2970	0.3921	-0.6198	0.4279	0.5283
1.48	-9.6057	-0.2819	-1.3097	0.0078	-0.0062	0.0052	45.2762	-5.8650	3.5432	0.3920	-0.6197	0.4278	0.5282
1.49	-9.6065	-0.2813	-1.2979	0.0044	-0.0078	0.0049	45.1657	-5.8672	3.3541	0.3921	-0.6198	0.4279	0.5283
1.5	-9.6053	-0.2889	-1.3075	0.0075	-0.0134	0.0118	45.3295	-5.8312	3.2705	0.3921	-0.6198	0.4278	0.5283
1.51	-9.6063	-0.2921	-1.2987	0.0040	-0.0132	0.0082	45.4106	-5.9383	3.2072	0.3921	-0.6198	0.4278	0.5283
1.52	-9.6046	-0.3021	-1.2956	-0.0003	-0.0098	0.0056	45.5163	-5.9167	3.2575	0.3920	-0.6198	0.4278	0.5283
1.53	-9.6074	-0.3235	-1.3063	0.0077	-0.0065	0.0051	45.6320	-5.9768	3.2103	0.3920	-0.6199	0.4278	0.5283
1.54	-9.6037	-0.3385	-1.2987	0.0083	-0.0069	0.0057	45.4901	-5.9869	3.3032	0.3921	-0.6199	0.4278	0.5283
1.55	-9.6031	-0.3557	-1.3149	0.0087	-0.0082	0.0053	45.3109	-5.8564	3.3249	0.3920	-0.6199	0.4277	0.5282
1.56	-9.6148	-0.3646	-1.3193	0.0069	-0.0082	0.0102	45.4622	-5.7309	3.3122	0.3921	-0.6200	0.4278	0.5283
1.57	-9.6175	-0.3639	-1.3107	0.0029	-0.0072	0.0057	45.3923	-5.8569	3.3152	0.3920	-0.6199	0.4277	0.5282
1.58	-9.6107	-0.3457	-1.3103	0.0095	-0.0092	0.0051	45.5146	-5.9762	3.3381	0.3921	-0.6200	0.4277	0.5283
1.59	-9.6049	-0.3361	-1.2936	0.0120	-0.0118	0.0093	45.4251	-5.8382	3.2242	0.3920	-0.6199	0.4277	0.5282
1.6	-9.6023	-0.3345	-1.2810	0.0075	-0.0116	0.0123	45.4288	-5.8417	3.1158	0.3921	-0.6200	0.4277	0.5282
1.61	-9.6073	-0.3290	-1.2833	0.0045	-0.0063	0.0085	45.2618	-5.7381	3.1770	0.3920	-0.6200	0.4277	0.5282
1.62	-9.6098	-0.3297	-1.3006	-0.0003	0.0019	0.0041	45.3351	-5.8141	3.3337	0.3920	-0.6200	0.4276	0.5282
1.63	-9.5995	-0.3421	-1.3052	-0.0032	-0.0020	0.0088	45.3492	-5.5497	3.2824	0.3920	-0.6201	0.4277	0.5282
1.64	-9.6024	-0.3578	-1.3262	0.0048	-0.0062	0.0065	45.4874	-5.6717	3.3801	0.3919	-0.6201	0.4276	0.5282
1.65	-9.6072	-0.3633	-1.3358	0.0049	-0.0064	0.0080	45.6836	-5.6645	3.8140	0.3920	-0.6202	0.4276	0.5282
1.66	-9.6079	-0.3648	-1.3415	0.0040	-0.0083	0.0121	45.5342	-5.8133	3.5716	0.3919	-0.6201	0.4276	0.5281
1.67	-9.6034	-0.3684	-1.3314	0.0112	-0.0072	0.0136	45.3684	-5.7839	3.5320	0.3919	-0.6202	0.4276	0.5282
1.68	-9.6032	-0.3640	-1.3308	0.0053	-0.0103	0.0107	45.1475	-5.6600	3.2532	0.3919	-0.6202	0.4276	0.5282
1.69	-9.6269	-0.3498	-1.3333	0.0178	-0.0116	0.0171	45.2532	-5.5530	3.1321	0.3919	-0.6201	0.4277	0.5281
1.7	-9.6074	-0.3407	-1.3175	0.0144	-0.0134	0.0150	45.3598	-5.6241	3.2987	0.3919	-0.6201	0.4277	0.5282
1.71	-9.6006	-0.3246	-1.3089	0.0122	-0.0142	0.0173	45.3104	-6.0085	3.5351	0.3919	-0.6201	0.4277	0.5282
1.72	-9.6072	-0.3121	-1.3203	0.0109	-0.0140	0.0118	45.5885	-6.0500	3.2974	0.3919	-0.6201	0.4277	0.5282
1.73	-9.6065	-0.2986	-1.3129	0.0048	-0.0144	0.0128	45.4314	-5.9723	3.3677	0.3919	-0.6200	0.4277	0.5282
1.74	-9.6006	-0.2917	-1.3148	0.0049	-0.0152	0.0130	45.2943	-5.7274	3.3455	0.3919	-0.6201	0.4277	0.5282
1.75	-9.6080	-0.2991	-1.3176	0.0099	-0.0179	0.0160	45.5317	-5.8938	3.2655	0.3919	-0.6200	0.4277	0.5283
1.76	-9.6103	-0.2937	-1.3234	0.0145	-0.0115	0.0142	45.4017	-5.9548	3.2692	0.3919	-0.6200	0.4277	0.5283
1.77	-9.6049	-0.3019	-1.3002	0.0103	-0.0099	0.0145	45.4527	-5.6313	3.3909	0.3919	-0.6200	0.4277	0.5282
1.78	-9.6097	-0.3016	-1.2808	0.0141	-0.0114	0.0156	45.3283	-5.6868	3.3018	0.3919	-0.6200	0.4278	0.5283
1.79	-9.6220	-0.2997	-1.2707	0.0157	-0.0150	0.0086	45.2916	-5.8560	3.3254	0.3920	-0.6200	0.4278	0.5283
1.8	-9.6102	-0.2839	-1.2664	0.0113	-0.0086	0.0159	45.3317	-5.9828	3.3830	0.3919	-0.6199	0.4278	0.5282
1.81	-9.5940	-0.2683	-1.2622	0.0133	-0.0093	0.0126	45.4673	-5.8167	3.2739	0.3920	-0.6200	0.4279	0.5283
1.82	-9.6021	-0.2619	-1.2537	0.0123	-0.0066	0.0103	45.4362	-5.8328	3.3989	0.3919	-0.6199	0.4278	0.5282
1.83	-9.6086	-0.2557	-1.2663	0.0104	-0.0096	0.0126	45.2784	-5.6199	3.5733	0.3920	-0.6200	0.4279	0.5283
1.84	-9.5925	-0.2572	-1.2711	0.0143	-0.0088	0.0110	45.4390	-5.8152	3.3193	0.3919	-0.6199	0.4279	0.5282
1.85	-9.5981	-0.2609	-1.2813	0.0071	-0.0071	0.0047	45.3149	-5.8453	3.2123	0.3919	-0.6199	0.4279	0.5282
1.86	-9.6160	-0.2938	-1.3055	0.0118	-0.0093	0.0124	45.3217	-5.8387	3.4160	0.3920	-0.6199	0.4279	0.5282
1.87	-9.6070	-0.3077	-1.3066	0.0165	-0.0070	0.0150	45.1324	-5.8249	3.3432	0.3919	-0.6199	0.4279	0.5281
1.88	-9.6222	-0.3335	-1.3147	0.0118	-0.0117	0.0098	45.3849	-5.7010	3.3530	0.3920	-0.6200	0.4280	0.5282
1.89	-9.6189	-0.3497	-1.3226	0.0130	-0.0140	0.0136	45.4236	-5.8016	3.2771	0.3920	-0.6199	0.4279	0.5281
1.9	-9.6067	-0.3675	-1.3248	0.0078	-0.0129	0.0132	45.4150	-5.8501	3.4246	0.3920	-0.6199	0.4280	0.5282
1.91	-9.6170	-0.3641	-1.3306	0.0104	-0.0127	0.0136	45.4103	-5.8714	3.2435	0.3919	-0.6198	0.4279	0.5281
1.92	-9.6206	-0.3638	-1.3502	0.0101	-0.0119	0.0099	45.5299	-5.9019	3.3143	0.3920	-0.6199	0.4280	0.5282
1.93	-9.6113	-0.3643	-1.3529	0.0147	-0.0112	0.0119	45.4444	-6.0968	3.4126	0.3920	-0.6198	0.4280	0.5282
1.94	-9.6060	-0.3640	-1.3708	0.0112	-0.0094	0.0120	45.3908	-5.9572	3.5679	0.3920	-0.6198	0.4280	0.5282
1.95	-9.6122	-0.3572	-1.3717	0.0079	-0.0162	0.0126	45.4336	-5.8605	3.4246	0.3920	-0.6198	0.4280	0.5282
1.96	-9.6067	-0.3623	-1.3822	0.0101	-0.0108	0.0163	45.3829	-5.6484	3.3581	0.3920	-0.6198	0.4280	0.5282
1.97	-9.6048	-0.3634	-1.3605	0.0081	-0.0158	0.0165	45.3050	-5.7934	3.3319	0.3920	-0.6198	0.4281	0.5282
1.98	-9.6040	-0.3581	-1.3600	0.0016	-0.0201	0.0133	45.4146	-5.7902	3.5433	0.3919	-0.6197	0.4280	0.5282
1.99	-9.6055	-0.3481	-1.3322	0.0046	-0.0085	0.0112	45.5018	-5.7922	3.6410	0.3920	-0.6198	0.4280	0.5283
2	-9.6045	-0.3513	-1.3102	0.0037	-0.0098	0.0103	45.2006	-5.9435	3.3126	0.3919	-0.6198	0.4280	0.5283
2.01	-9.6052	-0.3370	-1.2927	0.0077	-0.0074	0.0105	45.4270	-5.9713	3.2401	0.3919	-0.6198	0.4280	0.5283
2.02	-9.6011	-0.3371	-1.2702	0.0111	-0.0091	0.0100	45.3219	-5.8654	3.4940	0.3919	-0.6198	0.4280	0.5283
2.03	-9.6097	-0.3364	-1.2700	0.0082	-0.0084	0.0093	45.1245	-5.8828	3.5244	0.3919	-0.6198	0.4280	0.5283
2.04	-9.6026	-0.3165	-1.2507	0.0107	-0.0086	0.0112	45.3999	-5.8746	3.3938	0.3919	-0.6198	0.4280	0.5283
2.05	-9.5980	-0.3127	-1.2375	0.0111	-0.0088	0.0110	45.4360	-5.8701	3.2579	0.3919	-0.6198	0.4280	0.5282
2.06	-9.6033	-0.3065	-1.2439	0.0089	-0.0082	0.0161	45.2981	-5.8808	3.4125	0.3919	-0.6198	0.4281	0.5283
2.07	-9.5997	-0.3020	-1.2454	0.0103	-0.0142	0.0182	45.2625	-6.0053	3.2773	0.3919	-0.6198	0.4281	0.5283
2.08	-9.6090	-0.3033	-1.2474	0.0112	-0.0135	0.0139	45.4490	-5.8674	3.1456	0.3919	-0.6198	0.4281	0.5283
2.09	-9.6009	-0.2855	-1.2452	0.0042	-0.0097	0.0114	45.3219	-5.8833	3.3013	0.3918	-0.6197	0.4281	0.5282
2.1	-9.6034	-0.2871	-1.2463	0.0032	-0.0119	0.0109	45.3470	-5.9639	3.2746	0.3918	-0.6198	0.4281	0.5283
2.11	-9.6082	-0.3083	-1.2644	0.0012	-0.0068	0.0150	45.3224	-5.8014	3.2681	0.3918	-0.6198	0.4281	0.5283
2.12	-9.6169	-0.3164	-1.2724	0.0085	-0.0081	0.0125	45.4071	-5.7717	3.3424	0.3917	-0.6198	0.4281	0.5283
2.13	-9.6160	-0.3299	-1.2954	0.0071	-0.0076	0.0133	45.4198	-5.9084	3.4852	0.3918	-0.6199	0.4281	0.5283
2.14	-9.6030	-0.3513	-1.3129	0.0170	-0.0080	0.0145	45.6705	-5.9451	3.5683	0.3918	-0.6198	0.4281	0.5283
2.15	-9.6036	-0.3679	-1.3354	0.0137	-0.0095	0.0052	45.7899	-5.7815	3.2845	0.3918	-0.6198	0.4282	0.5283
2.16	-9.6162	-0.3728	-1.3724	0.0135	-0.0133	0.0097	45.5413	-5.7358	3.3180	0.3918	-0.6197	0.4281	0.5282
2.17	-9.6122	-0.3679	-1.3803	0.0182	-0.0090	0.0107	45.2743	-5.6274	3.4460	0.3918	-0.6198	0.4282	0.5282
2.18	-9.6064	-0.3680	-1.3777	0.0042	-0.0086	0.0059	45.0883	-5.7786	3.4091	0.3918	-0.6198	0.4282	0.5282
2.19	-9.6234	-0.3638	-1.3912	0.0022	-0.0048	0.0099	45.1912	-5.8024	3.2235	0.3918	-0.6198	0.4282	0.5282
2.2	-9.6116	-0.3385	-1.3846	0.0053	-0.0089	0.0099	45.3155	-5.6767	2.9897	0.3918	-0.6198	0.4282	0.5282
2.21	-9.6016	-0.3276	-1.3803	0.0085	-0.0123	0.0102	45.4947	-5.8253	3.0406	0.3918	-0.6198	0.4282	0.5282
2.22	-9.6197	-0.3238	-1.3864	0.0034	-0.0066	0.0106	45.1713	-5.8933	3.2485	0.3918	-0.6199	0.4282	0.5282
2.23	-9.6251	-0.3132	-1.3796	0.0035	-0.0085	0.0088	45.0054	-5.7691	3.3183	0.3917	-0.6198	0.4281	0.5282
2.24	-9.6107	-0.2996	-1.3589	0.0081	-0.0135	0.0135	45.1700	-5.8024	3.0316	0.3917	-0.6199	0.4282	0.5282
2.25	-9.6065	-0.2981	-1.3419	0.0076	-0.0151	0.0105	45.0742	-5.7394	3.1994	0.3917	-0.6198	0.4281	0.5282
2.26	-9.6076	-0.2796	-1.2980	0.0057	-0.0162	0.0149	45.2671	-5.9353	3.1310	0.3917	-0.6198	0.4281	0.5283
2.27	-9.6065	-0.2599	-1.2719	0.0050	-0.0145	0.0136	45.3747	-5.9311	3.0271	0.3917	-0.6198	0.4281	0.5283
2.28	-9.6118	-0.2600	-1.2786	0.0075	-0.0145	0.0159	45.4984	-6.0971	3.1337	0.3917	-0.6198	0.4281	0.5283
2.29	-9.6180	-0.2379	-1.2451	0.0142	-0.0161	0.0142	45.5051	-6.0173	3.1601	0.3917	-0.6198	0.4281	0.5284
2.3	-9.5874	-0.2230	-1.2214	0.0066	-0.0140	0.0101	45.3332	-5.8332	3.3016	0.3917	-0.6197	0.4281	0.5283
2.31	-9.6059	-0.2255	-1.2240	0.0019	-0.0088	0.0123	45.3822	-5.8647	3.1951	0.3917	-0.6198	0.4281	0.5284
2.32	-9.5996	-0.2111	-1.2098	0.0023	-0.0148	0.0089	45.4758	-5.8718	3.3297	0.3916	-0.6198	0.4281	0.5284
2.33	-9.5849	-0.2201	-1.2024	0.0024	-0.0115	0.0130	45.3628	-5.7906	3.2345	0.3917	-0.6199	0.4281	0.5285
2.34	-9.5879	-0.2536	-1.2056	-0.0042	-0.0079	0.0071	45.4455	-5.7700	3.0003	0.3916	-0.6198	0.4280	0.5284
2.35	-9.6016	-0.3060	-1.2336	-0.0046	-0.0070	0.0115	45.4558	-5.8744	2.9407	0.3915	-0.6199	0.4280	0.5285
2.36	-9.6115	-0.3662	-1.2492	-0.0090	-0.0068	0.0082	45.2770	-5.8665	3.0941	0.3915	-0.6199	0.4280	0.5285
2.37	-9.6012	-0.3986	-1.2590	-0.0144	-0.0079	0.0071	45.3092	-5.7952	3.1997	0.3914	-0.6200	0.4279	0.5285
2.38	-9.6081	-0.4246	-1.2792	-0.0081	-0.0048	0.0002	45.1533	-5.6766	3.0981	0.3914	-0.6201	0.4279	0.5286
2.39	-9.6119	-0.4397	-1.2895	-0.0021	-0.0007	0.0066	45.3071	-5.8429	3.1123	0.3913	-0.6201	0.4278	0.5285
2.4	-9.6168	-0.4603	-1.3121	0.0008	-0.0018	0.0060	45.3339	-5.8759	3.1158	0.3913	-0.6202	0.4278	0.5285
2.41	-9.6095	-0.4649	-1.3379	0.0030	-0.0031	0.0043	45.2621	-5.7766	3.1130	0.3912	-0.6202	0.4277	0.5284
2.42	-9.6246	-0.4690	-1.3558	0.0068	-0.0016	0.0036	45.2911	-5.7716	2.9967	0.3913	-0.6203	0.4278	0.5284
2.43	-9.6165	-0.4625	-1.3721	0.0132	-0.0088	0.0042	45.3071	-5.6379	3.3913	0.3913	-0.6203	0.4278	0.5284
2.44	-9.6273	-0.4474	-1.3909	0.0103	-0.0097	0.0132	45.4292	-5.8578	3.2365	0.3913	-0.6202	0.4278	0.5284
2.45	-9.6124	-0.4272	-1.3996	0.0133	-0.0128	0.0130	45.6412	-5.8477	3.0064	0.3913	-0.6203	0.4278	0.5284
2.46	-9.6022	-0.3885	-1.3845	0.0085	-0.0167	0.0123	45.6904	-5.9966	3.0291	0.3913	-0.6202	0.4278	0.5284
2.47	-9.6071	-0.3421	-1.3962	0.0141	-0.0087	0.0161	45.5299	-5.9902	3.1044	0.3913	-0.6203	0.4278	0.5284
2.48	-9.6067	-0.3090	-1.3908	0.0116	-0.0109	0.0180	45.4643	-5.8268	3.0544	0.3912	-0.6202	0.4278	0.5284
2.49	-9.6144	-0.2790	-1.3798	0.0030	-0.0141	0.0121	45.3254	-5.9811	2.8985	0.3912	-0.6203	0.4278	0.5285
2.5	-9.6071	-0.2560	-1.3788	0.0073	-0.0064	0.0067	45.4450	-6.0461	3.1521	0.3912	-0.6203	0.4278	0.5285
2.51	-9.6195	-0.2569	-1.3636	0.0048	-0.0086	0.0113	45.3810	-5.9610	3.0226	0.3912	-0.6203	0.4277	0.5285
2.52	-9.6079	-0.2542	-1.3379	0.0016	-0.0090	0.0120	45.3722	-5.8443	3.0427	0.3911	-0.6203	0.4277	0.5285
2.53	-9.6202	-0.2552	-1.3363	-0.0033	-0.0163	0.0110	45.3337	-5.7497	3.2282	0.3911	-0.6203	0.4277	0.5285
2.54	-9.6122	-0.2659	-1.3177	-0.0015	-0.0166	0.0092	45.2698	-5.8359	3.2197	0.3911	-0.6203	0.4276	0.5286
2.55	-9.6011	-0.2802	-1.2997	0.0057	-0.0150	0.0121	45.2643	-5.8842	3.4156	0.3910	-0.6203	0.4276	0.5285
2.56	-9.6181	-0.2764	-1.3101	0.0008	-0.0150	0.0118	45.4076	-5.8332	3.1462	0.3911	-0.6204	0.4276	0.5286
2.57	-9.6142	-0.2713	-1.2872	-0.0038	-0.0093	0.0128	45.2833	-5.7661	3.1022	0.3910	-0.6203	0.4276	0.5286
2.58	-9.6125	-0.2611	-1.2721	0.0030	-0.0113	0.0076	45.1666	-5.7824	3.1089	0.3910	-0.6204	0.4276	0.5287
2.59	-9.6025	-0.2617	-1.2636	0.0037	-0.0119	0.0094	45.2990	-5.7904	3.1827	0.3910	-0.6203	0.4275	0.5286
2.6	-9.6061	-0.2525	-1.2506	0.0002	-0.0079	0.0117	45.2857	-5.6406	3.2368	0.3910	-0.6204	0.4275	0.5287
2.61	-9.5987	-0.2409	-1.2559	0.0029	-0.0077	0.0070	45.4101	-5.6363	3.2659	0.3909	-0.6204	0.4275	0.5287
2.62	-9.6108	-0.2497	-1.2637	0.0091	-0.0089	0.0105	45.2658	-5.7869	3.0753	0.3909	-0.6204	0.4275	0.5286
2.63	-9.6036	-0.2617	-1.2610	0.0089	-0.0069	0.0116	45.2929	-5.8721	3.3267	0.3910	-0.6205	0.4276	0.5287
2.64	-9.6073	-0.2735	-1.2613	-0.0001	-0.0080	0.0052	45.7857	-5.8359	3.2756	0.3909	-0.6205	0.4275	0.5286
2.65	-9.6021	-0.2907	-1.2684	0.0115	-0.0142	0.0116	45.8773	-5.6709	3.3435	0.3909	-0.6205	0.4275	0.5287
2.66	-9.5971	-0.3061	-1.2739	0.0061	-0.0110	0.0110	45.6975	-5.7373	3.5144	0.3909	-0.6204	0.4275	0.5286
2.67	-9.6180	-0.3163	-1.2929	0.0099	-0.0140	0.0115	45.5179	-5.8616	3.5828	0.3909	-0.6205	0.4275	0.5287
2.68	-9.6003	-0.3401	-1.2968	0.0117	-0.0111	0.0078	45.3137	-5.8302	3.4310	0.3909	-0.6204	0.4275	0.5286
2.69	-9.6108	-0.3534	-1.3260	0.0062	-0.0115	0.0098	45.3377	-5.7536	3.4417	0.3909	-0.6204	0.4275	0.5286
2.7	-9.6227	-0.3662	-1.3347	0.0042	-0.0079	0.0075	45.2431	-5.9119	3.4407	0.3909	-0.6205	0.4275	0.5286
2.71	-9.6110	-0.3675	-1.3372	0.0044	-0.0154	0.0144	45.3438	-5.7935	3.5767	0.3909	-0.6205	0.4275	0.5287
2.72	-9.6069	-0.3776	-1.3376	0.0046	-0.0200	0.0178	45.3052	-5.6553	3.4221	0.3909	-0.6205	0.4275	0.5287
2.73	-9.6180	-0.3731	-1.3508	0.0053	-0.0118	0.0130	45.4077	-5.7972	3.1496	0.3909	-0.6204	0.4274	0.5287
2.74	-9.6125	-0.3681	-1.3409	0.0078	-0.0138	0.0107	45.4251	-5.6799	3.2006	0.3909	-0.6204	0.4275	0.5288
2.75	-9.6083	-0.3613	-1.3304	0.0025	-0.0133	0.0137	45.2271	-5.8563	3.3062	0.3909	-0.6204	0.4274	0.5288
2.76	-9.6105	-0.3602	-1.3262	0.0037	-0.0174	0.0150	45.3686	-5.8759	3.4605	0.3909	-0.6204	0.4274	0.5288
2.77	-9.6070	-0.3527	-1.3194	0.0076	-0.0140	0.0171	45.5154	-5.8435	3.3450	0.3908	-0.6204	0.4274	0.5288
2.78	-9.6083	-0.3607	-1.3112	0.0019	-0.0111	0.0097	45.3567	-5.8971	3.2515	0.3908	-0.6204	0.4274	0.5288
2.79	-9.6099	-0.3571	-1.3130	0.0051	-0.0125	0.0087	45.3074	-5.7812	3.2738	0.3908	-0.6204	0.4274	0.5289
2.8	-9.6094	-0.3454	-1.3012	0.0046	-0.0179	0.0130	45.4045	-5.8647	3.2684	0.3908	-0.6203	0.4274	0.5288
2.81	-9.6109	-0.3445	-1.2804	0.0070	-0.0219	0.0116	45.5047	-5.8465	3.2668	0.3909	-0.6204	0.4274	0.5289
2.82	-9.6097	-0.3443	-1.2706	0.0171	-0.0139	0.0075	45.4825	-5.6314	3.4339	0.3909	-0.6203	0.4274	0.5289
2.83	-9.6163	-0.3366	-1.2731	0.0114	-0.0148	0.0123	45.4829	-5.7886	3.3951	0.3909	-0.6204	0.4274	0.5289
2.84	-9.6057	-0.3273	-1.2746	0.0133	-0.0190	0.0110	45.4988	-5.7765	3.2430	0.3909	-0.6203	0.4274	0.5289
2.85	-9.6052	-0.3068	-1.2711	0.0104	-0.0139	0.0100	45.5650	-5.7731	3.4076	0.3910	-0.6203	0.4274	0.5289
2.86	-9.6105	-0.2976	-1.2811	0.0121	-0.0139	0.0111	45.4372	-5.8085	3.4718	0.3910	-0.6203	0.4274	0.5289
2.87	-9.6113	-0.2929	-1.2919	0.0172	-0.0149	0.0067	45.5847	-5.9636	3.3640	0.3910	-0.6202	0.4274	0.5289
2.88	-9.6059	-0.2797	-1.2895	0.0170	-0.0125	0.0115	45.4688	-5.9259	3.3639	0.3911	-0.6203	0.4274	0.5289
2.89	-9.6058	-0.2825	-1.2881	0.0084	-0.0120	0.0137	45.5101	-5.7167	3.2013	0.3910	-0.6202	0.4274	0.5289
2.9	-9.6059	-0.2933	-1.3031	0.0058	-0.0119	0.0077	45.4405	-5.8699	3.2124	0.3911	-0.6203	0.4274	0.5289
2.91	-9.6048	-0.2961	-1.3080	0.0096	-0.0153	0.0105	45.3155	-5.8539	3.4069	0.3910	-0.6202	0.4274	0.5289
2.92	-9.6057	-0.3025	-1.3057	-0.0012	-0.0126	0.0079	45.2263	-5.8894	3.1820	0.3911	-0.6202	0.4274	0.5289
2.93	-9.6098	-0.3057	-1.3160	-0.0005	-0.0106	0.0108	45.2907	-5.8127	3.2461	0.3910	-0.6202	0.4273	0.5289
2.94	-9.6064	-0.3116	-1.3132	0.0041	-0.0164	0.0165	45.4037	-5.7581	3.2385	0.3910	-0.6202	0.4273	0.5290
2.95	-9.6117	-0.3228	-1.3208	0.0072	-0.0118	0.0135	45.4238	-5.9597	3.5133	0.3910	-0.6202	0.4273	0.5290
2.96	-9.6074	-0.3257	-1.3219	0.0072	-0.0150	0.0101	45.2455	-5.9694	3.3340	0.3910	-0.6202	0.4273	0.5290
2.97	-9.6054	-0.3232	-1.3229	0.0105	-0.0135	0.0131	45.3140	-5.8743	3.3234	0.3910	-0.6202	0.4273	0.5290
2.98	-9.6068	-0.3205	-1.3326	0.0030	-0.0097	0.0072	45.3222	-5.8848	3.2784	0.3910	-0.6202	0.4273	0.5290
2.99	-9.6113	-0.3281	-1.3238	0.0063	-0.0122	0.0128	45.2606	-5.7167	3.2840	0.3910	-0.6202	0.4273	0.5291
3	-9.6141	-0.3286	-1.3175	0.0027	-0.0135	0.0113	45.3270	-5.7802	3.3360	0.3910	-0.6202	0.4273	0.5290
3.01	-9.6062	-0.3355	-1.3203	0.0039	-0.0188	0.0130	45.4035	-5.8972	3.2418	0.3910	-0.6202	0.4273	0.5291
3.02	-9.6075	-0.3271	-1.3201	0.0068	-0.0163	0.0146	45.3967	-5.8545	3.2782	0.3910	-0.6202	0.4272	0.5291
3.03	-9.6087	-0.3346	-1.3134	-0.0013	-0.0132	0.0142	45.3422	-5.8502	3.2837	0.3909	-0.6202	0.4272	0.5291
3.04	-9.6029	-0.3412	-1.3055	0.0080	-0.0202	0.0081	45.4148	-5.9327	3.4047	0.3910	-0.6202	0.4272	0.5292
3.05	-9.6083	-0.3290	-1.2986	0.0146	-0.0122	0.0084	45.4865	-5.8806	3.2548	0.3910	-0.6201	0.4272	0.5291
3.06	-9.6094	-0.3384	-1.3013	0.0095	-0.0128	0.0132	45.3821	-5.7612	3.3738	0.3910	-0.6202	0.4272	0.5292
3.07	-9.6045	-0.3368	-1.2896	0.0152	-0.0169	0.0080	45.3234	-5.7813	3.3455	0.3910	-0.6201	0.4272	0.5292
3.08	-9.6139	-0.3325	-1.2947	0.0066	-0.0161	0.0122	45.2732	-5.8328	3.3656	0.3911	-0.6202	0.4272	0.5292
3.09	-9.6060	-0.3274	-1.2839	0.0106	-0.0151	0.0139	45.2322	-5.9743	3.2669	0.3910	-0.6201	0.4272	0.5292
3.1	-9.6057	-0.3209	-1.2888	0.0061	-0.0183	0.0096	45.3586	-5.8206	3.3731	0.3911	-0.6201	0.4272	0.5292
3.11	-9.6155	-0.3019	-1.2908	0.0074	-0.0181	0.0068	45.3055	-5.9278	3.1679	0.3911	-0.6201	0.4272	0.5293
3.12	-9.6049	-0.2945	-1.2823	0.0076	-0.0121	0.0136	45.4061	-5.9652	3.2648	0.3911	-0.6200	0.4271	0.5292
3.13	-9.6076	-0.2953	-1.2940	0.0053	-0.0139	0.0123	45.4160	-5.8377	3.2783	0.3911	-0.6201	0.4272	0.5293
3.14	-9.6062	-0.2930	-1.3050	0.0105	-0.0114	0.0115	45.6604	-5.7550	3.4135	0.3911	-0.6200	0.4271	0.5293
3.15	-9.6057	-0.3023	-1.2910	0.0024	-0.0094	0.0107	45.7804	-5.7927	3.6943	0.3911	-0.6201	0.4272	0.5293
3.16	-9.6069	-0.3116	-1.3034	0.0085	-0.0053	0.0050	45.4906	-5.7319	3.3683	0.3910	-0.6200	0.4271	0.5292
3.17	-9.6122	-0.3204	-1.3076	0.0037	-0.0075	0.0078	45.2336	-5.6081	3.2792	0.3911	-0.6201	0.4271	0.5293
3.18	-9.6038	-0.3342	-1.3143	0.0043	-0.0104	0.0056	44.9070	-5.8307	3.1912	0.3911	-0.6201	0.4271	0.5293
3.19	-9.6061	-0.3320	-1.3163	0.0018	-0.0093	0.0101	45.2478	-5.7845	3.1404	0.3910	-0.6201	0.4271	0.5292
3.2	-9.6039	-0.3369	-1.3142	-0.0026	-0.0149	0.0109	45.6126	-5.8878	3.0448	0.3910	-0.6202	0.4270	0.5293
3.21	-9.6082	-0.3389	-1.3193	0.0034	-0.0133	0.0086	45.6040	-5.9765	3.2749	0.3910	-0.6202	0.4270	0.5293
3.22	-9.6077	-0.3375	-1.3158	0.0101	-0.0140	0.0119	45.4461	-5.9342	3.2701	0.3910	-0.6202	0.4270	0.5293
3.23	-9.6088	-0.3337	-1.3155	0.0037	-0.0135	0.0121	45.5526	-6.0423	2.9908	0.3910	-0.6201	0.4269	0.5293
3.24	-9.6153	-0.3302	-1.3145	0.0009	-0.0157	0.0121	45.4241	-6.0402	3.3686	0.3910	-0.6202	0.4270	0.5294
3.25	-9.6041	-0.3314	-1.3073	0.0085	-0.0150	0.0125	45.3701	-5.8892	3.0536	0.3910	-0.6201	0.4269	0.5294
3.26	-9.6144	-0.3274	-1.3096	0.0011	-0.0080	0.0127	45.3859	-5.8730	2.9907	0.3910	-0.6202	0.4269	0.5294
3.27	-9.6146	-0.3311	-1.3078	0.0066	-0.0113	0.0081	45.3857	-5.8770	3.2979	0.3909	-0.6202	0.4269	0.5294
3.28	-9.6115	-0.3247	-1.3030	0.0063	-0.0088	0.0081	45.3488	-5.7661	3.1896	0.3909	-0.6202	0.4269	0.5294
3.29	-9.6067	-0.3150	-1.2918	0.0022	-0.0104	0.0096	45.2895	-5.8227	2.9281	0.3909	-0.6202	0.4269	0.5294
3.3	-9.6062	-0.3055	-1.3120	0.0093	-0.0067	0.0050	45.3009	-5.7068	3.1589	0.3909	-0.6202	0.4268	0.5294
3.31	-9.6115	-0.3082	-1.3072	0.0029	-0.0016	0.0029	45.3050	-5.7165	3.1287	0.3910	-0.6203	0.4269	0.5294
3.32	-9.6074	-0.3079	-1.3016	0.0034	-0.0109	0.0098	45.2849	-5.7033	3.0546	0.3909	-0.6203	0.4268	0.5294
3.33	-9.6089	-0.3110	-1.3040	0.0087	-0.0055	0.0072	45.3659	-5.7639	3.2637	0.3910	-0.6204	0.4269	0.5294
3.34	-9.6079	-0.3181	-1.3041	0.0050	-0.0106	0.0094	45.3846	-5.8383	3.1489	0.3909	-0.6203	0.4268	0.5293
3.35	-9.6040	-0.3143	-1.3041	0.0090	-0.0107	0.0095	45.3810	-5.5038	3.0121	0.3909	-0.6203	0.4268	0.5294
3.36	-9.6106	-0.3153	-1.2916	0.0059	-0.0110	0.0095	45.3746	-5.6801	3.1372	0.3909	-0.6203	0.4268	0.5294
3.37	-9.6104	-0.3148	-1.3022	0.0089	-0.0104	0.0071	45.3950	-5.6915	3.1387	0.3909	-0.6203	0.4268	0.5293
3.38	-9.6084	-0.3193	-1.3024	0.0051	-0.0094	0.0099	45.2664	-5.8611	3.1787	0.3910	-0.6204	0.4268	0.5294
3.39	-9.6074	-0.3247	-1.3161	0.0067	-0.0085	0.0131	45.3599	-5.9149	3.2288	0.3909	-0.6204	0.4268	0.5293
3.4	-9.6096	-0.3285	-1.3245	0.0170	-0.0111	0.0111	45.5516	-5.7695	3.3307	0.3910	-0.6204	0.4268	0.5294
3.41	-9.6209	-0.3273	-1.3286	0.0056	-0.0102	0.0114	45.5278	-6.0921	3.2442	0.3909	-0.6203	0.4268	0.5293
3.42	-9.6068	-0.3269	-1.3219	0.0052	-0.0093	0.0054	45.6470	-5.9038	3.0586	0.3909	-0.6204	0.4268	0.5293
3.43	-9.6119	-0.3282	-1.3260	0.0049	-0.0090	0.0064	45.4466	-6.1480	3.3577	0.3909	-0.6204	0.4267	0.5293
3.44	-9.6151	-0.3339	-1.3233	0.0114	-0.0143	0.0101	45.4866	-5.7723	3.0349	0.3909	-0.6204	0.4267	0.5293
3.45	-9.6049	-0.3325	-1.3140	0.0107	-0.0094	0.0052	45.3416	-5.8182	3.1758	0.3909	-0.6204	0.4267	0.5293
3.46	-9.6138	-0.3281	-1.3135	0.0050	-0.0083	0.0047	45.4416	-5.8599	3.1275	0.3909	-0.6204	0.4267	0.5293
3.47	-9.6255	-0.3388	-1.3185	0.0092	-0.0087	0.0082	45.4158	-5.7668	3.0130	0.3910	-0.6205	0.4267	0.5293
3.48	-9.6105	-0.3359	-1.3137	0.0120	-0.0139	0.0127	45.3655	-5.8021	3.1910	0.3909	-0.6204	0.4267	0.5292
3.49	-9.6017	-0.3317	-1.3069	0.0024	-0.0099	0.0032	45.3738	-5.7997	3.0943	0.3910	-0.6205	0.4267	0.5293
3.5	-9.6151	-0.3250	-1.3080	0.0073	-0.0118	0.0039	45.4330	-5.7559	2.9628	0.3910	-0.6205	0.4266	0.5293
3.51	-9.6102	-0.3220	-1.3145	0.0131	-0.0136	0.0063	45.4224	-5.6776	3.1842	0.3910	-0.6205	0.4266	0.5293
3.52	-9.6075	-0.3229	-1.3014	0.0005	-0.0072	0.0039	45.3444	-5.8169	3.0442	0.3910	-0.6205	0.4266	0.5292
3.53	-9.6076	-0.3110	-1.3043	0.0083	-0.0115	0.0098	45.3175	-5.7810	3.0686	0.3910	-0.6205	0.4266	0.5293
3.54	-9.6133	-0.3166	-1.3082	0.0064	-0.0099	0.0103	45.4286	-5.8098	3.0610	0.3910	-0.6205	0.4266	0.5293
3.55	-9.6108	-0.3199	-1.2989	0.0066	-0.0067	0.0070	45.2198	-5.7254	3.0991	0.3910	-0.6205	0.4265	0.5292
3.56	-9.5991	-0.3198	-1.2873	-0.0014	-0.0058	0.0098	45.1897	-5.5995	3.5141	0.3910	-0.6206	0.4266	0.5293
3.57	-9.6069	-0.3262	-1.2925	0.0051	-0.0111	0.0082	45.4033	-5.9681	3.2531	0.3910	-0.6206	0.4265	0.5292
3.58	-9.6017	-0.3195	-1.2959	0.0151	-0.0131	0.0123	45.4874	-6.0755	3.1340	0.3910	-0.6206	0.4266	0.5293
3.59	-9.6052	-0.3126	-1.2855	0.0153	-0.0157	0.0112	45.4440	-5.9470	3.1553	0.3910	-0.6205	0.4265	0.5292
3.6	-9.6038	-0.3110	-1.2885	0.0104	-0.0218	0.0083	45.5790	-5.8322	3.0789	0.3910	-0.6205	0.4265	0.5293
3.61	-9.6081	-0.3098	-1.2944	0.0136	-0.0113	0.0044	45.4931	-5.7779	3.1523	0.3911	-0.6205	0.4265	0.5293
3.62	-9.6066	-0.3108	-1.3033	0.0082	-0.0089	0.0049	45.3811	-5.7956	2.9398	0.3911	-0.6205	0.4264	0.5292
3.63	-9.6053	-0.3135	-1.2954	0.0084	-0.0149	0.0133	45.3777	-5.7983	3.0850	0.3911	-0.6206	0.4265	0.5293
3.64	-9.6075	-0.3195	-1.2962	0.0008	-0.0106	0.0113	45.6546	-5.8990	3.3607	0.3911	-0.6205	0.4264	0.5293
3.65	-9.6144	-0.3250	-1.2996	0.0090	-0.0071	0.0074	45.9089	-5.8474	3.4494	0.3911	-0.6206	0.4265	0.5293
3.66	-9.6041	-0.3326	-1.3037	0.0104	-0.0078	0.0137	45.6288	-5.8580	3.4050	0.3910	-0.6205	0.4264	0.5292
3.67	-9.6055	-0.3353	-1.3023	0.0164	-0.0139	0.0146	45.3636	-5.6145	3.2364	0.3911	-0.6206	0.4265	0.5293
3.68	-9.6103	-0.3285	-1.3102	0.0187	-0.0088	0.0072	45.1475	-5.7562	3.2272	0.3911	-0.6205	0.4265	0.5292
3.69	-9.6082	-0.3288	-1.3154	0.0103	-0.0077	0.0107	45.2273	-6.0045	3.2500	0.3911	-0.6205	0.4265	0.5292
3.7	-9.6011	-0.3265	-1.3228	0.0099	-0.0109	0.0142	45.3630	-5.7114	3.2738	0.3911	-0.6205	0.4265	0.5292
3.71	-9.6216	-0.3302	-1.3273	0.0106	-0.0089	0.0136	45.1540	-5.8289	3.1910	0.3911	-0.6205	0.4265	0.5292
3.72	-9.6109	-0.3338	-1.3272	0.0176	-0.0112	0.0137	45.2394	-5.8616	3.2126	0.3911	-0.6205	0.4266	0.5292
3.73	-9.6076	-0.3279	-1.3203	0.0125	-0.0198	0.0105	45.2185	-5.8552	3.2733	0.3911	-0.6204	0.4265	0.5292
3.74	-9.6171	-0.3160	-1.3319	0.0096	-0.0108	0.0052	45.3969	-5.8467	3.1432	0.3912	-0.6205	0.4266	0.5292
3.75	-9.6076	-0.3257	-1.3192	0.0055	-0.0169	0.0156	45.3272	-5.7170	3.1656	0.3912	-0.6205	0.4265	0.5292
3.76	-9.6033	-0.3226	-1.3139	0.0105	-0.0138	0.0139	45.2095	-5.9101	3.1829	0.3912	-0.6205	0.4265	0.5292
3.77	-9.6041	-0.3272	-1.3198	0.0153	-0.0164	0.0130	45.3386	-6.0545	3.0515	0.3912	-0.6204	0.4265	0.5292
3.78	-9.6063	-0.3303	-1.3129	0.0091	-0.0139	0.0115	45.3532	-5.7361	3.2564	0.3912	-0.6204	0.4265	0.5293
3.79	-9.6006	-0.3290	-1.3028	0.0204	-0.0154	0.0107	45.4067	-5.6939	3.1494	0.3913	-0.6204	0.4266	0.5293
3.8	-9.6040	-0.3286	-1.3053	0.0152	-0.0135	0.0097	45.4942	-5.9581	2.9741	0.3912	-0.6203	0.4265	0.5292
3.81	-9.6056	-0.3302	-1.3033	0.0167	-0.0158	0.0151	45.4669	-5.7289	3.0862	0.3913	-0.6204	0.4266	0.5293
3.82	-9.6052	-0.3280	-1.3057	0.0091	-0.0156	0.0046	45.4303	-5.9371	3.1209	0.3913	-0.6203	0.4266	0.5292
3.83	-9.6058	-0.3304	-1.3046	0.0040	-0.0177	0.0125	45.4850	-5.8769	3.1874	0.3913	-0.6204	0.4266	0.5293
3.84	-9.6072	-0.3223	-1.2894	0.0086	-0.0200	0.0092	45.1955	-5.8301	3.1602	0.3913	-0.6203	0.4265	0.5293
3.85	-9.6086	-0.3204	-1.2927	0.0132	-0.0208	0.0108	45.2797	-5.7823	3.2607	0.3914	-0.6203	0.4265	0.5293
3.86	-9.6043	-0.3137	-1.2849	0.0106	-0.0142	0.0158	45.3678	-5.8901	3.1080	0.3914	-0.6202	0.4265	0.5294
3.87	-9.6077	-0.3172	-1.2978	0.0137	-0.0066	0.0084	45.5025	-5.7629	3.2865	0.3914	-0.6202	0.4265	0.5293
3.88	-9.6176	-0.3115	-1.3043	0.0072	-0.0149	0.0110	45.3838	-5.7642	3.1244	0.3914	-0.6203	0.4266	0.5294
3.89	-9.6061	-0.3207	-1.2948	0.0037	-0.0116	0.0077	45.1862	-5.7853	3.2249	0.3914	-0.6202	0.4265	0.5293
3.9	-9.6074	-0.3232	-1.3022	0.0074	-0.0109	0.0095	45.3264	-5.7466	3.4350	0.3914	-0.6203	0.4265	0.5294
3.91	-9.6082	-0.3188	-1.3050	0.0058	-0.0150	0.0174	45.3232	-5.8697	3.0181	0.3914	-0.6202	0.4265	0.5293
3.92	-9.6028	-0.3237	-1.3104	0.0100	-0.0126	0.0145	45.2401	-5.9325	3.1438	0.3914	-0.6202	0.4265	0.5294
3.93	-9.6040	-0.3209	-1.3127	0.0082	-0.0125	0.0079	45.3807	-5.6492	3.2801	0.3914	-0.6202	0.4265	0.5294
3.94	-9.6077	-0.3143	-1.3189	0.0188	-0.0148	0.0124	45.2021	-5.8195	3.2486	0.3914	-0.6202	0.4265	0.5294
3.95	-9.6084	-0.3346	-1.3176	0.0189	-0.0122	0.0136	45.4609	-5.9922	3.1572	0.3915	-0.6202	0.4265	0.5294
3.96	-9.6053	-0.3300	-1.3141	0.0146	-0.0138	0.0144	45.4561	-5.7092	3.1984	0.3915	-0.6201	0.4265	0.5294
3.97	-9.6047	-0.3324	-1.3045	0.0086	-0.0130	0.0125	45.3984	-5.8050	3.2585	0.3915	-0.6202	0.4266	0.5294
3.98	-9.6084	-0.3263	-1.3214	0.0144	-0.0117	0.0092	45.3401	-6.1833	2.9502	0.3914	-0.6201	0.4265	0.5293
3.99	-9.6154	-0.3284	-1.3158	0.0175	-0.0131	0.0148	45.3265	-5.7265	3.0386	0.3915	-0.6201	0.4266	0.5294
4	-9.6043	-0.3288	-1.3206	0.0119	-0.0081	0.0155	45.3247	-5.8695	3.0606	0.3915	-0.6201	0.4266	0.5294
4.01	-9.6223	-0.3248	-1.3261	0.0145	-0.0079	0.0116	45.3766	-5.9796	3.1751	0.3915	-0.6201	0.4266	0.5294
4.02	-9.6142	-0.3250	-1.3189	0.0201	-0.0130	0.0100	45.5168	-5.7409	3.1445	0.3915	-0.6201	0.4266	0.5293
4.03	-9.6062	-0.3110	-1.3073	0.0164	-0.0160	0.0108	45.4560	-5.6488	3.1016	0.3916	-0.6200	0.4267	0.5293
4.04	-9.6112	-0.3169	-1.3206	0.0140	-0.0174	0.0138	45.3632	-5.5919	3.1407	0.3916	-0.6200	0.4267	0.5294
4.05	-9.6076	-0.3221	-1.3021	0.0067	-0.0130	0.0103	45.2174	-5.9553	2.9696	0.3916	-0.6200	0.4266	0.5293
4.06	-9.6123	-0.3290	-1.2983	0.0115	-0.0171	0.0110	45.4761	-6.0216	3.0951	0.3916	-0.6200	0.4267	0.5294
4.07	-9.6079	-0.3286	-1.3151	0.0123	-0.0105	0.0062	45.3164	-5.7316	3.1116	0.3916	-0.6200	0.4266	0.5293
4.08	-9.6068	-0.3274	-1.3098	0.0088	-0.0120	0.0076	45.4525	-5.6516	3.1815	0.3917	-0.6201	0.4267	0.5294
4.09	-9.6054	-0.3252	-1.3145	0.0081	-0.0164	0.0091	45.5084	-5.7929	3.1625	0.3916	-0.6200	0.4266	0.5293
4.1	-9.6056	-0.3160	-1.3062	0.0082	-0.0124	0.0097	45.3647	-5.7374	3.2697	0.3917	-0.6200	0.4266	0.5294
4.11	-9.6057	-0.3245	-1.3085	0.0140	-0.0079	0.0064	45.4411	-5.6662	3.0713	0.3917	-0.6200	0.4266	0.5293
4.12	-9.6073	-0.3243	-1.2938	0.0090	-0.0105	0.0099	45.3302	-5.7031	3.0788	0.3917	-0.6200	0.4266	0.5293
4.13	-9.6103	-0.3209	-1.2920	0.0152	-0.0108	0.0106	45.2301	-5.5850	3.0595	0.3917	-0.6200	0.4267	0.5293
4.14	-9.6120	-0.3292	-1.2899	0.0175	-0.0133	0.0087	45.4067	-5.8850	3.3829	0.3917	-0.6200	0.4267	0.5293
4.15	-9.6063	-0.3318	-1.2869	0.0056	-0.0155	0.0088	45.7560	-5.7538	3.4535	0.3918	-0.6200	0.4267	0.5293
4.16	-9.6081	-0.3182	-1.2859	0.0134	-0.0108	0.0070	45.5952	-5.8387	3.4030	0.3917	-0.6199	0.4266	0.5292
4.17	-9.6156	-0.3339	-1.2812	0.0146	-0.0107	0.0139	45.4826	-5.9841	3.2400	0.3918	-0.6200	0.4267	0.5293
4.18	-9.6102	-0.3335	-1.2885	0.0064	-0.0103	0.0105	45.2981	-5.8082	3.2323	0.3918	-0.6199	0.4267	0.5293
4.19	-9.6035	-0.3163	-1.2906	0.0143	-0.0079	0.0082	45.3109	-6.0395	3.1858	0.3918	-0.6199	0.4267	0.5292
4.2	-9.6085	-0.3234	-1.2967	0.0042	-0.0074	0.0039	45.5931	-6.0145	3.0472	0.3918	-0.6200	0.4266	0.5293
4.21	-9.6076	-0.3301	-1.2939	-0.0009	-0.0123	0.0074	45.1888	-6.0393	3.2268	0.3917	-0.6200	0.4266	0.5293
4.22	-9.6048	-0.3274	-1.3076	0.0179	-0.0149	0.0112	45.1208	-5.8027	3.2358	0.3918	-0.6200	0.4266	0.5293
4.23	-9.6047	-0.3231	-1.3077	0.0152	-0.0095	0.0069	45.3744	-5.7692	3.2503	0.3918	-0.6199	0.4266	0.5292
4.24	-9.6054	-0.3259	-1.3277	0.0100	-0.0039	0.0047	45.3583	-5.8769	3.1191	0.3918	-0.6200	0.4266	0.5292
4.25	-9.6050	-0.3209	-1.3222	0.0065	-0.0067	0.0071	45.4850	-5.8605	3.2144	0.3918	-0.6200	0.4266	0.5292
4.26	-9.6056	-0.3294	-1.3143	0.0010	-0.0054	0.0014	45.3422	-5.5514	3.2444	0.3918	-0.6201	0.4266	0.5292
4.27	-9.6048	-0.3284	-1.3221	0.0025	-0.0076	0.0053	45.3734	-5.5152	3.2292	0.3918	-0.6201	0.4266	0.5291
4.28	-9.6061	-0.3297	-1.3246	0.0118	-0.0143	0.0047	45.1990	-5.6610	3.2261	0.3918	-0.6201	0.4265	0.5291
4.29	-9.6030	-0.3264	-1.3333	0.0112	-0.0088	0.0038	45.2703	-5.7618	3.2738	0.3918	-0.6202	0.4265	0.5291
4.3	-9.6048	-0.3304	-1.3273	0.0062	-0.0076	0.0096	45.4771	-5.7825	3.4440	0.3918	-0.6201	0.4265	0.5290
4.31	-9.6087	-0.3370	-1.3153	0.0121	-0.0115	0.0084	45.2973	-5.8732	3.2940	0.3919	-0.6202	0.4266	0.5291
4.32	-9.6192	-0.3362	-1.3209	0.0091	-0.0132	0.0143	45.3019	-6.0018	3.2248	0.3918	-0.6201	0.4265	0.5291
4.33	-9.6115	-0.3250	-1.3160	0.0028	-0.0136	0.0126	45.4309	-6.0491	3.2731	0.3918	-0.6202	0.4266	0.5292
4.34	-9.6074	-0.3245	-1.3159	0.0077	-0.0108	0.0071	45.4544	-5.9304	3.1418	0.3918	-0.6201	0.4265	0.5291
4.35	-9.6005	-0.3212	-1.3132	0.0052	-0.0121	0.0092	45.5069	-5.8362	3.1732	0.3918	-0.6202	0.4265	0.5291
4.36	-9.6048	-0.3043	-1.3111	0.0081	-0.0133	0.0066	45.4138	-5.8949	3.1225	0.3918	-0.6202	0.4265	0.5291
4.37	-9.6058	-0.3087	-1.3122	0.0086	-0.0109	0.0071	45.4508	-6.0513	3.3215	0.3918	-0.6202	0.4264	0.5291
4.38	-9.6090	-0.3103	-1.3097	0.0055	-0.0104	0.0075	45.3370	-5.9122	3.3572	0.3918	-0.6203	0.4265	0.5292
4.39	-9.6101	-0.3163	-1.3094	0.0008	-0.0098	0.0042	45.3731	-5.7333	3.0075	0.3918	-0.6202	0.4264	0.5291
4.4	-9.6105	-0.3203	-1.3043	0.0027	-0.0111	0.0111	45.5515	-6.0445	3.2385	0.3918	-0.6203	0.4264	0.5292
4.41	-9.6053	-0.3177	-1.3093	0.0052	-0.0108	0.0117	45.3422	-5.9336	3.2313	0.3917	-0.6202	0.4263	0.5291
4.42	-9.6055	-0.3245	-1.2956	0.0046	-0.0088	0.0112	45.1653	-5.8620	3.2856	0.3917	-0.6203	0.4264	0.5292
4.43	-9.6057	-0.3158	-1.2935	0.0021	-0.0113	0.0060	45.3552	-5.8328	3.2674	0.3917	-0.6203	0.4263	0.5291
4.44	-9.6066	-0.3251	-1.2869	0.0009	-0.0111	0.0090	45.3677	-5.6987	3.0257	0.3917	-0.6203	0.4263	0.5291
4.45	-9.6117	-0.3173	-1.2814	-0.0017	-0.0048	0.0094	45.2658	-5.5968	3.0709	0.3917	-0.6204	0.4263	0.5292
4.46	-9.6129	-0.3224	-1.2861	0.0018	-0.0084	0.0123	45.2847	-5.7669	3.1978	0.3916	-0.6204	0.4263	0.5292
4.47	-9.6066	-0.3279	-1.2903	0.0087	-0.0061	0.0084	45.0611	-5.5527	3.2427	0.3916	-0.6204	0.4263	0.5292
4.48	-9.6044	-0.3238	-1.2996	-0.0026	-0.0054	0.0043	45.3712	-5.5993	3.2228	0.3916	-0.6204	0.4262	0.5291
4.49	-9.6059	-0.3273	-1.3010	0.0002	-0.0107	0.0087	45.3270	-5.7178	3.3466	0.3916	-0.6205	0.4263	0.5292
4.5	-9.6046	-0.3279	-1.3042	0.0002	-0.0125	0.0090	45.2809	-5.7130	3.3147	0.3915	-0.6205	0.4262	0.5291
4.51	-9.6123	-0.3333	-1.2939	-0.0002	-0.0124	0.0119	45.4345	-5.8676	3.3354	0.3915	-0.6205	0.4262	0.5292
4.52	-9.6083	-0.3291	-1.3077	-0.0011	-0.0120	0.0127	45.5297	-5.9377	3.3305	0.3915	-0.6205	0.4262	0.5292
4.53	-9.6050	-0.3270	-1.3150	0.0008	-0.0082	0.0099	45.3670	-5.9545	3.4596	0.3914	-0.6205	0.4262	0.5292
4.54	-9.6183	-0.3301	-1.3165	0.0070	-0.0096	0.0108	45.5785	-5.9271	3.1481	0.3914	-0.6206	0.4262	0.5292
4.55	-9.6080	-0.3305	-1.3130	0.0117	-0.0104	0.0122	45.5430	-5.9509	2.9315	0.3914	-0.6205	0.4261	0.5292
4.56	-9.6083	-0.3318	-1.3054	0.0039	-0.0076	0.0088	45.4186	-6.0176	3.3374	0.3914	-0.6206	0.4262	0.5292
4.57	-9.6097	-0.3253	-1.3132	0.0064	-0.0087	0.0103	45.4214	-5.7829	3.2876	0.3914	-0.6206	0.4261	0.5292
4.58	-9.6203	-0.3247	-1.3168	0.0077	-0.0093	0.0097	45.5224	-5.7591	3.2169	0.3914	-0.6207	0.4262	0.5292
4.59	-9.6149	-0.3360	-1.3128	0.0118	-0.0128	0.0144	45.3564	-5.8814	3.2658	0.3913	-0.6206	0.4261	0.5292
4.6	-9.6045	-0.3252	-1.3161	0.0063	-0.0157	0.0136	45.2395	-5.8331	3.2072	0.3914	-0.6206	0.4262	0.5292
4.61	-9.6074	-0.3301	-1.3144	-0.0006	-0.0108	0.0088	45.3197	-5.7851	3.3085	0.3913	-0.6206	0.4262	0.5292
4.62	-9.6081	-0.3232	-1.3107	0.0036	-0.0064	0.0076	45.4497	-5.9806	3.3336	0.3913	-0.6206	0.4261	0.5292
4.63	-9.6092	-0.3202	-1.3176	0.0021	-0.0138	0.0074	45.2398	-5.9157	3.3454	0.3913	-0.6207	0.4261	0.5293
4.64	-9.6047	-0.3122	-1.2996	0.0012	-0.0057	0.0117	45.5656	-5.5928	3.4100	0.3913	-0.6207	0.4261	0.5292
4.65	-9.6070	-0.3226	-1.3117	0.0057	-0.0155	0.0094	45.5648	-5.6599	3.0217	0.3913	-0.6207	0.4261	0.5293
4.66	-9.6046	-0.3197	-1.3070	0.0070	-0.0189	0.0104	45.4232	-5.7576	3.2247	0.3912	-0.6206	0.4260	0.5292
4.67	-9.6100	-0.3287	-1.3068	0.0085	-0.0180	0.0137	45.3522	-5.8101	3.2760	0.3913	-0.6207	0.4261	0.5293
4.68	-9.6136	-0.3119	-1.3169	0.0083	-0.0109	0.0123	45.2611	-5.7844	3.3535	0.3913	-0.6206	0.4261	0.5293
4.69	-9.6259	-0.3124	-1.3112	0.0136	-0.0106	0.0116	45.2200	-5.9734	3.4404	0.3913	-0.6206	0.4261	0.5293
4.7	-9.6240	-0.3140	-1.3058	0.0076	-0.0167	0.0140	45.4751	-5.8115	3.2896	0.3913	-0.6206	0.4261	0.5293
4.71	-9.6183	-0.3068	-1.3055	0.0077	-0.0148	0.0165	45.4410	-5.8720	3.3531	0.3913	-0.6206	0.4261	0.5293
4.72	-9.6193	-0.3192	-1.3124	0.0054	-0.0167	0.0115	45.2794	-5.8105	3.2465	0.3913	-0.6206	0.4261	0.5294
4.73	-9.6051	-0.3229	-1.3071	0.0090	-0.0087	0.0086	45.4418	-5.9604	3.2285	0.3912	-0.6206	0.4261	0.5293
4.74	-9.6132	-0.3229	-1.2977	0.0122	-0.0104	0.0129	45.3049	-5.8792	3.2379	0.3913	-0.6206	0.4261	0.5294
4.75	-9.6133	-0.3201	-1.2988	-0.0000	-0.0153	0.0129	45.3583	-5.5990	3.2215	0.3912	-0.6206	0.4261	0.5294
4.76	-9.6079	-0.3175	-1.2949	0.0153	-0.0159	0.0144	45.2983	-5.7907	3.2333	0.3912	-0.6206	0.4261	0.5294
4.77	-9.6058	-0.3164	-1.2898	0.0120	-0.0113	0.0135	45.5339	-5.7373	3.2253	0.3912	-0.6205	0.4261	0.5294
4.78	-9.6074	-0.3291	-1.2921	0.0017	-0.0117	0.0121	45.4489	-5.9119	3.3732	0.3912	-0.6206	0.4261	0.5294
4.79	-9.6039	-0.3289	-1.2925	0.0040	-0.0165	0.0130	45.4122	-5.8995	3.4355	0.3912	-0.6206	0.4261	0.5294
4.8	-9.6093	-0.3226	-1.2962	0.0068	-0.0167	0.0135	45.3316	-5.7362	3.3171	0.3912	-0.6205	0.4261	0.5294
4.81	-9.6061	-0.3346	-1.2982	-0.0005	-0.0136	0.0133	45.4299	-5.8838	3.3129	0.3912	-0.6206	0.4261	0.5295
4.82	-9.6143	-0.3310	-1.2984	0.0015	-0.0127	0.0112	45.3858	-5.7943	3.3383	0.3911	-0.6206	0.4261	0.5295
4.83	-9.6112	-0.3317	-1.3087	0.0084	-0.0107	0.0104	45.2916	-5.7566	3.2531	0.3912	-0.6206	0.4261	0.5295
4.84	-9.6086	-0.3274	-1.3127	0.0078	-0.0122	0.0123	45.4557	-5.7539	3.1291	0.3911	-0.6205	0.4261	0.5295
4.85	-9.6089	-0.3261	-1.3125	0.0044	-0.0115	0.0112	45.4701	-6.0048	3.2720	0.3911	-0.6206	0.4261	0.5295
4.86	-9.6050	-0.3331	-1.3138	0.0010	-0.0140	0.0135	45.4138	-5.9544	3.2104	0.3911	-0.6206	0.4261	0.5295
4.87	-9.6123	-0.3292	-1.3158	0.0024	-0.0085	0.0117	45.3492	-5.6363	3.2968	0.3910	-0.6205	0.4261	0.5295
4.88	-9.6239	-0.3324	-1.3130	0.0009	-0.0077	0.0098	45.2269	-5.8128	3.5329	0.3910	-0.6207	0.4261	0.5296
4.89	-9.6102	-0.3339	-1.3081	-0.0001	-0.0176	0.0145	45.5266	-6.0902	3.1808	0.3910	-0.6206	0.4260	0.5296
4.9	-9.6128	-0.3232	-1.3064	0.0092	-0.0203	0.0126	45.4273	-5.6678	3.1822	0.3910	-0.6206	0.4261	0.5297
4.91	-9.6043	-0.3247	-1.3053	0.0107	-0.0171	0.0130	45.4008	-5.7599	3.3344	0.3910	-0.6205	0.4260	0.5296
4.92	-9.6121	-0.3237	-1.3127	0.0040	-0.0144	0.0178	45.5214	-6.0710	3.4394	0.3910	-0.6206	0.4260	0.5297
4.93	-9.6077	-0.3220	-1.2982	0.0024	-0.0131	0.0169	45.4493	-5.7999	3.3672	0.3909	-0.6205	0.4260	0.5297
4.94	-9.6095	-0.3220	-1.3106	0.0056	-0.0153	0.0176	45.3733	-5.6822	3.2347	0.3909	-0.6205	0.4260	0.5297
4.95	-9.6178	-0.3157	-1.3107	0.0069	-0.0138	0.0128	45.5553	-5.6703	3.1217	0.3909	-0.6205	0.4261	0.5298
4.96	-9.6036	-0.3149	-1.3151	0.0109	-0.0148	0.0132	45.3972	-5.8128	3.3093	0.3909	-0.6205	0.4261	0.5298
4.97	-9.6071	-0.3268	-1.3110	0.0131	-0.0089	0.0149	45.1716	-5.6794	3.2627	0.3909	-0.6205	0.4261	0.5298
4.98	-9.6012	-0.3328	-1.3030	0.0038	-0.0157	0.0124	45.4415	-5.7554	3.1970	0.3908	-0.6204	0.4261	0.5297
4.99	-9.6119	-0.3207	-1.3113	0.0036	-0.0160	0.0096	45.4967	-5.8649	3.3797	0.3909	-0.6205	0.4261	0.5298
5	-9.6135	-0.3172	-1.3145	0.0069	-0.0067	0.0090	45.4950	-5.8380	3.2361	0.3909	-0.6205	0.4261	0.5298
5.01	-9.6087	-0.3198	-1.3162	0.0037	-0.0129	0.0104	45.5004	-5.8073	3.3371	0.3909	-0.6205	0.4261	0.5298
5.02	-9.5986	-0.3174	-1.3090	0.0054	-0.0120	0.0071	45.3989	-5.6293	3.6507	0.3908	-0.6205	0.4260	0.5298
5.03	-9.6096	-0.3299	-1.3021	0.0020	-0.0156	0.0107	45.4013	-5.7571	3.3660	0.3908	-0.6205	0.4260	0.5298
5.04	-9.6067	-0.3300	-1.3042	0.0033	-0.0132	0.0095	45.2634	-5.8771	3.1650	0.3908	-0.6205	0.4260	0.5299
5.05	-9.6069	-0.3361	-1.3076	0.0125	-0.0082	0.0147	45.2402	-5.8412	3.3466	0.3908	-0.6205	0.4260	0.5298
5.06	-9.6086	-0.3290	-1.3098	0.0077	-0.0164	0.0137	45.3554	-5.8410	3.2956	0.3908	-0.6205	0.4261	0.5299
5.07	-9.6070	-0.3279	-1.3002	0.0021	-0.0180	0.0136	45.3161	-5.8826	3.3549	0.3908	-0.6205	0.4260	0.5299
5.08	-9.6031	-0.3251	-1.3008	0.0042	-0.0163	0.0165	45.3900	-5.9540	3.2351	0.3908	-0.6205	0.4261	0.5300
5.09	-9.6061	-0.3217	-1.2949	0.0017	-0.0118	0.0173	45.5156	-5.9070	3.2435	0.3907	-0.6204	0.4260	0.5299
5.1	-9.6071	-0.3154	-1.3025	0.0061	-0.0102	0.0145	45.5741	-5.9441	3.4484	0.3907	-0.6205	0.4261	0.5300
5.11	-9.6115	-0.3210	-1.3110	-0.0006	-0.0154	0.0150	45.4218	-5.8875	3.2245	0.3907	-0.6205	0.4260	0.5300
5.12	-9.6128	-0.3124	-1.3276	0.0048	-0.0127	0.0132	45.4096	-5.7540	3.2383	0.3906	-0.6204	0.4260	0.5300
5.13	-9.6148	-0.3363	-1.3144	0.0022	-0.0134	0.0108	45.4179	-5.7681	3.2239	0.3907	-0.6205	0.4261	0.5301
5.14	-9.6121	-0.3401	-1.3120	0.0012	-0.0138	0.0187	45.6775	-5.7514	3.3822	0.3906	-0.6204	0.4260	0.5301
5.15	-9.6076	-0.3487	-1.2929	0.0065	-0.0123	0.0128	45.7765	-5.7645	3.2195	0.3906	-0.6205	0.4261	0.5301
5.16	-9.6147	-0.3398	-1.2876	-0.0052	-0.0131	0.0120	45.6082	-5.7310	3.3257	0.3905	-0.6204	0.4260	0.5301
5.17	-9.6043	-0.3394	-1.2809	0.0034	-0.0174	0.0067	45.4717	-5.7204	3.2626	0.3905	-0.6205	0.4260	0.5302
5.18	-9.6170	-0.3216	-1.2901	0.0044	-0.0146	0.0037	45.3525	-5.7213	3.1402	0.3905	-0.6205	0.4259	0.5302
5.19	-9.5998	-0.3120	-1.2944	0.0004	-0.0079	0.0060	45.3446	-5.8163	3.4102	0.3905	-0.6205	0.4259	0.5301
5.2	-9.6064	-0.3007	-1.2996	0.0047	-0.0131	0.0053	45.3698	-5.7987	3.1032	0.3905	-0.6205	0.4259	0.5302
5.21	-9.6097	-0.2946	-1.2895	0.0038	-0.0056	0.0088	45.1952	-5.5921	3.2398	0.3905	-0.6205	0.4259	0.5301
5.22	-9.6034	-0.2967	-1.2875	-0.0011	-0.0074	0.0040	45.2304	-5.7127	3.1907	0.3905	-0.6206	0.4259	0.5302
5.23	-9.6164	-0.3113	-1.2888	-0.0013	-0.0077	0.0045	45.3692	-5.8044	3.1731	0.3904	-0.6206	0.4258	0.5301
5.24	-9.6097	-0.3224	-1.3018	-0.0025	-0.0055	0.0065	45.1525	-5.9208	3.0413	0.3904	-0.6207	0.4258	0.5301
5.25	-9.6193	-0.3354	-1.3078	0.0028	-0.0143	0.0106	45.0863	-5.7199	3.1685	0.3904	-0.6207	0.4258	0.5301
5.26	-9.6083	-0.3427	-1.3101	0.0071	-0.0168	0.0144	45.4217	-5.7915	3.3041	0.3904	-0.6207	0.4258	0.5302
5.27	-9.6065	-0.3386	-1.3178	0.0024	-0.0102	0.0129	45.5075	-5.8890	3.2291	0.3903	-0.6207	0.4258	0.5302
5.28	-9.6075	-0.3472	-1.3137	0.0000	-0.0158	0.0124	45.3186	-6.0311	3.3035	0.3903	-0.6207	0.4257	0.5302
5.29	-9.6094	-0.3289	-1.3181	0.0104	-0.0172	0.0091	45.5195	-5.8403	3.1848	0.3904	-0.6207	0.4257	0.5302
5.3	-9.6111	-0.3300	-1.3260	0.0150	-0.0127	0.0072	45.5183	-5.8013	3.1798	0.3903	-0.6206	0.4257	0.5302
5.31	-9.6082	-0.3244	-1.3182	0.0098	-0.0064	0.0125	45.3981	-5.6932	3.1476	0.3904	-0.6207	0.4258	0.5302
5.32	-9.6114	-0.3063	-1.3228	0.0125	-0.0105	0.0085	45.3577	-5.9393	3.2327	0.3904	-0.6207	0.4258	0.5302
5.33	-9.6043	-0.2981	-1.3188	0.0086	-0.0126	0.0102	45.5200	-5.9089	3.2273	0.3904	-0.6207	0.4258	0.5302
5.34	-9.6069	-0.3007	-1.3090	0.0108	-0.0107	0.0075	45.5226	-5.9657	3.0662	0.3904	-0.6206	0.4257	0.5302
5.35	-9.6037	-0.3105	-1.3097	0.0057	-0.0144	0.0099	45.3826	-5.9556	2.9827	0.3904	-0.6207	0.4257	0.5302
5.36	-9.6128	-0.3035	-1.3136	-0.0027	-0.0098	0.0103	45.2141	-5.6944	3.0314	0.3903	-0.6207	0.4257	0.5302
5.37	-9.6095	-0.3139	-1.3109	0.0032	-0.0081	0.0067	45.3777	-5.8080	3.1718	0.3903	-0.6207	0.4257	0.5302
5.38	-9.6151	-0.3201	-1.3066	0.0004	-0.0052	0.0073	45.3168	-5.8234	3.2753	0.3903	-0.6208	0.4257	0.5302
5.39	-9.6033	-0.3420	-1.3065	0.0060	-0.0060	0.0097	45.4126	-5.6434	3.2316	0.3903	-0.6208	0.4257	0.5302
5.4	-9.6073	-0.3734	-1.3009	0.0072	-0.0065	0.0094	45.3867	-5.6987	3.0821	0.3903	-0.6208	0.4257	0.5302
5.41	-9.6190	-0.3702	-1.2982	0.0151	-0.0086	0.0118	45.2676	-5.8056	3.0744	0.3902	-0.6208	0.4257	0.5301
5.42	-9.6074	-0.3369	-1.2852	0.0176	-0.0105	0.0089	45.3439	-5.8430	3.2039	0.3903	-0.6208	0.4257	0.5301
5.43	-9.6120	-0.2923	-1.2922	0.0122	-0.0069	0.0038	45.2571	-5.7190	3.1290	0.3903	-0.6208	0.4257	0.5301
5.44	-9.5999	-0.2723	-1.2799	0.0045	-0.0075	0.0125	45.2438	-5.8624	3.2824	0.3903	-0.6208	0.4257	0.5301
5.45	-9.5941	-0.3157	-1.2718	0.0084	-0.0165	0.0133	45.4823	-6.0690	3.0606	0.3903	-0.6208	0.4257	0.5301
5.46	-9.6279	-0.3306	-1.2998	0.0065	-0.0152	0.0138	45.6022	-5.9588	3.0016	0.3902	-0.6208	0.4257	0.5301
5.47	-9.6174	-0.3290	-1.2947	0.0074	-0.0124	0.0080	45.4731	-5.9136	3.1897	0.3903	-0.6208	0.4257	0.5302
5.48	-9.5959	-0.3325	-1.2880	0.0054	-0.0155	0.0074	45.5334	-5.8791	3.1628	0.3902	-0.6208	0.4256	0.5301
5.49	-9.6345	-0.3359	-1.3173	0.0067	-0.0172	0.0088	45.4941	-6.0652	3.2020	0.3903	-0.6209	0.4257	0.5302
5.5	-9.6153	-0.3447	-1.3205	0.0103	-0.0091	0.0128	45.3800	-5.9564	3.2936	0.3902	-0.6208	0.4257	0.5302
5.51	-9.5951	-0.3549	-1.3045	0.0105	-0.0086	0.0043	45.3202	-5.9229	3.1973	0.3903	-0.6209	0.4257	0.5302
5.52	-9.6189	-0.3406	-1.3244	0.0030	-0.0153	0.0098	45.4618	-5.7930	3.0558	0.3902	-0.6208	0.4256	0.5302
5.53	-9.6157	-0.3310	-1.3297	0.0037	-0.0148	0.0067	45.5143	-5.9025	3.1271	0.3903	-0.6209	0.4256	0.5302
5.54	-9.6025	-0.3192	-1.3073	0.0156	-0.0121	0.0119	45.5327	-5.7189	2.9975	0.3903	-0.6208	0.4256	0.5302
5.55	-9.6116	-0.2969	-1.3268	0.0051	-0.0094	0.0105	45.4358	-5.7161	3.0681	0.3902	-0.6208	0.4256	0.5301
5.56	-9.6175	-0.2922	-1.3150	0.0078	-0.0091	0.0101	45.2472	-5.7472	3.2795	0.3903	-0.6209	0.4257	0.5302
5.57	-9.6009	-0.2876	-1.3030	0.0027	-0.0038	0.0074	45.2597	-5.8264	3.2784	0.3902	-0.6209	0.4256	0.5301
5.58	-9.6059	-0.3006	-1.3034	-0.0020	-0.0071	0.0087	45.3293	-5.8094	3.3893	0.3902	-0.6210	0.4256	0.5302
5.59	-9.6157	-0.3320	-1.3119	0.0003	-0.0036	0.0054	45.3642	-5.8012	3.2349	0.3901	-0.6209	0.4256	0.5301
5.6	-9.6050	-0.3287	-1.3042	0.0042	-0.0066	0.0101	45.1247	-5.7279	3.1489	0.3901	-0.6210	0.4256	0.5301
5.61	-9.6065	-0.3208	-1.2971	0.0063	-0.0046	0.0062	45.4346	-5.8599	3.3781	0.3901	-0.6210	0.4256	0.5301
5.62	-9.5750	-0.3268	-1.2608	0.0011	-0.0052	0.0048	45.3528	-5.7001	3.1896	0.3901	-0.6210	0.4255	0.5300
5.63	-9.6653	-0.3429	-1.3182	0.0101	-0.0078	0.0103	45.2678	-5.8415	3.0496	0.3901	-0.6211	0.4256	0.5301
5.64	-9.6091	-0.3402	-1.2916	0.0054	-0.0095	0.0071	45.7759	-5.7642	3.2681	0.3901	-0.6211	0.4255	0.5300
5.65	-9.5878	-0.3424	-1.2683	-0.0008	-0.0152	0.0099	45.8676	-5.8865	3.4623	0.3901	-0.6211	0.4255	0.5301
5.66	-9.6386	-0.3435	-1.3183	0.0038	-0.0134	0.0155	45.6632	-5.7946	3.3936	0.3900	-0.6211	0.4255	0.5301
5.67	-9.6100	-0.3448	-1.2959	0.0140	-0.0150	0.0150	45.5096	-5.7371	3.5104	0.3901	-0.6211	0.4255	0.5301
5.68	-9.5925	-0.3571	-1.2701	0.0130	-0.0121	0.0180	45.2735	-5.9786	3.3929	0.3901	-0.6211	0.4256	0.5301
5.69	-9.6220	-0.3471	-1.3119	0.0119	-0.0119	0.0137	45.3402	-5.8734	3.2148	0.3901	-0.6210	0.4256	0.5301
5.7	-9.6140	-0.3331	-1.3055	0.0124	-0.0071	0.0130	45.4643	-5.6518	3.2374	0.3901	-0.6211	0.4256	0.5301
5.71	-9.5923	-0.3298	-1.2878	0.0151	-0.0107	0.0131	45.4185	-5.7056	3.0975	0.3901	-0.6210	0.4256	0.5301
5.72	-9.6089	-0.3292	-1.3136	0.0122	-0.0143	0.0144	45.2813	-5.8451	3.2201	0.3901	-0.6210	0.4257	0.5301
5.73	-9.6217	-0.3152	-1.3240	0.0109	-0.0085	0.0114	45.2795	-5.8605	3.2348	0.3900	-0.6210	0.4256	0.5300
5.74	-9.6028	-0.3105	-1.3133	0.0058	-0.0081	0.0104	45.2588	-5.7441	3.3300	0.3901	-0.6210	0.4257	0.5301
5.75	-9.6048	-0.3154	-1.3134	0.0007	-0.0105	0.0105	45.1840	-5.7914	3.1512	0.3900	-0.6210	0.4257	0.5301
5.76	-9.6238	-0.3196	-1.3269	0.0032	-0.0090	0.0113	45.4407	-5.7339	3.4250	0.3900	-0.6211	0.4257	0.5301
5.77	-9.6033	-0.3208	-1.3310	0.0001	-0.0091	0.0084	45.4354	-5.8917	3.2197	0.3900	-0.6211	0.4256	0.5301
5.78	-9.6134	-0.3139	-1.3413	0.0030	-0.0087	0.0099	45.4375	-5.6593	3.1173	0.3900	-0.6211	0.4256	0.5301
5.79	-9.6072	-0.3094	-1.3452	0.0035	-0.0161	0.0104	45.0859	-5.6384	3.1628	0.3900	-0.6211	0.4256	0.5301
5.8	-9.6091	-0.2993	-1.3517	0.0051	-0.0082	0.0168	45.2668	-5.7073	3.4257	0.3899	-0.6211	0.4256	0.5301
5.81	-9.6201	-0.3147	-1.3481	0.0103	-0.0134	0.0174	45.4515	-5.7690	3.2821	0.3899	-0.6211	0.4257	0.5302
5.82	-9.6237	-0.3299	-1.3375	0.0137	-0.0148	0.0152	45.2070	-5.8959	3.0848	0.3899	-0.6210	0.4257	0.5301
5.83	-9.6282	-0.3199	-1.3249	0.0126	-0.0102	0.0136	45.3758	-5.8011	3.2270	0.3900	-0.6211	0.4257	0.5302
5.84	-9.6129	-0.3303	-1.3074	0.0074	-0.0141	0.0099	45.3454	-5.9804	3.3296	0.3899	-0.6210	0.4257	0.5301
5.85	-9.6041	-0.3224	-1.2932	0.0065	-0.0127	0.0100	45.3659	-5.9690	3.2057	0.3899	-0.6211	0.4257	0.5302
5.86	-9.6125	-0.3271	-1.2920	0.0128	-0.0139	0.0124	45.5203	-5.8024	3.2876	0.3900	-0.6210	0.4257	0.5302
5.87	-9.6284	-0.3060	-1.2991	0.0200	-0.0083	0.0132	45.4515	-5.8751	3.3540	0.3899	-0.6210	0.4257	0.5301
5.88	-9.6131	-0.2948	-1.2887	0.0032	-0.0092	0.0129	45.3337	-5.7424	3.2807	0.3900	-0.6211	0.4258	0.5302
5.89	-9.6038	-0.2685	-1.2939	0.0038	-0.0120	0.0100	45.3801	-5.9112	3.1138	0.3899	-0.6210	0.4257	0.5301
5.9	-9.6109	-0.2731	-1.3103	0.0038	-0.0142	0.0151	45.3291	-5.9746	3.4042	0.3899	-0.6211	0.4257	0.5302
5.91	-9.6067	-0.2858	-1.3066	0.0017	-0.0203	0.0101	45.4512	-6.1378	3.4316	0.3899	-0.6210	0.4256	0.5302
5.92	-9.6003	-0.3080	-1.2743	0.0038	-0.0154	0.0097	45.4091	-5.8320	3.3868	0.3899	-0.6210	0.4257	0.5302
5.93	-9.5979	-0.3277	-1.2836	0.0002	-0.0059	0.0078	45.4847	-5.6110	3.2800	0.3899	-0.6211	0.4256	0.5302
5.94	-9.6160	-0.3296	-1.3065	0.0045	-0.0145	0.0120	45.2646	-5.8041	3.4067	0.3899	-0.6210	0.4256	0.5302
5.95	-9.6014	-0.3270	-1.2909	0.0079	-0.0083	0.0044	45.2908	-5.6489	3.3211	0.3899	-0.6211	0.4256	0.5302
5.96	-9.6068	-0.3342	-1.2995	0.0093	-0.0116	0.0086	45.5863	-5.7281	3.1561	0.3899	-0.6211	0.4256	0.5302
5.97	-9.6233	-0.3353	-1.3105	0.0112	-0.0109	0.0102	45.2754	-5.7726	3.1923	0.3899	-0.6211	0.4256	0.5302
5.98	-9.6119	-0.3258	-1.3023	0.0054	-0.0074	0.0152	45.2592	-5.7802	3.3091	0.3898	-0.6210	0.4256	0.5301
5.99	-9.6061	-0.3291	-1.2997	0.0069	-0.0148	0.0111	45.4853	-5.7353	3.4618	0.3899	-0.6211	0.4256	0.5302
6	-9.6078	-0.3520	-1.2832	0.0164	-0.0103	0.0135	45.5020	-5.8378	3.4490	0.3899	-0.6211	0.4256	0.5302
6.01	-9.6074	-0.3472	-1.2846	0.0139	-0.0136	0.0144	45.3318	-5.7795	3.1729	0.3899	-0.6211	0.4257	0.5302
6.02	-9.6058	-0.3567	-1.2804	0.0158	-0.0110	0.0145	45.4577	-5.7720	3.3695	0.3899	-0.6210	0.4257	0.5302
6.03	-9.6106	-0.3521	-1.2873	0.0178	-0.0159	0.0168	45.4083	-5.8409	3.2614	0.3899	-0.6210	0.4257	0.5302
6.04	-9.6060	-0.3420	-1.2836	0.0120	-0.0184	0.0115	45.5099	-5.7428	3.2631	0.3900	-0.6210	0.4257	0.5302
6.05	-9.6018	-0.3491	-1.2803	0.0168	-0.0131	0.0122	45.4434	-5.7135	3.4302	0.3900	-0.6209	0.4257	0.5301
6.06	-9.6164	-0.3556	-1.2913	0.0181	-0.0155	0.0156	45.4259	-5.5602	3.2877	0.3900	-0.6209	0.4258	0.5302
6.07	-9.6010	-0.3511	-1.3003	0.0159	-0.0103	0.0146	45.3028	-5.6460	3.1847	0.3900	-0.6209	0.4258	0.5302
6.08	-9.6062	-0.3545	-1.2983	0.0119	-0.0129	0.0148	45.2913	-5.7576	3.3210	0.3901	-0.6209	0.4259	0.5302
6.09	-9.6130	-0.3529	-1.3158	0.0121	-0.0158	0.0121	45.5713	-5.7730	3.3052	0.3900	-0.6208	0.4258	0.5301
6.1	-9.6077	-0.3363	-1.3102	0.0102	-0.0110	0.0156	45.4454	-5.8592	3.3655	0.3901	-0.6208	0.4259	0.5302
6.11	-9.6148	-0.3231	-1.3201	0.0122	-0.0053	0.0157	45.3329	-5.8489	3.1943	0.3900	-0.6208	0.4259	0.5302
6.12	-9.5965	-0.3027	-1.3239	0.0063	-0.0084	0.0156	45.3632	-5.8432	3.1758	0.3900	-0.6208	0.4259	0.5301
6.13	-9.5989	-0.2997	-1.3397	0.0042	-0.0082	0.0152	45.3583	-5.8653	3.4693	0.3900	-0.6209	0.4260	0.5302
6.14	-9.6147	-0.2894	-1.3497	0.0064	-0.0107	0.0086	45.5858	-5.8021	3.5056	0.3900	-0.6208	0.4259	0.5302
6.15	-9.6046	-0.2915	-1.3399	0.0016	-0.0102	0.0111	45.6055	-5.5440	3.4519	0.3900	-0.6209	0.4259	0.5302
6.16	-9.6126	-0.2931	-1.3514	0.0020	-0.0054	0.0090	45.4866	-5.7626	3.2782	0.3899	-0.6208	0.4259	0.5301
6.17	-9.6236	-0.2961	-1.3561	-0.0040	-0.0096	0.0046	45.2805	-5.6744	3.4443	0.3899	-0.6209	0.4259	0.5302
6.18	-9.6192	-0.2942	-1.3499	0.0089	-0.0077	0.0051	45.0389	-5.5742	3.2721	0.3899	-0.6209	0.4258	0.5301
6.19	-9.6083	-0.2977	-1.3460	0.0062	-0.0100	0.0117	45.2311	-5.8097	3.2594	0.3899	-0.6209	0.4258	0.5301
6.2	-9.6136	-0.3021	-1.3467	0.0123	-0.0149	0.0121	45.4561	-5.8855	3.0527	0.3899	-0.6209	0.4259	0.5302
6.21	-9.6161	-0.3015	-1.3460	0.0093	-0.0116	0.0121	45.3880	-6.0141	3.1372	0.3899	-0.6209	0.4258	0.5302
6.22	-9.6098	-0.2993	-1.3288	0.0134	-0.0149	0.0131	45.4772	-6.0463	3.1451	0.3899	-0.6209	0.4259	0.5302
6.23	-9.6130	-0.2834	-1.3306	0.0089	-0.0123	0.0107	45.5184	-5.7404	3.0398	0.3899	-0.6209	0.4258	0.5301
6.24	-9.6197	-0.2774	-1.3222	0.0075	-0.0147	0.0078	45.3696	-5.8719	3.1279	0.3900	-0.6209	0.4258	0.5302
6.25	-9.6074	-0.2652	-1.3139	0.0124	-0.0157	0.0123	45.4897	-6.0923	3.1665	0.3899	-0.6209	0.4258	0.5302
6.26	-9.6078	-0.2669	-1.3093	0.0077	-0.0165	0.0115	45.4461	-5.7720	2.9689	0.3900	-0.6209	0.4258	0.5302
6.27	-9.6122	-0.2863	-1.3021	-0.0026	-0.0135	0.0055	45.3209	-5.8900	3.0969	0.3899	-0.6209	0.4257	0.5302
6.28	-9.6072	-0.2972	-1.2882	-0.0016	-0.0141	0.0072	45.4421	-5.8978	3.2010	0.3899	-0.6209	0.4257	0.5302
6.29	-9.6047	-0.3086	-1.2825	0.0086	-0.0122	0.0120	45.3951	-5.8226	3.3291	0.3899	-0.6210	0.4257	0.5303
6.3	-9.6136	-0.3073	-1.2902	0.0038	-0.0089	0.0064	45.4212	-5.8005	3.3660	0.3899	-0.6209	0.4257	0.5302
6.31	-9.6074	-0.3228	-1.2987	0.0017	-0.0120	0.0067	45.3127	-5.6927	3.1156	0.3899	-0.6210	0.4257	0.5303
6.32	-9.5965	-0.3322	-1.2841	-0.0007	-0.0092	0.0070	45.2097	-5.6365	3.2112	0.3899	-0.6210	0.4256	0.5302
6.33	-9.6056	-0.3284	-1.2928	-0.0016	-0.0067	0.0006	45.1368	-5.8294	3.2744	0.3899	-0.6211	0.4256	0.5303
6.34	-9.6152	-0.3478	-1.2989	-0.0013	-0.0040	0.0011	45.2852	-5.7891	3.2279	0.3898	-0.6211	0.4255	0.5302
6.35	-9.6160	-0.3650	-1.2839	0.0028	-0.0056	0.0085	45.2011	-5.6063	3.2867	0.3898	-0.6212	0.4255	0.5302
6.36	-9.6122	-0.3722	-1.2721	-0.0002	-0.0082	0.0061	45.3665	-5.8276	3.3385	0.3898	-0.6212	0.4255	0.5302
6.37	-9.6092	-0.3729	-1.2732	-0.0021	-0.0067	0.0018	45.4247	-5.7110	3.0691	0.3898	-0.6212	0.4254	0.5302
6.38	-9.5966	-0.3618	-1.2661	0.0009	-0.0086	0.0085	45.4328	-5.7239	3.0733	0.3898	-0.6213	0.4255	0.5302
6.39	-9.6126	-0.3463	-1.2713	0.0058	-0.0153	0.0115	45.3641	-5.8295	3.1071	0.3898	-0.6213	0.4254	0.5302
6.4	-9.6217	-0.3115	-1.2849	-0.0009	-0.0119	0.0159	45.3811	-5.7722	3.2156	0.3898	-0.6213	0.4254	0.5303
6.41	-9.6045	-0.2972	-1.2814	-0.0004	-0.0125	0.0129	45.4229	-5.9029	3.0524	0.3897	-0.6213	0.4254	0.5302
6.42	-9.6103	-0.3042	-1.3035	-0.0022	-0.0088	0.0109	45.5340	-5.7526	3.0098	0.3897	-0.6213	0.4254	0.5303
6.43	-9.6248	-0.2996	-1.3058	-0.0027	-0.0075	0.0123	45.5734	-5.8634	2.9512	0.3896	-0.6214	0.4253	0.5303
6.44	-9.6050	-0.3090	-1.3071	0.0003	-0.0107	0.0109	45.3975	-5.8724	3.1663	0.3896	-0.6214	0.4253	0.5303
6.45	-9.6142	-0.3361	-1.3122	-0.0014	-0.0133	0.0111	45.3377	-5.9908	3.2589	0.3896	-0.6214	0.4253	0.5303
6.46	-9.6206	-0.3459	-1.3365	-0.0011	-0.0090	0.0090	45.4536	-6.0441	2.7893	0.3895	-0.6214	0.4252	0.5303
6.47	-9.6138	-0.3573	-1.3419	0.0053	-0.0115	0.0078	45.3658	-5.8891	3.2656	0.3895	-0.6215	0.4252	0.5304
6.48	-9.6085	-0.3527	-1.3533	-0.0005	-0.0114	0.0105	45.2325	-5.8145	3.2384	0.3894	-0.6214	0.4252	0.5303
6.49	-9.6094	-0.3206	-1.3542	-0.0025	-0.0121	0.0080	45.2651	-5.6893	3.2773	0.3895	-0.6215	0.4252	0.5304
6.5	-9.6170	-0.3124	-1.3417	0.0009	-0.0056	0.0061	45.3689	-5.6056	3.1867	0.3894	-0.6215	0.4251	0.5304
6.51	-9.6166	-0.3125	-1.3566	0.0022	-0.0106	0.0108	45.2617	-5.7163	3.1664	0.3894	-0.6216	0.4251	0.5304
6.52	-9.6014	-0.3516	-1.3435	0.0006	-0.0066	0.0047	45.1653	-5.7214	3.1392	0.3894	-0.6216	0.4251	0.5304
6.53	-9.5878	-0.3267	-1.3198	0.0007	-0.0100	0.0083	45.2846	-5.8459	3.1034	0.3894	-0.6216	0.4251	0.5304
6.54	-9.6350	-0.3005	-1.3427	0.0032	-0.0116	0.0089	45.2261	-5.7080	3.1495	0.3894	-0.6217	0.4250	0.5304
6.55	-9.6186	-0.3051	-1.3155	-0.0016	-0.0103	0.0071	45.3434	-5.5052	2.9503	0.3893	-0.6216	0.4250	0.5303
6.56	-9.5884	-0.3402	-1.2809	0.0025	-0.0113	0.0087	45.3317	-5.7848	3.1071	0.3893	-0.6217	0.4250	0.5304
6.57	-9.6082	-0.3837	-1.2754	0.0069	-0.0089	0.0078	45.2128	-6.0695	3.0762	0.3893	-0.6217	0.4250	0.5304
6.58	-9.6245	-0.4094	-1.3029	0.0011	-0.0171	0.0154	45.3767	-5.9922	3.0802	0.3893	-0.6218	0.4250	0.5305
6.59	-9.6130	-0.4030	-1.2801	0.0073	-0.0173	0.0132	45.5370	-5.8598	3.1722	0.3893	-0.6217	0.4249	0.5304
6.6	-9.6078	-0.3943	-1.2773	0.0007	-0.0139	0.0159	45.4325	-5.8969	3.2957	0.3893	-0.6217	0.4249	0.5305
6.61	-9.6233	-0.3769	-1.2774	0.0116	-0.0074	0.0152	45.4575	-5.8588	3.2028	0.3892	-0.6217	0.4249	0.5305
6.62	-9.5998	-0.3703	-1.2678	0.0139	-0.0089	0.0129	45.5179	-5.9570	3.1360	0.3892	-0.6217	0.4249	0.5304
6.63	-9.6048	-0.3616	-1.2534	0.0194	-0.0069	0.0161	45.3039	-6.0632	3.4058	0.3893	-0.6217	0.4251	0.5305
6.64	-9.6106	-0.3446	-1.2703	0.0112	-0.0141	0.0174	45.7131	-5.7820	3.5648	0.3893	-0.6216	0.4250	0.5304
6.65	-9.6084	-0.3395	-1.2774	0.0149	-0.0109	0.0103	45.7067	-6.0509	3.4731	0.3893	-0.6217	0.4251	0.5305
6.66	-9.6038	-0.3295	-1.2974	0.0194	-0.0094	0.0151	45.4416	-5.9274	3.3184	0.3893	-0.6216	0.4251	0.5304
6.67	-9.6043	-0.3369	-1.3068	0.0104	-0.0111	0.0169	45.2630	-5.7522	3.2961	0.3893	-0.6216	0.4251	0.5304
6.68	-9.6065	-0.3148	-1.3231	0.0097	-0.0071	0.0172	45.0938	-5.7093	3.4139	0.3893	-0.6216	0.4252	0.5304
6.69	-9.6050	-0.2846	-1.3409	0.0067	-0.0126	0.0148	45.0083	-5.7546	3.3329	0.3893	-0.6216	0.4252	0.5304
6.7	-9.6108	-0.2401	-1.3616	0.0055	-0.0100	0.0095	45.2636	-5.8920	3.1990	0.3893	-0.6216	0.4252	0.5304
6.71	-9.6026	-0.2411	-1.3267	0.0057	-0.0116	0.0127	45.2913	-5.8141	3.1483	0.3892	-0.6216	0.4252	0.5304
6.72	-9.6206	-0.2745	-1.3275	0.0045	-0.0104	0.0141	45.5181	-5.9457	3.3262	0.3892	-0.6216	0.4252	0.5304
6.73	-9.6228	-0.2760	-1.3357	0.0100	-0.0132	0.0161	45.4840	-5.8373	3.3304	0.3892	-0.6215	0.4251	0.5304
6.74	-9.6160	-0.2819	-1.3234	0.0028	-0.0157	0.0151	45.1172	-5.8939	3.3022	0.3892	-0.6216	0.4252	0.5305
6.75	-9.6280	-0.3018	-1.3174	0.0023	-0.0198	0.0161	45.3288	-5.7585	3.3484	0.3892	-0.6215	0.4252	0.5305
6.76	-9.6201	-0.3215	-1.3068	0.0098	-0.0171	0.0180	45.3832	-5.6952	3.2161	0.3892	-0.6215	0.4252	0.5306
6.77	-9.6071	-0.3000	-1.2896	0.0165	-0.0146	0.0145	45.3745	-6.0006	3.3470	0.3892	-0.6215	0.4252	0.5305
6.78	-9.6104	-0.2907	-1.2835	0.0161	-0.0205	0.0177	45.3449	-5.7649	3.3987	0.3892	-0.6214	0.4252	0.5306
6.79	-9.6051	-0.2748	-1.2802	0.0089	-0.0179	0.0139	45.4503	-5.8224	3.0818	0.3893	-0.6214	0.4252	0.5306
6.8	-9.6007	-0.2794	-1.2721	0.0083	-0.0108	0.0097	45.3833	-5.9233	3.3403	0.3892	-0.6214	0.4252	0.5305
6.81	-9.6002	-0.2827	-1.2763	0.0070	-0.0160	0.0137	45.2736	-6.0683	3.3162	0.3893	-0.6214	0.4252	0.5306
6.82	-9.6021	-0.2967	-1.2819	0.0099	-0.0147	0.0160	45.4301	-5.9291	3.1914	0.3892	-0.6214	0.4252	0.5306
6.83	-9.6098	-0.3284	-1.2910	0.0039	-0.0147	0.0178	45.2857	-5.8215	3.0571	0.3893	-0.6214	0.4253	0.5307
6.84	-9.6047	-0.3426	-1.2888	0.0081	-0.0068	0.0126	45.3732	-5.8742	3.1315	0.3892	-0.6213	0.4252	0.5306
6.85	-9.6048	-0.3752	-1.2998	0.0066	-0.0101	0.0113	45.5957	-5.8350	3.3028	0.3892	-0.6214	0.4252	0.5306
6.86	-9.6041	-0.3785	-1.3099	0.0041	-0.0124	0.0132	45.4257	-5.8655	3.4814	0.3892	-0.6214	0.4252	0.5306
6.87	-9.6043	-0.3627	-1.3106	0.0029	-0.0080	0.0089	45.2600	-5.8449	3.2140	0.3892	-0.6214	0.4252	0.5306
6.88	-9.6069	-0.3602	-1.3120	0.0087	-0.0114	0.0048	45.4918	-5.8664	3.3414	0.3892	-0.6215	0.4252	0.5307
6.89	-9.6128	-0.3394	-1.3049	0.0049	-0.0131	0.0077	45.2890	-5.9552	3.4473	0.3892	-0.6214	0.4252	0.5306
6.9	-9.6155	-0.3196	-1.3166	0.0079	-0.0083	0.0095	45.3164	-5.7305	3.3303	0.3892	-0.6215	0.4252	0.5306
6.91	-9.6039	-0.3036	-1.3065	0.0132	-0.0136	0.0092	45.1147	-5.9020	3.2980	0.3892	-0.6214	0.4252	0.5306
6.92	-9.6031	-0.3264	-1.2956	0.0126	-0.0139	0.0114	45.2367	-5.7928	3.4539	0.3893	-0.6214	0.4252	0.5306
6.93	-9.6049	-0.3290	-1.3154	0.0072	-0.0088	0.0140	45.1517	-5.6944	3.4840	0.3892	-0.6214	0.4252	0.5306
6.94	-9.6127	-0.3356	-1.3112	0.0092	-0.0184	0.0133	45.1496	-5.8766	3.2239	0.3892	-0.6214	0.4252	0.5306
6.95	-9.6080	-0.3373	-1.3115	0.0125	-0.0163	0.0142	45.4493	-5.8574	3.2338	0.3893	-0.6214	0.4252	0.5306
6.96	-9.6066	-0.3365	-1.3093	0.0142	-0.0162	0.0120	45.3940	-5.8207	3.2364	0.3893	-0.6213	0.4252	0.5306
6.97	-9.6123	-0.3420	-1.2997	0.0100	-0.0185	0.0111	45.4283	-5.7727	3.2289	0.3893	-0.6213	0.4252	0.5307
6.98	-9.6046	-0.3306	-1.3004	0.0076	-0.0154	0.0168	45.4550	-6.0581	3.2462	0.3893	-0.6212	0.4252	0.5306
6.99	-9.6042	-0.3191	-1.2892	0.0204	-0.0098	0.0162	45.3776	-5.8874	3.2283	0.3893	-0.6213	0.4253	0.5307
7	-9.6059	-0.3111	-1.2871	0.0111	-0.0097	0.0171	45.3209	-5.8571	3.3985	0.3893	-0.6212	0.4253	0.5307
7.01	-9.6073	-0.3120	-1.2866	0.0130	-0.0159	0.0143	45.5580	-5.7962	3.1286	0.3893	-0.6212	0.4253	0.5307
7.02	-9.5992	-0.3188	-1.2920	0.0113	-0.0135	0.0189	45.3269	-5.7401	3.2605	0.3893	-0.6212	0.4253	0.5307
7.03	-9.6058	-0.3251	-1.2864	0.0008	-0.0059	0.0167	45.3435	-5.7140	3.2899	0.3893	-0.6212	0.4254	0.5307
7.04	-9.6059	-0.3365	-1.2949	0.0154	-0.0131	0.0182	45.4547	-5.9587	3.2611	0.3893	-0.6212	0.4254	0.5307
7.05	-9.6046	-0.3350	-1.2963	0.0108	-0.0160	0.0198	45.2680	-5.5578	3.3518	0.3893	-0.6211	0.4254	0.5307
7.06	-9.6033	-0.3510	-1.3015	0.0119	-0.0094	0.0107	45.1843	-5.8538	3.2813	0.3893	-0.6212	0.4255	0.5307
7.07	-9.6033	-0.3527	-1.3083	0.0098	-0.0067	0.0125	45.2854	-5.7911	3.3617	0.3893	-0.6211	0.4254	0.5307
7.08	-9.6048	-0.3454	-1.3054	0.0071	-0.0100	0.0190	45.4182	-5.6265	3.2177	0.3893	-0.6212	0.4255	0.5307
7.09	-9.6069	-0.3314	-1.3231	0.0099	-0.0079	0.0149	45.2763	-5.8186	3.2511	0.3892	-0.6211	0.4255	0.5307
7.1	-9.6222	-0.3182	-1.3381	0.0077	-0.0074	0.0170	45.2734	-5.7297	3.2983	0.3892	-0.6211	0.4255	0.5307
7.11	-9.6193	-0.3108	-1.3382	0.0023	-0.0054	0.0132	45.2020	-5.8607	3.2165	0.3892	-0.6212	0.4255	0.5307
7.12	-9.6061	-0.3112	-1.3469	0.0085	-0.0070	0.0109	45.4823	-5.7798	3.2113	0.3892	-0.6211	0.4255	0.5307
7.13	-9.6054	-0.3191	-1.3486	0.0067	-0.0103	0.0149	45.3319	-5.6833	3.4603	0.3892	-0.6212	0.4256	0.5307
7.14	-9.6157	-0.3198	-1.3467	0.0085	-0.0139	0.0138	45.8040	-5.7870	3.6024	0.3892	-0.6211	0.4255	0.5307
7.15	-9.6200	-0.3233	-1.3455	0.0062	-0.0114	0.0133	46.0065	-5.5468	3.4093	0.3892	-0.6212	0.4256	0.5307
7.16	-9.6057	-0.3144	-1.3384	0.0016	-0.0129	0.0090	45.7111	-5.7442	3.3395	0.3891	-0.6211	0.4255	0.5307
7.17	-9.6142	-0.3066	-1.3357	0.0080	-0.0149	0.0159	45.5076	-5.7674	3.2055	0.3892	-0.6212	0.4255	0.5307
7.18	-9.6228	-0.2799	-1.3285	-0.0002	-0.0101	0.0144	45.1807	-5.7465	3.2513	0.3891	-0.6211	0.4255	0.5308
7.19	-9.6141	-0.2660	-1.3234	0.0040	-0.0121	0.0119	45.4032	-5.8785	3.2627	0.3891	-0.6211	0.4255	0.5308
7.2	-9.6062	-0.2606	-1.3147	0.0027	-0.0112	0.0128	45.4769	-5.8551	3.2661	0.3891	-0.6212	0.4255	0.5308
7.21	-9.6081	-0.2562	-1.3024	-0.0003	-0.0097	0.0093	45.3990	-5.8682	3.1346	0.3891	-0.6212	0.4255	0.5308
7.22	-9.6044	-0.2673	-1.2978	-0.0011	-0.0147	0.0071	45.5378	-5.8374	3.2515	0.3891	-0.6212	0.4254	0.5308
7.23	-9.6070	-0.2653	-1.2877	-0.0012	-0.0090	0.0120	45.2942	-5.5868	3.2699	0.3890	-0.6212	0.4254	0.5308
7.24	-9.6102	-0.2941	-1.2926	-0.0050	-0.0071	0.0111	45.4163	-5.6507	3.1330	0.3890	-0.6213	0.4254	0.5309
7.25	-9.6054	-0.3207	-1.2806	-0.0043	-0.0096	0.0066	45.2662	-5.6836	3.0671	0.3889	-0.6213	0.4253	0.5308
7.26	-9.6100	-0.3413	-1.2731	0.0012	-0.0101	0.0106	45.4173	-5.5682	3.3599	0.3889	-0.6213	0.4253	0.5309
7.27	-9.6119	-0.3687	-1.2723	0.0031	-0.0083	0.0058	45.2934	-5.7418	3.3236	0.3889	-0.6213	0.4253	0.5308
7.28	-9.6025	-0.3753	-1.2811	-0.0006	-0.0067	0.0064	45.2270	-5.6586	3.2675	0.3889	-0.6214	0.4253	0.5308
7.29	-9.6033	-0.3851	-1.2863	-0.0029	-0.0055	0.0143	45.2296	-5.7927	3.3723	0.3888	-0.6214	0.4253	0.5309
7.3	-9.5989	-0.3648	-1.2914	0.0114	-0.0073	0.0096	45.2529	-5.7023	3.3329	0.3888	-0.6214	0.4252	0.5308
7.31	-9.6035	-0.3583	-1.3005	0.0078	-0.0128	0.0101	45.1046	-5.6208	3.3388	0.3889	-0.6215	0.4253	0.5309
7.32	-9.5993	-0.3547	-1.2979	0.0099	-0.0108	0.0129	45.2558	-6.0072	3.2101	0.3888	-0.6214	0.4253	0.5308
7.33	-9.6072	-0.3487	-1.3115	0.0088	-0.0096	0.0171	45.3359	-5.8417	3.1275	0.3889	-0.6215	0.4253	0.5309
7.34	-9.6080	-0.3447	-1.3136	0.0064	-0.0122	0.0122	45.3924	-5.9704	3.4019	0.3888	-0.6214	0.4253	0.5308
7.35	-9.6105	-0.3301	-1.3281	0.0035	-0.0071	0.0166	45.4914	-5.7986	3.1713	0.3888	-0.6214	0.4253	0.5308
7.36	-9.6093	-0.3297	-1.3391	0.0031	-0.0034	0.0093	45.3461	-5.8262	3.0787	0.3888	-0.6215	0.4253	0.5308
7.37	-9.6064	-0.3309	-1.3356	-0.0012	-0.0088	0.0102	45.5145	-6.1718	3.0240	0.3887	-0.6215	0.4253	0.5308
7.38	-9.6120	-0.3571	-1.3379	0.0030	-0.0074	0.0133	45.3734	-5.8661	3.0034	0.3887	-0.6216	0.4253	0.5309
7.39	-9.6084	-0.3649	-1.3379	0.0082	-0.0072	0.0114	45.4427	-5.9232	3.1146	0.3887	-0.6215	0.4253	0.5308
7.4	-9.6116	-0.3532	-1.3351	0.0028	-0.0104	0.0089	45.3093	-5.8829	3.1128	0.3887	-0.6216	0.4253	0.5309
7.41	-9.6122	-0.3369	-1.3290	0.0025	-0.0092	0.0111	45.4136	-5.9379	3.3123	0.3886	-0.6215	0.4252	0.5308
7.42	-9.5977	-0.3372	-1.3116	0.0105	-0.0108	0.0143	45.3619	-5.9421	3.2151	0.3886	-0.6216	0.4253	0.5309
7.43	-9.6095	-0.3252	-1.3137	0.0100	-0.0103	0.0143	45.3353	-5.8126	3.3543	0.3886	-0.6215	0.4253	0.5308
7.44	-9.6162	-0.3151	-1.3147	0.0046	-0.0067	0.0096	45.1626	-5.6906	3.2590	0.3886	-0.6216	0.4253	0.5308
7.45	-9.6025	-0.3101	-1.2963	0.0069	-0.0059	0.0111	45.2488	-5.8098	3.1813	0.3886	-0.6216	0.4253	0.5308
7.46	-9.6054	-0.2917	-1.2884	0.0097	-0.0100	0.0127	45.3198	-5.7378	3.3749	0.3886	-0.6216	0.4253	0.5308
7.47	-9.6056	-0.2926	-1.2832	0.0013	-0.0070	0.0137	45.1813	-5.7089	3.3828	0.3886	-0.6216	0.4253	0.5308
7.48	-9.6053	-0.2984	-1.2923	0.0017	-0.0076	0.0095	45.2772	-5.6065	3.4697	0.3885	-0.6216	0.4252	0.5308
7.49	-9.6059	-0.3066	-1.3001	-0.0003	-0.0077	0.0111	45.1748	-5.7474	3.0831	0.3885	-0.6217	0.4253	0.5308
7.5	-9.6067	-0.3191	-1.3042	0.0058	-0.0148	0.0142	45.2314	-5.6159	3.2451	0.3885	-0.6216	0.4252	0.5308
7.51	-9.6069	-0.3183	-1.3054	0.0107	-0.0083	0.0098	45.3964	-5.7382	3.2534	0.3885	-0.6217	0.4253	0.5308
7.52	-9.6026	-0.3307	-1.3118	0.0019	-0.0090	0.0066	45.4906	-5.8842	3.3583	0.3885	-0.6217	0.4252	0.5308
7.53	-9.6137	-0.3089	-1.3140	0.0079	-0.0083	0.0152	45.7762	-5.8617	3.3612	0.3885	-0.6217	0.4252	0.5308
7.54	-9.6092	-0.2788	-1.3241	-0.0006	-0.0110	0.0125	45.4994	-5.9843	3.1564	0.3885	-0.6217	0.4252	0.5308
7.55	-9.6171	-0.2659	-1.3237	-0.0014	-0.0094	0.0126	45.4009	-5.9101	3.2766	0.3884	-0.6217	0.4252	0.5308
7.56	-9.6109	-0.2557	-1.3295	0.0020	-0.0113	0.0103	45.2993	-5.9913	3.3406	0.3884	-0.6218	0.4252	0.5309
7.57	-9.6147	-0.2659	-1.3462	0.0016	-0.0135	0.0057	45.3319	-5.8710	3.1131	0.3884	-0.6218	0.4251	0.5308
7.58	-9.6078	-0.2943	-1.3385	-0.0015	-0.0136	0.0055	45.3133	-5.9246	3.2520	0.3884	-0.6218	0.4251	0.5309
7.59	-9.6042	-0.3220	-1.3345	0.0007	-0.0149	0.0114	45.3268	-6.0332	3.3720	0.3884	-0.6218	0.4250	0.5309
7.6	-9.6094	-0.3390	-1.3342	0.0029	-0.0138	0.0068	45.1879	-5.8442	3.3168	0.3884	-0.6218	0.4250	0.5309
7.61	-9.6165	-0.3565	-1.3372	0.0057	-0.0077	0.0052	45.3267	-5.8172	3.0557	0.3884	-0.6218	0.4250	0.5309
7.62	-9.6028	-0.3705	-1.3232	0.0067	-0.0026	0.0079	45.2415	-5.4909	3.1561	0.3884	-0.6218	0.4250	0.5308
7.63	-9.6136	-0.3704	-1.3133	-0.0018	-0.0064	0.0111	45.2379	-5.6576	3.2660	0.3884	-0.6220	0.4250	0.5309
7.64	-9.6118	-0.3704	-1.3090	0.0041	-0.0067	0.0121	45.4789	-5.7096	3.5466	0.3883	-0.6219	0.4250	0.5308
7.65	-9.6056	-0.3554	-1.2913	0.0101	-0.0073	0.0091	45.6523	-5.6825	3.6539	0.3883	-0.6220	0.4250	0.5309
7.66	-9.6082	-0.3422	-1.2844	0.0060	-0.0073	0.0164	45.4802	-5.7304	3.5072	0.3883	-0.6219	0.4250	0.5308
7.67	-9.6121	-0.3448	-1.2820	0.0064	-0.0148	0.0146	45.3323	-5.7821	3.2740	0.3883	-0.6219	0.4250	0.5309
7.68	-9.6022	-0.3356	-1.2887	0.0092	-0.0089	0.0112	45.1443	-5.8333	3.5019	0.3883	-0.6219	0.4250	0.5308
7.69	-9.5952	-0.3419	-1.2738	0.0076	-0.0106	0.0107	45.1723	-5.6926	3.3997	0.3883	-0.6219	0.4250	0.5308
7.7	-9.6144	-0.3493	-1.2915	0.0040	-0.0134	0.0132	45.4343	-5.7009	3.3183	0.3883	-0.6220	0.4250	0.5309
7.71	-9.6082	-0.3533	-1.2940	0.0062	-0.0152	0.0174	45.5568	-5.7814	3.4127	0.3883	-0.6219	0.4250	0.5309
7.72	-9.6002	-0.3502	-1.2852	0.0122	-0.0183	0.0114	45.5351	-5.8006	3.2297	0.3883	-0.6219	0.4250	0.5309
7.73	-9.6230	-0.3497	-1.2959	0.0115	-0.0090	0.0154	45.5404	-5.9672	3.2357	0.3883	-0.6218	0.4250	0.5308
7.74	-9.6143	-0.3359	-1.2851	0.0132	-0.0166	0.0184	45.5483	-5.8067	3.1400	0.3883	-0.6219	0.4251	0.5309
7.75	-9.6029	-0.3264	-1.3054	0.0114	-0.0107	0.0160	45.3726	-5.7662	3.2812	0.3883	-0.6218	0.4251	0.5309
7.76	-9.6052	-0.3226	-1.3050	0.0063	-0.0114	0.0139	45.1909	-5.7810	3.4057	0.3883	-0.6219	0.4251	0.5309
7.77	-9.6070	-0.3029	-1.2936	0.0177	-0.0125	0.0138	45.3097	-5.7762	3.3080	0.3883	-0.6218	0.4251	0.5309
7.78	-9.6094	-0.2903	-1.3054	0.0119	-0.0155	0.0117	45.4127	-5.7703	3.2026	0.3883	-0.6218	0.4251	0.5309
7.79	-9.6066	-0.2775	-1.3025	0.0095	-0.0158	0.0153	45.5000	-5.7769	3.4492	0.3883	-0.6218	0.4251	0.5309
7.8	-9.6071	-0.2673	-1.3100	0.0031	-0.0063	0.0144	45.2936	-5.7663	3.2276	0.3883	-0.6218	0.4251	0.5309
7.81	-9.6104	-0.2641	-1.3075	0.0129	-0.0043	0.0172	45.3016	-5.7912	3.1230	0.3883	-0.6218	0.4252	0.5309
7.82	-9.6070	-0.2602	-1.3065	0.0070	-0.0105	0.0150	45.3029	-5.8804	3.2905	0.3883	-0.6218	0.4252	0.5309
7.83	-9.6062	-0.2765	-1.3179	0.0053	-0.0080	0.0143	45.3030	-5.8441	3.1202	0.3883	-0.6219	0.4252	0.5309
7.84	-9.6096	-0.2907	-1.3332	0.0116	-0.0056	0.0149	45.3029	-5.8787	3.2441	0.3882	-0.6218	0.4252	0.5308
7.85	-9.6068	-0.3192	-1.3426	0.0056	-0.0128	0.0171	45.2889	-5.6086	3.3210	0.3882	-0.6218	0.4252	0.5309
7.86	-9.6062	-0.3398	-1.3329	0.0021	-0.0145	0.0154	45.4947	-5.8314	3.3273	0.3882	-0.6218	0.4252	0.5309
7.87	-9.6110	-0.3377	-1.3336	0.0058	-0.0127	0.0133	45.5869	-5.7997	3.2471	0.3882	-0.6218	0.4252	0.5309
7.88	-9.6095	-0.3454	-1.3373	0.0057	-0.0115	0.0185	45.2336	-5.6623	3.2091	0.3882	-0.6218	0.4253	0.5310
7.89	-9.6044	-0.3516	-1.3233	0.0143	-0.0217	0.0164	45.3796	-5.8486	3.1008	0.3882	-0.6217	0.4252	0.5310
7.9	-9.6062	-0.3644	-1.3155	0.0111	-0.0144	0.0181	45.5520	-5.8486	3.0178	0.3882	-0.6217	0.4253	0.5310
7.91	-9.6183	-0.3513	-1.3165	0.0136	-0.0162	0.0134	45.6093	-5.8577	3.1774	0.3882	-0.6216	0.4252	0.5309
7.92	-9.6097	-0.3375	-1.3111	0.0100	-0.0161	0.0121	45.6444	-5.8356	3.2221	0.3882	-0.6217	0.4253	0.5310
7.93	-9.6010	-0.3408	-1.3140	0.0089	-0.0146	0.0141	45.5713	-5.7280	3.2814	0.3882	-0.6217	0.4253	0.5310
7.94	-9.6138	-0.3395	-1.3168	0.0121	-0.0145	0.0129	45.4884	-5.8605	3.0508	0.3883	-0.6216	0.4253	0.5310
7.95	-9.6136	-0.3293	-1.3126	0.0095	-0.0133	0.0145	45.3417	-5.8514	3.0761	0.3883	-0.6216	0.4253	0.5310
7.96	-9.6078	-0.3266	-1.3095	0.0064	-0.0095	0.0153	45.4494	-5.7457	3.3830	0.3882	-0.6216	0.4253	0.5310
7.97	-9.6166	-0.3151	-1.3091	0.0134	-0.0128	0.0154	45.3850	-5.7941	3.2891	0.3883	-0.6216	0.4253	0.5310
7.98	-9.6081	-0.3250	-1.3067	0.0060	-0.0097	0.0154	45.4594	-5.7538	3.3251	0.3882	-0.6216	0.4253	0.5310
7.99	-9.6140	-0.3237	-1.3047	0.0083	-0.0095	0.0163	45.5235	-5.6993	3.3252	0.3882	-0.6216	0.4253	0.5310
8	-9.5995	-0.3143	-1.3067	0.0109	-0.0070	0.0122	45.3326	-5.8060	3.2727	0.3882	-0.6216	0.4253	0.5310
8.01	-9.6152	-0.3191	-1.3063	0.0093	-0.0111	0.0142	45.3985	-5.9713	3.2145	0.3882	-0.6216	0.4254	0.5310
8.02	-9.6093	-0.3143	-1.3084	0.0051	-0.0127	0.0146	45.3851	-5.8073	3.2388	0.3882	-0.6216	0.4253	0.5310
8.03	-9.6022	-0.3064	-1.2957	0.0116	-0.0161	0.0137	45.3437	-5.8325	3.2308	0.3882	-0.6216	0.4254	0.5310
8.04	-9.6080	-0.3037	-1.3084	0.0012	-0.0113	0.0140	45.3224	-5.9455	3.4120	0.3882	-0.6216	0.4254	0.5311
8.05	-9.6033	-0.3121	-1.3079	0.0022	-0.0047	0.0131	45.4128	-5.7395	3.3924	0.3881	-0.6216	0.4253	0.5310
8.06	-9.6035	-0.3122	-1.3027	0.0070	-0.0093	0.0187	45.2478	-5.7911	3.4217	0.3882	-0.6216	0.4254	0.5311
8.07	-9.6040	-0.3157	-1.3063	0.0078	-0.0179	0.0156	45.3693	-5.7734	3.2024	0.3881	-0.6216	0.4254	0.5311
8.08	-9.6068	-0.3164	-1.3041	0.0073	-0.0185	0.0162	45.5822	-5.7539	3.1126	0.3882	-0.6216	0.4254	0.5311
8.09	-9.6039	-0.3231	-1.3116	0.0059	-0.0183	0.0169	45.4301	-5.8660	3.2455	0.3881	-0.6215	0.4253	0.5311
8.1	-9.6079	-0.3343	-1.3164	0.0056	-0.0123	0.0179	45.5002	-6.0549	3.1289	0.3881	-0.6215	0.4254	0.5312
8.11	-9.6130	-0.3299	-1.3238	0.0071	-0.0150	0.0138	45.3840	-5.8182	3.1477	0.3881	-0.6215	0.4254	0.5312
8.12	-9.6052	-0.3431	-1.3169	0.0079	-0.0145	0.0161	45.4572	-5.6717	3.1458	0.3881	-0.6215	0.4253	0.5312
8.13	-9.6072	-0.3283	-1.3175	0.0097	-0.0179	0.0175	45.4508	-5.7103	3.1174	0.3882	-0.6215	0.4254	0.5313
8.14	-9.6087	-0.3315	-1.3233	0.0005	-0.0174	0.0164	45.6479	-5.7711	3.3522	0.3881	-0.6214	0.4254	0.5313
8.15	-9.6056	-0.3210	-1.3234	0.0036	-0.0110	0.0117	45.8562	-5.5799	3.6230	0.3881	-0.6215	0.4254	0.5313
8.16	-9.6070	-0.3203	-1.3146	0.0117	-0.0117	0.0151	45.5511	-5.6753	3.4996	0.3881	-0.6214	0.4253	0.5312
8.17	-9.6085	-0.3286	-1.3098	0.0078	-0.0096	0.0116	45.3608	-5.7418	3.2990	0.3881	-0.6215	0.4254	0.5313
8.18	-9.6040	-0.3259	-1.3087	0.0029	-0.0080	0.0093	45.0050	-5.5290	3.2345	0.3881	-0.6215	0.4253	0.5313
8.19	-9.6120	-0.3265	-1.3037	0.0036	-0.0060	0.0127	45.0683	-5.6978	3.2555	0.3880	-0.6215	0.4253	0.5312
8.2	-9.6060	-0.3282	-1.3154	0.0023	-0.0062	0.0096	45.1936	-5.7944	3.2700	0.3880	-0.6215	0.4254	0.5313
8.21	-9.6114	-0.3286	-1.3141	-0.0082	-0.0078	0.0058	45.1486	-5.6874	3.2323	0.3880	-0.6216	0.4253	0.5312
8.22	-9.6064	-0.3314	-1.3087	0.0003	-0.0071	0.0114	45.1940	-5.6974	3.1276	0.3880	-0.6216	0.4253	0.5313
8.23	-9.6128	-0.3382	-1.3070	0.0053	-0.0059	0.0048	45.0808	-5.7963	3.2829	0.3879	-0.6216	0.4252	0.5312
8.24	-9.6067	-0.3373	-1.2942	0.0079	-0.0042	0.0115	44.9882	-5.7762	3.2330	0.3880	-0.6217	0.4253	0.5312
8.25	-9.6188	-0.3268	-1.3056	0.0088	-0.0083	0.0099	45.1771	-5.6981	3.3013	0.3880	-0.6217	0.4253	0.5312
8.26	-9.6140	-0.3262	-1.3076	0.0135	-0.0080	0.0147	45.3775	-5.9092	3.1210	0.3880	-0.6217	0.4253	0.5312
8.27	-9.6079	-0.3220	-1.3082	0.0045	-0.0125	0.0130	45.6232	-5.7327	2.9919	0.3879	-0.6217	0.4253	0.5312
8.28	-9.6285	-0.3223	-1.3134	0.0083	-0.0053	0.0114	45.3986	-5.9605	3.0008	0.3879	-0.6217	0.4253	0.5312
8.29	-9.6180	-0.3228	-1.3170	0.0136	-0.0075	0.0075	45.3452	-5.8444	3.0598	0.3880	-0.6217	0.4253	0.5311
8.3	-9.6107	-0.3194	-1.3134	0.0170	-0.0089	0.0124	45.5186	-5.7386	3.0969	0.3879	-0.6217	0.4253	0.5311
8.31	-9.6221	-0.3198	-1.3095	0.0070	-0.0062	0.0126	45.4694	-5.9109	3.2998	0.3880	-0.6218	0.4253	0.5311
8.32	-9.6077	-0.3153	-1.3135	0.0029	-0.0067	0.0060	45.5125	-5.8109	3.2374	0.3880	-0.6217	0.4253	0.5311
8.33	-9.6021	-0.3026	-1.3042	0.0020	-0.0102	0.0137	45.4335	-5.7581	3.1021	0.3880	-0.6218	0.4253	0.5311
8.34	-9.6132	-0.3024	-1.3133	0.0046	-0.0057	0.0121	45.3265	-5.8847	2.9841	0.3879	-0.6218	0.4253	0.5310
8.35	-9.6202	-0.3107	-1.3124	0.0030	-0.0057	0.0098	45.3198	-5.8479	3.3772	0.3879	-0.6218	0.4253	0.5311
8.36	-9.6114	-0.3114	-1.3076	0.0027	-0.0075	0.0085	45.3446	-5.7437	3.2843	0.3879	-0.6219	0.4253	0.5311
8.37	-9.6124	-0.3164	-1.3178	0.0072	-0.0072	0.0117	45.2468	-5.8872	3.2620	0.3879	-0.6218	0.4252	0.5310
8.38	-9.6102	-0.3145	-1.3242	-0.0002	-0.0092	0.0107	45.2467	-5.7651	3.2549	0.3879	-0.6219	0.4253	0.5311
8.39	-9.6062	-0.3144	-1.3253	0.0018	-0.0104	0.0087	45.5070	-5.6742	3.1523	0.3878	-0.6219	0.4252	0.5310
8.4	-9.6102	-0.3030	-1.3200	0.0042	-0.0016	0.0077	45.4341	-5.7272	3.1909	0.3878	-0.6220	0.4252	0.5310
8.41	-9.6058	-0.3042	-1.3118	0.0033	-0.0071	0.0065	45.3268	-5.5983	3.1577	0.3878	-0.6219	0.4252	0.5310
8.42	-9.6057	-0.3130	-1.3168	-0.0009	-0.0057	0.0058	45.2088	-5.7501	3.2963	0.3878	-0.6220	0.4252	0.5310
8.43	-9.6057	-0.3190	-1.3148	-0.0016	-0.0070	0.0030	45.1529	-5.6412	3.2188	0.3878	-0.6221	0.4251	0.5310
8.44	-9.6089	-0.3182	-1.3076	0.0040	-0.0098	0.0123	45.1969	-5.9398	3.3637	0.3878	-0.6221	0.4251	0.5310
8.45	-9.6246	-0.3132	-1.3098	0.0107	-0.0171	0.0130	45.5602	-5.9528	3.3495	0.3878	-0.6221	0.4251	0.5310
8.46	-9.6102	-0.3323	-1.3047	0.0103	-0.0110	0.0149	45.3935	-5.9586	3.1253	0.3878	-0.6221	0.4251	0.5310
8.47	-9.6079	-0.3341	-1.2919	0.0079	-0.0075	0.0115	45.3755	-6.0921	3.2624	0.3878	-0.6221	0.4251	0.5310
8.48	-9.6191	-0.3417	-1.3058	0.0027	-0.0073	0.0097	45.7121	-5.8350	3.2976	0.3877	-0.6221	0.4251	0.5309
8.49	-9.6075	-0.3558	-1.3061	0.0018	-0.0101	0.0118	45.4983	-5.8789	3.1272	0.3878	-0.6222	0.4251	0.5310
8.5	-9.6042	-0.3489	-1.3091	0.0056	-0.0117	0.0077	45.2291	-5.9912	3.4405	0.3877	-0.6221	0.4251	0.5310
8.51	-9.6078	-0.3440	-1.3195	0.0070	-0.0071	0.0101	45.2958	-5.8768	3.3085	0.3878	-0.6222	0.4251	0.5310
8.52	-9.6175	-0.3419	-1.3199	0.0051	-0.0087	0.0099	45.4449	-5.7674	3.1598	0.3877	-0.6222	0.4250	0.5309
8.53	-9.6069	-0.3298	-1.3195	-0.0019	-0.0086	0.0125	45.4720	-6.1399	3.2971	0.3877	-0.6222	0.4250	0.5309
8.54	-9.6148	-0.3310	-1.3113	0.0037	-0.0118	0.0098	45.3853	-5.8492	3.0892	0.3877	-0.6222	0.4250	0.5310
8.55	-9.6140	-0.3223	-1.3149	0.0058	-0.0085	0.0134	45.4378	-5.6729	3.0792	0.3877	-0.6222	0.4250	0.5309
8.56	-9.6108	-0.3274	-1.3101	0.0066	-0.0062	0.0088	45.2024	-5.7210	3.1111	0.3877	-0.6223	0.4250	0.5310
8.57	-9.6084	-0.3252	-1.3105	0.0029	-0.0080	0.0069	45.3024	-5.6856	3.0202	0.3877	-0.6223	0.4250	0.5309
8.58	-9.6093	-0.3313	-1.3108	0.0041	-0.0077	0.0140	45.1227	-5.7589	3.0480	0.3877	-0.6224	0.4250	0.5310
8.59	-9.6081	-0.3300	-1.3069	0.0002	-0.0090	0.0116	45.0496	-5.9012	3.1818	0.3876	-0.6223	0.4249	0.5309
8.6	-9.6057	-0.3285	-1.2990	0.0040	-0.0077	0.0140	45.4610	-5.8296	3.2083	0.3876	-0.6223	0.4249	0.5309
8.61	-9.6127	-0.3239	-1.3038	0.0037	-0.0069	0.0161	45.4519	-5.5934	3.2553	0.3876	-0.6224	0.4250	0.5309
8.62	-9.6210	-0.3218	-1.3028	0.0078	-0.0071	0.0124	45.3457	-5.6921	3.0476	0.3875	-0.6223	0.4249	0.5309
8.63	-9.6121	-0.3221	-1.2950	-0.0014	-0.0081	0.0084	45.1138	-5.8100	3.2098	0.3876	-0.6224	0.4250	0.5310
8.64	-9.6119	-0.3191	-1.2903	0.0022	-0.0079	0.0110	45.6574	-5.7651	3.2866	0.3875	-0.6224	0.4249	0.5309
8.65	-9.6239	-0.3310	-1.3018	0.0019	-0.0186	0.0137	46.0822	-6.0188	3.2704	0.3875	-0.6225	0.4249	0.5310
8.66	-9.6147	-0.3266	-1.3137	0.0020	-0.0159	0.0167	45.6724	-5.9256	3.3329	0.3875	-0.6224	0.4248	0.5309
8.67	-9.5980	-0.3344	-1.3010	0.0154	-0.0132	0.0170	45.4252	-5.6627	3.1485	0.3875	-0.6224	0.4249	0.5310
8.68	-9.6062	-0.3291	-1.3076	0.0098	-0.0112	0.0101	45.1709	-5.8670	3.0210	0.3875	-0.6224	0.4249	0.5310
8.69	-9.6171	-0.3167	-1.3070	0.0054	-0.0065	0.0140	45.4009	-5.8935	3.0775	0.3875	-0.6224	0.4249	0.5309
8.7	-9.6053	-0.3087	-1.3072	0.0111	-0.0128	0.0096	45.3727	-5.7763	3.0386	0.3875	-0.6224	0.4249	0.5310
8.71	-9.6072	-0.3031	-1.3067	0.0119	-0.0143	0.0127	45.5592	-5.7806	3.0883	0.3876	-0.6224	0.4249	0.5309
8.72	-9.6145	-0.2991	-1.3089	0.0140	-0.0133	0.0135	45.6150	-5.8303	3.2200	0.3876	-0.6224	0.4249	0.5310
8.73	-9.6157	-0.3038	-1.3174	0.0085	-0.0104	0.0155	45.4320	-5.9106	3.2670	0.3875	-0.6223	0.4249	0.5309
8.74	-9.6050	-0.3034	-1.3122	0.0070	-0.0024	0.0094	45.3839	-5.7230	3.0754	0.3876	-0.6224	0.4250	0.5309
8.75	-9.6050	-0.3207	-1.3165	0.0025	-0.0057	0.0099	45.4025	-5.7502	3.1143	0.3875	-0.6224	0.4249	0.5309
8.76	-9.6117	-0.3215	-1.3239	0.0094	-0.0085	0.0135	45.5583	-5.7989	3.3711	0.3876	-0.6224	0.4249	0.5309
8.77	-9.6061	-0.3262	-1.3174	0.0055	-0.0089	0.0138	45.5308	-5.7811	3.1986	0.3875	-0.6224	0.4249	0.5309
8.78	-9.6077	-0.3243	-1.3290	0.0072	-0.0081	0.0142	45.3370	-6.0187	3.2711	0.3875	-0.6224	0.4249	0.5309
8.79	-9.6120	-0.3171	-1.3236	0.0089	-0.0059	0.0150	45.4454	-5.8766	3.1661	0.3875	-0.6224	0.4250	0.5309
8.8	-9.6122	-0.3182	-1.3242	0.0119	-0.0058	0.0138	45.4875	-5.8656	3.1369	0.3875	-0.6224	0.4250	0.5308
8.81	-9.6057	-0.3166	-1.3200	0.0108	-0.0143	0.0158	45.4305	-5.8766	3.2512	0.3875	-0.6225	0.4250	0.5309
8.82	-9.6060	-0.3122	-1.3137	0.0146	-0.0117	0.0182	45.3918	-5.8657	3.2405	0.3875	-0.6224	0.4250	0.5308
8.83	-9.6117	-0.3145	-1.3178	0.0128	-0.0181	0.0101	45.3355	-5.8867	3.4442	0.3876	-0.6224	0.4251	0.5309
8.84	-9.6104	-0.3088	-1.3099	0.0046	-0.0158	0.0129	45.5919	-5.8467	3.2277	0.3875	-0.6223	0.4250	0.5308
8.85	-9.6100	-0.3228	-1.3270	0.0082	-0.0067	0.0044	45.6814	-5.9073	3.0010	0.3876	-0.6224	0.4250	0.5308
8.86	-9.6030	-0.3312	-1.3236	0.0053	-0.0131	0.0128	45.5154	-6.1074	3.1757	0.3876	-0.6224	0.4250	0.5309
8.87	-9.6012	-0.3272	-1.3228	0.0111	-0.0120	0.0129	45.4859	-5.8612	3.3610	0.3876	-0.6224	0.4250	0.5308
8.88	-9.6049	-0.3422	-1.3293	0.0122	-0.0137	0.0134	45.3731	-5.8709	3.1002	0.3876	-0.6224	0.4250	0.5309
8.89	-9.6072	-0.3326	-1.3190	0.0133	-0.0119	0.0132	45.6179	-5.9965	3.1947	0.3876	-0.6224	0.4250	0.5308
8.9	-9.6085	-0.3285	-1.3104	0.0104	-0.0111	0.0094	45.2601	-5.6612	3.0465	0.3877	-0.6224	0.4250	0.5309
8.91	-9.6122	-0.3230	-1.3068	0.0162	-0.0080	0.0141	45.4892	-5.9196	3.1457	0.3876	-0.6223	0.4250	0.5308
8.92	-9.6092	-0.3112	-1.3110	0.0142	-0.0108	0.0125	45.5365	-5.7844	3.2620	0.3877	-0.6224	0.4251	0.5308
8.93	-9.5948	-0.3049	-1.3043	0.0029	-0.0045	0.0126	45.2770	-5.6058	3.0309	0.3876	-0.6224	0.4250	0.5308
8.94	-9.6078	-0.3093	-1.2996	0.0090	-0.0091	0.0046	45.3770	-5.8072	3.1309	0.3877	-0.6224	0.4250	0.5307
8.95	-9.6170	-0.3184	-1.2965	0.0052	-0.0097	0.0060	45.4764	-5.8863	3.2552	0.3877	-0.6224	0.4250	0.5308
8.96	-9.6098	-0.3162	-1.2959	0.0084	-0.0054	0.0109	45.4638	-5.8204	2.9653	0.3877	-0.6224	0.4250	0.5307
8.97	-9.6000	-0.3197	-1.2867	0.0000	-0.0083	0.0132	45.4764	-5.6310	3.2147	0.3877	-0.6225	0.4250	0.5307
8.98	-9.5991	-0.3168	-1.2903	0.0028	-0.0057	0.0128	45.3896	-5.8973	3.2338	0.3876	-0.6224	0.4250	0.5307
8.99	-9.6180	-0.3191	-1.2914	0.0092	-0.0046	0.0081	45.2682	-5.8686	3.2500	0.3876	-0.6225	0.4250	0.5307
9	-9.6116	-0.3308	-1.2852	0.0116	-0.0128	0.0174	45.3564	-6.0202	3.3349	0.3876	-0.6225	0.4250	0.5307
9.01	-9.6032	-0.3310	-1.2812	0.0168	-0.0047	0.0131	45.3903	-5.7919	3.0898	0.3877	-0.6225	0.4251	0.5307
9.02	-9.6084	-0.3354	-1.2916	0.0172	-0.0080	0.0161	45.4586	-5.8610	3.3777	0.3877	-0.6224	0.4251	0.5306
9.03	-9.6068	-0.3387	-1.3069	0.0179	-0.0083	0.0139	45.4753	-6.0101	3.1361	0.3877	-0.6224	0.4251	0.5306
9.04	-9.6026	-0.3306	-1.3037	0.0092	-0.0099	0.0142	45.8226	-6.0355	3.0792	0.3877	-0.6225	0.4251	0.5306
9.05	-9.6059	-0.3298	-1.3038	0.0112	-0.0054	0.0137	45.5624	-5.9799	3.2905	0.3876	-0.6224	0.4251	0.5306
9.06	-9.6080	-0.3239	-1.3145	0.0125	-0.0100	0.0172	45.4282	-5.8070	3.0849	0.3877	-0.6225	0.4252	0.5306
9.07	-9.6099	-0.3254	-1.3219	0.0125	-0.0102	0.0148	45.5092	-5.9859	3.0954	0.3877	-0.6224	0.4252	0.5306
9.08	-9.6110	-0.3338	-1.3366	0.0180	-0.0067	0.0116	45.3826	-6.0004	3.1903	0.3877	-0.6225	0.4252	0.5306
9.09	-9.6109	-0.3384	-1.3280	0.0194	-0.0129	0.0128	45.3983	-5.8563	3.0312	0.3877	-0.6224	0.4252	0.5305
9.1	-9.6109	-0.3453	-1.3220	0.0153	-0.0109	0.0099	45.4668	-5.9598	3.0922	0.3877	-0.6224	0.4252	0.5305
9.11	-9.6038	-0.3373	-1.3416	0.0101	-0.0108	0.0142	45.3403	-5.6588	3.1735	0.3878	-0.6224	0.4252	0.5305
9.12	-9.6064	-0.3221	-1.3351	0.0097	-0.0073	0.0153	45.4751	-5.8053	3.0920	0.3877	-0.6224	0.4252	0.5305
9.13	-9.6056	-0.3231	-1.3365	0.0086	-0.0038	0.0070	45.4492	-5.7755	3.4948	0.3878	-0.6225	0.4253	0.5305
9.14	-9.6029	-0.3105	-1.3341	0.0117	-0.0043	0.0175	45.7331	-5.6786	3.5746	0.3877	-0.6224	0.4253	0.5304
9.15	-9.6066	-0.3012	-1.3228	0.0062	-0.0030	0.0083	46.0035	-5.9440	3.2240	0.3878	-0.6225	0.4253	0.5305
9.16	-9.6062	-0.3053	-1.3253	0.0062	-0.0048	0.0020	45.7066	-5.8838	3.3239	0.3877	-0.6224	0.4252	0.5304
9.17	-9.6142	-0.3067	-1.3197	0.0071	-0.0073	0.0031	45.3840	-5.7330	3.4569	0.3878	-0.6225	0.4253	0.5304
9.18	-9.6052	-0.3167	-1.3164	0.0067	-0.0074	0.0098	45.3545	-5.8900	3.0621	0.3878	-0.6225	0.4252	0.5304
9.19	-9.6098	-0.3198	-1.3116	0.0120	-0.0075	0.0090	45.2264	-5.7605	3.2504	0.3878	-0.6225	0.4252	0.5303
9.2	-9.6066	-0.3222	-1.3144	0.0041	-0.0098	0.0114	45.3413	-5.8557	3.2682	0.3878	-0.6226	0.4252	0.5303
9.21	-9.6105	-0.3135	-1.3029	0.0035	-0.0108	0.0090	45.5296	-6.0773	3.0468	0.3877	-0.6226	0.4252	0.5303
9.22	-9.6063	-0.3181	-1.2938	0.0062	-0.0162	0.0138	45.4370	-5.8873	3.3587	0.3878	-0.6226	0.4252	0.5304
9.23	-9.6033	-0.3257	-1.2969	0.0112	-0.0088	0.0084	45.5789	-5.7303	3.3628	0.3877	-0.6225	0.4251	0.5303
9.24	-9.6081	-0.3317	-1.3046	0.0047	-0.0071	0.0072	45.4303	-5.8884	3.2463	0.3878	-0.6226	0.4252	0.5304
9.25	-9.6042	-0.3309	-1.3035	0.0025	-0.0136	0.0110	45.4110	-5.7779	3.1257	0.3877	-0.6226	0.4251	0.5303
9.26	-9.6055	-0.3316	-1.3078	0.0067	-0.0094	0.0059	45.3257	-5.7981	3.0565	0.3878	-0.6226	0.4251	0.5304
9.27	-9.6064	-0.3301	-1.3134	0.0036	-0.0089	0.0129	45.4050	-6.0487	3.2232	0.3877	-0.6226	0.4251	0.5303
9.28	-9.6020	-0.3308	-1.3092	0.0129	-0.0093	0.0159	45.2727	-5.9802	3.2535	0.3877	-0.6226	0.4251	0.5303
9.29	-9.6074	-0.3300	-1.3148	0.0041	-0.0072	0.0136	45.4185	-5.6896	2.9447	0.3877	-0.6227	0.4251	0.5304
9.3	-9.6130	-0.3242	-1.3286	0.0071	-0.0062	0.0083	45.2477	-5.6818	3.1837	0.3877	-0.6226	0.4251	0.5303
9.31	-9.6046	-0.3293	-1.3319	0.0040	-0.0115	0.0109	45.2281	-5.6733	3.1691	0.3877	-0.6227	0.4251	0.5304
9.32	-9.6043	-0.3300	-1.3314	0.0038	-0.0086	0.0115	45.2489	-5.7179	3.0392	0.3877	-0.6227	0.4251	0.5303
9.33	-9.6094	-0.3265	-1.3276	-0.0014	-0.0050	0.0154	45.2396	-5.7984	3.1739	0.3877	-0.6228	0.4251	0.5304
9.34	-9.6066	-0.3159	-1.3172	-0.0018	-0.0021	0.0123	45.2312	-5.6650	3.2459	0.3876	-0.6227	0.4250	0.5303
9.35	-9.6068	-0.3272	-1.3099	0.0007	-0.0061	0.0118	45.2440	-5.6923	3.3043	0.3876	-0.6228	0.4250	0.5303
9.36	-9.6067	-0.3294	-1.3277	0.0011	-0.0069	0.0067	45.2007	-5.6789	3.3242	0.3876	-0.6228	0.4250	0.5303
9.37	-9.6023	-0.3274	-1.3165	0.0001	-0.0101	0.0122	45.0591	-5.6869	3.1564	0.3875	-0.6228	0.4250	0.5303
9.38	-9.6053	-0.3324	-1.3151	0.0004	-0.0124	0.0084	45.1724	-5.7719	3.1721	0.3876	-0.6229	0.4250	0.5304
9.39	-9.6060	-0.3337	-1.3081	0.0128	-0.0172	0.0128	45.4293	-5.7725	3.0588	0.3876	-0.6228	0.4249	0.5304
9.4	-9.6097	-0.3173	-1.3046	0.0082	-0.0096	0.0082	45.5056	-5.9608	3.1529	0.3876	-0.6229	0.4250	0.5304
9.41	-9.6059	-0.3136	-1.2968	0.0026	-0.0074	0.0051	45.4588	-6.1387	3.3154	0.3875	-0.6228	0.4249	0.5303
9.42	-9.6128	-0.3159	-1.3023	0.0056	-0.0078	0.0124	45.5000	-5.9177	3.1102	0.3876	-0.6229	0.4249	0.5304
9.43	-9.6086	-0.3264	-1.2970	-0.0018	-0.0080	0.0141	45.5929	-5.8592	3.1569	0.3875	-0.6229	0.4249	0.5304
9.44	-9.6014	-0.3302	-1.3030	0.0054	-0.0075	0.0088	45.2189	-5.9636	3.1678	0.3875	-0.6229	0.4248	0.5303
9.45	-9.6038	-0.3389	-1.2966	0.0098	-0.0168	0.0119	45.2584	-5.9083	3.3108	0.3875	-0.6229	0.4249	0.5304
9.46	-9.6109	-0.3321	-1.2782	0.0034	-0.0082	0.0065	45.4253	-5.9528	3.3120	0.3875	-0.6229	0.4248	0.5304
9.47	-9.6023	-0.3365	-1.2818	0.0058	-0.0073	0.0128	45.4077	-6.0707	3.1250	0.3875	-0.6230	0.4248	0.5304
9.48	-9.6030	-0.3347	-1.2845	0.0009	-0.0095	0.0131	45.3174	-5.7535	3.2855	0.3875	-0.6229	0.4247	0.5303
9.49	-9.6082	-0.3293	-1.3017	0.0020	-0.0025	0.0088	45.1282	-5.6718	3.2594	0.3875	-0.6230	0.4248	0.5304
9.5	-9.6115	-0.3212	-1.3225	0.0057	-0.0059	0.0084	45.3099	-5.8258	3.0775	0.3875	-0.6230	0.4248	0.5303
9.51	-9.6080	-0.3059	-1.3340	0.0051	-0.0071	0.0073	45.3423	-5.6486	3.2176	0.3875	-0.6231	0.4248	0.5303
9.52	-9.6073	-0.3054	-1.3413	0.0056	-0.0050	0.0038	45.1977	-5.8066	3.3870	0.3875	-0.6231	0.4247	0.5303
9.53	-9.6059	-0.3059	-1.3512	0.0051	-0.0042	0.0063	45.1881	-5.7044	3.0806	0.3875	-0.6231	0.4247	0.5303
9.54	-9.6103	-0.2993	-1.3443	0.0029	-0.0048	0.0070	45.3987	-5.7370	3.2972	0.3875	-0.6232	0.4247	0.5303
9.55	-9.6064	-0.3088	-1.3440	0.0062	-0.0041	0.0016	45.1261	-5.7192	3.1500	0.3874	-0.6232	0.4246	0.5302
9.56	-9.6176	-0.3215	-1.3380	0.0032	-0.0111	0.0072	45.1776	-5.4690	3.2001	0.3875	-0.6233	0.4247	0.5303
9.57	-9.6090	-0.3274	-1.3425	-0.0019	-0.0127	0.0107	45.2661	-5.7023	3.2392	0.3874	-0.6232	0.4246	0.5302
9.58	-9.6079	-0.3319	-1.3349	0.0044	-0.0097	0.0149	45.4373	-5.8519	3.1524	0.3875	-0.6233	0.4246	0.5303
9.59	-9.6139	-0.3215	-1.3256	0.0076	-0.0143	0.0120	45.6704	-5.8258	3.2030	0.3874	-0.6232	0.4246	0.5302
9.6	-9.6137	-0.3260	-1.3164	0.0053	-0.0140	0.0111	45.6142	-5.8656	3.1800	0.3874	-0.6232	0.4246	0.5303
9.61	-9.6101	-0.3081	-1.3141	0.0031	-0.0138	0.0108	45.5072	-5.7721	3.3508	0.3875	-0.6232	0.4245	0.5303
9.62	-9.6056	-0.3225	-1.3126	-0.0002	-0.0146	0.0135	45.3943	-5.8118	3.0538	0.3874	-0.6232	0.4245	0.5303
9.63	-9.6088	-0.3299	-1.3025	0.0014	-0.0105	0.0118	45.4026	-6.0528	3.2409	0.3874	-0.6233	0.4245	0.5304
9.64	-9.6108	-0.3312	-1.3052	-0.0016	-0.0077	0.0055	45.6577	-5.8378	3.3773	0.3874	-0.6233	0.4244	0.5304
9.65	-9.5986	-0.3274	-1.2862	-0.0012	-0.0081	0.0084	45.9856	-5.6426	3.4132	0.3874	-0.6234	0.4244	0.5304
9.66	-9.6134	-0.3378	-1.2959	0.0054	-0.0062	0.0119	45.7695	-5.7801	3.5040	0.3873	-0.6233	0.4244	0.5303
9.67	-9.6149	-0.3332	-1.2954	0.0077	-0.0114	0.0088	45.5111	-5.9492	3.4727	0.3874	-0.6234	0.4244	0.5304
9.68	-9.6019	-0.3277	-1.2864	0.0055	-0.0137	0.0097	45.3539	-5.6899	3.4411	0.3874	-0.6233	0.4244	0.5304
9.69	-9.6054	-0.3270	-1.2864	0.0106	-0.0100	0.0103	45.3986	-5.8002	3.2931	0.3874	-0.6233	0.4244	0.5303
9.7	-9.6142	-0.3245	-1.3009	0.0047	-0.0085	0.0084	45.2699	-5.7649	3.2933	0.3874	-0.6234	0.4244	0.5304
9.71	-9.6079	-0.3334	-1.2984	0.0027	-0.0096	0.0150	45.4523	-5.8356	3.1999	0.3874	-0.6234	0.4244	0.5304
9.72	-9.6006	-0.3345	-1.3009	0.0039	-0.0064	0.0099	45.3826	-5.8361	3.4194	0.3874	-0.6234	0.4244	0.5304
9.73	-9.6058	-0.3297	-1.3122	0.0103	-0.0089	0.0109	45.0761	-5.6969	3.2855	0.3873	-0.6233	0.4243	0.5303
9.74	-9.6053	-0.3318	-1.3246	0.0070	-0.0121	0.0097	45.2841	-5.6966	3.1962	0.3874	-0.6234	0.4244	0.5304
9.75	-9.6058	-0.3458	-1.3147	0.0088	-0.0150	0.0137	45.2532	-5.7487	3.2104	0.3874	-0.6234	0.4243	0.5304
9.76	-9.6132	-0.3380	-1.3209	0.0117	-0.0173	0.0153	45.2256	-5.8062	3.2247	0.3874	-0.6233	0.4244	0.5304
9.77	-9.6165	-0.3374	-1.3160	0.0027	-0.0196	0.0163	45.6049	-5.7762	3.1102	0.3874	-0.6233	0.4243	0.5304
9.78	-9.6030	-0.3244	-1.3192	0.0098	-0.0103	0.0147	45.3570	-5.6678	3.2734	0.3874	-0.6233	0.4243	0.5304
9.79	-9.6113	-0.3103	-1.3264	0.0132	-0.0159	0.0137	45.4702	-6.1447	3.3015	0.3874	-0.6233	0.4243	0.5305
9.8	-9.6065	-0.3089	-1.3208	0.0067	-0.0145	0.0155	45.6386	-5.8736	3.4119	0.3874	-0.6232	0.4243	0.5304
9.81	-9.6032	-0.3080	-1.3222	0.0210	-0.0149	0.0144	45.5133	-5.6818	3.1651	0.3875	-0.6232	0.4244	0.5305
9.82	-9.6071	-0.3119	-1.3163	0.0062	-0.0081	0.0135	45.4138	-5.9335	3.1409	0.3874	-0.6232	0.4244	0.5305
9.83	-9.6086	-0.3020	-1.3205	0.0085	-0.0141	0.0145	45.3488	-5.5840	3.2990	0.3875	-0.6232	0.4244	0.5305
9.84	-9.6088	-0.3066	-1.3240	0.0153	-0.0080	0.0113	45.4657	-5.7166	3.3851	0.3875	-0.6231	0.4244	0.5305
9.85	-9.6074	-0.3121	-1.3103	0.0113	-0.0119	0.0109	45.4437	-5.9123	3.2888	0.3875	-0.6232	0.4244	0.5305
9.86	-9.6055	-0.3109	-1.3145	0.0022	-0.0179	0.0183	45.3057	-5.6497	3.1189	0.3875	-0.6232	0.4244	0.5305
9.87	-9.6059	-0.3091	-1.3110	0.0069	-0.0131	0.0118	45.2948	-5.8900	3.1935	0.3875	-0.6231	0.4243	0.5305
9.88	-9.6032	-0.3035	-1.3036	-0.0007	-0.0106	0.0163	45.2903	-5.8339	3.3298	0.3875	-0.6232	0.4244	0.5306
9.89	-9.6058	-0.3026	-1.3041	0.0004	-0.0154	0.0136	45.3083	-5.8279	3.2737	0.3874	-0.6231	0.4243	0.5306
9.9	-9.6058	-0.3112	-1.2951	0.0091	-0.0137	0.0131	45.2705	-5.8324	3.1174	0.3875	-0.6232	0.4244	0.5306
9.91	-9.6051	-0.3130	-1.2967	0.0016	-0.0131	0.0106	45.4066	-5.6956	3.2138	0.3874	-0.6231	0.4243	0.5306
9.92	-9.6045	-0.3297	-1.3049	0.0026	-0.0087	0.0092	45.3231	-5.7751	3.1028	0.3874	-0.6232	0.4243	0.5306
9.93	-9.6033	-0.3279	-1.3030	0.0049	-0.0091	0.0136	45.2050	-5.7212	3.1535	0.3874	-0.6231	0.4243	0.5306
9.94	-9.6080	-0.3417	-1.2930	0.0135	-0.0144	0.0161	45.4380	-5.8259	3.3183	0.3874	-0.6231	0.4243	0.5306
9.95	-9.6077	-0.3441	-1.2989	0.0129	-0.0154	0.0118	45.6613	-5.6687	3.2917	0.3875	-0.6231	0.4243	0.5307
9.96	-9.6118	-0.3390	-1.2932	-0.0024	-0.0185	0.0141	45.5413	-5.7113	3.1909	0.3874	-0.6231	0.4243	0.5307
9.97	-9.6116	-0.3384	-1.3017	0.0032	-0.0138	0.0130	45.4347	-5.9144	3.2592	0.3875	-0.6231	0.4243	0.5308
9.98	-9.6028	-0.3317	-1.3054	0.0131	-0.0132	0.0092	45.3867	-5.9854	3.4385	0.3874	-0.6230	0.4242	0.5307
9.99	-9.6064	-0.3334	-1.3059	0.0110	-0.0200	0.0116	45.3625	-5.7184	3.2187	0.3875	-0.6230	0.4243	0.5308
10	-9.6041	-0.3291	-1.3119	0.0127	-0.0074	0.0102	45.3834	-5.7218	3.2962	0.3875	-0.6230	0.4242	0.5307
10.01	-9.6065	-0.3357	-1.3094	0.0122	-0.0105	0.0048	45.3648	-5.8862	3.4416	0.3876	-0.6230	0.4243	0.5307
10.02	-9.6035	-0.3285	-1.3033	0.0141	-0.0084	0.0138	45.3714	-5.8552	3.2707	0.3876	-0.6230	0.4243	0.5307
10.03	-9.6138	-0.3288	-1.3120	0.0141	-0.0064	0.0139	45.6033	-5.6547	3.4433	0.3876	-0.6230	0.4243	0.5307
10.04	-9.6110	-0.3406	-1.3188	0.0133	-0.0121	0.0157	45.3993	-5.7523	3.5139	0.3876	-0.6230	0.4243	0.5307
10.05	-9.6029	-0.3379	-1.3107	0.0038	-0.0122	0.0158	45.3505	-5.8860	3.3104	0.3876	-0.6229	0.4243	0.5307
10.06	-9.6108	-0.3380	-1.3080	0.0084	-0.0078	0.0124	45.4800	-5.8423	3.1952	0.3876	-0.6230	0.4243	0.5307
10.07	-9.6066	-0.3274	-1.3189	0.0080	-0.0075	0.0062	45.5856	-5.7797	3.2292	0.3876	-0.6230	0.4243	0.5307
10.08	-9.6162	-0.3240	-1.3205	0.0067	-0.0084	0.0096	45.3991	-5.9749	3.2136	0.3876	-0.6230	0.4243	0.5307
10.09	-9.6088	-0.3139	-1.3268	0.0097	-0.0084	0.0110	45.3674	-5.8631	3.2198	0.3876	-0.6229	0.4243	0.5307
10.1	-9.6089	-0.3159	-1.3308	0.0128	-0.0124	0.0130	45.3678	-5.7465	3.2095	0.3876	-0.6230	0.4243	0.5307
10.11	-9.6081	-0.3064	-1.3263	0.0039	-0.0140	0.0083	45.4223	-5.6943	3.2145	0.3876	-0.6230	0.4243	0.5307
10.12	-9.6078	-0.3110	-1.3238	0.0100	-0.0113	0.0129	45.4741	-5.9926	3.2197	0.3876	-0.6229	0.4243	0.5307
10.13	-9.6080	-0.3137	-1.3177	0.0052	-0.0143	0.0153	45.4410	-5.7267	3.2135	0.3876	-0.6230	0.4243	0.5308
10.14	-9.6063	-0.3142	-1.2993	0.0069	-0.0091	0.0166	45.7404	-5.5933	3.3592	0.3876	-0.6229	0.4243	0.5307
10.15	-9.6059	-0.3329	-1.3117	0.0067	-0.0138	0.0161	45.9734	-5.8061	3.4275	0.3876	-0.6229	0.4243	0.5308
10.16	-9.6045	-0.3264	-1.3201	0.0073	-0.0170	0.0116	45.7933	-5.6896	3.2999	0.3876	-0.6228	0.4243	0.5308
10.17	-9.6091	-0.3222	-1.3079	0.0030	-0.0168	0.0133	45.6698	-5.8832	3.3645	0.3876	-0.6229	0.4243	0.5308
10.18	-9.6078	-0.3065	-1.3189	0.0012	-0.0116	0.0099	45.4523	-5.9223	3.3296	0.3876	-0.6229	0.4242	0.5308
10.19	-9.6031	-0.2983	-1.3058	-0.0021	-0.0120	0.0151	45.3014	-5.7640	3.1667	0.3876	-0.6229	0.4242	0.5309
10.2	-9.6037	-0.3038	-1.3099	0.0023	-0.0069	0.0149	45.3319	-5.7593	3.1965	0.3875	-0.6229	0.4242	0.5309
10.21	-9.6091	-0.3172	-1.3082	-0.0003	-0.0144	0.0161	45.2835	-5.7914	3.2920	0.3875	-0.6229	0.4242	0.5309
10.22	-9.6066	-0.3135	-1.3073	-0.0033	-0.0160	0.0124	45.3788	-5.8926	3.2646	0.3875	-0.6229	0.4242	0.5310
10.23	-9.6073	-0.3135	-1.3069	-0.0024	-0.0089	0.0109	45.3963	-5.7275	3.2812	0.3874	-0.6229	0.4241	0.5310
10.24	-9.6135	-0.3242	-1.3101	0.0022	-0.0056	0.0054	45.2945	-6.0091	3.2655	0.3875	-0.6230	0.4241	0.5310
10.25	-9.6000	-0.3164	-1.3061	-0.0028	-0.0053	0.0061	45.3208	-5.8165	3.1400	0.3874	-0.6230	0.4241	0.5310
10.26	-9.6055	-0.3257	-1.3125	0.0036	-0.0083	0.0049	45.3090	-5.7593	3.2776	0.3874	-0.6230	0.4241	0.5310
10.27	-9.6076	-0.3312	-1.3088	0.0031	-0.0115	0.0106	45.3113	-5.6810	3.2561	0.3874	-0.6230	0.4240	0.5310
10.28	-9.6130	-0.3298	-1.3009	-0.0034	-0.0077	0.0126	45.1939	-5.5865	3.2890	0.3874	-0.6230	0.4240	0.5310
10.29	-9.6014	-0.3391	-1.3004	0.0004	-0.0070	0.0099	45.1058	-5.7866	3.1965	0.3874	-0.6231	0.4240	0.5310
10.3	-9.6063	-0.3273	-1.3054	0.0002	-0.0058	0.0082	45.3205	-5.7565	3.1797	0.3873	-0.6230	0.4239	0.5310
10.31	-9.6169	-0.3300	-1.3108	-0.0037	-0.0116	0.0083	45.3028	-5.6878	3.2671	0.3873	-0.6231	0.4239	0.5311
10.32	-9.6090	-0.3330	-1.3041	0.0037	-0.0106	0.0097	45.2032	-5.8047	3.1618	0.3873	-0.6231	0.4239	0.5310
10.33	-9.6106	-0.3342	-1.3025	0.0005	-0.0105	0.0117	45.2854	-5.9736	3.1817	0.3873	-0.6232	0.4239	0.5311
10.34	-9.6188	-0.3258	-1.3104	0.0061	-0.0122	0.0138	45.4958	-6.1278	3.2961	0.3872	-0.6231	0.4238	0.5311
10.35	-9.6146	-0.3146	-1.3130	0.0015	-0.0131	0.0112	45.4440	-6.0587	3.3763	0.3873	-0.6231	0.4238	0.5311
10.36	-9.6034	-0.3273	-1.3090	0.0011	-0.0113	0.0072	45.3689	-5.9769	3.2092	0.3872	-0.6232	0.4238	0.5311
10.37	-9.6095	-0.3293	-1.3058	-0.0034	-0.0091	0.0095	45.4190	-5.8263	3.0973	0.3872	-0.6231	0.4237	0.5311
10.38	-9.6074	-0.3286	-1.3151	-0.0031	-0.0081	0.0084	45.2808	-5.7929	3.1937	0.3872	-0.6233	0.4238	0.5312
10.39	-9.6091	-0.3255	-1.3217	0.0007	-0.0063	0.0098	45.4827	-5.8247	3.3198	0.3872	-0.6232	0.4237	0.5312
10.4	-9.6073	-0.3319	-1.3145	-0.0016	-0.0107	0.0114	45.3969	-5.9739	3.1980	0.3872	-0.6233	0.4237	0.5312
10.41	-9.6101	-0.3365	-1.3171	-0.0037	-0.0163	0.0116	45.4767	-6.0345	3.1869	0.3871	-0.6232	0.4236	0.5312
10.42	-9.6126	-0.3271	-1.3235	-0.0002	-0.0084	0.0094	45.4515	-5.7985	3.3040	0.3871	-0.6233	0.4236	0.5313
10.43	-9.6072	-0.3182	-1.3250	-0.0023	-0.0059	0.0064	45.0692	-5.8612	3.2401	0.3871	-0.6233	0.4236	0.5313
10.44	-9.6102	-0.3186	-1.3268	0.0000	-0.0064	0.0138	45.3308	-5.6401	3.3514	0.3870	-0.6233	0.4236	0.5313
10.45	-9.6076	-0.3328	-1.3216	-0.0049	-0.0121	0.0087	45.2800	-5.7354	3.3649	0.3870	-0.6234	0.4235	0.5313
10.46	-9.6032	-0.3232	-1.3191	0.0015	-0.0123	0.0050	45.1331	-5.6030	3.2040	0.3870	-0.6234	0.4235	0.5313
10.47	-9.6155	-0.3166	-1.3179	-0.0011	-0.0054	0.0053	45.3155	-5.7146	3.1698	0.3870	-0.6234	0.4235	0.5313
10.48	-9.5971	-0.3199	-1.3085	-0.0060	-0.0082	0.0022	45.3820	-5.7990	3.1961	0.3869	-0.6234	0.4233	0.5313
10.49	-9.6077	-0.3206	-1.3115	-0.0010	-0.0107	0.0049	45.4022	-5.5498	3.1658	0.3870	-0.6235	0.4234	0.5313
10.5	-9.6111	-0.3284	-1.2862	-0.0036	-0.0123	0.0117	45.0963	-5.7809	3.2094	0.3869	-0.6235	0.4233	0.5313
10.51	-9.6122	-0.3215	-1.2868	-0.0042	-0.0138	0.0086	45.3022	-5.7889	3.3706	0.3869	-0.6235	0.4233	0.5314
10.52	-9.6068	-0.3244	-1.2895	0.0053	-0.0090	0.0022	45.3842	-6.0787	3.2840	0.3869	-0.6235	0.4232	0.5314
10.53	-9.6091	-0.3172	-1.2956	0.0016	-0.0089	0.0114	45.3261	-6.0424	3.1313	0.3869	-0.6236	0.4232	0.5314
10.54	-9.6047	-0.3137	-1.2928	0.0048	-0.0107	0.0130	45.4189	-5.8833	3.1264	0.3869	-0.6236	0.4232	0.5314
10.55	-9.6018	-0.3208	-1.3176	0.0019	-0.0086	0.0121	45.3850	-5.9657	3.3082	0.3868	-0.6235	0.4231	0.5314
10.56	-9.6065	-0.3186	-1.3246	0.0025	-0.0110	0.0080	45.3764	-5.8029	3.2467	0.3869	-0.6236	0.4232	0.5314
10.57	-9.6086	-0.3127	-1.3183	0.0023	-0.0138	0.0079	45.4627	-5.9033	3.0294	0.3868	-0.6236	0.4231	0.5314
10.58	-9.6078	-0.3260	-1.3221	0.0012	-0.0102	0.0099	45.6257	-5.9320	3.2369	0.3869	-0.6237	0.4231	0.5315
10.59	-9.6068	-0.3117	-1.3178	0.0004	-0.0188	0.0095	45.3557	-5.9300	2.9752	0.3868	-0.6236	0.4230	0.5315
10.6	-9.6090	-0.3186	-1.3154	-0.0025	-0.0156	0.0108	45.3199	-5.9245	3.1806	0.3868	-0.6237	0.4230	0.5315
10.61	-9.6176	-0.3230	-1.3218	0.0037	-0.0112	0.0094	45.2792	-5.7792	3.3044	0.3868	-0.6237	0.4230	0.5316
10.62	-9.6141	-0.3251	-1.3130	0.0047	-0.0064	0.0053	45.1269	-5.7496	3.2496	0.3868	-0.6236	0.4229	0.5315
10.63	-9.6060	-0.3220	-1.3108	0.0026	-0.0043	0.0104	45.2522	-5.9734	3.2836	0.3868	-0.6238	0.4230	0.5316
10.64	-9.6046	-0.3251	-1.3122	-0.0041	-0.0028	0.0039	45.6111	-5.7542	3.2822	0.3867	-0.6238	0.4229	0.5315
10.65	-9.6057	-0.3367	-1.3092	0.0025	-0.0048	0.0090	45.8197	-5.8205	3.4803	0.3867	-0.6238	0.4229	0.5315
10.66	-9.6141	-0.3293	-1.3120	0.0014	-0.0103	0.0094	45.6410	-5.8289	3.3918	0.3867	-0.6238	0.4228	0.5315
10.67	-9.6184	-0.3311	-1.3093	0.0017	-0.0109	0.0130	45.3988	-5.7671	3.3946	0.3867	-0.6238	0.4228	0.5315
10.68	-9.6185	-0.3329	-1.3062	0.0020	-0.0120	0.0094	45.3568	-5.8398	3.1753	0.3867	-0.6238	0.4228	0.5316
10.69	-9.6148	-0.3315	-1.3013	0.0093	-0.0113	0.0084	45.3753	-5.7695	3.1331	0.3867	-0.6238	0.4228	0.5315
10.7	-9.6171	-0.3349	-1.3059	0.0122	-0.0144	0.0124	45.3966	-6.0093	3.1356	0.3867	-0.6238	0.4228	0.5316
10.71	-9.6167	-0.3306	-1.3071	0.0098	-0.0157	0.0120	45.5701	-5.9006	3.0668	0.3867	-0.6238	0.4228	0.5316
10.72	-9.6100	-0.3289	-1.3061	0.0138	-0.0189	0.0135	45.5249	-5.7276	3.1895	0.3868	-0.6238	0.4228	0.5316
10.73	-9.6061	-0.3266	-1.3093	0.0094	-0.0096	0.0075	45.5352	-5.9306	3.0478	0.3867	-0.6237	0.4227	0.5316
10.74	-9.6043	-0.3225	-1.3097	0.0112	-0.0127	0.0126	45.4567	-5.8127	3.0520	0.3868	-0.6238	0.4228	0.5316
10.75	-9.6084	-0.3302	-1.3142	0.0042	-0.0143	0.0104	45.4147	-5.8778	3.2460	0.3868	-0.6238	0.4227	0.5316
10.76	-9.6091	-0.3316	-1.3153	0.0138	-0.0091	0.0109	45.3513	-6.0188	3.1077	0.3868	-0.6238	0.4228	0.5316
10.77	-9.6051	-0.3275	-1.3038	0.0091	-0.0085	0.0103	45.4701	-5.7700	2.9268	0.3868	-0.6237	0.4227	0.5316
10.78	-9.6078	-0.3279	-1.3042	0.0081	-0.0134	0.0187	45.4670	-5.7927	3.1275	0.3868	-0.6237	0.4228	0.5316
10.79	-9.6182	-0.3212	-1.2948	0.0086	-0.0156	0.0102	45.5796	-5.8468	3.1472	0.3868	-0.6237	0.4228	0.5317
10.8	-9.6046	-0.3241	-1.2943	0.0065	-0.0137	0.0044	45.4376	-5.9010	3.1454	0.3868	-0.6237	0.4227	0.5316
10.81	-9.6076	-0.3202	-1.3170	-0.0019	-0.0160	0.0162	45.3741	-5.7787	3.2373	0.3868	-0.6238	0.4227	0.5317
10.82	-9.6051	-0.3212	-1.3185	-0.0008	-0.0176	0.0141	45.4946	-5.9401	3.0978	0.3868	-0.6237	0.4227	0.5317
10.83	-9.6058	-0.3274	-1.3369	0.0000	-0.0202	0.0065	45.3754	-5.7780	3.2317	0.3868	-0.6238	0.4227	0.5318
10.84	-9.6087	-0.3229	-1.3326	0.0024	-0.0209	0.0056	45.4380	-5.9022	3.2317	0.3868	-0.6237	0.4225	0.5318
10.85	-9.6191	-0.3301	-1.3224	-0.0009	-0.0148	0.0104	45.4827	-5.8511	3.1246	0.3868	-0.6237	0.4225	0.5318
10.86	-9.6234	-0.3303	-1.3352	0.0016	-0.0172	0.0112	45.2197	-5.7849	3.1495	0.3868	-0.6237	0.4225	0.5319
10.87	-9.6078	-0.3279	-1.3239	0.0018	-0.0185	0.0148	45.2834	-5.8105	3.1239	0.3867	-0.6236	0.4225	0.5319
10.88	-9.6085	-0.3351	-1.3177	0.0057	-0.0201	0.0156	45.3672	-5.7991	3.2564	0.3868	-0.6237	0.4225	0.5320
10.89	-9.6133	-0.3376	-1.3188	0.0019	-0.0163	0.0177	45.4414	-5.7923	3.0583	0.3867	-0.6236	0.4225	0.5320
10.9	-9.6057	-0.3363	-1.3083	-0.0006	-0.0196	0.0116	45.5596	-5.8383	3.1090	0.3868	-0.6237	0.4225	0.5321
10.91	-9.6105	-0.3396	-1.2978	0.0089	-0.0118	0.0134	45.2084	-5.9912	3.2425	0.3867	-0.6236	0.4224	0.5320
10.92	-9.6058	-0.3298	-1.3071	0.0018	-0.0136	0.0076	45.6792	-6.0434	3.3557	0.3868	-0.6236	0.4224	0.5321
10.93	-9.6025	-0.3224	-1.2892	0.0061	-0.0133	0.0122	45.6117	-5.8907	3.2804	0.3867	-0.6236	0.4224	0.5321
10.94	-9.6034	-0.3244	-1.2895	-0.0013	-0.0121	0.0109	45.4455	-5.8704	3.1555	0.3867	-0.6236	0.4224	0.5321
10.95	-9.6067	-0.3140	-1.2877	0.0004	-0.0149	0.0097	45.3677	-5.8941	3.0318	0.3867	-0.6236	0.4223	0.5322
10.96	-9.6071	-0.3135	-1.2908	0.0038	-0.0136	0.0131	45.2781	-5.9873	3.1007	0.3867	-0.6236	0.4223	0.5322
10.97	-9.6093	-0.3208	-1.2920	0.0031	-0.0114	0.0149	45.2884	-5.9553	3.3646	0.3867	-0.6236	0.4223	0.5322
10.98	-9.6040	-0.3112	-1.3008	0.0046	-0.0131	0.0120	45.3571	-5.9877	3.2040	0.3866	-0.6236	0.4223	0.5322
10.99	-9.6093	-0.3120	-1.3073	0.0013	-0.0100	0.0151	45.4833	-5.7369	3.2702	0.3867	-0.6237	0.4223	0.5322
11	-9.6068	-0.3223	-1.3005	0.0041	-0.0118	0.0152	45.2738	-5.5845	3.1263	0.3866	-0.6236	0.4223	0.5322
11.01	-9.6066	-0.3257	-1.3007	0.0027	-0.0113	0.0086	45.3753	-5.7315	2.9896	0.3866	-0.6236	0.4223	0.5323
11.02	-9.6055	-0.3271	-1.3097	0.0042	-0.0141	0.0108	45.3688	-5.6986	3.3522	0.3866	-0.6236	0.4222	0.5323
11.03	-9.6081	-0.3306	-1.3057	0.0035	-0.0121	0.0123	45.1489	-5.7635	3.3050	0.3866	-0.6236	0.4222	0.5323
11.04	-9.6098	-0.3320	-1.3051	0.0038	-0.0101	0.0126	45.2843	-5.8038	3.3040	0.3866	-0.6237	0.4222	0.5323
11.05	-9.6074	-0.3278	-1.3243	0.0073	-0.0093	0.0124	45.2884	-5.8717	3.3485	0.3866	-0.6236	0.4222	0.5323
11.06	-9.6136	-0.3299	-1.3102	0.0041	-0.0134	0.0063	45.2917	-5.9881	3.1658	0.3866	-0.6237	0.4222	0.5323
11.07	-9.6065	-0.3362	-1.3090	0.0079	-0.0158	0.0126	45.4446	-5.8207	3.0620	0.3866	-0.6236	0.4222	0.5323
11.08	-9.6058	-0.3306	-1.3148	0.0020	-0.0153	0.0137	45.4479	-5.9870	3.1948	0.3866	-0.6237	0.4222	0.5324
11.09	-9.6036	-0.3281	-1.3163	0.0126	-0.0120	0.0140	45.5464	-5.8616	3.0396	0.3866	-0.6236	0.4222	0.5323
11.1	-9.6075	-0.3331	-1.3132	0.0048	-0.0170	0.0098	45.5209	-5.7904	3.0561	0.3866	-0.6236	0.4222	0.5324
11.11	-9.6127	-0.3404	-1.3135	0.0073	-0.0136	0.0061	45.4161	-5.9591	3.0935	0.3866	-0.6236	0.4221	0.5324
11.12	-9.6068	-0.3369	-1.3159	0.0125	-0.0200	0.0150	45.5421	-5.9731	3.2499	0.3866	-0.6235	0.4221	0.5324
11.13	-9.6104	-0.3485	-1.3212	0.0042	-0.0162	0.0090	45.5228	-5.8608	3.2312	0.3867	-0.6236	0.4221	0.5325
11.14	-9.6072	-0.3360	-1.3177	0.0040	-0.0118	0.0122	45.6818	-5.7611	3.3696	0.3867	-0.6236	0.4221	0.5324
11.15	-9.6049	-0.3302	-1.3089	0.0044	-0.0083	0.0108	45.6523	-5.6274	3.2294	0.3867	-0.6236	0.4221	0.5325
11.16	-9.6072	-0.3340	-1.3114	0.0059	-0.0087	0.0075	45.4777	-5.6925	3.2711	0.3866	-0.6235	0.4220	0.5324
11.17	-9.6086	-0.3222	-1.3053	0.0024	-0.0131	0.0119	45.2970	-5.7263	3.3848	0.3866	-0.6236	0.4221	0.5325
11.18	-9.6041	-0.3201	-1.3033	0.0050	-0.0071	0.0099	45.1069	-5.6618	3.1986	0.3866	-0.6236	0.4221	0.5324
11.19	-9.6056	-0.3275	-1.3007	0.0047	-0.0068	0.0051	45.2698	-5.7862	3.3314	0.3866	-0.6236	0.4220	0.5324
11.2	-9.6040	-0.3260	-1.3100	-0.0003	-0.0132	0.0097	45.2502	-5.7366	3.2157	0.3866	-0.6237	0.4220	0.5325
11.21	-9.6137	-0.3284	-1.3020	0.0000	-0.0145	0.0118	45.2514	-5.7010	3.1241	0.3866	-0.6236	0.4220	0.5325
11.22	-9.6138	-0.3241	-1.3077	0.0007	-0.0097	0.0065	45.2747	-5.7852	2.9450	0.3866	-0.6237	0.4220	0.5325
11.23	-9.6002	-0.3245	-1.3045	0.0013	-0.0091	0.0095	45.1657	-5.7667	3.1542	0.3865	-0.6236	0.4219	0.5324
11.24	-9.6058	-0.3127	-1.3153	-0.0042	-0.0079	0.0086	45.2727	-5.6484	3.1255	0.3866	-0.6238	0.4219	0.5325
11.25	-9.6077	-0.3160	-1.3181	0.0011	-0.0126	0.0087	45.2352	-5.4568	3.1970	0.3865	-0.6237	0.4219	0.5325
11.26	-9.6093	-0.3100	-1.3074	0.0012	-0.0143	0.0145	45.3084	-5.8679	3.1949	0.3865	-0.6238	0.4219	0.5325
11.27	-9.6012	-0.3068	-1.3068	0.0102	-0.0103	0.0110	45.4451	-5.8184	3.0324	0.3865	-0.6237	0.4218	0.5325
11.28	-9.6083	-0.2981	-1.3054	0.0021	-0.0109	0.0119	45.3789	-5.7807	3.2042	0.3865	-0.6237	0.4218	0.5325
11.29	-9.6085	-0.3041	-1.3127	0.0014	-0.0129	0.0096	45.3183	-5.8426	3.0749	0.3865	-0.6238	0.4218	0.5326
11.3	-9.6046	-0.3061	-1.3072	0.0019	-0.0066	0.0041	45.3472	-5.6313	3.0427	0.3865	-0.6237	0.4218	0.5325
11.31	-9.6109	-0.3028	-1.3095	0.0034	-0.0082	0.0100	45.3228	-5.8184	3.1779	0.3865	-0.6238	0.4218	0.5326
11.32	-9.6133	-0.3210	-1.3124	-0.0035	-0.0080	0.0087	45.2227	-5.9726	3.1244	0.3864	-0.6238	0.4217	0.5325
11.33	-9.6119	-0.3328	-1.3128	-0.0021	-0.0096	0.0118	45.3211	-5.8606	3.2214	0.3864	-0.6239	0.4217	0.5326
11.34	-9.6086	-0.3452	-1.3154	0.0037	-0.0120	0.0062	45.4098	-5.7521	3.3267	0.3864	-0.6239	0.4217	0.5325
11.35	-9.6110	-0.3492	-1.3106	0.0001	-0.0148	0.0110	45.5242	-5.7639	3.3444	0.3864	-0.6239	0.4217	0.5326
11.36	-9.6243	-0.3398	-1.3126	0.0011	-0.0119	0.0113	45.2633	-5.7425	3.2647	0.3864	-0.6239	0.4216	0.5326
11.37	-9.6079	-0.3231	-1.3113	-0.0012	-0.0152	0.0118	45.2678	-5.5653	3.2070	0.3863	-0.6239	0.4216	0.5326
11.38	-9.6098	-0.3047	-1.3168	-0.0022	-0.0125	0.0086	45.1204	-5.6452	3.3419	0.3864	-0.6240	0.4216	0.5327
11.39	-9.6035	-0.3030	-1.3162	-0.0012	-0.0123	0.0081	45.1561	-5.7801	2.8830	0.3863	-0.6239	0.4215	0.5327
11.4	-9.6067	-0.3112	-1.3082	0.0022	-0.0063	0.0095	45.3075	-5.5858	3.1789	0.3863	-0.6240	0.4215	0.5327
11.41	-9.6042	-0.3163	-1.3104	0.0004	-0.0121	0.0093	45.1453	-5.6075	3.3465	0.3863	-0.6239	0.4215	0.5326
11.42	-9.6056	-0.3412	-1.3042	-0.0058	-0.0113	0.0082	45.1703	-5.5012	3.0749	0.3863	-0.6240	0.4215	0.5327
11.43	-9.6043	-0.3443	-1.3006	-0.0082	-0.0069	0.0070	45.0491	-5.6883	3.3659	0.3862	-0.6241	0.4214	0.5327
11.44	-9.6065	-0.3553	-1.2993	-0.0007	-0.0172	0.0114	45.1564	-5.6744	3.1473	0.3862	-0.6241	0.4214	0.5327
11.45	-9.6089	-0.3580	-1.2866	-0.0041	-0.0146	0.0123	45.3602	-5.7716	3.1431	0.3862	-0.6241	0.4213	0.5328
11.46	-9.6103	-0.3439	-1.2968	0.0042	-0.0074	0.0110	45.5511	-5.8844	3.2869	0.3862	-0.6241	0.4213	0.5328
11.47	-9.6065	-0.3341	-1.2863	0.0124	-0.0155	0.0135	45.4030	-5.9562	3.1788	0.3862	-0.6241	0.4213	0.5328
11.48	-9.6093	-0.3090	-1.2993	0.0002	-0.0121	0.0062	45.4978	-5.8284	3.0579	0.3861	-0.6241	0.4213	0.5328
11.49	-9.6064	-0.2992	-1.3126	0.0012	-0.0115	0.0136	45.4919	-5.8516	3.1736	0.3862	-0.6241	0.4213	0.5328
11.5	-9.6109	-0.2959	-1.3080	0.0008	-0.0087	0.0112	45.3567	-5.9758	3.2959	0.3861	-0.6241	0.4213	0.5328
11.51	-9.6098	-0.2948	-1.3187	0.0058	-0.0105	0.0049	45.2922	-5.7983	3.1181	0.3861	-0.6242	0.4213	0.5328
11.52	-9.6061	-0.2912	-1.3248	0.0043	-0.0125	0.0062	45.6162	-5.6293	3.2790	0.3861	-0.6242	0.4212	0.5328
11.53	-9.6047	-0.2937	-1.3257	0.0017	-0.0048	0.0098	45.4124	-5.8588	3.2886	0.3861	-0.6242	0.4212	0.5328
11.54	-9.6055	-0.3114	-1.3143	-0.0010	-0.0150	0.0103	45.4769	-5.9237	3.0868	0.3861	-0.6242	0.4212	0.5328
11.55	-9.6095	-0.3179	-1.3325	0.0020	-0.0063	0.0092	45.4437	-5.6567	3.2616	0.3860	-0.6242	0.4211	0.5328
11.56	-9.6088	-0.3085	-1.3262	-0.0025	-0.0094	0.0122	45.1945	-5.6897	3.2158	0.3861	-0.6243	0.4212	0.5329
11.57	-9.6094	-0.3111	-1.3231	0.0083	-0.0107	0.0035	45.3127	-5.6733	3.2463	0.3861	-0.6243	0.4211	0.5328
11.58	-9.6080	-0.3049	-1.3143	0.0093	-0.0075	0.0107	45.3375	-5.4720	3.1859	0.3861	-0.6243	0.4212	0.5328
11.59	-9.6047	-0.2973	-1.3056	0.0031	-0.0058	0.0095	45.3457	-5.7131	2.9360	0.3860	-0.6243	0.4211	0.5328
11.6	-9.6092	-0.2947	-1.3147	0.0063	-0.0108	0.0086	45.2139	-5.8559	3.0094	0.3860	-0.6243	0.4211	0.5328
