time	acceleration_x	acceleration_y	acceleration_z	gyroscope_x	gyroscope_y	gyroscope_z	magnetometer_x	magnetometer_y	magnetometer_z	quaternion_w	quaternion_x	quaternion_y	quaternion_z
0	-9.4611	-0.0120	1.3152	-0.0236	-0.0132	-0.0491	38.6891	24.0518	-11.9938	0.4834	0.4853	0.4423	-0.5788
0.01	-9.5077	-0.0103	1.2792	-0.0258	-0.0025	-0.0568	38.9462	23.9151	-11.6621	0.4835	0.4853	0.4424	-0.5789
0.02	-9.5278	-0.0187	1.2733	-0.0204	-0.0125	-0.0531	39.0085	23.8449	-11.6348	0.4835	0.4853	0.4424	-0.5788
0.03	-9.5170	-0.0197	1.2966	-0.0220	-0.0208	-0.0450	38.9130	23.8754	-11.6461	0.4836	0.4853	0.4424	-0.5789
0.04	-9.5091	-0.0168	1.2818	-0.0095	-0.0133	-0.0517	38.8767	23.8459	-11.6211	0.4836	0.4852	0.4423	-0.5788
0.05	-9.5134	-0.0233	1.2854	-0.0019	-0.0126	-0.0550	39.0294	23.8839	-11.7965	0.4836	0.4853	0.4422	-0.5789
0.06	-9.5226	-0.0077	1.2809	-0.0030	-0.0149	-0.0531	38.7268	23.8013	-11.7922	0.4836	0.4853	0.4422	-0.5789
0.07	-9.5141	0.0154	1.2679	-0.0018	-0.0240	-0.0555	38.7675	23.7476	-11.6311	0.4835	0.4853	0.4421	-0.5789
0.08	-9.4972	0.0231	1.3058	-0.0068	-0.0352	-0.0494	39.0370	23.8902	-11.5282	0.4837	0.4853	0.4420	-0.5790
0.09	-9.4990	0.0630	1.2984	-0.0043	-0.0189	-0.0503	38.7954	23.9754	-11.7285	0.4836	0.4853	0.4419	-0.5790
0.1	-9.5091	0.1026	1.3033	-0.0165	-0.0129	-0.0510	38.6401	23.6611	-11.6696	0.4837	0.4853	0.4419	-0.5791
0.11	-9.5108	0.1235	1.3138	-0.0219	-0.0138	-0.0520	39.0181	23.8561	-11.6143	0.4837	0.4852	0.4419	-0.5790
0.12	-9.4887	0.1261	1.3044	-0.0240	-0.0156	-0.0577	39.0671	24.2025	-11.6671	0.4838	0.4852	0.4419	-0.5790
0.13	-9.4789	0.1014	1.3229	-0.0293	-0.0099	-0.0618	38.7738	23.8789	-11.6111	0.4838	0.4852	0.4420	-0.5790
0.14	-9.4844	0.0786	1.3247	-0.0413	-0.0044	-0.0653	38.8810	23.8544	-11.7294	0.4838	0.4851	0.4421	-0.5789
0.15	-9.5036	0.0689	1.3109	-0.0541	-0.0078	-0.0630	39.0083	23.8624	-11.7339	0.4839	0.4850	0.4422	-0.5789
0.16	-9.4974	0.0391	1.2992	-0.0505	-0.0083	-0.0581	38.8266	23.8680	-11.5935	0.4840	0.4849	0.4423	-0.5788
0.17	-9.4844	0.0143	1.3116	-0.0547	-0.0085	-0.0607	39.0231	24.0550	-11.7220	0.4841	0.4848	0.4425	-0.5787
0.18	-9.5055	-0.0046	1.3112	-0.0514	-0.0032	-0.0581	38.7832	23.9474	-11.7481	0.4841	0.4847	0.4425	-0.5786
0.19	-9.5332	-0.0149	1.2825	-0.0527	0.0001	-0.0594	38.8395	23.8395	-11.6061	0.4842	0.4847	0.4427	-0.5785
0.2	-9.5166	-0.0119	1.2827	-0.0541	-0.0106	-0.0522	38.8843	24.0409	-11.6773	0.4843	0.4846	0.4428	-0.5784
0.21	-9.5099	-0.0244	1.2950	-0.0467	-0.0148	-0.0532	39.0272	23.9835	-11.5521	0.4844	0.4845	0.4429	-0.5784
0.22	-9.5169	-0.0541	1.2769	-0.0441	-0.0123	-0.0569	39.1976	23.8324	-11.5343	0.4845	0.4844	0.4430	-0.5783
0.23	-9.5129	-0.0522	1.2891	-0.0319	-0.0124	-0.0542	39.0155	23.8946	-11.9453	0.4845	0.4844	0.4430	-0.5782
0.24	-9.5099	-0.0148	1.2839	-0.0271	-0.0109	-0.0516	38.9333	23.9826	-11.6403	0.4846	0.4843	0.4430	-0.5782
0.25	-9.5217	-0.0039	1.2739	-0.0285	-0.0058	-0.0586	38.8528	23.8540	-11.7350	0.4846	0.4843	0.4430	-0.5781
0.26	-9.5182	0.0034	1.2649	-0.0281	-0.0141	-0.0526	39.0442	23.8582	-11.6097	0.4847	0.4843	0.4431	-0.5782
0.27	-9.4994	0.0231	1.2740	-0.0278	-0.0198	-0.0527	39.0507	24.0311	-11.5357	0.4847	0.4842	0.4431	-0.5781
0.28	-9.4945	0.0241	1.2776	-0.0281	-0.0110	-0.0591	38.9049	23.9940	-11.5398	0.4848	0.4842	0.4432	-0.5782
0.29	-9.5250	0.0092	1.2790	-0.0272	-0.0015	-0.0622	38.8754	23.8234	-11.6593	0.4847	0.4841	0.4432	-0.5780
0.3	-9.5579	0.0151	1.2604	-0.0300	-0.0025	-0.0579	38.8177	24.0182	-11.4808	0.4848	0.4841	0.4433	-0.5780
0.31	-9.5317	0.0020	1.2636	-0.0357	-0.0157	-0.0590	39.3157	24.0167	-11.3072	0.4848	0.4841	0.4433	-0.5780
0.32	-9.5138	-0.0077	1.2998	-0.0262	-0.0130	-0.0594	39.3758	23.8366	-11.4556	0.4849	0.4840	0.4433	-0.5780
0.33	-9.5345	-0.0002	1.2717	-0.0346	-0.0109	-0.0617	39.0631	23.9968	-11.5714	0.4850	0.4840	0.4435	-0.5780
0.34	-9.5274	-0.0208	1.2805	-0.0318	-0.0245	-0.0601	38.7768	24.1975	-11.5719	0.4850	0.4838	0.4434	-0.5780
0.35	-9.4696	-0.0338	1.2905	-0.0269	-0.0263	-0.0579	38.6003	24.0907	-11.9058	0.4851	0.4838	0.4435	-0.5780
0.36	-9.4886	-0.0373	1.3527	-0.0277	-0.0240	-0.0592	38.8934	23.9363	-11.8034	0.4851	0.4836	0.4434	-0.5779
0.37	-9.5859	-0.0555	1.3050	-0.0281	0.0018	-0.0563	38.8400	23.9592	-11.6722	0.4851	0.4837	0.4435	-0.5780
0.38	-9.5630	-0.0701	1.2618	-0.0262	-0.0269	-0.0559	38.9091	23.9510	-11.7234	0.4852	0.4836	0.4435	-0.5779
0.39	-9.4717	-0.1003	1.3439	-0.0243	-0.0415	-0.0573	38.9751	23.9613	-11.6846	0.4853	0.4835	0.4434	-0.5780
0.4	-9.4520	-0.1151	1.3139	-0.0201	-0.0227	-0.0476	38.9195	23.8632	-11.7202	0.4854	0.4835	0.4434	-0.5780
0.41	-9.4582	-0.1153	1.2902	-0.0000	-0.0217	-0.0396	39.1280	23.7198	-11.8030	0.4854	0.4835	0.4433	-0.5780
0.42	-9.4194	-0.0692	1.3116	-0.0033	-0.0229	-0.0305	39.0579	23.6865	-11.7863	0.4855	0.4835	0.4432	-0.5780
0.43	-9.3959	-0.0319	1.3166	0.0024	-0.0132	-0.0372	39.0319	23.6839	-11.7815	0.4855	0.4836	0.4430	-0.5780
0.44	-9.4064	-0.0458	1.2827	-0.0013	0.0038	-0.0391	39.0208	23.7073	-11.8051	0.4855	0.4837	0.4430	-0.5780
0.45	-9.4245	-0.0495	1.2665	0.0017	0.0095	-0.0447	38.9261	23.8063	-11.7445	0.4855	0.4838	0.4430	-0.5779
0.46	-9.4447	-0.0344	1.2702	0.0119	0.0127	-0.0424	38.9527	23.7514	-11.6725	0.4854	0.4840	0.4429	-0.5779
0.47	-9.4749	-0.0155	1.2577	0.0231	0.0228	-0.0381	38.9608	23.8982	-11.7236	0.4853	0.4842	0.4428	-0.5779
0.48	-9.4944	0.0158	1.2316	0.0236	0.0209	-0.0361	38.7824	23.5775	-11.6622	0.4852	0.4844	0.4428	-0.5778
0.49	-9.4918	0.0631	1.2368	0.0218	0.0160	-0.0407	38.8230	23.7076	-11.5674	0.4851	0.4846	0.4427	-0.5778
0.5	-9.4995	0.0894	1.2411	0.0174	0.0229	-0.0555	38.8679	23.8868	-11.7056	0.4849	0.4848	0.4426	-0.5778
0.51	-9.5079	0.0766	1.2104	0.0103	0.0242	-0.0558	38.8688	23.9569	-11.8080	0.4849	0.4850	0.4427	-0.5778
0.52	-9.5320	0.0716	1.2057	0.0120	0.0236	-0.0558	38.8185	23.8028	-11.6391	0.4847	0.4851	0.4427	-0.5777
0.53	-9.5561	0.0825	1.1907	0.0102	0.0183	-0.0552	38.7505	23.7576	-11.8143	0.4846	0.4853	0.4427	-0.5778
0.54	-9.5740	0.0747	1.1894	-0.0022	0.0123	-0.0569	38.7737	23.8722	-11.6840	0.4845	0.4853	0.4426	-0.5777
0.55	-9.5832	0.0656	1.1729	-0.0016	0.0069	-0.0550	38.8922	23.8698	-11.6017	0.4844	0.4854	0.4427	-0.5777
0.56	-9.5878	0.0582	1.1728	-0.0146	0.0052	-0.0488	38.8095	23.8563	-11.5907	0.4844	0.4855	0.4427	-0.5776
0.57	-9.5873	0.0400	1.1628	-0.0105	0.0052	-0.0448	39.0419	23.8892	-11.7037	0.4844	0.4855	0.4426	-0.5775
0.58	-9.5860	0.0238	1.1648	-0.0117	-0.0063	-0.0476	39.0265	23.7443	-11.6840	0.4845	0.4856	0.4427	-0.5776
0.59	-9.5770	0.0285	1.1561	-0.0074	-0.0098	-0.0403	38.9371	23.4125	-11.5900	0.4845	0.4857	0.4426	-0.5775
0.6	-9.5585	0.0245	1.1631	-0.0162	-0.0161	-0.0380	39.1398	23.4430	-11.7977	0.4846	0.4857	0.4426	-0.5775
0.61	-9.5006	0.0272	1.1733	-0.0092	-0.0226	-0.0431	39.1179	23.4072	-11.7765	0.4846	0.4856	0.4424	-0.5775
0.62	-9.5475	0.0675	1.2265	-0.0067	-0.0072	-0.0458	39.0082	23.5660	-11.6676	0.4846	0.4857	0.4424	-0.5775
0.63	-9.6080	0.0622	1.1644	-0.0096	0.0008	-0.0568	38.9055	23.7841	-11.5534	0.4846	0.4858	0.4424	-0.5775
0.64	-9.5396	0.0242	1.1881	-0.0111	-0.0353	-0.0579	39.0448	23.7622	-11.7658	0.4846	0.4857	0.4423	-0.5775
0.65	-9.5078	-0.0166	1.2712	-0.0073	-0.0292	-0.0600	39.0276	23.8927	-11.9218	0.4847	0.4857	0.4423	-0.5776
0.66	-9.5761	-0.0236	1.2169	-0.0004	-0.0147	-0.0459	39.0545	23.6978	-11.6996	0.4846	0.4857	0.4422	-0.5776
0.67	-9.5522	-0.0033	1.2076	-0.0030	-0.0441	-0.0363	38.7648	23.7442	-11.7473	0.4848	0.4857	0.4421	-0.5777
0.68	-9.4738	0.0554	1.2951	0.0001	-0.0547	-0.0386	38.8663	23.7956	-11.9027	0.4848	0.4856	0.4418	-0.5777
0.69	-9.4695	0.0780	1.2871	-0.0031	-0.0317	-0.0460	38.8241	23.7601	-11.7637	0.4850	0.4856	0.4417	-0.5779
0.7	-9.5042	0.0431	1.2589	-0.0008	-0.0249	-0.0488	38.8082	23.8068	-11.8209	0.4850	0.4856	0.4416	-0.5779
0.71	-9.5060	0.0278	1.2518	-0.0028	-0.0214	-0.0483	39.1098	23.9709	-12.0054	0.4850	0.4856	0.4416	-0.5779
0.72	-9.4552	0.0328	1.2561	0.0016	-0.0309	-0.0508	38.8070	23.8523	-11.8623	0.4850	0.4856	0.4414	-0.5780
0.73	-9.4333	0.0457	1.2916	-0.0003	-0.0165	-0.0517	38.7743	23.7506	-11.6564	0.4850	0.4856	0.4413	-0.5780
0.74	-9.4860	0.0843	1.2706	0.0026	-0.0025	-0.0538	38.9487	23.8066	-11.7212	0.4850	0.4857	0.4413	-0.5781
0.75	-9.4987	0.1144	1.2360	0.0010	-0.0064	-0.0544	38.9389	23.6835	-11.6805	0.4849	0.4857	0.4412	-0.5780
0.76	-9.4745	0.1266	1.2773	-0.0033	-0.0153	-0.0559	38.9615	23.6963	-11.7098	0.4850	0.4858	0.4412	-0.5781
0.77	-9.4976	0.1261	1.2860	-0.0012	-0.0073	-0.0577	38.9188	23.6731	-11.8341	0.4849	0.4858	0.4412	-0.5781
0.78	-9.5286	0.0981	1.2603	-0.0121	-0.0044	-0.0524	39.0331	23.4962	-11.6835	0.4849	0.4859	0.4412	-0.5782
0.79	-9.5263	0.0911	1.2661	-0.0145	-0.0171	-0.0447	39.0290	23.6066	-11.7855	0.4849	0.4858	0.4411	-0.5781
0.8	-9.5266	0.0969	1.2822	-0.0119	-0.0131	-0.0512	38.9422	23.8380	-11.9199	0.4850	0.4858	0.4411	-0.5781
0.81	-9.5226	0.0754	1.2711	-0.0267	-0.0170	-0.0473	39.4965	23.6928	-11.6191	0.4850	0.4858	0.4411	-0.5781
0.82	-9.5008	0.0643	1.2909	-0.0244	-0.0297	-0.0399	39.7061	23.4116	-11.2716	0.4851	0.4857	0.4410	-0.5780
0.83	-9.4771	0.0690	1.2921	-0.0278	-0.0245	-0.0468	39.3588	23.5372	-11.4916	0.4853	0.4858	0.4410	-0.5781
0.84	-9.4654	0.0495	1.2864	-0.0280	-0.0195	-0.0441	39.0346	23.9599	-11.4898	0.4853	0.4857	0.4410	-0.5780
0.85	-9.4682	0.0613	1.2924	-0.0249	-0.0134	-0.0469	38.7660	23.6162	-11.7029	0.4854	0.4857	0.4410	-0.5780
0.86	-9.4837	0.0855	1.2944	-0.0216	-0.0125	-0.0424	38.8965	23.6785	-11.8407	0.4854	0.4856	0.4409	-0.5779
0.87	-9.5091	0.0975	1.2796	-0.0236	0.0006	-0.0510	38.9117	23.7738	-11.7155	0.4855	0.4857	0.4410	-0.5779
0.88	-9.5089	0.0914	1.2694	-0.0189	-0.0030	-0.0579	39.0446	23.8209	-11.9014	0.4855	0.4857	0.4410	-0.5779
0.89	-9.5264	0.0838	1.2935	-0.0185	-0.0018	-0.0553	39.1089	23.8203	-11.6438	0.4855	0.4857	0.4410	-0.5778
0.9	-9.5449	0.0905	1.2525	-0.0260	-0.0003	-0.0554	38.9412	23.6369	-11.6278	0.4855	0.4857	0.4411	-0.5778
0.91	-9.5483	0.0851	1.2672	-0.0258	-0.0069	-0.0575	38.7832	23.7282	-11.6618	0.4855	0.4857	0.4411	-0.5777
0.92	-9.5356	0.0745	1.2715	-0.0288	-0.0164	-0.0545	39.0072	24.0301	-11.5859	0.4856	0.4857	0.4412	-0.5777
0.93	-9.5185	0.0557	1.2714	-0.0259	-0.0173	-0.0559	38.9676	23.9754	-11.5232	0.4856	0.4855	0.4411	-0.5777
0.94	-9.5049	0.0339	1.2766	-0.0267	-0.0166	-0.0513	39.0070	23.6942	-11.6937	0.4857	0.4856	0.4412	-0.5777
0.95	-9.4890	0.0486	1.2882	-0.0286	-0.0241	-0.0438	39.0922	23.8729	-11.7378	0.4858	0.4855	0.4411	-0.5777
0.96	-9.4991	0.0750	1.3003	-0.0247	-0.0194	-0.0409	38.8146	23.7275	-11.7430	0.4859	0.4855	0.4411	-0.5776
0.97	-9.4886	0.0856	1.2874	-0.0213	-0.0252	-0.0433	39.2460	23.5537	-11.7126	0.4860	0.4854	0.4410	-0.5776
0.98	-9.4698	0.0893	1.3006	-0.0258	-0.0173	-0.0418	39.1765	23.7582	-11.5081	0.4861	0.4854	0.4410	-0.5776
0.99	-9.4621	0.1062	1.3044	-0.0263	-0.0050	-0.0438	39.0599	23.5555	-11.7658	0.4861	0.4854	0.4410	-0.5775
1	-9.4938	0.1261	1.2955	-0.0250	-0.0026	-0.0494	38.9836	23.3965	-11.6108	0.4861	0.4854	0.4410	-0.5774
1.01	-9.5338	0.1173	1.2847	-0.0281	-0.0054	-0.0509	38.9067	23.6241	-11.7675	0.4862	0.4855	0.4411	-0.5774
1.02	-9.5370	0.1097	1.2626	-0.0234	-0.0146	-0.0610	38.9655	23.5987	-11.6762	0.4862	0.4854	0.4411	-0.5774
1.03	-9.5286	0.1041	1.2614	-0.0267	-0.0185	-0.0592	38.8742	23.7992	-11.6270	0.4863	0.4854	0.4412	-0.5774
1.04	-9.5411	0.0961	1.2685	-0.0259	-0.0188	-0.0588	38.8947	23.6620	-11.6485	0.4863	0.4852	0.4411	-0.5774
1.05	-9.5467	0.0945	1.2569	-0.0277	-0.0172	-0.0656	38.8011	23.6979	-11.6361	0.4864	0.4852	0.4412	-0.5774
1.06	-9.5422	0.1099	1.2659	-0.0277	-0.0165	-0.0616	38.9551	23.8379	-11.8401	0.4864	0.4851	0.4412	-0.5774
1.07	-9.5376	0.1091	1.2676	-0.0280	-0.0232	-0.0682	39.0984	23.8813	-11.7579	0.4864	0.4850	0.4412	-0.5774
1.08	-9.5197	0.0902	1.2569	-0.0294	-0.0300	-0.0706	38.9334	23.7361	-11.5115	0.4865	0.4850	0.4413	-0.5775
1.09	-9.5011	0.0908	1.2818	-0.0324	-0.0275	-0.0630	38.9460	23.6851	-11.5761	0.4865	0.4848	0.4413	-0.5775
1.1	-9.5074	0.1037	1.2834	-0.0318	-0.0259	-0.0710	38.9106	23.8706	-11.7411	0.4866	0.4847	0.4414	-0.5776
1.11	-9.5068	0.0934	1.2631	-0.0385	-0.0249	-0.0645	38.5627	23.8415	-11.7260	0.4866	0.4845	0.4413	-0.5775
1.12	-9.4860	0.0774	1.2833	-0.0382	-0.0243	-0.0625	38.8981	23.8743	-11.7637	0.4867	0.4845	0.4414	-0.5776
1.13	-9.4685	0.0752	1.2860	-0.0445	-0.0299	-0.0645	38.8807	23.8112	-11.6626	0.4868	0.4843	0.4415	-0.5776
1.14	-9.4676	0.0451	1.2873	-0.0469	-0.0199	-0.0627	38.9151	23.7314	-11.6958	0.4869	0.4842	0.4415	-0.5775
1.15	-9.4689	0.0141	1.2719	-0.0327	-0.0211	-0.0650	38.8608	23.8992	-11.8643	0.4870	0.4841	0.4416	-0.5775
1.16	-9.4901	0.0177	1.2930	-0.0281	-0.0183	-0.0639	39.1061	23.7984	-11.6656	0.4870	0.4840	0.4416	-0.5775
1.17	-9.5182	-0.0013	1.2766	-0.0254	-0.0092	-0.0674	39.3480	23.5739	-11.8361	0.4870	0.4840	0.4417	-0.5776
1.18	-9.4967	-0.0170	1.2647	-0.0282	-0.0219	-0.0651	38.9562	23.6705	-11.7299	0.4870	0.4838	0.4417	-0.5775
1.19	-9.4986	0.0044	1.3049	-0.0267	-0.0167	-0.0659	38.9836	23.8149	-11.6269	0.4871	0.4838	0.4418	-0.5776
1.2	-9.5101	0.0162	1.2605	-0.0278	-0.0119	-0.0666	39.0040	23.6951	-11.8112	0.4871	0.4837	0.4418	-0.5776
1.21	-9.4786	0.0140	1.2837	-0.0265	-0.0247	-0.0702	38.9034	23.7327	-11.8419	0.4871	0.4836	0.4418	-0.5776
1.22	-9.4638	0.0203	1.3359	-0.0245	-0.0207	-0.0651	38.8958	23.8764	-11.7267	0.4871	0.4835	0.4418	-0.5776
1.23	-9.5269	0.0350	1.3286	-0.0271	-0.0026	-0.0606	38.8830	23.9779	-11.6124	0.4871	0.4835	0.4419	-0.5776
1.24	-9.5960	0.0308	1.3043	-0.0272	-0.0094	-0.0602	38.9542	23.8755	-11.7016	0.4871	0.4835	0.4420	-0.5776
1.25	-9.5778	-0.0026	1.2879	-0.0300	-0.0236	-0.0591	39.0014	23.8583	-11.8318	0.4872	0.4834	0.4419	-0.5775
1.26	-9.5239	-0.0410	1.2932	-0.0306	-0.0264	-0.0560	38.9741	23.7398	-11.8328	0.4873	0.4834	0.4420	-0.5776
1.27	-9.4948	-0.0596	1.2837	-0.0297	-0.0276	-0.0398	38.8383	23.8260	-11.6479	0.4874	0.4833	0.4419	-0.5776
1.28	-9.4790	-0.0407	1.2875	-0.0336	-0.0325	-0.0323	38.7898	23.8276	-11.7070	0.4876	0.4833	0.4419	-0.5776
1.29	-9.4552	0.0043	1.2958	-0.0268	-0.0297	-0.0322	38.8191	23.6296	-11.7560	0.4877	0.4832	0.4418	-0.5774
1.3	-9.4460	0.0399	1.3105	-0.0285	-0.0210	-0.0346	38.9019	23.8552	-11.7051	0.4879	0.4832	0.4418	-0.5774
1.31	-9.4597	0.0283	1.2889	-0.0165	-0.0100	-0.0426	39.1206	23.9875	-11.4129	0.4879	0.4832	0.4417	-0.5774
1.32	-9.4672	0.0054	1.2840	-0.0111	-0.0090	-0.0462	39.5580	23.8777	-11.6318	0.4879	0.4832	0.4417	-0.5773
1.33	-9.4635	0.0172	1.2850	-0.0131	-0.0104	-0.0470	39.2944	23.6166	-11.7401	0.4880	0.4833	0.4417	-0.5774
1.34	-9.4649	0.0426	1.2904	0.0004	-0.0135	-0.0465	38.9704	23.5026	-11.8867	0.4880	0.4833	0.4416	-0.5773
1.35	-9.4849	0.0651	1.2850	0.0005	-0.0026	-0.0550	39.0112	23.6402	-11.7715	0.4880	0.4834	0.4416	-0.5774
1.36	-9.5056	0.0957	1.2831	-0.0021	0.0003	-0.0579	38.9258	23.7442	-11.9083	0.4878	0.4834	0.4415	-0.5773
1.37	-9.5172	0.1187	1.2783	-0.0030	-0.0082	-0.0575	38.8704	23.4943	-11.8031	0.4879	0.4834	0.4415	-0.5774
1.38	-9.5148	0.1163	1.2925	-0.0171	-0.0073	-0.0616	38.9137	23.6272	-11.6875	0.4878	0.4834	0.4415	-0.5774
1.39	-9.5130	0.1108	1.2836	-0.0273	-0.0091	-0.0565	38.8160	23.6357	-11.8813	0.4878	0.4834	0.4415	-0.5774
1.4	-9.5144	0.1136	1.2925	-0.0213	-0.0062	-0.0591	38.8673	23.7372	-11.9853	0.4879	0.4834	0.4416	-0.5774
1.41	-9.5162	0.1097	1.2939	-0.0283	-0.0170	-0.0583	38.7105	23.8501	-12.2056	0.4879	0.4833	0.4416	-0.5773
1.42	-9.5253	0.0842	1.2958	-0.0319	-0.0120	-0.0579	38.8115	23.7481	-11.8864	0.4880	0.4833	0.4417	-0.5773
1.43	-9.5296	0.0547	1.2899	-0.0311	-0.0125	-0.0514	38.6279	23.6950	-11.8592	0.4880	0.4832	0.4416	-0.5772
1.44	-9.5218	0.0318	1.2905	-0.0411	-0.0189	-0.0539	38.7243	23.9787	-11.9100	0.4881	0.4832	0.4417	-0.5773
1.45	-9.5050	0.0047	1.3013	-0.0345	-0.0092	-0.0540	38.7343	23.7893	-12.1493	0.4882	0.4831	0.4417	-0.5772
1.46	-9.4912	-0.0134	1.2751	-0.0310	-0.0140	-0.0585	38.8733	23.6901	-11.8768	0.4882	0.4831	0.4418	-0.5772
1.47	-9.4795	-0.0190	1.2777	-0.0256	-0.0225	-0.0565	38.7102	23.8406	-11.8698	0.4883	0.4830	0.4418	-0.5772
1.48	-9.4351	-0.0288	1.2835	-0.0275	-0.0124	-0.0579	38.7374	23.7973	-12.0181	0.4883	0.4829	0.4418	-0.5772
1.49	-9.4820	0.0106	1.3425	-0.0153	0.0024	-0.0601	38.8385	23.8520	-11.8926	0.4883	0.4830	0.4419	-0.5771
1.5	-9.5638	0.0183	1.2804	-0.0176	0.0152	-0.0681	38.7180	24.0325	-11.8777	0.4882	0.4830	0.4419	-0.5771
1.51	-9.5238	0.0076	1.2794	-0.0226	-0.0166	-0.0655	38.8801	23.7393	-11.8761	0.4882	0.4830	0.4420	-0.5771
1.52	-9.4561	-0.0387	1.3300	-0.0211	-0.0212	-0.0689	38.7091	23.6378	-11.8796	0.4882	0.4829	0.4420	-0.5771
1.53	-9.4832	-0.0614	1.3148	-0.0104	-0.0152	-0.0500	39.0654	23.7972	-11.8590	0.4883	0.4829	0.4420	-0.5772
1.54	-9.5169	-0.0144	1.3012	-0.0056	-0.0123	-0.0416	38.9124	23.5848	-11.9747	0.4883	0.4829	0.4419	-0.5771
1.55	-9.4913	0.0452	1.3326	-0.0073	-0.0249	-0.0400	38.8429	23.5920	-12.0742	0.4883	0.4829	0.4418	-0.5772
1.56	-9.4676	0.0735	1.3631	-0.0009	-0.0154	-0.0361	38.8310	23.8017	-11.8601	0.4884	0.4830	0.4417	-0.5772
1.57	-9.4806	0.0403	1.3386	-0.0187	-0.0027	-0.0447	38.9436	23.5514	-11.9546	0.4884	0.4830	0.4416	-0.5771
1.58	-9.4978	0.0030	1.3004	-0.0243	-0.0058	-0.0463	38.8242	23.5314	-11.9741	0.4885	0.4831	0.4417	-0.5771
1.59	-9.4841	0.0082	1.3039	-0.0070	0.0007	-0.0431	38.8937	23.7410	-11.9566	0.4885	0.4831	0.4416	-0.5770
1.6	-9.4952	0.0163	1.3028	-0.0081	0.0011	-0.0483	38.9516	23.6338	-11.9776	0.4885	0.4832	0.4416	-0.5770
1.61	-9.5225	0.0102	1.2703	-0.0049	0.0126	-0.0426	38.9488	23.7548	-11.9592	0.4884	0.4833	0.4416	-0.5769
1.62	-9.5350	0.0190	1.2577	0.0001	0.0083	-0.0459	38.6767	23.5557	-11.7495	0.4884	0.4834	0.4416	-0.5769
1.63	-9.5525	0.0327	1.2588	0.0035	0.0048	-0.0513	38.7264	23.8356	-11.7878	0.4883	0.4835	0.4416	-0.5769
1.64	-9.5513	0.0313	1.2434	0.0051	-0.0073	-0.0545	38.7566	23.8442	-11.8434	0.4883	0.4836	0.4415	-0.5769
1.65	-9.5451	0.0260	1.2624	0.0101	-0.0108	-0.0487	38.8790	23.9106	-12.0163	0.4883	0.4837	0.4414	-0.5769
1.66	-9.5403	0.0367	1.2690	0.0072	-0.0143	-0.0470	38.7937	23.9884	-11.7823	0.4882	0.4837	0.4413	-0.5770
1.67	-9.5436	0.0487	1.2607	-0.0041	-0.0218	-0.0461	38.8074	23.8770	-11.8593	0.4883	0.4837	0.4412	-0.5770
1.68	-9.5405	0.0589	1.2841	0.0004	-0.0290	-0.0453	38.8746	23.8396	-11.8849	0.4883	0.4837	0.4411	-0.5770
1.69	-9.5351	0.0912	1.2868	0.0008	-0.0227	-0.0428	38.7268	23.7971	-11.7744	0.4884	0.4838	0.4410	-0.5771
1.7	-9.5203	0.1066	1.2902	0.0005	-0.0218	-0.0359	38.7920	23.8215	-11.9397	0.4884	0.4838	0.4409	-0.5771
1.71	-9.5323	0.1181	1.3062	-0.0021	-0.0233	-0.0398	38.9626	23.5500	-12.0498	0.4885	0.4838	0.4408	-0.5771
1.72	-9.5522	0.1388	1.2941	-0.0035	-0.0267	-0.0401	38.8139	23.4713	-12.0557	0.4885	0.4838	0.4406	-0.5771
1.73	-9.5246	0.1313	1.2960	-0.0161	-0.0346	-0.0484	38.7731	23.4278	-11.9312	0.4886	0.4838	0.4405	-0.5772
1.74	-9.4943	0.1189	1.3317	-0.0091	-0.0341	-0.0492	38.8750	23.5794	-11.9881	0.4887	0.4838	0.4405	-0.5772
1.75	-9.5034	0.1136	1.3323	-0.0135	-0.0279	-0.0524	38.8298	23.6958	-11.8804	0.4887	0.4837	0.4403	-0.5772
1.76	-9.5105	0.1067	1.3169	-0.0232	-0.0310	-0.0578	38.9551	23.2864	-11.8429	0.4888	0.4837	0.4404	-0.5773
1.77	-9.4704	0.0954	1.3339	-0.0270	-0.0401	-0.0567	38.7800	23.6244	-12.0769	0.4889	0.4835	0.4403	-0.5773
1.78	-9.4342	0.0737	1.3626	-0.0282	-0.0369	-0.0582	38.7331	23.5779	-11.9523	0.4890	0.4835	0.4403	-0.5774
1.79	-9.4334	0.0588	1.3619	-0.0277	-0.0321	-0.0559	38.8742	23.5330	-12.0875	0.4890	0.4833	0.4402	-0.5774
1.8	-9.4368	0.0573	1.3514	-0.0281	-0.0269	-0.0569	38.8064	23.6792	-11.9853	0.4891	0.4832	0.4403	-0.5774
1.81	-9.4236	0.0624	1.3702	-0.0277	-0.0265	-0.0595	39.1598	23.7918	-11.6871	0.4892	0.4831	0.4403	-0.5774
1.82	-9.4274	0.0788	1.3821	-0.0273	-0.0115	-0.0507	39.5225	23.8453	-11.9089	0.4892	0.4831	0.4402	-0.5774
1.83	-9.4442	0.0865	1.3706	-0.0279	-0.0031	-0.0530	39.2385	23.7179	-11.9219	0.4893	0.4831	0.4403	-0.5774
1.84	-9.4538	0.0820	1.3728	-0.0277	-0.0052	-0.0575	38.9730	23.6472	-12.0693	0.4893	0.4831	0.4403	-0.5773
1.85	-9.4727	0.0855	1.3659	-0.0274	0.0011	-0.0569	38.7252	23.5093	-12.0812	0.4893	0.4831	0.4404	-0.5773
1.86	-9.4902	0.0803	1.3473	-0.0257	0.0071	-0.0560	38.9263	23.5975	-11.8908	0.4893	0.4831	0.4404	-0.5772
1.87	-9.4890	0.0856	1.3411	-0.0283	-0.0025	-0.0571	38.7769	23.5863	-11.9589	0.4893	0.4831	0.4405	-0.5772
1.88	-9.4922	0.0876	1.3442	-0.0276	0.0031	-0.0561	38.8206	23.7990	-11.6942	0.4893	0.4831	0.4406	-0.5771
1.89	-9.4921	0.0785	1.3322	-0.0283	-0.0002	-0.0527	38.8013	23.9011	-11.9443	0.4894	0.4831	0.4406	-0.5770
1.9	-9.4868	0.0715	1.3279	-0.0281	-0.0075	-0.0569	38.8072	23.7236	-11.8973	0.4894	0.4831	0.4407	-0.5770
1.91	-9.4787	0.0544	1.3223	-0.0279	-0.0091	-0.0598	38.9499	23.6967	-11.7399	0.4894	0.4830	0.4407	-0.5770
1.92	-9.4810	0.0369	1.3201	-0.0289	-0.0014	-0.0587	39.0049	23.8298	-11.8635	0.4895	0.4830	0.4408	-0.5769
1.93	-9.4926	0.0490	1.3089	-0.0288	0.0037	-0.0508	38.9604	23.5774	-11.9013	0.4894	0.4830	0.4408	-0.5768
1.94	-9.5014	0.0418	1.3067	-0.0288	0.0001	-0.0434	39.1169	23.4947	-12.0441	0.4895	0.4831	0.4409	-0.5768
1.95	-9.5008	0.0414	1.3011	-0.0286	-0.0076	-0.0518	39.0116	23.8292	-11.8418	0.4896	0.4831	0.4409	-0.5767
1.96	-9.4919	0.0531	1.3021	-0.0290	-0.0041	-0.0521	38.9777	23.5924	-11.8285	0.4896	0.4831	0.4410	-0.5767
1.97	-9.4922	0.0649	1.3116	-0.0287	0.0068	-0.0507	38.9899	23.6923	-11.8452	0.4896	0.4831	0.4410	-0.5766
1.98	-9.5030	0.0670	1.3008	-0.0271	0.0046	-0.0555	38.7304	23.6581	-11.8151	0.4896	0.4831	0.4411	-0.5765
1.99	-9.4980	0.0590	1.3035	-0.0284	0.0032	-0.0536	38.7160	23.7700	-12.1063	0.4896	0.4831	0.4411	-0.5764
2	-9.4909	0.0558	1.2981	-0.0274	0.0060	-0.0572	38.7081	23.9856	-12.0545	0.4896	0.4831	0.4412	-0.5763
2.01	-9.5010	0.0646	1.3219	-0.0285	0.0053	-0.0528	38.9307	23.9089	-11.6958	0.4897	0.4832	0.4413	-0.5763
2.02	-9.5336	0.0668	1.3090	-0.0259	0.0216	-0.0540	38.8847	23.7015	-11.9088	0.4896	0.4832	0.4414	-0.5762
2.03	-9.5467	0.0509	1.2791	-0.0230	0.0142	-0.0504	38.9038	23.6557	-11.7220	0.4896	0.4833	0.4415	-0.5761
2.04	-9.5374	0.0302	1.2937	-0.0219	-0.0000	-0.0541	38.8876	23.7938	-11.8466	0.4896	0.4832	0.4414	-0.5760
2.05	-9.5354	0.0248	1.2831	-0.0223	0.0074	-0.0486	39.0250	23.8534	-11.8384	0.4896	0.4833	0.4415	-0.5760
2.06	-9.5356	0.0233	1.2745	-0.0175	0.0010	-0.0494	38.9247	23.7107	-11.8329	0.4896	0.4834	0.4415	-0.5759
2.07	-9.5197	0.0269	1.2760	-0.0054	-0.0088	-0.0464	38.8652	23.5836	-11.8387	0.4896	0.4834	0.4415	-0.5759
2.08	-9.5099	0.0299	1.3057	-0.0052	-0.0183	-0.0453	39.0238	23.6129	-11.8210	0.4897	0.4835	0.4414	-0.5760
2.09	-9.5259	0.0333	1.3035	-0.0020	-0.0105	-0.0451	38.9457	23.6936	-11.8676	0.4897	0.4835	0.4413	-0.5759
2.1	-9.5358	0.0570	1.2852	-0.0030	-0.0070	-0.0506	39.0757	23.7037	-11.9730	0.4897	0.4836	0.4413	-0.5759
2.11	-9.4903	0.0762	1.2837	-0.0011	-0.0131	-0.0524	39.0650	23.5046	-11.7972	0.4896	0.4835	0.4412	-0.5759
2.12	-9.4902	0.0986	1.3132	-0.0010	-0.0129	-0.0484	38.8739	23.3930	-11.8651	0.4897	0.4836	0.4412	-0.5760
2.13	-9.5157	0.1145	1.2713	-0.0029	-0.0031	-0.0552	39.0246	23.6052	-11.9378	0.4896	0.4837	0.4411	-0.5760
2.14	-9.4763	0.1231	1.2777	-0.0082	-0.0154	-0.0575	38.6551	23.5718	-11.9265	0.4896	0.4837	0.4411	-0.5760
2.15	-9.4449	0.1185	1.3541	-0.0144	-0.0159	-0.0551	38.9639	23.6189	-11.9168	0.4896	0.4837	0.4411	-0.5760
2.16	-9.5362	0.1193	1.3521	-0.0165	0.0033	-0.0571	38.8082	23.8110	-11.8185	0.4896	0.4837	0.4411	-0.5760
2.17	-9.5909	0.1143	1.2977	-0.0259	-0.0101	-0.0527	38.9144	23.7246	-11.8409	0.4897	0.4837	0.4411	-0.5760
2.18	-9.5347	0.0896	1.3366	-0.0290	-0.0296	-0.0516	39.0970	23.5492	-11.8354	0.4897	0.4836	0.4411	-0.5759
2.19	-9.4812	0.0377	1.3370	-0.0281	-0.0216	-0.0522	39.0731	23.7715	-11.8196	0.4898	0.4836	0.4411	-0.5759
2.2	-9.4560	0.0084	1.2931	-0.0283	-0.0181	-0.0382	38.8905	23.8208	-11.8783	0.4899	0.4835	0.4411	-0.5759
2.21	-9.4218	0.0355	1.3059	-0.0279	-0.0253	-0.0341	38.9869	23.5387	-11.7059	0.4901	0.4835	0.4410	-0.5758
2.22	-9.4046	0.0864	1.3371	-0.0285	-0.0087	-0.0331	38.8740	23.7183	-11.9738	0.4901	0.4835	0.4410	-0.5757
2.23	-9.4298	0.1008	1.3047	-0.0219	0.0113	-0.0401	38.9442	23.6525	-11.9863	0.4902	0.4836	0.4410	-0.5756
2.24	-9.4487	0.0906	1.2784	-0.0230	0.0112	-0.0514	38.9482	23.7331	-11.9411	0.4902	0.4837	0.4411	-0.5756
2.25	-9.4533	0.0648	1.2870	-0.0155	0.0088	-0.0608	38.8635	23.8709	-11.7479	0.4901	0.4837	0.4411	-0.5755
2.26	-9.4591	0.0502	1.2622	-0.0026	0.0144	-0.0595	39.0170	23.7521	-11.8601	0.4901	0.4838	0.4412	-0.5755
2.27	-9.4652	0.0757	1.2408	-0.0014	0.0146	-0.0619	38.9741	23.6217	-12.0943	0.4899	0.4839	0.4412	-0.5754
2.28	-9.4738	0.1069	1.2490	-0.0020	0.0140	-0.0662	38.9779	23.3143	-11.9034	0.4899	0.4840	0.4413	-0.5755
2.29	-9.5177	0.1424	1.2278	-0.0028	0.0272	-0.0659	39.0758	23.4314	-11.9270	0.4897	0.4841	0.4413	-0.5754
2.3	-9.5457	0.1353	1.1918	-0.0094	0.0251	-0.0670	39.0659	23.3997	-12.0365	0.4896	0.4842	0.4414	-0.5754
2.31	-9.5536	0.1347	1.2115	-0.0063	0.0081	-0.0636	39.2934	23.6754	-11.7698	0.4895	0.4843	0.4414	-0.5753
2.32	-9.5753	0.1432	1.2036	-0.0165	0.0125	-0.0642	39.3854	23.9156	-11.4142	0.4894	0.4843	0.4415	-0.5753
2.33	-9.5840	0.1380	1.1953	-0.0266	0.0006	-0.0587	39.1297	23.6985	-11.6100	0.4895	0.4843	0.4416	-0.5753
2.34	-9.5735	0.1151	1.2090	-0.0319	-0.0109	-0.0606	38.9255	23.5007	-11.8449	0.4895	0.4843	0.4416	-0.5752
2.35	-9.5532	0.0866	1.2142	-0.0450	-0.0067	-0.0617	38.7324	23.6836	-11.7963	0.4896	0.4842	0.4417	-0.5752
2.36	-9.5570	0.0713	1.2146	-0.0290	-0.0123	-0.0559	38.7864	23.5170	-11.7526	0.4895	0.4841	0.4417	-0.5751
2.37	-9.5575	0.0486	1.2048	-0.0403	-0.0086	-0.0546	38.7594	23.7115	-11.7022	0.4897	0.4841	0.4418	-0.5751
2.38	-9.5433	0.0336	1.1995	-0.0398	-0.0053	-0.0547	38.6313	23.8264	-11.7766	0.4897	0.4840	0.4419	-0.5750
2.39	-9.5276	0.0190	1.2012	-0.0243	-0.0113	-0.0446	38.7978	23.5801	-11.5541	0.4898	0.4840	0.4419	-0.5749
2.4	-9.5249	0.0324	1.1883	-0.0300	-0.0063	-0.0453	38.6427	23.8692	-11.7118	0.4898	0.4841	0.4419	-0.5749
2.41	-9.4873	0.0372	1.1821	-0.0240	-0.0087	-0.0547	38.8886	23.8874	-11.6781	0.4899	0.4840	0.4419	-0.5748
2.42	-9.5512	0.0834	1.2758	-0.0235	0.0041	-0.0610	38.9330	23.7415	-11.6881	0.4899	0.4841	0.4420	-0.5748
2.43	-9.6313	0.0932	1.1792	-0.0284	0.0073	-0.0675	38.7309	23.6380	-11.6813	0.4898	0.4840	0.4420	-0.5747
2.44	-9.5742	0.0852	1.2194	-0.0269	-0.0380	-0.0682	38.9052	23.6309	-11.6769	0.4899	0.4839	0.4421	-0.5748
2.45	-9.4833	0.0401	1.2850	-0.0255	-0.0344	-0.0688	38.8087	23.4905	-11.6993	0.4899	0.4838	0.4421	-0.5749
2.46	-9.5177	-0.0049	1.2554	-0.0218	-0.0206	-0.0641	38.7239	23.4300	-11.8903	0.4900	0.4837	0.4421	-0.5749
2.47	-9.5034	0.0212	1.2102	-0.0083	-0.0373	-0.0475	38.9933	23.5872	-11.7430	0.4900	0.4837	0.4420	-0.5749
2.48	-9.4647	0.0706	1.2880	-0.0100	-0.0429	-0.0474	39.0204	23.3809	-11.8055	0.4901	0.4836	0.4419	-0.5750
2.49	-9.4712	0.1156	1.2921	-0.0066	-0.0230	-0.0470	38.9153	23.6261	-11.8834	0.4902	0.4836	0.4418	-0.5751
2.5	-9.5091	0.1104	1.2622	-0.0195	-0.0201	-0.0480	38.9792	23.5585	-11.8630	0.4902	0.4836	0.4417	-0.5750
2.51	-9.5117	0.0746	1.2551	-0.0232	-0.0225	-0.0534	38.8134	23.4611	-11.7493	0.4903	0.4836	0.4417	-0.5751
2.52	-9.5039	0.0801	1.2687	-0.0172	-0.0274	-0.0581	38.7696	23.5636	-11.7972	0.4903	0.4835	0.4417	-0.5751
2.53	-9.5157	0.0991	1.2650	-0.0195	-0.0176	-0.0538	38.7551	23.6063	-11.7166	0.4904	0.4835	0.4417	-0.5751
2.54	-9.5180	0.0992	1.2478	-0.0206	-0.0251	-0.0508	38.8805	23.6617	-12.0996	0.4904	0.4834	0.4416	-0.5751
2.55	-9.5093	0.1147	1.2581	-0.0266	-0.0207	-0.0585	38.8248	23.3809	-11.9891	0.4905	0.4834	0.4416	-0.5751
2.56	-9.5125	0.1049	1.2616	-0.0239	-0.0258	-0.0595	38.7547	23.5572	-11.9829	0.4905	0.4833	0.4416	-0.5751
2.57	-9.5230	0.0938	1.2461	-0.0281	-0.0203	-0.0628	38.7685	23.5127	-11.7758	0.4905	0.4832	0.4416	-0.5751
2.58	-9.5224	0.0943	1.2561	-0.0274	-0.0320	-0.0598	38.7893	23.7910	-11.7920	0.4907	0.4832	0.4417	-0.5752
2.59	-9.5268	0.0726	1.2642	-0.0280	-0.0288	-0.0564	38.7310	23.9077	-11.7187	0.4907	0.4831	0.4416	-0.5752
2.6	-9.5506	0.0520	1.2646	-0.0276	-0.0282	-0.0563	38.6688	23.4834	-11.5051	0.4908	0.4830	0.4416	-0.5752
2.61	-9.5690	0.0670	1.2722	-0.0281	-0.0347	-0.0536	38.6703	23.3481	-11.8023	0.4908	0.4829	0.4415	-0.5752
2.62	-9.5625	0.0646	1.2778	-0.0278	-0.0401	-0.0486	38.8191	23.6188	-11.8738	0.4910	0.4828	0.4415	-0.5752
2.63	-9.5379	0.0427	1.2921	-0.0266	-0.0445	-0.0444	38.6806	23.4689	-11.6720	0.4911	0.4827	0.4414	-0.5753
2.64	-9.5187	0.0520	1.3054	-0.0218	-0.0441	-0.0453	38.7669	23.7722	-11.7557	0.4913	0.4826	0.4413	-0.5753
2.65	-9.5029	0.0511	1.3055	-0.0257	-0.0446	-0.0448	38.7542	23.4754	-11.8774	0.4914	0.4825	0.4413	-0.5753
2.66	-9.5053	0.0514	1.3137	-0.0225	-0.0405	-0.0525	38.8227	23.4105	-12.0063	0.4915	0.4824	0.4412	-0.5754
2.67	-9.4875	0.0740	1.3239	-0.0123	-0.0439	-0.0526	38.8338	23.6097	-12.0632	0.4916	0.4823	0.4411	-0.5755
2.68	-9.4706	0.0818	1.3543	-0.0104	-0.0451	-0.0560	39.0567	23.4454	-12.0399	0.4916	0.4822	0.4410	-0.5755
2.69	-9.4791	0.0814	1.3518	-0.0185	-0.0322	-0.0574	38.9913	23.5439	-12.0460	0.4918	0.4822	0.4410	-0.5756
2.7	-9.4579	0.0922	1.3488	-0.0132	-0.0343	-0.0592	38.6816	23.4711	-11.8842	0.4918	0.4821	0.4409	-0.5756
2.71	-9.4441	0.0986	1.3806	-0.0142	-0.0395	-0.0596	38.8715	23.8806	-11.8563	0.4918	0.4820	0.4408	-0.5757
2.72	-9.4350	0.0983	1.3822	-0.0205	-0.0335	-0.0588	38.9551	23.5083	-11.8797	0.4919	0.4819	0.4408	-0.5758
2.73	-9.4203	0.0842	1.3875	-0.0254	-0.0336	-0.0569	38.9292	23.4386	-11.9557	0.4920	0.4818	0.4407	-0.5758
2.74	-9.4172	0.0854	1.3964	-0.0261	-0.0311	-0.0560	38.7981	23.5128	-11.7888	0.4921	0.4818	0.4407	-0.5758
2.75	-9.4363	0.0774	1.3904	-0.0237	-0.0145	-0.0579	38.6610	23.6371	-12.0823	0.4921	0.4817	0.4407	-0.5758
2.76	-9.4578	0.0616	1.3676	-0.0286	-0.0132	-0.0571	38.8123	23.6413	-11.9174	0.4922	0.4817	0.4408	-0.5758
2.77	-9.4585	0.0562	1.3679	-0.0278	-0.0130	-0.0576	38.7059	23.9239	-11.8670	0.4922	0.4816	0.4408	-0.5758
2.78	-9.4592	0.0472	1.3642	-0.0276	-0.0050	-0.0570	38.7379	23.8213	-11.8568	0.4922	0.4817	0.4408	-0.5758
2.79	-9.4758	0.0407	1.3514	-0.0272	-0.0023	-0.0597	38.8036	23.8153	-11.9813	0.4922	0.4816	0.4408	-0.5757
2.8	-9.4915	0.0489	1.3300	-0.0281	-0.0049	-0.0547	38.6183	23.6745	-11.9297	0.4922	0.4816	0.4409	-0.5756
2.81	-9.5011	0.0558	1.3305	-0.0280	-0.0047	-0.0573	39.1801	23.8296	-11.8483	0.4923	0.4816	0.4410	-0.5756
2.82	-9.5107	0.0447	1.3217	-0.0219	-0.0069	-0.0551	39.5310	24.0235	-11.8720	0.4922	0.4816	0.4410	-0.5755
2.83	-9.5249	0.0568	1.3124	-0.0193	-0.0093	-0.0529	39.2397	23.8500	-11.9509	0.4923	0.4816	0.4410	-0.5756
2.84	-9.5299	0.0544	1.3125	-0.0233	-0.0149	-0.0527	38.8910	23.7822	-11.9491	0.4923	0.4816	0.4410	-0.5755
2.85	-9.5253	0.0412	1.3028	-0.0228	-0.0150	-0.0507	38.5721	23.7933	-11.8497	0.4924	0.4816	0.4410	-0.5755
2.86	-9.5239	0.0534	1.3097	-0.0221	-0.0203	-0.0545	39.0415	23.6623	-11.8582	0.4924	0.4815	0.4409	-0.5755
2.87	-9.5325	0.0535	1.3113	-0.0159	-0.0199	-0.0449	38.8241	23.4588	-11.9474	0.4925	0.4815	0.4409	-0.5755
2.88	-9.5399	0.0528	1.3030	-0.0170	-0.0164	-0.0410	38.6101	23.4976	-11.9405	0.4926	0.4815	0.4409	-0.5755
2.89	-9.5231	0.0569	1.3141	-0.0153	-0.0258	-0.0457	38.6859	23.5332	-11.9323	0.4926	0.4815	0.4408	-0.5755
2.9	-9.4985	0.0605	1.3221	-0.0128	-0.0322	-0.0483	38.7321	23.8121	-11.9505	0.4927	0.4815	0.4407	-0.5755
2.91	-9.4928	0.0549	1.3318	-0.0211	-0.0306	-0.0458	38.8088	23.5617	-12.3459	0.4928	0.4814	0.4407	-0.5755
2.92	-9.4960	0.0594	1.3355	-0.0031	-0.0238	-0.0440	38.7940	23.6631	-12.2088	0.4929	0.4814	0.4406	-0.5756
2.93	-9.4988	0.0730	1.3399	-0.0093	-0.0272	-0.0401	38.8041	23.5810	-11.8978	0.4929	0.4814	0.4404	-0.5755
2.94	-9.4893	0.0761	1.3576	-0.0150	-0.0322	-0.0518	38.5770	23.5866	-11.9812	0.4930	0.4814	0.4404	-0.5756
2.95	-9.4762	0.0765	1.3645	-0.0070	-0.0239	-0.0563	38.6455	23.7031	-11.8654	0.4930	0.4814	0.4403	-0.5756
2.96	-9.4778	0.1006	1.3658	-0.0059	-0.0237	-0.0556	38.5854	23.6341	-11.9107	0.4930	0.4814	0.4403	-0.5757
2.97	-9.4831	0.1079	1.3743	-0.0015	-0.0212	-0.0555	38.7501	23.7845	-12.0469	0.4930	0.4813	0.4402	-0.5757
2.98	-9.4804	0.1133	1.3631	-0.0056	-0.0207	-0.0581	38.6419	23.7184	-12.1853	0.4930	0.4814	0.4401	-0.5758
2.99	-9.4700	0.1295	1.3711	-0.0154	-0.0255	-0.0520	38.4885	23.6372	-11.9902	0.4931	0.4813	0.4401	-0.5758
3	-9.4673	0.1290	1.3819	-0.0250	-0.0162	-0.0541	38.9387	23.7014	-11.9165	0.4931	0.4813	0.4400	-0.5757
3.01	-9.4664	0.1174	1.3690	-0.0271	-0.0208	-0.0566	38.7387	23.5217	-12.0469	0.4932	0.4813	0.4401	-0.5758
3.02	-9.4615	0.0969	1.3793	-0.0238	-0.0276	-0.0560	38.7379	23.6768	-12.2160	0.4932	0.4812	0.4401	-0.5758
3.03	-9.4629	0.0856	1.3792	-0.0214	-0.0162	-0.0591	38.8332	23.7948	-12.1149	0.4933	0.4812	0.4401	-0.5758
3.04	-9.4598	0.0868	1.3710	-0.0193	-0.0176	-0.0594	38.7648	23.6650	-11.7990	0.4933	0.4811	0.4400	-0.5758
3.05	-9.4548	0.0869	1.3842	-0.0267	-0.0237	-0.0577	38.9561	23.4021	-11.9970	0.4933	0.4810	0.4401	-0.5758
3.06	-9.4639	0.0841	1.3848	-0.0208	-0.0093	-0.0554	38.9371	23.1242	-12.0377	0.4934	0.4810	0.4401	-0.5758
3.07	-9.4709	0.0879	1.3782	-0.0211	-0.0072	-0.0619	38.7891	23.4454	-11.9977	0.4933	0.4810	0.4401	-0.5758
3.08	-9.4543	0.0907	1.3766	-0.0292	-0.0112	-0.0634	38.6981	23.3542	-12.1740	0.4934	0.4810	0.4402	-0.5758
3.09	-9.4679	0.1163	1.3864	-0.0239	0.0019	-0.0601	38.5668	23.5074	-12.0360	0.4934	0.4810	0.4402	-0.5757
3.1	-9.5216	0.1390	1.3337	-0.0250	0.0170	-0.0679	38.4910	23.7935	-12.1280	0.4933	0.4810	0.4404	-0.5757
3.11	-9.5038	0.1205	1.3261	-0.0290	-0.0101	-0.0676	38.7226	23.7293	-12.0271	0.4933	0.4809	0.4404	-0.5756
3.12	-9.4828	0.0952	1.3900	-0.0263	-0.0126	-0.0626	38.7032	23.7740	-11.9575	0.4933	0.4809	0.4404	-0.5757
3.13	-9.5517	0.0946	1.3696	-0.0332	0.0041	-0.0647	38.7156	23.5585	-12.2075	0.4933	0.4809	0.4405	-0.5756
3.14	-9.6014	0.0725	1.3408	-0.0457	-0.0035	-0.0609	38.6919	23.6575	-12.0077	0.4934	0.4808	0.4406	-0.5755
3.15	-9.5556	0.0382	1.3608	-0.0563	-0.0273	-0.0570	38.7373	23.7616	-12.0535	0.4935	0.4807	0.4407	-0.5755
3.16	-9.4947	-0.0157	1.3702	-0.0422	-0.0212	-0.0466	38.6498	23.6354	-12.0187	0.4936	0.4806	0.4407	-0.5754
3.17	-9.4684	-0.0492	1.3570	-0.0357	-0.0200	-0.0400	38.6530	23.4726	-12.0549	0.4938	0.4806	0.4408	-0.5754
3.18	-9.4477	-0.0192	1.3429	-0.0286	-0.0230	-0.0315	38.8225	23.6626	-11.9326	0.4938	0.4805	0.4407	-0.5752
3.19	-9.4198	0.0406	1.3652	-0.0241	-0.0183	-0.0313	38.5741	23.6718	-11.9486	0.4940	0.4806	0.4407	-0.5752
3.2	-9.4224	0.0885	1.3620	-0.0253	-0.0112	-0.0331	38.6472	23.5180	-12.1008	0.4941	0.4806	0.4406	-0.5751
3.21	-9.4430	0.0951	1.3408	-0.0072	-0.0093	-0.0360	38.8633	23.6861	-12.1514	0.4942	0.4806	0.4405	-0.5751
3.22	-9.4793	0.0956	1.3434	-0.0018	0.0035	-0.0439	38.9924	23.6504	-12.0072	0.4941	0.4807	0.4405	-0.5750
3.23	-9.5130	0.1260	1.3179	-0.0002	0.0089	-0.0481	38.9713	23.4550	-12.0592	0.4941	0.4808	0.4405	-0.5750
3.24	-9.5063	0.1478	1.3112	0.0014	-0.0079	-0.0556	38.9662	23.5084	-12.1604	0.4941	0.4809	0.4404	-0.5750
3.25	-9.5006	0.1581	1.3253	-0.0016	-0.0063	-0.0650	39.0042	23.4784	-12.0186	0.4940	0.4809	0.4404	-0.5750
3.26	-9.5074	0.1767	1.3068	-0.0047	-0.0065	-0.0610	38.7221	23.5991	-12.0356	0.4940	0.4810	0.4404	-0.5751
3.27	-9.5162	0.1837	1.3163	-0.0074	-0.0079	-0.0625	38.7636	23.5791	-12.1834	0.4939	0.4810	0.4404	-0.5751
3.28	-9.5158	0.1684	1.3223	-0.0218	-0.0025	-0.0723	38.7509	23.8014	-12.0109	0.4939	0.4810	0.4405	-0.5752
3.29	-9.5020	0.1541	1.3155	-0.0287	-0.0143	-0.0720	38.6834	23.5466	-12.1636	0.4938	0.4809	0.4405	-0.5751
3.3	-9.4793	0.1347	1.3313	-0.0315	-0.0195	-0.0627	38.7193	23.4937	-11.9289	0.4939	0.4808	0.4406	-0.5751
3.31	-9.4917	0.1088	1.3450	-0.0334	-0.0035	-0.0595	39.0953	23.8368	-11.6776	0.4939	0.4808	0.4406	-0.5751
3.32	-9.5149	0.0908	1.3213	-0.0456	-0.0062	-0.0573	39.1999	23.8621	-11.8822	0.4940	0.4807	0.4407	-0.5750
3.33	-9.5217	0.0786	1.3306	-0.0478	-0.0100	-0.0588	38.9484	23.6833	-11.8277	0.4941	0.4807	0.4409	-0.5750
3.34	-9.5182	0.0498	1.3278	-0.0417	-0.0064	-0.0621	38.7367	23.9519	-12.0536	0.4941	0.4806	0.4409	-0.5749
3.35	-9.5190	0.0269	1.3233	-0.0334	-0.0057	-0.0567	38.4150	23.7161	-11.8393	0.4942	0.4806	0.4410	-0.5749
3.36	-9.5208	0.0241	1.3067	-0.0335	-0.0066	-0.0594	38.7240	23.4966	-12.0770	0.4942	0.4805	0.4410	-0.5747
3.37	-9.5238	0.0245	1.3148	-0.0270	-0.0125	-0.0600	38.8964	23.7061	-12.1175	0.4942	0.4805	0.4411	-0.5748
3.38	-9.4742	0.0165	1.3016	-0.0287	-0.0205	-0.0625	38.6817	23.8594	-12.0752	0.4943	0.4804	0.4411	-0.5748
3.39	-9.5114	0.0413	1.3762	-0.0240	-0.0108	-0.0607	38.7500	23.7216	-12.1969	0.4943	0.4804	0.4411	-0.5747
3.4	-9.5714	0.0649	1.3145	-0.0221	0.0038	-0.0686	38.9028	23.5498	-11.9051	0.4942	0.4804	0.4412	-0.5747
3.41	-9.5243	0.0642	1.3401	-0.0285	-0.0335	-0.0773	39.0844	23.3758	-12.2582	0.4943	0.4802	0.4412	-0.5748
3.42	-9.4639	0.0200	1.3935	-0.0271	-0.0338	-0.0719	38.8050	23.4398	-12.1435	0.4943	0.4801	0.4413	-0.5749
3.43	-9.4888	0.0009	1.3723	-0.0282	-0.0211	-0.0568	39.0776	23.4497	-12.2054	0.4943	0.4800	0.4412	-0.5748
3.44	-9.4889	0.0364	1.3559	-0.0276	-0.0271	-0.0480	39.0007	23.4956	-12.2633	0.4945	0.4800	0.4413	-0.5749
3.45	-9.4544	0.0701	1.4219	-0.0283	-0.0358	-0.0436	38.8261	23.8328	-12.1713	0.4946	0.4799	0.4412	-0.5748
3.46	-9.4597	0.0898	1.4224	-0.0277	-0.0105	-0.0408	38.8954	23.5336	-12.1388	0.4947	0.4799	0.4412	-0.5748
3.47	-9.4893	0.0434	1.3890	-0.0303	-0.0124	-0.0479	38.7625	23.5466	-12.1254	0.4947	0.4799	0.4412	-0.5747
3.48	-9.4820	0.0004	1.3864	-0.0278	-0.0193	-0.0517	38.8992	23.6719	-12.0525	0.4948	0.4798	0.4412	-0.5747
3.49	-9.4740	0.0111	1.3992	-0.0275	-0.0210	-0.0462	38.8507	23.5840	-12.1919	0.4949	0.4798	0.4412	-0.5747
3.5	-9.4772	0.0071	1.3798	-0.0278	-0.0082	-0.0487	38.8922	23.8166	-12.0360	0.4949	0.4798	0.4411	-0.5746
3.51	-9.4708	0.0246	1.3695	-0.0280	-0.0094	-0.0542	38.6422	23.8999	-12.0652	0.4950	0.4798	0.4412	-0.5746
3.52	-9.4611	0.0539	1.3833	-0.0147	-0.0100	-0.0483	38.7464	23.7796	-11.8911	0.4950	0.4798	0.4412	-0.5745
3.53	-9.4607	0.0377	1.3795	-0.0064	-0.0085	-0.0551	38.8028	23.8272	-12.1268	0.4950	0.4799	0.4412	-0.5746
3.54	-9.4720	0.0453	1.3555	-0.0247	-0.0028	-0.0587	38.7590	23.8023	-12.1712	0.4950	0.4798	0.4412	-0.5745
3.55	-9.4866	0.0433	1.3620	-0.0120	-0.0005	-0.0532	38.8086	23.6940	-11.8650	0.4950	0.4799	0.4412	-0.5745
3.56	-9.4847	0.0564	1.3722	-0.0132	-0.0067	-0.0568	38.9023	23.7775	-11.9100	0.4950	0.4799	0.4412	-0.5745
3.57	-9.4967	0.0704	1.3676	-0.0163	-0.0096	-0.0499	38.7890	23.8476	-12.0616	0.4950	0.4799	0.4412	-0.5744
3.58	-9.5010	0.0556	1.3651	-0.0028	-0.0122	-0.0384	38.6648	23.5838	-12.0503	0.4951	0.4800	0.4412	-0.5745
3.59	-9.4965	0.0472	1.3627	-0.0158	-0.0049	-0.0493	38.7234	23.4051	-12.0400	0.4950	0.4800	0.4411	-0.5744
3.6	-9.4849	0.0490	1.3637	-0.0121	-0.0118	-0.0431	38.8458	23.5477	-12.0555	0.4951	0.4801	0.4411	-0.5744
3.61	-9.4936	0.0442	1.3742	-0.0033	-0.0120	-0.0480	38.9671	23.5420	-12.0253	0.4951	0.4801	0.4410	-0.5743
3.62	-9.5012	0.0418	1.3419	-0.0042	-0.0062	-0.0463	39.0546	23.5593	-12.1978	0.4951	0.4802	0.4410	-0.5744
3.63	-9.4810	0.0634	1.3563	-0.0036	-0.0073	-0.0458	38.8784	23.5178	-12.2065	0.4951	0.4802	0.4409	-0.5743
3.64	-9.4849	0.0809	1.3714	-0.0017	-0.0040	-0.0527	38.8561	23.6478	-12.0379	0.4951	0.4803	0.4409	-0.5743
3.65	-9.5082	0.0790	1.3389	-0.0027	0.0002	-0.0568	38.8833	23.5209	-12.0401	0.4950	0.4804	0.4409	-0.5744
3.66	-9.5229	0.0987	1.3496	-0.0017	-0.0089	-0.0545	38.9675	23.5911	-12.2095	0.4950	0.4804	0.4408	-0.5744
3.67	-9.5311	0.1123	1.3388	-0.0038	-0.0112	-0.0580	38.7545	23.6413	-12.2076	0.4950	0.4804	0.4408	-0.5744
3.68	-9.5286	0.1109	1.3321	-0.0092	-0.0117	-0.0554	38.8733	23.6458	-11.9427	0.4949	0.4804	0.4407	-0.5744
3.69	-9.5090	0.1043	1.3479	-0.0088	-0.0175	-0.0561	38.8649	23.6002	-11.9438	0.4950	0.4805	0.4407	-0.5744
3.7	-9.4928	0.1032	1.3492	-0.0177	-0.0132	-0.0567	38.7107	23.5775	-12.1713	0.4950	0.4804	0.4407	-0.5744
3.71	-9.4900	0.1073	1.3592	-0.0182	-0.0124	-0.0582	38.6686	23.9279	-12.2843	0.4950	0.4804	0.4407	-0.5744
3.72	-9.4738	0.1052	1.3608	-0.0231	-0.0187	-0.0514	38.8072	23.8015	-12.0325	0.4950	0.4804	0.4407	-0.5744
3.73	-9.4546	0.0780	1.3805	-0.0256	-0.0179	-0.0510	38.6170	23.6670	-12.0378	0.4951	0.4804	0.4407	-0.5744
3.74	-9.4409	0.0679	1.3814	-0.0245	-0.0105	-0.0578	38.6388	23.6509	-12.1150	0.4951	0.4803	0.4407	-0.5744
3.75	-9.4467	0.0588	1.3871	-0.0149	-0.0090	-0.0494	38.7788	23.8510	-12.1548	0.4951	0.4803	0.4407	-0.5743
3.76	-9.4630	0.0522	1.3711	-0.0158	0.0012	-0.0555	38.9990	23.6673	-12.1483	0.4952	0.4804	0.4407	-0.5743
3.77	-9.4475	0.0501	1.3644	-0.0210	-0.0027	-0.0550	38.7611	23.6538	-12.1043	0.4951	0.4804	0.4407	-0.5743
3.78	-9.4321	0.0527	1.3893	-0.0133	-0.0028	-0.0563	38.8751	23.5261	-12.0173	0.4952	0.4805	0.4408	-0.5743
3.79	-9.4624	0.0576	1.3841	-0.0123	0.0120	-0.0566	38.7536	23.2339	-12.0637	0.4951	0.4805	0.4408	-0.5742
3.8	-9.4958	0.0688	1.3481	-0.0026	0.0176	-0.0559	38.9403	23.4409	-12.0128	0.4950	0.4806	0.4408	-0.5742
3.81	-9.5017	0.0818	1.3441	-0.0077	0.0078	-0.0572	39.4739	23.6437	-11.9169	0.4949	0.4807	0.4409	-0.5741
3.82	-9.4826	0.0813	1.3588	-0.0018	0.0016	-0.0556	39.5299	23.6233	-12.0463	0.4949	0.4807	0.4408	-0.5741
3.83	-9.4894	0.0837	1.3592	-0.0075	0.0067	-0.0588	39.1428	23.7639	-12.0581	0.4949	0.4809	0.4409	-0.5741
3.84	-9.4918	0.0779	1.3363	-0.0204	0.0054	-0.0583	38.7541	23.6462	-12.0562	0.4948	0.4809	0.4409	-0.5740
3.85	-9.4781	0.0576	1.3332	-0.0127	0.0075	-0.0577	38.6941	23.4998	-12.0535	0.4948	0.4810	0.4410	-0.5740
3.86	-9.4903	0.0545	1.3347	-0.0111	0.0161	-0.0555	39.0408	23.8049	-12.0366	0.4947	0.4810	0.4410	-0.5739
3.87	-9.5101	0.0747	1.3094	-0.0105	0.0131	-0.0535	38.6882	23.6733	-12.0469	0.4947	0.4811	0.4410	-0.5739
3.88	-9.5025	0.0614	1.3083	-0.0278	0.0013	-0.0545	38.8085	23.7210	-11.8451	0.4947	0.4811	0.4411	-0.5738
3.89	-9.4956	0.0454	1.3263	-0.0174	0.0040	-0.0478	38.9427	23.6861	-11.9385	0.4947	0.4812	0.4411	-0.5737
3.9	-9.5029	0.0477	1.3153	-0.0048	0.0031	-0.0454	38.6573	23.5580	-11.9527	0.4947	0.4813	0.4411	-0.5737
3.91	-9.4969	0.0581	1.3057	-0.0114	0.0040	-0.0539	38.7473	23.5439	-11.6709	0.4946	0.4813	0.4411	-0.5737
3.92	-9.4870	0.0527	1.3135	-0.0018	-0.0008	-0.0506	38.8414	23.6903	-11.9106	0.4946	0.4814	0.4411	-0.5737
3.93	-9.4925	0.0603	1.3127	-0.0026	0.0171	-0.0541	38.6681	23.7855	-12.0582	0.4945	0.4815	0.4411	-0.5736
3.94	-9.5069	0.0579	1.2954	-0.0019	0.0182	-0.0505	38.8695	23.4972	-11.9210	0.4945	0.4817	0.4411	-0.5736
3.95	-9.5150	0.0520	1.2982	-0.0024	0.0095	-0.0470	38.8146	23.6488	-11.9562	0.4944	0.4818	0.4411	-0.5735
3.96	-9.5292	0.0420	1.3039	-0.0026	0.0095	-0.0521	38.6287	23.6189	-11.9424	0.4943	0.4819	0.4411	-0.5735
3.97	-9.5106	0.0342	1.2867	-0.0027	0.0026	-0.0491	38.9534	23.3423	-11.9427	0.4943	0.4820	0.4411	-0.5734
3.98	-9.4813	0.0460	1.3225	-0.0017	-0.0044	-0.0479	38.6873	23.4518	-11.9374	0.4943	0.4820	0.4410	-0.5734
3.99	-9.5001	0.0776	1.3260	-0.0024	0.0139	-0.0426	39.0113	23.4473	-11.9634	0.4943	0.4822	0.4410	-0.5734
4	-9.5061	0.0996	1.2844	-0.0020	0.0103	-0.0431	39.0827	23.3416	-12.2417	0.4942	0.4823	0.4410	-0.5733
4.01	-9.4782	0.1226	1.3276	-0.0026	-0.0078	-0.0446	38.9650	23.6448	-12.0935	0.4942	0.4824	0.4410	-0.5733
4.02	-9.4968	0.1395	1.3303	-0.0077	0.0159	-0.0416	38.9462	23.7799	-12.0284	0.4942	0.4825	0.4409	-0.5732
4.03	-9.5544	0.1563	1.2843	-0.0066	0.0196	-0.0447	38.8536	23.6853	-12.0414	0.4942	0.4827	0.4410	-0.5732
4.04	-9.5682	0.1582	1.2772	-0.0144	0.0082	-0.0467	38.9902	23.5402	-12.0488	0.4941	0.4827	0.4409	-0.5730
4.05	-9.5643	0.1431	1.2948	-0.0251	-0.0117	-0.0503	38.8591	23.6092	-11.8827	0.4942	0.4827	0.4410	-0.5730
4.06	-9.5524	0.1366	1.2849	-0.0271	-0.0087	-0.0580	38.8855	23.8402	-11.8861	0.4942	0.4827	0.4410	-0.5730
4.07	-9.5471	0.1294	1.2839	-0.0285	-0.0127	-0.0573	38.5954	23.4866	-12.0580	0.4942	0.4826	0.4410	-0.5729
4.08	-9.5265	0.1246	1.2840	-0.0267	-0.0171	-0.0585	38.6296	23.2690	-11.9278	0.4943	0.4826	0.4411	-0.5730
4.09	-9.5174	0.1296	1.3022	-0.0287	-0.0197	-0.0631	38.6066	23.4748	-11.7823	0.4943	0.4825	0.4411	-0.5729
4.1	-9.5397	0.1264	1.3038	-0.0293	-0.0088	-0.0649	38.8816	23.4697	-11.7867	0.4943	0.4825	0.4412	-0.5730
4.11	-9.5367	0.1040	1.2796	-0.0271	-0.0090	-0.0705	38.8886	23.5703	-12.0681	0.4943	0.4824	0.4412	-0.5729
4.12	-9.5030	0.0777	1.2899	-0.0279	-0.0229	-0.0722	38.5601	23.6766	-11.9087	0.4943	0.4824	0.4413	-0.5730
4.13	-9.5016	0.0727	1.3223	-0.0276	-0.0185	-0.0608	38.9964	23.4699	-11.8095	0.4944	0.4823	0.4413	-0.5729
4.14	-9.5535	0.0853	1.3064	-0.0279	-0.0102	-0.0651	38.8813	23.5571	-11.9556	0.4944	0.4822	0.4413	-0.5729
4.15	-9.5424	0.0841	1.2919	-0.0280	-0.0281	-0.0654	38.9808	23.5836	-11.9218	0.4944	0.4822	0.4414	-0.5730
4.16	-9.4622	0.0444	1.3430	-0.0282	-0.0476	-0.0637	38.9813	23.5515	-12.0030	0.4945	0.4820	0.4413	-0.5730
4.17	-9.4940	0.0348	1.3963	-0.0322	-0.0330	-0.0640	39.1760	23.3884	-12.2070	0.4946	0.4819	0.4413	-0.5731
4.18	-9.5669	0.0451	1.3378	-0.0299	-0.0081	-0.0554	38.9985	23.4706	-11.9102	0.4946	0.4818	0.4413	-0.5730
4.19	-9.5353	0.0319	1.3490	-0.0342	-0.0357	-0.0560	38.6089	23.5002	-11.8547	0.4947	0.4818	0.4414	-0.5731
4.2	-9.4557	-0.0058	1.3811	-0.0353	-0.0412	-0.0574	38.8307	23.6056	-11.8354	0.4948	0.4816	0.4413	-0.5731
4.21	-9.4200	-0.0388	1.3675	-0.0344	-0.0310	-0.0426	38.6282	23.4865	-11.9236	0.4950	0.4815	0.4413	-0.5731
4.22	-9.4101	-0.0124	1.3529	-0.0295	-0.0290	-0.0296	38.7022	23.4705	-12.0491	0.4951	0.4815	0.4412	-0.5730
4.23	-9.3953	0.0424	1.3674	-0.0280	-0.0217	-0.0309	38.8265	23.4911	-12.0321	0.4953	0.4815	0.4412	-0.5729
4.24	-9.4155	0.0756	1.3710	-0.0153	-0.0030	-0.0305	38.7847	23.4644	-11.8258	0.4954	0.4816	0.4411	-0.5728
4.25	-9.4435	0.0942	1.3353	-0.0077	0.0034	-0.0422	38.7373	23.5523	-11.9637	0.4953	0.4816	0.4411	-0.5727
4.26	-9.4517	0.0792	1.3198	-0.0142	-0.0066	-0.0462	38.6639	23.7884	-11.9136	0.4954	0.4817	0.4411	-0.5728
4.27	-9.4405	0.0848	1.3321	-0.0053	-0.0069	-0.0428	38.4983	23.7036	-11.7374	0.4954	0.4818	0.4410	-0.5727
4.28	-9.4438	0.1192	1.3288	-0.0024	0.0002	-0.0565	38.8044	23.5781	-11.9884	0.4954	0.4819	0.4411	-0.5727
4.29	-9.4515	0.1442	1.3046	0.0041	0.0203	-0.0585	38.7902	23.5485	-11.8353	0.4952	0.4819	0.4410	-0.5726
4.3	-9.4691	0.1766	1.3132	-0.0003	0.0162	-0.0704	38.9271	23.8367	-11.7362	0.4951	0.4821	0.4411	-0.5727
4.31	-9.5033	0.1737	1.2991	-0.0008	0.0219	-0.0689	39.2096	23.7897	-11.8245	0.4950	0.4822	0.4412	-0.5726
4.32	-9.5242	0.1521	1.2796	-0.0069	0.0176	-0.0675	39.3268	23.6701	-11.8725	0.4948	0.4822	0.4412	-0.5726
4.33	-9.5262	0.1354	1.2797	-0.0198	0.0062	-0.0682	39.2904	23.5686	-11.8199	0.4948	0.4823	0.4413	-0.5726
4.34	-9.5416	0.1305	1.2853	-0.0183	0.0106	-0.0655	39.0590	23.2202	-11.7605	0.4947	0.4823	0.4414	-0.5725
4.35	-9.5654	0.1198	1.2573	-0.0290	0.0085	-0.0604	38.9861	23.4728	-12.0651	0.4947	0.4823	0.4415	-0.5725
4.36	-9.5731	0.1000	1.2474	-0.0292	0.0020	-0.0544	38.9121	23.5689	-11.9362	0.4947	0.4823	0.4415	-0.5724
4.37	-9.5703	0.0799	1.2601	-0.0261	-0.0116	-0.0498	38.8606	23.5709	-11.8422	0.4948	0.4823	0.4416	-0.5724
4.38	-9.5650	0.0653	1.2572	-0.0284	-0.0100	-0.0496	38.7063	23.7199	-12.0120	0.4948	0.4823	0.4416	-0.5723
4.39	-9.5493	0.0572	1.2325	-0.0280	-0.0131	-0.0492	38.7511	23.7610	-11.8339	0.4949	0.4823	0.4416	-0.5723
4.4	-9.5297	0.0488	1.2578	-0.0279	-0.0163	-0.0556	39.0922	23.6299	-11.8768	0.4950	0.4823	0.4416	-0.5723
4.41	-9.5200	0.0344	1.2348	-0.0285	-0.0081	-0.0549	38.6751	23.5477	-11.9493	0.4950	0.4822	0.4416	-0.5722
4.42	-9.4984	0.0549	1.2470	-0.0253	-0.0238	-0.0560	38.8992	23.5655	-11.9672	0.4950	0.4822	0.4417	-0.5722
4.43	-9.5748	0.0912	1.3027	-0.0239	-0.0094	-0.0581	38.9374	23.6228	-11.8319	0.4950	0.4821	0.4416	-0.5721
4.44	-9.6041	0.0953	1.2186	-0.0284	-0.0066	-0.0707	38.7057	23.9095	-11.8995	0.4951	0.4821	0.4418	-0.5722
4.45	-9.5423	0.0798	1.2695	-0.0273	-0.0376	-0.0743	38.7634	23.8540	-12.0910	0.4951	0.4820	0.4418	-0.5722
4.46	-9.4912	0.0251	1.2996	-0.0280	-0.0321	-0.0718	38.7426	23.5981	-11.7299	0.4951	0.4818	0.4418	-0.5723
4.47	-9.5280	0.0211	1.2979	-0.0271	-0.0251	-0.0621	38.6553	23.7885	-11.7907	0.4952	0.4817	0.4418	-0.5723
4.48	-9.5246	0.0522	1.2858	-0.0284	-0.0378	-0.0541	38.7764	23.7983	-11.8600	0.4953	0.4817	0.4417	-0.5723
4.49	-9.5024	0.0901	1.3487	-0.0270	-0.0466	-0.0445	38.6908	23.7243	-11.8808	0.4954	0.4816	0.4417	-0.5724
4.5	-9.4899	0.0950	1.3419	-0.0303	-0.0363	-0.0572	38.6137	23.7404	-11.7511	0.4955	0.4814	0.4416	-0.5724
4.51	-9.4848	0.0718	1.3458	-0.0301	-0.0314	-0.0565	38.8101	23.6576	-11.7879	0.4956	0.4814	0.4417	-0.5724
4.52	-9.4707	0.0504	1.3386	-0.0284	-0.0407	-0.0586	38.7977	23.5982	-11.8575	0.4957	0.4812	0.4416	-0.5724
4.53	-9.4664	0.0287	1.3454	-0.0296	-0.0311	-0.0546	38.9847	23.3384	-11.9039	0.4958	0.4812	0.4416	-0.5725
4.54	-9.4673	0.0315	1.3364	-0.0285	-0.0309	-0.0548	39.0240	23.5946	-12.0466	0.4958	0.4810	0.4415	-0.5724
4.55	-9.4902	0.0452	1.3346	-0.0208	-0.0190	-0.0563	38.8925	23.4298	-12.0515	0.4959	0.4810	0.4416	-0.5725
4.56	-9.4892	0.0439	1.3332	-0.0213	-0.0289	-0.0576	38.7416	23.5408	-12.1483	0.4960	0.4810	0.4415	-0.5725
4.57	-9.4775	0.0314	1.3497	-0.0184	-0.0295	-0.0623	38.8271	23.5708	-11.7985	0.4960	0.4809	0.4415	-0.5725
4.58	-9.4724	0.0130	1.3426	-0.0154	-0.0277	-0.0689	38.8234	23.6538	-12.1037	0.4961	0.4809	0.4415	-0.5727
4.59	-9.4564	0.0116	1.3447	-0.0120	-0.0348	-0.0598	38.8832	23.5237	-12.1094	0.4960	0.4807	0.4414	-0.5727
4.6	-9.4575	0.0079	1.3723	-0.0112	-0.0276	-0.0572	38.8923	23.6295	-12.2134	0.4961	0.4807	0.4414	-0.5728
4.61	-9.4610	0.0094	1.3560	-0.0087	-0.0281	-0.0539	38.7105	23.7424	-12.1552	0.4961	0.4806	0.4413	-0.5727
4.62	-9.4646	0.0237	1.3696	-0.0013	-0.0277	-0.0446	38.8769	23.7427	-11.8728	0.4962	0.4807	0.4412	-0.5728
4.63	-9.4714	0.0369	1.3716	-0.0053	-0.0264	-0.0473	38.7783	23.7326	-12.0443	0.4962	0.4807	0.4411	-0.5728
4.64	-9.4918	0.0397	1.3552	-0.0086	-0.0201	-0.0487	38.3726	23.7458	-11.9776	0.4962	0.4807	0.4410	-0.5728
4.65	-9.5039	0.0472	1.3581	-0.0033	-0.0200	-0.0445	38.4003	23.7185	-11.8267	0.4963	0.4808	0.4410	-0.5729
4.66	-9.4972	0.0522	1.3544	-0.0008	-0.0183	-0.0445	38.6265	23.7815	-12.0350	0.4963	0.4808	0.4408	-0.5729
4.67	-9.4835	0.0615	1.3470	-0.0038	-0.0263	-0.0448	38.7289	23.8113	-12.2362	0.4963	0.4808	0.4408	-0.5729
4.68	-9.4777	0.0706	1.3510	-0.0029	-0.0276	-0.0450	38.7440	23.5861	-12.2193	0.4963	0.4808	0.4406	-0.5729
4.69	-9.4760	0.0729	1.3509	-0.0020	-0.0216	-0.0482	38.7572	23.9314	-12.1254	0.4964	0.4809	0.4406	-0.5730
4.7	-9.4707	0.0959	1.3482	-0.0020	-0.0217	-0.0466	38.8747	23.8224	-12.1352	0.4964	0.4809	0.4405	-0.5730
4.71	-9.4717	0.1046	1.3397	-0.0012	-0.0182	-0.0539	38.7557	23.6552	-12.1388	0.4964	0.4809	0.4404	-0.5731
4.72	-9.4904	0.0950	1.3549	-0.0019	-0.0184	-0.0545	38.7147	23.5366	-12.1124	0.4964	0.4809	0.4403	-0.5731
4.73	-9.5097	0.0980	1.3425	-0.0022	-0.0095	-0.0564	38.9267	23.4878	-12.1656	0.4964	0.4809	0.4403	-0.5731
4.74	-9.5153	0.0967	1.3405	-0.0012	-0.0241	-0.0584	39.0192	23.5917	-12.4398	0.4964	0.4810	0.4402	-0.5732
4.75	-9.5011	0.1141	1.3655	-0.0104	-0.0252	-0.0551	38.7099	23.5332	-12.3182	0.4964	0.4809	0.4401	-0.5732
4.76	-9.5023	0.1289	1.3528	-0.0103	-0.0205	-0.0557	38.7633	23.7800	-12.0993	0.4964	0.4809	0.4401	-0.5733
4.77	-9.5061	0.1301	1.3516	-0.0227	-0.0265	-0.0573	38.7254	23.5648	-11.9988	0.4965	0.4808	0.4401	-0.5732
4.78	-9.5007	0.1318	1.3501	-0.0292	-0.0216	-0.0593	38.8028	23.5741	-12.1273	0.4966	0.4808	0.4401	-0.5733
4.79	-9.4958	0.1260	1.3634	-0.0270	-0.0135	-0.0574	38.9519	23.4698	-12.1251	0.4965	0.4807	0.4401	-0.5732
4.8	-9.5046	0.1130	1.3580	-0.0283	-0.0178	-0.0596	38.7638	23.5837	-12.0168	0.4966	0.4807	0.4402	-0.5732
4.81	-9.5011	0.1012	1.3555	-0.0266	-0.0199	-0.0679	38.7760	23.7637	-12.0476	0.4966	0.4806	0.4402	-0.5732
4.82	-9.4978	0.1100	1.3588	-0.0282	-0.0193	-0.0625	38.9447	24.2388	-12.0547	0.4966	0.4805	0.4402	-0.5732
4.83	-9.5007	0.0962	1.3658	-0.0287	-0.0196	-0.0687	38.8422	23.9774	-12.0210	0.4967	0.4805	0.4403	-0.5733
4.84	-9.4989	0.0824	1.3615	-0.0275	-0.0210	-0.0656	38.7662	23.7618	-11.9570	0.4967	0.4804	0.4403	-0.5733
4.85	-9.4976	0.0797	1.3681	-0.0272	-0.0269	-0.0699	38.6072	23.7799	-12.0025	0.4968	0.4803	0.4403	-0.5733
4.86	-9.5082	0.0551	1.3608	-0.0286	-0.0201	-0.0664	38.6531	23.7409	-11.9064	0.4967	0.4802	0.4403	-0.5733
4.87	-9.5135	0.0480	1.3589	-0.0291	-0.0178	-0.0643	38.6518	23.8477	-12.1359	0.4968	0.4802	0.4404	-0.5733
4.88	-9.5156	0.0510	1.3643	-0.0273	-0.0268	-0.0646	38.7932	23.8496	-12.2536	0.4968	0.4801	0.4404	-0.5734
4.89	-9.5078	0.0463	1.3696	-0.0275	-0.0323	-0.0582	38.6003	23.7109	-12.1832	0.4969	0.4799	0.4404	-0.5734
4.9	-9.5025	0.0397	1.3726	-0.0274	-0.0289	-0.0598	38.8782	23.4178	-11.9462	0.4970	0.4799	0.4404	-0.5734
4.91	-9.5031	0.0560	1.3778	-0.0288	-0.0346	-0.0568	38.8751	23.6942	-12.2077	0.4971	0.4798	0.4404	-0.5734
4.92	-9.5069	0.0724	1.3827	-0.0256	-0.0358	-0.0555	38.8416	23.7340	-12.2716	0.4972	0.4797	0.4404	-0.5735
4.93	-9.5028	0.0890	1.3849	-0.0282	-0.0381	-0.0562	39.0373	23.4524	-12.3008	0.4972	0.4795	0.4403	-0.5734
4.94	-9.5070	0.0938	1.3958	-0.0273	-0.0373	-0.0527	38.8611	23.6001	-12.3874	0.4974	0.4795	0.4403	-0.5735
4.95	-9.5035	0.0807	1.3966	-0.0277	-0.0305	-0.0560	38.6443	23.5456	-12.2203	0.4974	0.4794	0.4402	-0.5735
4.96	-9.5001	0.1063	1.4174	-0.0329	-0.0411	-0.0574	38.6521	23.6358	-12.5795	0.4976	0.4793	0.4402	-0.5736
4.97	-9.4891	0.1266	1.4276	-0.0425	-0.0449	-0.0511	38.6231	23.6952	-11.8010	0.4977	0.4791	0.4402	-0.5735
4.98	-9.4762	0.1033	1.4297	-0.0502	-0.0445	-0.0459	38.6875	23.3476	-11.9727	0.4979	0.4790	0.4402	-0.5735
4.99	-9.4505	0.0707	1.4520	-0.0540	-0.0425	-0.0500	38.7096	23.5643	-12.3980	0.4981	0.4788	0.4402	-0.5735
5	-9.4520	0.1044	1.4556	-0.0544	-0.0364	-0.0482	38.5282	23.7817	-12.1234	0.4982	0.4786	0.4402	-0.5734
5.01	-9.4520	0.0900	1.4214	-0.0528	-0.0329	-0.0460	38.5663	23.6325	-12.1264	0.4985	0.4785	0.4403	-0.5734
5.02	-9.4188	0.0370	1.4648	-0.0593	-0.0424	-0.0480	38.7048	23.6556	-12.3209	0.4986	0.4783	0.4403	-0.5733
5.03	-9.4333	0.0460	1.4799	-0.0554	-0.0256	-0.0470	38.7473	23.7114	-12.2458	0.4988	0.4783	0.4404	-0.5733
5.04	-9.4612	0.0442	1.4245	-0.0529	-0.0215	-0.0474	38.7313	23.8512	-12.2198	0.4989	0.4781	0.4403	-0.5731
5.05	-9.4497	0.0039	1.4563	-0.0544	-0.0336	-0.0485	38.6092	23.8282	-12.4696	0.4991	0.4780	0.4404	-0.5731
5.06	-9.4529	0.0060	1.4749	-0.0500	-0.0275	-0.0466	38.7067	23.8093	-12.1873	0.4993	0.4779	0.4404	-0.5731
5.07	-9.4689	-0.0063	1.4289	-0.0386	-0.0195	-0.0587	38.7598	23.6203	-12.3353	0.4993	0.4778	0.4405	-0.5730
5.08	-9.4584	-0.0292	1.4398	-0.0284	-0.0297	-0.0554	38.5148	23.7936	-12.2973	0.4995	0.4777	0.4405	-0.5731
5.09	-9.4549	-0.0175	1.4529	-0.0248	-0.0171	-0.0551	38.7331	23.5283	-12.3723	0.4995	0.4776	0.4405	-0.5730
5.1	-9.4741	0.0073	1.4439	-0.0103	-0.0083	-0.0599	38.6772	23.5113	-12.3982	0.4995	0.4777	0.4405	-0.5731
5.11	-9.4805	0.0212	1.4401	-0.0046	-0.0157	-0.0578	38.6041	23.6861	-12.5257	0.4994	0.4776	0.4404	-0.5730
5.12	-9.4660	0.0327	1.4491	-0.0068	-0.0221	-0.0604	38.8052	23.5240	-12.3380	0.4994	0.4777	0.4404	-0.5731
5.13	-9.4580	0.0530	1.4607	-0.0022	-0.0178	-0.0536	38.9548	23.6374	-12.3739	0.4994	0.4777	0.4403	-0.5731
5.14	-9.4546	0.0638	1.4409	-0.0026	-0.0138	-0.0585	38.8343	23.9673	-12.3602	0.4994	0.4777	0.4403	-0.5732
5.15	-9.4432	0.0657	1.4415	0.0011	-0.0179	-0.0547	38.7090	23.6895	-12.2947	0.4994	0.4777	0.4402	-0.5732
5.16	-9.4592	0.0792	1.4470	0.0002	-0.0104	-0.0562	38.7681	23.6887	-12.4722	0.4994	0.4778	0.4402	-0.5732
5.17	-9.4991	0.0931	1.4366	-0.0022	-0.0136	-0.0516	38.8573	23.7455	-12.3197	0.4994	0.4778	0.4401	-0.5733
5.18	-9.5151	0.0981	1.4249	-0.0060	-0.0154	-0.0551	38.7301	23.8938	-12.3280	0.4993	0.4778	0.4400	-0.5732
5.19	-9.4939	0.0910	1.4354	-0.0039	-0.0153	-0.0516	38.6177	24.0594	-12.3179	0.4994	0.4779	0.4400	-0.5733
5.2	-9.4945	0.0956	1.4523	-0.0037	-0.0122	-0.0551	38.6958	23.7770	-12.3467	0.4993	0.4779	0.4400	-0.5733
5.21	-9.5360	0.1106	1.4202	-0.0066	-0.0093	-0.0639	38.7546	23.7405	-12.2260	0.4993	0.4779	0.4400	-0.5734
5.22	-9.5176	0.0861	1.4110	-0.0117	-0.0269	-0.0556	38.7178	23.7375	-12.3256	0.4993	0.4779	0.4399	-0.5734
5.23	-9.4478	0.0622	1.4595	-0.0165	-0.0333	-0.0630	38.6285	23.7645	-12.3123	0.4994	0.4778	0.4399	-0.5734
5.24	-9.4752	0.0720	1.4968	-0.0149	-0.0223	-0.0602	38.8426	23.6955	-12.3661	0.4994	0.4778	0.4399	-0.5735
5.25	-9.5623	0.0809	1.4541	-0.0149	-0.0040	-0.0604	38.3449	23.9441	-12.4581	0.4993	0.4777	0.4398	-0.5734
5.26	-9.5471	0.0780	1.4404	-0.0232	-0.0273	-0.0614	38.5053	23.7753	-12.3661	0.4994	0.4777	0.4399	-0.5735
5.27	-9.4707	0.0543	1.4999	-0.0263	-0.0411	-0.0600	38.7084	23.4999	-12.3444	0.4995	0.4776	0.4398	-0.5735
5.28	-9.4491	0.0342	1.4732	-0.0283	-0.0295	-0.0549	38.8123	23.8744	-12.4532	0.4996	0.4776	0.4398	-0.5736
5.29	-9.4277	0.0374	1.4478	-0.0206	-0.0375	-0.0415	38.8250	23.7180	-12.2968	0.4997	0.4774	0.4397	-0.5735
5.3	-9.4064	0.0693	1.4830	-0.0218	-0.0405	-0.0407	38.8323	23.7675	-12.4521	0.4998	0.4774	0.4396	-0.5736
5.31	-9.3989	0.1119	1.4800	-0.0242	-0.0201	-0.0412	39.1655	23.7110	-12.3599	0.4999	0.4774	0.4396	-0.5736
5.32	-9.4029	0.1124	1.4534	-0.0241	-0.0147	-0.0438	39.1962	23.8596	-12.2109	0.4999	0.4773	0.4395	-0.5735
5.33	-9.4142	0.0900	1.4613	-0.0227	-0.0085	-0.0565	38.9964	23.7510	-12.3206	0.5000	0.4774	0.4396	-0.5735
5.34	-9.4210	0.0848	1.4459	-0.0214	-0.0059	-0.0634	38.6920	23.6068	-12.3676	0.5000	0.4773	0.4396	-0.5735
5.35	-9.4350	0.0895	1.4467	-0.0192	-0.0063	-0.0681	38.5915	23.5106	-12.6736	0.5000	0.4774	0.4397	-0.5735
5.36	-9.4373	0.0917	1.4496	-0.0162	-0.0076	-0.0711	38.6531	23.4417	-12.7069	0.4999	0.4773	0.4397	-0.5734
5.37	-9.4544	0.1013	1.4445	-0.0164	-0.0009	-0.0703	38.6555	23.8078	-12.4355	0.4999	0.4773	0.4398	-0.5735
5.38	-9.4788	0.0959	1.4390	-0.0213	0.0065	-0.0752	38.5974	23.8548	-12.4083	0.4998	0.4773	0.4399	-0.5735
5.39	-9.4862	0.0850	1.4313	-0.0243	-0.0050	-0.0801	38.5317	23.9549	-12.4347	0.4997	0.4772	0.4400	-0.5735
5.4	-9.4733	0.0857	1.4449	-0.0276	-0.0046	-0.0765	38.5746	23.6786	-12.2979	0.4997	0.4772	0.4401	-0.5735
5.41	-9.4716	0.0894	1.4414	-0.0276	-0.0022	-0.0696	38.5299	23.7882	-12.2145	0.4997	0.4772	0.4402	-0.5735
5.42	-9.4958	0.0749	1.4219	-0.0289	0.0048	-0.0727	38.6208	23.8003	-12.4509	0.4997	0.4772	0.4403	-0.5735
5.43	-9.5095	0.0574	1.4184	-0.0275	-0.0031	-0.0675	38.6656	23.5883	-12.2907	0.4996	0.4771	0.4403	-0.5734
5.44	-9.5157	0.0486	1.4146	-0.0360	0.0054	-0.0597	38.5076	23.8136	-12.3597	0.4996	0.4771	0.4405	-0.5734
5.45	-9.5508	0.0466	1.4165	-0.0296	0.0014	-0.0598	38.4700	23.9086	-12.4062	0.4996	0.4771	0.4405	-0.5733
5.46	-9.5494	0.0250	1.3793	-0.0350	-0.0091	-0.0577	38.7189	23.6719	-12.2155	0.4997	0.4771	0.4406	-0.5733
5.47	-9.5206	-0.0017	1.4008	-0.0317	-0.0257	-0.0566	38.8358	23.5162	-12.2086	0.4997	0.4770	0.4406	-0.5732
5.48	-9.4792	-0.0161	1.3802	-0.0270	-0.0209	-0.0532	38.9304	23.3825	-12.5186	0.4998	0.4769	0.4406	-0.5732
5.49	-9.4899	0.0278	1.4325	-0.0284	-0.0218	-0.0591	38.6890	23.6939	-12.5878	0.4999	0.4769	0.4406	-0.5732
5.5	-9.5631	0.0333	1.4176	-0.0274	-0.0074	-0.0664	38.9108	23.5321	-12.3550	0.4998	0.4768	0.4407	-0.5732
5.51	-9.5402	0.0323	1.3790	-0.0279	-0.0254	-0.0668	39.0080	23.6756	-12.5634	0.4999	0.4768	0.4407	-0.5733
5.52	-9.4582	0.0126	1.4536	-0.0274	-0.0450	-0.0756	38.8690	23.6187	-12.4139	0.4999	0.4766	0.4407	-0.5733
5.53	-9.4466	-0.0467	1.4554	-0.0278	-0.0283	-0.0720	38.6881	23.7101	-12.4835	0.5000	0.4765	0.4408	-0.5734
5.54	-9.4780	-0.0141	1.4172	-0.0273	-0.0207	-0.0586	38.5277	23.8289	-12.5129	0.5000	0.4764	0.4407	-0.5734
5.55	-9.4588	0.0304	1.4412	-0.0285	-0.0349	-0.0476	38.5675	23.8117	-12.5195	0.5001	0.4763	0.4407	-0.5734
5.56	-9.4615	0.0695	1.4794	-0.0247	-0.0192	-0.0497	38.5481	23.6469	-12.6432	0.5002	0.4763	0.4407	-0.5734
5.57	-9.4911	0.0541	1.4447	-0.0290	-0.0113	-0.0573	38.5565	23.9929	-12.5072	0.5002	0.4762	0.4407	-0.5733
5.58	-9.5023	0.0118	1.4469	-0.0345	-0.0249	-0.0576	38.5614	24.0897	-12.4130	0.5003	0.4762	0.4408	-0.5734
5.59	-9.4967	-0.0076	1.4535	-0.0352	-0.0242	-0.0574	38.5546	23.9591	-12.4202	0.5004	0.4761	0.4408	-0.5733
5.6	-9.4970	-0.0204	1.4322	-0.0394	-0.0238	-0.0597	38.5398	23.7993	-12.4146	0.5005	0.4760	0.4408	-0.5733
5.61	-9.4789	-0.0251	1.4266	-0.0335	-0.0254	-0.0579	38.2211	23.9265	-12.4248	0.5005	0.4758	0.4408	-0.5732
5.62	-9.4789	-0.0139	1.4425	-0.0276	-0.0273	-0.0533	38.4906	23.9656	-12.2931	0.5006	0.4758	0.4408	-0.5733
5.63	-9.4844	-0.0111	1.4306	-0.0272	-0.0218	-0.0575	38.6723	23.9415	-12.3796	0.5007	0.4758	0.4408	-0.5733
5.64	-9.4950	-0.0333	1.4270	-0.0280	-0.0268	-0.0603	38.4083	23.9801	-12.4497	0.5007	0.4757	0.4408	-0.5733
5.65	-9.4988	-0.0432	1.4308	-0.0269	-0.0282	-0.0596	38.6880	23.4891	-12.3656	0.5008	0.4756	0.4408	-0.5733
5.66	-9.4970	-0.0333	1.4507	-0.0182	-0.0288	-0.0544	38.7478	23.5753	-12.6232	0.5008	0.4755	0.4408	-0.5733
5.67	-9.4969	-0.0309	1.4494	-0.0136	-0.0319	-0.0569	38.7051	23.5709	-12.6603	0.5009	0.4755	0.4408	-0.5734
5.68	-9.4803	-0.0264	1.4562	-0.0132	-0.0387	-0.0503	38.8391	23.8453	-12.4741	0.5009	0.4754	0.4406	-0.5734
5.69	-9.4746	-0.0333	1.4762	-0.0073	-0.0351	-0.0454	38.7968	23.8060	-12.6300	0.5011	0.4754	0.4406	-0.5735
5.7	-9.4665	-0.0186	1.4673	-0.0029	-0.0319	-0.0417	38.5565	23.6672	-12.5793	0.5011	0.4754	0.4404	-0.5735
5.71	-9.4549	0.0025	1.4906	-0.0004	-0.0422	-0.0423	38.5371	23.6168	-12.6133	0.5012	0.4754	0.4403	-0.5736
5.72	-9.4425	0.0070	1.5041	-0.0036	-0.0354	-0.0432	38.6642	23.7515	-12.4929	0.5012	0.4754	0.4401	-0.5736
5.73	-9.4402	0.0313	1.4964	0.0089	-0.0322	-0.0417	38.7379	23.7112	-12.5046	0.5013	0.4754	0.4400	-0.5737
5.74	-9.4430	0.0502	1.5186	-0.0005	-0.0337	-0.0366	38.5559	23.7782	-12.5108	0.5014	0.4754	0.4398	-0.5737
5.75	-9.4534	0.0718	1.5247	-0.0026	-0.0146	-0.0430	38.5428	23.9113	-12.4993	0.5014	0.4754	0.4397	-0.5737
5.76	-9.4622	0.0868	1.5068	0.0044	-0.0208	-0.0476	38.6765	23.9107	-12.5267	0.5014	0.4755	0.4397	-0.5738
5.77	-9.4550	0.0850	1.5234	-0.0077	-0.0272	-0.0481	38.6038	23.8868	-12.6256	0.5014	0.4755	0.4395	-0.5738
5.78	-9.4583	0.0770	1.5231	0.0000	-0.0173	-0.0566	38.4914	23.7100	-12.5817	0.5015	0.4756	0.4395	-0.5739
5.79	-9.4666	0.0766	1.5103	0.0024	-0.0157	-0.0561	38.3419	23.8308	-12.6260	0.5014	0.4755	0.4394	-0.5739
5.8	-9.4432	0.0797	1.5241	-0.0025	-0.0257	-0.0581	38.5464	23.6855	-12.3097	0.5014	0.4756	0.4394	-0.5740
5.81	-9.4265	0.0752	1.5308	-0.0004	-0.0224	-0.0563	38.8708	24.0054	-12.4113	0.5014	0.4756	0.4393	-0.5740
5.82	-9.4198	0.0634	1.5289	-0.0042	-0.0188	-0.0552	38.7248	24.1987	-12.6627	0.5014	0.4755	0.4392	-0.5740
5.83	-9.4147	0.0571	1.5268	-0.0050	-0.0264	-0.0527	38.7289	24.0526	-12.4605	0.5015	0.4756	0.4392	-0.5741
5.84	-9.4148	0.0649	1.5384	-0.0181	-0.0145	-0.0488	38.7132	23.8735	-12.5711	0.5014	0.4756	0.4391	-0.5741
5.85	-9.4252	0.0590	1.5317	-0.0140	-0.0093	-0.0559	38.5642	23.7784	-12.7465	0.5015	0.4756	0.4391	-0.5741
5.86	-9.4249	0.0497	1.5161	-0.0109	-0.0090	-0.0574	38.7471	23.6823	-12.5850	0.5014	0.4756	0.4391	-0.5740
5.87	-9.4285	0.0557	1.5158	-0.0125	-0.0091	-0.0565	38.8088	23.4374	-12.5830	0.5014	0.4756	0.4391	-0.5741
5.88	-9.4476	0.0623	1.5127	-0.0222	-0.0056	-0.0513	38.8279	23.7392	-12.8091	0.5015	0.4756	0.4391	-0.5740
5.89	-9.4719	0.0430	1.4912	-0.0189	0.0095	-0.0547	38.7278	23.7518	-12.6246	0.5014	0.4757	0.4392	-0.5740
5.9	-9.4765	0.0300	1.4775	-0.0187	-0.0052	-0.0492	38.6338	23.8733	-12.4934	0.5015	0.4757	0.4392	-0.5739
5.91	-9.4794	0.0394	1.4818	-0.0281	-0.0063	-0.0493	38.5973	23.7987	-12.4955	0.5015	0.4757	0.4392	-0.5739
5.92	-9.4892	0.0296	1.4750	-0.0176	-0.0052	-0.0482	38.7551	23.5790	-12.5777	0.5015	0.4757	0.4392	-0.5738
5.93	-9.5065	0.0277	1.4584	-0.0167	-0.0128	-0.0454	38.8593	23.9016	-12.5342	0.5015	0.4757	0.4391	-0.5737
5.94	-9.5013	0.0214	1.4382	-0.0206	-0.0123	-0.0479	38.4421	23.8897	-12.3750	0.5016	0.4758	0.4392	-0.5738
5.95	-9.4950	0.0207	1.4594	-0.0115	-0.0120	-0.0496	38.3368	23.8949	-12.4706	0.5016	0.4758	0.4391	-0.5737
5.96	-9.5188	0.0253	1.4536	-0.0135	-0.0047	-0.0457	38.7136	23.8989	-12.5923	0.5016	0.4758	0.4391	-0.5737
5.97	-9.5355	0.0280	1.4264	-0.0089	-0.0169	-0.0463	38.7293	23.6458	-12.6163	0.5017	0.4758	0.4391	-0.5737
5.98	-9.5222	0.0361	1.4457	-0.0025	-0.0222	-0.0453	38.5904	23.7831	-12.4330	0.5017	0.4759	0.4390	-0.5737
5.99	-9.5050	0.0539	1.4552	-0.0043	-0.0223	-0.0498	38.6714	23.7885	-12.4526	0.5017	0.4759	0.4389	-0.5738
6	-9.5206	0.0779	1.4626	-0.0039	-0.0212	-0.0521	38.5225	23.9580	-12.6194	0.5017	0.4759	0.4388	-0.5737
6.01	-9.5329	0.0939	1.4487	-0.0010	-0.0332	-0.0447	38.5644	23.8252	-12.6014	0.5018	0.4759	0.4387	-0.5739
6.02	-9.5058	0.1064	1.4740	-0.0034	-0.0427	-0.0439	38.5056	23.8528	-12.4293	0.5018	0.4759	0.4386	-0.5739
6.03	-9.4870	0.1121	1.5054	-0.0034	-0.0452	-0.0541	38.6514	23.8603	-12.4657	0.5020	0.4759	0.4385	-0.5740
6.04	-9.4911	0.1197	1.5037	-0.0137	-0.0433	-0.0534	38.5104	23.7498	-12.6251	0.5020	0.4757	0.4383	-0.5740
6.05	-9.4867	0.1157	1.5069	-0.0211	-0.0419	-0.0562	38.6029	23.7632	-12.7063	0.5021	0.4756	0.4383	-0.5741
6.06	-9.4592	0.1089	1.5330	-0.0212	-0.0451	-0.0573	38.9289	23.5611	-12.6674	0.5022	0.4755	0.4382	-0.5742
6.07	-9.4359	0.0962	1.5434	-0.0279	-0.0403	-0.0580	38.5657	23.7315	-12.7710	0.5022	0.4754	0.4381	-0.5742
6.08	-9.4251	0.0746	1.5492	-0.0275	-0.0388	-0.0603	38.8891	23.8842	-12.8054	0.5024	0.4753	0.4382	-0.5743
6.09	-9.4235	0.0597	1.5527	-0.0289	-0.0405	-0.0611	38.8460	23.6817	-12.7424	0.5024	0.4752	0.4381	-0.5743
6.1	-9.3994	0.0487	1.5580	-0.0276	-0.0356	-0.0555	38.6023	23.8966	-12.6555	0.5025	0.4751	0.4381	-0.5744
6.11	-9.3934	0.0326	1.5837	-0.0278	-0.0339	-0.0584	38.6571	23.6277	-12.8044	0.5026	0.4749	0.4380	-0.5743
6.12	-9.4166	0.0206	1.5701	-0.0234	-0.0209	-0.0575	38.4790	23.7289	-12.7594	0.5027	0.4749	0.4381	-0.5744
6.13	-9.4294	0.0210	1.5653	-0.0266	-0.0130	-0.0567	38.6455	23.6994	-12.6424	0.5027	0.4749	0.4381	-0.5744
6.14	-9.4396	0.0278	1.5614	-0.0287	-0.0155	-0.0544	38.4879	23.7385	-12.4944	0.5027	0.4748	0.4381	-0.5743
6.15	-9.4377	0.0313	1.5618	-0.0250	-0.0175	-0.0570	38.3247	23.7529	-12.5262	0.5028	0.4748	0.4381	-0.5743
6.16	-9.4294	0.0351	1.5532	-0.0281	-0.0134	-0.0513	38.6642	23.8053	-12.6085	0.5028	0.4748	0.4381	-0.5743
6.17	-9.4189	0.0417	1.5492	-0.0187	-0.0149	-0.0520	38.5478	23.8092	-12.6219	0.5029	0.4748	0.4381	-0.5743
6.18	-9.4079	0.0388	1.5474	-0.0154	-0.0147	-0.0533	38.5534	23.7270	-12.4806	0.5028	0.4747	0.4381	-0.5742
6.19	-9.4041	0.0411	1.5472	-0.0208	-0.0079	-0.0512	38.4030	23.8805	-12.6648	0.5029	0.4748	0.4381	-0.5743
6.2	-9.4156	0.0583	1.5438	-0.0084	-0.0074	-0.0513	38.5553	23.8282	-12.6592	0.5029	0.4748	0.4381	-0.5742
6.21	-9.4484	0.0633	1.5310	-0.0069	-0.0081	-0.0536	38.6707	23.8561	-12.8633	0.5029	0.4748	0.4381	-0.5742
6.22	-9.4595	0.0571	1.5234	-0.0038	-0.0011	-0.0566	38.5994	23.8421	-12.8718	0.5028	0.4749	0.4380	-0.5742
6.23	-9.4550	0.0514	1.5319	-0.0176	-0.0044	-0.0578	38.7881	23.7178	-12.7881	0.5028	0.4749	0.4381	-0.5742
6.24	-9.4838	0.0751	1.5161	-0.0091	0.0050	-0.0637	38.6093	23.6356	-12.9041	0.5028	0.4750	0.4381	-0.5742
6.25	-9.5017	0.0875	1.4922	-0.0209	0.0017	-0.0672	38.7323	23.7658	-12.8613	0.5027	0.4749	0.4381	-0.5741
6.26	-9.4962	0.0783	1.5092	-0.0287	-0.0091	-0.0657	38.6915	23.7510	-12.9742	0.5028	0.4749	0.4383	-0.5742
6.27	-9.4843	0.0516	1.5074	-0.0183	-0.0051	-0.0617	38.6417	23.7720	-13.0006	0.5027	0.4749	0.4383	-0.5742
6.28	-9.4996	0.0298	1.5202	-0.0262	-0.0081	-0.0568	38.5131	23.6941	-12.8253	0.5028	0.4749	0.4383	-0.5742
6.29	-9.5632	0.0417	1.5349	-0.0284	-0.0075	-0.0560	38.3177	23.6395	-12.6769	0.5027	0.4748	0.4383	-0.5741
6.3	-9.5793	0.0343	1.5020	-0.0273	-0.0186	-0.0554	38.5167	23.8272	-12.6708	0.5028	0.4748	0.4384	-0.5741
6.31	-9.5172	-0.0036	1.5125	-0.0287	-0.0333	-0.0518	38.9439	24.0186	-12.3969	0.5029	0.4747	0.4383	-0.5741
6.32	-9.4617	-0.0628	1.5234	-0.0287	-0.0353	-0.0471	39.0232	24.0437	-12.4212	0.5030	0.4746	0.4383	-0.5741
6.33	-9.4343	-0.0829	1.5053	-0.0269	-0.0303	-0.0338	38.8032	23.9484	-12.5890	0.5032	0.4747	0.4383	-0.5741
6.34	-9.4032	-0.0500	1.5137	-0.0193	-0.0289	-0.0309	38.5860	23.9286	-12.5599	0.5033	0.4746	0.4381	-0.5740
6.35	-9.4046	0.0103	1.5356	-0.0099	-0.0267	-0.0268	38.4358	23.9431	-12.6607	0.5034	0.4747	0.4380	-0.5740
6.36	-9.4300	0.0352	1.5042	-0.0053	-0.0101	-0.0291	38.4996	23.7862	-12.7983	0.5034	0.4747	0.4379	-0.5739
6.37	-9.4373	0.0480	1.4813	-0.0020	-0.0138	-0.0353	38.6106	23.7990	-12.7368	0.5035	0.4748	0.4378	-0.5739
6.38	-9.4440	0.0739	1.5126	0.0030	-0.0173	-0.0416	38.6931	23.8203	-12.4949	0.5035	0.4749	0.4377	-0.5739
6.39	-9.4679	0.1024	1.5006	0.0081	-0.0093	-0.0429	38.6370	23.7270	-12.7790	0.5035	0.4749	0.4376	-0.5739
6.4	-9.4772	0.1279	1.4771	0.0112	-0.0218	-0.0592	38.7897	23.6198	-12.8535	0.5035	0.4750	0.4375	-0.5740
6.41	-9.4517	0.1710	1.5024	0.0144	-0.0270	-0.0555	38.7079	23.4752	-12.6105	0.5034	0.4750	0.4374	-0.5741
6.42	-9.4545	0.2069	1.5191	-0.0012	-0.0153	-0.0665	38.6509	23.4840	-12.7396	0.5034	0.4751	0.4374	-0.5742
6.43	-9.4799	0.2142	1.4920	0.0032	-0.0194	-0.0675	38.6566	23.6469	-12.8704	0.5033	0.4750	0.4373	-0.5742
6.44	-9.4789	0.2039	1.4959	-0.0171	-0.0228	-0.0656	38.8930	23.6132	-12.8421	0.5033	0.4750	0.4373	-0.5743
6.45	-9.4738	0.1951	1.5310	-0.0281	-0.0314	-0.0717	38.7930	23.4881	-12.7285	0.5034	0.4749	0.4373	-0.5744
6.46	-9.4954	0.1752	1.5205	-0.0395	-0.0217	-0.0779	38.9703	23.6547	-12.7995	0.5034	0.4747	0.4374	-0.5744
6.47	-9.5151	0.1161	1.5186	-0.0547	-0.0277	-0.0764	38.7116	23.4965	-12.6406	0.5034	0.4745	0.4375	-0.5744
6.48	-9.4979	0.0628	1.5338	-0.0570	-0.0386	-0.0631	38.5641	23.7368	-12.5863	0.5036	0.4743	0.4376	-0.5744
6.49	-9.4783	0.0111	1.5415	-0.0546	-0.0377	-0.0658	38.7248	23.7704	-12.7459	0.5037	0.4742	0.4377	-0.5744
6.5	-9.4530	-0.0407	1.5295	-0.0551	-0.0284	-0.0655	38.5545	23.6820	-12.5286	0.5038	0.4739	0.4377	-0.5743
6.51	-9.4358	-0.0623	1.5421	-0.0523	-0.0377	-0.0681	38.5880	23.8283	-12.7641	0.5040	0.4738	0.4378	-0.5744
6.52	-9.3881	-0.0802	1.5398	-0.0447	-0.0428	-0.0611	38.5722	23.6514	-12.8426	0.5041	0.4736	0.4378	-0.5744
6.53	-9.4417	-0.0521	1.6166	-0.0376	-0.0299	-0.0589	38.5810	23.8122	-12.7370	0.5042	0.4735	0.4379	-0.5744
6.54	-9.5112	-0.0515	1.5419	-0.0292	-0.0186	-0.0742	38.5788	23.7855	-12.8697	0.5041	0.4734	0.4379	-0.5744
6.55	-9.4416	-0.0384	1.5531	-0.0308	-0.0460	-0.0688	38.5683	23.9395	-12.7725	0.5042	0.4732	0.4379	-0.5745
6.56	-9.3878	-0.0545	1.6333	-0.0283	-0.0340	-0.0677	38.6154	23.9856	-12.9077	0.5043	0.4731	0.4379	-0.5745
6.57	-9.4262	-0.0852	1.5545	-0.0265	-0.0090	-0.0620	38.7780	23.9788	-12.8421	0.5043	0.4730	0.4379	-0.5745
6.58	-9.4333	-0.0667	1.5446	-0.0263	-0.0190	-0.0444	38.6410	23.8816	-12.8871	0.5044	0.4731	0.4380	-0.5745
6.59	-9.4068	-0.0235	1.5940	-0.0148	-0.0181	-0.0416	38.8458	23.6089	-12.6868	0.5044	0.4730	0.4379	-0.5745
6.6	-9.4459	0.0162	1.5846	-0.0155	-0.0073	-0.0334	38.7593	23.7004	-12.9364	0.5045	0.4731	0.4379	-0.5744
6.61	-9.4770	0.0263	1.5572	-0.0167	-0.0177	-0.0348	38.4163	23.7167	-12.9562	0.5046	0.4731	0.4377	-0.5743
6.62	-9.4643	0.0304	1.5728	-0.0154	-0.0288	-0.0308	38.6760	23.6002	-12.9648	0.5047	0.4732	0.4377	-0.5743
6.63	-9.4447	0.0335	1.5947	-0.0138	-0.0237	-0.0364	38.7381	23.4738	-12.8925	0.5048	0.4732	0.4376	-0.5743
6.64	-9.4488	0.0592	1.5697	-0.0087	-0.0170	-0.0415	38.6036	23.7296	-12.8469	0.5048	0.4732	0.4375	-0.5743
6.65	-9.4365	0.0706	1.5764	-0.0042	-0.0189	-0.0475	38.9084	23.5924	-12.8551	0.5049	0.4732	0.4374	-0.5743
6.66	-9.4242	0.0736	1.5855	-0.0034	-0.0197	-0.0512	38.7719	23.6910	-13.0163	0.5049	0.4732	0.4374	-0.5743
6.67	-9.4275	0.0863	1.5792	-0.0019	-0.0139	-0.0559	38.5691	23.6459	-12.8018	0.5049	0.4733	0.4373	-0.5744
6.68	-9.4239	0.0901	1.5732	-0.0021	-0.0114	-0.0605	38.5757	23.6969	-12.7459	0.5048	0.4732	0.4372	-0.5744
6.69	-9.4200	0.0921	1.5843	0.0003	-0.0049	-0.0727	38.5795	23.8126	-12.9975	0.5048	0.4733	0.4373	-0.5745
6.7	-9.4508	0.1020	1.5798	0.0008	-0.0008	-0.0696	38.5730	23.8335	-12.9469	0.5046	0.4733	0.4373	-0.5745
6.71	-9.4589	0.1129	1.5630	-0.0020	-0.0036	-0.0777	38.5938	23.9122	-12.9514	0.5045	0.4734	0.4373	-0.5746
6.72	-9.4629	0.1157	1.5808	-0.0033	-0.0080	-0.0734	38.4684	23.8714	-12.9801	0.5044	0.4733	0.4373	-0.5746
6.73	-9.4728	0.1132	1.5767	-0.0112	-0.0061	-0.0675	38.6361	24.0162	-13.0332	0.5044	0.4734	0.4374	-0.5747
6.74	-9.4924	0.1109	1.5717	-0.0235	-0.0030	-0.0625	38.4773	23.9208	-12.7342	0.5044	0.4734	0.4374	-0.5747
6.75	-9.5048	0.0839	1.5660	-0.0284	-0.0127	-0.0623	38.5905	23.7887	-12.8666	0.5044	0.4733	0.4374	-0.5746
6.76	-9.4916	0.0607	1.5591	-0.0269	-0.0197	-0.0591	38.4446	23.8101	-12.8762	0.5045	0.4733	0.4375	-0.5747
6.77	-9.4703	0.0537	1.5703	-0.0277	-0.0271	-0.0594	38.4314	23.7730	-12.8315	0.5045	0.4732	0.4375	-0.5746
6.78	-9.4754	0.0321	1.5781	-0.0281	-0.0262	-0.0566	38.7631	23.6266	-12.9883	0.5046	0.4731	0.4375	-0.5747
6.79	-9.4811	0.0103	1.5591	-0.0273	-0.0234	-0.0577	38.8401	23.6068	-13.1817	0.5046	0.4730	0.4375	-0.5746
6.8	-9.4817	-0.0024	1.5731	-0.0301	-0.0285	-0.0563	38.8487	23.8914	-12.9638	0.5047	0.4729	0.4375	-0.5747
6.81	-9.4871	-0.0177	1.5759	-0.0323	-0.0267	-0.0571	39.0510	23.8193	-12.8080	0.5048	0.4728	0.4375	-0.5747
6.82	-9.4832	-0.0205	1.5775	-0.0275	-0.0401	-0.0565	39.1786	23.5590	-12.9670	0.5048	0.4727	0.4374	-0.5747
6.83	-9.4681	-0.0123	1.5901	-0.0284	-0.0315	-0.0482	38.7675	23.8314	-12.8871	0.5050	0.4727	0.4375	-0.5747
6.84	-9.4617	-0.0151	1.5988	-0.0280	-0.0369	-0.0517	38.5931	23.9651	-12.9696	0.5051	0.4726	0.4374	-0.5747
6.85	-9.4505	-0.0081	1.5966	-0.0274	-0.0390	-0.0513	38.3556	23.7467	-13.1855	0.5052	0.4725	0.4374	-0.5748
6.86	-9.4216	0.0062	1.6075	-0.0237	-0.0436	-0.0419	38.4736	23.7221	-13.0669	0.5053	0.4723	0.4372	-0.5747
6.87	-9.4011	0.0121	1.6219	-0.0219	-0.0415	-0.0432	38.7015	23.6507	-12.7923	0.5054	0.4723	0.4372	-0.5748
6.88	-9.4026	0.0097	1.6153	-0.0241	-0.0243	-0.0449	38.6311	23.7815	-13.1694	0.5055	0.4723	0.4371	-0.5748
6.89	-9.4120	0.0195	1.6204	-0.0183	-0.0257	-0.0386	38.6309	23.9339	-12.9809	0.5056	0.4722	0.4370	-0.5747
6.9	-9.4315	0.0337	1.6200	-0.0218	-0.0228	-0.0356	38.3014	23.7784	-12.9719	0.5057	0.4722	0.4370	-0.5747
6.91	-9.4379	0.0330	1.6104	-0.0131	-0.0189	-0.0356	38.5024	23.7619	-13.1992	0.5058	0.4723	0.4369	-0.5747
6.92	-9.4440	0.0289	1.6249	-0.0147	-0.0230	-0.0366	38.5285	23.8232	-12.8987	0.5059	0.4723	0.4368	-0.5747
6.93	-9.4534	0.0317	1.6150	-0.0199	-0.0213	-0.0376	38.4378	23.9158	-12.7687	0.5059	0.4722	0.4367	-0.5746
6.94	-9.4521	0.0223	1.6229	-0.0055	-0.0234	-0.0369	38.7138	23.8847	-12.8078	0.5061	0.4723	0.4367	-0.5746
6.95	-9.4434	0.0366	1.6230	-0.0013	-0.0317	-0.0339	38.7699	23.5114	-12.8795	0.5061	0.4723	0.4365	-0.5746
6.96	-9.4279	0.0424	1.6166	0.0006	-0.0297	-0.0364	38.6436	23.6393	-12.9073	0.5062	0.4724	0.4364	-0.5747
6.97	-9.4135	0.0400	1.6252	-0.0035	-0.0199	-0.0343	38.7627	23.7482	-13.1980	0.5062	0.4724	0.4362	-0.5746
6.98	-9.4253	0.0491	1.6205	0.0098	-0.0133	-0.0342	38.6991	23.7123	-12.9723	0.5063	0.4725	0.4361	-0.5747
6.99	-9.4482	0.0608	1.6127	0.0067	-0.0206	-0.0443	38.6768	23.6008	-12.9996	0.5063	0.4726	0.4360	-0.5747
7	-9.4531	0.0727	1.6121	0.0146	-0.0229	-0.0387	38.8024	23.7538	-13.1651	0.5062	0.4726	0.4358	-0.5747
7.01	-9.4551	0.0904	1.6156	0.0238	-0.0212	-0.0438	38.4709	23.7112	-13.1381	0.5063	0.4728	0.4357	-0.5748
7.02	-9.4440	0.1206	1.6177	0.0173	-0.0296	-0.0427	38.6934	23.4776	-13.3096	0.5062	0.4728	0.4355	-0.5749
7.03	-9.4302	0.1395	1.6309	0.0116	-0.0212	-0.0490	38.7142	23.7119	-13.0639	0.5063	0.4729	0.4354	-0.5750
7.04	-9.4316	0.1524	1.6261	0.0104	-0.0192	-0.0524	38.4525	23.8386	-13.0652	0.5062	0.4729	0.4353	-0.5750
7.05	-9.4266	0.1768	1.6231	0.0038	-0.0189	-0.0534	38.4593	23.6910	-13.0247	0.5062	0.4729	0.4352	-0.5751
7.06	-9.4205	0.1717	1.6410	-0.0002	-0.0184	-0.0516	38.5521	23.7806	-12.7762	0.5062	0.4730	0.4351	-0.5751
7.07	-9.4287	0.1619	1.6331	-0.0133	-0.0071	-0.0585	38.8524	23.6126	-13.0752	0.5061	0.4730	0.4351	-0.5751
7.08	-9.4492	0.1618	1.6211	-0.0188	-0.0065	-0.0554	38.7412	23.7921	-13.1369	0.5062	0.4730	0.4352	-0.5751
7.09	-9.4458	0.1484	1.6325	-0.0250	-0.0096	-0.0591	38.5630	23.7609	-13.0439	0.5062	0.4730	0.4352	-0.5751
7.1	-9.4440	0.1295	1.6326	-0.0280	-0.0083	-0.0624	38.4214	23.3597	-13.0428	0.5062	0.4730	0.4352	-0.5751
7.11	-9.4513	0.0984	1.6163	-0.0311	-0.0043	-0.0594	38.5945	23.7986	-13.0802	0.5062	0.4729	0.4353	-0.5750
7.12	-9.4468	0.0745	1.6274	-0.0461	-0.0102	-0.0622	38.4259	23.6641	-13.0039	0.5063	0.4728	0.4354	-0.5750
7.13	-9.4477	0.0648	1.6221	-0.0344	-0.0142	-0.0666	38.7156	23.7143	-13.0198	0.5063	0.4727	0.4355	-0.5749
7.14	-9.4539	0.0627	1.6169	-0.0294	-0.0148	-0.0615	38.7518	23.9597	-13.3150	0.5063	0.4727	0.4355	-0.5749
7.15	-9.4476	0.0547	1.6277	-0.0331	-0.0179	-0.0650	38.6620	23.6959	-12.9906	0.5064	0.4726	0.4356	-0.5749
7.16	-9.4358	0.0467	1.6262	-0.0286	-0.0199	-0.0621	38.6008	23.6138	-13.1161	0.5064	0.4725	0.4356	-0.5749
7.17	-9.4330	0.0507	1.6159	-0.0280	-0.0171	-0.0670	38.6026	23.5122	-13.1472	0.5064	0.4725	0.4356	-0.5750
7.18	-9.4235	0.0476	1.6243	-0.0279	-0.0184	-0.0684	38.6853	23.6782	-13.1529	0.5064	0.4723	0.4356	-0.5749
7.19	-9.4198	0.0382	1.6289	-0.0289	-0.0112	-0.0630	38.5181	23.4964	-13.1248	0.5065	0.4723	0.4357	-0.5750
7.2	-9.4474	0.0471	1.6297	-0.0282	-0.0087	-0.0654	38.4351	23.6633	-13.1912	0.5064	0.4723	0.4358	-0.5749
7.21	-9.4806	0.0509	1.6338	-0.0278	-0.0063	-0.0630	38.3362	23.7684	-12.9964	0.5065	0.4723	0.4359	-0.5749
7.22	-9.4664	0.0398	1.6230	-0.0280	-0.0191	-0.0687	38.5232	23.6287	-12.8425	0.5064	0.4722	0.4359	-0.5749
7.23	-9.4292	0.0164	1.6523	-0.0269	-0.0257	-0.0605	38.6532	23.6414	-13.2732	0.5065	0.4721	0.4359	-0.5750
7.24	-9.4386	0.0198	1.6559	-0.0230	-0.0111	-0.0588	38.5178	23.6642	-13.1725	0.5065	0.4721	0.4359	-0.5750
7.25	-9.4601	0.0355	1.6222	-0.0288	-0.0103	-0.0569	38.6551	23.5865	-13.1127	0.5065	0.4720	0.4359	-0.5749
7.26	-9.4312	0.0213	1.6281	-0.0239	-0.0202	-0.0633	38.6689	24.0382	-13.3038	0.5066	0.4720	0.4360	-0.5750
7.27	-9.3989	0.0002	1.6466	-0.0256	-0.0163	-0.0553	38.6168	23.8414	-13.3030	0.5066	0.4719	0.4360	-0.5749
7.28	-9.4224	-0.0165	1.6646	-0.0299	-0.0110	-0.0526	38.5027	23.7457	-12.9361	0.5067	0.4719	0.4361	-0.5749
7.29	-9.4937	-0.0052	1.6518	-0.0237	-0.0050	-0.0544	38.3549	23.9436	-13.0774	0.5067	0.4719	0.4360	-0.5748
7.3	-9.4931	-0.0031	1.6183	-0.0257	-0.0098	-0.0451	38.3196	23.7862	-13.0497	0.5067	0.4719	0.4361	-0.5748
7.31	-9.4179	-0.0203	1.6595	-0.0303	-0.0400	-0.0488	38.9752	24.0107	-12.8730	0.5069	0.4718	0.4360	-0.5748
7.32	-9.4038	-0.0468	1.6580	-0.0176	-0.0140	-0.0422	39.0482	24.0067	-12.5615	0.5069	0.4718	0.4360	-0.5747
7.33	-9.3905	-0.0422	1.6094	-0.0004	-0.0249	-0.0327	38.8464	23.8983	-12.8556	0.5070	0.4719	0.4359	-0.5748
7.34	-9.3513	0.0102	1.6515	0.0000	-0.0321	-0.0315	38.6559	23.6895	-13.0562	0.5071	0.4719	0.4357	-0.5748
7.35	-9.3573	0.0755	1.6646	0.0132	-0.0062	-0.0258	38.6073	23.6770	-13.2509	0.5071	0.4720	0.4356	-0.5748
7.36	-9.3896	0.1027	1.6054	0.0182	0.0140	-0.0309	38.5360	23.6226	-13.1095	0.5070	0.4722	0.4354	-0.5747
7.37	-9.3958	0.1236	1.6027	0.0205	0.0076	-0.0334	38.6402	23.6749	-13.1404	0.5070	0.4724	0.4354	-0.5747
7.38	-9.4096	0.1327	1.6064	0.0221	0.0125	-0.0337	38.6164	23.5712	-13.0724	0.5069	0.4726	0.4353	-0.5747
7.39	-9.4298	0.1333	1.5590	0.0219	0.0166	-0.0458	38.6212	23.6113	-12.9887	0.5068	0.4728	0.4352	-0.5746
7.4	-9.4342	0.1612	1.5608	0.0216	0.0131	-0.0557	38.6287	23.7621	-13.2584	0.5067	0.4730	0.4352	-0.5747
7.41	-9.4600	0.1806	1.5628	0.0232	0.0187	-0.0587	38.6102	23.5764	-13.1851	0.5065	0.4731	0.4351	-0.5747
7.42	-9.4920	0.1913	1.5325	0.0226	0.0183	-0.0647	38.6486	23.5416	-13.0343	0.5063	0.4733	0.4351	-0.5747
7.43	-9.5046	0.2008	1.5418	0.0149	0.0014	-0.0628	38.5115	23.6335	-13.0240	0.5062	0.4734	0.4350	-0.5747
7.44	-9.5148	0.1967	1.5426	0.0003	-0.0015	-0.0705	38.5633	23.7685	-13.1471	0.5061	0.4735	0.4351	-0.5748
7.45	-9.5183	0.2030	1.5420	-0.0076	-0.0006	-0.0772	38.6260	23.6748	-12.9400	0.5060	0.4735	0.4351	-0.5749
7.46	-9.5105	0.1878	1.5429	-0.0251	-0.0136	-0.0780	38.3658	23.6614	-12.9893	0.5060	0.4734	0.4352	-0.5749
7.47	-9.5058	0.1621	1.5573	-0.0264	-0.0089	-0.0759	38.3274	23.9747	-13.1846	0.5059	0.4733	0.4352	-0.5749
7.48	-9.5151	0.1374	1.5577	-0.0367	-0.0150	-0.0754	38.4161	23.9430	-12.9313	0.5059	0.4732	0.4353	-0.5749
7.49	-9.5090	0.1094	1.5458	-0.0477	-0.0189	-0.0760	38.3999	23.7335	-13.0394	0.5060	0.4731	0.4355	-0.5749
7.5	-9.4978	0.0891	1.5642	-0.0511	-0.0222	-0.0703	38.3270	23.7060	-12.9252	0.5060	0.4729	0.4355	-0.5749
7.51	-9.4811	0.0607	1.5492	-0.0553	-0.0243	-0.0647	38.4695	23.7842	-12.9886	0.5062	0.4728	0.4357	-0.5749
7.52	-9.4468	0.0542	1.5854	-0.0547	-0.0404	-0.0579	38.4507	23.6083	-13.2791	0.5063	0.4726	0.4357	-0.5749
7.53	-9.5440	0.0647	1.6324	-0.0545	-0.0186	-0.0661	38.6417	23.6049	-12.9592	0.5064	0.4725	0.4358	-0.5749
7.54	-9.5561	0.0305	1.5339	-0.0545	-0.0310	-0.0762	38.6071	23.7262	-13.1755	0.5065	0.4722	0.4359	-0.5748
7.55	-9.4550	0.0075	1.6323	-0.0648	-0.0646	-0.0794	38.6437	23.7933	-13.1941	0.5066	0.4719	0.4360	-0.5749
7.56	-9.4019	-0.0503	1.6551	-0.0618	-0.0424	-0.0767	38.5691	23.7046	-13.0811	0.5068	0.4717	0.4361	-0.5749
7.57	-9.4251	-0.0936	1.6167	-0.0548	-0.0382	-0.0722	38.5039	23.3849	-12.9006	0.5069	0.4714	0.4361	-0.5749
7.58	-9.3998	-0.0853	1.6309	-0.0503	-0.0454	-0.0646	38.5633	23.7189	-12.9896	0.5071	0.4713	0.4362	-0.5750
7.59	-9.3748	-0.0452	1.6880	-0.0429	-0.0448	-0.0559	38.4945	23.8657	-13.1319	0.5072	0.4710	0.4362	-0.5750
7.6	-9.4044	-0.0224	1.6643	-0.0506	-0.0285	-0.0580	38.6370	23.6946	-12.9818	0.5073	0.4709	0.4363	-0.5750
7.61	-9.4181	-0.0371	1.6433	-0.0381	-0.0318	-0.0577	38.5189	23.5897	-13.1365	0.5073	0.4707	0.4362	-0.5749
7.62	-9.4042	-0.0482	1.6845	-0.0383	-0.0384	-0.0547	38.4491	23.8213	-13.1387	0.5075	0.4707	0.4363	-0.5750
7.63	-9.4100	-0.0480	1.6647	-0.0302	-0.0217	-0.0555	38.5546	23.7450	-13.0725	0.5076	0.4706	0.4363	-0.5750
7.64	-9.4368	-0.0558	1.6555	-0.0268	-0.0224	-0.0592	38.2511	23.7963	-13.0214	0.5076	0.4705	0.4363	-0.5750
7.65	-9.4398	-0.0403	1.6325	-0.0285	-0.0228	-0.0562	38.1771	23.9084	-13.0402	0.5077	0.4704	0.4363	-0.5750
7.66	-9.4009	-0.0308	1.6668	-0.0259	-0.0272	-0.0585	38.4420	23.9412	-13.0571	0.5077	0.4703	0.4363	-0.5750
7.67	-9.4134	-0.0408	1.6776	-0.0095	-0.0155	-0.0599	38.4328	23.7759	-12.9588	0.5078	0.4704	0.4363	-0.5751
7.68	-9.4415	-0.0602	1.6261	-0.0185	-0.0078	-0.0617	38.5293	23.7093	-13.0092	0.5077	0.4703	0.4362	-0.5750
7.69	-9.4434	-0.0641	1.6328	-0.0079	-0.0242	-0.0520	38.5446	23.8361	-13.0614	0.5078	0.4703	0.4362	-0.5751
7.7	-9.4317	-0.0416	1.6574	-0.0035	-0.0301	-0.0456	38.1842	23.8363	-13.3381	0.5078	0.4703	0.4361	-0.5751
7.71	-9.4424	-0.0363	1.6529	-0.0063	-0.0215	-0.0381	38.2734	23.6819	-13.2163	0.5079	0.4703	0.4360	-0.5751
7.72	-9.4483	-0.0449	1.6395	-0.0018	-0.0259	-0.0423	38.6929	23.5252	-13.3064	0.5079	0.4703	0.4359	-0.5751
7.73	-9.4378	-0.0362	1.6446	-0.0008	-0.0208	-0.0366	38.5549	23.6838	-13.4343	0.5079	0.4704	0.4358	-0.5751
7.74	-9.4497	-0.0208	1.6352	0.0007	-0.0316	-0.0310	38.5669	23.4124	-13.1397	0.5080	0.4704	0.4356	-0.5752
7.75	-9.4670	-0.0161	1.6449	0.0076	-0.0277	-0.0336	38.6845	23.6539	-13.1029	0.5080	0.4705	0.4354	-0.5752
7.76	-9.4667	0.0242	1.6352	0.0182	-0.0389	-0.0294	38.2391	23.7287	-13.2491	0.5082	0.4706	0.4353	-0.5753
7.77	-9.4747	0.0612	1.6748	0.0152	-0.0398	-0.0313	38.5250	23.6123	-13.1885	0.5082	0.4706	0.4350	-0.5753
7.78	-9.4885	0.0856	1.6639	0.0192	-0.0356	-0.0313	38.6295	23.6612	-13.2905	0.5083	0.4707	0.4348	-0.5755
7.79	-9.4851	0.0944	1.6631	0.0245	-0.0439	-0.0348	38.2867	23.6224	-13.3228	0.5083	0.4707	0.4345	-0.5755
7.8	-9.4696	0.1087	1.6803	0.0212	-0.0452	-0.0325	38.5326	23.7755	-13.4132	0.5084	0.4708	0.4343	-0.5756
7.81	-9.4527	0.1258	1.6911	0.0193	-0.0438	-0.0418	38.8748	23.8607	-13.0022	0.5084	0.4708	0.4341	-0.5757
7.82	-9.4425	0.1651	1.6826	0.0231	-0.0460	-0.0434	38.9108	24.0317	-12.8866	0.5084	0.4708	0.4338	-0.5758
7.83	-9.4235	0.1816	1.7047	0.0033	-0.0520	-0.0438	38.7293	23.7871	-13.1956	0.5085	0.4708	0.4337	-0.5760
7.84	-9.4160	0.1752	1.7176	-0.0021	-0.0456	-0.0458	38.5262	23.7869	-13.3434	0.5086	0.4707	0.4335	-0.5760
7.85	-9.4342	0.1843	1.7293	-0.0078	-0.0525	-0.0421	38.1323	23.6709	-13.4010	0.5087	0.4707	0.4334	-0.5762
7.86	-9.4260	0.1790	1.7230	-0.0212	-0.0484	-0.0482	38.4556	23.7093	-13.5523	0.5088	0.4705	0.4332	-0.5761
7.87	-9.4106	0.1706	1.7516	-0.0265	-0.0526	-0.0439	38.4877	23.8619	-13.3854	0.5090	0.4704	0.4331	-0.5763
7.88	-9.4088	0.1919	1.7587	-0.0285	-0.0492	-0.0382	38.3712	23.7579	-13.5008	0.5091	0.4703	0.4330	-0.5763
7.89	-9.4061	0.1862	1.7549	-0.0287	-0.0530	-0.0391	38.1877	23.6949	-13.5417	0.5093	0.4702	0.4329	-0.5763
7.9	-9.4011	0.1727	1.7648	-0.0352	-0.0462	-0.0465	38.4741	23.8619	-13.4238	0.5095	0.4701	0.4329	-0.5763
7.91	-9.3947	0.1437	1.7491	-0.0341	-0.0439	-0.0532	38.7168	23.6229	-13.2830	0.5096	0.4699	0.4328	-0.5763
7.92	-9.3854	0.1312	1.7588	-0.0360	-0.0411	-0.0522	38.7131	23.5418	-13.4565	0.5097	0.4698	0.4328	-0.5764
7.93	-9.3832	0.1170	1.7586	-0.0311	-0.0395	-0.0546	38.8016	23.5456	-13.6510	0.5098	0.4696	0.4327	-0.5763
7.94	-9.3966	0.1035	1.7669	-0.0274	-0.0414	-0.0630	38.6292	23.5880	-13.3521	0.5099	0.4696	0.4327	-0.5765
7.95	-9.3909	0.1150	1.7622	-0.0322	-0.0371	-0.0582	38.5649	23.4675	-13.5145	0.5100	0.4694	0.4327	-0.5765
7.96	-9.3877	0.1099	1.7802	-0.0256	-0.0379	-0.0623	38.6608	23.5952	-13.4577	0.5101	0.4693	0.4327	-0.5765
7.97	-9.4004	0.1389	1.7817	-0.0282	-0.0307	-0.0647	38.7052	23.7632	-13.3166	0.5101	0.4692	0.4327	-0.5766
7.98	-9.4045	0.1608	1.7773	-0.0269	-0.0378	-0.0652	38.3847	23.5966	-13.3491	0.5102	0.4691	0.4327	-0.5766
7.99	-9.3952	0.1383	1.7844	-0.0319	-0.0351	-0.0686	38.5000	23.6923	-13.5276	0.5103	0.4689	0.4327	-0.5767
8	-9.3760	0.1431	1.7910	-0.0422	-0.0294	-0.0741	38.4164	23.8435	-13.5055	0.5103	0.4687	0.4327	-0.5767
8.01	-9.4028	0.1614	1.7964	-0.0400	-0.0243	-0.0776	38.3124	23.6748	-13.5651	0.5104	0.4686	0.4328	-0.5768
8.02	-9.4068	0.1572	1.7588	-0.0456	-0.0212	-0.0744	38.6083	23.6767	-13.5818	0.5104	0.4685	0.4329	-0.5767
8.03	-9.3801	0.1418	1.7893	-0.0493	-0.0289	-0.0761	38.5376	23.7473	-13.4978	0.5105	0.4683	0.4330	-0.5768
8.04	-9.3975	0.1187	1.7868	-0.0504	-0.0213	-0.0801	38.3706	23.7271	-13.6129	0.5105	0.4681	0.4331	-0.5768
8.05	-9.4228	0.0866	1.7536	-0.0542	-0.0136	-0.0715	38.4682	23.8217	-13.5388	0.5105	0.4680	0.4333	-0.5768
8.06	-9.4176	0.0562	1.7756	-0.0549	-0.0249	-0.0792	38.4458	23.6767	-13.6131	0.5106	0.4678	0.4334	-0.5768
8.07	-9.4221	0.0332	1.7743	-0.0530	-0.0183	-0.0726	38.0966	23.8250	-13.3933	0.5106	0.4676	0.4335	-0.5767
8.08	-9.4099	0.0195	1.7521	-0.0515	-0.0201	-0.0673	38.2666	23.8170	-13.5639	0.5108	0.4675	0.4337	-0.5768
8.09	-9.3950	-0.0077	1.7660	-0.0495	-0.0202	-0.0774	38.5107	23.6713	-13.4975	0.5108	0.4673	0.4338	-0.5767
8.1	-9.3934	-0.0278	1.7485	-0.0379	-0.0141	-0.0723	38.8820	23.8532	-13.5502	0.5108	0.4672	0.4339	-0.5767
8.11	-9.3914	-0.0394	1.7464	-0.0305	-0.0174	-0.0702	38.3347	23.6249	-13.4795	0.5108	0.4671	0.4339	-0.5767
8.12	-9.4003	-0.0422	1.7561	-0.0286	-0.0155	-0.0687	38.4931	23.4395	-13.7041	0.5108	0.4670	0.4340	-0.5767
8.13	-9.4211	-0.0266	1.7434	-0.0245	-0.0135	-0.0705	38.7299	23.8025	-13.7710	0.5108	0.4670	0.4340	-0.5768
8.14	-9.4282	-0.0199	1.7467	-0.0173	-0.0119	-0.0674	38.3809	23.8299	-13.3872	0.5108	0.4669	0.4340	-0.5768
8.15	-9.4334	-0.0064	1.7758	-0.0087	-0.0147	-0.0639	38.3360	23.7958	-13.4656	0.5108	0.4669	0.4341	-0.5768
8.16	-9.4418	0.0082	1.7501	-0.0098	-0.0189	-0.0621	38.2984	23.8541	-13.5289	0.5107	0.4669	0.4340	-0.5769
8.17	-9.4279	0.0141	1.7475	-0.0114	-0.0276	-0.0638	38.3813	23.7177	-13.3193	0.5108	0.4668	0.4340	-0.5770
8.18	-9.4012	0.0112	1.7775	-0.0040	-0.0319	-0.0621	38.5036	23.8365	-13.4421	0.5107	0.4667	0.4339	-0.5770
8.19	-9.4139	0.0132	1.7702	-0.0000	-0.0168	-0.0642	38.5082	23.7720	-13.3119	0.5107	0.4668	0.4339	-0.5771
8.2	-9.4212	0.0293	1.7614	-0.0025	-0.0216	-0.0586	38.1557	23.6207	-13.7118	0.5107	0.4668	0.4338	-0.5772
8.21	-9.4216	0.0289	1.7830	-0.0014	-0.0165	-0.0561	38.4839	23.8499	-13.6200	0.5107	0.4668	0.4338	-0.5772
8.22	-9.3727	0.0143	1.7716	-0.0023	-0.0188	-0.0573	38.5048	23.7145	-13.6395	0.5107	0.4668	0.4337	-0.5772
8.23	-9.3730	0.0246	1.8070	-0.0011	-0.0141	-0.0570	38.2715	23.8400	-13.5477	0.5107	0.4668	0.4336	-0.5773
8.24	-9.4168	0.0532	1.7652	-0.0024	-0.0016	-0.0529	38.5421	23.8115	-13.6282	0.5106	0.4669	0.4336	-0.5773
8.25	-9.4149	0.0461	1.7661	0.0006	-0.0236	-0.0626	38.3951	23.8059	-13.7580	0.5106	0.4668	0.4335	-0.5773
8.26	-9.3978	0.0312	1.7908	-0.0044	-0.0279	-0.0607	38.4225	23.8385	-13.5774	0.5106	0.4669	0.4335	-0.5775
8.27	-9.3838	0.0030	1.7801	-0.0043	-0.0209	-0.0617	38.2495	23.7639	-13.4855	0.5106	0.4668	0.4334	-0.5775
8.28	-9.4171	-0.0117	1.7925	0.0007	-0.0150	-0.0638	38.4977	23.9926	-13.6476	0.5106	0.4669	0.4334	-0.5776
8.29	-9.4567	0.0179	1.7849	-0.0028	-0.0057	-0.0612	38.4884	23.8297	-13.4051	0.5105	0.4668	0.4334	-0.5776
8.3	-9.4485	0.0256	1.7839	-0.0005	-0.0282	-0.0654	38.6536	23.4486	-13.4663	0.5105	0.4668	0.4333	-0.5777
8.31	-9.4075	0.0111	1.8060	-0.0021	-0.0245	-0.0696	39.0215	23.6945	-13.5002	0.5104	0.4668	0.4333	-0.5778
8.32	-9.3865	-0.0326	1.7870	-0.0101	-0.0200	-0.0589	39.0695	23.8222	-13.3083	0.5104	0.4667	0.4332	-0.5778
8.33	-9.3718	-0.0316	1.7810	-0.0060	-0.0192	-0.0492	38.7710	23.7608	-13.5244	0.5105	0.4668	0.4332	-0.5779
8.34	-9.3545	0.0153	1.7847	-0.0068	-0.0128	-0.0439	38.5594	23.6086	-13.6742	0.5105	0.4668	0.4331	-0.5779
8.35	-9.3678	0.0402	1.7799	-0.0086	-0.0009	-0.0494	38.2457	23.8309	-13.6692	0.5105	0.4669	0.4331	-0.5779
8.36	-9.4053	0.0468	1.7600	-0.0055	0.0079	-0.0481	38.2901	23.6960	-13.4810	0.5104	0.4669	0.4331	-0.5778
8.37	-9.4318	0.0304	1.7402	-0.0066	-0.0014	-0.0546	38.2275	23.6550	-13.7446	0.5104	0.4670	0.4331	-0.5778
8.38	-9.3993	0.0167	1.7365	-0.0147	-0.0151	-0.0591	38.2293	24.0244	-13.4905	0.5104	0.4670	0.4331	-0.5778
8.39	-9.3801	0.0143	1.7680	-0.0139	-0.0142	-0.0629	38.5345	23.9561	-13.5903	0.5104	0.4670	0.4331	-0.5778
8.4	-9.3946	0.0378	1.7430	-0.0102	-0.0076	-0.0503	38.1014	23.9948	-13.7241	0.5104	0.4670	0.4331	-0.5778
8.41	-9.4074	0.0748	1.7506	-0.0236	-0.0115	-0.0578	38.1289	23.8337	-13.5408	0.5104	0.4670	0.4331	-0.5778
8.42	-9.4164	0.0732	1.7597	-0.0277	-0.0053	-0.0725	38.2060	23.9877	-13.7188	0.5104	0.4669	0.4332	-0.5778
8.43	-9.4179	0.0717	1.7685	-0.0274	-0.0090	-0.0641	38.1701	23.8914	-13.5957	0.5103	0.4668	0.4332	-0.5778
8.44	-9.4335	0.0730	1.7784	-0.0316	-0.0048	-0.0626	38.0839	23.8873	-13.5184	0.5104	0.4669	0.4333	-0.5778
8.45	-9.4561	0.0444	1.7622	-0.0370	-0.0059	-0.0614	38.1045	23.8842	-13.6289	0.5104	0.4668	0.4334	-0.5777
8.46	-9.4441	0.0252	1.7665	-0.0514	-0.0149	-0.0565	38.3407	23.6382	-13.6360	0.5105	0.4667	0.4335	-0.5777
8.47	-9.4307	0.0130	1.7793	-0.0538	-0.0134	-0.0599	38.5404	23.5291	-13.8362	0.5106	0.4666	0.4336	-0.5776
8.48	-9.4301	-0.0148	1.7560	-0.0543	-0.0102	-0.0583	38.6921	23.6674	-13.5825	0.5107	0.4665	0.4337	-0.5775
8.49	-9.4380	-0.0467	1.7455	-0.0553	-0.0110	-0.0580	38.4741	23.7902	-13.6846	0.5108	0.4664	0.4338	-0.5775
8.5	-9.3811	-0.0610	1.7236	-0.0556	-0.0184	-0.0538	38.5177	23.8090	-13.6786	0.5108	0.4662	0.4339	-0.5773
8.51	-9.3688	-0.0410	1.7951	-0.0459	-0.0177	-0.0453	38.5466	23.8061	-13.6367	0.5110	0.4662	0.4340	-0.5773
8.52	-9.5020	-0.0261	1.7759	-0.0443	0.0051	-0.0501	38.2504	23.7980	-13.6438	0.5110	0.4661	0.4340	-0.5772
8.53	-9.5001	-0.0369	1.6908	-0.0558	-0.0181	-0.0499	38.2959	23.8154	-13.6671	0.5112	0.4661	0.4342	-0.5771
8.54	-9.3903	-0.0523	1.7987	-0.0470	-0.0504	-0.0557	38.2414	23.7852	-13.6907	0.5113	0.4658	0.4341	-0.5771
8.55	-9.3869	-0.0962	1.8048	-0.0306	-0.0220	-0.0548	38.3175	23.7201	-13.6220	0.5114	0.4657	0.4341	-0.5771
8.56	-9.4473	-0.0968	1.7318	-0.0290	-0.0098	-0.0468	38.5297	23.8641	-13.6487	0.5115	0.4657	0.4342	-0.5771
8.57	-9.4028	-0.0581	1.7644	-0.0242	-0.0317	-0.0442	38.2634	23.9844	-13.3390	0.5115	0.4656	0.4341	-0.5770
8.58	-9.3856	-0.0209	1.8319	-0.0249	-0.0235	-0.0431	38.1775	24.0640	-13.6944	0.5117	0.4657	0.4341	-0.5771
8.59	-9.4263	0.0023	1.7878	-0.0273	-0.0042	-0.0444	38.3201	23.8181	-13.8081	0.5117	0.4656	0.4341	-0.5770
8.6	-9.4178	0.0136	1.7798	-0.0143	-0.0191	-0.0449	38.1855	23.7651	-13.5144	0.5118	0.4657	0.4341	-0.5770
8.61	-9.3625	0.0026	1.8202	-0.0174	-0.0387	-0.0446	38.1790	24.0069	-13.5898	0.5118	0.4655	0.4339	-0.5769
8.62	-9.3540	0.0054	1.8290	-0.0058	-0.0213	-0.0428	38.2923	23.9364	-13.6389	0.5119	0.4656	0.4339	-0.5770
8.63	-9.3712	0.0249	1.8144	-0.0116	-0.0051	-0.0487	38.2527	24.0941	-13.8996	0.5119	0.4656	0.4338	-0.5770
8.64	-9.3674	0.0293	1.8128	-0.0063	-0.0058	-0.0442	38.0414	24.1303	-13.5138	0.5119	0.4657	0.4338	-0.5769
8.65	-9.3577	0.0267	1.8287	-0.0010	-0.0144	-0.0489	38.3412	23.8428	-13.6064	0.5119	0.4657	0.4337	-0.5770
8.66	-9.3723	0.0387	1.8189	-0.0028	-0.0008	-0.0474	38.4385	23.6496	-13.7348	0.5119	0.4658	0.4337	-0.5770
8.67	-9.3955	0.0445	1.8106	-0.0010	0.0122	-0.0439	38.5495	23.6562	-13.6390	0.5119	0.4659	0.4337	-0.5769
8.68	-9.4161	0.0485	1.7994	-0.0073	-0.0025	-0.0485	38.3479	23.8492	-13.8375	0.5118	0.4660	0.4336	-0.5768
8.69	-9.4205	0.0433	1.7922	-0.0028	-0.0061	-0.0476	38.3934	23.5420	-13.5959	0.5119	0.4661	0.4336	-0.5769
8.7	-9.4104	0.0314	1.7962	-0.0038	-0.0066	-0.0505	38.5687	23.7569	-13.7075	0.5118	0.4661	0.4336	-0.5769
8.71	-9.4159	0.0234	1.8067	-0.0039	-0.0106	-0.0526	38.3161	23.8050	-13.7644	0.5118	0.4661	0.4335	-0.5769
8.72	-9.4160	0.0136	1.7846	-0.0012	-0.0072	-0.0442	38.3944	23.9119	-13.5581	0.5118	0.4662	0.4335	-0.5769
8.73	-9.3931	0.0105	1.7865	-0.0025	-0.0142	-0.0420	38.3168	23.7250	-13.6351	0.5118	0.4663	0.4334	-0.5769
8.74	-9.3891	0.0258	1.8189	-0.0021	-0.0160	-0.0409	38.2455	23.7828	-13.7573	0.5119	0.4663	0.4333	-0.5769
8.75	-9.4061	0.0470	1.7778	-0.0033	0.0028	-0.0405	38.3520	23.7318	-13.4616	0.5118	0.4664	0.4332	-0.5768
8.76	-9.3981	0.0655	1.7714	-0.0017	-0.0099	-0.0423	38.3806	23.7129	-13.8865	0.5119	0.4665	0.4332	-0.5769
8.77	-9.3701	0.0848	1.8020	-0.0025	-0.0073	-0.0445	38.1563	23.6949	-13.7803	0.5119	0.4665	0.4331	-0.5768
8.78	-9.3946	0.1064	1.7983	0.0003	0.0068	-0.0421	38.0594	23.8038	-13.4352	0.5119	0.4667	0.4331	-0.5769
8.79	-9.4129	0.1057	1.7734	-0.0028	0.0039	-0.0470	38.1888	23.7122	-13.6553	0.5118	0.4667	0.4330	-0.5767
8.8	-9.3993	0.1163	1.7932	-0.0016	-0.0036	-0.0492	38.3127	23.6119	-13.6620	0.5118	0.4668	0.4330	-0.5768
8.81	-9.3827	0.1292	1.7930	-0.0041	-0.0036	-0.0472	38.7593	23.9913	-13.3721	0.5118	0.4669	0.4330	-0.5768
8.82	-9.3738	0.1279	1.7789	0.0008	0.0043	-0.0451	38.9180	23.9726	-13.2640	0.5117	0.4669	0.4329	-0.5767
8.83	-9.3781	0.1433	1.7865	0.0059	0.0075	-0.0539	38.6666	23.9509	-13.5988	0.5117	0.4671	0.4330	-0.5768
8.84	-9.4150	0.1651	1.7993	-0.0058	0.0046	-0.0422	38.3203	23.7579	-13.6440	0.5116	0.4672	0.4329	-0.5767
8.85	-9.4348	0.1713	1.7825	-0.0087	0.0094	-0.0502	38.2370	23.6434	-13.6750	0.5116	0.4673	0.4329	-0.5767
8.86	-9.4228	0.1547	1.7917	-0.0226	-0.0030	-0.0567	38.4184	23.6430	-13.7150	0.5116	0.4672	0.4329	-0.5766
8.87	-9.4251	0.1230	1.8032	-0.0286	-0.0074	-0.0545	38.4171	23.4435	-13.4661	0.5116	0.4673	0.4330	-0.5766
8.88	-9.4438	0.1148	1.7830	-0.0303	-0.0029	-0.0571	38.5129	23.4455	-13.5056	0.5116	0.4672	0.4331	-0.5765
8.89	-9.4212	0.1010	1.7827	-0.0316	-0.0139	-0.0571	38.4790	23.6231	-13.6006	0.5117	0.4672	0.4331	-0.5765
8.9	-9.3914	0.0756	1.8009	-0.0317	-0.0118	-0.0578	38.5003	23.6558	-13.4980	0.5117	0.4671	0.4332	-0.5765
8.91	-9.3832	0.0644	1.7913	-0.0294	-0.0090	-0.0579	38.2130	23.5160	-13.5508	0.5117	0.4671	0.4332	-0.5764
8.92	-9.3825	0.0487	1.7765	-0.0282	-0.0052	-0.0535	38.2714	23.5937	-13.8341	0.5118	0.4671	0.4333	-0.5764
8.93	-9.3927	0.0382	1.7786	-0.0278	-0.0045	-0.0575	38.4125	23.8480	-13.6930	0.5118	0.4670	0.4333	-0.5763
8.94	-9.4014	0.0534	1.7681	-0.0288	0.0002	-0.0593	38.5014	23.5721	-13.4772	0.5118	0.4670	0.4334	-0.5763
8.95	-9.4061	0.0593	1.7550	-0.0252	-0.0005	-0.0608	38.3236	23.5957	-13.5296	0.5118	0.4670	0.4334	-0.5763
8.96	-9.4089	0.0465	1.7517	-0.0279	0.0012	-0.0637	38.3081	23.6635	-13.4986	0.5118	0.4670	0.4335	-0.5763
8.97	-9.4136	0.0601	1.7546	-0.0279	0.0047	-0.0616	38.3134	23.6321	-13.5340	0.5118	0.4670	0.4336	-0.5762
8.98	-9.4267	0.0657	1.7415	-0.0280	0.0090	-0.0648	38.3117	23.7680	-13.4782	0.5117	0.4670	0.4337	-0.5761
8.99	-9.4294	0.0629	1.7343	-0.0297	-0.0022	-0.0571	38.3138	23.6967	-13.4025	0.5117	0.4670	0.4338	-0.5761
9	-9.4221	0.0602	1.7398	-0.0273	-0.0013	-0.0622	38.3116	23.8359	-13.4424	0.5117	0.4669	0.4338	-0.5760
9.01	-9.4150	0.0513	1.7467	-0.0287	0.0012	-0.0692	38.3098	23.7029	-13.3016	0.5117	0.4670	0.4340	-0.5761
9.02	-9.4280	0.0483	1.7337	-0.0329	-0.0019	-0.0589	38.4878	23.9136	-13.6758	0.5117	0.4669	0.4340	-0.5760
9.03	-9.4350	0.0316	1.7307	-0.0246	-0.0086	-0.0600	38.7039	23.5827	-13.4180	0.5118	0.4669	0.4341	-0.5760
9.04	-9.4272	0.0450	1.7250	-0.0269	-0.0056	-0.0588	38.5535	23.5468	-13.5135	0.5117	0.4668	0.4341	-0.5759
9.05	-9.4280	0.0527	1.7278	-0.0280	-0.0061	-0.0552	38.6050	23.6579	-13.6190	0.5118	0.4668	0.4342	-0.5759
9.06	-9.4558	0.0291	1.7245	-0.0273	-0.0024	-0.0561	38.5156	23.3096	-13.6123	0.5118	0.4668	0.4342	-0.5759
9.07	-9.4767	0.0298	1.7094	-0.0286	-0.0032	-0.0600	38.4749	23.5633	-13.4994	0.5118	0.4668	0.4342	-0.5758
9.08	-9.4873	0.0334	1.7263	-0.0267	-0.0124	-0.0535	38.5005	23.6480	-13.6364	0.5119	0.4668	0.4343	-0.5759
9.09	-9.4794	0.0286	1.7185	-0.0301	-0.0193	-0.0552	38.3468	23.5177	-13.6904	0.5119	0.4667	0.4343	-0.5758
9.1	-9.4494	0.0277	1.7326	-0.0274	-0.0227	-0.0537	38.4939	23.6159	-13.5175	0.5120	0.4667	0.4343	-0.5758
9.11	-9.4151	0.0322	1.7538	-0.0282	-0.0323	-0.0514	38.4855	23.7485	-13.4186	0.5120	0.4665	0.4342	-0.5758
9.12	-9.4067	0.0359	1.7589	-0.0259	-0.0273	-0.0554	38.3931	23.8232	-13.4332	0.5121	0.4665	0.4343	-0.5758
9.13	-9.4020	0.0389	1.7695	-0.0275	-0.0210	-0.0576	38.3816	23.6622	-13.5674	0.5122	0.4664	0.4343	-0.5758
9.14	-9.3965	0.0561	1.7743	-0.0244	-0.0112	-0.0557	38.1849	23.6126	-13.4111	0.5122	0.4664	0.4343	-0.5758
9.15	-9.3756	0.0532	1.7867	-0.0202	-0.0182	-0.0600	38.4376	23.7756	-13.3414	0.5122	0.4663	0.4343	-0.5758
9.16	-9.3938	0.0522	1.7841	-0.0142	-0.0073	-0.0604	38.5151	23.7977	-13.4360	0.5122	0.4663	0.4343	-0.5758
9.17	-9.4170	0.0703	1.7723	-0.0189	-0.0106	-0.0610	38.4415	23.7063	-13.6721	0.5122	0.4663	0.4343	-0.5759
9.18	-9.4227	0.0885	1.7932	-0.0141	-0.0194	-0.0593	38.2912	23.7429	-13.7164	0.5122	0.4662	0.4343	-0.5758
9.19	-9.4131	0.0799	1.8010	-0.0236	-0.0132	-0.0637	38.3297	23.6190	-13.4779	0.5122	0.4663	0.4343	-0.5759
9.2	-9.3868	0.0506	1.8080	-0.0256	-0.0188	-0.0598	38.1228	23.8173	-13.5149	0.5122	0.4662	0.4343	-0.5759
9.21	-9.4124	0.0504	1.8321	-0.0230	-0.0146	-0.0570	38.5325	23.8039	-13.5916	0.5123	0.4661	0.4344	-0.5759
9.22	-9.4516	0.0684	1.7971	-0.0286	-0.0119	-0.0563	38.7198	23.9353	-13.6145	0.5123	0.4661	0.4344	-0.5758
9.23	-9.4342	0.0526	1.7901	-0.0294	-0.0188	-0.0577	38.3720	23.6162	-13.6202	0.5123	0.4660	0.4344	-0.5758
9.24	-9.3862	0.0028	1.8122	-0.0363	-0.0273	-0.0549	38.4754	23.5604	-13.7453	0.5124	0.4660	0.4344	-0.5759
9.25	-9.3587	-0.0465	1.7853	-0.0288	-0.0180	-0.0524	38.4971	23.7859	-13.5872	0.5124	0.4659	0.4344	-0.5758
9.26	-9.3428	-0.0414	1.7890	-0.0271	-0.0150	-0.0507	38.3921	23.5689	-13.6223	0.5126	0.4659	0.4345	-0.5758
9.27	-9.3273	0.0002	1.7963	-0.0259	-0.0054	-0.0383	38.3793	23.4751	-13.5628	0.5126	0.4659	0.4344	-0.5757
9.28	-9.3389	0.0341	1.7906	-0.0184	-0.0060	-0.0364	38.2523	23.8653	-13.4763	0.5127	0.4660	0.4345	-0.5757
9.29	-9.3614	0.0536	1.7658	-0.0150	0.0084	-0.0443	38.5335	23.7042	-13.6387	0.5126	0.4660	0.4344	-0.5755
9.3	-9.3823	0.0556	1.7456	-0.0150	0.0099	-0.0498	38.6788	23.5301	-13.6827	0.5126	0.4661	0.4345	-0.5755
9.31	-9.3778	0.0639	1.7413	-0.0048	0.0081	-0.0494	38.7239	23.9317	-13.3570	0.5126	0.4662	0.4345	-0.5755
9.32	-9.3952	0.0832	1.7432	-0.0012	0.0181	-0.0544	39.0968	23.8190	-13.2959	0.5125	0.4663	0.4345	-0.5754
9.33	-9.4310	0.1059	1.7157	-0.0022	0.0210	-0.0583	38.6579	23.8581	-13.5315	0.5125	0.4664	0.4346	-0.5754
9.34	-9.4475	0.1263	1.7228	-0.0030	0.0167	-0.0617	38.3538	23.8173	-13.6891	0.5123	0.4665	0.4346	-0.5754
9.35	-9.4593	0.1361	1.7195	-0.0161	0.0089	-0.0651	38.1566	23.6977	-13.4644	0.5123	0.4666	0.4347	-0.5754
9.36	-9.4670	0.1288	1.7156	-0.0237	0.0077	-0.0701	38.2986	23.8235	-13.4134	0.5121	0.4665	0.4347	-0.5753
9.37	-9.4810	0.1138	1.7230	-0.0260	-0.0040	-0.0679	38.2880	23.6802	-13.7010	0.5122	0.4665	0.4349	-0.5753
9.38	-9.4851	0.1128	1.7021	-0.0315	-0.0039	-0.0606	38.1273	23.7465	-13.6781	0.5122	0.4665	0.4349	-0.5753
9.39	-9.4705	0.0782	1.7080	-0.0340	-0.0178	-0.0568	38.3772	23.6248	-13.5595	0.5122	0.4664	0.4349	-0.5752
9.4	-9.4621	0.0342	1.7172	-0.0430	-0.0128	-0.0618	38.4610	23.6335	-13.8700	0.5123	0.4663	0.4350	-0.5752
9.41	-9.4781	0.0028	1.7052	-0.0477	-0.0145	-0.0584	38.5049	23.6058	-13.7183	0.5123	0.4662	0.4351	-0.5751
9.42	-9.4666	-0.0195	1.6907	-0.0465	-0.0202	-0.0551	38.5580	23.4917	-13.7713	0.5125	0.4661	0.4352	-0.5751
9.43	-9.4511	-0.0462	1.7160	-0.0500	-0.0242	-0.0511	38.6422	23.6584	-13.8073	0.5125	0.4660	0.4352	-0.5750
9.44	-9.4141	-0.0611	1.6981	-0.0342	-0.0352	-0.0504	38.5288	23.5905	-13.7063	0.5127	0.4659	0.4352	-0.5751
9.45	-9.4673	-0.0199	1.7599	-0.0269	-0.0232	-0.0531	38.4415	23.5508	-13.8191	0.5128	0.4658	0.4352	-0.5750
9.46	-9.5100	-0.0248	1.6957	-0.0290	-0.0207	-0.0608	38.4744	23.7313	-13.5587	0.5128	0.4658	0.4353	-0.5751
9.47	-9.4377	-0.0466	1.7481	-0.0264	-0.0492	-0.0623	38.5463	23.7066	-13.8515	0.5129	0.4656	0.4352	-0.5751
9.48	-9.3747	-0.0740	1.7718	-0.0179	-0.0381	-0.0642	38.5814	23.8422	-13.8897	0.5129	0.4655	0.4351	-0.5752
9.49	-9.3812	-0.0841	1.7590	-0.0037	-0.0332	-0.0618	38.4773	23.7614	-13.7226	0.5130	0.4654	0.4351	-0.5753
9.5	-9.3947	-0.0441	1.7767	-0.0004	-0.0316	-0.0478	38.1415	23.9141	-13.6973	0.5129	0.4654	0.4349	-0.5753
9.51	-9.3788	0.0150	1.7954	-0.0061	-0.0327	-0.0390	38.4623	23.8562	-13.8480	0.5131	0.4654	0.4349	-0.5754
9.52	-9.3839	0.0580	1.8105	-0.0004	-0.0309	-0.0378	38.4076	23.6642	-13.8949	0.5131	0.4654	0.4347	-0.5754
9.53	-9.4045	0.0524	1.8036	-0.0082	-0.0275	-0.0409	38.1594	23.7809	-13.6791	0.5132	0.4655	0.4346	-0.5755
9.54	-9.4011	0.0414	1.8027	-0.0134	-0.0250	-0.0417	38.3096	23.9149	-13.8489	0.5132	0.4654	0.4345	-0.5754
9.55	-9.3780	0.0382	1.8162	-0.0169	-0.0269	-0.0487	38.3939	23.9624	-13.5105	0.5133	0.4654	0.4345	-0.5755
9.56	-9.3784	0.0395	1.8177	-0.0075	-0.0230	-0.0447	38.3694	23.7021	-13.6222	0.5134	0.4654	0.4344	-0.5755
9.57	-9.3971	0.0362	1.8005	-0.0069	-0.0231	-0.0517	38.3871	24.0346	-13.5205	0.5134	0.4654	0.4343	-0.5755
9.58	-9.3882	0.0377	1.8049	-0.0069	-0.0269	-0.0512	38.3655	23.6440	-13.6652	0.5135	0.4654	0.4343	-0.5756
9.59	-9.3722	0.0569	1.8230	0.0012	-0.0235	-0.0510	38.4053	23.5117	-13.6721	0.5134	0.4654	0.4341	-0.5756
9.6	-9.3722	0.0540	1.8081	-0.0060	-0.0186	-0.0578	38.5417	23.5533	-13.8664	0.5135	0.4654	0.4341	-0.5757
9.61	-9.3750	0.0403	1.8067	-0.0066	-0.0170	-0.0545	38.5823	23.5367	-13.8799	0.5134	0.4654	0.4340	-0.5756
9.62	-9.3815	0.0633	1.8141	-0.0067	-0.0093	-0.0517	38.3878	23.4224	-13.8335	0.5134	0.4654	0.4340	-0.5757
9.63	-9.3932	0.0752	1.8185	-0.0072	-0.0086	-0.0499	38.4328	23.4960	-13.8143	0.5134	0.4655	0.4340	-0.5757
9.64	-9.4093	0.0733	1.8096	-0.0109	-0.0107	-0.0462	38.4619	23.6235	-13.6469	0.5134	0.4655	0.4339	-0.5757
9.65	-9.4056	0.0631	1.8032	-0.0190	-0.0163	-0.0476	38.4987	23.6457	-13.9260	0.5135	0.4655	0.4339	-0.5757
9.66	-9.4058	0.0488	1.8222	-0.0188	-0.0120	-0.0421	38.3793	23.4615	-13.9159	0.5135	0.4655	0.4339	-0.5756
9.67	-9.4204	0.0435	1.7954	-0.0173	-0.0132	-0.0421	38.5093	23.9129	-13.9888	0.5136	0.4655	0.4339	-0.5756
9.68	-9.4208	0.0413	1.7921	-0.0128	-0.0067	-0.0423	38.5097	23.6934	-13.6820	0.5136	0.4655	0.4338	-0.5755
9.69	-9.4076	0.0561	1.7964	-0.0180	-0.0188	-0.0433	38.1167	23.6661	-13.7125	0.5137	0.4656	0.4338	-0.5755
9.7	-9.4046	0.0661	1.7985	-0.0038	-0.0175	-0.0480	38.2472	23.7925	-13.5744	0.5137	0.4656	0.4337	-0.5755
9.71	-9.4106	0.0749	1.7935	-0.0046	-0.0042	-0.0457	38.1536	23.7419	-13.7055	0.5137	0.4657	0.4337	-0.5755
9.72	-9.4134	0.0787	1.7888	-0.0170	-0.0084	-0.0461	38.3311	23.8400	-13.8171	0.5137	0.4657	0.4336	-0.5755
9.73	-9.4201	0.0729	1.7893	-0.0169	-0.0086	-0.0497	38.3572	23.6551	-13.7980	0.5137	0.4657	0.4336	-0.5755
9.74	-9.4241	0.0850	1.7868	-0.0132	-0.0089	-0.0472	38.2558	23.7681	-13.8177	0.5138	0.4657	0.4336	-0.5754
9.75	-9.4188	0.1051	1.7927	-0.0055	-0.0102	-0.0490	38.3174	23.5968	-13.7223	0.5137	0.4657	0.4335	-0.5754
9.76	-9.4386	0.1237	1.7873	-0.0182	-0.0103	-0.0398	38.1476	23.5611	-13.6837	0.5138	0.4658	0.4336	-0.5754
9.77	-9.4337	0.1284	1.7794	-0.0134	-0.0191	-0.0408	38.1303	23.7696	-13.7694	0.5139	0.4658	0.4335	-0.5754
9.78	-9.4112	0.1406	1.8033	-0.0173	-0.0280	-0.0454	38.5515	23.6433	-13.8136	0.5140	0.4658	0.4335	-0.5754
9.79	-9.3998	0.1389	1.8216	-0.0278	-0.0225	-0.0504	38.5637	23.5214	-13.7985	0.5140	0.4657	0.4334	-0.5753
9.8	-9.4052	0.1212	1.8001	-0.0270	-0.0133	-0.0483	38.5417	23.5664	-13.7830	0.5141	0.4657	0.4334	-0.5753
9.81	-9.3946	0.1070	1.8079	-0.0284	-0.0249	-0.0498	38.7728	23.6565	-13.6658	0.5142	0.4656	0.4334	-0.5753
9.82	-9.3825	0.1032	1.8277	-0.0273	-0.0243	-0.0478	38.9211	23.6142	-13.7588	0.5142	0.4656	0.4334	-0.5753
9.83	-9.3837	0.0994	1.8175	-0.0279	-0.0174	-0.0553	38.8107	23.6224	-13.4483	0.5143	0.4656	0.4334	-0.5753
9.84	-9.3698	0.0761	1.8233	-0.0273	-0.0115	-0.0546	38.5995	23.6017	-13.6893	0.5143	0.4655	0.4334	-0.5753
9.85	-9.3665	0.0737	1.8149	-0.0277	-0.0129	-0.0537	38.5098	23.5465	-13.6964	0.5144	0.4655	0.4335	-0.5753
9.86	-9.3866	0.0748	1.8167	-0.0272	-0.0081	-0.0573	38.4728	23.6401	-13.8972	0.5144	0.4654	0.4334	-0.5752
9.87	-9.4073	0.0739	1.8003	-0.0284	-0.0053	-0.0573	38.2332	23.6352	-13.7219	0.5144	0.4654	0.4335	-0.5752
9.88	-9.4029	0.0745	1.7982	-0.0253	-0.0022	-0.0588	38.4795	23.6502	-13.5713	0.5144	0.4654	0.4336	-0.5751
9.89	-9.4060	0.0734	1.8124	-0.0242	-0.0057	-0.0564	38.3879	23.8629	-13.5558	0.5144	0.4654	0.4336	-0.5751
9.9	-9.4202	0.0760	1.7930	-0.0264	-0.0053	-0.0611	38.2490	23.6639	-13.4774	0.5144	0.4654	0.4337	-0.5751
9.91	-9.4158	0.0745	1.7908	-0.0214	-0.0075	-0.0656	38.4548	23.4316	-13.5440	0.5144	0.4653	0.4337	-0.5751
9.92	-9.3999	0.0699	1.7940	-0.0222	-0.0052	-0.0569	38.6104	23.6662	-13.6704	0.5144	0.4653	0.4338	-0.5751
9.93	-9.3999	0.0540	1.7960	-0.0248	-0.0039	-0.0574	38.3544	23.9491	-13.7291	0.5144	0.4653	0.4338	-0.5750
9.94	-9.4118	0.0488	1.7762	-0.0213	-0.0090	-0.0581	38.2634	23.8172	-13.6592	0.5144	0.4653	0.4339	-0.5750
9.95	-9.4308	0.0534	1.7825	-0.0264	-0.0085	-0.0548	38.1365	23.7719	-13.7831	0.5144	0.4653	0.4339	-0.5750
9.96	-9.4337	0.0494	1.7823	-0.0273	-0.0142	-0.0540	38.3418	23.6955	-13.7208	0.5145	0.4653	0.4339	-0.5750
9.97	-9.4270	0.0482	1.7860	-0.0201	-0.0156	-0.0505	38.4786	23.5278	-13.5903	0.5145	0.4652	0.4339	-0.5749
9.98	-9.4210	0.0463	1.7856	-0.0206	-0.0202	-0.0470	38.4438	23.5191	-13.8340	0.5146	0.4652	0.4339	-0.5749
9.99	-9.4064	0.0472	1.7816	-0.0219	-0.0233	-0.0465	38.4654	23.4869	-13.7621	0.5147	0.4652	0.4338	-0.5749
10	-9.3941	0.0623	1.7917	-0.0214	-0.0211	-0.0505	38.4448	23.5804	-13.7961	0.5147	0.4651	0.4338	-0.5749
10.01	-9.3801	0.0692	1.8025	-0.0182	-0.0184	-0.0441	38.4717	23.5308	-13.6782	0.5148	0.4651	0.4338	-0.5749
10.02	-9.3879	0.0722	1.8133	-0.0152	-0.0206	-0.0546	38.4242	23.5625	-13.8371	0.5148	0.4651	0.4337	-0.5749
10.03	-9.3979	0.0726	1.8158	-0.0176	-0.0194	-0.0525	38.3146	23.8036	-13.7030	0.5149	0.4651	0.4337	-0.5750
10.04	-9.3798	0.0567	1.8080	-0.0077	-0.0159	-0.0540	38.5922	23.7414	-13.6878	0.5148	0.4650	0.4336	-0.5749
10.05	-9.3527	0.0429	1.8126	-0.0119	-0.0121	-0.0550	38.4943	23.5828	-13.7048	0.5148	0.4651	0.4337	-0.5750
10.06	-9.3549	0.0520	1.8157	-0.0107	-0.0070	-0.0547	38.4716	23.7240	-13.6720	0.5148	0.4651	0.4336	-0.5750
10.07	-9.3770	0.0672	1.7900	-0.0098	-0.0043	-0.0580	38.3534	23.6588	-13.7825	0.5148	0.4651	0.4336	-0.5749
10.08	-9.3677	0.0723	1.7891	-0.0157	-0.0078	-0.0559	38.4958	23.5124	-13.8826	0.5148	0.4652	0.4337	-0.5750
10.09	-9.3742	0.0777	1.8314	-0.0205	-0.0064	-0.0559	38.3912	23.8679	-13.9016	0.5148	0.4651	0.4337	-0.5749
10.1	-9.3986	0.0728	1.8277	-0.0174	0.0041	-0.0534	38.4072	23.6525	-13.8062	0.5148	0.4652	0.4337	-0.5749
10.11	-9.4461	0.0794	1.8475	-0.0226	0.0033	-0.0506	38.1364	23.6396	-13.7814	0.5147	0.4652	0.4337	-0.5748
10.12	-9.5138	0.0811	1.8463	-0.0225	0.0043	-0.0535	38.3923	23.5989	-13.7803	0.5148	0.4652	0.4338	-0.5748
10.13	-9.4861	0.0566	1.8079	-0.0285	-0.0135	-0.0476	38.5507	23.7543	-13.6285	0.5148	0.4652	0.4338	-0.5747
10.14	-9.4107	0.0060	1.8465	-0.0255	-0.0302	-0.0482	38.4112	23.7900	-13.5622	0.5149	0.4651	0.4338	-0.5747
10.15	-9.3482	-0.0323	1.8284	-0.0164	-0.0200	-0.0402	38.5689	23.4937	-13.8462	0.5150	0.4651	0.4338	-0.5747
10.16	-9.3095	-0.0145	1.8180	-0.0126	-0.0259	-0.0336	38.4208	23.5839	-13.6953	0.5151	0.4651	0.4336	-0.5747
10.17	-9.3067	0.0560	1.8456	-0.0001	-0.0101	-0.0321	38.2541	23.4929	-13.5589	0.5151	0.4652	0.4336	-0.5747
10.18	-9.3260	0.0969	1.8195	0.0024	0.0018	-0.0323	38.4603	23.3504	-13.6892	0.5151	0.4653	0.4334	-0.5746
10.19	-9.3281	0.0963	1.8122	0.0131	0.0007	-0.0361	38.5392	23.5059	-13.6063	0.5151	0.4655	0.4334	-0.5746
10.2	-9.3222	0.1022	1.8252	0.0208	0.0133	-0.0442	38.1274	23.7073	-13.5494	0.5150	0.4657	0.4333	-0.5746
10.21	-9.3610	0.1175	1.8073	0.0162	0.0198	-0.0536	38.2900	23.5102	-13.8012	0.5149	0.4659	0.4333	-0.5746
10.22	-9.3820	0.1312	1.7654	0.0216	0.0203	-0.0581	38.2725	23.6795	-13.6546	0.5147	0.4660	0.4333	-0.5746
10.23	-9.3748	0.1684	1.7848	0.0219	0.0157	-0.0607	38.2846	23.5680	-13.5311	0.5146	0.4662	0.4332	-0.5746
10.24	-9.3951	0.1874	1.7817	0.0230	0.0283	-0.0603	38.4706	23.6159	-13.7553	0.5144	0.4664	0.4332	-0.5746
10.25	-9.4176	0.1933	1.7484	0.0075	0.0277	-0.0655	38.3726	23.5607	-13.6727	0.5142	0.4665	0.4333	-0.5746
10.26	-9.4201	0.1936	1.7551	-0.0026	0.0210	-0.0689	38.2593	23.5530	-13.5831	0.5141	0.4667	0.4334	-0.5746
10.27	-9.4194	0.1851	1.7658	-0.0159	0.0173	-0.0653	38.4441	23.6561	-13.6506	0.5140	0.4667	0.4334	-0.5746
10.28	-9.4247	0.1717	1.7511	-0.0290	0.0234	-0.0608	38.4627	23.4182	-13.7000	0.5140	0.4668	0.4336	-0.5745
10.29	-9.4311	0.1559	1.7451	-0.0248	0.0237	-0.0667	38.4552	23.5749	-13.7088	0.5138	0.4668	0.4337	-0.5744
10.3	-9.4420	0.1363	1.7453	-0.0367	0.0240	-0.0624	38.3410	23.7551	-13.5203	0.5138	0.4668	0.4339	-0.5743
10.31	-9.4616	0.1115	1.7429	-0.0487	0.0179	-0.0546	38.7839	23.5314	-13.2145	0.5138	0.4668	0.4341	-0.5741
10.32	-9.4748	0.0946	1.7301	-0.0539	0.0168	-0.0582	38.8188	23.6476	-13.5310	0.5138	0.4668	0.4342	-0.5740
10.33	-9.4610	0.0690	1.7172	-0.0516	0.0114	-0.0569	38.7705	23.5245	-13.5861	0.5139	0.4668	0.4345	-0.5739
10.34	-9.4606	0.0352	1.7300	-0.0473	0.0032	-0.0566	38.5594	23.4418	-13.5723	0.5139	0.4667	0.4345	-0.5738
10.35	-9.4275	0.0191	1.6929	-0.0389	-0.0048	-0.0571	38.4599	23.5937	-13.8086	0.5140	0.4667	0.4347	-0.5737
10.36	-9.4574	0.0445	1.7620	-0.0309	-0.0019	-0.0589	38.6849	23.4520	-13.7054	0.5140	0.4666	0.4347	-0.5736
10.37	-9.5306	0.0375	1.7043	-0.0362	0.0169	-0.0659	38.4088	23.4921	-13.5395	0.5140	0.4667	0.4349	-0.5736
10.38	-9.4784	0.0245	1.7069	-0.0304	-0.0240	-0.0624	38.6753	23.7575	-13.5361	0.5140	0.4666	0.4349	-0.5736
10.39	-9.4033	0.0047	1.7753	-0.0334	-0.0141	-0.0689	38.5642	23.6686	-13.7089	0.5140	0.4665	0.4350	-0.5736
10.4	-9.4114	-0.0189	1.7538	-0.0281	-0.0138	-0.0651	38.4517	23.4304	-13.6874	0.5140	0.4664	0.4350	-0.5736
10.41	-9.4176	0.0143	1.7418	-0.0224	-0.0134	-0.0551	38.4709	23.6329	-13.6889	0.5141	0.4664	0.4350	-0.5736
10.42	-9.3908	0.0685	1.7993	-0.0253	-0.0250	-0.0526	38.4626	23.6296	-13.4943	0.5141	0.4663	0.4350	-0.5736
10.43	-9.4062	0.1044	1.8184	-0.0285	-0.0127	-0.0518	38.4756	23.7350	-13.5933	0.5141	0.4663	0.4350	-0.5735
10.44	-9.4133	0.0909	1.7797	-0.0271	-0.0092	-0.0522	38.3459	23.8225	-13.8485	0.5142	0.4663	0.4351	-0.5735
10.45	-9.3901	0.0522	1.8008	-0.0279	-0.0155	-0.0596	38.2590	23.8515	-13.5606	0.5142	0.4662	0.4351	-0.5735
10.46	-9.3840	0.0300	1.7976	-0.0274	-0.0024	-0.0521	38.3680	23.9491	-13.4934	0.5143	0.4662	0.4352	-0.5734
10.47	-9.4015	0.0236	1.7715	-0.0269	-0.0033	-0.0482	38.3950	23.7844	-13.6168	0.5143	0.4662	0.4352	-0.5733
10.48	-9.3844	0.0281	1.7806	-0.0269	-0.0060	-0.0548	38.3531	23.8512	-13.7457	0.5143	0.4662	0.4352	-0.5733
10.49	-9.3902	0.0348	1.7994	-0.0281	-0.0080	-0.0503	38.4233	23.7487	-13.6145	0.5144	0.4662	0.4353	-0.5733
10.5	-9.4125	0.0332	1.7730	-0.0274	0.0045	-0.0582	38.2395	23.7240	-13.6160	0.5143	0.4662	0.4353	-0.5732
10.51	-9.4084	0.0276	1.7645	-0.0200	-0.0094	-0.0552	38.4640	23.7310	-13.5729	0.5144	0.4662	0.4354	-0.5732
10.52	-9.3947	0.0194	1.7887	-0.0119	-0.0096	-0.0540	38.5187	23.5928	-13.6917	0.5144	0.4662	0.4353	-0.5732
10.53	-9.4038	0.0312	1.7840	-0.0163	0.0020	-0.0507	38.5157	23.4795	-13.8365	0.5144	0.4663	0.4354	-0.5732
10.54	-9.4303	0.0481	1.7769	-0.0096	0.0042	-0.0480	38.5664	23.4540	-13.6601	0.5143	0.4663	0.4354	-0.5731
10.55	-9.4403	0.0579	1.7695	-0.0075	-0.0064	-0.0563	38.4526	23.5989	-13.8268	0.5143	0.4663	0.4354	-0.5731
10.56	-9.4200	0.0728	1.7801	-0.0068	-0.0157	-0.0514	38.6069	23.6862	-13.5641	0.5143	0.4664	0.4353	-0.5731
10.57	-9.4067	0.0823	1.7805	-0.0047	-0.0093	-0.0465	38.5113	23.8490	-13.7267	0.5143	0.4664	0.4353	-0.5731
10.58	-9.4037	0.0861	1.7656	-0.0048	-0.0062	-0.0438	38.6973	23.6030	-13.5550	0.5144	0.4665	0.4353	-0.5731
10.59	-9.4047	0.1032	1.7681	-0.0134	-0.0067	-0.0505	38.7204	23.4146	-13.6731	0.5143	0.4665	0.4352	-0.5731
10.6	-9.4101	0.1214	1.7525	-0.0136	0.0016	-0.0480	38.5496	23.5498	-13.6271	0.5144	0.4666	0.4353	-0.5731
10.61	-9.4219	0.1144	1.7650	-0.0169	-0.0086	-0.0476	38.5638	23.6342	-13.5961	0.5143	0.4665	0.4352	-0.5730
10.62	-9.4528	0.1061	1.7694	-0.0170	-0.0016	-0.0553	38.4273	23.6728	-13.6998	0.5144	0.4666	0.4353	-0.5730
10.63	-9.4604	0.1070	1.7334	-0.0250	-0.0114	-0.0571	38.3440	23.9081	-13.5741	0.5144	0.4666	0.4353	-0.5730
10.64	-9.4290	0.1049	1.7480	-0.0281	-0.0097	-0.0557	38.1623	23.6232	-13.6272	0.5144	0.4665	0.4353	-0.5729
10.65	-9.4132	0.0977	1.7642	-0.0232	-0.0088	-0.0551	38.4189	23.6660	-13.5005	0.5144	0.4665	0.4353	-0.5729
10.66	-9.4278	0.1058	1.7455	-0.0291	-0.0032	-0.0550	38.5994	23.6032	-13.4964	0.5144	0.4665	0.4354	-0.5728
10.67	-9.4179	0.1120	1.7379	-0.0253	-0.0077	-0.0578	38.5071	23.7767	-13.5725	0.5145	0.4665	0.4355	-0.5728
10.68	-9.3972	0.1033	1.7660	-0.0275	-0.0152	-0.0572	38.2864	23.8505	-13.6985	0.5145	0.4664	0.4354	-0.5728
10.69	-9.4183	0.1000	1.7643	-0.0272	-0.0011	-0.0570	38.1694	23.5824	-13.7263	0.5145	0.4664	0.4355	-0.5728
10.7	-9.4265	0.1076	1.7352	-0.0200	-0.0115	-0.0576	38.4021	23.6891	-13.4419	0.5145	0.4664	0.4355	-0.5727
10.71	-9.4036	0.0899	1.7618	-0.0262	-0.0210	-0.0565	38.5592	23.5609	-13.5307	0.5146	0.4664	0.4356	-0.5728
10.72	-9.3940	0.0831	1.7638	-0.0282	-0.0131	-0.0539	38.5609	23.4654	-13.8266	0.5146	0.4663	0.4356	-0.5727
10.73	-9.4159	0.0964	1.7546	-0.0259	-0.0052	-0.0612	38.4115	23.5760	-13.7769	0.5146	0.4663	0.4356	-0.5727
10.74	-9.4261	0.0953	1.7408	-0.0263	-0.0103	-0.0583	38.5643	23.5468	-13.7536	0.5146	0.4662	0.4357	-0.5727
10.75	-9.4163	0.0873	1.7568	-0.0267	-0.0093	-0.0590	38.4592	23.5602	-13.5701	0.5146	0.4662	0.4357	-0.5726
10.76	-9.4019	0.0873	1.7516	-0.0292	-0.0071	-0.0598	38.4820	23.5528	-13.7288	0.5147	0.4662	0.4358	-0.5727
10.77	-9.4051	0.0687	1.7574	-0.0276	-0.0083	-0.0603	38.5724	23.5597	-13.6542	0.5147	0.4661	0.4358	-0.5726
10.78	-9.4141	0.0581	1.7416	-0.0291	-0.0084	-0.0551	38.5650	23.5567	-13.5220	0.5148	0.4661	0.4359	-0.5726
10.79	-9.4089	0.0646	1.7283	-0.0269	-0.0116	-0.0561	38.4555	23.5595	-13.4024	0.5147	0.4660	0.4359	-0.5725
10.8	-9.3830	0.0676	1.7470	-0.0278	-0.0136	-0.0535	38.3655	23.5522	-13.6693	0.5148	0.4660	0.4359	-0.5725
10.81	-9.4008	0.0832	1.7684	-0.0279	-0.0028	-0.0609	38.7378	23.9490	-13.5247	0.5148	0.4660	0.4360	-0.5725
10.82	-9.4225	0.0839	1.7254	-0.0274	0.0055	-0.0610	38.7323	24.0270	-13.5218	0.5147	0.4660	0.4360	-0.5724
10.83	-9.4108	0.0833	1.7524	-0.0288	-0.0137	-0.0576	38.6422	23.9126	-13.5084	0.5148	0.4660	0.4361	-0.5725
10.84	-9.4159	0.0985	1.7778	-0.0274	-0.0009	-0.0661	38.5457	23.6964	-13.6538	0.5148	0.4659	0.4362	-0.5724
10.85	-9.4315	0.1037	1.7465	-0.0282	0.0002	-0.0583	38.3430	23.7062	-13.6478	0.5148	0.4659	0.4363	-0.5724
10.86	-9.4195	0.0860	1.7492	-0.0270	-0.0072	-0.0661	38.3800	23.7452	-13.6298	0.5148	0.4658	0.4363	-0.5723
10.87	-9.4078	0.0782	1.7868	-0.0330	-0.0121	-0.0611	38.2953	23.5752	-13.4604	0.5148	0.4658	0.4364	-0.5723
10.88	-9.4321	0.0734	1.7712	-0.0410	-0.0050	-0.0595	38.4085	23.7162	-13.4791	0.5149	0.4658	0.4365	-0.5723
10.89	-9.4288	0.0442	1.7454	-0.0441	-0.0142	-0.0618	38.3604	23.6632	-13.5307	0.5149	0.4657	0.4366	-0.5722
10.9	-9.4176	0.0293	1.7771	-0.0456	-0.0118	-0.0588	38.4783	23.4211	-13.6290	0.5150	0.4656	0.4367	-0.5722
10.91	-9.4236	0.0054	1.7609	-0.0304	-0.0087	-0.0548	38.3478	23.6059	-13.5735	0.5150	0.4655	0.4367	-0.5721
10.92	-9.4352	0.0002	1.7439	-0.0315	-0.0117	-0.0542	38.6320	23.6492	-13.5332	0.5151	0.4655	0.4368	-0.5721
10.93	-9.4321	0.0047	1.7424	-0.0274	-0.0127	-0.0560	38.6587	23.6076	-13.8202	0.5151	0.4654	0.4367	-0.5720
10.94	-9.4254	-0.0018	1.7445	-0.0271	-0.0112	-0.0556	38.6293	23.6675	-13.9114	0.5152	0.4654	0.4368	-0.5720
10.95	-9.4200	-0.0047	1.7345	-0.0256	-0.0165	-0.0548	38.5120	23.6993	-13.6851	0.5152	0.4654	0.4368	-0.5720
10.96	-9.4152	0.0163	1.7540	-0.0258	-0.0193	-0.0544	38.3848	23.5810	-13.5581	0.5153	0.4653	0.4368	-0.5720
10.97	-9.4374	0.0340	1.7597	-0.0143	-0.0165	-0.0539	38.2845	23.7625	-13.8474	0.5153	0.4653	0.4368	-0.5720
10.98	-9.4535	0.0464	1.7475	-0.0069	-0.0209	-0.0528	38.5323	23.5375	-13.8971	0.5153	0.4653	0.4368	-0.5720
10.99	-9.4130	0.0549	1.7663	-0.0043	-0.0298	-0.0577	38.5854	23.6077	-13.8739	0.5153	0.4653	0.4367	-0.5721
11	-9.3818	0.0662	1.7954	-0.0010	-0.0239	-0.0560	38.4592	23.6304	-13.5829	0.5153	0.4652	0.4366	-0.5721
11.01	-9.4138	0.0837	1.7852	-0.0024	-0.0121	-0.0576	38.3800	23.6483	-13.6540	0.5153	0.4653	0.4366	-0.5722
11.02	-9.4177	0.0915	1.7717	-0.0124	-0.0148	-0.0638	38.5105	23.8654	-13.7037	0.5153	0.4652	0.4366	-0.5722
11.03	-9.3852	0.0868	1.8094	-0.0164	-0.0292	-0.0581	38.6657	23.5074	-13.7871	0.5154	0.4652	0.4366	-0.5723
11.04	-9.3692	0.0642	1.8187	-0.0241	-0.0165	-0.0654	38.5396	23.5838	-13.7895	0.5153	0.4651	0.4365	-0.5723
11.05	-9.3949	0.0625	1.8130	-0.0211	-0.0097	-0.0591	38.3476	23.5795	-13.7179	0.5154	0.4651	0.4366	-0.5723
11.06	-9.4470	0.0821	1.8335	-0.0182	-0.0153	-0.0584	38.3732	23.4248	-13.8009	0.5154	0.4651	0.4366	-0.5723
11.07	-9.4747	0.0743	1.8242	-0.0266	-0.0234	-0.0557	38.4539	23.7621	-13.5601	0.5154	0.4650	0.4365	-0.5723
11.08	-9.4313	0.0162	1.8167	-0.0274	-0.0393	-0.0505	38.5684	23.5010	-13.8609	0.5156	0.4650	0.4365	-0.5724
11.09	-9.3576	-0.0389	1.8186	-0.0288	-0.0347	-0.0452	38.5824	23.7050	-13.8897	0.5156	0.4648	0.4364	-0.5723
11.1	-9.3184	-0.0335	1.8253	-0.0226	-0.0333	-0.0338	38.6885	23.4807	-13.8986	0.5158	0.4648	0.4364	-0.5723
11.11	-9.3183	0.0066	1.8188	-0.0102	-0.0160	-0.0320	38.5338	23.4255	-13.8723	0.5158	0.4648	0.4362	-0.5722
11.12	-9.3285	0.0595	1.8140	-0.0065	-0.0019	-0.0315	38.5662	23.5982	-13.8031	0.5159	0.4650	0.4362	-0.5722
11.13	-9.3494	0.0828	1.8179	-0.0016	0.0060	-0.0390	38.3730	23.8028	-13.7549	0.5159	0.4651	0.4362	-0.5721
11.14	-9.3622	0.0884	1.7854	-0.0031	0.0037	-0.0483	38.4508	23.8041	-13.6866	0.5159	0.4652	0.4361	-0.5721
11.15	-9.3564	0.1089	1.7855	-0.0008	-0.0056	-0.0542	38.4918	23.8102	-13.8192	0.5158	0.4652	0.4361	-0.5721
11.16	-9.3731	0.1249	1.7935	-0.0014	0.0039	-0.0606	38.4339	23.7912	-13.8124	0.5158	0.4653	0.4361	-0.5721
11.17	-9.4025	0.1517	1.7695	-0.0024	0.0086	-0.0617	38.3443	23.6209	-13.7498	0.5157	0.4654	0.4361	-0.5721
11.18	-9.4214	0.1893	1.7543	-0.0021	0.0111	-0.0665	38.4746	23.7129	-13.6070	0.5155	0.4654	0.4361	-0.5720
11.19	-9.4221	0.1963	1.7602	-0.0013	0.0172	-0.0705	38.5715	23.6282	-13.6096	0.5155	0.4656	0.4362	-0.5721
11.2	-9.4349	0.1817	1.7536	-0.0213	0.0091	-0.0682	38.5573	23.6210	-13.6329	0.5154	0.4656	0.4363	-0.5721
11.21	-9.4563	0.1700	1.7429	-0.0274	0.0103	-0.0779	38.5211	23.6532	-13.5769	0.5153	0.4656	0.4364	-0.5721
11.22	-9.4430	0.1342	1.7370	-0.0338	-0.0047	-0.0668	38.2300	23.5898	-13.7650	0.5153	0.4655	0.4365	-0.5720
11.23	-9.4349	0.0949	1.7629	-0.0531	-0.0049	-0.0596	38.4859	23.7052	-13.7346	0.5154	0.4654	0.4366	-0.5719
11.24	-9.4516	0.0628	1.7481	-0.0533	-0.0009	-0.0581	38.5738	23.6347	-13.4036	0.5154	0.4654	0.4368	-0.5718
11.25	-9.4588	0.0347	1.7346	-0.0535	-0.0056	-0.0569	38.5629	23.7924	-13.7664	0.5155	0.4652	0.4369	-0.5717
11.26	-9.4456	0.0183	1.7466	-0.0538	-0.0109	-0.0509	38.5340	23.8080	-13.5613	0.5157	0.4652	0.4370	-0.5717
11.27	-9.4404	-0.0075	1.7482	-0.0468	-0.0104	-0.0526	38.3300	23.5274	-13.6903	0.5157	0.4651	0.4371	-0.5715
11.28	-9.4355	-0.0123	1.7355	-0.0314	-0.0053	-0.0535	38.6711	23.3168	-13.6817	0.5158	0.4651	0.4372	-0.5715
11.29	-9.4213	-0.0186	1.7327	-0.0315	-0.0177	-0.0572	38.5570	23.6760	-13.8292	0.5158	0.4650	0.4371	-0.5714
11.3	-9.3494	-0.0160	1.7324	-0.0314	-0.0169	-0.0530	38.2997	23.6781	-13.7474	0.5159	0.4650	0.4372	-0.5714
11.31	-9.4164	0.0113	1.8101	-0.0232	-0.0017	-0.0578	38.7275	23.5064	-13.3611	0.5159	0.4650	0.4372	-0.5714
11.32	-9.5011	0.0120	1.7001	-0.0140	0.0089	-0.0622	39.2625	23.8622	-13.5514	0.5158	0.4650	0.4373	-0.5713
11.33	-9.4317	0.0179	1.7441	-0.0157	-0.0283	-0.0604	38.8715	23.6983	-13.5194	0.5159	0.4650	0.4373	-0.5714
11.34	-9.3717	-0.0163	1.8217	-0.0182	-0.0210	-0.0680	38.5666	23.8238	-13.6968	0.5159	0.4649	0.4372	-0.5714
11.35	-9.4129	-0.0342	1.7634	-0.0104	-0.0040	-0.0536	38.2868	23.6007	-13.8136	0.5159	0.4650	0.4373	-0.5715
11.36	-9.4100	0.0137	1.7516	-0.0019	-0.0234	-0.0382	38.2666	23.5303	-13.7956	0.5158	0.4650	0.4371	-0.5714
11.37	-9.3684	0.0658	1.8180	-0.0026	-0.0341	-0.0377	38.5699	23.6797	-13.7584	0.5160	0.4650	0.4370	-0.5715
11.38	-9.3824	0.0958	1.8056	-0.0046	-0.0137	-0.0401	38.5008	23.6130	-13.5222	0.5160	0.4651	0.4369	-0.5715
11.39	-9.4029	0.0966	1.7780	-0.0111	-0.0063	-0.0417	38.4715	23.7269	-13.7364	0.5160	0.4651	0.4369	-0.5714
11.4	-9.3871	0.0873	1.7841	-0.0128	-0.0142	-0.0460	38.4617	23.7352	-13.6559	0.5161	0.4652	0.4368	-0.5714
