time	acceleration_x	acceleration_y	acceleration_z	gyroscope_x	gyroscope_y	gyroscope_z	magnetometer_x	magnetometer_y	magnetometer_z	quaternion_w	quaternion_x	quaternion_y	quaternion_z
0	-0.1801	-9.1925	-1.5906	0.0219	-0.0052	0.0092	5.9900	15.1502	6.1593	0.6232	-0.7342	0.2114	-0.1663
0.01	-0.1773	-9.1925	-1.5868	0.0143	-0.0065	0.0141	6.2572	15.0997	6.2977	0.6233	-0.7343	0.2114	-0.1664
0.02	-0.1758	-9.1906	-1.5867	0.0189	-0.0034	0.0102	6.1232	15.0701	6.2128	0.6233	-0.7343	0.2114	-0.1664
0.03	-0.1745	-9.1944	-1.5897	0.0185	-0.0089	0.0161	6.1661	15.1757	6.1519	0.6233	-0.7343	0.2115	-0.1664
0.04	-0.1752	-9.1917	-1.5860	0.0190	-0.0113	0.0134	6.2968	15.1757	6.1810	0.6232	-0.7342	0.2114	-0.1664
0.05	-0.1696	-9.1898	-1.5920	0.0219	-0.0097	0.0139	6.2655	15.2049	6.1644	0.6233	-0.7343	0.2114	-0.1664
0.06	-0.1707	-9.1885	-1.5957	0.0208	-0.0092	0.0118	6.2795	15.2786	6.1785	0.6233	-0.7343	0.2114	-0.1664
0.07	-0.1703	-9.1915	-1.5952	0.0215	-0.0076	0.0149	6.2757	15.2638	6.1604	0.6232	-0.7342	0.2114	-0.1664
0.08	-0.1731	-9.1911	-1.5825	0.0212	-0.0096	0.0122	6.1895	15.1688	6.1824	0.6233	-0.7343	0.2115	-0.1664
0.09	-0.1750	-9.1851	-1.5743	0.0207	-0.0098	0.0126	6.1824	15.0624	6.3017	0.6233	-0.7342	0.2114	-0.1664
0.1	-0.1797	-9.1876	-1.5754	0.0192	-0.0115	0.0117	6.0149	15.1407	6.1898	0.6233	-0.7343	0.2114	-0.1664
0.11	-0.1856	-9.1905	-1.5729	0.0214	-0.0152	0.0149	6.1149	15.3535	6.1448	0.6233	-0.7342	0.2114	-0.1664
0.12	-0.1901	-9.1928	-1.5636	0.0203	-0.0062	0.0135	6.2168	15.4470	6.1861	0.6233	-0.7343	0.2114	-0.1664
0.13	-0.1908	-9.1909	-1.5670	0.0173	-0.0031	0.0125	6.1875	15.0774	5.9761	0.6233	-0.7342	0.2114	-0.1664
0.14	-0.1941	-9.1870	-1.5660	0.0172	-0.0065	0.0183	6.2061	15.2197	6.4275	0.6233	-0.7342	0.2115	-0.1664
0.15	-0.1940	-9.1880	-1.5656	0.0156	-0.0076	0.0147	6.1534	15.4663	6.5160	0.6233	-0.7343	0.2115	-0.1664
0.16	-0.1919	-9.1903	-1.5620	0.0184	-0.0101	0.0132	6.4880	15.2749	6.3043	0.6233	-0.7342	0.2115	-0.1664
0.17	-0.1955	-9.1950	-1.5596	0.0157	-0.0044	0.0160	6.4329	15.3462	6.3800	0.6233	-0.7343	0.2115	-0.1664
0.18	-0.1920	-9.1936	-1.5615	0.0217	-0.0075	0.0153	6.2889	15.3651	6.1373	0.6232	-0.7342	0.2115	-0.1664
0.19	-0.1867	-9.1898	-1.5701	0.0201	-0.0104	0.0136	6.0579	15.7590	6.0996	0.6233	-0.7343	0.2115	-0.1664
0.2	-0.1864	-9.1844	-1.5783	0.0189	-0.0079	0.0144	6.0475	15.2825	6.1651	0.6233	-0.7342	0.2115	-0.1664
0.21	-0.1785	-9.1848	-1.5697	0.0183	-0.0086	0.0132	5.9546	15.3182	6.2892	0.6233	-0.7343	0.2116	-0.1664
0.22	-0.1750	-9.1913	-1.5787	0.0157	-0.0107	0.0148	6.1547	15.1653	6.4254	0.6232	-0.7342	0.2116	-0.1664
0.23	-0.1698	-9.1972	-1.5927	0.0201	-0.0104	0.0131	6.3013	15.1839	6.2357	0.6232	-0.7342	0.2116	-0.1664
0.24	-0.1699	-9.1947	-1.5945	0.0208	-0.0110	0.0107	6.1929	15.1254	6.0953	0.6233	-0.7343	0.2115	-0.1664
0.25	-0.1700	-9.1915	-1.5948	0.0217	-0.0064	0.0131	6.2106	15.0690	6.1652	0.6232	-0.7342	0.2115	-0.1664
0.26	-0.1700	-9.1887	-1.5960	0.0194	-0.0100	0.0160	6.2428	15.1108	6.2003	0.6233	-0.7343	0.2116	-0.1664
0.27	-0.1745	-9.1915	-1.5880	0.0179	-0.0123	0.0140	6.1135	14.9246	6.3006	0.6233	-0.7342	0.2116	-0.1664
0.28	-0.1723	-9.1898	-1.5901	0.0218	-0.0124	0.0129	6.0717	15.1710	6.2522	0.6233	-0.7343	0.2116	-0.1664
0.29	-0.1737	-9.1884	-1.5895	0.0227	-0.0117	0.0151	6.2460	15.1603	6.1232	0.6233	-0.7342	0.2115	-0.1663
0.3	-0.1762	-9.1909	-1.5816	0.0209	-0.0137	0.0139	6.0956	15.2041	6.3475	0.6233	-0.7342	0.2115	-0.1663
0.31	-0.1799	-9.1938	-1.5853	0.0186	-0.0098	0.0180	6.1546	15.2293	5.9427	0.6233	-0.7342	0.2116	-0.1663
0.32	-0.1821	-9.1856	-1.5844	0.0189	-0.0074	0.0137	6.1277	15.1272	6.3333	0.6233	-0.7342	0.2116	-0.1663
0.33	-0.1853	-9.1889	-1.5777	0.0197	-0.0097	0.0109	6.0381	15.2938	6.2803	0.6233	-0.7343	0.2116	-0.1663
0.34	-0.1858	-9.1919	-1.5791	0.0213	-0.0087	0.0153	5.9470	15.2144	6.2329	0.6233	-0.7342	0.2116	-0.1663
0.35	-0.1858	-9.1909	-1.5805	0.0216	-0.0091	0.0135	6.1988	15.3308	6.3123	0.6233	-0.7342	0.2116	-0.1663
0.36	-0.1835	-9.1895	-1.5824	0.0205	-0.0065	0.0131	5.8501	15.3294	5.9694	0.6233	-0.7341	0.2116	-0.1663
0.37	-0.1840	-9.1940	-1.5854	0.0195	-0.0064	0.0132	5.9554	15.2231	6.1100	0.6233	-0.7342	0.2116	-0.1664
0.38	-0.1868	-9.1847	-1.5807	0.0200	-0.0090	0.0165	6.0779	15.2607	6.0683	0.6233	-0.7342	0.2116	-0.1664
0.39	-0.1845	-9.1859	-1.5832	0.0171	-0.0112	0.0153	6.0808	15.2476	6.0835	0.6233	-0.7342	0.2116	-0.1663
0.4	-0.1869	-9.1879	-1.5863	0.0217	-0.0115	0.0139	5.8221	15.2566	6.3428	0.6233	-0.7342	0.2116	-0.1663
0.41	-0.1841	-9.1896	-1.5847	0.0210	-0.0110	0.0164	6.2475	15.1123	6.1543	0.6233	-0.7342	0.2116	-0.1663
0.42	-0.1841	-9.1886	-1.5842	0.0213	-0.0084	0.0135	6.3784	15.0997	6.1394	0.6234	-0.7342	0.2116	-0.1663
0.43	-0.1860	-9.1882	-1.5812	0.0213	-0.0088	0.0137	6.1897	15.3672	6.1233	0.6233	-0.7341	0.2116	-0.1663
0.44	-0.1831	-9.1949	-1.5840	0.0169	-0.0110	0.0165	6.1923	15.3005	6.2417	0.6234	-0.7342	0.2116	-0.1663
0.45	-0.1788	-9.1884	-1.5782	0.0201	-0.0097	0.0143	6.1346	15.0990	6.1899	0.6233	-0.7342	0.2116	-0.1663
0.46	-0.1773	-9.1883	-1.5735	0.0224	-0.0088	0.0159	6.0531	15.0618	6.0434	0.6234	-0.7342	0.2116	-0.1663
0.47	-0.1786	-9.1954	-1.5765	0.0216	-0.0155	0.0081	6.1635	15.2015	6.0423	0.6233	-0.7341	0.2116	-0.1663
0.48	-0.1813	-9.1919	-1.5791	0.0166	-0.0112	0.0121	6.1725	14.9992	6.1772	0.6234	-0.7342	0.2116	-0.1663
0.49	-0.1796	-9.1883	-1.5747	0.0159	-0.0106	0.0165	6.0166	15.0994	5.8977	0.6234	-0.7342	0.2116	-0.1663
0.5	-0.1833	-9.1881	-1.5787	0.0201	-0.0076	0.0098	6.0741	15.2640	6.1696	0.6233	-0.7341	0.2116	-0.1663
0.51	-0.1848	-9.1883	-1.5746	0.0192	-0.0066	0.0121	6.0581	15.2517	6.0742	0.6234	-0.7342	0.2116	-0.1663
0.52	-0.1879	-9.1884	-1.5770	0.0170	-0.0089	0.0122	6.0312	15.3541	5.9735	0.6233	-0.7342	0.2116	-0.1663
0.53	-0.1932	-9.1896	-1.5720	0.0179	-0.0066	0.0138	5.9319	15.3160	6.3018	0.6234	-0.7343	0.2116	-0.1663
0.54	-0.1906	-9.1870	-1.5722	0.0213	-0.0074	0.0098	6.0576	15.3351	6.4051	0.6233	-0.7341	0.2116	-0.1663
0.55	-0.1885	-9.1902	-1.5797	0.0166	-0.0095	0.0109	6.2608	15.2322	6.3498	0.6233	-0.7342	0.2116	-0.1663
0.56	-0.1888	-9.1934	-1.5847	0.0137	-0.0119	0.0133	6.1226	15.2662	6.1518	0.6233	-0.7342	0.2116	-0.1663
0.57	-0.1867	-9.1914	-1.5953	0.0156	-0.0106	0.0160	5.9293	15.2419	6.3204	0.6232	-0.7342	0.2116	-0.1663
0.58	-0.1835	-9.1902	-1.5927	0.0177	-0.0117	0.0147	6.0890	15.2539	6.3096	0.6233	-0.7343	0.2116	-0.1663
0.59	-0.1735	-9.1857	-1.5895	0.0219	-0.0159	0.0132	6.1152	15.3901	6.1485	0.6233	-0.7342	0.2116	-0.1663
0.6	-0.1761	-9.1898	-1.5913	0.0185	-0.0133	0.0139	5.9976	15.2022	6.1399	0.6233	-0.7343	0.2116	-0.1663
0.61	-0.1755	-9.1935	-1.5942	0.0136	-0.0069	0.0126	6.2523	15.0704	6.0434	0.6232	-0.7342	0.2116	-0.1662
0.62	-0.1697	-9.1893	-1.5876	0.0170	-0.0078	0.0139	6.1878	15.1943	6.0600	0.6233	-0.7343	0.2116	-0.1663
0.63	-0.1735	-9.1901	-1.5816	0.0170	-0.0137	0.0127	6.1187	14.9912	6.1837	0.6232	-0.7343	0.2116	-0.1662
0.64	-0.1730	-9.1907	-1.5872	0.0230	-0.0095	0.0090	6.1248	15.0727	6.0533	0.6232	-0.7343	0.2116	-0.1662
0.65	-0.1680	-9.1870	-1.5745	0.0208	-0.0083	0.0130	6.2989	15.1075	6.0315	0.6233	-0.7343	0.2116	-0.1663
0.66	-0.1682	-9.1842	-1.5726	0.0215	-0.0127	0.0148	6.6636	15.2062	6.4896	0.6233	-0.7343	0.2116	-0.1662
0.67	-0.1694	-9.1920	-1.5741	0.0177	-0.0159	0.0155	6.6350	15.4202	6.4178	0.6233	-0.7343	0.2116	-0.1662
0.68	-0.1715	-9.1869	-1.5607	0.0135	-0.0087	0.0088	6.2601	15.4166	6.0616	0.6232	-0.7342	0.2115	-0.1662
0.69	-0.1762	-9.1880	-1.5636	0.0188	-0.0108	0.0115	6.0813	15.6577	6.1838	0.6233	-0.7343	0.2116	-0.1662
0.7	-0.1818	-9.1937	-1.5686	0.0173	-0.0074	0.0137	5.9569	15.4462	6.2827	0.6232	-0.7343	0.2116	-0.1662
0.71	-0.1887	-9.1893	-1.5640	0.0114	-0.0049	0.0093	5.9416	15.2064	6.3872	0.6232	-0.7343	0.2116	-0.1662
0.72	-0.1937	-9.1827	-1.5659	0.0125	-0.0058	0.0115	6.0499	15.2413	6.1950	0.6232	-0.7343	0.2116	-0.1662
0.73	-0.1938	-9.1861	-1.5664	0.0155	-0.0093	0.0159	6.2648	15.2644	6.2278	0.6231	-0.7343	0.2116	-0.1662
0.74	-0.1935	-9.1902	-1.5736	0.0210	-0.0077	0.0100	6.0900	15.3398	6.3710	0.6232	-0.7344	0.2116	-0.1663
0.75	-0.1880	-9.1904	-1.5778	0.0163	0.0013	0.0139	5.9184	15.3130	6.3228	0.6231	-0.7343	0.2116	-0.1663
0.76	-0.1868	-9.1890	-1.5808	0.0154	-0.0073	0.0144	6.1746	15.3116	6.4232	0.6231	-0.7344	0.2117	-0.1663
0.77	-0.1844	-9.1881	-1.5782	0.0219	-0.0097	0.0147	6.1795	15.3675	6.3213	0.6231	-0.7343	0.2117	-0.1663
0.78	-0.1817	-9.1912	-1.5828	0.0225	-0.0109	0.0161	6.2835	15.4019	6.2867	0.6232	-0.7344	0.2117	-0.1663
0.79	-0.1803	-9.1899	-1.5925	0.0172	-0.0091	0.0138	6.1987	15.1103	6.1554	0.6231	-0.7343	0.2117	-0.1663
0.8	-0.1814	-9.1918	-1.6035	0.0145	-0.0078	0.0158	6.2211	15.1016	6.1575	0.6231	-0.7344	0.2117	-0.1663
0.81	-0.1802	-9.1901	-1.5981	0.0163	-0.0075	0.0129	6.3255	15.3602	6.2016	0.6231	-0.7344	0.2117	-0.1663
0.82	-0.1789	-9.1902	-1.6022	0.0182	-0.0127	0.0118	6.2127	15.2393	6.0431	0.6231	-0.7343	0.2117	-0.1663
0.83	-0.1784	-9.1859	-1.6015	0.0192	-0.0136	0.0141	6.0181	15.2438	6.2262	0.6231	-0.7344	0.2117	-0.1663
0.84	-0.1773	-9.1876	-1.5996	0.0148	-0.0087	0.0135	6.1822	15.2345	6.1653	0.6231	-0.7344	0.2117	-0.1662
0.85	-0.1780	-9.1951	-1.6010	0.0201	-0.0089	0.0175	6.2137	15.2637	6.0917	0.6231	-0.7344	0.2117	-0.1662
0.86	-0.1799	-9.1801	-1.5824	0.0223	-0.0102	0.0118	6.1950	15.1487	6.2877	0.6230	-0.7343	0.2117	-0.1662
0.87	-0.1780	-9.1895	-1.5894	0.0208	-0.0160	0.0121	6.1123	14.9629	6.1403	0.6231	-0.7344	0.2117	-0.1662
0.88	-0.1775	-9.1953	-1.5923	0.0223	-0.0099	0.0117	6.2883	15.1662	6.1702	0.6231	-0.7344	0.2117	-0.1662
0.89	-0.1802	-9.1813	-1.5770	0.0130	-0.0064	0.0122	6.2209	15.1441	6.2443	0.6231	-0.7344	0.2117	-0.1662
0.9	-0.1779	-9.1865	-1.5837	0.0183	-0.0072	0.0132	6.0910	15.2573	6.2631	0.6231	-0.7344	0.2117	-0.1662
0.91	-0.1839	-9.1919	-1.5835	0.0199	-0.0052	0.0166	6.1517	15.2362	5.9962	0.6231	-0.7344	0.2117	-0.1662
0.92	-0.1857	-9.1816	-1.5669	0.0177	-0.0094	0.0124	6.0578	15.2609	6.1912	0.6231	-0.7344	0.2117	-0.1662
0.93	-0.1828	-9.1861	-1.5768	0.0231	-0.0090	0.0111	6.0273	15.1543	6.0566	0.6230	-0.7343	0.2117	-0.1662
0.94	-0.1875	-9.1924	-1.5772	0.0192	-0.0084	0.0166	6.1535	15.1536	6.1108	0.6231	-0.7344	0.2117	-0.1662
0.95	-0.1878	-9.1895	-1.5774	0.0210	-0.0098	0.0142	6.2343	15.3128	6.3188	0.6231	-0.7344	0.2117	-0.1662
0.96	-0.1834	-9.1889	-1.5798	0.0211	-0.0132	0.0091	6.1163	15.3268	6.1424	0.6231	-0.7344	0.2117	-0.1662
0.97	-0.1808	-9.1870	-1.5802	0.0215	-0.0103	0.0146	6.2015	15.2563	6.1722	0.6231	-0.7344	0.2117	-0.1662
0.98	-0.1740	-9.1865	-1.5735	0.0215	-0.0091	0.0136	6.3218	15.2089	6.2751	0.6231	-0.7344	0.2117	-0.1662
0.99	-0.1741	-9.1886	-1.5735	0.0204	-0.0068	0.0143	6.3899	15.1594	6.0514	0.6231	-0.7344	0.2117	-0.1662
1	-0.1695	-9.1845	-1.5756	0.0158	-0.0095	0.0154	6.2832	15.1489	6.1972	0.6231	-0.7343	0.2117	-0.1662
1.01	-0.1716	-9.1913	-1.5724	0.0230	-0.0113	0.0124	6.2850	15.1929	6.0267	0.6231	-0.7344	0.2117	-0.1662
1.02	-0.1748	-9.1889	-1.5718	0.0184	-0.0127	0.0160	6.1511	15.2331	6.0257	0.6231	-0.7343	0.2117	-0.1662
1.03	-0.1748	-9.1883	-1.5721	0.0177	-0.0067	0.0128	6.1138	15.3274	6.0887	0.6232	-0.7344	0.2117	-0.1662
1.04	-0.1754	-9.1875	-1.5759	0.0192	-0.0089	0.0154	6.0577	15.2234	6.0824	0.6231	-0.7343	0.2117	-0.1662
1.05	-0.1799	-9.1876	-1.5729	0.0212	-0.0131	0.0159	6.0144	15.1652	6.0409	0.6231	-0.7344	0.2117	-0.1662
1.06	-0.1829	-9.1884	-1.5766	0.0202	-0.0107	0.0119	6.1105	15.0958	6.1764	0.6231	-0.7344	0.2117	-0.1662
1.07	-0.1825	-9.1895	-1.5785	0.0195	-0.0100	0.0157	6.1161	15.4205	6.0445	0.6231	-0.7343	0.2117	-0.1662
1.08	-0.1884	-9.1953	-1.5803	0.0197	-0.0032	0.0133	6.1521	15.2772	6.2370	0.6232	-0.7344	0.2118	-0.1662
1.09	-0.1830	-9.1866	-1.5806	0.0203	-0.0030	0.0113	6.0389	15.0264	6.1491	0.6231	-0.7343	0.2118	-0.1662
1.1	-0.1836	-9.1917	-1.5766	0.0189	-0.0064	0.0081	5.9884	15.2627	5.9290	0.6231	-0.7344	0.2118	-0.1663
1.11	-0.1864	-9.1859	-1.5799	0.0198	-0.0110	0.0129	6.0916	15.2336	6.0002	0.6231	-0.7343	0.2117	-0.1662
1.12	-0.1902	-9.1855	-1.5744	0.0195	-0.0081	0.0123	5.8968	15.2256	5.9003	0.6231	-0.7344	0.2118	-0.1663
1.13	-0.1937	-9.1903	-1.5724	0.0207	-0.0015	0.0131	5.9194	15.1284	6.1718	0.6231	-0.7343	0.2118	-0.1663
1.14	-0.1903	-9.1909	-1.5793	0.0197	-0.0037	0.0123	6.0244	15.1712	6.2212	0.6231	-0.7343	0.2118	-0.1663
1.15	-0.1944	-9.1915	-1.5804	0.0197	-0.0110	0.0153	6.2165	15.1426	6.3674	0.6231	-0.7344	0.2118	-0.1663
1.16	-0.1928	-9.1878	-1.5882	0.0211	-0.0112	0.0148	6.5588	15.4368	6.2055	0.6231	-0.7343	0.2118	-0.1663
1.17	-0.1831	-9.1865	-1.5846	0.0217	-0.0090	0.0157	6.4188	15.3816	6.1383	0.6231	-0.7343	0.2118	-0.1663
1.18	-0.1800	-9.1921	-1.5928	0.0212	-0.0150	0.0125	6.2380	15.2659	6.0394	0.6231	-0.7343	0.2118	-0.1663
1.19	-0.1771	-9.1917	-1.5971	0.0228	-0.0103	0.0124	6.3985	15.6314	6.0330	0.6232	-0.7343	0.2118	-0.1663
1.2	-0.1756	-9.1874	-1.5949	0.0167	-0.0089	0.0125	6.1290	15.2869	5.7375	0.6231	-0.7343	0.2118	-0.1663
1.21	-0.1729	-9.1922	-1.5974	0.0196	-0.0107	0.0140	6.1409	15.1098	5.9540	0.6231	-0.7343	0.2118	-0.1663
1.22	-0.1756	-9.1911	-1.5989	0.0205	-0.0086	0.0130	6.0261	15.0871	5.9576	0.6231	-0.7343	0.2118	-0.1663
1.23	-0.1723	-9.1925	-1.5978	0.0170	-0.0140	0.0128	6.1833	15.2974	5.9818	0.6231	-0.7343	0.2118	-0.1662
1.24	-0.1727	-9.1918	-1.5981	0.0202	-0.0157	0.0137	6.1737	15.1224	6.0701	0.6231	-0.7344	0.2117	-0.1662
1.25	-0.1719	-9.1860	-1.5945	0.0195	-0.0107	0.0106	6.0226	14.9650	6.0445	0.6231	-0.7343	0.2117	-0.1662
1.26	-0.1754	-9.1880	-1.5856	0.0221	-0.0079	0.0125	5.9696	15.3522	5.9372	0.6232	-0.7344	0.2117	-0.1662
1.27	-0.1777	-9.1857	-1.5811	0.0209	-0.0112	0.0118	5.9518	15.2175	5.9607	0.6231	-0.7343	0.2117	-0.1662
1.28	-0.1802	-9.1914	-1.5786	0.0179	-0.0084	0.0139	6.0224	15.3650	5.9193	0.6232	-0.7344	0.2117	-0.1662
1.29	-0.1891	-9.1940	-1.5786	0.0155	-0.0092	0.0163	6.1408	15.3533	6.0800	0.6231	-0.7343	0.2117	-0.1662
1.3	-0.1892	-9.1827	-1.5657	0.0203	-0.0065	0.0162	6.0052	15.3589	5.8561	0.6231	-0.7343	0.2118	-0.1662
1.31	-0.1931	-9.1857	-1.5638	0.0212	-0.0068	0.0117	5.9429	15.3331	5.9648	0.6231	-0.7343	0.2118	-0.1662
1.32	-0.1906	-9.1899	-1.5684	0.0208	-0.0011	0.0085	5.9789	15.1472	6.0952	0.6231	-0.7343	0.2118	-0.1663
1.33	-0.1876	-9.1831	-1.5587	0.0207	-0.0074	0.0136	5.9365	15.3407	5.8110	0.6232	-0.7344	0.2118	-0.1663
1.34	-0.1862	-9.1940	-1.5572	0.0211	-0.0078	0.0145	5.9165	15.2932	5.7495	0.6231	-0.7343	0.2118	-0.1663
1.35	-0.1849	-9.1942	-1.5639	0.0188	-0.0113	0.0126	6.2121	15.1535	5.8585	0.6232	-0.7344	0.2118	-0.1663
1.36	-0.1883	-9.1864	-1.5646	0.0210	-0.0137	0.0122	6.2079	15.2255	5.8803	0.6231	-0.7343	0.2117	-0.1663
1.37	-0.1902	-9.1868	-1.5664	0.0207	-0.0090	0.0160	6.3040	15.0673	5.7726	0.6231	-0.7343	0.2118	-0.1663
1.38	-0.1883	-9.1910	-1.5762	0.0216	-0.0090	0.0143	6.4406	15.1876	5.9482	0.6231	-0.7343	0.2118	-0.1663
1.39	-0.1857	-9.1839	-1.5682	0.0150	-0.0089	0.0093	6.1498	15.2119	5.6912	0.6231	-0.7343	0.2118	-0.1663
1.4	-0.1799	-9.1845	-1.5707	0.0160	-0.0108	0.0120	6.0393	15.1074	5.6869	0.6231	-0.7344	0.2118	-0.1663
1.41	-0.1763	-9.1939	-1.5853	0.0190	-0.0091	0.0090	6.2845	14.9793	6.1209	0.6231	-0.7343	0.2117	-0.1663
1.42	-0.1745	-9.1880	-1.5865	0.0194	-0.0078	0.0108	6.2933	15.1540	6.1031	0.6231	-0.7344	0.2118	-0.1663
1.43	-0.1746	-9.1947	-1.5934	0.0197	-0.0115	0.0143	6.2042	15.2935	5.9431	0.6230	-0.7343	0.2117	-0.1663
1.44	-0.1684	-9.1908	-1.5907	0.0196	-0.0124	0.0096	6.1169	15.1823	5.8548	0.6231	-0.7344	0.2117	-0.1663
1.45	-0.1710	-9.1793	-1.5852	0.0216	-0.0082	0.0052	6.1138	15.1800	5.8845	0.6231	-0.7343	0.2117	-0.1663
1.46	-0.1725	-9.1910	-1.5906	0.0184	-0.0107	0.0118	5.9440	15.2667	5.8357	0.6231	-0.7344	0.2117	-0.1663
1.47	-0.1735	-9.1871	-1.5860	0.0175	-0.0084	0.0170	6.0608	15.2728	6.0660	0.6231	-0.7343	0.2117	-0.1663
1.48	-0.1786	-9.1847	-1.5867	0.0219	-0.0088	0.0143	6.0232	15.1769	6.1567	0.6231	-0.7343	0.2117	-0.1663
1.49	-0.1767	-9.1924	-1.5911	0.0145	-0.0085	0.0081	6.0897	15.3541	5.8957	0.6231	-0.7344	0.2117	-0.1663
1.5	-0.1826	-9.1920	-1.5873	0.0164	-0.0063	0.0157	6.2192	15.0907	5.8413	0.6230	-0.7343	0.2117	-0.1663
1.51	-0.1827	-9.1848	-1.5851	0.0216	-0.0089	0.0139	6.1991	15.0436	6.0095	0.6231	-0.7344	0.2117	-0.1663
1.52	-0.1926	-9.1963	-1.5949	0.0115	-0.0145	0.0164	6.2194	15.1110	6.0521	0.6230	-0.7344	0.2117	-0.1663
1.53	-0.1883	-9.1943	-1.5881	0.0179	-0.0066	0.0139	6.3986	14.9710	5.8072	0.6231	-0.7345	0.2118	-0.1663
1.54	-0.1859	-9.1832	-1.5837	0.0170	-0.0122	0.0134	6.2674	15.2593	5.7686	0.6230	-0.7344	0.2117	-0.1663
1.55	-0.1865	-9.1903	-1.5828	0.0165	-0.0115	0.0128	6.2332	14.9047	5.7003	0.6230	-0.7344	0.2117	-0.1663
1.56	-0.1814	-9.1931	-1.5840	0.0192	-0.0142	0.0145	6.3184	14.9299	5.7026	0.6230	-0.7344	0.2117	-0.1662
1.57	-0.1792	-9.1879	-1.5824	0.0181	-0.0096	0.0149	6.2921	15.1801	5.7521	0.6230	-0.7344	0.2117	-0.1662
1.58	-0.1794	-9.1886	-1.5796	0.0182	-0.0095	0.0096	6.2749	14.8787	6.0193	0.6231	-0.7345	0.2117	-0.1663
1.59	-0.1826	-9.1941	-1.5872	0.0204	-0.0105	0.0160	6.1863	15.0418	5.9189	0.6230	-0.7344	0.2117	-0.1662
1.6	-0.1812	-9.1878	-1.5890	0.0212	-0.0079	0.0137	6.2162	15.1576	5.8216	0.6231	-0.7345	0.2118	-0.1662
1.61	-0.1818	-9.1901	-1.5778	0.0169	-0.0129	0.0160	6.2110	15.0112	5.6571	0.6230	-0.7344	0.2117	-0.1662
1.62	-0.1851	-9.1976	-1.5871	0.0198	-0.0098	0.0134	6.3037	14.9368	5.8820	0.6230	-0.7344	0.2118	-0.1662
1.63	-0.1833	-9.1885	-1.5825	0.0178	-0.0071	0.0086	6.3071	15.1378	5.6197	0.6230	-0.7344	0.2117	-0.1662
1.64	-0.1773	-9.1795	-1.5774	0.0156	-0.0054	0.0121	6.2135	15.2923	5.7974	0.6230	-0.7344	0.2117	-0.1662
1.65	-0.1802	-9.1911	-1.5817	0.0205	-0.0058	0.0090	6.2764	15.2805	6.1929	0.6230	-0.7345	0.2118	-0.1663
1.66	-0.1831	-9.1910	-1.5820	0.0163	-0.0098	0.0169	6.5434	15.1571	6.2669	0.6230	-0.7344	0.2118	-0.1663
1.67	-0.1863	-9.1842	-1.5720	0.0149	-0.0090	0.0129	6.4432	15.1292	6.3403	0.6230	-0.7345	0.2118	-0.1663
1.68	-0.1882	-9.1942	-1.5755	0.0210	-0.0014	0.0120	6.2672	15.1328	5.8742	0.6229	-0.7344	0.2118	-0.1663
1.69	-0.1874	-9.1891	-1.5753	0.0181	-0.0067	0.0131	6.3161	15.5051	5.9375	0.6230	-0.7345	0.2118	-0.1663
1.7	-0.1910	-9.1803	-1.5669	0.0175	-0.0038	0.0117	6.1907	15.1605	6.0270	0.6229	-0.7345	0.2118	-0.1663
1.71	-0.1953	-9.1960	-1.5743	0.0136	-0.0098	0.0133	6.2800	15.0424	6.0087	0.6229	-0.7345	0.2118	-0.1663
1.72	-0.1987	-9.1907	-1.5747	0.0209	-0.0138	0.0140	6.3809	15.0995	5.9170	0.6229	-0.7345	0.2118	-0.1663
1.73	-0.1945	-9.1862	-1.5761	0.0211	-0.0134	0.0166	6.3820	15.0840	6.0496	0.6229	-0.7345	0.2118	-0.1663
1.74	-0.1871	-9.1867	-1.5792	0.0130	-0.0123	0.0133	6.3291	15.0542	5.9475	0.6229	-0.7345	0.2118	-0.1663
1.75	-0.1807	-9.1871	-1.5854	0.0190	-0.0062	0.0141	6.2701	14.8747	5.9092	0.6228	-0.7344	0.2118	-0.1662
1.76	-0.1683	-9.1910	-1.5905	0.0171	-0.0128	0.0148	6.4181	15.1482	5.9395	0.6229	-0.7345	0.2118	-0.1663
1.77	-0.1695	-9.1874	-1.5927	0.0108	-0.0068	0.0149	6.3221	15.0076	5.9030	0.6229	-0.7345	0.2118	-0.1662
1.78	-0.1693	-9.1921	-1.5879	0.0198	-0.0049	0.0143	6.2764	15.0632	5.9887	0.6229	-0.7346	0.2119	-0.1663
1.79	-0.1661	-9.1937	-1.5914	0.0219	-0.0093	0.0137	6.3053	15.0906	6.0270	0.6228	-0.7345	0.2119	-0.1662
1.8	-0.1674	-9.1938	-1.5976	0.0187	-0.0089	0.0144	6.0644	15.1864	5.8542	0.6229	-0.7345	0.2119	-0.1662
1.81	-0.1672	-9.1869	-1.5988	0.0152	-0.0083	0.0154	6.4002	15.1156	5.8318	0.6228	-0.7345	0.2119	-0.1662
1.82	-0.1668	-9.1958	-1.6059	0.0201	-0.0046	0.0108	6.2215	15.0578	5.8257	0.6228	-0.7345	0.2119	-0.1663
1.83	-0.1643	-9.1878	-1.5972	0.0232	-0.0125	0.0138	6.2181	15.1855	5.8433	0.6229	-0.7346	0.2119	-0.1663
1.84	-0.1733	-9.1847	-1.5989	0.0212	-0.0048	0.0112	6.3124	15.1543	5.9477	0.6228	-0.7345	0.2119	-0.1663
1.85	-0.1759	-9.1927	-1.6047	0.0207	-0.0078	0.0077	6.2955	15.1790	5.8968	0.6229	-0.7346	0.2119	-0.1663
1.86	-0.1781	-9.1904	-1.5953	0.0180	-0.0049	0.0126	6.1964	15.0738	6.0048	0.6228	-0.7345	0.2119	-0.1663
1.87	-0.1921	-9.1881	-1.5829	0.0173	-0.0073	0.0072	6.3377	15.0688	6.1293	0.6228	-0.7345	0.2119	-0.1663
1.88	-0.1957	-9.1873	-1.5835	0.0179	-0.0111	0.0140	6.3521	14.9529	5.8637	0.6228	-0.7345	0.2119	-0.1663
1.89	-0.1990	-9.1867	-1.5754	0.0217	-0.0106	0.0102	6.2570	15.1070	5.8758	0.6228	-0.7345	0.2119	-0.1663
1.9	-0.1995	-9.1942	-1.5724	0.0214	-0.0136	0.0156	6.4078	14.9684	6.0519	0.6228	-0.7345	0.2119	-0.1663
1.91	-0.1976	-9.1893	-1.5631	0.0199	-0.0171	0.0134	6.4655	15.0536	5.8374	0.6228	-0.7345	0.2118	-0.1663
1.92	-0.1965	-9.1869	-1.5569	0.0172	-0.0106	0.0125	6.4516	15.0555	5.8606	0.6229	-0.7346	0.2118	-0.1663
1.93	-0.1946	-9.1877	-1.5578	0.0164	-0.0115	0.0139	6.4605	14.8992	5.7344	0.6228	-0.7345	0.2118	-0.1663
1.94	-0.1923	-9.1876	-1.5566	0.0166	-0.0077	0.0126	6.4701	14.8215	5.7924	0.6228	-0.7346	0.2118	-0.1663
1.95	-0.1947	-9.1877	-1.5586	0.0181	-0.0080	0.0116	6.4371	14.8629	5.9955	0.6228	-0.7346	0.2118	-0.1663
1.96	-0.1935	-9.1886	-1.5662	0.0184	-0.0094	0.0127	6.2773	14.9975	5.8250	0.6228	-0.7346	0.2118	-0.1663
1.97	-0.1886	-9.1893	-1.5756	0.0196	-0.0088	0.0135	6.3935	15.0867	5.8456	0.6228	-0.7346	0.2118	-0.1663
1.98	-0.1865	-9.1887	-1.5709	0.0178	-0.0094	0.0095	6.3551	15.0927	5.7026	0.6228	-0.7346	0.2118	-0.1663
1.99	-0.1829	-9.1922	-1.5767	0.0181	-0.0111	0.0121	6.2594	14.8526	5.8270	0.6228	-0.7346	0.2118	-0.1663
2	-0.1787	-9.1880	-1.5878	0.0163	-0.0072	0.0116	6.3907	14.8759	5.8473	0.6227	-0.7345	0.2118	-0.1663
2.01	-0.1729	-9.1885	-1.5843	0.0157	-0.0085	0.0072	6.3594	15.1510	5.8341	0.6228	-0.7347	0.2118	-0.1663
2.02	-0.1729	-9.1911	-1.5843	0.0111	-0.0092	0.0144	6.4138	15.1385	5.8133	0.6227	-0.7346	0.2118	-0.1663
2.03	-0.1703	-9.1962	-1.5868	0.0196	-0.0062	0.0116	6.2540	14.9954	5.9043	0.6228	-0.7347	0.2118	-0.1663
2.04	-0.1706	-9.1874	-1.5815	0.0137	-0.0103	0.0135	6.1048	15.0610	5.9361	0.6227	-0.7346	0.2118	-0.1663
2.05	-0.1715	-9.1904	-1.5881	0.0221	-0.0029	0.0149	6.1539	15.1198	5.7761	0.6227	-0.7346	0.2119	-0.1663
2.06	-0.1725	-9.1901	-1.5943	0.0156	-0.0086	0.0111	6.2799	15.1528	5.9096	0.6227	-0.7347	0.2119	-0.1663
2.07	-0.1767	-9.1877	-1.5993	0.0190	-0.0096	0.0141	6.2948	14.9603	5.9186	0.6226	-0.7346	0.2119	-0.1663
2.08	-0.1852	-9.1920	-1.5983	0.0222	-0.0107	0.0106	6.3851	15.1160	5.9402	0.6227	-0.7347	0.2119	-0.1664
2.09	-0.1826	-9.1911	-1.5922	0.0213	-0.0157	0.0140	6.3635	15.1750	5.8658	0.6227	-0.7346	0.2118	-0.1663
2.1	-0.1842	-9.1876	-1.5871	0.0188	-0.0153	0.0118	6.4373	14.9397	5.6358	0.6227	-0.7347	0.2118	-0.1663
2.11	-0.1825	-9.1887	-1.5921	0.0173	-0.0122	0.0111	6.4869	14.9046	5.6899	0.6226	-0.7346	0.2118	-0.1663
2.12	-0.1819	-9.1915	-1.5939	0.0221	-0.0087	0.0121	6.4276	15.0438	5.7478	0.6227	-0.7347	0.2118	-0.1663
2.13	-0.1748	-9.1906	-1.5900	0.0207	-0.0098	0.0124	6.3791	14.9457	5.7667	0.6227	-0.7347	0.2118	-0.1663
2.14	-0.1830	-9.1890	-1.5872	0.0200	-0.0089	0.0101	6.3488	15.1674	5.7025	0.6227	-0.7346	0.2118	-0.1663
2.15	-0.1757	-9.1903	-1.5898	0.0162	-0.0084	0.0110	6.6537	15.1642	5.9876	0.6227	-0.7347	0.2118	-0.1663
2.16	-0.1711	-9.1888	-1.5847	0.0164	-0.0083	0.0132	6.9408	15.0780	5.9736	0.6227	-0.7347	0.2118	-0.1663
2.17	-0.1717	-9.1888	-1.5815	0.0174	-0.0095	0.0153	6.7543	15.1365	5.8382	0.6227	-0.7347	0.2118	-0.1663
2.18	-0.1710	-9.1893	-1.5791	0.0161	-0.0122	0.0146	6.5078	15.1856	5.9820	0.6226	-0.7346	0.2118	-0.1663
2.19	-0.1752	-9.1836	-1.5769	0.0213	-0.0067	0.0155	6.2357	15.4862	5.7376	0.6227	-0.7347	0.2118	-0.1663
2.2	-0.1756	-9.1899	-1.5786	0.0208	-0.0122	0.0129	6.3050	15.3122	5.7076	0.6227	-0.7347	0.2118	-0.1663
2.21	-0.1796	-9.1889	-1.5775	0.0126	-0.0130	0.0143	6.2049	15.2101	5.7973	0.6227	-0.7347	0.2118	-0.1663
2.22	-0.1832	-9.1855	-1.5761	0.0198	-0.0073	0.0145	6.3974	15.0189	5.6707	0.6226	-0.7347	0.2118	-0.1662
2.23	-0.1835	-9.1858	-1.5708	0.0167	-0.0126	0.0154	6.3487	15.0097	5.8146	0.6226	-0.7347	0.2118	-0.1662
2.24	-0.1887	-9.1855	-1.5744	0.0200	-0.0095	0.0089	6.2610	15.1003	5.7415	0.6227	-0.7347	0.2118	-0.1662
2.25	-0.1863	-9.1869	-1.5745	0.0176	-0.0076	0.0123	6.3283	15.0464	5.8060	0.6226	-0.7347	0.2118	-0.1662
2.26	-0.1914	-9.1850	-1.5726	0.0165	-0.0060	0.0159	6.1734	15.0097	5.6298	0.6227	-0.7348	0.2118	-0.1663
2.27	-0.1953	-9.1933	-1.5719	0.0143	-0.0142	0.0147	6.1581	15.1827	5.6183	0.6226	-0.7347	0.2118	-0.1662
2.28	-0.1974	-9.1884	-1.5669	0.0194	-0.0133	0.0156	6.2889	15.1690	5.7216	0.6227	-0.7348	0.2118	-0.1662
2.29	-0.1983	-9.1858	-1.5703	0.0173	-0.0112	0.0144	6.3814	14.8997	5.5733	0.6226	-0.7347	0.2118	-0.1662
2.3	-0.1938	-9.1876	-1.5753	0.0201	-0.0099	0.0098	6.4842	15.1217	5.7442	0.6226	-0.7348	0.2118	-0.1662
2.31	-0.1920	-9.1894	-1.5780	0.0205	-0.0101	0.0122	6.5935	15.0334	5.6108	0.6226	-0.7348	0.2118	-0.1662
2.32	-0.1887	-9.1838	-1.5807	0.0195	-0.0109	0.0124	6.6442	14.8430	5.6701	0.6226	-0.7347	0.2118	-0.1662
2.33	-0.1829	-9.1899	-1.5875	0.0147	-0.0089	0.0114	6.4965	14.9705	5.8158	0.6226	-0.7348	0.2118	-0.1662
2.34	-0.1822	-9.1988	-1.5896	0.0120	-0.0128	0.0156	6.3282	14.9576	5.7281	0.6226	-0.7348	0.2118	-0.1662
2.35	-0.1772	-9.1910	-1.5792	0.0205	-0.0128	0.0146	6.4581	15.0948	5.6615	0.6226	-0.7348	0.2118	-0.1662
2.36	-0.1775	-9.1872	-1.5753	0.0170	-0.0169	0.0108	6.3844	14.8219	5.8000	0.6225	-0.7348	0.2117	-0.1661
2.37	-0.1777	-9.1902	-1.5766	0.0158	-0.0165	0.0145	6.3451	15.0171	5.6484	0.6226	-0.7348	0.2117	-0.1661
2.38	-0.1732	-9.1879	-1.5812	0.0177	-0.0095	0.0118	6.3017	15.1550	5.7384	0.6226	-0.7348	0.2117	-0.1661
2.39	-0.1694	-9.1887	-1.5860	0.0189	-0.0072	0.0072	6.4890	15.0295	5.8046	0.6225	-0.7348	0.2117	-0.1661
2.4	-0.1654	-9.1899	-1.5896	0.0146	-0.0013	0.0118	6.3457	15.0232	5.6682	0.6225	-0.7349	0.2118	-0.1662
2.41	-0.1623	-9.1900	-1.5940	0.0132	-0.0031	0.0135	6.4143	15.3061	5.5648	0.6225	-0.7349	0.2118	-0.1662
2.42	-0.1642	-9.1865	-1.5918	0.0137	-0.0106	0.0135	6.2978	15.1631	5.6522	0.6225	-0.7349	0.2118	-0.1662
2.43	-0.1712	-9.1926	-1.6040	0.0192	-0.0065	0.0107	6.3070	14.9963	5.7793	0.6224	-0.7348	0.2118	-0.1662
2.44	-0.1781	-9.1928	-1.6019	0.0172	-0.0103	0.0129	6.3547	15.2402	5.7693	0.6225	-0.7349	0.2118	-0.1662
2.45	-0.1842	-9.1853	-1.6011	0.0176	-0.0052	0.0117	6.1734	15.0047	5.7645	0.6224	-0.7349	0.2118	-0.1662
2.46	-0.1922	-9.1852	-1.5954	0.0180	-0.0100	0.0128	6.4830	15.1120	5.7969	0.6225	-0.7349	0.2118	-0.1662
2.47	-0.1898	-9.1936	-1.5962	0.0216	-0.0132	0.0096	6.4389	15.0396	5.6542	0.6224	-0.7349	0.2118	-0.1662
2.48	-0.1891	-9.1893	-1.5881	0.0134	-0.0183	0.0087	6.4813	14.8945	5.7472	0.6224	-0.7349	0.2117	-0.1662
2.49	-0.1847	-9.1837	-1.5757	0.0165	-0.0126	0.0136	6.5916	14.8863	5.7544	0.6224	-0.7350	0.2117	-0.1661
2.5	-0.1834	-9.1935	-1.5713	0.0182	-0.0109	0.0139	6.6507	15.1378	5.5913	0.6224	-0.7349	0.2117	-0.1661
2.51	-0.1848	-9.1887	-1.5658	0.0216	-0.0093	0.0158	6.5711	15.0228	5.5980	0.6225	-0.7350	0.2117	-0.1661
2.52	-0.1801	-9.1898	-1.5718	0.0179	-0.0094	0.0139	6.5783	14.7512	5.7942	0.6224	-0.7349	0.2117	-0.1661
2.53	-0.1839	-9.1943	-1.5663	0.0174	-0.0093	0.0155	6.5952	14.9248	5.6983	0.6225	-0.7350	0.2118	-0.1661
2.54	-0.1814	-9.1905	-1.5654	0.0199	-0.0099	0.0130	6.3512	15.0329	5.7893	0.6224	-0.7349	0.2117	-0.1661
2.55	-0.1839	-9.1852	-1.5677	0.0147	-0.0127	0.0117	6.4718	15.0685	5.7306	0.6224	-0.7350	0.2117	-0.1661
2.56	-0.1835	-9.1894	-1.5696	0.0190	-0.0139	0.0125	6.3298	15.2637	5.5204	0.6224	-0.7350	0.2117	-0.1661
2.57	-0.1783	-9.1872	-1.5763	0.0147	-0.0103	0.0145	6.4794	15.0774	5.7168	0.6224	-0.7350	0.2117	-0.1661
2.58	-0.1753	-9.1924	-1.5830	0.0199	-0.0068	0.0089	6.3630	15.2287	5.6644	0.6224	-0.7351	0.2117	-0.1661
2.59	-0.1719	-9.1903	-1.5753	0.0174	-0.0073	0.0134	6.2528	15.1543	5.7008	0.6224	-0.7350	0.2117	-0.1661
2.6	-0.1733	-9.1893	-1.5799	0.0146	-0.0074	0.0125	6.1895	15.0789	5.6063	0.6224	-0.7351	0.2118	-0.1661
2.61	-0.1740	-9.1881	-1.5763	0.0130	-0.0104	0.0145	6.3094	15.2127	5.6440	0.6223	-0.7350	0.2117	-0.1661
2.62	-0.1759	-9.1894	-1.5823	0.0153	-0.0096	0.0121	6.2789	15.2845	5.9591	0.6223	-0.7351	0.2118	-0.1661
2.63	-0.1746	-9.1882	-1.5814	0.0167	-0.0030	0.0148	6.3246	15.1258	5.6835	0.6223	-0.7350	0.2118	-0.1661
2.64	-0.1798	-9.1926	-1.5925	0.0129	-0.0055	0.0170	6.4678	15.1063	5.5419	0.6223	-0.7350	0.2118	-0.1661
2.65	-0.1815	-9.1894	-1.5861	0.0202	-0.0088	0.0122	6.5144	15.1408	5.9118	0.6223	-0.7351	0.2118	-0.1661
2.66	-0.1824	-9.1866	-1.5908	0.0145	-0.0114	0.0149	6.8261	14.8344	5.8640	0.6223	-0.7351	0.2118	-0.1661
2.67	-0.1854	-9.1898	-1.5913	0.0200	-0.0169	0.0164	6.8341	14.8788	5.7302	0.6223	-0.7351	0.2118	-0.1661
2.68	-0.1869	-9.1903	-1.5958	0.0206	-0.0107	0.0088	6.5078	15.1687	5.8022	0.6222	-0.7350	0.2118	-0.1660
2.69	-0.1847	-9.1882	-1.5927	0.0217	-0.0061	0.0096	6.5857	15.2053	5.7894	0.6223	-0.7351	0.2118	-0.1661
2.7	-0.1881	-9.1937	-1.5951	0.0203	-0.0108	0.0103	6.6935	14.8723	5.6349	0.6223	-0.7351	0.2118	-0.1661
2.71	-0.1837	-9.1910	-1.5936	0.0175	-0.0048	0.0110	6.4319	15.0438	5.9400	0.6223	-0.7351	0.2118	-0.1661
2.72	-0.1872	-9.1878	-1.5922	0.0177	-0.0060	0.0176	6.4667	15.1666	5.9100	0.6222	-0.7351	0.2118	-0.1661
2.73	-0.1829	-9.1883	-1.5934	0.0184	-0.0099	0.0143	6.2769	15.1461	5.8049	0.6223	-0.7351	0.2118	-0.1661
2.74	-0.1805	-9.1882	-1.5926	0.0222	-0.0113	0.0163	6.4000	15.1318	5.8501	0.6223	-0.7351	0.2118	-0.1661
2.75	-0.1781	-9.1891	-1.5919	0.0175	-0.0146	0.0126	6.4642	14.9066	5.8133	0.6222	-0.7350	0.2118	-0.1661
2.76	-0.1766	-9.1874	-1.5945	0.0188	-0.0129	0.0105	6.4596	14.7900	5.8840	0.6223	-0.7351	0.2118	-0.1661
2.77	-0.1765	-9.1877	-1.5894	0.0123	-0.0069	0.0135	6.3933	15.0275	5.7370	0.6222	-0.7351	0.2118	-0.1661
2.78	-0.1789	-9.1929	-1.5876	0.0170	-0.0072	0.0154	6.4401	15.2849	5.6124	0.6223	-0.7352	0.2118	-0.1661
2.79	-0.1754	-9.1907	-1.5829	0.0230	-0.0069	0.0146	6.3731	15.1321	5.7505	0.6222	-0.7351	0.2118	-0.1661
2.8	-0.1788	-9.1893	-1.5837	0.0182	-0.0050	0.0121	6.2813	14.9430	5.7665	0.6222	-0.7351	0.2118	-0.1661
2.81	-0.1815	-9.1874	-1.5802	0.0227	-0.0040	0.0142	6.5800	15.0415	5.8628	0.6222	-0.7351	0.2119	-0.1661
2.82	-0.1794	-9.1857	-1.5770	0.0175	-0.0052	0.0092	6.4294	15.1113	5.8175	0.6222	-0.7350	0.2118	-0.1661
2.83	-0.1874	-9.1936	-1.5734	0.0187	-0.0105	0.0160	6.4723	14.9364	5.7454	0.6223	-0.7351	0.2119	-0.1661
2.84	-0.1900	-9.1980	-1.5771	0.0216	-0.0118	0.0112	6.5414	14.8053	5.7529	0.6222	-0.7351	0.2119	-0.1661
2.85	-0.1975	-9.1873	-1.5698	0.0210	-0.0146	0.0128	6.5322	15.0424	5.7394	0.6223	-0.7351	0.2118	-0.1661
2.86	-0.1947	-9.1842	-1.5647	0.0212	-0.0075	0.0137	6.5127	15.1912	5.8325	0.6222	-0.7350	0.2118	-0.1661
2.87	-0.1942	-9.1884	-1.5747	0.0214	-0.0063	0.0133	6.5549	14.9949	5.7349	0.6223	-0.7351	0.2119	-0.1661
2.88	-0.1959	-9.1886	-1.5705	0.0195	-0.0111	0.0187	6.4560	14.8998	5.9245	0.6223	-0.7351	0.2119	-0.1661
2.89	-0.1910	-9.1867	-1.5818	0.0169	-0.0063	0.0151	6.5050	15.0983	5.8792	0.6222	-0.7350	0.2119	-0.1661
2.9	-0.1920	-9.1893	-1.5758	0.0199	-0.0122	0.0110	6.5403	15.0557	5.6004	0.6223	-0.7351	0.2119	-0.1661
2.91	-0.1861	-9.1919	-1.5814	0.0215	-0.0087	0.0135	6.4182	15.2076	5.7314	0.6223	-0.7351	0.2119	-0.1661
2.92	-0.1786	-9.1874	-1.5823	0.0188	-0.0133	0.0130	6.2845	15.0346	5.8778	0.6223	-0.7351	0.2119	-0.1661
2.93	-0.1744	-9.1893	-1.5794	0.0158	-0.0132	0.0176	6.3625	14.8735	5.7285	0.6222	-0.7350	0.2119	-0.1660
2.94	-0.1761	-9.1907	-1.5796	0.0196	-0.0026	0.0143	6.5690	15.0261	5.7619	0.6223	-0.7351	0.2119	-0.1661
2.95	-0.1729	-9.1837	-1.5866	0.0198	-0.0065	0.0134	6.3615	15.0937	5.8953	0.6222	-0.7351	0.2119	-0.1661
2.96	-0.1699	-9.1865	-1.5786	0.0181	-0.0073	0.0131	6.3763	15.0075	5.9411	0.6223	-0.7351	0.2119	-0.1661
2.97	-0.1730	-9.1897	-1.5822	0.0204	-0.0100	0.0139	6.2815	14.8734	5.8227	0.6222	-0.7350	0.2119	-0.1661
2.98	-0.1652	-9.1883	-1.5873	0.0212	-0.0078	0.0117	6.4047	15.1782	5.8210	0.6222	-0.7351	0.2119	-0.1661
2.99	-0.1669	-9.1895	-1.5904	0.0126	-0.0052	0.0124	6.3225	15.0715	5.8493	0.6222	-0.7351	0.2119	-0.1661
3	-0.1656	-9.1900	-1.5940	0.0157	-0.0060	0.0099	6.5400	15.1547	5.7510	0.6222	-0.7350	0.2119	-0.1661
3.01	-0.1721	-9.1910	-1.5937	0.0176	-0.0077	0.0160	6.4363	15.0446	5.6347	0.6222	-0.7351	0.2120	-0.1661
3.02	-0.1727	-9.1964	-1.5917	0.0173	-0.0092	0.0142	6.3450	14.8343	5.9771	0.6222	-0.7351	0.2120	-0.1661
3.03	-0.1785	-9.1975	-1.5903	0.0193	-0.0079	0.0134	6.6258	15.0095	5.7740	0.6222	-0.7351	0.2120	-0.1661
3.04	-0.1869	-9.1933	-1.5941	0.0186	-0.0067	0.0127	6.6000	14.9894	5.7384	0.6221	-0.7350	0.2120	-0.1661
3.05	-0.1842	-9.1820	-1.5898	0.0195	-0.0051	0.0117	6.4157	14.6591	5.8855	0.6222	-0.7351	0.2120	-0.1662
3.06	-0.1891	-9.1830	-1.5852	0.0208	-0.0083	0.0143	6.6177	14.8549	5.7841	0.6222	-0.7351	0.2120	-0.1662
3.07	-0.1924	-9.1933	-1.5833	0.0222	-0.0065	0.0146	6.6086	15.0144	5.7064	0.6222	-0.7350	0.2120	-0.1662
3.08	-0.1878	-9.1951	-1.5802	0.0172	-0.0093	0.0127	6.5267	14.9614	5.9053	0.6222	-0.7351	0.2120	-0.1662
3.09	-0.1891	-9.1885	-1.5765	0.0184	-0.0096	0.0097	6.3806	15.0447	5.7263	0.6222	-0.7351	0.2120	-0.1662
3.1	-0.1866	-9.1908	-1.5782	0.0200	-0.0109	0.0088	6.4132	15.2670	5.6705	0.6222	-0.7351	0.2120	-0.1662
3.11	-0.1872	-9.1862	-1.5724	0.0194	-0.0125	0.0149	6.5413	15.1435	5.9410	0.6221	-0.7350	0.2120	-0.1662
3.12	-0.1888	-9.1862	-1.5747	0.0157	-0.0096	0.0111	6.5194	15.0497	5.8322	0.6222	-0.7351	0.2120	-0.1662
3.13	-0.1827	-9.1893	-1.5827	0.0154	-0.0045	0.0133	6.2172	15.2590	5.7695	0.6221	-0.7351	0.2120	-0.1662
3.14	-0.1819	-9.1896	-1.5787	0.0125	-0.0053	0.0151	6.2735	15.1263	5.7688	0.6221	-0.7351	0.2120	-0.1662
3.15	-0.1732	-9.1865	-1.5815	0.0177	-0.0061	0.0085	6.3535	15.2773	6.1379	0.6221	-0.7351	0.2120	-0.1662
3.16	-0.1834	-9.1821	-1.5808	0.0207	-0.0048	0.0147	6.9046	15.1688	6.0876	0.6221	-0.7351	0.2120	-0.1662
3.17	-0.1725	-9.2055	-1.5957	0.0165	-0.0060	0.0108	7.0218	15.1293	5.9279	0.6221	-0.7352	0.2120	-0.1663
3.18	-0.1808	-9.1769	-1.5706	0.0195	-0.0070	0.0146	6.6194	15.3879	5.6353	0.6220	-0.7351	0.2120	-0.1662
3.19	-0.1830	-9.1912	-1.5807	0.0200	-0.0080	0.0151	6.3355	15.5394	5.9389	0.6221	-0.7351	0.2121	-0.1663
3.2	-0.1749	-9.1999	-1.5815	0.0180	-0.0054	0.0151	6.2554	15.2269	5.7755	0.6221	-0.7351	0.2121	-0.1663
3.21	-0.1733	-9.1823	-1.5711	0.0171	-0.0102	0.0125	6.3813	15.2074	5.6474	0.6221	-0.7351	0.2121	-0.1663
3.22	-0.1783	-9.1921	-1.5771	0.0205	-0.0156	0.0131	6.4848	15.0197	5.9379	0.6221	-0.7351	0.2121	-0.1662
3.23	-0.1803	-9.1933	-1.5808	0.0197	-0.0139	0.0136	6.4431	14.6955	5.8415	0.6221	-0.7351	0.2120	-0.1662
3.24	-0.1865	-9.1819	-1.5781	0.0145	-0.0113	0.0138	6.5670	14.9125	5.6059	0.6221	-0.7352	0.2120	-0.1662
3.25	-0.1857	-9.1877	-1.5837	0.0148	-0.0094	0.0156	6.7512	15.0063	5.7154	0.6220	-0.7351	0.2120	-0.1662
3.26	-0.1938	-9.1936	-1.5891	0.0200	-0.0104	0.0170	6.4984	14.7936	5.8316	0.6221	-0.7352	0.2121	-0.1662
3.27	-0.1940	-9.1886	-1.5896	0.0187	-0.0129	0.0159	6.4615	15.0042	5.6252	0.6221	-0.7351	0.2121	-0.1662
3.28	-0.1957	-9.1936	-1.5997	0.0184	-0.0089	0.0178	6.4972	14.9333	5.6368	0.6221	-0.7352	0.2121	-0.1662
3.29	-0.1937	-9.1852	-1.5892	0.0210	-0.0092	0.0166	6.3760	14.7288	5.6022	0.6220	-0.7351	0.2121	-0.1661
3.3	-0.1919	-9.1869	-1.5900	0.0125	-0.0119	0.0170	6.3057	15.2563	5.6647	0.6221	-0.7352	0.2121	-0.1661
3.31	-0.1866	-9.1912	-1.5923	0.0208	-0.0118	0.0143	6.4689	15.1162	5.6665	0.6221	-0.7352	0.2121	-0.1661
3.32	-0.1799	-9.1849	-1.5842	0.0197	-0.0095	0.0138	6.4810	15.1220	5.5835	0.6220	-0.7351	0.2121	-0.1661
3.33	-0.1733	-9.1882	-1.5879	0.0186	-0.0108	0.0156	6.4567	15.1007	5.8353	0.6221	-0.7352	0.2121	-0.1661
3.34	-0.1751	-9.1973	-1.5881	0.0169	-0.0097	0.0148	6.2262	15.1293	5.7769	0.6221	-0.7351	0.2121	-0.1661
3.35	-0.1771	-9.1908	-1.5825	0.0166	-0.0064	0.0149	6.4676	15.0535	5.7875	0.6221	-0.7352	0.2122	-0.1661
3.36	-0.1755	-9.1866	-1.5868	0.0236	-0.0071	0.0149	6.3927	15.0126	5.8833	0.6220	-0.7351	0.2121	-0.1661
3.37	-0.1772	-9.1898	-1.5835	0.0204	-0.0074	0.0133	6.4776	15.1421	5.9927	0.6221	-0.7352	0.2122	-0.1661
3.38	-0.1755	-9.1914	-1.5803	0.0186	-0.0102	0.0141	6.4358	15.2414	5.7810	0.6221	-0.7351	0.2122	-0.1661
3.39	-0.1812	-9.1904	-1.5824	0.0193	-0.0081	0.0122	6.3023	15.0366	5.8243	0.6221	-0.7351	0.2122	-0.1661
3.4	-0.1855	-9.1932	-1.5837	0.0213	-0.0140	0.0163	6.2244	15.0307	5.5705	0.6221	-0.7351	0.2122	-0.1661
3.41	-0.1847	-9.1866	-1.5817	0.0214	-0.0148	0.0140	6.5975	14.7654	5.6841	0.6221	-0.7351	0.2121	-0.1660
3.42	-0.1786	-9.1880	-1.5750	0.0199	-0.0116	0.0149	6.6346	14.9065	5.5051	0.6221	-0.7352	0.2122	-0.1660
3.43	-0.1817	-9.1893	-1.5705	0.0171	-0.0082	0.0135	6.3501	14.9836	5.7374	0.6220	-0.7351	0.2121	-0.1660
3.44	-0.1877	-9.1939	-1.5729	0.0149	-0.0095	0.0113	6.4355	14.8224	5.6599	0.6221	-0.7352	0.2122	-0.1660
3.45	-0.1863	-9.1872	-1.5754	0.0164	-0.0085	0.0157	6.4516	14.9246	5.5389	0.6221	-0.7351	0.2122	-0.1660
3.46	-0.1855	-9.1872	-1.5629	0.0193	-0.0103	0.0085	6.6053	14.9716	5.9356	0.6221	-0.7352	0.2122	-0.1660
3.47	-0.1909	-9.1868	-1.5631	0.0124	-0.0075	0.0043	6.6389	14.9297	5.7758	0.6220	-0.7352	0.2121	-0.1661
3.48	-0.1914	-9.1909	-1.5710	0.0176	-0.0125	0.0130	6.4170	15.1150	5.8079	0.6220	-0.7352	0.2121	-0.1660
3.49	-0.1961	-9.1878	-1.5749	0.0129	-0.0103	0.0099	6.4983	15.0445	5.6000	0.6220	-0.7352	0.2121	-0.1661
3.5	-0.1967	-9.1837	-1.5772	0.0135	-0.0044	0.0098	6.4631	15.1033	5.7110	0.6219	-0.7352	0.2121	-0.1661
3.51	-0.1888	-9.1911	-1.5826	0.0164	-0.0084	0.0115	6.3824	15.1138	5.8015	0.6220	-0.7353	0.2121	-0.1661
3.52	-0.1817	-9.1912	-1.5839	0.0184	-0.0094	0.0137	6.3730	14.9995	5.8140	0.6220	-0.7352	0.2121	-0.1661
3.53	-0.1749	-9.1922	-1.5777	0.0208	-0.0054	0.0103	6.1950	15.0435	5.7108	0.6220	-0.7353	0.2121	-0.1661
3.54	-0.1715	-9.1940	-1.5858	0.0226	-0.0064	0.0121	6.4125	15.0122	5.7164	0.6219	-0.7352	0.2121	-0.1661
3.55	-0.1676	-9.1928	-1.5773	0.0201	-0.0043	0.0145	6.3704	15.0457	5.6784	0.6220	-0.7352	0.2121	-0.1661
3.56	-0.1688	-9.1846	-1.5816	0.0182	-0.0033	0.0131	6.4321	15.1745	5.6080	0.6220	-0.7352	0.2122	-0.1662
3.57	-0.1605	-9.1872	-1.5970	0.0195	-0.0078	0.0150	6.2162	15.2194	5.8986	0.6219	-0.7352	0.2122	-0.1661
3.58	-0.1673	-9.1944	-1.6012	0.0183	-0.0064	0.0143	6.3300	14.9880	5.7768	0.6220	-0.7353	0.2122	-0.1662
3.59	-0.1693	-9.1913	-1.5986	0.0215	-0.0158	0.0136	6.5474	14.7976	5.5252	0.6220	-0.7352	0.2122	-0.1661
3.6	-0.1664	-9.1866	-1.5948	0.0211	-0.0107	0.0105	6.5727	14.7870	5.6222	0.6220	-0.7352	0.2122	-0.1662
3.61	-0.1728	-9.1901	-1.5976	0.0197	-0.0081	0.0143	6.4656	14.7801	5.6262	0.6219	-0.7351	0.2121	-0.1661
3.62	-0.1759	-9.1910	-1.5949	0.0213	-0.0103	0.0147	6.4951	15.0085	5.5360	0.6220	-0.7352	0.2122	-0.1661
3.63	-0.1847	-9.1817	-1.5847	0.0193	-0.0091	0.0131	6.5680	15.0483	5.8418	0.6220	-0.7352	0.2122	-0.1661
3.64	-0.1980	-9.1890	-1.5788	0.0190	-0.0122	0.0128	6.5219	15.0275	5.7017	0.6220	-0.7352	0.2122	-0.1661
3.65	-0.2007	-9.1892	-1.5684	0.0257	-0.0122	0.0147	6.8111	15.0502	5.8066	0.6220	-0.7352	0.2122	-0.1661
3.66	-0.2034	-9.1812	-1.5624	0.0212	-0.0113	0.0142	7.0397	15.1546	6.0804	0.6220	-0.7352	0.2121	-0.1661
3.67	-0.2099	-9.1898	-1.5608	0.0174	-0.0103	0.0151	6.9724	15.1052	5.8606	0.6220	-0.7352	0.2122	-0.1661
3.68	-0.2123	-9.1921	-1.5524	0.0160	-0.0127	0.0163	6.7067	14.9992	5.7842	0.6220	-0.7351	0.2121	-0.1661
3.69	-0.2107	-9.1811	-1.5477	0.0190	-0.0116	0.0111	6.4725	15.2029	5.8772	0.6220	-0.7352	0.2122	-0.1661
3.7	-0.2050	-9.1832	-1.5477	0.0217	-0.0079	0.0158	6.4337	14.9952	5.8065	0.6220	-0.7352	0.2122	-0.1661
3.71	-0.2027	-9.1899	-1.5615	0.0208	-0.0022	0.0152	6.3716	14.8666	5.7462	0.6220	-0.7352	0.2122	-0.1661
3.72	-0.1934	-9.1872	-1.5704	0.0137	-0.0066	0.0116	6.5449	15.1473	5.7017	0.6220	-0.7352	0.2122	-0.1661
3.73	-0.1836	-9.1865	-1.5677	0.0133	-0.0063	0.0122	6.6188	15.0402	5.8600	0.6220	-0.7352	0.2122	-0.1661
3.74	-0.1796	-9.1893	-1.5730	0.0182	-0.0087	0.0144	6.4848	15.0336	5.7443	0.6220	-0.7352	0.2122	-0.1661
3.75	-0.1691	-9.1901	-1.5789	0.0159	-0.0039	0.0142	6.5835	15.2030	5.6273	0.6219	-0.7351	0.2122	-0.1661
3.76	-0.1631	-9.1915	-1.5897	0.0156	-0.0039	0.0152	6.3814	15.1564	5.7264	0.6220	-0.7352	0.2123	-0.1661
3.77	-0.1554	-9.1865	-1.5959	0.0190	-0.0123	0.0166	6.4164	14.9278	5.8715	0.6219	-0.7352	0.2123	-0.1661
3.78	-0.1500	-9.1932	-1.6039	0.0183	-0.0135	0.0119	6.4404	14.9309	5.9130	0.6220	-0.7353	0.2123	-0.1661
3.79	-0.1482	-9.1911	-1.6031	0.0149	-0.0086	0.0139	6.5506	14.9260	5.8126	0.6219	-0.7352	0.2123	-0.1661
3.8	-0.1448	-9.1867	-1.6080	0.0195	-0.0070	0.0123	6.5933	14.9424	5.8010	0.6219	-0.7352	0.2123	-0.1661
3.81	-0.1514	-9.1934	-1.6099	0.0164	-0.0061	0.0119	6.5528	14.9037	5.6844	0.6219	-0.7352	0.2123	-0.1661
3.82	-0.1584	-9.1944	-1.6214	0.0189	-0.0107	0.0088	6.6551	15.0138	5.8349	0.6219	-0.7352	0.2123	-0.1661
3.83	-0.1670	-9.1866	-1.6153	0.0196	-0.0130	0.0160	6.4969	15.0984	5.6913	0.6220	-0.7353	0.2123	-0.1661
3.84	-0.1792	-9.1828	-1.6136	0.0215	-0.0094	0.0156	6.6977	14.9927	5.7730	0.6219	-0.7352	0.2123	-0.1661
3.85	-0.1889	-9.1918	-1.6218	0.0199	-0.0062	0.0154	6.6458	15.0362	5.8355	0.6220	-0.7353	0.2123	-0.1661
3.86	-0.1994	-9.1869	-1.6146	0.0203	-0.0087	0.0164	6.5140	14.9376	5.7268	0.6219	-0.7351	0.2123	-0.1661
3.87	-0.2158	-9.1847	-1.5964	0.0221	-0.0140	0.0162	6.6546	14.7907	5.6001	0.6220	-0.7352	0.2123	-0.1661
3.88	-0.2146	-9.1910	-1.5919	0.0195	-0.0096	0.0179	6.5683	15.1377	5.5466	0.6220	-0.7352	0.2123	-0.1661
3.89	-0.2130	-9.1854	-1.5809	0.0211	-0.0068	0.0143	6.4603	15.0898	5.8070	0.6220	-0.7352	0.2123	-0.1661
3.9	-0.2053	-9.1840	-1.5665	0.0221	-0.0070	0.0158	6.4285	14.6760	5.8277	0.6220	-0.7352	0.2123	-0.1661
3.91	-0.2040	-9.1901	-1.5664	0.0195	-0.0110	0.0164	6.4977	15.0959	5.7811	0.6220	-0.7352	0.2123	-0.1661
3.92	-0.1936	-9.1907	-1.5630	0.0199	-0.0053	0.0127	6.4960	15.2129	5.8710	0.6220	-0.7352	0.2124	-0.1661
3.93	-0.1790	-9.1817	-1.5613	0.0185	-0.0096	0.0151	6.3394	15.0757	5.9032	0.6219	-0.7351	0.2123	-0.1661
3.94	-0.1795	-9.1872	-1.5649	0.0164	-0.0064	0.0152	6.4720	15.0954	5.8892	0.6220	-0.7352	0.2124	-0.1661
3.95	-0.1736	-9.1924	-1.5738	0.0222	-0.0077	0.0125	6.5831	15.0873	5.8886	0.6220	-0.7351	0.2124	-0.1661
3.96	-0.1735	-9.1905	-1.5776	0.0204	-0.0148	0.0158	6.6146	15.1119	5.9267	0.6220	-0.7352	0.2124	-0.1661
3.97	-0.1715	-9.1882	-1.5888	0.0217	-0.0140	0.0137	6.6168	14.9981	5.6860	0.6220	-0.7351	0.2124	-0.1660
3.98	-0.1687	-9.1891	-1.5947	0.0209	-0.0104	0.0181	6.5962	14.9061	5.8959	0.6220	-0.7351	0.2124	-0.1660
3.99	-0.1640	-9.1910	-1.5894	0.0221	-0.0095	0.0188	6.4885	14.9540	5.6259	0.6221	-0.7351	0.2124	-0.1660
4	-0.1582	-9.1878	-1.5888	0.0218	-0.0046	0.0068	6.6479	14.8504	5.4875	0.6220	-0.7351	0.2124	-0.1660
4.01	-0.1527	-9.1921	-1.5917	0.0213	-0.0098	0.0096	6.5836	14.7501	5.8174	0.6221	-0.7351	0.2124	-0.1661
4.02	-0.1411	-9.1985	-1.5910	0.0209	-0.0090	0.0155	6.6742	15.2129	5.6240	0.6220	-0.7351	0.2124	-0.1661
4.03	-0.1352	-9.1879	-1.5855	0.0234	-0.0134	0.0172	6.6579	15.0371	5.7171	0.6221	-0.7351	0.2124	-0.1661
4.04	-0.1293	-9.1878	-1.5752	0.0225	-0.0094	0.0146	6.4292	15.0069	5.7176	0.6221	-0.7350	0.2124	-0.1660
4.05	-0.1292	-9.1934	-1.5753	0.0202	-0.0113	0.0161	6.5480	14.8771	5.7630	0.6221	-0.7351	0.2124	-0.1660
4.06	-0.1355	-9.1919	-1.5643	0.0213	-0.0122	0.0148	6.5408	14.8807	6.1752	0.6221	-0.7351	0.2124	-0.1660
4.07	-0.1422	-9.1841	-1.5477	0.0210	-0.0111	0.0155	6.7212	14.9599	5.8129	0.6221	-0.7350	0.2124	-0.1660
4.08	-0.1567	-9.1944	-1.5461	0.0199	-0.0061	0.0103	6.5873	14.9116	5.6285	0.6222	-0.7351	0.2124	-0.1660
4.09	-0.1698	-9.1883	-1.5468	0.0175	-0.0058	0.0107	6.5191	14.9494	5.6182	0.6221	-0.7350	0.2124	-0.1660
4.1	-0.1837	-9.1817	-1.5364	0.0192	-0.0056	0.0139	6.5529	15.1111	5.7109	0.6221	-0.7351	0.2124	-0.1661
4.11	-0.1995	-9.1864	-1.5415	0.0154	-0.0052	0.0159	6.4317	15.0097	5.7124	0.6221	-0.7350	0.2124	-0.1660
4.12	-0.2071	-9.1946	-1.5594	0.0183	-0.0061	0.0104	6.5779	14.8030	5.7685	0.6221	-0.7351	0.2124	-0.1661
4.13	-0.2122	-9.1824	-1.5579	0.0200	-0.0056	0.0113	6.6204	15.0394	5.8011	0.6221	-0.7350	0.2124	-0.1661
4.14	-0.2190	-9.1832	-1.5762	0.0199	-0.0082	0.0164	6.6016	14.9223	5.9144	0.6221	-0.7350	0.2124	-0.1661
4.15	-0.2306	-9.1914	-1.5850	0.0209	-0.0115	0.0141	6.6864	15.0291	5.7701	0.6221	-0.7351	0.2124	-0.1661
4.16	-0.2320	-9.1923	-1.5881	0.0135	-0.0082	0.0155	6.9758	15.1315	5.9095	0.6221	-0.7350	0.2125	-0.1661
4.17	-0.2240	-9.1841	-1.5854	0.0160	-0.0132	0.0105	7.0150	15.1010	6.0188	0.6221	-0.7351	0.2124	-0.1661
4.18	-0.2248	-9.1881	-1.5938	0.0188	-0.0146	0.0150	6.7135	15.0457	5.7539	0.6220	-0.7350	0.2124	-0.1660
4.19	-0.2276	-9.1913	-1.6026	0.0179	-0.0126	0.0096	6.7172	15.2257	5.9008	0.6221	-0.7351	0.2124	-0.1660
4.2	-0.2310	-9.1779	-1.6005	0.0215	-0.0089	0.0130	6.5998	14.9044	5.9206	0.6221	-0.7351	0.2124	-0.1660
4.21	-0.2321	-9.1870	-1.6185	0.0213	-0.0088	0.0138	6.6174	14.9124	5.8074	0.6221	-0.7351	0.2124	-0.1660
4.22	-0.2285	-9.1938	-1.6250	0.0180	-0.0092	0.0104	6.5262	15.0809	5.8359	0.6221	-0.7350	0.2124	-0.1660
4.23	-0.2197	-9.1856	-1.6261	0.0171	-0.0083	0.0164	6.4105	14.8741	5.7265	0.6221	-0.7351	0.2124	-0.1660
4.24	-0.2112	-9.1845	-1.6250	0.0139	-0.0115	0.0129	6.5251	14.9292	5.6372	0.6221	-0.7351	0.2124	-0.1660
4.25	-0.2002	-9.1936	-1.6363	0.0186	-0.0110	0.0115	6.5244	14.9743	5.8200	0.6220	-0.7350	0.2124	-0.1660
4.26	-0.1895	-9.1929	-1.6292	0.0180	-0.0057	0.0118	6.4505	14.9418	5.8227	0.6221	-0.7351	0.2124	-0.1661
4.27	-0.1794	-9.1813	-1.6117	0.0176	-0.0077	0.0071	6.4106	14.9840	5.7329	0.6220	-0.7351	0.2124	-0.1661
4.28	-0.1745	-9.1892	-1.6014	0.0203	-0.0076	0.0159	6.3613	15.1129	5.5551	0.6221	-0.7352	0.2124	-0.1661
4.29	-0.1695	-9.1924	-1.5971	0.0220	-0.0025	0.0100	6.3720	15.1276	5.8340	0.6220	-0.7350	0.2124	-0.1661
4.3	-0.1673	-9.1866	-1.5767	0.0212	-0.0048	0.0144	6.2733	15.1064	5.7773	0.6221	-0.7351	0.2124	-0.1661
4.31	-0.1705	-9.1900	-1.5738	0.0215	-0.0060	0.0131	6.4551	15.3160	5.6338	0.6221	-0.7351	0.2124	-0.1661
4.32	-0.1689	-9.1908	-1.5714	0.0174	-0.0085	0.0132	6.4418	15.1332	5.9176	0.6220	-0.7350	0.2124	-0.1661
4.33	-0.1673	-9.1858	-1.5619	0.0205	-0.0100	0.0146	6.5351	15.0188	5.7535	0.6221	-0.7351	0.2125	-0.1661
4.34	-0.1647	-9.1855	-1.5536	0.0229	-0.0077	0.0125	6.5558	15.0420	5.6192	0.6221	-0.7350	0.2124	-0.1661
4.35	-0.1605	-9.2012	-1.5558	0.0194	-0.0159	0.0118	6.8855	14.8690	5.8099	0.6221	-0.7351	0.2124	-0.1661
4.36	-0.1525	-9.1926	-1.5545	0.0203	-0.0124	0.0097	6.6755	14.8938	5.9210	0.6220	-0.7350	0.2124	-0.1661
4.37	-0.1479	-9.1893	-1.5557	0.0220	-0.0084	0.0153	6.6996	14.8456	5.7425	0.6221	-0.7351	0.2124	-0.1661
4.38	-0.1520	-9.1843	-1.5486	0.0194	-0.0101	0.0114	6.6653	14.8048	5.7807	0.6221	-0.7350	0.2124	-0.1661
4.39	-0.1470	-9.1892	-1.5480	0.0217	-0.0091	0.0119	6.5218	14.9832	5.7390	0.6221	-0.7350	0.2124	-0.1661
4.4	-0.1493	-9.1869	-1.5487	0.0186	-0.0110	0.0130	6.4548	14.9262	5.7085	0.6221	-0.7350	0.2124	-0.1661
4.41	-0.1569	-9.1860	-1.5583	0.0150	-0.0147	0.0101	6.4382	14.9962	5.8323	0.6221	-0.7350	0.2124	-0.1661
4.42	-0.1647	-9.1906	-1.5632	0.0183	-0.0153	0.0148	6.6488	15.0576	5.7935	0.6221	-0.7351	0.2124	-0.1661
4.43	-0.1674	-9.1911	-1.5639	0.0094	-0.0110	0.0160	6.4948	15.0197	5.7970	0.6220	-0.7350	0.2123	-0.1661
4.44	-0.1740	-9.1901	-1.5731	0.0171	-0.0061	0.0140	6.4952	15.2536	5.8138	0.6221	-0.7351	0.2124	-0.1661
4.45	-0.1746	-9.1973	-1.5859	0.0200	-0.0081	0.0125	6.6107	15.1623	5.7511	0.6221	-0.7351	0.2124	-0.1661
4.46	-0.1758	-9.1924	-1.5859	0.0203	-0.0115	0.0145	6.4916	15.3060	5.6944	0.6221	-0.7351	0.2124	-0.1661
4.47	-0.1740	-9.1853	-1.5894	0.0185	-0.0136	0.0138	6.6385	15.1974	5.7011	0.6221	-0.7351	0.2124	-0.1661
4.48	-0.1817	-9.1877	-1.6025	0.0124	-0.0082	0.0141	6.2708	14.9779	5.8615	0.6221	-0.7351	0.2124	-0.1661
4.49	-0.1906	-9.1904	-1.6038	0.0221	-0.0061	0.0153	6.4669	15.2824	5.8416	0.6221	-0.7351	0.2124	-0.1661
4.5	-0.1911	-9.1841	-1.6061	0.0182	-0.0083	0.0127	6.4179	15.2840	5.7689	0.6220	-0.7350	0.2124	-0.1661
4.51	-0.1977	-9.1857	-1.6061	0.0111	-0.0040	0.0105	6.5810	15.2104	5.8249	0.6221	-0.7351	0.2124	-0.1661
4.52	-0.1979	-9.1905	-1.6106	0.0218	-0.0117	0.0135	6.4430	15.0166	5.7776	0.6220	-0.7351	0.2124	-0.1661
4.53	-0.2048	-9.1910	-1.6064	0.0158	-0.0114	0.0153	6.5614	14.9388	5.8458	0.6221	-0.7352	0.2124	-0.1661
4.54	-0.2045	-9.1870	-1.5995	0.0225	-0.0143	0.0151	6.7156	14.9761	5.6840	0.6220	-0.7351	0.2124	-0.1660
4.55	-0.2012	-9.1914	-1.5962	0.0120	-0.0128	0.0159	6.6990	14.7300	5.5445	0.6220	-0.7351	0.2124	-0.1660
4.56	-0.1996	-9.1911	-1.5951	0.0143	-0.0103	0.0115	6.6510	15.0440	5.6682	0.6220	-0.7351	0.2124	-0.1660
4.57	-0.1962	-9.1831	-1.5869	0.0201	-0.0069	0.0112	6.5932	14.9745	5.5951	0.6220	-0.7351	0.2124	-0.1660
4.58	-0.1996	-9.1881	-1.5883	0.0121	-0.0121	0.0075	6.6331	14.8606	5.8600	0.6220	-0.7352	0.2124	-0.1660
4.59	-0.1979	-9.1941	-1.5920	0.0221	-0.0071	0.0159	6.5938	14.7374	5.7764	0.6220	-0.7351	0.2124	-0.1660
4.6	-0.1951	-9.1849	-1.5908	0.0199	-0.0071	0.0144	6.6480	14.7419	5.6574	0.6220	-0.7352	0.2124	-0.1660
4.61	-0.1940	-9.1786	-1.5773	0.0225	-0.0095	0.0139	6.4997	14.8975	5.6076	0.6220	-0.7351	0.2124	-0.1660
4.62	-0.1968	-9.1934	-1.5909	0.0195	-0.0093	0.0117	6.5717	15.0615	5.8888	0.6220	-0.7351	0.2124	-0.1660
4.63	-0.1940	-9.1903	-1.5988	0.0148	-0.0054	0.0120	6.4112	15.0202	5.8352	0.6220	-0.7351	0.2124	-0.1661
4.64	-0.1875	-9.1767	-1.5952	0.0176	-0.0043	0.0116	6.3954	15.0902	5.7849	0.6220	-0.7351	0.2124	-0.1661
4.65	-0.1845	-9.1896	-1.6090	0.0169	-0.0064	0.0096	6.7229	15.2562	5.8039	0.6220	-0.7352	0.2124	-0.1661
4.66	-0.1790	-9.1919	-1.6063	0.0168	-0.0040	0.0149	6.9513	15.0257	5.9553	0.6220	-0.7351	0.2124	-0.1661
4.67	-0.1804	-9.1845	-1.6014	0.0085	-0.0121	0.0161	7.0393	15.0176	6.0470	0.6220	-0.7352	0.2125	-0.1661
4.68	-0.1740	-9.1920	-1.6052	0.0166	-0.0029	0.0160	6.8414	15.2176	5.8723	0.6219	-0.7351	0.2125	-0.1661
4.69	-0.1615	-9.1895	-1.6024	0.0205	-0.0089	0.0147	6.7588	15.3264	5.7775	0.6219	-0.7352	0.2125	-0.1661
4.7	-0.1639	-9.1871	-1.5861	0.0135	-0.0085	0.0142	6.4327	14.9191	5.8427	0.6219	-0.7352	0.2125	-0.1661
4.71	-0.1676	-9.1892	-1.5863	0.0209	-0.0104	0.0155	6.4866	14.9860	5.7229	0.6219	-0.7352	0.2125	-0.1661
4.72	-0.1719	-9.1857	-1.5816	0.0207	-0.0101	0.0129	6.7229	14.9354	5.7390	0.6219	-0.7352	0.2125	-0.1661
4.73	-0.1775	-9.1910	-1.5774	0.0210	-0.0098	0.0157	6.7547	14.9061	5.7012	0.6219	-0.7352	0.2125	-0.1661
4.74	-0.1766	-9.1847	-1.5717	0.0163	-0.0109	0.0119	6.4665	15.1219	5.5986	0.6219	-0.7352	0.2125	-0.1661
4.75	-0.1722	-9.1836	-1.5629	0.0222	-0.0068	0.0140	6.7161	14.9219	5.6629	0.6219	-0.7351	0.2125	-0.1661
4.76	-0.1769	-9.2016	-1.5703	0.0196	-0.0043	0.0156	6.5676	14.7332	5.6199	0.6220	-0.7352	0.2125	-0.1661
4.77	-0.1681	-9.1916	-1.5671	0.0178	-0.0092	0.0146	6.4099	15.0228	5.6772	0.6219	-0.7351	0.2125	-0.1661
4.78	-0.1585	-9.1800	-1.5663	0.0189	-0.0089	0.0127	6.6995	14.9683	5.7593	0.6220	-0.7352	0.2126	-0.1661
4.79	-0.1593	-9.1881	-1.5668	0.0203	-0.0107	0.0141	6.6831	15.1236	5.6232	0.6219	-0.7351	0.2125	-0.1661
4.8	-0.1567	-9.1917	-1.5578	0.0200	-0.0101	0.0160	6.4820	15.0341	5.5175	0.6220	-0.7351	0.2125	-0.1661
4.81	-0.1508	-9.1785	-1.5554	0.0180	-0.0089	0.0147	6.7260	14.8614	5.7860	0.6220	-0.7351	0.2126	-0.1661
4.82	-0.1595	-9.1968	-1.5623	0.0126	-0.0091	0.0129	6.5163	15.0257	5.8289	0.6219	-0.7351	0.2125	-0.1661
4.83	-0.1606	-9.2002	-1.5741	0.0218	-0.0118	0.0154	6.5318	14.9754	5.7099	0.6220	-0.7352	0.2126	-0.1661
4.84	-0.1608	-9.1782	-1.5723	0.0211	-0.0048	0.0133	6.6323	15.1800	5.7089	0.6219	-0.7351	0.2126	-0.1661
4.85	-0.1690	-9.1870	-1.5825	0.0153	-0.0069	0.0117	6.5732	15.0873	5.5297	0.6220	-0.7352	0.2126	-0.1661
4.86	-0.1702	-9.1939	-1.5983	0.0186	-0.0052	0.0130	6.3246	15.0982	5.6304	0.6219	-0.7351	0.2126	-0.1661
4.87	-0.1777	-9.1854	-1.5902	0.0174	-0.0070	0.0153	6.5137	15.0211	5.6419	0.6219	-0.7352	0.2126	-0.1661
4.88	-0.1887	-9.1834	-1.6000	0.0230	-0.0111	0.0135	6.6326	14.9295	5.6410	0.6219	-0.7351	0.2126	-0.1661
4.89	-0.2067	-9.1903	-1.6080	0.0137	-0.0053	0.0142	6.5902	15.0241	5.9323	0.6219	-0.7351	0.2126	-0.1661
4.9	-0.2196	-9.1887	-1.5996	0.0156	-0.0075	0.0140	6.5873	15.0739	5.7749	0.6219	-0.7352	0.2126	-0.1661
4.91	-0.2294	-9.1835	-1.5911	0.0184	-0.0120	0.0101	6.7753	15.0931	5.4705	0.6219	-0.7351	0.2126	-0.1661
4.92	-0.2372	-9.1873	-1.5866	0.0132	-0.0083	0.0151	6.8717	15.1070	5.6396	0.6219	-0.7352	0.2126	-0.1661
4.93	-0.2343	-9.1877	-1.5824	0.0223	-0.0094	0.0152	6.8373	15.0027	5.6545	0.6218	-0.7351	0.2126	-0.1661
4.94	-0.2317	-9.1855	-1.5822	0.0195	-0.0089	0.0134	6.7391	15.0113	5.6132	0.6219	-0.7352	0.2126	-0.1661
4.95	-0.2260	-9.1831	-1.5833	0.0192	-0.0091	0.0109	6.8076	15.1514	5.6892	0.6219	-0.7351	0.2126	-0.1661
4.96	-0.2195	-9.1840	-1.5949	0.0187	-0.0041	0.0097	6.6035	15.1949	5.7264	0.6219	-0.7352	0.2126	-0.1661
4.97	-0.2152	-9.1804	-1.5901	0.0220	-0.0084	0.0103	6.6836	15.1342	5.7256	0.6219	-0.7351	0.2126	-0.1661
4.98	-0.2074	-9.1861	-1.5877	0.0188	-0.0094	0.0128	6.7857	15.1160	5.8174	0.6219	-0.7351	0.2126	-0.1662
4.99	-0.1926	-9.1953	-1.5987	0.0160	-0.0167	0.0078	6.7550	15.1595	5.6325	0.6219	-0.7352	0.2126	-0.1661
5	-0.1889	-9.1728	-1.5852	0.0162	-0.0043	0.0120	6.7760	14.9762	5.6283	0.6218	-0.7351	0.2126	-0.1661
5.01	-0.1839	-9.1800	-1.5883	0.0127	-0.0065	0.0092	6.6719	15.1177	5.7604	0.6219	-0.7352	0.2126	-0.1662
5.02	-0.1765	-9.1921	-1.5936	0.0184	-0.0096	0.0127	6.5379	15.0673	5.8098	0.6218	-0.7352	0.2126	-0.1662
5.03	-0.1677	-9.1852	-1.5868	0.0191	-0.0072	0.0075	6.5183	15.0954	5.8582	0.6219	-0.7352	0.2126	-0.1662
5.04	-0.1540	-9.1939	-1.5872	0.0118	-0.0068	0.0058	6.4999	15.0546	5.9419	0.6218	-0.7352	0.2125	-0.1662
5.05	-0.1513	-9.1923	-1.5863	0.0170	-0.0069	0.0080	6.6798	15.2281	5.4782	0.6218	-0.7352	0.2125	-0.1663
5.06	-0.1519	-9.1823	-1.5794	0.0100	-0.0056	0.0089	6.6304	15.2313	5.7080	0.6218	-0.7353	0.2126	-0.1663
5.07	-0.1494	-9.1921	-1.5862	0.0155	-0.0092	0.0081	6.6476	15.3431	5.9233	0.6217	-0.7352	0.2125	-0.1663
5.08	-0.1548	-9.1973	-1.5894	0.0165	-0.0115	0.0105	6.7816	15.2188	5.8909	0.6218	-0.7353	0.2125	-0.1663
5.09	-0.1589	-9.1865	-1.5936	0.0120	-0.0018	0.0120	6.7619	15.0364	5.8922	0.6217	-0.7353	0.2125	-0.1663
5.1	-0.1629	-9.1829	-1.5886	0.0175	-0.0134	0.0132	6.9497	14.9281	5.7229	0.6217	-0.7353	0.2125	-0.1663
5.11	-0.1660	-9.1913	-1.6114	0.0154	-0.0079	0.0137	6.8328	15.0072	5.7275	0.6216	-0.7353	0.2125	-0.1663
5.12	-0.1689	-9.1908	-1.5990	0.0206	-0.0044	0.0061	6.7484	14.9846	5.8374	0.6217	-0.7353	0.2125	-0.1663
5.13	-0.1726	-9.1875	-1.5879	0.0229	-0.0118	0.0048	6.9317	14.9251	5.9620	0.6217	-0.7353	0.2125	-0.1664
5.14	-0.1724	-9.1987	-1.6012	0.0183	-0.0101	0.0129	6.8393	15.1264	5.7723	0.6217	-0.7353	0.2125	-0.1663
5.15	-0.1776	-9.1891	-1.5848	0.0211	-0.0071	0.0112	6.9087	15.0558	6.0544	0.6217	-0.7353	0.2125	-0.1664
5.16	-0.1789	-9.1809	-1.5667	0.0187	-0.0103	0.0128	7.1811	15.2812	5.8961	0.6217	-0.7353	0.2125	-0.1664
5.17	-0.1806	-9.2008	-1.5790	0.0180	-0.0125	0.0165	7.1300	15.1816	5.8706	0.6217	-0.7353	0.2125	-0.1664
5.18	-0.1799	-9.1855	-1.5710	0.0204	-0.0126	0.0113	6.8702	15.0876	5.8910	0.6217	-0.7352	0.2124	-0.1663
5.19	-0.1796	-9.1752	-1.5635	0.0187	-0.0116	0.0166	6.7940	15.4502	5.7544	0.6217	-0.7353	0.2125	-0.1663
5.2	-0.1819	-9.2000	-1.5708	0.0229	-0.0024	0.0129	6.5815	15.0921	5.8108	0.6217	-0.7353	0.2125	-0.1663
5.21	-0.1795	-9.1818	-1.5580	0.0180	-0.0062	0.0109	6.7143	15.2602	5.7902	0.6217	-0.7353	0.2125	-0.1664
5.22	-0.1819	-9.1746	-1.5397	0.0161	-0.0069	0.0133	6.6866	15.0197	5.7958	0.6217	-0.7353	0.2125	-0.1664
5.23	-0.1771	-9.2058	-1.5583	0.0212	-0.0077	0.0119	6.7317	15.1191	5.9445	0.6217	-0.7353	0.2125	-0.1664
5.24	-0.1664	-9.1857	-1.5529	0.0145	-0.0102	0.0145	6.6073	15.2875	5.7533	0.6217	-0.7353	0.2125	-0.1664
5.25	-0.1725	-9.1760	-1.5537	0.0212	-0.0063	0.0146	6.7775	15.1063	5.6860	0.6217	-0.7352	0.2125	-0.1664
5.26	-0.1877	-9.1942	-1.5673	0.0192	-0.0069	0.0133	6.8689	15.2755	5.8276	0.6217	-0.7353	0.2125	-0.1664
5.27	-0.2025	-9.1909	-1.5703	0.0205	-0.0131	0.0148	6.7616	15.1654	5.7852	0.6217	-0.7353	0.2125	-0.1664
5.28	-0.2115	-9.1766	-1.5612	0.0200	-0.0100	0.0164	6.7798	15.1505	5.8057	0.6218	-0.7353	0.2125	-0.1664
5.29	-0.2163	-9.1895	-1.5704	0.0135	-0.0039	0.0165	6.8764	15.0533	5.8162	0.6217	-0.7352	0.2125	-0.1664
5.3	-0.2124	-9.1965	-1.5899	0.0137	-0.0081	0.0151	6.8478	14.9645	5.5530	0.6217	-0.7353	0.2126	-0.1664
5.31	-0.1968	-9.1854	-1.5812	0.0165	-0.0069	0.0128	6.9345	15.1623	5.7520	0.6217	-0.7353	0.2126	-0.1664
5.32	-0.1859	-9.1966	-1.5992	0.0155	-0.0111	0.0130	6.8846	15.0814	5.5305	0.6216	-0.7353	0.2126	-0.1664
5.33	-0.1769	-9.1977	-1.5988	0.0160	-0.0101	0.0153	6.8759	14.9555	5.6659	0.6217	-0.7354	0.2126	-0.1664
5.34	-0.1757	-9.1776	-1.5997	0.0167	-0.0113	0.0173	6.8299	15.0119	5.8479	0.6217	-0.7353	0.2126	-0.1663
5.35	-0.1756	-9.1807	-1.5987	0.0174	-0.0078	0.0140	6.7682	15.0968	5.8224	0.6217	-0.7353	0.2126	-0.1663
5.36	-0.1704	-9.2073	-1.6167	0.0200	-0.0124	0.0144	6.7800	14.9488	6.0401	0.6216	-0.7352	0.2126	-0.1663
5.37	-0.1697	-9.1953	-1.5987	0.0167	-0.0186	0.0170	6.9022	15.1124	5.7981	0.6217	-0.7353	0.2126	-0.1663
5.38	-0.1620	-9.1785	-1.5787	0.0173	-0.0106	0.0147	6.7867	15.1351	5.7155	0.6217	-0.7353	0.2126	-0.1663
5.39	-0.1697	-9.1909	-1.6036	0.0151	-0.0059	0.0146	6.6024	15.2153	5.9189	0.6216	-0.7353	0.2126	-0.1663
5.4	-0.1788	-9.1882	-1.6121	0.0162	-0.0079	0.0144	6.5462	15.2214	5.7656	0.6217	-0.7353	0.2126	-0.1663
5.41	-0.1936	-9.1798	-1.6112	0.0136	-0.0057	0.0139	6.5383	15.2322	5.8183	0.6216	-0.7353	0.2126	-0.1663
5.42	-0.2016	-9.1886	-1.6058	0.0153	-0.0097	0.0104	6.7439	15.3770	5.7279	0.6216	-0.7354	0.2126	-0.1663
5.43	-0.2142	-9.1957	-1.5972	0.0129	-0.0094	0.0151	6.8813	15.4227	5.6895	0.6215	-0.7353	0.2126	-0.1662
5.44	-0.2102	-9.1893	-1.5947	0.0156	-0.0089	0.0150	6.7542	15.0422	5.8383	0.6216	-0.7354	0.2127	-0.1663
5.45	-0.2109	-9.1824	-1.5838	0.0220	-0.0114	0.0148	6.8131	15.1464	5.7591	0.6216	-0.7354	0.2126	-0.1662
5.46	-0.2114	-9.1962	-1.5870	0.0200	-0.0155	0.0148	6.7016	15.2677	5.8975	0.6216	-0.7354	0.2126	-0.1662
5.47	-0.2051	-9.1915	-1.5869	0.0213	-0.0128	0.0110	6.6949	15.1190	5.7801	0.6216	-0.7353	0.2126	-0.1662
5.48	-0.2024	-9.1691	-1.5734	0.0168	-0.0083	0.0125	6.9405	15.0378	5.7144	0.6216	-0.7354	0.2126	-0.1662
5.49	-0.1984	-9.1869	-1.5985	0.0146	-0.0089	0.0126	6.9446	15.1333	5.6803	0.6216	-0.7354	0.2126	-0.1662
5.5	-0.1981	-9.1862	-1.5911	0.0219	-0.0124	0.0139	6.9582	15.1536	5.5698	0.6216	-0.7353	0.2126	-0.1662
5.51	-0.1935	-9.1843	-1.5802	0.0191	-0.0117	0.0104	6.9280	15.1542	5.9961	0.6217	-0.7354	0.2126	-0.1662
5.52	-0.1886	-9.1910	-1.5753	0.0206	-0.0080	0.0124	6.9652	14.9843	5.7566	0.6216	-0.7353	0.2126	-0.1662
5.53	-0.1799	-9.1935	-1.5633	0.0174	-0.0020	0.0165	6.8783	15.0536	5.7765	0.6217	-0.7354	0.2126	-0.1662
5.54	-0.1739	-9.1881	-1.5648	0.0197	-0.0100	0.0116	6.7882	15.0590	5.7309	0.6216	-0.7353	0.2126	-0.1662
5.55	-0.1719	-9.1869	-1.5681	0.0230	-0.0129	0.0135	6.7571	14.9752	5.7093	0.6217	-0.7353	0.2126	-0.1662
5.56	-0.1728	-9.1910	-1.5634	0.0190	-0.0157	0.0135	6.6976	15.1234	5.7103	0.6217	-0.7353	0.2126	-0.1662
5.57	-0.1689	-9.1863	-1.5718	0.0182	-0.0088	0.0061	6.6798	15.2313	5.7804	0.6216	-0.7353	0.2125	-0.1662
5.58	-0.1692	-9.1817	-1.5881	0.0214	-0.0061	0.0137	6.8306	15.2113	5.8253	0.6217	-0.7354	0.2126	-0.1663
5.59	-0.1757	-9.1761	-1.5842	0.0192	-0.0077	0.0136	6.8201	15.0144	5.7726	0.6217	-0.7353	0.2126	-0.1662
5.6	-0.1771	-9.1992	-1.5986	0.0204	-0.0062	0.0129	6.6494	15.1075	5.6611	0.6217	-0.7354	0.2126	-0.1663
5.61	-0.1793	-9.1899	-1.5968	0.0145	-0.0109	0.0148	6.8211	15.3302	5.9035	0.6216	-0.7353	0.2126	-0.1662
5.62	-0.1779	-9.1838	-1.5834	0.0176	-0.0046	0.0139	6.5377	15.2725	5.8639	0.6217	-0.7353	0.2126	-0.1663
5.63	-0.1716	-9.2000	-1.5903	0.0164	-0.0034	0.0136	6.7423	15.2155	5.9171	0.6216	-0.7353	0.2126	-0.1663
5.64	-0.1581	-9.1845	-1.5841	0.0158	-0.0095	0.0144	6.7846	15.2110	5.7686	0.6216	-0.7353	0.2126	-0.1663
5.65	-0.1486	-9.1781	-1.5929	0.0226	-0.0092	0.0127	6.9373	15.4390	6.0147	0.6217	-0.7353	0.2126	-0.1663
5.66	-0.1500	-9.1991	-1.6063	0.0198	-0.0121	0.0091	7.2092	15.0877	5.9176	0.6216	-0.7353	0.2126	-0.1663
5.67	-0.1563	-9.1999	-1.6024	0.0218	-0.0137	0.0126	7.1598	15.0073	5.7852	0.6217	-0.7353	0.2126	-0.1663
5.68	-0.1603	-9.1869	-1.5951	0.0216	-0.0134	0.0157	6.9766	15.2235	5.8802	0.6216	-0.7353	0.2126	-0.1662
5.69	-0.1661	-9.1929	-1.6040	0.0125	-0.0131	0.0144	7.0340	15.1783	5.9858	0.6217	-0.7354	0.2126	-0.1662
5.7	-0.1676	-9.1905	-1.6084	0.0145	-0.0099	0.0165	7.0556	15.2114	5.9413	0.6216	-0.7353	0.2126	-0.1662
5.71	-0.1700	-9.1777	-1.5897	0.0206	-0.0117	0.0145	7.0317	15.2439	5.5674	0.6217	-0.7354	0.2126	-0.1662
5.72	-0.1732	-9.1844	-1.5866	0.0167	-0.0066	0.0105	6.8818	15.1603	5.8423	0.6216	-0.7353	0.2126	-0.1662
5.73	-0.1770	-9.1960	-1.5888	0.0194	-0.0092	0.0157	6.9358	15.0981	5.9899	0.6217	-0.7353	0.2126	-0.1662
5.74	-0.1837	-9.1861	-1.5816	0.0202	-0.0129	0.0143	7.0519	14.9361	5.8071	0.6217	-0.7353	0.2126	-0.1662
5.75	-0.1882	-9.1775	-1.5749	0.0217	-0.0119	0.0110	7.0983	15.0896	5.7846	0.6216	-0.7353	0.2126	-0.1662
5.76	-0.1889	-9.1925	-1.5833	0.0213	-0.0039	0.0157	6.9394	15.0612	6.0382	0.6217	-0.7354	0.2126	-0.1662
5.77	-0.2043	-9.1998	-1.5967	0.0211	-0.0057	0.0158	6.9312	15.2202	6.0245	0.6217	-0.7353	0.2126	-0.1662
5.78	-0.2107	-9.1829	-1.5905	0.0220	-0.0085	0.0142	7.0320	15.2546	5.7280	0.6218	-0.7353	0.2126	-0.1662
5.79	-0.2071	-9.1781	-1.5858	0.0230	-0.0066	0.0142	6.8074	15.1518	6.0197	0.6217	-0.7352	0.2126	-0.1662
5.8	-0.2157	-9.1942	-1.5964	0.0220	-0.0016	0.0140	6.8219	15.0226	6.1513	0.6217	-0.7353	0.2126	-0.1663
5.81	-0.2172	-9.1774	-1.5656	0.0194	-0.0081	0.0165	7.0157	15.1432	6.0176	0.6217	-0.7352	0.2127	-0.1663
5.82	-0.2276	-9.1816	-1.5591	0.0194	-0.0021	0.0140	6.8297	15.1479	6.0965	0.6217	-0.7352	0.2127	-0.1663
5.83	-0.2321	-9.1990	-1.5685	0.0189	-0.0128	0.0130	6.7391	15.0755	5.9266	0.6218	-0.7353	0.2127	-0.1663
5.84	-0.2314	-9.1780	-1.5585	0.0180	-0.0104	0.0112	6.8463	15.0112	5.9093	0.6217	-0.7352	0.2127	-0.1663
5.85	-0.2269	-9.1788	-1.5668	0.0223	-0.0138	0.0087	6.8489	15.0194	6.0270	0.6218	-0.7353	0.2126	-0.1663
5.86	-0.2098	-9.1919	-1.5927	0.0199	-0.0087	0.0130	7.0253	15.1651	5.7783	0.6217	-0.7352	0.2126	-0.1663
5.87	-0.1990	-9.1938	-1.6138	0.0200	-0.0045	0.0096	6.9640	15.1609	5.8089	0.6218	-0.7352	0.2126	-0.1663
5.88	-0.1853	-9.1799	-1.5993	0.0188	-0.0118	0.0104	6.8928	14.9387	5.9733	0.6218	-0.7352	0.2126	-0.1663
5.89	-0.1729	-9.1934	-1.6060	0.0161	-0.0088	0.0156	6.9230	14.9312	5.9766	0.6217	-0.7352	0.2126	-0.1663
5.9	-0.1694	-9.1968	-1.6085	0.0206	-0.0084	0.0148	6.8892	15.1937	5.9825	0.6218	-0.7352	0.2126	-0.1663
5.91	-0.1639	-9.1764	-1.5808	0.0228	-0.0072	0.0157	7.0619	15.1243	5.9452	0.6218	-0.7352	0.2126	-0.1663
5.92	-0.1589	-9.1914	-1.5864	0.0202	-0.0120	0.0154	7.0265	15.1839	5.8501	0.6218	-0.7352	0.2127	-0.1663
5.93	-0.1652	-9.2054	-1.5961	0.0232	-0.0064	0.0123	6.9050	15.0446	5.9915	0.6217	-0.7351	0.2126	-0.1663
5.94	-0.1775	-9.1897	-1.5854	0.0208	-0.0052	0.0074	6.7865	15.1965	5.9667	0.6218	-0.7352	0.2126	-0.1664
5.95	-0.1839	-9.1853	-1.5941	0.0211	-0.0008	0.0127	6.7637	15.0698	6.1347	0.6218	-0.7351	0.2127	-0.1664
5.96	-0.1883	-9.1835	-1.5854	0.0183	-0.0043	0.0108	6.8856	15.1238	5.8834	0.6218	-0.7352	0.2127	-0.1664
5.97	-0.1855	-9.1909	-1.5935	0.0178	-0.0080	0.0054	6.6245	15.2352	5.8846	0.6218	-0.7351	0.2126	-0.1664
5.98	-0.1811	-9.1748	-1.5807	0.0233	-0.0047	0.0111	6.5873	15.0031	6.0970	0.6218	-0.7351	0.2126	-0.1665
5.99	-0.1741	-9.1928	-1.6034	0.0206	-0.0042	0.0161	6.7452	15.3130	6.0606	0.6218	-0.7351	0.2127	-0.1665
6	-0.1648	-9.2010	-1.6102	0.0219	-0.0035	0.0119	6.7281	15.2384	6.2853	0.6218	-0.7351	0.2127	-0.1665
6.01	-0.1587	-9.1858	-1.5977	0.0210	-0.0065	0.0105	6.7589	15.2045	5.9650	0.6218	-0.7351	0.2127	-0.1665
6.02	-0.1538	-9.1913	-1.6004	0.0218	-0.0072	0.0145	6.7200	15.4112	6.0292	0.6218	-0.7351	0.2127	-0.1665
6.03	-0.1577	-9.1986	-1.6053	0.0210	-0.0019	0.0154	6.8156	15.0777	5.9968	0.6219	-0.7351	0.2127	-0.1666
6.04	-0.1683	-9.1850	-1.5947	0.0205	-0.0087	0.0148	6.9006	15.0889	5.9592	0.6218	-0.7350	0.2127	-0.1666
6.05	-0.1775	-9.1862	-1.5960	0.0209	-0.0048	0.0160	6.9377	14.9971	6.0938	0.6218	-0.7351	0.2127	-0.1666
6.06	-0.1850	-9.1897	-1.5909	0.0205	-0.0031	0.0126	7.0048	14.9368	5.8699	0.6218	-0.7350	0.2128	-0.1666
6.07	-0.1960	-9.1868	-1.5875	0.0208	-0.0038	0.0137	7.0009	15.2744	5.9521	0.6218	-0.7350	0.2128	-0.1666
6.08	-0.2009	-9.1885	-1.5962	0.0205	-0.0081	0.0127	6.9519	15.2216	6.0889	0.6219	-0.7351	0.2128	-0.1666
6.09	-0.2023	-9.1788	-1.5790	0.0206	-0.0046	0.0171	6.8029	15.0953	6.0243	0.6219	-0.7350	0.2128	-0.1666
6.1	-0.1936	-9.1872	-1.5861	0.0205	-0.0092	0.0157	6.9860	15.0667	5.9143	0.6219	-0.7350	0.2128	-0.1666
6.11	-0.1882	-9.2057	-1.6046	0.0204	-0.0143	0.0159	6.7040	15.0526	5.8340	0.6218	-0.7349	0.2128	-0.1666
6.12	-0.1862	-9.1774	-1.5782	0.0206	-0.0098	0.0172	6.8957	15.1052	6.0818	0.6219	-0.7350	0.2128	-0.1666
6.13	-0.1906	-9.1872	-1.5893	0.0205	-0.0053	0.0087	6.7068	15.1235	6.1054	0.6219	-0.7350	0.2128	-0.1666
6.14	-0.1922	-9.1870	-1.5912	0.0213	-0.0060	0.0124	6.6350	15.0201	6.0971	0.6219	-0.7349	0.2128	-0.1666
6.15	-0.2021	-9.1751	-1.5886	0.0210	-0.0060	0.0141	6.8281	15.1783	6.3575	0.6219	-0.7350	0.2128	-0.1667
6.16	-0.2116	-9.1898	-1.6048	0.0212	-0.0051	0.0160	6.9785	15.1428	6.1951	0.6219	-0.7349	0.2128	-0.1667
6.17	-0.2149	-9.1989	-1.6133	0.0214	-0.0052	0.0145	6.9541	15.3764	6.0975	0.6220	-0.7350	0.2129	-0.1667
6.18	-0.2161	-9.1876	-1.6092	0.0176	-0.0071	0.0120	6.7802	15.2083	6.3066	0.6219	-0.7349	0.2128	-0.1667
6.19	-0.2081	-9.1804	-1.5982	0.0211	-0.0086	0.0146	6.7061	15.6060	6.1918	0.6220	-0.7349	0.2129	-0.1667
6.2	-0.1998	-9.1878	-1.5877	0.0213	-0.0101	0.0100	6.5413	15.4493	5.9068	0.6219	-0.7349	0.2128	-0.1667
6.21	-0.1832	-9.1918	-1.5713	0.0213	-0.0087	0.0155	6.5304	15.1898	6.3192	0.6220	-0.7349	0.2129	-0.1667
6.22	-0.1761	-9.1956	-1.5678	0.0212	-0.0127	0.0160	6.7238	15.1600	6.1124	0.6220	-0.7349	0.2129	-0.1667
6.23	-0.1765	-9.1856	-1.5561	0.0211	-0.0156	0.0115	6.9358	15.0344	6.0219	0.6220	-0.7349	0.2128	-0.1667
6.24	-0.1850	-9.1875	-1.5720	0.0212	-0.0094	0.0160	6.7805	15.0963	6.0728	0.6220	-0.7349	0.2128	-0.1667
6.25	-0.1944	-9.1829	-1.6032	0.0192	-0.0034	0.0143	6.8757	14.9834	5.8742	0.6219	-0.7348	0.2128	-0.1667
6.26	-0.2024	-9.1811	-1.6170	0.0218	-0.0036	0.0156	6.9699	14.9826	6.1449	0.6220	-0.7349	0.2129	-0.1667
6.27	-0.2070	-9.1942	-1.6412	0.0192	-0.0076	0.0093	6.8120	15.1498	5.9108	0.6220	-0.7348	0.2129	-0.1667
6.28	-0.2145	-9.1850	-1.6440	0.0213	-0.0100	0.0134	6.7853	15.0786	6.1768	0.6221	-0.7349	0.2129	-0.1667
6.29	-0.2104	-9.1663	-1.6318	0.0222	-0.0091	0.0126	6.7997	15.0700	6.1701	0.6220	-0.7348	0.2128	-0.1667
6.3	-0.2062	-9.1991	-1.6397	0.0193	-0.0124	0.0137	6.7801	15.0444	6.0877	0.6220	-0.7348	0.2129	-0.1667
6.31	-0.1870	-9.2049	-1.6235	0.0211	-0.0019	0.0159	6.8066	15.1346	6.0649	0.6220	-0.7348	0.2129	-0.1667
6.32	-0.1709	-9.1903	-1.5808	0.0213	0.0001	0.0086	6.7162	15.1282	6.1798	0.6220	-0.7348	0.2129	-0.1668
6.33	-0.1593	-9.2002	-1.5793	0.0211	-0.0075	0.0116	6.6237	15.3610	6.1412	0.6221	-0.7349	0.2129	-0.1668
6.34	-0.1412	-9.1924	-1.5808	0.0190	-0.0015	0.0143	6.6234	15.4836	5.9494	0.6220	-0.7348	0.2129	-0.1668
6.35	-0.1337	-9.1843	-1.5902	0.0220	-0.0034	0.0065	6.6866	15.3054	6.2048	0.6221	-0.7348	0.2129	-0.1669
6.36	-0.1275	-9.1851	-1.5825	0.0192	-0.0033	0.0067	6.7319	15.2983	6.0703	0.6220	-0.7347	0.2129	-0.1669
6.37	-0.1273	-9.1920	-1.5758	0.0194	0.0011	0.0128	6.5999	15.4567	5.8510	0.6220	-0.7348	0.2129	-0.1670
6.38	-0.1279	-9.1845	-1.5652	0.0234	-0.0059	0.0130	6.8295	15.4309	6.1467	0.6220	-0.7347	0.2129	-0.1670
6.39	-0.1359	-9.1859	-1.5505	0.0190	-0.0034	0.0107	6.6359	15.3956	6.1133	0.6220	-0.7347	0.2129	-0.1670
6.4	-0.1436	-9.1905	-1.5346	0.0201	-0.0101	0.0136	6.5448	15.2897	5.9615	0.6221	-0.7348	0.2129	-0.1670
6.41	-0.1555	-9.1966	-1.5229	0.0187	-0.0128	0.0117	6.7815	14.9898	6.0148	0.6220	-0.7347	0.2129	-0.1670
6.42	-0.1604	-9.1901	-1.5073	0.0170	-0.0100	0.0158	6.8435	15.1439	5.9918	0.6221	-0.7348	0.2129	-0.1670
6.43	-0.1715	-9.1835	-1.5110	0.0168	-0.0023	0.0121	6.9551	15.2373	6.0005	0.6220	-0.7347	0.2129	-0.1670
6.44	-0.1766	-9.1871	-1.5156	0.0217	-0.0074	0.0149	6.9691	15.2393	6.1098	0.6221	-0.7348	0.2130	-0.1670
6.45	-0.1778	-9.1830	-1.5289	0.0192	-0.0062	0.0103	6.7598	15.0830	6.0675	0.6220	-0.7347	0.2130	-0.1670
6.46	-0.1850	-9.1805	-1.5494	0.0155	-0.0067	0.0118	6.6907	15.0477	6.1299	0.6220	-0.7347	0.2130	-0.1670
6.47	-0.1937	-9.1842	-1.5697	0.0189	-0.0096	0.0133	6.7853	15.1721	5.8700	0.6220	-0.7347	0.2130	-0.1670
6.48	-0.2021	-9.1833	-1.5844	0.0206	-0.0128	0.0134	6.8396	15.1306	5.9700	0.6220	-0.7347	0.2129	-0.1670
6.49	-0.2162	-9.1891	-1.5926	0.0176	-0.0113	0.0200	6.6480	15.1958	6.1786	0.6221	-0.7347	0.2130	-0.1670
6.5	-0.2222	-9.1826	-1.5990	0.0147	-0.0069	0.0137	6.6966	15.3073	6.1700	0.6220	-0.7347	0.2130	-0.1670
6.51	-0.2355	-9.1903	-1.6113	0.0175	-0.0061	0.0178	6.7860	15.4381	6.1490	0.6221	-0.7348	0.2130	-0.1670
6.52	-0.2366	-9.1843	-1.6261	0.0199	-0.0096	0.0173	6.4481	15.3106	6.2089	0.6220	-0.7347	0.2130	-0.1670
6.53	-0.2378	-9.1846	-1.6170	0.0179	-0.0072	0.0115	6.6517	15.1575	6.2797	0.6221	-0.7348	0.2130	-0.1670
6.54	-0.2268	-9.1934	-1.6213	0.0112	-0.0070	0.0157	6.6060	15.4455	6.1671	0.6220	-0.7347	0.2130	-0.1670
6.55	-0.2051	-9.1944	-1.6258	0.0178	-0.0073	0.0141	6.6496	15.3439	6.0023	0.6220	-0.7347	0.2131	-0.1670
6.56	-0.1799	-9.1893	-1.6204	0.0113	-0.0087	0.0151	6.5960	15.3266	5.8794	0.6220	-0.7348	0.2131	-0.1670
6.57	-0.1634	-9.1876	-1.6118	0.0150	-0.0058	0.0120	6.4480	15.4895	6.1967	0.6219	-0.7347	0.2131	-0.1670
6.58	-0.1562	-9.2017	-1.6157	0.0185	-0.0074	0.0115	6.5695	15.4710	6.0259	0.6220	-0.7348	0.2131	-0.1670
6.59	-0.1552	-9.1917	-1.6132	0.0173	-0.0120	0.0150	6.6717	15.2114	6.1443	0.6219	-0.7348	0.2131	-0.1670
6.6	-0.1577	-9.1916	-1.6200	0.0199	-0.0085	0.0111	6.9682	15.0881	6.1506	0.6220	-0.7348	0.2131	-0.1670
6.61	-0.1537	-9.1902	-1.6215	0.0167	-0.0030	0.0141	6.8753	14.9654	5.9563	0.6219	-0.7347	0.2131	-0.1670
6.62	-0.1649	-9.1841	-1.6238	0.0225	-0.0038	0.0178	6.7704	15.1174	6.1700	0.6220	-0.7348	0.2131	-0.1670
6.63	-0.1849	-9.1818	-1.6297	0.0199	-0.0025	0.0143	6.7980	15.1490	6.1178	0.6220	-0.7347	0.2131	-0.1670
6.64	-0.1933	-9.1858	-1.6309	0.0218	-0.0079	0.0153	6.7863	15.2098	6.0674	0.6220	-0.7347	0.2131	-0.1670
6.65	-0.2028	-9.1951	-1.6309	0.0160	-0.0087	0.0151	6.8578	15.3337	6.1744	0.6220	-0.7347	0.2132	-0.1670
6.66	-0.2090	-9.1771	-1.6050	0.0184	-0.0082	0.0157	7.2826	15.3183	6.0695	0.6220	-0.7347	0.2132	-0.1670
6.67	-0.2105	-9.1932	-1.6047	0.0217	-0.0110	0.0099	7.3926	15.3530	5.9377	0.6220	-0.7347	0.2132	-0.1670
6.68	-0.2071	-9.1948	-1.5847	0.0214	-0.0075	0.0125	6.9314	15.4215	6.0637	0.6219	-0.7346	0.2131	-0.1670
6.69	-0.2018	-9.1729	-1.5517	0.0210	-0.0115	0.0128	6.8510	15.6127	6.3160	0.6220	-0.7347	0.2132	-0.1671
6.7	-0.2054	-9.1938	-1.5723	0.0209	-0.0064	0.0090	6.8695	15.3736	6.0254	0.6220	-0.7347	0.2131	-0.1671
6.71	-0.2048	-9.1895	-1.5651	0.0214	-0.0071	0.0141	6.7396	15.0089	6.0555	0.6220	-0.7347	0.2131	-0.1671
6.72	-0.2094	-9.1780	-1.5603	0.0130	-0.0047	0.0150	6.8392	15.2639	6.0538	0.6220	-0.7347	0.2132	-0.1671
6.73	-0.2151	-9.1915	-1.5877	0.0156	-0.0061	0.0135	6.8179	15.4199	6.1384	0.6220	-0.7347	0.2132	-0.1671
6.74	-0.2216	-9.1885	-1.5933	0.0214	-0.0090	0.0121	6.8450	15.3878	5.9758	0.6220	-0.7347	0.2132	-0.1671
6.75	-0.2127	-9.1775	-1.5935	0.0207	-0.0070	0.0142	6.7390	15.3473	6.2340	0.6219	-0.7346	0.2132	-0.1671
6.76	-0.1955	-9.1907	-1.6055	0.0178	-0.0043	0.0150	6.7506	15.0676	6.2241	0.6220	-0.7347	0.2132	-0.1671
6.77	-0.1816	-9.1907	-1.6022	0.0161	-0.0129	0.0116	7.0043	15.1147	6.0766	0.6220	-0.7347	0.2132	-0.1671
6.78	-0.1580	-9.1927	-1.6137	0.0189	-0.0068	0.0101	6.9293	15.1548	6.0366	0.6220	-0.7348	0.2132	-0.1671
6.79	-0.1421	-9.1984	-1.6294	0.0175	-0.0089	0.0123	6.8225	15.1572	6.1444	0.6219	-0.7347	0.2132	-0.1671
6.8	-0.1271	-9.1883	-1.6197	0.0213	-0.0077	0.0151	6.7130	15.2111	6.0164	0.6220	-0.7347	0.2132	-0.1671
6.81	-0.1267	-9.1967	-1.6233	0.0222	-0.0031	0.0151	6.8031	15.1295	6.2602	0.6220	-0.7347	0.2132	-0.1672
6.82	-0.1284	-9.1964	-1.6203	0.0211	-0.0111	0.0148	6.8349	15.1424	6.0588	0.6220	-0.7346	0.2132	-0.1671
6.83	-0.1333	-9.1841	-1.6030	0.0213	-0.0090	0.0127	6.7365	15.1613	6.0449	0.6221	-0.7347	0.2132	-0.1672
6.84	-0.1525	-9.1814	-1.5949	0.0191	-0.0092	0.0155	6.7344	15.3581	5.9021	0.6220	-0.7346	0.2132	-0.1671
6.85	-0.1638	-9.1878	-1.5910	0.0219	-0.0096	0.0116	6.8126	15.2823	6.1010	0.6221	-0.7347	0.2132	-0.1672
6.86	-0.1681	-9.1868	-1.5859	0.0189	-0.0096	0.0149	6.8279	15.3408	6.1678	0.6220	-0.7346	0.2132	-0.1671
6.87	-0.1732	-9.1908	-1.5804	0.0176	-0.0156	0.0147	6.8432	15.0654	5.8835	0.6221	-0.7346	0.2132	-0.1671
6.88	-0.1759	-9.1938	-1.5777	0.0224	-0.0104	0.0154	6.7957	15.2606	6.0767	0.6221	-0.7346	0.2132	-0.1671
6.89	-0.1792	-9.1860	-1.5711	0.0187	-0.0057	0.0062	6.9473	15.3417	5.9255	0.6220	-0.7346	0.2132	-0.1671
6.9	-0.1780	-9.1828	-1.5632	0.0177	-0.0083	0.0135	6.6881	15.1993	6.1930	0.6221	-0.7346	0.2132	-0.1671
6.91	-0.1859	-9.1891	-1.5736	0.0211	-0.0009	0.0105	6.8342	15.3679	6.1584	0.6220	-0.7346	0.2132	-0.1672
6.92	-0.1982	-9.1890	-1.5641	0.0186	-0.0050	0.0150	6.8732	15.2269	6.2047	0.6221	-0.7346	0.2132	-0.1672
6.93	-0.2119	-9.1865	-1.5670	0.0202	-0.0083	0.0151	6.8120	15.2317	6.1366	0.6220	-0.7345	0.2132	-0.1672
6.94	-0.2243	-9.1842	-1.5745	0.0198	-0.0045	0.0149	6.7178	15.2120	6.1664	0.6221	-0.7346	0.2132	-0.1672
6.95	-0.2287	-9.1805	-1.5752	0.0186	-0.0081	0.0152	6.6797	15.2636	6.0237	0.6220	-0.7346	0.2132	-0.1672
6.96	-0.2260	-9.1820	-1.5725	0.0206	-0.0085	0.0146	6.8317	15.3359	5.9946	0.6221	-0.7346	0.2133	-0.1672
6.97	-0.2284	-9.1834	-1.5776	0.0213	-0.0119	0.0177	6.9228	15.2092	6.0940	0.6221	-0.7346	0.2133	-0.1672
6.98	-0.2233	-9.1814	-1.5853	0.0217	-0.0110	0.0122	6.8918	15.2453	5.7716	0.6221	-0.7346	0.2133	-0.1672
6.99	-0.2128	-9.1841	-1.5818	0.0183	-0.0071	0.0100	6.7930	15.1922	6.0315	0.6221	-0.7346	0.2132	-0.1672
7	-0.1969	-9.1813	-1.5850	0.0228	-0.0084	0.0167	6.9059	15.0329	6.0568	0.6221	-0.7345	0.2132	-0.1672
7.01	-0.1835	-9.1836	-1.5942	0.0213	-0.0084	0.0146	7.0255	15.1913	6.0591	0.6222	-0.7346	0.2133	-0.1672
7.02	-0.1680	-9.1915	-1.5982	0.0171	-0.0093	0.0138	6.9339	15.3713	5.8684	0.6221	-0.7345	0.2133	-0.1672
7.03	-0.1563	-9.1857	-1.5958	0.0167	-0.0110	0.0134	6.9539	15.2233	5.9445	0.6222	-0.7346	0.2133	-0.1672
7.04	-0.1446	-9.1876	-1.5956	0.0197	-0.0073	0.0125	7.0304	15.2488	5.9740	0.6221	-0.7345	0.2133	-0.1672
7.05	-0.1388	-9.1977	-1.5983	0.0203	-0.0120	0.0144	6.8305	15.0862	5.9648	0.6221	-0.7345	0.2133	-0.1672
7.06	-0.1377	-9.1865	-1.5888	0.0205	-0.0130	0.0162	6.8829	15.1052	5.9479	0.6221	-0.7345	0.2133	-0.1672
7.07	-0.1349	-9.1875	-1.5861	0.0183	-0.0091	0.0152	6.9241	15.5011	6.0448	0.6221	-0.7345	0.2132	-0.1671
7.08	-0.1473	-9.1951	-1.5832	0.0194	-0.0070	0.0162	6.8136	15.4650	6.0318	0.6222	-0.7346	0.2133	-0.1672
7.09	-0.1576	-9.1949	-1.5777	0.0213	-0.0066	0.0125	6.8240	15.2143	5.9526	0.6221	-0.7345	0.2133	-0.1672
7.1	-0.1712	-9.1894	-1.5763	0.0198	-0.0111	0.0150	6.8733	15.0845	6.4166	0.6222	-0.7345	0.2133	-0.1672
7.11	-0.1831	-9.1872	-1.5816	0.0197	-0.0031	0.0150	6.9119	15.3524	6.3149	0.6221	-0.7344	0.2133	-0.1672
7.12	-0.2005	-9.1825	-1.5895	0.0171	-0.0097	0.0149	6.9983	15.2662	6.0824	0.6222	-0.7345	0.2133	-0.1672
7.13	-0.2130	-9.1788	-1.5921	0.0142	-0.0063	0.0156	6.9776	15.1173	6.0425	0.6221	-0.7345	0.2133	-0.1672
7.14	-0.2259	-9.1851	-1.6060	0.0212	-0.0092	0.0138	6.7711	15.4258	6.1104	0.6221	-0.7345	0.2133	-0.1672
7.15	-0.2388	-9.1879	-1.6123	0.0208	-0.0135	0.0108	7.1209	15.2920	6.2572	0.6222	-0.7345	0.2133	-0.1672
7.16	-0.2433	-9.1756	-1.6066	0.0214	-0.0112	0.0130	7.2441	15.2238	6.1976	0.6222	-0.7345	0.2133	-0.1671
7.17	-0.2487	-9.1869	-1.6078	0.0206	-0.0155	0.0156	7.1342	15.2577	6.1394	0.6222	-0.7345	0.2133	-0.1671
7.18	-0.2439	-9.1929	-1.6099	0.0209	-0.0093	0.0160	6.9422	15.2498	6.0224	0.6221	-0.7344	0.2133	-0.1671
7.19	-0.2413	-9.1847	-1.6009	0.0212	-0.0144	0.0124	6.9926	15.4536	5.9789	0.6222	-0.7345	0.2133	-0.1671
7.2	-0.2317	-9.1832	-1.5869	0.0216	-0.0126	0.0119	6.8549	15.3914	6.0306	0.6222	-0.7345	0.2132	-0.1671
7.21	-0.2299	-9.1864	-1.5868	0.0207	-0.0101	0.0146	6.9443	15.2310	5.9262	0.6223	-0.7345	0.2133	-0.1671
7.22	-0.2214	-9.1870	-1.5796	0.0187	-0.0080	0.0189	6.8829	15.2563	5.9127	0.6222	-0.7344	0.2133	-0.1671
7.23	-0.2124	-9.1847	-1.5837	0.0213	-0.0125	0.0103	6.8387	15.2210	6.1696	0.6222	-0.7344	0.2133	-0.1671
7.24	-0.2026	-9.1847	-1.5866	0.0221	-0.0163	0.0148	6.7622	15.3107	5.9866	0.6223	-0.7345	0.2132	-0.1671
7.25	-0.1891	-9.1820	-1.5878	0.0125	-0.0067	0.0118	6.8727	15.3243	6.1015	0.6222	-0.7344	0.2132	-0.1670
7.26	-0.1780	-9.1865	-1.5862	0.0146	-0.0073	0.0124	6.7766	15.4383	6.0751	0.6223	-0.7345	0.2133	-0.1671
7.27	-0.1631	-9.1876	-1.5831	0.0122	-0.0100	0.0160	6.7846	15.4810	6.1286	0.6222	-0.7345	0.2133	-0.1670
7.28	-0.1488	-9.1940	-1.5864	0.0156	-0.0086	0.0137	6.7921	15.3430	6.2004	0.6223	-0.7346	0.2133	-0.1670
7.29	-0.1447	-9.1941	-1.5897	0.0185	-0.0100	0.0108	6.7742	15.6210	6.1575	0.6222	-0.7345	0.2132	-0.1670
7.3	-0.1412	-9.1867	-1.5951	0.0178	-0.0001	0.0146	6.6958	15.5127	6.1807	0.6222	-0.7345	0.2133	-0.1671
7.31	-0.1370	-9.1860	-1.5894	0.0145	-0.0039	0.0128	6.7005	15.3535	6.1646	0.6222	-0.7345	0.2133	-0.1671
7.32	-0.1395	-9.1922	-1.5952	0.0190	-0.0076	0.0135	6.7228	15.4993	6.1797	0.6221	-0.7345	0.2133	-0.1671
7.33	-0.1385	-9.1885	-1.5921	0.0156	-0.0069	0.0088	6.6728	15.4874	6.1688	0.6222	-0.7346	0.2133	-0.1671
7.34	-0.1394	-9.1881	-1.5867	0.0180	-0.0089	0.0145	6.6645	15.2088	6.0435	0.6221	-0.7345	0.2133	-0.1671
7.35	-0.1430	-9.1929	-1.5829	0.0181	-0.0111	0.0151	6.8992	15.1492	6.1943	0.6222	-0.7346	0.2133	-0.1671
7.36	-0.1448	-9.1952	-1.5749	0.0146	-0.0085	0.0136	6.8430	15.1657	6.0974	0.6221	-0.7345	0.2133	-0.1671
7.37	-0.1465	-9.1883	-1.5740	0.0202	-0.0063	0.0138	6.9885	15.1679	6.0964	0.6222	-0.7345	0.2133	-0.1671
7.38	-0.1530	-9.1902	-1.5695	0.0168	-0.0116	0.0155	6.8920	15.3104	6.0984	0.6221	-0.7345	0.2133	-0.1671
7.39	-0.1565	-9.1853	-1.5689	0.0223	-0.0074	0.0171	6.8362	15.3486	6.1064	0.6221	-0.7345	0.2133	-0.1671
7.4	-0.1612	-9.1872	-1.5809	0.0203	-0.0065	0.0178	7.0755	15.2180	5.9897	0.6222	-0.7345	0.2134	-0.1671
7.41	-0.1627	-9.1917	-1.5851	0.0177	-0.0076	0.0178	6.8527	15.2866	6.1709	0.6222	-0.7345	0.2134	-0.1671
7.42	-0.1683	-9.1867	-1.5882	0.0196	-0.0130	0.0150	6.7319	15.3254	6.1394	0.6222	-0.7345	0.2134	-0.1671
7.43	-0.1769	-9.1839	-1.5924	0.0187	-0.0116	0.0190	6.6070	15.3929	5.9756	0.6221	-0.7344	0.2134	-0.1670
7.44	-0.1845	-9.1829	-1.5997	0.0208	-0.0064	0.0162	6.7642	15.4161	6.1174	0.6222	-0.7345	0.2134	-0.1670
7.45	-0.1935	-9.1893	-1.6072	0.0186	-0.0051	0.0148	6.4570	15.3893	6.0531	0.6222	-0.7345	0.2134	-0.1670
7.46	-0.1972	-9.1895	-1.6061	0.0177	-0.0082	0.0152	6.6408	15.4178	6.1603	0.6222	-0.7345	0.2134	-0.1670
7.47	-0.2038	-9.1840	-1.6053	0.0164	-0.0095	0.0149	6.9018	15.3883	6.2083	0.6222	-0.7344	0.2134	-0.1670
7.48	-0.2067	-9.1915	-1.5967	0.0210	-0.0076	0.0153	6.7621	15.4445	5.7608	0.6222	-0.7345	0.2135	-0.1670
7.49	-0.2083	-9.1892	-1.6004	0.0150	-0.0046	0.0157	6.7855	15.3052	6.1785	0.6222	-0.7345	0.2135	-0.1670
7.5	-0.2140	-9.1857	-1.5980	0.0159	-0.0086	0.0149	6.8737	15.4833	6.0126	0.6221	-0.7344	0.2135	-0.1670
7.51	-0.2173	-9.1879	-1.5974	0.0183	-0.0046	0.0148	6.7604	15.4843	5.9085	0.6222	-0.7345	0.2135	-0.1670
7.52	-0.2187	-9.1879	-1.5983	0.0152	-0.0096	0.0153	6.7152	15.5223	5.9942	0.6221	-0.7345	0.2135	-0.1670
7.53	-0.2226	-9.1878	-1.6084	0.0233	-0.0107	0.0112	6.8744	15.3548	5.8699	0.6222	-0.7345	0.2135	-0.1670
7.54	-0.2198	-9.1913	-1.6182	0.0194	-0.0091	0.0107	6.9551	15.3111	6.0272	0.6221	-0.7344	0.2135	-0.1670
7.55	-0.2167	-9.1906	-1.6203	0.0201	-0.0088	0.0133	6.8335	15.3189	6.0110	0.6222	-0.7345	0.2135	-0.1670
7.56	-0.2172	-9.1849	-1.6169	0.0223	-0.0101	0.0149	6.9424	15.1913	6.1462	0.6222	-0.7344	0.2135	-0.1670
7.57	-0.2116	-9.1856	-1.6227	0.0192	-0.0087	0.0148	6.9059	15.3489	5.9903	0.6222	-0.7344	0.2135	-0.1670
7.58	-0.2064	-9.1873	-1.6229	0.0209	-0.0112	0.0151	6.6673	15.3053	6.0111	0.6223	-0.7345	0.2135	-0.1670
7.59	-0.2015	-9.1885	-1.6225	0.0212	-0.0087	0.0111	6.8725	15.2297	6.1338	0.6222	-0.7344	0.2135	-0.1670
7.6	-0.1994	-9.1923	-1.6248	0.0204	-0.0093	0.0133	6.8191	15.2494	6.0205	0.6223	-0.7345	0.2135	-0.1670
7.61	-0.1982	-9.1866	-1.6185	0.0211	-0.0142	0.0123	6.6922	15.2326	5.9784	0.6222	-0.7344	0.2135	-0.1670
7.62	-0.1964	-9.1902	-1.6085	0.0211	-0.0124	0.0114	6.8111	15.3481	6.2619	0.6223	-0.7344	0.2135	-0.1670
7.63	-0.1896	-9.1885	-1.6057	0.0200	-0.0068	0.0148	6.7443	15.3025	6.2096	0.6222	-0.7344	0.2135	-0.1670
7.64	-0.1956	-9.1805	-1.5920	0.0199	-0.0059	0.0101	6.6645	15.3910	5.8807	0.6222	-0.7344	0.2135	-0.1670
7.65	-0.1952	-9.1850	-1.5847	0.0214	-0.0066	0.0123	7.0069	15.5275	6.0211	0.6223	-0.7344	0.2135	-0.1671
7.66	-0.2076	-9.1883	-1.5777	0.0191	0.0007	0.0154	7.2388	15.2105	6.4039	0.6222	-0.7344	0.2135	-0.1671
7.67	-0.2035	-9.1877	-1.5745	0.0216	-0.0031	0.0140	7.1927	15.1862	6.3064	0.6223	-0.7344	0.2135	-0.1671
7.68	-0.1970	-9.1866	-1.5711	0.0234	-0.0071	0.0110	6.8172	15.1247	6.0669	0.6222	-0.7343	0.2135	-0.1671
7.69	-0.1877	-9.1891	-1.5621	0.0207	-0.0084	0.0099	6.7618	15.6270	6.0460	0.6223	-0.7344	0.2135	-0.1671
7.7	-0.1788	-9.1853	-1.5577	0.0189	-0.0063	0.0108	6.9339	15.2814	6.2149	0.6223	-0.7343	0.2135	-0.1672
7.71	-0.1668	-9.1875	-1.5515	0.0221	-0.0081	0.0136	6.8140	15.3491	5.9847	0.6223	-0.7344	0.2135	-0.1672
7.72	-0.1535	-9.1867	-1.5397	0.0203	-0.0155	0.0111	6.8277	15.3980	5.9494	0.6223	-0.7343	0.2135	-0.1671
7.73	-0.1443	-9.1881	-1.5336	0.0230	-0.0118	0.0139	7.1395	15.3429	6.1164	0.6223	-0.7343	0.2135	-0.1671
7.74	-0.1420	-9.1903	-1.5215	0.0247	-0.0075	0.0149	6.7891	15.3396	5.9697	0.6223	-0.7343	0.2135	-0.1671
7.75	-0.1386	-9.1853	-1.5145	0.0212	-0.0101	0.0130	6.9873	15.1035	5.9913	0.6223	-0.7342	0.2134	-0.1671
7.76	-0.1379	-9.1904	-1.5080	0.0213	-0.0098	0.0146	6.9853	15.2675	5.9412	0.6224	-0.7343	0.2135	-0.1672
7.77	-0.1397	-9.1920	-1.5039	0.0179	-0.0125	0.0143	6.7250	15.2334	6.0557	0.6223	-0.7343	0.2135	-0.1671
7.78	-0.1454	-9.1898	-1.5026	0.0195	-0.0069	0.0135	6.7974	15.4101	6.1921	0.6224	-0.7343	0.2135	-0.1671
7.79	-0.1380	-9.1908	-1.5087	0.0089	-0.0068	0.0156	6.9217	15.3926	6.0214	0.6223	-0.7343	0.2135	-0.1671
7.8	-0.1360	-9.1856	-1.5104	0.0062	-0.0133	0.0140	6.8965	15.3925	6.0774	0.6223	-0.7344	0.2135	-0.1671
7.81	-0.1337	-9.1861	-1.5332	0.0183	-0.0081	0.0149	6.9218	15.2365	6.0469	0.6223	-0.7344	0.2135	-0.1671
7.82	-0.1319	-9.1889	-1.5491	0.0075	-0.0071	0.0143	6.8275	15.2300	6.0673	0.6222	-0.7343	0.2135	-0.1671
7.83	-0.1362	-9.1919	-1.5567	0.0133	-0.0116	0.0159	6.8120	15.3156	6.1358	0.6223	-0.7345	0.2135	-0.1671
7.84	-0.1466	-9.1863	-1.5772	0.0133	-0.0060	0.0149	6.8334	15.4574	6.1747	0.6222	-0.7344	0.2135	-0.1671
7.85	-0.1529	-9.1919	-1.6065	0.0120	-0.0019	0.0132	6.8149	15.2449	6.0321	0.6222	-0.7345	0.2136	-0.1671
7.86	-0.1636	-9.1941	-1.6267	0.0186	-0.0069	0.0151	6.8460	15.2320	5.8360	0.6221	-0.7344	0.2136	-0.1671
7.87	-0.1832	-9.1946	-1.6338	0.0133	-0.0023	0.0088	6.8938	15.3167	6.1548	0.6221	-0.7345	0.2136	-0.1671
7.88	-0.1952	-9.1924	-1.6429	0.0118	-0.0067	0.0151	6.9352	15.3626	6.0924	0.6221	-0.7345	0.2136	-0.1671
7.89	-0.2085	-9.1866	-1.6516	0.0092	-0.0090	0.0157	6.7550	15.3522	6.0269	0.6221	-0.7345	0.2136	-0.1671
7.9	-0.2241	-9.1910	-1.6645	0.0197	-0.0089	0.0132	6.7342	15.1966	6.1781	0.6221	-0.7345	0.2136	-0.1671
7.91	-0.2375	-9.1954	-1.6677	0.0136	-0.0176	0.0106	6.9753	15.1332	6.1192	0.6221	-0.7345	0.2136	-0.1671
7.92	-0.2484	-9.1859	-1.6706	0.0192	-0.0060	0.0161	7.0319	15.2036	5.7921	0.6221	-0.7345	0.2136	-0.1671
7.93	-0.2611	-9.1810	-1.6685	0.0223	-0.0102	0.0152	7.1129	15.2681	5.8706	0.6220	-0.7344	0.2136	-0.1670
7.94	-0.2735	-9.1858	-1.6655	0.0189	-0.0116	0.0178	6.9046	15.0903	6.1155	0.6221	-0.7345	0.2136	-0.1670
7.95	-0.2810	-9.1913	-1.6627	0.0190	-0.0084	0.0078	6.9644	15.2450	6.0235	0.6221	-0.7345	0.2136	-0.1671
7.96	-0.2759	-9.1945	-1.6545	0.0238	-0.0092	0.0115	6.9324	15.1476	6.1533	0.6221	-0.7345	0.2136	-0.1671
7.97	-0.2688	-9.1899	-1.6457	0.0198	-0.0091	0.0149	6.8063	15.2461	6.1473	0.6221	-0.7345	0.2136	-0.1671
7.98	-0.2616	-9.1884	-1.6409	0.0220	-0.0092	0.0101	6.9183	15.3134	6.0294	0.6221	-0.7345	0.2136	-0.1671
7.99	-0.2418	-9.1849	-1.6248	0.0226	-0.0133	0.0119	6.9092	15.3584	6.0944	0.6221	-0.7345	0.2136	-0.1671
8	-0.2199	-9.1875	-1.6103	0.0203	-0.0083	0.0110	6.8352	15.1214	5.9401	0.6221	-0.7344	0.2135	-0.1671
8.01	-0.2017	-9.1915	-1.6005	0.0204	-0.0078	0.0087	6.6376	15.2891	6.2058	0.6222	-0.7345	0.2136	-0.1671
8.02	-0.1772	-9.1874	-1.5793	0.0232	-0.0077	0.0049	6.7763	15.3643	6.3440	0.6221	-0.7344	0.2135	-0.1671
8.03	-0.1605	-9.1837	-1.5692	0.0210	-0.0055	0.0132	6.7068	15.1120	6.0611	0.6222	-0.7345	0.2135	-0.1672
8.04	-0.1431	-9.1907	-1.5592	0.0222	-0.0102	0.0102	6.9150	15.1474	5.9668	0.6221	-0.7344	0.2135	-0.1671
8.05	-0.1313	-9.1912	-1.5540	0.0227	-0.0073	0.0154	6.9171	15.2937	6.0900	0.6222	-0.7344	0.2135	-0.1672
8.06	-0.1287	-9.1893	-1.5460	0.0208	-0.0107	0.0146	6.8461	15.4309	6.2142	0.6222	-0.7344	0.2135	-0.1672
8.07	-0.1280	-9.1896	-1.5395	0.0214	-0.0099	0.0131	6.7955	15.3852	6.2354	0.6222	-0.7344	0.2135	-0.1671
8.08	-0.1268	-9.1904	-1.5395	0.0210	-0.0094	0.0146	6.8372	15.3028	6.1360	0.6223	-0.7344	0.2135	-0.1672
8.09	-0.1265	-9.1889	-1.5330	0.0213	-0.0163	0.0109	6.6749	15.4602	6.1246	0.6222	-0.7344	0.2135	-0.1671
8.1	-0.1183	-9.1911	-1.5370	0.0198	-0.0146	0.0140	6.8799	15.2356	5.9585	0.6223	-0.7344	0.2135	-0.1671
8.11	-0.1176	-9.1889	-1.5365	0.0193	-0.0126	0.0150	6.9824	15.3294	6.0526	0.6222	-0.7343	0.2134	-0.1671
8.12	-0.1226	-9.1900	-1.5377	0.0161	-0.0151	0.0151	6.9996	15.1764	6.1997	0.6223	-0.7344	0.2134	-0.1671
8.13	-0.1290	-9.1867	-1.5444	0.0194	-0.0087	0.0145	6.9220	15.1915	5.8929	0.6222	-0.7344	0.2134	-0.1671
8.14	-0.1368	-9.1891	-1.5486	0.0222	-0.0096	0.0109	6.9463	15.2366	5.9494	0.6222	-0.7344	0.2134	-0.1671
8.15	-0.1610	-9.1966	-1.5598	0.0214	-0.0082	0.0147	7.1730	15.3387	6.1467	0.6223	-0.7344	0.2134	-0.1671
8.16	-0.1827	-9.1899	-1.5690	0.0182	-0.0121	0.0146	7.2566	15.4121	6.3533	0.6223	-0.7344	0.2134	-0.1671
8.17	-0.1928	-9.1836	-1.5707	0.0190	-0.0140	0.0146	7.3908	15.4577	6.1862	0.6223	-0.7344	0.2134	-0.1670
8.18	-0.2061	-9.1839	-1.5793	0.0179	-0.0134	0.0171	7.0460	15.3322	5.7948	0.6222	-0.7343	0.2134	-0.1670
8.19	-0.2158	-9.1894	-1.5822	0.0135	-0.0078	0.0136	6.8811	15.5700	6.0821	0.6223	-0.7344	0.2134	-0.1670
8.2	-0.2175	-9.1907	-1.5927	0.0194	-0.0062	0.0155	6.6448	15.4932	5.9590	0.6223	-0.7344	0.2134	-0.1670
8.21	-0.2160	-9.1878	-1.5947	0.0160	-0.0080	0.0116	6.8820	15.3421	6.1157	0.6223	-0.7344	0.2135	-0.1670
8.22	-0.2184	-9.1889	-1.5976	0.0151	-0.0140	0.0108	6.7612	15.5039	6.0739	0.6222	-0.7344	0.2134	-0.1670
8.23	-0.2163	-9.1856	-1.6032	0.0165	-0.0103	0.0094	6.7336	15.3462	6.1437	0.6222	-0.7344	0.2134	-0.1670
8.24	-0.2165	-9.1895	-1.6166	0.0180	-0.0100	0.0156	6.7731	15.2595	5.9909	0.6222	-0.7344	0.2134	-0.1670
8.25	-0.2121	-9.1890	-1.6220	0.0173	-0.0068	0.0103	6.6639	15.4985	5.8777	0.6222	-0.7344	0.2134	-0.1670
8.26	-0.2028	-9.1902	-1.6219	0.0154	-0.0071	0.0134	6.8350	15.5287	6.0629	0.6222	-0.7345	0.2134	-0.1670
8.27	-0.1983	-9.1894	-1.6236	0.0190	-0.0115	0.0151	6.7367	15.2470	6.1174	0.6222	-0.7344	0.2134	-0.1670
8.28	-0.1948	-9.1901	-1.6188	0.0200	-0.0157	0.0146	6.9216	15.3547	6.0555	0.6223	-0.7345	0.2134	-0.1670
8.29	-0.1908	-9.1897	-1.6113	0.0195	-0.0101	0.0151	7.0563	15.2229	5.8972	0.6222	-0.7344	0.2134	-0.1670
8.3	-0.1813	-9.1864	-1.5932	0.0149	-0.0076	0.0150	6.8006	15.3173	6.1050	0.6222	-0.7345	0.2134	-0.1670
8.31	-0.1788	-9.1869	-1.5853	0.0191	-0.0099	0.0154	6.9565	15.1875	6.2191	0.6222	-0.7345	0.2134	-0.1669
8.32	-0.1822	-9.1903	-1.5722	0.0196	-0.0124	0.0131	6.8705	15.3226	6.1893	0.6222	-0.7344	0.2134	-0.1669
8.33	-0.1762	-9.1900	-1.5648	0.0201	-0.0111	0.0146	6.8685	15.3115	6.0839	0.6223	-0.7345	0.2134	-0.1669
8.34	-0.1725	-9.1882	-1.5590	0.0207	-0.0105	0.0151	6.8624	15.3028	6.1314	0.6222	-0.7344	0.2134	-0.1669
8.35	-0.1716	-9.1900	-1.5618	0.0122	-0.0113	0.0142	6.9238	15.1331	6.0238	0.6223	-0.7345	0.2134	-0.1669
8.36	-0.1693	-9.1888	-1.5645	0.0199	-0.0095	0.0097	6.9849	15.2230	6.1073	0.6222	-0.7344	0.2134	-0.1669
8.37	-0.1721	-9.1843	-1.5730	0.0179	-0.0158	0.0178	6.7938	15.4566	6.0915	0.6222	-0.7345	0.2134	-0.1669
8.38	-0.1723	-9.1840	-1.5789	0.0222	-0.0102	0.0142	6.7036	15.3038	6.1487	0.6222	-0.7344	0.2134	-0.1669
8.39	-0.1707	-9.1901	-1.5879	0.0158	-0.0060	0.0129	6.9060	15.3692	6.2167	0.6222	-0.7344	0.2134	-0.1669
8.4	-0.1749	-9.1868	-1.5956	0.0191	-0.0036	0.0157	6.6664	15.5001	6.1658	0.6222	-0.7345	0.2134	-0.1669
8.41	-0.1764	-9.1829	-1.6055	0.0218	-0.0079	0.0120	6.6101	15.3302	6.2039	0.6222	-0.7344	0.2134	-0.1669
8.42	-0.1828	-9.1890	-1.6130	0.0154	-0.0072	0.0128	6.6471	15.5114	6.1335	0.6223	-0.7345	0.2134	-0.1669
8.43	-0.1825	-9.1892	-1.6158	0.0201	-0.0110	0.0152	6.8960	15.6795	5.9843	0.6222	-0.7344	0.2134	-0.1669
8.44	-0.1845	-9.1872	-1.6231	0.0209	-0.0068	0.0118	6.8459	15.4107	6.0349	0.6223	-0.7345	0.2134	-0.1669
8.45	-0.1885	-9.1934	-1.6267	0.0165	-0.0124	0.0127	6.7776	15.4209	6.1373	0.6222	-0.7344	0.2134	-0.1669
8.46	-0.1863	-9.1936	-1.6265	0.0221	-0.0133	0.0146	6.7825	15.5265	6.2833	0.6223	-0.7345	0.2134	-0.1669
8.47	-0.1838	-9.1929	-1.6252	0.0187	-0.0155	0.0155	6.7885	15.2695	6.2731	0.6222	-0.7344	0.2134	-0.1668
8.48	-0.1888	-9.1894	-1.6246	0.0166	-0.0152	0.0134	6.8917	15.1148	5.9292	0.6223	-0.7345	0.2134	-0.1668
8.49	-0.1899	-9.1854	-1.6218	0.0206	-0.0075	0.0177	6.8755	15.1629	5.9366	0.6223	-0.7345	0.2134	-0.1668
8.5	-0.1904	-9.1865	-1.6168	0.0198	-0.0102	0.0149	6.8722	15.1336	5.9281	0.6222	-0.7344	0.2134	-0.1668
8.51	-0.1930	-9.1933	-1.6091	0.0211	-0.0076	0.0129	6.7930	15.2620	6.0341	0.6223	-0.7345	0.2134	-0.1668
8.52	-0.1998	-9.1906	-1.6004	0.0202	-0.0125	0.0080	7.0260	15.2008	6.0262	0.6223	-0.7344	0.2134	-0.1668
8.53	-0.1971	-9.1914	-1.5938	0.0165	-0.0069	0.0100	6.8094	15.3166	6.0030	0.6223	-0.7345	0.2134	-0.1669
8.54	-0.1964	-9.1842	-1.5818	0.0242	-0.0078	0.0105	6.7664	15.2283	6.0380	0.6223	-0.7344	0.2134	-0.1668
8.55	-0.1974	-9.1833	-1.5661	0.0224	-0.0115	0.0111	6.8336	15.1261	5.9811	0.6223	-0.7344	0.2134	-0.1669
8.56	-0.1908	-9.1911	-1.5668	0.0214	-0.0083	0.0151	6.8718	15.3555	5.9478	0.6223	-0.7344	0.2134	-0.1669
8.57	-0.1862	-9.1873	-1.5560	0.0217	-0.0057	0.0081	6.8984	15.4826	6.1184	0.6223	-0.7344	0.2133	-0.1669
8.58	-0.1829	-9.1829	-1.5431	0.0174	-0.0048	0.0103	6.6443	15.4795	6.0909	0.6224	-0.7345	0.2134	-0.1669
8.59	-0.1778	-9.1855	-1.5436	0.0172	-0.0081	0.0099	6.4355	15.4619	5.9515	0.6223	-0.7344	0.2133	-0.1669
8.6	-0.1767	-9.1923	-1.5428	0.0190	-0.0049	0.0174	6.8893	15.5051	6.1302	0.6223	-0.7345	0.2134	-0.1669
8.61	-0.1771	-9.1844	-1.5470	0.0196	-0.0097	0.0137	6.8027	15.3730	5.9035	0.6222	-0.7344	0.2134	-0.1669
8.62	-0.1784	-9.1825	-1.5459	0.0156	-0.0083	0.0146	6.4594	15.4122	5.9640	0.6223	-0.7344	0.2134	-0.1669
8.63	-0.1822	-9.1917	-1.5528	0.0172	-0.0049	0.0116	6.6673	15.3320	6.1491	0.6223	-0.7344	0.2134	-0.1669
8.64	-0.1815	-9.1905	-1.5668	0.0188	-0.0089	0.0152	6.7156	15.5844	6.0502	0.6223	-0.7344	0.2134	-0.1669
8.65	-0.1807	-9.1876	-1.5706	0.0200	-0.0065	0.0112	6.8589	15.3522	6.3129	0.6223	-0.7344	0.2134	-0.1670
8.66	-0.1812	-9.1879	-1.5737	0.0199	-0.0125	0.0114	7.5005	15.2318	6.4231	0.6223	-0.7344	0.2134	-0.1670
8.67	-0.1816	-9.1885	-1.5902	0.0152	-0.0123	0.0153	7.4785	15.3941	6.3314	0.6223	-0.7345	0.2134	-0.1669
8.68	-0.1830	-9.1894	-1.5895	0.0207	-0.0117	0.0086	6.9022	15.3132	5.9414	0.6222	-0.7344	0.2133	-0.1669
8.69	-0.1844	-9.1899	-1.6005	0.0132	-0.0128	0.0130	6.9967	15.5660	6.0802	0.6223	-0.7345	0.2133	-0.1669
8.7	-0.1889	-9.1919	-1.6121	0.0167	-0.0086	0.0116	7.0363	15.2887	5.9791	0.6222	-0.7344	0.2133	-0.1669
8.71	-0.1886	-9.1887	-1.6116	0.0216	-0.0159	0.0118	6.9220	15.2341	5.7327	0.6223	-0.7345	0.2133	-0.1669
8.72	-0.1903	-9.1882	-1.6184	0.0167	-0.0095	0.0112	6.8274	15.2316	6.0135	0.6222	-0.7344	0.2133	-0.1669
8.73	-0.1947	-9.1940	-1.6256	0.0175	-0.0091	0.0104	6.8233	15.2724	6.0218	0.6222	-0.7345	0.2133	-0.1669
8.74	-0.1909	-9.1941	-1.6241	0.0204	-0.0115	0.0101	6.8490	15.3320	5.9335	0.6223	-0.7345	0.2133	-0.1669
8.75	-0.1914	-9.1834	-1.6219	0.0182	-0.0045	0.0146	6.8084	15.3235	5.9682	0.6222	-0.7344	0.2133	-0.1669
8.76	-0.1883	-9.1871	-1.6266	0.0218	-0.0087	0.0148	6.8730	15.3079	5.9547	0.6223	-0.7345	0.2133	-0.1669
8.77	-0.1807	-9.1902	-1.6234	0.0208	-0.0025	0.0122	6.9979	15.2270	6.1174	0.6223	-0.7344	0.2133	-0.1670
8.78	-0.1772	-9.1901	-1.6119	0.0214	-0.0048	0.0102	6.6018	15.2170	6.1458	0.6223	-0.7345	0.2133	-0.1670
8.79	-0.1795	-9.1844	-1.6104	0.0195	-0.0106	0.0126	6.8742	15.3426	6.1198	0.6222	-0.7344	0.2133	-0.1670
8.8	-0.1780	-9.1921	-1.6093	0.0179	-0.0047	0.0070	6.8830	15.2738	6.1510	0.6223	-0.7345	0.2133	-0.1670
8.81	-0.1803	-9.1897	-1.6039	0.0221	-0.0027	0.0124	6.9866	15.2844	6.1036	0.6223	-0.7344	0.2133	-0.1670
8.82	-0.1811	-9.1874	-1.5915	0.0147	0.0014	0.0117	6.9121	15.3376	6.2449	0.6222	-0.7344	0.2133	-0.1671
8.83	-0.1820	-9.1921	-1.5895	0.0220	-0.0124	0.0142	6.8398	15.3264	6.0990	0.6223	-0.7345	0.2134	-0.1671
8.84	-0.1859	-9.1873	-1.5854	0.0236	-0.0088	0.0142	6.7862	15.2788	5.7740	0.6223	-0.7344	0.2133	-0.1671
8.85	-0.1824	-9.1868	-1.5745	0.0226	-0.0064	0.0102	7.0380	15.2440	5.7892	0.6223	-0.7344	0.2133	-0.1671
8.86	-0.1828	-9.1882	-1.5757	0.0190	-0.0108	0.0155	7.0937	15.1567	5.8755	0.6222	-0.7343	0.2133	-0.1671
8.87	-0.1818	-9.1905	-1.5709	0.0206	-0.0105	0.0145	6.8753	15.1768	6.0012	0.6223	-0.7344	0.2133	-0.1671
8.88	-0.1855	-9.1889	-1.5658	0.0212	-0.0109	0.0148	7.0464	15.1148	5.9255	0.6223	-0.7344	0.2133	-0.1671
8.89	-0.1846	-9.1837	-1.5609	0.0193	-0.0070	0.0092	6.9143	15.3311	5.7698	0.6223	-0.7344	0.2133	-0.1671
8.9	-0.1897	-9.1895	-1.5675	0.0149	-0.0082	0.0110	6.8142	15.2033	5.8857	0.6223	-0.7344	0.2133	-0.1671
8.91	-0.1910	-9.1873	-1.5651	0.0139	-0.0107	0.0138	6.8620	15.3067	6.1364	0.6223	-0.7344	0.2133	-0.1671
8.92	-0.1929	-9.1880	-1.5703	0.0171	-0.0113	0.0125	6.9250	15.2241	5.8933	0.6223	-0.7345	0.2133	-0.1671
8.93	-0.1876	-9.1833	-1.5728	0.0178	-0.0138	0.0152	6.9294	15.1082	5.8736	0.6222	-0.7344	0.2133	-0.1670
8.94	-0.1878	-9.1901	-1.5754	0.0203	-0.0050	0.0129	6.7772	15.3847	5.9655	0.6223	-0.7345	0.2133	-0.1671
8.95	-0.1829	-9.1842	-1.5809	0.0226	-0.0045	0.0119	6.7981	15.2696	5.8332	0.6223	-0.7344	0.2133	-0.1671
8.96	-0.1783	-9.1870	-1.5848	0.0183	-0.0055	0.0133	7.0591	15.4159	5.9399	0.6223	-0.7344	0.2133	-0.1671
8.97	-0.1733	-9.1912	-1.5955	0.0136	-0.0074	0.0147	6.7725	15.4018	6.0666	0.6222	-0.7344	0.2133	-0.1671
8.98	-0.1679	-9.1888	-1.5913	0.0221	-0.0106	0.0088	6.8944	15.1697	6.1307	0.6222	-0.7344	0.2133	-0.1671
8.99	-0.1679	-9.1850	-1.5980	0.0174	-0.0067	0.0121	6.8653	15.1558	6.0009	0.6223	-0.7344	0.2133	-0.1671
9	-0.1737	-9.1902	-1.5975	0.0155	-0.0037	0.0089	6.8087	15.1403	6.1513	0.6222	-0.7344	0.2133	-0.1671
9.01	-0.1751	-9.1938	-1.6001	0.0132	-0.0071	0.0068	6.8351	15.2626	6.1305	0.6222	-0.7345	0.2133	-0.1672
9.02	-0.1812	-9.1866	-1.5859	0.0166	-0.0042	0.0131	6.8312	15.2117	5.9956	0.6222	-0.7345	0.2133	-0.1672
9.03	-0.1849	-9.1875	-1.5830	0.0201	-0.0102	0.0124	6.8181	15.3220	5.9280	0.6222	-0.7345	0.2133	-0.1672
9.04	-0.1898	-9.1891	-1.5837	0.0188	-0.0082	0.0074	6.9175	15.3129	6.0685	0.6221	-0.7344	0.2133	-0.1672
9.05	-0.1944	-9.1902	-1.5796	0.0219	-0.0095	0.0121	7.0213	15.3505	5.9080	0.6222	-0.7345	0.2133	-0.1672
9.06	-0.1940	-9.1874	-1.5860	0.0201	-0.0049	0.0079	6.9732	15.2244	5.8748	0.6222	-0.7345	0.2133	-0.1673
9.07	-0.1968	-9.1911	-1.5927	0.0178	-0.0116	0.0100	7.0406	15.1007	5.8110	0.6221	-0.7344	0.2133	-0.1672
9.08	-0.1971	-9.1887	-1.5923	0.0157	-0.0111	0.0091	6.6808	15.3827	5.7534	0.6222	-0.7345	0.2133	-0.1673
9.09	-0.2032	-9.1871	-1.5946	0.0195	-0.0069	0.0118	6.9733	15.3864	5.9689	0.6222	-0.7345	0.2133	-0.1673
9.1	-0.1969	-9.1900	-1.5983	0.0143	-0.0067	0.0126	6.9315	15.2428	5.8860	0.6222	-0.7345	0.2133	-0.1673
9.11	-0.1921	-9.1924	-1.6000	0.0154	-0.0145	0.0105	6.9831	15.2353	5.8794	0.6221	-0.7345	0.2132	-0.1673
9.12	-0.1888	-9.1880	-1.5977	0.0183	-0.0113	0.0103	7.0879	15.2502	5.9652	0.6221	-0.7345	0.2132	-0.1673
9.13	-0.1805	-9.1920	-1.5933	0.0168	-0.0070	0.0083	6.9236	15.5598	6.0015	0.6221	-0.7345	0.2132	-0.1673
9.14	-0.1777	-9.1874	-1.5951	0.0175	-0.0041	0.0066	6.8322	15.5218	6.0435	0.6221	-0.7345	0.2132	-0.1673
9.15	-0.1728	-9.1895	-1.5975	0.0162	-0.0085	0.0087	6.8991	15.3637	6.1498	0.6221	-0.7346	0.2132	-0.1673
9.16	-0.1684	-9.1869	-1.5894	0.0200	-0.0133	0.0132	7.1547	15.5850	6.2279	0.6221	-0.7345	0.2132	-0.1673
9.17	-0.1721	-9.1906	-1.5928	0.0215	-0.0032	0.0132	7.2008	15.5266	6.1099	0.6221	-0.7346	0.2132	-0.1673
9.18	-0.1677	-9.1944	-1.6016	0.0194	-0.0043	0.0132	6.9777	15.4778	6.0511	0.6220	-0.7345	0.2132	-0.1673
9.19	-0.1640	-9.1868	-1.6004	0.0201	-0.0082	0.0116	6.8789	15.8372	5.9343	0.6221	-0.7346	0.2132	-0.1674
9.2	-0.1628	-9.1893	-1.5979	0.0218	-0.0069	0.0156	6.6677	15.5096	6.1051	0.6221	-0.7345	0.2132	-0.1674
9.21	-0.1650	-9.1900	-1.5974	0.0275	-0.0122	0.0143	6.7856	15.2454	5.9444	0.6221	-0.7345	0.2132	-0.1674
9.22	-0.1687	-9.1851	-1.5886	0.0217	-0.0152	0.0156	6.8766	15.1321	5.8367	0.6221	-0.7345	0.2132	-0.1673
9.23	-0.1652	-9.1874	-1.5900	0.0212	-0.0101	0.0153	7.0042	15.1875	5.9207	0.6222	-0.7345	0.2132	-0.1673
9.24	-0.1643	-9.1890	-1.5858	0.0192	-0.0131	0.0142	7.0403	15.0778	6.0277	0.6222	-0.7345	0.2132	-0.1673
9.25	-0.1721	-9.1895	-1.5755	0.0187	-0.0072	0.0157	7.0221	15.1409	6.2147	0.6221	-0.7344	0.2132	-0.1673
9.26	-0.1716	-9.1902	-1.5784	0.0211	-0.0079	0.0133	7.0233	15.3533	6.1854	0.6222	-0.7345	0.2132	-0.1673
9.27	-0.1755	-9.1873	-1.5679	0.0219	-0.0112	0.0143	6.9064	15.3288	5.9893	0.6222	-0.7344	0.2132	-0.1673
9.28	-0.1816	-9.1902	-1.5742	0.0209	-0.0111	0.0143	7.0226	15.2566	6.1444	0.6223	-0.7345	0.2132	-0.1673
9.29	-0.1874	-9.1843	-1.5625	0.0185	-0.0075	0.0137	7.0262	15.2385	6.2857	0.6222	-0.7344	0.2132	-0.1673
9.3	-0.1942	-9.1883	-1.5681	0.0216	-0.0099	0.0151	6.8076	15.2132	6.0678	0.6222	-0.7344	0.2132	-0.1673
9.31	-0.1993	-9.1911	-1.5747	0.0186	-0.0084	0.0153	6.9507	15.3233	6.2424	0.6222	-0.7344	0.2132	-0.1673
9.32	-0.2077	-9.1897	-1.5723	0.0174	-0.0017	0.0120	6.8889	15.5091	6.0677	0.6222	-0.7344	0.2132	-0.1673
9.33	-0.2079	-9.1821	-1.5766	0.0230	-0.0053	0.0117	6.7655	15.4715	6.0947	0.6223	-0.7345	0.2133	-0.1674
9.34	-0.2157	-9.1846	-1.5789	0.0112	-0.0094	0.0154	6.6752	15.3418	5.9480	0.6222	-0.7344	0.2132	-0.1673
9.35	-0.2211	-9.1850	-1.5818	0.0164	-0.0079	0.0090	6.7778	15.3368	6.0848	0.6222	-0.7345	0.2133	-0.1674
9.36	-0.2240	-9.1822	-1.5949	0.0153	-0.0054	0.0130	6.7963	15.5430	6.0853	0.6221	-0.7344	0.2132	-0.1673
9.37	-0.2205	-9.1884	-1.5999	0.0158	-0.0117	0.0087	6.6853	15.2971	5.9801	0.6221	-0.7345	0.2132	-0.1674
9.38	-0.2119	-9.1872	-1.6006	0.0202	-0.0100	0.0093	6.7383	15.2706	6.0267	0.6221	-0.7345	0.2132	-0.1674
9.39	-0.2015	-9.1879	-1.6006	0.0188	-0.0108	0.0139	6.6199	15.5986	6.2047	0.6221	-0.7345	0.2132	-0.1674
9.4	-0.1961	-9.1862	-1.6084	0.0222	-0.0140	0.0140	6.7045	15.3693	6.0330	0.6222	-0.7345	0.2132	-0.1673
9.41	-0.1879	-9.1872	-1.6038	0.0204	-0.0148	0.0112	6.8555	15.2676	6.1856	0.6222	-0.7345	0.2132	-0.1673
9.42	-0.1808	-9.1922	-1.6037	0.0204	-0.0112	0.0136	7.0187	15.2364	6.0624	0.6222	-0.7345	0.2132	-0.1673
9.43	-0.1721	-9.1880	-1.6027	0.0170	-0.0086	0.0107	6.7449	15.2217	5.9958	0.6221	-0.7344	0.2131	-0.1673
9.44	-0.1657	-9.1947	-1.5980	0.0181	-0.0084	0.0102	7.0259	15.2747	6.0891	0.6222	-0.7345	0.2132	-0.1673
9.45	-0.1658	-9.1919	-1.6022	0.0220	-0.0091	0.0140	6.9858	15.4571	6.0180	0.6222	-0.7345	0.2131	-0.1673
9.46	-0.1652	-9.1860	-1.5901	0.0184	-0.0087	0.0149	6.9467	15.3311	6.1295	0.6222	-0.7345	0.2132	-0.1673
9.47	-0.1654	-9.1895	-1.6033	0.0200	-0.0130	0.0124	6.8606	15.2155	5.9876	0.6222	-0.7345	0.2131	-0.1673
9.48	-0.1699	-9.1904	-1.6054	0.0200	-0.0094	0.0151	6.8866	15.2646	6.1207	0.6222	-0.7345	0.2131	-0.1673
9.49	-0.1732	-9.1821	-1.5949	0.0184	-0.0124	0.0142	6.9880	15.1617	6.0980	0.6222	-0.7345	0.2131	-0.1673
9.5	-0.1783	-9.1881	-1.6039	0.0181	-0.0095	0.0101	6.8614	15.2263	6.0664	0.6221	-0.7344	0.2131	-0.1673
9.51	-0.1785	-9.1930	-1.5963	0.0203	-0.0049	0.0116	6.7671	15.3226	6.2454	0.6222	-0.7345	0.2131	-0.1673
9.52	-0.1799	-9.1833	-1.5881	0.0206	-0.0130	0.0117	6.6665	15.3421	6.0416	0.6222	-0.7345	0.2131	-0.1673
9.53	-0.1816	-9.1887	-1.5868	0.0165	-0.0118	0.0115	6.7901	15.4312	6.0919	0.6222	-0.7346	0.2131	-0.1673
9.54	-0.1803	-9.1865	-1.5823	0.0163	-0.0117	0.0114	6.7648	15.2955	6.3952	0.6221	-0.7345	0.2131	-0.1673
9.55	-0.1865	-9.1864	-1.5750	0.0130	-0.0074	0.0122	6.8142	15.3158	6.2305	0.6222	-0.7345	0.2131	-0.1673
9.56	-0.1899	-9.1917	-1.5714	0.0154	-0.0108	0.0124	6.7050	15.3461	6.0708	0.6221	-0.7345	0.2131	-0.1673
9.57	-0.1889	-9.1849	-1.5731	0.0172	-0.0109	0.0079	6.7795	15.5024	5.9387	0.6221	-0.7345	0.2131	-0.1673
9.58	-0.1933	-9.1865	-1.5720	0.0174	-0.0079	0.0121	6.8649	15.4660	6.2457	0.6222	-0.7346	0.2131	-0.1673
9.59	-0.1924	-9.1882	-1.5798	0.0214	-0.0174	0.0143	6.6611	15.2337	6.0968	0.6221	-0.7345	0.2130	-0.1673
9.6	-0.1865	-9.1863	-1.5688	0.0215	-0.0109	0.0127	6.9607	15.2543	5.9063	0.6222	-0.7346	0.2130	-0.1673
9.61	-0.1847	-9.1916	-1.5836	0.0187	-0.0111	0.0105	6.9542	15.1460	6.0137	0.6221	-0.7345	0.2130	-0.1673
9.62	-0.1798	-9.1891	-1.5855	0.0116	-0.0092	0.0131	6.8363	15.1497	6.0234	0.6221	-0.7346	0.2130	-0.1673
9.63	-0.1746	-9.1850	-1.5830	0.0196	-0.0079	0.0128	6.9247	15.1467	6.1659	0.6221	-0.7346	0.2130	-0.1673
9.64	-0.1737	-9.1917	-1.5873	0.0214	-0.0105	0.0128	6.9461	15.1875	6.2038	0.6221	-0.7346	0.2130	-0.1673
9.65	-0.1755	-9.1885	-1.5944	0.0194	-0.0078	0.0130	7.1101	15.5535	6.1642	0.6221	-0.7346	0.2130	-0.1673
9.66	-0.1764	-9.1835	-1.5910	0.0204	-0.0124	0.0150	7.3678	15.5548	6.0799	0.6221	-0.7346	0.2130	-0.1673
9.67	-0.1763	-9.1890	-1.5969	0.0210	-0.0123	0.0126	7.3784	15.4667	5.9561	0.6222	-0.7346	0.2130	-0.1673
9.68	-0.1786	-9.1883	-1.5995	0.0204	-0.0068	0.0131	7.0747	15.3528	5.9639	0.6221	-0.7345	0.2130	-0.1673
9.69	-0.1786	-9.1889	-1.6010	0.0212	-0.0088	0.0136	7.0102	15.5564	6.1500	0.6222	-0.7346	0.2130	-0.1673
9.7	-0.1788	-9.1909	-1.6011	0.0212	-0.0061	0.0130	6.9236	15.2751	5.9789	0.6222	-0.7345	0.2130	-0.1673
9.71	-0.1828	-9.1907	-1.6042	0.0177	-0.0046	0.0102	6.8382	15.3048	5.9330	0.6222	-0.7346	0.2130	-0.1673
9.72	-0.1836	-9.1846	-1.6034	0.0191	-0.0085	0.0147	6.8042	15.3134	6.0733	0.6221	-0.7345	0.2130	-0.1673
9.73	-0.1856	-9.1856	-1.6046	0.0220	-0.0021	0.0122	6.8284	15.3614	6.1257	0.6222	-0.7345	0.2130	-0.1673
9.74	-0.1913	-9.1880	-1.6087	0.0179	-0.0078	0.0145	6.8115	15.3642	5.9961	0.6222	-0.7345	0.2131	-0.1673
9.75	-0.1877	-9.1909	-1.6021	0.0172	-0.0092	0.0099	6.8339	15.3152	6.1505	0.6221	-0.7345	0.2130	-0.1673
9.76	-0.1880	-9.1913	-1.6073	0.0173	-0.0068	0.0024	6.7931	15.3023	6.1122	0.6222	-0.7346	0.2130	-0.1674
9.77	-0.1874	-9.1871	-1.6008	0.0206	-0.0119	0.0122	6.7421	15.2639	6.1554	0.6221	-0.7345	0.2130	-0.1674
9.78	-0.1937	-9.1907	-1.5964	0.0210	-0.0061	0.0126	6.9163	15.5525	6.0558	0.6222	-0.7346	0.2130	-0.1674
9.79	-0.1913	-9.1866	-1.5930	0.0172	-0.0075	0.0136	6.8948	15.2873	5.9550	0.6221	-0.7345	0.2130	-0.1674
9.8	-0.1884	-9.1862	-1.5831	0.0205	-0.0098	0.0161	7.0253	15.2443	5.9428	0.6221	-0.7345	0.2130	-0.1674
9.81	-0.1909	-9.1874	-1.5895	0.0200	-0.0080	0.0166	6.9295	15.2210	5.8470	0.6221	-0.7345	0.2130	-0.1674
9.82	-0.1874	-9.1876	-1.5841	0.0166	-0.0092	0.0138	6.8883	15.0332	5.9013	0.6221	-0.7345	0.2130	-0.1674
9.83	-0.1872	-9.1873	-1.5753	0.0145	-0.0114	0.0119	7.0104	15.2200	5.8567	0.6222	-0.7346	0.2130	-0.1674
9.84	-0.1874	-9.1873	-1.5793	0.0208	-0.0121	0.0104	6.9617	15.1974	5.9000	0.6221	-0.7346	0.2130	-0.1674
9.85	-0.1852	-9.1882	-1.5795	0.0158	-0.0078	0.0090	7.0206	15.1956	6.0442	0.6221	-0.7346	0.2130	-0.1674
9.86	-0.1855	-9.1866	-1.5765	0.0150	-0.0103	0.0149	6.7900	15.3458	6.0548	0.6220	-0.7345	0.2130	-0.1674
9.87	-0.1888	-9.1896	-1.5759	0.0212	-0.0158	0.0129	6.9572	15.1073	6.0292	0.6221	-0.7346	0.2130	-0.1674
9.88	-0.1888	-9.1932	-1.5867	0.0215	-0.0162	0.0142	6.7997	15.2082	6.1040	0.6221	-0.7346	0.2130	-0.1673
9.89	-0.1852	-9.1874	-1.5768	0.0175	-0.0062	0.0080	6.9680	15.3198	6.1001	0.6221	-0.7346	0.2130	-0.1673
9.9	-0.1864	-9.1841	-1.5752	0.0160	-0.0071	0.0135	6.9792	15.4162	5.8149	0.6221	-0.7346	0.2130	-0.1674
9.91	-0.1858	-9.1898	-1.5754	0.0195	-0.0095	0.0109	6.7869	15.2904	5.7941	0.6221	-0.7346	0.2130	-0.1673
9.92	-0.1835	-9.1914	-1.5766	0.0162	-0.0078	0.0092	6.8314	15.3515	6.1494	0.6221	-0.7346	0.2130	-0.1674
9.93	-0.1772	-9.1882	-1.5697	0.0188	-0.0067	0.0130	6.8227	15.2187	6.0303	0.6220	-0.7345	0.2129	-0.1674
9.94	-0.1805	-9.1885	-1.5711	0.0175	-0.0056	0.0120	6.7974	15.3601	6.0677	0.6221	-0.7346	0.2130	-0.1674
9.95	-0.1814	-9.1884	-1.5805	0.0167	-0.0094	0.0093	6.8830	15.2587	6.1345	0.6221	-0.7346	0.2129	-0.1674
9.96	-0.1862	-9.1887	-1.5782	0.0215	-0.0122	0.0143	6.8363	15.2536	5.9302	0.6221	-0.7346	0.2129	-0.1674
9.97	-0.1862	-9.1907	-1.5838	0.0209	-0.0150	0.0107	6.9021	15.1396	5.9838	0.6221	-0.7346	0.2129	-0.1674
9.98	-0.1863	-9.1879	-1.5854	0.0210	-0.0106	0.0104	7.0127	15.0714	5.9344	0.6221	-0.7346	0.2129	-0.1674
9.99	-0.1903	-9.1896	-1.5819	0.0212	-0.0087	0.0117	6.9506	15.2365	6.0318	0.6221	-0.7346	0.2129	-0.1674
10	-0.1894	-9.1897	-1.5895	0.0190	-0.0092	0.0116	6.7219	15.2510	6.0450	0.6220	-0.7346	0.2129	-0.1674
10.01	-0.1887	-9.1908	-1.5952	0.0208	-0.0085	0.0106	6.8540	15.1087	5.9616	0.6221	-0.7347	0.2129	-0.1674
10.02	-0.1862	-9.1923	-1.6077	0.0212	-0.0079	0.0136	7.0450	15.3923	6.0729	0.6221	-0.7346	0.2129	-0.1674
10.03	-0.1733	-9.1829	-1.5996	0.0213	-0.0089	0.0149	6.8855	15.3022	6.0394	0.6222	-0.7347	0.2129	-0.1674
10.04	-0.1758	-9.1889	-1.6006	0.0165	-0.0086	0.0146	6.9261	15.1114	6.0525	0.6221	-0.7346	0.2129	-0.1674
10.05	-0.1710	-9.1957	-1.6073	0.0202	-0.0114	0.0138	6.8694	15.2921	6.0548	0.6221	-0.7346	0.2129	-0.1674
10.06	-0.1662	-9.1912	-1.6087	0.0206	-0.0152	0.0091	7.1454	15.1880	6.0131	0.6221	-0.7346	0.2129	-0.1674
10.07	-0.1696	-9.1908	-1.6023	0.0152	-0.0093	0.0129	7.0159	15.4090	5.9168	0.6221	-0.7346	0.2128	-0.1674
10.08	-0.1727	-9.1884	-1.6038	0.0169	-0.0037	0.0091	6.7038	15.4988	6.0914	0.6221	-0.7347	0.2129	-0.1674
10.09	-0.1731	-9.1858	-1.5969	0.0180	-0.0067	0.0158	6.8493	15.2161	5.9628	0.6221	-0.7346	0.2129	-0.1674
10.1	-0.1745	-9.1865	-1.5986	0.0138	-0.0074	0.0094	6.6660	15.3021	6.0160	0.6221	-0.7347	0.2129	-0.1674
10.11	-0.1739	-9.1819	-1.5890	0.0216	-0.0075	0.0073	6.9515	15.3409	6.0445	0.6220	-0.7346	0.2128	-0.1674
10.12	-0.1747	-9.1911	-1.5910	0.0207	-0.0067	0.0088	6.7418	15.1948	6.0685	0.6221	-0.7346	0.2129	-0.1675
10.13	-0.1783	-9.1884	-1.5843	0.0193	-0.0035	0.0102	6.7934	15.1431	5.9748	0.6221	-0.7346	0.2128	-0.1675
10.14	-0.1819	-9.1867	-1.5820	0.0219	-0.0074	0.0140	6.8171	15.2041	6.0337	0.6221	-0.7346	0.2129	-0.1675
10.15	-0.1810	-9.1885	-1.5829	0.0204	-0.0071	0.0103	6.9940	15.4639	6.0349	0.6221	-0.7346	0.2129	-0.1675
10.16	-0.1866	-9.1894	-1.5745	0.0219	-0.0120	0.0153	7.3358	15.3359	6.0914	0.6221	-0.7346	0.2128	-0.1675
10.17	-0.1946	-9.1899	-1.5743	0.0208	-0.0161	0.0143	7.3437	15.2504	6.2244	0.6221	-0.7346	0.2128	-0.1675
10.18	-0.1974	-9.1925	-1.5702	0.0209	-0.0150	0.0149	7.1205	15.5465	6.2344	0.6221	-0.7345	0.2128	-0.1674
10.19	-0.2018	-9.1891	-1.5719	0.0216	-0.0133	0.0150	7.0610	15.6412	5.8763	0.6221	-0.7346	0.2128	-0.1674
10.2	-0.2069	-9.1819	-1.5673	0.0188	-0.0091	0.0149	6.9405	15.2442	5.9152	0.6221	-0.7346	0.2128	-0.1674
10.21	-0.2056	-9.1887	-1.5715	0.0185	-0.0093	0.0167	6.9611	15.2237	6.0624	0.6221	-0.7346	0.2128	-0.1674
10.22	-0.2073	-9.1876	-1.5758	0.0232	-0.0102	0.0111	6.8428	15.1257	5.9094	0.6221	-0.7346	0.2128	-0.1674
10.23	-0.2022	-9.1863	-1.5832	0.0170	-0.0119	0.0125	6.8938	15.2717	6.0164	0.6221	-0.7346	0.2128	-0.1674
10.24	-0.1944	-9.1881	-1.5879	0.0168	-0.0132	0.0134	6.9625	15.3041	5.8718	0.6221	-0.7346	0.2128	-0.1674
10.25	-0.1949	-9.1900	-1.5932	0.0197	-0.0078	0.0128	6.9505	15.3635	6.0181	0.6221	-0.7345	0.2128	-0.1674
10.26	-0.1909	-9.1890	-1.6006	0.0202	-0.0089	0.0155	6.8376	15.5075	6.1091	0.6222	-0.7346	0.2128	-0.1674
10.27	-0.1865	-9.1813	-1.5949	0.0179	-0.0063	0.0147	6.7595	15.5423	6.0444	0.6221	-0.7346	0.2128	-0.1674
10.28	-0.1787	-9.1888	-1.6011	0.0191	-0.0062	0.0148	6.7879	15.3494	5.9812	0.6222	-0.7347	0.2129	-0.1674
10.29	-0.1776	-9.1889	-1.5987	0.0201	-0.0052	0.0154	6.7808	15.5618	6.0124	0.6221	-0.7345	0.2128	-0.1674
10.3	-0.1806	-9.1872	-1.5958	0.0212	-0.0056	0.0132	6.6673	15.6353	6.0915	0.6221	-0.7346	0.2129	-0.1674
10.31	-0.1785	-9.1925	-1.5984	0.0212	-0.0077	0.0142	6.7516	15.4586	6.2641	0.6221	-0.7346	0.2129	-0.1674
10.32	-0.1757	-9.1964	-1.5981	0.0214	-0.0064	0.0152	6.7810	15.4753	6.1993	0.6221	-0.7345	0.2129	-0.1674
10.33	-0.1739	-9.1881	-1.5917	0.0210	-0.0033	0.0132	6.8720	15.3716	5.9722	0.6222	-0.7346	0.2129	-0.1675
10.34	-0.1752	-9.1808	-1.5862	0.0218	-0.0083	0.0142	6.7343	15.1216	6.0306	0.6222	-0.7345	0.2129	-0.1675
10.35	-0.1765	-9.1918	-1.5927	0.0198	-0.0100	0.0154	7.1028	15.1876	5.9732	0.6222	-0.7346	0.2129	-0.1675
10.36	-0.1768	-9.1875	-1.5846	0.0204	-0.0074	0.0130	7.0339	15.3208	5.7855	0.6221	-0.7345	0.2129	-0.1674
10.37	-0.1814	-9.1848	-1.5865	0.0217	-0.0111	0.0103	7.0298	15.1904	6.0143	0.6222	-0.7345	0.2129	-0.1675
10.38	-0.1854	-9.1882	-1.5928	0.0207	-0.0102	0.0100	6.9819	15.1084	6.1004	0.6222	-0.7345	0.2129	-0.1675
10.39	-0.1847	-9.1899	-1.5937	0.0215	-0.0101	0.0117	6.9336	15.2186	5.8983	0.6222	-0.7345	0.2129	-0.1675
10.4	-0.1823	-9.1857	-1.5913	0.0205	-0.0108	0.0127	6.8631	15.2122	6.0162	0.6222	-0.7345	0.2129	-0.1675
10.41	-0.1869	-9.1845	-1.5903	0.0218	-0.0111	0.0123	6.7515	15.1056	5.9030	0.6222	-0.7345	0.2129	-0.1675
10.42	-0.1835	-9.1939	-1.5956	0.0172	-0.0134	0.0131	7.0302	15.1657	5.9392	0.6222	-0.7345	0.2129	-0.1675
10.43	-0.1814	-9.1767	-1.5796	0.0184	-0.0138	0.0160	6.9519	15.0853	5.9179	0.6222	-0.7345	0.2128	-0.1674
10.44	-0.1772	-9.1809	-1.5841	0.0214	-0.0076	0.0122	6.8409	15.6104	6.1166	0.6222	-0.7345	0.2128	-0.1674
10.45	-0.1768	-9.1928	-1.5868	0.0185	-0.0067	0.0093	6.8616	15.7046	6.0780	0.6222	-0.7345	0.2128	-0.1675
10.46	-0.1746	-9.1827	-1.5745	0.0221	-0.0070	0.0064	6.8682	15.3407	6.0931	0.6222	-0.7345	0.2128	-0.1675
10.47	-0.1782	-9.1902	-1.5839	0.0194	-0.0057	0.0089	6.7784	15.4184	6.1059	0.6222	-0.7345	0.2128	-0.1675
10.48	-0.1826	-9.1887	-1.5814	0.0205	-0.0097	0.0159	6.5444	15.3112	6.1778	0.6222	-0.7345	0.2128	-0.1675
10.49	-0.1824	-9.1835	-1.5808	0.0212	-0.0070	0.0142	6.7333	15.3624	6.2272	0.6222	-0.7345	0.2128	-0.1675
10.5	-0.1810	-9.1895	-1.5833	0.0209	-0.0050	0.0171	6.8645	15.6700	6.2944	0.6222	-0.7344	0.2128	-0.1675
10.51	-0.1825	-9.1947	-1.5805	0.0213	-0.0045	0.0139	6.8623	15.5203	6.0278	0.6223	-0.7345	0.2129	-0.1675
10.52	-0.1858	-9.1871	-1.5794	0.0205	-0.0102	0.0166	6.7102	15.4220	6.1561	0.6222	-0.7345	0.2129	-0.1675
10.53	-0.1856	-9.1921	-1.5806	0.0196	-0.0119	0.0130	6.7329	15.3153	6.1550	0.6223	-0.7345	0.2129	-0.1675
10.54	-0.1898	-9.1847	-1.5760	0.0228	-0.0116	0.0148	6.9743	15.2062	5.8830	0.6222	-0.7344	0.2129	-0.1675
10.55	-0.1901	-9.1925	-1.5805	0.0205	-0.0098	0.0143	6.9451	15.1255	5.7333	0.6223	-0.7345	0.2129	-0.1675
10.56	-0.1866	-9.1942	-1.5809	0.0198	-0.0136	0.0105	6.9265	15.3005	5.9175	0.6223	-0.7345	0.2128	-0.1675
10.57	-0.1910	-9.1827	-1.5810	0.0219	-0.0114	0.0153	6.7373	15.3046	5.9156	0.6222	-0.7344	0.2128	-0.1675
10.58	-0.1942	-9.1866	-1.5833	0.0195	-0.0093	0.0144	6.9313	15.2117	5.9202	0.6223	-0.7345	0.2129	-0.1675
10.59	-0.1928	-9.1890	-1.5882	0.0208	-0.0092	0.0114	6.8854	15.3500	5.9158	0.6223	-0.7344	0.2128	-0.1675
10.6	-0.1934	-9.1865	-1.5833	0.0213	-0.0123	0.0144	6.7317	15.2087	5.9380	0.6223	-0.7345	0.2128	-0.1675
10.61	-0.1969	-9.1868	-1.5854	0.0198	-0.0088	0.0118	6.8862	15.2986	6.2368	0.6223	-0.7344	0.2128	-0.1675
10.62	-0.1945	-9.1906	-1.5841	0.0205	-0.0096	0.0068	6.7383	15.2991	5.9994	0.6223	-0.7345	0.2128	-0.1675
10.63	-0.1994	-9.1882	-1.5868	0.0227	-0.0098	0.0070	6.8250	15.4584	5.9403	0.6223	-0.7344	0.2128	-0.1675
10.64	-0.1962	-9.1848	-1.5922	0.0190	-0.0053	0.0100	6.6686	15.4542	6.0282	0.6223	-0.7344	0.2128	-0.1675
10.65	-0.1954	-9.1884	-1.6022	0.0158	-0.0060	0.0134	6.9645	15.4894	5.9733	0.6223	-0.7345	0.2128	-0.1675
10.66	-0.1945	-9.1866	-1.5966	0.0208	-0.0057	0.0092	7.4170	15.3065	6.4355	0.6223	-0.7344	0.2128	-0.1676
10.67	-0.1847	-9.1881	-1.5973	0.0207	-0.0050	0.0150	7.2492	15.4097	6.2772	0.6223	-0.7345	0.2128	-0.1676
10.68	-0.1792	-9.1847	-1.5971	0.0163	-0.0039	0.0124	6.9448	15.5852	6.0842	0.6222	-0.7344	0.2128	-0.1676
10.69	-0.1726	-9.1929	-1.5930	0.0152	-0.0102	0.0155	6.9260	15.8306	6.0072	0.6223	-0.7345	0.2128	-0.1676
10.7	-0.1650	-9.1936	-1.5933	0.0210	-0.0060	0.0108	6.7552	15.3319	5.8624	0.6223	-0.7344	0.2128	-0.1676
10.71	-0.1621	-9.1897	-1.5848	0.0178	-0.0094	0.0167	6.9396	15.2846	6.1465	0.6223	-0.7345	0.2128	-0.1676
10.72	-0.1614	-9.1949	-1.5909	0.0224	-0.0142	0.0162	6.8960	15.2626	5.7261	0.6223	-0.7344	0.2128	-0.1676
10.73	-0.1629	-9.1948	-1.5926	0.0222	-0.0148	0.0116	7.0772	15.2698	5.8909	0.6223	-0.7344	0.2128	-0.1675
10.74	-0.1651	-9.1864	-1.5822	0.0210	-0.0113	0.0156	7.0419	15.3389	5.8160	0.6223	-0.7344	0.2128	-0.1675
10.75	-0.1674	-9.1908	-1.5825	0.0198	-0.0092	0.0155	6.9213	15.1089	5.8895	0.6223	-0.7344	0.2128	-0.1675
10.76	-0.1692	-9.1934	-1.5887	0.0204	-0.0103	0.0119	6.8921	15.3187	5.9844	0.6224	-0.7345	0.2128	-0.1675
10.77	-0.1694	-9.1850	-1.5866	0.0224	-0.0082	0.0122	6.9776	15.2900	5.8674	0.6223	-0.7344	0.2128	-0.1675
10.78	-0.1732	-9.1909	-1.5916	0.0204	-0.0106	0.0166	6.9448	15.2591	5.8915	0.6224	-0.7345	0.2128	-0.1675
10.79	-0.1804	-9.1915	-1.5941	0.0199	-0.0093	0.0153	6.9117	15.5433	5.9041	0.6223	-0.7344	0.2128	-0.1675
10.8	-0.1843	-9.1922	-1.5898	0.0214	-0.0104	0.0117	7.0159	15.4398	5.9542	0.6224	-0.7344	0.2128	-0.1675
10.81	-0.1875	-9.1816	-1.5826	0.0213	-0.0069	0.0115	6.8344	15.4421	5.9067	0.6224	-0.7344	0.2128	-0.1675
10.82	-0.1943	-9.1923	-1.5812	0.0211	-0.0053	0.0089	6.8202	15.5301	6.0712	0.6223	-0.7343	0.2128	-0.1675
10.83	-0.1951	-9.1927	-1.5778	0.0211	-0.0102	0.0119	6.9368	15.3663	5.9890	0.6224	-0.7344	0.2128	-0.1676
10.84	-0.1971	-9.1852	-1.5747	0.0168	-0.0072	0.0135	6.8839	15.3415	6.0624	0.6223	-0.7344	0.2128	-0.1675
10.85	-0.1969	-9.1895	-1.5756	0.0218	-0.0056	0.0113	6.9994	15.2808	6.1521	0.6224	-0.7344	0.2128	-0.1676
10.86	-0.2055	-9.1883	-1.5792	0.0125	-0.0086	0.0122	6.9092	15.1485	6.0739	0.6223	-0.7343	0.2128	-0.1676
10.87	-0.1993	-9.1859	-1.5773	0.0206	-0.0098	0.0134	6.9271	15.2683	5.9822	0.6223	-0.7344	0.2128	-0.1676
10.88	-0.1984	-9.1933	-1.5841	0.0195	-0.0092	0.0132	6.8660	15.4019	5.9171	0.6223	-0.7344	0.2128	-0.1676
10.89	-0.1988	-9.1921	-1.5899	0.0210	-0.0109	0.0160	6.8429	15.3633	5.9439	0.6223	-0.7344	0.2128	-0.1676
10.9	-0.1943	-9.1834	-1.5864	0.0214	-0.0141	0.0136	6.6467	15.2072	5.9942	0.6224	-0.7344	0.2128	-0.1675
10.91	-0.1886	-9.1841	-1.5971	0.0210	-0.0145	0.0158	6.9645	15.4169	5.9771	0.6224	-0.7344	0.2128	-0.1675
10.92	-0.1839	-9.1924	-1.6056	0.0217	-0.0087	0.0107	7.1426	15.3737	5.9642	0.6224	-0.7344	0.2128	-0.1675
10.93	-0.1824	-9.1940	-1.6081	0.0132	-0.0093	0.0147	6.9503	15.2392	6.0770	0.6223	-0.7343	0.2128	-0.1675
10.94	-0.1808	-9.1901	-1.5993	0.0177	-0.0119	0.0123	7.1363	15.2446	6.0501	0.6224	-0.7344	0.2128	-0.1675
10.95	-0.1861	-9.1929	-1.5960	0.0199	-0.0053	0.0089	6.9783	15.3008	5.9805	0.6224	-0.7344	0.2128	-0.1675
10.96	-0.1851	-9.1876	-1.5964	0.0209	-0.0061	0.0104	6.8652	15.5730	6.1669	0.6224	-0.7344	0.2128	-0.1675
10.97	-0.1818	-9.1834	-1.5926	0.0172	-0.0109	0.0129	7.0221	15.1763	6.1408	0.6223	-0.7344	0.2128	-0.1675
10.98	-0.1829	-9.1859	-1.5903	0.0211	-0.0073	0.0102	7.0701	15.2263	6.1826	0.6223	-0.7344	0.2128	-0.1676
10.99	-0.1825	-9.1905	-1.5882	0.0169	-0.0130	0.0082	6.9252	15.1883	5.8830	0.6224	-0.7344	0.2127	-0.1676
11	-0.1814	-9.1853	-1.5870	0.0168	-0.0042	0.0106	6.9268	15.2212	5.6766	0.6223	-0.7344	0.2127	-0.1676
11.01	-0.1810	-9.1866	-1.5908	0.0224	-0.0003	0.0084	6.9128	15.4489	5.9441	0.6224	-0.7344	0.2128	-0.1676
11.02	-0.1841	-9.1902	-1.5951	0.0188	-0.0064	0.0123	6.8007	15.1322	5.9925	0.6223	-0.7344	0.2128	-0.1676
11.03	-0.1851	-9.1874	-1.5985	0.0213	-0.0047	0.0114	7.1184	15.4437	5.9717	0.6224	-0.7345	0.2128	-0.1677
11.04	-0.1860	-9.1807	-1.5935	0.0213	-0.0067	0.0143	6.8795	15.3060	5.9972	0.6223	-0.7343	0.2128	-0.1677
11.05	-0.1838	-9.1847	-1.5943	0.0212	-0.0063	0.0105	6.9694	15.2454	5.9427	0.6223	-0.7344	0.2128	-0.1677
11.06	-0.1803	-9.1951	-1.5950	0.0214	0.0014	0.0100	6.9635	15.4105	5.7026	0.6223	-0.7344	0.2128	-0.1677
11.07	-0.1797	-9.1884	-1.5895	0.0220	-0.0095	0.0158	6.9040	15.4267	6.0638	0.6223	-0.7343	0.2128	-0.1677
11.08	-0.1751	-9.1841	-1.5883	0.0211	-0.0120	0.0098	6.8157	15.3894	6.0708	0.6224	-0.7344	0.2128	-0.1677
11.09	-0.1766	-9.1893	-1.5893	0.0215	-0.0146	0.0169	6.8833	15.4547	5.8961	0.6224	-0.7343	0.2128	-0.1677
11.1	-0.1749	-9.1870	-1.5800	0.0213	-0.0126	0.0085	7.1051	15.2975	5.9049	0.6224	-0.7344	0.2128	-0.1677
11.11	-0.1760	-9.1844	-1.5802	0.0185	-0.0093	0.0138	7.0655	15.0819	5.8776	0.6223	-0.7343	0.2127	-0.1677
11.12	-0.1740	-9.1910	-1.5817	0.0208	-0.0106	0.0188	7.0974	15.1506	5.9492	0.6224	-0.7344	0.2128	-0.1677
11.13	-0.1718	-9.1962	-1.5852	0.0198	-0.0073	0.0119	7.2135	15.1199	5.7819	0.6224	-0.7343	0.2128	-0.1677
11.14	-0.1727	-9.1850	-1.5771	0.0162	-0.0091	0.0127	6.9961	15.4595	5.7408	0.6224	-0.7343	0.2128	-0.1677
11.15	-0.1774	-9.1865	-1.5794	0.0194	-0.0080	0.0136	7.1516	15.2178	6.0281	0.6224	-0.7344	0.2128	-0.1677
11.16	-0.1792	-9.1927	-1.5799	0.0226	-0.0124	0.0104	7.5521	15.2753	5.9824	0.6224	-0.7343	0.2127	-0.1677
11.17	-0.1846	-9.1890	-1.5804	0.0199	-0.0116	0.0099	7.3836	15.2755	6.0528	0.6224	-0.7344	0.2127	-0.1677
11.18	-0.1890	-9.1807	-1.5778	0.0185	-0.0132	0.0128	6.8924	15.4337	5.9794	0.6223	-0.7343	0.2127	-0.1677
11.19	-0.1912	-9.1950	-1.5798	0.0199	-0.0083	0.0153	6.7960	16.0280	6.0389	0.6224	-0.7344	0.2127	-0.1677
11.2	-0.1868	-9.1883	-1.5808	0.0198	-0.0030	0.0162	6.6373	15.5324	6.2142	0.6224	-0.7343	0.2128	-0.1677
11.21	-0.1877	-9.1787	-1.5803	0.0210	-0.0085	0.0133	6.8251	15.4799	5.8986	0.6224	-0.7344	0.2128	-0.1677
11.22	-0.1848	-9.1856	-1.5824	0.0216	-0.0059	0.0118	6.7903	15.5718	5.7700	0.6224	-0.7343	0.2128	-0.1677
11.23	-0.1937	-9.1932	-1.5847	0.0215	-0.0088	0.0142	6.8121	15.3984	6.1609	0.6224	-0.7343	0.2128	-0.1677
11.24	-0.1936	-9.1857	-1.5864	0.0206	-0.0100	0.0142	6.7541	15.5025	6.1295	0.6224	-0.7343	0.2128	-0.1677
11.25	-0.1983	-9.1863	-1.5795	0.0215	-0.0058	0.0108	6.6215	15.3340	6.1370	0.6224	-0.7342	0.2128	-0.1677
11.26	-0.2010	-9.1895	-1.5841	0.0216	-0.0046	0.0124	6.6384	15.3967	6.1481	0.6225	-0.7343	0.2128	-0.1677
11.27	-0.2058	-9.1846	-1.5833	0.0194	-0.0114	0.0155	6.7753	15.5814	6.0965	0.6224	-0.7343	0.2128	-0.1677
11.28	-0.2049	-9.1875	-1.5902	0.0194	-0.0185	0.0155	7.0444	15.2369	6.0075	0.6225	-0.7344	0.2128	-0.1677
11.29	-0.2054	-9.1912	-1.6042	0.0194	-0.0106	0.0153	7.0432	15.1002	5.7684	0.6224	-0.7343	0.2128	-0.1677
11.3	-0.2007	-9.1910	-1.6044	0.0215	-0.0090	0.0134	7.0606	15.2650	5.8519	0.6224	-0.7343	0.2128	-0.1677
11.31	-0.1864	-9.1814	-1.6017	0.0211	-0.0087	0.0108	6.9892	15.2958	6.0411	0.6225	-0.7343	0.2128	-0.1677
11.32	-0.1755	-9.1907	-1.6051	0.0219	-0.0096	0.0110	6.9572	15.2915	5.8555	0.6224	-0.7342	0.2127	-0.1677
11.33	-0.1746	-9.1985	-1.6066	0.0192	-0.0109	0.0102	6.7862	15.2792	6.0061	0.6225	-0.7343	0.2127	-0.1677
11.34	-0.1653	-9.1860	-1.6053	0.0174	-0.0101	0.0098	6.7998	15.1646	6.0650	0.6224	-0.7343	0.2127	-0.1677
11.35	-0.1651	-9.1866	-1.5995	0.0215	-0.0135	0.0110	6.7960	15.2642	5.8451	0.6225	-0.7343	0.2127	-0.1677
11.36	-0.1670	-9.1927	-1.6021	0.0210	-0.0090	0.0105	6.8724	15.3732	5.9983	0.6224	-0.7342	0.2127	-0.1677
11.37	-0.1661	-9.1899	-1.5983	0.0214	-0.0124	0.0134	6.8957	15.3704	5.9187	0.6225	-0.7343	0.2127	-0.1677
11.38	-0.1705	-9.1856	-1.5943	0.0211	-0.0088	0.0106	6.9850	15.3939	6.0960	0.6225	-0.7343	0.2127	-0.1677
11.39	-0.1697	-9.1916	-1.6017	0.0216	-0.0109	0.0158	6.8827	15.5578	6.0974	0.6225	-0.7343	0.2127	-0.1677
11.4	-0.1701	-9.1886	-1.5979	0.0189	-0.0171	0.0079	6.7767	15.5097	6.0148	0.6225	-0.7343	0.2126	-0.1677
11.41	-0.1722	-9.1867	-1.5980	0.0165	-0.0082	0.0109	6.8151	15.3402	6.0880	0.6225	-0.7343	0.2126	-0.1677
11.42	-0.1728	-9.1899	-1.5975	0.0210	-0.0094	0.0150	6.9494	15.3829	5.9955	0.6225	-0.7343	0.2126	-0.1677
11.43	-0.1744	-9.1955	-1.5952	0.0220	-0.0132	0.0127	6.9881	15.3648	5.8714	0.6225	-0.7342	0.2126	-0.1676
11.44	-0.1847	-9.1895	-1.5893	0.0191	-0.0048	0.0149	6.7273	15.4575	5.9923	0.6225	-0.7343	0.2126	-0.1677
11.45	-0.1901	-9.1793	-1.5779	0.0217	-0.0101	0.0154	6.7544	15.4686	6.0902	0.6225	-0.7343	0.2126	-0.1676
11.46	-0.1936	-9.1883	-1.5728	0.0210	-0.0160	0.0133	6.8150	15.5987	5.9624	0.6225	-0.7343	0.2126	-0.1676
11.47	-0.1902	-9.1831	-1.5693	0.0216	-0.0161	0.0117	6.8659	15.2414	5.9775	0.6225	-0.7343	0.2126	-0.1676
11.48	-0.1866	-9.1876	-1.5679	0.0213	-0.0153	0.0142	7.0170	15.0960	5.9618	0.6226	-0.7343	0.2126	-0.1676
11.49	-0.1915	-9.1860	-1.5632	0.0206	-0.0102	0.0122	7.0502	15.1756	5.8392	0.6226	-0.7343	0.2126	-0.1676
11.5	-0.1934	-9.1913	-1.5679	0.0197	-0.0098	0.0149	7.0438	15.3071	5.9984	0.6225	-0.7342	0.2126	-0.1676
11.51	-0.1946	-9.1864	-1.5697	0.0214	-0.0078	0.0141	7.0302	15.2741	5.9488	0.6226	-0.7343	0.2126	-0.1676
11.52	-0.1902	-9.1905	-1.5744	0.0203	-0.0107	0.0113	6.7856	15.1836	5.8685	0.6226	-0.7342	0.2126	-0.1676
11.53	-0.1878	-9.1949	-1.5785	0.0198	-0.0105	0.0143	6.8544	15.2210	5.8926	0.6226	-0.7343	0.2126	-0.1676
11.54	-0.1835	-9.1889	-1.5781	0.0192	-0.0095	0.0137	6.9849	15.2006	5.8820	0.6225	-0.7342	0.2126	-0.1675
11.55	-0.1820	-9.1847	-1.5836	0.0212	-0.0130	0.0137	6.9389	15.3269	6.1308	0.6226	-0.7343	0.2126	-0.1675
11.56	-0.1831	-9.1943	-1.5946	0.0221	-0.0140	0.0158	6.9829	15.2554	5.9724	0.6226	-0.7343	0.2125	-0.1675
11.57	-0.1784	-9.1886	-1.5948	0.0214	-0.0057	0.0117	6.8759	15.3876	6.0279	0.6226	-0.7342	0.2125	-0.1675
11.58	-0.1804	-9.1813	-1.5822	0.0204	-0.0062	0.0134	6.7997	15.3440	6.1816	0.6227	-0.7343	0.2126	-0.1676
11.59	-0.1774	-9.1831	-1.5871	0.0166	-0.0078	0.0128	6.8870	15.4370	6.0905	0.6226	-0.7342	0.2126	-0.1675
11.6	-0.1779	-9.1966	-1.5960	0.0218	-0.0058	0.0112	6.8945	15.5994	6.0269	0.6226	-0.7343	0.2126	-0.1676
11.61	-0.1800	-9.1842	-1.5882	0.0211	-0.0015	0.0104	6.7878	15.4004	6.1482	0.6226	-0.7342	0.2126	-0.1676
11.62	-0.1761	-9.1864	-1.5903	0.0210	-0.0082	0.0092	6.6064	15.6066	6.0263	0.6226	-0.7342	0.2126	-0.1676
