time	acceleration_x	acceleration_y	acceleration_z	gyroscope_x	gyroscope_y	gyroscope_z	magnetometer_x	magnetometer_y	magnetometer_z	quaternion_w	quaternion_x	quaternion_y	quaternion_z
0	-0.6133	-9.3443	-2.3973	0.0202	-0.0070	0.0122	34.2825	25.4718	-5.5405	-0.5577	0.7373	0.2817	-0.2568
0.01	-0.6075	-9.3428	-2.4006	0.0194	-0.0012	0.0102	34.3228	25.6333	-5.5870	-0.5577	0.7374	0.2818	-0.2568
0.02	-0.5925	-9.3217	-2.3886	0.0206	-0.0023	0.0088	34.4612	25.8028	-5.5699	-0.5577	0.7373	0.2818	-0.2568
0.03	-0.5882	-9.3299	-2.3908	0.0187	-0.0007	0.0062	34.3098	25.3944	-5.4496	-0.5577	0.7373	0.2818	-0.2568
0.04	-0.5871	-9.3400	-2.4023	0.0199	-0.0043	0.0104	34.4248	25.5007	-5.5415	-0.5577	0.7373	0.2818	-0.2568
0.05	-0.5862	-9.3359	-2.3932	0.0200	-0.0020	0.0091	34.4487	25.5083	-5.5828	-0.5577	0.7373	0.2818	-0.2568
0.06	-0.5969	-9.3305	-2.3942	0.0219	-0.0003	0.0099	34.3515	25.5253	-5.6481	-0.5577	0.7374	0.2819	-0.2568
0.07	-0.6057	-9.3362	-2.3947	0.0171	-0.0023	0.0121	34.3607	25.6139	-5.6870	-0.5577	0.7373	0.2818	-0.2568
0.08	-0.6231	-9.3346	-2.4016	0.0185	-0.0028	0.0129	34.3714	25.5888	-5.5922	-0.5577	0.7374	0.2819	-0.2568
0.09	-0.6309	-9.3247	-2.4011	0.0215	-0.0064	0.0142	34.2616	25.5935	-5.4851	-0.5576	0.7373	0.2818	-0.2568
0.1	-0.6341	-9.3310	-2.4085	0.0267	-0.0039	0.0092	34.5036	25.4809	-5.6778	-0.5577	0.7373	0.2819	-0.2568
0.11	-0.6328	-9.3295	-2.4118	0.0246	-0.0027	0.0105	34.6811	25.3766	-5.6609	-0.5577	0.7373	0.2819	-0.2568
0.12	-0.6250	-9.3254	-2.4061	0.0134	-0.0018	0.0085	34.6848	25.3348	-5.5629	-0.5577	0.7373	0.2819	-0.2568
0.13	-0.6229	-9.3279	-2.4037	0.0196	-0.0038	0.0125	34.5931	25.4459	-5.4841	-0.5577	0.7373	0.2819	-0.2568
0.14	-0.6155	-9.3343	-2.4095	0.0182	-0.0042	0.0142	34.5927	25.5569	-5.6888	-0.5576	0.7373	0.2819	-0.2568
0.15	-0.6124	-9.3304	-2.3968	0.0217	-0.0058	0.0187	34.4314	25.6271	-5.4584	-0.5577	0.7373	0.2819	-0.2569
0.16	-0.6165	-9.3343	-2.4025	0.0216	-0.0022	0.0081	34.4452	25.4974	-5.5528	-0.5576	0.7372	0.2819	-0.2568
0.17	-0.6240	-9.3384	-2.4087	0.0159	-0.0071	0.0140	34.4259	25.4244	-5.8158	-0.5576	0.7373	0.2819	-0.2569
0.18	-0.6230	-9.3300	-2.4073	0.0198	-0.0058	0.0173	34.3426	25.4139	-5.6161	-0.5576	0.7373	0.2819	-0.2569
0.19	-0.6272	-9.3262	-2.3915	0.0147	-0.0048	0.0108	34.3674	25.4927	-5.6132	-0.5576	0.7373	0.2819	-0.2569
0.2	-0.6268	-9.3316	-2.3955	0.0147	0.0014	0.0076	34.3636	25.6085	-5.6842	-0.5576	0.7373	0.2819	-0.2569
0.21	-0.6281	-9.3263	-2.3897	0.0180	-0.0015	0.0099	34.2393	25.5844	-5.6454	-0.5576	0.7373	0.2819	-0.2569
0.22	-0.6291	-9.3242	-2.3793	0.0243	-0.0040	0.0107	34.3614	25.5812	-5.6435	-0.5576	0.7373	0.2820	-0.2569
0.23	-0.6288	-9.3367	-2.3825	0.0201	-0.0053	0.0112	34.2878	25.6669	-5.4310	-0.5575	0.7373	0.2819	-0.2569
0.24	-0.6323	-9.3374	-2.3840	0.0194	-0.0040	0.0077	34.1790	25.6840	-5.6633	-0.5576	0.7373	0.2820	-0.2569
0.25	-0.6308	-9.3297	-2.3848	0.0279	-0.0006	0.0097	34.3651	25.5174	-5.5751	-0.5576	0.7373	0.2820	-0.2569
0.26	-0.6274	-9.3318	-2.3874	0.0232	-0.0038	0.0063	34.5495	25.5192	-5.4450	-0.5576	0.7373	0.2820	-0.2569
0.27	-0.6184	-9.3379	-2.4022	0.0252	-0.0056	0.0146	34.3290	25.4997	-5.4896	-0.5576	0.7372	0.2820	-0.2569
0.28	-0.6097	-9.3286	-2.4040	0.0166	-0.0087	0.0148	34.3728	25.4266	-5.4955	-0.5576	0.7373	0.2820	-0.2570
0.29	-0.5987	-9.3292	-2.3979	0.0144	-0.0042	0.0129	34.4949	25.3879	-5.6200	-0.5576	0.7373	0.2820	-0.2570
0.3	-0.5947	-9.3380	-2.4047	0.0214	-0.0070	0.0137	34.6152	25.3236	-5.7615	-0.5575	0.7372	0.2820	-0.2570
0.31	-0.5930	-9.3397	-2.4019	0.0213	0.0001	0.0106	34.5112	25.4612	-5.6020	-0.5576	0.7373	0.2821	-0.2570
0.32	-0.5929	-9.3279	-2.3921	0.0283	-0.0001	0.0131	34.5240	25.5408	-5.4698	-0.5576	0.7372	0.2820	-0.2570
0.33	-0.6001	-9.3345	-2.4002	0.0257	-0.0016	0.0103	34.5109	25.4489	-5.8616	-0.5576	0.7373	0.2820	-0.2570
0.34	-0.6042	-9.3277	-2.3991	0.0235	-0.0002	0.0113	34.6268	25.4188	-5.7282	-0.5576	0.7372	0.2820	-0.2570
0.35	-0.6154	-9.3277	-2.3916	0.0293	0.0070	0.0187	34.5738	25.4385	-5.6259	-0.5577	0.7372	0.2820	-0.2570
0.36	-0.6177	-9.3352	-2.4032	0.0240	-0.0021	0.0147	34.5140	25.4199	-5.3353	-0.5577	0.7372	0.2819	-0.2570
0.37	-0.6186	-9.3358	-2.4046	0.0256	-0.0001	0.0141	34.7256	25.5016	-5.2803	-0.5577	0.7372	0.2819	-0.2570
0.38	-0.6185	-9.3310	-2.4014	0.0250	-0.0002	0.0154	35.0149	25.5173	-5.3453	-0.5577	0.7372	0.2819	-0.2570
0.39	-0.6084	-9.3222	-2.3992	0.0225	0.0009	0.0062	34.6373	25.6101	-5.4272	-0.5577	0.7372	0.2819	-0.2570
0.4	-0.6055	-9.3373	-2.4010	0.0206	0.0024	0.0053	34.3735	26.1213	-5.5602	-0.5577	0.7372	0.2819	-0.2570
0.41	-0.6020	-9.3330	-2.4041	0.0218	-0.0049	0.0098	34.4233	25.9933	-5.5490	-0.5577	0.7371	0.2819	-0.2570
0.42	-0.5964	-9.3256	-2.4013	0.0127	0.0006	0.0088	34.2724	25.4341	-5.4834	-0.5577	0.7372	0.2820	-0.2570
0.43	-0.5999	-9.3308	-2.4007	0.0151	0.0013	0.0076	34.1712	25.5821	-5.6064	-0.5577	0.7372	0.2820	-0.2569
0.44	-0.6059	-9.3332	-2.4055	0.0195	0.0008	0.0070	34.4053	25.5071	-5.4965	-0.5577	0.7372	0.2820	-0.2569
0.45	-0.6093	-9.3276	-2.3969	0.0239	0.0012	0.0159	34.5206	25.5603	-5.3601	-0.5577	0.7372	0.2820	-0.2569
0.46	-0.6210	-9.3340	-2.3968	0.0292	-0.0009	0.0115	34.3504	25.6186	-5.5541	-0.5577	0.7372	0.2819	-0.2569
0.47	-0.6295	-9.3472	-2.4000	0.0190	-0.0005	0.0143	34.3980	25.4425	-5.5117	-0.5577	0.7372	0.2819	-0.2569
0.48	-0.6340	-9.3279	-2.3959	0.0265	-0.0030	0.0177	34.7010	25.5366	-5.4461	-0.5577	0.7371	0.2819	-0.2569
0.49	-0.6358	-9.3176	-2.3781	0.0215	-0.0013	0.0151	34.5335	25.5510	-5.4875	-0.5578	0.7372	0.2819	-0.2570
0.5	-0.6387	-9.3393	-2.3942	0.0172	0.0023	0.0089	34.5068	25.3831	-5.6138	-0.5577	0.7372	0.2819	-0.2569
0.51	-0.6381	-9.3374	-2.3985	0.0234	0.0013	0.0106	34.4756	25.4052	-5.4125	-0.5578	0.7372	0.2819	-0.2569
0.52	-0.6312	-9.3154	-2.3753	0.0225	-0.0043	0.0112	34.6086	25.6610	-5.3625	-0.5577	0.7371	0.2819	-0.2569
0.53	-0.6201	-9.3305	-2.3849	0.0215	-0.0023	0.0093	34.3074	25.5783	-5.6523	-0.5578	0.7372	0.2819	-0.2569
0.54	-0.6067	-9.3489	-2.3883	0.0214	0.0017	0.0113	34.3064	25.5241	-5.4546	-0.5578	0.7372	0.2819	-0.2569
0.55	-0.5953	-9.3274	-2.3724	0.0172	-0.0069	0.0127	34.6057	25.5539	-5.5813	-0.5577	0.7371	0.2819	-0.2569
0.56	-0.5882	-9.3280	-2.3731	0.0203	-0.0041	0.0119	34.5746	25.4474	-5.4309	-0.5578	0.7372	0.2820	-0.2570
0.57	-0.5876	-9.3508	-2.3931	0.0121	0.0002	0.0148	34.5481	25.4589	-5.2776	-0.5577	0.7372	0.2819	-0.2569
0.58	-0.5961	-9.3359	-2.3944	0.0203	0.0021	0.0134	34.4436	25.6681	-5.5013	-0.5577	0.7372	0.2819	-0.2569
0.59	-0.6102	-9.3144	-2.3805	0.0229	0.0016	0.0082	34.3118	25.4057	-5.4738	-0.5577	0.7371	0.2819	-0.2569
0.6	-0.6310	-9.3381	-2.4021	0.0229	-0.0037	0.0112	34.3651	25.5235	-5.3647	-0.5577	0.7372	0.2819	-0.2569
0.61	-0.6425	-9.3453	-2.4139	0.0091	0.0032	0.0074	34.4103	25.4420	-5.4358	-0.5577	0.7372	0.2819	-0.2569
0.62	-0.6424	-9.3165	-2.4003	0.0136	-0.0012	0.0087	34.4914	25.4034	-5.4980	-0.5577	0.7372	0.2820	-0.2569
0.63	-0.6417	-9.3200	-2.4023	0.0169	-0.0030	0.0112	34.4943	25.5708	-5.3607	-0.5577	0.7373	0.2820	-0.2569
0.64	-0.6364	-9.3457	-2.4211	0.0187	-0.0042	0.0169	34.3977	25.6542	-5.4271	-0.5576	0.7372	0.2820	-0.2569
0.65	-0.6255	-9.3302	-2.4096	0.0179	-0.0028	0.0092	34.4134	25.5350	-5.5030	-0.5577	0.7373	0.2820	-0.2569
0.66	-0.6151	-9.3191	-2.3911	0.0191	-0.0076	0.0156	34.4885	25.6367	-5.4432	-0.5576	0.7372	0.2820	-0.2569
0.67	-0.6097	-9.3403	-2.4068	0.0234	-0.0043	0.0115	34.5983	25.5815	-5.6297	-0.5576	0.7373	0.2820	-0.2569
0.68	-0.6067	-9.3374	-2.4011	0.0294	-0.0036	0.0108	34.2943	25.5767	-5.2894	-0.5577	0.7372	0.2820	-0.2569
0.69	-0.6058	-9.3189	-2.3857	0.0189	-0.0037	0.0113	34.4332	25.5772	-5.5113	-0.5577	0.7372	0.2820	-0.2569
0.7	-0.6076	-9.3290	-2.3893	0.0050	-0.0032	0.0105	34.3315	25.4379	-5.6889	-0.5576	0.7372	0.2820	-0.2569
0.71	-0.6142	-9.3459	-2.4007	0.0154	-0.0041	0.0105	34.3446	25.5420	-5.4045	-0.5576	0.7373	0.2821	-0.2569
0.72	-0.6088	-9.3230	-2.3862	0.0152	-0.0008	0.0113	34.3053	25.5914	-5.5421	-0.5576	0.7373	0.2821	-0.2569
0.73	-0.6098	-9.3211	-2.3793	0.0100	-0.0010	0.0119	34.4893	25.5646	-5.3571	-0.5575	0.7372	0.2821	-0.2569
0.74	-0.6140	-9.3526	-2.3988	0.0126	-0.0071	0.0128	34.5106	25.5171	-5.4196	-0.5575	0.7374	0.2821	-0.2569
0.75	-0.6175	-9.3385	-2.3917	0.0171	-0.0062	0.0149	34.3534	25.5601	-5.6135	-0.5574	0.7373	0.2821	-0.2569
0.76	-0.6195	-9.3199	-2.3782	0.0132	-0.0029	0.0129	34.3351	25.5092	-5.2552	-0.5575	0.7374	0.2821	-0.2569
0.77	-0.6178	-9.3398	-2.3994	0.0143	-0.0013	0.0103	34.3342	25.5688	-5.5105	-0.5574	0.7373	0.2821	-0.2569
0.78	-0.6171	-9.3459	-2.4075	0.0217	-0.0053	0.0097	34.3482	25.4771	-5.6705	-0.5574	0.7374	0.2821	-0.2569
0.79	-0.6107	-9.3208	-2.4024	0.0125	0.0041	0.0080	34.4792	25.5274	-5.2944	-0.5574	0.7374	0.2822	-0.2569
0.8	-0.6030	-9.3272	-2.3970	0.0150	-0.0032	0.0089	34.5018	25.7465	-5.3666	-0.5573	0.7373	0.2822	-0.2568
0.81	-0.5995	-9.3502	-2.4172	0.0126	0.0032	0.0109	34.4878	25.5852	-5.5292	-0.5574	0.7375	0.2822	-0.2569
0.82	-0.5950	-9.3356	-2.4066	0.0120	-0.0035	0.0078	34.5120	25.6608	-5.3906	-0.5573	0.7374	0.2822	-0.2568
0.83	-0.5920	-9.3211	-2.3963	0.0100	0.0018	0.0128	34.4359	25.5384	-5.2474	-0.5573	0.7375	0.2822	-0.2568
0.84	-0.6006	-9.3406	-2.4120	0.0169	-0.0003	0.0119	34.3251	25.5377	-5.4902	-0.5572	0.7374	0.2822	-0.2568
0.85	-0.6069	-9.3431	-2.4128	0.0142	-0.0072	0.0145	34.4412	25.5261	-5.6053	-0.5572	0.7375	0.2822	-0.2568
0.86	-0.6121	-9.3168	-2.3931	0.0150	0.0038	0.0093	34.5849	25.4255	-5.4571	-0.5572	0.7375	0.2822	-0.2568
0.87	-0.6209	-9.3286	-2.4000	0.0097	0.0024	0.0110	34.7825	25.5395	-5.2859	-0.5572	0.7375	0.2822	-0.2567
0.88	-0.6249	-9.3452	-2.4130	0.0143	-0.0043	0.0156	35.0801	25.5427	-5.2121	-0.5572	0.7376	0.2822	-0.2568
0.89	-0.6249	-9.3200	-2.3907	0.0205	-0.0042	0.0126	34.7413	25.5712	-5.4164	-0.5571	0.7376	0.2822	-0.2568
0.9	-0.6182	-9.3202	-2.3878	0.0184	-0.0028	0.0117	34.4934	26.0099	-5.7231	-0.5572	0.7376	0.2823	-0.2568
0.91	-0.6190	-9.3556	-2.4113	0.0198	-0.0039	0.0139	34.4701	25.8784	-5.7284	-0.5571	0.7375	0.2822	-0.2568
0.92	-0.6091	-9.3422	-2.3974	0.0215	-0.0039	0.0180	34.5353	25.3297	-5.6121	-0.5571	0.7376	0.2822	-0.2568
0.93	-0.5987	-9.3078	-2.3772	0.0220	-0.0086	0.0170	34.4461	25.3263	-5.3779	-0.5571	0.7376	0.2822	-0.2568
0.94	-0.5978	-9.3331	-2.3907	0.0213	-0.0037	0.0166	34.4487	25.4591	-5.6535	-0.5571	0.7376	0.2822	-0.2569
0.95	-0.5951	-9.3561	-2.4080	0.0241	-0.0065	0.0118	34.3164	25.6199	-5.6404	-0.5571	0.7375	0.2822	-0.2569
0.96	-0.5960	-9.3297	-2.3869	0.0192	-0.0019	0.0084	34.2939	25.5725	-5.4249	-0.5571	0.7375	0.2822	-0.2569
0.97	-0.5998	-9.3203	-2.3920	0.0200	0.0018	0.0046	34.3112	25.5968	-5.5216	-0.5571	0.7376	0.2823	-0.2569
0.98	-0.6093	-9.3462	-2.4138	0.0134	-0.0047	0.0127	34.2423	25.5746	-5.6807	-0.5570	0.7375	0.2823	-0.2568
0.99	-0.6136	-9.3328	-2.4044	0.0244	-0.0030	0.0161	34.3605	25.5860	-5.5090	-0.5571	0.7376	0.2823	-0.2569
1	-0.6165	-9.3094	-2.3904	0.0120	-0.0054	0.0105	34.3602	25.5872	-5.5081	-0.5571	0.7376	0.2823	-0.2569
1.01	-0.6281	-9.3409	-2.4056	0.0133	-0.0034	0.0080	34.2740	25.5886	-5.5735	-0.5571	0.7376	0.2823	-0.2569
1.02	-0.6326	-9.3424	-2.4053	0.0246	-0.0024	0.0116	34.3526	25.5918	-5.5668	-0.5570	0.7375	0.2823	-0.2569
1.03	-0.6276	-9.3180	-2.3789	0.0246	-0.0102	0.0201	34.4330	25.4631	-5.5242	-0.5570	0.7376	0.2823	-0.2569
1.04	-0.6210	-9.3348	-2.3812	0.0178	-0.0056	0.0180	34.4657	25.5802	-5.4863	-0.5570	0.7376	0.2823	-0.2570
1.05	-0.6186	-9.3566	-2.3913	0.0229	0.0016	0.0098	34.5252	25.5291	-5.6769	-0.5570	0.7375	0.2823	-0.2569
1.06	-0.6013	-9.3318	-2.3742	0.0203	0.0044	0.0182	34.5009	25.3989	-5.4266	-0.5571	0.7376	0.2823	-0.2570
1.07	-0.5888	-9.3166	-2.3630	0.0193	-0.0028	0.0149	34.5068	25.4490	-5.6127	-0.5570	0.7376	0.2822	-0.2570
1.08	-0.5839	-9.3486	-2.3883	0.0162	0.0034	0.0139	34.3254	25.5992	-5.4617	-0.5570	0.7376	0.2823	-0.2570
1.09	-0.5838	-9.3462	-2.3903	0.0209	0.0023	0.0126	34.4306	25.5003	-5.5589	-0.5570	0.7376	0.2822	-0.2569
1.1	-0.5959	-9.3243	-2.3820	0.0284	-0.0044	0.0084	34.5166	25.5184	-5.5636	-0.5571	0.7376	0.2822	-0.2569
1.11	-0.6157	-9.3389	-2.3919	0.0282	0.0022	0.0113	34.3574	25.4656	-5.7088	-0.5571	0.7376	0.2822	-0.2569
1.12	-0.6284	-9.3474	-2.4051	0.0200	0.0018	0.0112	34.3392	25.3895	-5.4691	-0.5571	0.7375	0.2822	-0.2569
1.13	-0.6365	-9.3124	-2.3924	0.0174	-0.0002	0.0106	34.4381	25.4567	-5.4703	-0.5571	0.7376	0.2822	-0.2569
1.14	-0.6445	-9.3177	-2.3916	0.0164	-0.0025	0.0131	34.3087	25.6157	-5.5870	-0.5571	0.7376	0.2822	-0.2569
1.15	-0.6451	-9.3530	-2.4212	0.0220	0.0014	0.0095	34.1979	25.3752	-5.3540	-0.5571	0.7376	0.2822	-0.2569
1.16	-0.6360	-9.3319	-2.4147	0.0238	0.0081	0.0113	34.1587	25.5896	-5.4818	-0.5570	0.7375	0.2822	-0.2568
1.17	-0.6256	-9.3047	-2.3846	0.0177	0.0053	0.0098	34.4119	25.5889	-5.6880	-0.5571	0.7376	0.2822	-0.2568
1.18	-0.6179	-9.3345	-2.4024	0.0228	0.0022	0.0128	34.4062	25.5980	-5.6064	-0.5571	0.7376	0.2822	-0.2568
1.19	-0.6192	-9.3497	-2.4143	0.0195	-0.0042	0.0135	34.2475	25.5642	-5.4778	-0.5571	0.7376	0.2822	-0.2568
1.2	-0.6171	-9.3161	-2.3873	0.0221	-0.0021	0.0111	34.3441	25.6952	-5.3942	-0.5571	0.7376	0.2822	-0.2568
1.21	-0.6198	-9.3243	-2.3944	0.0225	-0.0042	0.0137	34.4715	25.6307	-5.4899	-0.5571	0.7376	0.2822	-0.2569
1.22	-0.6301	-9.3601	-2.4250	0.0251	-0.0059	0.0143	34.5255	25.4118	-5.4831	-0.5571	0.7376	0.2822	-0.2569
1.23	-0.6328	-9.3274	-2.4047	0.0249	-0.0007	0.0119	34.4993	25.4468	-5.7435	-0.5571	0.7375	0.2821	-0.2569
1.24	-0.6246	-9.2985	-2.3757	0.0244	-0.0074	0.0105	34.5293	25.3073	-5.6211	-0.5572	0.7376	0.2822	-0.2569
1.25	-0.6203	-9.3412	-2.3986	0.0206	0.0022	0.0108	34.6069	25.3971	-5.6316	-0.5571	0.7375	0.2822	-0.2569
1.26	-0.6140	-9.3499	-2.4020	0.0145	0.0025	0.0132	34.3481	25.4354	-5.4322	-0.5572	0.7376	0.2822	-0.2569
1.27	-0.6137	-9.3185	-2.3699	0.0232	-0.0004	0.0111	34.3471	25.4118	-5.6769	-0.5571	0.7375	0.2821	-0.2569
1.28	-0.6254	-9.3376	-2.3810	0.0202	0.0020	0.0100	34.4578	25.5427	-5.4963	-0.5572	0.7376	0.2822	-0.2569
1.29	-0.6332	-9.3537	-2.4031	0.0233	0.0034	0.0140	34.5759	25.4536	-5.6685	-0.5572	0.7376	0.2821	-0.2569
1.3	-0.6354	-9.3224	-2.3940	0.0313	0.0029	0.0119	34.6069	25.3987	-5.7664	-0.5572	0.7375	0.2821	-0.2568
1.31	-0.6293	-9.3121	-2.3789	0.0244	-0.0062	0.0120	34.5820	25.5507	-5.6004	-0.5573	0.7376	0.2821	-0.2569
1.32	-0.6207	-9.3444	-2.4094	0.0237	-0.0064	0.0126	34.5961	25.4541	-5.5346	-0.5572	0.7375	0.2821	-0.2569
1.33	-0.6067	-9.3406	-2.4035	0.0235	0.0012	0.0087	34.3656	25.4553	-5.3698	-0.5573	0.7375	0.2821	-0.2569
1.34	-0.5932	-9.3158	-2.3821	0.0221	0.0003	0.0074	34.2535	25.6072	-5.4789	-0.5572	0.7374	0.2821	-0.2569
1.35	-0.5898	-9.3389	-2.4033	0.0200	0.0024	0.0077	34.4649	25.5778	-5.5815	-0.5573	0.7375	0.2821	-0.2568
1.36	-0.5940	-9.3489	-2.4117	0.0205	0.0036	0.0090	34.4110	25.7710	-5.3878	-0.5573	0.7375	0.2821	-0.2568
1.37	-0.6016	-9.3178	-2.3926	0.0220	0.0014	0.0071	34.7128	25.6946	-5.4019	-0.5573	0.7375	0.2821	-0.2568
1.38	-0.6054	-9.3162	-2.3915	0.0285	0.0081	0.0080	35.0137	25.4722	-5.2745	-0.5573	0.7375	0.2821	-0.2568
1.39	-0.6120	-9.3372	-2.4132	0.0166	0.0058	0.0117	34.7162	25.6428	-5.3808	-0.5573	0.7375	0.2821	-0.2567
1.4	-0.6110	-9.3337	-2.3968	0.0204	-0.0092	0.0151	34.5247	26.0282	-5.5755	-0.5573	0.7375	0.2821	-0.2568
1.41	-0.6110	-9.3231	-2.3922	0.0228	-0.0029	0.0107	34.2874	25.9930	-5.5616	-0.5573	0.7374	0.2821	-0.2567
1.42	-0.6115	-9.3440	-2.4052	0.0187	-0.0067	0.0183	34.2704	25.4194	-5.5893	-0.5573	0.7375	0.2821	-0.2568
1.43	-0.6088	-9.3412	-2.4052	0.0256	-0.0017	0.0140	34.5124	25.3345	-5.3857	-0.5573	0.7375	0.2821	-0.2568
1.44	-0.6015	-9.3198	-2.3832	0.0202	-0.0029	0.0151	34.4389	25.5226	-5.4578	-0.5573	0.7375	0.2821	-0.2568
1.45	-0.5946	-9.3317	-2.3934	0.0193	0.0004	0.0114	34.3898	25.5440	-5.5951	-0.5573	0.7375	0.2821	-0.2568
1.46	-0.5954	-9.3450	-2.3978	0.0211	-0.0080	0.0101	34.3629	25.4215	-5.5476	-0.5573	0.7375	0.2821	-0.2568
1.47	-0.5892	-9.3284	-2.3840	0.0238	-0.0045	0.0107	34.4410	25.6471	-5.6020	-0.5573	0.7375	0.2821	-0.2569
1.48	-0.5910	-9.3264	-2.3860	0.0227	-0.0034	0.0159	34.4094	25.5345	-5.4690	-0.5573	0.7374	0.2821	-0.2569
1.49	-0.5988	-9.3471	-2.3982	0.0236	-0.0073	0.0141	34.4993	25.4461	-5.4951	-0.5573	0.7375	0.2821	-0.2569
1.5	-0.6085	-9.3362	-2.3885	0.0287	-0.0082	0.0144	34.5465	25.4622	-5.5768	-0.5573	0.7374	0.2821	-0.2569
1.51	-0.6172	-9.3212	-2.3766	0.0137	-0.0032	0.0075	34.5490	25.4495	-5.3574	-0.5574	0.7375	0.2822	-0.2570
1.52	-0.6229	-9.3368	-2.3825	0.0092	-0.0003	0.0128	34.3875	25.4528	-5.4351	-0.5572	0.7374	0.2821	-0.2569
1.53	-0.6287	-9.3422	-2.3868	0.0175	-0.0007	0.0129	34.4313	25.4449	-5.3294	-0.5573	0.7375	0.2821	-0.2569
1.54	-0.6294	-9.3221	-2.3704	0.0126	-0.0009	0.0107	34.3810	25.6377	-5.3961	-0.5572	0.7375	0.2822	-0.2569
1.55	-0.6299	-9.3194	-2.3646	0.0174	0.0066	0.0136	34.2237	25.5249	-5.6215	-0.5572	0.7375	0.2821	-0.2569
1.56	-0.6312	-9.3456	-2.3776	0.0208	0.0014	0.0064	34.4722	25.5558	-5.4591	-0.5573	0.7376	0.2822	-0.2569
1.57	-0.6224	-9.3452	-2.3791	0.0169	-0.0026	0.0094	34.3470	25.6295	-5.5072	-0.5572	0.7375	0.2822	-0.2568
1.58	-0.6105	-9.3213	-2.3562	0.0197	-0.0011	0.0125	34.3997	25.6243	-5.4832	-0.5573	0.7376	0.2822	-0.2569
1.59	-0.5989	-9.3354	-2.3596	0.0253	-0.0090	0.0174	34.3409	25.5234	-5.4995	-0.5572	0.7374	0.2821	-0.2569
1.6	-0.5942	-9.3414	-2.3687	0.0254	-0.0018	0.0098	34.3329	25.4407	-5.3635	-0.5572	0.7375	0.2822	-0.2569
1.61	-0.5903	-9.3329	-2.3722	0.0240	0.0014	0.0120	34.4869	25.5885	-5.6166	-0.5573	0.7375	0.2821	-0.2569
1.62	-0.5935	-9.3474	-2.3984	0.0130	0.0001	0.0119	34.5296	25.4378	-5.6772	-0.5572	0.7375	0.2821	-0.2569
1.63	-0.6131	-9.3660	-2.4257	0.0159	-0.0025	0.0102	34.2973	25.4622	-5.6512	-0.5572	0.7375	0.2822	-0.2569
1.64	-0.6352	-9.3361	-2.4208	0.0174	-0.0037	0.0103	34.3866	25.4297	-5.5376	-0.5572	0.7375	0.2822	-0.2569
1.65	-0.6460	-9.3021	-2.4193	0.0216	-0.0051	0.0103	34.4230	25.5029	-5.6434	-0.5572	0.7375	0.2822	-0.2569
1.66	-0.6604	-9.3188	-2.4470	0.0195	-0.0048	0.0100	34.5014	25.6183	-5.6763	-0.5572	0.7374	0.2822	-0.2569
1.67	-0.6554	-9.3243	-2.4499	0.0178	-0.0044	0.0112	34.4962	25.6317	-5.6461	-0.5572	0.7375	0.2822	-0.2569
1.68	-0.6444	-9.3273	-2.4530	0.0234	-0.0070	0.0192	34.2302	25.5691	-5.5175	-0.5572	0.7375	0.2822	-0.2569
1.69	-0.6413	-9.3286	-2.4500	0.0098	0.0058	0.0134	34.3332	25.5027	-5.4549	-0.5572	0.7375	0.2822	-0.2569
1.7	-0.6455	-9.3185	-2.4490	0.0201	0.0046	0.0116	34.3384	25.6376	-5.6028	-0.5571	0.7375	0.2822	-0.2569
1.71	-0.6421	-9.3105	-2.4333	0.0219	-0.0007	0.0114	34.4531	25.4802	-5.5397	-0.5572	0.7375	0.2822	-0.2569
1.72	-0.6353	-9.3179	-2.4317	0.0138	-0.0014	0.0074	34.3481	25.6178	-5.6542	-0.5572	0.7376	0.2822	-0.2569
1.73	-0.6240	-9.3322	-2.4231	0.0158	-0.0043	0.0100	34.3953	25.5419	-5.5963	-0.5571	0.7375	0.2822	-0.2568
1.74	-0.6111	-9.3411	-2.4124	0.0197	-0.0025	0.0093	34.4497	25.5334	-5.4482	-0.5571	0.7376	0.2823	-0.2569
1.75	-0.6050	-9.3400	-2.4031	0.0259	0.0079	0.0082	34.5028	25.5459	-5.5256	-0.5571	0.7375	0.2822	-0.2568
1.76	-0.6070	-9.3332	-2.3719	0.0189	0.0053	0.0102	34.3114	25.5398	-5.6244	-0.5572	0.7376	0.2822	-0.2568
1.77	-0.6022	-9.3303	-2.3580	0.0236	-0.0073	0.0139	34.4417	25.4464	-5.3478	-0.5571	0.7375	0.2822	-0.2568
1.78	-0.6018	-9.3176	-2.3287	0.0290	-0.0066	0.0165	34.3758	25.6667	-5.5798	-0.5572	0.7375	0.2822	-0.2568
1.79	-0.5994	-9.3330	-2.3308	0.0218	-0.0017	0.0102	34.3538	25.7254	-5.5087	-0.5572	0.7375	0.2822	-0.2568
1.8	-0.6080	-9.3277	-2.3224	0.0237	0.0018	0.0107	34.5203	25.6303	-5.5485	-0.5572	0.7375	0.2822	-0.2568
1.81	-0.5973	-9.3423	-2.3332	0.0187	-0.0024	0.0099	34.4111	25.4305	-5.6813	-0.5572	0.7376	0.2822	-0.2569
1.82	-0.5955	-9.3678	-2.3596	0.0252	-0.0042	0.0121	34.4206	25.4522	-5.5239	-0.5572	0.7375	0.2822	-0.2568
1.83	-0.5907	-9.3462	-2.3439	0.0203	0.0004	0.0107	34.4294	25.4663	-5.4002	-0.5572	0.7375	0.2822	-0.2569
1.84	-0.5845	-9.3241	-2.3444	0.0129	-0.0029	0.0108	34.3308	25.3445	-5.4758	-0.5571	0.7375	0.2822	-0.2568
1.85	-0.5852	-9.3264	-2.3558	0.0238	0.0012	0.0103	34.3407	25.5029	-5.6050	-0.5572	0.7375	0.2822	-0.2568
1.86	-0.5780	-9.3481	-2.3777	0.0200	0.0041	0.0117	34.6555	25.6692	-5.3674	-0.5572	0.7375	0.2822	-0.2568
1.87	-0.5806	-9.3543	-2.3970	0.0201	-0.0004	0.0099	34.8752	25.6013	-5.1549	-0.5572	0.7375	0.2822	-0.2568
1.88	-0.5886	-9.3455	-2.4105	0.0215	-0.0049	0.0117	35.0549	25.5555	-5.0228	-0.5572	0.7375	0.2822	-0.2568
1.89	-0.6082	-9.3251	-2.4151	0.0163	-0.0000	0.0084	34.5880	25.6634	-5.2084	-0.5572	0.7375	0.2822	-0.2568
1.9	-0.6295	-9.3220	-2.4328	0.0176	-0.0061	0.0116	34.4273	25.9073	-5.3020	-0.5572	0.7375	0.2823	-0.2568
1.91	-0.6429	-9.3410	-2.4761	0.0211	-0.0041	0.0120	34.3050	25.9367	-5.2737	-0.5571	0.7374	0.2822	-0.2568
1.92	-0.6493	-9.3107	-2.4505	0.0224	-0.0002	0.0081	34.3871	25.5348	-5.5392	-0.5572	0.7375	0.2823	-0.2568
1.93	-0.6251	-9.2814	-2.4290	0.0248	-0.0018	0.0082	34.3005	25.7023	-5.7493	-0.5572	0.7375	0.2823	-0.2568
1.94	-0.6096	-9.3102	-2.4395	0.0202	0.0013	0.0018	34.3428	25.4039	-5.6754	-0.5572	0.7375	0.2823	-0.2568
1.95	-0.5934	-9.3515	-2.4559	0.0200	-0.0064	0.0059	34.4514	25.4248	-5.5475	-0.5572	0.7374	0.2823	-0.2567
1.96	-0.5838	-9.3519	-2.4434	0.0243	-0.0009	0.0119	34.2336	25.5451	-5.5697	-0.5572	0.7374	0.2823	-0.2568
1.97	-0.5799	-9.3370	-2.4252	0.0234	-0.0062	0.0129	34.3164	25.3890	-5.5854	-0.5573	0.7375	0.2824	-0.2568
1.98	-0.5805	-9.3418	-2.4173	0.0257	-0.0048	0.0187	34.5262	25.2891	-5.4649	-0.5572	0.7374	0.2823	-0.2568
1.99	-0.5891	-9.3420	-2.4088	0.0226	0.0001	0.0105	34.5908	25.5894	-5.4877	-0.5573	0.7375	0.2823	-0.2568
2	-0.5942	-9.3229	-2.3797	0.0216	0.0019	0.0124	34.6640	25.4121	-5.5820	-0.5573	0.7374	0.2823	-0.2568
2.01	-0.6111	-9.3259	-2.3755	0.0220	0.0018	0.0137	34.5989	25.5566	-5.5442	-0.5573	0.7375	0.2823	-0.2568
2.02	-0.6321	-9.3347	-2.3720	0.0280	-0.0013	0.0089	34.3109	25.6102	-5.5784	-0.5573	0.7374	0.2823	-0.2568
2.03	-0.6498	-9.3358	-2.3610	0.0290	0.0004	0.0141	34.3961	25.3475	-5.5457	-0.5573	0.7374	0.2823	-0.2568
2.04	-0.6590	-9.3224	-2.3487	0.0250	-0.0031	0.0095	34.4964	25.3407	-5.5981	-0.5574	0.7374	0.2823	-0.2568
2.05	-0.6653	-9.3305	-2.3515	0.0277	-0.0059	0.0136	34.5557	25.3974	-5.7557	-0.5573	0.7373	0.2823	-0.2568
2.06	-0.6670	-9.3259	-2.3393	0.0271	-0.0065	0.0108	34.4111	25.5487	-5.6212	-0.5574	0.7374	0.2823	-0.2569
2.07	-0.6534	-9.3075	-2.3311	0.0242	-0.0036	0.0120	34.3530	25.5673	-5.5544	-0.5574	0.7373	0.2823	-0.2569
2.08	-0.6344	-9.3332	-2.3457	0.0177	0.0009	0.0105	34.3612	25.4562	-5.5650	-0.5574	0.7374	0.2823	-0.2569
2.09	-0.6095	-9.3724	-2.3686	0.0255	-0.0037	0.0100	34.3648	25.6118	-5.5733	-0.5574	0.7372	0.2823	-0.2569
2.1	-0.5921	-9.3346	-2.3399	0.0232	-0.0021	0.0110	34.4528	25.5605	-5.5504	-0.5574	0.7373	0.2823	-0.2569
2.11	-0.5669	-9.3141	-2.3297	0.0168	0.0022	0.0076	34.4513	25.6450	-5.4407	-0.5574	0.7373	0.2823	-0.2569
2.12	-0.5568	-9.3438	-2.3527	0.0204	0.0008	0.0103	34.3708	25.6743	-5.5703	-0.5574	0.7373	0.2823	-0.2568
2.13	-0.5526	-9.3567	-2.3792	0.0135	0.0025	0.0023	34.2633	25.6675	-5.5775	-0.5574	0.7373	0.2823	-0.2568
2.14	-0.5559	-9.3359	-2.3600	0.0194	-0.0050	0.0110	34.5186	25.6575	-5.4260	-0.5574	0.7373	0.2823	-0.2568
2.15	-0.5806	-9.3444	-2.3741	0.0168	-0.0025	0.0135	34.2992	25.7189	-5.3710	-0.5574	0.7373	0.2824	-0.2568
2.16	-0.6046	-9.3461	-2.3978	0.0105	-0.0088	0.0115	34.2501	25.4092	-5.4740	-0.5573	0.7373	0.2824	-0.2568
2.17	-0.6259	-9.3212	-2.3946	0.0202	-0.0039	0.0125	34.5097	25.3308	-5.5874	-0.5574	0.7374	0.2824	-0.2568
2.18	-0.6363	-9.3089	-2.3989	0.0233	-0.0039	0.0125	34.5121	25.4758	-5.5348	-0.5574	0.7373	0.2824	-0.2568
2.19	-0.6448	-9.3243	-2.4067	0.0191	-0.0076	0.0124	34.5613	25.3384	-5.6483	-0.5574	0.7373	0.2824	-0.2569
2.2	-0.6479	-9.3322	-2.4203	0.0157	-0.0070	0.0125	34.3202	25.3374	-5.6435	-0.5573	0.7373	0.2824	-0.2569
2.21	-0.6410	-9.3260	-2.4145	0.0257	-0.0034	0.0120	34.4172	25.3363	-5.5406	-0.5573	0.7373	0.2824	-0.2569
2.22	-0.6338	-9.3353	-2.4082	0.0211	-0.0045	0.0130	34.5734	25.3427	-5.5345	-0.5573	0.7373	0.2824	-0.2569
2.23	-0.6309	-9.3421	-2.4265	0.0180	-0.0064	0.0138	34.4682	25.3335	-5.3420	-0.5573	0.7372	0.2824	-0.2569
2.24	-0.6221	-9.3229	-2.4090	0.0237	-0.0081	0.0141	34.6690	25.4483	-5.5319	-0.5573	0.7373	0.2825	-0.2570
2.25	-0.6174	-9.3229	-2.4094	0.0181	-0.0087	0.0109	34.6220	25.4239	-5.3795	-0.5573	0.7373	0.2825	-0.2570
2.26	-0.6181	-9.3369	-2.4232	0.0158	-0.0027	0.0082	34.3858	25.6615	-5.5039	-0.5573	0.7374	0.2825	-0.2570
2.27	-0.6195	-9.3370	-2.4172	0.0229	-0.0021	0.0056	34.1794	25.7497	-5.7164	-0.5573	0.7372	0.2825	-0.2570
2.28	-0.6185	-9.3203	-2.4001	0.0169	-0.0051	0.0096	34.1077	25.6502	-5.3746	-0.5573	0.7373	0.2825	-0.2570
2.29	-0.6177	-9.3330	-2.3966	0.0162	-0.0011	0.0079	34.2695	25.6364	-5.4693	-0.5573	0.7373	0.2826	-0.2570
2.3	-0.6202	-9.3450	-2.4111	0.0168	0.0000	0.0075	34.3254	25.4799	-5.4682	-0.5572	0.7373	0.2826	-0.2569
2.31	-0.6241	-9.3348	-2.3998	0.0155	0.0003	0.0107	34.4857	25.6094	-5.5031	-0.5573	0.7374	0.2826	-0.2569
2.32	-0.6279	-9.3278	-2.3908	0.0150	0.0040	0.0099	34.5088	25.7093	-5.5600	-0.5572	0.7373	0.2826	-0.2569
2.33	-0.6341	-9.3380	-2.3997	0.0261	-0.0040	0.0117	34.3582	25.5807	-5.3992	-0.5573	0.7374	0.2826	-0.2569
2.34	-0.6371	-9.3282	-2.3890	0.0243	-0.0050	0.0112	34.3439	25.6123	-5.3630	-0.5572	0.7372	0.2826	-0.2569
2.35	-0.6368	-9.3193	-2.3907	0.0201	-0.0033	0.0135	34.4815	25.4322	-5.6764	-0.5573	0.7373	0.2826	-0.2569
2.36	-0.6305	-9.3296	-2.4036	0.0164	-0.0047	0.0120	34.5584	25.3463	-5.5022	-0.5572	0.7373	0.2826	-0.2569
2.37	-0.6186	-9.3331	-2.4063	0.0216	-0.0065	0.0066	35.0083	25.5424	-5.2527	-0.5572	0.7373	0.2826	-0.2569
2.38	-0.6072	-9.3306	-2.3989	0.0223	-0.0070	0.0158	35.5467	25.3330	-5.3074	-0.5572	0.7373	0.2826	-0.2570
2.39	-0.6002	-9.3366	-2.3981	0.0164	-0.0035	0.0142	34.7830	25.5480	-5.4766	-0.5572	0.7373	0.2826	-0.2570
2.4	-0.5956	-9.3445	-2.4081	0.0201	0.0009	0.0099	34.6804	26.0910	-5.6023	-0.5572	0.7373	0.2826	-0.2570
2.41	-0.5899	-9.3271	-2.3948	0.0172	-0.0025	0.0104	34.4652	26.0478	-5.4566	-0.5572	0.7372	0.2826	-0.2569
2.42	-0.5915	-9.3297	-2.4003	0.0225	-0.0036	0.0125	34.5218	25.5265	-5.4904	-0.5572	0.7373	0.2827	-0.2570
2.43	-0.5958	-9.3421	-2.4100	0.0202	-0.0068	0.0148	34.6046	25.5959	-5.3249	-0.5572	0.7373	0.2826	-0.2570
2.44	-0.5912	-9.3293	-2.4027	0.0124	-0.0009	0.0084	34.3249	25.4753	-5.5241	-0.5572	0.7373	0.2827	-0.2570
2.45	-0.5958	-9.3162	-2.3931	0.0200	-0.0024	0.0081	34.3648	25.6103	-5.2652	-0.5572	0.7373	0.2827	-0.2570
2.46	-0.5998	-9.3382	-2.4071	0.0110	-0.0003	0.0112	34.3000	25.4953	-5.3722	-0.5571	0.7373	0.2827	-0.2570
2.47	-0.6020	-9.3442	-2.4105	0.0203	-0.0003	0.0056	34.2883	25.5087	-5.5407	-0.5572	0.7373	0.2827	-0.2569
2.48	-0.6000	-9.3195	-2.3955	0.0281	-0.0028	0.0088	34.4345	25.5948	-5.3714	-0.5571	0.7372	0.2827	-0.2569
2.49	-0.5978	-9.3178	-2.3855	0.0172	-0.0011	0.0099	34.4121	25.6772	-5.3045	-0.5572	0.7373	0.2827	-0.2569
2.5	-0.6009	-9.3436	-2.4104	0.0163	-0.0034	0.0130	34.4292	25.5861	-5.4528	-0.5571	0.7373	0.2827	-0.2569
2.51	-0.5996	-9.3369	-2.4006	0.0268	-0.0018	0.0090	34.4254	25.5614	-5.5101	-0.5572	0.7374	0.2828	-0.2570
2.52	-0.6010	-9.3301	-2.3905	0.0261	-0.0048	0.0086	34.4282	25.4070	-5.3711	-0.5572	0.7372	0.2827	-0.2569
2.53	-0.6059	-9.3408	-2.3991	0.0232	-0.0089	0.0160	34.3096	25.3238	-5.5292	-0.5572	0.7373	0.2828	-0.2570
2.54	-0.6096	-9.3270	-2.3963	0.0281	-0.0014	0.0124	34.5738	25.4054	-5.5686	-0.5572	0.7372	0.2827	-0.2570
2.55	-0.6129	-9.3138	-2.3822	0.0247	-0.0066	0.0108	34.5272	25.4634	-5.5691	-0.5572	0.7372	0.2827	-0.2570
2.56	-0.6259	-9.3320	-2.3988	0.0250	-0.0008	0.0097	34.4874	25.4099	-5.4557	-0.5573	0.7373	0.2828	-0.2570
2.57	-0.6341	-9.3406	-2.4018	0.0306	-0.0040	0.0146	34.3929	25.4795	-5.5019	-0.5573	0.7372	0.2827	-0.2570
2.58	-0.6340	-9.3293	-2.3925	0.0265	-0.0063	0.0152	34.3032	25.5349	-5.6547	-0.5573	0.7372	0.2827	-0.2571
2.59	-0.6360	-9.3265	-2.3920	0.0298	-0.0025	0.0096	34.4635	25.4427	-5.6565	-0.5573	0.7371	0.2827	-0.2571
2.6	-0.6311	-9.3325	-2.4048	0.0234	-0.0045	0.0116	34.4826	25.4000	-5.6415	-0.5573	0.7371	0.2827	-0.2571
2.61	-0.6245	-9.3296	-2.4031	0.0246	-0.0034	0.0114	34.4490	25.3670	-5.4948	-0.5573	0.7371	0.2827	-0.2571
2.62	-0.6140	-9.3333	-2.4000	0.0258	-0.0042	0.0126	34.5351	25.5363	-5.4631	-0.5574	0.7371	0.2827	-0.2571
2.63	-0.6021	-9.3378	-2.4027	0.0174	0.0027	0.0112	34.4058	25.5132	-5.5884	-0.5574	0.7371	0.2827	-0.2571
2.64	-0.5944	-9.3333	-2.4091	0.0250	0.0043	0.0100	34.3074	25.6313	-5.5543	-0.5574	0.7371	0.2827	-0.2571
2.65	-0.5835	-9.3280	-2.4062	0.0167	-0.0029	0.0126	34.4320	25.5513	-5.3924	-0.5574	0.7371	0.2827	-0.2571
2.66	-0.5878	-9.3301	-2.4087	0.0175	0.0006	0.0096	34.3344	25.3960	-5.3875	-0.5573	0.7370	0.2827	-0.2571
2.67	-0.6022	-9.3414	-2.4163	0.0201	-0.0022	0.0099	34.3666	25.6699	-5.5011	-0.5574	0.7371	0.2827	-0.2571
2.68	-0.6185	-9.3308	-2.4109	0.0197	0.0003	0.0085	34.4226	25.3204	-5.4699	-0.5574	0.7371	0.2827	-0.2571
2.69	-0.6330	-9.3206	-2.4094	0.0224	-0.0022	0.0128	34.2853	25.3448	-5.4757	-0.5574	0.7371	0.2827	-0.2571
2.7	-0.6424	-9.3326	-2.4239	0.0229	0.0065	0.0130	34.5616	25.6824	-5.4875	-0.5574	0.7371	0.2827	-0.2570
2.71	-0.6433	-9.3300	-2.4223	0.0216	-0.0049	0.0144	34.4362	25.4079	-5.4703	-0.5574	0.7371	0.2827	-0.2571
2.72	-0.6345	-9.3290	-2.4103	0.0255	-0.0083	0.0178	34.3031	25.7093	-5.5213	-0.5574	0.7371	0.2827	-0.2571
2.73	-0.6301	-9.3358	-2.4206	0.0286	-0.0035	0.0110	34.4315	25.5024	-5.6853	-0.5574	0.7370	0.2827	-0.2571
2.74	-0.6238	-9.3347	-2.4146	0.0241	-0.0016	0.0098	34.5330	25.3727	-5.4096	-0.5575	0.7371	0.2827	-0.2572
2.75	-0.6125	-9.3218	-2.4066	0.0258	-0.0023	0.0126	34.4723	25.5256	-5.4075	-0.5574	0.7370	0.2827	-0.2571
2.76	-0.6089	-9.3263	-2.4048	0.0256	-0.0028	0.0113	34.6008	25.4005	-5.5656	-0.5575	0.7371	0.2827	-0.2572
2.77	-0.6092	-9.3401	-2.4133	0.0265	-0.0066	0.0150	34.4821	25.5269	-5.5605	-0.5574	0.7370	0.2827	-0.2572
2.78	-0.6140	-9.3327	-2.4016	0.0310	0.0037	0.0116	34.5417	25.4461	-5.5660	-0.5575	0.7370	0.2827	-0.2572
2.79	-0.6139	-9.3219	-2.3859	0.0276	-0.0005	0.0100	34.5782	25.5203	-5.7377	-0.5576	0.7370	0.2826	-0.2572
2.8	-0.6201	-9.3369	-2.3857	0.0232	-0.0062	0.0103	34.4158	25.3136	-5.6779	-0.5575	0.7369	0.2826	-0.2572
2.81	-0.6224	-9.3435	-2.3921	0.0287	-0.0031	0.0100	34.4193	25.4597	-5.4238	-0.5576	0.7370	0.2827	-0.2572
2.82	-0.6224	-9.3231	-2.3758	0.0262	0.0033	0.0103	34.4550	25.5601	-5.6766	-0.5576	0.7369	0.2826	-0.2572
2.83	-0.6241	-9.3314	-2.3709	0.0235	-0.0032	0.0103	34.3440	25.4224	-5.5314	-0.5577	0.7369	0.2827	-0.2572
2.84	-0.6257	-9.3436	-2.3796	0.0245	-0.0020	0.0065	34.4166	25.5320	-5.3655	-0.5576	0.7368	0.2826	-0.2572
2.85	-0.6241	-9.3275	-2.3722	0.0236	0.0013	0.0089	34.5195	25.3877	-5.3922	-0.5577	0.7369	0.2827	-0.2572
2.86	-0.6228	-9.3185	-2.3637	0.0231	0.0029	0.0070	34.5223	25.5379	-5.2165	-0.5577	0.7368	0.2827	-0.2572
2.87	-0.6239	-9.3382	-2.3810	0.0242	0.0019	0.0085	34.6410	25.6823	-5.2231	-0.5577	0.7368	0.2827	-0.2571
2.88	-0.6190	-9.3413	-2.3842	0.0236	0.0012	0.0082	34.8963	25.6944	-5.2217	-0.5577	0.7368	0.2827	-0.2571
2.89	-0.6111	-9.3269	-2.3779	0.0254	0.0005	0.0115	34.6850	25.7282	-5.4003	-0.5578	0.7368	0.2826	-0.2571
2.9	-0.5984	-9.3346	-2.3871	0.0258	-0.0078	0.0137	34.3874	26.1245	-5.5514	-0.5578	0.7368	0.2827	-0.2572
2.91	-0.5955	-9.3341	-2.3830	0.0242	0.0051	0.0091	34.3910	25.8916	-5.5633	-0.5577	0.7367	0.2826	-0.2571
2.92	-0.5915	-9.3315	-2.3901	0.0246	-0.0028	0.0140	34.5015	25.3643	-5.5542	-0.5578	0.7368	0.2826	-0.2572
2.93	-0.5934	-9.3313	-2.3836	0.0226	-0.0063	0.0107	34.5438	25.4295	-5.5813	-0.5578	0.7368	0.2826	-0.2572
2.94	-0.5980	-9.3388	-2.3906	0.0183	-0.0042	0.0085	34.6051	25.3777	-5.4692	-0.5578	0.7368	0.2827	-0.2572
2.95	-0.6009	-9.3314	-2.3890	0.0237	-0.0025	0.0106	34.4883	25.5802	-5.4887	-0.5578	0.7367	0.2827	-0.2572
2.96	-0.6070	-9.3303	-2.3917	0.0239	0.0039	0.0147	34.4859	25.4789	-5.5587	-0.5578	0.7367	0.2826	-0.2572
2.97	-0.6096	-9.3315	-2.3955	0.0181	0.0045	0.0093	34.3806	25.5859	-5.4458	-0.5578	0.7368	0.2826	-0.2572
2.98	-0.6079	-9.3329	-2.3989	0.0228	0.0009	0.0121	34.5123	25.3263	-5.4953	-0.5578	0.7367	0.2826	-0.2571
2.99	-0.6073	-9.3313	-2.3979	0.0246	-0.0010	0.0158	34.5005	25.5019	-5.4517	-0.5579	0.7368	0.2826	-0.2572
3	-0.6036	-9.3311	-2.3935	0.0173	-0.0027	0.0136	34.4887	25.4826	-5.6635	-0.5578	0.7368	0.2826	-0.2572
3.01	-0.6026	-9.3341	-2.4075	0.0170	0.0006	0.0070	34.3292	25.4732	-5.5851	-0.5579	0.7368	0.2826	-0.2572
3.02	-0.6006	-9.3324	-2.4044	0.0166	0.0023	0.0095	34.3465	25.6266	-5.4812	-0.5578	0.7367	0.2826	-0.2571
3.03	-0.5989	-9.3340	-2.4054	0.0165	-0.0021	0.0092	34.5258	25.8387	-5.5773	-0.5578	0.7368	0.2826	-0.2571
3.04	-0.5942	-9.3340	-2.4094	0.0239	0.0030	0.0097	34.3265	25.4763	-5.4252	-0.5578	0.7368	0.2826	-0.2571
3.05	-0.5996	-9.3233	-2.4069	0.0157	0.0026	0.0107	34.4096	25.5529	-5.5783	-0.5578	0.7368	0.2826	-0.2570
3.06	-0.5996	-9.3319	-2.4098	0.0195	0.0063	0.0065	34.3629	25.7580	-5.5745	-0.5579	0.7369	0.2826	-0.2570
3.07	-0.6089	-9.3412	-2.4104	0.0197	0.0034	0.0109	34.2775	25.4747	-5.4272	-0.5578	0.7368	0.2826	-0.2570
3.08	-0.6214	-9.3275	-2.4072	0.0186	-0.0005	0.0168	34.3140	25.4413	-5.5822	-0.5579	0.7369	0.2826	-0.2570
3.09	-0.6249	-9.3197	-2.4046	0.0210	-0.0044	0.0175	34.4028	25.4338	-5.4589	-0.5578	0.7368	0.2826	-0.2570
3.1	-0.6314	-9.3314	-2.4030	0.0233	-0.0026	0.0120	34.6862	25.2608	-5.6019	-0.5578	0.7368	0.2826	-0.2570
3.11	-0.6352	-9.3358	-2.3988	0.0252	-0.0005	0.0118	34.6934	25.4346	-5.6366	-0.5578	0.7368	0.2826	-0.2570
3.12	-0.6305	-9.3268	-2.3926	0.0139	0.0019	0.0090	34.4711	25.5188	-5.7350	-0.5578	0.7368	0.2826	-0.2570
3.13	-0.6254	-9.3406	-2.3972	0.0143	0.0016	0.0109	34.5159	25.5395	-5.6530	-0.5578	0.7369	0.2826	-0.2570
3.14	-0.6129	-9.3461	-2.3965	0.0205	-0.0035	0.0092	34.6184	25.3912	-5.3860	-0.5578	0.7368	0.2826	-0.2570
3.15	-0.6017	-9.3347	-2.3849	0.0183	-0.0025	0.0126	34.5056	25.3386	-5.8166	-0.5578	0.7369	0.2826	-0.2570
3.16	-0.5917	-9.3326	-2.3807	0.0186	-0.0031	0.0112	34.5919	25.4544	-5.7537	-0.5577	0.7368	0.2826	-0.2570
3.17	-0.5870	-9.3390	-2.3877	0.0159	0.0023	0.0121	34.5534	25.4442	-5.5102	-0.5578	0.7369	0.2826	-0.2570
3.18	-0.5859	-9.3318	-2.3868	0.0225	-0.0047	0.0184	34.5011	25.6106	-5.6056	-0.5578	0.7369	0.2826	-0.2570
3.19	-0.5983	-9.3324	-2.3860	0.0277	-0.0019	0.0127	34.4440	25.5503	-5.7495	-0.5578	0.7369	0.2826	-0.2570
3.2	-0.6122	-9.3443	-2.3889	0.0147	0.0049	0.0093	34.3464	25.4198	-5.6348	-0.5578	0.7369	0.2826	-0.2570
3.21	-0.6290	-9.3378	-2.3913	0.0227	-0.0023	0.0102	34.3055	25.5679	-5.6759	-0.5578	0.7369	0.2826	-0.2570
3.22	-0.6410	-9.3222	-2.3854	0.0156	0.0016	0.0025	34.2854	25.4827	-5.5903	-0.5578	0.7369	0.2826	-0.2569
3.23	-0.6452	-9.3225	-2.3931	0.0175	0.0030	0.0111	34.4353	25.6256	-5.5616	-0.5577	0.7368	0.2826	-0.2569
3.24	-0.6483	-9.3292	-2.3993	0.0172	-0.0029	0.0101	34.3372	25.5829	-5.5669	-0.5578	0.7369	0.2826	-0.2569
3.25	-0.6370	-9.3260	-2.3998	0.0180	0.0028	0.0053	34.3010	25.5102	-5.5945	-0.5578	0.7369	0.2826	-0.2569
3.26	-0.6313	-9.3293	-2.3955	0.0174	-0.0038	0.0058	34.2847	25.5215	-5.7195	-0.5578	0.7370	0.2827	-0.2569
3.27	-0.6229	-9.3453	-2.4098	0.0256	-0.0031	0.0152	34.5397	25.5470	-5.4267	-0.5578	0.7368	0.2826	-0.2569
3.28	-0.6122	-9.3196	-2.3916	0.0238	-0.0036	0.0114	34.3629	25.5828	-5.5265	-0.5578	0.7369	0.2826	-0.2569
3.29	-0.6086	-9.3214	-2.3838	0.0159	-0.0039	0.0102	34.4972	25.3634	-5.5520	-0.5578	0.7369	0.2827	-0.2569
3.3	-0.6131	-9.3556	-2.4137	0.0244	0.0025	0.0135	34.4876	25.5783	-5.6367	-0.5578	0.7368	0.2826	-0.2569
3.31	-0.6118	-9.3402	-2.4000	0.0093	-0.0029	0.0083	34.6219	25.2979	-5.7469	-0.5578	0.7370	0.2827	-0.2569
3.32	-0.6113	-9.3189	-2.3791	0.0178	-0.0018	0.0123	34.6656	25.3200	-5.7273	-0.5577	0.7369	0.2827	-0.2569
3.33	-0.6160	-9.3414	-2.3957	0.0163	-0.0038	0.0116	34.4927	25.3726	-5.4855	-0.5578	0.7370	0.2827	-0.2569
3.34	-0.6173	-9.3449	-2.3946	0.0190	0.0022	0.0115	34.4380	25.3525	-5.5392	-0.5577	0.7369	0.2827	-0.2568
3.35	-0.6174	-9.3185	-2.3700	0.0280	-0.0026	0.0120	34.2959	25.5669	-5.8085	-0.5578	0.7369	0.2827	-0.2569
3.36	-0.6215	-9.3273	-2.3779	0.0211	-0.0044	0.0045	34.4477	25.4899	-5.6732	-0.5578	0.7369	0.2827	-0.2569
3.37	-0.6278	-9.3500	-2.3903	0.0235	-0.0013	0.0119	34.8660	25.3735	-5.5760	-0.5578	0.7369	0.2827	-0.2569
3.38	-0.6243	-9.3332	-2.3797	0.0195	-0.0036	0.0128	35.1869	25.1867	-5.4489	-0.5578	0.7369	0.2827	-0.2569
3.39	-0.6251	-9.3237	-2.3814	0.0209	0.0019	0.0074	34.8332	25.4647	-5.3907	-0.5578	0.7369	0.2827	-0.2569
3.4	-0.6229	-9.3460	-2.4037	0.0263	0.0007	0.0092	34.4766	25.9613	-5.3849	-0.5578	0.7369	0.2827	-0.2569
3.41	-0.6163	-9.3438	-2.4098	0.0222	0.0049	0.0112	34.4874	26.0554	-5.4094	-0.5578	0.7368	0.2827	-0.2568
3.42	-0.6076	-9.3227	-2.3943	0.0219	0.0083	0.0084	34.4253	25.3795	-5.5035	-0.5579	0.7369	0.2827	-0.2568
3.43	-0.5977	-9.3349	-2.4024	0.0223	0.0030	0.0096	34.4334	25.4196	-5.5207	-0.5578	0.7369	0.2827	-0.2568
3.44	-0.6028	-9.3475	-2.4094	0.0154	0.0053	0.0080	34.5001	25.4930	-5.6311	-0.5579	0.7369	0.2827	-0.2567
3.45	-0.5971	-9.3259	-2.3982	0.0250	0.0096	0.0125	34.5374	25.5079	-5.3588	-0.5579	0.7369	0.2826	-0.2567
3.46	-0.6004	-9.3298	-2.3970	0.0185	-0.0020	0.0136	34.1470	25.4090	-5.4432	-0.5579	0.7369	0.2826	-0.2567
3.47	-0.6103	-9.3498	-2.4160	0.0223	0.0079	0.0163	34.3155	25.7325	-5.5561	-0.5579	0.7369	0.2826	-0.2567
3.48	-0.6105	-9.3350	-2.4100	0.0245	-0.0008	0.0158	34.4314	25.4803	-5.6944	-0.5578	0.7369	0.2825	-0.2567
3.49	-0.6108	-9.3203	-2.3929	0.0256	0.0032	0.0158	34.5604	25.4275	-5.5401	-0.5579	0.7369	0.2825	-0.2567
3.5	-0.6134	-9.3371	-2.4094	0.0131	0.0027	0.0102	34.5773	25.5177	-5.4840	-0.5579	0.7369	0.2825	-0.2567
3.51	-0.6159	-9.3478	-2.4083	0.0223	0.0072	0.0105	34.4852	25.3039	-5.4711	-0.5580	0.7370	0.2825	-0.2566
3.52	-0.6131	-9.3237	-2.4025	0.0162	0.0040	0.0127	34.5423	25.4448	-5.5958	-0.5579	0.7369	0.2825	-0.2566
3.53	-0.6134	-9.3279	-2.4031	0.0185	-0.0069	0.0136	34.3766	25.6063	-5.5595	-0.5579	0.7370	0.2825	-0.2566
3.54	-0.6038	-9.3351	-2.4024	0.0249	-0.0036	0.0118	34.5411	25.4031	-5.6778	-0.5579	0.7369	0.2825	-0.2566
3.55	-0.6029	-9.3306	-2.3919	0.0164	-0.0070	0.0139	34.7061	25.5040	-5.8187	-0.5578	0.7369	0.2825	-0.2566
3.56	-0.6011	-9.3343	-2.3920	0.0216	-0.0046	0.0133	34.5009	25.5098	-5.5077	-0.5579	0.7370	0.2825	-0.2567
3.57	-0.5997	-9.3541	-2.4126	0.0185	0.0016	0.0119	34.2543	25.4763	-5.5260	-0.5579	0.7369	0.2825	-0.2567
3.58	-0.6035	-9.3389	-2.4082	0.0201	0.0070	0.0114	34.3804	25.3331	-5.3984	-0.5579	0.7370	0.2825	-0.2567
3.59	-0.6098	-9.3084	-2.3910	0.0214	0.0014	0.0138	34.5499	25.3426	-5.4910	-0.5578	0.7369	0.2824	-0.2566
3.6	-0.6148	-9.3364	-2.4029	0.0134	-0.0042	0.0094	34.2960	25.3176	-5.5841	-0.5579	0.7370	0.2825	-0.2566
3.61	-0.6247	-9.3432	-2.4061	0.0202	-0.0001	0.0073	34.5856	25.5514	-5.4508	-0.5578	0.7370	0.2825	-0.2566
3.62	-0.6329	-9.3193	-2.3899	0.0229	-0.0024	0.0100	34.5494	25.5517	-5.5614	-0.5578	0.7370	0.2825	-0.2566
3.63	-0.6363	-9.3297	-2.3931	0.0188	-0.0018	0.0101	34.4112	25.3659	-5.7949	-0.5579	0.7370	0.2825	-0.2566
3.64	-0.6388	-9.3466	-2.4016	0.0206	-0.0035	0.0132	34.4665	25.4739	-5.5693	-0.5578	0.7370	0.2825	-0.2566
3.65	-0.6352	-9.3286	-2.3877	0.0227	-0.0051	0.0137	34.1833	25.2755	-5.4878	-0.5579	0.7370	0.2825	-0.2566
3.66	-0.6332	-9.3195	-2.3736	0.0204	-0.0101	0.0142	34.3445	25.2298	-5.7932	-0.5578	0.7369	0.2825	-0.2567
3.67	-0.6271	-9.3425	-2.3880	0.0133	-0.0041	0.0131	34.6748	25.4680	-5.8200	-0.5578	0.7370	0.2826	-0.2567
3.68	-0.6096	-9.3450	-2.3938	0.0172	-0.0039	0.0111	34.5388	25.3971	-5.5698	-0.5578	0.7370	0.2826	-0.2567
3.69	-0.5890	-9.3166	-2.3701	0.0073	-0.0053	0.0072	34.4640	25.4422	-5.5934	-0.5578	0.7370	0.2826	-0.2567
3.7	-0.5868	-9.3353	-2.3815	0.0246	-0.0028	0.0082	34.3319	25.3967	-5.4778	-0.5577	0.7370	0.2826	-0.2567
3.71	-0.5839	-9.3569	-2.4083	0.0239	-0.0005	0.0111	34.3907	25.4471	-5.6294	-0.5578	0.7370	0.2826	-0.2567
3.72	-0.5899	-9.3331	-2.3986	0.0166	0.0002	0.0113	34.4764	25.5405	-5.7027	-0.5578	0.7370	0.2826	-0.2567
3.73	-0.6008	-9.3175	-2.3844	0.0164	0.0045	0.0093	34.4020	25.4133	-5.5639	-0.5577	0.7370	0.2826	-0.2566
3.74	-0.6247	-9.3402	-2.4069	0.0234	0.0014	0.0144	34.5894	25.4206	-5.5946	-0.5578	0.7371	0.2826	-0.2566
3.75	-0.6406	-9.3334	-2.4074	0.0221	-0.0002	0.0097	34.3950	25.5797	-5.5564	-0.5578	0.7370	0.2826	-0.2566
3.76	-0.6435	-9.3089	-2.3925	0.0225	0.0069	0.0108	34.4083	25.5370	-5.6828	-0.5578	0.7371	0.2826	-0.2566
3.77	-0.6436	-9.3294	-2.4051	0.0239	-0.0004	0.0092	34.4465	25.3936	-5.5622	-0.5578	0.7370	0.2826	-0.2566
3.78	-0.6394	-9.3472	-2.4166	0.0229	0.0013	0.0125	34.3391	25.5481	-5.6162	-0.5578	0.7370	0.2826	-0.2566
3.79	-0.6248	-9.3226	-2.3946	0.0188	0.0094	0.0088	34.5058	25.4391	-5.6591	-0.5578	0.7370	0.2825	-0.2565
3.8	-0.6141	-9.3178	-2.3969	0.0154	-0.0012	0.0087	34.3224	25.4035	-5.4501	-0.5578	0.7370	0.2825	-0.2565
3.81	-0.6124	-9.3471	-2.4135	0.0207	0.0036	0.0053	34.3962	25.3412	-5.6256	-0.5579	0.7371	0.2826	-0.2565
3.82	-0.6015	-9.3364	-2.3996	0.0196	-0.0053	0.0074	34.5609	25.1871	-5.6381	-0.5578	0.7370	0.2826	-0.2565
3.83	-0.6003	-9.3162	-2.3856	0.0196	-0.0017	0.0124	34.2690	25.4211	-5.5398	-0.5579	0.7371	0.2826	-0.2565
3.84	-0.6008	-9.3373	-2.3986	0.0238	0.0010	0.0109	34.3545	25.7212	-5.7122	-0.5578	0.7370	0.2826	-0.2565
3.85	-0.6061	-9.3441	-2.4008	0.0268	-0.0044	0.0097	34.5787	25.3148	-5.6235	-0.5579	0.7370	0.2826	-0.2565
3.86	-0.6094	-9.3281	-2.3877	0.0200	0.0038	0.0111	34.6139	25.3915	-5.5650	-0.5579	0.7370	0.2826	-0.2565
3.87	-0.6140	-9.3248	-2.3805	0.0254	-0.0012	0.0072	34.8174	25.4908	-5.5289	-0.5579	0.7370	0.2826	-0.2565
3.88	-0.6206	-9.3448	-2.3954	0.0260	-0.0044	0.0122	35.0752	25.5348	-5.1934	-0.5579	0.7370	0.2826	-0.2565
3.89	-0.6236	-9.3297	-2.3815	0.0269	-0.0018	0.0151	34.7259	25.3659	-5.3790	-0.5579	0.7369	0.2826	-0.2565
3.9	-0.6286	-9.3178	-2.3781	0.0298	0.0032	0.0102	34.6669	25.9956	-5.3928	-0.5580	0.7369	0.2826	-0.2565
3.91	-0.6359	-9.3354	-2.3973	0.0234	-0.0026	0.0148	34.4680	25.9276	-5.6574	-0.5579	0.7369	0.2825	-0.2565
3.92	-0.6354	-9.3377	-2.4007	0.0205	-0.0053	0.0101	34.3797	25.2457	-5.7423	-0.5580	0.7369	0.2826	-0.2565
3.93	-0.6289	-9.3180	-2.3912	0.0265	-0.0025	0.0108	34.3307	25.2548	-5.5845	-0.5580	0.7369	0.2825	-0.2565
3.94	-0.6221	-9.3350	-2.4067	0.0173	-0.0053	0.0106	34.3257	25.2568	-5.7468	-0.5580	0.7369	0.2826	-0.2565
3.95	-0.6079	-9.3456	-2.4158	0.0068	-0.0002	0.0101	34.4371	25.7076	-5.7110	-0.5579	0.7369	0.2826	-0.2565
3.96	-0.5985	-9.3224	-2.4027	0.0186	-0.0001	0.0100	34.4867	25.6455	-5.6565	-0.5579	0.7369	0.2826	-0.2565
3.97	-0.5942	-9.3247	-2.4075	0.0297	0.0067	0.0075	34.3654	25.4464	-5.7772	-0.5580	0.7369	0.2826	-0.2565
3.98	-0.5963	-9.3444	-2.4205	0.0249	0.0031	0.0089	34.5272	25.4607	-5.6273	-0.5580	0.7368	0.2825	-0.2564
3.99	-0.6018	-9.3323	-2.4174	0.0154	-0.0028	0.0087	34.2827	25.4371	-5.7492	-0.5580	0.7370	0.2826	-0.2565
4	-0.6016	-9.3201	-2.4017	0.0194	0.0006	0.0121	34.1246	25.6098	-5.5882	-0.5580	0.7369	0.2826	-0.2564
4.01	-0.6140	-9.3416	-2.4177	0.0251	0.0021	0.0101	34.2531	25.5455	-5.5373	-0.5580	0.7370	0.2826	-0.2564
4.02	-0.6178	-9.3420	-2.4155	0.0268	0.0008	0.0130	34.3265	25.5341	-5.6595	-0.5580	0.7369	0.2825	-0.2564
4.03	-0.6206	-9.3191	-2.3932	0.0276	0.0037	0.0178	34.3637	25.4029	-5.7450	-0.5580	0.7369	0.2825	-0.2564
4.04	-0.6190	-9.3240	-2.3956	0.0273	-0.0014	0.0107	34.4329	25.1978	-5.6992	-0.5581	0.7369	0.2825	-0.2564
4.05	-0.6194	-9.3430	-2.4090	0.0271	0.0014	0.0149	34.3954	25.1942	-5.4909	-0.5581	0.7368	0.2825	-0.2564
4.06	-0.6169	-9.3347	-2.4011	0.0202	0.0063	0.0140	34.5094	25.2979	-5.8171	-0.5581	0.7369	0.2825	-0.2565
4.07	-0.6125	-9.3171	-2.3834	0.0249	-0.0059	0.0104	34.6386	25.2821	-5.8584	-0.5581	0.7369	0.2824	-0.2564
4.08	-0.6106	-9.3383	-2.3925	0.0214	-0.0031	0.0116	34.4412	25.2977	-5.6432	-0.5581	0.7369	0.2825	-0.2565
4.09	-0.6014	-9.3478	-2.3983	0.0287	-0.0026	0.0104	34.4072	25.2677	-5.9389	-0.5581	0.7368	0.2824	-0.2565
4.1	-0.5945	-9.3249	-2.3774	0.0248	0.0034	0.0112	34.5138	25.3190	-5.7762	-0.5582	0.7368	0.2824	-0.2565
4.11	-0.5944	-9.3352	-2.3855	0.0216	-0.0012	0.0103	34.3612	25.3635	-5.8440	-0.5582	0.7368	0.2824	-0.2565
4.12	-0.5991	-9.3489	-2.4022	0.0222	-0.0071	0.0105	34.5680	25.1702	-5.7378	-0.5582	0.7368	0.2825	-0.2565
4.13	-0.6019	-9.3312	-2.3872	0.0218	-0.0020	0.0119	34.6878	25.4113	-5.6050	-0.5582	0.7368	0.2825	-0.2565
4.14	-0.6074	-9.3187	-2.3862	0.0279	-0.0037	0.0088	34.3555	25.5985	-5.6990	-0.5582	0.7368	0.2825	-0.2565
4.15	-0.6223	-9.3365	-2.4023	0.0263	0.0071	0.0094	34.2026	25.4032	-5.7156	-0.5583	0.7368	0.2825	-0.2565
4.16	-0.6238	-9.3332	-2.4007	0.0222	0.0056	0.0083	34.3616	25.3358	-5.5089	-0.5582	0.7367	0.2824	-0.2564
4.17	-0.6315	-9.3218	-2.3890	0.0258	-0.0008	0.0131	34.1135	25.4986	-5.7243	-0.5583	0.7368	0.2824	-0.2565
4.18	-0.6317	-9.3363	-2.3896	0.0291	0.0008	0.0118	34.1033	25.5061	-5.6975	-0.5583	0.7367	0.2824	-0.2564
4.19	-0.6333	-9.3404	-2.3888	0.0205	0.0007	0.0105	34.2808	25.3457	-5.8879	-0.5583	0.7368	0.2824	-0.2564
4.2	-0.6221	-9.3222	-2.3781	0.0189	0.0020	0.0150	34.2345	25.4615	-5.9193	-0.5583	0.7367	0.2824	-0.2564
4.21	-0.6149	-9.3236	-2.3731	0.0199	-0.0023	0.0110	34.3032	25.4312	-5.7991	-0.5583	0.7368	0.2824	-0.2564
4.22	-0.6032	-9.3395	-2.3752	0.0220	0.0014	0.0132	34.3281	25.1107	-5.8066	-0.5583	0.7368	0.2824	-0.2564
4.23	-0.5919	-9.3321	-2.3740	0.0223	-0.0001	0.0149	34.4277	25.1962	-5.8854	-0.5583	0.7367	0.2823	-0.2564
4.24	-0.5894	-9.3281	-2.3778	0.0179	-0.0018	0.0134	34.3960	25.2045	-5.9043	-0.5583	0.7368	0.2824	-0.2565
4.25	-0.5960	-9.3489	-2.4005	0.0195	0.0081	0.0107	34.3670	25.3472	-5.7430	-0.5583	0.7368	0.2823	-0.2564
4.26	-0.6049	-9.3485	-2.4032	0.0242	0.0004	0.0131	34.4350	25.1163	-5.7106	-0.5584	0.7368	0.2823	-0.2564
4.27	-0.6201	-9.3237	-2.3865	0.0281	0.0008	0.0131	34.4194	25.2212	-5.7264	-0.5583	0.7367	0.2823	-0.2564
4.28	-0.6338	-9.3283	-2.4009	0.0260	0.0056	0.0142	34.5036	25.1548	-5.8324	-0.5584	0.7368	0.2823	-0.2564
4.29	-0.6439	-9.3316	-2.4066	0.0205	0.0005	0.0110	34.2029	25.0004	-5.9673	-0.5584	0.7368	0.2823	-0.2564
4.3	-0.6459	-9.3184	-2.4088	0.0246	0.0015	0.0086	34.1451	25.3209	-6.0000	-0.5584	0.7367	0.2822	-0.2564
4.31	-0.6399	-9.3233	-2.4071	0.0246	-0.0033	0.0130	34.4117	25.2560	-5.9860	-0.5584	0.7368	0.2823	-0.2564
4.32	-0.6378	-9.3324	-2.4152	0.0175	-0.0071	0.0115	34.3661	25.4598	-6.1227	-0.5584	0.7367	0.2823	-0.2564
4.33	-0.6235	-9.3308	-2.4089	0.0195	-0.0005	0.0103	34.2025	25.3716	-5.7724	-0.5584	0.7368	0.2823	-0.2564
4.34	-0.6145	-9.3251	-2.3969	0.0170	-0.0022	0.0088	34.3737	25.3688	-5.6124	-0.5583	0.7367	0.2823	-0.2564
4.35	-0.6074	-9.3340	-2.4020	0.0215	0.0070	0.0064	34.2041	25.4388	-5.7739	-0.5584	0.7368	0.2823	-0.2564
4.36	-0.6097	-9.3347	-2.4032	0.0155	0.0020	0.0073	34.3382	25.3516	-5.5211	-0.5584	0.7368	0.2823	-0.2563
4.37	-0.6118	-9.3294	-2.3896	0.0186	0.0044	0.0126	34.5516	25.6349	-5.6572	-0.5584	0.7368	0.2823	-0.2563
4.38	-0.6156	-9.3315	-2.3957	0.0219	-0.0026	0.0078	34.8297	25.5151	-5.6352	-0.5584	0.7368	0.2823	-0.2563
4.39	-0.6198	-9.3326	-2.3987	0.0235	0.0001	0.0126	34.5900	25.4280	-5.6821	-0.5584	0.7368	0.2823	-0.2563
4.4	-0.6242	-9.3343	-2.3843	0.0271	-0.0077	0.0148	34.3983	26.0086	-5.7467	-0.5584	0.7368	0.2823	-0.2563
4.41	-0.6267	-9.3304	-2.3932	0.0214	0.0035	0.0099	34.4250	25.8333	-5.8488	-0.5584	0.7367	0.2822	-0.2563
4.42	-0.6256	-9.3331	-2.3863	0.0246	0.0013	0.0153	34.4441	25.0055	-5.9254	-0.5584	0.7368	0.2823	-0.2563
4.43	-0.6256	-9.3358	-2.3895	0.0210	-0.0003	0.0124	34.3345	25.1910	-5.8437	-0.5584	0.7367	0.2822	-0.2563
4.44	-0.6329	-9.3329	-2.3889	0.0239	-0.0019	0.0063	34.4493	25.1536	-6.0071	-0.5585	0.7367	0.2823	-0.2563
4.45	-0.6330	-9.3328	-2.3923	0.0244	0.0021	0.0119	34.4446	25.2975	-5.6881	-0.5585	0.7367	0.2822	-0.2563
4.46	-0.6271	-9.3317	-2.3987	0.0231	-0.0001	0.0113	34.5640	25.3334	-5.8394	-0.5585	0.7367	0.2822	-0.2563
4.47	-0.6217	-9.3322	-2.4013	0.0276	-0.0035	0.0126	34.4470	25.2356	-5.9866	-0.5585	0.7367	0.2822	-0.2563
4.48	-0.6112	-9.3298	-2.4052	0.0217	-0.0047	0.0109	34.2211	25.2836	-5.8462	-0.5585	0.7366	0.2822	-0.2563
4.49	-0.6016	-9.3337	-2.4030	0.0238	0.0016	0.0124	34.5460	25.2407	-5.8451	-0.5585	0.7367	0.2822	-0.2564
4.5	-0.5926	-9.3394	-2.4018	0.0242	0.0010	0.0145	34.5685	25.1867	-5.8444	-0.5585	0.7367	0.2822	-0.2563
4.51	-0.5905	-9.3389	-2.3999	0.0202	0.0079	0.0100	34.3399	25.3716	-5.8417	-0.5586	0.7368	0.2822	-0.2563
4.52	-0.5917	-9.3318	-2.3968	0.0181	0.0040	0.0072	34.3893	25.2406	-5.8859	-0.5585	0.7367	0.2822	-0.2563
4.53	-0.5978	-9.3336	-2.4023	0.0119	-0.0038	0.0123	34.2372	25.3982	-5.6694	-0.5585	0.7367	0.2822	-0.2563
4.54	-0.6017	-9.3335	-2.4048	0.0226	0.0011	0.0114	34.5226	25.2569	-5.6117	-0.5585	0.7367	0.2822	-0.2563
4.55	-0.6109	-9.3274	-2.4008	0.0189	-0.0012	0.0117	34.4597	25.3983	-6.0105	-0.5585	0.7367	0.2822	-0.2563
4.56	-0.6195	-9.3314	-2.3990	0.0080	0.0004	0.0065	34.3583	25.5524	-5.6907	-0.5585	0.7368	0.2822	-0.2562
4.57	-0.6214	-9.3397	-2.4012	0.0161	-0.0033	0.0116	34.3365	25.4702	-5.8687	-0.5584	0.7368	0.2822	-0.2562
4.58	-0.6177	-9.3329	-2.4031	0.0243	0.0003	0.0119	34.2610	25.3580	-5.7607	-0.5585	0.7368	0.2822	-0.2562
4.59	-0.6165	-9.3228	-2.3943	0.0198	-0.0071	0.0137	34.2926	25.3379	-5.8739	-0.5584	0.7367	0.2822	-0.2562
4.6	-0.6172	-9.3342	-2.3969	0.0225	-0.0029	0.0116	34.4889	25.3649	-5.8111	-0.5585	0.7368	0.2822	-0.2563
4.61	-0.6113	-9.3460	-2.4042	0.0220	-0.0042	0.0140	34.5576	25.3342	-5.9595	-0.5584	0.7368	0.2822	-0.2563
4.62	-0.6055	-9.3374	-2.3998	0.0202	-0.0063	0.0036	34.5047	25.3884	-5.7118	-0.5584	0.7367	0.2823	-0.2563
4.63	-0.6011	-9.3282	-2.3869	0.0209	-0.0019	0.0087	34.5470	25.1321	-5.5623	-0.5585	0.7368	0.2823	-0.2563
4.64	-0.6024	-9.3383	-2.3928	0.0216	-0.0039	0.0130	34.4756	25.2587	-5.8314	-0.5584	0.7367	0.2823	-0.2563
4.65	-0.5978	-9.3412	-2.3881	0.0245	-0.0028	0.0121	34.4582	25.3813	-5.7257	-0.5585	0.7368	0.2823	-0.2563
4.66	-0.6026	-9.3288	-2.3806	0.0146	-0.0068	0.0120	34.3547	25.3194	-5.8611	-0.5584	0.7367	0.2823	-0.2563
4.67	-0.6092	-9.3349	-2.3835	0.0181	-0.0086	0.0092	34.2993	25.4638	-5.8763	-0.5584	0.7368	0.2823	-0.2563
4.68	-0.6099	-9.3378	-2.3918	0.0289	-0.0048	0.0163	34.5147	25.2532	-5.7958	-0.5584	0.7367	0.2823	-0.2564
4.69	-0.6192	-9.3296	-2.3882	0.0205	-0.0066	0.0122	34.3466	25.3246	-5.7536	-0.5584	0.7367	0.2823	-0.2564
4.7	-0.6220	-9.3231	-2.3856	0.0182	-0.0003	0.0065	34.4563	25.4462	-5.7540	-0.5584	0.7367	0.2823	-0.2564
4.71	-0.6285	-9.3388	-2.3963	0.0227	-0.0036	0.0130	34.3403	25.3069	-5.9179	-0.5584	0.7367	0.2824	-0.2564
4.72	-0.6276	-9.3369	-2.4021	0.0140	0.0015	0.0084	34.2193	25.2024	-5.8884	-0.5584	0.7367	0.2824	-0.2564
4.73	-0.6303	-9.3167	-2.3845	0.0196	-0.0010	0.0095	34.2006	25.1448	-5.8352	-0.5583	0.7367	0.2823	-0.2563
4.74	-0.6316	-9.3351	-2.3900	0.0093	-0.0042	0.0106	34.3007	25.4040	-5.8662	-0.5584	0.7368	0.2824	-0.2564
4.75	-0.6273	-9.3493	-2.4027	0.0101	0.0005	0.0094	34.2987	25.4111	-5.6988	-0.5583	0.7368	0.2824	-0.2563
4.76	-0.6163	-9.3326	-2.3835	0.0107	-0.0027	0.0099	34.4499	25.2475	-5.6514	-0.5583	0.7369	0.2825	-0.2563
4.77	-0.6063	-9.3234	-2.3732	0.0211	-0.0037	0.0144	34.4395	25.3634	-5.7833	-0.5582	0.7368	0.2824	-0.2563
4.78	-0.5998	-9.3465	-2.3893	0.0215	-0.0072	0.0137	34.4523	25.3418	-5.7396	-0.5583	0.7368	0.2824	-0.2564
4.79	-0.5981	-9.3466	-2.3962	0.0247	0.0002	0.0153	34.6158	25.1997	-5.8129	-0.5583	0.7368	0.2824	-0.2564
4.8	-0.5988	-9.3271	-2.3888	0.0243	0.0035	0.0144	34.5359	25.1687	-5.8440	-0.5582	0.7368	0.2824	-0.2563
4.81	-0.6081	-9.3399	-2.3995	0.0125	0.0029	0.0114	34.5274	25.2907	-5.9522	-0.5583	0.7369	0.2824	-0.2564
4.82	-0.6178	-9.3477	-2.4066	0.0215	-0.0020	0.0149	34.5249	25.3954	-5.9122	-0.5582	0.7368	0.2824	-0.2563
4.83	-0.6260	-9.3245	-2.3996	0.0253	-0.0021	0.0147	34.3432	25.4731	-5.8026	-0.5583	0.7369	0.2824	-0.2564
4.84	-0.6257	-9.3209	-2.4007	0.0198	0.0033	0.0154	34.4022	25.2440	-5.9703	-0.5582	0.7368	0.2823	-0.2563
4.85	-0.6268	-9.3337	-2.4159	0.0154	-0.0036	0.0130	34.4121	25.2819	-5.8825	-0.5582	0.7369	0.2823	-0.2564
4.86	-0.6193	-9.3291	-2.4149	0.0227	-0.0050	0.0122	34.4183	25.3732	-5.7009	-0.5582	0.7368	0.2823	-0.2564
4.87	-0.6164	-9.3231	-2.4093	0.0151	-0.0059	0.0099	34.6841	25.3433	-5.5521	-0.5582	0.7368	0.2824	-0.2564
4.88	-0.6166	-9.3363	-2.4051	0.0283	0.0001	0.0109	34.7517	25.1692	-5.1768	-0.5582	0.7368	0.2824	-0.2564
4.89	-0.6109	-9.3361	-2.4088	0.0148	0.0034	0.0108	34.4460	25.5593	-5.7546	-0.5582	0.7368	0.2824	-0.2564
4.9	-0.6121	-9.3234	-2.3877	0.0146	-0.0040	0.0121	34.3752	25.9308	-5.8578	-0.5582	0.7369	0.2824	-0.2564
4.91	-0.6175	-9.3316	-2.3923	0.0204	0.0002	0.0087	34.3438	25.8723	-5.9564	-0.5581	0.7368	0.2824	-0.2563
4.92	-0.6165	-9.3442	-2.4012	0.0202	0.0006	0.0102	34.2390	25.3331	-5.8566	-0.5582	0.7369	0.2824	-0.2563
4.93	-0.6195	-9.3338	-2.3883	0.0205	-0.0009	0.0136	34.4330	25.3086	-5.7476	-0.5582	0.7369	0.2824	-0.2563
4.94	-0.6207	-9.3269	-2.3816	0.0205	0.0046	0.0074	34.1893	25.2699	-5.8137	-0.5582	0.7369	0.2824	-0.2563
4.95	-0.6231	-9.3428	-2.3880	0.0218	0.0051	0.0125	34.1146	25.5679	-5.7679	-0.5582	0.7369	0.2823	-0.2563
4.96	-0.6233	-9.3424	-2.3867	0.0216	-0.0037	0.0076	34.4199	25.4476	-5.6949	-0.5582	0.7369	0.2824	-0.2563
4.97	-0.6218	-9.3232	-2.3705	0.0268	-0.0041	0.0171	34.4738	25.2612	-5.6702	-0.5582	0.7369	0.2824	-0.2563
4.98	-0.6252	-9.3370	-2.3855	0.0235	-0.0013	0.0139	34.5956	25.2657	-5.7815	-0.5582	0.7368	0.2823	-0.2563
4.99	-0.6328	-9.3405	-2.3869	0.0248	-0.0079	0.0180	34.5171	25.2794	-5.7579	-0.5583	0.7369	0.2823	-0.2564
5	-0.6294	-9.3233	-2.3783	0.0177	-0.0014	0.0132	34.3370	25.0909	-5.8338	-0.5582	0.7368	0.2823	-0.2564
5.01	-0.6236	-9.3284	-2.3822	0.0227	-0.0032	0.0098	34.4940	25.1706	-5.8281	-0.5583	0.7369	0.2823	-0.2564
5.02	-0.6196	-9.3430	-2.4049	0.0239	-0.0033	0.0104	34.5127	25.1765	-5.6416	-0.5582	0.7368	0.2823	-0.2564
5.03	-0.6106	-9.3328	-2.4029	0.0197	-0.0067	0.0135	34.4227	25.2110	-5.7276	-0.5582	0.7368	0.2823	-0.2564
5.04	-0.6005	-9.3227	-2.3960	0.0163	0.0028	0.0130	34.5329	25.2761	-5.6298	-0.5582	0.7369	0.2823	-0.2564
5.05	-0.5974	-9.3368	-2.4031	0.0241	0.0047	0.0109	34.2279	25.3229	-5.8858	-0.5582	0.7368	0.2823	-0.2564
5.06	-0.5957	-9.3446	-2.4088	0.0146	0.0028	0.0113	34.4021	25.3622	-5.8538	-0.5583	0.7369	0.2823	-0.2564
5.07	-0.5981	-9.3228	-2.4027	0.0206	0.0039	0.0107	34.2835	25.3308	-5.7735	-0.5582	0.7369	0.2823	-0.2563
5.08	-0.5988	-9.3260	-2.4063	0.0243	0.0115	0.0068	34.3021	25.3432	-5.7259	-0.5583	0.7369	0.2823	-0.2563
5.09	-0.6048	-9.3415	-2.4174	0.0202	0.0080	0.0076	34.0800	25.4032	-5.6774	-0.5582	0.7368	0.2822	-0.2562
5.1	-0.6135	-9.3222	-2.4045	0.0264	0.0078	0.0067	34.1540	25.4528	-5.8326	-0.5583	0.7369	0.2822	-0.2562
5.11	-0.6120	-9.3231	-2.4017	0.0229	0.0096	0.0079	34.3174	25.5148	-5.5672	-0.5583	0.7369	0.2822	-0.2562
5.12	-0.6114	-9.3458	-2.4189	0.0178	0.0063	0.0096	34.1900	25.2473	-5.7680	-0.5583	0.7369	0.2822	-0.2561
5.13	-0.6108	-9.3317	-2.4016	0.0181	0.0103	0.0087	34.1750	25.2579	-5.8903	-0.5584	0.7369	0.2822	-0.2561
5.14	-0.6085	-9.3154	-2.3895	0.0226	-0.0013	0.0137	34.4807	25.3963	-5.7309	-0.5583	0.7369	0.2822	-0.2561
5.15	-0.6137	-9.3451	-2.4058	0.0228	-0.0066	0.0140	34.2613	25.4463	-5.6530	-0.5584	0.7369	0.2822	-0.2561
5.16	-0.6065	-9.3470	-2.4095	0.0273	-0.0036	0.0171	34.4312	25.3433	-5.8794	-0.5583	0.7368	0.2821	-0.2561
5.17	-0.6010	-9.3242	-2.3834	0.0275	-0.0104	0.0103	34.5949	25.2357	-6.0462	-0.5584	0.7369	0.2822	-0.2562
5.18	-0.6040	-9.3355	-2.4002	0.0208	-0.0063	0.0090	34.5415	25.3154	-5.7566	-0.5584	0.7369	0.2822	-0.2562
5.19	-0.6013	-9.3495	-2.4129	0.0271	-0.0030	0.0100	34.7728	25.4075	-5.7920	-0.5584	0.7369	0.2822	-0.2562
5.2	-0.5995	-9.3210	-2.3856	0.0258	-0.0034	0.0105	34.3505	25.6306	-5.7763	-0.5584	0.7368	0.2822	-0.2562
5.21	-0.6072	-9.3304	-2.4053	0.0208	-0.0049	0.0101	34.5001	25.5467	-5.9336	-0.5584	0.7368	0.2822	-0.2562
5.22	-0.6124	-9.3447	-2.4094	0.0190	-0.0043	0.0107	34.4906	25.3401	-5.9550	-0.5584	0.7368	0.2822	-0.2562
5.23	-0.6189	-9.3195	-2.3945	0.0192	-0.0038	0.0099	34.6056	25.3249	-5.5884	-0.5583	0.7368	0.2822	-0.2562
5.24	-0.6269	-9.3245	-2.3982	0.0250	-0.0055	0.0109	34.4682	25.6651	-5.6080	-0.5584	0.7368	0.2823	-0.2563
5.25	-0.6347	-9.3390	-2.4089	0.0192	-0.0020	0.0112	34.4350	25.5109	-5.7790	-0.5584	0.7368	0.2823	-0.2563
5.26	-0.6389	-9.3426	-2.4095	0.0165	0.0019	0.0103	34.3518	25.5881	-5.7836	-0.5584	0.7369	0.2823	-0.2563
5.27	-0.6321	-9.3306	-2.4020	0.0238	0.0011	0.0057	34.4414	25.5055	-5.8030	-0.5583	0.7368	0.2823	-0.2562
5.28	-0.6327	-9.3222	-2.3975	0.0238	-0.0042	0.0056	34.2921	25.5241	-5.7518	-0.5584	0.7368	0.2823	-0.2562
5.29	-0.6358	-9.3297	-2.3955	0.0151	-0.0033	0.0056	34.4704	25.8088	-5.6990	-0.5584	0.7368	0.2823	-0.2562
5.3	-0.6262	-9.3272	-2.3877	0.0231	-0.0008	0.0077	34.4653	25.9322	-5.6962	-0.5584	0.7367	0.2823	-0.2562
5.31	-0.6131	-9.3364	-2.3832	0.0196	-0.0029	0.0073	34.3129	25.8248	-5.8478	-0.5584	0.7368	0.2824	-0.2562
5.32	-0.6081	-9.3408	-2.3810	0.0201	0.0011	0.0052	34.5008	25.7219	-5.7061	-0.5584	0.7368	0.2824	-0.2562
5.33	-0.5886	-9.3375	-2.3826	0.0201	-0.0072	0.0085	34.4955	25.8068	-5.5726	-0.5584	0.7368	0.2824	-0.2562
5.34	-0.5810	-9.3226	-2.3749	0.0173	0.0030	0.0108	34.5094	25.5683	-5.6994	-0.5583	0.7367	0.2824	-0.2561
5.35	-0.5901	-9.3341	-2.3823	0.0253	0.0042	0.0139	34.5071	25.5265	-5.8455	-0.5584	0.7368	0.2824	-0.2562
5.36	-0.6042	-9.3484	-2.4026	0.0198	0.0010	0.0107	34.8444	25.6175	-5.8147	-0.5584	0.7368	0.2824	-0.2561
5.37	-0.6202	-9.3360	-2.4001	0.0205	-0.0009	0.0116	34.9722	25.6624	-5.5061	-0.5584	0.7368	0.2824	-0.2561
5.38	-0.6301	-9.3224	-2.3985	0.0233	0.0021	0.0085	35.1481	25.6785	-5.4381	-0.5584	0.7368	0.2824	-0.2561
5.39	-0.6343	-9.3251	-2.4028	0.0252	0.0034	0.0134	34.6925	25.9954	-5.7327	-0.5584	0.7368	0.2823	-0.2561
5.4	-0.6341	-9.3283	-2.4056	0.0190	-0.0055	0.0137	34.5435	26.3494	-5.8588	-0.5584	0.7368	0.2824	-0.2561
5.41	-0.6307	-9.3157	-2.3938	0.0156	-0.0007	0.0130	34.5929	26.1010	-5.8569	-0.5584	0.7367	0.2823	-0.2561
5.42	-0.6240	-9.3252	-2.3879	0.0197	-0.0074	0.0097	34.5740	25.7227	-5.7376	-0.5584	0.7368	0.2824	-0.2562
5.43	-0.6213	-9.3359	-2.3851	0.0221	-0.0059	0.0130	34.6519	25.7528	-5.6734	-0.5584	0.7368	0.2824	-0.2562
5.44	-0.6201	-9.3320	-2.3798	0.0195	-0.0007	0.0092	34.6624	25.6529	-5.6700	-0.5584	0.7368	0.2824	-0.2562
5.45	-0.6111	-9.3310	-2.3800	0.0156	-0.0033	0.0126	34.2838	25.7754	-5.7070	-0.5583	0.7368	0.2824	-0.2562
5.46	-0.6161	-9.3392	-2.3847	0.0194	0.0016	0.0082	34.5447	26.0131	-5.8994	-0.5583	0.7368	0.2824	-0.2561
5.47	-0.6138	-9.3316	-2.3787	0.0183	-0.0004	0.0055	34.5813	25.9537	-5.8638	-0.5584	0.7368	0.2824	-0.2561
5.48	-0.6156	-9.3199	-2.3663	0.0211	-0.0014	0.0048	34.4643	25.6319	-5.8379	-0.5583	0.7367	0.2824	-0.2561
5.49	-0.6186	-9.3382	-2.3753	0.0174	0.0024	0.0096	34.7626	25.8251	-5.9090	-0.5584	0.7369	0.2825	-0.2561
5.5	-0.6170	-9.3481	-2.3853	0.0170	-0.0010	0.0096	34.5781	25.8328	-5.8750	-0.5583	0.7368	0.2824	-0.2561
5.51	-0.6125	-9.3251	-2.3662	0.0110	0.0006	0.0073	34.4927	25.7129	-5.7748	-0.5584	0.7369	0.2825	-0.2561
5.52	-0.6169	-9.3288	-2.3700	0.0133	-0.0017	0.0118	34.6117	25.9041	-6.0163	-0.5582	0.7368	0.2825	-0.2560
5.53	-0.6219	-9.3459	-2.3950	0.0222	-0.0033	0.0124	34.4977	25.7759	-5.7712	-0.5583	0.7369	0.2825	-0.2560
5.54	-0.6288	-9.3351	-2.3877	0.0229	-0.0031	0.0109	34.6754	25.6902	-5.8265	-0.5583	0.7369	0.2825	-0.2561
5.55	-0.6296	-9.3260	-2.3878	0.0257	0.0038	0.0104	34.4000	25.8894	-5.8921	-0.5583	0.7368	0.2825	-0.2560
5.56	-0.6274	-9.3305	-2.4076	0.0166	-0.0006	0.0159	34.5619	25.6404	-5.6420	-0.5583	0.7369	0.2825	-0.2561
5.57	-0.6212	-9.3325	-2.4117	0.0161	-0.0036	0.0089	34.5712	25.7206	-5.8497	-0.5583	0.7369	0.2825	-0.2560
5.58	-0.6124	-9.3256	-2.4106	0.0129	-0.0046	0.0122	34.5028	25.8148	-5.8532	-0.5583	0.7369	0.2825	-0.2561
5.59	-0.6048	-9.3311	-2.4122	0.0240	-0.0013	0.0101	34.5231	25.6320	-5.8824	-0.5582	0.7368	0.2825	-0.2560
5.6	-0.5949	-9.3372	-2.4138	0.0176	-0.0022	0.0098	34.5312	25.7580	-5.6990	-0.5582	0.7369	0.2825	-0.2560
5.61	-0.5942	-9.3380	-2.4124	0.0153	0.0005	0.0115	34.4580	25.9826	-5.7572	-0.5582	0.7369	0.2825	-0.2560
5.62	-0.5957	-9.3351	-2.4096	0.0191	-0.0014	0.0101	34.4829	25.6291	-6.0062	-0.5582	0.7369	0.2825	-0.2560
5.63	-0.5966	-9.3365	-2.4090	0.0151	0.0020	0.0103	34.6321	25.8929	-5.7253	-0.5582	0.7370	0.2825	-0.2560
5.64	-0.6026	-9.3308	-2.4111	0.0227	0.0093	0.0113	34.5732	25.9404	-5.6890	-0.5582	0.7369	0.2825	-0.2560
5.65	-0.6061	-9.3265	-2.4083	0.0171	0.0017	0.0111	34.6279	25.7397	-5.6715	-0.5582	0.7370	0.2825	-0.2560
5.66	-0.6169	-9.3369	-2.4096	0.0173	-0.0017	0.0077	34.4956	25.8748	-5.7773	-0.5581	0.7369	0.2825	-0.2559
5.67	-0.6202	-9.3392	-2.4187	0.0141	0.0012	0.0096	34.5402	25.8150	-5.7852	-0.5582	0.7370	0.2825	-0.2559
5.68	-0.6176	-9.3248	-2.4062	0.0215	0.0016	0.0113	34.5902	25.7998	-5.6026	-0.5582	0.7370	0.2825	-0.2559
5.69	-0.6140	-9.3268	-2.4070	0.0155	-0.0012	0.0106	34.4022	25.8537	-5.6187	-0.5582	0.7370	0.2825	-0.2559
5.7	-0.6111	-9.3303	-2.4087	0.0188	0.0002	0.0077	34.5357	25.9435	-5.5728	-0.5581	0.7370	0.2825	-0.2559
5.71	-0.6114	-9.3307	-2.4068	0.0182	-0.0010	0.0049	34.3692	25.8992	-5.7856	-0.5581	0.7370	0.2825	-0.2559
5.72	-0.6034	-9.3356	-2.4062	0.0176	-0.0080	0.0152	34.3845	25.8233	-5.6815	-0.5581	0.7370	0.2826	-0.2559
5.73	-0.6031	-9.3351	-2.4065	0.0166	-0.0036	0.0124	34.5170	25.8513	-5.8514	-0.5581	0.7370	0.2825	-0.2559
5.74	-0.5962	-9.3339	-2.3977	0.0221	-0.0055	0.0133	34.6155	25.9598	-5.9572	-0.5581	0.7371	0.2826	-0.2559
5.75	-0.6037	-9.3309	-2.4090	0.0244	0.0002	0.0116	34.7189	25.8997	-5.8445	-0.5581	0.7370	0.2826	-0.2559
5.76	-0.5936	-9.3335	-2.3970	0.0197	0.0014	0.0123	34.5975	25.8139	-5.8068	-0.5581	0.7371	0.2826	-0.2559
5.77	-0.6158	-9.3310	-2.4303	0.0254	0.0025	0.0108	34.5944	26.0279	-5.7647	-0.5581	0.7370	0.2825	-0.2559
5.78	-0.5834	-9.3341	-2.4032	0.0237	-0.0070	0.0119	34.5865	26.0238	-5.7796	-0.5581	0.7370	0.2825	-0.2559
5.79	-0.6340	-9.3422	-2.5242	0.0421	-0.0057	0.0183	34.4611	25.9941	-5.8018	-0.5582	0.7370	0.2825	-0.2560
5.8	-0.5412	-9.3196	-2.4360	0.0472	-0.0289	0.0046	34.6728	26.0456	-5.7338	-0.5582	0.7368	0.2825	-0.2561
5.81	-0.4951	-9.4317	-2.4902	0.0753	-0.0081	0.0272	34.7877	25.9736	-6.0427	-0.5584	0.7368	0.2825	-0.2563
5.82	-0.7645	-9.3533	-2.5452	0.1191	-0.0384	0.0404	34.6186	25.9958	-5.8008	-0.5586	0.7364	0.2823	-0.2566
5.83	-0.6852	-9.4844	-2.5855	0.1664	-0.0935	0.0165	34.5847	26.1454	-5.7303	-0.5591	0.7360	0.2824	-0.2571
5.84	-0.7085	-9.3678	-2.3524	0.2420	-0.1389	0.0243	34.6254	26.0138	-6.2147	-0.5596	0.7352	0.2824	-0.2579
5.85	-0.6228	-9.3075	-2.1743	0.2343	-0.1312	0.0194	34.5741	25.8815	-5.8361	-0.5602	0.7345	0.2825	-0.2588
5.86	-0.6646	-9.2639	-2.1590	0.1793	-0.0956	0.0177	34.8291	25.7461	-6.0905	-0.5607	0.7339	0.2825	-0.2594
5.87	-0.5907	-9.2892	-2.1093	0.1152	-0.0557	0.0104	35.0763	26.0507	-6.0844	-0.5609	0.7335	0.2826	-0.2597
5.88	-0.6549	-9.2870	-2.1973	0.0675	-0.0212	0.0101	35.2512	25.9891	-5.7330	-0.5611	0.7334	0.2826	-0.2599
5.89	-0.6320	-9.3500	-2.2304	0.0305	-0.0145	0.0076	34.8594	26.0810	-6.1733	-0.5611	0.7333	0.2826	-0.2599
5.9	-0.6280	-9.3689	-2.2463	0.0254	-0.0020	0.0137	34.5209	26.4854	-6.2891	-0.5612	0.7333	0.2826	-0.2600
5.91	-0.6418	-9.3211	-2.2146	0.0084	0.0109	0.0072	34.7698	26.3500	-6.1028	-0.5611	0.7332	0.2826	-0.2599
5.92	-0.6395	-9.3076	-2.1932	-0.0138	0.0105	-0.0000	34.7252	25.6201	-6.2101	-0.5611	0.7334	0.2826	-0.2598
5.93	-0.6392	-9.2945	-2.1778	-0.0543	0.0273	-0.0049	34.7124	25.5185	-6.3211	-0.5608	0.7336	0.2827	-0.2595
5.94	-0.6121	-9.2966	-2.1868	-0.0959	0.0378	-0.0099	34.8039	25.8423	-6.1326	-0.5605	0.7340	0.2828	-0.2592
5.95	-0.5976	-9.2848	-2.2069	-0.1401	0.0803	-0.0164	34.6469	25.9846	-6.1658	-0.5601	0.7344	0.2829	-0.2586
5.96	-0.6353	-9.4116	-2.4131	-0.1467	0.0965	-0.0095	34.5986	25.7886	-5.9148	-0.5596	0.7350	0.2829	-0.2580
5.97	-0.6403	-9.3915	-2.3884	-0.0987	0.0793	0.0013	34.7653	25.8124	-6.0549	-0.5593	0.7355	0.2829	-0.2575
5.98	-0.6652	-9.4014	-2.4584	-0.0665	0.0629	0.0058	34.7510	25.6810	-6.0632	-0.5590	0.7357	0.2828	-0.2570
5.99	-0.6554	-9.3723	-2.4141	-0.0244	0.0294	0.0081	34.8610	25.7431	-5.9524	-0.5589	0.7360	0.2828	-0.2569
6	-0.6429	-9.3573	-2.3885	-0.0101	0.0079	0.0119	34.6649	25.7633	-5.6847	-0.5588	0.7361	0.2828	-0.2568
6.01	-0.6284	-9.3292	-2.3515	0.0064	0.0069	0.0074	34.7077	25.9096	-5.8164	-0.5588	0.7362	0.2829	-0.2567
6.02	-0.6238	-9.3341	-2.3584	0.0106	0.0036	0.0033	34.5372	26.0519	-5.7041	-0.5587	0.7361	0.2829	-0.2566
6.03	-0.6266	-9.3423	-2.3626	0.0093	0.0042	0.0041	34.6710	25.8106	-5.7486	-0.5587	0.7362	0.2829	-0.2566
6.04	-0.6192	-9.3367	-2.3521	0.0117	0.0032	0.0052	34.7153	25.9151	-5.6098	-0.5587	0.7362	0.2829	-0.2565
6.05	-0.6156	-9.3317	-2.3582	0.0139	-0.0036	0.0084	34.3842	26.0364	-5.5051	-0.5586	0.7362	0.2829	-0.2565
6.06	-0.6182	-9.3440	-2.3663	0.0109	0.0057	0.0064	34.5241	26.0013	-5.6781	-0.5587	0.7363	0.2830	-0.2565
6.07	-0.6190	-9.3417	-2.3690	0.0068	-0.0022	0.0101	34.5271	25.8225	-5.7368	-0.5586	0.7363	0.2830	-0.2565
6.08	-0.6192	-9.3320	-2.3662	0.0091	-0.0040	0.0162	34.6172	26.0778	-5.6751	-0.5586	0.7364	0.2830	-0.2565
6.09	-0.6184	-9.3338	-2.3658	0.0217	-0.0053	0.0128	34.5497	25.8447	-5.5061	-0.5585	0.7363	0.2830	-0.2565
6.1	-0.6201	-9.3366	-2.3771	0.0204	-0.0029	0.0115	34.7203	25.6502	-5.6871	-0.5585	0.7363	0.2830	-0.2565
6.11	-0.6178	-9.3310	-2.3725	0.0090	-0.0025	0.0116	34.7643	25.5982	-5.8415	-0.5585	0.7364	0.2830	-0.2565
6.12	-0.6202	-9.3387	-2.3784	0.0115	-0.0013	0.0108	34.7439	25.6390	-5.6980	-0.5584	0.7364	0.2830	-0.2565
6.13	-0.6135	-9.3483	-2.3963	0.0110	-0.0031	0.0113	34.8409	25.5865	-5.7054	-0.5584	0.7364	0.2831	-0.2565
6.14	-0.6013	-9.3388	-2.3941	0.0199	-0.0034	0.0109	34.8392	25.6981	-5.6952	-0.5584	0.7364	0.2831	-0.2565
6.15	-0.5881	-9.3308	-2.3861	0.0186	-0.0050	0.0136	34.7837	25.8196	-5.5184	-0.5584	0.7364	0.2831	-0.2565
6.16	-0.5928	-9.3563	-2.4092	0.0151	-0.0035	0.0085	34.6525	25.7040	-5.6197	-0.5583	0.7364	0.2831	-0.2565
6.17	-0.5888	-9.3481	-2.4102	0.0162	-0.0056	0.0122	34.6789	25.6652	-5.8396	-0.5583	0.7365	0.2831	-0.2565
6.18	-0.5877	-9.3155	-2.3775	0.0166	-0.0104	0.0148	34.6685	25.8088	-5.6165	-0.5583	0.7364	0.2831	-0.2565
6.19	-0.5890	-9.3406	-2.4081	0.0145	-0.0029	0.0124	34.6621	25.8659	-5.6510	-0.5583	0.7365	0.2831	-0.2565
6.2	-0.5965	-9.3534	-2.4107	0.0154	-0.0008	0.0094	34.6716	25.9741	-5.5087	-0.5582	0.7365	0.2831	-0.2565
6.21	-0.5994	-9.3252	-2.3951	0.0201	-0.0012	0.0069	34.5285	25.8789	-5.7205	-0.5582	0.7365	0.2831	-0.2565
6.22	-0.6022	-9.3256	-2.3871	0.0187	-0.0003	0.0152	34.5266	25.7503	-5.6484	-0.5582	0.7365	0.2831	-0.2565
6.23	-0.6099	-9.3522	-2.4055	0.0140	-0.0060	0.0131	34.4224	25.7657	-5.6419	-0.5582	0.7365	0.2831	-0.2565
6.24	-0.6083	-9.3345	-2.3944	0.0165	-0.0026	0.0099	34.4433	25.9103	-5.5952	-0.5582	0.7366	0.2832	-0.2565
6.25	-0.6064	-9.3219	-2.3795	0.0137	-0.0013	0.0124	34.5249	26.0310	-5.5839	-0.5581	0.7365	0.2832	-0.2565
6.26	-0.6089	-9.3485	-2.3876	0.0137	-0.0045	0.0129	34.5043	25.8832	-5.6343	-0.5582	0.7366	0.2832	-0.2565
6.27	-0.6076	-9.3483	-2.3897	0.0138	0.0003	0.0134	34.4979	26.1303	-5.7439	-0.5580	0.7365	0.2832	-0.2565
6.28	-0.5990	-9.3258	-2.3706	0.0199	-0.0052	0.0190	34.5329	26.1089	-5.7880	-0.5581	0.7366	0.2832	-0.2565
6.29	-0.5984	-9.3312	-2.3643	0.0163	-0.0070	0.0165	34.7810	25.7281	-5.5470	-0.5580	0.7366	0.2832	-0.2566
6.3	-0.5968	-9.3485	-2.3760	0.0221	-0.0036	0.0159	34.6559	25.7666	-5.7423	-0.5580	0.7366	0.2831	-0.2566
6.31	-0.5946	-9.3393	-2.3646	0.0188	-0.0037	0.0111	34.7662	25.7765	-5.5987	-0.5581	0.7367	0.2832	-0.2566
6.32	-0.5965	-9.3279	-2.3539	0.0192	-0.0036	0.0153	34.5954	25.5748	-5.6274	-0.5580	0.7366	0.2832	-0.2566
6.33	-0.6025	-9.3493	-2.3669	0.0227	-0.0035	0.0109	34.6344	25.8295	-5.6321	-0.5580	0.7367	0.2832	-0.2567
6.34	-0.6081	-9.3466	-2.3721	0.0238	-0.0040	0.0125	34.7085	25.6767	-5.6124	-0.5580	0.7366	0.2831	-0.2566
6.35	-0.6192	-9.3203	-2.3585	0.0222	-0.0056	0.0100	34.6142	25.6121	-5.5253	-0.5580	0.7366	0.2832	-0.2567
6.36	-0.6234	-9.3276	-2.3578	0.0161	-0.0032	0.0132	34.6410	25.7599	-5.6856	-0.5580	0.7366	0.2832	-0.2567
6.37	-0.6321	-9.3524	-2.3741	0.0155	0.0033	0.0153	34.9615	25.8496	-5.4749	-0.5579	0.7366	0.2831	-0.2567
6.38	-0.6362	-9.3394	-2.3612	0.0184	-0.0029	0.0105	35.1729	25.8774	-5.2481	-0.5579	0.7367	0.2832	-0.2567
6.39	-0.6377	-9.3171	-2.3486	0.0113	-0.0006	0.0094	34.6869	25.7942	-5.5254	-0.5579	0.7367	0.2832	-0.2566
6.4	-0.6432	-9.3447	-2.3704	0.0133	0.0026	0.0090	34.6709	26.4562	-5.6288	-0.5579	0.7367	0.2832	-0.2566
6.41	-0.6375	-9.3442	-2.3700	0.0065	-0.0037	0.0146	34.7450	26.3085	-5.4895	-0.5578	0.7367	0.2832	-0.2566
6.42	-0.6264	-9.3288	-2.3532	0.0173	0.0024	0.0086	34.5238	25.7593	-5.5345	-0.5578	0.7368	0.2832	-0.2566
6.43	-0.6209	-9.3391	-2.3596	0.0189	0.0019	0.0110	34.4707	25.6974	-5.6588	-0.5578	0.7368	0.2832	-0.2566
6.44	-0.6078	-9.3538	-2.3701	0.0157	-0.0011	0.0115	34.6367	25.8126	-5.7226	-0.5578	0.7368	0.2832	-0.2566
6.45	-0.5944	-9.3264	-2.3546	0.0192	-0.0029	0.0117	34.6880	25.8589	-5.4916	-0.5578	0.7368	0.2832	-0.2566
6.46	-0.5897	-9.3336	-2.3598	0.0204	-0.0027	0.0136	34.5117	25.7552	-5.3973	-0.5578	0.7368	0.2832	-0.2566
6.47	-0.5968	-9.3610	-2.3742	0.0165	-0.0038	0.0151	34.5266	25.8882	-5.7069	-0.5578	0.7368	0.2832	-0.2566
6.48	-0.6039	-9.3492	-2.3758	0.0185	-0.0063	0.0195	34.7702	25.8285	-5.9067	-0.5577	0.7368	0.2832	-0.2566
6.49	-0.6147	-9.3277	-2.3697	0.0232	-0.0040	0.0204	34.5555	25.8564	-5.7302	-0.5577	0.7369	0.2832	-0.2567
6.5	-0.6259	-9.3358	-2.3840	0.0199	-0.0003	0.0142	34.6195	25.8503	-5.8335	-0.5577	0.7368	0.2831	-0.2567
6.51	-0.6326	-9.3459	-2.4008	0.0193	-0.0032	0.0103	34.5060	25.5920	-5.6240	-0.5577	0.7369	0.2832	-0.2567
6.52	-0.6274	-9.3148	-2.3783	0.0171	-0.0002	0.0112	34.5732	25.6873	-5.5033	-0.5576	0.7368	0.2831	-0.2567
6.53	-0.6275	-9.3239	-2.3807	0.0104	-0.0001	0.0110	34.4853	25.7727	-5.4980	-0.5576	0.7369	0.2832	-0.2567
6.54	-0.6247	-9.3536	-2.3972	0.0163	-0.0009	0.0137	34.5012	25.9536	-5.5975	-0.5576	0.7369	0.2832	-0.2567
6.55	-0.6149	-9.3399	-2.3868	0.0145	-0.0074	0.0145	34.5440	25.7713	-5.5208	-0.5575	0.7369	0.2832	-0.2567
6.56	-0.6064	-9.3321	-2.3760	0.0187	-0.0085	0.0152	34.8071	25.6847	-5.6048	-0.5576	0.7370	0.2832	-0.2567
6.57	-0.5997	-9.3536	-2.3932	0.0145	-0.0047	0.0121	34.3996	25.7706	-5.5766	-0.5575	0.7369	0.2832	-0.2567
6.58	-0.6004	-9.3511	-2.3912	0.0146	0.0002	0.0092	34.5685	25.8167	-5.4782	-0.5575	0.7370	0.2832	-0.2567
6.59	-0.5993	-9.3244	-2.3760	0.0191	-0.0030	0.0104	34.4900	25.8718	-5.6138	-0.5575	0.7369	0.2832	-0.2567
6.6	-0.6046	-9.3323	-2.3707	0.0150	-0.0034	0.0139	34.5624	25.6300	-5.8332	-0.5575	0.7370	0.2832	-0.2567
6.61	-0.6110	-9.3460	-2.3774	0.0154	0.0049	0.0090	34.6563	26.0548	-5.5168	-0.5575	0.7370	0.2832	-0.2567
6.62	-0.6152	-9.3310	-2.3684	0.0218	-0.0031	0.0128	34.5342	25.8607	-5.3597	-0.5574	0.7370	0.2832	-0.2567
6.63	-0.6139	-9.3277	-2.3596	0.0094	0.0020	0.0108	34.6049	25.7522	-5.6694	-0.5574	0.7370	0.2832	-0.2567
6.64	-0.6274	-9.3466	-2.3705	0.0123	0.0031	0.0127	34.5589	25.8823	-5.5296	-0.5574	0.7370	0.2832	-0.2566
6.65	-0.6275	-9.3440	-2.3695	0.0244	0.0052	0.0118	34.4105	25.8124	-5.5728	-0.5574	0.7371	0.2832	-0.2566
6.66	-0.6278	-9.3267	-2.3560	0.0269	-0.0039	0.0151	34.5028	25.9381	-5.6233	-0.5574	0.7370	0.2831	-0.2566
6.67	-0.6297	-9.3447	-2.3682	0.0153	0.0013	0.0115	34.4808	25.9254	-5.4949	-0.5574	0.7371	0.2832	-0.2567
6.68	-0.6266	-9.3484	-2.3795	0.0126	0.0004	0.0088	34.7051	25.9175	-5.6906	-0.5574	0.7371	0.2832	-0.2566
6.69	-0.6218	-9.3228	-2.3681	0.0078	-0.0036	0.0106	34.7037	25.4890	-5.6250	-0.5573	0.7371	0.2832	-0.2566
6.7	-0.6088	-9.3223	-2.3643	0.0173	-0.0064	0.0106	34.5530	25.6269	-5.4675	-0.5573	0.7371	0.2832	-0.2566
6.71	-0.6039	-9.3478	-2.3776	0.0172	-0.0024	0.0129	34.5810	25.9019	-5.5714	-0.5573	0.7371	0.2832	-0.2566
6.72	-0.6010	-9.3529	-2.3827	0.0238	-0.0031	0.0099	34.7790	25.6540	-5.5624	-0.5573	0.7371	0.2832	-0.2566
6.73	-0.5966	-9.3338	-2.3622	0.0170	0.0053	0.0173	34.5679	25.7549	-5.4040	-0.5572	0.7371	0.2832	-0.2566
6.74	-0.6019	-9.3444	-2.3762	0.0187	-0.0032	0.0151	34.5150	25.8779	-5.5383	-0.5573	0.7372	0.2832	-0.2566
6.75	-0.6023	-9.3486	-2.3850	0.0230	0.0005	0.0135	34.6884	25.6562	-5.3643	-0.5573	0.7372	0.2832	-0.2566
6.76	-0.6030	-9.3301	-2.3741	0.0225	0.0091	0.0140	34.4622	25.8202	-5.5307	-0.5573	0.7372	0.2832	-0.2566
6.77	-0.6087	-9.3301	-2.3823	0.0226	0.0065	0.0105	34.5971	25.8612	-5.5013	-0.5573	0.7371	0.2831	-0.2566
6.78	-0.6109	-9.3423	-2.3868	0.0156	-0.0025	0.0130	34.5750	25.8458	-5.5458	-0.5573	0.7372	0.2831	-0.2566
6.79	-0.6063	-9.3303	-2.3723	0.0198	0.0054	0.0114	34.5790	25.8253	-5.6257	-0.5573	0.7372	0.2831	-0.2566
6.8	-0.6120	-9.3251	-2.3715	0.0242	0.0058	0.0161	34.5889	25.9455	-5.5938	-0.5573	0.7372	0.2830	-0.2565
6.81	-0.6120	-9.3467	-2.3756	0.0151	0.0023	0.0146	34.4823	25.8118	-5.7091	-0.5573	0.7373	0.2831	-0.2566
6.82	-0.6099	-9.3478	-2.3801	0.0199	0.0067	0.0103	34.4196	25.6436	-5.8270	-0.5573	0.7372	0.2830	-0.2565
6.83	-0.6086	-9.3264	-2.3652	0.0121	0.0046	0.0078	34.4157	25.6874	-5.6527	-0.5573	0.7373	0.2830	-0.2565
6.84	-0.6083	-9.3373	-2.3725	0.0224	0.0054	0.0155	34.4840	25.6915	-5.4911	-0.5572	0.7372	0.2830	-0.2564
6.85	-0.6055	-9.3484	-2.3855	0.0144	-0.0016	0.0101	34.7144	25.6509	-5.5143	-0.5573	0.7373	0.2830	-0.2565
6.86	-0.6065	-9.3318	-2.3699	0.0095	0.0029	0.0119	34.9113	25.6337	-5.6827	-0.5572	0.7373	0.2830	-0.2564
6.87	-0.6021	-9.3276	-2.3663	0.0160	0.0012	0.0120	34.8703	25.7807	-5.5757	-0.5572	0.7373	0.2830	-0.2564
6.88	-0.6062	-9.3467	-2.3716	0.0168	-0.0021	0.0165	35.0630	25.6855	-5.1866	-0.5572	0.7374	0.2830	-0.2564
6.89	-0.6091	-9.3417	-2.3758	0.0226	-0.0066	0.0146	34.9815	25.7469	-5.4423	-0.5572	0.7374	0.2830	-0.2564
6.9	-0.6097	-9.3267	-2.3638	0.0229	0.0019	0.0144	34.6823	25.9805	-5.6070	-0.5572	0.7374	0.2830	-0.2565
6.91	-0.6134	-9.3388	-2.3775	0.0249	0.0045	0.0119	34.5530	26.0914	-5.6114	-0.5571	0.7373	0.2829	-0.2564
6.92	-0.6171	-9.3512	-2.3870	0.0170	0.0015	0.0110	34.4052	25.4935	-5.6343	-0.5572	0.7374	0.2829	-0.2564
6.93	-0.6229	-9.3332	-2.3800	0.0155	0.0028	0.0147	34.4402	25.3790	-5.6258	-0.5572	0.7374	0.2829	-0.2564
6.94	-0.6240	-9.3249	-2.3743	0.0204	-0.0010	0.0078	34.4363	25.4588	-5.8428	-0.5572	0.7374	0.2829	-0.2564
6.95	-0.6280	-9.3420	-2.3904	0.0172	-0.0012	0.0114	34.4231	25.6727	-5.5852	-0.5571	0.7374	0.2829	-0.2564
6.96	-0.6320	-9.3362	-2.3844	0.0114	0.0027	0.0111	34.3210	25.5281	-5.5632	-0.5571	0.7375	0.2829	-0.2564
6.97	-0.6316	-9.3249	-2.3743	0.0163	0.0006	0.0090	34.3659	25.5997	-5.6618	-0.5571	0.7375	0.2829	-0.2564
6.98	-0.6311	-9.3452	-2.3869	0.0165	-0.0021	0.0109	34.3268	25.8749	-5.6225	-0.5570	0.7374	0.2829	-0.2563
6.99	-0.6302	-9.3450	-2.3800	0.0202	0.0013	0.0107	34.3710	25.7543	-5.5402	-0.5571	0.7375	0.2830	-0.2564
7	-0.6228	-9.3293	-2.3637	0.0210	-0.0045	0.0107	34.4344	26.0471	-5.8529	-0.5571	0.7375	0.2829	-0.2564
7.01	-0.6135	-9.3399	-2.3682	0.0211	0.0063	0.0103	34.4363	25.7103	-5.6633	-0.5571	0.7376	0.2830	-0.2564
7.02	-0.6030	-9.3508	-2.3760	0.0182	-0.0040	0.0098	34.4120	25.5937	-5.5961	-0.5571	0.7375	0.2829	-0.2563
7.03	-0.5978	-9.3354	-2.3707	0.0201	-0.0095	0.0140	34.3549	25.7005	-5.7907	-0.5571	0.7375	0.2830	-0.2564
7.04	-0.5974	-9.3348	-2.3703	0.0198	-0.0012	0.0147	34.6541	25.5283	-5.9768	-0.5571	0.7375	0.2830	-0.2564
7.05	-0.6015	-9.3399	-2.3712	0.0151	-0.0027	0.0085	34.7601	25.5351	-5.9155	-0.5570	0.7375	0.2829	-0.2564
7.06	-0.6114	-9.3410	-2.3740	0.0190	-0.0037	0.0115	34.7596	25.4443	-5.7321	-0.5571	0.7376	0.2830	-0.2564
7.07	-0.6225	-9.3280	-2.3629	0.0238	-0.0007	0.0148	34.4947	25.4435	-5.8830	-0.5570	0.7375	0.2830	-0.2564
7.08	-0.6302	-9.3261	-2.3646	0.0242	0.0008	0.0090	34.3809	25.4595	-5.5606	-0.5571	0.7375	0.2830	-0.2564
7.09	-0.6311	-9.3392	-2.3788	0.0157	0.0020	0.0129	34.6164	25.3514	-5.5991	-0.5570	0.7375	0.2829	-0.2564
7.1	-0.6281	-9.3390	-2.3757	0.0201	-0.0044	0.0143	34.5749	25.2757	-5.9486	-0.5570	0.7375	0.2829	-0.2564
7.11	-0.6187	-9.3358	-2.3732	0.0209	-0.0045	0.0122	34.4912	25.5957	-5.6880	-0.5570	0.7375	0.2829	-0.2564
7.12	-0.6099	-9.3376	-2.3751	0.0168	-0.0049	0.0117	34.5170	25.6162	-5.7272	-0.5570	0.7375	0.2830	-0.2564
7.13	-0.6057	-9.3454	-2.3785	0.0178	0.0015	0.0119	34.5075	25.6079	-5.6987	-0.5570	0.7376	0.2830	-0.2564
7.14	-0.6012	-9.3316	-2.3711	0.0206	0.0010	0.0159	34.3764	25.6139	-5.7311	-0.5570	0.7375	0.2829	-0.2564
7.15	-0.5996	-9.3334	-2.3711	0.0175	0.0020	0.0089	34.3412	25.5947	-5.9100	-0.5570	0.7376	0.2829	-0.2564
7.16	-0.6084	-9.3370	-2.3706	0.0236	-0.0021	0.0096	34.3530	25.6141	-5.8025	-0.5569	0.7375	0.2829	-0.2564
7.17	-0.6148	-9.3424	-2.3658	0.0199	-0.0006	0.0120	34.3473	25.5894	-5.8057	-0.5570	0.7376	0.2829	-0.2564
7.18	-0.6233	-9.3434	-2.3621	0.0104	-0.0027	0.0125	34.4977	25.6630	-5.6204	-0.5569	0.7376	0.2829	-0.2564
7.19	-0.6245	-9.3397	-2.3569	0.0104	-0.0047	0.0096	34.4801	25.7090	-5.7111	-0.5569	0.7376	0.2830	-0.2564
7.2	-0.6214	-9.3364	-2.3544	0.0136	0.0034	0.0125	34.2216	25.5982	-5.6342	-0.5569	0.7376	0.2830	-0.2564
7.21	-0.6217	-9.3422	-2.3507	0.0107	-0.0064	0.0118	34.2020	25.5852	-5.6302	-0.5568	0.7377	0.2830	-0.2564
7.22	-0.6223	-9.3428	-2.3521	0.0140	-0.0123	0.0162	34.3403	25.4658	-5.6382	-0.5568	0.7377	0.2830	-0.2564
7.23	-0.6140	-9.3382	-2.3452	0.0202	-0.0067	0.0172	34.7179	25.3505	-5.9158	-0.5567	0.7376	0.2830	-0.2564
7.24	-0.6051	-9.3358	-2.3530	0.0151	-0.0045	0.0140	34.5336	25.4816	-5.7362	-0.5568	0.7377	0.2830	-0.2565
7.25	-0.6057	-9.3401	-2.3562	0.0224	0.0001	0.0146	34.5740	25.3760	-5.6040	-0.5567	0.7377	0.2830	-0.2565
7.26	-0.6044	-9.3450	-2.3638	0.0206	0.0055	0.0094	34.7325	25.1752	-5.8137	-0.5568	0.7378	0.2830	-0.2565
7.27	-0.6035	-9.3419	-2.3705	0.0179	-0.0002	0.0130	34.5730	25.2807	-5.7026	-0.5567	0.7377	0.2830	-0.2564
7.28	-0.5967	-9.3392	-2.3746	0.0180	-0.0016	0.0147	34.3586	25.6313	-5.6999	-0.5567	0.7377	0.2830	-0.2565
7.29	-0.5962	-9.3441	-2.3801	0.0180	0.0015	0.0123	34.3807	25.5177	-5.6046	-0.5567	0.7377	0.2830	-0.2564
7.3	-0.5950	-9.3404	-2.3857	0.0191	0.0074	0.0090	34.5071	25.3331	-5.6401	-0.5567	0.7377	0.2829	-0.2564
7.31	-0.5972	-9.3428	-2.3820	0.0218	0.0031	0.0137	34.5315	25.4675	-5.5108	-0.5568	0.7378	0.2829	-0.2564
7.32	-0.6001	-9.3407	-2.3950	0.0130	-0.0019	0.0121	34.4381	25.7063	-5.7048	-0.5567	0.7378	0.2829	-0.2564
7.33	-0.5967	-9.3376	-2.3937	0.0114	0.0097	0.0108	34.3028	25.6043	-5.7193	-0.5567	0.7379	0.2829	-0.2564
7.34	-0.5995	-9.3415	-2.3974	0.0185	0.0039	0.0098	34.4610	25.7079	-5.7213	-0.5566	0.7378	0.2829	-0.2563
7.35	-0.6007	-9.3327	-2.3969	0.0197	0.0109	0.0069	34.1971	25.5427	-5.7077	-0.5567	0.7379	0.2829	-0.2563
7.36	-0.5990	-9.3364	-2.3986	0.0207	0.0032	0.0138	34.3719	25.5619	-5.5633	-0.5567	0.7378	0.2829	-0.2562
7.37	-0.5980	-9.3346	-2.3972	0.0229	0.0057	0.0113	34.7856	25.6319	-5.4751	-0.5567	0.7378	0.2828	-0.2562
7.38	-0.5990	-9.3389	-2.3994	0.0313	0.0077	0.0083	35.1798	25.5159	-5.2409	-0.5568	0.7378	0.2828	-0.2562
7.39	-0.5995	-9.3316	-2.3951	0.0215	0.0038	0.0125	34.7480	25.6285	-5.6658	-0.5568	0.7378	0.2828	-0.2562
7.4	-0.5989	-9.3412	-2.3921	0.0228	-0.0003	0.0158	34.5506	26.1209	-5.6554	-0.5568	0.7379	0.2828	-0.2562
7.41	-0.6037	-9.3442	-2.3986	0.0211	-0.0037	0.0099	34.5621	25.9929	-5.7335	-0.5567	0.7378	0.2827	-0.2562
7.42	-0.6036	-9.3345	-2.3862	0.0137	-0.0053	0.0157	34.5946	25.2228	-5.9871	-0.5568	0.7379	0.2828	-0.2562
7.43	-0.6049	-9.3364	-2.3884	0.0124	-0.0074	0.0129	34.5838	25.5941	-5.8912	-0.5567	0.7379	0.2828	-0.2562
7.44	-0.6123	-9.3521	-2.3920	0.0221	-0.0013	0.0163	34.3739	25.4165	-5.7655	-0.5567	0.7379	0.2828	-0.2563
7.45	-0.6148	-9.3394	-2.3881	0.0204	-0.0016	0.0151	34.6387	25.5435	-5.7572	-0.5567	0.7379	0.2828	-0.2563
7.46	-0.6224	-9.3296	-2.3734	0.0162	0.0035	0.0129	34.6247	25.6483	-5.7540	-0.5567	0.7379	0.2828	-0.2563
7.47	-0.6232	-9.3429	-2.3846	0.0260	-0.0051	0.0142	34.2569	25.5496	-5.6230	-0.5567	0.7379	0.2827	-0.2563
7.48	-0.6267	-9.3398	-2.3796	0.0161	-0.0053	0.0182	34.2434	25.4474	-5.8002	-0.5566	0.7378	0.2827	-0.2563
7.49	-0.6256	-9.3293	-2.3683	0.0267	-0.0058	0.0128	34.3938	25.4225	-5.6178	-0.5567	0.7379	0.2827	-0.2564
7.5	-0.6268	-9.3356	-2.3721	0.0227	-0.0007	0.0126	34.3882	25.3595	-5.4660	-0.5567	0.7379	0.2827	-0.2564
7.51	-0.6257	-9.3465	-2.3785	0.0144	-0.0023	0.0099	34.3232	25.5404	-5.5108	-0.5567	0.7379	0.2828	-0.2564
7.52	-0.6279	-9.3297	-2.3704	0.0151	-0.0038	0.0076	34.3443	25.5187	-5.5914	-0.5566	0.7379	0.2827	-0.2563
7.53	-0.6296	-9.3333	-2.3676	0.0235	-0.0029	0.0103	34.3520	25.5260	-5.5886	-0.5566	0.7379	0.2828	-0.2564
7.54	-0.6329	-9.3435	-2.3739	0.0143	-0.0023	0.0112	34.2965	25.5196	-5.6014	-0.5566	0.7379	0.2828	-0.2564
7.55	-0.6358	-9.3378	-2.3741	0.0164	0.0007	0.0105	34.2412	25.5137	-5.5217	-0.5566	0.7379	0.2828	-0.2563
7.56	-0.6303	-9.3231	-2.3634	0.0099	-0.0005	0.0090	34.2600	25.6194	-5.4860	-0.5566	0.7380	0.2828	-0.2563
7.57	-0.6314	-9.3321	-2.3646	0.0162	0.0006	0.0110	34.3976	25.5982	-5.5416	-0.5565	0.7379	0.2828	-0.2563
7.58	-0.6288	-9.3474	-2.3655	0.0206	-0.0080	0.0101	34.2023	25.6202	-5.6296	-0.5566	0.7380	0.2828	-0.2563
7.59	-0.6194	-9.3350	-2.3622	0.0149	-0.0044	0.0152	34.1637	25.5155	-5.4838	-0.5565	0.7379	0.2828	-0.2563
7.6	-0.5986	-9.3306	-2.3511	0.0203	-0.0038	0.0087	34.2780	25.5192	-5.5182	-0.5565	0.7380	0.2828	-0.2564
7.61	-0.5877	-9.3472	-2.3619	0.0205	-0.0040	0.0139	34.2773	25.5265	-5.6434	-0.5565	0.7380	0.2828	-0.2564
7.62	-0.5803	-9.3457	-2.3677	0.0177	-0.0036	0.0092	34.4036	25.5316	-5.4268	-0.5565	0.7379	0.2828	-0.2564
7.63	-0.5780	-9.3343	-2.3602	0.0188	0.0015	0.0117	34.0986	25.4248	-5.3893	-0.5565	0.7380	0.2829	-0.2564
7.64	-0.5860	-9.3407	-2.3746	0.0164	-0.0000	0.0104	34.2847	25.6987	-5.5949	-0.5565	0.7380	0.2829	-0.2563
7.65	-0.5960	-9.3421	-2.3851	0.0178	-0.0069	0.0117	34.3081	25.6291	-5.5350	-0.5565	0.7380	0.2829	-0.2564
7.66	-0.6110	-9.3302	-2.3735	0.0176	0.0022	0.0141	34.1700	25.5819	-5.4174	-0.5564	0.7379	0.2828	-0.2563
7.67	-0.6158	-9.3294	-2.3777	0.0199	-0.0026	0.0127	34.0474	25.5110	-5.5002	-0.5565	0.7380	0.2829	-0.2564
7.68	-0.6259	-9.3370	-2.3844	0.0224	-0.0004	0.0174	34.2276	25.5167	-5.4106	-0.5564	0.7380	0.2828	-0.2564
7.69	-0.6243	-9.3364	-2.3844	0.0211	-0.0009	0.0133	34.4028	25.5337	-5.3578	-0.5565	0.7380	0.2828	-0.2564
7.7	-0.6173	-9.3286	-2.3821	0.0175	0.0073	0.0123	34.2068	25.5012	-5.2328	-0.5564	0.7380	0.2828	-0.2564
7.71	-0.6117	-9.3403	-2.3797	0.0201	0.0011	0.0120	34.2875	25.5580	-5.3559	-0.5564	0.7380	0.2828	-0.2564
7.72	-0.6074	-9.3462	-2.3816	0.0164	-0.0011	0.0080	34.1830	25.6170	-5.1371	-0.5564	0.7380	0.2828	-0.2563
7.73	-0.6013	-9.3309	-2.3627	0.0150	-0.0062	0.0096	34.1520	25.5929	-5.2377	-0.5564	0.7380	0.2828	-0.2563
7.74	-0.5971	-9.3364	-2.3699	0.0147	-0.0035	0.0093	34.2792	25.6943	-5.3699	-0.5564	0.7381	0.2829	-0.2564
7.75	-0.6008	-9.3442	-2.3825	0.0177	0.0006	0.0114	34.2184	25.7024	-5.2817	-0.5564	0.7380	0.2828	-0.2563
7.76	-0.5983	-9.3343	-2.3766	0.0197	-0.0017	0.0099	34.1031	25.6115	-5.2368	-0.5564	0.7381	0.2829	-0.2564
7.77	-0.6051	-9.3294	-2.3697	0.0226	-0.0025	0.0142	34.0710	25.5975	-5.2505	-0.5563	0.7380	0.2828	-0.2563
7.78	-0.6123	-9.3423	-2.3762	0.0214	-0.0065	0.0132	34.1124	25.6982	-5.2596	-0.5564	0.7381	0.2828	-0.2564
7.79	-0.6152	-9.3499	-2.3832	0.0178	0.0006	0.0108	34.0375	25.5363	-5.2279	-0.5564	0.7381	0.2828	-0.2564
7.8	-0.6223	-9.3325	-2.3670	0.0177	-0.0042	0.0087	34.2592	25.7250	-5.3346	-0.5563	0.7380	0.2828	-0.2564
7.81	-0.6261	-9.3395	-2.3670	0.0194	-0.0006	0.0088	34.3095	25.5442	-5.3323	-0.5564	0.7381	0.2829	-0.2564
7.82	-0.6402	-9.3445	-2.3708	0.0199	-0.0034	0.0127	34.2810	25.4446	-5.1839	-0.5563	0.7380	0.2829	-0.2564
7.83	-0.6446	-9.3313	-2.3582	0.0204	-0.0047	0.0143	34.2926	25.5638	-5.1246	-0.5564	0.7381	0.2829	-0.2564
7.84	-0.6476	-9.3257	-2.3658	0.0265	-0.0033	0.0123	34.1613	25.4736	-5.2686	-0.5563	0.7380	0.2828	-0.2564
7.85	-0.6507	-9.3396	-2.3653	0.0209	-0.0034	0.0118	34.2466	25.7772	-5.2196	-0.5564	0.7381	0.2829	-0.2564
7.86	-0.6428	-9.3359	-2.3730	0.0206	-0.0034	0.0097	34.1773	25.8581	-5.1559	-0.5564	0.7380	0.2829	-0.2564
7.87	-0.6323	-9.3231	-2.3665	0.0232	-0.0052	0.0098	34.5766	25.5953	-5.1032	-0.5563	0.7380	0.2829	-0.2564
7.88	-0.6254	-9.3380	-2.3713	0.0120	-0.0052	0.0119	34.7124	25.5077	-4.8735	-0.5563	0.7380	0.2829	-0.2565
7.89	-0.6223	-9.3560	-2.3889	0.0143	0.0004	0.0071	34.4354	25.7629	-5.0873	-0.5563	0.7380	0.2829	-0.2564
7.9	-0.6201	-9.3399	-2.3801	0.0203	0.0042	0.0058	34.2011	26.3680	-5.0319	-0.5563	0.7381	0.2829	-0.2564
7.91	-0.6173	-9.3298	-2.3829	0.0202	0.0008	0.0105	33.9025	26.0869	-5.0413	-0.5563	0.7380	0.2829	-0.2564
7.92	-0.6214	-9.3482	-2.4005	0.0175	0.0042	0.0052	33.9536	25.3481	-5.1556	-0.5564	0.7381	0.2830	-0.2564
7.93	-0.6187	-9.3339	-2.3954	0.0200	0.0042	0.0059	34.1116	25.5593	-5.2802	-0.5563	0.7380	0.2829	-0.2563
7.94	-0.6145	-9.3265	-2.3856	0.0216	0.0007	0.0062	34.1244	25.6313	-5.3331	-0.5564	0.7381	0.2830	-0.2563
7.95	-0.6160	-9.3336	-2.3923	0.0203	-0.0002	0.0118	34.0497	25.6374	-5.2046	-0.5563	0.7380	0.2829	-0.2563
7.96	-0.6198	-9.3419	-2.3956	0.0204	-0.0041	0.0090	33.8815	25.7924	-5.2408	-0.5564	0.7380	0.2830	-0.2563
7.97	-0.6237	-9.3329	-2.3810	0.0229	-0.0043	0.0144	34.1358	25.7428	-5.4089	-0.5564	0.7380	0.2830	-0.2563
7.98	-0.6229	-9.3348	-2.3872	0.0240	-0.0081	0.0160	34.2912	25.4710	-5.3039	-0.5563	0.7380	0.2829	-0.2563
7.99	-0.6240	-9.3471	-2.3901	0.0222	-0.0038	0.0125	34.2971	25.2841	-5.1975	-0.5564	0.7381	0.2830	-0.2564
8	-0.6207	-9.3353	-2.3791	0.0195	-0.0031	0.0082	34.3321	25.5286	-5.2109	-0.5564	0.7380	0.2830	-0.2564
8.01	-0.6124	-9.3291	-2.3712	0.0198	-0.0046	0.0101	34.0590	25.7737	-5.2513	-0.5564	0.7381	0.2830	-0.2564
8.02	-0.6077	-9.3501	-2.3846	0.0184	-0.0033	0.0102	34.2458	25.6257	-5.1017	-0.5563	0.7380	0.2830	-0.2564
8.03	-0.5989	-9.3470	-2.3802	0.0198	-0.0045	0.0109	34.0303	25.5455	-5.3068	-0.5563	0.7380	0.2830	-0.2564
8.04	-0.5927	-9.3278	-2.3629	0.0195	-0.0021	0.0090	34.1115	25.3968	-5.2395	-0.5563	0.7380	0.2830	-0.2564
8.05	-0.5892	-9.3390	-2.3655	0.0269	-0.0072	0.0139	34.0377	25.4461	-5.2803	-0.5563	0.7379	0.2830	-0.2564
8.06	-0.5936	-9.3517	-2.3745	0.0168	-0.0006	0.0127	34.0617	25.6096	-5.4099	-0.5564	0.7380	0.2830	-0.2565
8.07	-0.5983	-9.3356	-2.3671	0.0213	-0.0010	0.0100	33.9888	25.6353	-5.2931	-0.5563	0.7380	0.2830	-0.2564
8.08	-0.6029	-9.3348	-2.3651	0.0213	0.0012	0.0118	34.0110	25.6936	-5.5334	-0.5564	0.7380	0.2830	-0.2565
8.09	-0.6077	-9.3450	-2.3777	0.0188	-0.0021	0.0108	34.0571	25.8234	-5.3703	-0.5563	0.7379	0.2830	-0.2564
8.1	-0.6098	-9.3344	-2.3761	0.0283	-0.0037	0.0168	33.9365	25.6962	-5.5435	-0.5564	0.7380	0.2830	-0.2565
8.11	-0.6136	-9.3276	-2.3716	0.0173	0.0063	0.0132	33.9664	25.7474	-5.3938	-0.5564	0.7380	0.2830	-0.2565
8.12	-0.6192	-9.3440	-2.3808	0.0197	-0.0017	0.0149	33.9544	25.6589	-5.1952	-0.5563	0.7380	0.2829	-0.2565
8.13	-0.6220	-9.3445	-2.3813	0.0179	0.0016	0.0125	33.9526	25.5338	-5.3296	-0.5564	0.7380	0.2829	-0.2565
8.14	-0.6202	-9.3272	-2.3700	0.0113	0.0013	0.0135	33.8580	25.7207	-5.4439	-0.5563	0.7380	0.2829	-0.2564
8.15	-0.6204	-9.3329	-2.3755	0.0203	-0.0061	0.0096	33.9028	25.6715	-5.3188	-0.5563	0.7381	0.2830	-0.2565
8.16	-0.6211	-9.3448	-2.3749	0.0191	-0.0093	0.0160	34.2074	25.5679	-5.3629	-0.5562	0.7380	0.2829	-0.2565
8.17	-0.6128	-9.3378	-2.3809	0.0198	-0.0058	0.0104	34.3120	25.4383	-5.7336	-0.5563	0.7380	0.2830	-0.2565
8.18	-0.5974	-9.3299	-2.3615	0.0165	-0.0035	0.0094	34.2858	25.4408	-5.7207	-0.5563	0.7380	0.2830	-0.2565
8.19	-0.5857	-9.3462	-2.3685	0.0161	-0.0053	0.0105	34.2548	25.5060	-5.5328	-0.5563	0.7380	0.2830	-0.2565
8.2	-0.5727	-9.3412	-2.3669	0.0215	-0.0051	0.0118	34.0033	25.4700	-5.6916	-0.5562	0.7380	0.2830	-0.2565
8.21	-0.5640	-9.3348	-2.3655	0.0285	-0.0026	0.0106	33.8714	25.5970	-5.6132	-0.5563	0.7380	0.2830	-0.2566
8.22	-0.5716	-9.3477	-2.3835	0.0127	-0.0016	0.0106	34.0579	25.5428	-5.5803	-0.5563	0.7380	0.2830	-0.2566
8.23	-0.5871	-9.3548	-2.3903	0.0211	0.0041	0.0130	34.0316	25.5945	-5.4734	-0.5562	0.7380	0.2830	-0.2565
8.24	-0.5939	-9.3317	-2.3850	0.0233	-0.0048	0.0164	33.9702	25.4263	-5.5182	-0.5563	0.7381	0.2830	-0.2566
8.25	-0.6079	-9.3225	-2.3753	0.0223	-0.0058	0.0108	34.0695	25.4331	-5.3869	-0.5563	0.7380	0.2830	-0.2566
8.26	-0.6189	-9.3402	-2.3936	0.0212	-0.0000	0.0100	33.9999	25.7411	-5.5487	-0.5563	0.7381	0.2830	-0.2566
8.27	-0.6184	-9.3413	-2.3972	0.0224	-0.0025	0.0032	33.8411	25.7181	-5.5827	-0.5563	0.7379	0.2830	-0.2566
8.28	-0.6194	-9.3303	-2.3935	0.0228	-0.0062	0.0120	33.9439	25.7207	-5.4972	-0.5563	0.7380	0.2830	-0.2566
8.29	-0.6099	-9.3392	-2.3969	0.0208	-0.0022	0.0075	33.8972	25.7332	-5.5791	-0.5563	0.7380	0.2831	-0.2566
8.3	-0.6045	-9.3418	-2.3925	0.0180	-0.0015	0.0089	33.6832	25.6653	-5.4170	-0.5563	0.7379	0.2830	-0.2566
8.31	-0.6015	-9.3317	-2.3808	0.0186	-0.0020	0.0068	33.8433	25.4276	-5.8358	-0.5563	0.7380	0.2831	-0.2566
8.32	-0.6009	-9.3382	-2.3826	0.0254	-0.0035	0.0087	33.9433	25.6809	-5.8055	-0.5563	0.7379	0.2831	-0.2566
8.33	-0.6071	-9.3448	-2.3903	0.0199	-0.0058	0.0066	33.9768	25.9462	-5.6956	-0.5563	0.7380	0.2831	-0.2566
8.34	-0.6123	-9.3258	-2.3784	0.0244	-0.0042	0.0104	33.9624	25.7140	-5.5580	-0.5563	0.7378	0.2831	-0.2566
8.35	-0.6187	-9.3258	-2.3701	0.0184	-0.0059	0.0153	34.1582	25.5225	-5.7023	-0.5563	0.7379	0.2831	-0.2566
8.36	-0.6224	-9.3422	-2.3754	0.0269	-0.0013	0.0114	34.1300	25.6151	-5.4142	-0.5563	0.7379	0.2831	-0.2566
8.37	-0.6217	-9.3414	-2.3689	0.0248	-0.0068	0.0178	34.3381	25.7323	-5.4545	-0.5563	0.7379	0.2831	-0.2567
8.38	-0.6307	-9.3341	-2.3574	0.0273	-0.0023	0.0170	34.5517	25.6352	-5.5215	-0.5564	0.7379	0.2831	-0.2567
8.39	-0.6347	-9.3440	-2.3702	0.0229	-0.0010	0.0221	34.1314	25.8742	-5.6605	-0.5563	0.7379	0.2830	-0.2567
8.4	-0.6327	-9.3455	-2.3720	0.0226	-0.0038	0.0113	34.0563	26.4359	-5.4827	-0.5564	0.7379	0.2830	-0.2568
8.41	-0.6344	-9.3376	-2.3711	0.0205	-0.0042	0.0101	33.8719	26.1196	-5.5952	-0.5563	0.7378	0.2830	-0.2568
8.42	-0.6372	-9.3331	-2.3707	0.0206	-0.0051	0.0129	34.0002	25.6316	-5.5739	-0.5564	0.7379	0.2831	-0.2568
8.43	-0.6349	-9.3410	-2.3773	0.0216	-0.0032	0.0098	34.0755	25.6652	-5.6569	-0.5563	0.7378	0.2831	-0.2568
8.44	-0.6284	-9.3368	-2.3797	0.0211	0.0023	0.0122	34.0545	25.4460	-5.6045	-0.5564	0.7379	0.2831	-0.2568
8.45	-0.6218	-9.3392	-2.3862	0.0217	0.0001	0.0137	34.1266	25.7685	-5.5975	-0.5564	0.7378	0.2830	-0.2568
8.46	-0.6148	-9.3381	-2.3903	0.0269	-0.0014	0.0099	33.8607	25.6288	-5.6816	-0.5564	0.7378	0.2830	-0.2568
8.47	-0.6068	-9.3376	-2.3963	0.0228	0.0030	0.0095	34.0250	25.6559	-5.5398	-0.5564	0.7378	0.2830	-0.2568
8.48	-0.5978	-9.3440	-2.3931	0.0169	0.0016	0.0132	34.0081	25.7848	-5.7031	-0.5564	0.7378	0.2830	-0.2568
8.49	-0.5996	-9.3397	-2.3866	0.0253	0.0081	0.0123	34.0307	25.7795	-5.5742	-0.5565	0.7379	0.2830	-0.2568
8.5	-0.6010	-9.3329	-2.3850	0.0205	0.0025	0.0085	34.1250	25.7766	-5.5967	-0.5564	0.7378	0.2830	-0.2567
8.51	-0.6014	-9.3328	-2.3858	0.0230	0.0072	0.0147	34.0424	25.8083	-5.6352	-0.5565	0.7379	0.2830	-0.2567
8.52	-0.6074	-9.3430	-2.3918	0.0263	-0.0017	0.0130	33.9215	25.6720	-5.8982	-0.5564	0.7378	0.2829	-0.2567
8.53	-0.6124	-9.3458	-2.3867	0.0306	-0.0065	0.0177	34.0710	25.7378	-5.5877	-0.5565	0.7378	0.2829	-0.2568
8.54	-0.6101	-9.3398	-2.3751	0.0186	-0.0014	0.0134	34.1026	25.7782	-5.6497	-0.5565	0.7378	0.2829	-0.2568
8.55	-0.6074	-9.3352	-2.3663	0.0240	-0.0046	0.0104	34.1118	25.8643	-5.6995	-0.5565	0.7377	0.2829	-0.2568
8.56	-0.6067	-9.3389	-2.3635	0.0251	-0.0019	0.0109	33.9906	25.8584	-5.6778	-0.5566	0.7378	0.2829	-0.2568
8.57	-0.6072	-9.3423	-2.3606	0.0202	-0.0040	0.0144	33.9464	25.7682	-5.5456	-0.5565	0.7378	0.2829	-0.2568
8.58	-0.6032	-9.3381	-2.3595	0.0274	-0.0055	0.0139	34.0674	25.7749	-5.4766	-0.5566	0.7378	0.2829	-0.2569
8.59	-0.6049	-9.3459	-2.3593	0.0248	-0.0017	0.0105	33.8843	25.8716	-5.5996	-0.5565	0.7377	0.2828	-0.2569
8.6	-0.6025	-9.3400	-2.3689	0.0241	-0.0049	0.0109	34.2065	25.8428	-5.8194	-0.5566	0.7377	0.2829	-0.2569
8.61	-0.6036	-9.3332	-2.3578	0.0254	-0.0029	0.0107	34.0777	25.6291	-5.6992	-0.5566	0.7377	0.2829	-0.2569
8.62	-0.5998	-9.3395	-2.3577	0.0292	-0.0042	0.0099	33.9937	25.8055	-5.6782	-0.5566	0.7376	0.2829	-0.2569
8.63	-0.5944	-9.3437	-2.3606	0.0235	-0.0017	0.0118	34.0175	25.7547	-5.6885	-0.5566	0.7377	0.2829	-0.2570
8.64	-0.5936	-9.3373	-2.3613	0.0250	-0.0047	0.0100	34.0367	25.7060	-5.5449	-0.5566	0.7376	0.2829	-0.2570
8.65	-0.5949	-9.3364	-2.3574	0.0285	0.0002	0.0104	33.9366	25.8499	-5.6866	-0.5567	0.7376	0.2829	-0.2570
8.66	-0.5978	-9.3428	-2.3599	0.0219	0.0006	0.0058	34.0152	25.8963	-5.6045	-0.5567	0.7375	0.2829	-0.2569
8.67	-0.6028	-9.3407	-2.3697	0.0248	0.0012	0.0113	34.0966	25.6013	-5.5708	-0.5567	0.7376	0.2829	-0.2570
8.68	-0.6125	-9.3325	-2.3612	0.0234	-0.0003	0.0122	34.0002	25.4169	-5.7613	-0.5567	0.7376	0.2829	-0.2569
8.69	-0.6221	-9.3380	-2.3730	0.0247	0.0005	0.0085	34.0271	25.7027	-5.7400	-0.5568	0.7376	0.2829	-0.2570
8.7	-0.6290	-9.3336	-2.3749	0.0247	0.0047	0.0123	33.9641	25.8049	-5.8942	-0.5568	0.7375	0.2828	-0.2569
8.71	-0.6323	-9.3281	-2.3671	0.0266	-0.0004	0.0139	33.9964	25.3988	-5.9091	-0.5568	0.7375	0.2828	-0.2569
8.72	-0.6358	-9.3397	-2.3651	0.0305	-0.0047	0.0185	33.9708	25.7911	-5.8576	-0.5568	0.7375	0.2828	-0.2570
8.73	-0.6448	-9.3456	-2.3727	0.0256	-0.0000	0.0134	34.1065	25.9045	-5.7774	-0.5568	0.7374	0.2827	-0.2570
8.74	-0.6432	-9.3324	-2.3649	0.0209	-0.0012	0.0084	34.0371	25.6623	-5.6729	-0.5569	0.7375	0.2828	-0.2570
8.75	-0.6367	-9.3246	-2.3551	0.0247	-0.0037	0.0111	34.0613	25.6930	-5.6475	-0.5569	0.7375	0.2828	-0.2570
8.76	-0.6295	-9.3517	-2.3708	0.0181	-0.0054	0.0125	33.8650	25.5602	-5.8199	-0.5569	0.7375	0.2828	-0.2571
8.77	-0.6162	-9.3473	-2.3627	0.0236	-0.0029	0.0104	34.1566	25.8173	-5.9566	-0.5568	0.7374	0.2828	-0.2570
8.78	-0.5998	-9.3325	-2.3499	0.0227	-0.0046	0.0110	34.0569	25.7606	-5.8371	-0.5569	0.7375	0.2828	-0.2571
8.79	-0.5928	-9.3429	-2.3609	0.0150	0.0029	0.0118	34.1762	25.8123	-5.8234	-0.5569	0.7375	0.2828	-0.2570
8.8	-0.5922	-9.3446	-2.3735	0.0237	0.0037	0.0139	34.1713	25.7049	-5.6672	-0.5569	0.7374	0.2827	-0.2570
8.81	-0.5989	-9.3322	-2.3664	0.0233	0.0041	0.0087	34.2027	25.6126	-5.6623	-0.5570	0.7375	0.2828	-0.2570
8.82	-0.6084	-9.3376	-2.3758	0.0208	0.0025	0.0133	34.1232	25.6161	-5.5680	-0.5569	0.7375	0.2827	-0.2570
8.83	-0.6209	-9.3495	-2.3920	0.0206	0.0033	0.0073	33.9130	25.6573	-5.5866	-0.5570	0.7375	0.2827	-0.2570
8.84	-0.6286	-9.3280	-2.3825	0.0166	0.0009	0.0080	33.9422	25.7393	-5.6793	-0.5569	0.7374	0.2827	-0.2569
8.85	-0.6292	-9.3236	-2.3870	0.0191	-0.0011	0.0118	34.0420	25.5304	-5.7860	-0.5569	0.7375	0.2827	-0.2570
8.86	-0.6257	-9.3433	-2.3983	0.0175	-0.0003	0.0109	34.1501	25.6432	-5.7294	-0.5569	0.7375	0.2827	-0.2570
8.87	-0.6192	-9.3398	-2.4001	0.0272	0.0007	0.0127	34.2729	26.0090	-5.5203	-0.5569	0.7375	0.2827	-0.2570
8.88	-0.6070	-9.3285	-2.3878	0.0233	0.0070	0.0124	34.6326	25.6429	-5.4147	-0.5570	0.7375	0.2827	-0.2569
8.89	-0.6080	-9.3326	-2.3872	0.0189	-0.0026	0.0111	34.3445	25.8696	-5.3230	-0.5570	0.7375	0.2827	-0.2569
8.9	-0.6044	-9.3469	-2.3886	0.0295	-0.0102	0.0175	34.0689	26.4456	-5.5971	-0.5570	0.7375	0.2827	-0.2570
8.91	-0.6048	-9.3411	-2.3816	0.0246	-0.0042	0.0105	34.2546	26.1132	-5.7465	-0.5569	0.7374	0.2827	-0.2570
8.92	-0.6058	-9.3395	-2.3755	0.0254	-0.0066	0.0122	34.1593	25.3099	-5.9721	-0.5570	0.7374	0.2827	-0.2571
8.93	-0.6095	-9.3479	-2.3864	0.0254	-0.0107	0.0181	34.2181	25.4687	-5.8351	-0.5570	0.7374	0.2827	-0.2571
8.94	-0.6133	-9.3356	-2.3768	0.0278	-0.0037	0.0187	34.3573	25.5259	-5.6278	-0.5570	0.7374	0.2827	-0.2572
8.95	-0.6176	-9.3330	-2.3590	0.0286	-0.0040	0.0190	34.2472	25.6867	-5.6758	-0.5570	0.7373	0.2826	-0.2572
8.96	-0.6193	-9.3534	-2.3702	0.0235	-0.0037	0.0142	34.0482	25.5736	-5.7567	-0.5570	0.7373	0.2826	-0.2572
8.97	-0.6180	-9.3507	-2.3697	0.0284	-0.0065	0.0098	33.9812	25.6143	-5.5658	-0.5571	0.7373	0.2826	-0.2573
8.98	-0.6188	-9.3338	-2.3575	0.0227	0.0055	0.0165	34.1577	25.9414	-5.6569	-0.5570	0.7373	0.2826	-0.2572
8.99	-0.6226	-9.3308	-2.3484	0.0262	0.0033	0.0170	34.3840	25.6693	-5.7892	-0.5571	0.7374	0.2826	-0.2573
9	-0.6264	-9.3466	-2.3572	0.0229	-0.0016	0.0148	34.2995	25.6488	-5.5498	-0.5571	0.7373	0.2825	-0.2573
9.01	-0.6310	-9.3427	-2.3604	0.0272	0.0032	0.0084	33.9515	25.6268	-5.7120	-0.5572	0.7373	0.2825	-0.2573
9.02	-0.6268	-9.3275	-2.3541	0.0220	-0.0006	0.0106	33.9356	25.7313	-5.8795	-0.5571	0.7372	0.2825	-0.2572
9.03	-0.6240	-9.3388	-2.3676	0.0232	0.0019	0.0083	34.0432	25.8254	-5.5863	-0.5572	0.7373	0.2825	-0.2572
9.04	-0.6189	-9.3397	-2.3762	0.0235	-0.0019	0.0105	33.8327	25.7847	-5.5953	-0.5572	0.7373	0.2825	-0.2572
9.05	-0.6098	-9.3289	-2.3677	0.0235	-0.0021	0.0118	33.9374	25.8577	-5.5673	-0.5572	0.7372	0.2825	-0.2572
9.06	-0.6015	-9.3424	-2.3798	0.0224	0.0006	0.0070	33.9392	26.0170	-5.6168	-0.5573	0.7373	0.2825	-0.2573
9.07	-0.5986	-9.3454	-2.3948	0.0156	0.0005	0.0093	33.8210	25.8889	-5.5336	-0.5572	0.7372	0.2825	-0.2572
9.08	-0.5959	-9.3381	-2.3905	0.0224	-0.0005	0.0131	33.9230	25.9580	-5.5366	-0.5573	0.7373	0.2825	-0.2572
9.09	-0.6004	-9.3363	-2.3929	0.0222	-0.0044	0.0165	34.0106	25.8994	-5.7171	-0.5572	0.7372	0.2825	-0.2572
9.1	-0.6065	-9.3511	-2.4088	0.0244	0.0037	0.0104	34.2388	25.6844	-5.5126	-0.5573	0.7372	0.2825	-0.2572
9.11	-0.6126	-9.3380	-2.4097	0.0261	-0.0040	0.0103	34.2321	25.5970	-5.6588	-0.5573	0.7372	0.2825	-0.2573
9.12	-0.6083	-9.3252	-2.4004	0.0199	0.0023	0.0103	34.0875	25.8096	-5.6429	-0.5573	0.7372	0.2825	-0.2572
9.13	-0.6062	-9.3400	-2.4052	0.0256	0.0021	0.0134	34.1036	25.7083	-5.8068	-0.5573	0.7372	0.2825	-0.2572
9.14	-0.6077	-9.3427	-2.4051	0.0289	0.0015	0.0133	34.2405	25.5191	-5.7771	-0.5573	0.7372	0.2824	-0.2572
9.15	-0.6006	-9.3235	-2.3905	0.0276	-0.0016	0.0166	34.2405	25.7872	-5.6187	-0.5574	0.7372	0.2824	-0.2573
9.16	-0.6032	-9.3361	-2.3971	0.0220	-0.0015	0.0098	33.9922	25.9025	-5.7060	-0.5573	0.7371	0.2824	-0.2573
9.17	-0.6017	-9.3535	-2.3975	0.0265	-0.0081	0.0131	34.0216	25.7605	-5.5465	-0.5574	0.7372	0.2824	-0.2573
9.18	-0.6005	-9.3404	-2.3870	0.0253	-0.0009	0.0134	34.1600	25.7368	-5.6074	-0.5574	0.7371	0.2824	-0.2573
9.19	-0.6046	-9.3274	-2.3798	0.0246	-0.0001	0.0140	34.1805	25.9098	-5.5468	-0.5574	0.7371	0.2824	-0.2573
9.2	-0.6068	-9.3436	-2.3835	0.0249	-0.0063	0.0118	34.1763	25.8781	-5.7073	-0.5574	0.7371	0.2824	-0.2574
9.21	-0.6070	-9.3434	-2.3796	0.0239	0.0059	0.0078	34.0586	26.0228	-5.4972	-0.5575	0.7371	0.2824	-0.2573
9.22	-0.6094	-9.3294	-2.3662	0.0247	0.0000	0.0116	33.9705	26.0536	-5.5839	-0.5575	0.7371	0.2824	-0.2573
9.23	-0.6120	-9.3393	-2.3656	0.0215	0.0051	0.0131	33.8224	26.0452	-5.5065	-0.5574	0.7370	0.2823	-0.2573
9.24	-0.6110	-9.3473	-2.3740	0.0226	0.0008	0.0103	34.0766	26.0577	-5.5172	-0.5575	0.7371	0.2823	-0.2573
9.25	-0.6148	-9.3265	-2.3623	0.0278	-0.0013	0.0084	34.0761	25.7795	-5.7537	-0.5575	0.7370	0.2823	-0.2573
9.26	-0.6131	-9.3376	-2.3639	0.0262	-0.0014	0.0075	33.9858	26.1231	-5.7850	-0.5576	0.7371	0.2823	-0.2573
9.27	-0.6151	-9.3539	-2.3797	0.0290	-0.0071	0.0131	34.0449	26.1367	-5.6644	-0.5576	0.7369	0.2823	-0.2573
9.28	-0.6152	-9.3399	-2.3678	0.0242	-0.0039	0.0185	34.0889	25.9335	-5.5854	-0.5576	0.7370	0.2823	-0.2574
9.29	-0.6223	-9.3255	-2.3610	0.0257	-0.0037	0.0104	34.3116	25.9865	-5.7365	-0.5576	0.7370	0.2823	-0.2574
9.3	-0.6256	-9.3437	-2.3763	0.0302	-0.0040	0.0130	34.3483	25.9756	-5.7892	-0.5576	0.7369	0.2823	-0.2574
9.31	-0.6334	-9.3399	-2.3796	0.0270	-0.0016	0.0076	34.2575	25.9607	-5.6106	-0.5577	0.7370	0.2823	-0.2575
9.32	-0.6323	-9.3244	-2.3631	0.0295	-0.0017	0.0122	34.3415	25.8845	-5.4905	-0.5577	0.7369	0.2823	-0.2575
9.33	-0.6370	-9.3334	-2.3622	0.0295	-0.0057	0.0112	34.1710	25.8715	-5.6619	-0.5578	0.7369	0.2823	-0.2575
9.34	-0.6370	-9.3417	-2.3701	0.0218	-0.0005	0.0135	34.1054	25.9954	-5.7739	-0.5577	0.7368	0.2823	-0.2575
9.35	-0.6277	-9.3330	-2.3564	0.0287	0.0009	0.0098	34.1966	25.8137	-5.9524	-0.5578	0.7368	0.2823	-0.2575
9.36	-0.6171	-9.3315	-2.3593	0.0203	-0.0033	0.0042	34.1770	25.8851	-5.6080	-0.5578	0.7368	0.2823	-0.2575
9.37	-0.6039	-9.3574	-2.3836	0.0182	0.0003	0.0142	34.4672	26.0856	-5.5137	-0.5578	0.7368	0.2823	-0.2575
9.38	-0.6000	-9.3430	-2.3785	0.0253	0.0027	0.0105	34.6732	25.9533	-5.3214	-0.5578	0.7368	0.2823	-0.2575
9.39	-0.5917	-9.3256	-2.3721	0.0256	-0.0022	0.0127	34.2802	26.2364	-5.3496	-0.5578	0.7368	0.2823	-0.2575
9.4	-0.6010	-9.3456	-2.3870	0.0288	0.0022	0.0106	34.1836	26.6876	-5.5609	-0.5579	0.7368	0.2823	-0.2575
9.41	-0.6028	-9.3520	-2.3948	0.0280	0.0028	0.0130	33.9849	26.7671	-5.6076	-0.5579	0.7367	0.2822	-0.2575
9.42	-0.6085	-9.3284	-2.3899	0.0284	-0.0002	0.0092	33.9638	26.0438	-5.6311	-0.5580	0.7368	0.2822	-0.2575
9.43	-0.6149	-9.3193	-2.3825	0.0279	-0.0018	0.0125	34.2070	26.1475	-5.6829	-0.5580	0.7367	0.2822	-0.2575
9.44	-0.6196	-9.3521	-2.3977	0.0317	0.0038	0.0223	33.9387	26.0691	-5.4954	-0.5580	0.7367	0.2821	-0.2575
9.45	-0.6259	-9.3450	-2.3914	0.0265	0.0011	0.0174	33.9627	26.2268	-5.5318	-0.5580	0.7367	0.2821	-0.2576
9.46	-0.6217	-9.3292	-2.3760	0.0271	0.0056	0.0176	34.0492	26.0321	-5.6267	-0.5580	0.7367	0.2820	-0.2576
9.47	-0.6285	-9.3458	-2.3889	0.0297	0.0023	0.0176	34.0505	26.0861	-5.5640	-0.5581	0.7367	0.2820	-0.2576
9.48	-0.6231	-9.3494	-2.3881	0.0301	-0.0040	0.0207	34.2950	26.1093	-5.7081	-0.5581	0.7366	0.2819	-0.2576
9.49	-0.6227	-9.3274	-2.3719	0.0296	-0.0012	0.0237	34.2663	26.3231	-5.5614	-0.5582	0.7367	0.2819	-0.2577
9.5	-0.6187	-9.3346	-2.3619	0.0299	0.0070	0.0218	34.1612	26.2060	-5.6770	-0.5582	0.7366	0.2818	-0.2577
9.51	-0.6158	-9.3528	-2.3715	0.0308	-0.0067	0.0213	34.2890	26.0126	-5.6162	-0.5582	0.7367	0.2818	-0.2578
9.52	-0.6236	-9.3281	-2.3530	0.0296	0.0034	0.0221	34.2001	26.0384	-5.5819	-0.5582	0.7366	0.2817	-0.2578
9.53	-0.6268	-9.3258	-2.3459	0.0295	-0.0035	0.0167	34.0818	26.1414	-5.8330	-0.5582	0.7366	0.2817	-0.2578
9.54	-0.6319	-9.3461	-2.3587	0.0295	-0.0002	0.0160	34.1563	26.4286	-5.5596	-0.5583	0.7366	0.2817	-0.2578
9.55	-0.6356	-9.3494	-2.3628	0.0288	0.0029	0.0180	34.0097	26.3905	-5.7264	-0.5583	0.7365	0.2816	-0.2578
9.56	-0.6384	-9.3360	-2.3484	0.0246	-0.0023	0.0177	34.0815	26.1377	-5.6486	-0.5584	0.7366	0.2816	-0.2579
9.57	-0.6435	-9.3365	-2.3549	0.0266	-0.0036	0.0149	34.2138	26.1222	-5.6384	-0.5583	0.7365	0.2816	-0.2579
9.58	-0.6505	-9.3486	-2.3577	0.0274	-0.0025	0.0052	34.0346	26.0918	-5.6689	-0.5584	0.7365	0.2816	-0.2579
9.59	-0.6427	-9.3303	-2.3516	0.0308	-0.0044	0.0135	34.0214	26.1970	-5.4035	-0.5583	0.7364	0.2816	-0.2579
9.6	-0.6397	-9.3243	-2.3518	0.0252	-0.0041	0.0120	34.0636	26.2823	-5.5316	-0.5584	0.7365	0.2816	-0.2580
9.61	-0.6339	-9.3427	-2.3714	0.0286	0.0004	0.0078	34.2574	26.1374	-5.5436	-0.5584	0.7364	0.2816	-0.2580
9.62	-0.6268	-9.3398	-2.3693	0.0272	-0.0025	0.0104	34.0910	26.3001	-5.6404	-0.5585	0.7364	0.2816	-0.2580
9.63	-0.6186	-9.3322	-2.3638	0.0281	-0.0024	0.0077	34.2207	26.1599	-5.4823	-0.5585	0.7364	0.2816	-0.2580
9.64	-0.6167	-9.3380	-2.3679	0.0220	0.0044	0.0095	34.0481	26.2335	-5.6733	-0.5585	0.7364	0.2816	-0.2579
9.65	-0.6164	-9.3545	-2.3768	0.0263	-0.0012	0.0115	34.0677	26.2840	-5.4947	-0.5586	0.7364	0.2816	-0.2580
9.66	-0.6138	-9.3426	-2.3716	0.0302	-0.0090	0.0181	34.2212	26.2753	-5.6149	-0.5585	0.7363	0.2815	-0.2580
9.67	-0.6147	-9.3291	-2.3615	0.0244	-0.0036	0.0138	34.2746	26.3776	-5.7887	-0.5586	0.7363	0.2816	-0.2580
9.68	-0.6226	-9.3399	-2.3780	0.0276	0.0002	0.0079	34.3164	26.3640	-5.6584	-0.5586	0.7363	0.2815	-0.2580
9.69	-0.6209	-9.3420	-2.3772	0.0238	-0.0006	0.0104	34.3889	26.0866	-5.6967	-0.5586	0.7363	0.2816	-0.2580
9.7	-0.6209	-9.3312	-2.3686	0.0263	0.0001	0.0106	34.2639	26.2359	-5.6000	-0.5586	0.7362	0.2815	-0.2580
9.71	-0.6234	-9.3418	-2.3737	0.0209	-0.0057	0.0087	34.1658	26.2209	-5.6920	-0.5587	0.7362	0.2816	-0.2580
9.72	-0.6278	-9.3427	-2.3720	0.0241	-0.0042	0.0110	34.0903	26.1047	-5.5413	-0.5587	0.7362	0.2816	-0.2581
9.73	-0.6270	-9.3364	-2.3677	0.0212	-0.0073	0.0133	34.1480	26.3020	-5.7215	-0.5586	0.7362	0.2816	-0.2581
9.74	-0.6239	-9.3389	-2.3599	0.0272	-0.0029	0.0103	33.9855	26.3676	-5.6738	-0.5587	0.7362	0.2816	-0.2581
9.75	-0.6200	-9.3411	-2.3734	0.0200	-0.0014	0.0081	34.0000	26.3308	-5.7349	-0.5587	0.7362	0.2816	-0.2581
9.76	-0.6153	-9.3410	-2.3669	0.0133	-0.0003	0.0076	34.2831	26.2389	-5.5899	-0.5587	0.7363	0.2816	-0.2581
9.77	-0.6134	-9.3338	-2.3609	0.0116	-0.0049	0.0066	34.2885	26.3942	-5.6437	-0.5586	0.7362	0.2816	-0.2580
9.78	-0.6094	-9.3392	-2.3625	0.0185	-0.0043	0.0122	34.1271	26.3270	-5.4048	-0.5586	0.7362	0.2817	-0.2581
9.79	-0.6094	-9.3442	-2.3684	0.0169	-0.0032	0.0044	34.1516	26.4202	-5.4135	-0.5586	0.7362	0.2817	-0.2581
9.8	-0.6051	-9.3339	-2.3634	0.0240	-0.0056	0.0081	34.2133	26.4476	-5.6476	-0.5586	0.7361	0.2817	-0.2580
9.81	-0.6104	-9.3376	-2.3616	0.0283	-0.0024	0.0083	34.1889	26.4575	-5.6029	-0.5587	0.7362	0.2817	-0.2581
9.82	-0.6130	-9.3536	-2.3693	0.0296	-0.0036	0.0099	34.1946	26.4081	-5.5903	-0.5587	0.7361	0.2817	-0.2581
9.83	-0.6148	-9.3450	-2.3699	0.0276	-0.0029	0.0096	34.2177	26.3380	-5.6959	-0.5588	0.7361	0.2817	-0.2581
9.84	-0.6216	-9.3303	-2.3667	0.0312	-0.0049	0.0117	34.0948	26.3765	-5.5927	-0.5587	0.7360	0.2817	-0.2581
9.85	-0.6286	-9.3404	-2.3694	0.0300	-0.0074	0.0144	34.2389	26.1295	-5.6286	-0.5588	0.7360	0.2817	-0.2582
9.86	-0.6353	-9.3450	-2.3631	0.0286	-0.0045	0.0090	34.2981	26.1024	-5.6682	-0.5588	0.7360	0.2817	-0.2582
9.87	-0.6380	-9.3327	-2.3623	0.0247	-0.0004	0.0138	34.5459	26.1747	-5.4963	-0.5588	0.7360	0.2817	-0.2582
9.88	-0.6429	-9.3414	-2.3697	0.0267	-0.0055	0.0116	34.9558	26.2154	-5.4358	-0.5589	0.7360	0.2817	-0.2582
9.89	-0.6400	-9.3427	-2.3629	0.0243	-0.0081	0.0197	34.3561	26.3902	-5.3446	-0.5588	0.7359	0.2817	-0.2583
9.9	-0.6326	-9.3358	-2.3586	0.0192	-0.0059	0.0129	34.1859	26.7778	-5.5280	-0.5589	0.7360	0.2817	-0.2583
9.91	-0.6240	-9.3341	-2.3441	0.0239	-0.0061	0.0126	33.9743	26.6837	-5.7041	-0.5588	0.7359	0.2817	-0.2583
9.92	-0.6199	-9.3506	-2.3444	0.0269	-0.0019	0.0165	34.1476	26.1335	-5.6445	-0.5589	0.7360	0.2817	-0.2583
9.93	-0.6082	-9.3463	-2.3450	0.0253	-0.0027	0.0112	34.0680	26.2557	-5.7544	-0.5589	0.7359	0.2817	-0.2584
9.94	-0.5983	-9.3381	-2.3481	0.0260	0.0012	0.0105	34.2569	26.2575	-5.6930	-0.5589	0.7359	0.2817	-0.2584
9.95	-0.6004	-9.3393	-2.3449	0.0251	0.0021	0.0133	34.2824	26.4458	-5.6921	-0.5589	0.7359	0.2817	-0.2583
9.96	-0.6101	-9.3479	-2.3534	0.0256	0.0035	0.0086	34.0358	26.2109	-5.6386	-0.5590	0.7359	0.2816	-0.2583
9.97	-0.6175	-9.3409	-2.3540	0.0272	0.0047	0.0064	34.0177	26.3145	-5.6223	-0.5590	0.7359	0.2816	-0.2583
9.98	-0.6288	-9.3204	-2.3524	0.0293	0.0013	0.0128	34.1087	26.5085	-5.7863	-0.5590	0.7358	0.2816	-0.2583
9.99	-0.6334	-9.3359	-2.3745	0.0237	0.0007	0.0091	34.0315	26.3475	-5.8907	-0.5591	0.7359	0.2816	-0.2583
10	-0.6367	-9.3438	-2.3749	0.0267	0.0018	0.0137	33.9019	26.5600	-5.8131	-0.5591	0.7358	0.2816	-0.2583
10.01	-0.6377	-9.3340	-2.3736	0.0199	0.0032	0.0063	34.0493	26.2809	-5.7747	-0.5591	0.7359	0.2816	-0.2583
10.02	-0.6325	-9.3342	-2.3717	0.0158	-0.0031	0.0101	34.0016	26.4287	-5.6711	-0.5591	0.7358	0.2816	-0.2583
10.03	-0.6292	-9.3443	-2.3735	0.0211	-0.0110	0.0131	33.9840	26.3068	-5.6036	-0.5591	0.7358	0.2816	-0.2583
10.04	-0.6247	-9.3365	-2.3675	0.0247	-0.0045	0.0149	34.5056	26.2617	-5.8911	-0.5591	0.7358	0.2816	-0.2583
10.05	-0.6281	-9.3362	-2.3728	0.0202	-0.0014	0.0117	34.2679	26.2793	-5.7544	-0.5590	0.7357	0.2816	-0.2583
10.06	-0.6238	-9.3513	-2.3779	0.0204	-0.0054	0.0116	34.1895	26.1030	-5.7592	-0.5591	0.7358	0.2817	-0.2584
10.07	-0.6227	-9.3516	-2.3781	0.0265	-0.0109	0.0129	34.3174	26.4384	-5.7810	-0.5591	0.7357	0.2816	-0.2584
10.08	-0.6198	-9.3331	-2.3610	0.0272	-0.0055	0.0131	34.1936	26.0703	-5.7163	-0.5591	0.7358	0.2817	-0.2584
10.09	-0.6234	-9.3368	-2.3542	0.0275	-0.0041	0.0166	34.1955	26.0573	-5.5624	-0.5591	0.7357	0.2816	-0.2584
10.1	-0.6281	-9.3443	-2.3650	0.0258	-0.0050	0.0116	34.1742	26.1449	-5.6107	-0.5591	0.7357	0.2816	-0.2585
10.11	-0.6327	-9.3371	-2.3594	0.0207	-0.0037	0.0126	34.2510	25.8739	-5.7234	-0.5591	0.7357	0.2816	-0.2585
10.12	-0.6387	-9.3334	-2.3498	0.0208	-0.0037	0.0181	34.2400	26.2215	-5.8098	-0.5591	0.7357	0.2816	-0.2585
10.13	-0.6427	-9.3501	-2.3580	0.0206	-0.0006	0.0116	33.9644	26.3941	-5.5304	-0.5591	0.7357	0.2816	-0.2585
10.14	-0.6452	-9.3480	-2.3551	0.0239	0.0019	0.0193	34.0888	26.4024	-5.5645	-0.5591	0.7357	0.2816	-0.2585
10.15	-0.6440	-9.3307	-2.3502	0.0131	0.0028	0.0136	34.2830	26.3325	-5.7459	-0.5591	0.7358	0.2816	-0.2585
10.16	-0.6409	-9.3356	-2.3505	0.0240	0.0066	0.0130	34.2017	26.2917	-5.5561	-0.5591	0.7357	0.2815	-0.2585
10.17	-0.6416	-9.3441	-2.3587	0.0225	-0.0008	0.0126	34.0657	26.4170	-5.7350	-0.5592	0.7358	0.2815	-0.2585
10.18	-0.6359	-9.3388	-2.3566	0.0187	-0.0014	0.0143	34.0392	26.3746	-5.6211	-0.5591	0.7357	0.2815	-0.2585
10.19	-0.6287	-9.3313	-2.3458	0.0210	-0.0055	0.0140	33.9514	26.4016	-5.6034	-0.5591	0.7357	0.2815	-0.2585
10.2	-0.6192	-9.3492	-2.3595	0.0189	0.0137	0.0138	33.9402	26.3852	-5.5162	-0.5591	0.7357	0.2815	-0.2585
10.21	-0.6105	-9.3513	-2.3539	0.0207	0.0091	0.0205	34.1499	26.1570	-5.3639	-0.5591	0.7358	0.2814	-0.2585
10.22	-0.6094	-9.3463	-2.3570	0.0179	0.0113	0.0242	34.0801	26.1722	-5.5181	-0.5591	0.7358	0.2814	-0.2585
10.23	-0.6205	-9.3373	-2.3664	0.0187	0.0137	0.0251	34.4767	26.2886	-5.7696	-0.5591	0.7358	0.2812	-0.2584
10.24	-0.6137	-9.3577	-2.3721	0.0054	0.0153	0.0258	34.3089	26.0577	-5.8651	-0.5591	0.7360	0.2812	-0.2584
10.25	-0.6230	-9.3193	-2.3632	0.0055	0.0199	0.0267	34.1630	26.0302	-5.8100	-0.5590	0.7360	0.2811	-0.2583
10.26	-0.6380	-9.3430	-2.3867	0.0150	0.0226	0.0263	34.2168	26.2540	-5.6940	-0.5591	0.7362	0.2810	-0.2583
10.27	-0.6022	-9.3226	-2.3245	0.0209	0.0188	0.0227	34.1693	26.1533	-5.5728	-0.5590	0.7361	0.2809	-0.2582
10.28	-0.6639	-9.3721	-2.4434	0.0167	0.0250	0.0286	34.2138	25.9738	-5.8410	-0.5590	0.7362	0.2808	-0.2582
10.29	-0.5519	-9.1948	-2.1468	0.0032	0.0222	0.0194	34.1717	26.1037	-5.8132	-0.5590	0.7363	0.2807	-0.2581
10.3	-0.5803	-9.3879	-2.3895	-0.0772	0.0801	0.0256	34.2655	26.0879	-5.6689	-0.5587	0.7366	0.2805	-0.2577
10.31	-0.7673	-9.4260	-2.6162	-0.0185	0.0424	0.0341	34.3652	26.0681	-5.5748	-0.5587	0.7369	0.2804	-0.2576
10.32	-0.6060	-9.3077	-2.3222	0.0233	0.0067	0.0226	34.3357	26.2925	-5.4493	-0.5586	0.7369	0.2803	-0.2575
10.33	-0.6381	-9.3593	-2.4127	0.0105	0.0194	0.0219	34.1632	26.1947	-5.5952	-0.5587	0.7370	0.2802	-0.2575
10.34	-0.6359	-9.3173	-2.3648	0.0152	0.0072	0.0246	34.2956	26.2532	-5.4992	-0.5586	0.7370	0.2801	-0.2575
10.35	-0.6313	-9.3369	-2.3900	0.0091	0.0190	0.0202	34.2001	26.3107	-5.3949	-0.5586	0.7371	0.2801	-0.2574
10.36	-0.6568	-9.2920	-2.3666	0.0155	0.0121	0.0239	34.2735	26.3140	-5.4112	-0.5586	0.7371	0.2800	-0.2574
10.37	-0.5649	-9.2759	-2.2419	-0.0155	0.0329	0.0107	34.6121	26.3193	-5.1446	-0.5585	0.7372	0.2800	-0.2572
10.38	-0.6788	-9.4104	-2.5182	-0.0365	0.0655	0.0204	34.6173	26.1212	-4.9947	-0.5584	0.7375	0.2798	-0.2569
10.39	-0.6592	-9.3007	-2.3992	0.0049	0.0195	0.0225	34.5647	26.1955	-5.0594	-0.5583	0.7376	0.2797	-0.2568
10.4	-0.6251	-9.3270	-2.3688	-0.0035	0.0292	0.0158	34.4051	26.8271	-5.2691	-0.5583	0.7377	0.2797	-0.2567
10.41	-0.7050	-9.3178	-2.4417	-0.0018	0.0219	0.0225	34.1824	26.6967	-5.4408	-0.5582	0.7378	0.2796	-0.2566
10.42	-0.6851	-9.3278	-2.4140	-0.0005	0.0123	0.0081	34.2501	25.9702	-5.2275	-0.5582	0.7379	0.2796	-0.2565
10.43	-0.6921	-9.3333	-2.4225	0.0006	-0.0037	0.0020	34.3585	26.0840	-5.3759	-0.5581	0.7379	0.2796	-0.2565
10.44	-0.6952	-9.3301	-2.4113	0.0070	-0.0083	-0.0009	34.2342	25.9947	-5.2643	-0.5580	0.7380	0.2797	-0.2565
10.45	-0.6961	-9.3205	-2.4184	0.0059	-0.0075	-0.0068	34.2164	26.1584	-5.1309	-0.5580	0.7379	0.2798	-0.2564
10.46	-0.6811	-9.3227	-2.4140	-0.0019	-0.0204	-0.0122	34.3535	26.1890	-5.2169	-0.5579	0.7380	0.2800	-0.2564
10.47	-0.6650	-9.3333	-2.4186	0.0107	-0.0268	-0.0097	34.4153	26.0883	-5.3904	-0.5579	0.7380	0.2802	-0.2564
10.48	-0.6326	-9.3441	-2.4109	0.0160	-0.0169	-0.0114	34.3299	26.2133	-5.2217	-0.5578	0.7378	0.2803	-0.2564
10.49	-0.6030	-9.3384	-2.4077	0.0270	-0.0146	-0.0058	34.1035	26.1977	-5.2713	-0.5579	0.7379	0.2804	-0.2564
10.5	-0.5945	-9.3357	-2.4115	0.0222	-0.0133	-0.0015	34.2157	26.2119	-5.2183	-0.5579	0.7378	0.2805	-0.2564
10.51	-0.5917	-9.3471	-2.4204	0.0221	-0.0032	-0.0030	34.1892	26.4025	-5.0995	-0.5580	0.7378	0.2806	-0.2564
10.52	-0.5984	-9.3387	-2.4194	0.0255	-0.0029	0.0006	34.0364	26.2531	-4.9860	-0.5579	0.7377	0.2806	-0.2563
10.53	-0.6120	-9.3256	-2.4085	0.0223	-0.0032	0.0061	34.0859	26.2172	-5.1201	-0.5580	0.7377	0.2806	-0.2563
10.54	-0.6269	-9.3328	-2.4222	0.0225	-0.0002	0.0080	34.0539	26.2982	-5.2083	-0.5580	0.7377	0.2806	-0.2563
10.55	-0.6372	-9.3251	-2.4205	0.0267	-0.0031	0.0100	34.1383	26.3332	-5.0675	-0.5580	0.7376	0.2806	-0.2563
10.56	-0.6407	-9.3162	-2.4167	0.0304	0.0003	0.0079	34.1629	26.4907	-5.0986	-0.5581	0.7377	0.2806	-0.2564
10.57	-0.6387	-9.3292	-2.4173	0.0290	-0.0026	0.0096	34.1349	26.2720	-5.1928	-0.5581	0.7376	0.2806	-0.2563
10.58	-0.6386	-9.3399	-2.4258	0.0240	-0.0029	0.0128	34.1777	26.3526	-5.1629	-0.5581	0.7377	0.2806	-0.2564
10.59	-0.6322	-9.3225	-2.4069	0.0277	-0.0076	0.0117	34.0327	26.3726	-5.1773	-0.5581	0.7375	0.2806	-0.2564
10.6	-0.6254	-9.3202	-2.4028	0.0264	-0.0027	0.0090	34.1211	26.2601	-5.1687	-0.5581	0.7376	0.2806	-0.2564
10.61	-0.6228	-9.3376	-2.4088	0.0244	-0.0017	0.0111	34.2710	26.3122	-5.3351	-0.5581	0.7376	0.2806	-0.2564
10.62	-0.6206	-9.3358	-2.3939	0.0237	-0.0056	0.0083	34.2264	26.2310	-5.3325	-0.5581	0.7375	0.2807	-0.2564
10.63	-0.6184	-9.3264	-2.3917	0.0229	-0.0023	0.0102	34.1471	26.0009	-5.3526	-0.5582	0.7375	0.2807	-0.2564
10.64	-0.6200	-9.3351	-2.3934	0.0240	-0.0048	0.0091	34.1682	26.0907	-5.3005	-0.5582	0.7375	0.2807	-0.2564
10.65	-0.6208	-9.3321	-2.3771	0.0270	-0.0046	0.0119	34.0967	26.3091	-5.2353	-0.5582	0.7375	0.2807	-0.2564
10.66	-0.6236	-9.3203	-2.3708	0.0214	-0.0061	0.0115	34.0527	26.2518	-5.2738	-0.5581	0.7374	0.2807	-0.2564
10.67	-0.6240	-9.3336	-2.3722	0.0156	-0.0074	0.0156	33.9828	26.3248	-5.1358	-0.5582	0.7375	0.2807	-0.2565
10.68	-0.6293	-9.3435	-2.3763	0.0239	-0.0107	0.0165	34.1417	26.3556	-5.0416	-0.5581	0.7375	0.2807	-0.2565
10.69	-0.6319	-9.3312	-2.3680	0.0257	-0.0092	0.0102	34.1478	26.4454	-5.2140	-0.5582	0.7375	0.2807	-0.2566
10.7	-0.6344	-9.3197	-2.3653	0.0217	0.0017	0.0052	34.1646	26.4392	-5.4082	-0.5582	0.7374	0.2807	-0.2565
10.71	-0.6409	-9.3399	-2.3818	0.0285	0.0022	0.0093	34.2243	26.3813	-5.0134	-0.5582	0.7374	0.2807	-0.2565
10.72	-0.6475	-9.3335	-2.3840	0.0235	-0.0005	0.0068	33.9163	26.4666	-5.0953	-0.5582	0.7374	0.2808	-0.2565
10.73	-0.6452	-9.3169	-2.3819	0.0240	0.0033	0.0109	34.2375	26.4503	-5.2780	-0.5582	0.7373	0.2807	-0.2565
10.74	-0.6393	-9.3299	-2.3970	0.0195	-0.0021	0.0122	34.1373	26.3388	-5.2598	-0.5583	0.7374	0.2808	-0.2565
10.75	-0.6304	-9.3376	-2.4017	0.0111	-0.0001	0.0065	34.0294	26.4210	-5.2354	-0.5582	0.7374	0.2808	-0.2565
10.76	-0.6248	-9.3229	-2.3996	0.0174	0.0020	0.0090	34.1614	26.4149	-5.3536	-0.5583	0.7375	0.2808	-0.2565
10.77	-0.6176	-9.3243	-2.3968	0.0259	-0.0008	0.0164	34.1337	26.2605	-5.2331	-0.5582	0.7374	0.2807	-0.2564
10.78	-0.6178	-9.3362	-2.4094	0.0224	-0.0068	0.0142	34.1801	26.3987	-5.3041	-0.5582	0.7374	0.2808	-0.2565
10.79	-0.6183	-9.3342	-2.4185	0.0235	0.0017	0.0090	34.0789	25.9934	-5.2999	-0.5582	0.7374	0.2808	-0.2565
10.8	-0.6165	-9.3298	-2.4162	0.0246	0.0003	0.0132	34.1849	26.1910	-5.2373	-0.5582	0.7374	0.2807	-0.2565
10.81	-0.6160	-9.3371	-2.4268	0.0281	-0.0022	0.0125	34.4588	26.3021	-5.2463	-0.5583	0.7374	0.2808	-0.2565
10.82	-0.6202	-9.3313	-2.4264	0.0199	-0.0032	0.0103	34.1863	26.1657	-5.1513	-0.5583	0.7374	0.2807	-0.2565
10.83	-0.6216	-9.3242	-2.4136	0.0175	-0.0017	0.0113	34.1798	26.2562	-5.3684	-0.5583	0.7374	0.2808	-0.2565
10.84	-0.6217	-9.3294	-2.4232	0.0147	-0.0029	0.0110	34.3523	26.3965	-5.2431	-0.5582	0.7373	0.2807	-0.2565
10.85	-0.6266	-9.3326	-2.4222	0.0143	0.0044	0.0099	34.1639	26.3301	-5.2512	-0.5582	0.7374	0.2808	-0.2565
10.86	-0.6206	-9.3259	-2.4146	0.0217	-0.0009	0.0125	34.1919	26.3110	-5.0878	-0.5582	0.7374	0.2808	-0.2565
10.87	-0.6262	-9.3338	-2.4172	0.0180	0.0003	0.0142	34.5297	26.4680	-5.0821	-0.5582	0.7374	0.2807	-0.2564
10.88	-0.6263	-9.3409	-2.4309	0.0205	0.0019	0.0099	34.7148	26.3573	-4.9148	-0.5582	0.7374	0.2808	-0.2564
10.89	-0.6227	-9.3342	-2.4273	0.0171	0.0030	0.0080	34.4811	26.5460	-5.1014	-0.5582	0.7374	0.2808	-0.2564
10.9	-0.6084	-9.3291	-2.4165	0.0234	-0.0018	0.0097	34.1216	27.1116	-5.1160	-0.5583	0.7375	0.2808	-0.2564
10.91	-0.6163	-9.3296	-2.4134	0.0198	-0.0014	0.0132	34.2484	26.9405	-5.2436	-0.5582	0.7374	0.2807	-0.2564
10.92	-0.6285	-9.3407	-2.4286	0.0209	0.0046	0.0109	34.2728	26.1621	-5.2307	-0.5583	0.7375	0.2808	-0.2564
10.93	-0.6298	-9.3315	-2.4221	0.0194	0.0027	0.0101	33.9905	26.3557	-5.2536	-0.5582	0.7374	0.2807	-0.2564
10.94	-0.6402	-9.3240	-2.4110	0.0240	-0.0043	0.0053	34.1479	26.2472	-5.2135	-0.5583	0.7374	0.2808	-0.2564
10.95	-0.6590	-9.3210	-2.4267	0.0255	-0.0055	0.0083	33.9103	26.4095	-5.3676	-0.5583	0.7374	0.2808	-0.2564
10.96	-0.6577	-9.3362	-2.4179	0.0232	-0.0017	0.0102	34.0330	26.3407	-5.2896	-0.5583	0.7374	0.2808	-0.2564
10.97	-0.6664	-9.3178	-2.4024	0.0232	-0.0087	0.0147	34.3090	26.2441	-5.2349	-0.5583	0.7374	0.2808	-0.2564
10.98	-0.6683	-9.3306	-2.4156	0.0245	-0.0110	0.0147	34.2683	26.1314	-5.1555	-0.5582	0.7373	0.2808	-0.2564
10.99	-0.6518	-9.3405	-2.4062	0.0287	-0.0156	0.0155	34.1744	26.0286	-5.0323	-0.5583	0.7374	0.2808	-0.2565
11	-0.6545	-9.3080	-2.3912	0.0300	-0.0098	0.0146	34.2215	26.2120	-5.2085	-0.5583	0.7373	0.2808	-0.2566
11.01	-0.6331	-9.3411	-2.3972	0.0232	-0.0063	0.0046	34.3079	26.1666	-5.0464	-0.5584	0.7373	0.2809	-0.2566
11.02	-0.6318	-9.3390	-2.3991	0.0265	-0.0034	0.0116	34.1645	26.0209	-5.0661	-0.5583	0.7372	0.2809	-0.2566
11.03	-0.6314	-9.3219	-2.3881	0.0306	-0.0052	0.0121	34.2207	26.1838	-5.2740	-0.5584	0.7372	0.2809	-0.2566
11.04	-0.6117	-9.3270	-2.3875	0.0251	-0.0077	0.0116	34.1389	26.0520	-5.0299	-0.5584	0.7372	0.2809	-0.2567
11.05	-0.6172	-9.3310	-2.3921	0.0236	-0.0106	0.0105	34.0855	26.0898	-5.1524	-0.5583	0.7371	0.2809	-0.2567
11.06	-0.6174	-9.3321	-2.3924	0.0244	-0.0100	0.0087	34.2135	26.3491	-5.0542	-0.5584	0.7372	0.2810	-0.2567
11.07	-0.6234	-9.3342	-2.3966	0.0207	-0.0036	0.0048	34.1726	25.9754	-4.9200	-0.5584	0.7371	0.2810	-0.2567
11.08	-0.6321	-9.3398	-2.4071	0.0230	-0.0058	0.0056	34.2123	26.2550	-5.0561	-0.5584	0.7372	0.2810	-0.2567
11.09	-0.6378	-9.3288	-2.4055	0.0284	-0.0042	0.0064	34.1640	26.3794	-5.0761	-0.5584	0.7370	0.2810	-0.2567
11.1	-0.6428	-9.3252	-2.4033	0.0276	-0.0007	0.0015	34.1250	26.5176	-4.9598	-0.5585	0.7371	0.2811	-0.2567
11.11	-0.6438	-9.3287	-2.4153	0.0220	-0.0005	0.0072	34.0229	26.4873	-4.9952	-0.5585	0.7370	0.2811	-0.2567
11.12	-0.6385	-9.3282	-2.4144	0.0257	-0.0027	0.0058	33.8538	26.5092	-4.9702	-0.5585	0.7370	0.2811	-0.2567
11.13	-0.6332	-9.3276	-2.4087	0.0219	0.0003	0.0059	33.9309	26.5511	-5.0962	-0.5585	0.7370	0.2811	-0.2567
11.14	-0.6202	-9.3298	-2.4139	0.0283	-0.0032	0.0080	34.0168	26.2929	-5.1787	-0.5585	0.7370	0.2811	-0.2567
11.15	-0.6152	-9.3235	-2.4042	0.0251	-0.0048	0.0109	34.1457	26.4789	-5.1415	-0.5586	0.7370	0.2811	-0.2567
11.16	-0.6124	-9.3232	-2.3967	0.0184	-0.0085	0.0140	34.1049	26.3789	-5.1808	-0.5585	0.7369	0.2811	-0.2567
11.17	-0.6069	-9.3374	-2.4053	0.0263	-0.0040	0.0113	34.0925	26.0642	-5.0027	-0.5586	0.7370	0.2811	-0.2567
11.18	-0.6106	-9.3463	-2.4089	0.0285	-0.0038	0.0077	34.1739	26.0449	-5.1484	-0.5586	0.7369	0.2811	-0.2567
11.19	-0.6175	-9.3286	-2.3978	0.0225	-0.0036	0.0073	34.1252	26.0797	-5.0616	-0.5586	0.7369	0.2812	-0.2567
11.2	-0.6186	-9.3252	-2.3883	0.0215	-0.0077	0.0113	34.1953	26.3447	-5.0848	-0.5586	0.7369	0.2812	-0.2567
11.21	-0.6292	-9.3390	-2.3961	0.0300	-0.0057	0.0093	34.2856	26.2346	-5.2523	-0.5586	0.7369	0.2812	-0.2568
11.22	-0.6320	-9.3334	-2.3920	0.0188	-0.0034	0.0109	34.1070	26.0721	-5.0984	-0.5586	0.7369	0.2812	-0.2568
11.23	-0.6347	-9.3253	-2.3804	0.0189	-0.0054	0.0090	34.1038	26.2392	-5.1832	-0.5585	0.7368	0.2812	-0.2568
11.24	-0.6403	-9.3372	-2.3863	0.0257	-0.0030	0.0120	34.2140	26.0884	-5.0220	-0.5586	0.7369	0.2813	-0.2568
11.25	-0.6418	-9.3349	-2.3853	0.0235	-0.0028	0.0114	34.1564	26.3258	-5.0910	-0.5586	0.7368	0.2812	-0.2568
11.26	-0.6434	-9.3258	-2.3788	0.0281	-0.0040	0.0087	34.0487	26.3944	-5.0396	-0.5587	0.7369	0.2813	-0.2568
11.27	-0.6422	-9.3338	-2.3887	0.0281	0.0033	0.0066	33.9352	26.3687	-5.1901	-0.5586	0.7367	0.2812	-0.2568
11.28	-0.6375	-9.3421	-2.3984	0.0254	-0.0027	0.0099	33.9734	26.2532	-4.9903	-0.5587	0.7368	0.2812	-0.2568
11.29	-0.6294	-9.3338	-2.4006	0.0276	-0.0020	0.0107	34.0595	26.3558	-5.0353	-0.5587	0.7367	0.2812	-0.2568
11.3	-0.6200	-9.3241	-2.4000	0.0267	0.0009	0.0038	33.9582	26.3659	-5.0711	-0.5587	0.7367	0.2812	-0.2568
11.31	-0.6162	-9.3423	-2.4021	0.0280	-0.0002	0.0046	33.8388	26.3832	-5.1878	-0.5588	0.7368	0.2813	-0.2568
11.32	-0.6091	-9.3429	-2.4096	0.0172	-0.0022	0.0081	33.9236	26.3329	-4.9586	-0.5588	0.7367	0.2813	-0.2567
11.33	-0.6125	-9.3297	-2.4079	0.0233	-0.0034	0.0139	34.1408	26.2866	-5.1104	-0.5588	0.7367	0.2813	-0.2568
11.34	-0.6170	-9.3320	-2.4092	0.0257	0.0006	0.0141	34.0159	26.2747	-5.1718	-0.5588	0.7366	0.2813	-0.2567
11.35	-0.6226	-9.3334	-2.4132	0.0246	-0.0049	0.0137	34.1398	26.4313	-5.0519	-0.5588	0.7367	0.2813	-0.2568
11.36	-0.6221	-9.3270	-2.4084	0.0255	0.0033	0.0127	34.2483	26.4015	-5.0360	-0.5588	0.7367	0.2812	-0.2568
11.37	-0.6205	-9.3272	-2.4048	0.0229	-0.0003	0.0091	34.5650	26.1793	-4.9278	-0.5588	0.7366	0.2812	-0.2568
11.38	-0.6232	-9.3391	-2.4064	0.0247	0.0016	0.0154	34.8556	26.1338	-5.0154	-0.5589	0.7367	0.2812	-0.2568
11.39	-0.6211	-9.3354	-2.4012	0.0283	-0.0012	0.0149	34.4545	26.5036	-5.1711	-0.5589	0.7366	0.2812	-0.2568
11.4	-0.6211	-9.3257	-2.3934	0.0208	-0.0054	0.0089	34.1032	27.0038	-5.0976	-0.5589	0.7367	0.2812	-0.2568
11.41	-0.6136	-9.3345	-2.3961	0.0144	-0.0009	0.0124	34.1674	26.9055	-5.3766	-0.5588	0.7366	0.2812	-0.2568
11.42	-0.6170	-9.3412	-2.4020	0.0197	-0.0046	0.0097	34.0225	26.3282	-5.2105	-0.5589	0.7367	0.2813	-0.2568
11.43	-0.6152	-9.3342	-2.3999	0.0252	-0.0039	0.0103	34.0718	26.5056	-5.0368	-0.5588	0.7366	0.2813	-0.2568
