time	acceleration_x	acceleration_y	acceleration_z	gyroscope_x	gyroscope_y	gyroscope_z	magnetometer_x	magnetometer_y	magnetometer_z	quaternion_w	quaternion_x	quaternion_y	quaternion_z
0	0.3046	-9.7005	2.2925	-0.4363	0.1631	-0.2393	19.4509	11.1091	-7.4504	-0.7847	0.6110	0.0861	-0.0580
0.01	0.4026	-9.7000	2.2448	-0.4311	0.1335	-0.2424	19.3400	11.1625	-7.1765	-0.7836	0.6127	0.0864	-0.0565
0.02	0.4811	-9.7276	2.1762	-0.4223	0.1215	-0.2366	19.1677	11.2289	-7.0074	-0.7824	0.6143	0.0867	-0.0550
0.03	0.5093	-9.6798	2.0459	-0.4240	0.1261	-0.2382	18.9860	11.2557	-6.8797	-0.7812	0.6159	0.0871	-0.0535
0.04	0.5383	-9.6321	1.9452	-0.4361	0.1095	-0.2315	18.9980	11.5335	-6.9033	-0.7799	0.6175	0.0874	-0.0521
0.05	0.5762	-9.6846	1.8200	-0.4338	0.1021	-0.2293	19.0244	11.5649	-6.8477	-0.7787	0.6192	0.0878	-0.0507
0.06	0.5925	-9.7016	1.7313	-0.4441	0.1077	-0.2176	18.9176	11.6202	-6.5980	-0.7774	0.6208	0.0882	-0.0493
0.07	0.6080	-9.8243	1.6015	-0.4593	0.0974	-0.2164	18.6174	11.7401	-6.6351	-0.7760	0.6225	0.0885	-0.0480
0.08	0.7183	-9.8525	1.6125	-0.4552	0.0813	-0.2114	18.6620	11.8727	-6.5056	-0.7748	0.6243	0.0890	-0.0467
0.09	0.7286	-10.1774	1.5783	-0.4672	0.0926	-0.2032	18.7868	11.7829	-6.5401	-0.7733	0.6260	0.0894	-0.0455
0.1	0.6105	-10.2657	1.3758	-0.4177	0.1135	-0.1915	18.6384	11.9963	-6.2591	-0.7722	0.6276	0.0896	-0.0442
0.11	0.6883	-10.2750	1.4051	-0.3782	0.0700	-0.1869	18.6721	12.0035	-6.1805	-0.7709	0.6290	0.0899	-0.0431
0.12	0.7602	-10.4298	1.3546	-0.3572	0.0639	-0.1807	18.6001	12.0452	-5.9887	-0.7699	0.6303	0.0903	-0.0421
0.13	0.7601	-10.3710	1.2777	-0.3122	0.0696	-0.1718	18.4193	11.8979	-5.8781	-0.7690	0.6315	0.0907	-0.0411
0.14	0.8017	-10.3332	1.2518	-0.2847	0.0581	-0.1576	18.5556	11.8147	-6.1233	-0.7681	0.6325	0.0910	-0.0402
0.15	0.8678	-10.2288	1.2224	-0.2542	0.0464	-0.1409	18.6751	11.9293	-5.8241	-0.7674	0.6336	0.0913	-0.0394
0.16	0.9351	-10.2275	1.2476	-0.2463	0.0413	-0.1331	18.5975	12.1147	-5.8167	-0.7666	0.6344	0.0915	-0.0386
0.17	0.8598	-10.2844	1.1659	-0.2292	0.0642	-0.1250	18.3397	12.1756	-5.7391	-0.7659	0.6353	0.0917	-0.0379
0.18	0.8623	-10.1689	1.1310	-0.1803	0.0465	-0.1148	18.4943	11.9661	-5.6786	-0.7653	0.6359	0.0919	-0.0372
0.19	0.9753	-10.2568	1.2008	-0.1706	0.0190	-0.1108	18.4568	12.2717	-5.7453	-0.7648	0.6366	0.0922	-0.0366
0.2	1.0087	-10.2706	1.1993	-0.1261	0.0402	-0.1027	18.5123	12.2697	-5.6362	-0.7644	0.6370	0.0924	-0.0361
0.21	1.0094	-10.2115	1.1834	-0.0967	0.0457	-0.0936	18.3260	12.2848	-5.6213	-0.7641	0.6374	0.0925	-0.0356
0.22	1.0126	-10.1259	1.1785	-0.0680	0.0493	-0.0871	18.1733	12.2674	-5.6006	-0.7639	0.6377	0.0926	-0.0350
0.23	1.0190	-10.1154	1.1837	-0.0386	0.0551	-0.0734	18.2401	12.1645	-5.6759	-0.7638	0.6378	0.0926	-0.0346
0.24	0.9775	-10.1155	1.2107	-0.0255	0.0688	-0.0558	18.3693	12.4409	-5.4624	-0.7638	0.6379	0.0925	-0.0342
0.25	0.8998	-10.1223	1.2298	-0.0046	0.0704	-0.0469	18.4171	12.4580	-5.5347	-0.7637	0.6379	0.0924	-0.0338
0.26	0.8450	-10.1650	1.2814	0.0243	0.0565	-0.0399	18.1400	12.4482	-5.4003	-0.7639	0.6379	0.0923	-0.0335
0.27	0.8105	-10.2087	1.3416	0.0410	0.0480	-0.0327	18.1411	12.4537	-5.3774	-0.7640	0.6377	0.0922	-0.0332
0.28	0.7723	-10.2063	1.4020	0.0650	0.0337	-0.0360	18.3142	12.4699	-5.4663	-0.7642	0.6375	0.0921	-0.0330
0.29	0.7648	-10.2322	1.4582	0.1062	0.0097	-0.0303	18.2961	12.3545	-5.4275	-0.7645	0.6371	0.0921	-0.0329
0.3	0.7983	-10.1715	1.5331	0.1428	-0.0099	-0.0240	18.1694	12.5126	-5.5597	-0.7650	0.6366	0.0922	-0.0329
0.31	0.8328	-10.1211	1.6079	0.1594	-0.0278	-0.0193	18.2870	12.5529	-5.5444	-0.7655	0.6360	0.0923	-0.0330
0.32	0.8161	-10.0961	1.6712	0.1847	-0.0307	-0.0070	18.6252	12.5457	-5.4555	-0.7660	0.6352	0.0924	-0.0332
0.33	0.7859	-10.0669	1.7238	0.2176	-0.0391	-0.0002	18.2960	12.4456	-5.4339	-0.7667	0.6345	0.0925	-0.0334
0.34	0.7633	-9.9901	1.7785	0.2443	-0.0482	0.0031	18.5221	12.1603	-5.4510	-0.7674	0.6335	0.0926	-0.0337
0.35	0.7074	-9.8821	1.8389	0.2581	-0.0688	0.0184	18.7882	12.3265	-5.6609	-0.7682	0.6326	0.0927	-0.0341
0.36	0.6397	-9.8720	1.8570	0.2541	-0.0860	0.0236	19.1438	12.4876	-5.3800	-0.7689	0.6316	0.0929	-0.0346
0.37	0.5862	-9.8288	1.8772	0.2595	-0.1062	0.0380	18.8495	12.2449	-5.5868	-0.7697	0.6306	0.0931	-0.0352
0.38	0.5556	-9.8369	1.9086	0.2567	-0.1366	0.0407	18.4269	12.0549	-5.9570	-0.7704	0.6296	0.0934	-0.0360
0.39	0.5403	-9.8580	1.9352	0.2723	-0.1738	0.0475	18.5756	12.1058	-5.9551	-0.7711	0.6286	0.0939	-0.0368
0.4	0.5463	-9.8984	1.9795	0.2862	-0.2076	0.0527	18.3978	12.1984	-6.0782	-0.7720	0.6275	0.0944	-0.0378
0.41	0.6166	-9.9603	2.0298	0.3174	-0.2495	0.0554	18.4207	12.1426	-6.2315	-0.7728	0.6263	0.0951	-0.0390
0.42	0.7096	-9.9263	2.1157	0.3555	-0.2752	0.0669	18.4747	12.0273	-6.4661	-0.7738	0.6249	0.0959	-0.0403
0.43	0.7822	-9.9110	2.1965	0.3802	-0.2944	0.0704	18.4027	12.2922	-6.3310	-0.7747	0.6234	0.0967	-0.0416
0.44	0.8642	-9.8902	2.2313	0.4134	-0.3139	0.0767	18.1877	12.2325	-6.2498	-0.7759	0.6218	0.0975	-0.0431
0.45	0.9761	-9.7437	2.3720	0.4376	-0.3269	0.0823	18.1416	12.3266	-6.6077	-0.7770	0.6201	0.0984	-0.0447
0.46	1.0643	-9.6947	2.3979	0.4344	-0.3199	0.0902	18.2014	12.2916	-6.6315	-0.7782	0.6184	0.0993	-0.0463
0.47	1.0829	-9.4996	2.3889	0.4354	-0.3210	0.0989	18.2199	12.1385	-6.6092	-0.7794	0.6167	0.1001	-0.0479
0.48	1.1140	-9.4244	2.3975	0.4056	-0.3159	0.0987	18.2476	12.1935	-6.9223	-0.7804	0.6151	0.1009	-0.0495
0.49	1.1444	-9.4067	2.3788	0.3785	-0.3098	0.0987	18.2401	12.1244	-7.0489	-0.7814	0.6136	0.1017	-0.0510
0.5	1.1450	-9.3283	2.3767	0.3550	-0.3048	0.1103	18.2956	11.8937	-7.2603	-0.7822	0.6121	0.1024	-0.0526
0.51	1.1793	-9.3758	2.3366	0.3164	-0.3178	0.1193	18.1923	11.7917	-7.2692	-0.7831	0.6109	0.1032	-0.0542
0.52	1.2011	-9.3592	2.3354	0.2902	-0.3009	0.1350	18.6074	11.8362	-7.4084	-0.7837	0.6098	0.1039	-0.0558
0.53	1.1522	-9.2735	2.2894	0.2694	-0.2648	0.1570	18.5017	11.7384	-7.5104	-0.7844	0.6087	0.1044	-0.0574
0.54	1.0934	-9.2524	2.2515	0.2415	-0.2522	0.1679	18.6829	11.7172	-7.6339	-0.7849	0.6078	0.1048	-0.0590
0.55	1.0835	-9.4006	2.2944	0.2138	-0.2475	0.1835	18.5853	11.6063	-7.8735	-0.7854	0.6070	0.1051	-0.0606
0.56	1.0062	-9.5124	2.3222	0.2164	-0.2147	0.1871	18.5407	11.6724	-7.7063	-0.7859	0.6062	0.1053	-0.0621
0.57	0.8914	-9.5423	2.3224	0.2295	-0.1893	0.1959	18.5331	11.4692	-7.7893	-0.7863	0.6053	0.1054	-0.0636
0.58	0.7861	-9.7013	2.3577	0.2426	-0.1828	0.1969	18.5681	11.3409	-7.9217	-0.7870	0.6045	0.1054	-0.0651
0.59	0.7272	-9.6981	2.3777	0.2745	-0.1774	0.1798	18.7792	11.2715	-8.0276	-0.7876	0.6034	0.1054	-0.0665
0.6	0.7748	-9.5907	2.4850	0.2979	-0.1910	0.1654	18.6680	11.3061	-8.1458	-0.7884	0.6024	0.1056	-0.0679
0.61	0.7373	-9.5917	2.5011	0.2857	-0.1751	0.1435	18.8671	11.2609	-8.2748	-0.7890	0.6012	0.1057	-0.0691
0.62	0.7055	-9.5182	2.4780	0.2767	-0.1800	0.1210	18.3670	11.4405	-8.2433	-0.7897	0.6001	0.1059	-0.0703
0.63	0.7334	-9.4370	2.5113	0.2591	-0.1935	0.1014	18.4950	11.4026	-8.3194	-0.7904	0.5991	0.1063	-0.0715
0.64	0.7682	-9.2991	2.5011	0.2386	-0.1980	0.0848	18.8079	11.3584	-8.3702	-0.7909	0.5981	0.1067	-0.0725
0.65	0.8283	-9.3543	2.5139	0.1928	-0.2119	0.0741	18.4503	11.3646	-8.3281	-0.7915	0.5974	0.1072	-0.0736
0.66	0.7880	-9.3894	2.4807	0.1649	-0.1947	0.0733	18.6580	11.2419	-8.6747	-0.7917	0.5966	0.1076	-0.0746
0.67	0.7567	-9.5202	2.4768	0.1519	-0.2095	0.0823	18.7323	11.0962	-8.4526	-0.7921	0.5961	0.1081	-0.0757
0.68	0.7879	-9.6652	2.5096	0.1536	-0.2077	0.0852	18.7201	11.1920	-8.5104	-0.7923	0.5954	0.1086	-0.0767
0.69	0.8511	-9.7419	2.5766	0.1639	-0.2207	0.0953	18.6882	11.4078	-8.7868	-0.7927	0.5948	0.1091	-0.0779
0.7	0.8486	-9.8074	2.5756	0.1937	-0.2002	0.0978	18.8096	10.9893	-8.8437	-0.7931	0.5940	0.1095	-0.0790
0.71	0.8339	-9.7122	2.5643	0.2277	-0.1903	0.0998	18.9966	10.8408	-8.9375	-0.7936	0.5931	0.1098	-0.0801
0.72	0.8637	-9.6034	2.6103	0.2477	-0.1881	0.0978	19.0823	10.7607	-8.7338	-0.7942	0.5921	0.1102	-0.0812
0.73	0.8671	-9.4839	2.6098	0.2583	-0.1726	0.1056	19.0419	10.6080	-9.0222	-0.7948	0.5911	0.1104	-0.0823
0.74	0.8505	-9.3854	2.6494	0.2590	-0.1589	0.1029	18.9466	10.7948	-9.2328	-0.7954	0.5901	0.1106	-0.0833
0.75	0.8370	-9.4051	2.6614	0.2487	-0.1473	0.0981	19.0897	10.8824	-9.0364	-0.7959	0.5890	0.1108	-0.0843
0.76	0.7989	-9.4034	2.6505	0.2410	-0.1308	0.1028	18.9564	10.5898	-9.2027	-0.7966	0.5881	0.1109	-0.0853
0.77	0.7150	-9.3866	2.6557	0.2303	-0.1076	0.1016	19.0067	10.6076	-9.2688	-0.7971	0.5872	0.1109	-0.0861
0.78	0.6469	-9.4653	2.6631	0.2073	-0.1057	0.0983	18.9037	10.7222	-9.2266	-0.7977	0.5864	0.1110	-0.0870
0.79	0.6039	-9.5557	2.6645	0.2002	-0.1011	0.0979	18.9559	10.4211	-9.3674	-0.7981	0.5856	0.1110	-0.0878
0.8	0.5716	-9.5691	2.6841	0.1984	-0.0927	0.0978	19.1569	10.7022	-9.4437	-0.7986	0.5849	0.1109	-0.0886
0.81	0.5261	-9.6396	2.6867	0.1993	-0.0898	0.0998	18.8910	10.7083	-9.4589	-0.7991	0.5841	0.1109	-0.0894
0.82	0.4841	-9.6702	2.6904	0.2061	-0.0923	0.0972	18.9971	10.6356	-9.3264	-0.7995	0.5833	0.1109	-0.0901
0.83	0.4858	-9.6359	2.7034	0.2258	-0.0919	0.0989	18.9265	10.7703	-9.4793	-0.8002	0.5825	0.1108	-0.0910
0.84	0.4812	-9.5584	2.7438	0.2330	-0.0948	0.0962	18.9974	10.6079	-9.5284	-0.8007	0.5815	0.1108	-0.0918
0.85	0.5189	-9.4860	2.7752	0.2408	-0.1019	0.0869	19.5329	10.7189	-9.6015	-0.8014	0.5806	0.1108	-0.0926
0.86	0.5270	-9.3828	2.8130	0.2457	-0.0956	0.0829	19.6931	10.5182	-9.6009	-0.8019	0.5796	0.1108	-0.0933
0.87	0.4842	-9.2986	2.8373	0.2315	-0.0808	0.0830	19.5470	10.5764	-9.5680	-0.8025	0.5787	0.1108	-0.0941
0.88	0.4320	-9.3739	2.8130	0.2010	-0.0760	0.0824	19.1814	10.3431	-9.5666	-0.8030	0.5779	0.1107	-0.0948
0.89	0.4414	-9.3643	2.8006	0.1903	-0.0802	0.0791	19.1103	10.2180	-9.8967	-0.8034	0.5772	0.1106	-0.0955
0.9	0.4592	-9.2724	2.8181	0.1810	-0.0802	0.0765	19.4051	10.0871	-10.0011	-0.8039	0.5766	0.1106	-0.0962
0.91	0.4597	-9.2537	2.7971	0.1617	-0.0724	0.0735	19.2833	10.1087	-10.0298	-0.8042	0.5759	0.1105	-0.0968
0.92	0.4822	-9.2443	2.8165	0.1483	-0.0696	0.0691	19.3025	10.2483	-10.1363	-0.8046	0.5754	0.1104	-0.0974
0.93	0.4829	-9.2566	2.8447	0.1280	-0.0570	0.0672	19.4566	9.8835	-9.9776	-0.8048	0.5748	0.1104	-0.0980
0.94	0.4711	-9.3451	2.8622	0.1139	-0.0501	0.0543	19.3289	10.1375	-10.0075	-0.8051	0.5744	0.1103	-0.0985
0.95	0.4685	-9.3280	2.8672	0.1047	-0.0424	0.0459	19.3459	10.0811	-9.9971	-0.8053	0.5741	0.1102	-0.0989
0.96	0.5063	-9.3068	2.9031	0.1014	-0.0314	0.0450	19.0849	10.0336	-9.9922	-0.8055	0.5737	0.1101	-0.0992
0.97	0.4726	-9.3308	2.8946	0.0861	-0.0181	0.0508	19.0703	10.1473	-10.0044	-0.8058	0.5734	0.1099	-0.0996
0.98	0.4144	-9.2985	2.8717	0.0728	-0.0131	0.0585	19.3796	9.8788	-10.2641	-0.8059	0.5732	0.1097	-0.1000
0.99	0.3587	-9.3070	2.8663	0.0540	-0.0060	0.0640	19.2476	10.0679	-10.0221	-0.8060	0.5730	0.1095	-0.1003
1	0.2857	-9.3066	2.8442	0.0497	-0.0037	0.0703	19.4231	9.9455	-9.9780	-0.8060	0.5728	0.1092	-0.1007
1.01	0.2300	-9.3445	2.8514	0.0308	-0.0108	0.0728	19.5515	10.0827	-9.9950	-0.8061	0.5728	0.1090	-0.1011
1.02	0.2224	-9.4454	2.8649	0.0215	-0.0305	0.0772	19.3620	9.9946	-10.1751	-0.8061	0.5728	0.1088	-0.1015
1.03	0.2204	-9.5314	2.8839	0.0240	-0.0335	0.0762	19.2934	9.9448	-10.1207	-0.8061	0.5728	0.1087	-0.1019
1.04	0.2348	-9.5637	2.9036	0.0453	-0.0504	0.0736	19.1267	9.9735	-9.9708	-0.8061	0.5726	0.1086	-0.1024
1.05	0.3194	-9.6050	2.9604	0.0497	-0.0561	0.0748	19.3480	9.8113	-10.2705	-0.8062	0.5724	0.1086	-0.1029
1.06	0.3871	-9.6299	3.0094	0.0565	-0.0594	0.0748	19.2658	9.7822	-10.2451	-0.8063	0.5723	0.1086	-0.1034
1.07	0.4109	-9.6047	3.0366	0.0747	-0.0448	0.0837	19.3333	9.7183	-10.3456	-0.8063	0.5719	0.1084	-0.1039
1.08	0.4368	-9.5577	3.0766	0.0894	-0.0388	0.0809	19.3506	9.5547	-10.4693	-0.8066	0.5717	0.1083	-0.1045
1.09	0.4445	-9.5221	3.1062	0.0972	-0.0221	0.0809	19.3608	9.6803	-10.4295	-0.8068	0.5713	0.1081	-0.1049
1.1	0.4346	-9.4944	3.1456	0.1000	-0.0064	0.0900	19.5198	9.6418	-10.4715	-0.8071	0.5710	0.1078	-0.1054
1.11	0.3742	-9.4357	3.1632	0.1019	0.0204	0.0951	19.6062	9.4975	-10.3231	-0.8072	0.5706	0.1074	-0.1058
1.12	0.3012	-9.3484	3.1592	0.0914	0.0343	0.0944	19.6220	9.6411	-10.3871	-0.8075	0.5704	0.1069	-0.1061
1.13	0.2348	-9.2927	3.1645	0.0771	0.0446	0.0935	19.5765	9.5832	-10.4605	-0.8077	0.5701	0.1064	-0.1064
1.14	0.1345	-9.2703	3.1391	0.0621	0.0560	0.0857	19.4028	9.6332	-10.4441	-0.8078	0.5699	0.1059	-0.1067
1.15	0.0498	-9.2264	3.1441	0.0435	0.0533	0.0734	19.5693	9.4800	-10.4398	-0.8080	0.5699	0.1054	-0.1069
1.16	-0.0156	-9.2306	3.1337	0.0273	0.0432	0.0719	19.4591	9.4410	-10.3095	-0.8080	0.5698	0.1050	-0.1071
1.17	-0.0464	-9.2455	3.1331	0.0217	0.0341	0.0507	19.4773	9.6299	-10.1702	-0.8080	0.5699	0.1046	-0.1072
1.18	-0.0543	-9.2277	3.1362	0.0088	0.0283	0.0368	19.6181	9.5206	-10.2461	-0.8079	0.5698	0.1043	-0.1073
1.19	-0.0343	-9.2420	3.1469	-0.0061	0.0241	0.0266	19.8573	9.5082	-10.3867	-0.8080	0.5700	0.1041	-0.1074
1.2	0.0109	-9.2678	3.1560	-0.0166	0.0200	0.0223	19.6786	9.5673	-10.3147	-0.8079	0.5701	0.1039	-0.1075
1.21	0.0289	-9.2201	3.1674	-0.0211	0.0216	0.0071	19.5672	9.6482	-10.4668	-0.8078	0.5702	0.1038	-0.1075
1.22	0.0557	-9.2436	3.1703	-0.0246	0.0258	0.0070	19.7447	9.3873	-10.3245	-0.8077	0.5704	0.1036	-0.1075
1.23	0.0744	-9.3021	3.1795	-0.0440	0.0240	0.0008	19.5154	9.4787	-10.1074	-0.8075	0.5706	0.1035	-0.1074
1.24	0.0659	-9.2788	3.1601	-0.0465	0.0388	-0.0015	19.3735	9.3352	-10.2361	-0.8074	0.5709	0.1033	-0.1073
1.25	0.0353	-9.2698	3.1443	-0.0478	0.0417	-0.0040	19.6183	9.4320	-10.3445	-0.8072	0.5711	0.1031	-0.1072
1.26	0.0224	-9.3322	3.1447	-0.0560	0.0412	-0.0081	19.7186	9.6373	-10.3613	-0.8071	0.5715	0.1030	-0.1071
1.27	0.0151	-9.3945	3.1244	-0.0616	0.0489	-0.0070	19.8534	9.2999	-10.3331	-0.8069	0.5718	0.1027	-0.1069
1.28	-0.0008	-9.4477	3.1193	-0.0610	0.0426	-0.0145	19.8877	9.4532	-10.6547	-0.8068	0.5721	0.1026	-0.1067
1.29	-0.0278	-9.5012	3.1103	-0.0570	0.0416	-0.0199	19.8793	9.3233	-10.4120	-0.8066	0.5723	0.1025	-0.1065
1.3	-0.0507	-9.5358	3.0978	-0.0528	0.0415	-0.0262	19.6161	9.2472	-10.0723	-0.8065	0.5725	0.1024	-0.1063
1.31	-0.0463	-9.5580	3.0887	-0.0368	0.0271	-0.0256	19.6534	9.4489	-10.2596	-0.8064	0.5727	0.1024	-0.1061
1.32	-0.0209	-9.5593	3.0716	-0.0288	0.0211	-0.0279	19.7495	9.4142	-10.2478	-0.8062	0.5728	0.1024	-0.1059
1.33	0.0261	-9.5122	3.0796	-0.0135	0.0173	-0.0300	19.4366	9.4608	-10.2647	-0.8063	0.5730	0.1024	-0.1058
1.34	0.0831	-9.4919	3.0722	0.0008	0.0124	-0.0304	19.6593	9.5312	-10.2489	-0.8063	0.5729	0.1024	-0.1056
1.35	0.1501	-9.4573	3.0902	0.0068	0.0114	-0.0313	20.2261	9.5259	-10.2839	-0.8064	0.5730	0.1024	-0.1055
1.36	0.1944	-9.4276	3.0942	0.0166	0.0173	-0.0311	20.8012	9.5715	-10.1073	-0.8063	0.5728	0.1024	-0.1053
1.37	0.1906	-9.3658	3.0894	0.0065	0.0342	-0.0258	20.0263	9.5489	-10.0896	-0.8064	0.5729	0.1023	-0.1051
1.38	0.1618	-9.3430	3.0902	0.0149	0.0437	-0.0262	19.6056	9.4575	-10.1807	-0.8065	0.5728	0.1022	-0.1050
1.39	0.1198	-9.3631	3.1129	0.0041	0.0475	-0.0194	19.5541	9.5554	-10.1591	-0.8064	0.5729	0.1020	-0.1048
1.4	0.0588	-9.4062	3.1204	0.0008	0.0502	-0.0208	19.4127	9.6943	-10.0405	-0.8066	0.5730	0.1018	-0.1046
1.41	0.0166	-9.4267	3.1360	0.0074	0.0447	-0.0219	19.4553	9.6170	-9.8266	-0.8065	0.5730	0.1016	-0.1044
1.42	-0.0037	-9.4335	3.1507	0.0109	0.0268	-0.0207	19.4968	9.6829	-10.2115	-0.8066	0.5730	0.1015	-0.1043
1.43	-0.0282	-9.4142	3.1515	0.0124	0.0312	-0.0253	19.5735	9.4667	-10.3640	-0.8065	0.5730	0.1014	-0.1042
1.44	-0.0337	-9.3987	3.1487	0.0150	0.0092	-0.0141	19.3769	9.5474	-10.1912	-0.8066	0.5730	0.1013	-0.1041
1.45	-0.0020	-9.3996	3.1558	0.0205	-0.0090	-0.0113	19.7409	9.4824	-10.1517	-0.8066	0.5730	0.1013	-0.1042
1.46	0.0163	-9.3913	3.1613	0.0161	-0.0071	-0.0065	19.8292	9.5735	-10.4558	-0.8066	0.5729	0.1013	-0.1042
1.47	0.0452	-9.3948	3.1502	0.0195	-0.0149	-0.0040	19.7835	9.2673	-10.3110	-0.8066	0.5729	0.1013	-0.1043
1.48	0.0955	-9.3673	3.1625	0.0199	-0.0212	-0.0045	19.9354	9.1822	-10.2082	-0.8066	0.5729	0.1013	-0.1044
1.49	0.1287	-9.3412	3.1638	0.0081	-0.0203	-0.0033	19.8291	9.2632	-10.2565	-0.8066	0.5729	0.1013	-0.1045
1.5	0.1528	-9.3314	3.1748	0.0146	-0.0133	-0.0012	19.6972	9.3209	-10.2258	-0.8065	0.5728	0.1013	-0.1046
1.51	0.1574	-9.3449	3.1772	0.0018	-0.0058	-0.0004	19.8381	9.5622	-10.1547	-0.8066	0.5729	0.1013	-0.1046
1.52	0.1353	-9.3251	3.1716	-0.0015	-0.0054	0.0057	19.7432	9.4999	-10.2914	-0.8065	0.5730	0.1012	-0.1047
1.53	0.1052	-9.3211	3.1677	-0.0074	-0.0050	-0.0023	19.7026	9.5166	-10.1470	-0.8065	0.5731	0.1012	-0.1048
1.54	0.0651	-9.3528	3.1604	-0.0194	-0.0018	0.0070	19.6351	9.6004	-10.1675	-0.8064	0.5732	0.1011	-0.1048
1.55	0.0355	-9.3728	3.1497	-0.0201	-0.0012	0.0029	19.4621	9.6138	-10.0044	-0.8063	0.5733	0.1011	-0.1049
1.56	0.0170	-9.3593	3.1321	-0.0222	0.0037	-0.0050	19.4577	9.5894	-9.9784	-0.8062	0.5735	0.1010	-0.1049
1.57	0.0139	-9.3762	3.1198	-0.0196	-0.0031	-0.0055	19.4027	9.6210	-9.8845	-0.8060	0.5736	0.1010	-0.1049
1.58	0.0214	-9.4035	3.1133	-0.0236	-0.0047	-0.0059	19.7225	9.5779	-9.9855	-0.8060	0.5738	0.1010	-0.1050
1.59	0.0334	-9.4023	3.1040	-0.0234	-0.0035	-0.0045	19.7574	9.6692	-9.8090	-0.8059	0.5739	0.1009	-0.1050
1.6	0.0653	-9.4299	3.0987	-0.0209	-0.0176	-0.0048	19.5099	9.6779	-10.0572	-0.8058	0.5741	0.1009	-0.1051
1.61	0.0970	-9.4238	3.1063	-0.0140	-0.0107	-0.0047	19.5418	9.8103	-9.9902	-0.8056	0.5741	0.1009	-0.1051
1.62	0.1201	-9.4308	3.1034	-0.0010	-0.0084	-0.0036	19.5511	9.7322	-9.9670	-0.8056	0.5742	0.1009	-0.1052
1.63	0.1492	-9.4652	3.1346	0.0135	-0.0053	-0.0030	19.6752	9.7182	-10.1849	-0.8057	0.5742	0.1009	-0.1052
1.64	0.1607	-9.4793	3.1479	0.0245	0.0082	-0.0027	19.8815	9.5200	-10.3703	-0.8057	0.5741	0.1008	-0.1052
1.65	0.1747	-9.4743	3.1487	0.0305	0.0111	-0.0038	20.0077	9.4509	-10.2070	-0.8059	0.5740	0.1008	-0.1052
1.66	0.1660	-9.4143	3.1527	0.0461	0.0322	0.0001	19.6919	9.4753	-10.1369	-0.8059	0.5739	0.1006	-0.1052
1.67	0.1227	-9.3734	3.1388	0.0329	0.0370	0.0006	19.7751	9.2704	-9.9245	-0.8060	0.5738	0.1003	-0.1052
1.68	0.0666	-9.3534	3.1340	0.0242	0.0518	0.0043	19.8973	9.4685	-10.1732	-0.8060	0.5737	0.1000	-0.1051
1.69	0.0076	-9.3426	3.1225	0.0259	0.0522	-0.0006	19.7761	9.2991	-10.2279	-0.8061	0.5738	0.0997	-0.1050
1.7	-0.0448	-9.3370	3.1068	0.0227	0.0483	-0.0039	19.8248	9.3894	-10.1205	-0.8062	0.5738	0.0995	-0.1049
1.71	-0.0679	-9.3081	3.0909	0.0085	0.0396	-0.0074	19.7309	9.5241	-10.2133	-0.8062	0.5738	0.0992	-0.1048
1.72	-0.0705	-9.2938	3.0860	0.0082	0.0206	-0.0121	19.5966	9.4098	-10.4159	-0.8062	0.5738	0.0991	-0.1048
1.73	-0.0426	-9.3203	3.0770	0.0006	0.0088	-0.0138	19.6462	9.4446	-9.9089	-0.8061	0.5739	0.0990	-0.1048
1.74	-0.0087	-9.3412	3.0845	-0.0011	0.0067	-0.0193	19.7969	9.6117	-10.0547	-0.8062	0.5740	0.0989	-0.1047
1.75	0.0147	-9.3533	3.0778	-0.0007	0.0008	-0.0199	19.8224	9.6047	-10.2613	-0.8060	0.5739	0.0989	-0.1047
1.76	0.0431	-9.3839	3.0735	-0.0011	-0.0074	-0.0120	19.5571	9.5004	-10.3011	-0.8061	0.5741	0.0989	-0.1047
1.77	0.0673	-9.4019	3.0726	-0.0009	-0.0071	-0.0104	19.5591	9.6881	-10.2206	-0.8060	0.5741	0.0989	-0.1048
1.78	0.0750	-9.3966	3.0657	-0.0010	-0.0056	-0.0149	19.7194	9.6527	-9.9957	-0.8060	0.5742	0.0989	-0.1048
1.79	0.0662	-9.4029	3.0545	-0.0010	-0.0069	-0.0051	19.7989	9.3734	-10.0821	-0.8059	0.5742	0.0988	-0.1049
1.8	0.0632	-9.4101	3.0499	-0.0021	-0.0116	-0.0043	19.6870	9.6144	-10.0858	-0.8059	0.5742	0.0988	-0.1049
1.81	0.0402	-9.4047	3.0387	-0.0048	-0.0108	-0.0104	19.5333	9.5162	-10.1698	-0.8059	0.5743	0.0988	-0.1050
1.82	0.0017	-9.3638	3.0038	-0.0013	-0.0073	-0.0077	19.5418	9.6176	-10.2257	-0.8057	0.5743	0.0987	-0.1050
1.83	-0.0343	-9.3811	2.9856	-0.0183	-0.0128	-0.0106	19.6126	9.3639	-10.3553	-0.8058	0.5745	0.0987	-0.1051
1.84	-0.0395	-9.4521	2.9780	-0.0145	-0.0176	-0.0160	19.8406	9.2378	-10.1757	-0.8056	0.5746	0.0988	-0.1051
1.85	-0.0247	-9.4855	2.9735	-0.0119	-0.0309	-0.0220	20.1317	9.4541	-10.0465	-0.8056	0.5747	0.0989	-0.1052
1.86	0.0046	-9.4700	2.9643	-0.0029	-0.0361	-0.0318	20.4698	9.4949	-9.6721	-0.8055	0.5747	0.0990	-0.1052
1.87	0.0469	-9.4695	2.9625	-0.0076	-0.0397	-0.0296	19.9857	9.3842	-10.2576	-0.8054	0.5748	0.0992	-0.1053
1.88	0.0780	-9.4957	2.9639	-0.0065	-0.0444	-0.0278	19.8900	9.4733	-10.2413	-0.8054	0.5748	0.0994	-0.1054
1.89	0.1050	-9.5375	2.9511	-0.0025	-0.0381	-0.0193	19.7742	9.3809	-10.0878	-0.8053	0.5747	0.0995	-0.1054
1.9	0.0991	-9.5203	2.9367	0.0000	-0.0418	-0.0218	19.6541	9.5681	-10.1655	-0.8054	0.5748	0.0997	-0.1055
1.91	0.0823	-9.5088	2.9170	0.0098	-0.0412	-0.0227	19.7007	9.4608	-10.1257	-0.8053	0.5748	0.0999	-0.1056
1.92	0.0849	-9.5061	2.9167	0.0235	-0.0412	-0.0224	19.6635	9.4823	-10.1611	-0.8054	0.5747	0.1000	-0.1057
1.93	0.1213	-9.4940	2.9128	0.0282	-0.0471	-0.0255	19.7872	9.6358	-10.1256	-0.8053	0.5746	0.1001	-0.1058
1.94	0.1595	-9.4709	2.9307	0.0459	-0.0472	-0.0291	19.5401	9.6083	-10.1799	-0.8055	0.5745	0.1003	-0.1059
1.95	0.1912	-9.4519	2.9476	0.0477	-0.0296	-0.0294	19.4716	9.4328	-10.2550	-0.8055	0.5743	0.1004	-0.1060
1.96	0.2309	-9.4500	2.9709	0.0352	-0.0315	-0.0292	19.5883	9.5086	-10.2328	-0.8056	0.5742	0.1005	-0.1060
1.97	0.2622	-9.4433	2.9935	0.0321	-0.0212	-0.0296	19.6892	9.6264	-10.2391	-0.8057	0.5741	0.1005	-0.1061
1.98	0.2693	-9.4297	3.0068	0.0309	-0.0071	-0.0275	19.7054	9.3585	-10.1025	-0.8057	0.5740	0.1005	-0.1061
1.99	0.2525	-9.4328	3.0183	0.0231	0.0072	-0.0273	19.5949	9.5403	-10.1952	-0.8058	0.5740	0.1005	-0.1060
2	0.2133	-9.4323	3.0117	0.0252	0.0210	-0.0209	19.6818	9.4387	-10.3600	-0.8058	0.5739	0.1003	-0.1060
2.01	0.1691	-9.4140	3.0051	0.0241	0.0127	-0.0164	19.5645	9.4304	-10.1723	-0.8059	0.5739	0.1002	-0.1060
2.02	0.1302	-9.4119	2.9940	0.0248	0.0186	-0.0131	19.6592	9.2986	-10.1650	-0.8059	0.5738	0.1001	-0.1059
2.03	0.0876	-9.4048	2.9784	0.0247	0.0193	-0.0192	19.6294	9.4621	-10.3232	-0.8060	0.5738	0.0999	-0.1059
2.04	0.0566	-9.3885	2.9654	0.0238	0.0176	-0.0221	19.4763	9.3171	-10.3483	-0.8060	0.5737	0.0998	-0.1058
2.05	0.0568	-9.4066	2.9668	0.0199	0.0040	-0.0283	19.5126	9.2723	-10.4006	-0.8060	0.5737	0.0997	-0.1058
2.06	0.0660	-9.4280	2.9822	0.0281	-0.0055	-0.0258	19.5060	9.5713	-10.3133	-0.8061	0.5737	0.0997	-0.1058
2.07	0.0699	-9.4375	2.9900	0.0248	-0.0065	-0.0231	19.4949	9.4073	-10.3152	-0.8061	0.5736	0.0997	-0.1058
2.08	0.0856	-9.4515	3.0086	0.0257	-0.0137	-0.0229	19.5226	9.5666	-10.4588	-0.8062	0.5736	0.0997	-0.1059
2.09	0.1082	-9.4461	3.0399	0.0316	-0.0118	-0.0219	19.6165	9.6278	-10.5037	-0.8062	0.5735	0.0997	-0.1059
2.1	0.1003	-9.4436	3.0515	0.0364	-0.0111	-0.0234	19.5748	9.6114	-10.3460	-0.8064	0.5734	0.0997	-0.1059
2.11	0.0905	-9.4229	3.0438	0.0437	-0.0164	-0.0199	19.6111	9.6077	-10.1313	-0.8063	0.5732	0.0997	-0.1060
2.12	0.0942	-9.3701	3.0404	0.0282	-0.0218	-0.0288	19.4488	9.6292	-10.1596	-0.8064	0.5732	0.0997	-0.1060
2.13	0.0981	-9.3374	3.0378	0.0242	-0.0167	-0.0233	19.6003	9.5721	-10.3138	-0.8065	0.5731	0.0997	-0.1061
2.14	0.1112	-9.3605	3.0411	0.0181	-0.0229	-0.0190	19.5033	9.4439	-10.3460	-0.8064	0.5730	0.0998	-0.1061
2.15	0.1231	-9.3858	3.0429	0.0153	-0.0241	-0.0260	19.5160	9.3145	-10.2955	-0.8065	0.5731	0.0998	-0.1062
2.16	0.1359	-9.3914	3.0440	0.0139	-0.0286	-0.0255	19.4663	9.6830	-10.2379	-0.8064	0.5730	0.0999	-0.1062
2.17	0.1556	-9.4100	3.0461	-0.0025	-0.0280	-0.0226	19.4016	9.6257	-10.2146	-0.8065	0.5731	0.1000	-0.1063
2.18	0.1624	-9.4347	3.0505	0.0051	-0.0291	-0.0309	19.4106	9.7046	-10.3776	-0.8063	0.5730	0.1000	-0.1064
2.19	0.1729	-9.4418	3.0564	0.0193	-0.0271	-0.0222	19.5414	9.4515	-10.1383	-0.8064	0.5731	0.1001	-0.1064
2.2	0.1871	-9.4214	3.0775	0.0257	-0.0249	-0.0256	19.6263	9.4826	-10.4396	-0.8064	0.5730	0.1002	-0.1065
2.21	0.2155	-9.4292	3.0831	0.0242	-0.0313	-0.0160	19.8138	9.5279	-10.4578	-0.8064	0.5729	0.1002	-0.1066
2.22	0.2388	-9.3962	3.0963	0.0269	-0.0184	-0.0137	19.6245	9.6434	-10.4141	-0.8065	0.5729	0.1002	-0.1067
2.23	0.2395	-9.3839	3.0977	0.0245	-0.0125	-0.0142	19.5156	9.2917	-10.5131	-0.8065	0.5728	0.1002	-0.1068
2.24	0.2317	-9.3678	3.1132	0.0233	-0.0056	-0.0076	19.5773	9.3522	-10.3645	-0.8065	0.5728	0.1001	-0.1069
2.25	0.2187	-9.3725	3.1039	0.0253	0.0005	-0.0112	19.3864	9.5546	-10.4686	-0.8065	0.5727	0.1000	-0.1069
2.26	0.2077	-9.3609	3.0882	0.0158	0.0050	-0.0110	19.5329	9.5089	-10.2588	-0.8066	0.5728	0.0999	-0.1069
2.27	0.1880	-9.3379	3.0723	0.0057	-0.0017	-0.0093	19.3519	9.5048	-10.4406	-0.8065	0.5728	0.0998	-0.1070
2.28	0.1865	-9.3877	3.0715	-0.0020	-0.0036	-0.0102	19.5179	9.3609	-10.5602	-0.8065	0.5729	0.0998	-0.1070
2.29	0.1943	-9.4494	3.0901	0.0016	-0.0063	-0.0114	19.4964	9.6825	-10.2910	-0.8064	0.5729	0.0997	-0.1071
2.3	0.1912	-9.4765	3.0936	0.0076	-0.0039	-0.0118	19.5283	9.5194	-10.3466	-0.8065	0.5729	0.0997	-0.1071
2.31	0.2028	-9.4558	3.0994	0.0209	-0.0041	-0.0143	19.4443	9.4522	-10.0968	-0.8065	0.5729	0.0997	-0.1071
2.32	0.2223	-9.4492	3.1016	0.0192	-0.0012	-0.0086	19.3987	9.6336	-10.3347	-0.8064	0.5728	0.0996	-0.1071
2.33	0.2282	-9.4373	3.0954	0.0105	0.0039	-0.0050	19.4285	9.6132	-10.4280	-0.8065	0.5729	0.0995	-0.1072
2.34	0.2208	-9.4231	3.0837	0.0202	0.0099	-0.0037	19.5461	9.2951	-10.1158	-0.8065	0.5729	0.0994	-0.1072
2.35	0.2116	-9.4049	3.0788	0.0150	0.0152	-0.0040	19.6913	9.5553	-10.1722	-0.8066	0.5729	0.0992	-0.1073
2.36	0.1898	-9.3888	3.0724	0.0180	0.0153	0.0004	20.1864	9.8113	-10.0884	-0.8065	0.5729	0.0990	-0.1073
2.37	0.1662	-9.3776	3.0634	0.0210	0.0177	-0.0002	20.0191	9.3082	-10.2578	-0.8066	0.5729	0.0988	-0.1073
2.38	0.1541	-9.3807	3.0607	0.0137	0.0060	-0.0038	19.5377	9.5656	-10.3952	-0.8066	0.5729	0.0987	-0.1074
2.39	0.1496	-9.4013	3.0672	0.0144	0.0012	-0.0040	19.5670	9.1975	-10.3872	-0.8065	0.5729	0.0986	-0.1075
2.4	0.1499	-9.4154	3.0714	0.0160	0.0044	-0.0041	19.8108	9.3988	-10.4757	-0.8066	0.5730	0.0985	-0.1075
2.41	0.1563	-9.4262	3.0641	0.0140	0.0024	-0.0038	19.6555	9.4520	-10.5276	-0.8065	0.5729	0.0984	-0.1076
2.42	0.1571	-9.4336	3.0650	0.0155	0.0157	-0.0041	19.5270	9.2352	-10.3196	-0.8066	0.5730	0.0982	-0.1076
2.43	0.1485	-9.4329	3.0635	0.0227	0.0132	-0.0028	19.5195	9.4539	-10.4496	-0.8065	0.5729	0.0980	-0.1076
2.44	0.1637	-9.4518	3.0748	0.0242	0.0126	-0.0055	19.7375	9.4581	-10.4338	-0.8066	0.5729	0.0979	-0.1077
2.45	0.1904	-9.4598	3.0854	0.0259	0.0056	-0.0047	19.5235	9.4352	-10.6228	-0.8066	0.5729	0.0978	-0.1077
2.46	0.2138	-9.4350	3.0949	0.0275	0.0020	-0.0075	19.5030	9.4699	-10.6102	-0.8067	0.5728	0.0976	-0.1078
2.47	0.2237	-9.4065	3.0987	0.0317	0.0092	-0.0058	19.6372	9.3122	-10.5588	-0.8067	0.5728	0.0975	-0.1078
2.48	0.2140	-9.3616	3.0858	0.0290	0.0142	-0.0028	19.7079	9.4306	-10.4350	-0.8068	0.5727	0.0973	-0.1079
2.49	0.1931	-9.3432	3.0901	0.0239	0.0198	-0.0040	19.3028	9.6123	-10.3621	-0.8068	0.5727	0.0972	-0.1079
2.5	0.1934	-9.3891	3.1095	0.0247	0.0140	-0.0035	19.4716	9.7278	-10.5813	-0.8068	0.5726	0.0970	-0.1079
2.51	0.1895	-9.3899	3.1275	0.0279	0.0190	-0.0030	19.3816	9.5628	-10.2917	-0.8069	0.5727	0.0968	-0.1079
2.52	0.1628	-9.3706	3.1245	0.0299	0.0185	-0.0027	19.3996	9.5888	-10.3915	-0.8069	0.5726	0.0966	-0.1080
2.53	0.1673	-9.3561	3.1406	0.0240	0.0182	-0.0029	19.4184	9.8470	-10.5697	-0.8070	0.5726	0.0965	-0.1080
2.54	0.1662	-9.3496	3.1540	0.0225	0.0230	-0.0028	19.5671	9.6724	-10.3106	-0.8070	0.5726	0.0963	-0.1080
2.55	0.1416	-9.3331	3.1404	0.0115	0.0250	-0.0027	19.6814	9.6156	-10.3949	-0.8070	0.5726	0.0961	-0.1080
2.56	0.1133	-9.3290	3.1425	0.0084	0.0230	-0.0036	19.4550	9.4351	-10.4313	-0.8070	0.5727	0.0959	-0.1080
2.57	0.0795	-9.3438	3.1346	0.0032	0.0276	-0.0034	19.6154	9.4919	-10.5391	-0.8069	0.5727	0.0957	-0.1079
2.58	0.0578	-9.3548	3.1179	0.0046	0.0249	-0.0035	19.7454	9.1831	-10.5023	-0.8070	0.5728	0.0955	-0.1079
2.59	0.0511	-9.3583	3.1097	0.0007	0.0189	-0.0049	19.7557	9.2833	-10.4198	-0.8069	0.5729	0.0953	-0.1079
2.6	0.0686	-9.3653	3.1087	-0.0018	0.0229	-0.0118	19.7008	9.3610	-10.4121	-0.8069	0.5730	0.0952	-0.1079
2.61	0.0999	-9.3956	3.1083	-0.0005	0.0208	-0.0146	19.5954	9.5568	-10.5649	-0.8068	0.5730	0.0950	-0.1078
2.62	0.1134	-9.3826	3.1008	-0.0031	0.0218	-0.0247	19.6614	9.4854	-10.5872	-0.8068	0.5731	0.0949	-0.1078
2.63	0.1181	-9.3907	3.0951	-0.0071	0.0221	-0.0251	19.6648	9.3275	-10.3911	-0.8067	0.5733	0.0949	-0.1077
2.64	0.1266	-9.3899	3.0899	-0.0060	0.0221	-0.0281	19.5783	9.6102	-10.7725	-0.8065	0.5734	0.0948	-0.1076
2.65	0.1289	-9.4027	3.0929	-0.0050	0.0239	-0.0304	19.7283	9.2683	-10.5633	-0.8066	0.5736	0.0948	-0.1076
2.66	0.1229	-9.4051	3.0898	-0.0070	0.0292	-0.0317	19.7034	9.4773	-10.5329	-0.8064	0.5737	0.0947	-0.1074
2.67	0.1262	-9.4072	3.0862	-0.0009	0.0257	-0.0286	19.6526	9.5355	-10.2598	-0.8064	0.5739	0.0947	-0.1074
2.68	0.1195	-9.4035	3.0792	-0.0016	0.0344	-0.0296	19.5081	9.6364	-10.3386	-0.8062	0.5740	0.0946	-0.1073
2.69	0.1164	-9.3961	3.0766	0.0003	0.0258	-0.0283	19.5187	9.6994	-10.5965	-0.8062	0.5742	0.0946	-0.1072
2.7	0.1285	-9.4082	3.0658	-0.0044	0.0228	-0.0285	19.5400	9.6242	-10.2892	-0.8061	0.5743	0.0946	-0.1071
2.71	0.1297	-9.4078	3.0607	-0.0015	0.0210	-0.0252	19.4409	9.8297	-10.2371	-0.8060	0.5744	0.0945	-0.1071
2.72	0.1394	-9.4366	3.0663	-0.0068	0.0215	-0.0199	19.4281	9.6979	-10.3844	-0.8059	0.5746	0.0945	-0.1070
2.73	0.1477	-9.4649	3.0582	-0.0041	0.0233	-0.0169	19.5655	9.5650	-10.3153	-0.8058	0.5748	0.0944	-0.1070
2.74	0.1400	-9.4702	3.0608	0.0019	0.0177	-0.0192	19.4852	9.5628	-10.4385	-0.8057	0.5749	0.0944	-0.1070
2.75	0.1467	-9.4771	3.0592	0.0011	0.0128	-0.0111	19.6445	9.7342	-10.3542	-0.8056	0.5749	0.0944	-0.1069
2.76	0.1496	-9.4743	3.0592	0.0143	0.0037	-0.0086	19.5765	9.6946	-10.3476	-0.8056	0.5750	0.0945	-0.1070
2.77	0.1403	-9.4476	3.0528	0.0247	0.0116	-0.0055	19.5464	9.5591	-10.3362	-0.8056	0.5750	0.0944	-0.1071
2.78	0.1379	-9.4248	3.0523	0.0243	0.0214	-0.0094	19.6693	9.5253	-10.4269	-0.8056	0.5751	0.0943	-0.1071
2.79	0.1361	-9.4052	3.0585	0.0237	0.0201	-0.0091	19.4659	9.4577	-10.3565	-0.8055	0.5751	0.0942	-0.1071
2.8	0.1303	-9.3895	3.0712	0.0264	0.0184	-0.0086	19.9775	9.5497	-10.3124	-0.8055	0.5751	0.0941	-0.1071
2.81	0.1279	-9.3754	3.0764	0.0256	0.0154	-0.0080	19.6444	9.3489	-10.4197	-0.8055	0.5752	0.0941	-0.1072
2.82	0.1225	-9.3499	3.0804	0.0240	0.0184	-0.0084	19.6832	9.4334	-10.4328	-0.8054	0.5752	0.0940	-0.1072
2.83	0.1170	-9.3374	3.0873	0.0236	0.0169	-0.0047	19.7942	9.4620	-10.4654	-0.8055	0.5753	0.0939	-0.1073
2.84	0.1035	-9.3346	3.0874	0.0145	0.0206	-0.0140	19.5563	9.5769	-10.2194	-0.8054	0.5753	0.0939	-0.1073
2.85	0.0956	-9.3252	3.0864	0.0151	0.0211	-0.0159	19.9284	9.7162	-10.1648	-0.8054	0.5755	0.0938	-0.1073
2.86	0.0853	-9.3394	3.0915	0.0112	0.0143	-0.0086	20.2863	9.7081	-10.1098	-0.8053	0.5755	0.0937	-0.1073
2.87	0.0804	-9.3801	3.0923	0.0032	0.0193	-0.0059	19.9377	9.3139	-10.2555	-0.8052	0.5756	0.0937	-0.1073
2.88	0.0834	-9.4166	3.0999	0.0022	0.0208	-0.0045	19.5822	9.2246	-10.4301	-0.8051	0.5757	0.0936	-0.1073
2.89	0.0733	-9.4199	3.0907	0.0023	0.0145	-0.0119	19.5856	9.4068	-10.1857	-0.8050	0.5758	0.0936	-0.1074
2.9	0.0679	-9.3962	3.0684	-0.0020	0.0092	-0.0205	19.5693	9.5315	-10.2294	-0.8050	0.5760	0.0936	-0.1074
2.91	0.0765	-9.3739	3.0581	0.0028	0.0013	-0.0182	19.4856	9.5542	-10.2613	-0.8049	0.5761	0.0936	-0.1074
2.92	0.1039	-9.3904	3.0661	0.0016	-0.0023	-0.0215	19.5212	9.4587	-10.3493	-0.8048	0.5762	0.0937	-0.1074
2.93	0.1249	-9.4304	3.0692	-0.0020	0.0019	-0.0144	19.4171	9.8460	-10.3109	-0.8046	0.5763	0.0937	-0.1074
2.94	0.1344	-9.4438	3.0823	-0.0001	-0.0018	-0.0182	19.3992	9.7065	-10.4582	-0.8046	0.5765	0.0937	-0.1075
2.95	0.1321	-9.4409	3.0735	0.0018	-0.0046	-0.0122	19.6591	9.4687	-10.5382	-0.8045	0.5766	0.0938	-0.1075
2.96	0.1378	-9.4312	3.0684	0.0056	0.0023	-0.0122	19.9263	9.4969	-10.4001	-0.8044	0.5767	0.0938	-0.1076
2.97	0.1469	-9.4413	3.0663	-0.0008	0.0021	-0.0099	19.6151	9.2943	-10.4181	-0.8043	0.5768	0.0938	-0.1076
2.98	0.1362	-9.4326	3.0599	0.0075	0.0116	-0.0062	19.7536	9.8031	-10.3768	-0.8042	0.5769	0.0938	-0.1077
2.99	0.1261	-9.4306	3.0429	0.0074	0.0183	-0.0079	19.7369	9.4875	-10.3064	-0.8042	0.5770	0.0938	-0.1077
3	0.1078	-9.4224	3.0314	0.0031	0.0170	-0.0076	19.5613	9.3363	-10.3062	-0.8040	0.5771	0.0937	-0.1077
3.01	0.0889	-9.4161	3.0226	0.0057	0.0102	-0.0092	19.6119	9.4383	-10.5736	-0.8040	0.5772	0.0937	-0.1078
3.02	0.0836	-9.4335	3.0231	-0.0025	0.0098	-0.0165	19.4022	9.4866	-10.3994	-0.8039	0.5773	0.0937	-0.1078
3.03	0.0944	-9.4388	3.0133	0.0070	0.0047	-0.0138	19.4794	9.5280	-10.2881	-0.8039	0.5775	0.0937	-0.1078
3.04	0.1101	-9.4547	3.0310	0.0011	-0.0049	-0.0178	19.6005	9.6316	-10.3500	-0.8037	0.5775	0.0938	-0.1078
3.05	0.1358	-9.4692	3.0317	0.0037	-0.0040	-0.0146	19.5986	9.5695	-10.2874	-0.8037	0.5777	0.0938	-0.1079
3.06	0.1531	-9.4571	3.0374	0.0132	0.0032	-0.0190	19.5480	9.5497	-10.3834	-0.8036	0.5777	0.0939	-0.1079
3.07	0.1529	-9.4599	3.0385	0.0123	0.0043	-0.0246	19.4038	9.6645	-10.4450	-0.8035	0.5777	0.0939	-0.1079
3.08	0.1564	-9.4579	3.0374	0.0213	0.0063	-0.0168	19.4142	9.4662	-10.2718	-0.8036	0.5779	0.0939	-0.1079
3.09	0.1632	-9.4560	3.0537	0.0223	-0.0007	-0.0167	19.4351	9.5976	-10.3992	-0.8035	0.5778	0.0940	-0.1080
3.1	0.1727	-9.4459	3.0597	0.0261	0.0018	-0.0180	19.6008	9.5880	-10.3656	-0.8035	0.5779	0.0940	-0.1080
3.11	0.1724	-9.4221	3.0569	0.0225	0.0035	-0.0249	19.5805	9.7435	-10.2050	-0.8034	0.5778	0.0940	-0.1080
3.12	0.1734	-9.3861	3.0600	0.0300	0.0030	-0.0152	19.6077	9.6200	-10.3723	-0.8035	0.5779	0.0941	-0.1080
3.13	0.1485	-9.3468	3.0575	0.0292	-0.0004	-0.0113	19.5676	9.5390	-10.2664	-0.8035	0.5779	0.0941	-0.1081
3.14	0.1300	-9.3904	3.0691	0.0221	-0.0146	-0.0033	19.6787	9.6623	-10.4977	-0.8034	0.5779	0.0942	-0.1082
3.15	0.1478	-9.4053	3.1001	0.0243	-0.0151	-0.0069	19.7712	9.3967	-10.6117	-0.8034	0.5779	0.0942	-0.1083
3.16	0.1544	-9.3868	3.1113	0.0271	-0.0105	-0.0122	19.9394	9.4632	-10.4314	-0.8033	0.5779	0.0943	-0.1084
3.17	0.1614	-9.3513	3.1162	0.0243	-0.0155	-0.0060	19.6364	9.6524	-10.3995	-0.8034	0.5779	0.0944	-0.1085
3.18	0.1803	-9.3176	3.1326	0.0265	-0.0137	-0.0118	19.5564	9.4068	-10.5193	-0.8032	0.5779	0.0945	-0.1086
3.19	0.1973	-9.3214	3.1416	0.0194	-0.0059	-0.0059	19.8362	9.4933	-10.2506	-0.8033	0.5779	0.0945	-0.1087
3.2	0.1950	-9.3139	3.1309	0.0137	-0.0030	-0.0067	19.5431	9.6297	-10.2389	-0.8032	0.5780	0.0945	-0.1088
3.21	0.1845	-9.3355	3.1306	0.0047	-0.0032	-0.0050	19.4211	9.3903	-10.4949	-0.8031	0.5781	0.0945	-0.1089
3.22	0.1797	-9.3730	3.1200	-0.0023	-0.0056	-0.0098	19.3975	9.4611	-10.6146	-0.8030	0.5782	0.0946	-0.1090
3.23	0.1674	-9.3792	3.1183	0.0019	0.0102	-0.0070	19.5921	9.5383	-10.5863	-0.8029	0.5783	0.0946	-0.1090
3.24	0.1725	-9.4022	3.1067	-0.0021	0.0103	-0.0073	19.7495	9.5007	-10.3647	-0.8029	0.5785	0.0946	-0.1090
3.25	0.1706	-9.4050	3.1047	0.0001	0.0131	-0.0174	19.4862	9.2888	-10.2501	-0.8027	0.5785	0.0945	-0.1090
3.26	0.1640	-9.4006	3.1004	0.0029	0.0142	-0.0156	19.4003	9.5306	-10.6331	-0.8027	0.5787	0.0945	-0.1090
3.27	0.1520	-9.3873	3.0950	-0.0009	0.0218	-0.0163	19.5898	9.7414	-10.4579	-0.8026	0.5788	0.0945	-0.1090
3.28	0.1397	-9.3903	3.0914	-0.0005	0.0219	-0.0170	19.5872	9.7052	-10.2412	-0.8025	0.5790	0.0945	-0.1089
3.29	0.1300	-9.3824	3.0925	0.0005	0.0230	-0.0202	19.6081	9.5914	-10.5730	-0.8024	0.5791	0.0944	-0.1088
3.3	0.1289	-9.3780	3.0894	-0.0014	0.0189	-0.0158	19.5590	9.5424	-10.3131	-0.8024	0.5792	0.0944	-0.1088
3.31	0.1279	-9.3728	3.0923	-0.0014	0.0210	-0.0145	19.6811	9.8048	-10.1808	-0.8023	0.5793	0.0944	-0.1088
3.32	0.1271	-9.3742	3.0900	-0.0010	0.0187	-0.0123	19.6066	9.4785	-10.3916	-0.8021	0.5794	0.0943	-0.1087
3.33	0.1234	-9.3723	3.0920	-0.0046	0.0158	-0.0074	19.4793	9.5677	-10.6547	-0.8021	0.5796	0.0943	-0.1088
3.34	0.1261	-9.3825	3.0785	-0.0105	0.0102	-0.0073	19.8165	9.7607	-10.3702	-0.8020	0.5797	0.0943	-0.1088
3.35	0.1274	-9.4141	3.0680	-0.0182	0.0062	-0.0075	19.9596	9.6189	-10.3172	-0.8019	0.5800	0.0943	-0.1088
3.36	0.1274	-9.4425	3.0585	-0.0130	0.0163	-0.0075	20.3729	9.6118	-10.2799	-0.8017	0.5801	0.0942	-0.1088
3.37	0.1259	-9.4610	3.0540	-0.0077	0.0110	-0.0034	19.9712	9.2140	-10.4214	-0.8016	0.5803	0.0942	-0.1088
3.38	0.1238	-9.4775	3.0584	-0.0036	0.0029	-0.0048	19.7316	9.3448	-10.2276	-0.8015	0.5804	0.0942	-0.1089
3.39	0.1263	-9.4930	3.0611	0.0004	0.0055	-0.0036	19.6187	9.4041	-10.2351	-0.8014	0.5804	0.0943	-0.1089
3.4	0.1225	-9.4761	3.0599	0.0059	0.0142	-0.0046	19.4995	9.5536	-10.2818	-0.8015	0.5806	0.0943	-0.1089
3.41	0.1094	-9.4540	3.0616	0.0128	0.0146	-0.0032	19.5620	9.4961	-10.1451	-0.8013	0.5806	0.0942	-0.1089
3.42	0.1027	-9.4434	3.0668	0.0223	0.0167	-0.0054	19.5034	9.3956	-10.2041	-0.8014	0.5807	0.0942	-0.1090
3.43	0.0940	-9.4178	3.0670	0.0149	0.0143	-0.0043	19.5763	9.6447	-10.1647	-0.8012	0.5806	0.0941	-0.1090
3.44	0.0887	-9.3926	3.0712	0.0252	0.0181	-0.0033	19.3484	9.4873	-10.2084	-0.8013	0.5807	0.0940	-0.1090
3.45	0.0767	-9.3730	3.0734	0.0168	0.0215	-0.0034	19.6338	9.5904	-10.1333	-0.8012	0.5808	0.0940	-0.1090
3.46	0.0742	-9.3491	3.0707	0.0142	0.0142	-0.0069	19.6837	9.6264	-10.0530	-0.8012	0.5808	0.0939	-0.1090
3.47	0.0625	-9.3415	3.0734	0.0073	0.0148	-0.0065	19.3941	9.7111	-10.3286	-0.8012	0.5809	0.0939	-0.1091
3.48	0.0650	-9.3546	3.0708	0.0059	0.0124	-0.0075	19.7257	9.5707	-10.2324	-0.8011	0.5810	0.0939	-0.1091
3.49	0.0783	-9.3484	3.0750	0.0036	0.0115	-0.0067	19.4652	9.2903	-10.1570	-0.8011	0.5811	0.0939	-0.1091
3.5	0.0900	-9.3630	3.0840	-0.0002	0.0066	-0.0126	19.3392	9.5619	-10.1937	-0.8009	0.5811	0.0939	-0.1091
3.51	0.0925	-9.3898	3.0988	0.0112	0.0049	-0.0129	19.5825	9.5829	-10.2859	-0.8009	0.5813	0.0939	-0.1091
3.52	0.0964	-9.4215	3.1139	0.0064	0.0101	-0.0111	19.6564	9.4004	-10.2709	-0.8008	0.5813	0.0939	-0.1091
3.53	0.0940	-9.4102	3.1180	0.0019	0.0173	-0.0175	19.8194	9.4521	-10.2651	-0.8008	0.5814	0.0939	-0.1091
3.54	0.0797	-9.3687	3.0996	0.0011	0.0139	-0.0143	19.6953	9.4522	-10.2824	-0.8007	0.5815	0.0939	-0.1091
3.55	0.0776	-9.3291	3.0791	0.0009	0.0091	-0.0174	19.8544	9.3979	-10.3767	-0.8006	0.5816	0.0939	-0.1091
3.56	0.0830	-9.3272	3.0788	-0.0014	0.0069	-0.0128	19.6989	9.3912	-10.3680	-0.8006	0.5817	0.0939	-0.1091
3.57	0.1047	-9.3726	3.0845	-0.0208	0.0011	-0.0110	19.7975	9.4718	-10.2935	-0.8004	0.5818	0.0940	-0.1091
3.58	0.1207	-9.4091	3.0865	-0.0222	0.0058	-0.0108	19.7905	9.3269	-10.1370	-0.8003	0.5821	0.0940	-0.1091
3.59	0.1274	-9.4146	3.0725	-0.0245	0.0051	-0.0124	19.5377	9.5234	-10.2374	-0.8001	0.5822	0.0940	-0.1091
3.6	0.1327	-9.4153	3.0576	-0.0165	0.0109	-0.0078	19.7578	9.7870	-10.3070	-0.8001	0.5825	0.0941	-0.1091
3.61	0.1240	-9.4448	3.0478	-0.0214	0.0133	-0.0038	19.5882	9.8010	-10.1723	-0.7998	0.5826	0.0940	-0.1091
3.62	0.1235	-9.4714	3.0237	-0.0237	0.0197	-0.0095	19.5631	9.6799	-10.3221	-0.7998	0.5828	0.0940	-0.1091
3.63	0.1090	-9.4713	3.0106	-0.0169	0.0159	-0.0068	19.6143	9.7181	-10.0178	-0.7996	0.5830	0.0940	-0.1091
3.64	0.0845	-9.4559	2.9866	-0.0186	0.0172	-0.0073	19.4089	9.7047	-10.0584	-0.7995	0.5831	0.0940	-0.1090
3.65	0.0762	-9.4603	2.9759	-0.0102	0.0152	-0.0075	19.5666	9.6002	-10.3284	-0.7995	0.5833	0.0940	-0.1091
3.66	0.0776	-9.4526	2.9729	-0.0021	0.0141	-0.0051	19.4985	9.6326	-10.2303	-0.7993	0.5834	0.0939	-0.1091
3.67	0.0826	-9.4410	2.9749	-0.0061	0.0015	-0.0105	19.3897	9.5943	-10.1178	-0.7993	0.5835	0.0940	-0.1091
3.68	0.0854	-9.4305	2.9839	0.0013	0.0017	-0.0082	19.6592	9.7243	-9.9826	-0.7991	0.5836	0.0940	-0.1091
3.69	0.0850	-9.4404	2.9900	-0.0035	-0.0002	-0.0111	19.5798	9.7916	-10.0182	-0.7991	0.5837	0.0940	-0.1092
3.7	0.0783	-9.4452	2.9917	0.0057	-0.0004	-0.0096	19.3948	9.4669	-10.1545	-0.7990	0.5838	0.0941	-0.1092
3.71	0.0751	-9.4490	2.9835	0.0039	-0.0028	-0.0095	19.8114	9.4145	-10.2481	-0.7990	0.5838	0.0941	-0.1092
3.72	0.0883	-9.4726	2.9866	0.0034	-0.0063	-0.0158	19.8059	9.4811	-10.4028	-0.7989	0.5839	0.0942	-0.1093
3.73	0.1020	-9.4932	2.9924	-0.0037	-0.0107	-0.0177	19.6555	9.3634	-10.1596	-0.7988	0.5840	0.0943	-0.1093
3.74	0.1218	-9.4996	2.9888	0.0067	-0.0174	-0.0157	19.6053	9.2261	-10.0855	-0.7988	0.5840	0.0945	-0.1093
3.75	0.1421	-9.4966	3.0007	0.0132	-0.0176	-0.0107	19.6294	9.3556	-10.4107	-0.7987	0.5840	0.0946	-0.1094
3.76	0.1604	-9.4817	2.9790	0.0166	-0.0146	-0.0084	19.4913	9.3763	-10.2084	-0.7987	0.5841	0.0947	-0.1095
3.77	0.1528	-9.4555	2.9860	0.0232	-0.0151	-0.0060	19.5953	9.4508	-10.0293	-0.7987	0.5840	0.0948	-0.1096
3.78	0.1421	-9.5040	2.9968	0.0193	-0.0162	-0.0059	19.8748	9.4915	-10.1884	-0.7987	0.5840	0.0949	-0.1097
3.79	0.1499	-9.5165	3.0150	0.0341	-0.0167	-0.0037	19.4660	9.7214	-10.1795	-0.7987	0.5839	0.0950	-0.1098
3.8	0.1488	-9.4774	3.0393	0.0401	-0.0138	-0.0045	19.4895	9.7176	-10.0788	-0.7987	0.5838	0.0951	-0.1099
3.81	0.1496	-9.4085	3.0431	0.0489	-0.0122	-0.0037	19.7160	9.8339	-10.3096	-0.7988	0.5837	0.0951	-0.1100
3.82	0.1586	-9.3479	3.0617	0.0471	-0.0050	-0.0042	19.4092	9.6993	-10.1679	-0.7988	0.5836	0.0951	-0.1101
3.83	0.1411	-9.3265	3.0781	0.0409	0.0039	-0.0037	19.5727	9.5927	-10.3180	-0.7990	0.5836	0.0951	-0.1102
3.84	0.1115	-9.3139	3.0860	0.0302	0.0065	-0.0048	19.6380	9.6548	-10.0594	-0.7989	0.5835	0.0951	-0.1102
3.85	0.0824	-9.3037	3.0923	0.0239	0.0216	-0.0068	19.8945	9.7776	-9.9908	-0.7990	0.5835	0.0951	-0.1103
3.86	0.0265	-9.2970	3.0824	0.0210	0.0171	-0.0082	20.3253	9.9195	-9.9710	-0.7989	0.5835	0.0950	-0.1102
3.87	0.0006	-9.3132	3.0686	0.0077	0.0098	-0.0081	19.8281	9.3259	-10.1269	-0.7989	0.5835	0.0950	-0.1103
3.88	-0.0048	-9.3198	3.0670	-0.0041	-0.0043	-0.0173	19.5992	9.3498	-10.1998	-0.7989	0.5836	0.0951	-0.1103
3.89	0.0042	-9.3541	3.0517	-0.0218	-0.0117	-0.0227	19.5676	9.3382	-10.0808	-0.7987	0.5837	0.0952	-0.1103
3.9	0.0228	-9.3967	3.0407	-0.0151	-0.0145	-0.0234	19.7044	9.4787	-10.2614	-0.7987	0.5839	0.0954	-0.1103
3.91	0.0464	-9.4223	3.0226	-0.0212	-0.0208	-0.0316	19.7938	9.4113	-10.3256	-0.7985	0.5840	0.0956	-0.1103
3.92	0.0746	-9.4598	3.0164	-0.0145	-0.0306	-0.0285	19.7605	9.6179	-10.3045	-0.7985	0.5841	0.0958	-0.1103
3.93	0.0998	-9.4836	3.0063	-0.0053	-0.0354	-0.0290	19.7778	9.5516	-10.3184	-0.7983	0.5841	0.0960	-0.1104
3.94	0.1277	-9.4983	2.9976	-0.0054	-0.0322	-0.0278	19.7626	9.4470	-10.4086	-0.7983	0.5843	0.0963	-0.1104
3.95	0.1587	-9.4963	2.9944	-0.0011	-0.0420	-0.0315	19.6075	9.5982	-10.2419	-0.7982	0.5843	0.0966	-0.1105
3.96	0.1830	-9.4901	2.9955	0.0079	-0.0408	-0.0283	19.5943	9.7412	-10.5152	-0.7981	0.5843	0.0969	-0.1105
3.97	0.2048	-9.4752	3.0057	0.0203	-0.0413	-0.0250	19.5878	9.5858	-10.3970	-0.7981	0.5843	0.0971	-0.1107
3.98	0.2214	-9.4622	3.0078	0.0173	-0.0384	-0.0208	19.7495	9.5913	-10.4122	-0.7981	0.5842	0.0973	-0.1108
3.99	0.2286	-9.4473	3.0053	0.0245	-0.0223	-0.0187	19.5385	9.5754	-10.1508	-0.7981	0.5842	0.0975	-0.1108
4	0.2345	-9.4345	3.0125	0.0210	-0.0244	-0.0201	19.4956	9.6103	-10.1893	-0.7980	0.5841	0.0976	-0.1109
4.01	0.2409	-9.4309	3.0183	0.0225	-0.0210	-0.0153	19.4949	9.7336	-10.3867	-0.7981	0.5841	0.0978	-0.1110
4.02	0.2407	-9.4316	3.0229	0.0188	-0.0072	-0.0160	19.2350	9.5801	-10.2142	-0.7981	0.5841	0.0979	-0.1110
4.03	0.2223	-9.4287	3.0306	0.0192	-0.0065	-0.0140	19.5031	9.6614	-10.0248	-0.7981	0.5841	0.0979	-0.1111
4.04	0.2090	-9.4193	3.0322	0.0218	-0.0017	-0.0135	19.5997	9.6066	-10.1328	-0.7981	0.5840	0.0980	-0.1111
4.05	0.1816	-9.4225	3.0292	0.0218	-0.0050	-0.0068	19.6101	9.4116	-10.2812	-0.7981	0.5840	0.0980	-0.1112
4.06	0.1631	-9.4217	3.0274	0.0201	-0.0054	-0.0061	19.5403	9.7077	-10.3032	-0.7981	0.5840	0.0981	-0.1113
4.07	0.1476	-9.4170	3.0261	0.0178	0.0041	-0.0030	19.4860	9.6432	-10.4180	-0.7980	0.5839	0.0981	-0.1113
4.08	0.1320	-9.4201	3.0139	0.0205	0.0062	-0.0061	19.6242	9.6076	-10.3857	-0.7981	0.5840	0.0981	-0.1114
4.09	0.1279	-9.4158	3.0108	0.0190	0.0056	-0.0047	19.7276	9.5116	-10.4785	-0.7981	0.5840	0.0981	-0.1114
4.1	0.1260	-9.4266	3.0186	0.0202	0.0072	-0.0045	19.5512	9.5783	-10.6763	-0.7982	0.5840	0.0981	-0.1115
4.11	0.1195	-9.4234	3.0133	0.0190	0.0084	-0.0057	19.3687	9.3238	-10.3471	-0.7981	0.5839	0.0980	-0.1115
4.12	0.1170	-9.4206	3.0108	0.0106	0.0153	-0.0041	19.5819	9.5214	-10.4640	-0.7981	0.5840	0.0980	-0.1115
4.13	0.1041	-9.4280	3.0178	0.0187	0.0114	-0.0031	19.7466	9.5036	-10.4796	-0.7981	0.5840	0.0980	-0.1116
4.14	0.0985	-9.4359	3.0114	0.0198	0.0120	-0.0138	19.5039	9.4255	-10.2216	-0.7981	0.5839	0.0980	-0.1116
4.15	0.0872	-9.4283	3.0122	0.0224	0.0135	-0.0138	19.5019	9.4751	-10.0973	-0.7982	0.5840	0.0980	-0.1116
4.16	0.0705	-9.4254	3.0122	0.0158	0.0092	-0.0094	19.5149	9.2874	-10.3333	-0.7981	0.5839	0.0980	-0.1116
4.17	0.0605	-9.4082	3.0177	0.0226	0.0160	-0.0143	19.4975	9.5232	-10.4477	-0.7982	0.5839	0.0979	-0.1116
4.18	0.0628	-9.4941	3.0091	0.0065	0.0110	-0.0173	19.5078	9.5301	-10.3067	-0.7981	0.5839	0.0980	-0.1115
4.19	0.0491	-9.4069	2.9929	0.0211	0.0127	-0.0141	19.7170	9.6772	-10.3135	-0.7981	0.5839	0.0980	-0.1115
4.2	0.0352	-9.3817	3.0148	0.0194	-0.0003	-0.0183	19.4976	9.6908	-10.1562	-0.7981	0.5839	0.0980	-0.1115
4.21	0.0648	-9.4604	3.0224	0.0201	-0.0036	-0.0176	19.5276	9.5865	-10.1065	-0.7981	0.5838	0.0981	-0.1115
4.22	0.0637	-9.4499	3.0392	0.0268	-0.0064	-0.0255	19.3983	9.7558	-10.2702	-0.7982	0.5838	0.0982	-0.1115
4.23	0.0736	-9.4503	3.0509	0.0246	-0.0017	-0.0296	19.4549	9.6725	-10.3026	-0.7982	0.5837	0.0983	-0.1115
4.24	0.0828	-9.4364	3.0593	0.0233	-0.0095	-0.0190	19.5473	9.6108	-10.1850	-0.7983	0.5837	0.0984	-0.1115
4.25	0.0929	-9.4320	3.0578	0.0249	-0.0165	-0.0167	19.3959	9.6406	-10.3336	-0.7982	0.5836	0.0985	-0.1116
4.26	0.1125	-9.3767	3.0527	0.0238	-0.0207	-0.0086	19.4310	9.6092	-10.3192	-0.7983	0.5836	0.0986	-0.1117
4.27	0.1324	-9.3853	3.0508	0.0134	-0.0248	-0.0095	19.5631	9.6646	-10.3061	-0.7982	0.5835	0.0987	-0.1118
4.28	0.1617	-9.4391	3.0662	0.0088	-0.0212	-0.0076	19.6276	9.5202	-10.3847	-0.7982	0.5836	0.0989	-0.1119
4.29	0.1885	-9.4523	3.0710	0.0214	-0.0299	-0.0067	19.4618	9.6664	-10.5152	-0.7982	0.5835	0.0990	-0.1121
4.3	0.1957	-9.4245	3.0745	0.0242	-0.0217	-0.0107	19.6957	9.5534	-10.6258	-0.7982	0.5835	0.0991	-0.1122
4.31	0.1946	-9.4087	3.0764	0.0251	-0.0169	-0.0059	19.5770	9.4454	-10.3174	-0.7983	0.5834	0.0992	-0.1123
4.32	0.1876	-9.4060	3.0780	0.0231	-0.0094	-0.0062	19.4071	9.6755	-10.4099	-0.7982	0.5833	0.0992	-0.1124
4.33	0.1690	-9.3903	3.0850	0.0231	-0.0034	-0.0043	19.4019	9.4891	-10.3979	-0.7983	0.5833	0.0993	-0.1125
4.34	0.1401	-9.3838	3.0921	0.0254	0.0008	-0.0041	19.4986	9.6131	-10.2906	-0.7983	0.5832	0.0993	-0.1126
4.35	0.0898	-9.3836	3.0726	0.0191	0.0147	-0.0107	19.9371	9.5968	-10.3292	-0.7984	0.5833	0.0993	-0.1126
4.36	0.0707	-9.3681	3.0531	0.0174	0.0084	-0.0234	20.1453	9.4041	-10.2635	-0.7983	0.5832	0.0993	-0.1125
4.37	0.0826	-9.3531	3.0559	0.0057	0.0017	-0.0325	19.8695	9.3717	-10.5344	-0.7983	0.5832	0.0994	-0.1125
4.38	0.1155	-9.3738	3.0474	0.0032	-0.0056	-0.0359	19.5846	9.6314	-10.5364	-0.7983	0.5832	0.0995	-0.1124
4.39	0.1556	-9.3794	3.0460	-0.0015	-0.0058	-0.0365	19.3849	9.5418	-10.3280	-0.7982	0.5832	0.0997	-0.1124
4.4	0.1925	-9.3971	3.0422	-0.0010	-0.0121	-0.0367	19.5541	9.5809	-10.3039	-0.7983	0.5834	0.0998	-0.1124
4.41	0.2229	-9.4189	3.0396	0.0007	-0.0071	-0.0356	19.4966	9.5921	-10.3303	-0.7982	0.5833	0.1000	-0.1123
4.42	0.2396	-9.4387	3.0281	0.0007	-0.0006	-0.0312	19.4009	9.7575	-10.2924	-0.7982	0.5834	0.1001	-0.1123
4.43	0.2605	-9.4470	3.0279	0.0024	-0.0066	-0.0308	19.5438	9.7407	-10.5777	-0.7981	0.5833	0.1002	-0.1122
4.44	0.2738	-9.4593	3.0412	0.0035	-0.0080	-0.0246	19.6275	9.6545	-10.5399	-0.7981	0.5834	0.1003	-0.1122
4.45	0.2719	-9.4690	3.0299	0.0079	-0.0088	-0.0187	19.6206	9.4725	-10.3528	-0.7981	0.5834	0.1004	-0.1123
4.46	0.2640	-9.4709	3.0322	0.0170	-0.0077	-0.0047	19.6059	9.3032	-10.4392	-0.7981	0.5834	0.1005	-0.1123
4.47	0.2276	-9.4649	3.0187	0.0197	0.0005	-0.0042	19.6217	9.3079	-10.4389	-0.7981	0.5834	0.1005	-0.1124
4.48	0.1859	-9.4401	3.0095	0.0123	0.0075	-0.0015	19.8536	9.3508	-10.4970	-0.7981	0.5833	0.1004	-0.1125
4.49	0.1557	-9.4883	3.0200	0.0223	0.0015	0.0011	19.6904	9.6327	-10.7348	-0.7981	0.5833	0.1005	-0.1125
4.5	0.1584	-9.4965	3.0373	0.0227	0.0004	-0.0017	19.3808	9.3886	-10.3973	-0.7981	0.5832	0.1005	-0.1126
4.51	0.1647	-9.4870	3.0551	0.0265	-0.0015	-0.0039	19.7094	9.1947	-10.5021	-0.7982	0.5833	0.1005	-0.1127
4.52	0.1736	-9.4574	3.0583	0.0338	0.0005	-0.0031	19.7877	9.5706	-10.4967	-0.7982	0.5832	0.1005	-0.1127
4.53	0.1967	-9.4195	3.0882	0.0390	0.0059	-0.0021	19.6143	9.5283	-10.1922	-0.7983	0.5831	0.1005	-0.1128
4.54	0.1837	-9.4183	3.0915	0.0449	0.0256	0.0059	19.5177	9.3709	-10.5157	-0.7983	0.5829	0.1004	-0.1129
4.55	0.1556	-9.3983	3.0979	0.0467	0.0293	0.0046	19.4104	9.4278	-10.5121	-0.7984	0.5828	0.1002	-0.1129
4.56	0.1250	-9.3815	3.1093	0.0433	0.0441	-0.0031	19.6588	9.5478	-10.4370	-0.7986	0.5827	0.1001	-0.1129
4.57	0.0897	-9.3586	3.1067	0.0490	0.0421	-0.0034	19.4402	9.6818	-10.4641	-0.7986	0.5826	0.0999	-0.1128
4.58	0.0728	-9.3556	3.1141	0.0443	0.0426	-0.0022	19.4302	9.5421	-10.4684	-0.7988	0.5825	0.0997	-0.1128
4.59	0.0686	-9.3437	3.1158	0.0375	0.0460	-0.0088	19.4434	9.6272	-10.4090	-0.7989	0.5824	0.0995	-0.1127
4.6	0.0569	-9.3182	3.1175	0.0334	0.0480	-0.0139	19.4315	9.6871	-10.3490	-0.7990	0.5824	0.0994	-0.1126
4.61	0.0503	-9.3060	3.1177	0.0266	0.0465	-0.0234	19.4324	9.5667	-10.3702	-0.7990	0.5823	0.0992	-0.1125
4.62	0.0469	-9.3213	3.1195	0.0249	0.0441	-0.0265	19.6709	9.4568	-10.3520	-0.7991	0.5822	0.0991	-0.1124
4.63	0.0372	-9.3439	3.1134	0.0203	0.0389	-0.0270	19.3730	9.5609	-10.5696	-0.7991	0.5822	0.0990	-0.1122
4.64	0.0391	-9.3509	3.1119	0.0141	0.0341	-0.0292	19.6413	9.5342	-10.7660	-0.7991	0.5822	0.0990	-0.1121
4.65	0.0460	-9.3548	3.1176	0.0145	0.0297	-0.0285	19.5726	9.1595	-10.5854	-0.7993	0.5822	0.0990	-0.1120
4.66	0.0559	-9.3511	3.1008	0.0225	0.0190	-0.0280	19.7200	9.1406	-10.2370	-0.7992	0.5821	0.0989	-0.1119
4.67	0.0801	-9.3296	3.1019	0.0141	0.0072	-0.0293	19.7527	9.3678	-10.3102	-0.7993	0.5821	0.0990	-0.1118
4.68	0.1140	-9.3228	3.1042	0.0066	-0.0017	-0.0290	19.6789	9.5059	-10.5725	-0.7992	0.5821	0.0991	-0.1118
4.69	0.1467	-9.3264	3.1048	-0.0008	0.0014	-0.0249	19.8058	9.3616	-10.5170	-0.7993	0.5822	0.0992	-0.1118
4.7	0.1740	-9.3237	3.1034	-0.0134	-0.0095	-0.0308	19.4954	9.6340	-10.4271	-0.7992	0.5822	0.0993	-0.1118
4.71	0.1934	-9.3266	3.1054	-0.0219	0.0007	-0.0241	19.8378	9.6358	-10.4804	-0.7991	0.5823	0.0994	-0.1117
4.72	0.1964	-9.3499	3.0929	-0.0220	0.0092	-0.0249	19.6551	9.3390	-10.4160	-0.7990	0.5825	0.0994	-0.1117
4.73	0.1888	-9.3756	3.0722	-0.0284	0.0014	-0.0220	19.5059	9.4673	-10.5129	-0.7989	0.5826	0.0995	-0.1116
4.74	0.1773	-9.3892	3.0524	-0.0283	0.0087	-0.0246	19.4857	9.4664	-10.5095	-0.7988	0.5828	0.0996	-0.1116
4.75	0.1749	-9.4142	3.0350	-0.0300	0.0218	-0.0313	19.3161	9.5997	-10.4058	-0.7986	0.5828	0.0996	-0.1115
4.76	0.1762	-9.4351	3.0181	-0.0369	0.0142	-0.0294	19.4749	9.5304	-10.6201	-0.7986	0.5831	0.0997	-0.1114
4.77	0.1736	-9.4466	2.9975	-0.0330	0.0134	-0.0305	19.4045	9.5481	-10.2673	-0.7984	0.5832	0.0997	-0.1113
4.78	0.1803	-9.4624	2.9871	-0.0269	0.0087	-0.0298	19.5171	9.7860	-10.3792	-0.7984	0.5834	0.0998	-0.1112
4.79	0.1905	-9.4689	2.9714	-0.0259	0.0071	-0.0298	19.5335	9.7420	-10.3177	-0.7982	0.5835	0.0999	-0.1111
4.8	0.1966	-9.4746	2.9662	-0.0264	0.0083	-0.0301	19.5037	9.6234	-10.3490	-0.7981	0.5836	0.0999	-0.1111
4.81	0.2097	-9.4876	2.9735	-0.0253	0.0140	-0.0297	19.3801	9.5612	-10.6281	-0.7981	0.5838	0.1000	-0.1110
4.82	0.2255	-9.4952	2.9760	-0.0120	0.0217	-0.0275	19.5569	9.5222	-10.4344	-0.7979	0.5838	0.1000	-0.1109
4.83	0.2450	-9.4994	2.9824	-0.0058	0.0119	-0.0226	19.4712	9.3543	-10.4319	-0.7980	0.5840	0.1001	-0.1108
4.84	0.2600	-9.4884	2.9888	-0.0015	0.0184	-0.0259	19.8117	9.4770	-10.2208	-0.7979	0.5840	0.1001	-0.1107
4.85	0.2636	-9.4806	3.0024	-0.0007	0.0247	-0.0275	20.1023	9.4462	-10.5161	-0.7979	0.5841	0.1001	-0.1106
4.86	0.2602	-9.4714	3.0090	-0.0009	0.0354	-0.0241	20.0568	9.2873	-10.2767	-0.7978	0.5841	0.1001	-0.1105
4.87	0.2632	-9.4584	3.0183	0.0018	0.0416	-0.0253	19.8049	9.2044	-10.2906	-0.7979	0.5842	0.1000	-0.1103
4.88	0.2594	-9.4326	3.0147	0.0042	0.0428	-0.0265	19.7260	9.4991	-10.1028	-0.7979	0.5842	0.0999	-0.1102
4.89	0.2711	-9.4204	3.0152	0.0071	0.0525	-0.0295	19.4992	9.6042	-10.4012	-0.7978	0.5842	0.0997	-0.1100
4.9	0.2910	-9.4205	3.0355	0.0042	0.0589	-0.0275	19.4035	9.5068	-10.5152	-0.7980	0.5843	0.0996	-0.1098
4.91	0.2939	-9.4235	3.0321	0.0096	0.0614	-0.0280	19.4095	9.5436	-10.1033	-0.7979	0.5843	0.0994	-0.1096
4.92	0.2843	-9.4080	3.0279	0.0045	0.0688	-0.0290	19.4858	9.5117	-10.1671	-0.7980	0.5844	0.0993	-0.1094
4.93	0.2665	-9.3810	3.0164	0.0033	0.0825	-0.0267	19.5178	9.6265	-10.1183	-0.7979	0.5843	0.0990	-0.1091
4.94	0.2478	-9.3664	3.0065	-0.0011	0.0871	-0.0318	19.3979	9.6086	-10.1624	-0.7980	0.5845	0.0988	-0.1088
4.95	0.2324	-9.3933	3.0033	-0.0057	0.0895	-0.0331	19.4097	9.8053	-10.2954	-0.7980	0.5845	0.0985	-0.1085
4.96	0.2255	-9.4126	2.9858	-0.0126	0.0950	-0.0384	19.4930	9.7119	-10.3661	-0.7980	0.5847	0.0982	-0.1082
4.97	0.2344	-9.4204	2.9855	-0.0181	0.0882	-0.0420	19.5204	9.7052	-10.1929	-0.7980	0.5848	0.0980	-0.1078
4.98	0.2470	-9.4261	2.9812	-0.0128	0.0882	-0.0390	19.3736	9.8309	-10.1642	-0.7980	0.5849	0.0978	-0.1075
4.99	0.2637	-9.4265	2.9875	-0.0092	0.1000	-0.0481	19.4899	9.7319	-10.2838	-0.7980	0.5850	0.0975	-0.1071
5	0.2727	-9.4278	3.0000	-0.0125	0.1061	-0.0423	19.6011	9.6033	-10.1355	-0.7979	0.5851	0.0972	-0.1067
5.01	0.2725	-9.4340	2.9980	-0.0055	0.1124	-0.0352	19.4983	9.6353	-10.0203	-0.7980	0.5853	0.0969	-0.1063
5.02	0.2890	-9.4122	3.0008	-0.0012	0.1198	-0.0358	19.8313	9.5898	-10.1015	-0.7980	0.5853	0.0966	-0.1059
5.03	0.2929	-9.3509	2.9995	-0.0049	0.1310	-0.0410	19.6105	9.7147	-10.1692	-0.7981	0.5855	0.0962	-0.1054
5.04	0.2826	-9.3640	3.0063	-0.0145	0.1480	-0.0477	19.5847	9.6796	-10.1222	-0.7981	0.5856	0.0957	-0.1049
5.05	0.2753	-9.4140	3.0120	-0.0252	0.1478	-0.0481	19.6018	9.6332	-10.1629	-0.7981	0.5858	0.0953	-0.1043
5.06	0.2617	-9.3783	3.0156	-0.0229	0.1613	-0.0470	19.5947	9.7270	-10.0924	-0.7981	0.5860	0.0948	-0.1037
5.07	0.2345	-9.3349	2.9847	-0.0290	0.1715	-0.0541	19.5933	9.6948	-9.9465	-0.7980	0.5861	0.0943	-0.1031
5.08	0.2219	-9.3193	2.9750	-0.0374	0.1861	-0.0528	19.6126	9.7919	-10.0743	-0.7980	0.5865	0.0937	-0.1024
5.09	0.2148	-9.3654	2.9755	-0.0524	0.1904	-0.0569	19.4187	9.8324	-10.0505	-0.7979	0.5868	0.0932	-0.1017
5.1	0.2000	-9.4385	2.9838	-0.0500	0.1944	-0.0586	19.4948	9.6373	-10.0283	-0.7979	0.5871	0.0926	-0.1009
5.11	0.1872	-9.4960	3.0085	-0.0510	0.2031	-0.0566	19.5040	9.6111	-9.7138	-0.7977	0.5874	0.0920	-0.1002
5.12	0.1681	-9.5225	3.0112	-0.0491	0.2234	-0.0561	19.4089	9.8350	-9.8467	-0.7977	0.5878	0.0914	-0.0993
5.13	0.1266	-9.5642	3.0213	-0.0551	0.2275	-0.0495	19.5639	9.8126	-9.8312	-0.7976	0.5881	0.0907	-0.0985
5.14	0.0626	-9.6176	3.0080	-0.0558	0.2375	-0.0426	19.4017	9.9916	-9.6928	-0.7975	0.5885	0.0899	-0.0977
5.15	-0.0400	-9.5843	2.9717	-0.0518	0.2531	-0.0397	19.4373	9.9706	-9.6610	-0.7975	0.5889	0.0891	-0.0968
5.16	-0.1381	-9.5215	2.9148	-0.0527	0.2484	-0.0462	19.5415	9.9515	-9.4822	-0.7974	0.5892	0.0883	-0.0959
5.17	-0.1998	-9.4774	2.8569	-0.0604	0.2349	-0.0500	19.4388	9.8237	-9.6771	-0.7973	0.5897	0.0876	-0.0951
5.18	-0.2289	-9.4636	2.8114	-0.0603	0.2085	-0.0561	19.4020	10.0871	-9.3632	-0.7971	0.5900	0.0869	-0.0942
5.19	-0.2174	-9.4727	2.7972	-0.0522	0.1862	-0.0633	19.4611	10.0406	-9.4592	-0.7971	0.5903	0.0864	-0.0935
5.2	-0.1789	-9.4745	2.7982	-0.0421	0.1716	-0.0631	19.5251	9.7646	-9.5060	-0.7970	0.5906	0.0859	-0.0928
5.21	-0.1416	-9.4739	2.7885	-0.0247	0.1605	-0.0649	19.4964	9.8942	-9.5033	-0.7970	0.5908	0.0855	-0.0921
5.22	-0.1201	-9.4538	2.8009	-0.0039	0.1443	-0.0673	19.6099	9.8719	-9.4924	-0.7970	0.5909	0.0851	-0.0915
5.23	-0.1147	-9.4083	2.8120	0.0113	0.1373	-0.0664	19.4830	9.9196	-9.2545	-0.7971	0.5909	0.0847	-0.0909
5.24	-0.1159	-9.3595	2.8415	0.0276	0.1249	-0.0605	19.7676	9.7961	-9.4157	-0.7972	0.5909	0.0844	-0.0904
5.25	-0.1207	-9.3568	2.8894	0.0242	0.1125	-0.0516	19.7954	9.8910	-9.3307	-0.7973	0.5908	0.0841	-0.0899
5.26	-0.1351	-9.3774	2.9359	0.0232	0.0929	-0.0522	19.6532	9.9731	-9.2906	-0.7974	0.5908	0.0839	-0.0896
5.27	-0.1416	-9.3884	2.9759	0.0040	0.0830	-0.0436	19.7227	10.0466	-9.2256	-0.7974	0.5909	0.0837	-0.0892
5.28	-0.1615	-9.3358	2.9648	-0.0044	0.0606	-0.0485	19.6082	10.2422	-9.5150	-0.7975	0.5909	0.0836	-0.0889
5.29	-0.2008	-9.2812	2.9214	-0.0281	0.0431	-0.0440	19.5927	9.8110	-9.4282	-0.7974	0.5911	0.0835	-0.0887
5.3	-0.2166	-9.3359	2.8824	-0.0632	0.0041	-0.0454	19.7253	10.0925	-9.2341	-0.7972	0.5913	0.0836	-0.0885
5.31	-0.1808	-9.4279	2.8686	-0.0784	-0.0341	-0.0476	19.4373	10.1635	-9.3143	-0.7969	0.5917	0.0839	-0.0885
5.32	-0.1302	-9.4990	2.8525	-0.0850	-0.0659	-0.0442	19.4261	10.1670	-9.2515	-0.7966	0.5919	0.0843	-0.0885
5.33	-0.0741	-9.5526	2.8299	-0.0880	-0.1004	-0.0421	19.4060	9.9216	-9.0211	-0.7963	0.5924	0.0849	-0.0887
5.34	-0.0070	-9.5900	2.8004	-0.0876	-0.1244	-0.0362	19.4675	9.9190	-9.0152	-0.7959	0.5927	0.0856	-0.0889
5.35	0.0513	-9.6129	2.7718	-0.0837	-0.1440	-0.0306	19.8137	10.2618	-8.9243	-0.7956	0.5930	0.0863	-0.0893
5.36	0.0960	-9.6005	2.7421	-0.0773	-0.1644	-0.0221	20.1882	10.3122	-9.0248	-0.7952	0.5933	0.0871	-0.0897
5.37	0.1464	-9.5944	2.7154	-0.0719	-0.1804	-0.0221	19.8654	10.1191	-9.2963	-0.7949	0.5936	0.0879	-0.0901
5.38	0.2058	-9.6012	2.7159	-0.0580	-0.1940	-0.0173	19.4795	10.1949	-9.3468	-0.7946	0.5938	0.0888	-0.0907
5.39	0.2687	-9.6211	2.7226	-0.0459	-0.2066	-0.0170	19.3912	9.8677	-9.3957	-0.7942	0.5939	0.0897	-0.0913
5.4	0.3437	-9.6680	2.7395	-0.0306	-0.2143	-0.0302	19.6781	9.8596	-9.4199	-0.7941	0.5940	0.0907	-0.0918
5.41	0.4194	-9.6735	2.7663	-0.0134	-0.2108	-0.0357	19.4284	9.9386	-9.4419	-0.7939	0.5940	0.0917	-0.0924
5.42	0.5115	-9.6659	2.7952	0.0016	-0.2093	-0.0415	19.5827	9.9736	-9.5674	-0.7938	0.5940	0.0927	-0.0929
5.43	0.6223	-9.6545	2.8330	0.0220	-0.1976	-0.0444	19.6702	9.9803	-9.3675	-0.7936	0.5938	0.0936	-0.0934
5.44	0.7086	-9.6027	2.8728	0.0412	-0.1750	-0.0513	19.3696	10.0396	-9.5925	-0.7937	0.5936	0.0945	-0.0938
5.45	0.7732	-9.5634	2.9037	0.0515	-0.1476	-0.0614	19.5578	9.9703	-9.5538	-0.7937	0.5934	0.0953	-0.0941
5.46	0.8412	-9.5588	2.9457	0.0525	-0.1272	-0.0647	19.4577	10.1863	-9.4979	-0.7938	0.5931	0.0960	-0.0943
5.47	0.8897	-9.5576	3.0025	0.0626	-0.1014	-0.0711	19.4555	10.0253	-9.6073	-0.7939	0.5929	0.0966	-0.0944
5.48	0.9270	-9.5476	3.0295	0.0735	-0.0639	-0.0762	19.5625	10.2157	-9.7840	-0.7940	0.5926	0.0971	-0.0944
5.49	0.9372	-9.4545	3.0442	0.0762	-0.0235	-0.0767	19.1053	10.2241	-9.6998	-0.7943	0.5923	0.0975	-0.0943
5.5	0.9308	-9.3625	3.0444	0.0776	0.0066	-0.0784	19.0944	10.2388	-9.4596	-0.7944	0.5919	0.0977	-0.0941
5.51	0.9133	-9.2938	3.0441	0.0780	0.0416	-0.0782	19.0850	10.2124	-9.7995	-0.7947	0.5917	0.0978	-0.0937
5.52	0.8659	-9.2292	3.0312	0.0636	0.0717	-0.0788	19.2922	10.2777	-9.5979	-0.7949	0.5915	0.0977	-0.0933
5.53	0.7933	-9.1568	3.0167	0.0510	0.1023	-0.0772	19.1487	10.3433	-9.7118	-0.7951	0.5914	0.0976	-0.0928
5.54	0.7227	-9.1360	2.9927	0.0318	0.1283	-0.0727	18.9674	10.2103	-9.6874	-0.7952	0.5913	0.0973	-0.0922
5.55	0.6435	-9.1372	2.9698	0.0116	0.1455	-0.0693	19.0390	10.2348	-9.6261	-0.7953	0.5914	0.0969	-0.0916
5.56	0.5723	-9.1657	2.9593	-0.0238	0.1573	-0.0640	19.1693	10.4278	-9.7510	-0.7953	0.5916	0.0966	-0.0909
5.57	0.5174	-9.2116	2.9293	-0.0325	0.1581	-0.0534	19.1988	10.2660	-9.6236	-0.7952	0.5917	0.0961	-0.0903
5.58	0.4663	-9.2542	2.9084	-0.0547	0.1620	-0.0512	19.1663	9.8871	-9.4613	-0.7952	0.5921	0.0957	-0.0896
5.59	0.4248	-9.3354	2.8915	-0.0755	0.1592	-0.0547	19.3603	10.0471	-9.6174	-0.7949	0.5925	0.0953	-0.0890
5.6	0.4034	-9.3983	2.8713	-0.0824	0.1528	-0.0460	19.3089	10.0435	-9.7425	-0.7948	0.5930	0.0949	-0.0884
5.61	0.3919	-9.4293	2.8338	-0.0899	0.1482	-0.0416	19.1624	10.0705	-9.6100	-0.7945	0.5933	0.0944	-0.0878
5.62	0.3698	-9.4344	2.7850	-0.0976	0.1387	-0.0372	19.3093	10.1410	-9.4460	-0.7943	0.5939	0.0940	-0.0873
5.63	0.3506	-9.4375	2.7343	-0.1043	0.1403	-0.0413	19.2437	10.2034	-9.2797	-0.7940	0.5944	0.0936	-0.0867
5.64	0.3369	-9.5094	2.7050	-0.1088	0.1316	-0.0307	19.3702	10.2337	-9.4416	-0.7937	0.5948	0.0932	-0.0862
5.65	0.3189	-9.5976	2.6999	-0.1065	0.1171	-0.0290	19.3648	10.2444	-9.2375	-0.7935	0.5954	0.0929	-0.0858
5.66	0.2927	-9.6681	2.6699	-0.1095	0.1061	-0.0300	19.2252	10.4767	-9.1950	-0.7931	0.5959	0.0927	-0.0854
5.67	0.2854	-9.6841	2.6385	-0.1069	0.0966	-0.0297	19.1296	10.3498	-8.9619	-0.7928	0.5965	0.0925	-0.0850
5.68	0.2752	-9.6842	2.5911	-0.1033	0.0949	-0.0295	18.9829	10.6113	-9.4037	-0.7924	0.5969	0.0922	-0.0846
5.69	0.2837	-9.6851	2.5665	-0.0876	0.0803	-0.0283	19.1549	10.6680	-9.0696	-0.7922	0.5974	0.0921	-0.0843
5.7	0.3164	-9.7362	2.5733	-0.0768	0.0684	-0.0340	19.1915	10.6969	-9.1136	-0.7919	0.5978	0.0920	-0.0839
5.71	0.3574	-9.8188	2.5805	-0.0755	0.0592	-0.0329	19.1983	10.5781	-9.1981	-0.7917	0.5981	0.0919	-0.0837
5.72	0.4034	-9.8867	2.6000	-0.0551	0.0572	-0.0371	19.1695	10.6909	-9.0356	-0.7915	0.5984	0.0918	-0.0834
5.73	0.4567	-9.9029	2.6150	-0.0430	0.0571	-0.0400	19.1018	10.6419	-8.9709	-0.7914	0.5987	0.0918	-0.0831
5.74	0.5157	-9.8695	2.6126	-0.0085	0.0638	-0.0434	19.2566	10.5582	-8.9678	-0.7913	0.5988	0.0917	-0.0828
5.75	0.5764	-9.8278	2.6234	0.0202	0.0718	-0.0396	18.9818	10.6028	-8.9891	-0.7913	0.5988	0.0915	-0.0825
5.76	0.6365	-9.7931	2.6471	0.0397	0.0761	-0.0497	19.1307	10.5626	-9.0552	-0.7915	0.5987	0.0914	-0.0821
5.77	0.7045	-9.7619	2.6880	0.0654	0.0955	-0.0528	19.2435	10.2981	-9.1131	-0.7917	0.5985	0.0912	-0.0817
5.78	0.7648	-9.7317	2.7294	0.0865	0.1209	-0.0546	19.3016	10.4091	-9.1623	-0.7920	0.5983	0.0909	-0.0813
5.79	0.8117	-9.6808	2.7760	0.1050	0.1495	-0.0525	19.1551	10.3222	-9.1710	-0.7923	0.5980	0.0904	-0.0807
5.8	0.8379	-9.6219	2.8246	0.1247	0.1766	-0.0496	19.3409	10.1888	-9.0971	-0.7927	0.5976	0.0899	-0.0801
5.81	0.8627	-9.5850	2.8789	0.1371	0.2050	-0.0578	19.3637	10.3169	-9.0963	-0.7932	0.5972	0.0892	-0.0794
5.82	0.8820	-9.5740	2.9480	0.1447	0.2432	-0.0590	19.3814	10.3196	-9.1954	-0.7936	0.5967	0.0884	-0.0786
5.83	0.8773	-9.5413	2.9960	0.1551	0.2821	-0.0649	19.2338	10.3465	-8.9041	-0.7942	0.5963	0.0875	-0.0777
5.84	0.8511	-9.4753	3.0350	0.1550	0.3297	-0.0668	19.0545	10.2945	-8.8593	-0.7948	0.5958	0.0864	-0.0766
5.85	0.7956	-9.4260	3.0384	0.1538	0.3677	-0.0699	19.4107	10.7087	-8.6424	-0.7954	0.5955	0.0851	-0.0753
5.86	0.7150	-9.3556	3.0522	0.1523	0.3952	-0.0703	19.7573	10.9933	-8.4522	-0.7959	0.5949	0.0837	-0.0740
5.87	0.6182	-9.3166	3.0504	0.1497	0.4370	-0.0705	19.6456	10.4057	-8.6828	-0.7965	0.5946	0.0822	-0.0726
5.88	0.5208	-9.2600	3.0470	0.1377	0.4532	-0.0721	19.4836	10.4880	-8.7774	-0.7971	0.5942	0.0806	-0.0711
5.89	0.4187	-9.1890	3.0391	0.1291	0.4644	-0.0686	19.1905	10.4876	-8.6183	-0.7976	0.5939	0.0789	-0.0695
5.9	0.3283	-9.1783	3.0415	0.1108	0.4648	-0.0703	19.2419	10.7213	-8.5381	-0.7982	0.5937	0.0773	-0.0680
5.91	0.2484	-9.2246	3.0502	0.0974	0.4679	-0.0695	19.3602	10.5262	-8.6863	-0.7985	0.5934	0.0756	-0.0664
5.92	0.1567	-9.2317	3.0623	0.0830	0.4634	-0.0667	19.0385	10.7235	-8.5424	-0.7990	0.5933	0.0740	-0.0649
5.93	0.0588	-9.2458	3.0547	0.0742	0.4547	-0.0633	19.1645	10.4876	-8.5527	-0.7992	0.5931	0.0723	-0.0633
5.94	-0.0109	-9.2707	3.0507	0.0647	0.4323	-0.0548	19.2253	10.4403	-8.5068	-0.7996	0.5931	0.0708	-0.0619
5.95	-0.0655	-9.3149	3.0543	0.0486	0.3966	-0.0612	19.2919	10.5258	-8.6218	-0.7999	0.5931	0.0694	-0.0606
5.96	-0.1170	-9.3332	3.0364	0.0270	0.3703	-0.0506	19.3135	10.5789	-8.5680	-0.8000	0.5931	0.0680	-0.0593
5.97	-0.1738	-9.3301	3.0159	0.0252	0.3414	-0.0401	19.4578	10.6150	-8.4492	-0.8002	0.5932	0.0667	-0.0582
5.98	-0.2446	-9.3399	2.9735	0.0051	0.3058	-0.0266	19.4703	10.3318	-8.4069	-0.8003	0.5932	0.0656	-0.0573
5.99	-0.3178	-9.3740	2.9296	-0.0114	0.2672	-0.0263	19.4192	10.3881	-8.3494	-0.8003	0.5934	0.0646	-0.0565
6	-0.4079	-9.4246	2.8832	-0.0295	0.2175	-0.0137	19.2268	10.5366	-8.2731	-0.8002	0.5936	0.0637	-0.0558
6.01	-0.4761	-9.4901	2.8363	-0.0466	0.1586	-0.0050	19.2491	10.4899	-8.2729	-0.8002	0.5939	0.0631	-0.0554
6.02	-0.5351	-9.5574	2.8069	-0.0497	0.0828	0.0101	19.5011	10.7454	-8.3884	-0.8000	0.5942	0.0627	-0.0552
6.03	-0.6086	-9.6168	2.7561	-0.0505	0.0216	0.0180	19.2926	10.7479	-8.0680	-0.7998	0.5945	0.0626	-0.0553
6.04	-0.6622	-9.6800	2.7082	-0.0322	-0.0556	0.0307	19.4447	10.4861	-8.0884	-0.7996	0.5946	0.0627	-0.0556
6.05	-0.6693	-9.7434	2.6830	-0.0197	-0.1330	0.0439	19.3834	10.6525	-8.0584	-0.7994	0.5948	0.0631	-0.0562
6.06	-0.6500	-9.8210	2.6761	0.0050	-0.2115	0.0444	19.2959	10.5810	-8.1494	-0.7993	0.5948	0.0639	-0.0570
6.07	-0.5789	-9.8404	2.7009	0.0283	-0.2984	0.0529	19.3519	11.0123	-8.1990	-0.7992	0.5947	0.0649	-0.0581
6.08	-0.4767	-9.9443	2.7183	0.0561	-0.3755	0.0614	19.2985	10.7068	-8.0597	-0.7992	0.5945	0.0662	-0.0596
6.09	-0.3704	-9.8962	2.7259	0.1086	-0.4366	0.0575	19.2364	10.5905	-8.2710	-0.7993	0.5940	0.0677	-0.0612
6.1	-0.2176	-9.8150	2.7534	0.1330	-0.5092	0.0511	19.4346	10.5786	-8.4708	-0.7995	0.5935	0.0696	-0.0630
6.11	-0.0397	-9.7408	2.7743	0.1669	-0.5605	0.0582	19.4053	10.8093	-8.4411	-0.7996	0.5926	0.0716	-0.0650
6.12	0.1512	-9.6199	2.8224	0.1963	-0.5984	0.0464	19.4385	10.6163	-8.3634	-0.7999	0.5918	0.0738	-0.0671
6.13	0.3776	-9.5952	2.8999	0.2137	-0.6236	0.0405	19.3577	10.2990	-8.4935	-0.8002	0.5908	0.0761	-0.0692
6.14	0.6271	-9.5661	3.0028	0.2336	-0.6385	0.0320	19.2814	10.3688	-8.6915	-0.8006	0.5897	0.0785	-0.0714
6.15	0.8498	-9.5800	3.0968	0.2441	-0.6305	0.0165	19.5620	10.2088	-8.9429	-0.8011	0.5887	0.0809	-0.0735
6.16	1.0536	-9.5477	3.1823	0.2607	-0.6100	0.0152	19.4293	10.1573	-9.1863	-0.8014	0.5874	0.0833	-0.0755
6.17	1.2458	-9.4835	3.2618	0.2695	-0.5731	-0.0044	19.2273	10.1383	-9.3633	-0.8020	0.5862	0.0855	-0.0774
6.18	1.4130	-9.4380	3.3493	0.2714	-0.5243	-0.0093	19.6485	10.2564	-9.4455	-0.8024	0.5849	0.0876	-0.0790
6.19	1.5401	-9.4041	3.4181	0.2638	-0.4686	-0.0214	19.4151	10.3305	-9.5941	-0.8030	0.5838	0.0895	-0.0805
6.2	1.6053	-9.3408	3.4661	0.2626	-0.3991	-0.0292	19.1282	10.3675	-9.6737	-0.8035	0.5826	0.0911	-0.0818
6.21	1.6307	-9.2650	3.4807	0.2581	-0.3220	-0.0321	19.1381	10.4436	-9.9136	-0.8040	0.5814	0.0925	-0.0828
6.22	1.6190	-9.1711	3.4829	0.2555	-0.2531	-0.0359	19.2519	10.2962	-9.9373	-0.8047	0.5804	0.0936	-0.0836
6.23	1.5692	-9.0426	3.4623	0.2598	-0.1824	-0.0465	19.0584	10.2084	-9.8973	-0.8053	0.5793	0.0944	-0.0841
6.24	1.5540	-8.9457	3.4802	0.2469	-0.1256	-0.0560	19.0884	10.3041	-9.9757	-0.8059	0.5783	0.0950	-0.0845
6.25	1.4796	-8.9290	3.4978	0.2295	-0.0570	-0.0694	18.8566	10.3477	-10.1298	-0.8064	0.5773	0.0954	-0.0846
6.26	1.3699	-8.8949	3.4937	0.2202	0.0054	-0.0654	18.7922	10.1968	-9.8636	-0.8071	0.5765	0.0955	-0.0845
6.27	1.2632	-8.8707	3.5143	0.1988	0.0567	-0.0612	18.8882	10.2981	-10.1405	-0.8077	0.5757	0.0954	-0.0842
6.28	1.1492	-8.9185	3.5157	0.1734	0.0924	-0.0615	18.9307	10.3284	-9.9805	-0.8082	0.5751	0.0952	-0.0839
6.29	1.0573	-9.0126	3.5560	0.1404	0.1269	-0.0485	19.0685	10.3243	-10.2352	-0.8086	0.5746	0.0948	-0.0834
6.3	0.9423	-9.0493	3.5583	0.1221	0.1644	-0.0405	18.9358	10.1794	-10.2677	-0.8090	0.5742	0.0943	-0.0829
6.31	0.8100	-9.0513	3.5461	0.0910	0.1942	-0.0301	18.9662	10.3311	-10.3764	-0.8094	0.5740	0.0936	-0.0824
6.32	0.6850	-9.1075	3.5136	0.0653	0.1949	-0.0165	18.9796	10.2256	-10.2920	-0.8095	0.5738	0.0928	-0.0818
6.33	0.5590	-9.0820	3.4866	0.0401	0.2027	0.0001	18.9167	10.2557	-10.3098	-0.8098	0.5738	0.0920	-0.0813
6.34	0.4375	-9.0831	3.4412	0.0259	0.2085	0.0076	19.2377	10.3219	-10.2067	-0.8098	0.5738	0.0912	-0.0808
6.35	0.3370	-9.0856	3.3922	0.0072	0.1977	0.0204	19.5715	10.1414	-10.0494	-0.8100	0.5740	0.0904	-0.0804
6.36	0.2378	-9.1003	3.3708	-0.0142	0.1854	0.0273	19.8121	10.1547	-10.1844	-0.8099	0.5741	0.0895	-0.0800
6.37	0.1788	-9.1486	3.3512	-0.0327	0.1635	0.0405	19.3912	10.0020	-10.1424	-0.8098	0.5744	0.0888	-0.0798
6.38	0.1451	-9.2525	3.3677	-0.0511	0.1620	0.0442	19.1493	10.0466	-10.0503	-0.8097	0.5747	0.0880	-0.0796
6.39	0.0995	-9.2944	3.3439	-0.0518	0.1506	0.0506	19.0567	9.8787	-9.8803	-0.8095	0.5750	0.0872	-0.0794
6.4	0.0708	-9.2711	3.3206	-0.0681	0.1329	0.0515	19.1413	10.0945	-9.7652	-0.8094	0.5755	0.0866	-0.0793
6.41	0.0465	-9.2879	3.2770	-0.0792	0.1229	0.0614	18.9945	10.0766	-10.0208	-0.8091	0.5759	0.0859	-0.0792
6.42	0.0281	-9.2633	3.2461	-0.0767	0.1140	0.0668	19.2193	10.0517	-10.0637	-0.8089	0.5764	0.0853	-0.0792
6.43	0.0076	-9.2521	3.2210	-0.0815	0.1018	0.0706	19.2942	10.3247	-9.7777	-0.8086	0.5767	0.0847	-0.0792
6.44	-0.0234	-9.2385	3.1797	-0.0864	0.0965	0.0729	19.2068	10.3010	-9.8078	-0.8084	0.5772	0.0841	-0.0793
6.45	-0.0692	-9.1663	3.1428	-0.0819	0.0916	0.0686	19.4060	10.2587	-9.6387	-0.8081	0.5777	0.0836	-0.0794
6.46	-0.1074	-9.1565	3.1053	-0.0830	0.0842	0.0716	19.1318	10.1871	-9.5885	-0.8078	0.5781	0.0831	-0.0795
6.47	-0.1262	-9.1287	3.0842	-0.0797	0.0797	0.0650	19.2207	10.2279	-9.7539	-0.8076	0.5786	0.0826	-0.0795
6.48	-0.1319	-9.0989	3.0688	-0.0786	0.0652	0.0635	19.2820	10.3101	-9.6365	-0.8073	0.5790	0.0822	-0.0796
6.49	-0.1299	-9.0685	3.0579	-0.0801	0.0619	0.0551	19.2690	10.0767	-9.6897	-0.8070	0.5794	0.0819	-0.0797
6.5	-0.1375	-9.0485	3.0531	-0.0784	0.0517	0.0542	19.3548	10.3255	-9.6367	-0.8066	0.5798	0.0816	-0.0798
6.51	-0.1498	-9.0253	3.0435	-0.0797	0.0481	0.0562	19.3989	10.1588	-9.5025	-0.8064	0.5803	0.0813	-0.0799
6.52	-0.1706	-8.9639	3.0150	-0.0718	0.0503	0.0448	19.4687	9.8321	-9.5095	-0.8061	0.5807	0.0810	-0.0800
6.53	-0.2030	-8.9088	2.9809	-0.0767	0.0470	0.0432	19.4481	9.8841	-9.5836	-0.8059	0.5811	0.0807	-0.0800
6.54	-0.2234	-8.9456	2.9704	-0.0993	0.0356	0.0286	19.5299	9.8324	-9.6284	-0.8055	0.5815	0.0806	-0.0801
6.55	-0.2302	-9.0230	2.9882	-0.1114	0.0232	0.0227	19.7086	9.9062	-9.4548	-0.8052	0.5821	0.0805	-0.0801
6.56	-0.2159	-9.1452	3.0150	-0.1276	0.0105	0.0100	19.4579	9.9642	-9.4088	-0.8048	0.5827	0.0805	-0.0801
6.57	-0.1855	-9.2709	3.0425	-0.1298	-0.0114	-0.0012	19.5622	9.9413	-9.5036	-0.8042	0.5832	0.0806	-0.0802
6.58	-0.1455	-9.3722	3.0526	-0.1293	-0.0180	-0.0076	19.3805	10.0491	-9.6535	-0.8039	0.5838	0.0808	-0.0802
6.59	-0.0866	-9.4623	3.0563	-0.1293	-0.0401	-0.0057	19.3212	9.8937	-9.7008	-0.8034	0.5844	0.0810	-0.0803
6.6	-0.0366	-9.4991	3.0608	-0.1269	-0.0440	-0.0096	19.5179	10.0442	-9.2216	-0.8030	0.5850	0.0813	-0.0804
6.61	0.0096	-9.5496	3.0551	-0.1109	-0.0629	-0.0106	19.4198	10.0391	-9.3572	-0.8025	0.5854	0.0817	-0.0806
6.62	0.0305	-9.5712	3.0571	-0.1050	-0.0677	-0.0085	19.4751	10.0474	-9.4167	-0.8022	0.5859	0.0820	-0.0807
6.63	0.0463	-9.6132	3.0531	-0.1135	-0.0740	-0.0087	19.4457	10.2139	-9.3093	-0.8018	0.5864	0.0824	-0.0809
6.64	0.0706	-9.6863	3.0561	-0.1114	-0.0975	-0.0078	19.4674	10.2096	-9.3491	-0.8013	0.5868	0.0829	-0.0812
6.65	0.0915	-9.7178	3.0530	-0.1070	-0.1065	-0.0119	19.3541	10.2256	-9.3474	-0.8010	0.5873	0.0834	-0.0815
6.66	0.1026	-9.7464	3.0224	-0.1041	-0.1144	-0.0100	19.3719	10.1758	-9.1690	-0.8005	0.5877	0.0840	-0.0818
6.67	0.1150	-9.7774	2.9984	-0.1053	-0.1302	-0.0146	19.3656	9.8819	-9.1952	-0.8002	0.5882	0.0846	-0.0821
6.68	0.1279	-9.8051	2.9668	-0.0891	-0.1361	-0.0166	19.3617	10.2444	-9.3540	-0.7997	0.5884	0.0853	-0.0825
6.69	0.1662	-9.8187	2.9541	-0.0781	-0.1534	-0.0122	19.2674	10.3005	-9.4576	-0.7994	0.5888	0.0860	-0.0829
6.7	0.2011	-9.8267	2.9375	-0.0654	-0.1630	-0.0116	19.4470	9.9861	-9.3705	-0.7991	0.5891	0.0867	-0.0834
6.71	0.2432	-9.7855	2.9250	-0.0296	-0.1711	-0.0095	19.4665	9.8778	-9.0058	-0.7988	0.5892	0.0875	-0.0839
6.72	0.2916	-9.7594	2.9147	-0.0246	-0.1726	-0.0090	19.3357	9.8430	-9.2993	-0.7987	0.5893	0.0882	-0.0844
6.73	0.3363	-9.7485	2.9196	-0.0060	-0.1728	-0.0079	19.6651	9.9061	-9.3117	-0.7985	0.5893	0.0890	-0.0849
6.74	0.3612	-9.7107	2.9296	0.0150	-0.1679	-0.0071	19.5081	9.9679	-9.4465	-0.7984	0.5892	0.0897	-0.0855
6.75	0.3627	-9.6606	2.9400	0.0461	-0.1630	-0.0061	19.3456	9.9418	-9.6465	-0.7984	0.5890	0.0904	-0.0860
6.76	0.3554	-9.6258	2.9430	0.0516	-0.1564	-0.0065	19.3635	10.0561	-9.5841	-0.7985	0.5888	0.0910	-0.0865
6.77	0.3424	-9.5655	2.9598	0.0648	-0.1566	-0.0034	19.2450	10.0397	-9.3192	-0.7985	0.5886	0.0917	-0.0871
6.78	0.3422	-9.5041	2.9765	0.0839	-0.1556	-0.0092	19.3024	10.2590	-9.7062	-0.7986	0.5882	0.0923	-0.0876
6.79	0.3510	-9.4583	3.0128	0.0977	-0.1570	-0.0158	19.2504	10.0678	-9.7125	-0.7988	0.5878	0.0930	-0.0881
6.8	0.3783	-9.4384	3.0660	0.1045	-0.1663	-0.0312	19.3126	10.2085	-9.4587	-0.7990	0.5874	0.0937	-0.0886
6.81	0.4071	-9.4339	3.1141	0.1129	-0.1606	-0.0348	19.2108	10.3127	-9.4005	-0.7992	0.5869	0.0944	-0.0890
6.82	0.4458	-9.4168	3.1562	0.1220	-0.1665	-0.0356	19.1171	10.0168	-9.6009	-0.7994	0.5864	0.0952	-0.0895
6.83	0.4811	-9.3599	3.1792	0.1233	-0.1619	-0.0449	19.1483	9.9268	-9.8323	-0.7997	0.5859	0.0959	-0.0899
6.84	0.4987	-9.3156	3.1897	0.1091	-0.1537	-0.0428	19.1598	10.1421	-9.7928	-0.7999	0.5854	0.0967	-0.0903
6.85	0.5089	-9.2792	3.1922	0.1001	-0.1529	-0.0335	19.6316	10.2445	-9.7663	-0.8001	0.5850	0.0974	-0.0907
6.86	0.5258	-9.2748	3.1958	0.0821	-0.1565	-0.0278	19.7487	10.2014	-9.5376	-0.8001	0.5846	0.0980	-0.0912
6.87	0.5232	-9.2934	3.1950	0.0587	-0.1464	-0.0304	19.5306	9.8693	-9.8543	-0.8003	0.5844	0.0987	-0.0916
6.88	0.5386	-9.3574	3.1874	0.0472	-0.1451	-0.0284	19.3690	10.1536	-9.8602	-0.8003	0.5841	0.0994	-0.0920
6.89	0.5537	-9.4250	3.1734	0.0276	-0.1441	-0.0293	19.2893	9.8869	-10.0823	-0.8002	0.5840	0.1001	-0.0924
6.9	0.5467	-9.4441	3.1526	0.0246	-0.1402	-0.0205	19.3034	9.7891	-10.4120	-0.8003	0.5839	0.1007	-0.0928
6.91	0.5344	-9.4811	3.1204	0.0127	-0.1445	-0.0176	19.2973	10.0771	-10.1005	-0.8001	0.5838	0.1014	-0.0932
6.92	0.5436	-9.5326	3.0903	-0.0007	-0.1421	-0.0210	19.1324	10.0621	-10.3228	-0.8001	0.5838	0.1020	-0.0936
6.93	0.5790	-9.5696	3.0715	-0.0009	-0.1450	-0.0184	19.0354	10.0664	-10.3313	-0.7998	0.5837	0.1027	-0.0940
6.94	0.5902	-9.5595	3.0350	0.0099	-0.1368	-0.0178	19.1472	10.0831	-10.2570	-0.7998	0.5837	0.1033	-0.0944
6.95	0.5956	-9.5216	3.0072	0.0263	-0.1362	-0.0100	19.1104	10.2009	-10.1548	-0.7997	0.5836	0.1039	-0.0948
6.96	0.6196	-9.5131	2.9868	0.0208	-0.1389	-0.0096	19.1948	10.0699	-10.3043	-0.7997	0.5835	0.1045	-0.0952
6.97	0.6517	-9.4953	2.9836	0.0324	-0.1382	-0.0087	19.2548	9.9682	-10.3351	-0.7997	0.5834	0.1051	-0.0957
6.98	0.6596	-9.4829	2.9849	0.0498	-0.1298	-0.0048	19.0131	10.2594	-10.3708	-0.7997	0.5832	0.1057	-0.0961
6.99	0.6653	-9.4733	2.9857	0.0534	-0.1190	0.0031	18.9689	10.3852	-10.4430	-0.7997	0.5830	0.1061	-0.0966
7	0.6663	-9.4184	3.0119	0.0748	-0.1070	0.0102	19.1663	10.1509	-10.5117	-0.7997	0.5827	0.1065	-0.0970
7.01	0.6581	-9.3520	3.0318	0.0889	-0.1006	0.0181	18.8820	9.9359	-10.5066	-0.8000	0.5824	0.1069	-0.0975
7.02	0.6434	-9.3092	3.0562	0.1009	-0.0890	0.0170	19.0184	10.0262	-10.5614	-0.8001	0.5820	0.1072	-0.0980
7.03	0.6221	-9.2794	3.0858	0.1029	-0.0730	0.0191	19.0385	10.1215	-10.6368	-0.8003	0.5817	0.1074	-0.0984
7.04	0.6055	-9.2351	3.1408	0.1029	-0.0687	0.0223	19.0368	9.8295	-10.5958	-0.8005	0.5812	0.1076	-0.0988
7.05	0.5857	-9.2213	3.1807	0.1039	-0.0562	0.0204	18.9035	10.0937	-10.6155	-0.8007	0.5809	0.1077	-0.0992
7.06	0.5924	-9.2162	3.2420	0.1011	-0.0532	0.0179	19.0142	10.1244	-10.6177	-0.8010	0.5805	0.1078	-0.0996
7.07	0.5958	-9.2360	3.3138	0.1026	-0.0429	0.0204	18.7273	10.0288	-10.5876	-0.8011	0.5800	0.1078	-0.0999
7.08	0.5723	-9.2609	3.3602	0.0983	-0.0233	0.0200	18.9283	10.1918	-10.7539	-0.8014	0.5798	0.1078	-0.1002
7.09	0.5253	-9.2605	3.3924	0.0972	-0.0134	0.0216	19.1868	10.1084	-10.7894	-0.8016	0.5794	0.1077	-0.1005
7.1	0.4842	-9.2682	3.4213	0.0852	0.0016	0.0167	19.0898	9.7370	-10.8651	-0.8019	0.5791	0.1076	-0.1007
7.11	0.4649	-9.2829	3.4442	0.0749	0.0136	0.0129	19.2193	9.6127	-10.8823	-0.8020	0.5788	0.1075	-0.1008
7.12	0.4534	-9.2587	3.4536	0.0767	0.0175	0.0071	19.2294	9.7465	-10.5169	-0.8022	0.5786	0.1074	-0.1010
7.13	0.4451	-9.2309	3.4567	0.0743	0.0377	0.0038	18.9585	9.8809	-11.0841	-0.8024	0.5783	0.1072	-0.1010
7.14	0.4487	-9.2516	3.4574	0.0645	0.0455	-0.0018	19.0122	9.8824	-10.9231	-0.8025	0.5781	0.1069	-0.1010
7.15	0.4416	-9.2443	3.4460	0.0509	0.0499	-0.0059	19.1322	9.8138	-10.6401	-0.8028	0.5780	0.1067	-0.1009
7.16	0.4250	-9.2473	3.4278	0.0481	0.0611	-0.0071	19.0254	9.7395	-10.7462	-0.8029	0.5778	0.1065	-0.1009
7.17	0.3963	-9.2797	3.4243	0.0497	0.0747	-0.0126	19.2199	9.7732	-10.8386	-0.8031	0.5777	0.1062	-0.1007
7.18	0.3333	-9.2854	3.4036	0.0478	0.0871	-0.0274	19.2259	9.8105	-10.5850	-0.8031	0.5775	0.1058	-0.1005
7.19	0.2681	-9.2732	3.3811	0.0506	0.0871	-0.0255	19.0598	9.7145	-10.6209	-0.8034	0.5774	0.1055	-0.1002
7.2	0.2186	-9.2614	3.3624	0.0502	0.0847	-0.0279	19.0753	9.6566	-10.5766	-0.8035	0.5773	0.1052	-0.1000
7.21	0.1789	-9.2664	3.3536	0.0449	0.0730	-0.0353	19.1487	9.6810	-10.7036	-0.8037	0.5772	0.1050	-0.0998
7.22	0.1566	-9.2657	3.3418	0.0459	0.0679	-0.0388	19.0274	9.8195	-10.5828	-0.8039	0.5770	0.1048	-0.0995
7.23	0.1496	-9.2370	3.3379	0.0434	0.0586	-0.0351	18.8795	9.9416	-10.7947	-0.8040	0.5769	0.1046	-0.0993
7.24	0.1610	-9.2261	3.3408	0.0424	0.0442	-0.0367	19.1147	9.9628	-10.7195	-0.8041	0.5768	0.1045	-0.0992
7.25	0.1760	-9.1982	3.3366	0.0370	0.0344	-0.0392	19.0417	10.0783	-10.7683	-0.8042	0.5766	0.1045	-0.0990
7.26	0.2094	-9.1808	3.3392	0.0269	0.0212	-0.0378	18.9456	10.0324	-10.9300	-0.8043	0.5766	0.1045	-0.0989
7.27	0.2477	-9.1701	3.3346	0.0244	0.0134	-0.0415	19.2229	9.6786	-10.6891	-0.8044	0.5764	0.1045	-0.0988
7.28	0.2772	-9.1625	3.3378	0.0077	-0.0018	-0.0472	19.2093	9.7489	-11.0007	-0.8044	0.5764	0.1046	-0.0987
7.29	0.3096	-9.1879	3.3292	-0.0065	-0.0064	-0.0452	19.2049	9.5882	-10.8360	-0.8044	0.5764	0.1048	-0.0986
7.3	0.3389	-9.1838	3.3301	-0.0180	-0.0032	-0.0487	18.9849	9.7805	-10.8157	-0.8043	0.5765	0.1049	-0.0985
7.31	0.3573	-9.1991	3.3164	-0.0256	-0.0026	-0.0500	19.0980	9.7924	-10.6729	-0.8043	0.5766	0.1051	-0.0984
7.32	0.3632	-9.2069	3.2952	-0.0316	-0.0038	-0.0525	19.1745	9.8813	-10.5739	-0.8041	0.5767	0.1052	-0.0983
7.33	0.3640	-9.2312	3.2839	-0.0424	-0.0036	-0.0508	18.9451	9.9962	-10.6253	-0.8041	0.5769	0.1054	-0.0982
7.34	0.3496	-9.2563	3.2630	-0.0541	-0.0059	-0.0427	19.0754	9.9691	-10.4434	-0.8039	0.5771	0.1056	-0.0981
7.35	0.3302	-9.2863	3.2390	-0.0511	-0.0045	-0.0452	19.5567	9.9901	-10.3642	-0.8038	0.5773	0.1057	-0.0980
7.36	0.3203	-9.3203	3.2271	-0.0543	-0.0194	-0.0426	19.7842	9.9822	-10.2497	-0.8035	0.5775	0.1059	-0.0979
7.37	0.3378	-9.3536	3.2139	-0.0591	-0.0225	-0.0474	19.3295	9.9338	-10.4867	-0.8034	0.5777	0.1062	-0.0978
7.38	0.3756	-9.3657	3.2090	-0.0538	-0.0335	-0.0418	19.1118	9.9596	-10.6046	-0.8032	0.5779	0.1064	-0.0978
7.39	0.4120	-9.3737	3.2019	-0.0587	-0.0407	-0.0346	18.8439	9.9896	-10.5593	-0.8030	0.5781	0.1067	-0.0979
7.4	0.4483	-9.3857	3.1874	-0.0575	-0.0367	-0.0372	18.7475	10.1257	-10.5469	-0.8029	0.5784	0.1070	-0.0979
7.41	0.4883	-9.4036	3.1799	-0.0576	-0.0422	-0.0331	19.0355	10.0904	-10.6389	-0.8026	0.5785	0.1072	-0.0979
7.42	0.5208	-9.4099	3.1900	-0.0478	-0.0327	-0.0324	19.0381	10.1566	-10.5935	-0.8025	0.5788	0.1075	-0.0979
7.43	0.5476	-9.4211	3.1963	-0.0421	-0.0274	-0.0299	18.9308	10.3055	-10.5686	-0.8022	0.5789	0.1077	-0.0979
7.44	0.5623	-9.4339	3.2007	-0.0427	-0.0286	-0.0309	18.9655	10.2579	-10.6688	-0.8021	0.5791	0.1080	-0.0979
7.45	0.5661	-9.4446	3.2105	-0.0219	-0.0198	-0.0302	19.0571	9.9748	-10.5363	-0.8020	0.5792	0.1082	-0.0979
7.46	0.5655	-9.4298	3.2222	-0.0259	-0.0131	-0.0300	19.0180	9.8475	-10.5641	-0.8018	0.5794	0.1084	-0.0979
7.47	0.5641	-9.4005	3.2302	-0.0153	-0.0024	-0.0286	19.0289	9.7383	-10.6717	-0.8018	0.5795	0.1085	-0.0978
7.48	0.5613	-9.3800	3.2386	-0.0055	0.0024	-0.0288	19.1766	9.9034	-10.6175	-0.8018	0.5795	0.1086	-0.0978
7.49	0.5580	-9.3666	3.2498	-0.0081	0.0099	-0.0295	18.9804	9.9458	-10.7613	-0.8018	0.5796	0.1086	-0.0978
7.5	0.5568	-9.3636	3.2493	-0.0191	0.0168	-0.0294	18.9089	9.9175	-10.5666	-0.8016	0.5796	0.1086	-0.0977
7.51	0.5563	-9.3393	3.2453	-0.0269	0.0194	-0.0293	18.9600	10.0483	-10.5789	-0.8016	0.5797	0.1086	-0.0976
7.52	0.5665	-9.3373	3.2506	-0.0261	0.0179	-0.0307	18.9230	9.9655	-10.6712	-0.8015	0.5798	0.1086	-0.0975
7.53	0.5719	-9.3593	3.2427	-0.0267	0.0178	-0.0311	18.9650	9.9099	-10.4309	-0.8015	0.5800	0.1086	-0.0974
7.54	0.5798	-9.3624	3.2434	-0.0263	0.0261	-0.0286	18.8272	9.8626	-10.5128	-0.8014	0.5800	0.1086	-0.0973
7.55	0.5782	-9.3494	3.2435	-0.0266	0.0319	-0.0303	18.5079	10.0481	-10.5356	-0.8014	0.5802	0.1086	-0.0972
7.56	0.5639	-9.3513	3.2450	-0.0263	0.0300	-0.0259	18.8707	10.2312	-10.4748	-0.8013	0.5803	0.1085	-0.0970
7.57	0.5664	-9.3520	3.2512	-0.0255	0.0295	-0.0305	18.7553	10.3758	-10.4627	-0.8012	0.5804	0.1085	-0.0969
7.58	0.5632	-9.3670	3.2596	-0.0243	0.0297	-0.0238	18.7764	10.3918	-10.5417	-0.8012	0.5805	0.1084	-0.0968
7.59	0.5545	-9.3667	3.2631	-0.0231	0.0345	-0.0249	18.8776	10.1360	-10.4950	-0.8011	0.5806	0.1084	-0.0967
7.6	0.5267	-9.3345	3.2541	-0.0175	0.0333	-0.0202	18.8408	9.9523	-10.3254	-0.8011	0.5807	0.1083	-0.0966
7.61	0.4971	-9.3483	3.2454	-0.0183	0.0305	-0.0256	18.8648	10.1457	-10.4996	-0.8010	0.5808	0.1082	-0.0965
7.62	0.4842	-9.3733	3.2372	-0.0245	0.0161	-0.0216	18.8436	10.2023	-10.3730	-0.8010	0.5809	0.1082	-0.0964
7.63	0.4609	-9.3338	3.2179	-0.0202	0.0084	-0.0200	18.8845	10.3647	-10.3659	-0.8009	0.5810	0.1082	-0.0964
7.64	0.4669	-9.3406	3.1942	-0.0167	-0.0109	-0.0226	19.1215	10.0295	-10.5521	-0.8008	0.5810	0.1083	-0.0964
7.65	0.4958	-9.3406	3.1961	-0.0008	-0.0038	-0.0213	19.1257	9.8164	-10.6679	-0.8009	0.5811	0.1084	-0.0965
7.66	0.5380	-9.3583	3.2140	-0.0151	-0.0181	-0.0234	18.9580	9.8493	-10.3723	-0.8008	0.5811	0.1085	-0.0965
7.67	0.5874	-9.4060	3.2238	-0.0065	-0.0210	-0.0159	18.9424	10.1006	-10.3842	-0.8008	0.5811	0.1086	-0.0966
7.68	0.6501	-9.4104	3.2404	0.0027	-0.0118	-0.0189	18.9366	10.0238	-10.4608	-0.8006	0.5811	0.1087	-0.0966
7.69	0.6929	-9.3886	3.2601	0.0203	-0.0112	-0.0148	18.9584	9.9030	-10.6050	-0.8007	0.5811	0.1089	-0.0966
7.7	0.7163	-9.3454	3.2615	0.0197	0.0071	-0.0159	18.8911	10.1097	-10.5041	-0.8008	0.5810	0.1088	-0.0967
7.71	0.7015	-9.3070	3.2685	0.0156	0.0232	-0.0141	18.8389	10.0884	-10.4560	-0.8008	0.5809	0.1088	-0.0966
7.72	0.6396	-9.2608	3.2479	0.0064	0.0452	-0.0146	18.7677	10.2018	-10.5944	-0.8009	0.5809	0.1086	-0.0966
7.73	0.5717	-9.2461	3.2268	-0.0064	0.0454	-0.0138	18.8752	10.3322	-10.4142	-0.8009	0.5810	0.1085	-0.0965
7.74	0.5120	-9.2410	3.2054	-0.0250	0.0463	-0.0260	18.8316	10.3990	-10.3688	-0.8009	0.5811	0.1083	-0.0963
7.75	0.4847	-9.2582	3.1806	-0.0324	0.0475	-0.0305	18.9512	10.2652	-10.4751	-0.8007	0.5812	0.1082	-0.0961
7.76	0.4797	-9.2980	3.1577	-0.0348	0.0404	-0.0279	18.8407	10.3975	-10.4914	-0.8007	0.5814	0.1082	-0.0960
7.77	0.4967	-9.3324	3.1387	-0.0512	0.0316	-0.0326	18.7140	10.1796	-10.2947	-0.8006	0.5815	0.1081	-0.0958
7.78	0.5186	-9.3759	3.1268	-0.0480	0.0322	-0.0417	18.8749	10.2742	-10.3181	-0.8005	0.5817	0.1081	-0.0956
7.79	0.5389	-9.4142	3.1105	-0.0452	0.0253	-0.0369	18.8250	10.2868	-10.2511	-0.8004	0.5819	0.1081	-0.0955
7.8	0.5588	-9.4349	3.1046	-0.0397	0.0291	-0.0329	18.7877	10.2882	-10.3845	-0.8003	0.5821	0.1081	-0.0953
7.81	0.5832	-9.4426	3.1068	-0.0258	0.0212	-0.0373	18.8582	10.4516	-10.4687	-0.8002	0.5822	0.1082	-0.0951
7.82	0.6024	-9.4305	3.0997	-0.0252	0.0206	-0.0353	18.5563	10.4847	-10.3023	-0.8000	0.5823	0.1082	-0.0950
7.83	0.6194	-9.4050	3.0958	-0.0113	0.0169	-0.0305	18.7896	10.1274	-10.1538	-0.8001	0.5824	0.1082	-0.0949
7.84	0.6318	-9.3789	3.0967	-0.0117	0.0210	-0.0293	18.9513	9.9666	-10.3178	-0.8001	0.5824	0.1082	-0.0948
7.85	0.6399	-9.3581	3.0954	-0.0201	0.0288	-0.0303	19.3605	10.1107	-10.3188	-0.8001	0.5825	0.1082	-0.0947
7.86	0.6252	-9.3419	3.0879	-0.0228	0.0375	-0.0229	19.5894	10.1920	-9.8880	-0.8000	0.5825	0.1081	-0.0946
7.87	0.5918	-9.2990	3.0685	-0.0281	0.0404	-0.0215	19.3552	10.0824	-10.3332	-0.7999	0.5827	0.1080	-0.0945
7.88	0.5635	-9.3326	3.0613	-0.0304	0.0344	-0.0240	19.0931	10.1247	-10.1883	-0.7999	0.5828	0.1079	-0.0943
7.89	0.5630	-9.3968	3.0746	-0.0368	0.0270	-0.0262	19.0181	10.1375	-10.2076	-0.7998	0.5829	0.1079	-0.0942
7.9	0.5687	-9.4361	3.0800	-0.0488	0.0261	-0.0308	18.9160	10.2374	-10.3585	-0.7997	0.5832	0.1079	-0.0941
7.91	0.5623	-9.4398	3.0646	-0.0326	0.0291	-0.0288	18.8359	10.2933	-10.1965	-0.7996	0.5832	0.1079	-0.0940
7.92	0.5725	-9.4413	3.0672	-0.0298	0.0333	-0.0202	18.8795	10.3098	-10.0672	-0.7996	0.5834	0.1078	-0.0939
7.93	0.5563	-9.4672	3.0491	-0.0275	0.0314	-0.0189	18.7551	10.5274	-10.0841	-0.7994	0.5835	0.1078	-0.0937
7.94	0.5336	-9.4829	3.0402	-0.0317	0.0222	-0.0157	18.7814	10.4683	-10.0243	-0.7993	0.5837	0.1078	-0.0936
7.95	0.5104	-9.4672	3.0263	-0.0267	0.0278	-0.0161	19.0820	10.2834	-9.9949	-0.7992	0.5838	0.1077	-0.0936
7.96	0.4916	-9.4459	3.0144	-0.0259	0.0222	-0.0183	18.8711	10.3611	-10.1022	-0.7992	0.5839	0.1077	-0.0935
7.97	0.4965	-9.4309	3.0066	-0.0098	0.0177	-0.0230	18.7434	10.3106	-9.9441	-0.7992	0.5840	0.1077	-0.0934
7.98	0.5168	-9.4124	3.0124	-0.0000	0.0015	-0.0188	18.8995	10.3479	-10.1221	-0.7992	0.5839	0.1077	-0.0934
7.99	0.5398	-9.3895	3.0204	-0.0011	-0.0018	-0.0174	18.7937	10.5150	-9.9703	-0.7992	0.5840	0.1078	-0.0935
8	0.5603	-9.3789	3.0253	-0.0023	-0.0121	-0.0191	18.6631	10.4258	-10.0487	-0.7991	0.5839	0.1078	-0.0935
8.01	0.5668	-9.3745	3.0242	-0.0057	-0.0107	-0.0145	18.7859	10.3001	-10.3161	-0.7992	0.5839	0.1079	-0.0936
8.02	0.5758	-9.3653	3.0224	-0.0062	-0.0123	-0.0162	18.7440	10.3572	-10.1558	-0.7991	0.5839	0.1080	-0.0936
8.03	0.5943	-9.3832	3.0300	-0.0219	-0.0075	-0.0187	18.8416	10.2544	-10.2282	-0.7991	0.5840	0.1081	-0.0936
8.04	0.6135	-9.3937	3.0244	-0.0162	-0.0067	-0.0169	18.8632	10.1383	-10.2516	-0.7990	0.5840	0.1082	-0.0936
8.05	0.6439	-9.4257	3.0182	-0.0256	-0.0157	-0.0150	18.8389	10.2869	-10.2496	-0.7989	0.5841	0.1083	-0.0937
8.06	0.6579	-9.4360	3.0170	-0.0220	-0.0088	-0.0081	18.8760	10.3659	-10.0173	-0.7989	0.5842	0.1084	-0.0938
8.07	0.6638	-9.4409	3.0059	-0.0238	-0.0025	-0.0147	18.7580	10.2306	-9.9458	-0.7987	0.5842	0.1084	-0.0938
8.08	0.6774	-9.4514	3.0055	-0.0130	-0.0066	-0.0082	18.7667	10.2534	-9.9982	-0.7988	0.5843	0.1085	-0.0939
8.09	0.6840	-9.4478	3.0045	-0.0008	0.0020	-0.0038	18.8987	10.3796	-9.9378	-0.7987	0.5843	0.1085	-0.0939
8.1	0.6873	-9.4547	3.0023	-0.0043	0.0075	-0.0041	18.7720	10.4668	-10.0633	-0.7988	0.5844	0.1085	-0.0940
8.11	0.6671	-9.4472	2.9945	0.0012	0.0128	-0.0038	18.7620	10.1911	-10.0734	-0.7987	0.5843	0.1084	-0.0940
8.12	0.6488	-9.4535	2.9968	-0.0035	0.0219	-0.0035	18.7673	10.4214	-9.8154	-0.7987	0.5843	0.1083	-0.0940
8.13	0.6378	-9.4525	2.9972	-0.0010	0.0232	-0.0044	18.5744	10.5074	-9.9698	-0.7988	0.5843	0.1083	-0.0940
8.14	0.6136	-9.4563	2.9972	-0.0014	0.0315	0.0032	18.6503	10.2831	-9.9607	-0.7987	0.5843	0.1081	-0.0940
8.15	0.5963	-9.4587	2.9961	-0.0010	0.0279	0.0022	18.8893	10.4684	-9.9912	-0.7988	0.5844	0.1080	-0.0940
8.16	0.5735	-9.4586	2.9984	-0.0021	0.0306	0.0082	18.8261	10.3589	-9.9413	-0.7987	0.5844	0.1079	-0.0940
8.17	0.5537	-9.4579	2.9967	-0.0012	0.0344	0.0110	18.6976	10.3268	-10.0666	-0.7988	0.5844	0.1077	-0.0940
8.18	0.5475	-9.4603	2.9956	0.0051	0.0320	0.0047	18.9857	10.3237	-9.9710	-0.7987	0.5844	0.1075	-0.0940
8.19	0.5420	-9.4537	2.9972	0.0155	0.0343	0.0156	18.9961	10.3573	-9.8675	-0.7988	0.5844	0.1074	-0.0941
8.2	0.5311	-9.4477	3.0049	0.0172	0.0402	0.0117	18.9800	10.2707	-10.0443	-0.7989	0.5843	0.1072	-0.0941
8.21	0.5212	-9.4358	3.0125	0.0205	0.0393	0.0189	19.0427	10.2386	-10.1379	-0.7989	0.5843	0.1070	-0.0942
8.22	0.5108	-9.4209	3.0249	0.0247	0.0463	0.0116	19.0553	10.2395	-10.1719	-0.7990	0.5842	0.1067	-0.0942
8.23	0.4957	-9.4098	3.0383	0.0240	0.0445	0.0111	19.0892	10.0035	-10.1220	-0.7991	0.5841	0.1065	-0.0942
8.24	0.4719	-9.3910	3.0518	0.0251	0.0578	0.0163	18.8517	10.1354	-10.1855	-0.7992	0.5841	0.1062	-0.0942
8.25	0.4534	-9.3883	3.0633	0.0217	0.0530	0.0114	19.0926	10.2341	-10.0353	-0.7992	0.5840	0.1060	-0.0941
8.26	0.4423	-9.3928	3.0715	0.0231	0.0516	0.0149	18.8555	10.3657	-10.1013	-0.7994	0.5840	0.1057	-0.0941
8.27	0.4236	-9.3682	3.0793	0.0223	0.0616	0.0111	18.9177	10.2695	-10.1381	-0.7994	0.5839	0.1054	-0.0941
8.28	0.4060	-9.3636	3.0626	0.0142	0.0572	-0.0007	18.8926	10.2294	-9.9711	-0.7995	0.5839	0.1052	-0.0940
8.29	0.3979	-9.3765	3.0600	0.0093	0.0580	0.0008	18.7380	10.2546	-9.8687	-0.7995	0.5838	0.1050	-0.0939
8.3	0.3968	-9.3969	3.0558	0.0032	0.0512	-0.0012	18.8876	10.1110	-9.7527	-0.7996	0.5839	0.1048	-0.0938
8.31	0.3997	-9.4101	3.0540	0.0007	0.0444	-0.0041	19.0309	10.2369	-10.0086	-0.7996	0.5839	0.1046	-0.0938
8.32	0.4109	-9.4221	3.0542	-0.0049	0.0487	-0.0006	18.9561	10.2462	-9.8547	-0.7995	0.5839	0.1044	-0.0937
8.33	0.4129	-9.4197	3.0496	0.0002	0.0429	0.0021	18.8225	10.1414	-9.9153	-0.7997	0.5840	0.1043	-0.0936
8.34	0.4126	-9.4159	3.0507	-0.0031	0.0434	0.0032	19.1755	10.3123	-9.7866	-0.7996	0.5840	0.1041	-0.0936
8.35	0.4134	-9.4081	3.0594	0.0088	0.0440	0.0024	19.2477	10.3540	-9.6482	-0.7997	0.5840	0.1039	-0.0936
8.36	0.4062	-9.3985	3.0633	0.0189	0.0338	0.0113	19.6074	10.3082	-9.7679	-0.7996	0.5839	0.1038	-0.0936
8.37	0.4003	-9.3797	3.0709	0.0243	0.0419	0.0106	19.2199	10.3014	-10.0093	-0.7998	0.5839	0.1036	-0.0936
8.38	0.3936	-9.3721	3.0746	0.0178	0.0367	0.0094	18.8831	10.3024	-9.9464	-0.7998	0.5838	0.1034	-0.0936
8.39	0.3909	-9.3599	3.0911	0.0216	0.0346	0.0040	18.9932	9.8852	-9.9576	-0.7998	0.5837	0.1032	-0.0936
8.4	0.3785	-9.3837	3.0931	0.0124	0.0329	0.0005	19.2550	9.9537	-9.9021	-0.8000	0.5838	0.1031	-0.0936
8.41	0.3655	-9.3886	3.0973	0.0040	0.0295	-0.0040	19.1940	10.2233	-10.0529	-0.7999	0.5837	0.1030	-0.0936
8.42	0.3551	-9.3773	3.0905	0.0038	0.0348	-0.0036	19.2510	10.0877	-10.1016	-0.8000	0.5838	0.1029	-0.0935
8.43	0.3558	-9.3617	3.0794	0.0023	0.0198	-0.0041	19.0972	9.9730	-10.0760	-0.7999	0.5837	0.1028	-0.0935
8.44	0.3845	-9.3874	3.0905	-0.0014	0.0221	-0.0054	19.1792	10.0906	-9.9826	-0.8000	0.5838	0.1028	-0.0935
8.45	0.4016	-9.4347	3.0999	-0.0032	0.0177	-0.0053	19.1866	10.2453	-9.9879	-0.7999	0.5838	0.1027	-0.0935
8.46	0.4246	-9.4501	3.1076	0.0090	0.0156	-0.0084	19.0906	10.1153	-9.7509	-0.7999	0.5838	0.1027	-0.0935
8.47	0.4542	-9.4718	3.1248	0.0171	0.0164	-0.0106	19.2448	10.0990	-10.0631	-0.8000	0.5838	0.1027	-0.0934
8.48	0.4751	-9.4481	3.1262	0.0185	0.0156	-0.0103	19.0697	9.8822	-9.8881	-0.8000	0.5837	0.1027	-0.0934
8.49	0.4880	-9.3998	3.1155	0.0229	0.0251	-0.0052	19.0100	10.2409	-9.7942	-0.8001	0.5837	0.1026	-0.0934
8.5	0.4844	-9.3706	3.1187	0.0237	0.0276	-0.0040	19.1401	10.4102	-9.8059	-0.8000	0.5836	0.1025	-0.0934
8.51	0.4635	-9.3516	3.1095	0.0129	0.0381	-0.0018	19.2221	10.2389	-9.8552	-0.8002	0.5836	0.1024	-0.0934
8.52	0.4309	-9.3412	3.0989	0.0011	0.0412	-0.0008	19.0828	10.2196	-9.8598	-0.8002	0.5836	0.1023	-0.0933
8.53	0.3989	-9.3249	3.0904	-0.0059	0.0370	-0.0015	18.9438	10.4021	-9.8528	-0.8002	0.5837	0.1021	-0.0933
8.54	0.3773	-9.3297	3.0793	-0.0213	0.0359	-0.0045	18.9765	10.2753	-10.1186	-0.8001	0.5837	0.1020	-0.0932
8.55	0.3729	-9.3486	3.0785	-0.0112	0.0316	-0.0068	18.8991	10.1590	-10.1020	-0.8001	0.5838	0.1019	-0.0931
8.56	0.3873	-9.3767	3.0711	-0.0137	0.0219	-0.0068	19.1243	10.2688	-10.0029	-0.8000	0.5839	0.1019	-0.0931
8.57	0.4047	-9.4033	3.0755	-0.0100	0.0242	-0.0079	19.3510	10.3224	-10.0894	-0.7999	0.5839	0.1018	-0.0931
8.58	0.4083	-9.4361	3.0771	-0.0150	0.0207	-0.0087	19.1962	9.9483	-10.0635	-0.8000	0.5841	0.1018	-0.0931
8.59	0.4126	-9.4611	3.0647	-0.0081	0.0243	-0.0163	19.2100	9.9575	-9.9931	-0.7999	0.5841	0.1018	-0.0930
8.6	0.4274	-9.4601	3.0567	-0.0017	0.0235	-0.0103	19.2874	10.1169	-9.9197	-0.7999	0.5842	0.1017	-0.0929
8.61	0.4433	-9.4624	3.0616	0.0022	0.0214	-0.0077	19.3133	10.2032	-9.9025	-0.7998	0.5842	0.1017	-0.0929
8.62	0.4617	-9.4639	3.0622	0.0130	0.0164	-0.0101	19.3150	9.9895	-9.9804	-0.7998	0.5842	0.1017	-0.0929
8.63	0.4795	-9.4561	3.0777	0.0229	0.0147	-0.0088	19.2787	10.2315	-9.7092	-0.7999	0.5842	0.1017	-0.0929
8.64	0.4805	-9.4437	3.0828	0.0242	0.0173	-0.0066	19.4256	10.1102	-10.0334	-0.7999	0.5841	0.1017	-0.0928
8.65	0.4736	-9.4302	3.0807	0.0216	0.0138	-0.0026	19.1654	10.1156	-9.8683	-0.8000	0.5841	0.1016	-0.0929
8.66	0.4537	-9.3824	3.0786	0.0235	0.0081	-0.0027	19.0151	9.9644	-9.9383	-0.8000	0.5840	0.1016	-0.0929
8.67	0.4274	-9.3882	3.0820	0.0130	0.0045	0.0002	19.0346	9.9615	-9.8044	-0.8001	0.5840	0.1016	-0.0930
8.68	0.4360	-9.4262	3.0994	0.0183	0.0059	0.0060	19.1433	10.2309	-9.9059	-0.8000	0.5838	0.1015	-0.0931
8.69	0.4495	-9.4165	3.1205	0.0251	0.0029	-0.0032	19.1024	10.2931	-10.0199	-0.8001	0.5838	0.1015	-0.0931
8.7	0.4504	-9.3896	3.1227	0.0252	0.0052	-0.0005	19.2218	10.1342	-9.6252	-0.8002	0.5837	0.1015	-0.0932
8.71	0.4657	-9.3456	3.1277	0.0247	0.0010	-0.0037	19.3755	10.1141	-9.6894	-0.8002	0.5836	0.1015	-0.0933
8.72	0.4713	-9.3334	3.1366	0.0228	0.0098	-0.0025	19.0664	10.0294	-9.8348	-0.8003	0.5836	0.1015	-0.0933
8.73	0.4568	-9.3363	3.1293	0.0149	0.0204	-0.0025	19.0560	10.1481	-9.7905	-0.8003	0.5835	0.1014	-0.0933
8.74	0.4347	-9.3587	3.1211	0.0102	0.0290	-0.0040	19.2154	10.2896	-9.8638	-0.8004	0.5835	0.1014	-0.0933
8.75	0.4148	-9.3794	3.1163	0.0057	0.0253	-0.0027	19.2210	10.2814	-10.0167	-0.8003	0.5835	0.1013	-0.0933
8.76	0.4064	-9.3882	3.1169	0.0075	0.0208	-0.0074	19.2138	10.2097	-9.9801	-0.8004	0.5835	0.1012	-0.0933
8.77	0.3995	-9.3938	3.1127	0.0134	0.0291	-0.0069	19.3983	9.9741	-10.1947	-0.8004	0.5835	0.1011	-0.0932
8.78	0.3866	-9.3854	3.1101	0.0164	0.0232	-0.0116	19.3290	9.7129	-10.0395	-0.8004	0.5835	0.1011	-0.0932
8.79	0.3852	-9.3829	3.1141	0.0166	0.0198	-0.0106	19.2010	9.9694	-9.7560	-0.8004	0.5834	0.1010	-0.0932
8.8	0.3894	-9.3749	3.1205	0.0147	0.0212	-0.0083	19.3352	9.9451	-9.9726	-0.8005	0.5834	0.1010	-0.0932
8.81	0.3872	-9.3519	3.1230	0.0096	0.0211	-0.0137	19.0868	10.0964	-9.9990	-0.8005	0.5834	0.1010	-0.0931
8.82	0.3766	-9.3390	3.1152	0.0057	0.0244	-0.0059	19.2361	9.8178	-9.9890	-0.8005	0.5833	0.1009	-0.0931
8.83	0.3669	-9.3385	3.1124	0.0023	0.0176	-0.0125	19.1802	10.0757	-9.9840	-0.8006	0.5834	0.1009	-0.0931
8.84	0.3674	-9.3430	3.1086	-0.0015	0.0194	-0.0086	19.3162	10.1175	-10.0179	-0.8005	0.5834	0.1008	-0.0931
8.85	0.3699	-9.3545	3.0991	-0.0084	0.0141	-0.0057	19.7161	10.1319	-9.9263	-0.8005	0.5835	0.1008	-0.0931
8.86	0.3816	-9.3687	3.0907	-0.0242	0.0102	-0.0068	19.9857	10.0255	-9.7726	-0.8003	0.5836	0.1008	-0.0931
8.87	0.4016	-9.3935	3.0793	-0.0218	0.0133	-0.0047	19.5856	10.0049	-9.7195	-0.8003	0.5837	0.1008	-0.0931
8.88	0.4174	-9.4056	3.0704	-0.0137	0.0159	-0.0044	19.3402	10.3754	-9.9249	-0.8002	0.5838	0.1008	-0.0931
8.89	0.4297	-9.4110	3.0667	-0.0125	0.0158	-0.0042	19.0194	10.0292	-10.0872	-0.8001	0.5838	0.1007	-0.0931
8.9	0.4249	-9.4199	3.0595	-0.0173	0.0219	-0.0032	18.9459	9.9823	-9.8590	-0.8002	0.5840	0.1007	-0.0931
8.91	0.4156	-9.4261	3.0479	-0.0103	0.0277	-0.0037	19.0554	10.0717	-9.7172	-0.8001	0.5840	0.1006	-0.0930
8.92	0.4036	-9.4401	3.0438	-0.0059	0.0257	-0.0030	18.8747	10.1111	-9.7509	-0.8001	0.5841	0.1005	-0.0930
8.93	0.3846	-9.4526	3.0423	-0.0015	0.0324	-0.0039	19.1687	10.2518	-9.9019	-0.8000	0.5841	0.1004	-0.0930
8.94	0.3607	-9.4507	3.0351	-0.0014	0.0316	-0.0041	19.2224	10.0156	-9.7780	-0.8000	0.5842	0.1003	-0.0929
8.95	0.3425	-9.4430	3.0330	-0.0016	0.0311	-0.0042	19.2278	10.0817	-9.9382	-0.8000	0.5842	0.1002	-0.0929
8.96	0.3244	-9.4323	3.0270	-0.0010	0.0378	-0.0035	19.2017	10.0443	-9.7823	-0.8000	0.5843	0.1001	-0.0928
8.97	0.3043	-9.4367	3.0252	-0.0007	0.0340	-0.0060	19.3387	10.1682	-9.7900	-0.8000	0.5843	0.1000	-0.0928
8.98	0.2910	-9.4340	3.0163	-0.0018	0.0359	-0.0035	19.3980	10.1506	-9.6562	-0.7999	0.5844	0.0999	-0.0927
8.99	0.2739	-9.4259	3.0123	-0.0007	0.0350	-0.0052	19.2364	9.9118	-9.7615	-0.8000	0.5844	0.0998	-0.0927
9	0.2699	-9.4339	3.0089	-0.0018	0.0328	-0.0048	19.5122	9.8834	-9.7958	-0.7999	0.5844	0.0996	-0.0926
9.01	0.2703	-9.4454	3.0084	0.0022	0.0261	-0.0033	19.4565	9.8771	-9.7609	-0.7999	0.5845	0.0996	-0.0926
9.02	0.2779	-9.4585	3.0074	0.0015	0.0140	-0.0046	19.2150	10.0922	-9.8278	-0.7999	0.5845	0.0995	-0.0926
9.03	0.2856	-9.4544	3.0083	0.0042	0.0170	-0.0036	19.2242	10.1784	-9.6876	-0.7999	0.5846	0.0995	-0.0927
9.04	0.3002	-9.4584	3.0167	0.0154	0.0191	-0.0048	19.2153	10.1394	-9.7150	-0.7999	0.5845	0.0994	-0.0927
9.05	0.3075	-9.4498	3.0115	0.0168	0.0134	-0.0027	19.2142	10.1478	-9.9095	-0.7999	0.5845	0.0994	-0.0927
9.06	0.3017	-9.4431	3.0157	0.0198	0.0185	-0.0080	19.2236	9.9598	-9.6889	-0.8000	0.5845	0.0993	-0.0927
9.07	0.3051	-9.4307	3.0281	0.0240	0.0122	-0.0119	19.2036	10.0540	-9.6948	-0.8000	0.5843	0.0993	-0.0927
9.08	0.2964	-9.4157	3.0290	0.0241	0.0150	-0.0122	19.3414	10.1829	-9.6043	-0.8001	0.5843	0.0993	-0.0927
9.09	0.2935	-9.4095	3.0349	0.0266	0.0107	-0.0137	19.2577	10.2701	-9.7339	-0.8001	0.5842	0.0993	-0.0927
9.1	0.2925	-9.3956	3.0434	0.0186	0.0117	-0.0098	19.1994	10.1601	-9.6743	-0.8002	0.5842	0.0993	-0.0927
9.11	0.2938	-9.3832	3.0422	0.0205	0.0158	-0.0175	19.2289	10.1444	-9.8051	-0.8002	0.5841	0.0992	-0.0927
9.12	0.2942	-9.3722	3.0483	0.0176	0.0093	-0.0178	19.3291	10.1545	-9.6569	-0.8003	0.5841	0.0993	-0.0927
9.13	0.2943	-9.3612	3.0436	0.0133	0.0113	-0.0076	19.0965	10.1490	-9.7618	-0.8003	0.5841	0.0992	-0.0927
9.14	0.2836	-9.3697	3.0313	0.0061	0.0115	-0.0074	19.2894	10.1532	-9.8137	-0.8002	0.5840	0.0992	-0.0927
9.15	0.2837	-9.3844	3.0317	-0.0020	0.0029	-0.0114	19.3206	10.0682	-9.7596	-0.8003	0.5842	0.0993	-0.0927
9.16	0.2864	-9.4048	3.0260	-0.0007	-0.0050	-0.0030	19.4393	9.8983	-9.8395	-0.8002	0.5841	0.0993	-0.0928
9.17	0.2940	-9.4049	3.0204	-0.0012	-0.0046	-0.0111	19.2993	9.9112	-9.6499	-0.8002	0.5842	0.0993	-0.0929
9.18	0.3134	-9.4212	3.0293	-0.0019	-0.0036	-0.0092	19.4042	9.7654	-9.9092	-0.8001	0.5842	0.0994	-0.0929
9.19	0.3203	-9.4477	3.0434	0.0026	-0.0060	-0.0061	19.3751	9.8583	-10.0419	-0.8001	0.5842	0.0994	-0.0930
9.2	0.3251	-9.4656	3.0543	0.0141	-0.0031	-0.0064	19.1054	10.3294	-9.8332	-0.8001	0.5842	0.0995	-0.0930
9.21	0.3114	-9.4527	3.0500	0.0149	-0.0085	-0.0087	19.1975	10.0476	-9.9051	-0.8001	0.5842	0.0995	-0.0931
9.22	0.2982	-9.4201	3.0418	0.0184	-0.0076	-0.0132	19.3370	10.0696	-9.7852	-0.8001	0.5842	0.0996	-0.0932
9.23	0.3051	-9.3997	3.0448	0.0220	-0.0088	-0.0116	19.4164	10.1959	-9.8852	-0.8001	0.5841	0.0997	-0.0932
9.24	0.3242	-9.4117	3.0548	0.0114	-0.0164	-0.0135	19.3703	10.0835	-9.7148	-0.8002	0.5841	0.0998	-0.0933
9.25	0.3458	-9.4384	3.0704	0.0144	-0.0127	-0.0131	19.0911	10.0489	-9.5890	-0.8001	0.5840	0.0999	-0.0934
9.26	0.3566	-9.4382	3.0718	0.0176	-0.0127	-0.0170	19.2815	10.1859	-9.6388	-0.8002	0.5840	0.1000	-0.0934
9.27	0.3632	-9.4003	3.0716	0.0207	-0.0065	-0.0185	19.2557	9.9529	-9.8591	-0.8002	0.5839	0.1000	-0.0935
9.28	0.3725	-9.4030	3.0715	0.0094	0.0009	-0.0156	18.9778	10.0545	-9.9696	-0.8002	0.5839	0.1001	-0.0935
9.29	0.3866	-9.4274	3.0709	0.0064	-0.0007	-0.0087	19.1727	10.0585	-9.8812	-0.8002	0.5839	0.1001	-0.0935
9.3	0.3937	-9.4358	3.0683	0.0081	0.0016	-0.0091	19.1979	10.0900	-9.7507	-0.8002	0.5839	0.1001	-0.0936
9.31	0.3805	-9.4325	3.0586	0.0104	0.0141	-0.0087	19.0891	9.9785	-9.8307	-0.8002	0.5839	0.1001	-0.0936
9.32	0.3563	-9.4160	3.0461	0.0036	0.0205	-0.0060	19.2330	10.0477	-9.6635	-0.8001	0.5839	0.1000	-0.0936
9.33	0.3369	-9.4121	3.0418	0.0147	0.0119	-0.0054	19.2139	10.2692	-9.7409	-0.8002	0.5840	0.1000	-0.0936
9.34	0.3204	-9.4098	3.0408	0.0169	0.0215	-0.0127	19.3974	9.9419	-9.5984	-0.8002	0.5839	0.0999	-0.0936
9.35	0.3076	-9.4078	3.0420	0.0184	0.0085	-0.0173	19.6208	10.0332	-9.4663	-0.8003	0.5839	0.0999	-0.0936
9.36	0.2946	-9.4061	3.0435	0.0219	0.0131	-0.0160	19.9666	9.7640	-9.5779	-0.8002	0.5838	0.0999	-0.0936
9.37	0.2843	-9.4090	3.0517	0.0244	0.0142	-0.0164	19.7208	9.8862	-9.7844	-0.8003	0.5838	0.0999	-0.0936
9.38	0.2673	-9.4151	3.0469	0.0242	0.0124	-0.0152	19.5619	9.8385	-9.7668	-0.8004	0.5837	0.0999	-0.0936
9.39	0.2612	-9.4201	3.0506	0.0246	0.0024	-0.0204	19.1467	9.7703	-9.9870	-0.8003	0.5836	0.0999	-0.0936
9.4	0.2692	-9.4207	3.0555	0.0241	-0.0054	-0.0267	19.2342	10.0766	-9.8471	-0.8005	0.5836	0.1000	-0.0936
9.41	0.2929	-9.4168	3.0646	0.0236	-0.0103	-0.0296	19.2914	9.9768	-9.9925	-0.8005	0.5835	0.1001	-0.0936
9.42	0.3241	-9.4281	3.0784	0.0239	-0.0193	-0.0255	19.3494	9.8895	-10.0703	-0.8006	0.5834	0.1002	-0.0937
9.43	0.3635	-9.4250	3.0873	0.0234	-0.0201	-0.0236	19.4107	10.1334	-9.7758	-0.8005	0.5833	0.1003	-0.0937
9.44	0.3934	-9.4052	3.0941	0.0247	-0.0227	-0.0168	19.0252	10.2010	-9.6783	-0.8006	0.5833	0.1005	-0.0938
9.45	0.3983	-9.3785	3.0897	0.0240	-0.0211	-0.0148	19.2061	10.2238	-9.6138	-0.8006	0.5832	0.1006	-0.0939
9.46	0.3826	-9.3601	3.0907	0.0250	-0.0175	-0.0046	19.1940	10.0922	-9.8964	-0.8006	0.5831	0.1007	-0.0941
9.47	0.3722	-9.4036	3.0880	0.0228	-0.0274	-0.0055	19.2191	10.2364	-10.0036	-0.8007	0.5831	0.1008	-0.0942
9.48	0.3769	-9.4136	3.0994	0.0236	-0.0284	-0.0124	19.3042	10.2576	-9.8332	-0.8006	0.5830	0.1009	-0.0943
9.49	0.3895	-9.4015	3.1050	0.0244	-0.0257	-0.0168	19.0952	9.7733	-9.7876	-0.8007	0.5829	0.1010	-0.0945
9.5	0.3983	-9.3814	3.1086	0.0242	-0.0247	-0.0140	19.2031	10.0536	-9.7964	-0.8006	0.5828	0.1011	-0.0946
9.51	0.4182	-9.3585	3.1171	0.0235	-0.0211	-0.0073	19.2061	9.9869	-9.9197	-0.8008	0.5828	0.1012	-0.0947
9.52	0.4119	-9.3806	3.1263	0.0218	-0.0106	-0.0084	19.3481	9.7749	-10.0148	-0.8007	0.5827	0.1013	-0.0948
9.53	0.3976	-9.3893	3.1299	0.0226	-0.0051	-0.0119	19.4061	9.9908	-9.8966	-0.8008	0.5827	0.1013	-0.0949
9.54	0.3743	-9.3954	3.1309	0.0236	-0.0004	-0.0108	19.3559	10.2395	-9.8912	-0.8008	0.5826	0.1013	-0.0949
9.55	0.3570	-9.3967	3.1286	0.0222	-0.0037	-0.0163	19.3005	9.9013	-10.1655	-0.8008	0.5826	0.1014	-0.0950
9.56	0.3542	-9.3975	3.1344	0.0231	-0.0050	-0.0227	19.2279	10.0258	-9.9283	-0.8009	0.5825	0.1014	-0.0950
9.57	0.3570	-9.3824	3.1352	0.0225	-0.0008	-0.0284	19.1927	9.9299	-9.8633	-0.8008	0.5824	0.1015	-0.0950
9.58	0.3761	-9.3703	3.1355	0.0233	-0.0050	-0.0269	19.2971	9.9460	-10.0107	-0.8010	0.5824	0.1016	-0.0950
9.59	0.3871	-9.3521	3.1345	0.0256	-0.0012	-0.0287	19.3219	10.1902	-9.9732	-0.8010	0.5823	0.1017	-0.0950
9.6	0.3833	-9.3532	3.1311	0.0138	-0.0059	-0.0239	19.1516	10.0033	-9.9905	-0.8011	0.5823	0.1017	-0.0950
9.61	0.3802	-9.3529	3.1256	0.0188	-0.0070	-0.0173	19.0882	10.1159	-9.9857	-0.8010	0.5822	0.1018	-0.0951
9.62	0.3816	-9.3543	3.1192	0.0068	-0.0054	-0.0249	19.2545	10.1083	-9.9868	-0.8010	0.5822	0.1019	-0.0951
9.63	0.3873	-9.3626	3.1197	0.0044	-0.0125	-0.0236	19.3286	10.1099	-9.9785	-0.8010	0.5822	0.1020	-0.0951
9.64	0.3903	-9.3640	3.1284	0.0160	-0.0099	-0.0198	19.1797	10.1129	-9.9905	-0.8009	0.5822	0.1020	-0.0952
9.65	0.4009	-9.3673	3.1345	0.0023	-0.0167	-0.0186	19.3334	10.1027	-9.9820	-0.8010	0.5823	0.1022	-0.0952
9.66	0.4220	-9.3774	3.1431	0.0028	-0.0181	-0.0190	19.3571	9.9874	-9.8389	-0.8009	0.5822	0.1023	-0.0953
9.67	0.4418	-9.3651	3.1369	0.0114	-0.0193	-0.0127	19.0175	10.0760	-9.7613	-0.8009	0.5823	0.1024	-0.0954
9.68	0.4638	-9.3530	3.1377	0.0106	-0.0068	-0.0066	19.0182	10.2938	-9.9328	-0.8008	0.5822	0.1024	-0.0955
9.69	0.4874	-9.3579	3.1379	-0.0016	-0.0098	-0.0077	19.1513	10.2877	-9.8533	-0.8009	0.5823	0.1025	-0.0956
9.7	0.4900	-9.3770	3.1359	-0.0015	-0.0077	-0.0050	19.2324	9.9290	-10.0099	-0.8008	0.5823	0.1025	-0.0957
9.71	0.4904	-9.3870	3.1352	-0.0008	0.0021	-0.0037	19.4607	10.0086	-10.1054	-0.8007	0.5823	0.1025	-0.0957
9.72	0.4825	-9.3926	3.1307	-0.0012	0.0104	-0.0062	19.4799	10.1119	-10.0591	-0.8007	0.5824	0.1025	-0.0958
9.73	0.4567	-9.3999	3.1242	-0.0017	0.0241	-0.0040	19.3218	10.0179	-10.0766	-0.8007	0.5824	0.1024	-0.0958
9.74	0.4280	-9.3985	3.1139	-0.0019	0.0301	-0.0046	19.2525	9.9559	-9.8788	-0.8007	0.5825	0.1022	-0.0958
9.75	0.3897	-9.3954	3.1051	0.0017	0.0305	-0.0040	19.0602	9.9881	-9.9022	-0.8006	0.5825	0.1021	-0.0958
9.76	0.3623	-9.3932	3.1034	0.0006	0.0327	-0.0043	19.2865	10.1551	-10.1006	-0.8006	0.5826	0.1020	-0.0957
9.77	0.3303	-9.3926	3.0920	0.0022	0.0264	-0.0041	19.2055	10.0591	-9.9264	-0.8006	0.5827	0.1019	-0.0957
9.78	0.2996	-9.3933	3.0899	-0.0021	0.0321	-0.0041	19.0554	9.9295	-10.1086	-0.8006	0.5827	0.1018	-0.0957
9.79	0.2789	-9.3909	3.0924	0.0002	0.0273	-0.0043	19.2302	10.0047	-9.8673	-0.8005	0.5828	0.1016	-0.0957
9.8	0.2687	-9.3889	3.0881	0.0011	0.0234	-0.0089	19.1864	10.1879	-9.9092	-0.8005	0.5828	0.1016	-0.0957
9.81	0.2789	-9.3824	3.0926	0.0029	0.0181	-0.0049	19.0092	10.3427	-9.8780	-0.8005	0.5829	0.1015	-0.0957
9.82	0.2932	-9.3841	3.1017	0.0020	0.0188	-0.0071	19.1194	10.1716	-10.0112	-0.8004	0.5829	0.1014	-0.0957
9.83	0.3105	-9.3804	3.1070	-0.0017	0.0063	-0.0126	19.0875	10.2176	-9.7598	-0.8005	0.5830	0.1014	-0.0958
9.84	0.3358	-9.3669	3.1023	-0.0010	0.0032	-0.0063	19.1855	10.1718	-9.5389	-0.8004	0.5830	0.1014	-0.0958
9.85	0.3551	-9.3717	3.1128	-0.0027	0.0163	-0.0109	19.4182	10.2746	-9.5250	-0.8004	0.5831	0.1014	-0.0958
9.86	0.3745	-9.3828	3.1092	-0.0058	0.0137	-0.0172	19.8104	10.4038	-9.5758	-0.8003	0.5831	0.1013	-0.0958
9.87	0.3886	-9.3837	3.1063	-0.0002	0.0200	-0.0165	19.3623	10.1005	-9.9419	-0.8003	0.5832	0.1013	-0.0958
9.88	0.3845	-9.3879	3.1033	-0.0025	0.0142	-0.0096	19.1858	10.1091	-9.9547	-0.8003	0.5832	0.1013	-0.0958
9.89	0.3694	-9.3847	3.0976	0.0007	0.0219	-0.0161	19.3250	9.8556	-9.8394	-0.8002	0.5832	0.1012	-0.0957
9.9	0.3551	-9.3937	3.0897	-0.0082	0.0226	-0.0114	19.1606	10.1271	-9.9184	-0.8003	0.5834	0.1012	-0.0957
9.91	0.3365	-9.3968	3.0837	-0.0103	0.0215	-0.0054	19.3992	10.0508	-9.8501	-0.8001	0.5834	0.1011	-0.0957
9.92	0.3152	-9.3915	3.0720	-0.0089	0.0256	-0.0108	19.1094	10.1740	-9.9854	-0.8001	0.5835	0.1010	-0.0957
9.93	0.2928	-9.3829	3.0549	-0.0147	0.0187	-0.0124	19.2270	10.0839	-9.8853	-0.8000	0.5836	0.1009	-0.0957
9.94	0.2800	-9.3796	3.0554	-0.0140	0.0180	-0.0062	19.1760	10.0902	-9.6535	-0.8000	0.5837	0.1009	-0.0957
9.95	0.2717	-9.3927	3.0411	-0.0190	0.0149	-0.0059	18.9526	10.2184	-9.9250	-0.7999	0.5838	0.1008	-0.0957
9.96	0.2741	-9.3999	3.0395	-0.0204	0.0059	-0.0106	19.1952	10.0611	-9.7770	-0.7998	0.5839	0.1008	-0.0957
9.97	0.2750	-9.4156	3.0347	-0.0199	-0.0058	-0.0062	19.4295	10.1110	-9.9039	-0.7997	0.5841	0.1009	-0.0958
9.98	0.2977	-9.4305	3.0308	-0.0158	-0.0085	-0.0081	19.3448	10.0306	-9.8570	-0.7996	0.5842	0.1009	-0.0959
9.99	0.3276	-9.4339	3.0295	-0.0096	-0.0064	-0.0161	19.0802	10.0309	-9.7257	-0.7996	0.5843	0.1010	-0.0959
10	0.3533	-9.4467	3.0301	-0.0048	-0.0105	-0.0152	19.2477	10.1245	-9.5894	-0.7994	0.5842	0.1010	-0.0960
10.01	0.3717	-9.4540	3.0426	0.0029	-0.0055	-0.0058	19.0625	9.9318	-9.7350	-0.7995	0.5843	0.1011	-0.0961
10.02	0.3793	-9.4633	3.0463	-0.0052	-0.0060	-0.0164	19.3991	10.2530	-9.9947	-0.7994	0.5843	0.1011	-0.0961
10.03	0.3734	-9.4330	3.0353	-0.0036	-0.0064	-0.0107	19.2062	10.1812	-9.9193	-0.7994	0.5844	0.1012	-0.0962
10.04	0.3780	-9.4038	3.0221	-0.0056	-0.0020	-0.0132	18.8780	10.1738	-9.7610	-0.7993	0.5844	0.1012	-0.0962
10.05	0.4011	-9.4218	3.0197	-0.0084	-0.0056	-0.0180	19.2430	10.2608	-9.8473	-0.7993	0.5845	0.1013	-0.0962
10.06	0.4181	-9.4608	3.0307	-0.0066	-0.0066	-0.0123	19.1413	10.3224	-9.9046	-0.7992	0.5846	0.1013	-0.0963
10.07	0.4273	-9.4798	3.0403	-0.0020	-0.0010	-0.0097	19.1027	10.2955	-9.8991	-0.7991	0.5846	0.1014	-0.0963
10.08	0.4216	-9.4611	3.0323	0.0031	0.0065	-0.0046	19.3504	10.0205	-9.8659	-0.7992	0.5847	0.1014	-0.0964
10.09	0.4207	-9.4341	3.0337	0.0064	0.0146	-0.0112	19.4001	10.1390	-9.9518	-0.7991	0.5847	0.1013	-0.0964
10.1	0.4118	-9.4527	3.0314	0.0097	0.0186	-0.0098	19.1671	9.9675	-9.9375	-0.7992	0.5847	0.1013	-0.0964
10.11	0.4037	-9.4623	3.0264	0.0061	0.0183	-0.0065	19.3538	10.1041	-9.7652	-0.7991	0.5847	0.1012	-0.0964
10.12	0.3790	-9.4518	3.0224	-0.0028	0.0251	-0.0058	19.2145	10.1731	-9.6914	-0.7991	0.5848	0.1011	-0.0964
10.13	0.3414	-9.4337	3.0058	0.0022	0.0239	-0.0034	19.1539	10.3762	-9.9406	-0.7991	0.5848	0.1010	-0.0964
10.14	0.3195	-9.4150	2.9962	0.0069	0.0216	-0.0109	19.2435	10.1768	-10.0194	-0.7990	0.5848	0.1009	-0.0964
10.15	0.3093	-9.4105	2.9918	0.0103	0.0224	-0.0088	19.0140	10.0875	-9.8463	-0.7991	0.5849	0.1008	-0.0964
10.16	0.3151	-9.4146	2.9939	0.0106	0.0131	-0.0099	19.2936	10.1703	-9.7792	-0.7991	0.5848	0.1008	-0.0964
10.17	0.3277	-9.4222	2.9967	0.0111	0.0118	-0.0135	19.3691	10.0407	-9.8428	-0.7991	0.5849	0.1008	-0.0965
10.18	0.3317	-9.4244	2.9970	0.0002	0.0072	-0.0146	19.4128	10.1840	-10.0201	-0.7990	0.5848	0.1008	-0.0965
10.19	0.3310	-9.4489	2.9977	0.0042	0.0068	-0.0118	19.1555	10.1763	-9.8124	-0.7991	0.5849	0.1008	-0.0965
10.2	0.3337	-9.4602	3.0064	0.0084	0.0058	-0.0132	19.0929	10.3022	-9.8565	-0.7990	0.5849	0.1007	-0.0965
10.21	0.3351	-9.4541	3.0008	0.0155	-0.0030	-0.0142	19.2307	10.2070	-9.8411	-0.7990	0.5848	0.1008	-0.0966
10.22	0.3326	-9.4574	3.0008	0.0172	-0.0031	-0.0159	19.0057	10.5018	-9.6634	-0.7991	0.5848	0.1008	-0.0966
10.23	0.3513	-9.4492	3.0102	0.0175	-0.0037	-0.0130	19.0784	10.2163	-9.8921	-0.7991	0.5848	0.1008	-0.0967
10.24	0.3693	-9.4518	3.0090	0.0226	-0.0059	-0.0161	19.1301	10.2122	-9.8497	-0.7991	0.5847	0.1009	-0.0967
10.25	0.3871	-9.4404	3.0170	0.0228	-0.0106	-0.0103	19.2031	10.3014	-9.6036	-0.7991	0.5846	0.1009	-0.0968
10.26	0.3916	-9.4285	3.0113	0.0230	-0.0130	-0.0038	19.1129	10.0179	-9.5853	-0.7992	0.5846	0.1010	-0.0969
10.27	0.3797	-9.4064	3.0108	0.0139	-0.0110	-0.0050	19.1284	10.1428	-9.8516	-0.7992	0.5845	0.1010	-0.0971
10.28	0.3700	-9.4339	3.0061	0.0106	-0.0134	-0.0046	19.1056	9.9266	-10.1340	-0.7992	0.5846	0.1011	-0.0972
10.29	0.3870	-9.4760	3.0259	0.0219	-0.0142	-0.0047	19.3098	9.7953	-9.8254	-0.7991	0.5845	0.1012	-0.0973
10.3	0.4045	-9.4627	3.0481	0.0220	-0.0126	-0.0042	19.3159	9.9613	-9.9309	-0.7992	0.5845	0.1012	-0.0974
10.31	0.4113	-9.4362	3.0444	0.0314	-0.0048	-0.0071	19.2830	10.0277	-9.9769	-0.7992	0.5844	0.1012	-0.0975
10.32	0.4270	-9.3883	3.0510	0.0292	-0.0046	-0.0105	19.3276	10.2169	-9.6527	-0.7992	0.5842	0.1013	-0.0975
10.33	0.4230	-9.3817	3.0599	0.0246	0.0089	-0.0117	19.3563	10.0191	-9.8595	-0.7994	0.5843	0.1013	-0.0976
10.34	0.3857	-9.3821	3.0672	0.0267	0.0196	-0.0106	19.3536	10.0552	-9.6793	-0.7994	0.5842	0.1012	-0.0976
10.35	0.3421	-9.3876	3.0674	0.0239	0.0239	-0.0129	19.5952	10.2572	-9.5970	-0.7995	0.5842	0.1011	-0.0976
10.36	0.3091	-9.3943	3.0655	0.0252	0.0254	-0.0090	19.5757	9.9585	-9.5607	-0.7994	0.5840	0.1010	-0.0976
10.37	0.2909	-9.3878	3.0699	0.0211	0.0230	-0.0269	19.4185	9.9221	-9.6815	-0.7995	0.5840	0.1010	-0.0975
10.38	0.2959	-9.3940	3.0741	0.0200	0.0223	-0.0274	19.1194	10.1592	-9.8366	-0.7996	0.5840	0.1009	-0.0974
10.39	0.3050	-9.3939	3.0742	0.0204	0.0102	-0.0233	19.2047	10.0630	-9.8572	-0.7996	0.5839	0.1009	-0.0974
10.4	0.3136	-9.3952	3.0761	0.0186	0.0138	-0.0305	19.0648	10.2143	-9.9220	-0.7997	0.5839	0.1010	-0.0974
10.41	0.3272	-9.3931	3.0722	0.0108	0.0091	-0.0265	19.1828	10.1511	-9.5866	-0.7996	0.5839	0.1010	-0.0973
10.42	0.3462	-9.3956	3.0740	0.0207	0.0045	-0.0198	19.1485	10.0549	-9.9630	-0.7997	0.5838	0.1010	-0.0973
10.43	0.3616	-9.3995	3.0662	0.0121	0.0021	-0.0178	19.0763	10.2094	-10.0033	-0.7996	0.5837	0.1010	-0.0973
10.44	0.3680	-9.4012	3.0658	0.0188	0.0001	-0.0115	19.2577	10.0388	-9.7559	-0.7997	0.5838	0.1010	-0.0974
10.45	0.3812	-9.4012	3.0709	0.0237	-0.0024	-0.0028	19.1040	9.8500	-10.0027	-0.7997	0.5837	0.1010	-0.0975
10.46	0.3883	-9.3985	3.0715	0.0189	-0.0117	-0.0052	19.1738	10.0871	-9.9672	-0.7997	0.5836	0.1011	-0.0976
10.47	0.3980	-9.4014	3.0846	0.0230	-0.0045	-0.0044	19.3039	10.1135	-10.0131	-0.7998	0.5836	0.1011	-0.0977
10.48	0.3951	-9.4024	3.0868	0.0193	-0.0010	-0.0054	19.4260	9.9315	-9.9294	-0.7998	0.5835	0.1011	-0.0978
10.49	0.3880	-9.3887	3.0850	0.0226	0.0106	-0.0032	19.2499	9.9651	-9.8797	-0.7999	0.5835	0.1011	-0.0978
10.5	0.3771	-9.3871	3.0885	0.0244	0.0101	-0.0033	19.1482	10.1201	-9.9022	-0.7998	0.5834	0.1010	-0.0979
10.51	0.3538	-9.3974	3.0886	0.0187	0.0190	-0.0040	19.4645	9.8812	-9.7860	-0.7999	0.5834	0.1009	-0.0979
10.52	0.3343	-9.4055	3.0859	0.0213	0.0199	-0.0035	19.4137	9.8073	-9.7774	-0.7999	0.5834	0.1008	-0.0979
10.53	0.3205	-9.4041	3.0877	0.0174	0.0197	-0.0034	19.3485	9.9270	-9.8834	-0.8000	0.5834	0.1008	-0.0980
10.54	0.3099	-9.4148	3.0859	0.0175	0.0181	-0.0056	19.4074	9.9028	-9.8811	-0.8000	0.5833	0.1007	-0.0980
10.55	0.3060	-9.4182	3.0844	0.0155	0.0186	-0.0068	19.1965	9.9700	-9.9165	-0.8000	0.5833	0.1006	-0.0980
10.56	0.3077	-9.4173	3.0814	0.0140	0.0239	-0.0089	19.2551	10.1745	-9.8143	-0.8000	0.5833	0.1005	-0.0980
10.57	0.3077	-9.4200	3.0882	0.0221	0.0186	-0.0056	19.3008	9.9548	-9.8855	-0.8000	0.5832	0.1004	-0.0980
10.58	0.3129	-9.4245	3.0852	0.0135	0.0136	-0.0053	19.1907	10.2710	-9.8982	-0.8001	0.5833	0.1004	-0.0980
10.59	0.3157	-9.4127	3.0900	0.0245	0.0205	-0.0040	19.1761	10.2057	-9.5995	-0.8001	0.5832	0.1003	-0.0981
10.6	0.3177	-9.4040	3.0911	0.0212	0.0190	-0.0099	19.0492	9.9902	-9.6718	-0.8002	0.5832	0.1003	-0.0981
10.61	0.3234	-9.3888	3.0945	0.0231	0.0135	-0.0105	19.3230	10.0083	-9.9078	-0.8002	0.5831	0.1002	-0.0981
10.62	0.3234	-9.3801	3.1043	0.0241	0.0137	-0.0048	19.2531	10.1378	-10.0063	-0.8002	0.5831	0.1002	-0.0981
10.63	0.3180	-9.3745	3.1025	0.0242	0.0146	-0.0080	19.1694	10.1865	-9.7828	-0.8003	0.5830	0.1001	-0.0981
10.64	0.3081	-9.3732	3.1092	0.0239	0.0122	-0.0081	19.2763	9.8918	-9.8824	-0.8003	0.5829	0.1001	-0.0982
10.65	0.3050	-9.3772	3.1100	0.0203	0.0183	-0.0095	19.4031	9.9504	-9.9929	-0.8004	0.5830	0.1000	-0.0982
10.66	0.2951	-9.3820	3.1126	0.0233	0.0205	-0.0131	19.3497	9.8599	-9.9969	-0.8004	0.5828	0.0999	-0.0982
10.67	0.2879	-9.3825	3.1109	0.0224	0.0198	-0.0166	19.4448	9.6475	-9.9015	-0.8005	0.5828	0.0999	-0.0981
10.68	0.2908	-9.3740	3.1165	0.0219	0.0153	-0.0199	19.4808	10.0730	-9.8934	-0.8004	0.5827	0.0999	-0.0981
10.69	0.2905	-9.3722	3.1151	0.0122	0.0104	-0.0136	19.3343	9.9477	-9.7570	-0.8005	0.5827	0.0999	-0.0981
10.7	0.3033	-9.3808	3.1246	0.0029	0.0040	-0.0179	19.4265	9.9786	-9.8904	-0.8005	0.5828	0.0999	-0.0981
10.71	0.3109	-9.3755	3.1244	0.0119	0.0101	-0.0196	19.5029	9.9612	-10.0996	-0.8005	0.5827	0.0999	-0.0981
10.72	0.3235	-9.3675	3.1203	0.0167	0.0011	-0.0184	19.2398	9.7988	-10.0574	-0.8005	0.5827	0.0999	-0.0981
10.73	0.3393	-9.3626	3.1246	0.0162	-0.0019	-0.0106	19.2011	9.8572	-9.9363	-0.8005	0.5827	0.1000	-0.0982
10.74	0.3473	-9.3526	3.1226	0.0047	-0.0068	-0.0123	19.1792	10.0327	-9.8360	-0.8006	0.5827	0.1000	-0.0982
10.75	0.3584	-9.3520	3.1159	-0.0009	-0.0021	-0.0166	19.2950	10.2312	-9.6915	-0.8004	0.5827	0.1001	-0.0982
10.76	0.3630	-9.3574	3.1134	-0.0005	-0.0026	-0.0093	19.3764	10.1374	-9.7409	-0.8005	0.5828	0.1001	-0.0983
10.77	0.3667	-9.3601	3.1092	-0.0012	-0.0032	-0.0145	19.0943	10.2854	-9.8165	-0.8004	0.5828	0.1002	-0.0983
10.78	0.3655	-9.3643	3.0987	-0.0012	-0.0016	-0.0099	19.1257	10.4077	-9.8153	-0.8004	0.5828	0.1002	-0.0984
10.79	0.3675	-9.3733	3.0905	-0.0083	-0.0035	-0.0100	19.0849	10.1532	-9.7734	-0.8003	0.5829	0.1002	-0.0985
10.8	0.3661	-9.3892	3.0935	-0.0069	0.0032	-0.0103	19.3959	10.1949	-9.9922	-0.8003	0.5829	0.1002	-0.0985
10.81	0.3671	-9.4034	3.0888	-0.0015	-0.0017	-0.0132	19.3066	10.3887	-9.8817	-0.8003	0.5830	0.1002	-0.0986
10.82	0.3625	-9.4014	3.0908	-0.0013	-0.0021	-0.0109	19.2796	10.2062	-9.7585	-0.8002	0.5829	0.1002	-0.0986
10.83	0.3697	-9.4121	3.0931	-0.0014	-0.0050	-0.0119	19.3735	9.8645	-10.0411	-0.8002	0.5830	0.1003	-0.0987
10.84	0.3665	-9.4085	3.0909	-0.0011	0.0067	-0.0186	19.4234	9.9454	-9.9351	-0.8002	0.5830	0.1002	-0.0987
10.85	0.3556	-9.4079	3.0935	-0.0014	0.0097	-0.0138	19.7513	9.9122	-9.7596	-0.8002	0.5831	0.1002	-0.0987
10.86	0.3462	-9.4082	3.0870	-0.0010	0.0122	-0.0135	20.1869	10.0258	-9.5264	-0.8001	0.5831	0.1002	-0.0987
10.87	0.3342	-9.3846	3.0677	-0.0022	-0.0030	-0.0169	19.5475	9.8362	-9.7180	-0.8001	0.5831	0.1002	-0.0988
10.88	0.3427	-9.3819	3.0689	-0.0028	-0.0070	-0.0158	19.4017	9.9397	-9.8112	-0.8001	0.5832	0.1002	-0.0988
10.89	0.3644	-9.4124	3.0796	-0.0014	-0.0058	-0.0157	19.1668	9.9595	-9.5962	-0.8000	0.5831	0.1002	-0.0989
10.9	0.3828	-9.4456	3.0890	-0.0035	-0.0014	-0.0133	19.0377	10.0952	-9.6425	-0.8001	0.5833	0.1003	-0.0989
10.91	0.4005	-9.4434	3.0926	0.0008	-0.0066	-0.0188	19.3191	9.9581	-9.7776	-0.8000	0.5832	0.1003	-0.0990
10.92	0.4051	-9.4074	3.0950	-0.0009	0.0035	-0.0113	18.9328	10.0490	-9.8523	-0.8000	0.5833	0.1003	-0.0990
10.93	0.4096	-9.4038	3.0932	0.0001	0.0155	-0.0087	19.0714	10.2018	-9.7152	-0.7999	0.5833	0.1002	-0.0990
10.94	0.4055	-9.4125	3.0938	-0.0009	0.0140	-0.0047	19.4018	10.1227	-9.6235	-0.7999	0.5833	0.1001	-0.0991
10.95	0.3879	-9.4081	3.0865	0.0025	0.0259	-0.0039	19.0809	10.1139	-9.8250	-0.7999	0.5834	0.1000	-0.0991
10.96	0.3587	-9.3771	3.0693	-0.0024	0.0288	-0.0044	19.1117	10.2061	-9.8132	-0.7999	0.5834	0.0999	-0.0991
10.97	0.3274	-9.3554	3.0478	-0.0121	0.0324	-0.0061	19.3857	9.9685	-9.8319	-0.7999	0.5835	0.0997	-0.0991
10.98	0.3041	-9.3559	3.0358	-0.0108	0.0293	-0.0084	19.2817	10.1226	-9.9318	-0.7998	0.5836	0.0996	-0.0990
10.99	0.2908	-9.3686	3.0290	-0.0113	0.0237	-0.0143	19.0087	10.0527	-9.8802	-0.7998	0.5837	0.0995	-0.0990
11	0.2897	-9.3887	3.0223	-0.0140	0.0190	-0.0145	19.2545	10.1720	-9.6745	-0.7997	0.5837	0.0994	-0.0990
11.01	0.2880	-9.4213	3.0300	-0.0180	0.0247	-0.0136	19.4484	10.1735	-9.8115	-0.7997	0.5838	0.0994	-0.0989
11.02	0.2739	-9.4531	3.0228	-0.0209	0.0187	-0.0112	19.4461	9.9895	-9.8583	-0.7996	0.5839	0.0993	-0.0989
11.03	0.2700	-9.4693	3.0103	-0.0080	0.0120	-0.0151	19.5571	10.0724	-9.6297	-0.7996	0.5840	0.0992	-0.0989
11.04	0.2611	-9.4782	3.0074	-0.0015	0.0072	-0.0198	19.3773	10.0842	-9.9810	-0.7996	0.5840	0.0992	-0.0989
11.05	0.2638	-9.4719	3.0081	-0.0012	-0.0004	-0.0139	19.4691	9.9666	-9.7148	-0.7996	0.5840	0.0992	-0.0990
11.06	0.2854	-9.4634	3.0090	-0.0010	-0.0137	-0.0162	19.5009	10.2000	-9.7674	-0.7996	0.5840	0.0992	-0.0990
11.07	0.3223	-9.4548	3.0138	-0.0018	-0.0268	-0.0101	19.2175	10.0759	-9.6012	-0.7995	0.5839	0.0993	-0.0991
11.08	0.3564	-9.4409	3.0246	0.0003	-0.0266	-0.0115	19.2540	9.9914	-9.7858	-0.7996	0.5840	0.0994	-0.0993
11.09	0.3773	-9.4185	3.0288	0.0025	-0.0251	-0.0061	19.2288	10.1337	-9.7717	-0.7995	0.5839	0.0995	-0.0994
11.1	0.3791	-9.3932	3.0250	-0.0009	-0.0321	-0.0049	19.2705	10.2412	-9.7801	-0.7996	0.5840	0.0996	-0.0996
11.11	0.3820	-9.4181	3.0269	-0.0016	-0.0255	-0.0040	19.1279	10.2776	-9.8562	-0.7994	0.5839	0.0997	-0.0997
11.12	0.3917	-9.4559	3.0410	0.0002	-0.0235	-0.0033	19.1961	9.9923	-9.7981	-0.7994	0.5839	0.0997	-0.0999
11.13	0.4149	-9.4446	3.0500	0.0003	-0.0167	-0.0048	19.0573	10.0337	-9.8436	-0.7994	0.5839	0.0998	-0.1000
11.14	0.4277	-9.4005	3.0446	0.0165	-0.0045	-0.0054	19.2033	10.1694	-9.7521	-0.7994	0.5838	0.0998	-0.1001
11.15	0.4397	-9.3656	3.0562	0.0122	0.0004	-0.0095	19.4759	10.1842	-9.5970	-0.7996	0.5838	0.0998	-0.1002
11.16	0.4333	-9.3867	3.0606	0.0010	0.0135	-0.0137	19.2461	10.1514	-9.6902	-0.7995	0.5838	0.0997	-0.1002
11.17	0.3941	-9.4079	3.0655	0.0003	0.0200	-0.0081	19.2454	10.2044	-9.7390	-0.7995	0.5838	0.0996	-0.1002
11.18	0.3400	-9.4245	3.0611	-0.0012	0.0347	-0.0083	19.2424	10.0413	-9.7322	-0.7994	0.5838	0.0995	-0.1002
11.19	0.2955	-9.4405	3.0467	-0.0018	0.0366	-0.0121	19.2464	10.1412	-9.7060	-0.7995	0.5839	0.0993	-0.1001
11.2	0.2617	-9.4426	3.0378	0.0037	0.0312	-0.0110	19.2471	10.0969	-9.9741	-0.7995	0.5839	0.0992	-0.1001
11.21	0.2531	-9.4267	3.0378	0.0107	0.0255	-0.0187	19.2418	9.8723	-9.9474	-0.7996	0.5838	0.0991	-0.1000
11.22	0.2653	-9.4244	3.0441	0.0066	0.0167	-0.0233	19.2484	9.9144	-9.7810	-0.7996	0.5838	0.0990	-0.1000
11.23	0.2780	-9.4269	3.0359	0.0048	0.0187	-0.0256	19.2359	9.6464	-9.9592	-0.7996	0.5838	0.0990	-0.0999
11.24	0.2856	-9.4195	3.0267	0.0065	0.0147	-0.0174	19.4756	10.0641	-9.8256	-0.7997	0.5838	0.0989	-0.0999
11.25	0.3001	-9.4132	3.0403	0.0031	0.0092	-0.0182	19.2123	10.0898	-9.8151	-0.7996	0.5837	0.0989	-0.0999
11.26	0.3067	-9.4133	3.0392	0.0142	0.0047	-0.0133	19.3000	10.0777	-9.7116	-0.7997	0.5837	0.0989	-0.0999
11.27	0.3168	-9.4111	3.0444	0.0082	-0.0062	-0.0043	19.2739	10.2345	-9.7360	-0.7997	0.5837	0.0989	-0.1000
11.28	0.3299	-9.3982	3.0414	0.0044	-0.0040	-0.0093	19.0357	10.0092	-9.7287	-0.7997	0.5837	0.0989	-0.1001
11.29	0.3375	-9.3937	3.0419	0.0020	-0.0066	-0.0051	19.1462	9.8983	-9.7206	-0.7997	0.5836	0.0989	-0.1002
11.3	0.3419	-9.3931	3.0452	0.0099	-0.0083	-0.0095	19.3195	9.9050	-9.5918	-0.7997	0.5836	0.0989	-0.1003
11.31	0.3398	-9.3908	3.0352	0.0018	-0.0038	-0.0082	19.0553	10.3284	-9.6714	-0.7997	0.5836	0.0989	-0.1004
11.32	0.3406	-9.4000	3.0397	-0.0019	-0.0034	-0.0056	19.2369	10.2674	-9.5900	-0.7997	0.5836	0.0989	-0.1004
11.33	0.3406	-9.4090	3.0352	0.0025	0.0020	-0.0057	19.5128	10.2643	-9.9275	-0.7998	0.5836	0.0989	-0.1005
11.34	0.3349	-9.4253	3.0286	-0.0017	0.0102	-0.0054	19.1732	10.2138	-9.8031	-0.7997	0.5836	0.0988	-0.1005
11.35	0.3259	-9.4390	3.0205	-0.0038	0.0038	-0.0153	19.7658	10.1628	-9.4906	-0.7998	0.5837	0.0988	-0.1006
11.36	0.3195	-9.4595	3.0115	-0.0007	0.0094	-0.0079	19.9864	10.1863	-9.6312	-0.7996	0.5836	0.0988	-0.1006
11.37	0.3159	-9.4641	3.0126	-0.0024	0.0080	-0.0047	19.7378	9.9520	-9.5063	-0.7997	0.5837	0.0987	-0.1006
11.38	0.3142	-9.4612	3.0129	0.0041	0.0086	-0.0113	19.2317	10.3402	-9.6497	-0.7997	0.5837	0.0987	-0.1007
11.39	0.2947	-9.4586	3.0046	0.0072	0.0091	-0.0078	19.2324	9.9242	-9.8574	-0.7997	0.5836	0.0986	-0.1007
11.4	0.2896	-9.4593	3.0109	0.0141	0.0073	-0.0099	19.3401	9.8250	-9.9721	-0.7998	0.5836	0.0986	-0.1007
11.41	0.2853	-9.4579	3.0096	0.0118	0.0075	-0.0033	19.5272	9.8544	-9.8160	-0.7997	0.5835	0.0985	-0.1008
11.42	0.2850	-9.4599	3.0121	0.0232	0.0049	-0.0053	19.4508	9.8798	-9.7053	-0.7999	0.5835	0.0985	-0.1009
11.43	0.2793	-9.4416	3.0160	0.0242	0.0019	-0.0091	19.4466	10.0893	-9.5878	-0.7998	0.5833	0.0984	-0.1009
11.44	0.2751	-9.4397	3.0159	0.0250	-0.0024	-0.0103	19.2784	9.7125	-9.6990	-0.8000	0.5833	0.0984	-0.1010
11.45	0.2802	-9.4323	3.0208	0.0233	0.0004	-0.0120	19.3325	9.9179	-9.6848	-0.8000	0.5832	0.0984	-0.1011
11.46	0.2813	-9.4220	3.0211	0.0251	-0.0016	-0.0136	19.5182	10.1005	-9.6801	-0.8000	0.5831	0.0984	-0.1011
11.47	0.2911	-9.4212	3.0298	0.0223	-0.0046	-0.0146	19.1800	9.6956	-9.7015	-0.8001	0.5830	0.0984	-0.1012
11.48	0.3054	-9.4175	3.0287	0.0248	-0.0069	-0.0165	19.3411	10.0674	-9.4957	-0.8002	0.5829	0.0984	-0.1012
11.49	0.3312	-9.4174	3.0416	0.0245	-0.0027	-0.0268	19.2985	9.9594	-9.6101	-0.8003	0.5828	0.0985	-0.1012
11.5	0.3509	-9.4130	3.0457	0.0254	-0.0006	-0.0275	19.1624	10.2989	-9.8169	-0.8003	0.5826	0.0985	-0.1012
11.51	0.3647	-9.4061	3.0512	0.0238	-0.0046	-0.0241	19.1608	10.3882	-9.6723	-0.8004	0.5826	0.0986	-0.1012
11.52	0.3761	-9.3982	3.0639	0.0272	-0.0009	-0.0231	19.0569	10.2105	-9.7017	-0.8005	0.5825	0.0986	-0.1013
11.53	0.3873	-9.3924	3.0634	0.0241	-0.0041	-0.0215	19.3695	10.1914	-9.6990	-0.8006	0.5824	0.0986	-0.1013
11.54	0.3883	-9.3882	3.0642	0.0253	0.0059	-0.0168	19.2495	10.2183	-9.6603	-0.8006	0.5823	0.0986	-0.1013
