time	acceleration_x	acceleration_y	acceleration_z	gyroscope_x	gyroscope_y	gyroscope_z	magnetometer_x	magnetometer_y	magnetometer_z	quaternion_w	quaternion_x	quaternion_y	quaternion_z
0	-5.2204	0.1498	-0.2236	0.0124	0.0125	-0.0027	23.1171	5.2949	-2.1900	0.2155	0.3402	0.2099	-0.3104
0.01	-10.3440	0.3192	-0.4711	0.0232	0.0422	-0.0071	45.7989	10.4621	-4.5238	0.4256	0.6724	0.4147	-0.6131
0.02	-9.0684	0.2722	-0.4695	0.0193	0.0357	-0.0072	40.3206	9.1931	-3.9373	0.3744	0.5920	0.3649	-0.5395
0.03	-9.7351	0.2837	-0.4134	0.0176	0.0348	-0.0053	43.1462	9.7490	-4.2103	0.4019	0.6357	0.3918	-0.5791
0.04	-9.2938	0.2802	-0.4431	0.0144	0.0505	-0.0021	41.4091	9.2090	-4.2906	0.3847	0.6090	0.3751	-0.5544
0.05	-9.5468	0.3230	-0.4702	0.0121	0.0530	0.0081	42.3757	9.3821	-4.3696	0.3956	0.6265	0.3857	-0.5700
0.06	-9.4384	0.3281	-0.4430	-0.0069	0.0531	0.0183	42.0188	9.0647	-4.2876	0.3886	0.6158	0.3789	-0.5597
0.07	-9.5063	0.3493	-0.5325	-0.0030	0.0544	0.0137	42.3852	9.3285	-4.1997	0.3928	0.6228	0.3831	-0.5656
0.08	-9.4619	0.3535	-0.4490	-0.0220	0.0456	0.0154	41.8814	9.4000	-4.0315	0.3904	0.6191	0.3807	-0.5618
0.09	-9.4872	0.3590	-0.4807	-0.0292	0.0528	0.0185	42.3795	9.0459	-4.1743	0.3917	0.6213	0.3820	-0.5634
0.1	-9.5187	0.3647	-0.5185	-0.0378	0.0534	0.0274	42.1401	9.1367	-4.0846	0.3913	0.6206	0.3815	-0.5623
0.11	-9.4615	0.3465	-0.5404	-0.0549	0.0398	0.0320	41.9815	9.2352	-4.0889	0.3915	0.6208	0.3816	-0.5619
0.12	-9.3842	0.3607	-0.4855	-0.0532	0.0380	0.0366	41.9408	9.3761	-4.2003	0.3917	0.6209	0.3816	-0.5616
0.13	-9.4673	0.3626	-0.4990	-0.0558	0.0648	0.0322	42.0167	9.2317	-3.8657	0.3919	0.6211	0.3817	-0.5612
0.14	-9.5464	0.3887	-0.6314	-0.0559	0.0755	0.0369	42.0154	9.3131	-3.9204	0.3920	0.6213	0.3818	-0.5608
0.15	-9.4990	0.3571	-0.6039	-0.0554	0.0442	0.0342	41.9880	9.1630	-3.9839	0.3922	0.6215	0.3819	-0.5604
0.16	-9.5556	0.3758	-0.5139	-0.0555	0.0568	0.0344	42.2917	9.2180	-3.8464	0.3924	0.6217	0.3820	-0.5600
0.17	-9.6868	0.4251	-0.6093	-0.0561	0.0708	0.0341	42.0613	9.2320	-4.0060	0.3926	0.6219	0.3821	-0.5596
0.18	-9.6253	0.3951	-0.6581	-0.0566	0.0335	0.0333	42.0936	9.2031	-4.0986	0.3928	0.6220	0.3822	-0.5593
0.19	-9.5427	0.4191	-0.5327	-0.0538	0.0110	0.0251	42.2537	9.0088	-3.8556	0.3931	0.6220	0.3822	-0.5590
0.2	-9.5583	0.4307	-0.5761	-0.0514	0.0477	0.0186	42.2140	8.8331	-3.8576	0.3932	0.6222	0.3823	-0.5587
0.21	-9.5454	0.4005	-0.6689	-0.0367	0.0465	0.0190	42.1065	8.8963	-3.8475	0.3933	0.6223	0.3824	-0.5584
0.22	-9.5238	0.4399	-0.5908	-0.0280	0.0396	0.0106	41.9494	8.8547	-3.9024	0.3934	0.6224	0.3824	-0.5582
0.23	-9.5582	0.4593	-0.6073	-0.0308	0.0507	0.0080	42.0593	9.0386	-3.5515	0.3934	0.6226	0.3825	-0.5579
0.24	-9.6187	0.4446	-0.6961	-0.0232	0.0369	-0.0082	42.2909	9.0090	-3.7345	0.3935	0.6227	0.3826	-0.5577
0.25	-9.6246	0.4520	-0.6807	-0.0174	0.0145	-0.0050	42.3531	8.9633	-3.7636	0.3935	0.6228	0.3826	-0.5576
0.26	-9.5791	0.4460	-0.6379	-0.0134	0.0036	-0.0093	42.2235	8.9055	-3.8419	0.3935	0.6228	0.3826	-0.5575
0.27	-9.5421	0.4613	-0.6039	-0.0074	-0.0093	-0.0105	42.2429	8.8275	-3.8743	0.3935	0.6228	0.3826	-0.5575
0.28	-9.5540	0.4617	-0.6199	-0.0096	-0.0105	-0.0131	42.3610	8.8522	-3.6791	0.3936	0.6228	0.3825	-0.5575
0.29	-9.5329	0.4718	-0.6237	-0.0114	-0.0132	-0.0155	42.9718	9.2365	-3.4517	0.3936	0.6228	0.3825	-0.5576
0.3	-9.5189	0.4309	-0.5633	-0.0096	-0.0114	-0.0156	42.7015	8.9364	-3.4981	0.3936	0.6228	0.3824	-0.5576
0.31	-9.5104	0.4593	-0.5683	-0.0062	-0.0098	-0.0138	42.0776	8.5554	-3.7275	0.3936	0.6228	0.3824	-0.5576
0.32	-9.5098	0.4246	-0.5990	-0.0084	0.0030	-0.0103	42.3498	8.8223	-3.7205	0.3936	0.6229	0.3824	-0.5576
0.33	-9.4468	0.4469	-0.5985	-0.0022	-0.0128	-0.0085	42.0270	8.9859	-3.6921	0.3937	0.6229	0.3823	-0.5576
0.34	-9.4831	0.4864	-0.5292	0.0032	0.0026	-0.0259	42.0408	9.1158	-3.8221	0.3936	0.6229	0.3823	-0.5576
0.35	-9.4712	0.4883	-0.5988	-0.0031	0.0138	-0.0274	42.1985	9.0760	-3.6571	0.3935	0.6229	0.3824	-0.5576
0.36	-9.5652	0.4751	-0.5409	-0.0026	-0.0054	-0.0316	42.2001	9.1400	-3.5829	0.3935	0.6229	0.3824	-0.5576
0.37	-9.5148	0.4670	-0.5819	0.0015	-0.0002	-0.0321	41.9399	9.2944	-3.7449	0.3934	0.6229	0.3824	-0.5576
0.38	-9.4506	0.4633	-0.5150	0.0004	-0.0132	-0.0325	41.9518	9.2373	-3.6778	0.3934	0.6229	0.3824	-0.5577
0.39	-9.4538	0.4968	-0.4992	0.0101	-0.0038	-0.0300	41.9815	9.1630	-3.6381	0.3933	0.6229	0.3824	-0.5577
0.4	-9.4984	0.5204	-0.5468	-0.0045	-0.0091	-0.0317	42.1481	8.9143	-3.8052	0.3933	0.6229	0.3824	-0.5578
0.41	-9.4516	0.5300	-0.5360	-0.0003	-0.0180	-0.0360	42.0307	8.9302	-3.8142	0.3932	0.6228	0.3824	-0.5579
0.42	-9.3943	0.5390	-0.4530	-0.0122	-0.0152	-0.0375	42.1763	8.9991	-3.7641	0.3932	0.6228	0.3825	-0.5579
0.43	-9.3848	0.5063	-0.4793	-0.0297	0.0099	-0.0457	42.2617	9.0815	-3.6972	0.3932	0.6227	0.3826	-0.5579
0.44	-9.4748	0.5037	-0.5062	-0.0316	0.0211	-0.0552	42.1123	9.0134	-3.7060	0.3931	0.6227	0.3828	-0.5578
0.45	-9.4884	0.4655	-0.5268	-0.0431	0.0183	-0.0542	42.1593	9.0176	-3.7331	0.3931	0.6226	0.3831	-0.5578
0.46	-9.4842	0.4234	-0.4784	-0.0531	0.0156	-0.0553	42.2287	8.8019	-3.7923	0.3931	0.6225	0.3834	-0.5577
0.47	-9.4609	0.4035	-0.5109	-0.0745	0.0240	-0.0340	42.2400	9.0235	-3.6360	0.3932	0.6224	0.3837	-0.5575
0.48	-9.5034	0.3478	-0.5092	-0.0817	0.0281	-0.0328	42.1075	9.2254	-3.9554	0.3933	0.6223	0.3840	-0.5573
0.49	-9.5451	0.3461	-0.5463	-0.0788	0.0330	-0.0162	42.1810	9.0362	-3.8377	0.3935	0.6223	0.3842	-0.5570
0.5	-9.4696	0.2984	-0.5965	-0.0824	0.0163	-0.0060	42.1883	8.9714	-3.6174	0.3937	0.6222	0.3845	-0.5568
0.51	-9.4451	0.3000	-0.5146	-0.0809	0.0050	0.0070	42.1038	9.1626	-3.6125	0.3940	0.6222	0.3846	-0.5566
0.52	-9.5269	0.3376	-0.5571	-0.0831	0.0349	0.0168	42.1552	9.2979	-3.6449	0.3942	0.6222	0.3848	-0.5563
0.53	-9.5954	0.3069	-0.6930	-0.0806	0.0388	0.0178	42.1207	9.2472	-3.5763	0.3945	0.6222	0.3849	-0.5559
0.54	-9.6048	0.3205	-0.6273	-0.0787	0.0082	0.0183	42.1410	9.0779	-3.5134	0.3948	0.6222	0.3851	-0.5556
0.55	-9.6023	0.2958	-0.6011	-0.0606	0.0152	0.0167	42.1927	9.1982	-3.5288	0.3950	0.6222	0.3851	-0.5554
0.56	-9.5891	0.2947	-0.6801	-0.0536	0.0150	0.0208	42.3936	9.1595	-3.5433	0.3952	0.6223	0.3852	-0.5552
0.57	-9.5778	0.3079	-0.6887	-0.0456	-0.0071	0.0221	42.3362	9.0793	-3.4798	0.3954	0.6223	0.3851	-0.5550
0.58	-9.6189	0.3589	-0.6560	-0.0254	-0.0074	0.0188	42.3382	9.0910	-3.7129	0.3956	0.6223	0.3851	-0.5549
0.59	-9.6129	0.4083	-0.6975	-0.0226	-0.0144	0.0081	42.0777	9.2008	-3.6091	0.3958	0.6223	0.3850	-0.5549
0.6	-9.6543	0.4000	-0.6515	-0.0192	-0.0250	-0.0028	41.9657	9.0248	-3.5090	0.3959	0.6223	0.3849	-0.5549
0.61	-9.5971	0.3841	-0.6941	-0.0065	-0.0258	-0.0069	42.2656	9.2339	-3.5210	0.3960	0.6222	0.3849	-0.5549
0.62	-9.5649	0.4144	-0.6489	-0.0016	-0.0372	-0.0069	42.1921	8.9022	-3.6195	0.3960	0.6222	0.3847	-0.5550
0.63	-9.6173	0.4162	-0.6275	0.0102	-0.0359	-0.0101	42.3524	8.8447	-3.5977	0.3961	0.6221	0.3846	-0.5551
0.64	-9.6108	0.4498	-0.6945	0.0247	-0.0386	-0.0142	42.4233	9.0642	-3.8292	0.3961	0.6221	0.3844	-0.5552
0.65	-9.6043	0.4626	-0.6146	0.0217	-0.0646	-0.0299	42.3700	8.6991	-3.6380	0.3961	0.6220	0.3843	-0.5555
0.66	-9.5410	0.4220	-0.5917	0.0234	-0.0632	-0.0342	42.4490	8.8653	-3.5118	0.3960	0.6219	0.3841	-0.5558
0.67	-9.5569	0.4285	-0.5570	0.0221	-0.0597	-0.0355	42.1781	8.9244	-3.6223	0.3960	0.6218	0.3840	-0.5560
0.68	-9.5453	0.4034	-0.6018	0.0226	-0.0613	-0.0336	42.2168	8.9235	-3.6741	0.3960	0.6216	0.3838	-0.5563
0.69	-9.4822	0.4174	-0.5876	0.0224	-0.0799	-0.0331	42.4391	8.9072	-3.7102	0.3960	0.6215	0.3836	-0.5566
0.7	-9.4841	0.4005	-0.5184	0.0226	-0.0835	-0.0351	42.1883	8.9408	-3.7290	0.3960	0.6213	0.3834	-0.5570
0.71	-9.4421	0.4043	-0.5635	0.0206	-0.0693	-0.0327	42.3517	9.0199	-3.7925	0.3960	0.6211	0.3833	-0.5572
0.72	-9.4306	0.3932	-0.4939	0.0232	-0.0769	-0.0334	42.0318	9.0092	-3.6477	0.3960	0.6210	0.3831	-0.5575
0.73	-9.4644	0.3597	-0.4798	0.0216	-0.0577	-0.0328	42.0410	8.9841	-3.9324	0.3960	0.6208	0.3829	-0.5578
0.74	-9.5634	0.3744	-0.4957	0.0243	-0.0537	-0.0323	42.1743	9.0540	-3.7516	0.3959	0.6207	0.3828	-0.5580
0.75	-9.5484	0.3715	-0.5169	0.0238	-0.0634	-0.0238	42.2349	9.2426	-3.8779	0.3959	0.6206	0.3826	-0.5583
0.76	-9.4799	0.3720	-0.4773	0.0257	-0.0540	-0.0209	41.9155	9.0809	-3.9117	0.3959	0.6206	0.3824	-0.5585
0.77	-9.5223	0.4036	-0.4846	0.0260	-0.0454	-0.0254	41.9905	8.9940	-3.8816	0.3959	0.6205	0.3822	-0.5587
0.78	-9.5480	0.4083	-0.5496	0.0235	-0.0406	-0.0166	42.3242	9.0199	-3.7651	0.3958	0.6205	0.3821	-0.5589
0.79	-9.5052	0.4284	-0.5259	0.0392	-0.0615	-0.0229	42.7786	9.2039	-3.6019	0.3958	0.6204	0.3818	-0.5592
0.8	-9.5344	0.4509	-0.4746	0.0317	-0.0595	-0.0218	42.5297	9.0367	-3.5873	0.3957	0.6203	0.3816	-0.5594
0.81	-9.5276	0.4387	-0.5403	0.0233	-0.0633	-0.0276	42.1694	8.7067	-4.0577	0.3957	0.6202	0.3814	-0.5597
0.82	-9.5687	0.4414	-0.5083	0.0229	-0.0767	-0.0160	42.4245	8.5565	-3.9827	0.3958	0.6201	0.3812	-0.5600
0.83	-9.5016	0.4511	-0.4951	0.0177	-0.0863	-0.0128	42.1777	8.7382	-4.1862	0.3959	0.6199	0.3809	-0.5603
0.84	-9.5057	0.4393	-0.4385	0.0170	-0.0869	-0.0246	42.3459	8.7474	-4.2037	0.3959	0.6197	0.3807	-0.5606
0.85	-9.5167	0.4448	-0.4477	0.0167	-0.0775	-0.0211	42.1346	8.8822	-4.1013	0.3960	0.6196	0.3805	-0.5608
0.86	-9.5040	0.4318	-0.4601	0.0008	-0.0906	-0.0292	41.9693	8.9342	-4.2851	0.3961	0.6193	0.3803	-0.5611
0.87	-9.4717	0.4277	-0.4033	0.0007	-0.0938	-0.0328	42.2521	8.9072	-4.0531	0.3962	0.6191	0.3802	-0.5615
0.88	-9.4706	0.4004	-0.3879	-0.0009	-0.0748	-0.0264	42.3983	8.9372	-4.3003	0.3963	0.6189	0.3800	-0.5617
0.89	-9.4775	0.4165	-0.4052	0.0003	-0.0679	-0.0194	42.1355	8.7146	-4.5347	0.3964	0.6187	0.3799	-0.5619
0.9	-9.5277	0.4128	-0.3826	-0.0035	-0.0664	-0.0195	42.3409	8.6051	-4.1548	0.3965	0.6186	0.3797	-0.5621
0.91	-9.4845	0.4006	-0.4072	-0.0005	-0.0671	-0.0253	42.1970	8.8736	-4.3277	0.3966	0.6184	0.3796	-0.5623
0.92	-9.4165	0.3997	-0.3736	0.0030	-0.0763	-0.0291	42.1146	8.7931	-4.5287	0.3966	0.6182	0.3795	-0.5626
0.93	-9.5344	0.3916	-0.2899	-0.0021	-0.0607	-0.0305	42.1446	8.9005	-4.6319	0.3967	0.6180	0.3794	-0.5628
0.94	-9.5276	0.3841	-0.4080	0.0013	-0.0473	-0.0333	42.0634	8.9184	-4.3783	0.3967	0.6179	0.3793	-0.5630
0.95	-9.4841	0.3721	-0.3458	0.0078	-0.0788	-0.0336	41.9017	8.9240	-4.3103	0.3968	0.6177	0.3792	-0.5633
0.96	-9.4806	0.3701	-0.2755	0.0165	-0.0721	-0.0299	42.0459	9.0435	-4.2539	0.3968	0.6175	0.3790	-0.5635
0.97	-9.4881	0.3578	-0.3304	0.0057	-0.0583	-0.0257	42.1853	8.9316	-4.4729	0.3968	0.6174	0.3789	-0.5637
0.98	-9.5050	0.3666	-0.3123	0.0107	-0.0615	-0.0287	42.0091	8.8923	-4.4638	0.3969	0.6172	0.3787	-0.5640
0.99	-9.4744	0.3702	-0.3176	0.0196	-0.0606	-0.0287	41.9504	8.9585	-4.5585	0.3969	0.6171	0.3786	-0.5642
1	-9.4429	0.3786	-0.3030	0.0225	-0.0616	-0.0322	42.1383	8.9858	-4.6589	0.3968	0.6170	0.3784	-0.5645
1.01	-9.4333	0.3467	-0.2760	0.0081	-0.0528	-0.0267	42.0588	8.7984	-4.5299	0.3969	0.6169	0.3783	-0.5647
1.02	-9.4610	0.3713	-0.2898	0.0123	-0.0335	-0.0255	42.0151	8.9425	-4.6964	0.3968	0.6168	0.3782	-0.5648
1.03	-9.4925	0.3862	-0.3207	0.0065	-0.0242	-0.0258	42.2356	8.7545	-4.6699	0.3968	0.6168	0.3781	-0.5649
1.04	-9.4967	0.3987	-0.3197	0.0022	-0.0378	-0.0131	42.3527	8.9843	-4.6014	0.3969	0.6167	0.3780	-0.5650
1.05	-9.4883	0.4061	-0.2839	0.0022	-0.0432	-0.0150	42.2025	9.0206	-4.5697	0.3969	0.6166	0.3779	-0.5651
1.06	-9.5073	0.4154	-0.2581	0.0021	-0.0381	-0.0137	42.2297	8.8823	-4.5686	0.3970	0.6166	0.3778	-0.5653
1.07	-9.4718	0.4253	-0.2744	0.0017	-0.0389	-0.0145	42.0345	9.1197	-4.7943	0.3970	0.6165	0.3777	-0.5654
1.08	-9.4304	0.4386	-0.2304	-0.0036	-0.0370	-0.0160	42.1174	8.9565	-4.5996	0.3971	0.6164	0.3776	-0.5655
1.09	-9.4032	0.4452	-0.2140	-0.0062	-0.0288	-0.0197	42.1463	8.6870	-4.4644	0.3971	0.6164	0.3776	-0.5656
1.1	-9.4256	0.4481	-0.2281	-0.0058	-0.0170	-0.0240	41.9754	8.9285	-4.7388	0.3971	0.6163	0.3775	-0.5656
1.11	-9.4585	0.4457	-0.2410	-0.0169	-0.0130	-0.0288	41.9426	9.0422	-4.6200	0.3971	0.6163	0.3776	-0.5656
1.12	-9.4668	0.4326	-0.2462	-0.0238	-0.0081	-0.0319	42.0253	8.8998	-4.7901	0.3972	0.6162	0.3777	-0.5656
1.13	-9.4714	0.4124	-0.2168	-0.0275	-0.0076	-0.0336	42.0816	8.9199	-4.7327	0.3972	0.6161	0.3777	-0.5656
1.14	-9.4748	0.4053	-0.2307	-0.0290	0.0061	-0.0280	42.1090	8.9075	-4.6457	0.3972	0.6161	0.3779	-0.5656
1.15	-9.4767	0.4137	-0.2706	-0.0291	0.0087	-0.0286	41.9873	8.9549	-4.6864	0.3972	0.6161	0.3780	-0.5655
1.16	-9.4958	0.4048	-0.2691	-0.0285	0.0088	-0.0313	42.2701	9.2293	-4.6564	0.3972	0.6160	0.3781	-0.5655
1.17	-9.5028	0.3787	-0.2987	-0.0311	-0.0005	-0.0312	42.0565	9.1225	-4.7060	0.3973	0.6160	0.3782	-0.5654
1.18	-9.4477	0.3561	-0.2975	-0.0295	-0.0151	-0.0232	42.0738	9.0978	-4.8034	0.3973	0.6159	0.3783	-0.5654
1.19	-9.4586	0.3294	-0.2391	-0.0295	-0.0100	-0.0239	42.2566	9.0126	-4.6552	0.3974	0.6158	0.3783	-0.5654
1.2	-9.5544	0.3390	-0.3061	-0.0241	0.0225	-0.0267	42.0797	8.8032	-4.7798	0.3974	0.6159	0.3785	-0.5653
1.21	-9.5408	0.3152	-0.3691	-0.0267	0.0054	-0.0239	42.2075	8.9584	-4.8986	0.3974	0.6158	0.3785	-0.5652
1.22	-9.4881	0.2940	-0.2626	-0.0097	-0.0158	-0.0207	42.1661	8.8708	-4.7568	0.3974	0.6158	0.3785	-0.5653
1.23	-9.5212	0.3167	-0.2722	-0.0012	0.0199	-0.0192	42.0318	9.1115	-4.7736	0.3974	0.6159	0.3786	-0.5652
1.24	-9.5474	0.3130	-0.4051	-0.0047	0.0164	-0.0200	42.0311	9.0838	-4.8618	0.3973	0.6159	0.3786	-0.5652
1.25	-9.5912	0.3143	-0.3453	0.0081	0.0044	-0.0174	42.0978	9.0890	-4.5086	0.3973	0.6160	0.3786	-0.5652
1.26	-9.5925	0.3241	-0.3552	0.0140	0.0078	-0.0189	42.1639	9.1043	-4.7887	0.3972	0.6161	0.3785	-0.5651
1.27	-9.5417	0.3654	-0.3840	0.0216	-0.0104	-0.0134	41.9119	8.9735	-4.6394	0.3971	0.6161	0.3784	-0.5652
1.28	-9.5627	0.4167	-0.3238	0.0234	-0.0072	-0.0220	42.1374	8.9091	-4.5600	0.3970	0.6162	0.3783	-0.5653
1.29	-9.5226	0.4481	-0.3810	0.0222	-0.0094	-0.0264	42.7957	9.3756	-4.3408	0.3969	0.6162	0.3783	-0.5654
1.3	-9.4562	0.4657	-0.3525	0.0221	-0.0291	-0.0320	42.4923	9.1758	-4.4709	0.3968	0.6162	0.3781	-0.5655
1.31	-9.5281	0.4809	-0.2692	0.0082	-0.0191	-0.0321	41.8549	8.9656	-4.6693	0.3967	0.6162	0.3781	-0.5657
1.32	-9.5520	0.4922	-0.3282	0.0094	-0.0070	-0.0321	41.9140	8.9439	-4.5871	0.3967	0.6162	0.3781	-0.5657
1.33	-9.5127	0.4759	-0.3165	-0.0021	-0.0244	-0.0262	41.9356	9.2325	-4.7242	0.3966	0.6161	0.3781	-0.5658
1.34	-9.5076	0.4970	-0.2513	-0.0030	-0.0148	-0.0213	42.0945	9.2526	-4.9797	0.3966	0.6161	0.3780	-0.5658
1.35	-9.5484	0.5063	-0.3018	-0.0167	-0.0037	-0.0260	42.0397	9.2329	-4.8549	0.3966	0.6161	0.3781	-0.5658
1.36	-9.5186	0.4908	-0.3716	-0.0254	0.0010	-0.0280	42.0821	9.0183	-4.6829	0.3967	0.6160	0.3781	-0.5658
1.37	-9.4805	0.4813	-0.3221	-0.0288	-0.0076	-0.0312	42.0191	8.9413	-4.8410	0.3967	0.6160	0.3782	-0.5658
1.38	-9.5136	0.4462	-0.3332	-0.0300	0.0114	-0.0343	42.3354	9.1250	-5.0626	0.3967	0.6159	0.3784	-0.5658
1.39	-9.5586	0.3995	-0.3951	-0.0372	0.0122	-0.0358	42.2306	8.9816	-4.9561	0.3967	0.6159	0.3785	-0.5657
1.4	-9.5601	0.3575	-0.3767	-0.0365	-0.0158	-0.0326	41.8293	9.0379	-4.9111	0.3968	0.6158	0.3786	-0.5657
1.41	-9.5340	0.3577	-0.3337	-0.0292	-0.0202	-0.0320	42.0041	9.1667	-4.9385	0.3968	0.6157	0.3787	-0.5657
1.42	-9.5271	0.3393	-0.3427	-0.0309	-0.0139	-0.0270	42.0701	9.0411	-4.9187	0.3969	0.6156	0.3788	-0.5657
1.43	-9.5320	0.3576	-0.3594	-0.0289	-0.0214	-0.0313	42.0566	9.2511	-4.9371	0.3970	0.6155	0.3788	-0.5657
1.44	-9.5411	0.3556	-0.3288	-0.0273	-0.0234	-0.0338	42.0683	8.8653	-4.9073	0.3970	0.6154	0.3789	-0.5658
1.45	-9.5120	0.3328	-0.3334	-0.0307	-0.0238	-0.0369	41.9451	8.8063	-5.0430	0.3971	0.6153	0.3790	-0.5658
1.46	-9.5103	0.3702	-0.3166	-0.0138	-0.0239	-0.0331	41.8445	9.0716	-4.9784	0.3971	0.6152	0.3790	-0.5659
1.47	-9.5259	0.3649	-0.3393	-0.0254	-0.0180	-0.0324	41.9576	9.3103	-4.8668	0.3971	0.6151	0.3791	-0.5659
1.48	-9.5467	0.3924	-0.3270	-0.0203	-0.0188	-0.0346	42.0700	9.4236	-4.6425	0.3972	0.6150	0.3791	-0.5660
1.49	-9.4879	0.3810	-0.3368	-0.0066	-0.0234	-0.0409	41.9528	9.3232	-4.6602	0.3971	0.6149	0.3792	-0.5661
1.5	-9.4388	0.3630	-0.2835	-0.0160	-0.0277	-0.0415	41.9679	9.4780	-4.8450	0.3971	0.6148	0.3792	-0.5662
1.51	-9.5294	0.3596	-0.2630	-0.0180	-0.0061	-0.0465	41.6865	9.2478	-4.8355	0.3971	0.6147	0.3793	-0.5662
1.52	-9.5241	0.3440	-0.3720	-0.0191	-0.0152	-0.0447	41.7134	9.2090	-4.7547	0.3971	0.6146	0.3794	-0.5663
1.53	-9.4645	0.3132	-0.2811	-0.0094	-0.0326	-0.0506	41.8383	9.3072	-4.8589	0.3971	0.6144	0.3795	-0.5664
1.54	-9.4347	0.3135	-0.2494	-0.0058	-0.0143	-0.0392	41.9323	9.2761	-5.0973	0.3970	0.6144	0.3795	-0.5665
1.55	-9.5176	0.3097	-0.3107	-0.0025	-0.0123	-0.0330	41.7377	9.1538	-5.1233	0.3970	0.6143	0.3795	-0.5666
1.56	-9.5338	0.3088	-0.3345	-0.0059	-0.0167	-0.0355	41.9879	8.9998	-4.8908	0.3969	0.6143	0.3795	-0.5666
1.57	-9.4646	0.3156	-0.2869	-0.0042	-0.0275	-0.0363	42.1923	9.0473	-4.9015	0.3969	0.6142	0.3795	-0.5667
1.58	-9.4739	0.3073	-0.2539	-0.0034	-0.0109	-0.0455	42.1515	9.2763	-4.7853	0.3969	0.6141	0.3796	-0.5668
1.59	-9.4868	0.2915	-0.3186	-0.0037	0.0005	-0.0419	42.0351	9.2286	-4.9805	0.3968	0.6141	0.3796	-0.5669
1.6	-9.4856	0.2782	-0.2859	-0.0030	-0.0091	-0.0437	41.9892	9.1060	-5.0068	0.3967	0.6140	0.3797	-0.5669
1.61	-9.4322	0.2604	-0.2528	-0.0051	-0.0077	-0.0428	42.0588	9.2707	-4.8439	0.3966	0.6140	0.3798	-0.5670
1.62	-9.4293	0.2603	-0.2295	-0.0046	-0.0024	-0.0317	41.8326	9.4477	-4.8355	0.3966	0.6140	0.3798	-0.5670
1.63	-9.4277	0.2473	-0.2495	-0.0034	0.0141	-0.0336	41.9348	9.2901	-4.8544	0.3965	0.6140	0.3799	-0.5670
1.64	-9.4172	0.2444	-0.2331	-0.0057	0.0167	-0.0323	41.9550	9.3706	-4.9758	0.3964	0.6140	0.3799	-0.5670
1.65	-9.4143	0.2394	-0.2075	-0.0029	0.0329	-0.0259	41.7778	9.4952	-4.8562	0.3963	0.6141	0.3800	-0.5669
1.66	-9.4296	0.2316	-0.2447	-0.0047	0.0502	-0.0229	41.8958	9.5975	-4.7468	0.3962	0.6143	0.3801	-0.5667
1.67	-9.4331	0.2263	-0.2888	-0.0026	0.0532	-0.0155	41.7680	9.5999	-4.7538	0.3961	0.6145	0.3802	-0.5666
1.68	-9.4330	0.2220	-0.2907	-0.0019	0.0485	-0.0101	42.0194	9.3586	-4.7619	0.3960	0.6146	0.3803	-0.5664
1.69	-9.4367	0.2331	-0.2928	0.0110	0.0549	-0.0051	41.7857	9.3127	-4.6723	0.3959	0.6149	0.3803	-0.5662
1.7	-9.4635	0.2616	-0.3289	0.0189	0.0558	-0.0061	41.8042	9.4340	-4.5321	0.3957	0.6151	0.3803	-0.5660
1.71	-9.4794	0.2806	-0.3490	0.0209	0.0534	-0.0070	41.9194	9.4231	-4.6103	0.3956	0.6154	0.3803	-0.5659
1.72	-9.5139	0.3048	-0.3195	0.0214	0.0588	-0.0101	41.8500	9.3895	-4.7362	0.3954	0.6156	0.3803	-0.5657
1.73	-9.5229	0.3217	-0.3684	0.0222	0.0654	-0.0046	42.0025	9.5473	-4.7791	0.3952	0.6159	0.3803	-0.5655
1.74	-9.5652	0.3218	-0.3755	0.0219	0.0606	-0.0062	41.9436	9.3159	-4.7015	0.3950	0.6162	0.3804	-0.5654
1.75	-9.5939	0.3311	-0.3911	0.0219	0.0578	-0.0094	42.0384	9.2718	-4.6741	0.3948	0.6164	0.3804	-0.5652
1.76	-9.5942	0.3272	-0.4291	0.0223	0.0522	-0.0168	42.0782	9.3521	-4.8689	0.3946	0.6166	0.3804	-0.5651
1.77	-9.5904	0.3413	-0.4231	0.0258	0.0562	-0.0135	41.9519	9.3296	-4.7299	0.3944	0.6169	0.3804	-0.5649
1.78	-9.6050	0.3656	-0.4291	0.0328	0.0541	-0.0144	42.2867	9.3033	-4.5918	0.3942	0.6171	0.3804	-0.5648
1.79	-9.6183	0.3682	-0.4780	0.0276	0.0525	-0.0204	42.8194	9.4719	-4.3129	0.3940	0.6174	0.3803	-0.5648
1.8	-9.6120	0.3982	-0.4683	0.0287	0.0317	-0.0262	42.5466	9.4244	-4.4462	0.3937	0.6176	0.3803	-0.5647
1.81	-9.6091	0.4165	-0.4541	0.0247	0.0223	-0.0248	42.1433	9.0386	-4.5805	0.3936	0.6177	0.3803	-0.5647
1.82	-9.6079	0.4195	-0.4671	0.0207	0.0131	-0.0320	42.0956	9.1480	-4.4665	0.3934	0.6178	0.3803	-0.5647
1.83	-9.5981	0.4381	-0.4599	0.0178	0.0001	-0.0317	42.0656	9.2891	-4.5087	0.3933	0.6179	0.3803	-0.5648
1.84	-9.5700	0.4308	-0.4331	0.0019	-0.0046	-0.0319	42.2620	9.1437	-4.4469	0.3932	0.6178	0.3803	-0.5648
1.85	-9.5605	0.4276	-0.4232	0.0001	-0.0063	-0.0365	42.1542	9.3307	-4.2877	0.3931	0.6178	0.3803	-0.5649
1.86	-9.5509	0.4082	-0.4350	-0.0049	-0.0071	-0.0382	42.1117	9.3476	-4.4710	0.3931	0.6178	0.3803	-0.5649
1.87	-9.5098	0.3794	-0.4092	-0.0237	-0.0123	-0.0382	42.1323	9.3557	-4.1748	0.3931	0.6177	0.3804	-0.5650
1.88	-9.5176	0.3743	-0.3727	-0.0278	-0.0131	-0.0347	42.0061	9.3303	-4.4544	0.3931	0.6176	0.3805	-0.5650
1.89	-9.4437	0.3765	-0.4414	-0.0280	0.0036	-0.0345	42.0525	9.3909	-4.5103	0.3931	0.6176	0.3806	-0.5650
1.9	-9.4493	0.3822	-0.3807	-0.0319	-0.0031	-0.0413	42.0027	9.4593	-4.4325	0.3931	0.6175	0.3808	-0.5649
1.91	-9.5527	0.3590	-0.3863	-0.0316	0.0196	-0.0454	42.1605	9.4150	-4.1783	0.3931	0.6174	0.3810	-0.5649
1.92	-9.5703	0.3420	-0.4606	-0.0351	0.0116	-0.0403	42.0660	9.4644	-4.4974	0.3931	0.6174	0.3811	-0.5648
1.93	-9.5609	0.3037	-0.4105	-0.0349	-0.0154	-0.0407	42.0719	9.3663	-4.2336	0.3931	0.6173	0.3813	-0.5648
1.94	-9.5216	0.2830	-0.4039	-0.0286	-0.0042	-0.0381	42.1531	9.3438	-4.2610	0.3932	0.6172	0.3814	-0.5648
1.95	-9.6048	0.2761	-0.3892	-0.0306	0.0159	-0.0333	42.0968	9.3428	-4.5621	0.3932	0.6172	0.3815	-0.5648
1.96	-9.5933	0.2896	-0.4719	-0.0313	0.0056	-0.0303	42.0010	9.2167	-4.2441	0.3932	0.6171	0.3817	-0.5647
1.97	-9.5377	0.3101	-0.4306	-0.0284	-0.0130	-0.0354	42.1063	9.3331	-4.5182	0.3932	0.6171	0.3817	-0.5647
1.98	-9.5180	0.2988	-0.4036	-0.0301	-0.0083	-0.0329	42.1384	9.4384	-4.7174	0.3932	0.6170	0.3818	-0.5647
1.99	-9.5142	0.2860	-0.4645	-0.0292	-0.0051	-0.0390	42.0993	9.4365	-4.6435	0.3933	0.6169	0.3820	-0.5647
2	-9.5211	0.2739	-0.4582	-0.0291	-0.0085	-0.0415	41.9899	9.4242	-4.5174	0.3933	0.6168	0.3821	-0.5647
2.01	-9.5597	0.2766	-0.4322	-0.0311	-0.0135	-0.0402	42.1363	9.4562	-4.4687	0.3933	0.6167	0.3822	-0.5647
2.02	-9.5368	0.2668	-0.4525	-0.0290	-0.0137	-0.0373	42.1102	9.3060	-4.5166	0.3933	0.6166	0.3823	-0.5648
2.03	-9.5165	0.2662	-0.4140	-0.0291	-0.0282	-0.0419	41.8577	9.4143	-4.2863	0.3934	0.6164	0.3824	-0.5648
2.04	-9.5231	0.2769	-0.3937	-0.0290	-0.0152	-0.0461	41.8614	9.6253	-4.1913	0.3934	0.6163	0.3825	-0.5649
2.05	-9.4897	0.2712	-0.4385	-0.0292	-0.0174	-0.0444	41.8387	9.6177	-4.2310	0.3934	0.6162	0.3826	-0.5649
2.06	-9.4691	0.2750	-0.4003	-0.0290	-0.0248	-0.0434	42.1079	9.3679	-4.3246	0.3935	0.6160	0.3827	-0.5650
2.07	-9.4847	0.2695	-0.3880	-0.0289	-0.0098	-0.0375	42.0932	9.5468	-4.6389	0.3935	0.6159	0.3828	-0.5650
2.08	-9.4684	0.2643	-0.4323	-0.0292	-0.0043	-0.0386	41.9442	9.6455	-4.4140	0.3935	0.6159	0.3829	-0.5650
2.09	-9.5244	0.2620	-0.3942	-0.0287	-0.0056	-0.0453	41.8452	9.5788	-4.3077	0.3935	0.6158	0.3831	-0.5650
2.1	-9.4767	0.2500	-0.4432	-0.0302	-0.0069	-0.0413	41.9973	9.6488	-4.2819	0.3935	0.6157	0.3832	-0.5650
2.11	-9.5047	0.2394	-0.3772	-0.0300	-0.0140	-0.0352	41.8500	9.5259	-4.4320	0.3935	0.6156	0.3833	-0.5650
2.12	-9.5455	0.2421	-0.4040	-0.0324	-0.0021	-0.0367	41.9373	9.5240	-4.5569	0.3936	0.6155	0.3834	-0.5650
2.13	-9.5144	0.2271	-0.4241	-0.0374	-0.0050	-0.0323	42.0590	9.6117	-4.0949	0.3936	0.6154	0.3836	-0.5650
2.14	-9.5120	0.2152	-0.3873	-0.0271	-0.0151	-0.0361	42.0231	9.4830	-4.2128	0.3937	0.6153	0.3836	-0.5650
2.15	-9.5315	0.2103	-0.4151	-0.0317	-0.0027	-0.0314	42.0379	9.3126	-4.4190	0.3937	0.6152	0.3837	-0.5650
2.16	-9.5444	0.2134	-0.4324	-0.0291	-0.0164	-0.0329	42.0322	9.5612	-4.3814	0.3938	0.6151	0.3838	-0.5650
2.17	-9.5267	0.2315	-0.3980	-0.0292	-0.0170	-0.0329	42.0362	9.7122	-4.5644	0.3938	0.6150	0.3839	-0.5650
2.18	-9.5435	0.2274	-0.3895	-0.0290	-0.0069	-0.0335	42.0376	9.7536	-4.3606	0.3938	0.6150	0.3840	-0.5650
2.19	-9.5536	0.2173	-0.4298	-0.0295	-0.0053	-0.0390	42.0315	9.7319	-4.2855	0.3939	0.6149	0.3841	-0.5650
2.2	-9.5152	0.1992	-0.4344	-0.0279	-0.0171	-0.0387	42.0451	9.6684	-4.3354	0.3939	0.6148	0.3842	-0.5651
2.21	-9.5234	0.1915	-0.3946	-0.0278	-0.0160	-0.0392	42.0102	9.7375	-4.2852	0.3939	0.6147	0.3843	-0.5651
2.22	-9.5152	0.1890	-0.4335	-0.0299	-0.0069	-0.0410	41.8564	9.8716	-4.3911	0.3939	0.6146	0.3844	-0.5651
2.23	-9.5199	0.1792	-0.4229	-0.0274	-0.0129	-0.0365	41.8507	9.8028	-4.5106	0.3940	0.6145	0.3845	-0.5651
2.24	-9.5406	0.1825	-0.3977	-0.0215	-0.0090	-0.0359	41.9903	9.6247	-4.3777	0.3940	0.6144	0.3846	-0.5651
2.25	-9.5448	0.1802	-0.4280	-0.0126	-0.0074	-0.0317	42.0574	9.6695	-4.4186	0.3940	0.6143	0.3847	-0.5652
2.26	-9.5423	0.1833	-0.4182	-0.0231	-0.0061	-0.0338	42.0189	10.0138	-4.3927	0.3940	0.6143	0.3847	-0.5652
2.27	-9.5516	0.1905	-0.3981	-0.0228	-0.0125	-0.0331	42.0564	9.7246	-4.5324	0.3940	0.6142	0.3848	-0.5652
2.28	-9.5521	0.1961	-0.4148	-0.0138	-0.0107	-0.0325	42.2942	9.8615	-4.2958	0.3940	0.6142	0.3848	-0.5652
2.29	-9.5344	0.2009	-0.4133	-0.0172	-0.0130	-0.0247	42.5574	10.0694	-3.9445	0.3940	0.6141	0.3848	-0.5653
2.3	-9.5295	0.1988	-0.3991	-0.0175	-0.0231	-0.0206	42.5885	9.9394	-4.1770	0.3940	0.6141	0.3848	-0.5653
2.31	-9.4921	0.2023	-0.4125	-0.0134	-0.0250	-0.0266	42.2706	9.5645	-4.6129	0.3940	0.6140	0.3848	-0.5654
2.32	-9.5122	0.1885	-0.3823	-0.0110	-0.0239	-0.0287	42.0104	9.5225	-4.4111	0.3940	0.6139	0.3848	-0.5655
2.33	-9.5198	0.1821	-0.4077	-0.0101	-0.0169	-0.0284	41.9589	9.7016	-4.6362	0.3941	0.6139	0.3848	-0.5655
2.34	-9.5147	0.1573	-0.3977	-0.0082	-0.0151	-0.0299	41.8384	9.6962	-4.6843	0.3940	0.6138	0.3848	-0.5656
2.35	-9.5265	0.1373	-0.3706	-0.0028	-0.0102	-0.0325	41.7885	9.5692	-4.4711	0.3940	0.6138	0.3848	-0.5656
2.36	-9.5572	0.1230	-0.4024	-0.0040	-0.0019	-0.0296	41.8989	9.6739	-4.5251	0.3940	0.6138	0.3849	-0.5656
2.37	-9.5699	0.1243	-0.4315	0.0021	-0.0093	-0.0241	41.8423	9.7851	-4.6597	0.3939	0.6138	0.3848	-0.5657
2.38	-9.5555	0.1260	-0.4212	0.0086	-0.0112	-0.0234	41.9939	9.7966	-4.6810	0.3939	0.6138	0.3848	-0.5657
2.39	-9.5563	0.1152	-0.4107	0.0203	-0.0142	-0.0236	41.7415	9.5921	-4.5781	0.3938	0.6138	0.3847	-0.5658
2.4	-9.5282	0.1320	-0.4254	0.0286	-0.0270	-0.0289	41.6353	9.7302	-4.3420	0.3937	0.6138	0.3846	-0.5660
2.41	-9.5068	0.1441	-0.4083	0.0253	-0.0302	-0.0281	41.9181	10.0053	-4.4947	0.3936	0.6138	0.3845	-0.5661
2.42	-9.5344	0.1632	-0.3877	0.0315	-0.0227	-0.0330	41.8091	9.9336	-4.7383	0.3935	0.6138	0.3844	-0.5663
2.43	-9.5302	0.1732	-0.4117	0.0403	-0.0225	-0.0267	41.6148	9.9883	-4.5216	0.3934	0.6138	0.3842	-0.5665
2.44	-9.5181	0.1871	-0.3875	0.0387	-0.0292	-0.0303	41.8281	9.8722	-4.4467	0.3932	0.6138	0.3841	-0.5666
2.45	-9.5317	0.2060	-0.3738	0.0410	-0.0290	-0.0275	41.7118	9.7696	-4.6007	0.3931	0.6138	0.3839	-0.5668
2.46	-9.5549	0.2248	-0.3988	0.0407	-0.0209	-0.0318	41.9126	9.9457	-4.3804	0.3930	0.6139	0.3838	-0.5670
2.47	-9.5359	0.2282	-0.3885	0.0386	-0.0248	-0.0317	41.8938	9.9693	-4.4396	0.3928	0.6139	0.3836	-0.5672
2.48	-9.5329	0.2396	-0.3465	0.0352	-0.0292	-0.0260	41.8803	9.9635	-4.5946	0.3927	0.6139	0.3835	-0.5673
2.49	-9.5368	0.2272	-0.3672	0.0369	-0.0220	-0.0280	41.8048	9.7185	-4.6649	0.3926	0.6139	0.3833	-0.5675
2.5	-9.5283	0.2173	-0.3823	0.0276	-0.0288	-0.0293	41.8719	9.6895	-4.6576	0.3925	0.6139	0.3832	-0.5676
2.51	-9.5258	0.2165	-0.3617	0.0204	-0.0331	-0.0306	41.9876	9.7015	-4.6459	0.3924	0.6139	0.3831	-0.5678
2.52	-9.4939	0.2214	-0.3695	0.0229	-0.0316	-0.0302	41.9556	9.6957	-4.6733	0.3923	0.6138	0.3830	-0.5680
2.53	-9.5132	0.2232	-0.3472	0.0215	-0.0301	-0.0297	41.9065	9.5531	-4.6129	0.3923	0.6138	0.3829	-0.5681
2.54	-9.5184	0.2292	-0.3471	0.0229	-0.0290	-0.0262	41.9057	9.4952	-4.7803	0.3922	0.6138	0.3828	-0.5683
2.55	-9.5333	0.2290	-0.3368	0.0133	-0.0375	-0.0209	41.9850	9.6112	-4.9626	0.3922	0.6137	0.3827	-0.5684
2.56	-9.4463	0.2293	-0.3599	0.0030	-0.0335	-0.0176	41.8214	9.7224	-4.7966	0.3922	0.6137	0.3826	-0.5685
2.57	-9.4653	0.2182	-0.2881	-0.0006	-0.0356	-0.0219	41.7379	9.6618	-4.8810	0.3922	0.6136	0.3825	-0.5686
2.58	-9.5542	0.2051	-0.3189	-0.0029	-0.0107	-0.0188	41.8886	9.7891	-4.7413	0.3922	0.6136	0.3825	-0.5687
2.59	-9.5483	0.1955	-0.3876	-0.0066	-0.0245	-0.0166	41.7406	9.7672	-4.7625	0.3923	0.6136	0.3824	-0.5687
2.6	-9.5127	0.1670	-0.3258	-0.0037	-0.0363	-0.0265	41.7096	9.9522	-4.7293	0.3923	0.6135	0.3824	-0.5688
2.61	-9.5122	0.1461	-0.3111	-0.0039	-0.0246	-0.0170	41.8021	9.8969	-4.8274	0.3923	0.6134	0.3823	-0.5689
2.62	-9.5473	0.1412	-0.3463	-0.0049	-0.0191	-0.0105	41.7728	9.8646	-4.8539	0.3924	0.6134	0.3822	-0.5689
2.63	-9.5100	0.1767	-0.3580	-0.0019	-0.0240	-0.0080	41.7668	9.8586	-4.7353	0.3924	0.6134	0.3821	-0.5690
2.64	-9.4817	0.2092	-0.3169	0.0023	-0.0317	-0.0148	41.4971	9.7550	-4.9187	0.3924	0.6134	0.3820	-0.5690
2.65	-9.4823	0.2149	-0.3238	0.0014	-0.0108	-0.0202	41.8011	9.7843	-4.9601	0.3924	0.6134	0.3820	-0.5691
2.66	-9.4887	0.2129	-0.3617	0.0044	-0.0096	-0.0181	41.6702	9.8684	-4.8165	0.3924	0.6134	0.3820	-0.5691
2.67	-9.5044	0.2027	-0.3377	-0.0011	-0.0169	-0.0212	41.4635	9.9945	-4.7630	0.3924	0.6134	0.3819	-0.5692
2.68	-9.5265	0.2066	-0.3360	0.0113	-0.0074	-0.0310	41.7611	9.7031	-4.8974	0.3923	0.6134	0.3819	-0.5692
2.69	-9.5522	0.2178	-0.3515	0.0066	-0.0080	-0.0325	41.7848	9.7021	-4.7092	0.3922	0.6134	0.3819	-0.5693
2.7	-9.5276	0.2188	-0.3587	0.0025	-0.0126	-0.0332	41.7660	9.6680	-4.9972	0.3922	0.6134	0.3819	-0.5694
2.71	-9.4891	0.2327	-0.3412	0.0003	-0.0121	-0.0320	42.0949	9.7616	-5.0082	0.3921	0.6133	0.3819	-0.5694
2.72	-9.5148	0.2409	-0.3411	0.0016	-0.0103	-0.0296	41.8896	9.7262	-4.8316	0.3921	0.6133	0.3819	-0.5695
2.73	-9.5094	0.2425	-0.3918	0.0025	-0.0074	-0.0369	41.7761	9.6755	-4.8404	0.3920	0.6133	0.3819	-0.5695
2.74	-9.4963	0.2346	-0.3551	-0.0022	-0.0129	-0.0349	41.8573	9.8200	-4.9674	0.3919	0.6133	0.3819	-0.5696
2.75	-9.4898	0.2280	-0.3280	-0.0050	-0.0042	-0.0349	41.5806	9.9233	-4.8909	0.3919	0.6132	0.3819	-0.5696
2.76	-9.5094	0.2184	-0.3563	-0.0251	-0.0032	-0.0381	41.9636	9.6843	-4.7391	0.3919	0.6132	0.3820	-0.5696
2.77	-9.4808	0.1935	-0.3682	-0.0226	-0.0108	-0.0337	41.9604	9.7134	-4.7518	0.3919	0.6131	0.3821	-0.5697
2.78	-9.5240	0.1816	-0.2995	-0.0259	-0.0010	-0.0328	42.1025	10.0787	-4.6006	0.3919	0.6131	0.3822	-0.5697
2.79	-9.5677	0.1774	-0.3457	-0.0289	0.0121	-0.0327	42.6381	10.2452	-4.5410	0.3919	0.6131	0.3823	-0.5696
2.8	-9.5512	0.1516	-0.3672	-0.0298	-0.0013	-0.0324	42.2629	9.9771	-4.4625	0.3919	0.6130	0.3824	-0.5696
2.81	-9.5442	0.1348	-0.3267	-0.0273	-0.0014	-0.0316	41.7562	9.7738	-4.6858	0.3919	0.6130	0.3825	-0.5696
2.82	-9.5584	0.1161	-0.3537	-0.0287	0.0065	-0.0318	41.7670	9.6299	-4.7500	0.3919	0.6130	0.3826	-0.5695
2.83	-9.5707	0.1061	-0.3775	-0.0287	-0.0008	-0.0319	41.6829	9.9312	-4.6607	0.3919	0.6129	0.3827	-0.5695
2.84	-9.5420	0.1177	-0.3610	-0.0283	-0.0109	-0.0318	41.6945	10.0005	-4.9519	0.3919	0.6128	0.3828	-0.5695
2.85	-9.5142	0.1165	-0.3527	-0.0161	-0.0066	-0.0318	41.8706	9.8072	-4.8402	0.3919	0.6128	0.3828	-0.5695
2.86	-9.5062	0.1105	-0.3546	-0.0059	-0.0134	-0.0313	41.8040	9.7813	-4.7831	0.3919	0.6127	0.3829	-0.5695
2.87	-9.5181	0.1127	-0.3666	-0.0133	-0.0152	-0.0323	41.8601	9.8807	-4.8142	0.3919	0.6127	0.3829	-0.5696
2.88	-9.5193	0.1231	-0.3594	-0.0038	-0.0136	-0.0322	42.0968	9.7828	-4.7863	0.3919	0.6126	0.3829	-0.5696
2.89	-9.5214	0.1221	-0.3356	-0.0070	-0.0195	-0.0333	41.8844	9.9622	-4.8190	0.3919	0.6126	0.3829	-0.5697
2.9	-9.5141	0.1346	-0.3357	-0.0074	-0.0125	-0.0307	41.8600	9.9327	-4.7817	0.3918	0.6125	0.3829	-0.5698
2.91	-9.5249	0.1370	-0.3211	-0.0021	-0.0134	-0.0286	41.9905	9.6592	-4.8317	0.3918	0.6125	0.3829	-0.5698
2.92	-9.5251	0.1525	-0.3478	-0.0053	-0.0023	-0.0341	42.0547	9.6329	-4.7237	0.3918	0.6125	0.3830	-0.5698
2.93	-9.5234	0.1545	-0.3404	-0.0084	-0.0057	-0.0229	41.8886	9.9711	-4.7950	0.3917	0.6125	0.3830	-0.5698
2.94	-9.5269	0.1479	-0.3241	-0.0162	-0.0048	-0.0288	41.8581	9.9054	-5.0555	0.3917	0.6125	0.3830	-0.5698
2.95	-9.5168	0.1493	-0.3432	-0.0209	-0.0030	-0.0288	41.9176	9.7434	-4.6084	0.3917	0.6124	0.3831	-0.5698
2.96	-9.5200	0.1345	-0.3338	-0.0255	-0.0063	-0.0202	41.7854	9.8757	-4.8095	0.3918	0.6124	0.3831	-0.5698
2.97	-9.5179	0.1295	-0.3506	-0.0265	-0.0051	-0.0205	41.6517	10.0747	-4.7340	0.3918	0.6124	0.3832	-0.5698
2.98	-9.5271	0.1248	-0.3582	-0.0235	0.0029	-0.0215	41.8896	9.9785	-4.6973	0.3919	0.6124	0.3832	-0.5697
2.99	-9.5524	0.1227	-0.3435	-0.0147	-0.0025	-0.0134	41.9111	9.8173	-4.8430	0.3919	0.6124	0.3833	-0.5697
3	-9.5571	0.1233	-0.3546	-0.0133	-0.0001	-0.0138	41.9537	10.0157	-4.7423	0.3919	0.6124	0.3833	-0.5697
3.01	-9.5566	0.1182	-0.3436	-0.0146	-0.0059	-0.0247	41.7719	10.0725	-4.6753	0.3919	0.6124	0.3833	-0.5696
3.02	-9.5465	0.1179	-0.3263	-0.0017	-0.0091	-0.0140	41.7896	9.9692	-4.9578	0.3919	0.6124	0.3833	-0.5697
3.03	-9.5258	0.1170	-0.3308	-0.0045	-0.0079	-0.0268	41.8151	10.0539	-4.9646	0.3919	0.6124	0.3832	-0.5697
3.04	-9.5202	0.1209	-0.3254	-0.0005	-0.0126	-0.0258	41.9285	9.9162	-4.5955	0.3919	0.6123	0.3832	-0.5697
3.05	-9.5281	0.1259	-0.3332	-0.0003	-0.0110	-0.0130	41.7516	10.1021	-4.7161	0.3919	0.6124	0.3832	-0.5698
3.06	-9.5287	0.1341	-0.3405	-0.0027	-0.0118	-0.0136	41.9470	9.6818	-4.8290	0.3919	0.6124	0.3831	-0.5698
3.07	-9.5245	0.1402	-0.3289	0.0087	-0.0126	-0.0194	41.9264	9.7653	-5.1201	0.3919	0.6124	0.3831	-0.5698
3.08	-9.5025	0.1474	-0.3382	0.0080	-0.0090	-0.0225	41.8431	9.8024	-4.9035	0.3918	0.6124	0.3830	-0.5699
3.09	-9.5113	0.1641	-0.3255	0.0158	-0.0113	-0.0192	42.0017	9.7902	-4.8858	0.3917	0.6124	0.3829	-0.5699
3.1	-9.5248	0.1733	-0.3345	0.0124	-0.0057	-0.0236	41.7967	9.7881	-4.8821	0.3917	0.6125	0.3829	-0.5700
3.11	-9.5066	0.1711	-0.3275	0.0077	-0.0113	-0.0191	41.8272	9.8265	-4.7093	0.3916	0.6125	0.3828	-0.5700
3.12	-9.4936	0.1734	-0.2965	0.0028	-0.0147	-0.0153	41.9977	10.0201	-4.7007	0.3916	0.6125	0.3828	-0.5701
3.13	-9.5068	0.1820	-0.3028	-0.0024	-0.0044	-0.0178	41.9385	9.6996	-4.8364	0.3916	0.6125	0.3827	-0.5701
3.14	-9.4915	0.1880	-0.3282	-0.0042	0.0032	-0.0182	41.8561	9.6164	-4.8930	0.3916	0.6125	0.3827	-0.5701
3.15	-9.4888	0.2023	-0.2956	-0.0041	-0.0029	-0.0160	41.8890	9.8500	-4.6492	0.3916	0.6126	0.3827	-0.5701
3.16	-9.5329	0.2010	-0.3131	-0.0021	0.0141	-0.0199	41.8758	10.1040	-4.9584	0.3915	0.6126	0.3827	-0.5700
3.17	-9.5436	0.1889	-0.3520	-0.0061	0.0139	-0.0196	41.7589	9.9910	-4.9491	0.3915	0.6127	0.3828	-0.5700
3.18	-9.5331	0.1767	-0.3316	-0.0117	-0.0017	-0.0212	42.0462	10.0211	-4.7137	0.3915	0.6127	0.3828	-0.5699
3.19	-9.5327	0.1656	-0.3319	-0.0121	0.0017	-0.0232	42.0037	10.0731	-5.0257	0.3914	0.6127	0.3828	-0.5699
3.2	-9.5422	0.1560	-0.3505	-0.0090	0.0101	-0.0169	41.7269	9.9596	-4.8612	0.3914	0.6128	0.3828	-0.5699
3.21	-9.5519	0.1586	-0.3341	-0.0061	0.0031	-0.0148	41.8585	9.9341	-4.7756	0.3914	0.6128	0.3828	-0.5699
3.22	-9.5397	0.1645	-0.3319	-0.0187	-0.0056	-0.0219	41.8742	9.8592	-4.8650	0.3914	0.6128	0.3829	-0.5698
3.23	-9.5494	0.1537	-0.3434	-0.0119	-0.0001	-0.0168	41.9647	9.8920	-5.0136	0.3914	0.6128	0.3829	-0.5698
3.24	-9.5539	0.1637	-0.3348	-0.0094	-0.0130	-0.0139	42.0970	9.7628	-4.8292	0.3915	0.6128	0.3828	-0.5698
3.25	-9.5616	0.1647	-0.3251	-0.0101	-0.0124	-0.0222	41.9907	9.8312	-4.8013	0.3915	0.6127	0.3828	-0.5698
3.26	-9.4813	0.1724	-0.3555	-0.0030	-0.0158	-0.0199	41.9572	10.0109	-4.7406	0.3915	0.6127	0.3828	-0.5699
3.27	-9.5121	0.1804	-0.2869	-0.0085	-0.0190	-0.0231	41.9698	9.7283	-4.5715	0.3915	0.6127	0.3828	-0.5699
3.28	-9.5804	0.1730	-0.3420	-0.0083	0.0089	-0.0235	42.1317	9.7629	-4.6639	0.3915	0.6127	0.3828	-0.5699
3.29	-9.5597	0.1707	-0.3796	-0.0028	-0.0114	-0.0253	42.8243	10.2326	-4.7485	0.3914	0.6127	0.3828	-0.5700
3.3	-9.5387	0.1615	-0.2924	-0.0056	-0.0151	-0.0277	42.4713	10.1727	-4.7984	0.3914	0.6127	0.3827	-0.5700
3.31	-9.5600	0.1601	-0.3245	-0.0033	-0.0080	-0.0231	41.8423	9.8410	-4.7270	0.3913	0.6127	0.3827	-0.5700
3.32	-9.5820	0.1484	-0.3472	-0.0062	-0.0164	-0.0163	41.9152	9.6159	-4.7346	0.3914	0.6127	0.3827	-0.5701
3.33	-9.5436	0.1658	-0.3078	-0.0067	-0.0248	-0.0140	41.6580	9.9692	-4.6855	0.3914	0.6126	0.3826	-0.5701
3.34	-9.5026	0.1826	-0.3012	-0.0087	-0.0191	-0.0135	41.8485	9.8152	-4.6463	0.3915	0.6126	0.3826	-0.5702
3.35	-9.4905	0.1783	-0.3280	-0.0082	-0.0052	-0.0246	41.8643	9.7703	-4.8118	0.3914	0.6126	0.3826	-0.5702
3.36	-9.4963	0.1804	-0.3385	-0.0042	-0.0017	-0.0215	41.7579	10.1280	-4.8845	0.3914	0.6126	0.3826	-0.5702
3.37	-9.4888	0.1617	-0.3351	-0.0056	-0.0075	-0.0256	41.9126	10.0382	-4.7360	0.3914	0.6126	0.3826	-0.5702
3.38	-9.4909	0.1515	-0.3190	-0.0051	-0.0112	-0.0247	41.7606	9.7875	-4.8937	0.3914	0.6126	0.3826	-0.5702
3.39	-9.4917	0.1580	-0.3162	-0.0068	-0.0094	-0.0231	41.6802	10.0829	-4.7730	0.3914	0.6126	0.3826	-0.5703
3.4	-9.5065	0.1673	-0.3170	-0.0043	-0.0073	-0.0312	41.7886	10.1002	-4.8206	0.3913	0.6126	0.3826	-0.5703
3.41	-9.4965	0.1714	-0.3121	0.0004	-0.0107	-0.0324	41.8204	10.2275	-4.9668	0.3913	0.6125	0.3826	-0.5703
3.42	-9.4710	0.1786	-0.3051	0.0033	-0.0135	-0.0316	41.6438	10.1387	-4.8220	0.3912	0.6125	0.3826	-0.5704
3.43	-9.4698	0.1851	-0.2990	0.0015	-0.0021	-0.0330	41.6410	9.7528	-4.8622	0.3912	0.6125	0.3826	-0.5705
3.44	-9.4854	0.1783	-0.3098	0.0119	0.0126	-0.0338	41.8873	9.7493	-4.8280	0.3910	0.6126	0.3826	-0.5705
3.45	-9.5185	0.1870	-0.3195	0.0103	0.0178	-0.0345	42.0089	9.8834	-4.9635	0.3909	0.6127	0.3827	-0.5705
3.46	-9.5159	0.1794	-0.3348	0.0044	0.0134	-0.0373	41.9242	9.7864	-5.0747	0.3908	0.6127	0.3827	-0.5705
3.47	-9.4969	0.1846	-0.3326	-0.0008	0.0113	-0.0304	41.8714	9.7873	-4.9224	0.3907	0.6127	0.3828	-0.5704
3.48	-9.5423	0.1968	-0.3276	-0.0104	0.0219	-0.0322	41.8965	10.0523	-5.0592	0.3906	0.6128	0.3829	-0.5704
3.49	-9.5617	0.1901	-0.3808	-0.0207	0.0255	-0.0319	41.8856	10.1299	-4.8749	0.3905	0.6128	0.3830	-0.5703
3.5	-9.5638	0.1829	-0.3747	-0.0213	0.0120	-0.0310	41.7012	9.8838	-4.8939	0.3905	0.6128	0.3831	-0.5702
3.51	-9.5607	0.1836	-0.3532	-0.0257	0.0050	-0.0297	41.7824	9.8207	-4.9675	0.3905	0.6128	0.3832	-0.5702
3.52	-9.5675	0.1682	-0.3681	-0.0287	-0.0004	-0.0253	41.9084	9.9574	-4.8227	0.3905	0.6128	0.3833	-0.5701
3.53	-9.5644	0.1530	-0.3631	-0.0291	-0.0027	-0.0239	41.7388	10.0719	-5.0104	0.3906	0.6127	0.3834	-0.5701
3.54	-9.5547	0.1432	-0.3596	-0.0294	-0.0059	-0.0284	41.6593	10.1292	-4.8125	0.3906	0.6127	0.3835	-0.5701
3.55	-9.5331	0.1201	-0.3601	-0.0291	-0.0075	-0.0257	41.4960	10.0909	-4.6298	0.3907	0.6126	0.3835	-0.5701
3.56	-9.5170	0.1087	-0.3461	-0.0272	0.0022	-0.0339	41.8016	10.2459	-4.7208	0.3907	0.6126	0.3836	-0.5700
3.57	-9.5138	0.0935	-0.3548	-0.0265	-0.0015	-0.0316	41.7493	10.1305	-4.7508	0.3907	0.6125	0.3837	-0.5700
3.58	-9.5292	0.0854	-0.3760	-0.0216	0.0004	-0.0324	41.6881	10.1067	-4.8513	0.3907	0.6125	0.3838	-0.5700
3.59	-9.5338	0.0886	-0.3750	-0.0071	0.0053	-0.0365	41.8148	10.1047	-4.8393	0.3906	0.6125	0.3839	-0.5700
3.6	-9.5415	0.1043	-0.3617	-0.0033	0.0100	-0.0326	41.8034	10.1311	-4.9009	0.3905	0.6125	0.3839	-0.5700
3.61	-9.5546	0.1240	-0.3837	-0.0033	0.0082	-0.0285	41.7783	10.0419	-4.9203	0.3905	0.6126	0.3840	-0.5700
3.62	-9.5545	0.1422	-0.3920	-0.0035	-0.0015	-0.0290	41.9045	10.0192	-4.7197	0.3904	0.6126	0.3840	-0.5700
3.63	-9.5710	0.1591	-0.3763	-0.0082	0.0019	-0.0324	41.8619	10.0169	-4.8966	0.3904	0.6126	0.3841	-0.5700
3.64	-9.5707	0.1671	-0.3949	-0.0167	-0.0021	-0.0297	41.9589	9.8925	-4.9650	0.3903	0.6125	0.3841	-0.5700
3.65	-9.5806	0.1813	-0.3836	-0.0187	-0.0118	-0.0244	41.9155	10.0120	-4.8715	0.3904	0.6125	0.3842	-0.5700
3.66	-9.5783	0.1725	-0.3686	-0.0269	-0.0157	-0.0199	41.8744	10.1308	-4.7437	0.3904	0.6124	0.3842	-0.5700
3.67	-9.5616	0.1705	-0.3687	-0.0285	-0.0150	-0.0188	42.0222	9.9674	-4.7633	0.3905	0.6124	0.3842	-0.5700
3.68	-9.5416	0.1615	-0.3553	-0.0290	-0.0224	-0.0236	41.9138	9.9294	-4.7531	0.3906	0.6123	0.3843	-0.5700
3.69	-9.5223	0.1347	-0.3421	-0.0330	-0.0218	-0.0214	41.8519	9.9352	-4.7511	0.3907	0.6122	0.3843	-0.5700
3.7	-9.5334	0.1220	-0.3487	-0.0369	-0.0232	-0.0151	42.0447	9.9424	-4.8685	0.3908	0.6121	0.3843	-0.5700
3.71	-9.5197	0.1100	-0.3635	-0.0443	-0.0230	-0.0119	42.0000	10.0773	-4.8269	0.3910	0.6120	0.3843	-0.5700
3.72	-9.5050	0.1005	-0.3355	-0.0502	-0.0275	-0.0127	41.5510	10.1499	-4.6543	0.3912	0.6119	0.3844	-0.5700
3.73	-9.5103	0.1052	-0.3353	-0.0388	-0.0144	-0.0133	41.8516	9.9815	-4.7532	0.3913	0.6118	0.3845	-0.5699
3.74	-9.5043	0.1088	-0.3502	-0.0283	-0.0114	-0.0060	41.6284	10.0841	-5.1456	0.3914	0.6118	0.3845	-0.5699
3.75	-9.5009	0.1161	-0.3333	-0.0310	-0.0127	-0.0080	41.8515	10.0500	-4.8824	0.3915	0.6117	0.3845	-0.5698
3.76	-9.5102	0.1223	-0.3320	-0.0297	-0.0052	-0.0121	41.5425	10.0803	-4.8456	0.3916	0.6117	0.3845	-0.5698
3.77	-9.5152	0.1347	-0.3472	-0.0241	-0.0049	-0.0090	41.4330	10.2166	-4.8551	0.3917	0.6117	0.3845	-0.5697
3.78	-9.5245	0.1497	-0.3384	-0.0274	-0.0078	-0.0166	41.8583	10.0746	-4.7231	0.3918	0.6116	0.3846	-0.5697
3.79	-9.5183	0.1644	-0.3317	-0.0271	-0.0130	-0.0141	42.4265	10.3757	-4.5503	0.3918	0.6116	0.3846	-0.5697
3.8	-9.5301	0.1668	-0.3279	-0.0249	-0.0096	-0.0115	42.2498	10.2839	-4.5588	0.3919	0.6116	0.3846	-0.5696
3.81	-9.5175	0.1672	-0.3503	-0.0238	-0.0154	-0.0173	41.9105	9.9257	-4.8889	0.3920	0.6115	0.3846	-0.5696
3.82	-9.5145	0.1634	-0.3408	-0.0213	-0.0146	-0.0155	41.9224	9.9211	-4.7373	0.3920	0.6115	0.3846	-0.5696
3.83	-9.5276	0.1570	-0.3371	-0.0257	-0.0107	-0.0209	41.8683	9.9736	-4.6773	0.3921	0.6114	0.3846	-0.5696
3.84	-9.5548	0.1594	-0.3499	-0.0289	-0.0069	-0.0251	42.1902	9.9750	-4.7201	0.3921	0.6114	0.3847	-0.5696
3.85	-9.5762	0.1598	-0.3544	-0.0307	-0.0079	-0.0220	42.0376	9.9646	-4.6760	0.3922	0.6114	0.3847	-0.5696
3.86	-9.5903	0.1569	-0.3516	-0.0284	-0.0127	-0.0199	41.6394	9.9813	-4.7618	0.3922	0.6113	0.3848	-0.5696
3.87	-9.6030	0.1618	-0.3666	-0.0319	-0.0096	-0.0188	41.7826	9.9399	-4.9005	0.3923	0.6112	0.3848	-0.5696
3.88	-9.5936	0.1718	-0.3712	-0.0376	-0.0181	-0.0179	41.7263	10.1205	-4.7756	0.3924	0.6112	0.3849	-0.5695
3.89	-9.5884	0.1806	-0.3479	-0.0327	-0.0210	-0.0095	41.6983	10.0994	-4.8107	0.3926	0.6111	0.3849	-0.5695
3.9	-9.5969	0.1871	-0.3564	-0.0416	-0.0248	-0.0081	42.0769	10.0489	-4.7832	0.3927	0.6110	0.3849	-0.5695
3.91	-9.5863	0.1842	-0.3611	-0.0465	-0.0273	-0.0073	41.8995	10.0501	-4.8108	0.3929	0.6109	0.3849	-0.5695
3.92	-9.5684	0.1882	-0.3336	-0.0549	-0.0365	-0.0083	41.9885	9.9681	-4.7703	0.3931	0.6107	0.3850	-0.5694
3.93	-9.5354	0.1941	-0.3039	-0.0466	-0.0374	-0.0056	41.8156	9.9152	-4.8357	0.3934	0.6106	0.3850	-0.5694
3.94	-9.5127	0.1853	-0.2969	-0.0535	-0.0416	-0.0072	41.6716	9.8628	-4.6580	0.3936	0.6104	0.3850	-0.5694
3.95	-9.4997	0.1491	-0.2965	-0.0302	-0.0486	-0.0149	41.5368	9.9827	-4.8744	0.3938	0.6103	0.3850	-0.5695
3.96	-9.4911	0.1183	-0.2682	-0.0329	-0.0407	-0.0187	41.9835	9.8306	-4.9568	0.3939	0.6101	0.3849	-0.5696
3.97	-9.4369	0.0950	-0.2738	-0.0230	-0.0352	-0.0229	41.9252	9.9640	-4.8634	0.3940	0.6100	0.3849	-0.5696
3.98	-9.4178	0.0946	-0.2641	0.0009	-0.0276	-0.0299	41.7172	9.9809	-4.8845	0.3940	0.6099	0.3849	-0.5697
3.99	-9.4932	0.1140	-0.2609	0.0158	-0.0194	-0.0323	41.8972	9.9403	-4.8011	0.3939	0.6099	0.3848	-0.5699
4	-9.5498	0.1291	-0.3168	0.0230	-0.0089	-0.0371	42.0088	9.6722	-5.0915	0.3938	0.6099	0.3848	-0.5700
4.01	-9.5481	0.1657	-0.3135	0.0404	-0.0161	-0.0492	41.9721	9.7904	-5.0504	0.3936	0.6099	0.3847	-0.5701
4.02	-9.5313	0.2026	-0.2772	0.0518	-0.0199	-0.0615	41.8087	9.8903	-5.0798	0.3933	0.6099	0.3847	-0.5704
4.03	-9.5575	0.2256	-0.2774	0.0476	-0.0163	-0.0707	42.0240	9.7419	-4.9075	0.3930	0.6099	0.3846	-0.5706
4.04	-9.5842	0.2546	-0.3004	0.0502	-0.0173	-0.0680	41.7672	9.9034	-4.8600	0.3927	0.6099	0.3846	-0.5709
4.05	-9.5574	0.2967	-0.2846	0.0422	-0.0299	-0.0780	41.7721	10.1842	-4.9979	0.3925	0.6098	0.3846	-0.5711
4.06	-9.5155	0.3133	-0.2565	0.0224	-0.0301	-0.0811	41.7266	10.1014	-4.9718	0.3922	0.6097	0.3846	-0.5714
4.07	-9.4980	0.3256	-0.2653	0.0193	-0.0219	-0.0778	41.5225	10.0497	-4.9982	0.3920	0.6096	0.3847	-0.5716
4.08	-9.5111	0.3160	-0.2753	-0.0034	-0.0126	-0.0806	41.9687	10.0289	-4.9534	0.3918	0.6095	0.3848	-0.5718
4.09	-9.5214	0.2769	-0.2768	-0.0271	-0.0164	-0.0828	41.9212	10.2813	-5.0340	0.3917	0.6093	0.3850	-0.5719
4.1	-9.5430	0.2314	-0.2761	-0.0448	-0.0071	-0.0865	41.8448	10.1634	-4.7448	0.3916	0.6091	0.3853	-0.5720
4.11	-9.5738	0.1857	-0.2654	-0.0553	-0.0191	-0.0849	41.8131	10.2035	-4.8058	0.3916	0.6088	0.3856	-0.5721
4.12	-9.5686	0.1537	-0.2708	-0.0644	-0.0292	-0.0837	41.6620	10.2317	-5.0266	0.3916	0.6085	0.3860	-0.5722
4.13	-9.5500	0.1069	-0.2551	-0.0860	-0.0285	-0.0767	41.4611	10.2531	-4.7572	0.3917	0.6082	0.3863	-0.5722
4.14	-9.5201	0.0442	-0.2363	-0.0817	-0.0324	-0.0721	41.6988	10.4744	-4.9811	0.3919	0.6079	0.3866	-0.5722
4.15	-9.5023	-0.0109	-0.2157	-0.0946	-0.0315	-0.0665	41.8572	10.3089	-5.0562	0.3920	0.6075	0.3870	-0.5722
4.16	-9.5033	-0.0648	-0.2079	-0.1015	-0.0361	-0.0570	41.8681	10.3112	-5.1034	0.3923	0.6072	0.3873	-0.5722
4.17	-9.4799	-0.1035	-0.2170	-0.0950	-0.0327	-0.0498	41.5655	10.4673	-4.9229	0.3925	0.6069	0.3876	-0.5722
4.18	-9.4468	-0.1364	-0.1897	-0.0862	-0.0318	-0.0417	41.4865	10.4640	-4.9160	0.3927	0.6066	0.3878	-0.5722
4.19	-9.4844	-0.1620	-0.1598	-0.0817	-0.0211	-0.0348	41.8652	10.2952	-5.2009	0.3929	0.6064	0.3880	-0.5721
4.2	-9.5052	-0.1793	-0.2085	-0.0819	-0.0149	-0.0330	41.8662	10.3340	-5.0438	0.3931	0.6062	0.3883	-0.5720
4.21	-9.4743	-0.1955	-0.1972	-0.0655	-0.0299	-0.0315	41.6645	10.1426	-4.8141	0.3933	0.6060	0.3884	-0.5720
4.22	-9.4641	-0.2007	-0.1471	-0.0492	-0.0284	-0.0258	41.7524	10.2223	-5.0231	0.3935	0.6058	0.3885	-0.5720
4.23	-9.4715	-0.2045	-0.1821	-0.0319	-0.0128	-0.0233	41.7680	10.6645	-4.8655	0.3936	0.6057	0.3886	-0.5720
4.24	-9.4599	-0.1973	-0.1813	-0.0141	-0.0150	-0.0114	41.5473	10.3736	-4.8368	0.3936	0.6057	0.3886	-0.5720
4.25	-9.4482	-0.1692	-0.1517	0.0011	-0.0124	-0.0127	41.7787	10.3573	-5.0867	0.3936	0.6057	0.3885	-0.5720
4.26	-9.4479	-0.1408	-0.1647	0.0152	-0.0029	-0.0202	41.7543	10.4194	-5.0939	0.3936	0.6058	0.3885	-0.5721
4.27	-9.4634	-0.1156	-0.1847	0.0250	0.0046	-0.0105	41.7720	10.4098	-5.0596	0.3935	0.6059	0.3884	-0.5721
4.28	-9.4920	-0.0785	-0.1941	0.0412	0.0147	-0.0199	41.7693	10.6545	-4.5469	0.3933	0.6060	0.3883	-0.5721
4.29	-9.5139	-0.0585	-0.2227	0.0450	0.0283	-0.0226	42.2271	10.5158	-4.5287	0.3930	0.6062	0.3882	-0.5721
4.3	-9.5417	-0.0314	-0.2264	0.0493	0.0201	-0.0182	42.0255	10.6759	-4.7378	0.3928	0.6064	0.3880	-0.5722
4.31	-9.5869	0.0129	-0.2198	0.0480	0.0215	-0.0195	41.5982	10.5819	-4.8928	0.3926	0.6066	0.3879	-0.5722
4.32	-9.6116	0.0373	-0.2535	0.0504	0.0196	-0.0147	41.4787	10.4406	-4.9749	0.3924	0.6068	0.3878	-0.5722
4.33	-9.6574	0.0546	-0.2736	0.0467	0.0162	-0.0125	41.5494	10.6337	-5.0794	0.3922	0.6070	0.3877	-0.5723
4.34	-9.6719	0.0406	-0.3334	0.0447	0.0156	-0.0180	41.4483	10.5845	-4.9305	0.3920	0.6072	0.3875	-0.5723
4.35	-9.7078	0.0343	-0.3481	0.0422	0.0043	-0.0164	41.6345	10.6616	-5.0967	0.3918	0.6073	0.3874	-0.5723
4.36	-9.7604	0.0266	-0.3783	0.0388	0.0050	-0.0116	41.8057	10.4531	-4.9644	0.3917	0.6074	0.3873	-0.5724
4.37	-9.7756	0.0300	-0.4677	0.0362	-0.0121	-0.0132	41.9299	10.1230	-4.9194	0.3915	0.6075	0.3871	-0.5725
4.38	-9.8117	0.0346	-0.4434	0.0261	-0.0387	-0.0085	41.6548	10.3140	-4.9774	0.3915	0.6075	0.3869	-0.5726
4.39	-9.7863	0.0377	-0.4455	0.0314	-0.0533	-0.0070	41.8427	10.2067	-5.2050	0.3915	0.6075	0.3867	-0.5728
4.4	-9.7614	0.0553	-0.4318	0.0247	-0.0723	-0.0073	41.6478	10.3798	-4.9939	0.3916	0.6074	0.3864	-0.5731
4.41	-9.7133	0.0678	-0.3956	0.0235	-0.0984	-0.0081	41.7409	10.2167	-5.2681	0.3917	0.6072	0.3861	-0.5734
4.42	-9.6319	0.0597	-0.3401	0.0242	-0.1190	-0.0082	41.8107	10.2141	-5.0295	0.3918	0.6070	0.3858	-0.5737
4.43	-9.5737	0.0635	-0.2854	0.0231	-0.1162	-0.0082	41.7063	10.4030	-5.1382	0.3920	0.6068	0.3854	-0.5741
4.44	-9.5475	0.0786	-0.2623	0.0186	-0.1135	-0.0082	41.6697	9.9247	-5.3408	0.3922	0.6065	0.3851	-0.5745
4.45	-9.4848	0.0987	-0.2418	0.0201	-0.1241	-0.0105	41.5063	10.2531	-5.2931	0.3923	0.6063	0.3848	-0.5749
4.46	-9.4434	0.0932	-0.1671	0.0101	-0.1275	-0.0084	41.5962	10.3680	-5.3322	0.3925	0.6060	0.3844	-0.5753
4.47	-9.4267	0.0877	-0.1475	0.0011	-0.1159	-0.0089	41.7190	10.6052	-5.3056	0.3927	0.6057	0.3841	-0.5756
4.48	-9.4074	0.0784	-0.1507	0.0004	-0.1101	-0.0080	41.7507	10.5238	-5.3345	0.3929	0.6054	0.3839	-0.5759
4.49	-9.3968	0.0687	-0.1019	-0.0037	-0.1025	-0.0079	41.5816	10.5267	-5.4162	0.3932	0.6052	0.3836	-0.5762
4.5	-9.3939	0.0704	-0.0979	-0.0053	-0.0875	-0.0072	41.5529	10.4776	-5.4442	0.3933	0.6050	0.3834	-0.5764
4.51	-9.3987	0.0663	-0.0924	-0.0070	-0.0718	-0.0076	41.5291	10.3974	-5.6167	0.3935	0.6048	0.3832	-0.5766
4.52	-9.4039	0.0565	-0.0760	-0.0065	-0.0719	-0.0080	41.6871	10.4683	-5.4805	0.3936	0.6046	0.3831	-0.5768
4.53	-9.4111	0.0493	-0.0609	-0.0085	-0.0661	-0.0077	41.5550	10.3753	-5.5144	0.3938	0.6045	0.3829	-0.5770
4.54	-9.4206	0.0440	-0.0602	-0.0005	-0.0524	-0.0073	41.4139	10.3380	-5.4749	0.3939	0.6044	0.3828	-0.5771
4.55	-9.4239	0.0459	-0.0640	-0.0066	-0.0503	-0.0095	41.5549	10.3447	-5.6750	0.3940	0.6043	0.3826	-0.5772
4.56	-9.4415	0.0539	-0.0513	-0.0022	-0.0426	-0.0075	41.7956	10.1306	-5.8303	0.3941	0.6042	0.3825	-0.5773
4.57	-9.4376	0.0615	-0.0626	-0.0062	-0.0356	-0.0076	41.7799	10.1818	-5.4757	0.3942	0.6041	0.3824	-0.5774
4.58	-9.4478	0.0653	-0.0428	-0.0019	-0.0338	-0.0084	41.6971	10.1696	-5.3513	0.3943	0.6041	0.3823	-0.5775
4.59	-9.4414	0.0678	-0.0408	-0.0022	-0.0288	-0.0115	41.7518	10.1604	-5.7134	0.3943	0.6040	0.3822	-0.5775
4.6	-9.4324	0.0703	-0.0415	-0.0031	-0.0218	-0.0189	41.6994	10.0632	-5.6985	0.3943	0.6040	0.3822	-0.5776
4.61	-9.4355	0.0686	-0.0344	-0.0032	-0.0174	-0.0208	41.7679	10.2854	-5.8013	0.3943	0.6040	0.3821	-0.5777
4.62	-9.4338	0.0731	-0.0421	-0.0040	-0.0167	-0.0248	41.6097	10.1522	-5.7617	0.3943	0.6040	0.3821	-0.5777
4.63	-9.4294	0.0693	-0.0300	-0.0027	-0.0073	-0.0258	41.5750	10.1819	-5.7702	0.3943	0.6039	0.3821	-0.5777
4.64	-9.4418	0.0680	-0.0080	-0.0033	-0.0087	-0.0210	41.7858	10.2898	-5.6324	0.3943	0.6039	0.3821	-0.5778
4.65	-9.4513	0.0743	-0.0366	-0.0032	0.0089	-0.0205	41.6519	10.2193	-5.7673	0.3942	0.6040	0.3821	-0.5777
4.66	-9.4492	0.0751	-0.0574	-0.0015	0.0127	-0.0194	41.5264	10.3761	-5.8788	0.3942	0.6040	0.3821	-0.5777
4.67	-9.4591	0.0768	-0.0476	-0.0030	0.0173	-0.0208	41.3449	10.4144	-5.7424	0.3941	0.6041	0.3821	-0.5776
4.68	-9.5060	0.0657	-0.0518	-0.0037	0.0262	-0.0226	41.7568	10.1040	-5.8150	0.3940	0.6042	0.3822	-0.5776
4.69	-9.5555	0.0587	-0.0644	-0.0006	0.0401	-0.0196	41.6353	10.3638	-5.5995	0.3939	0.6043	0.3823	-0.5774
4.7	-9.5734	0.0633	-0.0834	-0.0036	0.0377	-0.0271	41.5411	10.3227	-5.4697	0.3938	0.6045	0.3824	-0.5773
4.71	-9.5818	0.0702	-0.0815	-0.0050	0.0220	-0.0193	41.6922	10.3950	-5.5355	0.3937	0.6046	0.3824	-0.5773
4.72	-9.5824	0.0831	-0.0958	-0.0036	0.0226	-0.0173	41.5473	10.4392	-5.6871	0.3937	0.6047	0.3824	-0.5772
4.73	-9.5706	0.1046	-0.1065	-0.0058	0.0189	-0.0148	41.5518	10.4413	-5.6854	0.3936	0.6047	0.3825	-0.5771
4.74	-9.5489	0.1242	-0.0990	-0.0020	0.0145	-0.0053	41.6670	10.2811	-5.6902	0.3936	0.6048	0.3825	-0.5770
4.75	-9.5335	0.1445	-0.1060	-0.0135	0.0161	-0.0079	41.7842	10.2811	-5.8475	0.3936	0.6049	0.3825	-0.5769
4.76	-9.5432	0.1434	-0.1204	-0.0185	0.0248	-0.0100	41.5917	10.0969	-5.5237	0.3936	0.6050	0.3825	-0.5768
4.77	-9.5525	0.1232	-0.1270	-0.0243	0.0174	-0.0171	41.7944	9.9772	-5.2424	0.3936	0.6050	0.3826	-0.5767
4.78	-9.5547	0.0975	-0.1289	-0.0282	0.0131	-0.0192	42.0401	10.2755	-5.5254	0.3936	0.6051	0.3827	-0.5766
4.79	-9.5688	0.0978	-0.1221	-0.0243	0.0122	-0.0146	42.2526	10.4822	-5.4027	0.3936	0.6051	0.3827	-0.5766
4.8	-9.5715	0.0735	-0.1382	-0.0296	0.0140	-0.0163	42.0884	10.4289	-5.6623	0.3936	0.6052	0.3828	-0.5765
4.81	-9.5801	0.1066	-0.1396	-0.0289	0.0039	-0.0168	41.6858	10.3248	-5.4508	0.3937	0.6052	0.3828	-0.5764
4.82	-9.5847	0.0783	-0.1242	-0.0276	0.0044	-0.0152	41.6206	10.0876	-5.5046	0.3937	0.6052	0.3829	-0.5763
4.83	-9.5753	0.0856	-0.1328	-0.0235	-0.0031	-0.0130	41.6327	10.0402	-5.6756	0.3938	0.6051	0.3829	-0.5763
4.84	-9.5898	0.0884	-0.1212	-0.0237	-0.0039	-0.0142	41.6974	10.1079	-5.5126	0.3938	0.6051	0.3830	-0.5762
4.85	-9.5612	0.0827	-0.1527	-0.0256	-0.0071	-0.0138	41.6386	10.2813	-5.6435	0.3939	0.6051	0.3830	-0.5762
4.86	-9.5435	0.0985	-0.1207	-0.0186	-0.0140	-0.0226	41.7373	10.2432	-5.2270	0.3940	0.6051	0.3830	-0.5762
4.87	-9.5864	0.0902	-0.1124	-0.0145	-0.0026	-0.0214	41.7902	10.2464	-5.3608	0.3940	0.6050	0.3831	-0.5762
4.88	-9.5814	0.1348	-0.1547	-0.0025	-0.0001	-0.0227	41.5073	10.3741	-5.2503	0.3939	0.6051	0.3831	-0.5762
4.89	-9.5593	0.1092	-0.1263	-0.0082	-0.0176	-0.0234	41.5198	10.2755	-5.4174	0.3939	0.6050	0.3830	-0.5762
4.9	-9.5523	0.1287	-0.0974	-0.0048	-0.0140	-0.0293	41.6713	10.2644	-5.2242	0.3939	0.6050	0.3830	-0.5763
4.91	-9.5546	0.1188	-0.1282	-0.0098	-0.0111	-0.0324	41.6780	10.0510	-5.4717	0.3939	0.6049	0.3831	-0.5763
4.92	-9.5230	0.1280	-0.1105	-0.0039	-0.0358	-0.0246	41.6444	10.2270	-5.5366	0.3939	0.6049	0.3830	-0.5764
4.93	-9.5037	0.1464	-0.0800	-0.0017	-0.0346	-0.0221	41.5396	10.2225	-5.1649	0.3939	0.6048	0.3830	-0.5765
4.94	-9.4874	0.1599	-0.0852	-0.0111	-0.0210	-0.0282	41.6799	10.0528	-5.5639	0.3940	0.6047	0.3830	-0.5766
4.95	-9.4637	0.1654	-0.0948	-0.0174	-0.0229	-0.0313	41.6620	10.0863	-5.4956	0.3940	0.6046	0.3830	-0.5767
4.96	-9.4593	0.1456	-0.0732	-0.0205	-0.0151	-0.0330	41.6770	10.0556	-5.4642	0.3940	0.6045	0.3830	-0.5767
4.97	-9.4702	0.1342	-0.0684	-0.0261	-0.0089	-0.0312	41.6474	9.8758	-5.5562	0.3940	0.6045	0.3831	-0.5767
4.98	-9.4814	0.1163	-0.0993	-0.0299	0.0025	-0.0353	41.7686	9.9933	-5.5227	0.3940	0.6044	0.3832	-0.5767
4.99	-9.4699	0.1073	-0.0957	-0.0301	-0.0026	-0.0353	41.8669	10.3350	-5.4063	0.3940	0.6044	0.3834	-0.5767
5	-9.4696	0.0908	-0.0800	-0.0276	0.0126	-0.0317	41.6530	10.3442	-5.5294	0.3940	0.6043	0.3835	-0.5766
5.01	-9.5001	0.0783	-0.0924	-0.0306	0.0138	-0.0312	41.7536	10.2846	-5.4645	0.3940	0.6043	0.3836	-0.5765
5.02	-9.5054	0.0678	-0.1106	-0.0361	0.0127	-0.0355	41.7688	10.0167	-5.4241	0.3940	0.6043	0.3838	-0.5764
5.03	-9.4980	0.0540	-0.1094	-0.0390	0.0202	-0.0349	41.4572	10.2843	-5.5983	0.3940	0.6043	0.3840	-0.5763
5.04	-9.4869	0.0337	-0.1133	-0.0368	0.0264	-0.0315	41.5943	10.3494	-5.4418	0.3940	0.6043	0.3841	-0.5762
5.05	-9.4952	0.0198	-0.1232	-0.0407	0.0321	-0.0326	41.4738	10.3431	-5.4601	0.3940	0.6043	0.3843	-0.5761
5.06	-9.5063	0.0087	-0.1243	-0.0330	0.0343	-0.0315	41.5292	10.3124	-5.4211	0.3940	0.6043	0.3845	-0.5759
5.07	-9.5269	-0.0119	-0.1389	-0.0314	0.0319	-0.0325	41.5579	10.2359	-5.3290	0.3939	0.6044	0.3847	-0.5758
5.08	-9.5359	-0.0130	-0.1701	-0.0306	0.0339	-0.0315	41.4443	10.2402	-5.3660	0.3939	0.6044	0.3849	-0.5757
5.09	-9.5316	-0.0154	-0.1806	-0.0301	0.0313	-0.0321	41.6242	10.3632	-5.3438	0.3938	0.6045	0.3851	-0.5755
5.1	-9.5467	-0.0102	-0.1828	-0.0262	0.0339	-0.0231	41.5366	10.4246	-5.5045	0.3938	0.6045	0.3852	-0.5754
5.11	-9.5715	-0.0034	-0.2175	-0.0182	0.0374	-0.0271	41.4634	10.2585	-5.1109	0.3937	0.6046	0.3854	-0.5752
5.12	-9.5906	0.0050	-0.2460	-0.0128	0.0325	-0.0255	41.5759	10.1687	-5.0510	0.3937	0.6047	0.3855	-0.5751
5.13	-9.6175	0.0116	-0.2300	-0.0053	0.0354	-0.0234	41.8089	10.1594	-5.1949	0.3936	0.6048	0.3855	-0.5750
5.14	-9.6508	0.0198	-0.2519	-0.0053	0.0239	-0.0260	41.7013	10.3321	-5.3250	0.3935	0.6049	0.3856	-0.5750
5.15	-9.6547	0.0243	-0.2914	-0.0037	0.0145	-0.0216	41.6454	10.3331	-5.3652	0.3934	0.6050	0.3857	-0.5749
5.16	-9.6262	0.0155	-0.2738	-0.0029	-0.0029	-0.0297	41.7811	10.3598	-5.3538	0.3934	0.6050	0.3857	-0.5749
5.17	-9.6305	0.0163	-0.2521	-0.0038	-0.0072	-0.0252	41.7388	10.1717	-5.3371	0.3933	0.6050	0.3857	-0.5749
5.18	-9.6634	0.0274	-0.2765	0.0012	-0.0090	-0.0298	41.6116	10.2373	-5.4066	0.3933	0.6049	0.3857	-0.5750
5.19	-9.6539	0.0398	-0.2812	0.0078	-0.0111	-0.0273	41.8112	10.5531	-5.4851	0.3932	0.6049	0.3856	-0.5751
5.2	-9.6217	0.0397	-0.2413	0.0018	-0.0349	-0.0310	41.5904	10.3937	-5.3108	0.3932	0.6049	0.3856	-0.5752
5.21	-9.5822	0.0348	-0.2270	-0.0019	-0.0409	-0.0286	41.5134	10.3144	-5.0967	0.3932	0.6048	0.3855	-0.5753
5.22	-9.5704	0.0351	-0.2051	0.0082	-0.0420	-0.0252	41.6030	10.6332	-5.3417	0.3932	0.6047	0.3854	-0.5755
5.23	-9.5632	0.0465	-0.2104	0.0018	-0.0351	-0.0303	41.5822	10.4810	-5.3725	0.3932	0.6046	0.3854	-0.5756
5.24	-9.5513	0.0537	-0.2143	-0.0046	-0.0412	-0.0225	41.7928	10.3435	-5.4637	0.3933	0.6045	0.3853	-0.5757
5.25	-9.5293	0.0444	-0.1736	-0.0022	-0.0458	-0.0229	41.7707	10.4356	-5.2215	0.3933	0.6044	0.3852	-0.5759
5.26	-9.5178	0.0419	-0.1615	-0.0041	-0.0473	-0.0166	41.6748	10.5209	-5.1215	0.3934	0.6043	0.3851	-0.5760
5.27	-9.5083	0.0355	-0.1560	-0.0020	-0.0455	-0.0195	41.5867	10.3925	-5.4276	0.3934	0.6042	0.3850	-0.5761
5.28	-9.5099	0.0367	-0.1331	-0.0018	-0.0356	-0.0204	41.9617	10.2266	-5.4036	0.3935	0.6041	0.3849	-0.5763
5.29	-9.5227	0.0410	-0.1340	0.0001	-0.0324	-0.0141	42.1804	10.4469	-5.0833	0.3935	0.6041	0.3848	-0.5764
5.3	-9.5095	0.0408	-0.1536	-0.0012	-0.0403	-0.0154	42.1583	10.3130	-5.2289	0.3935	0.6040	0.3847	-0.5765
5.31	-9.4904	0.0484	-0.1201	-0.0034	-0.0432	-0.0146	41.7850	10.1723	-5.3445	0.3936	0.6039	0.3846	-0.5766
5.32	-9.5317	0.0415	-0.1024	-0.0020	-0.0364	-0.0223	41.6288	10.2430	-5.7428	0.3936	0.6038	0.3845	-0.5767
5.33	-9.5676	0.0392	-0.1319	0.0030	-0.0354	-0.0168	41.6954	10.2194	-5.6984	0.3937	0.6038	0.3844	-0.5768
5.34	-9.5628	0.0528	-0.1172	0.0062	-0.0369	-0.0214	41.7149	10.3986	-5.6653	0.3937	0.6037	0.3843	-0.5770
5.35	-9.5674	0.0635	-0.0969	0.0047	-0.0394	-0.0193	41.7150	10.3772	-5.5451	0.3937	0.6036	0.3842	-0.5771
5.36	-9.5478	0.0668	-0.1154	0.0089	-0.0430	-0.0246	41.6657	10.1916	-5.6714	0.3937	0.6035	0.3841	-0.5772
5.37	-9.5070	0.0639	-0.1036	0.0026	-0.0479	-0.0245	41.5077	10.3787	-5.5967	0.3937	0.6034	0.3840	-0.5774
5.38	-9.4754	0.0699	-0.0701	0.0001	-0.0396	-0.0165	41.5476	10.1053	-5.5719	0.3938	0.6033	0.3839	-0.5775
5.39	-9.4783	0.0757	-0.0849	-0.0019	-0.0289	-0.0178	41.4926	10.2371	-5.5861	0.3938	0.6033	0.3838	-0.5776
5.4	-9.4840	0.0881	-0.0945	-0.0036	-0.0261	-0.0194	41.3547	10.5300	-5.6015	0.3938	0.6032	0.3838	-0.5777
5.41	-9.4798	0.0828	-0.0925	-0.0078	-0.0298	-0.0295	41.3407	10.5036	-5.4833	0.3938	0.6032	0.3838	-0.5778
5.42	-9.4866	0.0645	-0.0799	-0.0124	-0.0231	-0.0277	41.5038	10.4261	-5.6438	0.3939	0.6031	0.3838	-0.5778
5.43	-9.4834	0.0515	-0.0758	-0.0169	-0.0167	-0.0257	41.5305	10.3820	-5.6929	0.3939	0.6030	0.3838	-0.5779
5.44	-9.4810	0.0451	-0.0881	-0.0210	-0.0193	-0.0251	41.5431	10.3105	-5.6693	0.3939	0.6029	0.3838	-0.5779
5.45	-9.4658	0.0423	-0.0745	-0.0210	-0.0228	-0.0261	41.5040	10.4674	-5.6837	0.3940	0.6028	0.3838	-0.5779
5.46	-9.4765	0.0391	-0.0437	-0.0251	-0.0118	-0.0294	41.2930	10.5430	-5.8491	0.3940	0.6028	0.3839	-0.5780
5.47	-9.4874	0.0314	-0.0637	-0.0287	-0.0093	-0.0242	41.4416	10.7052	-5.8469	0.3941	0.6027	0.3840	-0.5779
5.48	-9.5227	0.0244	-0.0869	-0.0274	-0.0073	-0.0319	41.4573	10.6076	-5.5385	0.3941	0.6026	0.3840	-0.5779
5.49	-9.5311	0.0141	-0.0921	-0.0145	-0.0056	-0.0197	41.4105	10.3587	-5.6478	0.3941	0.6026	0.3841	-0.5779
5.5	-9.5126	0.0199	-0.0909	-0.0143	-0.0113	-0.0285	41.5362	10.3386	-5.8350	0.3941	0.6026	0.3841	-0.5780
5.51	-9.5284	0.0145	-0.0757	-0.0052	-0.0026	-0.0293	41.7397	10.3463	-5.6524	0.3941	0.6026	0.3841	-0.5780
5.52	-9.5714	0.0142	-0.0773	-0.0157	-0.0008	-0.0318	41.6903	10.2531	-5.6971	0.3941	0.6025	0.3842	-0.5780
5.53	-9.6159	-0.0154	-0.0532	-0.0086	0.0095	-0.0310	41.5830	10.0841	-5.6360	0.3940	0.6026	0.3843	-0.5779
5.54	-9.5466	-0.0080	-0.1618	-0.0012	0.0024	-0.0304	41.6901	9.9179	-5.7628	0.3939	0.6026	0.3843	-0.5780
5.55	-9.5363	0.0036	-0.0917	-0.0058	-0.0277	-0.0238	41.7252	10.2129	-5.6801	0.3939	0.6025	0.3843	-0.5780
5.56	-9.4808	-0.0421	-0.0137	-0.0016	-0.0189	-0.0152	41.5752	10.1198	-5.4371	0.3940	0.6025	0.3842	-0.5781
5.57	-9.5468	-0.0199	-0.0595	-0.0028	0.0104	-0.0130	41.5020	10.0987	-5.7040	0.3939	0.6026	0.3842	-0.5780
5.58	-9.5744	-0.0087	-0.1534	0.0018	-0.0027	-0.0077	41.6027	10.2591	-5.5799	0.3939	0.6026	0.3842	-0.5780
5.59	-9.5488	-0.0089	-0.0657	0.0012	-0.0251	-0.0140	41.7331	10.3506	-5.5891	0.3939	0.6026	0.3841	-0.5781
5.6	-9.5149	-0.0068	-0.0263	0.0019	-0.0087	-0.0173	41.6848	10.4699	-5.7100	0.3939	0.6026	0.3840	-0.5781
5.61	-9.5182	0.0090	-0.0790	0.0064	-0.0021	-0.0136	41.5405	10.5953	-5.6628	0.3939	0.6027	0.3840	-0.5781
5.62	-9.5154	-0.0139	-0.0795	0.0102	-0.0099	-0.0090	41.5299	10.5517	-5.7057	0.3939	0.6027	0.3839	-0.5781
5.63	-9.5009	-0.0212	-0.0254	0.0086	-0.0172	-0.0086	41.4272	10.3603	-5.6457	0.3939	0.6027	0.3838	-0.5782
5.64	-9.5044	-0.0065	-0.0339	0.0211	0.0023	-0.0075	41.4455	10.2166	-5.7465	0.3938	0.6028	0.3837	-0.5782
5.65	-9.5162	0.0359	-0.0534	0.0213	0.0050	-0.0049	41.4300	10.3200	-5.7300	0.3937	0.6029	0.3836	-0.5782
5.66	-9.5092	0.0438	-0.0303	0.0215	-0.0001	-0.0063	41.5408	10.3803	-5.4491	0.3937	0.6030	0.3835	-0.5782
5.67	-9.5029	0.0462	-0.0322	0.0233	0.0054	-0.0047	41.4046	10.3915	-5.7857	0.3936	0.6032	0.3834	-0.5782
5.68	-9.5085	0.0705	-0.0553	0.0225	0.0076	-0.0060	41.4966	10.3571	-5.7362	0.3935	0.6033	0.3833	-0.5782
5.69	-9.5254	0.0580	-0.0607	0.0190	0.0112	-0.0054	41.6167	10.1785	-5.8845	0.3934	0.6034	0.3832	-0.5782
5.7	-9.5376	0.0777	-0.0539	0.0212	0.0092	-0.0058	41.7274	9.9643	-5.7104	0.3934	0.6035	0.3831	-0.5782
5.71	-9.5614	0.0899	-0.0693	0.0184	0.0100	-0.0061	41.6804	10.2728	-5.6975	0.3933	0.6037	0.3830	-0.5781
5.72	-9.5796	0.0889	-0.0695	0.0102	0.0012	-0.0123	41.5235	10.2516	-5.8174	0.3932	0.6037	0.3829	-0.5781
5.73	-9.5572	0.0901	-0.0881	0.0057	-0.0062	-0.0073	41.5359	10.1633	-5.6338	0.3932	0.6038	0.3829	-0.5781
5.74	-9.5591	0.0989	-0.0661	0.0052	-0.0094	-0.0052	41.5155	10.2851	-5.8400	0.3932	0.6038	0.3828	-0.5781
5.75	-9.5791	0.1222	-0.0711	0.0108	-0.0042	-0.0104	41.5710	10.1921	-5.8502	0.3932	0.6039	0.3827	-0.5782
5.76	-9.5742	0.1085	-0.0922	-0.0030	-0.0107	-0.0145	41.7213	10.1570	-5.8854	0.3932	0.6039	0.3826	-0.5782
5.77	-9.5567	0.0982	-0.0788	0.0000	-0.0226	-0.0120	41.6015	10.0716	-5.7132	0.3932	0.6039	0.3826	-0.5782
5.78	-9.5449	0.1276	-0.0547	0.0031	-0.0094	-0.0152	41.7790	10.2369	-5.5516	0.3932	0.6039	0.3825	-0.5783
5.79	-9.5351	0.0859	-0.0847	-0.0052	-0.0187	-0.0123	42.2790	10.7192	-5.5971	0.3932	0.6039	0.3824	-0.5783
5.8	-9.5180	0.1028	-0.0646	0.0002	-0.0228	-0.0213	42.0046	10.4105	-5.7559	0.3932	0.6039	0.3823	-0.5784
5.81	-9.5117	0.0909	-0.0482	0.0014	-0.0167	-0.0243	41.5045	10.0334	-5.6348	0.3931	0.6039	0.3823	-0.5785
5.82	-9.4993	0.0893	-0.0644	-0.0066	-0.0084	-0.0238	41.6339	10.0506	-5.5312	0.3931	0.6039	0.3823	-0.5785
5.83	-9.4798	0.0890	-0.0658	-0.0060	-0.0101	-0.0173	41.7937	10.4406	-5.8007	0.3931	0.6039	0.3823	-0.5785
5.84	-9.4674	0.0607	-0.0562	-0.0040	-0.0093	-0.0164	41.5398	10.4357	-5.6326	0.3931	0.6039	0.3823	-0.5785
5.85	-9.4646	0.0668	-0.0413	-0.0051	0.0029	-0.0225	41.3648	10.1994	-5.5380	0.3931	0.6039	0.3823	-0.5785
5.86	-9.4627	0.0769	-0.0544	0.0023	0.0103	-0.0186	41.6526	10.3191	-5.6277	0.3930	0.6040	0.3823	-0.5785
5.87	-9.4780	0.0787	-0.0564	0.0010	0.0110	-0.0156	41.6965	10.0787	-5.7543	0.3930	0.6040	0.3823	-0.5784
5.88	-9.4554	0.0737	-0.0520	-0.0038	0.0117	-0.0163	41.5160	9.9708	-5.6416	0.3929	0.6041	0.3823	-0.5784
5.89	-9.4579	0.0723	-0.0349	-0.0031	0.0172	-0.0165	41.6934	10.3619	-5.9743	0.3929	0.6042	0.3823	-0.5783
5.9	-9.4263	0.0905	-0.0870	-0.0043	0.0244	-0.0146	41.7836	10.2167	-5.5407	0.3928	0.6043	0.3823	-0.5782
5.91	-9.5164	0.0909	-0.0338	-0.0029	0.0245	-0.0215	41.7516	10.0574	-5.7696	0.3928	0.6044	0.3824	-0.5782
5.92	-9.4876	0.0777	-0.1083	-0.0052	0.0389	-0.0218	41.7420	10.3467	-5.7212	0.3926	0.6045	0.3825	-0.5780
5.93	-9.5430	0.0805	-0.0954	-0.0060	0.0238	-0.0211	41.4270	10.1550	-5.6322	0.3926	0.6046	0.3825	-0.5779
5.94	-9.5483	0.0779	-0.0815	-0.0016	0.0302	-0.0200	41.6758	10.2641	-5.6646	0.3925	0.6047	0.3826	-0.5779
5.95	-9.5554	0.0864	-0.0854	-0.0068	0.0295	-0.0217	41.8719	10.2641	-5.7640	0.3924	0.6048	0.3826	-0.5778
5.96	-9.5941	0.0857	-0.1040	-0.0061	0.0296	-0.0154	41.5464	10.2655	-5.7280	0.3923	0.6049	0.3827	-0.5777
5.97	-9.6088	0.0931	-0.1229	-0.0071	0.0224	-0.0125	41.6632	10.2492	-5.5567	0.3923	0.6050	0.3827	-0.5776
5.98	-9.5591	0.0732	-0.1165	-0.0020	0.0223	-0.0070	41.6740	10.3670	-5.5724	0.3922	0.6051	0.3827	-0.5775
5.99	-9.5353	0.1081	-0.1048	0.0002	0.0256	-0.0054	41.6707	10.2178	-5.6790	0.3922	0.6053	0.3827	-0.5774
6	-9.5614	0.0980	-0.1399	-0.0062	0.0340	-0.0075	41.6486	10.3446	-5.4500	0.3921	0.6054	0.3828	-0.5772
6.01	-9.5750	0.0966	-0.1765	-0.0036	0.0256	-0.0092	41.4471	10.2909	-5.5817	0.3921	0.6055	0.3828	-0.5771
6.02	-9.5781	0.0908	-0.1622	-0.0032	0.0137	-0.0126	41.6419	10.1420	-5.4403	0.3920	0.6056	0.3828	-0.5771
6.03	-9.5814	0.0748	-0.1649	-0.0052	0.0202	-0.0177	41.4790	10.2104	-5.5301	0.3920	0.6057	0.3828	-0.5770
6.04	-9.5975	0.0788	-0.1789	-0.0011	0.0195	-0.0097	41.6321	10.3383	-5.7960	0.3919	0.6058	0.3828	-0.5769
6.05	-9.6044	0.0801	-0.1841	0.0038	0.0092	-0.0115	41.6704	10.3751	-5.6405	0.3919	0.6059	0.3828	-0.5769
6.06	-9.5890	0.0848	-0.1758	0.0012	0.0028	-0.0166	41.8201	10.0966	-5.5545	0.3919	0.6059	0.3828	-0.5768
6.07	-9.5454	0.0939	-0.1677	0.0104	-0.0034	-0.0172	41.7699	10.1281	-5.7353	0.3918	0.6060	0.3827	-0.5769
6.08	-9.5164	0.0964	-0.1542	0.0149	-0.0103	-0.0223	41.6123	10.2128	-5.7641	0.3917	0.6060	0.3827	-0.5769
6.09	-9.5118	0.1088	-0.1444	0.0170	-0.0029	-0.0176	41.7086	10.0468	-5.6404	0.3917	0.6061	0.3826	-0.5770
6.1	-9.4822	0.1230	-0.1536	0.0154	0.0021	-0.0180	41.7580	10.1357	-5.5200	0.3916	0.6061	0.3825	-0.5770
6.11	-9.4561	0.1307	-0.1355	0.0031	0.0084	-0.0185	41.7806	9.9857	-5.6382	0.3915	0.6062	0.3825	-0.5770
6.12	-9.5073	0.1607	-0.0955	0.0043	0.0143	-0.0205	42.0688	10.1085	-5.6683	0.3914	0.6063	0.3825	-0.5770
6.13	-9.6000	0.1599	-0.1296	-0.0016	0.0244	-0.0221	41.7657	10.0507	-5.4190	0.3913	0.6064	0.3825	-0.5769
6.14	-9.5870	0.1567	-0.1808	-0.0062	0.0128	-0.0255	41.7965	10.1970	-5.5163	0.3912	0.6065	0.3826	-0.5768
6.15	-9.5582	0.1394	-0.1492	-0.0018	-0.0104	-0.0279	41.6062	10.2726	-5.6599	0.3912	0.6064	0.3826	-0.5769
6.16	-9.5454	0.1292	-0.1300	-0.0164	-0.0001	-0.0230	41.4818	10.3711	-5.6643	0.3912	0.6064	0.3826	-0.5769
6.17	-9.5472	0.1275	-0.1475	-0.0146	0.0013	-0.0162	41.5948	10.1684	-5.5254	0.3912	0.6064	0.3827	-0.5768
6.18	-9.5218	0.1430	-0.1663	-0.0264	0.0024	-0.0230	41.6181	10.1087	-5.4006	0.3912	0.6064	0.3827	-0.5768
6.19	-9.5240	0.1374	-0.1309	-0.0290	0.0007	-0.0176	41.7158	10.2175	-5.3493	0.3913	0.6064	0.3828	-0.5767
6.2	-9.4768	0.1354	-0.1859	-0.0291	0.0112	-0.0200	41.4194	10.1460	-5.6220	0.3913	0.6064	0.3829	-0.5766
6.21	-9.4821	0.1097	-0.1775	-0.0305	0.0146	-0.0289	41.5679	10.2062	-5.8184	0.3913	0.6064	0.3830	-0.5766
6.22	-9.4658	0.0762	-0.1641	-0.0346	0.0175	-0.0252	41.5632	10.3616	-5.6023	0.3913	0.6064	0.3832	-0.5764
6.23	-9.4991	0.0694	-0.1575	-0.0334	0.0220	-0.0290	41.6941	10.2588	-5.4451	0.3913	0.6064	0.3833	-0.5763
6.24	-9.6237	0.0204	-0.1708	-0.0340	0.0265	-0.0259	41.6285	10.2704	-5.6205	0.3913	0.6065	0.3835	-0.5762
6.25	-9.7548	0.0442	-0.2378	-0.0299	0.0287	-0.0134	41.5973	10.2322	-5.4870	0.3913	0.6065	0.3836	-0.5761
6.26	-9.7831	0.0491	-0.3213	-0.0289	-0.0044	-0.0194	41.7816	10.0700	-5.4610	0.3914	0.6065	0.3837	-0.5760
6.27	-9.7648	0.0029	-0.2770	-0.0290	-0.0423	-0.0183	41.7398	10.1079	-5.5695	0.3915	0.6064	0.3837	-0.5761
6.28	-9.6420	-0.0207	-0.3037	-0.0293	-0.0578	-0.0072	41.9398	10.0568	-5.4227	0.3917	0.6062	0.3836	-0.5762
6.29	-9.5475	0.0162	-0.2464	-0.0290	-0.0845	-0.0090	42.5866	10.2132	-5.2874	0.3919	0.6060	0.3834	-0.5764
6.3	-9.5413	-0.0268	-0.1561	-0.0297	-0.0635	-0.0086	42.3700	10.2441	-5.5122	0.3921	0.6058	0.3833	-0.5765
6.31	-9.5888	-0.0290	-0.1712	-0.0268	-0.0531	-0.0068	41.8570	10.0837	-5.7242	0.3923	0.6057	0.3832	-0.5766
6.32	-9.6261	-0.0041	-0.2142	-0.0147	-0.0449	-0.0057	41.7347	9.9808	-5.6881	0.3924	0.6056	0.3831	-0.5767
6.33	-9.5779	-0.0242	-0.2291	-0.0064	-0.0658	-0.0001	41.5304	10.1554	-5.4825	0.3926	0.6054	0.3830	-0.5768
6.34	-9.5773	-0.0085	-0.1100	0.0039	-0.0688	0.0021	41.5411	10.1487	-5.4405	0.3927	0.6053	0.3827	-0.5770
6.35	-9.5503	0.0265	-0.1431	0.0059	-0.0529	0.0007	41.5775	10.1514	-5.6442	0.3928	0.6052	0.3825	-0.5771
6.36	-9.5780	0.0446	-0.1476	0.0098	-0.0693	0.0041	41.6586	10.1450	-5.5964	0.3929	0.6051	0.3823	-0.5773
6.37	-9.5527	0.0703	-0.1017	0.0121	-0.0728	0.0003	41.6249	10.1588	-5.5150	0.3931	0.6050	0.3820	-0.5775
6.38	-9.4952	0.0744	-0.0970	0.0200	-0.0780	-0.0045	41.6363	10.1332	-5.8291	0.3932	0.6049	0.3818	-0.5777
6.39	-9.4836	0.0742	-0.0429	0.0203	-0.0727	-0.0082	41.6448	10.1785	-5.7876	0.3932	0.6048	0.3815	-0.5780
6.4	-9.4818	0.1091	-0.0385	0.0166	-0.0556	-0.0074	41.5760	10.0490	-5.7110	0.3933	0.6047	0.3813	-0.5781
6.41	-9.5153	0.1117	-0.0909	0.0196	-0.0530	-0.0071	41.4226	10.1674	-5.8533	0.3933	0.6046	0.3811	-0.5783
6.42	-9.4801	0.1360	-0.0943	0.0223	-0.0634	-0.0081	41.6255	10.1067	-5.8285	0.3934	0.6046	0.3809	-0.5785
6.43	-9.4589	0.1495	-0.0029	0.0231	-0.0639	-0.0069	41.7837	9.8633	-5.8271	0.3934	0.6045	0.3806	-0.5787
6.44	-9.4493	0.1553	-0.0263	0.0220	-0.0430	-0.0069	41.5945	9.9060	-5.8256	0.3935	0.6044	0.3804	-0.5789
6.45	-9.4754	0.1765	-0.0547	0.0183	-0.0447	-0.0070	41.6796	9.7591	-5.9264	0.3935	0.6044	0.3802	-0.5790
6.46	-9.4750	0.1907	0.0058	0.0228	-0.0474	-0.0130	41.8347	9.8473	-5.9341	0.3935	0.6044	0.3801	-0.5792
6.47	-9.4360	0.1722	0.0133	0.0189	-0.0390	-0.0110	41.5820	9.9019	-6.1188	0.3935	0.6043	0.3799	-0.5794
6.48	-9.4409	0.1927	0.0245	0.0231	-0.0285	-0.0112	41.8420	9.8641	-6.0851	0.3935	0.6043	0.3797	-0.5795
6.49	-9.4125	0.1968	-0.0029	0.0165	-0.0154	-0.0187	41.6719	9.9103	-6.2565	0.3934	0.6044	0.3796	-0.5796
6.5	-9.4218	0.1986	0.0306	0.0034	-0.0101	-0.0216	41.6143	9.9981	-6.0855	0.3934	0.6044	0.3796	-0.5796
6.51	-9.4618	0.1616	0.0156	0.0006	-0.0004	-0.0271	41.6473	9.9333	-5.8979	0.3933	0.6044	0.3796	-0.5796
6.52	-9.5207	0.1763	0.0462	0.0058	0.0112	-0.0237	41.7099	10.2097	-6.0327	0.3932	0.6044	0.3796	-0.5796
6.53	-9.4841	0.1678	-0.0054	-0.0018	0.0136	-0.0287	41.6271	9.9230	-6.0308	0.3931	0.6045	0.3796	-0.5796
6.54	-9.4779	0.1427	0.0071	-0.0045	0.0103	-0.0311	41.6076	9.9190	-6.1710	0.3931	0.6045	0.3797	-0.5796
6.55	-9.4962	0.1687	0.0327	-0.0023	0.0197	-0.0248	41.7617	10.0782	-5.8867	0.3930	0.6046	0.3797	-0.5795
6.56	-9.5331	0.1762	0.0199	-0.0097	0.0238	-0.0199	41.5428	10.0638	-5.9564	0.3929	0.6047	0.3798	-0.5794
6.57	-9.5731	0.1934	-0.0019	-0.0095	0.0263	-0.0162	41.6583	10.1948	-5.8713	0.3929	0.6048	0.3799	-0.5793
6.58	-9.5488	0.2022	-0.0514	-0.0080	0.0197	-0.0270	41.6900	10.0531	-6.1187	0.3928	0.6048	0.3799	-0.5793
6.59	-9.5263	0.1748	-0.0275	-0.0148	0.0057	-0.0305	41.5131	10.0556	-5.9931	0.3928	0.6048	0.3800	-0.5792
6.6	-9.5503	0.1951	-0.0155	-0.0043	0.0106	-0.0322	41.4085	10.0671	-5.9297	0.3927	0.6049	0.3801	-0.5792
6.61	-9.6074	0.1850	-0.0456	-0.0179	0.0087	-0.0308	41.3795	10.0138	-6.0729	0.3927	0.6049	0.3802	-0.5792
6.62	-9.6231	0.1473	-0.0603	-0.0179	-0.0037	-0.0328	41.6438	9.8586	-5.8867	0.3926	0.6048	0.3802	-0.5792
6.63	-9.5906	0.1265	-0.0772	-0.0209	-0.0134	-0.0322	41.8629	9.9099	-6.0567	0.3926	0.6048	0.3803	-0.5792
6.64	-9.5461	0.1584	-0.0682	-0.0181	-0.0252	-0.0354	41.5698	9.9854	-5.9546	0.3927	0.6047	0.3803	-0.5793
6.65	-9.4857	0.1324	-0.0331	-0.0166	-0.0275	-0.0305	41.5944	9.6894	-5.8964	0.3927	0.6046	0.3804	-0.5793
6.66	-9.4860	0.1151	-0.0263	-0.0247	-0.0142	-0.0373	41.7375	9.8047	-5.9407	0.3927	0.6045	0.3804	-0.5794
6.67	-9.5188	0.1364	-0.0516	-0.0230	-0.0014	-0.0345	41.7347	9.9196	-5.7517	0.3927	0.6044	0.3805	-0.5794
6.68	-9.5149	0.1334	-0.0370	-0.0263	-0.0084	-0.0353	41.4418	10.0407	-5.7802	0.3927	0.6043	0.3806	-0.5794
6.69	-9.4896	0.1219	-0.0051	-0.0262	-0.0037	-0.0380	41.2980	10.0699	-5.9325	0.3927	0.6043	0.3807	-0.5794
6.7	-9.5084	0.1054	-0.0002	-0.0299	0.0107	-0.0354	41.7353	10.0431	-6.0369	0.3927	0.6042	0.3809	-0.5793
6.71	-9.5782	0.0871	-0.0208	-0.0263	0.0122	-0.0329	41.6771	10.2373	-5.9864	0.3927	0.6042	0.3810	-0.5793
6.72	-9.5529	0.0807	-0.0497	-0.0292	0.0097	-0.0323	41.6100	10.1765	-5.8482	0.3927	0.6042	0.3811	-0.5792
6.73	-9.5369	0.0456	0.0069	-0.0271	0.0017	-0.0315	41.6697	10.0460	-5.7271	0.3927	0.6042	0.3812	-0.5792
6.74	-9.6582	0.0443	0.0168	-0.0223	0.0176	-0.0322	41.3437	10.1754	-5.7559	0.3927	0.6042	0.3814	-0.5791
6.75	-9.5956	0.0343	-0.1188	-0.0237	0.0040	-0.0241	41.6492	10.1257	-5.9123	0.3927	0.6042	0.3815	-0.5790
6.76	-9.5008	0.0510	-0.0196	-0.0164	-0.0388	-0.0210	41.4716	10.2213	-5.9467	0.3927	0.6041	0.3814	-0.5791
6.77	-9.5097	0.0622	0.0657	-0.0206	-0.0181	-0.0204	41.2681	10.2568	-5.8114	0.3928	0.6040	0.3814	-0.5791
6.78	-9.4814	0.0372	-0.0088	-0.0133	-0.0044	-0.0191	41.8080	10.3304	-5.8652	0.3928	0.6040	0.3814	-0.5791
6.79	-9.5208	0.0710	0.0064	-0.0054	-0.0055	-0.0231	42.0881	10.3443	-5.7687	0.3927	0.6040	0.3814	-0.5792
6.8	-9.5144	0.0682	-0.0058	-0.0020	-0.0049	-0.0148	41.9107	10.0809	-5.8342	0.3927	0.6040	0.3814	-0.5792
6.81	-9.5120	0.0602	0.0085	-0.0011	-0.0148	-0.0174	41.6980	9.9753	-5.8204	0.3927	0.6040	0.3813	-0.5792
6.82	-9.4984	0.0790	0.0211	-0.0006	-0.0074	-0.0126	41.6790	10.0402	-5.8699	0.3927	0.6040	0.3813	-0.5792
6.83	-9.4981	0.0809	0.0192	0.0016	-0.0051	-0.0219	41.5166	9.9005	-6.0523	0.3927	0.6041	0.3813	-0.5793
6.84	-9.5058	0.0907	0.0218	-0.0006	-0.0029	-0.0230	41.6914	9.9148	-6.0295	0.3927	0.6041	0.3813	-0.5793
6.85	-9.4765	0.0890	0.0160	-0.0017	-0.0021	-0.0173	41.5137	10.0624	-6.1869	0.3926	0.6041	0.3812	-0.5793
6.86	-9.4736	0.0871	0.0282	-0.0050	-0.0032	-0.0210	41.6469	10.0923	-6.0381	0.3926	0.6041	0.3812	-0.5793
6.87	-9.5109	0.0840	0.0088	-0.0014	0.0184	-0.0194	41.6829	10.1059	-6.1258	0.3926	0.6042	0.3813	-0.5792
6.88	-9.4962	0.0700	-0.0163	-0.0015	0.0118	-0.0232	41.5117	10.0542	-6.1471	0.3925	0.6042	0.3813	-0.5792
6.89	-9.4908	0.0723	0.0266	-0.0002	0.0011	-0.0141	41.6804	10.1763	-6.2828	0.3925	0.6043	0.3813	-0.5792
6.9	-9.4932	0.0659	0.0138	0.0142	0.0136	-0.0190	41.7505	10.0865	-6.0726	0.3924	0.6044	0.3812	-0.5792
6.91	-9.5186	0.0694	-0.0058	0.0097	0.0246	-0.0173	41.3181	10.2073	-5.9302	0.3923	0.6045	0.3812	-0.5791
6.92	-9.5396	0.0757	-0.0162	0.0175	0.0234	-0.0119	41.3305	10.2351	-5.8346	0.3921	0.6047	0.3812	-0.5790
6.93	-9.5396	0.0739	-0.0120	0.0201	0.0146	-0.0140	41.4462	10.2171	-5.7166	0.3920	0.6048	0.3811	-0.5790
6.94	-9.5255	0.0748	-0.0115	0.0213	0.0115	-0.0098	41.5911	10.2843	-5.8963	0.3919	0.6049	0.3811	-0.5790
6.95	-9.5188	0.0844	-0.0107	0.0232	0.0106	-0.0111	41.5457	10.2810	-5.8137	0.3918	0.6050	0.3810	-0.5790
6.96	-9.5178	0.1032	-0.0034	0.0236	0.0198	-0.0135	41.3277	10.2057	-5.9721	0.3917	0.6052	0.3809	-0.5790
6.97	-9.5154	0.1164	-0.0114	0.0236	0.0207	-0.0106	41.4801	10.2338	-6.0368	0.3916	0.6053	0.3809	-0.5789
6.98	-9.5040	0.1238	-0.0219	0.0214	0.0162	-0.0101	41.5710	10.2848	-5.7132	0.3915	0.6055	0.3808	-0.5789
6.99	-9.5001	0.1297	0.0007	0.0294	0.0160	-0.0111	41.4642	10.1509	-6.0532	0.3914	0.6056	0.3807	-0.5789
7	-9.5117	0.1525	-0.0073	0.0336	0.0234	-0.0164	41.6780	9.9989	-6.0097	0.3912	0.6058	0.3806	-0.5789
7.01	-9.5267	0.1725	-0.0359	0.0215	0.0290	-0.0216	41.5578	10.0983	-6.1473	0.3910	0.6059	0.3806	-0.5789
7.02	-9.5288	0.1817	-0.0339	0.0219	0.0169	-0.0223	41.7764	9.9706	-6.0185	0.3909	0.6061	0.3806	-0.5789
7.03	-9.5149	0.1828	-0.0239	0.0201	0.0152	-0.0232	41.7199	9.9435	-5.9135	0.3907	0.6062	0.3805	-0.5789
7.04	-9.5104	0.1809	-0.0022	0.0172	0.0286	-0.0285	41.5818	10.2360	-5.9910	0.3906	0.6063	0.3805	-0.5788
7.05	-9.5009	0.1917	-0.0272	0.0009	0.0247	-0.0229	41.4835	10.0618	-5.8274	0.3905	0.6064	0.3806	-0.5788
7.06	-9.5053	0.1836	-0.0417	-0.0013	0.0278	-0.0241	41.4635	10.0072	-5.8977	0.3904	0.6065	0.3806	-0.5787
7.07	-9.4982	0.1719	-0.0381	-0.0061	0.0280	-0.0293	41.5263	9.9819	-5.9363	0.3903	0.6066	0.3807	-0.5786
7.08	-9.5457	0.1561	-0.0161	-0.0072	0.0332	-0.0281	41.6086	10.0856	-5.7337	0.3902	0.6067	0.3808	-0.5785
7.09	-9.5583	0.1419	-0.0554	-0.0156	0.0397	-0.0211	41.4342	10.1843	-5.8835	0.3901	0.6068	0.3809	-0.5784
7.1	-9.5440	0.1344	-0.0494	-0.0201	0.0296	-0.0295	41.6794	10.0716	-5.9809	0.3900	0.6069	0.3811	-0.5783
7.11	-9.5532	0.1087	-0.0393	-0.0285	0.0323	-0.0310	41.7752	10.3027	-5.8919	0.3900	0.6069	0.3812	-0.5781
7.12	-9.5349	0.0861	-0.0654	-0.0277	0.0239	-0.0254	41.6860	10.1662	-5.7632	0.3900	0.6069	0.3814	-0.5780
7.13	-9.5027	0.0783	-0.0574	-0.0275	0.0226	-0.0220	41.3855	10.1960	-5.7587	0.3900	0.6070	0.3815	-0.5779
7.14	-9.4488	0.0640	-0.0538	-0.0289	0.0332	-0.0213	41.4912	10.3080	-5.6353	0.3900	0.6070	0.3816	-0.5778
7.15	-9.4620	0.0736	-0.0714	-0.0284	0.0507	-0.0253	41.5998	10.1874	-5.7661	0.3899	0.6071	0.3818	-0.5776
7.16	-9.4935	0.0717	-0.1100	-0.0282	0.0492	-0.0275	41.5656	10.1662	-5.7684	0.3898	0.6073	0.3820	-0.5774
7.17	-9.4909	0.0576	-0.1072	-0.0288	0.0399	-0.0258	41.6728	10.3318	-5.9019	0.3898	0.6073	0.3822	-0.5772
7.18	-9.5033	0.0563	-0.0959	-0.0129	0.0511	-0.0265	41.5066	10.1364	-5.7906	0.3897	0.6075	0.3823	-0.5770
7.19	-9.5358	0.0517	-0.1324	-0.0192	0.0598	-0.0318	41.6899	10.0641	-5.7475	0.3895	0.6076	0.3825	-0.5769
7.2	-9.5610	0.0561	-0.1398	-0.0191	0.0509	-0.0298	41.6311	10.2172	-5.7868	0.3894	0.6077	0.3827	-0.5767
7.21	-9.5561	0.0543	-0.1464	-0.0067	0.0419	-0.0314	41.7116	10.1442	-5.7330	0.3893	0.6078	0.3828	-0.5766
7.22	-9.5506	0.0417	-0.1561	-0.0065	0.0444	-0.0307	41.7707	10.0386	-5.5831	0.3892	0.6080	0.3829	-0.5764
7.23	-9.5529	0.0390	-0.1493	0.0022	0.0440	-0.0268	41.6525	10.3246	-5.5759	0.3890	0.6081	0.3830	-0.5763
7.24	-9.5714	0.0349	-0.1576	-0.0063	0.0516	-0.0297	41.7725	10.2019	-5.6041	0.3889	0.6083	0.3831	-0.5762
7.25	-9.5960	0.0236	-0.1913	0.0133	0.0489	-0.0279	41.7408	10.2501	-5.7231	0.3887	0.6084	0.3832	-0.5761
7.26	-9.5733	0.0126	-0.2202	0.0105	0.0467	-0.0228	41.7672	10.2042	-5.5603	0.3885	0.6086	0.3833	-0.5760
7.27	-9.5985	0.0023	-0.2022	0.0207	0.0504	-0.0221	41.5362	10.0844	-5.7091	0.3883	0.6088	0.3833	-0.5758
7.28	-9.6250	0.0142	-0.2374	0.0271	0.0524	-0.0263	41.8930	10.3498	-5.4700	0.3881	0.6091	0.3833	-0.5758
7.29	-9.6066	0.0149	-0.2538	0.0292	0.0334	-0.0240	42.4080	10.4274	-5.1279	0.3878	0.6093	0.3833	-0.5757
7.3	-9.6073	0.0203	-0.2285	0.0442	0.0315	-0.0243	42.1624	10.3445	-5.2277	0.3876	0.6095	0.3832	-0.5758
7.31	-9.5977	0.0393	-0.2463	0.0468	0.0215	-0.0237	41.6384	10.1453	-5.2701	0.3873	0.6096	0.3831	-0.5758
7.32	-9.5699	0.0563	-0.2266	0.0524	0.0033	-0.0207	41.6475	10.2209	-5.4228	0.3871	0.6098	0.3830	-0.5759
7.33	-9.5443	0.0976	-0.1974	0.0695	-0.0001	-0.0228	41.7278	10.2272	-5.4667	0.3869	0.6100	0.3828	-0.5760
7.34	-9.5378	0.1368	-0.1964	0.0654	0.0021	-0.0234	41.7409	10.3357	-5.4619	0.3866	0.6101	0.3826	-0.5761
7.35	-9.5387	0.1722	-0.1946	0.0576	-0.0024	-0.0296	41.7420	10.1970	-5.5867	0.3864	0.6102	0.3824	-0.5763
7.36	-9.5301	0.1975	-0.1843	0.0578	0.0014	-0.0307	41.6931	10.0778	-5.4936	0.3861	0.6103	0.3823	-0.5764
7.37	-9.5178	0.2066	-0.1623	0.0529	-0.0050	-0.0316	41.5325	9.9891	-5.3329	0.3859	0.6105	0.3821	-0.5765
7.38	-9.5107	0.2168	-0.1599	0.0506	0.0040	-0.0394	41.5714	9.9303	-5.5100	0.3857	0.6105	0.3820	-0.5767
7.39	-9.5134	0.2188	-0.1621	0.0459	0.0119	-0.0346	41.8648	9.9240	-5.6797	0.3854	0.6107	0.3819	-0.5768
7.4	-9.5292	0.2195	-0.1636	0.0295	0.0139	-0.0350	41.9516	10.2678	-5.3224	0.3852	0.6108	0.3819	-0.5768
7.41	-9.5308	0.2044	-0.1731	0.0204	0.0090	-0.0395	41.8032	10.1479	-5.5027	0.3851	0.6108	0.3819	-0.5769
7.42	-9.5157	0.2005	-0.1715	0.0096	0.0028	-0.0328	41.4602	9.9996	-5.3884	0.3849	0.6109	0.3819	-0.5769
7.43	-9.5053	0.2028	-0.1668	0.0003	0.0099	-0.0365	41.5034	10.0001	-5.4181	0.3848	0.6109	0.3820	-0.5769
7.44	-9.4982	0.1863	-0.1615	-0.0134	0.0103	-0.0313	41.6736	10.1847	-5.4606	0.3848	0.6109	0.3820	-0.5769
7.45	-9.5081	0.1717	-0.1555	-0.0306	0.0134	-0.0328	41.6135	9.9186	-5.5789	0.3848	0.6109	0.3822	-0.5768
7.46	-9.4983	0.1451	-0.1651	-0.0331	0.0105	-0.0302	41.7034	10.3255	-5.7827	0.3848	0.6109	0.3823	-0.5767
7.47	-9.5025	0.1178	-0.1480	-0.0504	0.0099	-0.0324	41.4782	10.2434	-5.2035	0.3848	0.6108	0.3825	-0.5766
7.48	-9.5240	0.0893	-0.1636	-0.0553	0.0184	-0.0323	41.4835	10.3207	-5.5319	0.3849	0.6108	0.3827	-0.5765
7.49	-9.5371	0.0630	-0.1891	-0.0536	0.0234	-0.0326	41.4161	10.4397	-5.3683	0.3849	0.6107	0.3829	-0.5764
7.5	-9.5405	0.0413	-0.1768	-0.0549	0.0148	-0.0307	41.4534	10.3985	-5.3143	0.3850	0.6107	0.3831	-0.5762
7.51	-9.5285	0.0150	-0.1858	-0.0546	0.0173	-0.0323	41.6859	10.4237	-5.3851	0.3851	0.6106	0.3833	-0.5761
7.52	-9.5330	-0.0136	-0.1957	-0.0528	0.0196	-0.0327	41.6340	10.4064	-5.3919	0.3851	0.6106	0.3836	-0.5760
7.53	-9.5377	-0.0259	-0.1999	-0.0468	0.0261	-0.0322	41.6486	10.4205	-5.4433	0.3852	0.6106	0.3838	-0.5758
7.54	-9.5311	-0.0347	-0.2055	-0.0351	0.0250	-0.0325	41.6704	10.4063	-5.3601	0.3851	0.6106	0.3840	-0.5757
7.55	-9.5362	-0.0422	-0.2047	-0.0287	0.0211	-0.0313	41.5308	10.4246	-5.2831	0.3851	0.6106	0.3841	-0.5756
7.56	-9.5475	-0.0369	-0.2194	-0.0278	0.0191	-0.0295	41.7210	10.3981	-5.1811	0.3851	0.6106	0.3842	-0.5755
7.57	-9.5596	-0.0322	-0.2310	-0.0167	0.0136	-0.0298	41.8553	10.2772	-5.3141	0.3851	0.6106	0.3843	-0.5755
7.58	-9.5442	-0.0352	-0.2173	-0.0056	0.0108	-0.0274	41.8280	10.1475	-5.2526	0.3850	0.6107	0.3844	-0.5754
7.59	-9.5593	-0.0271	-0.1996	-0.0020	0.0152	-0.0299	41.7136	10.1596	-5.2840	0.3849	0.6107	0.3844	-0.5754
7.6	-9.5631	-0.0165	-0.2398	-0.0039	0.0178	-0.0307	41.7766	10.1305	-5.2675	0.3848	0.6108	0.3845	-0.5754
7.61	-9.5606	-0.0150	-0.2307	0.0049	0.0077	-0.0320	41.6035	10.2200	-5.2759	0.3847	0.6108	0.3845	-0.5754
7.62	-9.5454	-0.0134	-0.2119	0.0035	0.0055	-0.0315	41.5357	10.2359	-5.2809	0.3846	0.6108	0.3845	-0.5754
7.63	-9.5714	-0.0061	-0.2015	0.0039	0.0135	-0.0317	41.5666	10.3609	-5.2668	0.3845	0.6109	0.3846	-0.5754
7.64	-9.5965	-0.0049	-0.2198	0.0152	0.0155	-0.0310	41.5756	10.4142	-5.3184	0.3844	0.6110	0.3846	-0.5754
7.65	-9.5906	-0.0004	-0.2257	0.0061	0.0057	-0.0302	41.7604	10.2006	-5.4203	0.3843	0.6110	0.3846	-0.5754
7.66	-9.5745	0.0069	-0.2230	0.0114	-0.0008	-0.0307	41.6372	10.3509	-5.1406	0.3842	0.6110	0.3846	-0.5754
7.67	-9.5503	0.0128	-0.2084	0.0181	-0.0062	-0.0244	41.5225	10.6767	-5.1087	0.3841	0.6111	0.3845	-0.5755
7.68	-9.5287	0.0242	-0.1975	0.0119	-0.0033	-0.0220	41.4333	10.4777	-5.2751	0.3840	0.6111	0.3845	-0.5755
7.69	-9.5206	0.0444	-0.2115	0.0009	-0.0008	-0.0155	41.5748	10.6066	-5.3030	0.3840	0.6111	0.3844	-0.5756
7.7	-9.5194	0.0556	-0.2251	-0.0008	0.0089	-0.0133	41.5455	10.4646	-5.1498	0.3840	0.6112	0.3844	-0.5755
7.71	-9.5190	0.0587	-0.2198	-0.0020	0.0168	-0.0189	41.5878	10.4207	-5.2538	0.3839	0.6113	0.3844	-0.5755
7.72	-9.5202	0.0561	-0.2161	-0.0079	0.0065	-0.0274	41.4745	10.6008	-5.2433	0.3839	0.6113	0.3845	-0.5754
7.73	-9.5381	0.0420	-0.2209	-0.0037	0.0054	-0.0210	41.4837	10.5911	-5.1383	0.3838	0.6113	0.3845	-0.5754
7.74	-9.5513	0.0400	-0.2209	-0.0162	0.0101	-0.0213	41.4366	10.4612	-5.3931	0.3838	0.6114	0.3845	-0.5754
7.75	-9.5541	0.0352	-0.2142	-0.0224	0.0005	-0.0237	41.7612	10.1849	-5.4435	0.3838	0.6114	0.3846	-0.5753
7.76	-9.5348	0.0369	-0.2115	-0.0169	-0.0018	-0.0240	41.8609	10.1120	-5.2364	0.3838	0.6113	0.3846	-0.5753
7.77	-9.5206	0.0318	-0.2065	-0.0274	0.0000	-0.0185	41.6152	10.3832	-5.5013	0.3839	0.6113	0.3847	-0.5753
7.78	-9.5347	0.0214	-0.2089	-0.0297	0.0083	-0.0240	42.0876	10.4034	-5.2926	0.3839	0.6113	0.3848	-0.5752
7.79	-9.5447	0.0070	-0.2182	-0.0285	0.0093	-0.0163	42.5372	10.4897	-5.0206	0.3839	0.6113	0.3848	-0.5752
7.8	-9.5332	-0.0078	-0.2301	-0.0295	0.0064	-0.0153	42.0370	10.3736	-5.1296	0.3839	0.6114	0.3848	-0.5751
7.81	-9.4847	-0.0152	-0.2300	-0.0289	0.0010	-0.0221	41.5462	10.4428	-5.2204	0.3840	0.6113	0.3849	-0.5750
7.82	-9.5188	-0.0304	-0.2106	-0.0291	0.0149	-0.0151	41.6940	10.4871	-5.4040	0.3840	0.6114	0.3850	-0.5749
7.83	-9.5535	-0.0267	-0.2626	-0.0290	0.0222	-0.0104	41.5533	10.5791	-5.5626	0.3841	0.6114	0.3851	-0.5748
7.84	-9.5164	-0.0474	-0.2637	-0.0296	0.0053	-0.0082	41.6004	10.5446	-5.2604	0.3841	0.6114	0.3851	-0.5747
7.85	-9.5133	-0.0606	-0.2245	-0.0285	0.0036	-0.0126	41.7442	10.3149	-5.2105	0.3842	0.6114	0.3852	-0.5746
7.86	-9.5158	-0.0742	-0.2459	-0.0303	0.0059	-0.0090	41.7177	10.2466	-5.2179	0.3843	0.6114	0.3852	-0.5745
7.87	-9.5255	-0.0853	-0.2372	-0.0250	-0.0005	-0.0070	41.6645	10.2183	-5.2076	0.3844	0.6114	0.3853	-0.5745
7.88	-9.5295	-0.0727	-0.2248	-0.0052	0.0059	-0.0052	41.5698	10.5323	-5.2362	0.3844	0.6115	0.3852	-0.5744
7.89	-9.5274	-0.0646	-0.2472	-0.0060	0.0042	-0.0031	41.6357	10.3805	-5.1783	0.3844	0.6116	0.3852	-0.5743
7.9	-9.5273	-0.0603	-0.2418	0.0004	0.0176	-0.0068	41.6995	10.1845	-5.0688	0.3844	0.6117	0.3852	-0.5743
7.91	-9.5400	-0.0516	-0.2290	0.0158	0.0138	-0.0057	41.6684	10.3756	-5.3575	0.3843	0.6118	0.3851	-0.5742
7.92	-9.5489	-0.0395	-0.2573	0.0225	0.0125	-0.0059	41.5556	10.3272	-5.2590	0.3842	0.6119	0.3850	-0.5742
7.93	-9.5609	-0.0196	-0.2671	0.0280	-0.0005	-0.0060	41.4563	10.3102	-5.2298	0.3841	0.6120	0.3849	-0.5742
7.94	-9.5510	0.0101	-0.2546	0.0327	0.0054	-0.0058	41.6045	10.1339	-5.4585	0.3840	0.6122	0.3847	-0.5743
7.95	-9.5440	0.0292	-0.2410	0.0312	0.0009	-0.0047	41.6636	10.1853	-5.1165	0.3840	0.6123	0.3846	-0.5743
7.96	-9.5397	0.0492	-0.2542	0.0314	0.0071	-0.0058	41.8926	10.2760	-5.2056	0.3838	0.6124	0.3844	-0.5743
7.97	-9.5442	0.0656	-0.2476	0.0362	-0.0013	-0.0060	41.9205	9.9697	-5.3563	0.3837	0.6126	0.3842	-0.5744
7.98	-9.5355	0.0737	-0.2498	0.0291	-0.0025	-0.0057	41.6440	10.0846	-5.1809	0.3836	0.6127	0.3841	-0.5744
7.99	-9.5303	0.0767	-0.2327	0.0277	0.0066	-0.0068	41.6815	10.2961	-5.1098	0.3835	0.6128	0.3839	-0.5744
8	-9.5505	0.0830	-0.2269	0.0242	0.0025	-0.0015	41.5081	10.2250	-5.3492	0.3835	0.6129	0.3838	-0.5744
8.01	-9.5530	0.0923	-0.2423	0.0235	0.0029	0.0068	41.4794	10.2678	-5.4500	0.3834	0.6130	0.3837	-0.5744
8.02	-9.5572	0.0996	-0.2214	0.0212	-0.0047	0.0110	41.6261	10.2289	-5.1541	0.3834	0.6132	0.3835	-0.5744
8.03	-9.5396	0.1003	-0.2335	0.0204	-0.0017	0.0042	41.5300	10.2875	-4.9830	0.3834	0.6133	0.3833	-0.5744
8.04	-9.5357	0.0961	-0.2257	0.0174	-0.0023	-0.0028	41.5252	10.1634	-5.1059	0.3834	0.6134	0.3832	-0.5744
8.05	-9.5462	0.0954	-0.2269	0.0204	0.0040	0.0044	41.7888	10.1822	-5.2087	0.3833	0.6135	0.3831	-0.5744
8.06	-9.5518	0.0928	-0.2277	0.0229	-0.0056	0.0048	41.7680	10.1198	-5.2324	0.3833	0.6136	0.3829	-0.5744
8.07	-9.5486	0.0994	-0.2266	0.0254	-0.0111	0.0133	41.7373	10.2872	-5.3413	0.3833	0.6137	0.3827	-0.5745
8.08	-9.5331	0.1134	-0.2334	0.0218	-0.0076	0.0049	41.5721	10.3002	-5.2358	0.3833	0.6138	0.3825	-0.5745
8.09	-9.5065	0.1293	-0.2330	0.0254	-0.0097	0.0043	41.6870	10.1309	-5.0812	0.3833	0.6139	0.3823	-0.5745
8.1	-9.5225	0.1503	-0.2173	0.0250	-0.0090	-0.0002	41.6824	10.1751	-5.3190	0.3832	0.6140	0.3822	-0.5746
8.11	-9.5224	0.1626	-0.2448	0.0250	-0.0119	0.0006	41.6561	10.1670	-5.4263	0.3832	0.6141	0.3820	-0.5746
8.12	-9.5085	0.1717	-0.2149	0.0240	-0.0139	-0.0002	41.7767	10.0909	-5.3754	0.3832	0.6141	0.3818	-0.5747
8.13	-9.5077	0.1792	-0.1862	0.0234	-0.0104	-0.0043	41.7485	9.8464	-5.5121	0.3831	0.6142	0.3817	-0.5747
8.14	-9.5035	0.1963	-0.2108	0.0293	-0.0086	-0.0047	41.7969	9.9440	-5.2904	0.3831	0.6143	0.3815	-0.5748
8.15	-9.5012	0.2064	-0.2101	0.0248	-0.0104	-0.0064	41.6566	9.7973	-5.3323	0.3830	0.6144	0.3813	-0.5748
8.16	-9.4748	0.2073	-0.2017	0.0225	-0.0120	-0.0057	41.7936	9.9125	-5.0669	0.3830	0.6144	0.3812	-0.5749
8.17	-9.5208	0.2110	-0.1654	0.0232	-0.0002	-0.0065	41.8315	10.0167	-5.3064	0.3829	0.6145	0.3811	-0.5749
8.18	-9.5615	0.2208	-0.1935	0.0195	0.0164	-0.0055	41.3510	9.9402	-5.4218	0.3828	0.6146	0.3810	-0.5749
8.19	-9.5487	0.2157	-0.2123	0.0227	0.0024	-0.0066	41.5892	9.7807	-5.3846	0.3828	0.6148	0.3809	-0.5749
8.2	-9.5270	0.2110	-0.1928	0.0141	-0.0104	-0.0049	41.5897	9.9461	-5.2792	0.3828	0.6148	0.3807	-0.5749
8.21	-9.4955	0.1946	-0.2011	0.0102	-0.0037	-0.0056	41.7356	9.9794	-5.3309	0.3827	0.6149	0.3806	-0.5749
8.22	-9.4805	0.1983	-0.1984	0.0057	0.0013	-0.0064	41.7836	10.0529	-5.2037	0.3827	0.6149	0.3806	-0.5749
8.23	-9.4937	0.2191	-0.2075	0.0080	0.0240	-0.0060	41.7494	10.1691	-5.3117	0.3827	0.6151	0.3805	-0.5748
8.24	-9.4771	0.2296	-0.2467	0.0002	0.0176	-0.0052	41.6728	10.0681	-5.4043	0.3826	0.6152	0.3805	-0.5748
8.25	-9.5048	0.2166	-0.2198	-0.0041	0.0162	-0.0069	41.8441	10.0343	-5.0392	0.3826	0.6153	0.3805	-0.5747
8.26	-9.5074	0.2052	-0.2428	-0.0027	0.0245	-0.0118	41.8803	9.9603	-5.3210	0.3826	0.6154	0.3805	-0.5746
8.27	-9.5261	0.1884	-0.2507	-0.0032	0.0222	-0.0180	41.6239	10.1009	-5.2828	0.3825	0.6155	0.3806	-0.5745
8.28	-9.5543	0.1846	-0.2422	-0.0000	0.0211	-0.0202	41.8975	10.0687	-4.8979	0.3824	0.6155	0.3806	-0.5745
8.29	-9.5518	0.1944	-0.2577	0.0053	0.0188	-0.0157	42.3982	10.0881	-4.7463	0.3823	0.6157	0.3806	-0.5744
8.3	-9.5594	0.1993	-0.2401	0.0017	0.0149	-0.0214	42.3998	9.9598	-5.0018	0.3822	0.6157	0.3805	-0.5744
8.31	-9.5635	0.2050	-0.2377	-0.0003	0.0088	-0.0199	42.0909	9.4957	-5.1819	0.3822	0.6158	0.3806	-0.5744
8.32	-9.5623	0.2079	-0.2589	-0.0035	0.0089	-0.0208	41.9758	9.5665	-5.2757	0.3822	0.6158	0.3806	-0.5743
8.33	-9.5746	0.2083	-0.2502	-0.0029	0.0096	-0.0190	41.9567	9.6674	-5.1351	0.3821	0.6159	0.3806	-0.5743
8.34	-9.5462	0.2138	-0.2774	-0.0100	0.0114	-0.0186	41.9154	9.7490	-5.4919	0.3821	0.6159	0.3806	-0.5743
8.35	-9.5176	0.2030	-0.2524	-0.0068	-0.0030	-0.0229	41.8883	9.8636	-5.5325	0.3821	0.6159	0.3807	-0.5743
8.36	-9.5482	0.2033	-0.2351	-0.0216	0.0029	-0.0241	41.9261	9.8020	-5.1427	0.3821	0.6159	0.3807	-0.5742
8.37	-9.5261	0.1952	-0.2732	-0.0276	0.0044	-0.0306	41.7427	9.9283	-5.2702	0.3821	0.6158	0.3808	-0.5742
8.38	-9.5138	0.1724	-0.2440	-0.0255	-0.0088	-0.0256	41.7765	10.0192	-5.3751	0.3822	0.6158	0.3809	-0.5742
8.39	-9.5174	0.1669	-0.2364	-0.0283	-0.0042	-0.0199	41.7781	9.6875	-5.3438	0.3822	0.6157	0.3810	-0.5741
8.4	-9.5242	0.1421	-0.2345	-0.0333	-0.0076	-0.0198	41.6963	9.9059	-5.0673	0.3823	0.6156	0.3811	-0.5741
8.41	-9.5216	0.1536	-0.2146	-0.0296	-0.0013	-0.0169	41.6700	10.0156	-5.1999	0.3824	0.6156	0.3811	-0.5741
8.42	-9.5265	0.1573	-0.2272	-0.0340	0.0127	-0.0207	41.6847	9.7810	-4.9973	0.3825	0.6156	0.3812	-0.5740
8.43	-9.5200	0.1440	-0.2516	-0.0279	0.0085	-0.0281	41.6802	10.0792	-5.0524	0.3825	0.6156	0.3814	-0.5739
8.44	-9.5219	0.1361	-0.2351	-0.0345	0.0057	-0.0216	41.6731	10.1206	-5.0911	0.3825	0.6155	0.3815	-0.5738
8.45	-9.5316	0.1210	-0.2328	-0.0331	0.0130	-0.0248	41.7959	9.9650	-5.0981	0.3826	0.6155	0.3816	-0.5737
8.46	-9.5268	0.1100	-0.2669	-0.0280	0.0156	-0.0285	41.7388	9.9300	-5.1843	0.3826	0.6155	0.3817	-0.5736
8.47	-9.5163	0.1032	-0.2492	-0.0300	0.0077	-0.0309	41.8615	10.1080	-5.1984	0.3826	0.6155	0.3819	-0.5736
8.48	-9.5127	0.1049	-0.2321	-0.0284	0.0040	-0.0334	41.7752	10.0962	-5.0555	0.3826	0.6154	0.3820	-0.5735
8.49	-9.5095	0.0938	-0.2516	-0.0283	0.0063	-0.0272	41.6447	9.9783	-4.8958	0.3826	0.6154	0.3821	-0.5735
8.5	-9.5068	0.0884	-0.2474	-0.0221	0.0080	-0.0266	41.9210	10.0518	-5.2126	0.3827	0.6154	0.3822	-0.5734
8.51	-9.5182	0.0892	-0.2399	-0.0228	0.0155	-0.0264	41.9677	9.8433	-5.0900	0.3826	0.6154	0.3823	-0.5734
8.52	-9.5267	0.0887	-0.2432	-0.0199	0.0146	-0.0334	41.8361	9.8213	-5.0381	0.3826	0.6154	0.3824	-0.5733
8.53	-9.5194	0.0931	-0.2566	-0.0149	0.0193	-0.0200	41.8687	9.8459	-5.1735	0.3826	0.6154	0.3825	-0.5732
8.54	-9.5183	0.1003	-0.2367	-0.0215	0.0109	-0.0187	41.8493	9.8197	-5.2892	0.3826	0.6154	0.3826	-0.5732
8.55	-9.5290	0.1017	-0.2360	-0.0214	0.0187	-0.0176	41.8728	9.8401	-5.2601	0.3826	0.6154	0.3827	-0.5731
8.56	-9.5188	0.1082	-0.2661	-0.0099	0.0177	-0.0163	41.7236	10.0370	-5.3583	0.3826	0.6155	0.3827	-0.5730
8.57	-9.5332	0.1089	-0.2302	-0.0078	0.0116	-0.0172	41.8479	10.0019	-5.0601	0.3826	0.6155	0.3827	-0.5729
8.58	-9.5329	0.1135	-0.2523	-0.0033	0.0195	-0.0140	41.8064	10.0087	-5.0934	0.3826	0.6156	0.3828	-0.5729
8.59	-9.5159	0.1227	-0.2661	-0.0027	0.0136	-0.0224	41.6434	10.0098	-5.0782	0.3825	0.6157	0.3828	-0.5728
8.6	-9.5183	0.1204	-0.2450	-0.0033	0.0194	-0.0296	41.7235	10.2674	-5.2272	0.3824	0.6157	0.3829	-0.5728
8.61	-9.5120	0.1161	-0.2766	0.0021	0.0230	-0.0296	41.8085	10.2443	-5.1053	0.3823	0.6158	0.3829	-0.5727
8.62	-9.4917	0.1154	-0.2897	0.0078	0.0206	-0.0319	41.6576	10.0425	-5.0616	0.3822	0.6159	0.3830	-0.5727
8.63	-9.4986	0.1191	-0.2595	0.0008	0.0282	-0.0311	41.8179	10.2777	-5.2319	0.3821	0.6159	0.3830	-0.5726
8.64	-9.5111	0.1338	-0.2919	0.0046	0.0294	-0.0302	41.6964	10.1589	-4.9272	0.3820	0.6160	0.3831	-0.5726
8.65	-9.5138	0.1413	-0.2930	0.0043	0.0252	-0.0324	41.7385	9.8582	-4.9578	0.3818	0.6161	0.3832	-0.5725
8.66	-9.5294	0.1286	-0.2815	0.0002	0.0258	-0.0427	41.7962	10.1317	-5.0080	0.3817	0.6162	0.3833	-0.5725
8.67	-9.5302	0.1153	-0.2903	0.0038	0.0270	-0.0456	41.7420	10.0932	-4.9931	0.3815	0.6162	0.3834	-0.5725
8.68	-9.5214	0.1081	-0.2760	-0.0004	0.0219	-0.0400	41.6288	9.8655	-5.1741	0.3814	0.6162	0.3835	-0.5724
8.69	-9.5016	0.1096	-0.3032	-0.0001	0.0225	-0.0345	41.8550	9.8168	-5.1816	0.3813	0.6163	0.3836	-0.5724
8.7	-9.4901	0.1031	-0.3021	-0.0036	0.0282	-0.0386	41.9720	9.9317	-4.9495	0.3812	0.6164	0.3837	-0.5724
8.71	-9.4886	0.0895	-0.3098	0.0004	0.0298	-0.0346	41.9227	9.9632	-4.8711	0.3810	0.6164	0.3838	-0.5723
8.72	-9.5244	0.0792	-0.2938	-0.0043	0.0343	-0.0349	41.7613	10.2807	-5.2110	0.3809	0.6165	0.3839	-0.5722
8.73	-9.5663	0.0794	-0.3028	-0.0016	0.0365	-0.0327	41.7785	10.2804	-5.0579	0.3808	0.6166	0.3840	-0.5721
8.74	-9.5866	0.0677	-0.3180	-0.0030	0.0294	-0.0310	42.1104	10.1392	-5.0201	0.3806	0.6167	0.3841	-0.5721
8.75	-9.5654	0.0647	-0.3176	-0.0027	0.0275	-0.0309	41.7793	10.0740	-5.2600	0.3805	0.6168	0.3842	-0.5720
8.76	-9.5587	0.0493	-0.2906	-0.0011	0.0152	-0.0301	41.8268	9.8096	-4.9976	0.3805	0.6168	0.3842	-0.5720
8.77	-9.5335	0.0415	-0.3202	-0.0032	0.0254	-0.0209	41.8976	9.9592	-4.7561	0.3804	0.6169	0.3843	-0.5719
8.78	-9.5084	0.0743	-0.3363	-0.0030	0.0253	-0.0208	41.9532	10.2964	-4.5806	0.3803	0.6170	0.3843	-0.5718
8.79	-9.5246	0.0799	-0.3358	-0.0032	0.0295	-0.0219	42.4448	10.5083	-4.6788	0.3802	0.6171	0.3844	-0.5718
8.8	-9.5165	0.0882	-0.3699	-0.0004	0.0337	-0.0208	42.0639	10.4436	-4.6939	0.3801	0.6172	0.3844	-0.5717
8.81	-9.5139	0.0852	-0.3611	-0.0046	0.0254	-0.0220	41.5983	10.3284	-4.8407	0.3800	0.6173	0.3844	-0.5716
8.82	-9.5450	0.0834	-0.3496	0.0028	0.0305	-0.0274	41.8964	10.0740	-4.9717	0.3799	0.6174	0.3845	-0.5716
8.83	-9.5771	0.0833	-0.3739	0.0018	0.0269	-0.0280	41.7391	10.0553	-4.8448	0.3798	0.6175	0.3846	-0.5715
8.84	-9.5744	0.0778	-0.3738	0.0051	0.0131	-0.0279	41.9426	10.0776	-4.8557	0.3797	0.6175	0.3846	-0.5715
8.85	-9.5667	0.0779	-0.3469	0.0025	0.0123	-0.0238	41.6922	10.0711	-5.1120	0.3796	0.6176	0.3846	-0.5715
8.86	-9.5345	0.0753	-0.3637	0.0037	0.0126	-0.0266	41.7870	10.2695	-4.9299	0.3795	0.6176	0.3846	-0.5714
8.87	-9.5513	0.0694	-0.3569	0.0089	0.0033	-0.0253	41.7922	10.0875	-5.0488	0.3795	0.6177	0.3846	-0.5715
8.88	-9.5574	0.0767	-0.3666	0.0078	0.0096	-0.0195	41.8204	9.9245	-4.9062	0.3794	0.6177	0.3846	-0.5714
8.89	-9.5654	0.0715	-0.3629	0.0110	0.0045	-0.0189	42.0527	10.0762	-4.8267	0.3793	0.6178	0.3846	-0.5715
8.9	-9.5129	0.0709	-0.3678	0.0102	0.0081	-0.0136	41.8534	9.9879	-4.8664	0.3793	0.6178	0.3846	-0.5714
8.91	-9.4961	0.0799	-0.3383	0.0137	0.0070	-0.0145	42.0058	9.9952	-4.8328	0.3792	0.6179	0.3845	-0.5715
8.92	-9.5479	0.0940	-0.3587	0.0169	0.0144	-0.0105	41.9401	10.0650	-4.7462	0.3791	0.6180	0.3844	-0.5714
8.93	-9.4952	0.0892	-0.4011	0.0236	0.0054	-0.0110	41.8609	9.9497	-4.9613	0.3791	0.6181	0.3844	-0.5714
8.94	-9.4567	0.0864	-0.3193	0.0194	0.0015	-0.0136	41.9128	9.9976	-4.8469	0.3790	0.6182	0.3843	-0.5715
8.95	-9.4730	0.0887	-0.3149	0.0296	0.0167	-0.0175	41.7540	9.9784	-4.8525	0.3789	0.6183	0.3842	-0.5715
8.96	-9.4697	0.1005	-0.3439	0.0414	0.0094	-0.0156	41.7115	10.1124	-4.8347	0.3787	0.6184	0.3841	-0.5715
8.97	-9.4612	0.1191	-0.2941	0.0491	0.0101	-0.0186	41.9167	9.7641	-4.6380	0.3785	0.6185	0.3839	-0.5716
8.98	-9.4558	0.1280	-0.2983	0.0488	0.0353	-0.0314	41.7699	10.0128	-4.7645	0.3783	0.6187	0.3839	-0.5716
8.99	-9.4782	0.1640	-0.3206	0.0515	0.0477	-0.0420	41.8346	10.1808	-4.8835	0.3779	0.6189	0.3839	-0.5716
9	-9.4700	0.1289	-0.3513	0.0513	0.0479	-0.0547	41.9013	10.1855	-4.6257	0.3776	0.6191	0.3839	-0.5716
9.01	-9.4816	0.1221	-0.3455	0.0586	0.0575	-0.0583	41.9037	10.3494	-4.8496	0.3771	0.6193	0.3840	-0.5717
9.02	-9.5024	0.1268	-0.3814	0.0550	0.0576	-0.0633	41.6709	10.3351	-4.9631	0.3767	0.6195	0.3840	-0.5717
9.03	-9.5178	0.1251	-0.4016	0.0595	0.0563	-0.0732	41.6178	10.1679	-4.8124	0.3762	0.6197	0.3841	-0.5717
9.04	-9.5394	0.1326	-0.3847	0.0636	0.0535	-0.0742	41.8199	10.2109	-4.9154	0.3758	0.6199	0.3842	-0.5718
9.05	-9.5557	0.1303	-0.3921	0.0551	0.0479	-0.0607	41.7756	10.2777	-5.0752	0.3754	0.6200	0.3843	-0.5718
9.06	-9.5484	0.1218	-0.4084	0.0616	0.0531	-0.0726	41.8358	9.9877	-4.8677	0.3749	0.6202	0.3843	-0.5719
9.07	-9.5444	0.1176	-0.4009	0.0497	0.0418	-0.0759	42.0560	10.1939	-4.7241	0.3745	0.6203	0.3844	-0.5720
9.08	-9.5472	0.0988	-0.4138	0.0430	0.0473	-0.0754	41.8070	10.2870	-4.7822	0.3741	0.6205	0.3846	-0.5720
9.09	-9.5346	0.0908	-0.4357	0.0409	0.0528	-0.0732	41.6881	10.1168	-4.7498	0.3737	0.6206	0.3847	-0.5720
9.1	-9.5430	0.0899	-0.4254	0.0449	0.0433	-0.0787	41.8654	10.2080	-4.9064	0.3732	0.6207	0.3848	-0.5721
9.11	-9.5518	0.0712	-0.4468	0.0356	0.0498	-0.0716	41.8918	10.2522	-4.7703	0.3729	0.6208	0.3850	-0.5721
9.12	-9.5505	0.0480	-0.4754	0.0258	0.0497	-0.0652	41.9005	10.3121	-4.7627	0.3725	0.6210	0.3851	-0.5721
9.13	-9.5877	0.0317	-0.4563	0.0220	0.0412	-0.0707	41.7626	10.4726	-4.7659	0.3722	0.6210	0.3853	-0.5721
9.14	-9.5801	0.0224	-0.4913	0.0232	0.0383	-0.0720	41.6990	10.3476	-4.7805	0.3719	0.6211	0.3854	-0.5722
9.15	-9.5699	0.0133	-0.4669	0.0224	0.0232	-0.0625	41.7049	10.3429	-4.6961	0.3716	0.6211	0.3855	-0.5722
9.16	-9.6094	0.0206	-0.4591	0.0207	0.0357	-0.0608	41.8096	10.3139	-4.6487	0.3714	0.6212	0.3857	-0.5723
9.17	-9.5910	0.0217	-0.5074	0.0088	0.0221	-0.0566	41.7908	10.1401	-4.7022	0.3712	0.6212	0.3858	-0.5723
9.18	-9.5696	0.0070	-0.4632	-0.0020	0.0174	-0.0546	41.8200	10.3263	-4.5965	0.3710	0.6212	0.3859	-0.5723
9.19	-9.5483	0.0271	-0.4664	-0.0015	0.0191	-0.0454	41.7021	10.4168	-4.5849	0.3709	0.6212	0.3860	-0.5723
9.2	-9.5466	0.0058	-0.4886	-0.0048	0.0191	-0.0457	41.8275	10.5231	-4.5688	0.3708	0.6212	0.3861	-0.5723
9.21	-9.5291	0.0103	-0.4837	-0.0134	0.0155	-0.0370	41.7627	10.5196	-4.6401	0.3707	0.6212	0.3862	-0.5723
9.22	-9.5128	0.0052	-0.4678	-0.0292	0.0107	-0.0329	41.6720	10.4772	-4.6506	0.3707	0.6212	0.3864	-0.5722
9.23	-9.5050	-0.0143	-0.4652	-0.0294	0.0154	-0.0327	41.8361	10.6473	-4.4378	0.3707	0.6212	0.3865	-0.5721
9.24	-9.5122	-0.0216	-0.4674	-0.0338	0.0098	-0.0328	41.7673	10.5151	-4.6881	0.3707	0.6211	0.3867	-0.5721
9.25	-9.5157	-0.0431	-0.4777	-0.0314	0.0075	-0.0304	41.8761	10.4426	-4.7741	0.3708	0.6211	0.3868	-0.5720
9.26	-9.5135	-0.0674	-0.4823	-0.0354	0.0041	-0.0267	41.8877	10.5484	-4.4729	0.3708	0.6210	0.3869	-0.5719
9.27	-9.4767	-0.0718	-0.4754	-0.0302	-0.0031	-0.0217	41.9081	10.4010	-4.5016	0.3709	0.6210	0.3870	-0.5719
9.28	-9.4785	-0.0832	-0.4600	-0.0309	0.0064	-0.0138	42.0064	10.6999	-4.4657	0.3709	0.6210	0.3870	-0.5718
9.29	-9.4783	-0.0713	-0.4909	-0.0285	0.0096	-0.0149	42.6732	10.7175	-3.8440	0.3710	0.6210	0.3871	-0.5718
9.3	-9.4860	-0.0617	-0.4806	-0.0290	0.0150	-0.0155	42.0963	10.7971	-4.1982	0.3710	0.6210	0.3871	-0.5717
9.31	-9.4848	-0.0516	-0.4747	-0.0304	0.0131	-0.0169	41.0764	10.6306	-4.4422	0.3711	0.6210	0.3872	-0.5716
9.32	-9.5516	-0.0416	-0.4574	-0.0227	0.0258	-0.0201	41.0811	10.2607	-4.2532	0.3711	0.6211	0.3873	-0.5715
9.33	-9.5925	-0.0362	-0.4890	-0.0269	0.0289	-0.0229	41.0499	10.5002	-4.4796	0.3711	0.6211	0.3874	-0.5714
9.34	-9.5720	-0.0507	-0.5109	-0.0259	0.0130	-0.0289	41.3529	10.6526	-4.4164	0.3711	0.6211	0.3875	-0.5713
9.35	-9.5730	-0.0671	-0.4866	-0.0199	0.0201	-0.0324	41.3735	10.5490	-4.3514	0.3710	0.6211	0.3877	-0.5712
9.36	-9.5617	-0.0678	-0.5222	-0.0147	0.0149	-0.0278	40.9718	10.5687	-4.3302	0.3710	0.6211	0.3878	-0.5712
9.37	-9.5166	-0.0589	-0.5269	-0.0064	0.0185	-0.0263	41.2989	10.6339	-4.4679	0.3710	0.6211	0.3878	-0.5711
9.38	-9.5064	-0.0381	-0.5089	-0.0071	0.0193	-0.0286	41.5003	10.5978	-4.4084	0.3709	0.6212	0.3879	-0.5711
9.39	-9.5285	-0.0394	-0.5647	-0.0075	0.0321	-0.0269	41.1510	10.6225	-4.3739	0.3708	0.6212	0.3880	-0.5710
9.4	-9.5559	-0.0414	-0.5789	-0.0057	0.0215	-0.0294	41.0306	10.5902	-4.5058	0.3707	0.6213	0.3881	-0.5709
9.41	-9.5533	-0.0556	-0.5651	-0.0028	0.0161	-0.0319	41.0222	10.7147	-4.2232	0.3707	0.6213	0.3881	-0.5709
9.42	-9.5837	-0.0664	-0.5447	-0.0034	0.0109	-0.0315	41.1525	10.6852	-4.2924	0.3706	0.6213	0.3882	-0.5709
9.43	-9.6261	-0.0638	-0.5707	-0.0027	0.0024	-0.0339	41.0728	10.5245	-4.4312	0.3705	0.6213	0.3882	-0.5709
9.44	-9.5949	-0.0621	-0.5797	-0.0047	-0.0085	-0.0346	41.2803	10.5258	-4.4594	0.3705	0.6213	0.3882	-0.5710
9.45	-9.5749	-0.0528	-0.5277	-0.0003	-0.0078	-0.0322	41.4211	10.5144	-4.3257	0.3705	0.6212	0.3883	-0.5710
9.46	-9.5801	-0.0346	-0.5522	-0.0025	-0.0066	-0.0323	41.4859	10.5559	-4.3691	0.3704	0.6212	0.3883	-0.5711
9.47	-9.5883	-0.0406	-0.5668	-0.0071	-0.0084	-0.0322	41.4392	10.6863	-4.3278	0.3704	0.6212	0.3883	-0.5711
9.48	-9.5768	-0.0490	-0.5418	-0.0185	-0.0143	-0.0316	41.1574	10.8048	-4.4820	0.3704	0.6211	0.3884	-0.5712
9.49	-9.5646	-0.0642	-0.5503	-0.0235	-0.0115	-0.0337	41.1482	10.6436	-4.2828	0.3705	0.6210	0.3884	-0.5712
9.5	-9.5375	-0.0731	-0.5607	-0.0251	-0.0186	-0.0231	41.3891	10.4254	-4.3024	0.3705	0.6209	0.3885	-0.5712
9.51	-9.5360	-0.0676	-0.5276	-0.0268	-0.0220	-0.0182	41.3962	10.4850	-4.3699	0.3706	0.6208	0.3885	-0.5712
9.52	-9.5825	-0.0638	-0.5210	-0.0285	-0.0188	-0.0183	41.2593	10.8615	-4.4484	0.3708	0.6207	0.3885	-0.5712
9.53	-9.5281	-0.0722	-0.5523	-0.0288	-0.0220	-0.0187	41.3526	10.6977	-4.3143	0.3709	0.6206	0.3885	-0.5713
9.54	-9.5240	-0.0873	-0.4905	-0.0292	-0.0306	-0.0144	41.1234	10.5592	-4.4434	0.3710	0.6205	0.3886	-0.5713
9.55	-9.5235	-0.0969	-0.5006	-0.0282	-0.0233	-0.0079	41.2107	10.7270	-4.3650	0.3712	0.6204	0.3885	-0.5713
9.56	-9.5509	-0.1073	-0.5011	-0.0318	-0.0273	-0.0066	41.1740	10.6759	-4.4597	0.3713	0.6203	0.3885	-0.5713
9.57	-9.5220	-0.0900	-0.4947	-0.0326	-0.0329	-0.0076	40.9597	10.9029	-4.6244	0.3715	0.6202	0.3885	-0.5713
9.58	-9.5439	-0.0772	-0.4783	-0.0287	-0.0275	-0.0075	41.1233	10.7224	-4.3382	0.3717	0.6201	0.3885	-0.5714
9.59	-9.5526	-0.0821	-0.5097	-0.0281	-0.0249	-0.0087	41.2077	10.5877	-4.3879	0.3718	0.6200	0.3885	-0.5714
9.6	-9.5228	-0.0886	-0.5064	-0.0198	-0.0330	-0.0143	41.4676	10.7505	-4.4118	0.3719	0.6199	0.3884	-0.5714
9.61	-9.5423	-0.1001	-0.4556	-0.0208	-0.0323	-0.0129	41.0209	10.6270	-4.3939	0.3721	0.6198	0.3884	-0.5715
9.62	-9.5362	-0.0905	-0.4953	-0.0176	-0.0252	-0.0148	41.1722	10.5302	-4.4720	0.3722	0.6197	0.3884	-0.5715
9.63	-9.5323	-0.0917	-0.4668	-0.0071	-0.0344	-0.0200	41.5625	10.4013	-4.4283	0.3722	0.6196	0.3883	-0.5716
9.64	-9.5141	-0.0876	-0.4494	-0.0119	-0.0332	-0.0185	41.3738	10.3225	-4.6057	0.3723	0.6195	0.3883	-0.5717
9.65	-9.5101	-0.0826	-0.4547	-0.0036	-0.0318	-0.0190	41.4408	10.4075	-4.6582	0.3724	0.6194	0.3882	-0.5718
9.66	-9.4997	-0.0794	-0.4548	-0.0033	-0.0341	-0.0159	41.6008	10.5544	-4.4062	0.3724	0.6193	0.3881	-0.5719
9.67	-9.5102	-0.0617	-0.4375	-0.0024	-0.0283	-0.0111	41.1333	10.6084	-4.4889	0.3725	0.6193	0.3881	-0.5720
9.68	-9.5178	-0.0582	-0.4400	-0.0078	-0.0212	-0.0095	41.1717	10.4375	-4.5498	0.3726	0.6192	0.3880	-0.5720
9.69	-9.5135	-0.0637	-0.4427	-0.0047	-0.0335	-0.0117	41.2040	10.4257	-4.5393	0.3727	0.6191	0.3879	-0.5721
9.7	-9.5256	-0.0672	-0.4208	-0.0051	-0.0242	-0.0084	41.3227	10.4482	-4.4137	0.3727	0.6191	0.3878	-0.5722
9.71	-9.5223	-0.0665	-0.4424	-0.0140	-0.0282	-0.0089	41.0857	10.5619	-4.4861	0.3728	0.6190	0.3878	-0.5722
9.72	-9.5184	-0.0776	-0.4472	-0.0151	-0.0274	-0.0099	41.2676	10.7025	-4.3332	0.3729	0.6189	0.3877	-0.5723
9.73	-9.5261	-0.0833	-0.4540	-0.0186	-0.0238	-0.0065	41.3008	10.6873	-4.5531	0.3731	0.6189	0.3877	-0.5723
9.74	-9.5540	-0.0802	-0.4854	-0.0141	-0.0228	-0.0079	41.1961	10.7237	-4.7697	0.3732	0.6188	0.3876	-0.5723
9.75	-9.5856	-0.0845	-0.4994	-0.0073	-0.0207	-0.0070	41.3436	10.6203	-4.5119	0.3732	0.6188	0.3876	-0.5724
9.76	-9.6228	-0.1097	-0.5214	-0.0060	-0.0261	-0.0074	41.2148	10.6825	-4.5769	0.3733	0.6187	0.3875	-0.5724
9.77	-9.6293	-0.1237	-0.5185	-0.0053	-0.0333	-0.0022	40.9785	10.7049	-4.3956	0.3734	0.6187	0.3874	-0.5725
9.78	-9.6175	-0.1082	-0.4963	-0.0029	-0.0464	0.0032	41.2486	10.5579	-4.3823	0.3736	0.6186	0.3872	-0.5726
9.79	-9.6271	-0.0892	-0.4867	-0.0043	-0.0491	0.0098	41.7344	10.4758	-4.4798	0.3737	0.6185	0.3870	-0.5727
9.8	-9.6112	-0.0792	-0.4856	0.0013	-0.0715	0.0150	41.7840	10.5772	-4.5923	0.3740	0.6184	0.3868	-0.5728
9.81	-9.5940	-0.0743	-0.4363	0.0155	-0.0764	0.0189	41.9851	10.3351	-4.6691	0.3741	0.6183	0.3865	-0.5730
9.82	-9.5768	-0.0492	-0.4161	0.0219	-0.0729	0.0160	41.8524	10.2106	-4.8181	0.3743	0.6182	0.3861	-0.5732
9.83	-9.5718	-0.0324	-0.4213	0.0194	-0.0741	0.0168	41.7556	10.5007	-5.0749	0.3745	0.6181	0.3858	-0.5735
9.84	-9.5469	-0.0270	-0.4118	0.0203	-0.0778	0.0154	41.7907	10.1878	-4.8985	0.3746	0.6180	0.3855	-0.5737
9.85	-9.5323	-0.0144	-0.3883	0.0221	-0.0774	0.0142	41.7751	10.3411	-4.8220	0.3748	0.6179	0.3852	-0.5739
9.86	-9.5451	0.0053	-0.3723	0.0229	-0.0737	0.0080	41.7776	10.2810	-4.8629	0.3749	0.6178	0.3849	-0.5741
9.87	-9.5334	0.0153	-0.3815	0.0220	-0.0776	0.0047	41.7876	10.2555	-4.7962	0.3751	0.6177	0.3846	-0.5744
9.88	-9.5314	0.0195	-0.3360	0.0223	-0.0871	0.0057	41.7622	10.3429	-5.1332	0.3752	0.6175	0.3842	-0.5746
9.89	-9.5059	0.0207	-0.3399	0.0214	-0.0852	0.0057	41.4924	10.3971	-5.0173	0.3754	0.6174	0.3839	-0.5749
9.9	-9.5040	0.0232	-0.3189	0.0175	-0.0721	0.0062	41.5761	10.4005	-4.9032	0.3755	0.6173	0.3836	-0.5751
9.91	-9.5121	0.0326	-0.3068	0.0204	-0.0732	0.0013	41.7111	10.1261	-5.0215	0.3756	0.6172	0.3834	-0.5754
9.92	-9.5033	0.0396	-0.3117	0.0198	-0.0724	0.0099	41.7907	10.4369	-5.0794	0.3758	0.6171	0.3831	-0.5756
9.93	-9.4820	0.0431	-0.2817	0.0154	-0.0743	0.0058	41.5835	10.2242	-5.2766	0.3759	0.6169	0.3828	-0.5758
9.94	-9.4983	0.0525	-0.2753	0.0033	-0.0699	-0.0013	41.6259	10.3676	-5.0922	0.3761	0.6168	0.3826	-0.5760
9.95	-9.4956	0.0566	-0.2897	0.0087	-0.0716	-0.0091	41.5539	10.2115	-5.2328	0.3762	0.6166	0.3824	-0.5762
9.96	-9.5035	0.0466	-0.2550	0.0112	-0.0706	-0.0054	41.7003	10.0229	-5.1991	0.3763	0.6165	0.3821	-0.5765
9.97	-9.4757	0.0473	-0.2447	-0.0015	-0.0712	-0.0075	41.8059	10.1952	-5.1947	0.3765	0.6163	0.3820	-0.5766
9.98	-9.4893	0.0497	-0.2196	0.0073	-0.0661	-0.0037	41.7058	10.4951	-5.3151	0.3766	0.6162	0.3818	-0.5768
9.99	-9.4637	0.0443	-0.2440	0.0063	-0.0627	0.0002	41.5030	10.3359	-5.4186	0.3767	0.6161	0.3816	-0.5770
10	-9.4051	0.0357	-0.2239	0.0076	-0.0676	0.0019	41.6546	10.1000	-5.3801	0.3769	0.6159	0.3813	-0.5772
10.01	-9.4622	0.0361	-0.1608	0.0081	-0.0433	-0.0044	41.9045	10.2135	-5.3978	0.3770	0.6158	0.3811	-0.5774
10.02	-9.5245	0.0415	-0.2151	0.0032	-0.0369	-0.0057	41.8646	10.0354	-5.3772	0.3771	0.6158	0.3810	-0.5775
10.03	-9.4985	0.0334	-0.2117	0.0039	-0.0481	-0.0041	41.8190	10.1180	-5.7030	0.3772	0.6157	0.3809	-0.5776
10.04	-9.4584	0.0248	-0.1466	0.0116	-0.0494	-0.0057	41.5599	9.9922	-5.5324	0.3772	0.6156	0.3807	-0.5778
10.05	-9.5041	0.0186	-0.1770	-0.0005	-0.0315	0.0087	41.6933	9.9857	-5.3620	0.3774	0.6156	0.3805	-0.5778
10.06	-9.4679	0.0302	-0.2395	0.0179	-0.0209	0.0155	41.7018	10.2097	-5.4030	0.3774	0.6156	0.3803	-0.5778
10.07	-9.4222	0.0552	-0.1745	0.0193	-0.0331	0.0203	41.6484	9.9646	-5.3826	0.3775	0.6157	0.3800	-0.5779
10.08	-9.4169	0.0781	-0.1820	0.0155	-0.0140	0.0145	41.8085	10.0787	-5.3889	0.3776	0.6157	0.3799	-0.5779
10.09	-9.4420	0.0945	-0.2393	0.0225	-0.0050	0.0115	41.6276	10.0782	-5.3931	0.3776	0.6158	0.3797	-0.5780
10.1	-9.4527	0.0926	-0.2363	0.0163	-0.0036	0.0030	41.6738	9.9563	-5.3770	0.3776	0.6159	0.3795	-0.5780
10.11	-9.4634	0.0904	-0.2097	0.0123	-0.0066	0.0081	41.9758	10.2580	-5.4143	0.3777	0.6160	0.3794	-0.5780
10.12	-9.5010	0.0994	-0.2273	0.0199	0.0119	0.0007	41.6472	10.1866	-5.2935	0.3776	0.6161	0.3793	-0.5779
10.13	-9.5034	0.1193	-0.2593	0.0201	0.0025	-0.0014	41.5992	9.9344	-5.1936	0.3776	0.6162	0.3791	-0.5779
10.14	-9.5014	0.1276	-0.2437	0.0194	0.0007	0.0019	41.5979	9.8844	-5.5183	0.3776	0.6163	0.3790	-0.5779
10.15	-9.4984	0.1519	-0.2503	0.0194	0.0095	-0.0007	41.8666	9.9697	-5.3789	0.3775	0.6164	0.3789	-0.5779
10.16	-9.5425	0.1649	-0.2503	0.0192	0.0082	-0.0026	41.8711	10.0211	-5.4011	0.3775	0.6165	0.3788	-0.5779
10.17	-9.5580	0.1674	-0.2673	0.0057	0.0108	-0.0080	41.6088	9.9440	-5.3504	0.3775	0.6166	0.3787	-0.5779
10.18	-9.5692	0.1594	-0.2480	0.0047	0.0062	-0.0033	41.8082	9.8985	-5.2885	0.3775	0.6166	0.3787	-0.5778
10.19	-9.5855	0.1552	-0.2565	0.0153	0.0049	-0.0035	41.9827	9.8938	-5.6110	0.3774	0.6167	0.3786	-0.5778
10.2	-9.5852	0.1617	-0.2901	0.0026	-0.0029	-0.0032	41.8263	9.9317	-5.4250	0.3775	0.6168	0.3785	-0.5778
10.21	-9.5307	0.1715	-0.2782	0.0029	-0.0006	-0.0029	41.7556	9.8234	-5.5504	0.3775	0.6168	0.3784	-0.5778
10.22	-9.5982	0.1822	-0.2383	-0.0077	0.0045	-0.0017	41.8191	9.6658	-5.5139	0.3775	0.6168	0.3784	-0.5778
10.23	-9.5860	0.1808	-0.3364	-0.0055	0.0035	0.0015	42.0057	9.8615	-5.3577	0.3776	0.6169	0.3783	-0.5777
10.24	-9.5362	0.1627	-0.2915	-0.0044	-0.0208	-0.0070	41.7577	9.7750	-5.3919	0.3776	0.6169	0.3783	-0.5777
10.25	-9.5550	0.1574	-0.2324	-0.0079	-0.0178	-0.0040	41.8848	10.0783	-5.3844	0.3777	0.6168	0.3782	-0.5778
10.26	-9.5648	0.1524	-0.2960	-0.0080	-0.0129	-0.0007	41.6889	10.0001	-5.3791	0.3778	0.6168	0.3781	-0.5778
10.27	-9.5400	0.1710	-0.2615	-0.0056	-0.0379	0.0023	41.6118	9.9017	-5.5020	0.3779	0.6168	0.3780	-0.5778
10.28	-9.5303	0.1831	-0.2030	-0.0029	-0.0271	0.0008	41.9474	10.0040	-5.2916	0.3780	0.6167	0.3779	-0.5779
10.29	-9.5267	0.1919	-0.2493	-0.0043	-0.0131	-0.0080	42.2928	10.0506	-5.1182	0.3781	0.6167	0.3778	-0.5779
10.3	-9.5264	0.1946	-0.2424	-0.0038	-0.0204	-0.0072	42.0902	9.9883	-5.2068	0.3781	0.6167	0.3776	-0.5780
10.31	-9.5058	0.1846	-0.2250	-0.0103	-0.0134	-0.0075	41.3934	9.7589	-5.6882	0.3782	0.6167	0.3776	-0.5780
10.32	-9.4948	0.1911	-0.2296	-0.0042	-0.0083	-0.0065	41.3068	9.8943	-5.4953	0.3782	0.6167	0.3775	-0.5780
10.33	-9.5174	0.1847	-0.2354	-0.0087	0.0005	-0.0082	41.3662	9.8034	-5.4306	0.3783	0.6167	0.3775	-0.5780
10.34	-9.5237	0.1888	-0.2528	-0.0107	0.0021	-0.0079	41.2672	9.7213	-5.4578	0.3783	0.6167	0.3775	-0.5779
10.35	-9.5329	0.1907	-0.2502	-0.0063	-0.0064	-0.0109	41.1882	9.8261	-5.6008	0.3784	0.6167	0.3775	-0.5779
10.36	-9.5450	0.2005	-0.2453	-0.0085	-0.0127	-0.0132	41.3650	9.7761	-5.6495	0.3784	0.6167	0.3774	-0.5779
10.37	-9.5501	0.2008	-0.2422	-0.0104	-0.0151	-0.0128	41.4581	9.5201	-5.6326	0.3785	0.6167	0.3774	-0.5780
10.38	-9.5395	0.1938	-0.2511	-0.0085	-0.0126	-0.0124	41.4534	9.3619	-5.5025	0.3785	0.6166	0.3774	-0.5780
10.39	-9.5200	0.1917	-0.2474	-0.0180	-0.0161	-0.0116	41.4829	9.4798	-5.4252	0.3786	0.6166	0.3773	-0.5780
10.4	-9.5089	0.1848	-0.2307	-0.0238	-0.0193	-0.0150	41.6463	9.4864	-5.7458	0.3787	0.6165	0.3773	-0.5780
10.41	-9.5038	0.1831	-0.2411	-0.0272	-0.0099	-0.0083	41.6360	9.7685	-5.6144	0.3788	0.6165	0.3774	-0.5780
10.42	-9.5092	0.1797	-0.2382	-0.0286	-0.0107	-0.0076	41.6377	9.5577	-5.5242	0.3790	0.6164	0.3774	-0.5779
10.43	-9.5239	0.1819	-0.2319	-0.0286	-0.0091	-0.0091	41.4394	9.5498	-5.5288	0.3791	0.6164	0.3774	-0.5779
10.44	-9.5330	0.1789	-0.2414	-0.0293	-0.0145	-0.0109	41.5546	9.5219	-5.6293	0.3792	0.6163	0.3774	-0.5779
10.45	-9.5139	0.1673	-0.2459	-0.0307	-0.0078	-0.0096	41.5363	9.6772	-5.5266	0.3793	0.6163	0.3774	-0.5778
10.46	-9.5094	0.1686	-0.2207	-0.0286	-0.0109	-0.0068	41.4386	9.7101	-5.5583	0.3794	0.6162	0.3774	-0.5778
10.47	-9.5103	0.1623	-0.2314	-0.0311	-0.0033	-0.0188	41.4409	9.7916	-5.4780	0.3795	0.6161	0.3775	-0.5778
10.48	-9.5039	0.1624	-0.2327	-0.0216	-0.0006	-0.0149	41.1413	9.8078	-5.4223	0.3796	0.6161	0.3775	-0.5777
10.49	-9.4998	0.1646	-0.2248	-0.0224	0.0020	-0.0204	41.1305	9.8206	-5.6240	0.3796	0.6161	0.3776	-0.5777
10.5	-9.5052	0.1671	-0.2320	-0.0234	0.0056	-0.0097	41.5910	9.9291	-5.5926	0.3797	0.6161	0.3776	-0.5776
10.51	-9.4968	0.1678	-0.2404	-0.0236	0.0071	-0.0112	41.3970	9.8696	-5.5107	0.3798	0.6161	0.3777	-0.5775
10.52	-9.4993	0.1810	-0.2293	-0.0279	0.0105	-0.0124	41.1496	9.9170	-5.6865	0.3799	0.6161	0.3777	-0.5775
10.53	-9.5123	0.1854	-0.2323	-0.0114	0.0186	-0.0161	41.2327	9.9908	-5.2900	0.3799	0.6161	0.3778	-0.5774
10.54	-9.5062	0.2010	-0.2482	-0.0203	0.0093	-0.0172	41.3569	9.7518	-5.3308	0.3799	0.6162	0.3778	-0.5773
10.55	-9.5027	0.2171	-0.2408	-0.0086	0.0099	-0.0090	41.4526	9.6055	-5.3658	0.3799	0.6162	0.3778	-0.5773
10.56	-9.5033	0.2233	-0.2427	-0.0055	0.0124	-0.0068	41.5991	9.7744	-5.3629	0.3799	0.6162	0.3778	-0.5772
10.57	-9.4941	0.2412	-0.2583	-0.0160	0.0115	-0.0181	41.4618	9.6229	-5.6810	0.3799	0.6163	0.3779	-0.5771
10.58	-9.4849	0.2609	-0.2414	-0.0239	0.0157	-0.0165	41.5361	9.4332	-5.5203	0.3800	0.6163	0.3779	-0.5770
10.59	-9.4791	0.2563	-0.2460	-0.0287	0.0164	-0.0277	41.5451	9.4637	-5.4664	0.3800	0.6163	0.3781	-0.5770
10.6	-9.5045	0.3101	-0.2438	-0.0336	0.0221	-0.0292	41.5739	9.7213	-5.5187	0.3800	0.6163	0.3782	-0.5769
10.61	-9.5193	0.2974	-0.2590	-0.0552	0.0201	-0.0310	41.4613	9.6686	-5.4288	0.3801	0.6162	0.3784	-0.5767
10.62	-9.5107	0.2887	-0.2693	-0.0632	0.0264	-0.0324	41.5628	9.5904	-5.4495	0.3802	0.6162	0.3787	-0.5766
10.63	-9.5359	0.2972	-0.2450	-0.0730	0.0264	-0.0254	41.3056	9.8940	-5.3650	0.3803	0.6161	0.3789	-0.5764
10.64	-9.5444	0.2757	-0.2949	-0.0789	0.0395	-0.0203	41.3227	9.6763	-5.4633	0.3804	0.6161	0.3792	-0.5761
10.65	-9.5578	0.2729	-0.2889	-0.0859	0.0335	-0.0132	41.3788	9.6585	-5.2191	0.3806	0.6160	0.3795	-0.5758
10.66	-9.5732	0.2608	-0.2923	-0.0904	0.0323	-0.0224	41.4702	9.9461	-5.4007	0.3808	0.6160	0.3798	-0.5756
10.67	-9.5708	0.2361	-0.3196	-0.0957	0.0298	-0.0169	41.4399	9.7386	-5.3171	0.3811	0.6159	0.3801	-0.5753
10.68	-9.5691	0.2192	-0.3083	-0.1047	0.0177	-0.0221	41.3302	9.9143	-5.2491	0.3813	0.6158	0.3804	-0.5751
10.69	-9.5873	0.2041	-0.3016	-0.1058	0.0161	-0.0262	41.4705	9.8005	-5.2852	0.3816	0.6156	0.3808	-0.5748
10.7	-9.5915	0.1814	-0.3214	-0.1040	0.0203	-0.0244	41.4664	9.8260	-5.2479	0.3818	0.6155	0.3811	-0.5746
10.71	-9.5683	0.1553	-0.3067	-0.1056	-0.0066	-0.0231	41.2811	10.0595	-5.3082	0.3821	0.6153	0.3814	-0.5744
10.72	-9.5537	0.1374	-0.2712	-0.0891	0.0046	-0.0215	41.1220	9.8641	-5.1808	0.3824	0.6151	0.3817	-0.5743
10.73	-9.5522	0.1287	-0.2848	-0.0805	-0.0003	-0.0243	41.4269	10.0168	-5.1867	0.3826	0.6149	0.3819	-0.5741
10.74	-9.5441	0.1196	-0.2743	-0.0818	-0.0138	-0.0177	41.4348	9.8233	-5.2761	0.3829	0.6148	0.3821	-0.5740
10.75	-9.5246	0.1157	-0.2500	-0.0768	-0.0125	-0.0260	41.7434	9.4733	-5.2861	0.3831	0.6146	0.3823	-0.5739
10.76	-9.5146	0.1088	-0.2507	-0.0646	-0.0103	-0.0267	41.8700	9.4413	-5.0936	0.3833	0.6144	0.3825	-0.5738
10.77	-9.5187	0.1029	-0.2541	-0.0549	-0.0079	-0.0312	41.4854	9.5768	-4.9600	0.3834	0.6143	0.3826	-0.5738
10.78	-9.5064	0.1000	-0.2646	-0.0531	0.0007	-0.0338	41.8779	9.8006	-4.9954	0.3835	0.6142	0.3828	-0.5737
10.79	-9.5059	0.0975	-0.2567	-0.0392	0.0035	-0.0324	42.1677	9.8197	-5.0050	0.3836	0.6141	0.3830	-0.5737
10.8	-9.5233	0.0992	-0.2652	-0.0290	0.0051	-0.0330	42.1197	9.7418	-5.0805	0.3835	0.6141	0.3830	-0.5737
10.81	-9.5183	0.1097	-0.2783	-0.0293	0.0063	-0.0327	41.9617	9.8366	-5.2026	0.3836	0.6140	0.3832	-0.5736
10.82	-9.5278	0.1194	-0.2697	-0.0298	0.0041	-0.0321	41.9939	9.7694	-4.9588	0.3836	0.6140	0.3833	-0.5736
10.83	-9.5363	0.1225	-0.2873	-0.0245	0.0086	-0.0315	42.0139	9.8818	-5.2153	0.3836	0.6139	0.3834	-0.5736
10.84	-9.5306	0.1387	-0.2921	-0.0138	0.0042	-0.0322	41.7477	9.9864	-5.0929	0.3836	0.6139	0.3835	-0.5735
10.85	-9.5320	0.1445	-0.2813	-0.0068	-0.0033	-0.0325	41.8797	9.8952	-5.0318	0.3836	0.6139	0.3835	-0.5736
10.86	-9.5470	0.1518	-0.2919	-0.0116	-0.0011	-0.0326	41.8182	10.0409	-5.1588	0.3835	0.6138	0.3836	-0.5736
10.87	-9.5395	0.1544	-0.2889	-0.0245	-0.0066	-0.0329	41.8812	9.8602	-5.0873	0.3836	0.6138	0.3836	-0.5736
10.88	-9.5188	0.1544	-0.2816	-0.0225	-0.0078	-0.0349	41.9929	10.1399	-5.1450	0.3836	0.6137	0.3837	-0.5736
10.89	-9.5184	0.1589	-0.2825	-0.0081	-0.0032	-0.0321	41.8538	9.9968	-5.2463	0.3836	0.6136	0.3838	-0.5736
10.9	-9.5470	0.1640	-0.2858	-0.0094	-0.0039	-0.0342	41.9112	9.9945	-5.1294	0.3835	0.6136	0.3838	-0.5737
10.91	-9.4825	0.1629	-0.2930	-0.0110	-0.0107	-0.0381	41.8825	9.8860	-5.0131	0.3835	0.6135	0.3839	-0.5737
10.92	-9.4951	0.1520	-0.2173	-0.0127	-0.0124	-0.0342	41.8897	9.7903	-5.1444	0.3835	0.6134	0.3839	-0.5738
10.93	-9.5631	0.1485	-0.2556	-0.0248	0.0067	-0.0385	41.7021	10.0109	-5.0912	0.3835	0.6134	0.3840	-0.5737
10.94	-9.5565	0.1304	-0.2997	-0.0206	0.0006	-0.0362	41.7852	9.8918	-5.2091	0.3835	0.6133	0.3841	-0.5737
10.95	-9.5111	0.1250	-0.2441	-0.0271	-0.0106	-0.0325	41.9281	9.8047	-5.2104	0.3836	0.6132	0.3842	-0.5738
10.96	-9.5117	0.1115	-0.2430	-0.0202	-0.0005	-0.0329	41.8468	9.7819	-5.1948	0.3836	0.6132	0.3843	-0.5738
10.97	-9.5283	0.0989	-0.2755	-0.0131	0.0127	-0.0332	41.9969	9.6675	-5.2224	0.3835	0.6132	0.3844	-0.5737
10.98	-9.4948	0.1164	-0.2792	-0.0207	0.0122	-0.0315	41.8655	9.9232	-5.1010	0.3835	0.6132	0.3845	-0.5737
10.99	-9.4715	0.1269	-0.2753	-0.0195	0.0058	-0.0274	41.9408	10.1211	-5.0142	0.3835	0.6131	0.3846	-0.5737
11	-9.4696	0.1220	-0.2940	-0.0231	0.0129	-0.0298	41.9500	10.0061	-5.2196	0.3835	0.6131	0.3847	-0.5736
11.01	-9.4641	0.1139	-0.3182	-0.0267	0.0164	-0.0337	41.8526	9.9763	-5.1490	0.3835	0.6131	0.3848	-0.5735
11.02	-9.4887	0.0974	-0.3024	-0.0206	0.0224	-0.0308	42.0207	9.8974	-4.8757	0.3835	0.6131	0.3849	-0.5735
11.03	-9.5350	0.0908	-0.3226	-0.0140	0.0315	-0.0323	41.8049	10.1672	-4.8529	0.3834	0.6132	0.3851	-0.5734
11.04	-9.5668	0.0882	-0.3495	-0.0078	0.0297	-0.0315	41.8254	9.8962	-5.0359	0.3833	0.6132	0.3852	-0.5733
11.05	-9.5623	0.0894	-0.3398	-0.0036	0.0243	-0.0339	41.6942	9.9787	-5.0112	0.3833	0.6133	0.3852	-0.5732
11.06	-9.5506	0.1007	-0.3240	-0.0030	0.0181	-0.0368	41.7411	10.0991	-5.0534	0.3832	0.6133	0.3853	-0.5732
11.07	-9.5502	0.1139	-0.3266	-0.0041	0.0186	-0.0419	41.8248	10.0516	-5.1522	0.3831	0.6133	0.3854	-0.5732
11.08	-9.5613	0.1207	-0.3436	0.0013	0.0196	-0.0469	41.7944	10.1409	-5.0414	0.3829	0.6133	0.3855	-0.5732
11.09	-9.5409	0.1041	-0.3520	0.0057	0.0202	-0.0514	41.8113	10.1963	-5.0082	0.3828	0.6134	0.3856	-0.5732
11.1	-9.5277	0.0629	-0.3470	0.0085	0.0178	-0.0496	41.6691	10.0911	-4.9326	0.3826	0.6134	0.3857	-0.5732
11.11	-9.5396	0.0379	-0.3319	0.0197	0.0140	-0.0395	41.7847	10.1334	-4.9139	0.3824	0.6134	0.3857	-0.5733
11.12	-9.5576	0.0426	-0.3519	0.0235	0.0237	-0.0434	41.8903	10.1673	-5.0453	0.3822	0.6135	0.3858	-0.5733
11.13	-9.5297	0.0389	-0.3774	0.0207	0.0171	-0.0437	41.9113	10.0756	-5.1053	0.3820	0.6136	0.3858	-0.5733
11.14	-9.5344	0.0459	-0.3239	0.0287	0.0097	-0.0458	42.0109	10.1715	-4.8601	0.3819	0.6136	0.3858	-0.5734
11.15	-9.5729	0.0651	-0.3357	0.0345	0.0191	-0.0522	41.9597	9.9523	-5.0396	0.3816	0.6137	0.3858	-0.5735
11.16	-9.5416	0.0774	-0.3727	0.0373	0.0120	-0.0539	42.0155	10.0882	-5.0195	0.3814	0.6137	0.3858	-0.5736
11.17	-9.5542	0.0678	-0.3243	0.0424	0.0044	-0.0604	41.6788	10.2015	-5.0360	0.3811	0.6138	0.3858	-0.5738
11.18	-9.5562	0.0695	-0.3415	0.0426	0.0041	-0.0633	41.8424	10.2765	-5.0295	0.3808	0.6138	0.3858	-0.5739
11.19	-9.5427	0.0701	-0.3385	0.0404	-0.0106	-0.0637	41.9779	10.1593	-5.0312	0.3805	0.6138	0.3858	-0.5741
11.2	-9.5097	0.0932	-0.3060	0.0442	-0.0074	-0.0546	42.0286	10.2523	-5.0290	0.3803	0.6138	0.3858	-0.5743
11.21	-9.5115	0.1185	-0.3031	0.0328	-0.0048	-0.0544	41.8542	10.1218	-5.0306	0.3801	0.6138	0.3858	-0.5745
11.22	-9.5121	0.1215	-0.3192	0.0252	0.0012	-0.0514	41.6403	10.2327	-5.0289	0.3799	0.6138	0.3858	-0.5746
11.23	-9.5227	0.1308	-0.3026	0.0153	0.0100	-0.0549	41.8528	10.2673	-5.0473	0.3797	0.6138	0.3858	-0.5747
11.24	-9.5304	0.1290	-0.3234	0.0009	0.0135	-0.0526	41.6572	10.3323	-4.7620	0.3796	0.6138	0.3860	-0.5747
11.25	-9.5256	0.1167	-0.3232	-0.0059	0.0082	-0.0474	41.7757	10.2016	-4.9986	0.3795	0.6137	0.3861	-0.5747
11.26	-9.5306	0.0982	-0.3149	-0.0281	0.0155	-0.0495	41.5825	10.3457	-4.9861	0.3794	0.6137	0.3862	-0.5747
11.27	-9.5447	0.0799	-0.3377	-0.0274	0.0181	-0.0436	41.7806	10.3331	-4.8070	0.3794	0.6136	0.3864	-0.5746
11.28	-9.5395	0.0601	-0.3469	-0.0390	0.0182	-0.0423	41.9032	10.3407	-4.7341	0.3794	0.6136	0.3866	-0.5746
11.29	-9.5364	0.0323	-0.3361	-0.0577	0.0105	-0.0337	42.2054	10.3633	-4.5709	0.3795	0.6135	0.3868	-0.5745
11.3	-9.5537	0.0139	-0.3397	-0.0515	0.0105	-0.0332	42.2265	10.4789	-4.7937	0.3795	0.6135	0.3869	-0.5744
11.31	-9.5555	0.0094	-0.3578	-0.0441	0.0081	-0.0331	41.9835	10.3129	-5.1978	0.3795	0.6134	0.3871	-0.5743
11.32	-9.5481	-0.0186	-0.3478	-0.0492	-0.0041	-0.0284	41.9886	10.2061	-5.0509	0.3796	0.6133	0.3872	-0.5743
11.33	-9.5600	-0.0095	-0.3338	-0.0471	-0.0005	-0.0265	41.6346	10.2513	-5.0889	0.3797	0.6132	0.3873	-0.5742
11.34	-9.5667	-0.0047	-0.3534	-0.0521	-0.0041	-0.0275	41.6647	10.2862	-4.9456	0.3798	0.6131	0.3875	-0.5742
11.35	-9.5573	-0.0054	-0.3500	-0.0332	-0.0141	-0.0297	41.6780	10.4449	-4.8907	0.3799	0.6130	0.3876	-0.5741
11.36	-9.5496	-0.0014	-0.3254	-0.0301	-0.0105	-0.0318	41.8245	10.2949	-5.0490	0.3800	0.6129	0.3877	-0.5742
11.37	-9.5402	-0.0089	-0.3299	-0.0305	-0.0113	-0.0304	41.9318	10.4486	-4.7607	0.3801	0.6128	0.3877	-0.5742
11.38	-9.5344	-0.0062	-0.3303	-0.0279	-0.0073	-0.0338	41.9333	10.4496	-4.8257	0.3801	0.6127	0.3878	-0.5742
11.39	-9.5309	-0.0031	-0.3149	-0.0291	-0.0114	-0.0306	41.5954	10.3788	-4.8997	0.3802	0.6126	0.3879	-0.5742
11.4	-9.5130	-0.0046	-0.3138	-0.0296	-0.0107	-0.0328	41.5730	10.3719	-4.9039	0.3802	0.6125	0.3880	-0.5742
11.41	-9.5124	0.0036	-0.3129	-0.0291	-0.0087	-0.0330	41.5591	10.6676	-4.6847	0.3803	0.6124	0.3881	-0.5742
11.42	-9.5105	0.0099	-0.3170	-0.0229	-0.0045	-0.0329	41.6140	10.3091	-4.8600	0.3803	0.6124	0.3882	-0.5742
11.43	-9.5232	0.0152	-0.3127	-0.0261	-0.0026	-0.0317	41.6615	10.4565	-5.0669	0.3803	0.6123	0.3883	-0.5742
11.44	-9.5258	0.0169	-0.3117	-0.0266	-0.0017	-0.0330	41.7436	10.6331	-4.7684	0.3804	0.6122	0.3884	-0.5742
11.45	-9.5187	0.0221	-0.3091	-0.0268	-0.0062	-0.0326	41.8531	10.6058	-4.7267	0.3804	0.6122	0.3885	-0.5742
11.46	-9.5143	0.0188	-0.3040	-0.0245	0.0000	-0.0361	41.8684	10.4535	-4.9474	0.3804	0.6121	0.3886	-0.5741
11.47	-9.5166	0.0121	-0.3066	-0.0297	-0.0067	-0.0366	41.9729	10.4707	-4.8381	0.3804	0.6120	0.3887	-0.5741
11.48	-9.4986	-0.0013	-0.3166	-0.0291	-0.0028	-0.0408	41.8157	10.6564	-5.0246	0.3805	0.6119	0.3888	-0.5741
11.49	-9.4946	-0.0267	-0.3002	-0.0283	-0.0063	-0.0384	41.8621	10.5568	-4.9372	0.3805	0.6118	0.3889	-0.5742
11.5	-9.5066	-0.0376	-0.2959	-0.0328	0.0013	-0.0429	41.8007	10.3301	-5.0711	0.3805	0.6117	0.3891	-0.5741
11.51	-9.5106	-0.0190	-0.3231	-0.0314	0.0107	-0.0460	41.6371	10.1019	-4.9767	0.3805	0.6117	0.3892	-0.5741
11.52	-9.5266	-0.0426	-0.3148	-0.0408	0.0096	-0.0421	41.7797	10.4489	-4.9871	0.3805	0.6116	0.3894	-0.5740
11.53	-9.5207	-0.0771	-0.3204	-0.0366	0.0044	-0.0424	41.7229	10.5928	-5.0986	0.3805	0.6115	0.3896	-0.5740
