time	acceleration_x	acceleration_y	acceleration_z	gyroscope_x	gyroscope_y	gyroscope_z	magnetometer_x	magnetometer_y	magnetometer_z	quaternion_w	quaternion_x	quaternion_y	quaternion_z
0	-0.5324	-9.3023	-2.3029	0.0241	-0.0104	0.0140	-25.5394	10.4070	10.1251	0.1076	-0.0914	0.7827	-0.6062
0.01	-0.5455	-9.3081	-2.3158	0.0122	-0.0074	0.0116	-25.6033	10.2955	10.2512	0.1076	-0.0914	0.7827	-0.6062
0.02	-0.5444	-9.3055	-2.3123	0.0192	-0.0061	0.0121	-25.6684	10.1397	10.1134	0.1076	-0.0914	0.7827	-0.6062
0.03	-0.5479	-9.2957	-2.3077	0.0187	-0.0057	0.0105	-25.5141	10.4689	10.0297	0.1076	-0.0914	0.7827	-0.6062
0.04	-0.5537	-9.3064	-2.3180	0.0144	-0.0069	0.0060	-25.6125	10.3791	9.9973	0.1076	-0.0914	0.7827	-0.6061
0.05	-0.5513	-9.3105	-2.3150	0.0192	-0.0084	0.0101	-25.7874	10.3194	10.1046	0.1076	-0.0914	0.7828	-0.6062
0.06	-0.5523	-9.3052	-2.3076	0.0238	-0.0097	0.0148	-25.5322	10.3285	10.1009	0.1076	-0.0914	0.7827	-0.6061
0.07	-0.5465	-9.3109	-2.3101	0.0225	-0.0109	0.0150	-25.4798	10.5641	10.1425	0.1077	-0.0914	0.7827	-0.6062
0.08	-0.5364	-9.3076	-2.3127	0.0216	-0.0057	0.0056	-25.7679	10.5629	10.1668	0.1076	-0.0914	0.7827	-0.6061
0.09	-0.5283	-9.3059	-2.3088	0.0200	-0.0085	0.0076	-25.8223	10.4197	10.0808	0.1076	-0.0914	0.7827	-0.6062
0.1	-0.5220	-9.3056	-2.3123	0.0237	-0.0106	0.0024	-25.6951	10.3208	10.1310	0.1076	-0.0914	0.7827	-0.6061
0.11	-0.5222	-9.3045	-2.3110	0.0164	-0.0064	0.0082	-25.7363	10.4821	9.8527	0.1076	-0.0914	0.7827	-0.6062
0.12	-0.5296	-9.3074	-2.3127	0.0203	-0.0059	0.0054	-25.8302	10.4709	10.0582	0.1076	-0.0914	0.7827	-0.6062
0.13	-0.5366	-9.3059	-2.3088	0.0194	-0.0020	0.0057	-25.7115	10.3163	10.2216	0.1075	-0.0914	0.7827	-0.6061
0.14	-0.5493	-9.3028	-2.3106	0.0185	-0.0048	0.0089	-25.6320	10.2663	10.0871	0.1075	-0.0914	0.7828	-0.6062
0.15	-0.5655	-9.3059	-2.3138	0.0263	-0.0065	0.0061	-25.7651	10.2314	10.1421	0.1075	-0.0914	0.7827	-0.6062
0.16	-0.5736	-9.3067	-2.3146	0.0174	-0.0130	0.0066	-25.8346	10.3283	10.0289	0.1075	-0.0914	0.7828	-0.6062
0.17	-0.5801	-9.3031	-2.3005	0.0163	-0.0110	0.0042	-25.6030	10.3339	10.0292	0.1075	-0.0915	0.7827	-0.6061
0.18	-0.5840	-9.3015	-2.3027	0.0256	-0.0141	0.0125	-25.4490	10.3652	9.8997	0.1075	-0.0915	0.7827	-0.6062
0.19	-0.5776	-9.3020	-2.2967	0.0161	-0.0129	0.0093	-25.6351	10.2808	10.0261	0.1076	-0.0915	0.7827	-0.6061
0.2	-0.5680	-9.3045	-2.2920	0.0103	-0.0104	0.0106	-25.6246	10.2518	9.9622	0.1076	-0.0915	0.7827	-0.6061
0.21	-0.5515	-9.3092	-2.2973	0.0150	-0.0090	0.0059	-25.6334	10.2524	9.9292	0.1076	-0.0915	0.7828	-0.6061
0.22	-0.5430	-9.3037	-2.2951	0.0180	-0.0113	0.0103	-25.7634	10.2793	10.0900	0.1076	-0.0915	0.7828	-0.6061
0.23	-0.5380	-9.3039	-2.2856	0.0171	-0.0088	0.0105	-25.6187	10.3994	10.1330	0.1076	-0.0915	0.7828	-0.6061
0.24	-0.5280	-9.3090	-2.2941	0.0223	-0.0095	0.0085	-25.7353	10.5416	10.0067	0.1076	-0.0915	0.7827	-0.6060
0.25	-0.5124	-9.3073	-2.3037	0.0221	-0.0096	0.0126	-25.6790	10.2257	10.2566	0.1076	-0.0915	0.7828	-0.6061
0.26	-0.5088	-9.3026	-2.3008	0.0169	-0.0081	0.0113	-25.6607	10.3951	10.1420	0.1076	-0.0915	0.7828	-0.6060
0.27	-0.5146	-9.3092	-2.3101	0.0137	-0.0055	0.0113	-25.7404	10.5629	10.0812	0.1076	-0.0915	0.7828	-0.6060
0.28	-0.5194	-9.3071	-2.3141	0.0166	-0.0052	0.0049	-25.6991	10.3659	10.1410	0.1076	-0.0915	0.7828	-0.6060
0.29	-0.5229	-9.3040	-2.3043	0.0132	-0.0061	0.0052	-25.9826	10.4570	10.0478	0.1075	-0.0915	0.7828	-0.6060
0.3	-0.5293	-9.3024	-2.3082	0.0202	-0.0074	0.0109	-25.8860	10.5285	10.0469	0.1075	-0.0915	0.7829	-0.6060
0.31	-0.5351	-9.3070	-2.3162	0.0194	-0.0076	0.0014	-25.8846	10.3930	10.2144	0.1075	-0.0915	0.7828	-0.6059
0.32	-0.5296	-9.3074	-2.3155	0.0219	-0.0074	0.0049	-25.8704	10.4307	10.2931	0.1075	-0.0915	0.7829	-0.6060
0.33	-0.5245	-9.3056	-2.3135	0.0155	-0.0033	0.0035	-25.9205	10.5216	10.2557	0.1074	-0.0915	0.7829	-0.6060
0.34	-0.5181	-9.3060	-2.3226	0.0140	-0.0100	0.0056	-25.7233	10.4403	10.0941	0.1074	-0.0916	0.7829	-0.6060
0.35	-0.5193	-9.3100	-2.3321	0.0197	-0.0058	0.0056	-25.7301	10.3052	10.1280	0.1074	-0.0916	0.7829	-0.6059
0.36	-0.5196	-9.3032	-2.3351	0.0213	-0.0062	0.0095	-25.4369	10.2702	10.0944	0.1074	-0.0916	0.7829	-0.6059
0.37	-0.5255	-9.3061	-2.3427	0.0179	-0.0094	0.0102	-25.2502	10.4124	10.1968	0.1074	-0.0916	0.7829	-0.6059
0.38	-0.5351	-9.2992	-2.3470	0.0224	-0.0105	0.0132	-25.1050	10.4776	10.1997	0.1074	-0.0915	0.7828	-0.6059
0.39	-0.5437	-9.2993	-2.3527	0.0249	-0.0122	0.0147	-25.3064	10.4258	10.3031	0.1075	-0.0915	0.7829	-0.6060
0.4	-0.5515	-9.3008	-2.3546	0.0196	-0.0174	0.0041	-25.5528	10.4203	10.2953	0.1075	-0.0916	0.7829	-0.6059
0.41	-0.5614	-9.3015	-2.3495	0.0221	-0.0091	0.0118	-25.6115	10.4965	10.0831	0.1075	-0.0916	0.7829	-0.6060
0.42	-0.5602	-9.2976	-2.3392	0.0208	-0.0118	0.0097	-25.6425	10.2371	10.0962	0.1075	-0.0916	0.7828	-0.6059
0.43	-0.5544	-9.3037	-2.3239	0.0254	-0.0101	0.0067	-25.7399	10.3562	9.9978	0.1075	-0.0916	0.7829	-0.6060
0.44	-0.5493	-9.3107	-2.3235	0.0230	-0.0153	0.0128	-25.8383	10.3744	10.1537	0.1075	-0.0916	0.7828	-0.6060
0.45	-0.5293	-9.3098	-2.3082	0.0244	-0.0129	0.0075	-25.6988	10.4561	9.9534	0.1075	-0.0916	0.7828	-0.6060
0.46	-0.5224	-9.3075	-2.2992	0.0225	-0.0089	0.0085	-25.7377	10.4049	10.2514	0.1076	-0.0916	0.7829	-0.6060
0.47	-0.5103	-9.3122	-2.2924	0.0233	-0.0070	0.0112	-25.8110	10.4545	9.9406	0.1075	-0.0916	0.7828	-0.6060
0.48	-0.5053	-9.3103	-2.2884	0.0228	-0.0023	0.0065	-25.7933	10.5592	10.2169	0.1075	-0.0916	0.7829	-0.6061
0.49	-0.5108	-9.3033	-2.2722	0.0234	-0.0035	0.0051	-25.8011	10.2396	10.2210	0.1075	-0.0916	0.7827	-0.6060
0.5	-0.5301	-9.3079	-2.2713	0.0224	-0.0064	0.0068	-25.7837	10.1510	9.8312	0.1075	-0.0916	0.7828	-0.6061
0.51	-0.5491	-9.3110	-2.2696	0.0260	-0.0021	0.0131	-25.8025	10.5265	9.9979	0.1075	-0.0916	0.7828	-0.6061
0.52	-0.5684	-9.3050	-2.2704	0.0213	-0.0057	0.0092	-25.7912	10.3698	10.0536	0.1074	-0.0916	0.7828	-0.6061
0.53	-0.5813	-9.3032	-2.2629	0.0191	-0.0073	0.0155	-25.8146	10.2356	10.2374	0.1075	-0.0915	0.7828	-0.6061
0.54	-0.5989	-9.3089	-2.2715	0.0242	-0.0118	0.0189	-25.6597	10.3874	10.1022	0.1075	-0.0915	0.7828	-0.6061
0.55	-0.5972	-9.3054	-2.2768	0.0235	-0.0144	0.0158	-25.6486	10.2839	10.1744	0.1075	-0.0915	0.7828	-0.6061
0.56	-0.5912	-9.3006	-2.2802	0.0183	-0.0152	0.0086	-25.5532	10.1618	10.1106	0.1076	-0.0915	0.7827	-0.6060
0.57	-0.5732	-9.3069	-2.2851	0.0139	-0.0111	0.0084	-25.5495	10.2993	10.0043	0.1076	-0.0915	0.7828	-0.6061
0.58	-0.5513	-9.3060	-2.2730	0.0206	-0.0096	0.0111	-25.7209	10.1979	10.4642	0.1076	-0.0915	0.7828	-0.6060
0.59	-0.5355	-9.3035	-2.2751	0.0178	-0.0127	0.0059	-25.7296	10.1748	10.3932	0.1076	-0.0916	0.7828	-0.6060
0.6	-0.5225	-9.3079	-2.2837	0.0206	-0.0121	0.0100	-25.7116	10.1672	10.1559	0.1076	-0.0916	0.7828	-0.6060
0.61	-0.5057	-9.3076	-2.2910	0.0201	-0.0119	0.0073	-25.8386	10.2117	10.2114	0.1076	-0.0916	0.7828	-0.6060
0.62	-0.5008	-9.3087	-2.2893	0.0183	-0.0144	0.0065	-25.7379	10.4489	10.3098	0.1076	-0.0916	0.7828	-0.6060
0.63	-0.4993	-9.3078	-2.2857	0.0247	-0.0129	0.0094	-25.7000	10.3435	10.1587	0.1076	-0.0916	0.7827	-0.6060
0.64	-0.5000	-9.3150	-2.2899	0.0195	-0.0080	0.0082	-25.8245	10.3267	10.2086	0.1076	-0.0916	0.7828	-0.6061
0.65	-0.5020	-9.3138	-2.2978	0.0101	-0.0061	0.0088	-25.6495	10.5257	10.2663	0.1076	-0.0916	0.7828	-0.6060
0.66	-0.5099	-9.2991	-2.2828	0.0183	-0.0087	0.0159	-25.8806	10.6426	10.0514	0.1076	-0.0916	0.7829	-0.6060
0.67	-0.5226	-9.3053	-2.2922	0.0167	-0.0022	0.0116	-25.8766	10.3974	10.1986	0.1076	-0.0916	0.7828	-0.6059
0.68	-0.5326	-9.3130	-2.3008	0.0150	-0.0072	0.0136	-25.7975	10.4332	10.1519	0.1076	-0.0916	0.7829	-0.6059
0.69	-0.5429	-9.3044	-2.2963	0.0166	-0.0070	0.0163	-25.7605	10.4225	10.2299	0.1076	-0.0915	0.7829	-0.6059
0.7	-0.5491	-9.3029	-2.3018	0.0230	-0.0072	0.0140	-25.7026	10.4366	10.2974	0.1076	-0.0915	0.7828	-0.6059
0.71	-0.5500	-9.3108	-2.3147	0.0224	-0.0063	0.0144	-25.8133	10.3300	10.1398	0.1077	-0.0915	0.7829	-0.6060
0.72	-0.5511	-9.3060	-2.3201	0.0172	-0.0092	0.0135	-25.9320	10.4804	10.2204	0.1077	-0.0915	0.7829	-0.6059
0.73	-0.5452	-9.3025	-2.3184	0.0238	-0.0160	0.0117	-25.7514	10.3024	10.2855	0.1077	-0.0915	0.7829	-0.6060
0.74	-0.5366	-9.3133	-2.3233	0.0198	-0.0074	0.0142	-25.6442	10.1517	10.2676	0.1077	-0.0914	0.7828	-0.6059
0.75	-0.5287	-9.3093	-2.3201	0.0209	-0.0073	0.0125	-25.4912	10.2007	10.1748	0.1077	-0.0914	0.7829	-0.6059
0.76	-0.5280	-9.2992	-2.3205	0.0191	-0.0119	0.0134	-25.6955	10.1473	10.2088	0.1077	-0.0914	0.7829	-0.6059
0.77	-0.5283	-9.3062	-2.3207	0.0186	-0.0099	0.0126	-25.6494	10.2656	10.1084	0.1077	-0.0914	0.7829	-0.6059
0.78	-0.5283	-9.3123	-2.3252	0.0228	-0.0106	0.0167	-25.5778	10.2530	10.0815	0.1078	-0.0914	0.7829	-0.6059
0.79	-0.5373	-9.3004	-2.3208	0.0195	-0.0124	0.0095	-25.7062	10.2941	10.2534	0.1078	-0.0914	0.7829	-0.6059
0.8	-0.5406	-9.3006	-2.3148	0.0219	-0.0056	0.0127	-25.5096	10.3668	10.2721	0.1078	-0.0914	0.7829	-0.6059
0.81	-0.5519	-9.3095	-2.3203	0.0245	-0.0096	0.0135	-25.9384	10.3302	10.2799	0.1078	-0.0914	0.7828	-0.6059
0.82	-0.5637	-9.3080	-2.3155	0.0230	-0.0066	0.0170	-25.7477	10.3436	10.1312	0.1078	-0.0913	0.7829	-0.6059
0.83	-0.5697	-9.3003	-2.3106	0.0170	-0.0095	0.0138	-25.5664	10.4998	10.2724	0.1078	-0.0913	0.7829	-0.6059
0.84	-0.5747	-9.3033	-2.3194	0.0203	-0.0057	0.0122	-25.8613	10.4969	10.1726	0.1078	-0.0913	0.7829	-0.6059
0.85	-0.5694	-9.3061	-2.3271	0.0239	-0.0118	0.0123	-25.8942	10.6002	10.2843	0.1079	-0.0913	0.7829	-0.6059
0.86	-0.5554	-9.3023	-2.3188	0.0217	-0.0136	0.0107	-25.8827	10.6821	10.3219	0.1079	-0.0913	0.7829	-0.6059
0.87	-0.5395	-9.3011	-2.3166	0.0136	-0.0121	0.0148	-25.6646	10.4980	10.2733	0.1079	-0.0913	0.7829	-0.6059
0.88	-0.5276	-9.3094	-2.3139	0.0140	-0.0106	0.0108	-25.3879	10.5502	10.4830	0.1079	-0.0913	0.7829	-0.6058
0.89	-0.5105	-9.3113	-2.3134	0.0158	-0.0047	0.0099	-25.6194	10.4601	10.3363	0.1079	-0.0913	0.7830	-0.6059
0.9	-0.5006	-9.3025	-2.3010	0.0187	-0.0068	0.0071	-25.6623	10.5076	10.1262	0.1079	-0.0913	0.7829	-0.6058
0.91	-0.4931	-9.3130	-2.3081	0.0206	-0.0114	0.0104	-25.7222	10.5747	10.2403	0.1079	-0.0913	0.7830	-0.6059
0.92	-0.4906	-9.3127	-2.3053	0.0174	-0.0118	0.0148	-25.6510	10.2797	10.1141	0.1079	-0.0913	0.7829	-0.6058
0.93	-0.4909	-9.2991	-2.2869	0.0186	-0.0059	0.0079	-25.4431	10.2909	10.3191	0.1079	-0.0913	0.7830	-0.6058
0.94	-0.4926	-9.3120	-2.2927	0.0205	-0.0091	0.0098	-25.7195	10.4884	10.2147	0.1079	-0.0913	0.7830	-0.6058
0.95	-0.5024	-9.3188	-2.2980	0.0195	-0.0118	0.0139	-25.7376	10.2228	10.0916	0.1079	-0.0913	0.7829	-0.6058
0.96	-0.5108	-9.3045	-2.2886	0.0108	-0.0062	0.0065	-25.7342	10.3424	10.2764	0.1079	-0.0913	0.7830	-0.6058
0.97	-0.5197	-9.3021	-2.2825	0.0208	-0.0067	0.0055	-25.7356	10.3205	10.1763	0.1079	-0.0913	0.7830	-0.6058
0.98	-0.5235	-9.3139	-2.2921	0.0215	-0.0075	0.0104	-25.7245	10.3419	10.1115	0.1079	-0.0913	0.7830	-0.6058
0.99	-0.5235	-9.3066	-2.2954	0.0217	-0.0065	0.0088	-25.7351	10.2419	10.2438	0.1079	-0.0913	0.7829	-0.6057
1	-0.5221	-9.2977	-2.2821	0.0181	-0.0093	0.0107	-25.8265	10.3413	10.2070	0.1079	-0.0913	0.7830	-0.6058
1.01	-0.5172	-9.3117	-2.2958	0.0171	-0.0144	0.0130	-25.6652	10.1566	10.1072	0.1079	-0.0913	0.7830	-0.6058
1.02	-0.5243	-9.3106	-2.3017	0.0183	-0.0075	0.0048	-25.8956	10.2242	10.2162	0.1079	-0.0913	0.7830	-0.6057
1.03	-0.5212	-9.2949	-2.2958	0.0139	-0.0049	0.0080	-25.8958	10.3501	10.3165	0.1079	-0.0913	0.7830	-0.6057
1.04	-0.5204	-9.2977	-2.2942	0.0139	-0.0007	0.0119	-25.7895	10.4308	10.4435	0.1079	-0.0913	0.7830	-0.6057
1.05	-0.5322	-9.3133	-2.3071	0.0177	-0.0049	0.0057	-25.6549	10.3885	10.3137	0.1078	-0.0913	0.7831	-0.6057
1.06	-0.5424	-9.3052	-2.3008	0.0189	-0.0079	0.0093	-25.7185	10.5087	10.3074	0.1078	-0.0913	0.7830	-0.6056
1.07	-0.5612	-9.2965	-2.2984	0.0138	-0.0048	0.0128	-25.9528	10.4698	10.3960	0.1078	-0.0913	0.7831	-0.6057
1.08	-0.5835	-9.2970	-2.3047	0.0152	-0.0006	0.0048	-25.9906	10.3810	10.2542	0.1078	-0.0913	0.7831	-0.6056
1.09	-0.6119	-9.3031	-2.3003	0.0198	-0.0046	0.0088	-25.9130	10.4249	10.1189	0.1078	-0.0913	0.7831	-0.6057
1.1	-0.6329	-9.2954	-2.2921	0.0197	-0.0135	0.0143	-25.7902	10.3922	10.2484	0.1078	-0.0913	0.7831	-0.6056
1.11	-0.6431	-9.2981	-2.2872	0.0129	-0.0145	0.0122	-25.8421	10.4364	10.2939	0.1078	-0.0913	0.7831	-0.6056
1.12	-0.6458	-9.3079	-2.2992	0.0237	-0.0077	0.0128	-25.5763	10.3506	10.1935	0.1078	-0.0913	0.7831	-0.6056
1.13	-0.6413	-9.2972	-2.2976	0.0092	-0.0085	0.0122	-25.6343	10.3240	10.2535	0.1078	-0.0912	0.7831	-0.6055
1.14	-0.6261	-9.2944	-2.2881	0.0144	-0.0108	0.0098	-25.7498	10.3300	10.1016	0.1078	-0.0913	0.7832	-0.6056
1.15	-0.6124	-9.3055	-2.2937	0.0196	-0.0097	0.0080	-25.8737	10.0701	10.1869	0.1078	-0.0913	0.7832	-0.6055
1.16	-0.6056	-9.3034	-2.2874	0.0061	-0.0148	0.0053	-25.8496	10.3293	10.2615	0.1078	-0.0913	0.7833	-0.6055
1.17	-0.5964	-9.2967	-2.2808	0.0131	-0.0120	0.0090	-25.7747	10.3219	10.1052	0.1078	-0.0913	0.7832	-0.6054
1.18	-0.5900	-9.3083	-2.2912	0.0104	-0.0079	0.0064	-25.8591	10.2349	10.1796	0.1078	-0.0913	0.7833	-0.6054
1.19	-0.5766	-9.3069	-2.3009	0.0172	-0.0125	0.0088	-25.7060	10.3865	10.0540	0.1078	-0.0914	0.7833	-0.6054
1.2	-0.5739	-9.2986	-2.3020	0.0116	-0.0154	0.0115	-25.5513	10.2191	10.1320	0.1079	-0.0914	0.7832	-0.6053
1.21	-0.5656	-9.3011	-2.3107	0.0109	-0.0045	0.0047	-25.6590	10.3685	10.2308	0.1078	-0.0914	0.7834	-0.6054
1.22	-0.5590	-9.3068	-2.3270	0.0105	-0.0058	0.0018	-25.8073	10.4177	10.2484	0.1078	-0.0914	0.7833	-0.6053
1.23	-0.5494	-9.3081	-2.3280	0.0077	-0.0128	0.0061	-25.7674	10.4283	10.3397	0.1078	-0.0915	0.7834	-0.6053
1.24	-0.5397	-9.3015	-2.3284	0.0126	-0.0037	0.0017	-25.7109	10.3059	10.2897	0.1077	-0.0915	0.7833	-0.6052
1.25	-0.5302	-9.2997	-2.3356	0.0089	-0.0083	0.0039	-25.8501	10.4735	10.3275	0.1077	-0.0915	0.7834	-0.6052
1.26	-0.5268	-9.3095	-2.3485	0.0192	-0.0097	0.0043	-25.7945	10.4566	10.2690	0.1077	-0.0915	0.7834	-0.6052
1.27	-0.5087	-9.3014	-2.3428	0.0164	-0.0096	0.0015	-25.8314	10.3980	10.1168	0.1077	-0.0916	0.7834	-0.6052
1.28	-0.4953	-9.3008	-2.3420	0.0146	-0.0152	0.0074	-25.7133	10.3302	10.2427	0.1077	-0.0916	0.7835	-0.6052
1.29	-0.4849	-9.3119	-2.3550	0.0200	-0.0180	0.0113	-25.6346	10.3355	10.2139	0.1077	-0.0916	0.7834	-0.6051
1.3	-0.4769	-9.3082	-2.3578	0.0194	-0.0168	0.0083	-25.6788	10.3117	10.2715	0.1078	-0.0916	0.7835	-0.6052
1.31	-0.4786	-9.3044	-2.3448	0.0216	-0.0106	0.0062	-25.5757	10.4245	10.4330	0.1078	-0.0917	0.7834	-0.6051
1.32	-0.4847	-9.3127	-2.3503	0.0103	-0.0074	0.0084	-25.5765	10.3909	10.2630	0.1078	-0.0917	0.7835	-0.6051
1.33	-0.5003	-9.3078	-2.3397	0.0162	-0.0129	0.0058	-25.7254	10.1686	10.2501	0.1078	-0.0917	0.7835	-0.6051
1.34	-0.5095	-9.3010	-2.3295	0.0132	-0.0162	0.0083	-25.7341	10.1530	10.1427	0.1078	-0.0917	0.7835	-0.6051
1.35	-0.5190	-9.3070	-2.3361	0.0088	-0.0068	0.0116	-25.6663	10.2627	10.2306	0.1078	-0.0917	0.7835	-0.6050
1.36	-0.5191	-9.3066	-2.3303	0.0188	-0.0107	0.0075	-25.6176	10.5802	10.4733	0.1078	-0.0917	0.7835	-0.6050
1.37	-0.5143	-9.2995	-2.3170	0.0174	-0.0131	0.0052	-25.2436	10.4094	10.5104	0.1078	-0.0918	0.7835	-0.6050
1.38	-0.5123	-9.3054	-2.3127	0.0230	-0.0142	0.0137	-25.2974	10.4605	10.4166	0.1078	-0.0918	0.7835	-0.6050
1.39	-0.4987	-9.3112	-2.3139	0.0232	-0.0120	0.0083	-25.3565	10.3734	10.3502	0.1078	-0.0918	0.7836	-0.6051
1.4	-0.4968	-9.3044	-2.3103	0.0210	-0.0068	0.0085	-25.6959	10.5260	10.4628	0.1078	-0.0918	0.7835	-0.6050
1.41	-0.4976	-9.3022	-2.2955	0.0220	-0.0064	0.0010	-25.6490	10.9379	10.3270	0.1078	-0.0918	0.7836	-0.6051
1.42	-0.5030	-9.3110	-2.3107	0.0126	-0.0041	0.0098	-25.6132	10.4409	10.3171	0.1078	-0.0918	0.7835	-0.6050
1.43	-0.5086	-9.3124	-2.3086	0.0138	-0.0081	0.0071	-25.8464	10.2910	10.3149	0.1078	-0.0918	0.7835	-0.6050
1.44	-0.5156	-9.2978	-2.3031	0.0216	-0.0119	0.0086	-25.7403	10.3590	10.1900	0.1078	-0.0918	0.7835	-0.6050
1.45	-0.5249	-9.3000	-2.3055	0.0202	-0.0037	0.0090	-25.8890	10.2224	10.3373	0.1077	-0.0918	0.7835	-0.6050
1.46	-0.5288	-9.3142	-2.3129	0.0202	-0.0091	0.0119	-25.8479	10.2589	10.4244	0.1078	-0.0918	0.7836	-0.6051
1.47	-0.5275	-9.3027	-2.2997	0.0192	-0.0065	0.0053	-25.7868	10.4707	10.1293	0.1077	-0.0918	0.7835	-0.6050
1.48	-0.5250	-9.3062	-2.2901	0.0265	-0.0146	0.0118	-25.7424	10.3031	10.2165	0.1078	-0.0918	0.7836	-0.6051
1.49	-0.5312	-9.3094	-2.2986	0.0200	-0.0156	0.0174	-25.6229	10.0216	10.2654	0.1078	-0.0918	0.7835	-0.6050
1.5	-0.5371	-9.3071	-2.2823	0.0203	-0.0118	0.0109	-25.5084	10.2605	10.2257	0.1078	-0.0918	0.7835	-0.6050
1.51	-0.5376	-9.3035	-2.2761	0.0203	-0.0114	0.0114	-25.4812	10.2900	10.2945	0.1078	-0.0918	0.7835	-0.6050
1.52	-0.5421	-9.3075	-2.2800	0.0191	-0.0161	0.0146	-25.6484	10.0084	10.3733	0.1079	-0.0918	0.7835	-0.6050
1.53	-0.5479	-9.3056	-2.2881	0.0218	-0.0101	0.0125	-25.6127	10.3135	10.2097	0.1079	-0.0918	0.7835	-0.6050
1.54	-0.5457	-9.3038	-2.2895	0.0201	-0.0117	0.0134	-25.5265	10.0488	10.1556	0.1079	-0.0918	0.7835	-0.6050
1.55	-0.5473	-9.3060	-2.2945	0.0186	-0.0145	0.0105	-25.7659	10.2077	10.1493	0.1080	-0.0918	0.7835	-0.6050
1.56	-0.5433	-9.3072	-2.2978	0.0198	-0.0127	0.0131	-25.8008	10.2498	10.1697	0.1080	-0.0918	0.7834	-0.6049
1.57	-0.5421	-9.3053	-2.2961	0.0210	-0.0141	0.0122	-25.6693	10.3440	10.1216	0.1080	-0.0918	0.7835	-0.6050
1.58	-0.5409	-9.3042	-2.2940	0.0127	-0.0142	0.0115	-25.7549	10.4335	10.2351	0.1080	-0.0918	0.7835	-0.6050
1.59	-0.5424	-9.3085	-2.2957	0.0077	-0.0080	0.0055	-25.8560	10.3920	10.4212	0.1080	-0.0919	0.7836	-0.6049
1.6	-0.5434	-9.3101	-2.3029	0.0122	-0.0052	0.0068	-25.9823	10.4160	10.4203	0.1080	-0.0919	0.7836	-0.6049
1.61	-0.5503	-9.3028	-2.2941	0.0185	-0.0128	0.0085	-25.8035	10.5018	10.3630	0.1080	-0.0919	0.7836	-0.6049
1.62	-0.5529	-9.3081	-2.2946	0.0154	-0.0124	0.0071	-25.8335	10.4767	10.3225	0.1080	-0.0919	0.7836	-0.6049
1.63	-0.5541	-9.3067	-2.2965	0.0200	-0.0040	0.0041	-25.8886	10.5026	10.2445	0.1080	-0.0919	0.7835	-0.6048
1.64	-0.5591	-9.3027	-2.2888	0.0157	-0.0139	0.0070	-25.7574	10.3704	10.1361	0.1080	-0.0919	0.7836	-0.6049
1.65	-0.5616	-9.2977	-2.2795	0.0102	-0.0110	0.0065	-25.6813	10.4723	10.4303	0.1080	-0.0919	0.7836	-0.6048
1.66	-0.5654	-9.3094	-2.2811	0.0205	-0.0086	0.0107	-25.7861	10.4320	10.3618	0.1080	-0.0920	0.7837	-0.6049
1.67	-0.5629	-9.3065	-2.2899	0.0195	-0.0073	0.0112	-25.7955	9.9938	10.1337	0.1080	-0.0919	0.7836	-0.6048
1.68	-0.5638	-9.2980	-2.2816	0.0190	-0.0107	0.0110	-25.5524	10.1803	10.1802	0.1080	-0.0919	0.7836	-0.6048
1.69	-0.5632	-9.3047	-2.2857	0.0142	-0.0125	0.0076	-25.7125	10.2187	10.0949	0.1080	-0.0920	0.7837	-0.6048
1.7	-0.5598	-9.3091	-2.2915	0.0108	-0.0127	0.0082	-25.6179	10.1249	10.0536	0.1080	-0.0920	0.7836	-0.6047
1.71	-0.5510	-9.3061	-2.2813	0.0175	-0.0185	0.0093	-25.6346	10.3623	10.0695	0.1080	-0.0920	0.7837	-0.6048
1.72	-0.5463	-9.3039	-2.2822	0.0202	-0.0111	0.0115	-25.4633	10.1920	10.3566	0.1080	-0.0920	0.7837	-0.6047
1.73	-0.5340	-9.3160	-2.2991	0.0124	-0.0124	0.0094	-25.5667	10.3285	10.2474	0.1081	-0.0920	0.7837	-0.6047
1.74	-0.5201	-9.3128	-2.2913	0.0177	-0.0147	0.0100	-25.7432	10.3239	10.3234	0.1081	-0.0920	0.7836	-0.6047
1.75	-0.5148	-9.3025	-2.2858	0.0156	-0.0153	0.0111	-25.5865	10.3250	10.4440	0.1081	-0.0921	0.7837	-0.6047
1.76	-0.5107	-9.3065	-2.2956	0.0175	-0.0080	0.0145	-25.6907	10.3220	10.3895	0.1081	-0.0920	0.7837	-0.6047
1.77	-0.5113	-9.3008	-2.2965	0.0117	-0.0090	0.0079	-25.7151	10.3312	10.1492	0.1081	-0.0921	0.7837	-0.6046
1.78	-0.5182	-9.3046	-2.2976	0.0179	-0.0087	0.0084	-25.6830	10.3225	10.1602	0.1081	-0.0921	0.7838	-0.6046
1.79	-0.5250	-9.3139	-2.3083	0.0108	-0.0128	0.0045	-25.9939	10.4585	10.3908	0.1081	-0.0921	0.7838	-0.6046
1.8	-0.5202	-9.3099	-2.3054	0.0145	-0.0156	0.0107	-25.8267	10.4972	10.2336	0.1081	-0.0921	0.7838	-0.6046
1.81	-0.5145	-9.3066	-2.3066	0.0209	-0.0067	0.0097	-25.7662	10.4868	10.2477	0.1081	-0.0921	0.7837	-0.6045
1.82	-0.5151	-9.3078	-2.3136	0.0198	-0.0078	0.0116	-25.9813	10.4845	10.1065	0.1081	-0.0921	0.7838	-0.6046
1.83	-0.5114	-9.3089	-2.3174	0.0073	-0.0083	0.0067	-25.7876	10.4895	10.1951	0.1081	-0.0921	0.7838	-0.6045
1.84	-0.5032	-9.3044	-2.3119	0.0115	-0.0091	0.0106	-25.7858	10.4871	10.2569	0.1081	-0.0921	0.7839	-0.6045
1.85	-0.5059	-9.3054	-2.3080	0.0134	-0.0139	0.0151	-25.7976	10.5001	10.2092	0.1081	-0.0921	0.7838	-0.6045
1.86	-0.5043	-9.3065	-2.3113	0.0115	-0.0141	0.0086	-25.6483	10.3431	10.4081	0.1081	-0.0921	0.7839	-0.6044
1.87	-0.5118	-9.3043	-2.3115	0.0112	-0.0111	0.0150	-25.2946	10.1827	10.5665	0.1082	-0.0921	0.7839	-0.6044
1.88	-0.5209	-9.3096	-2.3093	0.0166	-0.0129	0.0141	-25.0574	10.3956	10.3984	0.1082	-0.0921	0.7839	-0.6043
1.89	-0.5340	-9.3129	-2.3063	0.0122	-0.0099	0.0104	-25.4361	10.2307	10.3891	0.1082	-0.0921	0.7840	-0.6044
1.9	-0.5494	-9.3117	-2.3108	0.0171	-0.0066	0.0092	-25.7714	10.4470	10.3495	0.1082	-0.0921	0.7839	-0.6043
1.91	-0.5621	-9.3082	-2.2945	0.0116	-0.0065	0.0081	-25.8158	10.6267	10.1109	0.1082	-0.0921	0.7840	-0.6044
1.92	-0.5731	-9.3052	-2.2975	0.0128	-0.0070	0.0097	-25.6013	10.2027	10.2495	0.1081	-0.0921	0.7840	-0.6043
1.93	-0.5821	-9.3074	-2.3089	0.0135	-0.0063	0.0097	-25.7599	10.4183	10.2282	0.1081	-0.0921	0.7840	-0.6043
1.94	-0.5854	-9.2961	-2.3002	0.0159	-0.0139	0.0070	-25.7923	10.2434	10.0551	0.1081	-0.0921	0.7840	-0.6043
1.95	-0.5863	-9.2966	-2.3028	0.0106	-0.0164	0.0052	-25.7930	10.3516	10.1204	0.1082	-0.0922	0.7840	-0.6042
1.96	-0.5838	-9.3015	-2.3037	0.0127	-0.0087	0.0063	-25.6934	10.3187	10.2745	0.1082	-0.0922	0.7841	-0.6042
1.97	-0.5787	-9.2972	-2.3034	0.0113	-0.0153	0.0072	-25.7333	10.4131	10.0492	0.1082	-0.0922	0.7841	-0.6041
1.98	-0.5708	-9.2990	-2.2993	0.0063	-0.0153	0.0047	-25.6272	10.3679	10.1209	0.1082	-0.0923	0.7842	-0.6041
1.99	-0.5637	-9.3056	-2.3111	0.0125	-0.0164	0.0039	-25.7146	10.4241	10.2352	0.1082	-0.0923	0.7841	-0.6040
2	-0.5619	-9.3094	-2.3164	0.0180	-0.0086	0.0085	-25.8042	10.5209	10.2468	0.1082	-0.0923	0.7842	-0.6041
2.01	-0.5617	-9.3032	-2.3088	0.0107	-0.0159	0.0054	-25.6602	10.3824	10.3601	0.1082	-0.0924	0.7842	-0.6040
2.02	-0.5589	-9.2994	-2.3121	0.0148	-0.0161	0.0055	-25.8198	10.4743	10.2409	0.1082	-0.0924	0.7842	-0.6040
2.03	-0.5593	-9.3034	-2.3133	0.0175	-0.0172	0.0081	-25.6756	10.3019	10.1217	0.1082	-0.0924	0.7842	-0.6040
2.04	-0.5579	-9.3060	-2.3152	0.0163	-0.0137	0.0137	-25.8665	10.2861	10.0486	0.1082	-0.0924	0.7842	-0.6040
2.05	-0.5609	-9.3044	-2.3114	0.0222	-0.0101	0.0083	-25.6116	10.4006	10.2460	0.1082	-0.0924	0.7842	-0.6040
2.06	-0.5573	-9.3087	-2.3114	0.0162	-0.0131	0.0122	-25.5064	10.5475	10.2076	0.1083	-0.0924	0.7841	-0.6039
2.07	-0.5482	-9.3076	-2.3048	0.0181	-0.0093	0.0088	-25.7860	10.3607	10.3765	0.1083	-0.0925	0.7842	-0.6040
2.08	-0.5385	-9.3036	-2.3023	0.0138	-0.0089	0.0115	-25.6261	10.2704	10.0688	0.1083	-0.0925	0.7842	-0.6040
2.09	-0.5245	-9.3062	-2.3049	0.0145	-0.0098	0.0073	-25.6896	10.6622	10.1687	0.1083	-0.0925	0.7842	-0.6040
2.1	-0.5192	-9.3090	-2.3109	0.0155	-0.0089	0.0098	-25.8188	10.3754	10.4448	0.1083	-0.0925	0.7842	-0.6039
2.11	-0.5130	-9.3011	-2.3131	0.0142	-0.0159	0.0052	-25.7825	10.3673	10.2706	0.1083	-0.0925	0.7842	-0.6039
2.12	-0.5137	-9.3056	-2.3176	0.0221	-0.0128	0.0064	-25.6221	10.4572	10.1911	0.1083	-0.0925	0.7842	-0.6039
2.13	-0.5152	-9.3108	-2.3239	0.0175	-0.0131	0.0119	-25.7092	10.4193	10.3658	0.1083	-0.0925	0.7842	-0.6039
2.14	-0.5155	-9.3070	-2.3273	0.0110	-0.0049	0.0084	-25.7147	10.3514	10.1518	0.1083	-0.0925	0.7843	-0.6039
2.15	-0.5235	-9.3056	-2.3200	0.0156	-0.0060	0.0067	-25.7191	10.3236	10.1170	0.1082	-0.0925	0.7843	-0.6039
2.16	-0.5284	-9.3082	-2.3254	0.0089	-0.0090	0.0061	-25.8946	10.1968	10.2855	0.1082	-0.0926	0.7844	-0.6039
2.17	-0.5304	-9.3063	-2.3340	0.0093	-0.0046	0.0041	-25.8548	10.5643	10.2041	0.1082	-0.0926	0.7843	-0.6038
2.18	-0.5294	-9.3046	-2.3324	0.0145	-0.0135	0.0076	-25.7942	10.3409	10.3509	0.1082	-0.0926	0.7843	-0.6038
2.19	-0.5240	-9.3064	-2.3345	0.0173	-0.0048	0.0081	-25.7791	10.2377	10.3267	0.1082	-0.0926	0.7843	-0.6038
2.2	-0.5203	-9.3121	-2.3365	0.0149	-0.0123	0.0066	-25.8689	10.2603	10.2436	0.1082	-0.0926	0.7843	-0.6037
2.21	-0.5058	-9.3123	-2.3271	0.0140	-0.0117	0.0079	-25.9655	10.3618	10.3230	0.1082	-0.0926	0.7844	-0.6038
2.22	-0.5034	-9.3044	-2.3218	0.0191	-0.0078	0.0091	-25.9766	10.4495	10.3138	0.1082	-0.0926	0.7844	-0.6037
2.23	-0.5025	-9.3117	-2.3258	0.0198	-0.0151	0.0138	-25.8613	10.4026	10.3252	0.1082	-0.0926	0.7844	-0.6038
2.24	-0.5048	-9.3044	-2.3158	0.0178	-0.0147	0.0105	-25.6174	10.5254	10.3042	0.1082	-0.0926	0.7843	-0.6037
2.25	-0.5071	-9.2970	-2.3038	0.0149	-0.0122	0.0054	-25.5275	10.4117	10.3514	0.1082	-0.0927	0.7844	-0.6037
2.26	-0.5144	-9.3089	-2.3066	0.0187	-0.0125	0.0116	-25.6107	10.4540	10.2586	0.1082	-0.0927	0.7844	-0.6037
2.27	-0.5194	-9.3080	-2.3079	0.0200	-0.0115	0.0079	-25.6299	10.3597	10.2326	0.1083	-0.0927	0.7844	-0.6037
2.28	-0.5259	-9.3012	-2.2995	0.0134	-0.0095	0.0053	-25.7303	10.3179	10.2242	0.1082	-0.0927	0.7844	-0.6037
2.29	-0.5296	-9.3102	-2.3095	0.0166	-0.0067	0.0075	-25.7929	10.3913	10.1381	0.1082	-0.0927	0.7844	-0.6037
2.3	-0.5184	-9.3103	-2.3087	0.0207	-0.0071	0.0098	-25.6517	10.6328	10.3020	0.1082	-0.0927	0.7844	-0.6037
2.31	-0.5100	-9.3078	-2.3125	0.0237	-0.0087	0.0072	-25.8979	10.5023	10.4074	0.1082	-0.0927	0.7843	-0.6036
2.32	-0.4967	-9.3112	-2.3189	0.0183	-0.0121	0.0102	-25.9559	10.2985	10.2824	0.1082	-0.0927	0.7844	-0.6037
2.33	-0.4820	-9.3169	-2.3267	0.0192	-0.0064	0.0102	-25.5263	10.5429	10.2339	0.1082	-0.0927	0.7844	-0.6037
2.34	-0.4695	-9.3137	-2.3242	0.0225	-0.0115	0.0067	-25.6916	10.4150	10.4499	0.1082	-0.0927	0.7844	-0.6037
2.35	-0.4827	-9.2957	-2.3079	0.0193	-0.0085	0.0059	-25.8116	10.6104	10.2696	0.1082	-0.0927	0.7843	-0.6037
2.36	-0.5105	-9.2972	-2.3041	0.0161	-0.0037	0.0113	-25.7879	10.5759	10.1221	0.1082	-0.0927	0.7844	-0.6037
2.37	-0.5478	-9.3208	-2.3246	0.0134	-0.0103	0.0058	-25.7579	10.4569	10.5221	0.1082	-0.0927	0.7844	-0.6037
2.38	-0.5740	-9.3094	-2.3207	0.0161	-0.0130	0.0146	-25.3508	10.2792	10.4082	0.1082	-0.0927	0.7843	-0.6036
2.39	-0.5986	-9.2890	-2.2951	0.0229	-0.0067	0.0163	-25.6425	10.3993	10.3691	0.1082	-0.0927	0.7844	-0.6037
2.4	-0.6205	-9.2887	-2.2973	0.0246	-0.0064	0.0173	-25.8043	10.6805	10.1148	0.1082	-0.0926	0.7844	-0.6037
2.41	-0.6353	-9.3032	-2.3047	0.0232	-0.0112	0.0163	-25.8898	10.6471	10.1368	0.1082	-0.0926	0.7844	-0.6038
2.42	-0.6372	-9.3037	-2.2997	0.0191	-0.0134	0.0119	-25.7899	10.2668	10.1857	0.1083	-0.0926	0.7843	-0.6037
2.43	-0.6496	-9.2946	-2.2733	0.0226	-0.0063	0.0161	-25.5201	10.3426	10.1667	0.1083	-0.0926	0.7844	-0.6037
2.44	-0.6503	-9.2947	-2.2769	0.0205	-0.0131	0.0139	-25.7026	10.2997	9.9982	0.1083	-0.0926	0.7844	-0.6037
2.45	-0.6447	-9.3022	-2.2678	0.0247	-0.0104	0.0081	-25.5324	10.3839	10.0740	0.1083	-0.0926	0.7843	-0.6037
2.46	-0.6442	-9.3056	-2.2550	0.0191	-0.0064	0.0109	-25.6578	10.5106	10.0908	0.1083	-0.0926	0.7844	-0.6038
2.47	-0.6379	-9.2956	-2.2430	0.0235	-0.0084	0.0130	-25.9111	10.3034	10.0759	0.1083	-0.0926	0.7843	-0.6038
2.48	-0.6378	-9.3004	-2.2411	0.0187	-0.0110	0.0067	-25.9791	10.3766	10.0836	0.1083	-0.0926	0.7844	-0.6038
2.49	-0.6320	-9.3033	-2.2346	0.0167	-0.0103	0.0055	-25.9631	10.3983	10.0686	0.1083	-0.0926	0.7843	-0.6037
2.5	-0.6156	-9.3198	-2.2500	0.0166	-0.0078	0.0142	-25.9358	10.2931	10.0928	0.1083	-0.0926	0.7844	-0.6038
2.51	-0.5885	-9.3139	-2.2513	0.0126	-0.0177	0.0105	-25.7158	10.6310	9.8980	0.1083	-0.0926	0.7844	-0.6037
2.52	-0.5658	-9.3064	-2.2582	0.0092	-0.0114	0.0052	-25.9878	10.3681	10.2470	0.1083	-0.0926	0.7844	-0.6037
2.53	-0.5379	-9.3043	-2.2737	0.0160	-0.0074	0.0038	-25.8678	10.5940	10.3311	0.1083	-0.0926	0.7844	-0.6037
2.54	-0.5205	-9.3077	-2.2912	0.0194	-0.0098	0.0004	-26.0376	10.6359	10.1107	0.1083	-0.0927	0.7844	-0.6037
2.55	-0.5084	-9.3035	-2.3053	0.0132	-0.0090	-0.0002	-26.1931	10.4975	10.1739	0.1082	-0.0927	0.7844	-0.6037
2.56	-0.4978	-9.3052	-2.3168	0.0214	-0.0091	0.0076	-25.9292	10.6735	10.1501	0.1082	-0.0927	0.7843	-0.6036
2.57	-0.4901	-9.3096	-2.3377	0.0132	-0.0043	0.0053	-25.9969	10.7004	10.2446	0.1082	-0.0927	0.7844	-0.6037
2.58	-0.4810	-9.2984	-2.3373	0.0174	-0.0049	0.0038	-26.0568	10.4795	9.9722	0.1082	-0.0927	0.7844	-0.6037
2.59	-0.4785	-9.2985	-2.3537	0.0261	-0.0051	0.0046	-26.0523	10.4504	10.2633	0.1081	-0.0927	0.7844	-0.6037
2.6	-0.4787	-9.3099	-2.3624	0.0251	-0.0137	0.0134	-25.9616	10.5962	10.1481	0.1082	-0.0927	0.7844	-0.6037
2.61	-0.4708	-9.3127	-2.3747	0.0204	-0.0135	0.0140	-25.8439	10.3862	10.0456	0.1082	-0.0927	0.7844	-0.6037
2.62	-0.4676	-9.3039	-2.3734	0.0260	-0.0102	0.0105	-25.5813	10.5096	9.9399	0.1082	-0.0927	0.7844	-0.6037
2.63	-0.4664	-9.3017	-2.3699	0.0210	-0.0109	0.0053	-25.8330	10.5860	10.1720	0.1082	-0.0927	0.7843	-0.6037
2.64	-0.4718	-9.3109	-2.3763	0.0228	-0.0154	0.0083	-25.7634	10.4534	10.1599	0.1082	-0.0928	0.7844	-0.6038
2.65	-0.4708	-9.3078	-2.3671	0.0249	-0.0151	0.0116	-25.7770	10.6133	9.8917	0.1082	-0.0928	0.7843	-0.6038
2.66	-0.4673	-9.3042	-2.3541	0.0164	-0.0084	0.0063	-25.9386	10.4861	10.1646	0.1082	-0.0928	0.7844	-0.6038
2.67	-0.4721	-9.3094	-2.3513	0.0169	-0.0143	0.0087	-25.7743	10.3871	10.1667	0.1082	-0.0928	0.7843	-0.6037
2.68	-0.4816	-9.3106	-2.3473	0.0218	-0.0086	0.0063	-25.8049	10.4136	9.9442	0.1082	-0.0928	0.7843	-0.6038
2.69	-0.4901	-9.3072	-2.3286	0.0240	-0.0106	0.0097	-25.9874	10.3598	10.0369	0.1082	-0.0928	0.7843	-0.6038
2.7	-0.5048	-9.3107	-2.3250	0.0220	-0.0147	0.0142	-25.8080	10.5400	10.1749	0.1083	-0.0928	0.7842	-0.6038
2.71	-0.5181	-9.3161	-2.3246	0.0229	-0.0092	0.0101	-25.8029	10.6665	10.1446	0.1083	-0.0928	0.7843	-0.6039
2.72	-0.5306	-9.3021	-2.3161	0.0235	-0.0030	0.0073	-26.0508	10.7509	10.0528	0.1082	-0.0928	0.7842	-0.6038
2.73	-0.5445	-9.3018	-2.3033	0.0250	-0.0061	0.0063	-26.0503	10.6426	10.0513	0.1082	-0.0928	0.7843	-0.6039
2.74	-0.5521	-9.3088	-2.3084	0.0249	-0.0054	0.0092	-25.9713	10.6393	10.1695	0.1082	-0.0927	0.7842	-0.6039
2.75	-0.5503	-9.3057	-2.3145	0.0215	-0.0096	0.0081	-25.8438	10.6289	10.1336	0.1082	-0.0928	0.7842	-0.6039
2.76	-0.5506	-9.2969	-2.2967	0.0226	-0.0057	0.0089	-26.1034	10.6848	10.2288	0.1082	-0.0927	0.7842	-0.6039
2.77	-0.5508	-9.3066	-2.3041	0.0262	-0.0039	0.0092	-26.1280	10.7425	10.1652	0.1081	-0.0927	0.7842	-0.6040
2.78	-0.5480	-9.3116	-2.3115	0.0221	-0.0095	0.0096	-26.1444	10.6258	10.0673	0.1081	-0.0927	0.7842	-0.6040
2.79	-0.5434	-9.3018	-2.2972	0.0206	-0.0162	0.0172	-25.9487	10.5089	10.0283	0.1082	-0.0927	0.7842	-0.6040
2.8	-0.5378	-9.3007	-2.2930	0.0184	-0.0106	0.0103	-25.8700	10.4689	10.0247	0.1082	-0.0927	0.7842	-0.6040
2.81	-0.5418	-9.3062	-2.2929	0.0210	-0.0079	0.0145	-25.8237	10.4152	10.1188	0.1082	-0.0927	0.7841	-0.6039
2.82	-0.5472	-9.3032	-2.2872	0.0236	-0.0091	0.0103	-25.5890	10.2753	9.8448	0.1082	-0.0927	0.7842	-0.6040
2.83	-0.5551	-9.2989	-2.2793	0.0188	-0.0056	0.0075	-25.8051	10.3891	9.8159	0.1082	-0.0927	0.7841	-0.6040
2.84	-0.5622	-9.3097	-2.2753	0.0255	-0.0058	0.0054	-25.7931	10.6091	10.0963	0.1082	-0.0927	0.7841	-0.6041
2.85	-0.5679	-9.3051	-2.2766	0.0204	-0.0131	0.0050	-25.8140	10.3486	9.9529	0.1082	-0.0927	0.7841	-0.6040
2.86	-0.5623	-9.3012	-2.2762	0.0195	-0.0137	0.0097	-25.8892	10.5685	10.1896	0.1082	-0.0927	0.7841	-0.6041
2.87	-0.5644	-9.3066	-2.2757	0.0193	-0.0114	0.0093	-25.5417	10.6761	10.4079	0.1082	-0.0927	0.7841	-0.6041
2.88	-0.5585	-9.3110	-2.2796	0.0219	-0.0153	0.0134	-25.3897	10.6418	10.2415	0.1082	-0.0927	0.7840	-0.6040
2.89	-0.5598	-9.3021	-2.2773	0.0099	-0.0061	0.0061	-25.6680	10.7453	10.0267	0.1082	-0.0927	0.7842	-0.6041
2.9	-0.5505	-9.3046	-2.2769	0.0110	-0.0066	0.0042	-25.7862	10.9016	9.8275	0.1082	-0.0927	0.7841	-0.6040
2.91	-0.5464	-9.3113	-2.2752	0.0180	-0.0086	0.0042	-25.6631	10.7072	10.0230	0.1081	-0.0927	0.7842	-0.6041
2.92	-0.5367	-9.3081	-2.2622	0.0180	-0.0068	0.0072	-25.9422	10.6993	10.1599	0.1081	-0.0927	0.7841	-0.6040
2.93	-0.5356	-9.3072	-2.2575	0.0144	-0.0060	0.0030	-25.9240	10.6333	9.9785	0.1081	-0.0927	0.7842	-0.6040
2.94	-0.5331	-9.3108	-2.2614	0.0115	-0.0090	0.0059	-25.9312	10.6569	9.9604	0.1080	-0.0928	0.7842	-0.6040
2.95	-0.5274	-9.3110	-2.2673	0.0184	-0.0060	0.0068	-25.9190	10.6329	9.9333	0.1080	-0.0927	0.7841	-0.6039
2.96	-0.5305	-9.3063	-2.2697	0.0217	-0.0065	0.0074	-25.7730	10.5043	10.0069	0.1080	-0.0928	0.7842	-0.6040
2.97	-0.5337	-9.3074	-2.2833	0.0215	-0.0054	0.0111	-26.0927	10.6509	10.1434	0.1080	-0.0927	0.7842	-0.6040
2.98	-0.5366	-9.3119	-2.2910	0.0196	-0.0090	0.0071	-25.9453	10.7605	9.9664	0.1080	-0.0927	0.7842	-0.6040
2.99	-0.5379	-9.3062	-2.2910	0.0192	-0.0127	0.0115	-25.7062	10.7067	10.2718	0.1080	-0.0927	0.7841	-0.6040
3	-0.5390	-9.2989	-2.2911	0.0165	-0.0089	0.0096	-25.7415	10.4602	9.9589	0.1080	-0.0927	0.7842	-0.6040
3.01	-0.5389	-9.3094	-2.3001	0.0127	-0.0051	0.0065	-25.6926	10.4473	10.0181	0.1080	-0.0927	0.7842	-0.6040
3.02	-0.5348	-9.3085	-2.3082	0.0119	-0.0158	0.0055	-25.6027	10.7091	10.0730	0.1080	-0.0928	0.7842	-0.6039
3.03	-0.5312	-9.3036	-2.3035	0.0202	-0.0112	0.0113	-25.8655	10.6776	9.9420	0.1080	-0.0928	0.7842	-0.6040
3.04	-0.5189	-9.3093	-2.3074	0.0185	-0.0127	0.0142	-25.9663	10.4752	9.8270	0.1080	-0.0927	0.7842	-0.6040
3.05	-0.5078	-9.3133	-2.3214	0.0137	-0.0102	0.0133	-25.8187	10.5608	9.9940	0.1080	-0.0927	0.7842	-0.6040
3.06	-0.5029	-9.3056	-2.3206	0.0151	-0.0133	0.0126	-25.7308	10.4725	10.1651	0.1080	-0.0927	0.7842	-0.6039
3.07	-0.5032	-9.3073	-2.3234	0.0201	-0.0102	0.0121	-25.7347	10.9014	10.0143	0.1080	-0.0927	0.7842	-0.6040
3.08	-0.5103	-9.3110	-2.3335	0.0079	-0.0030	0.0109	-25.7195	10.7262	10.0675	0.1080	-0.0927	0.7842	-0.6039
3.09	-0.5191	-9.3090	-2.3304	0.0072	-0.0074	0.0060	-25.7835	10.4965	10.0012	0.1080	-0.0927	0.7843	-0.6039
3.1	-0.5291	-9.3078	-2.3249	0.0113	-0.0058	0.0046	-25.8306	10.5264	9.7523	0.1079	-0.0927	0.7843	-0.6038
3.11	-0.5414	-9.3101	-2.3362	0.0181	-0.0088	0.0114	-25.7616	10.5444	9.8401	0.1079	-0.0927	0.7843	-0.6038
3.12	-0.5536	-9.3092	-2.3366	0.0203	-0.0073	0.0086	-25.7356	10.6497	10.0800	0.1079	-0.0927	0.7843	-0.6038
3.13	-0.5531	-9.2989	-2.3266	0.0217	-0.0067	0.0040	-25.9870	10.8111	9.9519	0.1079	-0.0927	0.7842	-0.6038
3.14	-0.5518	-9.3020	-2.3279	0.0087	-0.0054	0.0101	-25.8628	10.5142	9.9577	0.1079	-0.0927	0.7844	-0.6039
3.15	-0.5411	-9.3125	-2.3255	0.0099	-0.0023	0.0024	-25.7735	10.5019	10.1274	0.1078	-0.0927	0.7843	-0.6038
3.16	-0.5277	-9.3126	-2.3234	0.0233	-0.0073	0.0116	-25.8879	10.6565	9.8737	0.1078	-0.0927	0.7844	-0.6039
3.17	-0.5202	-9.2961	-2.3187	0.0238	-0.0068	0.0075	-25.8815	10.5069	9.8887	0.1078	-0.0927	0.7843	-0.6038
3.18	-0.5188	-9.3076	-2.3179	0.0235	-0.0070	0.0060	-25.6783	10.5079	9.8247	0.1078	-0.0927	0.7843	-0.6039
3.19	-0.5261	-9.3148	-2.3198	0.0131	-0.0071	0.0096	-25.7594	10.6060	9.8550	0.1078	-0.0927	0.7843	-0.6038
3.2	-0.5386	-9.3000	-2.3107	0.0137	-0.0072	0.0130	-25.6290	10.5165	10.1055	0.1078	-0.0926	0.7843	-0.6038
3.21	-0.5518	-9.2986	-2.3069	0.0188	-0.0072	0.0104	-25.7449	10.6433	9.9210	0.1078	-0.0926	0.7844	-0.6039
3.22	-0.5701	-9.3033	-2.3129	0.0208	-0.0071	0.0055	-25.7079	10.6589	9.8623	0.1077	-0.0926	0.7843	-0.6038
3.23	-0.5771	-9.3069	-2.3071	0.0167	-0.0066	0.0141	-25.7834	10.6414	9.8898	0.1077	-0.0926	0.7844	-0.6039
3.24	-0.5864	-9.3034	-2.2982	0.0222	-0.0104	0.0129	-25.8131	10.7192	9.8478	0.1077	-0.0926	0.7843	-0.6038
3.25	-0.5813	-9.2987	-2.3038	0.0225	-0.0107	0.0127	-25.8926	10.6766	9.9058	0.1077	-0.0926	0.7843	-0.6039
3.26	-0.5629	-9.3032	-2.2984	0.0227	-0.0063	0.0079	-25.8955	10.8535	9.9466	0.1077	-0.0926	0.7843	-0.6039
3.27	-0.5458	-9.3058	-2.3002	0.0163	-0.0071	0.0028	-25.8673	10.8535	9.7428	0.1077	-0.0926	0.7843	-0.6039
3.28	-0.5253	-9.3093	-2.3042	0.0170	-0.0083	0.0051	-25.9151	10.7757	9.9856	0.1077	-0.0926	0.7843	-0.6039
3.29	-0.5211	-9.3115	-2.2986	0.0213	-0.0067	0.0043	-25.9480	10.4897	10.0843	0.1076	-0.0926	0.7843	-0.6039
3.3	-0.5201	-9.3067	-2.3039	0.0228	-0.0076	0.0086	-25.8839	10.6489	9.9788	0.1076	-0.0926	0.7843	-0.6039
3.31	-0.5284	-9.3049	-2.2969	0.0116	-0.0013	0.0038	-26.1724	10.6886	9.9308	0.1076	-0.0926	0.7843	-0.6039
3.32	-0.5455	-9.3068	-2.2966	0.0153	-0.0057	0.0053	-26.0014	10.6928	10.1832	0.1075	-0.0926	0.7844	-0.6039
3.33	-0.5530	-9.3077	-2.2996	0.0185	-0.0040	0.0074	-25.8438	10.8007	10.0824	0.1075	-0.0926	0.7843	-0.6039
3.34	-0.5583	-9.3045	-2.3035	0.0124	-0.0085	0.0042	-25.9858	10.7480	10.2334	0.1075	-0.0926	0.7844	-0.6039
3.35	-0.5638	-9.3016	-2.2966	0.0234	-0.0091	0.0065	-25.8877	10.7868	10.1194	0.1075	-0.0926	0.7843	-0.6039
3.36	-0.5614	-9.3029	-2.2946	0.0160	-0.0058	0.0080	-25.7640	10.6294	9.8997	0.1074	-0.0926	0.7843	-0.6039
3.37	-0.5617	-9.3089	-2.2906	0.0205	-0.0085	0.0080	-25.4839	10.6296	10.0694	0.1074	-0.0926	0.7844	-0.6039
3.38	-0.5576	-9.3073	-2.2896	0.0142	-0.0123	0.0121	-25.2339	10.8192	10.2832	0.1074	-0.0926	0.7843	-0.6038
3.39	-0.5505	-9.3082	-2.2904	0.0214	-0.0089	0.0074	-25.4016	10.8552	9.9755	0.1074	-0.0926	0.7844	-0.6039
3.4	-0.5452	-9.3096	-2.2895	0.0250	-0.0168	0.0132	-25.6862	10.6562	9.9642	0.1075	-0.0926	0.7843	-0.6039
3.41	-0.5292	-9.3077	-2.2855	0.0179	-0.0078	0.0099	-25.9445	10.8056	9.7772	0.1075	-0.0926	0.7844	-0.6040
3.42	-0.5149	-9.3040	-2.2843	0.0161	-0.0076	0.0048	-25.8545	10.4584	10.0344	0.1074	-0.0926	0.7843	-0.6039
3.43	-0.5124	-9.3088	-2.2847	0.0211	-0.0069	0.0116	-25.8822	10.4807	10.1547	0.1074	-0.0926	0.7843	-0.6039
3.44	-0.5139	-9.3120	-2.2932	0.0220	-0.0120	0.0079	-25.8313	10.6822	9.9495	0.1074	-0.0926	0.7843	-0.6040
3.45	-0.5177	-9.3072	-2.2934	0.0169	-0.0070	0.0098	-25.7437	10.8186	10.2859	0.1074	-0.0926	0.7843	-0.6039
3.46	-0.5316	-9.3088	-2.3056	0.0201	-0.0058	0.0060	-26.0278	10.8174	10.2310	0.1074	-0.0926	0.7844	-0.6040
3.47	-0.5399	-9.3046	-2.3025	0.0222	-0.0074	0.0081	-25.9898	10.7806	10.3830	0.1074	-0.0926	0.7843	-0.6040
3.48	-0.5582	-9.3182	-2.3265	0.0195	-0.0073	0.0158	-26.0003	10.8935	10.2790	0.1074	-0.0925	0.7843	-0.6040
3.49	-0.5694	-9.3019	-2.3270	0.0197	-0.0125	0.0111	-26.0758	10.7981	10.5396	0.1074	-0.0925	0.7842	-0.6039
3.5	-0.5725	-9.2977	-2.3323	0.0153	-0.0156	0.0047	-25.7994	10.7286	10.3699	0.1074	-0.0926	0.7843	-0.6040
3.51	-0.5703	-9.3048	-2.3473	0.0233	-0.0086	0.0055	-25.9811	10.8414	10.3540	0.1074	-0.0926	0.7843	-0.6040
3.52	-0.5514	-9.3073	-2.3568	0.0224	-0.0079	0.0110	-26.1344	10.7875	10.5052	0.1074	-0.0926	0.7842	-0.6040
3.53	-0.5470	-9.3005	-2.3428	0.0236	-0.0118	0.0101	-26.0389	10.8245	10.6022	0.1074	-0.0926	0.7843	-0.6040
3.54	-0.5435	-9.3059	-2.3410	0.0252	-0.0186	0.0124	-26.1457	10.6598	10.4437	0.1075	-0.0926	0.7842	-0.6040
3.55	-0.5378	-9.3201	-2.3500	0.0183	-0.0181	0.0084	-25.6942	10.6427	10.4450	0.1075	-0.0926	0.7842	-0.6041
3.56	-0.5408	-9.3052	-2.3290	0.0227	-0.0107	0.0062	-25.8847	10.6432	10.7137	0.1075	-0.0926	0.7841	-0.6040
3.57	-0.5469	-9.3019	-2.3302	0.0249	-0.0096	0.0083	-25.8883	10.6509	10.7841	0.1075	-0.0926	0.7842	-0.6041
3.58	-0.5574	-9.3024	-2.3279	0.0229	-0.0209	0.0063	-25.9082	10.7982	10.6234	0.1075	-0.0927	0.7841	-0.6041
3.59	-0.5600	-9.3053	-2.3341	0.0236	-0.0134	0.0073	-26.0131	10.8192	10.8370	0.1076	-0.0927	0.7841	-0.6041
3.6	-0.5585	-9.2981	-2.3164	0.0203	-0.0129	0.0054	-25.8450	10.7105	10.8743	0.1076	-0.0927	0.7841	-0.6041
3.61	-0.5542	-9.3034	-2.3208	0.0239	-0.0130	0.0093	-25.9456	10.8543	10.8429	0.1076	-0.0928	0.7841	-0.6042
3.62	-0.5369	-9.3039	-2.3058	0.0240	-0.0109	0.0104	-26.1414	10.7256	11.0651	0.1076	-0.0928	0.7841	-0.6042
3.63	-0.4974	-9.2872	-2.2667	0.0214	-0.0095	0.0085	-26.1435	10.7722	10.9138	0.1076	-0.0928	0.7840	-0.6042
3.64	-0.4733	-9.3190	-2.2777	0.0228	-0.0066	0.0095	-26.0243	10.9416	10.9834	0.1076	-0.0928	0.7841	-0.6043
3.65	-0.4649	-9.3314	-2.2871	0.0259	-0.0071	0.0088	-25.9901	10.8193	11.2859	0.1076	-0.0928	0.7840	-0.6042
3.66	-0.4812	-9.3104	-2.2687	0.0241	-0.0063	0.0104	-26.1580	10.8415	11.1331	0.1076	-0.0928	0.7841	-0.6043
3.67	-0.5064	-9.3022	-2.2647	0.0221	-0.0003	0.0070	-26.1254	10.9869	11.4215	0.1076	-0.0927	0.7840	-0.6043
3.68	-0.5329	-9.3098	-2.2734	0.0201	-0.0008	0.0113	-26.2813	10.9525	11.1939	0.1075	-0.0927	0.7840	-0.6043
3.69	-0.5614	-9.3091	-2.2730	0.0166	0.0075	0.0111	-26.1079	11.1413	11.0673	0.1075	-0.0927	0.7840	-0.6043
3.7	-0.5738	-9.3034	-2.2603	0.0256	0.0007	0.0070	-26.0327	11.1144	11.1339	0.1074	-0.0927	0.7839	-0.6043
3.71	-0.5806	-9.3134	-2.2593	0.0213	-0.0060	0.0069	-26.1627	11.1691	11.0806	0.1074	-0.0927	0.7840	-0.6044
3.72	-0.5755	-9.3174	-2.2693	0.0221	-0.0091	0.0089	-26.2548	10.9122	11.0024	0.1074	-0.0927	0.7840	-0.6044
3.73	-0.5574	-9.3014	-2.2596	0.0213	-0.0140	0.0123	-26.1102	10.7528	10.8237	0.1075	-0.0927	0.7840	-0.6044
3.74	-0.5367	-9.3027	-2.2724	0.0244	-0.0081	0.0120	-25.8678	10.9156	10.9668	0.1075	-0.0927	0.7839	-0.6044
3.75	-0.5114	-9.3125	-2.2910	0.0232	-0.0139	0.0104	-25.8031	10.7800	11.1263	0.1075	-0.0927	0.7839	-0.6044
3.76	-0.5022	-9.3062	-2.2888	0.0209	-0.0133	0.0057	-25.8401	10.9825	10.6694	0.1075	-0.0927	0.7839	-0.6044
3.77	-0.4973	-9.3041	-2.2894	0.0254	-0.0100	0.0109	-25.9795	10.6878	10.9823	0.1075	-0.0927	0.7839	-0.6044
3.78	-0.5007	-9.3140	-2.2955	0.0205	-0.0149	0.0110	-25.9786	10.8501	10.7319	0.1076	-0.0927	0.7839	-0.6045
3.79	-0.5037	-9.3110	-2.3002	0.0248	-0.0120	0.0087	-25.9554	10.8613	10.9319	0.1076	-0.0927	0.7838	-0.6045
3.8	-0.5128	-9.3033	-2.2991	0.0191	-0.0064	0.0112	-26.0206	10.7956	10.8949	0.1076	-0.0927	0.7839	-0.6045
3.81	-0.5388	-9.3101	-2.3095	0.0173	-0.0103	0.0101	-26.1374	10.7771	10.8392	0.1076	-0.0927	0.7838	-0.6044
3.82	-0.5561	-9.3080	-2.3152	0.0244	-0.0092	0.0095	-26.0330	11.0609	10.6529	0.1076	-0.0927	0.7839	-0.6045
3.83	-0.5688	-9.2967	-2.3032	0.0194	-0.0080	0.0085	-26.0243	11.1072	10.6745	0.1076	-0.0927	0.7838	-0.6045
3.84	-0.5767	-9.3032	-2.3143	0.0229	-0.0063	0.0086	-25.9022	11.0885	10.6760	0.1076	-0.0927	0.7838	-0.6046
3.85	-0.5785	-9.3133	-2.3199	0.0123	-0.0073	0.0095	-26.2745	11.2467	10.7325	0.1075	-0.0927	0.7838	-0.6045
3.86	-0.5785	-9.3035	-2.3106	0.0234	-0.0076	0.0050	-26.1452	11.2113	10.9289	0.1075	-0.0927	0.7838	-0.6045
3.87	-0.5730	-9.2999	-2.3036	0.0215	-0.0089	0.0124	-25.8349	11.2039	11.2455	0.1075	-0.0927	0.7838	-0.6046
3.88	-0.5643	-9.3078	-2.3046	0.0227	-0.0082	0.0079	-25.7509	11.3187	11.0997	0.1075	-0.0927	0.7837	-0.6045
3.89	-0.5525	-9.3079	-2.3018	0.0200	-0.0094	0.0015	-25.8831	11.2605	10.9228	0.1075	-0.0928	0.7838	-0.6046
3.9	-0.5403	-9.3010	-2.2926	0.0229	-0.0117	0.0057	-26.1410	11.2530	10.8336	0.1075	-0.0928	0.7837	-0.6046
3.91	-0.5273	-9.3106	-2.2935	0.0244	-0.0151	0.0132	-26.0168	11.4616	10.6259	0.1076	-0.0928	0.7838	-0.6047
3.92	-0.5104	-9.3179	-2.3009	0.0180	-0.0132	0.0106	-25.9100	11.0192	10.6479	0.1076	-0.0928	0.7837	-0.6046
3.93	-0.4999	-9.3187	-2.3024	0.0202	-0.0113	0.0054	-26.1314	11.0482	10.6368	0.1076	-0.0928	0.7837	-0.6046
3.94	-0.4920	-9.3088	-2.2929	0.0157	-0.0132	0.0118	-25.8654	11.2185	10.6434	0.1076	-0.0928	0.7837	-0.6046
3.95	-0.4910	-9.3178	-2.3022	0.0192	-0.0121	0.0112	-25.8255	11.0807	10.6463	0.1076	-0.0928	0.7837	-0.6046
3.96	-0.4918	-9.3151	-2.3181	0.0247	-0.0085	0.0092	-25.8537	11.1739	10.5508	0.1076	-0.0928	0.7838	-0.6047
3.97	-0.5019	-9.3031	-2.3101	0.0219	-0.0068	0.0133	-26.0834	11.2094	10.5365	0.1076	-0.0928	0.7837	-0.6047
3.98	-0.5161	-9.3101	-2.3165	0.0209	-0.0085	0.0122	-26.0377	11.2413	10.6086	0.1076	-0.0928	0.7837	-0.6047
3.99	-0.5285	-9.3095	-2.3199	0.0206	-0.0119	0.0117	-25.8944	10.9622	10.6843	0.1076	-0.0928	0.7836	-0.6046
4	-0.5423	-9.2988	-2.3210	0.0186	-0.0151	0.0085	-25.9417	11.2472	10.3728	0.1077	-0.0928	0.7837	-0.6047
4.01	-0.5521	-9.2959	-2.3102	0.0252	-0.0123	0.0118	-25.8575	11.0703	10.4518	0.1077	-0.0928	0.7836	-0.6047
4.02	-0.5520	-9.3148	-2.3271	0.0213	-0.0081	0.0072	-25.8744	11.1804	10.7400	0.1077	-0.0928	0.7836	-0.6047
4.03	-0.5480	-9.3070	-2.3194	0.0207	-0.0137	0.0047	-26.1455	11.0650	10.7267	0.1077	-0.0928	0.7836	-0.6048
4.04	-0.5433	-9.2973	-2.3065	0.0175	-0.0113	0.0033	-26.1278	10.9914	10.5850	0.1077	-0.0929	0.7836	-0.6047
4.05	-0.5370	-9.3086	-2.3074	0.0159	-0.0089	0.0009	-25.8808	11.1852	10.5389	0.1076	-0.0929	0.7837	-0.6048
4.06	-0.5258	-9.3102	-2.3118	0.0207	-0.0083	0.0009	-26.0232	11.1531	10.5616	0.1076	-0.0929	0.7835	-0.6047
4.07	-0.5235	-9.3069	-2.2868	0.0178	-0.0083	0.0074	-25.9691	11.1909	10.4331	0.1076	-0.0929	0.7836	-0.6048
4.08	-0.5228	-9.3067	-2.2846	0.0192	-0.0093	0.0058	-26.0604	11.1366	10.3420	0.1076	-0.0929	0.7836	-0.6048
4.09	-0.5273	-9.3149	-2.2835	0.0211	-0.0097	0.0106	-26.0242	11.2600	10.4510	0.1076	-0.0929	0.7836	-0.6048
4.1	-0.5342	-9.3113	-2.2741	0.0210	-0.0118	0.0138	-25.9073	11.1521	10.5585	0.1076	-0.0929	0.7836	-0.6048
4.11	-0.5438	-9.2993	-2.2661	0.0163	-0.0152	0.0099	-26.0217	11.0798	10.4471	0.1076	-0.0929	0.7836	-0.6048
4.12	-0.5584	-9.3060	-2.2762	0.0205	-0.0133	0.0087	-25.8120	11.0744	10.4782	0.1076	-0.0930	0.7836	-0.6048
4.13	-0.5685	-9.3097	-2.2796	0.0127	-0.0059	0.0080	-25.9188	11.1789	10.4695	0.1076	-0.0929	0.7835	-0.6047
4.14	-0.5823	-9.3037	-2.2856	0.0211	-0.0071	0.0092	-26.0180	11.1444	10.4541	0.1076	-0.0929	0.7836	-0.6048
4.15	-0.5901	-9.3050	-2.2937	0.0145	-0.0086	0.0089	-25.9891	11.0901	10.3543	0.1076	-0.0929	0.7836	-0.6048
4.16	-0.5937	-9.3123	-2.2995	0.0141	-0.0113	0.0019	-26.0002	11.0119	10.4020	0.1076	-0.0930	0.7837	-0.6048
4.17	-0.5787	-9.3030	-2.2970	0.0183	-0.0096	0.0098	-25.9895	11.0942	10.3636	0.1076	-0.0930	0.7836	-0.6047
4.18	-0.5628	-9.2979	-2.2972	0.0169	-0.0114	0.0088	-25.8977	10.9475	10.4187	0.1076	-0.0930	0.7836	-0.6048
4.19	-0.5501	-9.3105	-2.3063	0.0185	-0.0126	0.0088	-25.9221	10.9583	10.3210	0.1076	-0.0930	0.7836	-0.6048
4.2	-0.5369	-9.3082	-2.3012	0.0167	-0.0167	0.0128	-25.8872	11.0358	10.2918	0.1076	-0.0930	0.7836	-0.6047
4.21	-0.5227	-9.3079	-2.3065	0.0140	-0.0089	0.0033	-26.1133	10.9799	10.2836	0.1076	-0.0930	0.7837	-0.6048
4.22	-0.5228	-9.3060	-2.3056	0.0151	-0.0032	0.0028	-26.1655	11.0254	10.3262	0.1076	-0.0930	0.7836	-0.6047
4.23	-0.5218	-9.3098	-2.3105	0.0169	-0.0061	0.0041	-26.1293	11.1695	10.3966	0.1075	-0.0930	0.7837	-0.6048
4.24	-0.5282	-9.3000	-2.3010	0.0129	-0.0051	0.0041	-25.8920	11.1698	10.3670	0.1075	-0.0930	0.7836	-0.6047
4.25	-0.5346	-9.3098	-2.3136	0.0128	-0.0058	0.0097	-25.8397	11.0756	10.3910	0.1075	-0.0930	0.7837	-0.6047
4.26	-0.5421	-9.3133	-2.3205	0.0131	-0.0084	0.0039	-25.9592	11.0954	10.1981	0.1074	-0.0930	0.7837	-0.6047
4.27	-0.5472	-9.3055	-2.3163	0.0143	-0.0071	0.0080	-25.8115	11.0968	10.2678	0.1074	-0.0930	0.7837	-0.6047
4.28	-0.5472	-9.3056	-2.3101	0.0140	-0.0117	0.0081	-25.9408	11.0735	10.4143	0.1074	-0.0931	0.7837	-0.6047
4.29	-0.5516	-9.3113	-2.3063	0.0136	-0.0141	0.0110	-25.8757	11.1133	10.2094	0.1074	-0.0931	0.7837	-0.6047
4.3	-0.5421	-9.3070	-2.3147	0.0099	-0.0148	0.0096	-25.8031	11.0232	10.2592	0.1075	-0.0931	0.7837	-0.6047
4.31	-0.5369	-9.3061	-2.3089	0.0104	-0.0127	0.0044	-25.8677	11.0087	10.3939	0.1074	-0.0931	0.7837	-0.6046
4.32	-0.5246	-9.3092	-2.3139	0.0130	-0.0105	0.0045	-25.6914	10.8938	10.4019	0.1074	-0.0931	0.7838	-0.6046
4.33	-0.5121	-9.3074	-2.3144	0.0154	-0.0113	0.0057	-25.7323	10.8518	10.3608	0.1074	-0.0932	0.7837	-0.6046
4.34	-0.5074	-9.3074	-2.3100	0.0245	-0.0101	0.0082	-25.9380	11.0316	10.2142	0.1074	-0.0932	0.7838	-0.6046
4.35	-0.5060	-9.3126	-2.3188	0.0219	-0.0081	0.0085	-25.8146	10.9946	10.1843	0.1074	-0.0931	0.7837	-0.6046
4.36	-0.5103	-9.3109	-2.3114	0.0218	-0.0096	0.0121	-25.8323	11.0335	10.3948	0.1074	-0.0931	0.7837	-0.6046
4.37	-0.5159	-9.3076	-2.3094	0.0191	-0.0084	0.0057	-25.6727	11.1471	10.6886	0.1074	-0.0931	0.7837	-0.6047
4.38	-0.5342	-9.3061	-2.3039	0.0189	-0.0137	0.0113	-25.4265	11.2756	10.5531	0.1074	-0.0931	0.7836	-0.6046
4.39	-0.5473	-9.3075	-2.2978	0.0231	-0.0112	0.0120	-25.5521	11.2792	10.5149	0.1075	-0.0932	0.7837	-0.6047
4.4	-0.5582	-9.3076	-2.3028	0.0175	-0.0045	0.0131	-25.9217	11.3214	10.3423	0.1074	-0.0931	0.7837	-0.6047
4.41	-0.5564	-9.3055	-2.3017	0.0230	-0.0053	0.0058	-25.9676	11.3017	10.3008	0.1074	-0.0931	0.7837	-0.6047
4.42	-0.5618	-9.3040	-2.2935	0.0231	-0.0082	0.0070	-25.8210	11.1039	10.3275	0.1074	-0.0931	0.7836	-0.6047
4.43	-0.5656	-9.3067	-2.3017	0.0244	-0.0055	0.0057	-26.0405	11.2988	10.2727	0.1074	-0.0931	0.7836	-0.6047
4.44	-0.5657	-9.3044	-2.2915	0.0170	-0.0096	0.0132	-26.0738	11.0879	10.3889	0.1074	-0.0931	0.7836	-0.6047
4.45	-0.5630	-9.3053	-2.2914	0.0192	-0.0076	0.0077	-26.0034	11.1097	10.3310	0.1074	-0.0931	0.7836	-0.6047
4.46	-0.5551	-9.3091	-2.2951	0.0241	-0.0089	0.0058	-26.0252	11.2626	10.2053	0.1074	-0.0931	0.7837	-0.6048
4.47	-0.5498	-9.3077	-2.2950	0.0248	-0.0111	0.0097	-25.9144	11.2128	10.2162	0.1074	-0.0931	0.7836	-0.6048
4.48	-0.5428	-9.3076	-2.2875	0.0256	-0.0102	0.0125	-25.7391	11.2226	10.2906	0.1074	-0.0931	0.7836	-0.6049
4.49	-0.5403	-9.3068	-2.2945	0.0214	-0.0128	0.0158	-25.6695	10.9288	10.3237	0.1074	-0.0930	0.7835	-0.6048
4.5	-0.5434	-9.3035	-2.2896	0.0226	-0.0070	0.0077	-25.9351	10.9372	10.3227	0.1074	-0.0930	0.7836	-0.6049
4.51	-0.5513	-9.3100	-2.2901	0.0250	-0.0076	0.0099	-25.9126	11.1059	10.2793	0.1074	-0.0930	0.7835	-0.6049
4.52	-0.5645	-9.3072	-2.2932	0.0181	-0.0062	0.0089	-25.7511	11.0379	10.1519	0.1074	-0.0930	0.7835	-0.6049
4.53	-0.5736	-9.3085	-2.3056	0.0218	-0.0080	0.0148	-25.8808	11.1752	10.0163	0.1074	-0.0930	0.7835	-0.6049
4.54	-0.5689	-9.3033	-2.3020	0.0257	-0.0059	0.0131	-25.9489	10.7536	10.2387	0.1074	-0.0929	0.7835	-0.6049
4.55	-0.5608	-9.3044	-2.3047	0.0220	-0.0115	0.0128	-25.9656	10.9507	10.3526	0.1074	-0.0929	0.7835	-0.6050
4.56	-0.5484	-9.3110	-2.3108	0.0239	-0.0124	0.0123	-25.7908	10.9979	10.2263	0.1074	-0.0929	0.7834	-0.6049
4.57	-0.5451	-9.3213	-2.3248	0.0195	-0.0124	0.0090	-25.5518	10.9793	10.2209	0.1074	-0.0929	0.7835	-0.6050
4.58	-0.5290	-9.2971	-2.3089	0.0201	-0.0106	0.0101	-25.8546	11.0021	10.2811	0.1074	-0.0929	0.7834	-0.6050
4.59	-0.5162	-9.2962	-2.3004	0.0248	-0.0092	0.0117	-26.0403	11.1791	10.3179	0.1074	-0.0929	0.7834	-0.6050
4.6	-0.5068	-9.3103	-2.3063	0.0212	-0.0078	0.0114	-26.0116	10.9426	10.3216	0.1074	-0.0929	0.7834	-0.6050
4.61	-0.5015	-9.3115	-2.3030	0.0187	-0.0113	0.0069	-26.1318	10.9113	10.2835	0.1074	-0.0929	0.7834	-0.6051
4.62	-0.5020	-9.3107	-2.2992	0.0139	-0.0091	0.0129	-26.0500	11.2105	10.2007	0.1074	-0.0929	0.7834	-0.6051
4.63	-0.5057	-9.3083	-2.3033	0.0168	-0.0013	0.0096	-25.9274	11.2635	10.2263	0.1074	-0.0929	0.7834	-0.6050
4.64	-0.5089	-9.3190	-2.3069	0.0189	-0.0097	0.0106	-26.0398	10.9847	10.2277	0.1074	-0.0929	0.7835	-0.6051
4.65	-0.5203	-9.3049	-2.2966	0.0212	-0.0103	0.0105	-26.0025	11.0428	10.3592	0.1074	-0.0928	0.7834	-0.6050
4.66	-0.5239	-9.3033	-2.2995	0.0233	-0.0117	0.0106	-25.8578	11.2169	10.2194	0.1074	-0.0928	0.7835	-0.6051
4.67	-0.5253	-9.3116	-2.3084	0.0156	-0.0105	0.0102	-25.8632	10.8743	10.2303	0.1074	-0.0928	0.7834	-0.6050
4.68	-0.5259	-9.3092	-2.3068	0.0179	-0.0060	0.0086	-25.8462	10.7819	10.3577	0.1074	-0.0928	0.7834	-0.6051
4.69	-0.5215	-9.3076	-2.3079	0.0103	-0.0072	0.0113	-25.7151	10.8922	10.1040	0.1074	-0.0928	0.7834	-0.6051
4.7	-0.5209	-9.3031	-2.3070	0.0148	-0.0066	0.0159	-25.6604	10.8481	10.3300	0.1074	-0.0928	0.7834	-0.6050
4.71	-0.5171	-9.3110	-2.3076	0.0226	-0.0077	0.0090	-25.9211	10.6204	10.2305	0.1074	-0.0928	0.7835	-0.6051
4.72	-0.5179	-9.3098	-2.3161	0.0251	-0.0126	0.0106	-25.8980	10.7875	9.9667	0.1074	-0.0928	0.7834	-0.6051
4.73	-0.5209	-9.3046	-2.3061	0.0232	-0.0079	0.0106	-25.8371	10.6859	10.0162	0.1074	-0.0928	0.7834	-0.6051
4.74	-0.5201	-9.3044	-2.3123	0.0228	-0.0173	0.0111	-25.8548	10.9209	10.2583	0.1074	-0.0928	0.7833	-0.6051
4.75	-0.5200	-9.3103	-2.3105	0.0244	-0.0108	0.0144	-25.8713	10.8847	10.2184	0.1075	-0.0927	0.7834	-0.6052
4.76	-0.5323	-9.3119	-2.3166	0.0178	-0.0108	0.0110	-25.8227	10.7777	10.2802	0.1075	-0.0927	0.7834	-0.6051
4.77	-0.5292	-9.3038	-2.2996	0.0171	-0.0082	0.0056	-26.0192	10.9042	10.3534	0.1075	-0.0927	0.7833	-0.6051
4.78	-0.5403	-9.3043	-2.3021	0.0257	-0.0076	0.0089	-26.0118	10.8744	10.1869	0.1075	-0.0927	0.7834	-0.6052
4.79	-0.5388	-9.3058	-2.3036	0.0241	-0.0051	0.0070	-25.9329	11.0606	10.1438	0.1074	-0.0927	0.7833	-0.6052
4.8	-0.5464	-9.3086	-2.3063	0.0255	-0.0078	0.0109	-26.0766	10.9929	10.3078	0.1074	-0.0927	0.7833	-0.6053
4.81	-0.5491	-9.3020	-2.2946	0.0215	-0.0047	0.0100	-25.9135	11.0353	10.3146	0.1074	-0.0927	0.7832	-0.6052
4.82	-0.5478	-9.3078	-2.2976	0.0237	-0.0049	0.0100	-26.0674	11.1757	10.3983	0.1074	-0.0927	0.7833	-0.6053
4.83	-0.5542	-9.3136	-2.3050	0.0226	-0.0094	0.0104	-25.9657	11.1222	10.2535	0.1074	-0.0927	0.7832	-0.6053
4.84	-0.5584	-9.3091	-2.3028	0.0208	-0.0050	0.0129	-25.9336	11.1754	10.4219	0.1074	-0.0926	0.7833	-0.6053
4.85	-0.5665	-9.3039	-2.3079	0.0226	-0.0073	0.0091	-25.9610	11.0424	10.2910	0.1074	-0.0926	0.7832	-0.6053
4.86	-0.5726	-9.3038	-2.3038	0.0229	-0.0057	0.0073	-25.5714	10.7505	10.2373	0.1074	-0.0926	0.7832	-0.6054
4.87	-0.5722	-9.3053	-2.3135	0.0252	-0.0179	0.0089	-25.5330	10.9192	10.4120	0.1074	-0.0926	0.7832	-0.6054
4.88	-0.5679	-9.3043	-2.3024	0.0221	-0.0150	0.0114	-25.1929	10.8374	10.4309	0.1074	-0.0926	0.7831	-0.6054
4.89	-0.5617	-9.3074	-2.3059	0.0111	-0.0169	0.0105	-25.5521	10.8500	10.2274	0.1075	-0.0927	0.7832	-0.6054
4.9	-0.5566	-9.3117	-2.3144	0.0094	-0.0118	0.0107	-25.7888	10.9042	10.2053	0.1075	-0.0927	0.7832	-0.6053
4.91	-0.5517	-9.3074	-2.3118	0.0220	-0.0118	0.0063	-25.8876	10.9586	10.2833	0.1075	-0.0927	0.7833	-0.6054
4.92	-0.5544	-9.3077	-2.3100	0.0191	-0.0150	0.0058	-25.8175	10.9139	10.4049	0.1075	-0.0927	0.7831	-0.6053
4.93	-0.5559	-9.3095	-2.3280	0.0204	-0.0107	0.0112	-25.8142	10.9505	10.2447	0.1075	-0.0927	0.7832	-0.6054
4.94	-0.5591	-9.3101	-2.3239	0.0180	-0.0160	0.0135	-25.7987	11.0450	10.2035	0.1075	-0.0927	0.7832	-0.6054
4.95	-0.5602	-9.3006	-2.3154	0.0183	-0.0137	0.0136	-25.8939	10.9210	10.1943	0.1075	-0.0927	0.7831	-0.6053
4.96	-0.5547	-9.3062	-2.3155	0.0119	-0.0152	0.0028	-25.8867	10.9280	10.3308	0.1076	-0.0927	0.7833	-0.6054
4.97	-0.5541	-9.3166	-2.3189	0.0223	-0.0088	0.0054	-26.0628	11.0514	10.3732	0.1075	-0.0927	0.7832	-0.6054
4.98	-0.5497	-9.2976	-2.3018	0.0117	-0.0075	0.0040	-25.9730	11.1171	10.1855	0.1075	-0.0928	0.7832	-0.6054
4.99	-0.5435	-9.2980	-2.3092	0.0116	-0.0035	0.0101	-26.0752	10.9884	10.2837	0.1075	-0.0927	0.7832	-0.6053
5	-0.5426	-9.3060	-2.3090	0.0140	-0.0095	0.0044	-25.7091	11.1365	10.4351	0.1075	-0.0928	0.7832	-0.6053
5.01	-0.5494	-9.3104	-2.3063	0.0189	-0.0083	0.0080	-25.7070	10.8773	10.2875	0.1075	-0.0928	0.7832	-0.6053
5.02	-0.5564	-9.3081	-2.3104	0.0168	-0.0068	0.0087	-25.9286	11.1576	10.1447	0.1074	-0.0927	0.7832	-0.6053
5.03	-0.5582	-9.3022	-2.3050	0.0236	-0.0091	0.0067	-25.8871	11.1928	10.4398	0.1074	-0.0928	0.7832	-0.6054
5.04	-0.5547	-9.3073	-2.3069	0.0247	-0.0137	0.0129	-25.8999	10.9229	10.1874	0.1075	-0.0927	0.7832	-0.6054
5.05	-0.5445	-9.3107	-2.3107	0.0186	-0.0116	0.0114	-25.7141	11.1277	10.2956	0.1075	-0.0927	0.7832	-0.6054
5.06	-0.5326	-9.3099	-2.3125	0.0187	-0.0098	0.0080	-25.8279	10.9815	10.2181	0.1075	-0.0927	0.7831	-0.6053
5.07	-0.5187	-9.3032	-2.3083	0.0178	-0.0054	0.0064	-25.7979	11.0542	10.0093	0.1074	-0.0927	0.7832	-0.6054
5.08	-0.5115	-9.3092	-2.3041	0.0146	-0.0087	0.0062	-25.6964	10.9271	10.1956	0.1074	-0.0927	0.7832	-0.6054
5.09	-0.5051	-9.3128	-2.3002	0.0154	-0.0050	0.0066	-25.8096	11.0527	10.2368	0.1074	-0.0927	0.7832	-0.6054
5.1	-0.5053	-9.3079	-2.2966	0.0206	-0.0111	0.0080	-25.8256	11.1985	10.0653	0.1074	-0.0927	0.7832	-0.6054
5.11	-0.5076	-9.3066	-2.3074	0.0216	-0.0108	0.0116	-25.7814	11.0581	10.0930	0.1074	-0.0927	0.7832	-0.6054
5.12	-0.5163	-9.3096	-2.3028	0.0233	-0.0077	0.0097	-25.7013	10.9314	10.2393	0.1074	-0.0927	0.7832	-0.6054
5.13	-0.5288	-9.3124	-2.3054	0.0176	-0.0134	0.0101	-25.8103	11.0176	9.8922	0.1074	-0.0927	0.7831	-0.6054
5.14	-0.5322	-9.3031	-2.2972	0.0185	-0.0071	0.0056	-25.8157	10.8875	10.1769	0.1074	-0.0927	0.7832	-0.6055
5.15	-0.5382	-9.3049	-2.3032	0.0104	-0.0065	0.0088	-25.8043	10.9979	10.3793	0.1074	-0.0927	0.7832	-0.6054
5.16	-0.5389	-9.3116	-2.3081	0.0124	-0.0075	0.0090	-25.8744	10.9356	10.3357	0.1074	-0.0927	0.7832	-0.6054
5.17	-0.5471	-9.3077	-2.2993	0.0104	-0.0045	0.0041	-25.9953	11.0155	10.1935	0.1073	-0.0927	0.7832	-0.6053
5.18	-0.5462	-9.3063	-2.3016	0.0172	-0.0075	0.0076	-25.8461	10.9720	10.0876	0.1073	-0.0927	0.7832	-0.6054
5.19	-0.5516	-9.3119	-2.3064	0.0120	-0.0080	0.0083	-25.9727	10.9732	10.1803	0.1073	-0.0927	0.7832	-0.6054
5.2	-0.5563	-9.3103	-2.3098	0.0166	-0.0073	0.0059	-25.9141	11.2541	10.2196	0.1073	-0.0927	0.7832	-0.6053
5.21	-0.5538	-9.3038	-2.3087	0.0152	-0.0102	0.0090	-25.7943	10.8304	10.1026	0.1073	-0.0927	0.7833	-0.6054
5.22	-0.5502	-9.3043	-2.3179	0.0160	-0.0122	0.0078	-25.8183	10.7854	10.1418	0.1073	-0.0927	0.7832	-0.6053
5.23	-0.5448	-9.3078	-2.3245	0.0211	-0.0141	0.0120	-25.8194	11.1125	10.0967	0.1073	-0.0927	0.7833	-0.6054
5.24	-0.5418	-9.3022	-2.3257	0.0225	-0.0075	0.0071	-25.7361	11.0207	10.2152	0.1073	-0.0927	0.7832	-0.6053
5.25	-0.5395	-9.3054	-2.3225	0.0180	-0.0073	0.0057	-25.7223	10.8868	10.3188	0.1072	-0.0927	0.7832	-0.6054
5.26	-0.5418	-9.3095	-2.3226	0.0191	-0.0139	0.0106	-25.5993	10.8357	10.1152	0.1073	-0.0927	0.7832	-0.6054
5.27	-0.5390	-9.3085	-2.3205	0.0230	-0.0160	0.0151	-25.5387	10.9031	10.2193	0.1073	-0.0927	0.7832	-0.6054
5.28	-0.5379	-9.3052	-2.3158	0.0168	-0.0114	0.0054	-25.6878	11.0552	10.1221	0.1073	-0.0928	0.7832	-0.6054
5.29	-0.5363	-9.3023	-2.3095	0.0256	-0.0097	0.0076	-25.8331	11.0680	10.1188	0.1073	-0.0928	0.7832	-0.6054
5.3	-0.5350	-9.3051	-2.2983	0.0180	-0.0112	0.0072	-25.8116	10.9914	10.1268	0.1073	-0.0928	0.7832	-0.6054
5.31	-0.5293	-9.3085	-2.3018	0.0253	-0.0156	0.0128	-25.7420	11.0193	10.1210	0.1073	-0.0928	0.7831	-0.6054
5.32	-0.5255	-9.3049	-2.2946	0.0213	-0.0131	0.0083	-25.6265	10.9212	10.1352	0.1073	-0.0928	0.7832	-0.6055
5.33	-0.5269	-9.3053	-2.2921	0.0230	-0.0071	0.0107	-25.6774	11.0659	10.1164	0.1073	-0.0928	0.7831	-0.6055
5.34	-0.5273	-9.3138	-2.2945	0.0227	-0.0044	0.0149	-25.8790	10.9170	10.1376	0.1073	-0.0927	0.7831	-0.6055
5.35	-0.5284	-9.3102	-2.2895	0.0110	-0.0103	0.0069	-25.9155	11.0079	10.0970	0.1073	-0.0927	0.7831	-0.6055
5.36	-0.5228	-9.3027	-2.2786	0.0077	-0.0077	0.0037	-25.7544	11.1366	10.4140	0.1073	-0.0927	0.7831	-0.6054
5.37	-0.5243	-9.3079	-2.2861	0.0192	-0.0085	0.0069	-25.3956	11.2084	10.6736	0.1073	-0.0927	0.7832	-0.6055
5.38	-0.5196	-9.3112	-2.2833	0.0153	-0.0050	0.0118	-25.2426	11.1020	10.6047	0.1073	-0.0927	0.7831	-0.6054
5.39	-0.5161	-9.3031	-2.2707	0.0161	-0.0092	0.0132	-25.4713	11.2659	10.1511	0.1073	-0.0927	0.7832	-0.6055
5.4	-0.5258	-9.3077	-2.2800	0.0231	-0.0070	0.0109	-25.6315	11.2480	10.0431	0.1073	-0.0927	0.7831	-0.6055
5.41	-0.5396	-9.3155	-2.2792	0.0151	-0.0118	0.0163	-25.8714	11.3884	10.0985	0.1073	-0.0927	0.7832	-0.6055
5.42	-0.5495	-9.3056	-2.2788	0.0154	-0.0121	0.0164	-25.8098	10.9952	10.0416	0.1073	-0.0926	0.7831	-0.6054
5.43	-0.5608	-9.3040	-2.2833	0.0131	-0.0071	0.0126	-25.6591	10.8651	10.2302	0.1073	-0.0926	0.7832	-0.6054
5.44	-0.5677	-9.3127	-2.2983	0.0185	-0.0089	0.0132	-25.6726	10.8830	10.0787	0.1073	-0.0926	0.7832	-0.6054
5.45	-0.5593	-9.3059	-2.3109	0.0191	-0.0071	0.0095	-25.7563	10.8974	10.1643	0.1073	-0.0926	0.7831	-0.6054
5.46	-0.5507	-9.3034	-2.3165	0.0148	-0.0145	0.0143	-25.5889	10.8458	10.1718	0.1074	-0.0926	0.7832	-0.6055
5.47	-0.5371	-9.3054	-2.3221	0.0126	-0.0139	0.0139	-25.8416	10.8516	10.0379	0.1074	-0.0926	0.7832	-0.6054
5.48	-0.5284	-9.3082	-2.3200	0.0149	-0.0154	0.0122	-25.6459	11.0293	10.1166	0.1074	-0.0926	0.7833	-0.6054
5.49	-0.5160	-9.3051	-2.3179	0.0227	-0.0126	0.0105	-25.7156	10.8430	9.9690	0.1074	-0.0926	0.7831	-0.6053
5.5	-0.5126	-9.3071	-2.3139	0.0153	-0.0175	0.0069	-25.8794	11.0047	9.9084	0.1074	-0.0926	0.7832	-0.6054
5.51	-0.5105	-9.3078	-2.3182	0.0249	-0.0166	0.0150	-25.7985	11.0700	10.0277	0.1075	-0.0926	0.7832	-0.6054
5.52	-0.5102	-9.3072	-2.3114	0.0160	-0.0141	0.0081	-25.9789	10.9510	10.1884	0.1075	-0.0926	0.7832	-0.6054
5.53	-0.5164	-9.3061	-2.3149	0.0179	-0.0064	0.0111	-25.9670	11.0556	10.0217	0.1075	-0.0926	0.7832	-0.6054
5.54	-0.5226	-9.3024	-2.3070	0.0074	-0.0056	0.0121	-25.9264	10.9009	10.0303	0.1075	-0.0926	0.7832	-0.6054
5.55	-0.5287	-9.3056	-2.3152	0.0177	-0.0110	0.0068	-25.8763	11.0921	10.2311	0.1075	-0.0926	0.7832	-0.6054
5.56	-0.5381	-9.3083	-2.3113	0.0194	-0.0174	0.0115	-25.8691	11.1520	10.0292	0.1075	-0.0926	0.7831	-0.6053
5.57	-0.5505	-9.3099	-2.3118	0.0182	-0.0076	0.0149	-25.9148	11.0041	10.2189	0.1075	-0.0925	0.7832	-0.6054
5.58	-0.5592	-9.3065	-2.3092	0.0210	-0.0115	0.0159	-25.9290	10.7640	10.0939	0.1075	-0.0925	0.7832	-0.6054
5.59	-0.5728	-9.3143	-2.3187	0.0176	-0.0194	0.0123	-25.8630	10.9208	10.0921	0.1076	-0.0925	0.7832	-0.6054
5.6	-0.5668	-9.3053	-2.3023	0.0238	-0.0135	0.0120	-25.8859	11.0823	9.9555	0.1076	-0.0925	0.7832	-0.6054
5.61	-0.5642	-9.2983	-2.2956	0.0218	-0.0169	0.0138	-25.5402	10.7837	10.3009	0.1076	-0.0925	0.7832	-0.6054
5.62	-0.5534	-9.3090	-2.2969	0.0249	-0.0121	0.0190	-25.6032	10.8542	10.1317	0.1077	-0.0925	0.7832	-0.6054
5.63	-0.5489	-9.3093	-2.2996	0.0263	-0.0097	0.0131	-25.7323	10.9702	10.0831	0.1077	-0.0925	0.7831	-0.6054
5.64	-0.5464	-9.3047	-2.2922	0.0192	-0.0142	0.0164	-25.7868	10.8718	9.8483	0.1077	-0.0925	0.7832	-0.6055
5.65	-0.5552	-9.3019	-2.2928	0.0240	-0.0111	0.0153	-25.6871	10.8748	9.8792	0.1078	-0.0924	0.7831	-0.6055
5.66	-0.5618	-9.3088	-2.3007	0.0204	-0.0119	0.0155	-25.7419	11.1511	10.0912	0.1078	-0.0924	0.7831	-0.6055
5.67	-0.5629	-9.3070	-2.3057	0.0230	-0.0104	0.0155	-25.6378	11.0261	10.1615	0.1078	-0.0924	0.7830	-0.6055
5.68	-0.5597	-9.2976	-2.2972	0.0247	-0.0059	0.0102	-25.7350	10.7634	10.1737	0.1078	-0.0924	0.7831	-0.6055
5.69	-0.5631	-9.3063	-2.3099	0.0214	-0.0178	0.0094	-25.7373	10.9397	10.1837	0.1078	-0.0924	0.7830	-0.6056
5.7	-0.5555	-9.3040	-2.3089	0.0221	-0.0147	0.0132	-25.9613	10.8246	10.0734	0.1079	-0.0924	0.7830	-0.6055
5.71	-0.5427	-9.3050	-2.3085	0.0225	-0.0079	0.0111	-25.9743	11.1051	10.1847	0.1079	-0.0924	0.7831	-0.6056
5.72	-0.5366	-9.3139	-2.3123	0.0199	-0.0099	0.0105	-25.8078	11.0981	9.9827	0.1079	-0.0923	0.7830	-0.6056
5.73	-0.5227	-9.3103	-2.3067	0.0220	-0.0096	0.0154	-26.0260	10.9983	10.0619	0.1079	-0.0923	0.7830	-0.6056
5.74	-0.5152	-9.3072	-2.2982	0.0198	-0.0170	0.0098	-26.0350	11.2277	9.9862	0.1079	-0.0923	0.7829	-0.6056
5.75	-0.5131	-9.3141	-2.3007	0.0226	-0.0062	0.0077	-25.9452	10.9871	9.8722	0.1079	-0.0923	0.7830	-0.6056
5.76	-0.5105	-9.3119	-2.2980	0.0209	-0.0124	0.0090	-25.9153	10.9399	10.0858	0.1079	-0.0923	0.7830	-0.6056
5.77	-0.5084	-9.3043	-2.2921	0.0237	-0.0105	0.0050	-25.8583	10.9807	10.0620	0.1079	-0.0923	0.7829	-0.6057
5.78	-0.5130	-9.3073	-2.2976	0.0238	-0.0155	0.0129	-25.8886	10.9310	10.0999	0.1079	-0.0923	0.7829	-0.6057
5.79	-0.5201	-9.3064	-2.2900	0.0223	-0.0145	0.0143	-25.7661	10.9030	10.0399	0.1079	-0.0923	0.7829	-0.6057
5.8	-0.5170	-9.3115	-2.2874	0.0235	-0.0157	0.0148	-25.6197	10.7672	9.9832	0.1080	-0.0923	0.7829	-0.6057
5.81	-0.5159	-9.3011	-2.2886	0.0207	-0.0127	0.0134	-25.4273	10.6931	10.0061	0.1080	-0.0923	0.7828	-0.6057
5.82	-0.5331	-9.3010	-2.2838	0.0202	-0.0063	0.0060	-25.6196	10.8393	10.0093	0.1080	-0.0923	0.7829	-0.6058
5.83	-0.5388	-9.3188	-2.3081	0.0202	-0.0133	0.0145	-25.7567	10.7647	9.9753	0.1080	-0.0923	0.7829	-0.6058
5.84	-0.5390	-9.3010	-2.3076	0.0237	-0.0110	0.0107	-25.9255	10.8542	10.0750	0.1080	-0.0923	0.7829	-0.6058
5.85	-0.5403	-9.3033	-2.3051	0.0195	-0.0085	0.0132	-26.0811	11.0664	10.0601	0.1080	-0.0922	0.7828	-0.6058
5.86	-0.5438	-9.3206	-2.3251	0.0176	-0.0111	0.0099	-25.6506	10.9078	10.2418	0.1080	-0.0922	0.7828	-0.6058
5.87	-0.5554	-9.3053	-2.3205	0.0206	-0.0208	0.0086	-25.5218	10.8833	10.4049	0.1081	-0.0923	0.7828	-0.6058
5.88	-0.5765	-9.2984	-2.3119	0.0232	-0.0199	0.0164	-25.3637	10.8085	10.2447	0.1081	-0.0923	0.7828	-0.6058
5.89	-0.5871	-9.3092	-2.3219	0.0140	-0.0050	0.0082	-25.7070	11.0434	10.2675	0.1081	-0.0923	0.7829	-0.6058
5.9	-0.5943	-9.3043	-2.3163	0.0140	-0.0094	0.0087	-25.8689	11.2440	10.2306	0.1081	-0.0923	0.7828	-0.6058
5.91	-0.6016	-9.2986	-2.3162	0.0198	-0.0115	0.0031	-25.7825	11.2346	10.1716	0.1081	-0.0923	0.7829	-0.6058
5.92	-0.5993	-9.2935	-2.3062	0.0165	-0.0079	0.0098	-25.8139	10.9953	10.2014	0.1081	-0.0923	0.7828	-0.6058
5.93	-0.5917	-9.3097	-2.3146	0.0252	-0.0095	0.0045	-25.8214	11.0775	10.1627	0.1081	-0.0923	0.7828	-0.6058
5.94	-0.5717	-9.2997	-2.3096	0.0147	-0.0112	0.0053	-25.9262	10.8237	10.2427	0.1081	-0.0923	0.7828	-0.6058
5.95	-0.5503	-9.3001	-2.2879	0.0156	-0.0093	0.0077	-25.8090	11.1239	9.9986	0.1081	-0.0923	0.7828	-0.6058
5.96	-0.5298	-9.3158	-2.2913	0.0198	-0.0100	0.0065	-25.7787	10.9612	10.0260	0.1081	-0.0923	0.7829	-0.6059
5.97	-0.5128	-9.3119	-2.2785	0.0155	-0.0125	0.0078	-25.8690	11.0749	10.2319	0.1081	-0.0923	0.7828	-0.6058
5.98	-0.5128	-9.3037	-2.2793	0.0157	-0.0128	0.0058	-25.8490	10.9932	10.1613	0.1081	-0.0924	0.7829	-0.6058
5.99	-0.5153	-9.3119	-2.2751	0.0191	-0.0147	0.0100	-25.7242	10.7824	10.2150	0.1081	-0.0924	0.7828	-0.6058
6	-0.5216	-9.3192	-2.2877	0.0135	-0.0157	0.0072	-25.7070	10.9953	10.1696	0.1081	-0.0924	0.7828	-0.6058
6.01	-0.5283	-9.3053	-2.2762	0.0153	-0.0196	0.0107	-25.8006	10.8004	10.2204	0.1081	-0.0924	0.7828	-0.6058
6.02	-0.5340	-9.3097	-2.2805	0.0075	-0.0153	0.0089	-25.7447	10.7682	10.1006	0.1081	-0.0924	0.7828	-0.6057
6.03	-0.5326	-9.3168	-2.2953	0.0097	-0.0121	0.0058	-25.6489	11.2617	10.1001	0.1081	-0.0924	0.7829	-0.6057
6.04	-0.5246	-9.3084	-2.3023	0.0160	-0.0168	0.0130	-25.7307	10.8375	10.0804	0.1082	-0.0925	0.7829	-0.6057
6.05	-0.5152	-9.2962	-2.2940	0.0210	-0.0105	0.0091	-25.7792	10.9363	10.1821	0.1082	-0.0925	0.7829	-0.6057
6.06	-0.5047	-9.3037	-2.3052	0.0153	-0.0111	0.0102	-25.8266	11.1258	10.1001	0.1082	-0.0924	0.7828	-0.6056
6.07	-0.5007	-9.3179	-2.3211	0.0163	-0.0095	0.0102	-25.6047	10.8600	10.1106	0.1082	-0.0925	0.7829	-0.6057
6.08	-0.4959	-9.3028	-2.3184	0.0152	-0.0045	0.0088	-25.9722	10.9842	10.2321	0.1082	-0.0924	0.7829	-0.6057
6.09	-0.5011	-9.3000	-2.3148	0.0203	-0.0048	0.0050	-25.9266	10.7396	10.1016	0.1081	-0.0924	0.7829	-0.6057
6.1	-0.5110	-9.3164	-2.3356	0.0209	-0.0085	0.0086	-25.6847	10.8554	10.1077	0.1081	-0.0924	0.7829	-0.6057
6.11	-0.5271	-9.3076	-2.3228	0.0169	-0.0053	0.0087	-25.7626	11.0383	10.0968	0.1081	-0.0924	0.7829	-0.6057
6.12	-0.5356	-9.3014	-2.3166	0.0196	-0.0004	0.0077	-25.9961	10.7980	10.1248	0.1080	-0.0924	0.7829	-0.6057
6.13	-0.5383	-9.3092	-2.3180	0.0226	-0.0032	0.0031	-25.8838	10.9263	10.3177	0.1080	-0.0924	0.7828	-0.6057
6.14	-0.5404	-9.3084	-2.3259	0.0232	-0.0019	0.0085	-25.8053	10.9136	10.1174	0.1080	-0.0924	0.7829	-0.6058
6.15	-0.5366	-9.3034	-2.3137	0.0147	-0.0071	0.0074	-25.7844	11.0855	9.8733	0.1079	-0.0923	0.7829	-0.6058
6.16	-0.5353	-9.3126	-2.3129	0.0246	-0.0065	0.0071	-25.8808	11.0375	10.2034	0.1079	-0.0923	0.7829	-0.6058
6.17	-0.5297	-9.3150	-2.3179	0.0185	-0.0089	0.0153	-25.8947	10.8262	10.1839	0.1079	-0.0923	0.7828	-0.6058
6.18	-0.5264	-9.3098	-2.3098	0.0146	-0.0066	0.0068	-25.7864	10.7029	10.1978	0.1079	-0.0923	0.7829	-0.6058
6.19	-0.5249	-9.3014	-2.3068	0.0180	-0.0069	0.0046	-25.8087	10.8686	10.1848	0.1079	-0.0923	0.7829	-0.6058
6.2	-0.5233	-9.3139	-2.3193	0.0118	-0.0116	0.0105	-25.5419	10.9435	10.2038	0.1079	-0.0923	0.7828	-0.6057
6.21	-0.5252	-9.3107	-2.3244	0.0144	-0.0101	0.0099	-25.5762	10.8385	10.0990	0.1079	-0.0923	0.7829	-0.6058
6.22	-0.5277	-9.2983	-2.3133	0.0175	-0.0098	0.0080	-25.8016	10.7977	9.9719	0.1079	-0.0923	0.7829	-0.6057
6.23	-0.5347	-9.3030	-2.3208	0.0251	-0.0065	0.0089	-26.0014	10.7663	10.1093	0.1079	-0.0923	0.7829	-0.6058
6.24	-0.5432	-9.3075	-2.3174	0.0191	-0.0081	0.0083	-25.7950	10.9590	10.0860	0.1079	-0.0923	0.7828	-0.6057
6.25	-0.5485	-9.3037	-2.3050	0.0195	-0.0081	0.0149	-25.7180	10.8860	10.1413	0.1079	-0.0923	0.7829	-0.6058
6.26	-0.5520	-9.3032	-2.3040	0.0145	-0.0076	0.0103	-25.7188	10.9884	10.1811	0.1079	-0.0923	0.7829	-0.6058
6.27	-0.5549	-9.3086	-2.3076	0.0126	-0.0048	0.0065	-25.7958	10.9961	10.2728	0.1078	-0.0922	0.7829	-0.6057
6.28	-0.5616	-9.3036	-2.2941	0.0139	-0.0083	0.0066	-25.8271	11.0131	10.2596	0.1078	-0.0923	0.7829	-0.6058
6.29	-0.5706	-9.2971	-2.2814	0.0074	-0.0124	0.0058	-25.6655	10.9669	10.1921	0.1078	-0.0923	0.7829	-0.6057
6.3	-0.5749	-9.3122	-2.2938	0.0146	-0.0092	0.0077	-25.6688	10.9167	10.3322	0.1078	-0.0923	0.7830	-0.6057
6.31	-0.5691	-9.3137	-2.2941	0.0131	-0.0069	0.0051	-25.9125	10.9058	10.1696	0.1078	-0.0923	0.7829	-0.6056
6.32	-0.5678	-9.3025	-2.2868	0.0176	-0.0120	0.0090	-25.9578	11.0534	10.0722	0.1078	-0.0923	0.7830	-0.6057
6.33	-0.5682	-9.3058	-2.2903	0.0116	-0.0108	0.0043	-25.9936	11.0423	10.1237	0.1078	-0.0923	0.7830	-0.6057
6.34	-0.5607	-9.3098	-2.3077	0.0212	-0.0080	0.0098	-25.8735	10.7301	10.0159	0.1078	-0.0923	0.7830	-0.6057
6.35	-0.5595	-9.2970	-2.3004	0.0140	-0.0108	0.0135	-25.9202	10.8373	10.1024	0.1078	-0.0923	0.7830	-0.6056
6.36	-0.5557	-9.3003	-2.3054	0.0150	-0.0101	0.0112	-25.8010	10.8541	10.2232	0.1078	-0.0923	0.7830	-0.6056
6.37	-0.5497	-9.3117	-2.3171	0.0202	-0.0069	0.0084	-25.3908	10.9976	10.3804	0.1078	-0.0923	0.7830	-0.6057
6.38	-0.5325	-9.3097	-2.3255	0.0195	-0.0115	0.0145	-25.4235	10.9798	10.5935	0.1078	-0.0923	0.7829	-0.6056
6.39	-0.5216	-9.3055	-2.3185	0.0235	-0.0125	0.0056	-25.4897	10.7474	10.2651	0.1078	-0.0923	0.7830	-0.6057
6.4	-0.5207	-9.3091	-2.3096	0.0181	-0.0076	0.0106	-25.6684	10.8071	10.1635	0.1078	-0.0923	0.7829	-0.6057
6.41	-0.5190	-9.3167	-2.3190	0.0226	-0.0090	0.0176	-25.6205	11.1920	10.2097	0.1078	-0.0922	0.7830	-0.6057
6.42	-0.5260	-9.3019	-2.3131	0.0253	-0.0052	0.0124	-25.7332	10.7939	10.0820	0.1078	-0.0922	0.7829	-0.6057
6.43	-0.5438	-9.3014	-2.3158	0.0181	-0.0112	0.0156	-25.8417	10.8169	10.0925	0.1078	-0.0922	0.7829	-0.6057
6.44	-0.5651	-9.3017	-2.3296	0.0192	-0.0077	0.0151	-25.7690	10.5607	10.1121	0.1078	-0.0921	0.7829	-0.6057
6.45	-0.5801	-9.2918	-2.3404	0.0243	-0.0070	0.0070	-25.9570	10.9282	10.0130	0.1078	-0.0921	0.7829	-0.6057
6.46	-0.5808	-9.3025	-2.3311	0.0226	-0.0084	0.0047	-26.0579	10.9015	9.8874	0.1078	-0.0921	0.7830	-0.6058
6.47	-0.5659	-9.3085	-2.3315	0.0260	-0.0047	0.0102	-25.8064	11.0696	10.2229	0.1078	-0.0921	0.7829	-0.6058
6.48	-0.5553	-9.2954	-2.3134	0.0173	-0.0078	0.0095	-25.8544	11.0408	10.2710	0.1078	-0.0921	0.7829	-0.6058
6.49	-0.5349	-9.3039	-2.3097	0.0200	-0.0072	0.0084	-26.0717	10.8736	10.2627	0.1077	-0.0921	0.7828	-0.6058
6.5	-0.5073	-9.3208	-2.3049	0.0256	-0.0088	0.0104	-26.0483	11.0462	10.2511	0.1078	-0.0921	0.7829	-0.6059
6.51	-0.4938	-9.3144	-2.2905	0.0248	-0.0088	0.0072	-25.9097	11.0624	10.1070	0.1077	-0.0921	0.7828	-0.6059
6.52	-0.4870	-9.2957	-2.2783	0.0228	-0.0061	0.0079	-25.8723	10.8867	10.0611	0.1077	-0.0921	0.7828	-0.6059
6.53	-0.4846	-9.3156	-2.2839	0.0250	-0.0083	0.0151	-25.9176	10.9412	10.2054	0.1077	-0.0920	0.7828	-0.6059
6.54	-0.4791	-9.3289	-2.2830	0.0246	-0.0142	0.0145	-25.7329	10.9745	10.2733	0.1078	-0.0920	0.7828	-0.6059
6.55	-0.4871	-9.3069	-2.2680	0.0261	-0.0086	0.0093	-25.6079	10.7084	10.2900	0.1078	-0.0920	0.7828	-0.6060
6.56	-0.5029	-9.2953	-2.2741	0.0205	-0.0070	0.0128	-25.8204	10.8580	10.1821	0.1078	-0.0920	0.7827	-0.6059
6.57	-0.5151	-9.3143	-2.2933	0.0194	-0.0068	0.0158	-25.8234	10.8020	10.0792	0.1078	-0.0920	0.7828	-0.6060
6.58	-0.5170	-9.3130	-2.3049	0.0209	-0.0091	0.0109	-25.7590	10.7270	10.0876	0.1078	-0.0919	0.7827	-0.6060
6.59	-0.5178	-9.2948	-2.3098	0.0239	-0.0143	0.0075	-25.7182	10.7755	10.1621	0.1078	-0.0919	0.7827	-0.6060
6.6	-0.5312	-9.2961	-2.3141	0.0186	-0.0105	0.0092	-25.7327	10.6402	10.2102	0.1078	-0.0919	0.7827	-0.6060
6.61	-0.5469	-9.3059	-2.3207	0.0195	-0.0072	0.0082	-25.7437	10.8132	10.1729	0.1078	-0.0919	0.7827	-0.6060
6.62	-0.5544	-9.2991	-2.3249	0.0225	-0.0162	0.0112	-26.0438	10.9776	10.3833	0.1078	-0.0920	0.7827	-0.6061
6.63	-0.5492	-9.3008	-2.3200	0.0242	-0.0128	0.0101	-25.7779	10.7120	10.2400	0.1078	-0.0919	0.7826	-0.6060
6.64	-0.5538	-9.3071	-2.3187	0.0220	-0.0104	0.0014	-25.8727	10.8763	10.3208	0.1078	-0.0920	0.7827	-0.6061
6.65	-0.5623	-9.2997	-2.3094	0.0156	-0.0120	0.0062	-25.6992	11.0477	10.2835	0.1078	-0.0920	0.7827	-0.6061
6.66	-0.5641	-9.3034	-2.3112	0.0204	-0.0129	0.0145	-25.7463	11.1726	10.1192	0.1078	-0.0920	0.7827	-0.6061
6.67	-0.5731	-9.3129	-2.3095	0.0128	-0.0030	0.0157	-26.0084	11.0753	10.2774	0.1078	-0.0919	0.7826	-0.6060
6.68	-0.5727	-9.3073	-2.3054	0.0152	-0.0074	0.0134	-25.9931	10.8528	10.3950	0.1078	-0.0919	0.7827	-0.6061
6.69	-0.5842	-9.2960	-2.2859	0.0194	-0.0096	0.0084	-26.0575	10.9662	10.4232	0.1078	-0.0919	0.7827	-0.6061
6.7	-0.5955	-9.3043	-2.2951	0.0170	-0.0077	0.0092	-25.8597	11.0209	10.2465	0.1078	-0.0919	0.7826	-0.6060
6.71	-0.5971	-9.3066	-2.3011	0.0206	-0.0052	0.0107	-26.0039	10.8610	10.1707	0.1078	-0.0919	0.7827	-0.6061
6.72	-0.5971	-9.3022	-2.3030	0.0178	-0.0102	0.0102	-26.0845	10.8500	10.3132	0.1078	-0.0919	0.7827	-0.6061
6.73	-0.5925	-9.2972	-2.3026	0.0212	-0.0137	0.0109	-25.7653	10.9325	10.1530	0.1078	-0.0919	0.7827	-0.6061
6.74	-0.5828	-9.3101	-2.3199	0.0175	-0.0075	0.0127	-25.7238	10.9228	10.3731	0.1078	-0.0919	0.7826	-0.6060
6.75	-0.5612	-9.3060	-2.3248	0.0244	-0.0050	0.0084	-25.6264	10.6819	10.2374	0.1078	-0.0919	0.7827	-0.6061
6.76	-0.5469	-9.3025	-2.3287	0.0209	-0.0068	0.0061	-25.7133	10.8777	10.3434	0.1078	-0.0919	0.7827	-0.6061
6.77	-0.5354	-9.3016	-2.3409	0.0122	-0.0165	0.0069	-25.7339	10.8637	10.2892	0.1078	-0.0919	0.7826	-0.6061
6.78	-0.5231	-9.3104	-2.3540	0.0145	-0.0077	0.0062	-25.8315	10.8110	10.2568	0.1078	-0.0919	0.7827	-0.6061
6.79	-0.5067	-9.3061	-2.3548	0.0137	-0.0070	0.0082	-25.7838	10.8436	10.2773	0.1078	-0.0919	0.7827	-0.6061
6.8	-0.4921	-9.3030	-2.3513	0.0205	-0.0076	0.0075	-25.6991	10.8312	10.2753	0.1078	-0.0919	0.7827	-0.6061
6.81	-0.4909	-9.3027	-2.3457	0.0254	-0.0116	0.0107	-25.8151	10.8152	10.1956	0.1078	-0.0919	0.7826	-0.6061
6.82	-0.4938	-9.3086	-2.3466	0.0225	-0.0060	0.0119	-25.8133	10.9575	10.1530	0.1078	-0.0919	0.7827	-0.6062
6.83	-0.5045	-9.3052	-2.3468	0.0230	-0.0100	0.0047	-25.8009	10.9877	10.2195	0.1078	-0.0919	0.7826	-0.6061
6.84	-0.5072	-9.2976	-2.3385	0.0235	-0.0090	0.0079	-25.8688	11.0668	10.3029	0.1078	-0.0919	0.7826	-0.6062
6.85	-0.5059	-9.3032	-2.3422	0.0242	-0.0111	0.0102	-25.9918	11.0806	10.0414	0.1078	-0.0919	0.7826	-0.6062
6.86	-0.5055	-9.3059	-2.3382	0.0183	-0.0141	0.0066	-25.9507	10.9679	10.2451	0.1078	-0.0919	0.7826	-0.6062
6.87	-0.5090	-9.3130	-2.3358	0.0212	-0.0101	0.0122	-25.6564	11.0011	10.4432	0.1078	-0.0919	0.7826	-0.6062
6.88	-0.5087	-9.3065	-2.3329	0.0214	-0.0081	0.0049	-25.3937	11.0065	10.4603	0.1078	-0.0919	0.7825	-0.6062
6.89	-0.5073	-9.3083	-2.3230	0.0160	-0.0099	0.0067	-25.5118	10.9585	10.2223	0.1078	-0.0919	0.7826	-0.6063
6.9	-0.4962	-9.3171	-2.3275	0.0243	-0.0051	0.0055	-25.6909	11.0634	10.2789	0.1077	-0.0919	0.7826	-0.6062
6.91	-0.4909	-9.3128	-2.3193	0.0245	-0.0152	0.0110	-25.7528	11.1278	10.0628	0.1078	-0.0919	0.7826	-0.6063
6.92	-0.4904	-9.3045	-2.3175	0.0214	-0.0110	0.0136	-25.5373	11.0220	10.2936	0.1078	-0.0919	0.7825	-0.6062
6.93	-0.5001	-9.3088	-2.3101	0.0236	-0.0108	0.0101	-25.6002	10.8490	10.3810	0.1078	-0.0919	0.7825	-0.6063
6.94	-0.5083	-9.3131	-2.3031	0.0237	-0.0129	0.0150	-25.6590	10.7400	10.1940	0.1078	-0.0919	0.7825	-0.6063
6.95	-0.5225	-9.3133	-2.2958	0.0230	-0.0102	0.0147	-25.6364	10.7582	10.1929	0.1078	-0.0918	0.7824	-0.6063
6.96	-0.5355	-9.3047	-2.2852	0.0245	-0.0059	0.0145	-25.6487	10.6869	10.1960	0.1079	-0.0918	0.7825	-0.6064
6.97	-0.5506	-9.3062	-2.2861	0.0257	-0.0066	0.0124	-25.6516	10.8695	10.3211	0.1078	-0.0918	0.7824	-0.6064
6.98	-0.5746	-9.3105	-2.2976	0.0255	-0.0082	0.0097	-25.6225	10.8705	10.1959	0.1079	-0.0918	0.7825	-0.6064
6.99	-0.5858	-9.2969	-2.2861	0.0240	-0.0007	0.0130	-25.7384	11.0339	10.1943	0.1078	-0.0917	0.7824	-0.6064
7	-0.6002	-9.2925	-2.2891	0.0157	0.0063	0.0165	-25.8060	10.8746	10.1746	0.1078	-0.0917	0.7825	-0.6064
7.01	-0.6137	-9.2976	-2.2878	0.0225	-0.0052	0.0105	-25.8517	10.8033	10.2428	0.1078	-0.0916	0.7824	-0.6064
7.02	-0.6304	-9.3007	-2.2880	0.0224	-0.0070	0.0102	-25.9133	10.9161	10.2996	0.1078	-0.0916	0.7824	-0.6065
7.03	-0.6530	-9.2961	-2.2838	0.0229	0.0058	0.0071	-25.7908	10.9077	10.1677	0.1077	-0.0916	0.7824	-0.6065
7.04	-0.6552	-9.2924	-2.2787	0.0199	-0.0037	0.0058	-25.7989	10.9445	10.1922	0.1077	-0.0916	0.7824	-0.6065
7.05	-0.6621	-9.2981	-2.2671	0.0237	-0.0051	0.0073	-25.8231	10.8517	10.1895	0.1076	-0.0916	0.7824	-0.6066
7.06	-0.6612	-9.2995	-2.2555	0.0219	-0.0075	0.0062	-25.7005	10.8327	10.1892	0.1076	-0.0915	0.7823	-0.6065
7.07	-0.6563	-9.3060	-2.2486	0.0133	-0.0051	0.0081	-25.8537	11.0232	10.1933	0.1076	-0.0915	0.7824	-0.6066
7.08	-0.6402	-9.3073	-2.2468	0.0193	-0.0070	-0.0035	-25.8565	10.8476	10.1717	0.1075	-0.0916	0.7824	-0.6065
7.09	-0.6147	-9.3011	-2.2362	0.0162	-0.0138	0.0052	-25.7830	10.8071	10.2694	0.1075	-0.0916	0.7824	-0.6066
7.1	-0.5821	-9.3103	-2.2407	0.0214	-0.0159	0.0128	-25.8241	10.9621	10.2812	0.1076	-0.0916	0.7824	-0.6065
7.11	-0.5439	-9.3135	-2.2462	0.0222	-0.0107	0.0079	-25.6711	10.9673	10.1505	0.1076	-0.0916	0.7824	-0.6066
7.12	-0.5121	-9.3119	-2.2504	0.0200	-0.0067	0.0055	-25.8130	10.7736	10.2322	0.1076	-0.0916	0.7824	-0.6066
7.13	-0.4805	-9.3023	-2.2458	0.0148	-0.0096	0.0070	-25.7287	10.8917	10.0831	0.1075	-0.0916	0.7823	-0.6065
7.14	-0.4563	-9.3121	-2.2653	0.0210	-0.0103	0.0068	-25.7198	10.5848	10.1278	0.1075	-0.0917	0.7824	-0.6066
7.15	-0.4463	-9.3133	-2.2868	0.0222	-0.0081	0.0090	-25.5980	10.8036	10.2248	0.1075	-0.0916	0.7824	-0.6066
7.16	-0.4580	-9.3131	-2.3031	0.0059	-0.0060	0.0073	-25.7952	11.0278	10.3885	0.1075	-0.0917	0.7825	-0.6066
7.17	-0.4606	-9.3155	-2.3207	0.0179	-0.0080	0.0079	-25.8254	10.9892	10.1621	0.1075	-0.0916	0.7824	-0.6065
7.18	-0.4570	-9.3204	-2.3306	0.0154	-0.0046	0.0072	-25.7884	11.0131	10.0976	0.1075	-0.0916	0.7824	-0.6065
7.19	-0.4470	-9.3171	-2.3446	0.0163	-0.0107	0.0072	-25.6722	11.0002	10.2357	0.1075	-0.0916	0.7824	-0.6065
7.2	-0.4415	-9.3078	-2.3405	0.0164	-0.0103	0.0132	-25.8838	10.9913	10.1307	0.1075	-0.0916	0.7824	-0.6065
7.21	-0.4400	-9.3112	-2.3538	0.0010	-0.0057	0.0068	-25.8873	11.1912	10.3348	0.1075	-0.0916	0.7825	-0.6065
7.22	-0.4313	-9.3047	-2.3586	0.0049	-0.0050	0.0023	-25.7707	10.8782	10.1603	0.1074	-0.0917	0.7825	-0.6064
7.23	-0.4292	-9.3040	-2.3622	0.0176	-0.0028	0.0072	-25.6349	10.8247	10.1363	0.1074	-0.0916	0.7826	-0.6064
7.24	-0.4262	-9.3084	-2.3581	0.0195	-0.0016	0.0041	-25.7265	10.8400	10.2970	0.1073	-0.0916	0.7825	-0.6064
7.25	-0.4201	-9.3128	-2.3534	0.0178	0.0014	0.0079	-25.9285	10.9329	10.2764	0.1073	-0.0916	0.7825	-0.6064
7.26	-0.4271	-9.3116	-2.3493	0.0169	-0.0048	0.0101	-25.8488	10.9027	10.2260	0.1073	-0.0916	0.7825	-0.6064
7.27	-0.4485	-9.3089	-2.3379	0.0198	-0.0013	0.0104	-25.7105	10.9454	10.1638	0.1072	-0.0916	0.7825	-0.6064
7.28	-0.4754	-9.3079	-2.3311	0.0135	-0.0079	0.0133	-25.7423	10.7926	10.2070	0.1072	-0.0915	0.7826	-0.6064
7.29	-0.5093	-9.3084	-2.3297	0.0148	-0.0123	0.0164	-25.9215	11.0243	10.0364	0.1072	-0.0915	0.7826	-0.6064
7.3	-0.5408	-9.3149	-2.3291	0.0191	-0.0090	0.0134	-25.6561	11.0654	9.9822	0.1073	-0.0915	0.7826	-0.6064
7.31	-0.5669	-9.3125	-2.3280	0.0102	-0.0064	0.0163	-25.5658	10.9065	10.1266	0.1073	-0.0915	0.7825	-0.6063
7.32	-0.5932	-9.3053	-2.3176	0.0174	-0.0037	0.0165	-25.5547	10.9248	9.9700	0.1073	-0.0914	0.7826	-0.6064
7.33	-0.6075	-9.3001	-2.3078	0.0223	-0.0098	0.0130	-25.5707	10.8090	10.1122	0.1073	-0.0914	0.7826	-0.6064
7.34	-0.6230	-9.3021	-2.3038	0.0235	-0.0060	0.0119	-25.5453	10.8748	10.2867	0.1073	-0.0914	0.7826	-0.6064
7.35	-0.6305	-9.3034	-2.3041	0.0258	-0.0108	0.0084	-25.6700	10.7212	10.3794	0.1073	-0.0914	0.7826	-0.6064
7.36	-0.6418	-9.2970	-2.3122	0.0241	-0.0100	0.0149	-25.8466	10.9122	10.3420	0.1073	-0.0914	0.7825	-0.6064
7.37	-0.6513	-9.2951	-2.3024	0.0172	-0.0081	0.0068	-25.5812	11.0867	10.2258	0.1073	-0.0914	0.7826	-0.6064
7.38	-0.6473	-9.3003	-2.3138	0.0222	-0.0113	0.0114	-25.2165	11.1016	10.3998	0.1073	-0.0914	0.7825	-0.6064
7.39	-0.6482	-9.2971	-2.3186	0.0203	-0.0049	0.0106	-25.4055	11.1086	10.1005	0.1073	-0.0914	0.7826	-0.6065
7.4	-0.6515	-9.2953	-2.3168	0.0239	-0.0043	0.0098	-25.8436	11.0313	10.0642	0.1073	-0.0913	0.7825	-0.6065
7.41	-0.6557	-9.2948	-2.3271	0.0242	-0.0027	0.0091	-26.0721	11.1160	10.1572	0.1073	-0.0913	0.7826	-0.6065
7.42	-0.6587	-9.2993	-2.3262	0.0182	-0.0102	0.0075	-25.8303	10.9538	10.2795	0.1072	-0.0913	0.7825	-0.6065
7.43	-0.6576	-9.2929	-2.3235	0.0162	-0.0116	0.0056	-25.9180	11.1131	10.1183	0.1072	-0.0913	0.7825	-0.6065
7.44	-0.6540	-9.3037	-2.3317	0.0238	-0.0116	0.0055	-25.7443	10.9832	10.0763	0.1072	-0.0913	0.7825	-0.6065
7.45	-0.6426	-9.3017	-2.3429	0.0203	-0.0071	0.0050	-25.7072	11.0445	10.0894	0.1072	-0.0913	0.7824	-0.6065
7.46	-0.6278	-9.2952	-2.3380	0.0241	-0.0053	0.0018	-25.6730	11.1798	10.1802	0.1072	-0.0914	0.7825	-0.6066
7.47	-0.6116	-9.2990	-2.3314	0.0240	-0.0127	0.0098	-25.8149	11.1168	10.1744	0.1072	-0.0914	0.7824	-0.6066
7.48	-0.5937	-9.3074	-2.3370	0.0232	-0.0107	0.0066	-26.0022	10.9585	10.1714	0.1072	-0.0914	0.7825	-0.6066
7.49	-0.5812	-9.3063	-2.3276	0.0254	-0.0129	0.0056	-25.4797	10.6939	10.1145	0.1072	-0.0914	0.7824	-0.6066
7.5	-0.5678	-9.3002	-2.3231	0.0240	-0.0068	0.0052	-25.5670	10.8915	10.0554	0.1072	-0.0914	0.7824	-0.6066
7.51	-0.5510	-9.3027	-2.3280	0.0257	-0.0073	0.0070	-25.5248	10.8668	10.0302	0.1072	-0.0914	0.7824	-0.6067
7.52	-0.5368	-9.3076	-2.3297	0.0244	-0.0052	0.0077	-25.6040	10.7917	10.1970	0.1071	-0.0914	0.7823	-0.6067
7.53	-0.5269	-9.3003	-2.3262	0.0248	-0.0117	0.0058	-25.7439	10.9117	10.1758	0.1071	-0.0914	0.7824	-0.6067
7.54	-0.5197	-9.3031	-2.3246	0.0246	-0.0100	0.0066	-25.7714	11.0333	10.2940	0.1071	-0.0914	0.7823	-0.6067
7.55	-0.5166	-9.3095	-2.3328	0.0237	-0.0113	0.0084	-25.6789	11.0539	10.0077	0.1071	-0.0914	0.7823	-0.6068
7.56	-0.5061	-9.3080	-2.3308	0.0231	-0.0123	0.0098	-25.7175	10.7829	10.0145	0.1071	-0.0914	0.7822	-0.6067
7.57	-0.5026	-9.3034	-2.3262	0.0261	-0.0089	0.0086	-25.6828	10.9403	9.9861	0.1072	-0.0914	0.7823	-0.6068
7.58	-0.4994	-9.3174	-2.3401	0.0200	-0.0100	0.0040	-25.8861	11.0130	10.2186	0.1071	-0.0914	0.7823	-0.6068
7.59	-0.4880	-9.3118	-2.3358	0.0229	-0.0157	0.0079	-26.0336	11.1572	10.2157	0.1072	-0.0914	0.7823	-0.6068
7.6	-0.4792	-9.3010	-2.3209	0.0253	-0.0060	0.0043	-26.0445	11.0459	10.0431	0.1071	-0.0914	0.7822	-0.6069
7.61	-0.4765	-9.2984	-2.3089	0.0253	-0.0080	0.0077	-25.7567	10.9537	10.1193	0.1071	-0.0914	0.7822	-0.6069
7.62	-0.4620	-9.3171	-2.3127	0.0267	-0.0125	0.0038	-25.7416	11.0232	10.4393	0.1071	-0.0915	0.7822	-0.6069
7.63	-0.4585	-9.3251	-2.3169	0.0219	-0.0109	0.0033	-25.8824	11.1634	10.3492	0.1071	-0.0915	0.7821	-0.6069
7.64	-0.4617	-9.3014	-2.2945	0.0255	-0.0064	0.0063	-26.0645	11.0155	10.2437	0.1071	-0.0915	0.7822	-0.6070
7.65	-0.4752	-9.3001	-2.2829	0.0248	-0.0055	0.0046	-25.7123	10.9843	10.2450	0.1071	-0.0915	0.7821	-0.6070
7.66	-0.4827	-9.3179	-2.2862	0.0261	-0.0097	0.0095	-25.7869	11.1665	10.0822	0.1071	-0.0915	0.7822	-0.6071
7.67	-0.4833	-9.3120	-2.2770	0.0248	-0.0070	0.0098	-25.6938	11.0699	10.0846	0.1070	-0.0915	0.7820	-0.6070
7.68	-0.4912	-9.3136	-2.2676	0.0243	-0.0120	0.0050	-25.6265	10.8308	9.9916	0.1071	-0.0915	0.7821	-0.6071
7.69	-0.4895	-9.3104	-2.2564	0.0203	-0.0103	0.0107	-25.7285	11.0178	10.0072	0.1071	-0.0915	0.7821	-0.6071
7.7	-0.4914	-9.3008	-2.2411	0.0263	-0.0054	0.0124	-25.6948	10.8287	10.0059	0.1070	-0.0915	0.7820	-0.6071
7.71	-0.4897	-9.3063	-2.2307	0.0250	-0.0094	0.0090	-25.6981	10.7405	10.0967	0.1071	-0.0915	0.7821	-0.6072
7.72	-0.4922	-9.3198	-2.2318	0.0236	-0.0064	0.0164	-25.7401	10.8207	10.2681	0.1071	-0.0914	0.7820	-0.6071
7.73	-0.4891	-9.3179	-2.2230	0.0259	-0.0058	0.0124	-25.8067	10.6758	10.2084	0.1071	-0.0914	0.7820	-0.6072
7.74	-0.4901	-9.3089	-2.2121	0.0254	-0.0077	0.0105	-25.7831	10.8494	10.1846	0.1071	-0.0914	0.7819	-0.6072
7.75	-0.4951	-9.3152	-2.2161	0.0249	-0.0126	0.0163	-25.7808	10.7905	10.1506	0.1071	-0.0914	0.7820	-0.6072
7.76	-0.4988	-9.3167	-2.2218	0.0237	-0.0083	0.0159	-25.8174	10.7007	10.1110	0.1071	-0.0913	0.7819	-0.6072
7.77	-0.4994	-9.3068	-2.2152	0.0238	-0.0045	0.0116	-25.9441	10.8496	10.2324	0.1071	-0.0913	0.7819	-0.6072
7.78	-0.5060	-9.3035	-2.2164	0.0207	-0.0068	0.0132	-25.9691	11.1280	10.0244	0.1071	-0.0913	0.7820	-0.6073
7.79	-0.5089	-9.3100	-2.2251	0.0188	-0.0067	0.0162	-25.7830	11.0880	10.1570	0.1071	-0.0912	0.7819	-0.6073
7.8	-0.5111	-9.3122	-2.2245	0.0193	-0.0074	0.0050	-26.0795	10.9211	10.1314	0.1071	-0.0912	0.7820	-0.6073
7.81	-0.5123	-9.3105	-2.2336	0.0207	-0.0045	0.0107	-26.0497	11.0831	9.9737	0.1071	-0.0912	0.7819	-0.6072
7.82	-0.5225	-9.3099	-2.2489	0.0211	-0.0070	0.0141	-25.8268	11.0518	10.1093	0.1071	-0.0912	0.7820	-0.6073
7.83	-0.5298	-9.3084	-2.2529	0.0154	-0.0064	0.0152	-26.0102	10.9296	10.0858	0.1071	-0.0911	0.7819	-0.6073
7.84	-0.5370	-9.3106	-2.2613	0.0130	-0.0076	0.0158	-25.8515	11.0903	10.0715	0.1071	-0.0911	0.7820	-0.6073
7.85	-0.5428	-9.3089	-2.2798	0.0232	-0.0101	0.0124	-25.8190	10.8715	10.1953	0.1071	-0.0911	0.7819	-0.6073
7.86	-0.5425	-9.3068	-2.2784	0.0208	-0.0132	0.0193	-25.6167	10.6967	10.2987	0.1071	-0.0911	0.7820	-0.6073
7.87	-0.5470	-9.3078	-2.2877	0.0239	-0.0058	0.0149	-25.3452	10.7774	10.2687	0.1072	-0.0910	0.7820	-0.6073
7.88	-0.5484	-9.3076	-2.2902	0.0112	-0.0115	0.0131	-25.1760	10.6456	10.2917	0.1072	-0.0910	0.7819	-0.6072
7.89	-0.5480	-9.3100	-2.2973	0.0086	-0.0067	0.0123	-25.5240	10.8793	10.2328	0.1072	-0.0910	0.7820	-0.6072
7.9	-0.5496	-9.2998	-2.3089	0.0184	-0.0075	0.0169	-25.6985	11.0437	10.0729	0.1072	-0.0910	0.7820	-0.6072
7.91	-0.5580	-9.3078	-2.3251	0.0204	-0.0083	0.0112	-25.6210	11.1361	9.7769	0.1072	-0.0910	0.7821	-0.6073
7.92	-0.5604	-9.3079	-2.3358	0.0198	-0.0060	0.0161	-25.6530	10.9771	10.0490	0.1072	-0.0909	0.7820	-0.6072
7.93	-0.5670	-9.3001	-2.3378	0.0156	-0.0093	0.0134	-25.6912	11.2297	10.3136	0.1072	-0.0909	0.7820	-0.6072
7.94	-0.5704	-9.2943	-2.3454	0.0191	-0.0094	0.0144	-25.7519	10.8899	10.0926	0.1072	-0.0909	0.7820	-0.6072
7.95	-0.5761	-9.3072	-2.3632	0.0106	-0.0083	0.0063	-25.7461	10.7858	10.1116	0.1072	-0.0909	0.7820	-0.6071
7.96	-0.5784	-9.3031	-2.3619	0.0098	-0.0098	0.0114	-25.6215	11.0618	10.0927	0.1072	-0.0909	0.7821	-0.6072
7.97	-0.5838	-9.2960	-2.3516	0.0195	-0.0106	0.0161	-25.7437	11.0656	10.3903	0.1072	-0.0909	0.7821	-0.6071
7.98	-0.5828	-9.3037	-2.3617	0.0182	-0.0071	0.0104	-25.8454	10.9168	10.2774	0.1072	-0.0909	0.7821	-0.6072
7.99	-0.5875	-9.3042	-2.3543	0.0191	-0.0033	0.0089	-25.8863	10.9000	10.2887	0.1072	-0.0908	0.7820	-0.6071
8	-0.5921	-9.2999	-2.3526	0.0171	-0.0067	0.0138	-25.9088	11.0364	10.2279	0.1072	-0.0908	0.7821	-0.6071
8.01	-0.5948	-9.2968	-2.3486	0.0138	-0.0134	0.0051	-25.7420	10.9359	10.2156	0.1072	-0.0908	0.7821	-0.6071
8.02	-0.5891	-9.3039	-2.3583	0.0114	-0.0188	0.0070	-25.7418	10.9096	10.3222	0.1072	-0.0909	0.7821	-0.6070
8.03	-0.5828	-9.3041	-2.3522	0.0226	-0.0118	0.0068	-25.7419	10.9151	10.0739	0.1072	-0.0909	0.7821	-0.6071
8.04	-0.5774	-9.3061	-2.3481	0.0231	-0.0134	0.0098	-25.7196	10.9264	9.9697	0.1072	-0.0909	0.7821	-0.6071
8.05	-0.5686	-9.2979	-2.3533	0.0293	-0.0131	0.0143	-25.5684	10.8749	10.1227	0.1073	-0.0909	0.7821	-0.6071
8.06	-0.5610	-9.3033	-2.3623	0.0207	-0.0093	0.0067	-25.6392	10.7319	10.0031	0.1072	-0.0909	0.7820	-0.6071
8.07	-0.5532	-9.3038	-2.3681	0.0241	-0.0067	0.0089	-25.7704	10.7556	10.0608	0.1073	-0.0909	0.7821	-0.6072
8.08	-0.5518	-9.3010	-2.3720	0.0238	-0.0081	0.0109	-25.7051	10.7466	10.2288	0.1072	-0.0909	0.7820	-0.6072
8.09	-0.5591	-9.3049	-2.3738	0.0210	-0.0139	0.0062	-25.8307	11.0036	10.1918	0.1073	-0.0909	0.7820	-0.6072
8.1	-0.5633	-9.3107	-2.3780	0.0139	-0.0070	0.0034	-25.8015	10.9839	10.0780	0.1072	-0.0909	0.7820	-0.6072
8.11	-0.5669	-9.3021	-2.3785	0.0185	-0.0072	0.0114	-25.8533	10.9179	10.0214	0.1072	-0.0909	0.7820	-0.6072
8.12	-0.5690	-9.2990	-2.3759	0.0257	-0.0106	0.0067	-25.7048	11.0705	10.1316	0.1072	-0.0909	0.7820	-0.6072
8.13	-0.5688	-9.3004	-2.3769	0.0264	-0.0084	0.0091	-25.6361	11.1116	10.0712	0.1072	-0.0909	0.7819	-0.6072
8.14	-0.5585	-9.3041	-2.3733	0.0248	-0.0051	0.0086	-25.7566	10.9429	10.3214	0.1072	-0.0909	0.7820	-0.6073
8.15	-0.5505	-9.3036	-2.3659	0.0231	-0.0059	0.0076	-25.7638	10.8270	10.1030	0.1072	-0.0909	0.7820	-0.6073
8.16	-0.5365	-9.3098	-2.3660	0.0260	-0.0090	0.0074	-25.8476	10.9997	10.1402	0.1072	-0.0909	0.7820	-0.6073
8.17	-0.5357	-9.3086	-2.3561	0.0265	-0.0066	0.0025	-25.8183	11.0778	10.3116	0.1071	-0.0909	0.7819	-0.6073
8.18	-0.5338	-9.3019	-2.3464	0.0251	-0.0068	0.0071	-25.7215	11.1920	10.3294	0.1071	-0.0909	0.7819	-0.6074
8.19	-0.5349	-9.2982	-2.3393	0.0254	-0.0056	0.0017	-25.7968	10.9585	10.2675	0.1071	-0.0909	0.7819	-0.6074
8.2	-0.5484	-9.3006	-2.3344	0.0248	-0.0095	0.0067	-25.8398	10.8109	10.2084	0.1071	-0.0909	0.7818	-0.6074
8.21	-0.5550	-9.3044	-2.3305	0.0249	-0.0061	0.0033	-25.8078	11.0340	10.0754	0.1071	-0.0909	0.7819	-0.6075
8.22	-0.5621	-9.3044	-2.3219	0.0242	-0.0133	0.0074	-25.7047	10.9811	10.2364	0.1071	-0.0909	0.7818	-0.6074
8.23	-0.5627	-9.3069	-2.3115	0.0276	-0.0130	0.0122	-25.8139	11.0209	9.8988	0.1071	-0.0909	0.7819	-0.6075
8.24	-0.5588	-9.3029	-2.2977	0.0285	-0.0083	0.0084	-25.7521	10.9014	10.0293	0.1071	-0.0909	0.7817	-0.6075
8.25	-0.5535	-9.3067	-2.2906	0.0242	-0.0056	0.0094	-25.7130	10.8227	10.2125	0.1071	-0.0909	0.7818	-0.6076
8.26	-0.5514	-9.3098	-2.2782	0.0259	-0.0114	0.0109	-25.7861	10.8311	9.8910	0.1071	-0.0909	0.7817	-0.6076
8.27	-0.5407	-9.3094	-2.2717	0.0236	-0.0068	0.0080	-25.8385	10.8826	10.2985	0.1071	-0.0909	0.7817	-0.6076
8.28	-0.5377	-9.3119	-2.2689	0.0270	-0.0077	0.0055	-25.7339	11.1154	10.1692	0.1070	-0.0909	0.7817	-0.6076
8.29	-0.5388	-9.3076	-2.2685	0.0259	-0.0124	0.0118	-25.8446	11.0480	9.9367	0.1071	-0.0909	0.7817	-0.6076
8.3	-0.5383	-9.3085	-2.2595	0.0248	-0.0053	0.0063	-25.7896	10.9180	10.1043	0.1070	-0.0909	0.7817	-0.6077
8.31	-0.5457	-9.3106	-2.2595	0.0247	-0.0098	0.0076	-25.9061	10.9096	10.0857	0.1070	-0.0909	0.7816	-0.6076
8.32	-0.5504	-9.3103	-2.2627	0.0248	-0.0092	0.0049	-25.8908	10.9121	10.0216	0.1070	-0.0909	0.7817	-0.6077
8.33	-0.5584	-9.3044	-2.2668	0.0238	-0.0059	0.0031	-25.7565	11.0696	9.9650	0.1070	-0.0909	0.7816	-0.6077
8.34	-0.5628	-9.3048	-2.2663	0.0220	-0.0077	0.0063	-25.7228	11.0713	10.1727	0.1070	-0.0909	0.7816	-0.6078
8.35	-0.5550	-9.3048	-2.2681	0.0239	-0.0042	0.0069	-25.8335	11.1699	10.1841	0.1069	-0.0909	0.7816	-0.6078
8.36	-0.5492	-9.3060	-2.2719	0.0160	-0.0032	0.0056	-25.8023	11.1386	9.9547	0.1069	-0.0909	0.7816	-0.6078
8.37	-0.5394	-9.3049	-2.2760	0.0221	-0.0037	0.0040	-25.6320	11.0495	10.2609	0.1069	-0.0909	0.7816	-0.6078
8.38	-0.5267	-9.3106	-2.2792	0.0173	-0.0094	0.0072	-25.1797	11.1256	10.3560	0.1068	-0.0909	0.7816	-0.6077
8.39	-0.5156	-9.3113	-2.2819	0.0184	-0.0091	0.0051	-25.6199	10.9991	10.3615	0.1069	-0.0909	0.7817	-0.6078
8.4	-0.5045	-9.3102	-2.2831	0.0223	-0.0126	0.0066	-25.8067	11.1990	10.2506	0.1068	-0.0909	0.7816	-0.6078
8.41	-0.5024	-9.3046	-2.2827	0.0258	-0.0115	0.0101	-25.8236	11.2368	10.1196	0.1069	-0.0909	0.7817	-0.6079
8.42	-0.5003	-9.3080	-2.2867	0.0242	-0.0153	0.0151	-25.8709	10.9686	10.2737	0.1069	-0.0909	0.7815	-0.6078
8.43	-0.5029	-9.3128	-2.2915	0.0223	-0.0094	0.0134	-25.6520	10.8508	10.1219	0.1069	-0.0909	0.7816	-0.6078
8.44	-0.5050	-9.3080	-2.2929	0.0229	-0.0082	0.0109	-25.7139	10.6994	10.0735	0.1069	-0.0909	0.7816	-0.6078
8.45	-0.5136	-9.3077	-2.3006	0.0233	-0.0074	0.0144	-25.7021	10.8234	10.4456	0.1069	-0.0909	0.7815	-0.6078
8.46	-0.5154	-9.3134	-2.3088	0.0258	-0.0106	0.0137	-25.6889	10.8440	10.4311	0.1070	-0.0909	0.7816	-0.6079
8.47	-0.5171	-9.3052	-2.3049	0.0215	-0.0074	0.0151	-25.7468	10.9126	10.1628	0.1070	-0.0908	0.7815	-0.6079
8.48	-0.5175	-9.3098	-2.3039	0.0200	-0.0074	0.0108	-25.7408	10.9584	10.1761	0.1070	-0.0908	0.7816	-0.6079
8.49	-0.5184	-9.3075	-2.3048	0.0191	-0.0136	0.0105	-25.6632	11.0134	10.1572	0.1070	-0.0908	0.7815	-0.6078
8.5	-0.5239	-9.3066	-2.3045	0.0223	-0.0130	0.0126	-25.8386	10.8661	10.1718	0.1070	-0.0908	0.7815	-0.6079
8.51	-0.5217	-9.3128	-2.3079	0.0207	-0.0117	0.0121	-25.6930	11.0979	10.1416	0.1070	-0.0908	0.7815	-0.6079
8.52	-0.5181	-9.3131	-2.3045	0.0197	-0.0085	0.0105	-25.7703	10.7139	10.2408	0.1070	-0.0908	0.7815	-0.6079
8.53	-0.5183	-9.3026	-2.3031	0.0197	-0.0120	0.0090	-25.8710	10.7717	10.3725	0.1070	-0.0908	0.7815	-0.6079
8.54	-0.5163	-9.3014	-2.3018	0.0208	-0.0083	0.0078	-25.8921	11.1523	10.3018	0.1070	-0.0908	0.7815	-0.6079
8.55	-0.5235	-9.3153	-2.3108	0.0244	-0.0143	0.0062	-25.9680	11.0165	10.1735	0.1070	-0.0908	0.7815	-0.6079
8.56	-0.5254	-9.3078	-2.3055	0.0249	-0.0091	0.0088	-25.8691	11.1727	10.1294	0.1070	-0.0908	0.7814	-0.6079
8.57	-0.5313	-9.3034	-2.2982	0.0251	-0.0070	0.0077	-25.7299	11.1439	10.4020	0.1070	-0.0908	0.7815	-0.6080
8.58	-0.5396	-9.3068	-2.3021	0.0248	-0.0058	0.0124	-25.8969	11.0147	10.2489	0.1070	-0.0908	0.7814	-0.6080
8.59	-0.5447	-9.3122	-2.3061	0.0252	-0.0072	0.0119	-25.9127	11.2016	10.3074	0.1070	-0.0908	0.7815	-0.6080
8.6	-0.5481	-9.3063	-2.3010	0.0235	-0.0125	0.0173	-25.7588	10.8564	10.3643	0.1070	-0.0908	0.7814	-0.6080
8.61	-0.5506	-9.3016	-2.2925	0.0203	-0.0140	0.0095	-25.8903	10.7399	10.0766	0.1071	-0.0908	0.7814	-0.6080
8.62	-0.5503	-9.3082	-2.3020	0.0244	-0.0091	0.0105	-25.6606	11.0450	10.3109	0.1071	-0.0908	0.7814	-0.6080
8.63	-0.5498	-9.3069	-2.2974	0.0262	-0.0044	0.0162	-25.4695	10.8867	10.3739	0.1071	-0.0907	0.7813	-0.6080
8.64	-0.5514	-9.3064	-2.2895	0.0213	-0.0079	0.0082	-25.4358	10.9405	10.1266	0.1071	-0.0907	0.7814	-0.6081
8.65	-0.5535	-9.3115	-2.2908	0.0213	-0.0060	0.0151	-25.5045	10.7192	10.2121	0.1071	-0.0907	0.7814	-0.6081
8.66	-0.5486	-9.3139	-2.2980	0.0221	-0.0128	0.0144	-25.7853	10.6583	10.3505	0.1071	-0.0907	0.7814	-0.6081
8.67	-0.5461	-9.3039	-2.2888	0.0214	-0.0137	0.0098	-25.7836	10.9675	10.3435	0.1071	-0.0907	0.7813	-0.6080
8.68	-0.5483	-9.3045	-2.2921	0.0257	-0.0084	0.0056	-25.6764	10.8294	10.2278	0.1071	-0.0907	0.7814	-0.6081
8.69	-0.5465	-9.3021	-2.2988	0.0240	-0.0100	0.0114	-25.7143	10.9131	10.0982	0.1071	-0.0907	0.7813	-0.6081
8.7	-0.5457	-9.3029	-2.2912	0.0252	-0.0111	0.0115	-25.6684	11.0928	10.0604	0.1071	-0.0907	0.7813	-0.6081
8.71	-0.5413	-9.3073	-2.2894	0.0241	-0.0050	0.0110	-25.9105	11.0705	10.1742	0.1071	-0.0907	0.7814	-0.6082
8.72	-0.5376	-9.3067	-2.2876	0.0200	-0.0096	0.0067	-25.9359	11.1587	10.2900	0.1071	-0.0907	0.7813	-0.6082
8.73	-0.5350	-9.3078	-2.2903	0.0245	-0.0067	0.0109	-25.9843	10.7528	10.3643	0.1071	-0.0906	0.7813	-0.6082
8.74	-0.5398	-9.3139	-2.2945	0.0253	-0.0034	0.0102	-25.7629	11.0331	10.2428	0.1071	-0.0906	0.7812	-0.6082
8.75	-0.5311	-9.3038	-2.2844	0.0252	-0.0017	0.0116	-25.6182	10.9287	10.3661	0.1071	-0.0906	0.7813	-0.6082
8.76	-0.5280	-9.3043	-2.2914	0.0252	-0.0039	0.0062	-26.0466	11.1305	9.9629	0.1070	-0.0906	0.7813	-0.6083
8.77	-0.5329	-9.3161	-2.3100	0.0250	-0.0044	0.0102	-25.9343	11.2933	10.1122	0.1070	-0.0905	0.7812	-0.6083
8.78	-0.5391	-9.3071	-2.3044	0.0247	-0.0120	0.0145	-25.9530	11.0250	10.2902	0.1070	-0.0905	0.7813	-0.6083
8.79	-0.5516	-9.2969	-2.2992	0.0225	-0.0133	0.0120	-25.7933	10.9599	10.2003	0.1071	-0.0905	0.7812	-0.6083
8.8	-0.5493	-9.3037	-2.3070	0.0257	-0.0150	0.0134	-25.6124	10.6806	10.1532	0.1071	-0.0905	0.7812	-0.6083
8.81	-0.5518	-9.3121	-2.3209	0.0232	-0.0090	0.0110	-25.6112	10.9469	10.2541	0.1071	-0.0905	0.7811	-0.6083
8.82	-0.5516	-9.3058	-2.3092	0.0213	-0.0069	0.0078	-25.7210	10.8741	10.1624	0.1071	-0.0905	0.7812	-0.6084
8.83	-0.5535	-9.3089	-2.3203	0.0231	-0.0079	0.0104	-25.8061	10.8343	10.1511	0.1071	-0.0905	0.7812	-0.6083
8.84	-0.5494	-9.3074	-2.3242	0.0244	-0.0165	0.0099	-25.7103	10.7482	10.2342	0.1071	-0.0905	0.7812	-0.6084
8.85	-0.5416	-9.3038	-2.3207	0.0245	-0.0162	0.0056	-25.6139	10.8299	10.4377	0.1071	-0.0906	0.7811	-0.6084
8.86	-0.5423	-9.3059	-2.3267	0.0220	-0.0115	0.0125	-25.7384	11.0490	10.5831	0.1072	-0.0906	0.7811	-0.6084
8.87	-0.5402	-9.3084	-2.3293	0.0185	-0.0116	0.0091	-25.4709	10.9250	10.5674	0.1072	-0.0906	0.7812	-0.6084
8.88	-0.5394	-9.3043	-2.3216	0.0205	-0.0137	0.0144	-25.1755	10.8276	10.4522	0.1072	-0.0906	0.7811	-0.6083
8.89	-0.5376	-9.2999	-2.3272	0.0164	-0.0066	0.0084	-25.4260	11.0637	10.2016	0.1072	-0.0906	0.7812	-0.6084
8.9	-0.5359	-9.3070	-2.3293	0.0181	-0.0029	0.0056	-25.7489	11.2368	10.2531	0.1072	-0.0906	0.7811	-0.6084
8.91	-0.5330	-9.3076	-2.3244	0.0223	-0.0064	0.0060	-25.7167	11.0236	10.3116	0.1071	-0.0906	0.7812	-0.6084
8.92	-0.5333	-9.3051	-2.3206	0.0186	-0.0067	0.0075	-25.8664	11.0055	10.2872	0.1071	-0.0906	0.7811	-0.6083
8.93	-0.5332	-9.3090	-2.3239	0.0191	-0.0024	0.0054	-25.8906	11.1753	10.2428	0.1071	-0.0906	0.7812	-0.6084
8.94	-0.5372	-9.3069	-2.3194	0.0248	-0.0035	0.0030	-25.8277	11.0478	10.2232	0.1070	-0.0906	0.7812	-0.6084
8.95	-0.5502	-9.3021	-2.3116	0.0217	-0.0012	0.0077	-25.7642	11.0902	10.3232	0.1070	-0.0905	0.7811	-0.6084
8.96	-0.5504	-9.3122	-2.3143	0.0189	-0.0061	0.0079	-25.7469	11.0896	10.1630	0.1070	-0.0905	0.7812	-0.6085
8.97	-0.5501	-9.3120	-2.3223	0.0270	-0.0059	0.0089	-25.8651	11.0422	10.2200	0.1070	-0.0905	0.7811	-0.6084
8.98	-0.5503	-9.3024	-2.3215	0.0164	-0.0097	0.0063	-25.8002	10.9812	10.1896	0.1070	-0.0905	0.7812	-0.6085
8.99	-0.5410	-9.2969	-2.3143	0.0177	-0.0131	0.0116	-25.8701	11.0074	10.2131	0.1070	-0.0905	0.7811	-0.6084
9	-0.5356	-9.3060	-2.3215	0.0178	-0.0067	0.0097	-25.6642	10.7930	10.1819	0.1070	-0.0905	0.7812	-0.6084
9.01	-0.5372	-9.3131	-2.3223	0.0183	-0.0067	0.0073	-25.7625	11.0120	10.0823	0.1069	-0.0905	0.7812	-0.6084
9.02	-0.5333	-9.3080	-2.3104	0.0180	-0.0074	0.0113	-25.8729	10.9712	10.1865	0.1069	-0.0905	0.7812	-0.6084
9.03	-0.5332	-9.3092	-2.3065	0.0190	-0.0061	0.0128	-25.6457	11.1907	10.2194	0.1069	-0.0905	0.7812	-0.6084
9.04	-0.5458	-9.3118	-2.3115	0.0207	-0.0107	0.0081	-25.7816	11.2758	10.0211	0.1069	-0.0905	0.7812	-0.6084
9.05	-0.5457	-9.3040	-2.3070	0.0193	-0.0098	0.0065	-25.7424	11.0010	10.2924	0.1069	-0.0905	0.7812	-0.6084
9.06	-0.5493	-9.3057	-2.2979	0.0259	-0.0113	0.0107	-25.7535	11.0032	10.1846	0.1069	-0.0905	0.7811	-0.6084
9.07	-0.5481	-9.3134	-2.3048	0.0213	-0.0110	0.0080	-25.7545	11.0684	10.2459	0.1069	-0.0905	0.7812	-0.6084
9.08	-0.5477	-9.3102	-2.3021	0.0195	-0.0010	0.0057	-25.8823	11.1440	10.3808	0.1069	-0.0905	0.7811	-0.6084
9.09	-0.5497	-9.3035	-2.2933	0.0247	-0.0008	0.0073	-25.7447	11.1036	10.1847	0.1069	-0.0905	0.7812	-0.6085
9.1	-0.5506	-9.3101	-2.2886	0.0219	-0.0028	0.0051	-25.7640	11.0108	10.1805	0.1068	-0.0905	0.7811	-0.6084
9.11	-0.5527	-9.3079	-2.2864	0.0245	-0.0094	0.0086	-25.7325	10.9338	10.3881	0.1068	-0.0905	0.7811	-0.6085
9.12	-0.5574	-9.3003	-2.2802	0.0235	-0.0013	0.0042	-25.8119	10.8536	10.2392	0.1068	-0.0905	0.7811	-0.6085
9.13	-0.5570	-9.3079	-2.2915	0.0232	-0.0036	0.0042	-25.8310	11.2440	10.2550	0.1067	-0.0905	0.7811	-0.6085
9.14	-0.5546	-9.3098	-2.2871	0.0167	-0.0042	0.0047	-25.8490	10.9037	10.3812	0.1067	-0.0905	0.7812	-0.6085
9.15	-0.5544	-9.3011	-2.2811	0.0227	-0.0065	0.0026	-25.7855	10.9838	9.9858	0.1067	-0.0905	0.7811	-0.6085
9.16	-0.5613	-9.3094	-2.2841	0.0245	-0.0067	0.0118	-25.7358	10.9623	10.3038	0.1067	-0.0905	0.7812	-0.6086
9.17	-0.5606	-9.3149	-2.2908	0.0178	-0.0124	0.0091	-25.7661	10.8031	10.3023	0.1067	-0.0905	0.7811	-0.6085
9.18	-0.5548	-9.3111	-2.2884	0.0200	-0.0130	0.0128	-25.6225	11.0861	9.9069	0.1067	-0.0905	0.7811	-0.6085
9.19	-0.5557	-9.3004	-2.2876	0.0135	-0.0117	0.0101	-25.5662	11.0550	10.2246	0.1067	-0.0905	0.7811	-0.6085
9.2	-0.5477	-9.3050	-2.2906	0.0212	-0.0112	0.0070	-25.6742	10.8951	10.3341	0.1067	-0.0905	0.7811	-0.6085
9.21	-0.5391	-9.3173	-2.3069	0.0102	-0.0125	0.0054	-25.6708	11.0345	10.1724	0.1067	-0.0905	0.7812	-0.6085
9.22	-0.5303	-9.3068	-2.3020	0.0178	-0.0121	0.0101	-25.6780	11.2224	10.2098	0.1067	-0.0905	0.7811	-0.6084
9.23	-0.5174	-9.3078	-2.3047	0.0213	-0.0070	0.0071	-25.8549	10.8513	10.1940	0.1067	-0.0905	0.7812	-0.6085
9.24	-0.5109	-9.3118	-2.3101	0.0216	-0.0132	0.0071	-25.7369	10.8132	10.2155	0.1067	-0.0906	0.7811	-0.6084
9.25	-0.5160	-9.3114	-2.3075	0.0244	-0.0131	0.0114	-25.7726	11.0722	10.0714	0.1067	-0.0906	0.7811	-0.6085
9.26	-0.5170	-9.3053	-2.3029	0.0208	-0.0072	0.0077	-25.8488	11.0747	10.1670	0.1067	-0.0906	0.7811	-0.6085
9.27	-0.5256	-9.3146	-2.3168	0.0221	-0.0035	0.0028	-25.8280	11.0951	10.2131	0.1067	-0.0906	0.7811	-0.6085
9.28	-0.5308	-9.3096	-2.3169	0.0228	-0.0069	0.0078	-25.7481	10.9766	10.1827	0.1067	-0.0906	0.7811	-0.6085
9.29	-0.5330	-9.2985	-2.3146	0.0166	-0.0026	0.0069	-25.7573	10.9045	10.2355	0.1066	-0.0906	0.7811	-0.6085
9.3	-0.5325	-9.2998	-2.3225	0.0201	-0.0083	0.0060	-25.7420	11.1027	10.3229	0.1066	-0.0906	0.7812	-0.6085
9.31	-0.5335	-9.3059	-2.3282	0.0209	-0.0056	0.0076	-25.8275	10.9821	10.1845	0.1066	-0.0906	0.7811	-0.6084
9.32	-0.5266	-9.3106	-2.3334	0.0215	-0.0079	0.0070	-25.8327	11.0114	10.2120	0.1066	-0.0906	0.7812	-0.6085
9.33	-0.5198	-9.3065	-2.3184	0.0213	-0.0049	0.0052	-25.8388	11.1139	10.3328	0.1065	-0.0906	0.7811	-0.6085
9.34	-0.5162	-9.3165	-2.3289	0.0162	-0.0065	0.0107	-25.8237	11.0112	10.1778	0.1065	-0.0906	0.7812	-0.6085
9.35	-0.5205	-9.3104	-2.3175	0.0252	-0.0088	0.0110	-25.8402	10.8969	10.3200	0.1065	-0.0905	0.7811	-0.6085
9.36	-0.5236	-9.3089	-2.3131	0.0199	-0.0121	0.0099	-25.8049	10.9366	10.1232	0.1065	-0.0905	0.7811	-0.6085
9.37	-0.5273	-9.3088	-2.3101	0.0189	-0.0123	0.0077	-25.5040	11.0762	10.1670	0.1066	-0.0906	0.7811	-0.6085
9.38	-0.5333	-9.3095	-2.3105	0.0212	-0.0160	0.0104	-25.2257	11.1066	10.2300	0.1066	-0.0906	0.7811	-0.6085
9.39	-0.5374	-9.3073	-2.3116	0.0231	-0.0119	0.0139	-25.4696	11.0400	10.0401	0.1066	-0.0906	0.7812	-0.6085
9.4	-0.5366	-9.2999	-2.3022	0.0249	-0.0071	0.0135	-25.5587	11.0487	10.0170	0.1066	-0.0905	0.7811	-0.6085
9.41	-0.5385	-9.3087	-2.3053	0.0158	-0.0077	0.0119	-25.7178	11.1810	10.0410	0.1066	-0.0905	0.7812	-0.6086
9.42	-0.5333	-9.3084	-2.2936	0.0219	-0.0073	0.0120	-25.8886	10.8796	10.1710	0.1066	-0.0905	0.7811	-0.6085
9.43	-0.5264	-9.3030	-2.2777	0.0220	-0.0086	0.0149	-25.9295	10.8517	10.1676	0.1066	-0.0905	0.7811	-0.6085
9.44	-0.5244	-9.3082	-2.2661	0.0256	-0.0062	0.0059	-25.7915	10.9451	10.2966	0.1066	-0.0905	0.7811	-0.6085
9.45	-0.5196	-9.3169	-2.2705	0.0202	-0.0060	0.0131	-25.7681	10.9453	10.1403	0.1066	-0.0905	0.7811	-0.6085
9.46	-0.5150	-9.3100	-2.2636	0.0198	-0.0059	0.0116	-25.7055	11.3467	10.1728	0.1066	-0.0904	0.7812	-0.6086
9.47	-0.5128	-9.3039	-2.2670	0.0215	-0.0097	0.0144	-25.8019	11.1364	10.2464	0.1066	-0.0904	0.7811	-0.6085
9.48	-0.5158	-9.3098	-2.2785	0.0183	-0.0069	0.0118	-25.7610	11.1190	10.0485	0.1066	-0.0904	0.7812	-0.6086
9.49	-0.5101	-9.3037	-2.2782	0.0189	-0.0055	0.0074	-25.8618	11.2870	10.0786	0.1066	-0.0904	0.7811	-0.6085
9.5	-0.5111	-9.3061	-2.2777	0.0162	-0.0106	0.0140	-25.7662	11.0326	10.1535	0.1066	-0.0904	0.7812	-0.6085
9.51	-0.5152	-9.3101	-2.2884	0.0156	-0.0127	0.0153	-25.7756	11.3061	10.2027	0.1066	-0.0904	0.7812	-0.6085
9.52	-0.5206	-9.3105	-2.2797	0.0239	-0.0054	0.0109	-25.8443	11.0913	10.2617	0.1066	-0.0903	0.7811	-0.6085
9.53	-0.5288	-9.3054	-2.2772	0.0214	-0.0055	0.0166	-25.8793	11.0849	10.1415	0.1066	-0.0903	0.7812	-0.6085
9.54	-0.5462	-9.3086	-2.2876	0.0223	-0.0103	0.0169	-25.7064	11.0683	10.2827	0.1066	-0.0903	0.7811	-0.6085
9.55	-0.5598	-9.3165	-2.2961	0.0152	-0.0083	0.0157	-25.5277	10.7795	10.2055	0.1067	-0.0903	0.7812	-0.6085
9.56	-0.5766	-9.3076	-2.2951	0.0267	-0.0145	0.0186	-25.6008	11.0487	10.0509	0.1067	-0.0902	0.7811	-0.6085
9.57	-0.5867	-9.2919	-2.2971	0.0195	-0.0129	0.0163	-25.6411	11.0507	10.0972	0.1067	-0.0902	0.7812	-0.6085
9.58	-0.5897	-9.3037	-2.3198	0.0238	-0.0156	0.0132	-25.5541	10.9027	10.0254	0.1068	-0.0902	0.7811	-0.6085
9.59	-0.5868	-9.3099	-2.3334	0.0185	-0.0127	0.0113	-25.5784	11.1323	10.2379	0.1068	-0.0902	0.7812	-0.6085
9.6	-0.5695	-9.2996	-2.3374	0.0205	-0.0083	0.0141	-25.8184	10.9763	10.2471	0.1068	-0.0902	0.7811	-0.6085
9.61	-0.5534	-9.3028	-2.3530	0.0166	-0.0177	0.0091	-25.6305	11.0344	9.9042	0.1068	-0.0902	0.7812	-0.6085
9.62	-0.5341	-9.3155	-2.3681	0.0182	-0.0097	0.0101	-25.7894	10.9730	10.0474	0.1069	-0.0902	0.7812	-0.6085
9.63	-0.5231	-9.3093	-2.3626	0.0246	-0.0076	0.0103	-25.6908	11.1211	9.8619	0.1068	-0.0902	0.7811	-0.6084
9.64	-0.5112	-9.2986	-2.3572	0.0222	-0.0051	0.0113	-25.6984	10.9574	10.0339	0.1068	-0.0902	0.7812	-0.6085
9.65	-0.5110	-9.3004	-2.3619	0.0255	-0.0058	0.0140	-25.5585	11.1061	10.2311	0.1068	-0.0902	0.7811	-0.6085
9.66	-0.5244	-9.3066	-2.3630	0.0211	-0.0120	0.0133	-26.0275	11.1891	10.2624	0.1069	-0.0902	0.7812	-0.6086
9.67	-0.5491	-9.3001	-2.3584	0.0246	-0.0026	0.0194	-25.9273	11.1596	10.1292	0.1069	-0.0901	0.7811	-0.6085
9.68	-0.5746	-9.3024	-2.3541	0.0225	-0.0077	0.0152	-25.8747	11.1522	10.1841	0.1069	-0.0901	0.7811	-0.6085
9.69	-0.5959	-9.2978	-2.3461	0.0256	-0.0019	0.0120	-25.9294	11.2324	10.0697	0.1069	-0.0900	0.7811	-0.6085
9.7	-0.6085	-9.3053	-2.3399	0.0235	-0.0017	0.0101	-25.7564	11.1959	10.1354	0.1068	-0.0900	0.7811	-0.6085
9.71	-0.6123	-9.3032	-2.3228	0.0240	-0.0038	0.0147	-25.8691	11.0630	10.2660	0.1068	-0.0900	0.7812	-0.6086
9.72	-0.6074	-9.2990	-2.3040	0.0208	-0.0089	0.0127	-25.8876	11.2106	10.2437	0.1068	-0.0899	0.7811	-0.6086
9.73	-0.6046	-9.3050	-2.2981	0.0214	-0.0093	0.0154	-25.7406	10.9136	10.2061	0.1068	-0.0899	0.7812	-0.6086
9.74	-0.6142	-9.3069	-2.2925	0.0264	-0.0143	0.0126	-25.6092	10.9420	10.0538	0.1069	-0.0899	0.7810	-0.6085
9.75	-0.6197	-9.3034	-2.2962	0.0190	-0.0093	0.0131	-25.5890	11.0080	10.0892	0.1069	-0.0899	0.7811	-0.6086
9.76	-0.6187	-9.2989	-2.2900	0.0188	-0.0089	0.0118	-25.7133	10.8932	10.2455	0.1069	-0.0899	0.7811	-0.6086
9.77	-0.6182	-9.3066	-2.2885	0.0228	-0.0160	0.0093	-25.7984	10.9490	10.2109	0.1069	-0.0899	0.7811	-0.6086
9.78	-0.6048	-9.3089	-2.2993	0.0205	-0.0154	0.0128	-25.7729	10.8191	9.9339	0.1069	-0.0899	0.7811	-0.6086
9.79	-0.5937	-9.3040	-2.3041	0.0221	-0.0136	0.0099	-25.7530	10.8566	10.0496	0.1070	-0.0899	0.7811	-0.6086
9.8	-0.5774	-9.2948	-2.2997	0.0235	-0.0116	0.0071	-25.8572	10.8177	10.0413	0.1070	-0.0899	0.7811	-0.6086
9.81	-0.5626	-9.2971	-2.2981	0.0225	-0.0129	0.0079	-25.7682	10.9364	9.9189	0.1070	-0.0899	0.7810	-0.6085
9.82	-0.5539	-9.3119	-2.3054	0.0211	-0.0203	0.0085	-25.7179	10.9070	10.3916	0.1070	-0.0900	0.7811	-0.6086
9.83	-0.5415	-9.3073	-2.3068	0.0229	-0.0151	-0.0035	-25.7690	10.9660	10.1961	0.1070	-0.0901	0.7810	-0.6086
9.84	-0.5387	-9.3051	-2.2980	0.0210	-0.0047	0.0049	-25.6569	11.0251	10.2308	0.1070	-0.0901	0.7811	-0.6086
9.85	-0.5407	-9.3069	-2.2971	0.0216	-0.0120	0.0084	-25.8164	10.9893	10.2339	0.1070	-0.0901	0.7810	-0.6086
9.86	-0.5378	-9.3069	-2.2952	0.0190	-0.0069	0.0065	-25.6301	11.1544	10.1852	0.1070	-0.0901	0.7810	-0.6086
9.87	-0.5343	-9.3048	-2.3003	0.0205	-0.0030	0.0042	-25.6109	11.1787	10.4020	0.1069	-0.0901	0.7811	-0.6086
9.88	-0.5300	-9.3064	-2.3080	0.0214	-0.0045	0.0072	-25.3356	11.1907	10.2224	0.1069	-0.0901	0.7810	-0.6086
9.89	-0.5213	-9.3075	-2.3117	0.0225	-0.0074	0.0030	-25.4372	11.1396	10.2440	0.1069	-0.0901	0.7811	-0.6087
9.9	-0.5064	-9.3098	-2.3241	0.0176	-0.0111	0.0038	-25.6600	10.9782	10.2754	0.1069	-0.0901	0.7810	-0.6086
9.91	-0.4923	-9.3126	-2.3252	0.0209	-0.0114	0.0106	-25.7308	11.1158	10.2563	0.1069	-0.0901	0.7811	-0.6087
9.92	-0.4767	-9.3106	-2.3233	0.0240	-0.0134	0.0122	-25.4670	11.0977	9.9447	0.1069	-0.0901	0.7810	-0.6086
9.93	-0.4604	-9.3117	-2.3311	0.0204	-0.0057	0.0048	-25.6192	10.9735	10.1912	0.1069	-0.0901	0.7810	-0.6086
9.94	-0.4474	-9.3117	-2.3343	0.0198	-0.0101	0.0100	-25.6231	11.0593	10.1214	0.1069	-0.0901	0.7810	-0.6086
9.95	-0.4418	-9.3105	-2.3265	0.0224	-0.0130	0.0131	-25.4632	10.8462	10.1028	0.1069	-0.0901	0.7810	-0.6086
9.96	-0.4500	-9.3120	-2.3273	0.0225	-0.0127	0.0103	-25.7431	10.8510	10.0797	0.1069	-0.0901	0.7811	-0.6087
9.97	-0.4633	-9.3102	-2.3153	0.0244	-0.0051	0.0058	-25.6507	10.9430	10.0253	0.1069	-0.0901	0.7810	-0.6086
9.98	-0.4808	-9.3113	-2.3199	0.0246	-0.0080	0.0051	-25.7465	10.9361	10.1465	0.1069	-0.0902	0.7811	-0.6087
9.99	-0.5042	-9.3081	-2.3116	0.0246	-0.0061	0.0071	-25.8712	11.2102	9.9804	0.1068	-0.0901	0.7809	-0.6086
10	-0.5254	-9.3075	-2.2985	0.0198	-0.0088	0.0131	-25.6999	11.2301	10.0059	0.1068	-0.0901	0.7810	-0.6087
10.01	-0.5411	-9.3106	-2.2934	0.0262	-0.0115	0.0114	-25.7459	10.9930	10.0281	0.1069	-0.0901	0.7810	-0.6087
10.02	-0.5464	-9.3071	-2.2993	0.0229	-0.0058	0.0090	-25.9756	11.0079	10.2122	0.1068	-0.0901	0.7810	-0.6087
10.03	-0.5423	-9.3068	-2.3001	0.0242	-0.0016	0.0086	-25.8060	10.9173	10.0551	0.1068	-0.0901	0.7810	-0.6087
10.04	-0.5364	-9.3065	-2.2904	0.0259	-0.0041	0.0096	-25.7612	10.9126	9.8913	0.1068	-0.0901	0.7810	-0.6087
10.05	-0.5287	-9.3112	-2.2876	0.0227	-0.0090	0.0076	-25.9482	11.1647	10.1452	0.1068	-0.0901	0.7810	-0.6088
10.06	-0.5190	-9.3108	-2.2824	0.0243	-0.0068	0.0082	-25.8458	11.0826	10.2816	0.1068	-0.0901	0.7809	-0.6087
10.07	-0.5205	-9.3089	-2.2781	0.0207	-0.0076	0.0098	-25.8543	10.9946	10.2465	0.1068	-0.0901	0.7810	-0.6088
10.08	-0.5243	-9.3095	-2.2822	0.0232	-0.0040	0.0090	-25.8334	10.9742	10.1595	0.1067	-0.0900	0.7809	-0.6088
10.09	-0.5241	-9.2993	-2.2731	0.0225	-0.0045	0.0116	-25.6329	11.1519	10.1944	0.1067	-0.0900	0.7810	-0.6088
10.1	-0.5364	-9.3061	-2.2707	0.0200	-0.0159	0.0119	-25.5013	11.1869	10.1749	0.1068	-0.0900	0.7809	-0.6088
10.11	-0.5452	-9.3092	-2.2747	0.0226	-0.0080	0.0143	-25.5562	11.0624	10.1993	0.1068	-0.0900	0.7809	-0.6088
10.12	-0.5532	-9.3058	-2.2652	0.0154	-0.0089	0.0093	-25.6695	11.0865	10.1457	0.1068	-0.0900	0.7810	-0.6088
10.13	-0.5565	-9.3056	-2.2646	0.0203	-0.0096	0.0113	-25.7545	10.8069	9.9824	0.1068	-0.0900	0.7809	-0.6087
10.14	-0.5561	-9.3118	-2.2654	0.0191	-0.0076	0.0133	-25.9599	10.8671	10.0461	0.1068	-0.0900	0.7810	-0.6088
10.15	-0.5583	-9.3069	-2.2670	0.0165	-0.0052	0.0066	-25.7614	11.0678	9.9411	0.1068	-0.0900	0.7810	-0.6087
10.16	-0.5551	-9.3073	-2.2770	0.0151	-0.0071	0.0120	-25.7884	10.9056	9.9716	0.1068	-0.0900	0.7811	-0.6088
10.17	-0.5465	-9.3061	-2.2797	0.0143	-0.0076	0.0074	-25.6634	10.9368	10.1212	0.1067	-0.0900	0.7810	-0.6087
10.18	-0.5435	-9.3069	-2.2825	0.0105	-0.0117	0.0126	-25.6026	11.0176	9.9762	0.1067	-0.0900	0.7811	-0.6087
10.19	-0.5380	-9.3090	-2.2852	0.0169	-0.0116	0.0141	-25.7434	10.8634	10.0634	0.1068	-0.0900	0.7811	-0.6086
10.2	-0.5317	-9.3088	-2.2947	0.0229	-0.0154	0.0107	-25.5678	11.0912	10.1943	0.1068	-0.0900	0.7810	-0.6086
10.21	-0.5332	-9.3092	-2.2939	0.0174	-0.0082	0.0087	-25.9143	11.0907	10.1620	0.1068	-0.0900	0.7811	-0.6087
10.22	-0.5381	-9.3067	-2.3002	0.0148	-0.0035	0.0060	-25.9190	11.0725	10.0752	0.1067	-0.0900	0.7811	-0.6086
10.23	-0.5446	-9.3076	-2.3030	0.0163	-0.0034	0.0066	-25.9585	11.1101	10.0928	0.1067	-0.0900	0.7812	-0.6086
10.24	-0.5577	-9.3056	-2.3082	0.0197	-0.0051	0.0088	-25.7450	10.9874	10.0982	0.1067	-0.0899	0.7811	-0.6085
10.25	-0.5672	-9.3056	-2.3109	0.0219	-0.0087	0.0051	-25.7853	11.0323	10.1912	0.1067	-0.0900	0.7811	-0.6086
10.26	-0.5743	-9.3030	-2.3210	0.0243	-0.0054	0.0095	-25.8770	11.0892	10.0338	0.1067	-0.0900	0.7811	-0.6086
10.27	-0.5754	-9.3000	-2.3224	0.0173	-0.0066	0.0091	-25.8268	10.8777	10.2147	0.1066	-0.0899	0.7811	-0.6086
10.28	-0.5776	-9.3110	-2.3288	0.0186	-0.0084	0.0087	-25.8729	11.0503	10.0602	0.1066	-0.0899	0.7811	-0.6086
10.29	-0.5689	-9.3075	-2.3339	0.0205	-0.0122	0.0074	-25.6783	11.0605	10.0137	0.1066	-0.0900	0.7811	-0.6086
10.3	-0.5665	-9.2981	-2.3273	0.0215	-0.0122	0.0113	-25.5842	11.1801	10.1819	0.1066	-0.0900	0.7812	-0.6086
10.31	-0.5566	-9.3036	-2.3317	0.0257	-0.0068	0.0065	-25.6264	11.0857	10.1887	0.1066	-0.0900	0.7810	-0.6086
10.32	-0.5465	-9.3122	-2.3351	0.0231	-0.0078	0.0062	-25.5990	10.9264	10.1779	0.1066	-0.0900	0.7811	-0.6086
10.33	-0.5332	-9.2990	-2.3296	0.0197	-0.0067	0.0055	-25.7664	11.0176	10.2167	0.1066	-0.0900	0.7811	-0.6086
10.34	-0.5156	-9.3005	-2.3333	0.0162	-0.0077	0.0086	-25.7652	11.0773	10.3220	0.1066	-0.0900	0.7811	-0.6086
10.35	-0.5055	-9.3165	-2.3440	0.0217	-0.0059	0.0101	-25.7921	11.0826	10.0357	0.1066	-0.0900	0.7811	-0.6086
10.36	-0.4989	-9.3139	-2.3376	0.0196	-0.0085	0.0102	-25.7078	10.8915	10.1667	0.1066	-0.0900	0.7811	-0.6086
10.37	-0.4874	-9.3062	-2.3319	0.0218	-0.0088	0.0074	-25.3781	11.1281	10.3571	0.1066	-0.0900	0.7811	-0.6086
10.38	-0.4910	-9.3101	-2.3277	0.0238	-0.0126	0.0084	-25.3006	11.3149	10.3809	0.1066	-0.0900	0.7811	-0.6086
10.39	-0.4873	-9.3124	-2.3242	0.0259	-0.0115	0.0129	-25.2838	11.0602	10.2009	0.1066	-0.0900	0.7811	-0.6087
10.4	-0.4861	-9.3095	-2.3135	0.0208	-0.0082	0.0113	-25.7997	11.0835	10.0416	0.1066	-0.0900	0.7811	-0.6086
10.41	-0.4980	-9.3097	-2.3021	0.0217	-0.0108	0.0144	-25.7735	11.4089	10.1807	0.1066	-0.0900	0.7812	-0.6087
10.42	-0.5072	-9.3094	-2.3078	0.0246	-0.0156	0.0120	-25.7720	11.1107	10.1727	0.1066	-0.0899	0.7810	-0.6086
10.43	-0.5082	-9.3044	-2.3081	0.0235	-0.0129	0.0123	-25.7222	11.1450	10.2841	0.1067	-0.0899	0.7811	-0.6086
10.44	-0.5270	-9.3068	-2.3019	0.0225	-0.0118	0.0176	-25.7333	11.0074	10.2727	0.1067	-0.0899	0.7811	-0.6086
10.45	-0.5391	-9.3067	-2.3071	0.0251	-0.0117	0.0117	-25.7085	11.1749	10.2017	0.1067	-0.0899	0.7810	-0.6086
10.46	-0.5416	-9.3089	-2.3016	0.0230	-0.0068	0.0078	-25.6648	11.0273	10.0640	0.1067	-0.0899	0.7811	-0.6087
10.47	-0.5495	-9.3055	-2.2961	0.0239	-0.0106	0.0124	-25.9531	11.1039	10.2725	0.1067	-0.0899	0.7810	-0.6087
10.48	-0.5464	-9.3059	-2.2906	0.0258	-0.0105	0.0140	-25.6458	10.9191	10.2237	0.1067	-0.0899	0.7811	-0.6087
10.49	-0.5442	-9.3119	-2.2813	0.0237	-0.0126	0.0134	-25.4910	10.8983	10.0896	0.1068	-0.0899	0.7810	-0.6086
10.5	-0.5453	-9.3131	-2.2713	0.0220	-0.0091	0.0122	-25.6566	10.7786	10.2165	0.1068	-0.0899	0.7810	-0.6087
10.51	-0.5565	-9.3038	-2.2667	0.0237	-0.0065	0.0118	-25.5197	10.7599	10.0048	0.1068	-0.0899	0.7810	-0.6087
10.52	-0.5750	-9.2994	-2.2568	0.0258	-0.0061	0.0091	-25.5701	10.8589	10.0945	0.1068	-0.0898	0.7810	-0.6087
10.53	-0.5888	-9.3065	-2.2647	0.0248	-0.0068	0.0118	-25.7909	10.7746	10.1067	0.1068	-0.0898	0.7810	-0.6088
10.54	-0.5990	-9.3054	-2.2581	0.0248	-0.0087	0.0117	-25.7557	10.8714	10.2218	0.1068	-0.0898	0.7810	-0.6087
10.55	-0.6082	-9.3045	-2.2568	0.0210	-0.0142	0.0109	-25.7624	11.0774	10.1106	0.1068	-0.0898	0.7810	-0.6088
10.56	-0.6190	-9.3037	-2.2527	0.0236	-0.0143	0.0131	-25.7630	11.0016	10.0831	0.1068	-0.0898	0.7809	-0.6087
10.57	-0.6273	-9.3097	-2.2493	0.0231	-0.0131	0.0175	-25.7511	10.8406	10.0047	0.1069	-0.0898	0.7810	-0.6088
10.58	-0.6227	-9.3029	-2.2588	0.0254	-0.0107	0.0123	-25.7718	10.8606	10.1727	0.1069	-0.0898	0.7810	-0.6088
10.59	-0.6069	-9.3082	-2.2701	0.0228	-0.0111	0.0037	-25.7379	11.1526	10.1752	0.1069	-0.0898	0.7810	-0.6088
10.6	-0.5896	-9.3058	-2.2789	0.0134	-0.0097	0.0058	-25.8850	11.1491	10.2663	0.1068	-0.0898	0.7810	-0.6087
10.61	-0.5721	-9.2995	-2.2949	0.0193	-0.0115	0.0126	-25.7784	11.1140	10.2726	0.1069	-0.0898	0.7810	-0.6087
10.62	-0.5591	-9.3030	-2.2927	0.0208	-0.0108	0.0060	-25.6755	11.2276	10.2661	0.1069	-0.0898	0.7810	-0.6088
10.63	-0.5438	-9.3029	-2.3051	0.0186	-0.0127	0.0056	-25.9667	11.1349	10.2741	0.1068	-0.0899	0.7809	-0.6087
10.64	-0.5396	-9.3039	-2.2959	0.0248	-0.0102	0.0103	-25.8112	11.1633	10.1528	0.1069	-0.0899	0.7810	-0.6088
10.65	-0.5366	-9.3104	-2.2968	0.0197	-0.0052	0.0061	-26.0277	11.0813	10.2205	0.1068	-0.0899	0.7810	-0.6087
10.66	-0.5315	-9.3092	-2.3135	0.0102	-0.0112	0.0061	-25.8952	11.0923	10.3054	0.1068	-0.0899	0.7811	-0.6088
10.67	-0.5272	-9.2988	-2.3071	0.0114	-0.0112	0.0054	-25.7298	10.7733	10.1616	0.1068	-0.0899	0.7810	-0.6086
10.68	-0.5197	-9.3000	-2.3092	0.0212	-0.0087	0.0072	-25.5731	10.8708	10.2284	0.1068	-0.0899	0.7811	-0.6087
10.69	-0.5194	-9.3127	-2.3260	0.0186	-0.0066	0.0106	-25.6179	10.8458	10.1072	0.1068	-0.0899	0.7811	-0.6087
10.7	-0.5125	-9.3082	-2.3223	0.0204	-0.0070	0.0079	-25.5677	10.8705	10.1767	0.1068	-0.0899	0.7810	-0.6086
10.71	-0.5034	-9.3072	-2.3242	0.0198	-0.0072	0.0109	-25.8138	10.9995	10.1904	0.1068	-0.0899	0.7811	-0.6087
10.72	-0.4957	-9.3126	-2.3300	0.0232	-0.0128	0.0133	-25.8209	10.8570	9.9129	0.1068	-0.0899	0.7811	-0.6086
10.73	-0.4884	-9.3075	-2.3263	0.0204	-0.0101	0.0099	-25.6928	10.9247	10.1759	0.1068	-0.0899	0.7811	-0.6087
10.74	-0.4825	-9.2993	-2.3164	0.0230	-0.0079	0.0109	-25.6690	10.8090	10.1947	0.1068	-0.0899	0.7810	-0.6086
10.75	-0.4852	-9.3062	-2.3271	0.0202	-0.0093	0.0125	-25.6133	10.9108	10.0759	0.1068	-0.0899	0.7811	-0.6087
10.76	-0.4932	-9.3117	-2.3262	0.0221	-0.0106	0.0132	-25.8591	10.7485	10.2983	0.1068	-0.0899	0.7811	-0.6086
10.77	-0.4935	-9.3072	-2.3146	0.0216	-0.0065	0.0086	-25.8375	10.9725	10.1827	0.1068	-0.0899	0.7810	-0.6086
10.78	-0.5002	-9.2967	-2.3065	0.0203	-0.0035	0.0098	-25.8463	11.0728	10.1835	0.1068	-0.0899	0.7811	-0.6087
10.79	-0.5137	-9.3090	-2.3055	0.0258	-0.0073	0.0111	-25.9652	11.1768	10.1541	0.1068	-0.0898	0.7811	-0.6087
10.8	-0.5126	-9.3101	-2.2910	0.0233	-0.0088	0.0138	-25.8384	11.0620	10.0463	0.1068	-0.0898	0.7811	-0.6087
10.81	-0.5167	-9.3095	-2.2922	0.0185	-0.0047	0.0075	-25.9262	11.0656	10.2025	0.1068	-0.0898	0.7810	-0.6086
10.82	-0.5108	-9.3190	-2.3102	0.0230	-0.0054	0.0121	-25.8299	10.9370	10.2568	0.1068	-0.0898	0.7811	-0.6087
10.83	-0.5092	-9.3200	-2.3340	0.0262	-0.0068	0.0119	-25.7346	10.9161	10.3317	0.1068	-0.0898	0.7810	-0.6087
10.84	-0.5138	-9.3007	-2.3362	0.0227	-0.0061	0.0146	-25.8415	11.0208	10.3224	0.1068	-0.0897	0.7811	-0.6087
10.85	-0.5259	-9.2994	-2.3418	0.0242	-0.0084	0.0152	-25.8577	10.8559	10.0567	0.1068	-0.0897	0.7810	-0.6087
10.86	-0.5522	-9.3008	-2.3575	0.0249	-0.0046	0.0109	-25.5835	10.9333	10.1234	0.1068	-0.0897	0.7810	-0.6087
10.87	-0.5841	-9.3016	-2.3564	0.0251	-0.0105	0.0130	-25.3155	10.8345	10.2976	0.1068	-0.0897	0.7810	-0.6087
10.88	-0.6238	-9.2963	-2.3657	0.0243	-0.0142	0.0158	-25.1766	10.8348	10.5303	0.1068	-0.0897	0.7810	-0.6087
10.89	-0.6506	-9.2910	-2.3538	0.0220	-0.0061	0.0061	-25.4251	10.7557	10.0528	0.1068	-0.0897	0.7811	-0.6088
10.9	-0.6750	-9.2943	-2.3440	0.0232	-0.0116	0.0117	-25.8190	11.0981	10.1568	0.1068	-0.0897	0.7810	-0.6087
10.91	-0.6781	-9.2987	-2.3179	0.0253	-0.0086	0.0080	-25.7901	11.2080	9.9401	0.1068	-0.0897	0.7811	-0.6088
10.92	-0.6677	-9.3056	-2.3019	0.0238	-0.0088	0.0050	-25.5783	10.8694	10.0268	0.1068	-0.0897	0.7809	-0.6087
10.93	-0.6451	-9.3070	-2.2964	0.0228	-0.0111	0.0079	-25.7187	11.0891	10.0975	0.1068	-0.0897	0.7810	-0.6088
10.94	-0.6108	-9.3113	-2.2799	0.0231	-0.0140	0.0069	-25.6624	10.8844	10.0145	0.1068	-0.0897	0.7810	-0.6088
10.95	-0.5738	-9.3058	-2.2777	0.0222	-0.0110	0.0031	-25.7534	10.8213	10.2507	0.1068	-0.0897	0.7809	-0.6088
10.96	-0.5412	-9.3100	-2.2741	0.0207	-0.0068	-0.0008	-25.8831	10.9408	10.0564	0.1068	-0.0898	0.7810	-0.6088
10.97	-0.5180	-9.3165	-2.2628	0.0187	-0.0080	0.0077	-25.9379	11.0548	10.3016	0.1067	-0.0898	0.7810	-0.6088
10.98	-0.4992	-9.3134	-2.2555	0.0224	-0.0049	0.0036	-25.9325	10.8794	10.1946	0.1067	-0.0898	0.7810	-0.6088
10.99	-0.4899	-9.3077	-2.2428	0.0164	-0.0063	0.0062	-25.9151	10.7982	10.2912	0.1067	-0.0898	0.7809	-0.6087
11	-0.4834	-9.3112	-2.2515	0.0179	-0.0096	0.0040	-25.9624	11.2062	10.2486	0.1067	-0.0898	0.7810	-0.6088
11.01	-0.4872	-9.3148	-2.2777	0.0216	-0.0051	-0.0003	-25.9971	11.0793	9.9808	0.1066	-0.0898	0.7810	-0.6088
11.02	-0.4913	-9.3140	-2.2904	0.0225	-0.0099	0.0079	-25.8202	10.9080	10.1046	0.1066	-0.0898	0.7810	-0.6088
11.03	-0.4885	-9.3054	-2.2909	0.0253	-0.0082	0.0056	-25.8676	10.9401	10.1130	0.1066	-0.0899	0.7810	-0.6088
11.04	-0.4829	-9.2987	-2.2827	0.0207	-0.0142	0.0131	-25.9398	10.7765	10.0808	0.1066	-0.0899	0.7810	-0.6088
11.05	-0.4639	-9.3052	-2.2889	0.0244	-0.0130	0.0121	-25.5244	10.7985	9.9918	0.1066	-0.0899	0.7810	-0.6088
11.06	-0.4513	-9.3096	-2.2870	0.0217	-0.0162	0.0092	-25.5835	10.9719	10.1440	0.1066	-0.0899	0.7809	-0.6087
11.07	-0.4388	-9.3153	-2.2964	0.0217	-0.0156	0.0080	-25.8099	10.7752	9.9804	0.1067	-0.0899	0.7810	-0.6088
11.08	-0.4371	-9.3096	-2.2935	0.0193	-0.0158	0.0111	-25.7317	10.8194	9.9318	0.1067	-0.0899	0.7810	-0.6088
11.09	-0.4410	-9.3142	-2.3014	0.0237	-0.0073	0.0063	-25.7931	11.0633	9.9215	0.1067	-0.0899	0.7810	-0.6088
11.1	-0.4491	-9.3088	-2.3036	0.0230	-0.0135	0.0098	-25.6498	10.7962	9.9517	0.1067	-0.0899	0.7809	-0.6088
11.11	-0.4687	-9.3082	-2.2969	0.0194	-0.0061	0.0108	-25.6240	11.0082	10.2709	0.1067	-0.0899	0.7810	-0.6088
11.12	-0.4818	-9.3133	-2.3041	0.0221	-0.0079	0.0169	-25.7192	10.9612	9.9252	0.1067	-0.0899	0.7810	-0.6088
11.13	-0.4976	-9.3095	-2.2988	0.0226	-0.0002	0.0104	-25.5849	10.9078	10.0152	0.1067	-0.0899	0.7809	-0.6088
11.14	-0.5190	-9.3050	-2.2891	0.0189	-0.0007	0.0079	-25.7049	11.0357	10.0372	0.1066	-0.0898	0.7810	-0.6088
11.15	-0.5387	-9.3184	-2.2942	0.0257	0.0006	0.0050	-25.8290	10.9872	10.1377	0.1066	-0.0898	0.7810	-0.6088
11.16	-0.5523	-9.3074	-2.2838	0.0233	0.0045	0.0148	-25.8501	10.8310	10.0402	0.1066	-0.0898	0.7810	-0.6089
11.17	-0.5684	-9.2871	-2.2697	0.0184	0.0034	0.0102	-25.8556	10.9385	9.9983	0.1065	-0.0897	0.7809	-0.6088
11.18	-0.5882	-9.3029	-2.2855	0.0180	0.0066	0.0122	-25.7059	11.0227	10.0462	0.1064	-0.0897	0.7810	-0.6088
11.19	-0.5964	-9.3119	-2.2953	0.0179	0.0028	0.0087	-25.8676	11.0138	9.9695	0.1064	-0.0896	0.7810	-0.6088
11.2	-0.5971	-9.3007	-2.2858	0.0203	0.0031	0.0107	-25.6841	10.9382	10.2151	0.1063	-0.0896	0.7810	-0.6088
11.21	-0.5940	-9.2954	-2.2862	0.0140	-0.0056	0.0128	-25.7945	10.9130	10.0764	0.1063	-0.0896	0.7811	-0.6088
11.22	-0.5836	-9.3143	-2.3062	0.0232	-0.0036	0.0098	-25.8216	11.0790	9.8902	0.1063	-0.0895	0.7811	-0.6088
11.23	-0.5718	-9.3185	-2.3160	0.0247	-0.0117	0.0182	-25.7510	11.0697	9.9428	0.1063	-0.0895	0.7811	-0.6088
11.24	-0.5522	-9.3046	-2.3180	0.0219	-0.0105	0.0120	-25.6764	10.8211	10.0032	0.1063	-0.0895	0.7810	-0.6087
11.25	-0.5329	-9.3080	-2.3363	0.0262	-0.0069	0.0101	-25.8068	10.7624	10.1595	0.1063	-0.0895	0.7811	-0.6088
11.26	-0.5176	-9.3135	-2.3487	0.0235	-0.0114	0.0135	-25.8240	10.7419	10.0480	0.1064	-0.0895	0.7810	-0.6088
11.27	-0.5055	-9.3060	-2.3524	0.0234	-0.0089	0.0107	-25.7205	10.8361	10.0093	0.1064	-0.0895	0.7810	-0.6088
11.28	-0.5025	-9.3029	-2.3540	0.0258	-0.0069	0.0172	-25.8845	10.9289	10.0302	0.1064	-0.0894	0.7810	-0.6088
11.29	-0.5034	-9.3036	-2.3696	0.0227	-0.0088	0.0128	-25.9166	11.0612	10.0032	0.1064	-0.0894	0.7810	-0.6088
11.3	-0.5174	-9.2991	-2.3629	0.0246	-0.0053	0.0141	-25.7712	11.0659	10.0316	0.1064	-0.0894	0.7811	-0.6089
