time	acceleration_x	acceleration_y	acceleration_z	gyroscope_x	gyroscope_y	gyroscope_z	magnetometer_x	magnetometer_y	magnetometer_z	quaternion_w	quaternion_x	quaternion_y	quaternion_z
0	-9.5091	-1.2884	-2.1128	-0.0199	-0.0939	-0.0572	15.1968	-16.3230	16.0966	-0.3003	-0.6292	-0.4639	0.5465
0.01	-9.4525	-1.2875	-2.0513	-0.0168	-0.1112	-0.0503	15.3390	-16.3086	15.8999	-0.3005	-0.6289	-0.4638	0.5468
0.02	-9.4398	-1.3141	-2.0646	-0.0045	-0.0874	-0.0548	15.1551	-16.6768	15.7598	-0.3007	-0.6287	-0.4636	0.5471
0.03	-9.4269	-1.3276	-2.0605	-0.0007	-0.0926	-0.0515	15.3386	-16.5477	15.8117	-0.3009	-0.6285	-0.4635	0.5474
0.04	-9.3939	-1.3237	-2.0468	0.0051	-0.1057	-0.0330	15.2928	-16.4251	15.7825	-0.3011	-0.6283	-0.4632	0.5477
0.05	-9.3435	-1.3151	-2.0330	0.0180	-0.0982	-0.0300	15.0865	-16.3645	15.7952	-0.3013	-0.6281	-0.4629	0.5480
0.06	-9.3565	-1.3085	-2.0219	0.0226	-0.0801	-0.0316	15.4123	-16.5435	16.0150	-0.3014	-0.6281	-0.4627	0.5483
0.07	-9.3775	-1.2961	-2.0185	0.0247	-0.0732	-0.0312	15.3201	-16.4848	15.7806	-0.3014	-0.6279	-0.4624	0.5485
0.08	-9.3884	-1.2850	-2.0018	0.0302	-0.0748	-0.0359	15.2000	-16.1744	15.8005	-0.3016	-0.6279	-0.4622	0.5489
0.09	-9.4046	-1.2732	-1.9868	0.0465	-0.0619	-0.0348	15.4171	-16.1371	15.9052	-0.3015	-0.6279	-0.4618	0.5491
0.1	-9.4397	-1.2459	-1.9842	0.0482	-0.0614	-0.0370	15.3313	-16.4307	15.8707	-0.3015	-0.6279	-0.4615	0.5494
0.11	-9.4440	-1.2246	-1.9729	0.0453	-0.0648	-0.0301	15.2982	-16.1350	15.8791	-0.3015	-0.6278	-0.4612	0.5497
0.12	-9.4512	-1.2013	-1.9614	0.0403	-0.0687	-0.0313	15.4605	-16.2286	16.0140	-0.3016	-0.6278	-0.4609	0.5500
0.13	-9.4497	-1.1863	-1.9598	0.0290	-0.0711	-0.0309	15.1125	-16.3020	15.8941	-0.3016	-0.6278	-0.4606	0.5503
0.14	-9.4204	-1.1749	-1.9456	0.0309	-0.0805	-0.0237	15.3042	-16.1891	15.8766	-0.3017	-0.6276	-0.4603	0.5505
0.15	-9.4079	-1.1667	-1.9298	0.0257	-0.0787	-0.0287	15.5217	-16.1701	15.8674	-0.3019	-0.6276	-0.4600	0.5508
0.16	-9.4109	-1.1641	-1.9250	0.0245	-0.0716	-0.0253	15.3622	-16.2319	15.7600	-0.3020	-0.6275	-0.4597	0.5511
0.17	-9.4048	-1.1624	-1.9117	0.0126	-0.0687	-0.0296	15.4273	-16.5616	15.8110	-0.3021	-0.6275	-0.4595	0.5513
0.18	-9.3932	-1.1679	-1.9040	0.0144	-0.0649	-0.0268	15.3808	-16.4379	15.7820	-0.3022	-0.6274	-0.4592	0.5514
0.19	-9.3733	-1.1753	-1.9010	0.0069	-0.0611	-0.0268	15.5460	-16.4577	15.8003	-0.3023	-0.6274	-0.4590	0.5517
0.2	-9.3677	-1.1783	-1.8901	-0.0031	-0.0532	-0.0241	15.4068	-16.4326	15.5898	-0.3025	-0.6273	-0.4589	0.5518
0.21	-9.3735	-1.1870	-1.8987	-0.0002	-0.0411	-0.0282	15.4618	-16.5396	15.7026	-0.3025	-0.6273	-0.4587	0.5518
0.22	-9.3680	-1.1931	-1.8858	-0.0018	-0.0397	-0.0315	15.6260	-16.4438	15.6930	-0.3027	-0.6273	-0.4586	0.5520
0.23	-9.3690	-1.1908	-1.8843	-0.0010	-0.0322	-0.0254	15.3806	-16.3122	15.8757	-0.3027	-0.6273	-0.4584	0.5520
0.24	-9.3665	-1.1908	-1.8779	-0.0023	-0.0352	-0.0307	15.2774	-16.4553	15.8193	-0.3028	-0.6273	-0.4583	0.5521
0.25	-9.3994	-1.1868	-1.8780	-0.0038	-0.0175	-0.0301	15.4216	-16.4404	15.7826	-0.3028	-0.6273	-0.4582	0.5521
0.26	-9.4023	-1.1954	-1.8872	-0.0089	-0.0167	-0.0311	15.2787	-16.3649	15.7824	-0.3029	-0.6274	-0.4581	0.5521
0.27	-9.4081	-1.2024	-1.8747	-0.0031	-0.0143	-0.0292	15.3666	-16.3181	15.6485	-0.3029	-0.6274	-0.4580	0.5521
0.28	-9.4448	-1.1924	-1.8902	-0.0006	-0.0002	-0.0278	15.4366	-16.2473	15.7926	-0.3029	-0.6275	-0.4579	0.5521
0.29	-9.4528	-1.1835	-1.8870	-0.0056	-0.0062	-0.0281	15.3641	-16.3798	15.7898	-0.3030	-0.6276	-0.4578	0.5520
0.3	-9.4553	-1.1842	-1.8887	-0.0037	-0.0044	-0.0193	15.3435	-16.3690	15.9265	-0.3030	-0.6277	-0.4577	0.5520
0.31	-9.4673	-1.1815	-1.9049	-0.0038	0.0040	-0.0128	15.4204	-16.5214	15.8102	-0.3031	-0.6278	-0.4576	0.5519
0.32	-9.4681	-1.1616	-1.9039	-0.0076	-0.0030	-0.0043	15.3949	-16.2357	15.7690	-0.3032	-0.6279	-0.4574	0.5518
0.33	-9.4714	-1.1580	-1.9070	-0.0136	-0.0051	-0.0069	15.6098	-16.3122	15.9213	-0.3033	-0.6281	-0.4573	0.5518
0.34	-9.4665	-1.1583	-1.9183	-0.0093	-0.0055	-0.0051	15.7612	-16.3545	15.8311	-0.3034	-0.6282	-0.4571	0.5517
0.35	-9.4837	-1.1343	-1.9029	-0.0124	-0.0097	0.0002	15.6629	-16.4180	15.7594	-0.3036	-0.6283	-0.4569	0.5517
0.36	-9.5097	-1.1242	-1.9121	-0.0181	-0.0102	-0.0003	15.5945	-16.4118	15.9304	-0.3037	-0.6284	-0.4568	0.5515
0.37	-9.5201	-1.1168	-1.9090	-0.0212	-0.0093	-0.0036	15.3502	-16.7082	16.0195	-0.3039	-0.6285	-0.4566	0.5515
0.38	-9.5233	-1.1068	-1.9115	-0.0189	-0.0131	-0.0045	15.3194	-16.5648	15.7537	-0.3041	-0.6286	-0.4565	0.5514
0.39	-9.4955	-1.0948	-1.9049	-0.0185	-0.0193	-0.0051	15.4556	-16.4306	15.8968	-0.3042	-0.6286	-0.4563	0.5513
0.4	-9.5095	-1.0907	-1.8983	-0.0235	-0.0169	-0.0008	15.1290	-16.7019	15.8500	-0.3045	-0.6287	-0.4562	0.5513
0.41	-9.4831	-1.0773	-1.9073	-0.0230	-0.0201	-0.0046	15.1598	-16.3604	15.7876	-0.3047	-0.6288	-0.4560	0.5512
0.42	-9.4653	-1.0585	-1.8871	-0.0146	-0.0224	-0.0026	15.2852	-16.6850	15.7128	-0.3049	-0.6289	-0.4559	0.5513
0.43	-9.4530	-1.0534	-1.8991	-0.0191	-0.0188	-0.0060	15.4114	-16.5489	15.6912	-0.3050	-0.6289	-0.4557	0.5511
0.44	-9.4388	-1.0410	-1.8917	-0.0231	-0.0209	-0.0037	15.2456	-16.4718	15.9188	-0.3052	-0.6290	-0.4555	0.5511
0.45	-9.4440	-1.0314	-1.8845	-0.0229	-0.0146	-0.0154	15.0378	-16.6562	15.6741	-0.3054	-0.6290	-0.4554	0.5511
0.46	-9.4382	-1.0313	-1.8883	-0.0183	-0.0136	-0.0255	15.3287	-16.6561	15.7657	-0.3055	-0.6290	-0.4553	0.5510
0.47	-9.4340	-1.0285	-1.8806	-0.0010	-0.0205	-0.0259	15.2722	-16.6536	15.9317	-0.3056	-0.6291	-0.4552	0.5511
0.48	-9.4250	-1.0233	-1.8824	-0.0030	-0.0084	-0.0289	15.0805	-16.6581	15.7931	-0.3056	-0.6291	-0.4551	0.5510
0.49	-9.4106	-1.0154	-1.8851	-0.0011	-0.0020	-0.0293	15.1432	-16.4115	15.6367	-0.3056	-0.6293	-0.4550	0.5510
0.5	-9.4034	-1.0040	-1.8721	-0.0007	-0.0026	-0.0392	15.1229	-16.3787	15.8066	-0.3056	-0.6293	-0.4549	0.5510
0.51	-9.3937	-0.9886	-1.8805	-0.0002	-0.0053	-0.0416	15.0020	-16.5131	15.7697	-0.3056	-0.6294	-0.4549	0.5510
0.52	-9.3963	-0.9710	-1.8759	0.0049	0.0034	-0.0416	15.0959	-16.4549	15.9817	-0.3055	-0.6294	-0.4548	0.5510
0.53	-9.4007	-0.9668	-1.8855	0.0064	0.0113	-0.0485	15.1345	-16.5499	15.8860	-0.3054	-0.6295	-0.4548	0.5509
0.54	-9.4070	-0.9471	-1.8849	-0.0042	0.0131	-0.0538	15.1219	-16.6835	15.8795	-0.3053	-0.6296	-0.4548	0.5509
0.55	-9.4530	-0.9245	-1.8918	0.0009	0.0245	-0.0595	15.1169	-16.6260	15.7362	-0.3052	-0.6297	-0.4549	0.5508
0.56	-9.4709	-0.9090	-1.9051	-0.0136	0.0225	-0.0541	15.3737	-16.7345	15.8965	-0.3051	-0.6298	-0.4549	0.5508
0.57	-9.4921	-0.9054	-1.9012	-0.0259	0.0227	-0.0636	15.3866	-16.6870	15.7664	-0.3050	-0.6298	-0.4550	0.5506
0.58	-9.5366	-0.9207	-1.9196	-0.0287	0.0274	-0.0760	15.4202	-16.2944	16.0446	-0.3050	-0.6299	-0.4552	0.5506
0.59	-9.5321	-0.9368	-1.9395	-0.0432	0.0221	-0.0678	15.3087	-16.5098	15.9990	-0.3049	-0.6298	-0.4554	0.5504
0.6	-9.5080	-0.9523	-1.9327	-0.0493	0.0218	-0.0693	15.1172	-16.6061	15.7400	-0.3050	-0.6298	-0.4556	0.5503
0.61	-9.5284	-0.9797	-1.9454	-0.0525	0.0200	-0.0665	15.0192	-16.4501	15.9048	-0.3050	-0.6298	-0.4557	0.5501
0.62	-9.5184	-1.0057	-1.9633	-0.0522	0.0095	-0.0626	15.1952	-16.6340	15.8609	-0.3050	-0.6298	-0.4559	0.5500
0.63	-9.4816	-1.0226	-1.9656	-0.0616	0.0010	-0.0564	15.1627	-16.6414	15.9059	-0.3052	-0.6297	-0.4561	0.5499
0.64	-9.4569	-1.0575	-1.9763	-0.0568	-0.0005	-0.0636	15.1073	-16.3709	15.7774	-0.3052	-0.6296	-0.4562	0.5497
0.65	-9.4449	-1.0875	-1.9807	-0.0493	-0.0043	-0.0567	15.1281	-16.4079	15.7800	-0.3054	-0.6296	-0.4563	0.5497
0.66	-9.4610	-1.1041	-1.9844	-0.0477	0.0021	-0.0556	15.1422	-16.3770	15.9465	-0.3055	-0.6295	-0.4564	0.5496
0.67	-9.4546	-1.1127	-1.9952	-0.0356	0.0030	-0.0528	15.0434	-16.6822	15.9790	-0.3056	-0.6296	-0.4565	0.5495
0.68	-9.4451	-1.1028	-1.9929	-0.0264	0.0024	-0.0574	15.1050	-16.5345	15.9734	-0.3055	-0.6295	-0.4565	0.5494
0.69	-9.4400	-1.1008	-1.9978	-0.0247	0.0028	-0.0531	15.3912	-16.5122	15.8336	-0.3056	-0.6295	-0.4566	0.5494
0.7	-9.4239	-1.0974	-1.9983	-0.0091	0.0112	-0.0620	15.1537	-16.5342	15.7626	-0.3055	-0.6296	-0.4566	0.5494
0.71	-9.4093	-1.0872	-2.0034	0.0026	0.0066	-0.0621	14.7953	-16.4600	15.8076	-0.3054	-0.6296	-0.4566	0.5493
0.72	-9.4061	-1.0689	-2.0040	0.0037	0.0012	-0.0619	15.1998	-16.5782	15.6550	-0.3054	-0.6297	-0.4567	0.5494
0.73	-9.4312	-1.0403	-2.0038	0.0117	0.0129	-0.0675	15.1942	-16.3278	15.7458	-0.3052	-0.6297	-0.4566	0.5494
0.74	-9.4752	-1.0135	-2.0187	0.0134	0.0178	-0.0675	15.2924	-16.7069	15.7910	-0.3050	-0.6298	-0.4567	0.5495
0.75	-9.4772	-0.9862	-2.0201	-0.0007	0.0057	-0.0682	15.2283	-16.8708	15.8770	-0.3049	-0.6297	-0.4566	0.5494
0.76	-9.4640	-0.9666	-2.0145	0.0014	-0.0020	-0.0741	15.0725	-16.6637	16.0079	-0.3048	-0.6298	-0.4567	0.5495
0.77	-9.4866	-0.9594	-2.0230	-0.0111	0.0111	-0.0807	15.0235	-16.5467	15.9266	-0.3047	-0.6297	-0.4568	0.5495
0.78	-9.4934	-0.9543	-2.0286	-0.0218	-0.0016	-0.0806	15.0429	-16.5672	15.7618	-0.3046	-0.6297	-0.4569	0.5495
0.79	-9.4934	-0.9594	-2.0199	-0.0396	-0.0032	-0.0797	15.0198	-16.5890	15.9971	-0.3047	-0.6296	-0.4570	0.5495
0.8	-9.5017	-0.9810	-2.0204	-0.0487	-0.0056	-0.0810	15.1978	-16.6415	15.9575	-0.3047	-0.6295	-0.4572	0.5494
0.81	-9.5013	-1.0093	-2.0206	-0.0562	-0.0103	-0.0828	15.1774	-16.5347	16.0036	-0.3048	-0.6294	-0.4574	0.5494
0.82	-9.5256	-1.0355	-2.0206	-0.0714	-0.0235	-0.0808	14.9918	-16.5982	15.7798	-0.3049	-0.6291	-0.4576	0.5493
0.83	-9.5387	-1.0643	-2.0246	-0.0698	-0.0184	-0.0808	15.3949	-16.3297	15.8870	-0.3051	-0.6290	-0.4578	0.5493
0.84	-9.5435	-1.0860	-2.0167	-0.0759	-0.0274	-0.0821	15.5253	-16.4551	16.2105	-0.3052	-0.6287	-0.4580	0.5493
0.85	-9.5020	-1.1126	-2.0130	-0.0703	-0.0385	-0.0824	15.4067	-16.4686	15.9606	-0.3054	-0.6285	-0.4583	0.5493
0.86	-9.5174	-1.1240	-1.9853	-0.0719	-0.0372	-0.0819	15.3582	-16.3279	15.7529	-0.3056	-0.6282	-0.4584	0.5493
0.87	-9.5832	-1.1558	-2.0007	-0.0526	-0.0306	-0.0825	15.1295	-16.0763	15.8682	-0.3057	-0.6280	-0.4586	0.5493
0.88	-9.5106	-1.1458	-1.9941	-0.0592	-0.0604	-0.0789	14.9820	-16.6575	15.6158	-0.3059	-0.6278	-0.4587	0.5494
0.89	-9.4784	-1.1546	-1.9545	-0.0556	-0.0524	-0.0841	15.1205	-16.4738	15.7240	-0.3061	-0.6275	-0.4588	0.5495
0.9	-9.4951	-1.1758	-1.9673	-0.0519	-0.0531	-0.0817	15.2520	-16.4465	15.9620	-0.3063	-0.6273	-0.4590	0.5497
0.91	-9.5195	-1.1615	-1.9517	-0.0448	-0.0626	-0.0810	15.4453	-16.6158	15.7162	-0.3064	-0.6270	-0.4590	0.5498
0.92	-9.5180	-1.1543	-1.9485	-0.0355	-0.0624	-0.0688	15.5781	-16.6652	15.5905	-0.3066	-0.6268	-0.4591	0.5500
0.93	-9.5124	-1.1464	-1.9286	-0.0288	-0.0630	-0.0684	15.4587	-16.4353	15.8640	-0.3067	-0.6265	-0.4590	0.5501
0.94	-9.5184	-1.1322	-1.9219	-0.0240	-0.0644	-0.0684	15.5208	-16.5925	15.9161	-0.3069	-0.6263	-0.4591	0.5503
0.95	-9.4872	-1.1229	-1.9132	-0.0264	-0.0669	-0.0729	15.3526	-16.8371	15.5913	-0.3070	-0.6261	-0.4590	0.5505
0.96	-9.4374	-1.1262	-1.8902	-0.0308	-0.0661	-0.0803	15.2826	-16.7341	15.7877	-0.3071	-0.6258	-0.4590	0.5506
0.97	-9.4275	-1.1222	-1.8847	-0.0265	-0.0603	-0.0814	15.2888	-16.5275	15.5684	-0.3073	-0.6257	-0.4591	0.5509
0.98	-9.4236	-1.1229	-1.8730	-0.0356	-0.0602	-0.0814	15.3583	-16.5385	15.6377	-0.3074	-0.6254	-0.4592	0.5510
0.99	-9.4102	-1.1267	-1.8569	-0.0360	-0.0642	-0.0780	15.3398	-16.3884	15.7343	-0.3075	-0.6252	-0.4593	0.5512
1	-9.3919	-1.1325	-1.8513	-0.0398	-0.0554	-0.0804	15.2813	-16.6888	15.4202	-0.3076	-0.6249	-0.4593	0.5512
1.01	-9.3828	-1.1365	-1.8418	-0.0467	-0.0539	-0.0801	15.4065	-16.5744	15.5873	-0.3077	-0.6247	-0.4594	0.5514
1.02	-9.3772	-1.1392	-1.8346	-0.0510	-0.0411	-0.0789	15.2419	-16.4277	15.5387	-0.3078	-0.6245	-0.4596	0.5514
1.03	-9.3560	-1.1493	-1.8339	-0.0505	-0.0429	-0.0824	15.4025	-16.4713	15.5469	-0.3079	-0.6242	-0.4597	0.5515
1.04	-9.3571	-1.1639	-1.8211	-0.0481	-0.0313	-0.0815	15.3881	-16.4624	15.5627	-0.3080	-0.6241	-0.4599	0.5515
1.05	-9.3714	-1.1774	-1.8332	-0.0519	-0.0241	-0.0740	15.2532	-16.5679	15.7938	-0.3081	-0.6239	-0.4600	0.5515
1.06	-9.3717	-1.1841	-1.8399	-0.0506	-0.0210	-0.0708	15.3966	-16.3394	15.6671	-0.3082	-0.6238	-0.4602	0.5515
1.07	-9.3575	-1.1960	-1.8395	-0.0501	-0.0110	-0.0746	15.2973	-16.4762	15.5324	-0.3082	-0.6236	-0.4603	0.5514
1.08	-9.3810	-1.2144	-1.8353	-0.0501	-0.0031	-0.0613	15.4147	-16.4430	15.5740	-0.3083	-0.6236	-0.4605	0.5514
1.09	-9.4003	-1.2250	-1.8503	-0.0434	0.0086	-0.0606	15.1976	-16.5073	15.4913	-0.3084	-0.6236	-0.4606	0.5512
1.1	-9.4139	-1.2122	-1.8462	-0.0307	0.0021	-0.0539	15.6107	-16.5743	15.4628	-0.3084	-0.6236	-0.4607	0.5512
1.11	-9.4346	-1.2240	-1.8536	-0.0242	0.0113	-0.0607	15.7865	-16.5212	15.3568	-0.3083	-0.6236	-0.4608	0.5511
1.12	-9.4479	-1.2268	-1.8555	-0.0218	0.0213	-0.0530	15.5959	-16.5859	15.3959	-0.3083	-0.6236	-0.4609	0.5510
1.13	-9.4643	-1.2185	-1.8625	-0.0080	0.0178	-0.0485	15.7225	-16.6609	15.4999	-0.3082	-0.6237	-0.4609	0.5509
1.14	-9.4757	-1.2042	-1.8741	-0.0011	0.0118	-0.0486	15.4589	-16.5544	15.4247	-0.3081	-0.6238	-0.4609	0.5508
1.15	-9.4715	-1.1988	-1.8703	-0.0027	0.0116	-0.0489	15.3978	-16.5277	15.6052	-0.3081	-0.6239	-0.4609	0.5508
1.16	-9.4710	-1.1773	-1.8705	0.0023	0.0159	-0.0416	15.5022	-16.4487	15.6351	-0.3081	-0.6240	-0.4608	0.5508
1.17	-9.4951	-1.1623	-1.8699	0.0067	0.0150	-0.0442	15.4723	-16.7115	15.7107	-0.3080	-0.6242	-0.4608	0.5508
1.18	-9.4965	-1.1571	-1.8717	0.0154	0.0109	-0.0433	15.4765	-16.7461	15.8499	-0.3079	-0.6242	-0.4607	0.5507
1.19	-9.4886	-1.1432	-1.8730	0.0102	0.0073	-0.0422	15.3722	-16.5620	15.8252	-0.3079	-0.6243	-0.4606	0.5507
1.2	-9.4941	-1.1294	-1.8707	0.0091	0.0068	-0.0491	15.1836	-16.5826	15.6291	-0.3078	-0.6244	-0.4605	0.5507
1.21	-9.4812	-1.1184	-1.8758	0.0079	0.0045	-0.0460	15.0666	-16.3827	15.7389	-0.3077	-0.6245	-0.4604	0.5507
1.22	-9.4631	-1.1162	-1.8687	0.0026	0.0031	-0.0460	15.3719	-16.2753	15.6152	-0.3077	-0.6246	-0.4604	0.5508
1.23	-9.4660	-1.1093	-1.8649	0.0022	0.0076	-0.0459	15.3671	-16.5436	15.3925	-0.3076	-0.6246	-0.4603	0.5507
1.24	-9.4960	-1.0999	-1.8737	-0.0023	0.0144	-0.0425	15.2185	-16.3582	15.5427	-0.3076	-0.6248	-0.4603	0.5507
1.25	-9.4718	-1.0821	-1.8812	0.0000	0.0059	-0.0420	15.1992	-16.3859	15.6294	-0.3075	-0.6248	-0.4602	0.5506
1.26	-9.4608	-1.0787	-1.8643	-0.0077	0.0080	-0.0438	15.2345	-16.4631	15.6636	-0.3076	-0.6249	-0.4602	0.5506
1.27	-9.4955	-1.0882	-1.8776	-0.0172	0.0148	-0.0388	15.3301	-16.6645	15.6076	-0.3076	-0.6250	-0.4602	0.5505
1.28	-9.5050	-1.0873	-1.8846	-0.0219	0.0060	-0.0401	15.2589	-16.8026	15.7613	-0.3076	-0.6250	-0.4602	0.5504
1.29	-9.4756	-1.0854	-1.8784	-0.0252	-0.0015	-0.0403	15.5223	-16.9261	15.7103	-0.3077	-0.6251	-0.4602	0.5503
1.3	-9.4782	-1.0954	-1.8814	-0.0277	0.0043	-0.0443	15.4268	-16.9788	15.6944	-0.3077	-0.6251	-0.4602	0.5502
1.31	-9.4905	-1.1085	-1.8908	-0.0221	0.0087	-0.0419	15.3734	-16.8333	15.7060	-0.3078	-0.6252	-0.4602	0.5502
1.32	-9.4523	-1.1068	-1.8915	-0.0258	0.0078	-0.0431	15.3880	-16.6511	15.6082	-0.3078	-0.6251	-0.4602	0.5500
1.33	-9.4413	-1.1101	-1.8853	-0.0265	0.0081	-0.0413	15.5019	-16.3953	15.8843	-0.3079	-0.6253	-0.4602	0.5500
1.34	-9.4555	-1.1244	-1.9000	-0.0252	0.0136	-0.0410	15.9479	-16.5275	15.9707	-0.3079	-0.6253	-0.4602	0.5499
1.35	-9.4364	-1.1209	-1.9005	-0.0251	0.0105	-0.0436	15.7858	-16.5240	16.0403	-0.3080	-0.6254	-0.4603	0.5498
1.36	-9.4562	-1.1132	-1.8880	-0.0217	0.0180	-0.0418	15.4566	-16.5196	15.8722	-0.3080	-0.6254	-0.4602	0.5496
1.37	-9.4817	-1.1128	-1.9063	-0.0273	0.0128	-0.0408	15.3121	-16.4737	15.7871	-0.3080	-0.6255	-0.4603	0.5495
1.38	-9.4617	-1.1107	-1.9027	-0.0210	0.0178	-0.0460	15.1454	-16.5974	15.9604	-0.3081	-0.6256	-0.4603	0.5495
1.39	-9.4470	-1.1073	-1.9030	-0.0272	0.0200	-0.0500	15.4569	-16.4609	15.8677	-0.3080	-0.6256	-0.4603	0.5493
1.4	-9.4642	-1.1057	-1.9182	-0.0250	0.0222	-0.0514	15.2511	-16.6020	15.7357	-0.3081	-0.6257	-0.4604	0.5492
1.41	-9.4686	-1.1123	-1.9255	-0.0224	0.0259	-0.0502	15.2891	-16.6573	15.7902	-0.3080	-0.6258	-0.4605	0.5491
1.42	-9.4655	-1.1178	-1.9318	-0.0275	0.0193	-0.0428	15.4986	-16.4526	15.7271	-0.3081	-0.6259	-0.4605	0.5490
1.43	-9.4538	-1.1287	-1.9366	-0.0228	0.0262	-0.0458	15.1557	-16.5083	15.8977	-0.3080	-0.6259	-0.4605	0.5488
1.44	-9.4329	-1.1239	-1.9386	-0.0236	0.0233	-0.0434	15.4325	-16.4329	15.6628	-0.3080	-0.6260	-0.4606	0.5487
1.45	-9.4470	-1.1104	-1.9341	-0.0261	0.0245	-0.0368	15.2889	-16.3955	15.7771	-0.3081	-0.6261	-0.4606	0.5485
1.46	-9.4561	-1.1053	-1.9450	-0.0174	0.0153	-0.0364	15.2040	-16.3585	15.8929	-0.3081	-0.6262	-0.4606	0.5484
1.47	-9.4479	-1.1062	-1.9434	-0.0205	0.0154	-0.0462	15.3316	-16.5423	15.7325	-0.3081	-0.6264	-0.4606	0.5484
1.48	-9.4610	-1.1203	-1.9502	-0.0208	0.0224	-0.0394	15.3390	-16.7886	15.7776	-0.3081	-0.6264	-0.4606	0.5482
1.49	-9.4727	-1.1157	-1.9584	-0.0243	0.0234	-0.0331	15.2240	-16.7445	15.8036	-0.3082	-0.6265	-0.4607	0.5481
1.5	-9.4939	-1.0980	-1.9572	-0.0231	0.0198	-0.0305	15.3342	-16.6493	15.9965	-0.3082	-0.6266	-0.4606	0.5479
1.51	-9.4764	-1.0988	-1.9650	-0.0232	0.0091	-0.0328	15.2734	-16.4562	15.7757	-0.3083	-0.6267	-0.4606	0.5478
1.52	-9.4256	-1.0973	-1.9557	-0.0224	0.0089	-0.0295	15.1139	-16.4459	15.8075	-0.3083	-0.6268	-0.4606	0.5477
1.53	-9.4061	-1.1072	-1.9678	-0.0265	0.0056	-0.0292	15.3800	-16.3601	15.8719	-0.3084	-0.6268	-0.4605	0.5476
1.54	-9.4026	-1.1126	-1.9817	-0.0280	0.0086	-0.0309	15.1743	-16.4942	15.8407	-0.3085	-0.6269	-0.4605	0.5475
1.55	-9.3821	-1.1188	-1.9801	-0.0164	0.0155	-0.0272	15.3001	-16.4961	15.9983	-0.3085	-0.6270	-0.4605	0.5473
1.56	-9.3775	-1.1194	-1.9914	-0.0054	0.0150	-0.0264	15.2774	-16.6109	15.8862	-0.3085	-0.6272	-0.4604	0.5473
1.57	-9.3941	-1.1045	-2.0016	-0.0040	0.0372	-0.0257	15.1269	-16.4596	16.1576	-0.3084	-0.6273	-0.4604	0.5470
1.58	-9.4124	-1.0918	-2.0115	0.0022	0.0348	-0.0269	15.1388	-16.4870	16.2053	-0.3084	-0.6276	-0.4603	0.5470
1.59	-9.4274	-1.0862	-2.0166	0.0015	0.0304	-0.0305	15.0028	-16.4633	15.7863	-0.3083	-0.6277	-0.4603	0.5468
1.6	-9.4420	-1.0793	-2.0219	0.0076	0.0325	-0.0405	15.1486	-16.2648	15.9711	-0.3083	-0.6279	-0.4602	0.5467
1.61	-9.4584	-1.0693	-2.0305	0.0176	0.0331	-0.0372	15.1356	-16.5127	15.8124	-0.3081	-0.6281	-0.4601	0.5466
1.62	-9.4420	-1.0544	-2.0287	0.0197	0.0348	-0.0416	15.1499	-16.6920	16.1810	-0.3080	-0.6283	-0.4601	0.5466
1.63	-9.4392	-1.0376	-2.0316	0.0144	0.0354	-0.0386	15.1017	-16.6313	16.1834	-0.3078	-0.6285	-0.4600	0.5465
1.64	-9.4392	-1.0173	-2.0482	0.0154	0.0389	-0.0341	14.9379	-16.6781	16.1068	-0.3077	-0.6286	-0.4599	0.5464
1.65	-9.4350	-1.0005	-2.0459	0.0142	0.0368	-0.0368	14.9833	-16.5292	16.1444	-0.3076	-0.6289	-0.4599	0.5463
1.66	-9.4320	-0.9873	-2.0487	0.0036	0.0451	-0.0420	15.0770	-16.6101	16.1259	-0.3075	-0.6291	-0.4598	0.5462
1.67	-9.4340	-0.9825	-2.0671	0.0028	0.0428	-0.0394	15.0266	-16.4611	16.1292	-0.3074	-0.6293	-0.4598	0.5461
1.68	-9.4447	-0.9798	-2.0667	-0.0091	0.0370	-0.0465	15.1598	-16.5880	16.1435	-0.3072	-0.6294	-0.4598	0.5459
1.69	-9.4680	-0.9833	-2.0779	-0.0114	0.0398	-0.0515	15.1216	-16.6383	15.9841	-0.3072	-0.6296	-0.4598	0.5458
1.7	-9.4704	-0.9831	-2.0884	-0.0197	0.0413	-0.0551	15.1743	-16.3807	15.9432	-0.3071	-0.6297	-0.4599	0.5456
1.71	-9.4731	-0.9948	-2.0861	-0.0283	0.0396	-0.0536	15.0343	-16.6935	15.9258	-0.3070	-0.6297	-0.4600	0.5454
1.72	-9.4916	-1.0133	-2.0994	-0.0351	0.0335	-0.0603	15.0815	-16.5249	16.0882	-0.3070	-0.6299	-0.4602	0.5453
1.73	-9.4863	-1.0225	-2.1021	-0.0413	0.0251	-0.0617	14.9831	-16.6312	16.1008	-0.3070	-0.6299	-0.4603	0.5451
1.74	-9.4841	-1.0303	-2.1098	-0.0373	0.0173	-0.0618	15.0186	-16.8628	16.0282	-0.3070	-0.6299	-0.4604	0.5450
1.75	-9.5044	-1.0511	-2.1156	-0.0476	0.0207	-0.0636	15.0611	-16.7354	16.0385	-0.3070	-0.6298	-0.4605	0.5448
1.76	-9.4541	-1.0574	-2.1143	-0.0515	0.0175	-0.0716	14.9460	-16.6273	16.0680	-0.3071	-0.6299	-0.4608	0.5447
1.77	-9.5053	-1.0597	-2.0894	-0.0527	0.0143	-0.0696	14.7665	-16.5274	16.3087	-0.3071	-0.6298	-0.4609	0.5446
1.78	-9.5594	-1.0833	-2.1341	-0.0485	0.0154	-0.0787	14.9403	-16.6622	16.0438	-0.3071	-0.6297	-0.4611	0.5445
1.79	-9.4775	-1.0776	-2.1128	-0.0480	-0.0140	-0.0736	14.9715	-16.6500	15.9309	-0.3072	-0.6297	-0.4613	0.5444
1.8	-9.4942	-1.0945	-2.0862	-0.0421	-0.0072	-0.0734	14.7083	-16.5433	15.9647	-0.3073	-0.6295	-0.4614	0.5444
1.81	-9.5122	-1.1178	-2.1238	-0.0356	-0.0005	-0.0822	14.8703	-16.5926	16.1286	-0.3073	-0.6295	-0.4616	0.5444
1.82	-9.4740	-1.1145	-2.1026	-0.0515	-0.0228	-0.0748	14.9360	-16.4756	16.1224	-0.3073	-0.6293	-0.4616	0.5443
1.83	-9.4659	-1.1217	-2.0950	-0.0403	-0.0233	-0.0661	15.2161	-16.4700	16.2473	-0.3075	-0.6292	-0.4618	0.5444
1.84	-9.4753	-1.1178	-2.0954	-0.0375	-0.0144	-0.0629	15.5314	-16.4861	16.5346	-0.3075	-0.6291	-0.4618	0.5444
1.85	-9.4920	-1.1124	-2.0825	-0.0347	-0.0265	-0.0608	15.4224	-16.4429	16.3676	-0.3077	-0.6290	-0.4619	0.5444
1.86	-9.4851	-1.1219	-2.0866	-0.0332	-0.0369	-0.0652	15.4132	-16.5474	16.0893	-0.3078	-0.6289	-0.4619	0.5444
1.87	-9.4639	-1.1385	-2.0755	-0.0300	-0.0376	-0.0690	15.0601	-16.4617	16.0712	-0.3079	-0.6287	-0.4619	0.5445
1.88	-9.4743	-1.1388	-2.0654	-0.0321	-0.0272	-0.0692	15.2041	-16.8207	16.0203	-0.3079	-0.6286	-0.4620	0.5446
1.89	-9.4694	-1.1352	-2.0642	-0.0285	-0.0341	-0.0601	15.0222	-16.6227	16.0462	-0.3080	-0.6284	-0.4620	0.5446
1.9	-9.4499	-1.1345	-2.0500	-0.0256	-0.0415	-0.0580	14.9221	-16.5688	16.0027	-0.3082	-0.6284	-0.4620	0.5448
1.91	-9.4313	-1.1374	-2.0417	-0.0268	-0.0416	-0.0583	15.0262	-16.7183	16.0860	-0.3083	-0.6282	-0.4620	0.5448
1.92	-9.4199	-1.1298	-2.0344	-0.0257	-0.0390	-0.0556	15.0765	-16.6260	16.1346	-0.3084	-0.6282	-0.4620	0.5449
1.93	-9.4034	-1.1228	-2.0285	-0.0271	-0.0324	-0.0549	15.1049	-16.9490	16.1316	-0.3085	-0.6280	-0.4619	0.5449
1.94	-9.3974	-1.1171	-2.0127	-0.0263	-0.0314	-0.0541	15.1227	-16.6195	16.1036	-0.3086	-0.6280	-0.4620	0.5450
1.95	-9.4057	-1.1107	-2.0122	-0.0266	-0.0189	-0.0501	15.2028	-16.4602	15.9841	-0.3087	-0.6279	-0.4620	0.5450
1.96	-9.3969	-1.1051	-2.0078	-0.0259	-0.0308	-0.0448	14.9086	-16.4648	16.1200	-0.3088	-0.6278	-0.4619	0.5450
1.97	-9.3993	-1.1005	-1.9997	-0.0248	-0.0212	-0.0461	14.8310	-16.3316	16.1234	-0.3090	-0.6279	-0.4619	0.5451
1.98	-9.4048	-1.1036	-2.0061	-0.0270	-0.0200	-0.0492	14.9877	-16.4284	15.9478	-0.3090	-0.6277	-0.4619	0.5450
1.99	-9.3942	-1.0999	-2.0039	-0.0252	-0.0147	-0.0428	15.0288	-16.4277	15.9420	-0.3091	-0.6278	-0.4619	0.5451
2	-9.3812	-1.1053	-2.0042	-0.0284	-0.0079	-0.0426	15.0013	-16.6590	15.9106	-0.3092	-0.6277	-0.4619	0.5449
2.01	-9.3767	-1.1132	-2.0163	-0.0270	-0.0130	-0.0424	15.0273	-16.4676	15.9902	-0.3093	-0.6277	-0.4619	0.5449
2.02	-9.3754	-1.1149	-2.0180	-0.0227	-0.0014	-0.0414	14.9922	-16.5321	15.9727	-0.3093	-0.6278	-0.4619	0.5449
2.03	-9.3825	-1.1159	-2.0190	-0.0173	0.0053	-0.0337	15.0877	-16.7275	15.9883	-0.3093	-0.6278	-0.4619	0.5448
2.04	-9.3966	-1.1151	-2.0283	-0.0233	0.0110	-0.0305	15.2075	-16.8258	16.1652	-0.3094	-0.6279	-0.4619	0.5447
2.05	-9.4073	-1.1117	-2.0335	-0.0198	0.0087	-0.0345	15.0478	-16.6130	15.8220	-0.3094	-0.6280	-0.4618	0.5446
2.06	-9.4112	-1.1066	-2.0391	-0.0035	0.0165	-0.0384	14.9817	-16.5657	15.9026	-0.3094	-0.6281	-0.4618	0.5445
2.07	-9.4168	-1.0922	-2.0449	-0.0032	0.0214	-0.0305	15.1205	-16.6701	16.0426	-0.3093	-0.6282	-0.4617	0.5444
2.08	-9.4310	-1.0828	-2.0530	-0.0009	0.0177	-0.0349	15.0785	-16.5877	16.0198	-0.3094	-0.6284	-0.4617	0.5444
2.09	-9.4509	-1.0717	-2.0650	-0.0010	0.0225	-0.0410	14.9947	-16.7044	16.0498	-0.3093	-0.6285	-0.4616	0.5442
2.1	-9.4489	-1.0556	-2.0749	0.0045	0.0199	-0.0380	15.0146	-16.9478	15.9705	-0.3092	-0.6287	-0.4616	0.5442
2.11	-9.4480	-1.0411	-2.0747	0.0079	0.0176	-0.0391	15.0155	-16.6646	15.8155	-0.3091	-0.6288	-0.4615	0.5441
2.12	-9.4713	-1.0344	-2.0759	0.0022	0.0203	-0.0419	15.1202	-16.7806	16.1475	-0.3091	-0.6289	-0.4615	0.5441
2.13	-9.4862	-1.0212	-2.0892	-0.0001	0.0224	-0.0470	14.8986	-16.7444	16.2314	-0.3090	-0.6290	-0.4615	0.5440
2.14	-9.4809	-1.0140	-2.0859	-0.0017	0.0085	-0.0497	15.0178	-16.3439	15.8665	-0.3089	-0.6291	-0.4614	0.5439
2.15	-9.4860	-1.0158	-2.0853	-0.0041	0.0029	-0.0481	15.0172	-16.3544	16.1081	-0.3089	-0.6292	-0.4614	0.5440
2.16	-9.4801	-1.0175	-2.0919	-0.0129	0.0044	-0.0570	14.8597	-16.5620	16.3461	-0.3089	-0.6292	-0.4614	0.5439
2.17	-9.4695	-1.0187	-2.0939	-0.0177	0.0053	-0.0522	14.8149	-16.6567	16.0665	-0.3089	-0.6293	-0.4615	0.5439
2.18	-9.4611	-1.0189	-2.0971	-0.0227	-0.0018	-0.0583	14.9340	-16.6205	16.2586	-0.3088	-0.6292	-0.4614	0.5438
2.19	-9.4631	-1.0310	-2.1033	-0.0241	0.0046	-0.0560	14.9234	-16.5041	16.0343	-0.3089	-0.6292	-0.4615	0.5438
2.2	-9.4419	-1.0485	-2.1053	-0.0265	-0.0011	-0.0567	14.9159	-16.4223	16.0773	-0.3089	-0.6292	-0.4616	0.5437
2.21	-9.4379	-1.0598	-2.1034	-0.0259	-0.0081	-0.0578	14.6260	-16.1716	16.1330	-0.3089	-0.6291	-0.4616	0.5437
2.22	-9.4602	-1.0683	-2.1098	-0.0267	-0.0098	-0.0574	14.8804	-16.3947	15.9979	-0.3090	-0.6292	-0.4617	0.5437
2.23	-9.4648	-1.0808	-2.1130	-0.0280	-0.0096	-0.0571	15.2178	-16.9077	16.2023	-0.3090	-0.6291	-0.4617	0.5437
2.24	-9.4630	-1.0868	-2.1081	-0.0255	-0.0064	-0.0593	15.1234	-16.7843	16.2355	-0.3091	-0.6291	-0.4618	0.5437
2.25	-9.4728	-1.0859	-2.1131	-0.0262	-0.0079	-0.0565	15.0160	-16.5037	16.1217	-0.3091	-0.6290	-0.4618	0.5436
2.26	-9.4798	-1.0980	-2.1153	-0.0252	-0.0116	-0.0593	14.8810	-16.5656	15.9873	-0.3091	-0.6290	-0.4618	0.5436
2.27	-9.4673	-1.0966	-2.1084	-0.0255	-0.0180	-0.0485	14.8328	-16.6827	16.0926	-0.3092	-0.6290	-0.4618	0.5436
2.28	-9.4632	-1.1007	-2.1108	-0.0259	-0.0236	-0.0554	15.1098	-16.7981	16.1501	-0.3093	-0.6289	-0.4618	0.5436
2.29	-9.4666	-1.1123	-2.1131	-0.0263	-0.0273	-0.0455	15.1087	-16.8155	16.0091	-0.3094	-0.6289	-0.4618	0.5437
2.3	-9.4595	-1.1060	-2.1055	-0.0257	-0.0284	-0.0433	14.6844	-16.7788	16.1932	-0.3095	-0.6288	-0.4618	0.5437
2.31	-9.4428	-1.0961	-2.1029	-0.0242	-0.0313	-0.0412	14.8985	-16.4384	16.2146	-0.3096	-0.6288	-0.4618	0.5437
2.32	-9.4413	-1.0978	-2.0998	-0.0278	-0.0272	-0.0472	14.9240	-16.5480	16.2101	-0.3097	-0.6286	-0.4617	0.5437
2.33	-9.4538	-1.0954	-2.1015	-0.0218	-0.0264	-0.0470	15.0532	-16.4207	16.2051	-0.3098	-0.6287	-0.4617	0.5438
2.34	-9.4431	-1.0872	-2.1028	-0.0222	-0.0329	-0.0470	15.2642	-16.5006	16.3966	-0.3099	-0.6286	-0.4617	0.5438
2.35	-9.4459	-1.0704	-2.0885	-0.0110	-0.0291	-0.0449	15.0616	-16.5563	16.3369	-0.3100	-0.6285	-0.4616	0.5439
2.36	-9.4410	-1.0605	-2.0830	-0.0129	-0.0289	-0.0497	14.9440	-16.5178	16.1931	-0.3101	-0.6285	-0.4615	0.5439
2.37	-9.4096	-1.0621	-2.0809	-0.0208	-0.0374	-0.0480	14.8529	-16.5559	16.0102	-0.3102	-0.6284	-0.4615	0.5440
2.38	-9.4091	-1.0426	-2.0764	-0.0198	-0.0278	-0.0503	15.0662	-16.6826	15.9522	-0.3103	-0.6284	-0.4615	0.5440
2.39	-9.4108	-1.0448	-2.0681	-0.0184	-0.0221	-0.0519	14.9823	-16.5446	16.2495	-0.3103	-0.6283	-0.4614	0.5440
2.4	-9.4265	-1.0520	-2.0651	-0.0169	-0.0316	-0.0521	14.9419	-16.5854	16.2003	-0.3104	-0.6283	-0.4615	0.5441
2.41	-9.4239	-1.0606	-2.0679	-0.0183	-0.0269	-0.0499	15.3235	-16.7995	16.1086	-0.3104	-0.6282	-0.4614	0.5442
2.42	-9.4227	-1.0606	-2.0555	-0.0257	-0.0251	-0.0555	15.2043	-16.6442	16.1616	-0.3105	-0.6282	-0.4614	0.5442
2.43	-9.4329	-1.0593	-2.0571	-0.0186	-0.0252	-0.0553	15.0160	-16.6429	16.0198	-0.3106	-0.6280	-0.4614	0.5442
2.44	-9.4261	-1.0479	-2.0520	-0.0217	-0.0303	-0.0559	15.2022	-16.7806	15.9370	-0.3106	-0.6280	-0.4614	0.5443
2.45	-9.4302	-1.0570	-2.0410	-0.0273	-0.0271	-0.0551	15.2567	-16.6590	16.1463	-0.3107	-0.6279	-0.4614	0.5443
2.46	-9.4731	-1.0776	-2.0504	-0.0248	-0.0150	-0.0636	15.1491	-16.6671	16.0566	-0.3107	-0.6278	-0.4614	0.5443
2.47	-9.4580	-1.0921	-2.0557	-0.0277	-0.0214	-0.0642	15.1452	-16.4236	15.9142	-0.3108	-0.6278	-0.4615	0.5444
2.48	-9.4444	-1.0961	-2.0325	-0.0270	-0.0289	-0.0487	15.0001	-16.5546	15.9748	-0.3109	-0.6277	-0.4615	0.5444
2.49	-9.4697	-1.1172	-2.0484	-0.0239	-0.0191	-0.0545	14.9439	-16.7065	16.1270	-0.3110	-0.6277	-0.4615	0.5444
2.5	-9.4260	-1.1210	-2.0509	-0.0277	-0.0252	-0.0442	15.0603	-16.5335	16.1393	-0.3110	-0.6276	-0.4615	0.5444
2.51	-9.4032	-1.1227	-2.0326	-0.0241	-0.0268	-0.0410	15.0674	-16.4677	15.9935	-0.3112	-0.6276	-0.4615	0.5444
2.52	-9.4171	-1.1458	-2.0531	-0.0268	-0.0184	-0.0391	15.0245	-16.6510	16.1025	-0.3113	-0.6275	-0.4614	0.5444
2.53	-9.4178	-1.1449	-2.0568	-0.0193	-0.0150	-0.0339	14.8517	-16.5917	16.1424	-0.3114	-0.6275	-0.4614	0.5444
2.54	-9.4125	-1.1350	-2.0548	-0.0020	-0.0135	-0.0261	15.0801	-16.4365	16.1193	-0.3114	-0.6276	-0.4613	0.5444
2.55	-9.4295	-1.1267	-2.0600	-0.0015	-0.0137	-0.0282	15.1852	-16.6478	15.9991	-0.3115	-0.6277	-0.4612	0.5444
2.56	-9.4272	-1.1010	-2.0673	0.0108	-0.0084	-0.0301	14.8337	-16.5948	16.1138	-0.3115	-0.6278	-0.4610	0.5444
2.57	-9.4238	-1.0805	-2.0634	0.0145	-0.0026	-0.0321	14.7373	-16.5356	16.1326	-0.3114	-0.6278	-0.4609	0.5444
2.58	-9.4357	-1.0669	-2.0559	0.0146	-0.0105	-0.0352	15.2655	-16.6917	16.1328	-0.3114	-0.6280	-0.4608	0.5445
2.59	-9.4352	-1.0461	-2.0616	0.0258	-0.0127	-0.0305	15.0237	-16.5922	15.9517	-0.3114	-0.6280	-0.4606	0.5445
2.6	-9.4481	-1.0136	-2.0512	0.0240	-0.0113	-0.0304	15.1693	-16.5383	15.9916	-0.3113	-0.6282	-0.4604	0.5446
2.61	-9.4580	-0.9836	-2.0588	0.0162	-0.0115	-0.0374	15.0152	-16.6649	16.2528	-0.3113	-0.6282	-0.4602	0.5446
2.62	-9.4642	-0.9661	-2.0606	0.0110	-0.0116	-0.0422	15.1333	-16.6374	16.3480	-0.3112	-0.6283	-0.4601	0.5447
2.63	-9.4808	-0.9512	-2.0621	0.0093	-0.0121	-0.0397	15.2464	-16.6559	16.2313	-0.3112	-0.6283	-0.4600	0.5447
2.64	-9.4678	-0.9465	-2.0648	0.0013	-0.0201	-0.0463	14.9406	-16.6385	15.8983	-0.3112	-0.6283	-0.4599	0.5447
2.65	-9.4578	-0.9526	-2.0584	-0.0113	-0.0190	-0.0506	14.9650	-16.6692	16.0917	-0.3113	-0.6284	-0.4599	0.5448
2.66	-9.4778	-0.9672	-2.0620	-0.0258	-0.0192	-0.0577	15.0008	-16.6144	16.2797	-0.3113	-0.6283	-0.4599	0.5448
2.67	-9.4796	-0.9812	-2.0695	-0.0260	-0.0253	-0.0592	15.0957	-16.7403	16.1321	-0.3114	-0.6282	-0.4600	0.5449
2.68	-9.4736	-1.0022	-2.0623	-0.0316	-0.0203	-0.0570	14.9374	-16.7300	16.1334	-0.3114	-0.6281	-0.4600	0.5448
2.69	-9.4924	-1.0287	-2.0592	-0.0387	-0.0161	-0.0589	15.1093	-16.4146	16.1220	-0.3115	-0.6281	-0.4601	0.5449
2.7	-9.4946	-1.0486	-2.0624	-0.0506	-0.0229	-0.0601	14.9811	-16.6822	16.1384	-0.3116	-0.6279	-0.4601	0.5448
2.71	-9.4947	-1.0641	-2.0551	-0.0461	-0.0336	-0.0595	14.9646	-16.5614	16.1157	-0.3118	-0.6278	-0.4602	0.5448
2.72	-9.4837	-1.0812	-2.0614	-0.0474	-0.0342	-0.0602	14.9600	-16.5551	16.1530	-0.3120	-0.6277	-0.4603	0.5449
2.73	-9.4764	-1.0935	-2.0445	-0.0367	-0.0333	-0.0555	15.1400	-16.4371	15.9274	-0.3121	-0.6275	-0.4603	0.5449
2.74	-9.4167	-1.0998	-2.0469	-0.0331	-0.0372	-0.0558	15.0881	-16.2936	16.0596	-0.3122	-0.6275	-0.4604	0.5450
2.75	-9.4538	-1.1037	-2.0245	-0.0302	-0.0360	-0.0577	15.0486	-16.3759	16.2639	-0.3123	-0.6273	-0.4603	0.5450
2.76	-9.5138	-1.1147	-2.0527	-0.0244	-0.0288	-0.0619	14.9411	-16.5114	15.8300	-0.3124	-0.6272	-0.4604	0.5451
2.77	-9.4330	-1.0918	-2.0313	-0.0258	-0.0520	-0.0593	14.8432	-16.6123	15.9051	-0.3125	-0.6271	-0.4604	0.5452
2.78	-9.4312	-1.0927	-2.0000	-0.0238	-0.0363	-0.0577	14.9459	-16.7365	15.9865	-0.3125	-0.6270	-0.4603	0.5452
2.79	-9.4499	-1.1089	-2.0373	-0.0213	-0.0339	-0.0625	15.1754	-16.7509	15.8103	-0.3126	-0.6269	-0.4604	0.5453
2.8	-9.4327	-1.0980	-2.0246	-0.0190	-0.0406	-0.0558	15.1244	-16.5843	15.7910	-0.3127	-0.6268	-0.4603	0.5454
2.81	-9.4061	-1.0877	-2.0088	-0.0211	-0.0403	-0.0449	15.1798	-16.7918	16.0952	-0.3128	-0.6267	-0.4603	0.5455
2.82	-9.4289	-1.0763	-2.0076	-0.0167	-0.0345	-0.0416	15.0131	-16.8572	15.9152	-0.3129	-0.6266	-0.4602	0.5455
2.83	-9.4505	-1.0652	-2.0143	-0.0042	-0.0337	-0.0452	15.3276	-16.4840	16.0948	-0.3130	-0.6266	-0.4602	0.5457
2.84	-9.4594	-1.0659	-2.0044	-0.0016	-0.0375	-0.0545	15.7441	-16.4596	15.9446	-0.3130	-0.6265	-0.4601	0.5457
2.85	-9.4578	-1.0751	-2.0009	-0.0026	-0.0355	-0.0553	15.5460	-16.5146	16.0507	-0.3130	-0.6265	-0.4600	0.5459
2.86	-9.4616	-1.0592	-2.0007	-0.0080	-0.0369	-0.0566	15.0913	-16.5542	16.0899	-0.3130	-0.6264	-0.4599	0.5460
2.87	-9.4727	-1.0500	-1.9980	-0.0046	-0.0321	-0.0552	14.9878	-16.3347	15.7993	-0.3131	-0.6263	-0.4599	0.5461
2.88	-9.4626	-1.0510	-1.9961	-0.0116	-0.0360	-0.0567	15.0199	-16.3490	16.1162	-0.3131	-0.6263	-0.4599	0.5462
2.89	-9.4526	-1.0478	-1.9896	-0.0098	-0.0395	-0.0511	15.1276	-16.4588	16.0242	-0.3132	-0.6261	-0.4598	0.5462
2.9	-9.4495	-1.0433	-1.9854	-0.0198	-0.0365	-0.0523	15.1061	-16.4628	15.9134	-0.3133	-0.6261	-0.4598	0.5464
2.91	-9.4199	-1.0475	-1.9901	-0.0254	-0.0407	-0.0538	15.0086	-16.5997	16.0730	-0.3134	-0.6260	-0.4597	0.5464
2.92	-9.4215	-1.0555	-1.9820	-0.0255	-0.0381	-0.0402	15.0400	-16.4404	15.9366	-0.3135	-0.6260	-0.4597	0.5465
2.93	-9.4547	-1.0611	-1.9877	-0.0266	-0.0357	-0.0459	15.0311	-16.5677	15.8272	-0.3136	-0.6258	-0.4596	0.5465
2.94	-9.4360	-1.0670	-1.9933	-0.0263	-0.0344	-0.0428	15.0191	-16.6308	15.9592	-0.3137	-0.6258	-0.4596	0.5466
2.95	-9.4502	-1.0740	-1.9747	-0.0265	-0.0370	-0.0357	15.0594	-16.5071	15.7010	-0.3139	-0.6257	-0.4596	0.5466
2.96	-9.4923	-1.0854	-1.9865	-0.0263	-0.0275	-0.0363	14.9202	-16.6293	15.9236	-0.3140	-0.6256	-0.4595	0.5466
2.97	-9.4859	-1.0757	-1.9877	-0.0265	-0.0353	-0.0430	15.0679	-16.7529	15.9384	-0.3142	-0.6257	-0.4595	0.5467
2.98	-9.4768	-1.0809	-1.9690	-0.0248	-0.0450	-0.0409	15.2423	-16.6797	15.7859	-0.3143	-0.6255	-0.4594	0.5467
2.99	-9.4740	-1.0867	-1.9771	-0.0187	-0.0414	-0.0466	14.9793	-16.8629	15.7025	-0.3144	-0.6255	-0.4594	0.5468
3	-9.4545	-1.0754	-1.9667	-0.0149	-0.0382	-0.0412	15.1521	-16.9285	15.9631	-0.3145	-0.6253	-0.4593	0.5468
3.01	-9.4386	-1.0684	-1.9580	-0.0148	-0.0376	-0.0427	15.0728	-16.7576	16.0185	-0.3146	-0.6253	-0.4592	0.5469
3.02	-9.4286	-1.0615	-1.9554	-0.0069	-0.0390	-0.0439	15.0497	-16.5335	15.8939	-0.3147	-0.6253	-0.4591	0.5470
3.03	-9.4306	-1.0487	-1.9477	-0.0006	-0.0340	-0.0423	15.2222	-16.6236	15.9498	-0.3147	-0.6252	-0.4590	0.5471
3.04	-9.4187	-1.0413	-1.9490	0.0000	-0.0358	-0.0413	15.2041	-16.6464	15.9180	-0.3148	-0.6252	-0.4589	0.5472
3.05	-9.4277	-1.0402	-1.9407	0.0005	-0.0340	-0.0382	15.3416	-16.3619	15.9333	-0.3148	-0.6252	-0.4588	0.5473
3.06	-9.4418	-1.0309	-1.9469	-0.0018	-0.0247	-0.0391	15.2330	-16.6213	15.9488	-0.3149	-0.6252	-0.4587	0.5474
3.07	-9.4413	-1.0299	-1.9379	-0.0017	-0.0120	-0.0378	15.1217	-16.6341	16.1923	-0.3148	-0.6252	-0.4586	0.5473
3.08	-9.4504	-1.0251	-1.9430	-0.0036	-0.0201	-0.0423	14.9980	-16.5446	15.7793	-0.3149	-0.6253	-0.4585	0.5474
3.09	-9.4616	-1.0143	-1.9362	-0.0032	-0.0248	-0.0445	15.0807	-16.6770	15.8718	-0.3149	-0.6252	-0.4584	0.5475
3.1	-9.4577	-1.0116	-1.9355	-0.0089	-0.0149	-0.0509	15.1505	-16.5642	16.1034	-0.3149	-0.6252	-0.4584	0.5475
3.11	-9.4510	-1.0132	-1.9340	-0.0053	-0.0239	-0.0473	15.0059	-16.4298	15.8689	-0.3149	-0.6252	-0.4584	0.5476
3.12	-9.4384	-1.0107	-1.9444	-0.0171	-0.0215	-0.0545	15.0574	-16.5091	16.0944	-0.3149	-0.6252	-0.4584	0.5476
3.13	-9.4271	-1.0136	-1.9391	-0.0194	-0.0183	-0.0531	15.1688	-16.7162	15.9243	-0.3150	-0.6251	-0.4584	0.5476
3.14	-9.4326	-1.0198	-1.9473	-0.0186	-0.0188	-0.0492	14.9879	-16.4386	15.9425	-0.3150	-0.6251	-0.4583	0.5476
3.15	-9.4400	-1.0203	-1.9480	-0.0178	-0.0199	-0.0563	15.2878	-16.3656	15.8935	-0.3151	-0.6251	-0.4584	0.5477
3.16	-9.4534	-1.0259	-1.9459	-0.0229	-0.0120	-0.0559	15.4041	-16.8218	15.8472	-0.3151	-0.6250	-0.4584	0.5477
3.17	-9.4778	-1.0286	-1.9494	-0.0252	-0.0113	-0.0580	15.3989	-16.6960	15.7733	-0.3151	-0.6250	-0.4585	0.5477
3.18	-9.4999	-1.0315	-1.9546	-0.0221	-0.0129	-0.0520	15.2811	-16.4863	15.7221	-0.3151	-0.6249	-0.4584	0.5476
3.19	-9.5249	-1.0307	-1.9566	-0.0241	-0.0145	-0.0546	15.2104	-16.8552	16.0145	-0.3152	-0.6249	-0.4585	0.5477
3.2	-9.5248	-1.0264	-1.9498	-0.0269	-0.0203	-0.0543	15.3386	-16.8400	16.0314	-0.3152	-0.6249	-0.4585	0.5477
3.21	-9.5274	-1.0195	-1.9376	-0.0244	-0.0260	-0.0547	15.2181	-16.5087	16.0206	-0.3152	-0.6248	-0.4585	0.5477
3.22	-9.5333	-1.0247	-1.9486	-0.0280	-0.0305	-0.0618	15.0875	-16.5716	15.9282	-0.3154	-0.6248	-0.4586	0.5478
3.23	-9.5134	-1.0306	-1.9380	-0.0274	-0.0320	-0.0589	15.0359	-16.5187	15.8998	-0.3154	-0.6246	-0.4586	0.5478
3.24	-9.4811	-1.0364	-1.9323	-0.0279	-0.0386	-0.0588	15.2113	-16.6228	15.7843	-0.3155	-0.6245	-0.4586	0.5479
3.25	-9.4615	-1.0434	-1.9254	-0.0279	-0.0303	-0.0589	15.2265	-16.6486	16.0453	-0.3155	-0.6244	-0.4586	0.5479
3.26	-9.4499	-1.0452	-1.9292	-0.0302	-0.0358	-0.0554	14.9483	-16.3983	16.0082	-0.3157	-0.6243	-0.4587	0.5480
3.27	-9.4267	-1.0527	-1.9175	-0.0259	-0.0380	-0.0570	14.9934	-16.5323	16.0166	-0.3157	-0.6242	-0.4587	0.5480
3.28	-9.4342	-1.0623	-1.9130	-0.0318	-0.0276	-0.0605	15.0417	-16.5534	15.7181	-0.3158	-0.6241	-0.4587	0.5480
3.29	-9.4532	-1.0652	-1.9194	-0.0290	-0.0289	-0.0562	15.0355	-16.5452	15.8650	-0.3159	-0.6240	-0.4587	0.5481
3.3	-9.4517	-1.0662	-1.9145	-0.0235	-0.0251	-0.0556	15.0011	-16.6844	15.9325	-0.3160	-0.6239	-0.4587	0.5481
3.31	-9.4472	-1.0656	-1.9061	-0.0330	-0.0221	-0.0549	14.9060	-16.7567	15.9861	-0.3160	-0.6239	-0.4588	0.5481
3.32	-9.4720	-1.0736	-1.9066	-0.0278	-0.0217	-0.0574	15.0212	-16.6219	16.0474	-0.3161	-0.6237	-0.4588	0.5481
3.33	-9.4886	-1.0743	-1.9124	-0.0233	-0.0178	-0.0533	15.2726	-16.5420	15.9984	-0.3161	-0.6238	-0.4589	0.5482
3.34	-9.4620	-1.0727	-1.8989	-0.0266	-0.0292	-0.0466	15.4443	-16.3640	15.8727	-0.3162	-0.6237	-0.4588	0.5482
3.35	-9.4448	-1.0705	-1.8945	-0.0236	-0.0294	-0.0511	15.2880	-16.4538	15.8037	-0.3163	-0.6236	-0.4588	0.5482
3.36	-9.4626	-1.0641	-1.9019	-0.0215	-0.0166	-0.0487	15.2341	-16.5512	15.9896	-0.3163	-0.6236	-0.4588	0.5482
3.37	-9.4908	-1.0458	-1.9055	-0.0167	-0.0196	-0.0554	15.1695	-16.5747	15.7546	-0.3164	-0.6235	-0.4588	0.5482
3.38	-9.4692	-1.0417	-1.8997	-0.0134	-0.0207	-0.0551	15.0472	-16.7931	15.9019	-0.3164	-0.6235	-0.4588	0.5483
3.39	-9.4637	-1.0468	-1.8834	-0.0219	-0.0224	-0.0556	15.0420	-16.6317	15.8659	-0.3164	-0.6234	-0.4588	0.5483
3.4	-9.5066	-1.0575	-1.8978	-0.0170	-0.0149	-0.0591	15.1349	-16.6609	15.7440	-0.3165	-0.6234	-0.4589	0.5484
3.41	-9.4833	-1.0449	-1.8988	-0.0171	-0.0261	-0.0605	15.1570	-16.6394	15.8623	-0.3164	-0.6233	-0.4589	0.5484
3.42	-9.4801	-1.0389	-1.8763	-0.0232	-0.0306	-0.0556	15.3067	-16.6682	15.9052	-0.3165	-0.6233	-0.4589	0.5485
3.43	-9.4920	-1.0509	-1.8885	-0.0232	-0.0195	-0.0590	15.3312	-16.5447	15.9541	-0.3165	-0.6232	-0.4589	0.5484
3.44	-9.4567	-1.0484	-1.8872	-0.0242	-0.0292	-0.0598	15.1476	-16.5756	15.8049	-0.3166	-0.6231	-0.4589	0.5485
3.45	-9.4171	-1.0437	-1.8793	-0.0245	-0.0244	-0.0618	14.9947	-16.5249	15.6725	-0.3166	-0.6230	-0.4590	0.5486
3.46	-9.4128	-1.0597	-1.8899	-0.0222	-0.0236	-0.0656	15.1294	-16.3842	15.6562	-0.3166	-0.6229	-0.4590	0.5486
3.47	-9.4118	-1.0690	-1.9016	-0.0251	-0.0127	-0.0570	15.2509	-16.2848	15.6274	-0.3167	-0.6230	-0.4591	0.5486
3.48	-9.4090	-1.0636	-1.8942	-0.0264	-0.0036	-0.0565	15.1799	-16.4636	15.7302	-0.3167	-0.6229	-0.4591	0.5486
3.49	-9.4257	-1.0520	-1.9041	-0.0234	0.0043	-0.0630	15.1037	-16.6790	15.9090	-0.3167	-0.6229	-0.4592	0.5485
3.5	-9.4362	-1.0511	-1.9073	-0.0263	-0.0002	-0.0647	15.2199	-16.5495	15.7132	-0.3166	-0.6228	-0.4593	0.5484
3.51	-9.4474	-1.0595	-1.9114	-0.0262	-0.0043	-0.0653	15.3542	-16.4632	15.7775	-0.3166	-0.6228	-0.4594	0.5485
3.52	-9.4561	-1.0666	-1.9148	-0.0232	-0.0033	-0.0613	15.0607	-16.2749	16.0598	-0.3166	-0.6228	-0.4595	0.5484
3.53	-9.4636	-1.0654	-1.9246	-0.0262	-0.0067	-0.0637	15.1137	-16.1898	15.8580	-0.3166	-0.6228	-0.4595	0.5484
3.54	-9.4575	-1.0631	-1.9267	-0.0246	-0.0092	-0.0594	15.2180	-16.7759	15.7304	-0.3166	-0.6227	-0.4596	0.5484
3.55	-9.4580	-1.0614	-1.9241	-0.0271	-0.0077	-0.0609	15.4055	-16.8862	15.7716	-0.3166	-0.6227	-0.4597	0.5484
3.56	-9.4589	-1.0630	-1.9289	-0.0247	-0.0028	-0.0655	15.4807	-16.4193	15.7424	-0.3166	-0.6227	-0.4598	0.5484
3.57	-9.4477	-1.0639	-1.9317	-0.0297	-0.0021	-0.0645	15.2725	-16.5931	15.7543	-0.3165	-0.6226	-0.4598	0.5483
3.58	-9.4506	-1.0651	-1.9338	-0.0321	-0.0050	-0.0641	15.3316	-16.4223	15.7460	-0.3166	-0.6226	-0.4600	0.5483
3.59	-9.4578	-1.0674	-1.9471	-0.0243	-0.0010	-0.0629	15.1373	-16.7175	15.7550	-0.3166	-0.6226	-0.4600	0.5482
3.6	-9.4808	-1.0704	-1.9486	-0.0284	0.0015	-0.0702	15.4130	-16.6726	15.7543	-0.3165	-0.6226	-0.4602	0.5482
3.61	-9.4922	-1.0746	-1.9408	-0.0258	-0.0030	-0.0617	15.3002	-16.6417	15.7482	-0.3165	-0.6225	-0.4602	0.5481
3.62	-9.5132	-1.0708	-1.9380	-0.0280	-0.0075	-0.0632	15.0705	-16.6356	15.8905	-0.3165	-0.6225	-0.4603	0.5481
3.63	-9.5322	-1.0772	-1.9411	-0.0300	-0.0050	-0.0645	15.2040	-16.5217	15.7539	-0.3165	-0.6225	-0.4604	0.5481
3.64	-9.5250	-1.0844	-1.9417	-0.0249	-0.0112	-0.0634	15.2994	-16.5968	15.8244	-0.3165	-0.6224	-0.4605	0.5480
3.65	-9.4960	-1.0908	-1.9441	-0.0291	-0.0261	-0.0696	15.3338	-16.5137	15.8654	-0.3165	-0.6223	-0.4606	0.5481
3.66	-9.4578	-1.0973	-1.9403	-0.0350	-0.0174	-0.0652	15.2633	-16.5029	15.8091	-0.3166	-0.6222	-0.4607	0.5481
3.67	-9.3964	-1.1000	-1.9396	-0.0377	-0.0229	-0.0547	15.1960	-16.5939	15.9311	-0.3167	-0.6222	-0.4608	0.5481
3.68	-9.4619	-1.1018	-1.9268	-0.0310	-0.0027	-0.0626	15.3207	-16.4698	15.9347	-0.3167	-0.6221	-0.4608	0.5480
3.69	-9.4887	-1.1090	-1.9640	-0.0257	-0.0042	-0.0678	15.3170	-16.2150	15.8113	-0.3166	-0.6221	-0.4609	0.5480
3.7	-9.4255	-1.0980	-1.9369	-0.0253	-0.0216	-0.0686	15.3003	-16.4491	15.8495	-0.3166	-0.6220	-0.4610	0.5480
3.71	-9.4362	-1.1160	-1.9287	-0.0222	-0.0097	-0.0700	15.3333	-16.4031	15.8427	-0.3166	-0.6219	-0.4611	0.5480
3.72	-9.4468	-1.1198	-1.9450	-0.0274	-0.0067	-0.0678	15.2708	-16.3831	15.7299	-0.3166	-0.6219	-0.4612	0.5481
3.73	-9.4625	-1.1062	-1.9383	-0.0207	-0.0135	-0.0582	15.4083	-16.5050	15.9133	-0.3166	-0.6218	-0.4612	0.5480
3.74	-9.4314	-1.0943	-1.9483	-0.0270	-0.0162	-0.0497	15.4859	-16.4488	15.6817	-0.3167	-0.6218	-0.4613	0.5480
3.75	-9.4399	-1.0773	-1.9360	-0.0212	-0.0087	-0.0458	15.1846	-16.5636	15.6414	-0.3167	-0.6218	-0.4612	0.5479
3.76	-9.4515	-1.0765	-1.9633	-0.0244	-0.0097	-0.0618	15.2286	-16.5820	15.7801	-0.3167	-0.6218	-0.4613	0.5480
3.77	-9.4344	-1.0750	-1.9588	-0.0218	-0.0095	-0.0620	15.2346	-16.4914	15.7354	-0.3167	-0.6218	-0.4614	0.5479
3.78	-9.4238	-1.0838	-1.9555	-0.0257	-0.0138	-0.0656	15.1451	-16.2300	15.7483	-0.3167	-0.6217	-0.4615	0.5479
3.79	-9.4494	-1.0867	-1.9618	-0.0237	-0.0048	-0.0660	15.1262	-16.6337	15.7496	-0.3167	-0.6217	-0.4616	0.5479
3.8	-9.4614	-1.0833	-1.9604	-0.0276	-0.0068	-0.0617	15.1313	-16.6269	15.7452	-0.3166	-0.6216	-0.4616	0.5479
3.81	-9.4556	-1.0785	-1.9665	-0.0265	-0.0057	-0.0577	15.3746	-16.5012	15.5501	-0.3167	-0.6216	-0.4617	0.5479
3.82	-9.5034	-1.0829	-1.9669	-0.0320	0.0011	-0.0579	15.4118	-16.3612	15.6357	-0.3166	-0.6215	-0.4618	0.5478
3.83	-9.4645	-1.0889	-1.9918	-0.0356	-0.0151	-0.0585	15.3994	-16.5226	16.0148	-0.3167	-0.6216	-0.4619	0.5478
3.84	-9.4741	-1.0800	-1.9454	-0.0305	-0.0137	-0.0582	15.7117	-16.3694	16.1864	-0.3168	-0.6215	-0.4619	0.5477
3.85	-9.4847	-1.1154	-1.9854	-0.0426	-0.0096	-0.0600	15.5548	-16.2332	15.9278	-0.3168	-0.6214	-0.4621	0.5477
3.86	-9.4853	-1.1060	-1.9562	-0.0289	-0.0221	-0.0553	15.3308	-16.2553	15.6603	-0.3169	-0.6213	-0.4621	0.5477
3.87	-9.5140	-1.1214	-1.9722	-0.0350	-0.0188	-0.0584	15.0364	-16.1764	15.7375	-0.3169	-0.6213	-0.4622	0.5477
3.88	-9.4753	-1.1391	-1.9745	-0.0375	-0.0309	-0.0554	15.1466	-16.3811	15.8325	-0.3170	-0.6212	-0.4622	0.5477
3.89	-9.5097	-1.1351	-1.9436	-0.0256	-0.0298	-0.0547	15.3799	-16.3889	15.8893	-0.3171	-0.6211	-0.4622	0.5477
3.9	-9.5191	-1.1451	-1.9785	-0.0286	-0.0314	-0.0496	15.1739	-16.4877	15.7226	-0.3172	-0.6211	-0.4623	0.5478
3.91	-9.5216	-1.1410	-1.9431	-0.0248	-0.0373	-0.0493	15.6194	-16.6294	15.6896	-0.3173	-0.6209	-0.4622	0.5478
3.92	-9.5103	-1.1386	-1.9514	-0.0268	-0.0383	-0.0444	15.4329	-16.6575	15.8964	-0.3174	-0.6209	-0.4623	0.5479
3.93	-9.5124	-1.1326	-1.9335	-0.0171	-0.0381	-0.0462	15.4161	-16.6481	15.7547	-0.3175	-0.6208	-0.4622	0.5479
3.94	-9.5115	-1.1169	-1.9270	-0.0083	-0.0405	-0.0427	15.4907	-16.7650	15.7983	-0.3176	-0.6208	-0.4621	0.5480
3.95	-9.4984	-1.1156	-1.9137	-0.0060	-0.0431	-0.0492	15.2116	-16.7233	15.7199	-0.3176	-0.6207	-0.4620	0.5481
3.96	-9.4681	-1.1030	-1.9083	-0.0063	-0.0510	-0.0459	15.2312	-16.7663	15.6589	-0.3177	-0.6206	-0.4619	0.5482
3.97	-9.4679	-1.0829	-1.8875	-0.0035	-0.0448	-0.0425	15.3453	-16.6185	15.7052	-0.3178	-0.6206	-0.4619	0.5484
3.98	-9.4472	-1.0786	-1.8900	-0.0086	-0.0508	-0.0425	15.4330	-16.4192	15.7901	-0.3178	-0.6205	-0.4617	0.5484
3.99	-9.4485	-1.0775	-1.8722	-0.0024	-0.0461	-0.0434	15.4187	-16.5624	15.7525	-0.3179	-0.6204	-0.4617	0.5486
4	-9.4458	-1.0786	-1.8739	-0.0109	-0.0406	-0.0451	15.3176	-16.5647	15.8688	-0.3179	-0.6203	-0.4615	0.5486
4.01	-9.4310	-1.0721	-1.8607	-0.0127	-0.0479	-0.0427	15.4460	-16.5627	15.8693	-0.3181	-0.6203	-0.4615	0.5488
4.02	-9.4198	-1.0771	-1.8534	-0.0190	-0.0439	-0.0526	15.1828	-16.5517	16.0271	-0.3181	-0.6202	-0.4614	0.5489
4.03	-9.4341	-1.0855	-1.8497	-0.0098	-0.0320	-0.0515	15.1398	-16.3047	15.7489	-0.3182	-0.6201	-0.4614	0.5489
4.04	-9.4484	-1.0831	-1.8464	-0.0147	-0.0359	-0.0505	15.1320	-16.2048	15.8830	-0.3182	-0.6201	-0.4614	0.5490
4.05	-9.4369	-1.0831	-1.8418	-0.0207	-0.0326	-0.0446	15.4673	-16.3415	15.6692	-0.3183	-0.6200	-0.4614	0.5490
4.06	-9.4476	-1.0963	-1.8345	-0.0065	-0.0233	-0.0407	15.4560	-16.4668	15.5544	-0.3184	-0.6200	-0.4613	0.5491
4.07	-9.4553	-1.0977	-1.8407	-0.0155	-0.0250	-0.0507	15.3353	-16.4792	15.5883	-0.3184	-0.6199	-0.4612	0.5491
4.08	-9.4597	-1.0952	-1.8359	-0.0155	-0.0239	-0.0394	15.2673	-16.4825	15.8160	-0.3184	-0.6200	-0.4613	0.5492
4.09	-9.4579	-1.0990	-1.8398	-0.0167	-0.0257	-0.0418	15.3191	-16.7759	15.7162	-0.3185	-0.6199	-0.4612	0.5491
4.1	-9.4669	-1.1086	-1.8363	-0.0120	-0.0235	-0.0401	15.4411	-16.6475	15.6704	-0.3186	-0.6199	-0.4612	0.5492
4.11	-9.4764	-1.0972	-1.8396	-0.0060	-0.0217	-0.0420	15.4226	-16.6625	15.6865	-0.3186	-0.6199	-0.4611	0.5492
4.12	-9.4772	-1.0892	-1.8419	-0.0178	-0.0272	-0.0445	15.3500	-16.7448	15.6882	-0.3186	-0.6199	-0.4611	0.5492
4.13	-9.4904	-1.0919	-1.8396	-0.0205	-0.0319	-0.0420	15.4214	-16.5907	15.6636	-0.3187	-0.6198	-0.4610	0.5493
4.14	-9.4839	-1.0893	-1.8465	-0.0056	-0.0302	-0.0409	15.5403	-16.7744	15.7782	-0.3187	-0.6198	-0.4609	0.5493
4.15	-9.4682	-1.0804	-1.8313	-0.0146	-0.0286	-0.0426	15.4868	-16.6957	15.7760	-0.3188	-0.6198	-0.4609	0.5494
4.16	-9.4861	-1.0762	-1.8314	-0.0124	-0.0207	-0.0422	15.3381	-16.6822	15.4794	-0.3188	-0.6198	-0.4609	0.5494
4.17	-9.5024	-1.0786	-1.8355	-0.0131	-0.0271	-0.0473	15.3814	-16.7739	15.8097	-0.3189	-0.6198	-0.4609	0.5495
4.18	-9.4972	-1.0722	-1.8232	-0.0137	-0.0317	-0.0429	15.4287	-16.6460	15.6399	-0.3189	-0.6197	-0.4608	0.5494
4.19	-9.5092	-1.0781	-1.8162	-0.0167	-0.0283	-0.0460	15.4087	-16.5140	15.7577	-0.3190	-0.6197	-0.4607	0.5495
4.2	-9.4954	-1.0742	-1.8186	-0.0197	-0.0289	-0.0446	15.2038	-16.4943	15.8533	-0.3191	-0.6196	-0.4607	0.5495
4.21	-9.4884	-1.0600	-1.8098	-0.0145	-0.0379	-0.0422	15.0900	-16.6803	15.7178	-0.3191	-0.6195	-0.4606	0.5496
4.22	-9.4772	-1.0601	-1.8140	-0.0260	-0.0273	-0.0523	15.3954	-16.6302	15.9210	-0.3192	-0.6195	-0.4607	0.5497
4.23	-9.4533	-1.0698	-1.8016	-0.0204	-0.0235	-0.0491	15.2354	-16.6893	15.6657	-0.3193	-0.6194	-0.4607	0.5496
4.24	-9.4930	-1.0869	-1.7973	-0.0232	-0.0237	-0.0499	15.0770	-16.7874	15.7596	-0.3193	-0.6194	-0.4607	0.5497
4.25	-9.4982	-1.0939	-1.8092	-0.0206	-0.0188	-0.0448	15.3597	-16.5631	15.7901	-0.3193	-0.6193	-0.4606	0.5496
4.26	-9.4965	-1.0828	-1.7861	-0.0173	-0.0252	-0.0429	15.2947	-16.2137	15.5132	-0.3194	-0.6194	-0.4607	0.5497
4.27	-9.5105	-1.0941	-1.7954	-0.0242	-0.0225	-0.0369	15.0481	-16.2516	15.6570	-0.3195	-0.6193	-0.4606	0.5497
4.28	-9.4910	-1.1117	-1.7993	-0.0185	-0.0281	-0.0358	15.4049	-16.4232	15.6785	-0.3196	-0.6193	-0.4606	0.5497
4.29	-9.4482	-1.1063	-1.7868	-0.0212	-0.0353	-0.0334	15.5162	-16.8246	15.6937	-0.3197	-0.6193	-0.4605	0.5497
4.3	-9.4221	-1.1128	-1.7908	-0.0245	-0.0274	-0.0349	15.3709	-16.6281	15.6611	-0.3198	-0.6193	-0.4605	0.5497
4.31	-9.4295	-1.1310	-1.8009	-0.0181	-0.0218	-0.0302	15.4536	-16.6023	15.5265	-0.3199	-0.6193	-0.4604	0.5497
4.32	-9.4262	-1.1311	-1.8099	-0.0087	-0.0162	-0.0263	15.2930	-16.6739	15.8007	-0.3200	-0.6193	-0.4603	0.5496
4.33	-9.4338	-1.1129	-1.8032	-0.0018	-0.0107	-0.0210	15.4628	-16.6481	15.7484	-0.3200	-0.6194	-0.4602	0.5497
4.34	-9.4459	-1.1025	-1.8209	0.0024	-0.0066	-0.0262	15.9892	-16.6190	16.0112	-0.3200	-0.6195	-0.4601	0.5496
4.35	-9.4580	-1.0914	-1.8176	0.0172	-0.0069	-0.0271	15.8215	-16.4883	16.0156	-0.3200	-0.6196	-0.4600	0.5497
4.36	-9.4618	-1.0786	-1.8214	0.0191	-0.0079	-0.0289	15.6787	-16.4782	15.7095	-0.3199	-0.6197	-0.4598	0.5497
4.37	-9.4717	-1.0570	-1.8276	0.0259	-0.0070	-0.0298	15.4368	-16.4227	15.4427	-0.3199	-0.6198	-0.4596	0.5497
4.38	-9.4695	-1.0265	-1.8290	0.0236	-0.0004	-0.0310	15.3509	-16.6137	15.5935	-0.3198	-0.6200	-0.4595	0.5498
4.39	-9.4751	-0.9959	-1.8307	0.0242	0.0025	-0.0281	15.3621	-16.3393	15.7804	-0.3196	-0.6201	-0.4593	0.5497
4.4	-9.4916	-0.9748	-1.8285	0.0251	0.0022	-0.0346	15.5153	-16.5127	15.6245	-0.3196	-0.6203	-0.4592	0.5498
4.41	-9.4924	-0.9526	-1.8317	0.0215	-0.0051	-0.0317	15.6421	-16.5030	15.6985	-0.3195	-0.6204	-0.4590	0.5498
4.42	-9.4930	-0.9377	-1.8321	0.0128	-0.0029	-0.0375	15.2461	-16.2331	15.8352	-0.3194	-0.6206	-0.4590	0.5499
4.43	-9.4884	-0.9319	-1.8335	-0.0008	-0.0049	-0.0423	15.3094	-16.4004	15.8466	-0.3193	-0.6205	-0.4589	0.5498
4.44	-9.4971	-0.9386	-1.8394	-0.0023	-0.0007	-0.0461	15.3714	-16.4659	15.7144	-0.3193	-0.6206	-0.4589	0.5498
4.45	-9.5028	-0.9429	-1.8380	-0.0162	-0.0012	-0.0467	15.3929	-16.6460	15.7948	-0.3193	-0.6207	-0.4589	0.5498
4.46	-9.5119	-0.9486	-1.8403	-0.0180	-0.0106	-0.0464	15.2787	-16.5584	15.6359	-0.3193	-0.6207	-0.4588	0.5497
4.47	-9.5185	-0.9614	-1.8403	-0.0251	-0.0009	-0.0528	15.2891	-16.4469	15.7884	-0.3193	-0.6208	-0.4589	0.5498
4.48	-9.5175	-0.9787	-1.8453	-0.0279	-0.0164	-0.0574	15.5473	-16.5960	15.8397	-0.3193	-0.6207	-0.4589	0.5497
4.49	-9.5196	-0.9955	-1.8463	-0.0280	-0.0050	-0.0595	15.3080	-16.7100	15.6692	-0.3193	-0.6207	-0.4591	0.5497
4.5	-9.5075	-1.0038	-1.8449	-0.0303	-0.0176	-0.0549	15.1831	-16.7395	15.5718	-0.3193	-0.6205	-0.4590	0.5496
4.51	-9.4941	-1.0260	-1.8410	-0.0335	-0.0172	-0.0607	15.1852	-16.6021	15.5633	-0.3194	-0.6205	-0.4592	0.5497
4.52	-9.4569	-1.0250	-1.8294	-0.0307	-0.0134	-0.0601	15.2266	-16.6721	15.7620	-0.3194	-0.6205	-0.4592	0.5496
4.53	-9.5391	-1.0286	-1.8273	-0.0323	-0.0077	-0.0612	15.3722	-16.5401	15.6768	-0.3194	-0.6204	-0.4593	0.5496
4.54	-9.5109	-1.0371	-1.8494	-0.0441	-0.0224	-0.0677	15.4723	-16.5607	15.6438	-0.3195	-0.6203	-0.4594	0.5496
4.55	-9.4577	-1.0272	-1.7952	-0.0372	-0.0309	-0.0606	15.3207	-16.5141	15.6804	-0.3196	-0.6202	-0.4595	0.5496
4.56	-9.4784	-1.0561	-1.8152	-0.0275	-0.0101	-0.0734	15.4687	-16.4366	15.6241	-0.3196	-0.6202	-0.4596	0.5496
4.57	-9.4621	-1.0766	-1.8245	-0.0403	-0.0223	-0.0692	15.3728	-16.4673	15.7702	-0.3196	-0.6200	-0.4597	0.5496
4.58	-9.4339	-1.0820	-1.8158	-0.0510	-0.0190	-0.0561	15.3752	-16.5596	15.8318	-0.3197	-0.6200	-0.4598	0.5496
4.59	-9.4228	-1.0870	-1.8163	-0.0341	-0.0052	-0.0560	15.3492	-16.3716	15.7326	-0.3198	-0.6199	-0.4599	0.5495
4.6	-9.4612	-1.0863	-1.8183	-0.0242	0.0008	-0.0546	15.1839	-16.4360	15.7338	-0.3198	-0.6199	-0.4599	0.5495
4.61	-9.4667	-1.0892	-1.8240	-0.0289	0.0002	-0.0555	15.1961	-16.4759	15.8778	-0.3197	-0.6199	-0.4600	0.5494
4.62	-9.4653	-1.1005	-1.8114	-0.0258	0.0002	-0.0551	15.3185	-16.6922	15.6512	-0.3197	-0.6199	-0.4601	0.5493
4.63	-9.4813	-1.1093	-1.8284	-0.0256	0.0006	-0.0605	15.2157	-16.7525	15.7955	-0.3197	-0.6199	-0.4602	0.5493
4.64	-9.4937	-1.1004	-1.8305	-0.0250	-0.0071	-0.0610	15.1679	-16.6328	15.8063	-0.3197	-0.6199	-0.4602	0.5492
4.65	-9.4946	-1.0812	-1.8294	-0.0192	-0.0114	-0.0453	15.3197	-16.5383	15.4982	-0.3197	-0.6199	-0.4602	0.5493
4.66	-9.4863	-1.0638	-1.8321	-0.0280	-0.0093	-0.0465	15.3896	-16.6991	15.7867	-0.3198	-0.6199	-0.4602	0.5492
4.67	-9.4927	-1.0555	-1.8306	-0.0107	-0.0085	-0.0439	15.3493	-16.7519	15.6696	-0.3198	-0.6200	-0.4603	0.5492
4.68	-9.4867	-1.0464	-1.8447	-0.0163	-0.0045	-0.0435	15.4700	-16.6007	15.6697	-0.3198	-0.6199	-0.4602	0.5491
4.69	-9.4773	-1.0376	-1.8397	-0.0170	-0.0055	-0.0420	15.5734	-16.9149	15.5247	-0.3198	-0.6200	-0.4602	0.5491
4.7	-9.4892	-1.0372	-1.8346	-0.0171	-0.0051	-0.0401	15.5061	-16.6181	15.6867	-0.3198	-0.6201	-0.4602	0.5491
4.71	-9.4995	-1.0340	-1.8413	-0.0206	-0.0027	-0.0412	15.3712	-16.5072	15.8056	-0.3198	-0.6201	-0.4601	0.5490
4.72	-9.5020	-1.0307	-1.8384	-0.0272	-0.0085	-0.0433	15.1805	-16.6646	15.5978	-0.3199	-0.6201	-0.4602	0.5490
4.73	-9.5052	-1.0449	-1.8394	-0.0235	-0.0154	-0.0400	15.1767	-16.6366	15.7552	-0.3200	-0.6201	-0.4602	0.5489
4.74	-9.5132	-1.0499	-1.8354	-0.0262	-0.0131	-0.0356	15.2583	-16.5896	15.9051	-0.3201	-0.6201	-0.4602	0.5489
4.75	-9.5131	-1.0420	-1.8350	-0.0275	-0.0079	-0.0363	15.3684	-16.4349	15.6371	-0.3201	-0.6201	-0.4601	0.5488
4.76	-9.4978	-1.0423	-1.8358	-0.0214	-0.0108	-0.0455	15.4019	-16.5851	15.6584	-0.3202	-0.6202	-0.4601	0.5488
4.77	-9.4958	-1.0389	-1.8325	-0.0185	-0.0159	-0.0429	15.2875	-16.6763	15.6919	-0.3202	-0.6201	-0.4601	0.5488
4.78	-9.4760	-1.0334	-1.8266	-0.0197	-0.0184	-0.0433	15.3644	-16.5306	15.8667	-0.3202	-0.6201	-0.4601	0.5488
4.79	-9.4654	-1.0287	-1.8191	-0.0081	-0.0185	-0.0462	15.3565	-16.5738	15.7367	-0.3203	-0.6201	-0.4601	0.5489
4.8	-9.4586	-1.0203	-1.8245	-0.0023	-0.0098	-0.0431	15.4282	-16.6175	15.6244	-0.3202	-0.6202	-0.4600	0.5489
4.81	-9.4553	-1.0177	-1.8221	-0.0134	-0.0068	-0.0463	15.4051	-16.5198	15.7356	-0.3202	-0.6202	-0.4600	0.5489
4.82	-9.4501	-1.0092	-1.8223	-0.0111	-0.0100	-0.0475	15.4240	-16.5676	15.7635	-0.3202	-0.6202	-0.4599	0.5488
4.83	-9.4650	-1.0092	-1.8226	-0.0069	-0.0031	-0.0438	15.7053	-16.3219	15.7387	-0.3202	-0.6203	-0.4599	0.5488
4.84	-9.4803	-1.0096	-1.8310	-0.0154	-0.0064	-0.0364	15.6003	-16.2405	15.9333	-0.3202	-0.6203	-0.4599	0.5488
4.85	-9.4848	-1.0076	-1.8293	-0.0192	-0.0069	-0.0397	15.6805	-16.4260	15.8808	-0.3203	-0.6204	-0.4599	0.5488
4.86	-9.4882	-1.0100	-1.8288	-0.0171	-0.0056	-0.0430	15.3935	-16.6621	15.7532	-0.3203	-0.6204	-0.4598	0.5487
4.87	-9.4930	-1.0126	-1.8323	-0.0210	-0.0034	-0.0425	15.3965	-16.7142	15.7040	-0.3203	-0.6204	-0.4598	0.5487
4.88	-9.4998	-1.0095	-1.8381	-0.0194	-0.0017	-0.0465	15.2841	-16.6335	15.8434	-0.3203	-0.6205	-0.4599	0.5486
4.89	-9.4891	-1.0057	-1.8377	-0.0183	-0.0034	-0.0516	15.2243	-16.7125	15.4457	-0.3203	-0.6204	-0.4598	0.5485
4.9	-9.4838	-1.0092	-1.8341	-0.0153	-0.0041	-0.0513	15.2049	-16.7418	15.5216	-0.3203	-0.6205	-0.4599	0.5486
4.91	-9.4944	-1.0095	-1.8378	-0.0171	-0.0037	-0.0506	15.0233	-16.5463	15.8429	-0.3203	-0.6205	-0.4599	0.5485
4.92	-9.4894	-1.0072	-1.8499	-0.0125	-0.0023	-0.0541	15.2678	-16.6039	15.6449	-0.3203	-0.6206	-0.4599	0.5486
4.93	-9.4834	-1.0067	-1.8413	-0.0253	-0.0073	-0.0548	15.2095	-16.7462	15.6683	-0.3203	-0.6205	-0.4599	0.5485
4.94	-9.4960	-1.0089	-1.8444	-0.0222	0.0022	-0.0555	15.2476	-16.5876	15.6642	-0.3203	-0.6205	-0.4600	0.5484
4.95	-9.5006	-1.0128	-1.8513	-0.0238	-0.0003	-0.0570	15.2177	-16.5248	15.6417	-0.3202	-0.6205	-0.4601	0.5484
4.96	-9.4898	-1.0216	-1.8562	-0.0267	-0.0040	-0.0552	15.2556	-16.5801	15.7404	-0.3202	-0.6205	-0.4601	0.5483
4.97	-9.4811	-1.0346	-1.8595	-0.0236	-0.0046	-0.0590	15.1088	-16.4016	15.8587	-0.3203	-0.6206	-0.4602	0.5484
4.98	-9.4931	-1.0346	-1.8511	-0.0244	0.0024	-0.0550	15.0571	-16.5703	15.6901	-0.3202	-0.6205	-0.4602	0.5483
4.99	-9.5024	-1.0373	-1.8641	-0.0222	-0.0032	-0.0572	15.2413	-16.8322	15.6101	-0.3202	-0.6206	-0.4603	0.5483
5	-9.4868	-1.0403	-1.8578	-0.0251	-0.0096	-0.0535	15.2310	-16.4093	15.4428	-0.3202	-0.6205	-0.4603	0.5482
5.01	-9.4893	-1.0448	-1.8547	-0.0256	-0.0099	-0.0540	15.1214	-16.3839	15.6160	-0.3203	-0.6205	-0.4603	0.5482
5.02	-9.4854	-1.0448	-1.8527	-0.0249	-0.0096	-0.0570	15.0001	-16.5195	15.6639	-0.3203	-0.6204	-0.4604	0.5482
5.03	-9.4711	-1.0394	-1.8471	-0.0207	-0.0104	-0.0541	15.2086	-16.6228	15.6702	-0.3203	-0.6204	-0.4604	0.5482
5.04	-9.4624	-1.0349	-1.8463	-0.0184	-0.0129	-0.0467	15.4393	-16.7401	15.5580	-0.3203	-0.6204	-0.4604	0.5482
5.05	-9.4570	-1.0306	-1.8496	-0.0250	-0.0090	-0.0492	15.2679	-16.7130	15.4479	-0.3204	-0.6204	-0.4604	0.5481
5.06	-9.4442	-1.0190	-1.8446	-0.0261	-0.0090	-0.0428	15.3982	-16.7435	15.5350	-0.3204	-0.6204	-0.4604	0.5481
5.07	-9.4566	-1.0191	-1.8432	-0.0264	-0.0088	-0.0424	15.4270	-16.6230	15.6836	-0.3205	-0.6204	-0.4604	0.5480
5.08	-9.4735	-1.0211	-1.8485	-0.0215	0.0001	-0.0496	15.2792	-16.7485	15.6381	-0.3205	-0.6205	-0.4605	0.5480
5.09	-9.4821	-1.0137	-1.8511	-0.0220	-0.0052	-0.0507	15.3836	-16.6943	15.7235	-0.3205	-0.6204	-0.4605	0.5480
5.1	-9.4837	-1.0184	-1.8471	-0.0241	-0.0018	-0.0508	15.4154	-16.8102	15.7670	-0.3205	-0.6205	-0.4605	0.5480
5.11	-9.4759	-1.0135	-1.8493	-0.0153	-0.0056	-0.0443	15.4151	-16.7205	15.7604	-0.3205	-0.6205	-0.4605	0.5479
5.12	-9.4795	-0.9881	-1.8541	-0.0209	-0.0069	-0.0439	15.3890	-16.7142	15.8653	-0.3206	-0.6205	-0.4605	0.5479
5.13	-9.4938	-0.9774	-1.8551	-0.0232	-0.0029	-0.0538	15.2606	-16.7351	15.8586	-0.3206	-0.6205	-0.4605	0.5479
5.14	-9.4940	-1.0041	-1.8551	-0.0250	-0.0045	-0.0618	15.1283	-16.6512	15.7548	-0.3205	-0.6204	-0.4605	0.5478
5.15	-9.5076	-1.0265	-1.8591	-0.0263	-0.0015	-0.0597	15.1646	-16.5062	15.7545	-0.3206	-0.6205	-0.4607	0.5478
5.16	-9.5012	-1.0245	-1.8556	-0.0269	-0.0050	-0.0565	15.2393	-16.7572	15.7369	-0.3206	-0.6204	-0.4607	0.5478
5.17	-9.5244	-1.0206	-1.8524	-0.0260	-0.0001	-0.0602	15.0174	-16.5731	15.8383	-0.3206	-0.6205	-0.4608	0.5478
5.18	-9.5153	-1.0350	-1.8654	-0.0239	-0.0072	-0.0550	15.1669	-16.5375	15.7562	-0.3206	-0.6204	-0.4608	0.5477
5.19	-9.4603	-1.0437	-1.8566	-0.0274	-0.0161	-0.0557	15.2391	-16.6497	15.7460	-0.3206	-0.6203	-0.4608	0.5477
5.2	-9.4466	-1.0501	-1.8493	-0.0251	-0.0109	-0.0553	15.2285	-16.4845	15.7580	-0.3207	-0.6203	-0.4609	0.5477
5.21	-9.4578	-1.0632	-1.8618	-0.0242	-0.0114	-0.0465	14.9141	-16.6563	15.7375	-0.3207	-0.6202	-0.4609	0.5477
5.22	-9.4606	-1.0669	-1.8723	-0.0226	-0.0120	-0.0416	15.2163	-16.7110	15.8717	-0.3208	-0.6203	-0.4609	0.5477
5.23	-9.4630	-1.0600	-1.8664	-0.0246	-0.0133	-0.0340	15.4591	-16.7544	15.8236	-0.3209	-0.6203	-0.4608	0.5476
5.24	-9.4851	-1.0383	-1.8668	-0.0155	-0.0047	-0.0409	15.4027	-16.6262	15.6697	-0.3209	-0.6203	-0.4608	0.5477
5.25	-9.4943	-1.0229	-1.8705	-0.0152	-0.0042	-0.0511	15.3272	-16.7310	15.5829	-0.3209	-0.6203	-0.4608	0.5476
5.26	-9.4952	-1.0228	-1.8682	-0.0066	-0.0061	-0.0540	15.2079	-16.8099	15.5392	-0.3209	-0.6203	-0.4608	0.5476
5.27	-9.4917	-1.0179	-1.8730	-0.0098	-0.0164	-0.0563	15.5751	-16.7034	15.6667	-0.3209	-0.6203	-0.4608	0.5477
5.28	-9.4884	-1.0109	-1.8752	-0.0205	-0.0163	-0.0544	15.3008	-16.9634	15.8846	-0.3209	-0.6203	-0.4608	0.5477
5.29	-9.4910	-0.9981	-1.8717	-0.0260	-0.0148	-0.0570	15.3472	-16.6500	15.7413	-0.3209	-0.6202	-0.4608	0.5477
5.3	-9.4965	-0.9947	-1.8726	-0.0239	-0.0167	-0.0509	15.3931	-16.6817	15.6093	-0.3210	-0.6202	-0.4608	0.5477
5.31	-9.4906	-0.9813	-1.8667	-0.0249	-0.0099	-0.0550	15.2924	-16.6927	15.7964	-0.3210	-0.6202	-0.4609	0.5477
5.32	-9.4832	-0.9843	-1.8706	-0.0264	-0.0106	-0.0528	15.3397	-16.5270	15.9484	-0.3210	-0.6201	-0.4608	0.5477
5.33	-9.4761	-1.0014	-1.8695	-0.0245	-0.0118	-0.0543	15.2062	-16.4396	15.9427	-0.3211	-0.6201	-0.4609	0.5477
5.34	-9.4862	-1.0138	-1.8644	-0.0242	-0.0027	-0.0530	15.5821	-16.3283	16.0595	-0.3211	-0.6201	-0.4609	0.5477
5.35	-9.4958	-1.0238	-1.8633	-0.0252	-0.0121	-0.0551	15.5618	-16.4327	15.9834	-0.3211	-0.6201	-0.4610	0.5477
5.36	-9.5070	-1.0274	-1.8588	-0.0272	-0.0155	-0.0557	15.4363	-16.4463	15.7887	-0.3212	-0.6200	-0.4610	0.5477
5.37	-9.5019	-1.0355	-1.8695	-0.0261	-0.0189	-0.0531	15.2413	-16.3998	15.7469	-0.3212	-0.6199	-0.4610	0.5477
5.38	-9.4950	-1.0424	-1.8534	-0.0268	-0.0195	-0.0546	15.1370	-16.5001	15.9778	-0.3213	-0.6199	-0.4610	0.5477
5.39	-9.4971	-1.0388	-1.8576	-0.0258	-0.0158	-0.0567	15.0521	-16.4738	15.8426	-0.3213	-0.6198	-0.4610	0.5477
5.4	-9.4771	-1.0335	-1.8569	-0.0232	-0.0185	-0.0539	15.4992	-16.5036	15.7611	-0.3214	-0.6198	-0.4611	0.5478
5.41	-9.4628	-1.0233	-1.8517	-0.0219	-0.0183	-0.0591	15.4855	-16.7507	15.7350	-0.3214	-0.6197	-0.4611	0.5478
5.42	-9.4598	-1.0148	-1.8515	-0.0222	-0.0088	-0.0594	15.3198	-16.7391	15.6312	-0.3215	-0.6197	-0.4611	0.5478
5.43	-9.4390	-0.9939	-1.8373	-0.0207	-0.0140	-0.0585	15.4861	-16.8445	15.8019	-0.3214	-0.6196	-0.4611	0.5478
5.44	-9.5268	-0.9956	-1.8438	-0.0231	-0.0019	-0.0618	15.3510	-16.7178	15.7319	-0.3214	-0.6196	-0.4612	0.5478
5.45	-9.5040	-0.9988	-1.8559	-0.0236	-0.0133	-0.0687	15.5442	-16.5966	15.6392	-0.3214	-0.6196	-0.4612	0.5478
5.46	-9.4750	-0.9903	-1.8207	-0.0255	-0.0272	-0.0673	15.2711	-16.5492	15.7568	-0.3214	-0.6194	-0.4613	0.5478
5.47	-9.4955	-1.0194	-1.8436	-0.0282	-0.0166	-0.0720	15.2901	-16.6981	15.7830	-0.3215	-0.6194	-0.4614	0.5479
5.48	-9.4775	-1.0325	-1.8472	-0.0279	-0.0182	-0.0652	15.4295	-16.6174	15.5799	-0.3215	-0.6193	-0.4614	0.5479
5.49	-9.4539	-1.0433	-1.8403	-0.0277	-0.0221	-0.0601	15.4963	-16.5453	15.6474	-0.3216	-0.6192	-0.4615	0.5480
5.5	-9.4492	-1.0461	-1.8357	-0.0283	-0.0142	-0.0561	15.3546	-16.6763	15.6799	-0.3216	-0.6191	-0.4615	0.5479
5.51	-9.4734	-1.0412	-1.8359	-0.0266	-0.0053	-0.0576	15.3971	-16.5446	15.6747	-0.3216	-0.6191	-0.4615	0.5479
5.52	-9.4764	-1.0510	-1.8464	-0.0260	-0.0034	-0.0665	15.3220	-16.6027	15.6465	-0.3216	-0.6191	-0.4616	0.5479
5.53	-9.4696	-1.0703	-1.8411	-0.0275	-0.0065	-0.0666	15.2676	-16.4907	15.7694	-0.3216	-0.6190	-0.4617	0.5479
5.54	-9.4870	-1.0737	-1.8423	-0.0255	-0.0023	-0.0717	15.3022	-16.4779	15.6451	-0.3216	-0.6190	-0.4618	0.5479
5.55	-9.4876	-1.0693	-1.8425	-0.0312	-0.0047	-0.0649	15.2682	-16.6352	15.7077	-0.3216	-0.6189	-0.4619	0.5479
5.56	-9.4733	-1.0656	-1.8421	-0.0280	-0.0120	-0.0579	15.3330	-16.6736	15.5666	-0.3216	-0.6189	-0.4619	0.5479
5.57	-9.4739	-1.0665	-1.8401	-0.0257	-0.0065	-0.0569	15.4912	-16.6531	15.7570	-0.3216	-0.6188	-0.4619	0.5478
5.58	-9.4756	-1.0607	-1.8431	-0.0266	-0.0147	-0.0531	15.3272	-16.6671	15.8755	-0.3217	-0.6189	-0.4620	0.5479
5.59	-9.4648	-1.0593	-1.8455	-0.0259	-0.0119	-0.0501	15.2921	-16.6567	15.5451	-0.3217	-0.6188	-0.4620	0.5479
5.6	-9.4592	-1.0656	-1.8489	-0.0267	-0.0133	-0.0537	15.4998	-16.6708	15.9088	-0.3218	-0.6188	-0.4620	0.5479
5.61	-9.4699	-1.0700	-1.8497	-0.0268	-0.0116	-0.0484	15.3413	-16.6398	15.7081	-0.3218	-0.6187	-0.4620	0.5478
5.62	-9.4784	-1.0788	-1.8534	-0.0260	-0.0057	-0.0427	15.4139	-16.8280	15.6029	-0.3219	-0.6187	-0.4620	0.5478
5.63	-9.4910	-1.0792	-1.8502	-0.0264	-0.0030	-0.0451	15.2800	-16.7896	15.6516	-0.3219	-0.6188	-0.4621	0.5478
5.64	-9.5000	-1.0886	-1.8511	-0.0265	-0.0034	-0.0378	15.3713	-16.6773	15.5349	-0.3220	-0.6187	-0.4620	0.5477
5.65	-9.5036	-1.0854	-1.8557	-0.0237	-0.0133	-0.0414	15.4662	-16.5148	15.7149	-0.3221	-0.6188	-0.4620	0.5477
5.66	-9.5034	-1.0812	-1.8563	-0.0134	-0.0092	-0.0441	15.3523	-16.6935	15.6409	-0.3221	-0.6188	-0.4620	0.5477
5.67	-9.5087	-1.0747	-1.8544	-0.0027	-0.0083	-0.0396	15.3726	-16.7134	15.7140	-0.3221	-0.6189	-0.4619	0.5477
5.68	-9.5020	-1.0554	-1.8535	-0.0093	-0.0135	-0.0391	15.4045	-16.5575	15.5391	-0.3221	-0.6188	-0.4618	0.5477
5.69	-9.4945	-1.0405	-1.8513	-0.0076	-0.0164	-0.0445	15.1829	-16.6715	15.6325	-0.3221	-0.6188	-0.4618	0.5477
5.7	-9.4891	-1.0227	-1.8518	-0.0012	-0.0090	-0.0426	15.1594	-16.5355	15.6353	-0.3221	-0.6189	-0.4617	0.5478
5.71	-9.4897	-1.0068	-1.8486	-0.0045	-0.0169	-0.0462	15.4414	-16.6043	15.5398	-0.3221	-0.6189	-0.4616	0.5478
5.72	-9.4910	-0.9923	-1.8414	-0.0069	-0.0127	-0.0471	15.2249	-16.4570	15.6110	-0.3222	-0.6189	-0.4616	0.5479
5.73	-9.4834	-0.9915	-1.8423	-0.0021	-0.0124	-0.0503	15.3624	-16.6539	15.6752	-0.3221	-0.6189	-0.4615	0.5479
5.74	-9.4730	-0.9873	-1.8371	-0.0067	-0.0168	-0.0471	15.3298	-16.6572	15.7062	-0.3221	-0.6189	-0.4615	0.5480
5.75	-9.4659	-0.9856	-1.8290	-0.0193	-0.0173	-0.0415	15.1689	-16.6783	15.9821	-0.3221	-0.6188	-0.4614	0.5479
5.76	-9.4742	-0.9980	-1.8295	-0.0231	-0.0057	-0.0512	15.3304	-16.5193	15.8015	-0.3222	-0.6189	-0.4615	0.5479
5.77	-9.4620	-1.0112	-1.8358	-0.0254	-0.0202	-0.0527	15.5811	-16.6672	15.7540	-0.3223	-0.6188	-0.4615	0.5479
5.78	-9.4564	-1.0133	-1.8269	-0.0266	-0.0219	-0.0508	15.4496	-16.5632	15.7680	-0.3223	-0.6188	-0.4615	0.5480
5.79	-9.4657	-1.0221	-1.8247	-0.0179	-0.0105	-0.0514	15.5881	-16.6948	15.7651	-0.3224	-0.6188	-0.4615	0.5480
5.8	-9.4691	-1.0313	-1.8311	-0.0215	-0.0097	-0.0543	15.3542	-16.5884	15.7585	-0.3224	-0.6187	-0.4615	0.5480
5.81	-9.4820	-1.0267	-1.8272	-0.0215	-0.0056	-0.0517	15.3043	-16.6797	15.5581	-0.3224	-0.6187	-0.4615	0.5480
5.82	-9.4929	-1.0239	-1.8338	-0.0178	-0.0051	-0.0534	15.4856	-16.8030	15.6812	-0.3224	-0.6187	-0.4615	0.5479
5.83	-9.5039	-1.0093	-1.8330	-0.0222	-0.0138	-0.0486	15.5675	-16.4920	15.7709	-0.3224	-0.6187	-0.4615	0.5480
5.84	-9.5049	-1.0019	-1.8341	-0.0198	-0.0112	-0.0524	15.8586	-16.4941	15.7784	-0.3224	-0.6187	-0.4615	0.5480
5.85	-9.5058	-1.0025	-1.8344	-0.0249	-0.0111	-0.0455	15.7115	-16.4514	15.6899	-0.3225	-0.6187	-0.4615	0.5480
5.86	-9.5075	-0.9999	-1.8380	-0.0262	-0.0145	-0.0494	15.5274	-16.4855	15.7991	-0.3226	-0.6186	-0.4615	0.5479
5.87	-9.5081	-0.9995	-1.8376	-0.0256	-0.0092	-0.0413	15.2719	-16.3832	15.7790	-0.3226	-0.6186	-0.4615	0.5479
5.88	-9.4978	-1.0037	-1.8320	-0.0265	-0.0164	-0.0451	15.0388	-16.4630	15.7592	-0.3227	-0.6186	-0.4615	0.5479
5.89	-9.4961	-1.0156	-1.8328	-0.0298	-0.0148	-0.0546	15.1782	-16.4393	15.5738	-0.3227	-0.6185	-0.4615	0.5479
5.9	-9.4899	-1.0192	-1.8319	-0.0249	-0.0151	-0.0502	15.0421	-16.5826	15.5292	-0.3228	-0.6185	-0.4616	0.5479
5.91	-9.4858	-1.0215	-1.8253	-0.0252	-0.0193	-0.0518	15.2593	-16.4836	15.7679	-0.3229	-0.6185	-0.4616	0.5479
5.92	-9.4783	-1.0221	-1.8225	-0.0272	-0.0231	-0.0559	15.1721	-16.4491	15.8838	-0.3230	-0.6184	-0.4616	0.5480
5.93	-9.4632	-1.0234	-1.8188	-0.0265	-0.0166	-0.0598	15.2381	-16.4484	15.6210	-0.3230	-0.6183	-0.4616	0.5479
5.94	-9.4526	-1.0180	-1.8131	-0.0217	-0.0115	-0.0585	15.2708	-16.3612	15.6561	-0.3230	-0.6183	-0.4617	0.5480
5.95	-9.4556	-1.0112	-1.8143	-0.0161	-0.0119	-0.0578	15.3963	-16.5217	15.6448	-0.3230	-0.6183	-0.4617	0.5480
5.96	-9.4577	-1.0058	-1.8120	-0.0186	-0.0075	-0.0612	15.1493	-16.6284	15.6581	-0.3229	-0.6182	-0.4617	0.5480
5.97	-9.4548	-0.9920	-1.8186	-0.0233	-0.0058	-0.0568	15.2631	-16.6275	15.6466	-0.3230	-0.6183	-0.4618	0.5480
5.98	-9.4652	-0.9891	-1.8155	-0.0248	-0.0033	-0.0605	15.3730	-16.6542	15.5209	-0.3230	-0.6182	-0.4618	0.5480
5.99	-9.4903	-0.9893	-1.8217	-0.0244	-0.0026	-0.0588	15.3045	-16.7670	15.6440	-0.3230	-0.6182	-0.4619	0.5480
6	-9.4913	-0.9872	-1.8241	-0.0285	-0.0032	-0.0593	15.3802	-16.5969	15.6644	-0.3230	-0.6181	-0.4619	0.5479
6.01	-9.4877	-1.0012	-1.8176	-0.0293	-0.0032	-0.0611	15.2681	-16.5556	15.6367	-0.3230	-0.6181	-0.4620	0.5479
6.02	-9.4972	-1.0172	-1.8234	-0.0334	-0.0022	-0.0576	15.3227	-16.6607	15.4935	-0.3230	-0.6181	-0.4621	0.5479
6.03	-9.4975	-1.0252	-1.8270	-0.0423	-0.0043	-0.0568	15.2458	-16.5984	15.4468	-0.3231	-0.6180	-0.4621	0.5478
6.04	-9.5076	-1.0368	-1.8258	-0.0357	-0.0117	-0.0571	15.3698	-16.8405	15.4982	-0.3231	-0.6180	-0.4622	0.5478
6.05	-9.5223	-1.0498	-1.8296	-0.0244	-0.0133	-0.0603	15.3924	-16.7850	15.5736	-0.3232	-0.6179	-0.4623	0.5478
6.06	-9.5127	-1.0650	-1.8274	-0.0382	-0.0145	-0.0579	15.3547	-16.8368	15.8168	-0.3232	-0.6179	-0.4624	0.5478
6.07	-9.4865	-1.0576	-1.8245	-0.0306	-0.0120	-0.0584	15.1400	-16.6359	15.8547	-0.3232	-0.6177	-0.4624	0.5477
6.08	-9.4746	-1.0437	-1.8218	-0.0254	-0.0062	-0.0545	15.2084	-16.5009	15.6084	-0.3233	-0.6178	-0.4625	0.5478
6.09	-9.4787	-1.0402	-1.8208	-0.0265	-0.0072	-0.0594	15.3487	-16.6100	15.5035	-0.3233	-0.6177	-0.4625	0.5477
6.1	-9.4912	-1.0406	-1.8170	-0.0275	-0.0047	-0.0604	15.1482	-16.5993	15.7401	-0.3233	-0.6177	-0.4626	0.5477
6.11	-9.5026	-1.0502	-1.8166	-0.0270	-0.0017	-0.0583	15.1400	-16.3104	15.7236	-0.3233	-0.6176	-0.4626	0.5477
6.12	-9.5035	-1.0594	-1.8127	-0.0258	-0.0042	-0.0518	15.2326	-16.5512	15.6640	-0.3233	-0.6176	-0.4627	0.5476
6.13	-9.5163	-1.0556	-1.8086	-0.0273	-0.0127	-0.0524	15.3410	-16.6657	15.7526	-0.3234	-0.6176	-0.4627	0.5476
6.14	-9.5233	-1.0589	-1.8083	-0.0264	-0.0131	-0.0457	15.1215	-16.5434	15.4405	-0.3234	-0.6175	-0.4627	0.5476
6.15	-9.4823	-1.0644	-1.8092	-0.0234	-0.0245	-0.0411	15.1774	-16.5265	15.4636	-0.3236	-0.6176	-0.4627	0.5477
6.16	-9.4522	-1.0608	-1.7960	-0.0205	-0.0174	-0.0425	15.1621	-16.7464	15.5092	-0.3236	-0.6175	-0.4626	0.5476
6.17	-9.4336	-1.0629	-1.8078	-0.0255	-0.0201	-0.0424	15.3637	-16.8260	15.8723	-0.3237	-0.6176	-0.4627	0.5477
6.18	-9.4251	-1.0628	-1.8008	-0.0222	-0.0094	-0.0346	15.3092	-16.7989	15.7422	-0.3237	-0.6175	-0.4626	0.5476
6.19	-9.4398	-1.0579	-1.8090	-0.0111	-0.0048	-0.0346	15.2637	-16.7946	15.5021	-0.3238	-0.6176	-0.4625	0.5476
6.2	-9.4570	-1.0387	-1.8151	-0.0008	-0.0044	-0.0341	15.3622	-16.6713	15.6450	-0.3238	-0.6176	-0.4625	0.5476
6.21	-9.4657	-1.0130	-1.8085	-0.0035	0.0016	-0.0350	15.3206	-16.8148	15.6552	-0.3238	-0.6177	-0.4624	0.5475
6.22	-9.4541	-1.0037	-1.8139	-0.0020	0.0042	-0.0387	15.4409	-16.8002	15.6715	-0.3238	-0.6178	-0.4624	0.5475
6.23	-9.4563	-0.9949	-1.8122	-0.0005	0.0065	-0.0504	15.2849	-16.8144	15.6222	-0.3237	-0.6179	-0.4623	0.5475
6.24	-9.4568	-0.9785	-1.8266	0.0014	0.0128	-0.0552	15.1791	-16.7654	15.5252	-0.3236	-0.6180	-0.4623	0.5475
6.25	-9.4457	-0.9625	-1.8215	-0.0015	0.0030	-0.0533	15.0663	-16.5990	15.6690	-0.3235	-0.6179	-0.4623	0.5474
6.26	-9.4551	-0.9471	-1.8261	-0.0070	0.0129	-0.0568	15.1685	-16.5586	15.6393	-0.3234	-0.6181	-0.4623	0.5475
6.27	-9.4617	-0.9416	-1.8447	-0.0123	0.0146	-0.0586	15.3525	-16.6535	15.6710	-0.3233	-0.6181	-0.4624	0.5474
6.28	-9.4584	-0.9447	-1.8456	-0.0210	0.0212	-0.0648	15.2451	-16.6124	15.5847	-0.3232	-0.6181	-0.4624	0.5473
6.29	-9.4761	-0.9584	-1.8553	-0.0273	0.0173	-0.0627	15.1852	-16.7351	15.4346	-0.3232	-0.6182	-0.4626	0.5472
6.3	-9.4953	-0.9723	-1.8712	-0.0341	0.0198	-0.0708	15.1986	-16.5876	15.6501	-0.3231	-0.6181	-0.4627	0.5471
6.31	-9.5006	-0.9792	-1.8746	-0.0479	0.0249	-0.0700	15.0190	-16.6821	15.6109	-0.3231	-0.6182	-0.4629	0.5470
6.32	-9.5197	-0.9995	-1.8806	-0.0490	0.0135	-0.0690	15.1405	-16.4418	15.8566	-0.3231	-0.6181	-0.4631	0.5468
6.33	-9.5538	-1.0266	-1.8873	-0.0355	0.0224	-0.0741	15.5495	-16.3473	15.7905	-0.3231	-0.6181	-0.4633	0.5468
6.34	-9.5531	-1.0414	-1.8894	-0.0310	-0.0046	-0.0678	15.7043	-16.6975	15.9559	-0.3230	-0.6181	-0.4634	0.5467
6.35	-9.5442	-1.0527	-1.8853	-0.0406	-0.0082	-0.0683	15.5426	-16.6685	16.0105	-0.3231	-0.6180	-0.4635	0.5467
6.36	-9.5513	-1.0661	-1.8855	-0.0330	-0.0103	-0.0792	15.6839	-16.5208	15.7373	-0.3231	-0.6179	-0.4636	0.5467
6.37	-9.5288	-1.0692	-1.8858	-0.0257	-0.0172	-0.0693	15.4746	-16.6284	15.4605	-0.3231	-0.6178	-0.4637	0.5468
6.38	-9.5084	-1.0768	-1.8860	-0.0262	-0.0141	-0.0643	15.5698	-16.6068	15.6345	-0.3231	-0.6177	-0.4638	0.5468
6.39	-9.4551	-1.0774	-1.8745	-0.0257	-0.0183	-0.0707	15.3687	-16.5777	15.6985	-0.3231	-0.6176	-0.4638	0.5468
6.4	-9.5392	-1.0722	-1.8591	-0.0266	-0.0157	-0.0669	15.1153	-16.5883	15.5740	-0.3231	-0.6176	-0.4639	0.5469
6.41	-9.5275	-1.0801	-1.8872	-0.0267	-0.0207	-0.0720	15.2362	-16.4513	15.5430	-0.3231	-0.6175	-0.4640	0.5469
6.42	-9.4560	-1.0655	-1.8368	-0.0268	-0.0413	-0.0675	15.2695	-16.5832	15.5025	-0.3232	-0.6174	-0.4640	0.5470
6.43	-9.4902	-1.0822	-1.8415	-0.0269	-0.0160	-0.0660	15.2530	-16.6690	15.8356	-0.3232	-0.6172	-0.4640	0.5470
6.44	-9.4898	-1.0862	-1.8580	-0.0271	-0.0287	-0.0676	15.3854	-16.5776	15.5835	-0.3232	-0.6171	-0.4641	0.5471
6.45	-9.4693	-1.0821	-1.8269	-0.0263	-0.0344	-0.0537	15.4827	-16.5684	15.6496	-0.3233	-0.6170	-0.4641	0.5471
6.46	-9.4623	-1.0856	-1.8290	-0.0263	-0.0280	-0.0554	15.3261	-16.6665	15.6774	-0.3234	-0.6169	-0.4641	0.5471
6.47	-9.4824	-1.0729	-1.8288	-0.0265	-0.0287	-0.0518	15.3840	-16.7675	15.7984	-0.3235	-0.6169	-0.4642	0.5473
6.48	-9.4829	-1.0658	-1.8319	-0.0258	-0.0246	-0.0557	15.2745	-16.6416	15.8730	-0.3235	-0.6168	-0.4641	0.5472
6.49	-9.4681	-1.0798	-1.8216	-0.0269	-0.0242	-0.0629	15.3308	-16.6903	15.6544	-0.3236	-0.6167	-0.4642	0.5473
6.5	-9.4613	-1.0868	-1.8301	-0.0219	-0.0168	-0.0617	15.3357	-16.6565	15.7070	-0.3236	-0.6166	-0.4642	0.5473
6.51	-9.4579	-1.0710	-1.8208	-0.0161	-0.0195	-0.0598	15.4006	-16.8009	15.6384	-0.3236	-0.6166	-0.4642	0.5474
6.52	-9.4564	-1.0672	-1.8168	-0.0239	-0.0189	-0.0529	15.5445	-16.5253	15.7789	-0.3236	-0.6165	-0.4642	0.5474
6.53	-9.4542	-1.0643	-1.8268	-0.0200	-0.0127	-0.0478	15.3100	-16.5271	15.6208	-0.3237	-0.6165	-0.4642	0.5474
6.54	-9.4421	-1.0536	-1.8172	-0.0220	-0.0109	-0.0535	15.4550	-16.8274	15.4678	-0.3237	-0.6165	-0.4642	0.5474
6.55	-9.4530	-1.0484	-1.8189	-0.0194	-0.0098	-0.0527	15.5792	-16.8130	15.6562	-0.3237	-0.6165	-0.4642	0.5474
6.56	-9.4782	-1.0588	-1.8243	-0.0212	-0.0020	-0.0525	15.3897	-16.5279	15.7095	-0.3237	-0.6165	-0.4643	0.5474
6.57	-9.4644	-1.0608	-1.8246	-0.0224	-0.0143	-0.0575	15.3239	-16.7885	15.5575	-0.3237	-0.6164	-0.4643	0.5473
6.58	-9.4729	-1.0607	-1.8172	-0.0249	-0.0172	-0.0479	15.4653	-16.6274	15.7478	-0.3238	-0.6164	-0.4643	0.5474
6.59	-9.4944	-1.0696	-1.8337	-0.0266	-0.0029	-0.0461	15.4264	-16.5916	15.7079	-0.3238	-0.6164	-0.4643	0.5473
6.6	-9.4924	-1.0737	-1.8276	-0.0260	-0.0102	-0.0461	15.1581	-16.7879	15.4527	-0.3239	-0.6164	-0.4644	0.5473
6.61	-9.4868	-1.0750	-1.8223	-0.0204	-0.0137	-0.0469	15.2760	-16.7477	15.6128	-0.3239	-0.6164	-0.4643	0.5473
6.62	-9.4874	-1.0771	-1.8271	-0.0133	-0.0156	-0.0466	15.3552	-16.5334	15.5790	-0.3239	-0.6164	-0.4643	0.5473
6.63	-9.4964	-1.0756	-1.8314	-0.0207	-0.0100	-0.0431	15.5980	-16.6516	15.7899	-0.3240	-0.6164	-0.4643	0.5473
6.64	-9.4815	-1.0640	-1.8266	-0.0063	-0.0110	-0.0504	15.5391	-16.6956	15.6915	-0.3240	-0.6164	-0.4642	0.5473
6.65	-9.4657	-1.0591	-1.8199	-0.0052	-0.0121	-0.0438	15.5347	-16.5411	15.5561	-0.3240	-0.6165	-0.4642	0.5474
6.66	-9.4915	-1.0500	-1.8177	-0.0034	0.0001	-0.0467	15.4855	-16.5044	15.6206	-0.3239	-0.6165	-0.4642	0.5473
6.67	-9.4990	-1.0397	-1.8290	-0.0017	-0.0035	-0.0497	15.4331	-16.6941	15.7694	-0.3239	-0.6166	-0.4642	0.5474
6.68	-9.4729	-1.0249	-1.8143	-0.0021	-0.0053	-0.0458	15.3499	-16.5853	15.7829	-0.3238	-0.6165	-0.4641	0.5473
6.69	-9.4770	-1.0174	-1.8124	-0.0087	-0.0063	-0.0530	15.2417	-16.3342	15.6169	-0.3238	-0.6166	-0.4641	0.5474
6.7	-9.4801	-1.0124	-1.8210	-0.0027	-0.0084	-0.0535	15.2477	-16.5426	15.5718	-0.3238	-0.6166	-0.4641	0.5474
6.71	-9.4633	-1.0045	-1.8120	-0.0060	-0.0076	-0.0486	15.0301	-16.6090	15.5952	-0.3237	-0.6166	-0.4640	0.5474
6.72	-9.4623	-1.0025	-1.8124	-0.0204	-0.0110	-0.0458	15.3253	-16.5751	15.4758	-0.3238	-0.6166	-0.4640	0.5475
6.73	-9.4720	-1.0105	-1.8188	-0.0204	-0.0073	-0.0552	15.4687	-16.7316	15.6573	-0.3238	-0.6166	-0.4640	0.5474
6.74	-9.4857	-1.0165	-1.8253	-0.0265	-0.0037	-0.0552	15.4232	-16.5680	15.6926	-0.3238	-0.6166	-0.4641	0.5474
6.75	-9.4901	-1.0192	-1.8241	-0.0259	-0.0039	-0.0537	15.4496	-16.6790	15.6582	-0.3238	-0.6165	-0.4641	0.5473
6.76	-9.4938	-1.0332	-1.8241	-0.0259	-0.0027	-0.0493	15.4222	-16.7720	15.8315	-0.3238	-0.6166	-0.4642	0.5473
6.77	-9.4963	-1.0430	-1.8309	-0.0260	-0.0028	-0.0465	15.2990	-16.5955	15.4900	-0.3239	-0.6166	-0.4642	0.5473
6.78	-9.4779	-1.0503	-1.8354	-0.0257	-0.0028	-0.0539	15.4660	-16.5706	15.6394	-0.3239	-0.6165	-0.4642	0.5472
6.79	-9.4809	-1.0492	-1.8297	-0.0232	-0.0029	-0.0553	15.3094	-16.6884	15.7979	-0.3239	-0.6166	-0.4643	0.5472
6.8	-9.4999	-1.0594	-1.8392	-0.0199	-0.0044	-0.0529	15.4131	-16.7915	15.7778	-0.3239	-0.6165	-0.4643	0.5472
6.81	-9.4991	-1.0517	-1.8391	-0.0225	-0.0096	-0.0553	15.3883	-16.7048	15.7192	-0.3239	-0.6165	-0.4643	0.5472
6.82	-9.4854	-1.0432	-1.8373	-0.0269	-0.0097	-0.0554	15.3197	-16.5724	15.6390	-0.3239	-0.6164	-0.4643	0.5471
6.83	-9.4899	-1.0500	-1.8484	-0.0263	-0.0086	-0.0567	15.5805	-16.5894	15.9355	-0.3240	-0.6165	-0.4644	0.5472
6.84	-9.4866	-1.0404	-1.8492	-0.0266	-0.0173	-0.0529	15.8208	-16.7243	15.9596	-0.3240	-0.6164	-0.4644	0.5471
6.85	-9.4698	-1.0411	-1.8448	-0.0269	-0.0088	-0.0527	15.6484	-16.5198	15.9566	-0.3240	-0.6164	-0.4645	0.5471
6.86	-9.4711	-1.0473	-1.8475	-0.0258	-0.0013	-0.0515	15.3408	-16.3550	15.8277	-0.3240	-0.6164	-0.4645	0.5471
6.87	-9.4698	-1.0445	-1.8499	-0.0267	-0.0063	-0.0549	15.2630	-16.3698	15.6679	-0.3241	-0.6163	-0.4646	0.5471
6.88	-9.4745	-1.0414	-1.8457	-0.0261	-0.0012	-0.0555	15.1160	-16.5113	15.6538	-0.3241	-0.6163	-0.4646	0.5470
6.89	-9.4858	-1.0426	-1.8503	-0.0264	-0.0062	-0.0558	15.3309	-16.6331	15.6557	-0.3241	-0.6163	-0.4646	0.5470
6.9	-9.5006	-1.0465	-1.8514	-0.0232	-0.0103	-0.0540	15.0973	-16.8533	15.5527	-0.3241	-0.6163	-0.4647	0.5470
6.91	-9.4899	-1.0415	-1.8571	-0.0236	-0.0087	-0.0550	15.4982	-16.7663	15.5696	-0.3241	-0.6163	-0.4647	0.5470
6.92	-9.4973	-1.0405	-1.8532	-0.0270	-0.0104	-0.0533	15.6607	-16.6884	15.5666	-0.3242	-0.6163	-0.4648	0.5470
6.93	-9.4927	-1.0441	-1.8569	-0.0215	-0.0149	-0.0485	15.1981	-16.8348	15.5624	-0.3242	-0.6162	-0.4647	0.5469
6.94	-9.4857	-1.0320	-1.8570	-0.0225	-0.0181	-0.0486	15.4387	-16.9076	15.5774	-0.3243	-0.6162	-0.4648	0.5470
6.95	-9.4964	-1.0356	-1.8504	-0.0232	-0.0141	-0.0512	15.4462	-16.9048	15.7430	-0.3243	-0.6162	-0.4648	0.5470
6.96	-9.4984	-1.0498	-1.8519	-0.0221	-0.0152	-0.0541	15.4641	-16.8394	15.7709	-0.3243	-0.6161	-0.4648	0.5470
6.97	-9.5099	-1.0403	-1.8475	-0.0223	-0.0127	-0.0492	15.3414	-16.5865	15.5296	-0.3244	-0.6161	-0.4648	0.5470
6.98	-9.4945	-1.0432	-1.8440	-0.0133	-0.0191	-0.0462	15.3941	-16.6945	15.5794	-0.3244	-0.6161	-0.4647	0.5470
6.99	-9.4941	-1.0401	-1.8344	-0.0167	-0.0212	-0.0439	15.5031	-16.7076	15.5441	-0.3245	-0.6161	-0.4647	0.5471
7	-9.5182	-1.0277	-1.8397	-0.0195	-0.0207	-0.0501	15.3264	-16.4199	15.6623	-0.3245	-0.6160	-0.4647	0.5470
7.01	-9.5007	-1.0219	-1.8284	-0.0165	-0.0213	-0.0566	15.3057	-16.3875	15.5191	-0.3245	-0.6160	-0.4647	0.5471
7.02	-9.4820	-1.0272	-1.8164	-0.0177	-0.0216	-0.0551	15.1824	-16.4939	15.4304	-0.3245	-0.6159	-0.4647	0.5472
7.03	-9.5059	-1.0418	-1.8242	-0.0213	-0.0154	-0.0566	15.3208	-16.4316	15.5482	-0.3246	-0.6159	-0.4647	0.5472
7.04	-9.4985	-1.0395	-1.8225	-0.0198	-0.0188	-0.0476	15.5822	-16.5792	15.6664	-0.3246	-0.6159	-0.4647	0.5472
7.05	-9.4870	-1.0287	-1.8020	-0.0274	-0.0223	-0.0525	15.2671	-16.5069	15.6498	-0.3247	-0.6158	-0.4647	0.5472
7.06	-9.5001	-1.0337	-1.8109	-0.0213	-0.0175	-0.0475	15.2812	-16.4395	15.6440	-0.3247	-0.6158	-0.4647	0.5473
7.07	-9.4968	-1.0320	-1.8102	-0.0222	-0.0279	-0.0533	15.2789	-16.4775	15.6665	-0.3248	-0.6156	-0.4647	0.5472
7.08	-9.4512	-1.0224	-1.8033	-0.0275	-0.0313	-0.0484	15.2584	-16.4382	15.5090	-0.3249	-0.6156	-0.4647	0.5473
7.09	-9.4315	-1.0204	-1.7922	-0.0243	-0.0377	-0.0447	15.3384	-16.5201	15.4762	-0.3250	-0.6155	-0.4646	0.5474
7.1	-9.4497	-1.0325	-1.8029	-0.0240	-0.0222	-0.0532	15.6033	-16.8326	15.6914	-0.3251	-0.6155	-0.4647	0.5474
7.11	-9.4430	-1.0319	-1.8072	-0.0251	-0.0216	-0.0401	15.3068	-16.7108	15.5403	-0.3251	-0.6154	-0.4646	0.5474
7.12	-9.4368	-1.0192	-1.8063	-0.0220	-0.0121	-0.0395	15.4285	-16.7335	15.5864	-0.3252	-0.6154	-0.4646	0.5474
7.13	-9.4589	-1.0104	-1.8129	-0.0256	-0.0040	-0.0453	15.6050	-16.9039	15.7390	-0.3252	-0.6155	-0.4646	0.5474
7.14	-9.4703	-1.0141	-1.8147	-0.0265	-0.0058	-0.0550	15.4164	-16.8276	15.7855	-0.3252	-0.6154	-0.4646	0.5473
7.15	-9.4627	-1.0233	-1.8141	-0.0263	-0.0074	-0.0604	15.4875	-16.6881	15.3918	-0.3253	-0.6154	-0.4647	0.5473
7.16	-9.4800	-1.0329	-1.8217	-0.0262	-0.0037	-0.0633	15.5453	-16.6246	15.5619	-0.3253	-0.6154	-0.4648	0.5473
7.17	-9.4508	-1.0300	-1.8334	-0.0275	-0.0125	-0.0625	15.5609	-16.9029	15.4946	-0.3253	-0.6154	-0.4649	0.5473
7.18	-9.4683	-1.0216	-1.8096	-0.0265	-0.0093	-0.0594	15.4329	-16.8316	15.5431	-0.3253	-0.6152	-0.4649	0.5472
7.19	-9.4679	-1.0405	-1.8401	-0.0264	-0.0036	-0.0652	15.2458	-16.4174	15.8363	-0.3253	-0.6152	-0.4650	0.5473
7.2	-9.5049	-1.0325	-1.8329	-0.0256	-0.0035	-0.0670	15.2747	-16.3930	15.5906	-0.3253	-0.6152	-0.4650	0.5473
7.21	-9.4721	-1.0435	-1.8524	-0.0267	-0.0086	-0.0704	15.3507	-16.5725	15.5493	-0.3252	-0.6151	-0.4651	0.5472
7.22	-9.4753	-1.0396	-1.8309	-0.0274	-0.0106	-0.0641	15.3691	-16.5321	15.5575	-0.3253	-0.6151	-0.4652	0.5473
7.23	-9.5203	-1.0558	-1.8602	-0.0265	-0.0026	-0.0663	15.5258	-16.4308	15.5785	-0.3252	-0.6150	-0.4653	0.5472
7.24	-9.5275	-1.0527	-1.8556	-0.0278	-0.0098	-0.0703	15.4737	-16.5233	15.4856	-0.3252	-0.6150	-0.4654	0.5473
7.25	-9.5327	-1.0518	-1.8554	-0.0255	-0.0084	-0.0651	15.1011	-16.5778	15.4571	-0.3252	-0.6149	-0.4654	0.5472
7.26	-9.5430	-1.0610	-1.8641	-0.0310	-0.0164	-0.0683	15.2846	-16.6156	15.5831	-0.3252	-0.6149	-0.4655	0.5473
7.27	-9.5570	-1.0645	-1.8624	-0.0285	-0.0222	-0.0631	15.3277	-16.5471	15.5562	-0.3253	-0.6148	-0.4656	0.5473
7.28	-9.5375	-1.0754	-1.8644	-0.0300	-0.0334	-0.0564	15.2947	-16.8114	15.5571	-0.3253	-0.6146	-0.4656	0.5473
7.29	-9.5407	-1.0781	-1.8516	-0.0327	-0.0301	-0.0616	15.6935	-16.8280	15.5939	-0.3254	-0.6146	-0.4656	0.5474
7.3	-9.4934	-1.0786	-1.8560	-0.0268	-0.0349	-0.0628	15.3305	-16.9020	15.5053	-0.3255	-0.6144	-0.4656	0.5475
7.31	-9.5135	-1.0773	-1.8242	-0.0260	-0.0359	-0.0568	15.6405	-16.9514	15.3111	-0.3256	-0.6144	-0.4656	0.5476
7.32	-9.5762	-1.0783	-1.8432	-0.0296	-0.0256	-0.0607	15.5250	-17.0273	15.5848	-0.3256	-0.6142	-0.4656	0.5475
7.33	-9.4968	-1.0770	-1.8246	-0.0317	-0.0511	-0.0639	15.6700	-16.6244	15.7931	-0.3258	-0.6141	-0.4657	0.5477
7.34	-9.4771	-1.0813	-1.7882	-0.0252	-0.0475	-0.0641	16.0583	-16.5103	15.6912	-0.3258	-0.6139	-0.4657	0.5478
7.35	-9.4881	-1.1058	-1.8137	-0.0267	-0.0411	-0.0682	15.7933	-16.5982	15.6230	-0.3259	-0.6138	-0.4657	0.5479
7.36	-9.4782	-1.1026	-1.7942	-0.0259	-0.0462	-0.0570	15.3204	-16.5163	15.6422	-0.3260	-0.6136	-0.4657	0.5480
7.37	-9.4390	-1.1019	-1.7840	-0.0270	-0.0433	-0.0453	15.1250	-16.3899	15.6185	-0.3261	-0.6135	-0.4656	0.5481
7.38	-9.4536	-1.0862	-1.7739	-0.0219	-0.0412	-0.0503	15.2436	-16.4982	15.5189	-0.3262	-0.6135	-0.4656	0.5482
7.39	-9.4804	-1.0770	-1.7824	-0.0241	-0.0332	-0.0531	15.3689	-16.4586	15.3770	-0.3263	-0.6133	-0.4655	0.5482
7.4	-9.4689	-1.0786	-1.7735	-0.0269	-0.0392	-0.0544	15.4728	-16.6115	15.3905	-0.3264	-0.6133	-0.4656	0.5483
7.41	-9.4631	-1.0829	-1.7724	-0.0245	-0.0318	-0.0576	15.4308	-16.4983	15.3933	-0.3265	-0.6132	-0.4656	0.5483
7.42	-9.4720	-1.0847	-1.7819	-0.0209	-0.0278	-0.0605	15.2683	-16.5350	15.3718	-0.3266	-0.6131	-0.4656	0.5485
7.43	-9.4612	-1.0761	-1.7728	-0.0158	-0.0294	-0.0562	15.2868	-16.5991	15.4881	-0.3265	-0.6130	-0.4655	0.5485
7.44	-9.4569	-1.0734	-1.7662	-0.0191	-0.0225	-0.0549	15.2555	-16.4166	15.5970	-0.3266	-0.6130	-0.4655	0.5485
7.45	-9.4604	-1.0699	-1.7687	-0.0151	-0.0290	-0.0472	15.3357	-16.5795	15.5308	-0.3267	-0.6129	-0.4655	0.5486
7.46	-9.4576	-1.0646	-1.7612	-0.0152	-0.0298	-0.0353	15.3854	-16.4786	15.3681	-0.3267	-0.6129	-0.4654	0.5486
7.47	-9.4620	-1.0654	-1.7631	-0.0169	-0.0237	-0.0446	15.2574	-16.4918	15.4066	-0.3268	-0.6129	-0.4654	0.5487
7.48	-9.4626	-1.0711	-1.7733	-0.0164	-0.0151	-0.0411	15.4226	-16.7263	15.4956	-0.3268	-0.6129	-0.4653	0.5487
7.49	-9.4697	-1.0693	-1.7706	-0.0253	-0.0175	-0.0417	15.2647	-16.5639	15.2616	-0.3269	-0.6129	-0.4653	0.5487
7.5	-9.4842	-1.0717	-1.7774	-0.0227	-0.0160	-0.0428	15.3618	-16.5642	15.4106	-0.3270	-0.6128	-0.4652	0.5486
7.51	-9.4973	-1.0725	-1.7794	-0.0197	-0.0184	-0.0400	15.4851	-16.7935	15.3702	-0.3271	-0.6128	-0.4652	0.5487
7.52	-9.5032	-1.0729	-1.7784	-0.0205	-0.0211	-0.0375	15.2304	-16.6899	15.4354	-0.3271	-0.6128	-0.4652	0.5487
7.53	-9.5112	-1.0654	-1.7789	-0.0167	-0.0162	-0.0397	15.1527	-16.5881	15.2591	-0.3272	-0.6128	-0.4651	0.5486
7.54	-9.5223	-1.0593	-1.7808	-0.0065	-0.0155	-0.0436	15.3084	-16.4513	15.4487	-0.3272	-0.6129	-0.4651	0.5487
7.55	-9.5182	-1.0459	-1.7778	-0.0071	-0.0212	-0.0346	15.3800	-16.5226	15.4039	-0.3273	-0.6129	-0.4650	0.5487
7.56	-9.5128	-1.0372	-1.7681	-0.0017	-0.0261	-0.0411	15.3559	-16.5901	15.3017	-0.3273	-0.6129	-0.4649	0.5488
7.57	-9.5207	-1.0271	-1.7667	-0.0016	-0.0224	-0.0459	15.3808	-16.5419	15.5130	-0.3273	-0.6128	-0.4648	0.5488
7.58	-9.5167	-1.0166	-1.7711	-0.0066	-0.0240	-0.0474	15.2337	-16.8061	15.4824	-0.3273	-0.6129	-0.4648	0.5489
7.59	-9.5017	-1.0056	-1.7580	-0.0057	-0.0260	-0.0489	15.1781	-16.6732	15.4481	-0.3273	-0.6128	-0.4647	0.5490
7.6	-9.5081	-1.0033	-1.7562	-0.0171	-0.0282	-0.0558	15.4660	-16.6636	15.3520	-0.3274	-0.6128	-0.4647	0.5491
7.61	-9.4992	-1.0054	-1.7513	-0.0246	-0.0313	-0.0497	15.3679	-16.5542	15.5040	-0.3274	-0.6127	-0.4646	0.5491
7.62	-9.4911	-1.0017	-1.7403	-0.0189	-0.0246	-0.0550	15.0985	-16.5858	15.6014	-0.3275	-0.6126	-0.4646	0.5491
7.63	-9.4984	-1.0062	-1.7416	-0.0264	-0.0272	-0.0570	15.3400	-16.5130	15.5074	-0.3276	-0.6126	-0.4646	0.5492
7.64	-9.4888	-1.0143	-1.7379	-0.0214	-0.0308	-0.0551	15.3707	-16.4560	15.4586	-0.3276	-0.6124	-0.4646	0.5492
7.65	-9.4880	-1.0226	-1.7301	-0.0260	-0.0339	-0.0607	15.3765	-16.5003	15.4980	-0.3277	-0.6124	-0.4647	0.5493
7.66	-9.4938	-1.0372	-1.7296	-0.0260	-0.0280	-0.0572	15.6262	-16.7534	15.4556	-0.3277	-0.6123	-0.4646	0.5493
7.67	-9.4794	-1.0395	-1.7274	-0.0261	-0.0344	-0.0555	15.4160	-16.6801	15.2999	-0.3278	-0.6122	-0.4647	0.5495
7.68	-9.4730	-1.0579	-1.7239	-0.0261	-0.0232	-0.0576	15.5810	-16.6345	15.3012	-0.3279	-0.6121	-0.4646	0.5494
7.69	-9.4902	-1.0747	-1.7301	-0.0307	-0.0240	-0.0567	15.4853	-16.6824	15.1741	-0.3279	-0.6121	-0.4647	0.5495
7.7	-9.4853	-1.0821	-1.7252	-0.0272	-0.0301	-0.0552	15.3073	-16.6012	15.2442	-0.3280	-0.6120	-0.4647	0.5495
7.71	-9.4821	-1.0860	-1.7263	-0.0260	-0.0245	-0.0512	15.4658	-16.5430	15.0871	-0.3281	-0.6119	-0.4647	0.5495
7.72	-9.4903	-1.0909	-1.7305	-0.0259	-0.0198	-0.0545	15.4580	-16.6907	15.2469	-0.3282	-0.6119	-0.4648	0.5496
7.73	-9.5005	-1.0932	-1.7260	-0.0245	-0.0210	-0.0455	15.2907	-16.6242	15.4385	-0.3282	-0.6118	-0.4647	0.5496
7.74	-9.4971	-1.0900	-1.7274	-0.0185	-0.0245	-0.0421	15.3148	-16.7357	15.3545	-0.3283	-0.6118	-0.4647	0.5496
7.75	-9.4947	-1.0883	-1.7256	-0.0181	-0.0164	-0.0481	15.4853	-16.7488	15.5057	-0.3283	-0.6117	-0.4646	0.5496
7.76	-9.4960	-1.0843	-1.7251	-0.0062	-0.0087	-0.0469	15.3130	-16.6324	15.4673	-0.3283	-0.6118	-0.4646	0.5496
7.77	-9.4896	-1.0675	-1.7204	-0.0008	-0.0212	-0.0416	15.4389	-16.6675	15.5075	-0.3283	-0.6118	-0.4645	0.5497
7.78	-9.4839	-1.0599	-1.7191	-0.0015	-0.0169	-0.0468	15.4453	-16.6452	15.3979	-0.3283	-0.6118	-0.4644	0.5497
7.79	-9.4821	-1.0480	-1.7214	-0.0005	-0.0169	-0.0462	15.5641	-16.6697	15.3858	-0.3283	-0.6118	-0.4644	0.5498
7.8	-9.4871	-1.0313	-1.7253	-0.0009	-0.0184	-0.0431	15.5135	-16.5009	15.3940	-0.3283	-0.6118	-0.4643	0.5498
7.81	-9.4890	-1.0243	-1.7242	-0.0005	-0.0164	-0.0473	15.3979	-16.7099	15.3884	-0.3283	-0.6119	-0.4642	0.5499
7.82	-9.4765	-1.0100	-1.7287	0.0002	-0.0144	-0.0426	15.2292	-16.7810	15.3910	-0.3282	-0.6118	-0.4641	0.5499
7.83	-9.4752	-0.9991	-1.7186	-0.0089	-0.0149	-0.0461	15.6602	-16.3922	15.4981	-0.3283	-0.6119	-0.4641	0.5500
7.84	-9.5004	-0.9998	-1.7190	-0.0079	-0.0124	-0.0524	15.8655	-16.2453	15.6250	-0.3283	-0.6119	-0.4641	0.5500
7.85	-9.5198	-1.0048	-1.7250	-0.0093	-0.0162	-0.0466	15.7768	-16.4388	15.4313	-0.3283	-0.6119	-0.4640	0.5500
7.86	-9.5183	-1.0104	-1.7253	-0.0236	-0.0135	-0.0437	15.8014	-16.6617	15.3273	-0.3283	-0.6119	-0.4640	0.5500
7.87	-9.5156	-1.0174	-1.7239	-0.0231	-0.0134	-0.0532	15.4505	-16.6750	15.3186	-0.3283	-0.6119	-0.4640	0.5500
7.88	-9.5178	-1.0149	-1.7312	-0.0229	-0.0114	-0.0480	15.5704	-16.8100	15.1669	-0.3284	-0.6119	-0.4640	0.5500
7.89	-9.5107	-1.0049	-1.7254	-0.0268	-0.0159	-0.0443	15.5966	-16.4943	15.2991	-0.3284	-0.6118	-0.4640	0.5499
7.9	-9.5080	-1.0065	-1.7208	-0.0257	-0.0195	-0.0535	15.5951	-16.6740	15.4224	-0.3285	-0.6118	-0.4641	0.5500
7.91	-9.5142	-1.0388	-1.7229	-0.0289	-0.0101	-0.0562	15.5608	-16.8554	15.3526	-0.3285	-0.6118	-0.4641	0.5499
7.92	-9.5324	-1.0571	-1.7245	-0.0316	-0.0173	-0.0557	15.4151	-16.7140	15.2705	-0.3286	-0.6118	-0.4642	0.5500
7.93	-9.5267	-1.0544	-1.7168	-0.0264	-0.0168	-0.0560	15.3941	-16.7188	15.4159	-0.3286	-0.6116	-0.4641	0.5499
7.94	-9.5409	-1.0622	-1.7084	-0.0264	-0.0228	-0.0559	15.4447	-16.5828	15.2533	-0.3287	-0.6116	-0.4642	0.5500
7.95	-9.5381	-1.0728	-1.7143	-0.0262	-0.0201	-0.0545	15.5177	-16.3438	15.3627	-0.3287	-0.6115	-0.4642	0.5500
7.96	-9.4881	-1.0732	-1.7036	-0.0240	-0.0279	-0.0455	15.4984	-16.7414	15.4102	-0.3288	-0.6115	-0.4641	0.5500
7.97	-9.4539	-1.0773	-1.7032	-0.0267	-0.0289	-0.0538	15.4878	-16.6765	15.3791	-0.3289	-0.6115	-0.4642	0.5501
7.98	-9.4383	-1.0835	-1.7063	-0.0231	-0.0209	-0.0483	15.5359	-16.6619	15.4191	-0.3290	-0.6114	-0.4641	0.5501
7.99	-9.4494	-1.0856	-1.7051	-0.0253	-0.0135	-0.0410	15.3744	-16.6847	15.3204	-0.3290	-0.6114	-0.4642	0.5501
8	-9.4574	-1.0823	-1.7125	-0.0152	-0.0087	-0.0412	15.2040	-16.5205	15.2777	-0.3290	-0.6113	-0.4641	0.5500
8.01	-9.4644	-1.0669	-1.7149	0.0003	-0.0031	-0.0410	15.3563	-16.5285	15.4318	-0.3290	-0.6115	-0.4641	0.5500
8.02	-9.4848	-1.0449	-1.7104	-0.0002	-0.0052	-0.0392	15.3141	-16.6013	15.5147	-0.3290	-0.6115	-0.4640	0.5500
8.03	-9.4913	-1.0373	-1.7170	0.0018	-0.0080	-0.0468	15.6087	-16.9021	15.4096	-0.3290	-0.6115	-0.4639	0.5501
8.04	-9.4920	-1.0248	-1.7177	0.0091	-0.0078	-0.0556	15.5647	-16.8994	15.3003	-0.3289	-0.6116	-0.4639	0.5501
8.05	-9.4915	-1.0022	-1.7276	0.0076	-0.0078	-0.0541	15.6331	-16.7200	15.1544	-0.3288	-0.6116	-0.4638	0.5502
8.06	-9.4901	-0.9872	-1.7246	-0.0001	-0.0058	-0.0529	15.6882	-16.7992	15.3545	-0.3287	-0.6117	-0.4638	0.5502
8.07	-9.5051	-0.9749	-1.7232	-0.0001	-0.0085	-0.0543	15.6792	-17.0483	15.4323	-0.3287	-0.6116	-0.4637	0.5502
8.08	-9.5052	-0.9614	-1.7300	-0.0018	-0.0066	-0.0563	15.6587	-16.5787	15.3678	-0.3286	-0.6117	-0.4637	0.5503
8.09	-9.4913	-0.9527	-1.7286	-0.0226	-0.0107	-0.0543	15.4085	-16.5907	15.4213	-0.3286	-0.6117	-0.4637	0.5503
8.1	-9.4945	-0.9664	-1.7289	-0.0247	-0.0052	-0.0607	15.4005	-16.8653	15.3272	-0.3286	-0.6117	-0.4638	0.5503
8.11	-9.5104	-0.9808	-1.7332	-0.0268	-0.0094	-0.0604	15.5053	-16.5721	15.0972	-0.3286	-0.6116	-0.4638	0.5502
8.12	-9.5060	-0.9956	-1.7404	-0.0424	-0.0061	-0.0593	15.7480	-16.8031	15.3773	-0.3287	-0.6116	-0.4639	0.5502
8.13	-9.5140	-1.0157	-1.7370	-0.0489	-0.0021	-0.0648	15.3639	-16.5259	15.4163	-0.3287	-0.6115	-0.4641	0.5501
8.14	-9.5217	-1.0417	-1.7427	-0.0494	-0.0076	-0.0576	15.2943	-16.3359	15.2870	-0.3288	-0.6114	-0.4641	0.5500
8.15	-9.5224	-1.0683	-1.7451	-0.0523	-0.0038	-0.0586	15.4474	-16.4672	15.2010	-0.3289	-0.6114	-0.4643	0.5500
8.16	-9.5309	-1.0910	-1.7463	-0.0492	-0.0095	-0.0587	15.3844	-16.4731	15.3420	-0.3290	-0.6113	-0.4644	0.5499
8.17	-9.5256	-1.1143	-1.7536	-0.0395	-0.0150	-0.0556	15.4765	-16.6116	15.4978	-0.3291	-0.6113	-0.4645	0.5499
8.18	-9.5287	-1.1180	-1.7478	-0.0272	-0.0130	-0.0534	15.6118	-16.7388	15.3847	-0.3291	-0.6112	-0.4645	0.5498
8.19	-9.4886	-1.1156	-1.7449	-0.0259	-0.0180	-0.0543	15.4438	-16.5515	15.2854	-0.3292	-0.6112	-0.4645	0.5499
8.2	-9.4984	-1.1031	-1.7228	-0.0164	-0.0162	-0.0560	15.2188	-16.5999	15.0890	-0.3292	-0.6111	-0.4645	0.5499
8.21	-9.5673	-1.0958	-1.7407	-0.0035	-0.0136	-0.0644	15.2929	-16.6190	15.2890	-0.3291	-0.6111	-0.4645	0.5499
8.22	-9.4900	-1.0725	-1.7330	-0.0010	-0.0344	-0.0634	15.5490	-16.7549	15.3034	-0.3291	-0.6111	-0.4645	0.5501
8.23	-9.4779	-1.0577	-1.6865	-0.0007	-0.0237	-0.0586	15.5931	-16.7730	15.1936	-0.3291	-0.6110	-0.4644	0.5502
8.24	-9.5020	-1.0602	-1.7214	-0.0012	-0.0119	-0.0639	15.5916	-16.6998	15.4246	-0.3290	-0.6110	-0.4645	0.5503
8.25	-9.4936	-1.0450	-1.7039	-0.0010	-0.0230	-0.0534	15.5802	-16.6983	15.3724	-0.3290	-0.6109	-0.4643	0.5503
8.26	-9.4627	-1.0331	-1.7033	0.0008	-0.0225	-0.0397	15.6040	-16.7611	15.3109	-0.3290	-0.6110	-0.4643	0.5504
8.27	-9.4763	-1.0164	-1.6984	-0.0048	-0.0157	-0.0450	15.5531	-16.9173	15.4473	-0.3290	-0.6110	-0.4642	0.5504
8.28	-9.5140	-1.0192	-1.7087	-0.0200	-0.0122	-0.0434	15.7063	-16.6064	15.2893	-0.3290	-0.6110	-0.4642	0.5504
8.29	-9.5077	-1.0324	-1.7128	-0.0235	-0.0217	-0.0503	15.4589	-16.6215	15.4012	-0.3291	-0.6110	-0.4642	0.5504
8.3	-9.5050	-1.0525	-1.7071	-0.0263	-0.0154	-0.0550	15.2929	-16.6560	15.3952	-0.3291	-0.6109	-0.4642	0.5504
8.31	-9.5087	-1.0692	-1.7125	-0.0237	-0.0132	-0.0514	15.5280	-16.7310	15.3871	-0.3292	-0.6109	-0.4642	0.5504
8.32	-9.5090	-1.0698	-1.7120	-0.0235	-0.0163	-0.0525	15.4641	-16.3029	15.4002	-0.3292	-0.6108	-0.4642	0.5504
8.33	-9.5138	-1.0715	-1.7116	-0.0208	-0.0202	-0.0455	15.7635	-16.6249	15.3654	-0.3293	-0.6109	-0.4642	0.5505
8.34	-9.5107	-1.0726	-1.7112	-0.0166	-0.0194	-0.0469	16.2078	-16.3985	15.2871	-0.3293	-0.6108	-0.4642	0.5505
8.35	-9.5085	-1.0704	-1.7137	-0.0198	-0.0194	-0.0444	15.9404	-16.4086	15.2966	-0.3294	-0.6108	-0.4642	0.5505
8.36	-9.5064	-1.0718	-1.7122	-0.0091	-0.0200	-0.0452	15.7541	-16.5395	15.4312	-0.3294	-0.6108	-0.4641	0.5505
8.37	-9.5111	-1.0675	-1.7053	-0.0060	-0.0219	-0.0403	15.6251	-16.4983	15.0842	-0.3294	-0.6108	-0.4640	0.5505
8.38	-9.5139	-1.0651	-1.7113	-0.0065	-0.0186	-0.0403	15.5052	-16.5803	15.1141	-0.3295	-0.6108	-0.4639	0.5506
8.39	-9.5197	-1.0584	-1.7029	-0.0022	-0.0155	-0.0370	15.5911	-16.5698	15.3362	-0.3294	-0.6108	-0.4638	0.5506
8.4	-9.5377	-1.0609	-1.7046	-0.0073	-0.0203	-0.0356	15.4035	-16.4740	15.1898	-0.3295	-0.6109	-0.4638	0.5507
8.41	-9.5433	-1.0523	-1.6971	-0.0051	-0.0221	-0.0382	15.6987	-16.4888	15.1775	-0.3295	-0.6109	-0.4636	0.5507
8.42	-9.5388	-1.0369	-1.6939	-0.0026	-0.0257	-0.0384	15.6824	-16.7388	15.0878	-0.3296	-0.6109	-0.4636	0.5508
8.43	-9.5267	-1.0295	-1.6910	-0.0006	-0.0292	-0.0423	15.5167	-16.7495	15.2168	-0.3296	-0.6108	-0.4634	0.5508
8.44	-9.5310	-1.0197	-1.6890	-0.0007	-0.0323	-0.0361	15.8051	-16.7527	15.3639	-0.3297	-0.6109	-0.4633	0.5509
8.45	-9.5136	-1.0093	-1.6761	-0.0023	-0.0345	-0.0425	15.6162	-16.6997	15.3722	-0.3297	-0.6109	-0.4632	0.5510
8.46	-9.5117	-1.0016	-1.6642	-0.0025	-0.0342	-0.0397	15.4229	-16.6292	15.1871	-0.3297	-0.6108	-0.4631	0.5510
8.47	-9.5203	-0.9949	-1.6692	-0.0079	-0.0344	-0.0443	15.5941	-16.6896	15.3163	-0.3298	-0.6108	-0.4630	0.5512
8.48	-9.5123	-0.9885	-1.6669	-0.0113	-0.0293	-0.0456	15.6291	-16.7455	15.3273	-0.3299	-0.6108	-0.4629	0.5512
8.49	-9.5054	-0.9921	-1.6625	-0.0230	-0.0347	-0.0491	15.7063	-16.5440	15.4540	-0.3300	-0.6107	-0.4629	0.5513
8.5	-9.4945	-0.9958	-1.6546	-0.0249	-0.0353	-0.0513	15.7416	-16.6797	15.1836	-0.3300	-0.6106	-0.4628	0.5513
8.51	-9.5000	-1.0005	-1.6506	-0.0265	-0.0353	-0.0513	15.6101	-16.4092	15.2239	-0.3301	-0.6105	-0.4629	0.5514
8.52	-9.4920	-1.0164	-1.6540	-0.0255	-0.0326	-0.0558	15.8363	-16.5982	15.3554	-0.3302	-0.6104	-0.4629	0.5515
8.53	-9.4766	-1.0237	-1.6480	-0.0281	-0.0309	-0.0501	15.7404	-16.6881	15.1861	-0.3303	-0.6103	-0.4628	0.5515
8.54	-9.4806	-1.0393	-1.6489	-0.0271	-0.0225	-0.0534	15.6292	-16.6343	15.3407	-0.3304	-0.6103	-0.4629	0.5515
8.55	-9.4924	-1.0490	-1.6571	-0.0262	-0.0236	-0.0503	15.4910	-16.6853	15.2470	-0.3304	-0.6102	-0.4629	0.5515
8.56	-9.4889	-1.0596	-1.6491	-0.0271	-0.0295	-0.0476	15.4799	-16.6022	15.2198	-0.3305	-0.6102	-0.4629	0.5516
8.57	-9.4938	-1.0661	-1.6515	-0.0249	-0.0196	-0.0527	15.6879	-16.4716	15.1019	-0.3306	-0.6101	-0.4628	0.5515
8.58	-9.4902	-1.0662	-1.6516	-0.0280	-0.0202	-0.0414	15.5801	-16.5892	15.1475	-0.3307	-0.6101	-0.4629	0.5516
8.59	-9.4930	-1.0658	-1.6430	-0.0192	-0.0229	-0.0396	15.5947	-16.4098	15.3653	-0.3308	-0.6101	-0.4628	0.5516
8.6	-9.4992	-1.0571	-1.6506	-0.0209	-0.0167	-0.0373	15.6564	-16.6557	15.2116	-0.3308	-0.6101	-0.4628	0.5516
8.61	-9.4961	-1.0493	-1.6537	-0.0049	-0.0169	-0.0380	15.5528	-16.6542	15.1117	-0.3309	-0.6101	-0.4627	0.5516
8.62	-9.4981	-1.0380	-1.6509	-0.0067	-0.0151	-0.0442	15.6281	-16.8074	15.1292	-0.3309	-0.6101	-0.4626	0.5516
8.63	-9.5005	-1.0373	-1.6523	-0.0050	-0.0174	-0.0423	15.5176	-17.0124	15.1072	-0.3309	-0.6101	-0.4625	0.5517
8.64	-9.5110	-1.0261	-1.6527	-0.0032	-0.0165	-0.0376	15.5556	-16.6496	15.2253	-0.3309	-0.6101	-0.4624	0.5516
8.65	-9.5221	-1.0189	-1.6579	-0.0081	-0.0136	-0.0376	15.5579	-16.5544	14.9813	-0.3309	-0.6102	-0.4624	0.5517
8.66	-9.5315	-1.0111	-1.6539	0.0006	-0.0129	-0.0398	15.6665	-16.5945	15.0689	-0.3309	-0.6102	-0.4623	0.5517
8.67	-9.5305	-1.0112	-1.6541	-0.0037	-0.0221	-0.0337	15.6238	-16.7713	14.9163	-0.3310	-0.6103	-0.4622	0.5518
8.68	-9.5258	-1.0081	-1.6519	-0.0079	-0.0180	-0.0322	15.6451	-16.6350	15.1317	-0.3310	-0.6103	-0.4621	0.5517
8.69	-9.5114	-0.9982	-1.6519	-0.0054	-0.0172	-0.0394	15.6321	-16.8080	15.2346	-0.3310	-0.6103	-0.4620	0.5518
8.7	-9.5091	-0.9942	-1.6490	-0.0037	-0.0220	-0.0370	15.4511	-16.6219	15.2049	-0.3311	-0.6103	-0.4619	0.5518
8.71	-9.5170	-0.9963	-1.6536	-0.0076	-0.0165	-0.0411	15.5410	-16.5495	15.2027	-0.3311	-0.6103	-0.4618	0.5518
8.72	-9.5007	-0.9837	-1.6493	-0.0048	-0.0202	-0.0433	15.5563	-16.5794	15.2260	-0.3311	-0.6104	-0.4618	0.5520
8.73	-9.5040	-0.9812	-1.6396	-0.0012	-0.0236	-0.0428	15.4109	-16.4403	15.3077	-0.3311	-0.6104	-0.4617	0.5520
8.74	-9.5081	-0.9801	-1.6469	-0.0008	-0.0136	-0.0421	15.5484	-16.5493	15.0860	-0.3311	-0.6104	-0.4616	0.5520
8.75	-9.5116	-0.9709	-1.6406	-0.0027	-0.0232	-0.0399	15.5457	-16.6798	15.2200	-0.3311	-0.6104	-0.4614	0.5520
8.76	-9.5231	-0.9715	-1.6382	-0.0131	-0.0159	-0.0511	15.5572	-16.5203	15.3232	-0.3312	-0.6104	-0.4615	0.5521
8.77	-9.5451	-0.9748	-1.6442	-0.0095	-0.0124	-0.0456	15.7111	-16.4790	15.2661	-0.3312	-0.6104	-0.4614	0.5521
8.78	-9.5556	-0.9807	-1.6429	-0.0051	-0.0229	-0.0517	15.7507	-16.4644	15.0958	-0.3311	-0.6104	-0.4614	0.5522
8.79	-9.5328	-0.9756	-1.6476	-0.0141	-0.0260	-0.0455	15.6093	-16.6068	15.1439	-0.3312	-0.6104	-0.4613	0.5522
8.8	-9.5192	-0.9664	-1.6413	-0.0114	-0.0291	-0.0518	15.6824	-16.5160	15.0625	-0.3312	-0.6103	-0.4613	0.5523
8.81	-9.5276	-0.9628	-1.6368	-0.0134	-0.0189	-0.0563	15.9623	-16.7259	15.0598	-0.3313	-0.6103	-0.4613	0.5524
8.82	-9.5158	-0.9700	-1.6351	-0.0147	-0.0290	-0.0579	15.6983	-16.6712	15.2410	-0.3312	-0.6102	-0.4612	0.5524
8.83	-9.5235	-0.9770	-1.6263	-0.0241	-0.0231	-0.0592	15.8618	-16.5555	15.1913	-0.3313	-0.6102	-0.4613	0.5525
8.84	-9.5351	-0.9929	-1.6325	-0.0254	-0.0275	-0.0615	16.2361	-16.5324	15.4062	-0.3314	-0.6101	-0.4613	0.5525
8.85	-9.5562	-0.9925	-1.6167	-0.0266	-0.0283	-0.0590	16.0312	-16.4578	15.3278	-0.3314	-0.6100	-0.4613	0.5526
8.86	-9.5552	-1.0093	-1.6320	-0.0285	-0.0341	-0.0608	15.8832	-16.6943	15.2771	-0.3315	-0.6099	-0.4613	0.5526
8.87	-9.5138	-0.9973	-1.6106	-0.0271	-0.0396	-0.0565	15.5867	-16.6958	15.1826	-0.3316	-0.6098	-0.4613	0.5527
8.88	-9.4979	-1.0313	-1.6106	-0.0324	-0.0292	-0.0653	15.4694	-16.6752	15.0906	-0.3316	-0.6097	-0.4614	0.5527
8.89	-9.4722	-1.0479	-1.6147	-0.0308	-0.0340	-0.0623	15.5255	-16.5384	15.1304	-0.3317	-0.6095	-0.4614	0.5527
8.9	-9.5024	-1.0588	-1.6100	-0.0317	-0.0277	-0.0552	15.4003	-16.5571	14.9819	-0.3318	-0.6095	-0.4614	0.5528
8.91	-9.4673	-1.0696	-1.6193	-0.0313	-0.0289	-0.0505	15.4036	-16.5428	15.0542	-0.3319	-0.6093	-0.4614	0.5528
8.92	-9.5270	-1.0768	-1.6019	-0.0262	-0.0192	-0.0423	15.4912	-16.5628	14.9197	-0.3320	-0.6094	-0.4614	0.5529
8.93	-9.5206	-1.0720	-1.6379	-0.0287	-0.0180	-0.0451	15.5093	-16.5348	15.0167	-0.3320	-0.6093	-0.4614	0.5528
8.94	-9.5198	-1.0649	-1.6001	-0.0219	-0.0230	-0.0471	15.3992	-16.4607	15.1377	-0.3321	-0.6093	-0.4614	0.5528
8.95	-9.5296	-1.0744	-1.6201	-0.0128	-0.0240	-0.0498	15.5972	-16.4292	15.0778	-0.3322	-0.6092	-0.4613	0.5529
8.96	-9.5193	-1.0558	-1.6107	-0.0076	-0.0371	-0.0532	15.5948	-16.6192	15.1939	-0.3322	-0.6091	-0.4613	0.5530
8.97	-9.4980	-1.0331	-1.5994	-0.0035	-0.0329	-0.0476	15.5872	-16.7406	15.3276	-0.3322	-0.6092	-0.4612	0.5531
8.98	-9.4991	-1.0246	-1.5973	0.0049	-0.0237	-0.0403	15.6139	-16.7358	14.9651	-0.3322	-0.6091	-0.4611	0.5531
8.99	-9.4953	-0.9998	-1.6042	0.0038	-0.0256	-0.0413	15.7698	-16.8962	14.9671	-0.3323	-0.6092	-0.4610	0.5533
9	-9.4718	-0.9773	-1.5956	0.0004	-0.0336	-0.0446	15.7726	-16.9848	15.1653	-0.3322	-0.6091	-0.4608	0.5533
9.01	-9.4835	-0.9715	-1.5878	-0.0023	-0.0216	-0.0474	15.7626	-16.8840	14.9575	-0.3323	-0.6091	-0.4608	0.5534
9.02	-9.4948	-0.9710	-1.6041	-0.0060	-0.0180	-0.0490	15.6091	-16.7213	15.1282	-0.3323	-0.6091	-0.4607	0.5534
9.03	-9.4883	-0.9666	-1.5958	-0.0091	-0.0160	-0.0419	15.5851	-16.4967	15.0088	-0.3323	-0.6091	-0.4607	0.5535
9.04	-9.5072	-0.9610	-1.5840	-0.0037	-0.0126	-0.0429	15.5990	-16.7815	15.0498	-0.3323	-0.6092	-0.4606	0.5535
9.05	-9.5284	-0.9663	-1.5938	-0.0096	-0.0128	-0.0403	15.7179	-16.9113	15.1005	-0.3323	-0.6092	-0.4605	0.5535
9.06	-9.5311	-0.9710	-1.5958	-0.0139	-0.0114	-0.0403	15.6140	-16.5080	15.2110	-0.3324	-0.6092	-0.4605	0.5535
9.07	-9.5239	-0.9727	-1.5966	-0.0135	-0.0108	-0.0476	15.5765	-16.6641	15.0817	-0.3323	-0.6092	-0.4604	0.5535
9.08	-9.5274	-0.9776	-1.6013	-0.0197	-0.0122	-0.0507	15.6146	-16.5927	15.1855	-0.3324	-0.6092	-0.4605	0.5535
9.09	-9.5199	-0.9828	-1.6001	-0.0186	-0.0099	-0.0554	15.5515	-16.4224	15.2400	-0.3324	-0.6092	-0.4605	0.5535
9.1	-9.5351	-0.9816	-1.6028	-0.0265	-0.0053	-0.0552	15.4652	-16.7474	15.0432	-0.3324	-0.6092	-0.4605	0.5535
9.11	-9.4959	-0.9836	-1.6061	-0.0263	-0.0156	-0.0564	15.6351	-16.7106	15.2495	-0.3324	-0.6091	-0.4605	0.5535
9.12	-9.5589	-0.9717	-1.5787	-0.0199	-0.0086	-0.0545	15.4078	-16.6176	14.9286	-0.3324	-0.6091	-0.4606	0.5535
9.13	-9.6022	-0.9868	-1.6165	-0.0228	-0.0066	-0.0654	15.3141	-16.6583	15.3308	-0.3324	-0.6091	-0.4606	0.5535
9.14	-9.5413	-0.9745	-1.5885	-0.0206	-0.0351	-0.0657	15.6362	-16.5442	15.1198	-0.3324	-0.6089	-0.4606	0.5535
9.15	-9.5642	-0.9804	-1.5774	-0.0136	-0.0238	-0.0650	15.5526	-16.6442	14.9902	-0.3325	-0.6090	-0.4607	0.5537
9.16	-9.5571	-0.9996	-1.6005	-0.0280	-0.0265	-0.0716	15.8245	-16.7960	15.0495	-0.3325	-0.6088	-0.4607	0.5537
9.17	-9.5313	-0.9949	-1.5712	-0.0182	-0.0380	-0.0596	15.8136	-16.8058	14.9907	-0.3325	-0.6088	-0.4607	0.5538
9.18	-9.5318	-0.9942	-1.5737	-0.0217	-0.0196	-0.0635	15.6686	-16.8329	15.1533	-0.3325	-0.6086	-0.4607	0.5538
9.19	-9.5460	-0.9900	-1.5784	-0.0248	-0.0211	-0.0613	15.6635	-16.7596	15.0649	-0.3326	-0.6086	-0.4608	0.5539
9.2	-9.5441	-0.9912	-1.5697	-0.0273	-0.0313	-0.0700	15.7601	-16.5775	15.2252	-0.3326	-0.6085	-0.4608	0.5539
9.21	-9.5459	-1.0058	-1.5657	-0.0239	-0.0281	-0.0785	15.6897	-16.7311	15.0337	-0.3326	-0.6083	-0.4608	0.5540
9.22	-9.5488	-1.0202	-1.5611	-0.0248	-0.0281	-0.0766	15.7847	-16.7355	14.9330	-0.3326	-0.6082	-0.4610	0.5541
9.23	-9.5373	-1.0232	-1.5558	-0.0269	-0.0341	-0.0797	15.8783	-16.6862	14.8762	-0.3326	-0.6080	-0.4610	0.5542
9.24	-9.5297	-1.0168	-1.5502	-0.0343	-0.0344	-0.0675	15.6519	-16.6155	14.8811	-0.3327	-0.6079	-0.4611	0.5543
9.25	-9.5288	-1.0293	-1.5495	-0.0340	-0.0347	-0.0686	15.7111	-16.6539	15.0159	-0.3327	-0.6077	-0.4611	0.5543
9.26	-9.5267	-1.0359	-1.5515	-0.0419	-0.0380	-0.0715	15.7505	-16.5034	15.1868	-0.3329	-0.6076	-0.4612	0.5544
9.27	-9.5063	-1.0406	-1.5422	-0.0405	-0.0273	-0.0662	15.6795	-16.4444	15.2746	-0.3329	-0.6075	-0.4613	0.5544
9.28	-9.5133	-1.0509	-1.5393	-0.0390	-0.0238	-0.0616	15.6186	-16.7734	14.8701	-0.3330	-0.6074	-0.4613	0.5544
9.29	-9.5182	-1.0645	-1.5436	-0.0503	-0.0299	-0.0632	15.4853	-16.4873	15.0603	-0.3331	-0.6072	-0.4614	0.5544
9.3	-9.5104	-1.0744	-1.5375	-0.0498	-0.0327	-0.0624	15.5111	-16.5132	15.1084	-0.3333	-0.6071	-0.4615	0.5544
9.31	-9.5067	-1.0845	-1.5358	-0.0345	-0.0249	-0.0564	15.7443	-16.7032	14.9101	-0.3334	-0.6070	-0.4616	0.5545
9.32	-9.5216	-1.0919	-1.5360	-0.0235	-0.0271	-0.0544	15.7783	-16.5165	15.0122	-0.3334	-0.6069	-0.4615	0.5544
9.33	-9.5338	-1.0958	-1.5377	-0.0246	-0.0181	-0.0462	15.8866	-16.5620	15.2459	-0.3335	-0.6069	-0.4616	0.5545
9.34	-9.5115	-1.0897	-1.5320	-0.0225	-0.0276	-0.0471	16.1479	-16.6917	15.3485	-0.3336	-0.6068	-0.4615	0.5545
9.35	-9.5176	-1.0849	-1.5272	-0.0168	-0.0326	-0.0517	16.0690	-16.7346	15.1548	-0.3336	-0.6068	-0.4615	0.5546
9.36	-9.5247	-1.0776	-1.5379	-0.0109	-0.0244	-0.0533	16.0453	-16.6755	14.9877	-0.3336	-0.6067	-0.4614	0.5546
9.37	-9.4973	-1.0630	-1.5288	-0.0087	-0.0260	-0.0507	15.7460	-16.5977	14.9303	-0.3337	-0.6067	-0.4614	0.5547
9.38	-9.4836	-1.0603	-1.5192	-0.0078	-0.0168	-0.0511	15.7210	-16.6485	14.8371	-0.3337	-0.6067	-0.4614	0.5548
9.39	-9.4780	-1.0521	-1.5327	-0.0014	-0.0122	-0.0414	15.7274	-16.6685	14.8682	-0.3336	-0.6067	-0.4612	0.5547
9.4	-9.4630	-1.0359	-1.5278	-0.0002	-0.0110	-0.0448	15.9452	-16.5340	14.8515	-0.3337	-0.6068	-0.4612	0.5548
9.41	-9.4608	-1.0275	-1.5273	-0.0010	-0.0078	-0.0407	15.8767	-16.7542	14.8625	-0.3336	-0.6068	-0.4611	0.5548
9.42	-9.4623	-1.0222	-1.5365	-0.0005	-0.0020	-0.0392	15.7385	-16.6632	14.8619	-0.3336	-0.6069	-0.4611	0.5549
9.43	-9.4671	-1.0145	-1.5331	-0.0017	-0.0045	-0.0392	15.6447	-16.6667	14.8488	-0.3335	-0.6069	-0.4610	0.5548
9.44	-9.4695	-1.0038	-1.5398	-0.0055	0.0067	-0.0409	15.6252	-16.4994	14.8728	-0.3335	-0.6070	-0.4610	0.5548
9.45	-9.4799	-1.0030	-1.5453	-0.0044	0.0126	-0.0443	15.6937	-16.5272	14.9944	-0.3335	-0.6071	-0.4609	0.5547
9.46	-9.5077	-1.0042	-1.5552	-0.0052	0.0163	-0.0336	15.8141	-16.5755	14.8343	-0.3334	-0.6072	-0.4609	0.5546
9.47	-9.5213	-0.9993	-1.5606	0.0006	0.0175	-0.0380	15.8502	-16.5731	14.9767	-0.3334	-0.6074	-0.4609	0.5546
9.48	-9.5339	-0.9956	-1.5622	-0.0109	0.0141	-0.0411	15.7506	-16.6702	15.0660	-0.3333	-0.6075	-0.4608	0.5545
9.49	-9.5638	-0.9993	-1.5763	-0.0049	0.0123	-0.0402	15.5688	-16.6639	15.0245	-0.3333	-0.6076	-0.4608	0.5545
9.5	-9.5596	-0.9967	-1.5844	-0.0037	0.0080	-0.0420	15.8579	-16.5567	15.0605	-0.3332	-0.6076	-0.4607	0.5544
9.51	-9.5576	-0.9903	-1.5806	-0.0079	0.0087	-0.0406	15.7996	-16.4713	15.0061	-0.3332	-0.6078	-0.4608	0.5544
9.52	-9.5892	-0.9892	-1.5797	0.0003	0.0053	-0.0502	15.6738	-16.6141	14.9307	-0.3331	-0.6078	-0.4607	0.5543
9.53	-9.5902	-0.9833	-1.5899	0.0003	-0.0058	-0.0482	15.6012	-16.5120	14.9587	-0.3331	-0.6079	-0.4607	0.5543
9.54	-9.5682	-0.9751	-1.5771	-0.0047	-0.0137	-0.0502	15.8746	-16.8067	14.8562	-0.3331	-0.6079	-0.4606	0.5544
9.55	-9.5804	-0.9707	-1.5750	-0.0012	-0.0113	-0.0535	15.7523	-16.6626	14.8431	-0.3330	-0.6079	-0.4606	0.5544
9.56	-9.5769	-0.9671	-1.5798	-0.0082	-0.0182	-0.0586	15.7871	-16.7186	14.9247	-0.3330	-0.6079	-0.4606	0.5545
9.57	-9.5549	-0.9514	-1.5565	-0.0136	-0.0209	-0.0557	15.7749	-16.7376	14.9685	-0.3330	-0.6078	-0.4605	0.5545
9.58	-9.5509	-0.9608	-1.5554	-0.0210	-0.0175	-0.0601	15.5648	-16.7713	14.9402	-0.3330	-0.6078	-0.4606	0.5546
9.59	-9.5330	-0.9684	-1.5564	-0.0285	-0.0196	-0.0639	15.7787	-16.6497	14.9592	-0.3331	-0.6077	-0.4606	0.5546
9.6	-9.5196	-0.9668	-1.5458	-0.0256	-0.0231	-0.0622	16.0658	-16.5146	14.9475	-0.3331	-0.6077	-0.4606	0.5547
9.61	-9.5179	-0.9793	-1.5481	-0.0262	-0.0285	-0.0609	15.7641	-16.6861	14.8637	-0.3331	-0.6075	-0.4606	0.5547
9.62	-9.5101	-0.9935	-1.5446	-0.0307	-0.0272	-0.0650	16.0064	-16.5116	14.9631	-0.3332	-0.6074	-0.4607	0.5547
9.63	-9.5038	-1.0057	-1.5360	-0.0523	-0.0214	-0.0672	15.9156	-16.6302	14.9526	-0.3333	-0.6073	-0.4608	0.5547
9.64	-9.5011	-1.0230	-1.5345	-0.0397	-0.0196	-0.0680	15.6140	-16.7369	14.9382	-0.3333	-0.6072	-0.4609	0.5547
9.65	-9.5076	-1.0379	-1.5341	-0.0448	-0.0158	-0.0569	15.6512	-16.7567	14.9794	-0.3335	-0.6072	-0.4610	0.5547
9.66	-9.5034	-1.0541	-1.5391	-0.0445	-0.0165	-0.0568	15.6399	-16.5626	15.0367	-0.3335	-0.6070	-0.4611	0.5547
9.67	-9.5037	-1.0663	-1.5356	-0.0477	-0.0139	-0.0529	15.6447	-16.6290	14.8440	-0.3337	-0.6070	-0.4612	0.5547
9.68	-9.5218	-1.0808	-1.5280	-0.0393	-0.0058	-0.0577	15.6415	-16.7568	14.8589	-0.3337	-0.6069	-0.4612	0.5545
9.69	-9.5471	-1.0898	-1.5380	-0.0240	-0.0025	-0.0552	15.6414	-16.5134	14.9856	-0.3337	-0.6069	-0.4613	0.5545
9.7	-9.5349	-1.0886	-1.5366	-0.0242	-0.0067	-0.0468	15.8380	-16.7892	14.8833	-0.3338	-0.6069	-0.4613	0.5545
9.71	-9.5159	-1.0841	-1.5271	-0.0189	-0.0103	-0.0412	15.7198	-16.5700	14.8551	-0.3338	-0.6069	-0.4612	0.5545
9.72	-9.5248	-1.0697	-1.5282	-0.0071	-0.0128	-0.0377	15.8499	-16.5562	14.7491	-0.3339	-0.6070	-0.4612	0.5545
9.73	-9.5524	-1.0538	-1.5290	-0.0006	-0.0092	-0.0465	16.0525	-16.7161	14.7865	-0.3338	-0.6070	-0.4611	0.5545
9.74	-9.5327	-1.0403	-1.5225	-0.0012	-0.0117	-0.0539	15.7071	-16.5399	14.7235	-0.3338	-0.6070	-0.4611	0.5546
9.75	-9.5163	-1.0350	-1.5215	0.0015	-0.0055	-0.0445	15.8320	-16.6848	14.9699	-0.3337	-0.6070	-0.4610	0.5545
9.76	-9.5454	-1.0329	-1.5319	-0.0005	-0.0055	-0.0471	15.9169	-16.5937	15.0436	-0.3337	-0.6071	-0.4610	0.5546
9.77	-9.5297	-1.0116	-1.5210	0.0003	-0.0090	-0.0509	15.7642	-16.6269	14.7196	-0.3337	-0.6071	-0.4609	0.5546
9.78	-9.5359	-1.0010	-1.5086	0.0011	-0.0050	-0.0482	15.9286	-16.5864	14.8630	-0.3336	-0.6072	-0.4608	0.5547
9.79	-9.5171	-1.0105	-1.5298	-0.0024	-0.0073	-0.0492	15.8936	-16.5602	14.9407	-0.3336	-0.6072	-0.4608	0.5547
9.8	-9.4860	-0.9952	-1.5083	-0.0034	-0.0119	-0.0462	15.8075	-16.8055	14.9886	-0.3336	-0.6072	-0.4607	0.5547
9.81	-9.4569	-0.9956	-1.5237	-0.0124	-0.0035	-0.0476	15.8145	-16.6731	14.8552	-0.3336	-0.6073	-0.4607	0.5547
9.82	-9.4541	-0.9971	-1.5243	-0.0119	0.0033	-0.0450	15.8880	-16.5511	14.9372	-0.3335	-0.6073	-0.4607	0.5546
9.83	-9.4801	-1.0106	-1.5355	-0.0139	0.0172	-0.0457	16.2610	-16.5832	15.2818	-0.3335	-0.6074	-0.4608	0.5546
9.84	-9.4889	-1.0030	-1.5484	-0.0204	0.0116	-0.0454	16.2523	-16.3309	15.0411	-0.3334	-0.6075	-0.4608	0.5545
9.85	-9.5022	-0.9938	-1.5423	-0.0129	0.0192	-0.0466	16.0349	-16.3713	15.0093	-0.3334	-0.6076	-0.4608	0.5544
9.86	-9.5158	-1.0001	-1.5518	-0.0209	0.0257	-0.0524	15.8379	-16.5874	15.0509	-0.3333	-0.6076	-0.4608	0.5543
9.87	-9.5101	-0.9981	-1.5613	-0.0175	0.0199	-0.0586	15.6378	-16.4216	14.9482	-0.3333	-0.6077	-0.4609	0.5542
9.88	-9.5111	-1.0015	-1.5711	-0.0165	0.0205	-0.0694	15.7554	-16.4731	14.7440	-0.3332	-0.6078	-0.4610	0.5542
9.89	-9.5222	-1.0018	-1.5823	-0.0210	0.0216	-0.0581	15.7734	-16.7597	15.0250	-0.3331	-0.6078	-0.4611	0.5540
9.9	-9.5275	-0.9946	-1.5862	-0.0185	0.0142	-0.0533	15.8892	-16.5852	15.0018	-0.3331	-0.6079	-0.4612	0.5540
9.91	-9.5308	-0.9864	-1.5898	-0.0268	0.0179	-0.0560	15.8166	-16.5730	15.1639	-0.3330	-0.6079	-0.4612	0.5539
9.92	-9.5490	-0.9894	-1.5927	-0.0197	0.0203	-0.0547	15.7556	-16.9347	14.9427	-0.3330	-0.6080	-0.4613	0.5539
9.93	-9.5645	-0.9930	-1.6044	-0.0249	0.0164	-0.0574	15.7722	-16.7929	14.9025	-0.3329	-0.6080	-0.4613	0.5537
9.94	-9.5582	-0.9985	-1.6080	-0.0284	0.0163	-0.0582	15.9036	-16.7145	14.9264	-0.3329	-0.6080	-0.4615	0.5537
9.95	-9.5487	-1.0115	-1.6055	-0.0357	0.0034	-0.0604	15.9731	-16.8870	14.9153	-0.3329	-0.6080	-0.4616	0.5536
9.96	-9.5699	-1.0249	-1.6130	-0.0411	0.0075	-0.0545	15.8916	-16.6124	14.9177	-0.3329	-0.6080	-0.4616	0.5535
9.97	-9.5648	-1.0305	-1.6219	-0.0437	-0.0049	-0.0603	15.6238	-16.6623	14.9121	-0.3330	-0.6080	-0.4618	0.5535
9.98	-9.5417	-1.0378	-1.6056	-0.0368	-0.0054	-0.0585	15.7642	-16.8663	14.9217	-0.3330	-0.6079	-0.4618	0.5534
9.99	-9.5506	-1.0534	-1.6149	-0.0336	-0.0035	-0.0586	15.7057	-16.7460	14.9167	-0.3330	-0.6079	-0.4620	0.5534
10	-9.5427	-1.0653	-1.6207	-0.0279	-0.0101	-0.0565	15.6751	-16.6243	14.9072	-0.3330	-0.6078	-0.4619	0.5533
10.01	-9.5545	-1.0649	-1.6113	-0.0257	-0.0110	-0.0558	15.8956	-16.5398	15.0361	-0.3331	-0.6078	-0.4620	0.5533
10.02	-9.5285	-1.0729	-1.6192	-0.0281	-0.0047	-0.0545	15.5331	-16.5340	14.9683	-0.3331	-0.6078	-0.4620	0.5533
10.03	-9.4922	-1.0553	-1.5883	-0.0252	-0.0077	-0.0549	15.7203	-16.6301	15.1030	-0.3331	-0.6078	-0.4621	0.5533
10.04	-9.5948	-1.0504	-1.5957	-0.0146	-0.0002	-0.0610	15.5507	-16.6329	15.0888	-0.3331	-0.6078	-0.4621	0.5533
10.05	-9.5543	-1.0400	-1.6139	-0.0091	-0.0152	-0.0648	15.6578	-16.6568	14.9832	-0.3331	-0.6077	-0.4621	0.5533
10.06	-9.5054	-1.0180	-1.5566	-0.0143	-0.0221	-0.0609	15.4323	-16.5682	15.0176	-0.3331	-0.6077	-0.4621	0.5534
10.07	-9.5349	-1.0343	-1.5887	-0.0223	-0.0066	-0.0737	15.4912	-16.5491	14.9309	-0.3330	-0.6076	-0.4622	0.5534
10.08	-9.5281	-1.0341	-1.5892	-0.0233	-0.0199	-0.0605	15.7151	-16.5330	14.7533	-0.3331	-0.6076	-0.4622	0.5535
10.09	-9.4975	-1.0166	-1.5697	-0.0213	-0.0269	-0.0533	15.7134	-16.4512	14.7717	-0.3331	-0.6075	-0.4622	0.5535
10.1	-9.5095	-1.0129	-1.5626	-0.0212	-0.0164	-0.0527	15.8033	-16.7170	14.8334	-0.3331	-0.6075	-0.4622	0.5535
10.11	-9.5434	-1.0095	-1.5755	-0.0263	-0.0081	-0.0537	15.7550	-16.8303	14.8408	-0.3332	-0.6074	-0.4622	0.5535
10.12	-9.5374	-1.0122	-1.5713	-0.0257	-0.0174	-0.0616	15.7792	-16.7909	14.7779	-0.3332	-0.6074	-0.4623	0.5535
10.13	-9.5413	-1.0287	-1.5620	-0.0266	-0.0160	-0.0660	15.7772	-16.8725	14.9775	-0.3332	-0.6073	-0.4623	0.5535
10.14	-9.5388	-1.0436	-1.5640	-0.0263	-0.0109	-0.0670	15.7016	-16.9207	14.9489	-0.3332	-0.6072	-0.4624	0.5535
10.15	-9.5230	-1.0441	-1.5577	-0.0264	-0.0301	-0.0581	15.5530	-16.7868	14.8002	-0.3333	-0.6072	-0.4624	0.5536
10.16	-9.5144	-1.0459	-1.5504	-0.0286	-0.0189	-0.0531	15.7991	-16.6875	14.9706	-0.3333	-0.6071	-0.4624	0.5536
10.17	-9.5142	-1.0539	-1.5511	-0.0259	-0.0225	-0.0496	15.6698	-16.8100	14.8418	-0.3334	-0.6071	-0.4625	0.5537
10.18	-9.4982	-1.0610	-1.5482	-0.0256	-0.0215	-0.0510	15.7951	-16.8157	14.7107	-0.3335	-0.6070	-0.4624	0.5536
10.19	-9.4945	-1.0622	-1.5468	-0.0279	-0.0095	-0.0458	15.8400	-16.6977	14.8904	-0.3335	-0.6070	-0.4624	0.5536
10.2	-9.4937	-1.0629	-1.5422	-0.0272	-0.0128	-0.0464	15.5933	-16.3701	14.8718	-0.3336	-0.6070	-0.4625	0.5536
10.21	-9.4965	-1.0675	-1.5447	-0.0259	-0.0115	-0.0436	15.5158	-16.5070	14.7626	-0.3336	-0.6069	-0.4624	0.5535
10.22	-9.5037	-1.0709	-1.5484	-0.0268	-0.0057	-0.0459	15.5974	-16.7861	15.0805	-0.3337	-0.6070	-0.4625	0.5536
10.23	-9.5141	-1.0732	-1.5457	-0.0225	-0.0005	-0.0427	15.6001	-16.5244	14.9215	-0.3337	-0.6070	-0.4625	0.5535
10.24	-9.5214	-1.0696	-1.5488	-0.0241	-0.0021	-0.0435	15.8280	-16.4118	14.9615	-0.3338	-0.6070	-0.4625	0.5535
10.25	-9.5177	-1.0643	-1.5468	-0.0197	-0.0078	-0.0425	15.4785	-16.6522	15.1076	-0.3338	-0.6070	-0.4624	0.5534
10.26	-9.5265	-1.0519	-1.5445	-0.0178	-0.0061	-0.0451	15.5328	-16.7406	15.1097	-0.3338	-0.6070	-0.4624	0.5534
10.27	-9.5204	-1.0397	-1.5424	-0.0115	-0.0070	-0.0381	15.6091	-16.5545	14.8674	-0.3339	-0.6071	-0.4624	0.5534
10.28	-9.5100	-1.0233	-1.5309	-0.0041	-0.0118	-0.0360	15.6369	-16.8443	14.8090	-0.3339	-0.6071	-0.4623	0.5534
10.29	-9.5078	-1.0092	-1.5318	-0.0001	-0.0070	-0.0403	15.9027	-16.6805	14.8236	-0.3339	-0.6072	-0.4622	0.5534
10.3	-9.5011	-0.9938	-1.5358	-0.0045	-0.0069	-0.0432	16.1081	-16.6716	14.8448	-0.3338	-0.6072	-0.4622	0.5534
10.31	-9.4949	-0.9783	-1.5356	-0.0034	-0.0051	-0.0462	15.9008	-16.9217	14.7686	-0.3338	-0.6073	-0.4621	0.5534
10.32	-9.4952	-0.9736	-1.5379	-0.0038	-0.0063	-0.0460	15.8144	-16.8991	15.1316	-0.3338	-0.6072	-0.4620	0.5534
10.33	-9.4930	-0.9647	-1.5440	-0.0142	-0.0002	-0.0471	16.2288	-16.7727	15.0661	-0.3338	-0.6073	-0.4621	0.5534
10.34	-9.5039	-0.9637	-1.5453	-0.0163	0.0049	-0.0519	16.3472	-16.5465	15.0371	-0.3337	-0.6074	-0.4621	0.5534
10.35	-9.5056	-0.9713	-1.5569	-0.0257	0.0112	-0.0546	16.2099	-16.5226	15.1209	-0.3337	-0.6074	-0.4621	0.5533
10.36	-9.5174	-0.9754	-1.5634	-0.0271	0.0143	-0.0558	15.9459	-16.4846	15.0520	-0.3337	-0.6074	-0.4622	0.5532
10.37	-9.5385	-0.9860	-1.5808	-0.0257	0.0101	-0.0587	15.8525	-16.7027	14.8584	-0.3337	-0.6074	-0.4623	0.5531
10.38	-9.5472	-0.9852	-1.5876	-0.0310	0.0108	-0.0586	15.7056	-16.6934	14.9731	-0.3337	-0.6075	-0.4624	0.5531
10.39	-9.5535	-1.0026	-1.5963	-0.0331	0.0113	-0.0639	15.5181	-16.5696	15.0724	-0.3336	-0.6074	-0.4625	0.5530
10.4	-9.5651	-1.0198	-1.6101	-0.0427	0.0082	-0.0644	15.7792	-16.5624	14.9101	-0.3337	-0.6074	-0.4627	0.5529
10.41	-9.5604	-1.0222	-1.6138	-0.0325	-0.0029	-0.0653	15.8456	-16.4417	14.7958	-0.3336	-0.6074	-0.4627	0.5529
10.42	-9.5511	-1.0324	-1.6099	-0.0338	-0.0051	-0.0644	15.7561	-16.5724	15.0208	-0.3337	-0.6074	-0.4629	0.5529
10.43	-9.5527	-1.0426	-1.6182	-0.0348	-0.0024	-0.0649	15.6288	-16.4872	14.9502	-0.3336	-0.6072	-0.4629	0.5528
10.44	-9.5474	-1.0527	-1.6221	-0.0303	-0.0056	-0.0632	15.6413	-16.5837	14.9364	-0.3337	-0.6072	-0.4630	0.5528
10.45	-9.5242	-1.0597	-1.6132	-0.0275	-0.0069	-0.0555	15.8547	-16.5690	15.1359	-0.3337	-0.6072	-0.4630	0.5528
10.46	-9.5230	-1.0608	-1.6117	-0.0334	-0.0089	-0.0529	15.9630	-16.5599	15.0698	-0.3337	-0.6071	-0.4631	0.5527
10.47	-9.5289	-1.0712	-1.6153	-0.0273	-0.0073	-0.0573	15.6555	-16.5867	14.7926	-0.3338	-0.6072	-0.4632	0.5528
10.48	-9.5287	-1.0711	-1.6156	-0.0280	-0.0078	-0.0543	15.9699	-16.6833	14.7778	-0.3338	-0.6071	-0.4632	0.5527
10.49	-9.5135	-1.0728	-1.6040	-0.0283	-0.0100	-0.0545	15.9336	-16.8850	14.9589	-0.3339	-0.6071	-0.4632	0.5527
10.5	-9.5061	-1.0745	-1.6065	-0.0269	-0.0049	-0.0513	15.9098	-16.9611	14.8786	-0.3338	-0.6070	-0.4632	0.5526
10.51	-9.5018	-1.0728	-1.6099	-0.0196	-0.0049	-0.0493	15.7611	-16.6515	14.8079	-0.3339	-0.6071	-0.4633	0.5526
10.52	-9.4918	-1.0650	-1.6006	-0.0159	-0.0041	-0.0436	15.5969	-16.7195	14.7840	-0.3339	-0.6071	-0.4632	0.5526
10.53	-9.5054	-1.0575	-1.6035	-0.0232	-0.0102	-0.0425	15.6616	-16.7541	14.9536	-0.3339	-0.6071	-0.4632	0.5526
10.54	-9.5160	-1.0497	-1.6067	-0.0113	-0.0081	-0.0425	15.6295	-16.7526	14.9559	-0.3340	-0.6071	-0.4632	0.5526
10.55	-9.5285	-1.0368	-1.5993	-0.0062	-0.0115	-0.0393	15.6405	-16.7195	15.0540	-0.3340	-0.6071	-0.4631	0.5526
10.56	-9.5594	-1.0299	-1.5955	-0.0063	-0.0083	-0.0400	15.6756	-16.6233	15.0470	-0.3340	-0.6072	-0.4631	0.5526
10.57	-9.5656	-1.0219	-1.5935	-0.0044	-0.0037	-0.0504	15.8521	-16.6997	14.9409	-0.3339	-0.6072	-0.4630	0.5526
10.58	-9.5508	-1.0161	-1.5934	-0.0097	-0.0153	-0.0454	15.7850	-16.3928	14.9526	-0.3340	-0.6072	-0.4630	0.5527
10.59	-9.5219	-0.9987	-1.5898	-0.0010	-0.0126	-0.0413	15.7283	-16.4545	14.8951	-0.3339	-0.6072	-0.4629	0.5527
10.6	-9.5290	-0.9755	-1.5829	-0.0022	-0.0140	-0.0424	15.6857	-16.4764	14.8168	-0.3340	-0.6073	-0.4628	0.5527
10.61	-9.5109	-0.9655	-1.5816	-0.0096	-0.0155	-0.0444	15.4264	-16.5903	14.9566	-0.3340	-0.6073	-0.4627	0.5527
10.62	-9.4972	-0.9723	-1.5681	-0.0147	-0.0112	-0.0527	15.6055	-16.7822	15.0783	-0.3340	-0.6073	-0.4627	0.5528
10.63	-9.5354	-0.9927	-1.5794	-0.0220	0.0008	-0.0573	15.4879	-16.5431	14.9565	-0.3340	-0.6073	-0.4628	0.5528
10.64	-9.5364	-0.9985	-1.5866	-0.0223	-0.0130	-0.0488	15.7581	-16.6588	14.9445	-0.3340	-0.6072	-0.4628	0.5527
10.65	-9.5544	-0.9961	-1.5670	-0.0200	-0.0188	-0.0395	15.6898	-16.6664	14.9292	-0.3341	-0.6073	-0.4628	0.5528
10.66	-9.5801	-1.0129	-1.5854	-0.0283	-0.0061	-0.0415	15.8257	-16.7880	15.0013	-0.3341	-0.6072	-0.4627	0.5527
10.67	-9.5640	-1.0208	-1.5789	-0.0254	-0.0228	-0.0402	15.9451	-16.6602	15.0186	-0.3342	-0.6073	-0.4628	0.5527
10.68	-9.5202	-1.0233	-1.5753	-0.0234	-0.0306	-0.0477	15.8220	-16.6624	14.7186	-0.3343	-0.6071	-0.4627	0.5527
10.69	-9.4931	-1.0383	-1.5776	-0.0268	-0.0260	-0.0526	15.6567	-16.5341	14.6605	-0.3344	-0.6071	-0.4627	0.5528
10.7	-9.5030	-1.0455	-1.5779	-0.0210	-0.0214	-0.0479	15.9001	-16.6387	14.8772	-0.3344	-0.6070	-0.4627	0.5528
10.71	-9.5037	-1.0491	-1.5781	-0.0262	-0.0164	-0.0420	15.7605	-16.6602	15.0721	-0.3345	-0.6070	-0.4626	0.5528
10.72	-9.5099	-1.0352	-1.5762	-0.0153	-0.0189	-0.0440	15.5309	-16.6714	14.9071	-0.3346	-0.6071	-0.4627	0.5529
10.73	-9.5290	-1.0243	-1.5799	-0.0085	-0.0107	-0.0395	15.9337	-16.4873	14.6952	-0.3346	-0.6070	-0.4625	0.5528
10.74	-9.5401	-1.0172	-1.5791	-0.0151	-0.0295	-0.0478	15.7019	-16.5431	14.8544	-0.3346	-0.6070	-0.4625	0.5529
10.75	-9.5339	-1.0101	-1.5674	-0.0012	-0.0253	-0.0530	15.7539	-16.6478	14.8430	-0.3346	-0.6069	-0.4624	0.5529
10.76	-9.5260	-1.0029	-1.5719	-0.0044	-0.0123	-0.0581	15.5902	-16.8190	14.8749	-0.3346	-0.6070	-0.4624	0.5530
10.77	-9.5304	-0.9876	-1.5604	-0.0105	-0.0216	-0.0592	15.7086	-16.7560	14.9892	-0.3346	-0.6069	-0.4624	0.5531
10.78	-9.5062	-0.9841	-1.5697	-0.0169	-0.0246	-0.0556	15.7452	-16.5568	14.8427	-0.3346	-0.6068	-0.4624	0.5531
10.79	-9.4914	-0.9688	-1.5499	-0.0164	-0.0264	-0.0540	15.6287	-16.4698	14.9425	-0.3346	-0.6068	-0.4624	0.5532
10.8	-9.5162	-0.9776	-1.5603	-0.0140	-0.0198	-0.0561	15.7770	-16.5199	14.9571	-0.3346	-0.6067	-0.4623	0.5533
10.81	-9.5056	-0.9749	-1.5606	-0.0261	-0.0182	-0.0560	15.6580	-16.5784	14.8911	-0.3347	-0.6067	-0.4624	0.5533
10.82	-9.5305	-0.9898	-1.5493	-0.0265	-0.0120	-0.0587	15.6129	-16.6570	14.7346	-0.3347	-0.6066	-0.4624	0.5532
10.83	-9.5342	-0.9964	-1.5709	-0.0314	-0.0195	-0.0523	15.8892	-16.5476	14.9947	-0.3348	-0.6066	-0.4625	0.5533
10.84	-9.5406	-1.0148	-1.5453	-0.0319	-0.0288	-0.0570	16.2182	-16.6069	15.0720	-0.3349	-0.6065	-0.4625	0.5533
10.85	-9.5500	-1.0312	-1.5628	-0.0254	-0.0207	-0.0557	16.0757	-16.7071	14.9382	-0.3349	-0.6064	-0.4625	0.5534
10.86	-9.5523	-1.0371	-1.5456	-0.0282	-0.0276	-0.0536	16.0344	-16.6769	14.8296	-0.3350	-0.6063	-0.4625	0.5534
10.87	-9.5659	-1.0454	-1.5473	-0.0277	-0.0253	-0.0511	15.7803	-16.7495	14.8265	-0.3351	-0.6063	-0.4625	0.5534
10.88	-9.5590	-1.0483	-1.5498	-0.0282	-0.0214	-0.0482	15.8161	-16.7964	14.8641	-0.3351	-0.6062	-0.4625	0.5534
10.89	-9.5500	-1.0511	-1.5396	-0.0257	-0.0309	-0.0540	15.8821	-16.8320	14.7205	-0.3352	-0.6061	-0.4624	0.5534
10.9	-9.4964	-1.0525	-1.5376	-0.0277	-0.0304	-0.0485	15.7548	-16.5749	14.8688	-0.3353	-0.6061	-0.4625	0.5535
10.91	-9.5229	-1.0399	-1.5164	-0.0229	-0.0223	-0.0461	15.7467	-16.6990	14.7602	-0.3354	-0.6060	-0.4624	0.5535
10.92	-9.5919	-1.0410	-1.5383	-0.0116	-0.0176	-0.0560	15.6346	-16.7115	14.7847	-0.3354	-0.6060	-0.4625	0.5536
10.93	-9.5140	-1.0224	-1.5252	-0.0172	-0.0323	-0.0463	15.8055	-16.8245	14.9440	-0.3354	-0.6059	-0.4624	0.5536
10.94	-9.5020	-1.0219	-1.4889	-0.0236	-0.0328	-0.0557	15.6129	-16.6544	15.0456	-0.3355	-0.6059	-0.4624	0.5537
10.95	-9.5185	-1.0388	-1.5154	-0.0129	-0.0199	-0.0603	15.6173	-16.4717	14.9218	-0.3355	-0.6058	-0.4624	0.5538
10.96	-9.5158	-1.0355	-1.5009	-0.0140	-0.0265	-0.0509	15.8052	-16.3640	14.6619	-0.3355	-0.6057	-0.4623	0.5538
10.97	-9.4963	-1.0195	-1.4972	-0.0139	-0.0274	-0.0439	15.6438	-16.4700	15.0045	-0.3356	-0.6058	-0.4623	0.5539
10.98	-9.5051	-1.0101	-1.4971	-0.0167	-0.0233	-0.0456	15.7301	-16.5766	14.7974	-0.3357	-0.6057	-0.4622	0.5539
10.99	-9.5254	-1.0015	-1.5004	-0.0075	-0.0146	-0.0461	15.5643	-16.5113	14.7585	-0.3357	-0.6057	-0.4622	0.5540
11	-9.5204	-1.0002	-1.4892	-0.0163	-0.0184	-0.0542	15.7879	-16.6487	14.9526	-0.3357	-0.6056	-0.4621	0.5539
