time	acceleration_x	acceleration_y	acceleration_z	gyroscope_x	gyroscope_y	gyroscope_z	magnetometer_x	magnetometer_y	magnetometer_z	quaternion_w	quaternion_x	quaternion_y	quaternion_z
0	-9.5967	0.0145	-1.0910	0.0017	-0.0111	0.0118	39.2426	0.2072	8.3805	0.6622	0.0992	0.7380	-0.0840
0.01	-9.6127	0.0174	-1.0891	0.0035	-0.0066	0.0178	39.2857	0.3110	8.1659	0.6622	0.0992	0.7380	-0.0840
0.02	-9.6014	0.0188	-1.0707	-0.0003	-0.0059	0.0101	39.1957	0.2230	8.1605	0.6622	0.0992	0.7381	-0.0840
0.03	-9.5865	0.0221	-1.0768	0.0092	-0.0061	0.0137	39.1747	0.0961	8.1453	0.6620	0.0992	0.7380	-0.0840
0.04	-9.6109	0.0284	-1.0801	0.0032	-0.0059	0.0116	39.2672	0.2240	8.2848	0.6621	0.0992	0.7381	-0.0840
0.05	-9.6069	0.0124	-1.0713	0.0090	-0.0116	0.0144	39.2737	0.4567	8.4946	0.6621	0.0992	0.7381	-0.0840
0.06	-9.6027	0.0191	-1.0662	0.0125	-0.0166	0.0166	39.4223	0.1291	8.2486	0.6621	0.0993	0.7381	-0.0841
0.07	-9.6114	0.0194	-1.0598	0.0030	-0.0118	0.0161	39.4305	0.0323	8.2618	0.6621	0.0993	0.7381	-0.0840
0.08	-9.6119	0.0292	-1.0545	0.0060	-0.0132	0.0108	39.3933	0.1192	8.2279	0.6621	0.0992	0.7381	-0.0841
0.09	-9.6014	0.0293	-1.0548	0.0015	-0.0088	0.0123	39.5028	-0.0105	8.1312	0.6621	0.0992	0.7381	-0.0841
0.1	-9.5955	0.0365	-1.0737	0.0097	-0.0020	0.0107	39.4210	0.1239	8.2597	0.6620	0.0992	0.7381	-0.0841
0.11	-9.6069	0.0478	-1.0765	0.0079	-0.0071	0.0102	39.4304	0.2154	8.2508	0.6620	0.0992	0.7382	-0.0841
0.12	-9.6031	0.0386	-1.0685	-0.0049	-0.0104	0.0114	39.3790	0.3164	8.2305	0.6620	0.0992	0.7381	-0.0841
0.13	-9.5990	0.0349	-1.0755	0.0050	-0.0063	0.0100	39.3434	0.2141	8.0499	0.6620	0.0992	0.7382	-0.0841
0.14	-9.5992	0.0191	-1.0863	0.0017	-0.0063	0.0098	39.2497	0.1039	8.1695	0.6619	0.0992	0.7382	-0.0841
0.15	-9.5998	0.0181	-1.0816	0.0069	-0.0073	0.0137	39.4928	0.1214	8.3947	0.6619	0.0992	0.7382	-0.0841
0.16	-9.5910	0.0171	-1.0742	0.0049	-0.0066	0.0106	39.6165	0.2931	8.4589	0.6619	0.0992	0.7383	-0.0841
0.17	-9.6080	0.0198	-1.0788	0.0111	-0.0084	0.0137	39.4835	0.2217	8.3040	0.6618	0.0992	0.7382	-0.0841
0.18	-9.6116	0.0166	-1.0926	0.0069	-0.0094	0.0182	39.3070	0.1741	8.3585	0.6619	0.0992	0.7383	-0.0842
0.19	-9.6009	0.0049	-1.0802	0.0072	-0.0112	0.0136	39.1291	0.2853	8.1004	0.6618	0.0992	0.7383	-0.0842
0.2	-9.6009	-0.0009	-1.0888	0.0010	-0.0127	0.0145	39.0804	0.2844	8.1861	0.6619	0.0992	0.7383	-0.0842
0.21	-9.6132	-0.0036	-1.1002	0.0123	-0.0143	0.0199	39.3924	0.3057	8.1122	0.6618	0.0992	0.7382	-0.0841
0.22	-9.6038	0.0028	-1.0957	0.0123	-0.0193	0.0165	39.6578	0.1895	8.1300	0.6619	0.0993	0.7383	-0.0842
0.23	-9.6070	0.0165	-1.0923	0.0077	-0.0201	0.0170	39.5851	0.1010	8.2611	0.6619	0.0993	0.7382	-0.0842
0.24	-9.6058	0.0104	-1.0866	0.0090	-0.0181	0.0167	39.3589	0.2197	8.3912	0.6619	0.0993	0.7382	-0.0842
0.25	-9.6004	0.0111	-1.0890	0.0039	-0.0191	0.0119	39.3821	0.2062	8.2662	0.6619	0.0993	0.7382	-0.0842
0.26	-9.6036	0.0055	-1.0914	0.0142	-0.0207	0.0161	39.4545	0.1139	8.0706	0.6619	0.0993	0.7381	-0.0842
0.27	-9.6053	0.0214	-1.0843	0.0139	-0.0198	0.0166	39.5089	0.1433	8.1483	0.6620	0.0994	0.7381	-0.0843
0.28	-9.5971	0.0280	-1.0695	0.0055	-0.0116	0.0171	39.5403	0.1338	8.0934	0.6619	0.0994	0.7381	-0.0843
0.29	-9.6048	0.0360	-1.0794	0.0051	-0.0167	0.0110	39.4458	0.1301	8.1503	0.6620	0.0994	0.7381	-0.0843
0.3	-9.5951	0.0287	-1.0719	0.0015	-0.0184	0.0130	39.4183	0.2985	8.2115	0.6620	0.0993	0.7381	-0.0843
0.31	-9.6009	0.0311	-1.0551	0.0055	-0.0164	0.0193	39.3163	0.2386	8.1995	0.6620	0.0994	0.7381	-0.0843
0.32	-9.6077	0.0254	-1.0647	0.0014	-0.0182	0.0183	39.0853	0.1095	8.1925	0.6620	0.0994	0.7380	-0.0843
0.33	-9.6125	0.0393	-1.0635	0.0034	-0.0157	0.0179	39.2022	0.1310	8.0965	0.6620	0.0994	0.7381	-0.0842
0.34	-9.5936	0.0613	-1.0600	-0.0013	-0.0183	0.0111	39.2944	0.3244	8.3045	0.6621	0.0993	0.7381	-0.0842
0.35	-9.6053	0.0628	-1.0706	-0.0023	-0.0186	0.0115	39.0689	0.1277	8.2040	0.6620	0.0993	0.7380	-0.0842
0.36	-9.6059	0.0436	-1.0602	-0.0018	-0.0131	0.0168	39.3710	0.0408	8.0931	0.6621	0.0993	0.7381	-0.0842
0.37	-9.6057	0.0390	-1.0668	0.0022	-0.0161	0.0182	39.4620	0.1694	8.2973	0.6621	0.0993	0.7380	-0.0842
0.38	-9.6093	0.0471	-1.0786	0.0033	-0.0173	0.0146	39.2404	0.0994	8.2250	0.6622	0.0993	0.7381	-0.0842
0.39	-9.6092	0.0193	-1.0713	0.0068	-0.0172	0.0144	39.4942	0.2381	8.1812	0.6621	0.0993	0.7379	-0.0842
0.4	-9.6057	0.0330	-1.0692	0.0009	-0.0159	0.0171	39.3853	0.0883	8.3459	0.6622	0.0993	0.7380	-0.0842
0.41	-9.6099	0.0218	-1.0670	0.0099	-0.0137	0.0136	39.4448	0.0244	8.2141	0.6622	0.0993	0.7380	-0.0842
0.42	-9.6116	0.0223	-1.0838	0.0081	-0.0160	0.0172	39.5987	0.1252	8.2265	0.6621	0.0993	0.7379	-0.0842
0.43	-9.6041	0.0183	-1.0782	0.0162	-0.0144	0.0186	39.2928	0.3241	8.0637	0.6622	0.0994	0.7380	-0.0842
0.44	-9.6044	0.0408	-1.0644	0.0162	-0.0175	0.0217	39.4708	0.1500	8.3418	0.6622	0.0994	0.7379	-0.0843
0.45	-9.6060	0.0250	-1.0658	0.0085	-0.0171	0.0150	39.5406	0.1272	8.3188	0.6622	0.0994	0.7380	-0.0843
0.46	-9.6089	0.0213	-1.0634	0.0072	-0.0210	0.0148	39.5320	0.1436	8.3772	0.6622	0.0994	0.7378	-0.0843
0.47	-9.5968	0.0122	-1.0749	0.0020	-0.0164	0.0168	39.4970	0.1207	8.2568	0.6623	0.0995	0.7379	-0.0843
0.48	-9.6010	0.0021	-1.0849	0.0003	-0.0097	0.0165	39.4702	0.0070	8.2086	0.6622	0.0994	0.7379	-0.0843
0.49	-9.6000	-0.0374	-1.0792	0.0011	-0.0070	0.0169	39.5810	0.1565	8.1279	0.6622	0.0994	0.7379	-0.0842
0.5	-9.5997	-0.0362	-1.0835	0.0022	-0.0105	0.0117	39.3262	0.0226	8.2091	0.6622	0.0994	0.7379	-0.0842
0.51	-9.6003	-0.0171	-1.0863	0.0065	-0.0160	0.0161	39.4002	0.0868	8.3230	0.6622	0.0994	0.7379	-0.0842
0.52	-9.6019	-0.0037	-1.0680	0.0172	-0.0096	0.0164	39.3104	0.1483	8.0594	0.6622	0.0995	0.7379	-0.0843
0.53	-9.6059	-0.0008	-1.0846	0.0155	-0.0134	0.0170	39.2668	0.1254	8.3156	0.6621	0.0995	0.7378	-0.0843
0.54	-9.6003	0.0109	-1.0738	0.0147	-0.0140	0.0158	39.4064	0.0303	8.2640	0.6622	0.0996	0.7379	-0.0843
0.55	-9.6089	0.0203	-1.0753	0.0079	-0.0197	0.0191	39.3189	0.0787	8.2039	0.6622	0.0996	0.7379	-0.0843
0.56	-9.6018	0.0098	-1.0684	0.0055	-0.0167	0.0154	39.2710	0.2151	8.1241	0.6622	0.0996	0.7379	-0.0843
0.57	-9.5961	0.0162	-1.0811	0.0107	-0.0141	0.0138	39.3835	0.2213	8.1906	0.6622	0.0996	0.7378	-0.0844
0.58	-9.6104	0.0070	-1.0889	0.0013	-0.0146	0.0141	39.3597	0.0817	8.3429	0.6622	0.0996	0.7378	-0.0844
0.59	-9.6074	0.0068	-1.0793	0.0089	-0.0107	0.0131	39.3833	0.0327	8.2166	0.6622	0.0996	0.7379	-0.0844
0.6	-9.6037	0.0132	-1.0807	0.0121	-0.0181	0.0117	39.2935	0.1112	8.1934	0.6622	0.0996	0.7378	-0.0844
0.61	-9.6070	0.0127	-1.0673	0.0022	-0.0194	0.0123	39.3604	0.2597	8.3074	0.6623	0.0996	0.7378	-0.0844
0.62	-9.6048	0.0250	-1.0766	0.0090	-0.0151	0.0155	39.5567	0.2895	7.9794	0.6623	0.0996	0.7378	-0.0844
0.63	-9.6028	0.0333	-1.0804	0.0176	-0.0189	0.0174	39.6447	0.3566	8.1746	0.6623	0.0997	0.7378	-0.0845
0.64	-9.5990	0.0495	-1.0758	-0.0017	-0.0111	0.0155	39.5129	0.0019	8.3019	0.6623	0.0997	0.7377	-0.0845
0.65	-9.6072	0.0528	-1.0745	0.0034	-0.0121	0.0120	39.6276	0.0145	8.4405	0.6623	0.0997	0.7378	-0.0845
0.66	-9.6057	0.0596	-1.0730	0.0062	-0.0106	0.0145	39.7608	0.1782	8.8341	0.6623	0.0997	0.7378	-0.0845
0.67	-9.5945	0.0542	-1.0672	0.0053	-0.0101	0.0069	39.6304	0.1504	8.7400	0.6622	0.0996	0.7378	-0.0845
0.68	-9.6027	0.0311	-1.0720	0.0048	-0.0106	0.0105	39.3862	0.3210	8.2199	0.6623	0.0996	0.7379	-0.0845
0.69	-9.6008	0.0351	-1.0763	0.0027	-0.0088	0.0131	39.1594	0.2628	8.2266	0.6622	0.0996	0.7378	-0.0845
0.7	-9.6089	0.0304	-1.0695	0.0018	-0.0110	0.0127	39.1804	0.1953	8.4187	0.6623	0.0996	0.7379	-0.0845
0.71	-9.6039	0.0237	-1.0767	0.0006	-0.0083	0.0127	39.1946	0.1478	8.1214	0.6622	0.0996	0.7378	-0.0845
0.72	-9.6071	0.0163	-1.0899	0.0052	-0.0081	0.0133	39.1762	0.2010	8.2059	0.6622	0.0996	0.7379	-0.0845
0.73	-9.5996	0.0153	-1.0908	0.0084	-0.0162	0.0149	39.2050	0.1161	8.2640	0.6622	0.0996	0.7378	-0.0845
0.74	-9.5944	0.0188	-1.0846	0.0045	-0.0174	0.0142	39.4087	0.0433	8.2735	0.6622	0.0996	0.7378	-0.0845
0.75	-9.6060	0.0176	-1.0927	0.0100	-0.0176	0.0153	39.5382	-0.1255	8.1612	0.6622	0.0996	0.7378	-0.0845
0.76	-9.6008	0.0195	-1.0876	0.0089	-0.0140	0.0152	39.3569	-0.0836	8.0816	0.6622	0.0996	0.7378	-0.0846
0.77	-9.6073	0.0217	-1.0889	0.0088	-0.0139	0.0156	39.3834	0.2022	8.2719	0.6623	0.0996	0.7378	-0.0846
0.78	-9.6125	0.0193	-1.0780	0.0015	-0.0132	0.0144	39.5248	-0.1378	8.2593	0.6622	0.0996	0.7377	-0.0846
0.79	-9.6040	0.0212	-1.0847	-0.0007	-0.0038	0.0113	39.4012	0.1946	8.1700	0.6622	0.0996	0.7379	-0.0846
0.8	-9.5989	0.0159	-1.0736	0.0020	-0.0136	0.0107	39.2922	0.0976	8.3035	0.6622	0.0996	0.7378	-0.0846
0.81	-9.6020	0.0008	-1.0603	0.0071	-0.0136	0.0160	39.2710	0.1674	8.1675	0.6622	0.0996	0.7379	-0.0846
0.82	-9.6074	-0.0005	-1.0633	0.0010	-0.0146	0.0151	39.6690	0.1024	8.1774	0.6622	0.0996	0.7378	-0.0846
0.83	-9.6060	0.0022	-1.0670	0.0031	-0.0139	0.0170	39.4891	-0.2434	8.1847	0.6622	0.0996	0.7378	-0.0845
0.84	-9.6128	0.0177	-1.0699	0.0020	-0.0065	0.0148	39.4685	0.1360	7.9739	0.6622	0.0996	0.7379	-0.0845
0.85	-9.6033	0.0169	-1.0718	0.0042	-0.0092	0.0147	39.5196	-0.0214	8.1585	0.6621	0.0996	0.7378	-0.0845
0.86	-9.6027	0.0212	-1.0626	0.0011	-0.0139	0.0153	39.5154	0.0725	8.3069	0.6622	0.0996	0.7379	-0.0845
0.87	-9.6111	0.0346	-1.0683	0.0021	-0.0146	0.0124	39.5915	0.1667	8.2056	0.6622	0.0996	0.7378	-0.0845
0.88	-9.5962	0.0295	-1.0764	-0.0038	-0.0129	0.0130	39.4211	0.0765	8.1623	0.6623	0.0995	0.7379	-0.0845
0.89	-9.6050	0.0220	-1.0776	0.0016	-0.0094	0.0146	39.3524	0.0850	8.1803	0.6622	0.0995	0.7378	-0.0845
0.9	-9.6124	0.0309	-1.0913	0.0066	-0.0062	0.0199	39.3391	0.0295	8.1653	0.6622	0.0996	0.7379	-0.0845
0.91	-9.6017	0.0303	-1.0746	-0.0019	-0.0122	0.0160	39.3441	0.2456	8.1905	0.6622	0.0995	0.7379	-0.0844
0.92	-9.6036	0.0247	-1.0738	-0.0006	-0.0123	0.0175	39.0702	0.0654	8.4319	0.6621	0.0995	0.7379	-0.0844
0.93	-9.6102	0.0208	-1.0853	0.0040	-0.0114	0.0133	39.1276	0.0887	8.4384	0.6622	0.0995	0.7380	-0.0844
0.94	-9.5987	0.0230	-1.0822	-0.0004	-0.0044	0.0123	39.5569	0.2452	8.2773	0.6621	0.0995	0.7379	-0.0844
0.95	-9.6016	0.0169	-1.0900	-0.0021	-0.0096	0.0151	39.2218	0.2400	8.2590	0.6622	0.0995	0.7380	-0.0844
0.96	-9.6085	0.0094	-1.0858	0.0019	-0.0017	0.0123	39.4593	0.3633	8.1678	0.6620	0.0995	0.7379	-0.0844
0.97	-9.6049	0.0209	-1.0764	0.0048	-0.0077	0.0146	39.2776	0.3006	8.1565	0.6621	0.0995	0.7380	-0.0844
0.98	-9.6044	0.0092	-1.0753	-0.0006	-0.0077	0.0154	39.3317	0.2743	8.0143	0.6621	0.0995	0.7380	-0.0843
0.99	-9.6098	-0.0052	-1.0655	0.0066	-0.0107	0.0166	39.2744	0.1193	8.2678	0.6620	0.0995	0.7380	-0.0843
1	-9.6096	0.0064	-1.0848	0.0127	-0.0109	0.0194	39.3532	-0.0075	8.1578	0.6621	0.0995	0.7380	-0.0844
1.01	-9.6078	0.0110	-1.0833	0.0064	-0.0137	0.0129	39.5698	0.0079	8.2057	0.6620	0.0995	0.7380	-0.0844
1.02	-9.6062	0.0143	-1.0700	0.0060	-0.0110	0.0121	39.4344	0.0707	8.0937	0.6621	0.0995	0.7381	-0.0844
1.03	-9.6007	0.0160	-1.0729	0.0011	-0.0061	0.0137	39.4108	0.1025	8.1586	0.6620	0.0995	0.7380	-0.0844
1.04	-9.6133	0.0196	-1.0896	-0.0021	-0.0073	0.0137	39.5482	0.1044	8.2901	0.6620	0.0995	0.7381	-0.0843
1.05	-9.5970	0.0217	-1.0867	-0.0020	-0.0062	0.0126	39.4256	0.0563	8.2505	0.6620	0.0995	0.7381	-0.0843
1.06	-9.5931	0.0276	-1.0800	-0.0006	-0.0045	0.0115	39.2506	-0.0214	8.2658	0.6620	0.0994	0.7381	-0.0843
1.07	-9.6027	0.0309	-1.0754	0.0059	-0.0092	0.0148	39.2663	0.1042	8.2538	0.6619	0.0994	0.7381	-0.0843
1.08	-9.6023	0.0237	-1.0857	0.0053	-0.0083	0.0120	39.2666	0.2112	8.3785	0.6619	0.0994	0.7382	-0.0843
1.09	-9.5983	0.0316	-1.0788	0.0031	-0.0100	0.0166	39.2447	0.2809	8.2792	0.6619	0.0994	0.7382	-0.0843
1.1	-9.6073	0.0248	-1.0683	0.0112	-0.0143	0.0180	39.3440	0.1844	8.2233	0.6618	0.0995	0.7381	-0.0843
1.11	-9.6072	0.0403	-1.0665	0.0141	-0.0140	0.0124	39.4252	0.0609	8.4086	0.6619	0.0995	0.7382	-0.0844
1.12	-9.6062	0.0334	-1.0698	0.0044	-0.0095	0.0118	39.4603	0.0037	8.1043	0.6619	0.0995	0.7382	-0.0844
1.13	-9.6020	0.0276	-1.0651	-0.0025	-0.0122	0.0129	39.5440	0.0145	8.2055	0.6619	0.0995	0.7382	-0.0844
1.14	-9.6082	0.0313	-1.0710	0.0010	-0.0104	0.0120	39.3925	0.0113	8.3862	0.6618	0.0994	0.7381	-0.0843
1.15	-9.6004	0.0348	-1.0813	0.0033	-0.0046	0.0168	39.6666	0.2317	8.2193	0.6619	0.0994	0.7382	-0.0843
1.16	-9.5972	0.0243	-1.0663	-0.0012	-0.0045	0.0103	39.9609	0.3062	8.4824	0.6618	0.0994	0.7382	-0.0843
1.17	-9.6100	0.0172	-1.0660	0.0009	-0.0112	0.0108	39.7029	0.1691	8.3043	0.6618	0.0994	0.7382	-0.0843
1.18	-9.6068	-0.0021	-1.0578	0.0156	-0.0152	0.0136	39.4328	0.3112	8.2399	0.6619	0.0994	0.7383	-0.0844
1.19	-9.6047	0.0004	-1.0580	0.0050	-0.0154	0.0125	39.2373	0.0191	8.0366	0.6618	0.0994	0.7382	-0.0844
1.2	-9.6053	0.0059	-1.0611	0.0040	-0.0116	0.0159	39.4296	0.1018	8.0741	0.6619	0.0994	0.7383	-0.0844
1.21	-9.6048	-0.0021	-1.0804	0.0136	-0.0127	0.0157	39.4709	0.2004	8.1369	0.6618	0.0994	0.7382	-0.0844
1.22	-9.6111	0.0230	-1.0873	0.0114	-0.0081	0.0174	39.3608	-0.1645	8.0887	0.6618	0.0995	0.7383	-0.0844
1.23	-9.6037	0.0146	-1.0798	0.0054	-0.0127	0.0165	39.6551	0.1373	8.1697	0.6618	0.0995	0.7382	-0.0844
1.24	-9.6028	0.0176	-1.1003	0.0031	-0.0122	0.0190	39.2642	0.2383	8.2260	0.6618	0.0995	0.7382	-0.0844
1.25	-9.6103	0.0241	-1.0831	0.0116	-0.0129	0.0158	39.3291	0.2414	7.9796	0.6618	0.0995	0.7383	-0.0844
1.26	-9.6002	0.0232	-1.0710	0.0045	-0.0139	0.0143	39.2316	0.2530	8.0475	0.6618	0.0995	0.7382	-0.0844
1.27	-9.6051	0.0242	-1.0805	0.0043	-0.0143	0.0196	39.2958	0.1851	8.1708	0.6618	0.0995	0.7383	-0.0844
1.28	-9.6097	0.0109	-1.0846	0.0133	-0.0158	0.0175	39.4885	0.1511	8.2910	0.6618	0.0996	0.7382	-0.0844
1.29	-9.5964	0.0151	-1.0765	0.0025	-0.0127	0.0165	39.4217	0.0707	8.2882	0.6618	0.0996	0.7382	-0.0844
1.3	-9.6042	0.0095	-1.0763	0.0081	-0.0160	0.0157	39.3496	-0.0643	8.1250	0.6618	0.0996	0.7382	-0.0844
1.31	-9.6102	0.0225	-1.0952	0.0006	-0.0151	0.0153	39.4454	0.1490	8.1141	0.6618	0.0996	0.7382	-0.0844
1.32	-9.5937	0.0269	-1.0739	0.0055	-0.0161	0.0172	39.4726	0.2533	8.0941	0.6618	0.0996	0.7382	-0.0844
1.33	-9.5986	0.0295	-1.0714	0.0126	-0.0112	0.0163	39.2014	0.1393	8.1362	0.6618	0.0996	0.7382	-0.0844
1.34	-9.6127	0.0359	-1.0721	0.0036	-0.0071	0.0170	39.2751	0.3358	8.0184	0.6618	0.0996	0.7382	-0.0844
1.35	-9.5967	0.0395	-1.0701	0.0034	-0.0123	0.0163	39.3066	0.3128	8.0819	0.6618	0.0996	0.7382	-0.0844
1.36	-9.5935	0.0359	-1.0611	0.0042	-0.0140	0.0117	39.1905	0.3380	8.3132	0.6619	0.0996	0.7382	-0.0844
1.37	-9.6090	0.0406	-1.0676	0.0047	-0.0205	0.0167	39.2273	0.1490	8.1073	0.6618	0.0996	0.7382	-0.0844
1.38	-9.6043	0.0280	-1.0685	0.0025	-0.0166	0.0162	39.4427	0.2349	7.8739	0.6619	0.0996	0.7382	-0.0844
1.39	-9.5957	0.0104	-1.0641	0.0024	-0.0182	0.0179	39.5450	0.2515	8.2439	0.6618	0.0996	0.7381	-0.0844
1.4	-9.6057	0.0034	-1.0693	0.0017	-0.0146	0.0174	39.3187	0.0335	8.2541	0.6619	0.0996	0.7381	-0.0844
1.41	-9.6080	0.0067	-1.0733	0.0085	-0.0152	0.0169	39.5884	0.2807	8.0442	0.6619	0.0997	0.7381	-0.0844
1.42	-9.6104	0.0128	-1.0594	0.0124	-0.0173	0.0159	39.3689	0.1471	8.1579	0.6619	0.0997	0.7381	-0.0844
1.43	-9.6103	0.0156	-1.0720	0.0049	-0.0161	0.0189	39.2965	0.2622	8.0517	0.6620	0.0997	0.7382	-0.0844
1.44	-9.6051	0.0204	-1.0884	0.0147	-0.0099	0.0169	39.5271	0.2216	8.0592	0.6619	0.0997	0.7381	-0.0844
1.45	-9.6009	0.0318	-1.0869	0.0076	-0.0185	0.0140	39.3572	0.0888	8.1261	0.6620	0.0998	0.7381	-0.0844
1.46	-9.6024	0.0229	-1.0677	0.0091	-0.0162	0.0150	39.4569	-0.0008	8.1047	0.6619	0.0998	0.7380	-0.0844
1.47	-9.6054	0.0248	-1.0813	0.0010	-0.0112	0.0102	39.5556	-0.0129	8.3378	0.6619	0.0997	0.7381	-0.0845
1.48	-9.6122	0.0137	-1.0915	0.0015	-0.0123	0.0123	39.3337	0.0295	8.2521	0.6619	0.0997	0.7381	-0.0845
1.49	-9.5966	-0.0019	-1.0938	0.0068	-0.0119	0.0172	39.2700	0.1634	8.0371	0.6619	0.0997	0.7381	-0.0845
1.5	-9.5996	-0.0026	-1.0966	0.0073	-0.0138	0.0125	39.3242	0.1594	7.9085	0.6619	0.0997	0.7381	-0.0845
1.51	-9.6055	-0.0016	-1.0921	0.0091	-0.0164	0.0164	39.3815	0.2878	8.0791	0.6619	0.0998	0.7381	-0.0845
1.52	-9.6071	0.0140	-1.0920	0.0071	-0.0157	0.0175	39.3862	0.3589	8.1261	0.6620	0.0998	0.7381	-0.0845
1.53	-9.6035	0.0101	-1.0951	0.0063	-0.0193	0.0185	39.2928	0.2275	8.0045	0.6619	0.0998	0.7380	-0.0845
1.54	-9.6038	0.0128	-1.0788	0.0145	-0.0155	0.0154	39.2961	0.1607	8.1375	0.6620	0.0998	0.7380	-0.0845
1.55	-9.6080	0.0210	-1.0786	0.0056	-0.0120	0.0144	39.4378	0.1358	8.0625	0.6620	0.0998	0.7380	-0.0845
1.56	-9.6056	0.0164	-1.0693	0.0135	-0.0179	0.0177	39.4856	0.2603	7.9950	0.6620	0.0999	0.7380	-0.0845
1.57	-9.6028	0.0148	-1.0695	0.0036	-0.0197	0.0114	39.2671	0.1337	8.0469	0.6620	0.0999	0.7380	-0.0846
1.58	-9.6109	0.0244	-1.0721	0.0032	-0.0155	0.0106	39.5465	0.0974	7.9800	0.6620	0.0998	0.7380	-0.0846
1.59	-9.6081	0.0239	-1.0691	0.0034	-0.0224	0.0172	39.3133	0.1812	7.9482	0.6621	0.0998	0.7379	-0.0846
1.6	-9.5959	0.0288	-1.0745	0.0060	-0.0138	0.0158	39.3445	0.1653	8.1513	0.6620	0.0998	0.7379	-0.0846
1.61	-9.6090	0.0324	-1.0784	0.0057	-0.0098	0.0175	39.5864	0.0465	7.9701	0.6621	0.0999	0.7380	-0.0846
1.62	-9.6075	0.0235	-1.0779	0.0007	-0.0146	0.0123	39.3687	0.1579	8.1172	0.6621	0.0998	0.7379	-0.0846
1.63	-9.6104	0.0207	-1.0738	0.0072	-0.0173	0.0154	39.3951	0.2949	8.2415	0.6621	0.0999	0.7380	-0.0846
1.64	-9.5897	0.0221	-1.0735	-0.0003	-0.0131	0.0098	39.2620	0.1225	8.0623	0.6621	0.0998	0.7379	-0.0846
1.65	-9.6078	0.0290	-1.0812	0.0053	-0.0160	0.0087	39.6493	0.3075	8.5083	0.6621	0.0998	0.7379	-0.0846
1.66	-9.6025	0.0282	-1.0768	0.0059	-0.0075	0.0164	39.6541	0.5115	8.3320	0.6621	0.0998	0.7379	-0.0846
1.67	-9.5965	0.0208	-1.0727	0.0029	-0.0091	0.0124	39.5684	0.4101	8.2555	0.6620	0.0998	0.7379	-0.0846
1.68	-9.6076	0.0233	-1.0796	0.0049	-0.0109	0.0157	39.5817	0.1734	8.4288	0.6621	0.0998	0.7380	-0.0846
1.69	-9.6101	0.0231	-1.0788	0.0042	-0.0089	0.0142	39.3687	0.1108	8.2662	0.6620	0.0998	0.7379	-0.0846
1.7	-9.5958	0.0237	-1.0699	0.0055	-0.0113	0.0061	39.4067	0.0783	8.2441	0.6621	0.0998	0.7380	-0.0846
1.71	-9.6051	0.0309	-1.0752	0.0049	-0.0104	0.0087	39.3953	0.2019	8.1530	0.6620	0.0998	0.7379	-0.0846
1.72	-9.6111	0.0282	-1.0853	0.0160	-0.0138	0.0139	39.5096	0.1701	8.1478	0.6620	0.0998	0.7380	-0.0847
1.73	-9.6003	0.0232	-1.0853	0.0066	-0.0188	0.0147	39.4362	0.0722	8.1613	0.6620	0.0998	0.7379	-0.0847
1.74	-9.6050	0.0225	-1.0803	0.0008	-0.0126	0.0170	39.3676	0.1385	8.1449	0.6620	0.0998	0.7379	-0.0847
1.75	-9.6103	0.0169	-1.0917	0.0060	-0.0120	0.0079	39.5178	-0.0223	8.1668	0.6621	0.0998	0.7380	-0.0847
1.76	-9.6092	0.0219	-1.0913	0.0005	-0.0128	0.0108	39.5566	0.0916	8.2683	0.6620	0.0998	0.7379	-0.0847
1.77	-9.6107	0.0165	-1.0805	0.0037	-0.0150	0.0150	39.5886	0.0533	8.0243	0.6621	0.0998	0.7380	-0.0847
1.78	-9.5966	0.0220	-1.0864	-0.0012	-0.0181	0.0173	39.4597	0.0166	8.2075	0.6620	0.0997	0.7379	-0.0847
1.79	-9.6022	0.0126	-1.0918	0.0028	-0.0141	0.0110	39.5174	0.0115	7.9734	0.6621	0.0997	0.7379	-0.0847
1.8	-9.5960	0.0084	-1.0731	-0.0030	-0.0167	0.0117	39.5565	-0.0782	8.2742	0.6621	0.0997	0.7379	-0.0847
1.81	-9.6040	0.0149	-1.0680	-0.0042	-0.0132	0.0131	39.6284	-0.0579	8.2422	0.6621	0.0997	0.7379	-0.0846
1.82	-9.6046	0.0189	-1.0757	-0.0009	-0.0122	0.0076	39.6531	0.0266	7.9425	0.6621	0.0996	0.7379	-0.0846
1.83	-9.5983	0.0276	-1.0826	0.0022	-0.0091	0.0139	39.4196	0.3756	8.2091	0.6621	0.0996	0.7379	-0.0846
1.84	-9.6026	0.0174	-1.0748	-0.0032	-0.0115	0.0137	39.3575	0.2918	8.1416	0.6621	0.0996	0.7380	-0.0846
1.85	-9.6042	0.0216	-1.0790	0.0020	-0.0207	0.0143	39.2221	0.2365	8.3874	0.6621	0.0995	0.7379	-0.0846
1.86	-9.6122	0.0113	-1.0749	0.0048	-0.0220	0.0142	39.3248	0.3982	8.0513	0.6622	0.0996	0.7379	-0.0846
1.87	-9.5968	0.0110	-1.0736	-0.0021	-0.0196	0.0121	39.6285	0.1370	8.1277	0.6622	0.0995	0.7379	-0.0846
1.88	-9.6068	0.0178	-1.0732	0.0040	-0.0109	0.0094	39.5759	0.1619	8.1533	0.6622	0.0995	0.7379	-0.0846
1.89	-9.6122	0.0006	-1.0728	-0.0002	-0.0174	0.0101	39.5710	0.1958	8.1788	0.6622	0.0995	0.7378	-0.0846
1.9	-9.6013	0.0003	-1.0743	0.0046	-0.0150	0.0117	39.6169	0.3130	8.0914	0.6622	0.0995	0.7379	-0.0846
1.91	-9.6004	0.0025	-1.0741	-0.0048	-0.0146	0.0102	39.4286	0.0100	8.1450	0.6622	0.0994	0.7379	-0.0846
1.92	-9.5961	-0.0029	-1.0640	-0.0034	-0.0149	0.0132	39.5084	0.1872	8.3661	0.6622	0.0994	0.7378	-0.0846
1.93	-9.6038	0.0076	-1.0704	-0.0018	-0.0147	0.0141	39.3697	0.0784	8.2215	0.6623	0.0994	0.7379	-0.0846
1.94	-9.6048	0.0037	-1.0658	0.0017	-0.0189	0.0127	39.4281	-0.0956	8.2309	0.6622	0.0993	0.7378	-0.0846
1.95	-9.6044	0.0190	-1.0653	0.0030	-0.0156	0.0156	39.5643	0.1459	8.1054	0.6623	0.0993	0.7379	-0.0846
1.96	-9.6136	0.0182	-1.0676	0.0011	-0.0191	0.0115	39.5543	0.0185	8.2842	0.6622	0.0993	0.7377	-0.0845
1.97	-9.6014	0.0238	-1.0737	-0.0001	-0.0096	0.0105	39.4754	-0.1981	8.1006	0.6623	0.0993	0.7378	-0.0845
1.98	-9.5982	0.0313	-1.0751	0.0031	-0.0150	0.0129	39.6245	0.1212	8.0950	0.6623	0.0993	0.7378	-0.0845
1.99	-9.5958	0.0273	-1.0856	0.0002	-0.0077	0.0106	39.4012	0.2234	8.2496	0.6623	0.0992	0.7378	-0.0845
2	-9.6023	0.0300	-1.0805	0.0017	-0.0096	0.0154	39.3866	0.1563	8.2370	0.6623	0.0992	0.7379	-0.0845
2.01	-9.6055	0.0219	-1.0734	0.0033	-0.0144	0.0180	39.4299	0.2216	8.1063	0.6623	0.0992	0.7378	-0.0845
2.02	-9.6084	0.0226	-1.0748	0.0064	-0.0123	0.0099	39.7107	0.1019	8.2422	0.6623	0.0992	0.7379	-0.0845
2.03	-9.6077	0.0193	-1.0798	-0.0010	-0.0086	0.0146	39.3734	-0.1896	8.2414	0.6622	0.0992	0.7378	-0.0845
2.04	-9.6123	0.0173	-1.0757	0.0026	-0.0133	0.0104	39.3275	0.0937	8.2634	0.6623	0.0992	0.7379	-0.0845
2.05	-9.6067	0.0161	-1.1026	0.0012	-0.0112	0.0103	39.4107	0.2196	8.3268	0.6623	0.0992	0.7379	-0.0845
2.06	-9.6101	0.0257	-1.0893	0.0050	-0.0100	0.0079	39.4414	0.1546	8.1166	0.6623	0.0991	0.7379	-0.0845
2.07	-9.5999	0.0222	-1.0868	0.0006	-0.0068	0.0130	39.5979	0.3053	8.2688	0.6622	0.0991	0.7379	-0.0845
2.08	-9.6005	0.0288	-1.0866	0.0019	-0.0115	0.0124	39.2887	0.2253	8.2018	0.6622	0.0991	0.7379	-0.0845
2.09	-9.6008	0.0338	-1.0719	0.0021	-0.0105	0.0105	39.4079	0.1739	8.1177	0.6622	0.0991	0.7379	-0.0845
2.1	-9.5962	0.0298	-1.0686	0.0011	-0.0078	0.0094	39.3117	0.1907	8.2360	0.6621	0.0990	0.7379	-0.0845
2.11	-9.6092	0.0268	-1.0627	0.0035	-0.0152	0.0123	39.3333	0.0921	8.3468	0.6622	0.0990	0.7380	-0.0845
2.12	-9.6097	0.0063	-1.0670	0.0024	-0.0136	0.0107	39.4056	0.0862	8.3046	0.6622	0.0990	0.7379	-0.0845
2.13	-9.6068	-0.0018	-1.0742	0.0067	-0.0108	0.0096	39.4500	-0.0649	8.1510	0.6622	0.0990	0.7380	-0.0846
2.14	-9.5997	0.0122	-1.0735	0.0016	-0.0151	0.0135	39.5695	-0.0638	8.1651	0.6622	0.0990	0.7379	-0.0846
2.15	-9.6041	0.0085	-1.0768	-0.0012	-0.0090	0.0057	39.7833	0.0742	8.3867	0.6622	0.0989	0.7379	-0.0846
2.16	-9.6029	0.0062	-1.0816	-0.0052	-0.0137	0.0085	39.9345	0.3002	8.2765	0.6622	0.0989	0.7380	-0.0846
2.17	-9.6049	0.0143	-1.0833	0.0030	-0.0152	0.0162	39.7279	0.2223	8.1999	0.6622	0.0989	0.7379	-0.0845
2.18	-9.6070	0.0166	-1.0781	0.0050	-0.0190	0.0090	39.4406	0.2035	8.3132	0.6623	0.0989	0.7380	-0.0846
2.19	-9.6115	0.0109	-1.0808	0.0057	-0.0156	0.0124	39.3253	0.2754	8.3930	0.6622	0.0989	0.7379	-0.0846
2.2	-9.6102	0.0119	-1.0873	0.0042	-0.0173	0.0133	39.3970	0.1651	8.3967	0.6623	0.0989	0.7379	-0.0846
2.21	-9.5993	0.0143	-1.0793	-0.0044	-0.0185	0.0098	39.3869	0.0611	8.2771	0.6622	0.0988	0.7378	-0.0846
2.22	-9.6003	0.0066	-1.0880	0.0009	-0.0172	0.0093	39.5837	0.1859	8.2258	0.6623	0.0988	0.7379	-0.0846
2.23	-9.6130	0.0140	-1.0841	0.0039	-0.0115	0.0146	39.3655	0.1061	8.2989	0.6623	0.0988	0.7379	-0.0846
2.24	-9.5879	0.0257	-1.0714	-0.0002	-0.0217	0.0156	39.1961	0.0361	8.3689	0.6623	0.0987	0.7378	-0.0846
2.25	-9.5979	0.0230	-1.0685	-0.0007	-0.0162	0.0185	39.3404	0.1010	8.3778	0.6624	0.0987	0.7379	-0.0845
2.26	-9.6054	0.0259	-1.0689	-0.0030	-0.0133	0.0155	39.3781	0.1395	8.2822	0.6623	0.0987	0.7378	-0.0845
2.27	-9.6059	0.0239	-1.0695	0.0022	-0.0131	0.0154	39.4576	0.2218	8.2477	0.6624	0.0987	0.7379	-0.0845
2.28	-9.6116	0.0295	-1.0741	0.0047	-0.0141	0.0148	39.4024	0.2307	8.1707	0.6623	0.0987	0.7378	-0.0845
2.29	-9.6076	0.0390	-1.0677	0.0080	-0.0099	0.0133	39.3758	0.2606	8.3368	0.6624	0.0987	0.7379	-0.0845
2.3	-9.6036	0.0328	-1.0803	0.0098	-0.0096	0.0154	39.2447	0.3034	8.3926	0.6623	0.0987	0.7378	-0.0845
2.31	-9.6004	0.0233	-1.0732	-0.0004	-0.0162	0.0149	39.5077	0.1541	8.3250	0.6624	0.0987	0.7379	-0.0845
2.32	-9.6050	0.0237	-1.0735	0.0138	-0.0131	0.0173	39.5988	0.0693	8.1782	0.6623	0.0988	0.7378	-0.0845
2.33	-9.6138	0.0172	-1.0774	0.0110	-0.0159	0.0163	39.3690	-0.1505	8.3829	0.6624	0.0988	0.7378	-0.0846
2.34	-9.6070	0.0084	-1.0879	0.0084	-0.0094	0.0178	39.4731	0.1579	8.3299	0.6624	0.0988	0.7378	-0.0846
2.35	-9.5948	0.0069	-1.0673	0.0138	-0.0135	0.0163	39.3802	0.0866	8.2770	0.6623	0.0988	0.7378	-0.0846
2.36	-9.6051	0.0213	-1.0626	0.0025	-0.0142	0.0168	39.3278	-0.0463	8.3090	0.6624	0.0989	0.7378	-0.0846
2.37	-9.6051	-0.0004	-1.0784	0.0128	-0.0157	0.0171	39.3608	0.0244	8.2907	0.6624	0.0989	0.7378	-0.0846
2.38	-9.5975	-0.0054	-1.0593	0.0023	-0.0113	0.0142	39.3408	0.1406	8.2972	0.6624	0.0989	0.7379	-0.0846
2.39	-9.6096	0.0111	-1.0669	0.0039	-0.0171	0.0180	39.4198	0.1783	8.2916	0.6623	0.0989	0.7377	-0.0846
2.4	-9.6154	0.0135	-1.0757	0.0051	-0.0220	0.0151	39.3579	-0.1103	8.2994	0.6624	0.0989	0.7378	-0.0846
2.41	-9.6067	0.0158	-1.0780	0.0078	-0.0125	0.0121	39.2719	0.1637	8.3000	0.6624	0.0989	0.7378	-0.0846
2.42	-9.6001	0.0268	-1.0773	0.0027	-0.0066	0.0173	39.4080	0.2762	8.2281	0.6624	0.0989	0.7377	-0.0846
2.43	-9.6128	0.0294	-1.0939	0.0054	-0.0112	0.0191	39.2817	0.1163	8.0747	0.6624	0.0989	0.7378	-0.0846
2.44	-9.5960	0.0309	-1.0757	-0.0006	-0.0126	0.0159	39.2400	0.2992	8.1782	0.6624	0.0989	0.7378	-0.0846
2.45	-9.5839	0.0200	-1.0683	0.0003	-0.0204	0.0148	39.3818	0.1252	8.4094	0.6625	0.0989	0.7378	-0.0845
2.46	-9.6096	0.0205	-1.0734	0.0128	-0.0144	0.0211	39.4000	0.2592	8.2845	0.6624	0.0989	0.7377	-0.0845
2.47	-9.6102	0.0230	-1.0861	0.0071	-0.0156	0.0166	39.4533	0.2004	8.2859	0.6625	0.0990	0.7377	-0.0846
2.48	-9.6044	0.0077	-1.0777	0.0044	-0.0133	0.0141	39.3873	0.1653	8.3248	0.6624	0.0989	0.7377	-0.0846
2.49	-9.6111	-0.0081	-1.0764	0.0023	-0.0184	0.0165	39.5803	0.3368	8.4773	0.6624	0.0989	0.7377	-0.0845
2.5	-9.6101	0.0026	-1.0842	0.0083	-0.0188	0.0187	39.3497	0.3140	8.4642	0.6625	0.0990	0.7377	-0.0846
2.51	-9.6108	0.0151	-1.0727	0.0107	-0.0144	0.0166	39.4061	0.3024	8.1933	0.6625	0.0990	0.7377	-0.0846
2.52	-9.6081	0.0205	-1.0787	0.0047	-0.0163	0.0168	39.3714	-0.0334	8.2715	0.6625	0.0990	0.7377	-0.0846
2.53	-9.6087	0.0217	-1.0915	0.0010	-0.0152	0.0172	39.4667	0.0763	8.3216	0.6625	0.0990	0.7376	-0.0845
2.54	-9.6083	0.0285	-1.0939	0.0086	-0.0155	0.0166	39.4776	0.1630	8.1655	0.6626	0.0990	0.7377	-0.0846
2.55	-9.5917	0.0313	-1.0907	0.0053	-0.0122	0.0155	39.7442	0.0280	8.2765	0.6625	0.0990	0.7376	-0.0846
2.56	-9.6098	0.0349	-1.0849	0.0030	-0.0138	0.0108	39.3329	0.1598	8.3057	0.6625	0.0990	0.7376	-0.0846
2.57	-9.6068	0.0255	-1.0918	0.0061	-0.0189	0.0145	39.2061	0.1354	8.2802	0.6625	0.0990	0.7376	-0.0846
2.58	-9.6070	0.0253	-1.0775	0.0076	-0.0198	0.0165	39.4511	0.2933	8.3021	0.6626	0.0990	0.7376	-0.0846
2.59	-9.5997	0.0194	-1.0775	0.0080	-0.0129	0.0176	39.3315	0.1126	8.2727	0.6626	0.0990	0.7376	-0.0846
2.6	-9.6058	0.0092	-1.0769	0.0137	-0.0148	0.0148	39.5568	0.0410	8.3894	0.6625	0.0991	0.7375	-0.0846
2.61	-9.5994	0.0060	-1.0741	0.0140	-0.0154	0.0139	39.5410	0.1938	8.3844	0.6626	0.0991	0.7376	-0.0847
2.62	-9.5970	0.0020	-1.0715	0.0050	-0.0145	0.0184	39.5608	0.2590	8.2309	0.6626	0.0991	0.7375	-0.0846
2.63	-9.6034	0.0240	-1.0656	0.0060	-0.0131	0.0162	39.5075	0.1852	8.1867	0.6627	0.0991	0.7376	-0.0847
2.64	-9.6019	0.0338	-1.0722	0.0102	-0.0102	0.0169	39.3486	0.0399	8.3091	0.6626	0.0991	0.7375	-0.0847
2.65	-9.5925	0.0332	-1.0725	0.0070	-0.0079	0.0141	39.6525	0.2203	8.2911	0.6626	0.0992	0.7376	-0.0847
2.66	-9.5940	0.0303	-1.0615	0.0067	-0.0049	0.0102	40.0256	0.2214	8.6866	0.6625	0.0992	0.7376	-0.0847
2.67	-9.6083	0.0307	-1.0705	0.0056	-0.0099	0.0134	39.6983	0.0804	8.4517	0.6625	0.0992	0.7376	-0.0847
2.68	-9.6097	0.0219	-1.0585	0.0009	-0.0205	0.0137	39.4730	0.1291	8.1944	0.6626	0.0991	0.7376	-0.0847
2.69	-9.6017	0.0369	-1.0676	0.0052	-0.0141	0.0173	39.2587	0.2053	8.1768	0.6626	0.0991	0.7376	-0.0847
2.7	-9.6061	0.0482	-1.0651	0.0076	-0.0099	0.0133	39.2943	-0.0777	8.1876	0.6626	0.0992	0.7376	-0.0847
2.71	-9.6115	0.0377	-1.0723	0.0071	-0.0099	0.0133	39.4506	-0.0568	8.0858	0.6625	0.0992	0.7375	-0.0847
2.72	-9.6031	0.0378	-1.0730	0.0007	-0.0042	0.0102	39.4056	-0.0900	8.1065	0.6625	0.0991	0.7376	-0.0847
2.73	-9.6052	0.0248	-1.0788	0.0036	-0.0129	0.0123	39.4304	-0.0007	8.2174	0.6625	0.0991	0.7376	-0.0847
2.74	-9.6090	0.0260	-1.0890	0.0073	-0.0104	0.0103	39.4089	0.2662	8.1219	0.6625	0.0991	0.7376	-0.0847
2.75	-9.6104	0.0227	-1.0877	0.0015	-0.0071	0.0136	39.4213	0.3566	8.3982	0.6625	0.0991	0.7377	-0.0847
2.76	-9.5988	0.0196	-1.0712	0.0069	-0.0151	0.0074	39.5122	0.3239	8.4123	0.6625	0.0991	0.7376	-0.0848
2.77	-9.6077	0.0047	-1.0743	0.0069	-0.0140	0.0160	39.2871	-0.0033	8.2882	0.6625	0.0991	0.7377	-0.0848
2.78	-9.6082	0.0154	-1.0795	0.0040	-0.0159	0.0129	39.5320	0.0874	8.1633	0.6625	0.0991	0.7376	-0.0848
2.79	-9.6088	0.0122	-1.0769	0.0055	-0.0115	0.0127	39.3565	0.4101	8.0839	0.6625	0.0991	0.7376	-0.0848
2.8	-9.6081	0.0165	-1.0774	0.0027	-0.0069	0.0063	39.3910	0.1167	8.3543	0.6625	0.0991	0.7376	-0.0848
2.81	-9.6058	0.0295	-1.0715	0.0011	-0.0083	0.0146	39.3626	-0.1260	8.0822	0.6625	0.0990	0.7377	-0.0848
2.82	-9.6027	0.0193	-1.0652	0.0112	-0.0082	0.0126	39.3398	0.1422	8.1708	0.6624	0.0990	0.7377	-0.0848
2.83	-9.6060	0.0151	-1.0719	0.0042	-0.0137	0.0090	39.4145	0.3897	8.3062	0.6624	0.0990	0.7377	-0.0848
2.84	-9.6136	0.0121	-1.0802	-0.0005	-0.0096	0.0092	39.2789	0.1382	8.3641	0.6625	0.0990	0.7377	-0.0848
2.85	-9.5950	0.0113	-1.0695	-0.0029	-0.0105	0.0088	39.1418	0.2752	8.2644	0.6624	0.0989	0.7376	-0.0848
2.86	-9.5964	-0.0021	-1.0636	-0.0005	-0.0150	0.0165	39.3239	0.1486	8.2288	0.6625	0.0989	0.7377	-0.0848
2.87	-9.6100	-0.0006	-1.0619	0.0146	-0.0156	0.0097	39.4019	-0.0690	8.1868	0.6624	0.0989	0.7377	-0.0848
2.88	-9.6092	0.0010	-1.0746	0.0095	-0.0112	0.0113	39.3481	-0.0613	8.3697	0.6625	0.0990	0.7377	-0.0849
2.89	-9.6100	0.0030	-1.0723	0.0099	-0.0109	0.0138	39.6135	-0.0801	8.2766	0.6624	0.0990	0.7376	-0.0849
2.9	-9.6089	0.0112	-1.0701	0.0078	-0.0135	0.0140	39.4647	-0.0352	8.2379	0.6624	0.0990	0.7377	-0.0849
2.91	-9.6129	0.0096	-1.0813	0.0077	-0.0100	0.0165	39.6693	0.0351	8.1670	0.6624	0.0990	0.7377	-0.0849
2.92	-9.6048	0.0132	-1.0790	0.0102	-0.0203	0.0146	39.3778	0.0058	8.1710	0.6624	0.0990	0.7376	-0.0849
2.93	-9.6100	0.0183	-1.0702	0.0048	-0.0154	0.0104	39.4657	0.1017	8.2888	0.6625	0.0990	0.7377	-0.0850
2.94	-9.6134	0.0192	-1.0819	0.0056	-0.0140	0.0174	39.5856	0.1212	8.2295	0.6625	0.0990	0.7376	-0.0849
2.95	-9.6099	0.0194	-1.0954	0.0119	-0.0103	0.0108	39.6152	0.0221	8.3692	0.6625	0.0990	0.7377	-0.0850
2.96	-9.6076	0.0252	-1.0921	0.0012	-0.0119	0.0121	39.3859	0.0890	8.2363	0.6624	0.0990	0.7376	-0.0850
2.97	-9.6106	0.0234	-1.0961	0.0030	-0.0079	0.0114	39.0657	0.1954	8.4135	0.6624	0.0990	0.7377	-0.0850
2.98	-9.6129	0.0232	-1.0946	0.0011	-0.0151	0.0113	39.3299	0.3310	8.3506	0.6624	0.0989	0.7377	-0.0850
2.99	-9.6052	0.0181	-1.0913	0.0146	-0.0094	0.0134	39.1656	0.2910	8.1443	0.6624	0.0990	0.7377	-0.0850
3	-9.6122	0.0197	-1.0847	0.0053	-0.0088	0.0169	39.1630	0.1357	8.1598	0.6624	0.0990	0.7377	-0.0850
3.01	-9.6078	0.0166	-1.0794	0.0090	-0.0125	0.0125	39.2360	0.3406	8.2110	0.6624	0.0990	0.7377	-0.0851
3.02	-9.6060	0.0190	-1.0675	0.0036	-0.0127	0.0120	39.3796	0.2949	8.2208	0.6624	0.0990	0.7377	-0.0851
3.03	-9.6046	0.0257	-1.0766	0.0024	-0.0114	0.0175	39.3104	0.1825	8.1260	0.6623	0.0989	0.7377	-0.0850
3.04	-9.6100	0.0317	-1.0675	0.0107	-0.0141	0.0112	39.4440	-0.0417	8.4305	0.6624	0.0990	0.7377	-0.0851
3.05	-9.6068	0.0289	-1.0719	0.0098	-0.0146	0.0129	39.4141	0.0949	8.1004	0.6624	0.0990	0.7377	-0.0851
3.06	-9.6153	0.0210	-1.0778	0.0106	-0.0155	0.0153	39.6383	0.0342	8.1510	0.6624	0.0990	0.7377	-0.0851
3.07	-9.6064	0.0228	-1.0675	-0.0005	-0.0135	0.0173	39.3565	0.0133	8.2811	0.6624	0.0990	0.7377	-0.0851
3.08	-9.6039	0.0238	-1.0787	0.0068	-0.0144	0.0116	39.3893	-0.0088	8.2659	0.6624	0.0990	0.7377	-0.0851
3.09	-9.6116	0.0233	-1.0726	-0.0020	-0.0145	0.0116	39.7175	-0.0864	8.2425	0.6624	0.0989	0.7377	-0.0851
3.1	-9.6079	0.0208	-1.0675	-0.0015	-0.0152	0.0177	39.5609	-0.0497	8.0633	0.6624	0.0989	0.7376	-0.0851
3.11	-9.6006	0.0291	-1.0730	0.0025	-0.0098	0.0111	39.5062	-0.0773	8.2222	0.6625	0.0989	0.7377	-0.0851
3.12	-9.6144	0.0290	-1.0787	0.0047	-0.0119	0.0130	39.3344	0.0893	8.4218	0.6624	0.0989	0.7377	-0.0851
3.13	-9.6036	0.0171	-1.0739	-0.0016	-0.0085	0.0128	39.3664	0.3217	8.1855	0.6625	0.0989	0.7378	-0.0851
3.14	-9.5982	0.0098	-1.0776	0.0054	-0.0109	0.0148	39.2140	0.4452	8.1313	0.6624	0.0989	0.7377	-0.0851
3.15	-9.6100	0.0058	-1.0871	0.0024	-0.0088	0.0093	39.4277	0.2911	8.5548	0.6624	0.0989	0.7377	-0.0851
3.16	-9.6038	-0.0004	-1.0867	-0.0005	-0.0140	0.0077	39.6245	0.0886	8.2600	0.6624	0.0988	0.7377	-0.0851
3.17	-9.5998	0.0057	-1.0768	0.0079	-0.0233	0.0138	39.5488	0.1317	8.3937	0.6624	0.0988	0.7377	-0.0851
3.18	-9.6128	-0.0029	-1.0737	0.0177	-0.0175	0.0155	39.5714	0.0708	8.4293	0.6625	0.0988	0.7377	-0.0852
3.19	-9.6014	-0.0048	-1.0767	0.0095	-0.0174	0.0189	39.5544	0.1557	8.1091	0.6624	0.0989	0.7376	-0.0852
3.2	-9.6096	-0.0081	-1.0654	0.0055	-0.0135	0.0167	39.5478	0.2760	8.2970	0.6625	0.0989	0.7377	-0.0852
3.21	-9.6121	-0.0009	-1.0699	0.0065	-0.0168	0.0168	39.4353	0.1315	8.1821	0.6624	0.0989	0.7376	-0.0852
3.22	-9.6158	0.0107	-1.0686	0.0088	-0.0157	0.0147	39.2954	0.1578	8.1830	0.6625	0.0989	0.7376	-0.0852
3.23	-9.6064	0.0154	-1.0743	0.0047	-0.0138	0.0169	39.3265	0.1401	8.1931	0.6625	0.0989	0.7376	-0.0852
3.24	-9.6089	0.0274	-1.0611	0.0037	-0.0160	0.0165	39.5640	0.1625	8.1785	0.6625	0.0989	0.7376	-0.0852
3.25	-9.6112	0.0248	-1.0641	0.0102	-0.0127	0.0165	39.3801	0.1383	8.2065	0.6625	0.0989	0.7376	-0.0852
3.26	-9.6117	0.0296	-1.0687	0.0122	-0.0197	0.0167	39.6210	0.1730	8.2811	0.6625	0.0990	0.7376	-0.0852
3.27	-9.6089	0.0334	-1.0642	0.0118	-0.0189	0.0163	39.8654	0.1215	8.1062	0.6626	0.0990	0.7376	-0.0852
3.28	-9.5984	0.0361	-1.0698	0.0104	-0.0136	0.0169	39.7552	0.3403	8.1025	0.6625	0.0990	0.7375	-0.0852
3.29	-9.6058	0.0324	-1.0743	0.0060	-0.0152	0.0152	39.6414	0.3001	8.1016	0.6626	0.0990	0.7376	-0.0852
3.3	-9.6056	0.0289	-1.0694	-0.0017	-0.0121	0.0126	39.4347	0.0760	8.1082	0.6625	0.0990	0.7375	-0.0852
3.31	-9.6191	0.0259	-1.0664	0.0123	-0.0146	0.0172	39.4279	0.2638	8.3615	0.6626	0.0990	0.7375	-0.0852
3.32	-9.6143	0.0139	-1.0729	0.0091	-0.0144	0.0151	39.4267	0.1946	8.3664	0.6625	0.0990	0.7375	-0.0853
3.33	-9.5963	0.0180	-1.0582	0.0106	-0.0149	0.0200	39.4329	0.3015	7.9922	0.6626	0.0991	0.7375	-0.0853
3.34	-9.6091	0.0097	-1.0710	0.0149	-0.0134	0.0176	39.2487	0.2438	8.4455	0.6626	0.0991	0.7375	-0.0853
3.35	-9.6051	0.0290	-1.0776	0.0092	-0.0128	0.0153	39.3889	0.3067	8.3016	0.6625	0.0991	0.7374	-0.0853
3.36	-9.6158	0.0264	-1.0873	0.0044	-0.0129	0.0140	39.6713	0.3101	8.1385	0.6626	0.0991	0.7375	-0.0853
3.37	-9.6092	0.0416	-1.0897	0.0080	-0.0119	0.0158	39.6126	0.2367	8.4038	0.6626	0.0991	0.7375	-0.0853
3.38	-9.6005	0.0481	-1.0755	0.0046	-0.0072	0.0147	39.3554	0.3731	8.4683	0.6626	0.0992	0.7376	-0.0853
3.39	-9.6031	0.0264	-1.0756	0.0072	-0.0110	0.0140	39.3168	0.1801	8.3527	0.6625	0.0991	0.7375	-0.0853
3.4	-9.5987	0.0257	-1.0807	0.0106	-0.0209	0.0166	39.4014	0.2931	8.3432	0.6626	0.0992	0.7375	-0.0853
3.41	-9.6086	0.0056	-1.0920	0.0043	-0.0102	0.0164	39.3878	0.2623	8.0472	0.6626	0.0992	0.7375	-0.0853
3.42	-9.6088	0.0041	-1.0828	0.0069	-0.0113	0.0166	39.3550	-0.0660	8.2232	0.6625	0.0992	0.7375	-0.0853
3.43	-9.6138	-0.0055	-1.0881	0.0033	-0.0146	0.0146	39.2373	0.2004	8.1369	0.6626	0.0992	0.7375	-0.0853
3.44	-9.6066	-0.0121	-1.0880	0.0039	-0.0140	0.0154	39.3558	0.2255	8.1510	0.6626	0.0992	0.7375	-0.0853
3.45	-9.6069	-0.0165	-1.0733	0.0057	-0.0179	0.0124	39.4429	0.2774	8.3410	0.6626	0.0992	0.7375	-0.0853
3.46	-9.6107	-0.0037	-1.0811	-0.0018	-0.0165	0.0137	39.5060	0.4278	8.1365	0.6626	0.0991	0.7374	-0.0853
3.47	-9.6068	0.0124	-1.0866	0.0011	-0.0159	0.0138	39.5954	0.2695	8.3375	0.6626	0.0991	0.7375	-0.0853
3.48	-9.5997	0.0167	-1.0752	0.0008	-0.0144	0.0130	39.4569	0.2322	8.3598	0.6626	0.0991	0.7374	-0.0853
3.49	-9.6080	0.0063	-1.0679	0.0046	-0.0145	0.0177	39.3243	0.1814	8.3744	0.6626	0.0991	0.7374	-0.0853
3.5	-9.6104	0.0041	-1.0749	0.0005	-0.0159	0.0185	39.4729	0.0226	8.2606	0.6627	0.0991	0.7374	-0.0853
3.51	-9.6131	0.0082	-1.0770	0.0165	-0.0114	0.0185	39.4687	0.2620	8.1651	0.6626	0.0992	0.7374	-0.0853
3.52	-9.6121	0.0099	-1.0790	0.0096	-0.0149	0.0159	39.2924	0.2938	8.1955	0.6627	0.0992	0.7374	-0.0853
3.53	-9.6095	0.0165	-1.0761	0.0116	-0.0132	0.0168	39.4518	0.1205	8.1695	0.6626	0.0992	0.7373	-0.0853
3.54	-9.6127	0.0183	-1.0693	0.0049	-0.0075	0.0164	39.4255	0.1720	8.3195	0.6626	0.0992	0.7375	-0.0853
3.55	-9.6060	0.0246	-1.0701	0.0015	-0.0090	0.0173	39.4091	0.1231	8.3606	0.6626	0.0992	0.7374	-0.0853
3.56	-9.6007	0.0264	-1.0682	0.0045	-0.0141	0.0177	39.2544	0.2181	8.1425	0.6626	0.0992	0.7375	-0.0853
3.57	-9.5976	0.0333	-1.0714	0.0049	-0.0100	0.0144	39.3532	0.3203	8.3035	0.6626	0.0992	0.7374	-0.0853
3.58	-9.5868	0.0427	-1.0739	0.0096	-0.0099	0.0121	39.4614	0.2100	8.4749	0.6626	0.0992	0.7375	-0.0853
3.59	-9.6033	0.0389	-1.0666	0.0051	-0.0079	0.0179	39.3613	0.4312	8.2295	0.6626	0.0992	0.7375	-0.0853
3.6	-9.6098	0.0461	-1.0776	0.0044	-0.0091	0.0144	39.3476	0.2436	8.0551	0.6625	0.0992	0.7374	-0.0853
3.61	-9.6050	0.0304	-1.0756	0.0062	-0.0068	0.0162	39.4360	0.1177	8.2561	0.6626	0.0993	0.7375	-0.0853
3.62	-9.6094	0.0301	-1.0757	0.0152	-0.0089	0.0112	39.4554	0.1871	8.3648	0.6625	0.0993	0.7375	-0.0853
3.63	-9.6103	0.0233	-1.0668	0.0082	-0.0121	0.0144	39.5529	0.0673	8.2147	0.6626	0.0993	0.7376	-0.0854
3.64	-9.6084	0.0312	-1.0721	0.0012	-0.0104	0.0152	39.3794	0.0810	8.4918	0.6625	0.0993	0.7375	-0.0853
3.65	-9.6012	0.0311	-1.0726	0.0016	-0.0158	0.0146	39.9051	0.0443	8.4384	0.6625	0.0993	0.7375	-0.0853
3.66	-9.6044	0.0152	-1.0728	0.0092	-0.0131	0.0155	39.8204	0.1652	8.6785	0.6625	0.0993	0.7375	-0.0853
3.67	-9.6012	0.0157	-1.0652	0.0037	-0.0107	0.0135	39.6338	0.0374	8.4345	0.6625	0.0993	0.7375	-0.0853
3.68	-9.6014	0.0187	-1.0654	-0.0031	-0.0111	0.0142	39.6015	0.0540	8.3287	0.6626	0.0993	0.7376	-0.0853
3.69	-9.6080	0.0054	-1.0715	0.0037	-0.0089	0.0120	39.2367	0.1218	8.3803	0.6625	0.0992	0.7375	-0.0853
3.7	-9.6151	-0.0017	-1.0796	0.0006	-0.0084	0.0112	39.3430	0.1320	8.3346	0.6625	0.0992	0.7376	-0.0853
3.71	-9.5988	-0.0059	-1.0772	0.0002	-0.0127	0.0159	39.3473	0.2263	8.3663	0.6624	0.0992	0.7375	-0.0853
3.72	-9.6005	-0.0020	-1.0799	-0.0016	-0.0132	0.0159	39.3735	0.0343	8.3390	0.6625	0.0992	0.7376	-0.0853
3.73	-9.6127	-0.0071	-1.0803	0.0036	-0.0080	0.0083	39.4326	0.2012	8.2092	0.6625	0.0992	0.7376	-0.0853
3.74	-9.5955	0.0018	-1.0694	0.0042	-0.0081	0.0136	39.2480	0.0932	8.1279	0.6625	0.0991	0.7376	-0.0853
3.75	-9.5948	0.0091	-1.0748	-0.0051	-0.0083	0.0166	39.2878	0.1171	8.5046	0.6625	0.0991	0.7376	-0.0852
3.76	-9.6116	0.0039	-1.0821	0.0072	-0.0095	0.0152	39.2411	0.2969	8.3628	0.6624	0.0991	0.7376	-0.0852
3.77	-9.6070	0.0039	-1.0753	0.0031	-0.0116	0.0081	39.3426	0.2679	8.1789	0.6625	0.0991	0.7376	-0.0852
3.78	-9.5921	0.0044	-1.0744	-0.0035	-0.0138	0.0123	39.3540	0.1828	8.0824	0.6624	0.0991	0.7376	-0.0852
3.79	-9.6027	0.0048	-1.0756	0.0010	-0.0076	0.0115	39.4579	0.2002	8.3106	0.6625	0.0991	0.7377	-0.0852
3.8	-9.6058	0.0154	-1.0751	0.0061	-0.0119	0.0139	39.2405	0.1274	8.5267	0.6624	0.0990	0.7376	-0.0852
3.81	-9.5969	0.0171	-1.0695	0.0064	-0.0115	0.0145	39.4021	0.1374	8.2516	0.6624	0.0991	0.7377	-0.0852
3.82	-9.6025	0.0206	-1.0650	0.0086	-0.0132	0.0132	39.5338	0.3116	8.2897	0.6624	0.0991	0.7376	-0.0852
3.83	-9.6062	0.0266	-1.0712	0.0030	-0.0185	0.0167	39.3901	0.1110	8.3328	0.6624	0.0991	0.7376	-0.0852
3.84	-9.6123	0.0250	-1.0749	0.0035	-0.0148	0.0128	39.4920	0.1213	8.2633	0.6625	0.0990	0.7376	-0.0852
3.85	-9.6062	0.0258	-1.0834	0.0044	-0.0183	0.0134	39.5342	0.0249	8.1973	0.6624	0.0990	0.7375	-0.0852
3.86	-9.6121	0.0274	-1.0870	0.0152	-0.0151	0.0172	39.5786	-0.0686	8.0918	0.6625	0.0991	0.7376	-0.0853
3.87	-9.6053	0.0318	-1.0785	0.0043	-0.0096	0.0167	39.3933	0.0694	8.2175	0.6625	0.0991	0.7376	-0.0853
3.88	-9.5970	0.0307	-1.0807	0.0054	-0.0100	0.0169	39.4657	-0.0706	8.1690	0.6625	0.0991	0.7377	-0.0853
3.89	-9.6039	0.0248	-1.0743	0.0139	-0.0063	0.0167	39.3389	0.0203	8.1934	0.6624	0.0991	0.7376	-0.0853
3.9	-9.6038	0.0328	-1.0876	0.0114	-0.0094	0.0122	39.5698	0.0289	8.1773	0.6624	0.0991	0.7376	-0.0853
3.91	-9.6078	0.0293	-1.0858	0.0093	-0.0073	0.0116	39.4609	0.0255	8.2046	0.6624	0.0992	0.7376	-0.0853
3.92	-9.5984	0.0283	-1.0878	0.0158	-0.0091	0.0139	39.3526	0.2952	8.4454	0.6623	0.0992	0.7376	-0.0854
3.93	-9.6000	0.0322	-1.0847	0.0024	-0.0077	0.0086	39.2519	0.2253	8.4341	0.6624	0.0992	0.7377	-0.0854
3.94	-9.5970	0.0321	-1.0830	-0.0020	-0.0105	0.0106	39.2928	0.2169	8.1627	0.6623	0.0991	0.7377	-0.0854
3.95	-9.6053	0.0351	-1.0929	-0.0022	-0.0092	0.0159	39.4482	0.2456	8.2386	0.6624	0.0991	0.7377	-0.0853
3.96	-9.6082	0.0260	-1.0724	0.0038	-0.0049	0.0045	39.3543	0.0621	8.2903	0.6623	0.0991	0.7377	-0.0854
3.97	-9.6087	0.0216	-1.0680	0.0056	-0.0108	0.0115	39.1382	0.3325	8.3357	0.6623	0.0991	0.7378	-0.0854
3.98	-9.6065	0.0200	-1.0738	0.0030	-0.0107	0.0086	39.4132	0.1862	8.2156	0.6623	0.0990	0.7377	-0.0854
3.99	-9.6003	0.0203	-1.0658	0.0028	-0.0107	0.0123	39.4326	0.2090	8.0817	0.6623	0.0990	0.7377	-0.0854
4	-9.6027	0.0164	-1.0634	-0.0038	-0.0137	0.0110	39.5374	-0.0086	8.1116	0.6623	0.0990	0.7378	-0.0854
4.01	-9.6114	0.0168	-1.0742	0.0011	-0.0113	0.0152	39.4812	-0.0707	8.3344	0.6623	0.0990	0.7378	-0.0853
4.02	-9.6037	0.0229	-1.0792	0.0092	-0.0125	0.0109	39.4083	-0.0699	8.4262	0.6623	0.0990	0.7378	-0.0854
4.03	-9.6073	0.0160	-1.0834	0.0019	-0.0048	0.0118	39.4360	0.0203	8.4629	0.6622	0.0989	0.7377	-0.0854
4.04	-9.6057	0.0243	-1.0837	0.0042	-0.0089	0.0173	39.5217	-0.0757	8.3360	0.6623	0.0990	0.7378	-0.0854
4.05	-9.5957	0.0201	-1.0731	0.0071	-0.0064	0.0133	39.5082	0.1092	8.0528	0.6622	0.0990	0.7378	-0.0854
4.06	-9.6052	0.0226	-1.0798	-0.0025	-0.0173	0.0124	39.3232	0.0381	7.9742	0.6622	0.0989	0.7378	-0.0854
4.07	-9.6081	0.0161	-1.0820	0.0069	-0.0115	0.0097	39.4827	0.0099	8.1895	0.6622	0.0989	0.7378	-0.0854
4.08	-9.6085	0.0163	-1.0681	0.0001	-0.0111	0.0110	39.4610	-0.0840	8.4715	0.6622	0.0989	0.7378	-0.0854
4.09	-9.6034	0.0109	-1.0792	0.0055	-0.0121	0.0043	39.3097	0.1609	8.3195	0.6622	0.0988	0.7379	-0.0854
4.1	-9.6088	0.0132	-1.0910	0.0115	-0.0086	0.0106	39.3699	0.1920	8.2292	0.6621	0.0988	0.7378	-0.0854
4.11	-9.6112	0.0079	-1.0853	0.0012	-0.0097	0.0119	39.3440	0.1856	8.4799	0.6622	0.0988	0.7379	-0.0854
4.12	-9.6080	0.0023	-1.0842	0.0026	-0.0067	0.0130	39.1950	0.2980	8.4272	0.6622	0.0988	0.7379	-0.0854
4.13	-9.6081	0.0189	-1.0802	-0.0005	-0.0063	0.0137	39.2470	0.2269	8.3915	0.6622	0.0988	0.7380	-0.0854
4.14	-9.6039	0.0204	-1.0808	-0.0000	-0.0049	0.0081	39.2746	0.3800	8.2196	0.6621	0.0988	0.7379	-0.0854
4.15	-9.6067	0.0153	-1.0836	0.0040	-0.0045	0.0113	39.4910	0.3085	8.5341	0.6621	0.0988	0.7380	-0.0854
4.16	-9.5932	0.0169	-1.0718	0.0024	-0.0113	0.0129	39.6390	0.0996	8.6701	0.6621	0.0987	0.7380	-0.0854
4.17	-9.6094	0.0225	-1.0775	0.0055	-0.0153	0.0131	39.4617	0.1092	8.5013	0.6620	0.0987	0.7379	-0.0854
4.18	-9.6113	0.0143	-1.0637	0.0083	-0.0160	0.0154	39.3867	0.2866	8.4241	0.6621	0.0987	0.7380	-0.0854
4.19	-9.5985	0.0225	-1.0660	0.0041	-0.0232	0.0151	39.3668	0.1806	8.4550	0.6621	0.0987	0.7379	-0.0854
4.2	-9.6037	0.0194	-1.0637	0.0131	-0.0151	0.0148	39.2711	-0.0879	8.2113	0.6622	0.0988	0.7380	-0.0855
4.21	-9.6055	0.0133	-1.0556	0.0084	-0.0128	0.0132	39.3526	0.1848	8.0807	0.6621	0.0988	0.7379	-0.0855
4.22	-9.6025	0.0147	-1.0628	0.0119	-0.0134	0.0137	39.3646	0.0964	8.1018	0.6621	0.0988	0.7379	-0.0855
4.23	-9.5965	0.0236	-1.0610	0.0098	-0.0125	0.0136	39.4911	0.0945	8.2645	0.6621	0.0988	0.7379	-0.0855
4.24	-9.6071	0.0339	-1.0670	0.0036	-0.0118	0.0136	39.5331	0.1733	8.2691	0.6621	0.0988	0.7379	-0.0855
4.25	-9.6109	0.0287	-1.0609	0.0076	-0.0140	0.0155	39.4017	0.1297	8.2871	0.6621	0.0988	0.7379	-0.0855
4.26	-9.6069	0.0238	-1.0654	0.0066	-0.0135	0.0160	39.3553	0.0291	8.1005	0.6621	0.0988	0.7379	-0.0855
4.27	-9.6107	0.0286	-1.0713	0.0092	-0.0211	0.0191	39.5178	0.1336	8.1819	0.6622	0.0988	0.7379	-0.0855
4.28	-9.6099	0.0216	-1.0638	0.0082	-0.0207	0.0148	39.5111	0.1388	8.4909	0.6621	0.0988	0.7378	-0.0855
4.29	-9.6032	0.0330	-1.0821	0.0053	-0.0159	0.0108	39.3019	0.3593	8.3029	0.6622	0.0988	0.7379	-0.0856
4.3	-9.5944	0.0287	-1.0786	0.0048	-0.0141	0.0143	39.2655	0.0772	8.2512	0.6622	0.0988	0.7378	-0.0856
4.31	-9.6088	0.0247	-1.0844	0.0013	-0.0061	0.0156	39.5162	0.1261	8.3006	0.6622	0.0988	0.7379	-0.0855
4.32	-9.5957	0.0293	-1.0888	0.0013	-0.0161	0.0129	39.5128	0.1490	8.1469	0.6622	0.0988	0.7378	-0.0855
4.33	-9.6040	0.0333	-1.0820	0.0033	-0.0094	0.0123	39.2900	0.1633	8.3652	0.6622	0.0988	0.7379	-0.0855
4.34	-9.5982	0.0301	-1.0908	0.0040	-0.0081	0.0167	39.5970	0.2545	8.4429	0.6622	0.0988	0.7379	-0.0855
4.35	-9.6058	0.0278	-1.0890	0.0054	-0.0172	0.0101	39.5055	0.2182	8.2196	0.6621	0.0988	0.7378	-0.0855
4.36	-9.6104	0.0204	-1.0935	0.0028	-0.0109	0.0150	39.5205	0.2294	8.4181	0.6622	0.0988	0.7379	-0.0855
4.37	-9.6104	0.0219	-1.0977	0.0135	-0.0181	0.0157	39.3300	0.3802	8.4043	0.6622	0.0988	0.7378	-0.0856
4.38	-9.6154	0.0172	-1.1030	0.0047	-0.0138	0.0152	39.4739	0.3478	8.0594	0.6622	0.0988	0.7379	-0.0856
4.39	-9.6072	0.0107	-1.0996	0.0054	-0.0209	0.0173	39.6155	0.2123	8.2095	0.6622	0.0988	0.7378	-0.0856
4.4	-9.6023	0.0069	-1.0939	0.0049	-0.0124	0.0156	39.4817	0.2312	8.1508	0.6622	0.0988	0.7378	-0.0856
4.41	-9.6071	0.0134	-1.0872	0.0095	-0.0132	0.0168	39.6972	0.0816	8.2684	0.6622	0.0988	0.7378	-0.0856
4.42	-9.6008	0.0038	-1.0932	0.0147	-0.0145	0.0171	39.5918	0.3334	8.2053	0.6622	0.0989	0.7378	-0.0856
4.43	-9.6130	0.0131	-1.0861	0.0143	-0.0202	0.0157	39.5113	0.2904	8.0694	0.6623	0.0989	0.7378	-0.0856
4.44	-9.6063	0.0158	-1.0798	0.0052	-0.0141	0.0159	39.3792	0.1005	8.1084	0.6622	0.0989	0.7378	-0.0856
4.45	-9.6069	0.0183	-1.0749	0.0040	-0.0153	0.0119	39.3373	0.3808	8.3241	0.6623	0.0989	0.7378	-0.0856
4.46	-9.6020	0.0187	-1.0710	0.0134	-0.0214	0.0156	39.4093	0.0203	8.3826	0.6622	0.0989	0.7377	-0.0857
4.47	-9.6110	0.0240	-1.0648	0.0021	-0.0129	0.0197	39.5748	0.1050	8.2353	0.6623	0.0989	0.7377	-0.0856
4.48	-9.6057	0.0190	-1.0718	0.0010	-0.0147	0.0114	39.3817	0.3007	8.3034	0.6623	0.0989	0.7377	-0.0856
4.49	-9.5994	0.0232	-1.0786	0.0026	-0.0189	0.0121	39.3984	0.3726	8.1680	0.6623	0.0989	0.7377	-0.0856
4.5	-9.6011	0.0186	-1.0591	0.0007	-0.0121	0.0159	39.5311	0.4228	8.1861	0.6623	0.0989	0.7377	-0.0856
4.51	-9.6009	0.0215	-1.0689	0.0123	-0.0158	0.0174	39.2835	0.0945	8.2931	0.6623	0.0989	0.7377	-0.0856
4.52	-9.6030	0.0283	-1.0735	0.0074	-0.0147	0.0163	39.6153	0.0886	8.2576	0.6624	0.0989	0.7377	-0.0856
4.53	-9.5981	0.0246	-1.0638	0.0017	-0.0183	0.0094	39.4949	0.3323	8.3427	0.6623	0.0989	0.7376	-0.0856
4.54	-9.5958	0.0299	-1.0587	-0.0008	-0.0194	0.0126	39.5163	0.1114	8.4951	0.6624	0.0989	0.7377	-0.0856
4.55	-9.6107	0.0224	-1.0657	-0.0018	-0.0192	0.0140	39.4738	0.3127	8.3544	0.6624	0.0988	0.7376	-0.0856
4.56	-9.6078	0.0218	-1.0595	0.0032	-0.0229	0.0201	39.3921	0.2668	8.1622	0.6625	0.0988	0.7376	-0.0856
4.57	-9.6097	0.0163	-1.0638	-0.0019	-0.0158	0.0174	39.5500	0.1009	8.1902	0.6625	0.0988	0.7376	-0.0856
4.58	-9.6145	0.0224	-1.0683	0.0073	-0.0185	0.0213	39.5807	0.1033	8.1964	0.6625	0.0989	0.7376	-0.0856
4.59	-9.6108	0.0202	-1.0618	-0.0011	-0.0214	0.0172	39.6317	0.1196	8.3586	0.6625	0.0989	0.7376	-0.0855
4.6	-9.6010	0.0225	-1.0614	0.0099	-0.0152	0.0138	39.4118	0.0173	8.3714	0.6625	0.0988	0.7375	-0.0855
4.61	-9.6033	0.0302	-1.0800	0.0124	-0.0136	0.0177	39.3689	0.2907	8.2410	0.6626	0.0989	0.7376	-0.0856
4.62	-9.6109	0.0276	-1.0741	0.0044	-0.0142	0.0159	39.4045	0.0105	8.2993	0.6625	0.0989	0.7375	-0.0856
4.63	-9.6053	0.0226	-1.0829	0.0023	-0.0137	0.0184	39.1353	-0.0025	8.1981	0.6626	0.0989	0.7376	-0.0856
4.64	-9.6082	0.0285	-1.0818	-0.0003	-0.0106	0.0158	39.3702	0.2601	8.1508	0.6625	0.0989	0.7375	-0.0855
4.65	-9.6121	0.0297	-1.0887	0.0086	-0.0152	0.0182	39.6696	0.3178	8.5694	0.6626	0.0989	0.7375	-0.0855
4.66	-9.6001	0.0194	-1.0930	-0.0033	-0.0124	0.0135	39.9525	0.1554	8.4577	0.6626	0.0989	0.7375	-0.0855
4.67	-9.5980	0.0255	-1.0938	-0.0027	-0.0109	0.0158	39.7458	0.1635	8.5051	0.6625	0.0989	0.7375	-0.0855
4.68	-9.6081	0.0224	-1.0914	0.0005	-0.0125	0.0090	39.3737	0.3451	8.5934	0.6626	0.0988	0.7376	-0.0855
4.69	-9.6100	0.0256	-1.0991	0.0063	-0.0087	0.0118	39.2451	0.3753	8.2415	0.6625	0.0988	0.7375	-0.0855
4.7	-9.6032	0.0260	-1.0904	-0.0007	-0.0087	0.0074	39.0874	0.4056	8.4713	0.6626	0.0988	0.7376	-0.0855
4.71	-9.6052	0.0182	-1.0769	0.0036	-0.0085	0.0110	39.3198	0.0412	8.1652	0.6625	0.0988	0.7375	-0.0855
4.72	-9.6118	0.0251	-1.0949	-0.0015	-0.0139	0.0143	39.2497	0.3312	8.1460	0.6625	0.0987	0.7376	-0.0855
4.73	-9.6017	0.0199	-1.0824	-0.0020	-0.0051	0.0148	39.2298	0.2971	8.2269	0.6625	0.0987	0.7376	-0.0854
4.74	-9.6045	0.0246	-1.0828	0.0035	-0.0098	0.0125	39.3458	0.1834	8.5532	0.6625	0.0987	0.7376	-0.0854
4.75	-9.6125	0.0210	-1.0776	0.0048	-0.0126	0.0145	39.5632	-0.0183	8.4194	0.6625	0.0987	0.7376	-0.0854
4.76	-9.6089	0.0218	-1.0750	0.0049	-0.0156	0.0167	39.4713	0.0350	8.2008	0.6625	0.0987	0.7376	-0.0854
4.77	-9.6070	0.0181	-1.0718	0.0037	-0.0155	0.0120	39.3080	-0.0672	8.1351	0.6625	0.0987	0.7376	-0.0854
4.78	-9.6049	0.0160	-1.0764	0.0012	-0.0076	0.0067	39.5492	-0.0081	7.9715	0.6624	0.0987	0.7376	-0.0854
4.79	-9.6100	0.0193	-1.0709	0.0079	-0.0084	0.0152	39.6331	0.0372	8.1502	0.6625	0.0987	0.7377	-0.0854
4.8	-9.5989	0.0108	-1.0639	0.0058	-0.0076	0.0149	39.4324	-0.0283	8.3208	0.6624	0.0987	0.7376	-0.0854
4.81	-9.6082	0.0124	-1.0712	0.0049	-0.0134	0.0119	39.5312	0.1021	8.1647	0.6625	0.0987	0.7377	-0.0855
4.82	-9.6078	0.0112	-1.0721	-0.0040	-0.0091	0.0090	39.5123	0.0736	8.2688	0.6624	0.0986	0.7377	-0.0854
4.83	-9.6042	0.0068	-1.0554	0.0102	-0.0131	0.0112	39.5729	0.0216	8.2767	0.6624	0.0986	0.7377	-0.0855
4.84	-9.5955	0.0205	-1.0635	0.0044	-0.0128	0.0157	39.3825	0.1185	8.2378	0.6624	0.0986	0.7377	-0.0855
4.85	-9.5917	0.0291	-1.0708	0.0012	-0.0111	0.0108	39.1544	0.0628	8.3530	0.6624	0.0986	0.7376	-0.0855
4.86	-9.5994	0.0196	-1.0677	0.0048	-0.0068	0.0138	39.3264	0.1939	8.3305	0.6624	0.0986	0.7377	-0.0855
4.87	-9.5987	0.0255	-1.0741	-0.0014	-0.0147	0.0150	39.5323	0.1704	8.3861	0.6624	0.0986	0.7377	-0.0854
4.88	-9.6094	0.0176	-1.0725	0.0018	-0.0116	0.0145	39.4388	0.3863	8.2096	0.6625	0.0986	0.7378	-0.0854
4.89	-9.5912	0.0212	-1.0801	-0.0015	-0.0057	0.0024	39.1614	0.1304	8.0524	0.6623	0.0985	0.7377	-0.0854
4.9	-9.6022	0.0232	-1.0778	0.0073	-0.0077	0.0110	39.2525	0.1022	8.2171	0.6624	0.0985	0.7378	-0.0855
4.91	-9.6017	0.0175	-1.0737	0.0017	-0.0077	0.0142	39.2953	0.1919	8.2945	0.6623	0.0985	0.7378	-0.0854
4.92	-9.6000	0.0179	-1.0783	0.0007	-0.0099	0.0155	39.2882	0.1619	8.1446	0.6623	0.0985	0.7377	-0.0854
4.93	-9.6084	0.0154	-1.0789	0.0036	-0.0083	0.0119	39.2795	0.1690	8.3022	0.6624	0.0985	0.7379	-0.0854
4.94	-9.6096	0.0195	-1.0652	0.0042	-0.0080	0.0095	39.4500	0.0494	8.3239	0.6623	0.0985	0.7378	-0.0854
4.95	-9.6024	0.0176	-1.0945	0.0071	-0.0081	0.0143	39.8034	-0.0590	8.2624	0.6623	0.0985	0.7379	-0.0854
4.96	-9.6016	0.0233	-1.0753	0.0004	-0.0127	0.0136	39.6746	-0.0733	8.1949	0.6622	0.0984	0.7378	-0.0854
4.97	-9.5991	0.0219	-1.0772	0.0087	-0.0115	0.0105	39.6072	0.0304	8.1746	0.6623	0.0984	0.7379	-0.0855
4.98	-9.5950	0.0260	-1.0855	0.0089	-0.0075	0.0130	39.5882	0.0067	8.1760	0.6622	0.0984	0.7379	-0.0855
4.99	-9.6030	0.0253	-1.0889	0.0012	-0.0054	0.0121	39.4347	0.0055	8.2416	0.6622	0.0984	0.7379	-0.0855
5	-9.6084	0.0308	-1.0839	0.0035	-0.0108	0.0082	39.4575	0.0151	8.2946	0.6622	0.0984	0.7379	-0.0855
5.01	-9.5971	0.0197	-1.0777	0.0021	-0.0094	0.0078	39.4390	0.1123	8.2157	0.6622	0.0984	0.7379	-0.0855
5.02	-9.6049	0.0142	-1.0902	0.0033	-0.0108	0.0184	39.4705	0.0801	8.1633	0.6622	0.0984	0.7379	-0.0855
5.03	-9.6051	0.0225	-1.0806	0.0058	-0.0077	0.0123	39.3728	0.0970	8.1833	0.6621	0.0984	0.7379	-0.0855
5.04	-9.5896	0.0172	-1.0750	0.0050	-0.0070	0.0144	39.1707	0.0773	8.0601	0.6622	0.0984	0.7380	-0.0855
5.05	-9.5987	0.0092	-1.0807	0.0079	-0.0083	0.0089	39.4046	0.0993	8.2612	0.6621	0.0984	0.7380	-0.0855
5.06	-9.6065	0.0101	-1.0845	0.0080	-0.0089	0.0125	39.4788	0.0722	8.2540	0.6621	0.0984	0.7380	-0.0855
5.07	-9.6026	0.0143	-1.0880	0.0013	-0.0105	0.0109	39.3485	0.1892	8.2849	0.6621	0.0983	0.7380	-0.0855
5.08	-9.5984	0.0143	-1.0953	-0.0015	-0.0049	0.0079	39.1613	0.2632	7.9532	0.6621	0.0983	0.7380	-0.0855
5.09	-9.5994	0.0160	-1.0946	-0.0001	-0.0071	0.0132	39.4725	0.2543	8.1319	0.6621	0.0983	0.7381	-0.0855
5.1	-9.6021	0.0096	-1.0931	-0.0001	-0.0044	0.0079	39.2967	0.2469	8.1660	0.6620	0.0982	0.7380	-0.0855
5.11	-9.6061	0.0220	-1.0914	0.0035	-0.0179	0.0126	39.1894	0.2665	8.2947	0.6621	0.0982	0.7381	-0.0855
5.12	-9.6071	0.0212	-1.0818	0.0032	-0.0107	0.0109	39.2109	0.0617	8.4591	0.6620	0.0982	0.7381	-0.0855
5.13	-9.6059	0.0205	-1.0788	0.0009	-0.0095	0.0102	39.6900	-0.0164	8.2397	0.6621	0.0982	0.7382	-0.0855
5.14	-9.6072	0.0199	-1.0812	-0.0016	-0.0151	0.0117	39.5993	0.0972	8.2871	0.6620	0.0981	0.7381	-0.0855
5.15	-9.5958	0.0150	-1.0752	-0.0019	-0.0176	0.0081	39.6405	0.2257	8.2461	0.6620	0.0981	0.7381	-0.0855
5.16	-9.6059	0.0189	-1.0776	0.0086	-0.0172	0.0150	39.9956	0.0885	8.6668	0.6621	0.0981	0.7381	-0.0855
5.17	-9.5988	0.0181	-1.0822	0.0097	-0.0259	0.0130	39.7434	0.2097	8.4116	0.6621	0.0981	0.7380	-0.0855
5.18	-9.5908	0.0144	-1.0782	0.0082	-0.0166	0.0125	39.6296	0.1246	8.3515	0.6622	0.0981	0.7381	-0.0856
5.19	-9.6055	0.0262	-1.0716	0.0144	-0.0158	0.0169	39.3042	-0.0048	8.2002	0.6621	0.0981	0.7380	-0.0856
5.2	-9.6041	0.0157	-1.0668	0.0133	-0.0171	0.0141	39.4324	0.2756	8.1029	0.6622	0.0982	0.7380	-0.0856
5.21	-9.6014	0.0189	-1.0733	0.0068	-0.0138	0.0174	39.4126	0.1406	8.3440	0.6621	0.0982	0.7379	-0.0856
5.22	-9.6004	0.0291	-1.0726	0.0108	-0.0117	0.0122	39.4688	0.0319	8.2290	0.6621	0.0982	0.7380	-0.0856
5.23	-9.6116	0.0244	-1.0662	0.0035	-0.0185	0.0139	39.3128	0.1471	8.2056	0.6621	0.0982	0.7380	-0.0856
5.24	-9.5998	0.0368	-1.0643	0.0055	-0.0178	0.0127	39.3173	0.3432	8.1520	0.6621	0.0982	0.7379	-0.0856
5.25	-9.5910	0.0291	-1.0719	0.0075	-0.0095	0.0121	39.3563	0.2104	8.3355	0.6622	0.0982	0.7380	-0.0857
5.26	-9.6025	0.0310	-1.0716	0.0085	-0.0127	0.0127	39.2387	0.2300	8.4437	0.6621	0.0982	0.7380	-0.0857
5.27	-9.6015	0.0287	-1.0852	0.0072	-0.0113	0.0145	39.2365	0.0328	8.3456	0.6622	0.0982	0.7380	-0.0857
5.28	-9.5932	0.0208	-1.0674	0.0072	-0.0132	0.0164	39.1349	0.2173	8.3661	0.6621	0.0982	0.7379	-0.0857
5.29	-9.5959	0.0189	-1.0728	0.0033	-0.0110	0.0133	39.3350	0.3502	8.2799	0.6621	0.0982	0.7380	-0.0857
5.3	-9.6107	0.0157	-1.0694	0.0081	-0.0138	0.0159	39.1611	0.2474	8.2123	0.6621	0.0982	0.7380	-0.0857
5.31	-9.6092	0.0135	-1.0724	0.0102	-0.0166	0.0138	39.3646	-0.0361	8.2619	0.6621	0.0982	0.7380	-0.0857
5.32	-9.6022	0.0179	-1.0806	0.0080	-0.0164	0.0171	39.6397	0.0878	8.2981	0.6621	0.0982	0.7379	-0.0857
5.33	-9.6049	0.0047	-1.0806	0.0055	-0.0189	0.0128	39.5507	-0.0598	8.1829	0.6622	0.0982	0.7379	-0.0857
5.34	-9.6033	0.0071	-1.0913	0.0058	-0.0129	0.0115	39.4662	0.0674	8.1914	0.6622	0.0982	0.7379	-0.0857
5.35	-9.6093	0.0081	-1.0873	0.0119	-0.0153	0.0180	39.3370	0.0364	8.2913	0.6621	0.0983	0.7379	-0.0858
5.36	-9.6007	0.0052	-1.0901	0.0094	-0.0147	0.0135	39.2648	0.3040	8.1568	0.6622	0.0983	0.7379	-0.0858
5.37	-9.6085	0.0120	-1.0863	0.0041	-0.0177	0.0163	39.2619	0.2393	8.2512	0.6622	0.0983	0.7379	-0.0858
5.38	-9.5962	0.0187	-1.0970	0.0085	-0.0119	0.0113	39.3060	0.0955	8.2360	0.6622	0.0983	0.7380	-0.0858
5.39	-9.5934	0.0185	-1.0773	0.0127	-0.0149	0.0153	39.5454	0.2688	8.1604	0.6622	0.0983	0.7378	-0.0858
5.4	-9.6101	0.0152	-1.0829	0.0057	-0.0139	0.0133	39.3636	-0.0110	8.3513	0.6622	0.0983	0.7379	-0.0858
5.41	-9.6102	0.0249	-1.0955	0.0025	-0.0150	0.0140	39.3649	0.1712	8.1840	0.6622	0.0983	0.7379	-0.0858
5.42	-9.5960	0.0257	-1.0885	0.0077	-0.0190	0.0148	39.2611	0.3421	8.2657	0.6622	0.0983	0.7378	-0.0858
5.43	-9.6085	0.0222	-1.0835	0.0036	-0.0137	0.0114	39.2781	0.1867	8.3764	0.6623	0.0983	0.7379	-0.0859
5.44	-9.6099	0.0219	-1.0772	0.0026	-0.0157	0.0169	39.2401	0.2902	8.1030	0.6622	0.0983	0.7378	-0.0858
5.45	-9.5948	0.0210	-1.0808	0.0115	-0.0145	0.0145	39.3582	0.2743	8.3127	0.6623	0.0983	0.7379	-0.0859
5.46	-9.5938	0.0177	-1.0766	0.0043	-0.0101	0.0179	39.2474	0.1230	8.1591	0.6622	0.0983	0.7378	-0.0858
5.47	-9.5957	0.0276	-1.0731	0.0091	-0.0160	0.0132	39.3081	0.2587	8.3482	0.6622	0.0983	0.7379	-0.0859
5.48	-9.6050	0.0252	-1.0769	0.0091	-0.0105	0.0136	39.3055	0.2100	8.4890	0.6622	0.0983	0.7378	-0.0859
5.49	-9.6060	0.0251	-1.0690	0.0173	-0.0178	0.0163	39.5560	0.2573	8.4384	0.6622	0.0984	0.7378	-0.0859
5.5	-9.6011	0.0213	-1.0629	0.0071	-0.0164	0.0157	39.5975	0.1273	8.4821	0.6623	0.0984	0.7378	-0.0859
5.51	-9.6065	0.0203	-1.0671	0.0021	-0.0156	0.0119	39.3609	0.0560	8.1729	0.6622	0.0984	0.7378	-0.0859
5.52	-9.6035	0.0282	-1.0690	0.0074	-0.0173	0.0163	39.4867	0.2662	8.2718	0.6623	0.0984	0.7378	-0.0859
5.53	-9.5960	0.0258	-1.0747	0.0046	-0.0163	0.0137	39.2961	0.0737	8.2764	0.6622	0.0984	0.7377	-0.0859
5.54	-9.6067	0.0328	-1.0681	0.0050	-0.0157	0.0176	39.5046	-0.1526	8.3176	0.6623	0.0984	0.7378	-0.0859
5.55	-9.6002	0.0278	-1.0719	0.0072	-0.0183	0.0134	39.5824	-0.0204	8.3817	0.6623	0.0984	0.7377	-0.0859
5.56	-9.6003	0.0262	-1.0679	-0.0012	-0.0220	0.0172	39.4239	0.2286	8.1573	0.6624	0.0984	0.7377	-0.0859
5.57	-9.6016	0.0230	-1.0702	0.0058	-0.0175	0.0161	39.3450	0.2469	8.3039	0.6623	0.0984	0.7377	-0.0859
5.58	-9.5952	0.0174	-1.0603	0.0037	-0.0188	0.0163	39.2308	0.0833	8.3824	0.6624	0.0984	0.7377	-0.0859
5.59	-9.6021	0.0176	-1.0699	-0.0020	-0.0168	0.0172	39.3055	0.2540	8.1415	0.6624	0.0984	0.7377	-0.0859
5.6	-9.6035	0.0113	-1.0745	0.0052	-0.0197	0.0127	39.1730	0.1161	8.0644	0.6624	0.0984	0.7376	-0.0859
5.61	-9.6070	0.0245	-1.0864	-0.0018	-0.0120	0.0144	39.2084	0.2024	8.2478	0.6625	0.0984	0.7377	-0.0859
5.62	-9.6067	0.0279	-1.0757	0.0041	-0.0202	0.0152	39.2788	0.1435	8.4045	0.6624	0.0983	0.7376	-0.0859
5.63	-9.6064	0.0135	-1.0794	0.0030	-0.0143	0.0139	39.2657	0.0842	8.3403	0.6625	0.0983	0.7377	-0.0859
5.64	-9.6058	0.0170	-1.0888	-0.0022	-0.0170	0.0180	39.2437	0.2527	8.4733	0.6624	0.0983	0.7376	-0.0858
5.65	-9.6087	0.0126	-1.0799	0.0038	-0.0191	0.0169	39.5146	0.1339	8.3241	0.6625	0.0983	0.7376	-0.0858
5.66	-9.5962	0.0123	-1.0837	-0.0008	-0.0177	0.0137	39.9491	0.3121	8.2697	0.6625	0.0983	0.7376	-0.0858
5.67	-9.6021	0.0157	-1.0785	-0.0025	-0.0134	0.0138	39.7431	0.3950	8.3269	0.6625	0.0983	0.7376	-0.0858
5.68	-9.6113	0.0066	-1.0690	-0.0002	-0.0139	0.0173	39.3983	0.2495	8.3236	0.6626	0.0983	0.7377	-0.0857
5.69	-9.6109	0.0128	-1.0855	-0.0014	-0.0218	0.0142	39.2975	-0.0372	8.2444	0.6626	0.0982	0.7376	-0.0857
5.7	-9.6043	0.0104	-1.0797	0.0011	-0.0121	0.0108	39.4171	0.0551	8.0860	0.6626	0.0982	0.7376	-0.0857
5.71	-9.6084	0.0076	-1.0927	0.0023	-0.0153	0.0146	39.6259	-0.0555	8.1817	0.6625	0.0982	0.7375	-0.0857
5.72	-9.6066	-0.0010	-1.0879	0.0040	-0.0106	0.0166	39.7940	-0.1715	8.3237	0.6626	0.0982	0.7376	-0.0857
5.73	-9.6132	0.0090	-1.0765	0.0038	-0.0157	0.0169	39.4259	-0.0558	8.2270	0.6626	0.0982	0.7376	-0.0857
5.74	-9.6068	0.0184	-1.0804	0.0050	-0.0112	0.0107	39.3033	0.1280	8.3835	0.6626	0.0982	0.7376	-0.0857
5.75	-9.6110	0.0236	-1.0666	0.0016	-0.0178	0.0143	39.5908	0.0962	8.2238	0.6626	0.0982	0.7376	-0.0857
5.76	-9.5980	0.0296	-1.0801	0.0017	-0.0195	0.0148	39.6822	0.1272	8.2324	0.6626	0.0982	0.7375	-0.0857
5.77	-9.6102	0.0248	-1.0694	0.0027	-0.0111	0.0106	39.3509	0.0816	8.4265	0.6626	0.0982	0.7376	-0.0857
5.78	-9.6034	0.0232	-1.0678	0.0060	-0.0168	0.0119	39.3798	0.1988	8.2212	0.6626	0.0982	0.7375	-0.0857
5.79	-9.6014	0.0283	-1.0794	0.0050	-0.0082	0.0137	39.1472	0.1715	8.4029	0.6626	0.0982	0.7376	-0.0857
5.8	-9.6088	0.0237	-1.0666	0.0032	-0.0094	0.0102	39.2694	0.2102	8.2760	0.6626	0.0981	0.7376	-0.0857
5.81	-9.6021	0.0148	-1.0660	0.0024	-0.0113	0.0118	39.2749	0.0990	8.2785	0.6626	0.0981	0.7376	-0.0857
5.82	-9.6118	0.0062	-1.0795	0.0017	-0.0091	0.0052	39.3821	0.1951	8.1539	0.6625	0.0981	0.7376	-0.0857
5.83	-9.5972	0.0103	-1.0543	0.0023	-0.0195	0.0178	39.4496	0.2971	8.2135	0.6626	0.0981	0.7376	-0.0857
5.84	-9.6073	0.0243	-1.0677	0.0019	-0.0124	0.0075	39.1053	0.2502	8.2698	0.6626	0.0981	0.7376	-0.0857
5.85	-9.6085	0.0174	-1.0763	-0.0028	-0.0099	0.0102	39.2036	0.2779	8.2673	0.6625	0.0980	0.7375	-0.0857
5.86	-9.6021	0.0126	-1.0597	0.0106	-0.0189	0.0100	39.1998	0.2568	8.1347	0.6626	0.0980	0.7376	-0.0857
5.87	-9.6078	0.0182	-1.0582	0.0109	-0.0178	0.0117	39.5086	0.1457	8.2416	0.6626	0.0980	0.7376	-0.0858
5.88	-9.6087	0.0181	-1.0647	0.0030	-0.0095	0.0106	39.4716	0.0458	8.0041	0.6626	0.0980	0.7376	-0.0858
5.89	-9.5990	0.0281	-1.0601	0.0019	-0.0165	0.0116	39.5242	-0.0741	8.1214	0.6626	0.0980	0.7375	-0.0858
5.9	-9.5997	0.0228	-1.0756	-0.0007	-0.0079	0.0094	39.4180	0.0716	8.1563	0.6626	0.0980	0.7376	-0.0858
5.91	-9.6009	0.0318	-1.0745	-0.0008	-0.0082	0.0131	39.5150	0.1241	8.1254	0.6626	0.0979	0.7376	-0.0858
5.92	-9.6106	0.0251	-1.0810	0.0018	-0.0118	0.0114	39.4698	0.0904	8.2019	0.6625	0.0979	0.7376	-0.0857
5.93	-9.6035	0.0129	-1.0867	0.0008	-0.0087	0.0148	39.4278	0.2192	8.1813	0.6626	0.0979	0.7377	-0.0857
5.94	-9.6030	0.0159	-1.0729	0.0011	-0.0139	0.0159	39.3412	0.0120	8.2872	0.6625	0.0979	0.7376	-0.0857
5.95	-9.6035	0.0133	-1.0723	0.0038	-0.0131	0.0178	39.4220	-0.1048	8.2891	0.6626	0.0979	0.7377	-0.0857
5.96	-9.6087	0.0018	-1.0754	0.0018	-0.0170	0.0142	39.4833	0.0479	8.1613	0.6625	0.0979	0.7376	-0.0857
5.97	-9.6072	-0.0046	-1.0642	0.0085	-0.0105	0.0169	39.1881	0.2091	8.2180	0.6626	0.0979	0.7376	-0.0857
5.98	-9.6103	-0.0037	-1.0745	0.0071	-0.0073	0.0150	39.2896	0.1660	8.4023	0.6625	0.0979	0.7376	-0.0857
5.99	-9.6097	0.0108	-1.0798	0.0029	-0.0090	0.0095	39.4422	-0.0248	8.2870	0.6625	0.0979	0.7376	-0.0857
6	-9.5993	0.0147	-1.0785	0.0017	-0.0068	0.0174	39.5548	0.2590	8.1428	0.6625	0.0979	0.7377	-0.0857
6.01	-9.6074	0.0310	-1.0919	0.0025	-0.0119	0.0143	39.5952	0.3433	7.9878	0.6625	0.0979	0.7377	-0.0857
6.02	-9.6130	0.0197	-1.1016	0.0023	-0.0105	0.0165	39.2942	0.2622	8.3808	0.6625	0.0979	0.7377	-0.0857
6.03	-9.6011	0.0256	-1.0842	-0.0019	-0.0076	0.0133	39.1898	0.1796	8.2508	0.6624	0.0979	0.7377	-0.0856
6.04	-9.6069	0.0368	-1.0880	-0.0023	-0.0072	0.0110	39.3182	0.2143	8.2671	0.6625	0.0978	0.7378	-0.0856
6.05	-9.6094	0.0264	-1.0953	0.0055	-0.0110	0.0159	39.3725	0.3898	8.2532	0.6624	0.0978	0.7377	-0.0856
6.06	-9.6063	0.0426	-1.1011	0.0110	-0.0172	0.0139	39.4023	-0.1639	8.2903	0.6625	0.0979	0.7378	-0.0856
6.07	-9.6030	0.0620	-1.1004	0.0044	-0.0169	0.0134	39.5788	-0.1296	8.1771	0.6624	0.0979	0.7377	-0.0856
6.08	-9.6070	0.0581	-1.0933	0.0092	-0.0072	0.0149	39.3416	0.0806	8.1909	0.6624	0.0979	0.7377	-0.0856
6.09	-9.6080	0.0673	-1.1015	0.0039	-0.0098	0.0162	39.3246	-0.0589	8.1623	0.6624	0.0979	0.7378	-0.0856
6.1	-9.6063	0.0674	-1.0946	0.0016	-0.0101	0.0150	39.7229	0.0049	8.2819	0.6624	0.0979	0.7377	-0.0856
6.11	-9.6036	0.0580	-1.0946	-0.0027	-0.0144	0.0135	39.6679	0.1615	8.2652	0.6625	0.0979	0.7378	-0.0856
6.12	-9.6100	0.0603	-1.0911	0.0043	-0.0196	0.0115	39.2914	0.1681	8.2837	0.6624	0.0978	0.7377	-0.0856
6.13	-9.5976	0.0373	-1.0731	0.0012	-0.0123	0.0122	39.3383	0.0251	8.1973	0.6625	0.0978	0.7378	-0.0856
6.14	-9.6023	0.0342	-1.0830	0.0003	-0.0083	0.0124	39.4533	0.0057	8.1623	0.6624	0.0978	0.7377	-0.0856
6.15	-9.6030	0.0308	-1.0735	0.0012	-0.0163	0.0114	39.6657	0.1814	8.5594	0.6624	0.0978	0.7378	-0.0856
6.16	-9.6019	0.0304	-1.0817	-0.0001	-0.0082	0.0127	39.8055	0.3200	8.6531	0.6624	0.0977	0.7378	-0.0856
6.17	-9.5975	0.0172	-1.0792	0.0012	-0.0169	0.0084	39.6509	0.2091	8.5259	0.6624	0.0977	0.7377	-0.0856
6.18	-9.5990	0.0127	-1.0737	0.0051	-0.0189	0.0157	39.5995	0.1459	8.3222	0.6625	0.0977	0.7378	-0.0856
6.19	-9.6101	0.0119	-1.0682	0.0114	-0.0192	0.0130	39.4976	0.1920	8.2872	0.6625	0.0977	0.7377	-0.0856
6.2	-9.6125	0.0072	-1.0597	0.0008	-0.0182	0.0105	39.2492	0.2127	8.2728	0.6625	0.0977	0.7378	-0.0856
6.21	-9.5962	0.0047	-1.0520	0.0063	-0.0154	0.0152	39.3169	0.2399	8.2909	0.6624	0.0977	0.7377	-0.0856
6.22	-9.6026	-0.0065	-1.0589	0.0083	-0.0110	0.0137	39.5643	0.1770	8.1584	0.6625	0.0977	0.7377	-0.0856
6.23	-9.6088	-0.0063	-1.0581	0.0081	-0.0173	0.0145	39.3748	0.0175	8.4248	0.6625	0.0977	0.7377	-0.0856
6.24	-9.6001	-0.0087	-1.0504	0.0049	-0.0157	0.0131	39.3457	0.0690	8.1883	0.6625	0.0977	0.7377	-0.0856
6.25	-9.6013	-0.0048	-1.0483	0.0072	-0.0162	0.0161	39.6518	0.0594	8.2297	0.6625	0.0977	0.7377	-0.0856
6.26	-9.5983	-0.0040	-1.0540	0.0129	-0.0196	0.0147	39.4747	0.1675	8.3841	0.6625	0.0978	0.7377	-0.0857
6.27	-9.5975	-0.0094	-1.0421	0.0088	-0.0151	0.0177	39.6035	0.1278	8.2431	0.6626	0.0978	0.7377	-0.0857
6.28	-9.6001	-0.0116	-1.0414	-0.0005	-0.0181	0.0144	39.7392	0.1567	8.3219	0.6625	0.0978	0.7376	-0.0857
6.29	-9.6030	0.0040	-1.0563	0.0014	-0.0143	0.0170	39.6628	0.1357	8.1596	0.6626	0.0978	0.7377	-0.0856
6.3	-9.6009	0.0081	-1.0556	-0.0000	-0.0194	0.0139	39.4269	0.1495	8.3977	0.6626	0.0977	0.7376	-0.0856
6.31	-9.6015	0.0167	-1.0612	0.0004	-0.0172	0.0119	39.2792	0.1144	8.2806	0.6626	0.0977	0.7376	-0.0856
6.32	-9.6061	0.0280	-1.0715	-0.0000	-0.0108	0.0145	39.4354	0.2462	8.2887	0.6626	0.0977	0.7376	-0.0856
6.33	-9.5982	0.0311	-1.0748	-0.0021	-0.0197	0.0131	39.5216	0.1894	8.3853	0.6626	0.0977	0.7376	-0.0856
6.34	-9.6061	0.0415	-1.0805	0.0138	-0.0162	0.0148	39.3902	0.1190	8.3838	0.6626	0.0977	0.7376	-0.0856
6.35	-9.6114	0.0463	-1.0978	0.0073	-0.0087	0.0131	39.2723	0.1455	8.2787	0.6626	0.0977	0.7375	-0.0856
6.36	-9.6113	0.0284	-1.1111	0.0062	-0.0087	0.0143	39.5747	0.1359	8.2966	0.6626	0.0977	0.7377	-0.0856
6.37	-9.6077	0.0292	-1.1156	0.0074	-0.0066	0.0137	39.5120	0.1450	8.4037	0.6626	0.0977	0.7376	-0.0856
6.38	-9.6029	0.0328	-1.1220	0.0123	-0.0178	0.0180	39.2934	0.1322	8.3436	0.6626	0.0978	0.7377	-0.0857
6.39	-9.6097	0.0268	-1.1145	0.0086	-0.0111	0.0165	39.4337	0.1412	8.4726	0.6625	0.0978	0.7376	-0.0857
6.4	-9.6102	0.0189	-1.1121	0.0039	-0.0095	0.0179	39.3702	0.1353	8.4538	0.6626	0.0978	0.7376	-0.0856
6.41	-9.6047	0.0261	-1.1013	0.0054	-0.0157	0.0116	39.3324	0.3130	8.2657	0.6626	0.0978	0.7376	-0.0857
6.42	-9.6029	0.0303	-1.0988	0.0081	-0.0109	0.0123	39.5813	0.2360	8.3746	0.6625	0.0978	0.7376	-0.0857
6.43	-9.6116	0.0350	-1.0980	0.0089	-0.0220	0.0144	39.5721	0.1286	8.2723	0.6626	0.0978	0.7377	-0.0857
6.44	-9.6082	0.0339	-1.0771	0.0097	-0.0133	0.0188	39.4459	0.1354	8.3077	0.6626	0.0978	0.7376	-0.0857
6.45	-9.6066	0.0422	-1.0674	-0.0005	-0.0147	0.0165	39.5852	0.1848	8.2073	0.6626	0.0978	0.7376	-0.0857
6.46	-9.6111	0.0275	-1.0704	0.0077	-0.0116	0.0148	39.4834	0.3345	8.2664	0.6625	0.0978	0.7375	-0.0857
6.47	-9.6054	0.0298	-1.0686	0.0035	-0.0152	0.0169	39.4989	0.1739	8.3027	0.6626	0.0978	0.7376	-0.0857
6.48	-9.5972	0.0122	-1.0575	-0.0018	-0.0169	0.0171	39.4712	0.1332	8.2495	0.6626	0.0978	0.7376	-0.0856
6.49	-9.6078	0.0155	-1.0586	0.0082	-0.0179	0.0147	39.5838	0.1377	8.1011	0.6626	0.0978	0.7376	-0.0856
6.5	-9.6053	-0.0002	-1.0624	0.0108	-0.0130	0.0169	39.4785	0.2340	8.1178	0.6626	0.0979	0.7376	-0.0857
6.51	-9.6083	-0.0041	-1.0525	0.0041	-0.0165	0.0125	39.5228	0.2128	8.2216	0.6626	0.0979	0.7376	-0.0857
6.52	-9.6090	-0.0134	-1.0467	0.0023	-0.0185	0.0133	39.3957	0.0494	8.1714	0.6627	0.0978	0.7376	-0.0857
6.53	-9.6005	-0.0123	-1.0496	0.0047	-0.0150	0.0159	39.2131	0.0592	8.3480	0.6626	0.0978	0.7375	-0.0856
6.54	-9.5990	0.0015	-1.0586	0.0011	-0.0153	0.0152	39.3651	0.1336	8.5257	0.6627	0.0978	0.7376	-0.0856
6.55	-9.5968	0.0169	-1.0569	0.0013	-0.0185	0.0166	39.4301	0.1791	8.3343	0.6627	0.0978	0.7375	-0.0856
6.56	-9.6071	0.0328	-1.0588	0.0040	-0.0149	0.0175	39.3799	0.2457	8.2760	0.6627	0.0978	0.7375	-0.0856
6.57	-9.6098	0.0421	-1.0636	0.0052	-0.0148	0.0138	39.5379	0.1331	8.2590	0.6627	0.0978	0.7375	-0.0856
6.58	-9.6007	0.0550	-1.0603	-0.0021	-0.0181	0.0098	39.3003	0.0063	8.3661	0.6627	0.0978	0.7375	-0.0856
6.59	-9.6008	0.0434	-1.0688	0.0023	-0.0134	0.0138	39.4858	0.1705	8.4421	0.6627	0.0978	0.7375	-0.0856
6.6	-9.6125	0.0461	-1.0788	0.0051	-0.0126	0.0151	39.6221	0.2716	8.3376	0.6627	0.0978	0.7374	-0.0856
6.61	-9.6016	0.0183	-1.0790	0.0003	-0.0133	0.0144	39.3488	-0.0133	8.3891	0.6628	0.0978	0.7375	-0.0856
6.62	-9.6091	0.0213	-1.0698	0.0093	-0.0079	0.0122	39.4618	0.1337	8.3782	0.6627	0.0978	0.7375	-0.0856
6.63	-9.6134	0.0216	-1.0985	0.0059	-0.0162	0.0170	39.5315	0.0940	8.3143	0.6628	0.0978	0.7376	-0.0856
6.64	-9.6109	0.0160	-1.0940	0.0094	-0.0173	0.0161	39.2913	-0.0562	8.2637	0.6627	0.0978	0.7374	-0.0856
6.65	-9.6009	0.0060	-1.0848	0.0109	-0.0124	0.0170	39.5942	0.1117	8.4294	0.6627	0.0978	0.7375	-0.0856
6.66	-9.6066	0.0073	-1.0795	0.0051	-0.0131	0.0153	39.7927	0.3343	8.4785	0.6627	0.0978	0.7375	-0.0856
6.67	-9.6125	0.0191	-1.1032	0.0033	-0.0149	0.0137	39.6053	0.2062	8.4118	0.6627	0.0978	0.7374	-0.0856
6.68	-9.5961	0.0224	-1.0950	0.0029	-0.0099	0.0126	39.5157	0.0929	8.4228	0.6628	0.0978	0.7376	-0.0856
6.69	-9.6077	0.0254	-1.0818	0.0110	-0.0069	0.0125	39.1538	0.1336	8.1642	0.6627	0.0978	0.7375	-0.0856
6.7	-9.6090	0.0287	-1.0910	0.0011	-0.0095	0.0116	39.3463	0.0422	8.0380	0.6627	0.0978	0.7376	-0.0856
6.71	-9.6045	0.0220	-1.0919	0.0108	-0.0097	0.0105	39.4826	-0.0674	8.2238	0.6626	0.0978	0.7375	-0.0856
6.72	-9.5964	0.0052	-1.0983	0.0047	-0.0075	0.0119	39.4489	0.1604	8.2439	0.6627	0.0978	0.7376	-0.0857
6.73	-9.6024	-0.0011	-1.0816	-0.0029	-0.0063	0.0154	39.4441	0.2249	8.3414	0.6626	0.0978	0.7376	-0.0856
6.74	-9.6115	0.0124	-1.0702	0.0028	-0.0099	0.0134	39.2556	0.3728	8.2712	0.6626	0.0978	0.7376	-0.0856
6.75	-9.5970	0.0313	-1.0800	-0.0034	-0.0113	0.0129	39.4251	0.2501	8.2584	0.6626	0.0978	0.7376	-0.0856
6.76	-9.6049	0.0288	-1.0870	0.0036	-0.0136	0.0121	39.3000	0.3042	8.5047	0.6626	0.0978	0.7376	-0.0856
6.77	-9.6124	0.0392	-1.0866	0.0053	-0.0088	0.0184	39.3592	0.3699	8.1226	0.6626	0.0978	0.7377	-0.0856
6.78	-9.5944	0.0454	-1.0803	-0.0018	-0.0089	0.0112	39.3910	-0.0238	7.9819	0.6625	0.0977	0.7376	-0.0855
6.79	-9.5994	0.0394	-1.0711	0.0018	-0.0095	0.0096	39.2013	0.1697	8.2296	0.6626	0.0977	0.7377	-0.0856
6.8	-9.6134	0.0406	-1.0753	-0.0006	-0.0164	0.0140	39.3320	0.2913	8.4273	0.6626	0.0977	0.7376	-0.0855
6.81	-9.6056	0.0438	-1.0592	0.0012	-0.0160	0.0111	39.5207	0.0307	8.1758	0.6626	0.0977	0.7377	-0.0855
6.82	-9.5912	0.0496	-1.0579	-0.0004	-0.0165	0.0151	39.6263	-0.0636	8.2110	0.6626	0.0977	0.7376	-0.0855
6.83	-9.6112	0.0330	-1.0659	-0.0019	-0.0138	0.0135	39.5347	0.0790	8.1322	0.6626	0.0976	0.7376	-0.0855
6.84	-9.6063	0.0294	-1.0679	-0.0021	-0.0160	0.0166	39.4874	0.1241	8.3294	0.6626	0.0976	0.7377	-0.0855
6.85	-9.6021	0.0234	-1.0694	0.0012	-0.0157	0.0127	39.4524	0.0998	8.2918	0.6626	0.0976	0.7376	-0.0854
6.86	-9.6059	0.0013	-1.0807	0.0003	-0.0106	0.0136	39.3571	0.1190	8.0659	0.6627	0.0976	0.7377	-0.0854
6.87	-9.6040	0.0017	-1.0742	-0.0002	-0.0080	0.0061	39.2988	0.0834	8.3561	0.6626	0.0975	0.7377	-0.0854
6.88	-9.6041	-0.0023	-1.0636	0.0046	-0.0148	0.0110	39.4741	-0.0669	8.1558	0.6627	0.0975	0.7377	-0.0854
6.89	-9.5953	-0.0027	-1.0604	0.0042	-0.0140	0.0151	39.4585	0.0261	8.2862	0.6626	0.0975	0.7376	-0.0854
6.9	-9.6096	0.0143	-1.0708	-0.0037	-0.0166	0.0131	39.4428	0.1501	8.2622	0.6626	0.0975	0.7377	-0.0854
6.91	-9.6044	0.0153	-1.0695	0.0028	-0.0141	0.0148	39.3268	0.2150	8.2616	0.6626	0.0975	0.7377	-0.0854
6.92	-9.5936	0.0166	-1.0659	0.0012	-0.0123	0.0114	39.1997	0.1090	8.2741	0.6626	0.0975	0.7376	-0.0854
6.93	-9.6000	0.0151	-1.0820	-0.0027	-0.0107	0.0104	39.3315	0.0925	8.1534	0.6627	0.0974	0.7377	-0.0854
6.94	-9.6108	0.0065	-1.0929	-0.0018	-0.0073	0.0150	39.2509	0.2681	8.2159	0.6626	0.0974	0.7377	-0.0853
6.95	-9.5954	0.0142	-1.0862	-0.0020	-0.0076	0.0083	39.2310	0.2132	8.5007	0.6626	0.0974	0.7378	-0.0853
6.96	-9.6030	0.0030	-1.0756	-0.0034	-0.0047	0.0161	39.4258	0.1652	8.2294	0.6625	0.0973	0.7377	-0.0853
6.97	-9.6063	0.0102	-1.0783	0.0026	-0.0078	0.0124	39.2222	0.4239	8.0764	0.6625	0.0973	0.7378	-0.0853
6.98	-9.6118	0.0095	-1.0871	0.0027	-0.0083	0.0171	39.2739	0.2534	8.3791	0.6625	0.0973	0.7378	-0.0853
6.99	-9.6054	0.0168	-1.0659	-0.0027	-0.0129	0.0135	39.2731	0.0825	8.2765	0.6625	0.0973	0.7378	-0.0852
7	-9.6019	0.0182	-1.0723	0.0059	-0.0143	0.0127	39.5084	0.2165	8.2424	0.6625	0.0973	0.7378	-0.0852
7.01	-9.6082	0.0179	-1.0613	0.0021	-0.0154	0.0163	39.5004	0.0436	8.1935	0.6625	0.0973	0.7378	-0.0852
7.02	-9.6131	0.0289	-1.0617	-0.0023	-0.0125	0.0128	39.4976	-0.1588	8.3247	0.6625	0.0973	0.7378	-0.0852
7.03	-9.6092	0.0291	-1.0732	-0.0024	-0.0140	0.0104	39.5591	-0.0574	8.1676	0.6625	0.0972	0.7377	-0.0852
7.04	-9.6101	0.0250	-1.0670	0.0046	-0.0139	0.0118	39.4452	0.1529	8.1926	0.6626	0.0972	0.7378	-0.0852
7.05	-9.6028	0.0428	-1.0672	0.0050	-0.0072	0.0161	39.4408	0.0679	8.0027	0.6625	0.0972	0.7378	-0.0852
7.06	-9.6056	0.0369	-1.0723	-0.0035	-0.0122	0.0149	39.3449	-0.0529	8.0684	0.6625	0.0972	0.7378	-0.0852
7.07	-9.6106	0.0271	-1.0686	0.0008	-0.0093	0.0117	39.4944	-0.0694	8.2078	0.6625	0.0972	0.7378	-0.0851
7.08	-9.6067	0.0340	-1.0652	0.0020	-0.0110	0.0141	39.3110	0.2018	8.1657	0.6625	0.0972	0.7379	-0.0851
7.09	-9.5991	0.0321	-1.0670	0.0001	-0.0112	0.0116	39.3308	0.1221	8.1791	0.6625	0.0972	0.7379	-0.0851
7.1	-9.6004	0.0334	-1.0693	0.0005	-0.0075	0.0144	39.4764	0.1590	8.2336	0.6624	0.0971	0.7378	-0.0851
7.11	-9.6063	0.0228	-1.0726	-0.0020	-0.0109	0.0123	39.4385	0.4162	8.4097	0.6625	0.0971	0.7379	-0.0851
7.12	-9.6090	0.0233	-1.0745	-0.0015	-0.0113	0.0072	39.2011	0.2855	8.3901	0.6624	0.0971	0.7379	-0.0851
7.13	-9.6126	0.0207	-1.0721	0.0009	-0.0078	0.0118	39.2707	0.2775	8.3376	0.6625	0.0971	0.7380	-0.0851
7.14	-9.6068	0.0095	-1.0715	-0.0016	-0.0113	0.0116	39.3818	0.1826	8.3421	0.6624	0.0970	0.7379	-0.0851
7.15	-9.6055	0.0102	-1.0869	-0.0003	-0.0113	0.0136	39.5901	0.2071	8.3901	0.6624	0.0970	0.7380	-0.0850
7.16	-9.6084	0.0158	-1.0772	-0.0006	-0.0026	0.0126	39.6219	0.5056	8.4372	0.6624	0.0970	0.7380	-0.0850
7.17	-9.6104	0.0186	-1.0718	0.0002	-0.0165	0.0154	39.5712	0.2370	8.4983	0.6623	0.0970	0.7379	-0.0850
7.18	-9.6106	0.0151	-1.0843	0.0085	-0.0162	0.0179	39.5091	0.1024	8.3875	0.6624	0.0970	0.7380	-0.0850
7.19	-9.6101	0.0136	-1.0888	0.0039	-0.0142	0.0160	39.4153	0.1890	8.1199	0.6624	0.0970	0.7380	-0.0850
7.2	-9.6117	0.0139	-1.0901	0.0015	-0.0124	0.0127	39.4835	0.1308	8.2571	0.6624	0.0970	0.7380	-0.0850
7.21	-9.6103	0.0119	-1.0956	0.0081	-0.0189	0.0129	39.4626	0.1772	8.3681	0.6624	0.0970	0.7379	-0.0850
7.22	-9.6087	0.0178	-1.0954	0.0036	-0.0168	0.0165	39.6609	0.1349	8.4590	0.6624	0.0970	0.7380	-0.0850
7.23	-9.6098	0.0198	-1.0888	0.0061	-0.0209	0.0169	39.4577	0.2096	8.1147	0.6624	0.0970	0.7379	-0.0850
7.24	-9.6093	0.0110	-1.1057	0.0046	-0.0174	0.0162	39.5159	0.2634	8.0835	0.6624	0.0970	0.7379	-0.0850
7.25	-9.6128	0.0065	-1.0949	0.0110	-0.0143	0.0171	39.1737	0.1296	8.1045	0.6624	0.0970	0.7380	-0.0850
7.26	-9.5938	0.0203	-1.0903	0.0063	-0.0140	0.0148	39.3124	0.1668	8.0733	0.6624	0.0970	0.7379	-0.0850
7.27	-9.6015	0.0218	-1.0780	0.0115	-0.0171	0.0153	39.6157	0.1416	8.1577	0.6625	0.0971	0.7379	-0.0850
7.28	-9.6149	0.0217	-1.0888	0.0081	-0.0168	0.0197	39.4228	0.2359	8.2648	0.6624	0.0971	0.7378	-0.0850
7.29	-9.6009	0.0326	-1.0883	0.0046	-0.0182	0.0184	39.5214	0.3475	8.3954	0.6625	0.0971	0.7379	-0.0850
7.3	-9.6030	0.0308	-1.0721	0.0019	-0.0122	0.0161	39.4939	0.2886	8.2759	0.6625	0.0971	0.7379	-0.0850
7.31	-9.6114	0.0333	-1.0760	0.0004	-0.0122	0.0125	39.2709	0.1478	8.0677	0.6625	0.0971	0.7379	-0.0850
7.32	-9.6092	0.0233	-1.0784	-0.0018	-0.0129	0.0164	39.4986	0.1660	8.1114	0.6625	0.0971	0.7379	-0.0849
7.33	-9.6102	0.0095	-1.0704	0.0053	-0.0188	0.0166	39.4658	0.0213	8.2100	0.6625	0.0971	0.7379	-0.0849
7.34	-9.6062	0.0047	-1.0619	-0.0020	-0.0146	0.0169	39.2934	-0.0037	8.1626	0.6625	0.0971	0.7379	-0.0849
7.35	-9.6159	0.0155	-1.0712	-0.0003	-0.0143	0.0148	39.3980	0.2609	8.2691	0.6625	0.0970	0.7378	-0.0849
7.36	-9.5988	0.0109	-1.0602	0.0053	-0.0184	0.0162	39.4525	0.2246	8.2705	0.6626	0.0970	0.7379	-0.0849
7.37	-9.6058	0.0178	-1.0559	0.0149	-0.0180	0.0168	39.2791	-0.0256	8.2748	0.6625	0.0971	0.7378	-0.0849
7.38	-9.6235	0.0222	-1.0662	0.0115	-0.0125	0.0165	39.5163	0.0473	8.2729	0.6626	0.0971	0.7379	-0.0849
7.39	-9.6040	0.0260	-1.0662	0.0041	-0.0120	0.0157	39.3526	0.1690	8.2772	0.6625	0.0971	0.7378	-0.0849
7.4	-9.6096	0.0260	-1.0595	0.0103	-0.0215	0.0191	39.6368	0.2640	8.2534	0.6626	0.0972	0.7378	-0.0849
7.41	-9.6094	0.0299	-1.0722	0.0010	-0.0175	0.0152	39.5896	0.2015	8.1424	0.6626	0.0971	0.7378	-0.0849
7.42	-9.6156	0.0351	-1.0710	0.0048	-0.0155	0.0157	39.4770	0.1099	8.2856	0.6625	0.0971	0.7377	-0.0849
7.43	-9.6058	0.0313	-1.0612	-0.0025	-0.0120	0.0170	39.3605	0.3031	8.2570	0.6626	0.0971	0.7379	-0.0849
7.44	-9.6002	0.0069	-1.0773	0.0066	-0.0099	0.0131	39.4446	0.2659	8.1445	0.6626	0.0971	0.7378	-0.0849
7.45	-9.6132	0.0101	-1.0888	0.0082	-0.0117	0.0126	39.4444	0.2716	8.2513	0.6626	0.0971	0.7379	-0.0849
7.46	-9.6077	-0.0053	-1.0889	0.0138	-0.0139	0.0160	39.2646	0.0308	8.2912	0.6625	0.0972	0.7378	-0.0849
7.47	-9.6108	-0.0119	-1.0914	0.0067	-0.0192	0.0191	39.5556	0.0476	8.2456	0.6626	0.0972	0.7378	-0.0849
7.48	-9.6093	-0.0129	-1.1114	0.0021	-0.0161	0.0159	39.1876	0.2825	8.1694	0.6626	0.0972	0.7378	-0.0849
7.49	-9.6068	-0.0038	-1.1075	0.0084	-0.0145	0.0164	39.1862	0.0012	8.4565	0.6626	0.0972	0.7378	-0.0849
7.5	-9.6110	0.0035	-1.1035	0.0032	-0.0198	0.0163	39.3274	0.2078	8.4420	0.6626	0.0972	0.7378	-0.0849
7.51	-9.6108	0.0400	-1.0883	0.0085	-0.0155	0.0176	39.4290	0.0948	8.3141	0.6626	0.0972	0.7378	-0.0849
7.52	-9.6062	0.0891	-1.0776	0.0085	-0.0173	0.0168	39.4863	0.0938	8.2212	0.6626	0.0973	0.7378	-0.0849
7.53	-9.5905	0.1125	-1.0708	0.0050	-0.0150	0.0135	39.4735	0.3565	8.0722	0.6626	0.0972	0.7377	-0.0849
7.54	-9.5930	0.1005	-1.0551	0.0007	-0.0117	0.0149	39.3657	0.0931	8.1163	0.6626	0.0972	0.7378	-0.0849
7.55	-9.6078	0.0778	-1.0526	-0.0012	-0.0167	0.0168	39.4376	0.2333	8.3774	0.6626	0.0972	0.7377	-0.0849
7.56	-9.6125	0.0293	-1.0449	-0.0002	-0.0169	0.0146	39.4773	0.1786	8.2844	0.6627	0.0972	0.7378	-0.0848
7.57	-9.5949	0.0029	-1.0432	0.0000	-0.0158	0.0100	39.4753	0.1442	8.2559	0.6626	0.0972	0.7377	-0.0848
7.58	-9.5824	-0.0098	-1.0008	-0.0012	-0.0174	0.0066	39.4376	0.0478	8.4164	0.6627	0.0971	0.7377	-0.0848
7.59	-9.6275	-0.0082	-1.0431	-0.0009	-0.0184	0.0172	39.3975	0.1202	8.0705	0.6627	0.0971	0.7377	-0.0848
7.6	-9.6135	-0.0031	-1.0601	-0.0010	-0.0198	0.0145	39.6030	0.2431	8.2709	0.6627	0.0971	0.7376	-0.0848
7.61	-9.5917	0.0153	-1.0485	0.0056	-0.0134	0.0153	39.3937	0.3415	8.3545	0.6627	0.0971	0.7377	-0.0848
7.62	-9.5978	0.0292	-1.0445	0.0067	-0.0198	0.0167	39.3267	0.1482	7.9595	0.6627	0.0971	0.7377	-0.0848
7.63	-9.5970	0.0375	-1.0589	0.0168	-0.0136	0.0181	39.4611	0.2231	8.3135	0.6628	0.0972	0.7377	-0.0848
7.64	-9.5921	0.0550	-1.0525	0.0029	-0.0129	0.0130	39.5612	0.2457	8.1307	0.6627	0.0972	0.7376	-0.0848
7.65	-9.5958	0.0511	-1.0504	-0.0016	-0.0136	0.0151	39.8431	0.2576	8.5045	0.6627	0.0971	0.7377	-0.0848
7.66	-9.6011	0.0345	-1.0719	-0.0035	-0.0092	0.0139	39.7383	0.3732	8.4594	0.6627	0.0971	0.7377	-0.0847
7.67	-9.5982	0.0068	-1.0761	-0.0054	-0.0113	0.0058	39.5676	0.2233	8.5668	0.6627	0.0971	0.7377	-0.0847
7.68	-9.6070	-0.0127	-1.0825	-0.0083	-0.0066	0.0135	39.4044	0.2296	8.4674	0.6628	0.0970	0.7378	-0.0847
7.69	-9.6148	-0.0230	-1.0994	0.0038	-0.0122	0.0056	39.2854	0.2810	8.1936	0.6627	0.0970	0.7377	-0.0847
7.7	-9.6012	-0.0218	-1.1018	-0.0012	-0.0079	0.0080	39.1552	0.1867	8.2852	0.6627	0.0969	0.7378	-0.0847
7.71	-9.5968	-0.0024	-1.1020	0.0031	-0.0073	0.0067	39.1570	0.0742	8.2314	0.6626	0.0969	0.7377	-0.0847
7.72	-9.6039	0.0077	-1.1084	0.0027	-0.0110	0.0096	39.3655	0.0952	8.3940	0.6627	0.0969	0.7378	-0.0847
7.73	-9.5987	0.0360	-1.0894	0.0014	-0.0065	0.0090	39.5669	0.4034	8.2810	0.6626	0.0969	0.7378	-0.0847
7.74	-9.6027	0.0716	-1.0769	0.0021	-0.0085	0.0077	39.5422	0.1183	8.2465	0.6626	0.0968	0.7378	-0.0847
7.75	-9.6080	0.0646	-1.0951	0.0029	-0.0088	0.0117	39.5879	-0.0161	8.2893	0.6626	0.0968	0.7379	-0.0847
7.76	-9.6089	0.0804	-1.0851	0.0069	-0.0156	0.0092	39.6275	0.1509	8.2278	0.6626	0.0968	0.7379	-0.0847
7.77	-9.6017	0.0701	-1.0788	-0.0027	-0.0117	0.0145	39.7216	0.0149	8.1520	0.6626	0.0968	0.7379	-0.0847
7.78	-9.5917	0.0472	-1.0840	-0.0044	-0.0099	0.0122	39.6411	0.0183	8.2799	0.6625	0.0967	0.7378	-0.0847
7.79	-9.6047	0.0106	-1.0783	-0.0021	-0.0094	0.0132	39.5612	-0.0017	8.1614	0.6626	0.0967	0.7379	-0.0847
7.8	-9.6126	-0.0076	-1.0740	-0.0037	-0.0099	0.0114	39.5189	0.0492	8.1868	0.6625	0.0967	0.7379	-0.0846
7.81	-9.6065	-0.0236	-1.0779	0.0004	-0.0070	0.0129	39.5126	0.1223	8.1624	0.6625	0.0967	0.7380	-0.0846
7.82	-9.6102	-0.0298	-1.0723	0.0071	-0.0101	0.0129	39.6804	0.0651	8.2813	0.6625	0.0967	0.7379	-0.0846
7.83	-9.6109	-0.0191	-1.0688	0.0076	-0.0128	0.0120	39.6062	0.1433	8.1317	0.6625	0.0967	0.7380	-0.0846
7.84	-9.5957	0.0052	-1.0640	0.0041	-0.0099	0.0168	39.5221	0.1747	8.0526	0.6625	0.0967	0.7380	-0.0846
7.85	-9.5930	0.0388	-1.0605	0.0143	-0.0073	0.0060	39.3868	0.1923	8.1845	0.6624	0.0967	0.7379	-0.0847
7.86	-9.6089	0.0578	-1.0761	0.0064	-0.0070	0.0141	39.3266	0.1271	8.1536	0.6625	0.0967	0.7380	-0.0847
7.87	-9.6082	0.0523	-1.0743	-0.0022	-0.0053	0.0105	39.4293	0.1418	8.2178	0.6624	0.0967	0.7380	-0.0847
7.88	-9.6041	0.0182	-1.0739	-0.0022	-0.0115	0.0100	39.3753	0.3566	8.2725	0.6625	0.0966	0.7381	-0.0847
7.89	-9.5895	-0.0009	-1.0663	-0.0008	-0.0081	0.0083	39.4935	0.3485	8.2456	0.6624	0.0966	0.7380	-0.0846
7.9	-9.6049	0.0005	-1.0729	0.0039	-0.0119	0.0081	39.4666	0.1902	8.2645	0.6624	0.0966	0.7381	-0.0847
7.91	-9.6158	-0.0047	-1.0948	0.0000	-0.0109	0.0117	39.5172	0.0593	8.0791	0.6624	0.0965	0.7381	-0.0847
7.92	-9.5970	-0.0047	-1.0825	0.0019	-0.0060	0.0069	39.6660	0.1097	8.1628	0.6623	0.0965	0.7381	-0.0847
7.93	-9.6053	-0.0029	-1.0835	0.0026	-0.0094	0.0128	39.5264	0.0952	8.2887	0.6624	0.0965	0.7382	-0.0847
7.94	-9.6138	0.0181	-1.0882	0.0077	-0.0121	0.0148	39.7446	-0.0534	8.2562	0.6623	0.0965	0.7381	-0.0847
7.95	-9.6045	0.0365	-1.0742	-0.0019	-0.0163	0.0183	39.8193	0.1907	8.2931	0.6624	0.0965	0.7382	-0.0846
7.96	-9.5953	0.0481	-1.0754	0.0014	-0.0099	0.0083	39.8040	0.0145	8.1675	0.6623	0.0965	0.7381	-0.0846
7.97	-9.5982	0.0360	-1.0754	0.0050	-0.0137	0.0102	39.6838	-0.0762	8.2070	0.6623	0.0965	0.7382	-0.0846
7.98	-9.5936	0.0333	-1.0516	-0.0039	-0.0088	0.0101	39.4803	-0.1040	8.2915	0.6623	0.0964	0.7382	-0.0846
7.99	-9.6043	0.0330	-1.0558	0.0093	-0.0083	0.0112	39.4767	0.0906	7.9514	0.6623	0.0964	0.7382	-0.0846
8	-9.6106	0.0306	-1.0706	0.0042	-0.0073	0.0091	39.5825	-0.0074	8.2382	0.6623	0.0964	0.7382	-0.0846
8.01	-9.5957	0.0281	-1.0519	0.0006	-0.0083	0.0103	39.5367	0.1811	8.2293	0.6622	0.0964	0.7382	-0.0846
8.02	-9.6004	0.0226	-1.0545	0.0099	-0.0118	0.0086	39.6135	0.0674	8.1751	0.6623	0.0964	0.7383	-0.0847
8.03	-9.6129	0.0301	-1.0619	-0.0015	-0.0088	0.0110	39.3624	-0.0245	8.0822	0.6622	0.0963	0.7382	-0.0847
8.04	-9.6009	0.0337	-1.0562	-0.0008	-0.0179	0.0105	39.5553	0.1230	8.3169	0.6623	0.0963	0.7383	-0.0846
8.05	-9.5962	0.0382	-1.0548	0.0002	-0.0062	0.0091	39.4738	0.2394	8.1790	0.6622	0.0963	0.7383	-0.0846
8.06	-9.6060	0.0266	-1.0705	-0.0023	-0.0096	0.0161	39.3809	0.2105	8.2452	0.6622	0.0963	0.7383	-0.0846
8.07	-9.6056	0.0212	-1.0660	0.0046	-0.0117	0.0134	39.3872	0.0631	8.1762	0.6622	0.0963	0.7383	-0.0846
8.08	-9.5968	0.0235	-1.0666	0.0014	-0.0106	0.0113	39.4641	0.1055	8.1824	0.6622	0.0962	0.7383	-0.0846
8.09	-9.5980	0.0121	-1.0736	0.0018	-0.0074	0.0114	39.5623	0.0860	8.3399	0.6622	0.0962	0.7383	-0.0846
8.1	-9.6102	0.0125	-1.0693	0.0009	-0.0054	0.0027	39.3607	0.0871	8.4313	0.6621	0.0962	0.7383	-0.0846
8.11	-9.6034	0.0085	-1.0639	0.0023	-0.0143	0.0098	39.4070	0.1883	8.3486	0.6622	0.0961	0.7384	-0.0846
8.12	-9.6027	0.0033	-1.0643	0.0064	-0.0083	0.0118	39.4257	0.1535	8.1654	0.6621	0.0961	0.7384	-0.0846
8.13	-9.6115	0.0068	-1.0775	0.0011	-0.0082	0.0087	39.7694	-0.0015	8.0265	0.6621	0.0961	0.7385	-0.0846
8.14	-9.6023	-0.0140	-1.0718	-0.0020	-0.0081	0.0128	39.5929	0.0996	8.3972	0.6620	0.0961	0.7384	-0.0846
8.15	-9.5975	-0.0421	-1.0752	0.0036	-0.0126	0.0115	39.9146	0.3158	8.3213	0.6621	0.0961	0.7384	-0.0846
8.16	-9.5995	-0.0452	-1.0732	0.0107	-0.0115	0.0135	40.0778	0.0552	8.2470	0.6621	0.0961	0.7384	-0.0846
8.17	-9.6150	-0.0264	-1.0833	0.0036	-0.0139	0.0162	39.7338	0.2430	8.3099	0.6620	0.0961	0.7384	-0.0846
8.18	-9.5979	-0.0076	-1.0769	0.0043	-0.0113	0.0152	39.4950	0.1236	8.3932	0.6621	0.0961	0.7385	-0.0846
8.19	-9.6011	0.0080	-1.0837	0.0079	-0.0152	0.0118	39.2027	0.1380	8.3536	0.6620	0.0961	0.7384	-0.0846
8.2	-9.6124	0.0248	-1.0871	0.0053	-0.0117	0.0150	39.1394	0.4029	8.2715	0.6621	0.0961	0.7385	-0.0846
8.21	-9.6065	0.0321	-1.0936	0.0119	-0.0149	0.0157	39.2815	0.0085	8.1633	0.6620	0.0961	0.7384	-0.0846
8.22	-9.5977	0.0366	-1.0906	-0.0009	-0.0117	0.0146	39.1311	0.0785	8.2653	0.6621	0.0961	0.7385	-0.0846
8.23	-9.6130	0.0388	-1.1056	-0.0034	-0.0077	0.0128	39.2316	0.1928	8.2675	0.6620	0.0961	0.7385	-0.0846
8.24	-9.6063	0.0338	-1.0940	0.0010	-0.0102	0.0151	39.2657	0.2494	8.1676	0.6620	0.0961	0.7385	-0.0846
8.25	-9.5945	0.0323	-1.0929	-0.0002	-0.0148	0.0110	39.2431	0.1064	8.1719	0.6620	0.0961	0.7385	-0.0846
8.26	-9.6003	0.0338	-1.0942	0.0047	-0.0133	0.0144	39.3970	0.1806	8.2736	0.6620	0.0960	0.7385	-0.0846
8.27	-9.6019	0.0291	-1.0846	0.0084	-0.0111	0.0131	39.3916	0.2517	8.0507	0.6620	0.0961	0.7385	-0.0846
8.28	-9.5972	0.0336	-1.0883	0.0090	-0.0126	0.0144	39.2174	0.1352	8.1750	0.6619	0.0961	0.7384	-0.0846
8.29	-9.5948	0.0233	-1.0656	0.0125	-0.0156	0.0171	39.3907	0.1309	8.1638	0.6620	0.0961	0.7385	-0.0846
8.3	-9.6149	0.0170	-1.0851	0.0090	-0.0172	0.0155	39.3919	0.1786	8.3449	0.6620	0.0961	0.7385	-0.0846
8.31	-9.6029	0.0235	-1.0668	0.0140	-0.0211	0.0170	39.2477	0.2566	8.2717	0.6621	0.0962	0.7385	-0.0846
8.32	-9.5981	0.0259	-1.0544	0.0156	-0.0132	0.0174	39.2417	0.1064	8.2424	0.6620	0.0962	0.7384	-0.0847
8.33	-9.6146	0.0592	-1.0644	0.0073	-0.0171	0.0121	39.5140	0.1787	8.1443	0.6620	0.0962	0.7384	-0.0847
8.34	-9.6056	0.0649	-1.0680	0.0163	-0.0124	0.0133	39.5832	0.0700	8.2251	0.6621	0.0962	0.7384	-0.0847
8.35	-9.5949	0.0638	-1.0640	0.0142	-0.0140	0.0176	39.2932	0.1126	8.3568	0.6620	0.0963	0.7384	-0.0847
8.36	-9.5987	0.0497	-1.0650	-0.0009	-0.0070	0.0170	39.3645	0.3560	8.2339	0.6621	0.0963	0.7385	-0.0847
8.37	-9.6063	0.0292	-1.0694	0.0106	-0.0137	0.0094	39.4240	0.1298	8.1199	0.6620	0.0963	0.7384	-0.0847
8.38	-9.6092	0.0210	-1.0788	0.0057	-0.0110	0.0079	39.4284	0.4245	8.2671	0.6621	0.0963	0.7385	-0.0848
8.39	-9.5939	0.0103	-1.0733	0.0048	-0.0087	0.0139	39.3158	0.1884	8.2221	0.6619	0.0963	0.7384	-0.0848
8.4	-9.6070	0.0288	-1.0744	0.0072	-0.0166	0.0105	39.3603	0.1677	8.2092	0.6620	0.0963	0.7385	-0.0848
8.41	-9.5979	0.0284	-1.0746	0.0087	-0.0076	0.0079	39.2652	0.1974	8.2001	0.6620	0.0963	0.7385	-0.0848
8.42	-9.6037	0.0256	-1.0684	0.0064	-0.0096	0.0118	39.3154	0.1095	8.2326	0.6619	0.0962	0.7384	-0.0848
8.43	-9.6171	0.0360	-1.0736	0.0012	-0.0082	0.0101	39.3484	0.1582	8.2598	0.6620	0.0962	0.7386	-0.0848
8.44	-9.6002	0.0349	-1.0786	0.0063	-0.0066	0.0108	39.1999	0.1287	8.1471	0.6619	0.0962	0.7385	-0.0848
8.45	-9.5941	0.0259	-1.0876	0.0061	-0.0096	0.0062	39.1418	0.1327	8.3639	0.6619	0.0962	0.7386	-0.0849
8.46	-9.5884	0.0200	-1.0745	0.0034	-0.0087	0.0083	39.3372	0.2114	8.3332	0.6618	0.0962	0.7385	-0.0849
8.47	-9.5969	0.0124	-1.0833	0.0029	-0.0168	0.0145	39.3362	0.3479	8.1222	0.6619	0.0962	0.7386	-0.0849
8.48	-9.6081	0.0080	-1.0834	-0.0038	-0.0103	0.0047	39.3414	0.2418	8.2023	0.6619	0.0961	0.7386	-0.0849
8.49	-9.6098	0.0037	-1.0792	0.0062	-0.0139	0.0147	39.2812	0.2180	8.0624	0.6619	0.0961	0.7386	-0.0849
8.5	-9.6063	-0.0127	-1.0746	0.0097	-0.0152	0.0085	39.2176	0.2177	8.1913	0.6619	0.0961	0.7386	-0.0849
8.51	-9.5920	-0.0118	-1.0700	0.0080	-0.0161	0.0066	39.5686	0.1245	7.9982	0.6619	0.0961	0.7386	-0.0849
8.52	-9.5929	-0.0296	-1.0614	0.0054	-0.0144	0.0158	39.5111	0.3492	7.8513	0.6619	0.0961	0.7386	-0.0849
8.53	-9.6019	-0.0239	-1.0649	0.0072	-0.0141	0.0135	39.5760	0.2046	8.0701	0.6618	0.0961	0.7385	-0.0849
8.54	-9.6064	-0.0116	-1.0740	0.0109	-0.0077	0.0136	39.7389	0.1686	8.4477	0.6619	0.0961	0.7386	-0.0850
8.55	-9.6061	0.0107	-1.0753	0.0131	-0.0110	0.0102	39.2018	0.3690	8.3480	0.6618	0.0961	0.7386	-0.0850
8.56	-9.5986	0.0331	-1.0782	0.0096	-0.0104	0.0145	39.3396	0.1717	8.1313	0.6618	0.0962	0.7386	-0.0850
8.57	-9.5998	0.0520	-1.0856	0.0134	-0.0157	0.0076	39.4101	0.0153	8.2903	0.6618	0.0962	0.7386	-0.0851
8.58	-9.6019	0.0649	-1.0796	0.0075	-0.0174	0.0102	39.4385	0.0143	7.9908	0.6618	0.0962	0.7386	-0.0851
8.59	-9.6110	0.0763	-1.0889	0.0114	-0.0114	0.0154	39.5560	0.0499	8.0494	0.6619	0.0962	0.7386	-0.0851
8.6	-9.6067	0.0763	-1.0906	0.0023	-0.0093	0.0160	39.3125	0.2060	8.1664	0.6618	0.0962	0.7385	-0.0851
8.61	-9.6035	0.0430	-1.1071	0.0066	-0.0176	0.0112	39.4476	0.4226	8.2755	0.6619	0.0962	0.7386	-0.0851
8.62	-9.5996	-0.0026	-1.1102	0.0167	-0.0129	0.0130	39.0964	0.1051	7.9215	0.6618	0.0962	0.7386	-0.0852
8.63	-9.5922	-0.0076	-1.1019	0.0075	-0.0088	0.0162	39.2165	0.1740	8.2100	0.6619	0.0962	0.7386	-0.0852
8.64	-9.6012	-0.0173	-1.1028	0.0061	-0.0093	0.0156	39.3325	0.0206	8.3618	0.6618	0.0962	0.7385	-0.0852
8.65	-9.5987	-0.0081	-1.0931	0.0092	-0.0088	0.0150	39.5802	0.2217	8.3644	0.6618	0.0963	0.7386	-0.0852
8.66	-9.5995	0.0077	-1.0925	0.0093	-0.0135	0.0177	39.6294	0.1710	8.6441	0.6618	0.0963	0.7386	-0.0852
8.67	-9.6118	0.0174	-1.0828	0.0050	-0.0107	0.0147	39.5143	0.1791	8.5157	0.6617	0.0963	0.7386	-0.0852
8.68	-9.6023	0.0268	-1.0621	0.0167	-0.0205	0.0148	39.5893	0.1321	8.1718	0.6618	0.0963	0.7386	-0.0852
8.69	-9.5873	0.0225	-1.0632	0.0108	-0.0161	0.0129	39.3781	0.0117	8.1568	0.6618	0.0964	0.7386	-0.0852
8.7	-9.6043	0.0306	-1.0593	0.0054	-0.0061	0.0122	39.5063	0.0430	8.2021	0.6618	0.0964	0.7386	-0.0853
8.71	-9.6125	0.0274	-1.0649	0.0043	-0.0127	0.0105	39.5975	0.0228	8.2974	0.6617	0.0963	0.7385	-0.0852
8.72	-9.6063	0.0250	-1.0705	0.0035	-0.0079	0.0147	39.5010	0.0529	8.3851	0.6618	0.0963	0.7386	-0.0852
8.73	-9.6012	0.0002	-1.0765	0.0071	-0.0189	0.0089	39.3467	0.1457	8.2209	0.6618	0.0963	0.7386	-0.0853
8.74	-9.6055	-0.0030	-1.0756	0.0050	-0.0159	0.0131	39.4326	0.0422	8.1529	0.6618	0.0963	0.7386	-0.0853
8.75	-9.6011	-0.0016	-1.0664	0.0046	-0.0123	0.0149	39.5005	-0.0676	8.4613	0.6618	0.0963	0.7386	-0.0853
8.76	-9.5945	0.0140	-1.0650	0.0063	-0.0137	0.0119	39.3343	-0.0339	8.2450	0.6618	0.0963	0.7386	-0.0853
8.77	-9.6016	0.0377	-1.0640	0.0043	-0.0147	0.0146	39.5036	0.1135	8.1026	0.6618	0.0963	0.7386	-0.0853
8.78	-9.6067	0.0415	-1.0614	0.0035	-0.0139	0.0128	39.2607	0.1069	8.3431	0.6617	0.0963	0.7385	-0.0853
8.79	-9.6047	0.0558	-1.0611	-0.0024	-0.0093	0.0094	39.1663	0.2129	8.0258	0.6618	0.0963	0.7386	-0.0853
8.8	-9.6046	0.0690	-1.0514	-0.0005	-0.0060	0.0102	39.2571	0.1701	8.3492	0.6617	0.0963	0.7386	-0.0853
8.81	-9.6098	0.0660	-1.0612	-0.0019	-0.0088	0.0128	39.2420	0.2636	8.3634	0.6617	0.0962	0.7387	-0.0852
8.82	-9.5963	0.0539	-1.0512	0.0053	-0.0102	0.0129	39.4785	0.2905	8.3846	0.6617	0.0962	0.7386	-0.0852
8.83	-9.6023	0.0328	-1.0666	0.0054	-0.0086	0.0131	39.3446	0.2662	8.4488	0.6617	0.0962	0.7387	-0.0852
8.84	-9.6014	0.0371	-1.0592	0.0001	-0.0081	0.0112	39.3055	0.2895	7.9311	0.6617	0.0962	0.7387	-0.0852
8.85	-9.5972	0.0163	-1.0510	0.0062	-0.0109	0.0105	39.3785	0.2609	8.3103	0.6616	0.0962	0.7387	-0.0852
8.86	-9.6109	0.0117	-1.0706	0.0048	-0.0109	0.0101	39.2542	0.3041	8.2418	0.6617	0.0962	0.7388	-0.0852
8.87	-9.6088	0.0106	-1.0639	0.0152	-0.0174	0.0154	39.4031	0.2097	8.3712	0.6616	0.0962	0.7387	-0.0853
8.88	-9.6020	0.0062	-1.0695	0.0031	-0.0129	0.0085	39.5120	0.0145	8.2487	0.6617	0.0962	0.7388	-0.0853
8.89	-9.5993	0.0146	-1.0715	0.0034	-0.0133	0.0158	39.5140	0.0452	8.1844	0.6616	0.0962	0.7387	-0.0853
8.9	-9.6096	0.0291	-1.0766	0.0133	-0.0116	0.0109	39.4273	-0.0824	8.2011	0.6616	0.0962	0.7387	-0.0853
8.91	-9.6098	0.0301	-1.0813	-0.0003	-0.0095	0.0136	39.4227	0.1506	8.0645	0.6616	0.0962	0.7387	-0.0853
8.92	-9.6105	0.0372	-1.0914	-0.0026	-0.0107	0.0078	39.5288	0.0049	8.2044	0.6616	0.0961	0.7387	-0.0853
8.93	-9.6066	0.0324	-1.0925	0.0074	-0.0174	0.0103	39.3990	0.1653	8.3075	0.6617	0.0962	0.7388	-0.0853
8.94	-9.6005	0.0309	-1.0829	0.0012	-0.0163	0.0145	39.5047	0.1469	8.2520	0.6616	0.0961	0.7387	-0.0853
8.95	-9.6103	0.0290	-1.0814	-0.0007	-0.0141	0.0099	39.4260	-0.0329	8.1686	0.6617	0.0961	0.7388	-0.0853
8.96	-9.6004	0.0170	-1.0805	-0.0008	-0.0147	0.0148	39.2356	0.1433	8.2994	0.6616	0.0961	0.7387	-0.0853
8.97	-9.6042	0.0162	-1.0699	0.0009	-0.0136	0.0109	39.2904	0.1896	8.2725	0.6617	0.0961	0.7387	-0.0853
8.98	-9.6040	0.0063	-1.0734	0.0083	-0.0058	0.0109	39.4235	0.3748	8.2887	0.6616	0.0961	0.7387	-0.0853
8.99	-9.6005	0.0018	-1.0774	0.0044	-0.0124	0.0126	39.3893	0.2814	8.2696	0.6616	0.0961	0.7387	-0.0853
9	-9.5957	-0.0147	-1.0766	0.0007	-0.0101	0.0126	39.1524	0.2746	8.2927	0.6616	0.0960	0.7388	-0.0853
9.01	-9.6042	-0.0098	-1.0716	0.0008	-0.0083	0.0124	39.3388	0.3868	8.3730	0.6616	0.0960	0.7388	-0.0852
9.02	-9.6029	-0.0096	-1.0625	0.0111	-0.0121	0.0079	39.3477	0.3257	8.1767	0.6616	0.0960	0.7388	-0.0853
9.03	-9.6011	-0.0013	-1.0529	0.0035	-0.0124	0.0120	39.4273	0.0875	8.2229	0.6615	0.0960	0.7387	-0.0853
9.04	-9.6066	0.0140	-1.0555	0.0058	-0.0089	0.0165	39.4540	0.2462	8.0577	0.6616	0.0960	0.7388	-0.0853
9.05	-9.6078	0.0104	-1.0652	0.0094	-0.0106	0.0165	39.2512	0.0993	8.5099	0.6615	0.0960	0.7388	-0.0853
9.06	-9.6024	0.0196	-1.0660	0.0004	-0.0155	0.0159	39.3839	-0.0146	8.2213	0.6616	0.0960	0.7388	-0.0853
9.07	-9.6096	0.0169	-1.0725	0.0067	-0.0140	0.0178	39.6490	0.1543	8.2096	0.6615	0.0961	0.7388	-0.0853
9.08	-9.6013	0.0164	-1.0748	0.0072	-0.0173	0.0178	39.3114	-0.0327	8.3916	0.6616	0.0961	0.7388	-0.0853
9.09	-9.6056	0.0116	-1.0722	0.0056	-0.0152	0.0136	39.4726	0.1275	8.2739	0.6616	0.0961	0.7388	-0.0853
9.1	-9.6064	0.0170	-1.0829	0.0115	-0.0157	0.0127	39.5255	0.0357	8.5252	0.6615	0.0961	0.7387	-0.0853
9.11	-9.5987	0.0365	-1.0711	0.0091	-0.0145	0.0132	39.5051	-0.0578	8.3226	0.6616	0.0961	0.7388	-0.0853
9.12	-9.6035	0.0340	-1.0764	0.0004	-0.0204	0.0092	39.5213	0.0748	8.1433	0.6616	0.0961	0.7387	-0.0853
9.13	-9.6007	0.0436	-1.0815	0.0057	-0.0193	0.0142	39.5327	-0.0115	8.0901	0.6617	0.0961	0.7388	-0.0853
9.14	-9.5974	0.0537	-1.0749	-0.0041	-0.0104	0.0124	39.4175	0.2298	8.2115	0.6616	0.0960	0.7387	-0.0853
9.15	-9.6152	0.0466	-1.0877	-0.0002	-0.0086	0.0149	39.6656	0.1718	8.4246	0.6616	0.0960	0.7388	-0.0853
9.16	-9.6127	0.0597	-1.0854	-0.0027	-0.0080	0.0167	39.7991	0.2720	8.5083	0.6616	0.0960	0.7388	-0.0852
9.17	-9.5927	0.0584	-1.0892	0.0043	-0.0134	0.0162	39.6214	0.2441	8.3158	0.6616	0.0960	0.7387	-0.0852
9.18	-9.6112	0.0541	-1.0845	0.0193	-0.0109	0.0149	39.4720	0.1573	8.1181	0.6616	0.0961	0.7388	-0.0853
9.19	-9.5985	0.0609	-1.0719	0.0013	-0.0118	0.0165	39.3976	0.0575	8.0816	0.6616	0.0961	0.7388	-0.0852
9.2	-9.6049	0.0593	-1.0785	0.0043	-0.0123	0.0165	39.2303	0.2545	8.1601	0.6616	0.0961	0.7388	-0.0852
9.21	-9.6031	0.0498	-1.0868	0.0122	-0.0082	0.0136	39.4472	0.0317	8.1808	0.6615	0.0961	0.7388	-0.0852
9.22	-9.6048	0.0568	-1.0780	0.0020	-0.0103	0.0169	39.6012	0.2071	8.2104	0.6616	0.0961	0.7388	-0.0852
9.23	-9.6056	0.0496	-1.0804	0.0072	-0.0071	0.0137	39.4488	0.3336	8.0977	0.6615	0.0961	0.7388	-0.0852
9.24	-9.5949	0.0344	-1.0740	0.0112	-0.0065	0.0121	39.3406	0.0386	8.1737	0.6615	0.0961	0.7388	-0.0852
9.25	-9.6075	0.0277	-1.0731	0.0013	-0.0135	0.0148	39.4382	-0.0168	8.1755	0.6615	0.0961	0.7389	-0.0852
9.26	-9.6091	-0.0002	-1.0641	0.0121	-0.0114	0.0175	39.5329	0.0831	8.1062	0.6615	0.0962	0.7389	-0.0852
9.27	-9.6089	-0.0024	-1.0653	0.0095	-0.0159	0.0153	39.4903	0.0409	8.2192	0.6615	0.0962	0.7389	-0.0853
9.28	-9.6020	-0.0099	-1.0620	0.0042	-0.0138	0.0120	39.5192	0.1489	8.1688	0.6614	0.0962	0.7388	-0.0853
9.29	-9.6026	-0.0071	-1.0534	0.0015	-0.0168	0.0135	39.4865	0.0466	8.1876	0.6615	0.0962	0.7389	-0.0853
9.3	-9.5938	-0.0061	-1.0643	-0.0005	-0.0107	0.0123	39.4038	0.2089	8.1948	0.6615	0.0961	0.7388	-0.0852
9.31	-9.5978	-0.0066	-1.0650	0.0110	-0.0090	0.0140	39.4438	-0.0272	8.1121	0.6615	0.0962	0.7389	-0.0853
9.32	-9.6044	-0.0018	-1.0631	0.0089	-0.0126	0.0165	39.4169	0.0631	8.0878	0.6615	0.0962	0.7389	-0.0853
9.33	-9.5994	-0.0016	-1.0762	0.0126	-0.0103	0.0143	39.3283	0.0570	8.2243	0.6615	0.0962	0.7389	-0.0853
9.34	-9.6044	0.0071	-1.0681	0.0054	-0.0141	0.0162	39.3525	0.2438	8.3066	0.6615	0.0962	0.7389	-0.0853
9.35	-9.5981	0.0230	-1.0778	0.0083	-0.0065	0.0115	39.3227	0.1234	8.1561	0.6614	0.0962	0.7388	-0.0853
9.36	-9.6029	0.0292	-1.0744	0.0046	-0.0086	0.0128	39.5576	0.1769	8.1225	0.6615	0.0962	0.7390	-0.0853
9.37	-9.5963	0.0317	-1.0720	-0.0020	-0.0145	0.0142	39.4454	0.2012	8.3078	0.6614	0.0962	0.7389	-0.0853
9.38	-9.6041	0.0239	-1.0664	-0.0019	-0.0061	0.0139	39.4273	0.1121	8.2602	0.6615	0.0962	0.7390	-0.0853
9.39	-9.5991	0.0069	-1.0713	0.0032	-0.0117	0.0116	39.3411	0.2267	8.2608	0.6614	0.0962	0.7389	-0.0852
9.4	-9.5986	0.0166	-1.0753	0.0018	-0.0168	0.0096	39.3423	0.1395	8.1753	0.6614	0.0962	0.7389	-0.0852
9.41	-9.6045	0.0069	-1.0627	0.0001	-0.0066	0.0118	39.3557	0.2560	7.9468	0.6614	0.0961	0.7390	-0.0852
9.42	-9.6040	0.0128	-1.0666	0.0036	-0.0157	0.0161	39.3461	0.2054	7.9617	0.6614	0.0961	0.7389	-0.0852
9.43	-9.6033	0.0014	-1.0724	0.0006	-0.0132	0.0167	39.3482	0.2336	8.2185	0.6614	0.0961	0.7390	-0.0852
9.44	-9.6054	-0.0022	-1.0725	0.0057	-0.0132	0.0152	39.4760	0.2107	8.1783	0.6614	0.0961	0.7389	-0.0852
9.45	-9.6143	-0.0031	-1.0655	0.0116	-0.0117	0.0169	39.5289	0.0392	8.3614	0.6614	0.0962	0.7390	-0.0852
9.46	-9.6106	0.0032	-1.0762	0.0086	-0.0106	0.0144	39.4121	0.1660	7.9567	0.6613	0.0962	0.7389	-0.0852
9.47	-9.6067	0.0184	-1.0723	0.0120	-0.0148	0.0161	39.5485	0.0010	8.0568	0.6614	0.0962	0.7390	-0.0852
9.48	-9.6015	0.0208	-1.0806	0.0182	-0.0194	0.0165	39.4556	0.0318	7.9236	0.6614	0.0963	0.7389	-0.0853
9.49	-9.6000	0.0309	-1.0845	0.0144	-0.0165	0.0164	39.4281	0.2900	8.0047	0.6614	0.0963	0.7389	-0.0853
9.5	-9.6000	0.0303	-1.0901	0.0137	-0.0132	0.0166	39.3451	-0.0079	7.8984	0.6614	0.0963	0.7389	-0.0853
9.51	-9.6060	0.0536	-1.0825	0.0069	-0.0124	0.0190	39.4880	0.1343	7.9769	0.6614	0.0964	0.7389	-0.0853
9.52	-9.6032	0.0547	-1.0926	0.0045	-0.0173	0.0178	39.7138	0.1105	8.1917	0.6614	0.0964	0.7389	-0.0853
9.53	-9.6075	0.0574	-1.0987	0.0098	-0.0121	0.0159	39.8617	0.3432	8.2682	0.6614	0.0964	0.7388	-0.0853
9.54	-9.5997	0.0506	-1.0926	0.0024	-0.0180	0.0168	39.3920	0.2593	8.2621	0.6614	0.0964	0.7389	-0.0853
9.55	-9.5948	0.0329	-1.0936	-0.0003	-0.0204	0.0092	39.2074	0.1243	8.2845	0.6614	0.0964	0.7389	-0.0853
9.56	-9.5984	0.0287	-1.0755	0.0072	-0.0114	0.0149	39.3473	0.2952	8.1824	0.6615	0.0964	0.7389	-0.0853
9.57	-9.6061	0.0091	-1.0802	0.0036	-0.0117	0.0106	39.4270	-0.0014	8.1862	0.6614	0.0964	0.7389	-0.0853
9.58	-9.6068	0.0099	-1.0801	0.0002	-0.0136	0.0074	39.3169	0.1150	8.2906	0.6614	0.0963	0.7389	-0.0853
9.59	-9.6093	0.0214	-1.0712	-0.0034	-0.0113	0.0159	39.3846	0.1293	8.2476	0.6614	0.0963	0.7389	-0.0853
9.6	-9.6037	0.0295	-1.0563	0.0014	-0.0189	0.0123	39.5239	0.2286	7.9671	0.6614	0.0963	0.7388	-0.0853
9.61	-9.5976	0.0461	-1.0582	0.0041	-0.0132	0.0147	39.5823	0.2201	8.1603	0.6615	0.0963	0.7389	-0.0853
9.62	-9.6004	0.0553	-1.0704	0.0125	-0.0128	0.0152	39.3434	0.2525	8.4111	0.6614	0.0963	0.7389	-0.0853
9.63	-9.5990	0.0419	-1.0666	0.0142	-0.0191	0.0148	39.5544	0.3468	8.0630	0.6615	0.0964	0.7389	-0.0853
9.64	-9.6054	0.0395	-1.0703	0.0033	-0.0109	0.0134	39.2910	0.2038	8.1823	0.6614	0.0964	0.7388	-0.0853
9.65	-9.5928	0.0263	-1.0611	0.0099	-0.0146	0.0166	39.8430	0.0224	8.3165	0.6615	0.0964	0.7389	-0.0853
9.66	-9.6084	0.0223	-1.0573	0.0009	-0.0154	0.0140	40.0367	0.1343	7.8661	0.6615	0.0964	0.7388	-0.0853
9.67	-9.6080	0.0092	-1.0588	0.0060	-0.0136	0.0083	39.6655	0.1918	8.2031	0.6614	0.0964	0.7388	-0.0853
9.68	-9.6089	-0.0071	-1.0590	0.0111	-0.0078	0.0112	39.3742	0.1203	8.3700	0.6615	0.0964	0.7389	-0.0854
9.69	-9.6098	-0.0071	-1.0512	0.0099	-0.0142	0.0103	39.2731	-0.0045	8.4145	0.6614	0.0964	0.7389	-0.0854
9.7	-9.6075	-0.0043	-1.0588	0.0014	-0.0085	0.0102	39.2870	-0.0923	8.2445	0.6615	0.0964	0.7389	-0.0854
9.71	-9.6100	-0.0045	-1.0748	-0.0024	-0.0119	0.0115	39.3964	0.1248	8.0234	0.6614	0.0963	0.7388	-0.0854
9.72	-9.6085	-0.0007	-1.0836	0.0052	-0.0140	0.0126	39.4632	0.1371	8.2880	0.6614	0.0963	0.7389	-0.0854
9.73	-9.6056	0.0168	-1.0923	0.0024	-0.0057	0.0160	39.3285	0.2364	8.0776	0.6614	0.0963	0.7389	-0.0853
9.74	-9.5998	0.0297	-1.0944	0.0013	-0.0075	0.0113	39.4923	0.3970	8.2507	0.6614	0.0963	0.7389	-0.0853
9.75	-9.5985	0.0358	-1.0949	0.0040	-0.0078	0.0102	39.2566	0.2365	8.2327	0.6614	0.0963	0.7390	-0.0853
9.76	-9.6093	0.0337	-1.0916	0.0046	-0.0041	0.0080	39.2290	0.1071	8.2204	0.6613	0.0963	0.7390	-0.0854
9.77	-9.6069	0.0285	-1.0890	0.0037	-0.0098	0.0060	39.1600	0.2614	8.0849	0.6613	0.0963	0.7390	-0.0854
9.78	-9.5999	0.0269	-1.0892	-0.0003	-0.0097	0.0123	39.1795	0.3860	8.3351	0.6612	0.0962	0.7390	-0.0854
9.79	-9.6044	0.0217	-1.0814	0.0034	-0.0153	0.0093	39.4488	0.2178	8.3146	0.6613	0.0962	0.7390	-0.0854
9.8	-9.6086	0.0149	-1.0878	0.0019	-0.0151	0.0131	39.4310	0.2676	8.1838	0.6613	0.0962	0.7390	-0.0854
9.81	-9.6167	0.0038	-1.0837	0.0092	-0.0161	0.0135	39.3329	0.1692	8.0652	0.6613	0.0962	0.7390	-0.0854
9.82	-9.6003	-0.0108	-1.0812	0.0018	-0.0127	0.0097	39.5934	0.0147	8.1495	0.6613	0.0962	0.7390	-0.0854
9.83	-9.6096	-0.0083	-1.0760	0.0094	-0.0077	0.0093	39.5889	-0.0813	8.1950	0.6613	0.0962	0.7390	-0.0854
9.84	-9.6120	0.0151	-1.0795	0.0163	-0.0086	0.0083	39.3778	0.0651	8.2734	0.6613	0.0962	0.7390	-0.0855
9.85	-9.6072	0.0240	-1.0762	0.0175	-0.0125	0.0150	39.6515	0.1568	8.1499	0.6612	0.0962	0.7390	-0.0855
9.86	-9.5997	0.0485	-1.0737	0.0104	-0.0194	0.0127	39.5950	0.0086	8.2588	0.6613	0.0963	0.7391	-0.0855
9.87	-9.6011	0.0709	-1.0702	0.0018	-0.0147	0.0148	39.5352	0.0543	8.0970	0.6613	0.0963	0.7390	-0.0855
9.88	-9.5974	0.0660	-1.0714	0.0063	-0.0114	0.0099	39.5441	0.0317	8.0428	0.6613	0.0963	0.7391	-0.0855
9.89	-9.6044	0.0595	-1.0661	0.0081	-0.0110	0.0128	39.5577	0.0376	8.1822	0.6612	0.0962	0.7390	-0.0855
9.9	-9.5967	0.0473	-1.0646	0.0021	-0.0076	0.0118	39.4988	0.1585	8.2382	0.6612	0.0962	0.7390	-0.0855
9.91	-9.5933	0.0324	-1.0698	-0.0014	-0.0079	0.0061	39.3088	0.2188	8.0986	0.6612	0.0962	0.7391	-0.0855
9.92	-9.6044	0.0269	-1.0662	0.0024	-0.0114	0.0104	39.2252	0.1796	8.2490	0.6612	0.0962	0.7390	-0.0855
9.93	-9.6039	0.0176	-1.0743	0.0070	-0.0104	0.0108	39.2161	0.2155	8.2243	0.6613	0.0962	0.7391	-0.0856
9.94	-9.6072	0.0037	-1.0686	0.0070	-0.0045	0.0123	39.2195	0.2901	8.2447	0.6612	0.0962	0.7391	-0.0856
9.95	-9.6085	0.0047	-1.0663	0.0038	-0.0112	0.0105	39.4524	0.3113	8.2103	0.6612	0.0962	0.7392	-0.0856
9.96	-9.5982	0.0067	-1.0540	-0.0022	-0.0139	0.0116	39.3896	0.5028	8.3382	0.6611	0.0961	0.7391	-0.0856
9.97	-9.6028	-0.0080	-1.0645	-0.0002	-0.0096	0.0141	39.2537	0.1629	8.2891	0.6612	0.0961	0.7392	-0.0855
9.98	-9.6094	0.0024	-1.0698	0.0012	-0.0066	0.0136	39.2066	0.1585	8.0716	0.6611	0.0961	0.7392	-0.0855
9.99	-9.6068	0.0031	-1.0699	0.0058	-0.0131	0.0130	39.2686	0.1580	8.2784	0.6611	0.0961	0.7391	-0.0855
10	-9.6078	0.0110	-1.0671	-0.0004	-0.0145	0.0146	39.4997	0.0036	8.1119	0.6611	0.0961	0.7392	-0.0855
10.01	-9.6080	0.0188	-1.0668	0.0067	-0.0154	0.0168	39.5550	0.0615	8.0964	0.6611	0.0961	0.7391	-0.0855
10.02	-9.6052	0.0117	-1.0784	0.0076	-0.0114	0.0097	39.5380	0.0139	8.1831	0.6612	0.0961	0.7392	-0.0855
10.03	-9.5977	0.0159	-1.0816	0.0027	-0.0147	0.0126	39.5388	0.1228	8.1395	0.6611	0.0961	0.7391	-0.0855
10.04	-9.6110	0.0224	-1.0770	0.0036	-0.0157	0.0162	39.6390	0.2298	8.2703	0.6612	0.0961	0.7392	-0.0855
10.05	-9.6092	0.0099	-1.0799	0.0053	-0.0075	0.0124	39.4528	0.0135	8.0617	0.6611	0.0961	0.7392	-0.0855
10.06	-9.6026	0.0201	-1.0798	0.0047	-0.0090	0.0151	39.2816	-0.1091	8.1285	0.6611	0.0961	0.7392	-0.0855
10.07	-9.6037	0.0286	-1.0789	-0.0015	-0.0142	0.0098	39.3978	0.2511	8.2645	0.6611	0.0961	0.7392	-0.0855
10.08	-9.6085	0.0191	-1.1030	-0.0019	-0.0117	0.0088	39.2454	0.1526	8.2047	0.6611	0.0960	0.7392	-0.0855
10.09	-9.6054	0.0237	-1.0887	0.0047	-0.0129	0.0078	39.4165	0.1219	8.1168	0.6611	0.0960	0.7392	-0.0855
10.1	-9.6002	0.0275	-1.0960	0.0074	-0.0070	0.0100	39.4950	0.3914	8.2444	0.6610	0.0960	0.7392	-0.0855
10.11	-9.6110	0.0296	-1.0990	0.0048	-0.0093	0.0148	39.3276	0.4386	8.2219	0.6611	0.0960	0.7393	-0.0855
10.12	-9.6020	0.0421	-1.0860	0.0142	-0.0081	0.0113	39.3070	0.3377	8.3923	0.6610	0.0960	0.7392	-0.0855
10.13	-9.5955	0.0577	-1.0898	0.0140	-0.0090	0.0122	39.2377	0.3834	8.1396	0.6611	0.0961	0.7393	-0.0856
10.14	-9.5952	0.0652	-1.0905	0.0013	-0.0048	0.0147	39.1970	0.2637	8.2323	0.6610	0.0961	0.7392	-0.0856
10.15	-9.6016	0.0589	-1.0922	0.0018	-0.0047	0.0072	39.5526	0.4043	8.4560	0.6610	0.0960	0.7393	-0.0856
10.16	-9.5968	0.0361	-1.0840	0.0011	-0.0065	0.0055	39.4870	0.4900	8.2016	0.6609	0.0960	0.7393	-0.0856
10.17	-9.6044	0.0367	-1.0786	0.0061	-0.0124	0.0190	39.4126	0.3223	8.2936	0.6609	0.0960	0.7393	-0.0856
10.18	-9.6111	0.0220	-1.0672	0.0032	-0.0168	0.0147	39.4298	0.2944	8.3080	0.6610	0.0960	0.7394	-0.0856
10.19	-9.5987	0.0294	-1.0588	0.0048	-0.0137	0.0114	39.2460	0.2032	8.0383	0.6609	0.0960	0.7393	-0.0856
10.2	-9.6073	0.0162	-1.0730	0.0024	-0.0182	0.0148	39.4251	0.0955	8.2219	0.6610	0.0960	0.7394	-0.0856
10.21	-9.6002	0.0140	-1.0616	0.0014	-0.0164	0.0168	39.3196	0.2616	8.0912	0.6609	0.0960	0.7393	-0.0855
10.22	-9.6064	0.0110	-1.0592	0.0039	-0.0170	0.0142	39.3385	0.1863	8.2413	0.6610	0.0960	0.7393	-0.0855
10.23	-9.6136	-0.0019	-1.0666	0.0101	-0.0184	0.0168	39.4387	-0.0071	8.1296	0.6610	0.0960	0.7393	-0.0855
10.24	-9.6106	0.0077	-1.0674	0.0066	-0.0129	0.0159	39.3829	0.2221	8.1709	0.6610	0.0960	0.7393	-0.0855
10.25	-9.6011	0.0071	-1.0618	0.0047	-0.0182	0.0166	39.4264	0.3271	8.2196	0.6610	0.0960	0.7393	-0.0855
10.26	-9.6079	0.0033	-1.0677	0.0089	-0.0139	0.0124	39.4949	0.1762	8.1730	0.6610	0.0960	0.7392	-0.0855
10.27	-9.6052	0.0135	-1.0728	0.0104	-0.0154	0.0147	39.4864	0.1257	8.2637	0.6611	0.0961	0.7393	-0.0856
10.28	-9.6055	0.0128	-1.0722	0.0111	-0.0144	0.0159	39.4798	0.2275	8.3800	0.6610	0.0961	0.7392	-0.0856
10.29	-9.6080	0.0236	-1.0798	0.0030	-0.0199	0.0197	39.2978	0.3336	8.2693	0.6611	0.0961	0.7392	-0.0856
10.3	-9.5883	0.0293	-1.0882	0.0023	-0.0142	0.0151	39.1782	0.2776	8.1178	0.6611	0.0961	0.7392	-0.0855
10.31	-9.6051	0.0367	-1.0821	0.0116	-0.0056	0.0153	39.2062	0.3841	8.3856	0.6611	0.0961	0.7392	-0.0856
10.32	-9.6068	0.0433	-1.0807	0.0018	-0.0086	0.0117	39.3451	0.3991	8.2415	0.6610	0.0961	0.7392	-0.0855
10.33	-9.5933	0.0383	-1.0698	0.0115	-0.0086	0.0108	39.3133	0.1514	8.2381	0.6610	0.0961	0.7393	-0.0856
10.34	-9.5964	0.0445	-1.0687	0.0113	-0.0077	0.0138	39.3304	0.3504	8.2296	0.6610	0.0962	0.7393	-0.0856
10.35	-9.6083	0.0540	-1.0718	0.0067	-0.0037	0.0164	39.3160	0.4350	8.2460	0.6609	0.0962	0.7392	-0.0856
10.36	-9.5991	0.0363	-1.0612	0.0018	-0.0171	0.0162	39.3242	0.1529	8.4002	0.6610	0.0962	0.7393	-0.0856
10.37	-9.6064	0.0172	-1.0634	0.0035	-0.0182	0.0148	39.3216	0.1821	8.2243	0.6610	0.0962	0.7393	-0.0856
10.38	-9.6109	0.0166	-1.0781	0.0008	-0.0121	0.0123	39.3399	0.2521	8.1116	0.6610	0.0962	0.7393	-0.0856
10.39	-9.6102	-0.0065	-1.0753	0.0053	-0.0118	0.0125	39.2388	0.1319	8.1964	0.6609	0.0962	0.7392	-0.0856
10.4	-9.6054	-0.0106	-1.0768	0.0026	-0.0108	0.0124	39.3489	0.2463	8.1921	0.6610	0.0962	0.7393	-0.0856
10.41	-9.6016	-0.0115	-1.0810	0.0062	-0.0155	0.0189	39.4801	0.0526	8.0405	0.6610	0.0962	0.7393	-0.0855
10.42	-9.5997	-0.0097	-1.0739	0.0066	-0.0144	0.0149	39.4910	0.1280	8.0032	0.6609	0.0962	0.7392	-0.0855
10.43	-9.6060	0.0113	-1.0727	0.0078	-0.0148	0.0159	39.4939	0.2686	8.2454	0.6610	0.0962	0.7393	-0.0856
10.44	-9.6003	0.0173	-1.0782	0.0068	-0.0099	0.0152	39.4681	0.0456	8.0191	0.6610	0.0962	0.7393	-0.0856
10.45	-9.6016	0.0248	-1.0804	0.0063	-0.0175	0.0139	39.3387	0.1551	8.3402	0.6610	0.0962	0.7393	-0.0856
10.46	-9.6118	0.0193	-1.0857	0.0098	-0.0174	0.0150	39.2272	0.0295	8.3962	0.6610	0.0962	0.7392	-0.0856
10.47	-9.6034	0.0307	-1.0859	0.0094	-0.0127	0.0113	39.2598	0.2223	8.1448	0.6610	0.0963	0.7393	-0.0856
10.48	-9.5936	0.0298	-1.0787	0.0085	-0.0073	0.0167	39.3670	0.1401	8.2241	0.6610	0.0963	0.7393	-0.0856
10.49	-9.6008	0.0241	-1.0820	0.0080	-0.0094	0.0148	39.2355	0.2959	8.1722	0.6609	0.0963	0.7393	-0.0856
10.5	-9.6026	0.0193	-1.0761	-0.0021	-0.0115	0.0115	39.2470	0.2878	8.2960	0.6610	0.0963	0.7393	-0.0856
10.51	-9.5985	0.0254	-1.0573	0.0024	-0.0096	0.0168	39.4704	0.1482	8.2873	0.6609	0.0963	0.7393	-0.0856
10.52	-9.6016	0.0301	-1.0629	0.0102	-0.0146	0.0128	39.0936	0.4036	8.2670	0.6610	0.0963	0.7393	-0.0856
10.53	-9.5971	0.0265	-1.0621	0.0031	-0.0162	0.0117	39.1352	0.0946	8.3045	0.6609	0.0963	0.7392	-0.0856
10.54	-9.5969	0.0297	-1.0599	0.0016	-0.0181	0.0136	39.3839	0.1708	8.1428	0.6610	0.0963	0.7393	-0.0856
10.55	-9.5953	0.0217	-1.0584	0.0029	-0.0142	0.0205	39.2694	0.2722	8.3012	0.6610	0.0963	0.7393	-0.0856
10.56	-9.6083	0.0213	-1.0617	0.0038	-0.0193	0.0176	39.4630	0.3447	8.4033	0.6610	0.0963	0.7393	-0.0855
10.57	-9.6040	0.0157	-1.0511	-0.0002	-0.0074	0.0137	39.5062	0.2000	8.2830	0.6610	0.0963	0.7392	-0.0855
10.58	-9.5995	0.0141	-1.0485	0.0126	-0.0111	0.0171	39.3375	0.1498	8.1304	0.6610	0.0963	0.7393	-0.0855
10.59	-9.6092	0.0001	-1.0391	0.0140	-0.0146	0.0165	39.3740	0.2806	7.9654	0.6610	0.0964	0.7393	-0.0856
10.6	-9.6068	0.0114	-1.0446	0.0043	-0.0140	0.0170	39.4440	0.1172	8.1327	0.6609	0.0964	0.7392	-0.0855
10.61	-9.6028	0.0211	-1.0668	0.0073	-0.0170	0.0176	39.1842	0.1759	8.0996	0.6610	0.0964	0.7393	-0.0855
10.62	-9.6073	0.0269	-1.0718	0.0045	-0.0113	0.0144	39.3353	0.2136	8.1186	0.6610	0.0964	0.7392	-0.0855
10.63	-9.6097	0.0311	-1.0737	0.0116	-0.0094	0.0170	39.4602	0.0639	8.3644	0.6610	0.0964	0.7393	-0.0856
10.64	-9.5950	0.0337	-1.0787	0.0048	-0.0088	0.0140	39.1943	0.0434	8.3895	0.6609	0.0964	0.7392	-0.0855
10.65	-9.5918	0.0461	-1.1034	0.0018	-0.0113	0.0178	39.5018	0.0998	8.2501	0.6610	0.0964	0.7393	-0.0855
10.66	-9.6131	0.0436	-1.0917	-0.0021	-0.0113	0.0138	39.7480	0.1559	8.5230	0.6610	0.0964	0.7393	-0.0855
10.67	-9.5995	0.0420	-1.0957	0.0025	-0.0072	0.0102	39.6365	0.2034	8.2879	0.6609	0.0964	0.7392	-0.0855
10.68	-9.5987	0.0291	-1.0988	-0.0006	-0.0063	0.0135	39.4886	0.2029	8.3433	0.6610	0.0964	0.7394	-0.0855
10.69	-9.6126	0.0263	-1.1032	0.0053	-0.0093	0.0112	39.2482	0.2271	8.2793	0.6609	0.0964	0.7393	-0.0855
10.7	-9.6041	0.0284	-1.0942	-0.0014	-0.0057	0.0146	39.5356	0.2196	8.1108	0.6609	0.0964	0.7394	-0.0855
10.71	-9.6053	0.0183	-1.0854	-0.0006	-0.0080	0.0092	39.4418	0.0753	8.2826	0.6608	0.0963	0.7393	-0.0854
10.72	-9.6052	0.0149	-1.0813	-0.0030	-0.0082	0.0094	39.3539	0.0920	8.2596	0.6609	0.0963	0.7394	-0.0854
10.73	-9.6033	0.0152	-1.0784	-0.0018	-0.0098	0.0091	39.3308	0.2685	8.2118	0.6608	0.0963	0.7394	-0.0854
10.74	-9.6039	0.0020	-1.0764	-0.0022	-0.0092	0.0077	39.2462	0.1327	8.1369	0.6608	0.0962	0.7394	-0.0854
10.75	-9.6097	0.0085	-1.0757	0.0023	-0.0130	0.0123	39.4765	-0.1136	8.2088	0.6608	0.0962	0.7394	-0.0854
10.76	-9.6094	0.0029	-1.0825	0.0067	-0.0143	0.0145	39.5655	-0.1674	8.0088	0.6608	0.0962	0.7394	-0.0854
10.77	-9.6052	0.0120	-1.0767	0.0095	-0.0146	0.0161	39.6590	-0.1028	8.0610	0.6609	0.0963	0.7394	-0.0854
10.78	-9.6005	0.0183	-1.0740	0.0094	-0.0091	0.0144	39.7964	0.0312	8.1813	0.6608	0.0963	0.7394	-0.0854
10.79	-9.6022	0.0277	-1.0744	0.0094	-0.0128	0.0105	39.6205	0.0108	8.1996	0.6608	0.0963	0.7394	-0.0855
10.8	-9.6011	0.0263	-1.0660	0.0168	-0.0084	0.0139	39.5256	0.0133	8.2813	0.6608	0.0963	0.7394	-0.0855
10.81	-9.6027	0.0276	-1.0532	0.0067	-0.0081	0.0174	39.6517	0.0103	8.2424	0.6608	0.0963	0.7395	-0.0855
10.82	-9.6059	0.0264	-1.0660	0.0014	-0.0078	0.0090	39.5757	0.0913	7.8235	0.6607	0.0963	0.7394	-0.0855
10.83	-9.6061	0.0274	-1.0625	0.0053	-0.0113	0.0157	39.5458	0.2384	8.2838	0.6608	0.0963	0.7395	-0.0855
10.84	-9.6030	0.0133	-1.0679	0.0061	-0.0113	0.0094	39.6101	0.2459	8.2391	0.6608	0.0963	0.7395	-0.0855
10.85	-9.5981	0.0243	-1.0652	0.0047	-0.0062	0.0072	39.3170	0.3537	8.2059	0.6607	0.0963	0.7394	-0.0855
10.86	-9.5985	0.0332	-1.0672	0.0002	-0.0087	0.0119	39.4950	0.2176	8.3735	0.6607	0.0963	0.7396	-0.0855
10.87	-9.6038	0.0192	-1.0542	0.0001	-0.0087	0.0101	39.4996	0.0664	8.0627	0.6607	0.0963	0.7395	-0.0855
10.88	-9.5962	0.0127	-1.0663	0.0088	-0.0080	0.0113	39.4173	0.5544	8.0857	0.6607	0.0963	0.7396	-0.0855
10.89	-9.6036	0.0213	-1.0780	-0.0056	-0.0077	0.0131	39.5463	0.3198	8.0700	0.6606	0.0962	0.7395	-0.0855
10.9	-9.6092	0.0347	-1.0796	0.0015	-0.0061	0.0154	39.2999	0.0280	8.2028	0.6606	0.0962	0.7396	-0.0855
10.91	-9.5992	0.0239	-1.0892	-0.0003	-0.0041	0.0148	39.4486	0.1498	8.1435	0.6606	0.0962	0.7396	-0.0854
10.92	-9.6094	0.0307	-1.0830	-0.0001	-0.0129	0.0171	39.3839	0.2631	8.2488	0.6606	0.0962	0.7396	-0.0854
10.93	-9.6127	0.0255	-1.0813	0.0016	-0.0094	0.0113	39.2431	0.1597	8.2655	0.6606	0.0962	0.7397	-0.0854
10.94	-9.6085	0.0236	-1.0807	0.0032	-0.0125	0.0158	39.6038	0.0522	8.2454	0.6606	0.0962	0.7396	-0.0854
10.95	-9.6009	0.0243	-1.0776	0.0043	-0.0151	0.0123	39.7207	-0.0477	8.3042	0.6606	0.0962	0.7397	-0.0854
10.96	-9.6079	0.0341	-1.0916	0.0079	-0.0147	0.0126	39.6040	-0.0936	8.1504	0.6606	0.0962	0.7396	-0.0854
10.97	-9.5989	0.0265	-1.0901	0.0026	-0.0094	0.0173	39.4823	0.0696	8.1110	0.6606	0.0962	0.7397	-0.0854
10.98	-9.5993	0.0047	-1.0787	0.0012	-0.0072	0.0119	39.4671	-0.0872	8.1751	0.6606	0.0962	0.7397	-0.0854
10.99	-9.6000	0.0023	-1.0790	-0.0000	-0.0125	0.0160	39.6027	0.0668	8.2595	0.6606	0.0962	0.7396	-0.0853
11	-9.6083	0.0106	-1.0902	0.0049	-0.0121	0.0115	39.7045	0.2082	8.2550	0.6606	0.0962	0.7397	-0.0853
11.01	-9.6065	0.0219	-1.0854	0.0059	-0.0161	0.0075	39.5376	-0.0756	7.9089	0.6606	0.0962	0.7397	-0.0854
11.02	-9.6026	0.0327	-1.0703	0.0090	-0.0152	0.0182	39.5921	0.1355	8.1238	0.6606	0.0962	0.7397	-0.0854
11.03	-9.6052	0.0413	-1.0884	0.0047	-0.0090	0.0131	39.5330	-0.0331	8.3743	0.6605	0.0962	0.7396	-0.0854
11.04	-9.5959	0.0578	-1.0841	0.0074	-0.0068	0.0093	39.5108	0.2764	8.3183	0.6606	0.0962	0.7397	-0.0854
11.05	-9.5957	0.0528	-1.0780	0.0035	-0.0093	0.0132	39.5262	0.2992	8.2506	0.6605	0.0962	0.7397	-0.0854
11.06	-9.5964	0.0399	-1.0730	0.0039	-0.0083	0.0129	39.5243	0.0468	8.4780	0.6605	0.0962	0.7397	-0.0854
11.07	-9.5994	0.0457	-1.0739	-0.0004	-0.0071	0.0065	39.4327	0.2028	8.3102	0.6605	0.0962	0.7397	-0.0854
11.08	-9.6000	0.0364	-1.0695	0.0039	-0.0089	0.0094	39.4456	0.1611	8.2614	0.6605	0.0961	0.7397	-0.0854
11.09	-9.5981	0.0348	-1.0609	-0.0009	-0.0103	0.0107	39.4400	0.1866	8.2081	0.6605	0.0961	0.7398	-0.0854
11.1	-9.6066	0.0124	-1.0700	-0.0030	-0.0106	0.0085	39.4520	0.1538	8.1354	0.6604	0.0961	0.7397	-0.0854
11.11	-9.6036	-0.0024	-1.0635	-0.0021	-0.0156	0.0132	39.4261	0.3896	8.3025	0.6605	0.0960	0.7398	-0.0853
11.12	-9.5984	-0.0045	-1.0726	0.0071	-0.0158	0.0107	39.3523	0.2695	8.0274	0.6605	0.0960	0.7398	-0.0854
11.13	-9.6078	-0.0021	-1.0696	0.0093	-0.0112	0.0124	39.6160	-0.1800	8.0382	0.6605	0.0961	0.7398	-0.0854
11.14	-9.6024	0.0225	-1.0646	0.0026	-0.0101	0.0121	39.5881	-0.0505	8.2974	0.6604	0.0960	0.7397	-0.0854
11.15	-9.5937	0.0247	-1.0621	0.0053	-0.0189	0.0129	39.9507	0.1317	8.2613	0.6605	0.0960	0.7398	-0.0854
11.16	-9.6065	0.0252	-1.0648	-0.0001	-0.0205	0.0147	40.0024	-0.0709	8.4578	0.6605	0.0960	0.7397	-0.0854
11.17	-9.6003	0.0215	-1.0639	0.0025	-0.0189	0.0127	39.7288	-0.0098	8.4084	0.6605	0.0960	0.7397	-0.0854
11.18	-9.6012	0.0228	-1.0692	0.0046	-0.0166	0.0165	39.4717	0.3315	8.3159	0.6606	0.0960	0.7398	-0.0854
11.19	-9.5955	0.0073	-1.0650	0.0027	-0.0115	0.0166	39.1684	0.2421	8.1269	0.6605	0.0960	0.7397	-0.0853
11.2	-9.5984	0.0025	-1.0599	0.0071	-0.0132	0.0165	39.4614	0.0827	8.3199	0.6606	0.0960	0.7397	-0.0853
11.21	-9.6000	0.0017	-1.0563	0.0033	-0.0118	0.0165	39.3712	0.2644	8.0776	0.6605	0.0960	0.7396	-0.0853
11.22	-9.5955	0.0116	-1.0568	0.0054	-0.0136	0.0163	39.2820	0.0902	8.1472	0.6606	0.0961	0.7397	-0.0853
11.23	-9.6100	-0.0050	-1.0605	0.0072	-0.0084	0.0167	39.2587	0.0571	8.3384	0.6605	0.0961	0.7397	-0.0853
11.24	-9.6023	0.0042	-1.0688	0.0057	-0.0122	0.0172	39.1603	0.3220	8.2329	0.6605	0.0961	0.7397	-0.0853
11.25	-9.5911	0.0165	-1.0638	0.0077	-0.0060	0.0126	39.4134	0.2872	8.3190	0.6605	0.0961	0.7397	-0.0853
11.26	-9.5996	0.0040	-1.0664	0.0064	-0.0103	0.0121	39.3313	0.2359	8.2155	0.6605	0.0961	0.7397	-0.0853
11.27	-9.6035	0.0026	-1.0670	-0.0016	-0.0115	0.0140	39.4428	0.3507	8.2269	0.6605	0.0961	0.7398	-0.0853
11.28	-9.6058	0.0091	-1.0673	0.0101	-0.0038	0.0132	39.4442	0.2170	8.3862	0.6604	0.0961	0.7397	-0.0853
11.29	-9.5979	0.0289	-1.0756	0.0060	-0.0112	0.0134	39.3591	0.2211	8.3639	0.6605	0.0961	0.7398	-0.0853
11.3	-9.6016	0.0251	-1.0822	0.0046	-0.0165	0.0162	39.3454	0.2452	8.1942	0.6605	0.0961	0.7398	-0.0853
11.31	-9.6010	0.0200	-1.0842	0.0040	-0.0130	0.0146	39.2358	0.1466	8.2559	0.6605	0.0961	0.7398	-0.0853
11.32	-9.6099	0.0222	-1.0922	0.0013	-0.0137	0.0177	39.5009	0.1494	8.3020	0.6605	0.0961	0.7397	-0.0853
11.33	-9.6023	0.0229	-1.0926	0.0108	-0.0122	0.0151	39.2745	0.1218	8.2654	0.6605	0.0962	0.7398	-0.0853
11.34	-9.6085	0.0194	-1.0937	0.0073	-0.0152	0.0172	39.3832	0.0226	8.3071	0.6605	0.0962	0.7398	-0.0853
11.35	-9.6040	0.0264	-1.0988	0.0056	-0.0148	0.0160	39.5535	0.1580	8.2051	0.6604	0.0962	0.7397	-0.0853
11.36	-9.6054	0.0217	-1.0999	0.0089	-0.0105	0.0174	39.4383	0.1417	8.0814	0.6605	0.0962	0.7398	-0.0853
11.37	-9.6092	0.0247	-1.1055	0.0049	-0.0140	0.0108	39.4376	0.2919	8.2919	0.6605	0.0962	0.7397	-0.0853
11.38	-9.5921	0.0280	-1.0938	0.0064	-0.0135	0.0147	39.2685	0.3117	8.4551	0.6605	0.0962	0.7398	-0.0853
11.39	-9.5932	0.0217	-1.0975	0.0100	-0.0184	0.0168	39.3528	0.3090	8.4547	0.6605	0.0963	0.7397	-0.0853
11.4	-9.6075	0.0241	-1.0944	0.0126	-0.0163	0.0159	39.6078	0.1965	8.4450	0.6605	0.0963	0.7397	-0.0853
11.41	-9.6118	0.0332	-1.0921	0.0114	-0.0199	0.0130	39.5498	0.1151	7.9542	0.6605	0.0963	0.7397	-0.0854
11.42	-9.5967	0.0347	-1.0941	0.0065	-0.0160	0.0127	39.2691	0.2310	8.2774	0.6605	0.0963	0.7396	-0.0854
11.43	-9.6079	0.0328	-1.0808	0.0031	-0.0128	0.0122	39.2823	0.2188	8.3634	0.6606	0.0963	0.7397	-0.0854
11.44	-9.6043	0.0270	-1.0765	0.0008	-0.0127	0.0124	39.5679	0.1102	8.2810	0.6605	0.0963	0.7397	-0.0854
11.45	-9.6110	0.0271	-1.0599	0.0060	-0.0225	0.0154	39.3935	0.2153	8.2186	0.6606	0.0963	0.7397	-0.0854
11.46	-9.6022	0.0109	-1.0587	0.0087	-0.0176	0.0121	39.3693	0.2422	8.1832	0.6606	0.0963	0.7396	-0.0854
11.47	-9.6031	0.0091	-1.0586	0.0013	-0.0147	0.0131	39.3385	0.1004	8.2917	0.6606	0.0963	0.7396	-0.0854
11.48	-9.6070	0.0069	-1.0709	-0.0023	-0.0124	0.0160	39.3076	0.3711	8.3138	0.6606	0.0963	0.7396	-0.0853
11.49	-9.6018	0.0079	-1.0529	0.0045	-0.0163	0.0181	39.3995	0.3454	8.3919	0.6606	0.0963	0.7396	-0.0853
11.5	-9.5983	-0.0061	-1.0439	-0.0021	-0.0188	0.0177	39.2574	0.1154	8.2662	0.6607	0.0963	0.7396	-0.0853
11.51	-9.6097	-0.0122	-1.0564	0.0095	-0.0154	0.0153	39.5570	0.0107	8.2745	0.6607	0.0963	0.7396	-0.0853
11.52	-9.5948	-0.0091	-1.0395	0.0046	-0.0138	0.0174	39.6510	-0.1775	8.1614	0.6607	0.0963	0.7396	-0.0853
11.53	-9.5988	-0.0030	-1.0552	-0.0005	-0.0152	0.0144	39.5083	0.1041	8.3123	0.6606	0.0963	0.7395	-0.0853
11.54	-9.6077	-0.0038	-1.0531	0.0022	-0.0173	0.0135	39.4568	0.1200	8.2591	0.6607	0.0963	0.7396	-0.0853
11.55	-9.5933	-0.0086	-1.0469	0.0101	-0.0076	0.0177	39.5511	0.0745	8.1770	0.6607	0.0963	0.7395	-0.0853
11.56	-9.6019	-0.0016	-1.0506	0.0057	-0.0187	0.0160	39.2720	0.2416	8.2139	0.6607	0.0964	0.7395	-0.0853
11.57	-9.6087	0.0146	-1.0669	0.0129	-0.0210	0.0123	39.3797	0.1405	8.0855	0.6607	0.0964	0.7395	-0.0853
11.58	-9.6084	0.0178	-1.0861	0.0092	-0.0167	0.0206	39.4870	0.2465	8.1282	0.6608	0.0964	0.7395	-0.0853
11.59	-9.6072	0.0249	-1.0893	0.0075	-0.0172	0.0142	39.3888	0.2268	8.2661	0.6608	0.0964	0.7395	-0.0853
11.6	-9.6010	0.0352	-1.0900	0.0070	-0.0054	0.0110	39.3390	0.2127	8.2928	0.6607	0.0964	0.7394	-0.0853
11.61	-9.6061	0.0358	-1.1033	0.0096	-0.0144	0.0173	39.5819	0.2611	8.2647	0.6608	0.0965	0.7395	-0.0853
11.62	-9.6006	0.0387	-1.1109	-0.0017	-0.0123	0.0090	39.3290	0.1532	8.3141	0.6607	0.0964	0.7395	-0.0853
11.63	-9.5942	0.0338	-1.1155	0.0018	-0.0111	0.0151	39.2805	0.2160	8.1827	0.6608	0.0964	0.7395	-0.0853
11.64	-9.6086	0.0288	-1.1226	-0.0042	-0.0073	0.0181	39.2785	0.1382	8.2846	0.6607	0.0964	0.7395	-0.0852
11.65	-9.6122	0.0213	-1.1132	0.0019	-0.0085	0.0132	39.5214	0.0589	8.5079	0.6607	0.0964	0.7395	-0.0852
11.66	-9.6098	0.0272	-1.1069	0.0048	-0.0100	0.0109	39.6417	0.1924	8.4408	0.6607	0.0964	0.7395	-0.0852
11.67	-9.6103	0.0281	-1.0992	0.0029	-0.0101	0.0119	39.5388	0.0950	8.4410	0.6607	0.0964	0.7395	-0.0852
11.68	-9.6070	0.0168	-1.0915	0.0065	-0.0161	0.0094	39.4669	0.0220	8.2529	0.6608	0.0964	0.7396	-0.0853
11.69	-9.6039	0.0222	-1.0791	0.0036	-0.0119	0.0144	39.2356	0.0596	8.1945	0.6607	0.0964	0.7395	-0.0853
11.7	-9.6035	0.0204	-1.0725	0.0091	-0.0107	0.0147	39.4601	0.1348	8.2944	0.6607	0.0964	0.7396	-0.0853
11.71	-9.6029	0.0214	-1.0660	0.0083	-0.0100	0.0159	39.5960	0.0191	8.1664	0.6606	0.0964	0.7395	-0.0853
11.72	-9.6082	0.0238	-1.0631	0.0100	-0.0160	0.0122	39.5557	-0.0696	8.1753	0.6607	0.0965	0.7395	-0.0853
11.73	-9.6051	0.0316	-1.0609	0.0098	-0.0120	0.0078	39.5969	0.1164	8.2102	0.6607	0.0964	0.7395	-0.0853
11.74	-9.6084	0.0348	-1.0712	0.0056	-0.0116	0.0113	39.4950	0.0873	8.3100	0.6607	0.0964	0.7395	-0.0853
11.75	-9.5997	0.0368	-1.0672	0.0047	-0.0153	0.0120	39.4086	0.2237	8.1099	0.6607	0.0964	0.7395	-0.0853
11.76	-9.6038	0.0521	-1.0611	0.0080	-0.0114	0.0066	39.4008	0.2582	8.2496	0.6607	0.0964	0.7395	-0.0854
11.77	-9.6118	0.0504	-1.0516	0.0067	-0.0158	0.0101	39.4373	0.1493	8.1792	0.6607	0.0964	0.7395	-0.0854
11.78	-9.6121	0.0427	-1.0478	0.0062	-0.0122	0.0112	39.3119	0.2842	8.2483	0.6606	0.0964	0.7395	-0.0854
11.79	-9.6041	0.0303	-1.0644	0.0002	-0.0111	0.0136	39.2583	0.2647	8.3365	0.6607	0.0964	0.7395	-0.0854
11.8	-9.5938	0.0233	-1.0792	-0.0035	-0.0145	0.0063	39.1904	0.1121	8.2519	0.6607	0.0964	0.7395	-0.0854
