time	acceleration_x	acceleration_y	acceleration_z	gyroscope_x	gyroscope_y	gyroscope_z	magnetometer_x	magnetometer_y	magnetometer_z	quaternion_w	quaternion_x	quaternion_y	quaternion_z
0	-1.2577	-9.3891	2.6866	0.2763	-0.5559	-0.0156	-12.7557	21.2616	-19.4882	-0.1351	0.2086	0.5820	-0.7743
0.01	-1.1958	-9.3985	2.7370	0.2669	-0.5556	-0.0254	-12.7563	21.1071	-19.6587	-0.1337	0.2061	0.5814	-0.7756
0.02	-1.1272	-9.3996	2.7725	0.2639	-0.5478	-0.0331	-12.8459	21.0410	-19.5545	-0.1324	0.2036	0.5808	-0.7770
0.03	-1.0452	-9.3435	2.7862	0.2624	-0.5467	-0.0369	-13.1364	20.9935	-19.3818	-0.1311	0.2011	0.5802	-0.7783
0.04	-0.9555	-9.2795	2.8016	0.2406	-0.5434	-0.0367	-13.0255	20.6967	-19.4023	-0.1298	0.1987	0.5797	-0.7796
0.05	-0.8945	-9.2257	2.8027	0.2186	-0.5223	-0.0382	-13.1876	20.6575	-19.5606	-0.1284	0.1963	0.5791	-0.7806
0.06	-0.8372	-9.1937	2.7954	0.1746	-0.5130	-0.0390	-13.3361	20.7118	-19.4300	-0.1272	0.1940	0.5789	-0.7817
0.07	-0.8173	-9.1997	2.7790	0.1418	-0.4850	-0.0400	-13.4260	20.5949	-19.4559	-0.1259	0.1918	0.5788	-0.7825
0.08	-0.8210	-9.2478	2.7758	0.1076	-0.4647	-0.0375	-13.2133	20.0764	-19.4521	-0.1247	0.1897	0.5787	-0.7833
0.09	-0.8115	-9.3136	2.7746	0.0730	-0.4483	-0.0176	-12.9197	19.9399	-19.3273	-0.1234	0.1878	0.5787	-0.7840
0.1	-0.8368	-9.3647	2.7654	0.0445	-0.4291	-0.0149	-13.2855	20.0575	-19.1941	-0.1221	0.1860	0.5788	-0.7845
0.11	-0.8737	-9.4305	2.7712	0.0276	-0.4127	-0.0026	-14.5652	20.0122	-19.5976	-0.1208	0.1842	0.5790	-0.7851
0.12	-0.9167	-9.5051	2.7651	0.0137	-0.4084	0.0084	-13.6201	20.4190	-19.2058	-0.1194	0.1826	0.5791	-0.7854
0.13	-0.9290	-9.5826	2.7542	0.0067	-0.3882	0.0114	-13.8962	20.5401	-19.2490	-0.1182	0.1810	0.5794	-0.7859
0.14	-0.9142	-9.6315	2.7422	-0.0000	-0.3796	0.0136	-14.2280	20.5597	-19.2730	-0.1169	0.1795	0.5797	-0.7862
0.15	-0.8817	-9.6275	2.7504	0.0084	-0.3685	0.0143	-14.2634	20.9616	-19.0068	-0.1156	0.1780	0.5799	-0.7866
0.16	-0.8583	-9.6443	2.7611	0.0172	-0.3404	0.0157	-14.3268	20.5035	-19.1543	-0.1144	0.1765	0.5801	-0.7869
0.17	-0.8462	-9.6723	2.7901	0.0248	-0.3274	0.0209	-14.2756	20.4141	-19.0032	-0.1133	0.1752	0.5802	-0.7873
0.18	-0.8342	-9.6888	2.7970	0.0349	-0.3056	0.0227	-14.5443	20.5424	-18.8535	-0.1122	0.1740	0.5803	-0.7876
0.19	-0.8295	-9.6672	2.8057	0.0448	-0.2733	0.0232	-14.5783	20.7361	-18.9404	-0.1112	0.1728	0.5803	-0.7880
0.2	-0.8471	-9.6268	2.8022	0.0483	-0.2457	0.0287	-14.6603	20.9719	-19.0582	-0.1103	0.1719	0.5804	-0.7884
0.21	-0.8872	-9.5934	2.7993	0.0456	-0.2188	0.0388	-14.9423	20.7588	-18.9342	-0.1095	0.1710	0.5803	-0.7887
0.22	-0.9490	-9.5928	2.8037	0.0535	-0.1905	0.0505	-14.6246	20.3167	-18.9479	-0.1086	0.1702	0.5803	-0.7891
0.23	-1.0503	-9.5836	2.8052	0.0483	-0.1585	0.0546	-14.3748	20.3282	-18.9620	-0.1078	0.1696	0.5801	-0.7893
0.24	-1.1749	-9.5687	2.8154	0.0548	-0.1339	0.0533	-14.6023	20.3910	-18.9006	-0.1072	0.1691	0.5800	-0.7896
0.25	-1.2767	-9.5495	2.8168	0.0588	-0.1154	0.0478	-14.5928	20.5065	-18.8826	-0.1066	0.1687	0.5799	-0.7899
0.26	-1.3561	-9.5186	2.8236	0.0568	-0.1122	0.0354	-14.7185	20.5946	-19.0323	-0.1060	0.1683	0.5797	-0.7901
0.27	-1.4095	-9.4934	2.8481	0.0675	-0.1007	0.0229	-14.3442	19.9588	-19.0604	-0.1055	0.1678	0.5796	-0.7905
0.28	-1.4300	-9.4771	2.8587	0.0696	-0.1011	0.0084	-14.1636	19.7183	-19.0668	-0.1051	0.1673	0.5794	-0.7907
0.29	-1.4193	-9.4287	2.8648	0.0738	-0.1097	-0.0016	-14.3378	20.1513	-19.0768	-0.1048	0.1668	0.5793	-0.7910
0.3	-1.3965	-9.3786	2.8839	0.0644	-0.1024	-0.0103	-14.5213	20.0237	-19.1428	-0.1044	0.1662	0.5791	-0.7912
0.31	-1.3630	-9.3358	2.8882	0.0626	-0.1017	-0.0210	-14.3443	20.2235	-18.9143	-0.1042	0.1656	0.5790	-0.7915
0.32	-1.3279	-9.2885	2.8906	0.0537	-0.0937	-0.0340	-14.6281	20.4488	-18.9198	-0.1039	0.1650	0.5789	-0.7917
0.33	-1.2975	-9.2841	2.8907	0.0299	-0.0870	-0.0337	-14.9225	20.4443	-18.8138	-0.1037	0.1645	0.5789	-0.7919
0.34	-1.2792	-9.2897	2.8918	0.0229	-0.0793	-0.0335	-15.0401	20.6044	-18.9805	-0.1035	0.1640	0.5790	-0.7919
0.35	-1.2682	-9.3045	2.8933	0.0081	-0.0671	-0.0353	-14.7252	20.4593	-18.8167	-0.1033	0.1635	0.5791	-0.7920
0.36	-1.2684	-9.2990	2.8807	-0.0102	-0.0528	-0.0330	-14.8554	20.4969	-18.8983	-0.1032	0.1631	0.5792	-0.7920
0.37	-1.2795	-9.3223	2.8681	-0.0209	-0.0472	-0.0338	-15.0411	20.5460	-18.7526	-0.1030	0.1628	0.5793	-0.7919
0.38	-1.2940	-9.3740	2.8637	-0.0298	-0.0467	-0.0334	-15.0090	20.8139	-18.7811	-0.1029	0.1624	0.5796	-0.7920
0.39	-1.2940	-9.4036	2.8554	-0.0290	-0.0428	-0.0312	-15.1517	20.7015	-18.7536	-0.1027	0.1621	0.5797	-0.7919
0.4	-1.2821	-9.4319	2.8528	-0.0307	-0.0482	-0.0290	-15.0122	20.6164	-18.5720	-0.1026	0.1617	0.5799	-0.7919
0.41	-1.2535	-9.4373	2.8573	-0.0280	-0.0499	-0.0289	-15.0205	20.4564	-18.5918	-0.1024	0.1614	0.5800	-0.7918
0.42	-1.2141	-9.4466	2.8610	-0.0255	-0.0513	-0.0240	-14.8829	20.4248	-18.5461	-0.1022	0.1610	0.5802	-0.7918
0.43	-1.1937	-9.4539	2.8675	-0.0217	-0.0550	-0.0110	-15.0099	20.3388	-18.6755	-0.1019	0.1607	0.5804	-0.7918
0.44	-1.1861	-9.4487	2.8678	-0.0282	-0.0522	-0.0090	-14.9596	20.6453	-18.9086	-0.1017	0.1604	0.5806	-0.7917
0.45	-1.1762	-9.4378	2.8624	-0.0307	-0.0486	-0.0089	-14.8066	20.1168	-18.7156	-0.1014	0.1601	0.5808	-0.7918
0.46	-1.1683	-9.4305	2.8488	-0.0268	-0.0431	-0.0087	-14.5933	19.7102	-18.8049	-0.1012	0.1598	0.5809	-0.7917
0.47	-1.1568	-9.4383	2.8396	-0.0314	-0.0510	-0.0049	-14.6131	19.8031	-18.8544	-0.1009	0.1595	0.5811	-0.7917
0.48	-1.1454	-9.4557	2.8376	-0.0291	-0.0402	-0.0031	-14.7986	19.9447	-18.8361	-0.1007	0.1592	0.5812	-0.7916
0.49	-1.1383	-9.4869	2.8377	-0.0322	-0.0358	0.0022	-14.8171	20.0873	-18.9708	-0.1004	0.1590	0.5815	-0.7916
0.5	-1.1235	-9.4814	2.8290	-0.0308	-0.0380	0.0071	-14.7615	20.2369	-18.7089	-0.1001	0.1588	0.5817	-0.7915
0.51	-1.1049	-9.4857	2.8262	-0.0302	-0.0281	0.0113	-14.9964	20.7160	-18.3020	-0.0999	0.1586	0.5818	-0.7914
0.52	-1.0890	-9.5141	2.8361	-0.0304	-0.0133	0.0093	-15.1534	20.6342	-18.3069	-0.0996	0.1585	0.5821	-0.7913
0.53	-1.0889	-9.5188	2.8367	-0.0308	-0.0111	0.0115	-15.1593	20.6014	-18.4587	-0.0994	0.1585	0.5822	-0.7912
0.54	-1.0890	-9.5114	2.8412	-0.0286	-0.0034	0.0112	-15.3339	20.7028	-18.3120	-0.0992	0.1584	0.5824	-0.7911
0.55	-1.0849	-9.4963	2.8412	-0.0277	0.0125	0.0102	-15.3907	20.6413	-18.3130	-0.0991	0.1584	0.5825	-0.7909
0.56	-1.0758	-9.4904	2.8283	-0.0246	0.0269	0.0083	-15.1618	20.7997	-18.4111	-0.0990	0.1584	0.5827	-0.7909
0.57	-1.0617	-9.4817	2.8230	-0.0281	0.0404	0.0144	-15.3543	21.0334	-18.4492	-0.0989	0.1585	0.5829	-0.7908
0.58	-1.0572	-9.4889	2.8145	-0.0301	0.0497	0.0132	-15.3267	20.9513	-18.2553	-0.0988	0.1587	0.5830	-0.7907
0.59	-1.0539	-9.5074	2.8135	-0.0300	0.0505	0.0163	-14.6582	20.9224	-18.1104	-0.0988	0.1589	0.5832	-0.7905
0.6	-1.0583	-9.5404	2.8084	-0.0285	0.0655	0.0178	-14.9333	20.9953	-18.2043	-0.0988	0.1591	0.5833	-0.7904
0.61	-1.0701	-9.5652	2.7993	-0.0321	0.0801	0.0211	-16.0189	20.8117	-18.2347	-0.0988	0.1594	0.5835	-0.7902
0.62	-1.0965	-9.5712	2.7872	-0.0293	0.0888	0.0264	-14.9745	20.9182	-18.5036	-0.0988	0.1597	0.5835	-0.7900
0.63	-1.1336	-9.5844	2.7798	-0.0310	0.1105	0.0270	-14.8654	20.7392	-18.4749	-0.0988	0.1602	0.5837	-0.7899
0.64	-1.1782	-9.5847	2.7770	-0.0101	0.1165	0.0326	-14.4337	20.0833	-18.6142	-0.0989	0.1606	0.5837	-0.7897
0.65	-1.2398	-9.6022	2.7829	-0.0051	0.1247	0.0343	-14.5940	19.9116	-18.5202	-0.0990	0.1611	0.5838	-0.7897
0.66	-1.3072	-9.5893	2.7826	0.0084	0.1249	0.0488	-14.4936	19.9598	-18.5284	-0.0991	0.1616	0.5836	-0.7895
0.67	-1.3682	-9.5601	2.7807	0.0228	0.1195	0.0502	-14.4717	20.4418	-18.5874	-0.0991	0.1622	0.5836	-0.7895
0.68	-1.4191	-9.5420	2.7801	0.0204	0.1096	0.0569	-14.7148	20.8673	-18.3843	-0.0991	0.1627	0.5834	-0.7895
0.69	-1.4562	-9.5210	2.7887	0.0256	0.1134	0.0548	-14.4716	20.9654	-18.4727	-0.0992	0.1632	0.5833	-0.7894
0.7	-1.4845	-9.5024	2.8018	0.0326	0.0937	0.0550	-14.5206	20.9570	-18.4278	-0.0991	0.1636	0.5832	-0.7896
0.71	-1.4969	-9.4773	2.8007	0.0415	0.0849	0.0579	-14.6871	20.8757	-18.4522	-0.0991	0.1640	0.5830	-0.7896
0.72	-1.5000	-9.4747	2.8210	0.0457	0.0760	0.0626	-14.4883	20.8253	-18.4692	-0.0990	0.1644	0.5828	-0.7897
0.73	-1.5199	-9.4722	2.8318	0.0461	0.0624	0.0633	-14.3984	20.7788	-18.6805	-0.0988	0.1647	0.5825	-0.7897
0.74	-1.5049	-9.4571	2.8410	0.0453	0.0652	0.0577	-14.3041	20.6805	-18.5482	-0.0987	0.1650	0.5824	-0.7899
0.75	-1.4857	-9.4378	2.8487	0.0463	0.0511	0.0591	-14.4621	20.9437	-18.5931	-0.0985	0.1652	0.5822	-0.7899
0.76	-1.4711	-9.4180	2.8697	0.0455	0.0463	0.0549	-14.5681	21.1926	-18.6366	-0.0984	0.1655	0.5820	-0.7900
0.77	-1.4601	-9.4073	2.8843	0.0560	0.0344	0.0614	-14.5822	21.0117	-18.6574	-0.0982	0.1657	0.5818	-0.7902
0.78	-1.4403	-9.3854	2.9067	0.0544	0.0353	0.0596	-14.4374	20.9639	-18.8284	-0.0980	0.1659	0.5816	-0.7903
0.79	-1.4254	-9.3644	2.9225	0.0607	0.0383	0.0651	-14.1271	20.7431	-18.6578	-0.0978	0.1661	0.5814	-0.7905
0.8	-1.4230	-9.3486	2.9462	0.0589	0.0290	0.0642	-14.2223	21.0009	-18.8341	-0.0975	0.1662	0.5811	-0.7906
0.81	-1.4279	-9.3262	2.9677	0.0576	0.0357	0.0692	-14.2084	20.8084	-18.6953	-0.0973	0.1665	0.5809	-0.7908
0.82	-1.4392	-9.3146	2.9894	0.0493	0.0406	0.0670	-13.9375	20.8580	-18.8844	-0.0971	0.1667	0.5807	-0.7909
0.83	-1.4404	-9.2954	3.0155	0.0453	0.0334	0.0651	-13.9687	20.7978	-18.9203	-0.0968	0.1669	0.5805	-0.7911
0.84	-1.4453	-9.2769	3.0340	0.0420	0.0306	0.0647	-13.9268	20.9011	-18.7765	-0.0966	0.1671	0.5803	-0.7912
0.85	-1.4478	-9.2593	3.0467	0.0248	0.0372	0.0604	-14.2333	21.0598	-18.8605	-0.0964	0.1673	0.5802	-0.7913
0.86	-1.4439	-9.2421	3.0567	0.0210	0.0426	0.0556	-14.1215	20.9594	-18.9041	-0.0962	0.1675	0.5800	-0.7914
0.87	-1.4338	-9.2352	3.0577	0.0075	0.0381	0.0532	-13.9009	21.2047	-18.9995	-0.0960	0.1676	0.5799	-0.7913
0.88	-1.4213	-9.2226	3.0556	-0.0082	0.0437	0.0414	-14.1049	20.8919	-18.9914	-0.0959	0.1678	0.5800	-0.7914
0.89	-1.4036	-9.2149	3.0446	-0.0172	0.0504	0.0384	-13.9491	20.9050	-18.8495	-0.0957	0.1680	0.5800	-0.7913
0.9	-1.4001	-9.2049	3.0295	-0.0308	0.0502	0.0319	-13.7674	21.0692	-18.7198	-0.0956	0.1682	0.5802	-0.7913
0.91	-1.3987	-9.2313	3.0190	-0.0371	0.0560	0.0200	-13.7510	21.0407	-18.7325	-0.0956	0.1684	0.5802	-0.7911
0.92	-1.4199	-9.2824	3.0140	-0.0558	0.0660	0.0235	-13.9380	21.2013	-18.6878	-0.0955	0.1686	0.5804	-0.7909
0.93	-1.4477	-9.3101	2.9890	-0.0544	0.0724	0.0233	-13.8929	21.2035	-18.8381	-0.0955	0.1688	0.5806	-0.7907
0.94	-1.4890	-9.3236	2.9683	-0.0570	0.0847	0.0196	-13.8516	21.0824	-18.9566	-0.0955	0.1691	0.5808	-0.7905
0.95	-1.5498	-9.3782	2.9611	-0.0649	0.0812	0.0191	-13.9418	21.4115	-18.6738	-0.0955	0.1694	0.5811	-0.7903
0.96	-1.6011	-9.4318	2.9468	-0.0569	0.0774	0.0175	-13.7084	21.1972	-18.7532	-0.0955	0.1697	0.5813	-0.7900
0.97	-1.6473	-9.4625	2.9320	-0.0579	0.0701	0.0204	-13.8135	21.1831	-18.6854	-0.0955	0.1700	0.5816	-0.7898
0.98	-1.6582	-9.4809	2.9127	-0.0481	0.0578	0.0187	-13.5974	21.3474	-18.8427	-0.0954	0.1702	0.5818	-0.7895
0.99	-1.6407	-9.4909	2.9088	-0.0310	0.0456	0.0128	-13.4424	21.1008	-18.7756	-0.0954	0.1703	0.5820	-0.7894
1	-1.6183	-9.5248	2.9129	-0.0309	0.0304	0.0168	-13.4645	20.9956	-18.7125	-0.0952	0.1704	0.5821	-0.7893
1.01	-1.5923	-9.5411	2.9120	-0.0127	0.0355	0.0167	-13.5109	21.0109	-18.6516	-0.0952	0.1705	0.5822	-0.7892
1.02	-1.5631	-9.5517	2.9267	0.0028	0.0266	0.0191	-13.5128	21.2913	-18.5963	-0.0951	0.1706	0.5823	-0.7892
1.03	-1.5258	-9.5723	2.9351	0.0195	0.0242	0.0181	-13.7338	21.1917	-18.9575	-0.0949	0.1706	0.5822	-0.7892
1.04	-1.4917	-9.5609	2.9366	0.0318	0.0356	0.0214	-13.6584	21.3090	-18.7672	-0.0949	0.1707	0.5822	-0.7893
1.05	-1.4706	-9.4920	2.9347	0.0455	0.0293	0.0260	-13.6940	21.4046	-18.6261	-0.0948	0.1707	0.5820	-0.7893
1.06	-1.4778	-9.4129	2.9303	0.0477	0.0468	0.0372	-13.4502	21.4471	-18.7147	-0.0947	0.1709	0.5819	-0.7895
1.07	-1.5271	-9.3496	2.9376	0.0474	0.0579	0.0421	-13.5516	21.4895	-18.6287	-0.0946	0.1711	0.5817	-0.7896
1.08	-1.6050	-9.3224	2.9409	0.0498	0.0690	0.0444	-13.3099	21.2981	-18.5591	-0.0946	0.1714	0.5815	-0.7897
1.09	-1.6789	-9.2884	2.9464	0.0461	0.0706	0.0454	-13.0322	21.4338	-18.5304	-0.0945	0.1717	0.5813	-0.7897
1.1	-1.7338	-9.2533	2.9604	0.0459	0.0687	0.0453	-13.5147	21.4464	-18.7383	-0.0945	0.1720	0.5811	-0.7898
1.11	-1.7695	-9.2574	2.9854	0.0418	0.0731	0.0446	-14.2894	21.2694	-18.8926	-0.0945	0.1723	0.5810	-0.7899
1.12	-1.7961	-9.2553	3.0001	0.0315	0.0660	0.0419	-13.4284	21.6422	-18.8030	-0.0944	0.1725	0.5808	-0.7899
1.13	-1.8288	-9.2575	3.0165	0.0228	0.0600	0.0437	-13.4825	21.5048	-18.8556	-0.0943	0.1728	0.5808	-0.7900
1.14	-1.8393	-9.2335	3.0249	0.0210	0.0567	0.0447	-13.3373	21.1968	-19.0203	-0.0942	0.1730	0.5807	-0.7899
1.15	-1.8283	-9.1931	3.0312	0.0137	0.0472	0.0446	-13.1164	21.4183	-19.0894	-0.0941	0.1732	0.5807	-0.7900
1.16	-1.8163	-9.1755	3.0391	-0.0063	0.0352	0.0455	-13.1708	21.2686	-18.8182	-0.0939	0.1734	0.5806	-0.7899
1.17	-1.8133	-9.2873	3.0532	-0.0196	0.0293	0.0473	-13.1006	21.1938	-19.0347	-0.0937	0.1735	0.5807	-0.7899
1.18	-1.8096	-9.2968	3.0074	-0.0280	0.0251	0.0446	-12.8914	21.2020	-19.1639	-0.0935	0.1736	0.5808	-0.7898
1.19	-1.8357	-9.3158	3.0446	-0.0304	0.0167	0.0506	-13.1772	21.2031	-18.8205	-0.0932	0.1737	0.5809	-0.7897
1.2	-1.8873	-9.3991	2.9481	-0.0365	0.0136	0.0574	-12.9282	21.1972	-18.8847	-0.0929	0.1739	0.5811	-0.7897
1.21	-1.9139	-9.2491	2.8887	-0.0334	0.0084	0.0622	-13.1420	21.3648	-18.9670	-0.0925	0.1740	0.5812	-0.7895
1.22	-1.9742	-9.3284	2.9397	-0.0528	-0.0050	0.0693	-13.0823	21.3364	-18.9536	-0.0921	0.1741	0.5814	-0.7895
1.23	-2.0338	-9.5461	2.9412	-0.0597	-0.0222	0.0660	-13.0502	21.1738	-18.9435	-0.0916	0.1741	0.5816	-0.7892
1.24	-2.0706	-9.7221	2.9244	-0.0534	-0.0403	0.0666	-12.9507	21.4509	-18.9762	-0.0911	0.1741	0.5819	-0.7892
1.25	-2.0738	-9.6818	2.8691	-0.0153	-0.0609	0.0671	-12.9910	21.2957	-18.9051	-0.0905	0.1740	0.5820	-0.7892
1.26	-2.0048	-9.5358	2.8220	0.0088	-0.0887	0.0688	-12.8669	21.6270	-18.8308	-0.0899	0.1737	0.5820	-0.7893
1.27	-1.9023	-9.4249	2.7769	0.0170	-0.1097	0.0641	-12.9727	21.7534	-19.0123	-0.0892	0.1734	0.5821	-0.7895
1.28	-1.7840	-9.2954	2.7417	0.0315	-0.1167	0.0703	-12.9547	21.5988	-18.6384	-0.0885	0.1730	0.5820	-0.7896
1.29	-1.7060	-9.2282	2.7170	0.0229	-0.1113	0.0795	-12.9842	21.7166	-18.8361	-0.0878	0.1727	0.5820	-0.7899
1.3	-1.6431	-9.1415	2.7034	0.0233	-0.1027	0.0793	-12.8419	21.8200	-18.8898	-0.0871	0.1724	0.5819	-0.7899
1.31	-1.6035	-9.1340	2.7135	0.0051	-0.0781	0.0918	-13.1241	21.7224	-18.7671	-0.0864	0.1722	0.5819	-0.7901
1.32	-1.6115	-9.2006	2.7138	-0.0057	-0.0531	0.0950	-13.0939	21.7331	-18.7554	-0.0857	0.1722	0.5819	-0.7902
1.33	-1.6666	-9.2485	2.7420	-0.0124	-0.0387	0.1080	-12.7630	21.7449	-18.6257	-0.0851	0.1722	0.5820	-0.7902
1.34	-1.7713	-9.3647	2.7794	-0.0270	-0.0236	0.1079	-12.8028	21.7262	-18.9173	-0.0844	0.1723	0.5820	-0.7902
1.35	-1.8727	-9.4497	2.7893	-0.0087	-0.0127	0.0993	-12.6350	21.5013	-18.8269	-0.0839	0.1725	0.5821	-0.7902
1.36	-1.9393	-9.4395	2.7963	0.0068	-0.0080	0.0949	-12.6144	21.6333	-18.7431	-0.0834	0.1726	0.5821	-0.7902
1.37	-1.9630	-9.3443	2.8031	0.0238	-0.0118	0.0922	-12.5326	21.6621	-18.8245	-0.0829	0.1727	0.5819	-0.7903
1.38	-1.9742	-9.2595	2.8179	0.0259	-0.0077	0.0796	-12.3960	21.6259	-18.4966	-0.0824	0.1728	0.5819	-0.7905
1.39	-1.9912	-9.2147	2.8409	0.0284	-0.0057	0.0747	-12.4590	21.8622	-18.7398	-0.0820	0.1729	0.5818	-0.7905
1.4	-2.0157	-9.2128	2.8605	0.0322	0.0089	0.0715	-12.3488	21.8942	-18.7120	-0.0817	0.1730	0.5817	-0.7907
1.41	-2.0422	-9.1981	2.8873	0.0171	0.0098	0.0682	-12.3261	21.6053	-18.7610	-0.0813	0.1731	0.5815	-0.7906
1.42	-2.0703	-9.1932	2.9081	0.0206	0.0088	0.0665	-12.4783	21.7794	-19.0205	-0.0810	0.1732	0.5815	-0.7907
1.43	-2.1030	-9.1996	2.9179	0.0096	0.0082	0.0613	-12.5401	21.6844	-18.7394	-0.0807	0.1733	0.5815	-0.7908
1.44	-2.1288	-9.2305	2.9585	-0.0016	0.0112	0.0523	-12.4964	21.9162	-18.8281	-0.0804	0.1734	0.5814	-0.7908
1.45	-2.1420	-9.3009	2.9588	-0.0066	0.0144	0.0469	-12.5415	21.9137	-18.6185	-0.0802	0.1735	0.5815	-0.7909
1.46	-2.1446	-9.2977	2.9531	0.0014	0.0069	0.0338	-12.3177	21.9261	-18.8024	-0.0800	0.1735	0.5815	-0.7908
1.47	-2.1304	-9.2372	2.9440	0.0130	-0.0095	0.0238	-12.2190	22.0924	-18.8490	-0.0797	0.1734	0.5816	-0.7909
1.48	-2.1082	-9.1888	2.9429	0.0136	-0.0081	0.0191	-12.2639	22.0956	-18.6517	-0.0795	0.1733	0.5814	-0.7908
1.49	-2.0811	-9.1733	2.9482	0.0091	-0.0096	0.0147	-12.1270	21.8586	-18.9377	-0.0794	0.1732	0.5815	-0.7910
1.5	-2.0607	-9.1912	2.9436	0.0073	-0.0122	0.0009	-12.1756	21.9778	-18.8006	-0.0792	0.1730	0.5815	-0.7910
1.51	-2.0446	-9.2166	2.9465	-0.0095	-0.0135	0.0010	-12.1282	22.0089	-18.7505	-0.0791	0.1728	0.5815	-0.7910
1.52	-2.0303	-9.2305	2.9477	-0.0064	-0.0107	0.0051	-12.2903	22.0044	-18.9171	-0.0790	0.1726	0.5816	-0.7910
1.53	-2.0026	-9.2461	2.9440	-0.0123	-0.0110	0.0082	-12.1717	21.8468	-18.8012	-0.0788	0.1725	0.5817	-0.7910
1.54	-1.9737	-9.2416	2.9389	-0.0134	-0.0086	0.0053	-11.7928	21.8364	-18.8278	-0.0786	0.1723	0.5818	-0.7910
1.55	-1.9705	-9.2609	2.9401	-0.0216	0.0012	-0.0005	-12.2034	21.7435	-18.8826	-0.0785	0.1722	0.5818	-0.7909
1.56	-1.9694	-9.2871	2.9339	-0.0178	0.0114	0.0046	-12.1095	21.6256	-18.8581	-0.0784	0.1721	0.5820	-0.7910
1.57	-1.9629	-9.2743	2.9159	-0.0065	0.0167	0.0047	-11.9422	21.9972	-18.8679	-0.0784	0.1721	0.5820	-0.7909
1.58	-1.9723	-9.2815	2.9045	-0.0159	0.0168	0.0028	-11.9107	21.9510	-18.8989	-0.0783	0.1720	0.5821	-0.7909
1.59	-1.9911	-9.3020	2.8810	-0.0110	0.0232	-0.0002	-11.4947	21.7947	-18.6548	-0.0783	0.1720	0.5821	-0.7908
1.6	-2.0105	-9.2897	2.8779	-0.0043	0.0227	-0.0008	-11.8407	21.8976	-18.5273	-0.0782	0.1719	0.5821	-0.7908
1.61	-2.0353	-9.2758	2.8746	-0.0016	0.0239	-0.0031	-12.5671	21.9642	-18.8433	-0.0782	0.1719	0.5822	-0.7909
1.62	-2.0569	-9.2330	2.8668	-0.0025	0.0236	-0.0066	-12.1231	21.9717	-18.4356	-0.0782	0.1718	0.5821	-0.7908
1.63	-2.0604	-9.2283	2.8760	-0.0057	0.0111	-0.0073	-12.1947	21.8295	-18.7044	-0.0782	0.1717	0.5823	-0.7909
1.64	-2.0570	-9.2737	2.8894	-0.0143	0.0188	-0.0075	-12.1650	22.0710	-19.0034	-0.0781	0.1716	0.5823	-0.7908
1.65	-2.0612	-9.3388	2.8970	-0.0195	0.0086	-0.0082	-12.0852	22.1430	-18.8461	-0.0781	0.1716	0.5825	-0.7908
1.66	-2.0544	-9.3531	2.8874	-0.0167	0.0104	-0.0219	-12.0648	22.1368	-18.7372	-0.0780	0.1714	0.5826	-0.7906
1.67	-2.0031	-9.3375	2.8758	-0.0299	-0.0012	-0.0238	-12.0517	21.8604	-18.7648	-0.0780	0.1713	0.5828	-0.7905
1.68	-1.9481	-9.3114	2.8703	-0.0269	-0.0070	-0.0233	-12.1498	21.9241	-19.0445	-0.0779	0.1711	0.5830	-0.7904
1.69	-1.9305	-9.3189	2.8584	-0.0296	-0.0035	-0.0220	-12.3939	21.8819	-18.6130	-0.0779	0.1709	0.5831	-0.7903
1.7	-1.9188	-9.3325	2.8356	-0.0289	0.0066	-0.0200	-12.1806	21.8520	-18.7843	-0.0779	0.1707	0.5833	-0.7904
1.71	-1.9089	-9.3138	2.8319	-0.0270	0.0106	-0.0148	-12.3427	22.1441	-18.8209	-0.0778	0.1706	0.5834	-0.7902
1.72	-1.9026	-9.3141	2.8296	-0.0263	0.0032	-0.0075	-12.2162	22.0707	-18.6957	-0.0778	0.1705	0.5836	-0.7902
1.73	-1.8969	-9.3099	2.8164	-0.0245	0.0084	-0.0074	-12.0433	21.8559	-18.8650	-0.0777	0.1703	0.5836	-0.7901
1.74	-1.9076	-9.3126	2.8041	-0.0162	0.0090	-0.0075	-12.0705	21.7408	-18.7965	-0.0776	0.1703	0.5837	-0.7901
1.75	-1.9103	-9.2758	2.7820	-0.0195	0.0175	-0.0070	-12.2725	21.9957	-18.8995	-0.0776	0.1702	0.5838	-0.7900
1.76	-1.9022	-9.2318	2.7796	-0.0237	0.0097	-0.0082	-12.0805	21.7715	-18.8858	-0.0775	0.1701	0.5839	-0.7900
1.77	-1.8880	-9.2414	2.7712	-0.0280	0.0085	-0.0092	-12.0720	21.7919	-18.5771	-0.0774	0.1700	0.5841	-0.7900
1.78	-1.8857	-9.2870	2.7790	-0.0269	0.0169	-0.0070	-12.0323	21.9848	-18.7321	-0.0774	0.1699	0.5842	-0.7899
1.79	-1.8753	-9.3310	2.7915	-0.0189	0.0140	-0.0070	-12.1808	21.7695	-18.6745	-0.0773	0.1698	0.5843	-0.7899
1.8	-1.8603	-9.3427	2.8020	-0.0193	0.0237	-0.0078	-11.9631	22.0826	-18.6433	-0.0773	0.1698	0.5843	-0.7897
1.81	-1.8662	-9.3341	2.8034	-0.0111	0.0224	-0.0054	-11.9039	22.1106	-18.6412	-0.0773	0.1698	0.5844	-0.7898
1.82	-1.8938	-9.3300	2.7936	-0.0132	0.0291	0.0005	-12.1256	22.0251	-18.7046	-0.0772	0.1697	0.5844	-0.7897
1.83	-1.9185	-9.3032	2.7897	-0.0280	0.0338	0.0050	-12.0434	22.0291	-18.7116	-0.0772	0.1698	0.5845	-0.7897
1.84	-1.9292	-9.3181	2.8031	-0.0288	0.0388	0.0089	-12.0705	22.0668	-18.5061	-0.0771	0.1698	0.5846	-0.7896
1.85	-1.9440	-9.3858	2.8269	-0.0307	0.0415	0.0163	-12.0880	21.9765	-18.7530	-0.0770	0.1700	0.5848	-0.7894
1.86	-1.9729	-9.4728	2.8444	-0.0306	0.0371	0.0170	-12.1939	22.0178	-18.8775	-0.0769	0.1701	0.5849	-0.7893
1.87	-2.0008	-9.5312	2.8577	-0.0307	0.0397	0.0197	-12.1246	22.2779	-18.7522	-0.0768	0.1702	0.5850	-0.7891
1.88	-1.9987	-9.5536	2.8737	-0.0309	0.0385	0.0251	-12.3028	21.9500	-18.6183	-0.0767	0.1704	0.5852	-0.7891
1.89	-1.9938	-9.5639	2.8761	-0.0303	0.0504	0.0343	-12.1773	22.1527	-18.5584	-0.0766	0.1706	0.5853	-0.7889
1.9	-2.0114	-9.5840	2.8695	-0.0303	0.0543	0.0400	-12.1779	22.2408	-18.7982	-0.0764	0.1708	0.5855	-0.7889
1.91	-2.0440	-9.5722	2.8413	-0.0333	0.0673	0.0526	-11.9555	22.1117	-18.6125	-0.0763	0.1711	0.5856	-0.7886
1.92	-2.0814	-9.5098	2.8062	-0.0323	0.0830	0.0675	-12.0035	22.2357	-18.7116	-0.0761	0.1716	0.5857	-0.7885
1.93	-2.1255	-9.4491	2.7540	-0.0325	0.0844	0.0690	-11.8926	22.0247	-18.7093	-0.0759	0.1720	0.5858	-0.7884
1.94	-2.1693	-9.3972	2.7023	-0.0321	0.0983	0.0705	-11.9706	22.1038	-18.6148	-0.0758	0.1725	0.5858	-0.7882
1.95	-2.2204	-9.3608	2.6664	-0.0332	0.1068	0.0696	-11.8774	22.1551	-18.7842	-0.0757	0.1731	0.5860	-0.7881
1.96	-2.2671	-9.3501	2.6595	-0.0228	0.1119	0.0687	-11.7788	22.0766	-18.5571	-0.0756	0.1736	0.5860	-0.7879
1.97	-2.3105	-9.3811	2.6599	-0.0058	0.1060	0.0704	-11.7824	22.2810	-18.6138	-0.0755	0.1741	0.5860	-0.7878
1.98	-2.3433	-9.3675	2.6497	0.0042	0.1090	0.0702	-11.4977	22.3129	-18.7738	-0.0754	0.1747	0.5859	-0.7876
1.99	-2.3616	-9.3148	2.6393	0.0170	0.1126	0.0594	-11.4389	22.0954	-18.7184	-0.0754	0.1752	0.5859	-0.7877
2	-2.3817	-9.2701	2.6242	0.0238	0.1079	0.0563	-11.6148	22.1319	-18.6107	-0.0754	0.1757	0.5857	-0.7876
2.01	-2.3926	-9.2277	2.6034	0.0291	0.1130	0.0504	-11.6217	22.1869	-18.7429	-0.0754	0.1762	0.5856	-0.7876
2.02	-2.3975	-9.1848	2.6061	0.0424	0.1164	0.0421	-11.6272	22.3166	-18.7527	-0.0755	0.1766	0.5854	-0.7877
2.03	-2.4170	-9.1822	2.6088	0.0475	0.1125	0.0370	-11.6034	22.4429	-18.6041	-0.0756	0.1771	0.5852	-0.7877
2.04	-2.4249	-9.2000	2.6313	0.0462	0.1128	0.0322	-11.4395	22.2655	-18.7495	-0.0757	0.1775	0.5850	-0.7878
2.05	-2.4405	-9.2207	2.6447	0.0491	0.1153	0.0268	-11.4442	22.1795	-18.6577	-0.0759	0.1779	0.5847	-0.7877
2.06	-2.4544	-9.2090	2.6382	0.0469	0.1089	0.0245	-11.3232	22.3554	-18.5362	-0.0760	0.1783	0.5846	-0.7879
2.07	-2.4922	-9.2422	2.6555	0.0478	0.1085	0.0184	-11.2207	22.4148	-18.9328	-0.0762	0.1787	0.5844	-0.7879
2.08	-2.5315	-9.3199	2.6789	0.0493	0.1054	0.0137	-11.0416	22.3200	-18.8533	-0.0764	0.1790	0.5842	-0.7879
2.09	-2.5539	-9.3638	2.7063	0.0614	0.0952	0.0115	-10.7631	22.2957	-18.7370	-0.0765	0.1793	0.5840	-0.7880
2.1	-2.5599	-9.3660	2.7110	0.0644	0.0871	-0.0033	-10.7688	22.3661	-18.6614	-0.0767	0.1796	0.5838	-0.7881
2.11	-2.5445	-9.3372	2.7145	0.0637	0.0781	-0.0039	-11.4134	22.2057	-18.8531	-0.0769	0.1797	0.5835	-0.7882
2.12	-2.5406	-9.3284	2.7177	0.0577	0.0783	-0.0080	-11.0230	22.3119	-18.9931	-0.0771	0.1799	0.5833	-0.7882
2.13	-2.5460	-9.3445	2.7135	0.0613	0.0657	-0.0158	-10.8702	22.1751	-18.9574	-0.0773	0.1800	0.5832	-0.7884
2.14	-2.5467	-9.3355	2.7041	0.0662	0.0627	-0.0191	-11.2170	21.9323	-19.0630	-0.0775	0.1801	0.5829	-0.7885
2.15	-2.5439	-9.3106	2.6947	0.0661	0.0624	-0.0238	-10.6979	22.1598	-19.1181	-0.0777	0.1802	0.5828	-0.7887
2.16	-2.5437	-9.3020	2.6782	0.0741	0.0521	-0.0297	-10.9594	22.3899	-19.2527	-0.0779	0.1801	0.5825	-0.7887
2.17	-2.5515	-9.2886	2.6695	0.0729	0.0358	-0.0371	-11.2503	22.2278	-19.2728	-0.0781	0.1801	0.5823	-0.7889
2.18	-2.5563	-9.2632	2.6758	0.0877	0.0193	-0.0368	-10.9819	22.1601	-19.3178	-0.0782	0.1799	0.5820	-0.7891
2.19	-2.5688	-9.2711	2.6996	0.0970	0.0085	-0.0436	-11.1256	22.2222	-19.1253	-0.0784	0.1797	0.5817	-0.7893
2.2	-2.5806	-9.2971	2.7314	0.0972	-0.0086	-0.0544	-11.0056	22.0491	-19.1622	-0.0786	0.1794	0.5815	-0.7897
2.21	-2.5885	-9.3150	2.7703	0.1050	-0.0312	-0.0567	-11.0407	22.1873	-19.2833	-0.0787	0.1790	0.5812	-0.7899
2.22	-2.5886	-9.3161	2.7975	0.1063	-0.0476	-0.0590	-10.9827	22.1045	-19.1424	-0.0787	0.1785	0.5809	-0.7903
2.23	-2.5703	-9.2963	2.8128	0.1242	-0.0712	-0.0633	-11.2109	22.1971	-19.2390	-0.0788	0.1779	0.5805	-0.7906
2.24	-2.5471	-9.2790	2.8184	0.1173	-0.0865	-0.0671	-11.3085	22.2597	-19.4847	-0.0788	0.1772	0.5802	-0.7910
2.25	-2.5135	-9.2726	2.8360	0.1137	-0.1107	-0.0765	-11.4418	22.0099	-19.5459	-0.0787	0.1765	0.5799	-0.7914
2.26	-2.4839	-9.2539	2.8427	0.1199	-0.1247	-0.0800	-11.1916	21.9510	-19.4111	-0.0787	0.1756	0.5796	-0.7918
2.27	-2.4487	-9.2515	2.8571	0.1139	-0.1483	-0.0870	-11.2167	21.8144	-19.4400	-0.0786	0.1746	0.5794	-0.7923
2.28	-2.4024	-9.2231	2.8576	0.1212	-0.1678	-0.0902	-11.2954	22.0983	-19.5164	-0.0784	0.1736	0.5791	-0.7927
2.29	-2.3521	-9.1698	2.8443	0.1245	-0.1871	-0.0999	-11.3517	21.8663	-19.5786	-0.0783	0.1724	0.5788	-0.7932
2.3	-2.2882	-9.1056	2.8476	0.1214	-0.2061	-0.1098	-11.3978	21.7524	-19.6133	-0.0781	0.1711	0.5785	-0.7936
2.31	-2.2359	-9.0739	2.8550	0.1174	-0.2168	-0.1112	-11.2752	21.5210	-19.4874	-0.0779	0.1698	0.5784	-0.7941
2.32	-2.1850	-9.0833	2.8607	0.1200	-0.2317	-0.1106	-11.6165	21.6263	-19.4806	-0.0776	0.1685	0.5781	-0.7946
2.33	-2.1351	-9.0977	2.8917	0.1242	-0.2505	-0.1117	-11.7151	21.3978	-19.3523	-0.0773	0.1670	0.5779	-0.7951
2.34	-2.0822	-9.1117	2.9336	0.1237	-0.2589	-0.1166	-11.8494	21.3976	-19.6493	-0.0770	0.1655	0.5775	-0.7957
2.35	-2.0402	-9.1031	2.9661	0.1226	-0.2691	-0.1179	-11.8068	21.4810	-19.4200	-0.0767	0.1640	0.5773	-0.7962
2.36	-2.0251	-9.1212	3.0022	0.1248	-0.2701	-0.1131	-12.0798	21.5167	-19.4626	-0.0763	0.1624	0.5770	-0.7968
2.37	-1.9905	-9.1364	3.0411	0.1160	-0.2765	-0.1127	-12.0805	21.2934	-19.5320	-0.0759	0.1609	0.5766	-0.7973
2.38	-1.9504	-9.1529	3.0781	0.1019	-0.2838	-0.1162	-12.3442	21.2321	-19.4680	-0.0755	0.1593	0.5765	-0.7979
2.39	-1.9204	-9.2083	3.1167	0.1008	-0.2790	-0.1161	-12.7730	21.2721	-19.4041	-0.0751	0.1577	0.5762	-0.7984
2.4	-1.8873	-9.2861	3.1598	0.0884	-0.2906	-0.1153	-12.4149	21.2192	-19.4030	-0.0747	0.1561	0.5761	-0.7989
2.41	-1.8527	-9.3877	3.2045	0.0769	-0.2904	-0.1313	-12.5740	21.5233	-19.4299	-0.0743	0.1545	0.5760	-0.7992
2.42	-1.7999	-9.4676	3.2510	0.0636	-0.2973	-0.1372	-12.7400	21.3208	-19.5059	-0.0739	0.1528	0.5761	-0.7996
2.43	-1.7403	-9.5198	3.2705	0.0477	-0.2988	-0.1363	-12.7643	21.2832	-19.3713	-0.0735	0.1511	0.5761	-0.7999
2.44	-1.6693	-9.5286	3.2654	0.0485	-0.2872	-0.1397	-12.8790	21.3228	-19.4543	-0.0731	0.1494	0.5762	-0.8001
2.45	-1.6003	-9.4964	3.2554	0.0459	-0.2851	-0.1471	-13.1442	21.1684	-19.2655	-0.0728	0.1478	0.5763	-0.8005
2.46	-1.5180	-9.4780	3.2559	0.0439	-0.2776	-0.1456	-13.4190	21.1243	-19.2584	-0.0725	0.1461	0.5764	-0.8007
2.47	-1.4519	-9.4798	3.2583	0.0449	-0.2694	-0.1439	-13.2960	21.0536	-19.3714	-0.0722	0.1445	0.5765	-0.8010
2.48	-1.4093	-9.4669	3.2472	0.0492	-0.2568	-0.1436	-13.4751	20.9587	-19.1167	-0.0719	0.1430	0.5765	-0.8012
2.49	-1.3580	-9.4003	3.2282	0.0638	-0.2391	-0.1464	-13.4110	20.6753	-19.2483	-0.0718	0.1415	0.5765	-0.8016
2.5	-1.3247	-9.3117	3.2128	0.0770	-0.2298	-0.1400	-13.6658	20.7546	-19.1945	-0.0716	0.1400	0.5764	-0.8019
2.51	-1.3047	-9.2347	3.2186	0.0965	-0.2162	-0.1370	-13.4813	20.6770	-18.9903	-0.0715	0.1386	0.5763	-0.8022
2.52	-1.2836	-9.1945	3.2509	0.1028	-0.2054	-0.1263	-13.7889	20.7135	-19.1846	-0.0713	0.1373	0.5761	-0.8026
2.53	-1.2657	-9.2184	3.3143	0.1119	-0.1855	-0.1198	-13.9723	20.7050	-19.3129	-0.0712	0.1361	0.5758	-0.8030
2.54	-1.2658	-9.2876	3.3811	0.1189	-0.1701	-0.1140	-14.1234	20.5677	-19.1794	-0.0711	0.1350	0.5756	-0.8034
2.55	-1.2543	-9.3047	3.4296	0.1263	-0.1679	-0.1100	-14.0731	20.8850	-19.3227	-0.0710	0.1338	0.5752	-0.8038
2.56	-1.2104	-9.2565	3.4538	0.1228	-0.1641	-0.1084	-13.9805	20.8485	-19.2358	-0.0710	0.1327	0.5750	-0.8043
2.57	-1.1635	-9.1506	3.4491	0.1114	-0.1455	-0.1045	-14.3994	20.6535	-18.9871	-0.0709	0.1317	0.5747	-0.8046
2.58	-1.1261	-9.0768	3.4328	0.0842	-0.1299	-0.0929	-14.4402	20.8313	-18.9741	-0.0709	0.1308	0.5745	-0.8049
2.59	-1.0805	-9.0417	3.4284	0.0733	-0.1190	-0.0812	-13.9066	20.8551	-18.8139	-0.0708	0.1300	0.5743	-0.8051
2.6	-1.0114	-8.9874	3.4213	0.0652	-0.1039	-0.0701	-14.2430	20.7842	-18.5186	-0.0707	0.1292	0.5742	-0.8054
2.61	-0.9729	-8.9288	3.4200	0.0462	-0.0848	-0.0501	-15.3932	20.7412	-18.8160	-0.0705	0.1286	0.5741	-0.8055
2.62	-0.9678	-8.9040	3.4306	0.0384	-0.0628	-0.0390	-14.4979	20.6374	-18.7716	-0.0704	0.1281	0.5740	-0.8056
2.63	-0.9875	-8.9029	3.4457	0.0240	-0.0445	-0.0322	-14.7291	20.4653	-19.2470	-0.0703	0.1278	0.5741	-0.8058
2.64	-1.0019	-8.9630	3.4751	0.0169	-0.0186	-0.0338	-14.5660	20.4700	-18.9556	-0.0703	0.1275	0.5741	-0.8058
2.65	-1.0409	-8.9999	3.4718	0.0022	-0.0003	-0.0277	-14.4971	20.5628	-19.0923	-0.0702	0.1273	0.5742	-0.8058
2.66	-1.0743	-9.0212	3.4910	-0.0127	0.0120	-0.0298	-14.7561	20.5285	-18.9861	-0.0702	0.1272	0.5742	-0.8056
2.67	-1.0957	-9.0322	3.4887	-0.0249	0.0298	-0.0346	-14.6810	20.1606	-18.8696	-0.0703	0.1271	0.5744	-0.8056
2.68	-1.1259	-9.1725	3.5792	-0.0427	0.0327	-0.0320	-14.6366	20.0783	-19.1008	-0.0704	0.1271	0.5746	-0.8054
2.69	-1.2233	-9.4946	3.5615	-0.0640	0.0349	-0.0381	-14.5435	20.3766	-18.9913	-0.0705	0.1271	0.5749	-0.8051
2.7	-1.2544	-9.3902	3.4457	-0.0416	0.0346	-0.0408	-14.5394	20.4222	-18.8886	-0.0706	0.1271	0.5752	-0.8051
2.71	-1.2092	-9.2302	3.4676	-0.0358	0.0208	-0.0337	-14.6570	20.4920	-19.0243	-0.0707	0.1270	0.5754	-0.8049
2.72	-1.1554	-9.2501	3.4700	-0.0366	0.0142	-0.0419	-14.6100	20.4912	-18.9588	-0.0707	0.1268	0.5756	-0.8048
2.73	-1.1648	-9.4030	3.4594	-0.0555	0.0136	-0.0384	-14.6439	20.3966	-19.0893	-0.0707	0.1267	0.5759	-0.8045
2.74	-1.1589	-9.4508	3.4376	-0.0387	-0.0003	-0.0393	-14.7226	20.7124	-19.0866	-0.0708	0.1265	0.5762	-0.8044
2.75	-1.1165	-9.4300	3.4385	-0.0288	-0.0029	-0.0341	-14.7186	20.4686	-19.0882	-0.0707	0.1264	0.5763	-0.8043
2.76	-1.0701	-9.4233	3.4148	-0.0312	-0.0054	-0.0331	-14.7135	20.4603	-19.0787	-0.0707	0.1262	0.5765	-0.8041
2.77	-1.0301	-9.3967	3.3777	-0.0157	0.0085	-0.0243	-14.7250	20.3006	-19.0795	-0.0707	0.1261	0.5767	-0.8041
2.78	-1.0171	-9.3291	3.3251	-0.0186	0.0094	-0.0091	-14.9698	20.5838	-19.0817	-0.0706	0.1260	0.5768	-0.8040
2.79	-1.0037	-9.2634	3.2890	-0.0146	0.0160	0.0040	-14.9951	20.4703	-18.8759	-0.0705	0.1260	0.5769	-0.8040
2.8	-1.0143	-9.2414	3.2750	-0.0047	0.0240	0.0247	-14.9104	20.1872	-18.9938	-0.0704	0.1260	0.5769	-0.8038
2.81	-1.0652	-9.2529	3.2757	0.0000	0.0322	0.0368	-14.7702	20.5292	-18.9709	-0.0702	0.1262	0.5770	-0.8039
2.82	-1.1102	-9.2458	3.2821	0.0140	0.0429	0.0578	-14.8628	20.4981	-19.0326	-0.0700	0.1264	0.5769	-0.8039
2.83	-1.1771	-9.2268	3.2858	0.0192	0.0449	0.0752	-14.9287	20.3291	-18.8223	-0.0697	0.1267	0.5769	-0.8040
2.84	-1.2431	-9.2194	3.3032	0.0276	0.0563	0.0889	-14.7003	20.4770	-18.7898	-0.0694	0.1271	0.5767	-0.8040
2.85	-1.3105	-9.2498	3.3480	0.0470	0.0592	0.1012	-14.7118	20.3888	-18.9375	-0.0690	0.1276	0.5765	-0.8041
2.86	-1.3913	-9.3021	3.4050	0.0678	0.0727	0.1114	-14.5590	20.3659	-19.0660	-0.0687	0.1281	0.5762	-0.8043
2.87	-1.4540	-9.3391	3.4562	0.0774	0.0762	0.1213	-14.4698	20.2536	-19.0674	-0.0684	0.1286	0.5758	-0.8044
2.88	-1.5029	-9.2955	3.4827	0.0960	0.0877	0.1214	-14.2204	20.3028	-19.2050	-0.0681	0.1292	0.5754	-0.8048
2.89	-1.5451	-9.1965	3.5027	0.1039	0.1034	0.1263	-14.4878	20.4727	-19.0974	-0.0678	0.1298	0.5749	-0.8050
2.9	-1.5819	-9.0875	3.4793	0.1053	0.1231	0.1327	-14.3452	20.4789	-19.1412	-0.0676	0.1306	0.5745	-0.8053
2.91	-1.5992	-8.9654	3.4516	0.0949	0.1422	0.1368	-14.4920	20.6400	-19.1917	-0.0673	0.1314	0.5739	-0.8054
2.92	-1.6473	-8.8621	3.4078	0.0725	0.1606	0.1372	-14.3748	20.6054	-19.1723	-0.0672	0.1324	0.5736	-0.8056
2.93	-1.7142	-8.7617	3.3338	0.0628	0.1829	0.1442	-14.0870	20.4279	-19.3520	-0.0670	0.1334	0.5732	-0.8057
2.94	-1.7871	-8.6512	3.2588	0.0508	0.2047	0.1413	-14.0105	20.5857	-19.3593	-0.0669	0.1345	0.5728	-0.8057
2.95	-1.8775	-8.5966	3.2279	0.0447	0.2174	0.1352	-14.0153	20.7450	-19.3592	-0.0669	0.1357	0.5726	-0.8058
2.96	-1.9940	-8.6973	3.2594	0.0467	0.2322	0.1248	-13.8070	20.8142	-19.5158	-0.0670	0.1369	0.5723	-0.8058
2.97	-2.0991	-8.8808	3.3405	0.0672	0.2295	0.1240	-13.7214	20.7298	-19.5682	-0.0670	0.1381	0.5719	-0.8059
2.98	-2.1791	-9.0563	3.4458	0.0903	0.2236	0.1119	-13.6513	20.6823	-19.4362	-0.0671	0.1392	0.5714	-0.8059
2.99	-2.2418	-9.1806	3.5470	0.1110	0.2151	0.0925	-13.5498	20.8579	-19.5810	-0.0673	0.1402	0.5709	-0.8061
3	-2.2714	-9.2082	3.6093	0.1326	0.2092	0.0806	-13.5119	20.6892	-19.6806	-0.0676	0.1411	0.5703	-0.8064
3.01	-2.2916	-9.1107	3.6355	0.1277	0.2045	0.0678	-13.4501	20.5788	-19.5134	-0.0678	0.1420	0.5697	-0.8066
3.02	-2.3022	-8.9919	3.6282	0.1233	0.1972	0.0599	-13.4714	20.7560	-19.6652	-0.0681	0.1429	0.5692	-0.8068
3.03	-2.3162	-8.8788	3.5962	0.0956	0.1853	0.0530	-13.3301	20.5209	-19.8714	-0.0684	0.1437	0.5687	-0.8070
3.04	-2.3306	-8.7907	3.5412	0.0472	0.1882	0.0478	-13.0102	20.6060	-19.9745	-0.0686	0.1445	0.5685	-0.8070
3.05	-2.3507	-8.7696	3.4825	0.0010	0.1855	0.0431	-13.1252	20.6137	-20.0053	-0.0688	0.1453	0.5683	-0.8068
3.06	-2.3695	-8.8043	3.4217	-0.0418	0.1767	0.0449	-13.0662	20.5340	-20.0039	-0.0690	0.1461	0.5685	-0.8067
3.07	-2.3578	-8.8656	3.3626	-0.0715	0.1592	0.0380	-12.9023	20.6481	-20.1227	-0.0691	0.1468	0.5687	-0.8064
3.08	-2.3183	-8.9226	3.3173	-0.0852	0.1496	0.0337	-12.8556	20.6068	-19.7732	-0.0692	0.1474	0.5691	-0.8060
3.09	-2.2717	-9.0166	3.2748	-0.0926	0.1283	0.0338	-12.4724	20.7129	-19.9436	-0.0693	0.1480	0.5694	-0.8056
3.1	-2.2226	-9.0624	3.2318	-0.0865	0.1195	0.0239	-12.8521	20.7693	-19.9169	-0.0693	0.1485	0.5697	-0.8053
3.11	-2.1943	-9.0817	3.2336	-0.0804	0.1155	0.0192	-13.3232	20.7086	-19.8746	-0.0694	0.1490	0.5701	-0.8050
3.12	-2.2201	-9.2076	3.2527	-0.0667	0.1027	0.0190	-12.6688	20.8710	-20.1466	-0.0694	0.1494	0.5703	-0.8047
3.13	-2.2752	-9.2410	3.2495	-0.0460	0.0961	0.0274	-12.7458	20.9256	-19.8874	-0.0694	0.1498	0.5706	-0.8046
3.14	-2.3131	-9.2194	3.2720	-0.0317	0.0889	0.0383	-12.9315	20.8185	-19.7373	-0.0693	0.1502	0.5706	-0.8043
3.15	-2.3447	-9.2191	3.2815	-0.0298	0.0821	0.0388	-12.7114	20.8609	-19.8787	-0.0693	0.1506	0.5708	-0.8043
3.16	-2.3851	-9.2953	3.2592	-0.0316	0.0677	0.0390	-12.5696	20.9166	-19.8685	-0.0691	0.1509	0.5709	-0.8040
3.17	-2.3756	-9.2557	3.2340	-0.0241	0.0503	0.0288	-12.6011	21.0998	-20.0244	-0.0690	0.1511	0.5710	-0.8040
3.18	-2.3460	-9.1643	3.2643	-0.0198	0.0409	0.0176	-12.7791	21.0586	-19.8846	-0.0689	0.1513	0.5711	-0.8039
3.19	-2.3304	-9.1726	3.2827	-0.0360	0.0367	0.0162	-12.6863	21.0065	-19.9038	-0.0688	0.1514	0.5712	-0.8037
3.2	-2.3160	-9.2805	3.3026	-0.0592	0.0259	0.0035	-12.6754	21.0354	-19.7290	-0.0687	0.1515	0.5716	-0.8036
3.21	-2.2667	-9.4023	3.3128	-0.0686	0.0155	0.0021	-12.8091	21.0334	-19.7603	-0.0685	0.1515	0.5718	-0.8033
3.22	-2.2176	-9.4595	3.3167	-0.0711	0.0153	-0.0116	-12.4598	20.9831	-19.9696	-0.0684	0.1515	0.5722	-0.8032
3.23	-2.1772	-9.4808	3.3010	-0.0719	0.0168	-0.0252	-12.2183	20.7570	-20.0610	-0.0684	0.1514	0.5725	-0.8028
3.24	-2.1465	-9.4489	3.2647	-0.0553	0.0232	-0.0346	-12.3530	20.5184	-20.1362	-0.0684	0.1514	0.5728	-0.8027
3.25	-2.1182	-9.3886	3.2225	-0.0534	0.0175	-0.0394	-12.3093	20.7005	-19.8579	-0.0684	0.1513	0.5731	-0.8025
3.26	-2.0840	-9.3316	3.1920	-0.0391	0.0118	-0.0492	-12.3387	20.8587	-19.8185	-0.0685	0.1511	0.5733	-0.8023
3.27	-2.0544	-9.2616	3.1605	-0.0309	0.0102	-0.0556	-12.2174	20.8696	-19.6432	-0.0686	0.1509	0.5736	-0.8022
3.28	-2.0260	-9.1840	3.1417	-0.0215	0.0095	-0.0581	-12.3798	21.0777	-19.7408	-0.0687	0.1507	0.5737	-0.8021
3.29	-2.0087	-9.1304	3.1405	-0.0120	-0.0009	-0.0610	-12.4649	20.7763	-19.8098	-0.0688	0.1505	0.5739	-0.8021
3.3	-1.9819	-9.1032	3.1376	-0.0033	-0.0095	-0.0685	-12.6285	20.7415	-19.6762	-0.0689	0.1502	0.5739	-0.8020
3.31	-1.9478	-9.0631	3.1459	-0.0047	-0.0138	-0.0635	-12.4386	20.8992	-19.8045	-0.0690	0.1499	0.5741	-0.8020
3.32	-1.9088	-9.0195	3.1697	0.0034	-0.0338	-0.0674	-12.4605	20.9317	-19.7797	-0.0690	0.1495	0.5742	-0.8020
3.33	-1.8609	-9.0007	3.1852	0.0058	-0.0361	-0.0732	-12.7912	21.0001	-19.7958	-0.0691	0.1491	0.5743	-0.8020
3.34	-1.8106	-9.0014	3.2178	0.0060	-0.0378	-0.0697	-12.7637	21.1237	-19.6908	-0.0691	0.1486	0.5744	-0.8020
3.35	-1.7697	-9.0155	3.2512	0.0054	-0.0382	-0.0688	-12.7644	21.2404	-19.8258	-0.0692	0.1482	0.5745	-0.8020
3.36	-1.7314	-9.0164	3.2753	-0.0006	-0.0445	-0.0693	-12.7828	20.9161	-19.7595	-0.0692	0.1478	0.5746	-0.8020
3.37	-1.6978	-9.0015	3.3016	-0.0086	-0.0479	-0.0665	-12.7436	21.1126	-19.8937	-0.0692	0.1473	0.5747	-0.8019
3.38	-1.6993	-9.0097	3.3186	-0.0249	-0.0450	-0.0631	-12.9132	21.0989	-19.7739	-0.0691	0.1469	0.5750	-0.8020
3.39	-1.7276	-9.0236	3.3234	-0.0324	-0.0407	-0.0590	-12.9228	20.7273	-19.4748	-0.0691	0.1465	0.5752	-0.8018
3.4	-1.7375	-9.0500	3.3257	-0.0431	-0.0450	-0.0511	-12.8325	20.7767	-19.6261	-0.0690	0.1461	0.5754	-0.8018
3.41	-1.7335	-9.0706	3.3099	-0.0622	-0.0468	-0.0440	-12.8873	20.8303	-19.9293	-0.0688	0.1458	0.5756	-0.8016
3.42	-1.7353	-9.1100	3.3038	-0.0757	-0.0468	-0.0428	-12.5889	20.7589	-19.5894	-0.0686	0.1455	0.5759	-0.8015
3.43	-1.7327	-9.1858	3.3035	-0.0916	-0.0501	-0.0453	-12.8334	20.7561	-19.8356	-0.0684	0.1451	0.5763	-0.8013
3.44	-1.7325	-9.2393	3.2817	-0.1018	-0.0473	-0.0370	-12.8580	20.7700	-19.5813	-0.0682	0.1448	0.5767	-0.8010
3.45	-1.7284	-9.2568	3.2543	-0.1069	-0.0458	-0.0339	-12.9834	20.8452	-19.6337	-0.0680	0.1445	0.5773	-0.8008
3.46	-1.7155	-9.2463	3.2295	-0.1073	-0.0441	-0.0354	-13.0308	20.7547	-19.6623	-0.0677	0.1442	0.5777	-0.8005
3.47	-1.7097	-9.2491	3.2068	-0.1194	-0.0347	-0.0375	-12.8854	20.7393	-19.5604	-0.0675	0.1440	0.5782	-0.8003
3.48	-1.6961	-9.2598	3.1794	-0.1223	-0.0351	-0.0441	-13.1553	20.9424	-19.2725	-0.0673	0.1437	0.5786	-0.7999
3.49	-1.6870	-9.2553	3.1587	-0.1199	-0.0235	-0.0465	-13.2227	21.1583	-19.3174	-0.0672	0.1435	0.5791	-0.7997
3.5	-1.6858	-9.2467	3.1322	-0.1107	-0.0183	-0.0481	-13.2116	20.9118	-19.3512	-0.0671	0.1433	0.5796	-0.7994
3.51	-1.7039	-9.2514	3.1080	-0.1171	-0.0076	-0.0467	-13.2054	21.0044	-19.1765	-0.0669	0.1431	0.5800	-0.7991
3.52	-1.7213	-9.2767	3.0874	-0.1128	-0.0066	-0.0506	-13.3201	21.2268	-19.3605	-0.0669	0.1430	0.5805	-0.7988
3.53	-1.7348	-9.2783	3.0646	-0.1046	-0.0002	-0.0605	-13.1539	21.1940	-19.0839	-0.0668	0.1428	0.5809	-0.7986
3.54	-1.7313	-9.3180	3.0437	-0.1104	0.0086	-0.0627	-13.3148	21.2167	-19.1872	-0.0669	0.1427	0.5814	-0.7983
3.55	-1.7145	-9.3900	3.0273	-0.1133	0.0170	-0.0752	-13.2027	21.1278	-19.1326	-0.0670	0.1425	0.5819	-0.7978
3.56	-1.7033	-9.5094	3.0242	-0.1111	0.0096	-0.0732	-13.3384	21.0903	-19.1581	-0.0671	0.1423	0.5825	-0.7975
3.57	-1.6907	-9.5865	2.9889	-0.0901	0.0111	-0.0721	-13.5726	21.1820	-19.1521	-0.0672	0.1421	0.5829	-0.7972
3.58	-1.6433	-9.4998	2.9630	-0.0695	0.0099	-0.0724	-13.4970	21.4253	-19.1061	-0.0673	0.1419	0.5833	-0.7970
3.59	-1.6017	-9.4183	2.9583	-0.0564	0.0186	-0.0690	-12.9089	21.1642	-18.9213	-0.0675	0.1417	0.5836	-0.7967
3.6	-1.5885	-9.4408	2.9657	-0.0558	0.0232	-0.0602	-13.0933	21.1427	-18.9604	-0.0676	0.1416	0.5839	-0.7965
3.61	-1.5944	-9.4847	2.9891	-0.0505	0.0327	-0.0437	-13.9117	21.0388	-19.2415	-0.0677	0.1415	0.5842	-0.7963
3.62	-1.6361	-9.5710	3.0239	-0.0365	0.0479	-0.0363	-13.2705	21.2938	-19.2057	-0.0678	0.1415	0.5843	-0.7961
3.63	-1.7172	-9.6332	3.0227	-0.0327	0.0534	-0.0277	-13.2140	21.1812	-19.1221	-0.0679	0.1416	0.5846	-0.7961
3.64	-1.7812	-9.5336	2.9789	-0.0057	0.0568	-0.0148	-13.1519	21.1529	-19.0623	-0.0680	0.1417	0.5846	-0.7959
3.65	-1.7949	-9.3543	2.9545	0.0129	0.0554	-0.0085	-13.4559	21.2652	-19.0675	-0.0681	0.1418	0.5847	-0.7960
3.66	-1.8190	-9.2602	2.9873	0.0032	0.0484	-0.0072	-13.4181	21.1979	-19.1788	-0.0681	0.1419	0.5846	-0.7958
3.67	-1.8666	-9.3437	2.9881	-0.0094	0.0422	-0.0062	-13.3798	21.1412	-19.1595	-0.0681	0.1420	0.5847	-0.7958
3.68	-1.8772	-9.3608	2.9854	-0.0145	0.0316	-0.0046	-13.4282	21.1186	-18.9862	-0.0681	0.1421	0.5848	-0.7958
3.69	-1.8605	-9.2991	3.0002	-0.0077	0.0293	-0.0048	-13.2450	21.2151	-18.9782	-0.0680	0.1421	0.5848	-0.7957
3.7	-1.8365	-9.2942	3.0028	-0.0153	0.0248	-0.0038	-13.2520	21.3278	-18.9974	-0.0680	0.1422	0.5850	-0.7957
3.71	-1.8163	-9.2985	3.0026	-0.0180	0.0251	-0.0029	-13.1600	21.3193	-18.8335	-0.0679	0.1422	0.5850	-0.7955
3.72	-1.8077	-9.3028	3.0079	-0.0135	0.0268	-0.0083	-13.3737	21.2669	-19.0367	-0.0678	0.1422	0.5852	-0.7955
3.73	-1.7972	-9.2777	3.0074	-0.0085	0.0247	0.0021	-13.3352	21.1742	-19.1901	-0.0678	0.1422	0.5852	-0.7954
3.74	-1.7796	-9.2725	3.0244	-0.0129	0.0245	-0.0027	-13.3712	21.4010	-19.0418	-0.0677	0.1423	0.5853	-0.7954
3.75	-1.7617	-9.2863	3.0403	-0.0130	0.0272	-0.0090	-13.3022	21.1291	-18.9323	-0.0676	0.1423	0.5854	-0.7953
3.76	-1.7547	-9.2812	3.0476	-0.0032	0.0300	-0.0063	-13.2292	21.0092	-19.1132	-0.0676	0.1423	0.5854	-0.7952
3.77	-1.7610	-9.2677	3.0384	-0.0060	0.0390	-0.0067	-13.3864	21.1571	-18.8323	-0.0676	0.1424	0.5855	-0.7952
3.78	-1.7675	-9.2526	3.0288	-0.0047	0.0467	-0.0061	-13.4542	21.0223	-18.9794	-0.0676	0.1425	0.5855	-0.7951
3.79	-1.7930	-9.2744	3.0278	-0.0051	0.0449	-0.0107	-13.2128	21.0477	-19.0895	-0.0676	0.1426	0.5856	-0.7951
3.8	-1.8255	-9.3032	3.0162	-0.0027	0.0474	-0.0122	-13.0682	21.1353	-19.1606	-0.0677	0.1427	0.5856	-0.7950
3.81	-1.8411	-9.3339	3.0091	-0.0048	0.0489	-0.0138	-12.9950	21.1384	-19.0461	-0.0677	0.1428	0.5857	-0.7950
3.82	-1.8238	-9.3574	3.0166	0.0015	0.0493	-0.0212	-13.1432	21.0065	-18.9669	-0.0678	0.1428	0.5857	-0.7949
3.83	-1.8057	-9.3642	3.0136	-0.0025	0.0504	-0.0225	-12.9646	21.1278	-19.2319	-0.0679	0.1429	0.5858	-0.7949
3.84	-1.8150	-9.3749	3.0146	0.0081	0.0507	-0.0165	-13.2024	21.2458	-18.9292	-0.0680	0.1430	0.5858	-0.7948
3.85	-1.8294	-9.3768	3.0095	0.0202	0.0550	-0.0180	-13.2752	20.9662	-18.7795	-0.0681	0.1431	0.5857	-0.7949
3.86	-1.8364	-9.3523	3.0139	0.0220	0.0586	-0.0246	-13.2770	21.1987	-18.9851	-0.0682	0.1432	0.5857	-0.7949
3.87	-1.8480	-9.3286	3.0150	0.0221	0.0512	-0.0244	-13.1742	21.2177	-19.0569	-0.0683	0.1432	0.5856	-0.7948
3.88	-1.8705	-9.2996	3.0085	0.0218	0.0522	-0.0261	-13.1670	21.3462	-19.1162	-0.0685	0.1433	0.5856	-0.7949
3.89	-1.8792	-9.2648	2.9987	0.0216	0.0510	-0.0309	-13.1608	21.3984	-19.1683	-0.0686	0.1434	0.5855	-0.7949
3.9	-1.8945	-9.2400	3.0011	0.0218	0.0466	-0.0297	-12.9740	21.2092	-18.9607	-0.0687	0.1434	0.5856	-0.7950
3.91	-1.9012	-9.2294	3.0026	0.0223	0.0422	-0.0333	-13.0896	21.2352	-19.0862	-0.0689	0.1434	0.5854	-0.7949
3.92	-1.9033	-9.2380	3.0054	0.0198	0.0340	-0.0423	-13.3171	21.2113	-19.0719	-0.0690	0.1434	0.5854	-0.7950
3.93	-1.8989	-9.2375	3.0051	0.0145	0.0257	-0.0455	-13.0297	21.0504	-19.0731	-0.0690	0.1433	0.5853	-0.7950
3.94	-1.8943	-9.2356	3.0030	0.0094	0.0221	-0.0497	-13.2828	21.1064	-19.0720	-0.0691	0.1432	0.5852	-0.7950
3.95	-1.9147	-9.2612	3.0018	0.0055	0.0212	-0.0546	-13.2357	21.2617	-19.0889	-0.0692	0.1432	0.5853	-0.7952
3.96	-1.9112	-9.2789	2.9902	0.0034	0.0033	-0.0568	-13.1919	21.1934	-18.9159	-0.0692	0.1430	0.5852	-0.7952
3.97	-1.9084	-9.3068	2.9906	0.0062	-0.0084	-0.0592	-13.0650	21.2857	-19.1434	-0.0693	0.1428	0.5852	-0.7952
3.98	-1.9082	-9.3185	2.9820	0.0004	-0.0150	-0.0635	-13.2797	20.9999	-19.1871	-0.0694	0.1425	0.5853	-0.7951
3.99	-1.9044	-9.3209	2.9912	0.0033	-0.0234	-0.0598	-13.3416	21.0035	-19.0258	-0.0694	0.1421	0.5854	-0.7952
4	-1.9006	-9.3492	2.9986	0.0032	-0.0401	-0.0564	-13.2683	20.9865	-19.3162	-0.0694	0.1418	0.5855	-0.7952
4.01	-1.8835	-9.3625	3.0171	0.0064	-0.0468	-0.0578	-13.1685	20.7791	-19.3613	-0.0693	0.1413	0.5855	-0.7952
4.02	-1.8712	-9.3693	3.0154	0.0133	-0.0532	-0.0590	-13.2987	21.2232	-19.2459	-0.0693	0.1409	0.5856	-0.7953
4.03	-1.8516	-9.3658	3.0134	0.0179	-0.0666	-0.0589	-13.3155	21.0427	-19.2593	-0.0692	0.1404	0.5856	-0.7953
4.04	-1.8220	-9.3595	3.0188	0.0214	-0.0721	-0.0588	-13.3007	20.8861	-19.2543	-0.0691	0.1399	0.5857	-0.7954
4.05	-1.7907	-9.3554	3.0344	0.0180	-0.0736	-0.0603	-13.4412	20.8427	-19.2535	-0.0689	0.1393	0.5856	-0.7954
4.06	-1.7454	-9.3752	3.0380	0.0193	-0.0843	-0.0593	-13.4978	21.0271	-19.1507	-0.0688	0.1388	0.5857	-0.7956
4.07	-1.6968	-9.3654	3.0312	0.0222	-0.0934	-0.0588	-13.4756	20.9951	-19.1599	-0.0686	0.1382	0.5857	-0.7957
4.08	-1.6485	-9.3301	3.0243	0.0251	-0.0846	-0.0594	-13.4716	20.9908	-18.8870	-0.0685	0.1376	0.5858	-0.7958
4.09	-1.6070	-9.3041	3.0347	0.0259	-0.0845	-0.0610	-13.3543	21.2707	-18.8888	-0.0684	0.1370	0.5857	-0.7959
4.1	-1.5808	-9.3038	3.0433	0.0198	-0.0769	-0.0608	-13.5199	21.2353	-18.8458	-0.0682	0.1364	0.5858	-0.7960
4.11	-1.5552	-9.3030	3.0530	0.0247	-0.0740	-0.0651	-14.4380	21.1153	-18.9854	-0.0682	0.1359	0.5858	-0.7961
4.12	-1.5419	-9.2917	3.0637	0.0375	-0.0622	-0.0578	-13.7397	21.0841	-19.0798	-0.0681	0.1354	0.5857	-0.7961
4.13	-1.5309	-9.2721	3.0774	0.0358	-0.0643	-0.0615	-13.8820	21.0352	-19.0403	-0.0680	0.1349	0.5857	-0.7964
4.14	-1.5235	-9.2579	3.0887	0.0388	-0.0593	-0.0624	-13.9801	21.0504	-18.9038	-0.0679	0.1345	0.5855	-0.7965
4.15	-1.5238	-9.2549	3.1108	0.0336	-0.0597	-0.0640	-14.1606	21.0103	-19.1477	-0.0678	0.1340	0.5855	-0.7968
4.16	-1.5089	-9.2409	3.1278	0.0338	-0.0608	-0.0692	-13.8606	20.7429	-19.1348	-0.0677	0.1336	0.5853	-0.7968
4.17	-1.4946	-9.2194	3.1286	0.0364	-0.0622	-0.0705	-13.9549	20.5859	-19.0550	-0.0676	0.1331	0.5852	-0.7971
4.18	-1.4825	-9.2131	3.1376	0.0250	-0.0564	-0.0656	-13.8366	20.7817	-19.1638	-0.0676	0.1327	0.5851	-0.7972
4.19	-1.4511	-9.2046	3.1405	0.0191	-0.0599	-0.0682	-13.8644	20.7777	-19.1884	-0.0675	0.1322	0.5850	-0.7973
4.2	-1.4054	-9.2173	3.1452	0.0100	-0.0511	-0.0647	-14.1566	20.7730	-19.4833	-0.0674	0.1318	0.5850	-0.7975
4.21	-1.3532	-9.2390	3.1438	-0.0033	-0.0465	-0.0617	-14.0226	20.9294	-19.2091	-0.0673	0.1315	0.5849	-0.7975
4.22	-1.3133	-9.2877	3.1543	-0.0089	-0.0421	-0.0583	-14.0321	20.7190	-19.1189	-0.0672	0.1311	0.5850	-0.7976
4.23	-1.2815	-9.3349	3.1502	-0.0255	-0.0355	-0.0528	-14.2913	20.6717	-19.1694	-0.0671	0.1308	0.5850	-0.7975
4.24	-1.2567	-9.3487	3.1369	-0.0198	-0.0254	-0.0441	-14.3775	20.6916	-19.1092	-0.0669	0.1306	0.5851	-0.7976
4.25	-1.2449	-9.3583	3.1281	-0.0267	-0.0179	-0.0390	-14.3206	20.7184	-19.0282	-0.0668	0.1305	0.5852	-0.7975
4.26	-1.2350	-9.3724	3.1126	-0.0277	-0.0094	-0.0344	-14.1629	20.8864	-18.7639	-0.0667	0.1303	0.5853	-0.7974
4.27	-1.2410	-9.4160	3.1143	-0.0259	0.0046	-0.0315	-14.1772	20.9436	-18.8919	-0.0667	0.1301	0.5855	-0.7974
4.28	-1.2425	-9.4397	3.1080	-0.0202	0.0074	-0.0219	-14.3130	20.9878	-19.1218	-0.0667	0.1301	0.5856	-0.7973
4.29	-1.2537	-9.4304	3.0877	-0.0032	0.0147	-0.0114	-14.3978	20.8305	-18.9872	-0.0666	0.1300	0.5857	-0.7973
4.3	-1.2817	-9.4423	3.0796	-0.0050	0.0221	-0.0075	-14.2414	20.6640	-18.8552	-0.0666	0.1300	0.5857	-0.7972
4.31	-1.3197	-9.4750	3.0671	0.0061	0.0270	-0.0084	-14.2982	20.8003	-18.9887	-0.0665	0.1301	0.5858	-0.7972
4.32	-1.3464	-9.4697	3.0554	0.0181	0.0248	-0.0037	-14.3548	20.9442	-18.9427	-0.0665	0.1301	0.5857	-0.7972
4.33	-1.3815	-9.4523	3.0490	0.0192	0.0319	-0.0056	-14.4094	20.8946	-19.0371	-0.0665	0.1301	0.5857	-0.7973
4.34	-1.3909	-9.4282	3.0544	0.0247	0.0319	-0.0019	-14.5672	20.7689	-19.1654	-0.0664	0.1302	0.5856	-0.7973
4.35	-1.3941	-9.4417	3.0743	0.0385	0.0322	-0.0012	-14.2567	20.6306	-19.0020	-0.0664	0.1302	0.5855	-0.7974
4.36	-1.4001	-9.4655	3.0838	0.0479	0.0329	-0.0012	-14.3308	20.6425	-18.9227	-0.0664	0.1303	0.5854	-0.7975
4.37	-1.3909	-9.4618	3.0937	0.0637	0.0344	0.0024	-14.3807	20.7218	-19.0665	-0.0664	0.1303	0.5851	-0.7976
4.38	-1.3852	-9.4248	3.1168	0.0774	0.0472	-0.0008	-14.2292	20.5662	-19.0256	-0.0664	0.1304	0.5849	-0.7979
4.39	-1.3790	-9.3665	3.1362	0.0919	0.0460	-0.0009	-14.1605	20.6387	-19.1156	-0.0665	0.1305	0.5845	-0.7980
4.4	-1.3869	-9.3134	3.1493	0.0980	0.0530	0.0045	-14.1994	20.7856	-19.3738	-0.0665	0.1307	0.5842	-0.7984
4.41	-1.4233	-9.2569	3.1673	0.0979	0.0562	0.0122	-14.0827	20.6910	-19.2134	-0.0666	0.1308	0.5837	-0.7985
4.42	-1.4809	-9.2147	3.1815	0.0940	0.0594	0.0180	-13.9618	20.6749	-19.1346	-0.0666	0.1310	0.5834	-0.7988
4.43	-1.5384	-9.1815	3.1946	0.0739	0.0587	0.0183	-14.2467	20.5421	-19.5304	-0.0666	0.1312	0.5831	-0.7990
4.44	-1.5894	-9.1611	3.2052	0.0750	0.0575	0.0129	-14.2697	20.7768	-19.3547	-0.0666	0.1314	0.5828	-0.7991
4.45	-1.6202	-9.1462	3.2089	0.0535	0.0545	0.0092	-14.2841	20.7835	-19.2055	-0.0666	0.1316	0.5826	-0.7993
4.46	-1.6194	-9.1294	3.2096	0.0460	0.0539	0.0070	-14.3515	20.9066	-19.2600	-0.0666	0.1318	0.5823	-0.7994
4.47	-1.6140	-9.1433	3.2182	0.0373	0.0472	0.0074	-14.2141	20.7817	-19.2260	-0.0665	0.1320	0.5821	-0.7996
4.48	-1.6004	-9.1849	3.2292	0.0228	0.0468	0.0052	-14.3945	20.7811	-19.2526	-0.0664	0.1322	0.5819	-0.7996
4.49	-1.5850	-9.2178	3.2272	0.0225	0.0400	0.0152	-14.2000	20.6436	-19.3307	-0.0663	0.1324	0.5817	-0.7998
4.5	-1.5742	-9.2270	3.2290	0.0170	0.0280	0.0202	-14.0116	20.7901	-19.3534	-0.0661	0.1326	0.5816	-0.7999
4.51	-1.5697	-9.2309	3.2295	0.0209	0.0323	0.0186	-13.9704	20.9727	-19.5327	-0.0659	0.1328	0.5814	-0.8000
4.52	-1.5697	-9.2247	3.2313	0.0166	0.0258	0.0218	-14.1249	20.8718	-19.4994	-0.0657	0.1329	0.5813	-0.8001
4.53	-1.5610	-9.2414	3.2382	0.0198	0.0287	0.0202	-14.0361	20.5534	-19.5412	-0.0655	0.1331	0.5811	-0.8002
4.54	-1.5534	-9.2603	3.2381	0.0099	0.0334	0.0238	-13.8016	20.5655	-19.4365	-0.0654	0.1333	0.5810	-0.8003
4.55	-1.5472	-9.2597	3.2375	0.0164	0.0287	0.0308	-13.9046	20.6286	-19.4078	-0.0651	0.1335	0.5808	-0.8003
4.56	-1.5333	-9.2552	3.2316	0.0094	0.0309	0.0323	-13.9419	20.3873	-19.5231	-0.0649	0.1337	0.5807	-0.8005
4.57	-1.5334	-9.2201	3.2151	0.0025	0.0378	0.0305	-13.8604	20.6022	-19.4957	-0.0647	0.1340	0.5806	-0.8005
4.58	-1.5365	-9.2098	3.2007	0.0008	0.0490	0.0341	-13.7240	20.6136	-19.2192	-0.0645	0.1342	0.5805	-0.8006
4.59	-1.5517	-9.2352	3.2128	-0.0015	0.0513	0.0400	-13.4290	20.5919	-19.3334	-0.0643	0.1346	0.5803	-0.8006
4.6	-1.5678	-9.2768	3.2181	0.0004	0.0385	0.0396	-13.6604	20.6694	-19.5024	-0.0640	0.1348	0.5802	-0.8006
4.61	-1.5770	-9.2811	3.2178	-0.0020	0.0419	0.0325	-14.6104	20.8322	-19.5173	-0.0638	0.1351	0.5802	-0.8007
4.62	-1.5689	-9.2756	3.2205	0.0045	0.0496	0.0318	-13.7548	21.1068	-19.2864	-0.0636	0.1354	0.5800	-0.8007
4.63	-1.5525	-9.2615	3.2276	0.0123	0.0502	0.0361	-13.7755	20.8219	-19.3718	-0.0634	0.1357	0.5799	-0.8008
4.64	-1.5645	-9.2676	3.2423	0.0040	0.0511	0.0296	-13.7525	20.6664	-19.4762	-0.0633	0.1360	0.5798	-0.8008
4.65	-1.5985	-9.2763	3.2335	0.0081	0.0531	0.0281	-13.8680	20.7931	-19.4555	-0.0631	0.1363	0.5797	-0.8010
4.66	-1.6465	-9.2671	3.2226	0.0059	0.0669	0.0314	-13.7112	20.7409	-19.4504	-0.0630	0.1366	0.5795	-0.8009
4.67	-1.7069	-9.2514	3.2128	0.0127	0.0549	0.0293	-13.6204	20.7498	-19.4779	-0.0628	0.1369	0.5794	-0.8010
4.68	-1.7459	-9.2283	3.1909	0.0091	0.0541	0.0211	-13.5018	20.8125	-19.2007	-0.0627	0.1372	0.5792	-0.8011
4.69	-1.7678	-9.2218	3.1787	0.0086	0.0503	0.0205	-13.6613	20.8570	-19.2470	-0.0626	0.1374	0.5791	-0.8011
4.7	-1.7797	-9.2440	3.1803	0.0154	0.0454	0.0157	-13.7081	20.9341	-19.3891	-0.0625	0.1377	0.5790	-0.8013
4.71	-1.7805	-9.2625	3.1906	0.0053	0.0365	0.0163	-13.6551	20.9335	-19.3844	-0.0623	0.1378	0.5789	-0.8012
4.72	-1.7828	-9.2705	3.2015	0.0075	0.0318	0.0183	-13.5349	20.6974	-19.5033	-0.0622	0.1379	0.5789	-0.8013
4.73	-1.7869	-9.2747	3.2001	0.0225	0.0328	0.0193	-13.2609	20.5763	-19.3322	-0.0621	0.1380	0.5788	-0.8012
4.74	-1.7881	-9.2486	3.1971	0.0162	0.0297	0.0170	-13.5058	20.5764	-19.3752	-0.0620	0.1382	0.5787	-0.8014
4.75	-1.7849	-9.2245	3.2023	0.0195	0.0261	0.0183	-13.4765	20.4423	-19.5179	-0.0618	0.1383	0.5786	-0.8014
4.76	-1.7824	-9.2189	3.2047	0.0201	0.0200	0.0192	-13.3902	20.6049	-19.5592	-0.0616	0.1384	0.5784	-0.8015
4.77	-1.7656	-9.2062	3.2091	0.0218	0.0132	0.0168	-13.2850	20.5569	-19.4315	-0.0614	0.1385	0.5782	-0.8017
4.78	-1.7415	-9.1967	3.2177	0.0196	0.0170	0.0176	-13.3883	20.6512	-19.3268	-0.0612	0.1386	0.5781	-0.8018
4.79	-1.7145	-9.1863	3.2159	0.0218	0.0227	0.0133	-13.4228	20.8329	-19.4313	-0.0610	0.1387	0.5779	-0.8019
4.8	-1.6910	-9.1840	3.2155	0.0164	0.0321	0.0072	-13.4954	20.5596	-19.5369	-0.0609	0.1389	0.5777	-0.8019
4.81	-1.6787	-9.1958	3.2134	0.0137	0.0324	0.0054	-13.3378	20.4747	-19.6660	-0.0608	0.1390	0.5777	-0.8021
4.82	-1.6701	-9.2092	3.2287	0.0120	0.0398	0.0055	-13.4153	20.8615	-19.4153	-0.0607	0.1392	0.5775	-0.8021
4.83	-1.6772	-9.2224	3.2354	-0.0013	0.0479	0.0068	-13.5297	20.9812	-19.3403	-0.0606	0.1394	0.5774	-0.8022
4.84	-1.6925	-9.2329	3.2322	0.0021	0.0549	0.0071	-13.1329	20.8131	-19.4621	-0.0605	0.1396	0.5773	-0.8022
4.85	-1.7252	-9.2197	3.2348	0.0065	0.0643	0.0071	-13.2785	20.7544	-19.4757	-0.0605	0.1398	0.5772	-0.8022
4.86	-1.7608	-9.2152	3.2392	0.0097	0.0693	0.0060	-13.2182	20.7586	-19.7966	-0.0605	0.1401	0.5771	-0.8023
4.87	-1.7882	-9.2046	3.2374	0.0177	0.0732	0.0104	-13.2839	20.7606	-19.5237	-0.0605	0.1404	0.5769	-0.8023
4.88	-1.8154	-9.1844	3.2336	0.0149	0.0743	0.0100	-13.1727	20.8570	-19.5697	-0.0605	0.1407	0.5768	-0.8025
4.89	-1.8347	-9.1603	3.2295	0.0079	0.0653	0.0061	-12.9598	20.7029	-19.5102	-0.0604	0.1410	0.5766	-0.8024
4.9	-1.8567	-9.1547	3.2179	0.0054	0.0568	0.0132	-13.3270	20.8641	-19.6509	-0.0604	0.1412	0.5766	-0.8026
4.91	-1.8695	-9.1535	3.2128	-0.0009	0.0580	0.0110	-13.1698	20.7369	-19.5231	-0.0603	0.1415	0.5764	-0.8025
4.92	-1.8845	-9.1618	3.2132	-0.0047	0.0498	0.0136	-12.9880	20.9151	-19.7135	-0.0602	0.1417	0.5764	-0.8025
4.93	-1.8963	-9.1606	3.2071	-0.0042	0.0460	0.0109	-13.0171	20.7157	-19.6566	-0.0601	0.1419	0.5763	-0.8026
4.94	-1.8971	-9.1644	3.1904	-0.0072	0.0404	0.0087	-13.0795	20.6560	-19.3907	-0.0600	0.1421	0.5762	-0.8025
4.95	-1.9060	-9.1632	3.1840	-0.0206	0.0345	0.0083	-13.2340	20.6618	-19.5959	-0.0598	0.1423	0.5763	-0.8026
4.96	-1.9155	-9.1722	3.1803	-0.0220	0.0243	0.0079	-13.1495	20.7287	-19.4800	-0.0597	0.1424	0.5763	-0.8025
4.97	-1.9215	-9.1938	3.1910	-0.0167	0.0206	0.0095	-13.0438	20.9689	-19.4760	-0.0595	0.1425	0.5763	-0.8026
4.98	-1.9189	-9.2036	3.1893	-0.0255	0.0078	0.0048	-12.9022	20.8543	-19.7784	-0.0593	0.1425	0.5763	-0.8025
4.99	-1.9287	-9.2054	3.1847	-0.0304	0.0010	0.0008	-12.9539	20.7120	-19.5704	-0.0591	0.1425	0.5764	-0.8025
5	-1.9238	-9.2064	3.1872	-0.0250	-0.0122	0.0005	-12.8804	20.8803	-19.5676	-0.0588	0.1424	0.5764	-0.8025
5.01	-1.8949	-9.1922	3.1815	-0.0217	-0.0152	-0.0079	-13.1074	20.9593	-19.4465	-0.0586	0.1423	0.5764	-0.8025
5.02	-1.8693	-9.1929	3.1844	-0.0295	-0.0132	-0.0079	-13.0860	20.9374	-19.5715	-0.0584	0.1423	0.5765	-0.8025
5.03	-1.8423	-9.2283	3.1870	-0.0297	-0.0124	-0.0081	-13.1581	21.0481	-19.6562	-0.0582	0.1422	0.5766	-0.8025
5.04	-1.8071	-9.2427	3.1931	-0.0326	-0.0264	-0.0092	-13.1513	21.0150	-19.4497	-0.0580	0.1420	0.5767	-0.8025
5.05	-1.7831	-9.2491	3.1810	-0.0343	-0.0216	-0.0146	-13.0934	21.0236	-19.4642	-0.0577	0.1419	0.5767	-0.8024
5.06	-1.7645	-9.2478	3.1578	-0.0367	-0.0259	-0.0132	-12.9867	20.9372	-19.4441	-0.0575	0.1417	0.5769	-0.8024
5.07	-1.7316	-9.2279	3.1436	-0.0392	-0.0216	-0.0223	-12.9394	20.9126	-19.4723	-0.0573	0.1416	0.5770	-0.8024
5.08	-1.7009	-9.2527	3.1389	-0.0418	-0.0228	-0.0162	-13.0329	21.0331	-19.3907	-0.0571	0.1414	0.5771	-0.8023
5.09	-1.6892	-9.3029	3.1369	-0.0409	-0.0150	-0.0084	-12.7108	21.0049	-19.2511	-0.0569	0.1413	0.5773	-0.8022
5.1	-1.7000	-9.3502	3.1378	-0.0501	-0.0130	-0.0152	-13.0438	20.8766	-19.2280	-0.0568	0.1411	0.5775	-0.8021
5.11	-1.7057	-9.3893	3.1315	-0.0367	-0.0134	-0.0122	-13.5151	21.0335	-19.4150	-0.0566	0.1410	0.5778	-0.8020
5.12	-1.6902	-9.3685	3.1257	-0.0273	-0.0151	-0.0058	-12.8216	21.2122	-19.4257	-0.0564	0.1408	0.5779	-0.8018
5.13	-1.6755	-9.3544	3.1221	-0.0192	-0.0014	-0.0082	-13.0072	20.9603	-19.4984	-0.0563	0.1407	0.5781	-0.8019
5.14	-1.6710	-9.3202	3.1137	-0.0102	-0.0017	-0.0034	-12.8089	20.8962	-19.4729	-0.0561	0.1406	0.5781	-0.8018
5.15	-1.6771	-9.2896	3.1114	-0.0081	0.0102	0.0055	-13.3986	20.9576	-19.5806	-0.0560	0.1406	0.5782	-0.8018
5.16	-1.6974	-9.2640	3.1088	-0.0029	0.0180	0.0034	-13.3803	21.1533	-19.6006	-0.0559	0.1406	0.5782	-0.8017
5.17	-1.7124	-9.2544	3.1016	-0.0087	0.0216	0.0130	-13.2863	20.9745	-19.4686	-0.0558	0.1407	0.5783	-0.8017
5.18	-1.7311	-9.2486	3.0983	-0.0061	0.0243	0.0088	-13.1062	20.8668	-19.4979	-0.0556	0.1408	0.5783	-0.8017
5.19	-1.7473	-9.2400	3.0929	-0.0064	0.0273	0.0041	-13.2125	21.0766	-19.1849	-0.0555	0.1409	0.5782	-0.8017
5.2	-1.7624	-9.2380	3.0887	-0.0207	0.0390	0.0019	-13.1865	21.2328	-19.3614	-0.0554	0.1410	0.5783	-0.8017
5.21	-1.7861	-9.2473	3.0861	-0.0134	0.0403	0.0025	-13.1346	21.2362	-19.4039	-0.0553	0.1412	0.5782	-0.8016
5.22	-1.8102	-9.2584	3.0835	-0.0201	0.0397	-0.0025	-13.2356	21.2107	-19.2615	-0.0552	0.1413	0.5783	-0.8017
5.23	-1.8358	-9.2659	3.0785	-0.0226	0.0403	-0.0074	-13.1886	21.2390	-19.4607	-0.0552	0.1414	0.5782	-0.8015
5.24	-1.8588	-9.2796	3.0788	-0.0288	0.0413	-0.0066	-13.3202	21.3017	-19.3585	-0.0551	0.1415	0.5784	-0.8015
5.25	-1.8775	-9.2749	3.0760	-0.0211	0.0393	-0.0069	-13.0987	21.2175	-19.3543	-0.0551	0.1416	0.5784	-0.8014
5.26	-1.8859	-9.2696	3.0616	-0.0193	0.0273	-0.0082	-12.8906	21.4603	-19.4505	-0.0550	0.1417	0.5784	-0.8014
5.27	-1.8818	-9.2755	3.0636	-0.0205	0.0242	-0.0105	-13.1800	21.1649	-19.2915	-0.0549	0.1417	0.5785	-0.8014
5.28	-1.8603	-9.2787	3.0606	-0.0263	0.0170	-0.0098	-13.1575	21.1620	-19.4672	-0.0548	0.1418	0.5785	-0.8014
5.29	-1.8361	-9.2778	3.0526	-0.0243	0.0144	-0.0064	-12.7198	21.2587	-19.3307	-0.0547	0.1418	0.5786	-0.8014
5.3	-1.8220	-9.2577	3.0443	-0.0226	0.0156	-0.0066	-12.8539	21.1449	-19.3042	-0.0546	0.1418	0.5786	-0.8013
5.31	-1.8105	-9.2525	3.0385	-0.0293	0.0069	-0.0082	-12.9661	21.0048	-19.4398	-0.0544	0.1418	0.5787	-0.8013
5.32	-1.8029	-9.3062	3.0349	-0.0287	0.0132	-0.0050	-12.9093	21.3015	-19.3560	-0.0543	0.1418	0.5788	-0.8012
5.33	-1.7982	-9.3218	3.0403	-0.0276	0.0103	0.0003	-13.0296	21.1911	-19.2984	-0.0542	0.1418	0.5789	-0.8012
5.34	-1.8008	-9.3393	3.0406	-0.0173	0.0084	0.0021	-13.0218	21.0178	-19.3381	-0.0540	0.1417	0.5790	-0.8010
5.35	-1.7845	-9.3368	3.0383	-0.0066	0.0042	0.0027	-13.1869	21.0620	-19.2793	-0.0539	0.1417	0.5791	-0.8010
5.36	-1.7685	-9.3158	3.0480	-0.0130	0.0005	0.0056	-13.1685	20.8782	-19.2161	-0.0537	0.1416	0.5792	-0.8010
5.37	-1.7656	-9.3135	3.0482	-0.0072	0.0049	0.0141	-13.0764	21.1718	-19.5522	-0.0535	0.1416	0.5792	-0.8009
5.38	-1.7951	-9.3202	3.0424	0.0033	0.0189	0.0144	-13.1611	21.1926	-19.2399	-0.0534	0.1417	0.5793	-0.8010
5.39	-1.8226	-9.3133	3.0403	-0.0015	0.0181	0.0152	-13.1946	21.3300	-19.2843	-0.0532	0.1417	0.5793	-0.8009
5.4	-1.8371	-9.2970	3.0485	-0.0012	0.0221	0.0108	-13.0165	21.3828	-19.2951	-0.0531	0.1418	0.5794	-0.8010
5.41	-1.8538	-9.2885	3.0392	0.0002	0.0237	0.0078	-13.1025	21.1827	-19.0850	-0.0530	0.1418	0.5793	-0.8008
5.42	-1.8701	-9.2858	3.0453	0.0038	0.0262	0.0119	-13.2810	21.4976	-19.1942	-0.0529	0.1419	0.5794	-0.8009
5.43	-1.8782	-9.2958	3.0415	-0.0027	0.0275	0.0026	-13.2324	21.6362	-19.2461	-0.0528	0.1419	0.5794	-0.8009
5.44	-1.8843	-9.2951	3.0395	-0.0045	0.0271	0.0015	-13.2141	21.4394	-19.2349	-0.0528	0.1419	0.5794	-0.8008
5.45	-1.8917	-9.2990	3.0373	-0.0029	0.0255	0.0029	-13.0802	21.6535	-19.2252	-0.0527	0.1420	0.5795	-0.8008
5.46	-1.8949	-9.2921	3.0352	0.0036	0.0204	-0.0047	-12.7568	21.5776	-19.2691	-0.0526	0.1420	0.5795	-0.8008
5.47	-1.9049	-9.2774	3.0325	0.0111	0.0228	-0.0074	-12.9668	21.2751	-19.3501	-0.0526	0.1420	0.5796	-0.8008
5.48	-1.9054	-9.2747	3.0296	0.0126	0.0205	-0.0055	-12.8492	21.3323	-19.2931	-0.0525	0.1420	0.5795	-0.8007
5.49	-1.9029	-9.2729	3.0315	0.0173	0.0196	-0.0051	-12.7182	21.0921	-19.4670	-0.0525	0.1420	0.5795	-0.8008
5.5	-1.8958	-9.2675	3.0345	0.0183	0.0171	-0.0078	-13.0125	21.1591	-19.3062	-0.0524	0.1419	0.5794	-0.8009
5.51	-1.8860	-9.2699	3.0351	0.0127	0.0153	-0.0061	-12.9701	21.1289	-19.1113	-0.0523	0.1420	0.5793	-0.8009
5.52	-1.8736	-9.2707	3.0348	0.0092	0.0148	-0.0085	-12.8336	21.1427	-19.2332	-0.0522	0.1420	0.5792	-0.8010
5.53	-1.8711	-9.2680	3.0312	0.0174	0.0184	-0.0080	-12.9634	21.1471	-19.3794	-0.0521	0.1420	0.5791	-0.8011
5.54	-1.8649	-9.2801	3.0369	0.0024	0.0138	-0.0080	-12.7270	21.3165	-19.4192	-0.0520	0.1420	0.5791	-0.8012
5.55	-1.8651	-9.2901	3.0329	-0.0017	0.0197	-0.0063	-12.8604	21.3144	-19.4154	-0.0519	0.1420	0.5790	-0.8011
5.56	-1.8634	-9.3029	3.0226	-0.0046	0.0310	-0.0070	-12.9430	21.2015	-19.5069	-0.0519	0.1420	0.5791	-0.8012
5.57	-1.8593	-9.3155	3.0182	-0.0049	0.0265	-0.0069	-12.8012	21.2646	-19.3566	-0.0519	0.1420	0.5791	-0.8011
5.58	-1.8667	-9.3270	3.0192	0.0050	0.0284	-0.0066	-12.8602	21.3970	-19.2215	-0.0519	0.1421	0.5792	-0.8011
5.59	-1.8781	-9.3283	3.0142	0.0105	0.0268	-0.0071	-12.3681	21.4907	-19.2451	-0.0518	0.1421	0.5792	-0.8010
5.6	-1.8888	-9.3216	3.0196	0.0189	0.0301	-0.0047	-12.5333	21.5443	-19.2606	-0.0518	0.1421	0.5791	-0.8011
5.61	-1.9143	-9.3198	3.0281	0.0226	0.0273	-0.0055	-13.5604	21.3008	-18.9991	-0.0518	0.1421	0.5791	-0.8011
5.62	-1.9290	-9.3110	3.0221	0.0342	0.0278	-0.0061	-12.7972	21.5686	-19.0374	-0.0518	0.1421	0.5789	-0.8011
5.63	-1.9508	-9.2885	3.0294	0.0392	0.0277	-0.0058	-12.6937	21.4305	-19.2512	-0.0518	0.1421	0.5789	-0.8013
5.64	-1.9599	-9.2695	3.0448	0.0338	0.0230	-0.0065	-12.6009	21.2907	-19.3078	-0.0517	0.1421	0.5788	-0.8013
5.65	-1.9708	-9.2516	3.0520	0.0362	0.0185	-0.0055	-12.8151	21.4685	-19.3575	-0.0517	0.1421	0.5787	-0.8015
5.66	-1.9797	-9.2362	3.0589	0.0406	0.0092	-0.0047	-12.8405	21.0764	-19.5124	-0.0516	0.1420	0.5785	-0.8015
5.67	-1.9756	-9.2273	3.0625	0.0262	0.0015	-0.0073	-12.6036	21.0238	-19.3341	-0.0516	0.1420	0.5785	-0.8016
5.68	-1.9675	-9.2181	3.0627	0.0292	-0.0042	-0.0061	-12.6711	21.0513	-19.2697	-0.0514	0.1419	0.5784	-0.8017
5.69	-1.9510	-9.2013	3.0638	0.0240	0.0011	-0.0075	-12.6426	21.0106	-19.3910	-0.0513	0.1418	0.5782	-0.8018
5.7	-1.9330	-9.2075	3.0669	0.0203	-0.0070	-0.0080	-12.7447	21.0776	-19.3870	-0.0512	0.1417	0.5782	-0.8020
5.71	-1.9117	-9.2163	3.0702	0.0212	-0.0126	-0.0126	-12.7735	21.0947	-19.4078	-0.0510	0.1416	0.5780	-0.8020
5.72	-1.8953	-9.2265	3.0725	0.0217	-0.0089	-0.0058	-12.8898	21.2392	-19.3317	-0.0509	0.1415	0.5779	-0.8022
5.73	-1.8841	-9.2276	3.0725	0.0189	-0.0132	-0.0161	-13.0495	21.0028	-19.2767	-0.0507	0.1413	0.5778	-0.8022
5.74	-1.8825	-9.2238	3.0677	0.0188	-0.0030	-0.0119	-12.9420	21.0928	-19.3259	-0.0506	0.1413	0.5777	-0.8024
5.75	-1.8913	-9.2319	3.0679	0.0110	-0.0047	-0.0142	-12.4985	21.2241	-19.4275	-0.0505	0.1412	0.5776	-0.8024
5.76	-1.8895	-9.2469	3.0665	0.0053	-0.0021	-0.0151	-12.9531	21.2989	-19.3124	-0.0504	0.1411	0.5776	-0.8024
5.77	-1.8898	-9.2617	3.0829	0.0111	-0.0067	-0.0120	-12.8970	21.1753	-19.2836	-0.0502	0.1410	0.5775	-0.8026
5.78	-1.8983	-9.2705	3.0951	0.0147	-0.0064	-0.0131	-12.8207	21.1565	-19.3325	-0.0501	0.1409	0.5775	-0.8026
5.79	-1.9105	-9.2729	3.0876	0.0058	-0.0036	-0.0124	-12.8220	21.1604	-19.4270	-0.0500	0.1407	0.5775	-0.8026
5.8	-1.9075	-9.2497	3.0785	0.0139	-0.0089	-0.0119	-12.9209	21.1891	-19.2959	-0.0499	0.1406	0.5774	-0.8026
5.81	-1.8832	-9.2214	3.0713	0.0046	-0.0093	-0.0201	-13.0258	21.2101	-19.1890	-0.0498	0.1405	0.5774	-0.8028
5.82	-1.8604	-9.2279	3.0726	-0.0044	-0.0138	-0.0149	-12.8536	21.2589	-19.2475	-0.0496	0.1404	0.5774	-0.8028
5.83	-1.8376	-9.2698	3.0792	-0.0009	-0.0157	-0.0079	-13.0418	21.2733	-19.3897	-0.0494	0.1402	0.5774	-0.8028
5.84	-1.8214	-9.3110	3.0945	-0.0012	-0.0172	-0.0117	-12.8888	21.1492	-19.4987	-0.0493	0.1401	0.5774	-0.8028
5.85	-1.8043	-9.3323	3.0997	0.0136	-0.0136	-0.0121	-12.8387	21.2988	-19.3535	-0.0491	0.1399	0.5775	-0.8028
5.86	-1.7788	-9.3272	3.0931	0.0106	-0.0045	-0.0121	-12.7762	21.2308	-19.4717	-0.0490	0.1398	0.5775	-0.8029
5.87	-1.7630	-9.3131	3.0888	0.0116	0.0048	-0.0114	-12.7286	21.2354	-19.5011	-0.0490	0.1397	0.5774	-0.8028
5.88	-1.7705	-9.3098	3.0821	0.0166	0.0130	-0.0073	-12.8478	21.0454	-19.4802	-0.0489	0.1396	0.5775	-0.8030
5.89	-1.7886	-9.3094	3.0726	0.0231	0.0170	-0.0065	-12.8547	20.9832	-19.3390	-0.0489	0.1396	0.5774	-0.8029
5.9	-1.8209	-9.2994	3.0682	0.0189	0.0193	-0.0068	-12.9839	21.2330	-19.4925	-0.0488	0.1396	0.5774	-0.8030
5.91	-1.8748	-9.2751	3.0623	0.0260	0.0287	-0.0071	-12.6957	21.2978	-19.4756	-0.0488	0.1396	0.5773	-0.8030
5.92	-1.9112	-9.2533	3.0540	0.0238	0.0210	-0.0072	-12.7854	21.2847	-19.3993	-0.0488	0.1396	0.5773	-0.8031
5.93	-1.9370	-9.2397	3.0576	0.0282	0.0161	-0.0056	-12.6609	21.1774	-19.5356	-0.0487	0.1395	0.5772	-0.8031
5.94	-1.9430	-9.2294	3.0713	0.0276	0.0139	-0.0086	-12.7192	21.2307	-19.3872	-0.0486	0.1395	0.5770	-0.8032
5.95	-1.9408	-9.2352	3.0867	0.0204	0.0082	-0.0204	-12.8519	21.1892	-19.3977	-0.0486	0.1395	0.5770	-0.8034
5.96	-1.9383	-9.2385	3.0980	0.0318	0.0071	-0.0191	-12.6864	21.2407	-19.2518	-0.0485	0.1394	0.5768	-0.8034
5.97	-1.9294	-9.2330	3.1037	0.0259	0.0011	-0.0199	-12.8212	21.1452	-19.3910	-0.0485	0.1393	0.5767	-0.8036
5.98	-1.9188	-9.2258	3.1119	0.0233	-0.0063	-0.0258	-12.9113	21.1028	-19.3839	-0.0484	0.1392	0.5766	-0.8036
5.99	-1.8956	-9.2227	3.1178	0.0199	-0.0087	-0.0207	-12.9408	21.2566	-19.5203	-0.0483	0.1390	0.5765	-0.8037
6	-1.8722	-9.2281	3.1265	0.0222	-0.0159	-0.0227	-12.8619	21.1451	-19.4238	-0.0482	0.1389	0.5764	-0.8038
6.01	-1.8415	-9.2390	3.1266	0.0190	-0.0201	-0.0210	-12.8197	21.1207	-19.3747	-0.0481	0.1387	0.5763	-0.8039
6.02	-1.8077	-9.2398	3.1325	0.0206	-0.0154	-0.0159	-12.9229	21.1211	-19.3993	-0.0479	0.1385	0.5763	-0.8040
6.03	-1.7843	-9.2474	3.1350	0.0155	-0.0209	-0.0129	-12.9389	21.1398	-19.3898	-0.0478	0.1384	0.5762	-0.8041
6.04	-1.7667	-9.2466	3.1304	-0.0006	-0.0173	-0.0111	-12.8395	21.0625	-19.3908	-0.0476	0.1382	0.5762	-0.8042
6.05	-1.7732	-9.2468	3.1320	0.0119	-0.0118	-0.0066	-12.9229	21.0232	-19.3831	-0.0474	0.1381	0.5761	-0.8041
6.06	-1.7888	-9.2742	3.1325	0.0174	-0.0100	-0.0080	-12.6927	20.9439	-19.4977	-0.0473	0.1380	0.5761	-0.8043
6.07	-1.8050	-9.2808	3.1350	0.0199	-0.0154	-0.0052	-12.6689	21.1299	-19.6278	-0.0471	0.1378	0.5760	-0.8043
6.08	-1.8074	-9.2688	3.1349	0.0209	-0.0154	-0.0069	-12.7654	21.3181	-19.1778	-0.0469	0.1377	0.5760	-0.8044
6.09	-1.7898	-9.2424	3.1402	0.0230	-0.0129	-0.0072	-12.3451	21.3732	-19.3520	-0.0468	0.1376	0.5759	-0.8045
6.1	-1.7720	-9.2304	3.1524	0.0254	-0.0140	-0.0069	-12.3988	21.4702	-19.4180	-0.0466	0.1375	0.5758	-0.8046
6.11	-1.7685	-9.2215	3.1609	0.0213	0.0057	-0.0063	-13.3630	21.3404	-19.3416	-0.0465	0.1374	0.5757	-0.8047
6.12	-1.7790	-9.2231	3.1695	0.0209	0.0017	-0.0068	-12.7953	21.4746	-19.4545	-0.0464	0.1374	0.5755	-0.8047
6.13	-1.7978	-9.2202	3.1712	0.0212	0.0013	-0.0076	-12.9186	21.4566	-19.3597	-0.0463	0.1373	0.5755	-0.8049
6.14	-1.8152	-9.2091	3.1688	0.0210	0.0134	-0.0056	-13.2358	21.1372	-19.3937	-0.0462	0.1373	0.5754	-0.8049
6.15	-1.8329	-9.2179	3.1656	0.0110	0.0191	-0.0136	-13.1023	21.3269	-19.4618	-0.0461	0.1373	0.5754	-0.8051
6.16	-1.8408	-9.2195	3.1639	0.0118	0.0168	-0.0175	-13.2023	21.3021	-19.5238	-0.0461	0.1373	0.5753	-0.8050
6.17	-1.8423	-9.2173	3.1633	0.0160	0.0165	-0.0124	-13.1866	21.2963	-19.3334	-0.0460	0.1373	0.5752	-0.8051
6.18	-1.8340	-9.2143	3.1654	0.0091	0.0172	-0.0181	-12.8660	21.1732	-19.4946	-0.0459	0.1372	0.5752	-0.8051
6.19	-1.8368	-9.2225	3.1580	0.0027	0.0159	-0.0208	-13.1341	21.3275	-19.4025	-0.0459	0.1372	0.5751	-0.8051
6.2	-1.8390	-9.2325	3.1586	0.0060	0.0200	-0.0169	-13.0764	21.2053	-19.4005	-0.0459	0.1372	0.5752	-0.8052
6.21	-1.8386	-9.2390	3.1538	0.0010	0.0108	-0.0107	-12.9143	21.0981	-19.3693	-0.0458	0.1372	0.5751	-0.8052
6.22	-1.8395	-9.2315	3.1502	0.0020	0.0066	-0.0084	-13.1066	20.9661	-19.4700	-0.0457	0.1371	0.5752	-0.8052
6.23	-1.8379	-9.2271	3.1544	0.0085	0.0078	-0.0068	-12.8043	20.9515	-19.4767	-0.0456	0.1371	0.5751	-0.8052
6.24	-1.8292	-9.2246	3.1538	0.0071	0.0064	-0.0074	-12.7668	21.0787	-19.5023	-0.0454	0.1371	0.5751	-0.8053
6.25	-1.8306	-9.2319	3.1532	0.0041	0.0050	-0.0073	-12.8968	21.1750	-19.5828	-0.0453	0.1370	0.5751	-0.8053
6.26	-1.8302	-9.2298	3.1602	0.0013	0.0012	-0.0072	-13.0217	21.0312	-19.3330	-0.0452	0.1370	0.5750	-0.8053
6.27	-1.8291	-9.2237	3.1645	0.0096	-0.0003	-0.0061	-13.0256	21.0725	-19.6293	-0.0450	0.1369	0.5750	-0.8054
6.28	-1.8352	-9.2317	3.1674	0.0133	0.0093	-0.0065	-13.0184	21.2492	-19.6555	-0.0449	0.1369	0.5750	-0.8054
6.29	-1.8493	-9.2398	3.1715	0.0200	0.0064	-0.0061	-12.8029	21.0150	-19.5015	-0.0448	0.1369	0.5749	-0.8055
6.3	-1.8578	-9.2284	3.1677	0.0111	0.0147	-0.0062	-13.0333	21.1514	-19.3829	-0.0447	0.1368	0.5748	-0.8054
6.31	-1.8658	-9.2165	3.1703	0.0093	0.0079	-0.0064	-13.0048	21.0238	-19.4027	-0.0446	0.1368	0.5748	-0.8056
6.32	-1.8736	-9.2213	3.1696	0.0140	0.0149	-0.0061	-13.0808	21.2383	-19.5306	-0.0445	0.1368	0.5747	-0.8056
6.33	-1.8819	-9.2245	3.1652	0.0099	0.0143	-0.0061	-13.0713	21.1452	-19.4016	-0.0444	0.1368	0.5747	-0.8056
6.34	-1.8829	-9.2271	3.1600	0.0086	0.0148	-0.0063	-12.8963	21.2156	-19.2822	-0.0443	0.1368	0.5747	-0.8056
6.35	-1.8834	-9.2178	3.1506	0.0131	0.0034	-0.0063	-12.9592	21.3653	-19.4504	-0.0442	0.1368	0.5746	-0.8057
6.36	-1.8808	-9.2284	3.1601	0.0073	0.0120	-0.0059	-12.8686	21.2279	-19.5151	-0.0441	0.1368	0.5746	-0.8057
6.37	-1.8792	-9.2382	3.1577	0.0083	0.0043	-0.0064	-12.8063	21.2392	-19.3985	-0.0440	0.1367	0.5745	-0.8057
6.38	-1.8692	-9.2375	3.1583	0.0067	0.0012	-0.0063	-13.0887	21.1924	-19.2772	-0.0439	0.1367	0.5746	-0.8058
6.39	-1.8586	-9.2275	3.1548	0.0059	0.0022	-0.0067	-13.0799	21.1512	-19.3301	-0.0437	0.1366	0.5745	-0.8058
6.4	-1.8491	-9.2267	3.1599	0.0093	0.0037	-0.0061	-12.9406	21.2458	-19.4872	-0.0436	0.1366	0.5746	-0.8059
6.41	-1.8420	-9.2321	3.1653	0.0178	0.0066	-0.0067	-12.8336	20.7765	-19.4766	-0.0435	0.1365	0.5744	-0.8059
6.42	-1.8450	-9.2236	3.1760	0.0216	0.0050	-0.0071	-12.7379	21.0990	-19.4822	-0.0434	0.1365	0.5744	-0.8060
6.43	-1.8540	-9.2065	3.1821	0.0172	0.0019	-0.0063	-12.7625	21.0511	-19.4814	-0.0433	0.1364	0.5743	-0.8060
6.44	-1.8651	-9.1961	3.1806	0.0169	0.0100	-0.0057	-12.7467	20.8483	-19.4759	-0.0432	0.1364	0.5742	-0.8060
6.45	-1.8748	-9.1848	3.1833	0.0127	0.0135	-0.0090	-12.8583	20.9613	-19.4790	-0.0431	0.1364	0.5743	-0.8062
6.46	-1.8807	-9.1701	3.1791	0.0010	0.0121	-0.0094	-12.9916	21.0303	-19.4925	-0.0430	0.1364	0.5742	-0.8061
6.47	-1.8807	-9.1639	3.1729	-0.0027	0.0073	-0.0104	-12.8230	21.1939	-19.4678	-0.0429	0.1364	0.5743	-0.8062
6.48	-1.8752	-9.1675	3.1651	-0.0041	0.0096	-0.0126	-12.9572	21.0202	-19.5858	-0.0428	0.1363	0.5742	-0.8060
6.49	-1.8650	-9.1873	3.1612	-0.0073	0.0111	-0.0131	-12.9951	21.0523	-19.5674	-0.0428	0.1363	0.5743	-0.8061
6.5	-1.8685	-9.2041	3.1547	-0.0106	0.0114	-0.0125	-12.9680	21.2346	-19.2506	-0.0427	0.1363	0.5743	-0.8061
6.51	-1.8630	-9.2154	3.1504	-0.0105	0.0121	-0.0086	-13.0346	21.1289	-19.4609	-0.0426	0.1363	0.5744	-0.8060
6.52	-1.8501	-9.2302	3.1453	-0.0182	0.0070	-0.0146	-13.0340	21.2484	-19.7034	-0.0425	0.1363	0.5745	-0.8060
6.53	-1.8348	-9.2495	3.1355	-0.0055	0.0184	-0.0235	-12.9491	21.2921	-19.3767	-0.0425	0.1363	0.5745	-0.8059
6.54	-1.8294	-9.2769	3.1347	-0.0073	0.0128	-0.0175	-12.7892	21.1971	-19.2013	-0.0425	0.1362	0.5746	-0.8059
6.55	-1.8269	-9.2747	3.1420	-0.0062	0.0094	-0.0096	-12.9406	21.2471	-19.2866	-0.0424	0.1362	0.5746	-0.8058
6.56	-1.8301	-9.2633	3.1369	-0.0079	0.0137	-0.0122	-12.9516	20.8890	-19.4351	-0.0424	0.1362	0.5748	-0.8058
6.57	-1.8422	-9.2577	3.1208	-0.0040	0.0151	-0.0152	-13.0472	21.1881	-19.3358	-0.0424	0.1362	0.5748	-0.8058
6.58	-1.8448	-9.2401	3.1087	-0.0071	0.0059	-0.0082	-12.9406	21.4750	-19.2744	-0.0423	0.1361	0.5748	-0.8058
6.59	-1.8439	-9.2349	3.1102	-0.0029	0.0116	-0.0076	-12.4430	21.1413	-19.5065	-0.0422	0.1362	0.5748	-0.8057
6.6	-1.8510	-9.2687	3.1185	-0.0039	0.0043	-0.0069	-12.5247	21.0066	-19.4177	-0.0421	0.1361	0.5749	-0.8057
6.61	-1.8546	-9.3040	3.1237	-0.0022	0.0014	-0.0080	-13.5400	21.0209	-19.3997	-0.0420	0.1361	0.5749	-0.8057
6.62	-1.8461	-9.3276	3.1271	-0.0011	-0.0003	-0.0068	-12.5782	21.2534	-19.4514	-0.0419	0.1360	0.5750	-0.8056
6.63	-1.8208	-9.3190	3.1277	0.0105	0.0021	-0.0126	-12.8733	21.1343	-19.2286	-0.0419	0.1359	0.5751	-0.8057
6.64	-1.8023	-9.3035	3.1283	0.0172	0.0037	-0.0112	-12.6219	21.0417	-19.4300	-0.0418	0.1358	0.5750	-0.8057
6.65	-1.7895	-9.2891	3.1305	0.0177	0.0114	-0.0076	-12.8746	21.0680	-19.4689	-0.0418	0.1358	0.5750	-0.8058
6.66	-1.7934	-9.2668	3.1288	0.0208	0.0141	-0.0083	-12.9638	21.0789	-19.2702	-0.0418	0.1358	0.5749	-0.8057
6.67	-1.8147	-9.2438	3.1243	0.0210	0.0236	-0.0041	-12.8952	21.1344	-19.3379	-0.0418	0.1358	0.5749	-0.8058
6.68	-1.8481	-9.2119	3.1229	0.0201	0.0195	-0.0069	-12.7898	21.0896	-19.4699	-0.0417	0.1358	0.5749	-0.8058
6.69	-1.8789	-9.1837	3.1215	0.0204	0.0263	-0.0060	-13.0292	21.1146	-19.5261	-0.0417	0.1359	0.5748	-0.8058
6.7	-1.8958	-9.1665	3.1221	0.0221	0.0287	-0.0098	-12.9119	21.0994	-19.3655	-0.0417	0.1360	0.5748	-0.8060
6.71	-1.9045	-9.1628	3.1271	0.0128	0.0164	-0.0097	-12.6728	20.9862	-19.2991	-0.0417	0.1360	0.5747	-0.8059
6.72	-1.9070	-9.1718	3.1312	-0.0060	0.0149	-0.0201	-12.8618	21.1009	-19.2996	-0.0416	0.1360	0.5747	-0.8060
6.73	-1.9121	-9.1961	3.1336	-0.0046	0.0153	-0.0143	-12.7294	21.1086	-19.3969	-0.0416	0.1360	0.5747	-0.8058
6.74	-1.9124	-9.2138	3.1227	-0.0102	0.0139	-0.0088	-12.7751	21.1083	-19.5339	-0.0415	0.1360	0.5748	-0.8059
6.75	-1.9118	-9.2253	3.1119	-0.0179	-0.0025	-0.0218	-13.0494	21.2734	-19.4517	-0.0415	0.1359	0.5749	-0.8058
6.76	-1.9008	-9.2537	3.1099	-0.0319	-0.0134	-0.0115	-12.9334	21.2926	-19.3208	-0.0413	0.1358	0.5750	-0.8057
6.77	-1.8837	-9.2810	3.1043	-0.0240	-0.0126	-0.0129	-12.8196	21.1811	-19.2995	-0.0412	0.1357	0.5752	-0.8057
6.78	-1.8600	-9.2916	3.1027	-0.0068	-0.0130	-0.0142	-13.1147	21.1929	-19.4849	-0.0411	0.1356	0.5753	-0.8056
6.79	-1.8298	-9.2830	3.0991	-0.0133	-0.0134	-0.0089	-12.8208	21.0076	-19.4530	-0.0410	0.1355	0.5754	-0.8056
6.8	-1.8097	-9.2799	3.0913	-0.0092	-0.0182	-0.0077	-12.6132	21.0478	-19.2772	-0.0408	0.1353	0.5754	-0.8055
6.81	-1.7949	-9.2642	3.0825	-0.0068	-0.0159	-0.0079	-12.8167	20.9728	-19.4269	-0.0406	0.1352	0.5755	-0.8056
6.82	-1.8042	-9.2604	3.0755	-0.0070	-0.0088	-0.0079	-12.8123	20.8148	-19.3761	-0.0405	0.1352	0.5755	-0.8055
6.83	-1.8280	-9.2979	3.0819	-0.0083	-0.0123	-0.0070	-12.6981	21.1153	-19.4313	-0.0404	0.1351	0.5756	-0.8055
6.84	-1.8428	-9.3224	3.0851	-0.0038	-0.0102	-0.0061	-12.9853	21.1158	-19.2788	-0.0403	0.1349	0.5757	-0.8054
6.85	-1.8475	-9.3225	3.0836	-0.0055	-0.0126	-0.0080	-12.7412	21.0804	-19.4823	-0.0401	0.1348	0.5758	-0.8054
6.86	-1.8262	-9.3034	3.0814	0.0146	-0.0069	-0.0079	-12.6490	21.1701	-19.4541	-0.0400	0.1347	0.5758	-0.8054
6.87	-1.8032	-9.2886	3.0814	0.0173	-0.0088	-0.0104	-12.9583	20.8804	-19.3008	-0.0400	0.1346	0.5757	-0.8054
6.88	-1.8090	-9.2867	3.0864	0.0177	0.0074	-0.0080	-12.9993	21.3132	-19.2956	-0.0399	0.1346	0.5758	-0.8055
6.89	-1.8257	-9.2862	3.0959	0.0188	0.0173	-0.0055	-12.9040	21.3094	-19.2147	-0.0399	0.1345	0.5757	-0.8055
6.9	-1.8532	-9.2793	3.1015	0.0191	0.0144	-0.0068	-12.9430	21.1559	-19.4380	-0.0399	0.1345	0.5758	-0.8056
6.91	-1.8678	-9.2699	3.0997	0.0176	0.0173	-0.0067	-12.8337	21.2073	-19.2861	-0.0398	0.1345	0.5757	-0.8055
6.92	-1.8783	-9.2546	3.1041	0.0198	0.0116	-0.0165	-12.9413	21.2144	-19.3263	-0.0398	0.1345	0.5757	-0.8056
6.93	-1.8765	-9.2345	3.1077	0.0217	0.0161	-0.0216	-12.9228	21.3106	-19.2931	-0.0399	0.1344	0.5756	-0.8056
6.94	-1.8662	-9.2193	3.1078	0.0214	0.0164	-0.0217	-12.9235	21.2690	-19.3907	-0.0399	0.1344	0.5755	-0.8056
6.95	-1.8623	-9.2250	3.1099	0.0213	0.0094	-0.0176	-12.9431	21.2821	-19.5236	-0.0398	0.1344	0.5756	-0.8058
6.96	-1.8661	-9.2349	3.1083	0.0131	0.0107	-0.0173	-12.8908	21.1489	-19.3182	-0.0398	0.1344	0.5755	-0.8057
6.97	-1.8629	-9.2397	3.1078	0.0027	0.0082	-0.0148	-13.0242	21.0241	-19.3453	-0.0398	0.1344	0.5755	-0.8058
6.98	-1.8573	-9.2405	3.1094	0.0093	0.0130	-0.0100	-12.9138	21.0203	-19.5303	-0.0397	0.1343	0.5754	-0.8057
6.99	-1.8552	-9.2545	3.1055	0.0053	0.0111	-0.0133	-12.9637	21.1109	-19.4498	-0.0396	0.1343	0.5755	-0.8058
7	-1.8468	-9.2624	3.1048	0.0108	0.0045	-0.0065	-13.0083	20.9669	-19.4200	-0.0396	0.1343	0.5754	-0.8058
7.01	-1.8358	-9.2672	3.1032	0.0089	0.0030	-0.0098	-12.8224	21.1189	-19.6186	-0.0395	0.1343	0.5754	-0.8058
7.02	-1.8297	-9.2693	3.1031	0.0148	-0.0008	-0.0083	-12.8368	21.0028	-19.3756	-0.0394	0.1342	0.5754	-0.8059
7.03	-1.8276	-9.2690	3.1088	0.0175	-0.0008	-0.0069	-12.8664	21.1581	-19.5443	-0.0393	0.1342	0.5753	-0.8059
7.04	-1.8306	-9.2705	3.1107	0.0221	0.0099	-0.0049	-12.9618	21.2230	-19.4213	-0.0392	0.1342	0.5753	-0.8060
7.05	-1.8403	-9.2665	3.1177	0.0205	0.0082	-0.0042	-12.8944	21.1007	-19.3930	-0.0391	0.1342	0.5751	-0.8059
7.06	-1.8511	-9.2636	3.1251	0.0209	0.0088	-0.0070	-13.0770	21.0042	-19.2996	-0.0391	0.1342	0.5752	-0.8061
7.07	-1.8697	-9.2493	3.1155	0.0230	0.0129	-0.0066	-12.9441	21.0421	-19.4706	-0.0390	0.1342	0.5751	-0.8061
7.08	-1.8726	-9.2458	3.1278	0.0216	0.0171	-0.0058	-12.8580	21.2252	-19.2432	-0.0389	0.1342	0.5750	-0.8062
7.09	-1.8842	-9.2419	3.1248	0.0207	0.0156	-0.0072	-12.4184	21.1585	-19.1003	-0.0389	0.1342	0.5749	-0.8062
7.1	-1.8943	-9.2342	3.1324	0.0212	0.0085	-0.0066	-12.6934	21.3002	-19.0854	-0.0388	0.1342	0.5748	-0.8062
7.11	-1.8946	-9.2270	3.1306	0.0210	0.0120	-0.0086	-13.7775	21.4259	-19.1882	-0.0388	0.1342	0.5748	-0.8063
7.12	-1.8993	-9.2312	3.1354	0.0218	0.0097	-0.0087	-13.0613	21.4740	-19.2370	-0.0387	0.1342	0.5747	-0.8063
7.13	-1.8938	-9.2314	3.1347	0.0200	0.0103	-0.0126	-12.9705	21.4471	-19.2823	-0.0387	0.1342	0.5747	-0.8064
7.14	-1.8797	-9.2221	3.1366	0.0197	0.0005	-0.0071	-12.9641	21.1415	-19.3251	-0.0386	0.1342	0.5746	-0.8064
7.15	-1.8706	-9.2215	3.1434	0.0219	0.0072	-0.0122	-13.0897	21.2841	-19.4891	-0.0385	0.1341	0.5746	-0.8066
7.16	-1.8624	-9.2174	3.1444	0.0214	0.0027	-0.0090	-12.7617	21.0093	-19.4677	-0.0384	0.1341	0.5744	-0.8065
7.17	-1.8546	-9.2120	3.1460	0.0220	0.0024	-0.0100	-12.7210	21.0708	-19.3667	-0.0384	0.1341	0.5744	-0.8066
7.18	-1.8442	-9.2117	3.1522	0.0180	0.0063	-0.0106	-12.7665	21.0236	-19.3965	-0.0383	0.1340	0.5744	-0.8067
7.19	-1.8423	-9.2121	3.1510	0.0183	0.0073	-0.0161	-12.8504	21.0801	-19.3745	-0.0382	0.1340	0.5743	-0.8067
7.2	-1.8469	-9.2156	3.1545	0.0179	0.0039	-0.0105	-12.7641	20.9051	-19.4846	-0.0382	0.1340	0.5743	-0.8068
7.21	-1.8445	-9.2190	3.1513	0.0140	0.0104	-0.0087	-12.7559	21.1861	-19.4803	-0.0381	0.1340	0.5742	-0.8068
7.22	-1.8491	-9.2286	3.1541	0.0120	0.0142	-0.0108	-12.8288	20.9557	-19.4714	-0.0381	0.1340	0.5742	-0.8068
7.23	-1.8526	-9.2343	3.1533	0.0174	0.0031	-0.0183	-12.8010	21.0736	-19.4991	-0.0380	0.1339	0.5741	-0.8068
7.24	-1.8576	-9.2384	3.1475	0.0000	0.0038	-0.0121	-12.9155	21.0781	-19.3259	-0.0380	0.1339	0.5742	-0.8068
7.25	-1.8624	-9.2452	3.1480	0.0065	0.0060	-0.0102	-12.9152	21.1772	-19.4936	-0.0379	0.1339	0.5742	-0.8068
7.26	-1.8657	-9.2554	3.1418	0.0098	0.0035	-0.0100	-12.8111	21.3749	-19.3302	-0.0378	0.1338	0.5742	-0.8068
7.27	-1.8669	-9.2533	3.1371	0.0015	0.0015	-0.0133	-12.8146	21.1986	-19.2757	-0.0378	0.1338	0.5742	-0.8068
7.28	-1.8643	-9.2509	3.1341	0.0088	-0.0061	-0.0133	-12.9334	21.1894	-19.5882	-0.0377	0.1337	0.5742	-0.8068
7.29	-1.8584	-9.2595	3.1282	0.0213	-0.0022	-0.0112	-13.0881	20.9495	-19.3146	-0.0376	0.1337	0.5742	-0.8069
7.3	-1.8471	-9.2651	3.1283	0.0213	-0.0022	-0.0131	-12.9771	21.2678	-19.2021	-0.0375	0.1336	0.5741	-0.8069
7.31	-1.8326	-9.2582	3.1274	0.0176	-0.0076	-0.0092	-13.0046	21.2953	-19.3009	-0.0374	0.1335	0.5741	-0.8070
7.32	-1.8238	-9.2647	3.1307	0.0195	-0.0035	-0.0065	-12.9403	21.3590	-19.1780	-0.0373	0.1335	0.5740	-0.8070
7.33	-1.8144	-9.2572	3.1269	0.0227	-0.0033	-0.0071	-13.1602	21.4384	-19.2291	-0.0372	0.1334	0.5740	-0.8071
7.34	-1.8141	-9.2454	3.1338	0.0207	-0.0047	-0.0065	-13.0726	21.1959	-19.1886	-0.0371	0.1334	0.5739	-0.8071
7.35	-1.8154	-9.2447	3.1398	0.0219	-0.0031	-0.0090	-12.8478	20.9778	-19.4808	-0.0371	0.1333	0.5738	-0.8072
7.36	-1.8067	-9.2483	3.1483	0.0208	0.0010	-0.0123	-12.7367	21.1675	-19.6275	-0.0370	0.1333	0.5738	-0.8073
7.37	-1.8038	-9.2543	3.1479	0.0227	0.0003	-0.0062	-12.7763	20.9607	-19.3811	-0.0369	0.1333	0.5737	-0.8072
7.38	-1.8022	-9.2518	3.1673	0.0232	0.0058	-0.0094	-13.0487	20.8550	-19.2726	-0.0369	0.1333	0.5737	-0.8074
7.39	-1.8125	-9.2479	3.1780	0.0216	0.0039	-0.0109	-12.7904	21.1532	-19.3189	-0.0368	0.1332	0.5736	-0.8074
7.4	-1.8218	-9.2338	3.1703	0.0216	0.0078	-0.0093	-12.8859	21.1144	-19.5063	-0.0367	0.1332	0.5736	-0.8075
7.41	-1.8239	-9.1994	3.1654	0.0209	0.0075	-0.0092	-12.9172	21.1635	-19.3651	-0.0367	0.1332	0.5734	-0.8075
7.42	-1.8100	-9.1702	3.1600	0.0213	0.0044	-0.0113	-12.8876	20.9670	-19.4178	-0.0366	0.1332	0.5734	-0.8076
7.43	-1.8056	-9.1943	3.1793	0.0183	-0.0090	-0.0095	-12.9487	20.8301	-19.6647	-0.0365	0.1332	0.5733	-0.8076
7.44	-1.8043	-9.2396	3.1841	0.0014	-0.0058	-0.0063	-13.0796	20.9326	-19.3457	-0.0364	0.1331	0.5733	-0.8076
7.45	-1.8114	-9.2589	3.1934	0.0130	0.0045	-0.0070	-13.1876	21.1846	-19.4304	-0.0364	0.1331	0.5734	-0.8077
7.46	-1.7903	-9.2537	3.1995	0.0138	0.0057	-0.0066	-13.0054	21.4926	-19.4675	-0.0363	0.1330	0.5733	-0.8076
7.47	-1.7704	-9.2446	3.2005	0.0114	0.0121	-0.0083	-13.0136	21.2526	-19.3518	-0.0363	0.1331	0.5734	-0.8077
7.48	-1.7594	-9.2349	3.1878	0.0192	0.0181	-0.0075	-13.2237	21.1071	-19.4872	-0.0362	0.1331	0.5732	-0.8076
7.49	-1.7636	-9.2213	3.1850	0.0199	0.0195	-0.0065	-13.2082	21.2545	-19.4980	-0.0362	0.1332	0.5732	-0.8077
7.5	-1.7805	-9.2032	3.1765	0.0188	0.0360	-0.0069	-13.0355	21.3377	-19.6178	-0.0362	0.1333	0.5731	-0.8077
7.51	-1.8128	-9.1789	3.1649	0.0139	0.0422	-0.0061	-13.0975	21.2276	-19.4821	-0.0362	0.1334	0.5731	-0.8077
7.52	-1.8566	-9.1681	3.1543	0.0135	0.0393	-0.0067	-12.9884	21.2188	-19.4727	-0.0363	0.1336	0.5731	-0.8078
7.53	-1.8957	-9.1635	3.1513	0.0137	0.0357	-0.0063	-13.0892	21.0933	-19.4955	-0.0363	0.1337	0.5730	-0.8077
7.54	-1.9173	-9.1611	3.1480	0.0046	0.0338	-0.0070	-12.6641	20.9872	-19.4449	-0.0363	0.1338	0.5730	-0.8078
7.55	-1.9298	-9.1767	3.1457	-0.0054	0.0370	-0.0062	-12.5876	20.8577	-19.5872	-0.0363	0.1339	0.5730	-0.8076
7.56	-1.9450	-9.2074	3.1498	-0.0043	0.0277	-0.0103	-12.8088	20.9886	-19.5322	-0.0363	0.1340	0.5731	-0.8077
7.57	-1.9606	-9.2374	3.1430	-0.0085	0.0250	-0.0091	-13.0562	21.0873	-19.4967	-0.0363	0.1341	0.5732	-0.8076
7.58	-1.9700	-9.2559	3.1370	-0.0075	0.0182	-0.0090	-12.5355	20.9489	-19.6249	-0.0363	0.1341	0.5733	-0.8075
7.59	-1.9711	-9.2691	3.1285	-0.0096	0.0039	-0.0111	-12.2438	21.0659	-19.3347	-0.0362	0.1340	0.5733	-0.8074
7.6	-1.9527	-9.2815	3.1200	-0.0057	-0.0141	-0.0118	-12.5670	21.1806	-19.2272	-0.0361	0.1339	0.5734	-0.8074
7.61	-1.9214	-9.2845	3.1224	-0.0052	-0.0138	-0.0160	-13.4983	20.9479	-19.4270	-0.0361	0.1338	0.5735	-0.8074
7.62	-1.8808	-9.2904	3.1225	-0.0015	-0.0230	-0.0081	-12.7971	21.0960	-19.3343	-0.0359	0.1336	0.5736	-0.8073
7.63	-1.8406	-9.2971	3.1216	0.0114	-0.0265	-0.0079	-13.0144	21.1134	-19.2827	-0.0358	0.1335	0.5737	-0.8074
7.64	-1.8124	-9.2768	3.1179	0.0070	-0.0190	-0.0068	-12.9134	21.1618	-19.4896	-0.0357	0.1333	0.5737	-0.8074
7.65	-1.7971	-9.2641	3.1269	0.0030	-0.0121	-0.0077	-12.9536	21.2648	-19.5092	-0.0356	0.1333	0.5738	-0.8074
7.66	-1.8027	-9.2896	3.1373	0.0165	-0.0198	-0.0075	-12.9318	21.0941	-19.5079	-0.0355	0.1331	0.5737	-0.8073
7.67	-1.8056	-9.2919	3.1446	0.0181	-0.0121	-0.0068	-13.0653	21.0642	-19.2324	-0.0354	0.1330	0.5737	-0.8074
7.68	-1.8039	-9.2661	3.1530	0.0174	-0.0107	-0.0053	-12.9743	21.1564	-19.2547	-0.0353	0.1329	0.5737	-0.8074
7.69	-1.7729	-9.2358	3.1517	0.0270	-0.0119	-0.0076	-12.8493	21.1080	-19.4150	-0.0352	0.1328	0.5736	-0.8074
7.7	-1.7498	-9.2213	3.1671	0.0317	-0.0061	-0.0067	-12.8502	21.2446	-19.5007	-0.0351	0.1327	0.5736	-0.8076
7.71	-1.7635	-9.2151	3.1729	0.0235	0.0055	-0.0074	-13.0101	21.0490	-19.3682	-0.0350	0.1327	0.5735	-0.8076
7.72	-1.8003	-9.2164	3.1830	0.0219	0.0146	-0.0055	-12.7866	21.2977	-19.4702	-0.0350	0.1328	0.5734	-0.8077
7.73	-1.8377	-9.2025	3.1842	0.0243	0.0171	-0.0067	-12.7404	21.2529	-19.6108	-0.0349	0.1328	0.5733	-0.8077
7.74	-1.8691	-9.2020	3.1856	0.0221	0.0244	-0.0067	-13.0029	20.7192	-19.5565	-0.0349	0.1329	0.5733	-0.8078
7.75	-1.8854	-9.2082	3.1791	0.0170	0.0187	-0.0105	-12.8916	20.8832	-19.4612	-0.0349	0.1329	0.5732	-0.8078
7.76	-1.8839	-9.2075	3.1792	0.0186	0.0148	-0.0124	-12.7744	20.7621	-19.5591	-0.0349	0.1329	0.5732	-0.8078
7.77	-1.8728	-9.2137	3.1851	0.0161	0.0129	-0.0118	-12.7451	20.9001	-19.7094	-0.0349	0.1329	0.5732	-0.8079
7.78	-1.8628	-9.2130	3.1801	0.0122	0.0146	-0.0143	-13.0686	21.0586	-19.4906	-0.0349	0.1329	0.5731	-0.8079
7.79	-1.8564	-9.2149	3.1773	0.0082	0.0208	-0.0067	-12.9164	20.8733	-19.3625	-0.0348	0.1330	0.5731	-0.8079
7.8	-1.8531	-9.2171	3.1713	0.0148	0.0180	-0.0110	-12.7294	21.1661	-19.4477	-0.0348	0.1330	0.5730	-0.8078
7.81	-1.8575	-9.2239	3.1712	0.0159	0.0129	-0.0103	-12.9979	21.1032	-19.1342	-0.0348	0.1330	0.5731	-0.8079
7.82	-1.8666	-9.2273	3.1630	0.0109	0.0150	-0.0096	-12.9015	20.8502	-19.3280	-0.0348	0.1331	0.5730	-0.8079
7.83	-1.8651	-9.2219	3.1601	0.0005	0.0188	-0.0062	-13.0315	20.9225	-19.4776	-0.0347	0.1331	0.5730	-0.8079
7.84	-1.8643	-9.2248	3.1612	0.0078	0.0122	-0.0083	-13.0387	21.1535	-19.6300	-0.0347	0.1331	0.5730	-0.8079
7.85	-1.8674	-9.2275	3.1620	0.0135	0.0126	-0.0053	-13.0193	21.1186	-19.3834	-0.0346	0.1332	0.5730	-0.8079
7.86	-1.8680	-9.2277	3.1622	0.0057	0.0135	-0.0071	-13.0409	21.1331	-19.3643	-0.0346	0.1332	0.5730	-0.8079
7.87	-1.8674	-9.2357	3.1637	0.0133	0.0089	-0.0069	-13.0083	21.1224	-19.7436	-0.0345	0.1332	0.5729	-0.8079
7.88	-1.8644	-9.2405	3.1638	0.0187	0.0129	-0.0078	-13.0600	21.2360	-19.5321	-0.0345	0.1332	0.5730	-0.8080
7.89	-1.8555	-9.2339	3.1668	0.0164	0.0158	-0.0066	-12.9529	20.9103	-19.5104	-0.0344	0.1332	0.5729	-0.8080
7.9	-1.8527	-9.2362	3.1722	0.0162	0.0056	-0.0073	-12.7479	21.0975	-19.6978	-0.0344	0.1332	0.5729	-0.8081
7.91	-1.8485	-9.2410	3.1744	0.0213	0.0104	-0.0049	-12.7736	21.1661	-19.5965	-0.0343	0.1332	0.5727	-0.8080
7.92	-1.8497	-9.2374	3.1781	0.0201	0.0114	-0.0070	-12.6466	20.8451	-19.4348	-0.0343	0.1333	0.5727	-0.8081
7.93	-1.8552	-9.2323	3.1798	0.0219	0.0165	-0.0066	-13.0706	20.9366	-19.4038	-0.0342	0.1333	0.5727	-0.8082
7.94	-1.8552	-9.2350	3.1784	0.0195	0.0209	-0.0062	-12.8641	20.9406	-19.7037	-0.0342	0.1333	0.5726	-0.8081
7.95	-1.8594	-9.2263	3.1764	0.0222	0.0233	-0.0068	-12.7553	20.9867	-19.5608	-0.0342	0.1334	0.5726	-0.8083
7.96	-1.8721	-9.2169	3.1723	0.0215	0.0186	-0.0070	-12.8920	21.0262	-19.6158	-0.0342	0.1334	0.5725	-0.8083
7.97	-1.8825	-9.2119	3.1747	0.0196	0.0168	-0.0067	-13.0477	21.1283	-19.5239	-0.0342	0.1335	0.5724	-0.8083
7.98	-1.8965	-9.2015	3.1794	0.0201	0.0159	-0.0120	-12.8480	21.0321	-19.4817	-0.0341	0.1335	0.5723	-0.8083
7.99	-1.9135	-9.1973	3.1819	0.0198	0.0198	-0.0081	-12.8555	20.9575	-19.5027	-0.0341	0.1335	0.5723	-0.8084
8	-1.9233	-9.1884	3.1807	0.0200	0.0170	-0.0116	-12.8352	20.8811	-19.4927	-0.0341	0.1336	0.5723	-0.8084
8.01	-1.9266	-9.1827	3.1810	0.0199	0.0150	-0.0124	-12.9486	20.9839	-19.7912	-0.0341	0.1336	0.5722	-0.8084
8.02	-1.9230	-9.1869	3.1887	0.0171	0.0110	-0.0159	-12.8363	21.1741	-19.7563	-0.0341	0.1336	0.5722	-0.8085
8.03	-1.9154	-9.1889	3.1896	0.0221	0.0067	-0.0167	-12.8825	20.9693	-19.5381	-0.0341	0.1335	0.5721	-0.8085
8.04	-1.8994	-9.1939	3.1898	0.0162	0.0052	-0.0187	-12.9812	20.9307	-19.3942	-0.0341	0.1335	0.5721	-0.8086
8.05	-1.8759	-9.2008	3.1918	0.0201	0.0015	-0.0209	-12.8440	20.7224	-19.4878	-0.0340	0.1334	0.5720	-0.8085
8.06	-1.8586	-9.2093	3.2017	0.0124	-0.0053	-0.0105	-12.8608	20.9481	-19.6948	-0.0340	0.1334	0.5720	-0.8087
8.07	-1.8387	-9.2139	3.2037	0.0029	-0.0042	-0.0089	-12.8730	21.0233	-19.5565	-0.0339	0.1333	0.5720	-0.8086
8.08	-1.8271	-9.2135	3.1924	0.0096	-0.0041	-0.0097	-12.9840	20.9011	-19.5491	-0.0338	0.1333	0.5720	-0.8087
8.09	-1.8173	-9.2194	3.1922	-0.0008	-0.0008	-0.0098	-12.3441	21.1586	-19.2714	-0.0337	0.1332	0.5720	-0.8086
8.1	-1.8216	-9.2235	3.1879	0.0045	-0.0048	-0.0098	-12.4257	21.2886	-19.2775	-0.0336	0.1332	0.5721	-0.8086
8.11	-1.8296	-9.2195	3.1839	0.0006	-0.0066	-0.0065	-13.2843	21.1592	-19.4111	-0.0335	0.1331	0.5721	-0.8086
8.12	-1.8438	-9.2165	3.1774	0.0039	0.0106	-0.0095	-12.5738	21.0111	-19.3657	-0.0335	0.1331	0.5721	-0.8086
8.13	-1.8501	-9.2201	3.1783	0.0059	0.0009	-0.0119	-12.7249	21.0415	-19.6275	-0.0334	0.1331	0.5721	-0.8087
8.14	-1.8502	-9.2200	3.1745	0.0074	0.0110	-0.0090	-13.0616	21.0927	-19.5861	-0.0334	0.1330	0.5721	-0.8086
8.15	-1.8430	-9.2211	3.1733	0.0115	0.0107	-0.0082	-13.0878	20.9094	-19.4145	-0.0333	0.1331	0.5721	-0.8087
8.16	-1.8329	-9.2185	3.1755	0.0086	0.0031	-0.0104	-12.7764	20.8574	-19.5854	-0.0332	0.1330	0.5720	-0.8086
8.17	-1.8209	-9.2198	3.1822	0.0178	0.0079	-0.0098	-12.8893	21.0074	-19.4282	-0.0332	0.1330	0.5720	-0.8087
8.18	-1.8128	-9.2264	3.1840	0.0156	-0.0039	-0.0126	-12.9109	20.9375	-19.6892	-0.0331	0.1330	0.5720	-0.8087
8.19	-1.8033	-9.2442	3.1824	0.0155	0.0043	-0.0103	-13.0134	21.0403	-19.5478	-0.0331	0.1329	0.5719	-0.8087
8.2	-1.7971	-9.2479	3.1927	0.0125	0.0087	-0.0123	-12.9980	21.2688	-19.5849	-0.0331	0.1329	0.5720	-0.8088
8.21	-1.8006	-9.2392	3.1975	0.0145	0.0073	-0.0096	-12.9078	21.0546	-19.6549	-0.0330	0.1329	0.5719	-0.8088
8.22	-1.8255	-9.2433	3.1947	0.0198	0.0085	-0.0066	-12.8912	21.1013	-19.4501	-0.0330	0.1329	0.5719	-0.8089
8.23	-1.8382	-9.2239	3.1863	0.0190	0.0145	-0.0084	-13.1116	21.2532	-19.4940	-0.0329	0.1329	0.5718	-0.8088
8.24	-1.8506	-9.2058	3.1837	0.0209	0.0098	-0.0115	-13.1936	21.2141	-19.4523	-0.0329	0.1329	0.5718	-0.8089
8.25	-1.8377	-9.2002	3.1854	0.0111	0.0071	-0.0091	-13.0360	21.2548	-19.5340	-0.0329	0.1329	0.5717	-0.8089
8.26	-1.8322	-9.2173	3.1977	0.0106	0.0029	-0.0070	-12.9125	21.1394	-19.5830	-0.0328	0.1329	0.5717	-0.8089
8.27	-1.8329	-9.2558	3.2060	0.0142	0.0065	-0.0069	-13.0209	21.1509	-19.5499	-0.0327	0.1329	0.5717	-0.8090
8.28	-1.8279	-9.2691	3.2164	0.0177	0.0069	-0.0088	-13.2631	20.9742	-19.7261	-0.0327	0.1329	0.5717	-0.8090
8.29	-1.8118	-9.2599	3.2178	0.0217	0.0113	-0.0073	-12.8610	20.7907	-19.7177	-0.0327	0.1328	0.5717	-0.8090
8.3	-1.7848	-9.2409	3.2182	0.0196	0.0119	-0.0060	-12.8149	20.7828	-19.4200	-0.0327	0.1328	0.5716	-0.8089
8.31	-1.7797	-9.2241	3.2199	0.0205	0.0173	-0.0097	-12.9569	20.9213	-19.7294	-0.0326	0.1329	0.5716	-0.8091
8.32	-1.7786	-9.2059	3.2180	0.0200	0.0297	-0.0089	-12.8892	20.8069	-19.7129	-0.0327	0.1330	0.5715	-0.8091
8.33	-1.8059	-9.1791	3.2102	0.0214	0.0356	-0.0070	-12.7232	20.8481	-19.5661	-0.0327	0.1331	0.5715	-0.8091
8.34	-1.8418	-9.1529	3.2045	0.0193	0.0478	-0.0058	-12.8470	20.9955	-19.4436	-0.0328	0.1332	0.5714	-0.8091
8.35	-1.8889	-9.1326	3.1886	0.0194	0.0456	-0.0065	-12.8106	20.9540	-19.7633	-0.0328	0.1334	0.5713	-0.8091
8.36	-1.9388	-9.1272	3.1840	0.0119	0.0501	-0.0059	-12.8872	20.7712	-19.8405	-0.0329	0.1335	0.5713	-0.8091
8.37	-1.9716	-9.1409	3.1807	-0.0017	0.0320	-0.0103	-12.9479	20.9346	-19.5289	-0.0329	0.1336	0.5713	-0.8090
8.38	-1.9890	-9.1638	3.1825	-0.0016	0.0292	-0.0099	-12.7807	21.2070	-19.4851	-0.0329	0.1337	0.5714	-0.8091
8.39	-1.9942	-9.1910	3.1866	-0.0046	0.0177	-0.0081	-13.0490	21.0824	-19.5874	-0.0329	0.1338	0.5714	-0.8090
8.4	-1.9932	-9.2170	3.1775	-0.0046	0.0115	-0.0099	-12.8545	21.0340	-19.5549	-0.0328	0.1338	0.5715	-0.8091
8.41	-1.9804	-9.2219	3.1683	-0.0045	-0.0037	-0.0074	-12.8181	21.1555	-19.5646	-0.0328	0.1337	0.5715	-0.8089
8.42	-1.9686	-9.2372	3.1628	-0.0059	-0.0074	-0.0144	-12.9366	21.1426	-19.4488	-0.0327	0.1336	0.5716	-0.8089
8.43	-1.9395	-9.2608	3.1632	-0.0046	-0.0093	-0.0140	-13.1168	21.3305	-19.6795	-0.0326	0.1335	0.5717	-0.8089
8.44	-1.9041	-9.2785	3.1628	-0.0055	-0.0222	-0.0130	-12.9333	21.2448	-19.5833	-0.0325	0.1334	0.5718	-0.8088
8.45	-1.8562	-9.2704	3.1713	-0.0032	-0.0349	-0.0092	-12.8239	21.0371	-19.4381	-0.0324	0.1332	0.5719	-0.8089
8.46	-1.8160	-9.2610	3.1713	0.0023	-0.0299	-0.0078	-12.9478	21.0402	-19.4994	-0.0322	0.1330	0.5719	-0.8088
8.47	-1.7936	-9.2387	3.1690	0.0081	-0.0228	-0.0077	-12.9212	20.8800	-19.6492	-0.0321	0.1329	0.5720	-0.8089
8.48	-1.7971	-9.2291	3.1718	0.0070	-0.0196	-0.0078	-12.8359	20.8678	-19.6556	-0.0319	0.1327	0.5719	-0.8088
8.49	-1.8067	-9.2571	3.1797	0.0129	-0.0114	-0.0070	-12.7246	20.9098	-19.6363	-0.0318	0.1327	0.5719	-0.8089
8.5	-1.8098	-9.2637	3.1941	0.0161	-0.0119	-0.0080	-12.9215	20.8123	-19.4864	-0.0318	0.1325	0.5719	-0.8089
8.51	-1.7898	-9.2470	3.2025	0.0196	-0.0128	-0.0112	-12.9204	20.8441	-19.4453	-0.0317	0.1324	0.5719	-0.8089
8.52	-1.7643	-9.2185	3.1986	0.0226	-0.0080	-0.0139	-12.9188	20.9999	-19.4827	-0.0316	0.1324	0.5718	-0.8090
8.53	-1.7500	-9.1995	3.2082	0.0214	0.0113	-0.0101	-12.9187	20.8179	-19.5774	-0.0316	0.1323	0.5718	-0.8090
8.54	-1.7680	-9.2000	3.2172	0.0211	0.0139	-0.0056	-12.9179	20.9789	-19.5461	-0.0315	0.1324	0.5717	-0.8091
8.55	-1.8090	-9.2042	3.2196	0.0210	0.0255	-0.0113	-12.9266	20.9405	-19.5680	-0.0316	0.1324	0.5716	-0.8091
8.56	-1.8354	-9.1994	3.2178	0.0213	0.0336	-0.0065	-12.9088	21.0131	-19.4289	-0.0316	0.1325	0.5716	-0.8092
8.57	-1.8606	-9.2016	3.2198	0.0206	0.0307	-0.0056	-13.1296	21.1890	-19.6903	-0.0316	0.1326	0.5715	-0.8092
8.58	-1.8673	-9.1985	3.2271	0.0215	0.0279	-0.0076	-13.1485	21.1016	-19.5072	-0.0316	0.1327	0.5715	-0.8092
8.59	-1.8713	-9.1965	3.2131	0.0177	0.0288	-0.0107	-12.5782	21.3580	-19.3583	-0.0316	0.1327	0.5714	-0.8092
8.6	-1.8790	-9.1921	3.2149	0.0183	0.0241	-0.0101	-12.9447	21.3232	-19.4646	-0.0317	0.1328	0.5714	-0.8093
8.61	-1.8854	-9.1876	3.2090	0.0175	0.0257	-0.0142	-13.7009	21.0257	-19.3866	-0.0317	0.1329	0.5713	-0.8093
8.62	-1.8933	-9.1886	3.2079	0.0148	0.0280	-0.0121	-12.7779	21.3245	-19.4464	-0.0317	0.1329	0.5712	-0.8092
8.63	-1.9000	-9.1951	3.2111	0.0061	0.0184	-0.0076	-12.9366	21.0168	-19.4525	-0.0317	0.1330	0.5713	-0.8093
8.64	-1.9025	-9.1988	3.2045	0.0044	0.0165	-0.0095	-12.9378	20.8741	-19.5334	-0.0317	0.1330	0.5713	-0.8093
8.65	-1.8925	-9.2039	3.1964	0.0027	0.0132	-0.0063	-12.9494	21.1615	-19.6318	-0.0316	0.1330	0.5714	-0.8093
8.66	-1.8829	-9.2119	3.1963	-0.0010	0.0091	-0.0098	-12.9520	20.6953	-19.8199	-0.0316	0.1330	0.5713	-0.8092
8.67	-1.8705	-9.2212	3.1964	0.0003	0.0099	-0.0071	-12.6992	20.8458	-19.5327	-0.0315	0.1330	0.5714	-0.8092
8.68	-1.8560	-9.2295	3.1999	0.0070	0.0068	-0.0071	-12.6801	20.8381	-19.5851	-0.0315	0.1330	0.5714	-0.8092
8.69	-1.8465	-9.2304	3.2061	0.0083	0.0026	-0.0070	-12.9815	20.9653	-19.7012	-0.0314	0.1330	0.5713	-0.8092
8.7	-1.8427	-9.2258	3.2071	0.0015	0.0022	-0.0072	-12.8019	20.9210	-19.6776	-0.0313	0.1329	0.5714	-0.8093
8.71	-1.8383	-9.2146	3.2049	0.0146	0.0119	-0.0072	-12.8032	20.8984	-19.9150	-0.0313	0.1329	0.5714	-0.8092
8.72	-1.8392	-9.2198	3.2091	0.0240	0.0152	-0.0063	-12.8613	21.1677	-19.8003	-0.0313	0.1330	0.5713	-0.8093
8.73	-1.8422	-9.2245	3.2057	0.0144	0.0094	-0.0089	-12.9428	21.0224	-19.5549	-0.0312	0.1329	0.5712	-0.8093
8.74	-1.8505	-9.2269	3.2121	0.0190	0.0219	-0.0067	-12.9238	21.0365	-19.5032	-0.0312	0.1330	0.5712	-0.8094
8.75	-1.8546	-9.2196	3.2170	0.0218	0.0247	-0.0064	-12.8237	21.2380	-19.4219	-0.0312	0.1331	0.5711	-0.8094
8.76	-1.8642	-9.2108	3.2132	0.0219	0.0286	-0.0058	-12.8554	21.0748	-19.4642	-0.0312	0.1331	0.5711	-0.8094
8.77	-1.8786	-9.2112	3.2147	0.0198	0.0268	-0.0077	-12.9516	20.9212	-19.5936	-0.0313	0.1332	0.5710	-0.8095
8.78	-1.8805	-9.2013	3.2171	0.0210	0.0285	-0.0077	-12.9377	21.0966	-19.4733	-0.0313	0.1333	0.5710	-0.8095
8.79	-1.8873	-9.1819	3.2170	0.0220	0.0254	-0.0093	-12.9609	20.7469	-19.4406	-0.0313	0.1333	0.5709	-0.8095
8.8	-1.8921	-9.1776	3.2214	0.0224	0.0278	-0.0114	-12.8572	20.8731	-19.3383	-0.0313	0.1334	0.5708	-0.8095
8.81	-1.9033	-9.1764	3.2243	0.0171	0.0224	-0.0076	-12.8586	21.1554	-19.7801	-0.0313	0.1334	0.5708	-0.8096
8.82	-1.9128	-9.1667	3.2215	0.0148	0.0230	-0.0060	-12.8339	21.0046	-19.7065	-0.0313	0.1335	0.5707	-0.8096
8.83	-1.9200	-9.1589	3.2180	0.0121	0.0275	-0.0115	-12.6508	21.0571	-19.6597	-0.0313	0.1336	0.5707	-0.8096
8.84	-1.9259	-9.1615	3.2182	0.0020	0.0216	-0.0101	-12.7891	21.0409	-19.6841	-0.0313	0.1336	0.5707	-0.8096
8.85	-1.9312	-9.1715	3.2209	0.0095	0.0201	-0.0143	-12.9957	21.1389	-19.5303	-0.0314	0.1336	0.5707	-0.8096
8.86	-1.9283	-9.1797	3.2147	0.0036	0.0172	-0.0165	-12.6735	20.9616	-19.6862	-0.0314	0.1336	0.5708	-0.8096
8.87	-1.9098	-9.1978	3.2091	-0.0028	0.0137	-0.0178	-12.7573	21.1983	-19.9130	-0.0314	0.1336	0.5707	-0.8095
8.88	-1.8913	-9.2065	3.2126	-0.0056	0.0141	-0.0200	-12.7796	20.7350	-19.6900	-0.0314	0.1336	0.5709	-0.8096
8.89	-1.8798	-9.2061	3.2077	-0.0018	0.0095	-0.0197	-12.7544	20.9188	-19.5594	-0.0314	0.1336	0.5709	-0.8095
8.9	-1.8662	-9.2163	3.2012	-0.0043	0.0051	-0.0100	-12.5406	21.0901	-19.8129	-0.0313	0.1335	0.5710	-0.8095
8.91	-1.8539	-9.2165	3.1979	-0.0035	0.0065	-0.0063	-12.8789	21.0229	-19.6353	-0.0313	0.1335	0.5710	-0.8094
8.92	-1.8471	-9.2196	3.1992	-0.0035	0.0071	-0.0127	-12.9599	21.0337	-19.7165	-0.0312	0.1335	0.5710	-0.8094
8.93	-1.8572	-9.2231	3.1960	-0.0047	0.0055	-0.0060	-12.7515	20.7158	-19.7469	-0.0312	0.1335	0.5711	-0.8094
8.94	-1.8650	-9.2263	3.1919	-0.0046	0.0036	-0.0027	-12.8383	20.9377	-19.4779	-0.0311	0.1335	0.5711	-0.8093
8.95	-1.8631	-9.2324	3.1854	-0.0077	0.0056	-0.0059	-12.9788	21.1629	-19.4810	-0.0310	0.1335	0.5712	-0.8094
8.96	-1.8627	-9.2248	3.1718	-0.0082	0.0083	-0.0083	-13.0375	21.2448	-19.3741	-0.0309	0.1335	0.5712	-0.8093
8.97	-1.8636	-9.2203	3.1653	-0.0054	0.0029	-0.0065	-12.7857	20.9335	-19.6742	-0.0309	0.1334	0.5713	-0.8093
8.98	-1.8658	-9.2178	3.1699	-0.0040	0.0047	-0.0049	-12.7447	21.0602	-19.5896	-0.0308	0.1334	0.5713	-0.8092
8.99	-1.8657	-9.2301	3.1762	-0.0054	0.0036	-0.0071	-12.7939	21.1096	-19.4507	-0.0307	0.1334	0.5714	-0.8092
9	-1.8520	-9.2402	3.1812	0.0068	0.0085	-0.0088	-12.8694	21.0558	-19.5546	-0.0307	0.1334	0.5714	-0.8092
9.01	-1.8394	-9.2399	3.1855	0.0049	0.0073	-0.0111	-12.5388	21.1872	-19.6023	-0.0306	0.1334	0.5714	-0.8092
9.02	-1.8419	-9.2445	3.1851	0.0088	0.0086	-0.0066	-12.8134	20.8966	-19.4634	-0.0306	0.1333	0.5714	-0.8092
9.03	-1.8413	-9.2575	3.1938	0.0079	0.0086	-0.0072	-12.9662	20.9962	-19.3599	-0.0306	0.1333	0.5714	-0.8092
9.04	-1.8413	-9.2417	3.1932	0.0144	0.0080	-0.0065	-12.5323	20.8792	-19.4638	-0.0305	0.1333	0.5714	-0.8092
9.05	-1.8487	-9.2170	3.1793	0.0080	0.0097	-0.0068	-12.7802	20.8643	-19.4950	-0.0305	0.1333	0.5713	-0.8091
9.06	-1.8514	-9.2033	3.1747	0.0027	0.0175	-0.0057	-12.9545	20.8577	-19.5870	-0.0304	0.1333	0.5714	-0.8092
9.07	-1.8597	-9.2196	3.1800	0.0090	0.0120	-0.0072	-12.8313	20.7378	-19.7364	-0.0304	0.1333	0.5714	-0.8092
9.08	-1.8667	-9.2672	3.1989	0.0154	0.0152	-0.0066	-12.7810	21.1223	-19.4931	-0.0304	0.1334	0.5714	-0.8092
9.09	-1.8689	-9.2975	3.2101	0.0186	0.0191	-0.0070	-12.3790	21.2184	-19.4901	-0.0304	0.1334	0.5714	-0.8092
9.1	-1.8564	-9.2956	3.2175	0.0242	0.0096	-0.0065	-12.6398	21.2641	-19.6739	-0.0304	0.1334	0.5713	-0.8092
9.11	-1.8328	-9.2620	3.2194	0.0291	0.0259	-0.0124	-13.3993	21.2407	-19.5887	-0.0304	0.1334	0.5713	-0.8093
9.12	-1.8168	-9.2256	3.2198	0.0247	0.0216	-0.0075	-12.7754	21.1740	-19.6074	-0.0304	0.1334	0.5712	-0.8092
9.13	-1.8198	-9.1918	3.2218	0.0325	0.0245	-0.0064	-12.7834	21.2236	-19.6265	-0.0305	0.1335	0.5712	-0.8094
9.14	-1.8479	-9.1589	3.2152	0.0222	0.0316	-0.0059	-12.8617	21.0740	-19.6869	-0.0305	0.1335	0.5711	-0.8094
9.15	-1.8898	-9.1247	3.2120	0.0208	0.0436	-0.0062	-13.0121	21.0130	-19.5631	-0.0305	0.1337	0.5711	-0.8095
9.16	-1.9342	-9.1081	3.2047	0.0206	0.0410	-0.0067	-12.9971	21.2418	-19.5715	-0.0306	0.1338	0.5710	-0.8094
9.17	-1.9685	-9.1094	3.1929	0.0150	0.0337	-0.0066	-12.9009	21.2070	-19.6746	-0.0306	0.1339	0.5709	-0.8094
9.18	-1.9865	-9.1108	3.1892	0.0001	0.0345	-0.0151	-12.9196	21.0831	-19.6605	-0.0307	0.1340	0.5710	-0.8094
9.19	-1.9894	-9.1190	3.1846	-0.0060	0.0203	-0.0157	-12.9236	21.2467	-19.6360	-0.0307	0.1340	0.5710	-0.8093
9.2	-1.9874	-9.1472	3.1873	-0.0047	0.0213	-0.0115	-12.9035	21.1927	-19.8051	-0.0307	0.1340	0.5711	-0.8094
9.21	-1.9876	-9.1780	3.1918	-0.0080	0.0048	-0.0147	-12.9527	20.9909	-19.6436	-0.0307	0.1340	0.5711	-0.8093
9.22	-1.9766	-9.2049	3.1943	-0.0096	-0.0009	-0.0130	-12.7998	21.0940	-19.5682	-0.0306	0.1339	0.5712	-0.8093
9.23	-1.9654	-9.2202	3.1941	-0.0124	-0.0110	-0.0113	-12.6068	20.8650	-19.8784	-0.0305	0.1338	0.5713	-0.8091
9.24	-1.9442	-9.2342	3.1926	-0.0053	-0.0198	-0.0054	-12.9122	20.6327	-19.6922	-0.0304	0.1337	0.5714	-0.8092
9.25	-1.9057	-9.2426	3.1933	-0.0089	-0.0266	-0.0107	-12.8894	20.9483	-19.8001	-0.0303	0.1335	0.5715	-0.8091
9.26	-1.8659	-9.2493	3.1915	-0.0119	-0.0241	-0.0116	-12.7122	20.8811	-19.5864	-0.0302	0.1334	0.5716	-0.8090
9.27	-1.8418	-9.2429	3.1790	-0.0144	-0.0233	-0.0084	-12.8605	20.8739	-19.4246	-0.0300	0.1332	0.5717	-0.8090
9.28	-1.8275	-9.2134	3.1728	-0.0087	-0.0248	-0.0063	-12.7931	21.1137	-19.5299	-0.0299	0.1331	0.5718	-0.8090
9.29	-1.8392	-9.2244	3.1788	-0.0032	-0.0162	-0.0055	-12.9123	20.9730	-19.7807	-0.0297	0.1330	0.5718	-0.8090
9.3	-1.8550	-9.2620	3.1879	-0.0068	-0.0106	-0.0015	-12.8305	20.8525	-19.6417	-0.0296	0.1329	0.5718	-0.8089
9.31	-1.8503	-9.2894	3.2003	0.0013	-0.0128	-0.0045	-12.8221	20.9849	-19.7725	-0.0295	0.1328	0.5720	-0.8090
9.32	-1.8251	-9.2839	3.1985	0.0104	-0.0210	-0.0083	-12.8164	20.9128	-19.5451	-0.0294	0.1327	0.5720	-0.8089
9.33	-1.7843	-9.2473	3.2001	0.0180	-0.0153	-0.0057	-12.8986	21.1151	-19.6483	-0.0293	0.1325	0.5720	-0.8090
9.34	-1.7605	-9.2179	3.2060	0.0223	0.0004	-0.0096	-12.9307	21.1440	-19.5783	-0.0292	0.1325	0.5719	-0.8090
9.35	-1.7683	-9.2139	3.2096	0.0199	0.0055	-0.0062	-12.8932	21.1195	-19.4080	-0.0292	0.1325	0.5718	-0.8091
9.36	-1.7862	-9.2212	3.2195	0.0160	0.0191	-0.0084	-12.9793	20.9431	-19.5906	-0.0292	0.1325	0.5718	-0.8091
9.37	-1.8151	-9.2103	3.2114	0.0225	0.0254	-0.0071	-13.0387	21.0314	-19.7896	-0.0292	0.1325	0.5717	-0.8091
9.38	-1.8332	-9.1995	3.2148	0.0200	0.0238	-0.0069	-12.8611	21.1444	-19.5013	-0.0292	0.1326	0.5717	-0.8092
9.39	-1.8406	-9.1984	3.2166	0.0195	0.0233	-0.0118	-12.8480	21.2943	-19.4871	-0.0292	0.1326	0.5716	-0.8092
9.4	-1.8452	-9.2051	3.2109	0.0177	0.0266	-0.0116	-12.9668	21.0074	-19.6722	-0.0292	0.1327	0.5716	-0.8093
9.41	-1.8557	-9.2076	3.2189	0.0144	0.0252	-0.0089	-12.7129	20.8473	-19.6292	-0.0292	0.1327	0.5715	-0.8092
9.42	-1.8683	-9.2115	3.2176	0.0166	0.0255	-0.0068	-12.6278	20.8663	-19.5602	-0.0293	0.1328	0.5715	-0.8092
9.43	-1.8776	-9.2092	3.2207	0.0099	0.0288	-0.0096	-12.6924	20.7328	-19.7030	-0.0293	0.1329	0.5715	-0.8093
9.44	-1.8899	-9.2011	3.2089	0.0097	0.0282	-0.0058	-12.8378	20.8253	-19.5333	-0.0293	0.1329	0.5715	-0.8092
9.45	-1.9009	-9.2025	3.2072	0.0135	0.0252	-0.0070	-12.8200	20.6301	-19.6718	-0.0293	0.1330	0.5715	-0.8093
9.46	-1.9111	-9.2073	3.2097	0.0084	0.0190	-0.0067	-12.7110	21.0903	-19.6299	-0.0293	0.1330	0.5714	-0.8092
9.47	-1.9115	-9.2085	3.2050	0.0048	0.0161	-0.0070	-13.0235	21.0368	-19.6943	-0.0293	0.1331	0.5715	-0.8093
9.48	-1.9061	-9.2084	3.2066	0.0114	0.0155	-0.0087	-12.9054	20.8259	-19.5165	-0.0292	0.1331	0.5714	-0.8092
9.49	-1.8932	-9.2159	3.2056	0.0123	0.0147	-0.0069	-12.9390	20.9975	-19.7363	-0.0292	0.1331	0.5714	-0.8093
9.5	-1.8881	-9.2189	3.2107	0.0210	0.0113	-0.0067	-12.8542	21.1168	-19.8640	-0.0292	0.1331	0.5714	-0.8093
9.51	-1.8729	-9.2176	3.2093	0.0162	0.0115	-0.0067	-12.8252	21.0709	-19.8544	-0.0291	0.1331	0.5713	-0.8093
9.52	-1.8671	-9.2196	3.2187	0.0137	0.0105	-0.0066	-12.7151	21.0310	-19.7075	-0.0291	0.1331	0.5713	-0.8094
9.53	-1.8669	-9.2125	3.2196	0.0184	0.0118	-0.0076	-12.7765	21.1823	-19.5427	-0.0291	0.1331	0.5712	-0.8094
9.54	-1.8699	-9.2077	3.2252	0.0166	0.0154	-0.0051	-12.8456	20.8555	-19.7484	-0.0291	0.1331	0.5712	-0.8095
9.55	-1.8880	-9.1977	3.2254	0.0155	0.0120	-0.0056	-12.8167	20.9496	-19.7611	-0.0290	0.1331	0.5711	-0.8094
9.56	-1.9051	-9.1971	3.2224	0.0126	0.0069	-0.0060	-12.9237	21.1628	-19.7148	-0.0290	0.1331	0.5712	-0.8095
9.57	-1.9143	-9.1816	3.2175	0.0141	0.0226	-0.0077	-12.7961	20.9727	-19.5177	-0.0290	0.1332	0.5711	-0.8095
9.58	-1.9212	-9.1757	3.2200	0.0181	0.0161	-0.0071	-12.7725	21.1758	-19.5955	-0.0289	0.1332	0.5711	-0.8095
9.59	-1.9237	-9.1760	3.2269	0.0224	0.0119	-0.0105	-12.2397	21.0083	-19.4507	-0.0289	0.1332	0.5710	-0.8095
9.6	-1.9145	-9.1812	3.2305	0.0201	0.0049	-0.0096	-12.5499	20.9969	-19.3948	-0.0289	0.1331	0.5709	-0.8096
9.61	-1.9021	-9.1828	3.2314	0.0216	0.0095	-0.0117	-13.2561	20.8135	-19.5572	-0.0289	0.1331	0.5709	-0.8097
9.62	-1.8874	-9.1863	3.2254	0.0217	0.0093	-0.0164	-12.6222	21.0470	-19.7654	-0.0289	0.1331	0.5708	-0.8096
9.63	-1.8750	-9.1890	3.2329	0.0189	0.0104	-0.0137	-12.6220	20.7661	-19.4869	-0.0289	0.1331	0.5708	-0.8098
9.64	-1.8682	-9.1832	3.2340	0.0118	0.0150	-0.0160	-12.6091	20.7779	-19.7133	-0.0289	0.1331	0.5708	-0.8097
9.65	-1.8594	-9.1788	3.2398	0.0182	0.0145	-0.0121	-12.7646	21.1019	-19.8008	-0.0289	0.1331	0.5708	-0.8098
9.66	-1.8591	-9.1668	3.2341	0.0194	0.0132	-0.0100	-12.8698	21.0293	-19.7806	-0.0289	0.1330	0.5706	-0.8098
9.67	-1.8681	-9.1677	3.2383	0.0060	0.0117	-0.0083	-12.8365	21.0385	-19.7571	-0.0289	0.1331	0.5707	-0.8098
9.68	-1.8766	-9.1652	3.2408	0.0093	0.0076	-0.0108	-12.7315	20.7416	-19.8471	-0.0288	0.1330	0.5707	-0.8098
9.69	-1.8901	-9.1608	3.2295	0.0034	0.0159	-0.0105	-12.8533	20.8794	-19.8050	-0.0288	0.1330	0.5706	-0.8098
9.7	-1.9017	-9.1604	3.2214	-0.0041	0.0222	-0.0070	-12.9754	20.8677	-19.6514	-0.0288	0.1331	0.5708	-0.8098
9.71	-1.9053	-9.1670	3.2069	-0.0044	0.0108	-0.0075	-12.9252	20.8836	-19.7052	-0.0287	0.1331	0.5708	-0.8097
9.72	-1.8990	-9.1741	3.2017	-0.0078	0.0193	-0.0072	-12.9933	21.0769	-19.6727	-0.0287	0.1331	0.5708	-0.8098
9.73	-1.8970	-9.1810	3.2057	-0.0085	0.0098	-0.0077	-12.7305	20.9346	-19.7011	-0.0287	0.1331	0.5708	-0.8096
9.74	-1.8931	-9.2113	3.1955	-0.0076	0.0036	-0.0104	-12.8151	20.9944	-19.6561	-0.0286	0.1331	0.5709	-0.8096
9.75	-1.8815	-9.2237	3.1954	-0.0067	0.0114	-0.0132	-12.8191	21.0349	-19.7447	-0.0286	0.1331	0.5710	-0.8096
9.76	-1.8657	-9.2248	3.1881	-0.0097	0.0024	-0.0100	-12.7434	20.8917	-19.4976	-0.0285	0.1330	0.5710	-0.8095
9.77	-1.8539	-9.2165	3.1870	-0.0048	0.0081	-0.0091	-12.7784	21.2182	-19.5160	-0.0285	0.1330	0.5711	-0.8095
9.78	-1.8495	-9.2304	3.1930	-0.0015	0.0057	-0.0072	-12.6344	20.9005	-19.7408	-0.0284	0.1330	0.5711	-0.8095
9.79	-1.8542	-9.2400	3.2024	-0.0025	0.0101	-0.0102	-12.7445	20.7366	-19.6371	-0.0284	0.1330	0.5712	-0.8095
9.8	-1.8604	-9.2303	3.2072	0.0017	0.0078	-0.0069	-12.8742	20.8742	-19.7969	-0.0284	0.1330	0.5712	-0.8094
9.81	-1.8679	-9.2236	3.1936	-0.0080	0.0041	-0.0082	-12.7264	20.8960	-19.7649	-0.0283	0.1330	0.5713	-0.8095
9.82	-1.8634	-9.2084	3.1919	-0.0034	0.0087	-0.0096	-12.6855	20.8057	-19.7847	-0.0283	0.1329	0.5713	-0.8094
9.83	-1.8587	-9.2219	3.1932	-0.0013	0.0052	-0.0067	-12.8953	20.8346	-19.7540	-0.0282	0.1329	0.5714	-0.8094
9.84	-1.8579	-9.2551	3.2012	-0.0054	0.0093	-0.0082	-12.7357	20.9766	-19.9029	-0.0282	0.1329	0.5714	-0.8093
9.85	-1.8540	-9.2783	3.2118	0.0027	0.0096	-0.0061	-12.8152	20.8438	-19.5659	-0.0281	0.1329	0.5715	-0.8093
9.86	-1.8496	-9.2860	3.2115	0.0145	0.0071	-0.0066	-12.8473	20.8844	-19.4827	-0.0281	0.1329	0.5715	-0.8093
9.87	-1.8287	-9.2716	3.2118	0.0224	0.0108	-0.0057	-12.6294	20.8816	-19.4881	-0.0281	0.1328	0.5714	-0.8093
9.88	-1.8109	-9.2350	3.2130	0.0218	0.0166	-0.0069	-12.8388	20.8498	-19.6311	-0.0281	0.1329	0.5714	-0.8094
9.89	-1.8068	-9.1996	3.2096	0.0203	0.0269	-0.0064	-12.8129	20.9412	-19.5231	-0.0281	0.1329	0.5714	-0.8094
9.9	-1.8307	-9.1784	3.2096	0.0207	0.0315	-0.0072	-12.7546	21.1700	-19.5525	-0.0281	0.1330	0.5713	-0.8095
9.91	-1.8750	-9.1648	3.2154	0.0206	0.0331	-0.0035	-12.7642	21.0316	-19.7109	-0.0281	0.1331	0.5712	-0.8094
9.92	-1.9292	-9.1501	3.2127	0.0185	0.0410	-0.0032	-12.6648	21.0495	-19.6817	-0.0282	0.1332	0.5712	-0.8095
9.93	-1.9679	-9.1315	3.2100	0.0073	0.0431	-0.0074	-12.8473	20.8930	-19.4890	-0.0282	0.1334	0.5712	-0.8094
9.94	-1.9954	-9.1261	3.2101	-0.0049	0.0317	-0.0065	-12.8746	21.1541	-19.5899	-0.0282	0.1334	0.5712	-0.8094
9.95	-2.0102	-9.1353	3.2000	-0.0062	0.0235	-0.0093	-12.7317	21.1135	-19.6897	-0.0282	0.1335	0.5713	-0.8094
9.96	-2.0139	-9.1571	3.1908	-0.0060	0.0071	-0.0083	-12.6818	21.1878	-19.7324	-0.0282	0.1335	0.5713	-0.8093
9.97	-1.9982	-9.1903	3.1916	-0.0063	0.0018	-0.0079	-12.6107	20.9567	-19.7846	-0.0281	0.1335	0.5714	-0.8093
9.98	-1.9854	-9.2188	3.1918	-0.0123	-0.0049	-0.0073	-12.5765	20.6563	-19.7853	-0.0280	0.1334	0.5714	-0.8092
9.99	-1.9676	-9.2366	3.1896	-0.0110	-0.0134	-0.0078	-12.7099	20.8296	-19.7225	-0.0279	0.1333	0.5716	-0.8092
10	-1.9351	-9.2490	3.1894	-0.0040	-0.0171	-0.0122	-12.6679	20.7589	-19.7326	-0.0279	0.1331	0.5716	-0.8092
10.01	-1.9028	-9.2490	3.1885	-0.0066	-0.0265	-0.0092	-12.6842	20.8676	-19.7224	-0.0277	0.1330	0.5717	-0.8091
10.02	-1.8655	-9.2372	3.1914	-0.0054	-0.0206	-0.0079	-12.7552	20.8882	-19.5725	-0.0276	0.1328	0.5718	-0.8091
10.03	-1.8352	-9.2247	3.1967	-0.0046	-0.0228	-0.0104	-12.9318	21.1095	-19.8592	-0.0275	0.1327	0.5718	-0.8091
10.04	-1.8287	-9.1878	3.1955	0.0053	-0.0153	-0.0070	-12.6644	20.9620	-19.6825	-0.0274	0.1326	0.5719	-0.8092
10.05	-1.8486	-9.1934	3.2028	-0.0000	-0.0166	-0.0088	-12.4452	21.0400	-19.6821	-0.0272	0.1325	0.5718	-0.8091
10.06	-1.8712	-9.2380	3.2128	-0.0050	-0.0175	-0.0069	-12.8623	20.9705	-19.6993	-0.0271	0.1324	0.5719	-0.8091
10.07	-1.8823	-9.2486	3.2180	0.0054	-0.0122	-0.0082	-12.8548	21.0583	-19.6594	-0.0270	0.1323	0.5719	-0.8091
10.08	-1.8679	-9.2305	3.2125	0.0140	-0.0068	-0.0110	-12.7931	20.8104	-19.4990	-0.0270	0.1322	0.5720	-0.8091
10.09	-1.8339	-9.2096	3.2212	0.0187	-0.0120	-0.0131	-12.2830	21.1908	-19.4065	-0.0269	0.1321	0.5719	-0.8092
10.1	-1.8094	-9.2021	3.2255	0.0209	-0.0033	-0.0139	-12.4133	21.2439	-19.2192	-0.0268	0.1320	0.5718	-0.8092
10.11	-1.8104	-9.2047	3.2326	0.0137	0.0121	-0.0082	-13.3132	21.1407	-19.5352	-0.0268	0.1320	0.5718	-0.8093
10.12	-1.8265	-9.2027	3.2322	0.0183	0.0109	-0.0084	-12.7721	21.2182	-19.5954	-0.0268	0.1320	0.5717	-0.8092
10.13	-1.8484	-9.1993	3.2344	0.0199	0.0157	-0.0067	-12.9016	21.0524	-19.5081	-0.0268	0.1320	0.5717	-0.8094
10.14	-1.8682	-9.1976	3.2367	0.0155	0.0139	-0.0091	-12.9106	21.2253	-19.7408	-0.0268	0.1320	0.5717	-0.8094
10.15	-1.8868	-9.1901	3.2374	0.0155	0.0203	-0.0094	-12.9347	21.0889	-19.6837	-0.0268	0.1320	0.5717	-0.8095
10.16	-1.8899	-9.1743	3.2419	0.0186	0.0094	-0.0131	-12.8249	20.8473	-19.5059	-0.0268	0.1320	0.5715	-0.8094
10.17	-1.8958	-9.1750	3.2411	0.0212	0.0058	-0.0097	-12.7053	20.9357	-19.7096	-0.0267	0.1320	0.5715	-0.8095
10.18	-1.8970	-9.1723	3.2427	0.0182	0.0121	-0.0062	-12.5917	20.6844	-19.8937	-0.0267	0.1320	0.5715	-0.8095
10.19	-1.8952	-9.1775	3.2333	0.0041	0.0218	-0.0072	-12.8343	20.9071	-19.9464	-0.0267	0.1320	0.5714	-0.8095
10.2	-1.8956	-9.1909	3.2309	-0.0042	0.0149	-0.0068	-12.8190	20.7119	-19.7598	-0.0267	0.1320	0.5715	-0.8095
10.21	-1.8927	-9.2017	3.2260	-0.0030	0.0153	-0.0090	-12.7163	20.8458	-19.9234	-0.0266	0.1320	0.5715	-0.8094
10.22	-1.8877	-9.2174	3.2173	-0.0010	0.0140	-0.0076	-12.7532	20.8082	-19.7572	-0.0266	0.1321	0.5716	-0.8095
10.23	-1.8776	-9.2183	3.2132	0.0014	0.0114	-0.0118	-12.7331	20.6741	-19.8005	-0.0266	0.1320	0.5715	-0.8094
10.24	-1.8682	-9.2232	3.2182	0.0010	0.0133	-0.0078	-12.7437	20.6612	-19.8049	-0.0265	0.1321	0.5716	-0.8094
10.25	-1.8583	-9.2199	3.2139	0.0145	0.0102	-0.0090	-12.7671	20.6120	-19.6847	-0.0265	0.1321	0.5716	-0.8094
10.26	-1.8479	-9.2144	3.2139	0.0186	0.0177	-0.0061	-12.9513	21.0625	-19.7420	-0.0265	0.1321	0.5715	-0.8094
10.27	-1.8532	-9.2089	3.2084	0.0078	0.0205	-0.0066	-12.7937	21.1133	-19.8336	-0.0265	0.1321	0.5715	-0.8095
10.28	-1.8648	-9.2048	3.2138	0.0198	0.0093	-0.0090	-12.8733	21.0201	-19.8215	-0.0265	0.1321	0.5714	-0.8095
10.29	-1.8734	-9.2013	3.2221	0.0161	0.0175	-0.0073	-12.9287	21.0192	-19.8302	-0.0265	0.1321	0.5714	-0.8096
10.3	-1.8827	-9.1993	3.2257	0.0131	0.0202	-0.0068	-12.9183	21.1259	-19.8212	-0.0264	0.1322	0.5713	-0.8095
10.31	-1.8953	-9.2046	3.2276	0.0124	0.0142	-0.0072	-12.7868	21.2237	-19.7382	-0.0264	0.1322	0.5714	-0.8096
10.32	-1.9060	-9.2050	3.2280	0.0101	0.0167	-0.0070	-12.7469	20.9100	-19.6824	-0.0264	0.1322	0.5713	-0.8096
10.33	-1.9134	-9.2026	3.2284	0.0186	0.0181	-0.0049	-12.9462	21.0403	-19.6035	-0.0264	0.1322	0.5713	-0.8096
10.34	-1.9153	-9.1952	3.2282	0.0164	0.0260	-0.0075	-12.8071	21.0238	-19.8438	-0.0264	0.1323	0.5712	-0.8096
10.35	-1.9167	-9.2001	3.2251	0.0139	0.0175	-0.0061	-12.7175	20.7996	-19.8344	-0.0264	0.1323	0.5712	-0.8097
10.36	-1.9211	-9.2050	3.2255	0.0078	0.0114	-0.0074	-12.5808	20.9352	-19.9672	-0.0264	0.1323	0.5712	-0.8097
10.37	-1.9203	-9.1997	3.2200	0.0180	0.0105	-0.0092	-12.8704	20.9606	-19.7957	-0.0263	0.1323	0.5711	-0.8096
10.38	-1.9157	-9.1925	3.2303	0.0109	0.0163	-0.0063	-12.6730	20.9323	-19.8521	-0.0263	0.1323	0.5711	-0.8098
10.39	-1.9216	-9.1817	3.2266	0.0179	0.0215	-0.0097	-12.5426	20.9847	-19.7600	-0.0263	0.1324	0.5711	-0.8097
10.4	-1.9287	-9.1774	3.2301	0.0193	0.0201	-0.0097	-12.5302	20.8575	-19.7217	-0.0263	0.1324	0.5711	-0.8098
10.41	-1.9337	-9.1623	3.2338	0.0174	0.0144	-0.0091	-12.7713	20.9572	-19.7222	-0.0263	0.1324	0.5709	-0.8098
10.42	-1.9416	-9.1537	3.2372	0.0155	0.0153	-0.0070	-12.7892	21.0416	-19.7649	-0.0263	0.1324	0.5709	-0.8098
10.43	-1.9440	-9.1478	3.2411	0.0212	0.0141	-0.0068	-12.5908	20.8799	-19.6363	-0.0263	0.1324	0.5709	-0.8099
10.44	-1.9479	-9.1372	3.2387	0.0023	0.0132	-0.0085	-12.7288	20.8099	-19.7279	-0.0263	0.1324	0.5708	-0.8098
10.45	-1.9471	-9.1339	3.2341	-0.0040	0.0095	-0.0066	-12.8785	21.2130	-19.7228	-0.0262	0.1324	0.5709	-0.8099
10.46	-1.9470	-9.1348	3.2376	-0.0013	0.0009	-0.0132	-12.7270	21.0014	-19.6529	-0.0262	0.1324	0.5709	-0.8098
10.47	-1.9360	-9.1408	3.2327	-0.0122	0.0026	-0.0122	-12.6645	20.9943	-19.7599	-0.0261	0.1323	0.5710	-0.8098
10.48	-1.9190	-9.1501	3.2264	-0.0082	-0.0033	-0.0113	-12.9380	21.0501	-19.7151	-0.0260	0.1322	0.5710	-0.8097
10.49	-1.8999	-9.1645	3.2273	-0.0106	0.0018	-0.0109	-12.8244	20.9376	-19.7290	-0.0260	0.1322	0.5711	-0.8097
10.5	-1.8788	-9.1789	3.2272	-0.0100	0.0022	-0.0189	-13.2892	21.0775	-19.7688	-0.0260	0.1321	0.5712	-0.8097
10.51	-1.8676	-9.2047	3.2220	-0.0139	0.0004	-0.0099	-12.9283	20.9883	-19.8702	-0.0259	0.1321	0.5713	-0.8096
10.52	-1.8683	-9.2223	3.2283	-0.0146	0.0011	-0.0074	-12.8144	21.2611	-19.6771	-0.0258	0.1320	0.5714	-0.8096
10.53	-1.8759	-9.2276	3.2333	-0.0060	0.0077	-0.0100	-12.6917	21.0368	-19.6761	-0.0258	0.1320	0.5714	-0.8095
10.54	-1.8863	-9.2178	3.2193	-0.0141	0.0056	-0.0072	-12.6206	20.8547	-19.9566	-0.0257	0.1320	0.5716	-0.8095
10.55	-1.8890	-9.2030	3.2011	-0.0111	0.0032	-0.0085	-12.7425	20.8518	-19.7900	-0.0257	0.1319	0.5716	-0.8094
10.56	-1.8725	-9.1852	3.1887	-0.0148	0.0038	-0.0068	-12.7410	20.9749	-19.9535	-0.0256	0.1319	0.5717	-0.8094
10.57	-1.8669	-9.1888	3.1884	-0.0156	0.0017	-0.0082	-12.5705	20.7576	-20.0072	-0.0255	0.1319	0.5718	-0.8093
10.58	-1.8728	-9.2393	3.1968	-0.0151	-0.0027	-0.0079	-12.5264	20.8468	-19.7227	-0.0254	0.1318	0.5719	-0.8093
10.59	-1.8857	-9.2832	3.2128	-0.0092	0.0006	-0.0077	-12.2929	20.9565	-19.6453	-0.0254	0.1318	0.5719	-0.8092
10.6	-1.8828	-9.3018	3.2112	-0.0068	0.0042	-0.0081	-12.4997	21.0061	-19.5495	-0.0253	0.1317	0.5720	-0.8092
10.61	-1.8661	-9.2827	3.2034	0.0025	0.0016	-0.0113	-13.3283	21.2869	-19.6215	-0.0253	0.1317	0.5721	-0.8092
10.62	-1.8513	-9.2558	3.1949	0.0100	0.0041	-0.0103	-12.7064	21.1694	-19.6564	-0.0253	0.1316	0.5721	-0.8091
10.63	-1.8478	-9.2293	3.1901	0.0151	0.0103	-0.0103	-12.8306	21.1170	-19.5641	-0.0253	0.1316	0.5721	-0.8092
10.64	-1.8615	-9.2102	3.1920	0.0142	0.0191	-0.0065	-12.7337	21.1108	-19.8041	-0.0253	0.1316	0.5721	-0.8092
10.65	-1.8884	-9.1900	3.1867	0.0162	0.0306	-0.0067	-12.8467	20.9223	-19.7228	-0.0253	0.1317	0.5721	-0.8093
10.66	-1.9200	-9.1728	3.1924	0.0133	0.0253	-0.0068	-12.8680	21.0541	-19.5852	-0.0253	0.1317	0.5720	-0.8092
10.67	-1.9504	-9.1626	3.1887	0.0160	0.0248	-0.0064	-12.8453	21.0070	-19.8668	-0.0253	0.1318	0.5720	-0.8092
10.68	-1.9552	-9.1528	3.1923	0.0057	0.0251	-0.0090	-12.6960	20.9069	-19.6975	-0.0253	0.1319	0.5719	-0.8092
10.69	-1.9526	-9.1516	3.1973	0.0021	0.0143	-0.0132	-12.6602	21.0383	-19.7056	-0.0253	0.1319	0.5719	-0.8092
10.7	-1.9477	-9.1622	3.2032	-0.0022	0.0157	-0.0195	-12.7922	21.0365	-19.6892	-0.0253	0.1319	0.5720	-0.8093
10.71	-1.9409	-9.1776	3.2075	-0.0058	0.0123	-0.0134	-12.7523	21.0331	-19.5863	-0.0253	0.1318	0.5720	-0.8092
10.72	-1.9474	-9.1930	3.1995	-0.0061	0.0068	-0.0060	-12.7956	21.0578	-19.6499	-0.0253	0.1318	0.5721	-0.8092
10.73	-1.9477	-9.2087	3.1897	-0.0087	0.0031	-0.0104	-12.5876	20.9421	-19.9078	-0.0252	0.1318	0.5721	-0.8091
10.74	-1.9423	-9.2239	3.1833	-0.0100	-0.0012	-0.0105	-12.3502	20.8358	-19.9539	-0.0251	0.1317	0.5722	-0.8091
10.75	-1.9425	-9.2339	3.1844	-0.0033	-0.0067	-0.0071	-12.6648	21.0546	-19.8680	-0.0251	0.1317	0.5723	-0.8090
10.76	-1.9278	-9.2419	3.1816	-0.0056	-0.0111	-0.0079	-12.6122	20.9468	-19.8397	-0.0250	0.1316	0.5723	-0.8090
10.77	-1.9163	-9.2394	3.1845	-0.0059	-0.0159	-0.0079	-12.4831	20.9595	-19.6465	-0.0249	0.1314	0.5724	-0.8090
10.78	-1.9006	-9.2275	3.1773	-0.0030	-0.0155	-0.0078	-12.6177	21.1747	-19.7603	-0.0248	0.1313	0.5725	-0.8089
10.79	-1.8895	-9.2093	3.1788	-0.0043	-0.0118	-0.0070	-12.5678	20.8590	-19.7889	-0.0246	0.1312	0.5725	-0.8090
10.8	-1.8905	-9.2392	3.1864	-0.0070	-0.0122	-0.0081	-12.6755	20.8519	-19.7827	-0.0245	0.1311	0.5726	-0.8088
10.81	-1.8826	-9.2652	3.1953	-0.0005	-0.0174	-0.0079	-12.6979	21.0711	-19.8980	-0.0244	0.1310	0.5727	-0.8089
10.82	-1.8627	-9.2488	3.2085	0.0161	-0.0118	-0.0074	-12.7836	21.0269	-19.5711	-0.0244	0.1309	0.5726	-0.8089
10.83	-1.8263	-9.2069	3.2071	0.0223	-0.0101	-0.0097	-12.7569	21.3228	-19.7106	-0.0243	0.1308	0.5726	-0.8090
10.84	-1.7897	-9.1835	3.2190	0.0202	-0.0040	-0.0091	-12.7630	21.1089	-19.6904	-0.0242	0.1307	0.5725	-0.8090
10.85	-1.7953	-9.1780	3.2362	0.0211	0.0106	-0.0087	-12.6556	20.8855	-19.8393	-0.0242	0.1307	0.5725	-0.8091
10.86	-1.8290	-9.1810	3.2325	0.0175	0.0265	-0.0060	-12.8855	21.2454	-19.6946	-0.0242	0.1308	0.5724	-0.8091
10.87	-1.8614	-9.1772	3.2400	0.0153	0.0247	-0.0060	-12.7501	21.0404	-19.7954	-0.0242	0.1308	0.5723	-0.8091
10.88	-1.9010	-9.1718	3.2444	0.0234	0.0266	-0.0093	-12.7906	20.8323	-19.7654	-0.0242	0.1309	0.5723	-0.8092
10.89	-1.9268	-9.1653	3.2416	0.0163	0.0314	-0.0113	-12.8678	21.0015	-19.6877	-0.0243	0.1310	0.5722	-0.8092
10.9	-1.9384	-9.1576	3.2323	0.0211	0.0350	-0.0103	-12.8794	21.1151	-19.6850	-0.0243	0.1311	0.5722	-0.8093
10.91	-1.9473	-9.1539	3.2359	0.0085	0.0237	-0.0116	-12.6617	21.1228	-19.8215	-0.0243	0.1311	0.5721	-0.8092
10.92	-1.9522	-9.1480	3.2326	-0.0055	0.0162	-0.0088	-12.4430	20.9120	-19.8519	-0.0243	0.1311	0.5722	-0.8092
10.93	-1.9629	-9.1461	3.2230	-0.0050	0.0206	-0.0129	-12.3916	21.1381	-19.8144	-0.0243	0.1311	0.5722	-0.8092
10.94	-1.9616	-9.1555	3.2202	-0.0035	0.0174	-0.0091	-12.8133	20.7652	-19.9436	-0.0243	0.1312	0.5722	-0.8091
10.95	-1.9584	-9.1641	3.2109	-0.0029	0.0121	-0.0141	-12.6273	20.7709	-19.5177	-0.0243	0.1312	0.5723	-0.8092
10.96	-1.9421	-9.1768	3.2043	-0.0093	0.0111	-0.0115	-12.4996	21.0737	-19.8381	-0.0243	0.1311	0.5723	-0.8091
10.97	-1.9219	-9.1944	3.2013	-0.0103	0.0042	-0.0067	-12.6256	21.1572	-19.8790	-0.0242	0.1311	0.5724	-0.8091
10.98	-1.9023	-9.2206	3.1928	-0.0064	0.0072	-0.0079	-12.5558	21.0341	-19.5455	-0.0242	0.1311	0.5724	-0.8090
10.99	-1.8882	-9.2480	3.1945	-0.0084	0.0084	-0.0072	-12.8407	20.9129	-19.7900	-0.0241	0.1311	0.5725	-0.8090
11	-1.8774	-9.2651	3.1927	-0.0059	0.0043	-0.0074	-12.5181	21.0121	-19.8896	-0.0241	0.1310	0.5726	-0.8089
11.01	-1.8759	-9.2660	3.1918	-0.0050	0.0092	-0.0064	-12.5368	21.0403	-19.6565	-0.0240	0.1310	0.5727	-0.8089
11.02	-1.8760	-9.2631	3.1927	0.0041	0.0174	-0.0064	-12.8243	21.1277	-19.7456	-0.0240	0.1310	0.5727	-0.8089
11.03	-1.8832	-9.2523	3.1990	0.0066	0.0162	-0.0062	-12.8372	21.1214	-19.6369	-0.0240	0.1311	0.5727	-0.8088
11.04	-1.8959	-9.2337	3.1934	0.0118	0.0163	-0.0063	-12.6980	21.1275	-19.6551	-0.0240	0.1311	0.5728	-0.8089
11.05	-1.9139	-9.2176	3.1999	0.0212	0.0213	-0.0060	-12.5771	21.0536	-19.7934	-0.0240	0.1311	0.5726	-0.8088
11.06	-1.9380	-9.2075	3.2074	0.0175	0.0233	-0.0058	-12.5999	20.9015	-19.8120	-0.0240	0.1312	0.5726	-0.8089
11.07	-1.9530	-9.1926	3.2087	0.0203	0.0211	-0.0066	-12.7252	21.0280	-19.7086	-0.0240	0.1312	0.5725	-0.8090
11.08	-1.9586	-9.1826	3.2130	0.0141	0.0153	-0.0067	-12.5175	20.9717	-19.4875	-0.0240	0.1312	0.5725	-0.8090
11.09	-1.9627	-9.1784	3.2205	0.0214	0.0137	-0.0063	-11.9351	20.9387	-19.5154	-0.0239	0.1312	0.5724	-0.8090
11.1	-1.9551	-9.1747	3.2210	0.0187	0.0147	-0.0083	-12.0312	21.1079	-19.4759	-0.0239	0.1313	0.5724	-0.8091
11.11	-1.9467	-9.1714	3.2225	0.0175	0.0096	-0.0143	-12.7745	21.0208	-19.8072	-0.0239	0.1312	0.5723	-0.8091
11.12	-1.9419	-9.1644	3.2244	0.0211	0.0109	-0.0104	-12.4071	21.2221	-19.6294	-0.0239	0.1312	0.5722	-0.8091
11.13	-1.9381	-9.1608	3.2341	0.0183	0.0061	-0.0078	-12.5532	21.0632	-19.7260	-0.0239	0.1312	0.5722	-0.8093
11.14	-1.9381	-9.1572	3.2355	0.0112	0.0093	-0.0107	-12.5774	20.7956	-19.6834	-0.0238	0.1312	0.5722	-0.8092
11.15	-1.9306	-9.1534	3.2328	0.0127	0.0081	-0.0140	-12.5662	20.9646	-19.8132	-0.0238	0.1312	0.5722	-0.8093
11.16	-1.9296	-9.1495	3.2349	0.0079	0.0065	-0.0108	-12.5662	20.9731	-19.7128	-0.0238	0.1311	0.5721	-0.8092
11.17	-1.9287	-9.1487	3.2405	0.0003	0.0025	-0.0104	-12.5670	20.8153	-19.5996	-0.0237	0.1311	0.5721	-0.8093
11.18	-1.9294	-9.1398	3.2363	-0.0015	0.0056	-0.0098	-12.7646	20.9743	-19.6229	-0.0237	0.1311	0.5722	-0.8093
11.19	-1.9297	-9.1388	3.2340	-0.0062	0.0041	-0.0095	-12.6534	20.8357	-19.6942	-0.0236	0.1310	0.5722	-0.8092
11.2	-1.9189	-9.1513	3.2287	-0.0086	0.0134	-0.0224	-12.7623	21.1191	-19.7457	-0.0237	0.1310	0.5723	-0.8093
11.21	-1.9071	-9.1551	3.2217	-0.0251	0.0126	-0.0176	-12.8596	21.1990	-19.5466	-0.0237	0.1310	0.5724	-0.8091
11.22	-1.8982	-9.1689	3.2125	-0.0310	0.0056	-0.0131	-12.8151	21.1672	-19.5874	-0.0236	0.1310	0.5725	-0.8091
11.23	-1.8940	-9.1838	3.2000	-0.0303	0.0062	-0.0152	-12.8552	21.2509	-19.7522	-0.0236	0.1309	0.5726	-0.8089
11.24	-1.8872	-9.1968	3.1867	-0.0288	0.0055	-0.0129	-12.7894	21.2058	-19.5837	-0.0235	0.1309	0.5728	-0.8089
11.25	-1.8792	-9.2049	3.1794	-0.0254	0.0079	-0.0174	-12.9351	21.2122	-19.6944	-0.0235	0.1308	0.5729	-0.8088
