time	acceleration_x	acceleration_y	acceleration_z	gyroscope_x	gyroscope_y	gyroscope_z	magnetometer_x	magnetometer_y	magnetometer_z	quaternion_w	quaternion_x	quaternion_y	quaternion_z
0	-8.3037	-0.4169	4.5851	0.0094	-0.0169	-0.0508	18.5226	3.2898	-18.4872	0.1019	-0.5072	0.0098	0.8557
0.01	-8.3119	-0.4111	4.5937	0.0085	-0.0140	-0.0517	18.4941	3.2098	-18.5524	0.1020	-0.5072	0.0099	0.8557
0.02	-8.3139	-0.4033	4.5948	0.0071	-0.0194	-0.0536	18.5353	3.4245	-18.6171	0.1021	-0.5072	0.0100	0.8558
0.03	-8.3145	-0.4058	4.6061	-0.0008	-0.0220	-0.0565	18.4160	3.3052	-18.6075	0.1022	-0.5071	0.0100	0.8557
0.04	-8.3051	-0.4177	4.6069	0.0014	-0.0245	-0.0551	18.6141	3.2257	-18.5814	0.1023	-0.5071	0.0101	0.8558
0.05	-8.2795	-0.4217	4.6019	0.0068	-0.0225	-0.0542	18.4901	3.0391	-18.6477	0.1024	-0.5070	0.0102	0.8558
0.06	-8.2698	-0.4227	4.6179	-0.0003	-0.0147	-0.0540	18.7149	3.1426	-18.4256	0.1025	-0.5070	0.0103	0.8559
0.07	-8.2741	-0.4186	4.6108	-0.0038	-0.0120	-0.0576	18.8179	3.0379	-18.4989	0.1026	-0.5069	0.0104	0.8557
0.08	-8.2490	-0.4173	4.6110	-0.0127	-0.0030	-0.0524	18.8591	2.8552	-18.6086	0.1026	-0.5070	0.0104	0.8558
0.09	-8.2402	-0.4077	4.6027	-0.0135	0.0063	-0.0537	18.8745	3.1971	-18.6300	0.1027	-0.5070	0.0104	0.8557
0.1	-8.2422	-0.4059	4.6036	-0.0143	0.0041	-0.0421	18.4863	3.0156	-18.7402	0.1027	-0.5071	0.0105	0.8556
0.11	-8.2572	-0.4110	4.6043	-0.0190	0.0047	-0.0448	18.7133	3.1723	-18.5350	0.1027	-0.5072	0.0105	0.8557
0.12	-8.2833	-0.4232	4.6042	-0.0166	0.0190	-0.0466	18.8324	3.2311	-18.8372	0.1027	-0.5073	0.0105	0.8555
0.13	-8.3043	-0.4382	4.6017	-0.0256	0.0176	-0.0442	18.6230	3.0069	-18.5719	0.1027	-0.5075	0.0106	0.8555
0.14	-8.3236	-0.4454	4.5897	-0.0217	0.0220	-0.0519	18.7263	3.2374	-18.3936	0.1027	-0.5075	0.0106	0.8553
0.15	-8.3303	-0.4568	4.5806	-0.0297	0.0201	-0.0515	18.8749	3.4454	-18.2913	0.1027	-0.5077	0.0105	0.8553
0.16	-8.3409	-0.4686	4.5825	-0.0245	0.0168	-0.0492	18.9154	3.2020	-18.2414	0.1027	-0.5079	0.0105	0.8552
0.17	-8.3416	-0.4773	4.5700	-0.0158	0.0151	-0.0488	18.9366	3.3287	-18.4071	0.1027	-0.5080	0.0106	0.8551
0.18	-8.3325	-0.4779	4.5620	-0.0161	0.0153	-0.0479	18.8634	3.3551	-18.2957	0.1027	-0.5081	0.0106	0.8551
0.19	-8.3239	-0.4721	4.5472	-0.0155	0.0171	-0.0464	18.8039	3.4757	-18.4819	0.1028	-0.5082	0.0107	0.8550
0.2	-8.3104	-0.4667	4.5509	-0.0143	0.0127	-0.0545	18.7610	3.3301	-18.4090	0.1028	-0.5083	0.0107	0.8550
0.21	-8.3222	-0.4617	4.5534	-0.0140	0.0155	-0.0527	18.7026	3.1718	-18.3556	0.1029	-0.5084	0.0107	0.8548
0.22	-8.3344	-0.4682	4.5518	-0.0130	0.0145	-0.0474	18.8422	3.0933	-18.3662	0.1029	-0.5086	0.0108	0.8548
0.23	-8.3385	-0.4641	4.5508	-0.0067	0.0175	-0.0437	18.6336	3.1097	-18.4021	0.1029	-0.5087	0.0109	0.8547
0.24	-8.3428	-0.4491	4.5461	-0.0122	0.0241	-0.0433	18.9504	3.0841	-18.5088	0.1029	-0.5088	0.0109	0.8547
0.25	-8.3403	-0.4380	4.5335	-0.0148	0.0141	-0.0511	19.2045	3.2180	-18.3192	0.1030	-0.5089	0.0110	0.8545
0.26	-8.3506	-0.4333	4.5270	-0.0175	0.0128	-0.0520	19.1526	3.1588	-18.4360	0.1030	-0.5090	0.0110	0.8545
0.27	-8.3741	-0.4270	4.5199	-0.0158	0.0204	-0.0462	18.9659	3.0808	-18.6016	0.1030	-0.5092	0.0110	0.8544
0.28	-8.3726	-0.4254	4.5096	-0.0175	0.0152	-0.0448	18.7786	3.1181	-18.1063	0.1030	-0.5092	0.0111	0.8543
0.29	-8.3810	-0.4191	4.5067	-0.0169	0.0106	-0.0461	18.8427	3.0920	-18.4757	0.1030	-0.5094	0.0111	0.8543
0.3	-8.3821	-0.4128	4.4946	-0.0173	0.0115	-0.0500	19.0617	2.9713	-18.5093	0.1031	-0.5095	0.0111	0.8542
0.31	-8.3763	-0.4141	4.4898	-0.0174	0.0077	-0.0537	18.8649	3.1072	-18.5003	0.1031	-0.5096	0.0112	0.8542
0.32	-8.3769	-0.4160	4.4923	-0.0187	0.0065	-0.0477	19.1076	3.0842	-18.5951	0.1031	-0.5096	0.0112	0.8541
0.33	-8.3981	-0.4202	4.4977	-0.0185	0.0124	-0.0478	19.0477	3.2689	-18.2597	0.1031	-0.5098	0.0112	0.8541
0.34	-8.4003	-0.4454	4.4890	-0.0192	0.0062	-0.0508	18.5983	3.3911	-18.1571	0.1031	-0.5098	0.0112	0.8540
0.35	-8.3945	-0.4428	4.4895	-0.0184	0.0096	-0.0589	18.7854	3.0587	-18.2680	0.1032	-0.5099	0.0112	0.8539
0.36	-8.4243	-0.4402	4.4765	-0.0148	0.0143	-0.0539	19.0365	3.2399	-18.3897	0.1033	-0.5101	0.0112	0.8539
0.37	-8.4063	-0.4300	4.4700	-0.0172	0.0059	-0.0599	19.0958	3.1284	-18.3501	0.1033	-0.5101	0.0113	0.8538
0.38	-8.3690	-0.4328	4.4624	-0.0226	-0.0009	-0.0598	18.8093	3.1422	-18.1646	0.1034	-0.5102	0.0112	0.8538
0.39	-8.4160	-0.4570	4.4787	-0.0155	0.0020	-0.0615	18.8991	3.3075	-18.2838	0.1035	-0.5102	0.0112	0.8537
0.4	-8.4452	-0.4748	4.4927	-0.0277	0.0011	-0.0625	19.0126	3.2603	-18.5039	0.1035	-0.5103	0.0112	0.8537
0.41	-8.4244	-0.4994	4.4878	-0.0306	-0.0078	-0.0570	18.8246	3.3027	-18.4448	0.1035	-0.5103	0.0111	0.8537
0.42	-8.4013	-0.5371	4.4761	-0.0213	-0.0048	-0.0459	19.0834	3.2049	-18.4816	0.1035	-0.5103	0.0111	0.8536
0.43	-8.3835	-0.5530	4.4671	-0.0179	-0.0156	-0.0405	19.1661	3.0901	-18.3449	0.1035	-0.5104	0.0111	0.8537
0.44	-8.3720	-0.5315	4.4613	-0.0074	-0.0140	-0.0371	19.2007	3.1175	-18.3804	0.1035	-0.5103	0.0112	0.8536
0.45	-8.3582	-0.4827	4.4523	-0.0037	-0.0054	-0.0361	19.2920	3.3004	-18.3484	0.1035	-0.5104	0.0113	0.8537
0.46	-8.3577	-0.4324	4.4470	-0.0107	-0.0090	-0.0363	19.1733	3.1890	-18.4649	0.1035	-0.5103	0.0114	0.8535
0.47	-8.3852	-0.4210	4.4406	-0.0023	0.0004	-0.0368	19.0392	3.0960	-18.4570	0.1035	-0.5105	0.0115	0.8536
0.48	-8.3921	-0.4229	4.4389	-0.0024	-0.0078	-0.0418	18.9796	3.2451	-18.2977	0.1035	-0.5105	0.0116	0.8536
0.49	-8.3896	-0.4216	4.4395	-0.0094	-0.0028	-0.0467	18.7066	3.0906	-18.2584	0.1035	-0.5105	0.0117	0.8536
0.5	-8.4115	-0.4209	4.4366	-0.0084	-0.0117	-0.0498	18.8405	3.1964	-18.3837	0.1036	-0.5105	0.0118	0.8535
0.51	-8.4122	-0.4181	4.4373	-0.0036	-0.0090	-0.0468	18.8805	3.1963	-18.3628	0.1036	-0.5105	0.0118	0.8535
0.52	-8.4139	-0.4209	4.4366	0.0003	-0.0079	-0.0591	18.6026	3.1802	-18.3856	0.1037	-0.5106	0.0119	0.8535
0.53	-8.4237	-0.4182	4.4336	-0.0040	-0.0109	-0.0599	18.7009	3.2005	-18.2886	0.1038	-0.5105	0.0119	0.8534
0.54	-8.4297	-0.4223	4.4372	-0.0116	-0.0129	-0.0624	18.9749	3.2717	-18.2582	0.1039	-0.5106	0.0120	0.8535
0.55	-8.4341	-0.4327	4.4410	-0.0170	-0.0156	-0.0600	18.9440	3.1840	-18.3238	0.1040	-0.5105	0.0119	0.8534
0.56	-8.4382	-0.4406	4.4421	-0.0163	-0.0239	-0.0621	18.9083	3.4031	-18.4074	0.1040	-0.5106	0.0119	0.8535
0.57	-8.4261	-0.4436	4.4493	-0.0169	-0.0237	-0.0630	18.7974	3.2449	-18.2623	0.1041	-0.5104	0.0119	0.8534
0.58	-8.4246	-0.4448	4.4729	-0.0167	-0.0275	-0.0557	18.7365	3.5542	-18.2932	0.1042	-0.5104	0.0119	0.8535
0.59	-8.4330	-0.4426	4.4786	-0.0184	-0.0224	-0.0489	19.0241	3.2794	-18.2778	0.1042	-0.5104	0.0119	0.8535
0.6	-8.4219	-0.4385	4.4774	-0.0218	-0.0325	-0.0414	18.9605	3.0813	-18.2659	0.1041	-0.5103	0.0119	0.8535
0.61	-8.4165	-0.4430	4.4872	-0.0178	-0.0329	-0.0372	19.1150	3.1085	-18.3857	0.1041	-0.5103	0.0119	0.8537
0.62	-8.4081	-0.4533	4.4908	-0.0169	-0.0293	-0.0363	19.1865	3.1217	-18.3456	0.1041	-0.5102	0.0120	0.8537
0.63	-8.3904	-0.4718	4.4812	-0.0219	-0.0298	-0.0376	19.1570	3.0394	-18.1745	0.1040	-0.5101	0.0120	0.8538
0.64	-8.3234	-0.4725	4.4765	-0.0163	-0.0304	-0.0353	19.1783	3.0067	-18.1829	0.1040	-0.5100	0.0120	0.8537
0.65	-8.3830	-0.4782	4.4988	-0.0156	-0.0291	-0.0413	19.2647	3.1328	-18.2854	0.1040	-0.5100	0.0121	0.8538
0.66	-8.4005	-0.4884	4.5054	-0.0176	-0.0323	-0.0456	19.4400	3.1011	-18.0973	0.1040	-0.5099	0.0121	0.8538
0.67	-8.3308	-0.5016	4.5036	-0.0159	-0.0394	-0.0428	19.0648	3.0994	-18.0791	0.1040	-0.5098	0.0121	0.8539
0.68	-8.3035	-0.5404	4.5061	-0.0170	-0.0355	-0.0564	18.8793	3.2461	-18.1385	0.1040	-0.5097	0.0121	0.8540
0.69	-8.3161	-0.5498	4.5306	0.0020	-0.0338	-0.0521	18.6802	2.9998	-18.3122	0.1041	-0.5096	0.0122	0.8540
0.7	-8.3196	-0.5144	4.5489	0.0098	-0.0317	-0.0500	18.6500	2.9765	-18.3788	0.1042	-0.5095	0.0123	0.8541
0.71	-8.2815	-0.4630	4.5526	0.0098	-0.0223	-0.0493	18.7298	3.2769	-18.5335	0.1042	-0.5094	0.0124	0.8540
0.72	-8.2843	-0.4306	4.5640	0.0097	-0.0206	-0.0529	18.7061	3.3121	-18.4932	0.1043	-0.5094	0.0125	0.8541
0.73	-8.2933	-0.4155	4.5606	0.0096	-0.0166	-0.0518	18.8297	3.2248	-18.5513	0.1044	-0.5094	0.0127	0.8541
0.74	-8.2889	-0.4053	4.5443	0.0093	-0.0145	-0.0514	18.7791	3.5114	-18.4042	0.1045	-0.5094	0.0128	0.8541
0.75	-8.3017	-0.4143	4.5329	0.0035	-0.0047	-0.0536	18.8099	3.5099	-18.5593	0.1046	-0.5094	0.0129	0.8540
0.76	-8.3154	-0.4062	4.5228	-0.0090	-0.0006	-0.0581	18.6594	3.2416	-18.4372	0.1047	-0.5095	0.0129	0.8540
0.77	-8.3602	-0.3936	4.5240	-0.0076	0.0016	-0.0509	18.7765	3.2768	-18.5268	0.1047	-0.5095	0.0130	0.8540
0.78	-8.3826	-0.4015	4.5158	-0.0043	0.0012	-0.0508	18.8168	3.4406	-18.6512	0.1048	-0.5096	0.0130	0.8538
0.79	-8.3833	-0.4058	4.5113	-0.0153	-0.0078	-0.0586	18.6675	3.2959	-18.5839	0.1049	-0.5097	0.0131	0.8539
0.8	-8.3711	-0.4233	4.5025	-0.0159	-0.0084	-0.0516	18.9070	2.9123	-18.4472	0.1049	-0.5096	0.0131	0.8539
0.81	-8.3398	-0.4563	4.4978	-0.0160	-0.0100	-0.0552	18.7734	3.1539	-18.4119	0.1049	-0.5097	0.0131	0.8539
0.82	-8.3449	-0.4841	4.5017	-0.0169	-0.0005	-0.0490	18.9934	3.0643	-18.3295	0.1049	-0.5097	0.0131	0.8538
0.83	-8.3536	-0.5005	4.4955	-0.0155	-0.0013	-0.0448	19.0551	2.9634	-18.3100	0.1049	-0.5098	0.0131	0.8538
0.84	-8.3577	-0.4943	4.5022	-0.0171	-0.0045	-0.0459	18.7349	2.9655	-18.7236	0.1049	-0.5098	0.0132	0.8538
0.85	-8.3626	-0.4948	4.4997	-0.0093	0.0038	-0.0457	18.5990	3.0569	-18.5177	0.1050	-0.5099	0.0132	0.8537
0.86	-8.3746	-0.4921	4.4923	-0.0114	-0.0001	-0.0434	18.7304	3.0599	-18.4123	0.1050	-0.5100	0.0133	0.8537
0.87	-8.3906	-0.4832	4.4890	-0.0053	-0.0024	-0.0440	18.9518	3.2329	-18.5250	0.1050	-0.5100	0.0134	0.8536
0.88	-8.3930	-0.4683	4.4730	0.0014	-0.0022	-0.0467	18.7876	3.1830	-18.3313	0.1050	-0.5101	0.0135	0.8536
0.89	-8.3982	-0.4531	4.4600	0.0033	0.0026	-0.0511	18.7978	3.1278	-18.6732	0.1051	-0.5101	0.0136	0.8535
0.9	-8.4170	-0.4291	4.4603	0.0013	-0.0030	-0.0556	18.8972	3.3915	-18.2890	0.1052	-0.5102	0.0137	0.8535
0.91	-8.4320	-0.4032	4.4686	0.0008	-0.0079	-0.0473	18.7132	3.2658	-18.3025	0.1052	-0.5102	0.0138	0.8535
0.92	-8.4320	-0.3967	4.4679	0.0076	-0.0184	-0.0492	18.7006	3.2084	-18.5554	0.1053	-0.5101	0.0139	0.8535
0.93	-8.4169	-0.3987	4.4699	-0.0058	-0.0197	-0.0551	18.7116	3.3703	-18.4866	0.1054	-0.5101	0.0139	0.8535
0.94	-8.3930	-0.4059	4.4675	-0.0008	-0.0158	-0.0589	18.6980	3.2644	-18.5464	0.1055	-0.5101	0.0140	0.8535
0.95	-8.4069	-0.4015	4.4744	-0.0137	-0.0163	-0.0582	18.7257	3.2609	-18.4457	0.1056	-0.5101	0.0140	0.8535
0.96	-8.4145	-0.3999	4.4762	-0.0151	-0.0126	-0.0575	18.6033	3.1234	-18.3303	0.1056	-0.5101	0.0140	0.8534
0.97	-8.4262	-0.3998	4.4830	-0.0157	-0.0264	-0.0495	18.7363	3.2117	-18.3042	0.1056	-0.5101	0.0140	0.8535
0.98	-8.4151	-0.3933	4.4790	-0.0170	-0.0235	-0.0490	18.6591	3.0050	-18.3819	0.1056	-0.5100	0.0140	0.8535
0.99	-8.3991	-0.3997	4.4755	-0.0154	-0.0228	-0.0523	18.8914	3.1106	-18.4310	0.1057	-0.5100	0.0141	0.8536
1	-8.3823	-0.4021	4.4802	-0.0150	-0.0265	-0.0468	19.2392	3.1755	-18.3324	0.1057	-0.5099	0.0141	0.8536
1.01	-8.3840	-0.4146	4.4853	-0.0226	-0.0289	-0.0499	19.0333	2.8039	-18.2639	0.1057	-0.5099	0.0141	0.8536
1.02	-8.3905	-0.4145	4.4838	-0.0225	-0.0359	-0.0486	18.8118	3.1538	-18.2918	0.1057	-0.5098	0.0140	0.8537
1.03	-8.3716	-0.4120	4.4904	-0.0249	-0.0382	-0.0478	19.0119	3.2132	-18.6679	0.1057	-0.5097	0.0140	0.8536
1.04	-8.3708	-0.4258	4.5056	-0.0337	-0.0348	-0.0491	18.7442	3.3771	-18.3451	0.1057	-0.5097	0.0140	0.8538
1.05	-8.3654	-0.4243	4.5143	-0.0316	-0.0389	-0.0489	18.6876	3.4053	-18.3608	0.1056	-0.5095	0.0139	0.8538
1.06	-8.3488	-0.4378	4.5228	-0.0352	-0.0398	-0.0505	18.7657	3.2257	-18.5117	0.1056	-0.5095	0.0138	0.8540
1.07	-8.3377	-0.4510	4.5294	-0.0315	-0.0335	-0.0489	18.9004	3.2504	-18.5214	0.1056	-0.5093	0.0138	0.8539
1.08	-8.3276	-0.4613	4.5235	-0.0303	-0.0364	-0.0520	18.9940	3.3429	-18.4928	0.1056	-0.5093	0.0137	0.8540
1.09	-8.3027	-0.4616	4.5228	-0.0352	-0.0276	-0.0536	18.7509	3.3277	-18.3780	0.1056	-0.5092	0.0136	0.8540
1.1	-8.3078	-0.4552	4.5304	-0.0371	-0.0232	-0.0544	18.6660	3.3214	-18.5258	0.1056	-0.5092	0.0135	0.8540
1.11	-8.3205	-0.4615	4.5348	-0.0186	-0.0231	-0.0547	18.8461	3.3413	-18.5087	0.1056	-0.5092	0.0135	0.8541
1.12	-8.3120	-0.4608	4.5368	-0.0201	-0.0188	-0.0532	18.7308	3.3006	-18.3809	0.1056	-0.5092	0.0135	0.8540
1.13	-8.3051	-0.4510	4.5325	-0.0144	-0.0144	-0.0524	18.7158	3.4164	-18.5031	0.1057	-0.5092	0.0135	0.8541
1.14	-8.3134	-0.4567	4.5290	-0.0224	-0.0159	-0.0552	18.6610	3.3191	-18.5407	0.1057	-0.5091	0.0135	0.8540
1.15	-8.3372	-0.4711	4.5315	-0.0224	-0.0132	-0.0552	19.1299	3.4625	-18.2448	0.1057	-0.5092	0.0135	0.8541
1.16	-8.3151	-0.4619	4.5297	-0.0150	-0.0138	-0.0430	19.4041	3.5042	-18.1038	0.1057	-0.5092	0.0135	0.8540
1.17	-8.3323	-0.4577	4.5288	-0.0203	-0.0179	-0.0447	19.2735	3.3044	-18.2073	0.1057	-0.5092	0.0135	0.8540
1.18	-8.3268	-0.4395	4.5303	-0.0173	-0.0124	-0.0418	19.2662	3.3380	-18.3624	0.1057	-0.5092	0.0136	0.8541
1.19	-8.3288	-0.4558	4.5235	-0.0191	-0.0108	-0.0406	18.8296	3.2531	-18.2397	0.1057	-0.5092	0.0136	0.8540
1.2	-8.3506	-0.4641	4.5247	-0.0209	-0.0067	-0.0425	19.1150	2.9525	-18.5664	0.1056	-0.5093	0.0136	0.8540
1.21	-8.3587	-0.4680	4.5121	-0.0187	-0.0030	-0.0458	19.0230	3.2313	-18.3616	0.1056	-0.5092	0.0136	0.8539
1.22	-8.3415	-0.4775	4.4963	-0.0156	-0.0070	-0.0454	19.0331	3.2802	-18.3556	0.1056	-0.5093	0.0137	0.8540
1.23	-8.3387	-0.4765	4.4980	-0.0190	-0.0047	-0.0434	18.9924	3.1760	-18.3625	0.1056	-0.5094	0.0137	0.8539
1.24	-8.3555	-0.4720	4.4940	-0.0108	0.0002	-0.0483	19.1234	3.2231	-18.3687	0.1056	-0.5094	0.0138	0.8539
1.25	-8.3738	-0.4549	4.4866	0.0005	-0.0026	-0.0520	19.0799	3.1029	-18.2569	0.1057	-0.5095	0.0138	0.8538
1.26	-8.3918	-0.4503	4.4974	-0.0049	0.0006	-0.0538	19.0617	3.2378	-18.2706	0.1058	-0.5095	0.0139	0.8538
1.27	-8.4017	-0.4540	4.4972	-0.0125	-0.0017	-0.0612	19.0730	3.1711	-18.2653	0.1058	-0.5096	0.0139	0.8538
1.28	-8.3793	-0.4517	4.4817	-0.0115	-0.0039	-0.0568	18.9492	3.3063	-18.2738	0.1059	-0.5096	0.0140	0.8537
1.29	-8.3961	-0.4280	4.4787	-0.0033	0.0055	-0.0592	18.8679	3.1754	-18.2624	0.1060	-0.5097	0.0140	0.8537
1.3	-8.4260	-0.4092	4.4729	-0.0135	0.0008	-0.0529	18.8048	3.0918	-18.1272	0.1060	-0.5098	0.0140	0.8536
1.31	-8.3926	-0.3980	4.4715	-0.0146	-0.0080	-0.0629	18.9860	3.3996	-18.2743	0.1061	-0.5099	0.0140	0.8537
1.32	-8.3901	-0.4272	4.4840	-0.0157	-0.0118	-0.0610	18.9173	3.2743	-18.2660	0.1062	-0.5098	0.0140	0.8535
1.33	-8.4155	-0.4640	4.5005	-0.0230	-0.0219	-0.0547	19.0359	3.1987	-18.2784	0.1062	-0.5098	0.0140	0.8536
1.34	-8.4007	-0.4853	4.5063	-0.0271	-0.0158	-0.0529	19.0725	3.3662	-18.2473	0.1062	-0.5098	0.0140	0.8536
1.35	-8.3643	-0.5117	4.4920	-0.0190	-0.0277	-0.0437	19.1236	3.4131	-18.3613	0.1062	-0.5097	0.0140	0.8536
1.36	-8.3424	-0.5330	4.4881	-0.0161	-0.0167	-0.0417	19.1244	3.1422	-18.4595	0.1062	-0.5098	0.0140	0.8537
1.37	-8.3347	-0.5152	4.4826	-0.0086	-0.0098	-0.0364	19.2020	3.0117	-18.1643	0.1062	-0.5098	0.0141	0.8536
1.38	-8.3247	-0.4765	4.4766	0.0046	-0.0072	-0.0369	19.0202	3.2353	-18.2083	0.1062	-0.5098	0.0142	0.8536
1.39	-8.3173	-0.4298	4.4578	0.0040	-0.0055	-0.0355	19.0075	3.1020	-18.4936	0.1062	-0.5098	0.0144	0.8535
1.4	-8.3271	-0.4030	4.4470	0.0029	-0.0029	-0.0391	19.0577	3.1165	-18.3954	0.1062	-0.5099	0.0145	0.8536
1.41	-8.3698	-0.4012	4.4472	0.0094	0.0035	-0.0443	19.1000	3.2949	-18.2176	0.1063	-0.5099	0.0147	0.8535
1.42	-8.3772	-0.4029	4.4419	-0.0050	-0.0031	-0.0500	18.9159	3.2262	-18.3481	0.1063	-0.5100	0.0147	0.8534
1.43	-8.3945	-0.4089	4.4404	0.0042	-0.0005	-0.0554	18.9371	3.0900	-18.4866	0.1064	-0.5100	0.0148	0.8534
1.44	-8.4142	-0.4077	4.4481	-0.0100	-0.0033	-0.0520	18.9368	3.1259	-18.3918	0.1065	-0.5101	0.0149	0.8534
1.45	-8.4125	-0.4058	4.4335	-0.0052	0.0049	-0.0612	18.9160	3.1057	-18.3740	0.1066	-0.5102	0.0149	0.8534
1.46	-8.4019	-0.3965	4.4247	-0.0067	-0.0044	-0.0641	19.0208	3.1186	-18.2484	0.1066	-0.5102	0.0150	0.8532
1.47	-8.4276	-0.3960	4.4351	-0.0156	-0.0015	-0.0667	19.1300	3.2171	-18.2002	0.1068	-0.5103	0.0150	0.8533
1.48	-8.4379	-0.3972	4.4366	-0.0133	0.0036	-0.0608	18.7854	3.2004	-18.2374	0.1068	-0.5103	0.0150	0.8532
1.49	-8.4405	-0.4019	4.4374	-0.0173	-0.0067	-0.0595	19.0085	3.2005	-18.2030	0.1069	-0.5104	0.0150	0.8532
1.5	-8.4473	-0.4131	4.4396	-0.0288	-0.0103	-0.0530	19.1144	3.2116	-18.4067	0.1069	-0.5104	0.0149	0.8531
1.51	-8.4454	-0.4431	4.4398	-0.0314	-0.0150	-0.0543	19.1351	3.1846	-18.3252	0.1069	-0.5104	0.0149	0.8531
1.52	-8.4274	-0.4629	4.4451	-0.0333	-0.0201	-0.0445	19.0367	3.2607	-18.4007	0.1069	-0.5104	0.0148	0.8531
1.53	-8.4346	-0.4705	4.4531	-0.0361	-0.0217	-0.0422	19.0418	3.3154	-18.2564	0.1068	-0.5104	0.0148	0.8531
1.54	-8.4363	-0.4822	4.4543	-0.0219	-0.0289	-0.0391	18.8722	3.1726	-18.1801	0.1068	-0.5104	0.0148	0.8532
1.55	-8.4246	-0.4961	4.4626	-0.0289	-0.0294	-0.0367	18.9174	2.9255	-18.4437	0.1067	-0.5103	0.0148	0.8532
1.56	-8.3906	-0.4964	4.4445	-0.0216	-0.0349	-0.0381	19.3267	3.0145	-18.2192	0.1066	-0.5103	0.0148	0.8533
1.57	-8.3530	-0.4717	4.4492	-0.0179	-0.0284	-0.0390	19.2677	3.0362	-18.4006	0.1066	-0.5101	0.0148	0.8533
1.58	-8.4350	-0.4665	4.4691	-0.0167	-0.0234	-0.0440	19.4204	3.0304	-18.2829	0.1066	-0.5101	0.0148	0.8533
1.59	-8.4013	-0.4443	4.4808	-0.0155	-0.0280	-0.0492	19.1341	3.0155	-18.3314	0.1066	-0.5101	0.0149	0.8534
1.6	-8.3655	-0.4591	4.4688	-0.0209	-0.0266	-0.0550	19.1078	3.1051	-18.2885	0.1066	-0.5100	0.0148	0.8533
1.61	-8.3681	-0.4892	4.4548	-0.0167	-0.0222	-0.0513	19.0149	3.1271	-18.1604	0.1067	-0.5101	0.0148	0.8535
1.62	-8.3781	-0.4998	4.4734	-0.0124	-0.0246	-0.0514	18.8873	3.2408	-18.4469	0.1067	-0.5100	0.0149	0.8534
1.63	-8.3765	-0.4829	4.4759	-0.0138	-0.0264	-0.0412	19.0227	3.1179	-18.2520	0.1067	-0.5100	0.0149	0.8535
1.64	-8.3611	-0.4522	4.4693	-0.0083	-0.0214	-0.0455	19.0087	3.1814	-18.2836	0.1067	-0.5099	0.0150	0.8534
1.65	-8.3702	-0.4307	4.4758	-0.0136	-0.0228	-0.0474	19.1665	3.4609	-18.1360	0.1067	-0.5099	0.0150	0.8535
1.66	-8.3822	-0.4241	4.4806	-0.0149	-0.0210	-0.0468	19.7177	3.1015	-18.0525	0.1067	-0.5098	0.0150	0.8535
1.67	-8.3862	-0.4363	4.4880	-0.0171	-0.0223	-0.0445	19.4064	3.2859	-18.1569	0.1067	-0.5098	0.0150	0.8535
1.68	-8.3836	-0.4424	4.4880	-0.0159	-0.0256	-0.0421	18.9087	3.4191	-18.3265	0.1067	-0.5098	0.0151	0.8536
1.69	-8.3852	-0.4484	4.4828	-0.0170	-0.0223	-0.0503	18.6699	3.1809	-18.2830	0.1068	-0.5097	0.0151	0.8535
1.7	-8.3868	-0.4505	4.4773	-0.0079	-0.0213	-0.0498	18.7333	3.4124	-18.2532	0.1068	-0.5097	0.0151	0.8536
1.71	-8.3822	-0.4504	4.4740	-0.0071	-0.0179	-0.0576	18.7779	3.3140	-18.2121	0.1069	-0.5097	0.0152	0.8535
1.72	-8.3573	-0.4471	4.4682	-0.0130	-0.0244	-0.0582	18.7530	3.1786	-18.2925	0.1069	-0.5097	0.0152	0.8536
1.73	-8.3620	-0.4576	4.4634	-0.0136	-0.0238	-0.0578	18.9189	3.1225	-18.2717	0.1070	-0.5096	0.0152	0.8536
1.74	-8.3818	-0.4603	4.4756	-0.0075	-0.0207	-0.0525	18.9943	3.0981	-18.2861	0.1071	-0.5096	0.0152	0.8536
1.75	-8.3894	-0.4522	4.4763	-0.0105	-0.0270	-0.0532	19.1539	2.8130	-18.4250	0.1071	-0.5095	0.0153	0.8536
1.76	-8.3845	-0.4441	4.4834	-0.0129	-0.0247	-0.0520	18.9350	3.0488	-18.3124	0.1071	-0.5095	0.0153	0.8536
1.77	-8.3810	-0.4457	4.4897	-0.0084	-0.0303	-0.0418	19.0107	2.9906	-18.4800	0.1071	-0.5095	0.0153	0.8537
1.78	-8.3795	-0.4519	4.4871	-0.0083	-0.0281	-0.0437	18.9545	3.2510	-18.2940	0.1072	-0.5094	0.0154	0.8536
1.79	-8.3861	-0.4639	4.4862	-0.0175	-0.0277	-0.0394	18.9306	3.1641	-18.4634	0.1071	-0.5094	0.0154	0.8538
1.8	-8.3729	-0.4558	4.4850	-0.0016	-0.0251	-0.0409	18.9290	2.7587	-18.3560	0.1071	-0.5093	0.0155	0.8537
1.81	-8.3683	-0.4343	4.4935	0.0034	-0.0222	-0.0431	18.9980	3.2395	-18.3098	0.1072	-0.5093	0.0156	0.8538
1.82	-8.3984	-0.4181	4.4959	0.0001	-0.0285	-0.0431	19.0640	3.2160	-18.3432	0.1072	-0.5092	0.0157	0.8538
1.83	-8.3885	-0.4073	4.4980	0.0061	-0.0295	-0.0431	18.8524	3.0985	-18.4273	0.1073	-0.5091	0.0159	0.8538
1.84	-8.3779	-0.3982	4.4975	0.0053	-0.0240	-0.0475	18.7362	3.1855	-18.2321	0.1073	-0.5091	0.0160	0.8539
1.85	-8.3788	-0.3852	4.4991	0.0005	-0.0243	-0.0529	19.0847	3.2523	-18.2977	0.1074	-0.5090	0.0160	0.8538
1.86	-8.3770	-0.3875	4.4937	0.0093	-0.0251	-0.0505	18.7783	3.0856	-18.4734	0.1075	-0.5090	0.0162	0.8540
1.87	-8.3555	-0.3823	4.4940	0.0065	-0.0323	-0.0534	18.6609	3.1897	-18.1910	0.1076	-0.5089	0.0163	0.8539
1.88	-8.3432	-0.3871	4.4943	-0.0003	-0.0310	-0.0542	18.8655	3.2125	-18.1900	0.1077	-0.5088	0.0163	0.8540
1.89	-8.3403	-0.3780	4.4956	-0.0019	-0.0304	-0.0608	18.8420	3.3142	-18.2698	0.1078	-0.5087	0.0164	0.8539
1.9	-8.3482	-0.3645	4.5068	-0.0015	-0.0210	-0.0617	18.8546	3.2931	-18.2127	0.1079	-0.5087	0.0164	0.8540
1.91	-8.3434	-0.3514	4.5028	0.0051	-0.0293	-0.0581	18.6684	3.1607	-18.0939	0.1080	-0.5086	0.0165	0.8540
1.92	-8.3450	-0.3422	4.5113	-0.0062	-0.0308	-0.0596	18.7189	2.7439	-18.3092	0.1081	-0.5086	0.0165	0.8540
1.93	-8.3310	-0.3386	4.5068	-0.0188	-0.0268	-0.0566	18.9772	3.0031	-18.2409	0.1081	-0.5085	0.0165	0.8541
1.94	-8.3260	-0.3505	4.5045	-0.0191	-0.0193	-0.0601	19.0398	3.0158	-18.3473	0.1082	-0.5085	0.0165	0.8541
1.95	-8.3523	-0.3709	4.5146	-0.0317	-0.0210	-0.0536	19.0149	2.9704	-18.2912	0.1082	-0.5085	0.0164	0.8541
1.96	-8.3760	-0.3914	4.5108	-0.0379	-0.0238	-0.0485	19.0407	3.1616	-18.5082	0.1081	-0.5084	0.0164	0.8540
1.97	-8.3627	-0.4107	4.5014	-0.0413	-0.0268	-0.0472	19.0057	3.2181	-18.4244	0.1081	-0.5084	0.0163	0.8542
1.98	-8.3756	-0.4339	4.5024	-0.0405	-0.0244	-0.0466	18.7472	3.2157	-18.3826	0.1080	-0.5084	0.0162	0.8542
1.99	-8.3842	-0.4578	4.5115	-0.0289	-0.0249	-0.0492	18.8143	2.9445	-18.2746	0.1080	-0.5083	0.0161	0.8542
2	-8.3893	-0.4738	4.5034	-0.0401	-0.0223	-0.0439	18.9711	3.0407	-18.5541	0.1079	-0.5083	0.0161	0.8542
2.01	-8.3670	-0.4836	4.4881	-0.0304	-0.0247	-0.0490	19.0227	3.3033	-18.3413	0.1079	-0.5083	0.0160	0.8542
2.02	-8.3531	-0.4980	4.4848	-0.0255	-0.0245	-0.0475	19.0668	3.2814	-18.1474	0.1079	-0.5083	0.0160	0.8543
2.03	-8.3628	-0.4957	4.4888	-0.0163	-0.0203	-0.0520	18.8458	3.0376	-18.1340	0.1079	-0.5082	0.0160	0.8542
2.04	-8.3679	-0.4855	4.4848	-0.0197	-0.0167	-0.0476	18.7535	3.0344	-18.1528	0.1079	-0.5082	0.0160	0.8543
2.05	-8.3823	-0.4551	4.4946	-0.0135	-0.0216	-0.0515	18.8835	3.2189	-18.1242	0.1080	-0.5082	0.0160	0.8543
2.06	-8.3967	-0.4355	4.5020	-0.0124	-0.0234	-0.0521	18.8321	3.1582	-18.2144	0.1080	-0.5082	0.0160	0.8544
2.07	-8.4051	-0.4303	4.5014	-0.0117	-0.0179	-0.0497	18.8586	3.1046	-18.3283	0.1080	-0.5081	0.0161	0.8543
2.08	-8.4004	-0.4121	4.5054	-0.0141	-0.0233	-0.0563	18.8416	3.2765	-18.4739	0.1081	-0.5081	0.0161	0.8544
2.09	-8.3883	-0.3988	4.5088	-0.0182	-0.0239	-0.0508	18.8587	3.3100	-18.3141	0.1081	-0.5080	0.0161	0.8544
2.1	-8.3759	-0.3984	4.5050	-0.0131	-0.0278	-0.0511	18.8349	3.3099	-18.1282	0.1081	-0.5080	0.0161	0.8543
2.11	-8.3691	-0.3934	4.5070	-0.0172	-0.0304	-0.0459	18.9599	3.3072	-18.1454	0.1081	-0.5080	0.0161	0.8545
2.12	-8.3629	-0.3877	4.5055	-0.0127	-0.0236	-0.0478	19.2094	2.8934	-18.3144	0.1081	-0.5079	0.0162	0.8544
2.13	-8.3410	-0.3868	4.5047	-0.0153	-0.0239	-0.0495	19.1560	3.1136	-18.4901	0.1082	-0.5079	0.0162	0.8545
2.14	-8.3410	-0.3995	4.5164	-0.0147	-0.0269	-0.0492	18.9943	3.1293	-18.2059	0.1082	-0.5078	0.0162	0.8544
2.15	-8.3658	-0.4047	4.5247	-0.0255	-0.0230	-0.0493	19.2860	3.2715	-18.0164	0.1082	-0.5078	0.0162	0.8545
2.16	-8.3801	-0.4192	4.5256	-0.0236	-0.0270	-0.0472	19.4466	3.2936	-17.9068	0.1082	-0.5077	0.0162	0.8546
2.17	-8.3575	-0.4341	4.5235	-0.0140	-0.0312	-0.0565	19.2347	3.1539	-18.1132	0.1082	-0.5076	0.0162	0.8546
2.18	-8.3382	-0.4400	4.5241	-0.0171	-0.0302	-0.0551	19.0026	3.1932	-18.2502	0.1083	-0.5076	0.0161	0.8546
2.19	-8.3681	-0.4221	4.5292	-0.0180	-0.0235	-0.0514	18.9076	3.2146	-18.2493	0.1083	-0.5075	0.0161	0.8546
2.2	-8.3704	-0.4139	4.5239	-0.0157	-0.0278	-0.0627	18.9264	3.1771	-18.2264	0.1083	-0.5075	0.0161	0.8547
2.21	-8.3147	-0.4089	4.5171	-0.0192	-0.0256	-0.0701	18.8274	3.2984	-18.0312	0.1084	-0.5074	0.0161	0.8546
2.22	-8.3345	-0.4329	4.5311	-0.0219	-0.0213	-0.0676	18.7079	3.2986	-18.1041	0.1085	-0.5074	0.0160	0.8547
2.23	-8.3523	-0.4608	4.5460	-0.0314	-0.0279	-0.0704	18.7470	3.2815	-18.1815	0.1086	-0.5074	0.0159	0.8547
2.24	-8.3328	-0.4806	4.5554	-0.0302	-0.0271	-0.0580	18.7204	3.3180	-18.1428	0.1086	-0.5073	0.0158	0.8548
2.25	-8.3346	-0.5006	4.5535	-0.0223	-0.0245	-0.0572	18.7453	3.1745	-18.2685	0.1086	-0.5073	0.0158	0.8547
2.26	-8.3159	-0.5134	4.5488	-0.0270	-0.0277	-0.0445	18.7098	3.1260	-18.2371	0.1086	-0.5072	0.0158	0.8548
2.27	-8.2982	-0.5043	4.5472	-0.0134	-0.0252	-0.0410	18.9900	3.2507	-18.2910	0.1086	-0.5072	0.0158	0.8548
2.28	-8.2632	-0.4619	4.5327	-0.0070	-0.0163	-0.0346	18.9269	3.1054	-18.4654	0.1086	-0.5071	0.0159	0.8548
2.29	-8.2585	-0.4267	4.5243	-0.0086	-0.0120	-0.0346	18.7973	3.1175	-18.2931	0.1086	-0.5072	0.0160	0.8549
2.3	-8.2856	-0.4029	4.5152	-0.0145	-0.0023	-0.0388	18.8210	2.9767	-18.2598	0.1085	-0.5072	0.0161	0.8548
2.31	-8.2957	-0.4039	4.5075	-0.0142	-0.0043	-0.0354	18.8657	3.1320	-18.4423	0.1085	-0.5073	0.0161	0.8548
2.32	-8.3159	-0.4079	4.5097	-0.0126	0.0068	-0.0449	19.0322	3.0198	-18.4323	0.1085	-0.5073	0.0162	0.8547
2.33	-8.3400	-0.4007	4.5071	-0.0121	0.0012	-0.0475	18.9622	2.9237	-18.4175	0.1085	-0.5074	0.0162	0.8547
2.34	-8.3649	-0.4016	4.5056	-0.0157	0.0053	-0.0448	19.0577	3.1354	-18.2635	0.1085	-0.5075	0.0163	0.8546
2.35	-8.3963	-0.3927	4.4933	-0.0152	0.0124	-0.0562	18.7938	3.0374	-18.2324	0.1085	-0.5076	0.0163	0.8545
2.36	-8.4034	-0.3929	4.4804	-0.0132	0.0080	-0.0594	18.9520	3.0158	-18.2668	0.1086	-0.5078	0.0163	0.8546
2.37	-8.4016	-0.3905	4.4832	-0.0162	0.0101	-0.0620	19.1164	3.1946	-18.3614	0.1087	-0.5078	0.0163	0.8544
2.38	-8.4105	-0.4035	4.4829	-0.0144	0.0026	-0.0602	18.8525	3.1973	-18.3305	0.1087	-0.5079	0.0163	0.8544
2.39	-8.3914	-0.4299	4.4762	-0.0198	0.0026	-0.0622	18.6830	3.2144	-18.4274	0.1088	-0.5080	0.0163	0.8542
2.4	-8.4004	-0.4420	4.4788	-0.0173	0.0034	-0.0613	19.0352	3.3940	-18.4701	0.1089	-0.5081	0.0163	0.8543
2.41	-8.4145	-0.4489	4.4784	-0.0244	-0.0034	-0.0608	19.0238	3.2529	-18.3631	0.1089	-0.5081	0.0163	0.8542
2.42	-8.4058	-0.4474	4.4813	-0.0339	-0.0064	-0.0508	18.7904	3.3239	-18.3564	0.1089	-0.5082	0.0162	0.8542
2.43	-8.4199	-0.4577	4.4855	-0.0342	-0.0052	-0.0521	18.8242	3.1713	-18.3098	0.1089	-0.5082	0.0162	0.8542
2.44	-8.4113	-0.4675	4.4878	-0.0385	-0.0114	-0.0529	18.8484	3.3724	-18.2928	0.1088	-0.5083	0.0161	0.8541
2.45	-8.4072	-0.4732	4.4753	-0.0274	-0.0077	-0.0525	18.9404	3.3433	-18.3158	0.1088	-0.5083	0.0160	0.8542
2.46	-8.3492	-0.4661	4.4644	-0.0322	-0.0120	-0.0499	18.8857	3.1741	-18.1468	0.1088	-0.5083	0.0160	0.8540
2.47	-8.4297	-0.4560	4.4932	-0.0414	-0.0102	-0.0490	19.0407	3.3460	-18.1366	0.1088	-0.5084	0.0159	0.8541
2.48	-8.4592	-0.4628	4.5056	-0.0397	-0.0223	-0.0477	18.9367	3.0559	-18.0804	0.1087	-0.5083	0.0158	0.8541
2.49	-8.3943	-0.4658	4.4923	-0.0372	-0.0213	-0.0506	18.6445	3.0795	-18.1985	0.1087	-0.5083	0.0158	0.8542
2.5	-8.3785	-0.5089	4.4745	-0.0378	-0.0289	-0.0510	19.0881	3.2313	-18.1252	0.1086	-0.5083	0.0157	0.8541
2.51	-8.3745	-0.5331	4.4783	-0.0255	-0.0233	-0.0412	19.1307	3.0786	-18.3210	0.1086	-0.5083	0.0157	0.8542
2.52	-8.3602	-0.5234	4.4796	-0.0186	-0.0269	-0.0356	18.9544	3.1523	-18.3380	0.1085	-0.5082	0.0157	0.8542
2.53	-8.3368	-0.4914	4.4877	-0.0122	-0.0248	-0.0377	19.0138	3.0202	-18.3502	0.1085	-0.5081	0.0158	0.8542
2.54	-8.3676	-0.4641	4.4955	-0.0177	-0.0228	-0.0366	18.9059	3.0328	-18.3155	0.1085	-0.5082	0.0158	0.8543
2.55	-8.3817	-0.4609	4.4984	-0.0167	-0.0256	-0.0383	18.8607	3.1792	-18.2474	0.1084	-0.5081	0.0158	0.8543
2.56	-8.3654	-0.4449	4.5060	-0.0108	-0.0230	-0.0432	18.8558	3.2265	-18.4708	0.1085	-0.5081	0.0159	0.8544
2.57	-8.3698	-0.4475	4.5094	-0.0072	-0.0261	-0.0481	19.0328	3.1007	-18.3186	0.1085	-0.5080	0.0159	0.8543
2.58	-8.3750	-0.4404	4.5090	-0.0105	-0.0276	-0.0528	18.8593	3.2470	-18.3617	0.1085	-0.5080	0.0160	0.8544
2.59	-8.3613	-0.4355	4.5105	-0.0131	-0.0222	-0.0502	18.5799	3.1369	-18.3147	0.1085	-0.5079	0.0160	0.8544
2.6	-8.3728	-0.4297	4.5126	-0.0068	-0.0186	-0.0541	18.5872	3.0963	-18.4484	0.1086	-0.5079	0.0160	0.8543
2.61	-8.3809	-0.4257	4.5098	-0.0056	-0.0240	-0.0515	18.8909	3.2225	-18.3193	0.1087	-0.5079	0.0161	0.8545
2.62	-8.3336	-0.4216	4.5030	-0.0107	-0.0231	-0.0499	18.8884	3.3442	-18.2365	0.1087	-0.5078	0.0161	0.8544
2.63	-8.3650	-0.4359	4.5038	-0.0164	-0.0194	-0.0521	18.7428	3.4069	-18.2627	0.1087	-0.5078	0.0161	0.8545
2.64	-8.3651	-0.4501	4.4993	-0.0137	-0.0202	-0.0529	18.7041	3.2827	-18.2624	0.1087	-0.5077	0.0162	0.8544
2.65	-8.3530	-0.4602	4.5025	-0.0146	-0.0221	-0.0511	19.0022	3.2940	-18.1141	0.1088	-0.5078	0.0162	0.8545
2.66	-8.3618	-0.4623	4.5111	-0.0077	-0.0263	-0.0460	19.4698	3.1336	-18.2373	0.1088	-0.5077	0.0162	0.8545
2.67	-8.3517	-0.4523	4.5225	-0.0098	-0.0340	-0.0406	19.3448	3.1086	-18.1903	0.1088	-0.5076	0.0163	0.8545
2.68	-8.3493	-0.4405	4.5242	-0.0041	-0.0322	-0.0405	19.2195	3.0086	-18.2797	0.1088	-0.5076	0.0164	0.8546
2.69	-8.3672	-0.4358	4.5248	-0.0006	-0.0283	-0.0405	19.2263	3.1594	-18.4124	0.1088	-0.5075	0.0165	0.8546
2.7	-8.3596	-0.4277	4.5263	0.0045	-0.0252	-0.0418	19.1068	3.0190	-18.5234	0.1089	-0.5074	0.0166	0.8547
2.71	-8.3444	-0.4133	4.5258	0.0035	-0.0239	-0.0425	19.0307	2.9202	-18.4170	0.1089	-0.5073	0.0167	0.8546
2.72	-8.3525	-0.4093	4.5259	0.0016	-0.0209	-0.0412	18.8383	3.2338	-18.5629	0.1089	-0.5074	0.0168	0.8547
2.73	-8.3497	-0.3958	4.5304	0.0102	-0.0248	-0.0517	18.9078	3.1789	-18.6147	0.1090	-0.5073	0.0169	0.8547
2.74	-8.3570	-0.3848	4.5224	-0.0028	-0.0185	-0.0562	19.0690	3.1333	-18.4014	0.1091	-0.5073	0.0170	0.8547
2.75	-8.3486	-0.3778	4.5242	0.0014	-0.0244	-0.0511	18.7816	3.1552	-18.4490	0.1091	-0.5072	0.0171	0.8547
2.76	-8.3422	-0.3679	4.5242	0.0071	-0.0148	-0.0561	18.9667	2.8868	-18.6607	0.1092	-0.5072	0.0172	0.8547
2.77	-8.3468	-0.3624	4.5205	-0.0114	-0.0163	-0.0613	18.6573	3.0970	-18.5514	0.1093	-0.5072	0.0172	0.8547
2.78	-8.3485	-0.3626	4.5164	-0.0130	-0.0183	-0.0532	19.0265	3.2363	-18.4365	0.1094	-0.5072	0.0172	0.8546
2.79	-8.3274	-0.3636	4.5092	-0.0125	-0.0251	-0.0583	18.9806	3.3452	-18.3187	0.1094	-0.5072	0.0172	0.8548
2.8	-8.3258	-0.3591	4.5098	-0.0170	-0.0173	-0.0632	18.9197	3.2922	-18.2122	0.1095	-0.5071	0.0172	0.8547
2.81	-8.3390	-0.3611	4.5139	-0.0156	-0.0136	-0.0558	18.8379	3.4120	-18.3376	0.1096	-0.5072	0.0172	0.8548
2.82	-8.3356	-0.3677	4.5174	-0.0239	-0.0180	-0.0520	18.9180	3.3218	-18.3547	0.1096	-0.5071	0.0172	0.8546
2.83	-8.3372	-0.3732	4.5178	-0.0316	-0.0127	-0.0544	18.9005	3.2051	-18.1989	0.1096	-0.5072	0.0171	0.8547
2.84	-8.3529	-0.3870	4.5135	-0.0345	-0.0149	-0.0601	18.9819	3.2597	-18.3429	0.1096	-0.5072	0.0171	0.8547
2.85	-8.3634	-0.4009	4.5143	-0.0337	-0.0089	-0.0440	18.9539	3.1562	-18.5857	0.1095	-0.5072	0.0170	0.8546
2.86	-8.3632	-0.4202	4.5220	-0.0417	-0.0086	-0.0507	18.7785	3.0295	-18.2514	0.1095	-0.5073	0.0169	0.8547
2.87	-8.3611	-0.4329	4.5179	-0.0414	-0.0073	-0.0522	19.0267	3.0985	-18.3155	0.1094	-0.5073	0.0168	0.8546
2.88	-8.3587	-0.4432	4.5130	-0.0414	-0.0059	-0.0519	19.1422	3.1817	-18.4960	0.1094	-0.5074	0.0168	0.8546
2.89	-8.3593	-0.4647	4.5066	-0.0413	-0.0071	-0.0494	18.9098	3.0392	-18.2924	0.1093	-0.5074	0.0167	0.8545
2.9	-8.3608	-0.4622	4.4968	-0.0412	-0.0050	-0.0467	18.6708	3.0675	-18.4921	0.1093	-0.5075	0.0166	0.8546
2.91	-8.3642	-0.4619	4.4907	-0.0412	-0.0111	-0.0462	19.0060	3.0494	-18.5234	0.1092	-0.5075	0.0165	0.8545
2.92	-8.3687	-0.4666	4.4927	-0.0412	-0.0084	-0.0477	18.9061	3.3668	-18.5306	0.1092	-0.5076	0.0164	0.8545
2.93	-8.3814	-0.4657	4.4953	-0.0415	-0.0117	-0.0452	19.0471	3.0811	-18.5169	0.1091	-0.5076	0.0164	0.8545
2.94	-8.3866	-0.4740	4.4901	-0.0403	-0.0097	-0.0392	18.7779	3.1141	-18.3915	0.1090	-0.5076	0.0163	0.8545
2.95	-8.3767	-0.4765	4.4887	-0.0363	-0.0051	-0.0427	18.8408	3.2846	-18.2656	0.1089	-0.5077	0.0163	0.8545
2.96	-8.3846	-0.4736	4.4897	-0.0431	-0.0034	-0.0462	18.9517	3.2001	-18.2177	0.1089	-0.5077	0.0162	0.8544
2.97	-8.3859	-0.4735	4.4831	-0.0355	-0.0024	-0.0440	18.9062	3.3636	-18.6159	0.1088	-0.5078	0.0161	0.8544
2.98	-8.3990	-0.4650	4.4872	-0.0348	-0.0126	-0.0374	18.8893	3.2791	-18.4227	0.1087	-0.5078	0.0161	0.8544
2.99	-8.4064	-0.4571	4.4884	-0.0273	-0.0014	-0.0485	18.7903	3.4210	-18.2372	0.1087	-0.5079	0.0161	0.8544
3	-8.3906	-0.4543	4.4771	-0.0206	-0.0099	-0.0500	18.8578	3.3148	-18.2570	0.1087	-0.5079	0.0161	0.8543
3.01	-8.3796	-0.4472	4.4800	-0.0190	-0.0115	-0.0478	18.9171	3.1989	-18.3753	0.1087	-0.5080	0.0161	0.8543
3.02	-8.3817	-0.4458	4.4861	-0.0158	-0.0089	-0.0490	18.9258	3.2864	-18.4847	0.1087	-0.5080	0.0161	0.8543
3.03	-8.3778	-0.4414	4.4803	-0.0161	-0.0202	-0.0462	18.9106	3.4214	-18.3027	0.1087	-0.5080	0.0162	0.8543
3.04	-8.3737	-0.4206	4.4896	-0.0158	-0.0241	-0.0551	18.7314	3.3044	-18.5075	0.1088	-0.5080	0.0162	0.8544
3.05	-8.3861	-0.4118	4.4957	-0.0159	-0.0259	-0.0561	19.0067	3.0187	-18.4501	0.1088	-0.5079	0.0162	0.8543
3.06	-8.3789	-0.4065	4.4972	-0.0142	-0.0258	-0.0509	19.0090	2.9415	-18.2565	0.1088	-0.5079	0.0162	0.8544
3.07	-8.3764	-0.4054	4.4885	-0.0149	-0.0199	-0.0542	18.9859	3.0799	-18.5706	0.1089	-0.5078	0.0162	0.8543
3.08	-8.3979	-0.3922	4.4958	-0.0186	-0.0148	-0.0525	19.0404	2.8078	-18.3553	0.1089	-0.5079	0.0162	0.8544
3.09	-8.4160	-0.3897	4.5083	-0.0265	-0.0195	-0.0536	18.8901	3.1805	-18.5283	0.1089	-0.5079	0.0162	0.8544
3.1	-8.3888	-0.3887	4.5027	-0.0336	-0.0270	-0.0560	18.7930	3.2582	-18.4533	0.1089	-0.5078	0.0161	0.8544
3.11	-8.3641	-0.3992	4.5199	-0.0312	-0.0300	-0.0573	18.8485	3.2150	-18.3147	0.1089	-0.5078	0.0160	0.8545
3.12	-8.3908	-0.4294	4.5399	-0.0277	-0.0292	-0.0564	18.8125	3.2521	-18.3669	0.1089	-0.5077	0.0160	0.8544
3.13	-8.3658	-0.4473	4.5495	-0.0353	-0.0321	-0.0554	18.8415	3.1805	-18.5366	0.1089	-0.5077	0.0159	0.8545
3.14	-8.3455	-0.4687	4.5491	-0.0350	-0.0279	-0.0560	18.7971	3.0202	-18.4306	0.1089	-0.5076	0.0158	0.8545
3.15	-8.3325	-0.5013	4.5425	-0.0338	-0.0213	-0.0540	19.0921	3.3258	-18.3107	0.1089	-0.5076	0.0157	0.8546
3.16	-8.3031	-0.4998	4.5369	-0.0200	-0.0294	-0.0449	19.5812	3.2660	-18.3646	0.1089	-0.5076	0.0157	0.8546
3.17	-8.2629	-0.4815	4.5319	-0.0231	-0.0291	-0.0372	19.3644	3.2752	-18.2823	0.1088	-0.5075	0.0157	0.8546
3.18	-8.2353	-0.4587	4.5260	-0.0251	-0.0193	-0.0402	18.8948	3.5202	-18.2999	0.1088	-0.5075	0.0157	0.8546
3.19	-8.2289	-0.4282	4.5259	-0.0201	-0.0181	-0.0429	18.6395	3.2895	-18.2790	0.1088	-0.5075	0.0157	0.8546
3.2	-8.2439	-0.4058	4.5325	-0.0262	-0.0113	-0.0494	18.7241	3.2410	-18.3345	0.1088	-0.5075	0.0157	0.8546
3.21	-8.2442	-0.4023	4.5267	-0.0322	0.0018	-0.0546	18.8662	2.9672	-18.3682	0.1087	-0.5075	0.0157	0.8545
3.22	-8.2458	-0.4183	4.5254	-0.0242	0.0112	-0.0579	18.8302	3.2833	-18.2343	0.1088	-0.5077	0.0157	0.8545
3.23	-8.2516	-0.4193	4.5293	-0.0327	0.0139	-0.0624	18.8888	3.3408	-18.2968	0.1088	-0.5078	0.0156	0.8544
3.24	-8.2712	-0.4085	4.5188	-0.0341	0.0266	-0.0610	19.0120	2.9778	-18.5086	0.1088	-0.5080	0.0155	0.8543
3.25	-8.2942	-0.4165	4.4911	-0.0340	0.0282	-0.0618	19.1361	3.0351	-18.5720	0.1088	-0.5082	0.0155	0.8542
3.26	-8.2931	-0.4145	4.4787	-0.0414	0.0333	-0.0610	18.9604	2.9886	-18.3495	0.1088	-0.5084	0.0154	0.8540
3.27	-8.3422	-0.4219	4.4657	-0.0401	0.0419	-0.0631	18.9392	3.2669	-18.6301	0.1088	-0.5087	0.0153	0.8539
3.28	-8.3884	-0.4366	4.4539	-0.0430	0.0403	-0.0625	18.9152	3.2045	-18.5439	0.1088	-0.5089	0.0152	0.8537
3.29	-8.4280	-0.4622	4.4508	-0.0446	0.0421	-0.0630	19.0768	3.0775	-18.3507	0.1088	-0.5093	0.0151	0.8536
3.3	-8.4739	-0.4887	4.4419	-0.0435	0.0379	-0.0580	19.2336	3.1131	-18.4296	0.1088	-0.5095	0.0150	0.8534
3.31	-8.4896	-0.5035	4.4401	-0.0539	0.0313	-0.0550	18.9717	3.0931	-18.3273	0.1088	-0.5097	0.0149	0.8534
3.32	-8.5129	-0.5216	4.4343	-0.0546	0.0239	-0.0492	19.1737	3.1719	-18.3555	0.1087	-0.5099	0.0148	0.8532
3.33	-8.5153	-0.5352	4.4278	-0.0455	0.0212	-0.0530	18.7993	3.4745	-18.2672	0.1086	-0.5101	0.0147	0.8531
3.34	-8.5281	-0.5540	4.4146	-0.0446	0.0169	-0.0491	18.8206	3.5206	-18.4111	0.1086	-0.5102	0.0146	0.8530
3.35	-8.4792	-0.5439	4.4091	-0.0403	0.0127	-0.0481	18.8326	3.3506	-18.2698	0.1085	-0.5103	0.0145	0.8529
3.36	-8.5498	-0.5436	4.4305	-0.0417	0.0045	-0.0502	18.9952	3.3595	-18.2407	0.1085	-0.5105	0.0144	0.8530
3.37	-8.5659	-0.5356	4.4383	-0.0400	-0.0165	-0.0490	19.2410	3.2635	-18.3323	0.1084	-0.5105	0.0143	0.8529
3.38	-8.4624	-0.5255	4.4322	-0.0347	-0.0216	-0.0464	18.7955	3.4860	-18.3042	0.1084	-0.5105	0.0143	0.8530
3.39	-8.4688	-0.5624	4.4213	-0.0407	-0.0220	-0.0456	18.9696	3.3501	-18.2470	0.1083	-0.5104	0.0142	0.8529
3.4	-8.4608	-0.5707	4.4351	-0.0267	-0.0247	-0.0442	18.9093	3.2661	-18.4975	0.1083	-0.5105	0.0142	0.8530
3.41	-8.4133	-0.5633	4.4414	-0.0193	-0.0327	-0.0351	18.9942	3.2611	-18.2503	0.1082	-0.5104	0.0142	0.8530
3.42	-8.4127	-0.5428	4.4476	-0.0163	-0.0294	-0.0381	19.0515	3.0642	-18.2732	0.1082	-0.5103	0.0143	0.8530
3.43	-8.4094	-0.5200	4.4598	-0.0165	-0.0317	-0.0329	18.9122	3.2393	-18.2415	0.1081	-0.5103	0.0143	0.8531
3.44	-8.4164	-0.5110	4.4719	-0.0121	-0.0358	-0.0396	18.9600	2.9766	-18.5751	0.1081	-0.5102	0.0144	0.8531
3.45	-8.4044	-0.4903	4.4771	-0.0088	-0.0409	-0.0406	19.1076	2.9588	-18.3906	0.1081	-0.5101	0.0144	0.8532
3.46	-8.3690	-0.5009	4.4727	-0.0119	-0.0433	-0.0382	19.1184	3.1012	-18.3332	0.1081	-0.5099	0.0145	0.8532
3.47	-8.3587	-0.4852	4.4733	0.0059	-0.0350	-0.0382	19.1150	3.3461	-18.3578	0.1081	-0.5099	0.0146	0.8533
3.48	-8.3432	-0.4615	4.4762	0.0044	-0.0322	-0.0470	18.7933	3.1496	-18.3892	0.1081	-0.5098	0.0147	0.8533
3.49	-8.3547	-0.4459	4.4828	0.0077	-0.0287	-0.0499	19.0211	3.1451	-18.4914	0.1082	-0.5097	0.0148	0.8534
3.5	-8.3649	-0.4261	4.4835	0.0092	-0.0253	-0.0558	19.0238	3.2129	-18.3155	0.1083	-0.5096	0.0149	0.8534
3.51	-8.3547	-0.4350	4.4846	0.0106	-0.0230	-0.0595	18.8005	3.1798	-18.3996	0.1085	-0.5096	0.0150	0.8534
3.52	-8.3618	-0.4298	4.4918	0.0046	-0.0238	-0.0603	18.8703	3.3769	-18.4723	0.1086	-0.5096	0.0151	0.8534
3.53	-8.3680	-0.4355	4.4937	0.0023	-0.0203	-0.0604	18.8396	3.2993	-18.4348	0.1087	-0.5095	0.0152	0.8534
3.54	-8.3657	-0.4312	4.4998	0.0044	-0.0184	-0.0605	18.8444	3.0335	-18.4633	0.1088	-0.5096	0.0153	0.8535
3.55	-8.3731	-0.4274	4.5062	-0.0072	-0.0186	-0.0528	18.8765	3.3406	-18.4130	0.1088	-0.5095	0.0153	0.8534
3.56	-8.3750	-0.4319	4.5137	-0.0142	-0.0269	-0.0496	18.9904	3.3075	-18.3076	0.1089	-0.5095	0.0153	0.8535
3.57	-8.3510	-0.4314	4.5094	-0.0170	-0.0319	-0.0513	18.8011	3.1892	-18.5754	0.1089	-0.5094	0.0153	0.8534
3.58	-8.3374	-0.4538	4.5022	-0.0151	-0.0270	-0.0422	18.9070	3.1428	-18.5050	0.1089	-0.5094	0.0154	0.8535
3.59	-8.3215	-0.4684	4.4912	-0.0162	-0.0220	-0.0422	18.8993	3.3273	-18.2305	0.1089	-0.5093	0.0154	0.8535
3.6	-8.3120	-0.4773	4.4773	-0.0148	-0.0232	-0.0374	18.8092	3.3038	-18.3621	0.1088	-0.5093	0.0154	0.8535
3.61	-8.3310	-0.4719	4.4798	-0.0165	-0.0256	-0.0378	19.0714	3.1808	-18.4460	0.1088	-0.5093	0.0155	0.8536
3.62	-8.3480	-0.4552	4.4894	-0.0108	-0.0221	-0.0442	19.0005	3.1428	-18.4744	0.1088	-0.5092	0.0155	0.8536
3.63	-8.3720	-0.4459	4.4880	-0.0099	-0.0178	-0.0453	19.0802	3.1443	-18.3493	0.1088	-0.5093	0.0156	0.8536
3.64	-8.3816	-0.4378	4.4915	0.0046	-0.0218	-0.0430	19.2281	3.2116	-18.4562	0.1088	-0.5092	0.0157	0.8535
3.65	-8.3919	-0.4203	4.4965	0.0020	-0.0142	-0.0474	19.2876	3.1882	-18.4149	0.1089	-0.5092	0.0158	0.8536
3.66	-8.4054	-0.4056	4.4951	0.0039	-0.0172	-0.0488	19.3362	3.3327	-18.1838	0.1090	-0.5092	0.0159	0.8536
3.67	-8.4114	-0.3879	4.4940	0.0015	-0.0250	-0.0429	19.1292	3.2000	-18.3882	0.1090	-0.5091	0.0160	0.8536
3.68	-8.4021	-0.3753	4.4941	-0.0026	-0.0273	-0.0420	19.0882	3.0849	-18.3026	0.1090	-0.5091	0.0161	0.8537
3.69	-8.3993	-0.3761	4.4990	-0.0101	-0.0278	-0.0439	18.7583	3.1135	-18.4698	0.1090	-0.5090	0.0162	0.8537
3.7	-8.3947	-0.3749	4.5033	-0.0150	-0.0287	-0.0386	18.6303	3.2393	-18.4977	0.1090	-0.5090	0.0162	0.8537
3.71	-8.3866	-0.3723	4.5104	-0.0133	-0.0164	-0.0423	18.9728	3.2712	-18.2650	0.1090	-0.5089	0.0163	0.8536
3.72	-8.3608	-0.3912	4.5075	-0.0179	-0.0245	-0.0430	18.8746	3.0517	-18.4892	0.1090	-0.5090	0.0163	0.8538
3.73	-8.3509	-0.3987	4.5167	-0.0161	-0.0248	-0.0397	18.8171	3.3985	-18.4491	0.1090	-0.5089	0.0163	0.8537
3.74	-8.3603	-0.3996	4.5150	-0.0210	-0.0230	-0.0429	18.8353	3.2373	-18.1672	0.1089	-0.5089	0.0164	0.8538
3.75	-8.3629	-0.4086	4.5161	-0.0311	-0.0255	-0.0488	18.8262	3.3693	-18.4674	0.1089	-0.5088	0.0163	0.8538
3.76	-8.3451	-0.4061	4.5209	-0.0323	-0.0250	-0.0498	18.7054	3.4367	-18.5013	0.1089	-0.5088	0.0163	0.8538
3.77	-8.3332	-0.4139	4.5208	-0.0182	-0.0241	-0.0493	18.8030	3.2569	-18.5659	0.1089	-0.5088	0.0163	0.8538
3.78	-8.3201	-0.4183	4.5170	-0.0179	-0.0317	-0.0601	18.8420	3.2542	-18.6253	0.1089	-0.5087	0.0162	0.8538
3.79	-8.3288	-0.4172	4.5312	-0.0165	-0.0280	-0.0631	18.9106	3.2667	-18.4696	0.1090	-0.5087	0.0162	0.8539
3.8	-8.3312	-0.4199	4.5263	-0.0264	-0.0234	-0.0604	18.9568	3.2363	-18.5520	0.1090	-0.5086	0.0162	0.8539
3.81	-8.3236	-0.4294	4.5237	-0.0178	-0.0198	-0.0605	19.0425	3.0702	-18.6416	0.1091	-0.5087	0.0161	0.8540
3.82	-8.3308	-0.4340	4.5241	-0.0219	-0.0134	-0.0624	18.8833	3.1674	-18.3856	0.1091	-0.5086	0.0161	0.8538
3.83	-8.3363	-0.4419	4.5152	-0.0236	-0.0027	-0.0616	19.1891	3.3096	-18.3060	0.1092	-0.5087	0.0161	0.8538
3.84	-8.3399	-0.4581	4.5149	-0.0150	-0.0083	-0.0657	18.9506	3.1818	-18.3421	0.1093	-0.5088	0.0161	0.8538
3.85	-8.3503	-0.4640	4.5118	-0.0160	-0.0053	-0.0650	18.9080	3.1720	-18.6085	0.1094	-0.5088	0.0160	0.8537
3.86	-8.3645	-0.4761	4.5114	-0.0146	-0.0065	-0.0613	18.9113	3.2482	-18.5904	0.1094	-0.5089	0.0161	0.8538
3.87	-8.3442	-0.4795	4.5018	-0.0162	-0.0060	-0.0619	18.8057	3.0310	-18.3297	0.1095	-0.5089	0.0160	0.8537
3.88	-8.3421	-0.4920	4.4981	-0.0151	-0.0118	-0.0612	18.8238	3.1195	-18.5242	0.1096	-0.5089	0.0160	0.8537
3.89	-8.3411	-0.4983	4.4948	-0.0155	-0.0044	-0.0622	18.9157	2.9698	-18.4761	0.1096	-0.5089	0.0160	0.8536
3.9	-8.3129	-0.4995	4.4850	-0.0158	-0.0028	-0.0607	18.9107	3.2336	-18.4313	0.1097	-0.5090	0.0160	0.8536
3.91	-8.3069	-0.4943	4.4790	-0.0165	-0.0031	-0.0703	18.7744	3.2847	-18.5255	0.1098	-0.5091	0.0160	0.8535
3.92	-8.3330	-0.4929	4.4778	-0.0126	0.0049	-0.0722	18.9430	3.4644	-18.5142	0.1099	-0.5092	0.0160	0.8534
3.93	-8.3228	-0.4906	4.4632	-0.0067	0.0053	-0.0622	18.8036	3.3088	-18.4931	0.1100	-0.5093	0.0160	0.8534
3.94	-8.3538	-0.4863	4.4627	-0.0139	0.0128	-0.0637	18.7267	3.3974	-18.2802	0.1101	-0.5094	0.0160	0.8533
3.95	-8.4096	-0.4539	4.4617	-0.0147	0.0114	-0.0649	18.7358	3.2073	-18.3429	0.1102	-0.5095	0.0160	0.8533
3.96	-8.4329	-0.4270	4.4632	-0.0118	0.0063	-0.0649	18.8091	3.1524	-18.3106	0.1102	-0.5096	0.0161	0.8531
3.97	-8.4394	-0.4144	4.4557	-0.0143	0.0038	-0.0612	18.9636	3.2808	-18.3235	0.1103	-0.5097	0.0161	0.8531
3.98	-8.4340	-0.4287	4.4619	-0.0208	-0.0027	-0.0618	18.8490	3.2627	-18.3313	0.1104	-0.5098	0.0160	0.8530
3.99	-8.4921	-0.4672	4.4734	-0.0255	-0.0097	-0.0621	18.8605	3.2327	-18.2979	0.1104	-0.5098	0.0160	0.8530
4	-8.4651	-0.5085	4.4754	-0.0212	-0.0181	-0.0613	19.1502	3.3917	-18.4425	0.1105	-0.5098	0.0160	0.8530
4.01	-8.4218	-0.5425	4.4835	-0.0260	-0.0199	-0.0563	19.0423	3.3904	-18.6383	0.1105	-0.5098	0.0159	0.8530
4.02	-8.4146	-0.5606	4.4739	-0.0184	-0.0217	-0.0500	19.0102	3.1959	-18.5828	0.1105	-0.5098	0.0159	0.8530
4.03	-8.3964	-0.5857	4.4633	-0.0088	-0.0241	-0.0479	18.9315	3.3664	-18.6096	0.1105	-0.5097	0.0160	0.8530
4.04	-8.3613	-0.5837	4.4629	0.0068	-0.0259	-0.0396	18.8006	3.2476	-18.4956	0.1106	-0.5097	0.0161	0.8531
4.05	-8.3531	-0.5485	4.4583	0.0063	-0.0209	-0.0399	19.0143	3.2307	-18.4898	0.1106	-0.5096	0.0162	0.8531
4.06	-8.3319	-0.5037	4.4477	0.0094	-0.0118	-0.0378	19.2010	3.1351	-18.3082	0.1106	-0.5097	0.0164	0.8531
4.07	-8.3450	-0.4757	4.4533	0.0087	-0.0051	-0.0443	19.1774	3.2854	-18.3273	0.1107	-0.5097	0.0165	0.8530
4.08	-8.3823	-0.4705	4.4536	0.0100	-0.0006	-0.0498	18.9574	3.2446	-18.3156	0.1108	-0.5097	0.0167	0.8530
4.09	-8.3543	-0.4712	4.4475	0.0086	-0.0030	-0.0635	18.6890	3.2910	-18.5291	0.1109	-0.5098	0.0168	0.8530
4.1	-8.3611	-0.4643	4.4445	0.0101	-0.0056	-0.0640	18.9204	3.4581	-18.4127	0.1110	-0.5098	0.0169	0.8529
4.11	-8.3773	-0.4322	4.4412	0.0139	0.0072	-0.0712	19.0950	3.4094	-18.4343	0.1112	-0.5099	0.0170	0.8529
4.12	-8.3879	-0.4103	4.4384	0.0095	-0.0010	-0.0674	18.8830	3.3458	-18.5146	0.1114	-0.5100	0.0171	0.8528
4.13	-8.3873	-0.3984	4.4431	0.0095	-0.0033	-0.0754	18.8776	3.2986	-18.3092	0.1116	-0.5100	0.0172	0.8528
4.14	-8.4125	-0.3831	4.4497	0.0089	-0.0040	-0.0753	18.7777	3.1474	-18.3275	0.1117	-0.5100	0.0172	0.8526
4.15	-8.4390	-0.3864	4.4437	-0.0024	-0.0093	-0.0714	19.3271	3.4085	-18.3178	0.1119	-0.5101	0.0173	0.8527
4.16	-8.4386	-0.4014	4.4522	-0.0112	-0.0064	-0.0662	19.3758	3.6442	-18.1503	0.1120	-0.5101	0.0173	0.8526
4.17	-8.4376	-0.4102	4.4539	-0.0148	-0.0138	-0.0645	19.3340	3.4755	-18.1855	0.1121	-0.5101	0.0173	0.8526
4.18	-8.4225	-0.4373	4.4445	-0.0225	-0.0193	-0.0634	19.1619	3.3198	-18.3757	0.1121	-0.5101	0.0172	0.8526
4.19	-8.4362	-0.4707	4.4396	-0.0309	-0.0256	-0.0534	19.0732	3.2917	-18.6031	0.1121	-0.5101	0.0172	0.8526
4.2	-8.4467	-0.5009	4.4420	-0.0398	-0.0205	-0.0484	18.8924	3.2510	-18.4899	0.1121	-0.5101	0.0171	0.8526
4.21	-8.4422	-0.5309	4.4345	-0.0303	-0.0210	-0.0432	19.0274	3.2868	-18.4461	0.1120	-0.5100	0.0170	0.8526
4.22	-8.3857	-0.5391	4.4364	-0.0387	-0.0238	-0.0356	18.9594	3.1648	-18.3630	0.1119	-0.5101	0.0170	0.8527
4.23	-8.4707	-0.5453	4.4676	-0.0347	-0.0227	-0.0442	18.9471	3.1932	-18.3614	0.1119	-0.5101	0.0170	0.8527
4.24	-8.5186	-0.5592	4.4789	-0.0234	-0.0302	-0.0419	19.0207	3.1878	-18.3802	0.1118	-0.5100	0.0169	0.8527
4.25	-8.4247	-0.5654	4.4784	-0.0263	-0.0407	-0.0400	19.0065	3.1745	-18.3486	0.1118	-0.5099	0.0169	0.8527
4.26	-8.4295	-0.6038	4.4553	-0.0154	-0.0336	-0.0396	18.9703	3.3398	-18.2777	0.1118	-0.5098	0.0170	0.8528
4.27	-8.4278	-0.6112	4.4603	-0.0161	-0.0412	-0.0369	18.9073	3.1298	-18.4530	0.1117	-0.5098	0.0170	0.8529
4.28	-8.4180	-0.5941	4.4639	0.0021	-0.0486	-0.0344	18.8321	3.1385	-18.4721	0.1117	-0.5096	0.0171	0.8529
4.29	-8.3637	-0.5506	4.4678	0.0131	-0.0493	-0.0290	18.8270	3.4304	-18.4409	0.1117	-0.5095	0.0173	0.8531
4.3	-8.3798	-0.4978	4.4797	0.0126	-0.0417	-0.0331	18.8009	3.4323	-18.3742	0.1117	-0.5093	0.0175	0.8531
4.31	-8.3844	-0.4623	4.4887	0.0264	-0.0470	-0.0335	18.6804	3.2487	-18.5834	0.1118	-0.5092	0.0177	0.8533
4.32	-8.3554	-0.4395	4.4990	0.0214	-0.0475	-0.0353	18.9410	3.3708	-18.4531	0.1118	-0.5090	0.0179	0.8532
4.33	-8.3493	-0.4163	4.5090	0.0288	-0.0470	-0.0361	19.1447	3.5852	-18.4668	0.1119	-0.5089	0.0181	0.8534
4.34	-8.3607	-0.4137	4.5270	0.0321	-0.0455	-0.0458	19.0136	3.3052	-18.4715	0.1120	-0.5087	0.0183	0.8534
4.35	-8.3727	-0.3756	4.5298	0.0342	-0.0432	-0.0451	18.6869	3.2056	-18.4377	0.1122	-0.5085	0.0186	0.8534
4.36	-8.3408	-0.3306	4.5342	0.0309	-0.0518	-0.0438	18.9721	2.9569	-18.5931	0.1123	-0.5084	0.0188	0.8536
4.37	-8.3466	-0.3242	4.5421	0.0220	-0.0501	-0.0527	19.1175	3.0861	-18.3313	0.1124	-0.5082	0.0189	0.8536
4.38	-8.3286	-0.2932	4.5382	0.0184	-0.0373	-0.0567	18.8691	3.2628	-18.5245	0.1126	-0.5081	0.0191	0.8537
4.39	-8.3137	-0.2972	4.5365	0.0101	-0.0423	-0.0574	19.0298	2.9540	-18.5506	0.1127	-0.5080	0.0192	0.8537
4.4	-8.3065	-0.2952	4.5386	0.0100	-0.0405	-0.0588	19.0751	3.1827	-18.4616	0.1128	-0.5079	0.0193	0.8538
4.41	-8.3112	-0.2885	4.5379	0.0092	-0.0347	-0.0627	18.8078	3.2842	-18.5642	0.1129	-0.5078	0.0194	0.8538
4.42	-8.3137	-0.2868	4.5363	-0.0057	-0.0279	-0.0556	18.8417	3.0006	-18.3178	0.1130	-0.5077	0.0194	0.8538
4.43	-8.3172	-0.2936	4.5423	-0.0171	-0.0305	-0.0637	18.7128	2.9983	-18.4972	0.1131	-0.5077	0.0194	0.8539
4.44	-8.3446	-0.3276	4.5514	-0.0154	-0.0338	-0.0660	18.7494	3.1691	-18.2860	0.1132	-0.5076	0.0194	0.8539
4.45	-8.3274	-0.3665	4.5443	-0.0326	-0.0338	-0.0680	18.7115	3.1465	-18.5295	0.1132	-0.5076	0.0193	0.8540
4.46	-8.3269	-0.3996	4.5402	-0.0380	-0.0318	-0.0633	18.8300	2.9816	-18.5524	0.1132	-0.5075	0.0191	0.8539
4.47	-8.3559	-0.4152	4.5416	-0.0326	-0.0221	-0.0670	18.8136	3.1302	-18.5621	0.1133	-0.5075	0.0190	0.8540
4.48	-8.3504	-0.4329	4.5387	-0.0412	-0.0264	-0.0655	19.0119	3.2241	-18.5075	0.1133	-0.5075	0.0189	0.8540
4.49	-8.3378	-0.4332	4.5277	-0.0356	-0.0215	-0.0619	18.9203	3.0860	-18.4345	0.1133	-0.5075	0.0188	0.8540
4.5	-8.3499	-0.4401	4.5224	-0.0379	-0.0196	-0.0644	18.9207	3.1979	-18.4703	0.1133	-0.5074	0.0187	0.8540
4.51	-8.3497	-0.4300	4.5230	-0.0345	-0.0221	-0.0613	18.8784	3.2910	-18.5897	0.1134	-0.5074	0.0186	0.8540
4.52	-8.3390	-0.4248	4.5229	-0.0364	-0.0250	-0.0606	18.6140	3.2644	-18.4863	0.1134	-0.5074	0.0185	0.8540
4.53	-8.3366	-0.4488	4.5221	-0.0437	-0.0240	-0.0605	18.7346	3.2701	-18.4572	0.1134	-0.5074	0.0184	0.8540
4.54	-8.3352	-0.4580	4.5244	-0.0406	-0.0292	-0.0600	18.7488	3.2846	-18.3550	0.1134	-0.5074	0.0183	0.8541
4.55	-8.3388	-0.4764	4.5202	-0.0411	-0.0247	-0.0590	18.8533	3.0908	-18.5484	0.1134	-0.5073	0.0182	0.8540
4.56	-8.3422	-0.4865	4.5200	-0.0347	-0.0252	-0.0583	18.7959	3.1718	-18.4913	0.1134	-0.5074	0.0181	0.8541
4.57	-8.3456	-0.4995	4.5211	-0.0426	-0.0181	-0.0515	18.9283	3.1852	-18.4359	0.1133	-0.5073	0.0180	0.8540
4.58	-8.3559	-0.5127	4.5138	-0.0395	-0.0204	-0.0508	19.0230	3.0882	-18.4818	0.1133	-0.5073	0.0179	0.8541
4.59	-8.3615	-0.5225	4.5159	-0.0358	-0.0257	-0.0495	19.1550	3.0761	-18.6132	0.1133	-0.5073	0.0178	0.8541
4.6	-8.3755	-0.5157	4.5195	-0.0285	-0.0224	-0.0478	18.9021	3.2045	-18.6840	0.1132	-0.5073	0.0178	0.8541
4.61	-8.3737	-0.4939	4.5254	-0.0165	-0.0281	-0.0506	18.8355	3.0479	-18.3970	0.1133	-0.5073	0.0178	0.8542
4.62	-8.3763	-0.4785	4.5246	-0.0152	-0.0259	-0.0435	18.9056	3.0617	-18.3859	0.1132	-0.5072	0.0178	0.8542
4.63	-8.3725	-0.4620	4.5287	-0.0126	-0.0325	-0.0467	18.7764	3.2552	-18.5365	0.1133	-0.5072	0.0178	0.8543
4.64	-8.3557	-0.4389	4.5336	-0.0113	-0.0281	-0.0509	18.9282	3.0542	-18.6677	0.1133	-0.5070	0.0179	0.8542
4.65	-8.3550	-0.4200	4.5278	-0.0157	-0.0244	-0.0558	19.0243	3.1319	-18.3693	0.1133	-0.5071	0.0179	0.8543
4.66	-8.3520	-0.4070	4.5330	-0.0179	-0.0293	-0.0547	19.3158	3.4092	-17.8783	0.1134	-0.5070	0.0179	0.8543
4.67	-8.3587	-0.3999	4.5272	-0.0231	-0.0268	-0.0565	19.1392	3.5195	-18.0256	0.1134	-0.5070	0.0178	0.8543
4.68	-8.3720	-0.3956	4.5334	-0.0168	-0.0285	-0.0607	18.9197	3.4379	-18.2572	0.1134	-0.5069	0.0178	0.8543
4.69	-8.3718	-0.3987	4.5259	-0.0357	-0.0294	-0.0579	18.7999	3.3268	-18.4841	0.1134	-0.5069	0.0177	0.8543
4.7	-8.3655	-0.4069	4.5237	-0.0411	-0.0338	-0.0591	18.7408	3.2937	-18.5246	0.1134	-0.5068	0.0176	0.8544
4.71	-8.3452	-0.4184	4.5290	-0.0423	-0.0296	-0.0616	18.7640	3.4165	-18.5031	0.1134	-0.5067	0.0175	0.8543
4.72	-8.3422	-0.4359	4.5245	-0.0414	-0.0302	-0.0587	18.7591	3.4150	-18.3906	0.1134	-0.5068	0.0174	0.8545
4.73	-8.3484	-0.4462	4.5305	-0.0414	-0.0319	-0.0612	18.9017	3.0725	-18.7943	0.1134	-0.5067	0.0173	0.8545
4.74	-8.3578	-0.4649	4.5343	-0.0416	-0.0311	-0.0639	19.0114	3.1115	-18.8753	0.1135	-0.5067	0.0171	0.8545
4.75	-8.3458	-0.4846	4.5363	-0.0466	-0.0303	-0.0637	19.0374	3.2639	-18.4112	0.1134	-0.5066	0.0170	0.8545
4.76	-8.3419	-0.4949	4.5377	-0.0420	-0.0310	-0.0721	18.8782	3.0968	-18.5921	0.1135	-0.5066	0.0168	0.8545
4.77	-8.3374	-0.5092	4.5384	-0.0423	-0.0340	-0.0649	19.0259	3.2224	-18.5095	0.1135	-0.5065	0.0167	0.8546
4.78	-8.3430	-0.5179	4.5420	-0.0420	-0.0395	-0.0628	18.9546	3.2516	-18.5971	0.1135	-0.5064	0.0165	0.8546
4.79	-8.3475	-0.5327	4.5563	-0.0422	-0.0340	-0.0689	18.7051	3.1156	-18.4665	0.1136	-0.5064	0.0164	0.8547
4.8	-8.3534	-0.5476	4.5734	-0.0357	-0.0366	-0.0669	19.1079	3.1946	-18.4160	0.1136	-0.5063	0.0163	0.8547
4.81	-8.3544	-0.5502	4.5676	-0.0342	-0.0345	-0.0654	19.0462	3.2655	-18.5990	0.1136	-0.5063	0.0162	0.8548
4.82	-8.3111	-0.5506	4.5622	-0.0338	-0.0409	-0.0585	19.0111	3.1993	-18.6136	0.1136	-0.5061	0.0161	0.8547
4.83	-8.3182	-0.5283	4.5696	-0.0174	-0.0380	-0.0589	19.0263	3.4123	-18.4210	0.1137	-0.5061	0.0160	0.8548
4.84	-8.3281	-0.5009	4.5801	-0.0262	-0.0429	-0.0607	18.8449	3.3398	-18.3078	0.1137	-0.5060	0.0160	0.8549
4.85	-8.3108	-0.4865	4.5942	-0.0356	-0.0394	-0.0640	18.8583	3.3903	-18.6169	0.1137	-0.5058	0.0159	0.8549
4.86	-8.2843	-0.5019	4.5948	-0.0375	-0.0418	-0.0652	18.7316	3.5102	-18.6034	0.1138	-0.5058	0.0157	0.8551
4.87	-8.2918	-0.5467	4.6188	-0.0401	-0.0366	-0.0658	18.7965	3.3771	-18.7311	0.1138	-0.5057	0.0156	0.8550
4.88	-8.3564	-0.5714	4.6400	-0.0299	-0.0316	-0.0644	18.8759	3.4231	-18.6263	0.1139	-0.5057	0.0155	0.8551
4.89	-8.3304	-0.5852	4.6365	-0.0325	-0.0381	-0.0613	18.8113	3.4099	-18.4898	0.1139	-0.5055	0.0154	0.8550
4.9	-8.2720	-0.6153	4.6167	-0.0177	-0.0329	-0.0586	19.0076	3.4008	-18.5220	0.1139	-0.5055	0.0154	0.8551
4.91	-8.2427	-0.6174	4.6046	-0.0149	-0.0372	-0.0470	18.9786	3.4471	-18.6490	0.1139	-0.5054	0.0154	0.8552
4.92	-8.2190	-0.5923	4.6001	-0.0013	-0.0358	-0.0371	18.9155	3.2587	-18.4805	0.1139	-0.5053	0.0155	0.8552
4.93	-8.2131	-0.5480	4.6011	0.0094	-0.0268	-0.0400	18.9400	3.1295	-18.6230	0.1140	-0.5053	0.0157	0.8553
4.94	-8.2127	-0.5051	4.5935	0.0063	-0.0150	-0.0372	18.9356	3.1473	-18.4101	0.1140	-0.5052	0.0158	0.8553
4.95	-8.2352	-0.4853	4.5857	0.0090	-0.0093	-0.0390	18.9152	3.1726	-18.4753	0.1140	-0.5053	0.0160	0.8553
4.96	-8.2600	-0.4711	4.5818	0.0105	-0.0033	-0.0431	19.0353	3.0289	-18.4947	0.1141	-0.5053	0.0161	0.8551
4.97	-8.2781	-0.4669	4.5814	0.0081	-0.0009	-0.0447	18.8947	3.3203	-18.6348	0.1141	-0.5054	0.0163	0.8552
4.98	-8.2835	-0.4643	4.5614	0.0078	0.0035	-0.0571	19.0015	3.2538	-18.8528	0.1142	-0.5054	0.0164	0.8551
4.99	-8.2875	-0.4506	4.5562	0.0050	0.0024	-0.0597	19.0109	3.3036	-18.6644	0.1143	-0.5055	0.0165	0.8551
5	-8.3325	-0.4311	4.5579	0.0000	0.0054	-0.0587	19.1440	3.3259	-18.7094	0.1144	-0.5056	0.0166	0.8550
5.01	-8.3559	-0.4060	4.5579	-0.0016	0.0064	-0.0643	19.0497	3.1044	-18.7741	0.1145	-0.5057	0.0166	0.8549
5.02	-8.3635	-0.4106	4.5574	-0.0070	0.0071	-0.0671	18.8684	3.3469	-18.6035	0.1147	-0.5058	0.0167	0.8549
5.03	-8.3828	-0.4263	4.5675	-0.0173	0.0076	-0.0736	18.6705	3.3035	-18.5909	0.1148	-0.5059	0.0166	0.8547
5.04	-8.3859	-0.4439	4.5689	-0.0179	-0.0107	-0.0638	18.6648	3.3384	-18.5070	0.1148	-0.5060	0.0166	0.8548
5.05	-8.3725	-0.4617	4.5686	-0.0352	-0.0124	-0.0685	18.9613	3.4482	-18.6388	0.1149	-0.5059	0.0165	0.8547
5.06	-8.3781	-0.4787	4.5703	-0.0381	-0.0106	-0.0647	18.8681	3.3300	-18.5254	0.1149	-0.5060	0.0164	0.8548
5.07	-8.3738	-0.5000	4.5564	-0.0389	-0.0045	-0.0607	18.7412	3.3231	-18.4681	0.1149	-0.5060	0.0163	0.8546
5.08	-8.3811	-0.5206	4.5528	-0.0417	-0.0117	-0.0563	18.7643	3.1985	-18.6912	0.1149	-0.5061	0.0162	0.8546
5.09	-8.3277	-0.5355	4.5306	-0.0380	-0.0166	-0.0490	18.9287	3.2909	-18.5798	0.1149	-0.5061	0.0161	0.8546
5.1	-8.3015	-0.5393	4.5420	-0.0384	-0.0163	-0.0503	18.9323	3.4025	-18.4592	0.1148	-0.5061	0.0161	0.8546
5.11	-8.4295	-0.5481	4.5698	-0.0422	-0.0193	-0.0499	18.9435	3.4392	-18.6396	0.1148	-0.5062	0.0160	0.8547
5.12	-8.3702	-0.5576	4.5860	-0.0418	-0.0274	-0.0504	19.0604	3.3461	-18.4278	0.1147	-0.5061	0.0159	0.8546
5.13	-8.3175	-0.5911	4.5718	-0.0381	-0.0228	-0.0589	18.9577	3.1365	-18.6217	0.1147	-0.5061	0.0158	0.8547
5.14	-8.3332	-0.6201	4.5663	-0.0373	-0.0214	-0.0538	18.8846	3.1376	-18.4841	0.1147	-0.5061	0.0157	0.8546
5.15	-8.3365	-0.6132	4.5761	-0.0275	-0.0227	-0.0493	19.3494	3.2948	-18.2899	0.1147	-0.5061	0.0157	0.8547
5.16	-8.3079	-0.5935	4.5786	-0.0140	-0.0252	-0.0439	19.6554	3.4763	-18.4970	0.1147	-0.5060	0.0157	0.8547
5.17	-8.3026	-0.5659	4.5832	-0.0163	-0.0289	-0.0429	19.4096	3.3295	-18.5290	0.1147	-0.5060	0.0157	0.8547
5.18	-8.3183	-0.5604	4.5879	-0.0164	-0.0282	-0.0450	19.2114	3.4644	-18.5803	0.1147	-0.5059	0.0158	0.8548
5.19	-8.3336	-0.5609	4.6014	-0.0167	-0.0281	-0.0491	18.8717	3.4619	-18.5310	0.1147	-0.5059	0.0158	0.8548
5.2	-8.3131	-0.5578	4.5999	-0.0156	-0.0270	-0.0472	18.8385	3.4297	-18.8208	0.1147	-0.5059	0.0158	0.8549
5.21	-8.3093	-0.5579	4.6023	-0.0164	-0.0281	-0.0500	19.1119	3.4673	-18.4269	0.1147	-0.5058	0.0158	0.8548
5.22	-8.3070	-0.5520	4.6083	-0.0156	-0.0256	-0.0493	19.0907	3.3365	-18.4923	0.1147	-0.5058	0.0158	0.8549
5.23	-8.2992	-0.5600	4.5976	-0.0151	-0.0226	-0.0470	18.7384	3.3879	-18.5532	0.1147	-0.5057	0.0159	0.8549
5.24	-8.2969	-0.5671	4.6027	-0.0138	-0.0231	-0.0503	18.8127	3.2872	-18.6264	0.1147	-0.5057	0.0159	0.8549
5.25	-8.3089	-0.5888	4.5993	-0.0137	-0.0171	-0.0477	18.8016	3.2521	-18.6445	0.1147	-0.5057	0.0159	0.8549
5.26	-8.2918	-0.5912	4.5974	-0.0109	-0.0192	-0.0506	18.8841	3.4363	-18.6632	0.1148	-0.5057	0.0160	0.8549
5.27	-8.2831	-0.5929	4.5972	-0.0042	-0.0211	-0.0510	19.0402	3.4050	-18.5782	0.1148	-0.5057	0.0160	0.8549
5.28	-8.2901	-0.5903	4.5940	0.0008	-0.0232	-0.0426	18.9863	3.3359	-18.5458	0.1148	-0.5056	0.0161	0.8549
5.29	-8.2933	-0.5827	4.5930	0.0059	-0.0276	-0.0416	18.9897	3.3931	-18.5380	0.1149	-0.5056	0.0162	0.8550
5.3	-8.2786	-0.5758	4.5904	0.0069	-0.0229	-0.0425	19.0554	3.1602	-18.5996	0.1149	-0.5055	0.0164	0.8550
5.31	-8.2840	-0.5708	4.5961	0.0107	-0.0240	-0.0419	19.3082	3.0668	-18.6336	0.1150	-0.5055	0.0165	0.8551
5.32	-8.2927	-0.5667	4.5915	0.0168	-0.0198	-0.0424	19.1581	3.2103	-18.7449	0.1150	-0.5054	0.0167	0.8549
5.33	-8.3068	-0.5573	4.6044	0.0217	-0.0130	-0.0450	19.0579	3.0571	-18.6959	0.1151	-0.5054	0.0169	0.8550
5.34	-8.3143	-0.5466	4.6055	0.0239	-0.0116	-0.0423	18.9543	3.1569	-18.6308	0.1152	-0.5054	0.0171	0.8550
5.35	-8.3195	-0.5318	4.5923	0.0383	-0.0084	-0.0425	19.1032	3.2638	-18.5751	0.1153	-0.5054	0.0174	0.8549
5.36	-8.3146	-0.5193	4.5911	0.0276	-0.0088	-0.0453	19.0689	3.3978	-18.4325	0.1155	-0.5055	0.0176	0.8550
5.37	-8.3133	-0.5026	4.5929	0.0280	-0.0126	-0.0454	19.2724	3.3152	-18.4689	0.1155	-0.5054	0.0178	0.8549
5.38	-8.3150	-0.4910	4.5867	0.0370	-0.0080	-0.0434	18.9430	3.2947	-18.4758	0.1157	-0.5055	0.0181	0.8549
5.39	-8.3134	-0.4687	4.5793	0.0358	-0.0030	-0.0417	18.9009	3.5106	-18.7989	0.1158	-0.5054	0.0184	0.8548
5.4	-8.3235	-0.4633	4.5808	0.0345	0.0029	-0.0449	19.0017	3.2613	-18.5458	0.1159	-0.5055	0.0186	0.8548
5.41	-8.3209	-0.4550	4.5752	0.0333	-0.0031	-0.0467	19.0617	3.3907	-18.4667	0.1160	-0.5056	0.0189	0.8547
5.42	-8.3213	-0.4504	4.5718	0.0347	-0.0058	-0.0481	19.0264	3.4358	-18.6621	0.1162	-0.5056	0.0191	0.8547
5.43	-8.3443	-0.4432	4.5804	0.0322	-0.0056	-0.0475	18.9897	3.0357	-18.6426	0.1163	-0.5056	0.0194	0.8547
5.44	-8.3356	-0.4338	4.5892	0.0311	-0.0173	-0.0493	18.9754	3.1337	-18.4692	0.1164	-0.5056	0.0196	0.8547
5.45	-8.3217	-0.4298	4.5930	0.0337	-0.0106	-0.0519	18.8832	3.0693	-18.5025	0.1166	-0.5056	0.0198	0.8547
5.46	-8.2915	-0.4241	4.5832	0.0319	-0.0094	-0.0481	18.8539	3.1915	-18.6358	0.1167	-0.5055	0.0201	0.8546
5.47	-8.2924	-0.4169	4.5924	0.0370	-0.0083	-0.0435	18.7711	3.2912	-18.7893	0.1168	-0.5056	0.0203	0.8546
5.48	-8.2948	-0.3976	4.5963	0.0206	-0.0138	-0.0497	18.9176	3.2610	-18.4584	0.1169	-0.5056	0.0205	0.8546
5.49	-8.2617	-0.3726	4.5891	0.0218	-0.0087	-0.0482	19.1016	3.3011	-18.6133	0.1170	-0.5056	0.0207	0.8546
5.5	-8.2419	-0.3568	4.5946	0.0157	-0.0034	-0.0452	19.0019	3.1619	-18.6386	0.1171	-0.5056	0.0209	0.8545
5.51	-8.2598	-0.3386	4.6010	0.0119	0.0026	-0.0474	19.2088	3.0973	-18.5525	0.1172	-0.5057	0.0210	0.8545
5.52	-8.2645	-0.3333	4.5987	0.0016	0.0093	-0.0515	18.9818	3.0818	-18.6352	0.1172	-0.5058	0.0212	0.8544
5.53	-8.2693	-0.3487	4.6017	-0.0027	0.0167	-0.0551	19.0115	3.1953	-18.4214	0.1173	-0.5059	0.0212	0.8542
5.54	-8.2689	-0.3658	4.5971	-0.0090	0.0245	-0.0563	18.8864	3.1759	-18.3676	0.1174	-0.5061	0.0213	0.8543
5.55	-8.2704	-0.3903	4.5867	-0.0171	0.0204	-0.0550	18.9232	3.0771	-18.3572	0.1174	-0.5062	0.0213	0.8541
5.56	-8.2618	-0.4056	4.5759	-0.0158	0.0222	-0.0536	18.8878	3.1135	-18.3565	0.1174	-0.5064	0.0214	0.8541
5.57	-8.2776	-0.4114	4.5739	-0.0173	0.0261	-0.0476	19.0087	3.0866	-18.4564	0.1174	-0.5065	0.0214	0.8538
5.58	-8.2932	-0.4106	4.5639	-0.0155	0.0312	-0.0510	19.1089	3.3511	-18.3377	0.1174	-0.5068	0.0215	0.8538
5.59	-8.3038	-0.4123	4.5576	-0.0179	0.0375	-0.0553	18.8808	3.1785	-18.3935	0.1175	-0.5070	0.0215	0.8536
5.6	-8.3179	-0.4244	4.5546	-0.0211	0.0362	-0.0564	19.0578	3.2727	-18.2681	0.1175	-0.5072	0.0215	0.8534
5.61	-8.3120	-0.4241	4.5400	-0.0236	0.0370	-0.0494	19.2281	3.2840	-18.2754	0.1175	-0.5075	0.0215	0.8534
5.62	-8.3180	-0.4268	4.5207	-0.0224	0.0395	-0.0549	18.9714	3.1412	-18.4076	0.1175	-0.5077	0.0215	0.8532
5.63	-8.3275	-0.4288	4.5093	-0.0300	0.0412	-0.0584	19.1051	3.2750	-18.2818	0.1175	-0.5080	0.0215	0.8531
5.64	-8.3579	-0.4261	4.4996	-0.0258	0.0441	-0.0605	18.9684	3.2794	-18.2655	0.1175	-0.5082	0.0215	0.8528
5.65	-8.3909	-0.4270	4.4935	-0.0284	0.0460	-0.0568	19.0621	3.2800	-18.2794	0.1176	-0.5085	0.0215	0.8527
5.66	-8.4103	-0.4307	4.4977	-0.0240	0.0417	-0.0596	19.5356	3.2780	-18.0756	0.1176	-0.5088	0.0215	0.8526
5.67	-8.4361	-0.4609	4.4863	-0.0279	0.0367	-0.0636	19.2784	3.3078	-18.1756	0.1176	-0.5090	0.0215	0.8524
5.68	-8.4155	-0.4767	4.4824	-0.0212	0.0312	-0.0615	19.1843	3.2507	-18.4050	0.1177	-0.5092	0.0215	0.8523
5.69	-8.4138	-0.4716	4.4740	-0.0223	0.0328	-0.0598	19.1038	3.1649	-18.3269	0.1177	-0.5094	0.0215	0.8521
5.7	-8.4015	-0.4717	4.4630	-0.0304	0.0221	-0.0629	19.1094	3.1377	-18.3789	0.1177	-0.5096	0.0214	0.8521
5.71	-8.3899	-0.4813	4.4659	-0.0313	0.0238	-0.0622	19.1204	3.2497	-18.4448	0.1177	-0.5097	0.0213	0.8519
5.72	-8.3693	-0.5089	4.4586	-0.0284	0.0268	-0.0606	19.0920	3.3670	-18.2577	0.1178	-0.5100	0.0213	0.8518
5.73	-8.3916	-0.5331	4.4882	-0.0278	0.0244	-0.0618	18.9950	3.3123	-18.2633	0.1178	-0.5102	0.0213	0.8517
5.74	-8.4589	-0.5345	4.4980	-0.0162	0.0283	-0.0582	19.0486	3.3954	-18.3640	0.1179	-0.5104	0.0213	0.8516
5.75	-8.4057	-0.5301	4.4836	-0.0148	0.0181	-0.0547	18.9106	3.0133	-18.1868	0.1179	-0.5105	0.0213	0.8515
5.76	-8.3601	-0.5502	4.4617	-0.0148	0.0192	-0.0528	18.8211	3.1494	-18.3873	0.1179	-0.5107	0.0214	0.8514
5.77	-8.3563	-0.5475	4.4444	-0.0084	0.0236	-0.0539	18.8582	3.2894	-18.2106	0.1180	-0.5108	0.0214	0.8513
5.78	-8.3467	-0.5227	4.4401	-0.0051	0.0221	-0.0467	18.8243	3.2248	-18.3268	0.1180	-0.5109	0.0215	0.8511
5.79	-8.3546	-0.4749	4.4393	0.0059	0.0320	-0.0444	18.8667	3.3640	-18.4067	0.1180	-0.5112	0.0217	0.8511
5.8	-8.3705	-0.4325	4.4244	0.0004	0.0371	-0.0482	19.1072	3.3324	-18.1600	0.1181	-0.5114	0.0218	0.8509
5.81	-8.3746	-0.4248	4.4177	-0.0006	0.0321	-0.0502	19.1145	3.3154	-18.3148	0.1181	-0.5116	0.0219	0.8509
5.82	-8.3953	-0.4275	4.4124	-0.0137	0.0351	-0.0529	19.1115	3.0193	-18.4098	0.1182	-0.5118	0.0220	0.8506
5.83	-8.4201	-0.4284	4.4073	-0.0105	0.0350	-0.0539	18.8687	3.2543	-18.5299	0.1182	-0.5120	0.0220	0.8505
5.84	-8.4150	-0.4139	4.4063	-0.0076	0.0345	-0.0563	19.0137	3.3593	-18.2855	0.1183	-0.5122	0.0221	0.8504
5.85	-8.4241	-0.4012	4.4053	-0.0081	0.0326	-0.0572	19.0202	3.3472	-18.1045	0.1183	-0.5124	0.0222	0.8502
5.86	-8.4335	-0.3927	4.3998	-0.0111	0.0270	-0.0611	19.0268	3.2251	-18.3655	0.1184	-0.5127	0.0222	0.8502
5.87	-8.4504	-0.3884	4.3906	-0.0151	0.0349	-0.0608	19.2940	3.0239	-18.4096	0.1184	-0.5128	0.0223	0.8500
5.88	-8.4436	-0.3842	4.3860	-0.0178	0.0307	-0.0618	19.2445	3.3664	-18.1934	0.1185	-0.5131	0.0223	0.8499
5.89	-8.4657	-0.3801	4.3789	-0.0295	0.0288	-0.0637	19.0822	3.2470	-18.3485	0.1185	-0.5132	0.0222	0.8497
5.9	-8.4884	-0.3905	4.3804	-0.0386	0.0251	-0.0612	19.0279	3.0329	-18.2675	0.1185	-0.5135	0.0221	0.8496
5.91	-8.4939	-0.3992	4.3889	-0.0389	0.0220	-0.0613	19.1499	3.1196	-18.2584	0.1185	-0.5136	0.0221	0.8495
5.92	-8.4924	-0.4032	4.3803	-0.0421	0.0177	-0.0562	19.0254	3.2636	-18.3100	0.1185	-0.5138	0.0220	0.8494
5.93	-8.5105	-0.4143	4.3726	-0.0452	0.0162	-0.0578	19.0037	3.2359	-17.9423	0.1185	-0.5140	0.0219	0.8493
5.94	-8.5186	-0.4304	4.3747	-0.0441	0.0085	-0.0551	19.1899	3.2933	-18.4542	0.1185	-0.5141	0.0218	0.8492
5.95	-8.5248	-0.4518	4.3660	-0.0587	0.0030	-0.0531	18.9385	3.3498	-18.4109	0.1184	-0.5142	0.0216	0.8492
5.96	-8.4687	-0.4745	4.3452	-0.0515	-0.0006	-0.0545	19.0196	3.3444	-18.1862	0.1183	-0.5142	0.0215	0.8491
5.97	-8.4521	-0.4853	4.3660	-0.0563	-0.0013	-0.0593	19.1086	3.3168	-18.4625	0.1183	-0.5144	0.0213	0.8491
5.98	-8.5713	-0.5179	4.3796	-0.0570	-0.0011	-0.0638	18.8509	3.4033	-18.2421	0.1182	-0.5145	0.0212	0.8491
5.99	-8.4845	-0.5395	4.3846	-0.0622	-0.0182	-0.0618	19.0448	3.3791	-18.4621	0.1182	-0.5145	0.0210	0.8491
6	-8.4359	-0.5865	4.3719	-0.0596	-0.0181	-0.0648	19.0102	3.2233	-18.1881	0.1181	-0.5145	0.0207	0.8490
6.01	-8.4390	-0.6290	4.3644	-0.0483	-0.0161	-0.0621	18.9042	3.3910	-18.1369	0.1181	-0.5145	0.0206	0.8490
6.02	-8.4295	-0.6431	4.3791	-0.0420	-0.0176	-0.0606	18.9858	3.4829	-18.3305	0.1181	-0.5146	0.0205	0.8491
6.03	-8.4048	-0.6243	4.3796	-0.0407	-0.0228	-0.0514	19.1193	3.5554	-18.3176	0.1181	-0.5145	0.0204	0.8490
6.04	-8.4137	-0.5956	4.3898	-0.0395	-0.0206	-0.0483	19.1112	3.2692	-18.3338	0.1180	-0.5146	0.0203	0.8491
6.05	-8.4349	-0.5869	4.3925	-0.0276	-0.0184	-0.0501	19.1183	3.2845	-18.2934	0.1180	-0.5145	0.0203	0.8491
6.06	-8.4284	-0.5883	4.3958	-0.0219	-0.0232	-0.0523	19.3237	3.3805	-18.4041	0.1180	-0.5145	0.0202	0.8492
6.07	-8.4166	-0.5906	4.3844	-0.0166	-0.0225	-0.0508	19.2421	3.2243	-18.4203	0.1180	-0.5144	0.0203	0.8491
6.08	-8.4218	-0.5904	4.3956	-0.0199	-0.0256	-0.0593	19.2587	3.2809	-18.1590	0.1181	-0.5144	0.0202	0.8491
6.09	-8.4311	-0.5930	4.3927	-0.0192	-0.0211	-0.0624	19.1953	3.1960	-18.3082	0.1181	-0.5144	0.0202	0.8491
6.1	-8.4233	-0.6021	4.3903	-0.0108	-0.0222	-0.0596	19.0587	3.1309	-18.3106	0.1182	-0.5144	0.0202	0.8491
6.11	-8.4200	-0.5979	4.3850	-0.0104	-0.0214	-0.0637	19.3287	3.3876	-18.4313	0.1183	-0.5144	0.0202	0.8492
6.12	-8.4150	-0.6022	4.3835	-0.0017	-0.0212	-0.0567	19.2967	3.2954	-18.3919	0.1184	-0.5143	0.0203	0.8491
6.13	-8.4310	-0.6039	4.3926	0.0056	-0.0230	-0.0530	19.2102	3.2208	-18.2176	0.1185	-0.5143	0.0204	0.8492
6.14	-8.4351	-0.5945	4.3892	0.0049	-0.0178	-0.0504	19.2813	3.3567	-18.2414	0.1185	-0.5143	0.0205	0.8491
6.15	-8.4244	-0.5782	4.3816	0.0087	-0.0188	-0.0544	19.3995	3.4411	-18.2016	0.1186	-0.5143	0.0206	0.8492
6.16	-8.4178	-0.5680	4.3821	0.0097	-0.0194	-0.0499	19.5680	3.6100	-18.1218	0.1187	-0.5142	0.0207	0.8491
6.17	-8.4178	-0.5508	4.3856	0.0092	-0.0201	-0.0507	19.4334	3.5476	-18.1400	0.1188	-0.5142	0.0208	0.8491
6.18	-8.4333	-0.5367	4.3886	0.0137	-0.0206	-0.0482	19.1551	3.4138	-18.1449	0.1189	-0.5142	0.0210	0.8492
6.19	-8.4413	-0.5180	4.3924	0.0146	-0.0219	-0.0438	18.9308	3.3789	-18.2949	0.1189	-0.5141	0.0212	0.8492
6.2	-8.4356	-0.5079	4.3877	0.0102	-0.0214	-0.0431	18.7765	3.3442	-18.2961	0.1190	-0.5141	0.0213	0.8492
6.21	-8.4447	-0.4981	4.3931	0.0105	-0.0190	-0.0468	18.9584	3.3657	-18.2743	0.1191	-0.5140	0.0214	0.8491
6.22	-8.4664	-0.4863	4.3908	0.0109	-0.0226	-0.0396	18.8908	3.3737	-18.3017	0.1191	-0.5140	0.0216	0.8492
6.23	-8.4759	-0.4813	4.3808	0.0101	-0.0272	-0.0401	19.1475	3.3233	-18.0775	0.1192	-0.5140	0.0217	0.8492
6.24	-8.4685	-0.4768	4.3793	0.0095	-0.0324	-0.0383	19.2108	3.2542	-18.2357	0.1192	-0.5139	0.0219	0.8493
6.25	-8.4570	-0.4733	4.3881	0.0107	-0.0340	-0.0439	19.0967	3.2922	-18.4098	0.1192	-0.5138	0.0220	0.8493
6.26	-8.4678	-0.4717	4.3937	0.0107	-0.0367	-0.0456	19.2051	3.2603	-18.3469	0.1193	-0.5137	0.0222	0.8493
6.27	-8.4653	-0.4798	4.4004	0.0072	-0.0422	-0.0486	19.2061	3.3036	-18.1956	0.1194	-0.5136	0.0223	0.8494
6.28	-8.4337	-0.4818	4.3993	0.0067	-0.0375	-0.0470	19.0916	3.1813	-18.2463	0.1194	-0.5134	0.0224	0.8494
6.29	-8.4279	-0.4771	4.4023	0.0102	-0.0445	-0.0486	19.1235	3.1978	-18.4294	0.1195	-0.5134	0.0225	0.8496
6.3	-8.4190	-0.4637	4.4183	0.0063	-0.0501	-0.0482	19.1837	3.1564	-18.4341	0.1196	-0.5132	0.0226	0.8496
6.31	-8.4251	-0.4472	4.4281	0.0072	-0.0413	-0.0490	19.0395	3.0576	-18.0543	0.1197	-0.5131	0.0227	0.8497
6.32	-8.4314	-0.4319	4.4382	-0.0018	-0.0439	-0.0579	19.2467	3.2239	-18.2165	0.1198	-0.5129	0.0228	0.8497
6.33	-8.4238	-0.4299	4.4434	-0.0086	-0.0508	-0.0530	18.9978	3.2660	-18.2725	0.1198	-0.5128	0.0228	0.8498
6.34	-8.3952	-0.4351	4.4551	-0.0162	-0.0460	-0.0546	18.9320	3.3292	-18.3456	0.1199	-0.5127	0.0228	0.8499
6.35	-8.3928	-0.4476	4.4669	-0.0176	-0.0470	-0.0528	19.1433	3.3802	-18.3877	0.1199	-0.5125	0.0228	0.8499
6.36	-8.3916	-0.4567	4.4668	-0.0230	-0.0445	-0.0512	18.8778	3.3543	-18.2875	0.1199	-0.5124	0.0228	0.8501
6.37	-8.3657	-0.4680	4.4707	-0.0233	-0.0418	-0.0490	18.9656	3.3645	-18.2383	0.1199	-0.5123	0.0227	0.8501
6.38	-8.3600	-0.4835	4.4730	-0.0150	-0.0431	-0.0485	19.0577	3.3975	-18.2115	0.1199	-0.5122	0.0227	0.8502
6.39	-8.3520	-0.4974	4.4712	-0.0183	-0.0416	-0.0510	18.8865	3.5892	-18.5158	0.1199	-0.5120	0.0227	0.8502
6.4	-8.3486	-0.5083	4.4735	-0.0264	-0.0401	-0.0491	18.9789	3.3592	-18.2120	0.1199	-0.5120	0.0227	0.8503
6.41	-8.3575	-0.5193	4.4901	-0.0238	-0.0473	-0.0477	18.9651	3.2759	-18.1921	0.1199	-0.5119	0.0227	0.8504
6.42	-8.3679	-0.5341	4.4907	-0.0245	-0.0464	-0.0436	18.9581	3.1909	-18.4867	0.1199	-0.5117	0.0227	0.8504
6.43	-8.3667	-0.5389	4.4977	-0.0173	-0.0452	-0.0451	19.1501	3.2042	-18.4334	0.1199	-0.5116	0.0227	0.8505
6.44	-8.3496	-0.5427	4.4935	-0.0206	-0.0376	-0.0438	19.0524	3.1322	-18.3988	0.1198	-0.5115	0.0227	0.8506
6.45	-8.3413	-0.5504	4.4963	-0.0174	-0.0383	-0.0464	19.1970	3.1495	-18.4491	0.1198	-0.5115	0.0227	0.8507
6.46	-8.3515	-0.5588	4.5044	-0.0111	-0.0354	-0.0469	19.1111	3.2000	-18.2328	0.1198	-0.5113	0.0227	0.8506
6.47	-8.3414	-0.5541	4.4922	-0.0100	-0.0380	-0.0491	18.8760	3.1991	-18.4290	0.1199	-0.5113	0.0228	0.8508
6.48	-8.3162	-0.5377	4.4889	0.0009	-0.0356	-0.0425	18.6404	3.1228	-18.4745	0.1199	-0.5112	0.0228	0.8508
6.49	-8.3047	-0.5191	4.4938	0.0067	-0.0337	-0.0495	19.0117	3.1533	-18.4571	0.1200	-0.5111	0.0230	0.8508
6.5	-8.3219	-0.4993	4.4983	0.0071	-0.0303	-0.0465	18.9947	3.2049	-18.4792	0.1200	-0.5110	0.0231	0.8508
6.51	-8.3512	-0.4792	4.5167	0.0070	-0.0262	-0.0520	18.9437	3.1830	-18.3056	0.1201	-0.5109	0.0232	0.8509
6.52	-8.3765	-0.4719	4.5277	0.0018	-0.0234	-0.0553	18.9973	3.3709	-18.3103	0.1202	-0.5109	0.0233	0.8509
6.53	-8.3572	-0.4690	4.5173	0.0078	-0.0222	-0.0532	18.8143	3.3563	-18.5146	0.1203	-0.5108	0.0234	0.8508
6.54	-8.3566	-0.4641	4.5109	0.0036	-0.0211	-0.0525	18.8258	3.2720	-18.2128	0.1204	-0.5109	0.0235	0.8509
6.55	-8.3746	-0.4593	4.4994	0.0017	-0.0215	-0.0546	18.7348	3.2587	-18.2180	0.1205	-0.5108	0.0235	0.8509
6.56	-8.3609	-0.4549	4.4954	0.0048	-0.0251	-0.0468	18.9493	3.3365	-18.3648	0.1205	-0.5108	0.0237	0.8510
6.57	-8.3241	-0.4748	4.4914	-0.0059	-0.0198	-0.0536	18.9102	3.4697	-18.4911	0.1206	-0.5107	0.0237	0.8509
6.58	-8.3425	-0.5041	4.5141	-0.0018	-0.0185	-0.0523	18.8174	3.2032	-18.3171	0.1206	-0.5107	0.0238	0.8509
6.59	-8.4109	-0.5128	4.5400	-0.0019	-0.0203	-0.0508	18.8445	3.1800	-18.2778	0.1207	-0.5107	0.0239	0.8509
6.6	-8.4098	-0.5080	4.5408	-0.0045	-0.0292	-0.0416	18.8071	3.1959	-18.2641	0.1207	-0.5106	0.0239	0.8509
6.61	-8.3572	-0.5358	4.5128	-0.0004	-0.0272	-0.0407	19.0547	3.1700	-18.4081	0.1207	-0.5106	0.0241	0.8511
6.62	-8.3304	-0.5559	4.4952	0.0082	-0.0259	-0.0377	19.1141	3.2296	-18.6118	0.1207	-0.5105	0.0242	0.8510
6.63	-8.3157	-0.5393	4.4898	0.0104	-0.0239	-0.0363	19.0950	3.2696	-18.4878	0.1208	-0.5105	0.0244	0.8511
6.64	-8.2943	-0.4913	4.4898	0.0115	-0.0228	-0.0352	19.0980	2.9523	-18.3551	0.1208	-0.5104	0.0245	0.8510
6.65	-8.2869	-0.4486	4.4842	0.0095	-0.0209	-0.0401	19.2150	3.1899	-18.2667	0.1208	-0.5104	0.0247	0.8511
6.66	-8.3094	-0.4386	4.4860	0.0094	-0.0080	-0.0440	19.3341	3.2934	-18.2755	0.1209	-0.5104	0.0248	0.8510
6.67	-8.3333	-0.4400	4.4747	0.0085	-0.0008	-0.0483	19.1229	3.3123	-18.3248	0.1210	-0.5104	0.0250	0.8510
6.68	-8.3300	-0.4336	4.4733	0.0093	0.0010	-0.0617	18.9164	3.3818	-18.2163	0.1211	-0.5105	0.0251	0.8510
6.69	-8.3357	-0.4223	4.4621	0.0097	0.0092	-0.0608	18.8547	3.3789	-18.4203	0.1212	-0.5106	0.0252	0.8509
6.7	-8.3567	-0.4161	4.4497	0.0102	0.0126	-0.0607	18.8754	3.3767	-18.3819	0.1213	-0.5107	0.0253	0.8508
6.71	-8.3995	-0.4070	4.4448	0.0082	0.0125	-0.0614	19.0673	3.2006	-18.2111	0.1214	-0.5108	0.0254	0.8506
6.72	-8.4177	-0.4016	4.4387	0.0059	0.0141	-0.0590	18.9755	3.4905	-18.2313	0.1216	-0.5109	0.0255	0.8506
6.73	-8.4366	-0.4061	4.4319	-0.0070	0.0059	-0.0618	18.7948	3.4716	-18.4442	0.1216	-0.5110	0.0256	0.8505
6.74	-8.4304	-0.4116	4.4339	-0.0094	0.0029	-0.0584	18.9382	3.3293	-18.5621	0.1217	-0.5111	0.0256	0.8505
6.75	-8.4428	-0.4295	4.4414	-0.0149	0.0039	-0.0564	18.8575	3.2298	-18.2824	0.1218	-0.5112	0.0257	0.8504
6.76	-8.4514	-0.4467	4.4409	-0.0184	-0.0066	-0.0557	18.8011	3.2431	-18.4793	0.1218	-0.5112	0.0257	0.8504
6.77	-8.4485	-0.4678	4.4413	-0.0158	-0.0090	-0.0493	18.9740	3.4241	-18.5255	0.1218	-0.5113	0.0257	0.8504
6.78	-8.4540	-0.4750	4.4385	-0.0253	-0.0101	-0.0492	19.0593	3.3385	-18.4979	0.1218	-0.5112	0.0257	0.8503
6.79	-8.4506	-0.4941	4.4383	-0.0208	-0.0214	-0.0474	18.7944	3.2102	-18.4201	0.1218	-0.5113	0.0257	0.8504
6.8	-8.4553	-0.5048	4.4392	-0.0280	-0.0260	-0.0463	19.1863	3.1154	-18.5323	0.1218	-0.5112	0.0257	0.8504
6.81	-8.4425	-0.5246	4.4385	-0.0213	-0.0243	-0.0456	19.1692	3.2333	-18.4807	0.1218	-0.5112	0.0257	0.8505
6.82	-8.4204	-0.5361	4.4384	-0.0160	-0.0251	-0.0403	18.8968	3.2421	-18.6211	0.1217	-0.5111	0.0257	0.8504
6.83	-8.4160	-0.5304	4.4313	-0.0168	-0.0240	-0.0402	18.8460	3.1177	-18.3346	0.1217	-0.5111	0.0257	0.8505
6.84	-8.3525	-0.5008	4.4411	-0.0158	-0.0277	-0.0417	19.1998	3.1954	-18.5159	0.1217	-0.5111	0.0258	0.8505
6.85	-8.4278	-0.4858	4.4710	-0.0157	-0.0250	-0.0461	19.1477	3.3408	-18.4252	0.1217	-0.5110	0.0258	0.8505
6.86	-8.4530	-0.4757	4.4903	-0.0158	-0.0367	-0.0532	18.8818	3.3144	-18.3145	0.1217	-0.5110	0.0258	0.8506
6.87	-8.3812	-0.4909	4.4867	-0.0155	-0.0399	-0.0578	18.9897	3.0742	-18.4511	0.1218	-0.5108	0.0258	0.8506
6.88	-8.3662	-0.5408	4.4728	-0.0138	-0.0374	-0.0565	19.0357	3.2675	-18.3784	0.1218	-0.5108	0.0258	0.8507
6.89	-8.3480	-0.5398	4.4819	-0.0048	-0.0374	-0.0519	19.0212	3.1263	-18.5308	0.1219	-0.5106	0.0258	0.8507
6.9	-8.3201	-0.5040	4.4944	-0.0002	-0.0389	-0.0448	18.9035	3.1849	-18.3599	0.1219	-0.5105	0.0259	0.8508
6.91	-8.3189	-0.4636	4.5187	-0.0008	-0.0367	-0.0379	18.9862	3.4163	-18.5045	0.1219	-0.5104	0.0260	0.8508
6.92	-8.3181	-0.4338	4.5359	0.0072	-0.0279	-0.0430	19.0592	3.4252	-18.4470	0.1220	-0.5104	0.0262	0.8508
6.93	-8.3272	-0.4235	4.5472	0.0011	-0.0215	-0.0454	18.8995	3.3073	-18.2986	0.1220	-0.5103	0.0263	0.8509
6.94	-8.3307	-0.4295	4.5385	-0.0097	-0.0242	-0.0530	18.8396	3.2245	-18.4708	0.1220	-0.5103	0.0263	0.8509
6.95	-8.3142	-0.4447	4.5352	-0.0073	-0.0191	-0.0517	18.8394	3.4353	-18.3533	0.1221	-0.5103	0.0264	0.8509
6.96	-8.2986	-0.4387	4.5255	-0.0141	-0.0197	-0.0522	18.8636	3.3836	-18.6476	0.1221	-0.5102	0.0264	0.8508
6.97	-8.3027	-0.4260	4.5171	-0.0174	-0.0120	-0.0556	18.8091	3.4596	-18.4376	0.1222	-0.5103	0.0264	0.8509
6.98	-8.3234	-0.4205	4.5106	-0.0151	-0.0112	-0.0526	18.7814	3.2956	-18.1547	0.1222	-0.5103	0.0264	0.8509
6.99	-8.3258	-0.4261	4.5139	-0.0210	-0.0053	-0.0554	19.1985	2.9903	-18.6134	0.1222	-0.5103	0.0264	0.8509
7	-8.3068	-0.4283	4.5083	-0.0170	-0.0046	-0.0523	19.2235	3.2986	-18.5817	0.1222	-0.5104	0.0264	0.8508
7.01	-8.2991	-0.4348	4.5206	-0.0272	-0.0015	-0.0518	19.1541	3.0594	-18.6249	0.1222	-0.5104	0.0264	0.8508
7.02	-8.3170	-0.4470	4.5282	-0.0277	-0.0021	-0.0498	19.1149	3.3167	-18.4991	0.1222	-0.5105	0.0264	0.8508
7.03	-8.3170	-0.4530	4.5181	-0.0257	0.0042	-0.0496	19.0400	3.2587	-18.2712	0.1222	-0.5106	0.0264	0.8506
7.04	-8.3230	-0.4544	4.5245	-0.0297	0.0006	-0.0486	18.8060	3.0300	-18.4713	0.1222	-0.5107	0.0264	0.8507
7.05	-8.3321	-0.4554	4.5129	-0.0337	0.0012	-0.0481	19.0145	3.2105	-18.4909	0.1221	-0.5107	0.0263	0.8506
7.06	-8.3421	-0.4529	4.5167	-0.0275	0.0026	-0.0502	19.0305	3.3162	-18.5847	0.1221	-0.5109	0.0263	0.8506
7.07	-8.3568	-0.4448	4.5084	-0.0392	-0.0009	-0.0459	19.0168	3.3270	-18.6183	0.1221	-0.5109	0.0262	0.8505
7.08	-8.3510	-0.4380	4.4987	-0.0402	0.0063	-0.0469	18.9215	3.2220	-18.3359	0.1220	-0.5110	0.0262	0.8505
7.09	-8.3681	-0.4482	4.4905	-0.0384	0.0061	-0.0539	19.1042	3.4164	-18.5235	0.1220	-0.5111	0.0261	0.8504
7.1	-8.3800	-0.4802	4.4882	-0.0434	0.0084	-0.0469	18.8209	3.4129	-18.4220	0.1219	-0.5112	0.0260	0.8503
7.11	-8.4104	-0.5077	4.4713	-0.0351	0.0099	-0.0509	18.8735	3.4096	-18.4221	0.1219	-0.5114	0.0260	0.8504
7.12	-8.4404	-0.5283	4.4592	-0.0415	0.0135	-0.0510	19.0756	3.4265	-18.4068	0.1218	-0.5115	0.0259	0.8502
7.13	-8.4558	-0.5440	4.4481	-0.0369	0.0093	-0.0551	18.9812	3.3655	-18.4540	0.1218	-0.5116	0.0259	0.8502
7.14	-8.4618	-0.5559	4.4421	-0.0241	0.0066	-0.0560	19.2041	3.2118	-18.2132	0.1218	-0.5117	0.0258	0.8500
7.15	-8.4683	-0.5569	4.4437	-0.0165	0.0071	-0.0484	19.3387	3.3850	-18.1273	0.1218	-0.5118	0.0259	0.8500
7.16	-8.4661	-0.5571	4.4449	-0.0130	-0.0029	-0.0542	19.3853	3.2433	-18.3073	0.1219	-0.5119	0.0259	0.8500
7.17	-8.4597	-0.5574	4.4438	-0.0067	-0.0139	-0.0600	19.3926	3.3289	-18.3702	0.1219	-0.5119	0.0259	0.8499
7.18	-8.4524	-0.5566	4.4502	0.0002	-0.0231	-0.0550	19.2510	3.3730	-18.3760	0.1220	-0.5119	0.0260	0.8500
7.19	-8.4358	-0.5462	4.4399	0.0050	-0.0270	-0.0576	18.9529	3.1445	-18.2473	0.1221	-0.5118	0.0261	0.8500
7.2	-8.4158	-0.5292	4.4353	0.0005	-0.0202	-0.0598	19.1885	3.0601	-18.3882	0.1222	-0.5118	0.0262	0.8500
7.21	-8.3992	-0.5191	4.4374	0.0048	-0.0251	-0.0536	19.0631	3.2807	-18.2686	0.1223	-0.5117	0.0263	0.8499
7.22	-8.3907	-0.5086	4.4400	0.0080	-0.0232	-0.0501	19.0681	3.4133	-18.3126	0.1224	-0.5117	0.0264	0.8501
7.23	-8.3788	-0.4996	4.4407	0.0104	-0.0216	-0.0486	19.2316	3.3043	-18.3820	0.1225	-0.5116	0.0265	0.8500
7.24	-8.3696	-0.4865	4.4583	0.0077	-0.0243	-0.0491	18.9753	3.2924	-18.4394	0.1225	-0.5116	0.0266	0.8501
7.25	-8.3746	-0.4858	4.4688	0.0101	-0.0263	-0.0411	18.9952	3.1739	-18.4918	0.1226	-0.5115	0.0268	0.8501
7.26	-8.3699	-0.4814	4.4617	0.0015	-0.0255	-0.0471	18.9340	3.1069	-18.3037	0.1226	-0.5114	0.0269	0.8501
7.27	-8.3564	-0.4736	4.4647	-0.0005	-0.0213	-0.0463	19.0971	3.2683	-18.2791	0.1227	-0.5114	0.0270	0.8501
7.28	-8.3611	-0.4728	4.4733	-0.0001	-0.0165	-0.0487	18.8717	3.3720	-18.2846	0.1227	-0.5114	0.0271	0.8500
7.29	-8.3656	-0.4719	4.4601	-0.0063	-0.0204	-0.0492	18.9409	3.3651	-18.2908	0.1228	-0.5114	0.0271	0.8502
7.3	-8.3763	-0.4751	4.4557	-0.0072	-0.0134	-0.0529	18.9025	3.3904	-18.2755	0.1228	-0.5114	0.0272	0.8501
7.31	-8.3895	-0.4800	4.4601	-0.0069	-0.0113	-0.0503	18.8094	3.2939	-18.3397	0.1229	-0.5114	0.0272	0.8502
7.32	-8.3836	-0.4757	4.4533	0.0009	-0.0147	-0.0536	19.0237	3.2841	-18.5003	0.1229	-0.5113	0.0273	0.8500
7.33	-8.3805	-0.4766	4.4601	-0.0040	-0.0087	-0.0562	18.9580	3.1461	-18.4281	0.1230	-0.5114	0.0274	0.8501
7.34	-8.4118	-0.4760	4.4706	-0.0102	-0.0175	-0.0524	18.7778	3.3014	-18.5509	0.1230	-0.5114	0.0274	0.8501
7.35	-8.4237	-0.4788	4.4779	-0.0081	-0.0230	-0.0570	18.6590	3.4177	-18.5093	0.1231	-0.5113	0.0275	0.8500
7.36	-8.4105	-0.4954	4.4727	-0.0071	-0.0212	-0.0560	18.8570	3.2261	-18.2347	0.1232	-0.5114	0.0275	0.8501
7.37	-8.3825	-0.5078	4.4751	-0.0104	-0.0251	-0.0563	19.0247	3.3509	-18.3252	0.1232	-0.5113	0.0275	0.8501
7.38	-8.3630	-0.5162	4.4626	-0.0062	-0.0214	-0.0549	19.1522	3.1195	-18.4537	0.1233	-0.5113	0.0276	0.8501
7.39	-8.3390	-0.5304	4.4537	0.0022	-0.0186	-0.0603	19.1571	3.1133	-18.4706	0.1234	-0.5112	0.0276	0.8500
7.4	-8.3160	-0.5210	4.4430	-0.0061	-0.0190	-0.0579	19.0509	3.1839	-18.4591	0.1235	-0.5112	0.0277	0.8501
7.41	-8.3249	-0.4948	4.4466	0.0072	-0.0130	-0.0520	19.0703	3.2729	-18.2792	0.1236	-0.5112	0.0278	0.8501
7.42	-8.3658	-0.4661	4.4653	0.0035	-0.0093	-0.0546	19.0762	3.1972	-18.0407	0.1236	-0.5112	0.0279	0.8500
7.43	-8.3783	-0.4380	4.4697	0.0011	0.0006	-0.0551	19.0487	3.3127	-18.3477	0.1237	-0.5113	0.0280	0.8500
7.44	-8.3555	-0.4192	4.4603	0.0035	-0.0014	-0.0603	19.1147	3.3435	-18.3396	0.1238	-0.5113	0.0281	0.8500
7.45	-8.3748	-0.3977	4.4501	-0.0043	0.0019	-0.0567	18.9309	3.3112	-18.2995	0.1239	-0.5114	0.0281	0.8499
7.46	-8.4134	-0.3705	4.4524	-0.0141	0.0043	-0.0619	18.8692	3.4080	-18.5171	0.1240	-0.5114	0.0281	0.8498
7.47	-8.4154	-0.3591	4.4430	-0.0207	0.0011	-0.0676	18.9991	3.2358	-18.4216	0.1241	-0.5116	0.0281	0.8498
7.48	-8.3691	-0.3657	4.4383	-0.0288	0.0047	-0.0724	18.9912	3.3307	-18.3798	0.1241	-0.5116	0.0281	0.8497
7.49	-8.4201	-0.4064	4.4552	-0.0372	0.0070	-0.0858	18.8954	3.4523	-18.3281	0.1242	-0.5118	0.0279	0.8497
7.5	-8.4733	-0.4697	4.4744	-0.0416	-0.0074	-0.0808	18.9823	3.4757	-18.0680	0.1243	-0.5118	0.0278	0.8496
7.51	-8.4604	-0.5469	4.4785	-0.0425	-0.0134	-0.0838	19.1006	3.1876	-18.3767	0.1244	-0.5118	0.0276	0.8496
7.52	-8.4296	-0.6268	4.4510	-0.0437	-0.0145	-0.0736	19.0246	3.2534	-18.3532	0.1244	-0.5119	0.0274	0.8496
7.53	-8.4039	-0.6843	4.4318	-0.0368	-0.0201	-0.0620	18.8549	3.2986	-18.4708	0.1245	-0.5118	0.0273	0.8495
7.54	-8.3658	-0.6953	4.4266	-0.0216	-0.0235	-0.0514	19.0368	3.2689	-18.4654	0.1245	-0.5119	0.0273	0.8496
7.55	-8.3447	-0.6549	4.4155	-0.0035	-0.0138	-0.0370	19.1877	3.1516	-18.4800	0.1245	-0.5118	0.0274	0.8496
7.56	-8.3551	-0.6098	4.4046	0.0057	-0.0006	-0.0392	19.1509	3.2916	-18.6767	0.1245	-0.5119	0.0275	0.8496
7.57	-8.3839	-0.5862	4.4163	0.0099	-0.0022	-0.0386	19.1518	3.1860	-18.5494	0.1245	-0.5119	0.0277	0.8495
7.58	-8.3934	-0.5625	4.4167	0.0083	0.0019	-0.0371	19.0634	3.2063	-18.3118	0.1245	-0.5120	0.0279	0.8495
7.59	-8.3910	-0.5511	4.4044	0.0103	0.0021	-0.0381	19.2106	3.1720	-18.2584	0.1246	-0.5120	0.0281	0.8494
7.6	-8.4078	-0.5383	4.4074	0.0126	0.0007	-0.0468	19.0601	3.2924	-18.3538	0.1246	-0.5120	0.0282	0.8493
7.61	-8.4322	-0.5154	4.4051	0.0123	0.0038	-0.0467	18.9721	3.2591	-18.6018	0.1247	-0.5122	0.0284	0.8494
7.62	-8.4466	-0.4908	4.4006	0.0134	-0.0055	-0.0465	19.1222	3.3395	-18.5259	0.1248	-0.5121	0.0285	0.8493
7.63	-8.4431	-0.4746	4.4045	0.0096	-0.0016	-0.0488	18.9684	3.3346	-18.3896	0.1248	-0.5122	0.0287	0.8493
7.64	-8.4514	-0.4653	4.4017	0.0109	-0.0081	-0.0537	19.0747	3.1590	-18.2964	0.1249	-0.5122	0.0288	0.8492
7.65	-8.4591	-0.4658	4.4037	0.0102	-0.0138	-0.0520	19.0589	3.5567	-18.0159	0.1250	-0.5122	0.0290	0.8492
7.66	-8.4528	-0.4641	4.4182	0.0102	-0.0112	-0.0517	19.6361	3.5294	-17.8843	0.1251	-0.5122	0.0291	0.8492
7.67	-8.4544	-0.4689	4.4301	0.0080	-0.0185	-0.0407	19.3629	3.3310	-17.9616	0.1251	-0.5122	0.0292	0.8492
7.68	-8.4529	-0.4723	4.4386	0.0016	-0.0229	-0.0382	19.1683	3.4049	-18.2008	0.1252	-0.5121	0.0294	0.8493
7.69	-8.4404	-0.4676	4.4456	-0.0064	-0.0258	-0.0352	18.9877	3.4398	-18.1640	0.1251	-0.5121	0.0295	0.8493
7.7	-8.4340	-0.4707	4.4499	-0.0129	-0.0311	-0.0371	18.8849	3.4048	-18.1952	0.1251	-0.5120	0.0295	0.8493
7.71	-8.4176	-0.4779	4.4438	-0.0052	-0.0251	-0.0360	19.1156	3.3439	-18.2390	0.1251	-0.5119	0.0296	0.8493
7.72	-8.4046	-0.4897	4.4518	-0.0147	-0.0303	-0.0392	19.0283	3.3189	-18.1040	0.1251	-0.5119	0.0297	0.8494
7.73	-8.3977	-0.4978	4.4494	-0.0029	-0.0298	-0.0355	18.7888	3.3273	-18.3094	0.1251	-0.5118	0.0298	0.8494
7.74	-8.3941	-0.4959	4.4453	0.0065	-0.0282	-0.0395	19.1395	3.0700	-18.3178	0.1251	-0.5117	0.0299	0.8495
7.75	-8.3611	-0.4937	4.4371	-0.0067	-0.0318	-0.0417	19.1557	2.9770	-18.2043	0.1251	-0.5116	0.0300	0.8495
7.76	-8.3607	-0.4677	4.4559	0.0049	-0.0258	-0.0435	19.0408	3.0834	-18.2190	0.1251	-0.5116	0.0301	0.8495
7.77	-8.4597	-0.4686	4.4725	0.0026	-0.0292	-0.0444	19.0410	3.0858	-18.4186	0.1252	-0.5115	0.0302	0.8496
7.78	-8.4067	-0.4636	4.4893	0.0014	-0.0374	-0.0593	18.8442	3.2831	-18.3155	0.1253	-0.5114	0.0303	0.8495
7.79	-8.3898	-0.4887	4.4799	-0.0027	-0.0363	-0.0608	19.0259	3.0942	-18.2072	0.1254	-0.5114	0.0303	0.8497
7.8	-8.3996	-0.5033	4.4728	0.0076	-0.0313	-0.0579	18.7533	3.0973	-18.2023	0.1255	-0.5112	0.0304	0.8497
7.81	-8.3702	-0.4836	4.4776	0.0090	-0.0339	-0.0504	18.9567	3.1803	-18.3038	0.1256	-0.5112	0.0305	0.8498
7.82	-8.3272	-0.4698	4.4765	0.0111	-0.0358	-0.0448	18.9752	3.1247	-18.2253	0.1256	-0.5110	0.0306	0.8497
7.83	-8.3452	-0.4444	4.4893	0.0052	-0.0303	-0.0475	18.8779	3.4227	-18.2123	0.1257	-0.5110	0.0307	0.8498
7.84	-8.3573	-0.4383	4.4828	0.0060	-0.0285	-0.0515	18.8554	3.3671	-18.2493	0.1258	-0.5109	0.0308	0.8498
7.85	-8.3645	-0.4526	4.4852	-0.0008	-0.0264	-0.0543	19.0517	3.2463	-18.5068	0.1258	-0.5108	0.0309	0.8498
7.86	-8.3721	-0.4710	4.4954	-0.0043	-0.0309	-0.0453	19.1640	3.2157	-18.3942	0.1259	-0.5108	0.0310	0.8500
7.87	-8.3752	-0.4639	4.4797	-0.0086	-0.0241	-0.0446	18.7555	3.3003	-18.2579	0.1259	-0.5107	0.0311	0.8499
7.88	-8.3623	-0.4582	4.4796	-0.0042	-0.0220	-0.0503	19.0854	3.2911	-18.1922	0.1259	-0.5107	0.0311	0.8500
7.89	-8.3704	-0.4504	4.4793	0.0081	-0.0237	-0.0509	18.9668	3.1238	-18.3249	0.1260	-0.5106	0.0312	0.8499
7.9	-8.3785	-0.4493	4.4741	-0.0142	-0.0210	-0.0490	18.8672	3.3889	-18.2997	0.1260	-0.5106	0.0313	0.8500
7.91	-8.3631	-0.4580	4.4753	-0.0127	-0.0270	-0.0475	18.8977	3.4307	-18.3623	0.1260	-0.5105	0.0313	0.8500
7.92	-8.3486	-0.4644	4.4746	-0.0141	-0.0307	-0.0440	18.8684	3.0611	-18.4501	0.1260	-0.5105	0.0313	0.8500
7.93	-8.3514	-0.4745	4.4690	-0.0156	-0.0280	-0.0504	18.9865	2.9831	-18.1563	0.1261	-0.5104	0.0314	0.8501
7.94	-8.3433	-0.4757	4.4662	-0.0101	-0.0232	-0.0490	19.1007	3.1977	-18.2836	0.1261	-0.5104	0.0314	0.8501
7.95	-8.3594	-0.4723	4.4725	-0.0166	-0.0260	-0.0454	19.0091	3.1427	-18.2785	0.1261	-0.5104	0.0314	0.8501
7.96	-8.3812	-0.4684	4.4767	-0.0066	-0.0239	-0.0436	19.2649	3.1423	-18.0856	0.1261	-0.5102	0.0315	0.8501
7.97	-8.4051	-0.4712	4.4806	-0.0127	-0.0202	-0.0475	19.3178	3.2995	-18.2689	0.1261	-0.5103	0.0315	0.8502
7.98	-8.3942	-0.4781	4.4753	-0.0056	-0.0231	-0.0494	18.9101	3.2866	-18.5013	0.1261	-0.5102	0.0316	0.8501
7.99	-8.3920	-0.4852	4.4782	-0.0062	-0.0171	-0.0499	19.0986	3.2360	-18.4438	0.1262	-0.5102	0.0317	0.8502
8	-8.4005	-0.4873	4.4812	0.0016	-0.0243	-0.0489	18.8546	3.1369	-18.2642	0.1262	-0.5101	0.0318	0.8502
8.01	-8.3924	-0.4922	4.4762	-0.0103	-0.0275	-0.0490	18.9071	3.1932	-18.4972	0.1263	-0.5101	0.0318	0.8502
8.02	-8.3869	-0.4920	4.4782	0.0001	-0.0240	-0.0471	18.8293	3.4100	-18.2277	0.1263	-0.5101	0.0319	0.8502
8.03	-8.3729	-0.4815	4.4754	0.0031	-0.0226	-0.0541	18.7697	3.1805	-18.3215	0.1264	-0.5100	0.0320	0.8502
8.04	-8.3694	-0.4662	4.4775	0.0004	-0.0210	-0.0509	18.8233	3.4087	-18.2752	0.1265	-0.5100	0.0321	0.8503
8.05	-8.3771	-0.4589	4.4800	0.0025	-0.0224	-0.0500	19.0561	3.3403	-18.2829	0.1265	-0.5099	0.0322	0.8502
8.06	-8.3759	-0.4432	4.4814	0.0041	-0.0232	-0.0496	18.8073	3.1748	-18.4793	0.1266	-0.5099	0.0323	0.8503
8.07	-8.3701	-0.4292	4.4757	-0.0057	-0.0194	-0.0496	18.7899	3.4553	-18.1957	0.1266	-0.5098	0.0323	0.8502
8.08	-8.3692	-0.4228	4.4782	-0.0046	-0.0211	-0.0551	18.7944	3.1586	-18.2108	0.1267	-0.5098	0.0324	0.8503
8.09	-8.3745	-0.4159	4.4849	-0.0013	-0.0227	-0.0548	19.0126	3.1729	-18.2783	0.1268	-0.5098	0.0324	0.8503
8.1	-8.3739	-0.4269	4.4881	-0.0082	-0.0342	-0.0492	19.0977	3.3798	-18.3191	0.1268	-0.5097	0.0325	0.8503
8.11	-8.3655	-0.4309	4.4912	-0.0135	-0.0286	-0.0506	19.0327	3.1671	-18.3288	0.1268	-0.5097	0.0325	0.8504
8.12	-8.3568	-0.4580	4.5021	-0.0106	-0.0304	-0.0489	18.9723	3.0915	-18.3873	0.1268	-0.5096	0.0326	0.8504
8.13	-8.3499	-0.4675	4.4917	-0.0189	-0.0264	-0.0475	19.1814	3.1295	-18.0392	0.1269	-0.5096	0.0326	0.8505
8.14	-8.3347	-0.4692	4.4893	-0.0154	-0.0219	-0.0501	19.0315	2.9520	-18.3623	0.1269	-0.5095	0.0326	0.8504
8.15	-8.3531	-0.4782	4.4879	-0.0169	-0.0184	-0.0491	19.3256	3.0893	-18.2382	0.1269	-0.5095	0.0326	0.8505
8.16	-8.3591	-0.4713	4.4775	-0.0123	-0.0185	-0.0434	19.6380	3.4314	-18.1016	0.1269	-0.5095	0.0326	0.8505
8.17	-8.3637	-0.4717	4.4750	-0.0103	-0.0175	-0.0490	19.5046	3.2709	-18.0843	0.1269	-0.5094	0.0327	0.8504
8.18	-8.3676	-0.4660	4.4854	-0.0166	-0.0208	-0.0506	19.2121	3.2430	-18.0762	0.1269	-0.5094	0.0327	0.8505
8.19	-8.3831	-0.4618	4.4875	-0.0120	-0.0132	-0.0471	19.0073	3.2922	-18.3876	0.1269	-0.5094	0.0328	0.8505
8.2	-8.3927	-0.4633	4.4886	-0.0038	-0.0207	-0.0498	18.8905	3.1546	-18.3417	0.1270	-0.5094	0.0328	0.8505
8.21	-8.3866	-0.4645	4.4801	-0.0048	-0.0172	-0.0537	18.7800	3.2243	-18.1663	0.1270	-0.5093	0.0329	0.8504
8.22	-8.3845	-0.4628	4.4747	0.0050	-0.0135	-0.0557	18.6588	3.3087	-18.3329	0.1271	-0.5094	0.0330	0.8505
8.23	-8.3843	-0.4568	4.4736	-0.0040	-0.0170	-0.0573	18.8842	3.0948	-18.2417	0.1272	-0.5094	0.0330	0.8505
8.24	-8.3992	-0.4556	4.4611	-0.0063	-0.0142	-0.0528	18.7797	3.2730	-18.4015	0.1272	-0.5094	0.0331	0.8505
8.25	-8.4015	-0.4505	4.4619	-0.0107	-0.0167	-0.0549	18.7836	3.2134	-18.2651	0.1273	-0.5093	0.0331	0.8504
8.26	-8.4037	-0.4510	4.4628	-0.0087	-0.0100	-0.0542	18.8707	3.2069	-18.1943	0.1273	-0.5094	0.0332	0.8504
8.27	-8.3988	-0.4592	4.4587	-0.0145	-0.0187	-0.0533	18.7170	3.3808	-18.3772	0.1274	-0.5094	0.0332	0.8504
8.28	-8.4134	-0.4697	4.4591	-0.0146	-0.0183	-0.0479	18.8989	3.3863	-18.4149	0.1274	-0.5093	0.0332	0.8504
8.29	-8.4136	-0.4672	4.4590	-0.0116	-0.0194	-0.0475	18.8291	3.2767	-18.1213	0.1274	-0.5093	0.0333	0.8505
8.3	-8.3990	-0.4576	4.4678	-0.0176	-0.0256	-0.0439	19.0950	3.1529	-18.3162	0.1274	-0.5093	0.0333	0.8505
8.31	-8.3929	-0.4551	4.4704	-0.0150	-0.0233	-0.0469	19.0894	3.0955	-18.3497	0.1274	-0.5093	0.0333	0.8506
8.32	-8.3812	-0.4518	4.4743	-0.0159	-0.0242	-0.0478	18.9425	3.1486	-18.1507	0.1274	-0.5092	0.0334	0.8505
8.33	-8.3738	-0.4563	4.4731	-0.0147	-0.0239	-0.0521	18.8137	3.0676	-18.3475	0.1274	-0.5092	0.0334	0.8505
8.34	-8.3613	-0.4596	4.4737	-0.0152	-0.0222	-0.0527	18.8031	3.0528	-18.5885	0.1275	-0.5091	0.0334	0.8505
8.35	-8.3647	-0.4557	4.4705	-0.0168	-0.0230	-0.0478	18.9138	3.2159	-18.4506	0.1275	-0.5091	0.0334	0.8505
8.36	-8.3745	-0.4452	4.4779	-0.0151	-0.0235	-0.0489	18.7193	3.2087	-18.6163	0.1275	-0.5091	0.0334	0.8506
8.37	-8.3682	-0.4491	4.4905	-0.0190	-0.0234	-0.0508	18.9989	3.1757	-18.3168	0.1275	-0.5090	0.0334	0.8506
8.38	-8.3677	-0.4517	4.4889	-0.0167	-0.0258	-0.0483	19.0220	3.0827	-18.1365	0.1275	-0.5090	0.0335	0.8507
8.39	-8.3692	-0.4607	4.4930	-0.0211	-0.0228	-0.0504	18.7501	3.2170	-18.3021	0.1275	-0.5089	0.0335	0.8506
8.4	-8.3653	-0.4629	4.4956	-0.0199	-0.0123	-0.0480	18.7793	3.3150	-18.3085	0.1275	-0.5090	0.0335	0.8506
8.41	-8.3671	-0.4637	4.4986	-0.0156	-0.0206	-0.0515	18.7998	3.2553	-18.4046	0.1275	-0.5090	0.0335	0.8506
8.42	-8.3558	-0.4600	4.4951	-0.0179	-0.0238	-0.0477	18.9879	3.1105	-18.3730	0.1275	-0.5089	0.0335	0.8506
8.43	-8.3434	-0.4610	4.4940	-0.0237	-0.0214	-0.0464	18.7425	3.1159	-18.3695	0.1275	-0.5089	0.0335	0.8507
8.44	-8.3609	-0.4580	4.4861	-0.0185	-0.0150	-0.0477	18.7962	3.2557	-18.2804	0.1275	-0.5089	0.0335	0.8507
8.45	-8.3338	-0.4590	4.4770	-0.0193	-0.0160	-0.0506	18.7509	3.3192	-18.4858	0.1275	-0.5089	0.0335	0.8507
8.46	-8.3415	-0.4668	4.4824	-0.0169	-0.0135	-0.0449	18.8793	3.2012	-18.4677	0.1275	-0.5089	0.0336	0.8506
8.47	-8.3692	-0.4825	4.4884	-0.0161	-0.0155	-0.0416	18.8446	3.0968	-18.4703	0.1275	-0.5089	0.0336	0.8507
8.48	-8.3660	-0.4990	4.4891	-0.0120	-0.0160	-0.0462	18.7595	3.1298	-18.3037	0.1275	-0.5089	0.0337	0.8507
8.49	-8.3690	-0.4958	4.5044	-0.0173	-0.0125	-0.0513	19.0542	3.1055	-18.2771	0.1275	-0.5089	0.0337	0.8507
8.5	-8.4068	-0.4902	4.5124	-0.0164	-0.0138	-0.0472	19.0371	3.1392	-18.2869	0.1275	-0.5089	0.0337	0.8506
8.51	-8.3827	-0.4859	4.4983	-0.0052	-0.0185	-0.0463	19.0552	3.0815	-18.4141	0.1275	-0.5089	0.0338	0.8506
8.52	-8.3694	-0.4675	4.4918	-0.0054	-0.0078	-0.0495	19.0024	3.0078	-18.3066	0.1275	-0.5090	0.0339	0.8506
8.53	-8.4029	-0.4480	4.4964	-0.0155	-0.0060	-0.0546	18.8386	3.1034	-18.2670	0.1276	-0.5089	0.0339	0.8505
8.54	-8.4350	-0.4385	4.4908	-0.0149	-0.0096	-0.0529	18.9915	3.1548	-18.3035	0.1276	-0.5090	0.0339	0.8506
8.55	-8.3876	-0.4380	4.4782	-0.0173	-0.0235	-0.0509	18.7600	3.3292	-18.4225	0.1276	-0.5090	0.0339	0.8506
8.56	-8.4131	-0.4663	4.5008	-0.0166	-0.0247	-0.0494	18.8678	3.0169	-18.2941	0.1276	-0.5090	0.0339	0.8507
8.57	-8.4354	-0.4913	4.5171	-0.0227	-0.0306	-0.0391	18.7655	3.1058	-18.2765	0.1276	-0.5089	0.0339	0.8506
8.58	-8.4111	-0.5097	4.5306	-0.0314	-0.0329	-0.0355	18.7991	3.2732	-18.2994	0.1275	-0.5088	0.0339	0.8507
8.59	-8.3989	-0.5450	4.5232	-0.0246	-0.0333	-0.0382	18.8960	3.4352	-18.2782	0.1274	-0.5087	0.0339	0.8508
8.6	-8.3537	-0.5703	4.5056	-0.0166	-0.0403	-0.0310	18.8541	3.2851	-18.3536	0.1273	-0.5086	0.0340	0.8508
8.61	-8.2955	-0.5658	4.4925	-0.0032	-0.0359	-0.0223	18.7807	3.1971	-18.6225	0.1273	-0.5086	0.0341	0.8510
8.62	-8.2662	-0.5249	4.4869	0.0037	-0.0246	-0.0233	18.6198	3.2018	-18.2024	0.1272	-0.5085	0.0343	0.8509
8.63	-8.2660	-0.4508	4.4889	0.0085	-0.0201	-0.0273	18.8385	3.2128	-18.3060	0.1272	-0.5085	0.0345	0.8510
8.64	-8.2841	-0.3983	4.4866	0.0092	-0.0152	-0.0313	18.9477	3.1918	-18.5280	0.1272	-0.5084	0.0346	0.8509
8.65	-8.2928	-0.3595	4.4906	0.0119	-0.0061	-0.0410	19.1044	3.2314	-18.1831	0.1272	-0.5084	0.0348	0.8510
8.66	-8.3053	-0.3344	4.4952	0.0088	-0.0053	-0.0444	19.4501	3.3283	-18.0740	0.1273	-0.5085	0.0350	0.8509
8.67	-8.3339	-0.3277	4.4910	0.0115	0.0024	-0.0494	19.2957	3.2476	-18.1496	0.1273	-0.5085	0.0351	0.8508
8.68	-8.3525	-0.3226	4.4855	0.0045	0.0030	-0.0635	19.1276	3.0454	-18.3113	0.1274	-0.5086	0.0352	0.8508
8.69	-8.3602	-0.3234	4.4667	-0.0041	0.0008	-0.0650	18.9487	3.1611	-18.2193	0.1275	-0.5086	0.0353	0.8507
8.7	-8.3877	-0.3266	4.4591	-0.0109	0.0028	-0.0716	19.1861	3.2303	-18.2876	0.1277	-0.5087	0.0353	0.8507
8.71	-8.4117	-0.3327	4.4589	-0.0183	-0.0033	-0.0624	18.9480	2.9249	-18.3249	0.1277	-0.5087	0.0353	0.8506
8.72	-8.4274	-0.3486	4.4594	-0.0239	0.0008	-0.0668	19.0814	3.1219	-18.2849	0.1278	-0.5089	0.0353	0.8506
8.73	-8.4444	-0.3755	4.4598	-0.0404	-0.0030	-0.0657	19.0036	3.1271	-18.1863	0.1278	-0.5089	0.0352	0.8505
8.74	-8.4427	-0.4212	4.4659	-0.0437	-0.0084	-0.0584	18.9488	3.2753	-18.2900	0.1278	-0.5090	0.0351	0.8505
8.75	-8.4287	-0.4507	4.4736	-0.0410	-0.0178	-0.0562	18.8901	3.4563	-18.4388	0.1277	-0.5090	0.0350	0.8505
8.76	-8.4155	-0.4794	4.4635	-0.0434	-0.0179	-0.0476	18.9697	3.2370	-18.3677	0.1277	-0.5090	0.0349	0.8505
8.77	-8.4045	-0.4932	4.4659	-0.0427	-0.0154	-0.0527	18.7732	3.2653	-18.2892	0.1276	-0.5090	0.0348	0.8506
8.78	-8.4036	-0.5087	4.4680	-0.0427	-0.0193	-0.0490	18.8690	3.1207	-18.3349	0.1276	-0.5090	0.0347	0.8505
8.79	-8.3970	-0.5167	4.4729	-0.0424	-0.0212	-0.0517	18.7842	3.1919	-18.1802	0.1275	-0.5090	0.0346	0.8506
8.8	-8.4007	-0.5342	4.4708	-0.0392	-0.0183	-0.0531	18.7704	3.1921	-18.1156	0.1275	-0.5090	0.0345	0.8506
8.81	-8.3958	-0.5395	4.4710	-0.0352	-0.0178	-0.0529	18.8464	3.1838	-18.1338	0.1275	-0.5091	0.0345	0.8506
8.82	-8.3665	-0.5404	4.4550	-0.0188	-0.0222	-0.0485	18.9863	3.3523	-18.1281	0.1274	-0.5090	0.0345	0.8505
8.83	-8.3469	-0.5091	4.4724	-0.0147	-0.0220	-0.0510	18.8322	3.2016	-18.1283	0.1275	-0.5090	0.0345	0.8506
8.84	-8.4350	-0.4960	4.4960	-0.0164	-0.0163	-0.0472	18.9197	3.2490	-18.3281	0.1275	-0.5090	0.0345	0.8506
8.85	-8.3958	-0.4720	4.5089	-0.0168	-0.0258	-0.0528	18.7606	3.2359	-18.2147	0.1275	-0.5089	0.0345	0.8506
8.86	-8.3577	-0.4922	4.4923	-0.0330	-0.0270	-0.0504	18.8201	3.1310	-18.3327	0.1275	-0.5089	0.0345	0.8507
8.87	-8.3691	-0.5292	4.4878	-0.0248	-0.0250	-0.0436	18.9934	3.0296	-18.2776	0.1274	-0.5088	0.0345	0.8507
8.88	-8.3580	-0.5197	4.5004	-0.0173	-0.0270	-0.0390	18.9925	3.0860	-18.4012	0.1274	-0.5088	0.0345	0.8508
8.89	-8.3137	-0.4952	4.5015	-0.0153	-0.0273	-0.0358	19.1772	3.0225	-18.3051	0.1273	-0.5087	0.0346	0.8507
8.9	-8.3113	-0.4567	4.4989	-0.0164	-0.0210	-0.0373	19.1093	3.2344	-18.3191	0.1273	-0.5087	0.0346	0.8508
8.91	-8.3275	-0.4369	4.5116	-0.0167	-0.0199	-0.0360	19.0288	3.3194	-18.2738	0.1272	-0.5087	0.0347	0.8508
8.92	-8.3460	-0.4203	4.5170	-0.0163	-0.0152	-0.0387	19.0904	3.1350	-18.1730	0.1272	-0.5087	0.0347	0.8508
8.93	-8.3448	-0.4250	4.5024	-0.0168	-0.0032	-0.0458	18.8227	3.0599	-18.3552	0.1272	-0.5087	0.0348	0.8508
8.94	-8.3345	-0.4368	4.5012	-0.0170	-0.0048	-0.0390	18.9372	2.9227	-18.2544	0.1271	-0.5088	0.0348	0.8507
8.95	-8.3522	-0.4442	4.4871	-0.0166	0.0008	-0.0461	19.1406	3.0690	-18.4159	0.1271	-0.5089	0.0349	0.8507
8.96	-8.3638	-0.4447	4.4705	-0.0170	0.0057	-0.0486	18.7597	3.4285	-18.3045	0.1271	-0.5089	0.0349	0.8506
8.97	-8.3704	-0.4388	4.4709	-0.0169	0.0043	-0.0500	18.7963	3.4110	-18.2406	0.1271	-0.5090	0.0350	0.8506
8.98	-8.3790	-0.4465	4.4592	-0.0164	0.0026	-0.0521	18.7770	3.2400	-18.3042	0.1271	-0.5091	0.0350	0.8505
8.99	-8.3878	-0.4573	4.4519	-0.0164	0.0067	-0.0545	18.8053	3.2525	-18.1650	0.1272	-0.5092	0.0350	0.8505
9	-8.3994	-0.4630	4.4533	-0.0164	0.0019	-0.0519	18.6723	3.1128	-18.3595	0.1272	-0.5093	0.0350	0.8504
9.01	-8.4168	-0.4697	4.4615	-0.0168	0.0015	-0.0490	18.7275	3.3275	-18.1397	0.1272	-0.5093	0.0351	0.8504
9.02	-8.4018	-0.4744	4.4583	-0.0203	-0.0199	-0.0517	18.8198	3.4125	-18.3637	0.1272	-0.5093	0.0351	0.8504
9.03	-8.4090	-0.4752	4.4608	-0.0182	-0.0124	-0.0497	18.7426	3.1763	-18.1042	0.1272	-0.5093	0.0351	0.8503
9.04	-8.4127	-0.4722	4.4637	-0.0184	-0.0100	-0.0413	19.0403	3.4005	-18.1738	0.1272	-0.5094	0.0351	0.8504
9.05	-8.4112	-0.4848	4.4654	-0.0159	-0.0171	-0.0422	19.0244	3.0520	-18.3253	0.1271	-0.5094	0.0352	0.8504
9.06	-8.4103	-0.4887	4.4659	-0.0147	-0.0243	-0.0480	19.1427	2.9550	-18.1317	0.1271	-0.5094	0.0352	0.8505
9.07	-8.4126	-0.4911	4.4623	-0.0156	-0.0195	-0.0490	19.1272	2.9619	-18.4513	0.1271	-0.5093	0.0352	0.8504
9.08	-8.4144	-0.4787	4.4659	-0.0102	-0.0223	-0.0509	18.9433	3.0177	-18.3526	0.1272	-0.5093	0.0353	0.8504
9.09	-8.4033	-0.4801	4.4707	-0.0060	-0.0229	-0.0541	19.1093	3.2013	-18.2960	0.1272	-0.5092	0.0353	0.8504
9.1	-8.4043	-0.4746	4.4706	0.0014	-0.0244	-0.0565	18.9464	3.1085	-18.3179	0.1273	-0.5092	0.0354	0.8504
9.11	-8.3950	-0.4661	4.4735	0.0009	-0.0195	-0.0600	19.0636	3.2768	-18.3046	0.1274	-0.5092	0.0355	0.8505
9.12	-8.3763	-0.4577	4.4821	0.0073	-0.0264	-0.0637	18.9283	3.0537	-18.3243	0.1275	-0.5091	0.0356	0.8504
9.13	-8.3672	-0.4506	4.4892	0.0042	-0.0253	-0.0612	18.9939	3.1146	-18.2564	0.1276	-0.5091	0.0357	0.8505
9.14	-8.3642	-0.4376	4.4889	0.0084	-0.0200	-0.0630	18.8512	3.2444	-18.1047	0.1277	-0.5090	0.0357	0.8504
9.15	-8.3616	-0.4299	4.4948	-0.0061	-0.0188	-0.0615	19.1225	3.3537	-18.1498	0.1278	-0.5090	0.0358	0.8505
9.16	-8.3485	-0.4215	4.4952	-0.0071	-0.0214	-0.0601	19.3094	3.4482	-18.2845	0.1279	-0.5090	0.0358	0.8505
9.17	-8.3455	-0.4121	4.4960	-0.0087	-0.0252	-0.0618	19.0613	3.3546	-18.3531	0.1280	-0.5089	0.0358	0.8505
9.18	-8.3466	-0.4210	4.4926	-0.0148	-0.0208	-0.0614	18.9788	3.3144	-18.1150	0.1281	-0.5089	0.0358	0.8505
9.19	-8.3575	-0.4250	4.5034	-0.0143	-0.0161	-0.0607	18.9586	3.2144	-18.2678	0.1281	-0.5089	0.0359	0.8505
9.2	-8.3846	-0.4306	4.5070	-0.0163	-0.0140	-0.0590	18.6696	3.4393	-18.2492	0.1282	-0.5089	0.0359	0.8505
9.21	-8.3931	-0.4360	4.4981	-0.0188	-0.0170	-0.0606	18.8106	3.4894	-18.1780	0.1282	-0.5089	0.0358	0.8504
9.22	-8.3749	-0.4437	4.4961	-0.0322	-0.0078	-0.0541	18.8132	3.2727	-18.2001	0.1282	-0.5090	0.0358	0.8505
9.23	-8.3661	-0.4580	4.4907	-0.0197	-0.0087	-0.0482	18.5898	3.4220	-18.0537	0.1282	-0.5090	0.0358	0.8504
9.24	-8.3675	-0.4790	4.4842	-0.0176	-0.0175	-0.0451	18.8203	3.1015	-18.1916	0.1282	-0.5090	0.0358	0.8504
9.25	-8.3736	-0.5022	4.4867	-0.0270	-0.0181	-0.0491	19.1139	3.1341	-18.2748	0.1282	-0.5090	0.0358	0.8504
9.26	-8.3779	-0.5147	4.4880	-0.0249	-0.0242	-0.0466	19.0473	3.2350	-18.4451	0.1281	-0.5089	0.0358	0.8504
9.27	-8.3763	-0.5194	4.4925	-0.0226	-0.0205	-0.0435	19.0588	3.1824	-18.4381	0.1281	-0.5089	0.0358	0.8505
9.28	-8.3670	-0.5250	4.4891	-0.0214	-0.0223	-0.0475	18.7640	3.3107	-18.2622	0.1281	-0.5089	0.0358	0.8504
9.29	-8.3652	-0.5217	4.4791	-0.0180	-0.0205	-0.0498	18.9287	3.1857	-18.3048	0.1281	-0.5089	0.0358	0.8505
9.3	-8.3711	-0.5200	4.4787	-0.0163	-0.0188	-0.0434	19.1365	3.0878	-18.2536	0.1281	-0.5089	0.0359	0.8505
9.31	-8.3827	-0.5191	4.4788	-0.0129	-0.0177	-0.0456	18.9460	2.9378	-18.3605	0.1281	-0.5089	0.0359	0.8506
9.32	-8.3778	-0.5128	4.4762	-0.0086	-0.0195	-0.0474	19.0929	3.0305	-18.3829	0.1281	-0.5088	0.0360	0.8505
9.33	-8.3655	-0.5018	4.4820	-0.0118	-0.0197	-0.0479	19.1399	3.2858	-18.2440	0.1281	-0.5088	0.0360	0.8505
9.34	-8.3556	-0.4801	4.4876	-0.0063	-0.0187	-0.0517	18.8615	3.2899	-18.3518	0.1281	-0.5088	0.0361	0.8505
9.35	-8.3598	-0.4561	4.4954	-0.0030	-0.0158	-0.0491	18.9169	3.3602	-18.4097	0.1282	-0.5088	0.0362	0.8505
9.36	-8.3574	-0.4422	4.4953	-0.0028	-0.0170	-0.0445	18.7642	3.5145	-18.2530	0.1282	-0.5088	0.0363	0.8506
9.37	-8.3385	-0.4285	4.4923	-0.0072	-0.0120	-0.0490	18.8521	3.4168	-18.3483	0.1282	-0.5088	0.0363	0.8505
9.38	-8.3413	-0.4135	4.4975	-0.0146	-0.0150	-0.0446	18.9041	3.3794	-18.3872	0.1282	-0.5088	0.0364	0.8506
9.39	-8.3629	-0.4024	4.5019	-0.0149	-0.0102	-0.0544	18.8882	3.3876	-18.3982	0.1282	-0.5088	0.0364	0.8504
9.4	-8.3779	-0.4011	4.4961	-0.0130	-0.0097	-0.0593	18.7666	3.1747	-18.2185	0.1283	-0.5088	0.0364	0.8505
9.41	-8.3711	-0.4171	4.4910	-0.0201	-0.0173	-0.0572	18.5130	3.3829	-18.0754	0.1283	-0.5088	0.0364	0.8505
9.42	-8.3797	-0.4296	4.4910	-0.0244	-0.0099	-0.0556	18.8940	3.0973	-18.4140	0.1284	-0.5088	0.0364	0.8504
9.43	-8.3844	-0.4534	4.4914	-0.0162	-0.0206	-0.0560	18.9597	3.2402	-18.2537	0.1284	-0.5089	0.0364	0.8505
9.44	-8.3734	-0.4652	4.4777	-0.0201	-0.0147	-0.0525	19.1814	3.1705	-18.1845	0.1284	-0.5088	0.0364	0.8504
9.45	-8.3688	-0.4743	4.4814	-0.0219	-0.0138	-0.0509	19.2117	3.1112	-18.3934	0.1284	-0.5089	0.0364	0.8505
9.46	-8.3656	-0.4873	4.4841	-0.0171	-0.0173	-0.0494	19.0684	3.1169	-18.3398	0.1284	-0.5088	0.0364	0.8504
9.47	-8.3510	-0.4907	4.4861	-0.0169	-0.0206	-0.0555	18.9135	3.2476	-18.5454	0.1284	-0.5089	0.0364	0.8505
9.48	-8.3384	-0.4942	4.4818	-0.0165	-0.0232	-0.0580	18.8006	3.1345	-18.4909	0.1285	-0.5088	0.0364	0.8505
9.49	-8.3465	-0.4867	4.4823	-0.0148	-0.0123	-0.0586	18.9404	3.1854	-18.2555	0.1285	-0.5088	0.0364	0.8505
9.5	-8.3601	-0.4799	4.4813	-0.0137	-0.0061	-0.0591	18.7599	3.2225	-18.2982	0.1286	-0.5088	0.0364	0.8504
9.51	-8.3733	-0.4736	4.4832	-0.0200	-0.0037	-0.0605	19.0799	3.2096	-18.2816	0.1286	-0.5089	0.0364	0.8504
9.52	-8.3923	-0.4613	4.4826	-0.0284	0.0017	-0.0606	19.0213	3.4130	-18.2842	0.1287	-0.5090	0.0364	0.8503
9.53	-8.4049	-0.4762	4.4816	-0.0260	-0.0044	-0.0626	18.8825	3.6221	-18.3161	0.1287	-0.5090	0.0363	0.8502
9.54	-8.4204	-0.4890	4.4892	-0.0354	-0.0107	-0.0580	18.7923	3.1848	-18.1431	0.1287	-0.5091	0.0363	0.8503
9.55	-8.4214	-0.4993	4.4845	-0.0329	-0.0115	-0.0521	18.9425	3.3151	-18.2819	0.1287	-0.5091	0.0362	0.8502
9.56	-8.4117	-0.5148	4.4870	-0.0273	-0.0246	-0.0501	18.7877	3.3918	-18.2139	0.1287	-0.5091	0.0362	0.8503
9.57	-8.3899	-0.5249	4.4859	-0.0231	-0.0234	-0.0490	18.8997	3.4891	-18.2063	0.1286	-0.5090	0.0362	0.8502
9.58	-8.3503	-0.5315	4.4785	-0.0216	-0.0287	-0.0455	18.8819	3.5455	-18.2852	0.1286	-0.5090	0.0362	0.8503
9.59	-8.3225	-0.5376	4.4862	-0.0216	-0.0220	-0.0447	18.9104	3.2824	-18.3677	0.1286	-0.5090	0.0362	0.8504
9.6	-8.3151	-0.5399	4.4862	-0.0156	-0.0289	-0.0425	18.8055	3.2919	-18.2919	0.1286	-0.5089	0.0362	0.8503
9.61	-8.3086	-0.5302	4.4953	-0.0162	-0.0246	-0.0440	18.6967	3.3279	-18.3103	0.1286	-0.5089	0.0363	0.8505
9.62	-8.3364	-0.5209	4.5155	-0.0153	-0.0198	-0.0452	19.0028	3.0691	-18.5007	0.1286	-0.5089	0.0363	0.8504
9.63	-8.3548	-0.5070	4.5165	-0.0162	-0.0100	-0.0406	19.1246	2.8922	-18.2466	0.1285	-0.5089	0.0363	0.8505
9.64	-8.3557	-0.5006	4.5108	-0.0132	-0.0058	-0.0478	18.8451	3.0448	-18.3037	0.1285	-0.5089	0.0364	0.8503
9.65	-8.3675	-0.4916	4.4978	-0.0158	-0.0069	-0.0519	18.9381	3.1702	-18.1476	0.1285	-0.5090	0.0364	0.8504
9.66	-8.3929	-0.4645	4.4982	-0.0152	-0.0052	-0.0536	19.4760	3.3636	-18.0664	0.1286	-0.5090	0.0364	0.8503
9.67	-8.3983	-0.4509	4.4831	-0.0185	-0.0028	-0.0495	19.2956	3.2332	-18.2238	0.1286	-0.5091	0.0365	0.8503
9.68	-8.3461	-0.4540	4.4799	-0.0278	-0.0078	-0.0487	19.1556	3.3229	-18.4501	0.1285	-0.5091	0.0365	0.8503
9.69	-8.3883	-0.4825	4.4950	-0.0221	-0.0045	-0.0478	18.8687	3.3434	-18.2608	0.1285	-0.5092	0.0365	0.8502
9.7	-8.4159	-0.4992	4.5079	-0.0217	-0.0146	-0.0415	18.9464	3.2567	-18.2528	0.1285	-0.5092	0.0365	0.8503
9.71	-8.3886	-0.5377	4.5123	-0.0304	-0.0131	-0.0400	18.8814	3.4226	-18.4121	0.1284	-0.5091	0.0365	0.8502
9.72	-8.3772	-0.5690	4.5064	-0.0242	-0.0215	-0.0343	18.7628	3.3594	-18.3989	0.1283	-0.5092	0.0365	0.8503
9.73	-8.3521	-0.5819	4.4888	-0.0124	-0.0159	-0.0361	18.7511	3.2941	-18.3760	0.1283	-0.5092	0.0366	0.8503
9.74	-8.3130	-0.5774	4.4697	-0.0095	-0.0072	-0.0279	18.6442	3.3059	-18.4868	0.1282	-0.5092	0.0367	0.8503
9.75	-8.3075	-0.5316	4.4600	-0.0049	-0.0031	-0.0338	18.8123	3.2283	-18.3886	0.1282	-0.5092	0.0368	0.8502
9.76	-8.3280	-0.4983	4.4514	0.0034	0.0079	-0.0360	18.7462	3.2924	-18.5308	0.1282	-0.5093	0.0369	0.8502
9.77	-8.3515	-0.4833	4.4436	0.0079	0.0103	-0.0358	18.8432	3.1877	-18.4057	0.1282	-0.5094	0.0371	0.8501
9.78	-8.3729	-0.4820	4.4390	0.0093	0.0076	-0.0373	18.8813	3.2308	-18.4008	0.1282	-0.5095	0.0373	0.8500
9.79	-8.3833	-0.4827	4.4418	0.0138	0.0014	-0.0431	18.8509	3.2153	-18.2643	0.1283	-0.5096	0.0375	0.8501
9.8	-8.3986	-0.4783	4.4372	0.0173	0.0022	-0.0500	18.8964	3.2013	-18.3599	0.1283	-0.5096	0.0376	0.8499
9.81	-8.3912	-0.4595	4.4373	0.0207	0.0041	-0.0468	19.0511	3.0422	-18.1150	0.1284	-0.5097	0.0379	0.8500
9.82	-8.3987	-0.4294	4.4359	0.0118	0.0029	-0.0575	18.9663	2.9628	-18.1986	0.1285	-0.5097	0.0380	0.8498
9.83	-8.4021	-0.4038	4.4371	0.0096	0.0033	-0.0535	18.7994	3.0469	-18.5596	0.1286	-0.5098	0.0381	0.8498
9.84	-8.4052	-0.3890	4.4352	0.0088	-0.0009	-0.0447	18.8081	3.2560	-18.4296	0.1287	-0.5098	0.0383	0.8497
9.85	-8.4256	-0.3783	4.4321	0.0082	0.0021	-0.0446	18.9750	3.3408	-18.2257	0.1287	-0.5099	0.0384	0.8496
9.86	-8.4404	-0.3825	4.4396	-0.0089	-0.0104	-0.0474	18.8530	3.1859	-18.1928	0.1287	-0.5100	0.0385	0.8497
9.87	-8.4579	-0.3947	4.4445	-0.0155	0.0002	-0.0460	19.0064	3.2453	-18.0769	0.1287	-0.5100	0.0385	0.8496
9.88	-8.4655	-0.4116	4.4402	-0.0181	-0.0010	-0.0416	18.8729	3.1862	-18.2075	0.1287	-0.5101	0.0386	0.8496
9.89	-8.4616	-0.4198	4.4367	-0.0228	-0.0056	-0.0386	18.8623	3.3344	-18.1257	0.1286	-0.5101	0.0386	0.8495
9.9	-8.4529	-0.4359	4.4339	-0.0264	-0.0123	-0.0367	18.8714	3.2699	-18.1067	0.1286	-0.5101	0.0386	0.8496
9.91	-8.4508	-0.4545	4.4385	-0.0330	-0.0189	-0.0370	18.8613	3.2290	-18.3134	0.1285	-0.5101	0.0386	0.8496
9.92	-8.4452	-0.4720	4.4357	-0.0348	-0.0171	-0.0365	18.8824	3.4169	-18.2307	0.1284	-0.5101	0.0386	0.8496
9.93	-8.4200	-0.4864	4.4295	-0.0233	-0.0247	-0.0362	18.7599	3.3870	-18.1017	0.1283	-0.5101	0.0386	0.8496
9.94	-8.4009	-0.4896	4.4180	-0.0210	-0.0281	-0.0371	18.7985	3.1311	-18.2641	0.1283	-0.5100	0.0386	0.8496
9.95	-8.3423	-0.4708	4.4266	-0.0237	-0.0227	-0.0373	18.9493	3.1732	-18.3331	0.1282	-0.5100	0.0387	0.8497
9.96	-8.4212	-0.4628	4.4587	-0.0134	-0.0161	-0.0428	18.9690	3.3276	-18.1883	0.1282	-0.5100	0.0387	0.8496
9.97	-8.4384	-0.4493	4.4689	-0.0170	-0.0276	-0.0467	18.8330	3.2918	-18.2393	0.1282	-0.5100	0.0387	0.8497
9.98	-8.3521	-0.4451	4.4730	-0.0140	-0.0265	-0.0534	18.9152	3.3286	-18.4804	0.1282	-0.5099	0.0387	0.8497
9.99	-8.3789	-0.4832	4.4696	-0.0178	-0.0212	-0.0625	19.0250	3.2043	-18.2147	0.1283	-0.5099	0.0387	0.8498
10	-8.3811	-0.4836	4.4762	-0.0143	-0.0278	-0.0593	19.1568	2.7998	-18.1787	0.1283	-0.5098	0.0387	0.8497
10.01	-8.3390	-0.4664	4.4754	-0.0073	-0.0281	-0.0544	19.2164	2.8203	-18.3538	0.1284	-0.5098	0.0388	0.8498
10.02	-8.3331	-0.4343	4.4799	-0.0114	-0.0206	-0.0489	18.8620	3.0640	-18.4063	0.1284	-0.5098	0.0388	0.8498
10.03	-8.3651	-0.4127	4.4874	-0.0152	-0.0186	-0.0469	18.8666	3.0155	-18.7107	0.1284	-0.5097	0.0388	0.8497
10.04	-8.3699	-0.4155	4.4893	-0.0210	-0.0217	-0.0487	18.9589	3.1678	-18.5010	0.1284	-0.5098	0.0388	0.8499
10.05	-8.3657	-0.4373	4.4880	-0.0214	-0.0209	-0.0483	18.8164	3.2303	-18.2541	0.1284	-0.5097	0.0388	0.8498
10.06	-8.3667	-0.4635	4.4871	-0.0158	-0.0034	-0.0494	18.7291	3.2106	-18.5451	0.1284	-0.5098	0.0389	0.8499
10.07	-8.3782	-0.4782	4.4871	-0.0169	-0.0091	-0.0425	18.9228	3.2199	-18.3504	0.1284	-0.5098	0.0389	0.8497
10.08	-8.3894	-0.4771	4.4746	-0.0231	-0.0120	-0.0472	18.8901	3.2169	-18.4369	0.1283	-0.5098	0.0389	0.8498
10.09	-8.3917	-0.4754	4.4738	-0.0146	-0.0114	-0.0504	18.9761	3.2180	-18.2886	0.1283	-0.5098	0.0389	0.8498
10.1	-8.3888	-0.4836	4.4677	-0.0167	-0.0087	-0.0452	19.0153	3.2238	-18.0848	0.1283	-0.5098	0.0390	0.8497
10.11	-8.3957	-0.4923	4.4648	-0.0160	-0.0117	-0.0508	18.7270	3.2151	-18.1358	0.1284	-0.5099	0.0390	0.8498
10.12	-8.3976	-0.5071	4.4625	-0.0165	-0.0128	-0.0565	18.7897	3.0865	-18.3913	0.1284	-0.5099	0.0390	0.8497
10.13	-8.3951	-0.5061	4.4617	-0.0147	-0.0136	-0.0534	18.8178	3.2123	-18.3463	0.1284	-0.5100	0.0390	0.8497
10.14	-8.3927	-0.4983	4.4601	-0.0128	-0.0200	-0.0544	18.9646	3.2048	-18.1892	0.1284	-0.5099	0.0390	0.8496
10.15	-8.3781	-0.4942	4.4595	-0.0021	-0.0207	-0.0508	19.3078	3.5865	-17.9906	0.1285	-0.5099	0.0391	0.8497
10.16	-8.3751	-0.4913	4.4610	0.0018	-0.0271	-0.0436	19.1080	3.3249	-18.2563	0.1285	-0.5098	0.0392	0.8497
10.17	-8.3632	-0.4742	4.4598	0.0011	-0.0242	-0.0414	18.9828	3.1195	-18.3278	0.1285	-0.5098	0.0393	0.8497
10.18	-8.3652	-0.4553	4.4698	0.0017	-0.0288	-0.0419	19.0616	3.3473	-18.2313	0.1286	-0.5097	0.0394	0.8498
10.19	-8.3678	-0.4362	4.4776	0.0053	-0.0267	-0.0391	18.7994	3.2718	-18.3610	0.1286	-0.5096	0.0396	0.8498
10.2	-8.3661	-0.4207	4.4749	0.0061	-0.0180	-0.0437	19.0172	3.1742	-18.6289	0.1286	-0.5096	0.0397	0.8498
10.21	-8.3681	-0.4139	4.4691	0.0068	-0.0094	-0.0512	19.1658	3.2461	-18.4487	0.1287	-0.5096	0.0398	0.8497
10.22	-8.3829	-0.4121	4.4722	0.0039	-0.0127	-0.0475	19.1385	3.0788	-18.6344	0.1288	-0.5097	0.0399	0.8498
10.23	-8.3966	-0.4160	4.4699	-0.0011	-0.0167	-0.0535	18.9860	3.0364	-18.3015	0.1288	-0.5096	0.0400	0.8498
10.24	-8.4043	-0.4204	4.4757	0.0062	-0.0054	-0.0568	18.9639	3.3138	-18.4373	0.1289	-0.5097	0.0401	0.8497
10.25	-8.4000	-0.4262	4.4677	-0.0127	-0.0191	-0.0601	18.9756	3.2059	-18.6151	0.1290	-0.5096	0.0401	0.8497
10.26	-8.3858	-0.4189	4.4681	-0.0052	-0.0243	-0.0611	18.7144	3.2185	-18.2964	0.1291	-0.5096	0.0401	0.8497
10.27	-8.3891	-0.4114	4.4621	-0.0044	-0.0234	-0.0613	18.8924	3.1985	-18.3348	0.1292	-0.5096	0.0402	0.8497
10.28	-8.3852	-0.4122	4.4624	-0.0128	-0.0185	-0.0527	18.8448	3.3050	-18.5348	0.1292	-0.5095	0.0402	0.8497
10.29	-8.3822	-0.4138	4.4705	-0.0105	-0.0095	-0.0597	19.0428	3.2010	-18.3152	0.1293	-0.5096	0.0402	0.8498
10.3	-8.3829	-0.4223	4.4700	-0.0191	-0.0186	-0.0553	18.8326	3.0819	-18.2205	0.1293	-0.5096	0.0402	0.8497
10.31	-8.3868	-0.4247	4.4710	-0.0189	-0.0184	-0.0545	18.8568	3.2198	-18.3342	0.1293	-0.5096	0.0402	0.8498
10.32	-8.3810	-0.4410	4.4644	-0.0166	-0.0136	-0.0556	18.8733	3.1974	-18.2821	0.1293	-0.5096	0.0402	0.8496
10.33	-8.3537	-0.4506	4.4684	-0.0201	-0.0151	-0.0476	18.6941	3.3687	-18.5549	0.1293	-0.5096	0.0402	0.8497
10.34	-8.3555	-0.4493	4.4654	-0.0203	-0.0136	-0.0495	18.8081	3.3288	-18.4394	0.1293	-0.5096	0.0402	0.8497
10.35	-8.3761	-0.4531	4.4741	-0.0166	-0.0122	-0.0437	18.8608	3.0094	-18.5896	0.1293	-0.5096	0.0403	0.8496
10.36	-8.3821	-0.4539	4.4814	-0.0194	-0.0238	-0.0453	18.9615	2.9535	-18.5584	0.1293	-0.5096	0.0403	0.8498
10.37	-8.3752	-0.4618	4.4874	-0.0137	-0.0151	-0.0445	19.1792	3.2239	-18.4502	0.1293	-0.5096	0.0403	0.8497
10.38	-8.3699	-0.4869	4.4788	-0.0245	-0.0150	-0.0474	18.9393	3.1665	-18.2899	0.1293	-0.5096	0.0403	0.8497
10.39	-8.3647	-0.4989	4.4779	-0.0311	-0.0171	-0.0524	18.8568	3.0110	-18.3933	0.1292	-0.5096	0.0403	0.8496
10.4	-8.3683	-0.5152	4.4716	-0.0272	-0.0175	-0.0504	18.9695	3.1758	-18.3823	0.1292	-0.5096	0.0402	0.8497
10.41	-8.3764	-0.5179	4.4702	-0.0250	-0.0215	-0.0494	18.7055	3.2246	-18.4375	0.1292	-0.5096	0.0402	0.8497
10.42	-8.3781	-0.5182	4.4711	-0.0200	-0.0111	-0.0523	18.9041	3.2133	-18.5279	0.1292	-0.5096	0.0402	0.8497
10.43	-8.3726	-0.5154	4.4736	-0.0165	-0.0111	-0.0463	18.8721	3.1217	-18.3453	0.1292	-0.5096	0.0402	0.8497
10.44	-8.3816	-0.5114	4.4781	-0.0165	-0.0142	-0.0474	18.7481	3.2518	-18.4565	0.1292	-0.5096	0.0403	0.8497
10.45	-8.3905	-0.5026	4.4739	-0.0161	-0.0170	-0.0464	19.0922	3.1475	-18.4545	0.1292	-0.5097	0.0403	0.8497
10.46	-8.3856	-0.4917	4.4620	-0.0119	-0.0147	-0.0478	18.8515	3.1034	-18.2628	0.1292	-0.5096	0.0403	0.8496
10.47	-8.3684	-0.4862	4.4599	-0.0172	-0.0140	-0.0471	18.9330	3.2624	-18.3337	0.1292	-0.5097	0.0404	0.8497
10.48	-8.3623	-0.4865	4.4634	-0.0161	-0.0134	-0.0505	19.0583	3.4634	-18.4240	0.1292	-0.5097	0.0404	0.8496
10.49	-8.3655	-0.4937	4.4696	-0.0200	-0.0144	-0.0527	18.6382	3.2295	-18.3357	0.1292	-0.5097	0.0404	0.8497
10.5	-8.3837	-0.4941	4.4674	-0.0111	-0.0023	-0.0525	18.9233	3.1106	-18.1603	0.1293	-0.5097	0.0404	0.8496
10.51	-8.3928	-0.4910	4.4679	-0.0043	-0.0098	-0.0495	18.7257	3.2613	-18.4123	0.1293	-0.5098	0.0405	0.8496
10.52	-8.3783	-0.4868	4.4645	-0.0166	-0.0183	-0.0463	18.8950	3.3358	-18.4797	0.1293	-0.5098	0.0405	0.8496
10.53	-8.3739	-0.4837	4.4697	-0.0099	-0.0128	-0.0528	18.7744	3.1980	-18.2573	0.1293	-0.5097	0.0406	0.8495
10.54	-8.3730	-0.4831	4.4631	-0.0013	-0.0076	-0.0519	19.0165	3.2383	-18.4388	0.1294	-0.5098	0.0406	0.8496
10.55	-8.3673	-0.4801	4.4640	-0.0117	-0.0116	-0.0547	18.9154	3.1602	-18.5087	0.1294	-0.5098	0.0407	0.8495
10.56	-8.3658	-0.4717	4.4710	-0.0073	-0.0165	-0.0492	19.1260	3.1219	-18.6994	0.1295	-0.5098	0.0407	0.8496
10.57	-8.3669	-0.4642	4.4686	0.0060	-0.0104	-0.0536	19.1579	3.1095	-18.4623	0.1295	-0.5098	0.0408	0.8495
10.58	-8.3834	-0.4647	4.4668	-0.0075	-0.0096	-0.0550	19.0310	3.2909	-18.5009	0.1296	-0.5098	0.0409	0.8495
10.59	-8.3765	-0.4518	4.4730	0.0014	-0.0133	-0.0538	19.0650	3.0365	-18.6296	0.1297	-0.5098	0.0410	0.8495
10.6	-8.3905	-0.4481	4.4782	0.0012	-0.0109	-0.0555	19.0696	2.8955	-18.4530	0.1298	-0.5098	0.0410	0.8494
10.61	-8.4008	-0.4479	4.4808	-0.0120	-0.0084	-0.0586	18.8423	3.1750	-18.4200	0.1298	-0.5099	0.0411	0.8495
10.62	-8.3957	-0.4496	4.4761	-0.0041	-0.0113	-0.0540	18.7855	3.1186	-18.4621	0.1299	-0.5099	0.0411	0.8494
10.63	-8.3922	-0.4484	4.4726	-0.0076	-0.0093	-0.0592	18.9989	3.5464	-18.3741	0.1300	-0.5099	0.0412	0.8494
10.64	-8.3892	-0.4474	4.4736	-0.0173	-0.0125	-0.0561	18.9207	3.2444	-18.4094	0.1300	-0.5099	0.0412	0.8493
10.65	-8.3874	-0.4521	4.4814	-0.0149	-0.0135	-0.0574	19.3864	3.4967	-18.2751	0.1300	-0.5099	0.0412	0.8494
10.66	-8.3746	-0.4585	4.4880	-0.0176	-0.0087	-0.0603	19.3344	3.1840	-18.1314	0.1301	-0.5100	0.0412	0.8493
10.67	-8.3654	-0.4721	4.4817	-0.0153	-0.0160	-0.0617	19.1535	3.2371	-18.1426	0.1301	-0.5099	0.0412	0.8493
10.68	-8.3685	-0.4892	4.4844	-0.0166	-0.0095	-0.0509	19.1179	3.3305	-18.3259	0.1302	-0.5100	0.0412	0.8493
10.69	-8.3674	-0.5020	4.4852	-0.0176	-0.0131	-0.0471	18.8811	3.2836	-18.1922	0.1302	-0.5100	0.0412	0.8493
10.7	-8.3664	-0.5025	4.4825	-0.0161	-0.0071	-0.0495	18.8554	3.3957	-18.2811	0.1302	-0.5100	0.0412	0.8493
10.71	-8.3720	-0.4966	4.4767	-0.0170	-0.0046	-0.0492	18.9615	3.1470	-18.3043	0.1302	-0.5100	0.0413	0.8492
10.72	-8.3708	-0.5000	4.4740	-0.0049	-0.0054	-0.0430	18.9555	3.3990	-18.2786	0.1302	-0.5101	0.0414	0.8492
10.73	-8.3667	-0.4924	4.4744	0.0016	-0.0073	-0.0378	19.1367	3.1388	-18.4909	0.1302	-0.5101	0.0415	0.8492
10.74	-8.3664	-0.4935	4.4807	-0.0034	-0.0092	-0.0416	19.0668	2.9890	-18.3786	0.1302	-0.5102	0.0416	0.8492
10.75	-8.3664	-0.4846	4.4748	-0.0008	-0.0081	-0.0428	19.0302	3.1597	-18.4012	0.1302	-0.5102	0.0417	0.8491
10.76	-8.3701	-0.4684	4.4820	0.0028	-0.0107	-0.0427	19.0619	3.1098	-18.3248	0.1303	-0.5102	0.0418	0.8491
10.77	-8.3969	-0.4643	4.4905	0.0024	-0.0103	-0.0433	19.2249	2.9648	-18.3535	0.1303	-0.5102	0.0419	0.8491
10.78	-8.3829	-0.4605	4.4889	0.0037	-0.0058	-0.0450	19.1657	3.3195	-18.6497	0.1303	-0.5102	0.0421	0.8490
10.79	-8.3775	-0.4574	4.4824	0.0064	-0.0066	-0.0432	18.8964	3.3808	-18.2851	0.1304	-0.5103	0.0422	0.8491
10.8	-8.3636	-0.4367	4.4743	0.0052	-0.0149	-0.0458	19.0402	3.1576	-18.2091	0.1304	-0.5102	0.0423	0.8490
10.81	-8.4071	-0.4224	4.4789	0.0057	-0.0072	-0.0508	19.2550	3.2677	-18.3893	0.1305	-0.5103	0.0424	0.8491
10.82	-8.3867	-0.4062	4.4769	-0.0001	-0.0141	-0.0522	19.1294	3.0145	-18.3860	0.1305	-0.5102	0.0425	0.8490
10.83	-8.3567	-0.4073	4.4829	-0.0022	-0.0169	-0.0504	18.8874	3.1616	-18.3606	0.1306	-0.5102	0.0426	0.8490
10.84	-8.4043	-0.4266	4.4901	-0.0153	-0.0098	-0.0549	18.6808	3.0994	-18.4536	0.1306	-0.5102	0.0426	0.8490
10.85	-8.3909	-0.4424	4.4975	-0.0175	-0.0113	-0.0519	18.7471	3.2010	-18.4266	0.1306	-0.5102	0.0426	0.8489
10.86	-8.3678	-0.4822	4.4902	-0.0150	-0.0124	-0.0572	19.0094	3.3350	-18.2412	0.1307	-0.5103	0.0427	0.8490
10.87	-8.3649	-0.5181	4.4739	-0.0116	-0.0057	-0.0510	19.1933	3.2659	-18.5080	0.1307	-0.5103	0.0427	0.8489
10.88	-8.3445	-0.5337	4.4581	-0.0104	-0.0066	-0.0423	19.0447	3.4241	-18.3471	0.1307	-0.5104	0.0428	0.8490
10.89	-8.3487	-0.5174	4.4520	0.0025	-0.0023	-0.0468	19.0680	3.6161	-18.1860	0.1308	-0.5103	0.0429	0.8488
10.9	-8.3716	-0.4758	4.4405	0.0058	-0.0006	-0.0402	18.8988	3.2956	-18.3178	0.1308	-0.5104	0.0430	0.8488
10.91	-8.3799	-0.4539	4.4327	0.0104	-0.0040	-0.0377	18.9007	3.3652	-18.3103	0.1308	-0.5105	0.0432	0.8488
10.92	-8.3780	-0.4492	4.4241	0.0111	-0.0068	-0.0477	19.0392	3.3571	-18.5147	0.1309	-0.5105	0.0433	0.8487
10.93	-8.3556	-0.4612	4.4098	0.0070	-0.0066	-0.0578	19.1643	3.0745	-18.3450	0.1310	-0.5105	0.0434	0.8488
10.94	-8.3740	-0.4700	4.4082	0.0121	0.0012	-0.0611	19.2175	3.0483	-18.4204	0.1311	-0.5105	0.0436	0.8487
10.95	-8.3966	-0.4593	4.4157	0.0137	0.0076	-0.0622	19.0629	3.0183	-18.5049	0.1312	-0.5106	0.0437	0.8486
10.96	-8.4057	-0.4252	4.4180	0.0104	0.0007	-0.0620	18.9390	3.1290	-18.3723	0.1314	-0.5106	0.0438	0.8485
10.97	-8.4201	-0.3938	4.4180	0.0088	0.0008	-0.0576	19.0909	3.3357	-18.3879	0.1315	-0.5108	0.0439	0.8485
10.98	-8.4280	-0.3801	4.4253	0.0017	0.0035	-0.0645	19.3046	2.9798	-18.3770	0.1316	-0.5108	0.0440	0.8484
10.99	-8.4282	-0.3869	4.4233	-0.0052	0.0001	-0.0561	19.3336	3.2124	-18.3876	0.1317	-0.5109	0.0441	0.8484
11	-8.4341	-0.4074	4.4297	-0.0171	-0.0057	-0.0477	19.2122	3.2186	-18.2892	0.1317	-0.5109	0.0441	0.8483
11.01	-8.4561	-0.4307	4.4371	-0.0187	-0.0045	-0.0444	18.8628	3.2275	-18.4076	0.1317	-0.5110	0.0441	0.8483
11.02	-8.4574	-0.4525	4.4297	-0.0232	-0.0105	-0.0430	19.0849	3.1638	-18.3725	0.1316	-0.5110	0.0441	0.8483
11.03	-8.4416	-0.4729	4.4272	-0.0181	-0.0107	-0.0374	18.8540	3.0966	-18.3930	0.1316	-0.5110	0.0442	0.8482
11.04	-8.4404	-0.4944	4.4314	-0.0178	-0.0108	-0.0364	19.0841	3.2605	-18.2702	0.1315	-0.5111	0.0442	0.8483
11.05	-8.4331	-0.4968	4.4317	-0.0159	-0.0204	-0.0365	19.0064	3.1629	-18.3056	0.1315	-0.5110	0.0443	0.8483
11.06	-8.4087	-0.4937	4.4258	-0.0176	-0.0185	-0.0380	18.9155	3.1049	-18.2764	0.1315	-0.5110	0.0443	0.8484
11.07	-8.3828	-0.4782	4.4275	-0.0088	-0.0165	-0.0381	19.0829	3.2280	-18.3026	0.1314	-0.5109	0.0444	0.8483
11.08	-8.4037	-0.4633	4.4254	-0.0013	-0.0156	-0.0483	19.0014	3.2154	-18.5175	0.1315	-0.5110	0.0445	0.8483
11.09	-8.3636	-0.4188	4.4359	-0.0067	-0.0214	-0.0491	18.9627	3.3940	-18.4409	0.1315	-0.5109	0.0445	0.8483
11.1	-8.4168	-0.4032	4.4715	0.0008	-0.0188	-0.0489	18.8740	3.3439	-18.2657	0.1316	-0.5109	0.0446	0.8483
11.11	-8.4365	-0.3920	4.4748	-0.0007	-0.0186	-0.0624	18.9579	2.9736	-18.3278	0.1317	-0.5109	0.0447	0.8484
11.12	-8.3461	-0.3818	4.4680	-0.0137	-0.0208	-0.0603	19.2481	2.9677	-18.4948	0.1317	-0.5109	0.0447	0.8483
11.13	-8.3609	-0.4224	4.4520	-0.0145	-0.0119	-0.0572	19.1462	3.1335	-18.4960	0.1318	-0.5109	0.0447	0.8484
11.14	-8.3873	-0.4292	4.4653	-0.0157	-0.0080	-0.0675	19.1251	3.1352	-18.2763	0.1319	-0.5109	0.0447	0.8482
11.15	-8.3691	-0.4408	4.4571	-0.0188	-0.0170	-0.0535	19.3616	2.9054	-18.1882	0.1319	-0.5109	0.0447	0.8483
11.16	-8.3635	-0.4245	4.4607	-0.0191	-0.0153	-0.0428	19.6251	3.1914	-18.1432	0.1319	-0.5109	0.0447	0.8483
11.17	-8.3946	-0.4141	4.4691	-0.0274	-0.0052	-0.0480	19.3832	3.2382	-18.1312	0.1319	-0.5109	0.0447	0.8482
11.18	-8.4151	-0.4276	4.4727	-0.0319	-0.0169	-0.0501	18.9954	3.2394	-18.3329	0.1318	-0.5110	0.0446	0.8483
11.19	-8.4073	-0.4546	4.4679	-0.0378	-0.0235	-0.0459	18.9086	3.2401	-18.4432	0.1318	-0.5109	0.0446	0.8483
11.2	-8.4016	-0.4883	4.4739	-0.0338	-0.0206	-0.0489	18.9333	3.1400	-18.3229	0.1317	-0.5110	0.0445	0.8483
11.21	-8.4137	-0.5063	4.4578	-0.0336	-0.0148	-0.0523	19.1119	3.4082	-18.2670	0.1317	-0.5109	0.0444	0.8482
11.22	-8.3941	-0.5061	4.4473	-0.0281	-0.0234	-0.0584	19.0528	3.3580	-18.4420	0.1317	-0.5109	0.0444	0.8483
11.23	-8.3886	-0.5101	4.4432	-0.0273	-0.0136	-0.0648	18.7907	3.2537	-18.4837	0.1318	-0.5109	0.0443	0.8483
11.24	-8.4085	-0.5040	4.4326	-0.0202	-0.0142	-0.0626	18.8883	3.0828	-18.4910	0.1318	-0.5110	0.0443	0.8483
11.25	-8.3998	-0.5028	4.4273	-0.0171	-0.0161	-0.0618	18.9050	3.3290	-18.3721	0.1319	-0.5109	0.0443	0.8483
11.26	-8.3969	-0.5062	4.4220	-0.0254	-0.0199	-0.0592	18.9024	3.2417	-18.2812	0.1319	-0.5109	0.0442	0.8483
11.27	-8.4199	-0.5162	4.4221	-0.0169	-0.0169	-0.0561	19.0885	3.2350	-18.4995	0.1320	-0.5110	0.0442	0.8483
11.28	-8.4239	-0.5092	4.4293	-0.0229	-0.0246	-0.0563	19.0060	3.3378	-18.3959	0.1320	-0.5109	0.0442	0.8482
11.29	-8.4341	-0.5047	4.4360	-0.0192	-0.0276	-0.0504	18.8589	3.1446	-18.2688	0.1320	-0.5109	0.0442	0.8484
11.3	-8.4375	-0.5055	4.4384	-0.0128	-0.0263	-0.0483	19.1147	3.2862	-18.3163	0.1320	-0.5108	0.0442	0.8483
11.31	-8.4482	-0.4986	4.4413	-0.0132	-0.0264	-0.0422	19.1880	3.2395	-18.2547	0.1320	-0.5108	0.0442	0.8484
11.32	-8.4444	-0.4932	4.4393	-0.0135	-0.0344	-0.0471	19.1583	3.1027	-18.5063	0.1320	-0.5107	0.0443	0.8484
11.33	-8.4345	-0.5022	4.4384	-0.0165	-0.0376	-0.0400	19.1639	3.1145	-18.4369	0.1320	-0.5106	0.0443	0.8485
11.34	-8.4179	-0.5028	4.4379	-0.0148	-0.0355	-0.0441	19.1870	3.3248	-18.1949	0.1320	-0.5105	0.0443	0.8485
11.35	-8.4242	-0.4878	4.4505	-0.0113	-0.0355	-0.0442	19.0708	3.1279	-18.5221	0.1320	-0.5104	0.0443	0.8485
11.36	-8.4195	-0.4780	4.4442	-0.0066	-0.0366	-0.0416	19.1855	3.0176	-18.3224	0.1320	-0.5104	0.0444	0.8487
11.37	-8.4064	-0.4711	4.4455	-0.0067	-0.0367	-0.0465	19.1339	3.2913	-18.1929	0.1321	-0.5102	0.0445	0.8487
11.38	-8.3937	-0.4620	4.4509	-0.0024	-0.0353	-0.0456	18.7908	3.0878	-18.3860	0.1321	-0.5102	0.0445	0.8488
11.39	-8.3833	-0.4480	4.4522	0.0061	-0.0379	-0.0524	18.8938	3.2105	-18.4780	0.1322	-0.5100	0.0446	0.8487
11.4	-8.3839	-0.4394	4.4668	-0.0032	-0.0459	-0.0527	19.1368	3.3139	-18.4753	0.1323	-0.5099	0.0447	0.8489
11.41	-8.3832	-0.4298	4.4803	0.0011	-0.0416	-0.0607	19.0115	3.2629	-18.3283	0.1324	-0.5098	0.0447	0.8489
11.42	-8.3849	-0.4228	4.4890	-0.0030	-0.0477	-0.0567	18.9362	3.0804	-18.5053	0.1324	-0.5096	0.0447	0.8489
11.43	-8.3924	-0.4083	4.4981	-0.0135	-0.0456	-0.0483	18.6621	3.3264	-18.3556	0.1325	-0.5095	0.0448	0.8491
11.44	-8.3732	-0.4028	4.4990	-0.0152	-0.0476	-0.0550	18.8033	3.5186	-18.3099	0.1325	-0.5094	0.0448	0.8491
