time	acceleration_x	acceleration_y	acceleration_z	gyroscope_x	gyroscope_y	gyroscope_z	magnetometer_x	magnetometer_y	magnetometer_z	quaternion_w	quaternion_x	quaternion_y	quaternion_z
0	-9.4678	-0.0964	-1.8513	0.0019	-0.0081	0.0093	32.0501	1.3982	17.0963	0.6341	0.0492	0.7702	-0.0469
0.01	-9.4744	-0.0884	-1.8458	0.0014	-0.0043	0.0106	32.1656	1.4461	16.9545	0.6341	0.0492	0.7703	-0.0470
0.02	-9.4667	-0.1009	-1.8468	0.0041	-0.0078	0.0090	31.9755	1.4826	17.0047	0.6341	0.0492	0.7703	-0.0470
0.03	-9.4818	-0.0908	-1.8358	0.0037	-0.0124	0.0087	31.8627	1.6047	17.1368	0.6341	0.0493	0.7703	-0.0470
0.04	-9.4825	-0.0886	-1.8400	0.0038	-0.0077	0.0095	31.9130	1.6961	17.1633	0.6340	0.0493	0.7702	-0.0470
0.05	-9.4733	-0.0889	-1.8473	0.0031	-0.0169	0.0089	31.8801	1.6352	16.9143	0.6341	0.0493	0.7703	-0.0470
0.06	-9.4703	-0.1009	-1.8498	0.0044	-0.0165	0.0136	31.9421	1.6873	16.8859	0.6341	0.0493	0.7702	-0.0470
0.07	-9.4802	-0.0881	-1.8482	0.0001	-0.0037	0.0067	32.0155	1.6358	17.1345	0.6341	0.0494	0.7703	-0.0471
0.08	-9.4765	-0.0897	-1.8418	0.0068	-0.0053	0.0100	31.7755	1.6953	17.3241	0.6340	0.0494	0.7703	-0.0471
0.09	-9.4685	-0.0914	-1.8451	0.0014	-0.0124	0.0066	31.7232	1.6997	17.3341	0.6340	0.0494	0.7703	-0.0471
0.1	-9.4708	-0.1040	-1.8450	0.0020	-0.0165	0.0068	31.9064	1.5135	17.0637	0.6341	0.0494	0.7703	-0.0471
0.11	-9.4730	-0.0909	-1.8478	0.0038	-0.0019	0.0030	31.8771	1.6955	17.1502	0.6340	0.0494	0.7702	-0.0472
0.12	-9.4752	-0.0975	-1.8418	0.0010	-0.0133	0.0073	31.9213	1.5373	17.1166	0.6341	0.0494	0.7703	-0.0472
0.13	-9.4711	-0.0946	-1.8488	0.0037	-0.0130	0.0079	31.8458	1.6382	17.2479	0.6340	0.0494	0.7703	-0.0472
0.14	-9.4769	-0.0953	-1.8466	0.0045	-0.0113	0.0107	32.0121	1.8814	17.2927	0.6341	0.0495	0.7703	-0.0472
0.15	-9.4703	-0.0947	-1.8416	0.0012	-0.0130	0.0138	31.7625	1.6194	17.1207	0.6340	0.0495	0.7702	-0.0472
0.16	-9.4804	-0.1031	-1.8302	0.0017	-0.0137	0.0068	31.8006	1.5936	17.0169	0.6340	0.0495	0.7703	-0.0472
0.17	-9.4876	-0.1029	-1.8237	0.0001	-0.0128	0.0044	32.0438	1.6882	16.9903	0.6340	0.0495	0.7703	-0.0472
0.18	-9.4877	-0.0996	-1.8340	0.0002	-0.0149	0.0055	31.9430	1.6471	17.1585	0.6340	0.0495	0.7702	-0.0473
0.19	-9.4837	-0.1020	-1.8488	0.0017	-0.0085	0.0104	31.9800	1.7598	17.2462	0.6341	0.0495	0.7703	-0.0473
0.2	-9.4726	-0.1157	-1.8548	0.0044	-0.0181	0.0130	32.1253	1.6200	17.2048	0.6341	0.0496	0.7702	-0.0473
0.21	-9.4678	-0.1228	-1.8683	-0.0026	-0.0160	0.0044	32.2824	1.7464	16.8990	0.6341	0.0495	0.7703	-0.0473
0.22	-9.4622	-0.1220	-1.8717	-0.0062	-0.0072	0.0085	32.0429	1.7562	17.2425	0.6340	0.0495	0.7702	-0.0473
0.23	-9.4686	-0.1243	-1.8915	-0.0097	-0.0151	0.0036	31.8089	1.5456	17.4334	0.6341	0.0495	0.7702	-0.0473
0.24	-9.4652	-0.1249	-1.8916	0.0017	-0.0104	0.0063	31.4945	1.3682	17.1530	0.6341	0.0495	0.7702	-0.0473
0.25	-9.4701	-0.1220	-1.8811	-0.0004	-0.0160	0.0049	31.7979	1.4686	17.0477	0.6341	0.0495	0.7702	-0.0473
0.26	-9.4728	-0.1112	-1.8785	-0.0020	-0.0182	0.0059	31.7809	1.5944	17.0363	0.6341	0.0495	0.7702	-0.0473
0.27	-9.4713	-0.1056	-1.8846	-0.0075	-0.0151	0.0107	31.8142	1.6681	17.0287	0.6341	0.0495	0.7702	-0.0473
0.28	-9.4718	-0.1106	-1.8659	-0.0067	-0.0150	0.0005	31.8902	1.6391	17.0639	0.6342	0.0494	0.7702	-0.0473
0.29	-9.4656	-0.0966	-1.8795	-0.0003	-0.0138	0.0056	31.8542	1.7363	16.9200	0.6341	0.0494	0.7701	-0.0473
0.3	-9.4758	-0.0973	-1.8727	-0.0009	-0.0136	0.0038	31.8749	1.6511	17.0979	0.6342	0.0494	0.7702	-0.0473
0.31	-9.4789	-0.1007	-1.8681	-0.0071	-0.0178	0.0047	31.9999	1.6282	17.0847	0.6342	0.0494	0.7701	-0.0473
0.32	-9.4684	-0.1040	-1.8600	-0.0044	-0.0205	0.0037	31.8043	1.5185	17.0641	0.6343	0.0494	0.7701	-0.0473
0.33	-9.4742	-0.1080	-1.8641	-0.0010	-0.0160	0.0093	31.6820	1.7792	17.3405	0.6342	0.0494	0.7701	-0.0473
0.34	-9.4744	-0.1025	-1.8658	-0.0005	-0.0146	0.0085	31.9261	1.6865	17.2623	0.6343	0.0494	0.7701	-0.0473
0.35	-9.4726	-0.1035	-1.8548	-0.0047	-0.0155	0.0050	31.9641	1.6615	17.1755	0.6343	0.0494	0.7701	-0.0473
0.36	-9.4723	-0.0944	-1.8400	-0.0019	-0.0204	0.0067	31.8505	1.5783	17.3217	0.6343	0.0493	0.7700	-0.0474
0.37	-9.4683	-0.0775	-1.8419	-0.0043	-0.0151	0.0095	31.8732	1.4741	17.2753	0.6344	0.0494	0.7701	-0.0473
0.38	-9.4724	-0.0790	-1.8368	0.0001	-0.0116	0.0091	32.1020	1.6269	17.2309	0.6343	0.0494	0.7700	-0.0473
0.39	-9.4697	-0.0862	-1.8382	0.0002	-0.0176	0.0093	31.8743	1.4864	17.3645	0.6344	0.0494	0.7701	-0.0474
0.4	-9.4578	-0.0845	-1.8387	-0.0033	-0.0139	0.0107	31.7732	1.4833	17.0961	0.6343	0.0494	0.7700	-0.0473
0.41	-9.4730	-0.0856	-1.8357	-0.0009	-0.0120	0.0070	32.0022	1.6058	17.0292	0.6344	0.0494	0.7700	-0.0474
0.42	-9.4796	-0.0867	-1.8360	0.0027	-0.0098	0.0084	31.8837	1.5373	17.0523	0.6344	0.0494	0.7700	-0.0474
0.43	-9.4676	-0.0909	-1.8177	0.0012	-0.0102	0.0087	31.8516	1.6687	17.0154	0.6343	0.0494	0.7700	-0.0474
0.44	-9.4679	-0.0912	-1.8227	-0.0040	-0.0116	0.0074	31.8879	1.6296	17.1641	0.6344	0.0494	0.7701	-0.0474
0.45	-9.4725	-0.0883	-1.8313	0.0006	-0.0084	0.0060	31.6904	1.7074	17.0615	0.6343	0.0494	0.7700	-0.0474
0.46	-9.4682	-0.0867	-1.8357	-0.0001	-0.0143	0.0049	31.5934	1.6847	17.0606	0.6344	0.0494	0.7700	-0.0474
0.47	-9.4722	-0.0844	-1.8374	-0.0086	-0.0194	0.0011	31.7023	1.6234	17.2571	0.6343	0.0494	0.7699	-0.0474
0.48	-9.4711	-0.0923	-1.8473	-0.0039	-0.0050	0.0065	31.8255	1.7770	16.9333	0.6344	0.0494	0.7700	-0.0474
0.49	-9.4732	-0.0962	-1.8414	-0.0019	-0.0086	0.0040	31.7162	1.6959	17.0251	0.6344	0.0493	0.7700	-0.0474
0.5	-9.4667	-0.0897	-1.8405	-0.0023	-0.0117	0.0075	31.7588	1.8178	17.2462	0.6343	0.0493	0.7700	-0.0474
0.51	-9.4688	-0.1000	-1.8473	-0.0036	-0.0050	0.0093	31.8005	1.8946	17.0826	0.6343	0.0493	0.7700	-0.0474
0.52	-9.4724	-0.0979	-1.8430	0.0007	-0.0107	0.0002	31.6531	1.9289	17.0145	0.6343	0.0493	0.7700	-0.0474
0.53	-9.4691	-0.0929	-1.8428	0.0018	-0.0156	0.0010	31.8056	1.7737	17.0365	0.6344	0.0493	0.7700	-0.0475
0.54	-9.4765	-0.0939	-1.8495	0.0016	-0.0130	0.0062	32.0581	1.3482	17.0439	0.6343	0.0493	0.7699	-0.0475
0.55	-9.4726	-0.0960	-1.8578	-0.0005	-0.0059	0.0019	31.9023	1.5590	17.1498	0.6343	0.0493	0.7701	-0.0475
0.56	-9.4740	-0.1037	-1.8568	-0.0029	-0.0139	0.0089	32.0118	1.6833	16.9589	0.6343	0.0493	0.7700	-0.0475
0.57	-9.4741	-0.1128	-1.8631	-0.0074	-0.0104	-0.0006	32.0194	1.3831	17.2412	0.6343	0.0493	0.7700	-0.0475
0.58	-9.4697	-0.1199	-1.8726	-0.0076	-0.0104	0.0052	32.0515	1.5163	17.1097	0.6343	0.0492	0.7700	-0.0475
0.59	-9.4679	-0.1219	-1.8647	-0.0045	-0.0150	0.0079	31.8534	1.4630	17.0530	0.6343	0.0492	0.7700	-0.0475
0.6	-9.4599	-0.1196	-1.8714	0.0003	-0.0146	0.0032	31.7956	1.7367	17.3487	0.6344	0.0492	0.7700	-0.0475
0.61	-9.4618	-0.1259	-1.8716	0.0008	-0.0137	0.0051	31.9531	1.6466	17.1917	0.6343	0.0492	0.7699	-0.0476
0.62	-9.4757	-0.1230	-1.8820	-0.0042	-0.0079	0.0073	31.9603	1.6884	17.1365	0.6344	0.0492	0.7701	-0.0476
0.63	-9.4750	-0.1140	-1.8750	0.0019	-0.0135	0.0059	31.8807	1.6969	17.2370	0.6343	0.0492	0.7700	-0.0476
0.64	-9.4771	-0.1074	-1.8742	0.0025	-0.0112	0.0089	31.6881	1.4447	17.1676	0.6344	0.0492	0.7701	-0.0476
0.65	-9.4749	-0.1090	-1.8795	-0.0009	-0.0122	0.0036	31.7036	1.5795	16.9920	0.6343	0.0492	0.7700	-0.0476
0.66	-9.4744	-0.0984	-1.8755	-0.0029	-0.0108	0.0041	31.8377	1.5874	16.9911	0.6344	0.0492	0.7700	-0.0476
0.67	-9.4756	-0.1014	-1.8683	0.0024	-0.0146	0.0055	31.8423	1.8550	17.1796	0.6344	0.0492	0.7700	-0.0477
0.68	-9.4730	-0.1105	-1.8682	0.0031	-0.0150	0.0056	31.6874	1.7248	17.0213	0.6343	0.0492	0.7699	-0.0477
0.69	-9.4740	-0.0959	-1.8668	-0.0043	-0.0174	0.0042	31.7111	1.7348	17.0185	0.6344	0.0492	0.7700	-0.0477
0.7	-9.4653	-0.0980	-1.8678	0.0024	-0.0127	0.0070	31.9693	1.8728	17.2299	0.6344	0.0492	0.7700	-0.0477
0.71	-9.4718	-0.1008	-1.8619	0.0035	-0.0216	0.0115	32.0359	1.9272	17.5235	0.6345	0.0492	0.7700	-0.0477
0.72	-9.4692	-0.0967	-1.8637	0.0070	-0.0213	0.0061	31.9927	1.8340	17.3620	0.6344	0.0492	0.7698	-0.0478
0.73	-9.4729	-0.0922	-1.8477	0.0052	-0.0235	0.0114	32.0682	1.7005	17.2826	0.6345	0.0493	0.7699	-0.0478
0.74	-9.4807	-0.0935	-1.8500	-0.0020	-0.0231	0.0090	31.9309	1.5243	17.1515	0.6346	0.0493	0.7698	-0.0478
0.75	-9.4842	-0.0927	-1.8514	0.0024	-0.0186	0.0109	32.0641	1.4735	17.0413	0.6346	0.0493	0.7698	-0.0478
0.76	-9.4776	-0.0915	-1.8486	0.0075	-0.0193	0.0125	31.8863	1.5941	17.3267	0.6346	0.0494	0.7698	-0.0478
0.77	-9.4714	-0.0866	-1.8545	0.0009	-0.0184	0.0098	31.8980	1.6938	17.1816	0.6346	0.0494	0.7697	-0.0478
0.78	-9.4713	-0.0925	-1.8503	0.0028	-0.0163	0.0100	31.9115	1.5878	17.0097	0.6347	0.0494	0.7698	-0.0479
0.79	-9.4650	-0.0939	-1.8421	0.0003	-0.0198	0.0111	31.7734	1.5756	16.9647	0.6346	0.0494	0.7696	-0.0479
0.8	-9.4714	-0.0840	-1.8436	-0.0015	-0.0186	0.0093	31.8525	1.5630	17.1666	0.6347	0.0494	0.7697	-0.0479
0.81	-9.4691	-0.0976	-1.8407	0.0006	-0.0131	0.0031	31.7839	1.4606	17.0978	0.6347	0.0494	0.7697	-0.0479
0.82	-9.4686	-0.0981	-1.8401	0.0009	-0.0141	0.0022	31.9461	1.5553	17.2182	0.6347	0.0494	0.7697	-0.0479
0.83	-9.4592	-0.0888	-1.8349	-0.0016	-0.0173	-0.0005	31.9420	1.6881	17.3745	0.6347	0.0494	0.7696	-0.0479
0.84	-9.4748	-0.0820	-1.8421	-0.0080	-0.0180	0.0030	32.0131	1.7373	17.1068	0.6348	0.0493	0.7696	-0.0479
0.85	-9.4673	-0.1006	-1.8435	-0.0050	-0.0139	0.0089	31.7100	1.5946	17.2308	0.6348	0.0493	0.7696	-0.0479
0.86	-9.4607	-0.0973	-1.8302	-0.0071	-0.0153	0.0089	31.6558	1.4779	17.3782	0.6348	0.0493	0.7696	-0.0479
0.87	-9.4717	-0.1020	-1.8396	-0.0036	-0.0145	0.0079	31.9363	1.5129	17.1068	0.6348	0.0493	0.7696	-0.0479
0.88	-9.4710	-0.1170	-1.8382	-0.0052	-0.0168	0.0047	32.0174	1.5921	17.1492	0.6348	0.0493	0.7696	-0.0479
0.89	-9.4714	-0.1193	-1.8395	-0.0103	-0.0141	0.0089	31.8506	1.6115	17.3804	0.6349	0.0493	0.7696	-0.0479
0.9	-9.4710	-0.1110	-1.8297	0.0028	-0.0159	0.0079	31.8391	1.7766	17.2582	0.6348	0.0493	0.7695	-0.0479
0.91	-9.4695	-0.1177	-1.8316	-0.0003	-0.0144	0.0068	31.8978	1.7035	17.1070	0.6349	0.0493	0.7696	-0.0479
0.92	-9.4749	-0.1131	-1.8347	0.0000	-0.0202	0.0112	32.1014	1.6498	17.1379	0.6349	0.0493	0.7695	-0.0479
0.93	-9.4697	-0.1033	-1.8421	-0.0002	-0.0130	0.0112	32.1137	1.6772	17.1896	0.6349	0.0493	0.7695	-0.0479
0.94	-9.4711	-0.1042	-1.8421	0.0072	-0.0130	0.0092	31.9815	1.5645	17.1844	0.6350	0.0494	0.7696	-0.0479
0.95	-9.4655	-0.1007	-1.8487	0.0014	-0.0208	0.0105	31.9615	1.4494	17.2789	0.6349	0.0494	0.7695	-0.0480
0.96	-9.4660	-0.0985	-1.8499	-0.0032	-0.0171	0.0098	32.0201	1.6156	17.1010	0.6350	0.0494	0.7695	-0.0479
0.97	-9.4783	-0.1034	-1.8484	-0.0024	-0.0121	0.0079	31.7255	1.7710	17.3226	0.6349	0.0494	0.7694	-0.0479
0.98	-9.4718	-0.1107	-1.8488	-0.0002	-0.0161	0.0086	31.8157	1.6049	17.1641	0.6350	0.0494	0.7695	-0.0479
0.99	-9.4751	-0.1174	-1.8538	-0.0020	-0.0137	0.0102	31.8719	1.5714	17.1325	0.6350	0.0494	0.7694	-0.0479
1	-9.4781	-0.1220	-1.8465	0.0024	-0.0109	0.0111	31.8544	1.5748	17.1245	0.6350	0.0494	0.7694	-0.0479
1.01	-9.4737	-0.1195	-1.8517	-0.0077	-0.0148	0.0066	31.8600	1.5810	16.9780	0.6350	0.0494	0.7694	-0.0479
1.02	-9.4700	-0.1100	-1.8529	-0.0000	-0.0139	0.0022	32.1084	1.5756	17.3836	0.6350	0.0494	0.7694	-0.0480
1.03	-9.4744	-0.1167	-1.8698	-0.0020	-0.0155	0.0065	32.0139	1.7893	17.1261	0.6351	0.0494	0.7694	-0.0480
1.04	-9.4730	-0.1072	-1.8738	-0.0046	-0.0189	0.0080	31.7494	1.5450	17.2922	0.6350	0.0494	0.7693	-0.0480
1.05	-9.4707	-0.0998	-1.8655	0.0017	-0.0109	0.0094	31.6864	1.6157	17.2165	0.6351	0.0494	0.7694	-0.0480
1.06	-9.4718	-0.0979	-1.8589	-0.0039	-0.0172	0.0056	31.8666	1.6147	17.1947	0.6351	0.0494	0.7694	-0.0480
1.07	-9.4707	-0.1006	-1.8423	-0.0025	-0.0055	0.0021	32.0371	1.6266	17.3213	0.6351	0.0494	0.7694	-0.0480
1.08	-9.4880	-0.0988	-1.8765	0.0024	-0.0149	0.0147	31.9316	1.6774	17.0371	0.6351	0.0494	0.7694	-0.0480
1.09	-9.4641	-0.0843	-1.8593	-0.0063	-0.0186	0.0112	31.8207	1.6594	17.2480	0.6351	0.0494	0.7694	-0.0480
1.1	-9.4768	-0.0958	-1.8619	0.0011	-0.0065	0.0057	31.9269	1.8056	17.0434	0.6351	0.0494	0.7694	-0.0480
1.11	-9.4904	-0.0741	-1.8898	-0.0054	-0.0185	0.0118	31.9372	1.5688	17.2836	0.6351	0.0494	0.7693	-0.0480
1.12	-9.4451	-0.0892	-1.8336	0.0010	-0.0131	0.0083	31.9460	1.4817	17.1334	0.6352	0.0494	0.7694	-0.0480
1.13	-9.4917	-0.0897	-1.8975	-0.0024	-0.0094	0.0103	31.9190	1.5107	17.1253	0.6351	0.0494	0.7693	-0.0480
1.14	-9.4582	-0.1045	-1.8481	-0.0034	-0.0155	0.0107	31.7784	1.6901	17.1496	0.6352	0.0495	0.7694	-0.0480
1.15	-9.4698	-0.1169	-1.8539	0.0059	-0.0118	0.0092	31.7762	1.4629	16.9555	0.6351	0.0495	0.7693	-0.0480
1.16	-9.4901	-0.0792	-1.8602	-0.0010	-0.0139	0.0066	31.9047	1.6381	17.0372	0.6351	0.0495	0.7693	-0.0480
1.17	-9.4623	-0.0916	-1.8371	-0.0071	-0.0137	0.0049	31.9617	1.4538	16.9517	0.6351	0.0495	0.7693	-0.0480
1.18	-9.4943	-0.0719	-1.8648	-0.0059	-0.0175	0.0093	31.9148	1.4419	17.1886	0.6351	0.0494	0.7693	-0.0480
1.19	-9.4605	-0.0850	-1.8540	-0.0022	-0.0157	0.0111	32.1359	1.7259	17.1568	0.6352	0.0495	0.7693	-0.0480
1.2	-9.4749	-0.0801	-1.8628	-0.0019	-0.0188	0.0065	32.0614	1.7340	17.5177	0.6352	0.0495	0.7693	-0.0480
1.21	-9.4637	-0.0903	-1.8573	0.0001	-0.0154	0.0115	32.1589	1.5586	17.6219	0.6353	0.0495	0.7693	-0.0480
1.22	-9.4682	-0.1013	-1.8428	-0.0064	-0.0123	0.0038	32.0951	1.7067	17.3561	0.6352	0.0495	0.7692	-0.0479
1.23	-9.4926	-0.1036	-1.8430	0.0031	-0.0152	-0.0019	31.7971	1.6182	17.1466	0.6352	0.0494	0.7693	-0.0480
1.24	-9.4807	-0.1172	-1.8480	-0.0046	-0.0123	0.0026	31.7470	1.6471	17.0743	0.6352	0.0494	0.7692	-0.0480
1.25	-9.4587	-0.1097	-1.8435	-0.0093	-0.0124	0.0030	31.7147	1.8284	17.0345	0.6352	0.0494	0.7692	-0.0480
1.26	-9.4667	-0.1257	-1.8594	-0.0102	-0.0089	0.0135	31.7642	1.8822	17.1410	0.6352	0.0494	0.7693	-0.0480
1.27	-9.4708	-0.1251	-1.8648	-0.0024	-0.0133	0.0102	31.8540	1.8002	17.2744	0.6352	0.0494	0.7692	-0.0479
1.28	-9.4642	-0.1338	-1.8498	-0.0009	-0.0109	0.0059	31.8426	1.7986	17.1253	0.6353	0.0494	0.7693	-0.0480
1.29	-9.4776	-0.1233	-1.8638	0.0023	-0.0170	0.0072	31.8835	1.4777	17.2511	0.6352	0.0494	0.7692	-0.0480
1.3	-9.4757	-0.1233	-1.8597	0.0009	-0.0141	0.0080	31.8208	1.3646	17.0996	0.6353	0.0494	0.7692	-0.0480
1.31	-9.4686	-0.1238	-1.8448	-0.0021	-0.0098	0.0079	31.8527	1.4590	17.0900	0.6353	0.0494	0.7692	-0.0480
1.32	-9.4686	-0.1155	-1.8464	-0.0041	-0.0143	0.0048	31.8436	1.4876	17.1742	0.6353	0.0494	0.7692	-0.0480
1.33	-9.4710	-0.1025	-1.8455	-0.0057	-0.0119	0.0139	31.9017	1.4833	17.1334	0.6353	0.0494	0.7692	-0.0480
1.34	-9.4648	-0.0867	-1.8321	-0.0074	-0.0220	0.0106	31.7701	1.7040	17.1447	0.6353	0.0494	0.7692	-0.0479
1.35	-9.4829	-0.0877	-1.8434	-0.0089	-0.0208	0.0095	31.8082	1.5753	17.1485	0.6354	0.0494	0.7692	-0.0479
1.36	-9.4774	-0.0892	-1.8535	-0.0048	-0.0132	0.0130	31.8702	1.5490	17.0788	0.6353	0.0494	0.7691	-0.0479
1.37	-9.4703	-0.0915	-1.8438	-0.0037	-0.0169	0.0069	31.8115	1.6799	16.9228	0.6354	0.0494	0.7692	-0.0479
1.38	-9.4671	-0.0880	-1.8532	-0.0129	-0.0172	0.0046	31.7937	1.7440	17.0239	0.6354	0.0493	0.7691	-0.0478
1.39	-9.4734	-0.0924	-1.8486	-0.0078	-0.0192	0.0062	31.8224	1.7218	17.0579	0.6355	0.0493	0.7692	-0.0478
1.4	-9.4702	-0.0948	-1.8404	-0.0066	-0.0131	0.0073	31.7766	1.7392	17.0516	0.6354	0.0493	0.7690	-0.0478
1.41	-9.4764	-0.1165	-1.8544	-0.0013	-0.0114	0.0108	31.8481	1.6069	17.1603	0.6354	0.0493	0.7691	-0.0478
1.42	-9.4609	-0.1152	-1.8356	-0.0077	-0.0096	0.0025	31.8646	1.7139	17.1282	0.6354	0.0493	0.7691	-0.0478
1.43	-9.4695	-0.1088	-1.8472	-0.0067	-0.0147	0.0066	31.9913	1.7401	16.8437	0.6354	0.0492	0.7691	-0.0478
1.44	-9.4704	-0.1103	-1.8438	-0.0054	-0.0111	0.0027	31.8378	1.7312	17.0180	0.6355	0.0492	0.7692	-0.0478
1.45	-9.4706	-0.1094	-1.8475	-0.0026	-0.0149	0.0067	31.7142	1.7179	17.2860	0.6354	0.0492	0.7691	-0.0478
1.46	-9.4734	-0.1006	-1.8463	0.0011	-0.0100	0.0102	31.6567	1.7538	17.1931	0.6355	0.0492	0.7691	-0.0478
1.47	-9.4726	-0.0994	-1.8480	-0.0011	-0.0088	0.0069	32.0882	1.5646	17.2579	0.6354	0.0492	0.7690	-0.0478
1.48	-9.4908	-0.0894	-1.8543	-0.0055	-0.0115	0.0090	32.0657	1.4652	17.1114	0.6354	0.0492	0.7691	-0.0478
1.49	-9.4784	-0.0941	-1.8421	-0.0007	-0.0150	0.0095	32.0035	1.5016	17.0274	0.6354	0.0492	0.7691	-0.0478
1.5	-9.4697	-0.1063	-1.8544	0.0015	-0.0094	0.0066	31.9352	1.4702	17.1634	0.6354	0.0493	0.7691	-0.0478
1.51	-9.4616	-0.1076	-1.8533	-0.0003	-0.0077	0.0070	31.7815	1.5034	17.0324	0.6354	0.0493	0.7691	-0.0478
1.52	-9.4781	-0.1068	-1.8586	0.0014	-0.0073	0.0078	31.7818	1.3185	17.1084	0.6354	0.0493	0.7691	-0.0478
1.53	-9.4832	-0.1070	-1.8575	0.0007	-0.0127	0.0118	31.7301	1.5906	17.3534	0.6354	0.0493	0.7691	-0.0478
1.54	-9.4725	-0.1099	-1.8540	0.0014	-0.0088	0.0097	31.9003	1.6801	17.2193	0.6353	0.0493	0.7691	-0.0478
1.55	-9.4785	-0.1016	-1.8585	-0.0002	-0.0155	0.0093	31.9776	1.6298	17.1337	0.6354	0.0493	0.7691	-0.0478
1.56	-9.4713	-0.1059	-1.8546	-0.0008	-0.0146	0.0117	31.9297	1.5204	16.9855	0.6354	0.0494	0.7691	-0.0478
1.57	-9.4730	-0.0934	-1.8583	-0.0017	-0.0159	0.0089	31.8605	1.7134	17.0016	0.6354	0.0494	0.7691	-0.0478
1.58	-9.4754	-0.0892	-1.8602	-0.0037	-0.0147	0.0010	31.8997	1.7439	17.2708	0.6354	0.0493	0.7691	-0.0478
1.59	-9.4622	-0.0925	-1.8650	-0.0020	-0.0119	0.0000	31.8449	1.7228	17.3114	0.6354	0.0493	0.7691	-0.0479
1.6	-9.4748	-0.0873	-1.8695	0.0011	-0.0112	0.0019	31.7722	1.7301	17.1380	0.6354	0.0493	0.7691	-0.0479
1.61	-9.4715	-0.0933	-1.8742	-0.0012	-0.0071	0.0036	31.8828	1.7350	17.1414	0.6354	0.0493	0.7690	-0.0479
1.62	-9.4711	-0.0939	-1.8758	-0.0033	-0.0069	0.0022	31.8876	1.7189	17.1345	0.6354	0.0493	0.7692	-0.0479
1.63	-9.4714	-0.0987	-1.8720	-0.0060	-0.0066	0.0008	31.8638	1.7652	17.1555	0.6354	0.0492	0.7691	-0.0479
1.64	-9.4737	-0.0964	-1.8652	-0.0001	-0.0125	0.0042	31.7138	1.8483	17.0749	0.6354	0.0492	0.7692	-0.0480
1.65	-9.4705	-0.1064	-1.8553	-0.0079	-0.0219	0.0111	31.7306	1.6473	16.9427	0.6354	0.0492	0.7691	-0.0479
1.66	-9.4837	-0.1062	-1.8748	0.0029	-0.0119	0.0078	31.9311	1.1742	17.1156	0.6354	0.0492	0.7691	-0.0479
1.67	-9.4821	-0.1081	-1.8575	0.0005	-0.0142	0.0078	32.1683	1.4008	17.1864	0.6354	0.0492	0.7691	-0.0480
1.68	-9.4757	-0.1051	-1.8555	-0.0016	-0.0101	0.0043	31.9561	1.5878	17.0627	0.6354	0.0492	0.7691	-0.0480
1.69	-9.4697	-0.1036	-1.8566	-0.0057	-0.0163	0.0061	31.9011	1.6596	16.9460	0.6355	0.0492	0.7692	-0.0480
1.7	-9.4706	-0.1090	-1.8436	-0.0090	-0.0178	0.0127	32.1997	1.5030	17.5699	0.6354	0.0492	0.7691	-0.0479
1.71	-9.4716	-0.1211	-1.8479	-0.0031	-0.0225	0.0103	32.2102	1.7370	17.7458	0.6355	0.0492	0.7691	-0.0479
1.72	-9.4717	-0.1240	-1.8517	-0.0004	-0.0174	0.0136	32.0221	1.6496	17.4051	0.6355	0.0492	0.7690	-0.0479
1.73	-9.4673	-0.1234	-1.8543	0.0009	-0.0191	0.0081	31.8687	1.7859	16.9343	0.6355	0.0492	0.7690	-0.0479
1.74	-9.4688	-0.1200	-1.8495	-0.0027	-0.0137	0.0133	31.7487	1.6544	16.9628	0.6355	0.0493	0.7690	-0.0479
1.75	-9.4700	-0.1124	-1.8511	-0.0101	-0.0125	0.0100	31.8310	1.2977	17.3378	0.6355	0.0493	0.7690	-0.0479
1.76	-9.4765	-0.1009	-1.8494	-0.0082	-0.0156	0.0100	31.9841	1.8520	17.0280	0.6356	0.0492	0.7690	-0.0478
1.77	-9.4680	-0.1004	-1.8469	-0.0056	-0.0120	0.0088	31.9232	1.6378	17.3022	0.6356	0.0492	0.7690	-0.0478
1.78	-9.4710	-0.1018	-1.8528	0.0004	-0.0107	0.0035	31.9473	1.5617	17.1301	0.6356	0.0492	0.7690	-0.0478
1.79	-9.4721	-0.1017	-1.8453	-0.0045	-0.0166	0.0083	31.6494	1.5673	17.1508	0.6355	0.0492	0.7689	-0.0478
1.8	-9.4750	-0.1025	-1.8568	-0.0087	-0.0159	0.0049	31.8650	1.6908	17.3030	0.6356	0.0492	0.7690	-0.0478
1.81	-9.4725	-0.1035	-1.8517	-0.0107	-0.0174	0.0072	31.7838	1.5952	17.2519	0.6356	0.0492	0.7690	-0.0478
1.82	-9.4677	-0.1033	-1.8400	-0.0102	-0.0097	0.0067	31.9156	1.6148	17.2711	0.6356	0.0491	0.7690	-0.0477
1.83	-9.4770	-0.1042	-1.8490	-0.0035	-0.0070	0.0098	31.9512	1.7824	17.3647	0.6356	0.0491	0.7690	-0.0477
1.84	-9.4735	-0.1118	-1.8403	-0.0010	-0.0183	0.0121	31.7395	1.5815	17.0930	0.6356	0.0492	0.7690	-0.0477
1.85	-9.4705	-0.1083	-1.8429	-0.0049	-0.0141	0.0087	31.9952	1.5981	16.9340	0.6356	0.0492	0.7690	-0.0477
1.86	-9.4705	-0.1086	-1.8429	-0.0099	-0.0105	0.0097	31.8520	1.4926	16.9002	0.6356	0.0491	0.7689	-0.0477
1.87	-9.4717	-0.1103	-1.8466	-0.0094	-0.0150	0.0105	31.9792	1.4075	17.0621	0.6357	0.0491	0.7690	-0.0476
1.88	-9.4751	-0.1034	-1.8419	0.0025	-0.0111	0.0101	32.0596	1.6729	17.0936	0.6356	0.0491	0.7689	-0.0476
1.89	-9.4732	-0.1073	-1.8532	-0.0048	-0.0125	0.0032	31.9603	1.4280	17.1347	0.6357	0.0491	0.7690	-0.0477
1.9	-9.4715	-0.1087	-1.8436	-0.0037	-0.0165	0.0099	31.9385	1.7975	16.9534	0.6356	0.0491	0.7689	-0.0476
1.91	-9.4723	-0.1045	-1.8458	0.0010	-0.0097	0.0114	32.0694	1.7913	17.2120	0.6356	0.0492	0.7690	-0.0476
1.92	-9.4724	-0.1004	-1.8541	-0.0048	-0.0113	0.0118	32.1112	1.7652	17.1932	0.6356	0.0492	0.7690	-0.0476
1.93	-9.4748	-0.0974	-1.8487	-0.0025	-0.0131	0.0127	31.8307	1.5880	17.0303	0.6356	0.0492	0.7689	-0.0476
1.94	-9.4697	-0.0997	-1.8553	-0.0016	-0.0126	0.0037	31.9988	1.4896	17.3395	0.6357	0.0492	0.7690	-0.0476
1.95	-9.4733	-0.0924	-1.8553	-0.0012	-0.0153	0.0078	31.8495	1.7204	17.0814	0.6356	0.0492	0.7689	-0.0476
1.96	-9.4684	-0.0826	-1.8588	-0.0015	-0.0146	0.0038	31.6085	1.6075	17.1403	0.6357	0.0492	0.7690	-0.0476
1.97	-9.4677	-0.0871	-1.8598	-0.0022	-0.0153	0.0053	31.9937	1.7680	17.2950	0.6356	0.0491	0.7689	-0.0476
1.98	-9.4685	-0.0836	-1.8597	-0.0091	-0.0069	0.0056	31.9038	1.7252	17.2338	0.6357	0.0491	0.7690	-0.0476
1.99	-9.4790	-0.0919	-1.8766	-0.0022	-0.0034	0.0044	31.8590	1.7575	17.1679	0.6356	0.0491	0.7690	-0.0476
2	-9.4717	-0.0992	-1.8714	0.0012	-0.0132	0.0099	31.8617	1.7126	17.1680	0.6356	0.0491	0.7689	-0.0476
2.01	-9.4728	-0.1089	-1.8676	-0.0008	-0.0131	0.0073	31.8782	1.8650	17.2870	0.6356	0.0491	0.7690	-0.0476
2.02	-9.4799	-0.1202	-1.8795	0.0026	-0.0171	0.0135	31.7063	1.7486	17.3514	0.6356	0.0492	0.7689	-0.0476
2.03	-9.4695	-0.1093	-1.8594	0.0039	-0.0150	0.0133	31.9714	1.6174	16.9575	0.6357	0.0492	0.7690	-0.0476
2.04	-9.4704	-0.0972	-1.8680	-0.0013	-0.0154	0.0140	32.1470	1.7035	16.8156	0.6356	0.0492	0.7689	-0.0476
2.05	-9.4729	-0.0941	-1.8613	-0.0031	-0.0169	0.0120	31.9111	1.5208	16.9554	0.6357	0.0493	0.7689	-0.0476
2.06	-9.4734	-0.0840	-1.8580	0.0026	-0.0124	0.0064	31.9634	1.5105	17.2120	0.6357	0.0493	0.7689	-0.0476
2.07	-9.4652	-0.0830	-1.8623	-0.0027	-0.0136	0.0067	31.9427	1.7130	17.0940	0.6357	0.0493	0.7689	-0.0476
2.08	-9.4717	-0.0684	-1.8598	0.0014	-0.0156	0.0074	31.9484	1.8647	17.1011	0.6357	0.0493	0.7689	-0.0476
2.09	-9.4746	-0.0781	-1.8559	-0.0035	-0.0136	0.0056	31.8444	1.8795	17.0516	0.6357	0.0493	0.7689	-0.0476
2.1	-9.4739	-0.0789	-1.8539	-0.0026	-0.0107	0.0120	31.8804	1.6253	16.9975	0.6357	0.0493	0.7689	-0.0476
2.11	-9.4723	-0.0893	-1.8530	-0.0053	-0.0158	0.0103	31.9135	1.7527	16.9829	0.6357	0.0493	0.7688	-0.0476
2.12	-9.4715	-0.0885	-1.8446	0.0066	-0.0191	0.0074	32.0917	1.6502	17.2523	0.6358	0.0493	0.7689	-0.0476
2.13	-9.4720	-0.0843	-1.8415	-0.0053	-0.0206	0.0098	31.9037	1.6590	17.3721	0.6358	0.0493	0.7688	-0.0476
2.14	-9.4800	-0.0880	-1.8578	-0.0094	-0.0172	0.0109	31.6725	1.6604	17.1502	0.6358	0.0493	0.7689	-0.0476
2.15	-9.4724	-0.0910	-1.8583	0.0006	-0.0104	0.0065	31.7974	1.6377	17.2016	0.6357	0.0493	0.7688	-0.0476
2.16	-9.4676	-0.0955	-1.8574	-0.0035	-0.0109	0.0061	31.6872	1.8021	17.1451	0.6358	0.0493	0.7688	-0.0476
2.17	-9.4736	-0.1023	-1.8572	0.0109	-0.0165	0.0071	31.8744	1.7805	17.0544	0.6358	0.0493	0.7688	-0.0476
2.18	-9.4710	-0.1071	-1.8489	0.0013	-0.0141	0.0043	31.8596	1.7218	17.1844	0.6358	0.0493	0.7688	-0.0477
2.19	-9.4741	-0.1103	-1.8451	0.0011	-0.0172	0.0054	31.8681	1.7522	17.1729	0.6359	0.0493	0.7689	-0.0477
2.2	-9.4783	-0.1170	-1.8478	-0.0014	-0.0175	0.0045	32.1220	1.6033	17.3451	0.6358	0.0493	0.7688	-0.0477
2.21	-9.4846	-0.1347	-1.8549	0.0036	-0.0162	0.0094	32.0294	1.5650	17.3582	0.6359	0.0493	0.7688	-0.0477
2.22	-9.4693	-0.1391	-1.8566	0.0028	-0.0155	0.0094	32.0483	1.6131	17.4008	0.6358	0.0493	0.7687	-0.0477
2.23	-9.4617	-0.1337	-1.8482	-0.0027	-0.0194	0.0115	32.0141	1.8560	17.2964	0.6359	0.0494	0.7687	-0.0477
2.24	-9.4677	-0.1294	-1.8587	0.0042	-0.0161	0.0080	31.7705	1.8009	17.2636	0.6359	0.0494	0.7687	-0.0477
2.25	-9.4689	-0.1271	-1.8509	0.0038	-0.0157	0.0074	32.1292	1.7477	16.7634	0.6359	0.0494	0.7687	-0.0478
2.26	-9.4677	-0.1228	-1.8555	0.0002	-0.0222	0.0050	32.0767	1.5073	17.2408	0.6360	0.0494	0.7687	-0.0478
2.27	-9.4704	-0.1125	-1.8522	-0.0021	-0.0155	0.0129	31.8731	1.5881	17.4305	0.6359	0.0494	0.7687	-0.0478
2.28	-9.4777	-0.1178	-1.8482	-0.0022	-0.0131	0.0076	31.9984	1.6524	17.0893	0.6360	0.0494	0.7687	-0.0478
2.29	-9.4719	-0.1057	-1.8460	0.0012	-0.0200	0.0115	32.0384	1.5537	17.3595	0.6359	0.0494	0.7686	-0.0478
2.3	-9.4689	-0.1068	-1.8461	0.0057	-0.0136	0.0043	31.7743	1.5180	16.9249	0.6360	0.0494	0.7687	-0.0478
2.31	-9.4684	-0.1022	-1.8405	-0.0006	-0.0140	0.0099	31.8378	1.6196	17.2855	0.6360	0.0495	0.7686	-0.0478
2.32	-9.4749	-0.0974	-1.8472	-0.0032	-0.0087	0.0090	31.7626	1.7805	17.4949	0.6360	0.0495	0.7686	-0.0478
2.33	-9.4723	-0.0869	-1.8458	-0.0035	-0.0082	0.0062	31.8665	1.4714	17.2580	0.6360	0.0495	0.7686	-0.0478
2.34	-9.4681	-0.0883	-1.8410	-0.0058	-0.0082	0.0010	31.9157	1.7522	17.1883	0.6359	0.0494	0.7687	-0.0478
2.35	-9.4725	-0.0913	-1.8525	0.0033	-0.0152	0.0090	31.8410	1.7459	17.1833	0.6360	0.0494	0.7687	-0.0478
2.36	-9.4707	-0.0859	-1.8442	0.0004	-0.0120	0.0089	31.7724	1.6948	17.2761	0.6359	0.0495	0.7686	-0.0478
2.37	-9.4720	-0.0839	-1.8450	-0.0059	-0.0139	-0.0001	31.7732	1.7921	17.2880	0.6360	0.0494	0.7687	-0.0478
2.38	-9.4731	-0.0776	-1.8437	-0.0030	-0.0110	0.0005	32.0107	1.6985	17.1176	0.6359	0.0494	0.7687	-0.0478
2.39	-9.4703	-0.0895	-1.8428	0.0066	-0.0116	0.0061	31.8027	1.6606	16.8919	0.6360	0.0494	0.7687	-0.0479
2.4	-9.4694	-0.0893	-1.8386	-0.0022	-0.0163	0.0080	31.6637	1.5994	17.1334	0.6359	0.0494	0.7686	-0.0479
2.41	-9.4762	-0.0919	-1.8479	0.0039	-0.0117	0.0071	31.8313	1.6462	17.2000	0.6360	0.0494	0.7687	-0.0479
2.42	-9.4700	-0.0888	-1.8495	-0.0002	-0.0115	0.0113	32.0070	1.6003	17.0548	0.6360	0.0494	0.7687	-0.0479
2.43	-9.4693	-0.0794	-1.8376	-0.0001	-0.0082	0.0069	32.0297	1.3900	17.2391	0.6359	0.0494	0.7686	-0.0479
2.44	-9.4738	-0.0905	-1.8425	-0.0010	-0.0134	0.0041	31.9019	1.3594	17.1713	0.6360	0.0494	0.7687	-0.0479
2.45	-9.4758	-0.0863	-1.8468	-0.0063	-0.0137	0.0029	31.7189	1.6828	17.1283	0.6359	0.0494	0.7687	-0.0479
2.46	-9.4713	-0.0909	-1.8572	-0.0038	-0.0155	0.0100	31.6459	1.6617	17.2290	0.6360	0.0494	0.7687	-0.0479
2.47	-9.4749	-0.1043	-1.8586	-0.0010	-0.0128	0.0027	31.8819	1.5308	17.1061	0.6359	0.0494	0.7686	-0.0479
2.48	-9.4760	-0.1040	-1.8702	0.0046	-0.0067	0.0098	31.9112	1.6442	17.0958	0.6359	0.0494	0.7687	-0.0479
2.49	-9.4702	-0.1151	-1.8649	-0.0042	-0.0073	0.0061	31.8682	1.4807	17.1828	0.6359	0.0494	0.7687	-0.0479
2.5	-9.4709	-0.1129	-1.8698	0.0031	-0.0086	0.0061	31.9650	1.7054	17.4447	0.6359	0.0494	0.7687	-0.0480
2.51	-9.4777	-0.1095	-1.8725	-0.0029	-0.0021	-0.0033	31.8166	1.7265	17.0297	0.6359	0.0494	0.7688	-0.0480
2.52	-9.4823	-0.1026	-1.8783	-0.0082	-0.0083	0.0051	32.0044	1.6793	17.1940	0.6358	0.0494	0.7688	-0.0480
2.53	-9.4692	-0.1308	-1.8724	-0.0023	-0.0060	0.0051	31.7915	1.5966	17.1298	0.6358	0.0494	0.7688	-0.0480
2.54	-9.4613	-0.1647	-1.8636	-0.0015	-0.0045	0.0007	31.7640	1.7129	17.1676	0.6357	0.0493	0.7687	-0.0480
2.55	-9.4717	-0.1461	-1.8711	0.0047	-0.0123	-0.0000	31.7577	1.7129	17.3236	0.6358	0.0493	0.7688	-0.0480
2.56	-9.4681	-0.1156	-1.8580	-0.0053	-0.0106	0.0026	31.8012	1.6916	17.2349	0.6357	0.0493	0.7688	-0.0481
2.57	-9.4686	-0.0804	-1.8652	-0.0002	-0.0113	0.0042	31.6352	1.7674	17.1107	0.6358	0.0493	0.7688	-0.0481
2.58	-9.4746	-0.0859	-1.8574	0.0006	-0.0156	0.0101	31.5914	1.8863	17.0807	0.6357	0.0493	0.7688	-0.0481
2.59	-9.4777	-0.0942	-1.8500	0.0056	-0.0082	0.0123	31.7353	1.7458	17.2518	0.6357	0.0493	0.7688	-0.0481
2.6	-9.4740	-0.0983	-1.8510	0.0019	-0.0118	0.0053	31.8168	1.6595	17.0941	0.6357	0.0493	0.7688	-0.0481
2.61	-9.4767	-0.0974	-1.8611	-0.0036	-0.0186	0.0106	31.9391	1.5392	17.2072	0.6357	0.0493	0.7688	-0.0481
2.62	-9.4782	-0.1026	-1.8555	-0.0020	-0.0072	0.0068	31.9247	1.5471	17.2814	0.6358	0.0494	0.7689	-0.0481
2.63	-9.4732	-0.1057	-1.8534	-0.0017	-0.0156	0.0081	31.9391	1.5476	17.1976	0.6357	0.0494	0.7688	-0.0481
2.64	-9.4737	-0.1190	-1.8446	0.0003	-0.0176	0.0069	31.8931	1.5432	17.1357	0.6358	0.0494	0.7689	-0.0481
2.65	-9.4896	-0.1169	-1.8466	-0.0009	-0.0180	0.0056	31.7341	1.5476	17.1095	0.6357	0.0493	0.7688	-0.0481
2.66	-9.4842	-0.1056	-1.8434	-0.0030	-0.0206	0.0010	31.8240	1.5314	17.0860	0.6358	0.0493	0.7688	-0.0481
2.67	-9.4850	-0.0951	-1.8448	-0.0040	-0.0205	0.0103	31.8252	1.4079	17.0347	0.6358	0.0493	0.7688	-0.0481
2.68	-9.4726	-0.0954	-1.8495	0.0019	-0.0159	0.0043	31.7256	1.6189	17.2291	0.6358	0.0493	0.7687	-0.0481
2.69	-9.4792	-0.0782	-1.8494	0.0011	-0.0144	0.0035	31.9836	1.7284	17.1713	0.6359	0.0493	0.7688	-0.0482
2.7	-9.4761	-0.0819	-1.8458	0.0038	-0.0186	0.0065	31.8850	1.7088	17.2407	0.6359	0.0493	0.7687	-0.0482
2.71	-9.4680	-0.0763	-1.8521	-0.0025	-0.0159	0.0116	32.0203	1.9177	17.3016	0.6359	0.0493	0.7687	-0.0482
2.72	-9.4720	-0.0790	-1.8462	-0.0005	-0.0137	0.0062	31.8958	1.6759	17.2863	0.6358	0.0493	0.7686	-0.0482
2.73	-9.4711	-0.0898	-1.8474	-0.0046	-0.0149	0.0069	31.8079	1.5613	17.2767	0.6359	0.0493	0.7687	-0.0482
2.74	-9.4718	-0.0779	-1.8445	-0.0093	-0.0158	0.0069	31.6618	1.5432	17.2572	0.6359	0.0493	0.7687	-0.0482
2.75	-9.4628	-0.0846	-1.8431	0.0050	-0.0190	0.0039	31.7906	1.7518	17.3640	0.6359	0.0493	0.7687	-0.0482
2.76	-9.4732	-0.1139	-1.8612	0.0040	-0.0155	0.0063	31.8362	1.7884	17.3387	0.6359	0.0493	0.7687	-0.0482
2.77	-9.4684	-0.1253	-1.8527	0.0010	-0.0153	0.0100	31.6429	1.6050	17.4074	0.6359	0.0493	0.7686	-0.0482
2.78	-9.4698	-0.1229	-1.8490	0.0031	-0.0140	0.0073	31.7225	1.6391	17.2074	0.6360	0.0494	0.7687	-0.0482
2.79	-9.4857	-0.1255	-1.8493	-0.0008	-0.0242	0.0078	32.0723	1.7902	17.2692	0.6359	0.0494	0.7686	-0.0482
2.8	-9.4758	-0.1151	-1.8532	0.0007	-0.0234	0.0174	32.1445	1.7638	17.1581	0.6360	0.0494	0.7686	-0.0482
2.81	-9.4735	-0.1006	-1.8571	0.0010	-0.0100	0.0026	31.9784	1.6397	17.1097	0.6360	0.0494	0.7686	-0.0482
2.82	-9.4725	-0.0988	-1.8596	-0.0016	-0.0145	0.0066	31.9850	1.7944	17.2869	0.6360	0.0494	0.7686	-0.0483
2.83	-9.4678	-0.0888	-1.8559	-0.0088	-0.0142	0.0118	31.8657	1.6521	17.2817	0.6360	0.0494	0.7686	-0.0482
2.84	-9.4738	-0.0821	-1.8671	-0.0031	-0.0172	0.0104	31.9298	1.7428	17.1213	0.6360	0.0494	0.7686	-0.0482
2.85	-9.4738	-0.0865	-1.8663	-0.0010	-0.0161	0.0137	31.9855	1.7257	17.1359	0.6361	0.0494	0.7686	-0.0482
2.86	-9.4620	-0.0948	-1.8617	0.0017	-0.0094	0.0096	31.9706	1.6763	17.2850	0.6360	0.0494	0.7685	-0.0482
2.87	-9.4711	-0.0891	-1.8496	0.0029	-0.0152	0.0064	31.9551	1.6801	17.2860	0.6361	0.0495	0.7686	-0.0482
2.88	-9.4742	-0.0733	-1.8631	-0.0024	-0.0137	0.0044	31.8740	1.5819	17.3909	0.6360	0.0494	0.7685	-0.0482
2.89	-9.4626	-0.1075	-1.8711	-0.0047	-0.0156	0.0094	31.8801	1.5991	17.3508	0.6361	0.0494	0.7686	-0.0482
2.9	-9.4585	-0.1542	-1.8500	-0.0059	-0.0137	0.0072	31.9780	1.6958	17.3787	0.6360	0.0494	0.7685	-0.0482
2.91	-9.4779	-0.1508	-1.8565	-0.0028	-0.0114	0.0066	32.0542	1.6747	17.2270	0.6361	0.0494	0.7686	-0.0482
2.92	-9.4836	-0.1214	-1.8598	0.0009	-0.0096	0.0044	31.9125	1.7278	17.1867	0.6360	0.0494	0.7686	-0.0482
2.93	-9.4586	-0.0931	-1.8476	0.0088	-0.0148	0.0065	31.8002	1.5071	17.4783	0.6360	0.0494	0.7685	-0.0482
2.94	-9.4692	-0.0728	-1.8452	0.0027	-0.0138	0.0072	31.8172	1.6303	17.4260	0.6361	0.0495	0.7686	-0.0483
2.95	-9.4737	-0.0575	-1.8500	0.0027	-0.0126	0.0081	31.7853	1.5433	17.2235	0.6360	0.0495	0.7685	-0.0483
2.96	-9.4719	-0.0716	-1.8544	0.0000	-0.0140	0.0099	31.8961	1.5687	17.3306	0.6361	0.0495	0.7686	-0.0483
2.97	-9.4602	-0.0927	-1.8419	-0.0035	-0.0155	0.0055	31.7932	1.6176	17.0701	0.6360	0.0495	0.7685	-0.0483
2.98	-9.4604	-0.1047	-1.8422	-0.0072	-0.0156	0.0108	32.0536	1.6048	17.2373	0.6361	0.0495	0.7686	-0.0483
2.99	-9.4743	-0.1020	-1.8519	-0.0052	-0.0124	0.0135	31.9827	1.5908	17.2979	0.6361	0.0495	0.7685	-0.0482
3	-9.4653	-0.1117	-1.8438	-0.0031	-0.0198	0.0056	32.0465	1.6843	17.2618	0.6361	0.0495	0.7685	-0.0482
3.01	-9.4707	-0.1144	-1.8504	-0.0021	-0.0222	0.0065	31.9510	1.6831	17.2931	0.6361	0.0495	0.7685	-0.0482
3.02	-9.4781	-0.0994	-1.8428	-0.0009	-0.0126	0.0147	31.8958	1.7095	17.3752	0.6361	0.0495	0.7685	-0.0482
3.03	-9.4723	-0.0986	-1.8361	-0.0023	-0.0189	0.0036	31.9968	1.8082	17.3640	0.6362	0.0495	0.7685	-0.0482
3.04	-9.4703	-0.0905	-1.8412	-0.0049	-0.0152	-0.0015	31.9554	1.6689	17.2983	0.6361	0.0494	0.7684	-0.0482
3.05	-9.4719	-0.0940	-1.8390	-0.0029	-0.0136	0.0108	31.9764	1.7991	17.0280	0.6362	0.0494	0.7685	-0.0482
3.06	-9.4689	-0.0924	-1.8336	-0.0012	-0.0100	0.0126	31.9848	1.5893	17.3598	0.6361	0.0495	0.7685	-0.0482
3.07	-9.4651	-0.0890	-1.8405	-0.0049	-0.0121	0.0053	31.9009	1.6930	17.2842	0.6361	0.0495	0.7685	-0.0482
3.08	-9.4706	-0.0870	-1.8535	-0.0019	-0.0111	0.0011	31.8185	1.5125	17.2866	0.6361	0.0494	0.7685	-0.0482
3.09	-9.4685	-0.0969	-1.8558	-0.0055	-0.0059	0.0084	31.6485	1.5118	17.3621	0.6361	0.0494	0.7685	-0.0482
3.1	-9.4625	-0.1056	-1.8445	-0.0086	-0.0128	0.0007	31.7368	1.7188	17.4021	0.6361	0.0494	0.7685	-0.0482
3.11	-9.4627	-0.1252	-1.8672	-0.0064	-0.0102	0.0015	31.9061	1.8727	17.1534	0.6360	0.0493	0.7685	-0.0482
3.12	-9.4947	-0.1144	-1.8739	-0.0016	-0.0079	0.0096	31.9037	1.7432	17.2391	0.6361	0.0494	0.7686	-0.0482
3.13	-9.4651	-0.1054	-1.8482	-0.0093	-0.0117	0.0080	31.8281	1.7777	17.4905	0.6361	0.0493	0.7685	-0.0482
3.14	-9.4660	-0.1099	-1.8392	-0.0120	-0.0107	0.0068	31.8695	1.5387	17.2433	0.6361	0.0493	0.7686	-0.0481
3.15	-9.4850	-0.1220	-1.8602	-0.0038	-0.0131	0.0059	31.8192	1.8376	17.2828	0.6360	0.0493	0.7685	-0.0481
3.16	-9.4639	-0.1296	-1.8646	-0.0021	-0.0183	0.0127	31.9089	1.6574	17.2790	0.6361	0.0493	0.7686	-0.0481
3.17	-9.4657	-0.1328	-1.8765	-0.0035	-0.0111	0.0100	32.0236	1.5262	17.4144	0.6361	0.0493	0.7686	-0.0481
3.18	-9.4678	-0.1242	-1.8741	-0.0030	-0.0112	0.0091	32.1417	1.6493	16.9739	0.6360	0.0493	0.7685	-0.0481
3.19	-9.4748	-0.1150	-1.8842	0.0008	-0.0152	0.0053	32.0485	1.5036	17.0618	0.6361	0.0493	0.7686	-0.0481
3.2	-9.4627	-0.1136	-1.8572	-0.0075	-0.0166	0.0042	32.1857	1.7731	17.5055	0.6361	0.0493	0.7685	-0.0481
3.21	-9.4801	-0.1096	-1.8604	-0.0005	-0.0138	0.0115	32.4107	1.5994	17.6075	0.6361	0.0493	0.7686	-0.0481
3.22	-9.4755	-0.1156	-1.8593	-0.0030	-0.0106	0.0073	32.1515	1.6024	17.2936	0.6360	0.0493	0.7685	-0.0481
3.23	-9.4566	-0.1149	-1.8350	-0.0053	-0.0052	0.0099	31.9061	1.4518	17.3539	0.6361	0.0493	0.7686	-0.0480
3.24	-9.4727	-0.0936	-1.8546	-0.0034	-0.0083	0.0103	31.6823	1.4185	17.1530	0.6360	0.0493	0.7686	-0.0480
3.25	-9.4629	-0.0937	-1.8344	-0.0042	-0.0081	0.0064	31.8789	1.7856	16.9948	0.6360	0.0493	0.7686	-0.0480
3.26	-9.4830	-0.0906	-1.8515	-0.0062	-0.0061	0.0018	31.7593	1.8858	17.1382	0.6360	0.0493	0.7687	-0.0480
3.27	-9.4581	-0.0943	-1.8341	-0.0074	-0.0180	0.0111	31.6843	1.8508	17.1539	0.6360	0.0493	0.7686	-0.0480
3.28	-9.4736	-0.0890	-1.8583	-0.0130	-0.0125	0.0014	31.6783	1.7001	17.1989	0.6360	0.0492	0.7687	-0.0480
3.29	-9.4821	-0.0793	-1.8519	-0.0124	-0.0109	0.0054	31.8543	1.7144	16.9957	0.6359	0.0492	0.7686	-0.0479
3.3	-9.4586	-0.0877	-1.8349	-0.0063	-0.0182	0.0073	31.8633	1.6888	17.2863	0.6360	0.0491	0.7687	-0.0479
3.31	-9.4870	-0.0744	-1.8658	-0.0024	-0.0171	0.0074	31.5600	1.7448	17.1434	0.6360	0.0491	0.7686	-0.0479
3.32	-9.4607	-0.0883	-1.8377	-0.0005	-0.0125	0.0057	31.7733	1.8106	17.0749	0.6360	0.0491	0.7686	-0.0479
3.33	-9.4728	-0.0856	-1.8472	-0.0023	-0.0112	0.0093	31.8519	1.6967	16.9023	0.6360	0.0491	0.7686	-0.0479
3.34	-9.4684	-0.0868	-1.8479	0.0009	-0.0142	0.0035	31.9110	1.6968	17.1616	0.6360	0.0491	0.7686	-0.0479
3.35	-9.4700	-0.0879	-1.8474	-0.0041	-0.0144	0.0056	32.0582	1.5770	17.1882	0.6360	0.0491	0.7686	-0.0479
3.36	-9.4701	-0.0877	-1.8456	-0.0045	-0.0145	0.0052	32.0021	1.7452	17.1052	0.6360	0.0491	0.7686	-0.0479
3.37	-9.4717	-0.0946	-1.8491	-0.0031	-0.0121	0.0101	31.9288	1.5712	17.2430	0.6360	0.0491	0.7687	-0.0479
3.38	-9.4714	-0.0908	-1.8482	-0.0055	-0.0145	0.0077	31.9546	1.5756	17.0888	0.6360	0.0491	0.7686	-0.0479
3.39	-9.4722	-0.0968	-1.8428	-0.0014	-0.0130	0.0121	31.8770	1.6442	17.1765	0.6361	0.0491	0.7687	-0.0479
3.4	-9.4708	-0.0884	-1.8477	-0.0045	-0.0147	0.0096	31.8396	1.6208	16.9988	0.6360	0.0491	0.7686	-0.0479
3.41	-9.4757	-0.0984	-1.8486	-0.0049	-0.0188	0.0091	32.0922	1.5090	17.3438	0.6360	0.0491	0.7686	-0.0478
3.42	-9.4701	-0.1164	-1.8596	-0.0015	-0.0092	0.0016	31.8785	1.6170	17.1960	0.6360	0.0491	0.7686	-0.0479
3.43	-9.4700	-0.1203	-1.8591	-0.0002	-0.0146	0.0088	31.6240	1.5531	17.0888	0.6360	0.0491	0.7686	-0.0479
3.44	-9.4744	-0.1210	-1.8751	-0.0040	-0.0137	0.0003	31.9559	1.5283	17.2621	0.6361	0.0491	0.7687	-0.0479
3.45	-9.4807	-0.1229	-1.8724	0.0012	-0.0092	0.0084	31.7046	1.6909	17.1879	0.6360	0.0491	0.7686	-0.0479
3.46	-9.4768	-0.1206	-1.8599	-0.0036	-0.0103	0.0081	31.6302	1.9058	17.2488	0.6360	0.0491	0.7687	-0.0479
3.47	-9.4713	-0.1185	-1.8630	-0.0052	-0.0142	0.0039	31.7976	1.6973	17.0165	0.6359	0.0491	0.7686	-0.0479
3.48	-9.4746	-0.1058	-1.8680	-0.0051	-0.0103	0.0052	31.7935	1.3961	17.1785	0.6360	0.0490	0.7687	-0.0479
3.49	-9.4698	-0.1196	-1.8458	-0.0080	-0.0126	0.0085	31.8491	1.6768	17.4189	0.6360	0.0490	0.7687	-0.0478
3.5	-9.4634	-0.1222	-1.8398	-0.0062	-0.0126	0.0074	31.6669	1.7211	17.2699	0.6360	0.0490	0.7686	-0.0478
3.51	-9.4726	-0.1344	-1.8430	-0.0029	-0.0178	0.0099	31.7198	1.6837	16.8740	0.6360	0.0490	0.7687	-0.0478
3.52	-9.4707	-0.1387	-1.8427	0.0045	-0.0114	0.0079	31.6836	1.6116	17.1788	0.6360	0.0490	0.7686	-0.0478
3.53	-9.4826	-0.1252	-1.8392	0.0018	-0.0127	0.0159	31.7220	1.6138	17.3805	0.6360	0.0491	0.7687	-0.0478
3.54	-9.4772	-0.1015	-1.8416	-0.0075	-0.0141	0.0156	31.9505	1.6442	17.1070	0.6359	0.0491	0.7686	-0.0478
3.55	-9.4589	-0.0791	-1.8325	-0.0024	-0.0082	0.0072	32.0254	1.5906	17.1466	0.6360	0.0491	0.7687	-0.0478
3.56	-9.4736	-0.0681	-1.8455	-0.0025	-0.0132	0.0122	31.8824	1.7119	17.2864	0.6360	0.0491	0.7687	-0.0477
3.57	-9.4608	-0.0638	-1.8425	-0.0015	-0.0120	0.0087	32.0337	1.5845	17.3180	0.6360	0.0491	0.7687	-0.0477
3.58	-9.4679	-0.0759	-1.8413	-0.0045	-0.0118	0.0097	31.9127	1.4306	17.3195	0.6359	0.0491	0.7687	-0.0477
3.59	-9.4764	-0.1068	-1.8396	-0.0048	-0.0072	0.0097	31.9667	1.8206	17.1593	0.6359	0.0491	0.7687	-0.0477
3.6	-9.4743	-0.1278	-1.8490	0.0010	-0.0124	0.0045	32.0251	1.7452	17.1494	0.6359	0.0491	0.7687	-0.0477
3.61	-9.4862	-0.1385	-1.8501	-0.0019	-0.0165	0.0097	31.7283	1.6028	17.3568	0.6359	0.0491	0.7686	-0.0477
3.62	-9.4914	-0.1293	-1.8608	-0.0035	-0.0151	0.0121	31.8247	1.6476	17.0505	0.6360	0.0491	0.7687	-0.0477
3.63	-9.4693	-0.1059	-1.8565	-0.0014	-0.0108	0.0097	31.8346	1.7092	16.9484	0.6359	0.0491	0.7687	-0.0477
3.64	-9.4647	-0.0911	-1.8466	-0.0044	-0.0137	0.0064	31.7527	1.7598	17.1501	0.6360	0.0491	0.7688	-0.0477
3.65	-9.4741	-0.0762	-1.8648	-0.0019	-0.0100	0.0074	31.8586	1.8159	17.1024	0.6359	0.0491	0.7687	-0.0477
3.66	-9.4695	-0.0583	-1.8549	-0.0020	-0.0129	0.0054	31.8781	1.5390	17.2869	0.6359	0.0491	0.7687	-0.0477
3.67	-9.4607	-0.0500	-1.8441	0.0002	-0.0128	0.0063	31.7690	1.5767	17.2816	0.6359	0.0491	0.7687	-0.0477
3.68	-9.4697	-0.0502	-1.8703	-0.0052	-0.0149	0.0049	31.5876	1.7087	17.0961	0.6359	0.0491	0.7687	-0.0477
3.69	-9.4727	-0.0699	-1.8668	-0.0126	-0.0136	0.0004	31.7076	1.6988	17.2447	0.6360	0.0491	0.7688	-0.0477
3.7	-9.4742	-0.0799	-1.8629	-0.0146	-0.0090	0.0005	32.1022	1.8448	17.1901	0.6359	0.0490	0.7687	-0.0476
3.71	-9.4764	-0.0985	-1.8556	-0.0030	-0.0115	0.0099	32.1983	1.7000	17.2979	0.6359	0.0490	0.7688	-0.0476
3.72	-9.4883	-0.1177	-1.8703	-0.0059	-0.0144	0.0139	32.1513	1.7900	17.3268	0.6359	0.0490	0.7687	-0.0476
3.73	-9.4764	-0.1314	-1.8594	-0.0003	-0.0096	0.0055	32.0697	1.6125	17.4421	0.6359	0.0490	0.7688	-0.0476
3.74	-9.4714	-0.1207	-1.8588	0.0005	-0.0102	0.0109	31.8505	1.5768	17.3528	0.6359	0.0490	0.7688	-0.0476
3.75	-9.4691	-0.1048	-1.8596	0.0022	-0.0119	0.0114	31.9624	1.5460	17.3371	0.6359	0.0490	0.7687	-0.0476
3.76	-9.4763	-0.0890	-1.8554	0.0041	-0.0108	0.0110	31.9524	1.4958	17.2303	0.6359	0.0491	0.7688	-0.0476
3.77	-9.4705	-0.0680	-1.8601	0.0051	-0.0095	0.0039	32.0508	1.7969	17.2621	0.6358	0.0491	0.7688	-0.0476
3.78	-9.4726	-0.0767	-1.8515	0.0012	-0.0100	0.0128	32.0244	1.6955	17.1688	0.6359	0.0491	0.7688	-0.0476
3.79	-9.4771	-0.0679	-1.8552	-0.0018	-0.0120	0.0090	31.9812	1.6848	17.2115	0.6358	0.0491	0.7687	-0.0476
3.8	-9.4688	-0.0763	-1.8611	0.0003	-0.0164	0.0023	31.7001	1.7669	17.3741	0.6359	0.0491	0.7688	-0.0476
3.81	-9.4734	-0.0838	-1.8524	-0.0047	-0.0160	0.0071	31.9188	1.9388	17.2458	0.6358	0.0491	0.7688	-0.0476
3.82	-9.4740	-0.0861	-1.8587	-0.0108	-0.0169	0.0012	31.8902	1.8518	17.2430	0.6359	0.0491	0.7688	-0.0476
3.83	-9.4667	-0.0869	-1.8615	-0.0062	-0.0168	0.0070	31.8633	1.8628	17.2068	0.6359	0.0490	0.7687	-0.0476
3.84	-9.4618	-0.0989	-1.8664	-0.0039	-0.0104	0.0012	31.9595	1.9179	17.2950	0.6359	0.0490	0.7688	-0.0476
3.85	-9.4721	-0.1161	-1.8587	-0.0010	-0.0142	0.0055	31.9643	1.8379	17.4654	0.6359	0.0490	0.7688	-0.0476
3.86	-9.4709	-0.1195	-1.8511	-0.0034	-0.0120	0.0111	31.7857	1.7861	17.3097	0.6358	0.0490	0.7687	-0.0476
3.87	-9.4730	-0.1175	-1.8408	-0.0122	-0.0147	0.0040	31.7925	1.5652	17.3194	0.6359	0.0490	0.7688	-0.0476
3.88	-9.4662	-0.1113	-1.8531	-0.0007	-0.0184	0.0071	31.7591	1.5993	17.3658	0.6359	0.0490	0.7688	-0.0476
3.89	-9.4745	-0.1016	-1.8533	-0.0061	-0.0127	0.0089	31.8836	1.6489	17.4446	0.6359	0.0490	0.7688	-0.0475
3.9	-9.4710	-0.1030	-1.8456	-0.0039	-0.0134	0.0057	31.6801	1.7828	17.3146	0.6358	0.0489	0.7687	-0.0475
3.91	-9.4725	-0.1022	-1.8563	0.0051	-0.0146	0.0059	31.7504	1.6417	17.1882	0.6359	0.0490	0.7688	-0.0476
3.92	-9.4699	-0.1010	-1.8496	0.0003	-0.0134	0.0116	32.1138	1.5664	17.1641	0.6359	0.0490	0.7688	-0.0476
3.93	-9.4683	-0.1020	-1.8490	-0.0032	-0.0155	0.0092	32.1224	1.7202	17.0721	0.6358	0.0490	0.7687	-0.0475
3.94	-9.4644	-0.1157	-1.8480	-0.0016	-0.0142	0.0121	32.0087	1.5516	17.1664	0.6359	0.0490	0.7688	-0.0475
3.95	-9.4681	-0.1152	-1.8436	-0.0108	-0.0151	0.0117	32.0682	1.5735	17.1505	0.6359	0.0490	0.7688	-0.0475
3.96	-9.4754	-0.1056	-1.8466	-0.0016	-0.0140	0.0099	31.9172	1.7725	17.2010	0.6359	0.0490	0.7688	-0.0475
3.97	-9.4691	-0.1021	-1.8414	-0.0019	-0.0169	0.0105	31.7571	1.8536	17.2696	0.6359	0.0490	0.7687	-0.0475
3.98	-9.4713	-0.1040	-1.8378	0.0031	-0.0098	0.0111	31.9051	1.7229	17.1826	0.6359	0.0490	0.7688	-0.0475
3.99	-9.4711	-0.1154	-1.8558	-0.0024	-0.0099	0.0083	31.8412	1.6877	17.3537	0.6359	0.0490	0.7688	-0.0475
4	-9.4706	-0.1004	-1.8329	-0.0058	-0.0076	0.0108	31.8951	1.6099	17.1479	0.6358	0.0490	0.7688	-0.0474
4.01	-9.4679	-0.0993	-1.8313	-0.0028	-0.0090	0.0067	31.8378	1.6013	17.2732	0.6358	0.0490	0.7688	-0.0474
4.02	-9.4724	-0.0973	-1.8635	-0.0049	-0.0094	0.0067	31.8040	1.7041	17.2904	0.6358	0.0490	0.7688	-0.0474
4.03	-9.4751	-0.1044	-1.8839	-0.0019	-0.0105	0.0073	31.9006	1.6767	17.2847	0.6358	0.0490	0.7689	-0.0474
4.04	-9.4719	-0.1019	-1.8790	0.0003	-0.0135	0.0084	31.7832	1.6834	17.2686	0.6357	0.0490	0.7688	-0.0474
4.05	-9.4723	-0.1018	-1.8767	-0.0019	-0.0145	0.0050	31.7714	1.5915	17.2156	0.6358	0.0490	0.7689	-0.0474
4.06	-9.4730	-0.0960	-1.8807	0.0073	-0.0047	0.0038	31.5576	1.7180	17.4097	0.6358	0.0490	0.7688	-0.0475
4.07	-9.4687	-0.0857	-1.8621	-0.0034	-0.0099	0.0059	31.9705	1.6420	17.4124	0.6358	0.0490	0.7689	-0.0475
4.08	-9.4679	-0.0887	-1.8571	-0.0012	-0.0112	0.0086	31.9148	1.8183	17.3390	0.6357	0.0490	0.7689	-0.0475
4.09	-9.4741	-0.0910	-1.8852	-0.0009	-0.0146	0.0059	31.8988	1.5725	17.2850	0.6357	0.0490	0.7689	-0.0475
4.1	-9.4756	-0.0855	-1.8840	-0.0064	-0.0176	0.0089	32.1017	1.5591	17.2517	0.6358	0.0490	0.7689	-0.0474
4.11	-9.4647	-0.0856	-1.8909	-0.0055	-0.0159	0.0117	31.8996	1.6217	17.1599	0.6357	0.0490	0.7688	-0.0474
4.12	-9.4694	-0.1015	-1.8874	-0.0074	-0.0168	0.0066	32.1879	1.6047	17.0626	0.6358	0.0490	0.7689	-0.0474
4.13	-9.4760	-0.1184	-1.8868	-0.0041	-0.0126	0.0105	32.0170	1.7258	17.2031	0.6358	0.0490	0.7688	-0.0474
4.14	-9.4703	-0.1206	-1.8737	-0.0056	-0.0198	0.0107	31.8813	1.6517	17.3335	0.6358	0.0490	0.7689	-0.0474
4.15	-9.4671	-0.1312	-1.8729	-0.0085	-0.0236	0.0057	31.7684	1.7218	17.2379	0.6358	0.0490	0.7688	-0.0473
4.16	-9.4726	-0.1350	-1.8650	-0.0066	-0.0215	0.0060	31.7219	1.5042	17.0031	0.6359	0.0490	0.7688	-0.0473
4.17	-9.4695	-0.1290	-1.8648	-0.0009	-0.0173	0.0098	31.9966	1.4506	17.1628	0.6359	0.0490	0.7688	-0.0473
4.18	-9.4708	-0.1248	-1.8669	-0.0005	-0.0184	0.0117	31.8384	1.6191	17.4395	0.6359	0.0490	0.7687	-0.0473
4.19	-9.4744	-0.1107	-1.8642	0.0012	-0.0126	0.0092	31.9757	1.5955	17.3901	0.6359	0.0490	0.7688	-0.0473
4.2	-9.4586	-0.0796	-1.8596	-0.0043	-0.0175	0.0106	32.0391	1.7388	17.4879	0.6359	0.0490	0.7687	-0.0473
4.21	-9.4570	-0.0791	-1.8489	0.0041	-0.0079	0.0063	32.2007	1.8082	17.9014	0.6359	0.0490	0.7688	-0.0473
4.22	-9.4751	-0.0865	-1.8534	-0.0074	-0.0096	0.0039	31.9934	1.6051	17.6890	0.6358	0.0490	0.7687	-0.0473
4.23	-9.4777	-0.0894	-1.8606	-0.0113	-0.0177	0.0029	31.7853	1.6824	17.3196	0.6359	0.0489	0.7688	-0.0473
4.24	-9.4766	-0.1030	-1.8466	-0.0052	-0.0137	0.0049	31.6470	1.7564	17.1915	0.6359	0.0489	0.7688	-0.0473
4.25	-9.4662	-0.1125	-1.8404	-0.0051	-0.0173	0.0070	31.7934	1.6601	17.0708	0.6359	0.0489	0.7688	-0.0472
4.26	-9.4582	-0.1084	-1.8374	-0.0115	-0.0164	0.0012	31.8202	1.8387	17.0675	0.6359	0.0489	0.7688	-0.0472
4.27	-9.4733	-0.0913	-1.8371	-0.0048	-0.0155	0.0108	31.6617	2.0982	17.1773	0.6359	0.0488	0.7688	-0.0472
4.28	-9.4750	-0.0953	-1.8438	-0.0081	-0.0149	0.0055	31.8271	1.7507	17.1216	0.6359	0.0488	0.7688	-0.0472
4.29	-9.4658	-0.0742	-1.8425	-0.0039	-0.0156	0.0104	32.0524	1.6233	17.2728	0.6359	0.0488	0.7687	-0.0472
4.3	-9.4638	-0.0670	-1.8285	-0.0072	-0.0145	0.0069	32.0389	1.4335	17.2321	0.6360	0.0488	0.7688	-0.0471
4.31	-9.4680	-0.0531	-1.8173	-0.0041	-0.0139	0.0092	31.8876	1.4980	17.3110	0.6359	0.0488	0.7687	-0.0471
4.32	-9.4739	-0.0610	-1.8244	-0.0037	-0.0137	0.0080	31.8862	1.6312	17.3401	0.6359	0.0488	0.7688	-0.0471
4.33	-9.4784	-0.0741	-1.8241	-0.0132	-0.0177	0.0098	31.7793	1.6263	17.3481	0.6359	0.0488	0.7687	-0.0471
4.34	-9.4695	-0.0812	-1.8204	-0.0056	-0.0192	0.0059	31.8215	1.5115	17.2952	0.6360	0.0488	0.7687	-0.0470
4.35	-9.4701	-0.0938	-1.8220	-0.0050	-0.0136	0.0035	31.9148	1.5815	17.2729	0.6360	0.0487	0.7687	-0.0470
4.36	-9.4811	-0.0903	-1.8435	-0.0055	-0.0148	0.0062	31.7823	1.4408	17.4534	0.6359	0.0487	0.7687	-0.0470
4.37	-9.4736	-0.0837	-1.8349	0.0006	-0.0177	0.0074	31.8004	1.4841	17.3182	0.6360	0.0487	0.7688	-0.0470
4.38	-9.4645	-0.0759	-1.8366	-0.0038	-0.0097	0.0028	31.9348	1.8364	17.1816	0.6360	0.0487	0.7687	-0.0470
4.39	-9.4736	-0.0753	-1.8400	-0.0027	-0.0126	0.0040	31.7484	1.7077	17.1557	0.6360	0.0487	0.7688	-0.0471
4.4	-9.4633	-0.0875	-1.8472	-0.0067	-0.0094	0.0057	31.6243	1.7061	17.1354	0.6359	0.0487	0.7687	-0.0470
4.41	-9.4614	-0.0954	-1.8457	-0.0075	-0.0124	0.0084	31.7413	1.7036	17.3143	0.6359	0.0486	0.7688	-0.0470
4.42	-9.4702	-0.1141	-1.8535	-0.0078	-0.0078	0.0024	31.7110	1.7149	17.0946	0.6359	0.0486	0.7688	-0.0470
4.43	-9.4755	-0.1196	-1.8703	-0.0043	-0.0077	0.0027	31.7258	1.6887	17.1261	0.6359	0.0486	0.7688	-0.0470
4.44	-9.4659	-0.1300	-1.8617	-0.0157	-0.0092	-0.0021	31.7110	1.8222	17.3495	0.6359	0.0485	0.7689	-0.0470
4.45	-9.4713	-0.1400	-1.8650	0.0010	-0.0093	0.0038	31.8550	1.8706	17.2200	0.6358	0.0485	0.7688	-0.0470
4.46	-9.4723	-0.1384	-1.8779	-0.0059	-0.0173	0.0089	31.8932	1.7087	17.2071	0.6359	0.0485	0.7689	-0.0470
4.47	-9.4702	-0.1366	-1.8803	-0.0103	-0.0133	0.0080	31.8651	1.6510	17.0523	0.6358	0.0485	0.7688	-0.0469
4.48	-9.4695	-0.1386	-1.8799	-0.0006	-0.0058	0.0051	32.0078	1.3803	17.1913	0.6358	0.0485	0.7689	-0.0469
4.49	-9.4678	-0.1324	-1.8811	-0.0021	-0.0124	0.0073	32.0483	1.4533	17.1800	0.6358	0.0485	0.7689	-0.0469
4.5	-9.4676	-0.1402	-1.8802	-0.0076	-0.0102	0.0093	32.0454	1.6853	17.0838	0.6358	0.0485	0.7689	-0.0469
4.51	-9.4645	-0.1392	-1.8863	0.0002	-0.0146	0.0060	32.0387	1.4140	17.0862	0.6358	0.0485	0.7689	-0.0469
4.52	-9.4726	-0.1427	-1.8877	-0.0005	-0.0149	0.0112	31.9387	1.5226	17.0584	0.6358	0.0485	0.7689	-0.0469
4.53	-9.4711	-0.1370	-1.8794	-0.0028	-0.0087	0.0101	31.7997	1.5178	17.1526	0.6358	0.0485	0.7689	-0.0469
4.54	-9.4684	-0.1246	-1.8788	-0.0039	-0.0155	0.0066	31.8203	1.3426	17.1005	0.6357	0.0485	0.7688	-0.0469
4.55	-9.4724	-0.1224	-1.8567	-0.0010	-0.0146	0.0122	31.7662	1.5140	16.9499	0.6358	0.0485	0.7689	-0.0469
4.56	-9.4702	-0.1313	-1.8478	-0.0032	-0.0147	0.0105	31.7671	1.5358	17.1850	0.6358	0.0485	0.7689	-0.0469
4.57	-9.4689	-0.1201	-1.8632	-0.0070	-0.0145	0.0065	32.0139	1.6078	17.0792	0.6358	0.0485	0.7689	-0.0468
4.58	-9.4708	-0.1192	-1.8445	-0.0081	-0.0127	0.0048	31.7791	1.7219	17.0729	0.6358	0.0484	0.7689	-0.0468
4.59	-9.4669	-0.1010	-1.8439	-0.0018	-0.0150	0.0104	31.6801	1.8253	17.1702	0.6358	0.0485	0.7689	-0.0468
4.6	-9.4695	-0.0779	-1.8605	-0.0022	-0.0162	0.0080	31.8212	1.7032	17.1547	0.6358	0.0485	0.7689	-0.0468
4.61	-9.4634	-0.0610	-1.8385	0.0014	-0.0116	0.0063	31.9843	1.4853	17.1602	0.6358	0.0485	0.7688	-0.0468
4.62	-9.4704	-0.0534	-1.8351	0.0076	-0.0099	0.0010	31.8632	1.8973	17.1740	0.6358	0.0485	0.7690	-0.0469
4.63	-9.4845	-0.0494	-1.8443	-0.0030	-0.0132	0.0122	31.6060	1.6490	17.1012	0.6358	0.0485	0.7689	-0.0469
4.64	-9.4824	-0.0513	-1.8455	0.0035	-0.0108	0.0103	31.7884	1.6944	17.0942	0.6358	0.0485	0.7690	-0.0469
4.65	-9.4626	-0.0531	-1.8339	-0.0025	-0.0130	0.0058	31.7841	1.6313	17.3784	0.6357	0.0485	0.7689	-0.0469
4.66	-9.4798	-0.0498	-1.8461	-0.0022	-0.0110	0.0108	31.9521	1.4168	17.1937	0.6358	0.0485	0.7689	-0.0469
4.67	-9.4737	-0.0545	-1.8452	-0.0040	-0.0124	0.0011	32.0478	1.3175	17.1706	0.6357	0.0485	0.7690	-0.0469
4.68	-9.4619	-0.0434	-1.8351	-0.0088	-0.0128	0.0046	31.8486	1.3456	17.1679	0.6357	0.0485	0.7689	-0.0468
4.69	-9.4668	-0.0505	-1.8431	-0.0052	-0.0134	0.0020	31.8982	1.5862	17.1653	0.6358	0.0484	0.7690	-0.0468
4.7	-9.4728	-0.0577	-1.8448	-0.0072	-0.0159	0.0067	32.1335	1.5345	17.3097	0.6357	0.0484	0.7689	-0.0468
4.71	-9.4673	-0.0832	-1.8424	-0.0080	-0.0175	0.0075	32.2428	1.5597	17.3807	0.6358	0.0484	0.7690	-0.0468
4.72	-9.4673	-0.0869	-1.8411	-0.0026	-0.0153	0.0104	32.0778	1.5678	17.2141	0.6357	0.0484	0.7689	-0.0468
4.73	-9.4745	-0.0994	-1.8358	-0.0052	-0.0149	0.0093	31.9856	1.6605	17.3313	0.6358	0.0484	0.7690	-0.0468
4.74	-9.4692	-0.1062	-1.8373	-0.0035	-0.0155	0.0054	31.7617	1.5651	17.3673	0.6358	0.0484	0.7689	-0.0468
4.75	-9.4730	-0.1178	-1.8441	-0.0033	-0.0126	0.0074	31.9655	1.6391	17.2144	0.6357	0.0484	0.7689	-0.0468
4.76	-9.4685	-0.1235	-1.8320	-0.0006	-0.0148	-0.0004	31.8338	1.7771	17.1086	0.6358	0.0483	0.7690	-0.0468
4.77	-9.4701	-0.1194	-1.8275	-0.0057	-0.0200	0.0047	31.7996	1.7060	17.2654	0.6358	0.0483	0.7689	-0.0468
4.78	-9.4675	-0.1218	-1.8414	-0.0054	-0.0154	0.0058	31.8588	1.6332	17.1126	0.6358	0.0483	0.7690	-0.0468
4.79	-9.4581	-0.1246	-1.8366	-0.0006	-0.0175	0.0052	31.6550	1.7557	17.2114	0.6357	0.0483	0.7689	-0.0468
4.8	-9.4668	-0.1314	-1.8368	0.0033	-0.0095	0.0036	31.7377	1.6312	17.2962	0.6358	0.0483	0.7690	-0.0468
4.81	-9.4730	-0.1295	-1.8443	0.0052	-0.0148	0.0064	31.7892	1.7012	17.1830	0.6358	0.0483	0.7689	-0.0468
4.82	-9.4642	-0.1200	-1.8391	-0.0066	-0.0125	0.0038	31.7747	1.7894	17.2225	0.6358	0.0483	0.7690	-0.0468
4.83	-9.4762	-0.1296	-1.8590	-0.0023	-0.0146	0.0090	31.8635	1.5388	17.1275	0.6358	0.0483	0.7689	-0.0468
4.84	-9.4748	-0.1183	-1.8511	0.0016	-0.0125	0.0102	31.7693	1.5094	17.2262	0.6358	0.0483	0.7689	-0.0468
4.85	-9.4613	-0.1015	-1.8459	0.0006	-0.0148	0.0122	31.9520	1.6176	17.2339	0.6358	0.0483	0.7690	-0.0468
4.86	-9.4688	-0.1046	-1.8424	-0.0015	-0.0148	0.0078	31.9251	1.5515	17.1283	0.6357	0.0483	0.7689	-0.0468
4.87	-9.4700	-0.1010	-1.8494	-0.0048	-0.0168	0.0097	32.0668	1.6260	16.9457	0.6358	0.0483	0.7690	-0.0468
4.88	-9.4735	-0.1202	-1.8470	-0.0041	-0.0079	0.0103	31.9705	1.5049	17.2222	0.6358	0.0483	0.7689	-0.0468
4.89	-9.4686	-0.1181	-1.8404	-0.0057	-0.0182	0.0132	31.9363	1.5959	17.2277	0.6358	0.0484	0.7690	-0.0467
4.9	-9.4742	-0.1099	-1.8534	-0.0035	-0.0159	0.0042	31.9413	1.8750	17.1877	0.6357	0.0483	0.7689	-0.0467
4.91	-9.4687	-0.1125	-1.8615	-0.0044	-0.0113	0.0095	31.8476	1.6916	17.0276	0.6358	0.0483	0.7689	-0.0467
4.92	-9.4640	-0.0944	-1.8690	-0.0084	-0.0122	0.0131	31.8687	1.8041	17.1580	0.6358	0.0483	0.7690	-0.0467
4.93	-9.4683	-0.0905	-1.8684	-0.0030	-0.0165	0.0117	31.8640	1.5762	17.1055	0.6357	0.0483	0.7689	-0.0467
4.94	-9.4743	-0.0935	-1.8848	-0.0038	-0.0117	0.0012	31.8566	1.4925	17.2315	0.6358	0.0483	0.7690	-0.0467
4.95	-9.4597	-0.0994	-1.8729	-0.0045	-0.0168	0.0046	31.8761	1.8775	17.3645	0.6358	0.0483	0.7689	-0.0467
4.96	-9.4644	-0.0944	-1.8674	-0.0024	-0.0159	0.0052	31.7911	1.7341	17.3325	0.6358	0.0483	0.7690	-0.0467
4.97	-9.4711	-0.0994	-1.8592	-0.0046	-0.0092	0.0056	31.7760	1.7727	17.2770	0.6357	0.0483	0.7689	-0.0467
4.98	-9.4714	-0.0941	-1.8569	-0.0017	-0.0064	0.0048	31.7698	1.4805	17.2046	0.6357	0.0483	0.7690	-0.0467
4.99	-9.4705	-0.0974	-1.8578	0.0015	-0.0093	0.0088	31.6669	1.7576	17.2085	0.6357	0.0483	0.7690	-0.0467
5	-9.4742	-0.1036	-1.8920	-0.0041	-0.0110	0.0087	31.7742	1.8057	16.9035	0.6357	0.0483	0.7690	-0.0467
5.01	-9.4753	-0.0989	-1.8904	0.0024	-0.0092	0.0024	31.8954	1.5344	17.1854	0.6357	0.0483	0.7690	-0.0467
5.02	-9.4695	-0.1015	-1.8800	0.0014	-0.0141	0.0097	31.6936	1.6004	17.1708	0.6357	0.0483	0.7690	-0.0467
5.03	-9.4726	-0.0989	-1.8873	0.0029	-0.0159	0.0079	31.8006	1.7578	16.9285	0.6357	0.0483	0.7691	-0.0467
5.04	-9.4830	-0.0923	-1.8827	-0.0005	-0.0167	0.0151	32.0413	1.6655	16.9418	0.6356	0.0483	0.7690	-0.0467
5.05	-9.4696	-0.0921	-1.8674	-0.0023	-0.0142	0.0098	32.0399	1.4868	17.2007	0.6357	0.0484	0.7690	-0.0467
5.06	-9.4688	-0.0874	-1.8560	-0.0075	-0.0164	0.0115	31.9686	1.4697	17.1846	0.6357	0.0484	0.7690	-0.0467
5.07	-9.4740	-0.0668	-1.8602	-0.0101	-0.0170	0.0067	31.9563	1.6496	17.1040	0.6357	0.0483	0.7690	-0.0466
5.08	-9.4657	-0.0606	-1.8499	-0.0065	-0.0200	0.0106	31.8346	1.6686	17.1376	0.6357	0.0483	0.7690	-0.0466
5.09	-9.4605	-0.0648	-1.8331	-0.0081	-0.0175	0.0052	31.8140	1.3339	17.1240	0.6357	0.0483	0.7690	-0.0466
5.1	-9.4745	-0.0628	-1.8405	-0.0088	-0.0101	0.0040	32.0159	1.6754	17.1562	0.6357	0.0483	0.7690	-0.0466
5.11	-9.4743	-0.0736	-1.8379	-0.0030	-0.0155	0.0099	31.8133	1.6553	17.3543	0.6357	0.0483	0.7689	-0.0465
5.12	-9.4724	-0.0882	-1.8320	-0.0081	-0.0092	0.0107	31.9979	1.5822	17.0276	0.6358	0.0483	0.7690	-0.0465
5.13	-9.4755	-0.0749	-1.8468	-0.0043	-0.0109	0.0085	31.8747	1.7106	17.3088	0.6357	0.0482	0.7690	-0.0465
5.14	-9.4757	-0.0794	-1.8390	-0.0015	-0.0121	0.0105	31.8657	1.7925	17.5687	0.6358	0.0483	0.7691	-0.0465
5.15	-9.4558	-0.0882	-1.8429	-0.0115	-0.0116	0.0072	31.7556	1.5367	17.2416	0.6357	0.0482	0.7690	-0.0464
5.16	-9.4646	-0.0672	-1.8505	-0.0068	-0.0123	0.0062	31.9237	1.5263	17.4599	0.6357	0.0482	0.7690	-0.0464
5.17	-9.4641	-0.0654	-1.8403	-0.0033	-0.0134	0.0084	31.8721	1.7491	17.2994	0.6357	0.0482	0.7691	-0.0464
5.18	-9.4713	-0.0751	-1.8361	-0.0086	-0.0113	0.0065	31.6484	1.7982	17.3000	0.6356	0.0482	0.7690	-0.0464
5.19	-9.4730	-0.0842	-1.8302	-0.0035	-0.0123	0.0071	31.8178	1.9395	17.2749	0.6357	0.0482	0.7691	-0.0464
5.2	-9.4708	-0.0974	-1.8281	-0.0031	-0.0023	0.0061	32.2623	1.8901	17.2019	0.6356	0.0482	0.7691	-0.0464
5.21	-9.4845	-0.1228	-1.8329	-0.0013	-0.0084	0.0099	32.1973	1.7604	17.4566	0.6356	0.0482	0.7692	-0.0464
5.22	-9.4705	-0.1215	-1.8442	-0.0044	-0.0100	0.0124	32.1424	1.7013	17.5300	0.6355	0.0482	0.7691	-0.0463
5.23	-9.4639	-0.1293	-1.8442	-0.0078	-0.0071	0.0124	32.1205	1.6052	17.5733	0.6356	0.0482	0.7692	-0.0463
5.24	-9.4729	-0.1273	-1.8436	-0.0033	-0.0141	0.0099	31.6785	1.6286	17.2597	0.6356	0.0482	0.7692	-0.0463
5.25	-9.4697	-0.1179	-1.8525	0.0018	-0.0097	0.0101	31.9414	1.5900	17.2453	0.6355	0.0482	0.7692	-0.0463
5.26	-9.4732	-0.1194	-1.8472	-0.0023	-0.0103	0.0090	32.0590	1.3704	17.2661	0.6355	0.0482	0.7692	-0.0463
5.27	-9.4787	-0.1031	-1.8539	-0.0009	-0.0053	-0.0014	31.8870	1.5242	17.3648	0.6355	0.0482	0.7692	-0.0463
5.28	-9.4740	-0.1063	-1.8628	-0.0032	-0.0118	0.0057	31.8698	1.6239	17.1066	0.6355	0.0482	0.7693	-0.0463
5.29	-9.4636	-0.1213	-1.8689	-0.0047	-0.0122	0.0122	31.8777	1.6578	17.3602	0.6354	0.0482	0.7692	-0.0463
5.3	-9.4709	-0.1203	-1.8776	-0.0046	-0.0112	0.0102	31.7555	1.5245	17.4026	0.6355	0.0482	0.7693	-0.0463
5.31	-9.4724	-0.1247	-1.8867	-0.0072	-0.0075	0.0047	31.8393	1.5948	17.3529	0.6354	0.0482	0.7693	-0.0462
5.32	-9.4709	-0.1214	-1.8968	-0.0068	-0.0099	-0.0002	31.8784	1.7253	17.4633	0.6354	0.0481	0.7693	-0.0462
5.33	-9.4691	-0.1223	-1.8962	-0.0080	-0.0060	0.0024	31.8652	1.7237	17.3057	0.6354	0.0481	0.7693	-0.0462
5.34	-9.4721	-0.1215	-1.8858	-0.0056	-0.0102	0.0051	31.7531	1.7228	17.3426	0.6354	0.0481	0.7693	-0.0462
5.35	-9.4692	-0.1212	-1.8862	-0.0077	-0.0151	0.0086	31.8535	1.7184	17.3132	0.6354	0.0481	0.7693	-0.0462
5.36	-9.4553	-0.1179	-1.8712	-0.0058	-0.0136	0.0097	31.8869	1.7406	17.0284	0.6353	0.0481	0.7693	-0.0462
5.37	-9.4678	-0.1233	-1.8696	-0.0109	-0.0141	0.0024	31.7741	1.6039	17.3215	0.6354	0.0480	0.7694	-0.0462
5.38	-9.4627	-0.1133	-1.8758	-0.0084	-0.0148	0.0076	31.7955	1.5627	17.2832	0.6354	0.0480	0.7693	-0.0461
5.39	-9.4601	-0.1037	-1.8701	-0.0059	-0.0111	0.0096	31.7917	1.9857	17.2830	0.6354	0.0480	0.7694	-0.0461
5.4	-9.4625	-0.1032	-1.8619	-0.0019	-0.0098	0.0079	31.7785	1.8864	17.3555	0.6353	0.0480	0.7693	-0.0461
5.41	-9.4676	-0.1076	-1.8633	-0.0002	-0.0144	0.0122	31.8116	1.6647	17.1914	0.6353	0.0480	0.7694	-0.0461
5.42	-9.4667	-0.1094	-1.8535	-0.0058	-0.0121	0.0099	31.9027	1.6096	17.3138	0.6353	0.0480	0.7694	-0.0461
5.43	-9.4707	-0.1035	-1.8557	-0.0015	-0.0111	0.0134	31.8405	1.4566	17.0542	0.6353	0.0480	0.7693	-0.0460
5.44	-9.4865	-0.1024	-1.8542	-0.0005	-0.0144	0.0105	32.0070	1.5018	17.2022	0.6354	0.0481	0.7694	-0.0460
5.45	-9.4710	-0.0975	-1.8458	-0.0002	-0.0098	0.0026	32.0026	1.4408	17.2559	0.6353	0.0480	0.7694	-0.0461
5.46	-9.4657	-0.0843	-1.8392	-0.0027	-0.0177	0.0072	31.9347	1.5981	17.3091	0.6353	0.0480	0.7694	-0.0461
5.47	-9.4647	-0.0671	-1.8421	0.0011	-0.0129	0.0072	31.9544	1.7494	17.3514	0.6353	0.0480	0.7693	-0.0461
5.48	-9.4675	-0.0728	-1.8458	0.0027	-0.0106	0.0068	31.8504	1.6105	17.3230	0.6353	0.0481	0.7694	-0.0461
5.49	-9.4711	-0.0862	-1.8402	0.0022	-0.0101	0.0073	32.0383	1.6639	17.1725	0.6353	0.0481	0.7694	-0.0461
5.5	-9.4650	-0.0868	-1.8411	0.0040	-0.0100	-0.0005	31.9964	1.6240	17.2115	0.6352	0.0481	0.7694	-0.0461
5.51	-9.4747	-0.0862	-1.8418	-0.0012	-0.0072	0.0025	31.6512	1.7385	17.3727	0.6352	0.0480	0.7695	-0.0462
5.52	-9.4715	-0.0785	-1.8409	-0.0010	-0.0024	0.0017	31.6452	1.8273	17.2701	0.6352	0.0480	0.7695	-0.0462
5.53	-9.4774	-0.0592	-1.8352	-0.0031	-0.0082	0.0060	31.7738	1.7546	17.2390	0.6352	0.0480	0.7695	-0.0462
5.54	-9.4662	-0.0598	-1.8329	-0.0040	-0.0072	0.0086	31.8784	1.6288	17.2375	0.6351	0.0480	0.7695	-0.0462
5.55	-9.4748	-0.0723	-1.8418	-0.0000	-0.0042	0.0041	31.8604	1.6484	17.2739	0.6351	0.0480	0.7696	-0.0462
5.56	-9.4721	-0.0820	-1.8400	0.0026	-0.0068	0.0074	31.6020	1.9320	17.3214	0.6351	0.0480	0.7696	-0.0462
5.57	-9.4723	-0.0945	-1.8496	0.0026	-0.0006	0.0059	31.7087	1.9882	17.1059	0.6350	0.0480	0.7696	-0.0462
5.58	-9.4721	-0.0946	-1.8493	-0.0002	-0.0093	0.0134	31.7093	1.8796	17.3483	0.6350	0.0481	0.7696	-0.0462
5.59	-9.4707	-0.1018	-1.8562	-0.0066	-0.0135	0.0039	31.7101	1.7528	17.4460	0.6350	0.0480	0.7696	-0.0462
5.6	-9.4727	-0.1034	-1.8627	-0.0034	-0.0065	0.0026	32.0506	1.5237	17.3741	0.6350	0.0480	0.7697	-0.0462
5.61	-9.4682	-0.1059	-1.8731	0.0018	-0.0100	0.0070	31.9358	1.3647	17.2523	0.6349	0.0480	0.7696	-0.0462
5.62	-9.4695	-0.1159	-1.8772	-0.0035	-0.0147	0.0028	31.9803	1.5293	17.3453	0.6350	0.0480	0.7697	-0.0462
5.63	-9.4770	-0.1213	-1.8803	-0.0043	-0.0136	0.0043	32.0273	1.5364	17.0627	0.6349	0.0480	0.7697	-0.0462
5.64	-9.4714	-0.1138	-1.8715	-0.0006	-0.0167	0.0089	32.1215	1.4504	17.1403	0.6350	0.0480	0.7697	-0.0462
5.65	-9.4634	-0.1260	-1.8833	-0.0028	-0.0065	0.0085	32.0240	1.5715	17.2770	0.6349	0.0480	0.7697	-0.0462
5.66	-9.4695	-0.1248	-1.8724	0.0006	-0.0097	0.0087	31.7357	1.6756	17.3334	0.6349	0.0480	0.7697	-0.0462
5.67	-9.4707	-0.1252	-1.8728	0.0043	-0.0116	0.0092	31.9603	1.5667	17.3588	0.6349	0.0480	0.7697	-0.0462
5.68	-9.4687	-0.1298	-1.8659	-0.0063	-0.0139	0.0083	31.6727	1.6224	17.2415	0.6348	0.0480	0.7697	-0.0462
5.69	-9.4639	-0.1191	-1.8761	0.0015	-0.0120	0.0082	31.8290	1.6468	17.2519	0.6349	0.0480	0.7698	-0.0462
5.7	-9.4653	-0.1159	-1.8769	-0.0056	-0.0081	0.0045	32.1264	1.6593	17.5160	0.6348	0.0480	0.7698	-0.0462
5.71	-9.4793	-0.1135	-1.8628	-0.0014	-0.0070	0.0121	32.0498	1.7882	17.5063	0.6349	0.0480	0.7698	-0.0462
5.72	-9.4697	-0.1110	-1.8574	0.0032	-0.0190	0.0053	31.9406	1.5738	17.5010	0.6348	0.0480	0.7697	-0.0462
5.73	-9.4809	-0.1078	-1.8548	-0.0044	-0.0125	0.0049	31.8201	1.6521	17.4036	0.6348	0.0480	0.7698	-0.0462
5.74	-9.4833	-0.0919	-1.8586	-0.0051	-0.0123	0.0077	31.7727	1.8258	17.3060	0.6348	0.0480	0.7698	-0.0462
5.75	-9.4669	-0.0881	-1.8579	-0.0054	-0.0144	0.0069	31.9194	1.8425	17.0523	0.6348	0.0480	0.7698	-0.0462
5.76	-9.4701	-0.0830	-1.8502	0.0007	-0.0148	0.0138	31.6585	1.6931	17.3979	0.6348	0.0480	0.7698	-0.0462
5.77	-9.4765	-0.0954	-1.8544	0.0005	-0.0166	0.0099	31.7733	1.5701	17.2712	0.6348	0.0481	0.7698	-0.0462
5.78	-9.4821	-0.1087	-1.8425	0.0056	-0.0158	0.0088	31.9517	1.6924	17.1207	0.6349	0.0481	0.7698	-0.0462
5.79	-9.4695	-0.1171	-1.8400	0.0032	-0.0118	0.0161	32.0262	1.6484	17.3487	0.6348	0.0481	0.7697	-0.0462
5.8	-9.4730	-0.1086	-1.8435	-0.0020	-0.0181	0.0135	32.0284	1.6564	17.1913	0.6349	0.0482	0.7698	-0.0462
5.81	-9.4820	-0.0985	-1.8316	0.0017	-0.0136	0.0073	32.0622	1.5459	17.2170	0.6348	0.0482	0.7698	-0.0462
5.82	-9.4698	-0.0938	-1.8212	-0.0019	-0.0079	0.0090	32.1595	1.6044	17.3076	0.6348	0.0482	0.7698	-0.0462
5.83	-9.4696	-0.0855	-1.8187	0.0029	-0.0069	0.0080	31.9123	1.5525	17.2113	0.6348	0.0482	0.7698	-0.0462
5.84	-9.4753	-0.0777	-1.8334	-0.0029	-0.0133	0.0090	31.8753	1.6093	17.2416	0.6348	0.0482	0.7698	-0.0462
5.85	-9.4645	-0.0711	-1.8435	-0.0038	-0.0165	0.0104	31.8288	1.6814	17.3348	0.6348	0.0482	0.7698	-0.0462
5.86	-9.4617	-0.0792	-1.8442	-0.0089	-0.0174	0.0092	31.7431	1.5767	17.2324	0.6347	0.0482	0.7697	-0.0461
5.87	-9.4699	-0.0877	-1.8457	-0.0073	-0.0134	0.0150	32.0416	1.5569	16.9835	0.6348	0.0482	0.7698	-0.0461
5.88	-9.4735	-0.0869	-1.8559	-0.0075	-0.0098	0.0053	31.8342	1.7733	17.1404	0.6348	0.0482	0.7698	-0.0461
5.89	-9.4672	-0.0825	-1.8514	-0.0054	-0.0130	0.0046	31.8355	1.8040	17.2407	0.6348	0.0482	0.7699	-0.0461
5.9	-9.4680	-0.0839	-1.8456	-0.0001	-0.0121	0.0055	31.8946	1.5366	17.2048	0.6347	0.0481	0.7698	-0.0461
5.91	-9.4770	-0.0860	-1.8441	-0.0065	-0.0131	0.0030	31.7474	1.5947	17.3351	0.6348	0.0481	0.7698	-0.0461
5.92	-9.4701	-0.0830	-1.8439	-0.0043	-0.0107	0.0054	31.8380	1.7118	17.2824	0.6347	0.0481	0.7699	-0.0461
5.93	-9.4734	-0.0899	-1.8447	-0.0034	-0.0033	0.0049	31.9592	1.4779	17.3258	0.6347	0.0481	0.7698	-0.0461
5.94	-9.4722	-0.0927	-1.8555	-0.0047	-0.0053	0.0013	31.8535	1.5986	17.2895	0.6347	0.0481	0.7700	-0.0461
5.95	-9.4737	-0.0876	-1.8414	-0.0085	-0.0170	0.0091	32.0147	1.8000	17.3256	0.6347	0.0480	0.7699	-0.0460
5.96	-9.4677	-0.0987	-1.8468	-0.0074	-0.0108	0.0111	31.8050	1.6638	17.2602	0.6347	0.0480	0.7700	-0.0460
5.97	-9.4690	-0.0928	-1.8531	-0.0086	-0.0099	0.0090	31.7832	1.5741	17.4502	0.6346	0.0480	0.7699	-0.0460
5.98	-9.4676	-0.0995	-1.8608	-0.0017	-0.0133	0.0119	31.8754	1.5628	17.0754	0.6347	0.0480	0.7700	-0.0460
5.99	-9.4700	-0.0996	-1.8586	-0.0063	-0.0150	0.0064	31.9417	1.4493	16.9998	0.6346	0.0480	0.7699	-0.0459
6	-9.4668	-0.1017	-1.8640	-0.0108	-0.0199	0.0086	32.1616	1.5962	17.2739	0.6347	0.0480	0.7699	-0.0459
6.01	-9.4695	-0.1155	-1.8486	-0.0008	-0.0100	0.0080	31.9095	1.5568	17.1924	0.6347	0.0480	0.7700	-0.0459
6.02	-9.4764	-0.1209	-1.8647	-0.0038	-0.0102	0.0072	31.9852	1.4949	17.2486	0.6346	0.0480	0.7699	-0.0459
6.03	-9.4717	-0.1224	-1.8618	-0.0082	-0.0165	0.0130	31.8817	1.6557	17.3796	0.6347	0.0480	0.7700	-0.0459
6.04	-9.4708	-0.1223	-1.8633	0.0025	-0.0140	0.0100	31.8680	1.6735	16.9988	0.6346	0.0480	0.7699	-0.0459
6.05	-9.4805	-0.1336	-1.8551	0.0033	-0.0098	0.0163	31.8786	1.5279	17.2017	0.6347	0.0481	0.7700	-0.0459
6.06	-9.4757	-0.1318	-1.8509	0.0056	-0.0089	0.0090	32.0142	1.5231	17.3156	0.6346	0.0481	0.7700	-0.0459
6.07	-9.4654	-0.1201	-1.8642	-0.0019	-0.0050	0.0072	32.0434	1.8708	17.1397	0.6346	0.0481	0.7700	-0.0459
6.08	-9.4661	-0.1193	-1.8705	-0.0059	-0.0085	0.0071	31.9502	1.7036	17.4587	0.6345	0.0481	0.7700	-0.0459
6.09	-9.4552	-0.1169	-1.8564	-0.0060	-0.0085	0.0062	31.8073	1.6696	17.1954	0.6345	0.0481	0.7700	-0.0458
6.1	-9.4723	-0.1093	-1.8656	-0.0076	-0.0119	0.0073	31.8289	1.5878	17.3071	0.6345	0.0481	0.7701	-0.0458
6.11	-9.4731	-0.1183	-1.8779	-0.0044	-0.0047	0.0067	31.9538	1.6342	17.2180	0.6344	0.0480	0.7700	-0.0458
6.12	-9.4738	-0.1228	-1.8766	-0.0031	-0.0129	0.0070	31.8847	1.7739	17.1322	0.6345	0.0480	0.7701	-0.0458
6.13	-9.4713	-0.1113	-1.8591	-0.0011	-0.0094	0.0071	31.8137	1.7086	17.2215	0.6345	0.0480	0.7701	-0.0458
6.14	-9.4738	-0.1071	-1.8647	-0.0012	-0.0128	0.0077	31.8410	1.5359	17.2765	0.6345	0.0480	0.7702	-0.0458
6.15	-9.4704	-0.1034	-1.8514	-0.0032	-0.0140	0.0068	31.9526	1.3642	17.4077	0.6344	0.0480	0.7701	-0.0458
6.16	-9.4659	-0.1032	-1.8471	0.0008	-0.0110	0.0132	31.8727	1.5783	17.3049	0.6344	0.0481	0.7701	-0.0458
6.17	-9.4721	-0.1024	-1.8514	0.0008	-0.0129	0.0098	32.1471	1.5107	17.2401	0.6344	0.0481	0.7701	-0.0458
6.18	-9.4723	-0.0914	-1.8514	0.0035	-0.0123	0.0075	32.0480	1.5603	16.9899	0.6344	0.0481	0.7701	-0.0458
6.19	-9.4721	-0.0853	-1.8609	0.0041	-0.0114	0.0098	31.9166	1.6714	17.2769	0.6345	0.0481	0.7702	-0.0458
6.2	-9.4688	-0.0864	-1.8508	0.0031	-0.0156	0.0077	32.1460	1.5531	17.3142	0.6344	0.0481	0.7701	-0.0458
6.21	-9.4699	-0.0940	-1.8590	0.0049	-0.0142	0.0088	32.3850	1.7994	17.3131	0.6345	0.0482	0.7702	-0.0459
6.22	-9.4689	-0.0880	-1.8512	-0.0065	-0.0118	0.0068	32.2425	1.6037	17.3097	0.6344	0.0482	0.7701	-0.0458
6.23	-9.4710	-0.0913	-1.8584	-0.0047	-0.0125	0.0031	31.9150	1.4998	17.5156	0.6344	0.0481	0.7702	-0.0458
6.24	-9.4710	-0.0941	-1.8455	0.0002	-0.0135	0.0042	31.7093	1.5642	17.3599	0.6344	0.0481	0.7701	-0.0459
6.25	-9.4723	-0.0849	-1.8437	-0.0045	-0.0175	0.0024	31.9947	1.8631	17.0541	0.6344	0.0481	0.7701	-0.0459
6.26	-9.4697	-0.0880	-1.8486	-0.0025	-0.0129	0.0117	31.8490	1.6891	16.9750	0.6344	0.0481	0.7702	-0.0459
6.27	-9.4709	-0.0831	-1.8515	-0.0068	-0.0143	0.0023	31.7715	1.7191	17.1117	0.6344	0.0481	0.7701	-0.0458
6.28	-9.4759	-0.0858	-1.8544	-0.0070	-0.0127	0.0045	31.8105	1.8301	17.1856	0.6344	0.0481	0.7702	-0.0458
6.29	-9.4702	-0.0858	-1.8481	-0.0089	-0.0107	0.0027	31.7018	1.6035	17.0448	0.6343	0.0480	0.7701	-0.0458
6.3	-9.4721	-0.0906	-1.8484	0.0009	-0.0175	0.0085	31.7184	1.7958	17.0862	0.6344	0.0480	0.7702	-0.0458
6.31	-9.4712	-0.0835	-1.8562	-0.0006	-0.0106	0.0050	31.6917	1.8224	17.1662	0.6344	0.0480	0.7702	-0.0458
6.32	-9.4720	-0.0782	-1.8555	-0.0077	-0.0134	-0.0030	31.7686	1.8213	17.1430	0.6344	0.0480	0.7702	-0.0458
6.33	-9.4729	-0.0824	-1.8497	-0.0092	-0.0131	0.0099	31.8876	1.8312	17.1453	0.6344	0.0479	0.7702	-0.0458
6.34	-9.4684	-0.0809	-1.8430	-0.0006	-0.0161	0.0081	31.7366	1.6900	17.2960	0.6344	0.0479	0.7702	-0.0458
6.35	-9.4730	-0.0862	-1.8529	-0.0080	-0.0143	0.0096	31.8796	1.4418	17.3241	0.6344	0.0479	0.7702	-0.0458
6.36	-9.4674	-0.0910	-1.8512	-0.0065	-0.0200	0.0105	32.0838	1.3831	17.0711	0.6344	0.0479	0.7701	-0.0458
6.37	-9.4732	-0.0906	-1.8536	-0.0093	-0.0130	0.0019	31.7955	1.5471	16.9627	0.6344	0.0479	0.7702	-0.0457
6.38	-9.4782	-0.0994	-1.8541	-0.0065	-0.0112	-0.0002	31.7232	1.5546	17.1657	0.6344	0.0478	0.7702	-0.0457
6.39	-9.4716	-0.1013	-1.8436	-0.0028	-0.0152	0.0054	32.0609	1.6607	17.3425	0.6344	0.0478	0.7702	-0.0458
6.4	-9.4719	-0.0975	-1.8608	-0.0117	-0.0125	0.0061	31.9280	1.6486	17.3343	0.6343	0.0478	0.7701	-0.0457
6.41	-9.4747	-0.0884	-1.8611	-0.0165	-0.0148	0.0072	31.8453	1.5886	17.3225	0.6344	0.0477	0.7702	-0.0457
6.42	-9.4753	-0.0858	-1.8538	-0.0069	-0.0117	0.0020	31.7267	1.6567	17.3512	0.6344	0.0477	0.7702	-0.0457
6.43	-9.4685	-0.0923	-1.8548	-0.0068	-0.0130	0.0090	31.9597	1.4479	17.2528	0.6343	0.0477	0.7702	-0.0456
6.44	-9.4715	-0.0885	-1.8588	-0.0080	-0.0083	0.0082	31.9338	1.7133	17.1553	0.6344	0.0477	0.7703	-0.0456
6.45	-9.4720	-0.1141	-1.8637	-0.0050	-0.0122	0.0017	31.8669	1.7453	17.1297	0.6343	0.0476	0.7702	-0.0456
6.46	-9.4757	-0.1165	-1.8703	-0.0051	-0.0115	0.0042	31.8150	1.7402	17.2344	0.6344	0.0476	0.7703	-0.0456
6.47	-9.4686	-0.1134	-1.8626	-0.0122	-0.0073	-0.0006	31.7656	1.7438	17.2242	0.6343	0.0476	0.7702	-0.0456
6.48	-9.4698	-0.1200	-1.8699	-0.0138	-0.0082	0.0080	31.9000	1.6310	17.2870	0.6343	0.0475	0.7703	-0.0455
6.49	-9.4696	-0.1212	-1.8653	-0.0089	-0.0061	0.0053	31.8334	1.7051	17.1199	0.6343	0.0475	0.7703	-0.0455
6.5	-9.4741	-0.1130	-1.8559	0.0006	-0.0091	0.0060	31.6905	1.7685	17.0977	0.6342	0.0475	0.7703	-0.0455
6.51	-9.4615	-0.1114	-1.8570	-0.0088	-0.0135	0.0055	31.8128	1.7007	17.2791	0.6343	0.0475	0.7704	-0.0455
6.52	-9.4735	-0.1080	-1.8604	-0.0060	-0.0104	0.0041	31.7480	1.8119	17.0900	0.6342	0.0474	0.7703	-0.0455
6.53	-9.4687	-0.1206	-1.8447	-0.0069	-0.0136	0.0069	31.7182	1.7392	17.2089	0.6342	0.0474	0.7704	-0.0455
6.54	-9.4693	-0.1127	-1.8591	-0.0033	-0.0127	0.0136	31.9742	1.4557	17.0226	0.6342	0.0474	0.7703	-0.0454
6.55	-9.4718	-0.1100	-1.8576	-0.0040	-0.0088	0.0101	32.0345	1.8155	17.2449	0.6342	0.0474	0.7704	-0.0454
6.56	-9.4711	-0.1126	-1.8547	-0.0025	-0.0119	0.0031	32.0223	1.6816	17.3109	0.6342	0.0474	0.7704	-0.0454
6.57	-9.4698	-0.1005	-1.8485	0.0000	-0.0147	0.0090	32.0374	1.3854	17.2309	0.6342	0.0474	0.7704	-0.0454
6.58	-9.4677	-0.0859	-1.8434	-0.0019	-0.0119	0.0110	31.9506	1.5264	17.2562	0.6342	0.0475	0.7704	-0.0454
6.59	-9.4721	-0.0792	-1.8510	-0.0108	-0.0097	0.0130	31.7043	1.7850	17.1247	0.6342	0.0474	0.7704	-0.0454
6.6	-9.4717	-0.0739	-1.8484	-0.0075	-0.0106	0.0081	31.9430	1.5548	17.1587	0.6342	0.0474	0.7704	-0.0454
6.61	-9.4712	-0.0786	-1.8491	0.0006	-0.0115	0.0027	31.8752	1.5988	17.2347	0.6341	0.0474	0.7704	-0.0454
6.62	-9.4721	-0.0810	-1.8708	-0.0065	-0.0146	0.0123	31.7822	1.4565	17.2569	0.6342	0.0474	0.7705	-0.0453
6.63	-9.4760	-0.0728	-1.8648	-0.0084	-0.0132	-0.0034	31.8968	1.8218	17.0832	0.6341	0.0474	0.7704	-0.0453
6.64	-9.4732	-0.0863	-1.8495	-0.0123	-0.0168	0.0030	31.8726	1.7562	17.0486	0.6342	0.0473	0.7705	-0.0453
6.65	-9.4734	-0.0915	-1.8566	-0.0116	-0.0121	0.0048	31.7895	1.7432	17.1613	0.6341	0.0473	0.7704	-0.0453
6.66	-9.4749	-0.0850	-1.8458	-0.0080	-0.0173	0.0019	31.6787	1.7143	17.1470	0.6342	0.0472	0.7704	-0.0453
6.67	-9.4686	-0.1007	-1.8511	-0.0123	-0.0160	0.0038	31.7422	1.8120	17.3370	0.6342	0.0472	0.7704	-0.0453
6.68	-9.4679	-0.1095	-1.8610	-0.0112	-0.0140	-0.0007	31.8866	1.7585	17.2496	0.6341	0.0471	0.7704	-0.0452
6.69	-9.4662	-0.1134	-1.8769	-0.0120	-0.0159	0.0003	31.7570	1.6491	17.1419	0.6342	0.0471	0.7705	-0.0452
6.7	-9.4610	-0.1120	-1.8641	-0.0092	-0.0159	0.0032	31.8451	1.7575	17.2864	0.6342	0.0470	0.7704	-0.0452
6.71	-9.4684	-0.1216	-1.8597	0.0020	-0.0139	0.0069	32.0456	1.5576	17.1756	0.6342	0.0470	0.7705	-0.0452
6.72	-9.4723	-0.1128	-1.8700	-0.0041	-0.0190	0.0126	32.0512	1.6234	17.1326	0.6341	0.0470	0.7704	-0.0452
6.73	-9.4706	-0.1099	-1.8512	-0.0037	-0.0209	0.0107	32.1798	1.6700	17.2095	0.6342	0.0470	0.7704	-0.0452
6.74	-9.4715	-0.0933	-1.8503	0.0041	-0.0108	0.0038	32.0283	1.5594	17.4664	0.6342	0.0470	0.7704	-0.0452
6.75	-9.4731	-0.0936	-1.8440	-0.0051	-0.0157	0.0133	32.0960	1.5827	17.2313	0.6342	0.0471	0.7704	-0.0452
6.76	-9.4661	-0.0969	-1.8343	0.0026	-0.0116	0.0124	32.0916	1.5455	17.2181	0.6342	0.0471	0.7704	-0.0452
6.77	-9.4689	-0.0864	-1.8383	-0.0030	-0.0151	0.0099	31.8602	1.4941	17.2306	0.6342	0.0471	0.7704	-0.0452
6.78	-9.4832	-0.0880	-1.8415	-0.0003	-0.0133	0.0061	31.8234	1.6208	17.2120	0.6342	0.0471	0.7704	-0.0452
6.79	-9.4727	-0.0836	-1.8464	0.0059	-0.0110	0.0132	31.6318	1.7501	17.2175	0.6341	0.0471	0.7703	-0.0452
6.8	-9.4675	-0.0860	-1.8368	0.0002	-0.0117	0.0095	32.0489	1.6878	17.2092	0.6342	0.0472	0.7704	-0.0452
6.81	-9.4638	-0.0846	-1.8429	0.0030	-0.0151	0.0117	32.0373	1.6971	17.2532	0.6342	0.0472	0.7704	-0.0452
6.82	-9.4741	-0.0865	-1.8456	-0.0000	-0.0121	0.0053	31.8106	1.6793	17.3877	0.6342	0.0472	0.7704	-0.0452
6.83	-9.4711	-0.0871	-1.8527	-0.0056	-0.0083	0.0012	31.8685	1.6314	17.4899	0.6341	0.0471	0.7704	-0.0452
6.84	-9.4706	-0.0894	-1.8418	-0.0019	-0.0105	0.0068	31.6981	1.6364	17.3503	0.6341	0.0471	0.7704	-0.0452
6.85	-9.4726	-0.0986	-1.8510	-0.0005	-0.0123	0.0020	31.7141	1.5139	17.4656	0.6342	0.0471	0.7705	-0.0452
6.86	-9.4704	-0.0959	-1.8510	-0.0060	-0.0158	0.0119	31.8623	1.6150	17.4429	0.6341	0.0471	0.7704	-0.0452
6.87	-9.4662	-0.1021	-1.8540	-0.0042	-0.0115	0.0076	31.8379	1.4014	17.1326	0.6342	0.0471	0.7705	-0.0452
6.88	-9.4635	-0.1021	-1.8551	-0.0019	-0.0145	0.0060	31.7385	1.6228	17.3568	0.6341	0.0471	0.7704	-0.0452
6.89	-9.4749	-0.0936	-1.8496	-0.0026	-0.0107	0.0081	31.8234	1.7735	17.3262	0.6342	0.0471	0.7705	-0.0452
6.9	-9.4704	-0.0927	-1.8423	-0.0020	-0.0146	0.0129	31.9450	1.6426	17.3148	0.6341	0.0471	0.7704	-0.0452
6.91	-9.4755	-0.0992	-1.8443	-0.0013	-0.0115	0.0041	32.0149	1.5098	17.2653	0.6341	0.0471	0.7705	-0.0452
6.92	-9.4724	-0.1110	-1.8526	-0.0037	-0.0153	0.0118	32.0380	1.7125	17.0886	0.6341	0.0471	0.7705	-0.0452
6.93	-9.4756	-0.1237	-1.8752	0.0021	-0.0170	0.0123	32.1979	1.6218	17.1490	0.6341	0.0472	0.7704	-0.0452
6.94	-9.4746	-0.1201	-1.8542	-0.0011	-0.0196	0.0112	32.0690	1.3507	17.2480	0.6342	0.0472	0.7705	-0.0452
6.95	-9.4803	-0.1075	-1.8650	0.0037	-0.0114	0.0068	31.8502	1.6985	17.1795	0.6341	0.0472	0.7704	-0.0452
6.96	-9.4725	-0.0983	-1.8626	0.0059	-0.0126	0.0113	31.6857	1.7493	17.1104	0.6342	0.0472	0.7705	-0.0452
6.97	-9.4723	-0.0968	-1.8690	-0.0016	-0.0126	0.0126	32.1422	1.6435	17.0677	0.6341	0.0473	0.7704	-0.0452
6.98	-9.4730	-0.0885	-1.8663	0.0046	-0.0134	0.0117	32.0484	1.5604	17.0243	0.6341	0.0473	0.7705	-0.0452
6.99	-9.4752	-0.0990	-1.8650	0.0057	-0.0193	0.0104	31.8947	1.8860	17.0867	0.6342	0.0473	0.7704	-0.0452
7	-9.4675	-0.1068	-1.8575	0.0016	-0.0058	0.0109	31.9141	1.8584	17.2036	0.6341	0.0474	0.7704	-0.0452
7.01	-9.4665	-0.0836	-1.8591	0.0006	-0.0047	0.0040	31.6123	1.5876	17.2331	0.6341	0.0474	0.7705	-0.0452
7.02	-9.4757	-0.0878	-1.8622	0.0019	-0.0071	0.0038	31.7883	1.5830	17.4443	0.6341	0.0473	0.7705	-0.0453
7.03	-9.4785	-0.0845	-1.8614	0.0016	-0.0101	0.0066	32.0093	1.6910	17.3371	0.6341	0.0474	0.7705	-0.0453
7.04	-9.4753	-0.0905	-1.8618	0.0016	-0.0135	0.0049	31.7309	1.5370	17.1940	0.6340	0.0474	0.7705	-0.0453
7.05	-9.4866	-0.0917	-1.8675	0.0050	-0.0131	0.0081	31.7972	1.6850	17.3536	0.6341	0.0474	0.7705	-0.0453
7.06	-9.4787	-0.0955	-1.8724	-0.0013	-0.0135	0.0069	31.7083	1.8843	17.3668	0.6340	0.0474	0.7705	-0.0453
7.07	-9.4620	-0.1019	-1.8574	0.0004	-0.0140	0.0030	31.6859	1.6393	17.2057	0.6340	0.0474	0.7705	-0.0454
7.08	-9.4736	-0.0947	-1.8552	-0.0002	-0.0158	0.0139	31.6816	1.6456	17.2179	0.6340	0.0474	0.7705	-0.0453
7.09	-9.4843	-0.0960	-1.8506	0.0026	-0.0124	0.0134	31.7167	1.8595	17.0838	0.6340	0.0474	0.7705	-0.0453
7.1	-9.4742	-0.0809	-1.8500	-0.0018	-0.0158	0.0091	32.0005	1.5772	17.0035	0.6341	0.0474	0.7705	-0.0453
7.11	-9.4612	-0.0911	-1.8435	0.0032	-0.0080	0.0094	32.0343	1.5663	17.1693	0.6340	0.0475	0.7705	-0.0453
7.12	-9.4758	-0.0931	-1.8420	0.0041	-0.0168	0.0027	31.8907	1.5642	17.0825	0.6341	0.0475	0.7706	-0.0454
7.13	-9.4734	-0.0945	-1.8395	0.0024	-0.0210	0.0051	31.8744	1.4359	17.1138	0.6340	0.0475	0.7705	-0.0454
7.14	-9.4698	-0.1141	-1.8415	0.0043	-0.0194	0.0065	31.9735	1.5726	17.2861	0.6341	0.0475	0.7705	-0.0454
7.15	-9.4811	-0.1111	-1.8446	0.0030	-0.0151	0.0071	31.8170	1.5558	17.1018	0.6340	0.0475	0.7704	-0.0455
7.16	-9.4748	-0.1069	-1.8374	0.0055	-0.0204	0.0068	32.0021	1.4798	17.0339	0.6341	0.0475	0.7705	-0.0455
7.17	-9.4848	-0.1000	-1.8508	0.0036	-0.0216	0.0118	31.9883	1.8182	16.9004	0.6341	0.0475	0.7704	-0.0455
7.18	-9.4729	-0.1012	-1.8469	0.0039	-0.0128	0.0091	31.8426	1.7543	17.1022	0.6341	0.0476	0.7704	-0.0455
7.19	-9.4657	-0.0982	-1.8422	-0.0054	-0.0182	0.0092	31.8396	1.6069	17.4490	0.6342	0.0476	0.7705	-0.0455
7.2	-9.4688	-0.0931	-1.8437	-0.0015	-0.0172	0.0074	32.0011	1.7079	17.4981	0.6341	0.0476	0.7704	-0.0455
7.21	-9.4675	-0.1038	-1.8424	-0.0038	-0.0127	0.0027	32.3627	1.9344	17.6821	0.6342	0.0475	0.7704	-0.0455
7.22	-9.4715	-0.1099	-1.8425	0.0010	-0.0083	0.0061	32.1246	1.8492	17.5156	0.6341	0.0475	0.7704	-0.0455
7.23	-9.4740	-0.1045	-1.8475	-0.0026	-0.0045	0.0051	31.9107	1.7443	17.3633	0.6341	0.0475	0.7705	-0.0455
7.24	-9.4729	-0.1027	-1.8521	-0.0070	-0.0011	0.0012	31.6896	1.6233	17.2500	0.6340	0.0475	0.7705	-0.0455
7.25	-9.4657	-0.1059	-1.8421	-0.0063	-0.0080	0.0016	31.7192	1.7290	17.2806	0.6340	0.0475	0.7705	-0.0455
7.26	-9.4687	-0.1031	-1.8591	-0.0025	-0.0134	0.0010	31.7471	1.7968	17.1160	0.6340	0.0474	0.7705	-0.0455
7.27	-9.4707	-0.1018	-1.8479	-0.0006	-0.0054	0.0000	31.9553	1.7564	17.2531	0.6340	0.0474	0.7705	-0.0456
7.28	-9.4694	-0.0947	-1.8578	-0.0008	-0.0100	0.0030	31.7834	1.6048	17.3570	0.6340	0.0474	0.7706	-0.0456
7.29	-9.4758	-0.0958	-1.8588	0.0000	-0.0105	0.0021	31.9758	1.5612	17.0301	0.6339	0.0474	0.7705	-0.0456
7.3	-9.4683	-0.0972	-1.8530	0.0013	-0.0130	0.0027	32.0668	1.6470	17.3421	0.6340	0.0474	0.7706	-0.0456
7.31	-9.4755	-0.1081	-1.8548	0.0006	-0.0134	0.0076	31.9105	1.5817	17.3196	0.6339	0.0474	0.7706	-0.0457
7.32	-9.4756	-0.1043	-1.8566	-0.0116	-0.0138	0.0089	32.0825	1.6851	17.1674	0.6340	0.0474	0.7706	-0.0456
7.33	-9.4765	-0.1162	-1.8559	-0.0093	-0.0181	0.0044	31.9476	1.6426	17.1750	0.6340	0.0473	0.7705	-0.0456
7.34	-9.4689	-0.1158	-1.8594	-0.0064	-0.0144	0.0030	31.8928	1.6416	17.1665	0.6340	0.0473	0.7706	-0.0456
7.35	-9.4703	-0.1119	-1.8515	-0.0062	-0.0167	0.0068	31.8679	1.7028	17.3915	0.6340	0.0473	0.7706	-0.0456
7.36	-9.4705	-0.1086	-1.8615	-0.0075	-0.0168	0.0029	31.9693	1.7521	17.4722	0.6339	0.0472	0.7705	-0.0456
7.37	-9.4657	-0.1088	-1.8538	-0.0012	-0.0147	0.0138	32.0516	1.6368	17.1945	0.6340	0.0473	0.7706	-0.0456
7.38	-9.4624	-0.1014	-1.8542	-0.0130	-0.0147	0.0017	31.6880	1.6449	17.0438	0.6340	0.0472	0.7705	-0.0455
7.39	-9.4702	-0.0969	-1.8685	-0.0052	-0.0110	0.0029	31.8146	1.6873	17.3790	0.6340	0.0472	0.7706	-0.0455
7.4	-9.4677	-0.1016	-1.8645	-0.0037	-0.0147	0.0048	31.8081	1.9251	17.1351	0.6340	0.0472	0.7705	-0.0455
7.41	-9.4731	-0.1031	-1.8462	-0.0111	-0.0111	0.0082	31.8155	1.7711	17.1928	0.6340	0.0471	0.7706	-0.0455
7.42	-9.4684	-0.0959	-1.8509	-0.0017	-0.0140	0.0010	31.6371	1.6946	17.2749	0.6340	0.0471	0.7706	-0.0455
7.43	-9.4690	-0.0948	-1.8558	-0.0023	-0.0148	0.0041	31.7207	1.8279	17.2412	0.6340	0.0471	0.7705	-0.0455
7.44	-9.4780	-0.0917	-1.8597	-0.0011	-0.0062	0.0033	31.8244	1.7054	17.1643	0.6340	0.0471	0.7706	-0.0455
7.45	-9.4687	-0.0941	-1.8516	-0.0021	-0.0143	0.0090	31.8273	1.6432	17.1738	0.6340	0.0471	0.7706	-0.0455
7.46	-9.4828	-0.1046	-1.8563	-0.0039	-0.0142	0.0095	31.7388	1.8385	17.3702	0.6340	0.0471	0.7706	-0.0455
7.47	-9.4855	-0.0985	-1.8626	-0.0036	-0.0160	0.0080	31.7925	1.7263	17.2264	0.6339	0.0471	0.7705	-0.0455
7.48	-9.4728	-0.0962	-1.8510	-0.0040	-0.0162	0.0133	31.9347	1.5247	17.1931	0.6340	0.0471	0.7706	-0.0455
7.49	-9.4725	-0.0941	-1.8571	-0.0032	-0.0148	0.0109	31.6886	1.4493	17.2720	0.6340	0.0471	0.7706	-0.0455
7.5	-9.4744	-0.0871	-1.8499	0.0054	-0.0163	0.0092	31.8874	1.5793	17.2794	0.6340	0.0471	0.7705	-0.0455
7.51	-9.4727	-0.0930	-1.8415	-0.0014	-0.0174	0.0077	31.8967	1.4708	17.1278	0.6340	0.0471	0.7706	-0.0455
7.52	-9.4642	-0.1002	-1.8489	-0.0070	-0.0186	0.0066	31.6731	1.3778	17.2742	0.6340	0.0471	0.7705	-0.0455
7.53	-9.4767	-0.0990	-1.8495	-0.0010	-0.0171	0.0073	31.9806	1.6317	17.5264	0.6341	0.0471	0.7705	-0.0455
7.54	-9.4677	-0.1048	-1.8487	-0.0067	-0.0167	0.0097	31.9438	1.6769	17.2271	0.6340	0.0471	0.7704	-0.0455
7.55	-9.4741	-0.1020	-1.8456	-0.0029	-0.0169	0.0112	32.0215	1.5210	17.2708	0.6341	0.0471	0.7705	-0.0454
7.56	-9.4750	-0.1042	-1.8447	-0.0036	-0.0168	0.0103	31.9985	1.5096	17.2723	0.6341	0.0471	0.7705	-0.0454
7.57	-9.4664	-0.0959	-1.8420	-0.0108	-0.0179	0.0056	31.7803	1.9135	17.2210	0.6341	0.0471	0.7705	-0.0454
7.58	-9.4674	-0.1021	-1.8377	-0.0065	-0.0140	0.0026	31.8218	1.8048	17.3824	0.6341	0.0470	0.7705	-0.0454
7.59	-9.4675	-0.0904	-1.8468	0.0017	-0.0138	0.0041	31.8030	1.8198	17.2588	0.6341	0.0470	0.7705	-0.0454
7.6	-9.4709	-0.0796	-1.8445	-0.0109	-0.0161	0.0035	31.7977	1.7825	17.1704	0.6341	0.0470	0.7705	-0.0454
7.61	-9.4744	-0.0793	-1.8467	-0.0099	-0.0113	0.0060	31.5907	1.6221	17.3165	0.6341	0.0470	0.7704	-0.0454
7.62	-9.4743	-0.0875	-1.8478	-0.0039	-0.0169	0.0049	31.9080	1.5798	17.0918	0.6342	0.0470	0.7705	-0.0454
7.63	-9.4692	-0.0857	-1.8453	-0.0065	-0.0135	0.0018	31.9458	1.6788	17.2978	0.6341	0.0469	0.7705	-0.0454
7.64	-9.4721	-0.0958	-1.8538	-0.0061	-0.0159	0.0125	31.8751	1.8438	17.3058	0.6342	0.0469	0.7705	-0.0454
7.65	-9.4699	-0.1005	-1.8416	0.0035	-0.0165	0.0077	31.8922	1.7012	17.1364	0.6341	0.0469	0.7704	-0.0454
7.66	-9.4736	-0.0980	-1.8437	-0.0015	-0.0142	0.0077	31.8071	1.5710	17.3025	0.6342	0.0469	0.7705	-0.0454
7.67	-9.4708	-0.0973	-1.8405	-0.0071	-0.0209	0.0076	32.1242	1.4777	17.0451	0.6342	0.0469	0.7704	-0.0454
7.68	-9.4739	-0.0900	-1.8508	-0.0099	-0.0125	0.0039	32.1585	1.3750	17.2615	0.6341	0.0469	0.7704	-0.0453
7.69	-9.4671	-0.0953	-1.8572	-0.0101	-0.0154	0.0068	31.9997	1.5009	17.4601	0.6342	0.0469	0.7705	-0.0453
7.7	-9.4502	-0.0916	-1.8289	-0.0011	-0.0199	0.0053	32.1435	1.7789	17.4541	0.6342	0.0468	0.7704	-0.0453
7.71	-9.4753	-0.1002	-1.8434	-0.0046	-0.0106	0.0120	32.6102	1.5798	17.5854	0.6342	0.0469	0.7705	-0.0453
7.72	-9.4729	-0.0988	-1.8537	-0.0023	-0.0117	0.0079	32.2309	1.7536	17.3969	0.6341	0.0468	0.7704	-0.0453
7.73	-9.4717	-0.1075	-1.8506	0.0001	-0.0134	0.0063	31.9269	1.7460	17.2157	0.6342	0.0469	0.7704	-0.0453
7.74	-9.4704	-0.1198	-1.8493	0.0015	-0.0164	0.0066	31.7046	1.2458	17.1550	0.6342	0.0469	0.7704	-0.0453
7.75	-9.4720	-0.1237	-1.8634	-0.0009	-0.0092	0.0080	31.8807	1.4511	17.1245	0.6342	0.0469	0.7704	-0.0453
7.76	-9.4722	-0.1216	-1.8562	-0.0068	-0.0122	0.0066	31.7831	1.7982	17.2287	0.6342	0.0469	0.7704	-0.0453
7.77	-9.4738	-0.1224	-1.8740	-0.0078	-0.0143	0.0053	31.7913	1.6432	17.2059	0.6342	0.0468	0.7704	-0.0453
7.78	-9.4711	-0.1189	-1.8730	-0.0037	-0.0093	0.0039	31.7753	1.5671	17.2407	0.6342	0.0468	0.7705	-0.0453
7.79	-9.4747	-0.1015	-1.8744	0.0028	-0.0151	0.0052	31.8709	1.8371	17.1117	0.6341	0.0468	0.7704	-0.0453
7.8	-9.4711	-0.1005	-1.8816	0.0010	-0.0174	0.0051	31.8635	1.9213	17.2423	0.6342	0.0468	0.7705	-0.0453
7.81	-9.4642	-0.1025	-1.8733	-0.0008	-0.0181	0.0066	31.7361	1.6938	17.3210	0.6342	0.0468	0.7704	-0.0453
7.82	-9.4757	-0.0987	-1.8705	0.0026	-0.0111	0.0105	31.8946	1.6376	17.0167	0.6342	0.0468	0.7704	-0.0454
7.83	-9.4791	-0.1030	-1.8701	-0.0009	-0.0133	0.0075	31.7669	1.6538	17.1590	0.6342	0.0468	0.7704	-0.0454
7.84	-9.4711	-0.0985	-1.8649	0.0033	-0.0156	0.0116	31.8273	1.4307	17.0936	0.6342	0.0469	0.7704	-0.0454
7.85	-9.4740	-0.0978	-1.8709	-0.0060	-0.0175	0.0114	32.0634	1.7332	17.2428	0.6342	0.0469	0.7704	-0.0453
7.86	-9.4585	-0.1025	-1.8741	-0.0014	-0.0178	0.0119	31.9373	1.7343	17.0309	0.6342	0.0469	0.7703	-0.0453
7.87	-9.4711	-0.1042	-1.8702	0.0028	-0.0171	0.0101	31.9644	1.7450	17.1737	0.6343	0.0469	0.7704	-0.0453
7.88	-9.4715	-0.0992	-1.8725	-0.0010	-0.0170	0.0103	32.1959	1.5759	17.1860	0.6343	0.0469	0.7703	-0.0453
7.89	-9.4599	-0.1090	-1.8665	0.0010	-0.0128	0.0115	31.9243	1.6334	16.9458	0.6343	0.0469	0.7704	-0.0453
7.9	-9.4746	-0.1055	-1.8693	0.0032	-0.0147	0.0148	31.7359	1.6609	17.2973	0.6342	0.0470	0.7703	-0.0453
7.91	-9.4729	-0.1020	-1.8716	0.0062	-0.0149	0.0069	32.0624	1.5425	17.1289	0.6343	0.0470	0.7704	-0.0454
7.92	-9.4728	-0.1038	-1.8716	0.0038	-0.0149	0.0005	31.9426	1.7661	17.0606	0.6343	0.0470	0.7703	-0.0454
7.93	-9.4673	-0.0986	-1.8567	0.0013	-0.0174	0.0122	32.0471	1.6494	17.2236	0.6343	0.0470	0.7703	-0.0454
7.94	-9.4722	-0.0887	-1.8568	-0.0029	-0.0170	0.0043	31.8982	1.5724	17.3415	0.6344	0.0470	0.7704	-0.0454
7.95	-9.4729	-0.0879	-1.8589	0.0006	-0.0148	0.0134	31.7957	1.7984	17.2373	0.6343	0.0470	0.7703	-0.0454
7.96	-9.4727	-0.0920	-1.8620	-0.0013	-0.0156	0.0042	31.8619	1.6378	17.2713	0.6344	0.0470	0.7703	-0.0454
7.97	-9.4658	-0.0992	-1.8538	-0.0019	-0.0209	0.0035	31.6501	1.7260	17.3186	0.6343	0.0470	0.7702	-0.0454
7.98	-9.4682	-0.1012	-1.8569	0.0020	-0.0146	0.0045	31.9570	1.7508	17.1885	0.6344	0.0470	0.7703	-0.0455
7.99	-9.4720	-0.1036	-1.8542	0.0001	-0.0215	0.0085	31.9066	1.8558	17.2250	0.6344	0.0470	0.7703	-0.0455
8	-9.4745	-0.0993	-1.8474	0.0022	-0.0212	0.0049	31.7964	1.7346	17.2126	0.6344	0.0470	0.7702	-0.0455
8.01	-9.4730	-0.0928	-1.8514	-0.0019	-0.0083	0.0089	31.6906	1.6410	17.2082	0.6344	0.0470	0.7703	-0.0455
8.02	-9.4702	-0.0930	-1.8444	0.0053	-0.0169	0.0094	31.7292	1.6466	17.2375	0.6344	0.0471	0.7702	-0.0455
8.03	-9.4698	-0.0829	-1.8453	0.0048	-0.0155	0.0043	31.8572	1.8565	17.1422	0.6344	0.0471	0.7702	-0.0456
8.04	-9.4696	-0.0794	-1.8355	0.0010	-0.0167	0.0125	31.9400	1.6354	17.1356	0.6344	0.0471	0.7701	-0.0456
8.05	-9.4674	-0.0904	-1.8375	-0.0041	-0.0228	0.0104	32.0706	1.5874	17.0133	0.6345	0.0471	0.7702	-0.0455
8.06	-9.4744	-0.0885	-1.8430	-0.0027	-0.0201	0.0118	32.1318	1.6525	17.1194	0.6345	0.0471	0.7701	-0.0455
8.07	-9.4678	-0.0835	-1.8404	-0.0013	-0.0167	0.0112	32.0617	1.4902	17.0901	0.6345	0.0471	0.7702	-0.0455
8.08	-9.4729	-0.0895	-1.8458	-0.0030	-0.0181	0.0053	31.9273	1.3833	16.9392	0.6345	0.0471	0.7701	-0.0455
8.09	-9.4787	-0.0915	-1.8446	-0.0023	-0.0174	0.0085	31.8791	1.6826	17.0890	0.6345	0.0471	0.7701	-0.0455
8.1	-9.4733	-0.0879	-1.8428	-0.0047	-0.0158	0.0102	31.8233	1.7118	16.9924	0.6346	0.0471	0.7701	-0.0455
8.11	-9.4745	-0.0908	-1.8461	-0.0005	-0.0194	0.0069	31.7673	1.5456	17.2146	0.6345	0.0471	0.7700	-0.0455
8.12	-9.4774	-0.1037	-1.8566	-0.0018	-0.0139	0.0111	31.8911	1.6607	17.3343	0.6346	0.0471	0.7701	-0.0455
8.13	-9.4673	-0.1028	-1.8543	-0.0044	-0.0129	0.0085	31.7132	1.8140	17.2633	0.6346	0.0471	0.7701	-0.0455
8.14	-9.4739	-0.1014	-1.8601	-0.0037	-0.0121	0.0100	31.7139	1.7127	17.1319	0.6346	0.0471	0.7702	-0.0455
8.15	-9.4684	-0.1027	-1.8700	-0.0026	-0.0080	0.0062	31.6976	1.4432	17.1199	0.6345	0.0471	0.7701	-0.0455
8.16	-9.4726	-0.1091	-1.8616	0.0023	-0.0129	0.0075	31.9454	1.6144	17.2724	0.6345	0.0471	0.7701	-0.0455
8.17	-9.4703	-0.1173	-1.8693	-0.0011	-0.0107	0.0069	31.8922	1.5315	17.3210	0.6345	0.0471	0.7701	-0.0455
8.18	-9.4683	-0.1164	-1.8663	0.0015	-0.0155	0.0060	31.5782	1.6548	17.2955	0.6345	0.0471	0.7701	-0.0455
8.19	-9.4761	-0.1133	-1.8636	0.0007	-0.0168	0.0016	31.7504	1.6369	17.3013	0.6346	0.0471	0.7702	-0.0456
8.2	-9.4765	-0.1170	-1.8742	0.0032	-0.0131	0.0055	32.1683	1.6842	17.4710	0.6345	0.0471	0.7701	-0.0456
8.21	-9.4743	-0.1048	-1.8560	0.0021	-0.0085	0.0101	32.3789	1.7922	17.6984	0.6346	0.0472	0.7702	-0.0456
8.22	-9.4709	-0.1087	-1.8646	-0.0001	-0.0140	0.0076	32.1670	1.5779	17.5123	0.6345	0.0472	0.7701	-0.0456
8.23	-9.4725	-0.1032	-1.8743	-0.0028	-0.0121	0.0113	31.9969	1.5865	17.3520	0.6345	0.0472	0.7701	-0.0456
8.24	-9.4617	-0.0913	-1.8625	-0.0025	-0.0128	0.0079	31.8793	1.6162	17.2614	0.6345	0.0472	0.7701	-0.0456
8.25	-9.4678	-0.1021	-1.8553	-0.0051	-0.0117	0.0080	31.9647	1.5010	17.2639	0.6345	0.0472	0.7701	-0.0456
8.26	-9.4736	-0.1121	-1.8617	-0.0010	-0.0089	0.0086	31.8154	1.3876	17.1639	0.6345	0.0472	0.7701	-0.0456
8.27	-9.4729	-0.1084	-1.8465	-0.0037	-0.0116	0.0087	31.9483	1.6953	17.1591	0.6345	0.0472	0.7701	-0.0456
8.28	-9.4741	-0.0999	-1.8399	0.0009	-0.0086	0.0100	31.8036	1.7478	17.1790	0.6345	0.0472	0.7702	-0.0456
8.29	-9.4755	-0.0906	-1.8531	-0.0030	-0.0119	0.0029	31.8650	1.7615	17.0595	0.6344	0.0472	0.7701	-0.0456
8.3	-9.4674	-0.0847	-1.8615	-0.0041	-0.0127	0.0095	31.8134	1.4995	17.1984	0.6345	0.0472	0.7702	-0.0456
8.31	-9.4716	-0.0870	-1.8720	-0.0084	-0.0128	0.0058	31.5693	1.6982	17.2723	0.6345	0.0472	0.7702	-0.0455
8.32	-9.4786	-0.0918	-1.8726	-0.0031	-0.0059	0.0056	31.8227	1.6853	17.1853	0.6345	0.0471	0.7702	-0.0455
8.33	-9.4708	-0.0949	-1.8748	-0.0028	-0.0077	0.0047	31.7558	1.6494	17.0373	0.6344	0.0471	0.7702	-0.0455
8.34	-9.4686	-0.1113	-1.8594	-0.0032	-0.0019	0.0054	31.9041	1.7598	17.3712	0.6344	0.0471	0.7702	-0.0455
8.35	-9.4722	-0.1179	-1.8576	-0.0103	-0.0082	0.0048	31.7869	1.7518	17.2085	0.6344	0.0471	0.7703	-0.0455
8.36	-9.4836	-0.1232	-1.8581	-0.0074	-0.0082	0.0070	31.7669	1.6473	17.1271	0.6343	0.0471	0.7702	-0.0455
8.37	-9.4736	-0.1212	-1.8649	-0.0037	-0.0047	0.0058	31.8797	1.6852	17.3822	0.6343	0.0471	0.7703	-0.0455
8.38	-9.4620	-0.1178	-1.8627	-0.0005	-0.0010	0.0061	31.6942	1.8549	17.1597	0.6343	0.0471	0.7703	-0.0455
8.39	-9.4727	-0.1116	-1.8559	-0.0058	-0.0103	0.0109	31.7377	1.6023	17.1517	0.6343	0.0471	0.7704	-0.0455
8.4	-9.4708	-0.0930	-1.8516	-0.0042	-0.0132	0.0081	31.4925	1.7859	17.2466	0.6342	0.0471	0.7703	-0.0455
8.41	-9.4689	-0.0926	-1.8428	-0.0085	-0.0161	0.0031	31.7055	1.4481	17.2435	0.6343	0.0470	0.7704	-0.0455
8.42	-9.4715	-0.0878	-1.8438	-0.0024	-0.0149	0.0095	31.9481	1.6298	17.1096	0.6343	0.0470	0.7703	-0.0454
8.43	-9.4718	-0.0876	-1.8468	-0.0001	-0.0112	0.0104	31.9984	1.6110	17.2871	0.6342	0.0470	0.7703	-0.0454
8.44	-9.4697	-0.0859	-1.8400	-0.0050	-0.0133	0.0046	32.0361	1.3870	17.2163	0.6343	0.0470	0.7704	-0.0454
8.45	-9.4638	-0.0921	-1.8386	-0.0007	-0.0084	0.0060	31.9923	1.6679	17.3563	0.6342	0.0470	0.7703	-0.0455
8.46	-9.4713	-0.0892	-1.8419	-0.0030	-0.0099	0.0125	31.6480	1.6568	17.3994	0.6343	0.0470	0.7704	-0.0454
8.47	-9.4733	-0.0853	-1.8452	-0.0082	-0.0116	0.0112	31.8926	1.6450	17.2261	0.6342	0.0470	0.7703	-0.0454
8.48	-9.4704	-0.0830	-1.8411	0.0021	-0.0097	0.0060	31.8988	1.5930	17.2508	0.6342	0.0470	0.7704	-0.0454
8.49	-9.4676	-0.0855	-1.8515	-0.0053	-0.0159	0.0063	31.7576	1.6603	17.1178	0.6342	0.0470	0.7704	-0.0454
8.5	-9.4780	-0.0891	-1.8533	-0.0024	-0.0133	0.0081	31.7160	1.7209	17.2349	0.6342	0.0470	0.7704	-0.0454
8.51	-9.4694	-0.0834	-1.8536	-0.0034	-0.0100	0.0060	31.6892	1.8230	17.3623	0.6342	0.0470	0.7704	-0.0454
8.52	-9.4715	-0.0869	-1.8527	-0.0089	-0.0093	-0.0031	31.9190	1.7338	17.0251	0.6342	0.0470	0.7704	-0.0454
8.53	-9.4819	-0.0995	-1.8567	-0.0030	0.0000	-0.0007	31.8242	1.6922	17.2349	0.6342	0.0469	0.7705	-0.0454
8.54	-9.4723	-0.1041	-1.8470	-0.0114	-0.0126	0.0018	31.8862	1.6374	17.1679	0.6341	0.0469	0.7704	-0.0454
8.55	-9.4784	-0.1082	-1.8563	-0.0088	-0.0177	0.0051	31.8282	1.7693	17.0769	0.6342	0.0468	0.7705	-0.0454
8.56	-9.4771	-0.1111	-1.8578	-0.0106	-0.0108	-0.0003	31.6324	1.7205	17.1525	0.6342	0.0468	0.7704	-0.0454
8.57	-9.4676	-0.1064	-1.8569	-0.0080	-0.0122	-0.0015	31.8470	1.7589	17.0172	0.6342	0.0467	0.7705	-0.0454
8.58	-9.4692	-0.1029	-1.8575	-0.0035	-0.0189	0.0017	31.9562	1.6455	17.2086	0.6342	0.0467	0.7704	-0.0454
8.59	-9.4791	-0.0975	-1.8557	-0.0043	-0.0154	0.0056	31.9254	1.7855	17.1199	0.6342	0.0467	0.7704	-0.0454
8.6	-9.4847	-0.1016	-1.8536	-0.0084	-0.0148	0.0054	31.9755	1.6754	17.2619	0.6342	0.0467	0.7704	-0.0454
8.61	-9.4802	-0.1089	-1.8591	-0.0042	-0.0155	0.0066	32.1056	1.6559	17.4972	0.6341	0.0466	0.7704	-0.0454
8.62	-9.4733	-0.1116	-1.8546	-0.0035	-0.0193	0.0012	32.0912	1.6712	17.0538	0.6343	0.0466	0.7705	-0.0454
8.63	-9.4769	-0.1150	-1.8665	-0.0041	-0.0145	0.0043	31.8511	1.5043	17.1799	0.6342	0.0466	0.7704	-0.0454
8.64	-9.4773	-0.1107	-1.8701	-0.0056	-0.0122	0.0076	31.8823	1.5288	17.2788	0.6343	0.0466	0.7705	-0.0454
8.65	-9.4696	-0.1038	-1.8639	-0.0030	-0.0173	0.0076	31.7520	1.7012	17.2497	0.6342	0.0466	0.7704	-0.0454
8.66	-9.4781	-0.0971	-1.8720	-0.0048	-0.0159	0.0053	31.8102	1.5974	17.2200	0.6343	0.0466	0.7704	-0.0454
8.67	-9.4767	-0.0864	-1.8585	-0.0107	-0.0192	0.0094	31.8731	1.6233	17.1640	0.6343	0.0465	0.7704	-0.0454
8.68	-9.4661	-0.0919	-1.8525	-0.0012	-0.0150	0.0025	31.8657	1.6687	17.0821	0.6342	0.0465	0.7703	-0.0454
8.69	-9.4724	-0.0892	-1.8685	-0.0058	-0.0096	0.0059	31.7578	1.6630	17.0777	0.6343	0.0465	0.7704	-0.0454
8.7	-9.4752	-0.0817	-1.8661	-0.0146	-0.0123	0.0059	31.9557	1.7609	17.3315	0.6343	0.0465	0.7704	-0.0453
8.71	-9.4717	-0.0894	-1.8710	-0.0057	-0.0163	0.0055	32.2311	1.7597	17.3622	0.6343	0.0464	0.7704	-0.0453
8.72	-9.4683	-0.0875	-1.8658	-0.0011	-0.0154	0.0046	32.0331	1.6176	17.2257	0.6342	0.0464	0.7703	-0.0453
8.73	-9.4740	-0.0849	-1.8676	-0.0039	-0.0140	0.0059	31.9009	1.7897	17.1581	0.6343	0.0464	0.7704	-0.0453
8.74	-9.4697	-0.0834	-1.8619	0.0019	-0.0170	0.0012	31.6119	1.6830	17.1519	0.6343	0.0464	0.7704	-0.0454
8.75	-9.4645	-0.0821	-1.8586	-0.0060	-0.0166	0.0069	31.9099	1.6124	17.1778	0.6343	0.0464	0.7703	-0.0454
8.76	-9.4686	-0.0897	-1.8600	-0.0024	-0.0167	0.0084	31.7723	1.6681	17.3619	0.6343	0.0464	0.7703	-0.0453
8.77	-9.4779	-0.0908	-1.8498	-0.0017	-0.0146	0.0112	31.7633	1.4782	17.2328	0.6343	0.0464	0.7703	-0.0453
8.78	-9.4760	-0.0956	-1.8476	-0.0046	-0.0171	0.0117	32.1644	1.7464	17.0853	0.6344	0.0464	0.7703	-0.0453
8.79	-9.4731	-0.0980	-1.8522	-0.0012	-0.0136	0.0127	32.1083	1.9358	17.2472	0.6343	0.0464	0.7702	-0.0453
8.8	-9.4747	-0.0993	-1.8446	-0.0024	-0.0198	0.0088	32.0499	1.7627	17.0918	0.6344	0.0464	0.7703	-0.0453
8.81	-9.4710	-0.1072	-1.8462	-0.0000	-0.0164	0.0100	31.8906	1.7194	17.1910	0.6344	0.0465	0.7703	-0.0453
8.82	-9.4708	-0.0970	-1.8475	-0.0026	-0.0212	0.0103	31.9358	1.7213	17.2417	0.6344	0.0465	0.7703	-0.0453
8.83	-9.4710	-0.1009	-1.8487	-0.0039	-0.0147	0.0113	32.0810	1.8180	17.1223	0.6344	0.0465	0.7702	-0.0453
8.84	-9.4686	-0.1039	-1.8478	-0.0039	-0.0161	0.0038	31.9062	1.6942	17.1300	0.6344	0.0465	0.7702	-0.0453
8.85	-9.4651	-0.0964	-1.8468	-0.0036	-0.0172	0.0102	32.0863	1.5800	16.9580	0.6345	0.0465	0.7702	-0.0453
8.86	-9.4691	-0.1043	-1.8474	0.0059	-0.0109	0.0095	31.8917	1.5473	17.0301	0.6344	0.0465	0.7702	-0.0453
8.87	-9.4840	-0.1104	-1.8527	0.0014	-0.0125	0.0061	31.8038	1.6630	17.1753	0.6345	0.0465	0.7703	-0.0453
8.88	-9.4734	-0.1106	-1.8584	-0.0109	-0.0131	0.0043	32.1983	1.6374	17.0787	0.6345	0.0465	0.7702	-0.0453
8.89	-9.4648	-0.1124	-1.8590	-0.0050	-0.0148	0.0031	31.9936	1.6579	17.0770	0.6345	0.0464	0.7703	-0.0453
8.9	-9.4673	-0.1029	-1.8567	-0.0033	-0.0175	0.0074	31.8775	1.6293	17.3511	0.6344	0.0464	0.7702	-0.0453
8.91	-9.4703	-0.0965	-1.8594	-0.0069	-0.0193	0.0081	31.7679	1.5538	17.2734	0.6345	0.0464	0.7702	-0.0453
8.92	-9.4695	-0.0932	-1.8501	-0.0078	-0.0066	0.0053	31.7291	1.5236	17.0098	0.6345	0.0464	0.7702	-0.0453
8.93	-9.4764	-0.0865	-1.8582	-0.0036	-0.0102	0.0065	32.0014	1.4225	17.2089	0.6344	0.0464	0.7702	-0.0452
8.94	-9.4826	-0.0890	-1.8603	-0.0045	-0.0066	0.0041	31.8482	1.8103	17.3400	0.6345	0.0464	0.7703	-0.0453
8.95	-9.4681	-0.1031	-1.8441	0.0005	-0.0058	0.0094	31.6820	1.6121	17.4070	0.6344	0.0464	0.7703	-0.0453
8.96	-9.4665	-0.1164	-1.8645	-0.0041	-0.0133	0.0063	31.7601	1.5756	17.1169	0.6345	0.0464	0.7703	-0.0453
8.97	-9.4746	-0.1191	-1.8582	-0.0079	-0.0178	0.0093	31.6964	1.7607	16.8787	0.6344	0.0463	0.7702	-0.0452
8.98	-9.4735	-0.1257	-1.8655	0.0036	-0.0158	0.0109	31.9839	1.6951	17.2782	0.6345	0.0464	0.7703	-0.0452
8.99	-9.4705	-0.1096	-1.8663	0.0003	-0.0148	0.0111	32.0367	1.6100	17.2244	0.6345	0.0464	0.7702	-0.0452
9	-9.4737	-0.1019	-1.8550	0.0005	-0.0132	0.0088	31.8769	1.4630	17.0960	0.6344	0.0464	0.7702	-0.0452
9.01	-9.4774	-0.1011	-1.8587	-0.0003	-0.0154	0.0094	31.8933	1.4954	17.2528	0.6345	0.0464	0.7702	-0.0452
9.02	-9.4698	-0.0943	-1.8519	-0.0035	-0.0115	0.0075	31.7773	1.5637	17.0890	0.6345	0.0464	0.7702	-0.0452
9.03	-9.4738	-0.0990	-1.8607	0.0030	-0.0138	0.0093	32.0626	1.6012	16.9696	0.6345	0.0464	0.7703	-0.0453
9.04	-9.4709	-0.0937	-1.8607	-0.0017	-0.0208	0.0065	31.9733	1.7529	17.0245	0.6344	0.0464	0.7701	-0.0453
9.05	-9.4796	-0.0954	-1.8560	-0.0003	-0.0174	0.0109	31.9670	1.6104	17.2788	0.6345	0.0465	0.7702	-0.0453
9.06	-9.4777	-0.1017	-1.8657	-0.0022	-0.0154	0.0135	31.8069	1.6741	17.3316	0.6345	0.0465	0.7702	-0.0452
9.07	-9.4710	-0.0924	-1.8565	-0.0031	-0.0174	0.0065	31.8651	1.5517	17.2377	0.6346	0.0465	0.7702	-0.0452
9.08	-9.4711	-0.1042	-1.8543	-0.0011	-0.0138	0.0075	31.9123	1.6520	17.1347	0.6345	0.0465	0.7701	-0.0452
9.09	-9.4712	-0.0980	-1.8528	-0.0020	-0.0140	0.0087	31.7527	1.6330	17.1021	0.6345	0.0465	0.7702	-0.0452
9.1	-9.4713	-0.0917	-1.8504	-0.0074	-0.0192	0.0093	31.9084	1.6613	17.0433	0.6346	0.0465	0.7702	-0.0452
9.11	-9.4776	-0.0949	-1.8581	-0.0078	-0.0137	0.0062	31.7926	1.5563	17.3491	0.6345	0.0464	0.7701	-0.0452
9.12	-9.4715	-0.0915	-1.8522	-0.0085	-0.0165	0.0056	31.8314	1.5607	17.1802	0.6346	0.0464	0.7702	-0.0452
9.13	-9.4751	-0.0876	-1.8614	-0.0071	-0.0099	0.0109	31.8894	1.5591	17.1313	0.6346	0.0464	0.7701	-0.0452
9.14	-9.4855	-0.0900	-1.8585	0.0018	-0.0124	0.0132	31.7208	1.8052	17.1177	0.6346	0.0465	0.7702	-0.0452
9.15	-9.4747	-0.1000	-1.8402	-0.0030	-0.0179	0.0097	31.7161	1.7941	17.2204	0.6346	0.0465	0.7701	-0.0451
9.16	-9.4710	-0.0898	-1.8415	-0.0021	-0.0193	0.0077	31.9690	1.7328	17.2162	0.6346	0.0465	0.7701	-0.0451
9.17	-9.4730	-0.0810	-1.8348	-0.0056	-0.0163	0.0101	32.0684	1.6540	17.2415	0.6347	0.0465	0.7701	-0.0451
9.18	-9.4751	-0.0867	-1.8435	-0.0060	-0.0222	0.0047	31.7658	1.4324	17.1398	0.6346	0.0464	0.7700	-0.0451
9.19	-9.4721	-0.0865	-1.8486	0.0026	-0.0220	0.0110	31.9342	1.5947	17.2279	0.6348	0.0465	0.7701	-0.0451
9.2	-9.4725	-0.0831	-1.8489	-0.0019	-0.0096	0.0084	32.2076	1.8100	17.3658	0.6347	0.0465	0.7700	-0.0451
9.21	-9.4759	-0.0912	-1.8668	-0.0052	-0.0140	0.0080	32.2184	1.7708	17.2368	0.6347	0.0465	0.7701	-0.0451
9.22	-9.4755	-0.0955	-1.8478	-0.0033	-0.0139	0.0028	32.0848	1.6656	17.5633	0.6347	0.0464	0.7700	-0.0451
9.23	-9.4723	-0.1028	-1.8558	-0.0052	-0.0135	0.0036	31.9399	1.5586	17.4367	0.6347	0.0464	0.7700	-0.0451
9.24	-9.4780	-0.1074	-1.8473	0.0002	-0.0174	0.0089	31.9859	1.5197	17.1263	0.6347	0.0464	0.7700	-0.0451
9.25	-9.4742	-0.1153	-1.8551	-0.0016	-0.0061	0.0037	31.6029	1.7369	17.3602	0.6347	0.0464	0.7700	-0.0451
9.26	-9.4694	-0.1277	-1.8569	-0.0043	-0.0150	0.0020	31.5374	1.8280	17.1987	0.6347	0.0464	0.7700	-0.0452
9.27	-9.4743	-0.1306	-1.8632	-0.0038	-0.0163	0.0080	31.8289	1.6050	17.3549	0.6347	0.0464	0.7700	-0.0451
9.28	-9.4742	-0.1257	-1.8712	0.0024	-0.0086	0.0068	31.7351	1.9279	17.0960	0.6347	0.0464	0.7701	-0.0452
9.29	-9.4617	-0.1227	-1.8706	-0.0024	-0.0041	0.0075	31.8393	1.8294	17.2443	0.6346	0.0464	0.7700	-0.0452
9.3	-9.4773	-0.1065	-1.8563	-0.0098	-0.0129	0.0071	31.9715	1.7351	17.3224	0.6347	0.0464	0.7701	-0.0451
9.31	-9.4734	-0.0905	-1.8558	0.0023	-0.0172	0.0065	31.8308	1.8924	17.1796	0.6347	0.0464	0.7700	-0.0452
9.32	-9.4651	-0.0869	-1.8513	-0.0083	-0.0053	0.0049	31.7336	1.7093	17.3203	0.6347	0.0463	0.7701	-0.0451
9.33	-9.4711	-0.0914	-1.8587	-0.0065	-0.0094	0.0080	31.8576	1.8758	17.3135	0.6346	0.0463	0.7701	-0.0451
9.34	-9.4716	-0.0951	-1.8483	-0.0014	-0.0115	0.0059	31.6280	1.7481	17.3157	0.6346	0.0463	0.7701	-0.0451
9.35	-9.4695	-0.0964	-1.8498	-0.0064	-0.0135	0.0109	31.7416	1.6479	17.3165	0.6347	0.0463	0.7701	-0.0451
9.36	-9.4649	-0.1033	-1.8696	-0.0053	-0.0055	0.0090	31.8410	1.5919	17.3268	0.6346	0.0463	0.7700	-0.0451
9.37	-9.4715	-0.1033	-1.8736	-0.0042	-0.0031	0.0056	32.0272	1.5918	17.3194	0.6346	0.0463	0.7702	-0.0451
9.38	-9.4682	-0.1027	-1.8738	0.0004	-0.0038	0.0093	31.8745	1.5443	17.3422	0.6346	0.0463	0.7702	-0.0451
9.39	-9.4683	-0.1043	-1.8672	0.0014	-0.0070	0.0096	31.7748	1.4900	17.2672	0.6346	0.0464	0.7702	-0.0451
9.4	-9.4719	-0.0979	-1.8672	-0.0008	-0.0105	0.0058	31.7731	1.4136	17.1245	0.6345	0.0463	0.7701	-0.0451
9.41	-9.4659	-0.0868	-1.8670	-0.0009	-0.0096	0.0093	31.7461	1.5350	17.4065	0.6345	0.0464	0.7702	-0.0451
9.42	-9.4773	-0.0872	-1.8598	0.0019	-0.0092	0.0120	31.8176	1.5983	17.3772	0.6345	0.0464	0.7702	-0.0451
9.43	-9.4725	-0.0895	-1.8509	-0.0003	-0.0111	0.0119	31.8548	1.5743	17.2176	0.6345	0.0464	0.7702	-0.0451
9.44	-9.4713	-0.0975	-1.8547	-0.0052	-0.0104	0.0005	31.8541	1.5851	17.2495	0.6345	0.0464	0.7703	-0.0451
9.45	-9.4776	-0.0992	-1.8666	-0.0022	-0.0081	0.0040	31.8122	1.5883	17.4921	0.6345	0.0464	0.7702	-0.0451
9.46	-9.4682	-0.0931	-1.8557	-0.0095	-0.0116	0.0034	31.7387	1.7678	17.2474	0.6345	0.0463	0.7703	-0.0451
9.47	-9.4627	-0.0885	-1.8498	-0.0054	-0.0079	0.0030	31.7901	1.6487	17.2151	0.6344	0.0463	0.7702	-0.0451
9.48	-9.4717	-0.0858	-1.8541	-0.0092	-0.0008	0.0000	31.7328	1.6806	17.3542	0.6344	0.0463	0.7703	-0.0451
9.49	-9.4645	-0.0891	-1.8530	-0.0121	-0.0094	0.0036	31.8260	1.7815	17.2825	0.6344	0.0462	0.7703	-0.0451
9.5	-9.4660	-0.0935	-1.8487	-0.0057	-0.0057	0.0006	31.8476	1.6693	17.4119	0.6343	0.0462	0.7703	-0.0451
9.51	-9.4725	-0.1012	-1.8473	-0.0044	-0.0036	0.0058	31.7649	1.6447	17.4011	0.6343	0.0462	0.7704	-0.0451
9.52	-9.4761	-0.1078	-1.8533	-0.0022	-0.0147	0.0054	31.9688	1.8301	17.4230	0.6343	0.0462	0.7704	-0.0451
9.53	-9.4680	-0.1093	-1.8562	-0.0018	-0.0083	0.0100	31.8937	1.7539	17.3475	0.6343	0.0462	0.7704	-0.0451
9.54	-9.4734	-0.1041	-1.8473	-0.0030	-0.0096	0.0017	31.9997	1.4523	17.3036	0.6342	0.0461	0.7703	-0.0451
9.55	-9.4809	-0.1030	-1.8462	-0.0004	-0.0061	0.0063	32.2171	1.7478	17.4596	0.6343	0.0461	0.7704	-0.0451
9.56	-9.4715	-0.0913	-1.8417	-0.0048	-0.0090	0.0100	31.9269	1.7215	17.3455	0.6343	0.0461	0.7704	-0.0451
9.57	-9.4716	-0.0939	-1.8453	0.0004	-0.0111	-0.0003	31.7938	1.5777	17.3144	0.6343	0.0461	0.7705	-0.0451
9.58	-9.4657	-0.0840	-1.8545	0.0064	-0.0030	0.0115	31.9660	1.5812	17.3313	0.6342	0.0462	0.7704	-0.0451
9.59	-9.4722	-0.0893	-1.8484	-0.0020	-0.0081	0.0057	31.8855	1.5947	17.1972	0.6342	0.0462	0.7705	-0.0451
9.6	-9.4713	-0.0883	-1.8434	-0.0004	-0.0163	0.0051	31.8330	1.7424	17.2950	0.6342	0.0462	0.7705	-0.0451
9.61	-9.4745	-0.0990	-1.8568	0.0021	-0.0119	0.0117	31.8528	1.7486	17.3446	0.6342	0.0462	0.7704	-0.0451
9.62	-9.4737	-0.1030	-1.8500	0.0021	-0.0103	0.0028	31.7481	1.7465	17.1820	0.6342	0.0462	0.7705	-0.0452
9.63	-9.4703	-0.0935	-1.8457	-0.0065	-0.0129	-0.0002	31.7834	1.7339	17.3046	0.6342	0.0461	0.7705	-0.0452
9.64	-9.4731	-0.0936	-1.8519	-0.0072	-0.0097	0.0094	31.7106	1.5515	17.2632	0.6342	0.0461	0.7705	-0.0452
9.65	-9.4663	-0.0827	-1.8452	-0.0046	-0.0123	0.0032	31.6507	1.6879	17.2126	0.6341	0.0461	0.7704	-0.0452
9.66	-9.4675	-0.0852	-1.8445	-0.0100	-0.0125	0.0083	31.9556	1.6271	17.2438	0.6342	0.0461	0.7705	-0.0451
9.67	-9.4776	-0.0899	-1.8515	-0.0083	-0.0072	0.0068	31.8160	1.7729	17.2316	0.6342	0.0461	0.7705	-0.0451
9.68	-9.4728	-0.0952	-1.8594	-0.0039	-0.0051	0.0027	31.7496	1.8626	17.2037	0.6341	0.0460	0.7705	-0.0451
9.69	-9.4618	-0.1032	-1.8520	-0.0065	-0.0071	0.0020	31.7531	1.7138	17.4475	0.6342	0.0460	0.7706	-0.0451
9.7	-9.4651	-0.1085	-1.8582	-0.0037	-0.0016	0.0008	31.9400	1.7781	17.5090	0.6341	0.0460	0.7706	-0.0451
9.71	-9.4732	-0.1127	-1.8542	0.0027	-0.0118	0.0093	32.1968	2.1284	17.7020	0.6341	0.0460	0.7706	-0.0451
9.72	-9.4730	-0.1242	-1.8528	0.0007	-0.0120	0.0123	32.0659	1.8584	17.4821	0.6340	0.0460	0.7705	-0.0451
9.73	-9.4733	-0.1284	-1.8611	-0.0011	-0.0081	0.0145	31.9944	1.6373	17.2659	0.6341	0.0461	0.7706	-0.0451
9.74	-9.4689	-0.1285	-1.8537	-0.0024	-0.0132	0.0126	31.9712	1.6789	17.2907	0.6340	0.0461	0.7706	-0.0451
9.75	-9.4672	-0.1157	-1.8575	0.0029	-0.0154	0.0169	31.9623	1.6422	17.2407	0.6340	0.0461	0.7706	-0.0451
9.76	-9.4651	-0.1120	-1.8605	0.0009	-0.0130	0.0126	31.9566	1.5512	17.2435	0.6341	0.0462	0.7706	-0.0451
9.77	-9.4621	-0.1074	-1.8762	0.0027	-0.0086	0.0136	31.8043	1.4687	17.4233	0.6340	0.0462	0.7706	-0.0451
9.78	-9.4778	-0.1021	-1.8658	-0.0002	-0.0119	0.0118	32.0098	1.6581	17.3315	0.6341	0.0462	0.7706	-0.0451
9.79	-9.4729	-0.0926	-1.8731	0.0013	-0.0134	0.0107	31.9777	1.6431	17.1205	0.6340	0.0462	0.7705	-0.0451
9.8	-9.4656	-0.0918	-1.8684	0.0045	-0.0108	0.0078	31.7347	1.6434	17.1883	0.6341	0.0463	0.7706	-0.0451
9.81	-9.4720	-0.0984	-1.8827	-0.0018	-0.0163	0.0095	31.9993	1.6489	17.1290	0.6340	0.0463	0.7706	-0.0451
9.82	-9.4715	-0.0991	-1.8709	0.0039	-0.0116	0.0093	32.0464	1.6465	17.2544	0.6341	0.0463	0.7706	-0.0451
9.83	-9.4700	-0.0944	-1.8654	0.0009	-0.0105	0.0052	32.0215	1.6502	17.2436	0.6340	0.0463	0.7706	-0.0451
9.84	-9.4758	-0.1002	-1.8714	0.0018	-0.0140	0.0094	31.8082	1.7543	17.2667	0.6340	0.0463	0.7706	-0.0452
9.85	-9.4756	-0.0958	-1.8779	-0.0061	-0.0165	0.0108	31.7755	1.6857	17.3730	0.6341	0.0463	0.7706	-0.0451
9.86	-9.4661	-0.0981	-1.8592	-0.0014	-0.0143	0.0106	31.7937	1.4877	17.2463	0.6340	0.0463	0.7705	-0.0451
9.87	-9.4660	-0.1037	-1.8691	0.0023	-0.0140	0.0069	31.8749	1.3586	17.1512	0.6341	0.0464	0.7706	-0.0451
9.88	-9.4692	-0.0877	-1.8633	-0.0020	-0.0113	0.0068	31.8866	1.7402	17.3399	0.6340	0.0463	0.7706	-0.0451
9.89	-9.4736	-0.0962	-1.8586	0.0010	-0.0085	0.0099	31.7912	1.5912	17.5017	0.6341	0.0464	0.7707	-0.0452
9.9	-9.4729	-0.1105	-1.8519	0.0019	-0.0187	0.0107	31.7924	1.5425	17.1181	0.6340	0.0464	0.7705	-0.0452
9.91	-9.4747	-0.1040	-1.8530	0.0056	-0.0123	0.0109	31.8905	1.7829	16.8435	0.6341	0.0464	0.7706	-0.0452
9.92	-9.4696	-0.1039	-1.8590	0.0005	-0.0077	0.0076	31.7302	1.5200	17.1152	0.6340	0.0464	0.7706	-0.0452
9.93	-9.4629	-0.0858	-1.8430	-0.0071	-0.0185	0.0075	31.9563	1.6571	16.9621	0.6340	0.0464	0.7705	-0.0452
9.94	-9.4668	-0.0844	-1.8488	0.0090	-0.0088	0.0102	32.0528	1.7294	17.1128	0.6341	0.0465	0.7706	-0.0452
9.95	-9.4717	-0.0931	-1.8518	0.0025	-0.0120	0.0089	31.8805	1.4913	17.3006	0.6340	0.0465	0.7706	-0.0452
9.96	-9.4755	-0.0950	-1.8409	-0.0036	-0.0173	0.0081	31.9017	1.6701	17.2086	0.6341	0.0465	0.7706	-0.0452
9.97	-9.4698	-0.1025	-1.8490	0.0049	-0.0173	0.0116	32.0688	1.5398	17.3743	0.6340	0.0465	0.7705	-0.0452
9.98	-9.4704	-0.1021	-1.8583	0.0026	-0.0129	0.0106	31.8743	1.8077	17.1841	0.6341	0.0466	0.7706	-0.0452
9.99	-9.4735	-0.1102	-1.8541	-0.0033	-0.0145	0.0122	31.9339	1.7617	17.1807	0.6341	0.0466	0.7705	-0.0452
10	-9.4700	-0.1104	-1.8471	-0.0042	-0.0117	0.0070	31.8830	1.7243	17.3486	0.6341	0.0466	0.7705	-0.0452
10.01	-9.4662	-0.1067	-1.8435	0.0020	-0.0127	0.0079	31.8633	1.6339	17.3315	0.6341	0.0466	0.7706	-0.0452
10.02	-9.4737	-0.0988	-1.8532	0.0008	-0.0166	0.0062	31.9712	1.5480	17.2123	0.6341	0.0466	0.7705	-0.0452
10.03	-9.4706	-0.0857	-1.8560	0.0023	-0.0179	0.0031	31.7637	1.7496	17.3274	0.6341	0.0466	0.7705	-0.0453
10.04	-9.4714	-0.0885	-1.8516	-0.0046	-0.0133	0.0024	31.8101	1.6955	17.2603	0.6341	0.0466	0.7704	-0.0453
10.05	-9.4685	-0.0925	-1.8499	-0.0034	-0.0111	0.0068	31.7547	1.7741	17.2175	0.6341	0.0466	0.7705	-0.0453
10.06	-9.4727	-0.0902	-1.8505	-0.0110	-0.0155	0.0051	31.7140	1.7554	17.4555	0.6341	0.0465	0.7705	-0.0453
10.07	-9.4688	-0.0845	-1.8421	-0.0038	-0.0060	0.0060	31.8733	1.5135	17.5175	0.6341	0.0465	0.7705	-0.0452
10.08	-9.4710	-0.0868	-1.8469	-0.0013	-0.0187	0.0101	31.8783	1.6857	16.9926	0.6341	0.0465	0.7705	-0.0452
10.09	-9.4721	-0.0949	-1.8424	-0.0025	-0.0168	0.0119	31.7465	1.4833	17.1471	0.6341	0.0465	0.7705	-0.0452
10.1	-9.4856	-0.0956	-1.8548	-0.0014	-0.0123	0.0075	31.8903	1.5197	17.3204	0.6341	0.0465	0.7705	-0.0452
10.11	-9.4658	-0.0886	-1.8608	-0.0035	-0.0187	0.0080	32.0541	1.6581	17.0683	0.6341	0.0465	0.7704	-0.0452
10.12	-9.4638	-0.0966	-1.8560	0.0006	-0.0118	0.0078	32.0264	1.6546	16.9688	0.6342	0.0465	0.7705	-0.0452
10.13	-9.4641	-0.1095	-1.8717	0.0000	-0.0134	0.0087	32.1763	1.6244	17.4747	0.6341	0.0466	0.7705	-0.0452
10.14	-9.4687	-0.1182	-1.8733	-0.0018	-0.0090	0.0133	32.1568	1.5218	17.4882	0.6342	0.0466	0.7706	-0.0452
10.15	-9.4751	-0.1131	-1.8571	0.0008	-0.0102	0.0093	31.9079	1.6844	17.3006	0.6341	0.0466	0.7705	-0.0452
10.16	-9.4747	-0.1109	-1.8577	-0.0082	-0.0169	0.0084	31.9838	1.7067	17.3595	0.6341	0.0466	0.7705	-0.0452
10.17	-9.4792	-0.1224	-1.8634	-0.0041	-0.0173	0.0103	32.0435	1.6348	17.1261	0.6342	0.0466	0.7705	-0.0452
10.18	-9.4699	-0.1201	-1.8688	-0.0038	-0.0196	0.0118	32.0331	1.6461	17.3288	0.6341	0.0466	0.7704	-0.0452
10.19	-9.4692	-0.1194	-1.8708	-0.0042	-0.0182	0.0093	31.9209	1.6590	17.4373	0.6343	0.0466	0.7705	-0.0452
10.2	-9.4715	-0.1180	-1.8840	-0.0071	-0.0194	0.0077	32.1091	1.8758	17.4390	0.6342	0.0466	0.7704	-0.0451
10.21	-9.4680	-0.1173	-1.8773	-0.0034	-0.0142	0.0071	32.0337	1.7264	17.5655	0.6343	0.0466	0.7705	-0.0451
10.22	-9.4839	-0.1085	-1.8709	-0.0052	-0.0095	0.0050	32.0190	1.7799	17.3685	0.6342	0.0466	0.7704	-0.0451
10.23	-9.4829	-0.1055	-1.8743	-0.0035	-0.0128	0.0083	31.9247	2.0005	17.2358	0.6342	0.0466	0.7704	-0.0451
10.24	-9.4724	-0.1054	-1.8619	-0.0043	-0.0144	-0.0001	31.7156	1.7823	16.9629	0.6342	0.0465	0.7704	-0.0451
10.25	-9.4743	-0.1032	-1.8581	-0.0045	-0.0142	0.0012	31.7269	1.6907	17.1058	0.6342	0.0465	0.7704	-0.0452
10.26	-9.4631	-0.0925	-1.8539	-0.0049	-0.0154	0.0013	31.6166	1.8142	17.3608	0.6343	0.0465	0.7704	-0.0452
10.27	-9.4682	-0.0931	-1.8416	-0.0063	-0.0081	0.0137	31.7128	1.7009	17.1695	0.6342	0.0465	0.7704	-0.0451
10.28	-9.4709	-0.0977	-1.8449	-0.0051	-0.0102	0.0088	31.9283	1.6981	17.3356	0.6342	0.0465	0.7705	-0.0451
10.29	-9.4705	-0.0885	-1.8405	-0.0037	-0.0156	0.0049	31.9123	1.5405	17.3081	0.6342	0.0465	0.7704	-0.0451
10.3	-9.4785	-0.0919	-1.8410	-0.0016	-0.0138	0.0101	32.1039	1.4756	17.4827	0.6343	0.0465	0.7704	-0.0451
10.31	-9.4713	-0.0867	-1.8386	-0.0006	-0.0146	0.0018	31.9656	1.4843	17.1517	0.6342	0.0465	0.7704	-0.0451
10.32	-9.4855	-0.0841	-1.8409	-0.0012	-0.0103	0.0101	31.6291	1.4589	17.0381	0.6343	0.0465	0.7704	-0.0451
10.33	-9.4749	-0.0882	-1.8489	-0.0003	-0.0108	0.0048	31.9054	1.5804	17.0672	0.6342	0.0465	0.7704	-0.0451
10.34	-9.4677	-0.0871	-1.8447	-0.0062	-0.0166	0.0068	31.9759	1.4211	17.2292	0.6342	0.0465	0.7704	-0.0451
10.35	-9.4705	-0.0868	-1.8412	-0.0088	-0.0166	0.0104	31.8405	1.4107	17.1901	0.6343	0.0464	0.7704	-0.0451
10.36	-9.4708	-0.0872	-1.8520	-0.0050	-0.0115	0.0040	31.7371	1.6459	17.2000	0.6342	0.0464	0.7704	-0.0451
10.37	-9.4747	-0.0936	-1.8503	-0.0066	-0.0127	0.0012	31.9957	1.7473	17.3711	0.6343	0.0464	0.7705	-0.0451
10.38	-9.4674	-0.0834	-1.8438	-0.0100	-0.0043	0.0005	31.8914	1.6984	17.2838	0.6342	0.0463	0.7704	-0.0451
10.39	-9.4672	-0.0826	-1.8335	-0.0111	-0.0104	0.0034	31.8093	1.5519	17.1624	0.6343	0.0463	0.7705	-0.0451
10.4	-9.4718	-0.0950	-1.8435	-0.0054	-0.0102	0.0034	31.6887	1.6287	17.1419	0.6342	0.0463	0.7704	-0.0451
10.41	-9.4709	-0.1045	-1.8424	-0.0033	-0.0114	0.0058	31.6068	1.7767	17.1494	0.6342	0.0463	0.7705	-0.0451
10.42	-9.4703	-0.1059	-1.8455	-0.0109	-0.0033	0.0003	31.8013	1.7838	17.3263	0.6342	0.0462	0.7705	-0.0451
10.43	-9.4686	-0.1032	-1.8580	-0.0057	-0.0061	-0.0004	31.6801	1.6056	17.2584	0.6341	0.0462	0.7705	-0.0451
10.44	-9.4758	-0.1056	-1.8580	-0.0048	-0.0142	-0.0005	31.9061	1.8465	17.1182	0.6342	0.0461	0.7706	-0.0451
10.45	-9.4646	-0.1191	-1.8606	-0.0124	-0.0096	0.0005	31.9350	1.9150	17.1765	0.6341	0.0461	0.7705	-0.0451
10.46	-9.4713	-0.1181	-1.8560	-0.0109	-0.0154	0.0092	31.8027	1.8330	17.3228	0.6342	0.0461	0.7706	-0.0450
10.47	-9.4712	-0.1115	-1.8550	-0.0039	-0.0066	0.0050	31.9873	1.7206	17.2539	0.6341	0.0460	0.7705	-0.0450
10.48	-9.4689	-0.1107	-1.8619	-0.0093	-0.0141	0.0076	31.8796	1.6164	17.2103	0.6341	0.0460	0.7706	-0.0450
10.49	-9.4533	-0.1121	-1.8495	-0.0039	-0.0105	0.0082	31.9225	1.3631	17.3200	0.6341	0.0460	0.7705	-0.0450
10.5	-9.4615	-0.1057	-1.8620	-0.0040	-0.0140	0.0078	31.8751	1.4908	17.2952	0.6341	0.0460	0.7705	-0.0450
10.51	-9.4768	-0.1090	-1.8680	-0.0026	-0.0140	0.0063	31.8769	1.4512	16.9296	0.6341	0.0460	0.7706	-0.0450
10.52	-9.4656	-0.1085	-1.8695	-0.0001	-0.0111	0.0075	31.9462	1.5470	17.1483	0.6341	0.0460	0.7705	-0.0450
10.53	-9.4683	-0.1050	-1.8715	-0.0042	-0.0115	0.0027	31.8222	1.6816	17.1433	0.6341	0.0460	0.7706	-0.0450
10.54	-9.4677	-0.1022	-1.8709	-0.0041	-0.0108	0.0097	31.8992	1.6216	17.2246	0.6341	0.0460	0.7705	-0.0450
10.55	-9.4802	-0.1086	-1.8752	0.0015	-0.0161	0.0048	31.7170	1.6510	17.3724	0.6341	0.0460	0.7706	-0.0450
10.56	-9.4692	-0.1069	-1.8538	0.0008	-0.0150	0.0095	31.8831	1.4895	17.2479	0.6341	0.0460	0.7705	-0.0450
10.57	-9.4740	-0.1001	-1.8647	-0.0019	-0.0082	0.0072	31.9833	1.7289	17.0355	0.6341	0.0460	0.7706	-0.0450
10.58	-9.4691	-0.1001	-1.8706	-0.0008	-0.0063	0.0022	31.8398	1.7228	17.1674	0.6341	0.0460	0.7706	-0.0450
10.59	-9.4672	-0.1038	-1.8660	-0.0036	-0.0103	0.0096	31.8761	1.6253	17.1458	0.6341	0.0460	0.7706	-0.0450
10.6	-9.4600	-0.1028	-1.8653	0.0008	-0.0127	0.0087	31.8551	1.8244	17.1529	0.6341	0.0460	0.7706	-0.0450
10.61	-9.4708	-0.0942	-1.8671	-0.0020	-0.0145	0.0034	31.8696	1.7866	17.1407	0.6340	0.0460	0.7705	-0.0451
10.62	-9.4734	-0.0877	-1.8670	-0.0021	-0.0177	0.0035	31.8551	1.8414	17.1588	0.6341	0.0460	0.7706	-0.0451
10.63	-9.4687	-0.0834	-1.8740	-0.0012	-0.0114	0.0005	31.7503	1.7346	16.9749	0.6341	0.0460	0.7706	-0.0451
10.64	-9.4736	-0.0927	-1.8637	-0.0001	-0.0150	0.0085	31.8667	1.7878	17.0230	0.6341	0.0460	0.7706	-0.0451
10.65	-9.4752	-0.1014	-1.8618	-0.0046	-0.0202	0.0099	31.8596	1.8173	17.2416	0.6341	0.0460	0.7705	-0.0451
10.66	-9.4689	-0.1037	-1.8514	0.0001	-0.0136	0.0109	31.8633	1.5934	17.3833	0.6341	0.0460	0.7705	-0.0451
10.67	-9.4640	-0.0958	-1.8485	0.0036	-0.0206	0.0107	32.0178	1.6765	17.2070	0.6342	0.0460	0.7705	-0.0451
10.68	-9.4703	-0.0995	-1.8503	0.0005	-0.0128	0.0009	32.0252	1.5768	17.1301	0.6341	0.0460	0.7705	-0.0451
10.69	-9.4699	-0.0903	-1.8529	-0.0030	-0.0123	0.0070	32.0246	1.4459	17.2659	0.6342	0.0460	0.7706	-0.0451
10.7	-9.4720	-0.0869	-1.8583	-0.0023	-0.0133	0.0012	32.1517	1.5413	17.2691	0.6341	0.0460	0.7705	-0.0451
10.71	-9.4817	-0.0908	-1.8565	-0.0006	-0.0170	0.0060	32.2108	1.5522	17.3850	0.6342	0.0460	0.7705	-0.0452
10.72	-9.4725	-0.0876	-1.8520	0.0028	-0.0139	0.0081	32.0549	1.6876	17.1970	0.6341	0.0460	0.7704	-0.0452
10.73	-9.4665	-0.0830	-1.8483	0.0028	-0.0176	0.0031	31.9381	1.6831	17.0477	0.6342	0.0460	0.7705	-0.0452
10.74	-9.4708	-0.0940	-1.8537	-0.0002	-0.0173	0.0064	31.8241	1.4341	16.8815	0.6342	0.0460	0.7705	-0.0452
10.75	-9.4800	-0.1006	-1.8503	-0.0011	-0.0163	0.0024	31.8460	1.5755	17.0306	0.6342	0.0460	0.7704	-0.0452
10.76	-9.4665	-0.0908	-1.8464	0.0034	-0.0146	0.0052	31.5702	1.5772	17.3153	0.6342	0.0460	0.7705	-0.0453
10.77	-9.4690	-0.1013	-1.8465	-0.0010	-0.0131	0.0024	31.7211	1.5424	17.1612	0.6342	0.0460	0.7704	-0.0453
10.78	-9.4721	-0.0975	-1.8472	0.0019	-0.0138	0.0057	31.8081	1.6482	17.0472	0.6342	0.0460	0.7705	-0.0453
10.79	-9.4707	-0.0915	-1.8451	-0.0024	-0.0171	0.0042	31.8734	1.6475	17.0808	0.6342	0.0460	0.7704	-0.0453
10.8	-9.4740	-0.1011	-1.8442	0.0031	-0.0114	0.0029	31.8591	1.5909	17.1906	0.6343	0.0460	0.7705	-0.0454
10.81	-9.4689	-0.0962	-1.8397	-0.0026	-0.0098	0.0056	31.6440	1.6337	17.1229	0.6342	0.0460	0.7704	-0.0454
10.82	-9.4756	-0.1010	-1.8449	-0.0093	-0.0145	0.0035	31.8143	1.5336	17.2813	0.6342	0.0459	0.7705	-0.0453
10.83	-9.4678	-0.1000	-1.8518	0.0009	-0.0218	0.0058	31.7799	1.6771	17.0354	0.6342	0.0459	0.7704	-0.0454
10.84	-9.4624	-0.1039	-1.8478	0.0006	-0.0234	0.0109	31.7084	1.5324	17.1330	0.6343	0.0460	0.7704	-0.0454
10.85	-9.4667	-0.1093	-1.8454	-0.0010	-0.0210	0.0064	31.8906	1.5993	17.1222	0.6343	0.0460	0.7704	-0.0454
10.86	-9.4686	-0.1184	-1.8531	0.0010	-0.0127	0.0075	31.8011	1.5467	17.0611	0.6343	0.0460	0.7703	-0.0454
10.87	-9.4692	-0.1112	-1.8594	-0.0002	-0.0139	0.0089	31.7868	1.6060	17.0724	0.6344	0.0460	0.7704	-0.0454
10.88	-9.4743	-0.1191	-1.8538	-0.0010	-0.0156	0.0102	31.9565	1.5096	17.1236	0.6343	0.0460	0.7703	-0.0454
10.89	-9.4769	-0.1159	-1.8583	0.0015	-0.0071	0.0067	31.9067	1.5319	17.1602	0.6344	0.0460	0.7704	-0.0454
10.9	-9.4660	-0.1131	-1.8508	-0.0040	-0.0136	0.0039	31.7884	1.7527	16.8327	0.6343	0.0460	0.7703	-0.0454
10.91	-9.4659	-0.1181	-1.8563	0.0049	-0.0166	0.0143	31.7943	1.6446	17.0858	0.6343	0.0460	0.7703	-0.0454
10.92	-9.4694	-0.1149	-1.8653	-0.0019	-0.0122	0.0083	31.8239	1.6149	17.1653	0.6343	0.0460	0.7703	-0.0454
10.93	-9.4650	-0.1200	-1.8533	0.0021	-0.0115	0.0132	31.9756	1.5477	16.9414	0.6343	0.0461	0.7703	-0.0454
10.94	-9.4661	-0.1035	-1.8621	-0.0002	-0.0072	0.0055	31.9488	1.6831	17.1410	0.6344	0.0461	0.7704	-0.0454
10.95	-9.4719	-0.1055	-1.8580	-0.0035	-0.0101	0.0044	31.8372	1.6500	17.1206	0.6343	0.0461	0.7704	-0.0454
10.96	-9.4722	-0.0984	-1.8590	-0.0067	-0.0104	0.0047	31.7282	1.8499	17.0860	0.6343	0.0460	0.7704	-0.0454
10.97	-9.4614	-0.0898	-1.8604	-0.0028	-0.0078	0.0045	31.6931	1.7171	17.3623	0.6342	0.0460	0.7703	-0.0454
10.98	-9.4745	-0.0906	-1.8586	-0.0015	-0.0083	0.0086	31.7284	1.5497	17.3289	0.6343	0.0460	0.7704	-0.0454
10.99	-9.4724	-0.0963	-1.8558	-0.0058	-0.0111	0.0022	31.8317	1.5498	17.1692	0.6343	0.0460	0.7704	-0.0454
11	-9.4733	-0.0855	-1.8446	-0.0087	-0.0101	0.0055	31.7084	1.4234	17.2252	0.6342	0.0460	0.7704	-0.0454
11.01	-9.4831	-0.0858	-1.8493	-0.0015	-0.0160	0.0064	31.7098	1.8030	17.3596	0.6343	0.0460	0.7704	-0.0454
11.02	-9.4772	-0.0942	-1.8602	-0.0072	-0.0110	0.0113	31.8266	1.7928	17.3119	0.6342	0.0460	0.7704	-0.0454
11.03	-9.4628	-0.0917	-1.8527	-0.0041	-0.0118	0.0086	31.9340	1.6877	17.1448	0.6343	0.0460	0.7705	-0.0454
11.04	-9.4609	-0.0922	-1.8495	-0.0001	-0.0147	0.0076	32.0476	1.5477	16.8801	0.6342	0.0460	0.7704	-0.0454
11.05	-9.4621	-0.0847	-1.8585	-0.0032	-0.0175	0.0057	31.9502	1.7200	16.9193	0.6343	0.0460	0.7704	-0.0454
11.06	-9.4700	-0.0914	-1.8618	-0.0074	-0.0153	0.0073	31.6623	1.6892	17.1858	0.6343	0.0460	0.7704	-0.0454
11.07	-9.4730	-0.0917	-1.8517	0.0031	-0.0102	0.0049	31.8818	1.6522	17.0841	0.6343	0.0460	0.7704	-0.0454
11.08	-9.4783	-0.1033	-1.8463	-0.0010	-0.0162	0.0002	31.8542	1.6393	16.9947	0.6343	0.0459	0.7704	-0.0454
11.09	-9.4724	-0.1156	-1.8413	-0.0010	-0.0149	0.0067	31.8389	1.5882	16.9592	0.6343	0.0459	0.7704	-0.0454
11.1	-9.4743	-0.1067	-1.8534	-0.0036	-0.0226	0.0073	31.9973	1.4905	17.2815	0.6343	0.0459	0.7704	-0.0454
11.11	-9.4676	-0.1131	-1.8559	-0.0072	-0.0173	0.0044	31.9383	1.5930	17.0764	0.6343	0.0459	0.7703	-0.0454
11.12	-9.4679	-0.1124	-1.8580	0.0058	-0.0166	0.0111	31.9643	1.5195	16.9133	0.6344	0.0460	0.7704	-0.0454
11.13	-9.4675	-0.1042	-1.8637	-0.0128	-0.0126	0.0020	31.7094	1.7274	17.1058	0.6343	0.0459	0.7703	-0.0454
11.14	-9.4710	-0.1052	-1.8771	-0.0110	-0.0186	0.0088	31.9533	1.7514	17.1251	0.6344	0.0459	0.7704	-0.0454
11.15	-9.4711	-0.0978	-1.8665	-0.0029	-0.0142	0.0057	31.9627	1.5223	17.2511	0.6344	0.0459	0.7703	-0.0454
11.16	-9.4687	-0.1027	-1.8658	-0.0026	-0.0150	0.0028	31.8232	1.7032	17.4237	0.6344	0.0459	0.7703	-0.0454
11.17	-9.4718	-0.1029	-1.8598	-0.0058	-0.0188	0.0063	31.9436	1.6313	17.3065	0.6344	0.0458	0.7703	-0.0454
11.18	-9.4707	-0.1043	-1.8483	-0.0046	-0.0091	-0.0003	31.9095	1.6654	17.3037	0.6344	0.0458	0.7703	-0.0454
11.19	-9.4721	-0.1028	-1.8537	-0.0053	-0.0147	0.0031	31.5578	1.7337	17.4317	0.6345	0.0458	0.7704	-0.0454
11.2	-9.4715	-0.0881	-1.8601	0.0012	-0.0170	-0.0004	32.0978	1.7433	17.1927	0.6344	0.0458	0.7703	-0.0454
11.21	-9.4729	-0.0946	-1.8516	-0.0049	-0.0134	0.0127	32.2271	1.7515	17.5292	0.6345	0.0458	0.7703	-0.0454
11.22	-9.4686	-0.0994	-1.8490	-0.0041	-0.0117	0.0091	32.1255	1.6907	17.5045	0.6344	0.0458	0.7702	-0.0454
11.23	-9.4705	-0.0962	-1.8513	-0.0031	-0.0104	0.0045	32.1031	1.6193	17.3986	0.6344	0.0458	0.7703	-0.0454
11.24	-9.4660	-0.0996	-1.8450	-0.0054	-0.0128	0.0075	31.8907	1.5950	17.2084	0.6344	0.0457	0.7703	-0.0454
11.25	-9.4733	-0.0990	-1.8515	-0.0019	-0.0125	0.0033	31.8358	1.4841	17.2444	0.6344	0.0457	0.7703	-0.0454
11.26	-9.4712	-0.0975	-1.8418	-0.0037	-0.0116	0.0080	31.9301	1.4877	17.1171	0.6344	0.0457	0.7703	-0.0454
11.27	-9.4688	-0.0986	-1.8458	-0.0021	-0.0083	0.0084	31.9140	1.6048	17.2847	0.6344	0.0457	0.7703	-0.0454
11.28	-9.4713	-0.1027	-1.8457	-0.0012	-0.0080	0.0004	31.7295	1.5269	17.3183	0.6344	0.0457	0.7704	-0.0454
11.29	-9.4706	-0.0932	-1.8515	-0.0100	-0.0104	0.0071	31.8467	1.6793	17.2974	0.6343	0.0457	0.7703	-0.0454
11.3	-9.4718	-0.0896	-1.8603	-0.0063	-0.0097	0.0013	31.9994	1.6123	17.3209	0.6344	0.0457	0.7704	-0.0454
11.31	-9.4670	-0.0894	-1.8530	-0.0005	-0.0091	0.0047	31.9071	1.6056	17.1299	0.6343	0.0457	0.7704	-0.0454
11.32	-9.4713	-0.0956	-1.8592	0.0030	-0.0112	-0.0007	31.8684	1.9202	17.1940	0.6343	0.0456	0.7704	-0.0454
11.33	-9.4696	-0.1049	-1.8559	-0.0091	-0.0088	-0.0007	31.7345	1.8909	17.2259	0.6343	0.0456	0.7704	-0.0454
11.34	-9.4695	-0.1137	-1.8665	-0.0062	-0.0138	0.0025	31.9842	1.7816	17.0796	0.6343	0.0456	0.7704	-0.0454
11.35	-9.4704	-0.1168	-1.8592	-0.0032	-0.0065	0.0060	31.6726	1.6974	17.2079	0.6343	0.0456	0.7704	-0.0454
11.36	-9.4617	-0.1083	-1.8614	-0.0033	-0.0106	0.0054	31.6899	1.8201	17.2063	0.6342	0.0455	0.7704	-0.0454
11.37	-9.4722	-0.1190	-1.8641	-0.0053	-0.0148	0.0035	31.6457	1.8092	17.2243	0.6343	0.0455	0.7705	-0.0454
11.38	-9.4670	-0.1125	-1.8520	-0.0160	-0.0154	0.0060	31.7527	1.6720	17.3300	0.6343	0.0455	0.7704	-0.0454
11.39	-9.4774	-0.1017	-1.8514	-0.0104	-0.0163	0.0092	31.8856	1.6313	17.2924	0.6344	0.0455	0.7705	-0.0454
11.4	-9.4741	-0.1107	-1.8468	-0.0033	-0.0168	0.0130	31.7203	1.7414	17.3220	0.6343	0.0455	0.7704	-0.0453
11.41	-9.4663	-0.1021	-1.8563	-0.0043	-0.0159	0.0007	31.8900	1.7280	17.1557	0.6343	0.0454	0.7704	-0.0453
11.42	-9.4620	-0.0956	-1.8556	0.0010	-0.0163	0.0061	31.9407	1.5731	17.1596	0.6343	0.0454	0.7704	-0.0454
11.43	-9.4679	-0.0933	-1.8617	-0.0068	-0.0132	0.0122	31.8324	1.5745	17.3380	0.6343	0.0454	0.7703	-0.0453
11.44	-9.4670	-0.0951	-1.8580	-0.0040	-0.0103	-0.0004	31.9251	1.5549	17.1933	0.6344	0.0454	0.7705	-0.0453
11.45	-9.4701	-0.0904	-1.8595	-0.0027	-0.0167	-0.0016	31.9271	1.4763	17.1241	0.6343	0.0454	0.7704	-0.0454
11.46	-9.4650	-0.0845	-1.8549	-0.0107	-0.0159	0.0069	31.9105	1.7122	17.1349	0.6344	0.0454	0.7704	-0.0453
11.47	-9.4698	-0.0938	-1.8645	-0.0101	-0.0160	0.0034	31.9391	1.7731	17.1939	0.6343	0.0453	0.7703	-0.0453
11.48	-9.4731	-0.0985	-1.8675	-0.0084	-0.0166	0.0074	31.7709	1.5654	17.3759	0.6344	0.0453	0.7704	-0.0453
11.49	-9.4626	-0.0994	-1.8503	-0.0014	-0.0143	0.0155	31.8080	1.4902	17.1807	0.6344	0.0453	0.7703	-0.0453
11.5	-9.4655	-0.0947	-1.8539	-0.0071	-0.0117	0.0051	31.8019	1.6731	17.1530	0.6344	0.0453	0.7703	-0.0453
11.51	-9.4700	-0.0927	-1.8642	-0.0211	-0.0139	0.0023	31.6258	1.5556	17.5436	0.6344	0.0452	0.7704	-0.0452
11.52	-9.4767	-0.0844	-1.8638	-0.0144	-0.0165	0.0019	31.8410	1.5463	17.3117	0.6344	0.0452	0.7703	-0.0452
11.53	-9.4741	-0.0921	-1.8582	-0.0109	-0.0154	0.0031	31.7804	1.6632	17.3218	0.6344	0.0451	0.7704	-0.0452
