time	acceleration_x	acceleration_y	acceleration_z	gyroscope_x	gyroscope_y	gyroscope_z	magnetometer_x	magnetometer_y	magnetometer_z	quaternion_w	quaternion_x	quaternion_y	quaternion_z
0	-5.1273	0.0142	-0.4654	0.0065	0.0257	-0.0083	11.4260	-9.6292	-0.8938	0.2299	-0.3172	0.2506	0.2937
0.01	-10.1272	0.0353	-0.9283	0.0186	0.0565	-0.0166	22.4575	-18.8476	-1.7610	0.4543	-0.6268	0.4954	0.5801
0.02	-8.9370	0.0577	-0.8189	0.0172	0.0519	-0.0239	20.1343	-16.8059	-1.3597	0.3998	-0.5517	0.4362	0.5103
0.03	-9.6220	0.0567	-0.8853	0.0199	0.0587	-0.0316	21.9131	-17.9772	-1.4870	0.4292	-0.5925	0.4685	0.5476
0.04	-9.2359	0.0568	-0.8512	0.0203	0.0495	-0.0322	21.1138	-16.7895	-1.3587	0.4110	-0.5674	0.4488	0.5241
0.05	-9.5116	0.0481	-0.8639	0.0192	0.0490	-0.0331	21.4670	-17.7913	-1.2741	0.4227	-0.5836	0.4617	0.5387
0.06	-9.3567	0.0463	-0.8452	0.0196	0.0502	-0.0420	20.7863	-18.1820	-1.5883	0.4153	-0.5735	0.4537	0.5290
0.07	-9.4433	0.0480	-0.8491	0.0359	0.0509	-0.0420	20.9641	-18.3035	-1.6147	0.4199	-0.5799	0.4588	0.5345
0.08	-9.3664	0.0534	-0.8406	0.0314	0.0430	-0.0449	20.7288	-17.2987	-1.4450	0.4174	-0.5764	0.4561	0.5309
0.09	-9.3777	0.0627	-0.8424	0.0216	0.0451	-0.0479	20.8930	-17.5076	-1.4521	0.4188	-0.5784	0.4577	0.5323
0.1	-9.3508	0.0488	-0.8337	0.0184	0.0478	-0.0576	20.9176	-17.4238	-1.6272	0.4183	-0.5777	0.4571	0.5313
0.11	-9.3093	0.0560	-0.8377	0.0174	0.0515	-0.0560	20.7708	-17.3396	-1.5030	0.4183	-0.5779	0.4572	0.5310
0.12	-9.2948	0.0528	-0.8379	0.0190	0.0606	-0.0532	20.8447	-17.2342	-1.3671	0.4184	-0.5781	0.4573	0.5307
0.13	-9.2925	0.0516	-0.8622	0.0061	0.0642	-0.0500	20.6793	-17.2703	-1.3245	0.4184	-0.5783	0.4574	0.5304
0.14	-9.2809	0.0502	-0.8746	-0.0043	0.0736	-0.0487	20.5689	-17.2670	-1.3313	0.4183	-0.5785	0.4575	0.5301
0.15	-9.2923	0.0243	-0.8907	-0.0101	0.0754	-0.0464	20.8156	-17.1314	-1.4668	0.4182	-0.5788	0.4576	0.5298
0.16	-9.3079	-0.0195	-0.9242	-0.0104	0.0823	-0.0494	20.8768	-17.2493	-1.5406	0.4181	-0.5791	0.4577	0.5295
0.17	-9.3618	-0.0636	-0.9271	-0.0106	0.0875	-0.0457	20.7195	-17.1977	-1.5034	0.4179	-0.5794	0.4578	0.5292
0.18	-9.3939	-0.1192	-0.9535	-0.0080	0.0861	-0.0438	20.5995	-17.1583	-1.5456	0.4178	-0.5797	0.4579	0.5289
0.19	-9.4007	-0.1371	-0.9797	-0.0078	0.0819	-0.0399	20.6776	-17.1873	-1.3433	0.4177	-0.5799	0.4580	0.5286
0.2	-9.3640	-0.1575	-0.9994	0.0124	0.0763	-0.0375	20.7006	-17.3824	-1.3886	0.4176	-0.5801	0.4582	0.5283
0.21	-9.3364	-0.1665	-1.0171	0.0179	0.0780	-0.0330	20.8794	-17.5533	-1.4523	0.4176	-0.5803	0.4584	0.5280
0.22	-9.3290	-0.1481	-1.0441	0.0283	0.0861	-0.0311	21.0105	-17.4948	-1.1677	0.4175	-0.5805	0.4586	0.5276
0.23	-9.2977	-0.1095	-1.0744	0.0413	0.0828	-0.0302	20.9685	-17.4111	-1.3220	0.4175	-0.5807	0.4589	0.5272
0.24	-9.3017	-0.0744	-1.0742	0.0384	0.0795	-0.0213	20.9818	-17.4546	-1.5659	0.4174	-0.5808	0.4592	0.5269
0.25	-9.3600	-0.0744	-1.0744	0.0412	0.0825	-0.0093	21.0667	-17.4150	-1.2836	0.4174	-0.5809	0.4595	0.5265
0.26	-9.4106	-0.0692	-1.1146	0.0399	0.0858	-0.0076	21.2089	-17.3407	-1.2531	0.4173	-0.5810	0.4599	0.5262
0.27	-9.4400	-0.0343	-1.1129	0.0433	0.0831	-0.0054	20.8871	-17.5257	-1.1435	0.4172	-0.5810	0.4602	0.5258
0.28	-9.4238	0.0123	-1.0996	0.0385	0.0680	-0.0076	20.9385	-17.4624	-0.9046	0.4172	-0.5811	0.4606	0.5255
0.29	-9.4024	0.0317	-1.1006	0.0416	0.0623	-0.0062	20.6108	-17.2864	-1.1187	0.4171	-0.5811	0.4609	0.5253
0.3	-9.4067	0.0518	-1.1033	0.0361	0.0702	-0.0023	20.6050	-17.3064	-1.2871	0.4171	-0.5812	0.4612	0.5250
0.31	-9.4101	0.1018	-1.1028	0.0263	0.0602	0.0044	20.7439	-17.3192	-1.1703	0.4170	-0.5812	0.4615	0.5247
0.32	-9.3959	0.1326	-1.0919	0.0158	0.0556	0.0051	20.7999	-17.1185	-1.0431	0.4168	-0.5813	0.4617	0.5246
0.33	-9.3761	0.1513	-1.0865	-0.0012	0.0636	0.0062	20.9012	-17.4548	-1.0696	0.4167	-0.5813	0.4620	0.5244
0.34	-9.3391	0.1615	-1.0899	-0.0084	0.0550	0.0045	20.7621	-17.3443	-1.0124	0.4165	-0.5814	0.4622	0.5243
0.35	-9.3382	0.1857	-1.0740	-0.0192	0.0559	0.0046	20.8299	-17.1174	-0.8705	0.4163	-0.5815	0.4623	0.5242
0.36	-9.3252	0.1752	-1.0911	-0.0353	0.0629	0.0041	20.7909	-17.4052	-0.8624	0.4160	-0.5817	0.4625	0.5241
0.37	-9.3042	0.1458	-1.1027	-0.0477	0.0699	-0.0052	20.8068	-17.2700	-1.0401	0.4157	-0.5819	0.4626	0.5240
0.38	-9.2932	0.1086	-1.1171	-0.0630	0.0727	-0.0090	20.5903	-17.0893	-1.0490	0.4153	-0.5822	0.4626	0.5239
0.39	-9.2965	0.0864	-1.1260	-0.0531	0.0742	-0.0080	20.8060	-17.4601	-1.1530	0.4150	-0.5825	0.4627	0.5238
0.4	-9.3059	0.0766	-1.1194	-0.0585	0.0799	-0.0082	21.0338	-17.6437	-1.2388	0.4146	-0.5828	0.4628	0.5237
0.41	-9.2999	0.0719	-1.1440	-0.0570	0.0844	-0.0075	20.9205	-17.4102	-0.8973	0.4143	-0.5831	0.4629	0.5236
0.42	-9.3145	0.0954	-1.1345	-0.0466	0.0896	-0.0076	20.8646	-17.5149	-0.8292	0.4139	-0.5833	0.4630	0.5235
0.43	-9.3985	0.1067	-1.1276	-0.0600	0.0994	-0.0083	21.0156	-17.5239	-1.0963	0.4135	-0.5837	0.4631	0.5233
0.44	-9.4387	0.0809	-1.1539	-0.0624	0.0924	-0.0066	20.9355	-17.3927	-1.0035	0.4131	-0.5840	0.4632	0.5232
0.45	-9.4351	0.0623	-1.1254	-0.0608	0.0789	-0.0143	20.6515	-17.4941	-0.9499	0.4128	-0.5843	0.4633	0.5231
0.46	-9.4182	0.0360	-1.1167	-0.0621	0.0750	-0.0168	20.5701	-17.6173	-0.9562	0.4124	-0.5846	0.4633	0.5230
0.47	-9.3877	0.0109	-1.1106	-0.0588	0.0783	-0.0227	21.0216	-17.6062	-0.9705	0.4121	-0.5849	0.4633	0.5228
0.48	-9.3533	-0.0016	-1.0810	-0.0579	0.0694	-0.0356	20.8406	-17.4473	-1.0851	0.4119	-0.5852	0.4633	0.5227
0.49	-9.3265	-0.0265	-1.0652	-0.0582	0.0716	-0.0324	20.6480	-17.4367	-0.9996	0.4116	-0.5856	0.4633	0.5226
0.5	-9.3128	-0.0537	-1.0742	-0.0380	0.0754	-0.0344	20.7678	-17.3456	-0.7360	0.4114	-0.5859	0.4633	0.5224
0.51	-9.3150	-0.0756	-1.0941	-0.0408	0.0778	-0.0369	20.6544	-17.2127	-0.8338	0.4111	-0.5862	0.4634	0.5222
0.52	-9.3118	-0.1045	-1.1078	-0.0338	0.0863	-0.0391	20.6451	-17.3062	-0.6478	0.4109	-0.5865	0.4634	0.5219
0.53	-9.2764	-0.1306	-1.1459	-0.0313	0.0852	-0.0440	20.9500	-17.1444	-0.5772	0.4107	-0.5868	0.4635	0.5217
0.54	-9.2391	-0.1563	-1.1600	-0.0083	0.0847	-0.0460	21.2796	-16.8857	-0.5765	0.4106	-0.5871	0.4636	0.5214
0.55	-9.2310	-0.1648	-1.1814	0.0090	0.0932	-0.0425	20.9785	-17.1914	-0.7126	0.4105	-0.5874	0.4637	0.5210
0.56	-9.2441	-0.1589	-1.2099	0.0279	0.1030	-0.0389	20.8705	-18.2647	-0.4944	0.4104	-0.5876	0.4640	0.5206
0.57	-9.2454	-0.1670	-1.2319	0.0459	0.1074	-0.0502	20.8539	-18.0645	-0.8007	0.4104	-0.5878	0.4643	0.5201
0.58	-9.2862	-0.1832	-1.2518	0.0596	0.1170	-0.0555	20.7841	-17.1480	-0.9025	0.4104	-0.5881	0.4646	0.5195
0.59	-9.3338	-0.1905	-1.2984	0.0715	0.1179	-0.0481	20.7250	-17.6935	-0.5553	0.4104	-0.5883	0.4649	0.5189
0.6	-9.3609	-0.1654	-1.3215	0.1012	0.1122	-0.0507	20.7459	-17.3829	-0.7236	0.4106	-0.5884	0.4654	0.5183
0.61	-9.3276	-0.1258	-1.3526	0.1212	0.1065	-0.0405	20.9103	-17.2769	-0.7990	0.4108	-0.5885	0.4659	0.5176
0.62	-9.3029	-0.1237	-1.3664	0.1417	0.1017	-0.0392	20.8571	-17.3855	-0.5310	0.4110	-0.5885	0.4664	0.5169
0.63	-9.3748	-0.0938	-1.3685	0.1469	0.1143	-0.0428	20.8848	-17.5221	-0.2619	0.4113	-0.5886	0.4670	0.5161
0.64	-9.4552	-0.0462	-1.3977	0.1602	0.1068	-0.0403	20.8672	-17.3946	-0.2331	0.4116	-0.5885	0.4676	0.5154
0.65	-9.5064	0.0070	-1.3746	0.1714	0.0823	-0.0440	20.8835	-17.3485	-0.3721	0.4120	-0.5884	0.4681	0.5147
0.66	-9.5564	0.0707	-1.3367	0.1743	0.0739	-0.0372	21.0290	-17.3515	-0.3052	0.4124	-0.5883	0.4687	0.5140
0.67	-9.5357	0.1368	-1.3342	0.1747	0.0595	-0.0493	20.7866	-17.3448	-0.1263	0.4128	-0.5882	0.4692	0.5133
0.68	-9.4754	0.2005	-1.3018	0.1718	0.0475	-0.0541	20.7937	-17.1913	-0.2992	0.4134	-0.5880	0.4697	0.5126
0.69	-9.4100	0.2255	-1.2842	0.1598	0.0500	-0.0685	20.7568	-17.3457	-0.0359	0.4139	-0.5879	0.4701	0.5120
0.7	-9.3855	0.2214	-1.2814	0.1368	0.0494	-0.0853	20.6863	-17.2605	-0.2213	0.4143	-0.5878	0.4704	0.5113
0.71	-9.3659	0.1894	-1.2849	0.1187	0.0471	-0.0943	21.0396	-17.0252	-0.1863	0.4148	-0.5879	0.4706	0.5107
0.72	-9.3506	0.1390	-1.2578	0.1019	0.0408	-0.1013	20.6713	-17.0541	0.0526	0.4152	-0.5879	0.4708	0.5102
0.73	-9.3571	0.0837	-1.2465	0.0866	0.0468	-0.1095	20.8308	-17.1554	0.0507	0.4157	-0.5881	0.4709	0.5096
0.74	-9.3275	0.0392	-1.2746	0.0727	0.0437	-0.1176	21.0588	-17.1045	0.1513	0.4160	-0.5882	0.4709	0.5091
0.75	-9.2703	-0.0014	-1.2637	0.0708	0.0422	-0.1175	20.7122	-17.1454	0.0149	0.4164	-0.5884	0.4709	0.5086
0.76	-9.2274	-0.0721	-1.2563	0.0561	0.0464	-0.1239	20.9964	-17.1047	-0.1321	0.4168	-0.5886	0.4709	0.5080
0.77	-9.2307	-0.1299	-1.2595	0.0422	0.0553	-0.1338	21.2386	-17.1615	0.0882	0.4171	-0.5889	0.4708	0.5075
0.78	-9.2521	-0.1784	-1.2664	0.0427	0.0615	-0.1396	20.9213	-17.0039	0.0416	0.4174	-0.5892	0.4707	0.5070
0.79	-9.2585	-0.2370	-1.2694	0.0418	0.0622	-0.1426	21.1180	-17.1868	0.0200	0.4177	-0.5896	0.4706	0.5064
0.8	-9.2512	-0.2960	-1.2755	0.0379	0.0624	-0.1489	21.2470	-17.3030	0.1615	0.4181	-0.5900	0.4705	0.5058
0.81	-9.2649	-0.3349	-1.2821	0.0324	0.0718	-0.1616	21.0336	-17.1268	0.0894	0.4184	-0.5904	0.4703	0.5052
0.82	-9.2804	-0.3706	-1.2926	0.0261	0.0785	-0.1678	21.0712	-17.0223	0.1361	0.4187	-0.5908	0.4701	0.5046
0.83	-9.2596	-0.4055	-1.3132	0.0163	0.0733	-0.1787	21.0420	-17.0685	0.0879	0.4190	-0.5913	0.4699	0.5040
0.84	-9.2367	-0.4325	-1.3128	0.0195	0.0748	-0.1783	21.0907	-17.1216	0.1598	0.4193	-0.5919	0.4697	0.5033
0.85	-9.2186	-0.4555	-1.3244	0.0191	0.0792	-0.1817	21.2711	-16.8689	-0.0230	0.4196	-0.5924	0.4694	0.5027
0.86	-9.2531	-0.4564	-1.3158	0.0043	0.0816	-0.1834	21.0101	-16.6419	0.2694	0.4199	-0.5929	0.4691	0.5021
0.87	-9.3036	-0.4644	-1.3140	-0.0051	0.0842	-0.1846	21.1247	-16.7394	0.2238	0.4201	-0.5935	0.4689	0.5014
0.88	-9.2748	-0.4684	-1.3048	-0.0249	0.0810	-0.1840	21.3519	-16.7669	0.0727	0.4203	-0.5941	0.4685	0.5009
0.89	-9.2546	-0.4728	-1.2664	-0.0340	0.0778	-0.1839	21.3041	-16.8616	0.5486	0.4204	-0.5948	0.4681	0.5003
0.9	-9.2234	-0.4756	-1.2823	-0.0554	0.0764	-0.1847	21.3610	-16.8414	0.4264	0.4205	-0.5954	0.4677	0.4999
0.91	-9.1487	-0.5269	-1.2829	-0.0790	0.0815	-0.1783	21.4160	-16.5604	0.3851	0.4206	-0.5962	0.4672	0.4994
0.92	-9.1217	-0.5978	-1.2856	-0.0963	0.0941	-0.1778	21.1955	-16.6814	0.3188	0.4205	-0.5969	0.4667	0.4990
0.93	-9.0459	-0.6814	-1.3515	-0.1189	0.1045	-0.1787	21.3729	-16.6925	0.1695	0.4203	-0.5978	0.4662	0.4986
0.94	-9.0060	-0.7448	-1.3582	-0.1296	0.1051	-0.1700	21.3965	-16.4047	0.2213	0.4201	-0.5987	0.4657	0.4983
0.95	-8.9457	-0.8039	-1.3928	-0.1377	0.1323	-0.1676	21.3147	-16.4833	0.3644	0.4198	-0.5996	0.4652	0.4979
0.96	-8.9270	-0.8744	-1.4199	-0.1506	0.1574	-0.1588	21.7173	-16.5185	0.4023	0.4194	-0.6006	0.4648	0.4974
0.97	-8.9576	-0.9479	-1.4628	-0.1620	0.1738	-0.1614	21.7809	-16.3891	0.2427	0.4189	-0.6017	0.4643	0.4969
0.98	-8.9825	-1.0317	-1.5124	-0.1607	0.1921	-0.1467	21.6164	-16.5867	0.1925	0.4183	-0.6028	0.4640	0.4964
0.99	-8.9789	-1.1168	-1.5504	-0.1674	0.1906	-0.1350	21.5857	-16.3192	0.4689	0.4177	-0.6038	0.4636	0.4960
1	-8.9787	-1.1794	-1.5761	-0.1610	0.2116	-0.1189	21.6121	-16.3428	0.4710	0.4170	-0.6049	0.4634	0.4955
1.01	-8.9718	-1.2372	-1.6292	-0.1579	0.2184	-0.1003	21.7020	-16.4087	0.4719	0.4162	-0.6060	0.4632	0.4950
1.02	-8.9919	-1.2561	-1.6528	-0.1431	0.2316	-0.0821	21.7004	-16.2648	0.4569	0.4154	-0.6070	0.4632	0.4945
1.03	-9.0202	-1.2602	-1.6923	-0.1287	0.2511	-0.0547	22.0203	-16.1506	0.5441	0.4146	-0.6079	0.4633	0.4939
1.04	-9.0394	-1.2577	-1.7415	-0.1108	0.2467	-0.0326	22.4370	-15.8416	0.5948	0.4137	-0.6088	0.4635	0.4934
1.05	-9.0222	-1.2577	-1.7887	-0.0925	0.2537	-0.0187	21.9289	-16.2094	0.6135	0.4129	-0.6096	0.4638	0.4928
1.06	-9.0352	-1.2526	-1.8269	-0.0834	0.2574	0.0067	21.5148	-17.1038	0.5149	0.4120	-0.6103	0.4642	0.4922
1.07	-9.0768	-1.2317	-1.8868	-0.0638	0.2738	0.0191	21.6653	-16.8394	0.5061	0.4111	-0.6110	0.4648	0.4916
1.08	-9.1336	-1.1999	-1.9247	-0.0394	0.2747	0.0381	21.5112	-16.0298	0.5250	0.4103	-0.6116	0.4654	0.4909
1.09	-9.1972	-1.1562	-1.9537	-0.0172	0.2756	0.0560	21.2772	-16.2966	0.6230	0.4094	-0.6121	0.4662	0.4902
1.1	-9.2404	-1.0985	-2.0155	0.0047	0.2804	0.0695	21.3734	-16.3547	0.5614	0.4086	-0.6126	0.4671	0.4895
1.11	-9.2755	-1.0270	-2.0478	0.0348	0.2752	0.0821	21.4871	-16.3657	0.8298	0.4078	-0.6130	0.4680	0.4888
1.12	-9.3068	-0.9315	-2.0779	0.0450	0.2674	0.0953	21.4863	-16.4047	0.7420	0.4071	-0.6132	0.4691	0.4881
1.13	-9.3443	-0.8171	-2.1075	0.0671	0.2589	0.0964	21.6260	-16.4639	0.8719	0.4064	-0.6135	0.4701	0.4873
1.14	-9.3350	-0.7496	-2.1498	0.0807	0.2527	0.0986	21.4156	-16.5279	0.8767	0.4058	-0.6136	0.4712	0.4866
1.15	-9.3092	-0.7055	-2.1796	0.0896	0.2349	0.0953	21.5501	-16.7744	0.7822	0.4053	-0.6137	0.4723	0.4858
1.16	-9.3036	-0.6382	-2.1932	0.0941	0.2266	0.0848	21.6387	-16.6759	0.9540	0.4048	-0.6138	0.4733	0.4851
1.17	-9.2851	-0.5783	-2.2251	0.0942	0.2203	0.0755	21.4764	-16.8033	1.0399	0.4044	-0.6139	0.4743	0.4844
1.18	-9.2765	-0.5394	-2.2471	0.0881	0.2103	0.0722	21.3488	-16.9025	1.2895	0.4039	-0.6140	0.4753	0.4837
1.19	-9.2174	-0.5060	-2.2908	0.0836	0.2055	0.0741	21.1872	-16.6359	1.0936	0.4035	-0.6141	0.4762	0.4830
1.2	-9.1698	-0.4791	-2.2913	0.0796	0.1883	0.0737	21.3547	-16.8627	1.2566	0.4031	-0.6142	0.4771	0.4824
1.21	-9.1688	-0.4613	-2.3080	0.0736	0.1841	0.0723	21.1731	-16.9150	1.2403	0.4027	-0.6142	0.4780	0.4818
1.22	-9.1590	-0.4447	-2.3295	0.0733	0.1795	0.0674	21.2212	-16.8762	1.2822	0.4023	-0.6143	0.4788	0.4812
1.23	-9.1835	-0.3920	-2.3227	0.0649	0.1738	0.0704	21.1833	-16.9057	1.3624	0.4019	-0.6143	0.4796	0.4806
1.24	-9.1367	-0.3624	-2.3262	0.0698	0.1715	0.0724	21.2345	-16.6044	1.6238	0.4015	-0.6144	0.4804	0.4801
1.25	-9.1144	-0.3530	-2.3261	0.0478	0.1691	0.0685	21.0847	-16.6636	1.5889	0.4011	-0.6144	0.4812	0.4796
1.26	-9.0585	-0.3329	-2.3442	0.0484	0.1735	0.0508	21.0349	-16.6727	1.5615	0.4007	-0.6146	0.4819	0.4791
1.27	-9.0396	-0.3356	-2.3577	0.0350	0.1774	0.0529	21.1630	-16.4840	1.5685	0.4003	-0.6147	0.4826	0.4786
1.28	-9.0491	-0.3457	-2.3758	0.0201	0.1803	0.0471	21.0199	-16.6259	1.5089	0.3998	-0.6149	0.4832	0.4781
1.29	-9.1095	-0.3177	-2.3758	0.0188	0.1861	0.0423	20.9218	-16.7603	1.6084	0.3993	-0.6152	0.4839	0.4775
1.3	-9.1182	-0.2891	-2.3964	0.0172	0.1808	0.0422	20.9511	-16.7756	1.6936	0.3988	-0.6154	0.4845	0.4770
1.31	-9.1143	-0.2991	-2.3824	0.0080	0.1707	0.0374	20.8770	-16.6992	1.6180	0.3983	-0.6156	0.4850	0.4766
1.32	-9.1298	-0.2755	-2.3910	0.0040	0.1788	0.0399	20.8083	-16.7033	1.7274	0.3977	-0.6159	0.4856	0.4761
1.33	-9.1171	-0.2197	-2.4178	-0.0050	0.1830	0.0405	21.0238	-16.9940	1.8940	0.3972	-0.6162	0.4862	0.4756
1.34	-9.0716	-0.1939	-2.4262	-0.0172	0.1621	0.0413	21.1340	-17.2293	1.8458	0.3966	-0.6164	0.4867	0.4753
1.35	-9.0521	-0.1862	-2.4167	-0.0300	0.1688	0.0448	21.1110	-17.0374	1.8641	0.3960	-0.6167	0.4872	0.4749
1.36	-9.0187	-0.1751	-2.4698	-0.0364	0.1698	0.0440	21.0961	-17.0864	1.6713	0.3954	-0.6170	0.4876	0.4746
1.37	-8.9894	-0.1404	-2.4767	-0.0488	0.1711	0.0461	21.1632	-17.0421	2.0389	0.3947	-0.6173	0.4881	0.4742
1.38	-8.9651	-0.1550	-2.4895	-0.0612	0.1662	0.0504	21.1725	-17.0994	1.9037	0.3939	-0.6177	0.4885	0.4740
1.39	-8.9599	-0.1362	-2.5275	-0.0593	0.1679	0.0524	21.0028	-16.9455	1.9063	0.3932	-0.6180	0.4889	0.4737
1.4	-8.9761	-0.1514	-2.5484	-0.0733	0.1625	0.0494	20.8078	-17.0284	1.8814	0.3925	-0.6183	0.4893	0.4735
1.41	-8.9691	-0.1644	-2.5789	-0.0825	0.1549	0.0424	20.8882	-17.0298	1.9530	0.3917	-0.6187	0.4897	0.4733
1.42	-8.9800	-0.1607	-2.5894	-0.0832	0.1625	0.0441	20.6877	-16.9590	2.0107	0.3910	-0.6191	0.4900	0.4731
1.43	-9.0297	-0.1859	-2.6155	-0.0971	0.1590	0.0393	20.6452	-16.9861	1.9743	0.3902	-0.6195	0.4903	0.4729
1.44	-9.0819	-0.1954	-2.6641	-0.0904	0.1636	0.0393	20.6908	-16.8611	2.0071	0.3894	-0.6199	0.4906	0.4727
1.45	-9.1286	-0.2172	-2.6958	-0.0917	0.1477	0.0365	20.6321	-16.9000	2.1704	0.3886	-0.6202	0.4909	0.4726
1.46	-9.2030	-0.2246	-2.7248	-0.0892	0.1418	0.0392	20.7822	-16.9453	2.1703	0.3879	-0.6206	0.4911	0.4724
1.47	-9.2087	-0.2185	-2.7673	-0.0857	0.1217	0.0478	20.7195	-17.1267	2.1906	0.3872	-0.6209	0.4914	0.4723
1.48	-9.2032	-0.2091	-2.7655	-0.0861	0.0941	0.0506	20.3516	-17.1291	2.1478	0.3866	-0.6211	0.4916	0.4724
1.49	-9.1848	-0.1918	-2.7762	-0.0872	0.0875	0.0434	20.4893	-16.9806	2.2649	0.3860	-0.6213	0.4918	0.4724
1.5	-9.1753	-0.1745	-2.7795	-0.0756	0.0823	0.0449	20.4928	-16.9620	2.2606	0.3854	-0.6215	0.4920	0.4724
1.51	-9.1540	-0.1716	-2.8100	-0.0640	0.0766	0.0440	20.4803	-17.0245	2.0355	0.3849	-0.6216	0.4922	0.4724
1.52	-9.1812	-0.1525	-2.8174	-0.0590	0.0723	0.0418	20.7312	-17.2312	2.3148	0.3844	-0.6217	0.4924	0.4724
1.53	-9.2381	-0.1309	-2.8341	-0.0627	0.0721	0.0474	21.1138	-17.0271	2.1591	0.3839	-0.6218	0.4927	0.4724
1.54	-9.2497	-0.1256	-2.8936	-0.0468	0.0554	0.0357	21.4659	-16.8772	2.2012	0.3835	-0.6219	0.4929	0.4725
1.55	-9.3843	-0.1010	-2.8534	-0.0449	0.0492	0.0307	20.8495	-17.3508	2.3861	0.3832	-0.6220	0.4930	0.4725
1.56	-9.2781	-0.1252	-2.9656	-0.0421	0.0291	0.0165	20.6306	-18.3419	2.2805	0.3829	-0.6220	0.4931	0.4725
1.57	-9.3240	-0.0985	-2.8972	-0.0388	-0.0004	0.0145	20.4839	-17.7349	2.1089	0.3828	-0.6220	0.4932	0.4726
1.58	-9.3255	-0.0988	-2.9402	-0.0416	-0.0082	0.0165	20.5445	-16.9016	2.1652	0.3826	-0.6220	0.4932	0.4728
1.59	-9.3874	-0.0750	-2.9151	-0.0340	-0.0307	0.0131	20.6624	-17.1919	2.0276	0.3825	-0.6219	0.4932	0.4730
1.6	-9.4018	-0.0666	-2.9064	-0.0369	-0.0509	0.0159	20.8033	-17.1601	2.1898	0.3825	-0.6217	0.4931	0.4733
1.61	-9.3280	-0.0575	-2.9034	-0.0367	-0.0676	0.0149	20.7675	-17.2212	2.3494	0.3825	-0.6215	0.4930	0.4736
1.62	-9.3294	-0.0127	-2.8652	-0.0339	-0.0861	0.0257	20.4191	-17.0920	2.1436	0.3825	-0.6213	0.4930	0.4740
1.63	-9.3158	0.0283	-2.8583	-0.0376	-0.0995	0.0303	20.6574	-17.0854	2.1064	0.3826	-0.6210	0.4929	0.4745
1.64	-9.3382	0.0489	-2.8579	-0.0597	-0.1167	0.0314	20.4116	-16.9802	2.2313	0.3826	-0.6207	0.4927	0.4750
1.65	-9.3096	0.0641	-2.8796	-0.0581	-0.1393	0.0288	20.4479	-17.3097	2.0877	0.3826	-0.6203	0.4925	0.4757
1.66	-9.2838	0.0809	-2.8376	-0.0582	-0.1612	0.0203	20.5475	-17.2336	2.2049	0.3828	-0.6200	0.4922	0.4763
1.67	-9.2218	0.0799	-2.8053	-0.0636	-0.1782	0.0183	20.2051	-17.1990	2.1752	0.3830	-0.6196	0.4918	0.4770
1.68	-9.1944	0.0771	-2.7673	-0.0649	-0.1903	0.0189	20.3947	-17.2952	1.9005	0.3832	-0.6191	0.4914	0.4778
1.69	-9.1897	0.0676	-2.7245	-0.0767	-0.2060	0.0106	20.5130	-17.3365	1.9799	0.3834	-0.6187	0.4910	0.4787
1.7	-9.1928	0.0497	-2.6684	-0.0810	-0.2248	0.0150	20.4201	-17.3896	1.8816	0.3837	-0.6182	0.4905	0.4796
1.71	-9.1423	0.0493	-2.6404	-0.0777	-0.2371	0.0070	20.7316	-17.4627	1.8365	0.3840	-0.6177	0.4900	0.4805
1.72	-9.1035	0.0571	-2.5591	-0.0846	-0.2439	0.0012	20.7820	-17.5802	1.8954	0.3843	-0.6172	0.4894	0.4815
1.73	-9.0884	0.0286	-2.5143	-0.0857	-0.2330	-0.0052	20.7978	-17.3966	1.7926	0.3846	-0.6168	0.4888	0.4824
1.74	-9.1126	0.0167	-2.5000	-0.0850	-0.2323	-0.0076	20.7387	-17.3730	1.7746	0.3849	-0.6164	0.4882	0.4833
1.75	-9.1168	0.0243	-2.5194	-0.0847	-0.2302	-0.0107	20.4791	-17.4054	1.6537	0.3852	-0.6159	0.4876	0.4842
1.76	-9.1988	0.0296	-2.4756	-0.0846	-0.2406	-0.0118	20.5551	-17.4750	1.5813	0.3856	-0.6155	0.4870	0.4851
1.77	-9.2279	0.0050	-2.4749	-0.0854	-0.2495	-0.0164	20.6366	-17.3117	1.5260	0.3859	-0.6150	0.4863	0.4861
1.78	-9.1378	-0.0105	-2.4438	-0.0846	-0.2745	-0.0191	20.5293	-17.2783	1.4655	0.3864	-0.6145	0.4856	0.4871
1.79	-9.1538	0.0301	-2.3340	-0.0796	-0.2767	-0.0185	20.3919	-17.3449	1.4969	0.3868	-0.6140	0.4849	0.4881
1.8	-9.1431	0.0258	-2.3414	-0.0829	-0.2673	-0.0265	20.6367	-17.1998	1.6251	0.3873	-0.6135	0.4842	0.4891
1.81	-9.2001	0.0218	-2.3265	-0.0848	-0.2688	-0.0351	20.4668	-17.1070	1.2043	0.3877	-0.6130	0.4835	0.4900
1.82	-9.1707	0.0147	-2.3076	-0.0779	-0.2911	-0.0370	20.4000	-17.1163	1.2178	0.3883	-0.6125	0.4827	0.4911
1.83	-9.1520	0.0085	-2.2262	-0.0801	-0.3001	-0.0360	20.6878	-17.2873	1.4020	0.3888	-0.6119	0.4819	0.4921
1.84	-9.1449	-0.0149	-2.1892	-0.0786	-0.2970	-0.0310	20.5123	-17.4168	1.2834	0.3894	-0.6114	0.4811	0.4931
1.85	-9.0878	-0.0161	-2.1824	-0.0842	-0.3002	-0.0325	20.5408	-17.3928	1.2486	0.3899	-0.6108	0.4803	0.4942
1.86	-9.0313	-0.0224	-2.1258	-0.0842	-0.3114	-0.0379	20.3817	-17.3675	0.9904	0.3904	-0.6102	0.4794	0.4953
1.87	-9.0678	-0.0279	-2.0639	-0.0839	-0.3023	-0.0391	20.6493	-17.3244	1.1705	0.3910	-0.6097	0.4786	0.4963
1.88	-9.0887	-0.0373	-2.0667	-0.0838	-0.2902	-0.0346	20.6550	-17.1632	1.0567	0.3915	-0.6091	0.4778	0.4974
1.89	-9.0915	-0.0583	-2.0480	-0.0851	-0.2988	-0.0365	20.5793	-17.1804	0.8252	0.3920	-0.6086	0.4770	0.4984
1.9	-9.1052	-0.0418	-2.0009	-0.0730	-0.2994	-0.0387	20.7321	-17.5751	0.8599	0.3926	-0.6080	0.4762	0.4994
1.91	-9.0815	-0.0636	-1.9831	-0.0803	-0.2917	-0.0373	20.6813	-17.2287	0.7992	0.3932	-0.6075	0.4754	0.5004
1.92	-9.0690	-0.0723	-1.9604	-0.0841	-0.2808	-0.0307	20.9969	-17.5078	0.7184	0.3936	-0.6070	0.4746	0.5014
1.93	-9.0806	-0.0819	-1.9269	-0.0829	-0.2789	-0.0232	20.8453	-17.3532	0.7962	0.3941	-0.6064	0.4739	0.5024
1.94	-9.1127	-0.0754	-1.9012	-0.0824	-0.2720	-0.0203	20.5180	-17.2080	0.6704	0.3945	-0.6059	0.4731	0.5034
1.95	-9.1256	-0.0732	-1.8682	-0.0701	-0.2716	-0.0160	20.7203	-17.3597	0.4890	0.3950	-0.6053	0.4725	0.5044
1.96	-9.1393	-0.0691	-1.8339	-0.0698	-0.2712	-0.0160	20.5969	-17.2617	0.3731	0.3954	-0.6048	0.4718	0.5053
1.97	-9.1591	-0.0787	-1.7944	-0.0715	-0.2689	-0.0198	20.6157	-17.4690	0.2937	0.3959	-0.6042	0.4711	0.5063
1.98	-9.1821	-0.0863	-1.7871	-0.0729	-0.2655	-0.0208	20.7376	-17.5938	0.4175	0.3963	-0.6037	0.4704	0.5072
1.99	-9.1921	-0.0709	-1.7664	-0.0715	-0.2655	-0.0279	20.6052	-17.3046	0.3768	0.3968	-0.6031	0.4697	0.5081
2	-9.2273	-0.0612	-1.7141	-0.0665	-0.2577	-0.0228	20.6088	-17.2224	0.2901	0.3972	-0.6026	0.4690	0.5090
2.01	-9.2792	-0.0475	-1.7001	-0.0725	-0.2546	-0.0206	20.6000	-17.4551	0.1552	0.3976	-0.6021	0.4684	0.5099
2.02	-9.2780	-0.0397	-1.6811	-0.0655	-0.2539	-0.0263	20.8320	-17.3018	0.2696	0.3981	-0.6016	0.4677	0.5108
2.03	-9.2716	-0.0383	-1.6363	-0.0692	-0.2568	-0.0218	20.9449	-17.0958	0.3065	0.3985	-0.6011	0.4670	0.5117
2.04	-9.3345	-0.0207	-1.5858	-0.0776	-0.2547	-0.0227	21.3365	-16.7680	0.1766	0.3989	-0.6006	0.4663	0.5126
2.05	-9.3758	-0.0264	-1.5858	-0.0853	-0.2578	-0.0254	20.9343	-17.2149	0.0780	0.3993	-0.6001	0.4656	0.5135
2.06	-9.4149	-0.0226	-1.5615	-0.0857	-0.2659	-0.0282	20.6754	-18.0190	0.0379	0.3997	-0.5996	0.4649	0.5144
2.07	-9.4220	-0.0222	-1.5268	-0.0842	-0.2783	-0.0179	20.5353	-17.9254	-0.1953	0.4002	-0.5990	0.4641	0.5154
2.08	-9.4608	-0.0288	-1.4818	-0.0899	-0.2974	-0.0237	20.7065	-17.2356	-0.3001	0.4006	-0.5984	0.4633	0.5165
2.09	-9.5100	-0.0346	-1.4830	-0.0932	-0.3013	-0.0313	20.9397	-17.4986	-0.0657	0.4011	-0.5978	0.4625	0.5175
2.1	-9.4577	-0.0291	-1.4751	-0.0923	-0.3301	-0.0381	20.9075	-17.4202	-0.2346	0.4016	-0.5972	0.4615	0.5187
2.11	-9.3706	-0.0501	-1.3902	-0.1033	-0.3444	-0.0431	20.9519	-17.3105	-0.5278	0.4022	-0.5966	0.4605	0.5198
2.12	-9.2787	-0.0794	-1.3349	-0.1013	-0.3528	-0.0453	20.7307	-17.1697	-0.5405	0.4028	-0.5959	0.4595	0.5210
2.13	-9.2280	-0.1080	-1.3083	-0.1064	-0.3294	-0.0441	20.6209	-17.5006	-0.3997	0.4034	-0.5953	0.4585	0.5222
2.14	-9.1735	-0.1428	-1.3060	-0.1061	-0.3258	-0.0516	20.7459	-17.3037	-0.6769	0.4039	-0.5947	0.4575	0.5233
2.15	-9.1864	-0.1507	-1.2297	-0.0942	-0.3121	-0.0558	20.8807	-17.6017	-0.7360	0.4045	-0.5942	0.4566	0.5243
2.16	-9.2014	-0.1664	-1.2085	-0.0852	-0.2978	-0.0512	20.9084	-17.4186	-0.9364	0.4050	-0.5936	0.4557	0.5253
2.17	-9.1880	-0.2031	-1.1983	-0.0795	-0.2817	-0.0453	20.7294	-17.2425	-0.8328	0.4055	-0.5931	0.4548	0.5263
2.18	-9.2121	-0.1806	-1.1327	-0.0690	-0.2766	-0.0477	20.7567	-17.2778	-0.8539	0.4061	-0.5925	0.4540	0.5271
2.19	-9.2588	-0.1852	-1.0767	-0.0703	-0.2633	-0.0483	20.6101	-17.1095	-1.0510	0.4066	-0.5920	0.4532	0.5280
2.2	-9.2732	-0.2231	-1.0670	-0.0592	-0.2501	-0.0510	20.7304	-17.2956	-0.8436	0.4071	-0.5916	0.4525	0.5288
2.21	-9.2535	-0.2120	-1.0597	-0.0450	-0.2497	-0.0432	20.8236	-17.0756	-1.1476	0.4076	-0.5910	0.4518	0.5295
2.22	-9.2756	-0.1849	-1.0293	-0.0352	-0.2347	-0.0387	20.8752	-17.0023	-1.0970	0.4081	-0.5905	0.4512	0.5302
2.23	-9.2689	-0.1781	-1.0483	-0.0306	-0.2228	-0.0370	20.8983	-17.2655	-0.8261	0.4086	-0.5900	0.4506	0.5309
2.24	-9.2139	-0.1844	-1.0250	-0.0222	-0.2188	-0.0324	20.5166	-17.2799	-1.4237	0.4091	-0.5895	0.4501	0.5315
2.25	-9.1968	-0.1285	-0.9504	-0.0064	-0.2209	-0.0287	20.7820	-17.1487	-1.2526	0.4096	-0.5889	0.4497	0.5321
2.26	-9.2075	-0.1015	-0.9297	-0.0098	-0.2039	-0.0313	20.7223	-17.3499	-1.1333	0.4101	-0.5884	0.4492	0.5327
2.27	-9.2331	-0.1134	-0.9625	-0.0101	-0.1840	-0.0323	20.9987	-17.4488	-1.3531	0.4106	-0.5880	0.4488	0.5332
2.28	-9.2544	-0.1076	-0.9501	-0.0101	-0.1785	-0.0386	20.9465	-17.1911	-1.2549	0.4110	-0.5875	0.4484	0.5337
2.29	-9.2949	-0.0944	-0.9248	-0.0098	-0.1674	-0.0364	20.9011	-17.5408	-1.5175	0.4115	-0.5871	0.4480	0.5341
2.3	-9.3110	-0.0965	-0.9316	-0.0097	-0.1671	-0.0315	21.1014	-17.4393	-1.3196	0.4119	-0.5867	0.4476	0.5346
2.31	-9.2681	-0.1038	-0.9249	-0.0057	-0.1669	-0.0320	21.0588	-17.3069	-1.7173	0.4123	-0.5863	0.4472	0.5350
2.32	-9.2672	-0.0817	-0.8637	-0.0029	-0.1661	-0.0234	20.8103	-17.4650	-1.4350	0.4127	-0.5859	0.4469	0.5355
2.33	-9.2376	-0.0775	-0.8482	-0.0078	-0.1500	-0.0237	20.8414	-17.3169	-1.4076	0.4130	-0.5855	0.4466	0.5359
2.34	-9.2260	-0.0670	-0.8285	-0.0082	-0.1413	-0.0205	20.8345	-17.1987	-1.6757	0.4134	-0.5851	0.4463	0.5363
2.35	-9.2147	-0.0472	-0.8076	-0.0077	-0.1312	-0.0171	20.8293	-17.1715	-1.3517	0.4137	-0.5848	0.4460	0.5367
2.36	-9.2337	-0.0312	-0.8019	-0.0085	-0.1226	-0.0169	20.9419	-17.1690	-1.5186	0.4139	-0.5844	0.4458	0.5370
2.37	-9.2643	-0.0128	-0.8218	-0.0067	-0.1071	-0.0226	20.7683	-17.2129	-1.7234	0.4142	-0.5841	0.4455	0.5373
2.38	-9.2728	-0.0080	-0.8057	-0.0151	-0.0937	-0.0220	20.7395	-17.2922	-1.5855	0.4144	-0.5839	0.4453	0.5376
2.39	-9.3398	-0.0004	-0.7832	-0.0281	-0.0829	-0.0267	20.7402	-17.2538	-1.4717	0.4146	-0.5837	0.4451	0.5378
2.4	-9.3399	-0.0140	-0.8008	-0.0289	-0.0848	-0.0331	20.8731	-17.1664	-1.7126	0.4147	-0.5836	0.4448	0.5381
2.41	-9.3246	-0.0349	-0.7641	-0.0338	-0.0927	-0.0252	20.9394	-17.0117	-1.6190	0.4149	-0.5834	0.4445	0.5384
2.42	-9.2911	-0.0455	-0.7525	-0.0337	-0.0855	-0.0270	20.6273	-17.0340	-1.5305	0.4150	-0.5833	0.4443	0.5387
2.43	-9.2536	-0.0435	-0.7241	-0.0340	-0.0827	-0.0178	20.7800	-17.4299	-1.7222	0.4152	-0.5831	0.4441	0.5389
2.44	-9.2797	-0.0471	-0.6998	-0.0330	-0.0709	-0.0165	20.6924	-17.0175	-1.7053	0.4152	-0.5830	0.4438	0.5392
2.45	-9.2955	-0.0415	-0.7249	-0.0374	-0.0571	-0.0138	20.6858	-17.3030	-1.5111	0.4153	-0.5829	0.4437	0.5394
2.46	-9.3218	-0.0423	-0.7138	-0.0346	-0.0519	-0.0214	20.8580	-17.3644	-1.6616	0.4153	-0.5828	0.4435	0.5396
2.47	-9.3279	-0.0579	-0.7330	-0.0306	-0.0473	-0.0228	20.8208	-17.4810	-2.0116	0.4154	-0.5827	0.4433	0.5398
2.48	-9.3294	-0.0703	-0.7300	-0.0347	-0.0538	-0.0229	21.0050	-17.3618	-1.9966	0.4154	-0.5826	0.4431	0.5400
2.49	-9.3025	-0.0718	-0.7317	-0.0327	-0.0438	-0.0229	21.0072	-17.4493	-1.8986	0.4155	-0.5826	0.4430	0.5401
2.5	-9.2463	-0.0719	-0.7123	-0.0335	-0.0469	-0.0289	21.0296	-17.2500	-1.9705	0.4155	-0.5825	0.4428	0.5403
2.51	-9.2418	-0.0616	-0.6818	-0.0336	-0.0352	-0.0266	20.8574	-17.0634	-2.0307	0.4156	-0.5825	0.4426	0.5404
2.52	-9.3108	-0.0613	-0.6921	-0.0323	-0.0132	-0.0234	20.8656	-17.2518	-1.8670	0.4156	-0.5825	0.4425	0.5405
2.53	-9.3661	-0.0696	-0.7448	-0.0338	-0.0134	-0.0269	21.0720	-17.0689	-1.7731	0.4155	-0.5826	0.4424	0.5405
2.54	-9.3730	-0.0800	-0.7461	-0.0338	-0.0215	-0.0221	21.5050	-16.8873	-1.5982	0.4155	-0.5826	0.4423	0.5406
2.55	-9.3611	-0.0895	-0.7359	-0.0345	-0.0156	-0.0328	20.9365	-16.9239	-1.7774	0.4155	-0.5826	0.4422	0.5407
2.56	-9.3742	-0.0891	-0.7518	-0.0310	-0.0108	-0.0272	20.8574	-18.1459	-1.8798	0.4155	-0.5827	0.4421	0.5407
2.57	-9.3877	-0.0933	-0.7793	-0.0346	-0.0107	-0.0295	20.8498	-17.7228	-1.7059	0.4155	-0.5827	0.4420	0.5408
2.58	-9.3708	-0.0972	-0.7925	-0.0324	-0.0150	-0.0289	20.7771	-16.9204	-1.6420	0.4155	-0.5828	0.4419	0.5408
2.59	-9.3852	-0.1023	-0.7941	-0.0282	-0.0018	-0.0292	20.8897	-17.3019	-1.4954	0.4155	-0.5828	0.4418	0.5409
2.6	-9.3891	-0.1229	-0.8063	-0.0302	0.0007	-0.0299	20.9197	-17.2320	-2.0695	0.4155	-0.5829	0.4417	0.5409
2.61	-9.4341	-0.1303	-0.8001	-0.0181	0.0090	-0.0260	20.9811	-17.1494	-1.8596	0.4154	-0.5830	0.4417	0.5408
2.62	-9.4590	-0.1330	-0.8091	-0.0178	0.0021	-0.0244	20.9318	-17.0510	-1.7766	0.4154	-0.5830	0.4416	0.5408
2.63	-9.4859	-0.1394	-0.8016	-0.0094	-0.0064	-0.0194	20.9787	-17.0640	-1.7862	0.4154	-0.5830	0.4416	0.5408
2.64	-9.4988	-0.1329	-0.8134	-0.0133	-0.0146	-0.0245	20.9289	-17.1638	-1.8188	0.4155	-0.5830	0.4416	0.5408
2.65	-9.4885	-0.1360	-0.8261	-0.0182	-0.0240	-0.0162	20.8844	-17.2524	-1.8309	0.4155	-0.5830	0.4415	0.5409
2.66	-9.5161	-0.1400	-0.8299	-0.0064	-0.0216	-0.0131	20.9600	-17.2854	-1.7074	0.4155	-0.5829	0.4415	0.5410
2.67	-9.4882	-0.1361	-0.8487	-0.0091	-0.0373	-0.0191	21.0137	-17.3657	-1.7469	0.4156	-0.5828	0.4414	0.5411
2.68	-9.4517	-0.1192	-0.8071	-0.0036	-0.0481	-0.0114	21.1550	-17.2257	-1.8391	0.4157	-0.5827	0.4414	0.5412
2.69	-9.4595	-0.1075	-0.7778	-0.0071	-0.0459	-0.0114	20.9969	-17.1185	-1.8302	0.4158	-0.5825	0.4413	0.5413
2.7	-9.4475	-0.0987	-0.7867	-0.0072	-0.0497	-0.0103	21.0956	-17.0370	-1.8619	0.4159	-0.5824	0.4412	0.5415
2.71	-9.4506	-0.0849	-0.7656	-0.0050	-0.0532	-0.0098	20.8590	-17.1699	-1.7315	0.4160	-0.5822	0.4412	0.5416
2.72	-9.4405	-0.0828	-0.7516	-0.0097	-0.0569	-0.0099	20.7522	-17.1563	-1.7657	0.4161	-0.5821	0.4411	0.5418
2.73	-9.4286	-0.0700	-0.7605	-0.0108	-0.0541	-0.0110	21.1268	-17.1616	-1.8692	0.4162	-0.5819	0.4410	0.5419
2.74	-9.3653	-0.0666	-0.7633	-0.0173	-0.0677	-0.0126	21.0699	-17.1551	-2.0622	0.4163	-0.5817	0.4409	0.5421
2.75	-9.3307	-0.0658	-0.7193	-0.0240	-0.0665	-0.0112	20.9412	-17.1705	-1.7867	0.4164	-0.5816	0.4407	0.5424
2.76	-9.3330	-0.0608	-0.7115	-0.0351	-0.0643	-0.0122	21.0700	-17.0155	-1.7883	0.4164	-0.5814	0.4405	0.5426
2.77	-9.3617	-0.0705	-0.6937	-0.0337	-0.0584	-0.0116	20.8242	-17.1716	-2.0014	0.4165	-0.5813	0.4404	0.5428
2.78	-9.4488	-0.0879	-0.6764	-0.0354	-0.0538	-0.0110	20.6553	-17.0679	-1.8157	0.4165	-0.5812	0.4402	0.5431
2.79	-9.4713	-0.1184	-0.7006	-0.0456	-0.0511	-0.0130	20.8266	-17.0916	-1.8487	0.4165	-0.5812	0.4400	0.5433
2.8	-9.4531	-0.1464	-0.6972	-0.0379	-0.0562	-0.0118	20.6957	-17.1661	-1.8373	0.4165	-0.5811	0.4399	0.5435
2.81	-9.4310	-0.1569	-0.6851	-0.0407	-0.0580	-0.0099	20.7570	-17.2209	-1.8237	0.4165	-0.5809	0.4397	0.5437
2.82	-9.4190	-0.1718	-0.6772	-0.0404	-0.0620	-0.0109	20.7594	-17.2682	-1.9321	0.4166	-0.5808	0.4395	0.5440
2.83	-9.4176	-0.1708	-0.6660	-0.0402	-0.0542	-0.0094	21.0653	-17.1206	-2.0485	0.4166	-0.5807	0.4393	0.5442
2.84	-9.4045	-0.1723	-0.6669	-0.0405	-0.0567	-0.0104	21.0842	-17.2085	-1.9946	0.4166	-0.5806	0.4392	0.5445
2.85	-9.3928	-0.2010	-0.6728	-0.0387	-0.0528	-0.0103	20.7890	-17.3407	-2.0947	0.4166	-0.5805	0.4390	0.5447
2.86	-9.3882	-0.2131	-0.6783	-0.0348	-0.0544	-0.0099	21.0262	-17.4292	-2.2305	0.4166	-0.5804	0.4389	0.5449
2.87	-9.3826	-0.2034	-0.6722	-0.0307	-0.0529	-0.0110	20.9884	-17.3000	-2.0168	0.4166	-0.5803	0.4387	0.5451
2.88	-9.4291	-0.1970	-0.6581	-0.0280	-0.0533	-0.0114	20.7406	-17.4010	-2.0735	0.4167	-0.5802	0.4386	0.5453
2.89	-9.4418	-0.1864	-0.6854	-0.0336	-0.0536	-0.0097	20.8669	-17.4676	-2.2101	0.4167	-0.5801	0.4384	0.5455
2.9	-9.4220	-0.1866	-0.6549	-0.0277	-0.0659	-0.0104	20.9840	-17.2460	-2.0972	0.4168	-0.5800	0.4383	0.5457
2.91	-9.4202	-0.1866	-0.6287	-0.0200	-0.0689	-0.0102	20.8991	-17.3555	-2.2700	0.4169	-0.5798	0.4381	0.5460
2.92	-9.3658	-0.2051	-0.6563	-0.0210	-0.0634	-0.0094	20.8378	-17.4130	-2.0276	0.4170	-0.5796	0.4380	0.5462
2.93	-9.3670	-0.2085	-0.6263	-0.0176	-0.0655	-0.0030	20.8944	-17.0938	-1.9949	0.4170	-0.5795	0.4379	0.5464
2.94	-9.3543	-0.1818	-0.6516	-0.0161	-0.0564	0.0016	20.6841	-17.2245	-2.2129	0.4171	-0.5793	0.4378	0.5466
2.95	-9.3570	-0.1661	-0.6373	-0.0081	-0.0540	0.0110	20.7498	-17.2597	-2.3374	0.4171	-0.5791	0.4378	0.5468
2.96	-9.3808	-0.1499	-0.6621	-0.0033	-0.0448	0.0143	20.7848	-17.2475	-2.2052	0.4172	-0.5789	0.4378	0.5470
2.97	-9.3083	-0.1488	-0.6716	-0.0013	-0.0527	0.0138	20.6745	-17.2549	-2.0759	0.4172	-0.5787	0.4378	0.5472
2.98	-9.4044	-0.1144	-0.6006	0.0064	-0.0490	0.0096	20.6578	-17.2358	-2.0083	0.4173	-0.5784	0.4379	0.5473
2.99	-9.4162	-0.1219	-0.6750	0.0045	-0.0369	0.0131	20.5441	-17.0332	-2.0198	0.4173	-0.5782	0.4379	0.5475
3	-9.3963	-0.1020	-0.6514	0.0176	-0.0461	0.0149	20.8122	-17.2890	-2.1174	0.4174	-0.5780	0.4380	0.5476
3.01	-9.3716	-0.0805	-0.6088	0.0164	-0.0456	0.0109	20.8745	-17.3300	-2.2331	0.4175	-0.5778	0.4381	0.5477
3.02	-9.4244	-0.0849	-0.5996	0.0159	-0.0443	0.0123	21.0668	-17.1782	-2.1623	0.4176	-0.5775	0.4381	0.5478
3.03	-9.4525	-0.0726	-0.6364	0.0158	-0.0400	0.0125	21.2948	-17.1411	-1.9393	0.4177	-0.5773	0.4382	0.5479
3.04	-9.4594	-0.0519	-0.6087	0.0163	-0.0508	0.0177	21.6859	-16.9743	-1.7511	0.4178	-0.5770	0.4383	0.5481
3.05	-9.4552	-0.0270	-0.6012	0.0095	-0.0434	0.0078	21.0406	-17.3218	-2.0681	0.4179	-0.5768	0.4384	0.5482
3.06	-9.4261	-0.0546	-0.6088	-0.0015	-0.0443	0.0040	20.8665	-18.1167	-2.2569	0.4179	-0.5766	0.4384	0.5483
3.07	-9.4239	-0.0781	-0.6269	-0.0054	-0.0546	0.0038	20.7319	-18.0186	-2.1559	0.4180	-0.5764	0.4384	0.5485
3.08	-9.4330	-0.0455	-0.6162	0.0129	-0.0510	0.0084	20.7637	-17.1876	-2.3840	0.4181	-0.5762	0.4384	0.5486
3.09	-9.3985	-0.0693	-0.6169	0.0062	-0.0569	0.0101	20.8979	-17.4020	-2.1622	0.4182	-0.5759	0.4384	0.5488
3.1	-9.3975	-0.0364	-0.5768	0.0107	-0.0570	0.0151	20.7396	-17.3228	-2.1079	0.4183	-0.5757	0.4385	0.5490
3.11	-9.3991	0.0059	-0.5657	0.0159	-0.0494	0.0186	20.6761	-17.3349	-2.1092	0.4184	-0.5754	0.4385	0.5491
3.12	-9.3624	0.0261	-0.5549	0.0062	-0.0545	0.0152	20.6243	-17.1186	-2.3240	0.4184	-0.5752	0.4386	0.5493
3.13	-9.3658	0.0212	-0.5247	-0.0081	-0.0495	0.0168	20.5601	-17.1888	-2.4060	0.4185	-0.5750	0.4386	0.5495
3.14	-9.4223	0.0286	-0.5439	-0.0078	-0.0362	0.0154	20.5818	-17.1626	-2.0666	0.4184	-0.5748	0.4386	0.5497
3.15	-9.3853	0.0137	-0.5847	-0.0097	-0.0386	0.0165	20.5824	-17.2634	-2.2881	0.4184	-0.5746	0.4386	0.5498
3.16	-9.3791	-0.0175	-0.5464	-0.0091	-0.0384	0.0204	20.7140	-17.4563	-2.2823	0.4184	-0.5744	0.4387	0.5500
3.17	-9.4338	-0.0349	-0.5642	-0.0106	-0.0257	0.0207	20.5722	-17.2687	-2.4021	0.4184	-0.5743	0.4387	0.5502
3.18	-9.4171	-0.0698	-0.5787	-0.0137	-0.0405	0.0235	20.4890	-17.2672	-2.3020	0.4183	-0.5741	0.4388	0.5504
3.19	-9.3801	-0.0832	-0.5468	-0.0102	-0.0333	0.0277	20.5966	-17.2108	-2.1760	0.4183	-0.5739	0.4388	0.5505
3.2	-9.3581	-0.1240	-0.5144	0.0055	-0.0233	0.0338	20.5867	-17.6370	-2.2690	0.4182	-0.5737	0.4390	0.5507
3.21	-9.4509	-0.1343	-0.5198	0.0185	-0.0211	0.0413	20.8751	-17.6549	-2.4013	0.4182	-0.5735	0.4392	0.5508
3.22	-9.4214	-0.1218	-0.5905	0.0213	-0.0151	0.0449	20.8135	-17.3686	-2.2779	0.4181	-0.5732	0.4394	0.5509
3.23	-9.5062	-0.0548	-0.5035	0.0399	-0.0248	0.0580	20.8923	-17.6222	-2.3216	0.4181	-0.5729	0.4397	0.5510
3.24	-9.5467	0.0077	-0.5648	0.0415	-0.0246	0.0630	20.6811	-17.5924	-2.2206	0.4181	-0.5726	0.4401	0.5511
3.25	-9.5154	0.0373	-0.5624	0.0446	-0.0397	0.0626	20.5767	-17.6206	-2.1912	0.4181	-0.5722	0.4404	0.5513
3.26	-9.4997	0.1025	-0.5176	0.0528	-0.0507	0.0629	20.5295	-17.5923	-2.2310	0.4181	-0.5718	0.4407	0.5514
3.27	-9.4276	0.1602	-0.5250	0.0529	-0.0529	0.0571	20.5195	-17.6500	-2.5740	0.4182	-0.5713	0.4410	0.5516
3.28	-9.4532	0.2017	-0.4598	0.0467	-0.0501	0.0609	20.5978	-17.8185	-2.5017	0.4183	-0.5709	0.4412	0.5517
3.29	-9.4305	0.2449	-0.4884	0.0439	-0.0447	0.0579	20.5647	-17.5556	-2.3564	0.4183	-0.5705	0.4415	0.5519
3.3	-9.3713	0.2882	-0.4720	0.0429	-0.0428	0.0408	20.4132	-17.3708	-2.2768	0.4184	-0.5701	0.4418	0.5520
3.31	-9.3736	0.3137	-0.4331	0.0426	-0.0402	0.0381	20.4468	-17.5695	-2.3820	0.4185	-0.5698	0.4420	0.5521
3.32	-9.3671	0.3172	-0.4591	0.0367	-0.0343	0.0282	20.5120	-17.7404	-2.3196	0.4186	-0.5695	0.4422	0.5522
3.33	-9.3186	0.3177	-0.4395	0.0224	-0.0447	0.0164	20.4546	-17.4105	-2.2588	0.4187	-0.5693	0.4423	0.5523
3.34	-9.3130	0.3457	-0.3821	0.0168	-0.0434	0.0168	20.5472	-17.5290	-2.2173	0.4187	-0.5690	0.4424	0.5525
3.35	-9.3054	0.3424	-0.3719	0.0110	-0.0350	0.0016	20.5933	-17.7238	-2.4907	0.4188	-0.5688	0.4424	0.5525
3.36	-9.3225	0.2926	-0.3450	-0.0023	-0.0236	-0.0098	20.4643	-17.5948	-2.3938	0.4189	-0.5687	0.4424	0.5526
3.37	-9.3370	0.2966	-0.3840	-0.0091	-0.0147	-0.0085	20.3433	-17.6026	-2.5008	0.4189	-0.5687	0.4424	0.5526
3.38	-9.3272	0.2991	-0.3922	-0.0067	-0.0103	-0.0087	20.0555	-17.6664	-2.2643	0.4189	-0.5686	0.4425	0.5527
3.39	-9.3463	0.2857	-0.3855	-0.0121	0.0023	-0.0141	20.4192	-17.7881	-2.4162	0.4188	-0.5686	0.4425	0.5527
3.4	-9.3743	0.2895	-0.4192	-0.0073	0.0155	-0.0233	20.5938	-17.9140	-2.2330	0.4188	-0.5687	0.4425	0.5526
3.41	-9.4154	0.2589	-0.4486	-0.0245	0.0195	-0.0281	20.2387	-17.9529	-2.4020	0.4188	-0.5688	0.4425	0.5525
3.42	-9.3928	0.2454	-0.4884	-0.0137	0.0116	-0.0357	20.4715	-17.7683	-2.5406	0.4188	-0.5689	0.4425	0.5525
3.43	-9.4446	0.2453	-0.4492	-0.0101	0.0068	-0.0314	20.5918	-17.7071	-2.2395	0.4188	-0.5689	0.4424	0.5524
3.44	-9.4283	0.2186	-0.4956	-0.0189	0.0059	-0.0349	20.2984	-17.8006	-2.3458	0.4188	-0.5690	0.4424	0.5524
3.45	-9.4404	0.2542	-0.4786	-0.0120	-0.0109	-0.0360	20.5522	-17.7754	-2.1932	0.4189	-0.5691	0.4423	0.5523
3.46	-9.4829	0.2360	-0.4612	-0.0256	-0.0155	-0.0424	20.5826	-17.8545	-2.2984	0.4189	-0.5691	0.4422	0.5524
3.47	-9.4591	0.1975	-0.4792	-0.0222	-0.0253	-0.0488	20.4663	-17.8124	-2.2787	0.4190	-0.5691	0.4420	0.5524
3.48	-9.4412	0.1703	-0.4406	-0.0291	-0.0354	-0.0553	20.6342	-17.5237	-2.3513	0.4191	-0.5692	0.4418	0.5524
3.49	-9.4190	0.1359	-0.4304	-0.0337	-0.0340	-0.0559	20.4702	-17.4018	-2.4119	0.4192	-0.5692	0.4416	0.5525
3.5	-9.3761	0.1162	-0.4410	-0.0260	-0.0330	-0.0567	20.5075	-17.4362	-2.3982	0.4194	-0.5693	0.4414	0.5525
3.51	-9.4081	0.1028	-0.4174	-0.0181	-0.0309	-0.0605	20.4418	-17.4674	-2.2479	0.4195	-0.5693	0.4412	0.5525
3.52	-9.4570	0.1000	-0.4385	-0.0272	-0.0282	-0.0598	20.4068	-17.6895	-2.4093	0.4196	-0.5693	0.4409	0.5526
3.53	-9.4215	0.0756	-0.4545	-0.0198	-0.0386	-0.0599	20.6582	-17.4965	-2.2316	0.4198	-0.5694	0.4407	0.5526
3.54	-9.3721	0.0746	-0.4351	-0.0172	-0.0458	-0.0603	20.9215	-17.2168	-1.9435	0.4200	-0.5694	0.4405	0.5526
3.55	-9.4077	0.0893	-0.3860	-0.0132	-0.0353	-0.0584	20.6428	-17.4602	-2.2269	0.4202	-0.5694	0.4403	0.5526
3.56	-9.5231	0.1011	-0.4043	-0.0250	-0.0226	-0.0605	20.4200	-18.5134	-2.1690	0.4203	-0.5694	0.4401	0.5526
3.57	-9.4864	0.0835	-0.4545	-0.0186	-0.0380	-0.0584	20.2498	-18.1887	-2.4204	0.4205	-0.5694	0.4399	0.5527
3.58	-9.4721	0.1010	-0.3960	-0.0071	-0.0498	-0.0550	20.6119	-17.3496	-2.2339	0.4207	-0.5694	0.4397	0.5527
3.59	-9.4823	0.0852	-0.3826	-0.0173	-0.0440	-0.0529	20.4559	-17.7782	-2.0700	0.4209	-0.5694	0.4395	0.5528
3.6	-9.5469	0.1049	-0.3828	-0.0296	-0.0468	-0.0494	20.4241	-17.5681	-2.5202	0.4210	-0.5694	0.4392	0.5529
3.61	-9.5249	0.1078	-0.3862	-0.0333	-0.0520	-0.0425	20.8335	-17.6341	-2.5531	0.4211	-0.5693	0.4390	0.5530
3.62	-9.5126	0.0667	-0.3180	-0.0325	-0.0565	-0.0454	20.7054	-17.5599	-2.5082	0.4212	-0.5693	0.4388	0.5531
3.63	-9.5618	0.0206	-0.3024	-0.0355	-0.0493	-0.0469	20.6140	-17.4927	-2.6172	0.4213	-0.5693	0.4385	0.5533
3.64	-9.5280	-0.0069	-0.3406	-0.0331	-0.0588	-0.0458	20.4641	-17.5500	-2.4916	0.4215	-0.5692	0.4383	0.5534
3.65	-9.4832	-0.0149	-0.2802	-0.0329	-0.0667	-0.0478	20.7405	-17.3561	-2.4590	0.4216	-0.5692	0.4380	0.5536
3.66	-9.4683	-0.0179	-0.2521	-0.0332	-0.0698	-0.0402	20.7625	-17.5634	-2.5948	0.4218	-0.5691	0.4377	0.5538
3.67	-9.4511	-0.0151	-0.2548	-0.0297	-0.0797	-0.0352	20.7313	-17.5623	-2.7094	0.4219	-0.5690	0.4374	0.5540
3.68	-9.3819	0.0027	-0.2297	-0.0226	-0.0785	-0.0345	20.3224	-17.3966	-2.6588	0.4221	-0.5688	0.4372	0.5542
3.69	-9.3140	0.0279	-0.1822	-0.0127	-0.0847	-0.0304	20.3741	-17.5831	-2.6832	0.4223	-0.5686	0.4370	0.5544
3.7	-9.2573	0.0194	-0.1514	-0.0255	-0.0704	-0.0332	20.7841	-17.4250	-2.6794	0.4225	-0.5685	0.4368	0.5546
3.71	-9.2740	0.0149	-0.1274	-0.0296	-0.0555	-0.0331	20.6863	-17.4412	-2.6017	0.4226	-0.5684	0.4365	0.5548
3.72	-9.2734	0.0152	-0.1610	-0.0228	-0.0395	-0.0304	20.5270	-17.4044	-2.4477	0.4227	-0.5684	0.4364	0.5549
3.73	-9.2327	-0.0089	-0.1545	-0.0161	-0.0387	-0.0343	20.5230	-17.6517	-2.5514	0.4228	-0.5683	0.4363	0.5549
3.74	-9.2620	0.0059	-0.1324	-0.0117	-0.0286	-0.0255	20.6076	-17.6650	-2.5871	0.4228	-0.5683	0.4362	0.5550
3.75	-9.2991	0.0311	-0.1500	-0.0173	-0.0190	-0.0128	20.5609	-17.3919	-2.5849	0.4229	-0.5682	0.4361	0.5551
3.76	-9.3458	0.0160	-0.1535	-0.0117	-0.0198	-0.0137	20.7260	-17.4419	-2.5739	0.4229	-0.5682	0.4361	0.5551
3.77	-9.3952	0.0205	-0.1530	-0.0147	-0.0100	-0.0134	20.5872	-17.4415	-2.6233	0.4229	-0.5682	0.4361	0.5552
3.78	-9.4511	0.0212	-0.1556	-0.0090	-0.0023	-0.0085	20.5850	-17.7232	-2.7866	0.4228	-0.5681	0.4361	0.5552
3.79	-9.4344	0.0156	-0.1687	-0.0070	-0.0109	-0.0091	20.5631	-17.5757	-2.6419	0.4228	-0.5681	0.4361	0.5552
3.8	-9.4352	0.0404	-0.1498	-0.0077	-0.0138	-0.0094	20.4820	-17.4949	-2.7050	0.4229	-0.5680	0.4361	0.5553
3.81	-9.3799	0.0551	-0.1737	-0.0057	-0.0100	-0.0027	20.7094	-17.5473	-2.5940	0.4228	-0.5680	0.4362	0.5553
3.82	-9.3597	0.0984	-0.1499	-0.0067	-0.0106	-0.0066	20.5503	-17.3996	-2.5750	0.4228	-0.5679	0.4362	0.5553
3.83	-9.3653	0.1257	-0.1626	-0.0077	0.0055	-0.0080	20.6201	-17.5837	-2.5887	0.4228	-0.5679	0.4363	0.5553
3.84	-9.3013	0.1231	-0.1767	-0.0095	0.0099	-0.0174	20.6807	-17.3999	-2.5760	0.4228	-0.5680	0.4363	0.5553
3.85	-9.3379	0.1327	-0.1268	-0.0131	0.0054	-0.0175	20.6820	-17.6112	-2.5894	0.4227	-0.5680	0.4363	0.5553
3.86	-9.3497	0.1462	-0.1779	-0.0192	0.0284	-0.0166	20.5501	-17.4891	-2.5645	0.4227	-0.5681	0.4363	0.5552
3.87	-9.2917	0.1600	-0.1991	-0.0349	0.0222	-0.0315	20.4905	-17.4466	-2.7646	0.4226	-0.5682	0.4363	0.5552
3.88	-9.3345	0.2026	-0.1384	-0.0333	0.0292	-0.0274	20.4436	-17.5497	-2.4501	0.4225	-0.5684	0.4363	0.5551
3.89	-9.3483	0.2166	-0.2016	-0.0600	0.0430	-0.0296	20.2940	-17.5035	-2.3590	0.4223	-0.5686	0.4362	0.5550
3.9	-9.3067	0.1872	-0.2075	-0.0725	0.0340	-0.0350	20.4290	-17.5220	-2.5489	0.4220	-0.5689	0.4361	0.5550
3.91	-9.3093	0.1718	-0.1903	-0.0797	0.0444	-0.0347	20.5649	-17.3533	-2.4207	0.4218	-0.5692	0.4359	0.5550
3.92	-9.3210	0.1317	-0.2239	-0.0899	0.0515	-0.0341	20.5824	-17.3292	-2.3804	0.4215	-0.5696	0.4358	0.5550
3.93	-9.4045	0.1197	-0.1980	-0.0913	0.0609	-0.0301	20.5986	-17.3573	-2.6041	0.4212	-0.5699	0.4357	0.5550
3.94	-9.3638	0.1104	-0.2507	-0.0979	0.0530	-0.0182	20.5336	-17.4437	-2.5897	0.4208	-0.5703	0.4355	0.5550
3.95	-9.3644	0.0992	-0.2281	-0.0973	0.0566	-0.0152	20.5230	-17.4317	-2.5596	0.4204	-0.5706	0.4354	0.5550
3.96	-9.3789	0.0950	-0.2799	-0.1101	0.0754	-0.0197	20.6336	-17.4184	-2.6983	0.4200	-0.5710	0.4353	0.5550
3.97	-9.4065	0.0476	-0.3021	-0.1126	0.0729	-0.0282	20.4147	-17.4557	-2.5349	0.4196	-0.5715	0.4352	0.5550
3.98	-9.4716	-0.0049	-0.3333	-0.1106	0.0871	-0.0324	20.7822	-17.5297	-2.6682	0.4191	-0.5720	0.4350	0.5549
3.99	-9.4532	-0.0545	-0.4108	-0.1085	0.0866	-0.0313	20.8363	-17.5248	-2.5857	0.4187	-0.5724	0.4349	0.5549
4	-9.4461	-0.0727	-0.4294	-0.0909	0.0889	-0.0157	20.4479	-17.4185	-2.6859	0.4182	-0.5729	0.4349	0.5548
4.01	-9.3968	-0.0800	-0.4775	-0.0836	0.0787	-0.0125	20.4989	-17.3361	-2.7786	0.4178	-0.5732	0.4349	0.5547
4.02	-9.4579	-0.0702	-0.4749	-0.0803	0.0821	-0.0086	20.7430	-17.4882	-2.3910	0.4174	-0.5736	0.4349	0.5546
4.03	-9.5021	-0.0813	-0.5284	-0.0614	0.0777	-0.0081	21.0460	-17.3685	-2.4090	0.4171	-0.5739	0.4349	0.5545
4.04	-9.5075	-0.0965	-0.5157	-0.0398	0.0545	-0.0077	21.2705	-17.3822	-2.3354	0.4168	-0.5741	0.4350	0.5545
4.05	-9.5463	-0.1022	-0.4976	-0.0227	0.0654	-0.0092	20.7287	-17.5242	-2.3276	0.4166	-0.5743	0.4351	0.5543
4.06	-9.5677	-0.1008	-0.5524	0.0072	0.0671	-0.0077	20.3872	-18.2727	-2.2975	0.4165	-0.5745	0.4353	0.5541
4.07	-9.5865	-0.0537	-0.5784	0.0297	0.0568	-0.0064	20.4177	-17.9204	-2.4178	0.4164	-0.5745	0.4356	0.5539
4.08	-9.6150	-0.0073	-0.5996	0.0421	0.0465	-0.0094	20.4962	-17.3085	-2.4891	0.4164	-0.5745	0.4359	0.5536
4.09	-9.6365	0.0412	-0.6151	0.0590	0.0478	-0.0245	20.3708	-17.5900	-2.5652	0.4165	-0.5745	0.4362	0.5533
4.1	-9.6221	0.0748	-0.6265	0.0710	0.0313	-0.0318	20.5074	-17.4063	-2.5480	0.4167	-0.5745	0.4364	0.5530
4.11	-9.5611	0.1174	-0.6410	0.0688	0.0128	-0.0452	20.5081	-17.4629	-2.1595	0.4170	-0.5744	0.4366	0.5527
4.12	-9.4724	0.1564	-0.5952	0.0822	-0.0117	-0.0544	20.4905	-17.5111	-2.3996	0.4174	-0.5743	0.4367	0.5525
4.13	-9.4664	0.1679	-0.5355	0.0796	-0.0124	-0.0651	20.5523	-17.4799	-2.4058	0.4178	-0.5742	0.4368	0.5522
4.14	-9.4018	0.1577	-0.5296	0.0706	-0.0251	-0.0669	20.7058	-17.5393	-2.3942	0.4182	-0.5741	0.4369	0.5520
4.15	-9.3094	0.1623	-0.4806	0.0695	-0.0421	-0.0597	20.6568	-17.7365	-2.5290	0.4186	-0.5739	0.4369	0.5518
4.16	-9.2785	0.1785	-0.4201	0.0667	-0.0298	-0.0583	20.5547	-17.4567	-2.4349	0.4190	-0.5737	0.4369	0.5517
4.17	-9.3227	0.1724	-0.4126	0.0480	-0.0135	-0.0588	20.6806	-17.6610	-2.3871	0.4193	-0.5737	0.4370	0.5515
4.18	-9.3976	0.1724	-0.4287	0.0417	0.0040	-0.0480	20.6841	-17.6221	-2.4069	0.4195	-0.5736	0.4370	0.5513
4.19	-9.4715	0.1734	-0.4366	0.0312	0.0103	-0.0474	20.6784	-17.5036	-2.4011	0.4197	-0.5736	0.4371	0.5511
4.2	-9.4676	0.1374	-0.4805	0.0193	0.0127	-0.0505	20.6877	-17.4240	-2.4070	0.4199	-0.5737	0.4371	0.5509
4.21	-9.4435	0.0960	-0.4971	0.0176	0.0070	-0.0535	20.6686	-17.5505	-2.3968	0.4200	-0.5737	0.4371	0.5508
4.22	-9.4031	0.0406	-0.5142	0.0155	-0.0014	-0.0539	20.8069	-17.6536	-2.5145	0.4202	-0.5738	0.4371	0.5506
4.23	-9.4266	0.0088	-0.4888	0.0079	-0.0160	-0.0513	20.5513	-17.4438	-2.3130	0.4204	-0.5738	0.4370	0.5505
4.24	-9.4117	-0.0128	-0.4769	0.0015	-0.0195	-0.0576	20.4886	-17.2671	-2.3401	0.4205	-0.5738	0.4369	0.5505
4.25	-9.3949	-0.0150	-0.4326	0.0034	-0.0213	-0.0393	20.5080	-17.2979	-2.1957	0.4207	-0.5737	0.4369	0.5505
4.26	-9.3707	0.0068	-0.4228	-0.0020	-0.0130	-0.0423	20.5191	-17.1320	-2.2706	0.4208	-0.5737	0.4368	0.5504
4.27	-9.4314	0.0202	-0.3732	-0.0137	-0.0140	-0.0353	20.6562	-17.3198	-2.1241	0.4209	-0.5737	0.4367	0.5504
4.28	-9.5664	0.0362	-0.3604	-0.0271	0.0182	-0.0424	20.3995	-17.4047	-2.2279	0.4208	-0.5739	0.4366	0.5504
4.29	-9.4981	-0.0108	-0.4319	-0.0418	0.0115	-0.0490	20.5221	-17.2396	-2.3014	0.4208	-0.5741	0.4365	0.5503
4.3	-9.5227	-0.0222	-0.3737	-0.0535	0.0106	-0.0496	20.5015	-17.4742	-2.0930	0.4208	-0.5742	0.4363	0.5503
4.31	-9.5395	-0.0609	-0.4446	-0.0784	0.0288	-0.0456	20.7640	-17.3777	-2.3575	0.4206	-0.5745	0.4361	0.5503
4.32	-9.4861	-0.0919	-0.4899	-0.0856	0.0062	-0.0291	20.7772	-17.3598	-2.2027	0.4204	-0.5747	0.4359	0.5504
4.33	-9.5248	-0.0777	-0.4279	-0.0849	-0.0023	-0.0144	20.7720	-17.5994	-2.2202	0.4201	-0.5749	0.4357	0.5506
4.34	-9.5507	-0.0832	-0.4581	-0.1019	-0.0102	-0.0000	20.7620	-17.6656	-2.4149	0.4199	-0.5750	0.4355	0.5508
4.35	-9.5471	-0.0918	-0.4338	-0.1089	-0.0276	0.0160	20.7882	-17.5292	-2.2985	0.4195	-0.5751	0.4353	0.5512
4.36	-9.4768	-0.1326	-0.4377	-0.1111	-0.0446	0.0244	20.7401	-17.5742	-2.4340	0.4192	-0.5751	0.4350	0.5516
4.37	-9.3744	-0.1484	-0.4558	-0.1041	-0.0530	0.0377	20.6998	-17.4711	-2.4861	0.4189	-0.5750	0.4348	0.5521
4.38	-9.3186	-0.1572	-0.4116	-0.0927	-0.0640	0.0555	20.8135	-17.3154	-2.3544	0.4186	-0.5749	0.4347	0.5526
4.39	-9.3163	-0.1768	-0.3839	-0.0854	-0.0559	0.0686	20.6707	-17.4779	-2.5257	0.4183	-0.5747	0.4346	0.5531
4.4	-9.2577	-0.1440	-0.3867	-0.0697	-0.0566	0.0743	20.6758	-17.4587	-2.4746	0.4179	-0.5745	0.4346	0.5535
4.41	-9.2875	-0.0771	-0.3189	-0.0504	-0.0640	0.0870	20.5335	-17.6019	-2.5260	0.4177	-0.5742	0.4346	0.5540
4.42	-9.3238	-0.0165	-0.3302	-0.0386	-0.0412	0.0776	20.4175	-17.4355	-2.4043	0.4174	-0.5739	0.4348	0.5544
4.43	-9.3073	0.0165	-0.3378	-0.0373	-0.0297	0.0726	20.4095	-17.5742	-2.4122	0.4171	-0.5737	0.4349	0.5547
4.44	-9.3138	0.0460	-0.3189	-0.0326	-0.0340	0.0762	20.5444	-17.5108	-2.3801	0.4169	-0.5735	0.4350	0.5551
4.45	-9.2981	0.0731	-0.3678	-0.0320	-0.0214	0.0612	20.4393	-17.4253	-2.4887	0.4166	-0.5733	0.4352	0.5554
4.46	-9.2939	0.0556	-0.3714	-0.0292	-0.0153	0.0634	20.3229	-17.5571	-2.4209	0.4164	-0.5731	0.4353	0.5556
4.47	-9.3416	0.0675	-0.3831	-0.0232	-0.0151	0.0620	20.3143	-17.5462	-2.3891	0.4161	-0.5729	0.4355	0.5558
4.48	-9.4016	0.0962	-0.3506	-0.0066	-0.0173	0.0644	20.1909	-17.5490	-2.5876	0.4160	-0.5727	0.4357	0.5560
4.49	-9.4352	0.1122	-0.3375	0.0065	-0.0127	0.0641	20.3237	-17.5521	-2.5788	0.4158	-0.5724	0.4360	0.5562
4.5	-9.4567	0.1514	-0.3180	0.0192	-0.0207	0.0554	20.3290	-17.5420	-2.6100	0.4157	-0.5722	0.4362	0.5564
4.51	-9.4622	0.1590	-0.3037	0.0088	-0.0213	0.0495	20.1968	-17.5727	-2.5430	0.4156	-0.5719	0.4364	0.5565
4.52	-9.4174	0.1036	-0.3097	0.0004	-0.0212	0.0316	20.5017	-17.8613	-2.2927	0.4155	-0.5717	0.4366	0.5566
4.53	-9.4452	0.0538	-0.2721	0.0096	-0.0084	0.0142	20.8241	-17.7012	-2.2508	0.4155	-0.5716	0.4367	0.5567
4.54	-9.3948	-0.0478	-0.3059	0.0064	-0.0047	-0.0042	21.3734	-17.4254	-2.1122	0.4155	-0.5715	0.4368	0.5567
4.55	-9.3977	-0.0690	-0.2794	0.0240	0.0054	0.0023	20.8015	-17.8460	-2.4033	0.4156	-0.5714	0.4370	0.5566
4.56	-9.3721	-0.0844	-0.3110	0.0387	0.0021	0.0163	20.3554	-18.5698	-2.5099	0.4156	-0.5712	0.4372	0.5566
4.57	-9.3220	-0.0259	-0.3080	0.0626	-0.0054	0.0235	20.3822	-18.4638	-2.4625	0.4157	-0.5710	0.4375	0.5565
4.58	-9.2777	0.0340	-0.2544	0.0716	0.0004	0.0505	20.3919	-17.5807	-2.4334	0.4157	-0.5707	0.4380	0.5565
4.59	-9.2810	0.0991	-0.2467	0.1036	0.0095	0.0702	20.3648	-17.7153	-2.6190	0.4158	-0.5703	0.4385	0.5564
4.6	-9.2544	0.2578	-0.2610	0.1212	0.0213	0.0748	20.1981	-17.6857	-2.6036	0.4158	-0.5699	0.4392	0.5562
4.61	-9.1380	0.3406	-0.2515	0.1201	0.0348	0.0736	20.1270	-17.5481	-2.4694	0.4159	-0.5695	0.4399	0.5560
4.62	-9.0671	0.3727	-0.2714	0.1209	0.0579	0.0716	20.2481	-17.6928	-2.5835	0.4159	-0.5692	0.4406	0.5558
4.63	-9.1321	0.4499	-0.3104	0.1213	0.0957	0.0646	20.1517	-17.7345	-2.3836	0.4158	-0.5690	0.4415	0.5554
4.64	-9.2591	0.4641	-0.3655	0.1038	0.1208	0.0342	20.0200	-17.6572	-2.3004	0.4157	-0.5690	0.4422	0.5549
4.65	-9.3473	0.4520	-0.4070	0.0877	0.1308	0.0056	20.0471	-17.6731	-2.1823	0.4156	-0.5691	0.4428	0.5544
4.66	-9.4160	0.4361	-0.4173	0.0717	0.1366	-0.0156	20.1754	-17.7340	-2.3725	0.4156	-0.5692	0.4434	0.5538
4.67	-9.4568	0.4122	-0.4647	0.0467	0.1400	-0.0413	20.0158	-17.7190	-2.1048	0.4155	-0.5696	0.4438	0.5532
4.68	-9.4926	0.4032	-0.4870	0.0453	0.1286	-0.0566	20.0609	-17.6390	-2.1145	0.4154	-0.5699	0.4441	0.5527
4.69	-9.4614	0.3775	-0.5001	0.0431	0.1086	-0.0608	20.1152	-17.8567	-2.0920	0.4154	-0.5702	0.4443	0.5521
4.7	-9.4418	0.3850	-0.4695	0.0233	0.0944	-0.0579	20.1914	-17.7905	-1.9247	0.4154	-0.5705	0.4445	0.5517
4.71	-9.3964	0.3664	-0.5073	0.0105	0.0978	-0.0589	20.2136	-17.7404	-1.9142	0.4154	-0.5708	0.4447	0.5513
4.72	-9.3170	0.3289	-0.5320	-0.0069	0.0879	-0.0566	20.2339	-17.8896	-2.0430	0.4153	-0.5711	0.4448	0.5509
4.73	-9.3357	0.3134	-0.5140	-0.0050	0.0972	-0.0557	20.1443	-17.8061	-1.9700	0.4152	-0.5714	0.4449	0.5506
4.74	-9.3410	0.2540	-0.5666	-0.0243	0.1033	-0.0534	20.1862	-17.6860	-1.8752	0.4150	-0.5718	0.4450	0.5502
4.75	-9.3527	0.2359	-0.5720	-0.0318	0.1118	-0.0527	20.2312	-17.6490	-2.1543	0.4148	-0.5723	0.4451	0.5499
4.76	-9.3468	0.2011	-0.5839	-0.0351	0.1153	-0.0580	19.9648	-17.9711	-2.0596	0.4146	-0.5727	0.4451	0.5495
4.77	-9.3725	0.1670	-0.6025	-0.0371	0.1107	-0.0448	20.2908	-17.6237	-2.0086	0.4144	-0.5731	0.4452	0.5492
4.78	-9.4049	0.1510	-0.6152	-0.0387	0.1080	-0.0420	19.9892	-17.6488	-1.9616	0.4141	-0.5736	0.4453	0.5489
4.79	-9.3931	0.1512	-0.6440	-0.0364	0.1133	-0.0442	20.1966	-17.7819	-1.7774	0.4138	-0.5740	0.4454	0.5486
4.8	-9.3713	0.1682	-0.6542	-0.0366	0.1102	-0.0331	20.2913	-17.6308	-1.7474	0.4135	-0.5744	0.4455	0.5483
4.81	-9.3400	0.1780	-0.6872	-0.0349	0.1128	-0.0333	20.1847	-17.7048	-1.7114	0.4133	-0.5748	0.4456	0.5480
4.82	-9.3119	0.2077	-0.7088	-0.0356	0.1194	-0.0284	20.2302	-17.5694	-1.8725	0.4129	-0.5752	0.4458	0.5476
4.83	-9.3155	0.2510	-0.7295	-0.0395	0.1228	-0.0294	19.9785	-17.7065	-1.7696	0.4126	-0.5756	0.4459	0.5473
4.84	-9.3384	0.3048	-0.7696	-0.0383	0.1329	-0.0209	20.0880	-17.6489	-1.6272	0.4122	-0.5760	0.4461	0.5470
4.85	-9.3773	0.3479	-0.7890	-0.0540	0.1451	-0.0210	20.2280	-17.7532	-1.9066	0.4118	-0.5765	0.4463	0.5467
4.86	-9.4244	0.3992	-0.8203	-0.0548	0.1406	-0.0188	20.1860	-17.7814	-1.5575	0.4114	-0.5770	0.4465	0.5464
4.87	-9.4998	0.4495	-0.8353	-0.0638	0.1496	-0.0217	20.2809	-17.7145	-1.6196	0.4109	-0.5775	0.4466	0.5460
4.88	-9.6263	0.4657	-0.8159	-0.0811	0.1341	-0.0286	20.2387	-17.6609	-1.8480	0.4104	-0.5781	0.4467	0.5458
4.89	-9.7293	0.4330	-0.8154	-0.1000	0.1252	-0.0396	20.2764	-17.6762	-1.8334	0.4099	-0.5786	0.4467	0.5456
4.9	-9.7370	0.3666	-0.8237	-0.1113	0.0898	-0.0627	20.5491	-17.6781	-1.8182	0.4095	-0.5792	0.4465	0.5454
4.91	-9.6288	0.2882	-0.8351	-0.1107	0.0574	-0.0838	20.2454	-17.8266	-1.6914	0.4093	-0.5797	0.4462	0.5453
4.92	-9.4734	0.2409	-0.8220	-0.0930	0.0289	-0.0912	20.4796	-17.8782	-1.8364	0.4091	-0.5801	0.4458	0.5453
4.93	-9.3040	0.2233	-0.8382	-0.0891	0.0103	-0.1070	20.4816	-17.7180	-1.7353	0.4091	-0.5805	0.4454	0.5452
4.94	-9.1691	0.2082	-0.8225	-0.0766	0.0172	-0.1142	20.2306	-17.8258	-1.7235	0.4091	-0.5809	0.4449	0.5451
4.95	-9.1791	0.2337	-0.7809	-0.0549	0.0325	-0.1105	20.3934	-17.7981	-1.7869	0.4092	-0.5813	0.4446	0.5450
4.96	-9.2228	0.2482	-0.8321	-0.0426	0.0620	-0.1129	20.3931	-17.7457	-1.9493	0.4092	-0.5817	0.4444	0.5447
4.97	-9.2813	0.2177	-0.8314	-0.0284	0.0810	-0.1129	20.2864	-17.7633	-1.6858	0.4092	-0.5822	0.4442	0.5443
4.98	-9.4061	0.2174	-0.8403	-0.0210	0.1019	-0.1232	20.4736	-17.6125	-1.6238	0.4092	-0.5827	0.4441	0.5438
4.99	-9.4882	0.2106	-0.8863	-0.0103	0.1117	-0.1329	20.4818	-17.5047	-1.7203	0.4093	-0.5833	0.4440	0.5433
5	-9.5142	0.1638	-0.9025	-0.0081	0.0936	-0.1432	20.4918	-17.4905	-1.8638	0.4094	-0.5838	0.4438	0.5427
5.01	-9.5044	0.1597	-0.9298	-0.0046	0.0979	-0.1549	20.4639	-17.5003	-1.5516	0.4096	-0.5844	0.4437	0.5422
5.02	-9.4763	0.1494	-0.9495	-0.0061	0.1022	-0.1650	20.5403	-17.4670	-1.5999	0.4097	-0.5850	0.4435	0.5415
5.03	-9.4198	0.0648	-0.9861	-0.0150	0.0994	-0.1605	20.6417	-17.2888	-1.3864	0.4099	-0.5856	0.4432	0.5410
5.04	-9.4385	0.0130	-0.9861	-0.0272	0.1087	-0.1608	20.9404	-17.1364	-1.2318	0.4100	-0.5862	0.4430	0.5404
5.05	-9.4625	-0.0439	-1.0311	-0.0344	0.1124	-0.1421	20.8373	-17.3843	-1.4854	0.4100	-0.5868	0.4428	0.5399
5.06	-9.4372	-0.0761	-1.0604	-0.0335	0.0941	-0.1259	20.6652	-18.1560	-1.5866	0.4100	-0.5874	0.4426	0.5394
5.07	-9.4303	-0.0915	-1.0439	-0.0364	0.0800	-0.1055	20.5064	-17.9566	-1.5361	0.4100	-0.5878	0.4425	0.5390
5.08	-9.4127	-0.1162	-1.0686	-0.0516	0.0757	-0.0799	20.8448	-17.2303	-1.5985	0.4099	-0.5883	0.4424	0.5388
5.09	-9.4216	-0.1227	-1.0663	-0.0550	0.0754	-0.0607	20.9051	-17.4099	-1.4978	0.4097	-0.5887	0.4423	0.5385
5.1	-9.4607	-0.1307	-1.0805	-0.0605	0.0594	-0.0356	20.7597	-17.4251	-1.4736	0.4095	-0.5890	0.4422	0.5384
5.11	-9.4926	-0.1402	-1.0944	-0.0576	0.0485	-0.0114	20.9975	-17.3730	-1.4574	0.4092	-0.5892	0.4422	0.5384
5.12	-9.5317	-0.1247	-1.0919	-0.0563	0.0304	-0.0010	20.7860	-17.2301	-1.5290	0.4089	-0.5894	0.4422	0.5384
5.13	-9.5088	-0.1167	-1.0763	-0.0520	0.0145	0.0141	20.5745	-17.3504	-1.5753	0.4087	-0.5894	0.4422	0.5385
5.14	-9.5244	-0.1186	-1.0387	-0.0410	0.0007	0.0289	20.7900	-17.4708	-1.5789	0.4084	-0.5894	0.4423	0.5387
5.15	-9.5449	-0.0828	-1.0342	-0.0323	-0.0190	0.0321	20.4615	-17.3279	-1.6434	0.4083	-0.5893	0.4423	0.5389
5.16	-9.5468	-0.0755	-1.0211	-0.0180	-0.0312	0.0344	20.5242	-17.4414	-1.4014	0.4082	-0.5891	0.4424	0.5391
5.17	-9.4759	-0.0606	-1.0126	-0.0067	-0.0472	0.0367	20.5792	-17.4058	-1.5902	0.4081	-0.5889	0.4425	0.5393
5.18	-9.5219	0.0022	-0.9545	0.0150	-0.0535	0.0262	20.4578	-17.2463	-1.4746	0.4082	-0.5886	0.4426	0.5395
5.19	-9.5295	0.0542	-0.9776	0.0162	-0.0566	0.0143	20.4641	-17.3180	-1.4598	0.4083	-0.5883	0.4427	0.5397
5.2	-9.5636	0.0414	-0.9305	0.0268	-0.0821	0.0045	20.5088	-17.4037	-1.5480	0.4085	-0.5879	0.4427	0.5399
5.21	-9.5604	0.0460	-0.9533	0.0425	-0.0918	-0.0057	20.6783	-17.3167	-1.5798	0.4088	-0.5876	0.4427	0.5401
5.22	-9.6648	0.0957	-0.8924	0.0587	-0.1203	-0.0145	20.5119	-17.6536	-1.4582	0.4092	-0.5871	0.4426	0.5403
5.23	-9.8142	0.1068	-0.8890	0.0665	-0.1319	-0.0343	20.4545	-17.5206	-1.4585	0.4098	-0.5866	0.4425	0.5405
5.24	-9.8400	0.0773	-0.9402	0.0681	-0.1708	-0.0505	20.4767	-17.4588	-1.5580	0.4104	-0.5861	0.4423	0.5407
5.25	-9.8075	0.0566	-0.9188	0.0885	-0.2185	-0.0641	20.4613	-17.3381	-1.5711	0.4113	-0.5854	0.4420	0.5411
5.26	-9.6386	0.0373	-0.8884	0.1059	-0.2593	-0.0828	20.4832	-17.3280	-1.4618	0.4124	-0.5846	0.4416	0.5414
5.27	-9.4960	0.0299	-0.8122	0.1201	-0.2789	-0.1091	20.6427	-17.4768	-1.6681	0.4136	-0.5838	0.4412	0.5418
5.28	-9.4314	0.0265	-0.7295	0.1226	-0.2781	-0.1151	20.6356	-17.2246	-1.6509	0.4148	-0.5830	0.4407	0.5421
5.29	-9.5069	0.0062	-0.6595	0.1207	-0.2804	-0.1317	20.8655	-17.4213	-1.7782	0.4161	-0.5822	0.4401	0.5424
5.3	-9.4593	-0.0573	-0.7093	0.1215	-0.2916	-0.1345	20.9388	-17.4624	-1.7146	0.4175	-0.5814	0.4396	0.5427
5.31	-9.3031	-0.0958	-0.6675	0.1264	-0.3188	-0.1287	20.8644	-17.4477	-1.5970	0.4189	-0.5805	0.4389	0.5431
5.32	-9.1009	-0.1328	-0.6203	0.1338	-0.3104	-0.1174	20.6242	-17.4764	-1.8934	0.4202	-0.5795	0.4384	0.5435
5.33	-9.0762	-0.1420	-0.5083	0.1420	-0.2808	-0.1123	20.6588	-17.3093	-1.7876	0.4215	-0.5787	0.4380	0.5437
5.34	-9.0364	-0.1550	-0.5155	0.1229	-0.2460	-0.1114	20.6331	-17.3038	-1.9899	0.4227	-0.5779	0.4375	0.5440
5.35	-9.0221	-0.2232	-0.4557	0.1268	-0.2233	-0.0997	20.7123	-17.1397	-1.9928	0.4238	-0.5772	0.4372	0.5442
5.36	-9.1050	-0.2523	-0.4035	0.1252	-0.1860	-0.0892	20.9650	-16.9776	-1.7100	0.4248	-0.5765	0.4370	0.5443
5.37	-9.0583	-0.2767	-0.4330	0.1262	-0.1582	-0.0833	20.7333	-16.9157	-1.9391	0.4257	-0.5759	0.4368	0.5443
5.38	-9.1527	-0.2291	-0.3285	0.1398	-0.1428	-0.0674	20.8054	-16.9763	-1.9514	0.4266	-0.5754	0.4368	0.5443
5.39	-9.1652	-0.1816	-0.4045	0.1288	-0.1156	-0.0533	20.8466	-17.1323	-1.9368	0.4274	-0.5748	0.4368	0.5442
5.4	-9.1345	-0.1837	-0.4417	0.1192	-0.1093	-0.0378	20.7013	-17.1876	-1.8447	0.4280	-0.5743	0.4369	0.5442
5.41	-9.1687	-0.1524	-0.3623	0.1185	-0.0914	-0.0347	20.5974	-17.2312	-1.8137	0.4286	-0.5738	0.4370	0.5442
5.42	-9.2477	-0.0829	-0.3319	0.0905	-0.0637	-0.0332	20.5160	-17.0440	-1.7078	0.4291	-0.5734	0.4371	0.5441
5.43	-9.2614	-0.0837	-0.3380	0.0709	-0.0491	-0.0353	20.7895	-16.9096	-2.0066	0.4295	-0.5731	0.4372	0.5440
5.44	-9.1983	-0.0880	-0.3128	0.0567	-0.0465	-0.0350	20.8213	-17.0647	-1.8756	0.4298	-0.5729	0.4372	0.5440
5.45	-9.1554	-0.0965	-0.2572	0.0370	-0.0256	-0.0380	20.8785	-16.9667	-1.6762	0.4301	-0.5727	0.4372	0.5439
5.46	-9.1251	-0.1137	-0.2858	0.0161	0.0193	-0.0460	21.0096	-17.1990	-1.9905	0.4302	-0.5728	0.4373	0.5437
5.47	-9.1285	-0.1497	-0.3201	-0.0132	0.0489	-0.0419	21.1235	-17.3022	-1.7724	0.4302	-0.5730	0.4373	0.5435
5.48	-9.1211	-0.1556	-0.3267	-0.0308	0.0637	-0.0352	21.0448	-17.0930	-1.6452	0.4300	-0.5732	0.4374	0.5434
5.49	-9.0943	-0.1816	-0.3194	-0.0431	0.0882	-0.0291	20.9927	-17.1766	-1.9328	0.4298	-0.5735	0.4374	0.5432
5.5	-9.1386	-0.2233	-0.3115	-0.0647	0.1170	-0.0104	20.9402	-17.2066	-2.0504	0.4293	-0.5739	0.4376	0.5430
5.51	-9.1571	-0.2798	-0.3630	-0.0748	0.1479	-0.0071	20.6220	-17.1906	-2.0087	0.4288	-0.5744	0.4377	0.5427
5.52	-9.1862	-0.3299	-0.3410	-0.0774	0.1594	-0.0068	20.9694	-17.1710	-1.6768	0.4282	-0.5750	0.4379	0.5424
5.53	-9.3020	-0.3768	-0.3390	-0.0869	0.1870	-0.0043	21.3628	-16.9874	-1.6620	0.4276	-0.5756	0.4382	0.5421
5.54	-9.3494	-0.4037	-0.4318	-0.0751	0.2061	0.0084	21.6575	-16.7322	-1.6330	0.4269	-0.5762	0.4385	0.5417
5.55	-9.3377	-0.4134	-0.4755	-0.0624	0.2068	0.0119	20.8193	-17.0973	-1.8972	0.4262	-0.5768	0.4389	0.5413
5.56	-9.3277	-0.3971	-0.4759	-0.0525	0.2099	0.0176	20.6648	-17.9942	-1.6521	0.4255	-0.5774	0.4394	0.5408
5.57	-9.3086	-0.3898	-0.5407	-0.0429	0.2230	0.0198	20.8112	-17.7931	-1.4086	0.4248	-0.5780	0.4399	0.5404
5.58	-9.3032	-0.3560	-0.5808	-0.0312	0.2334	0.0189	20.6916	-16.9649	-1.6775	0.4241	-0.5786	0.4404	0.5398
5.59	-9.3366	-0.2892	-0.6198	-0.0325	0.2456	0.0228	20.8650	-17.0174	-1.8059	0.4234	-0.5792	0.4410	0.5393
5.6	-9.4141	-0.2752	-0.6754	-0.0334	0.2510	0.0221	20.6979	-16.9750	-1.6867	0.4226	-0.5798	0.4416	0.5387
5.61	-9.5120	-0.2401	-0.7394	-0.0296	0.2635	0.0247	20.7100	-17.2744	-1.5515	0.4219	-0.5805	0.4422	0.5380
5.62	-9.5401	-0.1958	-0.8143	-0.0261	0.2584	0.0195	20.7354	-17.0464	-1.4627	0.4211	-0.5811	0.4428	0.5374
5.63	-9.6167	-0.1736	-0.8303	-0.0272	0.2415	0.0264	20.8539	-17.2324	-1.2840	0.4204	-0.5817	0.4435	0.5368
5.64	-9.5687	-0.0893	-0.9249	-0.0176	0.2277	0.0193	20.6601	-17.1814	-1.4074	0.4198	-0.5823	0.4440	0.5363
5.65	-9.4841	-0.0517	-0.8884	-0.0339	0.1921	0.0263	21.0019	-17.3711	-1.3671	0.4192	-0.5827	0.4445	0.5358
5.66	-9.5506	-0.0687	-0.8691	-0.0530	0.2025	0.0214	21.0320	-17.1604	-1.2745	0.4185	-0.5833	0.4450	0.5354
5.67	-9.6212	-0.0058	-0.9228	-0.0575	0.1993	0.0180	20.6780	-17.1658	-1.3180	0.4178	-0.5838	0.4454	0.5350
5.68	-9.5884	-0.0074	-0.8989	-0.0649	0.1645	0.0164	20.7252	-17.4230	-1.2832	0.4172	-0.5843	0.4457	0.5347
5.69	-9.5526	0.0379	-0.8367	-0.0680	0.1415	0.0102	20.9610	-17.1289	-1.4515	0.4166	-0.5847	0.4459	0.5345
5.7	-9.4715	0.0519	-0.8632	-0.0878	0.1360	0.0060	20.7792	-17.3072	-1.2957	0.4160	-0.5852	0.4461	0.5343
5.71	-9.3765	0.0419	-0.8700	-0.0891	0.1268	-0.0036	20.9126	-17.2941	-1.3217	0.4154	-0.5857	0.4462	0.5341
5.72	-9.2566	0.0570	-0.8928	-0.0973	0.1304	-0.0073	20.7446	-17.3027	-1.1462	0.4148	-0.5862	0.4463	0.5340
5.73	-9.4221	0.0008	-0.7919	-0.1185	0.1360	-0.0096	20.7490	-17.1402	-1.1576	0.4142	-0.5867	0.4463	0.5338
5.74	-9.7359	0.0205	-0.8549	-0.1153	0.1494	-0.0220	20.8171	-17.3905	-1.2310	0.4136	-0.5873	0.4463	0.5336
5.75	-9.5760	-0.0414	-1.0577	-0.1243	0.1151	-0.0324	20.8028	-17.2957	-1.1100	0.4130	-0.5879	0.4463	0.5335
5.76	-9.4252	-0.1047	-0.8947	-0.1176	0.0574	-0.0449	20.7744	-17.1814	-1.2141	0.4126	-0.5884	0.4460	0.5335
5.77	-9.4294	-0.0748	-0.8973	-0.1082	0.0848	-0.0546	20.6899	-17.2307	-1.0754	0.4122	-0.5889	0.4458	0.5334
5.78	-9.3253	-0.0827	-1.0504	-0.1137	0.0906	-0.0575	20.7179	-17.1950	-1.5476	0.4118	-0.5894	0.4456	0.5333
5.79	-9.3641	-0.0929	-0.8792	-0.1092	0.0707	-0.0501	20.7172	-17.2369	-1.2230	0.4114	-0.5899	0.4454	0.5333
5.8	-9.5277	-0.0989	-0.9139	-0.1322	0.1075	-0.0491	20.6911	-17.1621	-1.2528	0.4109	-0.5905	0.4453	0.5332
5.81	-9.4704	-0.1418	-1.0459	-0.1361	0.0913	-0.0525	20.7849	-17.1112	-1.3222	0.4104	-0.5910	0.4450	0.5331
5.82	-9.4206	-0.1346	-0.9214	-0.1183	0.0561	-0.0485	20.8828	-17.1216	-1.3038	0.4100	-0.5915	0.4448	0.5331
5.83	-9.3777	-0.1428	-0.9083	-0.1318	0.0689	-0.0515	20.9339	-17.2509	-1.1620	0.4096	-0.5920	0.4445	0.5331
5.84	-9.3440	-0.1561	-0.9715	-0.1337	0.0631	-0.0540	20.9468	-17.3182	-1.2960	0.4092	-0.5925	0.4442	0.5331
5.85	-9.2450	-0.1744	-0.9605	-0.1337	0.0555	-0.0575	20.8529	-17.2783	-1.2092	0.4088	-0.5930	0.4439	0.5331
5.86	-9.1843	-0.1899	-0.9306	-0.1335	0.0699	-0.0596	21.0123	-17.4134	-1.3144	0.4084	-0.5935	0.4436	0.5331
5.87	-9.2390	-0.2326	-0.9406	-0.1331	0.0937	-0.0517	20.8135	-17.2203	-1.2593	0.4079	-0.5941	0.4434	0.5331
5.88	-9.3606	-0.3023	-1.0297	-0.1382	0.1069	-0.0531	20.7929	-17.2273	-1.1985	0.4074	-0.5947	0.4431	0.5330
5.89	-9.3525	-0.3404	-1.0561	-0.1173	0.0919	-0.0517	20.8810	-17.1095	-1.1263	0.4069	-0.5952	0.4429	0.5329
5.9	-9.5058	-0.3206	-0.9714	-0.1092	0.0774	-0.0350	20.9186	-17.1412	-1.2260	0.4065	-0.5957	0.4428	0.5328
5.91	-9.3034	-0.3326	-1.1732	-0.1052	0.0743	-0.0349	20.8275	-17.0713	-1.1931	0.4061	-0.5961	0.4427	0.5328
5.92	-9.2736	-0.3630	-1.0045	-0.0910	0.0487	-0.0270	20.8014	-17.0122	-1.3001	0.4057	-0.5964	0.4425	0.5328
5.93	-9.3770	-0.3631	-1.0549	-0.0865	0.0879	-0.0204	20.7853	-17.1411	-1.2192	0.4053	-0.5968	0.4425	0.5327
5.94	-9.3707	-0.3939	-1.1776	-0.0845	0.0814	-0.0083	20.8509	-16.9907	-1.1901	0.4049	-0.5972	0.4425	0.5326
5.95	-9.3709	-0.3969	-1.1194	-0.0618	0.0612	-0.0088	20.8644	-17.0964	-1.2742	0.4045	-0.5974	0.4425	0.5326
5.96	-9.3741	-0.3782	-1.1061	-0.0342	0.0660	-0.0041	20.6879	-17.2204	-1.3968	0.4043	-0.5976	0.4426	0.5325
5.97	-9.4042	-0.3816	-1.1570	-0.0326	0.0784	0.0007	20.7176	-17.2089	-1.3025	0.4040	-0.5978	0.4428	0.5323
5.98	-9.3680	-0.3662	-1.1890	-0.0122	0.0585	0.0123	20.8850	-17.0560	-1.2652	0.4037	-0.5979	0.4430	0.5322
5.99	-9.3750	-0.3373	-1.1504	0.0002	0.0478	0.0179	20.8384	-17.0128	-1.1475	0.4035	-0.5979	0.4432	0.5321
6	-9.4116	-0.2908	-1.1712	0.0243	0.0528	0.0193	20.6854	-17.1396	-0.9771	0.4034	-0.5979	0.4435	0.5320
6.01	-9.4077	-0.2330	-1.2121	0.0352	0.0481	0.0281	20.8573	-17.1146	-1.2457	0.4033	-0.5979	0.4439	0.5318
6.02	-9.3628	-0.1839	-1.1806	0.0464	0.0403	0.0292	21.1317	-17.3161	-1.2226	0.4033	-0.5978	0.4443	0.5317
6.03	-9.3425	-0.1114	-1.1700	0.0460	0.0450	0.0344	21.1625	-17.2714	-0.9715	0.4032	-0.5976	0.4447	0.5315
6.04	-9.3166	-0.0255	-1.1876	0.0504	0.0484	0.0289	21.3002	-17.1264	-1.1267	0.4031	-0.5975	0.4451	0.5314
6.05	-9.3009	0.0820	-1.1704	0.0549	0.0418	0.0260	20.9215	-17.3577	-0.8507	0.4031	-0.5974	0.4455	0.5312
6.06	-9.2945	0.1762	-1.1755	0.0489	0.0531	0.0213	20.7449	-18.2380	-1.0269	0.4030	-0.5973	0.4459	0.5310
6.07	-9.3053	0.2485	-1.1553	0.0336	0.0529	0.0181	20.6222	-18.0414	-0.9874	0.4029	-0.5973	0.4462	0.5308
6.08	-9.3301	0.3221	-1.1550	0.0143	0.0665	0.0211	20.7356	-17.2193	-1.0574	0.4028	-0.5973	0.4466	0.5306
6.09	-9.3326	0.3591	-1.1489	-0.0069	0.0613	0.0163	20.5548	-17.3847	-1.1141	0.4026	-0.5974	0.4468	0.5305
6.1	-9.3879	0.3863	-1.1236	-0.0440	0.0669	0.0205	20.5458	-17.2359	-0.8694	0.4022	-0.5975	0.4470	0.5304
6.11	-9.4010	0.3753	-1.1634	-0.0723	0.0749	0.0091	20.5516	-17.2005	-1.2019	0.4018	-0.5978	0.4471	0.5304
6.12	-9.4096	0.3584	-1.1568	-0.0927	0.0609	0.0078	20.6802	-17.2106	-0.9988	0.4013	-0.5981	0.4471	0.5305
6.13	-9.3959	0.3277	-1.1402	-0.1248	0.0548	0.0073	20.3429	-17.3169	-0.9624	0.4008	-0.5984	0.4470	0.5306
6.14	-9.3823	0.2516	-1.1498	-0.1435	0.0622	0.0010	20.4880	-17.2618	-1.0746	0.4002	-0.5987	0.4468	0.5307
6.15	-9.3415	0.1612	-1.1727	-0.1602	0.0555	0.0004	20.5169	-17.1813	-0.8589	0.3996	-0.5991	0.4466	0.5309
6.16	-9.3373	0.0691	-1.1492	-0.1754	0.0524	-0.0050	20.5035	-17.2113	-0.8729	0.3989	-0.5996	0.4463	0.5312
6.17	-9.2930	-0.0514	-1.2047	-0.1903	0.0565	0.0021	20.5065	-17.3985	-1.0369	0.3982	-0.6000	0.4460	0.5315
6.18	-9.2358	-0.1824	-1.2176	-0.1846	0.0530	0.0096	20.3386	-17.3302	-0.9206	0.3975	-0.6005	0.4458	0.5317
6.19	-9.2044	-0.3515	-1.2259	-0.1855	0.0583	0.0112	20.5087	-17.3172	-1.0657	0.3967	-0.6009	0.4455	0.5320
6.2	-9.2221	-0.4680	-1.2593	-0.1711	0.0711	0.0163	20.4173	-17.5662	-0.9652	0.3960	-0.6013	0.4453	0.5322
6.21	-9.3485	-0.5233	-1.2463	-0.1545	0.0726	0.0142	20.5587	-17.5331	-1.2214	0.3953	-0.6017	0.4452	0.5324
6.22	-9.3897	-0.5699	-1.2967	-0.1278	0.0769	0.0225	20.6474	-17.6520	-1.1814	0.3946	-0.6021	0.4452	0.5325
6.23	-9.3918	-0.5757	-1.3053	-0.0908	0.0630	0.0385	20.4676	-17.4688	-1.0813	0.3941	-0.6023	0.4452	0.5326
6.24	-9.3615	-0.5442	-1.2958	-0.0529	0.0539	0.0548	20.4685	-17.4419	-1.1433	0.3936	-0.6024	0.4454	0.5327
6.25	-9.3160	-0.4710	-1.2928	-0.0120	0.0448	0.0693	20.3520	-17.5553	-0.9931	0.3933	-0.6023	0.4458	0.5328
6.26	-9.3416	-0.3884	-1.2771	0.0198	0.0529	0.0900	20.5167	-17.6618	-1.0402	0.3929	-0.6022	0.4463	0.5328
6.27	-9.2895	-0.3016	-1.3238	0.0489	0.0507	0.0946	20.5283	-17.5863	-1.1797	0.3927	-0.6019	0.4469	0.5327
6.28	-9.3210	-0.1891	-1.2722	0.0897	0.0353	0.0994	20.3297	-17.4374	-1.2440	0.3926	-0.6016	0.4476	0.5326
6.29	-9.3549	-0.0776	-1.2920	0.1126	0.0481	0.1037	20.4131	-17.5778	-0.9444	0.3925	-0.6012	0.4484	0.5324
6.3	-9.3209	0.0216	-1.2996	0.1209	0.0376	0.0941	20.4313	-17.4954	-0.9733	0.3925	-0.6008	0.4491	0.5323
6.31	-9.3402	0.1221	-1.2482	0.1344	0.0357	0.0961	20.3389	-17.4406	-1.2811	0.3925	-0.6003	0.4499	0.5321
6.32	-9.3022	0.2055	-1.2628	0.1402	0.0415	0.0848	20.4002	-17.4642	-0.8910	0.3926	-0.5999	0.4507	0.5318
6.33	-9.3340	0.2802	-1.2392	0.1382	0.0454	0.0717	20.0953	-17.5654	-0.8253	0.3927	-0.5995	0.4515	0.5315
6.34	-9.3127	0.3207	-1.2700	0.1384	0.0486	0.0631	20.1577	-17.3404	-0.8428	0.3928	-0.5992	0.4523	0.5312
6.35	-9.3021	0.3444	-1.2583	0.1208	0.0419	0.0550	20.2104	-17.5128	-0.8451	0.3929	-0.5988	0.4529	0.5309
6.36	-9.3773	0.4062	-1.2357	0.1196	0.0410	0.0559	20.1711	-17.7662	-0.7163	0.3930	-0.5985	0.4536	0.5306
6.37	-9.3996	0.4598	-1.2658	0.1041	0.0384	0.0438	20.2138	-17.6809	-0.9066	0.3931	-0.5983	0.4542	0.5304
6.38	-9.3613	0.4981	-1.2661	0.0955	0.0271	0.0396	20.1200	-17.5811	-0.6711	0.3932	-0.5980	0.4547	0.5302
6.39	-9.3171	0.5540	-1.2495	0.0854	0.0177	0.0307	20.0856	-17.8320	-0.6410	0.3933	-0.5977	0.4551	0.5300
6.4	-9.3184	0.5896	-1.2535	0.0533	0.0277	0.0207	20.1086	-17.8910	-0.6281	0.3933	-0.5976	0.4555	0.5299
6.41	-9.3159	0.6086	-1.2874	0.0381	0.0355	0.0140	20.2656	-17.9414	-0.6972	0.3933	-0.5975	0.4558	0.5297
6.42	-9.2845	0.6144	-1.3127	0.0142	0.0335	0.0010	20.2254	-18.0011	-0.7423	0.3932	-0.5975	0.4560	0.5296
6.43	-9.2999	0.5963	-1.3110	-0.0090	0.0396	-0.0150	20.1420	-17.9806	-0.7375	0.3931	-0.5975	0.4561	0.5295
6.44	-9.3721	0.5444	-1.3417	-0.0400	0.0505	-0.0207	20.0049	-17.8444	-0.8438	0.3929	-0.5977	0.4562	0.5294
6.45	-9.4018	0.4718	-1.4042	-0.0604	0.0498	-0.0381	20.3663	-17.7954	-0.6288	0.3927	-0.5980	0.4561	0.5293
6.46	-9.4185	0.4014	-1.4101	-0.0732	0.0307	-0.0483	19.9856	-17.8079	-0.6643	0.3925	-0.5983	0.4559	0.5293
6.47	-9.4187	0.3324	-1.4160	-0.0832	0.0361	-0.0498	19.9178	-17.8199	-0.5146	0.3923	-0.5986	0.4557	0.5293
6.48	-9.4024	0.2614	-1.4385	-0.0861	0.0286	-0.0553	20.0660	-17.7671	-0.6099	0.3921	-0.5989	0.4555	0.5293
6.49	-9.3747	0.2084	-1.4472	-0.0817	0.0155	-0.0588	20.1819	-17.6826	-0.6768	0.3919	-0.5991	0.4552	0.5294
6.5	-9.3362	0.1607	-1.4371	-0.0797	0.0130	-0.0619	20.2018	-17.8351	-0.5258	0.3918	-0.5994	0.4549	0.5294
6.51	-9.3128	0.1422	-1.4237	-0.0785	0.0077	-0.0652	19.9225	-17.7817	-0.7083	0.3917	-0.5997	0.4546	0.5294
6.52	-9.3344	0.1206	-1.3925	-0.0586	-0.0025	-0.0603	20.1680	-17.6502	-0.5302	0.3917	-0.5999	0.4544	0.5295
6.53	-9.4034	0.1073	-1.3793	-0.0583	-0.0103	-0.0633	20.5444	-17.6182	-0.3469	0.3916	-0.6000	0.4541	0.5295
6.54	-9.3726	0.0843	-1.4110	-0.0424	-0.0150	-0.0693	20.9113	-17.4169	-0.3596	0.3917	-0.6002	0.4538	0.5296
6.55	-9.3328	0.0796	-1.3864	-0.0332	-0.0145	-0.0670	20.4464	-17.4818	-0.6370	0.3918	-0.6003	0.4536	0.5296
6.56	-9.3374	0.0675	-1.3822	-0.0329	-0.0180	-0.0589	20.2276	-18.3075	-0.6219	0.3919	-0.6004	0.4534	0.5296
6.57	-9.3340	0.0495	-1.3912	-0.0308	-0.0238	-0.0616	20.1226	-18.0926	-0.7180	0.3919	-0.6004	0.4532	0.5296
6.58	-9.3168	0.0523	-1.3765	-0.0251	-0.0294	-0.0559	20.2887	-17.5933	-0.5773	0.3921	-0.6005	0.4530	0.5297
6.59	-9.3227	0.0452	-1.3531	-0.0140	-0.0215	-0.0470	20.3559	-17.6569	-0.5216	0.3922	-0.6005	0.4528	0.5297
6.6	-9.3233	0.0477	-1.3809	-0.0134	-0.0259	-0.0430	20.3178	-17.6175	-0.5344	0.3923	-0.6005	0.4527	0.5297
6.61	-9.3186	0.0515	-1.3765	-0.0064	-0.0268	-0.0349	20.3452	-17.7251	-0.5363	0.3924	-0.6004	0.4526	0.5298
6.62	-9.3260	0.0726	-1.3542	-0.0061	-0.0260	-0.0324	20.6031	-17.6232	-0.8021	0.3925	-0.6004	0.4525	0.5298
6.63	-9.3303	0.0976	-1.3521	-0.0003	-0.0264	-0.0313	20.5568	-17.7804	-0.5789	0.3926	-0.6003	0.4525	0.5298
6.64	-9.3228	0.1108	-1.3670	-0.0040	-0.0302	-0.0307	20.3976	-17.6737	-0.8305	0.3927	-0.6003	0.4524	0.5299
6.65	-9.3058	0.1325	-1.3432	-0.0029	-0.0328	-0.0262	20.3385	-17.4671	-0.7916	0.3928	-0.6002	0.4523	0.5300
6.66	-9.3360	0.1655	-1.3125	0.0090	-0.0279	-0.0202	20.4715	-17.6864	-0.6883	0.3929	-0.6001	0.4523	0.5300
6.67	-9.3379	0.1589	-1.3181	0.0095	-0.0284	-0.0208	20.3247	-17.6300	-0.7351	0.3931	-0.6000	0.4523	0.5300
6.68	-9.3530	0.1810	-1.3072	0.0020	-0.0259	-0.0315	20.3493	-17.3561	-0.7145	0.3932	-0.5999	0.4523	0.5301
6.69	-9.3519	0.2093	-1.3076	-0.0038	-0.0302	-0.0357	20.1776	-17.6215	-0.5878	0.3933	-0.5998	0.4522	0.5301
6.7	-9.3427	0.2162	-1.2975	0.0003	-0.0316	-0.0335	20.3910	-17.6512	-0.4869	0.3934	-0.5998	0.4521	0.5302
6.71	-9.3360	0.2119	-1.2975	-0.0095	-0.0264	-0.0361	20.4361	-17.4791	-0.6541	0.3935	-0.5997	0.4521	0.5302
6.72	-9.2892	0.2002	-1.3132	-0.0077	-0.0289	-0.0445	20.4303	-17.5016	-0.7044	0.3937	-0.5997	0.4519	0.5302
6.73	-9.2366	0.1914	-1.2826	-0.0109	-0.0346	-0.0496	20.2200	-17.6898	-0.6100	0.3938	-0.5997	0.4518	0.5303
6.74	-9.3733	0.2011	-1.1971	-0.0129	-0.0156	-0.0468	20.1177	-17.8349	-0.6151	0.3939	-0.5997	0.4517	0.5303
6.75	-9.4431	0.1758	-1.2866	-0.0250	-0.0107	-0.0486	20.2528	-17.4526	-0.6542	0.3940	-0.5997	0.4515	0.5303
6.76	-9.4506	0.1236	-1.3027	-0.0274	-0.0402	-0.0500	20.5230	-17.5296	-0.6956	0.3941	-0.5998	0.4513	0.5304
6.77	-9.4932	0.1161	-1.2691	-0.0273	-0.0532	-0.0500	20.6147	-17.4557	-0.6372	0.3942	-0.5997	0.4511	0.5305
6.78	-9.5002	0.0850	-1.3140	-0.0196	-0.0613	-0.0591	20.2919	-17.6858	-0.8566	0.3944	-0.5997	0.4508	0.5306
6.79	-9.5185	0.0605	-1.3046	-0.0045	-0.0767	-0.0507	20.4606	-17.5748	-0.5673	0.3947	-0.5995	0.4506	0.5308
6.8	-9.5089	0.0508	-1.3108	-0.0112	-0.0937	-0.0573	20.8408	-17.5969	-0.6756	0.3950	-0.5994	0.4503	0.5310
6.81	-9.4405	0.0502	-1.3265	-0.0005	-0.1140	-0.0511	20.5905	-17.5397	-0.7850	0.3953	-0.5991	0.4500	0.5312
6.82	-9.4311	0.0670	-1.2828	0.0142	-0.1251	-0.0479	20.2805	-17.3842	-0.9285	0.3958	-0.5988	0.4498	0.5315
6.83	-9.4425	0.0857	-1.2775	0.0060	-0.1319	-0.0359	20.3838	-17.4486	-0.8897	0.3962	-0.5985	0.4495	0.5318
6.84	-9.3769	0.0820	-1.2913	0.0039	-0.1359	-0.0369	20.4325	-17.5434	-0.9321	0.3965	-0.5981	0.4492	0.5322
6.85	-9.3307	0.0779	-1.2527	0.0072	-0.1507	-0.0365	20.4228	-17.7034	-0.8027	0.3970	-0.5977	0.4489	0.5325
6.86	-9.3639	0.0936	-1.2219	0.0030	-0.1422	-0.0367	20.4177	-17.6400	-0.8180	0.3974	-0.5973	0.4486	0.5329
6.87	-9.2964	0.0630	-1.2866	-0.0063	-0.1335	-0.0373	20.2973	-17.6256	-0.9300	0.3977	-0.5970	0.4484	0.5333
6.88	-9.2953	0.0534	-1.1912	-0.0032	-0.1435	-0.0384	20.3944	-17.6589	-0.8848	0.3981	-0.5967	0.4480	0.5336
6.89	-9.3004	0.0489	-1.1828	-0.0040	-0.1246	-0.0357	20.5297	-17.4552	-0.9239	0.3985	-0.5963	0.4478	0.5340
6.9	-9.2323	0.0061	-1.1968	0.0054	-0.1252	-0.0371	20.4966	-17.7583	-0.7621	0.3988	-0.5960	0.4475	0.5343
6.91	-9.2960	0.0364	-1.1236	0.0152	-0.1195	-0.0315	20.5373	-17.5866	-1.0407	0.3992	-0.5957	0.4473	0.5346
6.92	-9.2545	0.0324	-1.1572	0.0146	-0.1133	-0.0337	20.4314	-17.6118	-0.8509	0.3996	-0.5954	0.4471	0.5348
6.93	-9.2402	0.0413	-1.1173	0.0180	-0.0995	-0.0283	20.3297	-17.5583	-1.1715	0.3999	-0.5950	0.4469	0.5350
6.94	-9.1753	0.0456	-1.1170	0.0183	-0.0944	-0.0208	20.4471	-17.4088	-1.0891	0.4002	-0.5947	0.4468	0.5352
6.95	-9.1841	0.0190	-1.0659	0.0165	-0.0843	-0.0192	20.4181	-17.5549	-1.0354	0.4004	-0.5944	0.4467	0.5354
6.96	-9.2567	-0.0009	-1.0830	0.0192	-0.0554	-0.0208	20.4188	-17.3971	-1.0947	0.4007	-0.5942	0.4467	0.5355
6.97	-9.2367	-0.0286	-1.1323	0.0168	-0.0543	-0.0163	20.4416	-17.5209	-1.1338	0.4008	-0.5940	0.4467	0.5357
6.98	-9.2169	-0.0357	-1.0770	0.0292	-0.0529	-0.0132	20.5364	-17.5203	-1.2732	0.4011	-0.5938	0.4467	0.5357
6.99	-9.1905	-0.0281	-1.0715	0.0441	-0.0467	-0.0074	20.4995	-17.6975	-1.1459	0.4013	-0.5935	0.4468	0.5358
7	-9.1762	0.0013	-1.0797	0.0378	-0.0322	-0.0089	20.5190	-17.5996	-1.0967	0.4015	-0.5933	0.4469	0.5358
7.01	-9.1821	0.0098	-1.0613	0.0421	-0.0182	-0.0111	20.5129	-17.1915	-0.9745	0.4016	-0.5931	0.4470	0.5358
7.02	-9.1705	0.0194	-1.0785	0.0399	0.0033	-0.0081	20.5214	-17.5593	-0.9795	0.4018	-0.5930	0.4472	0.5357
7.03	-9.1914	0.0534	-1.0727	0.0443	0.0191	-0.0121	20.9034	-17.5947	-0.7751	0.4018	-0.5929	0.4474	0.5355
7.04	-9.2647	0.0883	-1.0828	0.0359	0.0270	-0.0090	21.5904	-17.2898	-0.7078	0.4019	-0.5929	0.4477	0.5353
7.05	-9.2600	0.0950	-1.1109	0.0240	0.0403	-0.0126	20.8040	-17.7943	-0.8852	0.4019	-0.5929	0.4479	0.5352
7.06	-9.2740	0.0937	-1.0797	0.0163	0.0425	-0.0174	20.3492	-18.3164	-0.8994	0.4019	-0.5929	0.4480	0.5350
7.07	-9.2389	0.0813	-1.1042	0.0003	0.0509	-0.0194	20.3894	-18.2062	-1.0885	0.4018	-0.5930	0.4482	0.5348
7.08	-9.2633	0.0957	-1.0757	-0.0092	0.0568	-0.0198	20.1373	-17.3555	-1.1410	0.4017	-0.5932	0.4483	0.5346
7.09	-9.2823	0.0897	-1.0895	-0.0158	0.0705	-0.0234	20.4849	-17.5982	-1.2050	0.4015	-0.5934	0.4484	0.5344
7.1	-9.2869	0.0662	-1.1073	-0.0236	0.0749	-0.0221	20.3910	-17.4655	-0.8926	0.4013	-0.5936	0.4485	0.5342
7.11	-9.2843	0.0431	-1.1321	-0.0291	0.0763	-0.0173	20.3913	-17.6573	-1.0391	0.4011	-0.5939	0.4486	0.5340
7.12	-9.2985	0.0279	-1.1364	-0.0353	0.0804	-0.0165	20.5068	-17.4209	-0.9930	0.4008	-0.5941	0.4487	0.5339
7.13	-9.3682	0.0184	-1.1440	-0.0338	0.0834	-0.0095	20.4604	-17.4878	-1.0593	0.4005	-0.5944	0.4489	0.5337
7.14	-9.3705	0.0032	-1.1912	-0.0347	0.0861	-0.0094	20.4907	-17.6166	-0.8018	0.4002	-0.5946	0.4490	0.5335
7.15	-9.4198	0.0011	-1.1822	-0.0353	0.0744	-0.0074	20.4614	-17.6024	-0.8582	0.3999	-0.5948	0.4492	0.5334
7.16	-9.4925	-0.0049	-1.1862	-0.0388	0.0718	-0.0121	20.6741	-17.6133	-1.0992	0.3997	-0.5951	0.4493	0.5332
7.17	-9.5368	-0.0202	-1.2064	-0.0346	0.0555	-0.0087	20.5618	-17.8851	-0.8500	0.3994	-0.5952	0.4493	0.5331
7.18	-9.4715	-0.0182	-1.2477	-0.0285	0.0423	-0.0122	20.5843	-17.7713	-1.1768	0.3993	-0.5954	0.4494	0.5331
7.19	-9.3672	-0.0326	-1.2171	-0.0157	0.0261	-0.0145	20.3779	-17.4053	-0.9988	0.3991	-0.5955	0.4495	0.5330
7.2	-9.3960	-0.0214	-1.1794	-0.0133	0.0371	-0.0062	20.3051	-17.4881	-0.9546	0.3990	-0.5955	0.4496	0.5329
7.21	-9.4086	-0.0262	-1.2348	-0.0047	0.0390	-0.0110	20.5275	-17.6232	-1.0501	0.3989	-0.5956	0.4497	0.5328
7.22	-9.4017	-0.0068	-1.2552	0.0031	0.0259	-0.0082	20.3283	-17.4879	-0.8812	0.3989	-0.5956	0.4498	0.5327
7.23	-9.3953	0.0241	-1.2034	0.0093	0.0215	-0.0159	20.4583	-17.7164	-0.7845	0.3988	-0.5956	0.4499	0.5326
7.24	-9.4393	0.0508	-1.1991	0.0149	0.0168	-0.0113	20.1958	-17.5651	-0.9728	0.3989	-0.5956	0.4501	0.5325
7.25	-9.4429	0.0581	-1.2424	0.0032	0.0135	-0.0179	20.3177	-17.3966	-1.1493	0.3989	-0.5956	0.4502	0.5325
7.26	-9.4205	0.0778	-1.2228	0.0131	-0.0051	-0.0194	20.5101	-17.4642	-0.9436	0.3989	-0.5956	0.4502	0.5324
7.27	-9.3824	0.0901	-1.2082	0.0140	-0.0041	-0.0185	20.2864	-17.5586	-0.9225	0.3990	-0.5955	0.4503	0.5324
7.28	-9.3713	0.0970	-1.2001	0.0173	-0.0045	-0.0174	20.2971	-17.4137	-0.9118	0.3991	-0.5954	0.4503	0.5324
7.29	-9.3646	0.1107	-1.2028	0.0126	-0.0026	-0.0191	20.4089	-17.4547	-1.0517	0.3991	-0.5954	0.4504	0.5323
7.3	-9.3363	0.1142	-1.1915	0.0077	-0.0011	-0.0201	20.5125	-17.5235	-0.9506	0.3992	-0.5953	0.4505	0.5323
7.31	-9.3293	0.1085	-1.1682	-0.0019	-0.0047	-0.0155	20.4143	-17.3035	-0.6930	0.3992	-0.5953	0.4505	0.5323
7.32	-9.3275	0.1021	-1.1740	-0.0075	-0.0094	-0.0192	20.2759	-17.5277	-0.8735	0.3992	-0.5952	0.4505	0.5323
7.33	-9.3422	0.1072	-1.1719	-0.0057	-0.0046	-0.0186	20.4426	-17.6465	-0.7681	0.3993	-0.5952	0.4505	0.5323
7.34	-9.3521	0.1086	-1.1813	-0.0075	-0.0046	-0.0153	20.4776	-17.7186	-0.7861	0.3993	-0.5952	0.4505	0.5323
7.35	-9.3340	0.0950	-1.1691	-0.0102	-0.0116	-0.0152	20.5340	-17.6111	-1.1463	0.3993	-0.5952	0.4505	0.5324
7.36	-9.3386	0.1000	-1.1435	-0.0150	-0.0157	-0.0165	20.7026	-17.6860	-1.0735	0.3993	-0.5951	0.4505	0.5324
7.37	-9.3412	0.1051	-1.1573	-0.0204	-0.0107	-0.0149	20.4466	-17.5892	-0.8477	0.3993	-0.5951	0.4505	0.5325
7.38	-9.3373	0.1044	-1.1573	-0.0225	-0.0049	-0.0091	20.3711	-17.6070	-0.8120	0.3992	-0.5951	0.4505	0.5325
7.39	-9.3713	0.1126	-1.1594	-0.0148	-0.0145	-0.0082	20.3931	-17.6116	-0.8501	0.3992	-0.5950	0.4505	0.5326
7.4	-9.3594	0.1103	-1.1842	-0.0205	-0.0156	-0.0116	20.2848	-17.6960	-0.7890	0.3992	-0.5950	0.4504	0.5327
7.41	-9.3347	0.1155	-1.1768	-0.0110	-0.0209	-0.0080	20.2722	-17.5666	-0.9156	0.3992	-0.5949	0.4504	0.5328
7.42	-9.3504	0.1237	-1.1726	-0.0122	-0.0115	-0.0132	20.1464	-17.6474	-0.8416	0.3992	-0.5949	0.4504	0.5328
7.43	-9.3615	0.1185	-1.1961	-0.0157	-0.0109	-0.0257	20.4579	-17.4727	-0.8322	0.3992	-0.5949	0.4504	0.5329
7.44	-9.3585	0.1281	-1.2001	-0.0124	-0.0108	-0.0254	20.3054	-17.5821	-0.9406	0.3992	-0.5948	0.4503	0.5329
7.45	-9.3240	0.1183	-1.1951	-0.0166	-0.0151	-0.0328	20.3625	-17.5651	-0.9339	0.3992	-0.5948	0.4503	0.5329
7.46	-9.3184	0.1134	-1.1829	-0.0116	-0.0145	-0.0346	20.4005	-17.4790	-0.8148	0.3993	-0.5948	0.4502	0.5330
7.47	-9.3387	0.1140	-1.1907	-0.0142	-0.0137	-0.0338	20.1836	-17.6650	-0.9702	0.3994	-0.5948	0.4501	0.5330
7.48	-9.3364	0.0941	-1.1899	-0.0107	-0.0189	-0.0359	20.3431	-17.6861	-1.1454	0.3994	-0.5948	0.4500	0.5330
7.49	-9.3473	0.0912	-1.1730	-0.0080	-0.0092	-0.0388	20.2632	-17.4568	-0.8072	0.3995	-0.5948	0.4500	0.5330
7.5	-9.3497	0.1009	-1.1860	-0.0099	-0.0116	-0.0326	20.4220	-17.3047	-0.8485	0.3996	-0.5948	0.4499	0.5330
7.51	-9.3558	0.0940	-1.1873	-0.0067	-0.0148	-0.0348	20.2360	-17.5251	-1.0684	0.3996	-0.5948	0.4499	0.5330
7.52	-9.3590	0.0991	-1.1963	-0.0039	-0.0075	-0.0352	20.6245	-17.6107	-0.9479	0.3997	-0.5948	0.4498	0.5330
7.53	-9.3566	0.1069	-1.1920	-0.0040	-0.0109	-0.0335	21.0181	-17.3822	-0.8366	0.3998	-0.5948	0.4498	0.5330
7.54	-9.3851	0.1149	-1.1810	-0.0076	-0.0037	-0.0339	21.2797	-17.2480	-0.6827	0.3998	-0.5948	0.4498	0.5329
7.55	-9.4031	0.1137	-1.1769	-0.0072	-0.0115	-0.0348	20.6882	-17.8030	-0.6520	0.3999	-0.5948	0.4497	0.5329
7.56	-9.4085	0.0958	-1.1755	-0.0092	-0.0188	-0.0358	20.4945	-18.3362	-1.0256	0.4000	-0.5948	0.4496	0.5330
7.57	-9.3825	0.0833	-1.1889	-0.0138	-0.0164	-0.0333	20.4879	-18.0157	-0.9837	0.4000	-0.5948	0.4496	0.5330
7.58	-9.3471	0.0855	-1.1670	-0.0142	-0.0208	-0.0334	20.5344	-16.9878	-0.9429	0.4001	-0.5948	0.4495	0.5330
7.59	-9.3371	0.0861	-1.1653	-0.0063	-0.0182	-0.0334	20.2528	-17.5323	-1.0445	0.4002	-0.5948	0.4494	0.5330
7.6	-9.3466	0.0791	-1.1890	-0.0146	-0.0160	-0.0327	20.3614	-17.6910	-0.9982	0.4002	-0.5948	0.4493	0.5331
7.61	-9.3422	0.0801	-1.2007	-0.0251	-0.0114	-0.0237	20.7524	-17.5920	-1.0164	0.4002	-0.5948	0.4493	0.5331
7.62	-9.3293	0.0775	-1.1918	-0.0279	-0.0129	-0.0298	20.5168	-17.4104	-0.7287	0.4002	-0.5948	0.4492	0.5332
7.63	-9.3173	0.0624	-1.2010	-0.0327	-0.0132	-0.0279	20.4733	-17.5020	-0.7583	0.4002	-0.5948	0.4491	0.5333
7.64	-9.3215	0.0570	-1.1994	-0.0335	-0.0096	-0.0282	20.2864	-17.3377	-0.7073	0.4002	-0.5949	0.4490	0.5333
7.65	-9.3329	0.0531	-1.2017	-0.0341	-0.0124	-0.0337	20.4986	-17.2047	-0.9176	0.4002	-0.5949	0.4488	0.5334
7.66	-9.3469	0.0426	-1.1987	-0.0300	-0.0140	-0.0317	20.6349	-17.6031	-1.0349	0.4002	-0.5949	0.4487	0.5334
7.67	-9.3479	0.0450	-1.1898	-0.0303	-0.0093	-0.0321	20.5381	-17.5135	-1.0149	0.4002	-0.5950	0.4486	0.5335
7.68	-9.3450	0.0361	-1.1847	-0.0323	-0.0140	-0.0333	20.2836	-17.4134	-0.9968	0.4002	-0.5950	0.4485	0.5336
7.69	-9.3715	0.0417	-1.1807	-0.0289	-0.0169	-0.0309	20.3927	-17.3916	-0.9400	0.4002	-0.5950	0.4484	0.5336
7.7	-9.3582	0.0415	-1.1857	-0.0342	-0.0213	-0.0294	20.3964	-17.5166	-1.0442	0.4002	-0.5950	0.4483	0.5337
7.71	-9.3265	0.0377	-1.1741	-0.0261	-0.0195	-0.0306	20.5974	-17.7216	-0.9917	0.4002	-0.5951	0.4482	0.5338
7.72	-9.3031	0.0493	-1.1726	-0.0211	-0.0101	-0.0314	20.6944	-17.6367	-1.1245	0.4002	-0.5951	0.4481	0.5338
7.73	-9.2998	0.0430	-1.1728	-0.0332	-0.0103	-0.0340	20.4011	-17.5918	-1.0924	0.4002	-0.5951	0.4480	0.5339
7.74	-9.3020	0.0217	-1.1784	-0.0326	-0.0079	-0.0342	20.7111	-17.5426	-0.8507	0.4002	-0.5952	0.4479	0.5339
7.75	-9.3195	0.0003	-1.1692	-0.0339	-0.0119	-0.0321	20.5882	-17.2990	-1.2864	0.4001	-0.5952	0.4477	0.5340
7.76	-9.3207	-0.0275	-1.1833	-0.0307	-0.0136	-0.0308	20.3621	-17.2249	-1.0827	0.4001	-0.5952	0.4476	0.5340
7.77	-9.3020	-0.0506	-1.1850	-0.0348	-0.0112	-0.0263	20.4993	-17.4491	-0.9066	0.4001	-0.5953	0.4475	0.5341
7.78	-9.3052	-0.0557	-1.1675	-0.0284	-0.0164	-0.0138	20.5229	-17.2873	-1.1521	0.4001	-0.5953	0.4475	0.5342
7.79	-9.3237	-0.0418	-1.1710	-0.0236	-0.0077	-0.0181	20.3978	-17.5911	-1.0947	0.4000	-0.5953	0.4474	0.5343
7.8	-9.3413	-0.0405	-1.1822	-0.0203	0.0016	-0.0172	20.4345	-17.4947	-0.9262	0.4000	-0.5953	0.4474	0.5343
7.81	-9.3605	-0.0352	-1.1797	-0.0153	-0.0019	-0.0181	20.4006	-17.1777	-0.7640	0.4000	-0.5953	0.4474	0.5343
7.82	-9.3625	-0.0462	-1.1958	-0.0191	-0.0021	-0.0221	20.5274	-17.3561	-1.0702	0.3999	-0.5953	0.4474	0.5343
7.83	-9.3755	-0.0614	-1.1978	-0.0107	-0.0093	-0.0237	20.4928	-17.3148	-0.8497	0.4000	-0.5953	0.4474	0.5344
7.84	-9.3746	-0.0797	-1.2082	-0.0059	-0.0143	-0.0231	20.5466	-17.5154	-1.0561	0.4000	-0.5952	0.4473	0.5344
7.85	-9.3572	-0.0986	-1.2095	0.0017	-0.0123	-0.0239	20.3565	-17.4302	-1.1321	0.4001	-0.5952	0.4473	0.5344
7.86	-9.3500	-0.1040	-1.2075	0.0100	-0.0168	-0.0193	20.1102	-17.3983	-1.1020	0.4002	-0.5951	0.4474	0.5344
7.87	-9.3634	-0.0896	-1.1971	0.0159	-0.0151	-0.0121	20.4628	-17.4537	-0.9577	0.4002	-0.5950	0.4474	0.5344
7.88	-9.3650	-0.0737	-1.1912	0.0256	-0.0171	-0.0078	20.3140	-17.5370	-0.9102	0.4004	-0.5949	0.4475	0.5344
7.89	-9.3713	-0.0561	-1.1823	0.0281	-0.0227	-0.0086	20.4960	-17.3956	-0.9218	0.4005	-0.5947	0.4476	0.5344
7.9	-9.3833	-0.0387	-1.1851	0.0372	-0.0176	-0.0084	20.7602	-17.5335	-1.0484	0.4006	-0.5945	0.4478	0.5344
7.91	-9.3931	-0.0301	-1.1847	0.0333	-0.0133	-0.0099	20.5964	-17.4849	-1.3121	0.4007	-0.5944	0.4479	0.5343
7.92	-9.4036	-0.0183	-1.1932	0.0388	-0.0179	-0.0072	20.6248	-17.8224	-1.2095	0.4009	-0.5942	0.4480	0.5343
7.93	-9.3879	-0.0014	-1.1977	0.0348	-0.0251	-0.0086	20.4596	-17.5288	-1.0783	0.4010	-0.5940	0.4481	0.5343
7.94	-9.3958	0.0111	-1.1895	0.0316	-0.0225	-0.0081	20.4656	-17.1685	-1.2830	0.4012	-0.5939	0.4483	0.5343
7.95	-9.4186	0.0213	-1.1942	0.0281	-0.0260	-0.0086	20.4674	-17.4934	-1.2654	0.4013	-0.5937	0.4483	0.5343
7.96	-9.4285	0.0291	-1.1977	0.0246	-0.0271	-0.0082	20.3985	-17.5957	-0.9946	0.4015	-0.5935	0.4484	0.5343
7.97	-9.4221	0.0244	-1.1894	0.0248	-0.0404	-0.0090	20.4207	-17.5823	-1.0177	0.4016	-0.5933	0.4485	0.5344
7.98	-9.4279	0.0334	-1.1656	0.0207	-0.0390	-0.0067	20.4519	-17.4569	-1.0012	0.4017	-0.5931	0.4485	0.5344
7.99	-9.4212	0.0363	-1.1627	0.0219	-0.0385	-0.0040	20.5532	-17.3110	-0.7958	0.4019	-0.5929	0.4486	0.5345
8	-9.3956	0.0409	-1.1428	0.0216	-0.0515	-0.0097	20.3932	-17.4342	-0.9606	0.4021	-0.5927	0.4486	0.5346
8.01	-9.3846	0.0520	-1.1253	0.0175	-0.0464	-0.0070	20.3150	-17.3906	-1.1275	0.4022	-0.5925	0.4486	0.5347
8.02	-9.3716	0.0537	-1.1251	0.0182	-0.0512	-0.0085	20.5767	-17.4684	-1.1397	0.4024	-0.5923	0.4487	0.5348
8.03	-9.3865	0.0536	-1.1200	0.0178	-0.0514	-0.0093	20.9600	-17.2283	-0.8792	0.4025	-0.5921	0.4487	0.5349
8.04	-9.3777	0.0585	-1.1132	0.0164	-0.0545	-0.0093	21.3151	-16.9334	-0.4402	0.4027	-0.5919	0.4487	0.5350
8.05	-9.3586	0.0708	-1.0898	0.0178	-0.0518	-0.0092	20.5535	-17.2427	-0.8479	0.4029	-0.5916	0.4487	0.5351
8.06	-9.3341	0.0772	-1.0695	0.0184	-0.0561	-0.0088	20.3813	-18.2070	-1.0987	0.4030	-0.5914	0.4487	0.5352
8.07	-9.3253	0.0821	-1.0469	0.0171	-0.0608	-0.0084	20.2656	-18.1389	-1.0654	0.4032	-0.5912	0.4487	0.5354
8.08	-9.3204	0.0918	-1.0382	0.0151	-0.0554	-0.0082	20.5619	-17.3791	-1.0739	0.4034	-0.5909	0.4487	0.5355
8.09	-9.3226	0.0928	-1.0283	0.0133	-0.0546	-0.0093	20.5234	-17.7657	-0.9189	0.4035	-0.5907	0.4487	0.5356
8.1	-9.3152	0.0974	-1.0139	-0.0011	-0.0479	-0.0091	20.4440	-17.6680	-1.1734	0.4036	-0.5905	0.4486	0.5358
8.11	-9.3303	0.1060	-0.9897	-0.0051	-0.0514	-0.0094	20.5990	-17.7277	-1.1684	0.4037	-0.5904	0.4486	0.5359
8.12	-9.3645	0.1026	-0.9672	-0.0052	-0.0493	-0.0099	20.6761	-17.6849	-1.1768	0.4038	-0.5902	0.4485	0.5361
8.13	-9.3648	0.0898	-0.9727	-0.0119	-0.0455	-0.0133	20.3837	-17.7263	-1.1173	0.4039	-0.5901	0.4485	0.5362
8.14	-9.3240	0.0864	-0.9685	-0.0121	-0.0504	-0.0100	20.4748	-17.6158	-1.0314	0.4040	-0.5899	0.4484	0.5364
8.15	-9.2921	0.0862	-0.9450	-0.0179	-0.0499	-0.0093	20.5875	-17.4945	-1.2662	0.4040	-0.5898	0.4483	0.5366
8.16	-9.2697	0.0879	-0.9371	-0.0102	-0.0446	-0.0094	20.5776	-17.5738	-1.0018	0.4041	-0.5896	0.4483	0.5367
8.17	-9.2649	0.0956	-0.9509	-0.0221	-0.0363	-0.0095	20.4516	-17.3653	-1.1250	0.4041	-0.5895	0.4482	0.5369
8.18	-9.2745	0.1000	-0.9452	-0.0375	-0.0287	-0.0102	20.2308	-17.3415	-1.4023	0.4041	-0.5895	0.4481	0.5370
8.19	-9.2793	0.0952	-0.9465	-0.0331	-0.0201	-0.0098	20.2698	-17.5008	-1.0914	0.4040	-0.5894	0.4480	0.5372
8.2	-9.2884	0.0842	-0.9595	-0.0351	-0.0154	-0.0152	20.4813	-17.5506	-1.2646	0.4040	-0.5894	0.4480	0.5373
8.21	-9.2988	0.0667	-0.9580	-0.0337	-0.0081	-0.0291	20.4914	-17.4402	-1.2841	0.4039	-0.5895	0.4479	0.5374
8.22	-9.3058	0.0506	-0.9511	-0.0338	-0.0084	-0.0319	20.5531	-17.4337	-1.1266	0.4039	-0.5895	0.4478	0.5374
8.23	-9.2877	0.0434	-0.9575	-0.0330	-0.0078	-0.0301	20.1656	-17.6159	-1.0897	0.4039	-0.5896	0.4477	0.5374
8.24	-9.3045	0.0399	-0.9470	-0.0313	0.0004	-0.0339	20.5580	-17.5627	-1.0007	0.4038	-0.5897	0.4476	0.5375
8.25	-9.3291	0.0400	-0.9601	-0.0307	0.0082	-0.0341	20.6749	-17.4059	-0.9872	0.4038	-0.5898	0.4475	0.5375
8.26	-9.3456	0.0313	-0.9674	-0.0199	0.0055	-0.0320	20.5245	-17.4738	-1.1088	0.4038	-0.5898	0.4475	0.5374
8.27	-9.3761	0.0258	-0.9649	-0.0244	0.0087	-0.0338	20.6359	-17.7772	-1.2698	0.4038	-0.5899	0.4474	0.5374
8.28	-9.3896	0.0131	-0.9817	-0.0334	0.0120	-0.0338	20.6755	-17.7515	-1.1533	0.4037	-0.5900	0.4473	0.5374
8.29	-9.3593	0.0112	-0.9997	-0.0224	0.0107	-0.0347	20.5367	-17.4410	-1.3103	0.4037	-0.5901	0.4473	0.5374
8.3	-9.3501	0.0232	-0.9808	-0.0159	0.0104	-0.0283	20.6109	-17.6579	-1.3308	0.4036	-0.5902	0.4473	0.5373
8.31	-9.3903	0.0216	-0.9685	-0.0225	0.0089	-0.0304	20.6930	-17.6648	-1.2303	0.4036	-0.5902	0.4472	0.5373
8.32	-9.3857	0.0055	-0.9868	-0.0200	0.0109	-0.0272	20.5459	-17.5061	-1.2775	0.4036	-0.5903	0.4472	0.5373
8.33	-9.4023	0.0089	-0.9640	-0.0158	0.0080	-0.0264	20.4726	-17.6444	-1.3853	0.4035	-0.5904	0.4472	0.5372
8.34	-9.3688	-0.0184	-0.9888	-0.0106	0.0041	-0.0228	20.6524	-17.6173	-1.2943	0.4035	-0.5904	0.4472	0.5372
8.35	-9.3539	0.0053	-0.9659	-0.0108	-0.0072	-0.0164	20.6594	-17.5507	-1.2469	0.4035	-0.5904	0.4472	0.5372
8.36	-9.3496	0.0049	-0.9685	-0.0146	-0.0067	-0.0103	20.6621	-17.4149	-1.2807	0.4035	-0.5903	0.4472	0.5373
8.37	-9.3879	0.0346	-0.9636	-0.0114	-0.0031	-0.0072	20.3669	-17.4548	-1.1111	0.4035	-0.5903	0.4473	0.5373
8.38	-9.3538	0.0321	-0.9885	-0.0118	-0.0053	-0.0112	20.4780	-17.4266	-1.2986	0.4035	-0.5903	0.4473	0.5374
8.39	-9.3697	0.0389	-0.9643	-0.0113	-0.0017	-0.0119	20.4037	-17.5198	-1.0748	0.4034	-0.5903	0.4473	0.5374
8.4	-9.3850	0.0466	-0.9717	-0.0136	-0.0020	-0.0108	20.1510	-17.6639	-0.9696	0.4034	-0.5902	0.4473	0.5374
8.41	-9.3977	0.0209	-0.9856	-0.0241	-0.0005	-0.0095	20.4497	-17.5385	-0.9879	0.4033	-0.5902	0.4473	0.5374
8.42	-9.4036	0.0341	-0.9726	-0.0123	-0.0026	-0.0122	20.4910	-17.5468	-1.0391	0.4033	-0.5902	0.4474	0.5375
8.43	-9.3928	0.0366	-0.9657	-0.0233	-0.0048	-0.0111	20.4777	-17.4030	-1.3102	0.4032	-0.5902	0.4473	0.5375
8.44	-9.3791	0.0395	-0.9673	-0.0165	-0.0116	-0.0086	20.3399	-17.3851	-1.3767	0.4032	-0.5902	0.4473	0.5376
8.45	-9.3832	0.0341	-0.9642	-0.0096	-0.0158	-0.0097	20.2937	-17.4412	-1.3472	0.4032	-0.5901	0.4474	0.5376
8.46	-9.3482	0.0404	-0.9740	-0.0111	-0.0184	-0.0085	20.6893	-17.5907	-1.3813	0.4032	-0.5901	0.4474	0.5377
8.47	-9.3518	0.0385	-0.9440	-0.0095	-0.0143	-0.0089	20.7372	-17.8507	-1.1973	0.4032	-0.5900	0.4474	0.5378
8.48	-9.3438	0.0316	-0.9661	-0.0103	-0.0106	-0.0093	20.6156	-17.5817	-1.2052	0.4032	-0.5899	0.4474	0.5378
8.49	-9.3431	0.0447	-0.9611	-0.0071	-0.0184	-0.0090	20.4548	-17.7165	-1.2911	0.4032	-0.5899	0.4474	0.5379
8.5	-9.3360	0.0349	-0.9517	-0.0093	-0.0123	-0.0092	20.6063	-17.6066	-1.2422	0.4032	-0.5898	0.4474	0.5380
8.51	-9.3335	0.0524	-0.9503	-0.0041	-0.0007	-0.0085	20.3760	-17.5099	-1.2891	0.4032	-0.5898	0.4475	0.5380
8.52	-9.3602	0.0579	-0.9471	-0.0049	-0.0026	-0.0049	20.5323	-17.5134	-1.2160	0.4032	-0.5897	0.4475	0.5380
8.53	-9.3718	0.0519	-0.9652	-0.0045	0.0041	-0.0052	20.8594	-17.3232	-1.0754	0.4031	-0.5897	0.4476	0.5380
8.54	-9.3721	0.0769	-0.9656	0.0002	-0.0059	-0.0093	21.0802	-17.0645	-1.0577	0.4031	-0.5896	0.4477	0.5380
8.55	-9.3717	0.0778	-0.9669	-0.0036	0.0005	-0.0079	20.7378	-17.3530	-1.0639	0.4031	-0.5896	0.4477	0.5380
8.56	-9.3702	0.0876	-0.9789	0.0048	0.0035	-0.0061	20.4486	-18.4189	-1.2237	0.4031	-0.5895	0.4478	0.5380
8.57	-9.3566	0.1007	-0.9812	0.0112	0.0096	-0.0077	20.5102	-18.0685	-1.1812	0.4031	-0.5895	0.4479	0.5379
8.58	-9.3563	0.1063	-0.9784	0.0031	0.0014	-0.0101	20.3184	-17.2784	-1.2551	0.4031	-0.5894	0.4480	0.5379
8.59	-9.3518	0.1200	-0.9821	0.0043	0.0037	-0.0110	20.3739	-17.7701	-1.2977	0.4031	-0.5894	0.4481	0.5379
8.6	-9.3636	0.1180	-0.9760	-0.0012	0.0079	-0.0100	20.4024	-17.2682	-1.0769	0.4031	-0.5894	0.4482	0.5378
8.61	-9.3552	0.1310	-0.9829	0.0025	-0.0011	-0.0131	20.4248	-17.3521	-1.2755	0.4031	-0.5893	0.4482	0.5378
8.62	-9.3288	0.1285	-0.9711	0.0025	-0.0059	-0.0108	20.6106	-17.7246	-1.4137	0.4031	-0.5893	0.4483	0.5378
8.63	-9.3250	0.1183	-0.9750	-0.0086	-0.0027	-0.0121	20.1401	-17.7566	-1.1753	0.4031	-0.5893	0.4483	0.5379
8.64	-9.3491	0.1269	-0.9835	-0.0072	0.0140	-0.0100	20.5226	-17.4492	-1.3259	0.4031	-0.5893	0.4484	0.5378
8.65	-9.3578	0.1239	-0.9983	-0.0062	0.0094	-0.0064	20.6893	-17.6590	-1.2838	0.4030	-0.5893	0.4485	0.5378
8.66	-9.3289	0.1175	-1.0203	-0.0119	0.0086	-0.0162	20.3347	-17.8114	-1.3458	0.4030	-0.5893	0.4485	0.5378
8.67	-9.3173	0.1142	-1.0139	-0.0079	0.0141	-0.0137	20.5778	-17.6786	-1.4356	0.4029	-0.5893	0.4486	0.5378
8.68	-9.3819	0.1180	-1.0070	-0.0183	0.0180	-0.0071	20.5869	-17.6654	-1.2553	0.4028	-0.5893	0.4486	0.5377
8.69	-9.4218	0.1158	-1.0348	-0.0212	0.0200	-0.0093	20.3073	-17.5719	-1.3657	0.4027	-0.5894	0.4487	0.5377
8.7	-9.4282	0.1048	-1.0312	-0.0231	0.0109	-0.0082	20.3544	-17.5956	-1.1552	0.4026	-0.5894	0.4487	0.5377
8.71	-9.3908	0.0967	-1.0458	-0.0179	0.0098	-0.0090	20.5221	-17.5803	-1.0992	0.4025	-0.5894	0.4487	0.5377
8.72	-9.3865	0.1091	-1.0411	-0.0094	0.0081	-0.0086	20.3501	-17.6973	-1.3399	0.4025	-0.5894	0.4488	0.5377
8.73	-9.3875	0.1143	-1.0633	-0.0104	0.0137	-0.0072	20.4799	-17.5074	-1.1342	0.4024	-0.5895	0.4489	0.5377
8.74	-9.4071	0.1381	-1.0729	-0.0074	0.0236	-0.0065	20.4355	-17.4926	-1.0953	0.4023	-0.5895	0.4490	0.5377
8.75	-9.4030	0.1410	-1.0871	-0.0106	0.0157	-0.0105	20.2993	-17.5829	-1.2523	0.4023	-0.5895	0.4490	0.5376
8.76	-9.4081	0.1313	-1.0896	-0.0106	0.0098	-0.0117	20.1748	-17.7410	-1.1463	0.4022	-0.5895	0.4491	0.5376
8.77	-9.4344	0.1306	-1.0874	-0.0111	0.0078	-0.0176	20.3360	-17.5414	-1.1755	0.4022	-0.5895	0.4491	0.5376
8.78	-9.4094	0.1157	-1.0979	-0.0093	-0.0072	-0.0237	20.5094	-17.4787	-1.2216	0.4022	-0.5895	0.4491	0.5376
8.79	-9.4025	0.1199	-1.0633	-0.0079	-0.0152	-0.0196	20.4922	-17.6053	-1.2308	0.4022	-0.5895	0.4491	0.5376
8.8	-9.3766	0.1218	-1.0626	-0.0083	-0.0169	-0.0234	20.4669	-17.4525	-1.2986	0.4023	-0.5895	0.4491	0.5377
8.81	-9.3733	0.1246	-1.0411	-0.0081	-0.0200	-0.0217	20.3175	-17.5742	-1.1672	0.4023	-0.5894	0.4490	0.5377
8.82	-9.3747	0.1290	-1.0257	-0.0038	-0.0157	-0.0301	20.2923	-17.6846	-1.2491	0.4024	-0.5894	0.4490	0.5377
8.83	-9.3505	0.1236	-1.0249	-0.0066	-0.0224	-0.0211	20.3511	-17.7895	-1.1642	0.4024	-0.5893	0.4490	0.5378
8.84	-9.3415	0.1213	-1.0034	-0.0081	-0.0190	-0.0296	20.5859	-17.7297	-1.2902	0.4025	-0.5893	0.4489	0.5378
8.85	-9.3125	0.1150	-1.0233	-0.0070	-0.0125	-0.0325	20.5753	-17.5493	-1.3002	0.4026	-0.5893	0.4489	0.5378
8.86	-9.2953	0.1056	-1.0139	-0.0071	-0.0150	-0.0217	20.6724	-17.8237	-1.2243	0.4026	-0.5892	0.4488	0.5378
8.87	-9.3266	0.1186	-1.0023	-0.0091	-0.0042	-0.0242	20.5395	-17.6739	-1.2813	0.4026	-0.5892	0.4488	0.5378
8.88	-9.3477	0.1213	-1.0092	-0.0081	-0.0060	-0.0255	20.4029	-17.5610	-1.1910	0.4027	-0.5892	0.4488	0.5378
8.89	-9.3748	0.1187	-1.0032	-0.0115	-0.0055	-0.0259	20.4084	-17.5240	-1.2124	0.4027	-0.5892	0.4488	0.5378
8.9	-9.3362	0.0945	-1.0129	-0.0098	-0.0055	-0.0268	20.4881	-17.5800	-1.2407	0.4027	-0.5892	0.4488	0.5378
8.91	-9.3076	0.0920	-0.9948	-0.0061	-0.0049	-0.0159	20.3706	-17.4554	-1.3006	0.4027	-0.5892	0.4488	0.5378
8.92	-9.3006	0.0994	-0.9838	-0.0095	0.0002	-0.0158	20.4185	-17.6053	-1.0997	0.4027	-0.5892	0.4488	0.5378
8.93	-9.3080	0.1107	-0.9907	-0.0109	0.0073	-0.0196	20.3880	-17.4780	-1.1289	0.4027	-0.5892	0.4488	0.5378
8.94	-9.3117	0.1120	-0.9830	-0.0089	0.0128	-0.0267	20.5499	-17.5278	-1.1252	0.4027	-0.5893	0.4488	0.5377
8.95	-9.3231	0.1143	-0.9847	-0.0064	0.0111	-0.0253	20.3723	-17.4189	-1.1061	0.4027	-0.5893	0.4489	0.5377
8.96	-9.3103	0.1065	-0.9880	-0.0085	0.0116	-0.0247	20.1795	-17.4844	-1.2186	0.4027	-0.5893	0.4489	0.5376
8.97	-9.3698	0.1093	-0.9829	-0.0121	0.0246	-0.0311	20.4779	-17.6208	-1.3149	0.4026	-0.5894	0.4489	0.5375
8.98	-9.3786	0.1071	-1.0179	-0.0124	0.0213	-0.0294	20.6214	-17.7189	-1.1512	0.4026	-0.5895	0.4489	0.5375
8.99	-9.3913	0.1006	-1.0000	-0.0098	0.0162	-0.0331	20.5047	-17.5279	-1.3152	0.4026	-0.5896	0.4489	0.5374
9	-9.3895	0.1102	-1.0023	-0.0175	0.0146	-0.0341	20.3920	-17.4745	-1.2968	0.4026	-0.5897	0.4489	0.5373
9.01	-9.3691	0.0987	-1.0087	-0.0153	0.0086	-0.0299	20.2839	-17.5403	-1.3301	0.4026	-0.5897	0.4489	0.5373
9.02	-9.3992	0.1111	-0.9960	-0.0252	0.0105	-0.0229	20.7725	-17.5917	-1.2207	0.4025	-0.5898	0.4489	0.5373
9.03	-9.3671	0.1075	-1.0096	-0.0319	0.0094	-0.0255	20.9579	-17.2895	-0.9033	0.4024	-0.5899	0.4488	0.5373
9.04	-9.3662	0.1037	-0.9821	-0.0313	0.0044	-0.0279	21.0662	-17.1297	-0.9383	0.4024	-0.5900	0.4487	0.5373
9.05	-9.3865	0.0996	-0.9932	-0.0348	0.0106	-0.0244	20.8233	-17.8120	-0.9736	0.4023	-0.5901	0.4487	0.5373
9.06	-9.3872	0.0839	-1.0194	-0.0336	0.0116	-0.0228	20.5397	-18.6250	-1.3211	0.4022	-0.5901	0.4487	0.5373
9.07	-9.3863	0.0773	-0.9971	-0.0387	-0.0067	-0.0248	20.5718	-18.2489	-1.4476	0.4021	-0.5902	0.4486	0.5374
9.08	-9.3916	0.0725	-0.9966	-0.0356	-0.0018	-0.0190	20.3857	-17.4271	-1.0784	0.4020	-0.5903	0.4485	0.5374
9.09	-9.4039	0.0645	-1.0037	-0.0337	0.0012	-0.0235	20.2904	-17.8628	-1.2561	0.4020	-0.5903	0.4484	0.5375
9.1	-9.4029	0.0619	-1.0068	-0.0351	-0.0042	-0.0240	20.5175	-17.5736	-1.2544	0.4019	-0.5904	0.4484	0.5375
9.11	-9.4022	0.0449	-1.0002	-0.0328	-0.0026	-0.0323	20.3385	-17.4989	-1.2710	0.4019	-0.5904	0.4483	0.5375
9.12	-9.4048	0.0339	-1.0095	-0.0323	-0.0047	-0.0261	20.4291	-17.6361	-1.2461	0.4018	-0.5905	0.4482	0.5376
9.13	-9.4074	0.0336	-1.0066	-0.0207	-0.0090	-0.0233	20.0333	-17.5081	-1.2899	0.4018	-0.5905	0.4481	0.5376
9.14	-9.3881	0.0368	-1.0074	-0.0105	-0.0073	-0.0219	20.1105	-17.5051	-1.1591	0.4018	-0.5905	0.4481	0.5376
9.15	-9.3743	0.0419	-0.9843	-0.0228	-0.0164	-0.0288	20.2180	-17.5961	-1.0698	0.4018	-0.5905	0.4480	0.5377
9.16	-9.3695	0.0405	-0.9755	-0.0138	-0.0143	-0.0273	20.4024	-17.2774	-1.2494	0.4019	-0.5905	0.4480	0.5377
9.17	-9.3425	0.0357	-0.9735	-0.0111	-0.0146	-0.0272	20.2352	-17.4430	-1.2947	0.4019	-0.5905	0.4479	0.5378
9.18	-9.3364	0.0305	-0.9655	-0.0079	-0.0161	-0.0375	20.1042	-17.2875	-1.1312	0.4020	-0.5905	0.4479	0.5378
9.19	-9.3354	0.0332	-0.9569	-0.0093	-0.0206	-0.0219	20.2233	-17.3955	-1.2552	0.4021	-0.5904	0.4478	0.5378
9.2	-9.3535	0.0525	-0.9542	-0.0068	-0.0163	-0.0156	20.2617	-17.5824	-1.6140	0.4021	-0.5904	0.4478	0.5378
9.21	-9.3449	0.0648	-0.9655	-0.0067	-0.0078	-0.0153	20.7025	-17.6876	-1.3278	0.4021	-0.5903	0.4478	0.5379
9.22	-9.3356	0.0574	-0.9565	-0.0081	-0.0174	-0.0200	20.5129	-17.6521	-1.2493	0.4021	-0.5903	0.4478	0.5379
9.23	-9.3341	0.0590	-0.9603	-0.0034	-0.0081	-0.0201	20.3017	-17.5833	-1.2601	0.4022	-0.5902	0.4478	0.5379
9.24	-9.3635	0.0708	-0.9357	-0.0079	-0.0076	-0.0154	20.5672	-17.5645	-1.2730	0.4022	-0.5902	0.4478	0.5379
9.25	-9.3803	0.0664	-0.9365	-0.0086	-0.0126	-0.0136	20.5527	-17.7271	-1.1507	0.4022	-0.5902	0.4478	0.5380
9.26	-9.3425	0.0671	-0.9526	-0.0089	-0.0107	-0.0176	20.3433	-17.4587	-1.1847	0.4022	-0.5901	0.4478	0.5380
9.27	-9.3030	0.0795	-0.9402	-0.0078	-0.0143	-0.0099	20.3994	-17.5124	-1.3463	0.4022	-0.5901	0.4478	0.5380
9.28	-9.2974	0.0922	-0.9450	-0.0080	-0.0000	-0.0111	20.3732	-17.6266	-1.3702	0.4022	-0.5900	0.4479	0.5381
9.29	-9.3326	0.1135	-0.9684	-0.0096	0.0115	-0.0096	20.4898	-17.4849	-1.1272	0.4021	-0.5900	0.4479	0.5380
9.3	-9.3429	0.1204	-0.9953	-0.0074	0.0181	-0.0166	20.0180	-17.6195	-1.2079	0.4021	-0.5901	0.4480	0.5380
9.31	-9.3596	0.1103	-0.9999	-0.0177	0.0177	-0.0217	20.0974	-17.6081	-1.3479	0.4020	-0.5901	0.4480	0.5379
9.32	-9.3735	0.0879	-1.0216	-0.0119	0.0252	-0.0209	20.1227	-17.4038	-1.3728	0.4020	-0.5902	0.4481	0.5379
9.33	-9.3702	0.0705	-1.0383	-0.0147	0.0241	-0.0267	20.2350	-17.3209	-1.2145	0.4019	-0.5903	0.4481	0.5378
9.34	-9.3827	0.0659	-1.0251	-0.0113	0.0168	-0.0245	20.1654	-17.4796	-0.9776	0.4019	-0.5904	0.4481	0.5377
9.35	-9.3801	0.0602	-1.0312	-0.0171	0.0141	-0.0251	20.3698	-17.6003	-1.3728	0.4018	-0.5904	0.4481	0.5377
9.36	-9.3561	0.0595	-1.0240	-0.0156	0.0037	-0.0210	20.4042	-17.4830	-1.2361	0.4018	-0.5905	0.4481	0.5377
9.37	-9.3337	0.0607	-1.0242	-0.0114	0.0090	-0.0208	20.2166	-17.2541	-1.3087	0.4018	-0.5905	0.4481	0.5376
9.38	-9.3166	0.0602	-1.0326	-0.0084	0.0137	-0.0233	20.2323	-17.4619	-1.1516	0.4018	-0.5906	0.4482	0.5376
9.39	-9.3237	0.0626	-1.0519	-0.0092	0.0096	-0.0204	20.5735	-17.6130	-1.3580	0.4017	-0.5906	0.4482	0.5375
9.4	-9.3267	0.0659	-1.0629	-0.0083	0.0209	-0.0265	20.5785	-17.6747	-1.4494	0.4017	-0.5906	0.4482	0.5375
9.41	-9.3280	0.0687	-1.0830	-0.0122	0.0237	-0.0214	20.5130	-17.5430	-1.4751	0.4017	-0.5907	0.4483	0.5374
9.42	-9.3216	0.0656	-1.0954	-0.0090	0.0221	-0.0186	20.4001	-17.6928	-1.2858	0.4016	-0.5908	0.4483	0.5373
9.43	-9.3873	0.0805	-1.0828	-0.0084	0.0283	-0.0246	20.3444	-17.5802	-1.1492	0.4015	-0.5909	0.4484	0.5372
9.44	-9.4275	0.0753	-1.1007	-0.0079	0.0279	-0.0234	20.3375	-17.4627	-1.2991	0.4015	-0.5909	0.4484	0.5371
9.45	-9.4452	0.0621	-1.1168	-0.0047	0.0245	-0.0239	20.5721	-17.5759	-1.2433	0.4015	-0.5910	0.4485	0.5370
9.46	-9.3985	0.0482	-1.1349	-0.0099	0.0157	-0.0228	20.5759	-17.5944	-1.2711	0.4014	-0.5911	0.4485	0.5370
9.47	-9.4011	0.0569	-1.1016	-0.0071	0.0065	-0.0131	20.5210	-17.5885	-1.1450	0.4014	-0.5911	0.4486	0.5369
9.48	-9.4109	0.0684	-1.1173	-0.0089	0.0084	-0.0224	20.3444	-17.4192	-1.1820	0.4014	-0.5911	0.4486	0.5369
9.49	-9.4166	0.0757	-1.1155	-0.0086	0.0012	-0.0248	20.4015	-17.4693	-1.1598	0.4014	-0.5911	0.4486	0.5369
9.5	-9.4036	0.0819	-1.1139	-0.0036	0.0009	-0.0261	20.3047	-17.5392	-1.2626	0.4014	-0.5911	0.4486	0.5368
9.51	-9.4048	0.0773	-1.1053	-0.0074	-0.0051	-0.0251	20.2405	-17.3322	-1.2866	0.4015	-0.5911	0.4486	0.5368
9.52	-9.4090	0.0766	-1.1026	-0.0078	-0.0002	-0.0310	20.2706	-17.3519	-1.2040	0.4015	-0.5911	0.4486	0.5368
9.53	-9.3856	0.0710	-1.0930	-0.0019	-0.0128	-0.0311	20.6425	-17.2955	-1.1538	0.4016	-0.5911	0.4485	0.5368
9.54	-9.3787	0.0680	-1.0735	-0.0036	-0.0156	-0.0338	20.9352	-17.0654	-1.2607	0.4016	-0.5911	0.4485	0.5368
9.55	-9.3654	0.0675	-1.0773	-0.0084	-0.0111	-0.0296	20.5619	-17.4416	-1.2638	0.4017	-0.5911	0.4485	0.5368
9.56	-9.3668	0.0685	-1.0617	-0.0067	-0.0153	-0.0220	20.4529	-18.4050	-1.2131	0.4017	-0.5910	0.4484	0.5368
9.57	-9.3567	0.0631	-1.0614	-0.0100	-0.0225	-0.0105	20.4743	-18.1858	-1.3090	0.4018	-0.5910	0.4484	0.5369
9.58	-9.3429	0.0620	-1.0408	-0.0105	-0.0224	-0.0153	20.5316	-17.4037	-1.2998	0.4018	-0.5909	0.4484	0.5370
9.59	-9.3511	0.0639	-1.0258	-0.0133	-0.0152	-0.0113	20.3635	-17.8029	-1.1711	0.4018	-0.5909	0.4484	0.5370
9.6	-9.3355	0.0704	-1.0348	-0.0146	-0.0176	-0.0098	20.4138	-17.3908	-1.3308	0.4018	-0.5908	0.4484	0.5371
9.61	-9.3291	0.0737	-1.0103	-0.0107	-0.0213	-0.0135	20.7633	-17.9194	-1.2953	0.4018	-0.5907	0.4484	0.5372
9.62	-9.3692	0.0791	-1.0100	-0.0248	-0.0156	-0.0067	20.5707	-17.7569	-1.3237	0.4018	-0.5907	0.4483	0.5373
9.63	-9.3697	0.0757	-1.0234	-0.0284	-0.0047	-0.0124	20.4184	-17.4802	-1.2878	0.4017	-0.5907	0.4483	0.5373
9.64	-9.3788	0.0703	-1.0145	-0.0232	-0.0127	-0.0109	20.3802	-17.6199	-1.4329	0.4017	-0.5907	0.4483	0.5374
9.65	-9.3979	0.0624	-1.0159	-0.0250	-0.0122	-0.0142	20.4506	-17.7198	-1.3619	0.4016	-0.5907	0.4482	0.5375
9.66	-9.3823	0.0401	-1.0157	-0.0181	-0.0158	-0.0154	20.2876	-17.4987	-1.1568	0.4016	-0.5906	0.4482	0.5376
9.67	-9.3850	0.0408	-1.0061	-0.0105	-0.0137	-0.0142	20.2460	-17.6172	-1.3317	0.4016	-0.5906	0.4482	0.5376
9.68	-9.3804	0.0433	-1.0075	-0.0128	-0.0133	-0.0141	20.5580	-17.5807	-1.3068	0.4016	-0.5905	0.4482	0.5377
9.69	-9.3927	0.0483	-1.0170	-0.0106	-0.0146	-0.0166	20.4404	-17.6823	-1.1810	0.4016	-0.5905	0.4482	0.5377
9.7	-9.3948	0.0544	-1.0169	-0.0074	-0.0178	-0.0188	20.3780	-17.7977	-1.2900	0.4017	-0.5904	0.4481	0.5378
9.71	-9.4112	0.0595	-1.0035	-0.0078	-0.0178	-0.0223	20.5066	-17.4873	-1.3358	0.4017	-0.5904	0.4481	0.5378
9.72	-9.4027	0.0602	-0.9961	-0.0081	-0.0216	-0.0184	20.3833	-17.4264	-1.1901	0.4018	-0.5903	0.4481	0.5378
9.73	-9.3791	0.0527	-0.9880	-0.0085	-0.0283	-0.0234	20.5844	-17.4508	-1.2629	0.4018	-0.5903	0.4480	0.5379
9.74	-9.3656	0.0528	-0.9808	-0.0097	-0.0254	-0.0196	20.2817	-17.6260	-1.1197	0.4019	-0.5902	0.4480	0.5380
9.75	-9.3744	0.0710	-0.9653	0.0015	-0.0272	-0.0108	20.5414	-17.5926	-1.2300	0.4020	-0.5901	0.4480	0.5381
9.76	-9.3912	0.0799	-0.9691	-0.0078	-0.0234	-0.0100	20.4189	-17.5110	-1.3424	0.4020	-0.5900	0.4480	0.5381
9.77	-9.3812	0.0765	-0.9795	-0.0046	-0.0334	-0.0155	20.3149	-17.5124	-1.3007	0.4021	-0.5899	0.4480	0.5382
9.78	-9.3758	0.0777	-0.9506	-0.0108	-0.0365	-0.0155	20.5257	-17.5935	-1.3287	0.4021	-0.5898	0.4479	0.5383
9.79	-9.4086	0.0768	-0.9299	-0.0082	-0.0340	-0.0139	20.5824	-17.7233	-1.2884	0.4022	-0.5897	0.4479	0.5384
9.8	-9.4178	0.0655	-0.9291	-0.0146	-0.0427	-0.0155	20.5751	-17.6707	-1.5104	0.4023	-0.5896	0.4478	0.5386
9.81	-9.3923	0.0695	-0.9194	-0.0155	-0.0415	-0.0140	20.3775	-17.4810	-1.3860	0.4023	-0.5895	0.4477	0.5387
9.82	-9.3454	0.0624	-0.9241	-0.0066	-0.0396	-0.0119	20.5112	-17.2936	-1.0978	0.4024	-0.5893	0.4477	0.5388
9.83	-9.3317	0.0787	-0.9107	-0.0115	-0.0318	-0.0081	20.7166	-17.5188	-1.1490	0.4024	-0.5892	0.4477	0.5389
9.84	-9.3357	0.0928	-0.9051	-0.0072	-0.0329	-0.0016	20.4606	-17.4651	-1.3080	0.4025	-0.5891	0.4477	0.5391
9.85	-9.3485	0.1069	-0.9191	-0.0112	-0.0235	-0.0067	20.5981	-17.7230	-1.2983	0.4025	-0.5890	0.4476	0.5392
9.86	-9.3500	0.1194	-0.9266	-0.0126	-0.0240	-0.0090	20.5630	-17.6409	-1.4366	0.4025	-0.5889	0.4476	0.5392
9.87	-9.3661	0.1174	-0.9284	-0.0153	-0.0174	-0.0085	20.3454	-17.5586	-1.3537	0.4025	-0.5889	0.4476	0.5393
9.88	-9.3684	0.1076	-0.9321	-0.0186	-0.0179	-0.0096	20.2418	-17.7605	-1.3151	0.4025	-0.5888	0.4476	0.5394
9.89	-9.3748	0.0920	-0.9234	-0.0157	-0.0150	-0.0098	20.2107	-17.5986	-1.2106	0.4024	-0.5888	0.4476	0.5395
9.9	-9.3805	0.0875	-0.9253	-0.0156	-0.0216	-0.0154	20.4602	-17.5761	-1.3656	0.4024	-0.5887	0.4476	0.5396
9.91	-9.3746	0.0852	-0.9185	-0.0126	-0.0274	-0.0193	20.5286	-17.2217	-1.3933	0.4025	-0.5887	0.4475	0.5396
9.92	-9.3646	0.0870	-0.9132	-0.0104	-0.0315	-0.0140	20.4015	-17.5565	-1.2520	0.4025	-0.5886	0.4475	0.5397
9.93	-9.3464	0.0835	-0.8980	-0.0101	-0.0333	-0.0168	20.4183	-17.4882	-1.5672	0.4026	-0.5885	0.4474	0.5398
9.94	-9.3491	0.0926	-0.8829	-0.0100	-0.0331	-0.0121	20.4973	-17.7076	-1.4224	0.4027	-0.5884	0.4474	0.5399
9.95	-9.3318	0.0964	-0.8828	-0.0106	-0.0356	-0.0100	20.3320	-17.6109	-1.4550	0.4027	-0.5883	0.4473	0.5401
9.96	-9.3211	0.1013	-0.8803	-0.0155	-0.0280	-0.0095	20.6186	-17.7041	-1.5318	0.4027	-0.5882	0.4473	0.5402
9.97	-9.2871	0.1078	-0.8810	-0.0141	-0.0197	-0.0135	20.4461	-17.6670	-1.3497	0.4027	-0.5881	0.4473	0.5403
9.98	-9.3192	0.1137	-0.8632	-0.0112	-0.0094	-0.0149	20.5649	-17.6300	-1.3113	0.4027	-0.5881	0.4473	0.5403
9.99	-9.3516	0.1067	-0.8815	-0.0134	-0.0065	-0.0130	20.5686	-17.7225	-1.2943	0.4027	-0.5881	0.4473	0.5403
10	-9.3843	0.0943	-0.8896	-0.0149	-0.0134	-0.0150	20.7114	-17.6881	-1.4223	0.4027	-0.5880	0.4473	0.5404
10.01	-9.3481	0.0800	-0.9113	-0.0160	-0.0166	-0.0158	20.3509	-17.6870	-1.3779	0.4027	-0.5880	0.4472	0.5404
10.02	-9.3287	0.0725	-0.8993	-0.0097	-0.0084	-0.0138	20.4144	-17.5349	-1.2736	0.4027	-0.5880	0.4472	0.5405
10.03	-9.3588	0.0870	-0.8986	-0.0068	-0.0025	-0.0140	20.9523	-17.5081	-1.4132	0.4027	-0.5879	0.4473	0.5405
10.04	-9.3768	0.0892	-0.9144	-0.0078	-0.0063	-0.0114	21.3038	-17.3218	-1.4714	0.4027	-0.5879	0.4473	0.5405
10.05	-9.3732	0.1004	-0.9148	-0.0091	-0.0025	-0.0222	20.7596	-17.6268	-1.3110	0.4027	-0.5879	0.4473	0.5405
10.06	-9.3674	0.1033	-0.9002	-0.0127	-0.0136	-0.0192	20.4907	-18.4292	-1.3524	0.4027	-0.5879	0.4473	0.5405
10.07	-9.3857	0.1025	-0.8983	-0.0069	-0.0057	-0.0233	20.3766	-18.0687	-1.4470	0.4028	-0.5878	0.4473	0.5405
10.08	-9.3964	0.1058	-0.9004	-0.0082	-0.0078	-0.0221	20.1902	-17.2723	-1.4711	0.4028	-0.5878	0.4473	0.5405
10.09	-9.3881	0.1083	-0.9049	-0.0081	-0.0106	-0.0252	20.2271	-17.6420	-1.4247	0.4028	-0.5878	0.4472	0.5405
10.1	-9.3782	0.1125	-0.8931	-0.0080	-0.0093	-0.0250	20.2897	-17.5725	-1.2430	0.4029	-0.5878	0.4472	0.5405
10.11	-9.3706	0.1135	-0.8901	-0.0065	-0.0077	-0.0218	20.4293	-17.5833	-1.3967	0.4029	-0.5878	0.4472	0.5405
10.12	-9.3530	0.1100	-0.8900	-0.0120	-0.0153	-0.0213	20.2463	-17.4930	-1.4735	0.4029	-0.5878	0.4472	0.5406
10.13	-9.3500	0.1152	-0.8729	-0.0101	-0.0084	-0.0108	20.2043	-17.4724	-1.4545	0.4029	-0.5877	0.4472	0.5406
10.14	-9.3304	0.1099	-0.8887	-0.0139	-0.0103	-0.0123	20.3164	-17.7035	-1.4597	0.4029	-0.5877	0.4472	0.5407
10.15	-9.3361	0.1036	-0.8825	-0.0224	-0.0092	-0.0107	20.4236	-17.7399	-1.3337	0.4029	-0.5877	0.4472	0.5407
10.16	-9.3592	0.1076	-0.8971	-0.0169	0.0015	-0.0102	20.5519	-17.5365	-1.5663	0.4028	-0.5877	0.4472	0.5408
10.17	-9.3779	0.0980	-0.9179	-0.0294	-0.0038	-0.0082	20.3230	-17.6113	-1.4626	0.4027	-0.5877	0.4472	0.5408
10.18	-9.4078	0.0862	-0.9179	-0.0249	-0.0022	-0.0100	20.2142	-17.6651	-1.4548	0.4027	-0.5877	0.4472	0.5409
10.19	-9.4049	0.0755	-0.9264	-0.0256	-0.0075	-0.0137	20.4749	-17.9653	-1.4320	0.4026	-0.5877	0.4471	0.5409
10.2	-9.4065	0.0631	-0.9182	-0.0153	-0.0025	-0.0112	20.5135	-17.8453	-1.2878	0.4026	-0.5877	0.4471	0.5410
10.21	-9.4339	0.0727	-0.9203	-0.0099	-0.0030	-0.0117	20.3941	-17.5513	-1.5798	0.4026	-0.5876	0.4472	0.5410
10.22	-9.4061	0.0703	-0.9356	-0.0077	-0.0122	-0.0100	20.3154	-17.7298	-1.5169	0.4026	-0.5876	0.4472	0.5410
10.23	-9.3822	0.0752	-0.9114	-0.0081	-0.0167	-0.0130	20.2657	-17.7608	-1.2681	0.4026	-0.5875	0.4472	0.5411
10.24	-9.3854	0.0865	-0.9135	-0.0065	-0.0081	-0.0162	20.2123	-17.5229	-1.2655	0.4026	-0.5875	0.4472	0.5411
10.25	-9.3753	0.0960	-0.9255	-0.0025	-0.0090	-0.0099	20.2214	-17.3900	-1.3720	0.4026	-0.5874	0.4472	0.5411
10.26	-9.3668	0.1110	-0.9134	0.0012	-0.0112	-0.0107	20.2539	-17.4408	-1.5040	0.4026	-0.5874	0.4473	0.5412
10.27	-9.3679	0.1125	-0.9146	0.0000	-0.0108	-0.0191	20.3373	-17.3748	-1.3862	0.4027	-0.5873	0.4473	0.5412
10.28	-9.3610	0.1103	-0.9209	-0.0043	-0.0137	-0.0216	20.3066	-17.5325	-1.3586	0.4027	-0.5873	0.4473	0.5412
10.29	-9.3602	0.1143	-0.9137	-0.0047	-0.0128	-0.0187	20.3123	-17.4511	-1.3662	0.4028	-0.5872	0.4473	0.5412
10.3	-9.3822	0.1162	-0.8998	0.0023	-0.0130	-0.0126	20.3320	-17.4790	-1.5380	0.4028	-0.5872	0.4473	0.5412
10.31	-9.3820	0.1242	-0.9180	-0.0100	-0.0136	-0.0128	20.2422	-17.6545	-1.5041	0.4028	-0.5871	0.4473	0.5413
10.32	-9.3607	0.1240	-0.9054	-0.0027	-0.0158	-0.0127	20.2053	-17.4558	-1.3326	0.4028	-0.5870	0.4473	0.5413
10.33	-9.3498	0.1250	-0.8895	-0.0029	-0.0168	-0.0151	20.4779	-17.8865	-1.3917	0.4029	-0.5870	0.4473	0.5413
10.34	-9.3846	0.1170	-0.8723	-0.0076	-0.0120	-0.0187	20.4891	-17.6029	-1.4813	0.4029	-0.5869	0.4473	0.5414
10.35	-9.3953	0.1090	-0.8728	-0.0085	-0.0101	-0.0177	20.4986	-17.6417	-1.4240	0.4029	-0.5869	0.4473	0.5414
10.36	-9.3541	0.0949	-0.8706	-0.0080	-0.0157	-0.0169	20.4811	-17.9017	-1.5839	0.4030	-0.5869	0.4473	0.5414
10.37	-9.3166	0.1021	-0.8614	-0.0046	-0.0171	-0.0077	20.3632	-17.6791	-1.4839	0.4030	-0.5868	0.4473	0.5415
10.38	-9.3182	0.1200	-0.8591	-0.0008	-0.0015	-0.0091	20.2322	-17.7024	-1.4643	0.4030	-0.5867	0.4474	0.5415
10.39	-9.3397	0.1291	-0.8741	0.0022	0.0056	-0.0077	20.2092	-17.5680	-1.3517	0.4030	-0.5867	0.4475	0.5415
10.4	-9.3453	0.1348	-0.8957	-0.0082	0.0135	-0.0110	20.4628	-17.7315	-1.3894	0.4029	-0.5867	0.4475	0.5414
10.41	-9.3489	0.1392	-0.9105	-0.0059	0.0186	-0.0075	20.4976	-17.7465	-1.4472	0.4029	-0.5867	0.4476	0.5414
10.42	-9.3684	0.1458	-0.9181	-0.0110	0.0155	-0.0116	20.1574	-17.5750	-1.2450	0.4028	-0.5868	0.4477	0.5414
10.43	-9.3867	0.1493	-0.9248	-0.0048	0.0228	-0.0145	20.0085	-17.6019	-1.2910	0.4028	-0.5868	0.4478	0.5413
10.44	-9.3918	0.1529	-0.9362	-0.0055	0.0202	-0.0233	20.3528	-17.4519	-1.3910	0.4027	-0.5868	0.4478	0.5412
10.45	-9.3868	0.1586	-0.9222	-0.0086	0.0115	-0.0220	20.1937	-17.5869	-1.3376	0.4027	-0.5869	0.4478	0.5411
10.46	-9.3978	0.1672	-0.9094	-0.0081	0.0075	-0.0232	20.0119	-17.5874	-1.4750	0.4027	-0.5869	0.4479	0.5411
10.47	-9.3737	0.1528	-0.9207	-0.0083	0.0108	-0.0330	20.2779	-17.6072	-1.3277	0.4027	-0.5870	0.4479	0.5410
10.48	-9.3676	0.1499	-0.9037	-0.0119	-0.0011	-0.0314	20.3412	-17.5440	-1.4216	0.4027	-0.5870	0.4478	0.5410
10.49	-9.3694	0.1417	-0.9132	-0.0162	0.0188	-0.0284	20.2324	-17.4759	-1.4761	0.4027	-0.5871	0.4478	0.5409
10.5	-9.3684	0.1257	-0.9178	-0.0246	0.0154	-0.0331	20.2176	-17.6060	-1.4476	0.4027	-0.5872	0.4478	0.5409
10.51	-9.3695	0.1169	-0.9287	-0.0199	0.0117	-0.0321	20.3548	-17.5981	-1.4591	0.4026	-0.5873	0.4477	0.5409
10.52	-9.3372	0.1017	-0.9413	-0.0213	0.0093	-0.0254	20.6609	-17.7262	-1.2475	0.4026	-0.5873	0.4477	0.5408
10.53	-9.3570	0.1008	-0.9158	-0.0193	0.0138	-0.0239	20.6446	-17.6277	-1.3589	0.4026	-0.5874	0.4477	0.5408
10.54	-9.3812	0.0864	-0.9267	-0.0356	0.0139	-0.0292	20.9438	-17.6189	-1.4279	0.4025	-0.5875	0.4477	0.5408
10.55	-9.3912	0.0626	-0.9354	-0.0329	0.0093	-0.0219	20.6670	-17.7758	-1.1675	0.4024	-0.5876	0.4476	0.5408
10.56	-9.3778	0.0515	-0.9312	-0.0368	0.0007	-0.0201	20.3895	-18.5322	-1.2002	0.4023	-0.5877	0.4475	0.5408
10.57	-9.3684	0.0519	-0.9291	-0.0229	0.0034	-0.0202	20.7008	-18.2953	-1.3966	0.4023	-0.5877	0.4475	0.5409
10.58	-9.3627	0.0653	-0.9303	-0.0242	0.0068	-0.0161	20.4612	-17.3688	-1.5499	0.4022	-0.5877	0.4475	0.5409
10.59	-9.3753	0.0798	-0.9263	-0.0258	0.0104	-0.0123	20.3951	-17.7613	-1.4264	0.4021	-0.5878	0.4475	0.5409
10.6	-9.3863	0.0850	-0.9342	-0.0129	0.0090	-0.0138	20.5971	-17.7619	-1.4023	0.4020	-0.5878	0.4475	0.5409
10.61	-9.3857	0.0822	-0.9405	-0.0186	0.0136	-0.0130	20.4435	-17.8185	-1.3971	0.4020	-0.5878	0.4476	0.5409
10.62	-9.3721	0.0762	-0.9322	-0.0186	0.0105	-0.0149	20.3621	-17.3862	-1.4427	0.4019	-0.5879	0.4476	0.5408
10.63	-9.3768	0.0824	-0.9311	-0.0058	0.0049	-0.0158	20.4264	-17.5739	-1.3214	0.4019	-0.5879	0.4476	0.5408
10.64	-9.3998	0.0788	-0.9404	-0.0135	0.0123	-0.0197	20.1880	-17.7620	-1.4068	0.4019	-0.5879	0.4476	0.5408
10.65	-9.4040	0.0785	-0.9474	-0.0120	0.0089	-0.0200	20.2220	-17.5337	-1.4064	0.4018	-0.5880	0.4477	0.5408
10.66	-9.3938	0.0896	-0.9200	-0.0060	-0.0020	-0.0122	20.3492	-17.6352	-1.4512	0.4018	-0.5879	0.4477	0.5408
10.67	-9.3783	0.0973	-0.9196	-0.0103	-0.0070	-0.0179	20.4834	-17.7506	-1.5403	0.4018	-0.5879	0.4477	0.5408
10.68	-9.3697	0.0927	-0.9267	-0.0127	-0.0047	-0.0213	20.3738	-17.6065	-1.3731	0.4018	-0.5879	0.4477	0.5408
10.69	-9.3843	0.0869	-0.9266	-0.0087	0.0060	-0.0175	20.3928	-17.6101	-1.3160	0.4018	-0.5879	0.4477	0.5408
10.7	-9.3683	0.0826	-0.9323	-0.0069	-0.0044	-0.0144	20.1545	-17.6991	-1.5222	0.4018	-0.5879	0.4477	0.5408
10.71	-9.3583	0.0734	-0.9219	-0.0065	-0.0004	-0.0140	20.4780	-17.6468	-1.4119	0.4018	-0.5879	0.4478	0.5408
10.72	-9.3735	0.0718	-0.9253	-0.0090	0.0014	-0.0098	20.5812	-17.4952	-1.2964	0.4018	-0.5879	0.4478	0.5408
10.73	-9.3953	0.0715	-0.9312	-0.0055	0.0092	-0.0081	20.5757	-17.7294	-1.5029	0.4017	-0.5879	0.4479	0.5408
10.74	-9.4174	0.0827	-0.9285	-0.0007	0.0040	-0.0087	20.4564	-17.6398	-1.4448	0.4017	-0.5878	0.4479	0.5408
10.75	-9.4117	0.0896	-0.9335	0.0099	-0.0005	-0.0067	20.1388	-17.5348	-1.2852	0.4018	-0.5878	0.4480	0.5407
10.76	-9.4138	0.0973	-0.9262	0.0065	-0.0005	-0.0118	20.4125	-17.3957	-1.4952	0.4018	-0.5877	0.4481	0.5407
10.77	-9.4032	0.1078	-0.9342	-0.0023	-0.0076	-0.0087	20.4642	-17.5660	-1.4598	0.4018	-0.5877	0.4481	0.5407
10.78	-9.3897	0.1214	-0.9272	0.0091	-0.0129	-0.0121	20.2507	-17.7163	-1.3574	0.4018	-0.5876	0.4482	0.5407
10.79	-9.3967	0.1334	-0.9197	0.0156	-0.0049	-0.0090	20.4401	-17.8308	-1.6749	0.4019	-0.5875	0.4483	0.5407
10.8	-9.3843	0.1512	-0.9248	0.0124	-0.0091	-0.0117	20.2991	-17.8871	-1.3119	0.4020	-0.5874	0.4484	0.5407
10.81	-9.3943	0.1659	-0.9051	0.0070	-0.0164	-0.0219	20.1014	-17.6951	-1.1875	0.4021	-0.5873	0.4484	0.5407
10.82	-9.4240	0.1683	-0.9002	-0.0047	-0.0144	-0.0210	20.1877	-17.7276	-1.3096	0.4021	-0.5873	0.4484	0.5407
10.83	-9.4128	0.1551	-0.9150	-0.0067	-0.0156	-0.0216	20.4942	-17.5786	-1.6112	0.4022	-0.5872	0.4483	0.5407
10.84	-9.4056	0.1463	-0.9011	-0.0053	-0.0228	-0.0186	20.3692	-17.7015	-1.4743	0.4022	-0.5872	0.4483	0.5408
10.85	-9.4131	0.1494	-0.8995	-0.0047	-0.0200	-0.0220	20.1964	-17.6620	-1.3895	0.4023	-0.5871	0.4483	0.5408
10.86	-9.4231	0.1540	-0.9041	-0.0074	-0.0334	-0.0111	20.2813	-17.4878	-1.4077	0.4023	-0.5870	0.4483	0.5409
10.87	-9.4066	0.1591	-0.9109	-0.0183	-0.0290	-0.0142	20.2395	-17.6007	-1.3163	0.4024	-0.5869	0.4482	0.5410
10.88	-9.3701	0.1479	-0.8912	-0.0200	-0.0395	-0.0152	20.5139	-17.6124	-1.4943	0.4024	-0.5869	0.4481	0.5412
10.89	-9.4030	0.1451	-0.8681	-0.0240	-0.0453	-0.0110	20.3789	-17.7206	-1.6104	0.4024	-0.5867	0.4480	0.5413
10.9	-9.4034	0.1242	-0.8833	-0.0303	-0.0421	-0.0159	20.4725	-17.8037	-1.4387	0.4025	-0.5867	0.4479	0.5415
10.91	-9.3879	0.1047	-0.8616	-0.0329	-0.0449	-0.0170	20.3561	-17.6672	-1.4454	0.4025	-0.5866	0.4478	0.5417
10.92	-9.3531	0.0830	-0.8587	-0.0340	-0.0415	-0.0092	20.3945	-17.7573	-1.5266	0.4025	-0.5865	0.4477	0.5419
10.93	-9.3368	0.0803	-0.8493	-0.0290	-0.0449	-0.0086	20.3905	-17.5721	-1.4922	0.4025	-0.5864	0.4475	0.5421
10.94	-9.3368	0.0951	-0.8468	-0.0241	-0.0345	-0.0082	20.3576	-17.6981	-1.3663	0.4025	-0.5863	0.4475	0.5422
10.95	-9.3353	0.1161	-0.8405	-0.0179	-0.0331	-0.0101	20.2656	-17.6522	-1.5037	0.4025	-0.5862	0.4474	0.5424
10.96	-9.3416	0.1238	-0.8466	-0.0183	-0.0205	-0.0083	20.3202	-17.6233	-1.4094	0.4025	-0.5861	0.4474	0.5425
10.97	-9.3234	0.1204	-0.8644	-0.0099	-0.0183	-0.0116	20.2690	-17.6031	-1.5294	0.4025	-0.5861	0.4474	0.5425
10.98	-9.3255	0.1233	-0.8556	-0.0159	-0.0140	-0.0192	20.3505	-17.5430	-1.6257	0.4026	-0.5860	0.4473	0.5426
10.99	-9.3379	0.1164	-0.8587	-0.0130	-0.0102	-0.0225	20.4077	-17.7237	-1.5702	0.4026	-0.5860	0.4473	0.5426
11	-9.3520	0.1089	-0.8632	-0.0078	-0.0037	-0.0183	20.2812	-17.7243	-1.6177	0.4026	-0.5860	0.4473	0.5426
11.01	-9.3630	0.1144	-0.8594	-0.0098	-0.0083	-0.0209	20.4217	-17.5609	-1.5532	0.4026	-0.5860	0.4473	0.5426
11.02	-9.3753	0.1184	-0.8625	-0.0075	-0.0040	-0.0202	20.3485	-17.7441	-1.2833	0.4026	-0.5860	0.4473	0.5426
11.03	-9.3758	0.1185	-0.8644	-0.0101	-0.0067	-0.0238	20.5285	-17.5462	-1.4130	0.4026	-0.5860	0.4473	0.5426
11.04	-9.3712	0.1154	-0.8474	-0.0100	-0.0136	-0.0227	20.9493	-17.1155	-1.4837	0.4027	-0.5860	0.4473	0.5427
11.05	-9.3704	0.1229	-0.8474	-0.0132	-0.0057	-0.0204	20.3874	-17.8097	-1.4952	0.4027	-0.5860	0.4472	0.5427
11.06	-9.3684	0.1094	-0.8509	-0.0079	-0.0023	-0.0199	20.3977	-18.4207	-1.5397	0.4027	-0.5859	0.4472	0.5427
11.07	-9.3712	0.1045	-0.8651	-0.0065	0.0020	-0.0108	20.2966	-18.1581	-1.6215	0.4027	-0.5859	0.4473	0.5427
11.08	-9.3409	0.0973	-0.8645	-0.0041	0.0049	-0.0117	20.3580	-17.5794	-1.4962	0.4027	-0.5859	0.4473	0.5427
11.09	-9.3806	0.1056	-0.8516	-0.0027	0.0108	-0.0119	20.5869	-17.8332	-1.4035	0.4026	-0.5859	0.4474	0.5426
11.1	-9.4212	0.0957	-0.8760	-0.0070	0.0085	-0.0153	20.3715	-17.7177	-1.5269	0.4026	-0.5859	0.4474	0.5426
11.11	-9.4364	0.0807	-0.8815	-0.0079	-0.0057	-0.0129	20.4583	-17.7877	-1.6433	0.4026	-0.5859	0.4475	0.5426
11.12	-9.3950	0.0658	-0.8787	-0.0082	-0.0080	-0.0100	20.4755	-17.7298	-1.4612	0.4026	-0.5858	0.4475	0.5426
11.13	-9.3697	0.0689	-0.8613	-0.0016	-0.0096	-0.0081	20.3906	-17.5825	-1.4385	0.4026	-0.5858	0.4475	0.5427
11.14	-9.3688	0.0798	-0.8698	0.0050	-0.0069	-0.0090	20.4351	-17.5928	-1.4448	0.4027	-0.5857	0.4476	0.5427
11.15	-9.3665	0.1001	-0.8662	0.0171	-0.0026	-0.0087	20.2869	-17.5548	-1.4493	0.4027	-0.5856	0.4477	0.5426
11.16	-9.3744	0.1228	-0.8572	0.0163	-0.0075	-0.0069	20.2026	-17.6738	-1.4316	0.4028	-0.5855	0.4478	0.5426
11.17	-9.3564	0.1195	-0.8537	0.0165	-0.0044	-0.0094	20.3266	-17.8295	-1.4940	0.4028	-0.5854	0.4479	0.5426
11.18	-9.3437	0.1218	-0.8549	0.0171	0.0041	-0.0204	20.3223	-17.5158	-1.7750	0.4029	-0.5854	0.4480	0.5425
11.19	-9.3608	0.1276	-0.8499	0.0166	0.0083	-0.0134	20.2106	-17.6618	-1.3831	0.4029	-0.5854	0.4481	0.5424
11.2	-9.3731	0.1305	-0.8605	0.0173	0.0096	-0.0166	20.2528	-17.6121	-1.1876	0.4030	-0.5853	0.4482	0.5423
11.21	-9.3558	0.1315	-0.8575	0.0169	0.0075	-0.0122	20.2123	-17.5669	-1.3955	0.4030	-0.5853	0.4483	0.5423
11.22	-9.3661	0.1432	-0.8452	0.0173	0.0124	-0.0113	20.4799	-17.6912	-1.4069	0.4031	-0.5852	0.4484	0.5422
11.23	-9.3783	0.1506	-0.8673	0.0173	0.0127	-0.0166	20.3264	-17.5192	-1.5411	0.4031	-0.5852	0.4485	0.5421
11.24	-9.3742	0.1580	-0.8709	0.0172	0.0137	-0.0095	20.1188	-17.6951	-1.3995	0.4031	-0.5852	0.4487	0.5420
11.25	-9.3622	0.1627	-0.8678	0.0184	0.0090	-0.0083	20.2494	-17.6433	-1.2301	0.4032	-0.5851	0.4488	0.5419
11.26	-9.3612	0.1575	-0.8702	0.0176	0.0092	-0.0075	20.3615	-17.6019	-1.3929	0.4032	-0.5851	0.4489	0.5419
11.27	-9.3808	0.1730	-0.8806	0.0187	0.0137	-0.0082	20.4759	-17.8903	-1.5275	0.4032	-0.5850	0.4491	0.5418
11.28	-9.3973	0.1834	-0.8849	0.0175	0.0119	-0.0069	20.5396	-17.7298	-1.4400	0.4032	-0.5850	0.4492	0.5417
11.29	-9.4012	0.1872	-0.8831	0.0156	0.0067	-0.0064	20.3491	-17.9848	-1.5519	0.4032	-0.5849	0.4493	0.5416
11.3	-9.4141	0.1871	-0.8813	0.0084	0.0090	-0.0085	20.5249	-17.8826	-1.4797	0.4033	-0.5849	0.4494	0.5416
11.31	-9.4346	0.1858	-0.8893	0.0074	0.0113	-0.0079	20.5814	-17.7995	-1.4240	0.4032	-0.5848	0.4495	0.5415
11.32	-9.4346	0.1958	-0.8949	0.0103	0.0072	-0.0126	20.2789	-17.5382	-1.4445	0.4033	-0.5848	0.4496	0.5415
11.33	-9.4227	0.1970	-0.8821	0.0062	-0.0015	-0.0092	20.4725	-17.8704	-1.4556	0.4033	-0.5848	0.4497	0.5415
11.34	-9.4042	0.1863	-0.8878	0.0118	0.0015	-0.0090	20.5225	-17.7390	-1.3789	0.4033	-0.5847	0.4498	0.5414
11.35	-9.3874	0.1855	-0.8810	0.0116	-0.0030	-0.0137	20.4402	-17.5867	-1.3348	0.4034	-0.5846	0.4499	0.5414
11.36	-9.3910	0.1856	-0.8773	-0.0063	-0.0040	-0.0137	20.1977	-17.4504	-1.4614	0.4034	-0.5846	0.4499	0.5414
