time	acceleration_x	acceleration_y	acceleration_z	gyroscope_x	gyroscope_y	gyroscope_z	magnetometer_x	magnetometer_y	magnetometer_z	quaternion_w	quaternion_x	quaternion_y	quaternion_z
0	-5.1721	-0.0032	0.6321	-0.0068	-0.0029	-0.0121	18.1360	-6.8777	-1.0938	-0.3063	0.2424	-0.2731	-0.2745
0.01	-10.2298	-0.0070	1.2566	-0.0116	-0.0109	-0.0233	35.9122	-14.1071	-2.0495	-0.6053	0.4790	-0.5396	-0.5424
0.02	-9.0122	-0.0128	1.1030	-0.0123	-0.0121	-0.0136	31.5282	-12.5841	-1.7085	-0.5328	0.4215	-0.4749	-0.4774
0.03	-9.6923	-0.0163	1.2057	-0.0116	-0.0197	-0.0171	33.9256	-12.6826	-1.7708	-0.5720	0.4525	-0.5098	-0.5126
0.04	-9.2940	-0.0204	1.1565	-0.0106	-0.0218	-0.0129	32.4165	-12.3423	-1.7483	-0.5478	0.4332	-0.4881	-0.4908
0.05	-9.5256	-0.0178	1.1806	-0.0057	-0.0191	-0.0138	33.5667	-12.6727	-1.9488	-0.5634	0.4454	-0.5020	-0.5048
0.06	-9.3364	-0.0097	1.1772	-0.0002	-0.0189	-0.0120	32.9714	-12.4594	-2.0094	-0.5535	0.4375	-0.4932	-0.4960
0.07	-9.4273	0.0008	1.1930	0.0042	-0.0125	-0.0099	32.9103	-12.5998	-1.8672	-0.5596	0.4422	-0.4986	-0.5014
0.08	-9.3484	0.0168	1.1804	0.0052	-0.0185	-0.0049	32.6926	-12.5056	-1.7997	-0.5562	0.4393	-0.4956	-0.4983
0.09	-9.3787	0.0397	1.1932	-0.0117	-0.0176	-0.0091	33.1992	-12.5835	-1.9394	-0.5580	0.4407	-0.4972	-0.5000
0.1	-9.3681	0.0486	1.1822	-0.0118	-0.0119	-0.0101	33.0455	-12.3711	-1.9061	-0.5572	0.4400	-0.4965	-0.4994
0.11	-9.3681	0.0425	1.1740	-0.0105	-0.0143	-0.0104	32.8738	-12.2631	-1.7891	-0.5573	0.4399	-0.4965	-0.4994
0.12	-9.3598	0.0347	1.1768	-0.0125	-0.0067	-0.0099	32.9729	-12.5518	-1.9329	-0.5572	0.4399	-0.4965	-0.4995
0.13	-9.3697	0.0362	1.1729	-0.0115	-0.0061	-0.0097	32.6825	-12.5486	-1.9109	-0.5572	0.4399	-0.4965	-0.4995
0.14	-9.3773	0.0424	1.1713	0.0022	-0.0047	-0.0105	32.9436	-12.5128	-1.8108	-0.5572	0.4398	-0.4966	-0.4995
0.15	-9.3877	0.0585	1.1842	0.0123	-0.0098	-0.0065	32.8503	-12.3910	-2.0594	-0.5573	0.4397	-0.4967	-0.4995
0.16	-9.4002	0.0716	1.1875	0.0036	-0.0125	-0.0077	33.2521	-12.2486	-1.8932	-0.5573	0.4396	-0.4967	-0.4995
0.17	-9.3887	0.0712	1.1863	0.0061	-0.0005	-0.0113	32.9954	-12.4203	-1.9729	-0.5573	0.4395	-0.4968	-0.4995
0.18	-9.3918	0.0769	1.1885	0.0066	0.0018	-0.0088	32.8240	-12.7597	-1.9723	-0.5573	0.4394	-0.4969	-0.4994
0.19	-9.3980	0.0779	1.1820	0.0057	0.0030	-0.0119	32.9655	-12.6318	-1.9050	-0.5573	0.4393	-0.4970	-0.4994
0.2	-9.4168	0.0812	1.1811	-0.0042	0.0016	-0.0098	32.9017	-12.5333	-1.8238	-0.5573	0.4393	-0.4970	-0.4994
0.21	-9.4108	0.0866	1.1688	0.0034	0.0023	-0.0163	33.0508	-12.6564	-1.9793	-0.5573	0.4393	-0.4971	-0.4993
0.22	-9.4050	0.1008	1.1771	-0.0027	-0.0013	-0.0146	32.9897	-12.4035	-1.9843	-0.5573	0.4392	-0.4971	-0.4993
0.23	-9.4123	0.1056	1.1689	-0.0076	0.0017	-0.0100	33.0271	-12.6321	-1.8732	-0.5573	0.4392	-0.4972	-0.4993
0.24	-9.4228	0.1059	1.1615	-0.0137	-0.0048	-0.0162	32.9963	-12.8246	-1.8626	-0.5573	0.4392	-0.4972	-0.4993
0.25	-9.4187	0.0966	1.1517	-0.0204	-0.0046	-0.0147	32.8754	-12.6589	-1.8873	-0.5573	0.4392	-0.4972	-0.4994
0.26	-9.4177	0.0768	1.1583	-0.0162	-0.0183	-0.0103	33.0182	-12.5431	-1.7959	-0.5573	0.4391	-0.4972	-0.4994
0.27	-9.4222	0.0690	1.1644	-0.0227	-0.0194	-0.0104	33.0002	-12.5408	-1.9309	-0.5573	0.4391	-0.4971	-0.4995
0.28	-9.4111	0.0628	1.1688	-0.0215	-0.0204	-0.0111	32.9165	-12.6432	-1.9334	-0.5573	0.4390	-0.4971	-0.4996
0.29	-9.4023	0.0635	1.1717	-0.0213	-0.0180	-0.0103	32.9002	-12.4476	-1.8624	-0.5573	0.4390	-0.4970	-0.4997
0.3	-9.3944	0.0599	1.1764	-0.0188	-0.0172	-0.0106	33.0271	-12.4526	-1.8195	-0.5573	0.4389	-0.4970	-0.4998
0.31	-9.3905	0.0549	1.1819	-0.0236	-0.0216	-0.0101	32.9787	-12.4501	-1.8254	-0.5573	0.4389	-0.4970	-0.4999
0.32	-9.3710	0.0440	1.1834	-0.0202	-0.0196	-0.0181	33.0968	-12.5930	-2.0078	-0.5573	0.4388	-0.4969	-0.4999
0.33	-9.3738	0.0418	1.1829	-0.0155	-0.0252	-0.0143	32.9750	-12.4301	-1.9453	-0.5573	0.4388	-0.4969	-0.5000
0.34	-9.3881	0.0401	1.1860	-0.0097	-0.0101	-0.0187	32.8923	-12.6292	-1.9173	-0.5574	0.4387	-0.4968	-0.5000
0.35	-9.3805	0.0477	1.1825	-0.0040	-0.0088	-0.0201	33.0456	-12.7489	-1.8966	-0.5574	0.4387	-0.4968	-0.5000
0.36	-9.3880	0.0599	1.1842	-0.0068	-0.0047	-0.0145	32.9971	-12.6814	-1.9836	-0.5574	0.4387	-0.4969	-0.5000
0.37	-9.3925	0.0591	1.1751	-0.0130	-0.0015	-0.0156	33.0039	-12.7790	-1.9986	-0.5574	0.4386	-0.4969	-0.5000
0.38	-9.3929	0.0587	1.1715	-0.0103	-0.0022	-0.0152	33.1242	-12.3582	-2.1437	-0.5574	0.4386	-0.4969	-0.5000
0.39	-9.3970	0.0639	1.1808	-0.0112	-0.0007	-0.0192	33.0629	-12.4484	-2.1804	-0.5574	0.4386	-0.4969	-0.5000
0.4	-9.4073	0.0601	1.1812	-0.0123	0.0004	-0.0078	32.9893	-12.5579	-2.0757	-0.5574	0.4386	-0.4970	-0.5000
0.41	-9.4000	0.0566	1.1743	-0.0113	-0.0043	-0.0138	33.0230	-12.6301	-2.1198	-0.5573	0.4386	-0.4970	-0.5000
0.42	-9.3981	0.0561	1.1840	-0.0115	-0.0038	-0.0126	33.0053	-12.4991	-1.9909	-0.5573	0.4385	-0.4970	-0.5001
0.43	-9.4079	0.0635	1.1823	-0.0052	0.0016	-0.0130	32.8411	-12.6270	-2.0035	-0.5573	0.4385	-0.4971	-0.5001
0.44	-9.4040	0.0598	1.1750	-0.0082	-0.0014	-0.0162	32.8813	-12.5330	-1.7910	-0.5573	0.4385	-0.4971	-0.5000
0.45	-9.4044	0.0580	1.1888	-0.0012	-0.0001	-0.0113	33.0526	-12.6597	-1.9525	-0.5573	0.4384	-0.4971	-0.5000
0.46	-9.4012	0.0642	1.1879	-0.0061	0.0027	-0.0091	33.0855	-12.6795	-2.0067	-0.5573	0.4384	-0.4972	-0.5000
0.47	-9.3987	0.0659	1.1858	0.0064	0.0041	-0.0156	32.9771	-12.4415	-1.8321	-0.5573	0.4383	-0.4973	-0.5000
0.48	-9.4003	0.0721	1.1837	0.0035	0.0017	-0.0161	33.4737	-12.4481	-1.8266	-0.5573	0.4383	-0.4974	-0.4999
0.49	-9.3944	0.0768	1.1863	0.0038	-0.0033	-0.0136	33.8142	-12.1429	-1.7743	-0.5573	0.4382	-0.4974	-0.4999
0.5	-9.3963	0.0882	1.1899	-0.0029	-0.0038	-0.0104	33.0298	-12.7312	-1.8097	-0.5573	0.4382	-0.4975	-0.4999
0.51	-9.4040	0.0908	1.1903	-0.0044	-0.0089	-0.0138	32.7800	-13.4467	-1.7315	-0.5574	0.4381	-0.4975	-0.4999
0.52	-9.3890	0.0894	1.1911	0.0058	-0.0076	-0.0131	32.7486	-13.2728	-1.9662	-0.5574	0.4380	-0.4975	-0.4999
0.53	-9.3812	0.1058	1.1956	0.0063	-0.0103	-0.0168	32.8993	-12.4772	-2.0270	-0.5575	0.4379	-0.4976	-0.4999
0.54	-9.3756	0.0917	1.1983	-0.0080	-0.0045	-0.0145	32.8452	-12.9112	-1.8955	-0.5575	0.4379	-0.4976	-0.4999
0.55	-9.3675	0.0987	1.1950	-0.0082	-0.0061	-0.0136	32.9480	-12.6268	-2.0394	-0.5575	0.4378	-0.4976	-0.4999
0.56	-9.3660	0.1087	1.2052	-0.0032	0.0011	-0.0127	33.0759	-12.4366	-2.0530	-0.5575	0.4378	-0.4977	-0.4999
0.57	-9.3755	0.0902	1.1973	-0.0098	0.0056	-0.0122	33.0271	-12.4887	-1.8605	-0.5574	0.4378	-0.4977	-0.4999
0.58	-9.3804	0.0934	1.1867	-0.0086	0.0067	-0.0121	33.0908	-12.6287	-2.1519	-0.5574	0.4378	-0.4978	-0.4999
0.59	-9.3893	0.0937	1.1971	-0.0090	0.0074	-0.0107	32.8440	-12.7315	-1.9150	-0.5573	0.4378	-0.4978	-0.4999
0.6	-9.3971	0.0941	1.1879	-0.0095	0.0043	-0.0147	32.7837	-12.6157	-1.9960	-0.5573	0.4378	-0.4979	-0.4999
0.61	-9.3968	0.0864	1.1814	-0.0101	0.0038	-0.0087	33.0951	-12.6572	-1.9985	-0.5573	0.4377	-0.4979	-0.4999
0.62	-9.4006	0.0869	1.1793	-0.0111	0.0021	-0.0130	32.9491	-12.5718	-2.2481	-0.5573	0.4377	-0.4980	-0.4999
0.63	-9.3967	0.0845	1.1739	-0.0116	0.0084	-0.0172	32.8877	-12.4281	-1.9728	-0.5572	0.4377	-0.4980	-0.4998
0.64	-9.3933	0.0864	1.1773	-0.0131	0.0098	-0.0165	32.8091	-12.6442	-2.0313	-0.5572	0.4377	-0.4981	-0.4998
0.65	-9.4002	0.0855	1.1728	-0.0118	0.0085	-0.0211	32.6120	-12.5720	-2.0806	-0.5572	0.4378	-0.4981	-0.4998
0.66	-9.4046	0.0879	1.1637	-0.0078	0.0097	-0.0243	32.9098	-12.5533	-1.7022	-0.5572	0.4378	-0.4981	-0.4998
0.67	-9.4152	0.0976	1.1616	-0.0092	0.0072	-0.0230	32.8417	-12.4161	-1.7900	-0.5572	0.4378	-0.4982	-0.4997
0.68	-9.4243	0.1000	1.1547	-0.0118	0.0100	-0.0231	32.7590	-12.3953	-1.9395	-0.5571	0.4378	-0.4982	-0.4997
0.69	-9.4261	0.1067	1.1492	-0.0104	0.0113	-0.0271	32.8091	-12.5160	-1.8829	-0.5571	0.4379	-0.4982	-0.4996
0.7	-9.4373	0.1067	1.1616	-0.0093	-0.0061	-0.0212	32.6599	-12.3194	-1.8398	-0.5571	0.4379	-0.4983	-0.4996
0.71	-9.4294	0.0990	1.1562	-0.0059	-0.0096	-0.0207	32.8699	-12.5756	-2.0068	-0.5572	0.4378	-0.4982	-0.4996
0.72	-9.4261	0.0952	1.1759	-0.0043	0.0030	-0.0228	33.0144	-12.6475	-2.0616	-0.5572	0.4378	-0.4983	-0.4996
0.73	-9.4348	0.1035	1.1654	-0.0083	-0.0021	-0.0217	32.7878	-12.6525	-1.9386	-0.5572	0.4378	-0.4983	-0.4995
0.74	-9.4064	0.1016	1.1626	-0.0119	-0.0054	-0.0220	32.6429	-12.5999	-1.9516	-0.5572	0.4378	-0.4983	-0.4995
0.75	-9.4027	0.1031	1.1849	-0.0098	-0.0090	-0.0204	33.0953	-12.7452	-2.0869	-0.5572	0.4378	-0.4983	-0.4995
0.76	-9.3977	0.0890	1.1835	-0.0137	-0.0138	-0.0242	33.0732	-12.7960	-1.9213	-0.5573	0.4378	-0.4982	-0.4995
0.77	-9.4069	0.0837	1.2027	-0.0160	-0.0111	-0.0240	33.0560	-12.5126	-2.0565	-0.5573	0.4378	-0.4982	-0.4996
0.78	-9.4078	0.0693	1.1979	-0.0157	-0.0107	-0.0248	33.0023	-12.5575	-2.0150	-0.5573	0.4378	-0.4982	-0.4996
0.79	-9.3869	0.0548	1.2016	-0.0166	-0.0112	-0.0225	33.0091	-12.7569	-1.8836	-0.5574	0.4377	-0.4981	-0.4996
0.8	-9.3738	0.0529	1.2139	-0.0119	-0.0156	-0.0170	32.9983	-12.5415	-1.7408	-0.5574	0.4377	-0.4981	-0.4996
0.81	-9.3632	0.0482	1.2110	-0.0180	-0.0089	-0.0137	32.8403	-12.5755	-1.8933	-0.5574	0.4377	-0.4981	-0.4997
0.82	-9.3520	0.0594	1.1966	-0.0176	0.0013	-0.0119	32.7322	-12.6150	-1.7883	-0.5574	0.4377	-0.4981	-0.4997
0.83	-9.3427	0.0711	1.1910	-0.0112	0.0138	-0.0133	32.9301	-12.5381	-1.8023	-0.5573	0.4377	-0.4982	-0.4997
0.84	-9.3641	0.0736	1.1889	-0.0152	0.0085	-0.0092	32.9882	-12.4588	-1.9803	-0.5572	0.4377	-0.4982	-0.4997
0.85	-9.3670	0.0635	1.1656	-0.0163	0.0071	-0.0153	32.5994	-12.4840	-1.8097	-0.5572	0.4377	-0.4982	-0.4997
0.86	-9.3644	0.0654	1.1701	-0.0130	0.0065	-0.0190	32.7861	-12.5707	-1.9181	-0.5572	0.4377	-0.4983	-0.4997
0.87	-9.3771	0.0507	1.1695	-0.0106	0.0185	-0.0246	32.7643	-12.5570	-1.9771	-0.5571	0.4378	-0.4983	-0.4996
0.88	-9.4061	0.0687	1.1679	-0.0080	0.0163	-0.0271	32.8993	-12.4377	-1.8198	-0.5571	0.4378	-0.4984	-0.4995
0.89	-9.4189	0.0733	1.1695	-0.0106	0.0061	-0.0174	32.8343	-12.3722	-1.7697	-0.5571	0.4378	-0.4984	-0.4995
0.9	-9.4259	0.0826	1.1649	-0.0001	-0.0002	-0.0242	32.7488	-12.5514	-1.9550	-0.5571	0.4378	-0.4985	-0.4995
0.91	-9.4211	0.0877	1.1704	-0.0085	0.0065	-0.0247	32.8691	-12.6220	-1.9410	-0.5571	0.4378	-0.4985	-0.4994
0.92	-9.4255	0.0883	1.1606	-0.0096	0.0073	-0.0286	33.1026	-12.7704	-1.9442	-0.5571	0.4379	-0.4985	-0.4994
0.93	-9.4214	0.0888	1.1607	-0.0115	0.0067	-0.0263	33.1373	-12.6548	-1.7694	-0.5571	0.4379	-0.4985	-0.4993
0.94	-9.4313	0.0893	1.1638	-0.0117	0.0066	-0.0275	32.8745	-12.6373	-2.0595	-0.5571	0.4379	-0.4985	-0.4993
0.95	-9.4217	0.0895	1.1476	-0.0103	0.0062	-0.0262	32.7683	-12.6289	-1.9154	-0.5571	0.4380	-0.4986	-0.4992
0.96	-9.3904	0.0890	1.1596	-0.0095	0.0030	-0.0200	33.0427	-12.6684	-1.7317	-0.5571	0.4380	-0.4986	-0.4992
0.97	-9.4013	0.0916	1.1597	-0.0141	0.0030	-0.0211	33.0605	-12.7236	-1.7233	-0.5571	0.4380	-0.4986	-0.4992
0.98	-9.4238	0.0778	1.1555	-0.0222	0.0030	-0.0187	33.3956	-12.4390	-1.5670	-0.5571	0.4380	-0.4986	-0.4992
0.99	-9.4220	0.0636	1.1518	-0.0259	-0.0070	-0.0164	33.8930	-12.1250	-1.5040	-0.5571	0.4380	-0.4986	-0.4993
1	-9.4032	0.0425	1.1541	-0.0263	-0.0036	-0.0181	33.1588	-12.4363	-1.7167	-0.5570	0.4380	-0.4985	-0.4993
1.01	-9.4100	0.0381	1.1639	-0.0342	-0.0105	-0.0169	32.8119	-13.3221	-1.6603	-0.5570	0.4381	-0.4985	-0.4994
1.02	-9.4011	0.0347	1.1705	-0.0230	-0.0083	-0.0122	32.8947	-12.8910	-1.7420	-0.5570	0.4381	-0.4984	-0.4994
1.03	-9.3921	0.0417	1.1764	-0.0128	-0.0167	-0.0124	33.0364	-12.4027	-1.8081	-0.5570	0.4380	-0.4984	-0.4995
1.04	-9.3796	0.0533	1.1883	-0.0155	-0.0165	-0.0132	32.9605	-12.6248	-1.5325	-0.5570	0.4380	-0.4984	-0.4995
1.05	-9.3881	0.0559	1.1892	-0.0147	-0.0040	-0.0204	32.8043	-12.5355	-1.5377	-0.5570	0.4380	-0.4984	-0.4995
1.06	-9.3850	0.0529	1.1825	-0.0121	-0.0011	-0.0185	32.9462	-12.5642	-1.6845	-0.5570	0.4380	-0.4984	-0.4995
1.07	-9.3733	0.0551	1.1903	-0.0117	0.0026	-0.0228	32.8732	-12.6062	-1.8580	-0.5570	0.4380	-0.4984	-0.4995
1.08	-9.3760	0.0673	1.1905	-0.0126	0.0045	-0.0244	32.7873	-12.8787	-1.5814	-0.5570	0.4380	-0.4984	-0.4995
1.09	-9.3842	0.0763	1.1874	-0.0048	0.0070	-0.0221	32.9319	-12.7017	-1.8356	-0.5570	0.4380	-0.4985	-0.4994
1.1	-9.3898	0.0767	1.1873	-0.0098	0.0029	-0.0198	33.0125	-12.8932	-2.0640	-0.5570	0.4380	-0.4985	-0.4994
1.11	-9.3911	0.0782	1.1819	-0.0106	0.0106	-0.0251	32.8187	-12.7106	-1.7324	-0.5570	0.4380	-0.4985	-0.4994
1.12	-9.4037	0.0698	1.1734	-0.0118	0.0089	-0.0245	32.8877	-12.6163	-1.8207	-0.5570	0.4381	-0.4985	-0.4993
1.13	-9.4122	0.0636	1.1730	-0.0098	0.0023	-0.0224	33.0406	-12.6866	-1.8134	-0.5570	0.4381	-0.4986	-0.4993
1.14	-9.4108	0.0474	1.1691	-0.0148	0.0075	-0.0207	32.9605	-12.3350	-1.5870	-0.5570	0.4381	-0.4986	-0.4993
1.15	-9.4123	0.0385	1.1656	-0.0175	0.0026	-0.0173	32.8883	-12.7458	-1.7034	-0.5569	0.4381	-0.4986	-0.4993
1.16	-9.4093	0.0297	1.1631	-0.0117	0.0017	-0.0130	33.0051	-12.6332	-1.8469	-0.5569	0.4381	-0.4986	-0.4993
1.17	-9.4135	0.0211	1.1680	-0.0107	0.0003	-0.0141	33.0207	-12.4964	-1.7912	-0.5569	0.4381	-0.4987	-0.4993
1.18	-9.4091	0.0216	1.1695	-0.0088	-0.0058	-0.0134	32.7882	-12.6504	-1.7347	-0.5569	0.4380	-0.4987	-0.4993
1.19	-9.4095	0.0312	1.1688	-0.0072	0.0027	-0.0131	32.7107	-12.2917	-1.6700	-0.5569	0.4380	-0.4987	-0.4993
1.2	-9.4039	0.0333	1.1694	0.0005	-0.0024	-0.0126	32.8353	-12.6412	-1.5463	-0.5569	0.4380	-0.4988	-0.4993
1.21	-9.4024	0.0489	1.1801	0.0072	0.0030	-0.0098	32.9743	-12.6088	-1.5107	-0.5569	0.4379	-0.4989	-0.4993
1.22	-9.3988	0.0696	1.1736	0.0065	0.0028	-0.0142	32.9773	-12.5409	-1.7003	-0.5569	0.4378	-0.4989	-0.4992
1.23	-9.3914	0.0811	1.1700	0.0070	0.0076	-0.0137	32.7990	-12.6426	-2.0707	-0.5569	0.4378	-0.4990	-0.4992
1.24	-9.3901	0.0957	1.1755	0.0121	0.0036	-0.0159	32.8411	-12.6858	-1.8564	-0.5569	0.4377	-0.4991	-0.4991
1.25	-9.4007	0.1141	1.1784	0.0038	0.0018	-0.0131	32.8084	-12.7195	-1.9802	-0.5570	0.4377	-0.4992	-0.4991
1.26	-9.3877	0.1181	1.1798	0.0030	0.0077	-0.0214	32.8553	-12.3463	-1.7522	-0.5570	0.4376	-0.4993	-0.4990
1.27	-9.3939	0.1440	1.1844	-0.0012	-0.0015	-0.0130	32.7034	-12.5046	-1.7290	-0.5570	0.4376	-0.4993	-0.4990
1.28	-9.3810	0.1272	1.1799	-0.0054	0.0025	-0.0105	32.9098	-12.5661	-1.8563	-0.5570	0.4376	-0.4994	-0.4990
1.29	-9.3737	0.1257	1.1682	-0.0081	0.0066	-0.0200	33.0400	-12.5957	-1.8098	-0.5570	0.4376	-0.4994	-0.4989
1.3	-9.3880	0.1393	1.1913	-0.0098	0.0063	-0.0219	32.9875	-12.7577	-1.8246	-0.5569	0.4376	-0.4994	-0.4989
1.31	-9.3840	0.1042	1.1729	-0.0183	0.0062	-0.0212	32.9171	-12.7287	-1.9222	-0.5569	0.4376	-0.4994	-0.4989
1.32	-9.4039	0.1108	1.1712	-0.0179	0.0010	-0.0231	32.8943	-12.6122	-1.9182	-0.5569	0.4376	-0.4994	-0.4989
1.33	-9.4027	0.0929	1.1672	-0.0264	0.0084	-0.0212	32.7224	-12.7412	-1.9111	-0.5569	0.4377	-0.4994	-0.4989
1.34	-9.4018	0.0844	1.1626	-0.0250	0.0068	-0.0219	32.8261	-12.6691	-1.9284	-0.5568	0.4378	-0.4994	-0.4989
1.35	-9.4156	0.0722	1.1527	-0.0241	0.0066	-0.0214	32.8322	-12.5082	-1.7801	-0.5568	0.4378	-0.4994	-0.4989
1.36	-9.4147	0.0644	1.1464	-0.0167	0.0050	-0.0217	32.8179	-12.4860	-1.7238	-0.5568	0.4378	-0.4994	-0.4989
1.37	-9.4367	0.0549	1.1450	-0.0151	0.0059	-0.0232	32.8447	-12.7416	-1.7275	-0.5567	0.4379	-0.4994	-0.4989
1.38	-9.4372	0.0429	1.1433	-0.0159	0.0081	-0.0237	32.7020	-12.7509	-1.8340	-0.5567	0.4379	-0.4995	-0.4988
1.39	-9.4408	0.0399	1.1423	-0.0139	0.0077	-0.0278	32.7822	-12.7191	-1.8173	-0.5567	0.4380	-0.4995	-0.4988
1.4	-9.4274	0.0351	1.1339	-0.0117	0.0015	-0.0276	32.8373	-12.5679	-1.8361	-0.5567	0.4380	-0.4995	-0.4988
1.41	-9.4209	0.0374	1.1407	-0.0114	-0.0051	-0.0244	32.8329	-12.5652	-1.7997	-0.5567	0.4380	-0.4995	-0.4988
1.42	-9.4152	0.0373	1.1383	-0.0068	-0.0059	-0.0270	32.6953	-12.4584	-2.0994	-0.5568	0.4380	-0.4994	-0.4987
1.43	-9.4089	0.0442	1.1461	-0.0029	-0.0045	-0.0188	32.8104	-12.4949	-1.8779	-0.5568	0.4379	-0.4995	-0.4987
1.44	-9.4049	0.0604	1.1520	-0.0049	-0.0083	-0.0152	32.8067	-12.4403	-1.8299	-0.5568	0.4379	-0.4995	-0.4987
1.45	-9.3970	0.0735	1.1585	-0.0006	-0.0129	-0.0093	32.9653	-12.6977	-1.7041	-0.5569	0.4378	-0.4995	-0.4987
1.46	-9.3914	0.0862	1.1621	-0.0032	-0.0238	-0.0117	32.6904	-12.4745	-1.7986	-0.5569	0.4377	-0.4995	-0.4988
1.47	-9.3763	0.0931	1.1631	0.0028	-0.0156	-0.0095	32.9746	-12.7423	-1.9773	-0.5570	0.4376	-0.4995	-0.4988
1.48	-9.3772	0.1034	1.1713	0.0026	-0.0140	-0.0116	33.6517	-12.6495	-1.8015	-0.5570	0.4375	-0.4995	-0.4988
1.49	-9.3774	0.1074	1.1728	-0.0053	-0.0095	-0.0123	34.0296	-12.3361	-1.7601	-0.5570	0.4374	-0.4996	-0.4988
1.5	-9.3866	0.1064	1.1845	-0.0076	-0.0125	-0.0133	33.2109	-12.7614	-1.9940	-0.5571	0.4374	-0.4996	-0.4988
1.51	-9.3931	0.1177	1.1708	-0.0117	-0.0046	-0.0179	32.9197	-13.4478	-1.7729	-0.5571	0.4373	-0.4996	-0.4988
1.52	-9.3815	0.1256	1.1769	-0.0083	-0.0044	-0.0274	33.0472	-13.1637	-1.8347	-0.5571	0.4373	-0.4996	-0.4988
1.53	-9.3992	0.1262	1.1718	-0.0026	0.0001	-0.0293	32.8285	-12.5257	-1.9399	-0.5571	0.4373	-0.4996	-0.4988
1.54	-9.4134	0.1219	1.1735	-0.0035	0.0045	-0.0234	33.0555	-12.7880	-1.7905	-0.5572	0.4373	-0.4996	-0.4987
1.55	-9.4288	0.1021	1.1812	-0.0101	0.0013	-0.0299	32.7604	-12.4006	-1.9462	-0.5572	0.4374	-0.4996	-0.4987
1.56	-9.4413	0.1206	1.1729	-0.0120	0.0055	-0.0354	32.7970	-12.3989	-1.9566	-0.5572	0.4374	-0.4996	-0.4986
1.57	-9.4141	0.0909	1.1821	-0.0171	-0.0076	-0.0347	33.0681	-12.3298	-2.0463	-0.5572	0.4374	-0.4996	-0.4986
1.58	-9.3969	0.0643	1.1727	-0.0154	-0.0016	-0.0266	32.7394	-12.4582	-1.8114	-0.5573	0.4375	-0.4995	-0.4986
1.59	-9.3900	0.0947	1.1797	-0.0208	-0.0015	-0.0195	32.5804	-12.4542	-1.9727	-0.5572	0.4375	-0.4995	-0.4986
1.6	-9.3769	0.0718	1.1687	-0.0288	-0.0007	-0.0169	32.8472	-12.3631	-1.7901	-0.5572	0.4375	-0.4995	-0.4986
1.61	-9.3760	0.0818	1.1619	-0.0303	0.0112	-0.0181	32.9231	-12.5123	-1.9448	-0.5571	0.4376	-0.4995	-0.4986
1.62	-9.3888	0.0664	1.1678	-0.0330	0.0077	-0.0174	33.0093	-12.3503	-1.8585	-0.5571	0.4377	-0.4995	-0.4987
1.63	-9.3864	0.0398	1.1488	-0.0338	0.0162	-0.0119	32.7384	-12.3849	-1.7619	-0.5569	0.4377	-0.4995	-0.4987
1.64	-9.3800	0.0198	1.1456	-0.0225	0.0027	-0.0143	32.6960	-12.3522	-1.8550	-0.5569	0.4378	-0.4995	-0.4987
1.65	-9.3957	0.0183	1.1405	-0.0142	0.0039	-0.0147	32.9234	-12.6333	-1.9097	-0.5569	0.4378	-0.4995	-0.4987
1.66	-9.4134	0.0309	1.1430	-0.0065	0.0022	-0.0126	33.0816	-12.6109	-1.9424	-0.5569	0.4378	-0.4996	-0.4987
1.67	-9.4210	0.0362	1.1455	-0.0073	0.0038	-0.0164	32.9158	-12.6855	-1.8391	-0.5568	0.4377	-0.4996	-0.4987
1.68	-9.4146	0.0404	1.1473	0.0040	0.0050	-0.0181	32.8625	-12.6636	-1.9662	-0.5569	0.4377	-0.4997	-0.4987
1.69	-9.4104	0.0523	1.1515	0.0140	0.0056	-0.0250	32.8780	-12.7008	-1.9338	-0.5569	0.4377	-0.4997	-0.4986
1.7	-9.4237	0.0611	1.1475	0.0130	0.0061	-0.0210	32.8735	-12.7177	-1.8241	-0.5570	0.4376	-0.4998	-0.4985
1.71	-9.4357	0.0766	1.1500	0.0153	0.0051	-0.0224	32.8722	-12.5128	-2.0155	-0.5570	0.4376	-0.4999	-0.4984
1.72	-9.4510	0.0891	1.1574	0.0128	0.0049	-0.0213	32.8800	-12.7155	-1.9740	-0.5570	0.4375	-0.5000	-0.4983
1.73	-9.4395	0.1004	1.1515	0.0173	0.0071	-0.0231	32.8637	-12.4331	-1.9206	-0.5571	0.4374	-0.5001	-0.4982
1.74	-9.4201	0.1140	1.1602	0.0051	-0.0040	-0.0204	32.8990	-12.4643	-1.9516	-0.5572	0.4374	-0.5001	-0.4981
1.75	-9.4164	0.1233	1.1649	-0.0107	0.0022	-0.0207	32.8205	-12.6097	-1.9225	-0.5571	0.4374	-0.5002	-0.4981
1.76	-9.4224	0.1164	1.1701	-0.0099	-0.0042	-0.0247	32.7779	-12.3790	-1.7094	-0.5572	0.4374	-0.5002	-0.4981
1.77	-9.4097	0.1055	1.1622	-0.0098	-0.0060	-0.0236	32.7815	-12.3633	-1.9974	-0.5572	0.4374	-0.5001	-0.4981
1.78	-9.3820	0.0853	1.1734	-0.0114	-0.0118	-0.0206	32.8114	-12.6056	-1.8553	-0.5572	0.4374	-0.5001	-0.4981
1.79	-9.3883	0.0790	1.1919	-0.0114	-0.0187	-0.0142	32.8983	-12.6721	-1.7511	-0.5573	0.4373	-0.5001	-0.4981
1.8	-9.3969	0.0773	1.1924	-0.0151	-0.0116	-0.0146	32.8634	-12.4586	-1.9719	-0.5573	0.4373	-0.5001	-0.4982
1.81	-9.3742	0.0835	1.2014	-0.0152	-0.0243	-0.0174	32.8834	-12.4595	-1.9283	-0.5573	0.4372	-0.5000	-0.4982
1.82	-9.3568	0.0855	1.2203	-0.0109	-0.0111	-0.0192	32.7258	-12.4416	-1.9427	-0.5573	0.4372	-0.5000	-0.4983
1.83	-9.3573	0.0745	1.2195	-0.0147	-0.0060	-0.0154	32.9228	-12.5298	-1.9469	-0.5573	0.4371	-0.5000	-0.4983
1.84	-9.3576	0.0669	1.2107	-0.0248	-0.0101	-0.0202	33.0872	-12.5465	-1.9151	-0.5573	0.4371	-0.4999	-0.4983
1.85	-9.3554	0.0535	1.2068	-0.0209	0.0029	-0.0245	32.9047	-12.5584	-1.9852	-0.5573	0.4372	-0.4999	-0.4983
1.86	-9.3572	0.0484	1.2070	-0.0180	0.0054	-0.0332	33.0568	-12.6757	-1.9938	-0.5573	0.4373	-0.4999	-0.4983
1.87	-9.3658	0.0513	1.2037	-0.0122	0.0082	-0.0274	32.9721	-12.5414	-1.8989	-0.5573	0.4373	-0.4999	-0.4982
1.88	-9.3741	0.0556	1.2051	-0.0129	0.0094	-0.0258	32.9677	-12.5408	-2.0635	-0.5573	0.4373	-0.4999	-0.4982
1.89	-9.3762	0.0539	1.1968	-0.0168	0.0122	-0.0335	32.9370	-12.5634	-2.0033	-0.5573	0.4374	-0.4999	-0.4981
1.9	-9.3809	0.0590	1.1882	-0.0130	0.0154	-0.0272	32.8335	-12.7186	-1.8357	-0.5573	0.4375	-0.5000	-0.4981
1.91	-9.3851	0.0543	1.1764	-0.0170	0.0150	-0.0221	32.9727	-12.7301	-1.9217	-0.5572	0.4375	-0.5000	-0.4980
1.92	-9.3957	0.0425	1.1815	-0.0134	0.0182	-0.0225	33.0748	-12.5997	-2.0665	-0.5572	0.4376	-0.5001	-0.4980
1.93	-9.4033	0.0400	1.1702	-0.0236	0.0183	-0.0211	33.0189	-12.3455	-1.9838	-0.5571	0.4377	-0.5001	-0.4979
1.94	-9.4078	0.0341	1.1688	-0.0237	0.0159	-0.0241	32.8773	-12.4537	-1.8647	-0.5571	0.4378	-0.5001	-0.4979
1.95	-9.4110	0.0103	1.1675	-0.0191	0.0143	-0.0223	32.7875	-12.4555	-1.7290	-0.5570	0.4378	-0.5001	-0.4979
1.96	-9.4155	0.0157	1.1568	-0.0241	0.0112	-0.0244	32.6409	-12.3522	-1.9254	-0.5570	0.4379	-0.5001	-0.4979
1.97	-9.4203	0.0171	1.1587	-0.0123	0.0106	-0.0142	32.8339	-12.5452	-1.6958	-0.5569	0.4379	-0.5002	-0.4979
1.98	-9.4261	-0.0035	1.1526	-0.0118	0.0152	-0.0201	33.3303	-12.2422	-1.6522	-0.5569	0.4379	-0.5002	-0.4978
1.99	-9.4393	0.0034	1.1513	-0.0064	0.0035	-0.0173	33.7008	-11.9844	-1.7062	-0.5569	0.4379	-0.5003	-0.4978
2	-9.4314	0.0093	1.1522	-0.0089	0.0101	-0.0183	33.0415	-12.7986	-1.7417	-0.5569	0.4379	-0.5003	-0.4978
2.01	-9.4162	0.0095	1.1470	0.0068	0.0022	-0.0155	32.8910	-13.3781	-1.6980	-0.5569	0.4379	-0.5004	-0.4977
2.02	-9.4134	0.0308	1.1599	0.0089	-0.0042	-0.0101	32.8779	-13.0594	-1.7205	-0.5569	0.4378	-0.5005	-0.4977
2.03	-9.4013	0.0433	1.1615	0.0112	0.0002	-0.0154	32.7814	-12.4277	-2.0337	-0.5570	0.4377	-0.5005	-0.4976
2.04	-9.3796	0.0575	1.1668	0.0146	-0.0032	-0.0110	33.0405	-12.7692	-1.9946	-0.5570	0.4376	-0.5006	-0.4976
2.05	-9.3766	0.0713	1.1706	0.0148	-0.0039	-0.0188	33.1684	-12.6850	-1.7973	-0.5571	0.4375	-0.5007	-0.4975
2.06	-9.3774	0.0823	1.1774	0.0130	-0.0001	-0.0105	33.1764	-12.7419	-2.0996	-0.5571	0.4374	-0.5008	-0.4975
2.07	-9.3691	0.0889	1.1742	0.0130	0.0033	-0.0140	33.1414	-12.6859	-1.9272	-0.5571	0.4374	-0.5009	-0.4974
2.08	-9.3682	0.0943	1.1797	0.0093	0.0061	-0.0170	33.0002	-12.5454	-2.0471	-0.5572	0.4373	-0.5010	-0.4974
2.09	-9.3740	0.0989	1.1742	0.0022	0.0062	-0.0123	32.8947	-12.5419	-1.8307	-0.5572	0.4373	-0.5010	-0.4973
2.1	-9.3718	0.0994	1.1773	-0.0055	0.0077	-0.0177	33.0153	-12.5354	-1.7655	-0.5571	0.4373	-0.5011	-0.4973
2.11	-9.3789	0.0926	1.1787	-0.0089	0.0064	-0.0193	32.7818	-12.5623	-2.0501	-0.5571	0.4373	-0.5011	-0.4972
2.12	-9.3907	0.0892	1.1664	-0.0066	0.0132	-0.0126	32.9674	-12.4631	-2.0388	-0.5571	0.4373	-0.5012	-0.4972
2.13	-9.4030	0.0888	1.1581	-0.0112	0.0241	-0.0123	33.0223	-12.4401	-1.9225	-0.5570	0.4373	-0.5013	-0.4972
2.14	-9.4065	0.0871	1.1478	-0.0132	0.0139	-0.0142	32.7987	-12.7464	-1.6860	-0.5570	0.4373	-0.5014	-0.4971
2.15	-9.4080	0.0831	1.1377	-0.0144	0.0169	-0.0164	32.6745	-12.6062	-1.8225	-0.5569	0.4374	-0.5014	-0.4971
2.16	-9.4106	0.0759	1.1279	-0.0117	0.0172	-0.0176	32.8398	-12.4108	-1.5317	-0.5569	0.4374	-0.5015	-0.4971
2.17	-9.4138	0.0799	1.1247	-0.0121	0.0152	-0.0189	32.7837	-12.6001	-1.7278	-0.5568	0.4374	-0.5015	-0.4970
2.18	-9.4201	0.0793	1.1232	-0.0116	0.0141	-0.0179	32.8703	-12.2979	-1.7368	-0.5568	0.4375	-0.5016	-0.4970
2.19	-9.4338	0.0756	1.1198	-0.0134	0.0162	-0.0190	32.9212	-12.6167	-1.8706	-0.5567	0.4375	-0.5016	-0.4970
2.2	-9.4433	0.0757	1.1102	-0.0163	0.0099	-0.0131	32.7967	-12.6304	-1.6161	-0.5567	0.4375	-0.5017	-0.4970
2.21	-9.4401	0.0799	1.1091	-0.0086	0.0019	-0.0189	32.9463	-12.4106	-1.7402	-0.5567	0.4375	-0.5017	-0.4969
2.22	-9.4330	0.0810	1.1104	-0.0131	0.0031	-0.0149	33.0330	-12.8565	-1.8804	-0.5567	0.4375	-0.5017	-0.4969
2.23	-9.4387	0.0837	1.1112	-0.0112	0.0047	-0.0214	32.8626	-12.6872	-1.8282	-0.5567	0.4375	-0.5018	-0.4969
2.24	-9.4281	0.0796	1.1074	-0.0109	0.0046	-0.0251	32.9576	-12.6594	-1.8423	-0.5567	0.4376	-0.5018	-0.4969
2.25	-9.4268	0.0757	1.1195	-0.0051	0.0022	-0.0198	33.2310	-12.8423	-1.8729	-0.5567	0.4376	-0.5018	-0.4969
2.26	-9.4375	0.0825	1.1175	-0.0034	0.0048	-0.0218	32.8615	-12.5248	-1.9830	-0.5567	0.4375	-0.5018	-0.4968
2.27	-9.4330	0.0810	1.1098	-0.0102	0.0008	-0.0273	33.0186	-12.6346	-1.8102	-0.5567	0.4376	-0.5018	-0.4968
2.28	-9.4290	0.0868	1.1205	-0.0081	0.0045	-0.0181	32.8374	-12.5178	-2.0091	-0.5567	0.4376	-0.5019	-0.4967
2.29	-9.4224	0.0804	1.1304	-0.0130	-0.0134	-0.0226	32.6337	-12.3914	-2.0227	-0.5567	0.4375	-0.5018	-0.4968
2.3	-9.4405	0.0745	1.1343	-0.0114	-0.0111	-0.0188	32.9935	-12.6514	-1.7391	-0.5568	0.4375	-0.5018	-0.4968
2.31	-9.4545	0.0615	1.1485	-0.0141	-0.0170	-0.0219	33.0933	-12.6867	-1.7515	-0.5568	0.4375	-0.5018	-0.4968
2.32	-9.4300	0.0456	1.1460	-0.0108	-0.0154	-0.0258	32.7858	-12.5253	-1.9123	-0.5569	0.4374	-0.5017	-0.4968
2.33	-9.3713	0.0407	1.1531	-0.0125	-0.0121	-0.0177	32.8802	-12.4722	-1.9637	-0.5569	0.4374	-0.5017	-0.4968
2.34	-9.3637	0.0436	1.1644	-0.0106	-0.0145	-0.0110	32.9946	-12.5352	-1.8458	-0.5569	0.4374	-0.5017	-0.4969
2.35	-9.3594	0.0552	1.1461	-0.0116	-0.0034	-0.0094	33.0001	-12.6418	-1.7130	-0.5569	0.4373	-0.5017	-0.4969
2.36	-9.3755	0.0836	1.1489	-0.0074	0.0037	-0.0092	32.9530	-12.4839	-1.6346	-0.5569	0.4373	-0.5018	-0.4969
2.37	-9.3841	0.0845	1.1300	-0.0095	0.0078	-0.0096	32.8058	-12.6348	-1.7391	-0.5568	0.4373	-0.5018	-0.4969
2.38	-9.3637	0.0822	1.1324	-0.0069	0.0054	-0.0101	32.8044	-12.7315	-1.8670	-0.5568	0.4372	-0.5019	-0.4969
2.39	-9.3702	0.0655	1.1272	-0.0129	0.0013	-0.0123	32.8300	-12.5646	-1.9677	-0.5568	0.4372	-0.5019	-0.4969
2.4	-9.3719	0.0569	1.1124	-0.0054	0.0021	-0.0176	32.9870	-12.5688	-1.8856	-0.5568	0.4372	-0.5020	-0.4969
2.41	-9.3847	0.0679	1.1238	0.0050	-0.0033	-0.0213	32.9892	-12.7643	-1.7197	-0.5568	0.4372	-0.5020	-0.4968
2.42	-9.4067	0.0837	1.1302	-0.0061	0.0017	-0.0137	33.0961	-12.5515	-1.9023	-0.5568	0.4371	-0.5020	-0.4968
2.43	-9.4109	0.0909	1.1315	-0.0039	0.0022	-0.0237	32.8960	-12.7688	-1.9178	-0.5568	0.4371	-0.5021	-0.4968
2.44	-9.4058	0.1009	1.1242	-0.0006	0.0029	-0.0258	32.9599	-12.7545	-1.7322	-0.5569	0.4371	-0.5021	-0.4967
2.45	-9.4071	0.1014	1.1260	0.0068	0.0050	-0.0304	33.0336	-12.6058	-1.7683	-0.5569	0.4371	-0.5021	-0.4966
2.46	-9.4125	0.1016	1.1143	-0.0037	0.0075	-0.0180	32.6553	-12.8827	-1.5954	-0.5569	0.4371	-0.5022	-0.4966
2.47	-9.4259	0.1003	1.1213	-0.0058	0.0063	-0.0174	32.9386	-12.6895	-1.7723	-0.5569	0.4371	-0.5022	-0.4965
2.48	-9.4739	0.1040	1.1107	-0.0072	0.0150	-0.0195	33.3684	-12.5047	-1.5884	-0.5569	0.4371	-0.5023	-0.4965
2.49	-9.4431	0.0945	1.0899	-0.0124	0.0046	-0.0160	33.6139	-12.3512	-1.3754	-0.5569	0.4371	-0.5023	-0.4965
2.5	-9.4427	0.1028	1.1146	-0.0105	0.0050	-0.0146	33.1487	-12.5551	-1.7712	-0.5568	0.4371	-0.5024	-0.4965
2.51	-9.4763	0.0945	1.1006	-0.0174	0.0033	-0.0131	32.7769	-13.3685	-1.5733	-0.5568	0.4371	-0.5024	-0.4965
2.52	-9.4726	0.0729	1.0945	-0.0217	0.0018	-0.0166	32.8771	-13.1270	-1.6467	-0.5568	0.4371	-0.5024	-0.4965
2.53	-9.4452	0.0644	1.0995	-0.0212	-0.0163	-0.0196	32.8851	-12.3087	-1.7479	-0.5568	0.4371	-0.5023	-0.4966
2.54	-9.4258	0.0480	1.1178	-0.0124	-0.0182	-0.0155	32.8939	-12.6018	-1.6011	-0.5568	0.4371	-0.5023	-0.4966
2.55	-9.4273	0.0536	1.1231	-0.0139	-0.0209	-0.0134	32.8887	-12.6368	-1.7479	-0.5568	0.4370	-0.5023	-0.4967
2.56	-9.4275	0.0646	1.1341	-0.0155	-0.0284	-0.0102	32.8851	-12.5823	-1.7499	-0.5569	0.4369	-0.5022	-0.4967
2.57	-9.4172	0.0728	1.1494	-0.0119	-0.0304	-0.0130	32.9009	-12.5652	-1.8678	-0.5569	0.4368	-0.5021	-0.4968
2.58	-9.4017	0.0774	1.1621	-0.0109	-0.0244	-0.0150	32.8640	-12.5826	-1.8051	-0.5570	0.4368	-0.5021	-0.4969
2.59	-9.3854	0.0741	1.1726	-0.0105	-0.0239	-0.0180	32.9984	-12.5651	-1.9436	-0.5571	0.4367	-0.5020	-0.4969
2.6	-9.3673	0.0712	1.1761	-0.0060	-0.0239	-0.0192	33.0644	-12.6965	-1.9139	-0.5571	0.4366	-0.5020	-0.4970
2.61	-9.3604	0.0733	1.1862	-0.0065	-0.0191	-0.0265	33.2875	-12.6238	-2.1237	-0.5572	0.4366	-0.5020	-0.4970
2.62	-9.3650	0.0827	1.1780	0.0006	-0.0154	-0.0227	33.0167	-12.7722	-2.0242	-0.5573	0.4365	-0.5019	-0.4969
2.63	-9.3587	0.0922	1.1830	-0.0123	-0.0141	-0.0205	32.7587	-12.6291	-1.9223	-0.5573	0.4365	-0.5019	-0.4970
2.64	-9.3553	0.0902	1.1908	0.0033	-0.0087	-0.0206	32.9491	-12.7216	-1.9001	-0.5574	0.4364	-0.5019	-0.4969
2.65	-9.3712	0.0889	1.1804	-0.0054	-0.0032	-0.0197	33.0258	-12.7148	-2.0117	-0.5574	0.4364	-0.5019	-0.4969
2.66	-9.3718	0.0829	1.1732	-0.0139	-0.0051	-0.0214	32.7665	-12.5599	-1.9360	-0.5574	0.4364	-0.5019	-0.4969
2.67	-9.3737	0.0724	1.1788	-0.0091	-0.0039	-0.0172	32.8518	-12.5706	-1.8173	-0.5574	0.4364	-0.5019	-0.4969
2.68	-9.3906	0.0659	1.1819	-0.0142	0.0004	-0.0132	33.0039	-12.6119	-1.9908	-0.5574	0.4363	-0.5020	-0.4969
2.69	-9.3873	0.0561	1.1628	-0.0170	0.0022	-0.0230	32.7058	-12.7107	-1.8121	-0.5574	0.4364	-0.5020	-0.4969
2.7	-9.3926	0.0569	1.1930	-0.0097	0.0005	-0.0146	32.6855	-12.4486	-1.8633	-0.5574	0.4364	-0.5020	-0.4969
2.71	-9.4174	0.0487	1.1740	-0.0135	-0.0008	-0.0120	32.9107	-12.5156	-1.7923	-0.5574	0.4363	-0.5020	-0.4969
2.72	-9.3942	0.0428	1.1736	-0.0037	-0.0066	-0.0102	32.9345	-12.4235	-1.7361	-0.5574	0.4363	-0.5020	-0.4969
2.73	-9.4143	0.0698	1.1812	-0.0142	-0.0050	-0.0149	32.5451	-12.3743	-1.7321	-0.5574	0.4363	-0.5020	-0.4970
2.74	-9.3956	0.0543	1.1749	-0.0018	-0.0099	-0.0211	32.9008	-12.5326	-1.9933	-0.5574	0.4362	-0.5020	-0.4970
2.75	-9.4186	0.0723	1.1769	0.0076	-0.0000	-0.0153	32.8268	-12.5808	-1.8335	-0.5575	0.4362	-0.5021	-0.4969
2.76	-9.3878	0.0795	1.1749	0.0119	-0.0055	-0.0219	32.8053	-12.5880	-1.9272	-0.5575	0.4361	-0.5021	-0.4968
2.77	-9.4156	0.1071	1.1826	0.0045	0.0009	-0.0171	32.7724	-12.4738	-1.8245	-0.5576	0.4360	-0.5022	-0.4968
2.78	-9.3865	0.0877	1.1766	0.0075	-0.0066	-0.0289	32.8727	-12.5058	-1.7497	-0.5576	0.4360	-0.5022	-0.4967
2.79	-9.4316	0.1241	1.2088	0.0041	-0.0030	-0.0318	33.1909	-12.6206	-1.8657	-0.5577	0.4360	-0.5022	-0.4967
2.8	-9.3611	0.0819	1.1747	-0.0149	-0.0101	-0.0324	33.1504	-12.4582	-1.8227	-0.5578	0.4360	-0.5022	-0.4966
2.81	-9.4011	0.1230	1.2108	-0.0050	-0.0097	-0.0305	33.0573	-12.6104	-1.8344	-0.5578	0.4360	-0.5022	-0.4966
2.82	-9.3736	0.0905	1.1864	-0.0114	-0.0035	-0.0234	32.9335	-12.8017	-1.7019	-0.5579	0.4360	-0.5021	-0.4966
2.83	-9.3840	0.0847	1.1974	-0.0086	-0.0093	-0.0234	32.7997	-12.4554	-2.0340	-0.5579	0.4359	-0.5021	-0.4966
2.84	-9.3650	0.0769	1.1934	-0.0225	-0.0085	-0.0224	32.8845	-12.5966	-2.0020	-0.5579	0.4359	-0.5021	-0.4966
2.85	-9.3717	0.0624	1.2062	-0.0229	0.0000	-0.0229	32.8952	-12.8804	-2.0475	-0.5579	0.4360	-0.5021	-0.4966
2.86	-9.3776	0.0682	1.1855	-0.0144	0.0007	-0.0146	32.8783	-12.6808	-2.1084	-0.5579	0.4360	-0.5021	-0.4966
2.87	-9.3707	0.0580	1.1858	-0.0193	0.0085	-0.0214	32.9058	-12.8803	-1.8237	-0.5578	0.4360	-0.5021	-0.4966
2.88	-9.3854	0.0488	1.1869	-0.0191	0.0085	-0.0233	32.7727	-12.6192	-1.8195	-0.5578	0.4361	-0.5021	-0.4966
2.89	-9.3961	0.0403	1.1655	-0.0147	0.0139	-0.0260	32.6999	-12.5675	-1.8760	-0.5578	0.4361	-0.5021	-0.4965
2.9	-9.3968	0.0415	1.1712	-0.0105	0.0053	-0.0183	32.9217	-12.5796	-1.9575	-0.5578	0.4361	-0.5021	-0.4965
2.91	-9.4175	0.0412	1.1680	-0.0109	0.0009	-0.0181	32.7839	-12.5732	-1.8295	-0.5578	0.4361	-0.5022	-0.4965
2.92	-9.4173	0.0520	1.1527	-0.0134	0.0099	-0.0197	32.7131	-12.5785	-1.9367	-0.5577	0.4362	-0.5022	-0.4965
2.93	-9.4076	0.0579	1.1554	-0.0054	0.0092	-0.0229	32.8408	-12.4072	-1.7852	-0.5577	0.4362	-0.5022	-0.4964
2.94	-9.4045	0.0542	1.1581	-0.0089	0.0099	-0.0235	32.7574	-12.4049	-1.9403	-0.5577	0.4362	-0.5023	-0.4964
2.95	-9.4215	0.0576	1.1643	-0.0092	0.0030	-0.0217	33.0219	-12.3776	-1.9258	-0.5577	0.4362	-0.5023	-0.4964
2.96	-9.4405	0.0594	1.1634	-0.0025	-0.0029	-0.0211	33.0731	-12.7050	-1.9290	-0.5578	0.4362	-0.5023	-0.4963
2.97	-9.4708	0.0605	1.1739	-0.0080	-0.0075	-0.0271	33.2935	-12.6817	-1.6839	-0.5578	0.4362	-0.5023	-0.4963
2.98	-9.4535	0.0620	1.1599	-0.0045	-0.0101	-0.0276	33.4165	-12.4159	-1.5619	-0.5579	0.4361	-0.5023	-0.4963
2.99	-9.3831	0.0553	1.1696	-0.0058	-0.0171	-0.0138	33.7059	-12.4187	-1.4712	-0.5579	0.4361	-0.5023	-0.4963
3	-9.3597	0.0727	1.1795	0.0009	-0.0101	-0.0098	32.7988	-12.6911	-1.5849	-0.5579	0.4360	-0.5023	-0.4963
3.01	-9.3852	0.0942	1.1692	-0.0027	-0.0041	-0.0116	33.0129	-13.2775	-1.6841	-0.5580	0.4359	-0.5023	-0.4963
3.02	-9.4042	0.1173	1.1658	-0.0076	-0.0006	-0.0114	32.8395	-13.0805	-1.7449	-0.5579	0.4359	-0.5024	-0.4963
3.03	-9.4000	0.1231	1.1667	-0.0117	-0.0005	-0.0148	32.7501	-12.4393	-1.8622	-0.5579	0.4359	-0.5024	-0.4963
3.04	-9.4037	0.1077	1.1588	-0.0142	0.0061	-0.0177	33.1409	-12.7357	-1.8579	-0.5579	0.4359	-0.5024	-0.4963
3.05	-9.4036	0.0872	1.1437	-0.0196	0.0019	-0.0205	33.0103	-12.5050	-1.7469	-0.5579	0.4359	-0.5024	-0.4963
3.06	-9.3837	0.0708	1.1398	-0.0263	0.0017	-0.0198	32.7352	-12.5782	-1.7761	-0.5579	0.4360	-0.5024	-0.4963
3.07	-9.3843	0.0679	1.1517	-0.0239	0.0054	-0.0244	32.6832	-12.2355	-1.8562	-0.5578	0.4360	-0.5024	-0.4963
3.08	-9.3956	0.0739	1.1586	-0.0217	-0.0026	-0.0222	33.1127	-12.4262	-1.9167	-0.5578	0.4361	-0.5023	-0.4963
3.09	-9.3981	0.0726	1.1570	-0.0143	-0.0001	-0.0327	32.6474	-12.5635	-1.9498	-0.5579	0.4361	-0.5023	-0.4963
3.1	-9.3988	0.0684	1.1611	-0.0242	0.0037	-0.0306	32.9113	-12.5560	-1.8284	-0.5578	0.4362	-0.5023	-0.4963
3.11	-9.3979	0.0625	1.1547	-0.0177	0.0054	-0.0342	32.9965	-12.5065	-1.8239	-0.5579	0.4362	-0.5022	-0.4963
3.12	-9.4043	0.0615	1.1520	-0.0078	0.0060	-0.0349	32.7649	-12.4145	-1.6484	-0.5579	0.4363	-0.5022	-0.4962
3.13	-9.4228	0.0570	1.1467	-0.0166	0.0140	-0.0329	32.9612	-12.6892	-1.6619	-0.5579	0.4363	-0.5022	-0.4961
3.14	-9.4078	0.0615	1.1292	-0.0180	0.0079	-0.0256	32.8162	-12.5789	-1.8109	-0.5579	0.4364	-0.5022	-0.4961
3.15	-9.4054	0.0705	1.1372	-0.0231	0.0026	-0.0228	32.9184	-12.5690	-1.8617	-0.5578	0.4364	-0.5022	-0.4961
3.16	-9.4289	0.0739	1.1388	-0.0174	0.0029	-0.0239	33.1283	-12.7866	-1.8282	-0.5578	0.4365	-0.5022	-0.4961
3.17	-9.4453	0.0599	1.1324	-0.0200	0.0040	-0.0278	32.8263	-12.4283	-1.8598	-0.5578	0.4365	-0.5022	-0.4960
3.18	-9.4389	0.0432	1.1190	-0.0275	-0.0120	-0.0266	32.8332	-12.4316	-1.8382	-0.5578	0.4366	-0.5021	-0.4961
3.19	-9.4084	0.0256	1.1284	-0.0353	-0.0101	-0.0265	33.0343	-12.6789	-1.8576	-0.5578	0.4366	-0.5020	-0.4961
3.2	-9.4143	0.0180	1.1372	-0.0245	-0.0082	-0.0190	32.7683	-12.5308	-1.8271	-0.5578	0.4366	-0.5020	-0.4962
3.21	-9.4111	0.0191	1.1341	-0.0246	-0.0044	-0.0198	32.7457	-12.4191	-1.7578	-0.5578	0.4367	-0.5019	-0.4962
3.22	-9.4000	0.0326	1.1452	-0.0209	-0.0140	-0.0205	32.8425	-12.5700	-1.7026	-0.5578	0.4367	-0.5019	-0.4962
3.23	-9.4093	0.0291	1.1441	-0.0108	-0.0086	-0.0202	32.7977	-12.7576	-1.6167	-0.5579	0.4366	-0.5019	-0.4963
3.24	-9.4010	0.0209	1.1429	-0.0179	-0.0067	-0.0225	32.8225	-12.6037	-1.9170	-0.5579	0.4366	-0.5018	-0.4963
3.25	-9.3762	0.0130	1.1465	-0.0120	-0.0046	-0.0296	32.8104	-12.3561	-1.7718	-0.5579	0.4367	-0.5018	-0.4962
3.26	-9.3702	0.0097	1.1460	-0.0066	-0.0045	-0.0258	32.8193	-12.4547	-1.7652	-0.5579	0.4366	-0.5018	-0.4962
3.27	-9.3792	0.0161	1.1429	-0.0042	-0.0050	-0.0211	32.8069	-12.4534	-1.7369	-0.5580	0.4366	-0.5018	-0.4962
3.28	-9.3920	0.0250	1.1393	-0.0057	-0.0002	-0.0203	32.9481	-12.4873	-1.6763	-0.5580	0.4366	-0.5018	-0.4962
3.29	-9.3842	0.0387	1.1315	-0.0052	0.0058	-0.0149	32.8332	-12.3777	-1.7873	-0.5580	0.4366	-0.5019	-0.4961
3.3	-9.3957	0.0380	1.1439	-0.0047	-0.0008	-0.0182	32.8085	-12.4566	-1.7391	-0.5580	0.4366	-0.5019	-0.4961
3.31	-9.4017	0.0450	1.1264	-0.0028	0.0012	-0.0179	32.8129	-12.4461	-1.8671	-0.5580	0.4365	-0.5019	-0.4961
3.32	-9.3883	0.0405	1.1332	-0.0102	-0.0001	-0.0097	32.9724	-12.5250	-1.7001	-0.5580	0.4365	-0.5020	-0.4961
3.33	-9.4076	0.0284	1.1295	-0.0091	0.0011	-0.0112	32.7328	-12.7076	-1.8396	-0.5580	0.4365	-0.5020	-0.4961
3.34	-9.4229	0.0439	1.1102	-0.0035	-0.0005	-0.0121	32.7980	-12.5008	-1.8599	-0.5580	0.4364	-0.5021	-0.4961
3.35	-9.4413	0.0413	1.1240	-0.0092	-0.0025	-0.0084	33.0603	-12.5978	-1.7070	-0.5580	0.4364	-0.5021	-0.4961
3.36	-9.4561	0.0479	1.1171	-0.0077	0.0037	-0.0055	32.9147	-12.8099	-1.8200	-0.5580	0.4364	-0.5021	-0.4961
3.37	-9.4649	0.0601	1.1106	0.0031	-0.0049	-0.0090	32.8864	-12.8245	-1.8437	-0.5580	0.4363	-0.5022	-0.4961
3.38	-9.4814	0.0657	1.1205	0.0009	-0.0158	-0.0078	33.0110	-12.7085	-1.8459	-0.5580	0.4362	-0.5022	-0.4961
3.39	-9.4795	0.0726	1.1185	0.0055	-0.0206	-0.0099	32.9710	-12.6007	-1.9711	-0.5581	0.4361	-0.5022	-0.4962
3.4	-9.4684	0.0855	1.1288	0.0107	-0.0208	-0.0111	32.8138	-12.4680	-1.8882	-0.5581	0.4359	-0.5023	-0.4962
3.41	-9.4582	0.0927	1.1426	0.0111	-0.0227	-0.0110	32.8239	-12.5200	-1.7196	-0.5582	0.4358	-0.5023	-0.4962
3.42	-9.4494	0.1088	1.1495	0.0168	-0.0255	-0.0088	32.6862	-12.7051	-1.9156	-0.5583	0.4356	-0.5023	-0.4962
3.43	-9.4207	0.1212	1.1575	0.0120	-0.0319	-0.0130	32.7819	-12.6904	-1.8732	-0.5584	0.4354	-0.5023	-0.4962
3.44	-9.3949	0.1276	1.1728	0.0067	-0.0335	-0.0114	32.8344	-12.5636	-1.6082	-0.5586	0.4353	-0.5023	-0.4962
3.45	-9.3842	0.1386	1.1889	0.0004	-0.0304	-0.0161	32.7167	-12.4298	-1.7986	-0.5587	0.4352	-0.5022	-0.4963
3.46	-9.3824	0.1385	1.1947	-0.0072	-0.0327	-0.0118	32.7172	-12.3936	-1.8507	-0.5587	0.4351	-0.5022	-0.4963
3.47	-9.3799	0.1427	1.2059	-0.0036	-0.0325	-0.0115	32.9937	-12.4583	-1.6376	-0.5588	0.4349	-0.5021	-0.4964
3.48	-9.3617	0.1410	1.2114	-0.0124	-0.0298	-0.0132	33.2816	-12.2310	-1.3796	-0.5589	0.4348	-0.5021	-0.4965
3.49	-9.3304	0.1357	1.2230	-0.0120	-0.0275	-0.0144	33.4067	-12.2036	-1.2201	-0.5589	0.4348	-0.5020	-0.4965
3.5	-9.3262	0.1400	1.2310	-0.0152	-0.0217	-0.0147	33.1275	-12.5017	-1.7315	-0.5590	0.4347	-0.5020	-0.4966
3.51	-9.3328	0.1330	1.2381	-0.0225	-0.0227	-0.0149	33.0539	-13.2770	-1.8224	-0.5590	0.4347	-0.5019	-0.4967
3.52	-9.3403	0.1213	1.2420	-0.0152	-0.0199	-0.0155	32.9014	-13.0829	-1.5553	-0.5590	0.4346	-0.5018	-0.4967
3.53	-9.3481	0.1207	1.2463	-0.0126	-0.0157	-0.0171	32.9405	-12.6846	-1.8519	-0.5591	0.4346	-0.5018	-0.4968
3.54	-9.3553	0.1132	1.2510	-0.0227	-0.0146	-0.0173	32.7640	-12.6436	-1.8991	-0.5591	0.4345	-0.5018	-0.4968
3.55	-9.3486	0.1117	1.2335	-0.0276	-0.0056	-0.0158	33.1519	-12.5724	-2.0854	-0.5591	0.4346	-0.5017	-0.4969
3.56	-9.3591	0.1112	1.2384	-0.0299	-0.0017	-0.0214	32.8814	-12.8935	-2.2036	-0.5590	0.4346	-0.5017	-0.4969
3.57	-9.3575	0.1075	1.2115	-0.0260	0.0058	-0.0222	32.8844	-12.7782	-1.9086	-0.5590	0.4347	-0.5017	-0.4969
3.58	-9.3669	0.0952	1.2193	-0.0296	0.0062	-0.0232	32.9234	-12.8709	-2.1380	-0.5589	0.4347	-0.5016	-0.4969
3.59	-9.4226	0.0943	1.2242	-0.0361	0.0077	-0.0279	32.7036	-12.6233	-1.9728	-0.5589	0.4348	-0.5016	-0.4969
3.6	-9.4485	0.0827	1.1997	-0.0371	0.0079	-0.0306	32.9413	-12.6574	-2.0598	-0.5588	0.4350	-0.5015	-0.4970
3.61	-9.4271	0.0724	1.1945	-0.0364	0.0030	-0.0322	32.8729	-12.7980	-1.8792	-0.5588	0.4351	-0.5015	-0.4970
3.62	-9.4021	0.0643	1.2053	-0.0341	0.0006	-0.0197	32.9034	-12.5529	-1.8058	-0.5588	0.4351	-0.5014	-0.4970
3.63	-9.4047	0.0567	1.2080	-0.0331	0.0086	-0.0278	33.0773	-12.4746	-1.8243	-0.5587	0.4352	-0.5014	-0.4970
3.64	-9.4033	0.0652	1.2011	-0.0351	0.0037	-0.0203	32.7069	-12.4228	-1.8648	-0.5587	0.4353	-0.5013	-0.4970
3.65	-9.4028	0.0800	1.1995	-0.0296	0.0029	-0.0167	32.9269	-12.4082	-1.9410	-0.5586	0.4354	-0.5013	-0.4971
3.66	-9.4045	0.0806	1.1944	-0.0357	0.0054	-0.0207	32.8706	-12.5920	-1.9216	-0.5586	0.4354	-0.5013	-0.4971
3.67	-9.4071	0.0676	1.1830	-0.0370	0.0069	-0.0262	32.7301	-12.4243	-1.7854	-0.5585	0.4355	-0.5012	-0.4971
3.68	-9.4022	0.0500	1.1678	-0.0373	0.0065	-0.0259	32.9592	-12.5250	-1.9120	-0.5585	0.4357	-0.5011	-0.4972
3.69	-9.3958	0.0495	1.1661	-0.0368	0.0047	-0.0276	32.8721	-12.5872	-1.8385	-0.5584	0.4358	-0.5011	-0.4972
3.7	-9.4085	0.0653	1.1782	-0.0296	-0.0046	-0.0236	32.7451	-12.4380	-1.8343	-0.5584	0.4358	-0.5010	-0.4972
3.71	-9.4122	0.0448	1.1736	-0.0326	-0.0003	-0.0179	32.7837	-12.3901	-1.9300	-0.5584	0.4359	-0.5010	-0.4973
3.72	-9.4176	0.0510	1.1783	-0.0366	-0.0068	-0.0296	33.1457	-12.7386	-1.9675	-0.5583	0.4359	-0.5009	-0.4973
3.73	-9.4193	0.0450	1.1819	-0.0332	-0.0026	-0.0297	32.9369	-12.7204	-2.0221	-0.5583	0.4360	-0.5008	-0.4973
3.74	-9.4131	0.0309	1.1720	-0.0358	0.0007	-0.0291	33.0501	-12.7586	-2.0039	-0.5583	0.4361	-0.5008	-0.4974
3.75	-9.4143	0.0297	1.1785	-0.0247	-0.0020	-0.0256	32.9890	-12.8212	-1.9861	-0.5583	0.4362	-0.5007	-0.4974
3.76	-9.4252	0.0130	1.1817	-0.0231	-0.0068	-0.0260	32.9099	-12.6154	-2.0891	-0.5583	0.4362	-0.5006	-0.4974
3.77	-9.4051	0.0073	1.1698	-0.0249	-0.0052	-0.0226	32.9737	-12.7587	-2.0980	-0.5583	0.4362	-0.5006	-0.4974
3.78	-9.3872	0.0057	1.1826	-0.0307	-0.0088	-0.0210	32.7709	-12.5916	-2.1196	-0.5583	0.4363	-0.5005	-0.4975
3.79	-9.3988	-0.0003	1.1750	-0.0324	-0.0104	-0.0166	32.8167	-12.5499	-2.0297	-0.5583	0.4363	-0.5005	-0.4975
3.8	-9.4033	-0.0086	1.1768	-0.0236	-0.0082	-0.0099	32.8755	-12.5592	-1.6820	-0.5582	0.4363	-0.5004	-0.4976
3.81	-9.3959	-0.0125	1.1681	-0.0181	-0.0146	-0.0102	32.7384	-12.5556	-1.9811	-0.5582	0.4362	-0.5004	-0.4977
3.82	-9.3863	-0.0216	1.1853	-0.0135	-0.0105	-0.0102	32.9207	-12.7029	-1.8538	-0.5582	0.4362	-0.5004	-0.4977
3.83	-9.3854	-0.0178	1.1959	-0.0089	-0.0124	-0.0096	32.7018	-12.5114	-2.0605	-0.5583	0.4361	-0.5004	-0.4977
3.84	-9.3834	0.0008	1.1954	-0.0094	-0.0111	-0.0073	32.6475	-12.3562	-1.7124	-0.5583	0.4361	-0.5004	-0.4978
3.85	-9.3667	0.0183	1.2013	-0.0037	-0.0113	-0.0095	32.7139	-12.4019	-1.6498	-0.5583	0.4360	-0.5004	-0.4978
3.86	-9.3633	0.0308	1.2032	0.0007	-0.0067	-0.0047	32.7757	-12.5165	-1.7834	-0.5583	0.4359	-0.5005	-0.4978
3.87	-9.3725	0.0395	1.1944	-0.0025	-0.0059	-0.0098	32.7652	-12.3568	-2.0085	-0.5583	0.4358	-0.5005	-0.4978
3.88	-9.3719	0.0408	1.1899	0.0094	-0.0017	-0.0093	32.7569	-12.5101	-2.0117	-0.5583	0.4357	-0.5006	-0.4978
3.89	-9.3873	0.0495	1.1938	0.0146	-0.0060	-0.0097	32.6441	-12.5404	-2.0382	-0.5584	0.4356	-0.5007	-0.4978
3.9	-9.4026	0.0697	1.1922	0.0151	0.0011	-0.0083	32.7176	-12.4565	-2.1483	-0.5584	0.4355	-0.5008	-0.4977
3.91	-9.4041	0.0872	1.1847	0.0145	-0.0043	-0.0098	32.9516	-12.8683	-1.9946	-0.5585	0.4354	-0.5008	-0.4977
3.92	-9.4063	0.1114	1.1909	0.0134	-0.0039	-0.0094	33.0438	-12.7838	-1.8815	-0.5585	0.4353	-0.5009	-0.4976
3.93	-9.4040	0.1275	1.1826	0.0127	0.0010	-0.0134	32.8573	-12.5641	-1.9850	-0.5585	0.4352	-0.5010	-0.4976
3.94	-9.4079	0.1449	1.1844	0.0123	-0.0007	-0.0107	32.8577	-12.7953	-2.2708	-0.5586	0.4351	-0.5011	-0.4976
3.95	-9.4174	0.1587	1.1867	0.0095	0.0027	-0.0105	32.7586	-12.4863	-1.8429	-0.5586	0.4351	-0.5012	-0.4975
3.96	-9.4143	0.1545	1.1797	-0.0013	-0.0049	-0.0123	32.7553	-12.5388	-1.7404	-0.5586	0.4350	-0.5012	-0.4975
3.97	-9.4175	0.1554	1.1845	-0.0076	-0.0025	-0.0135	32.8158	-12.6475	-1.8694	-0.5586	0.4350	-0.5012	-0.4975
3.98	-9.4127	0.1456	1.1885	-0.0097	-0.0079	-0.0139	33.3160	-12.4331	-1.7318	-0.5586	0.4349	-0.5013	-0.4975
3.99	-9.4128	0.1324	1.1854	-0.0157	-0.0173	-0.0112	33.6469	-12.3480	-1.6551	-0.5587	0.4349	-0.5012	-0.4976
4	-9.4051	0.1184	1.1923	-0.0178	-0.0092	-0.0098	32.7482	-12.5573	-1.6449	-0.5586	0.4348	-0.5012	-0.4976
4.01	-9.3940	0.1045	1.1901	-0.0271	-0.0142	-0.0120	32.8493	-13.5004	-1.9293	-0.5586	0.4348	-0.5012	-0.4977
4.02	-9.3856	0.0902	1.1932	-0.0337	-0.0131	-0.0119	32.7041	-13.1661	-1.7082	-0.5586	0.4348	-0.5011	-0.4978
4.03	-9.4015	0.0978	1.1938	-0.0211	-0.0086	-0.0091	32.7844	-12.5170	-1.7071	-0.5586	0.4348	-0.5011	-0.4979
4.04	-9.3933	0.0918	1.1854	-0.0168	-0.0113	-0.0142	32.8643	-12.7034	-1.9880	-0.5586	0.4348	-0.5010	-0.4979
4.05	-9.3840	0.1042	1.1901	-0.0142	-0.0086	-0.0157	32.8265	-12.6033	-1.8619	-0.5586	0.4347	-0.5010	-0.4979
4.06	-9.3866	0.1119	1.1903	-0.0119	-0.0039	-0.0177	32.9465	-12.7737	-1.8495	-0.5586	0.4347	-0.5010	-0.4979
4.07	-9.3894	0.1219	1.1910	-0.0123	-0.0006	-0.0212	32.7821	-12.5574	-2.0341	-0.5586	0.4347	-0.5010	-0.4979
4.08	-9.3932	0.1305	1.1868	-0.0114	-0.0086	-0.0168	32.7166	-12.8187	-1.7688	-0.5586	0.4347	-0.5010	-0.4979
4.09	-9.3991	0.1270	1.1879	-0.0128	-0.0004	-0.0176	32.8693	-12.8182	-1.8520	-0.5586	0.4347	-0.5010	-0.4979
4.1	-9.4047	0.1272	1.1970	-0.0225	-0.0003	-0.0157	32.9129	-12.6099	-2.0968	-0.5586	0.4347	-0.5010	-0.4980
4.11	-9.3984	0.1257	1.1808	-0.0240	-0.0082	-0.0194	33.0084	-12.6606	-1.8322	-0.5586	0.4347	-0.5010	-0.4980
4.12	-9.3980	0.1207	1.1858	-0.0278	-0.0084	-0.0196	32.9477	-12.9343	-1.9361	-0.5586	0.4348	-0.5009	-0.4980
4.13	-9.4068	0.1169	1.1864	-0.0240	-0.0028	-0.0212	32.8362	-12.7774	-2.0659	-0.5586	0.4348	-0.5009	-0.4981
4.14	-9.3944	0.0959	1.1876	-0.0274	-0.0077	-0.0208	32.9318	-12.6371	-1.8821	-0.5586	0.4348	-0.5008	-0.4981
4.15	-9.3959	0.0883	1.1968	-0.0271	-0.0010	-0.0201	32.5663	-12.7766	-1.8604	-0.5586	0.4348	-0.5008	-0.4981
4.16	-9.4079	0.0832	1.1894	-0.0324	-0.0033	-0.0211	32.9807	-12.7117	-1.8448	-0.5585	0.4349	-0.5007	-0.4982
4.17	-9.4071	0.0739	1.1857	-0.0213	-0.0031	-0.0176	32.7770	-12.6366	-2.0060	-0.5585	0.4349	-0.5007	-0.4982
4.18	-9.4146	0.0722	1.1853	-0.0197	-0.0042	-0.0246	32.9479	-12.4872	-2.0368	-0.5585	0.4349	-0.5007	-0.4982
4.19	-9.4027	0.0589	1.1817	-0.0133	-0.0112	-0.0277	32.7832	-12.4499	-1.8396	-0.5586	0.4349	-0.5006	-0.4982
4.2	-9.4267	0.0539	1.2065	-0.0138	-0.0106	-0.0202	32.7337	-12.5740	-1.9765	-0.5586	0.4349	-0.5006	-0.4982
4.21	-9.4506	0.0440	1.2008	-0.0149	-0.0083	-0.0231	32.8869	-12.6704	-1.9424	-0.5586	0.4349	-0.5006	-0.4982
4.22	-9.4256	0.0443	1.2017	-0.0110	-0.0158	-0.0291	32.7999	-12.6161	-1.9732	-0.5587	0.4349	-0.5005	-0.4982
4.23	-9.3831	0.0450	1.2106	-0.0122	-0.0149	-0.0179	32.9497	-12.7422	-1.8640	-0.5587	0.4349	-0.5005	-0.4982
4.24	-9.3665	0.0415	1.2159	-0.0117	-0.0164	-0.0093	32.9125	-12.7189	-1.8461	-0.5587	0.4348	-0.5005	-0.4983
4.25	-9.3606	0.0490	1.2124	-0.0121	-0.0149	-0.0109	32.9597	-12.7571	-1.8918	-0.5588	0.4347	-0.5005	-0.4983
4.26	-9.3617	0.0726	1.2129	-0.0082	-0.0145	-0.0092	32.8436	-12.6501	-2.0449	-0.5588	0.4347	-0.5005	-0.4984
4.27	-9.3666	0.0872	1.2151	-0.0074	-0.0118	-0.0082	32.8465	-12.6484	-2.0599	-0.5588	0.4346	-0.5005	-0.4984
4.28	-9.3681	0.0868	1.2111	-0.0021	-0.0098	-0.0101	32.9392	-12.7455	-1.8948	-0.5588	0.4345	-0.5005	-0.4984
4.29	-9.3700	0.0856	1.2059	0.0025	-0.0086	-0.0088	32.7688	-12.7478	-2.0517	-0.5588	0.4344	-0.5005	-0.4984
4.3	-9.3767	0.0901	1.2017	0.0116	-0.0019	-0.0097	33.0391	-12.6362	-1.9603	-0.5589	0.4343	-0.5006	-0.4984
4.31	-9.3922	0.1077	1.2008	0.0139	-0.0093	-0.0097	32.9113	-12.7551	-1.8558	-0.5589	0.4342	-0.5007	-0.4984
4.32	-9.3933	0.1294	1.2094	0.0137	-0.0112	-0.0118	32.9411	-12.8362	-1.8277	-0.5590	0.4341	-0.5007	-0.4983
4.33	-9.3966	0.1502	1.2199	0.0141	-0.0057	-0.0107	32.9086	-12.8232	-1.9623	-0.5591	0.4340	-0.5008	-0.4983
4.34	-9.3865	0.1618	1.2163	0.0136	-0.0064	-0.0178	33.0385	-12.7305	-1.8363	-0.5591	0.4339	-0.5009	-0.4983
4.35	-9.3768	0.1788	1.2157	0.0141	-0.0015	-0.0202	32.8817	-12.7312	-1.7960	-0.5592	0.4338	-0.5009	-0.4982
4.36	-9.3882	0.1836	1.2212	0.0068	-0.0008	-0.0164	32.8301	-12.7138	-2.0131	-0.5592	0.4338	-0.5010	-0.4981
4.37	-9.4215	0.1914	1.2170	-0.0020	0.0057	-0.0226	32.8453	-12.5182	-1.9251	-0.5593	0.4337	-0.5010	-0.4981
4.38	-9.4100	0.1949	1.1990	-0.0096	0.0059	-0.0226	32.8416	-12.6915	-1.9741	-0.5593	0.4338	-0.5010	-0.4980
4.39	-9.4034	0.1916	1.2119	-0.0172	0.0007	-0.0243	32.9749	-12.7091	-1.9379	-0.5593	0.4338	-0.5010	-0.4980
4.4	-9.4235	0.1914	1.2028	-0.0155	0.0032	-0.0315	33.0711	-12.6069	-1.9649	-0.5593	0.4338	-0.5010	-0.4980
4.41	-9.4278	0.1767	1.2009	-0.0226	0.0092	-0.0247	32.8200	-12.7392	-1.9476	-0.5593	0.4339	-0.5010	-0.4980
4.42	-9.4022	0.1566	1.2009	-0.0339	-0.0008	-0.0329	32.7535	-12.7453	-1.8467	-0.5592	0.4340	-0.5009	-0.4980
4.43	-9.3917	0.1277	1.2110	-0.0314	-0.0081	-0.0273	32.8757	-12.8441	-1.8589	-0.5592	0.4340	-0.5009	-0.4980
4.44	-9.3973	0.1144	1.2142	-0.0354	-0.0047	-0.0355	32.8180	-12.5217	-1.8751	-0.5592	0.4341	-0.5008	-0.4980
4.45	-9.3825	0.1090	1.2219	-0.0366	-0.0184	-0.0267	32.8665	-12.6762	-1.7611	-0.5593	0.4342	-0.5006	-0.4981
4.46	-9.3727	0.1068	1.2264	-0.0366	-0.0081	-0.0224	32.8089	-12.7277	-1.6355	-0.5592	0.4342	-0.5006	-0.4981
4.47	-9.3665	0.1033	1.2357	-0.0372	-0.0088	-0.0221	33.1339	-12.7558	-1.7451	-0.5592	0.4343	-0.5005	-0.4982
4.48	-9.3713	0.0911	1.2297	-0.0367	-0.0006	-0.0221	33.3565	-12.6354	-1.7920	-0.5592	0.4344	-0.5004	-0.4983
4.49	-9.3666	0.0766	1.2293	-0.0369	0.0022	-0.0333	33.6791	-12.3270	-1.5778	-0.5591	0.4345	-0.5003	-0.4983
4.5	-9.3591	0.0645	1.2252	-0.0347	0.0001	-0.0234	33.3675	-12.7889	-1.8504	-0.5591	0.4345	-0.5003	-0.4983
4.51	-9.3733	0.0608	1.2201	-0.0346	0.0073	-0.0241	33.0007	-13.5712	-1.9189	-0.5591	0.4346	-0.5002	-0.4983
4.52	-9.3904	0.0632	1.2084	-0.0377	0.0066	-0.0279	32.9764	-13.1380	-1.9607	-0.5590	0.4347	-0.5002	-0.4983
4.53	-9.3949	0.0582	1.2001	-0.0295	0.0110	-0.0286	32.9082	-12.4218	-2.1358	-0.5590	0.4348	-0.5001	-0.4983
4.54	-9.4077	0.0498	1.1989	-0.0297	0.0105	-0.0245	32.8883	-12.9185	-2.0047	-0.5589	0.4349	-0.5001	-0.4983
4.55	-9.4129	0.0419	1.1902	-0.0333	0.0068	-0.0286	32.7227	-12.6173	-1.9231	-0.5589	0.4350	-0.5001	-0.4983
4.56	-9.4250	0.0368	1.1899	-0.0208	0.0161	-0.0270	32.7444	-12.4216	-1.7580	-0.5588	0.4351	-0.5001	-0.4983
4.57	-9.4397	0.0290	1.1800	-0.0196	0.0045	-0.0246	32.7582	-12.5047	-1.7478	-0.5588	0.4352	-0.5001	-0.4983
4.58	-9.4325	0.0210	1.1784	-0.0119	0.0044	-0.0216	32.9077	-12.5414	-1.8324	-0.5588	0.4352	-0.5001	-0.4982
4.59	-9.4210	0.0225	1.1902	-0.0123	0.0035	-0.0225	32.5127	-12.6418	-1.7957	-0.5588	0.4352	-0.5001	-0.4982
4.6	-9.4275	0.0274	1.1925	-0.0098	-0.0028	-0.0166	32.6077	-12.4949	-1.8099	-0.5588	0.4352	-0.5001	-0.4982
4.61	-9.4217	0.0358	1.1987	-0.0060	-0.0075	-0.0151	32.8319	-12.4585	-1.8401	-0.5589	0.4351	-0.5001	-0.4982
4.62	-9.4049	0.0451	1.2084	-0.0026	-0.0171	-0.0172	32.8458	-12.3716	-1.9723	-0.5589	0.4351	-0.5001	-0.4982
4.63	-9.3975	0.0599	1.2224	0.0038	-0.0169	-0.0142	32.7164	-12.4587	-1.6287	-0.5590	0.4350	-0.5001	-0.4982
4.64	-9.3818	0.0731	1.2264	0.0083	-0.0138	-0.0196	32.6442	-12.4523	-1.7045	-0.5591	0.4349	-0.5001	-0.4982
4.65	-9.3599	0.0807	1.2306	0.0091	-0.0156	-0.0151	32.8695	-12.6983	-1.8444	-0.5591	0.4348	-0.5002	-0.4982
4.66	-9.3400	0.0960	1.2388	0.0070	-0.0151	-0.0093	33.1234	-12.7208	-1.7776	-0.5592	0.4347	-0.5002	-0.4982
4.67	-9.3411	0.1085	1.2381	0.0101	-0.0044	-0.0145	32.9652	-12.7264	-1.9270	-0.5592	0.4346	-0.5002	-0.4981
4.68	-9.3471	0.1149	1.2329	0.0037	-0.0008	-0.0124	32.9008	-12.8469	-1.8736	-0.5593	0.4345	-0.5003	-0.4981
4.69	-9.3594	0.1230	1.2362	-0.0047	0.0068	-0.0124	32.9274	-12.7232	-1.9154	-0.5593	0.4345	-0.5004	-0.4981
4.7	-9.3557	0.1224	1.2316	-0.0108	0.0051	-0.0146	32.9153	-12.7023	-1.7858	-0.5592	0.4345	-0.5004	-0.4981
4.71	-9.3560	0.1211	1.2288	-0.0100	0.0035	-0.0170	32.7897	-12.7481	-1.8112	-0.5592	0.4345	-0.5004	-0.4981
4.72	-9.3569	0.1086	1.2148	-0.0105	0.0100	-0.0150	32.9034	-12.8563	-1.7916	-0.5592	0.4345	-0.5005	-0.4980
4.73	-9.3625	0.0976	1.2119	-0.0119	0.0158	-0.0123	32.8702	-13.0139	-1.8116	-0.5592	0.4345	-0.5005	-0.4980
4.74	-9.3709	0.0895	1.2034	-0.0107	0.0142	-0.0157	32.5601	-12.8336	-1.6727	-0.5591	0.4345	-0.5006	-0.4980
4.75	-9.3792	0.0833	1.1961	-0.0104	0.0277	-0.0107	32.7804	-12.5478	-1.9259	-0.5590	0.4346	-0.5007	-0.4979
4.76	-9.3894	0.0787	1.1861	-0.0117	0.0229	-0.0140	32.8333	-12.7163	-1.7866	-0.5590	0.4346	-0.5008	-0.4979
4.77	-9.4002	0.0804	1.1772	-0.0117	0.0277	-0.0186	32.8517	-12.2920	-1.9408	-0.5589	0.4347	-0.5009	-0.4978
4.78	-9.4209	0.0790	1.1669	-0.0050	0.0242	-0.0132	32.8932	-12.4493	-1.8292	-0.5588	0.4347	-0.5010	-0.4978
4.79	-9.4309	0.0799	1.1537	0.0068	0.0189	-0.0157	32.8633	-12.5594	-1.7066	-0.5588	0.4347	-0.5011	-0.4977
4.8	-9.4640	0.0918	1.1621	0.0067	0.0279	-0.0185	32.8975	-12.5992	-1.9461	-0.5588	0.4347	-0.5012	-0.4976
4.81	-9.4743	0.1049	1.1355	0.0075	0.0239	-0.0126	32.5638	-12.7571	-1.7605	-0.5588	0.4347	-0.5014	-0.4975
4.82	-9.4758	0.1179	1.1396	0.0102	0.0168	-0.0182	32.7464	-12.5417	-1.9929	-0.5588	0.4347	-0.5015	-0.4974
4.83	-9.4683	0.1197	1.1378	0.0085	0.0110	-0.0204	32.6948	-12.5610	-1.7083	-0.5588	0.4346	-0.5016	-0.4973
4.84	-9.4646	0.1134	1.1373	0.0114	0.0060	-0.0227	32.9567	-12.4989	-1.8173	-0.5588	0.4346	-0.5016	-0.4972
4.85	-9.4945	0.1202	1.1546	0.0095	-0.0009	-0.0215	33.0933	-12.8398	-1.7765	-0.5589	0.4345	-0.5017	-0.4971
4.86	-9.5030	0.1147	1.1637	0.0022	-0.0029	-0.0213	32.9948	-12.8438	-1.6910	-0.5589	0.4345	-0.5017	-0.4971
4.87	-9.4681	0.1132	1.1691	0.0094	-0.0209	-0.0188	32.9325	-12.8139	-2.0132	-0.5590	0.4344	-0.5017	-0.4970
4.88	-9.4195	0.1073	1.1889	0.0063	-0.0191	-0.0136	32.9190	-12.6758	-1.9667	-0.5591	0.4343	-0.5017	-0.4970
4.89	-9.3805	0.1069	1.1918	0.0006	-0.0174	-0.0124	33.0227	-12.6798	-1.8850	-0.5592	0.4342	-0.5017	-0.4971
4.9	-9.3530	0.1246	1.1904	0.0030	-0.0197	-0.0090	32.8103	-12.8629	-2.1138	-0.5592	0.4341	-0.5018	-0.4971
4.91	-9.3486	0.1397	1.2040	-0.0042	-0.0180	-0.0099	32.8381	-12.7753	-1.9013	-0.5593	0.4340	-0.5018	-0.4971
4.92	-9.3533	0.1542	1.1997	-0.0047	-0.0176	-0.0096	32.8204	-12.8238	-1.6446	-0.5593	0.4339	-0.5018	-0.4972
4.93	-9.3415	0.1488	1.1940	-0.0096	-0.0068	-0.0100	32.6759	-12.6186	-1.7941	-0.5593	0.4338	-0.5018	-0.4972
4.94	-9.3522	0.1410	1.1975	-0.0098	0.0070	-0.0095	32.9173	-12.3760	-1.7985	-0.5593	0.4338	-0.5018	-0.4972
4.95	-9.3544	0.1476	1.1807	-0.0062	0.0020	-0.0106	32.9235	-12.3426	-1.9268	-0.5593	0.4338	-0.5019	-0.4972
4.96	-9.3589	0.1573	1.1857	-0.0082	0.0038	-0.0201	32.8000	-12.5418	-1.9879	-0.5593	0.4338	-0.5019	-0.4972
4.97	-9.3732	0.1748	1.1933	-0.0009	0.0017	-0.0184	32.8625	-12.6505	-1.4029	-0.5593	0.4338	-0.5019	-0.4971
4.98	-9.3753	0.1813	1.1895	-0.0037	0.0086	-0.0217	33.1583	-12.3079	-1.5516	-0.5593	0.4338	-0.5020	-0.4971
4.99	-9.3806	0.1829	1.1957	-0.0070	0.0109	-0.0299	33.6839	-12.1885	-1.6520	-0.5593	0.4338	-0.5020	-0.4970
5	-9.3901	0.1871	1.1896	-0.0081	0.0176	-0.0341	33.1492	-12.8822	-1.6639	-0.5593	0.4339	-0.5020	-0.4969
5.01	-9.4148	0.1976	1.1927	-0.0111	0.0131	-0.0302	32.9254	-13.4682	-1.8357	-0.5593	0.4339	-0.5021	-0.4968
5.02	-9.4328	0.1975	1.1816	-0.0154	0.0204	-0.0302	32.8912	-13.2708	-1.7303	-0.5593	0.4340	-0.5021	-0.4967
5.03	-9.4016	0.1853	1.1695	-0.0234	0.0146	-0.0357	32.9413	-12.5991	-1.9257	-0.5593	0.4341	-0.5021	-0.4967
5.04	-9.3984	0.1831	1.1797	-0.0255	0.0117	-0.0347	33.0744	-12.7914	-1.8145	-0.5592	0.4342	-0.5021	-0.4966
5.05	-9.4158	0.1670	1.1690	-0.0369	0.0145	-0.0357	32.8907	-12.6911	-1.9952	-0.5592	0.4343	-0.5020	-0.4966
5.06	-9.4179	0.1382	1.1693	-0.0366	0.0121	-0.0350	32.9691	-12.8602	-1.9132	-0.5592	0.4345	-0.5020	-0.4966
5.07	-9.3977	0.0980	1.1589	-0.0417	0.0130	-0.0357	33.1355	-12.7804	-1.9105	-0.5591	0.4346	-0.5019	-0.4966
5.08	-9.4034	0.0704	1.1639	-0.0459	0.0102	-0.0348	33.0841	-12.6567	-2.1924	-0.5590	0.4348	-0.5018	-0.4966
5.09	-9.4041	0.0547	1.1568	-0.0413	0.0018	-0.0330	32.6883	-12.5652	-2.0457	-0.5590	0.4349	-0.5017	-0.4966
5.1	-9.3964	0.0469	1.1595	-0.0404	0.0034	-0.0257	32.8344	-12.5290	-1.9373	-0.5590	0.4350	-0.5016	-0.4966
5.11	-9.3985	0.0462	1.1600	-0.0364	0.0086	-0.0223	32.8960	-12.6252	-1.8227	-0.5589	0.4351	-0.5016	-0.4967
5.12	-9.4014	0.0382	1.1620	-0.0374	0.0037	-0.0292	32.8839	-12.6403	-1.6684	-0.5589	0.4352	-0.5015	-0.4967
5.13	-9.4051	0.0241	1.1585	-0.0368	0.0117	-0.0319	32.9546	-12.5758	-1.8072	-0.5588	0.4354	-0.5015	-0.4967
5.14	-9.3994	-0.0013	1.1568	-0.0380	0.0097	-0.0330	32.7781	-12.6136	-1.8859	-0.5588	0.4355	-0.5014	-0.4967
5.15	-9.4018	-0.0101	1.1450	-0.0306	0.0114	-0.0278	32.9267	-12.5801	-1.8820	-0.5587	0.4356	-0.5014	-0.4967
5.16	-9.3996	-0.0126	1.1420	-0.0121	0.0113	-0.0235	32.9280	-12.7625	-1.7756	-0.5587	0.4356	-0.5014	-0.4966
5.17	-9.4130	0.0010	1.1466	-0.0100	0.0169	-0.0232	32.9262	-12.5088	-1.7827	-0.5587	0.4357	-0.5015	-0.4966
5.18	-9.4294	0.0068	1.1406	-0.0101	0.0124	-0.0223	32.9235	-12.5592	-1.9499	-0.5587	0.4357	-0.5015	-0.4965
5.19	-9.4300	0.0134	1.1348	-0.0121	0.0125	-0.0266	32.6537	-12.3399	-1.9905	-0.5587	0.4358	-0.5016	-0.4965
5.2	-9.4342	0.0168	1.1402	-0.0081	0.0012	-0.0206	32.6679	-12.5041	-1.8551	-0.5587	0.4358	-0.5016	-0.4964
5.21	-9.4428	0.0204	1.1354	0.0020	0.0008	-0.0163	32.8931	-12.6879	-2.0282	-0.5587	0.4357	-0.5016	-0.4964
5.22	-9.4393	0.0269	1.1403	0.0028	-0.0033	-0.0111	32.7922	-12.8082	-2.0416	-0.5587	0.4357	-0.5017	-0.4964
5.23	-9.4325	0.0365	1.1441	0.0143	-0.0102	-0.0152	32.9417	-12.8265	-1.7366	-0.5588	0.4356	-0.5017	-0.4963
5.24	-9.4364	0.0522	1.1457	0.0106	-0.0104	-0.0158	33.0154	-12.7174	-1.9179	-0.5588	0.4355	-0.5018	-0.4963
5.25	-9.4262	0.0568	1.1519	0.0121	-0.0112	-0.0100	32.8839	-12.8762	-1.9613	-0.5589	0.4353	-0.5018	-0.4963
5.26	-9.4189	0.0683	1.1604	0.0150	-0.0164	-0.0133	32.9989	-12.7234	-1.9804	-0.5590	0.4352	-0.5019	-0.4962
5.27	-9.4215	0.0813	1.1651	0.0138	-0.0134	-0.0112	33.1241	-12.7356	-1.8411	-0.5591	0.4351	-0.5019	-0.4962
5.28	-9.4071	0.0863	1.1651	0.0146	-0.0185	-0.0128	32.9633	-12.8421	-1.9118	-0.5592	0.4349	-0.5020	-0.4962
5.29	-9.3986	0.0947	1.1771	0.0132	-0.0203	-0.0120	32.9098	-12.7866	-1.9406	-0.5592	0.4348	-0.5020	-0.4962
5.3	-9.3967	0.1061	1.1826	0.0158	-0.0182	-0.0086	32.9464	-12.6101	-1.7557	-0.5593	0.4347	-0.5020	-0.4962
5.31	-9.3862	0.1188	1.1880	0.0091	-0.0233	-0.0107	32.8118	-12.6880	-1.7917	-0.5594	0.4345	-0.5020	-0.4962
5.32	-9.3784	0.1276	1.1918	0.0090	-0.0092	-0.0089	32.7106	-12.6940	-1.6205	-0.5595	0.4344	-0.5021	-0.4962
5.33	-9.3642	0.1308	1.2010	0.0159	-0.0065	-0.0183	32.5950	-12.6463	-1.8328	-0.5595	0.4343	-0.5022	-0.4961
5.34	-9.3502	0.1338	1.2023	-0.0025	-0.0159	-0.0129	32.9604	-12.5456	-2.0081	-0.5596	0.4342	-0.5022	-0.4961
5.35	-9.3498	0.1301	1.2090	0.0012	-0.0041	-0.0145	33.0200	-12.4726	-1.5647	-0.5596	0.4342	-0.5022	-0.4961
5.36	-9.3604	0.1295	1.2174	-0.0039	-0.0025	-0.0149	32.8568	-12.7533	-1.8733	-0.5596	0.4341	-0.5022	-0.4961
5.37	-9.3534	0.1255	1.2072	-0.0038	-0.0052	-0.0199	32.7662	-12.7254	-2.0793	-0.5597	0.4341	-0.5022	-0.4961
5.38	-9.3528	0.1239	1.2087	-0.0082	0.0109	-0.0177	32.6295	-12.7344	-1.9593	-0.5596	0.4341	-0.5023	-0.4961
5.39	-9.3551	0.1265	1.1999	-0.0077	0.0014	-0.0085	32.8255	-12.7426	-1.9287	-0.5596	0.4341	-0.5023	-0.4961
5.4	-9.3576	0.1243	1.1944	-0.0117	0.0012	-0.0154	32.8242	-12.7039	-1.8412	-0.5596	0.4340	-0.5024	-0.4961
5.41	-9.3629	0.1232	1.1896	-0.0097	0.0040	-0.0161	32.9200	-12.8466	-1.9603	-0.5596	0.4340	-0.5024	-0.4960
5.42	-9.3782	0.1253	1.1851	-0.0098	0.0140	-0.0237	33.1533	-12.7737	-1.8710	-0.5596	0.4341	-0.5024	-0.4960
5.43	-9.3814	0.1235	1.1721	-0.0129	0.0116	-0.0191	32.8838	-12.5935	-1.8254	-0.5596	0.4341	-0.5025	-0.4960
5.44	-9.3798	0.1259	1.1733	-0.0113	0.0136	-0.0244	32.8080	-12.7147	-2.0609	-0.5595	0.4341	-0.5025	-0.4959
5.45	-9.3916	0.1247	1.1707	-0.0111	0.0146	-0.0291	32.8659	-12.8666	-1.9350	-0.5595	0.4342	-0.5025	-0.4958
5.46	-9.3890	0.1140	1.1595	-0.0113	0.0170	-0.0209	32.9184	-12.6075	-1.8871	-0.5595	0.4342	-0.5026	-0.4958
5.47	-9.4040	0.1172	1.1646	-0.0119	0.0210	-0.0290	33.0065	-12.3972	-1.7582	-0.5595	0.4343	-0.5026	-0.4957
5.48	-9.4301	0.1175	1.1582	-0.0189	0.0207	-0.0207	33.3793	-12.6437	-1.6535	-0.5594	0.4344	-0.5027	-0.4957
5.49	-9.4561	0.1129	1.1453	-0.0176	0.0197	-0.0303	33.6278	-12.5423	-1.6382	-0.5594	0.4345	-0.5027	-0.4956
5.5	-9.4556	0.1087	1.1395	-0.0144	0.0115	-0.0280	33.2336	-12.9192	-1.4167	-0.5594	0.4345	-0.5027	-0.4955
5.51	-9.4339	0.1014	1.1397	-0.0145	0.0099	-0.0289	32.8456	-13.3906	-1.6732	-0.5594	0.4346	-0.5027	-0.4955
5.52	-9.4509	0.0989	1.1488	-0.0169	0.0068	-0.0320	32.8199	-13.0799	-1.5844	-0.5594	0.4347	-0.5027	-0.4954
5.53	-9.4826	0.0838	1.1564	-0.0191	-0.0011	-0.0266	32.8366	-12.4404	-1.7041	-0.5594	0.4347	-0.5027	-0.4954
5.54	-9.4712	0.0730	1.1507	-0.0194	-0.0125	-0.0293	32.6955	-12.5842	-1.6767	-0.5594	0.4347	-0.5026	-0.4954
5.55	-9.4159	0.0596	1.1597	-0.0169	-0.0137	-0.0276	32.9469	-12.6353	-1.6204	-0.5595	0.4347	-0.5026	-0.4954
5.56	-9.3942	0.0595	1.1742	-0.0221	-0.0091	-0.0166	32.9281	-12.5286	-1.7264	-0.5595	0.4347	-0.5025	-0.4955
5.57	-9.3786	0.0705	1.1642	-0.0256	-0.0023	-0.0112	32.8129	-12.4828	-1.7893	-0.5594	0.4347	-0.5025	-0.4955
5.58	-9.3767	0.0853	1.1624	-0.0265	-0.0020	-0.0101	32.9052	-12.6142	-1.7660	-0.5594	0.4347	-0.5025	-0.4956
5.59	-9.3797	0.0893	1.1526	-0.0256	0.0014	-0.0136	33.0561	-12.8507	-1.7029	-0.5593	0.4348	-0.5025	-0.4956
5.6	-9.3859	0.0830	1.1466	-0.0128	0.0075	-0.0128	32.8613	-12.8750	-1.8352	-0.5593	0.4348	-0.5025	-0.4956
5.61	-9.3922	0.0650	1.1404	-0.0269	0.0022	-0.0178	32.8946	-12.6905	-1.6562	-0.5593	0.4348	-0.5025	-0.4956
5.62	-9.3960	0.0509	1.1337	-0.0161	-0.0043	-0.0145	32.9476	-13.0434	-1.8386	-0.5592	0.4348	-0.5025	-0.4957
5.63	-9.3983	0.0561	1.1431	-0.0093	-0.0008	-0.0183	32.9307	-12.7873	-1.7853	-0.5592	0.4348	-0.5025	-0.4957
5.64	-9.3993	0.0660	1.1434	-0.0058	-0.0050	-0.0194	33.0694	-12.5579	-1.7355	-0.5593	0.4348	-0.5025	-0.4956
5.65	-9.3944	0.0765	1.1543	-0.0054	-0.0007	-0.0185	33.1713	-12.8208	-1.8819	-0.5593	0.4347	-0.5025	-0.4956
5.66	-9.3953	0.0767	1.1579	-0.0014	-0.0057	-0.0171	32.8985	-12.7200	-1.5943	-0.5593	0.4347	-0.5026	-0.4956
5.67	-9.3917	0.0790	1.1548	-0.0038	-0.0041	-0.0147	32.8797	-12.7688	-1.7807	-0.5593	0.4346	-0.5026	-0.4956
5.68	-9.4007	0.0833	1.1524	-0.0035	-0.0004	-0.0172	32.8976	-12.6195	-1.8045	-0.5594	0.4346	-0.5026	-0.4956
5.69	-9.4269	0.0882	1.1561	-0.0147	0.0049	-0.0208	32.8473	-12.5836	-1.6146	-0.5594	0.4346	-0.5026	-0.4956
5.7	-9.4233	0.0870	1.1335	-0.0063	0.0054	-0.0135	32.7326	-12.7777	-1.6528	-0.5593	0.4346	-0.5027	-0.4955
5.71	-9.3868	0.0978	1.1358	0.0012	0.0033	-0.0167	32.5571	-12.5718	-1.6003	-0.5594	0.4346	-0.5027	-0.4955
5.72	-9.4133	0.1152	1.1477	-0.0076	0.0009	-0.0139	32.7506	-12.5523	-1.5397	-0.5594	0.4345	-0.5028	-0.4955
5.73	-9.4204	0.1029	1.1215	-0.0117	0.0044	-0.0216	32.8518	-12.5631	-1.8717	-0.5594	0.4346	-0.5028	-0.4955
5.74	-9.4068	0.0919	1.1334	-0.0108	-0.0005	-0.0169	32.8288	-12.5433	-1.7702	-0.5594	0.4346	-0.5028	-0.4955
5.75	-9.3924	0.0843	1.1217	-0.0070	-0.0032	-0.0137	32.8985	-12.5927	-1.4305	-0.5594	0.4345	-0.5028	-0.4955
5.76	-9.4002	0.0862	1.1416	-0.0110	-0.0078	-0.0098	32.6681	-12.6813	-1.4911	-0.5594	0.4345	-0.5028	-0.4955
5.77	-9.4258	0.1023	1.1454	-0.0087	-0.0084	-0.0117	32.7644	-12.5231	-1.7893	-0.5594	0.4344	-0.5029	-0.4955
5.78	-9.4149	0.1187	1.1431	-0.0041	-0.0108	-0.0105	33.0933	-12.7165	-1.6415	-0.5594	0.4344	-0.5029	-0.4955
5.79	-9.4117	0.1352	1.1653	0.0027	-0.0040	-0.0112	32.9945	-12.8789	-1.7334	-0.5594	0.4343	-0.5029	-0.4955
5.8	-9.4154	0.1352	1.1570	-0.0101	0.0014	-0.0155	33.0295	-12.6957	-1.8632	-0.5594	0.4343	-0.5029	-0.4955
5.81	-9.4088	0.1334	1.1451	-0.0096	-0.0062	-0.0184	33.1297	-12.8692	-1.6837	-0.5594	0.4342	-0.5029	-0.4955
5.82	-9.3952	0.1259	1.1529	-0.0085	-0.0028	-0.0174	33.0830	-12.7398	-1.7388	-0.5594	0.4342	-0.5030	-0.4955
5.83	-9.4043	0.1252	1.1445	-0.0003	-0.0005	-0.0182	32.9545	-12.7980	-1.7189	-0.5595	0.4342	-0.5030	-0.4955
5.84	-9.4113	0.1340	1.1415	-0.0030	0.0059	-0.0202	32.8235	-12.8300	-1.7166	-0.5595	0.4342	-0.5030	-0.4954
5.85	-9.4062	0.1363	1.1502	-0.0126	-0.0065	-0.0166	32.8799	-12.6025	-1.7488	-0.5595	0.4341	-0.5030	-0.4954
5.86	-9.4059	0.1314	1.1499	-0.0100	-0.0100	-0.0230	32.9363	-12.8372	-1.8509	-0.5595	0.4341	-0.5030	-0.4954
5.87	-9.4180	0.1301	1.1428	-0.0113	-0.0090	-0.0238	32.6587	-12.7670	-1.7330	-0.5596	0.4341	-0.5030	-0.4954
5.88	-9.4194	0.1218	1.1448	-0.0122	-0.0072	-0.0276	32.6554	-12.5035	-1.7122	-0.5596	0.4341	-0.5030	-0.4954
5.89	-9.4190	0.1113	1.1456	-0.0138	-0.0028	-0.0220	32.9767	-12.4918	-1.6278	-0.5596	0.4341	-0.5029	-0.4954
5.9	-9.4239	0.1082	1.1504	-0.0144	-0.0058	-0.0232	32.7931	-12.5849	-1.6277	-0.5596	0.4341	-0.5029	-0.4954
5.91	-9.4223	0.0997	1.1514	-0.0107	-0.0212	-0.0157	32.7409	-12.5326	-1.6641	-0.5597	0.4341	-0.5029	-0.4954
5.92	-9.4283	0.0950	1.1567	-0.0135	-0.0086	-0.0146	32.8657	-12.6864	-1.5808	-0.5597	0.4340	-0.5029	-0.4955
5.93	-9.4168	0.0918	1.1572	-0.0107	-0.0154	-0.0130	32.8520	-12.5825	-1.5907	-0.5597	0.4340	-0.5029	-0.4955
5.94	-9.4105	0.0947	1.1601	-0.0074	-0.0144	-0.0186	32.8169	-12.5405	-1.6342	-0.5598	0.4339	-0.5028	-0.4955
5.95	-9.3988	0.0967	1.1615	-0.0055	-0.0196	-0.0149	32.9896	-12.5689	-1.7592	-0.5598	0.4338	-0.5028	-0.4955
5.96	-9.3911	0.1086	1.1671	-0.0057	-0.0190	-0.0132	32.9671	-12.5430	-1.6609	-0.5599	0.4338	-0.5028	-0.4956
5.97	-9.3982	0.1167	1.1726	0.0019	-0.0179	-0.0119	33.0465	-12.7681	-1.7065	-0.5599	0.4337	-0.5028	-0.4956
5.98	-9.3955	0.1217	1.1766	0.0020	-0.0215	-0.0170	33.5184	-12.6225	-1.5832	-0.5600	0.4336	-0.5028	-0.4956
5.99	-9.3854	0.1235	1.1857	-0.0046	-0.0216	-0.0182	33.5876	-12.3407	-1.2309	-0.5601	0.4335	-0.5028	-0.4956
6	-9.3799	0.1290	1.1976	-0.0128	-0.0186	-0.0215	33.0713	-12.7686	-1.7242	-0.5601	0.4334	-0.5027	-0.4956
6.01	-9.3776	0.1320	1.2023	-0.0105	-0.0137	-0.0208	33.0381	-13.4689	-1.7125	-0.5602	0.4334	-0.5027	-0.4957
6.02	-9.3718	0.1377	1.1999	-0.0097	-0.0149	-0.0263	32.8862	-13.1732	-1.9734	-0.5602	0.4334	-0.5026	-0.4957
6.03	-9.3636	0.1364	1.2058	-0.0119	-0.0147	-0.0267	32.8327	-12.6580	-1.7145	-0.5603	0.4334	-0.5026	-0.4957
6.04	-9.3563	0.1324	1.2119	-0.0106	-0.0088	-0.0261	33.0022	-12.8538	-1.7200	-0.5603	0.4334	-0.5026	-0.4957
6.05	-9.3545	0.1305	1.2065	-0.0117	-0.0010	-0.0245	32.7435	-12.5888	-1.9775	-0.5603	0.4334	-0.5026	-0.4956
6.06	-9.3541	0.1291	1.2052	-0.0098	0.0025	-0.0284	32.6515	-12.7768	-1.9089	-0.5604	0.4334	-0.5026	-0.4956
6.07	-9.3521	0.1241	1.2044	-0.0175	0.0068	-0.0276	32.6658	-12.7134	-1.9321	-0.5604	0.4334	-0.5026	-0.4956
6.08	-9.3565	0.1202	1.1914	-0.0341	0.0068	-0.0208	32.9147	-12.7507	-1.7101	-0.5603	0.4335	-0.5025	-0.4956
6.09	-9.3608	0.1117	1.1934	-0.0192	0.0090	-0.0229	32.9375	-12.6393	-1.8577	-0.5603	0.4336	-0.5025	-0.4956
6.1	-9.3818	0.1025	1.1913	-0.0284	0.0094	-0.0262	32.9302	-12.7455	-1.9355	-0.5602	0.4336	-0.5025	-0.4955
6.11	-9.3995	0.0897	1.1808	-0.0347	0.0110	-0.0296	32.9119	-12.7433	-1.7514	-0.5602	0.4338	-0.5025	-0.4955
6.12	-9.3986	0.0804	1.1713	-0.0198	0.0054	-0.0286	33.0275	-12.6513	-1.7394	-0.5602	0.4338	-0.5025	-0.4955
6.13	-9.4034	0.0703	1.1736	-0.0154	0.0096	-0.0219	32.8258	-12.6395	-1.7582	-0.5601	0.4339	-0.5025	-0.4955
6.14	-9.4208	0.0791	1.1652	-0.0122	0.0177	-0.0191	32.7026	-12.6404	-1.5853	-0.5601	0.4339	-0.5025	-0.4954
6.15	-9.4223	0.0773	1.1497	-0.0112	0.0092	-0.0158	32.6237	-12.6843	-1.8117	-0.5601	0.4339	-0.5026	-0.4954
6.16	-9.4403	0.0781	1.1597	-0.0118	0.0021	-0.0239	32.8395	-12.8543	-1.8489	-0.5601	0.4340	-0.5026	-0.4954
6.17	-9.4351	0.0810	1.1509	-0.0114	0.0057	-0.0245	32.9638	-12.7810	-1.7209	-0.5601	0.4340	-0.5026	-0.4954
6.18	-9.4284	0.0838	1.1669	-0.0116	0.0034	-0.0236	33.0472	-12.8982	-1.9145	-0.5601	0.4340	-0.5026	-0.4953
6.19	-9.4732	0.0785	1.1830	-0.0111	-0.0005	-0.0316	32.9443	-12.8400	-1.9435	-0.5601	0.4340	-0.5026	-0.4953
6.2	-9.4661	0.0759	1.1619	-0.0076	-0.0135	-0.0308	32.8258	-12.8148	-1.8124	-0.5602	0.4340	-0.5026	-0.4953
6.21	-9.4420	0.0970	1.1874	-0.0051	-0.0172	-0.0229	32.7203	-12.8119	-1.8629	-0.5602	0.4340	-0.5025	-0.4953
6.22	-9.3558	0.0620	1.1653	-0.0077	-0.0212	-0.0133	33.0061	-12.8727	-1.7613	-0.5603	0.4339	-0.5025	-0.4953
6.23	-9.3899	0.1377	1.2018	0.0004	-0.0182	-0.0133	33.0177	-12.9347	-1.7268	-0.5604	0.4338	-0.5025	-0.4953
6.24	-9.3990	0.1021	1.1739	-0.0120	-0.0059	-0.0105	32.9332	-12.7817	-1.8511	-0.5604	0.4338	-0.5025	-0.4953
6.25	-9.3952	0.1342	1.1548	-0.0098	-0.0057	-0.0204	33.0319	-12.5566	-1.6880	-0.5604	0.4337	-0.5025	-0.4953
6.26	-9.3770	0.1298	1.1741	-0.0183	-0.0101	-0.0164	32.8001	-12.8367	-1.8521	-0.5604	0.4337	-0.5025	-0.4954
6.27	-9.3922	0.0767	1.1577	-0.0248	0.0004	-0.0210	32.9612	-12.7142	-1.7324	-0.5604	0.4338	-0.5024	-0.4954
6.28	-9.4100	0.0772	1.1377	-0.0295	0.0024	-0.0239	32.7801	-12.5299	-1.7584	-0.5603	0.4338	-0.5024	-0.4954
6.29	-9.4012	0.0637	1.1590	-0.0159	-0.0105	-0.0186	32.9389	-12.9228	-1.7195	-0.5603	0.4338	-0.5024	-0.4954
6.3	-9.4137	0.0586	1.1590	-0.0121	-0.0026	-0.0200	32.8424	-12.8449	-1.8366	-0.5603	0.4338	-0.5024	-0.4954
6.31	-9.4165	0.0661	1.1540	-0.0079	-0.0167	-0.0206	32.7514	-12.5900	-1.7419	-0.5604	0.4338	-0.5023	-0.4954
6.32	-9.4003	0.0627	1.1588	-0.0039	-0.0163	-0.0266	32.8598	-12.7128	-1.5841	-0.5605	0.4337	-0.5023	-0.4954
6.33	-9.3988	0.0713	1.1600	-0.0041	-0.0160	-0.0164	32.8774	-12.6817	-1.5738	-0.5605	0.4337	-0.5023	-0.4954
6.34	-9.4000	0.0752	1.1483	0.0042	-0.0144	-0.0203	33.0532	-12.6129	-1.9776	-0.5606	0.4336	-0.5023	-0.4954
6.35	-9.4268	0.0801	1.1627	0.0106	-0.0031	-0.0248	32.9932	-12.6811	-1.8899	-0.5607	0.4335	-0.5023	-0.4953
6.36	-9.4383	0.0924	1.1459	0.0060	-0.0080	-0.0258	33.0538	-12.7496	-1.8357	-0.5607	0.4335	-0.5024	-0.4953
6.37	-9.4170	0.1151	1.1527	0.0117	-0.0159	-0.0220	32.9197	-12.7151	-2.0837	-0.5608	0.4334	-0.5024	-0.4952
6.38	-9.4280	0.1388	1.1606	0.0028	-0.0094	-0.0156	32.9428	-12.8453	-1.7537	-0.5609	0.4333	-0.5024	-0.4952
6.39	-9.4239	0.1343	1.1537	-0.0092	-0.0092	-0.0247	33.0338	-12.6589	-1.9502	-0.5609	0.4333	-0.5024	-0.4952
6.4	-9.4243	0.1372	1.1553	-0.0064	-0.0177	-0.0228	33.0279	-12.6489	-2.0018	-0.5610	0.4332	-0.5024	-0.4952
6.41	-9.3967	0.1265	1.1513	-0.0099	-0.0226	-0.0193	32.9333	-12.6340	-1.8026	-0.5611	0.4332	-0.5023	-0.4953
6.42	-9.4110	0.1216	1.1741	-0.0133	-0.0213	-0.0144	32.8222	-12.5639	-1.9735	-0.5611	0.4331	-0.5023	-0.4953
6.43	-9.4202	0.1295	1.1632	-0.0156	-0.0197	-0.0127	32.8400	-12.6705	-1.5461	-0.5611	0.4330	-0.5022	-0.4954
6.44	-9.4130	0.1268	1.1749	-0.0185	-0.0241	-0.0175	32.9001	-12.6290	-1.6896	-0.5612	0.4330	-0.5022	-0.4954
6.45	-9.4107	0.1278	1.1850	-0.0183	-0.0278	-0.0206	32.9712	-12.6562	-1.9870	-0.5612	0.4330	-0.5021	-0.4955
6.46	-9.4069	0.1176	1.1870	-0.0256	-0.0175	-0.0246	32.7314	-12.5129	-1.8800	-0.5612	0.4330	-0.5020	-0.4955
6.47	-9.3937	0.1199	1.1891	-0.0172	-0.0213	-0.0294	32.6837	-12.6058	-1.8306	-0.5613	0.4329	-0.5019	-0.4956
6.48	-9.3700	0.1028	1.1950	-0.0292	-0.0227	-0.0317	33.2977	-12.4487	-1.8457	-0.5614	0.4330	-0.5018	-0.4956
6.49	-9.3724	0.0951	1.1970	-0.0240	-0.0188	-0.0295	33.6568	-12.1630	-1.7812	-0.5614	0.4330	-0.5017	-0.4957
6.5	-9.3690	0.1026	1.1926	-0.0091	-0.0074	-0.0308	33.1111	-12.7596	-1.8470	-0.5615	0.4330	-0.5016	-0.4956
6.51	-9.3900	0.1086	1.1985	-0.0188	-0.0023	-0.0307	32.6754	-13.4040	-1.9095	-0.5615	0.4330	-0.5016	-0.4956
6.52	-9.3850	0.0972	1.1848	-0.0185	-0.0134	-0.0333	32.6189	-13.0792	-2.1426	-0.5615	0.4330	-0.5015	-0.4956
6.53	-9.3838	0.0860	1.1901	-0.0244	-0.0111	-0.0269	33.0918	-12.8131	-1.8142	-0.5616	0.4331	-0.5015	-0.4956
6.54	-9.4145	0.0847	1.1889	-0.0301	-0.0064	-0.0272	32.8848	-12.6934	-1.9327	-0.5616	0.4331	-0.5014	-0.4956
6.55	-9.4124	0.0691	1.1684	-0.0306	-0.0079	-0.0225	32.9182	-12.7878	-2.1596	-0.5615	0.4332	-0.5013	-0.4957
6.56	-9.4092	0.0611	1.1782	-0.0248	-0.0112	-0.0243	33.0483	-12.8350	-1.9644	-0.5615	0.4332	-0.5013	-0.4957
6.57	-9.4223	0.0564	1.1722	-0.0326	-0.0119	-0.0165	32.9141	-12.7145	-1.9403	-0.5615	0.4332	-0.5012	-0.4958
6.58	-9.4350	0.0442	1.1628	-0.0181	-0.0106	-0.0144	32.9283	-12.6903	-2.1285	-0.5615	0.4332	-0.5012	-0.4958
6.59	-9.4424	0.0467	1.1753	-0.0254	-0.0157	-0.0120	32.6239	-12.6259	-2.0323	-0.5615	0.4332	-0.5011	-0.4959
6.6	-9.4440	0.0508	1.1727	-0.0178	-0.0175	-0.0137	32.9564	-12.7763	-1.8768	-0.5615	0.4331	-0.5011	-0.4960
6.61	-9.4339	0.0455	1.1864	-0.0087	-0.0203	-0.0104	32.8690	-12.6938	-2.0108	-0.5616	0.4331	-0.5011	-0.4960
6.62	-9.4228	0.0489	1.1835	-0.0112	-0.0269	-0.0129	32.6189	-12.5476	-2.0150	-0.5616	0.4330	-0.5010	-0.4961
6.63	-9.4054	0.0586	1.1903	-0.0095	-0.0201	-0.0128	32.8375	-12.5913	-2.0589	-0.5617	0.4329	-0.5010	-0.4961
6.64	-9.4051	0.0704	1.2056	-0.0092	-0.0162	-0.0088	32.6634	-12.3649	-1.9486	-0.5617	0.4328	-0.5010	-0.4962
6.65	-9.3961	0.0789	1.2059	0.0017	-0.0214	-0.0111	32.8197	-12.5253	-2.0445	-0.5617	0.4327	-0.5010	-0.4962
6.66	-9.3872	0.0847	1.2177	-0.0045	-0.0138	-0.0154	32.8620	-12.5677	-2.2388	-0.5618	0.4327	-0.5010	-0.4962
6.67	-9.3849	0.1022	1.2304	-0.0039	-0.0233	-0.0130	32.7786	-12.5924	-2.0985	-0.5618	0.4326	-0.5009	-0.4963
6.68	-9.3883	0.1109	1.2258	-0.0113	-0.0217	-0.0174	32.8391	-12.6256	-2.0833	-0.5619	0.4325	-0.5009	-0.4963
6.69	-9.3777	0.1155	1.2292	-0.0091	-0.0209	-0.0100	32.7362	-12.5388	-1.9872	-0.5619	0.4324	-0.5009	-0.4964
6.7	-9.3663	0.1196	1.2475	-0.0037	-0.0248	-0.0128	32.7786	-12.5581	-2.1401	-0.5620	0.4323	-0.5009	-0.4964
6.71	-9.3608	0.1116	1.2464	-0.0140	-0.0227	-0.0133	32.7751	-12.8586	-2.2405	-0.5620	0.4322	-0.5008	-0.4965
6.72	-9.3568	0.1048	1.2478	-0.0119	-0.0213	-0.0144	32.9250	-12.8911	-2.1139	-0.5621	0.4322	-0.5008	-0.4965
6.73	-9.3654	0.0930	1.2456	-0.0112	-0.0177	-0.0119	33.0397	-12.7140	-2.1915	-0.5621	0.4321	-0.5007	-0.4966
6.74	-9.3678	0.0889	1.2457	-0.0094	-0.0155	-0.0120	33.0240	-12.8426	-2.2122	-0.5621	0.4321	-0.5007	-0.4966
6.75	-9.3655	0.0861	1.2481	-0.0140	-0.0161	-0.0182	32.7521	-12.8405	-2.1965	-0.5622	0.4320	-0.5007	-0.4966
6.76	-9.3771	0.0875	1.2444	-0.0133	-0.0141	-0.0108	33.0644	-12.7520	-2.2060	-0.5622	0.4320	-0.5007	-0.4967
6.77	-9.3865	0.0913	1.2376	-0.0130	-0.0093	-0.0092	32.8286	-12.7265	-2.2110	-0.5622	0.4319	-0.5007	-0.4967
6.78	-9.3965	0.0807	1.2499	-0.0148	-0.0148	-0.0106	32.8821	-13.0966	-2.0546	-0.5622	0.4319	-0.5007	-0.4968
6.79	-9.3936	0.0829	1.2367	-0.0175	-0.0189	-0.0125	32.7770	-12.5152	-1.8019	-0.5622	0.4318	-0.5006	-0.4968
6.8	-9.3747	0.0777	1.2502	-0.0177	-0.0208	-0.0139	32.8414	-12.7682	-2.0083	-0.5622	0.4318	-0.5006	-0.4969
6.81	-9.3831	0.0879	1.2521	-0.0118	-0.0128	-0.0100	32.8604	-12.5859	-2.0430	-0.5622	0.4317	-0.5006	-0.4970
6.82	-9.3821	0.0808	1.2412	-0.0149	-0.0065	-0.0158	32.7273	-12.4976	-2.1520	-0.5622	0.4317	-0.5006	-0.4970
6.83	-9.3824	0.0776	1.2403	-0.0078	-0.0061	-0.0159	32.8061	-12.5299	-2.0398	-0.5622	0.4317	-0.5006	-0.4970
6.84	-9.3784	0.0810	1.2491	-0.0116	-0.0113	-0.0182	32.6515	-12.4431	-2.0842	-0.5623	0.4316	-0.5005	-0.4970
6.85	-9.4149	0.0766	1.2693	-0.0076	-0.0049	-0.0142	32.7069	-12.6080	-2.3048	-0.5623	0.4316	-0.5006	-0.4970
6.86	-9.4396	0.0703	1.2680	-0.0079	-0.0127	-0.0163	32.7942	-12.7042	-2.1951	-0.5623	0.4315	-0.5006	-0.4970
6.87	-9.4198	0.0663	1.2624	-0.0027	-0.0171	-0.0164	32.7311	-12.4616	-2.0705	-0.5624	0.4315	-0.5005	-0.4970
6.88	-9.3857	0.0787	1.2758	0.0085	-0.0159	-0.0098	32.9955	-12.5945	-2.2489	-0.5624	0.4314	-0.5006	-0.4970
6.89	-9.3685	0.0834	1.2903	0.0099	-0.0192	-0.0099	32.8903	-12.6376	-2.1740	-0.5625	0.4312	-0.5006	-0.4970
6.9	-9.3627	0.0998	1.2764	0.0102	-0.0170	-0.0089	32.8475	-12.7417	-2.0219	-0.5626	0.4311	-0.5006	-0.4970
6.91	-9.3441	0.1316	1.2765	0.0123	-0.0116	-0.0076	32.8469	-12.6210	-2.0944	-0.5626	0.4310	-0.5007	-0.4970
6.92	-9.3340	0.1549	1.2801	0.0069	-0.0080	-0.0097	32.9856	-12.9301	-2.2544	-0.5626	0.4309	-0.5008	-0.4970
6.93	-9.3481	0.1547	1.2710	-0.0036	0.0022	-0.0099	32.8646	-12.9576	-2.1151	-0.5626	0.4308	-0.5008	-0.4970
6.94	-9.3573	0.1403	1.2512	-0.0099	0.0082	-0.0149	32.9174	-12.9776	-2.1658	-0.5626	0.4308	-0.5009	-0.4970
6.95	-9.3583	0.1376	1.2549	-0.0093	0.0080	-0.0160	32.9624	-12.9200	-2.3221	-0.5626	0.4308	-0.5009	-0.4970
6.96	-9.3822	0.1455	1.2608	-0.0078	0.0052	-0.0149	32.7998	-12.6805	-2.1432	-0.5626	0.4308	-0.5010	-0.4969
6.97	-9.4117	0.1517	1.2544	-0.0111	0.0066	-0.0151	32.9546	-12.7454	-2.0777	-0.5625	0.4308	-0.5010	-0.4969
6.98	-9.4116	0.1457	1.2575	-0.0116	0.0082	-0.0130	33.2907	-12.4999	-1.8353	-0.5625	0.4308	-0.5011	-0.4969
6.99	-9.3977	0.1480	1.2574	-0.0113	0.0022	-0.0132	33.6762	-12.4031	-1.6608	-0.5625	0.4308	-0.5011	-0.4969
7	-9.3831	0.1421	1.2590	-0.0120	0.0081	-0.0234	33.1930	-12.7295	-1.7718	-0.5625	0.4308	-0.5011	-0.4969
7.01	-9.4038	0.1402	1.2508	-0.0120	0.0103	-0.0224	33.1073	-13.5322	-1.9654	-0.5624	0.4309	-0.5011	-0.4968
7.02	-9.4038	0.1346	1.2558	-0.0090	0.0116	-0.0266	33.0379	-13.3480	-1.8785	-0.5624	0.4309	-0.5012	-0.4968
7.03	-9.4083	0.1304	1.2486	-0.0170	0.0066	-0.0224	33.0050	-12.4457	-1.9903	-0.5624	0.4310	-0.5012	-0.4968
7.04	-9.3814	0.1233	1.2431	-0.0131	0.0108	-0.0254	32.9405	-12.7148	-1.9823	-0.5624	0.4310	-0.5012	-0.4967
7.05	-9.3798	0.1258	1.2519	-0.0233	0.0120	-0.0248	32.9014	-12.5710	-1.8971	-0.5624	0.4311	-0.5012	-0.4967
7.06	-9.3908	0.1111	1.2416	-0.0291	0.0101	-0.0236	32.8977	-12.7694	-2.0561	-0.5623	0.4312	-0.5012	-0.4967
7.07	-9.3850	0.0988	1.2362	-0.0193	0.0122	-0.0200	32.8016	-12.6787	-1.9920	-0.5623	0.4312	-0.5012	-0.4967
7.08	-9.3677	0.0831	1.2456	-0.0149	0.0097	-0.0169	32.8092	-12.7627	-1.8259	-0.5622	0.4313	-0.5013	-0.4966
7.09	-9.3946	0.0758	1.2523	-0.0122	0.0092	-0.0160	32.9129	-12.5889	-1.9308	-0.5622	0.4313	-0.5013	-0.4966
7.1	-9.3748	0.0715	1.2399	-0.0176	0.0027	-0.0141	33.1275	-12.5692	-2.0568	-0.5622	0.4313	-0.5013	-0.4966
7.11	-9.3690	0.0852	1.2591	-0.0102	0.0087	-0.0136	32.8862	-12.8103	-2.3540	-0.5621	0.4313	-0.5014	-0.4966
7.12	-9.3842	0.1013	1.2562	-0.0088	0.0078	-0.0138	32.9837	-12.8171	-2.0567	-0.5621	0.4313	-0.5014	-0.4966
7.13	-9.3837	0.1069	1.2554	-0.0108	0.0070	-0.0151	33.0244	-12.7727	-1.7890	-0.5621	0.4313	-0.5015	-0.4966
7.14	-9.3834	0.1114	1.2459	-0.0117	0.0123	-0.0203	32.8003	-12.7435	-1.8650	-0.5620	0.4313	-0.5015	-0.4965
7.15	-9.3823	0.1239	1.2352	-0.0092	0.0113	-0.0195	32.7270	-12.7948	-2.0335	-0.5620	0.4314	-0.5016	-0.4965
7.16	-9.3856	0.1266	1.2396	-0.0097	0.0092	-0.0182	33.0524	-12.5726	-1.9235	-0.5620	0.4314	-0.5016	-0.4965
7.17	-9.4055	0.1307	1.2311	-0.0141	0.0141	-0.0185	32.8375	-12.8972	-1.9438	-0.5619	0.4314	-0.5016	-0.4964
7.18	-9.3971	0.1266	1.2214	-0.0095	0.0228	-0.0229	32.8533	-12.6772	-2.0476	-0.5619	0.4315	-0.5017	-0.4964
7.19	-9.4188	0.1269	1.2264	-0.0145	0.0153	-0.0259	32.9520	-12.6126	-2.0204	-0.5619	0.4316	-0.5018	-0.4963
7.2	-9.4365	0.1213	1.2042	-0.0097	0.0152	-0.0254	32.7778	-12.6323	-1.9295	-0.5618	0.4316	-0.5018	-0.4962
7.21	-9.4526	0.1104	1.1995	-0.0233	0.0140	-0.0235	32.8699	-12.6441	-1.9309	-0.5618	0.4317	-0.5018	-0.4962
7.22	-9.4564	0.1071	1.1891	-0.0293	0.0103	-0.0227	32.9158	-12.7684	-1.9196	-0.5617	0.4318	-0.5018	-0.4962
7.23	-9.4526	0.0868	1.1988	-0.0173	-0.0005	-0.0247	32.9076	-12.5992	-2.0105	-0.5617	0.4318	-0.5018	-0.4962
7.24	-9.4542	0.0810	1.1975	-0.0235	-0.0138	-0.0214	33.0029	-12.6641	-2.0483	-0.5617	0.4318	-0.5017	-0.4962
7.25	-9.4402	0.0746	1.1966	-0.0117	-0.0099	-0.0159	33.0199	-12.5557	-1.9697	-0.5618	0.4318	-0.5017	-0.4963
7.26	-9.4430	0.0632	1.2094	-0.0100	-0.0161	-0.0126	32.9155	-12.6006	-1.9175	-0.5618	0.4317	-0.5017	-0.4963
7.27	-9.4304	0.0636	1.2034	-0.0053	-0.0240	-0.0115	32.9088	-12.6441	-1.9407	-0.5618	0.4316	-0.5017	-0.4963
7.28	-9.3932	0.0657	1.2265	-0.0099	-0.0209	-0.0141	33.1350	-12.6203	-1.7988	-0.5619	0.4316	-0.5016	-0.4964
7.29	-9.3807	0.0861	1.2424	0.0070	-0.0201	-0.0083	33.0652	-12.6215	-1.8928	-0.5619	0.4314	-0.5017	-0.4964
7.3	-9.3644	0.0945	1.2317	0.0101	-0.0166	-0.0115	33.1059	-12.6873	-2.0273	-0.5620	0.4313	-0.5017	-0.4964
7.31	-9.3651	0.1118	1.2535	0.0071	-0.0185	-0.0103	32.9746	-12.9447	-2.0135	-0.5621	0.4312	-0.5017	-0.4964
7.32	-9.3993	0.1377	1.2633	0.0008	-0.0160	-0.0132	32.8555	-12.8387	-2.0216	-0.5621	0.4311	-0.5017	-0.4964
7.33	-9.4166	0.1302	1.2463	-0.0056	-0.0170	-0.0121	32.7906	-12.7896	-2.0153	-0.5622	0.4310	-0.5017	-0.4965
7.34	-9.4131	0.1396	1.2410	-0.0041	-0.0154	-0.0208	32.9144	-12.8195	-2.0285	-0.5622	0.4310	-0.5017	-0.4965
7.35	-9.3991	0.1389	1.2515	-0.0077	-0.0200	-0.0179	33.0261	-12.7848	-1.9997	-0.5623	0.4309	-0.5017	-0.4965
7.36	-9.4008	0.1485	1.2538	-0.0052	-0.0222	-0.0131	32.7686	-12.6631	-1.8881	-0.5623	0.4308	-0.5017	-0.4965
7.37	-9.3773	0.1347	1.2500	-0.0117	-0.0193	-0.0108	32.7066	-12.5427	-2.0325	-0.5624	0.4307	-0.5016	-0.4966
7.38	-9.3745	0.1501	1.2373	-0.0104	-0.0262	-0.0096	32.8408	-12.5369	-2.0247	-0.5624	0.4307	-0.5016	-0.4966
7.39	-9.3629	0.1631	1.2436	-0.0104	-0.0282	-0.0103	32.6815	-12.6902	-2.0267	-0.5624	0.4306	-0.5015	-0.4967
7.4	-9.3923	0.1571	1.2461	-0.0136	-0.0164	-0.0106	33.0182	-12.7295	-2.0088	-0.5625	0.4305	-0.5015	-0.4968
7.41	-9.3986	0.1449	1.2318	-0.0131	-0.0219	-0.0153	32.8958	-12.7062	-2.1087	-0.5625	0.4304	-0.5015	-0.4968
7.42	-9.3946	0.1331	1.2460	-0.0152	-0.0175	-0.0198	32.8223	-12.7337	-2.1295	-0.5625	0.4304	-0.5014	-0.4969
7.43	-9.4098	0.1274	1.2558	-0.0141	-0.0171	-0.0227	32.9363	-12.8468	-1.9072	-0.5626	0.4304	-0.5014	-0.4969
7.44	-9.4496	0.1368	1.2518	-0.0134	-0.0203	-0.0215	32.8946	-12.7118	-2.0173	-0.5626	0.4303	-0.5013	-0.4969
7.45	-9.4385	0.1488	1.2475	-0.0166	-0.0331	-0.0182	32.9202	-12.7246	-2.0968	-0.5627	0.4303	-0.5012	-0.4970
7.46	-9.4065	0.1492	1.2655	-0.0108	-0.0326	-0.0206	32.6443	-12.7103	-2.1793	-0.5628	0.4302	-0.5011	-0.4971
7.47	-9.4020	0.1449	1.2651	-0.0174	-0.0361	-0.0178	33.0823	-12.9357	-1.9042	-0.5629	0.4301	-0.5010	-0.4971
7.48	-9.3980	0.1369	1.2711	-0.0182	-0.0372	-0.0212	33.4269	-12.7150	-1.7944	-0.5629	0.4300	-0.5009	-0.4972
7.49	-9.4062	0.1226	1.2856	-0.0251	-0.0358	-0.0255	33.8418	-12.2895	-1.9987	-0.5630	0.4300	-0.5008	-0.4973
7.5	-9.4279	0.1168	1.3012	-0.0203	-0.0306	-0.0272	33.2653	-12.9281	-2.0787	-0.5631	0.4300	-0.5007	-0.4974
7.51	-9.4083	0.1104	1.2947	-0.0202	-0.0348	-0.0263	32.8434	-13.7547	-2.1598	-0.5632	0.4299	-0.5006	-0.4974
7.52	-9.3350	0.1020	1.2862	-0.0165	-0.0460	-0.0225	32.9427	-13.4500	-2.0563	-0.5633	0.4298	-0.5004	-0.4975
7.53	-9.3449	0.1135	1.3248	-0.0103	-0.0317	-0.0142	32.8492	-12.6416	-2.2574	-0.5634	0.4297	-0.5003	-0.4976
7.54	-9.3335	0.1321	1.2949	-0.0113	-0.0200	-0.0095	32.8762	-12.9589	-2.1204	-0.5634	0.4297	-0.5003	-0.4976
7.55	-9.3153	0.1544	1.3163	-0.0099	-0.0200	-0.0139	32.8786	-12.8147	-2.0855	-0.5634	0.4296	-0.5003	-0.4977
7.56	-9.3320	0.1575	1.3185	-0.0138	-0.0092	-0.0100	32.8480	-12.7109	-2.2346	-0.5634	0.4296	-0.5003	-0.4977
7.57	-9.3618	0.1627	1.3210	-0.0169	0.0029	-0.0146	32.7915	-12.6226	-2.1647	-0.5634	0.4296	-0.5003	-0.4978
7.58	-9.4424	0.1409	1.3077	-0.0310	0.0089	-0.0108	32.9351	-12.6546	-2.3023	-0.5633	0.4296	-0.5003	-0.4978
7.59	-9.4082	0.1107	1.2463	-0.0290	-0.0090	-0.0260	32.6610	-12.6303	-2.1999	-0.5633	0.4297	-0.5002	-0.4978
7.6	-9.4421	0.1585	1.3176	-0.0209	-0.0193	-0.0235	32.7112	-12.8841	-2.0894	-0.5634	0.4296	-0.5002	-0.4979
7.61	-9.4391	0.0956	1.2934	-0.0297	-0.0201	-0.0316	32.8516	-12.5590	-2.2949	-0.5634	0.4297	-0.5001	-0.4979
7.62	-9.4414	0.1324	1.2859	-0.0155	-0.0288	-0.0322	32.8975	-12.6333	-2.2968	-0.5635	0.4297	-0.4999	-0.4979
7.63	-9.4237	0.1209	1.3154	-0.0155	-0.0400	-0.0332	32.7490	-12.6414	-2.2914	-0.5636	0.4296	-0.4998	-0.4980
7.64	-9.4217	0.1165	1.2926	-0.0095	-0.0369	-0.0355	32.9620	-12.6789	-2.3019	-0.5637	0.4295	-0.4997	-0.4980
7.65	-9.4528	0.1090	1.3225	-0.0147	-0.0410	-0.0350	32.9162	-12.9586	-2.2654	-0.5639	0.4295	-0.4995	-0.4980
7.66	-9.4803	0.0973	1.2943	-0.0237	-0.0394	-0.0355	33.1771	-12.7945	-2.3930	-0.5640	0.4295	-0.4994	-0.4981
7.67	-9.3904	0.1035	1.2835	-0.0139	-0.0550	-0.0353	32.9727	-12.6325	-2.3709	-0.5641	0.4294	-0.4992	-0.4982
7.68	-9.4123	0.1050	1.3505	-0.0205	-0.0529	-0.0373	32.8779	-12.9472	-2.2505	-0.5643	0.4293	-0.4990	-0.4982
7.69	-9.4417	0.0965	1.3258	-0.0189	-0.0512	-0.0305	33.0103	-12.8140	-2.3299	-0.5645	0.4292	-0.4988	-0.4983
7.7	-9.3832	0.0965	1.3045	-0.0175	-0.0615	-0.0330	32.8416	-12.8320	-2.1466	-0.5646	0.4291	-0.4986	-0.4984
7.71	-9.3046	0.0844	1.3655	-0.0169	-0.0630	-0.0262	32.7557	-12.6651	-2.4138	-0.5648	0.4290	-0.4984	-0.4985
7.72	-9.3636	0.0741	1.3832	-0.0256	-0.0497	-0.0219	32.8504	-12.6790	-2.4567	-0.5649	0.4289	-0.4982	-0.4987
7.73	-9.3750	0.0367	1.3493	-0.0335	-0.0452	-0.0219	32.8741	-12.8463	-2.2658	-0.5650	0.4289	-0.4981	-0.4988
7.74	-9.3375	0.0704	1.3569	-0.0174	-0.0530	-0.0102	32.9845	-12.7025	-2.2963	-0.5651	0.4288	-0.4979	-0.4990
7.75	-9.2940	0.0912	1.3881	-0.0116	-0.0573	-0.0178	32.9219	-12.4414	-2.3176	-0.5652	0.4286	-0.4978	-0.4991
7.76	-9.2951	0.0768	1.3951	-0.0152	-0.0425	-0.0132	32.8414	-12.6061	-2.4990	-0.5653	0.4285	-0.4977	-0.4992
7.77	-9.3098	0.0801	1.3904	-0.0141	-0.0304	-0.0199	32.9081	-12.6808	-2.3801	-0.5654	0.4284	-0.4976	-0.4992
7.78	-9.2981	0.0926	1.3963	-0.0112	-0.0259	-0.0110	32.6970	-12.6029	-2.3809	-0.5654	0.4283	-0.4975	-0.4993
7.79	-9.3707	0.0935	1.4323	-0.0107	-0.0181	-0.0160	32.7583	-12.5369	-2.4083	-0.5654	0.4283	-0.4975	-0.4993
7.8	-9.3769	0.0638	1.3555	-0.0122	-0.0128	-0.0193	32.7821	-12.6311	-2.3503	-0.5655	0.4282	-0.4975	-0.4994
7.81	-9.3667	0.0879	1.3936	-0.0032	-0.0258	-0.0222	32.8102	-12.6772	-2.5473	-0.5655	0.4282	-0.4974	-0.4994
7.82	-9.4183	0.1241	1.3996	0.0060	-0.0202	-0.0231	32.5540	-12.7171	-2.5098	-0.5657	0.4281	-0.4974	-0.4994
7.83	-9.3600	0.0898	1.3554	-0.0057	-0.0230	-0.0156	32.6122	-12.3797	-2.5516	-0.5657	0.4280	-0.4974	-0.4994
7.84	-9.3093	0.1081	1.3816	0.0054	-0.0245	-0.0156	32.8298	-12.8004	-2.5644	-0.5658	0.4279	-0.4974	-0.4994
7.85	-9.2601	0.0994	1.3692	0.0045	-0.0180	-0.0208	32.7526	-12.6614	-2.6113	-0.5659	0.4278	-0.4974	-0.4994
7.86	-9.2719	0.1070	1.3906	0.0027	-0.0087	-0.0212	32.9977	-12.9099	-2.6225	-0.5659	0.4277	-0.4974	-0.4994
7.87	-9.3266	0.1177	1.4004	-0.0030	0.0107	-0.0146	33.1583	-13.0368	-2.5380	-0.5659	0.4277	-0.4975	-0.4993
7.88	-9.3471	0.1185	1.3816	-0.0115	0.0059	-0.0172	32.9301	-12.8970	-2.5664	-0.5659	0.4277	-0.4975	-0.4993
7.89	-9.3449	0.1085	1.3919	-0.0099	0.0090	-0.0146	33.2502	-12.7345	-2.4528	-0.5659	0.4277	-0.4975	-0.4993
7.9	-9.3967	0.1222	1.4054	-0.0076	0.0139	-0.0086	32.9178	-12.6101	-2.4508	-0.5658	0.4277	-0.4976	-0.4993
7.91	-9.3955	0.1207	1.3790	-0.0131	0.0141	-0.0115	32.8425	-12.6570	-2.2511	-0.5658	0.4277	-0.4977	-0.4993
7.92	-9.3408	0.1095	1.3796	-0.0116	0.0111	-0.0093	32.8952	-12.6504	-2.4486	-0.5657	0.4277	-0.4977	-0.4993
7.93	-9.3487	0.1067	1.3991	-0.0092	0.0182	-0.0094	33.1912	-12.6004	-2.2950	-0.5656	0.4278	-0.4978	-0.4992
7.94	-9.3860	0.1172	1.3818	-0.0123	0.0241	-0.0088	33.2206	-12.5288	-2.3625	-0.5656	0.4278	-0.4979	-0.4992
7.95	-9.3855	0.1385	1.3770	-0.0104	0.0131	-0.0092	32.7990	-12.5752	-2.4978	-0.5655	0.4278	-0.4980	-0.4992
7.96	-9.3574	0.1347	1.3931	-0.0193	0.0111	-0.0095	32.6866	-12.5505	-2.3493	-0.5654	0.4278	-0.4981	-0.4992
7.97	-9.3815	0.1390	1.3955	-0.0181	0.0160	-0.0106	32.8915	-12.7342	-2.2102	-0.5654	0.4279	-0.4981	-0.4992
7.98	-9.3777	0.1304	1.3707	-0.0303	0.0137	-0.0146	33.2132	-12.4196	-2.2084	-0.5653	0.4279	-0.4981	-0.4992
7.99	-9.3560	0.1135	1.3803	-0.0191	0.0160	-0.0145	33.7054	-12.2046	-2.2191	-0.5652	0.4280	-0.4982	-0.4992
8	-9.3772	0.1198	1.3845	-0.0183	0.0195	-0.0129	33.2544	-12.9593	-2.3209	-0.5651	0.4280	-0.4982	-0.4992
8.01	-9.4241	0.1059	1.3703	-0.0240	0.0115	-0.0086	33.0217	-13.4757	-2.4263	-0.5650	0.4281	-0.4983	-0.4992
8.02	-9.3566	0.0854	1.3499	-0.0175	-0.0004	-0.0117	32.8429	-13.1385	-2.4708	-0.5650	0.4281	-0.4983	-0.4992
8.03	-9.3730	0.0998	1.4055	-0.0116	0.0018	-0.0116	32.9228	-12.5561	-2.4837	-0.5650	0.4281	-0.4983	-0.4993
8.04	-9.3973	0.0725	1.3536	-0.0170	0.0052	-0.0182	33.2259	-12.9237	-2.3103	-0.5649	0.4281	-0.4983	-0.4992
8.05	-9.3827	0.0668	1.3537	-0.0100	0.0049	-0.0168	32.9710	-12.6621	-2.2710	-0.5649	0.4281	-0.4984	-0.4992
8.06	-9.3787	0.0828	1.3474	-0.0125	0.0042	-0.0141	32.9105	-12.8493	-2.5492	-0.5649	0.4281	-0.4984	-0.4992
8.07	-9.3667	0.0703	1.3397	-0.0043	0.0127	-0.0126	32.9810	-12.7871	-2.5473	-0.5649	0.4281	-0.4985	-0.4992
8.08	-9.3675	0.0718	1.3294	-0.0044	0.0092	-0.0118	33.0680	-12.8248	-2.4460	-0.5648	0.4281	-0.4985	-0.4992
8.09	-9.3998	0.0757	1.3471	-0.0021	0.0038	-0.0103	32.9895	-12.7225	-2.5994	-0.5648	0.4280	-0.4986	-0.4992
8.1	-9.4316	0.0842	1.3444	0.0015	0.0148	-0.0095	32.7664	-12.6958	-2.4550	-0.5648	0.4280	-0.4987	-0.4991
8.11	-9.4205	0.0885	1.3364	0.0060	0.0082	-0.0134	32.9968	-12.6201	-2.5178	-0.5648	0.4280	-0.4988	-0.4991
8.12	-9.4267	0.0955	1.3458	0.0002	-0.0074	-0.0114	32.9798	-12.9308	-2.4029	-0.5648	0.4279	-0.4989	-0.4991
8.13	-9.3891	0.0900	1.3334	0.0068	-0.0056	-0.0081	32.9881	-12.6795	-2.2794	-0.5648	0.4278	-0.4989	-0.4990
8.14	-9.3879	0.1217	1.3575	0.0074	-0.0086	-0.0086	32.8477	-12.7516	-2.3325	-0.5649	0.4277	-0.4990	-0.4990
8.15	-9.3881	0.1406	1.3428	-0.0009	0.0039	-0.0101	32.7674	-12.6385	-2.4504	-0.5649	0.4276	-0.4990	-0.4990
8.16	-9.3870	0.1536	1.3395	0.0129	0.0039	-0.0073	32.9315	-12.7042	-2.2607	-0.5649	0.4276	-0.4991	-0.4990
8.17	-9.3826	0.1648	1.3289	0.0103	-0.0004	-0.0074	32.8456	-12.7392	-2.3621	-0.5649	0.4275	-0.4992	-0.4989
8.18	-9.3867	0.1654	1.3234	0.0097	0.0014	-0.0097	32.8471	-12.6825	-2.5134	-0.5649	0.4274	-0.4993	-0.4989
8.19	-9.4099	0.1728	1.3254	0.0117	-0.0019	-0.0117	32.9124	-12.5409	-2.2081	-0.5649	0.4273	-0.4994	-0.4989
8.2	-9.4132	0.1796	1.3269	0.0031	-0.0081	-0.0107	32.9105	-12.5344	-2.1944	-0.5650	0.4272	-0.4995	-0.4989
8.21	-9.4166	0.1839	1.3293	0.0099	-0.0153	-0.0158	32.7243	-12.6891	-2.5291	-0.5650	0.4271	-0.4995	-0.4988
8.22	-9.3992	0.1887	1.3332	0.0023	-0.0153	-0.0149	33.0204	-12.7317	-2.3333	-0.5651	0.4270	-0.4995	-0.4988
8.23	-9.3825	0.1933	1.3396	-0.0071	-0.0167	-0.0190	33.0390	-12.7023	-2.3692	-0.5651	0.4269	-0.4995	-0.4989
8.24	-9.3847	0.1918	1.3468	-0.0061	-0.0155	-0.0189	32.7362	-12.8402	-2.5095	-0.5652	0.4269	-0.4995	-0.4989
8.25	-9.3972	0.1924	1.3543	-0.0117	-0.0132	-0.0158	32.8638	-12.9266	-2.3270	-0.5652	0.4268	-0.4994	-0.4989
8.26	-9.4217	0.1825	1.3630	-0.0125	-0.0170	-0.0220	32.9759	-12.8172	-2.2079	-0.5653	0.4268	-0.4994	-0.4989
8.27	-9.4084	0.1654	1.3524	-0.0166	-0.0155	-0.0204	32.9195	-12.7880	-2.3037	-0.5653	0.4268	-0.4993	-0.4989
8.28	-9.3705	0.1601	1.3566	-0.0117	-0.0170	-0.0162	32.7275	-12.9565	-2.2956	-0.5653	0.4267	-0.4993	-0.4990
8.29	-9.3752	0.1599	1.3572	-0.0096	-0.0070	-0.0151	32.7617	-12.9718	-2.5108	-0.5653	0.4267	-0.4993	-0.4990
8.3	-9.3619	0.1426	1.3392	-0.0112	-0.0127	-0.0136	32.8912	-12.7076	-2.3569	-0.5654	0.4267	-0.4993	-0.4990
8.31	-9.3403	0.1355	1.3569	-0.0129	-0.0201	-0.0223	32.9276	-12.7213	-2.6655	-0.5654	0.4266	-0.4992	-0.4991
8.32	-9.3392	0.1241	1.3600	-0.0152	-0.0131	-0.0229	32.8142	-12.7258	-2.5758	-0.5655	0.4266	-0.4992	-0.4991
8.33	-9.3686	0.1222	1.3508	-0.0106	-0.0100	-0.0114	32.6670	-12.7071	-2.2464	-0.5655	0.4266	-0.4992	-0.4991
8.34	-9.3564	0.1159	1.3600	-0.0122	-0.0177	-0.0174	32.8280	-12.8058	-2.4128	-0.5655	0.4265	-0.4992	-0.4991
8.35	-9.3516	0.1212	1.3754	-0.0064	-0.0092	-0.0171	32.8053	-12.9339	-2.4004	-0.5655	0.4265	-0.4992	-0.4991
8.36	-9.3671	0.1472	1.3705	-0.0066	0.0015	-0.0121	32.7727	-12.8358	-2.5242	-0.5655	0.4264	-0.4992	-0.4992
8.37	-9.3797	0.1452	1.3790	-0.0122	-0.0037	-0.0179	32.6591	-12.7877	-2.4513	-0.5655	0.4264	-0.4992	-0.4992
8.38	-9.3855	0.1479	1.3673	-0.0097	-0.0096	-0.0189	32.9713	-12.9229	-2.6162	-0.5655	0.4264	-0.4992	-0.4992
8.39	-9.3737	0.1639	1.3733	-0.0063	-0.0089	-0.0142	32.6569	-12.7350	-2.5282	-0.5656	0.4263	-0.4992	-0.4992
8.4	-9.3809	0.1445	1.3820	-0.0084	-0.0039	-0.0167	32.7155	-12.7519	-2.2217	-0.5656	0.4263	-0.4992	-0.4992
8.41	-9.3767	0.1637	1.3661	-0.0058	0.0064	-0.0240	33.0169	-12.9371	-2.2440	-0.5656	0.4263	-0.4992	-0.4991
8.42	-9.3693	0.1674	1.3958	-0.0113	0.0008	-0.0167	32.9838	-12.7360	-2.7291	-0.5656	0.4263	-0.4993	-0.4991
8.43	-9.3466	0.1561	1.3667	-0.0119	0.0013	-0.0271	32.9496	-12.9393	-2.4962	-0.5656	0.4263	-0.4993	-0.4991
8.44	-9.3422	0.1635	1.3882	-0.0111	0.0035	-0.0265	32.8521	-12.9473	-2.3465	-0.5656	0.4264	-0.4993	-0.4990
8.45	-9.3712	0.1490	1.3849	-0.0165	0.0126	-0.0225	33.0266	-12.6911	-2.4137	-0.5656	0.4264	-0.4993	-0.4990
8.46	-9.3410	0.1199	1.3626	-0.0163	0.0120	-0.0260	32.9449	-12.5806	-2.2685	-0.5655	0.4265	-0.4993	-0.4990
8.47	-9.3719	0.1391	1.3759	-0.0127	0.0132	-0.0288	33.0939	-12.5386	-2.3232	-0.5655	0.4265	-0.4993	-0.4989
8.48	-9.3804	0.1170	1.3669	-0.0283	0.0113	-0.0308	33.3450	-12.5353	-2.3082	-0.5655	0.4266	-0.4993	-0.4989
8.49	-9.4288	0.1055	1.3746	-0.0181	0.0057	-0.0232	33.6010	-12.3409	-2.1130	-0.5655	0.4267	-0.4993	-0.4989
8.5	-9.4094	0.0970	1.3766	-0.0223	0.0083	-0.0302	32.9446	-12.7766	-2.3660	-0.5655	0.4268	-0.4993	-0.4988
8.51	-9.4215	0.0895	1.3835	-0.0153	0.0085	-0.0198	32.7870	-13.6295	-2.5130	-0.5654	0.4268	-0.4993	-0.4988
8.52	-9.3869	0.0828	1.3642	-0.0159	0.0086	-0.0232	32.7811	-13.0534	-2.4211	-0.5654	0.4268	-0.4993	-0.4988
8.53	-9.3805	0.0802	1.3708	-0.0113	-0.0024	-0.0217	32.8139	-12.2724	-2.3778	-0.5654	0.4268	-0.4993	-0.4988
8.54	-9.3725	0.0833	1.3595	-0.0106	0.0046	-0.0217	32.7692	-12.7424	-2.5611	-0.5654	0.4268	-0.4994	-0.4988
8.55	-9.3675	0.0826	1.3632	-0.0133	0.0050	-0.0177	32.6104	-12.6171	-2.4833	-0.5654	0.4269	-0.4994	-0.4987
8.56	-9.3539	0.0916	1.3651	-0.0015	0.0015	-0.0192	32.6285	-12.7749	-2.4364	-0.5654	0.4268	-0.4994	-0.4987
8.57	-9.3543	0.1038	1.3900	-0.0022	0.0060	-0.0213	32.7805	-12.4708	-2.3674	-0.5654	0.4268	-0.4995	-0.4987
8.58	-9.3536	0.0996	1.3663	-0.0022	0.0069	-0.0174	32.8138	-12.7289	-2.5998	-0.5654	0.4268	-0.4995	-0.4986
8.59	-9.3395	0.1215	1.3820	0.0110	0.0072	-0.0136	32.7898	-12.8474	-2.3466	-0.5654	0.4268	-0.4996	-0.4986
8.6	-9.3477	0.1216	1.3930	0.0091	0.0038	-0.0147	33.0459	-12.8171	-2.2585	-0.5654	0.4267	-0.4997	-0.4985
8.61	-9.3510	0.1313	1.3866	0.0098	0.0058	-0.0208	32.9018	-13.0407	-2.2846	-0.5655	0.4267	-0.4998	-0.4984
8.62	-9.3616	0.1475	1.4070	0.0062	0.0065	-0.0100	32.9003	-12.8450	-2.5658	-0.5655	0.4266	-0.4999	-0.4984
8.63	-9.3600	0.1481	1.3951	0.0105	0.0071	-0.0143	32.7825	-12.8307	-2.5303	-0.5655	0.4265	-0.5000	-0.4983
8.64	-9.3447	0.1526	1.3954	0.0076	0.0097	-0.0162	32.8348	-12.9573	-2.4629	-0.5655	0.4265	-0.5001	-0.4982
8.65	-9.3351	0.1513	1.3919	0.0117	0.0244	-0.0112	32.9260	-12.9003	-2.6026	-0.5655	0.4265	-0.5002	-0.4982
8.66	-9.3327	0.1474	1.3905	-0.0120	0.0165	-0.0141	32.8583	-12.9374	-2.4294	-0.5654	0.4265	-0.5003	-0.4981
8.67	-9.3622	0.1476	1.3903	-0.0041	0.0160	-0.0147	32.9382	-13.0105	-2.4745	-0.5654	0.4265	-0.5004	-0.4981
8.68	-9.3868	0.1481	1.3865	-0.0048	0.0228	-0.0179	32.9591	-12.8550	-2.4204	-0.5653	0.4265	-0.5005	-0.4980
8.69	-9.3996	0.1381	1.3866	-0.0123	0.0188	-0.0142	32.8002	-12.8116	-2.2701	-0.5653	0.4266	-0.5005	-0.4980
8.7	-9.3781	0.1344	1.3850	-0.0129	0.0185	-0.0173	32.7958	-12.8642	-2.2721	-0.5652	0.4266	-0.5006	-0.4979
8.71	-9.3546	0.1247	1.3766	-0.0131	0.0195	-0.0122	32.5753	-12.7727	-2.4141	-0.5652	0.4266	-0.5007	-0.4979
8.72	-9.3530	0.1325	1.3609	-0.0090	0.0192	-0.0084	32.8670	-12.5946	-2.2949	-0.5651	0.4267	-0.5008	-0.4979
8.73	-9.3447	0.1422	1.3544	-0.0074	0.0300	-0.0097	32.5943	-12.7814	-2.2705	-0.5650	0.4267	-0.5009	-0.4978
8.74	-9.3554	0.1475	1.3416	-0.0129	0.0334	-0.0166	32.7662	-12.6144	-2.2812	-0.5649	0.4268	-0.5010	-0.4978
8.75	-9.3808	0.1425	1.3315	-0.0100	0.0315	-0.0144	32.7838	-12.5541	-2.2869	-0.5648	0.4268	-0.5011	-0.4977
8.76	-9.3853	0.1372	1.3194	-0.0120	0.0352	-0.0146	32.6684	-12.6125	-2.2613	-0.5647	0.4269	-0.5012	-0.4976
8.77	-9.3968	0.1317	1.3128	-0.0096	0.0242	-0.0173	32.8389	-12.8634	-2.3879	-0.5646	0.4270	-0.5013	-0.4976
8.78	-9.4217	0.1294	1.3083	-0.0111	0.0297	-0.0205	32.7685	-13.1695	-2.3286	-0.5646	0.4270	-0.5014	-0.4975
8.79	-9.4167	0.1281	1.3012	-0.0113	0.0218	-0.0170	33.0636	-12.8042	-2.2415	-0.5645	0.4271	-0.5015	-0.4974
8.8	-9.4118	0.1366	1.3077	-0.0108	0.0222	-0.0209	33.0025	-12.6801	-2.3564	-0.5645	0.4271	-0.5016	-0.4974
8.81	-9.4084	0.1332	1.3143	-0.0116	0.0154	-0.0279	32.8704	-13.0174	-2.4962	-0.5644	0.4272	-0.5016	-0.4973
8.82	-9.4046	0.1312	1.3018	-0.0068	0.0182	-0.0211	33.0364	-12.9216	-2.2388	-0.5644	0.4272	-0.5017	-0.4972
8.83	-9.4020	0.1354	1.3121	-0.0098	0.0195	-0.0217	32.9002	-12.7989	-2.4290	-0.5644	0.4273	-0.5017	-0.4972
8.84	-9.4185	0.1370	1.3083	-0.0135	0.0232	-0.0206	32.8136	-12.8535	-2.4731	-0.5643	0.4273	-0.5018	-0.4971
8.85	-9.3889	0.1254	1.2863	-0.0125	0.0141	-0.0206	32.6622	-12.7146	-2.2362	-0.5643	0.4274	-0.5018	-0.4971
8.86	-9.3885	0.1276	1.3084	-0.0114	0.0152	-0.0136	32.8055	-12.7626	-2.4564	-0.5642	0.4274	-0.5019	-0.4971
8.87	-9.3886	0.1241	1.2849	-0.0259	0.0199	-0.0207	32.7307	-12.7412	-2.1742	-0.5641	0.4275	-0.5019	-0.4970
8.88	-9.3781	0.1115	1.2960	-0.0222	0.0141	-0.0278	32.6188	-12.6562	-2.1890	-0.5641	0.4276	-0.5019	-0.4970
8.89	-9.3742	0.1013	1.2927	-0.0215	0.0123	-0.0256	32.6043	-12.6507	-2.1893	-0.5641	0.4277	-0.5019	-0.4970
8.9	-9.3564	0.0799	1.2923	-0.0222	0.0134	-0.0206	32.7136	-12.6682	-2.1865	-0.5640	0.4277	-0.5020	-0.4970
8.91	-9.3659	0.0906	1.3078	-0.0138	0.0083	-0.0122	32.6236	-12.6456	-2.1787	-0.5640	0.4277	-0.5020	-0.4970
8.92	-9.3791	0.0980	1.2993	-0.0124	0.0140	-0.0093	32.6466	-12.5759	-2.4273	-0.5639	0.4277	-0.5021	-0.4969
8.93	-9.3819	0.1014	1.2971	-0.0166	0.0205	-0.0112	32.8889	-12.5239	-2.3128	-0.5638	0.4278	-0.5021	-0.4969
8.94	-9.3785	0.1112	1.2962	-0.0151	0.0201	-0.0166	32.6828	-12.4555	-2.2572	-0.5638	0.4278	-0.5022	-0.4969
8.95	-9.3651	0.0958	1.2916	-0.0142	0.0237	-0.0167	32.7565	-12.5807	-2.3963	-0.5637	0.4279	-0.5023	-0.4969
8.96	-9.3742	0.0884	1.2830	-0.0101	0.0250	-0.0164	32.6455	-12.7207	-2.4821	-0.5636	0.4279	-0.5024	-0.4968
8.97	-9.3750	0.0859	1.2604	-0.0076	0.0224	-0.0193	32.9221	-12.9059	-2.2151	-0.5636	0.4280	-0.5025	-0.4967
8.98	-9.3981	0.0907	1.2722	-0.0067	0.0313	-0.0089	33.3845	-12.7005	-2.0926	-0.5635	0.4280	-0.5026	-0.4967
8.99	-9.4175	0.1019	1.2645	-0.0113	0.0199	-0.0107	33.4548	-12.5647	-1.9969	-0.5634	0.4281	-0.5027	-0.4967
9	-9.4215	0.1030	1.2591	-0.0108	0.0217	-0.0147	33.0869	-12.9786	-2.1016	-0.5634	0.4281	-0.5027	-0.4966
9.01	-9.4115	0.1026	1.2548	-0.0102	0.0237	-0.0100	32.9095	-13.6353	-2.2709	-0.5633	0.4281	-0.5028	-0.4966
9.02	-9.3980	0.0960	1.2450	-0.0117	0.0169	-0.0084	32.7351	-13.3613	-2.1864	-0.5632	0.4281	-0.5029	-0.4966
9.03	-9.4097	0.0994	1.2394	-0.0101	0.0206	-0.0077	32.8244	-12.6508	-2.1308	-0.5631	0.4281	-0.5030	-0.4965
9.04	-9.4037	0.0989	1.2365	-0.0076	0.0143	-0.0095	32.9151	-12.9240	-2.1300	-0.5631	0.4281	-0.5031	-0.4965
9.05	-9.4035	0.0967	1.2402	-0.0074	0.0140	-0.0088	32.7987	-12.9008	-2.1393	-0.5630	0.4281	-0.5032	-0.4965
9.06	-9.4305	0.1064	1.2464	-0.0037	0.0090	-0.0082	32.6738	-12.5876	-2.1311	-0.5630	0.4281	-0.5033	-0.4965
9.07	-9.4356	0.1146	1.2383	-0.0035	0.0142	-0.0083	32.7523	-12.6763	-2.0100	-0.5629	0.4281	-0.5034	-0.4965
9.08	-9.4137	0.1132	1.2426	0.0097	0.0117	-0.0090	32.8088	-12.7442	-2.1088	-0.5629	0.4280	-0.5035	-0.4964
9.09	-9.4157	0.1238	1.2393	0.0107	0.0102	-0.0092	32.7890	-12.6888	-2.2575	-0.5629	0.4280	-0.5036	-0.4963
9.1	-9.4208	0.1302	1.2314	0.0126	0.0128	-0.0087	32.6730	-12.9889	-2.0684	-0.5629	0.4279	-0.5037	-0.4963
9.11	-9.4285	0.1469	1.2344	0.0165	0.0110	-0.0091	32.7390	-12.7415	-1.8955	-0.5629	0.4278	-0.5038	-0.4962
9.12	-9.4239	0.1636	1.2402	0.0147	0.0071	-0.0070	32.5939	-12.7887	-2.3720	-0.5629	0.4277	-0.5040	-0.4962
9.13	-9.4113	0.1770	1.2437	0.0149	0.0028	-0.0086	32.7353	-12.8146	-2.1710	-0.5630	0.4276	-0.5041	-0.4961
9.14	-9.3964	0.1902	1.2462	0.0153	-0.0054	-0.0092	32.7835	-12.8212	-2.0412	-0.5630	0.4275	-0.5041	-0.4961
9.15	-9.3943	0.2112	1.2539	0.0147	-0.0084	-0.0087	32.6409	-12.9788	-2.1771	-0.5631	0.4274	-0.5042	-0.4960
9.16	-9.3828	0.2173	1.2572	0.0106	-0.0072	-0.0091	32.8979	-12.9990	-2.0944	-0.5631	0.4273	-0.5043	-0.4960
9.17	-9.3696	0.2273	1.2634	0.0035	-0.0062	-0.0122	32.8800	-12.9501	-2.2794	-0.5631	0.4272	-0.5043	-0.4960
9.18	-9.3791	0.2317	1.2803	-0.0076	-0.0081	-0.0198	33.0323	-13.0596	-2.1464	-0.5632	0.4272	-0.5043	-0.4960
9.19	-9.4076	0.2296	1.2807	-0.0068	-0.0058	-0.0137	32.7999	-13.0108	-2.1208	-0.5632	0.4271	-0.5043	-0.4960
9.2	-9.3814	0.2261	1.2743	-0.0106	-0.0017	-0.0172	32.7813	-12.8041	-2.2297	-0.5632	0.4271	-0.5043	-0.4960
9.21	-9.3688	0.2239	1.2841	-0.0103	0.0014	-0.0164	32.8025	-12.8769	-2.1123	-0.5632	0.4271	-0.5043	-0.4960
9.22	-9.3671	0.2142	1.2733	-0.0222	0.0049	-0.0125	32.7753	-12.6216	-2.1448	-0.5632	0.4271	-0.5043	-0.4960
9.23	-9.3630	0.2071	1.2843	-0.0287	-0.0003	-0.0159	32.8777	-12.9355	-2.1363	-0.5631	0.4271	-0.5043	-0.4961
9.24	-9.3959	0.2031	1.2959	-0.0318	0.0016	-0.0124	32.8908	-12.8647	-2.1179	-0.5631	0.4272	-0.5043	-0.4962
9.25	-9.4218	0.1762	1.2963	-0.0331	0.0103	-0.0154	32.8661	-12.7859	-2.0165	-0.5630	0.4272	-0.5043	-0.4962
9.26	-9.4095	0.1613	1.2827	-0.0356	0.0063	-0.0149	32.9107	-12.8290	-2.0571	-0.5629	0.4273	-0.5042	-0.4962
9.27	-9.3685	0.1572	1.2805	-0.0364	0.0069	-0.0099	32.7614	-12.6911	-2.0302	-0.5628	0.4274	-0.5042	-0.4963
9.28	-9.3443	0.1661	1.2824	-0.0302	0.0094	-0.0085	32.7176	-12.9943	-2.1844	-0.5627	0.4274	-0.5042	-0.4964
9.29	-9.3382	0.1816	1.2654	-0.0288	0.0194	-0.0086	32.8164	-12.9181	-2.0432	-0.5626	0.4275	-0.5043	-0.4964
9.3	-9.3016	0.1815	1.2545	-0.0288	0.0141	-0.0100	32.7823	-12.8970	-2.1079	-0.5625	0.4275	-0.5043	-0.4964
9.31	-9.3277	0.1840	1.2874	-0.0265	0.0148	-0.0095	32.7917	-12.7839	-2.2673	-0.5624	0.4276	-0.5043	-0.4965
9.32	-9.3591	0.1618	1.2819	-0.0309	0.0192	-0.0097	32.6600	-12.8454	-2.0331	-0.5623	0.4277	-0.5044	-0.4965
9.33	-9.3468	0.1288	1.2853	-0.0228	0.0196	-0.0095	32.7799	-12.6969	-2.1120	-0.5622	0.4277	-0.5044	-0.4965
9.34	-9.3830	0.1299	1.3083	-0.0265	0.0200	-0.0081	32.8105	-12.9164	-2.2269	-0.5621	0.4278	-0.5045	-0.4965
9.35	-9.4122	0.1248	1.2875	-0.0220	0.0203	-0.0097	32.7585	-12.8612	-2.2477	-0.5620	0.4278	-0.5045	-0.4965
9.36	-9.4037	0.1314	1.2825	-0.0128	0.0200	-0.0091	32.8673	-12.8264	-2.1623	-0.5620	0.4279	-0.5046	-0.4965
9.37	-9.3918	0.1451	1.2872	-0.0056	0.0167	-0.0097	32.8610	-12.9460	-2.1278	-0.5619	0.4279	-0.5047	-0.4965
9.38	-9.4039	0.1595	1.2811	-0.0065	0.0184	-0.0078	33.0225	-12.7532	-2.1264	-0.5619	0.4279	-0.5048	-0.4965
9.39	-9.3998	0.1808	1.2782	0.0014	0.0154	-0.0082	32.7351	-12.8707	-1.8852	-0.5618	0.4278	-0.5049	-0.4964
9.4	-9.4199	0.1974	1.3016	0.0087	0.0171	-0.0092	32.7915	-12.8629	-2.0265	-0.5618	0.4278	-0.5050	-0.4964
9.41	-9.4280	0.2175	1.2714	0.0036	0.0243	-0.0118	32.6037	-12.6812	-2.1372	-0.5618	0.4278	-0.5051	-0.4963
9.42	-9.3753	0.2359	1.2753	0.0060	0.0045	-0.0103	32.6575	-12.8707	-2.2551	-0.5618	0.4277	-0.5052	-0.4962
9.43	-9.4132	0.2655	1.2919	-0.0093	0.0255	-0.0107	32.9609	-13.0376	-2.1862	-0.5617	0.4277	-0.5053	-0.4962
9.44	-9.4166	0.2541	1.2588	-0.0135	0.0231	-0.0146	32.5448	-12.8833	-2.0215	-0.5616	0.4278	-0.5054	-0.4962
9.45	-9.4088	0.2401	1.2622	-0.0215	0.0127	-0.0210	32.7651	-12.9071	-2.1541	-0.5616	0.4279	-0.5054	-0.4961
9.46	-9.3650	0.2160	1.2388	-0.0237	0.0214	-0.0244	32.6119	-13.0016	-2.2335	-0.5615	0.4279	-0.5054	-0.4961
9.47	-9.3828	0.1954	1.2620	-0.0225	0.0171	-0.0130	32.5285	-12.7532	-1.8175	-0.5614	0.4280	-0.5054	-0.4961
9.48	-9.4227	0.1810	1.2375	-0.0167	0.0205	-0.0088	33.1752	-12.6943	-2.0473	-0.5614	0.4280	-0.5055	-0.4961
9.49	-9.4036	0.1644	1.2402	-0.0132	0.0175	-0.0099	33.5955	-12.5230	-2.1798	-0.5613	0.4281	-0.5056	-0.4961
9.5	-9.4174	0.1714	1.2481	-0.0197	0.0198	-0.0094	32.9828	-12.7288	-1.9534	-0.5612	0.4281	-0.5056	-0.4961
9.51	-9.3956	0.1514	1.2111	-0.0100	0.0195	-0.0105	32.6193	-13.6721	-2.0005	-0.5611	0.4281	-0.5057	-0.4961
9.52	-9.3831	0.1324	1.2214	-0.0141	0.0145	-0.0083	32.5914	-13.3683	-2.1993	-0.5611	0.4281	-0.5058	-0.4961
9.53	-9.3816	0.1317	1.2072	-0.0078	0.0169	-0.0093	32.8783	-12.8511	-2.1821	-0.5610	0.4281	-0.5059	-0.4961
9.54	-9.3884	0.1422	1.2123	-0.0015	0.0117	-0.0095	32.9067	-13.2451	-2.0130	-0.5610	0.4281	-0.5059	-0.4960
9.55	-9.4056	0.1643	1.2100	0.0076	0.0153	-0.0089	32.8778	-13.1720	-1.9925	-0.5610	0.4281	-0.5061	-0.4960
9.56	-9.4101	0.1809	1.2055	0.0108	0.0181	-0.0093	32.9219	-13.0775	-2.0204	-0.5609	0.4280	-0.5062	-0.4959
9.57	-9.4141	0.1872	1.2060	0.0090	0.0144	-0.0111	32.9840	-13.0105	-1.9835	-0.5609	0.4280	-0.5063	-0.4958
9.58	-9.4011	0.1964	1.2064	0.0161	0.0162	-0.0086	32.7856	-13.1918	-2.0470	-0.5609	0.4279	-0.5064	-0.4957
9.59	-9.4072	0.2118	1.2090	0.0138	0.0094	-0.0094	32.8986	-13.2006	-1.8578	-0.5609	0.4278	-0.5066	-0.4957
9.6	-9.3981	0.2176	1.2021	0.0125	0.0116	-0.0093	32.7886	-13.1453	-1.9999	-0.5609	0.4278	-0.5067	-0.4956
9.61	-9.3789	0.2273	1.2007	0.0133	0.0087	-0.0090	32.8132	-13.1174	-2.0727	-0.5609	0.4277	-0.5068	-0.4956
9.62	-9.3795	0.2423	1.2034	0.0148	0.0116	-0.0095	32.7607	-12.9503	-1.9823	-0.5610	0.4276	-0.5069	-0.4955
9.63	-9.3707	0.2473	1.2018	0.0091	0.0142	-0.0082	32.5602	-12.8148	-2.1081	-0.5609	0.4276	-0.5070	-0.4954
9.64	-9.3904	0.2514	1.2099	0.0121	0.0091	-0.0117	32.6116	-12.9706	-2.0144	-0.5609	0.4275	-0.5071	-0.4954
9.65	-9.4010	0.2525	1.2030	0.0131	0.0206	-0.0082	32.7541	-12.8840	-2.1476	-0.5609	0.4274	-0.5073	-0.4953
9.66	-9.4067	0.2503	1.2058	0.0028	0.0103	-0.0179	32.7051	-13.0399	-2.0052	-0.5609	0.4274	-0.5074	-0.4952
9.67	-9.4168	0.2533	1.1972	-0.0062	0.0107	-0.0135	32.8158	-12.8765	-1.9823	-0.5609	0.4274	-0.5074	-0.4952
9.68	-9.4048	0.2497	1.1879	-0.0076	0.0137	-0.0197	32.6798	-12.9849	-2.0939	-0.5609	0.4274	-0.5075	-0.4952
9.69	-9.4011	0.2368	1.1916	-0.0074	0.0087	-0.0212	32.7396	-12.7404	-2.0208	-0.5609	0.4274	-0.5075	-0.4951
9.7	-9.4053	0.2409	1.1832	-0.0040	0.0059	-0.0151	32.7111	-12.8495	-2.0413	-0.5609	0.4274	-0.5076	-0.4951
9.71	-9.4017	0.2397	1.1832	-0.0104	0.0007	-0.0168	32.5910	-13.0597	-1.7866	-0.5609	0.4274	-0.5076	-0.4951
9.72	-9.3979	0.2347	1.1790	-0.0121	0.0074	-0.0280	32.9226	-12.9964	-1.8245	-0.5609	0.4274	-0.5076	-0.4950
9.73	-9.4029	0.2290	1.1844	-0.0106	0.0041	-0.0285	33.0922	-13.3457	-1.9592	-0.5609	0.4275	-0.5076	-0.4950
9.74	-9.4035	0.2116	1.1681	-0.0130	0.0082	-0.0272	33.0792	-12.8814	-1.7784	-0.5609	0.4275	-0.5076	-0.4950
9.75	-9.4018	0.2084	1.1759	-0.0190	0.0075	-0.0314	32.7289	-13.0511	-2.0041	-0.5609	0.4276	-0.5076	-0.4949
9.76	-9.4268	0.2141	1.1877	-0.0155	0.0087	-0.0254	32.8199	-13.2783	-1.7592	-0.5609	0.4276	-0.5076	-0.4949
9.77	-9.4109	0.2090	1.1736	-0.0245	0.0030	-0.0240	33.1331	-12.9336	-2.0600	-0.5609	0.4277	-0.5075	-0.4949
9.78	-9.4084	0.2101	1.1944	-0.0295	0.0017	-0.0247	32.7837	-13.2108	-2.0614	-0.5609	0.4277	-0.5075	-0.4949
9.79	-9.4098	0.1988	1.1859	-0.0257	0.0033	-0.0268	32.6773	-13.0790	-1.8122	-0.5608	0.4278	-0.5075	-0.4949
9.8	-9.4143	0.1896	1.1914	-0.0222	0.0011	-0.0205	32.8216	-12.9037	-1.8072	-0.5608	0.4278	-0.5074	-0.4949
9.81	-9.4303	0.1800	1.1941	-0.0234	-0.0005	-0.0184	32.7909	-13.0130	-2.0642	-0.5608	0.4279	-0.5074	-0.4950
9.82	-9.4539	0.1618	1.1909	-0.0320	-0.0042	-0.0166	32.6948	-13.1954	-1.9184	-0.5608	0.4279	-0.5074	-0.4950
9.83	-9.4224	0.1565	1.1738	-0.0200	-0.0025	-0.0149	32.7245	-13.0650	-1.7541	-0.5607	0.4279	-0.5073	-0.4951
9.84	-9.4009	0.1644	1.1970	-0.0193	-0.0078	-0.0119	32.7239	-12.8984	-2.0440	-0.5607	0.4279	-0.5073	-0.4951
9.85	-9.4132	0.1820	1.1907	-0.0154	0.0054	-0.0088	32.5836	-13.0346	-1.9947	-0.5607	0.4279	-0.5073	-0.4951
9.86	-9.4144	0.1923	1.1710	-0.0140	-0.0029	-0.0102	32.5390	-12.6778	-1.8428	-0.5607	0.4279	-0.5074	-0.4952
9.87	-9.4203	0.2092	1.1696	-0.0165	0.0058	-0.0097	32.8262	-12.9243	-1.8296	-0.5606	0.4278	-0.5074	-0.4952
9.88	-9.4185	0.2084	1.1614	-0.0146	0.0019	-0.0127	32.7942	-13.0136	-1.8086	-0.5606	0.4278	-0.5074	-0.4952
9.89	-9.4192	0.2021	1.1619	-0.0126	-0.0068	-0.0149	32.6943	-12.8908	-1.7276	-0.5606	0.4278	-0.5074	-0.4952
9.9	-9.4174	0.1937	1.1689	-0.0117	-0.0197	-0.0200	32.7343	-12.9635	-1.9305	-0.5607	0.4278	-0.5073	-0.4953
9.91	-9.4202	0.2009	1.1750	-0.0119	-0.0202	-0.0146	32.6929	-13.2099	-1.9077	-0.5607	0.4277	-0.5073	-0.4953
9.92	-9.4221	0.2013	1.1971	-0.0120	-0.0230	-0.0256	32.8586	-13.1631	-1.8020	-0.5608	0.4277	-0.5072	-0.4953
9.93	-9.4163	0.2038	1.2057	-0.0088	-0.0193	-0.0313	33.0428	-13.0614	-2.0107	-0.5609	0.4276	-0.5072	-0.4953
9.94	-9.3920	0.2050	1.2178	-0.0020	-0.0292	-0.0245	32.5957	-12.8851	-1.9432	-0.5610	0.4275	-0.5071	-0.4954
9.95	-9.3730	0.2081	1.2295	-0.0093	-0.0183	-0.0334	32.7507	-13.1548	-1.8878	-0.5611	0.4275	-0.5070	-0.4953
9.96	-9.3697	0.2103	1.2341	-0.0126	-0.0189	-0.0303	32.9151	-13.0152	-1.9492	-0.5611	0.4275	-0.5069	-0.4953
9.97	-9.3941	0.2064	1.2435	-0.0200	-0.0196	-0.0328	32.7479	-13.1013	-1.8349	-0.5612	0.4275	-0.5068	-0.4954
9.98	-9.3663	0.1927	1.2132	-0.0214	-0.0164	-0.0293	33.3387	-12.9446	-1.8219	-0.5613	0.4275	-0.5068	-0.4954
9.99	-9.3370	0.1854	1.2473	-0.0137	-0.0240	-0.0185	33.9336	-12.4779	-1.8543	-0.5613	0.4275	-0.5067	-0.4954
10	-9.3819	0.1997	1.2342	-0.0186	0.0002	-0.0242	33.2219	-12.9359	-1.7965	-0.5613	0.4275	-0.5067	-0.4954
10.01	-9.3654	0.1761	1.2143	-0.0224	-0.0045	-0.0201	32.8494	-13.6954	-1.6733	-0.5613	0.4275	-0.5066	-0.4955
10.02	-9.3575	0.1604	1.2290	-0.0191	-0.0027	-0.0174	32.9498	-13.5108	-1.7647	-0.5613	0.4275	-0.5066	-0.4955
10.03	-9.3505	0.1449	1.2301	-0.0101	0.0012	-0.0193	32.9507	-12.9519	-1.7164	-0.5613	0.4275	-0.5066	-0.4955
10.04	-9.3729	0.1514	1.2400	-0.0125	-0.0069	-0.0099	32.9816	-13.0442	-1.9116	-0.5613	0.4275	-0.5066	-0.4955
10.05	-9.3920	0.1652	1.2375	-0.0087	0.0082	-0.0122	32.8904	-12.9193	-2.2081	-0.5613	0.4274	-0.5066	-0.4955
10.06	-9.3758	0.1697	1.2368	-0.0143	-0.0061	-0.0088	32.6517	-13.0901	-1.8592	-0.5613	0.4274	-0.5067	-0.4956
10.07	-9.3945	0.1750	1.2622	-0.0068	-0.0059	-0.0107	32.7338	-12.8907	-1.8979	-0.5613	0.4274	-0.5067	-0.4956
10.08	-9.4104	0.1863	1.2304	0.0004	-0.0026	-0.0120	32.8565	-12.8555	-1.9772	-0.5613	0.4273	-0.5067	-0.4956
10.09	-9.3478	0.1574	1.2366	0.0094	-0.0134	-0.0187	32.9686	-12.9846	-1.9129	-0.5614	0.4272	-0.5067	-0.4955
10.1	-9.3985	0.1940	1.2535	0.0130	-0.0043	-0.0124	32.9656	-12.9286	-2.1156	-0.5614	0.4271	-0.5068	-0.4955
10.11	-9.3708	0.2231	1.2369	0.0141	-0.0062	-0.0224	33.1236	-12.8945	-1.8828	-0.5615	0.4270	-0.5068	-0.4955
10.12	-9.3919	0.2178	1.2639	0.0126	0.0017	-0.0193	32.8507	-13.3581	-1.5883	-0.5616	0.4269	-0.5069	-0.4954
10.13	-9.3792	0.2244	1.2263	0.0144	0.0065	-0.0210	32.9874	-13.1912	-2.0150	-0.5616	0.4269	-0.5070	-0.4953
10.14	-9.3862	0.2401	1.2422	0.0124	0.0056	-0.0225	33.0519	-12.9973	-1.8773	-0.5617	0.4268	-0.5071	-0.4952
10.15	-9.3606	0.2159	1.2244	0.0122	0.0060	-0.0339	32.8749	-12.8924	-1.8815	-0.5617	0.4268	-0.5071	-0.4951
10.16	-9.3857	0.2518	1.2355	0.0145	0.0047	-0.0345	32.7953	-12.8694	-2.0922	-0.5618	0.4268	-0.5072	-0.4950
10.17	-9.3966	0.2357	1.2351	0.0103	0.0055	-0.0405	32.7635	-12.8812	-1.9775	-0.5619	0.4268	-0.5072	-0.4948
10.18	-9.4097	0.2214	1.2136	0.0075	0.0126	-0.0351	32.8277	-13.2052	-1.8181	-0.5620	0.4268	-0.5072	-0.4947
10.19	-9.4106	0.2397	1.2175	0.0043	0.0076	-0.0363	32.9174	-12.9056	-1.8601	-0.5620	0.4268	-0.5073	-0.4946
10.2	-9.4066	0.2303	1.2249	0.0032	0.0086	-0.0352	32.6534	-12.7649	-1.8704	-0.5621	0.4268	-0.5073	-0.4945
10.21	-9.4094	0.2324	1.2119	-0.0053	0.0117	-0.0346	32.7350	-13.0472	-1.9529	-0.5621	0.4269	-0.5073	-0.4944
10.22	-9.4037	0.2344	1.2105	-0.0031	0.0096	-0.0346	32.8060	-13.0679	-1.9769	-0.5622	0.4269	-0.5073	-0.4943
10.23	-9.4195	0.2325	1.2098	-0.0093	0.0109	-0.0329	32.7575	-12.9602	-1.7490	-0.5622	0.4270	-0.5073	-0.4942
10.24	-9.4338	0.2397	1.1991	-0.0041	0.0077	-0.0354	32.9195	-12.9736	-1.8929	-0.5622	0.4270	-0.5074	-0.4942
10.25	-9.4332	0.2423	1.2007	-0.0036	0.0060	-0.0347	32.9646	-12.9253	-1.9322	-0.5623	0.4270	-0.5074	-0.4941
10.26	-9.4185	0.2297	1.1980	-0.0111	-0.0010	-0.0363	32.9821	-12.8473	-1.8067	-0.5623	0.4271	-0.5073	-0.4940
10.27	-9.4300	0.2477	1.1943	-0.0090	-0.0000	-0.0337	32.8448	-12.8944	-1.9045	-0.5624	0.4271	-0.5073	-0.4940
10.28	-9.4112	0.2387	1.1896	-0.0116	-0.0100	-0.0313	33.0395	-12.9748	-1.7822	-0.5624	0.4271	-0.5073	-0.4939
10.29	-9.4042	0.2364	1.2055	-0.0134	-0.0092	-0.0353	32.9986	-12.9517	-1.6105	-0.5625	0.4271	-0.5072	-0.4939
10.3	-9.3920	0.2321	1.2082	-0.0325	-0.0120	-0.0326	32.9511	-13.0152	-1.8309	-0.5625	0.4272	-0.5071	-0.4939
10.31	-9.3859	0.2172	1.2166	-0.0322	-0.0183	-0.0324	32.9531	-13.2992	-1.9967	-0.5625	0.4272	-0.5070	-0.4940
10.32	-9.3574	0.2090	1.2225	-0.0315	-0.0177	-0.0376	32.8534	-13.2615	-1.9884	-0.5626	0.4273	-0.5068	-0.4940
10.33	-9.3675	0.2040	1.2370	-0.0349	-0.0164	-0.0320	33.0951	-12.7728	-1.9517	-0.5626	0.4273	-0.5067	-0.4941
10.34	-9.3765	0.1905	1.2189	-0.0349	-0.0055	-0.0299	32.9230	-12.7919	-1.8431	-0.5626	0.4274	-0.5066	-0.4941
10.35	-9.3766	0.1793	1.2153	-0.0373	-0.0135	-0.0362	33.2454	-12.8911	-1.8927	-0.5626	0.4275	-0.5065	-0.4942
10.36	-9.3653	0.1680	1.2143	-0.0359	-0.0089	-0.0354	32.7737	-12.8714	-1.9229	-0.5627	0.4275	-0.5064	-0.4942
10.37	-9.3728	0.1474	1.2343	-0.0374	-0.0063	-0.0355	32.7121	-12.8718	-1.8210	-0.5627	0.4276	-0.5063	-0.4942
10.38	-9.4269	0.1445	1.2380	-0.0359	-0.0090	-0.0332	33.0299	-12.9767	-1.8794	-0.5627	0.4277	-0.5061	-0.4942
10.39	-9.4134	0.1213	1.2214	-0.0354	-0.0048	-0.0348	32.7719	-12.8161	-1.8334	-0.5627	0.4278	-0.5060	-0.4943
10.4	-9.3836	0.1110	1.2395	-0.0283	-0.0120	-0.0292	32.8389	-12.7747	-1.8960	-0.5627	0.4279	-0.5059	-0.4943
10.41	-9.3711	0.1073	1.2353	-0.0142	-0.0014	-0.0212	32.9915	-12.8029	-1.7356	-0.5627	0.4279	-0.5059	-0.4943
10.42	-9.3682	0.1172	1.2154	-0.0113	0.0123	-0.0175	32.7168	-12.6588	-1.8112	-0.5627	0.4279	-0.5060	-0.4943
10.43	-9.3556	0.1424	1.2072	-0.0088	0.0057	-0.0158	33.0518	-12.7632	-2.0209	-0.5627	0.4279	-0.5060	-0.4943
10.44	-9.3466	0.1544	1.2021	-0.0126	0.0114	-0.0128	32.9244	-12.7925	-1.7981	-0.5626	0.4279	-0.5060	-0.4943
10.45	-9.3607	0.1594	1.1901	-0.0107	0.0159	-0.0132	32.7474	-12.7955	-1.6141	-0.5626	0.4279	-0.5061	-0.4942
10.46	-9.3761	0.1541	1.1786	-0.0080	0.0070	-0.0179	32.8163	-12.6416	-2.0408	-0.5626	0.4279	-0.5061	-0.4942
10.47	-9.3902	0.1540	1.1858	-0.0074	0.0077	-0.0205	33.1762	-12.8050	-1.6814	-0.5626	0.4279	-0.5062	-0.4942
10.48	-9.4022	0.1592	1.1892	-0.0068	0.0069	-0.0185	33.3267	-12.6948	-1.4594	-0.5626	0.4279	-0.5062	-0.4941
10.49	-9.4207	0.1711	1.2018	-0.0097	0.0032	-0.0277	33.5706	-12.2797	-1.6173	-0.5626	0.4279	-0.5062	-0.4941
10.5	-9.4243	0.1770	1.1961	-0.0113	0.0035	-0.0313	32.8828	-12.9380	-1.7762	-0.5626	0.4280	-0.5062	-0.4941
10.51	-9.4138	0.1613	1.1989	-0.0103	0.0085	-0.0322	32.7685	-14.0580	-2.2925	-0.5626	0.4280	-0.5062	-0.4940
10.52	-9.4158	0.1776	1.1920	-0.0102	0.0100	-0.0354	32.4910	-13.5186	-1.8325	-0.5626	0.4281	-0.5062	-0.4939
10.53	-9.4120	0.1709	1.2033	-0.0125	0.0035	-0.0352	32.5176	-12.5413	-1.8102	-0.5627	0.4281	-0.5062	-0.4939
10.54	-9.4373	0.1523	1.1954	-0.0141	0.0096	-0.0303	32.7244	-13.0159	-2.0430	-0.5627	0.4282	-0.5062	-0.4938
10.55	-9.4195	0.1707	1.1660	-0.0187	0.0047	-0.0246	32.5465	-12.8285	-1.7960	-0.5627	0.4282	-0.5062	-0.4938
10.56	-9.3925	0.1549	1.1932	-0.0212	0.0008	-0.0242	32.5676	-13.1034	-1.8564	-0.5627	0.4282	-0.5061	-0.4938
10.57	-9.4261	0.1433	1.1824	-0.0273	0.0030	-0.0183	32.5725	-12.8438	-1.8418	-0.5626	0.4283	-0.5061	-0.4938
10.58	-9.4468	0.1225	1.1623	-0.0355	0.0030	-0.0203	32.2898	-12.6950	-1.6835	-0.5626	0.4283	-0.5061	-0.4939
10.59	-9.4239	0.1282	1.1623	-0.0357	-0.0098	-0.0233	32.4027	-12.8353	-1.7401	-0.5626	0.4284	-0.5060	-0.4939
10.6	-9.4159	0.0912	1.1968	-0.0314	-0.0129	-0.0127	32.4658	-12.7349	-1.7356	-0.5625	0.4284	-0.5059	-0.4940
10.61	-9.4322	0.0821	1.1812	-0.0327	-0.0146	-0.0095	32.3917	-12.6792	-1.6846	-0.5625	0.4284	-0.5058	-0.4941
10.62	-9.4158	0.1066	1.1845	-0.0236	-0.0181	-0.0126	32.5965	-12.6983	-1.9151	-0.5625	0.4284	-0.5058	-0.4942
10.63	-9.3972	0.1096	1.2079	-0.0135	-0.0177	-0.0077	32.5548	-12.8602	-1.8842	-0.5625	0.4283	-0.5057	-0.4943
10.64	-9.3940	0.1219	1.2045	-0.0116	-0.0140	-0.0104	32.4379	-12.6748	-1.8494	-0.5626	0.4282	-0.5057	-0.4943
10.65	-9.3817	0.1224	1.1972	-0.0100	-0.0188	-0.0124	32.5630	-12.8326	-1.8795	-0.5626	0.4282	-0.5057	-0.4944
10.66	-9.3860	0.1255	1.2191	-0.0099	-0.0185	-0.0143	32.5516	-12.8129	-1.7768	-0.5626	0.4281	-0.5057	-0.4944
10.67	-9.3921	0.1317	1.2062	-0.0122	-0.0114	-0.0197	32.7151	-12.8464	-1.8466	-0.5627	0.4281	-0.5056	-0.4945
10.68	-9.3928	0.1369	1.2040	-0.0045	-0.0187	-0.0187	32.7037	-13.1092	-2.1190	-0.5627	0.4280	-0.5056	-0.4945
10.69	-9.3935	0.1509	1.2072	-0.0091	-0.0096	-0.0158	32.6360	-13.0257	-1.9321	-0.5628	0.4280	-0.5056	-0.4945
10.7	-9.3961	0.1605	1.2023	-0.0046	-0.0046	-0.0251	32.6620	-12.8878	-1.8819	-0.5628	0.4279	-0.5056	-0.4945
10.71	-9.4040	0.1664	1.2064	-0.0086	-0.0067	-0.0267	32.5339	-12.8144	-1.9326	-0.5629	0.4279	-0.5056	-0.4945
10.72	-9.3942	0.1664	1.2006	-0.0112	-0.0147	-0.0195	32.3844	-12.8316	-1.8765	-0.5629	0.4279	-0.5055	-0.4945
10.73	-9.3931	0.1721	1.2096	-0.0101	-0.0063	-0.0213	32.4753	-12.8167	-2.0251	-0.5629	0.4279	-0.5055	-0.4945
10.74	-9.4024	0.1674	1.2100	-0.0115	-0.0080	-0.0197	32.4686	-13.0407	-1.8600	-0.5630	0.4278	-0.5055	-0.4945
10.75	-9.4044	0.1610	1.2090	-0.0109	-0.0062	-0.0294	32.6701	-12.8110	-1.8229	-0.5630	0.4278	-0.5054	-0.4945
10.76	-9.4048	0.1563	1.2135	-0.0208	-0.0081	-0.0209	32.5226	-12.6351	-2.0260	-0.5630	0.4278	-0.5054	-0.4945
10.77	-9.4132	0.1399	1.2126	-0.0187	-0.0095	-0.0233	32.4429	-12.6663	-1.9885	-0.5630	0.4279	-0.5054	-0.4945
10.78	-9.4200	0.1301	1.2078	-0.0188	-0.0092	-0.0230	32.6335	-12.7445	-2.0260	-0.5631	0.4279	-0.5053	-0.4945
10.79	-9.4231	0.1220	1.2177	-0.0179	-0.0003	-0.0148	32.4758	-12.7558	-1.7425	-0.5630	0.4279	-0.5053	-0.4946
10.8	-9.4119	0.1316	1.2149	-0.0120	-0.0061	-0.0268	32.4907	-12.6446	-1.7933	-0.5631	0.4279	-0.5053	-0.4946
10.81	-9.4064	0.1091	1.2182	-0.0139	-0.0072	-0.0192	32.5490	-12.6653	-1.9454	-0.5631	0.4278	-0.5052	-0.4946
10.82	-9.4066	0.1114	1.2027	-0.0058	-0.0057	-0.0227	32.4956	-12.6123	-1.8865	-0.5631	0.4278	-0.5052	-0.4946
10.83	-9.3995	0.1317	1.2187	-0.0043	-0.0131	-0.0204	32.6108	-12.7815	-1.7097	-0.5632	0.4278	-0.5052	-0.4946
10.84	-9.4093	0.1234	1.2171	-0.0074	-0.0071	-0.0228	32.4502	-12.9323	-1.8167	-0.5632	0.4277	-0.5052	-0.4945
10.85	-9.3988	0.1392	1.2071	-0.0064	-0.0097	-0.0201	32.7218	-12.8087	-2.0482	-0.5633	0.4277	-0.5052	-0.4945
10.86	-9.3957	0.1329	1.2132	-0.0064	-0.0098	-0.0253	32.5837	-12.9797	-1.9688	-0.5633	0.4277	-0.5052	-0.4945
10.87	-9.4056	0.1546	1.2085	-0.0014	-0.0135	-0.0299	32.5471	-12.7872	-2.0336	-0.5634	0.4276	-0.5051	-0.4945
10.88	-9.3995	0.1577	1.2234	0.0008	-0.0217	-0.0274	32.6793	-13.0496	-1.8652	-0.5635	0.4276	-0.5051	-0.4945
10.89	-9.3855	0.1699	1.2216	-0.0111	-0.0168	-0.0235	32.7663	-12.9480	-1.8078	-0.5636	0.4275	-0.5050	-0.4945
10.9	-9.3691	0.1770	1.2329	-0.0090	-0.0191	-0.0218	32.7074	-12.9011	-1.8009	-0.5636	0.4275	-0.5050	-0.4945
10.91	-9.3691	0.1747	1.2336	-0.0124	-0.0169	-0.0219	32.4593	-12.9154	-1.8942	-0.5637	0.4274	-0.5049	-0.4946
10.92	-9.3733	0.1662	1.2246	-0.0117	-0.0195	-0.0260	32.3780	-12.9275	-2.2659	-0.5638	0.4274	-0.5049	-0.4946
10.93	-9.3941	0.1622	1.2331	-0.0089	-0.0100	-0.0340	32.5513	-13.0393	-1.9080	-0.5638	0.4274	-0.5048	-0.4945
10.94	-9.4139	0.1537	1.2197	-0.0120	-0.0033	-0.0349	32.5792	-12.6410	-1.6982	-0.5639	0.4274	-0.5048	-0.4945
10.95	-9.3957	0.1328	1.2094	-0.0117	-0.0068	-0.0285	32.5584	-12.6527	-1.7484	-0.5639	0.4274	-0.5047	-0.4945
10.96	-9.3862	0.1244	1.2119	-0.0126	-0.0117	-0.0351	32.4550	-12.7667	-1.9651	-0.5640	0.4274	-0.5047	-0.4945
10.97	-9.4160	0.1103	1.2181	-0.0136	-0.0080	-0.0259	32.5140	-12.6957	-1.8367	-0.5640	0.4274	-0.5046	-0.4945
10.98	-9.4503	0.1048	1.2218	-0.0113	-0.0056	-0.0288	32.7368	-12.5429	-1.8147	-0.5641	0.4274	-0.5046	-0.4944
10.99	-9.4517	0.0926	1.2155	-0.0122	-0.0208	-0.0291	33.1997	-12.3517	-1.6629	-0.5642	0.4274	-0.5045	-0.4945
11	-9.4195	0.0859	1.2212	-0.0099	-0.0126	-0.0250	33.1152	-12.8237	-1.7389	-0.5642	0.4274	-0.5045	-0.4945
11.01	-9.4101	0.0927	1.2341	0.0023	-0.0215	-0.0198	33.0151	-13.7863	-1.8526	-0.5643	0.4273	-0.5045	-0.4945
11.02	-9.4027	0.1061	1.2201	0.0082	-0.0261	-0.0109	32.8255	-13.1247	-1.9356	-0.5644	0.4272	-0.5045	-0.4945
11.03	-9.3710	0.1289	1.2207	0.0057	-0.0253	-0.0105	33.0365	-12.4370	-1.8517	-0.5645	0.4270	-0.5045	-0.4945
11.04	-9.3608	0.1531	1.2321	0.0102	-0.0163	-0.0097	32.9190	-13.0905	-2.0308	-0.5645	0.4269	-0.5045	-0.4945
11.05	-9.3656	0.1623	1.2181	-0.0016	-0.0185	-0.0102	33.1676	-12.8450	-2.0498	-0.5646	0.4268	-0.5045	-0.4945
11.06	-9.3677	0.1582	1.2161	-0.0118	-0.0191	-0.0098	33.1469	-12.9480	-1.9113	-0.5646	0.4267	-0.5044	-0.4946
11.07	-9.3737	0.1525	1.2166	-0.0047	-0.0158	-0.0110	33.0390	-12.8208	-1.9961	-0.5647	0.4266	-0.5044	-0.4947
11.08	-9.4011	0.1563	1.2206	-0.0128	-0.0114	-0.0189	33.0933	-12.8731	-2.0304	-0.5647	0.4266	-0.5044	-0.4947
11.09	-9.4096	0.1586	1.2286	-0.0101	-0.0208	-0.0154	32.9725	-12.9156	-1.6839	-0.5647	0.4265	-0.5044	-0.4947
11.1	-9.4098	0.1651	1.2348	-0.0111	-0.0182	-0.0140	32.8586	-12.7732	-2.0949	-0.5648	0.4265	-0.5043	-0.4948
11.11	-9.4091	0.1729	1.2345	-0.0030	-0.0190	-0.0133	32.9305	-12.6877	-2.2383	-0.5648	0.4264	-0.5043	-0.4948
11.12	-9.4135	0.1816	1.2347	-0.0123	-0.0115	-0.0152	32.7745	-12.8347	-1.9998	-0.5648	0.4263	-0.5043	-0.4948
11.13	-9.4128	0.1806	1.2341	-0.0093	-0.0171	-0.0186	32.9306	-12.6891	-2.0743	-0.5649	0.4263	-0.5043	-0.4949
11.14	-9.4272	0.1792	1.2473	-0.0193	-0.0171	-0.0211	33.0932	-12.6513	-1.8561	-0.5649	0.4263	-0.5042	-0.4949
11.15	-9.4259	0.1744	1.2302	-0.0192	-0.0124	-0.0194	32.8715	-12.7557	-1.9132	-0.5649	0.4263	-0.5042	-0.4950
11.16	-9.3845	0.1711	1.2406	-0.0153	-0.0191	-0.0265	32.8952	-12.7070	-2.0507	-0.5650	0.4262	-0.5041	-0.4950
11.17	-9.3899	0.1818	1.2498	-0.0343	-0.0160	-0.0229	33.0000	-12.7347	-1.9392	-0.5650	0.4263	-0.5040	-0.4950
11.18	-9.3981	0.1696	1.2424	-0.0372	-0.0159	-0.0243	32.9564	-12.7236	-2.0965	-0.5650	0.4263	-0.5039	-0.4951
11.19	-9.3938	0.1653	1.2359	-0.0384	-0.0149	-0.0241	33.0572	-13.0036	-1.9250	-0.5650	0.4264	-0.5038	-0.4952
11.2	-9.3840	0.1424	1.2533	-0.0361	-0.0200	-0.0170	33.0765	-12.8896	-2.0484	-0.5650	0.4264	-0.5036	-0.4953
11.21	-9.4031	0.1303	1.2610	-0.0382	-0.0225	-0.0168	33.0589	-12.6549	-2.0336	-0.5650	0.4264	-0.5035	-0.4954
11.22	-9.4022	0.1171	1.2475	-0.0386	-0.0201	-0.0160	32.8782	-12.8174	-1.8538	-0.5650	0.4264	-0.5034	-0.4955
11.23	-9.4118	0.1301	1.2504	-0.0310	-0.0215	-0.0172	32.9696	-12.7983	-2.2708	-0.5650	0.4264	-0.5033	-0.4956
11.24	-9.3998	0.1207	1.2588	-0.0381	-0.0328	-0.0176	33.0945	-12.8427	-2.0563	-0.5650	0.4264	-0.5032	-0.4958
11.25	-9.3999	0.1201	1.2658	-0.0346	-0.0259	-0.0156	32.8890	-12.8901	-1.9491	-0.5650	0.4264	-0.5030	-0.4959
