time	acceleration_x	acceleration_y	acceleration_z	gyroscope_x	gyroscope_y	gyroscope_z	magnetometer_x	magnetometer_y	magnetometer_z	quaternion_w	quaternion_x	quaternion_y	quaternion_z
0	-5.0656	0.2068	0.8209	0.0150	0.0222	-0.0049	12.0318	-8.4744	-4.2719	-0.2287	-0.3018	-0.1915	0.3499
0.01	-10.0442	0.4271	1.5992	0.0244	0.0590	-0.0159	24.1011	-16.7663	-8.4752	-0.4519	-0.5965	-0.3784	0.6913
0.02	-8.8832	0.3867	1.3801	0.0176	0.0643	-0.0136	21.0825	-14.7467	-7.3498	-0.3976	-0.5253	-0.3330	0.6083
0.03	-9.6101	0.4276	1.4727	0.0208	0.0859	-0.0114	22.4901	-15.7411	-7.7924	-0.4268	-0.5642	-0.3576	0.6529
0.04	-9.2820	0.4346	1.3654	0.0148	0.0952	-0.0023	21.5487	-14.7814	-7.3177	-0.4085	-0.5406	-0.3425	0.6249
0.05	-9.5401	0.4614	1.3498	0.0172	0.0942	-0.0141	22.0196	-15.5839	-7.7436	-0.4200	-0.5563	-0.3523	0.6424
0.06	-9.3615	0.4896	1.2740	0.0132	0.0948	-0.0123	21.8277	-15.2401	-7.6614	-0.4124	-0.5469	-0.3463	0.6309
0.07	-9.4836	0.5038	1.2328	-0.0014	0.0949	-0.0171	21.9624	-15.1774	-7.4712	-0.4168	-0.5531	-0.3502	0.6375
0.08	-9.5246	0.5164	1.1875	-0.0070	0.0904	-0.0265	21.8336	-15.1352	-7.5553	-0.4141	-0.5500	-0.3483	0.6333
0.09	-9.6728	0.5301	1.1750	-0.0081	0.0773	-0.0296	21.9857	-15.2273	-7.3707	-0.4153	-0.5519	-0.3496	0.6352
0.1	-9.7767	0.5291	1.1976	-0.0214	0.0480	-0.0357	21.8055	-15.3654	-7.6682	-0.4147	-0.5512	-0.3493	0.6342
0.11	-9.8847	0.5308	1.2349	-0.0335	0.0132	-0.0380	21.9873	-15.3015	-7.4860	-0.4147	-0.5512	-0.3494	0.6341
0.12	-9.9822	0.5267	1.2885	-0.0301	-0.0266	-0.0492	22.0477	-15.3874	-7.6520	-0.4148	-0.5510	-0.3496	0.6342
0.13	-10.0108	0.5243	1.3308	-0.0361	-0.0589	-0.0599	22.2977	-15.5085	-7.6021	-0.4149	-0.5506	-0.3496	0.6344
0.14	-9.9366	0.5083	1.4009	-0.0535	-0.1059	-0.0715	22.2679	-15.6133	-7.4861	-0.4151	-0.5501	-0.3497	0.6347
0.15	-9.7939	0.4868	1.4349	-0.0677	-0.1309	-0.0881	22.2924	-15.7164	-7.6048	-0.4153	-0.5494	-0.3498	0.6350
0.16	-9.5930	0.4268	1.4454	-0.0690	-0.1379	-0.0899	22.2162	-15.3179	-7.6431	-0.4156	-0.5487	-0.3499	0.6354
0.17	-9.5153	0.3817	1.5028	-0.0764	-0.1421	-0.0852	22.0808	-15.3485	-7.8015	-0.4158	-0.5480	-0.3500	0.6359
0.18	-9.4880	0.3613	1.4973	-0.0837	-0.1318	-0.0886	21.9862	-15.4090	-7.7738	-0.4161	-0.5472	-0.3502	0.6362
0.19	-9.4820	0.3318	1.5352	-0.0867	-0.1290	-0.0873	22.0589	-15.3010	-7.7581	-0.4164	-0.5465	-0.3503	0.6366
0.2	-9.4745	0.2974	1.5499	-0.0855	-0.1262	-0.0879	22.2130	-15.3424	-7.8805	-0.4167	-0.5458	-0.3505	0.6369
0.21	-9.4703	0.2555	1.5708	-0.0843	-0.1328	-0.0873	22.0679	-15.3343	-7.8442	-0.4169	-0.5450	-0.3507	0.6373
0.22	-9.4880	0.2084	1.5840	-0.0887	-0.1293	-0.0905	22.1395	-15.1449	-7.6315	-0.4172	-0.5443	-0.3509	0.6376
0.23	-9.4240	0.1540	1.5684	-0.0854	-0.1276	-0.0885	22.0057	-14.9941	-8.0133	-0.4175	-0.5436	-0.3510	0.6380
0.24	-9.3176	0.1204	1.5883	-0.0829	-0.1362	-0.0921	22.1123	-14.7863	-7.8429	-0.4177	-0.5428	-0.3512	0.6384
0.25	-9.2670	0.0932	1.5996	-0.0776	-0.1306	-0.0908	22.2138	-14.9398	-7.9339	-0.4180	-0.5421	-0.3513	0.6387
0.26	-9.2617	0.0684	1.5930	-0.0622	-0.1312	-0.0872	22.1925	-14.9902	-7.7343	-0.4182	-0.5414	-0.3514	0.6391
0.27	-9.2273	0.0572	1.6092	-0.0472	-0.1395	-0.0833	22.1348	-14.9819	-7.7355	-0.4184	-0.5407	-0.3515	0.6396
0.28	-9.1744	0.0549	1.6276	-0.0327	-0.1325	-0.0797	21.9687	-14.8752	-8.0265	-0.4186	-0.5401	-0.3514	0.6400
0.29	-9.1260	0.0444	1.6390	-0.0197	-0.1356	-0.0767	22.0769	-14.9198	-8.0913	-0.4187	-0.5395	-0.3513	0.6405
0.3	-9.1037	0.0342	1.6628	0.0015	-0.1309	-0.0657	22.1047	-15.0660	-7.9723	-0.4188	-0.5390	-0.3512	0.6409
0.31	-9.1083	0.0418	1.6793	0.0172	-0.1220	-0.0653	22.1110	-15.0759	-8.0499	-0.4189	-0.5385	-0.3510	0.6414
0.32	-9.0589	0.0460	1.6991	0.0374	-0.1189	-0.0598	22.1904	-15.0560	-8.1851	-0.4189	-0.5381	-0.3507	0.6418
0.33	-9.0750	0.0599	1.7417	0.0449	-0.1043	-0.0533	22.2430	-14.9338	-8.3194	-0.4189	-0.5378	-0.3504	0.6423
0.34	-9.0804	0.0760	1.7177	0.0601	-0.0817	-0.0632	22.3029	-15.0870	-8.2999	-0.4188	-0.5376	-0.3501	0.6427
0.35	-9.0757	0.0706	1.7337	0.0697	-0.0743	-0.0619	22.1874	-15.0455	-7.9895	-0.4186	-0.5374	-0.3499	0.6431
0.36	-9.0312	0.0851	1.7021	0.0824	-0.0643	-0.0602	22.0264	-15.1120	-8.1457	-0.4184	-0.5372	-0.3495	0.6435
0.37	-9.0517	0.1003	1.7488	0.1005	-0.0541	-0.0526	21.8486	-14.9739	-8.3123	-0.4181	-0.5372	-0.3492	0.6439
0.38	-9.1263	0.1195	1.7151	0.1133	-0.0293	-0.0528	22.2403	-15.0246	-8.0492	-0.4178	-0.5372	-0.3488	0.6443
0.39	-9.1808	0.1848	1.7361	0.1313	-0.0199	-0.0505	22.9342	-14.8798	-7.9392	-0.4172	-0.5375	-0.3483	0.6448
0.4	-9.2080	0.1945	1.7245	0.1226	-0.0117	-0.0496	23.0864	-14.6771	-7.9012	-0.4166	-0.5377	-0.3477	0.6452
0.41	-9.2769	0.2692	1.7292	0.1423	-0.0027	-0.0513	21.8615	-15.2400	-7.9814	-0.4161	-0.5380	-0.3473	0.6456
0.42	-9.3208	0.3060	1.7043	0.1280	0.0054	-0.0497	21.8099	-15.6722	-8.0412	-0.4157	-0.5382	-0.3470	0.6459
0.43	-9.3136	0.3286	1.6974	0.1305	0.0104	-0.0527	21.8804	-14.9600	-8.3239	-0.4153	-0.5384	-0.3466	0.6462
0.44	-9.3624	0.3672	1.7043	0.1254	0.0089	-0.0543	21.9064	-14.6106	-7.9289	-0.4148	-0.5386	-0.3463	0.6464
0.45	-9.3833	0.3977	1.7040	0.1220	0.0047	-0.0594	21.7886	-14.7433	-7.8662	-0.4144	-0.5388	-0.3460	0.6467
0.46	-9.3962	0.4329	1.7089	0.1195	-0.0015	-0.0645	21.8115	-14.8909	-8.1063	-0.4139	-0.5390	-0.3457	0.6470
0.47	-9.3471	0.4365	1.6946	0.0965	-0.0001	-0.0666	21.7459	-15.0230	-7.9165	-0.4135	-0.5391	-0.3455	0.6473
0.48	-9.3171	0.4526	1.7071	0.0795	-0.0038	-0.0642	21.6928	-14.8741	-8.0443	-0.4132	-0.5391	-0.3453	0.6476
0.49	-9.3425	0.4361	1.7191	0.0659	0.0058	-0.0630	21.6985	-14.8883	-7.7359	-0.4129	-0.5392	-0.3452	0.6478
0.5	-9.3981	0.4466	1.7238	0.0476	0.0074	-0.0567	21.8549	-14.9853	-7.9882	-0.4127	-0.5392	-0.3452	0.6479
0.51	-9.3960	0.4227	1.7407	0.0294	-0.0145	-0.0601	22.0576	-14.9643	-8.0654	-0.4125	-0.5392	-0.3451	0.6481
0.52	-9.4094	0.4105	1.7723	0.0101	-0.0162	-0.0571	22.0857	-14.9643	-7.8298	-0.4124	-0.5391	-0.3452	0.6482
0.53	-9.3889	0.4048	1.7787	-0.0116	-0.0171	-0.0593	21.9254	-14.9810	-8.1326	-0.4123	-0.5389	-0.3452	0.6484
0.54	-9.3172	0.3745	1.7715	-0.0320	-0.0241	-0.0488	21.9137	-14.7961	-8.0132	-0.4124	-0.5387	-0.3454	0.6484
0.55	-9.2846	0.3624	1.7830	-0.0477	-0.0209	-0.0460	21.9972	-14.8639	-8.1940	-0.4125	-0.5385	-0.3455	0.6485
0.56	-9.2626	0.3246	1.7661	-0.0755	-0.0187	-0.0494	21.9676	-14.8216	-8.0305	-0.4126	-0.5382	-0.3458	0.6485
0.57	-9.2681	0.2846	1.7867	-0.0889	-0.0180	-0.0435	21.9696	-14.5340	-8.1560	-0.4129	-0.5379	-0.3461	0.6484
0.58	-9.2916	0.2384	1.7817	-0.1082	-0.0188	-0.0433	21.8326	-14.9083	-8.2311	-0.4131	-0.5376	-0.3464	0.6484
0.59	-9.2870	0.1871	1.7911	-0.1132	-0.0141	-0.0395	21.9970	-14.7199	-7.8373	-0.4134	-0.5372	-0.3468	0.6483
0.6	-9.2895	0.1489	1.7932	-0.1245	-0.0119	-0.0390	21.8607	-14.6103	-8.0145	-0.4137	-0.5369	-0.3472	0.6481
0.61	-9.2476	0.0954	1.7929	-0.1337	-0.0108	-0.0351	22.0474	-14.8516	-8.1146	-0.4141	-0.5365	-0.3476	0.6480
0.62	-9.2641	0.0514	1.8078	-0.1356	-0.0086	-0.0377	21.8195	-14.5296	-8.1965	-0.4144	-0.5362	-0.3481	0.6478
0.63	-9.2629	0.0059	1.7894	-0.1353	-0.0025	-0.0314	21.8088	-14.5253	-8.1538	-0.4148	-0.5358	-0.3486	0.6476
0.64	-9.2517	-0.0403	1.7908	-0.1371	0.0091	-0.0251	21.5442	-14.6520	-8.1927	-0.4151	-0.5355	-0.3490	0.6474
0.65	-9.2410	-0.0743	1.7794	-0.1204	0.0172	-0.0252	21.7563	-14.7360	-8.1208	-0.4154	-0.5353	-0.3494	0.6471
0.66	-9.2191	-0.0950	1.7675	-0.1073	0.0258	-0.0255	22.0240	-14.6763	-8.0369	-0.4157	-0.5351	-0.3498	0.6469
0.67	-9.2041	-0.1078	1.7519	-0.0870	0.0318	-0.0220	21.8595	-14.7519	-8.2014	-0.4159	-0.5350	-0.3502	0.6467
0.68	-9.1822	-0.1147	1.7346	-0.0788	0.0354	-0.0200	21.8916	-14.4977	-8.2650	-0.4160	-0.5350	-0.3505	0.6464
0.69	-9.1920	-0.1277	1.7378	-0.0636	0.0423	-0.0119	21.9187	-14.5068	-8.3018	-0.4162	-0.5349	-0.3508	0.6462
0.7	-9.2448	-0.1202	1.7226	-0.0577	0.0527	-0.0154	22.0910	-14.8373	-8.4760	-0.4163	-0.5350	-0.3510	0.6460
0.71	-9.2708	-0.1206	1.6889	-0.0402	0.0512	-0.0147	22.0391	-14.6781	-8.2002	-0.4164	-0.5351	-0.3513	0.6457
0.72	-9.2674	-0.1179	1.6742	-0.0297	0.0562	-0.0131	22.1071	-14.7126	-8.1624	-0.4164	-0.5352	-0.3515	0.6455
0.73	-9.2900	-0.1112	1.6606	-0.0083	0.0663	-0.0120	21.9267	-14.7110	-8.1560	-0.4163	-0.5353	-0.3516	0.6453
0.74	-9.3469	-0.0995	1.6351	0.0088	0.0716	-0.0156	21.7563	-14.6926	-8.2788	-0.4162	-0.5356	-0.3517	0.6452
0.75	-9.3931	-0.0785	1.6191	0.0175	0.0619	-0.0176	22.1962	-14.7398	-7.9854	-0.4161	-0.5358	-0.3517	0.6450
0.76	-9.3956	-0.0663	1.5975	0.0317	0.0598	-0.0147	22.0640	-14.6127	-8.0320	-0.4160	-0.5360	-0.3518	0.6449
0.77	-9.3758	-0.0482	1.5994	0.0509	0.0562	-0.0136	22.1435	-14.7062	-8.0987	-0.4158	-0.5363	-0.3517	0.6448
0.78	-9.3916	-0.0018	1.5833	0.0587	0.0567	-0.0118	22.1630	-14.7748	-8.1501	-0.4156	-0.5366	-0.3516	0.6448
0.79	-9.3956	0.0464	1.5558	0.0701	0.0518	-0.0082	21.8582	-14.5989	-7.9133	-0.4153	-0.5369	-0.3514	0.6447
0.8	-9.3948	0.1145	1.5385	0.0722	0.0541	-0.0080	21.9643	-15.0224	-8.0890	-0.4151	-0.5373	-0.3513	0.6447
0.81	-9.4105	0.1652	1.5274	0.0708	0.0538	-0.0106	21.9827	-14.7878	-7.9614	-0.4149	-0.5376	-0.3511	0.6447
0.82	-9.4765	0.2064	1.5271	0.0698	0.0555	-0.0141	21.7455	-14.5460	-8.1297	-0.4146	-0.5379	-0.3510	0.6446
0.83	-9.5109	0.2331	1.4993	0.0677	0.0510	-0.0197	21.8500	-14.5689	-7.8101	-0.4144	-0.5382	-0.3508	0.6446
0.84	-9.5117	0.2537	1.5047	0.0604	0.0416	-0.0295	21.9772	-14.6521	-7.8847	-0.4141	-0.5384	-0.3508	0.6447
0.85	-9.5443	0.2765	1.5234	0.0472	0.0388	-0.0323	21.9769	-14.4879	-7.8842	-0.4139	-0.5386	-0.3507	0.6447
0.86	-9.5503	0.2923	1.5250	0.0448	0.0196	-0.0305	21.9808	-14.8360	-7.6596	-0.4137	-0.5387	-0.3506	0.6447
0.87	-9.5687	0.3093	1.5448	0.0317	0.0130	-0.0322	21.9471	-14.6782	-7.9343	-0.4136	-0.5388	-0.3506	0.6448
0.88	-9.5667	0.3113	1.5489	0.0137	-0.0081	-0.0330	22.1947	-14.8286	-7.7764	-0.4136	-0.5388	-0.3505	0.6448
0.89	-9.6184	0.3152	1.5975	0.0038	-0.0209	-0.0292	22.7640	-14.7111	-7.8015	-0.4135	-0.5387	-0.3505	0.6450
0.9	-9.5489	0.3073	1.5731	-0.0273	-0.0407	-0.0318	23.0595	-14.4357	-7.6773	-0.4134	-0.5386	-0.3503	0.6452
0.91	-9.4452	0.3107	1.6267	-0.0336	-0.0498	-0.0345	22.4952	-14.9666	-7.8795	-0.4135	-0.5384	-0.3503	0.6453
0.92	-9.3736	0.3144	1.5923	-0.0516	-0.0432	-0.0358	22.3494	-15.7432	-7.8401	-0.4137	-0.5381	-0.3504	0.6454
0.93	-9.2624	0.2915	1.6012	-0.0729	-0.0531	-0.0337	22.1563	-14.9906	-8.0409	-0.4139	-0.5377	-0.3505	0.6455
0.94	-9.2736	0.2760	1.6597	-0.0876	-0.0476	-0.0390	22.1738	-14.4639	-8.0452	-0.4142	-0.5373	-0.3508	0.6455
0.95	-9.2972	0.2408	1.6621	-0.1094	-0.0499	-0.0405	22.0430	-14.7901	-7.9373	-0.4145	-0.5369	-0.3510	0.6455
0.96	-9.2444	0.2040	1.6843	-0.1270	-0.0548	-0.0428	22.1938	-14.5543	-8.1438	-0.4149	-0.5364	-0.3514	0.6455
0.97	-9.2579	0.1683	1.7302	-0.1420	-0.0523	-0.0444	22.2333	-14.6767	-7.9883	-0.4153	-0.5359	-0.3518	0.6454
0.98	-9.3065	0.1198	1.6900	-0.1566	-0.0497	-0.0393	22.3212	-14.5081	-8.0611	-0.4158	-0.5354	-0.3522	0.6453
0.99	-9.2955	0.0721	1.7068	-0.1615	-0.0616	-0.0367	22.2482	-14.6465	-8.0832	-0.4163	-0.5348	-0.3527	0.6452
1	-9.2921	0.0478	1.7229	-0.1598	-0.0666	-0.0362	22.1136	-14.4657	-8.0950	-0.4168	-0.5342	-0.3531	0.6452
1.01	-9.2732	0.0045	1.7167	-0.1703	-0.0739	-0.0377	22.2017	-14.4838	-8.2262	-0.4173	-0.5335	-0.3535	0.6451
1.02	-9.2903	-0.0219	1.7218	-0.1740	-0.0754	-0.0375	22.3484	-14.5720	-8.0614	-0.4179	-0.5329	-0.3540	0.6451
1.03	-9.3608	-0.0646	1.7430	-0.1775	-0.0822	-0.0379	22.2138	-14.3968	-8.0963	-0.4185	-0.5322	-0.3544	0.6450
1.04	-9.5303	-0.1075	1.7501	-0.1773	-0.0876	-0.0375	22.2786	-14.3697	-8.2182	-0.4191	-0.5315	-0.3548	0.6450
1.05	-9.5062	-0.1481	1.6435	-0.1636	-0.1183	-0.0382	22.1418	-14.7894	-8.3453	-0.4197	-0.5307	-0.3552	0.6450
1.06	-9.3015	-0.1527	1.6317	-0.1478	-0.1479	-0.0382	22.2454	-14.8089	-8.3540	-0.4203	-0.5299	-0.3554	0.6452
1.07	-9.1663	-0.1310	1.6671	-0.1354	-0.1422	-0.0358	22.3341	-14.6805	-8.3536	-0.4208	-0.5291	-0.3556	0.6454
1.08	-9.1342	-0.1461	1.6519	-0.1288	-0.1208	-0.0272	22.1883	-14.7360	-8.5306	-0.4214	-0.5284	-0.3557	0.6455
1.09	-9.1155	-0.1821	1.6544	-0.1148	-0.0952	-0.0332	22.3352	-14.6420	-8.5376	-0.4219	-0.5278	-0.3559	0.6456
1.1	-9.1313	-0.2166	1.6640	-0.1016	-0.0742	-0.0372	22.3369	-14.5089	-8.5483	-0.4222	-0.5273	-0.3561	0.6456
1.11	-9.1938	-0.2337	1.6628	-0.0777	-0.0471	-0.0352	22.1797	-14.4337	-8.5290	-0.4225	-0.5269	-0.3563	0.6457
1.12	-9.2684	-0.2387	1.6471	-0.0623	-0.0361	-0.0353	22.3655	-14.4566	-8.5966	-0.4227	-0.5266	-0.3565	0.6457
1.13	-9.2682	-0.2400	1.6334	-0.0394	-0.0181	-0.0342	22.1306	-14.4333	-8.7424	-0.4228	-0.5264	-0.3566	0.6457
1.14	-9.3573	-0.2279	1.6913	-0.0218	-0.0141	-0.0315	22.1878	-14.6847	-8.7227	-0.4229	-0.5263	-0.3567	0.6457
1.15	-9.4711	-0.2185	1.6576	-0.0042	0.0030	-0.0285	22.2126	-14.3891	-8.7117	-0.4229	-0.5262	-0.3567	0.6458
1.16	-9.4598	-0.2107	1.6455	0.0153	0.0004	-0.0333	22.1355	-14.3697	-8.5138	-0.4228	-0.5262	-0.3567	0.6458
1.17	-9.4500	-0.1865	1.6845	0.0356	-0.0165	-0.0281	22.0702	-14.2491	-8.6728	-0.4227	-0.5262	-0.3566	0.6460
1.18	-9.4886	-0.1638	1.6685	0.0454	-0.0002	-0.0224	21.9365	-14.3230	-8.7320	-0.4226	-0.5263	-0.3564	0.6460
1.19	-9.5036	-0.1424	1.6484	0.0620	-0.0145	-0.0274	22.0039	-14.3544	-8.5521	-0.4225	-0.5263	-0.3562	0.6462
1.2	-9.5508	-0.1088	1.6945	0.0724	-0.0239	-0.0254	21.9360	-14.4588	-8.5284	-0.4223	-0.5264	-0.3560	0.6464
1.21	-9.5903	-0.0678	1.6892	0.0880	-0.0373	-0.0185	22.1266	-14.4239	-8.6805	-0.4222	-0.5264	-0.3556	0.6467
1.22	-9.5068	-0.0366	1.6845	0.1029	-0.0575	-0.0162	22.1132	-14.3724	-8.4043	-0.4220	-0.5264	-0.3551	0.6470
1.23	-9.4451	0.0012	1.7448	0.1045	-0.0708	-0.0101	22.0471	-14.5255	-8.3950	-0.4219	-0.5264	-0.3546	0.6474
1.24	-9.4284	0.0434	1.7602	0.1032	-0.0807	-0.0115	22.0544	-14.6497	-8.5786	-0.4218	-0.5264	-0.3541	0.6477
1.25	-9.4144	0.0654	1.7983	0.1044	-0.0893	-0.0080	22.2150	-14.6910	-8.3872	-0.4218	-0.5263	-0.3536	0.6481
1.26	-9.3530	0.0987	1.8093	0.1120	-0.0920	-0.0065	22.5821	-14.4418	-8.7277	-0.4217	-0.5263	-0.3530	0.6486
1.27	-9.2960	0.1168	1.8565	0.1013	-0.0978	-0.0086	22.3197	-14.7369	-8.6420	-0.4217	-0.5262	-0.3524	0.6490
1.28	-9.3142	0.1408	1.9013	0.0996	-0.0932	-0.0038	22.2359	-14.6969	-8.5261	-0.4216	-0.5261	-0.3518	0.6494
1.29	-9.2290	0.1240	1.8729	0.0822	-0.0922	-0.0050	22.2260	-14.7336	-8.5157	-0.4216	-0.5260	-0.3513	0.6497
1.3	-9.2122	0.0996	1.9340	0.0754	-0.0943	0.0016	22.2802	-14.6439	-8.3872	-0.4217	-0.5259	-0.3508	0.6501
1.31	-9.2293	0.0966	1.9175	0.0698	-0.0865	0.0138	22.0323	-14.6026	-8.6619	-0.4217	-0.5258	-0.3503	0.6504
1.32	-9.1879	0.0869	1.9301	0.0708	-0.0879	0.0221	22.0971	-14.7685	-8.6144	-0.4219	-0.5257	-0.3498	0.6507
1.33	-9.2103	0.0979	1.9752	0.0670	-0.0921	0.0335	22.1501	-14.6166	-8.6529	-0.4220	-0.5256	-0.3492	0.6509
1.34	-9.1382	0.0756	1.9456	0.0665	-0.0886	0.0393	22.2299	-14.4099	-8.5568	-0.4222	-0.5255	-0.3487	0.6512
1.35	-9.1119	0.1158	1.9988	0.0698	-0.0873	0.0593	22.2485	-14.6598	-8.5188	-0.4224	-0.5255	-0.3481	0.6513
1.36	-9.1138	0.1714	2.0044	0.0701	-0.0751	0.0702	21.8385	-14.6036	-8.7116	-0.4227	-0.5255	-0.3474	0.6515
1.37	-9.0745	0.1975	2.0131	0.0691	-0.0624	0.0755	21.9562	-14.6900	-8.4694	-0.4229	-0.5256	-0.3468	0.6516
1.38	-9.1155	0.2420	2.0378	0.0687	-0.0553	0.0768	22.1010	-14.6756	-8.4393	-0.4232	-0.5257	-0.3462	0.6517
1.39	-9.1384	0.2731	2.0080	0.0574	-0.0524	0.0792	22.5744	-14.4310	-8.5494	-0.4233	-0.5259	-0.3455	0.6518
1.4	-9.1663	0.2993	2.0094	0.0641	-0.0408	0.0755	22.6759	-14.3689	-8.4517	-0.4233	-0.5262	-0.3448	0.6520
1.41	-9.1300	0.3081	1.9882	0.0578	-0.0327	0.0675	21.6988	-15.0151	-8.4617	-0.4234	-0.5264	-0.3442	0.6520
1.42	-9.1427	0.3749	2.0113	0.0629	-0.0306	0.0696	21.5376	-15.7033	-8.4197	-0.4236	-0.5265	-0.3437	0.6520
1.43	-9.1500	0.4224	1.9923	0.0515	-0.0257	0.0660	21.6054	-15.0036	-8.5702	-0.4238	-0.5267	-0.3433	0.6520
1.44	-9.1177	0.4393	1.9954	0.0470	-0.0194	0.0667	21.8800	-14.7548	-8.5264	-0.4240	-0.5269	-0.3428	0.6520
1.45	-9.0957	0.4416	2.0178	0.0423	-0.0040	0.0529	21.7431	-14.9180	-8.6209	-0.4242	-0.5271	-0.3425	0.6519
1.46	-9.1090	0.4650	2.0372	0.0390	0.0090	0.0424	21.7582	-14.7492	-8.8864	-0.4243	-0.5273	-0.3422	0.6518
1.47	-9.1220	0.5004	2.0417	0.0320	0.0166	0.0288	21.7376	-15.0646	-8.7448	-0.4243	-0.5274	-0.3420	0.6518
1.48	-9.1234	0.5135	2.0613	0.0274	0.0354	0.0155	21.5352	-14.7674	-8.7517	-0.4243	-0.5276	-0.3419	0.6516
1.49	-9.1435	0.5030	2.0505	0.0148	0.0627	-0.0009	21.7887	-14.8608	-8.6124	-0.4243	-0.5279	-0.3419	0.6515
1.5	-9.1347	0.4988	2.0524	-0.0045	0.0647	-0.0139	21.5892	-14.8918	-8.6874	-0.4242	-0.5281	-0.3420	0.6513
1.51	-9.2307	0.5133	2.0816	-0.0128	0.0793	-0.0275	21.6288	-14.7996	-8.7223	-0.4241	-0.5283	-0.3423	0.6511
1.52	-9.3025	0.4912	2.0409	-0.0310	0.0799	-0.0389	21.6190	-14.7809	-8.8434	-0.4240	-0.5284	-0.3426	0.6509
1.53	-9.3337	0.4642	2.0146	-0.0309	0.0812	-0.0440	21.5257	-14.7589	-8.6897	-0.4238	-0.5286	-0.3429	0.6507
1.54	-9.2062	0.4376	1.9612	-0.0521	0.0832	-0.0636	21.6543	-14.8437	-8.6723	-0.4237	-0.5287	-0.3434	0.6505
1.55	-9.2075	0.4106	2.0253	-0.0579	0.0861	-0.0695	21.5994	-15.0328	-8.4753	-0.4236	-0.5287	-0.3439	0.6503
1.56	-9.2759	0.3699	1.9385	-0.0767	0.1070	-0.0860	21.5553	-14.7299	-8.5421	-0.4234	-0.5288	-0.3445	0.6500
1.57	-9.2668	0.3241	1.9466	-0.0842	0.0893	-0.0864	21.8134	-14.8211	-8.6514	-0.4232	-0.5288	-0.3451	0.6497
1.58	-9.3011	0.2839	1.9401	-0.0863	0.0977	-0.0976	21.7060	-14.6932	-8.5065	-0.4230	-0.5287	-0.3458	0.6495
1.59	-9.3136	0.2044	1.9005	-0.1007	0.1010	-0.1101	21.8599	-14.7559	-8.5835	-0.4229	-0.5287	-0.3466	0.6493
1.6	-9.3612	0.1486	1.8898	-0.0956	0.0972	-0.1088	21.8233	-14.8796	-8.4239	-0.4227	-0.5286	-0.3473	0.6490
1.61	-9.3572	0.1016	1.8542	-0.0885	0.0901	-0.1094	21.7492	-14.7340	-8.4837	-0.4225	-0.5286	-0.3481	0.6488
1.62	-9.3501	0.0584	1.8590	-0.0872	0.0879	-0.1120	21.9430	-14.8412	-8.6370	-0.4222	-0.5285	-0.3488	0.6487
1.63	-9.3605	0.0226	1.8416	-0.0858	0.0889	-0.1134	21.9223	-14.9023	-8.6380	-0.4220	-0.5284	-0.3495	0.6485
1.64	-9.3309	-0.0416	1.8274	-0.0807	0.0852	-0.1121	21.9455	-14.6936	-8.5422	-0.4218	-0.5283	-0.3502	0.6483
1.65	-9.3280	-0.0844	1.8090	-0.0842	0.0882	-0.1091	21.7433	-14.7803	-8.5209	-0.4216	-0.5283	-0.3509	0.6481
1.66	-9.3004	-0.1233	1.8010	-0.0747	0.0779	-0.1163	21.8265	-14.8736	-8.3927	-0.4213	-0.5282	-0.3516	0.6480
1.67	-9.3543	-0.1502	1.8121	-0.0623	0.0874	-0.1088	21.9396	-14.4259	-8.7120	-0.4211	-0.5282	-0.3522	0.6479
1.68	-9.3573	-0.1805	1.7736	-0.0550	0.0873	-0.1090	21.8346	-14.7206	-8.5700	-0.4208	-0.5281	-0.3528	0.6477
1.69	-9.3829	-0.1893	1.7761	-0.0432	0.0793	-0.0997	22.2225	-14.5698	-8.6038	-0.4205	-0.5281	-0.3533	0.6476
1.7	-9.3770	-0.1948	1.7766	-0.0332	0.0713	-0.0933	22.1205	-14.4057	-8.6800	-0.4202	-0.5282	-0.3538	0.6475
1.71	-9.4480	-0.1993	1.8002	-0.0288	0.0568	-0.0851	22.0004	-14.5196	-8.4133	-0.4200	-0.5282	-0.3542	0.6475
1.72	-9.3999	-0.2208	1.7528	-0.0204	0.0510	-0.0832	22.0367	-14.5400	-8.4918	-0.4198	-0.5281	-0.3545	0.6474
1.73	-9.3733	-0.2206	1.7984	-0.0123	0.0398	-0.0795	21.7382	-14.6462	-8.3968	-0.4195	-0.5281	-0.3548	0.6474
1.74	-9.3729	-0.2235	1.7594	-0.0065	0.0352	-0.0703	21.8593	-14.4098	-8.2503	-0.4193	-0.5281	-0.3550	0.6474
1.75	-9.3214	-0.2179	1.7611	-0.0042	0.0311	-0.0612	21.9508	-14.1665	-8.3306	-0.4192	-0.5281	-0.3552	0.6475
1.76	-9.3217	-0.2188	1.7803	-0.0050	0.0278	-0.0440	22.1399	-14.2087	-8.3646	-0.4191	-0.5281	-0.3554	0.6474
1.77	-9.3395	-0.2039	1.7736	0.0013	0.0249	-0.0325	21.9531	-14.2621	-8.1416	-0.4190	-0.5282	-0.3555	0.6474
1.78	-9.3481	-0.1872	1.7822	0.0069	0.0260	-0.0279	21.8295	-14.2397	-8.4421	-0.4189	-0.5282	-0.3555	0.6474
1.79	-9.3423	-0.1623	1.7866	0.0125	0.0204	-0.0214	22.1203	-14.3946	-8.4426	-0.4188	-0.5283	-0.3556	0.6474
1.8	-9.3354	-0.1474	1.7854	0.0160	0.0064	-0.0089	21.8933	-14.4523	-8.3177	-0.4188	-0.5284	-0.3555	0.6473
1.81	-9.3066	-0.1307	1.7887	0.0198	0.0101	-0.0068	22.0535	-14.3064	-8.5123	-0.4188	-0.5284	-0.3554	0.6473
1.82	-9.3202	-0.1027	1.8126	0.0160	0.0125	-0.0084	22.2125	-14.4848	-8.4005	-0.4188	-0.5285	-0.3554	0.6473
1.83	-9.3266	-0.1026	1.7866	0.0151	0.0130	-0.0044	21.8861	-14.4794	-8.4330	-0.4187	-0.5286	-0.3553	0.6473
1.84	-9.3024	-0.0985	1.7789	0.0035	0.0119	-0.0053	22.0846	-14.3396	-8.7227	-0.4188	-0.5287	-0.3553	0.6472
1.85	-9.2939	-0.0871	1.7724	0.0158	0.0239	-0.0070	22.2561	-14.3069	-8.3940	-0.4187	-0.5288	-0.3553	0.6472
1.86	-9.2891	-0.1049	1.7601	0.0021	0.0222	-0.0081	22.1242	-14.3941	-8.4060	-0.4187	-0.5289	-0.3553	0.6471
1.87	-9.3227	-0.0911	1.7628	0.0106	0.0269	-0.0060	21.9616	-14.4051	-8.4977	-0.4187	-0.5290	-0.3553	0.6470
1.88	-9.3488	-0.0757	1.7541	0.0202	0.0275	-0.0014	22.2698	-14.4765	-8.3663	-0.4187	-0.5291	-0.3552	0.6470
1.89	-9.3361	-0.0844	1.7386	0.0160	0.0280	0.0032	22.5870	-14.3048	-8.3588	-0.4186	-0.5293	-0.3551	0.6469
1.9	-9.3518	-0.0583	1.7364	0.0199	0.0266	0.0097	22.6214	-14.1589	-8.2899	-0.4185	-0.5295	-0.3550	0.6469
1.91	-9.3551	-0.0390	1.7155	0.0179	0.0298	0.0087	21.9480	-14.6487	-8.1638	-0.4185	-0.5297	-0.3549	0.6468
1.92	-9.3288	-0.0181	1.7027	0.0193	0.0247	0.0099	21.7556	-15.4010	-8.0429	-0.4185	-0.5298	-0.3548	0.6467
1.93	-9.3160	0.0088	1.6990	0.0173	0.0290	0.0070	21.5343	-14.7654	-8.2379	-0.4185	-0.5300	-0.3548	0.6466
1.94	-9.3146	0.0176	1.6853	0.0197	0.0378	0.0065	21.6655	-14.4762	-8.3074	-0.4185	-0.5302	-0.3547	0.6465
1.95	-9.3327	0.0263	1.6668	0.0178	0.0426	-0.0073	21.7892	-14.6819	-8.1881	-0.4184	-0.5304	-0.3547	0.6464
1.96	-9.3395	0.0184	1.6573	0.0204	0.0365	-0.0047	21.7660	-14.2582	-8.1817	-0.4184	-0.5305	-0.3547	0.6463
1.97	-9.3773	0.0164	1.6568	0.0204	0.0394	-0.0080	21.8242	-14.5157	-8.2219	-0.4183	-0.5307	-0.3547	0.6462
1.98	-9.4207	0.0160	1.6449	0.0222	0.0335	-0.0062	21.8963	-14.5961	-8.3662	-0.4182	-0.5309	-0.3547	0.6462
1.99	-9.4202	0.0153	1.6359	0.0340	0.0236	-0.0079	21.7715	-14.3532	-8.3962	-0.4181	-0.5310	-0.3546	0.6461
2	-9.3917	0.0310	1.6383	0.0352	0.0132	-0.0095	21.7705	-14.6486	-8.2108	-0.4180	-0.5311	-0.3545	0.6461
2.01	-9.3787	0.0465	1.6396	0.0426	0.0101	-0.0092	21.8205	-14.6103	-8.2170	-0.4179	-0.5313	-0.3543	0.6462
2.02	-9.3636	0.0563	1.6382	0.0408	0.0069	-0.0141	21.9632	-14.8120	-8.3869	-0.4178	-0.5314	-0.3542	0.6462
2.03	-9.3792	0.0624	1.6558	0.0405	0.0029	-0.0188	21.9617	-14.9254	-8.2573	-0.4177	-0.5314	-0.3541	0.6463
2.04	-9.3735	0.0721	1.6362	0.0317	0.0063	-0.0264	21.9319	-14.7746	-8.1127	-0.4176	-0.5315	-0.3540	0.6464
2.05	-9.3298	0.0742	1.6560	0.0276	0.0037	-0.0273	21.7910	-14.8685	-8.1160	-0.4175	-0.5315	-0.3540	0.6464
2.06	-9.3828	0.0898	1.6705	0.0186	0.0030	-0.0244	21.6820	-14.6911	-8.4066	-0.4175	-0.5316	-0.3539	0.6465
2.07	-9.3776	0.0828	1.6469	0.0161	-0.0021	-0.0262	21.6933	-14.9109	-8.2230	-0.4174	-0.5316	-0.3539	0.6465
2.08	-9.3550	0.0930	1.6716	0.0200	-0.0046	-0.0221	21.8530	-14.8229	-8.1582	-0.4174	-0.5316	-0.3538	0.6466
2.09	-9.3642	0.0799	1.6682	0.0050	0.0025	-0.0230	21.8915	-14.6273	-8.2189	-0.4173	-0.5316	-0.3538	0.6466
2.1	-9.3577	0.0581	1.6634	-0.0041	-0.0008	-0.0305	21.6601	-14.6472	-8.0448	-0.4173	-0.5315	-0.3539	0.6466
2.11	-9.3571	0.0570	1.6719	-0.0033	-0.0058	-0.0211	21.8416	-14.4001	-8.1812	-0.4173	-0.5315	-0.3539	0.6466
2.12	-9.3447	0.0444	1.6709	-0.0114	-0.0094	-0.0155	21.6761	-14.5615	-8.3338	-0.4174	-0.5314	-0.3539	0.6466
2.13	-9.3270	0.0356	1.6771	-0.0082	-0.0096	-0.0122	21.7932	-14.5606	-8.1708	-0.4175	-0.5314	-0.3539	0.6466
2.14	-9.3179	0.0304	1.6718	-0.0212	-0.0050	-0.0092	21.6504	-14.5520	-8.1884	-0.4175	-0.5313	-0.3539	0.6466
2.15	-9.2965	0.0201	1.6677	-0.0222	-0.0053	-0.0084	21.7615	-14.7424	-8.2080	-0.4177	-0.5312	-0.3540	0.6466
2.16	-9.2768	0.0080	1.6570	-0.0285	-0.0014	-0.0090	21.7228	-14.6601	-8.3911	-0.4178	-0.5312	-0.3540	0.6465
2.17	-9.2886	0.0061	1.6599	-0.0335	0.0094	-0.0057	21.6553	-14.6416	-8.2671	-0.4179	-0.5311	-0.3542	0.6464
2.18	-9.3255	-0.0052	1.6612	-0.0296	0.0075	-0.0050	21.9870	-14.7753	-8.2751	-0.4180	-0.5311	-0.3542	0.6463
2.19	-9.3426	-0.0098	1.6565	-0.0181	0.0131	-0.0043	21.8684	-15.0726	-8.2704	-0.4181	-0.5311	-0.3543	0.6462
2.2	-9.3508	-0.0100	1.6677	-0.0072	0.0096	-0.0014	21.8863	-14.7043	-8.2694	-0.4182	-0.5311	-0.3543	0.6461
2.21	-9.3621	-0.0147	1.6570	-0.0076	0.0120	0.0012	21.8235	-14.7810	-8.2882	-0.4182	-0.5312	-0.3543	0.6461
2.22	-9.3610	-0.0228	1.6500	-0.0047	0.0031	0.0109	21.9702	-14.9166	-8.2420	-0.4183	-0.5312	-0.3543	0.6460
2.23	-9.3538	-0.0249	1.6430	-0.0069	-0.0009	0.0037	21.7929	-14.7666	-8.3700	-0.4184	-0.5312	-0.3542	0.6459
2.24	-9.3575	-0.0242	1.6433	-0.0031	0.0016	0.0005	21.8754	-14.9477	-8.2710	-0.4185	-0.5312	-0.3542	0.6459
2.25	-9.3527	-0.0324	1.6445	0.0115	0.0026	0.0002	21.9368	-14.7639	-8.1479	-0.4185	-0.5313	-0.3541	0.6459
2.26	-9.3663	-0.0129	1.6507	0.0162	-0.0060	-0.0027	21.5172	-14.7134	-8.2321	-0.4186	-0.5313	-0.3540	0.6459
2.27	-9.3637	0.0095	1.6618	0.0173	-0.0056	-0.0030	21.7291	-14.8227	-8.3911	-0.4186	-0.5313	-0.3539	0.6459
2.28	-9.4093	0.0308	1.6960	0.0177	-0.0070	-0.0095	21.6518	-14.8289	-8.2354	-0.4186	-0.5314	-0.3538	0.6459
2.29	-9.4590	0.0408	1.7031	0.0194	-0.0105	0.0007	21.6011	-14.5355	-8.3447	-0.4186	-0.5314	-0.3537	0.6460
2.3	-9.4322	0.0520	1.7121	0.0191	-0.0178	-0.0037	21.5774	-14.6418	-8.3367	-0.4187	-0.5314	-0.3536	0.6460
2.31	-9.4119	0.0798	1.7297	0.0199	-0.0275	0.0033	21.7148	-14.6422	-8.1531	-0.4187	-0.5314	-0.3534	0.6461
2.32	-9.3744	0.0972	1.7115	0.0196	-0.0315	0.0063	21.6479	-14.6677	-8.2109	-0.4188	-0.5313	-0.3532	0.6461
2.33	-9.3412	0.1111	1.7248	0.0193	-0.0358	0.0034	21.6192	-14.7620	-8.1532	-0.4189	-0.5313	-0.3530	0.6462
2.34	-9.3334	0.1187	1.7284	0.0213	-0.0360	0.0043	21.7872	-14.7127	-8.2721	-0.4190	-0.5312	-0.3528	0.6463
2.35	-9.3281	0.1089	1.7305	0.0146	-0.0356	-0.0059	21.7930	-14.8444	-8.3717	-0.4191	-0.5312	-0.3527	0.6464
2.36	-9.3616	0.1168	1.7500	0.0092	-0.0432	-0.0046	21.5959	-14.8088	-8.2423	-0.4192	-0.5311	-0.3525	0.6465
2.37	-9.3441	0.1140	1.7430	0.0137	-0.0481	-0.0087	21.6949	-14.8718	-8.3006	-0.4192	-0.5309	-0.3524	0.6467
2.38	-9.3211	0.1036	1.7767	-0.0027	-0.0529	-0.0091	22.0313	-14.9562	-8.1775	-0.4194	-0.5308	-0.3523	0.6468
2.39	-9.3208	0.0885	1.7732	-0.0038	-0.0494	-0.0087	22.3370	-14.8309	-8.0532	-0.4195	-0.5306	-0.3521	0.6469
2.4	-9.3272	0.0840	1.7974	-0.0034	-0.0523	-0.0099	22.5298	-14.6915	-7.8639	-0.4196	-0.5304	-0.3520	0.6470
2.41	-9.3277	0.0796	1.8161	-0.0089	-0.0541	-0.0020	21.8701	-15.0158	-8.1610	-0.4198	-0.5302	-0.3519	0.6471
2.42	-9.2997	0.0693	1.8268	-0.0041	-0.0588	0.0040	21.9191	-15.5105	-8.3158	-0.4200	-0.5301	-0.3518	0.6472
2.43	-9.2654	0.0635	1.8515	-0.0037	-0.0587	0.0030	21.8743	-15.0143	-8.1948	-0.4202	-0.5299	-0.3516	0.6473
2.44	-9.2453	0.0677	1.8621	-0.0055	-0.0510	0.0044	21.7228	-14.5229	-8.2650	-0.4204	-0.5297	-0.3515	0.6474
2.45	-9.2222	0.0735	1.8620	0.0011	-0.0458	0.0119	21.8081	-14.7233	-8.2210	-0.4206	-0.5296	-0.3513	0.6475
2.46	-9.2073	0.0851	1.8540	0.0077	-0.0350	0.0166	21.8169	-15.0201	-8.3575	-0.4207	-0.5296	-0.3511	0.6475
2.47	-9.2018	0.1113	1.8463	-0.0001	-0.0235	0.0165	21.8148	-14.8889	-8.2986	-0.4209	-0.5295	-0.3510	0.6475
2.48	-9.2233	0.1236	1.8399	0.0030	-0.0138	0.0124	21.8012	-14.4571	-8.4115	-0.4210	-0.5295	-0.3509	0.6475
2.49	-9.2578	0.1229	1.8200	-0.0017	-0.0027	0.0191	21.9236	-14.7655	-8.5294	-0.4211	-0.5296	-0.3508	0.6474
2.5	-9.2756	0.1275	1.8116	-0.0056	0.0048	0.0161	21.7539	-14.7517	-8.3881	-0.4213	-0.5296	-0.3507	0.6474
2.51	-9.2808	0.1356	1.8089	0.0002	-0.0045	0.0088	21.7469	-14.7422	-8.2646	-0.4214	-0.5296	-0.3506	0.6473
2.52	-9.2982	0.1361	1.8152	0.0043	-0.0017	0.0150	21.9357	-14.8204	-8.2064	-0.4215	-0.5297	-0.3505	0.6472
2.53	-9.3274	0.1361	1.8162	0.0046	-0.0026	0.0070	21.7816	-14.6853	-8.4761	-0.4215	-0.5297	-0.3505	0.6472
2.54	-9.3075	0.1354	1.8061	0.0095	0.0055	0.0072	21.7054	-14.8468	-8.2249	-0.4216	-0.5298	-0.3504	0.6472
2.55	-9.2794	0.1462	1.8310	0.0178	0.0001	0.0144	21.7441	-14.7077	-8.3188	-0.4217	-0.5298	-0.3503	0.6471
2.56	-9.3175	0.1575	1.8411	0.0122	0.0057	0.0157	21.6907	-14.7619	-8.3224	-0.4217	-0.5299	-0.3501	0.6471
2.57	-9.3064	0.1580	1.8133	0.0182	-0.0097	0.0087	22.0064	-15.0845	-8.5895	-0.4218	-0.5300	-0.3500	0.6471
2.58	-9.2615	0.1776	1.8426	0.0170	-0.0103	-0.0038	21.8925	-14.9387	-8.5412	-0.4218	-0.5300	-0.3499	0.6471
2.59	-9.2984	0.2102	1.8475	0.0195	0.0047	-0.0019	21.7240	-14.8728	-8.2204	-0.4218	-0.5301	-0.3498	0.6471
2.6	-9.3029	0.2147	1.8341	0.0168	0.0054	0.0032	21.6041	-14.8598	-8.1372	-0.4218	-0.5301	-0.3497	0.6471
2.61	-9.2930	0.2291	1.8493	0.0169	0.0027	-0.0031	21.7026	-14.8253	-8.4435	-0.4218	-0.5302	-0.3496	0.6471
2.62	-9.2836	0.2269	1.8478	0.0043	0.0011	0.0000	21.8741	-14.8509	-8.5585	-0.4219	-0.5302	-0.3496	0.6470
2.63	-9.2744	0.2206	1.8459	0.0036	0.0073	0.0051	21.7037	-14.7614	-8.4081	-0.4220	-0.5303	-0.3495	0.6470
2.64	-9.2473	0.2326	1.8487	0.0124	0.0030	0.0166	21.6210	-14.9206	-8.3227	-0.4220	-0.5304	-0.3494	0.6469
2.65	-9.2358	0.2512	1.8430	0.0093	0.0057	0.0174	21.6664	-14.8611	-8.3128	-0.4221	-0.5304	-0.3493	0.6469
2.66	-9.2189	0.2727	1.8350	0.0128	0.0178	0.0180	21.7804	-14.9015	-8.1047	-0.4222	-0.5306	-0.3492	0.6468
2.67	-9.2346	0.2748	1.8448	0.0105	0.0218	0.0172	21.5695	-14.7834	-8.3688	-0.4222	-0.5307	-0.3492	0.6467
2.68	-9.2607	0.2612	1.8276	-0.0028	0.0371	0.0176	21.7376	-14.6722	-8.2984	-0.4223	-0.5309	-0.3492	0.6465
2.69	-9.2928	0.2538	1.8311	0.0091	0.0388	0.0175	21.7938	-14.9694	-8.2050	-0.4223	-0.5311	-0.3491	0.6463
2.7	-9.3243	0.2479	1.8034	0.0168	0.0365	0.0119	21.6081	-14.8900	-8.2633	-0.4223	-0.5312	-0.3491	0.6462
2.71	-9.3445	0.2568	1.7921	0.0184	0.0339	0.0066	21.8391	-14.7836	-8.2060	-0.4223	-0.5314	-0.3490	0.6461
2.72	-9.3418	0.2736	1.7801	0.0179	0.0378	0.0039	21.6945	-14.9190	-8.2940	-0.4223	-0.5316	-0.3490	0.6460
2.73	-9.3226	0.2757	1.7690	0.0327	0.0347	-0.0044	21.9654	-14.8562	-8.0570	-0.4222	-0.5318	-0.3490	0.6459
2.74	-9.3287	0.2826	1.7613	0.0461	0.0363	-0.0064	21.6737	-14.8994	-8.1389	-0.4220	-0.5320	-0.3489	0.6459
2.75	-9.3189	0.2888	1.7573	0.0442	0.0313	-0.0075	21.8973	-14.8586	-8.3898	-0.4219	-0.5322	-0.3488	0.6459
2.76	-9.3410	0.2915	1.7708	0.0452	0.0317	-0.0086	21.8479	-14.9370	-8.2848	-0.4217	-0.5324	-0.3487	0.6458
2.77	-9.3484	0.2806	1.7590	0.0446	0.0295	-0.0200	21.7979	-14.9938	-8.3756	-0.4216	-0.5326	-0.3486	0.6458
2.78	-9.3410	0.2828	1.7720	0.0446	0.0203	-0.0293	21.8193	-14.9408	-8.1618	-0.4214	-0.5327	-0.3485	0.6459
2.79	-9.3474	0.2906	1.7767	0.0450	0.0250	-0.0268	21.6666	-15.0193	-8.3500	-0.4212	-0.5329	-0.3485	0.6459
2.8	-9.3398	0.2917	1.7606	0.0445	0.0146	-0.0283	21.5898	-15.0790	-8.1606	-0.4210	-0.5330	-0.3484	0.6460
2.81	-9.3429	0.3073	1.7724	0.0452	0.0107	-0.0239	21.8405	-14.9710	-8.2318	-0.4209	-0.5331	-0.3483	0.6460
2.82	-9.3228	0.3092	1.7672	0.0459	0.0091	-0.0157	21.7797	-14.9430	-8.3273	-0.4207	-0.5332	-0.3482	0.6461
2.83	-9.3131	0.3264	1.7823	0.0430	0.0027	-0.0163	21.5444	-14.8801	-8.2183	-0.4206	-0.5333	-0.3481	0.6462
2.84	-9.2816	0.3409	1.7712	0.0458	0.0073	-0.0166	21.8359	-15.1061	-8.1659	-0.4205	-0.5334	-0.3479	0.6462
2.85	-9.2892	0.3592	1.7970	0.0378	0.0101	-0.0075	21.7020	-14.9168	-8.1307	-0.4204	-0.5335	-0.3478	0.6463
2.86	-9.3196	0.3735	1.7913	0.0226	0.0152	-0.0137	21.6172	-14.7685	-8.1412	-0.4203	-0.5336	-0.3478	0.6462
2.87	-9.3187	0.3584	1.7984	0.0213	0.0150	-0.0168	21.6346	-14.8200	-7.9646	-0.4203	-0.5337	-0.3477	0.6462
2.88	-9.3432	0.3532	1.7995	0.0085	0.0155	-0.0092	21.7636	-15.0336	-7.8837	-0.4202	-0.5338	-0.3477	0.6462
2.89	-9.3709	0.3429	1.7873	-0.0095	0.0140	-0.0082	22.1177	-14.8527	-7.7211	-0.4203	-0.5338	-0.3478	0.6461
2.9	-9.3770	0.3327	1.7800	-0.0060	0.0093	-0.0078	22.3079	-14.6850	-7.7568	-0.4203	-0.5338	-0.3478	0.6461
2.91	-9.3486	0.3320	1.7751	-0.0102	0.0004	-0.0088	21.8436	-15.1557	-7.9788	-0.4204	-0.5338	-0.3478	0.6461
2.92	-9.3274	0.3300	1.7817	-0.0168	-0.0051	-0.0072	21.5490	-15.9218	-8.0698	-0.4205	-0.5337	-0.3478	0.6460
2.93	-9.3597	0.3258	1.8022	-0.0288	-0.0114	-0.0045	21.3975	-15.5620	-8.1488	-0.4206	-0.5337	-0.3479	0.6460
2.94	-9.3976	0.3141	1.7977	-0.0332	-0.0136	-0.0058	21.6264	-15.0785	-8.2255	-0.4207	-0.5336	-0.3479	0.6459
2.95	-9.3601	0.2838	1.8015	-0.0314	-0.0228	-0.0098	21.6075	-15.0729	-8.2890	-0.4209	-0.5334	-0.3480	0.6459
2.96	-9.3132	0.2657	1.8239	-0.0383	-0.0334	-0.0062	21.6079	-15.2859	-8.1237	-0.4211	-0.5332	-0.3480	0.6459
2.97	-9.2917	0.2575	1.8275	-0.0330	-0.0224	0.0035	21.7831	-15.2600	-8.2121	-0.4213	-0.5331	-0.3480	0.6459
2.98	-9.2774	0.2611	1.8304	-0.0350	-0.0182	0.0075	21.7392	-15.0803	-8.2986	-0.4215	-0.5330	-0.3480	0.6458
2.99	-9.2448	0.2676	1.8185	-0.0347	-0.0143	0.0113	21.5838	-15.2705	-8.1319	-0.4217	-0.5329	-0.3481	0.6457
3	-9.2393	0.2692	1.8200	-0.0312	-0.0153	0.0063	21.7498	-15.0932	-8.0853	-0.4219	-0.5328	-0.3481	0.6457
3.01	-9.2564	0.2588	1.7924	-0.0325	0.0009	-0.0019	21.4419	-15.0149	-8.2174	-0.4221	-0.5328	-0.3481	0.6456
3.02	-9.2606	0.2324	1.7849	-0.0331	0.0048	-0.0083	21.4969	-15.2257	-8.0583	-0.4222	-0.5327	-0.3482	0.6455
3.03	-9.2864	0.2267	1.7733	-0.0270	0.0077	-0.0085	21.6444	-15.3341	-8.1772	-0.4223	-0.5327	-0.3483	0.6454
3.04	-9.2989	0.2147	1.7603	-0.0293	0.0145	-0.0083	21.4306	-15.0455	-8.1612	-0.4224	-0.5327	-0.3485	0.6453
3.05	-9.3325	0.2230	1.7765	-0.0176	0.0139	-0.0074	21.2368	-15.0721	-7.9434	-0.4224	-0.5327	-0.3485	0.6452
3.06	-9.3329	0.2368	1.7613	-0.0053	0.0091	-0.0100	21.3500	-15.0421	-8.1968	-0.4225	-0.5327	-0.3486	0.6452
3.07	-9.3201	0.2440	1.7835	-0.0086	0.0052	-0.0143	21.3450	-15.0861	-8.2530	-0.4225	-0.5327	-0.3486	0.6451
3.08	-9.3238	0.2577	1.7773	0.0042	0.0101	-0.0204	21.3446	-15.1706	-8.1393	-0.4225	-0.5327	-0.3486	0.6451
3.09	-9.3189	0.2553	1.7788	0.0052	0.0065	-0.0204	21.3354	-15.1296	-8.1787	-0.4224	-0.5327	-0.3486	0.6451
3.1	-9.3525	0.2711	1.7671	-0.0017	0.0130	-0.0214	21.4446	-15.1647	-8.1703	-0.4224	-0.5328	-0.3487	0.6451
3.11	-9.3031	0.2666	1.7457	0.0059	0.0037	-0.0137	21.5619	-15.1171	-8.1479	-0.4224	-0.5328	-0.3487	0.6451
3.12	-9.3102	0.2877	1.7757	0.0061	0.0067	-0.0103	21.4667	-15.2130	-8.2383	-0.4224	-0.5328	-0.3487	0.6451
3.13	-9.3277	0.2929	1.7502	-0.0066	0.0121	-0.0175	21.7323	-15.3105	-8.2586	-0.4224	-0.5328	-0.3487	0.6451
3.14	-9.3326	0.2772	1.7611	-0.0077	0.0087	-0.0227	21.6593	-15.3561	-8.2651	-0.4224	-0.5328	-0.3488	0.6450
3.15	-9.2925	0.2644	1.7447	-0.0045	0.0068	-0.0246	21.2956	-15.3929	-8.0427	-0.4224	-0.5328	-0.3488	0.6450
3.16	-9.2835	0.2491	1.7766	0.0011	0.0079	-0.0201	21.4273	-15.2381	-8.2368	-0.4224	-0.5328	-0.3489	0.6450
3.17	-9.3201	0.2605	1.7697	-0.0034	0.0082	-0.0091	21.5276	-15.1285	-8.2675	-0.4224	-0.5328	-0.3489	0.6450
3.18	-9.3165	0.2677	1.7663	0.0063	0.0070	-0.0087	21.6556	-15.0572	-8.1411	-0.4224	-0.5329	-0.3489	0.6449
3.19	-9.3159	0.2780	1.7644	0.0071	0.0109	-0.0087	21.5344	-15.3990	-7.9530	-0.4224	-0.5329	-0.3489	0.6449
3.2	-9.3189	0.2850	1.7642	-0.0029	0.0099	-0.0109	21.5190	-15.0978	-8.1630	-0.4224	-0.5329	-0.3489	0.6449
3.21	-9.3192	0.2864	1.7631	0.0035	0.0079	-0.0068	21.5184	-15.3076	-8.2643	-0.4224	-0.5330	-0.3489	0.6448
3.22	-9.3139	0.2868	1.7588	0.0050	0.0130	-0.0138	21.5369	-15.2448	-8.1306	-0.4224	-0.5330	-0.3489	0.6448
3.23	-9.3238	0.2854	1.7479	0.0014	0.0178	-0.0146	21.4547	-15.0978	-8.1811	-0.4224	-0.5331	-0.3489	0.6447
3.24	-9.3121	0.2919	1.7267	0.0075	0.0104	-0.0136	21.4149	-15.1820	-8.1702	-0.4224	-0.5331	-0.3489	0.6447
3.25	-9.3150	0.3086	1.7408	0.0082	0.0137	-0.0116	21.4538	-14.9900	-8.1450	-0.4223	-0.5332	-0.3489	0.6447
3.26	-9.3250	0.3104	1.7219	0.0038	0.0119	-0.0142	21.4076	-14.9816	-7.8712	-0.4223	-0.5332	-0.3489	0.6447
3.27	-9.3480	0.3164	1.7318	0.0070	0.0086	-0.0152	21.5199	-15.2545	-8.2852	-0.4223	-0.5332	-0.3489	0.6446
3.28	-9.3419	0.3168	1.7317	0.0079	0.0065	-0.0195	21.6241	-15.1248	-8.2339	-0.4223	-0.5333	-0.3489	0.6446
3.29	-9.3592	0.3318	1.7417	-0.0005	0.0059	-0.0141	21.3260	-14.8798	-8.1791	-0.4223	-0.5333	-0.3489	0.6446
3.3	-9.3242	0.3201	1.7178	0.0092	0.0056	-0.0116	21.4081	-14.9237	-8.3366	-0.4223	-0.5333	-0.3489	0.6446
3.31	-9.3206	0.3314	1.7402	0.0137	0.0071	-0.0072	21.5294	-15.1567	-8.0438	-0.4222	-0.5334	-0.3489	0.6446
3.32	-9.3222	0.3233	1.7278	0.0060	0.0124	-0.0120	21.6360	-15.3702	-7.8529	-0.4222	-0.5334	-0.3489	0.6446
3.33	-9.3397	0.3084	1.7343	0.0090	0.0111	-0.0140	21.4139	-15.2515	-8.1044	-0.4222	-0.5335	-0.3489	0.6446
3.34	-9.3437	0.3159	1.7148	0.0079	0.0107	-0.0128	21.8216	-15.2271	-8.2712	-0.4222	-0.5335	-0.3489	0.6445
3.35	-9.3590	0.3107	1.7248	0.0057	0.0115	-0.0145	21.6540	-15.2293	-8.2506	-0.4222	-0.5335	-0.3489	0.6445
3.36	-9.3533	0.3185	1.7214	0.0143	0.0086	-0.0112	21.3897	-15.2494	-7.9843	-0.4221	-0.5336	-0.3488	0.6445
3.37	-9.3762	0.3022	1.7265	0.0132	0.0068	-0.0113	21.6190	-15.4089	-7.9917	-0.4221	-0.5336	-0.3488	0.6445
3.38	-9.3464	0.3159	1.6978	0.0123	-0.0056	-0.0133	21.7477	-15.3456	-7.8820	-0.4221	-0.5337	-0.3488	0.6445
3.39	-9.3424	0.3133	1.7392	0.0135	-0.0057	-0.0171	22.0676	-15.1572	-7.8870	-0.4221	-0.5336	-0.3487	0.6446
3.4	-9.3435	0.3194	1.7160	0.0183	0.0019	-0.0140	22.1878	-14.9785	-7.9425	-0.4221	-0.5337	-0.3486	0.6446
3.41	-9.3332	0.3306	1.7344	0.0181	-0.0135	-0.0201	21.6973	-15.3923	-7.8605	-0.4220	-0.5337	-0.3486	0.6447
3.42	-9.3405	0.3374	1.7284	0.0182	-0.0044	-0.0127	21.6791	-16.0375	-7.7679	-0.4220	-0.5337	-0.3485	0.6447
3.43	-9.3266	0.3546	1.7396	0.0187	-0.0123	-0.0154	21.6604	-15.3026	-7.8646	-0.4220	-0.5337	-0.3484	0.6448
3.44	-9.3298	0.3601	1.7497	0.0186	-0.0150	-0.0170	21.5677	-14.8637	-7.9538	-0.4220	-0.5336	-0.3483	0.6448
3.45	-9.3458	0.3740	1.7564	0.0187	-0.0125	-0.0192	21.7097	-15.1344	-7.9914	-0.4220	-0.5336	-0.3483	0.6449
3.46	-9.3257	0.3675	1.7573	0.0185	-0.0190	-0.0196	21.6861	-15.0506	-7.7580	-0.4220	-0.5336	-0.3482	0.6450
3.47	-9.3160	0.3687	1.7784	0.0179	-0.0274	-0.0218	21.5516	-15.0891	-7.7969	-0.4219	-0.5335	-0.3481	0.6451
3.48	-9.3239	0.3824	1.7791	0.0212	-0.0194	-0.0202	21.4808	-15.1099	-8.0823	-0.4219	-0.5335	-0.3480	0.6452
3.49	-9.2750	0.3660	1.7735	0.0180	-0.0235	-0.0206	21.6298	-15.3884	-7.9318	-0.4219	-0.5334	-0.3479	0.6453
3.5	-9.2481	0.3707	1.8006	0.0167	-0.0273	-0.0184	21.8117	-15.3023	-8.1702	-0.4219	-0.5333	-0.3478	0.6454
3.51	-9.3128	0.3903	1.8183	0.0121	-0.0179	-0.0208	21.7772	-15.2409	-8.3844	-0.4219	-0.5333	-0.3477	0.6455
3.52	-9.3260	0.3604	1.7976	0.0009	-0.0150	-0.0239	21.7758	-15.2587	-8.0208	-0.4219	-0.5332	-0.3477	0.6455
3.53	-9.3465	0.3719	1.8202	0.0057	-0.0200	-0.0112	21.8028	-15.3508	-7.9803	-0.4220	-0.5331	-0.3477	0.6456
3.54	-9.3411	0.3686	1.8056	-0.0035	-0.0154	-0.0087	21.8750	-15.0525	-8.0997	-0.4221	-0.5331	-0.3476	0.6456
3.55	-9.3602	0.3747	1.8044	-0.0032	-0.0121	-0.0081	21.6846	-15.1916	-7.9929	-0.4221	-0.5330	-0.3476	0.6456
3.56	-9.3614	0.4069	1.7643	-0.0030	-0.0096	-0.0075	21.6932	-15.3967	-7.9382	-0.4222	-0.5330	-0.3476	0.6456
3.57	-9.3271	0.4185	1.7475	-0.0069	-0.0144	-0.0031	21.7027	-15.1701	-8.1329	-0.4223	-0.5329	-0.3476	0.6456
3.58	-9.3430	0.4439	1.7399	-0.0170	0.0001	-0.0062	21.6623	-15.2218	-8.1077	-0.4224	-0.5329	-0.3476	0.6456
3.59	-9.3391	0.4315	1.7215	-0.0341	-0.0037	-0.0091	21.4993	-14.9608	-7.7399	-0.4225	-0.5328	-0.3477	0.6455
3.6	-9.3765	0.4222	1.7218	-0.0341	-0.0041	-0.0087	21.6175	-15.2260	-7.9323	-0.4227	-0.5327	-0.3478	0.6454
3.61	-9.3894	0.4041	1.7090	-0.0417	-0.0116	-0.0093	21.7384	-15.1958	-7.9421	-0.4228	-0.5326	-0.3479	0.6454
3.62	-9.4303	0.3979	1.7332	-0.0434	-0.0180	-0.0093	21.6093	-15.0342	-7.8594	-0.4230	-0.5325	-0.3480	0.6453
3.63	-9.4212	0.3908	1.7175	-0.0471	-0.0314	-0.0095	21.6229	-15.0898	-7.8921	-0.4232	-0.5323	-0.3480	0.6453
3.64	-9.3914	0.3917	1.7385	-0.0564	-0.0306	-0.0101	21.4596	-15.1989	-7.8794	-0.4235	-0.5320	-0.3481	0.6453
3.65	-9.3822	0.3901	1.7451	-0.0598	-0.0347	-0.0097	21.4612	-15.2642	-8.2048	-0.4237	-0.5318	-0.3482	0.6453
3.66	-9.3605	0.3774	1.7576	-0.0596	-0.0462	-0.0115	21.5321	-15.3192	-8.0310	-0.4240	-0.5315	-0.3483	0.6453
3.67	-9.3454	0.3678	1.7744	-0.0535	-0.0536	-0.0114	21.5949	-15.3657	-8.1984	-0.4243	-0.5312	-0.3484	0.6453
3.68	-9.3592	0.3578	1.7878	-0.0551	-0.0494	-0.0108	21.6205	-15.2028	-8.0759	-0.4245	-0.5310	-0.3485	0.6453
3.69	-9.2911	0.3365	1.7711	-0.0520	-0.0505	-0.0151	21.7863	-15.3349	-8.1670	-0.4248	-0.5307	-0.3485	0.6453
3.7	-9.2563	0.3399	1.8212	-0.0433	-0.0528	-0.0114	21.7110	-15.3596	-8.2939	-0.4250	-0.5304	-0.3485	0.6454
3.71	-9.3160	0.3450	1.8191	-0.0485	-0.0488	-0.0198	21.5704	-15.1301	-8.1078	-0.4253	-0.5301	-0.3486	0.6455
3.72	-9.3027	0.3249	1.8164	-0.0405	-0.0530	-0.0156	21.6393	-15.3510	-8.2012	-0.4255	-0.5298	-0.3486	0.6455
3.73	-9.2869	0.3286	1.8381	-0.0387	-0.0529	-0.0219	21.5166	-15.2937	-8.3293	-0.4257	-0.5296	-0.3487	0.6456
3.74	-9.2619	0.3028	1.8522	-0.0329	-0.0512	-0.0295	21.5215	-15.1430	-8.3569	-0.4258	-0.5293	-0.3487	0.6457
3.75	-9.2711	0.3009	1.8645	-0.0325	-0.0523	-0.0285	21.4960	-15.2009	-8.1992	-0.4260	-0.5290	-0.3488	0.6458
3.76	-9.2634	0.3015	1.8782	-0.0325	-0.0509	-0.0223	21.3842	-15.2912	-8.1282	-0.4261	-0.5288	-0.3488	0.6459
3.77	-9.2543	0.3091	1.8899	-0.0313	-0.0476	-0.0233	21.5226	-15.1773	-8.2390	-0.4263	-0.5285	-0.3488	0.6460
3.78	-9.2471	0.3040	1.9007	-0.0260	-0.0432	-0.0341	21.5164	-15.0608	-8.3727	-0.4264	-0.5283	-0.3488	0.6461
3.79	-9.2543	0.3034	1.8984	-0.0296	-0.0414	-0.0336	21.5142	-15.1031	-8.1596	-0.4265	-0.5280	-0.3489	0.6462
3.8	-9.2224	0.2868	1.9085	-0.0295	-0.0402	-0.0348	21.5210	-15.0480	-8.2212	-0.4266	-0.5278	-0.3490	0.6463
3.81	-9.2445	0.2877	1.9322	-0.0288	-0.0320	-0.0345	21.5074	-15.2059	-8.2797	-0.4267	-0.5276	-0.3490	0.6463
3.82	-9.2211	0.2781	1.9137	-0.0161	-0.0327	-0.0352	21.5320	-15.1148	-8.0955	-0.4268	-0.5274	-0.3491	0.6464
3.83	-9.2126	0.2749	1.9422	-0.0161	-0.0348	-0.0334	21.4701	-15.1261	-8.2670	-0.4269	-0.5272	-0.3491	0.6465
3.84	-9.2048	0.2769	1.9406	-0.0079	-0.0281	-0.0346	21.3878	-15.1848	-8.4588	-0.4269	-0.5270	-0.3491	0.6466
3.85	-9.2085	0.2766	1.9627	-0.0081	-0.0345	-0.0334	21.5635	-15.1789	-8.3292	-0.4269	-0.5269	-0.3491	0.6467
3.86	-9.1939	0.2750	1.9604	-0.0061	-0.0267	-0.0319	21.3174	-15.2593	-8.1949	-0.4270	-0.5267	-0.3492	0.6468
3.87	-9.1899	0.2766	1.9825	-0.0081	-0.0199	-0.0243	21.4438	-15.1284	-8.3685	-0.4270	-0.5266	-0.3492	0.6469
3.88	-9.1834	0.2762	1.9704	-0.0082	-0.0204	-0.0307	21.7636	-15.1445	-8.1488	-0.4270	-0.5265	-0.3492	0.6469
3.89	-9.1807	0.2688	1.9745	-0.0077	-0.0107	-0.0236	22.0841	-14.8776	-8.1760	-0.4271	-0.5264	-0.3492	0.6470
3.9	-9.1996	0.2755	1.9681	-0.0112	0.0023	-0.0176	22.2497	-14.9969	-8.3220	-0.4271	-0.5264	-0.3493	0.6469
3.91	-9.2260	0.2691	1.9691	-0.0069	0.0113	-0.0155	21.6129	-15.5444	-8.1867	-0.4271	-0.5264	-0.3493	0.6469
3.92	-9.2544	0.2724	1.9492	-0.0076	0.0174	-0.0152	21.5052	-16.1774	-8.3708	-0.4271	-0.5264	-0.3494	0.6468
3.93	-9.2426	0.2676	1.9556	-0.0106	0.0125	-0.0185	21.4459	-15.5238	-8.5405	-0.4271	-0.5264	-0.3495	0.6468
3.94	-9.2912	0.2760	1.9526	-0.0132	0.0107	-0.0155	21.4101	-15.1403	-8.3510	-0.4272	-0.5264	-0.3495	0.6467
3.95	-9.2757	0.2623	1.9198	-0.0066	0.0192	-0.0128	21.3442	-15.3881	-8.3524	-0.4272	-0.5264	-0.3496	0.6466
3.96	-9.2768	0.2664	1.9346	0.0033	0.0173	-0.0195	21.4863	-15.1335	-8.3545	-0.4272	-0.5265	-0.3496	0.6466
3.97	-9.3129	0.2738	1.9235	-0.0036	0.0235	-0.0149	21.4564	-14.9601	-8.3609	-0.4272	-0.5265	-0.3497	0.6465
3.98	-9.3137	0.2778	1.9114	-0.0004	0.0265	-0.0131	21.4212	-14.9944	-8.3588	-0.4271	-0.5266	-0.3497	0.6465
3.99	-9.3135	0.2849	1.9172	0.0001	0.0193	-0.0147	21.2362	-15.0575	-8.3592	-0.4271	-0.5267	-0.3498	0.6464
4	-9.3218	0.2799	1.8969	-0.0012	0.0208	-0.0204	21.3375	-15.1298	-8.3559	-0.4271	-0.5267	-0.3499	0.6463
4.01	-9.3021	0.2770	1.8918	0.0021	0.0142	-0.0197	21.3570	-15.1101	-8.1588	-0.4271	-0.5267	-0.3499	0.6463
4.02	-9.3379	0.2905	1.9033	-0.0007	0.0096	-0.0154	21.4665	-15.1430	-8.2597	-0.4271	-0.5268	-0.3499	0.6463
4.03	-9.3308	0.2909	1.8813	-0.0082	0.0065	-0.0142	21.4448	-14.8956	-8.2676	-0.4271	-0.5268	-0.3500	0.6462
4.04	-9.3267	0.2939	1.9140	-0.0041	-0.0010	-0.0158	21.2266	-14.8581	-8.2901	-0.4272	-0.5267	-0.3500	0.6462
4.05	-9.3323	0.2937	1.9029	-0.0032	-0.0091	-0.0090	21.3459	-15.0793	-8.4525	-0.4272	-0.5267	-0.3500	0.6462
4.06	-9.3066	0.2926	1.9124	-0.0056	-0.0086	-0.0106	21.5495	-15.3118	-8.4501	-0.4273	-0.5266	-0.3499	0.6462
4.07	-9.2772	0.2899	1.9192	-0.0075	-0.0069	-0.0121	21.7839	-15.3997	-8.3084	-0.4273	-0.5266	-0.3500	0.6462
4.08	-9.2680	0.2790	1.9179	-0.0070	0.0024	-0.0074	21.4755	-15.3680	-8.4119	-0.4274	-0.5266	-0.3500	0.6462
4.09	-9.2844	0.2836	1.9246	-0.0081	0.0006	-0.0091	21.5064	-15.4083	-8.4651	-0.4275	-0.5266	-0.3500	0.6461
4.1	-9.2915	0.2944	1.9214	-0.0052	-0.0093	-0.0075	21.6889	-15.2617	-8.3285	-0.4275	-0.5265	-0.3500	0.6461
4.11	-9.2458	0.2995	1.9123	-0.0050	-0.0059	-0.0089	21.4342	-15.2027	-8.3672	-0.4276	-0.5265	-0.3499	0.6461
4.12	-9.2184	0.3052	1.9320	-0.0083	-0.0023	-0.0082	21.3520	-15.1922	-8.3428	-0.4277	-0.5265	-0.3500	0.6461
4.13	-9.2876	0.3032	1.9476	-0.0054	0.0053	-0.0105	21.3783	-15.3064	-8.3687	-0.4277	-0.5265	-0.3500	0.6461
4.14	-9.3134	0.2815	1.9412	-0.0082	0.0066	-0.0120	21.2650	-15.2796	-8.3259	-0.4278	-0.5265	-0.3500	0.6460
4.15	-9.2971	0.2638	1.9554	-0.0072	0.0052	-0.0074	21.4357	-15.0168	-8.4213	-0.4278	-0.5265	-0.3500	0.6460
4.16	-9.2788	0.2623	1.9551	-0.0064	-0.0012	-0.0072	21.2519	-15.0501	-8.4549	-0.4279	-0.5265	-0.3500	0.6459
4.17	-9.2671	0.2795	1.9591	0.0003	-0.0007	-0.0060	21.4079	-15.0124	-8.4655	-0.4280	-0.5265	-0.3500	0.6459
4.18	-9.2493	0.3100	1.9412	0.0024	0.0102	-0.0079	21.3181	-15.0665	-8.4078	-0.4280	-0.5265	-0.3500	0.6459
4.19	-9.2076	0.3224	1.9190	0.0061	0.0166	-0.0045	21.3096	-14.9476	-8.3622	-0.4280	-0.5266	-0.3500	0.6458
4.2	-9.2041	0.3415	1.9097	0.0049	0.0239	-0.0026	21.4908	-15.0167	-8.2674	-0.4280	-0.5267	-0.3500	0.6457
4.21	-9.2396	0.3445	1.8947	-0.0040	0.0388	-0.0079	21.3409	-15.1408	-8.2777	-0.4280	-0.5268	-0.3501	0.6456
4.22	-9.2364	0.3253	1.8774	-0.0058	0.0267	-0.0087	21.2443	-14.9691	-8.0618	-0.4280	-0.5269	-0.3501	0.6455
4.23	-9.2718	0.3296	1.8925	-0.0079	0.0269	-0.0096	21.3749	-15.1355	-8.2335	-0.4280	-0.5269	-0.3502	0.6454
4.24	-9.2849	0.3194	1.8733	-0.0066	0.0261	-0.0074	21.3544	-15.0881	-8.2714	-0.4280	-0.5270	-0.3502	0.6453
4.25	-9.2911	0.3329	1.8863	-0.0025	0.0221	-0.0081	21.4154	-15.4158	-8.2814	-0.4281	-0.5271	-0.3503	0.6452
4.26	-9.2873	0.3454	1.8750	0.0070	0.0275	-0.0086	21.6162	-15.4358	-8.3584	-0.4280	-0.5272	-0.3503	0.6451
4.27	-9.2764	0.3531	1.8779	0.0046	0.0196	-0.0105	21.4313	-15.3632	-8.4235	-0.4280	-0.5273	-0.3503	0.6450
4.28	-9.2928	0.3690	1.8746	-0.0042	0.0215	-0.0123	21.4782	-15.2977	-8.4563	-0.4280	-0.5273	-0.3504	0.6450
4.29	-9.3103	0.3602	1.8751	0.0034	0.0291	-0.0092	21.5770	-15.2898	-8.2907	-0.4280	-0.5274	-0.3504	0.6449
4.3	-9.3221	0.3596	1.8556	-0.0042	0.0334	-0.0084	21.4906	-15.2962	-8.1922	-0.4280	-0.5275	-0.3505	0.6448
4.31	-9.2962	0.3500	1.8369	-0.0026	0.0312	-0.0126	21.3532	-15.3000	-8.1413	-0.4280	-0.5276	-0.3505	0.6447
4.32	-9.2568	0.3588	1.8376	-0.0038	0.0308	-0.0122	21.2717	-15.1703	-8.2110	-0.4280	-0.5277	-0.3506	0.6446
4.33	-9.3344	0.3844	1.8684	-0.0020	0.0340	-0.0090	21.4558	-15.0962	-8.4481	-0.4280	-0.5278	-0.3507	0.6445
4.34	-9.3573	0.3655	1.8124	-0.0069	0.0426	-0.0070	21.4669	-15.1403	-8.1440	-0.4280	-0.5279	-0.3508	0.6443
4.35	-9.2847	0.3597	1.8087	-0.0056	0.0228	-0.0165	21.3696	-15.0864	-8.2959	-0.4280	-0.5280	-0.3508	0.6442
4.36	-9.3016	0.3271	1.8200	-0.0077	0.0319	-0.0126	21.2147	-15.3116	-8.3528	-0.4280	-0.5280	-0.3509	0.6441
4.37	-9.2990	0.3277	1.7794	-0.0039	0.0306	-0.0076	21.2098	-15.2112	-8.1712	-0.4280	-0.5281	-0.3510	0.6440
4.38	-9.3305	0.3434	1.8176	-0.0026	0.0261	-0.0061	21.5441	-15.1758	-8.0996	-0.4280	-0.5282	-0.3510	0.6439
4.39	-9.3295	0.3842	1.8011	0.0105	0.0250	-0.0098	21.8127	-14.8780	-7.9335	-0.4280	-0.5283	-0.3510	0.6438
4.4	-9.3412	0.3884	1.8179	0.0084	0.0214	-0.0079	22.1114	-14.6690	-7.9779	-0.4279	-0.5284	-0.3510	0.6438
4.41	-9.3209	0.3868	1.7712	-0.0021	0.0203	-0.0191	21.5862	-15.5143	-8.0773	-0.4279	-0.5285	-0.3511	0.6437
4.42	-9.3237	0.4133	1.8047	0.0126	0.0135	-0.0219	21.4657	-16.0943	-8.0210	-0.4279	-0.5285	-0.3511	0.6437
4.43	-9.3247	0.3800	1.7661	-0.0002	0.0262	-0.0127	21.4516	-15.5310	-8.1545	-0.4279	-0.5286	-0.3511	0.6436
4.44	-9.3227	0.3979	1.7753	0.0148	0.0127	-0.0167	21.4042	-15.1653	-8.3389	-0.4278	-0.5286	-0.3511	0.6436
4.45	-9.3530	0.3951	1.7894	0.0025	0.0172	-0.0189	21.7185	-15.2089	-8.2380	-0.4278	-0.5287	-0.3512	0.6436
4.46	-9.3243	0.3770	1.7719	-0.0028	0.0147	-0.0248	21.5291	-15.2479	-8.1323	-0.4278	-0.5287	-0.3512	0.6435
4.47	-9.3623	0.4126	1.8078	0.0002	0.0092	-0.0149	21.5166	-15.2191	-8.1132	-0.4278	-0.5287	-0.3512	0.6435
4.48	-9.3341	0.3865	1.7776	-0.0049	0.0121	-0.0198	21.6443	-15.1716	-8.0033	-0.4278	-0.5287	-0.3513	0.6435
4.49	-9.3115	0.3961	1.7999	0.0022	0.0099	-0.0185	21.3594	-15.4095	-8.1784	-0.4278	-0.5287	-0.3513	0.6434
4.5	-9.3207	0.4016	1.7921	-0.0056	0.0133	-0.0183	21.4481	-15.2558	-7.9739	-0.4278	-0.5288	-0.3514	0.6434
4.51	-9.2896	0.3746	1.7642	-0.0069	0.0086	-0.0226	21.5081	-15.3234	-7.9864	-0.4278	-0.5287	-0.3514	0.6434
4.52	-9.2975	0.3867	1.7895	-0.0050	0.0119	-0.0145	21.4905	-15.2764	-8.1727	-0.4278	-0.5288	-0.3515	0.6433
4.53	-9.3175	0.3709	1.7797	-0.0062	0.0135	-0.0139	21.4962	-15.0464	-7.9209	-0.4278	-0.5288	-0.3515	0.6433
4.54	-9.3185	0.3702	1.7784	-0.0071	0.0117	-0.0095	21.3586	-15.3426	-7.9797	-0.4279	-0.5288	-0.3515	0.6432
4.55	-9.3031	0.3703	1.7856	-0.0065	0.0172	-0.0108	21.4921	-15.1281	-7.9277	-0.4279	-0.5288	-0.3516	0.6432
4.56	-9.2942	0.3720	1.7959	-0.0073	0.0143	-0.0146	21.4897	-15.2781	-8.0748	-0.4279	-0.5288	-0.3516	0.6431
4.57	-9.2994	0.3766	1.7867	-0.0073	0.0107	-0.0130	21.6225	-15.1055	-8.0179	-0.4280	-0.5288	-0.3517	0.6430
4.58	-9.2921	0.3803	1.7896	-0.0050	0.0107	-0.0101	21.3416	-15.0912	-7.9446	-0.4280	-0.5289	-0.3517	0.6430
4.59	-9.3065	0.3895	1.7976	0.0023	0.0173	-0.0114	21.3673	-15.2780	-7.9682	-0.4280	-0.5289	-0.3517	0.6429
4.6	-9.3011	0.3873	1.7849	-0.0063	0.0199	-0.0090	21.5279	-15.2225	-7.8558	-0.4280	-0.5290	-0.3517	0.6429
4.61	-9.2838	0.4029	1.7898	-0.0016	0.0120	-0.0083	21.6054	-15.2914	-8.1277	-0.4281	-0.5290	-0.3517	0.6428
4.62	-9.2967	0.4078	1.8001	-0.0058	0.0203	-0.0090	21.5522	-15.1510	-7.9466	-0.4281	-0.5290	-0.3518	0.6427
4.63	-9.3080	0.4076	1.7814	-0.0078	0.0224	-0.0091	21.7077	-15.2520	-7.9687	-0.4281	-0.5291	-0.3518	0.6426
4.64	-9.2899	0.4156	1.7878	-0.0073	0.0201	-0.0074	21.5092	-15.4440	-8.0385	-0.4282	-0.5291	-0.3519	0.6425
4.65	-9.3275	0.4250	1.7973	-0.0180	0.0207	-0.0084	21.7359	-15.2991	-8.0834	-0.4282	-0.5292	-0.3519	0.6424
4.66	-9.3197	0.4199	1.7739	-0.0122	0.0167	-0.0078	21.9332	-15.3519	-7.9250	-0.4283	-0.5292	-0.3520	0.6424
4.67	-9.3035	0.4165	1.7847	-0.0098	0.0164	-0.0079	21.5242	-15.3327	-8.0905	-0.4284	-0.5292	-0.3520	0.6423
4.68	-9.3053	0.4015	1.7714	-0.0323	0.0152	-0.0087	21.7414	-15.3315	-8.2253	-0.4285	-0.5292	-0.3521	0.6422
4.69	-9.2882	0.3848	1.7646	-0.0242	0.0162	-0.0058	21.5595	-15.1669	-8.1302	-0.4286	-0.5292	-0.3522	0.6421
4.7	-9.2980	0.3803	1.7605	-0.0285	0.0234	-0.0085	21.3662	-15.1457	-8.0570	-0.4286	-0.5292	-0.3523	0.6419
4.71	-9.3150	0.3784	1.7578	-0.0253	0.0174	-0.0067	21.4553	-15.3928	-8.0618	-0.4287	-0.5292	-0.3524	0.6418
4.72	-9.3251	0.3904	1.7511	-0.0206	0.0183	-0.0077	21.4528	-15.1182	-8.3080	-0.4288	-0.5292	-0.3525	0.6417
4.73	-9.3407	0.3993	1.7612	-0.0305	0.0175	-0.0085	21.4354	-15.0988	-8.1501	-0.4289	-0.5292	-0.3526	0.6416
4.74	-9.3672	0.4036	1.7590	-0.0218	0.0234	-0.0084	21.6337	-15.3768	-8.0348	-0.4290	-0.5292	-0.3527	0.6415
4.75	-9.3648	0.3948	1.7502	-0.0094	0.0167	-0.0067	21.2913	-15.4329	-8.0629	-0.4290	-0.5293	-0.3527	0.6414
4.76	-9.3513	0.3932	1.7364	-0.0084	0.0115	-0.0085	21.3905	-15.2376	-7.9947	-0.4291	-0.5293	-0.3528	0.6413
4.77	-9.3492	0.3923	1.7491	-0.0068	0.0088	-0.0072	21.3991	-15.3331	-7.9260	-0.4291	-0.5293	-0.3528	0.6413
4.78	-9.3377	0.4013	1.7292	-0.0074	0.0048	-0.0127	21.4267	-15.3424	-8.0827	-0.4292	-0.5293	-0.3528	0.6413
4.79	-9.2624	0.4039	1.7316	-0.0065	-0.0044	-0.0177	21.4916	-15.3379	-8.0058	-0.4292	-0.5292	-0.3528	0.6413
4.8	-9.2797	0.4128	1.7796	-0.0072	-0.0147	-0.0102	21.3067	-15.0824	-7.9177	-0.4293	-0.5292	-0.3528	0.6413
4.81	-9.3294	0.4078	1.7830	-0.0049	0.0005	-0.0147	21.3847	-15.1426	-8.0951	-0.4294	-0.5291	-0.3527	0.6413
4.82	-9.3336	0.3976	1.8086	-0.0023	0.0006	-0.0214	21.5727	-15.4125	-7.8679	-0.4294	-0.5291	-0.3528	0.6413
4.83	-9.3007	0.3975	1.8257	0.0067	-0.0044	-0.0186	21.6926	-15.4169	-7.9391	-0.4294	-0.5291	-0.3527	0.6413
4.84	-9.2801	0.4001	1.8217	0.0076	0.0111	-0.0147	21.6865	-15.4393	-8.1780	-0.4294	-0.5291	-0.3527	0.6413
4.85	-9.3036	0.4517	1.8250	0.0151	0.0129	-0.0103	21.5427	-15.4031	-8.0150	-0.4294	-0.5292	-0.3527	0.6413
4.86	-9.2884	0.4693	1.7917	0.0121	0.0209	-0.0150	21.4011	-15.4722	-8.0606	-0.4293	-0.5292	-0.3526	0.6413
4.87	-9.2422	0.4668	1.7781	0.0078	0.0243	-0.0186	21.7312	-15.5288	-8.0266	-0.4293	-0.5293	-0.3527	0.6412
4.88	-9.2666	0.4905	1.7803	0.0072	0.0273	-0.0254	21.6702	-15.4451	-8.0654	-0.4292	-0.5294	-0.3527	0.6412
4.89	-9.2743	0.4500	1.7664	-0.0079	0.0329	-0.0342	22.1182	-15.3682	-7.9003	-0.4291	-0.5294	-0.3528	0.6411
4.9	-9.3160	0.4277	1.7741	-0.0075	0.0280	-0.0364	22.1207	-15.1798	-7.9141	-0.4291	-0.5295	-0.3529	0.6411
4.91	-9.3110	0.3928	1.7601	-0.0067	0.0279	-0.0460	21.2642	-15.6122	-7.8894	-0.4290	-0.5295	-0.3531	0.6411
4.92	-9.3139	0.3714	1.7805	-0.0067	0.0220	-0.0453	21.4882	-16.2690	-7.9891	-0.4289	-0.5295	-0.3532	0.6411
4.93	-9.3277	0.3669	1.7691	-0.0083	0.0300	-0.0436	21.3479	-15.5727	-8.0583	-0.4288	-0.5295	-0.3534	0.6410
4.94	-9.3160	0.3537	1.7583	0.0031	0.0209	-0.0440	21.2267	-15.2370	-8.1650	-0.4287	-0.5295	-0.3535	0.6411
4.95	-9.3048	0.3409	1.7563	0.0132	0.0237	-0.0481	21.2932	-15.2891	-8.1036	-0.4285	-0.5295	-0.3535	0.6411
4.96	-9.3224	0.3219	1.7644	0.0137	0.0207	-0.0471	21.4257	-15.1822	-7.9689	-0.4284	-0.5295	-0.3536	0.6411
4.97	-9.3300	0.3027	1.7390	0.0141	0.0223	-0.0483	21.2442	-15.2883	-7.9922	-0.4282	-0.5295	-0.3537	0.6412
4.98	-9.3402	0.2961	1.7444	0.0196	0.0238	-0.0484	21.4182	-15.3438	-8.0390	-0.4281	-0.5296	-0.3537	0.6412
4.99	-9.3193	0.2947	1.7154	0.0177	0.0195	-0.0479	21.3779	-15.2113	-8.2183	-0.4279	-0.5296	-0.3538	0.6413
5	-9.2942	0.3051	1.7519	0.0240	0.0131	-0.0423	21.3238	-15.1327	-7.8864	-0.4278	-0.5296	-0.3538	0.6413
5.01	-9.3944	0.3314	1.7569	0.0202	0.0217	-0.0416	21.4443	-15.3357	-7.9741	-0.4276	-0.5297	-0.3538	0.6414
5.02	-9.3552	0.3148	1.7280	0.0231	0.0131	-0.0443	21.6620	-15.5339	-7.9117	-0.4275	-0.5297	-0.3538	0.6414
5.03	-9.3338	0.3309	1.7536	0.0215	0.0090	-0.0380	21.7662	-15.4333	-7.9687	-0.4273	-0.5297	-0.3538	0.6415
5.04	-9.2970	0.3178	1.7353	0.0178	0.0078	-0.0339	21.4825	-15.3171	-8.1786	-0.4273	-0.5298	-0.3538	0.6416
5.05	-9.3581	0.3273	1.7667	0.0269	0.0135	-0.0305	21.4941	-15.2388	-8.1117	-0.4271	-0.5298	-0.3538	0.6416
5.06	-9.3695	0.3466	1.7288	0.0233	0.0220	-0.0280	21.4906	-15.2476	-7.9818	-0.4270	-0.5299	-0.3538	0.6416
5.07	-9.3392	0.3541	1.7483	0.0177	0.0087	-0.0206	21.4820	-15.2780	-8.2126	-0.4270	-0.5299	-0.3537	0.6417
5.08	-9.3238	0.3583	1.7264	0.0179	0.0111	-0.0231	21.5087	-15.3053	-7.9841	-0.4269	-0.5300	-0.3537	0.6417
5.09	-9.3297	0.3595	1.7373	0.0075	0.0039	-0.0174	21.4113	-15.4558	-7.9902	-0.4269	-0.5300	-0.3537	0.6417
5.1	-9.3370	0.3595	1.7145	-0.0030	0.0090	-0.0089	21.2990	-15.2975	-7.9906	-0.4269	-0.5300	-0.3537	0.6417
5.11	-9.3069	0.3523	1.7162	0.0093	0.0061	-0.0165	21.3048	-15.1537	-7.9860	-0.4269	-0.5300	-0.3536	0.6417
5.12	-9.2933	0.3587	1.7256	0.0068	0.0087	-0.0153	21.3591	-15.0299	-7.8004	-0.4269	-0.5301	-0.3536	0.6417
5.13	-9.3048	0.3691	1.7346	-0.0000	0.0076	-0.0083	21.5070	-15.3723	-7.8287	-0.4270	-0.5301	-0.3536	0.6416
5.14	-9.3297	0.3823	1.7400	-0.0009	0.0049	-0.0116	21.4803	-15.3681	-7.6485	-0.4270	-0.5301	-0.3536	0.6416
5.15	-9.3096	0.3853	1.7397	-0.0043	0.0090	-0.0082	21.6562	-15.1574	-7.8347	-0.4270	-0.5301	-0.3536	0.6416
5.16	-9.3275	0.4012	1.7563	-0.0073	0.0143	-0.0084	21.3928	-15.3525	-7.9196	-0.4271	-0.5301	-0.3536	0.6415
5.17	-9.2934	0.3924	1.7225	-0.0084	0.0048	-0.0083	21.4166	-15.1040	-7.8995	-0.4272	-0.5301	-0.3536	0.6415
5.18	-9.3013	0.3918	1.7506	-0.0065	0.0062	-0.0084	21.4852	-15.3025	-8.0054	-0.4272	-0.5301	-0.3536	0.6414
5.19	-9.3104	0.3773	1.7359	-0.0105	0.0044	-0.0072	21.5757	-15.2901	-7.8160	-0.4273	-0.5301	-0.3536	0.6414
5.2	-9.2885	0.3697	1.7428	-0.0096	0.0086	-0.0076	21.8129	-15.4757	-8.1003	-0.4274	-0.5301	-0.3536	0.6413
5.21	-9.2981	0.3683	1.7493	-0.0095	0.0108	-0.0072	21.5999	-15.6174	-8.1618	-0.4274	-0.5301	-0.3536	0.6413
5.22	-9.2868	0.3633	1.7253	-0.0169	0.0106	-0.0075	21.4440	-15.3791	-8.0455	-0.4275	-0.5301	-0.3536	0.6412
5.23	-9.2909	0.3702	1.7398	-0.0083	0.0145	-0.0081	21.5767	-15.2707	-8.1173	-0.4276	-0.5302	-0.3537	0.6411
5.24	-9.2972	0.3729	1.7315	-0.0088	0.0152	-0.0081	21.5044	-15.4418	-7.9569	-0.4276	-0.5302	-0.3537	0.6411
5.25	-9.3009	0.3790	1.7404	-0.0072	0.0147	-0.0076	21.4477	-15.4743	-8.0208	-0.4277	-0.5302	-0.3537	0.6410
5.26	-9.3107	0.3740	1.7329	-0.0106	0.0229	-0.0090	21.3913	-15.3794	-8.1094	-0.4277	-0.5303	-0.3537	0.6409
5.27	-9.3089	0.3654	1.7303	-0.0071	0.0241	-0.0087	21.3893	-15.4321	-8.0114	-0.4277	-0.5303	-0.3538	0.6408
5.28	-9.3158	0.3670	1.7275	-0.0080	0.0257	-0.0074	21.4278	-15.1891	-7.7500	-0.4278	-0.5304	-0.3538	0.6407
5.29	-9.2860	0.3520	1.7176	-0.0078	0.0219	-0.0077	21.4751	-15.2537	-7.8916	-0.4278	-0.5304	-0.3538	0.6406
5.3	-9.3174	0.3600	1.7216	-0.0069	0.0265	-0.0111	21.3536	-15.4212	-8.0529	-0.4278	-0.5305	-0.3539	0.6405
5.31	-9.3185	0.3581	1.6997	-0.0054	0.0256	-0.0141	21.5088	-15.3086	-7.8544	-0.4278	-0.5306	-0.3539	0.6405
5.32	-9.3162	0.3643	1.7219	0.0014	0.0226	-0.0085	21.4835	-15.2121	-7.8309	-0.4278	-0.5306	-0.3539	0.6404
5.33	-9.3320	0.3708	1.7117	-0.0031	0.0249	-0.0162	21.3089	-15.2270	-7.7332	-0.4278	-0.5307	-0.3540	0.6403
5.34	-9.3280	0.3571	1.7047	0.0007	0.0255	-0.0171	21.3791	-15.2398	-7.7675	-0.4278	-0.5308	-0.3540	0.6403
5.35	-9.3502	0.3718	1.6985	-0.0073	0.0306	-0.0148	21.5082	-15.2009	-8.0306	-0.4278	-0.5308	-0.3541	0.6402
5.36	-9.3415	0.3635	1.6734	0.0011	0.0203	-0.0121	21.4904	-15.2861	-7.9699	-0.4278	-0.5309	-0.3541	0.6401
5.37	-9.3845	0.3741	1.6740	-0.0005	0.0182	-0.0098	21.4605	-15.3016	-7.7908	-0.4278	-0.5309	-0.3541	0.6401
5.38	-9.3898	0.3678	1.6366	-0.0045	0.0163	-0.0110	21.7198	-15.3601	-7.8496	-0.4279	-0.5310	-0.3541	0.6400
5.39	-9.3603	0.3405	1.6375	-0.0020	0.0020	-0.0094	22.1532	-15.2091	-7.4919	-0.4279	-0.5310	-0.3541	0.6400
5.4	-9.3804	0.3277	1.6237	0.0059	0.0085	-0.0079	22.1926	-15.0258	-7.4206	-0.4279	-0.5310	-0.3541	0.6400
5.41	-9.3535	0.3131	1.6114	0.0039	-0.0037	-0.0084	21.7868	-15.7350	-7.7995	-0.4280	-0.5310	-0.3540	0.6400
5.42	-9.3967	0.3290	1.6430	0.0126	-0.0108	-0.0065	21.6019	-16.2380	-7.5729	-0.4280	-0.5310	-0.3539	0.6400
5.43	-9.3737	0.3331	1.6142	0.0196	-0.0122	-0.0052	21.5454	-15.4864	-8.1205	-0.4281	-0.5310	-0.3538	0.6400
5.44	-9.3997	0.3584	1.6607	0.0160	-0.0201	-0.0035	21.3233	-15.1807	-8.0205	-0.4281	-0.5310	-0.3536	0.6401
5.45	-9.4247	0.3780	1.6327	0.0194	-0.0153	0.0040	21.3469	-15.4865	-7.8216	-0.4282	-0.5310	-0.3534	0.6401
5.46	-9.3863	0.3814	1.6623	0.0192	-0.0178	0.0035	21.5172	-15.5624	-7.8463	-0.4283	-0.5310	-0.3533	0.6402
5.47	-9.4038	0.4044	1.6777	0.0179	-0.0181	-0.0018	21.4202	-15.3437	-7.7059	-0.4283	-0.5310	-0.3531	0.6402
5.48	-9.3536	0.3996	1.6453	0.0205	-0.0234	0.0054	21.3409	-15.3077	-7.8400	-0.4284	-0.5310	-0.3529	0.6403
5.49	-9.3365	0.4195	1.6767	0.0234	-0.0320	0.0079	21.5975	-15.3558	-7.9476	-0.4285	-0.5310	-0.3527	0.6404
5.5	-9.3346	0.4528	1.6751	0.0196	-0.0319	-0.0020	21.4053	-15.2740	-7.8167	-0.4286	-0.5309	-0.3525	0.6405
5.51	-9.2738	0.4446	1.6772	0.0192	-0.0283	-0.0054	21.4010	-15.2753	-7.6881	-0.4287	-0.5309	-0.3523	0.6405
5.52	-9.2708	0.4505	1.7233	0.0197	-0.0333	-0.0044	21.2819	-15.3605	-7.6404	-0.4287	-0.5308	-0.3521	0.6406
5.53	-9.3026	0.4678	1.7451	0.0196	-0.0279	-0.0027	21.4135	-15.2036	-7.7900	-0.4288	-0.5308	-0.3520	0.6407
5.54	-9.3337	0.4269	1.7735	0.0186	-0.0281	-0.0080	21.6224	-15.4103	-8.0183	-0.4289	-0.5307	-0.3518	0.6408
5.55	-9.2947	0.4144	1.7698	0.0190	-0.0286	-0.0083	21.4761	-15.4061	-7.7756	-0.4289	-0.5307	-0.3516	0.6409
5.56	-9.2548	0.4107	1.7826	0.0181	-0.0235	-0.0050	21.4556	-15.4300	-7.7339	-0.4290	-0.5306	-0.3515	0.6410
5.57	-9.2503	0.4331	1.7641	0.0199	-0.0138	0.0055	21.6175	-15.3822	-7.8899	-0.4290	-0.5306	-0.3513	0.6410
5.58	-9.2605	0.4701	1.7595	0.0188	-0.0062	0.0003	21.6307	-15.3251	-8.1603	-0.4291	-0.5307	-0.3512	0.6410
5.59	-9.2678	0.5011	1.7410	0.0183	0.0023	-0.0092	21.4530	-15.6002	-7.9664	-0.4291	-0.5307	-0.3511	0.6411
5.6	-9.2305	0.4886	1.7392	0.0115	0.0034	-0.0069	21.4795	-15.5964	-7.7153	-0.4291	-0.5308	-0.3510	0.6411
5.61	-9.2590	0.5030	1.7453	0.0057	0.0092	-0.0090	21.4599	-15.4376	-7.7624	-0.4291	-0.5308	-0.3509	0.6410
5.62	-9.2482	0.5009	1.7255	-0.0012	0.0149	-0.0105	21.2752	-15.4159	-7.7600	-0.4292	-0.5308	-0.3509	0.6410
5.63	-9.2613	0.4981	1.7511	-0.0085	0.0170	-0.0124	21.3918	-15.3962	-7.7326	-0.4292	-0.5309	-0.3510	0.6409
5.64	-9.3101	0.4891	1.7371	-0.0080	0.0187	-0.0145	21.3680	-15.5604	-7.9061	-0.4292	-0.5309	-0.3510	0.6409
5.65	-9.2947	0.4814	1.7362	-0.0070	0.0180	-0.0269	21.4129	-15.5559	-7.7295	-0.4292	-0.5309	-0.3511	0.6408
5.66	-9.3114	0.4731	1.7505	-0.0102	0.0233	-0.0206	21.2760	-15.4776	-7.9206	-0.4292	-0.5309	-0.3511	0.6408
5.67	-9.2870	0.4708	1.7206	-0.0074	0.0289	-0.0167	21.4133	-15.5294	-7.9303	-0.4292	-0.5310	-0.3512	0.6407
5.68	-9.2832	0.4825	1.7332	-0.0115	0.0256	-0.0182	21.3270	-15.2201	-7.8591	-0.4292	-0.5310	-0.3513	0.6406
5.69	-9.3300	0.4821	1.7287	-0.0144	0.0293	-0.0230	21.3353	-15.3242	-7.7376	-0.4292	-0.5311	-0.3514	0.6405
5.7	-9.3278	0.4630	1.7189	-0.0184	0.0279	-0.0219	21.4582	-15.6362	-7.6163	-0.4292	-0.5311	-0.3515	0.6404
5.71	-9.3427	0.4527	1.7246	-0.0265	0.0237	-0.0273	21.6279	-15.3437	-7.6842	-0.4293	-0.5311	-0.3516	0.6403
5.72	-9.2902	0.4405	1.6712	-0.0148	0.0296	-0.0228	21.5657	-15.2024	-7.8234	-0.4293	-0.5311	-0.3517	0.6403
5.73	-9.2955	0.4406	1.7156	-0.0287	0.0280	-0.0222	21.2075	-15.5346	-7.8132	-0.4293	-0.5311	-0.3519	0.6401
5.74	-9.3854	0.4530	1.6908	-0.0317	0.0321	-0.0183	21.5251	-15.3816	-7.6094	-0.4293	-0.5312	-0.3520	0.6400
5.75	-9.3783	0.4315	1.6664	-0.0325	0.0221	-0.0211	21.4340	-15.4639	-7.7254	-0.4294	-0.5311	-0.3522	0.6399
5.76	-9.3526	0.4214	1.6708	-0.0241	0.0203	-0.0289	21.5366	-15.4689	-7.9092	-0.4294	-0.5311	-0.3523	0.6398
5.77	-9.3370	0.4034	1.6745	-0.0298	0.0190	-0.0203	21.5903	-15.3703	-7.7201	-0.4295	-0.5311	-0.3524	0.6397
5.78	-9.3954	0.4038	1.6838	-0.0265	0.0210	-0.0162	21.3327	-15.6419	-7.8852	-0.4296	-0.5311	-0.3525	0.6396
5.79	-9.3997	0.4070	1.6725	-0.0088	0.0164	-0.0145	21.5751	-15.5460	-7.7831	-0.4296	-0.5311	-0.3526	0.6396
5.8	-9.3597	0.4040	1.6763	-0.0107	0.0084	-0.0151	21.4545	-15.4655	-7.7500	-0.4296	-0.5311	-0.3526	0.6395
5.81	-9.3655	0.4047	1.6878	-0.0121	0.0054	-0.0176	21.2227	-15.5530	-7.7336	-0.4297	-0.5311	-0.3526	0.6395
5.82	-9.3733	0.3932	1.6704	-0.0105	0.0002	-0.0182	21.6067	-15.4181	-7.9163	-0.4297	-0.5310	-0.3526	0.6395
5.83	-9.3540	0.3834	1.6776	-0.0069	-0.0007	-0.0187	21.5964	-15.5162	-8.0571	-0.4298	-0.5310	-0.3527	0.6395
5.84	-9.3146	0.3855	1.6773	-0.0060	-0.0067	-0.0208	21.5711	-15.3231	-7.7170	-0.4298	-0.5309	-0.3526	0.6395
5.85	-9.2827	0.3933	1.6948	0.0009	-0.0085	-0.0137	21.4325	-15.3649	-7.8786	-0.4299	-0.5309	-0.3526	0.6395
5.86	-9.3031	0.4115	1.6929	0.0001	-0.0061	-0.0096	21.4162	-15.5987	-7.9485	-0.4299	-0.5309	-0.3525	0.6395
5.87	-9.2602	0.4134	1.6957	-0.0040	-0.0009	-0.0082	21.4544	-15.1153	-7.6998	-0.4300	-0.5309	-0.3525	0.6395
5.88	-9.2805	0.4240	1.7261	0.0036	0.0027	-0.0079	21.7252	-15.4215	-7.5620	-0.4301	-0.5309	-0.3525	0.6395
5.89	-9.2627	0.4405	1.7026	0.0013	0.0025	-0.0079	21.9713	-15.0963	-7.5648	-0.4301	-0.5309	-0.3524	0.6395
5.9	-9.3271	0.4467	1.7455	0.0052	0.0027	-0.0082	22.0889	-15.1097	-7.4991	-0.4302	-0.5309	-0.3523	0.6395
5.91	-9.3145	0.4310	1.6733	-0.0010	0.0160	-0.0074	21.9667	-15.6630	-7.7757	-0.4302	-0.5310	-0.3523	0.6394
5.92	-9.3113	0.4590	1.7324	0.0128	0.0008	-0.0086	21.6442	-16.3674	-7.7647	-0.4302	-0.5310	-0.3523	0.6394
5.93	-9.3293	0.4323	1.6977	-0.0010	0.0115	-0.0066	21.6451	-15.7042	-7.8077	-0.4303	-0.5310	-0.3522	0.6394
5.94	-9.2885	0.4338	1.6800	0.0112	0.0043	-0.0148	22.2074	-15.5103	-7.9637	-0.4303	-0.5311	-0.3522	0.6394
5.95	-9.3347	0.4562	1.7179	0.0095	0.0095	-0.0169	21.9990	-15.6477	-8.0179	-0.4303	-0.5311	-0.3521	0.6394
5.96	-9.3233	0.4394	1.6745	0.0065	0.0082	-0.0085	21.7973	-15.4085	-7.7133	-0.4303	-0.5311	-0.3521	0.6394
5.97	-9.3382	0.4649	1.7065	0.0198	0.0011	-0.0104	21.9452	-15.5027	-7.9378	-0.4303	-0.5312	-0.3520	0.6394
5.98	-9.3385	0.4718	1.6868	0.0097	0.0131	-0.0067	21.8821	-15.4999	-7.9248	-0.4303	-0.5312	-0.3519	0.6393
5.99	-9.3363	0.4696	1.6847	0.0044	0.0028	-0.0079	21.9982	-15.6984	-7.8813	-0.4303	-0.5313	-0.3519	0.6393
6	-9.3285	0.4773	1.6843	0.0126	0.0004	-0.0134	22.0145	-15.5978	-7.8561	-0.4303	-0.5313	-0.3518	0.6393
6.01	-9.3357	0.4847	1.6985	0.0117	-0.0004	-0.0117	21.9287	-15.7420	-7.8103	-0.4304	-0.5313	-0.3517	0.6394
6.02	-9.3320	0.4812	1.6881	0.0049	0.0004	-0.0089	21.9030	-15.6561	-7.9505	-0.4304	-0.5313	-0.3517	0.6393
6.03	-9.3195	0.4876	1.7004	0.0106	-0.0018	-0.0087	21.8919	-15.5586	-7.6297	-0.4304	-0.5313	-0.3516	0.6394
6.04	-9.3265	0.4714	1.7030	-0.0047	0.0033	-0.0131	21.6673	-15.5130	-7.4929	-0.4305	-0.5313	-0.3516	0.6393
6.05	-9.2986	0.4718	1.6839	-0.0013	0.0010	-0.0211	21.7807	-15.2555	-7.8160	-0.4305	-0.5313	-0.3516	0.6393
6.06	-9.2908	0.4775	1.7101	-0.0026	-0.0050	-0.0173	21.5951	-15.4054	-7.7057	-0.4305	-0.5313	-0.3516	0.6394
6.07	-9.2903	0.4597	1.7077	-0.0071	0.0079	-0.0164	21.8097	-15.3763	-7.7166	-0.4306	-0.5313	-0.3516	0.6393
6.08	-9.2607	0.4586	1.7040	-0.0062	-0.0025	-0.0172	21.7475	-15.3907	-7.6857	-0.4306	-0.5313	-0.3516	0.6393
6.09	-9.2683	0.4660	1.7228	-0.0072	0.0118	-0.0129	21.4910	-15.3764	-7.8128	-0.4307	-0.5313	-0.3516	0.6393
6.1	-9.2776	0.4636	1.7045	-0.0063	0.0208	-0.0078	21.7849	-15.4868	-7.6846	-0.4307	-0.5313	-0.3516	0.6392
6.11	-9.2722	0.4673	1.7061	-0.0074	0.0084	-0.0081	21.8092	-15.4626	-7.7488	-0.4308	-0.5313	-0.3516	0.6391
6.12	-9.2861	0.4675	1.7063	-0.0065	0.0166	-0.0080	21.8645	-15.5121	-8.0472	-0.4308	-0.5314	-0.3516	0.6391
6.13	-9.2969	0.4655	1.6917	-0.0080	0.0242	-0.0078	22.0126	-15.6848	-7.7079	-0.4309	-0.5314	-0.3516	0.6390
6.14	-9.3150	0.4699	1.6895	-0.0028	0.0246	-0.0081	21.9839	-15.5951	-7.4416	-0.4309	-0.5315	-0.3516	0.6389
6.15	-9.3113	0.4649	1.6793	-0.0023	0.0260	-0.0094	22.0137	-15.4366	-7.8150	-0.4309	-0.5316	-0.3516	0.6388
6.16	-9.3197	0.4643	1.6821	-0.0047	0.0287	-0.0069	21.9295	-15.7681	-7.9286	-0.4309	-0.5317	-0.3517	0.6387
6.17	-9.3210	0.4615	1.6641	-0.0067	0.0293	-0.0080	21.7912	-15.6255	-7.6819	-0.4310	-0.5318	-0.3517	0.6386
6.18	-9.3105	0.4581	1.6600	-0.0042	0.0295	-0.0068	21.8382	-15.6710	-7.8172	-0.4310	-0.5318	-0.3517	0.6385
6.19	-9.3323	0.4668	1.6675	-0.0061	0.0234	-0.0072	21.7810	-15.5915	-7.8076	-0.4310	-0.5319	-0.3518	0.6384
6.2	-9.3317	0.4682	1.6558	0.0066	0.0207	-0.0067	21.9314	-15.5291	-7.7004	-0.4310	-0.5320	-0.3517	0.6383
6.21	-9.3415	0.4819	1.6742	0.0042	0.0192	-0.0068	21.8678	-15.6978	-7.7189	-0.4311	-0.5321	-0.3517	0.6383
6.22	-9.3641	0.4928	1.6654	-0.0050	0.0218	-0.0068	21.6815	-15.5703	-7.8062	-0.4311	-0.5321	-0.3517	0.6382
6.23	-9.3466	0.4894	1.6612	-0.0058	0.0197	-0.0069	21.7598	-15.3565	-7.5817	-0.4311	-0.5322	-0.3517	0.6381
6.24	-9.3642	0.4966	1.6800	-0.0071	0.0152	-0.0071	21.6262	-15.4811	-7.7310	-0.4312	-0.5322	-0.3517	0.6380
6.25	-9.3522	0.4945	1.6611	-0.0063	0.0120	-0.0069	21.6324	-15.5969	-7.6887	-0.4313	-0.5323	-0.3517	0.6380
6.26	-9.3224	0.4973	1.6667	-0.0051	0.0074	-0.0073	21.8710	-15.5135	-7.7332	-0.4313	-0.5323	-0.3517	0.6379
6.27	-9.3164	0.4992	1.6734	-0.0068	0.0081	-0.0072	21.8782	-15.6874	-7.5973	-0.4314	-0.5323	-0.3517	0.6379
6.28	-9.3331	0.4935	1.6690	-0.0073	0.0123	-0.0078	21.4615	-15.4916	-7.7340	-0.4314	-0.5323	-0.3517	0.6378
6.29	-9.3366	0.4833	1.6620	-0.0070	0.0122	-0.0083	21.4930	-15.5562	-7.6677	-0.4315	-0.5324	-0.3517	0.6377
6.3	-9.3347	0.4779	1.6653	-0.0058	0.0078	-0.0076	21.6175	-15.6664	-7.5812	-0.4316	-0.5324	-0.3517	0.6377
6.31	-9.3378	0.4826	1.6544	-0.0075	0.0057	-0.0084	21.7303	-15.7354	-7.6378	-0.4316	-0.5324	-0.3517	0.6376
6.32	-9.3147	0.4879	1.6378	-0.0029	0.0069	-0.0095	21.9514	-15.8206	-7.5664	-0.4317	-0.5324	-0.3516	0.6376
6.33	-9.3003	0.4879	1.6404	-0.0024	0.0108	-0.0134	21.8655	-15.7150	-7.7033	-0.4317	-0.5324	-0.3516	0.6376
6.34	-9.3247	0.4966	1.6375	0.0043	0.0092	-0.0160	22.0029	-15.6783	-7.9233	-0.4317	-0.5325	-0.3516	0.6375
6.35	-9.3107	0.4931	1.6361	-0.0027	0.0039	-0.0115	21.9851	-15.6288	-7.7661	-0.4318	-0.5325	-0.3516	0.6375
6.36	-9.3460	0.4867	1.6602	-0.0019	0.0089	-0.0090	21.8883	-15.5206	-7.6772	-0.4318	-0.5325	-0.3516	0.6375
6.37	-9.3545	0.5164	1.6269	0.0010	0.0048	-0.0085	21.8810	-15.6810	-7.7721	-0.4319	-0.5325	-0.3515	0.6375
6.38	-9.2788	0.5017	1.6377	0.0028	-0.0096	-0.0182	21.7208	-15.7265	-7.7563	-0.4319	-0.5325	-0.3515	0.6375
6.39	-9.3302	0.5013	1.6758	0.0011	-0.0024	-0.0138	22.3900	-15.4236	-7.3981	-0.4319	-0.5325	-0.3514	0.6375
6.4	-9.3912	0.4749	1.6521	-0.0065	0.0046	-0.0154	22.4820	-15.4145	-7.4348	-0.4318	-0.5326	-0.3513	0.6376
6.41	-9.3619	0.4521	1.6602	0.0103	0.0020	-0.0140	21.3981	-15.7876	-7.4468	-0.4319	-0.5326	-0.3513	0.6376
6.42	-9.3171	0.4536	1.6544	0.0078	-0.0062	-0.0058	21.2256	-16.6160	-7.4661	-0.4319	-0.5326	-0.3512	0.6376
6.43	-9.3370	0.4727	1.6659	0.0088	-0.0039	-0.0056	21.2966	-15.9214	-7.8272	-0.4320	-0.5326	-0.3511	0.6376
6.44	-9.3879	0.5099	1.6475	0.0202	0.0042	0.0045	21.5964	-15.5576	-7.6992	-0.4320	-0.5327	-0.3509	0.6375
6.45	-9.3191	0.5474	1.6075	0.0183	0.0087	0.0005	21.4202	-15.6865	-7.5027	-0.4320	-0.5328	-0.3508	0.6375
6.46	-9.2761	0.5656	1.6266	0.0117	0.0009	-0.0056	21.4996	-15.6576	-7.2423	-0.4321	-0.5328	-0.3507	0.6375
6.47	-9.3183	0.5650	1.5992	-0.0009	0.0142	-0.0066	21.5123	-15.5640	-7.5207	-0.4321	-0.5329	-0.3507	0.6375
6.48	-9.3172	0.5663	1.5879	0.0006	0.0078	-0.0083	21.4347	-15.4987	-7.6225	-0.4322	-0.5329	-0.3507	0.6374
6.49	-9.3041	0.5775	1.6013	-0.0011	0.0037	-0.0077	21.4622	-15.5223	-7.4485	-0.4322	-0.5329	-0.3506	0.6374
6.5	-9.3084	0.5680	1.6084	0.0025	0.0026	-0.0083	21.3458	-15.6503	-7.5327	-0.4323	-0.5329	-0.3506	0.6374
6.51	-9.3711	0.5782	1.6077	-0.0050	0.0013	-0.0076	21.5496	-15.5244	-7.7761	-0.4323	-0.5329	-0.3505	0.6373
6.52	-9.3565	0.5758	1.5990	-0.0075	-0.0014	-0.0079	21.5488	-15.5846	-7.7135	-0.4324	-0.5329	-0.3505	0.6373
6.53	-9.3632	0.5676	1.6232	-0.0102	-0.0059	-0.0075	21.4379	-15.8123	-7.2946	-0.4325	-0.5329	-0.3505	0.6373
6.54	-9.3746	0.5520	1.6063	-0.0185	-0.0140	-0.0180	21.4670	-15.6349	-7.5238	-0.4326	-0.5328	-0.3505	0.6373
6.55	-9.3644	0.5405	1.6142	-0.0117	-0.0140	-0.0157	21.4305	-15.5660	-7.7590	-0.4327	-0.5327	-0.3504	0.6373
6.56	-9.3779	0.5393	1.6202	-0.0166	-0.0124	-0.0112	21.5729	-15.8042	-7.5032	-0.4328	-0.5327	-0.3504	0.6373
6.57	-9.3612	0.5203	1.6142	-0.0180	-0.0147	-0.0188	21.2710	-15.9830	-7.6496	-0.4329	-0.5326	-0.3504	0.6373
6.58	-9.3973	0.5232	1.6259	-0.0207	-0.0208	-0.0136	21.3364	-15.6223	-7.7836	-0.4331	-0.5325	-0.3504	0.6373
6.59	-9.3715	0.5115	1.5748	-0.0212	-0.0142	-0.0207	21.3603	-15.6002	-7.7662	-0.4332	-0.5323	-0.3504	0.6373
6.6	-9.3406	0.5036	1.6087	-0.0176	-0.0132	-0.0115	21.4839	-15.6253	-7.7368	-0.4333	-0.5323	-0.3504	0.6373
6.61	-9.4297	0.5134	1.5977	-0.0290	-0.0180	-0.0183	21.3976	-15.5699	-7.6857	-0.4334	-0.5321	-0.3504	0.6373
6.62	-9.4136	0.4813	1.5571	-0.0264	-0.0240	-0.0142	21.4105	-15.5193	-7.5488	-0.4336	-0.5320	-0.3505	0.6373
6.63	-9.4046	0.4734	1.5751	-0.0146	-0.0333	-0.0174	21.4842	-15.8393	-7.4396	-0.4337	-0.5319	-0.3504	0.6374
6.64	-9.4002	0.4506	1.5679	-0.0132	-0.0343	-0.0168	21.3261	-15.6158	-7.5153	-0.4338	-0.5317	-0.3503	0.6374
6.65	-9.4251	0.4444	1.5904	-0.0150	-0.0481	-0.0066	21.3951	-15.5140	-7.6207	-0.4340	-0.5315	-0.3502	0.6375
6.66	-9.4010	0.4544	1.5944	-0.0070	-0.0522	-0.0049	21.3285	-15.7329	-7.4589	-0.4342	-0.5314	-0.3501	0.6376
6.67	-9.3803	0.4686	1.6428	-0.0038	-0.0652	0.0029	21.4992	-15.5771	-7.6983	-0.4344	-0.5312	-0.3499	0.6377
6.68	-9.3801	0.4903	1.6434	0.0055	-0.0624	0.0078	21.3864	-15.7630	-7.6311	-0.4346	-0.5310	-0.3496	0.6379
6.69	-9.3259	0.5016	1.6561	0.0034	-0.0649	0.0043	21.2179	-15.5809	-7.5543	-0.4348	-0.5308	-0.3494	0.6380
6.7	-9.3111	0.5169	1.6923	0.0068	-0.0654	0.0022	21.3867	-15.7854	-7.5813	-0.4350	-0.5307	-0.3492	0.6381
6.71	-9.3184	0.5235	1.6895	0.0064	-0.0650	0.0049	21.3502	-15.7785	-7.6758	-0.4352	-0.5305	-0.3489	0.6383
6.72	-9.3093	0.5333	1.7038	0.0088	-0.0632	0.0062	21.3818	-15.8137	-7.5024	-0.4354	-0.5304	-0.3487	0.6384
6.73	-9.3023	0.5430	1.7169	0.0038	-0.0639	0.0026	21.3083	-15.6492	-7.7467	-0.4356	-0.5302	-0.3484	0.6385
6.74	-9.2785	0.5466	1.7211	0.0064	-0.0663	0.0034	21.1498	-15.5789	-7.7700	-0.4358	-0.5300	-0.3482	0.6387
6.75	-9.2837	0.5584	1.7402	0.0145	-0.0610	0.0064	21.4740	-15.6447	-7.7650	-0.4360	-0.5299	-0.3479	0.6388
6.76	-9.2761	0.5704	1.7359	0.0177	-0.0585	0.0106	21.3705	-15.7305	-7.7351	-0.4361	-0.5298	-0.3476	0.6389
6.77	-9.2438	0.5746	1.7499	0.0174	-0.0582	0.0094	21.4460	-15.6048	-7.8673	-0.4363	-0.5297	-0.3474	0.6391
6.78	-9.2817	0.5828	1.7728	0.0157	-0.0514	0.0020	21.4530	-15.6114	-7.7307	-0.4365	-0.5296	-0.3471	0.6392
6.79	-9.2732	0.5796	1.7587	0.0101	-0.0557	-0.0031	21.1921	-15.7432	-7.6590	-0.4366	-0.5294	-0.3469	0.6393
6.8	-9.2710	0.5897	1.8004	0.0188	-0.0491	-0.0016	21.3955	-15.6143	-7.6459	-0.4367	-0.5293	-0.3467	0.6395
6.81	-9.2751	0.6066	1.7882	0.0179	-0.0466	-0.0059	21.2591	-15.6033	-7.8556	-0.4368	-0.5292	-0.3464	0.6396
6.82	-9.2446	0.6033	1.7995	0.0162	-0.0443	-0.0079	21.1810	-15.7336	-8.0928	-0.4369	-0.5291	-0.3462	0.6397
6.83	-9.2734	0.6128	1.8161	0.0164	-0.0371	-0.0089	21.3340	-15.8279	-7.7867	-0.4370	-0.5291	-0.3461	0.6398
6.84	-9.2472	0.6062	1.7968	0.0173	-0.0388	-0.0087	21.1542	-15.6828	-7.7456	-0.4371	-0.5290	-0.3459	0.6399
6.85	-9.2443	0.6273	1.8265	0.0187	-0.0313	-0.0086	21.3150	-15.7284	-7.7679	-0.4372	-0.5289	-0.3457	0.6400
6.86	-9.2421	0.6438	1.8206	0.0176	-0.0291	-0.0111	21.3535	-15.4957	-7.8987	-0.4372	-0.5289	-0.3455	0.6401
6.87	-9.2303	0.6617	1.8307	0.0168	-0.0313	-0.0072	21.2152	-15.7027	-7.9965	-0.4373	-0.5288	-0.3454	0.6402
6.88	-9.2465	0.6843	1.8408	0.0065	-0.0160	-0.0170	21.5197	-15.8492	-7.7408	-0.4373	-0.5288	-0.3453	0.6403
6.89	-9.2671	0.6855	1.8435	0.0058	-0.0189	-0.0128	21.9339	-15.6129	-7.6559	-0.4374	-0.5287	-0.3452	0.6403
6.9	-9.2607	0.6771	1.8394	0.0029	-0.0156	-0.0188	22.1304	-15.5866	-7.7030	-0.4374	-0.5287	-0.3451	0.6404
6.91	-9.2435	0.6660	1.8416	-0.0063	-0.0198	-0.0220	21.6527	-16.0686	-7.7212	-0.4375	-0.5286	-0.3451	0.6404
6.92	-9.2532	0.6605	1.8350	-0.0078	-0.0105	-0.0220	21.3234	-16.8182	-7.9002	-0.4376	-0.5285	-0.3450	0.6404
6.93	-9.2406	0.6533	1.8297	-0.0088	-0.0038	-0.0298	21.1908	-16.3253	-8.0444	-0.4376	-0.5285	-0.3451	0.6405
6.94	-9.2393	0.6530	1.8277	-0.0062	-0.0045	-0.0284	21.2420	-15.7657	-8.1153	-0.4376	-0.5284	-0.3451	0.6405
6.95	-9.2455	0.6441	1.8262	-0.0115	-0.0043	-0.0330	21.2404	-15.8442	-8.1805	-0.4376	-0.5283	-0.3451	0.6405
6.96	-9.2601	0.6426	1.8092	-0.0127	0.0018	-0.0309	21.1071	-15.8129	-7.9145	-0.4376	-0.5283	-0.3452	0.6405
6.97	-9.2854	0.6352	1.8055	-0.0206	0.0099	-0.0323	21.2057	-15.4979	-8.0103	-0.4377	-0.5282	-0.3453	0.6405
6.98	-9.3160	0.6220	1.8008	-0.0276	0.0108	-0.0343	21.2276	-15.5089	-7.8984	-0.4377	-0.5282	-0.3454	0.6404
6.99	-9.3279	0.6042	1.7878	-0.0291	0.0048	-0.0338	21.3404	-15.6657	-7.7692	-0.4377	-0.5281	-0.3455	0.6404
7	-9.3369	0.5960	1.7859	-0.0216	0.0116	-0.0340	21.2852	-15.5190	-7.9206	-0.4378	-0.5280	-0.3456	0.6404
7.01	-9.3447	0.5869	1.7789	-0.0231	0.0047	-0.0337	21.0548	-15.7622	-7.8248	-0.4378	-0.5280	-0.3457	0.6404
7.02	-9.3312	0.5719	1.7685	-0.0249	0.0015	-0.0321	21.3449	-15.6319	-8.0612	-0.4378	-0.5279	-0.3458	0.6403
7.03	-9.3438	0.5716	1.7797	-0.0052	0.0026	-0.0337	21.3128	-15.6569	-8.0662	-0.4378	-0.5278	-0.3459	0.6404
7.04	-9.3624	0.5679	1.7805	-0.0214	-0.0117	-0.0336	21.0459	-15.6101	-7.9085	-0.4379	-0.5277	-0.3459	0.6404
7.05	-9.3323	0.5614	1.7868	-0.0205	-0.0184	-0.0312	21.1039	-15.7644	-7.8480	-0.4379	-0.5276	-0.3460	0.6404
7.06	-9.3263	0.5657	1.7994	-0.0279	-0.0204	-0.0224	21.3122	-15.9334	-7.9796	-0.4381	-0.5275	-0.3460	0.6405
7.07	-9.3095	0.5616	1.7954	-0.0176	-0.0184	-0.0290	21.7026	-15.9976	-7.9385	-0.4381	-0.5273	-0.3460	0.6405
7.08	-9.2941	0.5598	1.8117	-0.0098	-0.0129	-0.0257	21.5794	-15.8071	-8.0157	-0.4382	-0.5272	-0.3460	0.6405
7.09	-9.3037	0.5536	1.8199	-0.0146	-0.0182	-0.0214	21.4045	-15.9020	-8.0871	-0.4383	-0.5271	-0.3460	0.6406
7.1	-9.3075	0.5542	1.8216	-0.0111	-0.0191	-0.0209	21.3012	-15.8163	-7.9287	-0.4384	-0.5270	-0.3460	0.6406
7.11	-9.2994	0.5504	1.8187	-0.0141	-0.0117	-0.0206	21.3650	-15.6851	-8.1487	-0.4384	-0.5270	-0.3460	0.6406
7.12	-9.2966	0.5560	1.8256	-0.0082	-0.0148	-0.0123	21.3970	-15.8026	-8.1001	-0.4385	-0.5269	-0.3459	0.6406
7.13	-9.2713	0.5580	1.8258	-0.0057	-0.0167	-0.0148	21.1748	-15.9029	-7.9504	-0.4386	-0.5268	-0.3459	0.6406
7.14	-9.2772	0.5735	1.8444	-0.0065	-0.0200	-0.0100	21.4043	-15.8209	-7.9647	-0.4387	-0.5268	-0.3458	0.6407
7.15	-9.2899	0.5884	1.8384	-0.0025	-0.0150	-0.0077	21.1775	-15.9285	-7.7986	-0.4388	-0.5267	-0.3457	0.6407
7.16	-9.2619	0.5936	1.8419	-0.0044	-0.0182	-0.0137	21.2037	-15.6158	-7.7638	-0.4389	-0.5267	-0.3457	0.6407
7.17	-9.2691	0.5965	1.8502	-0.0058	-0.0171	-0.0092	21.2468	-15.7449	-7.8926	-0.4390	-0.5266	-0.3456	0.6407
7.18	-9.2725	0.5942	1.8410	-0.0016	-0.0118	-0.0189	21.1064	-15.8471	-7.9950	-0.4391	-0.5265	-0.3456	0.6408
7.19	-9.2621	0.5899	1.8428	-0.0032	-0.0079	-0.0215	21.1778	-15.7723	-8.1232	-0.4391	-0.5265	-0.3455	0.6408
7.2	-9.2427	0.5836	1.8373	-0.0074	-0.0071	-0.0210	21.4377	-15.6220	-7.8541	-0.4392	-0.5264	-0.3455	0.6408
7.21	-9.2577	0.5823	1.8472	-0.0030	-0.0049	-0.0207	21.2775	-15.6608	-7.8026	-0.4392	-0.5264	-0.3455	0.6408
7.22	-9.2662	0.5825	1.8418	-0.0021	-0.0024	-0.0190	21.2448	-15.7431	-7.8643	-0.4392	-0.5264	-0.3455	0.6408
7.23	-9.2734	0.5883	1.8495	0.0057	-0.0023	-0.0182	21.1467	-15.4978	-7.7280	-0.4392	-0.5264	-0.3454	0.6408
7.24	-9.2738	0.5966	1.8499	0.0006	0.0004	-0.0123	21.2336	-15.7699	-8.0050	-0.4393	-0.5264	-0.3454	0.6408
7.25	-9.2555	0.6011	1.8494	-0.0030	0.0042	-0.0179	21.4635	-15.9202	-7.8186	-0.4393	-0.5264	-0.3454	0.6408
7.26	-9.2591	0.6105	1.8583	0.0111	0.0053	-0.0188	21.5497	-15.9406	-8.1340	-0.4393	-0.5264	-0.3453	0.6408
7.27	-9.2685	0.6189	1.8461	0.0087	0.0076	-0.0183	21.3056	-16.0375	-8.0910	-0.4393	-0.5265	-0.3453	0.6408
7.28	-9.2510	0.6129	1.8423	-0.0008	0.0090	-0.0268	21.3475	-15.8528	-7.8123	-0.4393	-0.5265	-0.3453	0.6408
7.29	-9.2595	0.6185	1.8500	0.0080	0.0128	-0.0248	21.5305	-15.9651	-7.9293	-0.4393	-0.5265	-0.3453	0.6408
7.3	-9.2669	0.6148	1.8307	0.0023	0.0103	-0.0232	21.2902	-15.7496	-7.9797	-0.4393	-0.5265	-0.3453	0.6408
7.31	-9.2634	0.6161	1.8428	0.0004	0.0173	-0.0285	21.3441	-15.7219	-7.9532	-0.4392	-0.5266	-0.3453	0.6407
7.32	-9.2605	0.6149	1.8372	0.0001	0.0183	-0.0252	21.2984	-15.8335	-8.1009	-0.4392	-0.5266	-0.3454	0.6407
7.33	-9.2725	0.6110	1.8383	-0.0058	0.0217	-0.0318	21.3549	-15.6588	-8.1785	-0.4392	-0.5266	-0.3454	0.6407
7.34	-9.2717	0.6107	1.8246	-0.0074	0.0242	-0.0260	21.2333	-15.5694	-8.0921	-0.4391	-0.5267	-0.3455	0.6406
7.35	-9.2657	0.6009	1.8293	-0.0118	0.0219	-0.0339	21.1461	-15.5358	-7.8346	-0.4391	-0.5267	-0.3456	0.6406
7.36	-9.2920	0.6030	1.8146	-0.0199	0.0253	-0.0262	21.3873	-15.7125	-8.0567	-0.4391	-0.5267	-0.3457	0.6405
7.37	-9.3034	0.5901	1.8038	-0.0079	0.0268	-0.0270	21.2346	-15.7316	-7.7899	-0.4391	-0.5267	-0.3458	0.6404
7.38	-9.3230	0.5845	1.8071	-0.0178	0.0242	-0.0335	21.2831	-15.6749	-7.8114	-0.4391	-0.5268	-0.3459	0.6404
7.39	-9.3213	0.5697	1.7941	-0.0193	0.0267	-0.0319	21.6116	-15.4628	-7.6085	-0.4391	-0.5268	-0.3461	0.6403
7.4	-9.3081	0.5780	1.7846	-0.0082	0.0215	-0.0319	21.8263	-15.3419	-7.5872	-0.4390	-0.5268	-0.3462	0.6402
7.41	-9.2843	0.5896	1.7990	-0.0185	0.0148	-0.0309	21.3695	-15.9851	-7.7759	-0.4390	-0.5268	-0.3463	0.6402
7.42	-9.3254	0.5959	1.8055	-0.0215	0.0107	-0.0288	21.2151	-16.6695	-7.8663	-0.4391	-0.5267	-0.3464	0.6402
7.43	-9.3278	0.5707	1.7998	-0.0187	0.0058	-0.0316	21.1937	-15.8306	-7.9242	-0.4391	-0.5267	-0.3464	0.6401
7.44	-9.3048	0.5491	1.8140	-0.0211	0.0070	-0.0319	21.3447	-15.5890	-7.8899	-0.4391	-0.5266	-0.3465	0.6401
7.45	-9.2653	0.5197	1.8107	-0.0095	0.0105	-0.0284	21.1684	-15.7519	-8.0122	-0.4391	-0.5266	-0.3466	0.6401
7.46	-9.2721	0.5207	1.8317	-0.0078	0.0160	-0.0163	21.2246	-15.7766	-7.7959	-0.4392	-0.5266	-0.3466	0.6400
7.47	-9.3101	0.5416	1.8238	-0.0090	0.0192	-0.0070	21.4508	-15.7846	-7.9632	-0.4392	-0.5267	-0.3466	0.6399
7.48	-9.3122	0.5754	1.8196	-0.0066	0.0167	-0.0082	21.2429	-15.8484	-8.1137	-0.4393	-0.5267	-0.3466	0.6399
7.49	-9.2820	0.6093	1.8161	-0.0056	0.0250	-0.0115	21.5037	-15.8922	-7.8137	-0.4393	-0.5268	-0.3467	0.6398
7.5	-9.2647	0.6157	1.8007	-0.0080	0.0285	-0.0128	21.2936	-15.9768	-7.7773	-0.4393	-0.5269	-0.3467	0.6397
7.51	-9.2580	0.6095	1.7866	-0.0108	0.0235	-0.0090	21.3486	-15.7421	-7.9347	-0.4394	-0.5270	-0.3468	0.6396
7.52	-9.2602	0.5957	1.7808	-0.0077	0.0300	-0.0182	21.3239	-15.6766	-7.9942	-0.4394	-0.5270	-0.3468	0.6395
7.53	-9.2792	0.5869	1.7705	-0.0073	0.0322	-0.0183	21.1578	-15.6257	-7.8080	-0.4393	-0.5271	-0.3469	0.6394
7.54	-9.3055	0.5914	1.7744	-0.0070	0.0339	-0.0218	21.2324	-15.7165	-7.8167	-0.4393	-0.5272	-0.3470	0.6393
7.55	-9.3196	0.5983	1.7760	-0.0094	0.0279	-0.0251	21.1215	-15.6952	-7.8641	-0.4393	-0.5273	-0.3470	0.6392
7.56	-9.3275	0.5981	1.7801	-0.0126	0.0250	-0.0303	21.0893	-15.7061	-7.9742	-0.4393	-0.5273	-0.3471	0.6391
7.57	-9.3086	0.5992	1.7748	-0.0075	0.0245	-0.0315	21.2494	-15.5876	-7.9224	-0.4393	-0.5273	-0.3472	0.6391
7.58	-9.2965	0.6043	1.7806	-0.0083	0.0229	-0.0294	21.1107	-15.8065	-7.7019	-0.4392	-0.5273	-0.3473	0.6390
7.59	-9.3078	0.5995	1.7635	-0.0150	0.0281	-0.0325	21.1807	-15.7035	-7.8830	-0.4392	-0.5274	-0.3474	0.6390
7.6	-9.3065	0.5968	1.7678	-0.0131	0.0199	-0.0291	21.2077	-15.7014	-7.8620	-0.4392	-0.5274	-0.3475	0.6389
7.61	-9.3212	0.6009	1.7713	-0.0209	0.0255	-0.0276	21.1921	-15.6877	-7.8606	-0.4392	-0.5274	-0.3476	0.6388
7.62	-9.3268	0.5929	1.7688	-0.0249	0.0224	-0.0295	21.2106	-15.7503	-7.9052	-0.4392	-0.5274	-0.3478	0.6387
7.63	-9.3168	0.5844	1.7466	-0.0191	0.0192	-0.0255	21.5907	-15.8865	-8.0873	-0.4393	-0.5274	-0.3479	0.6387
7.64	-9.2958	0.5867	1.7482	-0.0251	0.0178	-0.0291	21.4073	-15.8744	-7.7738	-0.4393	-0.5274	-0.3480	0.6386
7.65	-9.3330	0.5892	1.7512	-0.0265	0.0250	-0.0340	21.4036	-15.8570	-7.8172	-0.4393	-0.5274	-0.3481	0.6385
7.66	-9.3301	0.5695	1.7271	-0.0242	0.0228	-0.0330	21.5065	-15.6350	-7.8856	-0.4393	-0.5274	-0.3483	0.6384
7.67	-9.3232	0.5627	1.7359	-0.0248	0.0185	-0.0335	21.3521	-15.4842	-7.8616	-0.4393	-0.5273	-0.3484	0.6384
7.68	-9.3269	0.5505	1.7262	-0.0253	0.0110	-0.0287	21.2645	-15.7066	-7.8656	-0.4393	-0.5273	-0.3485	0.6383
7.69	-9.3306	0.5499	1.7305	-0.0246	0.0102	-0.0276	21.3168	-15.8172	-7.8926	-0.4394	-0.5272	-0.3486	0.6383
7.7	-9.3493	0.5612	1.7292	-0.0300	0.0121	-0.0281	21.1727	-15.7679	-8.0923	-0.4394	-0.5272	-0.3488	0.6382
7.71	-9.3367	0.5666	1.7256	-0.0077	0.0053	-0.0255	21.3357	-15.9075	-7.8913	-0.4395	-0.5272	-0.3488	0.6382
7.72	-9.3415	0.5830	1.7452	-0.0193	0.0049	-0.0284	21.0400	-15.5434	-7.7408	-0.4395	-0.5271	-0.3489	0.6382
7.73	-9.3627	0.5920	1.7331	-0.0157	0.0122	-0.0265	21.1311	-15.8061	-7.7936	-0.4395	-0.5271	-0.3489	0.6381
7.74	-9.3457	0.5894	1.7237	-0.0187	0.0025	-0.0336	21.3248	-15.5871	-7.7532	-0.4396	-0.5271	-0.3490	0.6381
7.75	-9.3247	0.5835	1.7306	-0.0134	-0.0009	-0.0332	21.2724	-15.6510	-7.9282	-0.4396	-0.5270	-0.3491	0.6381
7.76	-9.3148	0.5743	1.7229	-0.0251	-0.0009	-0.0343	21.2831	-15.6768	-7.7648	-0.4396	-0.5269	-0.3492	0.6381
7.77	-9.3193	0.5657	1.7228	-0.0271	0.0003	-0.0299	21.3608	-15.5585	-7.8688	-0.4397	-0.5268	-0.3493	0.6381
7.78	-9.3176	0.5608	1.7202	-0.0188	0.0022	-0.0347	21.3942	-15.7600	-7.8512	-0.4397	-0.5268	-0.3493	0.6381
7.79	-9.3209	0.5624	1.7185	-0.0160	0.0081	-0.0353	21.3467	-15.6118	-7.9102	-0.4397	-0.5267	-0.3494	0.6381
7.8	-9.3219	0.5611	1.7166	-0.0139	0.0053	-0.0328	21.2200	-15.4620	-7.9818	-0.4397	-0.5267	-0.3495	0.6381
7.81	-9.3388	0.5620	1.7264	-0.0152	0.0001	-0.0337	21.5976	-15.7309	-7.9537	-0.4397	-0.5266	-0.3496	0.6381
7.82	-9.3516	0.5635	1.7229	-0.0230	-0.0040	-0.0338	21.3980	-15.6742	-7.9420	-0.4398	-0.5265	-0.3496	0.6381
7.83	-9.3345	0.5524	1.7292	-0.0263	-0.0044	-0.0331	21.4149	-15.7498	-7.8390	-0.4398	-0.5264	-0.3497	0.6381
7.84	-9.3280	0.5431	1.7288	-0.0254	-0.0093	-0.0340	21.4913	-15.8196	-8.1898	-0.4399	-0.5263	-0.3498	0.6381
7.85	-9.3190	0.5363	1.7211	-0.0253	-0.0131	-0.0340	21.4480	-15.6666	-7.9025	-0.4400	-0.5262	-0.3499	0.6381
7.86	-9.2987	0.5197	1.7311	-0.0297	-0.0143	-0.0345	21.3529	-15.5958	-7.8819	-0.4401	-0.5260	-0.3500	0.6381
7.87	-9.3103	0.5140	1.7335	-0.0261	-0.0101	-0.0322	21.3966	-15.6497	-7.7952	-0.4401	-0.5259	-0.3500	0.6381
7.88	-9.3143	0.5031	1.7281	-0.0188	-0.0075	-0.0342	21.3953	-15.7721	-7.7675	-0.4402	-0.5258	-0.3501	0.6381
7.89	-9.3166	0.5071	1.7389	-0.0075	-0.0184	-0.0352	21.9135	-15.3664	-7.7641	-0.4401	-0.5257	-0.3501	0.6382
7.9	-9.3187	0.5123	1.7346	-0.0113	-0.0174	-0.0297	22.0996	-15.2494	-7.7080	-0.4401	-0.5257	-0.3500	0.6384
7.91	-9.3129	0.5107	1.7315	-0.0104	-0.0105	-0.0327	21.3661	-15.7567	-7.8773	-0.4401	-0.5256	-0.3500	0.6384
7.92	-9.3179	0.5145	1.7354	-0.0036	-0.0112	-0.0338	21.2982	-16.3501	-7.7546	-0.4401	-0.5255	-0.3500	0.6384
7.93	-9.3023	0.5106	1.7364	-0.0003	-0.0089	-0.0345	21.0993	-15.7649	-7.7603	-0.4401	-0.5254	-0.3500	0.6385
7.94	-9.2976	0.5143	1.7447	-0.0059	-0.0104	-0.0333	21.0102	-15.4179	-7.8339	-0.4402	-0.5254	-0.3500	0.6385
7.95	-9.3106	0.5167	1.7397	-0.0057	-0.0032	-0.0352	20.9782	-15.7367	-7.9791	-0.4402	-0.5253	-0.3500	0.6386
7.96	-9.3101	0.5147	1.7519	-0.0024	-0.0036	-0.0342	20.9727	-15.7248	-7.9561	-0.4401	-0.5253	-0.3501	0.6386
7.97	-9.3177	0.5191	1.7644	-0.0060	-0.0030	-0.0359	21.1937	-15.4657	-7.9790	-0.4401	-0.5252	-0.3501	0.6386
7.98	-9.3019	0.5236	1.7575	-0.0060	-0.0108	-0.0369	21.2388	-15.3531	-7.9515	-0.4401	-0.5251	-0.3501	0.6387
7.99	-9.2849	0.5246	1.7667	-0.0063	-0.0148	-0.0352	21.0200	-15.5125	-8.0798	-0.4402	-0.5250	-0.3501	0.6388
8	-9.2803	0.5301	1.7654	-0.0071	-0.0056	-0.0330	21.0139	-15.7154	-8.0342	-0.4402	-0.5250	-0.3501	0.6388
8.01	-9.2744	0.5184	1.7620	-0.0070	-0.0030	-0.0334	21.2983	-15.7771	-7.9156	-0.4402	-0.5249	-0.3502	0.6388
8.02	-9.2772	0.5186	1.7642	-0.0123	0.0014	-0.0343	21.4400	-15.6688	-8.0685	-0.4402	-0.5249	-0.3502	0.6388
8.03	-9.2807	0.5079	1.7659	-0.0109	0.0038	-0.0356	21.5216	-15.5541	-8.0491	-0.4402	-0.5248	-0.3503	0.6388
8.04	-9.2882	0.5001	1.7725	-0.0112	0.0042	-0.0347	21.3980	-15.5861	-7.9170	-0.4402	-0.5248	-0.3504	0.6388
8.05	-9.2939	0.5008	1.7622	-0.0120	0.0025	-0.0382	21.2148	-15.5549	-7.8234	-0.4402	-0.5247	-0.3504	0.6388
8.06	-9.2967	0.4925	1.7709	-0.0226	0.0014	-0.0334	21.0364	-15.6729	-8.0859	-0.4402	-0.5246	-0.3505	0.6388
8.07	-9.3107	0.4956	1.7625	-0.0328	0.0082	-0.0341	21.2242	-15.6635	-8.1440	-0.4402	-0.5246	-0.3506	0.6388
8.08	-9.3036	0.4879	1.7633	-0.0272	0.0055	-0.0338	21.2519	-15.8323	-8.0111	-0.4403	-0.5245	-0.3508	0.6388
8.09	-9.3166	0.4739	1.7623	-0.0285	0.0054	-0.0337	21.2695	-15.4971	-8.0998	-0.4403	-0.5244	-0.3509	0.6387
8.1	-9.3239	0.4721	1.7497	-0.0328	0.0144	-0.0329	21.1409	-15.4722	-7.9261	-0.4404	-0.5244	-0.3510	0.6386
8.11	-9.3315	0.4702	1.7500	-0.0211	0.0145	-0.0327	21.0633	-15.7638	-7.8739	-0.4404	-0.5243	-0.3511	0.6386
8.12	-9.3338	0.4592	1.7399	-0.0250	0.0115	-0.0329	21.2820	-15.4904	-7.8499	-0.4404	-0.5243	-0.3513	0.6386
8.13	-9.3459	0.4594	1.7479	-0.0231	0.0121	-0.0327	21.1585	-15.5050	-7.9856	-0.4404	-0.5243	-0.3514	0.6385
8.14	-9.3545	0.4578	1.7451	-0.0300	0.0064	-0.0336	21.0631	-15.3414	-8.0535	-0.4405	-0.5242	-0.3515	0.6385
8.15	-9.3542	0.4519	1.7441	-0.0293	0.0096	-0.0340	21.0777	-15.5228	-7.9550	-0.4405	-0.5241	-0.3516	0.6384
8.16	-9.3528	0.4478	1.7501	-0.0285	-0.0012	-0.0334	21.0801	-15.5415	-7.9145	-0.4406	-0.5240	-0.3517	0.6384
8.17	-9.3411	0.4386	1.7485	-0.0276	-0.0097	-0.0350	21.0651	-15.3640	-7.7602	-0.4407	-0.5239	-0.3518	0.6384
8.18	-9.3412	0.4320	1.7496	-0.0282	-0.0114	-0.0367	21.1073	-15.4149	-7.8005	-0.4407	-0.5238	-0.3519	0.6384
8.19	-9.3354	0.4265	1.7528	-0.0248	-0.0077	-0.0352	21.4147	-15.6124	-7.9962	-0.4408	-0.5237	-0.3520	0.6384
8.2	-9.3324	0.4166	1.7702	-0.0269	-0.0094	-0.0353	21.4558	-15.6989	-8.1772	-0.4408	-0.5235	-0.3521	0.6384
8.21	-9.3265	0.4119	1.7644	-0.0245	-0.0118	-0.0326	21.2953	-15.6281	-8.0224	-0.4409	-0.5234	-0.3522	0.6385
8.22	-9.3103	0.4084	1.7703	-0.0131	-0.0131	-0.0345	21.4175	-15.5618	-7.9326	-0.4409	-0.5233	-0.3522	0.6385
8.23	-9.2934	0.4047	1.7750	-0.0086	-0.0128	-0.0332	21.3811	-15.5861	-8.0402	-0.4410	-0.5232	-0.3522	0.6385
8.24	-9.2813	0.4100	1.7743	-0.0078	-0.0126	-0.0322	21.2365	-15.4808	-8.1589	-0.4410	-0.5232	-0.3522	0.6386
8.25	-9.2675	0.4149	1.7854	-0.0054	-0.0146	-0.0340	21.2509	-15.7226	-8.1558	-0.4410	-0.5231	-0.3522	0.6386
8.26	-9.2804	0.4133	1.8009	-0.0097	-0.0125	-0.0336	21.2851	-15.5918	-7.9261	-0.4410	-0.5230	-0.3522	0.6387
8.27	-9.2891	0.4149	1.7934	-0.0091	-0.0142	-0.0339	21.4648	-15.5596	-8.1546	-0.4411	-0.5229	-0.3522	0.6387
8.28	-9.2813	0.4152	1.7987	-0.0073	-0.0084	-0.0338	21.2112	-15.5994	-8.1354	-0.4411	-0.5228	-0.3523	0.6388
8.29	-9.2756	0.4095	1.7967	-0.0042	-0.0021	-0.0327	21.1443	-15.3832	-7.9109	-0.4411	-0.5228	-0.3523	0.6388
8.3	-9.2795	0.4038	1.7956	-0.0064	-0.0091	-0.0337	21.1963	-15.2722	-8.0209	-0.4411	-0.5227	-0.3523	0.6389
8.31	-9.2745	0.4018	1.7941	-0.0064	0.0036	-0.0337	21.0554	-15.4159	-7.8454	-0.4411	-0.5227	-0.3523	0.6389
8.32	-9.2798	0.3907	1.7966	-0.0084	-0.0007	-0.0334	20.9929	-15.3973	-8.0293	-0.4411	-0.5226	-0.3524	0.6389
8.33	-9.2862	0.3915	1.7881	-0.0076	0.0125	-0.0339	21.2906	-15.2203	-8.0745	-0.4411	-0.5226	-0.3524	0.6389
8.34	-9.2716	0.3944	1.7894	-0.0001	0.0103	-0.0302	21.2122	-15.2845	-8.0641	-0.4410	-0.5226	-0.3525	0.6389
8.35	-9.2837	0.3991	1.7974	0.0056	0.0154	-0.0299	21.4066	-15.5156	-8.0612	-0.4410	-0.5226	-0.3525	0.6388
8.36	-9.3047	0.3996	1.7902	0.0082	0.0141	-0.0315	21.2397	-15.3480	-7.9175	-0.4409	-0.5227	-0.3525	0.6388
8.37	-9.3122	0.3984	1.7944	0.0071	0.0100	-0.0273	21.1968	-15.4811	-7.8506	-0.4409	-0.5227	-0.3525	0.6388
8.38	-9.3127	0.4029	1.7878	0.0140	0.0139	-0.0249	21.8049	-15.4178	-7.9124	-0.4408	-0.5228	-0.3525	0.6388
8.39	-9.2778	0.4051	1.7780	0.0102	0.0100	-0.0276	22.1618	-15.4511	-7.7004	-0.4408	-0.5228	-0.3525	0.6388
8.4	-9.2966	0.4065	1.7981	0.0173	0.0072	-0.0270	22.4073	-15.3418	-7.4627	-0.4407	-0.5229	-0.3524	0.6389
8.41	-9.3561	0.4054	1.7841	0.0108	0.0136	-0.0233	21.7026	-15.6848	-7.8399	-0.4407	-0.5229	-0.3524	0.6389
8.42	-9.3511	0.3970	1.7784	0.0134	0.0064	-0.0282	21.4915	-16.3219	-8.0539	-0.4406	-0.5230	-0.3524	0.6389
8.43	-9.3009	0.3788	1.7949	0.0163	-0.0035	-0.0208	21.2945	-15.7239	-8.0058	-0.4406	-0.5230	-0.3523	0.6389
8.44	-9.2658	0.3585	1.7919	0.0159	0.0069	-0.0216	21.4590	-15.3395	-7.8924	-0.4406	-0.5230	-0.3523	0.6389
8.45	-9.2630	0.3642	1.8069	0.0202	0.0097	-0.0180	21.4291	-15.4953	-7.7593	-0.4405	-0.5231	-0.3522	0.6389
8.46	-9.2539	0.3754	1.8076	0.0223	0.0046	-0.0059	21.7072	-15.4104	-7.8783	-0.4405	-0.5232	-0.3521	0.6389
8.47	-9.2192	0.3936	1.8243	0.0210	0.0157	-0.0147	21.3611	-15.4610	-7.8542	-0.4405	-0.5233	-0.3520	0.6389
8.48	-9.1954	0.4028	1.8358	0.0230	0.0234	-0.0104	21.2521	-15.4343	-7.8775	-0.4404	-0.5234	-0.3520	0.6389
8.49	-9.1761	0.3876	1.8331	0.0238	0.0345	-0.0132	21.2691	-15.4463	-7.7609	-0.4404	-0.5236	-0.3519	0.6388
8.5	-9.1458	0.3750	1.8121	0.0333	0.0477	-0.0090	21.3217	-15.4462	-7.8970	-0.4403	-0.5238	-0.3519	0.6387
8.51	-9.1301	0.3924	1.7963	0.0377	0.0462	-0.0061	21.5195	-15.2364	-7.6151	-0.4401	-0.5241	-0.3518	0.6386
8.52	-9.1742	0.4265	1.7814	0.0373	0.0667	-0.0065	21.3550	-15.4244	-7.6232	-0.4400	-0.5244	-0.3518	0.6385
8.53	-9.2519	0.4687	1.7537	0.0431	0.0671	-0.0062	21.3555	-15.5531	-7.9421	-0.4398	-0.5247	-0.3517	0.6384
8.54	-9.3202	0.5037	1.7429	0.0376	0.0690	-0.0067	21.3989	-15.5258	-7.7584	-0.4397	-0.5250	-0.3517	0.6382
8.55	-9.3609	0.5298	1.7263	0.0323	0.0676	-0.0107	21.2575	-15.5194	-7.8657	-0.4395	-0.5253	-0.3517	0.6381
8.56	-9.3878	0.5411	1.7077	0.0233	0.0634	-0.0069	21.4536	-15.6269	-7.7520	-0.4394	-0.5256	-0.3517	0.6379
8.57	-9.4072	0.5443	1.6837	0.0202	0.0595	-0.0128	21.7920	-15.5996	-7.6837	-0.4393	-0.5258	-0.3517	0.6378
8.58	-9.4203	0.5413	1.6681	0.0236	0.0606	-0.0207	21.6677	-15.6634	-7.7732	-0.4392	-0.5261	-0.3518	0.6377
8.59	-9.4345	0.5326	1.6537	0.0176	0.0491	-0.0253	21.5237	-15.7368	-7.8370	-0.4390	-0.5263	-0.3518	0.6376
8.6	-9.4551	0.5151	1.6490	0.0170	0.0396	-0.0267	21.6674	-15.5868	-7.8621	-0.4389	-0.5264	-0.3519	0.6375
8.61	-9.4536	0.5077	1.6350	0.0054	0.0391	-0.0244	21.5686	-15.6418	-7.7328	-0.4388	-0.5266	-0.3519	0.6374
8.62	-9.4103	0.4980	1.6361	0.0073	0.0239	-0.0233	21.3596	-15.5617	-7.7816	-0.4388	-0.5266	-0.3520	0.6374
8.63	-9.4242	0.5016	1.6472	0.0061	0.0205	-0.0172	21.3415	-15.4341	-7.7669	-0.4388	-0.5267	-0.3520	0.6373
8.64	-9.4160	0.4901	1.6403	-0.0068	0.0133	-0.0212	21.6345	-15.4380	-7.7632	-0.4388	-0.5268	-0.3520	0.6373
8.65	-9.3955	0.4830	1.6452	-0.0061	0.0103	-0.0205	21.3867	-15.4608	-7.6264	-0.4388	-0.5268	-0.3520	0.6372
8.66	-9.3670	0.4697	1.6446	-0.0076	0.0105	-0.0262	21.4966	-15.6458	-7.7729	-0.4388	-0.5268	-0.3521	0.6372
8.67	-9.3459	0.4571	1.6611	-0.0054	0.0031	-0.0225	21.5710	-15.5023	-7.7580	-0.4388	-0.5268	-0.3521	0.6372
8.68	-9.3593	0.4613	1.6692	-0.0070	0.0072	-0.0165	21.4104	-15.4391	-7.7901	-0.4388	-0.5268	-0.3521	0.6371
8.69	-9.3507	0.4599	1.6695	-0.0064	-0.0002	-0.0191	21.4809	-15.6183	-7.7027	-0.4389	-0.5268	-0.3521	0.6371
8.7	-9.3327	0.4636	1.6827	-0.0084	-0.0001	-0.0185	21.4381	-15.6225	-7.6541	-0.4389	-0.5267	-0.3521	0.6371
8.71	-9.3461	0.4716	1.6836	-0.0036	0.0063	-0.0175	21.3665	-15.5088	-7.6927	-0.4390	-0.5268	-0.3521	0.6371
8.72	-9.3355	0.4640	1.6725	-0.0063	0.0053	-0.0151	21.5097	-15.5491	-7.6574	-0.4390	-0.5268	-0.3521	0.6370
8.73	-9.3048	0.4572	1.6759	-0.0042	0.0054	-0.0196	21.5818	-15.4597	-7.6991	-0.4390	-0.5268	-0.3521	0.6370
8.74	-9.3002	0.4563	1.6839	-0.0035	-0.0005	-0.0165	21.4170	-15.4205	-7.6440	-0.4391	-0.5268	-0.3521	0.6370
8.75	-9.3077	0.4524	1.6779	-0.0027	0.0063	-0.0156	21.5107	-15.4695	-7.7384	-0.4391	-0.5268	-0.3521	0.6370
8.76	-9.3195	0.4557	1.6752	0.0023	0.0079	-0.0167	21.5054	-15.5769	-7.7288	-0.4391	-0.5268	-0.3521	0.6369
8.77	-9.3275	0.4546	1.6822	0.0001	0.0099	-0.0167	21.4190	-15.7304	-7.9657	-0.4391	-0.5268	-0.3520	0.6369
8.78	-9.3247	0.4533	1.6829	0.0044	0.0132	-0.0154	21.5734	-15.5827	-7.8115	-0.4391	-0.5269	-0.3520	0.6369
8.79	-9.3302	0.4592	1.6804	-0.0028	0.0063	-0.0139	21.5367	-15.3836	-7.6611	-0.4392	-0.5269	-0.3520	0.6368
8.8	-9.3253	0.4648	1.6788	-0.0050	0.0034	-0.0168	21.7646	-15.5161	-7.6028	-0.4392	-0.5269	-0.3520	0.6368
8.81	-9.3202	0.4693	1.6760	-0.0028	0.0073	-0.0093	21.5979	-15.6147	-7.6610	-0.4393	-0.5270	-0.3520	0.6368
8.82	-9.3163	0.4641	1.6783	0.0020	0.0055	-0.0069	21.5696	-15.6264	-7.7850	-0.4393	-0.5270	-0.3520	0.6367
8.83	-9.3282	0.4661	1.6788	-0.0000	0.0008	-0.0086	21.6215	-15.4204	-7.6092	-0.4394	-0.5270	-0.3519	0.6367
8.84	-9.3205	0.4666	1.6801	-0.0054	0.0091	-0.0074	21.4395	-15.5282	-7.7989	-0.4394	-0.5271	-0.3519	0.6366
8.85	-9.3211	0.4695	1.6832	-0.0078	0.0096	-0.0065	21.4534	-15.6078	-7.6454	-0.4395	-0.5271	-0.3519	0.6365
8.86	-9.3217	0.4735	1.6770	-0.0046	0.0136	-0.0085	21.3405	-15.5286	-7.5628	-0.4395	-0.5271	-0.3519	0.6365
8.87	-9.3244	0.4734	1.6839	0.0014	0.0054	-0.0076	21.3651	-15.4761	-7.6074	-0.4396	-0.5272	-0.3519	0.6364
8.88	-9.3255	0.4719	1.6860	-0.0061	0.0070	-0.0093	21.4965	-15.2942	-7.4978	-0.4396	-0.5272	-0.3518	0.6364
8.89	-9.3139	0.4673	1.6878	-0.0032	0.0078	-0.0122	21.9536	-15.1681	-7.3755	-0.4397	-0.5272	-0.3518	0.6363
8.9	-9.3080	0.4618	1.6871	0.0058	0.0044	-0.0122	22.1225	-15.1169	-7.3146	-0.4397	-0.5273	-0.3518	0.6363
8.91	-9.3041	0.4588	1.6883	-0.0025	0.0121	-0.0124	21.4715	-15.7181	-7.5510	-0.4397	-0.5273	-0.3518	0.6363
8.92	-9.3014	0.4599	1.6848	0.0108	0.0023	-0.0076	21.2814	-16.4227	-7.5934	-0.4398	-0.5274	-0.3517	0.6362
8.93	-9.3055	0.4683	1.6926	0.0157	0.0091	-0.0107	21.2140	-15.9433	-7.7194	-0.4398	-0.5275	-0.3516	0.6362
8.94	-9.3065	0.4780	1.6885	0.0105	0.0103	-0.0171	21.4852	-15.5138	-7.8546	-0.4397	-0.5275	-0.3516	0.6362
8.95	-9.3050	0.4929	1.6894	0.0112	0.0167	-0.0092	21.2081	-15.6958	-7.9950	-0.4397	-0.5276	-0.3516	0.6361
8.96	-9.3062	0.5015	1.6954	0.0072	0.0197	-0.0072	21.5096	-15.6993	-7.7351	-0.4397	-0.5277	-0.3515	0.6361
8.97	-9.3169	0.5040	1.6901	-0.0037	0.0096	-0.0105	21.5939	-15.7380	-7.8520	-0.4398	-0.5277	-0.3515	0.6360
8.98	-9.3138	0.5052	1.6844	-0.0069	0.0141	-0.0127	21.4860	-15.7103	-7.8463	-0.4398	-0.5278	-0.3515	0.6360
8.99	-9.3187	0.5080	1.6878	-0.0062	0.0159	-0.0124	21.4498	-15.7272	-7.6417	-0.4398	-0.5278	-0.3515	0.6359
9	-9.3251	0.5041	1.6885	-0.0065	0.0233	-0.0074	21.3953	-15.7177	-7.7612	-0.4399	-0.5279	-0.3516	0.6358
9.01	-9.3324	0.5009	1.6851	-0.0066	0.0113	-0.0103	21.2968	-15.7234	-7.7428	-0.4399	-0.5280	-0.3516	0.6357
9.02	-9.3323	0.5010	1.6871	-0.0075	0.0084	-0.0065	21.4553	-15.7196	-7.6630	-0.4400	-0.5280	-0.3516	0.6356
9.03	-9.3398	0.4962	1.6836	-0.0127	0.0129	-0.0081	21.1990	-15.7265	-7.8247	-0.4400	-0.5280	-0.3516	0.6356
9.04	-9.3441	0.4900	1.6733	-0.0120	0.0123	-0.0074	21.1634	-15.4293	-7.4636	-0.4401	-0.5281	-0.3516	0.6355
9.05	-9.3326	0.4854	1.6699	-0.0109	0.0174	-0.0101	21.1296	-15.5518	-7.6747	-0.4402	-0.5281	-0.3516	0.6354
9.06	-9.3404	0.4827	1.6707	-0.0141	0.0164	-0.0088	21.3545	-15.4555	-7.7132	-0.4402	-0.5281	-0.3517	0.6353
9.07	-9.3468	0.4829	1.6644	-0.0155	0.0136	-0.0132	21.4393	-15.3537	-7.7043	-0.4403	-0.5282	-0.3517	0.6352
9.08	-9.3457	0.4783	1.6573	-0.0086	0.0098	-0.0079	21.2636	-15.3624	-7.6777	-0.4403	-0.5282	-0.3517	0.6352
9.09	-9.3484	0.4763	1.6596	-0.0072	0.0138	-0.0125	21.2274	-15.4376	-7.4923	-0.4404	-0.5282	-0.3517	0.6351
9.1	-9.3539	0.4737	1.6629	-0.0073	0.0161	-0.0167	21.3780	-15.5570	-7.6281	-0.4404	-0.5283	-0.3518	0.6350
9.11	-9.3471	0.4677	1.6605	-0.0071	0.0068	-0.0102	21.2758	-15.6931	-7.7288	-0.4405	-0.5283	-0.3518	0.6350
9.12	-9.3374	0.4688	1.6691	-0.0020	0.0034	-0.0140	21.2881	-15.6947	-7.6359	-0.4405	-0.5283	-0.3517	0.6349
9.13	-9.3438	0.4791	1.6798	-0.0048	0.0052	-0.0172	21.4409	-15.5076	-7.4951	-0.4405	-0.5283	-0.3517	0.6349
9.14	-9.3395	0.4819	1.6645	-0.0071	0.0044	-0.0104	21.4407	-15.5770	-7.7492	-0.4406	-0.5283	-0.3517	0.6349
9.15	-9.3306	0.4898	1.6737	-0.0064	-0.0043	-0.0127	21.3758	-15.8201	-7.6507	-0.4406	-0.5283	-0.3517	0.6348
9.16	-9.3298	0.4920	1.6745	-0.0067	-0.0042	-0.0136	21.3175	-15.7523	-7.7998	-0.4407	-0.5283	-0.3517	0.6348
9.17	-9.3272	0.4890	1.6776	-0.0051	-0.0026	-0.0107	21.4328	-15.6039	-7.6822	-0.4408	-0.5283	-0.3517	0.6348
9.18	-9.3312	0.4861	1.6838	-0.0074	0.0064	-0.0172	21.3232	-15.5414	-7.7222	-0.4408	-0.5283	-0.3517	0.6348
9.19	-9.3318	0.4806	1.6827	-0.0069	-0.0015	-0.0129	21.3309	-15.7377	-7.8381	-0.4409	-0.5283	-0.3516	0.6347
9.2	-9.3303	0.4780	1.6865	-0.0086	-0.0025	-0.0124	21.3584	-15.6385	-7.6702	-0.4409	-0.5283	-0.3516	0.6347
9.21	-9.3226	0.4770	1.6827	0.0025	0.0033	-0.0099	21.3929	-15.6220	-7.7289	-0.4410	-0.5283	-0.3516	0.6347
9.22	-9.3145	0.4821	1.6859	0.0005	-0.0007	-0.0096	21.5365	-15.6506	-7.6379	-0.4410	-0.5283	-0.3515	0.6347
9.23	-9.2925	0.4929	1.6878	-0.0103	-0.0082	-0.0137	21.3194	-15.5724	-7.8803	-0.4411	-0.5283	-0.3515	0.6347
9.24	-9.2780	0.4968	1.6912	-0.0046	0.0040	-0.0070	21.0434	-15.4446	-7.7970	-0.4412	-0.5283	-0.3515	0.6346
9.25	-9.2932	0.4972	1.6911	-0.0066	0.0010	-0.0120	21.2837	-15.4633	-7.5562	-0.4412	-0.5283	-0.3515	0.6346
9.26	-9.3114	0.4950	1.6889	-0.0061	0.0027	-0.0121	21.1107	-15.4536	-7.4420	-0.4413	-0.5283	-0.3515	0.6345
9.27	-9.3041	0.4932	1.6909	-0.0002	-0.0059	-0.0135	21.1866	-15.4598	-7.4869	-0.4413	-0.5283	-0.3514	0.6345
9.28	-9.3082	0.4888	1.6974	-0.0013	0.0000	-0.0150	21.1520	-15.4546	-7.6438	-0.4414	-0.5283	-0.3514	0.6345
9.29	-9.3295	0.4920	1.6942	-0.0039	0.0035	-0.0106	21.1473	-15.4718	-7.5916	-0.4414	-0.5283	-0.3514	0.6345
9.3	-9.2990	0.4959	1.6818	0.0001	-0.0033	-0.0074	21.0025	-15.6508	-7.6213	-0.4415	-0.5283	-0.3513	0.6345
9.31	-9.2931	0.4979	1.7097	0.0063	-0.0023	-0.0117	21.2839	-15.6093	-7.5917	-0.4415	-0.5283	-0.3513	0.6345
9.32	-9.3199	0.4967	1.6996	0.0071	0.0095	-0.0154	21.4436	-15.6753	-7.6246	-0.4415	-0.5284	-0.3512	0.6344
9.33	-9.3218	0.4909	1.7002	0.0132	0.0042	-0.0094	21.2692	-15.7098	-7.7405	-0.4415	-0.5284	-0.3512	0.6344
9.34	-9.3288	0.4906	1.7069	0.0100	0.0067	-0.0126	21.5094	-15.8120	-7.5851	-0.4415	-0.5285	-0.3511	0.6344
9.35	-9.3146	0.4907	1.6977	0.0117	0.0015	-0.0123	21.5372	-15.7856	-7.7094	-0.4415	-0.5285	-0.3510	0.6344
9.36	-9.3027	0.5123	1.7108	0.0173	0.0004	-0.0087	21.3386	-15.6061	-7.6848	-0.4415	-0.5286	-0.3510	0.6344
9.37	-9.3037	0.5312	1.7148	0.0190	0.0024	-0.0086	21.1750	-15.8369	-7.7241	-0.4415	-0.5287	-0.3508	0.6344
9.38	-9.3133	0.5601	1.7005	0.0151	0.0102	-0.0076	21.5766	-15.6671	-7.5188	-0.4415	-0.5287	-0.3508	0.6344
9.39	-9.3057	0.5901	1.6983	0.0055	0.0074	-0.0078	22.0183	-15.4319	-7.3792	-0.4415	-0.5288	-0.3507	0.6344
9.4	-9.3126	0.5921	1.6952	0.0066	0.0069	-0.0088	22.1593	-15.3821	-7.3500	-0.4414	-0.5289	-0.3505	0.6344
9.41	-9.3163	0.5856	1.6679	-0.0051	0.0150	-0.0118	21.4912	-15.9072	-7.4272	-0.4415	-0.5290	-0.3506	0.6343
9.42	-9.3035	0.5699	1.6576	-0.0081	0.0155	-0.0158	21.4807	-16.6270	-7.4934	-0.4415	-0.5290	-0.3506	0.6343
9.43	-9.3086	0.5685	1.6610	-0.0053	0.0159	-0.0145	21.4179	-15.9155	-7.5893	-0.4415	-0.5291	-0.3506	0.6342
9.44	-9.3241	0.5757	1.6599	-0.0070	0.0110	-0.0101	21.6066	-15.3959	-7.8140	-0.4415	-0.5291	-0.3506	0.6341
9.45	-9.3510	0.5841	1.6710	-0.0069	0.0136	-0.0176	21.3154	-15.5857	-7.5975	-0.4416	-0.5291	-0.3507	0.6341
9.46	-9.3627	0.5829	1.6700	-0.0075	0.0097	-0.0200	21.3771	-15.6227	-7.4833	-0.4416	-0.5292	-0.3507	0.6340
9.47	-9.3539	0.5822	1.6787	-0.0068	0.0126	-0.0215	21.4439	-15.8723	-7.6523	-0.4416	-0.5292	-0.3507	0.6340
9.48	-9.3440	0.5786	1.6765	-0.0065	0.0081	-0.0303	21.4423	-15.7090	-7.7259	-0.4416	-0.5292	-0.3508	0.6340
9.49	-9.3549	0.5673	1.6784	-0.0082	0.0080	-0.0235	21.4159	-15.6021	-7.4573	-0.4416	-0.5292	-0.3508	0.6339
9.5	-9.3578	0.5586	1.6697	-0.0141	0.0057	-0.0244	21.3697	-15.7741	-7.5549	-0.4416	-0.5292	-0.3509	0.6339
9.51	-9.3626	0.5477	1.6747	-0.0056	0.0068	-0.0300	21.7994	-15.9368	-7.7369	-0.4416	-0.5292	-0.3509	0.6339
9.52	-9.3462	0.5409	1.6588	-0.0146	0.0036	-0.0283	21.4769	-15.7805	-7.5715	-0.4416	-0.5291	-0.3510	0.6339
9.53	-9.3209	0.5397	1.6755	-0.0148	-0.0018	-0.0266	21.6756	-15.8014	-7.5914	-0.4417	-0.5291	-0.3510	0.6339
9.54	-9.3349	0.5325	1.6742	-0.0093	0.0074	-0.0191	21.6509	-15.4972	-7.4491	-0.4417	-0.5291	-0.3511	0.6338
9.55	-9.3299	0.5122	1.6660	-0.0115	-0.0014	-0.0181	21.4391	-15.6510	-7.5907	-0.4417	-0.5291	-0.3511	0.6338
9.56	-9.3422	0.5103	1.6726	-0.0200	-0.0096	-0.0218	21.7610	-15.8366	-7.5858	-0.4418	-0.5290	-0.3511	0.6338
9.57	-9.3111	0.4823	1.6540	-0.0134	-0.0127	-0.0166	21.5333	-15.6365	-7.4782	-0.4419	-0.5289	-0.3511	0.6338
9.58	-9.3182	0.4783	1.6920	-0.0081	-0.0098	-0.0131	21.5768	-15.6357	-7.5067	-0.4420	-0.5289	-0.3511	0.6338
9.59	-9.3336	0.4887	1.6668	-0.0072	-0.0026	-0.0122	21.6381	-15.5371	-7.4967	-0.4420	-0.5289	-0.3511	0.6338
9.6	-9.2894	0.5189	1.6802	-0.0036	-0.0118	-0.0152	21.5114	-15.4350	-7.5076	-0.4421	-0.5288	-0.3511	0.6338
9.61	-9.3124	0.5009	1.7085	-0.0030	-0.0125	-0.0128	21.6592	-15.6951	-7.3547	-0.4422	-0.5288	-0.3510	0.6338
9.62	-9.3062	0.5498	1.6793	-0.0044	-0.0107	-0.0137	21.5441	-15.7144	-7.4914	-0.4422	-0.5288	-0.3510	0.6338
9.63	-9.2926	0.5399	1.7317	-0.0041	-0.0114	-0.0213	21.4958	-15.6939	-7.4941	-0.4423	-0.5287	-0.3509	0.6338
9.64	-9.2908	0.5355	1.6957	0.0020	0.0005	-0.0238	21.6795	-15.6257	-7.5132	-0.4423	-0.5287	-0.3509	0.6338
9.65	-9.2784	0.5661	1.7136	0.0040	-0.0048	-0.0290	21.3355	-15.7287	-7.4512	-0.4422	-0.5287	-0.3509	0.6338
9.66	-9.2877	0.5449	1.7042	-0.0020	-0.0022	-0.0287	21.5090	-15.7021	-7.3727	-0.4422	-0.5287	-0.3509	0.6339
9.67	-9.3008	0.5863	1.6998	0.0001	0.0096	-0.0341	21.5117	-15.6981	-7.5135	-0.4422	-0.5287	-0.3510	0.6339
9.68	-9.3044	0.5642	1.7083	-0.0069	0.0051	-0.0324	21.4658	-15.6130	-7.7626	-0.4422	-0.5286	-0.3510	0.6339
9.69	-9.2804	0.5769	1.6900	-0.0061	0.0062	-0.0317	21.6882	-15.7941	-7.5324	-0.4422	-0.5286	-0.3511	0.6339
9.7	-9.3148	0.5648	1.7191	-0.0173	0.0147	-0.0347	21.4931	-15.7994	-7.4697	-0.4421	-0.5286	-0.3512	0.6338
9.71	-9.2695	0.5427	1.6696	-0.0247	0.0109	-0.0321	21.6353	-15.7807	-7.6158	-0.4422	-0.5286	-0.3513	0.6338
9.72	-9.2935	0.5672	1.7114	-0.0236	0.0098	-0.0346	21.7770	-15.8213	-7.5715	-0.4422	-0.5285	-0.3514	0.6337
9.73	-9.2961	0.5197	1.6676	-0.0320	0.0189	-0.0327	21.7411	-15.7042	-7.5956	-0.4422	-0.5285	-0.3516	0.6337
9.74	-9.3323	0.5305	1.6880	-0.0332	0.0200	-0.0317	21.6030	-15.7236	-7.5882	-0.4422	-0.5285	-0.3518	0.6336
9.75	-9.3604	0.5129	1.6668	-0.0332	0.0290	-0.0335	21.4796	-15.6575	-7.4635	-0.4422	-0.5285	-0.3520	0.6335
9.76	-9.3499	0.4932	1.6556	-0.0296	0.0163	-0.0301	21.6293	-15.4692	-7.7620	-0.4423	-0.5284	-0.3521	0.6334
9.77	-9.3451	0.4864	1.6654	-0.0246	0.0095	-0.0279	21.4534	-15.6379	-7.7166	-0.4423	-0.5284	-0.3522	0.6333
9.78	-9.3532	0.4820	1.6570	-0.0267	0.0178	-0.0286	21.4275	-15.6138	-7.5559	-0.4423	-0.5284	-0.3524	0.6333
9.79	-9.3536	0.4686	1.6535	-0.0268	0.0130	-0.0310	21.4283	-15.6169	-7.4725	-0.4424	-0.5283	-0.3525	0.6332
9.8	-9.3452	0.4625	1.6573	-0.0135	0.0093	-0.0321	21.4979	-15.6339	-7.5708	-0.4424	-0.5283	-0.3526	0.6332
9.81	-9.3441	0.4620	1.6589	-0.0065	0.0138	-0.0341	21.5455	-15.5209	-7.6122	-0.4423	-0.5283	-0.3527	0.6331
9.82	-9.3364	0.4590	1.6489	-0.0085	0.0105	-0.0330	21.5095	-15.5435	-7.5712	-0.4423	-0.5283	-0.3527	0.6331
9.83	-9.3392	0.4738	1.6542	-0.0048	0.0131	-0.0340	21.3748	-15.6660	-7.4533	-0.4423	-0.5283	-0.3528	0.6331
9.84	-9.3487	0.4748	1.6618	-0.0012	0.0003	-0.0327	21.6255	-15.5180	-7.6130	-0.4422	-0.5283	-0.3528	0.6331
9.85	-9.3519	0.4928	1.6568	-0.0043	0.0019	-0.0311	21.5121	-15.5411	-7.4731	-0.4422	-0.5283	-0.3529	0.6331
9.86	-9.3298	0.5002	1.6709	0.0022	0.0004	-0.0332	21.4129	-15.6361	-7.5397	-0.4422	-0.5282	-0.3529	0.6332
9.87	-9.3397	0.5064	1.6774	-0.0056	-0.0112	-0.0270	21.4590	-15.4143	-7.6262	-0.4422	-0.5282	-0.3529	0.6332
9.88	-9.3351	0.5077	1.6703	-0.0081	-0.0115	-0.0326	21.8761	-15.4747	-7.5058	-0.4422	-0.5281	-0.3529	0.6332
9.89	-9.3387	0.5083	1.6821	-0.0077	-0.0068	-0.0334	22.1412	-15.4833	-7.3630	-0.4422	-0.5281	-0.3529	0.6333
9.9	-9.3194	0.5049	1.6767	-0.0129	-0.0043	-0.0283	22.2894	-15.4319	-7.3504	-0.4421	-0.5281	-0.3529	0.6334
9.91	-9.3224	0.5011	1.6862	-0.0138	-0.0151	-0.0245	21.3173	-15.9413	-7.4274	-0.4422	-0.5280	-0.3529	0.6334
9.92	-9.3332	0.4906	1.6699	-0.0122	-0.0087	-0.0207	21.2623	-16.6433	-7.6202	-0.4422	-0.5279	-0.3529	0.6334
9.93	-9.3275	0.4896	1.6753	-0.0107	-0.0058	-0.0188	21.4899	-16.0749	-7.7623	-0.4423	-0.5279	-0.3529	0.6334
9.94	-9.3261	0.4836	1.6856	-0.0088	-0.0039	-0.0225	21.4706	-15.5851	-7.6533	-0.4423	-0.5278	-0.3529	0.6334
9.95	-9.3283	0.4774	1.6779	-0.0110	-0.0101	-0.0231	21.3685	-15.8078	-7.7028	-0.4424	-0.5278	-0.3530	0.6334
9.96	-9.3308	0.4750	1.6850	-0.0097	-0.0133	-0.0321	21.3982	-15.4607	-7.6811	-0.4424	-0.5277	-0.3530	0.6334
9.97	-9.3218	0.4670	1.6820	-0.0153	-0.0039	-0.0340	21.3071	-15.6109	-7.6960	-0.4424	-0.5276	-0.3530	0.6334
9.98	-9.3261	0.4657	1.6872	-0.0088	-0.0099	-0.0325	21.3487	-15.4419	-7.6888	-0.4424	-0.5276	-0.3531	0.6335
9.99	-9.3310	0.4665	1.6866	-0.0059	-0.0049	-0.0301	21.3846	-15.4696	-7.6945	-0.4424	-0.5275	-0.3531	0.6335
10	-9.3212	0.4604	1.6959	-0.0047	-0.0032	-0.0309	21.2694	-15.6758	-7.6869	-0.4424	-0.5275	-0.3531	0.6335
10.01	-9.3132	0.4623	1.6932	-0.0015	-0.0100	-0.0328	21.2504	-15.6082	-7.6891	-0.4424	-0.5274	-0.3531	0.6336
10.02	-9.3073	0.4543	1.6895	-0.0051	-0.0081	-0.0346	21.1463	-15.6803	-7.6903	-0.4424	-0.5274	-0.3532	0.6336
10.03	-9.3120	0.4605	1.6979	-0.0054	-0.0035	-0.0299	21.4420	-15.2942	-7.6907	-0.4424	-0.5273	-0.3532	0.6336
10.04	-9.3145	0.4667	1.6981	-0.0056	-0.0130	-0.0276	21.3082	-15.3121	-7.7121	-0.4424	-0.5273	-0.3532	0.6337
10.05	-9.3200	0.4723	1.6983	-0.0090	-0.0105	-0.0341	21.3151	-15.4335	-7.8962	-0.4425	-0.5272	-0.3532	0.6337
10.06	-9.3062	0.4727	1.7025	-0.0072	-0.0080	-0.0310	21.5798	-15.6391	-7.7765	-0.4425	-0.5271	-0.3532	0.6337
10.07	-9.2992	0.4798	1.7017	-0.0070	-0.0054	-0.0270	21.6543	-15.7477	-7.6568	-0.4425	-0.5271	-0.3533	0.6337
10.08	-9.2758	0.4840	1.7018	-0.0074	-0.0040	-0.0291	21.4442	-15.5185	-7.7117	-0.4425	-0.5270	-0.3533	0.6338
10.09	-9.2946	0.4788	1.7166	-0.0062	-0.0090	-0.0290	21.2565	-15.6441	-7.6584	-0.4425	-0.5270	-0.3533	0.6338
10.1	-9.3037	0.4746	1.6979	-0.0082	-0.0005	-0.0310	21.4026	-15.6194	-7.8175	-0.4425	-0.5269	-0.3533	0.6338
10.11	-9.3074	0.4728	1.7148	-0.0071	-0.0040	-0.0274	21.4792	-15.4082	-8.0148	-0.4425	-0.5269	-0.3534	0.6338
10.12	-9.3304	0.4833	1.7138	-0.0124	0.0010	-0.0280	21.2422	-15.5207	-7.9185	-0.4425	-0.5268	-0.3534	0.6338
10.13	-9.3186	0.4732	1.7065	-0.0106	-0.0040	-0.0309	21.4810	-15.6558	-7.6740	-0.4425	-0.5268	-0.3535	0.6338
10.14	-9.3173	0.4705	1.7069	-0.0071	0.0034	-0.0306	21.4475	-15.6001	-7.6961	-0.4425	-0.5268	-0.3535	0.6338
10.15	-9.3083	0.4545	1.7085	-0.0149	0.0021	-0.0345	21.3453	-15.5493	-7.6680	-0.4425	-0.5267	-0.3536	0.6338
10.16	-9.3274	0.4475	1.7194	-0.0232	-0.0011	-0.0318	21.3969	-15.4719	-7.7906	-0.4426	-0.5266	-0.3537	0.6338
10.17	-9.3432	0.4341	1.7253	-0.0220	0.0045	-0.0338	21.3592	-15.4568	-7.5947	-0.4426	-0.5266	-0.3538	0.6338
10.18	-9.3385	0.4205	1.7159	-0.0183	-0.0033	-0.0338	21.2720	-15.5628	-7.5872	-0.4426	-0.5265	-0.3539	0.6338
10.19	-9.3023	0.4189	1.7194	-0.0158	-0.0061	-0.0265	21.2905	-15.3594	-7.6354	-0.4427	-0.5264	-0.3539	0.6338
10.2	-9.2977	0.4299	1.7257	-0.0075	0.0072	-0.0168	21.2956	-15.3814	-7.8945	-0.4427	-0.5265	-0.3539	0.6337
10.21	-9.3043	0.4489	1.7156	-0.0118	0.0000	-0.0195	21.1702	-15.3628	-7.7696	-0.4427	-0.5265	-0.3540	0.6337
10.22	-9.3106	0.4726	1.7154	-0.0068	0.0029	-0.0146	21.2406	-15.3944	-7.7970	-0.4428	-0.5265	-0.3540	0.6336
10.23	-9.3008	0.4774	1.7121	-0.0145	0.0075	-0.0195	21.3254	-15.5667	-7.7640	-0.4428	-0.5265	-0.3540	0.6336
10.24	-9.2984	0.4638	1.7055	-0.0203	0.0073	-0.0170	21.1547	-15.4469	-7.8923	-0.4429	-0.5265	-0.3541	0.6335
10.25	-9.2787	0.4593	1.6884	-0.0194	0.0030	-0.0189	21.4957	-15.4768	-7.8631	-0.4429	-0.5264	-0.3541	0.6335
10.26	-9.2863	0.4598	1.6963	-0.0110	0.0088	-0.0245	21.5334	-15.5941	-7.7000	-0.4429	-0.5264	-0.3542	0.6334
10.27	-9.3079	0.4621	1.6853	-0.0108	0.0138	-0.0328	21.4001	-15.4369	-7.6773	-0.4429	-0.5264	-0.3543	0.6334
10.28	-9.3244	0.4634	1.6897	-0.0064	0.0091	-0.0328	21.7323	-15.4795	-7.8046	-0.4429	-0.5264	-0.3543	0.6334
10.29	-9.3182	0.4624	1.6995	-0.0050	0.0136	-0.0340	21.6647	-15.6962	-7.9071	-0.4429	-0.5265	-0.3544	0.6334
10.3	-9.3305	0.4614	1.7040	-0.0064	0.0121	-0.0326	21.4511	-15.5459	-7.7935	-0.4428	-0.5265	-0.3544	0.6333
10.31	-9.3297	0.4581	1.6970	-0.0075	0.0127	-0.0358	21.4575	-15.5452	-7.7749	-0.4428	-0.5265	-0.3545	0.6333
10.32	-9.3336	0.4578	1.6927	-0.0086	0.0109	-0.0332	21.6028	-15.5473	-7.7850	-0.4427	-0.5265	-0.3546	0.6333
10.33	-9.3306	0.4546	1.6908	-0.0130	0.0062	-0.0364	21.4505	-15.5429	-7.7793	-0.4427	-0.5265	-0.3547	0.6333
10.34	-9.3431	0.4545	1.6871	-0.0148	0.0159	-0.0386	21.3120	-15.5530	-7.7908	-0.4427	-0.5265	-0.3548	0.6332
10.35	-9.3195	0.4570	1.6719	-0.0211	0.0143	-0.0337	21.6243	-15.5407	-7.6818	-0.4427	-0.5265	-0.3549	0.6332
10.36	-9.3254	0.4591	1.6899	-0.0311	0.0054	-0.0338	21.3431	-15.2808	-7.5563	-0.4427	-0.5264	-0.3550	0.6331
10.37	-9.3443	0.4538	1.6667	-0.0311	0.0182	-0.0328	21.2741	-15.3362	-7.9189	-0.4427	-0.5264	-0.3552	0.6331
10.38	-9.3412	0.4375	1.6674	-0.0328	0.0110	-0.0338	21.3336	-15.3501	-7.6773	-0.4428	-0.5263	-0.3553	0.6330
10.39	-9.3517	0.4266	1.6694	-0.0323	0.0082	-0.0340	21.7919	-15.0648	-7.5162	-0.4428	-0.5263	-0.3554	0.6329
10.4	-9.3532	0.3973	1.6515	-0.0365	0.0090	-0.0342	22.0860	-15.0661	-7.4626	-0.4429	-0.5262	-0.3556	0.6329
10.41	-9.3375	0.3802	1.6529	-0.0378	0.0025	-0.0318	21.6045	-15.7055	-7.4149	-0.4429	-0.5261	-0.3557	0.6328
10.42	-9.3510	0.3872	1.6674	-0.0317	-0.0043	-0.0200	21.5343	-16.4021	-7.6230	-0.4430	-0.5261	-0.3558	0.6328
10.43	-9.3368	0.3766	1.6653	-0.0341	-0.0015	-0.0226	21.4150	-15.6199	-7.5889	-0.4431	-0.5260	-0.3559	0.6327
10.44	-9.3272	0.3719	1.6776	-0.0309	-0.0017	-0.0204	21.5511	-15.3324	-7.6009	-0.4432	-0.5259	-0.3560	0.6326
10.45	-9.3256	0.3665	1.6754	-0.0324	-0.0013	-0.0210	21.5737	-15.6305	-7.7041	-0.4433	-0.5259	-0.3560	0.6326
10.46	-9.3328	0.3537	1.6888	-0.0269	0.0044	-0.0300	21.4427	-15.3190	-7.6853	-0.4434	-0.5258	-0.3561	0.6325
10.47	-9.3624	0.3560	1.6786	-0.0189	-0.0004	-0.0298	21.6691	-15.7007	-7.6030	-0.4434	-0.5258	-0.3562	0.6325
10.48	-9.3421	0.3644	1.6734	-0.0080	-0.0006	-0.0329	21.7983	-15.3356	-7.8126	-0.4434	-0.5258	-0.3562	0.6325
10.49	-9.3175	0.3704	1.6889	-0.0113	-0.0066	-0.0247	21.5242	-15.3608	-7.7920	-0.4434	-0.5257	-0.3563	0.6325
10.5	-9.3295	0.3780	1.6832	-0.0095	-0.0006	-0.0287	21.4698	-15.6243	-7.7883	-0.4434	-0.5257	-0.3563	0.6325
10.51	-9.3472	0.3805	1.6808	-0.0057	-0.0102	-0.0247	21.4568	-15.1317	-7.6151	-0.4435	-0.5257	-0.3563	0.6325
10.52	-9.3762	0.3934	1.6856	-0.0062	-0.0111	-0.0222	21.5605	-15.5292	-7.6701	-0.4435	-0.5256	-0.3563	0.6325
10.53	-9.3755	0.3885	1.6740	-0.0068	-0.0061	-0.0239	21.5564	-15.6183	-7.8418	-0.4435	-0.5256	-0.3563	0.6325
10.54	-9.3435	0.3893	1.6694	-0.0059	-0.0158	-0.0280	21.4385	-15.3020	-7.7199	-0.4436	-0.5255	-0.3562	0.6326
10.55	-9.3339	0.3820	1.6822	-0.0060	-0.0123	-0.0225	21.4992	-15.4525	-7.4985	-0.4436	-0.5255	-0.3562	0.6326
10.56	-9.3447	0.3758	1.6777	-0.0074	-0.0151	-0.0160	21.4483	-15.2311	-7.6076	-0.4437	-0.5254	-0.3562	0.6326
10.57	-9.3492	0.3758	1.6786	-0.0044	-0.0150	-0.0235	21.4003	-15.1745	-7.6531	-0.4437	-0.5254	-0.3561	0.6326
10.58	-9.3324	0.3793	1.6923	-0.0021	-0.0204	-0.0164	21.4990	-15.4437	-7.6951	-0.4438	-0.5254	-0.3561	0.6327
10.59	-9.3290	0.3929	1.6956	-0.0024	-0.0197	-0.0141	21.4435	-15.4282	-7.4747	-0.4438	-0.5253	-0.3560	0.6327
10.6	-9.3223	0.3938	1.7034	-0.0021	-0.0139	-0.0166	21.6902	-15.3261	-7.7476	-0.4439	-0.5253	-0.3559	0.6327
10.61	-9.3278	0.3781	1.7117	0.0010	-0.0171	-0.0139	21.2202	-15.2267	-7.6780	-0.4440	-0.5253	-0.3559	0.6327
10.62	-9.3184	0.3810	1.7039	0.0087	-0.0190	-0.0168	21.4562	-15.5036	-7.7722	-0.4440	-0.5252	-0.3558	0.6328
10.63	-9.2956	0.3937	1.7235	0.0037	-0.0137	-0.0208	21.4595	-15.5359	-7.8115	-0.4440	-0.5252	-0.3557	0.6328
10.64	-9.2854	0.4051	1.7234	0.0144	-0.0130	-0.0229	21.6189	-15.2799	-7.7762	-0.4440	-0.5252	-0.3556	0.6329
10.65	-9.2884	0.4137	1.7372	0.0045	-0.0085	-0.0237	21.4502	-15.5757	-7.6628	-0.4440	-0.5252	-0.3556	0.6329
10.66	-9.2876	0.4239	1.7262	0.0059	-0.0075	-0.0183	21.6424	-15.5717	-7.7836	-0.4440	-0.5252	-0.3555	0.6329
10.67	-9.2841	0.4199	1.7421	0.0063	-0.0039	-0.0241	21.5500	-15.2844	-7.8139	-0.4440	-0.5252	-0.3555	0.6330
10.68	-9.2847	0.4309	1.7438	0.0082	0.0003	-0.0261	21.3551	-15.5244	-7.6401	-0.4440	-0.5252	-0.3554	0.6330
10.69	-9.2793	0.4401	1.7392	0.0026	-0.0061	-0.0159	21.5314	-15.6453	-7.8053	-0.4440	-0.5252	-0.3554	0.6330
10.7	-9.2834	0.4375	1.7485	-0.0057	0.0070	-0.0252	21.4182	-15.5053	-7.6963	-0.4440	-0.5253	-0.3554	0.6330
10.71	-9.3017	0.4394	1.7364	-0.0004	0.0085	-0.0222	21.6315	-15.5149	-7.6132	-0.4440	-0.5253	-0.3554	0.6329
10.72	-9.2964	0.4427	1.7475	-0.0046	0.0040	-0.0267	21.6118	-15.6662	-7.8689	-0.4440	-0.5253	-0.3554	0.6329
10.73	-9.3131	0.4514	1.7665	-0.0058	0.0103	-0.0238	21.4995	-15.4510	-7.6783	-0.4440	-0.5253	-0.3555	0.6329
10.74	-9.3400	0.4518	1.7445	-0.0118	0.0095	-0.0263	21.3388	-15.3293	-7.8083	-0.4440	-0.5253	-0.3555	0.6329
10.75	-9.3169	0.4378	1.7351	-0.0200	0.0133	-0.0346	21.5768	-15.4483	-7.7988	-0.4440	-0.5253	-0.3556	0.6328
10.76	-9.3179	0.4274	1.7406	-0.0086	0.0096	-0.0259	21.4338	-15.2456	-7.7691	-0.4440	-0.5253	-0.3557	0.6328
10.77	-9.3234	0.4216	1.7248	-0.0222	0.0131	-0.0267	21.4342	-15.2520	-7.5820	-0.4440	-0.5253	-0.3558	0.6327
10.78	-9.3264	0.4110	1.7227	-0.0235	0.0075	-0.0250	21.5881	-15.3420	-7.7486	-0.4440	-0.5253	-0.3558	0.6326
10.79	-9.3429	0.4053	1.7242	-0.0247	0.0070	-0.0261	21.5695	-15.4953	-7.6433	-0.4441	-0.5253	-0.3559	0.6326
10.8	-9.3774	0.3964	1.7190	-0.0141	0.0121	-0.0206	21.4819	-15.5138	-7.8628	-0.4441	-0.5253	-0.3560	0.6325
10.81	-9.3783	0.3846	1.7015	-0.0228	-0.0019	-0.0157	21.5504	-15.5326	-7.8921	-0.4442	-0.5253	-0.3560	0.6325
10.82	-9.3741	0.3825	1.7118	-0.0187	-0.0106	-0.0210	21.6766	-15.4753	-7.7812	-0.4443	-0.5252	-0.3560	0.6325
10.83	-9.3641	0.3766	1.7014	-0.0072	-0.0106	-0.0200	21.6434	-15.2702	-7.7764	-0.4443	-0.5252	-0.3560	0.6325
10.84	-9.3940	0.3834	1.7179	-0.0089	-0.0132	-0.0180	21.6485	-15.4510	-7.8965	-0.4444	-0.5251	-0.3560	0.6325
10.85	-9.4067	0.3808	1.7064	-0.0107	-0.0249	-0.0159	21.6651	-15.4101	-7.8566	-0.4445	-0.5251	-0.3560	0.6325
10.86	-9.3817	0.3891	1.7140	-0.0079	-0.0322	-0.0207	21.6155	-15.3163	-7.8250	-0.4446	-0.5249	-0.3559	0.6326
10.87	-9.3599	0.3913	1.7261	-0.0070	-0.0319	-0.0227	21.5297	-15.3886	-7.6510	-0.4446	-0.5248	-0.3558	0.6326
10.88	-9.3544	0.3811	1.7347	-0.0064	-0.0298	-0.0206	21.7080	-15.4733	-7.6087	-0.4447	-0.5247	-0.3558	0.6327
10.89	-9.3475	0.3708	1.7477	-0.0080	-0.0382	-0.0193	22.0352	-15.3475	-7.5661	-0.4448	-0.5247	-0.3557	0.6328
10.9	-9.3431	0.3733	1.7721	-0.0011	-0.0447	-0.0215	22.2182	-15.2005	-7.2908	-0.4448	-0.5246	-0.3555	0.6330
10.91	-9.3501	0.3750	1.7858	-0.0010	-0.0404	-0.0268	21.5195	-15.6301	-7.8050	-0.4448	-0.5244	-0.3554	0.6331
10.92	-9.3055	0.3743	1.7665	0.0027	-0.0411	-0.0160	21.4748	-16.3890	-7.6031	-0.4449	-0.5243	-0.3553	0.6332
10.93	-9.2795	0.3836	1.7950	0.0098	-0.0471	-0.0230	21.3644	-15.6228	-7.7307	-0.4450	-0.5242	-0.3551	0.6333
10.94	-9.3030	0.3950	1.7862	0.0085	-0.0420	-0.0130	21.2574	-15.2502	-7.7540	-0.4451	-0.5241	-0.3549	0.6334
10.95	-9.2874	0.4076	1.7755	0.0169	-0.0395	-0.0186	21.2127	-15.5215	-7.9454	-0.4451	-0.5241	-0.3548	0.6335
10.96	-9.2708	0.4251	1.7930	0.0176	-0.0396	-0.0170	21.3584	-15.2108	-8.0737	-0.4451	-0.5240	-0.3546	0.6337
10.97	-9.2642	0.4215	1.7870	0.0128	-0.0390	-0.0199	21.2915	-15.3206	-7.8922	-0.4452	-0.5239	-0.3545	0.6338
10.98	-9.2569	0.4173	1.7819	0.0137	-0.0314	-0.0213	21.4087	-15.2744	-7.8020	-0.4452	-0.5238	-0.3543	0.6339
10.99	-9.2225	0.4169	1.7830	0.0106	-0.0349	-0.0202	21.4147	-15.5491	-7.6573	-0.4453	-0.5238	-0.3542	0.6340
11	-9.2306	0.4290	1.8232	0.0187	-0.0358	-0.0169	21.3001	-15.6491	-7.8076	-0.4453	-0.5237	-0.3540	0.6341
11.01	-9.2931	0.4552	1.8327	0.0138	-0.0287	-0.0138	21.7092	-15.4396	-7.9224	-0.4453	-0.5237	-0.3539	0.6342
11.02	-9.3461	0.4551	1.8333	0.0008	-0.0229	-0.0223	21.5712	-15.5171	-8.0363	-0.4454	-0.5236	-0.3538	0.6342
11.03	-9.4199	0.4685	1.8443	0.0023	-0.0346	-0.0243	21.6310	-15.5902	-8.0679	-0.4454	-0.5235	-0.3537	0.6343
11.04	-9.3806	0.4655	1.7888	-0.0063	-0.0406	-0.0320	21.4820	-15.7072	-8.1304	-0.4455	-0.5234	-0.3537	0.6345
11.05	-9.2882	0.4563	1.8178	-0.0048	-0.0453	-0.0308	21.2129	-15.4078	-7.9502	-0.4456	-0.5232	-0.3536	0.6346
11.06	-9.3408	0.4679	1.8321	-0.0091	-0.0431	-0.0247	21.6501	-15.4146	-7.9480	-0.4456	-0.5231	-0.3535	0.6347
11.07	-9.3065	0.4386	1.7775	-0.0067	-0.0432	-0.0255	21.5540	-15.3950	-8.0899	-0.4457	-0.5229	-0.3534	0.6348
11.08	-9.2710	0.4525	1.8086	-0.0074	-0.0446	-0.0216	21.4630	-15.4619	-7.9755	-0.4458	-0.5228	-0.3533	0.6349
11.09	-9.3104	0.4542	1.8134	-0.0201	-0.0378	-0.0258	21.2987	-15.4825	-7.9618	-0.4459	-0.5226	-0.3533	0.6350
11.1	-9.3632	0.4425	1.8019	-0.0303	-0.0366	-0.0324	21.4483	-15.1412	-7.8414	-0.4460	-0.5224	-0.3533	0.6350
11.11	-9.3361	0.4340	1.7737	-0.0344	-0.0481	-0.0360	21.3647	-15.3648	-8.0617	-0.4462	-0.5222	-0.3534	0.6351
11.12	-9.2993	0.4054	1.8222	-0.0369	-0.0518	-0.0333	21.3214	-15.3309	-8.1513	-0.4463	-0.5219	-0.3534	0.6352
11.13	-9.3377	0.3978	1.8158	-0.0364	-0.0490	-0.0342	21.2456	-15.0861	-7.8204	-0.4465	-0.5217	-0.3534	0.6353
11.14	-9.2566	0.3740	1.7981	-0.0387	-0.0498	-0.0279	21.2270	-15.4095	-7.9093	-0.4466	-0.5214	-0.3534	0.6354
11.15	-9.2974	0.3916	1.8946	-0.0356	-0.0533	-0.0198	21.2382	-15.3939	-8.1338	-0.4468	-0.5212	-0.3534	0.6354
11.16	-9.3690	0.3790	1.8606	-0.0454	-0.0490	-0.0250	21.2342	-15.4484	-8.1584	-0.4470	-0.5209	-0.3534	0.6355
11.17	-9.3496	0.3694	1.8647	-0.0444	-0.0561	-0.0203	21.2303	-15.2736	-8.0320	-0.4473	-0.5207	-0.3534	0.6356
11.18	-9.2493	0.3727	1.8608	-0.0416	-0.0541	-0.0167	21.2517	-15.5320	-8.0729	-0.4475	-0.5204	-0.3534	0.6356
11.19	-9.1986	0.3559	1.8852	-0.0347	-0.0502	-0.0219	21.6001	-15.5467	-8.1830	-0.4477	-0.5202	-0.3534	0.6357
11.2	-9.2873	0.3554	1.8935	-0.0350	-0.0334	-0.0260	21.5057	-15.4806	-8.0238	-0.4478	-0.5200	-0.3534	0.6357
11.21	-9.2745	0.3419	1.8654	-0.0313	-0.0346	-0.0234	21.4993	-15.4957	-8.0686	-0.4480	-0.5198	-0.3534	0.6358
11.22	-9.2882	0.3472	1.9044	-0.0375	-0.0369	-0.0265	21.4975	-15.5321	-8.1603	-0.4481	-0.5196	-0.3535	0.6358
11.23	-9.2917	0.3261	1.8816	-0.0317	-0.0243	-0.0224	21.5192	-15.3559	-8.1212	-0.4482	-0.5195	-0.3535	0.6358
11.24	-9.3119	0.3058	1.8854	-0.0318	-0.0304	-0.0275	21.4028	-15.2981	-8.2384	-0.4483	-0.5193	-0.3535	0.6358
11.25	-9.3705	0.3000	1.8685	-0.0329	-0.0307	-0.0255	21.2993	-15.5815	-8.3694	-0.4485	-0.5192	-0.3536	0.6359
11.26	-9.3551	0.3113	1.8347	-0.0244	-0.0459	-0.0161	21.1637	-15.4098	-8.2242	-0.4486	-0.5190	-0.3535	0.6359
11.27	-9.3551	0.3293	1.8836	-0.0213	-0.0501	-0.0114	21.4512	-15.4235	-7.9986	-0.4488	-0.5188	-0.3534	0.6360
11.28	-9.3702	0.3082	1.8603	-0.0283	-0.0587	-0.0146	21.2589	-15.3944	-8.2964	-0.4490	-0.5186	-0.3534	0.6361
