time	acceleration_x	acceleration_y	acceleration_z	gyroscope_x	gyroscope_y	gyroscope_z	magnetometer_x	magnetometer_y	magnetometer_z	quaternion_w	quaternion_x	quaternion_y	quaternion_z
0	-9.5015	-0.1240	-1.6049	0.0056	-0.0131	0.0111	31.7093	7.6674	5.7369	-0.4736	-0.5131	-0.5623	0.4430
0.01	-9.5195	-0.1212	-1.6085	-0.0045	-0.0135	0.0063	31.6543	7.5445	5.6510	-0.4736	-0.5131	-0.5623	0.4430
0.02	-9.5208	-0.1285	-1.6272	0.0004	-0.0098	0.0096	31.7486	7.6926	5.7853	-0.4736	-0.5131	-0.5622	0.4429
0.03	-9.5125	-0.1189	-1.6243	-0.0010	-0.0100	0.0071	32.2404	7.6786	5.7747	-0.4736	-0.5131	-0.5623	0.4430
0.04	-9.5205	-0.1125	-1.6260	-0.0017	-0.0135	0.0063	32.1243	7.6835	5.7881	-0.4736	-0.5131	-0.5623	0.4429
0.05	-9.5225	-0.1068	-1.6320	-0.0049	-0.0136	0.0050	31.9240	7.5898	5.6710	-0.4737	-0.5131	-0.5623	0.4429
0.06	-9.5162	-0.1000	-1.6275	-0.0009	-0.0163	0.0040	31.6486	7.5825	5.7355	-0.4737	-0.5131	-0.5623	0.4429
0.07	-9.5097	-0.1016	-1.6275	-0.0031	-0.0153	0.0039	31.5203	7.5488	5.5515	-0.4737	-0.5131	-0.5623	0.4429
0.08	-9.5199	-0.0925	-1.6396	-0.0004	-0.0116	0.0049	31.6525	7.4182	5.7856	-0.4737	-0.5131	-0.5623	0.4429
0.09	-9.5186	-0.1036	-1.6327	-0.0037	-0.0143	0.0071	31.7382	7.3703	5.7459	-0.4737	-0.5130	-0.5623	0.4429
0.1	-9.5193	-0.0996	-1.6236	-0.0025	-0.0133	0.0061	31.7525	7.6391	5.6069	-0.4737	-0.5131	-0.5624	0.4429
0.11	-9.5194	-0.1079	-1.6216	-0.0029	-0.0168	0.0074	31.6172	7.6050	5.4669	-0.4737	-0.5130	-0.5623	0.4429
0.12	-9.5164	-0.1127	-1.6201	-0.0076	-0.0121	0.0039	31.7729	7.5910	5.5110	-0.4738	-0.5131	-0.5624	0.4429
0.13	-9.5090	-0.1129	-1.6146	-0.0066	-0.0148	0.0048	31.6471	7.8515	5.5501	-0.4737	-0.5130	-0.5623	0.4428
0.14	-9.5215	-0.1114	-1.6171	-0.0080	-0.0138	0.0046	31.5905	7.7925	5.5232	-0.4738	-0.5130	-0.5624	0.4428
0.15	-9.5218	-0.1121	-1.6190	0.0018	-0.0204	0.0036	31.8763	7.8470	5.5343	-0.4738	-0.5129	-0.5624	0.4429
0.16	-9.5108	-0.1070	-1.6146	0.0012	-0.0209	0.0034	31.7185	7.7178	5.5953	-0.4738	-0.5129	-0.5623	0.4429
0.17	-9.5182	-0.0982	-1.6105	-0.0027	-0.0215	0.0062	31.7826	7.9318	5.7540	-0.4739	-0.5129	-0.5624	0.4429
0.18	-9.5111	-0.0905	-1.6165	-0.0022	-0.0200	0.0013	31.5379	7.7290	5.5045	-0.4739	-0.5128	-0.5624	0.4429
0.19	-9.5172	-0.0992	-1.6031	0.0088	-0.0184	0.0100	31.5877	7.5646	5.6745	-0.4739	-0.5129	-0.5624	0.4430
0.2	-9.5082	-0.0975	-1.5986	-0.0030	-0.0164	0.0059	31.8552	7.4912	5.7533	-0.4739	-0.5128	-0.5623	0.4429
0.21	-9.5139	-0.1001	-1.6058	0.0049	-0.0123	0.0071	31.7265	7.6813	5.4678	-0.4739	-0.5129	-0.5623	0.4430
0.22	-9.5071	-0.0963	-1.5982	-0.0000	-0.0138	0.0047	31.7433	7.4798	5.6247	-0.4739	-0.5129	-0.5623	0.4429
0.23	-9.5160	-0.0944	-1.5927	-0.0015	-0.0156	0.0084	31.8074	7.5073	5.6251	-0.4739	-0.5128	-0.5623	0.4429
0.24	-9.5215	-0.0924	-1.5928	0.0030	-0.0144	0.0043	31.9236	7.3752	5.7421	-0.4739	-0.5129	-0.5623	0.4430
0.25	-9.5081	-0.0937	-1.6004	-0.0047	-0.0177	0.0035	31.6631	7.5785	5.5736	-0.4739	-0.5128	-0.5623	0.4430
0.26	-9.5082	-0.0948	-1.5875	-0.0070	-0.0157	0.0042	31.6887	7.6765	5.7223	-0.4740	-0.5128	-0.5623	0.4430
0.27	-9.5138	-0.0934	-1.5786	-0.0036	-0.0146	0.0068	31.9359	7.6476	5.6333	-0.4739	-0.5127	-0.5623	0.4429
0.28	-9.5203	-0.0918	-1.5943	-0.0038	-0.0130	0.0110	31.7792	7.5526	5.5296	-0.4740	-0.5128	-0.5623	0.4429
0.29	-9.5141	-0.0928	-1.6073	-0.0086	-0.0189	0.0030	31.6232	7.6010	5.6858	-0.4740	-0.5127	-0.5623	0.4429
0.3	-9.5125	-0.0904	-1.6144	-0.0036	-0.0142	0.0039	31.6977	7.6886	5.5150	-0.4741	-0.5127	-0.5624	0.4429
0.31	-9.5117	-0.1101	-1.6123	-0.0026	-0.0141	0.0047	31.6360	7.6048	5.6472	-0.4740	-0.5127	-0.5623	0.4429
0.32	-9.5163	-0.1017	-1.6176	-0.0024	-0.0108	0.0037	31.7072	7.7227	5.6019	-0.4741	-0.5127	-0.5624	0.4429
0.33	-9.5189	-0.1253	-1.6257	-0.0029	-0.0089	0.0045	31.5741	7.6656	5.6829	-0.4741	-0.5127	-0.5624	0.4429
0.34	-9.5125	-0.1226	-1.6218	-0.0020	-0.0238	0.0090	31.6667	7.6642	5.7355	-0.4741	-0.5126	-0.5623	0.4428
0.35	-9.5142	-0.1322	-1.6185	-0.0012	-0.0211	0.0014	31.7338	7.6015	5.5955	-0.4741	-0.5127	-0.5624	0.4429
0.36	-9.5110	-0.1274	-1.6222	-0.0035	-0.0183	0.0044	31.6785	7.6443	5.8021	-0.4741	-0.5126	-0.5624	0.4429
0.37	-9.5187	-0.1259	-1.6245	0.0021	-0.0103	0.0076	31.7736	7.7250	5.5208	-0.4742	-0.5127	-0.5624	0.4429
0.38	-9.5137	-0.1311	-1.6253	0.0004	-0.0138	0.0094	31.7386	7.5236	5.6551	-0.4741	-0.5126	-0.5623	0.4429
0.39	-9.5160	-0.1177	-1.6282	-0.0029	-0.0185	0.0108	31.8370	7.8121	5.6893	-0.4742	-0.5126	-0.5623	0.4429
0.4	-9.5256	-0.1139	-1.6290	-0.0008	-0.0204	0.0068	31.8488	7.3112	5.4715	-0.4742	-0.5126	-0.5623	0.4429
0.41	-9.5179	-0.0990	-1.6185	0.0007	-0.0125	0.0027	31.7355	7.4135	5.6770	-0.4742	-0.5126	-0.5623	0.4429
0.42	-9.5188	-0.0903	-1.6264	-0.0029	-0.0162	0.0080	31.7786	7.3777	5.5040	-0.4743	-0.5126	-0.5624	0.4429
0.43	-9.5053	-0.0932	-1.6193	0.0011	-0.0161	0.0068	31.8163	7.4823	5.4645	-0.4742	-0.5126	-0.5623	0.4429
0.44	-9.5046	-0.0842	-1.6091	0.0001	-0.0103	0.0059	31.9226	7.6085	5.6525	-0.4742	-0.5126	-0.5624	0.4429
0.45	-9.5171	-0.0903	-1.6124	-0.0024	-0.0157	0.0055	31.7367	7.5595	5.5350	-0.4742	-0.5125	-0.5623	0.4428
0.46	-9.5196	-0.0885	-1.5988	-0.0032	-0.0214	0.0097	31.5762	7.4523	5.5451	-0.4743	-0.5126	-0.5623	0.4429
0.47	-9.5200	-0.0926	-1.5959	-0.0028	-0.0182	0.0107	31.6963	7.5635	5.5371	-0.4743	-0.5126	-0.5623	0.4429
0.48	-9.5166	-0.0924	-1.6001	0.0009	-0.0158	0.0012	31.6783	7.7629	5.5427	-0.4743	-0.5125	-0.5623	0.4429
0.49	-9.5079	-0.0976	-1.5971	0.0011	-0.0183	0.0029	31.4709	7.7084	5.5193	-0.4743	-0.5125	-0.5623	0.4429
0.5	-9.5151	-0.0842	-1.5885	-0.0018	-0.0113	0.0041	31.5720	7.7487	5.5607	-0.4743	-0.5125	-0.5623	0.4429
0.51	-9.5057	-0.0895	-1.5921	-0.0029	-0.0059	0.0010	31.7024	7.4894	5.6940	-0.4743	-0.5125	-0.5624	0.4429
0.52	-9.5150	-0.0923	-1.5873	-0.0023	-0.0085	0.0010	31.6895	7.5468	5.8126	-0.4742	-0.5125	-0.5623	0.4428
0.53	-9.5095	-0.0923	-1.5857	-0.0027	-0.0109	0.0036	31.9913	7.7938	5.8941	-0.4743	-0.5125	-0.5624	0.4429
0.54	-9.5142	-0.0987	-1.6047	-0.0010	-0.0128	0.0035	31.9159	7.6817	5.7643	-0.4743	-0.5125	-0.5624	0.4428
0.55	-9.5186	-0.1055	-1.5984	0.0020	-0.0075	0.0014	31.8039	7.5577	5.8619	-0.4743	-0.5125	-0.5624	0.4429
0.56	-9.5129	-0.1079	-1.6012	-0.0011	-0.0147	0.0076	31.5785	7.4176	5.5253	-0.4742	-0.5125	-0.5624	0.4428
0.57	-9.5161	-0.0967	-1.6031	-0.0028	-0.0143	0.0096	31.6235	7.4705	5.4182	-0.4743	-0.5125	-0.5624	0.4428
0.58	-9.5138	-0.1090	-1.6106	-0.0014	-0.0189	0.0116	31.7540	7.3679	5.5495	-0.4743	-0.5125	-0.5624	0.4428
0.59	-9.5239	-0.1059	-1.6057	-0.0033	-0.0090	0.0076	31.6725	7.4057	5.4683	-0.4743	-0.5125	-0.5624	0.4428
0.6	-9.5203	-0.1053	-1.6121	-0.0011	-0.0122	0.0098	31.8300	7.6665	5.7447	-0.4744	-0.5125	-0.5624	0.4428
0.61	-9.5132	-0.1018	-1.6115	0.0017	-0.0100	0.0116	31.5808	7.6717	5.4410	-0.4743	-0.5125	-0.5624	0.4428
0.62	-9.5117	-0.1085	-1.6133	-0.0055	-0.0073	0.0080	31.3497	7.4912	5.4504	-0.4744	-0.5126	-0.5625	0.4428
0.63	-9.5153	-0.1114	-1.6231	-0.0018	-0.0090	0.0070	31.4869	7.6178	5.6148	-0.4743	-0.5125	-0.5624	0.4427
0.64	-9.5166	-0.1069	-1.6193	-0.0010	-0.0082	0.0078	31.6533	7.5754	5.5679	-0.4743	-0.5126	-0.5625	0.4427
0.65	-9.5261	-0.1110	-1.6091	-0.0029	-0.0070	0.0061	31.6152	7.5100	5.6193	-0.4743	-0.5126	-0.5625	0.4426
0.66	-9.5202	-0.1165	-1.6257	0.0007	-0.0128	0.0118	31.6334	7.7970	5.4900	-0.4743	-0.5125	-0.5624	0.4426
0.67	-9.5166	-0.1096	-1.6292	0.0087	-0.0075	0.0027	31.5409	7.7418	5.4991	-0.4743	-0.5126	-0.5625	0.4427
0.68	-9.5205	-0.1033	-1.6294	0.0008	-0.0064	0.0017	31.5357	7.5460	5.6318	-0.4743	-0.5126	-0.5625	0.4426
0.69	-9.5047	-0.1054	-1.6401	-0.0010	-0.0076	0.0061	31.5875	7.6786	5.7486	-0.4743	-0.5126	-0.5625	0.4426
0.7	-9.5118	-0.1051	-1.6304	0.0119	-0.0147	0.0083	31.7156	7.6948	5.7711	-0.4742	-0.5126	-0.5624	0.4426
0.71	-9.5122	-0.1164	-1.6298	0.0033	-0.0055	0.0070	31.6882	7.6711	5.7530	-0.4742	-0.5127	-0.5625	0.4426
0.72	-9.5165	-0.1135	-1.6315	-0.0026	-0.0090	0.0082	31.4125	7.7077	5.5948	-0.4742	-0.5127	-0.5625	0.4426
0.73	-9.5183	-0.1054	-1.6292	-0.0018	-0.0056	0.0024	31.6380	7.5947	5.5836	-0.4742	-0.5127	-0.5625	0.4426
0.74	-9.5146	-0.1082	-1.6290	0.0011	-0.0073	0.0032	31.5160	7.6200	5.5846	-0.4742	-0.5127	-0.5626	0.4426
0.75	-9.5259	-0.1131	-1.6237	0.0048	-0.0143	0.0090	31.6106	7.5501	5.6009	-0.4742	-0.5127	-0.5625	0.4426
0.76	-9.5167	-0.0990	-1.6060	-0.0020	-0.0143	0.0060	31.9323	7.5667	5.7726	-0.4742	-0.5127	-0.5626	0.4426
0.77	-9.5181	-0.0988	-1.6067	0.0004	-0.0089	0.0097	31.6811	7.6310	5.7645	-0.4741	-0.5127	-0.5625	0.4425
0.78	-9.5237	-0.1018	-1.6070	0.0093	-0.0080	0.0046	31.5156	7.4796	5.6627	-0.4741	-0.5128	-0.5625	0.4426
0.79	-9.5230	-0.1001	-1.5968	0.0080	-0.0116	0.0032	31.5760	7.7045	5.5075	-0.4741	-0.5128	-0.5625	0.4426
0.8	-9.5217	-0.0917	-1.6000	0.0106	-0.0122	0.0062	31.7232	7.6096	5.5491	-0.4741	-0.5128	-0.5625	0.4426
0.81	-9.5178	-0.0965	-1.6098	0.0048	-0.0074	0.0062	31.6113	7.5978	5.7129	-0.4740	-0.5128	-0.5625	0.4426
0.82	-9.5195	-0.0950	-1.5996	0.0025	-0.0123	0.0080	31.5151	7.7147	5.6290	-0.4740	-0.5128	-0.5625	0.4426
0.83	-9.5137	-0.0952	-1.6061	0.0080	-0.0091	0.0059	31.5923	7.6376	5.5593	-0.4740	-0.5129	-0.5625	0.4426
0.84	-9.5136	-0.0952	-1.5972	0.0044	-0.0105	0.0039	31.7120	7.5011	5.6833	-0.4740	-0.5128	-0.5625	0.4426
0.85	-9.5117	-0.0948	-1.5920	0.0087	-0.0102	0.0110	31.6995	7.6364	5.5837	-0.4740	-0.5129	-0.5625	0.4426
0.86	-9.5144	-0.0913	-1.5922	0.0013	-0.0104	0.0071	31.5807	7.6974	5.7168	-0.4740	-0.5129	-0.5625	0.4426
0.87	-9.5113	-0.0870	-1.5885	-0.0028	-0.0115	0.0096	31.7058	7.6817	5.5929	-0.4740	-0.5130	-0.5625	0.4426
0.88	-9.5098	-0.0899	-1.5957	-0.0007	-0.0084	0.0062	31.7036	7.6870	5.5757	-0.4739	-0.5129	-0.5625	0.4425
0.89	-9.5251	-0.1012	-1.5918	-0.0033	-0.0096	0.0009	31.7042	7.6894	5.7206	-0.4740	-0.5129	-0.5625	0.4425
0.9	-9.5252	-0.1066	-1.6075	0.0012	-0.0132	0.0063	31.5278	7.6737	5.5935	-0.4740	-0.5129	-0.5625	0.4425
0.91	-9.5172	-0.0961	-1.5982	-0.0008	-0.0167	0.0056	31.6280	7.7057	5.6329	-0.4739	-0.5129	-0.5625	0.4425
0.92	-9.5192	-0.0979	-1.5988	-0.0028	-0.0156	0.0038	31.6015	7.5622	5.9115	-0.4740	-0.5129	-0.5626	0.4426
0.93	-9.5161	-0.1009	-1.5994	0.0033	-0.0154	0.0067	31.5460	7.5337	5.6412	-0.4740	-0.5129	-0.5625	0.4425
0.94	-9.5108	-0.1034	-1.6031	0.0035	-0.0154	0.0104	31.7020	7.6476	5.5729	-0.4740	-0.5130	-0.5625	0.4426
0.95	-9.5230	-0.1060	-1.6224	0.0025	-0.0134	0.0126	31.7892	7.4987	5.5971	-0.4740	-0.5129	-0.5624	0.4425
0.96	-9.5194	-0.1107	-1.6231	-0.0008	-0.0149	0.0060	31.7753	7.5436	5.6007	-0.4740	-0.5130	-0.5625	0.4425
0.97	-9.5117	-0.1096	-1.6157	-0.0017	-0.0109	0.0030	31.6654	7.6443	5.5640	-0.4740	-0.5129	-0.5625	0.4425
0.98	-9.5042	-0.1133	-1.6184	0.0057	-0.0072	0.0065	31.7868	7.5061	5.6833	-0.4740	-0.5130	-0.5625	0.4425
0.99	-9.5181	-0.1191	-1.6289	0.0077	-0.0110	0.0098	31.7854	7.6261	5.6704	-0.4740	-0.5130	-0.5625	0.4425
1	-9.5181	-0.1165	-1.6209	-0.0006	-0.0123	0.0067	31.7788	7.7037	5.5696	-0.4739	-0.5130	-0.5625	0.4425
1.01	-9.5213	-0.1096	-1.6337	-0.0042	-0.0101	0.0049	31.6046	7.6809	5.5985	-0.4740	-0.5130	-0.5625	0.4425
1.02	-9.5165	-0.1110	-1.6262	-0.0036	-0.0068	0.0026	31.7514	7.6771	5.9796	-0.4739	-0.5130	-0.5625	0.4424
1.03	-9.5197	-0.1170	-1.6229	-0.0022	-0.0082	0.0019	32.0091	7.8095	5.7831	-0.4739	-0.5130	-0.5626	0.4425
1.04	-9.5145	-0.1221	-1.6179	-0.0025	-0.0078	0.0051	31.9978	7.8753	5.5154	-0.4739	-0.5130	-0.5626	0.4424
1.05	-9.5071	-0.1110	-1.6228	0.0009	-0.0087	0.0026	31.8853	7.7581	5.7890	-0.4739	-0.5130	-0.5626	0.4424
1.06	-9.5168	-0.1111	-1.6224	-0.0006	-0.0085	0.0080	31.7632	7.4476	5.6504	-0.4739	-0.5130	-0.5626	0.4424
1.07	-9.5011	-0.1171	-1.6088	0.0012	-0.0081	0.0030	31.7668	7.5719	5.6659	-0.4739	-0.5130	-0.5626	0.4424
1.08	-9.5117	-0.1136	-1.6207	-0.0003	-0.0086	0.0037	31.6698	7.6827	5.6723	-0.4739	-0.5130	-0.5627	0.4424
1.09	-9.5164	-0.1089	-1.6214	-0.0052	-0.0078	0.0032	31.6392	7.6456	5.5178	-0.4738	-0.5130	-0.5626	0.4423
1.1	-9.5036	-0.1023	-1.6219	-0.0012	-0.0141	0.0045	31.6508	7.7420	5.6133	-0.4739	-0.5130	-0.5627	0.4424
1.11	-9.5166	-0.1065	-1.6121	-0.0039	-0.0082	0.0082	31.7995	7.7726	5.5122	-0.4738	-0.5130	-0.5627	0.4423
1.12	-9.5298	-0.1170	-1.6182	0.0040	-0.0149	0.0114	31.7944	7.6140	5.5185	-0.4739	-0.5131	-0.5627	0.4424
1.13	-9.5197	-0.1134	-1.6182	0.0052	-0.0077	0.0049	31.9820	7.4826	5.6593	-0.4738	-0.5130	-0.5626	0.4423
1.14	-9.5147	-0.1032	-1.6116	-0.0016	-0.0104	0.0054	32.0620	7.5969	5.5662	-0.4738	-0.5131	-0.5627	0.4423
1.15	-9.5198	-0.0988	-1.6131	0.0009	-0.0147	0.0108	31.9020	7.4400	5.4329	-0.4738	-0.5131	-0.5627	0.4423
1.16	-9.5065	-0.0910	-1.6087	-0.0005	-0.0091	0.0090	31.8255	7.5984	5.7310	-0.4738	-0.5131	-0.5626	0.4423
1.17	-9.5143	-0.0857	-1.5921	-0.0007	-0.0079	0.0042	31.7789	7.5565	5.7160	-0.4739	-0.5131	-0.5627	0.4423
1.18	-9.5047	-0.0806	-1.6049	0.0033	-0.0081	0.0076	31.7418	7.7352	5.5275	-0.4738	-0.5131	-0.5627	0.4422
1.19	-9.5136	-0.0846	-1.6085	0.0000	-0.0119	0.0080	31.8876	7.4923	5.3931	-0.4738	-0.5132	-0.5627	0.4423
1.2	-9.5184	-0.0861	-1.6021	-0.0036	-0.0139	0.0034	31.9795	7.5901	5.6471	-0.4738	-0.5131	-0.5627	0.4422
1.21	-9.5235	-0.0993	-1.6086	0.0002	-0.0165	0.0107	31.8515	7.6510	5.6196	-0.4738	-0.5131	-0.5627	0.4422
1.22	-9.5114	-0.1005	-1.6053	-0.0030	-0.0097	0.0052	31.7973	7.5768	5.6159	-0.4738	-0.5131	-0.5627	0.4422
1.23	-9.5012	-0.1088	-1.6040	-0.0051	-0.0146	0.0000	31.8040	7.7655	5.6314	-0.4738	-0.5131	-0.5627	0.4422
1.24	-9.5127	-0.1015	-1.6053	-0.0014	-0.0080	0.0045	31.9037	7.7345	5.5950	-0.4738	-0.5131	-0.5628	0.4422
1.25	-9.5186	-0.1090	-1.6033	-0.0038	-0.0056	0.0034	31.7532	7.7437	5.5410	-0.4738	-0.5131	-0.5628	0.4421
1.26	-9.5266	-0.1085	-1.6256	0.0004	-0.0105	0.0050	31.7239	7.7434	5.6602	-0.4738	-0.5131	-0.5628	0.4422
1.27	-9.5161	-0.1044	-1.6170	-0.0036	-0.0118	0.0053	31.7293	7.7294	5.5137	-0.4738	-0.5131	-0.5628	0.4421
1.28	-9.5189	-0.1021	-1.6168	-0.0032	-0.0046	0.0003	31.6433	7.7628	5.5279	-0.4738	-0.5131	-0.5629	0.4421
1.29	-9.5207	-0.0915	-1.6160	0.0001	-0.0096	0.0058	31.7853	7.6718	5.7045	-0.4738	-0.5131	-0.5629	0.4421
1.3	-9.5204	-0.1003	-1.6036	-0.0007	-0.0097	0.0084	31.8394	7.4649	5.6496	-0.4738	-0.5131	-0.5629	0.4421
1.31	-9.5222	-0.0977	-1.6099	0.0013	-0.0116	0.0111	31.6940	7.5194	5.6093	-0.4738	-0.5131	-0.5629	0.4420
1.32	-9.5089	-0.0847	-1.6097	0.0024	-0.0074	0.0074	31.6757	7.3383	5.5070	-0.4737	-0.5132	-0.5629	0.4420
1.33	-9.5117	-0.0857	-1.6035	-0.0002	-0.0146	0.0083	31.9434	7.5533	5.4107	-0.4738	-0.5132	-0.5629	0.4420
1.34	-9.5256	-0.0993	-1.6036	-0.0028	-0.0086	0.0062	32.0785	7.5922	5.5468	-0.4737	-0.5131	-0.5628	0.4420
1.35	-9.5166	-0.1085	-1.6093	-0.0004	-0.0081	0.0035	31.9170	7.4966	5.7329	-0.4738	-0.5132	-0.5629	0.4420
1.36	-9.5167	-0.1108	-1.6160	-0.0031	-0.0075	0.0055	31.7921	7.4488	5.4313	-0.4737	-0.5132	-0.5629	0.4420
1.37	-9.5179	-0.1136	-1.6114	0.0064	-0.0128	0.0078	31.8000	7.4416	5.7448	-0.4738	-0.5132	-0.5630	0.4420
1.38	-9.5164	-0.1132	-1.6198	0.0036	-0.0092	0.0072	31.9125	7.6167	5.5170	-0.4737	-0.5132	-0.5629	0.4419
1.39	-9.5241	-0.1162	-1.6284	0.0026	-0.0102	0.0100	31.8507	7.4401	5.4430	-0.4737	-0.5133	-0.5629	0.4420
1.4	-9.5198	-0.1246	-1.6132	0.0027	-0.0150	0.0112	31.6820	7.5700	5.4324	-0.4737	-0.5133	-0.5629	0.4419
1.41	-9.5070	-0.1247	-1.6108	-0.0043	-0.0098	0.0074	31.8117	7.5648	5.5326	-0.4737	-0.5132	-0.5629	0.4419
1.42	-9.5170	-0.1090	-1.6119	0.0021	-0.0075	0.0023	31.9168	7.6880	5.5301	-0.4737	-0.5133	-0.5630	0.4419
1.43	-9.5148	-0.0981	-1.6118	-0.0015	-0.0114	0.0039	31.8487	7.8867	5.5485	-0.4737	-0.5133	-0.5629	0.4419
1.44	-9.5151	-0.0942	-1.5974	-0.0013	-0.0060	0.0036	31.8019	7.7364	5.4479	-0.4737	-0.5133	-0.5630	0.4419
1.45	-9.5135	-0.0920	-1.5989	0.0021	-0.0122	0.0034	31.8097	7.7464	5.5254	-0.4736	-0.5132	-0.5629	0.4419
1.46	-9.5196	-0.0912	-1.6067	-0.0001	-0.0067	0.0034	31.8225	7.8365	5.5259	-0.4736	-0.5133	-0.5630	0.4419
1.47	-9.5161	-0.0828	-1.5947	0.0029	-0.0077	0.0057	31.9348	7.6676	5.3916	-0.4736	-0.5133	-0.5630	0.4419
1.48	-9.5185	-0.0859	-1.5968	-0.0006	-0.0068	0.0031	31.8085	7.6658	5.5537	-0.4736	-0.5133	-0.5630	0.4418
1.49	-9.5223	-0.0939	-1.5959	-0.0028	-0.0119	0.0105	31.8086	7.5659	5.5125	-0.4736	-0.5133	-0.5630	0.4418
1.5	-9.5273	-0.1109	-1.5998	0.0010	-0.0137	0.0086	31.8283	7.7064	5.4433	-0.4736	-0.5133	-0.5630	0.4418
1.51	-9.5047	-0.1242	-1.6050	-0.0061	-0.0086	0.0054	31.9719	7.5849	5.4199	-0.4736	-0.5134	-0.5631	0.4418
1.52	-9.5180	-0.1136	-1.6127	-0.0051	-0.0141	0.0055	32.0203	7.5935	5.6260	-0.4736	-0.5133	-0.5630	0.4417
1.53	-9.5179	-0.1175	-1.6167	-0.0023	-0.0130	0.0065	32.2872	7.4616	5.8432	-0.4736	-0.5133	-0.5631	0.4418
1.54	-9.5059	-0.1158	-1.6126	-0.0025	-0.0152	0.0047	32.2158	7.4380	5.8107	-0.4736	-0.5133	-0.5631	0.4417
1.55	-9.5152	-0.1168	-1.6156	-0.0020	-0.0085	0.0090	31.9283	7.6836	5.8218	-0.4736	-0.5133	-0.5631	0.4417
1.56	-9.5189	-0.1176	-1.6103	0.0040	-0.0100	0.0119	31.6325	7.5590	5.7561	-0.4736	-0.5133	-0.5631	0.4417
1.57	-9.5236	-0.1131	-1.6078	-0.0002	-0.0086	0.0105	31.6352	7.4643	5.6313	-0.4736	-0.5134	-0.5631	0.4417
1.58	-9.5068	-0.1008	-1.6216	0.0055	-0.0108	0.0028	31.4976	7.5278	5.5934	-0.4736	-0.5134	-0.5631	0.4417
1.59	-9.5220	-0.1003	-1.6204	0.0028	-0.0128	0.0051	31.6603	7.6646	5.5080	-0.4735	-0.5134	-0.5630	0.4417
1.6	-9.5193	-0.0990	-1.6188	-0.0013	-0.0105	0.0064	31.6677	7.6452	5.5991	-0.4736	-0.5134	-0.5631	0.4417
1.61	-9.5055	-0.1064	-1.6120	0.0008	-0.0075	0.0091	31.4223	7.5192	5.7411	-0.4736	-0.5134	-0.5631	0.4416
1.62	-9.5169	-0.1070	-1.6100	0.0014	-0.0088	0.0064	31.6224	7.6629	5.7870	-0.4736	-0.5135	-0.5631	0.4417
1.63	-9.5194	-0.1134	-1.6237	0.0056	-0.0065	0.0078	31.4677	7.5556	5.6556	-0.4735	-0.5134	-0.5631	0.4416
1.64	-9.5128	-0.1051	-1.6223	0.0049	-0.0052	0.0102	31.5500	7.5776	5.9331	-0.4735	-0.5135	-0.5631	0.4416
1.65	-9.5106	-0.1011	-1.6285	0.0009	-0.0074	0.0089	31.7151	7.7202	5.7285	-0.4735	-0.5135	-0.5631	0.4416
1.66	-9.5183	-0.0952	-1.6269	-0.0005	-0.0067	0.0126	31.5791	7.7551	5.5936	-0.4735	-0.5135	-0.5631	0.4415
1.67	-9.5244	-0.0925	-1.6391	0.0088	-0.0092	0.0070	31.5015	7.6146	5.4680	-0.4735	-0.5137	-0.5631	0.4416
1.68	-9.5092	-0.0845	-1.6244	0.0039	-0.0127	0.0061	31.6569	7.5672	5.4290	-0.4734	-0.5136	-0.5631	0.4415
1.69	-9.5205	-0.0914	-1.6229	0.0004	-0.0148	0.0079	31.6568	7.5570	5.5843	-0.4735	-0.5137	-0.5631	0.4416
1.7	-9.5246	-0.0837	-1.6317	-0.0036	-0.0102	0.0075	31.8144	7.6078	5.6931	-0.4734	-0.5136	-0.5631	0.4415
1.71	-9.5106	-0.0856	-1.6246	0.0005	-0.0159	0.0056	31.9514	7.4029	5.6743	-0.4735	-0.5136	-0.5631	0.4415
1.72	-9.5192	-0.0973	-1.6230	0.0006	-0.0203	0.0037	31.6822	7.3651	5.7454	-0.4735	-0.5136	-0.5631	0.4415
1.73	-9.5160	-0.1104	-1.6124	-0.0031	-0.0098	0.0048	31.6785	7.6320	5.7387	-0.4735	-0.5136	-0.5631	0.4415
1.74	-9.5161	-0.1139	-1.6086	0.0001	-0.0112	0.0073	31.5572	7.3511	5.4442	-0.4735	-0.5136	-0.5631	0.4415
1.75	-9.5092	-0.1159	-1.5983	0.0026	-0.0174	0.0098	31.5410	7.4471	5.5871	-0.4735	-0.5136	-0.5631	0.4415
1.76	-9.5179	-0.1155	-1.5983	-0.0059	-0.0110	0.0039	31.7663	7.7279	5.7346	-0.4735	-0.5136	-0.5631	0.4415
1.77	-9.5212	-0.1118	-1.6008	-0.0047	-0.0159	0.0072	31.7345	7.7468	5.5643	-0.4735	-0.5136	-0.5631	0.4414
1.78	-9.5227	-0.1176	-1.6004	-0.0031	-0.0149	0.0135	31.8496	7.5401	5.5197	-0.4736	-0.5136	-0.5631	0.4415
1.79	-9.5188	-0.1048	-1.5933	0.0080	-0.0129	0.0083	31.6806	7.7288	5.4676	-0.4735	-0.5136	-0.5631	0.4415
1.8	-9.5201	-0.0933	-1.6035	0.0022	-0.0073	0.0013	31.6580	7.4869	5.6478	-0.4735	-0.5137	-0.5631	0.4415
1.81	-9.5061	-0.0981	-1.5994	0.0023	-0.0094	0.0048	31.6780	7.4885	5.8074	-0.4735	-0.5137	-0.5631	0.4414
1.82	-9.5155	-0.0996	-1.6045	0.0028	-0.0118	0.0045	31.6378	7.4777	5.4952	-0.4735	-0.5137	-0.5631	0.4415
1.83	-9.5223	-0.1024	-1.6141	0.0006	-0.0096	0.0093	31.5708	7.5240	5.7501	-0.4735	-0.5137	-0.5631	0.4414
1.84	-9.5138	-0.1104	-1.6014	0.0036	-0.0079	0.0044	31.5758	7.6622	5.7742	-0.4734	-0.5137	-0.5631	0.4414
1.85	-9.5270	-0.1169	-1.6025	-0.0019	-0.0095	0.0037	31.6954	7.6488	5.5745	-0.4734	-0.5137	-0.5632	0.4414
1.86	-9.5187	-0.1137	-1.6055	-0.0002	-0.0136	0.0084	31.7544	7.6552	5.7148	-0.4734	-0.5137	-0.5631	0.4414
1.87	-9.5199	-0.1161	-1.5904	-0.0037	-0.0116	0.0045	31.5395	7.6563	5.6673	-0.4735	-0.5138	-0.5632	0.4414
1.88	-9.5209	-0.1204	-1.5885	0.0009	-0.0137	0.0114	31.7797	7.5776	5.6113	-0.4734	-0.5137	-0.5631	0.4414
1.89	-9.5234	-0.1098	-1.5941	0.0066	-0.0144	0.0099	31.8259	7.4459	5.4601	-0.4734	-0.5138	-0.5631	0.4414
1.9	-9.5235	-0.0918	-1.6123	0.0040	-0.0159	0.0088	31.8677	7.5725	5.5939	-0.4734	-0.5138	-0.5631	0.4414
1.91	-9.5148	-0.0808	-1.6106	-0.0031	-0.0122	0.0046	31.6560	7.5077	5.5833	-0.4734	-0.5137	-0.5631	0.4414
1.92	-9.5217	-0.0878	-1.6079	-0.0059	-0.0074	0.0069	31.7795	7.3795	5.6284	-0.4735	-0.5138	-0.5632	0.4414
1.93	-9.5068	-0.0774	-1.6118	0.0052	-0.0162	0.0065	31.8107	7.6988	5.8071	-0.4734	-0.5138	-0.5631	0.4413
1.94	-9.5211	-0.0778	-1.6184	-0.0020	-0.0168	0.0037	31.7085	7.7572	5.5131	-0.4735	-0.5138	-0.5631	0.4414
1.95	-9.5224	-0.0774	-1.6242	-0.0013	-0.0214	0.0071	31.8543	7.6598	5.4168	-0.4734	-0.5137	-0.5631	0.4413
1.96	-9.5034	-0.0872	-1.6179	-0.0000	-0.0135	0.0104	31.7202	7.5314	5.4206	-0.4735	-0.5138	-0.5631	0.4414
1.97	-9.5187	-0.1055	-1.6204	-0.0071	-0.0152	0.0052	31.7827	7.6445	5.5929	-0.4735	-0.5137	-0.5631	0.4413
1.98	-9.5063	-0.1146	-1.6231	0.0030	-0.0098	0.0048	31.6223	7.5999	5.5742	-0.4735	-0.5137	-0.5631	0.4413
1.99	-9.5110	-0.1406	-1.6187	0.0009	-0.0073	0.0037	31.4516	7.4540	5.7154	-0.4735	-0.5138	-0.5631	0.4413
2	-9.5117	-0.1454	-1.6282	-0.0025	-0.0059	0.0018	31.7138	7.5083	5.4975	-0.4734	-0.5138	-0.5632	0.4413
2.01	-9.5074	-0.1364	-1.6235	0.0004	-0.0036	0.0018	31.6967	7.4650	5.6223	-0.4734	-0.5138	-0.5632	0.4413
2.02	-9.5109	-0.1341	-1.6166	-0.0003	-0.0056	-0.0001	31.7097	7.5683	5.7826	-0.4733	-0.5137	-0.5632	0.4412
2.03	-9.5113	-0.1031	-1.6134	0.0036	-0.0100	0.0039	31.9568	7.7782	5.8889	-0.4734	-0.5138	-0.5633	0.4413
2.04	-9.5080	-0.0920	-1.6139	0.0028	-0.0076	0.0030	31.8525	7.8642	5.9305	-0.4733	-0.5138	-0.5633	0.4413
2.05	-9.5143	-0.0743	-1.6092	0.0007	-0.0075	0.0012	31.8771	7.8909	5.6433	-0.4733	-0.5138	-0.5633	0.4413
2.06	-9.5228	-0.0698	-1.6063	-0.0073	-0.0127	0.0101	31.4695	7.6291	5.6302	-0.4733	-0.5138	-0.5633	0.4412
2.07	-9.5069	-0.0685	-1.6053	-0.0063	-0.0158	0.0047	31.7832	7.5634	5.6194	-0.4733	-0.5138	-0.5633	0.4412
2.08	-9.5079	-0.0879	-1.6134	-0.0058	-0.0119	0.0039	31.8402	7.3951	5.6822	-0.4733	-0.5138	-0.5633	0.4412
2.09	-9.5076	-0.1087	-1.6097	-0.0061	-0.0137	0.0030	31.7365	7.1935	5.8525	-0.4733	-0.5137	-0.5633	0.4411
2.1	-9.5195	-0.1286	-1.6089	-0.0066	-0.0128	0.0060	31.7999	7.4952	5.5810	-0.4734	-0.5138	-0.5634	0.4412
2.11	-9.5191	-0.1477	-1.6243	-0.0030	-0.0162	0.0080	31.7661	7.4330	5.5624	-0.4734	-0.5137	-0.5634	0.4411
2.12	-9.5067	-0.1492	-1.6142	0.0006	-0.0100	0.0062	31.7840	7.4686	5.7421	-0.4734	-0.5138	-0.5634	0.4412
2.13	-9.5090	-0.1315	-1.6086	-0.0023	-0.0080	0.0070	31.7724	7.5000	5.7114	-0.4733	-0.5137	-0.5634	0.4411
2.14	-9.5158	-0.1119	-1.6242	0.0015	-0.0094	0.0039	31.6636	7.5060	5.6296	-0.4734	-0.5138	-0.5634	0.4411
2.15	-9.5126	-0.0906	-1.6075	0.0013	-0.0125	0.0025	31.5802	7.6023	5.7850	-0.4733	-0.5138	-0.5634	0.4411
2.16	-9.5244	-0.0968	-1.6149	0.0014	-0.0134	0.0072	31.6936	7.5491	5.5379	-0.4733	-0.5137	-0.5634	0.4411
2.17	-9.5287	-0.1238	-1.6210	0.0024	-0.0095	0.0075	31.7978	7.6898	5.5467	-0.4734	-0.5138	-0.5635	0.4411
2.18	-9.4635	-0.0877	-1.5612	0.0090	-0.0088	0.0045	31.6236	7.6291	5.6757	-0.4733	-0.5138	-0.5634	0.4411
2.19	-9.5427	-0.0797	-1.6445	-0.0003	-0.0055	0.0022	31.4302	7.7170	5.5413	-0.4733	-0.5139	-0.5635	0.4411
2.2	-9.5157	-0.1018	-1.6012	-0.0001	-0.0105	0.0062	31.5468	7.7570	5.5305	-0.4732	-0.5138	-0.5634	0.4410
2.21	-9.4716	-0.1150	-1.5677	-0.0054	-0.0077	0.0047	31.7206	7.6093	5.6616	-0.4732	-0.5138	-0.5635	0.4410
2.22	-9.5369	-0.1016	-1.6099	-0.0042	-0.0095	0.0064	31.5493	7.7321	5.5856	-0.4732	-0.5138	-0.5635	0.4410
2.23	-9.5197	-0.1311	-1.5903	-0.0002	-0.0090	0.0018	31.7472	7.6830	5.4765	-0.4732	-0.5138	-0.5635	0.4410
2.24	-9.4843	-0.1513	-1.5683	0.0017	-0.0086	0.0052	31.4615	7.5501	5.8949	-0.4732	-0.5139	-0.5635	0.4410
2.25	-9.5283	-0.1119	-1.6146	0.0083	-0.0143	0.0092	31.7607	7.5765	5.6843	-0.4732	-0.5139	-0.5635	0.4410
2.26	-9.5305	-0.0692	-1.6131	0.0094	-0.0148	0.0109	32.0437	7.3997	5.5044	-0.4732	-0.5139	-0.5635	0.4410
2.27	-9.5015	-0.0593	-1.5826	0.0028	-0.0090	0.0061	31.7241	7.4964	5.5782	-0.4731	-0.5139	-0.5634	0.4410
2.28	-9.5243	-0.0669	-1.6080	-0.0001	-0.0099	0.0028	31.8260	7.4943	5.5312	-0.4732	-0.5140	-0.5635	0.4410
2.29	-9.5086	-0.0867	-1.6018	-0.0026	-0.0079	0.0048	31.8374	7.5094	5.7317	-0.4731	-0.5139	-0.5635	0.4410
2.3	-9.5096	-0.1122	-1.6189	0.0031	-0.0085	0.0048	31.6862	7.6898	5.6677	-0.4731	-0.5140	-0.5635	0.4410
2.31	-9.5169	-0.1105	-1.6293	0.0040	-0.0078	0.0029	31.7033	7.5371	5.4218	-0.4731	-0.5140	-0.5635	0.4410
2.32	-9.5012	-0.1347	-1.6151	0.0014	-0.0115	0.0042	31.7010	7.6362	5.6152	-0.4731	-0.5140	-0.5635	0.4410
2.33	-9.5030	-0.1290	-1.6251	0.0023	-0.0068	0.0018	31.8608	7.5908	5.6081	-0.4730	-0.5140	-0.5636	0.4410
2.34	-9.5089	-0.1227	-1.6037	0.0018	-0.0091	0.0065	31.8567	7.3571	5.4344	-0.4730	-0.5140	-0.5635	0.4409
2.35	-9.5114	-0.1106	-1.6197	0.0022	-0.0161	0.0057	31.7855	7.5575	5.5944	-0.4730	-0.5140	-0.5636	0.4410
2.36	-9.5105	-0.0984	-1.6135	0.0017	-0.0106	0.0038	31.5909	7.6869	5.4718	-0.4730	-0.5140	-0.5636	0.4410
2.37	-9.5236	-0.0940	-1.6118	0.0052	-0.0115	0.0020	31.3199	7.6230	5.4987	-0.4730	-0.5141	-0.5636	0.4410
2.38	-9.5105	-0.0781	-1.6148	-0.0025	-0.0155	-0.0009	31.5699	7.7508	5.5707	-0.4729	-0.5140	-0.5636	0.4410
2.39	-9.5053	-0.0893	-1.6075	-0.0017	-0.0104	0.0017	31.6201	7.8417	5.4981	-0.4730	-0.5140	-0.5636	0.4410
2.4	-9.5066	-0.0971	-1.6143	0.0058	-0.0051	0.0010	31.6143	7.9610	5.7929	-0.4729	-0.5140	-0.5637	0.4410
2.41	-9.5146	-0.1070	-1.6079	0.0027	-0.0090	0.0043	31.6051	7.7293	5.7208	-0.4729	-0.5140	-0.5636	0.4410
2.42	-9.5047	-0.1048	-1.6010	-0.0011	-0.0069	0.0020	31.5447	7.6618	5.6360	-0.4729	-0.5141	-0.5637	0.4410
2.43	-9.5117	-0.1095	-1.6086	0.0034	-0.0167	0.0065	31.6276	7.7397	5.5632	-0.4728	-0.5140	-0.5637	0.4410
2.44	-9.5254	-0.1077	-1.5978	0.0005	-0.0117	0.0065	31.6446	7.5751	5.6368	-0.4729	-0.5141	-0.5637	0.4410
2.45	-9.5180	-0.0950	-1.6047	-0.0027	-0.0094	0.0076	31.8772	7.5056	5.8733	-0.4728	-0.5140	-0.5636	0.4409
2.46	-9.5084	-0.1033	-1.5923	0.0042	-0.0094	0.0092	31.6431	7.2696	5.5432	-0.4728	-0.5141	-0.5637	0.4409
2.47	-9.5157	-0.1007	-1.5957	0.0026	-0.0138	0.0041	31.9271	7.4004	5.4326	-0.4728	-0.5141	-0.5637	0.4409
2.48	-9.5161	-0.0970	-1.6096	-0.0023	-0.0109	0.0027	31.9030	7.4224	5.5491	-0.4728	-0.5141	-0.5637	0.4409
2.49	-9.5002	-0.1172	-1.5960	-0.0005	-0.0109	0.0057	31.6485	7.4028	5.6438	-0.4728	-0.5141	-0.5637	0.4409
2.5	-9.5129	-0.1145	-1.5965	-0.0014	-0.0152	0.0108	31.7458	7.4185	5.6493	-0.4728	-0.5141	-0.5637	0.4409
2.51	-9.5178	-0.1113	-1.6111	-0.0005	-0.0165	0.0063	31.7833	7.3964	5.6062	-0.4729	-0.5141	-0.5637	0.4409
2.52	-9.5097	-0.1065	-1.6047	-0.0063	-0.0122	0.0041	31.8222	7.4900	5.8164	-0.4728	-0.5140	-0.5637	0.4409
2.53	-9.5189	-0.1132	-1.6106	0.0001	-0.0107	0.0027	32.0822	7.6092	5.9179	-0.4729	-0.5141	-0.5638	0.4409
2.54	-9.5191	-0.1084	-1.6085	0.0015	-0.0080	0.0048	32.0510	7.5529	5.7563	-0.4728	-0.5141	-0.5637	0.4409
2.55	-9.5034	-0.1109	-1.6164	-0.0026	-0.0050	0.0037	31.8126	7.4887	5.9496	-0.4728	-0.5141	-0.5638	0.4409
2.56	-9.5112	-0.1092	-1.6177	0.0050	-0.0047	0.0074	31.6927	7.4988	5.6085	-0.4727	-0.5141	-0.5638	0.4408
2.57	-9.5177	-0.1246	-1.6229	0.0016	-0.0084	-0.0000	31.7153	7.5267	5.5126	-0.4727	-0.5141	-0.5638	0.4408
2.58	-9.5297	-0.1330	-1.6169	0.0027	-0.0060	0.0053	31.6140	7.6230	5.6347	-0.4727	-0.5141	-0.5638	0.4408
2.59	-9.5199	-0.1095	-1.6198	0.0015	-0.0046	0.0009	31.5623	7.4787	5.8798	-0.4726	-0.5141	-0.5638	0.4408
2.6	-9.4989	-0.0988	-1.6120	0.0024	-0.0065	0.0018	31.6957	7.5205	5.7169	-0.4726	-0.5142	-0.5639	0.4408
2.61	-9.5148	-0.0915	-1.6080	0.0063	-0.0088	0.0056	31.7855	7.6056	5.5817	-0.4726	-0.5142	-0.5639	0.4408
2.62	-9.5303	-0.0889	-1.6055	0.0044	-0.0150	0.0094	31.6719	7.5735	5.7575	-0.4726	-0.5142	-0.5639	0.4408
2.63	-9.5116	-0.0932	-1.5980	0.0053	-0.0081	0.0068	31.6748	7.5940	5.4465	-0.4725	-0.5142	-0.5638	0.4408
2.64	-9.5244	-0.0868	-1.6115	0.0073	-0.0082	0.0034	31.7649	7.4646	5.6837	-0.4725	-0.5143	-0.5639	0.4408
2.65	-9.5224	-0.0918	-1.6112	0.0035	-0.0116	0.0044	31.7506	7.7361	5.8080	-0.4725	-0.5143	-0.5639	0.4408
2.66	-9.5078	-0.0958	-1.6112	0.0043	-0.0072	0.0084	31.6791	7.7017	5.6695	-0.4725	-0.5143	-0.5638	0.4408
2.67	-9.5153	-0.0984	-1.6209	0.0029	-0.0081	0.0028	31.6601	7.4476	5.6853	-0.4725	-0.5144	-0.5639	0.4408
2.68	-9.5138	-0.0953	-1.6176	0.0028	-0.0105	0.0074	31.6794	7.8188	5.6669	-0.4724	-0.5143	-0.5639	0.4408
2.69	-9.5174	-0.0907	-1.6218	-0.0004	-0.0112	0.0121	31.6632	7.7808	5.4681	-0.4725	-0.5144	-0.5639	0.4408
2.7	-9.5074	-0.0982	-1.6181	0.0004	-0.0084	0.0051	31.6805	7.6667	5.6201	-0.4724	-0.5143	-0.5639	0.4407
2.71	-9.5192	-0.1073	-1.6280	0.0028	-0.0127	0.0115	31.7531	7.5373	5.5465	-0.4724	-0.5144	-0.5639	0.4408
2.72	-9.5207	-0.1104	-1.6240	-0.0047	-0.0113	0.0043	31.6209	7.5201	5.5458	-0.4724	-0.5144	-0.5639	0.4407
2.73	-9.5122	-0.0873	-1.6172	-0.0032	-0.0052	0.0014	31.5089	7.6762	5.5928	-0.4724	-0.5144	-0.5639	0.4407
2.74	-9.5122	-0.0831	-1.6157	-0.0011	-0.0058	0.0046	31.5082	7.5798	5.6947	-0.4724	-0.5144	-0.5640	0.4407
2.75	-9.5141	-0.0930	-1.6092	-0.0005	-0.0072	0.0007	31.7461	7.5586	5.6340	-0.4724	-0.5144	-0.5640	0.4407
2.76	-9.5123	-0.1068	-1.6075	0.0015	-0.0102	0.0021	31.7547	7.6649	5.4147	-0.4724	-0.5144	-0.5640	0.4407
2.77	-9.5181	-0.1053	-1.6190	0.0006	-0.0079	0.0070	31.7542	7.6516	5.7271	-0.4723	-0.5144	-0.5640	0.4406
2.78	-9.5203	-0.1169	-1.6206	0.0091	-0.0087	-0.0003	31.6423	7.6134	5.6323	-0.4723	-0.5144	-0.5641	0.4407
2.79	-9.5057	-0.1145	-1.6128	0.0034	-0.0058	0.0021	31.7169	7.6238	5.4495	-0.4722	-0.5144	-0.5640	0.4407
2.8	-9.5073	-0.1169	-1.6028	-0.0007	-0.0103	0.0058	31.7936	7.6330	5.5967	-0.4722	-0.5145	-0.5641	0.4407
2.81	-9.5239	-0.1206	-1.6176	-0.0004	-0.0084	0.0090	31.5474	7.7563	5.5894	-0.4722	-0.5145	-0.5641	0.4406
2.82	-9.5173	-0.1225	-1.6104	0.0067	-0.0081	0.0035	31.7535	7.5501	5.5800	-0.4722	-0.5145	-0.5641	0.4406
2.83	-9.5113	-0.1209	-1.6214	0.0094	-0.0088	0.0076	31.8706	7.7484	5.4438	-0.4722	-0.5145	-0.5641	0.4407
2.84	-9.5147	-0.1216	-1.6232	0.0014	-0.0088	0.0053	31.8052	7.4841	5.6944	-0.4721	-0.5145	-0.5640	0.4406
2.85	-9.5192	-0.1257	-1.6260	0.0026	-0.0155	0.0080	31.7646	7.5049	5.7825	-0.4722	-0.5146	-0.5641	0.4407
2.86	-9.5112	-0.1129	-1.6328	-0.0058	-0.0128	0.0067	31.8392	7.6493	5.4703	-0.4721	-0.5145	-0.5641	0.4406
2.87	-9.5100	-0.1111	-1.6184	0.0037	-0.0174	0.0046	31.6378	7.4466	5.6325	-0.4722	-0.5146	-0.5641	0.4407
2.88	-9.5253	-0.1028	-1.6165	-0.0014	-0.0187	0.0044	31.8367	7.8056	5.8189	-0.4721	-0.5145	-0.5640	0.4406
2.89	-9.5209	-0.0896	-1.6092	0.0063	-0.0133	0.0064	31.9421	7.6778	5.4667	-0.4722	-0.5145	-0.5641	0.4407
2.9	-9.5121	-0.0881	-1.6025	0.0087	-0.0150	0.0097	31.6971	7.6014	5.6423	-0.4721	-0.5146	-0.5640	0.4407
2.91	-9.5142	-0.1005	-1.6060	-0.0024	-0.0136	0.0062	31.6520	7.6925	5.6245	-0.4721	-0.5145	-0.5640	0.4406
2.92	-9.5176	-0.0919	-1.6035	0.0027	-0.0076	0.0010	31.7732	7.6643	5.4727	-0.4721	-0.5146	-0.5641	0.4407
2.93	-9.5057	-0.0917	-1.5913	-0.0021	-0.0116	0.0049	31.6120	7.6387	5.7970	-0.4721	-0.5146	-0.5640	0.4407
2.94	-9.5004	-0.0845	-1.5950	-0.0043	-0.0055	0.0048	31.5595	7.5530	5.6891	-0.4721	-0.5146	-0.5641	0.4406
2.95	-9.5080	-0.0829	-1.6072	-0.0008	-0.0112	0.0042	31.6943	7.6006	5.6698	-0.4720	-0.5145	-0.5641	0.4406
2.96	-9.5217	-0.0790	-1.6120	-0.0058	-0.0095	0.0027	31.6295	7.5686	5.6924	-0.4721	-0.5146	-0.5641	0.4406
2.97	-9.5312	-0.0718	-1.6117	-0.0047	-0.0070	0.0069	31.5975	7.4411	5.8253	-0.4721	-0.5146	-0.5642	0.4406
2.98	-9.5277	-0.0781	-1.5929	-0.0018	-0.0073	0.0035	31.4994	7.6637	5.5979	-0.4720	-0.5146	-0.5642	0.4405
2.99	-9.5049	-0.0892	-1.5768	-0.0051	-0.0116	0.0068	31.6161	7.6566	5.5719	-0.4721	-0.5146	-0.5642	0.4405
3	-9.5208	-0.1110	-1.6040	0.0007	-0.0150	0.0091	31.9014	7.6965	5.6169	-0.4721	-0.5146	-0.5642	0.4405
3.01	-9.5086	-0.1154	-1.6005	-0.0022	-0.0152	0.0055	31.7782	7.5927	5.5528	-0.4721	-0.5146	-0.5642	0.4405
3.02	-9.5097	-0.1163	-1.5968	-0.0009	-0.0139	0.0065	31.9934	7.6059	5.7764	-0.4721	-0.5145	-0.5641	0.4405
3.03	-9.5203	-0.1261	-1.6056	0.0059	-0.0114	0.0030	32.0884	7.5464	5.9872	-0.4721	-0.5146	-0.5642	0.4405
3.04	-9.5071	-0.1187	-1.6031	-0.0009	-0.0109	0.0056	32.0193	7.5603	5.9326	-0.4721	-0.5146	-0.5642	0.4405
3.05	-9.5202	-0.1120	-1.6128	0.0039	-0.0169	0.0057	31.8853	7.5824	5.8705	-0.4721	-0.5146	-0.5642	0.4405
3.06	-9.5161	-0.1051	-1.6166	0.0031	-0.0144	0.0024	31.7266	7.5673	5.6875	-0.4720	-0.5146	-0.5642	0.4405
3.07	-9.5156	-0.0936	-1.6201	0.0006	-0.0074	0.0050	31.6448	7.6516	5.7208	-0.4720	-0.5146	-0.5642	0.4405
3.08	-9.5155	-0.1128	-1.6211	0.0014	-0.0113	0.0033	31.7711	7.4936	5.7197	-0.4720	-0.5146	-0.5642	0.4405
3.09	-9.5110	-0.1210	-1.6312	-0.0039	-0.0162	0.0116	31.8164	7.3773	5.7314	-0.4720	-0.5146	-0.5642	0.4405
3.1	-9.4983	-0.1317	-1.6273	-0.0074	-0.0149	0.0051	31.5509	7.6125	5.6118	-0.4721	-0.5146	-0.5642	0.4405
3.11	-9.5148	-0.1438	-1.6404	-0.0127	-0.0066	0.0000	31.4775	7.6076	5.7760	-0.4721	-0.5145	-0.5643	0.4404
3.12	-9.5152	-0.1511	-1.6380	0.0024	-0.0134	0.0031	31.7848	7.5398	5.5786	-0.4721	-0.5146	-0.5643	0.4405
3.13	-9.5123	-0.1375	-1.6309	0.0043	-0.0135	0.0051	31.4903	7.5604	5.4241	-0.4720	-0.5145	-0.5642	0.4404
3.14	-9.5077	-0.1237	-1.6163	-0.0030	-0.0057	-0.0002	31.6137	7.6754	5.5926	-0.4720	-0.5146	-0.5643	0.4405
3.15	-9.5144	-0.1046	-1.6303	-0.0039	-0.0116	0.0077	31.7338	7.5718	5.6450	-0.4720	-0.5146	-0.5643	0.4404
3.16	-9.5171	-0.1047	-1.6276	-0.0050	-0.0098	0.0038	31.6933	7.6130	5.6115	-0.4720	-0.5145	-0.5643	0.4404
3.17	-9.4997	-0.0964	-1.6149	-0.0029	-0.0126	0.0065	31.7089	7.7616	5.7396	-0.4721	-0.5146	-0.5644	0.4404
3.18	-9.5156	-0.1000	-1.6263	-0.0055	-0.0049	0.0056	31.4422	7.5445	5.8185	-0.4720	-0.5145	-0.5644	0.4403
3.19	-9.5249	-0.1041	-1.6091	-0.0053	-0.0165	0.0074	31.5449	7.3901	5.5529	-0.4721	-0.5146	-0.5644	0.4404
3.2	-9.5062	-0.1082	-1.6128	0.0029	-0.0188	0.0058	31.9215	7.3979	5.5565	-0.4720	-0.5145	-0.5643	0.4403
3.21	-9.5072	-0.0864	-1.6064	-0.0006	-0.0135	0.0019	31.8166	7.4020	5.4253	-0.4720	-0.5145	-0.5644	0.4404
3.22	-9.5262	-0.0770	-1.6076	-0.0017	-0.0129	0.0042	31.6746	7.5492	5.5384	-0.4720	-0.5145	-0.5644	0.4404
3.23	-9.5189	-0.0603	-1.6062	-0.0042	-0.0126	0.0032	31.7216	7.5686	5.7565	-0.4720	-0.5145	-0.5644	0.4403
3.24	-9.4977	-0.0644	-1.6048	-0.0031	-0.0137	0.0038	31.6145	7.4666	5.6861	-0.4721	-0.5145	-0.5644	0.4403
3.25	-9.5219	-0.0737	-1.6221	-0.0035	-0.0181	0.0037	31.6143	7.5953	5.6371	-0.4721	-0.5145	-0.5644	0.4403
3.26	-9.5111	-0.0793	-1.6185	-0.0050	-0.0176	0.0027	31.6841	7.4953	5.5712	-0.4721	-0.5144	-0.5645	0.4404
3.27	-9.5207	-0.0917	-1.6292	-0.0030	-0.0135	0.0066	31.7146	7.4638	5.5290	-0.4721	-0.5144	-0.5644	0.4403
3.28	-9.5186	-0.1062	-1.6235	-0.0023	-0.0167	0.0067	31.8047	7.4011	5.6671	-0.4721	-0.5144	-0.5645	0.4403
3.29	-9.5125	-0.1149	-1.6426	-0.0040	-0.0103	0.0046	31.6057	7.6616	5.4427	-0.4721	-0.5144	-0.5645	0.4403
3.3	-9.4977	-0.1161	-1.6340	0.0028	-0.0064	-0.0019	31.5160	7.6062	5.5098	-0.4721	-0.5144	-0.5645	0.4403
3.31	-9.4987	-0.1332	-1.6154	-0.0001	-0.0114	0.0050	31.5732	7.7662	5.6502	-0.4720	-0.5144	-0.5645	0.4403
3.32	-9.5112	-0.1473	-1.6322	-0.0050	-0.0131	0.0022	31.5000	7.5334	5.5994	-0.4721	-0.5144	-0.5645	0.4403
3.33	-9.5105	-0.1429	-1.6192	-0.0034	-0.0055	0.0003	31.4801	7.4939	5.6942	-0.4720	-0.5144	-0.5646	0.4403
3.34	-9.5101	-0.1350	-1.6194	-0.0023	-0.0075	0.0049	31.6653	7.6524	5.7314	-0.4720	-0.5143	-0.5646	0.4402
3.35	-9.5228	-0.1327	-1.6194	-0.0022	-0.0150	0.0023	31.3935	7.6459	5.5982	-0.4721	-0.5144	-0.5646	0.4403
3.36	-9.5127	-0.1154	-1.6168	-0.0045	-0.0161	0.0064	31.7022	7.8801	5.6431	-0.4720	-0.5143	-0.5646	0.4402
3.37	-9.5078	-0.1069	-1.6108	-0.0018	-0.0082	0.0066	31.5795	7.6763	5.8316	-0.4721	-0.5144	-0.5647	0.4403
3.38	-9.5117	-0.1028	-1.6201	-0.0067	-0.0158	0.0093	31.5149	7.4461	5.6130	-0.4720	-0.5143	-0.5646	0.4402
3.39	-9.5232	-0.1243	-1.6156	-0.0084	-0.0141	0.0060	31.8909	7.3953	5.5377	-0.4721	-0.5143	-0.5646	0.4402
3.4	-9.5110	-0.1326	-1.6097	-0.0056	-0.0195	0.0051	31.8205	7.3836	5.7388	-0.4721	-0.5143	-0.5647	0.4402
3.41	-9.5040	-0.1494	-1.6120	-0.0068	-0.0084	0.0028	31.7314	7.4676	5.6616	-0.4721	-0.5143	-0.5646	0.4401
3.42	-9.5258	-0.1481	-1.6179	0.0000	-0.0156	0.0061	32.0435	7.5833	5.4159	-0.4722	-0.5143	-0.5647	0.4402
3.43	-9.5123	-0.1419	-1.6119	-0.0012	-0.0177	0.0050	31.8068	7.4332	5.3758	-0.4721	-0.5143	-0.5647	0.4402
3.44	-9.5106	-0.1086	-1.6074	-0.0030	-0.0125	0.0069	31.7303	7.5570	5.5746	-0.4722	-0.5143	-0.5647	0.4402
3.45	-9.5200	-0.0852	-1.6100	-0.0030	-0.0214	0.0040	31.8192	7.5661	5.4263	-0.4721	-0.5142	-0.5646	0.4401
3.46	-9.5105	-0.0588	-1.6015	-0.0041	-0.0197	0.0089	31.6761	7.5544	5.7204	-0.4722	-0.5142	-0.5647	0.4402
3.47	-9.5040	-0.0425	-1.6015	-0.0011	-0.0190	0.0058	31.8521	7.4166	5.6660	-0.4722	-0.5142	-0.5647	0.4402
3.48	-9.5053	-0.0315	-1.5988	-0.0082	-0.0130	0.0022	31.6737	7.6495	5.6364	-0.4722	-0.5142	-0.5647	0.4401
3.49	-9.5090	-0.0357	-1.5969	-0.0030	-0.0119	0.0026	31.7450	7.6281	5.5122	-0.4723	-0.5142	-0.5647	0.4401
3.5	-9.5162	-0.0430	-1.6020	-0.0085	-0.0087	0.0052	31.6425	7.6842	5.4699	-0.4722	-0.5142	-0.5647	0.4401
3.51	-9.5023	-0.0440	-1.5891	-0.0096	-0.0091	0.0045	31.4922	7.7152	5.5547	-0.4723	-0.5142	-0.5648	0.4401
3.52	-9.5066	-0.0679	-1.5935	-0.0031	-0.0122	-0.0003	31.7047	7.8212	5.5904	-0.4722	-0.5141	-0.5647	0.4400
3.53	-9.5140	-0.0996	-1.5869	-0.0057	-0.0115	0.0031	31.8177	7.6781	5.8747	-0.4723	-0.5141	-0.5648	0.4401
3.54	-9.5078	-0.1146	-1.5948	-0.0031	-0.0069	0.0034	31.7139	7.5273	5.7333	-0.4722	-0.5141	-0.5648	0.4400
3.55	-9.5103	-0.1165	-1.5940	0.0047	-0.0130	0.0052	31.7923	7.7889	5.7385	-0.4722	-0.5141	-0.5649	0.4400
3.56	-9.5195	-0.1206	-1.5814	0.0085	-0.0184	0.0060	31.6520	7.7644	5.5388	-0.4722	-0.5141	-0.5648	0.4401
3.57	-9.5051	-0.1138	-1.5739	0.0074	-0.0150	0.0103	31.6383	7.5042	5.5494	-0.4722	-0.5141	-0.5648	0.4401
3.58	-9.4976	-0.1147	-1.5778	0.0107	-0.0154	0.0119	31.7922	7.5637	5.5822	-0.4722	-0.5142	-0.5648	0.4401
3.59	-9.5086	-0.1186	-1.5922	0.0096	-0.0158	0.0075	31.7009	7.5995	5.4570	-0.4722	-0.5142	-0.5647	0.4401
3.6	-9.5078	-0.1095	-1.5813	0.0114	-0.0112	0.0061	31.8642	7.5917	5.7781	-0.4722	-0.5143	-0.5647	0.4402
3.61	-9.5106	-0.1261	-1.5874	0.0049	-0.0076	0.0085	31.6102	7.7128	5.7178	-0.4721	-0.5143	-0.5647	0.4401
3.62	-9.5111	-0.1414	-1.5983	0.0014	-0.0160	0.0035	31.6091	7.5911	5.4537	-0.4722	-0.5143	-0.5647	0.4402
3.63	-9.5153	-0.1507	-1.6017	0.0012	-0.0193	0.0062	31.7803	7.5799	5.7335	-0.4721	-0.5142	-0.5646	0.4402
3.64	-9.5043	-0.1551	-1.6124	0.0036	-0.0117	0.0040	31.6782	7.7121	5.7553	-0.4721	-0.5143	-0.5647	0.4402
3.65	-9.5055	-0.1576	-1.6108	-0.0003	-0.0115	0.0027	31.8528	7.6128	5.4816	-0.4721	-0.5143	-0.5647	0.4402
3.66	-9.5223	-0.1638	-1.6204	-0.0009	-0.0130	0.0100	31.6467	7.5290	5.6080	-0.4721	-0.5142	-0.5647	0.4401
3.67	-9.5210	-0.1530	-1.6335	0.0051	-0.0081	0.0035	31.6932	7.4526	5.6058	-0.4721	-0.5143	-0.5647	0.4402
3.68	-9.5148	-0.1455	-1.6346	0.0051	-0.0075	0.0067	31.6966	7.7569	5.6003	-0.4721	-0.5143	-0.5647	0.4402
3.69	-9.5209	-0.1180	-1.6362	-0.0013	-0.0056	0.0091	31.7135	7.8061	5.5857	-0.4721	-0.5144	-0.5647	0.4402
3.7	-9.5096	-0.1125	-1.6416	-0.0030	-0.0125	0.0044	31.6654	7.6720	5.6842	-0.4720	-0.5143	-0.5647	0.4401
3.71	-9.5150	-0.1122	-1.6323	-0.0011	-0.0117	0.0023	31.5617	7.6124	5.6990	-0.4721	-0.5143	-0.5647	0.4401
3.72	-9.5109	-0.1003	-1.6239	-0.0004	-0.0124	0.0057	31.6949	7.6819	5.8288	-0.4721	-0.5143	-0.5647	0.4401
3.73	-9.5033	-0.0942	-1.6235	-0.0015	-0.0151	0.0051	31.6211	7.7216	5.6098	-0.4720	-0.5143	-0.5647	0.4401
3.74	-9.5153	-0.0962	-1.6266	-0.0030	-0.0232	0.0071	31.7716	7.5635	5.5853	-0.4721	-0.5143	-0.5647	0.4401
3.75	-9.5055	-0.0923	-1.6106	0.0001	-0.0188	0.0079	31.7137	7.6985	5.6281	-0.4721	-0.5143	-0.5647	0.4401
3.76	-9.5066	-0.0946	-1.6185	0.0048	-0.0172	0.0055	31.9674	7.4928	5.5407	-0.4721	-0.5143	-0.5647	0.4402
3.77	-9.5140	-0.0947	-1.6203	-0.0002	-0.0190	0.0053	31.6306	7.5155	5.5030	-0.4721	-0.5142	-0.5646	0.4401
3.78	-9.5041	-0.0962	-1.6079	0.0088	-0.0134	0.0054	31.6011	7.4994	5.6270	-0.4721	-0.5143	-0.5647	0.4402
3.79	-9.5143	-0.0879	-1.6143	0.0062	-0.0154	0.0117	31.7834	7.5048	5.5948	-0.4721	-0.5143	-0.5646	0.4402
3.8	-9.5192	-0.0861	-1.6100	0.0038	-0.0120	0.0085	31.7275	7.5523	5.6134	-0.4721	-0.5143	-0.5646	0.4402
3.81	-9.5065	-0.0777	-1.6032	0.0005	-0.0181	0.0053	31.6578	7.7111	5.5879	-0.4721	-0.5143	-0.5646	0.4402
3.82	-9.5143	-0.0683	-1.6008	-0.0038	-0.0163	0.0063	31.6606	7.6173	5.6189	-0.4721	-0.5143	-0.5646	0.4402
3.83	-9.5127	-0.0627	-1.5986	-0.0006	-0.0181	0.0005	31.6378	7.5999	5.7484	-0.4721	-0.5143	-0.5646	0.4402
3.84	-9.5061	-0.0603	-1.5887	0.0001	-0.0109	0.0073	31.7394	7.4969	5.5024	-0.4721	-0.5143	-0.5646	0.4402
3.85	-9.5099	-0.0622	-1.5848	0.0001	-0.0125	0.0087	31.8286	7.5346	5.5326	-0.4722	-0.5143	-0.5646	0.4402
3.86	-9.5064	-0.0529	-1.5963	0.0002	-0.0091	0.0074	31.5657	7.7160	5.6338	-0.4721	-0.5143	-0.5646	0.4402
3.87	-9.5169	-0.0512	-1.6058	0.0016	-0.0084	0.0092	31.8255	7.6472	5.7939	-0.4722	-0.5144	-0.5647	0.4402
3.88	-9.5082	-0.0489	-1.6034	-0.0034	-0.0116	0.0050	31.7295	7.6926	5.6697	-0.4721	-0.5143	-0.5646	0.4401
3.89	-9.5123	-0.0704	-1.6111	-0.0017	-0.0076	0.0065	31.7361	7.6468	5.7190	-0.4721	-0.5143	-0.5646	0.4402
3.9	-9.5265	-0.0893	-1.6081	-0.0031	-0.0098	0.0029	31.5587	7.5472	5.7923	-0.4721	-0.5143	-0.5647	0.4401
3.91	-9.5135	-0.1072	-1.6041	-0.0029	-0.0138	0.0034	31.6530	7.6816	5.7785	-0.4721	-0.5143	-0.5646	0.4401
3.92	-9.5095	-0.1352	-1.6333	-0.0076	-0.0074	0.0011	31.6474	7.6531	5.6622	-0.4721	-0.5144	-0.5648	0.4401
3.93	-9.5121	-0.1517	-1.6137	-0.0036	-0.0159	0.0071	31.5650	7.7101	5.7226	-0.4721	-0.5143	-0.5647	0.4401
3.94	-9.5218	-0.1586	-1.6239	0.0013	-0.0136	0.0076	31.7577	7.7462	5.5606	-0.4722	-0.5143	-0.5647	0.4401
3.95	-9.5168	-0.1545	-1.6301	0.0004	-0.0113	0.0058	31.7290	7.4675	5.4064	-0.4721	-0.5143	-0.5647	0.4401
3.96	-9.5168	-0.1522	-1.6289	0.0057	-0.0115	0.0073	31.7554	7.4380	5.5516	-0.4721	-0.5143	-0.5647	0.4401
3.97	-9.5118	-0.1469	-1.6227	-0.0054	-0.0059	0.0104	31.7223	7.5454	5.5013	-0.4721	-0.5143	-0.5647	0.4401
3.98	-9.5139	-0.1501	-1.6119	-0.0010	-0.0106	0.0068	31.7745	7.4133	5.5384	-0.4721	-0.5143	-0.5647	0.4400
3.99	-9.5022	-0.1358	-1.6196	-0.0010	-0.0136	0.0065	31.6130	7.5963	5.4080	-0.4721	-0.5144	-0.5647	0.4400
4	-9.5123	-0.1236	-1.6149	-0.0020	-0.0113	0.0068	31.6294	7.6030	5.5682	-0.4721	-0.5143	-0.5647	0.4400
4.01	-9.5081	-0.1120	-1.6102	-0.0030	-0.0089	0.0091	31.7901	7.5487	5.6467	-0.4721	-0.5144	-0.5648	0.4400
4.02	-9.5050	-0.1108	-1.6041	0.0013	-0.0075	0.0121	31.6706	7.7700	5.8693	-0.4721	-0.5144	-0.5647	0.4399
4.03	-9.5145	-0.1141	-1.5966	0.0057	-0.0087	0.0050	32.1764	7.8362	5.8677	-0.4721	-0.5144	-0.5648	0.4400
4.04	-9.5156	-0.1098	-1.6100	-0.0005	-0.0084	0.0035	32.1885	7.6064	5.7160	-0.4721	-0.5144	-0.5648	0.4400
4.05	-9.5102	-0.1010	-1.6041	0.0005	-0.0048	0.0033	31.8984	7.6944	5.8311	-0.4720	-0.5144	-0.5648	0.4400
4.06	-9.5169	-0.1056	-1.6042	-0.0065	-0.0096	0.0029	31.7469	7.6588	5.7542	-0.4720	-0.5144	-0.5648	0.4399
4.07	-9.5013	-0.0861	-1.5924	-0.0047	-0.0091	0.0046	31.6006	7.5325	5.7031	-0.4720	-0.5144	-0.5648	0.4399
4.08	-9.5034	-0.0884	-1.5936	-0.0009	-0.0074	0.0076	31.7382	7.4865	5.6568	-0.4720	-0.5144	-0.5649	0.4399
4.09	-9.5233	-0.0910	-1.6113	-0.0013	-0.0083	0.0037	31.8898	7.7923	5.5928	-0.4720	-0.5144	-0.5648	0.4398
4.1	-9.4898	-0.0912	-1.5824	-0.0021	-0.0136	0.0023	31.7773	7.5912	5.6327	-0.4720	-0.5144	-0.5649	0.4399
4.11	-9.5073	-0.0915	-1.6073	0.0013	-0.0087	0.0086	31.9235	7.6411	5.6075	-0.4720	-0.5144	-0.5649	0.4398
4.12	-9.5154	-0.0880	-1.6014	-0.0030	-0.0133	0.0106	31.7884	7.8185	5.6235	-0.4720	-0.5145	-0.5649	0.4399
4.13	-9.5025	-0.0890	-1.5916	0.0032	-0.0154	0.0120	31.7941	7.4528	5.6070	-0.4720	-0.5144	-0.5648	0.4398
4.14	-9.5189	-0.0946	-1.6095	0.0007	-0.0185	0.0082	31.8934	7.5093	5.6468	-0.4720	-0.5145	-0.5648	0.4398
4.15	-9.5118	-0.0851	-1.6091	-0.0000	-0.0110	0.0087	32.0300	7.4944	5.5662	-0.4720	-0.5145	-0.5648	0.4398
4.16	-9.5112	-0.0797	-1.6129	-0.0006	-0.0136	0.0040	31.9900	7.4991	5.5184	-0.4720	-0.5144	-0.5648	0.4398
4.17	-9.5189	-0.0768	-1.6307	-0.0040	-0.0103	0.0032	31.7408	7.4955	5.6400	-0.4721	-0.5145	-0.5649	0.4398
4.18	-9.5100	-0.0969	-1.6256	0.0000	-0.0120	0.0045	31.8604	7.4879	5.4794	-0.4720	-0.5144	-0.5649	0.4398
4.19	-9.5192	-0.0989	-1.6266	0.0005	-0.0081	0.0048	32.0681	7.5205	5.6295	-0.4720	-0.5145	-0.5649	0.4398
4.2	-9.5204	-0.1139	-1.6313	-0.0013	-0.0145	0.0035	31.8757	7.3977	5.6217	-0.4720	-0.5144	-0.5649	0.4398
4.21	-9.5262	-0.1156	-1.6267	-0.0024	-0.0196	0.0096	31.6503	7.4293	5.5206	-0.4721	-0.5145	-0.5649	0.4398
4.22	-9.5129	-0.1208	-1.6318	-0.0037	-0.0163	0.0078	31.8090	7.6832	5.5251	-0.4721	-0.5144	-0.5649	0.4398
4.23	-9.5049	-0.1128	-1.6270	-0.0017	-0.0181	0.0038	31.7001	7.6147	5.5421	-0.4721	-0.5144	-0.5649	0.4398
4.24	-9.5004	-0.1087	-1.6218	-0.0025	-0.0107	0.0096	31.8276	7.8864	5.4923	-0.4721	-0.5144	-0.5649	0.4398
4.25	-9.5054	-0.1207	-1.6175	-0.0017	-0.0153	0.0062	31.8444	7.6166	5.6013	-0.4721	-0.5144	-0.5649	0.4398
4.26	-9.5132	-0.1219	-1.6244	-0.0030	-0.0070	0.0034	31.6038	7.6194	5.7532	-0.4721	-0.5144	-0.5649	0.4398
4.27	-9.5125	-0.1118	-1.6131	0.0019	-0.0078	0.0078	31.6357	7.6661	5.5968	-0.4720	-0.5144	-0.5649	0.4397
4.28	-9.5139	-0.1136	-1.6261	0.0014	-0.0088	0.0009	31.7314	7.5716	5.6142	-0.4721	-0.5145	-0.5649	0.4398
4.29	-9.5064	-0.1029	-1.6136	0.0015	-0.0098	0.0080	31.8378	7.5286	5.6430	-0.4720	-0.5144	-0.5649	0.4397
4.3	-9.5178	-0.1107	-1.6111	-0.0030	-0.0180	0.0080	31.9303	7.5332	5.5381	-0.4721	-0.5145	-0.5649	0.4398
4.31	-9.5049	-0.1054	-1.6125	-0.0039	-0.0138	0.0098	31.5699	7.6914	5.5298	-0.4721	-0.5144	-0.5649	0.4397
4.32	-9.5079	-0.0965	-1.6052	-0.0046	-0.0076	0.0044	31.8277	7.3991	5.6343	-0.4721	-0.5144	-0.5649	0.4397
4.33	-9.5133	-0.0856	-1.5974	-0.0023	-0.0081	0.0024	32.0023	7.4460	5.6467	-0.4721	-0.5144	-0.5650	0.4397
4.34	-9.5148	-0.0751	-1.6059	-0.0036	-0.0097	0.0059	31.9318	7.3115	5.5261	-0.4720	-0.5144	-0.5649	0.4396
4.35	-9.5154	-0.0795	-1.6017	-0.0019	-0.0108	0.0039	31.8812	7.4509	5.5718	-0.4721	-0.5145	-0.5650	0.4397
4.36	-9.4999	-0.0784	-1.5905	-0.0041	-0.0139	0.0069	31.8677	7.4876	5.4471	-0.4721	-0.5144	-0.5650	0.4396
4.37	-9.5148	-0.0598	-1.5954	0.0001	-0.0132	0.0076	31.8908	7.3526	5.5862	-0.4721	-0.5145	-0.5650	0.4397
4.38	-9.5052	-0.0562	-1.5785	-0.0027	-0.0093	0.0047	31.8512	7.5556	5.6390	-0.4721	-0.5144	-0.5650	0.4396
4.39	-9.5219	-0.0605	-1.5887	-0.0038	-0.0163	0.0064	31.9132	7.4098	5.5168	-0.4721	-0.5144	-0.5650	0.4396
4.4	-9.5062	-0.0575	-1.5875	0.0014	-0.0137	0.0093	31.9450	7.7161	5.5017	-0.4721	-0.5144	-0.5650	0.4396
4.41	-9.5109	-0.0613	-1.5816	0.0016	-0.0120	0.0056	31.7658	7.9020	5.3802	-0.4721	-0.5144	-0.5650	0.4396
4.42	-9.5158	-0.0774	-1.5911	-0.0025	-0.0060	0.0022	31.8217	7.4965	5.6849	-0.4721	-0.5145	-0.5651	0.4396
4.43	-9.5114	-0.0935	-1.5953	-0.0033	-0.0061	0.0032	31.7423	7.6400	5.6907	-0.4721	-0.5144	-0.5651	0.4396
4.44	-9.5175	-0.1117	-1.6017	-0.0041	-0.0102	0.0079	31.6986	7.8997	5.7525	-0.4721	-0.5144	-0.5651	0.4396
4.45	-9.5116	-0.1278	-1.5953	-0.0027	-0.0084	0.0061	31.7116	7.8417	5.8173	-0.4720	-0.5144	-0.5650	0.4395
4.46	-9.5196	-0.1292	-1.6030	-0.0023	-0.0081	0.0057	31.5057	7.5808	5.6287	-0.4721	-0.5144	-0.5651	0.4395
4.47	-9.5117	-0.1361	-1.6190	-0.0030	-0.0050	0.0042	31.7575	7.7484	5.6579	-0.4720	-0.5144	-0.5651	0.4395
4.48	-9.5020	-0.1343	-1.6296	-0.0018	-0.0072	0.0026	31.8092	7.6723	5.7217	-0.4720	-0.5144	-0.5651	0.4395
4.49	-9.5149	-0.1320	-1.6202	-0.0007	-0.0124	0.0086	31.7715	7.5713	5.6980	-0.4720	-0.5145	-0.5652	0.4395
4.5	-9.5145	-0.1266	-1.6131	-0.0030	-0.0126	0.0077	31.7032	7.4273	5.7048	-0.4720	-0.5144	-0.5651	0.4395
4.51	-9.5168	-0.1166	-1.6174	-0.0023	-0.0088	0.0059	31.9114	7.4521	5.5223	-0.4721	-0.5145	-0.5652	0.4395
4.52	-9.5188	-0.1249	-1.6235	-0.0032	-0.0083	0.0064	32.1192	7.5943	5.6060	-0.4720	-0.5144	-0.5651	0.4394
4.53	-9.5106	-0.1205	-1.6208	-0.0019	-0.0154	0.0052	32.2040	7.5928	5.9700	-0.4721	-0.5145	-0.5652	0.4394
4.54	-9.5176	-0.1207	-1.6279	-0.0035	-0.0108	0.0149	32.0166	7.5478	5.9540	-0.4721	-0.5144	-0.5652	0.4394
4.55	-9.5073	-0.1118	-1.6257	0.0025	-0.0075	0.0086	31.9710	7.5849	5.8314	-0.4721	-0.5145	-0.5652	0.4394
4.56	-9.5201	-0.1169	-1.6287	0.0008	-0.0131	0.0042	31.7759	7.5817	5.6539	-0.4720	-0.5145	-0.5652	0.4394
4.57	-9.5147	-0.1186	-1.6296	-0.0000	-0.0123	0.0046	31.7208	7.5111	5.4839	-0.4721	-0.5145	-0.5652	0.4394
4.58	-9.5047	-0.1307	-1.6301	0.0007	-0.0165	0.0058	31.6039	7.6309	5.5733	-0.4721	-0.5145	-0.5652	0.4394
4.59	-9.5173	-0.1366	-1.6330	-0.0023	-0.0206	0.0119	31.7227	7.4922	5.7082	-0.4721	-0.5144	-0.5651	0.4393
4.6	-9.5114	-0.1256	-1.6398	-0.0018	-0.0158	0.0099	31.9786	7.5130	5.8003	-0.4722	-0.5145	-0.5652	0.4394
4.61	-9.5171	-0.1187	-1.6340	-0.0014	-0.0110	0.0082	31.7261	7.5182	5.6489	-0.4721	-0.5145	-0.5651	0.4394
4.62	-9.5093	-0.1038	-1.6194	0.0061	-0.0188	0.0072	31.6233	7.6922	5.5304	-0.4722	-0.5145	-0.5652	0.4394
4.63	-9.5152	-0.0952	-1.6217	0.0017	-0.0130	0.0031	31.5677	7.5712	5.5066	-0.4721	-0.5144	-0.5651	0.4394
4.64	-9.5208	-0.0869	-1.6165	-0.0015	-0.0086	0.0060	31.7695	7.4934	5.6625	-0.4721	-0.5145	-0.5651	0.4394
4.65	-9.5185	-0.0805	-1.6172	-0.0033	-0.0091	0.0081	31.6598	7.5012	5.7250	-0.4721	-0.5145	-0.5651	0.4394
4.66	-9.5067	-0.0821	-1.6062	0.0038	-0.0061	0.0019	31.5624	7.5581	5.6149	-0.4721	-0.5145	-0.5651	0.4393
4.67	-9.5140	-0.0846	-1.6087	0.0006	-0.0095	0.0022	31.7942	7.7105	5.5972	-0.4721	-0.5145	-0.5652	0.4394
4.68	-9.5129	-0.0890	-1.6037	-0.0007	-0.0094	0.0024	31.7659	7.7526	5.6267	-0.4721	-0.5145	-0.5652	0.4394
4.69	-9.5071	-0.0861	-1.5877	0.0003	-0.0130	0.0125	31.7027	7.5643	5.5771	-0.4721	-0.5145	-0.5652	0.4394
4.7	-9.5083	-0.0874	-1.6060	0.0005	-0.0098	0.0118	31.6748	7.6871	5.7306	-0.4720	-0.5145	-0.5651	0.4393
4.71	-9.5143	-0.0872	-1.6005	0.0003	-0.0083	0.0079	31.6606	7.5438	5.6415	-0.4721	-0.5145	-0.5652	0.4393
4.72	-9.5097	-0.0818	-1.6014	-0.0044	-0.0110	0.0085	31.7575	7.6535	5.6652	-0.4721	-0.5145	-0.5652	0.4393
4.73	-9.5064	-0.0811	-1.5990	-0.0010	-0.0101	0.0040	31.9424	7.3602	5.6592	-0.4721	-0.5145	-0.5652	0.4393
4.74	-9.5155	-0.0801	-1.5956	-0.0026	-0.0112	0.0048	31.9243	7.3300	5.5107	-0.4721	-0.5145	-0.5652	0.4393
4.75	-9.5172	-0.0880	-1.5985	-0.0030	-0.0134	0.0087	31.9035	7.6047	5.7885	-0.4721	-0.5145	-0.5652	0.4393
4.76	-9.5067	-0.0819	-1.5952	-0.0019	-0.0121	0.0033	31.7705	7.7614	5.5827	-0.4721	-0.5145	-0.5652	0.4393
4.77	-9.5065	-0.0868	-1.6007	-0.0037	-0.0111	0.0079	31.7359	7.6748	5.7051	-0.4721	-0.5145	-0.5652	0.4392
4.78	-9.5077	-0.0959	-1.6113	-0.0047	-0.0086	0.0119	31.8917	7.6706	5.6929	-0.4721	-0.5146	-0.5652	0.4392
4.79	-9.5056	-0.0902	-1.6079	-0.0040	-0.0110	0.0040	31.8903	7.5108	5.7283	-0.4721	-0.5145	-0.5652	0.4392
4.8	-9.5178	-0.0893	-1.5980	-0.0004	-0.0126	0.0062	31.8077	7.3076	5.8990	-0.4721	-0.5145	-0.5652	0.4392
4.81	-9.5226	-0.0892	-1.6061	0.0022	-0.0121	0.0114	31.8653	7.4442	5.8684	-0.4721	-0.5145	-0.5652	0.4392
4.82	-9.5090	-0.0892	-1.6017	-0.0038	-0.0176	0.0056	31.5652	7.7568	5.7636	-0.4722	-0.5145	-0.5652	0.4392
4.83	-9.5118	-0.1015	-1.6005	-0.0017	-0.0098	0.0035	31.5227	7.7111	5.7792	-0.4722	-0.5145	-0.5652	0.4392
4.84	-9.5191	-0.1135	-1.6123	-0.0023	-0.0083	0.0065	31.7733	7.5667	5.8008	-0.4721	-0.5145	-0.5652	0.4391
4.85	-9.5134	-0.1111	-1.6104	0.0009	-0.0086	0.0070	31.7575	7.6138	5.6629	-0.4722	-0.5146	-0.5653	0.4392
4.86	-9.5081	-0.1066	-1.6072	-0.0038	-0.0088	0.0078	31.4839	7.5291	5.7566	-0.4721	-0.5145	-0.5653	0.4391
4.87	-9.5235	-0.1121	-1.6133	-0.0049	-0.0084	0.0096	31.6421	7.5256	5.7528	-0.4722	-0.5146	-0.5653	0.4391
4.88	-9.5211	-0.1105	-1.6100	-0.0015	-0.0147	0.0104	31.7885	7.7987	5.5615	-0.4721	-0.5145	-0.5652	0.4390
4.89	-9.5209	-0.1184	-1.6031	0.0027	-0.0171	0.0093	31.6294	7.6042	5.7737	-0.4722	-0.5146	-0.5652	0.4391
4.9	-9.5170	-0.1183	-1.6178	0.0018	-0.0144	0.0066	31.7556	7.7727	5.7422	-0.4722	-0.5146	-0.5652	0.4391
4.91	-9.5045	-0.1174	-1.6215	-0.0024	-0.0123	0.0097	32.0218	7.6184	5.6147	-0.4722	-0.5145	-0.5652	0.4390
4.92	-9.5142	-0.1288	-1.6261	-0.0004	-0.0121	0.0085	31.9936	7.4834	5.6064	-0.4722	-0.5146	-0.5653	0.4391
4.93	-9.5190	-0.1244	-1.6411	-0.0030	-0.0129	0.0113	31.6386	7.5227	5.6506	-0.4722	-0.5146	-0.5652	0.4390
4.94	-9.5168	-0.1365	-1.6375	-0.0025	-0.0112	0.0068	31.7715	7.4840	5.7311	-0.4723	-0.5146	-0.5652	0.4390
4.95	-9.5023	-0.1322	-1.6305	-0.0083	-0.0136	0.0117	31.6723	7.5920	5.6071	-0.4722	-0.5145	-0.5652	0.4390
4.96	-9.5174	-0.1311	-1.6313	-0.0011	-0.0105	0.0101	31.6929	7.6943	5.5904	-0.4723	-0.5146	-0.5652	0.4390
4.97	-9.5214	-0.1302	-1.6286	-0.0012	-0.0137	0.0059	31.6538	7.6337	5.6642	-0.4723	-0.5146	-0.5652	0.4390
4.98	-9.5118	-0.1239	-1.6177	-0.0068	-0.0154	0.0024	31.7727	7.4910	5.7129	-0.4723	-0.5145	-0.5652	0.4390
4.99	-9.5225	-0.1269	-1.6097	-0.0032	-0.0136	0.0087	31.6522	7.5997	5.6983	-0.4723	-0.5146	-0.5652	0.4390
5	-9.5132	-0.1184	-1.5934	-0.0016	-0.0116	0.0100	31.7209	7.6973	5.8059	-0.4723	-0.5145	-0.5652	0.4389
5.01	-9.5081	-0.1095	-1.5842	0.0007	-0.0131	0.0016	31.5604	7.4372	5.5690	-0.4723	-0.5146	-0.5652	0.4390
5.02	-9.5068	-0.1028	-1.5885	-0.0004	-0.0112	0.0000	31.9024	7.7794	5.7877	-0.4723	-0.5145	-0.5652	0.4389
5.03	-9.5057	-0.0953	-1.5777	-0.0080	-0.0093	0.0014	32.2152	7.8350	5.9023	-0.4723	-0.5145	-0.5653	0.4390
5.04	-9.5154	-0.1057	-1.5736	-0.0051	-0.0079	0.0055	31.9817	7.6043	5.6872	-0.4723	-0.5145	-0.5653	0.4389
5.05	-9.5053	-0.1001	-1.5701	-0.0044	-0.0097	0.0093	31.9131	7.6374	5.6097	-0.4723	-0.5145	-0.5653	0.4389
5.06	-9.5259	-0.1050	-1.5785	-0.0065	-0.0169	0.0085	31.5197	7.4508	5.6918	-0.4724	-0.5145	-0.5653	0.4389
5.07	-9.5160	-0.1014	-1.5850	-0.0025	-0.0194	0.0125	31.6193	7.5593	5.5708	-0.4724	-0.5145	-0.5653	0.4389
5.08	-9.5145	-0.0957	-1.5679	-0.0008	-0.0122	0.0071	31.7728	7.5504	5.6853	-0.4724	-0.5145	-0.5653	0.4389
5.09	-9.5136	-0.0923	-1.5709	0.0004	-0.0141	0.0068	31.8487	7.4069	5.7254	-0.4724	-0.5144	-0.5652	0.4388
5.1	-9.5231	-0.0800	-1.5745	-0.0053	-0.0122	0.0040	31.7835	7.4174	5.5940	-0.4725	-0.5145	-0.5653	0.4389
5.11	-9.5290	-0.0886	-1.5815	-0.0053	-0.0124	0.0087	31.8967	7.4404	5.6447	-0.4724	-0.5144	-0.5653	0.4388
5.12	-9.5169	-0.0910	-1.5743	-0.0025	-0.0113	0.0079	31.7897	7.5898	5.5558	-0.4725	-0.5145	-0.5653	0.4388
5.13	-9.5067	-0.1022	-1.5986	-0.0033	-0.0108	0.0048	31.7818	7.5869	5.4151	-0.4724	-0.5144	-0.5653	0.4388
5.14	-9.5080	-0.1092	-1.6075	-0.0011	-0.0086	0.0046	31.6716	7.4623	5.5824	-0.4725	-0.5144	-0.5653	0.4388
5.15	-9.5049	-0.1191	-1.6094	-0.0019	-0.0117	0.0041	31.5812	7.5596	5.4378	-0.4725	-0.5144	-0.5653	0.4388
5.16	-9.5117	-0.1126	-1.6139	-0.0026	-0.0169	0.0094	31.7656	7.5858	5.5008	-0.4725	-0.5144	-0.5653	0.4388
5.17	-9.5152	-0.1063	-1.6268	-0.0024	-0.0053	0.0050	31.8916	7.6782	5.7405	-0.4725	-0.5145	-0.5654	0.4388
5.18	-9.5207	-0.1146	-1.6234	-0.0026	-0.0086	0.0040	31.6881	7.6576	5.5357	-0.4725	-0.5144	-0.5654	0.4387
5.19	-9.5096	-0.1110	-1.6312	-0.0026	-0.0078	0.0041	31.5519	7.6773	5.5209	-0.4725	-0.5145	-0.5654	0.4388
5.2	-9.5055	-0.1048	-1.6359	-0.0023	-0.0065	-0.0011	31.5138	7.5648	5.4577	-0.4724	-0.5144	-0.5654	0.4387
5.21	-9.5071	-0.1101	-1.6349	-0.0025	-0.0070	0.0056	31.6999	7.7021	5.2761	-0.4724	-0.5144	-0.5655	0.4387
5.22	-9.5108	-0.1176	-1.6349	0.0010	-0.0112	0.0080	31.6361	7.5998	5.3238	-0.4724	-0.5144	-0.5654	0.4387
5.23	-9.5100	-0.1064	-1.6289	-0.0075	-0.0119	0.0022	31.4342	7.6136	5.6193	-0.4724	-0.5144	-0.5654	0.4387
5.24	-9.5154	-0.1090	-1.6300	-0.0035	-0.0128	0.0097	31.4617	7.7934	5.6117	-0.4725	-0.5144	-0.5655	0.4387
5.25	-9.5221	-0.1171	-1.6246	-0.0012	-0.0175	0.0112	31.4780	7.6658	5.5722	-0.4725	-0.5144	-0.5654	0.4387
5.26	-9.5160	-0.1106	-1.6272	0.0046	-0.0136	0.0087	31.7914	7.3188	5.5146	-0.4725	-0.5144	-0.5654	0.4387
5.27	-9.5146	-0.1179	-1.6057	0.0064	-0.0177	0.0074	31.7666	7.4130	5.5426	-0.4724	-0.5144	-0.5653	0.4387
5.28	-9.5106	-0.1076	-1.6173	-0.0019	-0.0135	0.0062	31.9003	7.4361	5.5320	-0.4725	-0.5144	-0.5654	0.4387
5.29	-9.5088	-0.1114	-1.6151	-0.0032	-0.0144	0.0029	31.8049	7.5477	5.5155	-0.4725	-0.5144	-0.5654	0.4387
5.3	-9.5091	-0.1127	-1.6023	-0.0018	-0.0128	0.0038	31.7910	7.6363	5.3191	-0.4725	-0.5144	-0.5654	0.4387
5.31	-9.5126	-0.1137	-1.6255	-0.0023	-0.0151	0.0031	31.6963	7.3551	5.4761	-0.4725	-0.5144	-0.5654	0.4387
5.32	-9.5117	-0.1146	-1.6188	-0.0014	-0.0102	0.0049	31.6028	7.5038	5.5215	-0.4725	-0.5144	-0.5654	0.4387
5.33	-9.5095	-0.1149	-1.6059	-0.0032	-0.0110	0.0045	31.8079	7.5652	5.5828	-0.4725	-0.5144	-0.5654	0.4387
5.34	-9.5135	-0.1124	-1.6083	0.0012	-0.0160	0.0099	31.6866	7.4463	5.6412	-0.4725	-0.5143	-0.5654	0.4387
5.35	-9.5079	-0.1140	-1.6089	0.0033	-0.0119	0.0067	31.7171	7.8210	5.4881	-0.4726	-0.5144	-0.5654	0.4387
5.36	-9.5160	-0.1097	-1.6117	-0.0011	-0.0076	0.0045	31.6629	7.9676	5.5482	-0.4725	-0.5144	-0.5654	0.4387
5.37	-9.5202	-0.1016	-1.6120	0.0003	-0.0071	0.0006	31.5861	7.7668	5.6672	-0.4725	-0.5144	-0.5655	0.4387
5.38	-9.5101	-0.0944	-1.6207	-0.0034	-0.0082	0.0015	31.7292	7.6649	5.3814	-0.4724	-0.5143	-0.5654	0.4387
5.39	-9.5057	-0.0969	-1.6075	0.0014	-0.0085	-0.0008	31.5736	7.6307	5.3945	-0.4724	-0.5144	-0.5655	0.4387
5.4	-9.5201	-0.1031	-1.6071	0.0001	-0.0076	-0.0005	31.5337	7.5812	5.5687	-0.4724	-0.5144	-0.5655	0.4387
5.41	-9.5096	-0.1144	-1.6056	0.0005	-0.0129	0.0086	31.5359	7.4895	5.4976	-0.4724	-0.5143	-0.5655	0.4387
5.42	-9.5066	-0.1026	-1.5977	0.0009	-0.0078	0.0046	31.6380	7.6098	5.6326	-0.4724	-0.5144	-0.5656	0.4387
5.43	-9.5120	-0.1116	-1.6116	-0.0020	-0.0128	0.0066	31.4733	7.6454	5.6075	-0.4724	-0.5143	-0.5655	0.4387
5.44	-9.5126	-0.1167	-1.6056	-0.0025	-0.0171	0.0101	31.6995	7.5482	5.5722	-0.4725	-0.5144	-0.5655	0.4387
5.45	-9.5199	-0.0997	-1.6039	-0.0031	-0.0090	0.0075	32.0666	7.6128	5.4134	-0.4724	-0.5143	-0.5655	0.4386
5.46	-9.5194	-0.0989	-1.6192	-0.0027	-0.0076	0.0028	31.8959	7.5655	5.5827	-0.4725	-0.5144	-0.5655	0.4387
5.47	-9.5119	-0.1065	-1.6169	-0.0029	-0.0084	0.0063	31.6868	7.2906	5.4596	-0.4724	-0.5143	-0.5655	0.4386
5.48	-9.5050	-0.0983	-1.6137	-0.0018	-0.0079	0.0083	31.7765	7.4958	5.4545	-0.4724	-0.5143	-0.5655	0.4386
5.49	-9.5084	-0.1028	-1.6244	-0.0008	-0.0082	0.0064	31.8723	7.5023	5.3307	-0.4724	-0.5144	-0.5656	0.4386
5.5	-9.5089	-0.1118	-1.6192	-0.0027	-0.0077	0.0040	31.7643	7.5192	5.3972	-0.4724	-0.5144	-0.5656	0.4386
5.51	-9.5093	-0.1140	-1.6157	-0.0025	-0.0092	0.0076	31.5932	7.4428	5.4655	-0.4724	-0.5144	-0.5656	0.4386
5.52	-9.5129	-0.1193	-1.6205	-0.0024	-0.0072	0.0049	31.8336	7.7713	5.8117	-0.4724	-0.5143	-0.5656	0.4385
5.53	-9.5020	-0.1237	-1.6262	0.0007	-0.0086	0.0054	32.1681	7.7271	5.7616	-0.4724	-0.5144	-0.5656	0.4386
5.54	-9.5157	-0.1222	-1.6207	0.0030	-0.0138	0.0079	32.0369	7.5344	5.5669	-0.4724	-0.5144	-0.5656	0.4386
5.55	-9.5090	-0.1235	-1.6144	-0.0052	-0.0129	0.0071	31.8869	7.6235	5.7342	-0.4724	-0.5144	-0.5656	0.4386
5.56	-9.5097	-0.1071	-1.6253	-0.0036	-0.0075	0.0025	31.6877	7.6690	5.6324	-0.4724	-0.5143	-0.5656	0.4385
5.57	-9.5181	-0.1023	-1.6186	-0.0014	-0.0117	0.0081	31.6116	7.7646	5.5952	-0.4724	-0.5144	-0.5656	0.4385
5.58	-9.5094	-0.0950	-1.6068	0.0022	-0.0111	0.0063	31.7588	7.5500	5.5837	-0.4724	-0.5144	-0.5656	0.4385
5.59	-9.5042	-0.0859	-1.6089	-0.0024	-0.0080	0.0049	31.6928	7.6693	5.6903	-0.4724	-0.5143	-0.5656	0.4385
5.6	-9.5093	-0.0788	-1.6172	-0.0062	-0.0135	0.0023	31.5422	7.6451	5.6787	-0.4725	-0.5144	-0.5657	0.4385
5.61	-9.5075	-0.0965	-1.6133	0.0036	-0.0106	0.0086	31.5417	7.5410	5.4038	-0.4724	-0.5143	-0.5657	0.4385
5.62	-9.5103	-0.1028	-1.5974	0.0010	-0.0159	0.0114	31.6620	7.6380	5.4887	-0.4725	-0.5144	-0.5657	0.4385
5.63	-9.5234	-0.1153	-1.6088	-0.0017	-0.0112	0.0032	31.7720	7.7635	5.6058	-0.4724	-0.5143	-0.5656	0.4385
5.64	-9.5267	-0.1182	-1.6048	-0.0006	-0.0127	0.0100	31.8201	7.7184	5.7181	-0.4725	-0.5144	-0.5656	0.4385
5.65	-9.5195	-0.1226	-1.5976	-0.0044	-0.0163	0.0077	31.9019	7.4649	5.4559	-0.4725	-0.5144	-0.5656	0.4385
5.66	-9.5091	-0.1064	-1.5979	-0.0028	-0.0101	0.0041	31.8603	7.5873	5.4715	-0.4725	-0.5143	-0.5656	0.4385
5.67	-9.5112	-0.1122	-1.5984	0.0032	-0.0075	0.0086	31.7329	7.6573	5.7483	-0.4725	-0.5144	-0.5657	0.4385
5.68	-9.5028	-0.1086	-1.6042	-0.0029	-0.0115	0.0037	31.6193	7.5549	5.6256	-0.4725	-0.5143	-0.5656	0.4385
5.69	-9.5018	-0.1155	-1.5981	-0.0030	-0.0140	0.0065	31.5942	7.5797	5.5949	-0.4725	-0.5144	-0.5657	0.4385
5.7	-9.5034	-0.1135	-1.6081	0.0004	-0.0107	0.0103	31.5692	7.5789	5.5896	-0.4725	-0.5143	-0.5656	0.4384
5.71	-9.5217	-0.1065	-1.6081	0.0011	-0.0147	0.0104	31.7422	7.5590	5.7326	-0.4725	-0.5144	-0.5656	0.4385
5.72	-9.5164	-0.1145	-1.6112	-0.0032	-0.0121	0.0099	31.6677	7.4689	5.7923	-0.4725	-0.5144	-0.5656	0.4384
5.73	-9.5044	-0.1150	-1.6256	-0.0046	-0.0062	0.0106	31.5355	7.5056	5.7699	-0.4725	-0.5144	-0.5656	0.4384
5.74	-9.5009	-0.1139	-1.6294	-0.0042	-0.0063	0.0079	31.7902	7.4768	5.7830	-0.4725	-0.5144	-0.5657	0.4384
5.75	-9.5146	-0.1175	-1.6283	-0.0012	-0.0099	0.0056	31.6153	7.7719	5.6425	-0.4725	-0.5144	-0.5657	0.4383
5.76	-9.5090	-0.1125	-1.6273	-0.0069	-0.0089	0.0074	31.7466	7.6250	5.7369	-0.4726	-0.5144	-0.5657	0.4383
5.77	-9.5060	-0.1148	-1.6293	0.0005	-0.0071	0.0095	31.7576	7.5401	5.5042	-0.4725	-0.5144	-0.5656	0.4383
5.78	-9.5087	-0.1114	-1.6265	-0.0022	-0.0090	0.0070	31.7546	7.7175	5.4126	-0.4726	-0.5144	-0.5657	0.4383
5.79	-9.5082	-0.1165	-1.6273	-0.0057	-0.0126	0.0047	31.7482	7.5817	5.7424	-0.4726	-0.5144	-0.5657	0.4383
5.8	-9.5108	-0.1230	-1.6236	-0.0031	-0.0152	0.0076	31.5150	7.6277	5.5247	-0.4726	-0.5144	-0.5657	0.4383
5.81	-9.5035	-0.1146	-1.6131	-0.0045	-0.0178	0.0109	31.4385	7.7590	5.4815	-0.4726	-0.5143	-0.5657	0.4383
5.82	-9.4997	-0.1054	-1.6099	-0.0008	-0.0149	0.0067	31.6243	7.6074	5.7819	-0.4726	-0.5144	-0.5657	0.4383
5.83	-9.5062	-0.0867	-1.6019	-0.0016	-0.0136	0.0027	31.7762	7.5510	5.5355	-0.4726	-0.5143	-0.5657	0.4383
5.84	-9.5176	-0.0883	-1.5956	0.0026	-0.0083	0.0101	31.9428	7.6858	5.5133	-0.4726	-0.5143	-0.5656	0.4382
5.85	-9.5084	-0.0810	-1.5940	0.0010	-0.0112	0.0046	31.7202	7.4491	5.6002	-0.4727	-0.5144	-0.5657	0.4383
5.86	-9.5080	-0.0747	-1.5938	-0.0008	-0.0136	0.0016	31.8998	7.4201	5.5163	-0.4726	-0.5143	-0.5657	0.4383
5.87	-9.5011	-0.0764	-1.5953	0.0037	-0.0149	0.0058	31.7293	7.6014	5.7217	-0.4727	-0.5144	-0.5657	0.4383
5.88	-9.5134	-0.0753	-1.6072	0.0024	-0.0129	0.0031	31.8491	7.5495	5.5200	-0.4726	-0.5143	-0.5656	0.4383
5.89	-9.5126	-0.0837	-1.6101	-0.0036	-0.0158	0.0062	31.9311	7.7445	5.3591	-0.4726	-0.5143	-0.5657	0.4383
5.9	-9.5254	-0.0921	-1.6066	0.0028	-0.0169	0.0123	31.9191	7.5057	5.5806	-0.4727	-0.5143	-0.5656	0.4383
5.91	-9.5203	-0.0954	-1.6030	0.0056	-0.0115	0.0048	31.8625	7.6353	5.5404	-0.4726	-0.5143	-0.5656	0.4383
5.92	-9.5093	-0.0933	-1.5942	-0.0056	-0.0098	0.0017	31.6342	7.7613	5.4064	-0.4727	-0.5144	-0.5657	0.4384
5.93	-9.5187	-0.1003	-1.6031	-0.0057	-0.0167	0.0058	31.7117	7.6256	5.6744	-0.4727	-0.5143	-0.5656	0.4383
5.94	-9.5119	-0.1059	-1.6136	-0.0094	-0.0084	0.0022	31.5859	7.6639	5.5355	-0.4727	-0.5143	-0.5657	0.4383
5.95	-9.5041	-0.1052	-1.6327	-0.0074	-0.0127	0.0069	31.6703	7.7332	5.7330	-0.4727	-0.5142	-0.5657	0.4382
5.96	-9.4973	-0.1128	-1.6369	-0.0013	-0.0163	0.0035	31.7640	7.7493	5.6209	-0.4727	-0.5142	-0.5657	0.4383
5.97	-9.5093	-0.1056	-1.6365	-0.0048	-0.0078	0.0022	31.7667	7.5834	5.4931	-0.4727	-0.5142	-0.5657	0.4383
5.98	-9.5066	-0.1137	-1.6341	0.0001	-0.0143	0.0063	31.6761	7.5703	5.7946	-0.4727	-0.5142	-0.5657	0.4383
5.99	-9.5059	-0.1202	-1.6326	0.0008	-0.0170	0.0088	31.6628	7.6644	5.7663	-0.4728	-0.5142	-0.5657	0.4383
6	-9.5037	-0.1182	-1.6255	-0.0029	-0.0110	0.0083	31.7863	7.5470	5.7831	-0.4728	-0.5142	-0.5657	0.4383
6.01	-9.5140	-0.1071	-1.6275	-0.0036	-0.0129	0.0093	31.7019	7.6045	5.7720	-0.4728	-0.5142	-0.5657	0.4383
6.02	-9.5073	-0.0993	-1.6238	-0.0005	-0.0125	0.0098	31.9616	7.5318	5.7872	-0.4728	-0.5142	-0.5656	0.4382
6.03	-9.5152	-0.0961	-1.6237	-0.0030	-0.0114	0.0064	32.4285	7.9654	5.7741	-0.4728	-0.5142	-0.5657	0.4383
6.04	-9.5214	-0.0932	-1.6172	-0.0035	-0.0081	0.0067	32.2796	7.9326	5.7923	-0.4728	-0.5142	-0.5657	0.4382
6.05	-9.5024	-0.0907	-1.6076	0.0015	-0.0120	0.0067	31.8637	7.4383	5.8351	-0.4728	-0.5142	-0.5657	0.4382
6.06	-9.5149	-0.0960	-1.6036	-0.0017	-0.0095	0.0052	31.6784	7.4405	5.5725	-0.4728	-0.5142	-0.5657	0.4382
6.07	-9.5080	-0.1044	-1.6012	-0.0023	-0.0101	0.0045	31.5518	7.5785	5.3846	-0.4728	-0.5142	-0.5657	0.4382
6.08	-9.5181	-0.1052	-1.6089	-0.0038	-0.0166	0.0040	31.7814	7.5809	5.5374	-0.4728	-0.5142	-0.5657	0.4382
6.09	-9.5223	-0.1221	-1.6033	0.0065	-0.0117	0.0085	31.8133	7.4053	5.5224	-0.4728	-0.5142	-0.5657	0.4382
6.1	-9.5059	-0.1110	-1.6148	0.0014	-0.0132	0.0065	31.6074	7.6526	5.5712	-0.4728	-0.5142	-0.5657	0.4383
6.11	-9.5102	-0.1045	-1.6095	-0.0029	-0.0126	0.0014	31.6436	7.6937	5.5735	-0.4728	-0.5142	-0.5657	0.4382
6.12	-9.5143	-0.1093	-1.6125	0.0046	-0.0144	0.0068	31.6541	7.6788	5.3028	-0.4728	-0.5142	-0.5657	0.4383
6.13	-9.5133	-0.0981	-1.6122	-0.0047	-0.0070	0.0054	31.5433	7.6877	5.5463	-0.4728	-0.5142	-0.5657	0.4382
6.14	-9.5092	-0.0990	-1.6160	-0.0016	-0.0093	0.0024	31.6813	7.7839	5.5348	-0.4728	-0.5142	-0.5657	0.4382
6.15	-9.4985	-0.0927	-1.6130	-0.0025	-0.0076	0.0027	31.8737	7.7664	5.6933	-0.4728	-0.5142	-0.5657	0.4382
6.16	-9.5105	-0.1013	-1.6083	-0.0045	-0.0068	0.0019	31.6110	7.7668	5.6720	-0.4727	-0.5141	-0.5657	0.4382
6.17	-9.5024	-0.1068	-1.6094	-0.0048	-0.0084	0.0050	31.4963	7.7689	5.4254	-0.4728	-0.5142	-0.5658	0.4382
6.18	-9.5096	-0.1069	-1.6177	-0.0014	-0.0063	0.0057	31.5363	7.6184	5.5735	-0.4728	-0.5141	-0.5658	0.4382
6.19	-9.5040	-0.1085	-1.6116	0.0009	-0.0130	0.0077	31.6738	7.6074	5.7175	-0.4728	-0.5142	-0.5658	0.4382
6.2	-9.5077	-0.0939	-1.6230	-0.0055	-0.0085	0.0063	31.8027	7.5282	5.4135	-0.4727	-0.5141	-0.5658	0.4381
6.21	-9.5198	-0.0991	-1.6188	-0.0061	-0.0119	0.0065	31.7356	7.4088	5.5544	-0.4728	-0.5141	-0.5658	0.4381
6.22	-9.5177	-0.0963	-1.6062	-0.0043	-0.0105	0.0044	31.7741	7.3141	5.5910	-0.4728	-0.5141	-0.5658	0.4381
6.23	-9.5132	-0.0961	-1.6098	-0.0042	-0.0179	0.0077	31.6978	7.4981	5.5919	-0.4728	-0.5141	-0.5658	0.4381
6.24	-9.5134	-0.1037	-1.6100	-0.0048	-0.0124	0.0035	31.7198	7.6355	5.3091	-0.4729	-0.5141	-0.5659	0.4381
6.25	-9.5191	-0.1102	-1.6118	-0.0091	-0.0106	0.0039	31.6440	7.4452	5.3930	-0.4729	-0.5141	-0.5659	0.4381
6.26	-9.5055	-0.1080	-1.6176	-0.0116	-0.0128	0.0066	31.7569	7.4750	5.5345	-0.4729	-0.5140	-0.5659	0.4381
6.27	-9.5032	-0.1153	-1.6138	-0.0064	-0.0102	0.0074	31.6916	7.6339	5.5239	-0.4729	-0.5140	-0.5659	0.4380
6.28	-9.5251	-0.1064	-1.6289	-0.0027	-0.0151	0.0101	31.7380	7.4726	5.5613	-0.4730	-0.5140	-0.5659	0.4380
6.29	-9.5129	-0.1014	-1.6212	-0.0074	-0.0131	0.0030	31.6942	7.6035	5.6330	-0.4730	-0.5140	-0.5659	0.4380
6.3	-9.5085	-0.1107	-1.6182	0.0023	-0.0115	0.0049	31.7455	7.7870	5.6291	-0.4730	-0.5140	-0.5659	0.4380
6.31	-9.5152	-0.1155	-1.6182	-0.0096	-0.0066	0.0012	31.6046	7.7589	5.4992	-0.4730	-0.5139	-0.5659	0.4380
6.32	-9.5170	-0.1139	-1.6128	-0.0044	-0.0066	0.0097	31.4568	7.7612	5.5747	-0.4730	-0.5140	-0.5660	0.4380
6.33	-9.5064	-0.1081	-1.6139	-0.0026	-0.0102	0.0024	31.6354	7.4053	5.7874	-0.4730	-0.5140	-0.5660	0.4380
6.34	-9.5149	-0.1137	-1.6235	-0.0053	-0.0158	0.0037	31.6455	7.5928	5.5296	-0.4730	-0.5139	-0.5660	0.4379
6.35	-9.5189	-0.1105	-1.6144	-0.0055	-0.0109	0.0016	31.5331	7.7948	5.3053	-0.4730	-0.5139	-0.5660	0.4380
6.36	-9.5046	-0.1087	-1.6071	-0.0038	-0.0081	0.0045	31.6031	7.6215	5.7113	-0.4730	-0.5139	-0.5660	0.4379
6.37	-9.5179	-0.1071	-1.6126	-0.0013	-0.0127	0.0114	31.6393	7.5441	5.5863	-0.4730	-0.5139	-0.5661	0.4380
6.38	-9.5185	-0.1055	-1.6027	-0.0012	-0.0156	0.0096	31.7152	7.4240	5.4188	-0.4730	-0.5139	-0.5660	0.4379
6.39	-9.5192	-0.1177	-1.6070	-0.0032	-0.0117	0.0072	31.9373	7.5559	5.5853	-0.4731	-0.5139	-0.5660	0.4379
6.4	-9.5142	-0.1049	-1.6053	-0.0007	-0.0085	0.0029	31.8020	7.4986	5.6704	-0.4730	-0.5139	-0.5660	0.4379
6.41	-9.5017	-0.1076	-1.6111	-0.0037	-0.0090	0.0050	31.7928	7.5996	5.4565	-0.4730	-0.5138	-0.5660	0.4379
6.42	-9.5129	-0.1149	-1.6076	-0.0030	-0.0088	0.0056	31.8948	7.6226	5.3468	-0.4731	-0.5139	-0.5661	0.4379
6.43	-9.5039	-0.1194	-1.6017	-0.0022	-0.0066	0.0090	31.8761	7.5844	5.5006	-0.4730	-0.5139	-0.5661	0.4379
6.44	-9.5127	-0.1167	-1.6052	-0.0043	-0.0111	0.0048	31.6792	7.6514	5.6067	-0.4731	-0.5139	-0.5661	0.4379
6.45	-9.5139	-0.1138	-1.6049	-0.0038	-0.0118	0.0045	31.8397	7.3995	5.6335	-0.4730	-0.5138	-0.5660	0.4378
6.46	-9.5142	-0.1164	-1.6031	-0.0024	-0.0099	0.0118	31.7157	7.4995	5.6289	-0.4731	-0.5139	-0.5661	0.4378
6.47	-9.5133	-0.1074	-1.6085	-0.0029	-0.0113	0.0102	31.6883	7.7714	5.5874	-0.4731	-0.5139	-0.5661	0.4378
6.48	-9.5186	-0.0974	-1.6077	-0.0030	-0.0076	0.0065	31.8689	7.5684	5.4297	-0.4731	-0.5139	-0.5661	0.4378
6.49	-9.5194	-0.0944	-1.5970	-0.0039	-0.0093	0.0062	31.5885	7.7174	5.5409	-0.4731	-0.5139	-0.5661	0.4378
6.5	-9.5131	-0.0938	-1.6041	-0.0037	-0.0079	0.0050	31.5326	7.6492	5.6613	-0.4731	-0.5139	-0.5661	0.4377
6.51	-9.5097	-0.0833	-1.6170	-0.0025	-0.0068	0.0032	31.4249	7.7505	5.7240	-0.4731	-0.5139	-0.5662	0.4377
6.52	-9.5103	-0.0910	-1.6215	-0.0029	-0.0067	0.0041	31.6216	7.7669	5.6618	-0.4730	-0.5138	-0.5661	0.4377
6.53	-9.5067	-0.0939	-1.6173	-0.0026	-0.0097	0.0038	31.9443	7.7816	5.9727	-0.4731	-0.5139	-0.5662	0.4377
6.54	-9.5150	-0.1052	-1.6129	-0.0045	-0.0090	0.0029	31.9066	7.7383	5.9012	-0.4731	-0.5138	-0.5662	0.4377
6.55	-9.5084	-0.1070	-1.6175	-0.0033	-0.0163	0.0072	31.8140	7.5879	5.7122	-0.4731	-0.5138	-0.5662	0.4377
6.56	-9.5166	-0.1144	-1.6146	-0.0014	-0.0185	0.0080	31.7263	7.7790	5.5479	-0.4731	-0.5138	-0.5662	0.4377
6.57	-9.5154	-0.1084	-1.6030	-0.0020	-0.0134	0.0111	31.6948	7.5819	5.4311	-0.4732	-0.5138	-0.5662	0.4377
6.58	-9.5231	-0.1090	-1.6117	-0.0029	-0.0098	0.0122	31.8266	7.4182	5.5686	-0.4732	-0.5138	-0.5662	0.4377
6.59	-9.5228	-0.1096	-1.6078	-0.0028	-0.0118	0.0109	31.8367	7.6799	5.1864	-0.4732	-0.5138	-0.5661	0.4376
6.6	-9.5096	-0.1091	-1.6015	-0.0022	-0.0115	0.0100	31.8297	7.6276	5.5503	-0.4732	-0.5139	-0.5662	0.4377
6.61	-9.5139	-0.1047	-1.6050	-0.0014	-0.0166	0.0088	31.6822	7.4244	5.7244	-0.4732	-0.5138	-0.5661	0.4376
6.62	-9.5192	-0.1058	-1.6111	0.0011	-0.0074	0.0107	31.6644	7.5658	5.5066	-0.4733	-0.5139	-0.5662	0.4377
6.63	-9.5149	-0.1022	-1.6007	0.0020	-0.0083	0.0095	31.6643	7.6481	5.5343	-0.4732	-0.5138	-0.5661	0.4376
6.64	-9.5087	-0.0955	-1.6073	-0.0027	-0.0104	0.0091	31.7860	7.5535	5.4130	-0.4732	-0.5139	-0.5661	0.4376
6.65	-9.5078	-0.0919	-1.6043	-0.0033	-0.0108	0.0040	31.8631	7.5784	5.4619	-0.4733	-0.5139	-0.5661	0.4376
6.66	-9.5225	-0.0927	-1.6036	0.0006	-0.0135	0.0113	31.7377	7.5586	5.4255	-0.4732	-0.5138	-0.5661	0.4376
6.67	-9.5137	-0.0848	-1.6158	0.0006	-0.0106	0.0076	31.8499	7.6692	5.4581	-0.4733	-0.5139	-0.5662	0.4376
6.68	-9.5019	-0.0801	-1.6141	-0.0020	-0.0074	0.0035	31.8071	7.6459	5.5510	-0.4733	-0.5139	-0.5661	0.4376
6.69	-9.5104	-0.0836	-1.6126	-0.0027	-0.0066	0.0003	31.6679	7.6555	5.5016	-0.4733	-0.5139	-0.5662	0.4376
6.7	-9.5136	-0.0991	-1.6062	-0.0002	-0.0127	0.0059	31.6612	7.6369	5.6221	-0.4732	-0.5138	-0.5661	0.4375
6.71	-9.5073	-0.1187	-1.6024	0.0031	-0.0111	0.0049	31.7652	7.7730	5.6061	-0.4732	-0.5139	-0.5662	0.4376
6.72	-9.5140	-0.1227	-1.6012	-0.0010	-0.0107	0.0013	31.7325	7.6704	5.6190	-0.4732	-0.5138	-0.5662	0.4376
6.73	-9.5017	-0.1372	-1.6084	-0.0049	-0.0153	0.0032	31.7639	7.6526	5.5981	-0.4732	-0.5138	-0.5662	0.4376
6.74	-9.5039	-0.1550	-1.6020	-0.0026	-0.0153	0.0072	31.6380	7.5567	5.7280	-0.4733	-0.5138	-0.5662	0.4376
6.75	-9.5232	-0.1550	-1.6146	0.0009	-0.0144	0.0103	31.7020	7.4528	5.5425	-0.4733	-0.5138	-0.5662	0.4376
6.76	-9.5154	-0.1444	-1.6156	0.0008	-0.0152	0.0066	31.7729	7.5387	5.5523	-0.4733	-0.5138	-0.5662	0.4376
6.77	-9.5033	-0.1145	-1.6131	-0.0032	-0.0091	0.0107	31.7267	7.6706	5.4158	-0.4733	-0.5138	-0.5661	0.4375
6.78	-9.5088	-0.0984	-1.6234	-0.0013	-0.0146	0.0084	31.7788	7.5316	5.4840	-0.4733	-0.5138	-0.5662	0.4376
6.79	-9.5064	-0.0851	-1.6122	0.0025	-0.0123	0.0071	31.9836	7.4793	5.5066	-0.4733	-0.5138	-0.5661	0.4376
6.8	-9.5081	-0.0750	-1.6109	-0.0018	-0.0138	0.0068	31.7537	7.4909	5.4166	-0.4734	-0.5138	-0.5661	0.4376
6.81	-9.5122	-0.0780	-1.6211	-0.0062	-0.0095	0.0103	31.7475	7.4862	5.5301	-0.4734	-0.5138	-0.5661	0.4375
6.82	-9.5170	-0.0955	-1.6194	-0.0063	-0.0073	0.0082	31.7362	7.4833	5.6941	-0.4734	-0.5138	-0.5661	0.4375
6.83	-9.5202	-0.1077	-1.6172	-0.0066	-0.0105	0.0069	31.5934	7.6739	5.4163	-0.4734	-0.5138	-0.5662	0.4375
6.84	-9.5190	-0.1041	-1.6214	-0.0009	-0.0116	0.0094	31.5912	7.5393	5.3177	-0.4734	-0.5137	-0.5661	0.4374
6.85	-9.5131	-0.1174	-1.6192	-0.0038	-0.0149	0.0109	31.5888	7.7036	5.4510	-0.4735	-0.5138	-0.5662	0.4375
6.86	-9.5218	-0.1019	-1.6269	-0.0059	-0.0130	0.0064	31.5967	7.6816	5.6174	-0.4735	-0.5138	-0.5661	0.4374
6.87	-9.5143	-0.0925	-1.6178	0.0062	-0.0077	0.0037	31.7698	7.6989	5.7411	-0.4735	-0.5138	-0.5662	0.4375
6.88	-9.5136	-0.1042	-1.6238	-0.0015	-0.0091	0.0051	31.6382	7.7528	5.5982	-0.4734	-0.5138	-0.5661	0.4374
6.89	-9.5146	-0.0968	-1.6229	-0.0038	-0.0144	0.0024	31.7050	7.5053	5.5961	-0.4734	-0.5138	-0.5662	0.4375
6.9	-9.5035	-0.0923	-1.6086	-0.0027	-0.0077	0.0048	31.9061	7.6229	5.5105	-0.4734	-0.5138	-0.5662	0.4375
6.91	-9.5099	-0.0905	-1.6167	-0.0037	-0.0161	0.0046	31.6428	7.4546	5.5318	-0.4734	-0.5137	-0.5661	0.4374
6.92	-9.5165	-0.0968	-1.6174	-0.0028	-0.0162	0.0045	31.7741	7.6066	5.5417	-0.4735	-0.5137	-0.5662	0.4375
6.93	-9.5009	-0.1043	-1.6211	-0.0048	-0.0099	0.0091	31.8449	7.6498	5.6225	-0.4735	-0.5137	-0.5662	0.4374
6.94	-9.5095	-0.1106	-1.6035	-0.0031	-0.0160	0.0110	31.8185	7.4721	5.4313	-0.4735	-0.5137	-0.5662	0.4375
6.95	-9.5126	-0.1138	-1.6177	-0.0050	-0.0109	0.0132	31.8413	7.5646	5.4475	-0.4735	-0.5137	-0.5661	0.4374
6.96	-9.5071	-0.1118	-1.6168	-0.0011	-0.0123	0.0066	31.9085	7.6982	5.5492	-0.4736	-0.5137	-0.5662	0.4374
6.97	-9.5054	-0.1183	-1.6088	-0.0042	-0.0160	0.0097	31.7780	7.5691	5.3370	-0.4736	-0.5137	-0.5661	0.4374
6.98	-9.5055	-0.1203	-1.6123	-0.0016	-0.0133	0.0073	31.6821	7.3608	5.4443	-0.4736	-0.5137	-0.5661	0.4374
6.99	-9.5172	-0.1221	-1.6145	-0.0055	-0.0165	0.0038	31.5756	7.6035	5.4323	-0.4736	-0.5137	-0.5662	0.4374
7	-9.5116	-0.1251	-1.6046	-0.0009	-0.0158	0.0083	31.7243	7.5404	5.3338	-0.4736	-0.5136	-0.5661	0.4374
7.01	-9.5237	-0.1253	-1.6067	-0.0008	-0.0132	0.0074	31.7813	7.6318	5.5819	-0.4737	-0.5137	-0.5661	0.4374
7.02	-9.5154	-0.1100	-1.6099	0.0042	-0.0118	0.0009	32.0377	7.6781	5.7238	-0.4736	-0.5136	-0.5661	0.4374
7.03	-9.5154	-0.1153	-1.6111	0.0005	-0.0165	0.0076	32.4097	7.5419	5.6999	-0.4737	-0.5137	-0.5661	0.4374
7.04	-9.5106	-0.1098	-1.6071	-0.0009	-0.0069	0.0017	32.2880	7.4951	5.6015	-0.4736	-0.5136	-0.5661	0.4374
7.05	-9.5050	-0.0936	-1.6180	-0.0078	-0.0092	-0.0024	31.8350	7.7038	5.7224	-0.4737	-0.5136	-0.5662	0.4374
7.06	-9.5079	-0.0965	-1.6173	-0.0085	-0.0126	0.0087	31.6409	7.6546	5.5390	-0.4737	-0.5136	-0.5662	0.4374
7.07	-9.5037	-0.0945	-1.6124	-0.0053	-0.0119	0.0048	31.5903	7.6807	5.6502	-0.4737	-0.5136	-0.5662	0.4374
7.08	-9.5093	-0.1011	-1.6189	-0.0073	-0.0116	0.0020	31.6897	7.7802	5.6748	-0.4737	-0.5135	-0.5662	0.4374
7.09	-9.5145	-0.1054	-1.6265	-0.0065	-0.0057	0.0027	31.5341	7.6416	5.4654	-0.4737	-0.5135	-0.5662	0.4373
7.1	-9.5131	-0.1058	-1.6201	-0.0085	-0.0053	0.0051	31.6886	7.6695	5.6702	-0.4737	-0.5135	-0.5663	0.4373
7.11	-9.5169	-0.1093	-1.6108	-0.0074	-0.0102	0.0063	31.8397	7.6421	5.6531	-0.4737	-0.5135	-0.5663	0.4373
7.12	-9.5257	-0.1082	-1.6079	0.0000	-0.0137	0.0074	31.5419	7.7296	5.5957	-0.4738	-0.5135	-0.5663	0.4373
7.13	-9.5140	-0.1104	-1.6088	-0.0004	-0.0196	0.0045	31.6511	7.6726	5.5115	-0.4737	-0.5134	-0.5663	0.4373
7.14	-9.5189	-0.1118	-1.6056	-0.0093	-0.0153	0.0058	31.9579	7.6383	5.5373	-0.4738	-0.5134	-0.5663	0.4373
7.15	-9.5189	-0.1026	-1.6022	0.0061	-0.0145	0.0068	31.8203	7.5310	5.6575	-0.4738	-0.5134	-0.5663	0.4373
7.16	-9.5148	-0.1113	-1.6133	-0.0035	-0.0141	0.0028	32.0293	7.4530	5.5191	-0.4738	-0.5134	-0.5662	0.4373
7.17	-9.5069	-0.1154	-1.5957	-0.0045	-0.0069	0.0034	31.6290	7.6535	5.5204	-0.4738	-0.5134	-0.5664	0.4373
7.18	-9.5168	-0.1055	-1.6076	-0.0026	-0.0141	0.0091	31.6149	7.5603	5.6529	-0.4738	-0.5134	-0.5663	0.4373
7.19	-9.5168	-0.1066	-1.6009	-0.0026	-0.0111	0.0062	31.7750	7.3261	5.5288	-0.4738	-0.5134	-0.5663	0.4373
7.2	-9.5142	-0.1107	-1.6055	-0.0062	-0.0165	0.0080	31.6969	7.6254	5.5231	-0.4738	-0.5133	-0.5663	0.4373
7.21	-9.5105	-0.1039	-1.6071	0.0003	-0.0167	0.0108	31.8423	7.3393	5.6240	-0.4739	-0.5134	-0.5663	0.4373
7.22	-9.5174	-0.1147	-1.6109	-0.0007	-0.0192	0.0053	31.6145	7.5059	5.7901	-0.4739	-0.5134	-0.5663	0.4373
7.23	-9.5193	-0.1087	-1.6137	-0.0063	-0.0076	0.0002	31.7229	7.6850	5.4029	-0.4739	-0.5133	-0.5663	0.4373
7.24	-9.5145	-0.0964	-1.6061	-0.0082	-0.0096	0.0017	31.8108	7.6320	5.5682	-0.4739	-0.5133	-0.5663	0.4373
7.25	-9.5234	-0.1102	-1.6216	-0.0057	-0.0091	0.0040	31.8083	7.7185	5.8083	-0.4739	-0.5133	-0.5663	0.4373
7.26	-9.5163	-0.1147	-1.6076	-0.0008	-0.0146	0.0036	31.7573	7.6976	5.6427	-0.4739	-0.5133	-0.5664	0.4373
7.27	-9.5025	-0.1062	-1.6089	-0.0126	-0.0179	0.0043	31.6354	7.6378	5.7255	-0.4739	-0.5132	-0.5663	0.4372
7.28	-9.5040	-0.1052	-1.6185	-0.0072	-0.0156	0.0038	31.5380	7.6630	5.4589	-0.4740	-0.5132	-0.5664	0.4373
7.29	-9.5143	-0.1057	-1.6282	-0.0121	-0.0105	0.0063	31.6271	7.8147	5.5549	-0.4740	-0.5132	-0.5664	0.4372
7.3	-9.5082	-0.0956	-1.6303	-0.0033	-0.0170	0.0079	31.8531	7.7777	5.6994	-0.4741	-0.5132	-0.5664	0.4372
7.31	-9.5065	-0.0929	-1.6197	-0.0016	-0.0165	0.0095	31.5912	7.6358	5.6797	-0.4741	-0.5131	-0.5664	0.4372
7.32	-9.5112	-0.1069	-1.6376	-0.0014	-0.0125	0.0102	31.8207	7.5508	5.4824	-0.4741	-0.5131	-0.5664	0.4372
7.33	-9.5200	-0.1110	-1.6254	-0.0055	-0.0172	0.0083	31.8871	7.4456	5.5437	-0.4741	-0.5131	-0.5664	0.4372
7.34	-9.5070	-0.1123	-1.6253	-0.0080	-0.0105	0.0052	31.6729	7.3055	5.5229	-0.4741	-0.5131	-0.5663	0.4372
7.35	-9.5026	-0.1057	-1.6279	0.0005	-0.0138	0.0047	31.8787	7.5488	5.5188	-0.4742	-0.5131	-0.5664	0.4372
7.36	-9.5190	-0.1083	-1.6239	-0.0035	-0.0075	0.0074	31.8231	7.4307	5.5553	-0.4741	-0.5131	-0.5664	0.4372
7.37	-9.5051	-0.1105	-1.6281	-0.0022	-0.0132	0.0037	31.6627	7.4587	5.6654	-0.4742	-0.5131	-0.5664	0.4372
7.38	-9.5037	-0.0987	-1.6210	0.0035	-0.0089	0.0061	31.8648	7.5226	5.3983	-0.4741	-0.5131	-0.5664	0.4372
7.39	-9.5056	-0.1081	-1.6050	-0.0028	-0.0134	0.0080	31.6325	7.5744	5.4680	-0.4742	-0.5131	-0.5664	0.4372
7.4	-9.5255	-0.1112	-1.6026	-0.0026	-0.0148	0.0113	31.7473	7.6073	5.5385	-0.4742	-0.5131	-0.5664	0.4372
7.41	-9.5172	-0.1144	-1.6000	-0.0018	-0.0096	0.0081	31.8444	7.7644	5.5074	-0.4742	-0.5131	-0.5663	0.4371
7.42	-9.5129	-0.1089	-1.5959	-0.0033	-0.0066	-0.0004	31.6067	7.7198	5.5179	-0.4742	-0.5131	-0.5665	0.4372
7.43	-9.5142	-0.0919	-1.6005	-0.0047	-0.0159	0.0022	31.7947	7.7780	5.6579	-0.4742	-0.5130	-0.5664	0.4371
7.44	-9.5134	-0.0941	-1.6127	-0.0092	-0.0163	0.0032	31.7815	7.6503	5.7209	-0.4743	-0.5130	-0.5665	0.4372
7.45	-9.5192	-0.0947	-1.6137	-0.0091	-0.0085	0.0062	31.5216	7.7479	5.5821	-0.4742	-0.5129	-0.5664	0.4371
7.46	-9.5039	-0.0978	-1.6188	-0.0027	-0.0152	0.0043	31.5059	7.8140	5.7196	-0.4743	-0.5130	-0.5665	0.4371
7.47	-9.5191	-0.1114	-1.6239	-0.0105	-0.0132	0.0076	31.5522	7.7124	5.7992	-0.4743	-0.5129	-0.5665	0.4371
7.48	-9.5099	-0.1109	-1.6137	-0.0087	-0.0152	0.0106	31.6476	7.7460	5.4236	-0.4743	-0.5129	-0.5665	0.4371
7.49	-9.5187	-0.1230	-1.6183	-0.0043	-0.0155	0.0095	31.6298	7.7537	5.3365	-0.4744	-0.5129	-0.5665	0.4371
7.5	-9.5121	-0.1318	-1.6094	-0.0063	-0.0146	0.0082	31.7124	7.5736	5.5817	-0.4744	-0.5129	-0.5665	0.4370
7.51	-9.5150	-0.1191	-1.6108	-0.0047	-0.0126	0.0063	31.8314	7.4680	5.4703	-0.4744	-0.5129	-0.5665	0.4371
7.52	-9.5102	-0.1163	-1.6060	-0.0019	-0.0156	0.0045	31.9086	7.5106	5.7171	-0.4744	-0.5128	-0.5664	0.4370
7.53	-9.5103	-0.1140	-1.6063	-0.0044	-0.0153	0.0099	32.3166	7.5054	5.7057	-0.4745	-0.5129	-0.5665	0.4371
7.54	-9.5160	-0.1185	-1.6155	-0.0035	-0.0172	0.0104	32.2016	7.6481	5.5494	-0.4745	-0.5128	-0.5664	0.4370
7.55	-9.5189	-0.1089	-1.6119	-0.0025	-0.0095	0.0098	31.9535	7.5958	5.6160	-0.4745	-0.5128	-0.5665	0.4370
7.56	-9.5102	-0.1165	-1.6091	-0.0041	-0.0101	0.0033	31.7471	7.5772	5.6690	-0.4745	-0.5128	-0.5664	0.4370
7.57	-9.5037	-0.0991	-1.6010	-0.0006	-0.0148	0.0052	31.6851	7.5903	5.6115	-0.4745	-0.5128	-0.5665	0.4370
7.58	-9.4998	-0.0948	-1.6025	-0.0028	-0.0112	0.0088	31.6306	7.7320	5.5710	-0.4745	-0.5128	-0.5665	0.4370
7.59	-9.5195	-0.0938	-1.6105	-0.0043	-0.0212	0.0101	31.8321	7.7469	5.4829	-0.4745	-0.5128	-0.5664	0.4370
7.6	-9.5145	-0.0826	-1.5950	-0.0017	-0.0144	0.0048	31.7151	7.7400	5.6764	-0.4746	-0.5128	-0.5665	0.4370
7.61	-9.5045	-0.0775	-1.5912	0.0002	-0.0178	0.0031	31.7916	7.4617	5.6827	-0.4746	-0.5127	-0.5664	0.4370
7.62	-9.5235	-0.0857	-1.5939	-0.0034	-0.0099	0.0030	31.7902	7.5877	5.8075	-0.4746	-0.5128	-0.5665	0.4371
7.63	-9.5194	-0.0809	-1.5895	0.0003	-0.0092	0.0034	31.6210	7.5409	5.6820	-0.4746	-0.5127	-0.5664	0.4370
7.64	-9.5099	-0.0863	-1.5898	-0.0035	-0.0151	0.0030	31.6976	7.6483	5.6343	-0.4746	-0.5127	-0.5665	0.4370
7.65	-9.5019	-0.0845	-1.5887	-0.0025	-0.0180	0.0109	31.7559	7.7249	5.6893	-0.4746	-0.5127	-0.5664	0.4370
7.66	-9.5186	-0.0894	-1.6025	-0.0050	-0.0144	0.0111	31.7291	7.6278	5.5586	-0.4747	-0.5127	-0.5664	0.4370
7.67	-9.5063	-0.0991	-1.6009	-0.0067	-0.0179	0.0057	31.7569	7.6722	5.7651	-0.4748	-0.5127	-0.5665	0.4371
7.68	-9.5020	-0.0982	-1.5988	-0.0001	-0.0168	0.0014	31.7013	7.5264	5.7687	-0.4747	-0.5126	-0.5664	0.4370
7.69	-9.5014	-0.0999	-1.6030	-0.0051	-0.0177	0.0073	31.6561	7.4134	5.6332	-0.4748	-0.5126	-0.5664	0.4371
7.7	-9.5061	-0.0955	-1.5995	-0.0078	-0.0184	0.0103	32.0404	7.4915	5.6106	-0.4748	-0.5126	-0.5664	0.4370
7.71	-9.5043	-0.0955	-1.6053	-0.0082	-0.0194	0.0047	31.8246	7.5044	5.5439	-0.4749	-0.5126	-0.5664	0.4370
7.72	-9.5140	-0.0959	-1.6014	-0.0005	-0.0144	0.0056	31.8945	7.5006	5.4789	-0.4749	-0.5125	-0.5664	0.4370
7.73	-9.5158	-0.0917	-1.6139	-0.0053	-0.0168	0.0037	31.8361	7.7554	5.4662	-0.4749	-0.5125	-0.5664	0.4370
7.74	-9.5073	-0.1023	-1.6121	-0.0058	-0.0197	0.0086	31.8233	7.7332	5.8597	-0.4749	-0.5125	-0.5664	0.4371
7.75	-9.5112	-0.1190	-1.6088	-0.0100	-0.0117	0.0070	31.9001	7.6423	5.4758	-0.4750	-0.5125	-0.5664	0.4370
7.76	-9.5134	-0.1127	-1.6111	-0.0112	-0.0163	0.0050	31.5946	7.6626	5.6706	-0.4750	-0.5124	-0.5664	0.4370
7.77	-9.5068	-0.1197	-1.6110	-0.0064	-0.0200	0.0085	31.8443	7.6648	5.7148	-0.4750	-0.5123	-0.5664	0.4370
7.78	-9.5123	-0.1236	-1.6235	-0.0056	-0.0161	0.0069	31.8026	7.5476	5.7145	-0.4751	-0.5124	-0.5664	0.4370
7.79	-9.5181	-0.1207	-1.6173	-0.0136	-0.0106	0.0144	31.6928	7.4772	5.8229	-0.4751	-0.5123	-0.5664	0.4369
7.8	-9.5172	-0.1300	-1.6210	-0.0086	-0.0105	0.0008	31.6153	7.7578	5.5002	-0.4751	-0.5123	-0.5665	0.4369
7.81	-9.5203	-0.1230	-1.6264	-0.0020	-0.0073	0.0039	31.8821	7.6526	5.5492	-0.4751	-0.5123	-0.5665	0.4369
7.82	-9.5080	-0.1180	-1.6309	-0.0045	-0.0152	0.0050	31.7331	7.4363	5.7490	-0.4751	-0.5123	-0.5665	0.4369
7.83	-9.5027	-0.1132	-1.6380	-0.0072	-0.0069	-0.0024	31.4954	7.7404	5.6761	-0.4751	-0.5123	-0.5665	0.4369
7.84	-9.5118	-0.1143	-1.6381	-0.0013	-0.0087	0.0054	31.7577	7.7234	5.7210	-0.4751	-0.5122	-0.5665	0.4369
7.85	-9.5087	-0.1103	-1.6432	-0.0086	-0.0060	0.0068	31.7414	7.6901	5.5848	-0.4752	-0.5123	-0.5666	0.4369
7.86	-9.5117	-0.0967	-1.6463	-0.0024	-0.0100	0.0037	31.7375	7.5562	5.5012	-0.4751	-0.5122	-0.5666	0.4369
7.87	-9.5229	-0.0970	-1.6364	-0.0032	-0.0111	0.0077	31.7694	7.5237	5.6072	-0.4752	-0.5123	-0.5666	0.4369
7.88	-9.5012	-0.1055	-1.6380	-0.0023	-0.0154	0.0100	31.6296	7.6816	5.6267	-0.4751	-0.5122	-0.5665	0.4368
7.89	-9.5132	-0.0963	-1.6300	-0.0058	-0.0130	0.0096	31.7101	7.4447	5.6024	-0.4752	-0.5122	-0.5666	0.4368
7.9	-9.5103	-0.0990	-1.6312	-0.0048	-0.0121	0.0106	31.7264	7.6697	5.4746	-0.4752	-0.5122	-0.5666	0.4368
7.91	-9.5146	-0.1052	-1.6223	-0.0016	-0.0180	0.0076	31.8524	7.3707	5.7044	-0.4752	-0.5122	-0.5665	0.4368
7.92	-9.5230	-0.1165	-1.6259	-0.0073	-0.0185	0.0094	31.5849	7.5405	5.8151	-0.4753	-0.5122	-0.5666	0.4368
7.93	-9.5144	-0.1117	-1.6185	-0.0038	-0.0189	0.0119	31.6630	7.5422	5.7676	-0.4753	-0.5122	-0.5665	0.4368
7.94	-9.5129	-0.1128	-1.6142	0.0006	-0.0175	0.0084	31.7077	7.4975	5.6176	-0.4754	-0.5122	-0.5665	0.4368
7.95	-9.5049	-0.1032	-1.6129	-0.0031	-0.0147	0.0072	31.7065	7.7908	5.6177	-0.4753	-0.5121	-0.5664	0.4368
7.96	-9.5138	-0.1012	-1.6124	-0.0019	-0.0199	0.0070	31.9651	7.5935	5.6073	-0.4754	-0.5121	-0.5665	0.4368
7.97	-9.5178	-0.0994	-1.6094	0.0018	-0.0134	0.0108	31.8448	7.6184	5.8293	-0.4754	-0.5121	-0.5664	0.4368
7.98	-9.5071	-0.1011	-1.6107	-0.0024	-0.0084	0.0108	31.7308	7.6818	5.6216	-0.4754	-0.5121	-0.5664	0.4368
7.99	-9.5183	-0.1013	-1.6094	-0.0029	-0.0116	0.0080	31.8432	7.6425	5.6226	-0.4755	-0.5122	-0.5665	0.4368
8	-9.5162	-0.0946	-1.6089	-0.0023	-0.0141	0.0107	31.7807	7.5646	5.8498	-0.4755	-0.5121	-0.5664	0.4368
8.01	-9.5033	-0.0913	-1.6060	-0.0059	-0.0161	0.0039	31.7192	7.7723	5.7502	-0.4755	-0.5121	-0.5665	0.4368
8.02	-9.5081	-0.0969	-1.6078	-0.0129	-0.0122	0.0028	31.7829	7.6286	5.8824	-0.4755	-0.5120	-0.5664	0.4367
8.03	-9.5100	-0.0947	-1.6101	-0.0052	-0.0130	-0.0000	32.1605	7.8105	6.0018	-0.4756	-0.5121	-0.5665	0.4368
8.04	-9.5209	-0.0944	-1.6062	-0.0075	-0.0110	0.0082	32.1668	7.7865	5.9094	-0.4756	-0.5120	-0.5665	0.4367
8.05	-9.5084	-0.1001	-1.6033	-0.0034	-0.0100	0.0094	31.8714	7.7755	5.7043	-0.4756	-0.5120	-0.5665	0.4367
8.06	-9.5153	-0.1138	-1.5956	-0.0063	-0.0148	0.0098	31.6468	7.7578	5.5677	-0.4756	-0.5120	-0.5665	0.4367
8.07	-9.5264	-0.1138	-1.5959	-0.0076	-0.0192	0.0078	31.7095	7.5253	5.3826	-0.4756	-0.5120	-0.5665	0.4367
8.08	-9.5062	-0.1154	-1.6046	-0.0033	-0.0138	0.0052	31.8748	7.6353	5.5354	-0.4757	-0.5120	-0.5665	0.4367
8.09	-9.5151	-0.1185	-1.6048	-0.0016	-0.0103	0.0049	31.9502	7.4753	5.5218	-0.4756	-0.5119	-0.5665	0.4367
8.1	-9.5088	-0.1102	-1.6064	-0.0040	-0.0181	0.0041	31.9617	7.5420	5.5733	-0.4757	-0.5120	-0.5665	0.4367
8.11	-9.5124	-0.1127	-1.6096	-0.0025	-0.0142	0.0035	31.9544	7.4319	5.6024	-0.4757	-0.5119	-0.5665	0.4367
8.12	-9.5062	-0.1159	-1.6085	-0.0050	-0.0112	0.0097	31.7231	7.4833	5.5083	-0.4758	-0.5120	-0.5666	0.4367
8.13	-9.5083	-0.1193	-1.6165	-0.0047	-0.0210	0.0097	31.7206	7.4954	5.5489	-0.4757	-0.5119	-0.5665	0.4367
8.14	-9.5064	-0.1221	-1.6156	-0.0045	-0.0177	0.0046	31.8023	7.5320	5.4093	-0.4758	-0.5119	-0.5665	0.4367
8.15	-9.5006	-0.1159	-1.6078	-0.0091	-0.0138	0.0061	31.8495	7.5852	5.4915	-0.4758	-0.5118	-0.5665	0.4367
8.16	-9.5148	-0.1193	-1.6045	-0.0062	-0.0154	0.0122	31.8398	7.6631	5.6394	-0.4758	-0.5118	-0.5665	0.4366
8.17	-9.5191	-0.1155	-1.6086	-0.0039	-0.0092	0.0088	31.5817	7.6481	5.4949	-0.4759	-0.5119	-0.5665	0.4367
8.18	-9.5073	-0.1114	-1.6092	-0.0023	-0.0124	0.0054	31.5655	7.7133	5.4350	-0.4759	-0.5118	-0.5665	0.4366
8.19	-9.5043	-0.1119	-1.6057	-0.0050	-0.0072	0.0019	31.5356	7.6992	5.6263	-0.4759	-0.5118	-0.5666	0.4367
8.2	-9.5066	-0.1088	-1.6116	-0.0022	-0.0059	0.0037	31.6397	7.6373	5.6059	-0.4758	-0.5118	-0.5665	0.4366
8.21	-9.5121	-0.1168	-1.6061	-0.0038	-0.0107	0.0054	31.7314	7.7846	5.5151	-0.4759	-0.5118	-0.5666	0.4366
8.22	-9.5138	-0.1154	-1.5987	-0.0023	-0.0067	0.0041	31.7092	7.7089	5.3500	-0.4759	-0.5118	-0.5666	0.4366
8.23	-9.5078	-0.1063	-1.5959	-0.0044	-0.0066	0.0045	31.4640	7.5570	5.4113	-0.4758	-0.5118	-0.5666	0.4366
8.24	-9.5106	-0.0966	-1.6003	-0.0031	-0.0100	0.0077	31.5728	7.6869	5.6355	-0.4759	-0.5118	-0.5666	0.4366
8.25	-9.5247	-0.1020	-1.6032	-0.0012	-0.0135	0.0105	31.6470	7.7460	5.6149	-0.4759	-0.5118	-0.5666	0.4366
8.26	-9.5183	-0.0930	-1.6087	0.0013	-0.0125	0.0120	31.8549	7.5815	5.3665	-0.4759	-0.5118	-0.5666	0.4366
8.27	-9.5107	-0.0892	-1.6083	-0.0035	-0.0122	0.0113	31.8895	7.5901	5.4368	-0.4759	-0.5118	-0.5665	0.4365
8.28	-9.5158	-0.0894	-1.6209	-0.0055	-0.0097	0.0045	31.8817	7.4868	5.5511	-0.4759	-0.5118	-0.5666	0.4365
8.29	-9.5144	-0.0903	-1.6261	-0.0009	-0.0136	0.0059	31.8442	7.5088	5.5637	-0.4759	-0.5118	-0.5666	0.4365
8.3	-9.5143	-0.0978	-1.6192	0.0009	-0.0130	0.0080	31.7649	7.4986	5.6646	-0.4759	-0.5118	-0.5666	0.4365
8.31	-9.5047	-0.0943	-1.6239	-0.0080	-0.0095	0.0069	31.8262	7.4970	5.5027	-0.4759	-0.5118	-0.5666	0.4365
8.32	-9.5020	-0.1047	-1.6174	0.0002	-0.0139	0.0111	31.7555	7.6309	5.5578	-0.4760	-0.5118	-0.5666	0.4365
8.33	-9.5173	-0.1168	-1.6137	-0.0062	-0.0112	0.0041	31.7085	7.6767	5.4824	-0.4760	-0.5118	-0.5666	0.4365
8.34	-9.5091	-0.1202	-1.6157	-0.0051	-0.0165	0.0104	31.7095	7.6626	5.7167	-0.4760	-0.5117	-0.5666	0.4364
8.35	-9.5145	-0.1211	-1.6130	-0.0039	-0.0108	0.0086	31.7261	7.5678	5.5916	-0.4761	-0.5118	-0.5666	0.4365
8.36	-9.5150	-0.1128	-1.6208	-0.0026	-0.0067	0.0044	31.5479	7.7318	5.6585	-0.4760	-0.5117	-0.5666	0.4364
8.37	-9.5111	-0.1116	-1.6080	-0.0035	-0.0107	0.0004	31.6275	7.7416	5.6890	-0.4760	-0.5118	-0.5667	0.4365
8.38	-9.5153	-0.1028	-1.6197	0.0003	-0.0135	0.0032	31.5581	7.7613	5.3716	-0.4760	-0.5117	-0.5666	0.4364
8.39	-9.5084	-0.0886	-1.6190	-0.0024	-0.0147	0.0036	31.5666	7.5958	5.5116	-0.4760	-0.5117	-0.5666	0.4365
8.4	-9.5166	-0.0832	-1.6119	-0.0012	-0.0058	0.0016	31.6787	7.6250	5.6542	-0.4760	-0.5117	-0.5667	0.4365
8.41	-9.5214	-0.0803	-1.6082	0.0020	-0.0184	0.0053	31.5380	7.6762	5.5824	-0.4760	-0.5116	-0.5666	0.4365
8.42	-9.5120	-0.0845	-1.6015	-0.0003	-0.0090	0.0012	31.5662	7.6573	5.7355	-0.4760	-0.5117	-0.5667	0.4365
8.43	-9.5066	-0.0851	-1.5925	0.0047	-0.0110	0.0071	31.5315	7.6458	5.5214	-0.4760	-0.5117	-0.5667	0.4365
8.44	-9.5197	-0.0889	-1.5928	0.0009	-0.0151	0.0089	31.6479	7.5008	5.5907	-0.4760	-0.5117	-0.5667	0.4365
8.45	-9.5116	-0.0895	-1.5909	-0.0045	-0.0091	0.0100	31.9159	7.4383	5.6607	-0.4760	-0.5116	-0.5666	0.4365
8.46	-9.5126	-0.0923	-1.5837	0.0006	-0.0083	0.0123	31.8437	7.1796	5.3681	-0.4760	-0.5117	-0.5667	0.4365
8.47	-9.5237	-0.1025	-1.5867	0.0009	-0.0084	0.0114	31.9641	7.5411	5.4168	-0.4760	-0.5117	-0.5666	0.4365
8.48	-9.5172	-0.1126	-1.6004	-0.0043	-0.0075	0.0078	31.8487	7.5852	5.4578	-0.4760	-0.5117	-0.5666	0.4364
8.49	-9.5050	-0.1110	-1.5921	-0.0091	-0.0130	0.0049	31.5843	7.6909	5.4387	-0.4760	-0.5117	-0.5667	0.4364
8.5	-9.5077	-0.1112	-1.5925	-0.0026	-0.0128	0.0029	31.8160	7.6016	5.3057	-0.4760	-0.5117	-0.5667	0.4364
8.51	-9.5119	-0.1173	-1.6003	-0.0024	-0.0082	0.0084	31.7273	7.4546	5.6882	-0.4761	-0.5117	-0.5667	0.4364
8.52	-9.5099	-0.1103	-1.6112	-0.0032	-0.0093	0.0107	31.7535	7.5801	5.6934	-0.4760	-0.5116	-0.5666	0.4363
8.53	-9.5134	-0.1140	-1.6070	0.0005	-0.0133	0.0091	32.1248	7.7218	5.8637	-0.4761	-0.5117	-0.5667	0.4364
8.54	-9.5287	-0.1143	-1.6121	-0.0040	-0.0108	0.0071	32.0449	7.7183	5.9606	-0.4761	-0.5117	-0.5667	0.4364
8.55	-9.5180	-0.1104	-1.6195	-0.0037	-0.0099	-0.0006	31.8312	7.7105	5.6789	-0.4761	-0.5117	-0.5667	0.4364
8.56	-9.5079	-0.1116	-1.6179	-0.0082	-0.0098	0.0041	31.6643	7.6612	5.5815	-0.4761	-0.5116	-0.5667	0.4363
8.57	-9.5218	-0.1180	-1.6200	-0.0098	-0.0084	0.0051	31.6167	7.6977	5.4826	-0.4761	-0.5116	-0.5668	0.4363
8.58	-9.5174	-0.1167	-1.6143	0.0024	-0.0091	0.0042	31.6783	7.5525	5.5875	-0.4761	-0.5116	-0.5668	0.4363
8.59	-9.5183	-0.1161	-1.6166	-0.0021	-0.0078	0.0043	31.6388	7.4708	5.7072	-0.4760	-0.5116	-0.5667	0.4363
8.6	-9.5258	-0.1105	-1.6120	-0.0004	-0.0064	0.0009	31.7512	7.5130	5.6129	-0.4761	-0.5116	-0.5669	0.4363
8.61	-9.5205	-0.1144	-1.6089	-0.0026	-0.0116	0.0085	31.7472	7.6443	5.5923	-0.4760	-0.5116	-0.5668	0.4363
8.62	-9.5246	-0.1159	-1.6041	-0.0047	-0.0139	0.0074	31.9204	7.6714	5.4377	-0.4761	-0.5116	-0.5669	0.4363
8.63	-9.5265	-0.1129	-1.6125	0.0047	-0.0126	0.0058	31.8193	7.6870	5.4378	-0.4760	-0.5116	-0.5668	0.4363
8.64	-9.5188	-0.1039	-1.6198	0.0028	-0.0150	0.0081	31.6980	7.5099	5.4458	-0.4761	-0.5116	-0.5668	0.4363
8.65	-9.5210	-0.0973	-1.6194	-0.0011	-0.0141	0.0113	31.8251	7.5667	5.6186	-0.4761	-0.5116	-0.5668	0.4363
8.66	-9.5226	-0.0993	-1.6204	-0.0029	-0.0152	0.0094	32.0171	7.5291	5.5701	-0.4761	-0.5116	-0.5667	0.4363
8.67	-9.5173	-0.0991	-1.6302	0.0020	-0.0146	0.0080	31.7807	7.4031	5.3039	-0.4762	-0.5116	-0.5668	0.4364
8.68	-9.5223	-0.1151	-1.6259	-0.0004	-0.0079	0.0106	31.8666	7.8060	5.2738	-0.4761	-0.5116	-0.5667	0.4363
8.69	-9.5137	-0.1122	-1.6309	-0.0005	-0.0070	0.0064	31.7295	7.6668	5.4435	-0.4761	-0.5116	-0.5668	0.4363
8.7	-9.5050	-0.1142	-1.6355	0.0055	-0.0111	0.0075	31.8325	7.6035	5.4324	-0.4761	-0.5116	-0.5667	0.4363
8.71	-9.5182	-0.1229	-1.6273	-0.0012	-0.0152	0.0112	31.7924	7.5443	5.5665	-0.4761	-0.5117	-0.5667	0.4363
8.72	-9.5194	-0.1139	-1.6183	0.0038	-0.0121	0.0073	31.7318	7.6850	5.4671	-0.4761	-0.5116	-0.5667	0.4363
8.73	-9.5170	-0.1106	-1.6141	-0.0007	-0.0061	0.0030	31.6892	7.7917	5.4095	-0.4761	-0.5116	-0.5667	0.4363
8.74	-9.5081	-0.1021	-1.6200	-0.0031	-0.0064	0.0052	31.5506	7.5458	5.5453	-0.4761	-0.5117	-0.5668	0.4363
8.75	-9.5090	-0.0960	-1.6097	-0.0028	-0.0084	0.0066	31.6012	7.5854	5.5177	-0.4761	-0.5116	-0.5668	0.4363
8.76	-9.5076	-0.0961	-1.6097	0.0002	-0.0082	0.0025	31.7291	7.6200	5.7396	-0.4761	-0.5117	-0.5668	0.4363
8.77	-9.5082	-0.1046	-1.6118	0.0011	-0.0089	0.0020	31.7377	7.7195	5.5238	-0.4760	-0.5116	-0.5667	0.4363
8.78	-9.5198	-0.0964	-1.6016	-0.0004	-0.0058	0.0078	31.6558	7.3954	5.3175	-0.4760	-0.5117	-0.5668	0.4363
8.79	-9.5028	-0.0943	-1.6034	-0.0026	-0.0134	0.0071	31.7863	7.5290	5.6939	-0.4760	-0.5116	-0.5668	0.4363
8.8	-9.5130	-0.0998	-1.6090	0.0087	-0.0186	0.0087	31.6406	7.8131	5.4110	-0.4760	-0.5117	-0.5668	0.4363
8.81	-9.5223	-0.0931	-1.6104	0.0028	-0.0199	0.0087	31.7541	7.5381	5.5623	-0.4760	-0.5116	-0.5667	0.4363
8.82	-9.5206	-0.0853	-1.6065	0.0102	-0.0087	0.0077	31.8321	7.5054	5.4720	-0.4760	-0.5117	-0.5667	0.4364
8.83	-9.5166	-0.0850	-1.6028	0.0026	-0.0114	0.0055	31.6413	7.6733	5.4879	-0.4760	-0.5117	-0.5667	0.4364
8.84	-9.5191	-0.0789	-1.6134	-0.0008	-0.0137	0.0056	31.7291	7.6020	5.5297	-0.4760	-0.5116	-0.5667	0.4363
8.85	-9.5208	-0.0782	-1.6071	-0.0070	-0.0206	0.0123	31.8431	7.3747	5.5621	-0.4761	-0.5117	-0.5667	0.4364
8.86	-9.5166	-0.0911	-1.6116	0.0028	-0.0119	0.0036	31.7901	7.6045	5.5853	-0.4761	-0.5117	-0.5667	0.4364
8.87	-9.5104	-0.0953	-1.6134	0.0101	-0.0167	0.0063	31.6646	7.4995	5.2939	-0.4761	-0.5117	-0.5667	0.4365
8.88	-9.5180	-0.1134	-1.6097	0.0012	-0.0186	0.0066	31.6539	7.5808	5.4802	-0.4760	-0.5116	-0.5666	0.4364
8.89	-9.5145	-0.1138	-1.6044	0.0034	-0.0119	0.0052	31.8782	7.6950	5.3999	-0.4761	-0.5117	-0.5666	0.4365
8.9	-9.5218	-0.1044	-1.6098	-0.0001	-0.0161	0.0110	31.7484	7.4771	5.5201	-0.4761	-0.5117	-0.5666	0.4365
8.91	-9.5231	-0.1080	-1.6066	-0.0016	-0.0091	0.0024	31.7364	7.5812	5.5132	-0.4760	-0.5116	-0.5666	0.4364
8.92	-9.5110	-0.1046	-1.6162	-0.0005	-0.0086	0.0066	31.7317	7.6732	5.6520	-0.4761	-0.5117	-0.5667	0.4365
8.93	-9.5077	-0.1028	-1.6174	-0.0001	-0.0126	0.0068	31.7497	7.5475	5.5455	-0.4761	-0.5117	-0.5666	0.4365
8.94	-9.5181	-0.0935	-1.6119	0.0002	-0.0120	0.0042	31.7100	7.6187	5.5946	-0.4761	-0.5117	-0.5667	0.4365
8.95	-9.5112	-0.0968	-1.6022	0.0023	-0.0104	0.0026	31.8497	7.4768	5.5431	-0.4760	-0.5116	-0.5666	0.4365
8.96	-9.5119	-0.0997	-1.6090	0.0068	-0.0071	0.0036	31.6652	7.5300	5.5283	-0.4760	-0.5117	-0.5666	0.4365
8.97	-9.5224	-0.0988	-1.6065	0.0036	-0.0074	0.0001	31.5655	7.6059	5.6648	-0.4760	-0.5117	-0.5666	0.4365
8.98	-9.5189	-0.1096	-1.6100	-0.0046	-0.0093	0.0007	31.5030	7.7916	5.5014	-0.4760	-0.5116	-0.5667	0.4365
8.99	-9.5234	-0.1187	-1.6050	0.0026	-0.0133	0.0060	31.5874	7.5074	5.5397	-0.4760	-0.5117	-0.5667	0.4365
9	-9.5157	-0.1204	-1.6096	0.0005	-0.0145	0.0065	31.6751	7.5774	5.5085	-0.4760	-0.5116	-0.5667	0.4365
9.01	-9.5164	-0.1140	-1.6169	-0.0025	-0.0145	0.0037	31.6785	7.6456	5.5595	-0.4760	-0.5116	-0.5667	0.4366
9.02	-9.5185	-0.1119	-1.6215	-0.0029	-0.0156	0.0118	31.9051	7.5509	5.4031	-0.4760	-0.5116	-0.5666	0.4365
9.03	-9.5224	-0.1231	-1.6230	0.0012	-0.0110	0.0063	32.1026	7.7093	5.7153	-0.4760	-0.5116	-0.5667	0.4366
9.04	-9.5181	-0.1160	-1.6103	-0.0026	-0.0129	0.0032	31.9853	7.6524	5.7740	-0.4760	-0.5116	-0.5667	0.4365
9.05	-9.5066	-0.1146	-1.6175	-0.0025	-0.0171	0.0035	31.9236	7.5206	5.7663	-0.4760	-0.5116	-0.5667	0.4366
9.06	-9.5077	-0.1135	-1.6166	0.0027	-0.0120	0.0033	31.6427	7.3850	5.6607	-0.4760	-0.5116	-0.5666	0.4366
9.07	-9.5131	-0.1137	-1.6167	0.0075	-0.0154	0.0040	31.6257	7.5548	5.3401	-0.4760	-0.5116	-0.5666	0.4366
9.08	-9.5090	-0.1125	-1.6218	0.0073	-0.0096	0.0055	31.7526	7.5880	5.5547	-0.4760	-0.5116	-0.5666	0.4367
9.09	-9.5188	-0.1122	-1.6021	0.0031	-0.0113	0.0080	31.7047	7.5667	5.4265	-0.4759	-0.5116	-0.5666	0.4366
9.1	-9.5141	-0.1107	-1.6196	0.0051	-0.0095	0.0029	31.7122	7.5940	5.3501	-0.4760	-0.5116	-0.5667	0.4367
9.11	-9.5133	-0.1051	-1.6139	-0.0018	-0.0071	0.0022	31.6133	7.6815	5.7600	-0.4759	-0.5116	-0.5666	0.4367
9.12	-9.5141	-0.1139	-1.5997	-0.0027	-0.0055	0.0076	31.5965	7.6342	5.5469	-0.4759	-0.5117	-0.5667	0.4367
9.13	-9.5115	-0.1054	-1.5916	-0.0015	-0.0074	0.0059	31.4513	7.7513	5.3997	-0.4759	-0.5116	-0.5666	0.4366
9.14	-9.5193	-0.0962	-1.6015	-0.0050	-0.0096	0.0004	31.4782	7.7272	5.6840	-0.4759	-0.5116	-0.5667	0.4366
9.15	-9.5141	-0.0929	-1.6216	-0.0011	-0.0103	0.0034	31.4775	7.9283	5.6524	-0.4759	-0.5116	-0.5667	0.4366
9.16	-9.5117	-0.0897	-1.6172	-0.0061	-0.0087	0.0037	31.7209	7.7625	5.4976	-0.4759	-0.5115	-0.5667	0.4366
9.17	-9.5148	-0.1037	-1.6162	-0.0060	-0.0098	0.0048	31.8070	7.6365	5.5444	-0.4759	-0.5116	-0.5668	0.4366
9.18	-9.5254	-0.1008	-1.6199	-0.0026	-0.0069	0.0015	31.3977	7.6637	5.6121	-0.4759	-0.5115	-0.5668	0.4366
9.19	-9.5245	-0.1213	-1.6163	0.0019	-0.0083	0.0107	31.4674	7.4262	5.4018	-0.4759	-0.5116	-0.5668	0.4366
9.2	-9.5082	-0.1167	-1.6104	-0.0029	-0.0089	0.0052	31.8399	7.3210	5.5592	-0.4758	-0.5115	-0.5668	0.4365
9.21	-9.5052	-0.1139	-1.6175	-0.0028	-0.0139	0.0026	31.9609	7.5448	5.4962	-0.4759	-0.5115	-0.5668	0.4366
9.22	-9.5086	-0.1113	-1.6079	-0.0046	-0.0104	0.0076	31.9869	7.4693	5.4498	-0.4759	-0.5115	-0.5668	0.4366
9.23	-9.5121	-0.1149	-1.6059	-0.0016	-0.0079	0.0066	31.8186	7.5780	5.6531	-0.4759	-0.5115	-0.5668	0.4365
9.24	-9.5158	-0.1111	-1.6021	-0.0037	-0.0129	0.0065	31.6140	7.5830	5.4850	-0.4759	-0.5115	-0.5669	0.4366
9.25	-9.5247	-0.1042	-1.6060	-0.0004	-0.0125	0.0044	31.6261	7.4368	5.4368	-0.4759	-0.5115	-0.5668	0.4365
9.26	-9.5045	-0.1145	-1.6078	-0.0025	-0.0102	0.0059	31.5096	7.4000	5.4197	-0.4759	-0.5115	-0.5669	0.4366
9.27	-9.5131	-0.1136	-1.6097	0.0021	-0.0133	0.0049	31.7148	7.4149	5.5389	-0.4758	-0.5115	-0.5668	0.4365
9.28	-9.5219	-0.1122	-1.6066	0.0026	-0.0160	0.0080	31.8338	7.4150	5.5140	-0.4759	-0.5115	-0.5669	0.4366
9.29	-9.5033	-0.1152	-1.6049	0.0015	-0.0108	0.0075	31.5785	7.7129	5.5666	-0.4759	-0.5115	-0.5668	0.4366
9.3	-9.5060	-0.1023	-1.6016	0.0033	-0.0101	0.0059	31.5960	7.7468	5.6184	-0.4759	-0.5115	-0.5668	0.4366
9.31	-9.5226	-0.0942	-1.6069	0.0025	-0.0088	0.0087	31.7324	7.7416	5.6043	-0.4758	-0.5115	-0.5668	0.4366
9.32	-9.5092	-0.0998	-1.5978	0.0044	-0.0077	0.0031	31.5967	7.8454	5.5913	-0.4758	-0.5116	-0.5668	0.4366
9.33	-9.5105	-0.0929	-1.5993	0.0041	-0.0055	0.0014	31.6574	7.6265	5.4373	-0.4758	-0.5116	-0.5669	0.4366
9.34	-9.5092	-0.0881	-1.6042	0.0002	-0.0066	0.0028	31.6211	7.7650	5.4700	-0.4757	-0.5115	-0.5668	0.4366
9.35	-9.5130	-0.0933	-1.6063	0.0007	-0.0093	0.0031	31.5512	7.6084	5.7926	-0.4758	-0.5116	-0.5669	0.4366
9.36	-9.5131	-0.0838	-1.6050	0.0025	-0.0091	0.0069	31.5302	7.7378	5.6726	-0.4757	-0.5116	-0.5669	0.4366
9.37	-9.5095	-0.0934	-1.6128	-0.0017	-0.0070	0.0028	31.6176	7.6317	5.3765	-0.4757	-0.5116	-0.5670	0.4366
9.38	-9.5126	-0.1011	-1.6063	-0.0024	-0.0152	0.0099	31.7860	7.4641	5.5638	-0.4757	-0.5115	-0.5669	0.4366
9.39	-9.5028	-0.0918	-1.6053	0.0015	-0.0091	0.0081	31.9522	7.5156	5.3888	-0.4757	-0.5116	-0.5669	0.4366
9.4	-9.5035	-0.1078	-1.6054	0.0006	-0.0134	0.0055	31.8835	7.4997	5.3344	-0.4757	-0.5116	-0.5669	0.4366
9.41	-9.5188	-0.0991	-1.6125	-0.0057	-0.0069	0.0059	31.6871	7.4342	5.4267	-0.4757	-0.5115	-0.5669	0.4366
9.42	-9.5150	-0.0918	-1.6130	-0.0007	-0.0089	0.0087	31.8143	7.3861	5.5554	-0.4758	-0.5116	-0.5670	0.4366
9.43	-9.4990	-0.0925	-1.6075	-0.0004	-0.0076	0.0030	31.6796	7.4613	5.5143	-0.4757	-0.5116	-0.5669	0.4366
9.44	-9.5139	-0.1006	-1.6154	0.0010	-0.0114	0.0052	31.7324	7.5024	5.7658	-0.4757	-0.5116	-0.5670	0.4366
9.45	-9.5287	-0.1081	-1.6183	-0.0022	-0.0127	0.0028	31.6966	7.4988	5.4033	-0.4757	-0.5115	-0.5669	0.4365
9.46	-9.5127	-0.1127	-1.6079	-0.0006	-0.0096	0.0081	31.7452	7.4775	5.3692	-0.4757	-0.5116	-0.5670	0.4366
9.47	-9.5049	-0.1162	-1.6218	0.0015	-0.0120	0.0107	31.8271	7.4001	5.4538	-0.4757	-0.5116	-0.5669	0.4366
9.48	-9.5121	-0.1135	-1.6329	-0.0039	-0.0084	0.0047	31.7196	7.6828	5.4994	-0.4757	-0.5116	-0.5669	0.4365
9.49	-9.5131	-0.1224	-1.6258	-0.0032	-0.0110	0.0006	31.7095	7.6390	5.5370	-0.4757	-0.5116	-0.5670	0.4366
9.5	-9.5101	-0.1166	-1.6184	-0.0066	-0.0073	0.0035	31.4837	7.6948	5.3758	-0.4757	-0.5115	-0.5670	0.4365
9.51	-9.5067	-0.1072	-1.6286	0.0007	-0.0040	0.0030	31.4977	7.7520	5.2923	-0.4757	-0.5116	-0.5671	0.4365
9.52	-9.5128	-0.1084	-1.6272	0.0001	-0.0071	0.0010	31.7896	7.7413	5.5941	-0.4756	-0.5115	-0.5670	0.4365
9.53	-9.5101	-0.1087	-1.6289	0.0018	-0.0090	0.0101	31.9988	7.7413	5.8552	-0.4756	-0.5116	-0.5671	0.4365
9.54	-9.5077	-0.1081	-1.6359	0.0007	-0.0095	0.0094	31.8845	7.7688	5.7027	-0.4756	-0.5116	-0.5670	0.4365
9.55	-9.5140	-0.1009	-1.6248	-0.0020	-0.0121	0.0039	31.8425	7.6386	5.8584	-0.4756	-0.5116	-0.5671	0.4365
9.56	-9.5048	-0.1123	-1.6275	0.0082	-0.0149	0.0127	31.5569	7.5804	5.8003	-0.4756	-0.5116	-0.5670	0.4365
9.57	-9.5048	-0.1101	-1.6287	0.0085	-0.0142	0.0104	31.8049	7.7013	5.5306	-0.4756	-0.5116	-0.5670	0.4366
9.58	-9.5132	-0.1084	-1.6286	-0.0031	-0.0149	0.0061	31.8782	7.6347	5.6869	-0.4756	-0.5116	-0.5670	0.4366
9.59	-9.5145	-0.1077	-1.6273	0.0066	-0.0086	0.0077	31.7814	7.4113	5.7136	-0.4756	-0.5116	-0.5669	0.4365
9.6	-9.5079	-0.1157	-1.6257	0.0068	-0.0085	0.0080	31.7289	7.4228	5.5741	-0.4756	-0.5117	-0.5670	0.4366
9.61	-9.5114	-0.1088	-1.6256	-0.0014	-0.0094	0.0100	31.7625	7.5500	5.6594	-0.4756	-0.5117	-0.5670	0.4366
9.62	-9.5214	-0.1041	-1.6190	0.0016	-0.0140	0.0038	31.8115	7.6580	5.7099	-0.4756	-0.5117	-0.5670	0.4366
9.63	-9.5167	-0.1051	-1.6055	0.0058	-0.0138	0.0044	31.5008	7.6690	5.6001	-0.4755	-0.5116	-0.5669	0.4366
9.64	-9.5088	-0.1078	-1.6046	0.0054	-0.0092	0.0073	31.6546	7.6575	5.5710	-0.4755	-0.5117	-0.5669	0.4366
9.65	-9.5104	-0.0963	-1.5984	0.0026	-0.0098	0.0075	31.8968	7.6774	5.5034	-0.4755	-0.5117	-0.5669	0.4366
9.66	-9.5063	-0.1078	-1.5921	0.0020	-0.0152	0.0084	31.6439	7.6556	5.5112	-0.4755	-0.5117	-0.5669	0.4366
9.67	-9.5084	-0.1059	-1.5938	-0.0036	-0.0166	0.0060	31.5653	7.6754	5.5242	-0.4756	-0.5117	-0.5670	0.4367
9.68	-9.5133	-0.0969	-1.6070	-0.0027	-0.0160	0.0023	31.5739	7.7628	5.7490	-0.4755	-0.5116	-0.5669	0.4366
9.69	-9.5058	-0.0952	-1.5977	-0.0049	-0.0156	0.0054	31.5580	7.5268	5.6011	-0.4756	-0.5117	-0.5670	0.4367
9.7	-9.5119	-0.0950	-1.5959	-0.0048	-0.0154	0.0062	31.6469	7.7948	5.5945	-0.4756	-0.5116	-0.5669	0.4366
9.71	-9.5100	-0.0992	-1.6052	-0.0042	-0.0184	0.0082	31.8619	7.4773	5.6146	-0.4756	-0.5116	-0.5669	0.4367
9.72	-9.5135	-0.1033	-1.5985	0.0079	-0.0135	0.0090	31.7485	7.6349	5.7709	-0.4756	-0.5116	-0.5669	0.4367
9.73	-9.5101	-0.1052	-1.6031	0.0001	-0.0066	-0.0008	31.7106	7.8209	5.7343	-0.4756	-0.5116	-0.5669	0.4367
9.74	-9.5118	-0.1079	-1.6092	-0.0024	-0.0116	0.0047	31.7549	7.6048	5.4512	-0.4756	-0.5116	-0.5669	0.4367
9.75	-9.5246	-0.0992	-1.5974	0.0068	-0.0190	0.0108	31.7028	7.6123	5.6049	-0.4756	-0.5116	-0.5669	0.4367
9.76	-9.5173	-0.1017	-1.6039	0.0032	-0.0095	0.0067	31.8022	7.7072	5.7023	-0.4756	-0.5116	-0.5669	0.4367
9.77	-9.5218	-0.0921	-1.6024	0.0048	-0.0099	0.0036	31.8084	7.5043	5.3814	-0.4755	-0.5116	-0.5668	0.4367
9.78	-9.5124	-0.0925	-1.6055	0.0020	-0.0122	0.0041	31.8447	7.4848	5.4826	-0.4756	-0.5116	-0.5669	0.4368
9.79	-9.5057	-0.0948	-1.6137	0.0042	-0.0129	0.0068	31.8812	7.5520	5.6666	-0.4755	-0.5116	-0.5669	0.4368
9.8	-9.5059	-0.1027	-1.6113	0.0012	-0.0133	0.0096	31.7278	7.6073	5.5015	-0.4755	-0.5116	-0.5669	0.4368
9.81	-9.5073	-0.1143	-1.6190	0.0042	-0.0085	0.0040	31.7198	7.4854	5.6110	-0.4755	-0.5116	-0.5669	0.4368
9.82	-9.5207	-0.1214	-1.6123	-0.0012	-0.0137	0.0045	31.8757	7.6223	5.7406	-0.4755	-0.5116	-0.5669	0.4368
9.83	-9.5160	-0.1121	-1.6262	-0.0053	-0.0112	0.0033	31.8449	7.5520	5.5922	-0.4755	-0.5116	-0.5669	0.4368
9.84	-9.5154	-0.1081	-1.6179	0.0022	-0.0139	0.0044	31.7999	7.6878	5.3843	-0.4755	-0.5116	-0.5668	0.4368
9.85	-9.5239	-0.1071	-1.6264	-0.0036	-0.0112	0.0055	31.9083	7.5563	5.5769	-0.4755	-0.5116	-0.5669	0.4368
9.86	-9.5129	-0.1045	-1.6247	-0.0024	-0.0144	0.0049	31.7645	7.4871	5.5949	-0.4755	-0.5116	-0.5669	0.4368
9.87	-9.5114	-0.0950	-1.6246	-0.0000	-0.0076	0.0000	31.6557	7.5088	5.6778	-0.4755	-0.5116	-0.5670	0.4368
9.88	-9.5154	-0.0997	-1.6261	0.0010	-0.0080	0.0020	31.6557	7.4804	5.7031	-0.4754	-0.5115	-0.5669	0.4368
9.89	-9.5179	-0.1100	-1.6246	-0.0030	-0.0113	0.0019	31.6224	7.8533	5.5641	-0.4755	-0.5116	-0.5670	0.4368
9.9	-9.5175	-0.1014	-1.6253	-0.0034	-0.0079	0.0042	31.5763	7.5873	5.6206	-0.4755	-0.5115	-0.5670	0.4368
9.91	-9.5077	-0.1139	-1.6193	-0.0039	-0.0086	0.0039	31.7701	7.6588	5.5844	-0.4754	-0.5115	-0.5670	0.4368
9.92	-9.5077	-0.1123	-1.6201	-0.0005	-0.0088	0.0013	31.6113	7.6590	5.6252	-0.4755	-0.5116	-0.5671	0.4368
9.93	-9.5197	-0.1126	-1.6025	-0.0043	-0.0157	0.0069	31.5797	7.5652	5.5532	-0.4754	-0.5115	-0.5670	0.4368
9.94	-9.5242	-0.1036	-1.6020	-0.0027	-0.0177	0.0116	31.7432	7.7819	5.5010	-0.4755	-0.5115	-0.5670	0.4368
9.95	-9.5213	-0.1054	-1.6154	0.0049	-0.0154	0.0081	31.7250	7.6492	5.5135	-0.4754	-0.5115	-0.5669	0.4368
9.96	-9.5130	-0.0960	-1.6159	0.0032	-0.0098	0.0052	31.7443	7.6792	5.5276	-0.4755	-0.5115	-0.5670	0.4368
9.97	-9.5073	-0.1016	-1.6188	0.0032	-0.0084	0.0051	31.7167	7.4845	5.4857	-0.4754	-0.5115	-0.5670	0.4368
9.98	-9.5096	-0.1164	-1.6255	0.0008	-0.0072	0.0087	31.7986	7.5868	5.6383	-0.4754	-0.5115	-0.5670	0.4368
9.99	-9.5089	-0.1142	-1.6200	0.0051	-0.0125	0.0048	31.9113	7.5754	5.3764	-0.4754	-0.5116	-0.5670	0.4369
10	-9.5071	-0.1184	-1.6085	-0.0002	-0.0143	0.0072	31.8954	7.6235	5.5252	-0.4754	-0.5115	-0.5670	0.4368
10.01	-9.5158	-0.1083	-1.6018	0.0033	-0.0162	0.0064	31.6667	7.4779	5.6088	-0.4754	-0.5116	-0.5670	0.4369
10.02	-9.5140	-0.1006	-1.6083	0.0070	-0.0107	0.0050	31.7384	7.6800	5.7559	-0.4754	-0.5115	-0.5669	0.4369
10.03	-9.5073	-0.0961	-1.6008	0.0040	-0.0130	0.0065	32.3768	7.6458	6.0156	-0.4754	-0.5116	-0.5670	0.4369
10.04	-9.5059	-0.0861	-1.6037	0.0042	-0.0095	0.0048	32.2505	7.4820	5.9330	-0.4754	-0.5116	-0.5669	0.4369
10.05	-9.5064	-0.0847	-1.6061	0.0032	-0.0074	0.0033	31.8309	7.6213	5.6087	-0.4753	-0.5116	-0.5670	0.4369
10.06	-9.5082	-0.0962	-1.5993	-0.0004	-0.0071	0.0008	31.5038	7.6327	5.6800	-0.4753	-0.5116	-0.5670	0.4369
10.07	-9.5183	-0.0916	-1.6059	-0.0018	-0.0060	0.0027	31.4926	7.6754	5.5396	-0.4753	-0.5116	-0.5670	0.4369
10.08	-9.5138	-0.0967	-1.5922	0.0074	-0.0161	0.0039	31.6165	7.5913	5.4465	-0.4753	-0.5116	-0.5670	0.4370
10.09	-9.5057	-0.1016	-1.5881	0.0006	-0.0044	-0.0017	31.5775	7.4759	5.6706	-0.4752	-0.5115	-0.5670	0.4369
10.1	-9.5218	-0.0891	-1.6099	-0.0005	-0.0087	0.0002	31.5518	7.6558	5.5889	-0.4752	-0.5116	-0.5671	0.4370
10.11	-9.5055	-0.1001	-1.6117	0.0064	-0.0094	0.0054	31.6659	7.8192	5.6587	-0.4752	-0.5116	-0.5670	0.4370
10.12	-9.5116	-0.1033	-1.6078	-0.0021	-0.0121	0.0076	31.5156	7.7097	5.5274	-0.4752	-0.5116	-0.5671	0.4370
10.13	-9.5215	-0.1130	-1.6223	-0.0019	-0.0143	0.0040	31.6527	7.3739	5.5512	-0.4752	-0.5115	-0.5670	0.4370
10.14	-9.5239	-0.1165	-1.6167	0.0000	-0.0147	0.0070	32.0782	7.5026	5.7602	-0.4752	-0.5116	-0.5670	0.4370
10.15	-9.5118	-0.1201	-1.6168	-0.0013	-0.0125	0.0097	31.9047	7.5328	5.5125	-0.4752	-0.5116	-0.5670	0.4370
10.16	-9.5038	-0.1173	-1.6207	0.0026	-0.0143	0.0036	31.8456	7.5964	5.3310	-0.4752	-0.5115	-0.5670	0.4370
10.17	-9.5103	-0.1230	-1.6168	-0.0017	-0.0123	0.0069	31.8127	7.3812	5.5157	-0.4752	-0.5116	-0.5671	0.4371
10.18	-9.5179	-0.1196	-1.6167	0.0039	-0.0121	0.0045	31.5877	7.5162	5.4947	-0.4752	-0.5116	-0.5670	0.4370
10.19	-9.5167	-0.1105	-1.6293	0.0060	-0.0113	0.0073	31.8179	7.4715	5.4989	-0.4752	-0.5116	-0.5670	0.4371
10.2	-9.5108	-0.1152	-1.6159	-0.0022	-0.0128	0.0049	31.8138	7.4932	5.5665	-0.4751	-0.5115	-0.5670	0.4370
10.21	-9.5201	-0.1207	-1.6085	-0.0009	-0.0133	0.0103	31.8515	7.4870	5.6445	-0.4752	-0.5116	-0.5670	0.4371
10.22	-9.5210	-0.1142	-1.6206	0.0024	-0.0132	0.0105	31.7195	7.6402	5.6055	-0.4752	-0.5116	-0.5670	0.4371
10.23	-9.5116	-0.1075	-1.6179	0.0012	-0.0039	0.0019	31.3615	7.6452	5.7059	-0.4751	-0.5116	-0.5670	0.4371
10.24	-9.5058	-0.1019	-1.6141	-0.0033	-0.0117	0.0052	31.6253	7.6435	5.6160	-0.4752	-0.5116	-0.5670	0.4371
10.25	-9.5081	-0.0978	-1.6115	-0.0022	-0.0101	0.0034	31.5456	7.6498	5.6296	-0.4751	-0.5116	-0.5670	0.4371
10.26	-9.5165	-0.0986	-1.6087	-0.0042	-0.0080	0.0084	31.6494	7.6430	5.5851	-0.4752	-0.5116	-0.5671	0.4370
10.27	-9.5114	-0.0905	-1.6069	-0.0012	-0.0149	0.0046	31.6699	7.6509	5.4151	-0.4751	-0.5115	-0.5670	0.4370
10.28	-9.5123	-0.0937	-1.6020	-0.0020	-0.0089	0.0009	31.6578	7.7400	5.5876	-0.4751	-0.5116	-0.5671	0.4371
10.29	-9.5065	-0.0948	-1.5999	-0.0022	-0.0100	0.0030	31.5209	7.7347	5.6039	-0.4751	-0.5115	-0.5671	0.4370
10.3	-9.5154	-0.0953	-1.5998	-0.0040	-0.0117	0.0051	31.7354	7.6800	5.4272	-0.4751	-0.5115	-0.5671	0.4370
10.31	-9.5176	-0.1028	-1.5934	0.0003	-0.0093	0.0051	31.8199	7.5420	5.5532	-0.4751	-0.5115	-0.5671	0.4370
10.32	-9.5257	-0.1104	-1.6080	-0.0001	-0.0144	0.0025	31.8545	7.5953	5.6667	-0.4751	-0.5115	-0.5671	0.4371
10.33	-9.5159	-0.1123	-1.6111	-0.0052	-0.0146	0.0061	31.8877	7.5184	5.5629	-0.4751	-0.5115	-0.5671	0.4371
10.34	-9.5026	-0.1166	-1.5979	-0.0012	-0.0079	0.0034	31.7113	7.4044	5.5429	-0.4751	-0.5115	-0.5671	0.4370
10.35	-9.5058	-0.1074	-1.6039	0.0028	-0.0101	0.0072	31.8572	7.3849	5.4429	-0.4751	-0.5115	-0.5672	0.4371
10.36	-9.5124	-0.1099	-1.6077	-0.0021	-0.0176	0.0057	31.9424	7.6053	5.4892	-0.4751	-0.5115	-0.5671	0.4371
10.37	-9.5128	-0.1179	-1.6115	-0.0027	-0.0105	0.0045	31.7873	7.6360	5.5817	-0.4751	-0.5115	-0.5672	0.4371
10.38	-9.5158	-0.1083	-1.6100	-0.0029	-0.0092	0.0068	31.6287	7.3550	5.4942	-0.4751	-0.5114	-0.5671	0.4370
10.39	-9.5152	-0.0958	-1.6129	-0.0036	-0.0170	0.0071	31.6960	7.5422	5.6245	-0.4751	-0.5115	-0.5672	0.4371
10.4	-9.5223	-0.1032	-1.6198	0.0008	-0.0179	0.0095	31.7623	7.4005	5.7112	-0.4751	-0.5115	-0.5671	0.4371
10.41	-9.5040	-0.0891	-1.6155	-0.0049	-0.0124	0.0065	31.6716	7.4633	5.5263	-0.4751	-0.5114	-0.5671	0.4370
10.42	-9.5105	-0.0851	-1.6213	-0.0040	-0.0088	-0.0000	31.6444	7.5933	5.5310	-0.4752	-0.5115	-0.5672	0.4371
10.43	-9.5199	-0.0874	-1.6276	0.0003	-0.0085	0.0059	31.7030	7.5428	5.4410	-0.4751	-0.5114	-0.5672	0.4370
10.44	-9.5036	-0.0976	-1.6294	0.0000	-0.0133	0.0051	31.5628	7.6205	5.6508	-0.4751	-0.5115	-0.5672	0.4371
10.45	-9.5146	-0.1051	-1.6261	-0.0016	-0.0131	0.0037	31.6883	7.7409	5.5266	-0.4751	-0.5114	-0.5671	0.4370
10.46	-9.5173	-0.1024	-1.6165	-0.0005	-0.0086	0.0036	31.6042	7.7279	5.5268	-0.4751	-0.5114	-0.5672	0.4371
10.47	-9.5106	-0.0969	-1.6259	0.0018	-0.0089	0.0014	31.5091	7.7277	5.3877	-0.4751	-0.5114	-0.5672	0.4371
10.48	-9.5134	-0.1009	-1.6270	0.0018	-0.0079	0.0007	31.6274	7.7240	5.5715	-0.4750	-0.5114	-0.5672	0.4371
10.49	-9.5189	-0.0951	-1.6313	-0.0037	-0.0134	0.0082	31.4706	7.8188	5.3017	-0.4751	-0.5114	-0.5672	0.4371
10.5	-9.5127	-0.0957	-1.6382	-0.0024	-0.0156	0.0069	31.6577	7.6836	5.4291	-0.4751	-0.5114	-0.5672	0.4371
10.51	-9.5203	-0.0946	-1.6345	-0.0013	-0.0083	0.0061	31.8577	7.4117	5.6312	-0.4751	-0.5114	-0.5673	0.4371
10.52	-9.5086	-0.0993	-1.6250	-0.0034	-0.0131	0.0068	32.0574	7.4032	5.7212	-0.4750	-0.5113	-0.5672	0.4370
10.53	-9.5085	-0.1182	-1.6253	-0.0012	-0.0108	0.0060	32.1746	7.6020	5.8291	-0.4751	-0.5114	-0.5673	0.4371
10.54	-9.5188	-0.1122	-1.6210	-0.0038	-0.0136	0.0095	32.0648	7.5916	5.8138	-0.4751	-0.5114	-0.5672	0.4371
10.55	-9.5120	-0.1165	-1.6099	-0.0007	-0.0122	0.0039	31.8629	7.7415	5.8119	-0.4751	-0.5114	-0.5673	0.4371
10.56	-9.5178	-0.1205	-1.6051	-0.0008	-0.0152	0.0069	31.6898	7.6478	5.5934	-0.4751	-0.5113	-0.5672	0.4371
10.57	-9.5150	-0.1239	-1.6003	0.0010	-0.0147	0.0079	31.6935	7.8144	5.6200	-0.4751	-0.5114	-0.5672	0.4371
10.58	-9.5106	-0.1157	-1.5968	-0.0044	-0.0140	0.0046	31.6909	7.7935	5.7159	-0.4751	-0.5114	-0.5673	0.4371
10.59	-9.5074	-0.1251	-1.5964	0.0076	-0.0175	0.0065	31.5843	7.6418	5.5918	-0.4751	-0.5113	-0.5672	0.4371
10.6	-9.5130	-0.1230	-1.5993	0.0007	-0.0126	0.0064	31.8788	7.6756	5.5946	-0.4751	-0.5114	-0.5672	0.4372
10.61	-9.5092	-0.1195	-1.5929	-0.0053	-0.0140	-0.0006	31.6941	7.6524	5.6204	-0.4751	-0.5113	-0.5672	0.4371
10.62	-9.5095	-0.1164	-1.5939	0.0006	-0.0156	0.0009	31.6079	7.6771	5.7837	-0.4751	-0.5113	-0.5673	0.4372
10.63	-9.5084	-0.1140	-1.5921	-0.0025	-0.0107	0.0079	31.7200	7.5701	5.6868	-0.4751	-0.5113	-0.5672	0.4371
10.64	-9.5106	-0.1092	-1.5971	-0.0023	-0.0119	0.0032	31.7330	7.4776	5.6812	-0.4751	-0.5113	-0.5673	0.4372
10.65	-9.5045	-0.1069	-1.5970	0.0059	-0.0139	0.0066	31.6623	7.6844	5.7058	-0.4751	-0.5113	-0.5672	0.4372
10.66	-9.5126	-0.1157	-1.5967	-0.0014	-0.0089	0.0063	31.6164	7.5697	5.6040	-0.4750	-0.5113	-0.5672	0.4371
10.67	-9.5060	-0.1139	-1.5961	0.0026	-0.0115	0.0021	31.8259	7.5972	5.5050	-0.4751	-0.5113	-0.5673	0.4372
10.68	-9.5204	-0.1218	-1.5988	0.0020	-0.0084	0.0106	31.6809	7.6688	5.6381	-0.4750	-0.5113	-0.5672	0.4372
10.69	-9.5196	-0.1122	-1.5962	-0.0047	-0.0153	0.0142	31.7513	7.4795	5.5636	-0.4751	-0.5113	-0.5673	0.4372
10.7	-9.5120	-0.1094	-1.6092	-0.0039	-0.0127	0.0041	31.6127	7.5123	5.7203	-0.4750	-0.5113	-0.5672	0.4371
10.71	-9.5196	-0.1106	-1.6038	-0.0024	-0.0142	0.0033	31.8550	7.4737	5.6516	-0.4751	-0.5113	-0.5673	0.4372
10.72	-9.5161	-0.0997	-1.6068	0.0017	-0.0125	0.0103	31.8951	7.5609	5.6120	-0.4751	-0.5113	-0.5672	0.4372
10.73	-9.5162	-0.0967	-1.6088	0.0033	-0.0118	0.0058	31.8215	7.5856	5.5220	-0.4751	-0.5113	-0.5672	0.4372
10.74	-9.5190	-0.1001	-1.6056	0.0016	-0.0157	0.0101	31.6962	7.5897	5.5149	-0.4751	-0.5113	-0.5672	0.4372
10.75	-9.5114	-0.1088	-1.6089	0.0004	-0.0130	0.0095	31.6300	7.5488	5.6225	-0.4751	-0.5113	-0.5672	0.4372
10.76	-9.5158	-0.1051	-1.6186	0.0004	-0.0110	0.0077	31.8270	7.6678	5.5955	-0.4751	-0.5113	-0.5672	0.4372
10.77	-9.5099	-0.1124	-1.6249	-0.0052	-0.0164	0.0030	31.6948	7.5771	5.5871	-0.4751	-0.5113	-0.5672	0.4372
10.78	-9.5172	-0.1101	-1.6050	0.0032	-0.0132	0.0099	31.8445	7.5023	5.7406	-0.4751	-0.5113	-0.5672	0.4372
10.79	-9.5128	-0.1050	-1.6148	0.0097	-0.0128	0.0062	31.7039	7.4430	5.7578	-0.4751	-0.5113	-0.5672	0.4372
10.8	-9.5221	-0.0953	-1.6234	0.0072	-0.0105	0.0035	31.5959	7.4550	5.6397	-0.4751	-0.5114	-0.5672	0.4373
10.81	-9.5145	-0.1012	-1.6181	0.0061	-0.0114	0.0052	31.7454	7.6002	5.8195	-0.4750	-0.5113	-0.5671	0.4373
10.82	-9.5164	-0.0940	-1.6091	0.0006	-0.0096	0.0073	31.5739	7.5797	5.7215	-0.4750	-0.5114	-0.5671	0.4373
10.83	-9.5135	-0.0916	-1.6299	0.0019	-0.0097	0.0028	31.7476	7.5350	5.6849	-0.4750	-0.5114	-0.5672	0.4373
10.84	-9.5209	-0.1076	-1.6205	-0.0030	-0.0079	-0.0000	31.8916	7.4652	5.6927	-0.4749	-0.5113	-0.5671	0.4373
10.85	-9.5217	-0.1139	-1.6131	-0.0030	-0.0077	0.0033	31.8749	7.7196	5.6041	-0.4750	-0.5114	-0.5672	0.4373
10.86	-9.5145	-0.1058	-1.6162	-0.0034	-0.0120	0.0062	31.7333	7.8916	5.5527	-0.4750	-0.5113	-0.5672	0.4373
10.87	-9.5203	-0.1191	-1.6103	0.0012	-0.0155	0.0047	31.5078	7.6784	5.7408	-0.4750	-0.5114	-0.5673	0.4373
10.88	-9.5057	-0.1129	-1.6041	0.0021	-0.0148	0.0105	31.7418	7.5758	5.8006	-0.4749	-0.5113	-0.5672	0.4373
10.89	-9.5088	-0.1070	-1.6135	0.0020	-0.0123	0.0046	31.9080	7.5632	5.4136	-0.4750	-0.5113	-0.5672	0.4373
10.9	-9.5188	-0.1055	-1.6112	0.0002	-0.0176	0.0074	31.8828	7.4814	5.6534	-0.4750	-0.5113	-0.5672	0.4373
10.91	-9.5055	-0.1008	-1.6108	-0.0034	-0.0117	0.0069	31.8044	7.4984	5.7381	-0.4750	-0.5113	-0.5672	0.4373
10.92	-9.5096	-0.0934	-1.6046	-0.0001	-0.0147	0.0017	31.8010	7.5993	5.4488	-0.4750	-0.5113	-0.5672	0.4374
10.93	-9.5193	-0.0951	-1.6006	-0.0054	-0.0147	0.0050	31.6737	7.5568	5.3239	-0.4750	-0.5113	-0.5672	0.4373
10.94	-9.5166	-0.0926	-1.6054	-0.0011	-0.0099	0.0048	31.6259	7.6474	5.7825	-0.4750	-0.5113	-0.5672	0.4374
10.95	-9.5071	-0.0915	-1.5988	-0.0046	-0.0135	0.0023	31.6295	7.6609	5.6856	-0.4749	-0.5112	-0.5672	0.4373
10.96	-9.5114	-0.1081	-1.6070	-0.0065	-0.0120	0.0052	31.7511	7.6729	5.6778	-0.4750	-0.5113	-0.5673	0.4373
10.97	-9.5122	-0.1066	-1.5978	0.0002	-0.0165	0.0056	31.6584	7.4658	5.7116	-0.4750	-0.5112	-0.5672	0.4373
10.98	-9.5061	-0.1076	-1.5943	-0.0026	-0.0099	0.0039	31.6168	7.6498	5.9094	-0.4750	-0.5112	-0.5672	0.4373
10.99	-9.5099	-0.1129	-1.6054	-0.0021	-0.0065	0.0012	31.7254	7.6594	5.5314	-0.4750	-0.5112	-0.5673	0.4373
11	-9.5180	-0.0986	-1.6000	-0.0009	-0.0081	0.0044	31.6158	7.5679	5.6819	-0.4749	-0.5112	-0.5673	0.4373
11.01	-9.5079	-0.0929	-1.6073	-0.0060	-0.0125	0.0002	31.6346	7.5246	5.8080	-0.4750	-0.5112	-0.5673	0.4373
11.02	-9.5106	-0.0898	-1.6081	0.0007	-0.0094	0.0059	31.6845	7.5399	5.8190	-0.4749	-0.5111	-0.5673	0.4373
11.03	-9.5094	-0.0932	-1.6074	0.0003	-0.0076	0.0077	32.0286	7.7275	6.0272	-0.4749	-0.5112	-0.5674	0.4373
11.04	-9.5130	-0.0880	-1.6181	-0.0029	-0.0086	0.0023	32.0057	7.5954	5.8333	-0.4749	-0.5112	-0.5673	0.4373
11.05	-9.5187	-0.1017	-1.6120	-0.0064	-0.0068	0.0040	31.9179	7.8085	5.6225	-0.4749	-0.5112	-0.5674	0.4373
11.06	-9.5215	-0.0996	-1.6036	-0.0055	-0.0154	0.0075	31.6510	7.6300	5.5557	-0.4749	-0.5112	-0.5674	0.4373
11.07	-9.5271	-0.1118	-1.6071	-0.0052	-0.0123	0.0062	31.8380	7.3978	5.4753	-0.4749	-0.5112	-0.5674	0.4373
11.08	-9.5182	-0.1214	-1.6144	0.0011	-0.0145	0.0065	31.9264	7.5570	5.7785	-0.4749	-0.5112	-0.5674	0.4373
11.09	-9.5167	-0.1194	-1.5932	-0.0041	-0.0137	0.0026	31.8104	7.4654	5.6319	-0.4749	-0.5111	-0.5674	0.4373
11.1	-9.5195	-0.1055	-1.6110	-0.0039	-0.0128	0.0055	31.7088	7.6318	5.5392	-0.4750	-0.5112	-0.5674	0.4373
11.11	-9.5208	-0.1008	-1.6209	0.0002	-0.0115	0.0044	31.9093	7.5324	5.5584	-0.4749	-0.5111	-0.5674	0.4373
11.12	-9.5201	-0.1040	-1.6221	-0.0073	-0.0119	0.0018	31.8154	7.4945	5.5518	-0.4750	-0.5111	-0.5675	0.4373
11.13	-9.5204	-0.1134	-1.6272	-0.0070	-0.0134	0.0045	31.8366	7.5128	5.5633	-0.4749	-0.5110	-0.5674	0.4373
11.14	-9.5203	-0.1139	-1.6260	-0.0036	-0.0071	0.0061	31.7536	7.4937	5.4215	-0.4749	-0.5111	-0.5675	0.4373
11.15	-9.5175	-0.1187	-1.6322	-0.0026	-0.0123	0.0025	31.6563	7.5260	5.5356	-0.4749	-0.5111	-0.5675	0.4373
11.16	-9.5185	-0.1275	-1.6341	-0.0039	-0.0168	0.0089	31.8277	7.7496	5.5466	-0.4749	-0.5110	-0.5675	0.4372
11.17	-9.5213	-0.1201	-1.6347	-0.0034	-0.0106	0.0012	31.8263	7.7691	5.5576	-0.4750	-0.5111	-0.5676	0.4373
11.18	-9.5136	-0.1238	-1.6281	-0.0013	-0.0092	0.0009	31.7570	7.5874	5.6583	-0.4749	-0.5110	-0.5675	0.4373
11.19	-9.5043	-0.1206	-1.6292	0.0004	-0.0060	0.0028	31.5563	7.6322	5.6321	-0.4749	-0.5110	-0.5676	0.4373
11.2	-9.5086	-0.1155	-1.6275	-0.0020	-0.0041	0.0042	31.5729	7.7519	5.5547	-0.4748	-0.5110	-0.5675	0.4372
11.21	-9.5100	-0.1139	-1.6260	-0.0003	-0.0080	0.0035	31.4860	7.7613	5.4067	-0.4749	-0.5110	-0.5676	0.4373
11.22	-9.5154	-0.1136	-1.6228	-0.0008	-0.0121	0.0046	31.6381	7.8477	5.5226	-0.4748	-0.5110	-0.5676	0.4373
11.23	-9.5027	-0.1098	-1.6122	-0.0040	-0.0054	0.0028	31.6807	7.5545	5.5456	-0.4748	-0.5110	-0.5676	0.4372
11.24	-9.5081	-0.1021	-1.6186	-0.0021	-0.0096	0.0032	31.5234	7.6887	5.6442	-0.4748	-0.5110	-0.5677	0.4372
11.25	-9.5102	-0.1025	-1.6106	-0.0054	-0.0138	0.0034	31.6590	7.7555	5.6153	-0.4748	-0.5110	-0.5677	0.4372
11.26	-9.5010	-0.0966	-1.5967	-0.0054	-0.0198	0.0062	32.1147	7.5753	5.6842	-0.4749	-0.5110	-0.5677	0.4373
11.27	-9.5162	-0.0908	-1.6107	-0.0022	-0.0101	0.0108	31.8785	7.6188	5.4463	-0.4748	-0.5109	-0.5676	0.4372
11.28	-9.5219	-0.0769	-1.6121	-0.0057	-0.0071	0.0083	31.8025	7.4383	5.5949	-0.4749	-0.5110	-0.5677	0.4372
11.29	-9.5029	-0.0748	-1.6014	-0.0055	-0.0155	0.0106	31.8182	7.4814	5.6401	-0.4749	-0.5110	-0.5677	0.4372
11.3	-9.5134	-0.0865	-1.5853	-0.0059	-0.0167	0.0045	31.8103	7.7129	5.4324	-0.4749	-0.5110	-0.5677	0.4372
11.31	-9.5144	-0.0853	-1.5913	-0.0003	-0.0101	0.0043	31.8292	7.4886	5.4913	-0.4749	-0.5109	-0.5677	0.4372
11.32	-9.5135	-0.0887	-1.5862	-0.0055	-0.0181	0.0093	31.6743	7.3676	5.5578	-0.4749	-0.5109	-0.5677	0.4372
11.33	-9.5199	-0.0864	-1.5959	-0.0071	-0.0094	0.0014	31.6810	7.3547	5.5694	-0.4749	-0.5109	-0.5677	0.4372
11.34	-9.5143	-0.1017	-1.5996	-0.0133	-0.0157	0.0033	31.8347	7.5849	5.5289	-0.4749	-0.5108	-0.5677	0.4371
11.35	-9.5003	-0.1077	-1.5912	-0.0032	-0.0126	0.0027	31.8012	7.7073	5.4962	-0.4750	-0.5109	-0.5678	0.4372
11.36	-9.5050	-0.1060	-1.6055	-0.0038	-0.0065	0.0069	31.5597	7.7398	5.4962	-0.4749	-0.5108	-0.5678	0.4371
11.37	-9.5087	-0.1074	-1.6038	-0.0060	-0.0070	0.0039	31.6381	7.8150	5.4982	-0.4750	-0.5109	-0.5679	0.4371
11.38	-9.5172	-0.0923	-1.6044	-0.0007	-0.0076	0.0006	31.6667	7.8374	5.6438	-0.4749	-0.5108	-0.5678	0.4371
11.39	-9.5172	-0.0989	-1.6110	-0.0014	-0.0088	0.0028	31.5261	7.7264	5.4160	-0.4749	-0.5108	-0.5679	0.4371
11.4	-9.5041	-0.0975	-1.6141	-0.0010	-0.0077	0.0016	31.6569	7.7358	5.4486	-0.4749	-0.5108	-0.5679	0.4371
11.41	-9.5137	-0.0934	-1.6169	-0.0021	-0.0079	0.0026	31.5874	7.5351	5.5601	-0.4748	-0.5108	-0.5679	0.4371
11.42	-9.5151	-0.1045	-1.6161	-0.0088	-0.0075	0.0050	31.4785	7.8087	5.4099	-0.4749	-0.5108	-0.5680	0.4371
11.43	-9.5132	-0.1178	-1.6159	-0.0061	-0.0121	0.0043	31.6282	7.6623	5.5386	-0.4749	-0.5108	-0.5679	0.4371
