time	acceleration_x	acceleration_y	acceleration_z	gyroscope_x	gyroscope_y	gyroscope_z	magnetometer_x	magnetometer_y	magnetometer_z	quaternion_w	quaternion_x	quaternion_y	quaternion_z
0	-9.4919	-0.0837	-1.7469	-0.0009	-0.0121	0.0067	31.3565	8.3947	15.2190	0.5953	0.2719	0.7199	-0.2309
0.01	-9.4990	-0.0820	-1.7635	-0.0019	-0.0127	0.0099	31.2587	8.3129	15.3394	0.5954	0.2719	0.7200	-0.2309
0.02	-9.4929	-0.0870	-1.7595	0.0026	-0.0076	0.0073	31.3162	8.2666	15.3593	0.5953	0.2719	0.7199	-0.2309
0.03	-9.4927	-0.0910	-1.7544	0.0009	-0.0064	0.0027	31.1501	8.5538	15.3187	0.5954	0.2719	0.7199	-0.2309
0.04	-9.4794	-0.1021	-1.7370	0.0024	-0.0076	0.0037	31.1332	8.6296	15.1998	0.5953	0.2719	0.7200	-0.2309
0.05	-9.4971	-0.0899	-1.7374	0.0028	-0.0016	0.0045	31.1163	8.3399	15.3620	0.5953	0.2719	0.7199	-0.2309
0.06	-9.4926	-0.0835	-1.7302	0.0063	-0.0076	0.0060	31.1539	8.4918	15.3141	0.5953	0.2719	0.7200	-0.2310
0.07	-9.4971	-0.0615	-1.7171	0.0023	-0.0070	0.0030	30.9501	8.4038	15.3902	0.5953	0.2719	0.7200	-0.2309
0.08	-9.4941	-0.0339	-1.7258	0.0090	-0.0044	0.0045	31.0820	8.3606	15.4300	0.5953	0.2719	0.7200	-0.2310
0.09	-9.4758	-0.0371	-1.7004	-0.0015	-0.0055	0.0051	31.2106	8.3753	15.4512	0.5952	0.2719	0.7199	-0.2309
0.1	-9.5072	-0.0503	-1.7073	0.0025	-0.0126	0.0068	31.3342	8.3863	15.3797	0.5953	0.2719	0.7200	-0.2310
0.11	-9.4869	-0.0550	-1.7042	-0.0002	-0.0106	0.0066	31.3409	8.3453	15.2407	0.5952	0.2719	0.7200	-0.2310
0.12	-9.4899	-0.0645	-1.6969	-0.0012	-0.0083	0.0054	31.2704	8.2073	15.4938	0.5952	0.2719	0.7200	-0.2309
0.13	-9.4854	-0.0802	-1.7008	0.0005	-0.0127	0.0085	31.2131	8.1995	15.2082	0.5953	0.2719	0.7200	-0.2310
0.14	-9.4948	-0.0845	-1.7056	0.0034	-0.0122	0.0042	31.2171	8.3620	15.4364	0.5953	0.2719	0.7200	-0.2310
0.15	-9.4884	-0.0769	-1.7104	-0.0010	-0.0063	0.0042	31.3611	8.3384	15.3771	0.5953	0.2719	0.7200	-0.2310
0.16	-9.4806	-0.0780	-1.7135	-0.0028	-0.0072	0.0116	31.4526	8.2042	15.3331	0.5952	0.2719	0.7199	-0.2309
0.17	-9.4890	-0.0790	-1.7238	0.0044	-0.0076	0.0089	31.2598	8.2039	15.3679	0.5953	0.2720	0.7200	-0.2309
0.18	-9.4961	-0.0773	-1.7285	-0.0020	-0.0102	0.0037	31.3052	8.2474	15.4898	0.5952	0.2719	0.7200	-0.2309
0.19	-9.4956	-0.0852	-1.7346	0.0037	-0.0162	0.0070	31.2290	8.3287	15.5574	0.5953	0.2719	0.7200	-0.2309
0.2	-9.4972	-0.0850	-1.7396	0.0069	-0.0126	0.0087	31.0990	8.1717	15.3930	0.5953	0.2720	0.7199	-0.2309
0.21	-9.4883	-0.0832	-1.7506	0.0006	-0.0068	0.0070	31.1617	8.3658	15.4897	0.5953	0.2720	0.7200	-0.2309
0.22	-9.4883	-0.0883	-1.7529	0.0042	-0.0057	0.0002	31.2163	8.5317	15.4716	0.5953	0.2720	0.7200	-0.2310
0.23	-9.4866	-0.0909	-1.7511	0.0100	-0.0042	0.0037	31.2140	8.5652	15.3997	0.5952	0.2720	0.7199	-0.2310
0.24	-9.4861	-0.0950	-1.7462	0.0041	-0.0056	0.0032	31.0049	8.3098	15.4470	0.5952	0.2720	0.7200	-0.2310
0.25	-9.4968	-0.0890	-1.7459	0.0022	-0.0073	0.0069	31.1054	8.3187	15.2678	0.5952	0.2720	0.7200	-0.2310
0.26	-9.4946	-0.0880	-1.7503	0.0015	-0.0023	0.0022	31.1229	8.4022	15.5097	0.5952	0.2720	0.7201	-0.2310
0.27	-9.4859	-0.0789	-1.7685	0.0045	-0.0085	0.0020	31.2184	8.3495	15.5168	0.5951	0.2720	0.7200	-0.2310
0.28	-9.4868	-0.0816	-1.7742	0.0069	-0.0088	0.0048	30.9621	8.3999	15.5313	0.5951	0.2720	0.7200	-0.2310
0.29	-9.4912	-0.0869	-1.7620	0.0066	-0.0120	0.0102	31.0189	8.4780	15.4333	0.5951	0.2720	0.7200	-0.2311
0.3	-9.4890	-0.0791	-1.7661	-0.0013	-0.0095	0.0033	31.0507	8.3917	15.1945	0.5951	0.2720	0.7200	-0.2310
0.31	-9.4935	-0.0816	-1.7650	-0.0020	-0.0087	0.0052	31.1438	8.1607	15.4122	0.5952	0.2720	0.7201	-0.2311
0.32	-9.4935	-0.0866	-1.7690	-0.0013	-0.0087	0.0073	31.6223	8.4147	15.5385	0.5951	0.2720	0.7200	-0.2310
0.33	-9.4905	-0.0767	-1.7405	0.0103	-0.0057	0.0101	31.7399	8.4548	15.3313	0.5951	0.2721	0.7201	-0.2311
0.34	-9.4852	-0.0778	-1.7443	0.0141	-0.0120	0.0050	31.5178	8.2507	15.3878	0.5951	0.2721	0.7200	-0.2311
0.35	-9.4946	-0.0881	-1.7480	0.0058	-0.0166	0.0046	31.3652	8.1810	15.2985	0.5951	0.2721	0.7200	-0.2311
0.36	-9.4848	-0.0885	-1.7370	0.0030	-0.0168	0.0065	31.1625	8.3851	15.3958	0.5951	0.2721	0.7200	-0.2311
0.37	-9.4866	-0.0778	-1.7236	0.0054	-0.0132	0.0046	31.1911	8.5248	15.2880	0.5951	0.2721	0.7199	-0.2312
0.38	-9.4963	-0.0823	-1.7123	0.0022	-0.0069	0.0064	31.2886	8.5837	15.2969	0.5951	0.2721	0.7200	-0.2312
0.39	-9.4950	-0.0813	-1.7218	0.0097	-0.0134	0.0076	31.4296	8.3953	15.2635	0.5951	0.2721	0.7199	-0.2312
0.4	-9.4810	-0.0791	-1.7254	0.0040	-0.0076	0.0057	31.3932	8.4577	15.3880	0.5951	0.2722	0.7200	-0.2312
0.41	-9.4917	-0.0600	-1.7142	0.0061	-0.0126	0.0036	31.3499	8.3506	15.2772	0.5951	0.2721	0.7199	-0.2312
0.42	-9.4914	-0.0578	-1.7122	0.0025	-0.0071	0.0110	31.3611	8.4300	15.3362	0.5951	0.2722	0.7199	-0.2312
0.43	-9.4853	-0.0524	-1.7084	0.0009	-0.0069	0.0027	31.2363	8.3225	15.6435	0.5951	0.2722	0.7199	-0.2312
0.44	-9.4880	-0.0525	-1.7114	0.0007	-0.0063	0.0009	31.3253	8.3590	15.1717	0.5951	0.2722	0.7200	-0.2312
0.45	-9.4894	-0.0585	-1.7314	0.0009	-0.0039	0.0052	31.1642	8.3449	15.3099	0.5951	0.2721	0.7200	-0.2312
0.46	-9.4868	-0.0612	-1.7281	0.0013	-0.0103	0.0023	31.2499	8.4525	15.3951	0.5951	0.2721	0.7200	-0.2312
0.47	-9.4843	-0.0755	-1.7365	0.0014	-0.0102	0.0045	31.2789	8.2378	15.1779	0.5951	0.2721	0.7200	-0.2312
0.48	-9.4924	-0.0854	-1.7339	0.0039	-0.0048	0.0043	31.3664	8.3632	15.3084	0.5950	0.2721	0.7199	-0.2312
0.49	-9.4939	-0.0870	-1.7352	0.0053	-0.0131	0.0089	31.3470	8.3351	15.3666	0.5951	0.2722	0.7200	-0.2313
0.5	-9.4919	-0.0896	-1.7355	0.0029	-0.0126	0.0096	31.4099	8.1081	15.4575	0.5951	0.2722	0.7199	-0.2313
0.51	-9.4934	-0.0846	-1.7428	0.0032	-0.0086	0.0043	31.4374	8.3415	15.4172	0.5951	0.2722	0.7200	-0.2313
0.52	-9.4950	-0.0768	-1.7414	0.0033	-0.0092	0.0105	31.5389	8.3712	15.2909	0.5950	0.2722	0.7199	-0.2313
0.53	-9.4870	-0.0938	-1.7455	0.0021	-0.0101	0.0068	31.5878	8.2248	15.5050	0.5951	0.2722	0.7199	-0.2313
0.54	-9.4871	-0.0821	-1.7378	0.0010	-0.0063	0.0059	31.1708	8.3396	15.3184	0.5951	0.2722	0.7200	-0.2313
0.55	-9.4912	-0.0777	-1.7419	0.0055	-0.0171	0.0061	31.2823	8.3380	15.4878	0.5950	0.2722	0.7199	-0.2313
0.56	-9.4919	-0.0893	-1.7353	0.0047	-0.0110	0.0088	31.2823	8.3759	15.3723	0.5951	0.2723	0.7200	-0.2313
0.57	-9.4970	-0.0963	-1.7256	-0.0026	-0.0119	0.0107	31.2876	8.4155	15.2187	0.5951	0.2722	0.7199	-0.2313
0.58	-9.4938	-0.0987	-1.7325	0.0066	-0.0156	0.0108	31.2836	8.3128	15.2547	0.5952	0.2723	0.7199	-0.2313
0.59	-9.4862	-0.0994	-1.7290	0.0164	-0.0070	0.0063	31.2844	8.4458	15.3878	0.5950	0.2723	0.7198	-0.2313
0.6	-9.4899	-0.0936	-1.7182	0.0019	-0.0086	0.0020	31.2692	8.3265	15.3931	0.5951	0.2723	0.7199	-0.2313
0.61	-9.4883	-0.0931	-1.7149	-0.0001	-0.0102	0.0052	31.1552	8.3645	15.5037	0.5951	0.2723	0.7199	-0.2313
0.62	-9.4926	-0.0743	-1.7050	0.0074	-0.0096	0.0016	31.2899	8.5664	15.3800	0.5951	0.2723	0.7199	-0.2314
0.63	-9.4877	-0.0759	-1.7026	0.0097	-0.0050	0.0050	31.2724	8.2748	15.3615	0.5951	0.2723	0.7199	-0.2314
0.64	-9.4838	-0.0611	-1.6997	0.0019	-0.0093	0.0079	31.1817	8.2193	15.5554	0.5950	0.2723	0.7199	-0.2314
0.65	-9.4947	-0.0593	-1.7095	0.0020	-0.0114	0.0068	31.4012	8.4045	15.2790	0.5951	0.2723	0.7199	-0.2314
0.66	-9.4909	-0.0734	-1.7092	0.0103	-0.0065	0.0041	31.1966	8.3139	15.4800	0.5950	0.2723	0.7198	-0.2314
0.67	-9.4952	-0.0883	-1.7093	-0.0008	-0.0142	0.0065	31.0929	8.4624	15.4217	0.5951	0.2724	0.7199	-0.2314
0.68	-9.4908	-0.0873	-1.7054	0.0035	-0.0092	0.0111	31.3078	8.4110	15.2704	0.5950	0.2724	0.7198	-0.2314
0.69	-9.4880	-0.0853	-1.7213	0.0126	-0.0113	0.0039	31.4397	8.4513	15.4986	0.5950	0.2724	0.7198	-0.2315
0.7	-9.4755	-0.0863	-1.7262	0.0054	-0.0111	0.0067	31.4485	8.4207	15.4617	0.5950	0.2724	0.7198	-0.2315
0.71	-9.4985	-0.0781	-1.7129	0.0028	-0.0116	0.0080	31.4150	8.3381	15.3409	0.5950	0.2724	0.7198	-0.2315
0.72	-9.4856	-0.0793	-1.7230	0.0089	-0.0097	0.0111	31.1579	8.3502	15.4677	0.5951	0.2725	0.7198	-0.2315
0.73	-9.4772	-0.0770	-1.7217	0.0131	-0.0096	0.0043	31.3031	8.3475	15.3867	0.5950	0.2725	0.7197	-0.2315
0.74	-9.4898	-0.0723	-1.7349	0.0062	-0.0083	0.0096	31.2532	8.3476	15.2883	0.5950	0.2725	0.7198	-0.2316
0.75	-9.4827	-0.0683	-1.7430	0.0006	-0.0068	0.0068	31.2179	8.3523	15.4044	0.5950	0.2725	0.7198	-0.2315
0.76	-9.4915	-0.0781	-1.7459	0.0046	-0.0077	0.0060	31.3241	8.3342	15.4113	0.5950	0.2726	0.7198	-0.2316
0.77	-9.4857	-0.0751	-1.7469	0.0016	-0.0070	0.0104	31.1631	8.4417	15.6046	0.5950	0.2725	0.7197	-0.2315
0.78	-9.4817	-0.0776	-1.7569	0.0049	-0.0042	0.0008	31.3324	8.4140	15.3717	0.5950	0.2726	0.7198	-0.2316
0.79	-9.4944	-0.0853	-1.7509	-0.0009	-0.0098	0.0100	31.2059	8.3048	15.4598	0.5950	0.2726	0.7198	-0.2315
0.8	-9.4839	-0.0956	-1.7636	-0.0030	-0.0119	0.0062	31.2063	8.4478	15.3896	0.5950	0.2725	0.7197	-0.2315
0.81	-9.4833	-0.0943	-1.7683	0.0023	-0.0059	0.0043	31.1822	8.3220	15.2842	0.5950	0.2726	0.7199	-0.2315
0.82	-9.4918	-0.0881	-1.7665	0.0034	-0.0048	0.0009	31.3883	8.3851	15.5539	0.5949	0.2726	0.7198	-0.2315
0.83	-9.4836	-0.0869	-1.7614	-0.0037	-0.0090	0.0058	31.6305	8.4739	15.5712	0.5950	0.2726	0.7199	-0.2315
0.84	-9.4900	-0.0816	-1.7566	0.0006	-0.0050	0.0092	31.5261	8.3540	15.5309	0.5949	0.2725	0.7198	-0.2315
0.85	-9.5007	-0.0815	-1.7635	-0.0014	-0.0072	0.0063	31.3314	8.4102	15.5194	0.5949	0.2726	0.7199	-0.2315
0.86	-9.5025	-0.0876	-1.7535	0.0130	-0.0149	0.0112	31.1375	8.2045	15.5315	0.5949	0.2726	0.7198	-0.2315
0.87	-9.4895	-0.0824	-1.7435	0.0044	-0.0132	0.0100	31.3855	8.1110	15.3290	0.5949	0.2726	0.7198	-0.2315
0.88	-9.4912	-0.0802	-1.7413	0.0005	-0.0085	0.0074	31.2581	8.2465	15.4424	0.5950	0.2726	0.7198	-0.2315
0.89	-9.4910	-0.0841	-1.7370	0.0071	-0.0103	0.0074	31.2791	8.2165	15.4723	0.5950	0.2726	0.7198	-0.2315
0.9	-9.4835	-0.0709	-1.7192	0.0020	-0.0144	0.0081	31.2592	8.2231	15.5135	0.5950	0.2727	0.7198	-0.2316
0.91	-9.4939	-0.0761	-1.7166	0.0093	-0.0129	0.0102	31.3501	8.2330	15.3040	0.5949	0.2727	0.7197	-0.2315
0.92	-9.5047	-0.0666	-1.7163	0.0020	-0.0092	0.0057	31.3690	8.2091	15.4002	0.5950	0.2727	0.7198	-0.2316
0.93	-9.4982	-0.0716	-1.7189	-0.0034	-0.0146	0.0100	31.1839	8.2604	15.2642	0.5950	0.2727	0.7197	-0.2315
0.94	-9.4862	-0.0708	-1.7190	-0.0006	-0.0068	0.0060	31.2744	8.1088	15.3325	0.5950	0.2727	0.7197	-0.2315
0.95	-9.4909	-0.0743	-1.7110	0.0045	-0.0183	0.0107	31.2649	8.3489	15.4344	0.5950	0.2727	0.7197	-0.2315
0.96	-9.4979	-0.0872	-1.7074	0.0041	-0.0110	0.0078	31.1821	8.4697	15.4648	0.5950	0.2727	0.7197	-0.2316
0.97	-9.4884	-0.0745	-1.7065	-0.0002	-0.0133	0.0010	31.1717	8.3592	15.5016	0.5951	0.2727	0.7197	-0.2316
0.98	-9.4872	-0.0728	-1.7066	-0.0040	-0.0061	0.0042	31.2892	8.3928	15.3185	0.5950	0.2726	0.7196	-0.2315
0.99	-9.4877	-0.0637	-1.7233	0.0013	-0.0064	0.0054	31.2412	8.4045	15.3564	0.5951	0.2727	0.7197	-0.2316
1	-9.4901	-0.0597	-1.7273	0.0003	-0.0064	-0.0005	31.1004	8.4773	15.3347	0.5950	0.2726	0.7197	-0.2316
1.01	-9.4925	-0.0665	-1.7220	0.0008	-0.0097	0.0038	31.4997	8.4978	15.3462	0.5951	0.2727	0.7198	-0.2316
1.02	-9.4854	-0.0618	-1.7222	0.0008	-0.0123	0.0040	31.2420	8.3559	15.3577	0.5950	0.2726	0.7197	-0.2316
1.03	-9.4811	-0.0670	-1.7210	-0.0044	-0.0119	0.0042	30.9787	8.3380	15.1988	0.5950	0.2726	0.7197	-0.2316
1.04	-9.4946	-0.0830	-1.7246	-0.0049	-0.0105	0.0074	31.1135	8.5008	15.3501	0.5951	0.2726	0.7197	-0.2315
1.05	-9.4986	-0.0855	-1.7282	-0.0017	-0.0186	0.0090	31.3759	8.1918	15.2509	0.5951	0.2726	0.7197	-0.2315
1.06	-9.4872	-0.0899	-1.7321	-0.0006	-0.0071	0.0052	31.4242	8.2468	15.3920	0.5951	0.2726	0.7198	-0.2315
1.07	-9.4907	-0.0868	-1.7263	-0.0022	-0.0090	0.0071	31.3477	8.2097	15.5593	0.5951	0.2726	0.7197	-0.2315
1.08	-9.4968	-0.0904	-1.7351	0.0004	-0.0073	0.0068	31.2963	8.2416	15.5304	0.5951	0.2726	0.7198	-0.2315
1.09	-9.4897	-0.0862	-1.7321	-0.0022	-0.0096	0.0126	31.2615	8.2000	15.4250	0.5951	0.2726	0.7197	-0.2314
1.1	-9.4929	-0.0885	-1.7311	0.0041	-0.0086	0.0052	31.2690	8.2623	15.4677	0.5951	0.2726	0.7197	-0.2315
1.11	-9.4930	-0.0902	-1.7396	0.0065	-0.0091	0.0044	31.3046	8.3016	15.5128	0.5951	0.2726	0.7197	-0.2315
1.12	-9.4875	-0.0926	-1.7362	-0.0002	-0.0095	0.0072	31.3930	8.3775	15.3312	0.5951	0.2726	0.7197	-0.2315
1.13	-9.4870	-0.0985	-1.7253	-0.0004	-0.0059	0.0061	31.2370	8.4800	15.3434	0.5951	0.2726	0.7197	-0.2315
1.14	-9.4888	-0.0959	-1.7207	0.0027	-0.0153	0.0099	31.1994	8.2408	15.3589	0.5951	0.2726	0.7197	-0.2315
1.15	-9.4887	-0.0964	-1.7095	0.0137	-0.0102	0.0061	31.1533	8.3758	15.3138	0.5951	0.2726	0.7197	-0.2315
1.16	-9.4853	-0.0812	-1.7178	0.0105	-0.0072	0.0043	31.0208	8.4614	15.4523	0.5950	0.2726	0.7196	-0.2315
1.17	-9.4854	-0.0544	-1.7140	0.0101	-0.0056	0.0039	30.9327	8.4741	15.3747	0.5951	0.2727	0.7197	-0.2316
1.18	-9.4913	-0.0442	-1.6961	0.0058	-0.0063	0.0034	31.1323	8.4457	15.2314	0.5950	0.2727	0.7197	-0.2316
1.19	-9.4922	-0.0385	-1.7176	0.0017	-0.0046	0.0060	31.0257	8.2733	15.4836	0.5950	0.2727	0.7197	-0.2316
1.2	-9.4884	-0.0238	-1.7241	0.0031	-0.0054	0.0058	31.1336	8.4872	15.2123	0.5950	0.2727	0.7197	-0.2316
1.21	-9.4832	-0.0359	-1.7252	-0.0026	-0.0062	0.0019	31.0786	8.5748	15.3991	0.5950	0.2727	0.7197	-0.2316
1.22	-9.4809	-0.0539	-1.7378	0.0011	-0.0067	0.0033	31.0231	8.3205	15.4380	0.5950	0.2727	0.7197	-0.2316
1.23	-9.4911	-0.0673	-1.7424	-0.0013	-0.0142	0.0107	31.0099	8.2860	15.4224	0.5949	0.2727	0.7197	-0.2316
1.24	-9.4921	-0.0848	-1.7547	-0.0021	-0.0099	0.0068	31.2538	8.4073	15.4405	0.5950	0.2727	0.7198	-0.2316
1.25	-9.4790	-0.0983	-1.7595	-0.0042	-0.0102	0.0062	31.5017	8.3838	15.5681	0.5950	0.2727	0.7197	-0.2316
1.26	-9.4936	-0.1018	-1.7690	-0.0122	-0.0106	0.0040	31.3408	8.1548	15.4513	0.5951	0.2726	0.7198	-0.2315
1.27	-9.4843	-0.0988	-1.7553	0.0000	-0.0068	0.0038	31.3645	8.1356	15.3549	0.5950	0.2726	0.7197	-0.2315
1.28	-9.4835	-0.1012	-1.7516	0.0060	-0.0050	0.0081	31.3414	8.2502	15.4476	0.5950	0.2726	0.7197	-0.2315
1.29	-9.5055	-0.1158	-1.7673	0.0009	-0.0074	0.0063	31.2031	8.2226	15.4529	0.5950	0.2726	0.7198	-0.2315
1.3	-9.5023	-0.0965	-1.7474	-0.0042	-0.0120	0.0041	31.1873	8.4923	15.3447	0.5950	0.2726	0.7197	-0.2315
1.31	-9.4881	-0.0847	-1.7473	0.0050	-0.0113	0.0055	31.1988	8.4510	15.2481	0.5951	0.2726	0.7198	-0.2315
1.32	-9.4923	-0.0845	-1.7539	0.0077	-0.0063	0.0022	31.3311	8.3822	15.5293	0.5950	0.2726	0.7197	-0.2315
1.33	-9.4989	-0.0781	-1.7490	-0.0012	-0.0077	0.0061	31.5431	8.5888	15.7287	0.5950	0.2726	0.7198	-0.2315
1.34	-9.4878	-0.0800	-1.7479	-0.0024	-0.0054	0.0036	31.3794	8.4514	15.5381	0.5949	0.2726	0.7197	-0.2315
1.35	-9.4892	-0.0791	-1.7383	0.0006	-0.0068	0.0077	31.3512	8.3035	15.4677	0.5950	0.2726	0.7198	-0.2315
1.36	-9.4878	-0.0912	-1.7370	0.0036	-0.0060	0.0046	31.3102	8.2725	15.3633	0.5950	0.2726	0.7198	-0.2315
1.37	-9.4897	-0.0821	-1.7378	-0.0006	-0.0085	0.0050	31.3179	8.2637	15.3529	0.5949	0.2726	0.7198	-0.2315
1.38	-9.4919	-0.0808	-1.7301	-0.0030	-0.0062	0.0052	31.0495	8.2441	15.5248	0.5950	0.2726	0.7198	-0.2315
1.39	-9.4849	-0.0765	-1.7340	-0.0022	-0.0088	0.0037	31.0891	8.4022	15.4492	0.5950	0.2726	0.7198	-0.2315
1.4	-9.4887	-0.0687	-1.7326	0.0004	-0.0069	0.0044	31.2338	8.4107	15.3097	0.5950	0.2726	0.7199	-0.2315
1.41	-9.4880	-0.0681	-1.7317	0.0031	-0.0104	0.0079	31.1794	8.5198	15.3762	0.5949	0.2726	0.7198	-0.2315
1.42	-9.4835	-0.0709	-1.7323	0.0001	-0.0119	0.0100	31.1838	8.3802	15.4166	0.5950	0.2726	0.7198	-0.2315
1.43	-9.4957	-0.0743	-1.7381	-0.0044	-0.0092	0.0084	31.2458	8.2031	15.3637	0.5950	0.2726	0.7198	-0.2315
1.44	-9.4921	-0.0884	-1.7278	0.0022	-0.0157	0.0133	31.2438	8.3421	15.2267	0.5950	0.2726	0.7198	-0.2314
1.45	-9.4952	-0.0823	-1.7253	0.0035	-0.0064	0.0076	31.0818	8.4279	15.2058	0.5950	0.2726	0.7198	-0.2314
1.46	-9.4953	-0.0936	-1.7218	-0.0050	-0.0099	0.0045	31.2580	8.2994	15.2486	0.5950	0.2726	0.7198	-0.2314
1.47	-9.4829	-0.0898	-1.7310	0.0061	-0.0074	0.0044	31.1056	8.0444	15.3621	0.5950	0.2726	0.7198	-0.2314
1.48	-9.4865	-0.0776	-1.7231	0.0024	-0.0149	0.0050	31.1913	8.2584	15.1904	0.5950	0.2726	0.7197	-0.2314
1.49	-9.4902	-0.0670	-1.7320	0.0015	-0.0146	0.0095	31.2914	8.4458	15.4567	0.5951	0.2726	0.7198	-0.2315
1.5	-9.4866	-0.0544	-1.7296	0.0051	-0.0140	0.0120	30.9905	8.2929	15.4637	0.5950	0.2726	0.7197	-0.2315
1.51	-9.4930	-0.0666	-1.7256	0.0008	-0.0140	0.0098	31.1554	8.3779	15.3126	0.5951	0.2727	0.7198	-0.2315
1.52	-9.4788	-0.0628	-1.7260	0.0041	-0.0099	0.0081	31.3858	8.2280	15.2187	0.5950	0.2726	0.7197	-0.2314
1.53	-9.4882	-0.0680	-1.7341	-0.0059	-0.0056	0.0078	31.2295	8.4103	15.4622	0.5951	0.2727	0.7197	-0.2314
1.54	-9.4884	-0.0741	-1.7320	-0.0006	-0.0081	0.0028	31.1711	8.3827	15.3021	0.5951	0.2726	0.7197	-0.2314
1.55	-9.4881	-0.0849	-1.7309	0.0004	-0.0141	0.0030	31.2243	8.3076	15.3902	0.5951	0.2726	0.7197	-0.2314
1.56	-9.4871	-0.0832	-1.7279	-0.0046	-0.0159	0.0064	31.1453	8.4581	15.3957	0.5952	0.2726	0.7198	-0.2314
1.57	-9.4838	-0.0776	-1.7300	-0.0019	-0.0128	0.0038	31.1704	8.5169	15.3985	0.5951	0.2726	0.7197	-0.2314
1.58	-9.4883	-0.0773	-1.7260	-0.0013	-0.0093	0.0011	31.3305	8.4933	15.3725	0.5952	0.2726	0.7197	-0.2314
1.59	-9.4863	-0.0802	-1.7335	-0.0022	-0.0148	0.0049	31.1017	8.5974	15.4921	0.5951	0.2725	0.7196	-0.2314
1.6	-9.4918	-0.0927	-1.7351	-0.0020	-0.0130	0.0132	31.0727	8.3660	15.5612	0.5952	0.2725	0.7197	-0.2314
1.61	-9.4881	-0.0853	-1.7471	-0.0048	-0.0175	0.0094	31.0778	8.3263	15.2777	0.5952	0.2725	0.7197	-0.2314
1.62	-9.4824	-0.0773	-1.7422	0.0037	-0.0162	0.0072	31.3811	8.3488	15.3906	0.5952	0.2725	0.7196	-0.2314
1.63	-9.4824	-0.0818	-1.7611	-0.0031	-0.0158	0.0080	31.2671	8.4233	15.4186	0.5953	0.2725	0.7196	-0.2314
1.64	-9.4735	-0.0806	-1.7537	-0.0003	-0.0079	0.0089	31.2497	8.1958	15.3541	0.5953	0.2725	0.7196	-0.2314
1.65	-9.4863	-0.0851	-1.7508	0.0021	-0.0099	0.0079	31.1741	8.3503	15.3291	0.5953	0.2725	0.7196	-0.2314
1.66	-9.4856	-0.0915	-1.7489	0.0028	-0.0148	0.0079	31.2034	8.2565	15.5376	0.5953	0.2725	0.7195	-0.2313
1.67	-9.4831	-0.0941	-1.7471	0.0051	-0.0129	0.0042	31.0938	8.3513	15.2187	0.5953	0.2725	0.7196	-0.2314
1.68	-9.4790	-0.0917	-1.7520	-0.0034	-0.0065	0.0104	31.1345	8.3325	15.2741	0.5953	0.2725	0.7196	-0.2314
1.69	-9.4922	-0.0941	-1.7449	-0.0036	-0.0131	0.0149	31.0863	8.3584	15.3163	0.5954	0.2726	0.7196	-0.2313
1.7	-9.5050	-0.0944	-1.7347	0.0014	-0.0134	0.0073	31.3037	8.1569	15.3176	0.5954	0.2725	0.7195	-0.2313
1.71	-9.4872	-0.0846	-1.7385	0.0044	-0.0119	0.0065	31.2494	8.4205	15.4202	0.5954	0.2726	0.7195	-0.2313
1.72	-9.4761	-0.0653	-1.7334	0.0006	-0.0113	0.0108	31.1445	8.4057	15.5791	0.5954	0.2726	0.7195	-0.2313
1.73	-9.4823	-0.0609	-1.7394	-0.0003	-0.0091	0.0099	31.2984	8.5117	15.4748	0.5954	0.2726	0.7195	-0.2313
1.74	-9.4795	-0.0608	-1.7385	-0.0033	-0.0139	0.0017	31.1429	8.4067	15.5045	0.5955	0.2726	0.7196	-0.2313
1.75	-9.4790	-0.0716	-1.7369	-0.0091	-0.0107	0.0091	31.1397	8.2960	15.4102	0.5954	0.2725	0.7195	-0.2313
1.76	-9.4874	-0.0773	-1.7362	-0.0053	-0.0132	0.0039	31.2248	8.4349	15.2447	0.5955	0.2725	0.7196	-0.2313
1.77	-9.4908	-0.0952	-1.7454	-0.0022	-0.0191	0.0051	31.1791	8.3324	15.4432	0.5955	0.2725	0.7194	-0.2312
1.78	-9.4919	-0.1123	-1.7394	0.0040	-0.0068	0.0092	31.0942	8.3459	15.3470	0.5955	0.2725	0.7195	-0.2312
1.79	-9.4932	-0.1244	-1.7359	0.0058	-0.0163	0.0106	31.1539	8.3078	15.3035	0.5955	0.2725	0.7195	-0.2313
1.8	-9.4875	-0.1189	-1.7317	0.0025	-0.0112	0.0063	31.2862	8.1681	15.3119	0.5955	0.2725	0.7194	-0.2312
1.81	-9.4795	-0.1184	-1.7222	0.0014	-0.0140	0.0082	31.2684	8.0893	15.3308	0.5956	0.2725	0.7195	-0.2313
1.82	-9.4837	-0.1085	-1.7233	0.0111	-0.0076	0.0089	31.5561	8.3700	15.4338	0.5955	0.2725	0.7194	-0.2313
1.83	-9.4921	-0.0821	-1.7154	0.0093	-0.0067	0.0057	31.7972	8.4893	15.6004	0.5956	0.2726	0.7195	-0.2313
1.84	-9.4839	-0.0609	-1.7051	0.0037	-0.0087	0.0066	31.5692	8.2520	15.4535	0.5955	0.2726	0.7194	-0.2313
1.85	-9.4901	-0.0559	-1.7171	0.0085	-0.0060	0.0026	31.2709	8.1992	15.3829	0.5955	0.2726	0.7194	-0.2314
1.86	-9.4895	-0.0554	-1.7133	-0.0011	-0.0098	0.0050	31.1628	8.2544	15.3306	0.5955	0.2726	0.7194	-0.2313
1.87	-9.4863	-0.0601	-1.7162	-0.0032	-0.0055	0.0038	31.4276	8.2059	15.1454	0.5955	0.2726	0.7194	-0.2313
1.88	-9.4883	-0.0623	-1.7294	0.0054	-0.0062	0.0069	31.1717	8.3164	15.2481	0.5955	0.2726	0.7195	-0.2313
1.89	-9.4941	-0.0768	-1.7354	0.0046	-0.0124	0.0116	31.2654	8.4291	15.5374	0.5955	0.2726	0.7194	-0.2313
1.9	-9.4884	-0.0695	-1.7336	-0.0014	-0.0126	0.0054	31.0666	8.4926	15.3738	0.5955	0.2726	0.7194	-0.2313
1.91	-9.4870	-0.0648	-1.7244	-0.0022	-0.0101	0.0019	31.1285	8.3721	15.2460	0.5955	0.2726	0.7194	-0.2313
1.92	-9.4965	-0.0771	-1.7419	0.0004	-0.0080	0.0072	31.2227	8.4889	15.1988	0.5955	0.2726	0.7194	-0.2313
1.93	-9.4849	-0.0801	-1.7366	-0.0036	-0.0074	0.0011	31.1137	8.4535	15.2063	0.5955	0.2726	0.7194	-0.2313
1.94	-9.4832	-0.0761	-1.7436	-0.0022	-0.0042	0.0022	31.1397	8.4929	15.1791	0.5955	0.2725	0.7195	-0.2313
1.95	-9.4898	-0.0762	-1.7442	-0.0026	-0.0112	0.0072	31.1612	8.2760	15.1600	0.5955	0.2725	0.7194	-0.2313
1.96	-9.4854	-0.0812	-1.7446	0.0047	-0.0070	0.0047	31.0759	8.4390	15.2412	0.5955	0.2725	0.7195	-0.2313
1.97	-9.4834	-0.0697	-1.7394	0.0058	-0.0102	0.0062	30.9582	8.4532	15.3116	0.5955	0.2725	0.7195	-0.2313
1.98	-9.4952	-0.0649	-1.7425	-0.0006	-0.0105	0.0027	31.2480	8.2024	15.2493	0.5954	0.2725	0.7194	-0.2313
1.99	-9.4913	-0.0623	-1.7371	0.0103	-0.0112	0.0100	31.2023	8.1398	15.3785	0.5955	0.2726	0.7195	-0.2314
2	-9.4914	-0.0657	-1.7317	-0.0003	-0.0143	0.0099	31.3636	8.2558	15.3981	0.5955	0.2726	0.7194	-0.2313
2.01	-9.4934	-0.0672	-1.7347	0.0034	-0.0092	0.0078	31.3798	8.2000	15.3584	0.5956	0.2726	0.7195	-0.2314
2.02	-9.4943	-0.0716	-1.7387	-0.0055	-0.0073	0.0020	31.3694	8.2521	15.5771	0.5955	0.2725	0.7194	-0.2313
2.03	-9.4861	-0.0837	-1.7478	0.0032	-0.0099	0.0053	31.3767	8.1799	15.2142	0.5955	0.2725	0.7194	-0.2313
2.04	-9.4896	-0.0874	-1.7499	-0.0010	-0.0071	0.0081	31.3872	8.3218	15.1875	0.5955	0.2726	0.7194	-0.2313
2.05	-9.4883	-0.0931	-1.7498	0.0003	-0.0072	0.0033	31.3626	8.2046	15.3635	0.5955	0.2725	0.7194	-0.2313
2.06	-9.4860	-0.0949	-1.7423	-0.0011	-0.0096	0.0064	31.4036	8.2733	15.2339	0.5956	0.2726	0.7195	-0.2313
2.07	-9.4888	-0.0887	-1.7485	0.0002	-0.0093	0.0038	31.3250	8.3632	15.2645	0.5955	0.2725	0.7194	-0.2313
2.08	-9.4917	-0.0826	-1.7487	0.0026	-0.0140	0.0054	31.1038	8.1367	15.4422	0.5956	0.2725	0.7195	-0.2314
2.09	-9.4894	-0.0781	-1.7451	-0.0020	-0.0037	0.0037	31.2218	8.4120	15.3936	0.5955	0.2725	0.7194	-0.2313
2.1	-9.4878	-0.0855	-1.7427	-0.0063	-0.0076	0.0013	31.2150	8.4953	15.3596	0.5955	0.2725	0.7195	-0.2313
2.11	-9.4889	-0.0838	-1.7464	-0.0049	-0.0058	0.0025	31.1895	8.3989	15.5650	0.5955	0.2724	0.7195	-0.2313
2.12	-9.4886	-0.0955	-1.7493	-0.0100	-0.0032	0.0026	31.0200	8.4412	15.4221	0.5955	0.2724	0.7195	-0.2313
2.13	-9.4861	-0.0945	-1.7579	-0.0065	-0.0038	0.0049	31.1682	8.4810	15.2966	0.5955	0.2724	0.7196	-0.2312
2.14	-9.4790	-0.1011	-1.7515	0.0007	-0.0080	0.0020	31.3282	8.3437	15.3974	0.5955	0.2724	0.7195	-0.2312
2.15	-9.4913	-0.1031	-1.7444	-0.0028	-0.0109	0.0022	31.0657	8.4440	15.3650	0.5955	0.2723	0.7196	-0.2312
2.16	-9.4867	-0.1048	-1.7433	-0.0059	-0.0054	0.0045	31.0406	8.5548	15.3156	0.5954	0.2723	0.7195	-0.2312
2.17	-9.4879	-0.1027	-1.7266	-0.0016	-0.0104	0.0123	31.0704	8.4465	15.2121	0.5955	0.2723	0.7196	-0.2312
2.18	-9.4962	-0.0949	-1.7315	-0.0024	-0.0133	0.0081	31.3427	8.1776	15.1522	0.5955	0.2723	0.7195	-0.2312
2.19	-9.4886	-0.0934	-1.7184	-0.0020	-0.0145	0.0036	31.4077	8.1292	15.1613	0.5956	0.2723	0.7196	-0.2312
2.2	-9.4785	-0.0770	-1.7140	-0.0009	-0.0066	0.0064	31.3542	8.1442	15.2760	0.5955	0.2723	0.7195	-0.2311
2.21	-9.4848	-0.0734	-1.7007	0.0012	-0.0092	0.0059	31.3057	8.2648	15.2121	0.5955	0.2723	0.7195	-0.2312
2.22	-9.4908	-0.0688	-1.7061	0.0027	-0.0100	0.0060	31.4347	8.3286	15.1740	0.5956	0.2723	0.7196	-0.2312
2.23	-9.4874	-0.0588	-1.6966	0.0090	-0.0073	0.0041	31.2064	8.2855	15.3899	0.5955	0.2723	0.7195	-0.2312
2.24	-9.4787	-0.0643	-1.6914	-0.0024	-0.0108	0.0064	31.2157	8.3265	15.0785	0.5956	0.2723	0.7196	-0.2312
2.25	-9.4923	-0.0802	-1.6899	-0.0007	-0.0092	0.0054	31.3822	8.1239	15.1382	0.5955	0.2723	0.7195	-0.2312
2.26	-9.4985	-0.0862	-1.7004	0.0034	-0.0093	0.0090	31.3186	8.2601	15.3866	0.5956	0.2723	0.7196	-0.2312
2.27	-9.4837	-0.0916	-1.6984	0.0046	-0.0073	0.0073	31.2869	8.4145	15.2046	0.5955	0.2723	0.7195	-0.2312
2.28	-9.4887	-0.0823	-1.7243	-0.0019	-0.0058	0.0029	31.1903	8.3713	15.4148	0.5955	0.2723	0.7196	-0.2312
2.29	-9.4873	-0.0852	-1.7155	-0.0019	-0.0082	0.0027	31.0800	8.3905	15.3431	0.5955	0.2723	0.7196	-0.2312
2.3	-9.4768	-0.0744	-1.7371	0.0075	-0.0080	0.0032	30.9787	8.3754	15.0897	0.5955	0.2723	0.7195	-0.2312
2.31	-9.4960	-0.0502	-1.7588	-0.0009	-0.0044	0.0059	31.0503	8.3856	15.4029	0.5956	0.2723	0.7196	-0.2312
2.32	-9.4881	-0.0372	-1.7519	0.0074	-0.0040	0.0013	31.3415	8.3857	15.5234	0.5955	0.2723	0.7196	-0.2312
2.33	-9.4809	-0.0339	-1.7623	-0.0011	-0.0088	0.0088	31.5606	8.3952	15.3141	0.5955	0.2723	0.7196	-0.2312
2.34	-9.4841	-0.0340	-1.7587	-0.0015	-0.0060	0.0053	31.4666	8.3984	15.3804	0.5954	0.2723	0.7195	-0.2312
2.35	-9.4927	-0.0433	-1.7706	0.0064	-0.0097	0.0078	31.4371	8.4620	15.5122	0.5955	0.2723	0.7196	-0.2312
2.36	-9.4918	-0.0544	-1.7624	0.0039	-0.0150	0.0147	31.2514	8.4228	15.3343	0.5955	0.2723	0.7196	-0.2312
2.37	-9.5046	-0.0621	-1.7706	0.0074	-0.0133	0.0073	31.3650	8.4364	15.2016	0.5955	0.2723	0.7195	-0.2312
2.38	-9.4986	-0.0828	-1.7577	0.0023	-0.0111	0.0034	31.1654	8.3042	15.1169	0.5955	0.2723	0.7195	-0.2312
2.39	-9.4911	-0.0871	-1.7603	0.0043	-0.0082	0.0045	31.1721	8.3738	15.3546	0.5955	0.2723	0.7195	-0.2312
2.4	-9.4936	-0.0816	-1.7664	0.0002	-0.0140	0.0082	31.1912	8.4249	15.4097	0.5955	0.2724	0.7195	-0.2312
2.41	-9.4866	-0.0975	-1.7598	0.0067	-0.0103	0.0088	31.0878	8.4205	15.2459	0.5955	0.2723	0.7194	-0.2312
2.42	-9.4885	-0.0960	-1.7541	0.0066	-0.0095	0.0067	31.1036	8.2889	15.4586	0.5955	0.2724	0.7195	-0.2313
2.43	-9.4937	-0.0982	-1.7503	-0.0031	-0.0136	0.0067	31.2043	8.2637	15.5277	0.5955	0.2724	0.7195	-0.2313
2.44	-9.4827	-0.1032	-1.7458	-0.0037	-0.0110	0.0028	31.1424	8.3929	15.2047	0.5956	0.2723	0.7195	-0.2313
2.45	-9.4878	-0.1138	-1.7202	-0.0008	-0.0136	0.0090	31.2876	8.1123	15.6224	0.5956	0.2723	0.7195	-0.2312
2.46	-9.4930	-0.1217	-1.7208	-0.0010	-0.0160	0.0071	31.3058	8.2299	15.5095	0.5956	0.2723	0.7194	-0.2312
2.47	-9.4829	-0.1222	-1.7189	-0.0019	-0.0085	0.0041	31.0685	8.2231	15.2542	0.5956	0.2723	0.7195	-0.2312
2.48	-9.4866	-0.1201	-1.7245	0.0050	-0.0054	0.0023	31.1667	8.4053	15.3917	0.5956	0.2723	0.7194	-0.2312
2.49	-9.4824	-0.1138	-1.7267	0.0018	-0.0034	0.0042	31.2828	8.5160	15.4439	0.5956	0.2723	0.7195	-0.2313
2.5	-9.4813	-0.1234	-1.7158	0.0024	-0.0063	0.0097	31.0643	8.3627	15.5228	0.5956	0.2723	0.7195	-0.2312
2.51	-9.4844	-0.1294	-1.7230	0.0018	-0.0084	0.0057	30.9887	8.4593	15.2663	0.5956	0.2724	0.7195	-0.2313
2.52	-9.4841	-0.1119	-1.7133	0.0028	-0.0076	0.0061	31.0984	8.2811	15.4251	0.5955	0.2723	0.7194	-0.2312
2.53	-9.4845	-0.1043	-1.7107	0.0013	-0.0072	0.0048	31.2185	8.4005	15.2659	0.5956	0.2723	0.7195	-0.2312
2.54	-9.4890	-0.0961	-1.6957	0.0155	-0.0088	0.0113	31.2595	8.3535	15.3263	0.5955	0.2724	0.7195	-0.2313
2.55	-9.4993	-0.0769	-1.7033	0.0088	-0.0122	0.0127	31.3075	8.3948	15.5491	0.5955	0.2724	0.7194	-0.2313
2.56	-9.4879	-0.0523	-1.7058	0.0062	-0.0103	0.0116	31.3669	8.5156	15.2231	0.5956	0.2725	0.7195	-0.2313
2.57	-9.4743	-0.0348	-1.7130	0.0085	-0.0080	0.0051	31.1608	8.3825	15.3181	0.5955	0.2725	0.7194	-0.2313
2.58	-9.4821	-0.0444	-1.7105	0.0073	-0.0081	0.0036	31.0601	8.1897	15.2867	0.5956	0.2725	0.7195	-0.2314
2.59	-9.4833	-0.0335	-1.7194	0.0105	-0.0071	0.0115	31.1989	8.2161	15.2093	0.5955	0.2725	0.7194	-0.2313
2.6	-9.4935	-0.0476	-1.7198	0.0133	-0.0057	0.0073	31.1603	8.4972	15.3064	0.5955	0.2726	0.7194	-0.2314
2.61	-9.4949	-0.0451	-1.7376	0.0034	-0.0089	0.0124	31.1983	8.2983	15.2515	0.5955	0.2726	0.7194	-0.2314
2.62	-9.4803	-0.0458	-1.7278	0.0076	-0.0096	0.0097	31.1459	8.2069	15.1525	0.5955	0.2726	0.7194	-0.2314
2.63	-9.5016	-0.0443	-1.7532	0.0088	-0.0056	0.0059	31.3057	8.4645	15.4381	0.5955	0.2727	0.7194	-0.2314
2.64	-9.4932	-0.0375	-1.7502	0.0039	-0.0110	0.0062	31.2801	8.2460	15.4376	0.5955	0.2727	0.7194	-0.2314
2.65	-9.4815	-0.0520	-1.7427	0.0045	-0.0056	0.0059	31.1312	8.3095	15.3592	0.5955	0.2727	0.7194	-0.2315
2.66	-9.5005	-0.0515	-1.7590	0.0021	-0.0057	0.0046	31.1980	8.3392	15.3808	0.5954	0.2727	0.7193	-0.2314
2.67	-9.4900	-0.0703	-1.7490	0.0002	0.0037	0.0027	31.1565	8.3340	15.3839	0.5954	0.2727	0.7194	-0.2315
2.68	-9.4957	-0.0685	-1.7460	0.0053	-0.0060	0.0033	31.0487	8.4583	15.3485	0.5954	0.2727	0.7194	-0.2315
2.69	-9.4944	-0.0890	-1.7693	-0.0070	-0.0049	-0.0007	31.2327	8.3258	15.4623	0.5954	0.2727	0.7195	-0.2315
2.7	-9.4923	-0.1158	-1.7667	-0.0056	-0.0059	0.0052	31.2705	8.3387	15.4656	0.5954	0.2726	0.7195	-0.2314
2.71	-9.4837	-0.1333	-1.7739	0.0035	-0.0088	0.0043	31.2364	8.4394	15.2374	0.5954	0.2726	0.7195	-0.2314
2.72	-9.4824	-0.1380	-1.7653	-0.0001	-0.0058	0.0063	31.1051	8.3898	15.5118	0.5954	0.2726	0.7195	-0.2314
2.73	-9.4931	-0.1333	-1.7725	-0.0008	-0.0142	0.0150	31.0680	8.4982	15.3346	0.5953	0.2726	0.7194	-0.2314
2.74	-9.4938	-0.1353	-1.7622	0.0000	-0.0115	0.0097	31.3039	8.4098	15.4278	0.5954	0.2727	0.7195	-0.2314
2.75	-9.4986	-0.1272	-1.7453	0.0049	-0.0126	0.0074	31.3299	8.2701	15.4196	0.5954	0.2727	0.7194	-0.2314
2.76	-9.5024	-0.1038	-1.7552	0.0078	-0.0134	0.0091	31.1532	8.2439	15.1671	0.5955	0.2727	0.7195	-0.2314
2.77	-9.4972	-0.0920	-1.7438	0.0090	-0.0149	0.0075	31.2794	8.3228	15.3087	0.5954	0.2727	0.7193	-0.2314
2.78	-9.4750	-0.0704	-1.7243	0.0050	-0.0089	0.0090	31.3327	8.2670	15.1832	0.5954	0.2727	0.7194	-0.2315
2.79	-9.4884	-0.0589	-1.7203	0.0086	-0.0073	0.0061	31.2224	8.3508	15.3915	0.5954	0.2728	0.7194	-0.2315
2.8	-9.5004	-0.0644	-1.7335	0.0080	-0.0098	0.0069	31.2836	8.3363	15.3550	0.5954	0.2728	0.7193	-0.2315
2.81	-9.4858	-0.0570	-1.7248	0.0134	-0.0166	0.0086	31.1288	8.3114	15.5030	0.5955	0.2728	0.7194	-0.2316
2.82	-9.4892	-0.0707	-1.7142	0.0033	-0.0073	0.0030	31.4990	8.2623	15.5565	0.5954	0.2728	0.7193	-0.2316
2.83	-9.5021	-0.0752	-1.7306	0.0100	-0.0096	0.0039	31.7969	8.4182	15.3807	0.5954	0.2729	0.7194	-0.2316
2.84	-9.4838	-0.0716	-1.7279	-0.0034	-0.0055	0.0036	31.5476	8.5149	15.3718	0.5954	0.2728	0.7193	-0.2316
2.85	-9.4914	-0.0699	-1.7276	0.0011	-0.0061	0.0053	31.2612	8.3681	15.3709	0.5954	0.2728	0.7194	-0.2316
2.86	-9.4778	-0.0507	-1.7307	0.0036	-0.0050	0.0024	31.1624	8.5355	15.3722	0.5954	0.2728	0.7193	-0.2316
2.87	-9.5021	-0.0448	-1.7366	-0.0020	-0.0079	0.0057	31.2007	8.4729	15.2430	0.5954	0.2728	0.7193	-0.2316
2.88	-9.4908	-0.0450	-1.7287	0.0053	-0.0066	0.0046	30.9457	8.5589	15.3354	0.5954	0.2728	0.7194	-0.2316
2.89	-9.4894	-0.0446	-1.7193	0.0006	-0.0058	0.0041	31.0492	8.6153	15.4578	0.5953	0.2728	0.7194	-0.2316
2.9	-9.4956	-0.0476	-1.7213	-0.0020	-0.0062	0.0021	31.4362	8.3321	15.3846	0.5954	0.2728	0.7194	-0.2316
2.91	-9.4906	-0.0557	-1.7199	-0.0002	-0.0063	0.0080	31.2261	8.4974	15.5564	0.5953	0.2728	0.7193	-0.2316
2.92	-9.4976	-0.0639	-1.7236	-0.0006	-0.0098	0.0097	31.0291	8.4290	15.4384	0.5954	0.2728	0.7194	-0.2316
2.93	-9.5005	-0.0821	-1.7344	-0.0073	-0.0110	0.0048	31.2661	8.2209	15.3667	0.5953	0.2728	0.7194	-0.2316
2.94	-9.4981	-0.0965	-1.7398	-0.0024	-0.0085	0.0054	31.3824	8.2205	15.4237	0.5954	0.2728	0.7194	-0.2316
2.95	-9.4811	-0.0902	-1.7390	-0.0011	-0.0072	0.0087	31.4972	8.2243	15.1130	0.5953	0.2728	0.7194	-0.2315
2.96	-9.4878	-0.0973	-1.7467	0.0015	-0.0087	0.0064	31.5635	8.3433	15.4762	0.5954	0.2728	0.7194	-0.2315
2.97	-9.4865	-0.0957	-1.7398	-0.0053	-0.0079	0.0069	31.1797	8.2397	15.5166	0.5954	0.2728	0.7194	-0.2315
2.98	-9.4854	-0.0860	-1.7337	0.0055	-0.0089	0.0088	31.1277	8.1904	15.2131	0.5953	0.2727	0.7194	-0.2315
2.99	-9.4870	-0.0807	-1.7441	-0.0047	-0.0092	0.0029	31.3631	8.3450	15.4037	0.5954	0.2728	0.7195	-0.2315
3	-9.4896	-0.0850	-1.7425	0.0077	-0.0122	0.0072	31.2722	8.3866	15.3880	0.5954	0.2728	0.7194	-0.2315
3.01	-9.4977	-0.0979	-1.7495	0.0014	-0.0097	0.0068	31.4065	8.4050	15.3672	0.5954	0.2728	0.7194	-0.2315
3.02	-9.4842	-0.0978	-1.7492	-0.0034	-0.0049	-0.0007	31.3068	8.2770	15.5736	0.5953	0.2727	0.7194	-0.2315
3.03	-9.4863	-0.1062	-1.7634	-0.0001	-0.0033	0.0034	31.0947	8.4469	15.3337	0.5953	0.2727	0.7194	-0.2315
3.04	-9.4881	-0.1123	-1.7766	-0.0014	-0.0098	0.0006	31.0710	8.5924	15.3932	0.5953	0.2727	0.7195	-0.2315
3.05	-9.4886	-0.1144	-1.7599	0.0010	-0.0087	0.0033	31.3532	8.4657	15.4282	0.5953	0.2727	0.7194	-0.2315
3.06	-9.4924	-0.1207	-1.7654	0.0098	-0.0086	0.0055	31.0897	8.3648	15.4447	0.5954	0.2727	0.7195	-0.2316
3.07	-9.4966	-0.1084	-1.7625	0.0058	-0.0059	0.0034	30.9973	8.4019	15.3678	0.5953	0.2727	0.7194	-0.2316
3.08	-9.4848	-0.0958	-1.7528	0.0026	-0.0021	0.0047	31.3317	8.5263	15.3733	0.5953	0.2727	0.7195	-0.2316
3.09	-9.4806	-0.0794	-1.7547	0.0038	-0.0116	0.0059	31.3045	8.2552	15.5484	0.5952	0.2727	0.7194	-0.2316
3.1	-9.4924	-0.0867	-1.7445	0.0029	-0.0125	0.0106	31.2078	8.5619	15.3840	0.5953	0.2727	0.7195	-0.2316
3.11	-9.4985	-0.0753	-1.7383	0.0049	-0.0192	0.0070	31.2752	8.2976	15.3018	0.5953	0.2727	0.7194	-0.2316
3.12	-9.4925	-0.0552	-1.7292	0.0036	-0.0096	0.0035	31.3911	8.1884	15.4569	0.5953	0.2727	0.7194	-0.2316
3.13	-9.4838	-0.0604	-1.7151	0.0023	-0.0076	0.0070	31.4022	8.2339	15.4023	0.5953	0.2727	0.7194	-0.2316
3.14	-9.4866	-0.0554	-1.7119	0.0036	-0.0075	0.0079	31.5021	8.2395	15.2547	0.5953	0.2728	0.7194	-0.2316
3.15	-9.4853	-0.0710	-1.7022	0.0020	-0.0095	0.0036	31.4351	8.5507	15.3907	0.5953	0.2728	0.7194	-0.2317
3.16	-9.4855	-0.0815	-1.7121	0.0037	-0.0104	0.0023	31.2790	8.1872	15.2401	0.5953	0.2727	0.7193	-0.2316
3.17	-9.4976	-0.0807	-1.7183	0.0013	-0.0092	0.0038	31.4634	8.2518	15.3659	0.5953	0.2727	0.7194	-0.2317
3.18	-9.4834	-0.0912	-1.7031	0.0099	-0.0082	0.0036	31.2698	8.3088	15.3540	0.5953	0.2727	0.7194	-0.2317
3.19	-9.4935	-0.1068	-1.7044	0.0055	-0.0110	0.0095	31.2917	8.3548	15.2694	0.5953	0.2728	0.7194	-0.2317
3.2	-9.5036	-0.0919	-1.7230	0.0032	-0.0131	0.0100	31.3246	8.4156	15.2446	0.5953	0.2728	0.7193	-0.2317
3.21	-9.4855	-0.0851	-1.7279	0.0032	-0.0063	0.0039	31.1040	8.3397	15.3773	0.5953	0.2728	0.7194	-0.2317
3.22	-9.4840	-0.0670	-1.7363	-0.0030	-0.0094	0.0033	31.1746	8.2802	15.5008	0.5953	0.2728	0.7194	-0.2317
3.23	-9.4860	-0.0541	-1.7347	-0.0010	-0.0065	0.0031	31.1276	8.3616	15.5191	0.5953	0.2727	0.7193	-0.2317
3.24	-9.4886	-0.0633	-1.7400	0.0002	-0.0059	-0.0004	31.2566	8.5154	15.5123	0.5953	0.2727	0.7194	-0.2318
3.25	-9.4787	-0.0799	-1.7472	0.0001	-0.0071	0.0090	31.0685	8.3725	15.5053	0.5953	0.2727	0.7194	-0.2317
3.26	-9.4893	-0.0862	-1.7438	-0.0041	-0.0078	0.0022	31.1144	8.2552	15.5377	0.5953	0.2727	0.7195	-0.2317
3.27	-9.4953	-0.0925	-1.7530	-0.0036	-0.0075	0.0012	31.2607	8.4096	15.4094	0.5953	0.2727	0.7194	-0.2317
3.28	-9.4886	-0.0922	-1.7274	0.0023	-0.0036	0.0056	31.3028	8.2601	15.3433	0.5953	0.2727	0.7195	-0.2317
3.29	-9.4921	-0.0819	-1.7235	-0.0008	-0.0089	0.0078	31.0366	8.3544	15.4820	0.5953	0.2727	0.7195	-0.2317
3.3	-9.4965	-0.0680	-1.7311	0.0063	-0.0101	0.0078	31.4844	8.4165	15.3131	0.5952	0.2727	0.7194	-0.2317
3.31	-9.4913	-0.0450	-1.7267	0.0047	-0.0062	0.0090	31.4690	8.2663	15.4724	0.5953	0.2727	0.7195	-0.2317
3.32	-9.4724	-0.0753	-1.7110	-0.0024	-0.0081	0.0063	31.4966	8.2355	15.6773	0.5953	0.2727	0.7194	-0.2317
3.33	-9.4977	-0.0798	-1.7307	0.0083	-0.0077	0.0065	31.7739	8.3869	15.7320	0.5953	0.2727	0.7195	-0.2317
3.34	-9.4983	-0.0459	-1.7432	0.0048	-0.0078	0.0083	31.4835	8.4624	15.5599	0.5952	0.2727	0.7194	-0.2317
3.35	-9.4784	-0.0377	-1.7193	-0.0017	-0.0080	0.0038	31.4469	8.4969	15.3225	0.5953	0.2727	0.7195	-0.2317
3.36	-9.4841	-0.0497	-1.7319	0.0066	-0.0100	0.0041	31.1482	8.3949	15.5353	0.5952	0.2727	0.7194	-0.2317
3.37	-9.4869	-0.0541	-1.7333	-0.0017	-0.0077	0.0058	30.9796	8.4152	15.3058	0.5952	0.2727	0.7194	-0.2317
3.38	-9.4854	-0.0601	-1.7284	0.0011	-0.0100	0.0056	31.2384	8.3011	15.2909	0.5953	0.2727	0.7195	-0.2317
3.39	-9.4863	-0.0716	-1.7314	0.0088	-0.0102	0.0104	31.1609	8.0975	15.4629	0.5952	0.2728	0.7194	-0.2318
3.4	-9.4848	-0.0709	-1.7372	0.0023	-0.0107	0.0062	31.2156	8.6258	15.4743	0.5953	0.2728	0.7194	-0.2318
3.41	-9.4882	-0.0626	-1.7414	0.0026	-0.0079	0.0039	31.0834	8.2896	15.4788	0.5952	0.2727	0.7194	-0.2318
3.42	-9.4847	-0.0600	-1.7233	0.0007	-0.0046	0.0053	31.2256	8.1679	15.4781	0.5953	0.2728	0.7195	-0.2318
3.43	-9.4982	-0.0626	-1.7396	-0.0014	-0.0041	0.0036	31.1307	8.4962	15.3233	0.5952	0.2727	0.7194	-0.2318
3.44	-9.4969	-0.0665	-1.7450	0.0075	-0.0068	0.0060	31.1381	8.2917	15.2748	0.5952	0.2728	0.7195	-0.2318
3.45	-9.4938	-0.0590	-1.7516	-0.0051	-0.0100	0.0020	31.3981	8.3327	15.4322	0.5952	0.2727	0.7194	-0.2318
3.46	-9.4778	-0.0656	-1.7512	0.0038	-0.0067	0.0035	31.2989	8.3233	15.2169	0.5952	0.2727	0.7195	-0.2318
3.47	-9.4712	-0.0754	-1.7604	0.0026	-0.0109	0.0045	31.1064	8.2980	15.3063	0.5952	0.2727	0.7195	-0.2318
3.48	-9.4748	-0.0993	-1.7807	0.0054	-0.0114	0.0035	31.0917	8.4119	15.5174	0.5952	0.2727	0.7194	-0.2318
3.49	-9.4753	-0.1434	-1.7820	0.0084	-0.0190	0.0122	31.3077	8.2855	15.3501	0.5953	0.2728	0.7195	-0.2319
3.5	-9.4821	-0.1684	-1.8025	0.0134	-0.0130	0.0090	31.2364	8.3849	15.4358	0.5952	0.2728	0.7194	-0.2319
3.51	-9.5030	-0.1973	-1.8021	0.0134	-0.0066	0.0034	31.3556	8.3516	15.2909	0.5953	0.2728	0.7194	-0.2319
3.52	-9.4989	-0.2256	-1.7937	0.0114	-0.0088	0.0056	31.2684	8.3029	15.4138	0.5952	0.2728	0.7193	-0.2320
3.53	-9.4827	-0.2119	-1.7848	0.0139	-0.0135	0.0095	31.2645	8.4342	15.3538	0.5952	0.2729	0.7193	-0.2320
3.54	-9.4889	-0.1860	-1.7555	0.0127	-0.0136	0.0116	31.2773	8.0347	15.3232	0.5952	0.2729	0.7193	-0.2320
3.55	-9.4895	-0.1264	-1.7520	0.0173	-0.0078	0.0106	31.2601	8.2323	15.5230	0.5952	0.2730	0.7192	-0.2321
3.56	-9.4807	-0.0816	-1.7176	0.0086	-0.0103	0.0114	31.2747	8.3266	15.3518	0.5952	0.2731	0.7193	-0.2321
3.57	-9.4974	-0.0540	-1.7071	0.0124	-0.0164	0.0048	31.3946	8.2211	15.3157	0.5952	0.2731	0.7192	-0.2321
3.58	-9.4914	-0.0227	-1.7019	0.0136	-0.0135	0.0163	31.2649	8.4391	15.4911	0.5953	0.2731	0.7192	-0.2322
3.59	-9.4832	-0.0129	-1.6934	-0.0019	-0.0081	0.0102	31.2854	8.3017	15.4696	0.5952	0.2731	0.7191	-0.2321
3.6	-9.4936	-0.0142	-1.6943	0.0067	-0.0104	0.0032	31.0257	8.2284	15.3899	0.5952	0.2731	0.7192	-0.2322
3.61	-9.4968	-0.0199	-1.6899	0.0084	-0.0168	0.0097	31.2569	8.2248	15.3564	0.5952	0.2732	0.7191	-0.2322
3.62	-9.4920	-0.0078	-1.7002	0.0072	-0.0019	0.0072	31.1534	8.3001	15.2714	0.5952	0.2732	0.7191	-0.2322
3.63	-9.4814	-0.0190	-1.6975	0.0087	-0.0065	0.0038	30.9987	8.4181	15.3301	0.5952	0.2732	0.7192	-0.2322
3.64	-9.4945	-0.0175	-1.6993	0.0121	-0.0062	0.0061	31.1639	8.2608	15.2600	0.5952	0.2732	0.7191	-0.2323
3.65	-9.4966	-0.0174	-1.6990	0.0119	-0.0083	0.0079	31.2505	8.2178	15.4056	0.5952	0.2733	0.7192	-0.2323
3.66	-9.4938	-0.0258	-1.6957	0.0136	-0.0108	0.0089	31.2770	8.3223	15.3632	0.5951	0.2733	0.7190	-0.2323
3.67	-9.5074	-0.0319	-1.7013	0.0174	-0.0123	0.0082	31.2678	8.3244	15.3545	0.5952	0.2734	0.7191	-0.2324
3.68	-9.4984	-0.0486	-1.6970	0.0114	-0.0154	0.0124	31.4117	8.3116	15.4778	0.5952	0.2734	0.7190	-0.2324
3.69	-9.4929	-0.0532	-1.7065	0.0047	-0.0078	0.0115	31.4426	8.0860	15.3667	0.5952	0.2735	0.7190	-0.2324
3.7	-9.4873	-0.0621	-1.7286	0.0018	-0.0130	0.0101	31.4158	8.0632	15.5028	0.5952	0.2734	0.7190	-0.2324
3.71	-9.4758	-0.0725	-1.7333	0.0099	-0.0078	0.0101	31.3422	8.0940	15.2736	0.5952	0.2735	0.7190	-0.2324
3.72	-9.4851	-0.0922	-1.7391	0.0114	-0.0079	0.0042	31.3339	8.2223	15.4875	0.5952	0.2735	0.7190	-0.2325
3.73	-9.4856	-0.1093	-1.7529	0.0053	-0.0076	0.0045	31.0825	8.3006	15.1735	0.5951	0.2735	0.7189	-0.2325
3.74	-9.4887	-0.1317	-1.7598	0.0054	-0.0080	0.0066	31.3177	8.4475	15.3513	0.5952	0.2736	0.7190	-0.2325
3.75	-9.4848	-0.1417	-1.7580	0.0053	-0.0037	0.0060	31.2217	8.3243	15.2370	0.5951	0.2736	0.7190	-0.2325
3.76	-9.4804	-0.1442	-1.7588	0.0077	-0.0104	0.0073	31.1828	8.1698	15.2626	0.5952	0.2736	0.7190	-0.2326
3.77	-9.4936	-0.1321	-1.7692	0.0064	-0.0103	0.0130	31.1931	8.4539	15.4160	0.5951	0.2736	0.7189	-0.2325
3.78	-9.4967	-0.1096	-1.7665	0.0061	-0.0040	0.0063	31.1810	8.2328	15.4869	0.5951	0.2736	0.7190	-0.2326
3.79	-9.4905	-0.0930	-1.7666	0.0111	-0.0090	0.0037	31.3717	8.1432	15.3037	0.5951	0.2737	0.7190	-0.2326
3.8	-9.4788	-0.0563	-1.7582	0.0091	-0.0060	0.0039	31.2250	8.4387	15.3778	0.5950	0.2737	0.7189	-0.2326
3.81	-9.4866	-0.0437	-1.7653	0.0049	-0.0078	0.0054	30.9656	8.2739	15.3967	0.5951	0.2737	0.7190	-0.2327
3.82	-9.4865	-0.0301	-1.7700	0.0061	-0.0089	0.0050	31.2377	8.3737	15.5294	0.5950	0.2737	0.7189	-0.2327
3.83	-9.4869	-0.0339	-1.7564	-0.0027	-0.0083	0.0067	31.4391	8.4043	15.5984	0.5951	0.2737	0.7190	-0.2327
3.84	-9.4854	-0.0427	-1.7660	0.0025	-0.0059	0.0022	31.3907	8.4576	15.4641	0.5950	0.2737	0.7189	-0.2326
3.85	-9.4931	-0.0578	-1.7715	0.0003	-0.0097	0.0063	31.2730	8.4547	15.3727	0.5950	0.2737	0.7190	-0.2327
3.86	-9.4919	-0.0803	-1.7717	-0.0027	-0.0151	0.0125	31.1873	8.2696	15.4002	0.5951	0.2737	0.7189	-0.2326
3.87	-9.4878	-0.0878	-1.7716	0.0010	-0.0113	0.0116	31.2941	8.1524	15.4562	0.5951	0.2737	0.7189	-0.2326
3.88	-9.5030	-0.0951	-1.7688	0.0014	-0.0121	0.0087	31.3060	8.1541	15.3066	0.5951	0.2737	0.7189	-0.2326
3.89	-9.4907	-0.0984	-1.7658	-0.0026	-0.0083	0.0077	31.3635	8.3894	15.2431	0.5951	0.2737	0.7189	-0.2326
3.9	-9.4836	-0.0942	-1.7468	0.0009	-0.0141	0.0054	31.2480	8.2240	15.2319	0.5951	0.2737	0.7189	-0.2326
3.91	-9.4892	-0.0887	-1.7401	-0.0016	-0.0105	0.0026	31.3885	8.2605	15.3470	0.5951	0.2736	0.7188	-0.2326
3.92	-9.5005	-0.0696	-1.7492	0.0028	-0.0129	0.0036	31.2613	8.0960	15.3239	0.5952	0.2736	0.7189	-0.2326
3.93	-9.4807	-0.0572	-1.7205	0.0068	-0.0135	0.0062	31.0187	8.2523	15.3732	0.5951	0.2736	0.7189	-0.2326
3.94	-9.4862	-0.0572	-1.7174	0.0036	-0.0103	0.0028	31.1771	8.3363	15.1670	0.5952	0.2736	0.7189	-0.2327
3.95	-9.4960	-0.0574	-1.7170	0.0039	-0.0099	0.0058	31.3226	8.3116	15.2381	0.5951	0.2736	0.7189	-0.2327
3.96	-9.4846	-0.0640	-1.7072	0.0027	-0.0168	0.0068	31.1450	8.5353	15.4922	0.5952	0.2736	0.7188	-0.2327
3.97	-9.4865	-0.0768	-1.7139	0.0043	-0.0162	0.0021	31.2776	8.4386	15.3105	0.5952	0.2736	0.7188	-0.2327
3.98	-9.4910	-0.0927	-1.7023	-0.0048	-0.0075	0.0001	30.9988	8.5829	15.4124	0.5952	0.2736	0.7188	-0.2327
3.99	-9.4849	-0.0990	-1.7044	-0.0011	-0.0071	0.0038	31.1072	8.4432	15.4050	0.5952	0.2736	0.7189	-0.2327
4	-9.4849	-0.1159	-1.7120	-0.0049	-0.0043	0.0039	31.1800	8.3920	15.4501	0.5952	0.2736	0.7189	-0.2327
4.01	-9.4917	-0.1186	-1.7235	0.0011	-0.0082	0.0050	31.1508	8.6091	15.5418	0.5952	0.2736	0.7189	-0.2327
4.02	-9.4929	-0.1149	-1.7088	0.0045	-0.0114	0.0049	31.3062	8.3656	15.3853	0.5951	0.2735	0.7188	-0.2327
4.03	-9.4858	-0.1013	-1.7053	-0.0009	-0.0082	0.0034	31.1871	8.3285	15.4585	0.5952	0.2735	0.7189	-0.2327
4.04	-9.4913	-0.0958	-1.7183	0.0019	-0.0119	0.0102	31.1756	8.4244	15.3313	0.5952	0.2735	0.7189	-0.2327
4.05	-9.4947	-0.0940	-1.7349	0.0042	-0.0151	0.0072	31.0834	8.3808	15.4048	0.5952	0.2735	0.7188	-0.2327
4.06	-9.4915	-0.0881	-1.7362	0.0110	-0.0113	0.0124	31.3326	8.4104	15.4214	0.5953	0.2736	0.7189	-0.2328
4.07	-9.4802	-0.0828	-1.7467	0.0066	-0.0079	0.0056	31.2481	8.3929	15.4344	0.5952	0.2736	0.7188	-0.2328
4.08	-9.4921	-0.0825	-1.7523	0.0053	-0.0092	0.0081	31.1585	8.4016	15.3487	0.5952	0.2736	0.7188	-0.2328
4.09	-9.4874	-0.0867	-1.7504	-0.0012	-0.0101	0.0078	31.3970	8.4035	15.3271	0.5952	0.2736	0.7187	-0.2327
4.1	-9.4888	-0.0897	-1.7490	0.0100	-0.0068	0.0071	31.4310	8.2971	15.3309	0.5952	0.2737	0.7188	-0.2328
4.11	-9.4922	-0.0930	-1.7526	0.0077	-0.0070	0.0046	31.2055	8.3432	15.1970	0.5952	0.2737	0.7188	-0.2328
4.12	-9.4853	-0.0822	-1.7571	0.0077	-0.0096	0.0044	31.1953	8.2275	15.3436	0.5952	0.2737	0.7188	-0.2328
4.13	-9.4836	-0.0738	-1.7467	0.0028	-0.0088	0.0057	31.3182	8.3243	15.3261	0.5952	0.2737	0.7188	-0.2328
4.14	-9.4936	-0.0647	-1.7615	0.0022	-0.0163	0.0074	31.1110	8.4370	15.4753	0.5952	0.2737	0.7188	-0.2328
4.15	-9.4958	-0.0579	-1.7641	-0.0024	-0.0096	0.0089	31.0221	8.3202	15.5093	0.5952	0.2737	0.7188	-0.2328
4.16	-9.4793	-0.0668	-1.7593	-0.0035	-0.0079	0.0063	31.0379	8.3035	15.5113	0.5952	0.2736	0.7187	-0.2328
4.17	-9.4899	-0.0702	-1.7640	-0.0001	-0.0041	0.0019	31.1608	8.4162	15.3815	0.5952	0.2737	0.7188	-0.2328
4.18	-9.4935	-0.0793	-1.7605	-0.0028	-0.0113	0.0061	31.2079	8.3908	15.3138	0.5952	0.2736	0.7188	-0.2328
4.19	-9.4893	-0.0855	-1.7573	0.0006	-0.0083	0.0033	31.2724	8.4043	15.3399	0.5952	0.2736	0.7188	-0.2328
4.2	-9.4800	-0.0896	-1.7484	0.0020	-0.0084	0.0060	31.2276	8.3963	15.3267	0.5952	0.2736	0.7188	-0.2328
4.21	-9.4764	-0.0851	-1.7533	0.0010	-0.0152	0.0029	30.9449	8.3953	15.3258	0.5952	0.2736	0.7188	-0.2328
4.22	-9.4926	-0.0791	-1.7561	0.0015	-0.0093	0.0051	31.0399	8.5795	15.3229	0.5952	0.2736	0.7188	-0.2328
4.23	-9.4836	-0.0825	-1.7428	0.0047	-0.0162	0.0100	31.0251	8.4281	15.3201	0.5952	0.2736	0.7187	-0.2328
4.24	-9.4876	-0.0868	-1.7403	0.0043	-0.0149	0.0119	31.1832	8.0701	15.3491	0.5953	0.2736	0.7188	-0.2329
4.25	-9.4983	-0.0806	-1.7489	-0.0042	-0.0157	0.0084	31.1625	8.1065	15.3180	0.5953	0.2736	0.7187	-0.2328
4.26	-9.4773	-0.0824	-1.7431	-0.0051	-0.0177	0.0080	31.1752	8.4235	15.4007	0.5954	0.2736	0.7187	-0.2328
4.27	-9.4810	-0.0663	-1.7333	0.0052	-0.0112	0.0049	31.2103	8.3002	15.4375	0.5953	0.2736	0.7186	-0.2328
4.28	-9.4977	-0.0672	-1.7349	0.0053	-0.0107	0.0066	31.3335	8.2271	15.2884	0.5954	0.2736	0.7187	-0.2328
4.29	-9.4885	-0.0656	-1.7341	-0.0017	-0.0079	0.0079	31.3530	8.2274	15.2297	0.5954	0.2736	0.7187	-0.2328
4.3	-9.4857	-0.0703	-1.7264	0.0047	-0.0127	0.0031	31.1993	8.3018	15.3158	0.5953	0.2736	0.7186	-0.2328
4.31	-9.4870	-0.0773	-1.7358	0.0003	-0.0099	0.0082	31.1023	8.4152	15.4456	0.5954	0.2736	0.7187	-0.2329
4.32	-9.4850	-0.0791	-1.7516	-0.0034	-0.0092	0.0072	31.5620	8.2696	15.5389	0.5954	0.2736	0.7186	-0.2328
4.33	-9.4967	-0.0856	-1.7440	-0.0035	-0.0157	0.0059	31.7479	8.4182	15.7135	0.5955	0.2736	0.7187	-0.2328
4.34	-9.4847	-0.0918	-1.7381	0.0004	-0.0053	0.0018	31.5051	8.3641	15.5609	0.5954	0.2735	0.7186	-0.2328
4.35	-9.4930	-0.0821	-1.7328	-0.0024	-0.0090	0.0027	31.2801	8.5326	15.4497	0.5954	0.2735	0.7187	-0.2328
4.36	-9.4868	-0.0795	-1.7370	-0.0026	-0.0054	0.0028	31.0626	8.4168	15.2426	0.5954	0.2735	0.7187	-0.2328
4.37	-9.4784	-0.0798	-1.7254	0.0040	-0.0080	0.0074	31.0462	8.1866	15.2931	0.5954	0.2735	0.7187	-0.2328
4.38	-9.4823	-0.0809	-1.7236	0.0014	-0.0101	0.0073	31.0195	8.3519	15.4103	0.5954	0.2735	0.7187	-0.2328
4.39	-9.4806	-0.0937	-1.7353	0.0034	-0.0076	0.0059	31.1586	8.2674	15.5634	0.5954	0.2735	0.7187	-0.2328
4.4	-9.4837	-0.1004	-1.7381	0.0083	-0.0074	0.0074	31.2038	8.2232	15.5115	0.5954	0.2736	0.7187	-0.2328
4.41	-9.4876	-0.1049	-1.7300	-0.0014	-0.0125	0.0090	31.1198	8.2288	15.1746	0.5954	0.2735	0.7186	-0.2328
4.42	-9.4890	-0.0931	-1.7389	0.0049	-0.0156	0.0111	31.0893	8.3395	15.3785	0.5955	0.2736	0.7187	-0.2328
4.43	-9.4719	-0.0836	-1.7387	-0.0025	-0.0145	0.0124	31.1643	8.4281	15.2265	0.5955	0.2736	0.7186	-0.2328
4.44	-9.4855	-0.0870	-1.7375	0.0036	-0.0174	0.0129	31.1999	8.3395	15.3001	0.5955	0.2736	0.7186	-0.2328
4.45	-9.4946	-0.0819	-1.7359	0.0041	-0.0108	0.0086	31.1912	8.1300	15.3357	0.5955	0.2736	0.7185	-0.2328
4.46	-9.4928	-0.0837	-1.7414	0.0042	-0.0087	0.0084	31.4053	8.1670	15.1961	0.5955	0.2736	0.7185	-0.2328
4.47	-9.4870	-0.0795	-1.7415	0.0003	-0.0090	0.0084	31.1366	8.3189	15.2901	0.5955	0.2736	0.7186	-0.2328
4.48	-9.4845	-0.0833	-1.7339	-0.0073	-0.0102	0.0059	31.3690	8.2997	15.4078	0.5955	0.2736	0.7185	-0.2328
4.49	-9.4909	-0.0828	-1.7511	-0.0033	-0.0106	0.0065	31.3260	8.4477	15.4147	0.5956	0.2736	0.7186	-0.2328
4.5	-9.4836	-0.0865	-1.7381	0.0009	-0.0105	0.0110	31.0026	8.4469	15.2280	0.5955	0.2736	0.7185	-0.2327
4.51	-9.4918	-0.0869	-1.7251	0.0016	-0.0152	0.0113	31.3100	8.1402	15.2611	0.5956	0.2736	0.7186	-0.2327
4.52	-9.4994	-0.0803	-1.7431	0.0010	-0.0079	0.0097	31.0976	8.1452	15.1108	0.5956	0.2736	0.7185	-0.2327
4.53	-9.4875	-0.0785	-1.7490	-0.0013	-0.0098	0.0076	31.0213	8.3823	15.3151	0.5956	0.2736	0.7185	-0.2327
4.54	-9.4886	-0.0748	-1.7452	0.0018	-0.0076	0.0056	31.1901	8.5465	15.3882	0.5956	0.2736	0.7185	-0.2327
4.55	-9.4834	-0.0824	-1.7365	-0.0026	-0.0067	0.0061	31.1878	8.3100	15.2584	0.5956	0.2736	0.7185	-0.2327
4.56	-9.4777	-0.0802	-1.7314	-0.0043	-0.0144	0.0106	31.1986	8.2294	15.4742	0.5957	0.2736	0.7186	-0.2327
4.57	-9.4813	-0.0733	-1.7374	-0.0002	-0.0096	0.0039	31.0424	8.3504	15.3157	0.5956	0.2736	0.7185	-0.2327
4.58	-9.4755	-0.0656	-1.7338	0.0023	-0.0080	0.0029	31.0659	8.4825	15.3789	0.5956	0.2736	0.7186	-0.2327
4.59	-9.4878	-0.0497	-1.7418	-0.0021	-0.0053	0.0063	31.2098	8.4079	15.4132	0.5956	0.2735	0.7185	-0.2326
4.6	-9.4884	-0.0518	-1.7399	-0.0014	-0.0127	0.0084	31.2778	8.1783	15.1934	0.5956	0.2736	0.7185	-0.2326
4.61	-9.4830	-0.0533	-1.7372	0.0011	-0.0170	0.0116	31.2802	8.1479	15.4301	0.5957	0.2736	0.7185	-0.2326
4.62	-9.4869	-0.0663	-1.7443	0.0038	-0.0071	0.0087	31.2441	8.4386	15.3452	0.5956	0.2736	0.7185	-0.2326
4.63	-9.4954	-0.0831	-1.7524	0.0003	-0.0086	0.0069	31.4006	8.1871	15.1049	0.5957	0.2736	0.7185	-0.2326
4.64	-9.4879	-0.0794	-1.7430	0.0050	-0.0064	0.0041	31.2863	8.1905	15.3377	0.5956	0.2736	0.7185	-0.2326
4.65	-9.4949	-0.0787	-1.7504	-0.0011	-0.0136	0.0042	31.3303	8.4220	15.4346	0.5957	0.2736	0.7185	-0.2327
4.66	-9.5060	-0.0645	-1.7396	0.0097	-0.0177	0.0064	31.2900	8.3948	15.3860	0.5956	0.2735	0.7184	-0.2327
4.67	-9.4955	-0.0504	-1.7345	0.0069	-0.0074	0.0092	31.0623	8.3881	15.4180	0.5957	0.2736	0.7185	-0.2327
4.68	-9.4880	-0.0556	-1.7352	0.0007	-0.0076	0.0121	31.2870	8.4349	15.2063	0.5957	0.2736	0.7184	-0.2327
4.69	-9.4907	-0.0666	-1.7429	0.0021	-0.0123	0.0097	31.2616	8.5287	15.0797	0.5957	0.2736	0.7184	-0.2327
4.7	-9.4960	-0.0736	-1.7383	-0.0055	-0.0131	0.0138	31.2921	8.2785	15.3773	0.5957	0.2736	0.7184	-0.2326
4.71	-9.4949	-0.0828	-1.7398	-0.0038	-0.0092	0.0054	31.2326	8.4661	15.2486	0.5957	0.2736	0.7184	-0.2326
4.72	-9.4861	-0.0971	-1.7429	-0.0005	-0.0116	0.0046	31.1904	8.4757	15.2723	0.5958	0.2736	0.7184	-0.2326
4.73	-9.4826	-0.1033	-1.7464	0.0019	-0.0124	0.0076	31.1250	8.5066	15.3365	0.5957	0.2736	0.7183	-0.2326
4.74	-9.4914	-0.1002	-1.7410	-0.0057	-0.0115	0.0056	31.0068	8.2455	15.1976	0.5958	0.2736	0.7184	-0.2326
4.75	-9.4872	-0.1111	-1.7406	-0.0060	-0.0152	0.0068	31.1913	8.2813	15.4070	0.5958	0.2735	0.7184	-0.2326
4.76	-9.4850	-0.1153	-1.7371	-0.0009	-0.0129	0.0077	31.1766	8.5315	15.3605	0.5959	0.2736	0.7184	-0.2326
4.77	-9.4871	-0.1118	-1.7421	-0.0023	-0.0100	0.0059	31.2191	8.2918	15.1052	0.5958	0.2735	0.7183	-0.2325
4.78	-9.4858	-0.1143	-1.7374	-0.0013	-0.0125	0.0066	31.2544	8.3254	15.2962	0.5959	0.2735	0.7184	-0.2326
4.79	-9.4874	-0.1231	-1.7310	0.0044	-0.0205	0.0112	31.1796	8.3119	15.3067	0.5959	0.2735	0.7183	-0.2326
4.8	-9.4942	-0.1160	-1.7433	0.0015	-0.0117	0.0050	31.1742	8.3223	15.3979	0.5959	0.2735	0.7183	-0.2326
4.81	-9.4859	-0.0950	-1.7315	-0.0048	-0.0104	0.0071	31.3070	8.2232	15.4160	0.5960	0.2735	0.7184	-0.2326
4.82	-9.4835	-0.0788	-1.7425	0.0012	-0.0120	0.0079	31.5905	8.3767	15.2750	0.5959	0.2735	0.7183	-0.2325
4.83	-9.4917	-0.0696	-1.7499	-0.0020	-0.0094	0.0076	31.4233	8.2262	15.4148	0.5960	0.2735	0.7184	-0.2325
4.84	-9.4858	-0.0631	-1.7350	-0.0064	-0.0095	0.0058	31.4033	8.3390	15.3823	0.5959	0.2735	0.7183	-0.2325
4.85	-9.4871	-0.0590	-1.7420	-0.0020	-0.0108	0.0031	31.3851	8.4526	15.4968	0.5960	0.2735	0.7183	-0.2325
4.86	-9.4904	-0.0678	-1.7406	-0.0009	-0.0104	0.0049	31.1487	8.2039	15.2200	0.5960	0.2734	0.7183	-0.2325
4.87	-9.4822	-0.0732	-1.7476	-0.0022	-0.0052	0.0070	31.2047	8.3173	15.3499	0.5960	0.2734	0.7183	-0.2325
4.88	-9.4847	-0.0797	-1.7426	-0.0016	-0.0114	0.0053	31.2116	8.2850	15.1820	0.5960	0.2734	0.7184	-0.2325
4.89	-9.4969	-0.0737	-1.7441	-0.0023	-0.0112	0.0072	31.0867	8.3638	15.3507	0.5960	0.2734	0.7183	-0.2325
4.9	-9.4853	-0.0564	-1.7331	0.0003	-0.0073	0.0039	31.1557	8.5303	15.5219	0.5960	0.2734	0.7184	-0.2325
4.91	-9.4922	-0.0569	-1.7291	-0.0020	-0.0048	0.0009	31.0115	8.3540	15.1822	0.5959	0.2733	0.7183	-0.2324
4.92	-9.4911	-0.0501	-1.7291	0.0025	-0.0093	0.0043	31.1864	8.4167	15.2552	0.5960	0.2734	0.7184	-0.2325
4.93	-9.4969	-0.0492	-1.7260	0.0024	-0.0052	0.0040	31.1609	8.4880	15.2226	0.5960	0.2734	0.7184	-0.2325
4.94	-9.4813	-0.0584	-1.7480	-0.0038	-0.0068	0.0049	31.1523	8.1931	15.2323	0.5960	0.2733	0.7184	-0.2325
4.95	-9.4815	-0.0694	-1.7404	-0.0034	-0.0090	0.0045	31.4036	8.4172	15.3444	0.5960	0.2733	0.7184	-0.2324
4.96	-9.4915	-0.0727	-1.7455	-0.0019	-0.0080	0.0006	31.3408	8.6038	15.0471	0.5960	0.2733	0.7184	-0.2324
4.97	-9.4948	-0.0739	-1.7502	-0.0049	-0.0124	0.0043	31.0439	8.3152	15.3186	0.5960	0.2733	0.7184	-0.2324
4.98	-9.4919	-0.0788	-1.7346	-0.0030	-0.0092	0.0062	31.1059	8.3000	15.2295	0.5959	0.2732	0.7184	-0.2324
4.99	-9.4960	-0.0755	-1.7366	-0.0024	-0.0158	0.0086	31.3200	8.3122	15.2690	0.5960	0.2733	0.7184	-0.2324
5	-9.4998	-0.0707	-1.7427	-0.0003	-0.0140	0.0078	31.4166	8.1783	15.3070	0.5960	0.2732	0.7184	-0.2324
5.01	-9.4863	-0.0625	-1.7378	-0.0022	-0.0185	0.0059	31.4544	8.3278	15.2314	0.5961	0.2732	0.7184	-0.2324
5.02	-9.4851	-0.0549	-1.7537	-0.0019	-0.0143	0.0039	31.4620	8.2830	15.1558	0.5961	0.2732	0.7183	-0.2324
5.03	-9.4871	-0.0698	-1.7408	0.0003	-0.0146	0.0061	31.3047	8.4818	15.0468	0.5961	0.2732	0.7183	-0.2324
5.04	-9.4893	-0.0748	-1.7390	-0.0023	-0.0146	0.0066	31.1746	8.3648	15.2094	0.5962	0.2732	0.7183	-0.2324
5.05	-9.4844	-0.0904	-1.7476	-0.0025	-0.0085	0.0064	31.2192	8.3034	15.0367	0.5961	0.2731	0.7183	-0.2324
5.06	-9.4891	-0.0902	-1.7517	-0.0045	-0.0084	0.0058	31.3007	8.1105	15.0943	0.5962	0.2731	0.7184	-0.2324
5.07	-9.4947	-0.0954	-1.7498	0.0037	-0.0134	0.0065	31.2820	8.2049	15.1672	0.5962	0.2731	0.7183	-0.2324
5.08	-9.4897	-0.1070	-1.7453	-0.0022	-0.0100	0.0089	31.3087	8.1919	15.1780	0.5962	0.2731	0.7184	-0.2324
5.09	-9.4838	-0.1000	-1.7458	-0.0058	-0.0102	0.0114	31.1871	8.4938	15.4456	0.5962	0.2731	0.7183	-0.2323
5.1	-9.4836	-0.1043	-1.7410	-0.0032	-0.0084	0.0058	31.1133	8.5386	15.3638	0.5962	0.2731	0.7183	-0.2323
5.11	-9.4866	-0.1046	-1.7410	0.0044	-0.0119	0.0087	31.1203	8.4685	15.1404	0.5962	0.2731	0.7183	-0.2323
5.12	-9.4861	-0.1033	-1.7332	0.0003	-0.0073	0.0020	31.1483	8.3923	15.1393	0.5962	0.2731	0.7183	-0.2323
5.13	-9.4861	-0.1069	-1.7332	-0.0030	-0.0075	0.0028	31.0843	8.4083	15.2429	0.5962	0.2731	0.7183	-0.2323
5.14	-9.4962	-0.1055	-1.7297	-0.0015	-0.0048	0.0013	31.2155	8.4404	15.2252	0.5962	0.2731	0.7183	-0.2323
5.15	-9.4907	-0.1096	-1.7180	-0.0026	-0.0089	0.0044	31.2715	8.2375	15.0485	0.5962	0.2730	0.7184	-0.2323
5.16	-9.4966	-0.0930	-1.7272	-0.0014	-0.0101	0.0032	31.1168	8.4252	15.1387	0.5962	0.2730	0.7183	-0.2323
5.17	-9.4865	-0.0947	-1.7067	-0.0024	-0.0133	0.0065	31.0944	8.3607	15.3616	0.5962	0.2730	0.7184	-0.2323
5.18	-9.4865	-0.0844	-1.7222	0.0003	-0.0146	0.0104	31.2317	8.1240	15.2969	0.5962	0.2730	0.7183	-0.2323
5.19	-9.5020	-0.0723	-1.7215	-0.0018	-0.0135	0.0089	31.5030	8.2276	15.1377	0.5963	0.2730	0.7183	-0.2323
5.2	-9.4869	-0.0641	-1.7352	0.0013	-0.0087	0.0005	31.3368	8.2231	15.2648	0.5963	0.2730	0.7183	-0.2323
5.21	-9.4919	-0.0699	-1.7505	-0.0006	-0.0088	0.0057	31.3759	8.2511	15.3308	0.5963	0.2730	0.7183	-0.2323
5.22	-9.4847	-0.0781	-1.7519	-0.0022	-0.0116	0.0121	31.3657	8.3465	15.1631	0.5963	0.2730	0.7183	-0.2322
5.23	-9.4890	-0.0811	-1.7565	-0.0012	-0.0149	0.0059	31.3656	8.2243	15.0869	0.5963	0.2729	0.7183	-0.2322
5.24	-9.4924	-0.0814	-1.7585	-0.0016	-0.0134	0.0062	31.3941	8.2249	14.8421	0.5964	0.2730	0.7183	-0.2322
5.25	-9.4858	-0.0792	-1.7566	-0.0031	-0.0125	0.0082	31.1928	8.2407	15.2520	0.5963	0.2729	0.7183	-0.2322
5.26	-9.4919	-0.0674	-1.7454	0.0000	-0.0129	0.0080	31.3159	8.1890	15.3741	0.5964	0.2730	0.7183	-0.2322
5.27	-9.4857	-0.0725	-1.7450	0.0036	-0.0130	0.0093	31.4901	8.4270	15.2142	0.5964	0.2729	0.7182	-0.2322
5.28	-9.4876	-0.0646	-1.7390	-0.0002	-0.0057	0.0011	31.0825	8.5654	15.2428	0.5964	0.2729	0.7183	-0.2322
5.29	-9.4898	-0.0754	-1.7444	-0.0022	-0.0104	-0.0005	31.2132	8.2460	15.2175	0.5964	0.2729	0.7183	-0.2322
5.3	-9.4963	-0.0646	-1.7402	-0.0013	-0.0070	0.0038	31.1243	8.4762	15.3137	0.5963	0.2729	0.7183	-0.2322
5.31	-9.4949	-0.0681	-1.7384	-0.0039	-0.0075	0.0004	31.1258	8.4699	15.3205	0.5964	0.2729	0.7184	-0.2322
5.32	-9.4799	-0.0766	-1.7449	-0.0056	-0.0073	0.0027	31.3623	8.4870	15.6099	0.5964	0.2728	0.7183	-0.2322
5.33	-9.4859	-0.0798	-1.7534	-0.0014	-0.0127	0.0004	31.5439	8.6357	15.7162	0.5964	0.2728	0.7184	-0.2322
5.34	-9.4775	-0.0738	-1.7439	-0.0007	-0.0094	0.0051	31.3144	8.3080	15.5411	0.5963	0.2727	0.7183	-0.2322
5.35	-9.4855	-0.0695	-1.7508	0.0002	-0.0121	0.0073	31.0403	8.2350	15.4286	0.5964	0.2728	0.7184	-0.2322
5.36	-9.5016	-0.0709	-1.7477	0.0002	-0.0167	0.0098	30.9803	8.3670	15.1043	0.5964	0.2728	0.7183	-0.2322
5.37	-9.4898	-0.0610	-1.7442	-0.0024	-0.0163	0.0086	31.3198	8.1147	15.3273	0.5964	0.2727	0.7183	-0.2322
5.38	-9.4875	-0.0784	-1.7464	-0.0009	-0.0158	0.0078	31.1875	8.4010	15.3136	0.5965	0.2727	0.7183	-0.2322
5.39	-9.4956	-0.0824	-1.7374	-0.0003	-0.0106	0.0118	31.2507	8.1455	15.2288	0.5965	0.2727	0.7183	-0.2322
5.4	-9.4929	-0.0818	-1.7360	0.0009	-0.0105	0.0081	31.3103	8.3006	15.2014	0.5965	0.2728	0.7183	-0.2322
5.41	-9.4842	-0.0929	-1.7300	0.0016	-0.0088	0.0066	31.2943	8.3597	15.0371	0.5965	0.2727	0.7182	-0.2321
5.42	-9.4907	-0.0862	-1.7271	-0.0009	-0.0121	0.0037	31.2856	8.3348	15.1714	0.5965	0.2727	0.7183	-0.2322
5.43	-9.4831	-0.0853	-1.7233	-0.0036	-0.0123	0.0086	31.1899	8.3272	15.3154	0.5965	0.2727	0.7182	-0.2321
5.44	-9.4870	-0.0809	-1.7296	0.0029	-0.0022	0.0133	31.4392	8.4153	15.5367	0.5965	0.2728	0.7183	-0.2321
5.45	-9.4855	-0.0899	-1.7097	0.0015	-0.0164	0.0115	31.0541	8.3482	15.3755	0.5965	0.2728	0.7182	-0.2321
5.46	-9.4827	-0.0836	-1.7221	-0.0049	-0.0158	0.0061	31.1059	8.1934	15.4433	0.5966	0.2727	0.7182	-0.2321
5.47	-9.4763	-0.0771	-1.7210	-0.0020	-0.0088	0.0052	31.2437	8.3704	15.5337	0.5966	0.2727	0.7182	-0.2321
5.48	-9.4782	-0.0714	-1.7233	-0.0013	-0.0152	0.0029	31.1407	8.5199	15.3901	0.5966	0.2727	0.7182	-0.2321
5.49	-9.4850	-0.0674	-1.7379	0.0022	-0.0132	0.0083	30.9857	8.3980	15.4112	0.5967	0.2727	0.7182	-0.2321
5.5	-9.4902	-0.0748	-1.7303	0.0054	-0.0119	0.0073	31.1824	8.4212	15.5383	0.5966	0.2727	0.7182	-0.2321
5.51	-9.4903	-0.0685	-1.7274	-0.0007	-0.0095	0.0024	31.2903	8.4350	15.4089	0.5967	0.2727	0.7182	-0.2321
5.52	-9.4847	-0.0814	-1.7264	-0.0022	-0.0086	0.0067	31.0649	8.3272	15.4107	0.5966	0.2727	0.7182	-0.2321
5.53	-9.4856	-0.0753	-1.7358	0.0021	-0.0068	0.0042	31.5026	8.2403	15.4027	0.5966	0.2727	0.7182	-0.2321
5.54	-9.4852	-0.0780	-1.7343	0.0002	-0.0114	0.0071	31.1773	8.2839	15.2764	0.5966	0.2727	0.7182	-0.2321
5.55	-9.4853	-0.0814	-1.7348	0.0020	-0.0145	0.0147	31.1003	8.4613	15.4188	0.5966	0.2727	0.7181	-0.2321
5.56	-9.4959	-0.0854	-1.7383	0.0035	-0.0177	0.0108	31.2317	8.1867	15.3962	0.5967	0.2727	0.7182	-0.2321
5.57	-9.4969	-0.0770	-1.7415	-0.0047	-0.0085	0.0121	31.1999	8.2261	15.5834	0.5967	0.2727	0.7181	-0.2321
5.58	-9.4928	-0.0790	-1.7358	0.0035	-0.0164	0.0075	31.2013	8.2056	15.3135	0.5968	0.2727	0.7182	-0.2321
5.59	-9.4891	-0.0776	-1.7429	0.0079	-0.0117	0.0059	31.2984	8.1569	15.4449	0.5967	0.2727	0.7180	-0.2321
5.6	-9.4823	-0.0789	-1.7508	-0.0055	-0.0153	0.0109	31.1714	8.3797	15.3407	0.5968	0.2727	0.7181	-0.2321
5.61	-9.4789	-0.0779	-1.7522	-0.0002	-0.0135	0.0105	31.2820	8.4913	15.2446	0.5968	0.2727	0.7181	-0.2321
5.62	-9.4867	-0.0806	-1.7557	-0.0023	-0.0163	0.0109	31.2367	8.4494	15.3459	0.5968	0.2727	0.7180	-0.2320
5.63	-9.4807	-0.0768	-1.7546	0.0080	-0.0075	0.0060	31.1026	8.3150	15.3226	0.5968	0.2728	0.7180	-0.2321
5.64	-9.4921	-0.0774	-1.7499	0.0027	-0.0115	0.0107	31.3930	8.4645	15.2811	0.5968	0.2728	0.7180	-0.2320
5.65	-9.4924	-0.0837	-1.7515	0.0090	-0.0154	0.0130	31.3088	8.3962	15.2608	0.5969	0.2728	0.7180	-0.2321
5.66	-9.4828	-0.0771	-1.7505	-0.0010	-0.0111	0.0075	31.2766	8.4484	15.4266	0.5968	0.2728	0.7179	-0.2320
5.67	-9.4847	-0.0821	-1.7527	-0.0023	-0.0052	0.0072	31.2951	8.3868	15.4138	0.5969	0.2728	0.7180	-0.2320
5.68	-9.4901	-0.0817	-1.7640	0.0010	-0.0089	0.0072	31.1316	8.3357	15.3689	0.5968	0.2728	0.7180	-0.2320
5.69	-9.5019	-0.0867	-1.7525	-0.0034	-0.0180	0.0055	31.1768	8.3144	15.2896	0.5969	0.2728	0.7180	-0.2320
5.7	-9.4950	-0.0877	-1.7449	0.0023	-0.0147	0.0129	31.3261	8.4594	15.4280	0.5969	0.2728	0.7179	-0.2320
5.71	-9.4863	-0.0850	-1.7411	0.0013	-0.0141	0.0114	31.1246	8.4695	15.3968	0.5969	0.2728	0.7179	-0.2320
5.72	-9.4787	-0.0789	-1.7439	-0.0024	-0.0105	0.0126	31.1893	8.4463	15.4058	0.5970	0.2728	0.7179	-0.2320
5.73	-9.4942	-0.0856	-1.7348	0.0012	-0.0147	0.0142	31.2004	8.5465	15.4121	0.5969	0.2728	0.7178	-0.2319
5.74	-9.4944	-0.0864	-1.7390	0.0037	-0.0157	0.0100	31.2385	8.2795	15.2963	0.5970	0.2729	0.7179	-0.2320
5.75	-9.4849	-0.0798	-1.7440	0.0034	-0.0165	0.0103	31.2734	8.3969	15.3568	0.5970	0.2729	0.7178	-0.2320
5.76	-9.4938	-0.0798	-1.7391	0.0023	-0.0169	0.0078	31.1772	8.4429	15.2219	0.5971	0.2729	0.7179	-0.2320
5.77	-9.4946	-0.0774	-1.7402	0.0040	-0.0127	0.0105	31.3068	8.3240	15.3347	0.5970	0.2729	0.7177	-0.2320
5.78	-9.4829	-0.0734	-1.7258	0.0005	-0.0132	0.0085	31.2852	8.3567	15.4159	0.5971	0.2729	0.7178	-0.2320
5.79	-9.4889	-0.0701	-1.7314	0.0060	-0.0095	0.0085	31.1127	8.2893	15.2631	0.5971	0.2729	0.7178	-0.2320
5.8	-9.4846	-0.0716	-1.7288	0.0027	-0.0112	0.0107	31.2595	8.2235	15.4436	0.5971	0.2729	0.7177	-0.2320
5.81	-9.4829	-0.0792	-1.7264	0.0003	-0.0115	0.0073	31.4894	8.3845	15.2887	0.5972	0.2729	0.7178	-0.2320
5.82	-9.4836	-0.0771	-1.7334	0.0080	-0.0140	0.0115	31.4421	8.5516	15.3788	0.5971	0.2730	0.7177	-0.2320
5.83	-9.5038	-0.0843	-1.7259	0.0065	-0.0108	0.0060	31.6345	8.2401	15.6392	0.5972	0.2730	0.7177	-0.2320
5.84	-9.5038	-0.0737	-1.7338	-0.0004	-0.0080	0.0051	31.4884	8.3904	15.4498	0.5971	0.2729	0.7177	-0.2320
5.85	-9.4918	-0.0767	-1.7354	0.0027	-0.0098	0.0060	31.2772	8.4507	15.4615	0.5971	0.2730	0.7177	-0.2320
5.86	-9.4876	-0.0822	-1.7324	-0.0022	-0.0094	0.0033	31.1033	8.3715	15.1972	0.5971	0.2729	0.7177	-0.2320
5.87	-9.4901	-0.0804	-1.7412	0.0042	-0.0055	0.0047	31.0396	8.3680	15.1302	0.5971	0.2729	0.7177	-0.2320
5.88	-9.4829	-0.0888	-1.7379	0.0008	-0.0109	0.0045	31.1493	8.4720	15.1359	0.5971	0.2730	0.7177	-0.2320
5.89	-9.4766	-0.0878	-1.7400	0.0005	-0.0122	0.0012	31.1054	8.5646	15.4363	0.5971	0.2729	0.7177	-0.2320
5.9	-9.4955	-0.0860	-1.7392	0.0094	-0.0087	0.0080	31.1529	8.4980	15.2677	0.5971	0.2730	0.7177	-0.2321
5.91	-9.4907	-0.0847	-1.7395	0.0014	-0.0113	0.0075	31.0238	8.3423	15.2210	0.5971	0.2729	0.7176	-0.2320
5.92	-9.4805	-0.0858	-1.7333	0.0088	-0.0164	0.0123	31.1688	8.4189	15.3199	0.5972	0.2730	0.7177	-0.2321
5.93	-9.4900	-0.0778	-1.7382	0.0042	-0.0130	0.0081	31.3619	8.2800	15.0734	0.5971	0.2730	0.7176	-0.2321
5.94	-9.4987	-0.0706	-1.7408	0.0048	-0.0118	0.0091	31.3850	8.1951	15.2732	0.5972	0.2730	0.7177	-0.2321
5.95	-9.4832	-0.0577	-1.7446	0.0073	-0.0096	0.0069	31.3458	8.2135	15.1393	0.5971	0.2730	0.7176	-0.2321
5.96	-9.4895	-0.0654	-1.7536	-0.0016	-0.0073	0.0043	31.3090	8.2455	15.1603	0.5971	0.2730	0.7176	-0.2321
5.97	-9.4896	-0.0730	-1.7493	-0.0016	-0.0079	0.0059	31.3885	8.2880	15.3478	0.5972	0.2730	0.7177	-0.2321
5.98	-9.4855	-0.0794	-1.7553	-0.0009	-0.0078	0.0056	31.3139	8.0975	15.2414	0.5971	0.2730	0.7176	-0.2321
5.99	-9.4849	-0.0794	-1.7429	0.0039	-0.0094	0.0057	31.1424	8.1546	15.1559	0.5972	0.2730	0.7177	-0.2321
6	-9.4882	-0.0860	-1.7439	0.0015	-0.0106	0.0041	31.0742	8.2278	15.4033	0.5971	0.2730	0.7176	-0.2321
6.01	-9.4954	-0.0893	-1.7432	0.0027	-0.0147	0.0071	31.3322	8.1943	15.2158	0.5972	0.2730	0.7177	-0.2321
6.02	-9.4820	-0.0882	-1.7391	0.0011	-0.0085	0.0085	31.1896	8.3005	15.3490	0.5971	0.2730	0.7176	-0.2321
6.03	-9.4948	-0.0783	-1.7339	-0.0016	-0.0079	0.0022	31.3036	8.5155	15.1741	0.5972	0.2730	0.7176	-0.2321
6.04	-9.4948	-0.0696	-1.7453	-0.0047	-0.0111	0.0062	31.1351	8.3884	15.1643	0.5972	0.2730	0.7177	-0.2321
6.05	-9.4870	-0.0758	-1.7409	-0.0011	-0.0148	0.0018	31.1016	8.3687	15.3571	0.5972	0.2729	0.7176	-0.2321
6.06	-9.4877	-0.0813	-1.7356	-0.0029	-0.0114	0.0040	31.2532	8.3807	15.1952	0.5972	0.2729	0.7177	-0.2321
6.07	-9.4804	-0.0760	-1.7327	-0.0024	-0.0051	0.0023	31.2588	8.3742	15.1509	0.5972	0.2729	0.7177	-0.2321
6.08	-9.4836	-0.0743	-1.7303	0.0016	-0.0079	0.0042	31.0071	8.1691	15.1207	0.5972	0.2729	0.7177	-0.2321
6.09	-9.4748	-0.0878	-1.7432	-0.0069	-0.0128	0.0079	31.1463	8.3967	15.3302	0.5972	0.2728	0.7176	-0.2320
6.1	-9.4862	-0.1082	-1.7361	-0.0044	-0.0121	0.0106	31.1997	8.4508	15.4231	0.5972	0.2729	0.7177	-0.2320
6.11	-9.4846	-0.1076	-1.7312	-0.0018	-0.0147	0.0081	31.0905	8.3530	15.2375	0.5972	0.2728	0.7176	-0.2320
6.12	-9.4774	-0.1026	-1.7357	0.0006	-0.0133	0.0028	31.4691	8.3515	15.2322	0.5972	0.2728	0.7176	-0.2320
6.13	-9.4858	-0.1015	-1.7379	0.0014	-0.0076	0.0043	31.4244	8.0799	15.3493	0.5973	0.2728	0.7177	-0.2320
6.14	-9.4855	-0.0879	-1.7332	-0.0036	-0.0081	0.0094	31.3803	8.0685	15.3249	0.5973	0.2728	0.7176	-0.2320
6.15	-9.4799	-0.0741	-1.7278	0.0046	-0.0076	0.0060	31.4849	8.4010	15.1374	0.5973	0.2728	0.7177	-0.2320
6.16	-9.4851	-0.0660	-1.7306	0.0045	-0.0082	0.0032	31.3771	8.2958	15.2442	0.5972	0.2728	0.7176	-0.2320
6.17	-9.4868	-0.0736	-1.7241	0.0017	-0.0073	0.0062	31.1404	8.2006	15.2348	0.5972	0.2728	0.7177	-0.2320
6.18	-9.4858	-0.0735	-1.7236	-0.0016	-0.0096	0.0084	31.3277	8.3487	15.2556	0.5972	0.2728	0.7177	-0.2320
6.19	-9.4822	-0.0771	-1.7133	0.0012	-0.0141	0.0085	31.3239	8.2057	15.1703	0.5973	0.2728	0.7177	-0.2320
6.2	-9.4937	-0.0818	-1.7360	0.0002	-0.0145	0.0089	31.2831	8.2199	15.1384	0.5973	0.2728	0.7176	-0.2320
6.21	-9.4887	-0.0805	-1.7356	0.0052	-0.0091	0.0053	31.1525	8.3182	15.2915	0.5973	0.2728	0.7176	-0.2320
6.22	-9.4798	-0.0803	-1.7448	-0.0031	-0.0047	0.0072	30.9829	8.4477	15.3301	0.5973	0.2728	0.7177	-0.2320
6.23	-9.4847	-0.0784	-1.7538	-0.0040	-0.0103	0.0033	31.1482	8.4595	15.3039	0.5972	0.2728	0.7176	-0.2320
6.24	-9.4848	-0.0814	-1.7425	0.0015	-0.0049	0.0058	31.1944	8.3733	15.3442	0.5973	0.2728	0.7177	-0.2320
6.25	-9.4885	-0.0742	-1.7508	0.0001	-0.0105	0.0012	31.1067	8.3542	15.2746	0.5972	0.2728	0.7177	-0.2320
6.26	-9.4827	-0.0714	-1.7420	-0.0013	-0.0143	0.0031	31.1397	8.4530	15.2149	0.5973	0.2728	0.7177	-0.2320
6.27	-9.4856	-0.0690	-1.7520	-0.0041	-0.0092	0.0069	31.1187	8.4510	15.2411	0.5972	0.2727	0.7176	-0.2320
6.28	-9.4913	-0.0806	-1.7442	-0.0059	-0.0098	0.0033	31.1355	8.3779	15.2264	0.5973	0.2727	0.7177	-0.2320
6.29	-9.4821	-0.0853	-1.7363	-0.0021	-0.0202	0.0072	31.2851	8.4843	15.2402	0.5973	0.2727	0.7177	-0.2320
6.3	-9.4856	-0.0900	-1.7366	-0.0016	-0.0116	0.0085	31.2693	8.1619	15.2361	0.5973	0.2727	0.7176	-0.2319
6.31	-9.4843	-0.0817	-1.7345	-0.0023	-0.0129	0.0104	31.4866	8.4487	15.2451	0.5974	0.2727	0.7177	-0.2319
6.32	-9.4900	-0.0772	-1.7334	0.0003	-0.0099	0.0129	31.6650	8.1714	15.3907	0.5974	0.2727	0.7176	-0.2319
6.33	-9.4853	-0.0753	-1.7299	-0.0009	-0.0060	0.0091	31.7113	8.1924	15.7027	0.5974	0.2727	0.7177	-0.2319
6.34	-9.4825	-0.0813	-1.7364	0.0069	-0.0124	0.0101	31.4803	8.2002	15.5728	0.5973	0.2727	0.7176	-0.2319
6.35	-9.4842	-0.0780	-1.7392	0.0033	-0.0101	0.0120	31.2247	8.3309	15.2910	0.5974	0.2728	0.7176	-0.2319
6.36	-9.4785	-0.0824	-1.7467	0.0053	-0.0100	0.0097	30.9733	8.4664	15.2386	0.5974	0.2728	0.7176	-0.2319
6.37	-9.4901	-0.0874	-1.7476	0.0091	-0.0050	0.0082	31.1090	8.3192	15.2300	0.5974	0.2728	0.7176	-0.2319
6.38	-9.4872	-0.0785	-1.7380	-0.0006	-0.0081	0.0051	31.2480	8.2461	15.2335	0.5974	0.2728	0.7176	-0.2319
6.39	-9.4973	-0.0735	-1.7335	-0.0017	-0.0150	0.0117	31.4040	8.3602	15.5197	0.5974	0.2728	0.7176	-0.2319
6.4	-9.4848	-0.0670	-1.7408	-0.0021	-0.0067	0.0037	31.3073	8.3004	15.6285	0.5974	0.2728	0.7176	-0.2319
6.41	-9.4921	-0.0527	-1.7365	-0.0019	-0.0114	0.0083	31.1983	8.4230	15.4824	0.5973	0.2728	0.7175	-0.2318
6.42	-9.4937	-0.0498	-1.7274	-0.0040	-0.0117	0.0088	31.1097	8.3945	15.3929	0.5974	0.2728	0.7176	-0.2318
6.43	-9.4900	-0.0471	-1.7182	-0.0002	-0.0079	0.0068	31.1456	8.2778	15.5728	0.5974	0.2728	0.7176	-0.2318
6.44	-9.4884	-0.0613	-1.7268	0.0024	-0.0071	0.0035	31.3149	8.1988	15.3173	0.5974	0.2728	0.7176	-0.2318
6.45	-9.4894	-0.0544	-1.7324	-0.0008	-0.0045	0.0031	31.1786	8.4640	15.4197	0.5974	0.2728	0.7176	-0.2318
6.46	-9.4868	-0.0560	-1.7345	-0.0033	-0.0091	0.0062	31.2449	8.4491	15.5030	0.5974	0.2728	0.7176	-0.2318
6.47	-9.4809	-0.0594	-1.7363	0.0002	-0.0110	0.0068	31.2773	8.2675	15.3241	0.5974	0.2728	0.7176	-0.2318
6.48	-9.4906	-0.0741	-1.7379	-0.0006	-0.0140	0.0065	31.0827	8.4352	15.3125	0.5974	0.2727	0.7176	-0.2318
6.49	-9.4927	-0.0765	-1.7465	-0.0010	-0.0163	0.0111	31.3535	8.3041	15.3382	0.5975	0.2728	0.7176	-0.2318
6.5	-9.4855	-0.0767	-1.7505	0.0011	-0.0083	0.0150	31.4961	8.2146	15.1590	0.5974	0.2728	0.7176	-0.2317
6.51	-9.4873	-0.0731	-1.7482	0.0012	-0.0089	0.0062	31.3799	8.3429	15.4722	0.5975	0.2728	0.7177	-0.2318
6.52	-9.4903	-0.0790	-1.7504	-0.0047	-0.0093	0.0039	31.2798	8.2317	15.5194	0.5974	0.2727	0.7176	-0.2317
6.53	-9.4870	-0.0883	-1.7391	0.0004	-0.0092	0.0049	31.2807	8.2715	15.3821	0.5975	0.2727	0.7176	-0.2317
6.54	-9.4863	-0.0929	-1.7510	0.0030	-0.0092	0.0041	31.3092	8.3618	15.4182	0.5975	0.2727	0.7176	-0.2317
6.55	-9.4894	-0.1014	-1.7530	0.0005	-0.0093	0.0065	31.1980	8.5893	15.4599	0.5974	0.2727	0.7176	-0.2317
6.56	-9.4844	-0.1032	-1.7500	-0.0016	-0.0092	0.0057	31.2161	8.4639	15.5339	0.5975	0.2727	0.7177	-0.2317
6.57	-9.4945	-0.1049	-1.7559	-0.0031	-0.0070	0.0054	31.1832	8.4103	15.2822	0.5974	0.2727	0.7176	-0.2317
6.58	-9.4963	-0.1016	-1.7433	-0.0017	-0.0096	0.0100	31.2975	8.3550	15.2630	0.5975	0.2727	0.7177	-0.2317
6.59	-9.4867	-0.0945	-1.7459	-0.0040	-0.0136	0.0065	31.1957	8.3166	15.4444	0.5974	0.2727	0.7176	-0.2317
6.6	-9.4897	-0.0972	-1.7569	-0.0012	-0.0091	0.0014	31.2300	8.3257	15.3838	0.5975	0.2727	0.7177	-0.2317
6.61	-9.4883	-0.0955	-1.7466	0.0035	-0.0096	0.0100	31.1396	8.3472	15.4437	0.5975	0.2727	0.7176	-0.2317
6.62	-9.4800	-0.0968	-1.7476	0.0015	-0.0077	0.0057	31.1918	8.2350	15.3136	0.5975	0.2727	0.7176	-0.2317
6.63	-9.4792	-0.0959	-1.7423	-0.0012	-0.0184	0.0016	31.2155	8.3469	15.3435	0.5975	0.2726	0.7176	-0.2317
6.64	-9.4773	-0.0936	-1.7408	0.0018	-0.0115	0.0033	31.1061	8.5375	15.2640	0.5975	0.2726	0.7176	-0.2317
6.65	-9.4923	-0.0975	-1.7445	-0.0001	-0.0089	0.0078	31.3275	8.2444	15.2670	0.5975	0.2726	0.7176	-0.2317
6.66	-9.4872	-0.0857	-1.7295	-0.0004	-0.0163	0.0058	31.1850	8.3019	15.4430	0.5975	0.2726	0.7175	-0.2317
6.67	-9.4979	-0.0912	-1.7148	0.0012	-0.0144	0.0046	31.2317	8.5661	15.2733	0.5976	0.2726	0.7176	-0.2317
6.68	-9.5023	-0.0910	-1.7321	-0.0009	-0.0165	0.0130	31.3099	8.2397	15.3826	0.5976	0.2726	0.7176	-0.2317
6.69	-9.4876	-0.0873	-1.7302	-0.0028	-0.0125	0.0028	31.2736	8.3843	15.4310	0.5976	0.2726	0.7176	-0.2317
6.7	-9.4836	-0.0857	-1.7208	0.0022	-0.0167	0.0095	31.2965	8.4262	15.3909	0.5976	0.2726	0.7175	-0.2317
6.71	-9.4848	-0.0828	-1.7222	-0.0036	-0.0144	0.0068	31.3937	8.1894	15.2046	0.5977	0.2726	0.7175	-0.2317
6.72	-9.4866	-0.0742	-1.7137	0.0082	-0.0126	0.0015	31.1538	8.2842	15.4527	0.5977	0.2726	0.7175	-0.2317
6.73	-9.4864	-0.0785	-1.7229	0.0085	-0.0154	0.0082	31.1098	8.1973	15.2829	0.5976	0.2726	0.7174	-0.2317
6.74	-9.4879	-0.0818	-1.7378	-0.0029	-0.0134	0.0032	31.1419	8.3963	15.5768	0.5977	0.2726	0.7175	-0.2318
6.75	-9.4878	-0.0783	-1.7331	0.0031	-0.0115	0.0096	31.1018	8.3418	15.3564	0.5977	0.2726	0.7175	-0.2317
6.76	-9.4901	-0.0877	-1.7328	0.0027	-0.0125	0.0078	31.2116	8.1771	15.1652	0.5977	0.2726	0.7175	-0.2318
6.77	-9.4921	-0.0938	-1.7374	0.0013	-0.0127	0.0095	31.2025	8.4587	15.4406	0.5977	0.2726	0.7174	-0.2317
6.78	-9.4878	-0.0841	-1.7378	-0.0038	-0.0073	0.0061	31.2179	8.2568	15.5213	0.5977	0.2726	0.7175	-0.2317
6.79	-9.4866	-0.0807	-1.7306	-0.0005	-0.0111	0.0058	31.3285	8.4522	15.4410	0.5977	0.2726	0.7175	-0.2317
6.8	-9.4829	-0.0680	-1.7511	0.0005	-0.0073	0.0076	31.1927	8.5256	15.3861	0.5977	0.2725	0.7174	-0.2317
6.81	-9.4831	-0.0566	-1.7376	-0.0005	-0.0087	0.0094	31.2157	8.2862	15.4199	0.5978	0.2726	0.7175	-0.2317
6.82	-9.4801	-0.0510	-1.7390	-0.0021	-0.0089	0.0066	31.4531	8.4976	15.5512	0.5977	0.2726	0.7175	-0.2317
6.83	-9.4835	-0.0611	-1.7424	-0.0019	-0.0118	0.0060	31.6178	8.4576	15.6144	0.5978	0.2726	0.7175	-0.2317
6.84	-9.4904	-0.0566	-1.7522	-0.0018	-0.0018	0.0026	31.4935	8.3467	15.4874	0.5977	0.2725	0.7174	-0.2316
6.85	-9.4955	-0.0626	-1.7395	-0.0023	-0.0092	0.0071	31.1920	8.4307	15.3221	0.5977	0.2725	0.7175	-0.2316
6.86	-9.5001	-0.0617	-1.7394	0.0003	-0.0148	0.0106	31.1839	8.3263	15.2619	0.5977	0.2725	0.7175	-0.2316
6.87	-9.4932	-0.0649	-1.7419	0.0054	-0.0149	0.0082	31.4973	8.1419	15.1828	0.5977	0.2725	0.7175	-0.2316
6.88	-9.4949	-0.0686	-1.7417	0.0037	-0.0091	0.0054	31.2256	8.2329	15.0577	0.5978	0.2726	0.7175	-0.2316
6.89	-9.4962	-0.0595	-1.7398	-0.0012	-0.0065	0.0052	31.3397	8.4142	15.1982	0.5977	0.2725	0.7175	-0.2316
6.9	-9.4914	-0.0763	-1.7376	0.0021	-0.0127	0.0094	31.4971	8.4909	15.3221	0.5978	0.2726	0.7175	-0.2316
6.91	-9.4900	-0.0793	-1.7398	-0.0025	-0.0089	0.0039	31.2439	8.2046	15.3283	0.5977	0.2725	0.7174	-0.2316
6.92	-9.4930	-0.0891	-1.7549	-0.0004	-0.0074	0.0038	31.2852	8.3474	15.4543	0.5978	0.2725	0.7175	-0.2316
6.93	-9.4891	-0.0834	-1.7457	0.0058	-0.0080	0.0047	31.3854	8.3124	15.3608	0.5977	0.2725	0.7175	-0.2316
6.94	-9.4888	-0.0971	-1.7470	0.0004	-0.0070	0.0049	31.2801	8.3322	15.3365	0.5977	0.2725	0.7175	-0.2316
6.95	-9.4932	-0.0978	-1.7375	-0.0031	-0.0174	0.0082	31.1887	8.2240	15.2282	0.5977	0.2725	0.7175	-0.2316
6.96	-9.4914	-0.0894	-1.7345	-0.0060	-0.0117	0.0071	31.1833	8.5899	15.2698	0.5978	0.2725	0.7175	-0.2316
6.97	-9.4944	-0.0915	-1.7282	-0.0023	-0.0108	0.0060	31.2132	8.5098	15.3186	0.5978	0.2725	0.7175	-0.2316
6.98	-9.4768	-0.0932	-1.7339	-0.0021	-0.0063	0.0018	31.1036	8.4604	15.1014	0.5977	0.2724	0.7175	-0.2316
6.99	-9.4823	-0.0854	-1.7259	-0.0029	-0.0118	0.0049	31.1315	8.5117	15.1991	0.5978	0.2724	0.7176	-0.2316
7	-9.4814	-0.0835	-1.7158	0.0000	-0.0113	0.0046	31.2100	8.4265	15.2153	0.5978	0.2724	0.7175	-0.2316
7.01	-9.4951	-0.0884	-1.7278	-0.0063	-0.0085	0.0068	31.1879	8.4363	15.3618	0.5978	0.2724	0.7176	-0.2316
7.02	-9.4888	-0.0835	-1.7209	-0.0024	-0.0075	0.0036	31.1781	8.5997	15.6142	0.5978	0.2723	0.7175	-0.2315
7.03	-9.4932	-0.0822	-1.7300	-0.0034	-0.0056	0.0030	31.0940	8.5314	15.3460	0.5978	0.2723	0.7176	-0.2315
7.04	-9.4968	-0.0854	-1.7368	0.0043	-0.0099	0.0098	31.1083	8.4416	15.2800	0.5978	0.2724	0.7176	-0.2315
7.05	-9.5039	-0.0913	-1.7245	0.0068	-0.0148	0.0117	31.1661	8.2993	15.1569	0.5978	0.2724	0.7175	-0.2315
7.06	-9.4856	-0.0779	-1.7330	-0.0042	-0.0167	0.0082	31.4063	8.3496	15.1371	0.5979	0.2724	0.7176	-0.2315
7.07	-9.4833	-0.0801	-1.7462	-0.0017	-0.0140	0.0080	31.0510	8.3982	15.3468	0.5978	0.2724	0.7175	-0.2315
7.08	-9.5011	-0.0722	-1.7365	0.0001	-0.0067	0.0091	31.2672	8.4385	15.1908	0.5979	0.2724	0.7175	-0.2315
7.09	-9.4948	-0.0709	-1.7520	-0.0041	-0.0076	0.0023	31.2609	8.2080	15.1409	0.5978	0.2723	0.7175	-0.2314
7.1	-9.4907	-0.0758	-1.7478	0.0030	-0.0071	0.0054	31.3171	8.2854	15.3752	0.5978	0.2723	0.7175	-0.2315
7.11	-9.4872	-0.0673	-1.7499	-0.0007	-0.0106	0.0039	31.2979	8.2818	15.1572	0.5978	0.2723	0.7175	-0.2315
7.12	-9.4837	-0.0826	-1.7491	-0.0017	-0.0123	0.0062	31.0795	8.2343	15.1411	0.5978	0.2723	0.7175	-0.2315
7.13	-9.4817	-0.0744	-1.7374	-0.0058	-0.0052	0.0026	31.2069	8.1253	15.2750	0.5978	0.2723	0.7176	-0.2314
7.14	-9.4981	-0.0852	-1.7438	-0.0063	-0.0112	0.0071	31.3319	8.2233	15.3416	0.5978	0.2723	0.7176	-0.2314
7.15	-9.4964	-0.0769	-1.7566	-0.0042	-0.0171	0.0066	31.3053	8.3776	15.3525	0.5979	0.2722	0.7176	-0.2314
7.16	-9.4921	-0.0766	-1.7502	-0.0020	-0.0117	0.0069	31.2558	8.5888	15.2143	0.5978	0.2722	0.7175	-0.2314
7.17	-9.4829	-0.0791	-1.7529	-0.0028	-0.0051	0.0009	31.2732	8.5255	15.2791	0.5979	0.2722	0.7176	-0.2314
7.18	-9.4951	-0.0752	-1.7554	-0.0026	-0.0079	0.0025	30.9990	8.3804	15.2932	0.5979	0.2722	0.7176	-0.2314
7.19	-9.4923	-0.0812	-1.7506	-0.0015	-0.0070	0.0006	31.1063	8.5951	15.2147	0.5979	0.2721	0.7176	-0.2314
7.2	-9.4878	-0.0783	-1.7473	-0.0011	-0.0101	0.0040	31.1966	8.4816	15.2312	0.5978	0.2721	0.7176	-0.2314
7.21	-9.4878	-0.0782	-1.7486	-0.0001	-0.0035	0.0043	31.0850	8.3360	15.3994	0.5978	0.2721	0.7176	-0.2314
7.22	-9.4917	-0.0771	-1.7509	-0.0009	-0.0073	0.0032	31.1247	8.5478	15.3526	0.5978	0.2721	0.7177	-0.2314
7.23	-9.4919	-0.0861	-1.7402	0.0077	-0.0133	0.0102	31.0761	8.4905	15.3261	0.5978	0.2721	0.7176	-0.2314
7.24	-9.4880	-0.0827	-1.7434	-0.0023	-0.0117	0.0080	31.4267	8.4132	15.2022	0.5979	0.2721	0.7177	-0.2314
7.25	-9.4936	-0.0798	-1.7408	-0.0014	-0.0073	0.0068	31.2732	8.3308	15.3336	0.5978	0.2721	0.7176	-0.2313
7.26	-9.4957	-0.0843	-1.7343	-0.0043	-0.0137	0.0110	31.3360	8.2008	15.2117	0.5979	0.2721	0.7177	-0.2313
7.27	-9.4945	-0.0767	-1.7402	0.0029	-0.0134	0.0042	31.3707	8.2593	15.0571	0.5979	0.2721	0.7176	-0.2313
7.28	-9.4900	-0.0723	-1.7326	-0.0021	-0.0082	0.0049	31.3504	8.2371	15.1652	0.5979	0.2721	0.7176	-0.2313
7.29	-9.4844	-0.0659	-1.7318	0.0056	-0.0061	0.0033	31.3511	8.2263	15.0540	0.5979	0.2721	0.7177	-0.2313
7.3	-9.4890	-0.0785	-1.7401	0.0040	-0.0109	0.0075	31.0941	8.3174	15.3568	0.5978	0.2721	0.7176	-0.2313
7.31	-9.4958	-0.0814	-1.7483	-0.0012	-0.0128	0.0082	31.1152	8.3045	15.3140	0.5979	0.2721	0.7177	-0.2313
7.32	-9.4980	-0.0841	-1.7544	0.0046	-0.0106	0.0076	31.5018	8.3730	15.4926	0.5979	0.2721	0.7176	-0.2313
7.33	-9.4975	-0.0919	-1.7416	0.0032	-0.0119	0.0112	31.8767	8.6197	15.5185	0.5979	0.2721	0.7177	-0.2313
7.34	-9.4858	-0.0963	-1.7457	0.0075	-0.0067	0.0058	31.6005	8.4705	15.4683	0.5978	0.2721	0.7176	-0.2313
7.35	-9.4843	-0.0887	-1.7398	-0.0006	-0.0068	0.0090	31.3664	8.3859	15.3919	0.5979	0.2721	0.7176	-0.2313
7.36	-9.4901	-0.0856	-1.7451	-0.0008	-0.0099	0.0042	31.2425	8.4489	15.2893	0.5979	0.2721	0.7176	-0.2313
7.37	-9.4806	-0.0783	-1.7336	-0.0005	-0.0158	0.0071	31.0405	8.3044	15.2994	0.5979	0.2721	0.7176	-0.2313
7.38	-9.4706	-0.0790	-1.7244	0.0021	-0.0082	0.0080	31.0816	8.3404	15.2929	0.5979	0.2721	0.7176	-0.2313
7.39	-9.4842	-0.0885	-1.7282	0.0006	-0.0069	0.0062	31.1358	8.2596	15.4193	0.5979	0.2721	0.7176	-0.2313
7.4	-9.4900	-0.0828	-1.7251	-0.0024	-0.0072	0.0063	31.1849	8.0948	15.1510	0.5979	0.2721	0.7177	-0.2313
7.41	-9.4890	-0.0910	-1.7247	0.0039	-0.0113	0.0091	31.3073	8.2660	15.4420	0.5978	0.2721	0.7176	-0.2313
7.42	-9.4856	-0.0887	-1.7231	0.0085	-0.0103	0.0089	31.2985	8.3167	15.2009	0.5979	0.2722	0.7176	-0.2313
7.43	-9.4760	-0.0845	-1.7223	0.0064	-0.0081	0.0060	31.1511	8.3414	15.3497	0.5979	0.2722	0.7176	-0.2313
7.44	-9.4890	-0.0931	-1.7311	0.0018	-0.0156	0.0165	31.4149	8.2450	15.4941	0.5979	0.2722	0.7176	-0.2313
7.45	-9.4882	-0.0795	-1.7403	0.0009	-0.0114	0.0074	31.5843	8.2543	15.1456	0.5979	0.2722	0.7176	-0.2313
7.46	-9.4958	-0.0831	-1.7343	0.0075	-0.0079	0.0074	31.3885	8.1011	15.2805	0.5979	0.2722	0.7176	-0.2313
7.47	-9.4960	-0.0865	-1.7397	0.0075	-0.0099	0.0052	31.3915	8.2942	15.3124	0.5979	0.2722	0.7176	-0.2313
7.48	-9.4857	-0.0791	-1.7348	0.0006	-0.0075	0.0068	31.3589	8.2711	15.2846	0.5978	0.2722	0.7175	-0.2313
7.49	-9.4858	-0.0814	-1.7401	0.0011	-0.0089	0.0123	31.3261	8.2104	15.4300	0.5979	0.2723	0.7176	-0.2313
7.5	-9.4870	-0.0753	-1.7271	0.0063	-0.0147	0.0117	31.0724	8.4214	15.3164	0.5979	0.2723	0.7176	-0.2313
7.51	-9.4955	-0.0669	-1.7358	0.0071	-0.0140	0.0127	31.1724	8.5350	15.3266	0.5979	0.2723	0.7176	-0.2313
7.52	-9.4946	-0.0645	-1.7420	0.0093	-0.0064	0.0048	31.3016	8.2895	15.5238	0.5978	0.2723	0.7175	-0.2313
7.53	-9.4824	-0.0699	-1.7454	0.0014	-0.0044	0.0025	31.2308	8.2384	15.1862	0.5979	0.2723	0.7176	-0.2313
7.54	-9.4800	-0.0600	-1.7474	-0.0030	-0.0077	0.0064	31.2858	8.3947	15.3115	0.5979	0.2723	0.7176	-0.2313
7.55	-9.4850	-0.0630	-1.7424	0.0020	-0.0053	0.0061	31.1666	8.4177	15.4916	0.5978	0.2723	0.7175	-0.2313
7.56	-9.4855	-0.0733	-1.7374	0.0022	-0.0106	0.0070	31.3376	8.2945	15.3754	0.5979	0.2723	0.7176	-0.2313
7.57	-9.4778	-0.0715	-1.7472	-0.0017	-0.0053	0.0042	31.2607	8.3555	15.5166	0.5978	0.2723	0.7176	-0.2313
7.58	-9.4823	-0.0628	-1.7534	0.0004	-0.0051	0.0045	31.1347	8.2288	15.4030	0.5978	0.2723	0.7177	-0.2313
7.59	-9.4858	-0.0662	-1.7476	0.0028	-0.0044	0.0040	31.2000	8.3234	15.3607	0.5977	0.2723	0.7176	-0.2313
7.6	-9.4937	-0.0644	-1.7553	0.0117	-0.0109	0.0095	31.4417	8.4153	15.4262	0.5978	0.2723	0.7176	-0.2313
7.61	-9.4926	-0.0792	-1.7502	0.0061	-0.0129	0.0072	31.2749	8.2691	15.4763	0.5978	0.2724	0.7176	-0.2313
7.62	-9.4791	-0.0784	-1.7493	-0.0003	-0.0090	0.0068	31.1551	8.4182	15.4951	0.5978	0.2723	0.7176	-0.2313
7.63	-9.4872	-0.0858	-1.7551	0.0017	-0.0153	0.0081	31.4379	8.3122	15.3427	0.5978	0.2724	0.7176	-0.2313
7.64	-9.4950	-0.0912	-1.7507	0.0078	-0.0109	0.0052	31.5538	8.3287	15.2185	0.5978	0.2724	0.7176	-0.2314
7.65	-9.4847	-0.0824	-1.7514	0.0082	-0.0080	0.0102	31.3444	8.1293	15.3403	0.5978	0.2724	0.7176	-0.2314
7.66	-9.4855	-0.0837	-1.7344	0.0002	-0.0120	0.0072	31.1785	8.3128	15.2787	0.5977	0.2724	0.7175	-0.2314
7.67	-9.4906	-0.0785	-1.7467	0.0004	-0.0124	0.0116	31.2708	8.4366	15.4046	0.5978	0.2724	0.7176	-0.2314
7.68	-9.4934	-0.0789	-1.7410	0.0017	-0.0102	0.0083	31.5367	8.2229	15.0780	0.5978	0.2724	0.7176	-0.2313
7.69	-9.4948	-0.0906	-1.7380	0.0004	-0.0187	0.0109	31.1149	8.3222	15.2712	0.5979	0.2724	0.7176	-0.2313
7.7	-9.4928	-0.0902	-1.7433	-0.0007	-0.0156	0.0096	31.2323	8.3013	15.4102	0.5979	0.2724	0.7175	-0.2313
7.71	-9.4903	-0.0887	-1.7398	0.0039	-0.0149	0.0061	31.0871	8.3643	15.3581	0.5979	0.2724	0.7175	-0.2313
7.72	-9.4877	-0.0810	-1.7442	0.0025	-0.0095	0.0052	31.2405	8.3721	15.2380	0.5979	0.2724	0.7175	-0.2314
7.73	-9.4863	-0.0782	-1.7415	0.0093	-0.0097	0.0047	31.3985	8.2428	15.5013	0.5978	0.2724	0.7174	-0.2314
7.74	-9.4842	-0.0824	-1.7373	0.0020	-0.0045	0.0058	31.3600	8.1169	15.3577	0.5979	0.2724	0.7176	-0.2314
7.75	-9.4873	-0.0799	-1.7353	0.0052	-0.0084	0.0043	31.1317	8.2432	15.3024	0.5978	0.2724	0.7175	-0.2314
7.76	-9.4850	-0.0779	-1.7387	0.0043	-0.0096	0.0035	31.1824	8.3474	15.4876	0.5979	0.2724	0.7176	-0.2314
7.77	-9.4851	-0.0801	-1.7397	0.0003	-0.0092	0.0041	31.3191	8.3113	15.4699	0.5978	0.2724	0.7175	-0.2314
7.78	-9.4847	-0.0853	-1.7305	0.0037	-0.0092	0.0074	31.2683	8.4235	15.3567	0.5978	0.2724	0.7175	-0.2314
7.79	-9.4914	-0.0882	-1.7308	-0.0016	-0.0081	0.0104	31.1862	8.4076	15.4128	0.5978	0.2724	0.7175	-0.2314
7.8	-9.4924	-0.0899	-1.7253	0.0090	-0.0099	0.0066	31.2904	8.3357	15.2908	0.5978	0.2724	0.7175	-0.2314
7.81	-9.4943	-0.0785	-1.7304	0.0008	-0.0158	0.0092	31.3967	8.2255	15.3146	0.5979	0.2725	0.7176	-0.2314
7.82	-9.4907	-0.0789	-1.7242	0.0095	-0.0110	0.0063	31.6305	8.3833	15.4312	0.5978	0.2725	0.7175	-0.2314
7.83	-9.4879	-0.0841	-1.7392	0.0023	-0.0133	0.0041	31.9699	8.4555	15.7979	0.5979	0.2725	0.7175	-0.2315
7.84	-9.4885	-0.0823	-1.7288	-0.0042	-0.0079	0.0064	31.6942	8.2647	15.4529	0.5978	0.2724	0.7175	-0.2314
7.85	-9.4845	-0.0696	-1.7301	-0.0000	-0.0092	0.0049	31.3462	8.2175	15.3825	0.5978	0.2724	0.7175	-0.2314
7.86	-9.4893	-0.0744	-1.7371	0.0054	-0.0121	0.0042	31.2134	8.3871	15.2626	0.5978	0.2724	0.7175	-0.2314
7.87	-9.4875	-0.0800	-1.7402	0.0034	-0.0085	0.0059	31.3057	8.2223	15.1209	0.5978	0.2724	0.7175	-0.2314
7.88	-9.4899	-0.0822	-1.7370	0.0043	-0.0116	0.0043	31.2079	8.2481	15.2065	0.5978	0.2724	0.7175	-0.2315
7.89	-9.4992	-0.0851	-1.7351	-0.0041	-0.0153	0.0072	31.1926	8.2181	15.3929	0.5978	0.2724	0.7175	-0.2315
7.9	-9.4868	-0.0803	-1.7458	0.0027	-0.0116	0.0009	31.0479	8.2806	15.2649	0.5979	0.2724	0.7175	-0.2315
7.91	-9.4845	-0.0833	-1.7363	0.0044	-0.0060	0.0008	31.0497	8.4088	15.2437	0.5978	0.2724	0.7175	-0.2315
7.92	-9.4901	-0.0795	-1.7483	0.0041	-0.0096	0.0064	31.0390	8.3911	15.2503	0.5978	0.2724	0.7175	-0.2315
7.93	-9.4870	-0.0762	-1.7518	0.0132	-0.0064	0.0062	30.9276	8.4102	15.2473	0.5978	0.2724	0.7175	-0.2315
7.94	-9.4920	-0.0677	-1.7543	0.0009	-0.0056	-0.0012	31.0481	8.5948	15.2769	0.5978	0.2724	0.7176	-0.2316
7.95	-9.4855	-0.0677	-1.7533	-0.0029	-0.0072	-0.0017	31.0377	8.4424	15.4976	0.5977	0.2724	0.7176	-0.2316
7.96	-9.4894	-0.0650	-1.7445	0.0014	-0.0074	0.0068	31.0545	8.4193	15.2988	0.5977	0.2724	0.7176	-0.2316
7.97	-9.4877	-0.0718	-1.7517	0.0026	-0.0104	0.0003	31.2125	8.4983	15.1482	0.5977	0.2724	0.7176	-0.2316
7.98	-9.4868	-0.0667	-1.7454	-0.0041	-0.0091	0.0054	31.1828	8.4932	15.4423	0.5977	0.2723	0.7175	-0.2315
7.99	-9.4744	-0.0564	-1.7413	0.0033	-0.0126	0.0086	31.4135	8.3640	15.3613	0.5978	0.2723	0.7176	-0.2316
8	-9.4779	-0.0563	-1.7289	0.0023	-0.0130	0.0034	31.5815	8.2070	15.2555	0.5977	0.2723	0.7176	-0.2316
8.01	-9.4830	-0.0559	-1.7308	-0.0025	-0.0142	0.0079	31.2196	8.2538	14.9313	0.5978	0.2723	0.7176	-0.2316
8.02	-9.4862	-0.0642	-1.7354	0.0014	-0.0122	0.0055	31.2187	8.2315	15.1940	0.5977	0.2723	0.7175	-0.2316
8.03	-9.4865	-0.0658	-1.7353	-0.0062	-0.0100	0.0063	31.1807	8.2275	15.1811	0.5978	0.2723	0.7176	-0.2315
8.04	-9.4915	-0.0759	-1.7321	0.0010	-0.0115	0.0030	31.1425	8.2763	15.1214	0.5978	0.2723	0.7176	-0.2315
8.05	-9.4968	-0.0823	-1.7452	-0.0028	-0.0188	0.0032	31.3113	8.3555	15.3578	0.5978	0.2722	0.7175	-0.2315
8.06	-9.4970	-0.0810	-1.7442	0.0013	-0.0111	0.0062	31.2705	8.1962	15.3165	0.5979	0.2722	0.7176	-0.2316
8.07	-9.4831	-0.0860	-1.7355	0.0007	-0.0111	0.0035	31.3180	8.1560	15.1586	0.5978	0.2722	0.7176	-0.2316
8.08	-9.4883	-0.0868	-1.7375	0.0010	-0.0093	0.0076	31.2214	8.1376	15.3540	0.5978	0.2722	0.7176	-0.2316
8.09	-9.4831	-0.0864	-1.7360	0.0038	-0.0063	0.0033	31.1958	8.2374	15.3659	0.5977	0.2722	0.7175	-0.2315
8.1	-9.4711	-0.0879	-1.7340	-0.0010	-0.0077	0.0033	31.2127	8.4407	15.2814	0.5978	0.2722	0.7176	-0.2316
8.11	-9.4846	-0.0793	-1.7362	0.0067	-0.0077	0.0028	31.2074	8.3745	15.1567	0.5978	0.2722	0.7176	-0.2316
8.12	-9.4849	-0.0763	-1.7338	0.0046	-0.0033	-0.0023	31.2064	8.4665	15.3723	0.5977	0.2722	0.7176	-0.2316
8.13	-9.4940	-0.0701	-1.7263	0.0013	-0.0060	0.0013	31.2070	8.5907	15.2301	0.5977	0.2722	0.7177	-0.2316
8.14	-9.4966	-0.0683	-1.7385	-0.0013	-0.0039	0.0005	31.2004	8.6553	15.3675	0.5977	0.2721	0.7177	-0.2316
8.15	-9.4930	-0.0784	-1.7285	-0.0000	-0.0084	0.0045	31.0242	8.4546	15.3162	0.5977	0.2721	0.7177	-0.2316
8.16	-9.4842	-0.0795	-1.7268	0.0006	-0.0092	0.0044	31.1372	8.5790	15.3468	0.5976	0.2721	0.7177	-0.2316
8.17	-9.4820	-0.0841	-1.7375	-0.0017	-0.0087	0.0099	31.1006	8.4470	15.3227	0.5977	0.2721	0.7177	-0.2316
8.18	-9.4998	-0.0882	-1.7420	0.0015	-0.0129	0.0106	31.1976	8.3822	15.3626	0.5977	0.2721	0.7177	-0.2316
8.19	-9.4920	-0.0871	-1.7308	0.0055	-0.0171	0.0091	31.3874	8.4224	15.2759	0.5977	0.2721	0.7177	-0.2316
8.2	-9.4802	-0.0836	-1.7417	0.0048	-0.0094	0.0084	31.3671	8.3143	15.1523	0.5977	0.2721	0.7177	-0.2316
8.21	-9.4926	-0.0757	-1.7396	0.0011	-0.0068	0.0025	31.3626	8.2011	15.3130	0.5977	0.2721	0.7177	-0.2316
8.22	-9.4889	-0.0777	-1.7408	-0.0021	-0.0106	0.0070	31.3863	8.3110	15.3737	0.5977	0.2721	0.7177	-0.2316
8.23	-9.4919	-0.0821	-1.7508	0.0039	-0.0118	0.0049	31.2822	8.3170	15.2639	0.5976	0.2721	0.7176	-0.2316
8.24	-9.4881	-0.0782	-1.7466	0.0021	-0.0101	0.0043	31.2172	8.3358	15.0455	0.5977	0.2721	0.7177	-0.2316
8.25	-9.4893	-0.0796	-1.7513	0.0088	-0.0085	0.0073	31.3126	8.2743	15.2497	0.5976	0.2721	0.7177	-0.2316
8.26	-9.4950	-0.0844	-1.7489	0.0063	-0.0099	0.0075	31.2901	8.2312	15.0270	0.5977	0.2722	0.7177	-0.2317
8.27	-9.4901	-0.0795	-1.7524	0.0006	-0.0159	0.0066	31.2910	8.2248	15.3937	0.5976	0.2721	0.7176	-0.2316
8.28	-9.4805	-0.0738	-1.7408	0.0002	-0.0120	0.0043	31.0691	8.3780	15.3998	0.5977	0.2721	0.7177	-0.2317
8.29	-9.4819	-0.0749	-1.7405	-0.0001	-0.0059	0.0050	31.1899	8.5405	15.3351	0.5977	0.2721	0.7177	-0.2317
8.3	-9.4794	-0.0735	-1.7401	-0.0008	-0.0106	0.0037	31.2252	8.6746	15.2425	0.5976	0.2721	0.7177	-0.2316
8.31	-9.4857	-0.0736	-1.7405	-0.0022	-0.0209	0.0025	31.0895	8.4269	15.3613	0.5977	0.2721	0.7177	-0.2317
8.32	-9.4882	-0.0740	-1.7367	-0.0026	-0.0144	-0.0003	31.4433	8.3122	15.5776	0.5977	0.2720	0.7177	-0.2317
8.33	-9.4941	-0.0767	-1.7361	0.0039	-0.0016	0.0035	31.7473	8.4772	15.4858	0.5977	0.2721	0.7177	-0.2317
8.34	-9.4881	-0.0744	-1.7316	0.0009	-0.0143	0.0053	31.5027	8.2723	15.5976	0.5976	0.2720	0.7176	-0.2317
8.35	-9.4823	-0.0733	-1.7378	0.0001	-0.0191	0.0055	31.3702	8.3847	15.4557	0.5977	0.2720	0.7177	-0.2317
8.36	-9.4933	-0.0652	-1.7333	0.0038	-0.0173	0.0145	31.1917	8.4011	15.2210	0.5977	0.2720	0.7176	-0.2317
8.37	-9.4950	-0.0665	-1.7264	0.0012	-0.0147	0.0112	31.3390	8.2432	15.2054	0.5978	0.2720	0.7176	-0.2317
8.38	-9.4906	-0.0641	-1.7329	0.0012	-0.0077	0.0079	31.4568	8.1642	15.3273	0.5978	0.2721	0.7177	-0.2317
8.39	-9.4888	-0.0767	-1.7393	-0.0030	-0.0132	0.0061	31.1719	8.0445	15.2895	0.5978	0.2720	0.7176	-0.2317
8.4	-9.4952	-0.0861	-1.7346	0.0011	-0.0111	0.0124	31.4490	8.3371	15.1333	0.5978	0.2721	0.7177	-0.2317
8.41	-9.4865	-0.0765	-1.7310	0.0028	-0.0103	0.0086	31.2870	8.3163	15.1132	0.5977	0.2720	0.7176	-0.2316
8.42	-9.4945	-0.0806	-1.7396	-0.0018	-0.0155	0.0075	31.0593	8.2600	15.3483	0.5978	0.2721	0.7176	-0.2316
8.43	-9.4933	-0.0845	-1.7432	0.0031	-0.0128	0.0116	31.2987	8.3265	15.2471	0.5978	0.2721	0.7176	-0.2316
8.44	-9.4884	-0.0896	-1.7524	0.0031	-0.0069	0.0024	31.1834	8.4055	15.1794	0.5978	0.2721	0.7176	-0.2316
8.45	-9.4967	-0.0934	-1.7495	0.0069	-0.0142	0.0085	31.2732	8.3925	15.3290	0.5978	0.2721	0.7176	-0.2317
8.46	-9.4863	-0.0873	-1.7461	0.0004	-0.0125	0.0118	31.4891	8.4777	15.2661	0.5978	0.2721	0.7176	-0.2316
8.47	-9.4776	-0.0890	-1.7377	0.0048	-0.0089	0.0076	31.1558	8.4022	15.3810	0.5978	0.2721	0.7176	-0.2317
8.48	-9.4766	-0.0805	-1.7410	-0.0036	-0.0069	0.0014	31.0079	8.2752	15.3117	0.5978	0.2721	0.7175	-0.2316
8.49	-9.4882	-0.0829	-1.7391	0.0010	-0.0076	0.0031	31.1292	8.4525	15.1847	0.5978	0.2721	0.7177	-0.2317
8.5	-9.4945	-0.0801	-1.7450	-0.0017	-0.0115	0.0016	31.1106	8.3789	15.2249	0.5978	0.2720	0.7176	-0.2316
8.51	-9.4862	-0.0824	-1.7248	0.0016	-0.0162	0.0046	31.0915	8.4401	15.4264	0.5979	0.2720	0.7177	-0.2317
8.52	-9.4830	-0.0775	-1.7343	0.0064	-0.0139	0.0089	31.2082	8.3040	15.1661	0.5978	0.2720	0.7176	-0.2317
8.53	-9.4928	-0.0801	-1.7348	-0.0055	-0.0070	0.0050	31.1663	8.2431	15.2857	0.5978	0.2720	0.7176	-0.2317
8.54	-9.4895	-0.0833	-1.7276	0.0006	-0.0138	0.0086	31.2483	8.4030	15.3891	0.5978	0.2720	0.7176	-0.2316
8.55	-9.4875	-0.0851	-1.7355	0.0041	-0.0141	0.0125	31.2619	8.4207	15.1800	0.5978	0.2720	0.7175	-0.2316
8.56	-9.4906	-0.0732	-1.7234	0.0018	-0.0121	0.0094	31.3873	8.3998	15.2268	0.5979	0.2721	0.7176	-0.2317
8.57	-9.4933	-0.0715	-1.7262	0.0029	-0.0084	0.0055	31.2885	8.4443	15.2106	0.5978	0.2720	0.7176	-0.2316
8.58	-9.4927	-0.0729	-1.7260	-0.0033	-0.0141	0.0059	31.3262	8.3024	15.2006	0.5979	0.2720	0.7176	-0.2316
8.59	-9.4880	-0.0742	-1.7202	0.0003	-0.0108	0.0062	31.3691	8.1279	15.3210	0.5978	0.2720	0.7175	-0.2316
8.6	-9.4975	-0.0608	-1.7211	0.0033	-0.0167	0.0072	31.0394	8.2986	15.2766	0.5979	0.2720	0.7176	-0.2316
8.61	-9.4864	-0.0691	-1.7252	0.0026	-0.0161	0.0085	31.1636	8.4792	15.3551	0.5979	0.2720	0.7175	-0.2317
8.62	-9.4926	-0.0808	-1.7226	0.0025	-0.0206	0.0053	31.2628	8.2304	15.3580	0.5979	0.2720	0.7175	-0.2317
8.63	-9.4839	-0.0767	-1.7334	-0.0030	-0.0175	0.0022	31.2773	8.3555	15.0651	0.5980	0.2720	0.7175	-0.2317
8.64	-9.4904	-0.0845	-1.7332	-0.0033	-0.0171	0.0067	31.2819	8.1628	15.3244	0.5980	0.2719	0.7175	-0.2317
8.65	-9.4986	-0.0817	-1.7428	0.0051	-0.0117	0.0082	31.4107	8.2596	15.2206	0.5980	0.2720	0.7175	-0.2317
8.66	-9.4935	-0.0790	-1.7401	-0.0000	-0.0130	0.0047	31.1757	8.4472	15.2936	0.5979	0.2719	0.7174	-0.2317
8.67	-9.4854	-0.0755	-1.7536	-0.0020	-0.0101	0.0014	30.9062	8.3760	15.2833	0.5980	0.2719	0.7175	-0.2317
8.68	-9.4804	-0.0742	-1.7496	-0.0046	-0.0116	0.0093	31.1197	8.2897	15.1790	0.5980	0.2719	0.7175	-0.2317
8.69	-9.4895	-0.0842	-1.7352	-0.0060	-0.0095	0.0044	31.0943	8.1505	15.2384	0.5980	0.2719	0.7175	-0.2316
8.7	-9.4923	-0.0864	-1.7496	0.0059	-0.0086	0.0105	31.2113	8.2427	15.1925	0.5980	0.2719	0.7175	-0.2316
8.71	-9.4916	-0.0962	-1.7544	-0.0004	-0.0108	0.0091	31.1678	8.4964	15.2399	0.5980	0.2719	0.7175	-0.2316
8.72	-9.5025	-0.1047	-1.7564	-0.0044	-0.0075	0.0039	31.2461	8.4441	15.3303	0.5980	0.2719	0.7175	-0.2316
8.73	-9.4940	-0.0971	-1.7410	0.0065	-0.0180	0.0111	31.2755	8.3395	15.2080	0.5980	0.2719	0.7174	-0.2316
8.74	-9.4883	-0.1078	-1.7400	0.0020	-0.0124	0.0117	31.3644	8.2056	15.2163	0.5981	0.2719	0.7175	-0.2316
8.75	-9.4876	-0.1034	-1.7473	0.0020	-0.0128	0.0053	31.3425	8.3292	15.2321	0.5980	0.2719	0.7175	-0.2316
8.76	-9.4863	-0.0914	-1.7513	0.0004	-0.0142	0.0059	31.3741	8.2257	15.4175	0.5981	0.2719	0.7175	-0.2316
8.77	-9.4837	-0.0809	-1.7583	-0.0027	-0.0120	0.0087	31.1746	8.0323	15.2902	0.5980	0.2719	0.7174	-0.2316
8.78	-9.4880	-0.0823	-1.7502	0.0002	-0.0127	0.0064	31.1966	8.3426	15.3189	0.5981	0.2719	0.7175	-0.2316
8.79	-9.4877	-0.0752	-1.7568	0.0056	-0.0086	0.0099	31.3428	8.4511	15.2456	0.5981	0.2719	0.7175	-0.2316
8.8	-9.4862	-0.0713	-1.7613	0.0004	-0.0081	0.0092	31.3615	8.3205	15.1887	0.5980	0.2719	0.7174	-0.2316
8.81	-9.4834	-0.0869	-1.7604	0.0004	-0.0107	0.0062	31.2499	8.3416	15.3287	0.5981	0.2719	0.7175	-0.2316
8.82	-9.4913	-0.0696	-1.7593	0.0072	-0.0086	0.0073	31.5446	8.4385	15.4256	0.5980	0.2719	0.7174	-0.2316
8.83	-9.4981	-0.0797	-1.7565	0.0020	-0.0075	0.0066	31.6045	8.4052	15.5601	0.5981	0.2720	0.7175	-0.2316
8.84	-9.4903	-0.0802	-1.7441	-0.0001	-0.0109	0.0073	31.4915	8.4694	15.5730	0.5980	0.2719	0.7174	-0.2316
8.85	-9.4863	-0.0757	-1.7596	-0.0011	-0.0103	0.0046	31.2977	8.3610	15.2904	0.5981	0.2719	0.7175	-0.2316
8.86	-9.4865	-0.0810	-1.7452	-0.0003	-0.0092	0.0024	31.1975	8.2887	15.3234	0.5980	0.2719	0.7175	-0.2316
8.87	-9.4763	-0.0794	-1.7453	0.0001	-0.0048	0.0062	31.2839	8.3942	15.3412	0.5980	0.2719	0.7175	-0.2316
8.88	-9.4761	-0.0779	-1.7430	-0.0003	-0.0079	0.0046	31.3097	8.4691	15.3543	0.5980	0.2719	0.7175	-0.2316
8.89	-9.4959	-0.0735	-1.7288	0.0033	-0.0063	0.0021	31.4656	8.3966	15.2966	0.5980	0.2719	0.7175	-0.2316
8.9	-9.4891	-0.0743	-1.7179	0.0084	-0.0066	0.0014	31.2757	8.3364	15.2777	0.5980	0.2719	0.7176	-0.2316
8.91	-9.4976	-0.0650	-1.7071	-0.0004	-0.0119	0.0076	31.3324	8.3048	15.4719	0.5979	0.2719	0.7175	-0.2316
8.92	-9.5048	-0.0764	-1.7020	0.0061	-0.0119	0.0087	31.5262	8.3067	15.1906	0.5980	0.2719	0.7176	-0.2316
8.93	-9.4907	-0.0741	-1.7053	0.0017	-0.0094	0.0053	31.5939	8.2101	15.1912	0.5979	0.2719	0.7175	-0.2316
8.94	-9.4932	-0.0666	-1.6976	-0.0028	-0.0167	0.0090	31.4955	8.2468	15.3829	0.5980	0.2719	0.7175	-0.2316
8.95	-9.4912	-0.0791	-1.7066	0.0037	-0.0102	0.0040	31.6176	8.2221	15.2282	0.5980	0.2719	0.7175	-0.2316
8.96	-9.4917	-0.0819	-1.7014	0.0074	-0.0098	0.0082	31.5213	8.4818	15.1870	0.5980	0.2719	0.7175	-0.2317
8.97	-9.4934	-0.0769	-1.7069	0.0060	-0.0081	0.0029	31.4679	8.2611	15.2835	0.5980	0.2719	0.7175	-0.2317
8.98	-9.4900	-0.0806	-1.7107	0.0067	-0.0067	0.0061	31.1672	8.2115	15.2480	0.5979	0.2719	0.7175	-0.2317
8.99	-9.4924	-0.0786	-1.7200	0.0032	-0.0096	0.0048	31.2338	8.2344	15.2503	0.5979	0.2720	0.7176	-0.2317
9	-9.4927	-0.0827	-1.7165	0.0049	-0.0117	0.0081	31.3206	8.2272	15.2836	0.5979	0.2720	0.7175	-0.2317
9.01	-9.4967	-0.0889	-1.7227	0.0094	-0.0140	0.0088	31.4303	8.2321	15.1701	0.5980	0.2720	0.7176	-0.2318
9.02	-9.4890	-0.0797	-1.7318	0.0002	-0.0092	-0.0026	31.1502	8.2228	15.2595	0.5979	0.2719	0.7175	-0.2317
9.03	-9.4951	-0.0750	-1.7391	0.0001	-0.0051	-0.0013	31.2819	8.4459	15.3530	0.5979	0.2719	0.7176	-0.2318
9.04	-9.4867	-0.0766	-1.7356	-0.0011	-0.0061	0.0015	31.3497	8.3413	15.3532	0.5979	0.2719	0.7176	-0.2318
9.05	-9.4887	-0.0871	-1.7487	-0.0013	-0.0078	0.0041	31.2451	8.5668	15.2504	0.5978	0.2719	0.7176	-0.2318
9.06	-9.4888	-0.0869	-1.7609	0.0024	-0.0104	0.0015	31.4010	8.4642	15.2578	0.5979	0.2719	0.7177	-0.2318
9.07	-9.4861	-0.0771	-1.7539	-0.0024	-0.0074	0.0048	31.4699	8.5039	15.2280	0.5978	0.2719	0.7176	-0.2318
9.08	-9.4878	-0.0804	-1.7609	-0.0021	-0.0069	0.0029	31.1852	8.6049	15.3612	0.5978	0.2719	0.7177	-0.2318
9.09	-9.4882	-0.0807	-1.7725	0.0014	-0.0060	0.0043	31.3031	8.4436	15.4842	0.5977	0.2718	0.7176	-0.2318
9.1	-9.4958	-0.0800	-1.7579	0.0008	-0.0130	0.0082	31.3348	8.3119	15.2433	0.5978	0.2718	0.7177	-0.2318
9.11	-9.4954	-0.0832	-1.7678	-0.0033	-0.0123	0.0051	31.3411	8.2476	15.3601	0.5978	0.2718	0.7177	-0.2318
9.12	-9.4925	-0.0794	-1.7682	0.0037	-0.0086	0.0058	31.5571	8.0155	15.4911	0.5978	0.2718	0.7176	-0.2318
9.13	-9.4915	-0.0823	-1.7663	0.0046	-0.0066	0.0069	31.4363	8.2792	15.2225	0.5978	0.2718	0.7177	-0.2318
9.14	-9.4952	-0.0766	-1.7731	0.0063	-0.0088	0.0050	31.6609	8.3250	15.4015	0.5978	0.2718	0.7177	-0.2318
9.15	-9.4840	-0.0804	-1.7674	0.0009	-0.0090	0.0042	31.3655	8.2882	15.2807	0.5978	0.2719	0.7177	-0.2318
9.16	-9.4825	-0.0785	-1.7620	-0.0034	-0.0158	0.0043	31.3655	8.0922	15.1558	0.5977	0.2718	0.7176	-0.2318
9.17	-9.4855	-0.0815	-1.7553	0.0000	-0.0152	0.0055	31.4670	8.3257	15.4012	0.5978	0.2718	0.7177	-0.2318
9.18	-9.4848	-0.0817	-1.7516	0.0010	-0.0127	0.0041	31.5668	8.2171	15.2823	0.5978	0.2718	0.7177	-0.2318
9.19	-9.4920	-0.0824	-1.7474	0.0111	-0.0167	0.0117	31.4418	8.4040	15.2643	0.5978	0.2718	0.7177	-0.2318
9.2	-9.4965	-0.0874	-1.7384	0.0055	-0.0131	0.0099	31.4613	8.2666	15.1491	0.5978	0.2718	0.7176	-0.2318
9.21	-9.4923	-0.0764	-1.7405	0.0021	-0.0072	0.0021	31.5283	8.4391	15.3337	0.5978	0.2718	0.7176	-0.2318
9.22	-9.4833	-0.0663	-1.7290	-0.0020	-0.0039	0.0042	31.1873	8.5036	15.4755	0.5978	0.2718	0.7177	-0.2318
9.23	-9.4849	-0.0747	-1.7364	-0.0009	-0.0072	0.0058	31.2719	8.3318	15.3147	0.5977	0.2718	0.7176	-0.2318
9.24	-9.4923	-0.0763	-1.7298	0.0000	-0.0070	0.0078	31.3916	8.5163	15.4590	0.5978	0.2718	0.7177	-0.2318
9.25	-9.5008	-0.0787	-1.7322	0.0036	-0.0093	0.0068	31.1961	8.6204	15.2340	0.5977	0.2718	0.7177	-0.2318
9.26	-9.4891	-0.0887	-1.7283	0.0055	-0.0039	0.0046	31.2675	8.5513	15.3194	0.5978	0.2719	0.7178	-0.2318
9.27	-9.4892	-0.0793	-1.7303	-0.0049	-0.0045	0.0028	31.3680	8.3334	15.3467	0.5977	0.2718	0.7177	-0.2318
9.28	-9.4860	-0.0778	-1.7241	0.0037	-0.0092	0.0051	31.2717	8.5664	15.4558	0.5977	0.2718	0.7178	-0.2318
9.29	-9.4904	-0.0826	-1.7258	-0.0017	-0.0120	0.0060	31.2515	8.4830	15.3604	0.5977	0.2718	0.7178	-0.2318
9.3	-9.4942	-0.0778	-1.7261	0.0118	-0.0105	0.0073	31.1533	8.2084	15.3324	0.5976	0.2718	0.7177	-0.2318
9.31	-9.4970	-0.0650	-1.7247	0.0068	-0.0078	0.0044	31.5109	8.2351	15.3503	0.5977	0.2719	0.7178	-0.2319
9.32	-9.4893	-0.0708	-1.7187	-0.0002	-0.0072	0.0054	31.7846	8.3752	15.3675	0.5976	0.2718	0.7177	-0.2319
9.33	-9.4826	-0.0778	-1.7200	0.0054	-0.0070	0.0062	31.9016	8.2170	15.5335	0.5976	0.2719	0.7178	-0.2319
9.34	-9.4770	-0.0787	-1.7380	-0.0026	-0.0091	0.0078	31.5890	8.3874	15.5468	0.5976	0.2718	0.7177	-0.2318
9.35	-9.4864	-0.0845	-1.7326	0.0001	-0.0059	0.0067	31.2654	8.4575	15.3599	0.5976	0.2719	0.7178	-0.2318
9.36	-9.4948	-0.0876	-1.7343	0.0011	-0.0113	0.0042	31.1023	8.2581	15.4704	0.5976	0.2718	0.7178	-0.2319
9.37	-9.4941	-0.0860	-1.7392	0.0018	-0.0132	0.0055	31.0903	8.4143	15.3792	0.5976	0.2718	0.7178	-0.2319
9.38	-9.4877	-0.0812	-1.7440	0.0060	-0.0077	0.0062	31.3704	8.3921	15.3608	0.5976	0.2718	0.7178	-0.2319
9.39	-9.4871	-0.0881	-1.7465	0.0089	-0.0108	0.0080	31.3115	8.2817	15.3822	0.5976	0.2719	0.7178	-0.2319
9.4	-9.4852	-0.0810	-1.7529	0.0084	-0.0140	0.0065	31.2084	8.1928	15.3668	0.5976	0.2719	0.7178	-0.2319
9.41	-9.4903	-0.0821	-1.7592	0.0072	-0.0032	0.0029	31.4519	8.3453	15.3836	0.5975	0.2719	0.7177	-0.2319
9.42	-9.4924	-0.0834	-1.7591	0.0140	-0.0104	0.0083	31.0054	8.3745	15.3489	0.5975	0.2719	0.7178	-0.2320
9.43	-9.4908	-0.0846	-1.7511	0.0017	-0.0061	0.0085	31.1835	8.1777	15.4140	0.5975	0.2720	0.7178	-0.2320
9.44	-9.4843	-0.0806	-1.7342	0.0074	-0.0049	0.0056	31.1620	8.5382	15.4974	0.5975	0.2720	0.7178	-0.2320
9.45	-9.4878	-0.0816	-1.7420	0.0071	-0.0086	0.0064	31.0509	8.2537	15.2428	0.5974	0.2720	0.7178	-0.2320
9.46	-9.4970	-0.0916	-1.7461	0.0049	-0.0102	0.0090	31.3777	8.3972	15.1989	0.5974	0.2720	0.7178	-0.2320
9.47	-9.4726	-0.0797	-1.7636	0.0062	-0.0107	0.0079	31.2248	8.5056	15.5595	0.5975	0.2720	0.7178	-0.2320
9.48	-9.4875	-0.0833	-1.7683	0.0005	-0.0114	0.0099	31.1776	8.4774	15.4488	0.5974	0.2720	0.7177	-0.2320
9.49	-9.4797	-0.0892	-1.7515	0.0038	-0.0166	0.0100	31.3724	8.4679	15.3708	0.5975	0.2721	0.7178	-0.2320
9.5	-9.4936	-0.0834	-1.7538	0.0007	-0.0134	0.0115	31.4189	8.2607	15.4806	0.5975	0.2721	0.7177	-0.2320
9.51	-9.4910	-0.0803	-1.7515	-0.0035	-0.0134	0.0119	31.2051	8.3731	15.2388	0.5976	0.2721	0.7178	-0.2320
9.52	-9.4852	-0.0771	-1.7450	0.0039	-0.0152	0.0036	31.1370	8.1077	15.4113	0.5975	0.2720	0.7177	-0.2320
9.53	-9.4862	-0.0775	-1.7492	0.0044	-0.0150	0.0056	31.1542	8.1882	15.3258	0.5975	0.2721	0.7177	-0.2320
9.54	-9.4860	-0.0653	-1.7395	-0.0003	-0.0108	0.0108	31.2472	8.4224	15.2981	0.5975	0.2721	0.7177	-0.2320
9.55	-9.4847	-0.0581	-1.7369	0.0095	-0.0148	0.0090	31.2078	8.3236	15.4951	0.5975	0.2721	0.7177	-0.2320
9.56	-9.4919	-0.0466	-1.7340	0.0086	-0.0151	0.0067	31.0497	8.2092	15.2404	0.5976	0.2721	0.7177	-0.2321
9.57	-9.5000	-0.0472	-1.7294	0.0026	-0.0143	0.0088	31.1961	8.3874	15.1801	0.5975	0.2721	0.7176	-0.2321
9.58	-9.4961	-0.0524	-1.7273	0.0064	-0.0103	0.0088	31.2344	8.3738	15.4505	0.5976	0.2721	0.7177	-0.2321
9.59	-9.4845	-0.0445	-1.7305	-0.0019	-0.0110	0.0106	31.1949	8.1133	15.4649	0.5975	0.2721	0.7176	-0.2320
9.6	-9.4923	-0.0677	-1.7319	0.0009	-0.0069	0.0025	31.2487	8.2878	15.3615	0.5976	0.2721	0.7177	-0.2321
9.61	-9.4956	-0.0767	-1.7161	0.0042	-0.0099	0.0060	31.2995	8.4784	15.5141	0.5975	0.2721	0.7177	-0.2321
9.62	-9.4794	-0.0805	-1.7232	-0.0037	-0.0054	0.0001	31.3500	8.4937	15.3412	0.5975	0.2721	0.7177	-0.2321
9.63	-9.4905	-0.0816	-1.7233	0.0048	-0.0085	0.0025	31.4089	8.3901	15.4903	0.5975	0.2721	0.7177	-0.2321
9.64	-9.4839	-0.0734	-1.7285	0.0015	-0.0089	0.0060	31.2036	8.4038	15.4158	0.5975	0.2721	0.7177	-0.2321
9.65	-9.4894	-0.0806	-1.7215	-0.0022	-0.0115	0.0042	31.2983	8.3931	15.3473	0.5975	0.2721	0.7177	-0.2321
9.66	-9.4947	-0.0777	-1.7377	-0.0009	-0.0102	0.0049	31.2213	8.4148	15.3904	0.5974	0.2720	0.7177	-0.2321
9.67	-9.4957	-0.0760	-1.7306	0.0043	-0.0123	0.0086	31.0351	8.2684	15.2373	0.5975	0.2721	0.7177	-0.2321
9.68	-9.4907	-0.0833	-1.7177	0.0039	-0.0133	0.0154	31.2011	8.0957	15.3440	0.5975	0.2721	0.7177	-0.2321
9.69	-9.4912	-0.0926	-1.7283	-0.0019	-0.0156	0.0117	31.2953	8.5065	15.1388	0.5975	0.2721	0.7177	-0.2321
9.7	-9.5046	-0.0977	-1.7373	0.0022	-0.0130	0.0107	31.2904	8.3866	15.5248	0.5975	0.2721	0.7177	-0.2320
9.71	-9.4973	-0.1025	-1.7366	0.0002	-0.0071	0.0086	31.4321	8.0733	15.3726	0.5975	0.2721	0.7177	-0.2320
9.72	-9.4935	-0.1044	-1.7430	0.0075	-0.0127	0.0098	31.4436	8.4533	15.1204	0.5975	0.2722	0.7177	-0.2321
9.73	-9.4979	-0.0923	-1.7502	0.0047	-0.0096	0.0091	31.2716	8.5162	15.2979	0.5975	0.2722	0.7176	-0.2320
9.74	-9.4835	-0.0871	-1.7393	0.0036	-0.0110	0.0140	31.3185	8.2617	15.3860	0.5976	0.2722	0.7177	-0.2321
9.75	-9.4929	-0.0810	-1.7460	0.0056	-0.0113	0.0128	31.2685	8.2363	15.3543	0.5975	0.2722	0.7176	-0.2320
9.76	-9.4998	-0.0855	-1.7416	0.0111	-0.0172	0.0098	31.1433	8.2166	15.4472	0.5976	0.2723	0.7177	-0.2321
9.77	-9.4889	-0.0803	-1.7493	-0.0003	-0.0135	0.0109	31.1183	8.3234	15.4635	0.5975	0.2723	0.7175	-0.2320
9.78	-9.4809	-0.0774	-1.7450	-0.0041	-0.0067	0.0120	31.2727	8.4150	15.3411	0.5976	0.2723	0.7176	-0.2320
9.79	-9.4805	-0.0771	-1.7429	0.0053	-0.0151	0.0065	31.2792	8.2210	15.3917	0.5976	0.2723	0.7176	-0.2320
9.8	-9.4780	-0.0673	-1.7547	-0.0019	-0.0090	0.0074	31.1077	8.2980	15.3483	0.5975	0.2723	0.7176	-0.2320
9.81	-9.4901	-0.0692	-1.7560	0.0002	-0.0035	0.0053	31.2425	8.4236	15.4842	0.5976	0.2723	0.7177	-0.2320
9.82	-9.4796	-0.0697	-1.7625	0.0010	-0.0012	0.0003	31.5736	8.3863	15.4407	0.5975	0.2723	0.7176	-0.2320
9.83	-9.4863	-0.0727	-1.7707	0.0060	-0.0088	0.0053	31.4447	8.4353	15.7454	0.5975	0.2723	0.7177	-0.2320
9.84	-9.4946	-0.0827	-1.7624	0.0090	-0.0074	0.0048	31.4558	8.2731	15.5475	0.5974	0.2723	0.7176	-0.2320
9.85	-9.4888	-0.0818	-1.7493	0.0004	-0.0118	0.0073	31.3810	8.3522	15.3728	0.5975	0.2723	0.7177	-0.2321
9.86	-9.4853	-0.0931	-1.7412	0.0020	-0.0146	0.0076	31.2185	8.4195	15.2346	0.5975	0.2723	0.7177	-0.2321
9.87	-9.4869	-0.0937	-1.7388	0.0009	-0.0137	0.0078	31.6046	8.2100	15.1848	0.5975	0.2723	0.7176	-0.2321
9.88	-9.4920	-0.0922	-1.7452	0.0057	-0.0153	0.0059	31.4769	8.3687	15.2879	0.5975	0.2723	0.7176	-0.2321
9.89	-9.4928	-0.0839	-1.7282	-0.0011	-0.0081	0.0058	31.4642	8.4063	15.4462	0.5975	0.2723	0.7176	-0.2321
9.9	-9.4885	-0.0855	-1.7353	-0.0005	-0.0119	0.0085	31.3553	8.2440	15.4014	0.5975	0.2723	0.7177	-0.2321
9.91	-9.5011	-0.0830	-1.7319	-0.0004	-0.0093	0.0089	31.5294	8.2472	15.3733	0.5974	0.2723	0.7176	-0.2320
9.92	-9.4915	-0.0753	-1.7131	-0.0050	-0.0065	0.0049	31.1376	8.2416	15.3462	0.5975	0.2723	0.7177	-0.2320
9.93	-9.4935	-0.0811	-1.7209	-0.0045	-0.0096	0.0088	31.2537	8.2398	15.4573	0.5975	0.2723	0.7177	-0.2320
9.94	-9.5010	-0.0802	-1.7350	0.0020	-0.0060	0.0043	31.3444	8.2492	15.5954	0.5975	0.2723	0.7177	-0.2320
9.95	-9.4880	-0.0858	-1.7186	0.0098	-0.0094	0.0060	31.3123	8.2263	15.5159	0.5974	0.2723	0.7177	-0.2320
9.96	-9.4876	-0.0838	-1.7347	-0.0004	-0.0099	0.0071	31.1973	8.5102	15.4430	0.5974	0.2723	0.7177	-0.2320
9.97	-9.4897	-0.0846	-1.7326	-0.0025	-0.0074	0.0051	31.3350	8.5760	15.2571	0.5974	0.2723	0.7177	-0.2320
9.98	-9.4824	-0.0797	-1.7361	0.0004	-0.0061	0.0022	31.2224	8.2967	15.3692	0.5974	0.2722	0.7177	-0.2320
9.99	-9.4847	-0.0784	-1.7349	-0.0016	-0.0056	0.0027	31.3741	8.3432	15.4659	0.5974	0.2723	0.7178	-0.2320
10	-9.4909	-0.0822	-1.7299	-0.0070	-0.0060	0.0020	31.3536	8.4511	15.1732	0.5974	0.2722	0.7178	-0.2320
10.01	-9.4934	-0.0781	-1.7368	0.0032	-0.0101	0.0046	31.1546	8.5655	15.2350	0.5974	0.2722	0.7179	-0.2320
10.02	-9.4880	-0.0820	-1.7331	-0.0039	-0.0071	0.0047	31.1373	8.5791	15.4716	0.5973	0.2722	0.7178	-0.2320
10.03	-9.4852	-0.0805	-1.7349	-0.0054	-0.0096	0.0028	31.3251	8.4512	15.4348	0.5974	0.2722	0.7178	-0.2320
10.04	-9.4913	-0.0838	-1.7350	0.0047	-0.0114	0.0068	31.3803	8.3704	15.4957	0.5974	0.2722	0.7178	-0.2320
10.05	-9.4958	-0.0866	-1.7293	-0.0001	-0.0123	0.0078	31.2847	8.2204	15.2936	0.5973	0.2721	0.7178	-0.2320
10.06	-9.4860	-0.0825	-1.7280	-0.0007	-0.0079	0.0057	31.5231	8.3642	15.2755	0.5974	0.2722	0.7179	-0.2320
10.07	-9.4916	-0.0827	-1.7321	0.0012	-0.0070	0.0066	31.3573	8.4098	15.2957	0.5973	0.2722	0.7178	-0.2320
10.08	-9.5031	-0.0774	-1.7347	-0.0019	-0.0123	0.0053	31.4412	8.2330	15.4939	0.5974	0.2722	0.7179	-0.2320
10.09	-9.4923	-0.0836	-1.7412	-0.0015	-0.0085	0.0056	31.3032	8.2563	15.2710	0.5973	0.2721	0.7178	-0.2319
10.1	-9.4857	-0.0896	-1.7336	0.0016	-0.0074	0.0121	31.2423	8.2231	15.2954	0.5974	0.2722	0.7179	-0.2319
10.11	-9.4934	-0.0852	-1.7396	0.0013	-0.0077	0.0032	31.2350	8.2897	15.4184	0.5973	0.2721	0.7179	-0.2319
10.12	-9.4853	-0.0764	-1.7369	-0.0060	-0.0087	0.0033	31.2592	8.3529	15.2621	0.5973	0.2721	0.7179	-0.2319
10.13	-9.4853	-0.0748	-1.7313	0.0012	-0.0061	0.0028	31.2172	8.2118	15.3910	0.5973	0.2721	0.7179	-0.2319
10.14	-9.5006	-0.0810	-1.7352	0.0028	-0.0100	0.0032	31.2987	8.3984	15.3485	0.5973	0.2721	0.7179	-0.2319
10.15	-9.4974	-0.0721	-1.7324	0.0031	-0.0093	0.0027	31.2766	8.3919	15.4256	0.5973	0.2721	0.7180	-0.2319
10.16	-9.4885	-0.0676	-1.7369	-0.0032	-0.0061	0.0098	31.2168	8.4980	15.4753	0.5972	0.2721	0.7179	-0.2319
10.17	-9.4829	-0.0719	-1.7433	0.0018	-0.0047	0.0077	31.3442	8.4760	15.4217	0.5973	0.2721	0.7180	-0.2319
10.18	-9.4867	-0.0641	-1.7540	0.0037	-0.0071	0.0044	31.0283	8.3765	15.3520	0.5972	0.2721	0.7180	-0.2319
10.19	-9.4897	-0.0662	-1.7414	0.0019	-0.0071	0.0035	31.2260	8.4299	15.3564	0.5972	0.2721	0.7180	-0.2319
10.2	-9.4905	-0.0723	-1.7452	-0.0012	-0.0108	0.0084	31.3315	8.3097	15.4723	0.5972	0.2721	0.7180	-0.2319
10.21	-9.4878	-0.0786	-1.7545	0.0010	-0.0064	0.0046	31.3230	8.3359	15.4382	0.5972	0.2721	0.7180	-0.2319
10.22	-9.4871	-0.0802	-1.7478	0.0004	-0.0071	0.0043	31.2967	8.3107	15.3051	0.5972	0.2721	0.7180	-0.2319
10.23	-9.4846	-0.0838	-1.7483	0.0006	-0.0131	0.0127	31.1278	8.4033	15.1868	0.5971	0.2721	0.7180	-0.2319
10.24	-9.4899	-0.0825	-1.7379	0.0101	-0.0150	0.0113	31.3886	8.3284	15.1941	0.5972	0.2722	0.7180	-0.2319
10.25	-9.4884	-0.0805	-1.7431	0.0061	-0.0112	0.0096	31.5252	8.3051	15.3566	0.5972	0.2722	0.7180	-0.2319
10.26	-9.4927	-0.0735	-1.7410	0.0042	-0.0111	0.0058	31.4193	8.1928	15.3850	0.5972	0.2722	0.7180	-0.2319
10.27	-9.4996	-0.0709	-1.7377	0.0067	-0.0089	0.0066	31.3089	8.4553	15.3562	0.5971	0.2722	0.7179	-0.2319
10.28	-9.4882	-0.0735	-1.7360	-0.0037	-0.0109	0.0044	31.4353	8.2455	15.5034	0.5972	0.2722	0.7180	-0.2319
10.29	-9.4811	-0.0691	-1.7368	0.0031	-0.0100	0.0043	31.3478	8.1498	15.3978	0.5972	0.2722	0.7180	-0.2319
10.3	-9.4828	-0.0699	-1.7395	0.0022	-0.0115	0.0046	31.3050	8.4327	15.3550	0.5971	0.2721	0.7180	-0.2319
10.31	-9.5013	-0.0662	-1.7452	-0.0014	-0.0130	0.0055	31.3343	8.3970	15.3738	0.5972	0.2722	0.7181	-0.2320
10.32	-9.4926	-0.0613	-1.7463	0.0019	-0.0085	0.0022	31.6982	8.3068	15.5208	0.5972	0.2721	0.7180	-0.2320
10.33	-9.4923	-0.0634	-1.7492	0.0060	-0.0091	0.0066	31.6885	8.6022	15.5706	0.5972	0.2722	0.7180	-0.2320
10.34	-9.4901	-0.0672	-1.7349	0.0047	-0.0030	0.0016	31.5179	8.4210	15.4474	0.5971	0.2721	0.7180	-0.2320
10.35	-9.4818	-0.0771	-1.7356	0.0050	-0.0064	0.0059	31.4971	8.3262	15.4864	0.5971	0.2722	0.7181	-0.2320
10.36	-9.4949	-0.0819	-1.7315	0.0069	-0.0047	0.0022	31.3376	8.3610	15.2816	0.5971	0.2722	0.7181	-0.2320
10.37	-9.4887	-0.0921	-1.7388	-0.0009	-0.0099	0.0048	31.1580	8.5755	15.0322	0.5970	0.2722	0.7181	-0.2320
10.38	-9.4828	-0.0986	-1.7518	0.0004	-0.0129	0.0034	31.1502	8.4887	15.3335	0.5971	0.2721	0.7181	-0.2320
10.39	-9.4890	-0.0995	-1.7547	-0.0000	-0.0075	0.0027	31.2899	8.3590	15.3144	0.5970	0.2721	0.7181	-0.2320
10.4	-9.4859	-0.0972	-1.7654	0.0076	-0.0090	0.0042	31.1097	8.2987	15.3099	0.5970	0.2721	0.7181	-0.2321
10.41	-9.4880	-0.0986	-1.7519	0.0020	-0.0122	0.0094	31.0466	8.4112	15.3835	0.5970	0.2721	0.7180	-0.2320
10.42	-9.4888	-0.0981	-1.7498	0.0029	-0.0143	0.0046	31.1847	8.4013	15.3330	0.5971	0.2722	0.7181	-0.2321
10.43	-9.4910	-0.0920	-1.7481	0.0050	-0.0138	0.0046	31.2896	8.2774	15.2390	0.5970	0.2721	0.7181	-0.2321
10.44	-9.4945	-0.0871	-1.7365	0.0025	-0.0104	0.0084	31.3218	8.4317	15.3600	0.5970	0.2722	0.7181	-0.2321
10.45	-9.4872	-0.0806	-1.7387	0.0057	-0.0124	0.0105	31.3871	8.3105	15.3613	0.5970	0.2722	0.7180	-0.2321
10.46	-9.4871	-0.0761	-1.7382	0.0031	-0.0108	0.0079	31.4152	8.1216	15.2634	0.5970	0.2722	0.7180	-0.2321
10.47	-9.4933	-0.0624	-1.7394	0.0056	-0.0108	0.0049	31.3478	8.2117	15.4793	0.5970	0.2722	0.7181	-0.2321
10.48	-9.4921	-0.0693	-1.7389	0.0077	-0.0068	0.0061	31.2251	8.3426	15.3598	0.5970	0.2722	0.7180	-0.2321
10.49	-9.4933	-0.0772	-1.7385	0.0046	-0.0105	0.0034	31.2358	8.3015	15.2608	0.5970	0.2722	0.7181	-0.2322
10.5	-9.4894	-0.0807	-1.7264	0.0028	-0.0124	0.0081	31.2562	8.3785	15.1310	0.5970	0.2722	0.7180	-0.2322
10.51	-9.4969	-0.0876	-1.7234	0.0033	-0.0150	0.0119	31.4161	8.1667	15.3113	0.5971	0.2723	0.7181	-0.2322
10.52	-9.4887	-0.0802	-1.7272	0.0019	-0.0112	0.0105	31.3225	8.2517	15.1489	0.5970	0.2722	0.7180	-0.2321
10.53	-9.4797	-0.0713	-1.7146	0.0029	-0.0136	0.0018	30.9809	8.4289	15.2520	0.5970	0.2722	0.7180	-0.2322
10.54	-9.4861	-0.0598	-1.7132	0.0009	-0.0114	0.0067	31.2166	8.2652	15.3549	0.5970	0.2722	0.7180	-0.2322
10.55	-9.4935	-0.0435	-1.7155	-0.0008	-0.0097	0.0032	31.1859	8.4270	15.2086	0.5970	0.2722	0.7180	-0.2322
10.56	-9.4840	-0.0332	-1.7260	0.0001	-0.0065	0.0057	31.0366	8.3922	15.5074	0.5970	0.2722	0.7181	-0.2322
10.57	-9.4881	-0.0376	-1.7290	-0.0020	-0.0122	0.0040	31.2350	8.4206	15.2542	0.5970	0.2722	0.7180	-0.2322
10.58	-9.4888	-0.0427	-1.7367	-0.0001	-0.0118	0.0026	31.2168	8.3734	15.5620	0.5970	0.2722	0.7181	-0.2322
10.59	-9.4745	-0.0605	-1.7377	-0.0039	-0.0117	0.0058	31.2524	8.1279	15.3507	0.5970	0.2721	0.7180	-0.2322
10.6	-9.4842	-0.0725	-1.7378	-0.0018	-0.0150	0.0080	31.3009	8.3021	15.2778	0.5970	0.2722	0.7181	-0.2322
10.61	-9.4946	-0.0797	-1.7452	-0.0003	-0.0100	0.0095	31.2207	8.6174	15.3842	0.5970	0.2721	0.7180	-0.2321
10.62	-9.4897	-0.0829	-1.7531	0.0033	-0.0088	0.0047	31.2178	8.2006	15.3478	0.5970	0.2721	0.7180	-0.2322
10.63	-9.4915	-0.0765	-1.7421	0.0017	-0.0155	0.0043	31.3526	8.3858	15.3688	0.5970	0.2721	0.7181	-0.2322
10.64	-9.4864	-0.0823	-1.7549	-0.0035	-0.0130	0.0059	31.3581	8.3400	15.3637	0.5970	0.2721	0.7180	-0.2322
10.65	-9.4932	-0.0777	-1.7487	0.0011	-0.0121	0.0035	31.1586	8.0560	15.3523	0.5971	0.2721	0.7181	-0.2322
10.66	-9.4871	-0.0809	-1.7514	0.0017	-0.0120	0.0090	31.4189	8.3783	15.4541	0.5970	0.2721	0.7180	-0.2322
10.67	-9.4858	-0.0822	-1.7521	-0.0052	-0.0182	0.0055	31.3803	8.2919	15.4460	0.5971	0.2721	0.7181	-0.2322
10.68	-9.4867	-0.0852	-1.7531	0.0045	-0.0141	0.0062	31.1193	8.3826	15.1470	0.5971	0.2721	0.7180	-0.2322
10.69	-9.4903	-0.0868	-1.7447	-0.0042	-0.0133	0.0127	31.2968	8.4167	15.2767	0.5971	0.2721	0.7180	-0.2322
10.7	-9.4909	-0.0885	-1.7396	-0.0015	-0.0156	0.0119	31.4050	8.4133	15.2649	0.5971	0.2721	0.7180	-0.2321
10.71	-9.4858	-0.0870	-1.7561	0.0009	-0.0109	0.0108	31.2985	8.4000	15.1754	0.5971	0.2721	0.7180	-0.2321
10.72	-9.4895	-0.0927	-1.7543	-0.0021	-0.0130	0.0026	31.1359	8.2476	15.3656	0.5972	0.2721	0.7180	-0.2321
10.73	-9.4831	-0.0995	-1.7577	-0.0020	-0.0149	0.0048	31.2548	8.2303	15.3607	0.5971	0.2720	0.7179	-0.2321
10.74	-9.4939	-0.0962	-1.7646	-0.0023	-0.0118	0.0021	31.1839	8.3528	15.3592	0.5972	0.2721	0.7180	-0.2321
10.75	-9.5021	-0.0902	-1.7523	-0.0015	-0.0160	0.0063	31.2295	8.4301	15.3637	0.5972	0.2720	0.7180	-0.2321
10.76	-9.4757	-0.0809	-1.7570	-0.0009	-0.0058	0.0054	31.3054	8.3848	15.3184	0.5972	0.2720	0.7181	-0.2321
10.77	-9.4812	-0.0816	-1.7446	-0.0029	-0.0045	0.0051	31.1155	8.5143	15.1245	0.5971	0.2720	0.7180	-0.2321
10.78	-9.4823	-0.0892	-1.7528	-0.0017	-0.0121	0.0061	31.3845	8.3488	15.4962	0.5972	0.2720	0.7180	-0.2321
10.79	-9.4933	-0.0880	-1.7394	-0.0022	-0.0162	0.0124	31.2347	8.1832	15.4748	0.5972	0.2720	0.7180	-0.2321
10.8	-9.4858	-0.0929	-1.7231	0.0022	-0.0112	0.0069	31.2287	8.3612	15.2084	0.5972	0.2720	0.7180	-0.2320
10.81	-9.4896	-0.0937	-1.7330	0.0019	-0.0135	0.0073	31.3227	8.1977	15.5202	0.5973	0.2720	0.7181	-0.2321
10.82	-9.4976	-0.0824	-1.7265	-0.0026	-0.0072	0.0103	31.6968	8.2029	15.5390	0.5972	0.2720	0.7180	-0.2320
10.83	-9.4954	-0.0789	-1.7309	0.0008	-0.0078	0.0065	31.6660	8.4711	15.5718	0.5972	0.2720	0.7181	-0.2320
10.84	-9.4944	-0.0784	-1.7197	-0.0014	-0.0079	0.0072	31.5580	8.2789	15.3704	0.5971	0.2720	0.7180	-0.2320
10.85	-9.4903	-0.0779	-1.7261	-0.0003	-0.0072	0.0083	31.5001	8.1337	15.4238	0.5972	0.2720	0.7180	-0.2320
10.86	-9.4868	-0.0801	-1.7249	0.0009	-0.0108	0.0067	31.3881	8.3621	15.3316	0.5972	0.2720	0.7180	-0.2320
10.87	-9.4865	-0.0797	-1.7223	0.0016	-0.0118	0.0061	31.5173	8.2501	15.2595	0.5972	0.2720	0.7180	-0.2320
10.88	-9.4923	-0.0805	-1.7339	-0.0035	-0.0156	0.0082	31.2855	8.2341	15.3150	0.5972	0.2720	0.7180	-0.2320
10.89	-9.4890	-0.0780	-1.7268	0.0004	-0.0118	0.0119	31.2300	8.3775	15.2313	0.5972	0.2720	0.7180	-0.2320
10.9	-9.4712	-0.0714	-1.7309	0.0031	-0.0107	0.0044	31.2346	8.4179	15.4104	0.5972	0.2720	0.7180	-0.2320
10.91	-9.4945	-0.0605	-1.7300	0.0038	-0.0060	0.0051	31.2539	8.3935	15.4851	0.5971	0.2720	0.7180	-0.2320
10.92	-9.4944	-0.0603	-1.7304	0.0034	-0.0166	0.0049	30.9095	8.4139	15.3119	0.5972	0.2720	0.7180	-0.2320
10.93	-9.4974	-0.0601	-1.7322	0.0003	-0.0074	-0.0003	31.2719	8.3679	15.4276	0.5972	0.2720	0.7180	-0.2320
10.94	-9.4937	-0.0643	-1.7326	0.0022	-0.0043	0.0013	31.2351	8.2789	15.4728	0.5972	0.2720	0.7181	-0.2320
10.95	-9.4834	-0.0635	-1.7446	0.0066	-0.0069	0.0031	30.9201	8.5144	15.4226	0.5971	0.2720	0.7181	-0.2320
10.96	-9.4932	-0.0651	-1.7507	-0.0032	-0.0034	0.0009	31.2856	8.5779	15.6066	0.5971	0.2720	0.7181	-0.2320
10.97	-9.4822	-0.0773	-1.7478	-0.0017	-0.0079	0.0079	31.2668	8.5720	15.5887	0.5971	0.2720	0.7181	-0.2320
10.98	-9.4959	-0.0837	-1.7605	0.0033	-0.0125	0.0083	31.1964	8.5285	15.4319	0.5970	0.2719	0.7181	-0.2320
10.99	-9.5060	-0.0768	-1.7566	0.0109	-0.0156	0.0099	31.4534	8.0612	15.4763	0.5971	0.2720	0.7181	-0.2321
11	-9.4890	-0.0620	-1.7456	0.0067	-0.0107	0.0065	31.4741	8.1394	15.1569	0.5971	0.2720	0.7181	-0.2321
11.01	-9.4913	-0.0754	-1.7448	0.0001	-0.0138	0.0060	31.3042	8.1449	15.0901	0.5971	0.2720	0.7181	-0.2321
11.02	-9.4962	-0.0770	-1.7553	0.0040	-0.0097	0.0055	31.4200	8.3419	15.1948	0.5971	0.2720	0.7180	-0.2321
11.03	-9.4842	-0.0750	-1.7481	0.0011	-0.0086	0.0095	31.3683	8.3106	15.4542	0.5971	0.2720	0.7181	-0.2321
11.04	-9.4846	-0.0811	-1.7454	0.0025	-0.0161	0.0092	31.2959	8.3614	15.3895	0.5971	0.2720	0.7181	-0.2321
11.05	-9.4867	-0.0798	-1.7552	-0.0044	-0.0175	0.0028	31.3284	8.1620	15.1203	0.5971	0.2720	0.7180	-0.2321
11.06	-9.5005	-0.0874	-1.7492	-0.0021	-0.0094	0.0051	31.4026	8.1655	15.4781	0.5972	0.2720	0.7181	-0.2321
11.07	-9.4938	-0.0898	-1.7509	-0.0011	-0.0142	0.0047	31.3877	8.2657	15.5059	0.5971	0.2720	0.7180	-0.2321
11.08	-9.4982	-0.0879	-1.7456	0.0042	-0.0151	0.0066	31.2049	8.2554	15.5019	0.5972	0.2720	0.7181	-0.2321
11.09	-9.4889	-0.0830	-1.7540	0.0021	-0.0132	0.0019	31.3360	8.5222	15.5617	0.5971	0.2719	0.7180	-0.2321
11.1	-9.4861	-0.0853	-1.7375	0.0041	-0.0072	0.0054	31.2688	8.5691	15.4178	0.5972	0.2720	0.7181	-0.2321
11.11	-9.4898	-0.0760	-1.7406	-0.0013	-0.0102	0.0058	31.1164	8.4184	15.2881	0.5971	0.2719	0.7180	-0.2321
11.12	-9.4931	-0.0670	-1.7404	-0.0039	-0.0051	-0.0003	31.1786	8.3905	15.3309	0.5971	0.2719	0.7181	-0.2321
11.13	-9.4939	-0.0748	-1.7294	-0.0007	-0.0063	0.0071	31.1380	8.4180	15.4789	0.5971	0.2719	0.7181	-0.2321
11.14	-9.4856	-0.0843	-1.7379	-0.0029	-0.0055	0.0062	31.1661	8.4959	15.4363	0.5971	0.2719	0.7181	-0.2321
11.15	-9.4897	-0.0883	-1.7318	0.0021	-0.0097	0.0047	31.1373	8.2945	15.4426	0.5971	0.2719	0.7181	-0.2321
11.16	-9.4889	-0.0849	-1.7339	0.0041	-0.0119	0.0021	31.2365	8.4219	15.1428	0.5970	0.2719	0.7181	-0.2321
11.17	-9.4836	-0.0873	-1.7199	-0.0019	-0.0091	0.0030	31.3422	8.2904	15.3506	0.5971	0.2719	0.7182	-0.2321
11.18	-9.4875	-0.0715	-1.7142	0.0027	-0.0160	0.0072	31.5917	8.2321	15.5002	0.5971	0.2719	0.7181	-0.2321
11.19	-9.4912	-0.0621	-1.7235	-0.0054	-0.0129	0.0054	31.6397	8.2580	15.4419	0.5971	0.2719	0.7181	-0.2321
11.2	-9.4768	-0.0614	-1.7247	-0.0037	-0.0105	0.0069	31.2242	8.2362	15.5608	0.5971	0.2718	0.7181	-0.2321
11.21	-9.4853	-0.0612	-1.7304	0.0090	-0.0087	0.0043	31.4222	8.1277	15.4283	0.5971	0.2718	0.7181	-0.2321
11.22	-9.4914	-0.0585	-1.7468	-0.0008	-0.0072	0.0063	31.4311	8.2238	15.4970	0.5971	0.2718	0.7182	-0.2321
11.23	-9.4850	-0.0637	-1.7460	-0.0000	-0.0142	0.0050	31.4003	8.2573	15.3599	0.5970	0.2718	0.7181	-0.2321
11.24	-9.4912	-0.0786	-1.7376	0.0000	-0.0112	0.0068	31.2707	8.2269	15.3860	0.5971	0.2718	0.7182	-0.2321
11.25	-9.5031	-0.0815	-1.7326	-0.0019	-0.0129	0.0048	31.2848	8.4038	15.3318	0.5971	0.2718	0.7181	-0.2321
11.26	-9.4973	-0.0921	-1.7444	0.0062	-0.0098	0.0089	31.2680	8.3849	15.2390	0.5971	0.2718	0.7182	-0.2321
11.27	-9.4879	-0.0889	-1.7445	0.0053	-0.0180	0.0032	31.2335	8.5128	15.3916	0.5971	0.2718	0.7181	-0.2321
11.28	-9.4715	-0.0873	-1.7485	0.0031	-0.0087	-0.0003	31.3042	8.5562	15.4453	0.5971	0.2718	0.7181	-0.2322
11.29	-9.4875	-0.0847	-1.7516	0.0006	-0.0065	0.0116	31.2308	8.4693	15.3060	0.5971	0.2718	0.7181	-0.2321
11.3	-9.4823	-0.0801	-1.7509	0.0007	-0.0069	0.0004	31.1531	8.4839	15.5259	0.5970	0.2718	0.7181	-0.2321
11.31	-9.4848	-0.0814	-1.7623	0.0022	-0.0105	-0.0013	31.1617	8.5020	15.6499	0.5971	0.2718	0.7182	-0.2322
11.32	-9.4866	-0.0736	-1.7576	-0.0017	-0.0068	-0.0021	31.4811	8.5792	15.7366	0.5970	0.2717	0.7182	-0.2322
11.33	-9.4992	-0.0780	-1.7529	-0.0044	-0.0055	0.0050	31.4735	8.6070	15.7015	0.5971	0.2717	0.7183	-0.2322
11.34	-9.4782	-0.0802	-1.7393	-0.0036	-0.0107	0.0058	31.3652	8.3833	15.6791	0.5970	0.2717	0.7182	-0.2321
11.35	-9.4875	-0.0905	-1.7461	0.0039	-0.0111	0.0125	31.1627	8.4817	15.4556	0.5970	0.2717	0.7182	-0.2321
11.36	-9.4862	-0.0919	-1.7459	0.0033	-0.0147	0.0139	31.0664	8.2718	15.3574	0.5970	0.2718	0.7182	-0.2321
11.37	-9.4878	-0.0867	-1.7363	0.0007	-0.0143	0.0097	31.2773	8.1176	15.2692	0.5971	0.2718	0.7182	-0.2321
11.38	-9.4978	-0.0824	-1.7286	-0.0041	-0.0142	0.0053	31.2328	8.2801	15.2879	0.5971	0.2718	0.7182	-0.2321
11.39	-9.4968	-0.0627	-1.7321	-0.0024	-0.0152	0.0044	31.3146	8.2485	15.4564	0.5971	0.2717	0.7182	-0.2321
11.4	-9.5006	-0.0609	-1.7355	0.0011	-0.0196	0.0115	31.4648	8.2304	15.3129	0.5972	0.2717	0.7182	-0.2321
11.41	-9.4851	-0.0597	-1.7252	-0.0034	-0.0207	0.0097	31.3266	8.4188	15.3757	0.5971	0.2717	0.7180	-0.2321
11.42	-9.4876	-0.0648	-1.7235	0.0028	-0.0196	0.0066	31.2198	8.5071	15.3275	0.5972	0.2717	0.7181	-0.2321
11.43	-9.4908	-0.0765	-1.7204	0.0017	-0.0151	0.0033	31.1905	8.3725	15.2018	0.5972	0.2717	0.7181	-0.2321
11.44	-9.4873	-0.0789	-1.7298	0.0001	-0.0171	0.0058	31.3210	8.4566	15.1513	0.5973	0.2717	0.7181	-0.2321
11.45	-9.4888	-0.0811	-1.7283	0.0045	-0.0229	0.0078	31.0365	8.2908	15.2746	0.5973	0.2717	0.7180	-0.2321
11.46	-9.5033	-0.0859	-1.7353	-0.0027	-0.0108	0.0065	31.2800	8.3814	15.2589	0.5973	0.2717	0.7180	-0.2321
11.47	-9.4947	-0.0747	-1.7334	0.0069	-0.0104	0.0072	31.3249	8.2113	15.2686	0.5973	0.2717	0.7180	-0.2322
11.48	-9.4886	-0.0765	-1.7290	-0.0032	-0.0203	0.0019	31.1414	8.1916	15.2686	0.5973	0.2716	0.7179	-0.2321
11.49	-9.4814	-0.0770	-1.7302	-0.0044	-0.0112	0.0038	31.2960	8.5059	15.2509	0.5974	0.2716	0.7180	-0.2322
11.5	-9.4949	-0.0802	-1.7308	-0.0012	-0.0108	0.0078	31.2155	8.2948	15.1454	0.5973	0.2716	0.7180	-0.2321
11.51	-9.4872	-0.0818	-1.7270	-0.0022	-0.0123	0.0071	31.1439	8.2711	15.4663	0.5974	0.2716	0.7181	-0.2321
11.52	-9.4855	-0.0837	-1.7387	-0.0013	-0.0112	0.0114	31.2772	8.5383	15.3242	0.5973	0.2716	0.7180	-0.2321
11.53	-9.4912	-0.0831	-1.7436	-0.0023	-0.0175	0.0110	31.2314	8.2559	15.1548	0.5974	0.2716	0.7180	-0.2321
11.54	-9.4909	-0.0812	-1.7339	0.0007	-0.0149	0.0107	31.1463	8.4269	15.5284	0.5974	0.2716	0.7180	-0.2321
11.55	-9.4938	-0.0908	-1.7298	-0.0023	-0.0118	0.0120	31.2239	8.3398	15.4639	0.5974	0.2716	0.7179	-0.2320
11.56	-9.4950	-0.0831	-1.7434	-0.0016	-0.0152	0.0125	31.4747	8.2444	15.3158	0.5975	0.2716	0.7180	-0.2320
11.57	-9.4891	-0.0868	-1.7487	0.0031	-0.0137	0.0116	31.3417	8.3810	15.2701	0.5975	0.2716	0.7179	-0.2320
