time	acceleration_x	acceleration_y	acceleration_z	gyroscope_x	gyroscope_y	gyroscope_z	magnetometer_x	magnetometer_y	magnetometer_z	quaternion_w	quaternion_x	quaternion_y	quaternion_z
0	-9.5149	-0.0345	-1.6468	-0.0054	-0.0096	0.0059	15.4297	13.6092	21.0190	0.6111	0.2426	0.7245	-0.2071
0.01	-9.5072	-0.0303	-1.6280	-0.0050	-0.0123	0.0068	15.3925	13.5116	21.1855	0.6111	0.2426	0.7245	-0.2071
0.02	-9.5200	-0.0398	-1.6214	0.0006	-0.0143	0.0099	15.6118	13.5741	21.2049	0.6111	0.2425	0.7244	-0.2070
0.03	-9.5074	-0.0441	-1.6151	-0.0017	-0.0141	0.0054	15.6500	13.5253	20.9354	0.6111	0.2425	0.7245	-0.2070
0.04	-9.5057	-0.0475	-1.6063	-0.0027	-0.0144	0.0059	15.6096	13.7525	21.1420	0.6111	0.2425	0.7245	-0.2070
0.05	-9.5059	-0.0488	-1.6127	0.0016	-0.0157	0.0088	15.6969	13.5688	21.1507	0.6111	0.2425	0.7244	-0.2070
0.06	-9.5034	-0.0553	-1.6027	-0.0044	-0.0125	0.0083	15.5823	13.3753	20.9756	0.6112	0.2425	0.7245	-0.2070
0.07	-9.5060	-0.0513	-1.6042	0.0005	-0.0183	0.0054	15.5703	13.4732	21.0532	0.6112	0.2424	0.7244	-0.2070
0.08	-9.5073	-0.0477	-1.6107	0.0024	-0.0140	0.0049	15.6850	13.5273	21.1723	0.6112	0.2424	0.7244	-0.2071
0.09	-9.5047	-0.0470	-1.6106	-0.0043	-0.0117	0.0060	15.8579	13.5491	21.2068	0.6112	0.2424	0.7244	-0.2070
0.1	-9.5061	-0.0544	-1.6243	0.0051	-0.0056	0.0059	15.7115	13.6826	21.2706	0.6112	0.2424	0.7245	-0.2071
0.11	-9.5067	-0.0642	-1.6249	0.0015	-0.0182	0.0096	15.6132	13.6782	21.3094	0.6112	0.2424	0.7244	-0.2071
0.12	-9.5098	-0.0624	-1.6368	-0.0016	-0.0104	0.0045	15.5622	13.6270	21.4060	0.6113	0.2424	0.7244	-0.2071
0.13	-9.5103	-0.0758	-1.6470	-0.0018	-0.0069	0.0058	15.6018	13.5330	21.1525	0.6112	0.2424	0.7244	-0.2070
0.14	-9.5040	-0.0831	-1.6569	0.0006	-0.0056	0.0018	15.5648	13.5851	21.2092	0.6112	0.2423	0.7244	-0.2071
0.15	-9.5026	-0.0752	-1.6612	-0.0025	-0.0063	0.0070	15.4573	13.4432	21.1585	0.6112	0.2423	0.7245	-0.2070
0.16	-9.5000	-0.0866	-1.6638	-0.0090	-0.0107	0.0026	15.6655	13.6363	21.2814	0.6112	0.2423	0.7244	-0.2070
0.17	-9.5007	-0.0876	-1.6609	-0.0107	-0.0069	0.0064	15.7563	13.7041	21.3617	0.6113	0.2422	0.7245	-0.2070
0.18	-9.5057	-0.0803	-1.6664	-0.0071	-0.0144	0.0059	15.6034	13.5115	21.1042	0.6112	0.2422	0.7245	-0.2069
0.19	-9.5091	-0.0821	-1.6728	0.0021	-0.0116	0.0058	15.5765	13.5432	21.3167	0.6113	0.2422	0.7246	-0.2070
0.2	-9.5073	-0.0852	-1.6695	0.0087	-0.0103	0.0131	15.5894	13.6593	21.1470	0.6112	0.2422	0.7244	-0.2070
0.21	-9.5049	-0.0757	-1.6696	-0.0012	-0.0174	0.0088	15.6885	13.5683	21.1268	0.6113	0.2422	0.7245	-0.2070
0.22	-9.5056	-0.0707	-1.6833	0.0068	-0.0117	0.0063	15.6517	13.4746	21.1912	0.6113	0.2422	0.7245	-0.2070
0.23	-9.5073	-0.0623	-1.6921	0.0006	-0.0088	0.0073	15.7020	13.6051	20.9114	0.6112	0.2422	0.7244	-0.2070
0.24	-9.5004	-0.0625	-1.6884	0.0028	-0.0143	0.0069	15.4613	13.3319	21.0163	0.6113	0.2422	0.7245	-0.2070
0.25	-9.5006	-0.0615	-1.6817	0.0091	-0.0085	0.0076	15.7082	13.4173	21.0595	0.6113	0.2422	0.7244	-0.2070
0.26	-9.5169	-0.0625	-1.6785	-0.0043	-0.0107	0.0054	15.7250	13.3502	21.1257	0.6113	0.2422	0.7245	-0.2070
0.27	-9.5030	-0.0644	-1.6668	-0.0068	-0.0200	0.0044	15.5591	13.5595	21.0891	0.6113	0.2421	0.7244	-0.2070
0.28	-9.4999	-0.0585	-1.6602	0.0001	-0.0120	0.0100	15.5992	13.5528	21.3167	0.6114	0.2421	0.7244	-0.2070
0.29	-9.5070	-0.0511	-1.6611	0.0028	-0.0141	0.0061	15.8962	13.6996	21.2706	0.6113	0.2421	0.7244	-0.2070
0.3	-9.5067	-0.0480	-1.6529	-0.0028	-0.0119	0.0085	16.1014	13.4723	21.5684	0.6114	0.2421	0.7244	-0.2070
0.31	-9.5077	-0.0349	-1.6565	0.0020	-0.0044	0.0035	15.8927	13.5314	21.4845	0.6114	0.2421	0.7244	-0.2070
0.32	-9.5080	-0.0366	-1.6489	-0.0017	-0.0046	0.0043	15.7557	13.5155	21.3645	0.6113	0.2421	0.7244	-0.2070
0.33	-9.5153	-0.0296	-1.6394	0.0000	-0.0078	0.0032	15.6409	13.6351	21.3474	0.6113	0.2421	0.7245	-0.2070
0.34	-9.4990	-0.0449	-1.6361	-0.0022	-0.0097	0.0087	15.5254	13.5135	21.2256	0.6113	0.2420	0.7244	-0.2070
0.35	-9.4892	-0.0400	-1.6243	0.0028	-0.0040	0.0031	15.5815	13.6418	21.2258	0.6113	0.2421	0.7245	-0.2070
0.36	-9.5049	-0.0419	-1.6301	-0.0022	-0.0055	0.0045	15.4813	13.8372	21.3865	0.6113	0.2420	0.7245	-0.2070
0.37	-9.5048	-0.0443	-1.6365	0.0023	-0.0058	0.0033	15.4726	13.6596	21.3696	0.6113	0.2420	0.7246	-0.2070
0.38	-9.5104	-0.0491	-1.6354	0.0043	-0.0108	0.0106	15.4487	13.7250	20.9929	0.6112	0.2420	0.7245	-0.2070
0.39	-9.5200	-0.0522	-1.6393	0.0062	-0.0100	0.0102	15.4235	13.4951	21.2224	0.6113	0.2420	0.7245	-0.2070
0.4	-9.5108	-0.0523	-1.6470	0.0025	-0.0092	0.0065	15.8089	13.2938	21.1957	0.6113	0.2420	0.7245	-0.2070
0.41	-9.4991	-0.0541	-1.6343	0.0018	-0.0121	0.0109	15.7875	13.5225	21.1173	0.6112	0.2420	0.7245	-0.2070
0.42	-9.5106	-0.0521	-1.6433	0.0022	-0.0101	0.0075	15.7885	13.7531	21.1721	0.6113	0.2421	0.7246	-0.2070
0.43	-9.5242	-0.0526	-1.6466	0.0007	-0.0120	0.0074	15.8061	13.4630	21.2495	0.6113	0.2420	0.7245	-0.2070
0.44	-9.4972	-0.0567	-1.6517	0.0044	-0.0096	0.0064	15.7248	13.5260	21.2329	0.6113	0.2421	0.7246	-0.2070
0.45	-9.4983	-0.0589	-1.6422	0.0052	-0.0070	0.0082	15.7088	13.4226	21.2367	0.6112	0.2420	0.7245	-0.2070
0.46	-9.5103	-0.0656	-1.6598	-0.0008	-0.0058	0.0060	15.5942	13.4999	21.1198	0.6112	0.2420	0.7245	-0.2070
0.47	-9.4995	-0.0655	-1.6454	0.0024	-0.0086	0.0111	15.5492	13.6251	21.1569	0.6112	0.2421	0.7245	-0.2070
0.48	-9.5038	-0.0661	-1.6387	0.0020	-0.0124	0.0091	15.8139	13.6881	21.1189	0.6112	0.2420	0.7245	-0.2070
0.49	-9.5108	-0.0614	-1.6637	-0.0002	-0.0065	0.0059	15.7736	13.5875	21.2701	0.6113	0.2421	0.7246	-0.2070
0.5	-9.5067	-0.0648	-1.6606	-0.0040	-0.0071	0.0016	15.6911	13.6778	21.3172	0.6112	0.2420	0.7246	-0.2070
0.51	-9.5038	-0.0734	-1.6483	0.0017	-0.0075	0.0037	15.6968	13.7982	21.1143	0.6112	0.2420	0.7246	-0.2070
0.52	-9.4980	-0.0700	-1.6497	-0.0005	-0.0096	0.0034	15.4256	13.4491	21.2347	0.6112	0.2419	0.7245	-0.2070
0.53	-9.5011	-0.0730	-1.6559	0.0031	-0.0137	0.0029	15.5127	13.5926	21.3372	0.6112	0.2420	0.7246	-0.2070
0.54	-9.5036	-0.0642	-1.6498	0.0044	-0.0083	0.0038	15.6778	13.5640	21.4664	0.6112	0.2419	0.7246	-0.2071
0.55	-9.5027	-0.0699	-1.6515	-0.0006	-0.0118	0.0014	15.5294	13.7785	21.2126	0.6112	0.2419	0.7246	-0.2071
0.56	-9.5065	-0.0672	-1.6574	0.0042	-0.0136	0.0059	15.6421	13.7468	21.3343	0.6112	0.2419	0.7246	-0.2071
0.57	-9.5058	-0.0695	-1.6409	0.0024	-0.0113	0.0066	15.6203	13.6014	21.1482	0.6112	0.2419	0.7246	-0.2071
0.58	-9.5056	-0.0726	-1.6547	-0.0003	-0.0135	0.0081	15.6669	13.7119	21.2071	0.6112	0.2419	0.7246	-0.2071
0.59	-9.5053	-0.0624	-1.6464	0.0025	-0.0087	0.0083	15.8207	13.3408	21.1783	0.6112	0.2419	0.7245	-0.2071
0.6	-9.5081	-0.0548	-1.6599	0.0043	-0.0069	0.0055	15.7617	13.2535	21.0261	0.6112	0.2419	0.7246	-0.2071
0.61	-9.5027	-0.0530	-1.6586	0.0023	-0.0179	0.0068	15.7326	13.3527	21.1158	0.6112	0.2419	0.7246	-0.2071
0.62	-9.4949	-0.0469	-1.6590	0.0059	-0.0161	0.0079	15.8377	13.5553	21.1859	0.6113	0.2419	0.7246	-0.2071
0.63	-9.5111	-0.0414	-1.6571	0.0055	-0.0123	0.0090	15.6758	13.5105	21.0132	0.6112	0.2419	0.7245	-0.2071
0.64	-9.5041	-0.0421	-1.6508	0.0035	-0.0095	0.0072	15.7566	13.6567	21.1252	0.6113	0.2419	0.7245	-0.2072
0.65	-9.4949	-0.0469	-1.6422	0.0032	-0.0102	0.0046	15.6202	13.3533	21.2865	0.6113	0.2419	0.7245	-0.2072
0.66	-9.5121	-0.0492	-1.6542	0.0018	-0.0111	0.0080	15.7097	13.4363	21.1349	0.6112	0.2419	0.7245	-0.2072
0.67	-9.5088	-0.0480	-1.6676	0.0021	-0.0106	0.0086	15.8834	13.6319	21.2394	0.6113	0.2419	0.7246	-0.2072
0.68	-9.5063	-0.0495	-1.6463	-0.0078	-0.0076	0.0036	15.4926	13.6329	21.2598	0.6112	0.2418	0.7245	-0.2072
0.69	-9.5054	-0.0496	-1.6460	0.0007	-0.0046	-0.0006	15.6351	13.7216	21.3479	0.6113	0.2418	0.7246	-0.2072
0.7	-9.5165	-0.0485	-1.6508	-0.0032	-0.0050	0.0074	15.6217	13.5986	21.2146	0.6112	0.2418	0.7246	-0.2071
0.71	-9.5084	-0.0582	-1.6493	0.0003	-0.0073	-0.0018	15.6395	13.5956	21.2277	0.6112	0.2418	0.7246	-0.2072
0.72	-9.4948	-0.0562	-1.6616	0.0001	-0.0075	0.0075	15.6040	13.8342	21.2422	0.6112	0.2418	0.7246	-0.2072
0.73	-9.5023	-0.0558	-1.6664	-0.0062	-0.0070	0.0031	15.3862	13.7973	21.1225	0.6111	0.2417	0.7246	-0.2071
0.74	-9.4988	-0.0640	-1.6696	-0.0027	-0.0062	0.0050	15.4680	13.5777	21.2464	0.6112	0.2417	0.7247	-0.2071
0.75	-9.5043	-0.0632	-1.6507	0.0031	-0.0047	-0.0005	15.4911	13.5874	21.3445	0.6111	0.2417	0.7247	-0.2071
0.76	-9.5060	-0.0702	-1.6517	0.0004	-0.0142	0.0058	15.6129	13.4901	21.2671	0.6112	0.2417	0.7247	-0.2072
0.77	-9.5051	-0.0717	-1.6612	-0.0039	-0.0110	0.0045	15.7200	13.5605	21.1159	0.6111	0.2416	0.7246	-0.2071
0.78	-9.5020	-0.0727	-1.6353	0.0024	-0.0057	0.0074	15.8035	13.3831	21.1913	0.6112	0.2416	0.7247	-0.2072
0.79	-9.4997	-0.0716	-1.6308	0.0048	-0.0120	0.0086	15.9572	13.2426	21.5847	0.6111	0.2416	0.7247	-0.2072
0.8	-9.5063	-0.0623	-1.6391	0.0003	-0.0087	0.0058	16.0928	13.6457	21.3057	0.6111	0.2416	0.7247	-0.2072
0.81	-9.5070	-0.0618	-1.6369	0.0005	-0.0082	0.0074	15.7268	13.5052	21.4602	0.6111	0.2416	0.7247	-0.2072
0.82	-9.5069	-0.0495	-1.6395	0.0049	-0.0117	0.0061	15.6079	13.5150	21.4439	0.6111	0.2416	0.7247	-0.2072
0.83	-9.5074	-0.0485	-1.6294	0.0030	-0.0082	0.0073	15.5807	13.6300	21.2749	0.6111	0.2416	0.7247	-0.2072
0.84	-9.4991	-0.0450	-1.6383	0.0005	-0.0064	0.0055	15.5970	13.4480	21.1610	0.6111	0.2416	0.7247	-0.2072
0.85	-9.5051	-0.0480	-1.6387	0.0097	-0.0110	0.0075	15.5007	13.4962	21.1589	0.6111	0.2416	0.7248	-0.2072
0.86	-9.5041	-0.0497	-1.6363	0.0020	-0.0084	0.0090	15.6798	13.5911	21.3261	0.6111	0.2416	0.7247	-0.2072
0.87	-9.5140	-0.0443	-1.6461	0.0007	-0.0097	0.0058	15.6047	13.4841	21.3371	0.6111	0.2416	0.7248	-0.2072
0.88	-9.5009	-0.0504	-1.6390	0.0018	-0.0059	0.0028	15.5882	13.4634	21.3477	0.6111	0.2416	0.7247	-0.2072
0.89	-9.4982	-0.0606	-1.6300	-0.0030	-0.0085	0.0044	15.5843	13.4905	21.3128	0.6111	0.2416	0.7248	-0.2072
0.9	-9.5146	-0.0507	-1.6433	-0.0003	-0.0035	0.0074	15.4439	13.4454	21.2082	0.6111	0.2416	0.7248	-0.2072
0.91	-9.5107	-0.0528	-1.6498	-0.0008	-0.0068	0.0034	15.4128	13.5608	21.3487	0.6110	0.2415	0.7248	-0.2072
0.92	-9.4925	-0.0592	-1.6381	0.0016	-0.0040	0.0018	15.5503	13.6362	21.2215	0.6110	0.2416	0.7249	-0.2072
0.93	-9.5051	-0.0497	-1.6417	0.0018	-0.0050	0.0038	15.7378	13.5404	21.1266	0.6110	0.2415	0.7249	-0.2072
0.94	-9.5104	-0.0467	-1.6559	-0.0012	-0.0110	0.0026	15.5756	13.5631	21.2468	0.6110	0.2415	0.7249	-0.2072
0.95	-9.5099	-0.0603	-1.6542	0.0000	-0.0094	0.0028	15.6939	13.5626	21.2417	0.6109	0.2415	0.7248	-0.2072
0.96	-9.5037	-0.0616	-1.6496	-0.0029	-0.0108	0.0086	15.5377	13.6491	21.3840	0.6110	0.2415	0.7249	-0.2072
0.97	-9.5044	-0.0700	-1.6592	0.0011	-0.0051	0.0087	15.6981	13.4820	21.4133	0.6110	0.2415	0.7249	-0.2072
0.98	-9.4990	-0.0704	-1.6602	0.0006	-0.0094	0.0110	15.7873	13.4649	21.2204	0.6109	0.2415	0.7249	-0.2072
0.99	-9.5013	-0.0773	-1.6581	0.0006	-0.0115	0.0065	15.7294	13.5895	21.2854	0.6110	0.2415	0.7250	-0.2072
1	-9.5039	-0.0703	-1.6706	0.0000	-0.0057	0.0055	15.6572	13.6481	21.3258	0.6110	0.2414	0.7249	-0.2072
1.01	-9.5126	-0.0579	-1.6485	-0.0043	-0.0070	0.0066	15.6950	13.4480	21.1670	0.6110	0.2414	0.7250	-0.2072
1.02	-9.5067	-0.0484	-1.6541	0.0098	-0.0102	0.0078	15.5918	13.5836	21.1455	0.6109	0.2414	0.7249	-0.2072
1.03	-9.5054	-0.0461	-1.6546	0.0050	-0.0075	0.0082	15.5925	13.4192	21.3011	0.6109	0.2415	0.7249	-0.2072
1.04	-9.5170	-0.0495	-1.6536	0.0022	-0.0143	0.0048	15.7606	13.5871	21.1670	0.6109	0.2414	0.7249	-0.2072
1.05	-9.5044	-0.0490	-1.6484	0.0027	-0.0091	0.0114	15.6967	13.6764	21.2330	0.6109	0.2415	0.7249	-0.2072
1.06	-9.5073	-0.0438	-1.6585	-0.0089	-0.0102	0.0059	15.5741	13.5346	21.2524	0.6110	0.2414	0.7249	-0.2072
1.07	-9.5164	-0.0531	-1.6729	-0.0082	-0.0178	0.0057	15.4896	13.5636	21.1333	0.6110	0.2414	0.7249	-0.2072
1.08	-9.5107	-0.0448	-1.6658	-0.0066	-0.0085	0.0026	15.5722	13.5565	21.3747	0.6110	0.2413	0.7250	-0.2072
1.09	-9.4893	-0.0458	-1.6568	0.0006	-0.0032	-0.0007	15.6078	13.5568	21.2233	0.6109	0.2413	0.7249	-0.2071
1.1	-9.5083	-0.0548	-1.6664	0.0033	-0.0044	0.0057	15.5810	13.4685	21.2802	0.6110	0.2413	0.7250	-0.2072
1.11	-9.5083	-0.0632	-1.6647	-0.0022	-0.0073	0.0063	15.6131	13.4598	21.3509	0.6109	0.2413	0.7250	-0.2071
1.12	-9.5025	-0.0669	-1.6645	-0.0016	-0.0064	0.0044	15.5221	13.5490	21.3448	0.6109	0.2413	0.7250	-0.2072
1.13	-9.5084	-0.0644	-1.6526	-0.0113	-0.0154	0.0078	15.5045	13.5527	21.2310	0.6109	0.2412	0.7250	-0.2071
1.14	-9.5068	-0.0652	-1.6628	-0.0034	-0.0145	0.0099	15.5303	13.5776	21.1499	0.6110	0.2412	0.7250	-0.2071
1.15	-9.5058	-0.0634	-1.6603	-0.0034	-0.0109	0.0055	15.8659	13.6824	21.3282	0.6110	0.2412	0.7250	-0.2071
1.16	-9.5009	-0.0608	-1.6484	-0.0028	-0.0109	0.0068	15.9674	13.5671	21.0484	0.6109	0.2411	0.7250	-0.2070
1.17	-9.5115	-0.0612	-1.6494	-0.0042	-0.0180	0.0075	15.6860	13.4539	21.1104	0.6110	0.2412	0.7251	-0.2071
1.18	-9.5034	-0.0591	-1.6438	-0.0081	-0.0131	0.0098	15.7164	13.6492	21.3090	0.6110	0.2411	0.7250	-0.2070
1.19	-9.4987	-0.0584	-1.6372	-0.0007	-0.0155	0.0084	15.7444	13.3356	21.1692	0.6111	0.2411	0.7251	-0.2070
1.2	-9.5051	-0.0613	-1.6389	-0.0002	-0.0142	0.0079	15.4733	13.2961	21.1630	0.6110	0.2411	0.7249	-0.2070
1.21	-9.5164	-0.0550	-1.6372	-0.0043	-0.0197	0.0049	15.4498	13.5190	21.1665	0.6111	0.2410	0.7250	-0.2070
1.22	-9.5009	-0.0566	-1.6291	-0.0037	-0.0161	0.0071	15.5689	13.4553	21.1344	0.6111	0.2410	0.7250	-0.2070
1.23	-9.5023	-0.0581	-1.6351	-0.0045	-0.0133	0.0087	15.6913	13.4870	20.9519	0.6111	0.2410	0.7249	-0.2070
1.24	-9.5093	-0.0458	-1.6333	0.0031	-0.0135	0.0109	15.6659	13.4741	21.2180	0.6112	0.2410	0.7250	-0.2070
1.25	-9.5025	-0.0455	-1.6286	-0.0052	-0.0136	0.0038	15.5743	13.6092	21.2413	0.6112	0.2410	0.7249	-0.2070
1.26	-9.4952	-0.0498	-1.6316	0.0007	-0.0104	0.0075	15.6006	13.6720	21.3016	0.6112	0.2410	0.7250	-0.2070
1.27	-9.5115	-0.0415	-1.6482	0.0009	-0.0096	0.0049	15.5931	13.5355	21.3636	0.6111	0.2409	0.7249	-0.2070
1.28	-9.5123	-0.0373	-1.6382	-0.0012	-0.0047	0.0036	15.4824	13.4832	21.2990	0.6112	0.2409	0.7250	-0.2070
1.29	-9.5043	-0.0415	-1.6385	-0.0017	-0.0076	0.0015	15.8811	13.7425	21.2470	0.6112	0.2409	0.7250	-0.2070
1.3	-9.5054	-0.0384	-1.6381	-0.0073	-0.0063	0.0042	15.9006	13.4460	21.5280	0.6111	0.2409	0.7250	-0.2069
1.31	-9.5108	-0.0423	-1.6414	-0.0034	-0.0077	0.0067	15.9825	13.6262	21.5366	0.6112	0.2408	0.7250	-0.2069
1.32	-9.5020	-0.0499	-1.6404	-0.0028	-0.0103	0.0076	15.8451	13.6202	21.5567	0.6111	0.2408	0.7250	-0.2069
1.33	-9.5088	-0.0637	-1.6379	-0.0047	-0.0145	0.0119	15.5830	13.4591	21.4610	0.6112	0.2408	0.7251	-0.2069
1.34	-9.5009	-0.0733	-1.6639	-0.0018	-0.0129	0.0082	15.7831	13.3429	21.3248	0.6111	0.2408	0.7250	-0.2069
1.35	-9.4951	-0.0858	-1.6523	0.0015	-0.0115	0.0074	15.7674	13.2624	21.3351	0.6112	0.2408	0.7250	-0.2069
1.36	-9.4988	-0.0859	-1.6371	0.0019	-0.0138	0.0085	15.8652	13.2441	21.3508	0.6112	0.2408	0.7250	-0.2069
1.37	-9.5074	-0.0770	-1.6436	0.0044	-0.0040	0.0065	15.8375	13.3640	21.3019	0.6112	0.2408	0.7250	-0.2069
1.38	-9.5024	-0.0552	-1.6445	0.0016	-0.0122	0.0068	15.7572	13.2330	21.5524	0.6112	0.2408	0.7250	-0.2069
1.39	-9.5053	-0.0465	-1.6445	0.0051	-0.0081	0.0064	15.6353	13.3259	21.4517	0.6112	0.2408	0.7250	-0.2069
1.4	-9.5110	-0.0384	-1.6422	0.0053	-0.0101	0.0075	15.5640	13.4605	21.2563	0.6112	0.2408	0.7250	-0.2069
1.41	-9.5154	-0.0317	-1.6518	-0.0025	-0.0053	0.0078	15.7517	13.4147	21.4585	0.6111	0.2408	0.7250	-0.2069
1.42	-9.5094	-0.0516	-1.6562	0.0014	-0.0079	0.0094	15.7714	13.5174	21.3723	0.6112	0.2408	0.7251	-0.2069
1.43	-9.5042	-0.0504	-1.6517	0.0056	-0.0114	0.0082	15.7333	13.6958	21.3504	0.6111	0.2408	0.7250	-0.2069
1.44	-9.5039	-0.0487	-1.6599	-0.0030	-0.0051	0.0068	15.5845	13.7761	21.4425	0.6112	0.2408	0.7251	-0.2069
1.45	-9.5065	-0.0493	-1.6720	-0.0096	-0.0123	0.0044	15.6829	13.7638	21.2981	0.6111	0.2407	0.7250	-0.2068
1.46	-9.5034	-0.0559	-1.6694	-0.0032	-0.0063	0.0057	15.5708	13.7185	21.4465	0.6112	0.2407	0.7251	-0.2068
1.47	-9.5096	-0.0644	-1.6810	-0.0046	-0.0073	0.0007	15.7845	13.5342	21.5470	0.6111	0.2407	0.7251	-0.2068
1.48	-9.5014	-0.0798	-1.6805	0.0044	-0.0133	0.0010	15.6177	13.6791	21.3761	0.6111	0.2407	0.7251	-0.2069
1.49	-9.5009	-0.0799	-1.6797	0.0012	-0.0086	0.0079	15.3926	13.8536	21.5402	0.6112	0.2407	0.7252	-0.2069
1.5	-9.4974	-0.0804	-1.6736	0.0005	-0.0085	0.0041	15.7131	13.8344	21.5408	0.6111	0.2407	0.7251	-0.2069
1.51	-9.5064	-0.0889	-1.6697	0.0076	-0.0135	0.0136	15.5710	13.8292	21.4967	0.6112	0.2407	0.7252	-0.2069
1.52	-9.5085	-0.0878	-1.6614	0.0036	-0.0162	0.0123	15.7656	13.4763	21.4008	0.6111	0.2407	0.7250	-0.2069
1.53	-9.5035	-0.0821	-1.6574	0.0037	-0.0073	0.0082	15.7508	13.3369	21.3547	0.6112	0.2407	0.7251	-0.2069
1.54	-9.5030	-0.0787	-1.6627	0.0029	-0.0119	0.0109	15.7956	13.3265	21.4028	0.6111	0.2407	0.7251	-0.2069
1.55	-9.5030	-0.0797	-1.6405	0.0045	-0.0177	0.0091	15.8715	13.4448	21.2944	0.6112	0.2407	0.7250	-0.2069
1.56	-9.5040	-0.0764	-1.6442	0.0063	-0.0192	0.0079	15.8073	13.4019	21.4442	0.6112	0.2407	0.7250	-0.2069
1.57	-9.5014	-0.0810	-1.6458	0.0002	-0.0117	0.0070	15.7627	13.2608	21.4251	0.6112	0.2407	0.7250	-0.2069
1.58	-9.5050	-0.0905	-1.6317	0.0007	-0.0168	0.0121	15.7184	13.5962	21.3825	0.6113	0.2407	0.7250	-0.2069
1.59	-9.5060	-0.0706	-1.6207	0.0011	-0.0114	0.0033	15.5159	13.6109	21.5969	0.6112	0.2407	0.7249	-0.2069
1.6	-9.5061	-0.0530	-1.6224	0.0014	-0.0086	0.0084	15.4791	13.4405	21.4622	0.6113	0.2407	0.7250	-0.2069
1.61	-9.5108	-0.0353	-1.6309	0.0009	-0.0118	0.0099	15.6113	13.4942	21.4115	0.6112	0.2407	0.7250	-0.2069
1.62	-9.5142	-0.0091	-1.6300	-0.0002	-0.0118	0.0075	15.7079	13.6913	21.3489	0.6113	0.2407	0.7250	-0.2069
1.63	-9.5048	-0.0101	-1.6244	-0.0008	-0.0127	0.0077	15.5944	13.6871	21.2959	0.6113	0.2407	0.7250	-0.2069
1.64	-9.5144	-0.0111	-1.6484	0.0018	-0.0083	0.0047	15.5575	13.6252	21.4733	0.6113	0.2407	0.7250	-0.2069
1.65	-9.5127	-0.0241	-1.6430	-0.0006	-0.0133	0.0051	15.3626	13.6261	21.4953	0.6113	0.2407	0.7250	-0.2069
1.66	-9.5062	-0.0595	-1.6303	-0.0004	-0.0140	0.0020	15.5505	13.6924	21.4958	0.6112	0.2406	0.7249	-0.2069
1.67	-9.5089	-0.0593	-1.6385	0.0006	-0.0136	0.0062	15.4746	13.5773	21.4882	0.6113	0.2406	0.7250	-0.2070
1.68	-9.5087	-0.0632	-1.6410	0.0006	-0.0060	0.0075	15.5839	13.5627	21.5240	0.6113	0.2406	0.7250	-0.2069
1.69	-9.5085	-0.0754	-1.6368	0.0019	-0.0072	0.0054	15.5312	13.4806	21.6770	0.6113	0.2406	0.7251	-0.2070
1.7	-9.4961	-0.0672	-1.6330	0.0001	-0.0152	0.0109	15.4922	13.5259	21.6856	0.6112	0.2406	0.7250	-0.2069
1.71	-9.5158	-0.0882	-1.6450	0.0002	-0.0154	0.0113	15.7385	13.3832	21.4225	0.6113	0.2406	0.7250	-0.2069
1.72	-9.5133	-0.0627	-1.6438	0.0048	-0.0103	0.0068	15.7759	13.4977	21.4654	0.6113	0.2406	0.7250	-0.2069
1.73	-9.4819	-0.0678	-1.6450	0.0029	-0.0115	0.0120	15.6708	13.5226	21.5315	0.6113	0.2406	0.7249	-0.2069
1.74	-9.5090	-0.0515	-1.6704	-0.0023	-0.0075	0.0064	15.6851	13.4117	21.3854	0.6114	0.2406	0.7250	-0.2069
1.75	-9.5055	-0.0443	-1.6550	-0.0037	-0.0160	0.0057	15.7824	13.5696	21.4493	0.6113	0.2406	0.7250	-0.2069
1.76	-9.5039	-0.0565	-1.6444	-0.0001	-0.0130	0.0083	15.7380	13.4115	21.3355	0.6114	0.2406	0.7250	-0.2069
1.77	-9.5210	-0.0471	-1.6668	0.0010	-0.0107	0.0071	15.8428	13.5310	21.4007	0.6113	0.2406	0.7249	-0.2069
1.78	-9.5034	-0.0456	-1.6728	0.0009	-0.0062	0.0073	15.8376	13.4864	21.5546	0.6113	0.2406	0.7250	-0.2069
1.79	-9.5112	-0.0612	-1.6695	-0.0008	-0.0051	0.0056	15.9777	13.4244	21.6148	0.6113	0.2406	0.7250	-0.2069
1.8	-9.5057	-0.0617	-1.6640	-0.0011	-0.0062	0.0082	16.0132	13.4180	21.5472	0.6113	0.2406	0.7250	-0.2069
1.81	-9.5063	-0.0562	-1.6745	-0.0132	-0.0086	0.0044	15.8687	13.6038	21.3000	0.6113	0.2405	0.7251	-0.2068
1.82	-9.5054	-0.0560	-1.6743	-0.0049	-0.0176	0.0054	15.8581	13.5662	21.3008	0.6113	0.2405	0.7250	-0.2068
1.83	-9.5077	-0.0494	-1.6662	0.0044	-0.0095	0.0043	15.7490	13.4866	21.1687	0.6114	0.2405	0.7251	-0.2069
1.84	-9.5166	-0.0437	-1.6644	0.0001	-0.0108	0.0093	15.7452	13.4745	21.0349	0.6113	0.2404	0.7250	-0.2068
1.85	-9.5104	-0.0333	-1.6687	-0.0041	-0.0071	0.0027	15.7776	13.6064	21.3730	0.6113	0.2404	0.7251	-0.2068
1.86	-9.5001	-0.0350	-1.6627	-0.0024	-0.0050	0.0007	15.7004	13.7942	21.2582	0.6113	0.2404	0.7251	-0.2068
1.87	-9.4922	-0.0345	-1.6644	0.0002	-0.0065	0.0074	15.6632	13.8516	21.1072	0.6113	0.2404	0.7251	-0.2068
1.88	-9.5068	-0.0415	-1.6680	-0.0005	-0.0101	0.0083	15.7519	13.5945	21.4097	0.6113	0.2404	0.7251	-0.2068
1.89	-9.5023	-0.0433	-1.6631	-0.0029	-0.0135	0.0062	15.6646	13.6052	21.1754	0.6113	0.2404	0.7251	-0.2068
1.9	-9.5031	-0.0508	-1.6616	-0.0029	-0.0120	0.0045	15.6475	13.6027	21.2362	0.6113	0.2403	0.7251	-0.2068
1.91	-9.5072	-0.0630	-1.6707	0.0006	-0.0135	0.0121	15.4864	13.5489	21.2807	0.6113	0.2403	0.7250	-0.2068
1.92	-9.5023	-0.0684	-1.6579	-0.0042	-0.0122	0.0063	15.6260	13.5463	21.1568	0.6114	0.2403	0.7251	-0.2068
1.93	-9.5065	-0.0696	-1.6556	-0.0056	-0.0133	0.0098	15.7073	13.4821	21.1914	0.6114	0.2403	0.7251	-0.2067
1.94	-9.5054	-0.0875	-1.6586	-0.0069	-0.0110	0.0069	15.6047	13.4036	21.1867	0.6114	0.2403	0.7251	-0.2067
1.95	-9.5055	-0.0846	-1.6555	-0.0072	-0.0103	0.0066	15.5964	13.4816	21.0969	0.6113	0.2402	0.7251	-0.2067
1.96	-9.4997	-0.0894	-1.6392	0.0010	-0.0169	0.0063	15.5948	13.5686	21.0727	0.6114	0.2402	0.7251	-0.2067
1.97	-9.4992	-0.0938	-1.6299	0.0015	-0.0106	0.0089	15.6144	13.6056	21.1334	0.6114	0.2402	0.7251	-0.2067
1.98	-9.5143	-0.0900	-1.6328	-0.0000	-0.0145	0.0137	15.5142	13.6502	21.2704	0.6114	0.2402	0.7250	-0.2067
1.99	-9.5107	-0.0851	-1.6346	0.0003	-0.0107	0.0098	15.5172	13.7394	21.1640	0.6115	0.2403	0.7251	-0.2067
2	-9.5093	-0.0739	-1.6240	0.0008	-0.0105	0.0007	15.5073	13.5622	21.1685	0.6114	0.2402	0.7251	-0.2067
2.01	-9.5061	-0.0645	-1.6314	0.0001	-0.0073	0.0062	15.5611	13.6272	21.1995	0.6115	0.2402	0.7251	-0.2067
2.02	-9.5054	-0.0873	-1.6269	0.0052	-0.0052	0.0041	15.6927	13.5824	21.0738	0.6114	0.2402	0.7250	-0.2067
2.03	-9.5034	-0.0759	-1.6283	-0.0021	-0.0109	0.0085	15.7784	13.4407	21.0144	0.6114	0.2402	0.7251	-0.2067
2.04	-9.5055	-0.0686	-1.6343	-0.0041	-0.0102	0.0061	15.5662	13.5352	21.3018	0.6114	0.2402	0.7251	-0.2067
2.05	-9.5098	-0.0475	-1.6456	0.0035	-0.0041	0.0079	15.4630	13.5830	21.1720	0.6114	0.2402	0.7251	-0.2067
2.06	-9.4914	-0.0459	-1.6422	0.0005	-0.0090	0.0051	15.7398	13.4504	21.1870	0.6114	0.2402	0.7252	-0.2067
2.07	-9.5121	-0.0476	-1.6500	0.0010	-0.0080	0.0127	15.6024	13.5266	21.0416	0.6114	0.2402	0.7251	-0.2067
2.08	-9.5031	-0.0380	-1.6476	0.0033	-0.0059	0.0083	15.6843	13.7627	21.1998	0.6114	0.2402	0.7252	-0.2067
2.09	-9.5015	-0.0317	-1.6517	0.0043	-0.0072	0.0066	15.8759	13.6325	21.3986	0.6113	0.2402	0.7251	-0.2066
2.1	-9.5086	-0.0358	-1.6676	-0.0014	-0.0062	0.0075	15.6050	13.6613	21.1999	0.6113	0.2402	0.7252	-0.2067
2.11	-9.5041	-0.0506	-1.6665	0.0006	-0.0071	0.0063	15.6197	13.6033	21.0422	0.6113	0.2402	0.7252	-0.2066
2.12	-9.5136	-0.0491	-1.6812	0.0007	-0.0079	0.0071	15.7849	13.5340	21.1798	0.6113	0.2402	0.7252	-0.2066
2.13	-9.5078	-0.0593	-1.6604	0.0035	-0.0047	0.0071	15.5796	13.6701	21.1890	0.6113	0.2402	0.7252	-0.2066
2.14	-9.5006	-0.0624	-1.6633	-0.0011	-0.0077	0.0076	15.3775	13.6106	21.0173	0.6113	0.2402	0.7252	-0.2066
2.15	-9.5165	-0.0535	-1.6852	0.0027	-0.0051	0.0104	15.5425	13.5217	21.0335	0.6113	0.2402	0.7252	-0.2066
2.16	-9.5089	-0.0540	-1.6738	0.0009	-0.0125	0.0120	15.7583	13.6692	21.2040	0.6112	0.2402	0.7252	-0.2066
2.17	-9.5048	-0.0578	-1.6712	0.0020	-0.0074	0.0071	15.7801	13.5310	21.0638	0.6113	0.2402	0.7253	-0.2066
2.18	-9.5080	-0.0449	-1.6877	0.0012	-0.0133	0.0075	15.4275	13.4668	21.1261	0.6113	0.2402	0.7252	-0.2066
2.19	-9.5073	-0.0447	-1.6750	-0.0035	-0.0103	0.0090	15.3577	13.4648	21.2521	0.6113	0.2402	0.7253	-0.2066
2.2	-9.5014	-0.0469	-1.6787	-0.0005	-0.0074	0.0075	15.6466	13.5660	21.3627	0.6112	0.2402	0.7252	-0.2066
2.21	-9.5089	-0.0439	-1.6800	-0.0028	-0.0102	0.0074	15.4369	13.6623	21.2239	0.6113	0.2402	0.7252	-0.2066
2.22	-9.5059	-0.0456	-1.6674	-0.0058	-0.0068	0.0098	15.4771	13.6276	21.1303	0.6113	0.2402	0.7253	-0.2065
2.23	-9.4990	-0.0555	-1.6734	-0.0077	-0.0115	0.0044	15.5905	13.6544	21.2824	0.6112	0.2401	0.7252	-0.2065
2.24	-9.4976	-0.0713	-1.6614	-0.0129	-0.0098	0.0053	15.6099	13.6305	21.2350	0.6113	0.2401	0.7253	-0.2065
2.25	-9.5021	-0.0832	-1.6677	-0.0068	-0.0123	0.0075	15.6903	13.6699	21.1874	0.6113	0.2401	0.7253	-0.2064
2.26	-9.5067	-0.0924	-1.6429	-0.0007	-0.0126	0.0131	15.6792	13.5769	21.0976	0.6114	0.2401	0.7253	-0.2064
2.27	-9.5039	-0.0972	-1.6434	-0.0019	-0.0078	0.0071	15.6659	13.5578	21.1709	0.6113	0.2401	0.7252	-0.2064
2.28	-9.5094	-0.0929	-1.6328	0.0002	-0.0049	0.0071	15.6949	13.5575	21.3970	0.6113	0.2401	0.7253	-0.2064
2.29	-9.5064	-0.0895	-1.6326	0.0034	-0.0099	0.0068	16.0924	13.6049	21.3481	0.6113	0.2401	0.7253	-0.2064
2.3	-9.4985	-0.0854	-1.6185	0.0009	-0.0117	0.0109	16.2670	13.7099	21.3568	0.6113	0.2401	0.7253	-0.2064
2.31	-9.4946	-0.0679	-1.6164	0.0067	-0.0050	0.0078	16.0195	13.4427	21.4348	0.6113	0.2401	0.7253	-0.2064
2.32	-9.5165	-0.0432	-1.6421	0.0055	-0.0114	0.0092	15.8165	13.4315	21.1999	0.6113	0.2401	0.7253	-0.2064
2.33	-9.5138	-0.0323	-1.6341	0.0021	-0.0092	0.0063	15.6774	13.4784	21.0098	0.6113	0.2401	0.7253	-0.2064
2.34	-9.4890	-0.0256	-1.6272	0.0033	-0.0103	0.0078	15.7064	13.4471	21.1786	0.6112	0.2401	0.7253	-0.2064
2.35	-9.5136	-0.0292	-1.6337	0.0006	-0.0135	0.0103	15.5877	13.4270	21.1245	0.6113	0.2401	0.7253	-0.2064
2.36	-9.5306	-0.0430	-1.6306	0.0037	-0.0138	0.0089	15.6565	13.6524	21.1810	0.6113	0.2401	0.7253	-0.2064
2.37	-9.5025	-0.0418	-1.6279	0.0005	-0.0064	0.0083	15.4957	13.6552	21.3102	0.6113	0.2401	0.7253	-0.2064
2.38	-9.5002	-0.0330	-1.6300	-0.0054	-0.0081	0.0061	15.7434	13.4906	21.3375	0.6113	0.2401	0.7253	-0.2064
2.39	-9.5217	-0.0371	-1.6452	-0.0033	-0.0074	0.0096	15.6081	13.6734	21.1639	0.6113	0.2401	0.7253	-0.2064
2.4	-9.5085	-0.0445	-1.6306	0.0005	-0.0084	0.0056	15.3855	13.4938	21.1522	0.6113	0.2401	0.7254	-0.2064
2.41	-9.4891	-0.0430	-1.6304	0.0040	-0.0058	0.0035	15.5622	13.3244	21.0610	0.6112	0.2401	0.7253	-0.2064
2.42	-9.5138	-0.0582	-1.6491	-0.0010	-0.0060	0.0031	15.5363	13.5816	21.0579	0.6113	0.2401	0.7254	-0.2064
2.43	-9.5062	-0.0593	-1.6507	0.0009	-0.0039	0.0054	15.5071	13.6059	21.3367	0.6112	0.2401	0.7254	-0.2064
2.44	-9.4907	-0.0650	-1.6535	0.0072	-0.0104	0.0039	15.4105	13.6133	21.2497	0.6112	0.2401	0.7255	-0.2064
2.45	-9.4988	-0.0628	-1.6545	0.0054	-0.0097	0.0082	15.5660	13.5947	21.1285	0.6111	0.2401	0.7254	-0.2064
2.46	-9.5253	-0.0576	-1.6558	0.0064	-0.0141	0.0097	15.6132	13.5262	21.1472	0.6112	0.2401	0.7254	-0.2064
2.47	-9.5048	-0.0509	-1.6600	0.0078	-0.0123	0.0058	15.8183	13.4952	21.1623	0.6112	0.2401	0.7254	-0.2065
2.48	-9.5050	-0.0448	-1.6582	0.0057	-0.0107	0.0068	15.8851	13.3592	21.4459	0.6111	0.2401	0.7253	-0.2065
2.49	-9.5063	-0.0450	-1.6701	0.0005	-0.0124	0.0080	15.5716	13.4382	21.1958	0.6112	0.2401	0.7254	-0.2065
2.5	-9.5124	-0.0359	-1.6601	-0.0021	-0.0128	0.0049	15.6336	13.4964	21.1403	0.6112	0.2401	0.7254	-0.2065
2.51	-9.5096	-0.0403	-1.6672	-0.0047	-0.0161	0.0012	15.5986	13.6980	21.3423	0.6112	0.2401	0.7254	-0.2065
2.52	-9.5123	-0.0510	-1.6569	-0.0003	-0.0105	0.0043	15.6839	13.3205	21.2961	0.6112	0.2400	0.7253	-0.2065
2.53	-9.5113	-0.0622	-1.6584	0.0013	-0.0162	0.0084	15.7270	13.2880	21.2714	0.6112	0.2400	0.7254	-0.2065
2.54	-9.5007	-0.0797	-1.6454	-0.0050	-0.0180	0.0103	15.7678	13.4221	21.1419	0.6113	0.2400	0.7253	-0.2065
2.55	-9.5023	-0.0933	-1.6431	0.0027	-0.0114	0.0052	15.5867	13.5131	21.2931	0.6113	0.2400	0.7253	-0.2065
2.56	-9.5085	-0.0881	-1.6496	-0.0075	-0.0152	0.0056	15.7078	13.6244	21.4180	0.6113	0.2400	0.7253	-0.2065
2.57	-9.4945	-0.0964	-1.6339	-0.0090	-0.0122	0.0021	15.6779	13.7291	21.1708	0.6113	0.2399	0.7253	-0.2065
2.58	-9.4938	-0.0867	-1.6219	0.0057	-0.0099	-0.0005	15.3378	13.6138	21.2521	0.6113	0.2399	0.7254	-0.2065
2.59	-9.5061	-0.0714	-1.6349	0.0013	-0.0069	0.0042	15.5418	13.6052	21.2024	0.6112	0.2399	0.7253	-0.2065
2.6	-9.5077	-0.0476	-1.6447	-0.0017	-0.0091	0.0055	15.6998	13.6016	21.4597	0.6113	0.2399	0.7254	-0.2065
2.61	-9.4994	-0.0459	-1.6370	0.0049	-0.0088	0.0056	15.5864	13.6441	21.3560	0.6113	0.2399	0.7254	-0.2065
2.62	-9.5066	-0.0427	-1.6387	-0.0004	-0.0066	0.0077	15.5767	13.7266	21.2340	0.6113	0.2399	0.7254	-0.2065
2.63	-9.5127	-0.0393	-1.6505	0.0005	-0.0033	0.0035	15.4216	13.5773	21.1380	0.6112	0.2399	0.7254	-0.2065
2.64	-9.5068	-0.0523	-1.6356	0.0005	-0.0102	0.0092	15.4859	13.5144	21.1231	0.6112	0.2399	0.7254	-0.2065
2.65	-9.5061	-0.0752	-1.6527	-0.0053	-0.0097	0.0088	15.5934	13.3303	21.2160	0.6112	0.2399	0.7254	-0.2065
2.66	-9.5064	-0.0824	-1.6539	-0.0023	-0.0100	0.0073	15.6801	13.1733	21.2422	0.6112	0.2398	0.7254	-0.2064
2.67	-9.5009	-0.0954	-1.6612	0.0016	-0.0104	0.0078	15.9038	13.3109	21.3600	0.6113	0.2398	0.7255	-0.2065
2.68	-9.5039	-0.0998	-1.6510	0.0009	-0.0028	0.0061	15.7895	13.5481	21.2737	0.6112	0.2398	0.7254	-0.2065
2.69	-9.5084	-0.0881	-1.6487	-0.0066	-0.0131	0.0073	15.7900	13.4493	21.2325	0.6113	0.2398	0.7255	-0.2064
2.7	-9.5001	-0.0822	-1.6568	-0.0040	-0.0078	0.0066	15.6769	13.5303	21.1513	0.6112	0.2398	0.7254	-0.2064
2.71	-9.5004	-0.0814	-1.6568	0.0032	-0.0138	0.0075	15.6238	13.5185	21.1358	0.6112	0.2398	0.7255	-0.2064
2.72	-9.5066	-0.0471	-1.6562	0.0038	-0.0188	0.0116	15.7396	13.5711	21.1566	0.6113	0.2398	0.7254	-0.2064
2.73	-9.5090	-0.0407	-1.6631	-0.0028	-0.0096	0.0125	15.9016	13.6527	21.1349	0.6112	0.2398	0.7254	-0.2064
2.74	-9.5075	-0.0280	-1.6714	-0.0031	-0.0084	0.0138	15.5334	13.4760	21.1573	0.6113	0.2398	0.7255	-0.2064
2.75	-9.5143	-0.0233	-1.6709	-0.0017	-0.0067	0.0036	15.4770	13.7283	21.4001	0.6112	0.2398	0.7254	-0.2064
2.76	-9.5004	-0.0363	-1.6720	-0.0079	-0.0171	0.0062	15.4951	13.7404	21.3590	0.6113	0.2398	0.7255	-0.2064
2.77	-9.4983	-0.0414	-1.6674	0.0013	-0.0102	0.0076	15.4326	13.5902	21.1870	0.6112	0.2397	0.7254	-0.2063
2.78	-9.4993	-0.0502	-1.6607	0.0006	-0.0044	0.0034	15.4545	13.3910	21.2824	0.6113	0.2398	0.7255	-0.2063
2.79	-9.4946	-0.0440	-1.6633	-0.0032	-0.0067	0.0039	15.8065	13.6997	21.4643	0.6112	0.2397	0.7255	-0.2063
2.8	-9.5046	-0.0626	-1.6587	-0.0047	-0.0080	0.0075	16.0715	13.8380	21.3105	0.6112	0.2397	0.7255	-0.2063
2.81	-9.5089	-0.0655	-1.6553	-0.0001	-0.0054	0.0039	15.8196	13.6394	21.3057	0.6112	0.2397	0.7255	-0.2063
2.82	-9.5089	-0.0683	-1.6384	0.0031	-0.0131	0.0077	15.7010	13.5321	21.3195	0.6112	0.2397	0.7255	-0.2063
2.83	-9.5096	-0.0704	-1.6398	0.0050	-0.0127	0.0119	15.6045	13.4832	21.1692	0.6113	0.2397	0.7255	-0.2063
2.84	-9.4949	-0.0578	-1.6345	0.0069	-0.0131	0.0079	15.7968	13.5663	20.8813	0.6112	0.2397	0.7254	-0.2063
2.85	-9.5027	-0.0682	-1.6399	0.0001	-0.0104	0.0042	15.6232	13.6688	21.0392	0.6113	0.2397	0.7255	-0.2064
2.86	-9.5151	-0.0568	-1.6376	0.0031	-0.0076	0.0081	15.7769	13.6220	21.1030	0.6112	0.2397	0.7255	-0.2063
2.87	-9.5013	-0.0546	-1.6397	-0.0009	-0.0082	0.0072	15.8315	13.4719	21.0913	0.6112	0.2397	0.7255	-0.2063
2.88	-9.4957	-0.0659	-1.6307	0.0007	-0.0100	0.0061	15.5394	13.5005	21.0039	0.6112	0.2397	0.7255	-0.2063
2.89	-9.5152	-0.0649	-1.6296	-0.0002	-0.0087	0.0065	15.4303	13.4322	21.1018	0.6112	0.2397	0.7255	-0.2063
2.9	-9.5109	-0.0651	-1.6239	0.0029	-0.0077	0.0102	15.7823	13.4238	21.0934	0.6112	0.2397	0.7255	-0.2063
2.91	-9.5052	-0.0698	-1.6315	-0.0000	-0.0104	0.0069	15.6064	13.5901	21.0780	0.6112	0.2397	0.7255	-0.2063
2.92	-9.5058	-0.0672	-1.6338	-0.0040	-0.0125	0.0105	15.5790	13.4532	21.1052	0.6112	0.2397	0.7256	-0.2063
2.93	-9.5127	-0.0674	-1.6440	-0.0012	-0.0117	0.0079	15.6219	13.4988	21.0560	0.6112	0.2397	0.7255	-0.2063
2.94	-9.5058	-0.0703	-1.6334	-0.0023	-0.0124	0.0015	15.5324	13.4569	21.1900	0.6113	0.2397	0.7256	-0.2063
2.95	-9.5099	-0.0623	-1.6500	0.0020	-0.0072	0.0028	15.4255	13.5758	21.0584	0.6112	0.2397	0.7255	-0.2063
2.96	-9.4991	-0.0632	-1.6487	0.0008	-0.0095	0.0053	15.5421	13.5461	21.1313	0.6112	0.2397	0.7256	-0.2063
2.97	-9.4869	-0.0635	-1.6375	-0.0002	-0.0041	0.0045	15.6534	13.5908	21.3318	0.6112	0.2397	0.7256	-0.2063
2.98	-9.4963	-0.0645	-1.6469	-0.0019	-0.0070	0.0083	15.6931	13.4727	21.1027	0.6111	0.2396	0.7256	-0.2063
2.99	-9.5047	-0.0760	-1.6580	-0.0006	-0.0086	0.0058	15.4989	13.4943	20.9511	0.6112	0.2397	0.7257	-0.2063
3	-9.5040	-0.0684	-1.6472	-0.0097	-0.0114	0.0045	15.5083	13.7036	21.2245	0.6112	0.2396	0.7256	-0.2063
3.01	-9.5044	-0.0795	-1.6433	-0.0084	-0.0103	0.0125	15.5558	13.5606	21.1660	0.6112	0.2396	0.7257	-0.2062
3.02	-9.4985	-0.0720	-1.6442	0.0054	-0.0161	0.0127	15.7109	13.5732	20.9485	0.6112	0.2396	0.7255	-0.2062
3.03	-9.5050	-0.0621	-1.6496	0.0034	-0.0093	0.0112	15.4392	13.3418	21.2581	0.6112	0.2396	0.7256	-0.2062
3.04	-9.5060	-0.0605	-1.6434	0.0019	-0.0056	0.0113	15.6246	13.4617	21.0908	0.6112	0.2396	0.7256	-0.2062
3.05	-9.5031	-0.0592	-1.6535	0.0036	-0.0096	0.0125	15.7203	13.4941	21.0997	0.6112	0.2397	0.7256	-0.2062
3.06	-9.5115	-0.0477	-1.6537	-0.0017	-0.0095	0.0069	15.4727	13.4657	21.0693	0.6112	0.2397	0.7256	-0.2062
3.07	-9.5063	-0.0465	-1.6456	-0.0023	-0.0058	0.0085	15.5569	13.6197	21.1221	0.6112	0.2397	0.7256	-0.2062
3.08	-9.5140	-0.0484	-1.6545	-0.0026	-0.0063	0.0065	15.6140	13.4544	21.1967	0.6112	0.2397	0.7257	-0.2062
3.09	-9.5027	-0.0580	-1.6629	-0.0040	-0.0063	0.0081	15.5685	13.6456	21.1601	0.6111	0.2396	0.7256	-0.2061
3.1	-9.5055	-0.0650	-1.6570	-0.0010	-0.0097	0.0052	15.7222	13.7444	21.1755	0.6112	0.2396	0.7257	-0.2061
3.11	-9.5007	-0.0664	-1.6511	0.0016	-0.0124	0.0089	15.7410	13.5847	21.0227	0.6112	0.2396	0.7257	-0.2061
3.12	-9.5005	-0.0682	-1.6617	0.0025	-0.0068	0.0052	15.5894	13.5283	21.2462	0.6112	0.2396	0.7257	-0.2061
3.13	-9.5064	-0.0684	-1.6611	0.0004	-0.0062	0.0071	15.5096	13.7650	21.3556	0.6111	0.2396	0.7257	-0.2061
3.14	-9.5094	-0.0638	-1.6618	0.0016	-0.0080	0.0065	15.3869	13.6711	21.2102	0.6111	0.2396	0.7257	-0.2061
3.15	-9.4991	-0.0654	-1.6486	0.0021	-0.0055	0.0106	15.5105	13.6775	21.1270	0.6111	0.2397	0.7257	-0.2061
3.16	-9.5013	-0.0769	-1.6486	0.0002	-0.0150	0.0040	15.4981	13.7610	21.2808	0.6111	0.2396	0.7256	-0.2061
3.17	-9.5077	-0.0744	-1.6503	-0.0002	-0.0118	0.0082	15.5381	13.6003	21.2147	0.6112	0.2396	0.7257	-0.2061
3.18	-9.4974	-0.0695	-1.6453	-0.0023	-0.0112	0.0062	15.5890	13.6893	21.2120	0.6111	0.2396	0.7257	-0.2061
3.19	-9.5086	-0.0840	-1.6465	0.0067	-0.0099	0.0070	15.6581	13.5527	21.2302	0.6112	0.2396	0.7258	-0.2061
3.2	-9.5060	-0.0812	-1.6482	0.0078	-0.0161	0.0145	15.6762	13.5911	21.0558	0.6111	0.2397	0.7256	-0.2061
3.21	-9.5001	-0.0527	-1.6439	-0.0047	-0.0190	0.0108	15.6933	13.5081	21.2162	0.6112	0.2397	0.7256	-0.2061
3.22	-9.5121	-0.0311	-1.6431	-0.0059	-0.0141	0.0059	15.7751	13.5413	21.1554	0.6112	0.2396	0.7256	-0.2061
3.23	-9.5069	-0.0172	-1.6418	-0.0006	-0.0110	0.0075	15.7533	13.5091	21.1961	0.6112	0.2396	0.7256	-0.2061
3.24	-9.5065	-0.0407	-1.6536	-0.0052	-0.0135	0.0152	15.6609	13.3821	21.1614	0.6113	0.2396	0.7257	-0.2061
3.25	-9.5064	-0.0452	-1.6557	-0.0047	-0.0140	0.0080	15.5698	13.6451	21.2032	0.6112	0.2396	0.7256	-0.2060
3.26	-9.5138	-0.0451	-1.6434	-0.0055	-0.0136	0.0065	15.6118	13.4536	21.0893	0.6113	0.2396	0.7257	-0.2060
3.27	-9.5042	-0.0573	-1.6503	-0.0044	-0.0148	0.0072	15.5809	13.5718	21.1660	0.6112	0.2395	0.7256	-0.2060
3.28	-9.5006	-0.0600	-1.6569	0.0003	-0.0097	0.0074	15.6048	13.6606	21.2854	0.6113	0.2396	0.7256	-0.2060
3.29	-9.5103	-0.0683	-1.6790	0.0004	-0.0103	0.0055	15.8786	13.6432	21.4260	0.6113	0.2395	0.7256	-0.2060
3.3	-9.5121	-0.0759	-1.6663	0.0000	-0.0072	0.0095	15.9313	13.6568	21.3883	0.6112	0.2395	0.7256	-0.2060
3.31	-9.5057	-0.0627	-1.6432	-0.0000	-0.0031	0.0067	15.7753	13.6709	21.2811	0.6113	0.2396	0.7257	-0.2060
3.32	-9.5099	-0.0552	-1.6478	0.0021	-0.0049	0.0061	15.5205	13.6718	21.3397	0.6112	0.2396	0.7257	-0.2060
3.33	-9.5063	-0.0515	-1.6565	-0.0033	-0.0021	0.0052	15.3935	13.5411	21.2563	0.6112	0.2396	0.7257	-0.2060
3.34	-9.5006	-0.0516	-1.6615	-0.0033	-0.0028	0.0085	15.5619	13.5070	21.2406	0.6111	0.2395	0.7257	-0.2059
3.35	-9.4961	-0.0619	-1.6471	-0.0047	-0.0122	0.0054	15.5367	13.6124	21.2102	0.6112	0.2395	0.7258	-0.2059
3.36	-9.5080	-0.0678	-1.6627	-0.0102	-0.0084	0.0042	15.5475	13.5951	21.3012	0.6112	0.2395	0.7258	-0.2059
3.37	-9.5078	-0.0596	-1.6514	-0.0047	-0.0070	0.0067	15.5349	13.5886	21.2686	0.6112	0.2395	0.7258	-0.2059
3.38	-9.5059	-0.0533	-1.6452	-0.0034	-0.0110	0.0090	15.5536	13.6163	21.1344	0.6112	0.2394	0.7258	-0.2058
3.39	-9.4949	-0.0722	-1.6364	-0.0043	-0.0157	0.0111	15.6472	13.5543	21.0081	0.6112	0.2394	0.7258	-0.2058
3.4	-9.5044	-0.0854	-1.6520	-0.0049	-0.0112	0.0054	15.6200	13.3416	21.2039	0.6112	0.2394	0.7258	-0.2058
3.41	-9.5021	-0.1022	-1.6409	0.0038	-0.0117	0.0135	15.6197	13.3486	21.2437	0.6112	0.2394	0.7257	-0.2058
3.42	-9.4983	-0.0987	-1.6381	-0.0010	-0.0130	0.0084	15.7194	13.3627	21.3703	0.6113	0.2394	0.7258	-0.2058
3.43	-9.5093	-0.0804	-1.6444	0.0016	-0.0051	0.0103	15.8203	13.4742	21.2429	0.6112	0.2394	0.7258	-0.2058
3.44	-9.5072	-0.0704	-1.6303	0.0050	-0.0058	0.0116	15.7184	13.6155	21.1132	0.6112	0.2395	0.7258	-0.2058
3.45	-9.4993	-0.0580	-1.6359	0.0056	-0.0079	0.0071	15.6275	13.5038	21.1684	0.6111	0.2395	0.7257	-0.2058
3.46	-9.5005	-0.0407	-1.6370	0.0021	-0.0104	0.0072	15.6040	13.4244	21.1484	0.6112	0.2395	0.7258	-0.2058
3.47	-9.5131	-0.0204	-1.6378	0.0045	-0.0112	0.0070	15.6993	13.4199	21.3290	0.6112	0.2395	0.7258	-0.2058
3.48	-9.4990	-0.0071	-1.6239	0.0019	-0.0132	0.0094	15.9107	13.5240	21.3304	0.6111	0.2395	0.7257	-0.2058
3.49	-9.4996	0.0042	-1.6263	0.0002	-0.0055	0.0086	15.6499	13.5037	21.3266	0.6112	0.2395	0.7258	-0.2058
3.5	-9.5163	-0.0136	-1.6494	-0.0021	-0.0062	0.0028	15.3653	13.5519	21.3207	0.6111	0.2395	0.7258	-0.2058
3.51	-9.5060	-0.0380	-1.6419	-0.0031	-0.0098	0.0092	15.4326	13.5961	21.3208	0.6112	0.2395	0.7259	-0.2058
3.52	-9.5015	-0.0546	-1.6400	-0.0058	-0.0103	0.0078	15.5494	13.6808	21.2592	0.6111	0.2395	0.7258	-0.2057
3.53	-9.5096	-0.0586	-1.6592	-0.0050	-0.0140	-0.0006	15.6526	13.6688	20.9555	0.6112	0.2394	0.7258	-0.2057
3.54	-9.5103	-0.0491	-1.6597	-0.0101	-0.0064	0.0043	15.5967	13.5778	21.2468	0.6112	0.2394	0.7258	-0.2057
3.55	-9.5113	-0.0410	-1.6528	0.0003	-0.0059	0.0047	15.7061	13.8736	21.3475	0.6111	0.2394	0.7259	-0.2057
3.56	-9.5178	-0.0447	-1.6719	-0.0026	-0.0061	0.0070	15.6062	13.8269	21.2228	0.6111	0.2394	0.7259	-0.2057
3.57	-9.5080	-0.0487	-1.6607	-0.0043	-0.0132	0.0067	15.7664	13.6308	21.3266	0.6111	0.2393	0.7259	-0.2057
3.58	-9.5034	-0.0440	-1.6610	0.0018	-0.0102	0.0083	15.7476	13.5455	21.1914	0.6112	0.2394	0.7259	-0.2057
3.59	-9.4953	-0.0572	-1.6699	-0.0021	-0.0061	0.0079	15.6598	13.4341	21.3399	0.6111	0.2393	0.7258	-0.2056
3.6	-9.5091	-0.0802	-1.6813	0.0039	-0.0132	0.0076	15.8477	13.4191	21.3417	0.6112	0.2394	0.7259	-0.2057
3.61	-9.4994	-0.0826	-1.6690	0.0011	-0.0058	0.0046	15.8228	13.3455	21.2937	0.6111	0.2393	0.7259	-0.2057
3.62	-9.5029	-0.0797	-1.6664	-0.0007	-0.0061	0.0075	15.7701	13.6012	21.2069	0.6111	0.2393	0.7259	-0.2057
3.63	-9.5145	-0.0755	-1.6665	-0.0020	-0.0078	0.0079	15.7887	13.6177	21.3468	0.6111	0.2393	0.7259	-0.2056
3.64	-9.5006	-0.0784	-1.6604	-0.0011	-0.0147	0.0072	15.6628	13.4481	21.3161	0.6111	0.2393	0.7259	-0.2056
3.65	-9.5026	-0.0833	-1.6651	-0.0030	-0.0095	0.0095	15.5898	13.2736	21.1464	0.6111	0.2393	0.7260	-0.2056
3.66	-9.4998	-0.0871	-1.6614	-0.0022	-0.0137	0.0085	15.7357	13.2443	21.2456	0.6111	0.2393	0.7259	-0.2056
3.67	-9.5112	-0.0923	-1.6642	-0.0049	-0.0134	0.0105	15.5669	13.4944	21.2365	0.6112	0.2393	0.7260	-0.2056
3.68	-9.4934	-0.0948	-1.6540	-0.0016	-0.0070	0.0060	15.5977	13.4886	21.1052	0.6111	0.2393	0.7259	-0.2056
3.69	-9.4941	-0.0772	-1.6533	0.0008	-0.0093	0.0054	15.5572	13.6441	21.2313	0.6112	0.2393	0.7260	-0.2056
3.7	-9.5104	-0.0842	-1.6636	0.0007	-0.0094	0.0074	15.1449	13.6996	21.2249	0.6111	0.2393	0.7259	-0.2056
3.71	-9.5060	-0.0656	-1.6463	0.0020	-0.0093	0.0066	15.7176	13.5446	21.2360	0.6111	0.2393	0.7260	-0.2056
3.72	-9.5024	-0.0627	-1.6353	-0.0045	-0.0112	0.0081	15.6077	13.6758	21.4219	0.6111	0.2393	0.7260	-0.2056
3.73	-9.5162	-0.0626	-1.6484	-0.0046	-0.0037	0.0035	15.4378	13.6728	21.3238	0.6111	0.2392	0.7259	-0.2055
3.74	-9.5110	-0.0612	-1.6444	0.0003	-0.0067	0.0057	15.4717	13.6049	21.2262	0.6111	0.2393	0.7261	-0.2055
3.75	-9.4998	-0.0537	-1.6390	-0.0051	-0.0103	0.0059	15.5934	13.5535	21.2129	0.6111	0.2392	0.7260	-0.2055
3.76	-9.5048	-0.0549	-1.6397	0.0009	-0.0139	0.0094	15.6465	13.5128	21.1059	0.6111	0.2392	0.7260	-0.2055
3.77	-9.5015	-0.0554	-1.6446	-0.0009	-0.0154	0.0061	15.5956	13.5036	21.2724	0.6111	0.2392	0.7259	-0.2055
3.78	-9.5041	-0.0555	-1.6321	-0.0046	-0.0097	0.0079	15.8656	13.4544	21.0923	0.6111	0.2392	0.7260	-0.2055
3.79	-9.5014	-0.0566	-1.6307	0.0041	-0.0109	0.0092	16.1514	13.6879	21.2877	0.6111	0.2392	0.7260	-0.2055
3.8	-9.5084	-0.0485	-1.6451	-0.0030	-0.0068	0.0071	16.2145	13.4572	21.6004	0.6111	0.2392	0.7260	-0.2055
3.81	-9.5036	-0.0457	-1.6403	0.0014	-0.0062	0.0066	15.9711	13.3273	21.1796	0.6111	0.2392	0.7260	-0.2055
3.82	-9.4922	-0.0357	-1.6278	0.0000	-0.0110	0.0068	15.8783	13.4852	21.1302	0.6111	0.2392	0.7260	-0.2055
3.83	-9.5106	-0.0413	-1.6430	0.0052	-0.0116	0.0120	15.5339	13.6776	21.2131	0.6111	0.2392	0.7260	-0.2055
3.84	-9.5157	-0.0259	-1.6463	0.0028	-0.0091	0.0077	15.5067	13.6423	21.1735	0.6111	0.2392	0.7260	-0.2055
3.85	-9.5050	-0.0402	-1.6413	-0.0018	-0.0121	0.0080	15.6387	13.6326	21.1752	0.6111	0.2392	0.7260	-0.2055
3.86	-9.5010	-0.0466	-1.6487	0.0018	-0.0163	0.0089	15.7436	13.5308	21.0596	0.6111	0.2392	0.7260	-0.2055
3.87	-9.5055	-0.0403	-1.6562	-0.0003	-0.0164	0.0060	15.7822	13.3707	21.1876	0.6112	0.2392	0.7260	-0.2055
3.88	-9.4974	-0.0508	-1.6663	-0.0002	-0.0126	0.0083	15.7669	13.5983	21.1983	0.6111	0.2392	0.7260	-0.2055
3.89	-9.4971	-0.0513	-1.6692	-0.0038	-0.0107	0.0060	15.6402	13.7541	21.2760	0.6112	0.2392	0.7260	-0.2055
3.9	-9.4973	-0.0569	-1.6641	-0.0026	-0.0107	0.0108	15.5976	13.7325	21.0804	0.6112	0.2392	0.7260	-0.2054
3.91	-9.5034	-0.0596	-1.6644	0.0045	-0.0091	0.0075	15.6126	13.6514	21.1534	0.6111	0.2392	0.7259	-0.2054
3.92	-9.5089	-0.0645	-1.6678	-0.0049	-0.0118	0.0084	15.6012	13.5526	21.4255	0.6112	0.2392	0.7260	-0.2054
3.93	-9.5156	-0.0606	-1.6687	-0.0010	-0.0104	0.0054	15.5973	13.5458	21.4130	0.6112	0.2392	0.7260	-0.2054
3.94	-9.5091	-0.0646	-1.6726	-0.0063	-0.0107	0.0106	15.6284	13.6369	21.0673	0.6112	0.2392	0.7261	-0.2054
3.95	-9.5043	-0.0595	-1.6705	-0.0015	-0.0116	0.0064	15.5075	13.6449	21.1880	0.6112	0.2391	0.7260	-0.2054
3.96	-9.5078	-0.0678	-1.6607	0.0012	-0.0113	0.0101	15.6556	13.4398	21.4189	0.6112	0.2391	0.7260	-0.2054
3.97	-9.5093	-0.0671	-1.6680	-0.0012	-0.0041	0.0128	15.8463	13.6753	21.2787	0.6112	0.2392	0.7260	-0.2053
3.98	-9.5024	-0.0555	-1.6614	-0.0019	-0.0102	0.0111	15.8678	13.5776	20.9763	0.6112	0.2392	0.7260	-0.2053
3.99	-9.5103	-0.0474	-1.6648	0.0003	-0.0147	0.0077	15.6633	13.4622	21.1473	0.6113	0.2392	0.7261	-0.2053
4	-9.5083	-0.0581	-1.6575	-0.0017	-0.0155	0.0070	15.5799	13.3672	21.1701	0.6112	0.2392	0.7260	-0.2053
4.01	-9.5065	-0.0739	-1.6592	-0.0006	-0.0140	0.0114	15.6805	13.4587	21.0593	0.6113	0.2392	0.7260	-0.2053
4.02	-9.5035	-0.0794	-1.6558	0.0042	-0.0136	0.0073	15.6929	13.5685	21.2052	0.6112	0.2391	0.7259	-0.2053
4.03	-9.5074	-0.0821	-1.6661	0.0044	-0.0141	0.0090	15.7836	13.6754	21.1730	0.6113	0.2392	0.7260	-0.2053
4.04	-9.5107	-0.0751	-1.6545	0.0001	-0.0173	0.0107	15.7532	13.6075	21.3715	0.6113	0.2392	0.7259	-0.2053
4.05	-9.5073	-0.0621	-1.6515	0.0009	-0.0104	0.0114	15.7827	13.4830	21.2957	0.6113	0.2392	0.7259	-0.2053
4.06	-9.5034	-0.0566	-1.6433	0.0003	-0.0131	0.0071	15.6658	13.4677	21.1676	0.6113	0.2392	0.7259	-0.2053
4.07	-9.5064	-0.0503	-1.6361	0.0010	-0.0052	0.0055	15.7141	13.7604	21.3259	0.6113	0.2392	0.7259	-0.2053
4.08	-9.5011	-0.0505	-1.6391	0.0016	-0.0074	0.0103	15.8016	13.6100	21.3876	0.6113	0.2392	0.7260	-0.2053
4.09	-9.4926	-0.0451	-1.6326	0.0024	-0.0108	0.0059	15.6118	13.5321	21.2623	0.6112	0.2392	0.7259	-0.2053
4.1	-9.5087	-0.0382	-1.6387	-0.0015	-0.0184	0.0028	15.4788	13.6792	21.2737	0.6113	0.2392	0.7260	-0.2053
4.11	-9.5099	-0.0355	-1.6366	0.0016	-0.0155	0.0053	15.6121	13.4598	21.4099	0.6113	0.2392	0.7259	-0.2053
4.12	-9.5076	-0.0337	-1.6265	0.0029	-0.0120	0.0091	15.7326	13.5594	21.2730	0.6113	0.2392	0.7259	-0.2053
4.13	-9.5026	-0.0285	-1.6312	-0.0036	-0.0143	0.0059	15.5697	13.5615	21.1903	0.6113	0.2391	0.7259	-0.2053
4.14	-9.5037	-0.0437	-1.6276	-0.0027	-0.0212	0.0064	15.6446	13.5757	21.2744	0.6114	0.2391	0.7259	-0.2053
4.15	-9.5163	-0.0500	-1.6348	0.0011	-0.0177	0.0111	15.7123	13.8895	21.0980	0.6114	0.2391	0.7259	-0.2053
4.16	-9.5134	-0.0704	-1.6470	0.0007	-0.0140	0.0064	15.6149	13.5458	21.0711	0.6114	0.2391	0.7258	-0.2053
4.17	-9.5060	-0.0730	-1.6437	0.0010	-0.0102	0.0059	15.5902	13.4873	21.2431	0.6114	0.2391	0.7259	-0.2053
4.18	-9.5035	-0.0768	-1.6416	0.0002	-0.0145	0.0063	15.7878	13.5764	21.0802	0.6114	0.2391	0.7258	-0.2053
4.19	-9.4999	-0.0762	-1.6538	0.0013	-0.0162	0.0129	15.6590	13.6190	21.0276	0.6115	0.2391	0.7259	-0.2053
4.2	-9.5067	-0.0625	-1.6497	0.0023	-0.0153	0.0105	15.4952	13.6587	21.2224	0.6114	0.2391	0.7257	-0.2053
4.21	-9.5023	-0.0654	-1.6588	0.0019	-0.0075	0.0123	15.6484	13.6341	21.2601	0.6115	0.2392	0.7258	-0.2053
4.22	-9.5036	-0.0644	-1.6523	-0.0006	-0.0111	0.0074	15.5712	13.4771	21.1245	0.6115	0.2392	0.7258	-0.2053
4.23	-9.5017	-0.0620	-1.6529	-0.0009	-0.0165	0.0140	15.6977	13.5446	21.3751	0.6115	0.2392	0.7257	-0.2053
4.24	-9.5009	-0.0670	-1.6647	0.0023	-0.0109	0.0089	15.6690	13.6698	21.2501	0.6115	0.2392	0.7258	-0.2053
4.25	-9.5056	-0.0656	-1.6745	0.0001	-0.0092	0.0041	15.5988	13.6272	21.1597	0.6115	0.2392	0.7258	-0.2053
4.26	-9.5040	-0.0659	-1.6580	-0.0006	-0.0077	0.0073	15.5780	13.4597	21.2011	0.6115	0.2392	0.7258	-0.2053
4.27	-9.4995	-0.0499	-1.6719	0.0004	-0.0120	0.0055	15.4026	13.5719	21.1623	0.6114	0.2391	0.7257	-0.2053
4.28	-9.5138	-0.0383	-1.6748	-0.0034	-0.0160	0.0025	15.6986	13.6385	21.3146	0.6115	0.2391	0.7258	-0.2053
4.29	-9.5071	-0.0383	-1.6725	-0.0013	-0.0079	0.0036	15.9296	13.5671	21.3846	0.6115	0.2391	0.7258	-0.2053
4.3	-9.5046	-0.0404	-1.6845	-0.0050	-0.0079	0.0074	15.9272	14.0509	21.3292	0.6115	0.2391	0.7258	-0.2052
4.31	-9.5056	-0.0480	-1.6781	-0.0008	-0.0071	0.0048	15.8260	13.6780	21.4458	0.6115	0.2391	0.7258	-0.2052
4.32	-9.5067	-0.0466	-1.6804	0.0006	-0.0100	0.0100	15.6506	13.5882	21.3324	0.6115	0.2391	0.7258	-0.2052
4.33	-9.5015	-0.0589	-1.6850	-0.0038	-0.0123	0.0118	15.5242	13.4960	20.9637	0.6115	0.2391	0.7258	-0.2052
4.34	-9.5035	-0.0611	-1.6724	-0.0096	-0.0160	0.0053	15.7859	13.5329	21.0683	0.6115	0.2390	0.7258	-0.2052
4.35	-9.5102	-0.0690	-1.6778	-0.0063	-0.0169	0.0076	15.8487	13.5593	21.1766	0.6116	0.2390	0.7258	-0.2052
4.36	-9.5074	-0.0754	-1.6797	-0.0039	-0.0177	0.0092	15.8453	13.2487	21.3099	0.6116	0.2390	0.7258	-0.2051
4.37	-9.5073	-0.0672	-1.6666	0.0015	-0.0149	0.0063	15.5500	13.4446	21.0784	0.6116	0.2390	0.7258	-0.2052
4.38	-9.5039	-0.0622	-1.6587	-0.0026	-0.0092	0.0042	15.4218	13.5463	21.0511	0.6116	0.2390	0.7258	-0.2051
4.39	-9.5022	-0.0586	-1.6551	0.0043	-0.0121	0.0148	15.6792	13.5617	21.1881	0.6116	0.2390	0.7258	-0.2051
4.4	-9.4955	-0.0519	-1.6409	-0.0029	-0.0152	0.0087	15.6823	13.6686	21.1181	0.6116	0.2390	0.7258	-0.2051
4.41	-9.5052	-0.0522	-1.6464	-0.0034	-0.0079	0.0061	15.6776	13.5440	21.2460	0.6116	0.2390	0.7257	-0.2051
4.42	-9.5072	-0.0554	-1.6278	-0.0017	-0.0105	0.0098	15.6898	13.3468	21.2490	0.6117	0.2390	0.7258	-0.2051
4.43	-9.5094	-0.0579	-1.6278	-0.0089	-0.0119	0.0109	15.6617	13.7065	20.9322	0.6116	0.2390	0.7258	-0.2050
4.44	-9.5084	-0.0456	-1.6368	-0.0025	-0.0103	0.0065	15.2867	13.8518	21.1026	0.6117	0.2390	0.7258	-0.2050
4.45	-9.5051	-0.0466	-1.6303	-0.0125	-0.0050	0.0056	15.3367	13.5732	21.2463	0.6116	0.2389	0.7258	-0.2050
4.46	-9.5067	-0.0509	-1.6328	-0.0021	-0.0115	0.0065	15.5091	13.5585	21.2443	0.6117	0.2389	0.7258	-0.2050
4.47	-9.5087	-0.0635	-1.6267	-0.0077	-0.0122	0.0058	15.6519	13.6707	21.1882	0.6117	0.2389	0.7258	-0.2049
4.48	-9.4985	-0.0470	-1.6180	-0.0006	-0.0097	0.0066	15.4534	13.8231	21.1152	0.6116	0.2388	0.7258	-0.2049
4.49	-9.5054	-0.0477	-1.6126	-0.0034	-0.0062	0.0073	15.4116	13.5580	21.1687	0.6117	0.2389	0.7259	-0.2049
4.5	-9.5150	-0.0495	-1.6309	-0.0053	-0.0062	0.0046	15.5078	13.7196	21.1204	0.6116	0.2388	0.7258	-0.2049
4.51	-9.5041	-0.0544	-1.6184	0.0039	-0.0126	0.0134	15.4618	13.5735	21.2084	0.6117	0.2389	0.7259	-0.2049
4.52	-9.5008	-0.0522	-1.6218	-0.0005	-0.0174	0.0128	15.4867	13.5413	21.3387	0.6116	0.2388	0.7258	-0.2049
4.53	-9.5060	-0.0456	-1.6361	0.0012	-0.0076	0.0056	15.8570	13.5082	21.2141	0.6117	0.2389	0.7258	-0.2049
4.54	-9.5074	-0.0454	-1.6364	-0.0049	-0.0068	0.0079	15.6539	13.3594	21.2774	0.6117	0.2388	0.7258	-0.2048
4.55	-9.5030	-0.0362	-1.6473	0.0010	-0.0068	0.0056	15.7751	13.5899	21.1520	0.6116	0.2388	0.7258	-0.2048
4.56	-9.5055	-0.0341	-1.6539	-0.0034	-0.0075	0.0071	15.7431	13.4410	21.1583	0.6117	0.2388	0.7259	-0.2048
4.57	-9.5032	-0.0402	-1.6535	0.0031	-0.0137	0.0055	15.5700	13.3397	21.2882	0.6117	0.2388	0.7259	-0.2048
4.58	-9.5077	-0.0435	-1.6595	0.0001	-0.0145	0.0081	15.5954	13.4847	21.3697	0.6117	0.2388	0.7259	-0.2048
4.59	-9.4972	-0.0592	-1.6628	0.0000	-0.0085	0.0101	15.6758	13.6554	21.2096	0.6116	0.2388	0.7258	-0.2048
4.6	-9.4987	-0.0720	-1.6658	0.0002	-0.0128	0.0040	15.7757	13.6122	21.1758	0.6117	0.2388	0.7259	-0.2048
4.61	-9.5070	-0.0812	-1.6675	0.0003	-0.0144	0.0114	15.6239	13.4988	21.2382	0.6117	0.2388	0.7258	-0.2048
4.62	-9.5022	-0.0904	-1.6717	0.0009	-0.0088	0.0096	15.5261	13.6753	21.3125	0.6117	0.2388	0.7259	-0.2048
4.63	-9.5010	-0.0773	-1.6805	0.0005	-0.0060	0.0084	15.5130	13.8200	21.3078	0.6117	0.2388	0.7258	-0.2048
4.64	-9.5074	-0.0738	-1.6778	-0.0000	-0.0070	0.0036	15.5137	13.7556	21.2352	0.6117	0.2388	0.7259	-0.2048
4.65	-9.5051	-0.0629	-1.6879	-0.0016	-0.0123	0.0089	15.5494	13.6751	21.3554	0.6117	0.2388	0.7259	-0.2048
4.66	-9.5025	-0.0640	-1.6800	-0.0029	-0.0083	0.0106	15.7012	13.7995	21.3087	0.6116	0.2388	0.7258	-0.2048
4.67	-9.5047	-0.0576	-1.6901	0.0007	-0.0075	0.0094	15.5677	13.7894	21.2208	0.6117	0.2389	0.7259	-0.2048
4.68	-9.5016	-0.0598	-1.6890	-0.0057	-0.0093	0.0072	15.5035	13.6463	21.2501	0.6117	0.2388	0.7259	-0.2047
4.69	-9.4984	-0.0659	-1.6831	-0.0014	-0.0057	0.0090	15.5352	13.6107	21.1698	0.6117	0.2388	0.7260	-0.2047
4.7	-9.5004	-0.0855	-1.6770	0.0011	-0.0152	0.0112	15.5031	13.6498	21.1296	0.6116	0.2388	0.7258	-0.2047
4.71	-9.5024	-0.0916	-1.6684	-0.0002	-0.0099	0.0069	15.6635	13.3596	21.1739	0.6117	0.2388	0.7259	-0.2047
4.72	-9.5019	-0.0997	-1.6732	0.0025	-0.0065	0.0068	15.8251	12.9621	21.1506	0.6117	0.2388	0.7259	-0.2047
4.73	-9.5013	-0.0972	-1.6571	0.0014	-0.0076	0.0066	15.6465	13.2972	21.2450	0.6116	0.2388	0.7259	-0.2047
4.74	-9.5062	-0.0921	-1.6509	0.0016	-0.0052	0.0071	15.8099	13.4836	21.2487	0.6117	0.2389	0.7260	-0.2047
4.75	-9.5036	-0.0742	-1.6474	0.0029	-0.0066	0.0077	15.6888	13.2196	21.2546	0.6116	0.2389	0.7259	-0.2047
4.76	-9.5024	-0.0545	-1.6425	-0.0009	-0.0067	0.0083	15.7528	13.6383	21.2041	0.6116	0.2389	0.7260	-0.2047
4.77	-9.5067	-0.0414	-1.6431	0.0014	-0.0156	0.0091	15.6914	13.5433	21.0118	0.6116	0.2388	0.7259	-0.2047
4.78	-9.5064	-0.0330	-1.6394	0.0006	-0.0143	0.0107	15.5823	13.5470	21.3553	0.6116	0.2389	0.7259	-0.2047
4.79	-9.5017	-0.0174	-1.6468	0.0016	-0.0111	0.0080	15.9102	13.5344	21.3874	0.6116	0.2389	0.7259	-0.2047
4.8	-9.5065	-0.0249	-1.6392	0.0014	-0.0093	0.0115	16.1959	13.6245	21.3163	0.6116	0.2389	0.7259	-0.2047
4.81	-9.5088	-0.0273	-1.6442	0.0033	-0.0067	0.0022	15.8802	13.7483	21.3067	0.6116	0.2389	0.7259	-0.2047
4.82	-9.5055	-0.0383	-1.6397	-0.0051	-0.0139	0.0100	15.6413	13.6678	21.1855	0.6116	0.2389	0.7259	-0.2046
4.83	-9.5151	-0.0482	-1.6450	-0.0023	-0.0063	0.0097	15.4906	13.8451	21.1320	0.6117	0.2389	0.7260	-0.2046
4.84	-9.5124	-0.0454	-1.6467	0.0032	-0.0011	0.0075	15.6198	13.5395	20.9770	0.6115	0.2389	0.7259	-0.2046
4.85	-9.5001	-0.0459	-1.6489	-0.0015	-0.0100	0.0059	15.6213	13.3955	20.9093	0.6116	0.2389	0.7260	-0.2046
4.86	-9.5044	-0.0444	-1.6625	0.0023	-0.0072	0.0052	15.4713	13.5391	21.2328	0.6116	0.2389	0.7260	-0.2046
4.87	-9.5062	-0.0409	-1.6634	-0.0026	-0.0069	0.0082	15.6723	13.6939	21.2139	0.6116	0.2389	0.7260	-0.2046
4.88	-9.5101	-0.0498	-1.6696	0.0039	-0.0121	0.0110	15.7858	13.7241	21.1235	0.6116	0.2389	0.7260	-0.2046
4.89	-9.5063	-0.0501	-1.6612	0.0003	-0.0121	0.0138	15.7750	13.6359	21.1197	0.6116	0.2389	0.7260	-0.2046
4.9	-9.5074	-0.0644	-1.6688	0.0016	-0.0103	0.0066	15.9214	13.2980	21.1930	0.6116	0.2389	0.7260	-0.2046
4.91	-9.5059	-0.0692	-1.6632	0.0057	-0.0148	0.0094	15.6658	13.2458	21.1900	0.6115	0.2389	0.7259	-0.2046
4.92	-9.4997	-0.0730	-1.6567	0.0075	-0.0049	0.0105	15.6308	13.5328	21.2409	0.6116	0.2390	0.7260	-0.2046
4.93	-9.5105	-0.0828	-1.6635	0.0020	-0.0103	0.0095	15.8210	13.5858	21.0456	0.6116	0.2390	0.7259	-0.2046
4.94	-9.5158	-0.0797	-1.6581	0.0053	-0.0156	0.0153	15.7455	13.3226	21.1009	0.6116	0.2390	0.7260	-0.2046
4.95	-9.4987	-0.0800	-1.6644	0.0016	-0.0053	0.0083	15.8710	13.4699	21.1743	0.6115	0.2390	0.7259	-0.2046
4.96	-9.5122	-0.0659	-1.6613	0.0003	-0.0074	0.0143	15.7288	13.5630	21.4057	0.6116	0.2391	0.7259	-0.2046
4.97	-9.5110	-0.0640	-1.6657	0.0032	-0.0070	0.0164	15.6494	13.6372	21.1019	0.6116	0.2391	0.7259	-0.2045
4.98	-9.5037	-0.0593	-1.6632	0.0017	-0.0154	0.0128	15.8520	13.5987	21.0697	0.6115	0.2391	0.7259	-0.2045
4.99	-9.5078	-0.0580	-1.6666	-0.0041	-0.0080	0.0060	15.8587	13.6406	21.2027	0.6116	0.2391	0.7260	-0.2045
5	-9.5031	-0.0474	-1.6593	-0.0001	-0.0081	0.0052	15.5955	13.5729	20.9988	0.6116	0.2391	0.7259	-0.2045
5.01	-9.5057	-0.0524	-1.6678	0.0008	-0.0116	0.0089	15.6817	13.5052	21.0695	0.6116	0.2391	0.7260	-0.2045
5.02	-9.5081	-0.0655	-1.6740	-0.0015	-0.0047	0.0054	15.6941	13.6207	21.5114	0.6115	0.2391	0.7259	-0.2045
5.03	-9.5087	-0.0681	-1.6706	0.0011	-0.0105	0.0089	15.5773	13.6140	21.1249	0.6116	0.2391	0.7260	-0.2045
5.04	-9.5057	-0.0630	-1.6708	0.0037	-0.0088	0.0081	15.6638	13.4397	21.1461	0.6115	0.2391	0.7260	-0.2045
5.05	-9.5065	-0.0729	-1.6617	-0.0014	-0.0093	0.0078	15.7213	13.5195	21.1114	0.6115	0.2391	0.7259	-0.2045
5.06	-9.5037	-0.0581	-1.6557	0.0006	-0.0091	0.0071	15.5781	13.6193	21.0789	0.6116	0.2391	0.7260	-0.2045
5.07	-9.4995	-0.0575	-1.6491	0.0006	-0.0147	0.0138	15.7820	13.5099	21.0640	0.6116	0.2391	0.7259	-0.2045
5.08	-9.5031	-0.0642	-1.6498	0.0010	-0.0074	0.0115	15.7044	13.5380	21.2032	0.6116	0.2392	0.7260	-0.2044
5.09	-9.5038	-0.0517	-1.6471	0.0043	-0.0087	0.0062	15.6954	13.5404	21.3056	0.6115	0.2391	0.7259	-0.2044
5.1	-9.5057	-0.0523	-1.6478	0.0003	-0.0084	0.0090	15.6613	13.4079	21.1184	0.6116	0.2392	0.7260	-0.2045
5.11	-9.5041	-0.0554	-1.6447	0.0053	-0.0112	0.0098	15.6408	13.3773	21.0906	0.6115	0.2392	0.7259	-0.2044
5.12	-9.5009	-0.0458	-1.6466	0.0031	-0.0087	0.0119	15.7164	13.5400	21.0827	0.6115	0.2392	0.7260	-0.2044
5.13	-9.5106	-0.0460	-1.6416	0.0047	-0.0044	0.0135	15.6857	13.6105	21.0843	0.6115	0.2393	0.7259	-0.2044
5.14	-9.5057	-0.0456	-1.6455	0.0010	-0.0106	0.0104	15.7919	13.6267	21.3315	0.6115	0.2393	0.7260	-0.2044
5.15	-9.5028	-0.0431	-1.6445	-0.0046	-0.0124	0.0067	15.7696	13.3973	21.1499	0.6115	0.2393	0.7260	-0.2044
5.16	-9.5016	-0.0542	-1.6430	-0.0042	-0.0146	0.0118	15.7213	13.3410	20.9791	0.6115	0.2392	0.7259	-0.2044
5.17	-9.5094	-0.0550	-1.6515	0.0011	-0.0154	0.0124	15.5762	13.5696	21.0177	0.6116	0.2393	0.7260	-0.2044
5.18	-9.5042	-0.0466	-1.6448	-0.0008	-0.0081	0.0053	15.7920	13.9321	21.1034	0.6116	0.2393	0.7259	-0.2044
5.19	-9.5048	-0.0425	-1.6515	-0.0026	-0.0082	0.0087	15.4546	13.6473	21.0435	0.6116	0.2393	0.7260	-0.2044
5.2	-9.5099	-0.0416	-1.6452	0.0016	-0.0094	0.0143	15.5277	13.5178	21.2830	0.6115	0.2393	0.7259	-0.2043
5.21	-9.5052	-0.0481	-1.6494	0.0044	-0.0049	0.0050	15.8339	13.5078	21.1293	0.6115	0.2393	0.7260	-0.2043
5.22	-9.5069	-0.0466	-1.6564	-0.0029	-0.0099	0.0086	15.4140	13.4554	21.0674	0.6115	0.2393	0.7260	-0.2043
5.23	-9.5095	-0.0449	-1.6538	0.0000	-0.0123	0.0089	15.5489	13.6339	21.0855	0.6115	0.2393	0.7259	-0.2043
5.24	-9.5049	-0.0477	-1.6601	-0.0003	-0.0083	0.0082	15.5906	13.5203	21.1723	0.6116	0.2393	0.7260	-0.2043
5.25	-9.5036	-0.0560	-1.6605	0.0016	-0.0144	0.0077	15.8028	13.5106	21.1969	0.6115	0.2393	0.7259	-0.2043
5.26	-9.5105	-0.0536	-1.6546	-0.0022	-0.0142	0.0122	15.6235	13.4101	21.1084	0.6116	0.2393	0.7260	-0.2043
5.27	-9.5003	-0.0557	-1.6633	-0.0047	-0.0137	0.0095	15.6992	13.5538	21.0691	0.6116	0.2393	0.7259	-0.2042
5.28	-9.5029	-0.0563	-1.6557	0.0068	-0.0146	0.0098	15.8549	13.4162	21.2165	0.6116	0.2393	0.7259	-0.2043
5.29	-9.5093	-0.0675	-1.6689	0.0022	-0.0149	0.0058	15.9440	13.5007	21.3205	0.6116	0.2393	0.7259	-0.2043
5.3	-9.5014	-0.0734	-1.6658	-0.0073	-0.0116	0.0069	16.2838	13.6223	21.3970	0.6116	0.2393	0.7259	-0.2043
5.31	-9.5017	-0.0717	-1.6586	-0.0061	-0.0123	0.0069	16.1528	13.6506	21.1718	0.6117	0.2393	0.7259	-0.2042
5.32	-9.5105	-0.0741	-1.6665	-0.0031	-0.0054	0.0055	15.8891	13.6781	21.0879	0.6116	0.2392	0.7259	-0.2042
5.33	-9.5013	-0.0850	-1.6643	0.0011	-0.0085	0.0077	15.6177	13.6756	21.0179	0.6116	0.2393	0.7260	-0.2042
5.34	-9.4979	-0.0808	-1.6658	-0.0047	-0.0161	0.0055	15.7026	13.5295	21.2604	0.6116	0.2392	0.7259	-0.2042
5.35	-9.5037	-0.0689	-1.6661	-0.0021	-0.0173	0.0089	15.4864	13.4624	21.1997	0.6117	0.2392	0.7259	-0.2042
5.36	-9.5001	-0.0723	-1.6557	-0.0024	-0.0210	0.0019	15.6634	13.4267	21.1650	0.6117	0.2392	0.7259	-0.2042
5.37	-9.5022	-0.0775	-1.6630	-0.0028	-0.0205	0.0049	15.4855	13.5966	21.3144	0.6118	0.2391	0.7259	-0.2042
5.38	-9.5086	-0.0741	-1.6684	-0.0018	-0.0152	0.0069	15.6952	13.7259	21.4190	0.6118	0.2391	0.7258	-0.2042
5.39	-9.4982	-0.0694	-1.6691	0.0003	-0.0156	0.0080	15.6524	13.4808	21.5040	0.6118	0.2391	0.7258	-0.2042
5.4	-9.5050	-0.0669	-1.6703	0.0027	-0.0104	0.0012	15.3726	13.6026	21.1205	0.6118	0.2391	0.7258	-0.2042
5.41	-9.5062	-0.0743	-1.6651	-0.0006	-0.0169	0.0021	15.6343	13.7007	21.2285	0.6118	0.2391	0.7258	-0.2042
5.42	-9.5121	-0.0772	-1.6673	0.0004	-0.0168	0.0034	15.6298	13.8125	21.2273	0.6119	0.2391	0.7259	-0.2043
5.43	-9.5073	-0.0799	-1.6494	0.0010	-0.0099	0.0015	15.4078	13.6271	21.2307	0.6118	0.2390	0.7258	-0.2043
5.44	-9.5071	-0.0589	-1.6622	-0.0006	-0.0208	0.0075	15.5874	13.6346	21.2161	0.6119	0.2390	0.7259	-0.2043
5.45	-9.5041	-0.0631	-1.6552	0.0018	-0.0121	0.0058	15.3714	13.5405	21.3279	0.6118	0.2390	0.7257	-0.2043
5.46	-9.4957	-0.0571	-1.6536	-0.0004	-0.0146	0.0113	15.9379	13.3131	21.3220	0.6119	0.2390	0.7258	-0.2043
5.47	-9.5016	-0.0472	-1.6549	0.0008	-0.0177	0.0086	15.9678	13.3311	21.3604	0.6119	0.2390	0.7258	-0.2043
5.48	-9.5097	-0.0516	-1.6496	-0.0002	-0.0119	0.0112	15.5646	13.4723	21.2322	0.6119	0.2390	0.7257	-0.2043
5.49	-9.5092	-0.0467	-1.6418	0.0025	-0.0131	0.0058	15.6234	13.5412	21.1523	0.6120	0.2390	0.7258	-0.2043
5.5	-9.5056	-0.0545	-1.6437	0.0015	-0.0160	0.0095	15.8229	13.3073	21.1191	0.6119	0.2390	0.7257	-0.2043
5.51	-9.5066	-0.0504	-1.6418	-0.0027	-0.0147	0.0100	15.6669	13.5192	21.2901	0.6120	0.2390	0.7257	-0.2043
5.52	-9.5025	-0.0547	-1.6410	0.0020	-0.0116	0.0067	15.7498	13.5760	21.3386	0.6119	0.2390	0.7256	-0.2043
5.53	-9.5057	-0.0464	-1.6433	0.0024	-0.0099	0.0070	15.8746	13.4011	21.2224	0.6120	0.2390	0.7257	-0.2043
5.54	-9.5062	-0.0491	-1.6400	0.0020	-0.0139	0.0110	15.7869	13.4180	21.3982	0.6120	0.2390	0.7257	-0.2043
5.55	-9.5020	-0.0470	-1.6401	-0.0004	-0.0114	0.0125	15.6969	13.5224	21.1685	0.6120	0.2390	0.7257	-0.2043
5.56	-9.4920	-0.0447	-1.6466	0.0021	-0.0075	0.0080	15.5786	13.7545	20.9228	0.6120	0.2391	0.7257	-0.2043
5.57	-9.4972	-0.0498	-1.6423	-0.0056	-0.0088	0.0079	15.5177	13.6429	21.2747	0.6120	0.2391	0.7257	-0.2042
5.58	-9.5085	-0.0456	-1.6395	-0.0042	-0.0053	0.0078	15.6787	13.6590	21.3193	0.6120	0.2391	0.7257	-0.2042
5.59	-9.5032	-0.0446	-1.6404	-0.0010	-0.0075	0.0041	15.6763	13.4358	21.3507	0.6119	0.2390	0.7257	-0.2042
5.6	-9.5016	-0.0444	-1.6392	-0.0008	-0.0088	0.0065	15.6759	13.5083	21.1640	0.6120	0.2390	0.7258	-0.2042
5.61	-9.5026	-0.0494	-1.6524	-0.0023	-0.0055	0.0066	15.7013	13.6465	20.9041	0.6119	0.2390	0.7258	-0.2042
5.62	-9.5022	-0.0544	-1.6610	-0.0020	-0.0075	0.0064	15.6194	13.6946	21.3223	0.6119	0.2390	0.7258	-0.2042
5.63	-9.5030	-0.0540	-1.6565	-0.0005	-0.0050	0.0058	15.4895	13.6194	21.3312	0.6119	0.2390	0.7258	-0.2042
5.64	-9.5067	-0.0583	-1.6584	-0.0043	-0.0085	0.0088	15.6608	13.5312	21.1633	0.6119	0.2390	0.7258	-0.2041
5.65	-9.5004	-0.0511	-1.6630	0.0019	-0.0107	0.0088	15.8587	13.5104	21.1974	0.6119	0.2390	0.7258	-0.2041
5.66	-9.4950	-0.0440	-1.6587	-0.0022	-0.0100	0.0094	15.7647	13.4351	21.2722	0.6119	0.2390	0.7257	-0.2041
5.67	-9.5006	-0.0469	-1.6653	0.0008	-0.0067	0.0056	15.6600	13.4845	21.1071	0.6119	0.2390	0.7259	-0.2041
5.68	-9.5111	-0.0491	-1.6840	-0.0001	-0.0048	0.0083	15.8414	13.4402	21.2028	0.6119	0.2390	0.7258	-0.2041
5.69	-9.5027	-0.0610	-1.6764	-0.0009	-0.0079	0.0093	15.7981	13.5288	21.3032	0.6119	0.2390	0.7259	-0.2041
5.7	-9.4959	-0.0627	-1.6728	0.0022	-0.0072	0.0024	15.5684	13.6317	21.3631	0.6118	0.2390	0.7258	-0.2041
5.71	-9.5071	-0.0729	-1.6790	-0.0060	-0.0050	0.0095	15.7243	13.6314	21.0038	0.6118	0.2390	0.7259	-0.2041
5.72	-9.5012	-0.0725	-1.6712	-0.0023	-0.0146	0.0069	15.7969	13.4312	21.0712	0.6119	0.2390	0.7259	-0.2041
5.73	-9.4954	-0.0679	-1.6640	-0.0022	-0.0134	0.0114	15.6751	13.3265	21.1994	0.6118	0.2390	0.7258	-0.2040
5.74	-9.5079	-0.0627	-1.6720	-0.0020	-0.0095	0.0101	15.6102	13.6962	21.0174	0.6119	0.2390	0.7259	-0.2040
5.75	-9.5005	-0.0598	-1.6686	-0.0014	-0.0080	0.0062	15.5567	13.8183	21.3507	0.6119	0.2390	0.7259	-0.2040
5.76	-9.4949	-0.0446	-1.6647	0.0018	-0.0107	0.0088	15.5058	13.5287	21.2341	0.6119	0.2390	0.7259	-0.2040
5.77	-9.5013	-0.0538	-1.6737	-0.0005	-0.0051	0.0011	15.5157	13.6256	21.2334	0.6118	0.2390	0.7258	-0.2040
5.78	-9.4955	-0.0562	-1.6778	-0.0039	-0.0045	-0.0017	15.5347	13.7192	21.2096	0.6118	0.2389	0.7259	-0.2040
5.79	-9.4935	-0.0543	-1.6551	0.0014	-0.0093	0.0046	15.9339	13.7237	21.4701	0.6118	0.2389	0.7259	-0.2040
5.8	-9.5021	-0.0618	-1.6528	0.0018	-0.0061	0.0082	15.8228	13.6399	21.7362	0.6118	0.2389	0.7259	-0.2040
5.81	-9.5023	-0.0612	-1.6670	-0.0045	-0.0100	0.0079	15.8250	13.6183	21.4417	0.6118	0.2389	0.7260	-0.2040
5.82	-9.5083	-0.0604	-1.6621	-0.0033	-0.0098	0.0091	15.7136	13.5533	21.2049	0.6118	0.2389	0.7260	-0.2040
5.83	-9.5034	-0.0735	-1.6556	0.0016	-0.0149	0.0136	15.6058	13.6577	21.1987	0.6118	0.2389	0.7260	-0.2040
5.84	-9.4981	-0.0818	-1.6536	-0.0005	-0.0112	0.0138	15.7954	13.5209	21.1954	0.6118	0.2389	0.7259	-0.2039
5.85	-9.5052	-0.0690	-1.6569	0.0016	-0.0114	0.0083	15.6482	13.5708	21.0703	0.6119	0.2390	0.7260	-0.2040
5.86	-9.5022	-0.0678	-1.6616	-0.0010	-0.0092	0.0084	15.7437	13.5976	21.3076	0.6118	0.2390	0.7259	-0.2039
5.87	-9.5039	-0.0580	-1.6547	0.0017	-0.0158	0.0104	15.9780	13.5144	21.4061	0.6119	0.2390	0.7259	-0.2039
5.88	-9.5076	-0.0601	-1.6602	-0.0035	-0.0142	0.0120	15.7040	13.5541	21.2559	0.6119	0.2390	0.7259	-0.2039
5.89	-9.4999	-0.0668	-1.6449	-0.0034	-0.0129	0.0106	15.7325	13.5270	21.0385	0.6119	0.2390	0.7259	-0.2039
5.9	-9.4991	-0.0684	-1.6436	0.0009	-0.0071	0.0097	15.7255	13.5472	21.2003	0.6119	0.2390	0.7259	-0.2039
5.91	-9.5087	-0.0813	-1.6380	0.0012	-0.0114	0.0055	15.6646	13.5276	21.1019	0.6118	0.2390	0.7258	-0.2039
5.92	-9.5009	-0.0873	-1.6422	0.0018	-0.0100	0.0072	15.7878	13.5486	21.0100	0.6119	0.2390	0.7259	-0.2039
5.93	-9.5052	-0.0883	-1.6363	0.0002	-0.0132	0.0100	15.6329	13.6690	21.1314	0.6119	0.2390	0.7259	-0.2039
5.94	-9.5004	-0.0797	-1.6484	0.0020	-0.0133	0.0058	15.5359	13.7316	21.0642	0.6119	0.2390	0.7259	-0.2039
5.95	-9.4925	-0.0762	-1.6526	-0.0041	-0.0025	0.0070	15.5194	13.5902	21.1982	0.6118	0.2390	0.7259	-0.2039
5.96	-9.5044	-0.0575	-1.6437	0.0014	-0.0069	0.0072	15.6203	13.5376	21.1815	0.6119	0.2390	0.7259	-0.2039
5.97	-9.5016	-0.0533	-1.6444	-0.0036	-0.0088	0.0079	15.4461	13.5058	21.3713	0.6119	0.2390	0.7259	-0.2038
5.98	-9.5021	-0.0557	-1.6502	0.0004	-0.0046	0.0057	15.7006	13.6281	21.2859	0.6118	0.2389	0.7259	-0.2038
5.99	-9.5051	-0.0483	-1.6547	0.0017	-0.0091	0.0063	15.6672	13.6839	21.1652	0.6119	0.2390	0.7260	-0.2039
6	-9.4924	-0.0521	-1.6495	0.0044	-0.0060	0.0013	15.4660	13.6366	21.1895	0.6118	0.2390	0.7260	-0.2039
6.01	-9.5016	-0.0440	-1.6495	0.0111	-0.0107	0.0050	15.6050	13.7141	21.1777	0.6118	0.2390	0.7260	-0.2039
6.02	-9.5092	-0.0587	-1.6453	-0.0012	-0.0090	0.0117	15.5986	13.7174	21.1775	0.6117	0.2390	0.7259	-0.2039
6.03	-9.5026	-0.0432	-1.6380	-0.0036	-0.0093	0.0063	15.7070	13.5440	21.3047	0.6118	0.2390	0.7260	-0.2039
6.04	-9.5032	-0.0519	-1.6441	-0.0003	-0.0058	0.0059	15.6485	13.4666	21.2338	0.6118	0.2390	0.7260	-0.2039
6.05	-9.5114	-0.0611	-1.6497	0.0003	-0.0080	0.0037	15.5106	13.5721	21.1016	0.6117	0.2390	0.7260	-0.2039
6.06	-9.4984	-0.0478	-1.6515	0.0053	-0.0074	0.0091	15.6272	13.4262	21.0008	0.6118	0.2390	0.7260	-0.2039
6.07	-9.4999	-0.0506	-1.6560	0.0047	-0.0053	0.0057	15.5869	13.7085	21.0224	0.6117	0.2390	0.7260	-0.2039
6.08	-9.5046	-0.0414	-1.6703	0.0008	-0.0118	0.0120	15.4758	13.4708	21.1880	0.6117	0.2390	0.7261	-0.2039
6.09	-9.5046	-0.0302	-1.6831	0.0046	-0.0127	0.0046	15.6418	13.4294	21.1824	0.6117	0.2390	0.7260	-0.2039
6.1	-9.4914	-0.0414	-1.6751	0.0040	-0.0026	0.0059	15.5508	13.5797	21.2001	0.6117	0.2390	0.7261	-0.2039
6.11	-9.4953	-0.0479	-1.6755	0.0015	-0.0136	0.0096	15.5762	13.6102	21.1417	0.6117	0.2390	0.7260	-0.2039
6.12	-9.5108	-0.0518	-1.6849	-0.0021	-0.0179	0.0056	15.5555	13.4200	21.0605	0.6117	0.2390	0.7260	-0.2039
6.13	-9.5003	-0.0483	-1.6800	-0.0039	-0.0131	0.0054	15.5085	13.5611	21.2980	0.6117	0.2390	0.7260	-0.2039
6.14	-9.4911	-0.0443	-1.6799	-0.0055	-0.0104	0.0041	15.6253	13.6117	21.3830	0.6117	0.2390	0.7260	-0.2039
6.15	-9.5076	-0.0443	-1.6800	-0.0038	-0.0118	0.0074	15.5976	13.4854	21.1212	0.6118	0.2389	0.7260	-0.2039
6.16	-9.5070	-0.0448	-1.6709	-0.0027	-0.0044	0.0073	15.5975	13.6470	21.0853	0.6117	0.2389	0.7260	-0.2038
6.17	-9.4991	-0.0448	-1.6598	-0.0015	-0.0151	0.0067	15.7164	13.4941	21.1967	0.6118	0.2389	0.7261	-0.2039
6.18	-9.5041	-0.0488	-1.6676	-0.0003	-0.0105	0.0079	15.7625	13.6099	21.2201	0.6117	0.2389	0.7260	-0.2038
6.19	-9.5105	-0.0469	-1.6724	-0.0057	0.0002	0.0051	15.5754	13.8090	21.3020	0.6118	0.2389	0.7261	-0.2038
6.2	-9.5077	-0.0539	-1.6674	0.0071	-0.0143	0.0100	15.6959	13.6962	21.1608	0.6117	0.2389	0.7260	-0.2038
6.21	-9.5058	-0.0616	-1.6629	0.0007	-0.0089	0.0048	15.6753	13.5805	21.3139	0.6117	0.2389	0.7261	-0.2038
6.22	-9.4989	-0.0560	-1.6678	0.0019	-0.0119	0.0052	15.6890	13.5164	21.2244	0.6117	0.2389	0.7261	-0.2039
6.23	-9.5017	-0.0658	-1.6663	0.0030	-0.0105	0.0090	15.6728	13.5660	21.1018	0.6117	0.2389	0.7260	-0.2038
6.24	-9.5138	-0.0687	-1.6668	0.0005	-0.0119	0.0071	15.7978	13.3273	21.0089	0.6118	0.2389	0.7261	-0.2039
6.25	-9.5075	-0.0669	-1.6681	-0.0041	-0.0162	0.0055	15.6074	13.5611	21.0236	0.6117	0.2389	0.7260	-0.2038
6.26	-9.5044	-0.0782	-1.6661	-0.0001	-0.0129	0.0084	15.6611	13.6420	21.2112	0.6118	0.2389	0.7261	-0.2039
6.27	-9.4931	-0.0846	-1.6494	-0.0029	-0.0160	0.0076	15.7035	13.6120	21.0748	0.6117	0.2389	0.7260	-0.2038
6.28	-9.5074	-0.0803	-1.6587	-0.0035	-0.0139	0.0073	15.5709	13.5132	21.1341	0.6118	0.2389	0.7260	-0.2038
6.29	-9.5006	-0.0805	-1.6464	-0.0004	-0.0122	0.0057	15.9667	13.7453	21.3645	0.6118	0.2388	0.7260	-0.2038
6.3	-9.5037	-0.0805	-1.6378	0.0000	-0.0190	0.0085	16.2732	13.8269	21.3767	0.6118	0.2388	0.7260	-0.2038
6.31	-9.5059	-0.0641	-1.6338	0.0019	-0.0125	0.0041	16.0606	13.7086	21.3041	0.6119	0.2388	0.7260	-0.2039
6.32	-9.5066	-0.0665	-1.6484	-0.0019	-0.0122	0.0041	15.6645	13.6825	21.4551	0.6118	0.2388	0.7260	-0.2039
6.33	-9.5031	-0.0652	-1.6436	-0.0048	-0.0126	0.0033	15.5759	13.6618	21.3999	0.6119	0.2388	0.7260	-0.2039
6.34	-9.4898	-0.0513	-1.6419	-0.0004	-0.0164	0.0091	15.5621	13.6045	21.1395	0.6118	0.2388	0.7259	-0.2038
6.35	-9.5047	-0.0583	-1.6451	-0.0016	-0.0100	0.0060	15.3209	13.6511	21.4861	0.6119	0.2388	0.7260	-0.2039
6.36	-9.5015	-0.0647	-1.6490	-0.0054	-0.0138	0.0020	15.4179	13.4051	21.3880	0.6119	0.2387	0.7260	-0.2038
6.37	-9.5004	-0.0674	-1.6602	-0.0040	-0.0172	0.0013	15.5346	13.6759	21.1957	0.6119	0.2387	0.7260	-0.2039
6.38	-9.4947	-0.0636	-1.6499	-0.0008	-0.0123	0.0049	15.5413	13.8028	21.2050	0.6119	0.2387	0.7260	-0.2038
6.39	-9.4992	-0.0490	-1.6481	-0.0051	-0.0156	0.0054	15.5387	13.5828	20.9780	0.6119	0.2386	0.7260	-0.2038
6.4	-9.4979	-0.0507	-1.6427	-0.0016	-0.0111	0.0067	15.5623	13.6103	21.2941	0.6120	0.2386	0.7260	-0.2038
6.41	-9.5018	-0.0527	-1.6476	0.0059	-0.0141	0.0046	15.7316	13.4423	21.2979	0.6119	0.2386	0.7259	-0.2039
6.42	-9.5090	-0.0473	-1.6658	-0.0030	-0.0138	0.0072	15.6476	13.3736	21.3268	0.6120	0.2386	0.7260	-0.2039
6.43	-9.4939	-0.0507	-1.6511	0.0026	-0.0162	0.0017	15.8081	13.4005	21.1114	0.6120	0.2386	0.7259	-0.2039
6.44	-9.4914	-0.0546	-1.6571	-0.0011	-0.0089	0.0055	15.8353	13.5594	21.2719	0.6120	0.2386	0.7260	-0.2039
6.45	-9.4990	-0.0515	-1.6406	-0.0003	-0.0069	0.0091	15.5941	13.5423	21.3208	0.6119	0.2386	0.7259	-0.2039
6.46	-9.5194	-0.0514	-1.6518	0.0048	-0.0105	0.0061	15.7081	13.3269	21.1829	0.6120	0.2386	0.7260	-0.2039
6.47	-9.5135	-0.0568	-1.6527	0.0006	-0.0102	0.0077	15.5868	13.4444	21.0552	0.6120	0.2386	0.7260	-0.2039
6.48	-9.4984	-0.0616	-1.6610	0.0005	-0.0147	0.0117	15.6484	13.5119	21.0902	0.6119	0.2386	0.7259	-0.2039
6.49	-9.5006	-0.0605	-1.6696	-0.0031	-0.0073	0.0136	15.5086	13.7727	21.2492	0.6120	0.2386	0.7260	-0.2039
6.5	-9.4993	-0.0601	-1.6728	0.0020	-0.0089	0.0071	15.6839	13.6124	21.2995	0.6120	0.2386	0.7259	-0.2038
6.51	-9.4954	-0.0638	-1.6785	-0.0005	-0.0051	0.0044	15.4822	13.5465	21.0877	0.6120	0.2386	0.7260	-0.2039
6.52	-9.4948	-0.0768	-1.6705	0.0037	-0.0054	0.0046	15.4346	13.8275	21.2964	0.6119	0.2386	0.7259	-0.2038
6.53	-9.5067	-0.0727	-1.6801	0.0036	-0.0072	0.0079	15.5709	13.6625	21.4035	0.6119	0.2386	0.7260	-0.2039
6.54	-9.5002	-0.0607	-1.6710	0.0067	-0.0067	0.0056	15.6450	13.7539	21.1982	0.6119	0.2386	0.7260	-0.2039
6.55	-9.5040	-0.0622	-1.6628	0.0010	-0.0020	0.0071	15.5381	13.5937	21.2642	0.6118	0.2386	0.7260	-0.2039
6.56	-9.5030	-0.0475	-1.6798	0.0015	-0.0035	0.0080	15.5273	13.8286	21.5069	0.6118	0.2387	0.7261	-0.2039
6.57	-9.5033	-0.0535	-1.6681	0.0005	-0.0056	0.0138	15.5291	13.8600	21.4218	0.6118	0.2387	0.7261	-0.2038
6.58	-9.5019	-0.0460	-1.6697	-0.0017	-0.0083	0.0083	15.7582	13.5358	21.1383	0.6118	0.2387	0.7261	-0.2038
6.59	-9.5127	-0.0440	-1.6596	0.0044	-0.0131	0.0091	15.7934	13.5627	21.1166	0.6118	0.2387	0.7260	-0.2038
6.6	-9.5014	-0.0469	-1.6720	0.0036	-0.0040	0.0142	15.7726	13.5219	21.2427	0.6118	0.2388	0.7261	-0.2038
6.61	-9.5063	-0.0453	-1.6667	-0.0015	-0.0126	0.0070	15.7789	13.4531	21.2021	0.6118	0.2387	0.7261	-0.2038
6.62	-9.5053	-0.0553	-1.6701	-0.0011	-0.0113	0.0083	15.7971	13.4637	21.2450	0.6118	0.2387	0.7261	-0.2038
6.63	-9.5114	-0.0553	-1.6755	0.0021	-0.0103	0.0059	15.6059	13.4719	21.0945	0.6118	0.2387	0.7261	-0.2038
6.64	-9.5019	-0.0578	-1.6639	-0.0004	-0.0138	0.0064	15.6221	13.5480	21.2952	0.6118	0.2387	0.7261	-0.2038
6.65	-9.5033	-0.0510	-1.6629	-0.0015	-0.0089	0.0085	15.6070	13.3834	21.2329	0.6118	0.2387	0.7261	-0.2038
6.66	-9.5023	-0.0556	-1.6551	-0.0005	-0.0125	0.0138	15.6994	13.3629	20.9132	0.6118	0.2387	0.7260	-0.2038
6.67	-9.5066	-0.0557	-1.6557	0.0020	-0.0163	0.0120	15.7197	13.5054	21.0831	0.6119	0.2388	0.7261	-0.2038
6.68	-9.5032	-0.0527	-1.6511	-0.0007	-0.0138	0.0061	15.5287	13.5394	21.2944	0.6118	0.2387	0.7260	-0.2038
6.69	-9.5060	-0.0646	-1.6490	-0.0016	-0.0069	0.0039	15.6032	13.8453	21.2786	0.6119	0.2387	0.7261	-0.2038
6.7	-9.5101	-0.0637	-1.6424	-0.0007	-0.0129	0.0053	15.6150	13.8971	21.3944	0.6118	0.2387	0.7260	-0.2038
6.71	-9.5042	-0.0676	-1.6432	0.0022	-0.0071	0.0037	15.5170	13.6350	21.2396	0.6118	0.2387	0.7261	-0.2038
6.72	-9.5095	-0.0643	-1.6503	-0.0027	-0.0105	0.0072	15.5405	13.7954	21.2225	0.6118	0.2387	0.7261	-0.2038
6.73	-9.5049	-0.0724	-1.6492	-0.0039	-0.0066	0.0039	15.5421	13.7232	21.4078	0.6118	0.2387	0.7260	-0.2038
6.74	-9.4955	-0.0685	-1.6497	-0.0012	-0.0114	0.0061	15.4257	13.6789	21.3584	0.6119	0.2387	0.7261	-0.2038
6.75	-9.4988	-0.0713	-1.6482	0.0015	-0.0106	0.0059	15.5016	13.7510	21.2762	0.6118	0.2386	0.7261	-0.2038
6.76	-9.5129	-0.0815	-1.6418	0.0023	-0.0123	0.0143	15.5372	13.5783	21.3044	0.6119	0.2387	0.7261	-0.2038
6.77	-9.5048	-0.0818	-1.6505	0.0009	-0.0085	0.0091	15.6109	13.4498	21.3012	0.6118	0.2387	0.7260	-0.2038
6.78	-9.5005	-0.0828	-1.6399	0.0008	-0.0108	0.0100	15.7164	13.5525	21.2980	0.6118	0.2387	0.7261	-0.2038
6.79	-9.5120	-0.0824	-1.6551	0.0001	-0.0073	0.0057	15.8705	13.5907	21.3278	0.6118	0.2387	0.7261	-0.2038
6.8	-9.5032	-0.0677	-1.6516	0.0040	-0.0064	0.0087	16.2542	13.6536	21.5187	0.6118	0.2387	0.7261	-0.2038
6.81	-9.4956	-0.0658	-1.6586	0.0026	-0.0070	0.0071	15.8464	13.6813	21.2973	0.6118	0.2387	0.7261	-0.2038
6.82	-9.5009	-0.0629	-1.6781	-0.0006	-0.0047	0.0077	15.7690	13.5907	21.1597	0.6117	0.2387	0.7261	-0.2038
6.83	-9.4998	-0.0543	-1.6713	0.0009	-0.0087	0.0072	15.6403	13.4366	21.0790	0.6118	0.2387	0.7262	-0.2038
6.84	-9.4928	-0.0570	-1.6767	0.0030	-0.0084	0.0077	15.5171	13.5533	21.0205	0.6117	0.2387	0.7261	-0.2037
6.85	-9.5052	-0.0604	-1.6769	0.0030	-0.0127	0.0130	15.6148	13.5208	20.9523	0.6118	0.2388	0.7261	-0.2038
6.86	-9.5118	-0.0759	-1.6785	-0.0010	-0.0118	0.0109	15.6627	13.7206	21.0975	0.6117	0.2388	0.7261	-0.2037
6.87	-9.5092	-0.0719	-1.6949	-0.0056	-0.0071	0.0074	15.6318	13.6111	21.1494	0.6118	0.2388	0.7261	-0.2037
6.88	-9.5009	-0.0722	-1.6746	0.0060	-0.0111	0.0056	15.5981	13.7222	21.0866	0.6117	0.2387	0.7261	-0.2037
6.89	-9.5047	-0.0634	-1.6781	-0.0032	-0.0209	0.0054	15.8171	13.7781	21.1893	0.6118	0.2387	0.7261	-0.2037
6.9	-9.4998	-0.0650	-1.6782	0.0025	-0.0113	0.0092	15.5377	13.4897	21.3547	0.6118	0.2387	0.7261	-0.2038
6.91	-9.5041	-0.0586	-1.6663	-0.0010	-0.0147	0.0027	15.4921	13.6267	21.1948	0.6117	0.2387	0.7260	-0.2037
6.92	-9.5011	-0.0474	-1.6639	-0.0017	-0.0104	0.0068	15.7536	13.7134	21.2111	0.6118	0.2387	0.7261	-0.2038
6.93	-9.5068	-0.0554	-1.6635	-0.0015	-0.0185	0.0072	15.7186	13.5593	21.2314	0.6118	0.2387	0.7261	-0.2038
6.94	-9.5102	-0.0604	-1.6665	-0.0012	-0.0166	0.0066	15.4548	13.5239	21.1511	0.6119	0.2387	0.7261	-0.2038
6.95	-9.5044	-0.0625	-1.6615	0.0041	-0.0135	0.0099	15.4153	13.5380	21.0214	0.6118	0.2387	0.7260	-0.2038
6.96	-9.5072	-0.0542	-1.6628	0.0026	-0.0147	0.0088	15.7281	13.6415	21.1485	0.6119	0.2387	0.7260	-0.2038
6.97	-9.5047	-0.0569	-1.6610	0.0011	-0.0144	0.0119	15.7161	13.6097	20.9520	0.6119	0.2387	0.7260	-0.2038
6.98	-9.4954	-0.0600	-1.6658	-0.0004	-0.0132	0.0092	15.7505	13.6409	21.2624	0.6119	0.2387	0.7260	-0.2038
6.99	-9.5028	-0.0549	-1.6760	0.0035	-0.0135	0.0061	15.7672	13.5129	20.9684	0.6120	0.2387	0.7261	-0.2038
7	-9.4973	-0.0485	-1.6671	0.0022	-0.0071	0.0119	15.5564	13.4418	21.1664	0.6119	0.2387	0.7260	-0.2038
7.01	-9.4957	-0.0568	-1.6621	0.0043	-0.0124	0.0067	15.6283	13.4512	21.3761	0.6119	0.2387	0.7260	-0.2038
7.02	-9.5001	-0.0587	-1.6579	-0.0007	-0.0118	0.0079	15.5900	13.5253	21.1822	0.6119	0.2387	0.7259	-0.2038
7.03	-9.5045	-0.0604	-1.6643	-0.0039	-0.0100	0.0083	15.6173	13.6623	21.1128	0.6119	0.2387	0.7260	-0.2038
7.04	-9.5007	-0.0557	-1.6443	0.0027	-0.0129	0.0094	15.6016	13.5497	21.1544	0.6119	0.2387	0.7260	-0.2038
7.05	-9.5061	-0.0590	-1.6425	-0.0057	-0.0140	0.0072	15.6049	13.5805	21.3218	0.6119	0.2387	0.7260	-0.2038
7.06	-9.5067	-0.0505	-1.6545	0.0025	-0.0063	0.0021	15.6040	13.7458	21.1891	0.6119	0.2387	0.7260	-0.2038
7.07	-9.4967	-0.0436	-1.6428	-0.0024	-0.0071	0.0089	15.6042	13.6473	21.2265	0.6119	0.2387	0.7260	-0.2038
7.08	-9.5036	-0.0568	-1.6529	-0.0069	-0.0084	0.0081	15.6081	13.6192	21.1629	0.6119	0.2387	0.7260	-0.2037
7.09	-9.5050	-0.0495	-1.6654	0.0007	-0.0026	0.0028	15.6052	13.6150	21.0770	0.6118	0.2386	0.7260	-0.2037
7.1	-9.5041	-0.0518	-1.6765	0.0000	-0.0056	0.0080	15.6082	13.4406	21.3002	0.6119	0.2387	0.7261	-0.2037
7.11	-9.5020	-0.0598	-1.6603	-0.0071	-0.0091	0.0059	15.5925	13.5823	21.3816	0.6118	0.2386	0.7261	-0.2037
7.12	-9.4992	-0.0608	-1.6666	-0.0032	-0.0065	0.0095	15.6224	13.7147	21.2068	0.6119	0.2386	0.7261	-0.2037
7.13	-9.5035	-0.0720	-1.6682	-0.0008	-0.0081	0.0057	15.5133	13.6717	21.1128	0.6118	0.2386	0.7261	-0.2037
7.14	-9.5036	-0.0768	-1.6629	0.0012	-0.0108	0.0122	15.3186	13.6426	21.0100	0.6118	0.2386	0.7261	-0.2037
7.15	-9.5070	-0.0677	-1.6580	0.0027	-0.0109	0.0101	15.6259	13.4930	21.2438	0.6118	0.2387	0.7261	-0.2037
7.16	-9.5082	-0.0710	-1.6495	0.0047	-0.0125	0.0057	15.8019	13.4625	21.1234	0.6118	0.2387	0.7260	-0.2037
7.17	-9.5065	-0.0661	-1.6434	0.0023	-0.0142	0.0066	15.6450	13.4113	21.1433	0.6119	0.2387	0.7261	-0.2037
7.18	-9.5023	-0.0670	-1.6601	0.0001	-0.0125	0.0072	15.7576	13.3127	20.9604	0.6118	0.2387	0.7261	-0.2037
7.19	-9.5086	-0.0636	-1.6655	-0.0000	-0.0145	0.0063	15.7338	13.5823	21.0228	0.6119	0.2387	0.7261	-0.2037
7.2	-9.5093	-0.0633	-1.6682	-0.0050	-0.0109	0.0064	15.5803	13.5169	21.0459	0.6118	0.2386	0.7260	-0.2037
7.21	-9.5024	-0.0614	-1.6661	-0.0013	-0.0121	0.0071	15.6362	13.6502	21.0410	0.6119	0.2386	0.7261	-0.2037
7.22	-9.5022	-0.0725	-1.6622	-0.0046	-0.0081	0.0082	15.7226	13.6091	21.2031	0.6119	0.2386	0.7261	-0.2037
7.23	-9.5061	-0.0774	-1.6687	-0.0020	-0.0109	0.0094	15.5862	13.6269	21.2306	0.6118	0.2386	0.7260	-0.2036
7.24	-9.5100	-0.0750	-1.6584	0.0024	-0.0066	0.0075	15.7178	13.5323	21.0957	0.6119	0.2386	0.7262	-0.2037
7.25	-9.5060	-0.0597	-1.6768	-0.0104	-0.0065	0.0044	15.6494	13.6590	21.0401	0.6118	0.2386	0.7261	-0.2036
7.26	-9.5081	-0.0552	-1.6625	0.0001	-0.0117	0.0093	15.5891	13.5558	21.2228	0.6119	0.2386	0.7262	-0.2036
7.27	-9.4998	-0.0444	-1.6652	0.0023	-0.0130	0.0036	15.6136	13.5041	21.2158	0.6118	0.2386	0.7261	-0.2036
7.28	-9.4877	-0.0421	-1.6747	-0.0000	-0.0104	0.0082	15.6022	13.6957	21.0931	0.6119	0.2386	0.7261	-0.2036
7.29	-9.4973	-0.0458	-1.6596	0.0019	-0.0097	0.0045	15.9314	13.7964	21.3443	0.6119	0.2386	0.7261	-0.2036
7.3	-9.5173	-0.0486	-1.6702	0.0043	-0.0055	0.0033	16.1025	13.5936	21.4314	0.6118	0.2386	0.7261	-0.2037
7.31	-9.5026	-0.0539	-1.6694	0.0021	-0.0067	0.0053	15.9915	13.7053	21.2265	0.6118	0.2386	0.7262	-0.2037
7.32	-9.5072	-0.0594	-1.6611	0.0005	-0.0143	0.0094	15.8176	13.7892	21.0548	0.6118	0.2386	0.7261	-0.2037
7.33	-9.5110	-0.0599	-1.6569	-0.0026	-0.0113	0.0098	15.5190	13.6197	21.0652	0.6119	0.2386	0.7262	-0.2037
7.34	-9.5076	-0.0526	-1.6693	0.0012	-0.0166	0.0083	15.8004	13.3244	21.3324	0.6118	0.2385	0.7261	-0.2036
7.35	-9.5043	-0.0507	-1.6559	0.0031	-0.0086	0.0111	15.7359	13.4099	21.0759	0.6119	0.2386	0.7261	-0.2037
7.36	-9.5052	-0.0543	-1.6658	0.0000	-0.0074	0.0123	15.7076	13.4333	21.1664	0.6118	0.2386	0.7261	-0.2036
7.37	-9.5084	-0.0565	-1.6713	0.0027	-0.0131	0.0106	15.8163	13.5345	21.0222	0.6119	0.2386	0.7261	-0.2036
7.38	-9.4979	-0.0628	-1.6470	0.0028	-0.0070	0.0091	15.6534	13.5094	21.1422	0.6118	0.2386	0.7261	-0.2036
7.39	-9.4975	-0.0738	-1.6433	0.0030	-0.0047	0.0061	15.7306	13.4734	20.9712	0.6118	0.2386	0.7261	-0.2036
7.4	-9.5123	-0.0732	-1.6443	0.0086	-0.0088	0.0086	15.7948	13.6994	21.1675	0.6118	0.2387	0.7261	-0.2037
7.41	-9.5080	-0.0684	-1.6454	0.0038	-0.0060	0.0075	15.6840	13.4163	21.2302	0.6117	0.2387	0.7261	-0.2037
7.42	-9.4991	-0.0736	-1.6599	0.0015	-0.0137	0.0112	15.6870	13.5527	21.1063	0.6118	0.2387	0.7262	-0.2037
7.43	-9.4910	-0.0774	-1.6745	-0.0003	-0.0084	0.0111	15.5581	13.8010	21.2430	0.6118	0.2387	0.7261	-0.2037
7.44	-9.4997	-0.0721	-1.6753	-0.0005	-0.0059	0.0123	15.7040	13.6563	21.1586	0.6118	0.2387	0.7262	-0.2037
7.45	-9.4853	-0.0720	-1.6710	0.0005	-0.0042	0.0032	15.5850	13.4887	21.4168	0.6117	0.2387	0.7261	-0.2036
7.46	-9.4941	-0.0785	-1.6698	-0.0002	-0.0049	0.0085	15.6266	13.8879	21.2265	0.6117	0.2387	0.7262	-0.2036
7.47	-9.4999	-0.0788	-1.6634	0.0020	-0.0072	0.0067	15.5462	13.6176	21.1981	0.6117	0.2387	0.7262	-0.2036
7.48	-9.4920	-0.0773	-1.6580	-0.0027	-0.0063	0.0034	15.5307	13.6742	21.1917	0.6116	0.2387	0.7262	-0.2036
7.49	-9.4963	-0.0652	-1.6466	0.0011	-0.0072	0.0045	15.4187	13.7020	21.3037	0.6117	0.2387	0.7263	-0.2037
7.5	-9.5032	-0.0664	-1.6463	0.0056	-0.0053	0.0048	15.3491	13.5410	21.5507	0.6116	0.2387	0.7262	-0.2037
7.51	-9.5052	-0.0636	-1.6375	-0.0012	-0.0083	0.0116	15.3632	13.5035	21.2771	0.6117	0.2387	0.7263	-0.2037
7.52	-9.4992	-0.0539	-1.6350	0.0033	-0.0097	0.0118	15.8234	13.6309	20.9838	0.6116	0.2387	0.7262	-0.2036
7.53	-9.5070	-0.0573	-1.6330	0.0111	-0.0120	0.0073	15.8082	13.3914	21.1941	0.6116	0.2388	0.7263	-0.2037
7.54	-9.5091	-0.0495	-1.6359	0.0021	-0.0064	0.0075	15.6617	13.5259	21.1924	0.6116	0.2388	0.7262	-0.2037
7.55	-9.4960	-0.0467	-1.6309	0.0051	-0.0055	0.0072	15.6297	13.4643	21.2979	0.6116	0.2388	0.7262	-0.2037
7.56	-9.4988	-0.0424	-1.6346	0.0009	-0.0117	0.0076	15.5965	13.4294	21.2040	0.6116	0.2388	0.7263	-0.2037
7.57	-9.5074	-0.0411	-1.6492	0.0049	-0.0140	0.0070	15.7241	13.4629	21.0856	0.6116	0.2388	0.7262	-0.2037
7.58	-9.5039	-0.0535	-1.6357	-0.0011	-0.0051	0.0052	15.6703	13.4245	21.1861	0.6116	0.2388	0.7263	-0.2037
7.59	-9.5040	-0.0511	-1.6408	0.0019	-0.0116	0.0084	15.6955	13.5374	21.3001	0.6115	0.2388	0.7262	-0.2037
7.6	-9.5066	-0.0572	-1.6490	0.0056	-0.0035	0.0049	15.6766	13.5192	21.2995	0.6116	0.2388	0.7263	-0.2037
7.61	-9.5042	-0.0477	-1.6561	0.0006	-0.0123	0.0103	15.5482	13.5587	21.1188	0.6115	0.2388	0.7263	-0.2037
7.62	-9.5048	-0.0488	-1.6652	0.0014	-0.0090	0.0087	15.5187	13.6542	21.1750	0.6115	0.2388	0.7263	-0.2037
7.63	-9.5053	-0.0465	-1.6701	0.0045	-0.0057	0.0069	15.5277	13.4759	21.2338	0.6115	0.2388	0.7263	-0.2037
7.64	-9.5128	-0.0423	-1.6806	0.0040	-0.0073	0.0038	15.6396	13.6010	21.1669	0.6115	0.2388	0.7263	-0.2038
7.65	-9.5074	-0.0445	-1.6739	0.0069	-0.0061	0.0069	15.5694	13.7257	21.0861	0.6115	0.2389	0.7263	-0.2038
7.66	-9.5017	-0.0495	-1.6814	0.0028	-0.0012	0.0064	15.7260	13.6730	21.2064	0.6114	0.2389	0.7263	-0.2038
7.67	-9.5057	-0.0535	-1.6904	-0.0011	-0.0072	0.0070	15.4488	13.7987	21.1034	0.6114	0.2389	0.7264	-0.2038
7.68	-9.5035	-0.0465	-1.6951	-0.0047	-0.0058	0.0051	15.3803	13.6094	21.3984	0.6114	0.2389	0.7264	-0.2038
7.69	-9.5034	-0.0550	-1.7006	-0.0025	-0.0058	0.0055	15.4333	13.6161	21.3023	0.6114	0.2389	0.7265	-0.2038
7.7	-9.5113	-0.0705	-1.6977	-0.0004	-0.0101	0.0107	15.2221	13.5149	21.2788	0.6113	0.2388	0.7264	-0.2037
7.71	-9.5054	-0.0688	-1.6987	-0.0018	-0.0139	0.0122	15.5691	13.5209	21.1828	0.6114	0.2389	0.7264	-0.2037
7.72	-9.4994	-0.0606	-1.6979	0.0020	-0.0110	0.0083	15.7606	13.3672	21.2414	0.6114	0.2389	0.7264	-0.2037
7.73	-9.4929	-0.0544	-1.6906	-0.0007	-0.0089	0.0075	15.7876	13.4184	21.1240	0.6114	0.2388	0.7264	-0.2037
7.74	-9.5069	-0.0473	-1.6865	-0.0011	-0.0114	0.0090	15.7405	13.5795	21.1256	0.6114	0.2389	0.7265	-0.2037
7.75	-9.5006	-0.0456	-1.6916	-0.0031	-0.0122	0.0082	15.5833	13.4579	21.1093	0.6114	0.2388	0.7264	-0.2037
7.76	-9.4966	-0.0461	-1.6905	-0.0079	-0.0186	0.0106	15.8058	13.5036	21.1764	0.6115	0.2388	0.7264	-0.2037
7.77	-9.5095	-0.0612	-1.6922	-0.0011	-0.0103	0.0061	15.6629	13.5479	21.3132	0.6114	0.2388	0.7263	-0.2036
7.78	-9.5040	-0.0666	-1.6846	-0.0000	-0.0096	0.0102	15.7022	13.4107	21.2865	0.6115	0.2388	0.7264	-0.2037
7.79	-9.4902	-0.0840	-1.6729	0.0037	-0.0084	0.0061	15.8184	13.4939	21.3288	0.6114	0.2388	0.7264	-0.2037
7.8	-9.5007	-0.0835	-1.6652	-0.0011	-0.0059	0.0091	15.8751	13.6128	21.4992	0.6114	0.2388	0.7264	-0.2036
7.81	-9.5019	-0.0743	-1.6550	0.0010	-0.0100	0.0030	15.6329	13.6774	21.3321	0.6114	0.2388	0.7264	-0.2037
7.82	-9.5023	-0.0765	-1.6450	0.0001	-0.0121	0.0083	15.5381	13.7207	21.2288	0.6114	0.2388	0.7264	-0.2037
7.83	-9.5001	-0.0789	-1.6448	-0.0001	-0.0048	0.0046	15.4169	13.5566	21.2324	0.6114	0.2388	0.7265	-0.2037
7.84	-9.5038	-0.0812	-1.6380	-0.0096	-0.0100	0.0088	15.5243	13.6351	21.2181	0.6113	0.2388	0.7264	-0.2036
7.85	-9.5080	-0.0703	-1.6327	-0.0066	-0.0120	0.0023	15.6370	13.7199	21.0936	0.6114	0.2387	0.7265	-0.2036
7.86	-9.5004	-0.0690	-1.6358	-0.0037	-0.0101	0.0088	15.5990	13.6022	21.1828	0.6114	0.2387	0.7265	-0.2036
7.87	-9.4996	-0.0679	-1.6316	-0.0042	-0.0060	0.0049	15.6177	13.6589	21.2297	0.6114	0.2387	0.7265	-0.2036
7.88	-9.5081	-0.0587	-1.6270	0.0022	-0.0124	0.0032	15.6048	13.5372	21.2100	0.6114	0.2387	0.7265	-0.2036
7.89	-9.5044	-0.0636	-1.6305	0.0066	-0.0097	0.0072	15.6167	13.5540	21.2210	0.6114	0.2387	0.7265	-0.2036
7.9	-9.5036	-0.0577	-1.6426	0.0100	-0.0064	0.0103	15.5991	13.5563	21.2174	0.6114	0.2388	0.7265	-0.2037
7.91	-9.5082	-0.0587	-1.6341	0.0043	-0.0116	0.0141	15.6747	13.5405	21.2142	0.6113	0.2388	0.7264	-0.2036
7.92	-9.4978	-0.0456	-1.6414	-0.0069	-0.0109	0.0049	15.8052	13.5814	21.2310	0.6114	0.2388	0.7265	-0.2036
7.93	-9.4935	-0.0420	-1.6426	0.0032	-0.0056	0.0098	15.8637	13.4975	21.3439	0.6113	0.2388	0.7265	-0.2036
7.94	-9.5070	-0.0410	-1.6537	0.0076	-0.0053	0.0083	15.8157	13.5231	21.0149	0.6114	0.2388	0.7266	-0.2037
7.95	-9.5106	-0.0452	-1.6576	0.0006	-0.0071	0.0122	15.6564	13.5771	21.2392	0.6113	0.2388	0.7265	-0.2036
7.96	-9.5027	-0.0488	-1.6421	0.0039	-0.0166	0.0099	15.5215	13.5258	21.3075	0.6113	0.2388	0.7265	-0.2036
7.97	-9.5076	-0.0493	-1.6591	-0.0022	-0.0162	0.0095	15.6575	13.4109	21.1656	0.6113	0.2388	0.7265	-0.2036
7.98	-9.5066	-0.0519	-1.6626	0.0059	-0.0103	0.0147	15.5166	13.3587	21.3320	0.6113	0.2389	0.7264	-0.2036
7.99	-9.5022	-0.0496	-1.6627	0.0020	-0.0108	0.0066	15.6153	13.5004	21.2822	0.6114	0.2389	0.7265	-0.2037
8	-9.5047	-0.0453	-1.6759	-0.0071	-0.0105	0.0051	15.5026	13.6986	21.3447	0.6113	0.2388	0.7265	-0.2036
8.01	-9.5087	-0.0418	-1.6850	0.0021	-0.0071	0.0013	15.7429	13.7355	21.1616	0.6113	0.2388	0.7265	-0.2037
8.02	-9.4964	-0.0488	-1.6713	-0.0003	-0.0173	0.0055	15.5045	13.6348	21.1014	0.6113	0.2388	0.7264	-0.2036
8.03	-9.5036	-0.0465	-1.6786	-0.0007	-0.0104	0.0081	15.4585	13.5117	21.2536	0.6113	0.2388	0.7265	-0.2037
8.04	-9.5077	-0.0453	-1.6951	-0.0020	-0.0085	0.0026	15.5590	13.6101	21.1738	0.6113	0.2388	0.7265	-0.2037
8.05	-9.4889	-0.0438	-1.6783	0.0065	-0.0088	0.0048	15.5134	13.6415	21.0187	0.6113	0.2388	0.7265	-0.2037
8.06	-9.4904	-0.0443	-1.6880	0.0041	-0.0050	0.0057	15.6281	13.6350	21.1518	0.6113	0.2388	0.7265	-0.2037
8.07	-9.5100	-0.0591	-1.6863	-0.0027	-0.0144	0.0120	15.7270	13.5071	21.2334	0.6113	0.2388	0.7265	-0.2037
8.08	-9.5029	-0.0646	-1.6813	0.0018	-0.0129	0.0092	15.6115	13.6455	21.2248	0.6113	0.2388	0.7265	-0.2037
8.09	-9.4903	-0.0766	-1.6832	-0.0004	-0.0132	0.0062	15.6797	13.5432	21.1298	0.6113	0.2388	0.7264	-0.2037
8.1	-9.4994	-0.0829	-1.6810	0.0009	-0.0089	0.0145	15.8017	13.5803	21.1366	0.6113	0.2388	0.7265	-0.2037
8.11	-9.5036	-0.0818	-1.6799	-0.0002	-0.0159	0.0109	15.8911	13.6376	21.2752	0.6113	0.2388	0.7265	-0.2037
8.12	-9.5026	-0.0779	-1.6796	0.0019	-0.0178	0.0073	15.7234	13.4542	21.1139	0.6114	0.2388	0.7265	-0.2037
8.13	-9.4986	-0.0703	-1.6643	0.0009	-0.0140	0.0073	15.5864	13.4729	21.2400	0.6113	0.2388	0.7264	-0.2037
8.14	-9.5055	-0.0638	-1.6643	0.0011	-0.0142	0.0066	15.6250	13.5892	21.3135	0.6114	0.2388	0.7264	-0.2037
8.15	-9.5050	-0.0607	-1.6571	0.0017	-0.0151	0.0065	15.7652	13.4804	21.3239	0.6114	0.2388	0.7264	-0.2037
8.16	-9.4958	-0.0579	-1.6539	0.0071	-0.0134	0.0107	15.7643	13.5294	21.2143	0.6113	0.2388	0.7263	-0.2037
8.17	-9.5023	-0.0607	-1.6545	-0.0028	-0.0140	0.0124	15.7875	13.6778	21.3283	0.6114	0.2389	0.7264	-0.2037
8.18	-9.5006	-0.0636	-1.6515	-0.0011	-0.0152	0.0014	15.5792	13.7241	21.2698	0.6114	0.2388	0.7264	-0.2037
8.19	-9.5039	-0.0537	-1.6455	0.0000	-0.0123	0.0034	15.5145	13.4634	21.3991	0.6115	0.2388	0.7264	-0.2038
8.2	-9.5015	-0.0506	-1.6436	-0.0011	-0.0139	0.0059	15.5182	13.5421	21.2933	0.6114	0.2388	0.7263	-0.2037
8.21	-9.5006	-0.0499	-1.6500	0.0019	-0.0072	0.0041	15.5647	13.6754	21.3208	0.6114	0.2388	0.7264	-0.2038
8.22	-9.4957	-0.0449	-1.6551	0.0016	-0.0074	0.0108	15.7515	13.7468	21.2241	0.6114	0.2388	0.7264	-0.2038
8.23	-9.5000	-0.0447	-1.6540	-0.0028	-0.0075	0.0039	15.5953	13.6343	20.9765	0.6114	0.2388	0.7264	-0.2037
8.24	-9.5011	-0.0423	-1.6779	0.0021	-0.0070	0.0054	15.6197	13.6329	21.2905	0.6114	0.2388	0.7265	-0.2038
8.25	-9.5022	-0.0448	-1.6690	0.0048	-0.0078	0.0035	15.7236	13.6377	21.4045	0.6113	0.2388	0.7264	-0.2038
8.26	-9.5078	-0.0642	-1.6500	0.0009	-0.0133	0.0133	15.6092	13.6344	21.1857	0.6114	0.2388	0.7265	-0.2038
8.27	-9.5071	-0.0677	-1.6567	-0.0022	-0.0113	0.0084	15.6793	13.6386	21.3190	0.6113	0.2388	0.7264	-0.2038
8.28	-9.5061	-0.0672	-1.6613	-0.0008	-0.0094	0.0081	15.8002	13.5308	21.2931	0.6114	0.2388	0.7265	-0.2038
8.29	-9.4897	-0.0751	-1.6576	-0.0015	-0.0172	0.0050	16.0549	13.5865	21.3576	0.6114	0.2388	0.7264	-0.2038
8.3	-9.5018	-0.0718	-1.6637	-0.0032	-0.0115	0.0001	16.1036	13.4886	21.4452	0.6114	0.2387	0.7264	-0.2038
8.31	-9.5045	-0.0626	-1.6619	-0.0050	-0.0076	0.0073	16.0422	13.4128	21.2392	0.6114	0.2387	0.7265	-0.2038
8.32	-9.4937	-0.0666	-1.6686	-0.0002	-0.0097	0.0101	15.8798	13.5408	21.1447	0.6114	0.2387	0.7264	-0.2038
8.33	-9.4995	-0.0682	-1.6678	-0.0031	-0.0134	0.0140	15.8050	13.3822	21.1415	0.6114	0.2387	0.7265	-0.2037
8.34	-9.4985	-0.0626	-1.6654	-0.0054	-0.0075	0.0041	15.7734	13.4663	21.1260	0.6113	0.2387	0.7264	-0.2037
8.35	-9.5049	-0.0551	-1.6782	-0.0016	-0.0133	0.0078	15.6456	13.5482	20.9931	0.6114	0.2387	0.7265	-0.2037
8.36	-9.5030	-0.0589	-1.6694	0.0003	-0.0111	0.0093	15.5612	13.4116	21.0879	0.6114	0.2387	0.7264	-0.2037
8.37	-9.5041	-0.0595	-1.6769	-0.0020	-0.0096	0.0033	15.4297	13.5382	21.1132	0.6114	0.2387	0.7265	-0.2037
8.38	-9.5071	-0.0590	-1.6652	-0.0006	-0.0035	-0.0066	15.4364	13.5397	21.1977	0.6113	0.2386	0.7265	-0.2037
8.39	-9.4949	-0.0658	-1.6663	0.0003	-0.0075	0.0060	15.4166	13.5305	21.3238	0.6113	0.2386	0.7265	-0.2037
8.4	-9.4991	-0.0547	-1.6564	-0.0047	-0.0041	0.0044	15.4690	13.7369	21.2217	0.6113	0.2386	0.7266	-0.2037
8.41	-9.4976	-0.0524	-1.6588	-0.0089	-0.0060	0.0013	15.6063	13.5355	21.1187	0.6112	0.2385	0.7265	-0.2037
8.42	-9.5051	-0.0526	-1.6528	0.0004	-0.0079	0.0073	15.5905	13.5485	20.9994	0.6113	0.2385	0.7266	-0.2037
8.43	-9.4938	-0.0555	-1.6445	-0.0007	-0.0060	0.0023	15.6071	13.6597	21.0617	0.6113	0.2385	0.7266	-0.2037
8.44	-9.5020	-0.0580	-1.6420	-0.0001	-0.0092	0.0030	15.5462	13.8098	21.1764	0.6113	0.2385	0.7267	-0.2037
8.45	-9.5081	-0.0603	-1.6590	-0.0007	-0.0084	0.0072	15.3923	13.6071	21.2936	0.6112	0.2385	0.7266	-0.2037
8.46	-9.4972	-0.0720	-1.6534	0.0005	-0.0142	0.0120	15.5820	13.4116	21.3990	0.6113	0.2385	0.7266	-0.2037
8.47	-9.5010	-0.0718	-1.6506	-0.0016	-0.0111	0.0073	15.8706	13.4931	21.3600	0.6113	0.2385	0.7266	-0.2037
8.48	-9.4992	-0.0649	-1.6540	-0.0016	-0.0140	0.0072	15.7407	13.4282	21.1161	0.6112	0.2385	0.7266	-0.2037
8.49	-9.5000	-0.0589	-1.6454	0.0014	-0.0082	0.0109	15.7769	13.5923	21.0289	0.6113	0.2385	0.7267	-0.2037
8.5	-9.4998	-0.0523	-1.6384	0.0034	-0.0072	0.0055	15.5906	13.4732	21.0019	0.6112	0.2385	0.7266	-0.2037
8.51	-9.4944	-0.0550	-1.6425	0.0070	-0.0103	0.0063	15.6929	13.5117	21.1465	0.6113	0.2385	0.7267	-0.2038
8.52	-9.4937	-0.0453	-1.6427	0.0004	-0.0115	0.0067	15.8724	13.5685	21.3227	0.6112	0.2385	0.7266	-0.2037
8.53	-9.4984	-0.0519	-1.6494	0.0002	-0.0088	0.0078	15.6857	13.4209	21.3835	0.6112	0.2385	0.7267	-0.2038
8.54	-9.5031	-0.0546	-1.6549	0.0005	-0.0078	0.0090	15.6905	13.4940	21.0493	0.6112	0.2385	0.7266	-0.2037
8.55	-9.5056	-0.0653	-1.6648	0.0057	-0.0084	0.0067	15.6027	13.4053	21.3283	0.6112	0.2385	0.7266	-0.2038
8.56	-9.5070	-0.0600	-1.6702	-0.0011	-0.0066	0.0015	15.5034	13.6953	21.0473	0.6112	0.2385	0.7267	-0.2038
8.57	-9.4899	-0.0624	-1.6614	-0.0012	-0.0035	0.0066	15.5155	13.5113	21.0855	0.6111	0.2385	0.7267	-0.2038
8.58	-9.4987	-0.0546	-1.6709	0.0021	-0.0095	0.0079	15.5179	13.5176	21.2431	0.6112	0.2385	0.7267	-0.2038
8.59	-9.4955	-0.0626	-1.6732	0.0006	-0.0102	0.0032	15.4946	13.8301	21.1708	0.6111	0.2385	0.7267	-0.2038
8.6	-9.4951	-0.0494	-1.6688	0.0022	-0.0092	0.0047	15.5386	13.6678	21.2996	0.6111	0.2385	0.7267	-0.2038
8.61	-9.4954	-0.0526	-1.6690	0.0016	-0.0053	0.0047	15.5850	13.7237	21.1387	0.6111	0.2385	0.7267	-0.2038
8.62	-9.5009	-0.0511	-1.6721	-0.0017	-0.0089	0.0070	15.4165	13.6890	21.0164	0.6111	0.2385	0.7268	-0.2038
8.63	-9.4995	-0.0471	-1.6783	-0.0024	-0.0123	0.0024	15.5206	13.7225	21.0342	0.6111	0.2384	0.7267	-0.2038
8.64	-9.4988	-0.0615	-1.6659	-0.0007	-0.0153	0.0074	15.5295	13.4413	21.1039	0.6111	0.2384	0.7267	-0.2038
8.65	-9.4960	-0.0539	-1.6778	-0.0088	-0.0126	0.0087	15.6597	13.3417	21.0215	0.6111	0.2384	0.7268	-0.2038
8.66	-9.5020	-0.0539	-1.6804	-0.0001	-0.0096	0.0098	15.7385	13.4671	21.3423	0.6111	0.2384	0.7267	-0.2038
8.67	-9.4976	-0.0576	-1.6666	-0.0043	-0.0161	0.0074	15.9527	13.4659	21.0609	0.6112	0.2384	0.7268	-0.2038
8.68	-9.5023	-0.0645	-1.6739	-0.0043	-0.0125	0.0044	15.7571	13.6011	21.0423	0.6111	0.2384	0.7267	-0.2038
8.69	-9.5025	-0.0603	-1.6724	-0.0037	-0.0067	0.0066	15.7692	13.4038	21.2243	0.6112	0.2384	0.7268	-0.2038
8.7	-9.4956	-0.0704	-1.6645	-0.0065	-0.0078	0.0068	15.6588	13.3498	21.1969	0.6111	0.2383	0.7267	-0.2037
8.71	-9.4916	-0.0695	-1.6502	-0.0004	-0.0113	0.0038	15.6919	13.5189	21.1066	0.6111	0.2383	0.7268	-0.2037
8.72	-9.5062	-0.0563	-1.6563	-0.0000	-0.0141	0.0079	15.6298	13.3664	21.1102	0.6112	0.2383	0.7268	-0.2037
8.73	-9.4988	-0.0664	-1.6565	0.0018	-0.0124	0.0054	15.5565	13.4529	21.1858	0.6111	0.2383	0.7267	-0.2037
8.74	-9.4967	-0.0597	-1.6450	-0.0015	-0.0099	0.0082	15.8020	13.5404	21.3169	0.6112	0.2383	0.7268	-0.2038
8.75	-9.5046	-0.0588	-1.6526	-0.0048	-0.0072	0.0036	15.5625	13.5930	21.2802	0.6111	0.2383	0.7268	-0.2037
8.76	-9.5066	-0.0615	-1.6421	-0.0006	-0.0101	0.0059	15.4811	13.7816	21.5007	0.6112	0.2383	0.7268	-0.2037
8.77	-9.4923	-0.0647	-1.6452	-0.0088	-0.0093	0.0048	15.5226	13.4857	21.2693	0.6111	0.2382	0.7268	-0.2037
8.78	-9.4899	-0.0629	-1.6519	0.0018	-0.0075	0.0021	15.5017	13.6915	21.0799	0.6111	0.2382	0.7269	-0.2037
8.79	-9.5110	-0.0534	-1.6550	-0.0057	-0.0047	0.0039	15.6929	13.8413	21.2827	0.6111	0.2382	0.7269	-0.2037
8.8	-9.4942	-0.0570	-1.6522	-0.0046	-0.0084	0.0065	15.8402	13.9711	21.2779	0.6111	0.2381	0.7269	-0.2037
8.81	-9.4972	-0.0495	-1.6489	-0.0006	-0.0014	0.0067	15.7667	13.8400	21.3307	0.6111	0.2382	0.7269	-0.2037
8.82	-9.5009	-0.0494	-1.6607	0.0000	-0.0073	0.0079	15.7022	13.5192	21.3208	0.6110	0.2381	0.7269	-0.2037
8.83	-9.5060	-0.0554	-1.6647	-0.0023	-0.0134	0.0136	15.6153	13.5135	21.1007	0.6111	0.2382	0.7269	-0.2037
8.84	-9.4958	-0.0470	-1.6596	-0.0058	-0.0133	0.0122	15.7831	13.7422	20.9122	0.6110	0.2381	0.7269	-0.2036
8.85	-9.5051	-0.0476	-1.6566	-0.0063	-0.0167	0.0098	15.8494	13.7047	21.1816	0.6111	0.2381	0.7269	-0.2036
8.86	-9.5083	-0.0475	-1.6609	-0.0006	-0.0165	0.0060	15.8268	13.4503	21.2370	0.6111	0.2381	0.7269	-0.2036
8.87	-9.4969	-0.0560	-1.6620	0.0016	-0.0118	0.0147	15.6485	13.5424	21.1490	0.6112	0.2381	0.7269	-0.2036
8.88	-9.4942	-0.0605	-1.6636	0.0014	-0.0075	0.0047	15.7323	13.5670	21.0149	0.6111	0.2381	0.7269	-0.2036
8.89	-9.5037	-0.0559	-1.6650	-0.0052	-0.0109	0.0075	15.7020	13.4150	21.0618	0.6111	0.2381	0.7269	-0.2036
8.9	-9.4928	-0.0619	-1.6631	-0.0030	-0.0123	0.0129	15.6036	13.3925	21.2055	0.6112	0.2381	0.7269	-0.2036
8.91	-9.4941	-0.0633	-1.6598	0.0010	-0.0111	0.0060	15.7895	13.6704	21.2159	0.6111	0.2381	0.7268	-0.2036
8.92	-9.5049	-0.0573	-1.6581	-0.0050	-0.0178	0.0095	15.5742	13.5040	21.2066	0.6112	0.2381	0.7269	-0.2036
8.93	-9.4964	-0.0623	-1.6574	0.0016	-0.0151	0.0060	15.5755	13.6213	21.2150	0.6112	0.2381	0.7269	-0.2036
8.94	-9.4961	-0.0648	-1.6588	-0.0048	-0.0164	0.0070	15.4887	13.5717	21.1921	0.6113	0.2381	0.7269	-0.2036
8.95	-9.5037	-0.0626	-1.6706	-0.0098	-0.0099	0.0046	15.6038	13.5371	21.3096	0.6112	0.2380	0.7268	-0.2035
8.96	-9.4996	-0.0747	-1.6753	0.0054	-0.0098	0.0078	15.6123	13.6597	21.2843	0.6112	0.2380	0.7269	-0.2036
8.97	-9.4963	-0.0819	-1.6625	-0.0028	-0.0125	0.0079	15.7083	13.6229	21.3198	0.6112	0.2380	0.7269	-0.2036
8.98	-9.5070	-0.0780	-1.6724	-0.0016	-0.0089	0.0060	15.6037	13.6366	21.2069	0.6112	0.2380	0.7268	-0.2035
8.99	-9.5084	-0.0799	-1.6691	-0.0013	-0.0110	0.0102	15.5806	13.6350	21.2079	0.6113	0.2380	0.7269	-0.2036
9	-9.4986	-0.0697	-1.6679	-0.0070	-0.0101	0.0097	15.3883	13.6130	21.3468	0.6112	0.2380	0.7269	-0.2035
9.01	-9.4965	-0.0656	-1.6611	-0.0009	-0.0150	0.0093	15.6948	13.4589	21.3984	0.6113	0.2380	0.7269	-0.2035
9.02	-9.5094	-0.0646	-1.6655	-0.0011	-0.0160	0.0148	15.5914	13.5398	20.9700	0.6112	0.2380	0.7268	-0.2035
9.03	-9.5063	-0.0509	-1.6636	0.0010	-0.0151	0.0144	15.7209	13.6837	21.0031	0.6113	0.2380	0.7268	-0.2035
9.04	-9.4965	-0.0448	-1.6520	0.0044	-0.0090	0.0057	15.7776	13.7129	21.3018	0.6113	0.2380	0.7268	-0.2035
9.05	-9.5030	-0.0462	-1.6692	-0.0040	-0.0090	0.0121	15.7120	13.4706	21.0808	0.6112	0.2380	0.7268	-0.2035
9.06	-9.5142	-0.0442	-1.6660	-0.0001	-0.0181	0.0079	15.4709	13.4534	21.3369	0.6113	0.2380	0.7268	-0.2035
9.07	-9.5057	-0.0438	-1.6492	-0.0061	-0.0100	0.0066	15.5786	13.4862	21.2790	0.6113	0.2380	0.7268	-0.2034
9.08	-9.5066	-0.0486	-1.6512	-0.0044	-0.0102	0.0076	15.7400	13.4301	21.3284	0.6113	0.2380	0.7269	-0.2034
9.09	-9.4999	-0.0485	-1.6485	0.0004	-0.0082	0.0078	15.5548	13.6435	21.1993	0.6112	0.2380	0.7268	-0.2034
9.1	-9.5052	-0.0420	-1.6477	-0.0016	-0.0053	0.0053	15.6496	13.7165	21.2090	0.6113	0.2380	0.7269	-0.2034
9.11	-9.5001	-0.0506	-1.6543	0.0010	-0.0122	0.0063	15.6479	13.6025	21.0426	0.6113	0.2380	0.7269	-0.2034
9.12	-9.4958	-0.0458	-1.6778	0.0012	-0.0112	0.0044	15.5817	13.6527	21.0716	0.6113	0.2380	0.7269	-0.2035
9.13	-9.4975	-0.0480	-1.6632	-0.0014	-0.0141	0.0058	15.6801	13.6138	21.3372	0.6113	0.2379	0.7268	-0.2034
9.14	-9.5046	-0.0524	-1.6701	-0.0025	-0.0074	0.0075	15.5801	13.7724	21.3810	0.6113	0.2379	0.7269	-0.2034
9.15	-9.5006	-0.0635	-1.6691	-0.0017	-0.0128	0.0064	15.5829	13.6163	21.1938	0.6113	0.2379	0.7269	-0.2034
9.16	-9.5039	-0.0742	-1.6620	-0.0014	-0.0097	0.0043	15.6935	13.7278	21.2835	0.6112	0.2379	0.7268	-0.2034
9.17	-9.4997	-0.0841	-1.6678	-0.0040	-0.0090	0.0065	15.5479	13.6887	21.4056	0.6113	0.2379	0.7269	-0.2034
9.18	-9.5014	-0.0821	-1.6520	-0.0013	-0.0087	0.0043	15.4145	13.6317	21.3521	0.6112	0.2379	0.7269	-0.2034
9.19	-9.5030	-0.0666	-1.6555	-0.0013	-0.0145	0.0038	15.6280	13.5640	21.2023	0.6113	0.2379	0.7270	-0.2035
9.2	-9.5045	-0.0672	-1.6694	0.0014	-0.0148	0.0102	15.5786	13.5539	21.2206	0.6112	0.2378	0.7269	-0.2034
9.21	-9.5066	-0.0732	-1.6527	0.0071	-0.0151	0.0076	15.6168	13.6241	21.2988	0.6113	0.2379	0.7269	-0.2035
9.22	-9.5072	-0.0620	-1.6552	0.0021	-0.0116	0.0103	15.7404	13.3755	21.1465	0.6113	0.2379	0.7269	-0.2035
9.23	-9.4990	-0.0673	-1.6564	0.0093	-0.0093	0.0079	15.7889	13.6680	21.0919	0.6112	0.2379	0.7268	-0.2035
9.24	-9.5024	-0.0681	-1.6563	0.0023	-0.0086	0.0059	15.6383	13.6083	21.2653	0.6113	0.2379	0.7269	-0.2035
9.25	-9.4982	-0.0679	-1.6603	0.0034	-0.0060	0.0099	15.6129	13.5485	21.2512	0.6112	0.2379	0.7269	-0.2035
9.26	-9.5003	-0.0630	-1.6528	0.0031	-0.0087	0.0103	15.7321	13.7414	21.0098	0.6113	0.2380	0.7269	-0.2035
9.27	-9.5024	-0.0527	-1.6690	-0.0004	-0.0148	0.0090	15.5650	13.6233	21.0292	0.6112	0.2379	0.7268	-0.2035
9.28	-9.5045	-0.0451	-1.6587	-0.0003	-0.0112	0.0088	15.7417	13.6402	21.2736	0.6113	0.2380	0.7269	-0.2035
9.29	-9.5003	-0.0344	-1.6555	0.0009	-0.0085	0.0077	16.0499	13.6243	21.2954	0.6112	0.2380	0.7269	-0.2035
9.3	-9.5050	-0.0428	-1.6472	-0.0034	-0.0099	0.0100	16.1145	13.4407	21.3912	0.6112	0.2379	0.7269	-0.2035
9.31	-9.5126	-0.0410	-1.6430	-0.0026	-0.0021	0.0024	15.8635	13.6342	21.3500	0.6112	0.2379	0.7269	-0.2035
9.32	-9.5055	-0.0405	-1.6486	0.0000	-0.0084	0.0054	15.7831	13.7505	21.3018	0.6112	0.2379	0.7269	-0.2035
9.33	-9.5182	-0.0567	-1.6515	0.0005	-0.0091	0.0002	15.6203	13.5043	21.3085	0.6112	0.2379	0.7270	-0.2035
9.34	-9.5046	-0.0675	-1.6486	0.0002	-0.0105	0.0027	15.5340	13.6161	21.2716	0.6111	0.2379	0.7269	-0.2035
9.35	-9.5048	-0.0620	-1.6476	-0.0025	-0.0073	0.0061	15.4112	13.6930	21.1725	0.6112	0.2379	0.7270	-0.2035
9.36	-9.5028	-0.0504	-1.6548	0.0038	-0.0036	0.0047	15.4004	13.6832	21.1924	0.6111	0.2379	0.7270	-0.2035
9.37	-9.4978	-0.0418	-1.6540	-0.0042	-0.0049	0.0020	15.7297	13.6954	21.1783	0.6111	0.2378	0.7270	-0.2035
9.38	-9.4973	-0.0560	-1.6590	-0.0001	-0.0104	0.0082	15.5875	13.6070	21.2986	0.6111	0.2378	0.7270	-0.2035
9.39	-9.5049	-0.0457	-1.6555	0.0008	-0.0109	0.0114	15.5242	13.6967	21.0081	0.6111	0.2378	0.7270	-0.2035
9.4	-9.4981	-0.0573	-1.6648	-0.0006	-0.0047	0.0080	15.9168	13.3400	21.2797	0.6111	0.2379	0.7271	-0.2035
9.41	-9.4963	-0.0607	-1.6673	0.0020	-0.0126	0.0096	15.8849	13.4677	21.2231	0.6110	0.2378	0.7270	-0.2035
9.42	-9.5045	-0.0638	-1.6584	-0.0040	-0.0103	0.0025	15.6460	13.3168	21.0878	0.6111	0.2378	0.7271	-0.2035
9.43	-9.5007	-0.0687	-1.6761	-0.0045	-0.0073	0.0091	15.6063	13.4317	21.1219	0.6111	0.2378	0.7271	-0.2035
9.44	-9.4982	-0.0666	-1.6656	-0.0016	-0.0058	0.0076	15.6369	13.4031	21.1090	0.6111	0.2378	0.7271	-0.2035
9.45	-9.5063	-0.0760	-1.6652	0.0002	-0.0108	0.0077	15.5127	13.6617	21.0934	0.6110	0.2378	0.7270	-0.2035
9.46	-9.5004	-0.0745	-1.6624	-0.0000	-0.0081	0.0049	15.6673	13.5056	21.2440	0.6111	0.2378	0.7271	-0.2035
9.47	-9.5072	-0.0825	-1.6644	0.0010	-0.0085	0.0088	15.6857	13.5300	21.2943	0.6110	0.2378	0.7271	-0.2035
9.48	-9.5046	-0.0668	-1.6563	-0.0016	-0.0166	0.0095	15.7170	13.5856	21.2817	0.6110	0.2378	0.7270	-0.2035
9.49	-9.5029	-0.0659	-1.6642	-0.0002	-0.0116	0.0081	15.5606	13.3079	21.2782	0.6111	0.2378	0.7271	-0.2035
9.5	-9.5011	-0.0583	-1.6735	-0.0002	-0.0060	0.0030	15.4518	13.6359	21.3078	0.6110	0.2378	0.7271	-0.2035
9.51	-9.5021	-0.0466	-1.6610	-0.0037	-0.0086	0.0084	15.5593	13.7785	21.4050	0.6111	0.2378	0.7272	-0.2035
9.52	-9.5062	-0.0521	-1.6788	-0.0047	-0.0074	0.0041	15.5159	13.6743	21.1831	0.6110	0.2377	0.7271	-0.2034
9.53	-9.5102	-0.0510	-1.6628	0.0012	-0.0088	0.0086	15.5385	13.7146	21.0585	0.6110	0.2378	0.7272	-0.2035
9.54	-9.5053	-0.0484	-1.6724	-0.0019	-0.0071	0.0042	15.3941	13.7732	21.3307	0.6110	0.2377	0.7272	-0.2035
9.55	-9.5029	-0.0440	-1.6707	-0.0012	-0.0054	0.0040	15.5493	13.7920	21.0635	0.6110	0.2377	0.7272	-0.2035
9.56	-9.4899	-0.0574	-1.6613	-0.0058	-0.0062	0.0082	15.5980	13.6390	21.2586	0.6110	0.2377	0.7272	-0.2034
9.57	-9.5116	-0.0628	-1.6560	0.0063	-0.0115	0.0131	15.4121	13.7777	21.2984	0.6110	0.2377	0.7272	-0.2034
9.58	-9.5018	-0.0507	-1.6647	0.0000	-0.0148	0.0081	15.6773	13.6148	21.0065	0.6110	0.2378	0.7272	-0.2035
9.59	-9.4979	-0.0517	-1.6576	-0.0025	-0.0117	0.0061	15.7798	13.4136	21.2482	0.6109	0.2377	0.7271	-0.2034
9.6	-9.5072	-0.0527	-1.6595	0.0018	-0.0055	0.0069	15.7691	13.4385	21.1737	0.6110	0.2377	0.7272	-0.2035
9.61	-9.4957	-0.0589	-1.6561	-0.0031	-0.0132	0.0071	15.6464	13.5122	21.2136	0.6110	0.2377	0.7272	-0.2034
9.62	-9.4970	-0.0502	-1.6576	-0.0049	-0.0159	0.0058	15.7855	13.6717	21.1873	0.6110	0.2377	0.7272	-0.2034
9.63	-9.5006	-0.0452	-1.6542	-0.0001	-0.0067	0.0085	15.7601	13.4828	21.1191	0.6110	0.2377	0.7272	-0.2034
9.64	-9.5066	-0.0551	-1.6466	-0.0002	-0.0058	0.0054	15.6966	13.4528	21.2118	0.6110	0.2377	0.7272	-0.2034
9.65	-9.5088	-0.0547	-1.6614	-0.0022	-0.0104	0.0080	15.8219	13.5919	21.1977	0.6110	0.2377	0.7272	-0.2034
9.66	-9.5014	-0.0639	-1.6482	0.0031	-0.0131	0.0116	15.6672	13.3286	21.1924	0.6109	0.2377	0.7272	-0.2034
9.67	-9.5008	-0.0548	-1.6613	0.0022	-0.0161	0.0095	15.8109	13.4933	21.2178	0.6110	0.2377	0.7272	-0.2034
9.68	-9.4909	-0.0553	-1.6500	-0.0019	-0.0062	0.0036	15.7155	13.6451	21.3002	0.6110	0.2377	0.7272	-0.2034
9.69	-9.4963	-0.0462	-1.6586	-0.0031	-0.0032	0.0022	15.4505	13.5857	21.2785	0.6110	0.2377	0.7273	-0.2034
9.7	-9.5028	-0.0561	-1.6784	-0.0045	-0.0122	0.0014	15.4427	13.6074	21.1899	0.6109	0.2376	0.7272	-0.2034
9.71	-9.5050	-0.0525	-1.6721	-0.0018	-0.0050	0.0056	15.5730	13.7171	21.1805	0.6109	0.2376	0.7273	-0.2034
9.72	-9.5035	-0.0498	-1.6617	-0.0004	-0.0083	0.0082	15.6388	13.6346	21.2018	0.6109	0.2376	0.7273	-0.2034
9.73	-9.5072	-0.0458	-1.6611	-0.0041	-0.0043	0.0049	15.5284	13.5868	21.1774	0.6109	0.2376	0.7273	-0.2034
9.74	-9.5104	-0.0494	-1.6639	0.0022	-0.0051	0.0013	15.6199	13.6216	21.2110	0.6109	0.2376	0.7274	-0.2034
9.75	-9.4963	-0.0583	-1.6628	-0.0072	-0.0056	0.0089	15.4883	13.5863	21.2950	0.6109	0.2376	0.7273	-0.2034
9.76	-9.5014	-0.0610	-1.6610	-0.0001	-0.0146	0.0102	15.6068	13.6394	21.2740	0.6109	0.2376	0.7274	-0.2034
9.77	-9.5112	-0.0646	-1.6645	-0.0006	-0.0054	0.0043	15.6018	13.4362	21.2825	0.6108	0.2375	0.7273	-0.2034
9.78	-9.5097	-0.0533	-1.6649	-0.0066	-0.0097	0.0077	15.8305	13.2320	21.3022	0.6109	0.2375	0.7274	-0.2034
9.79	-9.5040	-0.0556	-1.6636	-0.0040	-0.0081	0.0083	16.1724	13.5059	21.4510	0.6109	0.2375	0.7274	-0.2033
9.8	-9.5096	-0.0569	-1.6666	0.0009	-0.0102	0.0064	16.3724	13.5911	21.4935	0.6108	0.2375	0.7274	-0.2033
9.81	-9.4988	-0.0538	-1.6674	0.0028	-0.0078	0.0075	16.0722	13.7985	21.3383	0.6109	0.2375	0.7274	-0.2034
9.82	-9.4975	-0.0578	-1.6549	-0.0008	-0.0137	0.0064	15.7472	13.6688	21.1544	0.6108	0.2375	0.7274	-0.2034
9.83	-9.4991	-0.0583	-1.6618	-0.0026	-0.0123	0.0068	15.6014	13.5400	21.2517	0.6109	0.2375	0.7274	-0.2034
9.84	-9.5004	-0.0583	-1.6619	0.0061	-0.0070	0.0078	15.6016	13.5586	21.2113	0.6108	0.2375	0.7273	-0.2034
9.85	-9.5040	-0.0629	-1.6603	-0.0032	-0.0176	0.0085	15.6385	13.5656	21.3654	0.6109	0.2375	0.7274	-0.2034
9.86	-9.5077	-0.0644	-1.6667	0.0044	-0.0108	0.0094	15.7034	13.6570	21.3946	0.6109	0.2375	0.7274	-0.2034
9.87	-9.5024	-0.0633	-1.6722	0.0005	-0.0099	0.0053	15.6938	13.6346	21.2105	0.6109	0.2375	0.7274	-0.2034
9.88	-9.4976	-0.0613	-1.6741	-0.0011	-0.0059	0.0063	15.6934	13.6239	21.2430	0.6108	0.2375	0.7274	-0.2034
9.89	-9.4987	-0.0642	-1.6607	0.0030	-0.0123	0.0080	15.5882	13.6733	21.3351	0.6108	0.2375	0.7274	-0.2034
9.9	-9.5098	-0.0594	-1.6684	0.0027	-0.0115	0.0040	15.6280	13.7005	21.2787	0.6108	0.2375	0.7274	-0.2034
9.91	-9.5081	-0.0607	-1.6635	0.0001	-0.0075	0.0056	15.6044	13.5202	21.1104	0.6108	0.2375	0.7274	-0.2034
9.92	-9.5067	-0.0529	-1.6629	0.0009	-0.0075	0.0056	15.6360	13.6679	21.1842	0.6108	0.2375	0.7275	-0.2034
9.93	-9.5064	-0.0576	-1.6525	0.0000	-0.0103	0.0049	15.4399	13.6078	21.3401	0.6108	0.2375	0.7274	-0.2034
9.94	-9.5107	-0.0558	-1.6532	-0.0015	-0.0146	0.0081	15.5363	13.6654	21.0920	0.6109	0.2375	0.7275	-0.2034
9.95	-9.5065	-0.0562	-1.6449	0.0072	-0.0087	0.0082	15.5148	13.5182	21.2713	0.6108	0.2375	0.7274	-0.2034
9.96	-9.5093	-0.0584	-1.6303	0.0068	-0.0095	0.0119	15.6973	13.5993	21.0637	0.6108	0.2375	0.7274	-0.2035
9.97	-9.5039	-0.0450	-1.6455	-0.0018	-0.0069	0.0075	15.7827	13.6183	21.2979	0.6108	0.2375	0.7274	-0.2034
9.98	-9.5037	-0.0539	-1.6444	0.0035	-0.0131	0.0068	15.8527	13.4593	21.2614	0.6107	0.2375	0.7274	-0.2034
9.99	-9.5079	-0.0546	-1.6452	0.0058	-0.0124	0.0064	15.7629	13.4758	21.1357	0.6108	0.2376	0.7275	-0.2035
10	-9.5073	-0.0554	-1.6459	0.0002	-0.0152	0.0076	15.5605	13.4838	21.2652	0.6108	0.2375	0.7274	-0.2035
10.01	-9.5144	-0.0582	-1.6511	0.0006	-0.0100	0.0105	15.6616	13.6381	21.2169	0.6108	0.2376	0.7274	-0.2035
10.02	-9.5047	-0.0642	-1.6597	0.0000	-0.0140	0.0083	15.4980	13.6389	21.2266	0.6108	0.2375	0.7273	-0.2035
10.03	-9.5078	-0.0600	-1.6679	0.0050	-0.0078	0.0048	15.6762	13.5182	21.2443	0.6108	0.2376	0.7274	-0.2035
10.04	-9.5074	-0.0683	-1.6629	-0.0005	-0.0094	0.0104	15.6733	13.6115	21.3622	0.6108	0.2376	0.7274	-0.2035
10.05	-9.5049	-0.0663	-1.6659	0.0005	-0.0144	0.0074	15.7843	13.6495	21.2273	0.6108	0.2376	0.7274	-0.2035
10.06	-9.4969	-0.0627	-1.6598	-0.0009	-0.0079	-0.0009	15.6760	13.6316	21.2293	0.6108	0.2375	0.7274	-0.2035
10.07	-9.5036	-0.0621	-1.6583	0.0033	-0.0033	0.0073	15.6086	13.6380	21.2313	0.6107	0.2375	0.7274	-0.2035
10.08	-9.5055	-0.0604	-1.6609	0.0000	-0.0115	0.0070	15.5802	13.8484	21.2191	0.6108	0.2375	0.7274	-0.2035
10.09	-9.4981	-0.0638	-1.6627	-0.0072	-0.0046	0.0048	15.4247	13.9211	21.2086	0.6107	0.2375	0.7274	-0.2035
10.1	-9.4967	-0.0629	-1.6749	0.0070	-0.0026	0.0052	15.6594	13.5341	21.4481	0.6107	0.2375	0.7275	-0.2035
10.11	-9.5014	-0.0628	-1.6803	-0.0036	-0.0104	-0.0025	15.5755	13.7698	21.2050	0.6107	0.2375	0.7275	-0.2035
10.12	-9.5075	-0.0638	-1.6661	-0.0005	-0.0103	0.0083	15.7052	13.7564	21.3131	0.6107	0.2375	0.7275	-0.2036
10.13	-9.4952	-0.0573	-1.6636	0.0054	-0.0059	0.0034	15.5987	13.6192	21.2334	0.6106	0.2375	0.7275	-0.2036
10.14	-9.5101	-0.0570	-1.6562	0.0015	-0.0092	0.0100	15.7530	13.5100	21.0939	0.6106	0.2375	0.7275	-0.2036
10.15	-9.5065	-0.0493	-1.6612	0.0001	-0.0081	0.0102	15.7855	13.4901	21.0629	0.6106	0.2375	0.7275	-0.2036
10.16	-9.4946	-0.0340	-1.6533	0.0022	-0.0076	0.0065	15.7823	13.6773	21.3648	0.6106	0.2375	0.7275	-0.2035
10.17	-9.5079	-0.0401	-1.6561	0.0051	-0.0135	0.0075	15.6627	13.5055	21.1660	0.6107	0.2375	0.7276	-0.2036
10.18	-9.5044	-0.0538	-1.6691	-0.0021	-0.0105	0.0110	15.7593	13.4857	21.2063	0.6106	0.2375	0.7275	-0.2036
10.19	-9.5007	-0.0575	-1.6787	0.0054	-0.0123	0.0086	15.7353	13.6488	21.1750	0.6107	0.2376	0.7276	-0.2036
10.2	-9.5015	-0.0679	-1.6767	0.0017	-0.0085	0.0090	15.5966	13.6310	21.1290	0.6106	0.2375	0.7275	-0.2036
10.21	-9.5114	-0.0704	-1.6771	0.0032	-0.0116	0.0105	15.7268	13.5318	21.2524	0.6106	0.2376	0.7275	-0.2036
10.22	-9.5146	-0.0702	-1.6752	0.0053	-0.0100	0.0074	15.6703	13.5782	21.2447	0.6106	0.2376	0.7275	-0.2036
10.23	-9.4954	-0.0690	-1.6671	0.0019	-0.0139	0.0105	15.7781	13.4681	21.1449	0.6106	0.2376	0.7274	-0.2036
10.24	-9.5038	-0.0682	-1.6757	0.0012	-0.0100	0.0084	15.7041	13.5681	21.1629	0.6107	0.2376	0.7275	-0.2036
10.25	-9.5109	-0.0693	-1.6762	0.0044	-0.0093	0.0031	15.6582	13.4131	21.3786	0.6106	0.2376	0.7275	-0.2036
10.26	-9.4969	-0.0787	-1.6570	0.0006	-0.0134	0.0082	15.5877	13.6045	21.2566	0.6106	0.2376	0.7275	-0.2037
10.27	-9.4954	-0.0811	-1.6630	-0.0019	-0.0108	0.0039	15.7128	13.6611	21.0993	0.6106	0.2376	0.7274	-0.2036
10.28	-9.5056	-0.0688	-1.6539	-0.0018	-0.0048	0.0042	15.4841	13.6058	21.4300	0.6106	0.2376	0.7275	-0.2037
10.29	-9.5027	-0.0635	-1.6543	-0.0003	-0.0064	0.0081	15.8904	13.5266	21.4438	0.6106	0.2376	0.7275	-0.2036
10.3	-9.5029	-0.0621	-1.6575	0.0021	-0.0062	0.0088	15.9622	13.6359	21.1914	0.6105	0.2376	0.7275	-0.2036
10.31	-9.4987	-0.0598	-1.6605	-0.0035	-0.0053	0.0045	15.8209	13.7146	21.2836	0.6106	0.2376	0.7276	-0.2036
10.32	-9.5001	-0.0602	-1.6502	0.0035	-0.0090	0.0071	15.7466	13.6729	21.5404	0.6105	0.2376	0.7276	-0.2036
10.33	-9.5079	-0.0694	-1.6501	0.0065	-0.0112	0.0122	15.5308	13.3757	21.0520	0.6105	0.2376	0.7276	-0.2037
10.34	-9.5034	-0.0699	-1.6456	0.0029	-0.0093	0.0099	15.7722	13.4616	21.0629	0.6105	0.2376	0.7275	-0.2036
10.35	-9.5081	-0.0583	-1.6441	-0.0004	-0.0053	0.0101	15.8549	13.5406	21.3262	0.6105	0.2376	0.7276	-0.2036
10.36	-9.4988	-0.0549	-1.6446	-0.0050	-0.0067	0.0099	15.8190	13.5876	21.3972	0.6105	0.2376	0.7276	-0.2036
10.37	-9.4993	-0.0508	-1.6407	-0.0003	-0.0123	0.0101	15.8589	13.5937	21.2027	0.6105	0.2376	0.7276	-0.2036
10.38	-9.5066	-0.0481	-1.6441	0.0004	-0.0068	0.0076	15.7464	13.4117	21.1703	0.6105	0.2376	0.7276	-0.2036
10.39	-9.5087	-0.0438	-1.6360	-0.0040	-0.0073	0.0083	15.5376	13.4992	21.4267	0.6105	0.2376	0.7276	-0.2036
10.4	-9.5029	-0.0477	-1.6344	0.0002	-0.0052	0.0074	15.6715	13.5313	21.2665	0.6105	0.2376	0.7276	-0.2036
10.41	-9.5026	-0.0457	-1.6462	0.0042	-0.0069	0.0051	15.6745	13.2553	21.2849	0.6104	0.2376	0.7276	-0.2036
10.42	-9.5090	-0.0524	-1.6506	0.0023	-0.0032	0.0111	15.6919	13.4136	21.1580	0.6105	0.2377	0.7277	-0.2036
10.43	-9.5040	-0.0547	-1.6616	-0.0035	-0.0018	0.0080	15.6405	13.5990	21.3604	0.6104	0.2376	0.7277	-0.2036
10.44	-9.5023	-0.0519	-1.6641	-0.0035	-0.0026	0.0071	15.5602	13.6721	21.2798	0.6104	0.2377	0.7278	-0.2036
10.45	-9.5058	-0.0485	-1.6628	-0.0010	-0.0031	0.0042	15.7062	13.8053	21.2478	0.6103	0.2376	0.7277	-0.2035
10.46	-9.5002	-0.0526	-1.6642	-0.0006	-0.0057	0.0040	15.5280	13.7634	21.3797	0.6103	0.2376	0.7278	-0.2035
10.47	-9.5048	-0.0613	-1.6602	-0.0044	-0.0072	0.0023	15.5487	13.6342	21.3046	0.6103	0.2376	0.7278	-0.2035
10.48	-9.5065	-0.0607	-1.6656	-0.0006	-0.0058	0.0060	15.6380	13.5967	21.1689	0.6102	0.2376	0.7278	-0.2035
10.49	-9.5099	-0.0682	-1.6747	-0.0069	-0.0032	0.0074	15.4708	13.7322	21.0852	0.6103	0.2376	0.7279	-0.2035
10.5	-9.5029	-0.0761	-1.6691	0.0012	-0.0032	0.0046	15.5847	13.6542	21.3442	0.6102	0.2376	0.7278	-0.2035
10.51	-9.5002	-0.0726	-1.6707	0.0024	-0.0095	0.0118	15.5394	13.6016	21.3577	0.6103	0.2376	0.7279	-0.2035
10.52	-9.5022	-0.0726	-1.6699	-0.0000	-0.0120	0.0071	15.4840	13.6225	21.3385	0.6102	0.2376	0.7278	-0.2035
10.53	-9.4995	-0.0586	-1.6729	0.0083	-0.0116	0.0065	15.9458	13.6208	21.2674	0.6102	0.2376	0.7279	-0.2035
10.54	-9.5017	-0.0564	-1.6699	0.0054	-0.0093	0.0071	15.8728	13.4632	21.2526	0.6102	0.2376	0.7278	-0.2035
10.55	-9.5084	-0.0520	-1.6714	-0.0009	-0.0072	0.0087	15.7619	13.5000	21.3607	0.6102	0.2376	0.7278	-0.2035
10.56	-9.4948	-0.0549	-1.6836	0.0009	-0.0086	0.0040	15.6643	13.7453	21.3355	0.6102	0.2376	0.7279	-0.2035
10.57	-9.5074	-0.0528	-1.6796	-0.0005	-0.0135	0.0071	15.5554	13.6613	21.2573	0.6102	0.2376	0.7278	-0.2035
10.58	-9.5047	-0.0536	-1.6795	0.0012	-0.0103	0.0080	15.6836	13.5675	21.2149	0.6102	0.2376	0.7279	-0.2036
10.59	-9.5037	-0.0632	-1.6798	0.0047	-0.0141	0.0085	15.5935	13.4403	21.1502	0.6102	0.2376	0.7278	-0.2035
10.6	-9.4969	-0.0654	-1.6813	0.0058	-0.0069	0.0051	15.7031	13.3686	21.4181	0.6102	0.2376	0.7279	-0.2036
10.61	-9.4990	-0.0639	-1.6731	0.0084	-0.0099	0.0066	15.7628	13.6597	21.3075	0.6102	0.2376	0.7278	-0.2036
10.62	-9.5052	-0.0624	-1.6743	0.0035	-0.0064	0.0041	15.5216	13.5110	21.4545	0.6102	0.2377	0.7279	-0.2036
10.63	-9.4990	-0.0651	-1.6672	0.0038	-0.0117	-0.0005	15.3413	13.7097	21.3328	0.6101	0.2376	0.7278	-0.2037
10.64	-9.4993	-0.0639	-1.6680	-0.0012	-0.0057	0.0008	15.4575	13.9210	21.2232	0.6101	0.2376	0.7279	-0.2037
10.65	-9.5061	-0.0621	-1.6703	0.0041	-0.0109	0.0034	15.4374	13.5780	21.2878	0.6101	0.2376	0.7279	-0.2037
10.66	-9.4996	-0.0707	-1.6648	0.0051	-0.0062	0.0042	15.7236	13.4976	21.2244	0.6100	0.2376	0.7278	-0.2037
10.67	-9.5032	-0.0705	-1.6580	0.0009	-0.0037	0.0046	15.4365	13.6668	21.5187	0.6101	0.2376	0.7280	-0.2038
10.68	-9.5060	-0.0756	-1.6552	0.0006	-0.0078	0.0042	15.3399	13.6831	21.6008	0.6100	0.2376	0.7279	-0.2038
10.69	-9.5061	-0.0654	-1.6616	-0.0025	-0.0078	0.0059	15.5294	13.7318	21.4379	0.6101	0.2376	0.7280	-0.2038
10.7	-9.5059	-0.0715	-1.6370	-0.0014	-0.0140	0.0120	15.4946	13.5698	21.3424	0.6100	0.2376	0.7279	-0.2037
10.71	-9.5022	-0.0600	-1.6266	0.0011	-0.0122	0.0092	15.7517	13.6971	21.2496	0.6101	0.2376	0.7279	-0.2037
10.72	-9.5082	-0.0523	-1.6442	0.0030	-0.0111	0.0078	15.7377	13.6017	21.2487	0.6101	0.2376	0.7279	-0.2037
10.73	-9.5033	-0.0521	-1.6437	0.0020	-0.0128	0.0082	15.8492	13.5241	21.0585	0.6100	0.2376	0.7279	-0.2037
10.74	-9.4901	-0.0519	-1.6482	0.0031	-0.0072	0.0053	15.7472	13.5266	21.2265	0.6101	0.2376	0.7280	-0.2038
10.75	-9.4947	-0.0566	-1.6487	0.0028	-0.0063	0.0070	15.5124	13.4637	21.2632	0.6100	0.2376	0.7279	-0.2038
10.76	-9.5079	-0.0584	-1.6550	-0.0002	-0.0063	0.0105	15.5317	13.5593	21.3129	0.6100	0.2376	0.7280	-0.2038
10.77	-9.5050	-0.0591	-1.6449	0.0047	-0.0083	0.0079	15.4790	13.5249	21.4574	0.6099	0.2376	0.7279	-0.2038
10.78	-9.5066	-0.0485	-1.6447	0.0035	-0.0087	0.0081	15.6658	13.6226	21.4264	0.6100	0.2377	0.7280	-0.2038
10.79	-9.5088	-0.0428	-1.6655	0.0051	-0.0066	0.0050	16.0845	13.5217	21.4782	0.6100	0.2377	0.7280	-0.2038
10.8	-9.5011	-0.0479	-1.6601	0.0002	-0.0075	0.0070	16.0186	13.8207	21.6519	0.6099	0.2377	0.7280	-0.2038
10.81	-9.5010	-0.0440	-1.6606	0.0015	-0.0066	0.0023	15.7866	13.6893	21.4055	0.6099	0.2377	0.7280	-0.2038
10.82	-9.5090	-0.0424	-1.6635	0.0012	-0.0060	0.0089	15.6247	13.5943	21.2151	0.6099	0.2377	0.7280	-0.2038
10.83	-9.5012	-0.0466	-1.6623	0.0003	-0.0040	0.0018	15.5711	13.3548	21.2774	0.6099	0.2377	0.7281	-0.2038
10.84	-9.5038	-0.0500	-1.6657	0.0072	-0.0086	0.0019	15.7131	13.6510	21.2079	0.6098	0.2376	0.7280	-0.2038
10.85	-9.5130	-0.0504	-1.6721	0.0022	-0.0051	0.0049	15.7776	13.8480	21.2636	0.6099	0.2377	0.7281	-0.2039
10.86	-9.5047	-0.0457	-1.6761	0.0023	-0.0011	0.0048	15.5117	13.6316	21.4775	0.6098	0.2377	0.7281	-0.2039
10.87	-9.5007	-0.0430	-1.6709	-0.0016	-0.0058	0.0055	15.5929	13.6918	21.2756	0.6098	0.2377	0.7281	-0.2039
10.88	-9.5007	-0.0506	-1.6654	0.0028	-0.0110	0.0090	15.7204	13.8575	21.5356	0.6098	0.2377	0.7281	-0.2039
10.89	-9.5017	-0.0577	-1.6713	0.0059	-0.0131	0.0056	15.7661	13.5053	21.3224	0.6098	0.2377	0.7281	-0.2039
10.9	-9.5037	-0.0547	-1.6764	0.0026	-0.0046	0.0115	15.6645	13.5633	21.1903	0.6098	0.2377	0.7281	-0.2039
10.91	-9.5039	-0.0593	-1.6715	0.0018	-0.0099	0.0098	15.7912	13.7632	20.9555	0.6097	0.2377	0.7280	-0.2039
10.92	-9.5025	-0.0738	-1.6680	0.0012	-0.0070	0.0057	15.7959	13.6278	20.9949	0.6098	0.2377	0.7282	-0.2039
10.93	-9.5071	-0.0666	-1.6644	-0.0009	-0.0093	0.0071	15.7494	13.4927	21.3707	0.6097	0.2377	0.7281	-0.2039
10.94	-9.4985	-0.0622	-1.6665	0.0053	-0.0080	0.0056	15.6345	13.2883	21.2571	0.6098	0.2377	0.7282	-0.2039
10.95	-9.5084	-0.0655	-1.6738	0.0120	-0.0092	0.0065	15.5299	13.3958	21.1416	0.6097	0.2377	0.7281	-0.2039
10.96	-9.5083	-0.0697	-1.6628	0.0059	-0.0104	0.0068	15.5578	13.5248	21.1481	0.6097	0.2378	0.7281	-0.2040
10.97	-9.5083	-0.0668	-1.6636	-0.0008	-0.0105	0.0072	15.6785	13.5504	21.1603	0.6097	0.2378	0.7281	-0.2040
10.98	-9.5058	-0.0563	-1.6667	-0.0008	-0.0142	0.0129	15.7730	13.3482	21.4387	0.6097	0.2377	0.7281	-0.2039
10.99	-9.5011	-0.0640	-1.6688	0.0027	-0.0094	0.0071	15.7858	13.7190	21.3870	0.6097	0.2378	0.7282	-0.2040
11	-9.5042	-0.0610	-1.6706	-0.0010	-0.0023	0.0006	15.5054	13.4324	21.3201	0.6097	0.2377	0.7281	-0.2040
11.01	-9.5047	-0.0713	-1.6609	0.0060	-0.0052	0.0057	15.6530	13.6583	21.2729	0.6097	0.2378	0.7282	-0.2040
11.02	-9.5079	-0.0695	-1.6717	0.0061	-0.0036	0.0020	15.8147	13.7968	21.1248	0.6095	0.2377	0.7281	-0.2040
11.03	-9.5092	-0.0649	-1.6654	0.0043	-0.0077	0.0045	15.5514	13.4358	21.2623	0.6096	0.2378	0.7282	-0.2041
11.04	-9.5026	-0.0642	-1.6680	-0.0020	-0.0057	0.0053	15.5444	13.5971	21.2228	0.6096	0.2378	0.7282	-0.2040
11.05	-9.5028	-0.0599	-1.6649	0.0011	-0.0051	0.0045	15.5244	13.6451	21.2313	0.6095	0.2377	0.7282	-0.2040
11.06	-9.5070	-0.0570	-1.6591	0.0016	-0.0048	0.0065	15.6442	13.6652	21.2352	0.6095	0.2378	0.7283	-0.2041
11.07	-9.5140	-0.0531	-1.6595	0.0024	-0.0127	0.0118	15.4637	13.6994	21.3457	0.6095	0.2378	0.7282	-0.2040
11.08	-9.5076	-0.0495	-1.6544	0.0020	-0.0116	0.0056	15.4980	13.6378	21.2866	0.6095	0.2378	0.7282	-0.2041
11.09	-9.5029	-0.0445	-1.6554	0.0044	-0.0110	0.0076	15.6247	13.5477	21.4282	0.6095	0.2378	0.7282	-0.2041
11.1	-9.5190	-0.0462	-1.6610	0.0088	-0.0130	0.0088	15.6213	13.6945	21.2811	0.6095	0.2378	0.7282	-0.2041
11.11	-9.5087	-0.0513	-1.6610	0.0091	-0.0049	0.0046	15.6040	13.6846	21.2119	0.6095	0.2378	0.7282	-0.2041
11.12	-9.5089	-0.0529	-1.6566	-0.0053	-0.0075	0.0036	15.6822	13.6567	21.2546	0.6095	0.2378	0.7282	-0.2041
11.13	-9.5074	-0.0509	-1.6600	0.0035	-0.0118	0.0112	15.7964	13.4437	21.1285	0.6095	0.2378	0.7282	-0.2041
11.14	-9.5158	-0.0537	-1.6632	0.0042	-0.0124	0.0057	15.6572	13.6691	21.4227	0.6095	0.2378	0.7282	-0.2042
11.15	-9.5023	-0.0467	-1.6633	0.0069	-0.0055	0.0092	15.3910	13.6523	21.3123	0.6095	0.2379	0.7282	-0.2042
11.16	-9.5003	-0.0545	-1.6578	0.0053	-0.0120	0.0119	15.7149	13.4922	21.1002	0.6094	0.2379	0.7282	-0.2042
11.17	-9.5009	-0.0474	-1.6588	0.0044	-0.0142	0.0097	15.8608	13.7280	21.2017	0.6095	0.2379	0.7282	-0.2042
11.18	-9.4988	-0.0475	-1.6606	-0.0019	-0.0085	0.0000	15.6547	13.6726	21.1949	0.6095	0.2379	0.7282	-0.2042
11.19	-9.5072	-0.0469	-1.6603	0.0004	-0.0093	0.0009	15.6938	13.4227	21.1389	0.6095	0.2379	0.7283	-0.2042
11.2	-9.5091	-0.0445	-1.6636	0.0023	-0.0070	0.0038	15.4128	13.7546	21.1351	0.6094	0.2378	0.7282	-0.2042
11.21	-9.5026	-0.0520	-1.6736	-0.0005	-0.0068	0.0035	15.6032	13.7056	21.1623	0.6094	0.2378	0.7282	-0.2042
11.22	-9.5018	-0.0551	-1.6665	-0.0014	-0.0120	0.0077	15.6201	13.5833	21.2652	0.6094	0.2378	0.7282	-0.2042
11.23	-9.5041	-0.0665	-1.6579	0.0046	-0.0067	0.0051	15.6225	13.5231	21.2061	0.6094	0.2378	0.7282	-0.2042
11.24	-9.5042	-0.0658	-1.6842	0.0020	-0.0106	0.0039	15.6122	13.7908	21.3522	0.6094	0.2378	0.7283	-0.2043
11.25	-9.4906	-0.0620	-1.6684	0.0008	-0.0155	0.0083	15.6263	13.6281	21.2793	0.6094	0.2378	0.7282	-0.2043
11.26	-9.5026	-0.0672	-1.6690	0.0087	-0.0157	0.0129	15.6049	13.3368	21.1835	0.6095	0.2379	0.7282	-0.2043
11.27	-9.5064	-0.0605	-1.6786	0.0052	-0.0087	0.0102	15.7182	13.5819	21.0312	0.6094	0.2379	0.7281	-0.2043
11.28	-9.5032	-0.0613	-1.6683	-0.0022	-0.0126	0.0095	15.6818	13.6645	21.2075	0.6094	0.2379	0.7282	-0.2043
11.29	-9.5075	-0.0679	-1.6701	0.0024	-0.0087	0.0101	15.9152	13.6275	21.3809	0.6094	0.2379	0.7282	-0.2043
11.3	-9.5204	-0.0599	-1.6753	0.0091	-0.0051	0.0099	16.1520	13.7008	21.2350	0.6094	0.2379	0.7282	-0.2043
11.31	-9.5022	-0.0569	-1.6745	-0.0002	-0.0116	0.0068	15.9226	13.4102	21.2021	0.6094	0.2379	0.7282	-0.2043
11.32	-9.5059	-0.0572	-1.6721	-0.0017	-0.0182	0.0061	15.7340	13.5374	21.1130	0.6094	0.2379	0.7282	-0.2043
11.33	-9.5064	-0.0739	-1.6577	0.0044	-0.0095	0.0075	15.6376	13.6121	21.3555	0.6094	0.2379	0.7282	-0.2043
11.34	-9.5058	-0.0611	-1.6581	0.0006	-0.0043	0.0034	15.6857	13.4250	21.2807	0.6094	0.2379	0.7281	-0.2043
11.35	-9.5056	-0.0609	-1.6654	0.0034	-0.0067	0.0063	15.6764	13.5456	21.0312	0.6094	0.2379	0.7282	-0.2044
11.36	-9.5040	-0.0581	-1.6774	0.0012	-0.0098	0.0072	15.6834	13.5562	21.1361	0.6094	0.2379	0.7282	-0.2044
11.37	-9.5024	-0.0539	-1.6625	0.0007	-0.0053	0.0047	15.4160	13.6852	21.2401	0.6094	0.2379	0.7282	-0.2044
11.38	-9.5119	-0.0565	-1.6773	0.0034	-0.0056	0.0059	15.5305	13.7197	21.2670	0.6093	0.2379	0.7282	-0.2044
11.39	-9.5149	-0.0599	-1.6883	0.0014	-0.0085	0.0083	15.8250	13.6323	21.2320	0.6093	0.2379	0.7282	-0.2044
11.4	-9.5036	-0.0597	-1.6728	0.0028	-0.0086	0.0068	15.5161	13.5127	21.1316	0.6093	0.2379	0.7283	-0.2044
11.41	-9.5069	-0.0637	-1.6649	0.0026	-0.0041	-0.0001	15.5224	13.8104	21.2594	0.6092	0.2379	0.7282	-0.2044
11.42	-9.5119	-0.0593	-1.6638	0.0012	-0.0125	-0.0003	15.4964	13.6639	21.2446	0.6093	0.2379	0.7283	-0.2044
11.43	-9.5083	-0.0694	-1.6696	-0.0008	-0.0121	0.0047	15.6999	13.5762	21.1282	0.6093	0.2379	0.7283	-0.2044
11.44	-9.5047	-0.0841	-1.6695	0.0085	-0.0061	0.0066	15.5568	13.7049	21.2543	0.6093	0.2379	0.7283	-0.2045
11.45	-9.5032	-0.0663	-1.6662	0.0071	-0.0074	0.0055	15.4040	13.6004	21.2374	0.6092	0.2379	0.7282	-0.2045
