time	acceleration_x	acceleration_y	acceleration_z	gyroscope_x	gyroscope_y	gyroscope_z	magnetometer_x	magnetometer_y	magnetometer_z	quaternion_w	quaternion_x	quaternion_y	quaternion_z
0	-9.0356	-0.4474	3.0869	0.0346	0.0113	-0.0429	25.9039	3.7422	-14.7661	0.0855	0.5709	0.1035	-0.8099
0.01	-9.1317	-0.4693	3.0423	0.0341	0.0139	-0.0421	26.1993	3.8728	-14.9818	0.0854	0.5711	0.1032	-0.8099
0.02	-9.0402	-0.4767	3.0982	0.0308	0.0046	-0.0410	26.2523	4.0282	-14.8611	0.0853	0.5711	0.1030	-0.8099
0.03	-9.1508	-0.5040	3.0886	0.0290	0.0211	-0.0385	25.9761	4.1428	-14.8475	0.0852	0.5713	0.1028	-0.8098
0.04	-9.2438	-0.5091	3.1234	0.0264	0.0155	-0.0461	26.1437	4.1601	-14.8102	0.0851	0.5714	0.1026	-0.8098
0.05	-9.1689	-0.4688	3.1057	0.0359	-0.0097	-0.0432	26.1462	3.9920	-14.6362	0.0849	0.5714	0.1023	-0.8097
0.06	-9.0641	-0.4344	3.1274	0.0214	-0.0168	-0.0376	26.0333	3.9073	-14.9709	0.0849	0.5715	0.1021	-0.8099
0.07	-9.1977	-0.4700	3.0648	0.0103	0.0010	-0.0438	26.0624	3.7916	-14.8069	0.0848	0.5715	0.1020	-0.8098
0.08	-9.1831	-0.4568	3.0769	0.0090	-0.0347	-0.0581	25.7685	4.1607	-14.5351	0.0847	0.5714	0.1019	-0.8100
0.09	-9.1454	-0.4404	3.1334	0.0099	-0.0535	-0.0497	25.9578	4.2903	-14.5291	0.0846	0.5712	0.1017	-0.8100
0.1	-9.1775	-0.3966	3.0962	0.0082	-0.0592	-0.0427	26.4632	4.0342	-14.5112	0.0846	0.5710	0.1016	-0.8102
0.11	-9.0685	-0.2896	3.0661	0.0098	-0.0701	-0.0476	26.3030	3.9864	-14.5701	0.0846	0.5708	0.1014	-0.8104
0.12	-9.0167	-0.1829	3.0805	-0.0102	-0.0483	-0.0585	26.0405	4.0109	-14.8378	0.0845	0.5706	0.1014	-0.8105
0.13	-9.0931	-0.1525	3.0346	-0.0416	-0.0408	-0.0697	25.9401	3.9481	-14.7393	0.0845	0.5705	0.1015	-0.8107
0.14	-9.0416	-0.1956	3.1090	-0.0726	-0.0613	-0.0949	25.7893	3.7255	-14.7543	0.0845	0.5702	0.1018	-0.8107
0.15	-9.1558	-0.3259	3.1419	-0.0941	-0.0609	-0.1041	25.9167	3.7644	-14.7086	0.0845	0.5700	0.1022	-0.8109
0.16	-9.1459	-0.4484	3.1662	-0.1059	-0.0954	-0.0966	25.9044	4.0261	-14.8481	0.0846	0.5695	0.1026	-0.8110
0.17	-9.0040	-0.5421	3.1799	-0.1173	-0.1150	-0.1011	25.9425	4.0765	-14.8140	0.0848	0.5691	0.1031	-0.8114
0.18	-8.9147	-0.6093	3.1349	-0.1223	-0.1134	-0.1012	26.0238	3.7705	-14.8767	0.0849	0.5686	0.1037	-0.8116
0.19	-8.8048	-0.6698	3.1436	-0.1253	-0.1023	-0.0875	25.9941	3.6810	-14.9476	0.0851	0.5681	0.1041	-0.8119
0.2	-8.8637	-0.7251	3.0984	-0.1096	-0.0688	-0.0670	26.0092	3.9706	-14.7979	0.0853	0.5678	0.1046	-0.8120
0.21	-8.8492	-0.7199	3.0743	-0.0967	-0.0700	-0.0616	25.8740	4.0920	-15.0008	0.0855	0.5675	0.1049	-0.8122
0.22	-8.8468	-0.7053	3.1168	-0.1053	-0.0643	-0.0501	25.9904	4.1112	-14.7963	0.0858	0.5673	0.1052	-0.8123
0.23	-8.9419	-0.6994	3.1303	-0.0996	-0.0519	-0.0595	26.0200	3.9528	-15.0266	0.0860	0.5670	0.1055	-0.8123
0.24	-8.9315	-0.7241	3.1416	-0.0960	-0.0673	-0.0622	25.9836	4.1764	-15.1069	0.0862	0.5668	0.1058	-0.8125
0.25	-8.9154	-0.7695	3.2263	-0.0946	-0.0683	-0.0644	25.8929	4.0348	-15.0078	0.0864	0.5665	0.1062	-0.8126
0.26	-8.9977	-0.7778	3.2152	-0.0941	-0.0539	-0.0618	25.9371	3.8442	-15.2296	0.0866	0.5663	0.1065	-0.8128
0.27	-8.9421	-0.7801	3.2159	-0.0843	-0.0658	-0.0577	25.8085	4.0126	-15.1793	0.0868	0.5660	0.1067	-0.8128
0.28	-8.8924	-0.7868	3.2234	-0.0778	-0.0577	-0.0506	25.8399	4.0191	-15.0974	0.0870	0.5657	0.1070	-0.8130
0.29	-8.8817	-0.7705	3.2134	-0.0611	-0.0504	-0.0486	25.7928	4.2785	-15.1199	0.0871	0.5656	0.1071	-0.8131
0.3	-8.8568	-0.7604	3.1911	-0.0515	-0.0435	-0.0436	25.6142	4.2539	-15.1081	0.0872	0.5654	0.1072	-0.8131
0.31	-8.8272	-0.7216	3.2118	-0.0438	-0.0301	-0.0420	25.7921	4.1392	-15.2230	0.0874	0.5653	0.1073	-0.8132
0.32	-8.8531	-0.6827	3.2305	-0.0430	-0.0136	-0.0412	25.8074	4.3658	-15.2054	0.0875	0.5653	0.1073	-0.8132
0.33	-8.8773	-0.6456	3.2717	-0.0419	0.0017	-0.0359	25.6859	4.2079	-15.1809	0.0876	0.5653	0.1074	-0.8132
0.34	-8.9254	-0.6363	3.2786	-0.0412	0.0081	-0.0303	25.9539	4.0658	-14.8661	0.0877	0.5653	0.1074	-0.8131
0.35	-8.9041	-0.6495	3.2778	-0.0495	-0.0039	-0.0203	25.7662	4.1861	-15.0025	0.0879	0.5654	0.1075	-0.8131
0.36	-8.8977	-0.6799	3.2774	-0.0475	0.0093	-0.0159	25.7535	3.9940	-15.3431	0.0881	0.5655	0.1075	-0.8130
0.37	-8.9225	-0.7280	3.2713	-0.0501	0.0151	-0.0114	25.9531	3.9794	-15.1893	0.0884	0.5655	0.1075	-0.8128
0.38	-8.9962	-0.7742	3.2630	-0.0453	0.0158	-0.0110	25.8716	4.0194	-15.2040	0.0886	0.5657	0.1075	-0.8129
0.39	-8.9726	-0.7932	3.2412	-0.0341	0.0025	-0.0107	25.8652	4.0666	-15.2039	0.0888	0.5657	0.1075	-0.8127
0.4	-8.8945	-0.8118	3.2515	-0.0177	0.0057	-0.0005	25.8999	3.9464	-15.1960	0.0890	0.5658	0.1073	-0.8127
0.41	-9.0298	-0.8179	3.2284	-0.0056	0.0181	0.0011	25.6141	4.1002	-15.2072	0.0891	0.5659	0.1071	-0.8125
0.42	-9.0079	-0.7716	3.2197	0.0116	0.0004	-0.0019	25.7718	4.0661	-15.3100	0.0893	0.5660	0.1069	-0.8126
0.43	-8.9121	-0.7498	3.2493	0.0286	-0.0011	-0.0069	25.7157	4.0878	-15.2944	0.0893	0.5661	0.1066	-0.8125
0.44	-8.9405	-0.7339	3.2320	0.0383	-0.0014	-0.0101	25.8003	4.0677	-15.2949	0.0893	0.5662	0.1062	-0.8125
0.45	-8.9072	-0.6752	3.2541	0.0416	0.0050	-0.0262	25.9614	4.0958	-15.2147	0.0892	0.5663	0.1059	-0.8125
0.46	-8.9502	-0.6283	3.2619	0.0606	0.0159	-0.0353	25.8427	4.0547	-15.0184	0.0891	0.5664	0.1056	-0.8125
0.47	-8.8873	-0.5632	3.2524	0.0649	0.0072	-0.0329	25.6820	4.1514	-15.0976	0.0889	0.5665	0.1052	-0.8125
0.48	-8.8241	-0.5383	3.2555	0.0622	0.0248	-0.0384	25.8577	4.1760	-15.0984	0.0887	0.5666	0.1048	-0.8124
0.49	-8.8687	-0.5218	3.2126	0.0601	0.0370	-0.0500	25.6962	4.0673	-15.1598	0.0884	0.5669	0.1045	-0.8124
0.5	-8.8716	-0.4922	3.2215	0.0634	0.0526	-0.0514	25.7937	4.0542	-15.3120	0.0882	0.5672	0.1042	-0.8122
0.51	-9.0211	-0.4849	3.2231	0.0605	0.0745	-0.0552	25.8469	3.9330	-15.0800	0.0879	0.5675	0.1039	-0.8120
0.52	-9.1315	-0.4727	3.1946	0.0607	0.0618	-0.0635	25.8074	4.2239	-15.1255	0.0876	0.5678	0.1037	-0.8119
0.53	-9.0828	-0.4631	3.1860	0.0598	0.0437	-0.0666	25.8569	4.1054	-14.9828	0.0873	0.5681	0.1034	-0.8118
0.54	-9.0913	-0.4506	3.1781	0.0611	0.0446	-0.0628	25.7721	3.9100	-15.0445	0.0869	0.5683	0.1031	-0.8117
0.55	-9.1703	-0.4351	3.1641	0.0520	0.0422	-0.0643	26.0206	3.8367	-14.9248	0.0867	0.5685	0.1029	-0.8115
0.56	-9.2125	-0.4355	3.1639	0.0424	0.0297	-0.0769	26.0753	3.6983	-14.7909	0.0864	0.5688	0.1027	-0.8115
0.57	-9.1613	-0.4314	3.1521	0.0380	0.0033	-0.0756	25.8664	3.9209	-15.0355	0.0861	0.5688	0.1026	-0.8115
0.58	-9.0728	-0.4283	3.1626	0.0334	-0.0124	-0.0733	25.9317	3.8290	-14.8885	0.0858	0.5689	0.1024	-0.8116
0.59	-9.0771	-0.4389	3.1486	0.0234	-0.0139	-0.0792	25.9781	3.8204	-14.6125	0.0856	0.5688	0.1023	-0.8115
0.6	-9.0543	-0.4519	3.1545	0.0132	-0.0169	-0.0775	26.3976	3.9285	-14.6419	0.0854	0.5688	0.1022	-0.8117
0.61	-9.0120	-0.4487	3.1767	0.0111	-0.0195	-0.0697	26.2778	3.9314	-14.6838	0.0852	0.5687	0.1022	-0.8117
0.62	-9.0184	-0.4243	3.1867	0.0063	-0.0182	-0.0633	26.0477	4.1274	-14.9666	0.0851	0.5686	0.1021	-0.8117
0.63	-9.0135	-0.4023	3.1911	-0.0119	-0.0189	-0.0587	25.9085	4.0097	-15.0960	0.0851	0.5687	0.1021	-0.8119
0.64	-9.0293	-0.3878	3.2120	-0.0160	-0.0135	-0.0548	25.7877	3.9622	-14.9074	0.0850	0.5686	0.1021	-0.8118
0.65	-9.0630	-0.3898	3.2099	-0.0323	-0.0123	-0.0599	25.7498	3.8021	-14.9036	0.0850	0.5686	0.1021	-0.8119
0.66	-9.0044	-0.3978	3.2228	-0.0448	-0.0217	-0.0661	25.5687	3.9072	-14.7691	0.0850	0.5685	0.1023	-0.8118
0.67	-9.0034	-0.4545	3.2305	-0.0578	-0.0243	-0.0640	25.8712	4.0112	-14.8441	0.0851	0.5684	0.1024	-0.8119
0.68	-9.0357	-0.5115	3.2339	-0.0651	-0.0241	-0.0643	25.8485	3.9866	-15.0323	0.0852	0.5683	0.1027	-0.8119
0.69	-9.0541	-0.5541	3.2515	-0.0589	-0.0224	-0.0709	25.6821	3.9886	-14.9418	0.0852	0.5682	0.1029	-0.8119
0.7	-9.0387	-0.5819	3.2443	-0.0502	-0.0296	-0.0745	25.7153	3.9992	-15.1124	0.0852	0.5681	0.1031	-0.8120
0.71	-8.9662	-0.6080	3.2645	-0.0464	-0.0270	-0.0787	25.6711	3.9721	-14.8945	0.0852	0.5680	0.1032	-0.8120
0.72	-8.9849	-0.6443	3.2734	-0.0426	-0.0276	-0.0752	25.7779	4.2661	-14.9383	0.0852	0.5680	0.1034	-0.8121
0.73	-8.9991	-0.6715	3.2850	-0.0429	-0.0239	-0.0781	25.7852	4.0998	-15.0987	0.0851	0.5678	0.1035	-0.8121
0.74	-8.9771	-0.6862	3.2992	-0.0379	-0.0265	-0.0746	25.8059	3.7420	-15.0460	0.0851	0.5678	0.1037	-0.8122
0.75	-8.9168	-0.6906	3.2946	-0.0379	-0.0313	-0.0743	25.8873	4.0305	-14.9430	0.0851	0.5676	0.1038	-0.8123
0.76	-8.8604	-0.6955	3.2891	-0.0292	-0.0212	-0.0763	25.6442	3.8955	-15.0648	0.0850	0.5676	0.1039	-0.8123
0.77	-8.8873	-0.7082	3.2691	-0.0190	-0.0017	-0.0704	25.9257	3.9120	-15.0794	0.0849	0.5676	0.1040	-0.8123
0.78	-8.8669	-0.7168	3.2556	-0.0069	-0.0114	-0.0783	25.8213	4.0101	-15.0614	0.0848	0.5675	0.1040	-0.8123
0.79	-8.8476	-0.7285	3.2851	0.0022	-0.0092	-0.0702	25.8229	4.1821	-15.0941	0.0846	0.5675	0.1040	-0.8124
0.8	-8.9007	-0.7146	3.2546	0.0050	0.0068	-0.0601	25.9215	4.0623	-15.0414	0.0845	0.5676	0.1039	-0.8123
0.81	-8.8447	-0.6445	3.2570	0.0105	0.0007	-0.0598	25.8282	4.2113	-15.2327	0.0844	0.5677	0.1038	-0.8124
0.82	-8.8483	-0.5862	3.2404	0.0069	0.0184	-0.0538	25.8236	4.2256	-15.2121	0.0843	0.5677	0.1037	-0.8123
0.83	-8.8995	-0.5460	3.2362	0.0034	0.0325	-0.0559	25.9104	4.1445	-14.9333	0.0842	0.5680	0.1037	-0.8122
0.84	-8.9683	-0.5300	3.2356	-0.0110	0.0325	-0.0597	25.7817	4.1775	-15.1198	0.0841	0.5681	0.1037	-0.8120
0.85	-8.9914	-0.5210	3.2559	-0.0127	0.0324	-0.0610	25.7720	4.0526	-14.7834	0.0840	0.5683	0.1037	-0.8120
0.86	-9.0519	-0.5417	3.2440	-0.0166	0.0369	-0.0630	25.6630	4.2888	-15.0686	0.0839	0.5684	0.1037	-0.8118
0.87	-9.0930	-0.5474	3.2283	-0.0258	0.0264	-0.0670	25.7835	4.4567	-15.0010	0.0839	0.5685	0.1038	-0.8117
0.88	-9.0763	-0.5703	3.2251	-0.0426	0.0164	-0.0658	25.9125	4.3105	-14.9980	0.0839	0.5687	0.1040	-0.8117
0.89	-9.0461	-0.5926	3.1999	-0.0410	0.0085	-0.0642	25.6916	4.1084	-14.9365	0.0838	0.5687	0.1041	-0.8116
0.9	-9.0333	-0.6297	3.1979	-0.0391	0.0002	-0.0599	25.7814	4.2525	-14.9201	0.0839	0.5688	0.1042	-0.8116
0.91	-9.0265	-0.6434	3.1619	-0.0397	-0.0120	-0.0565	25.7719	4.2635	-15.1245	0.0839	0.5687	0.1043	-0.8115
0.92	-8.9562	-0.6388	3.1659	-0.0424	-0.0136	-0.0582	25.9505	4.1309	-14.9183	0.0839	0.5687	0.1044	-0.8116
0.93	-8.9678	-0.6629	3.1572	-0.0418	-0.0019	-0.0514	26.0790	3.8758	-14.8844	0.0840	0.5687	0.1045	-0.8116
0.94	-9.0460	-0.6917	3.1558	-0.0426	0.0037	-0.0556	26.0763	4.0461	-14.8724	0.0840	0.5687	0.1046	-0.8115
0.95	-9.0700	-0.6857	3.1728	-0.0416	-0.0027	-0.0470	25.8282	4.2117	-15.0128	0.0841	0.5687	0.1047	-0.8115
0.96	-9.0694	-0.6889	3.1750	-0.0419	-0.0107	-0.0457	25.9682	4.1200	-14.8118	0.0842	0.5687	0.1047	-0.8115
0.97	-9.0396	-0.6891	3.1948	-0.0410	-0.0252	-0.0507	26.0540	4.2733	-15.0641	0.0843	0.5687	0.1048	-0.8115
0.98	-9.0420	-0.7018	3.2033	-0.0395	-0.0209	-0.0488	25.8365	4.1525	-15.0002	0.0843	0.5685	0.1049	-0.8115
0.99	-9.0467	-0.6954	3.2206	-0.0429	-0.0286	-0.0448	25.9051	4.0969	-14.8634	0.0844	0.5685	0.1050	-0.8116
1	-8.9787	-0.6583	3.2166	-0.0410	-0.0492	-0.0388	25.8454	4.3205	-15.0755	0.0845	0.5683	0.1050	-0.8117
1.01	-8.9237	-0.6524	3.2160	-0.0438	-0.0432	-0.0371	25.6910	4.1684	-15.0808	0.0847	0.5682	0.1050	-0.8118
1.02	-8.9321	-0.6285	3.2318	-0.0431	-0.0318	-0.0366	25.7155	4.0626	-15.0714	0.0848	0.5681	0.1051	-0.8118
1.03	-8.9504	-0.5993	3.2234	-0.0515	-0.0247	-0.0286	25.6602	4.1060	-14.9572	0.0850	0.5680	0.1051	-0.8118
1.04	-8.9464	-0.5936	3.2416	-0.0570	-0.0299	-0.0246	25.6228	4.1930	-15.0042	0.0852	0.5679	0.1052	-0.8119
1.05	-8.9646	-0.5965	3.2440	-0.0675	-0.0197	-0.0212	25.8374	4.1538	-14.9657	0.0855	0.5678	0.1053	-0.8118
1.06	-8.9558	-0.6172	3.2315	-0.0683	-0.0165	-0.0199	25.6384	4.0789	-15.0064	0.0858	0.5679	0.1054	-0.8119
1.07	-8.9037	-0.6441	3.2276	-0.0737	-0.0110	-0.0185	25.6413	4.0619	-15.1005	0.0860	0.5678	0.1055	-0.8118
1.08	-8.9556	-0.6728	3.2453	-0.0731	0.0099	-0.0176	25.7629	4.1321	-15.0266	0.0863	0.5679	0.1057	-0.8118
1.09	-9.1179	-0.7226	3.2129	-0.0706	0.0096	-0.0300	25.9829	4.3531	-14.8408	0.0865	0.5679	0.1058	-0.8116
1.1	-9.0244	-0.7367	3.2188	-0.0661	-0.0224	-0.0330	26.3178	4.4840	-15.1085	0.0868	0.5679	0.1060	-0.8117
1.11	-8.9536	-0.7650	3.2228	-0.0480	-0.0210	-0.0305	26.1539	4.5038	-15.3083	0.0869	0.5678	0.1060	-0.8117
1.12	-8.9902	-0.7882	3.2137	-0.0436	-0.0105	-0.0303	26.0735	4.2977	-14.9465	0.0871	0.5678	0.1060	-0.8116
1.13	-9.0408	-0.7893	3.2349	-0.0361	-0.0041	-0.0365	25.9207	4.1530	-15.0028	0.0872	0.5679	0.1061	-0.8117
1.14	-9.0388	-0.7967	3.2140	-0.0217	-0.0218	-0.0414	25.9255	4.0589	-15.2137	0.0872	0.5678	0.1061	-0.8116
1.15	-8.9458	-0.8123	3.2356	-0.0172	-0.0312	-0.0465	25.8286	4.2002	-15.0032	0.0873	0.5677	0.1060	-0.8118
1.16	-8.9380	-0.8228	3.2150	-0.0091	-0.0287	-0.0493	25.7952	4.1857	-15.2495	0.0873	0.5676	0.1060	-0.8117
1.17	-8.9045	-0.8195	3.2041	0.0053	-0.0251	-0.0610	25.6966	4.2211	-15.3150	0.0872	0.5675	0.1059	-0.8119
1.18	-8.8778	-0.8061	3.1898	0.0172	-0.0131	-0.0566	25.7506	4.1275	-15.0162	0.0870	0.5675	0.1058	-0.8119
1.19	-8.9176	-0.8064	3.1917	0.0250	-0.0003	-0.0600	25.9055	4.1651	-15.0644	0.0869	0.5675	0.1056	-0.8119
1.2	-8.9650	-0.7800	3.1626	0.0347	0.0068	-0.0638	25.8952	4.3161	-15.0205	0.0867	0.5676	0.1054	-0.8119
1.21	-8.9490	-0.7369	3.1679	0.0321	0.0147	-0.0662	25.6237	4.1380	-15.0874	0.0864	0.5677	0.1053	-0.8119
1.22	-9.0018	-0.7185	3.1678	0.0352	0.0254	-0.0622	25.6736	4.2837	-15.1631	0.0862	0.5679	0.1051	-0.8118
1.23	-9.0629	-0.6926	3.1540	0.0349	0.0269	-0.0682	25.8244	4.2805	-15.0584	0.0860	0.5680	0.1049	-0.8117
1.24	-9.0684	-0.6715	3.1457	0.0338	0.0153	-0.0605	25.7952	4.3011	-14.8978	0.0858	0.5682	0.1048	-0.8117
1.25	-9.0478	-0.6518	3.1331	0.0377	0.0091	-0.0601	25.6560	4.2440	-15.0621	0.0856	0.5682	0.1046	-0.8117
1.26	-9.0837	-0.6390	3.1404	0.0379	0.0122	-0.0541	25.5991	4.1573	-15.1861	0.0854	0.5684	0.1044	-0.8117
1.27	-9.1023	-0.6136	3.1275	0.0324	0.0040	-0.0470	25.7428	4.3218	-14.9304	0.0852	0.5684	0.1041	-0.8116
1.28	-9.0701	-0.5758	3.1349	0.0351	-0.0163	-0.0435	25.8136	4.2426	-14.9382	0.0851	0.5684	0.1039	-0.8117
1.29	-9.0834	-0.5548	3.1299	0.0320	-0.0153	-0.0388	25.8327	3.9912	-14.8101	0.0850	0.5684	0.1036	-0.8118
1.3	-9.0730	-0.5420	3.1238	0.0291	-0.0174	-0.0398	26.0214	4.1239	-14.9493	0.0849	0.5684	0.1034	-0.8117
1.31	-9.0466	-0.5394	3.1258	0.0141	-0.0256	-0.0377	25.8373	4.0979	-15.0678	0.0849	0.5684	0.1032	-0.8119
1.32	-9.0352	-0.5425	3.1355	0.0061	-0.0248	-0.0365	26.1423	4.1387	-14.9954	0.0849	0.5683	0.1031	-0.8119
1.33	-9.0712	-0.5486	3.1505	0.0087	-0.0220	-0.0362	26.0633	4.0338	-14.9204	0.0849	0.5683	0.1029	-0.8120
1.34	-9.0809	-0.5482	3.1568	0.0122	-0.0394	-0.0377	25.7545	4.0163	-14.9622	0.0848	0.5682	0.1027	-0.8120
1.35	-9.0167	-0.5429	3.1778	0.0075	-0.0562	-0.0414	25.9524	4.2510	-15.1759	0.0848	0.5680	0.1026	-0.8122
1.36	-9.0145	-0.5442	3.1878	0.0096	-0.0478	-0.0400	25.8234	4.1628	-14.9147	0.0848	0.5679	0.1024	-0.8123
1.37	-9.0216	-0.5319	3.1983	0.0086	-0.0557	-0.0427	25.7910	4.2480	-15.0683	0.0848	0.5677	0.1022	-0.8124
1.38	-8.9960	-0.5157	3.2057	0.0072	-0.0577	-0.0423	25.8259	3.9442	-14.9044	0.0848	0.5676	0.1021	-0.8127
1.39	-8.9491	-0.4943	3.2165	-0.0027	-0.0568	-0.0508	25.7625	4.1398	-14.8742	0.0847	0.5673	0.1020	-0.8127
1.4	-8.9505	-0.4676	3.2295	-0.0022	-0.0441	-0.0498	25.6982	4.1699	-15.0258	0.0847	0.5672	0.1019	-0.8129
1.41	-8.9790	-0.4547	3.2277	-0.0079	-0.0348	-0.0561	25.7246	3.9924	-15.1481	0.0847	0.5670	0.1018	-0.8129
1.42	-8.9572	-0.4565	3.2305	-0.0227	-0.0388	-0.0572	25.7076	4.1383	-15.2189	0.0847	0.5669	0.1018	-0.8131
1.43	-8.9409	-0.4660	3.2394	-0.0349	-0.0312	-0.0551	25.9019	4.0997	-15.1064	0.0847	0.5668	0.1019	-0.8131
1.44	-8.9706	-0.4906	3.2420	-0.0385	-0.0314	-0.0566	25.8328	4.1107	-15.1399	0.0847	0.5667	0.1020	-0.8132
1.45	-8.9583	-0.5020	3.2452	-0.0424	-0.0375	-0.0521	25.6014	4.1144	-15.1443	0.0848	0.5666	0.1021	-0.8133
1.46	-8.9455	-0.5023	3.2477	-0.0455	-0.0346	-0.0458	25.4943	4.2167	-15.1030	0.0849	0.5665	0.1021	-0.8133
1.47	-8.9689	-0.5093	3.2471	-0.0528	-0.0314	-0.0498	25.6570	4.1936	-15.0247	0.0850	0.5664	0.1023	-0.8134
1.48	-8.9571	-0.5024	3.2452	-0.0640	-0.0281	-0.0469	25.8270	4.1456	-15.0416	0.0852	0.5662	0.1024	-0.8133
1.49	-8.9538	-0.5197	3.2526	-0.0676	-0.0259	-0.0491	25.8986	3.7440	-15.1541	0.0853	0.5662	0.1026	-0.8134
1.5	-8.9666	-0.5571	3.2596	-0.0687	-0.0299	-0.0510	25.8767	3.8256	-15.2493	0.0855	0.5661	0.1028	-0.8134
1.51	-8.9908	-0.5985	3.2583	-0.0690	-0.0216	-0.0592	25.6798	4.1086	-15.1613	0.0856	0.5660	0.1030	-0.8135
1.52	-8.9964	-0.6387	3.2572	-0.0687	-0.0264	-0.0574	25.8435	4.1230	-15.0064	0.0857	0.5659	0.1032	-0.8135
1.53	-8.9632	-0.6616	3.2468	-0.0578	-0.0293	-0.0546	25.8729	4.2049	-15.0918	0.0858	0.5658	0.1034	-0.8135
1.54	-8.9301	-0.6641	3.2413	-0.0509	-0.0255	-0.0545	25.7899	4.0169	-15.1370	0.0859	0.5657	0.1035	-0.8136
1.55	-8.9571	-0.6611	3.2459	-0.0549	-0.0240	-0.0524	25.7428	4.0370	-15.1451	0.0860	0.5656	0.1036	-0.8135
1.56	-8.9561	-0.6472	3.2540	-0.0445	-0.0302	-0.0559	25.5813	3.8008	-15.0932	0.0861	0.5655	0.1038	-0.8137
1.57	-8.9656	-0.6576	3.3077	-0.0428	-0.0268	-0.0605	25.8280	4.0456	-14.9101	0.0861	0.5654	0.1039	-0.8137
1.58	-9.0347	-0.6733	3.2907	-0.0432	-0.0207	-0.0566	25.7124	4.1860	-15.2087	0.0861	0.5654	0.1040	-0.8138
1.59	-8.9565	-0.6698	3.2950	-0.0436	-0.0346	-0.0566	25.8126	4.2987	-14.8304	0.0862	0.5652	0.1041	-0.8137
1.6	-8.9227	-0.6819	3.2794	-0.0352	-0.0237	-0.0477	25.9092	4.2795	-14.6184	0.0863	0.5652	0.1041	-0.8138
1.61	-8.9239	-0.6555	3.2672	-0.0171	-0.0246	-0.0440	25.7325	4.3149	-14.7750	0.0863	0.5651	0.1041	-0.8139
1.62	-8.9510	-0.6122	3.2736	-0.0194	-0.0154	-0.0407	25.8990	4.3318	-15.0673	0.0863	0.5650	0.1041	-0.8139
1.63	-8.9579	-0.5670	3.2530	-0.0162	-0.0132	-0.0372	25.5723	4.2811	-15.0662	0.0864	0.5651	0.1040	-0.8140
1.64	-8.9283	-0.5335	3.2599	-0.0172	-0.0057	-0.0447	25.4314	4.2849	-15.2162	0.0864	0.5650	0.1040	-0.8139
1.65	-9.0005	-0.5459	3.2496	-0.0215	0.0036	-0.0436	25.6408	4.1450	-15.2417	0.0864	0.5651	0.1040	-0.8139
1.66	-9.0078	-0.5754	3.2550	-0.0209	-0.0165	-0.0459	25.5681	4.0511	-15.2223	0.0864	0.5650	0.1039	-0.8138
1.67	-8.9824	-0.5983	3.2605	-0.0171	-0.0281	-0.0488	26.0086	4.0371	-15.2350	0.0865	0.5650	0.1039	-0.8140
1.68	-8.9944	-0.6093	3.2431	-0.0165	-0.0260	-0.0541	26.0377	4.0771	-15.3878	0.0865	0.5649	0.1039	-0.8140
1.69	-8.9901	-0.6122	3.2577	-0.0172	-0.0243	-0.0565	26.1771	3.9684	-15.1289	0.0864	0.5648	0.1039	-0.8140
1.7	-8.9982	-0.6145	3.2374	-0.0122	-0.0173	-0.0602	25.8232	3.8758	-15.1367	0.0864	0.5648	0.1039	-0.8141
1.71	-8.9603	-0.6010	3.2469	-0.0096	-0.0277	-0.0628	25.8135	3.9775	-15.2530	0.0863	0.5647	0.1039	-0.8141
1.72	-8.9682	-0.5910	3.2381	-0.0028	-0.0227	-0.0613	25.9013	3.9676	-15.2137	0.0862	0.5647	0.1038	-0.8142
1.73	-8.9526	-0.5836	3.2546	-0.0100	-0.0290	-0.0636	25.8797	3.9393	-15.2359	0.0862	0.5645	0.1038	-0.8142
1.74	-8.9903	-0.6017	3.2657	-0.0160	-0.0152	-0.0671	25.7473	4.0109	-15.1101	0.0861	0.5646	0.1038	-0.8143
1.75	-8.9896	-0.6127	3.2655	-0.0173	-0.0253	-0.0664	25.8832	4.0040	-15.1515	0.0860	0.5645	0.1039	-0.8143
1.76	-8.9715	-0.6179	3.2880	-0.0169	-0.0228	-0.0614	26.0286	3.9989	-15.1105	0.0860	0.5644	0.1039	-0.8144
1.77	-9.0011	-0.6367	3.2747	-0.0223	-0.0133	-0.0648	25.7545	4.2545	-15.2536	0.0859	0.5644	0.1039	-0.8144
1.78	-9.0075	-0.6769	3.2545	-0.0224	-0.0227	-0.0595	25.6731	4.1087	-15.3381	0.0859	0.5643	0.1040	-0.8145
1.79	-8.9528	-0.6901	3.2329	-0.0180	-0.0233	-0.0537	25.5699	4.3275	-15.1162	0.0859	0.5643	0.1040	-0.8145
1.8	-8.8764	-0.6920	3.2384	-0.0164	-0.0215	-0.0476	25.7198	4.3007	-15.2522	0.0859	0.5641	0.1039	-0.8145
1.81	-8.9966	-0.6826	3.2327	-0.0217	-0.0093	-0.0499	25.6870	4.3241	-15.1080	0.0859	0.5642	0.1039	-0.8146
1.82	-9.0173	-0.6582	3.2372	-0.0159	-0.0224	-0.0525	25.5821	4.2988	-15.0410	0.0859	0.5641	0.1039	-0.8146
1.83	-8.9503	-0.6697	3.2506	-0.0172	-0.0278	-0.0533	25.6776	4.3389	-15.0423	0.0859	0.5641	0.1039	-0.8147
1.84	-8.9659	-0.7191	3.2279	-0.0168	-0.0210	-0.0459	25.8124	4.2059	-15.1472	0.0859	0.5640	0.1039	-0.8147
1.85	-9.0079	-0.7246	3.2457	-0.0128	-0.0205	-0.0424	25.8802	4.1310	-15.2500	0.0859	0.5640	0.1038	-0.8147
1.86	-9.0587	-0.6854	3.2494	0.0044	-0.0225	-0.0419	25.7302	3.9403	-15.2199	0.0859	0.5639	0.1037	-0.8148
1.87	-9.0096	-0.6471	3.2617	0.0077	-0.0353	-0.0426	25.9127	4.0680	-15.2266	0.0859	0.5638	0.1035	-0.8148
1.88	-9.0092	-0.6156	3.2764	0.0093	-0.0300	-0.0487	25.7400	4.0062	-15.2347	0.0858	0.5638	0.1034	-0.8150
1.89	-9.0235	-0.6118	3.2780	-0.0018	-0.0330	-0.0454	26.0156	4.0215	-15.3560	0.0858	0.5636	0.1033	-0.8150
1.9	-8.9853	-0.6195	3.2915	-0.0150	-0.0482	-0.0482	26.0107	4.1867	-15.2590	0.0858	0.5635	0.1033	-0.8152
1.91	-8.9750	-0.6247	3.2922	-0.0162	-0.0527	-0.0510	25.9459	4.1126	-15.1242	0.0858	0.5633	0.1032	-0.8152
1.92	-8.9523	-0.6364	3.2950	-0.0153	-0.0536	-0.0498	26.0887	4.2610	-15.0328	0.0858	0.5631	0.1032	-0.8154
1.93	-8.9264	-0.6610	3.3143	-0.0247	-0.0487	-0.0461	25.8726	4.0422	-15.2284	0.0859	0.5630	0.1032	-0.8155
1.94	-8.9128	-0.6930	3.3015	-0.0307	-0.0510	-0.0467	25.8929	4.0527	-15.2182	0.0860	0.5628	0.1032	-0.8156
1.95	-8.8757	-0.7136	3.3161	-0.0314	-0.0437	-0.0501	25.7742	4.1301	-15.2499	0.0860	0.5626	0.1032	-0.8157
1.96	-8.8781	-0.7270	3.3159	-0.0234	-0.0401	-0.0501	25.8040	4.3009	-15.1935	0.0861	0.5625	0.1032	-0.8158
1.97	-8.8892	-0.7314	3.3219	-0.0404	-0.0341	-0.0499	25.7532	4.2645	-15.1170	0.0861	0.5624	0.1033	-0.8159
1.98	-8.8686	-0.7252	3.3269	-0.0279	-0.0266	-0.0475	25.5757	4.1902	-15.2230	0.0862	0.5622	0.1033	-0.8159
1.99	-8.8632	-0.7245	3.3353	-0.0187	-0.0214	-0.0407	25.6593	4.3633	-15.2728	0.0862	0.5623	0.1033	-0.8160
2	-8.8943	-0.7320	3.3356	-0.0242	-0.0194	-0.0466	25.6756	4.2417	-15.3079	0.0863	0.5622	0.1033	-0.8160
2.01	-8.8921	-0.7307	3.3449	-0.0134	-0.0231	-0.0515	25.5711	4.2241	-15.1734	0.0862	0.5622	0.1032	-0.8160
2.02	-8.9130	-0.7287	3.3483	-0.0151	-0.0163	-0.0440	25.7288	4.2136	-15.4703	0.0863	0.5621	0.1032	-0.8160
2.03	-8.9135	-0.7202	3.3466	-0.0177	-0.0234	-0.0383	25.8072	4.1299	-15.2358	0.0863	0.5621	0.1031	-0.8161
2.04	-8.9101	-0.7209	3.3413	-0.0187	-0.0250	-0.0359	25.7714	4.2966	-15.2778	0.0864	0.5620	0.1031	-0.8162
2.05	-8.9210	-0.7059	3.3325	-0.0078	-0.0129	-0.0383	25.8767	4.0316	-15.4289	0.0864	0.5619	0.1030	-0.8161
2.06	-8.9265	-0.6988	3.3329	-0.0082	-0.0129	-0.0327	25.8814	3.9596	-15.3002	0.0864	0.5620	0.1029	-0.8162
2.07	-8.9261	-0.6921	3.3256	0.0036	-0.0145	-0.0362	25.8817	4.0999	-15.1721	0.0864	0.5620	0.1028	-0.8162
2.08	-8.9372	-0.6830	3.3395	-0.0001	-0.0182	-0.0295	25.8649	4.2174	-15.3625	0.0865	0.5620	0.1026	-0.8163
2.09	-8.9622	-0.6736	3.3162	0.0012	-0.0064	-0.0271	26.0449	4.2357	-15.1085	0.0865	0.5619	0.1025	-0.8162
2.1	-8.9492	-0.6590	3.3279	0.0054	-0.0218	-0.0333	26.4609	4.1116	-14.9303	0.0865	0.5619	0.1023	-0.8163
2.11	-8.9770	-0.6453	3.3251	0.0037	-0.0106	-0.0268	26.2757	4.1684	-15.1213	0.0865	0.5619	0.1022	-0.8163
2.12	-8.9606	-0.6304	3.3225	0.0094	-0.0105	-0.0358	25.8719	3.9846	-15.3231	0.0865	0.5619	0.1020	-0.8162
2.13	-8.9639	-0.6154	3.3273	0.0068	-0.0174	-0.0272	25.8886	4.1448	-15.4056	0.0866	0.5620	0.1018	-0.8164
2.14	-8.9807	-0.5811	3.3299	0.0093	-0.0183	-0.0342	25.5581	4.2989	-15.3361	0.0865	0.5619	0.1016	-0.8163
2.15	-8.9711	-0.5621	3.3416	0.0042	-0.0207	-0.0335	25.8437	4.0795	-15.2511	0.0866	0.5619	0.1015	-0.8164
2.16	-8.9848	-0.5618	3.3440	-0.0023	-0.0222	-0.0340	25.7306	4.2183	-15.2184	0.0866	0.5618	0.1014	-0.8164
2.17	-8.9726	-0.5700	3.3446	0.0048	-0.0239	-0.0383	25.7617	4.1827	-15.4603	0.0866	0.5618	0.1012	-0.8165
2.18	-8.9483	-0.5801	3.3449	-0.0127	-0.0304	-0.0395	25.6715	4.2255	-15.4027	0.0866	0.5617	0.1011	-0.8165
2.19	-8.9311	-0.5923	3.3406	-0.0134	-0.0220	-0.0429	25.4077	4.1053	-15.4156	0.0866	0.5616	0.1011	-0.8166
2.2	-8.9194	-0.5978	3.3521	-0.0064	-0.0220	-0.0389	25.7159	4.1208	-15.4291	0.0866	0.5616	0.1010	-0.8167
2.21	-8.9424	-0.5922	3.3441	-0.0090	-0.0216	-0.0432	25.8455	4.0848	-15.3727	0.0867	0.5616	0.1009	-0.8167
2.22	-8.9134	-0.5892	3.3499	-0.0050	-0.0298	-0.0443	25.6294	4.1941	-15.3093	0.0867	0.5615	0.1008	-0.8168
2.23	-8.9063	-0.5845	3.3646	-0.0110	-0.0260	-0.0460	25.7372	4.1281	-15.3215	0.0866	0.5614	0.1008	-0.8167
2.24	-8.9256	-0.5817	3.3669	-0.0151	-0.0233	-0.0505	25.8562	3.8923	-15.3308	0.0867	0.5614	0.1007	-0.8169
2.25	-8.9180	-0.5940	3.3810	-0.0042	-0.0242	-0.0479	25.7979	3.6363	-15.2682	0.0866	0.5613	0.1007	-0.8169
2.26	-8.9487	-0.6132	3.3620	-0.0011	-0.0229	-0.0496	25.9098	3.8673	-15.4779	0.0866	0.5613	0.1006	-0.8170
2.27	-8.8720	-0.6104	3.3609	-0.0029	-0.0339	-0.0490	25.9331	4.1713	-15.5257	0.0866	0.5611	0.1005	-0.8170
2.28	-8.8891	-0.5858	3.3697	-0.0013	-0.0163	-0.0492	25.6515	3.9404	-15.2303	0.0865	0.5611	0.1004	-0.8171
2.29	-8.9387	-0.5448	3.3473	-0.0065	-0.0138	-0.0490	25.8745	4.1654	-15.4548	0.0865	0.5611	0.1004	-0.8171
2.3	-8.8812	-0.5256	3.3654	-0.0157	-0.0265	-0.0471	25.6346	4.2280	-15.6280	0.0865	0.5610	0.1003	-0.8171
2.31	-8.9162	-0.5240	3.3914	-0.0117	-0.0180	-0.0512	25.6802	3.9664	-15.4673	0.0865	0.5610	0.1003	-0.8172
2.32	-8.9945	-0.5225	3.4018	-0.0198	-0.0208	-0.0530	25.7319	4.0899	-15.3954	0.0865	0.5609	0.1003	-0.8172
2.33	-8.9631	-0.5127	3.4108	-0.0184	-0.0239	-0.0525	25.8361	4.3452	-15.4318	0.0865	0.5609	0.1003	-0.8173
2.34	-8.9119	-0.5380	3.4047	-0.0317	-0.0185	-0.0530	25.7208	4.0656	-15.4057	0.0865	0.5608	0.1003	-0.8172
2.35	-8.8928	-0.5647	3.3894	-0.0341	-0.0233	-0.0465	25.7861	4.0507	-15.2993	0.0866	0.5607	0.1004	-0.8173
2.36	-8.8917	-0.5848	3.3966	-0.0172	-0.0216	-0.0374	25.6029	4.1142	-15.3390	0.0866	0.5607	0.1003	-0.8174
2.37	-8.8891	-0.5940	3.3874	-0.0190	-0.0231	-0.0412	25.6264	4.1883	-15.2859	0.0866	0.5606	0.1003	-0.8173
2.38	-8.8656	-0.5868	3.3824	-0.0206	-0.0170	-0.0455	25.6539	4.1964	-15.6706	0.0867	0.5606	0.1003	-0.8175
2.39	-8.8716	-0.6051	3.3702	-0.0244	-0.0068	-0.0416	25.5546	4.0786	-15.5231	0.0867	0.5606	0.1002	-0.8174
2.4	-8.8859	-0.6136	3.3734	-0.0196	-0.0083	-0.0499	25.7218	4.1197	-15.3035	0.0867	0.5606	0.1003	-0.8175
2.41	-8.9044	-0.5984	3.3624	-0.0122	-0.0010	-0.0452	25.4967	4.1855	-15.3284	0.0867	0.5606	0.1002	-0.8173
2.42	-8.8945	-0.5658	3.3717	-0.0061	0.0050	-0.0548	25.9792	4.1086	-15.5496	0.0867	0.5607	0.1002	-0.8174
2.43	-8.9223	-0.5530	3.3622	-0.0085	0.0091	-0.0606	25.9369	3.9255	-15.4542	0.0866	0.5607	0.1002	-0.8173
2.44	-8.9503	-0.5622	3.3454	-0.0118	0.0073	-0.0587	25.6992	4.0117	-15.3137	0.0865	0.5608	0.1001	-0.8173
2.45	-8.9432	-0.5622	3.3407	-0.0110	0.0105	-0.0671	25.7777	4.1195	-15.3230	0.0864	0.5609	0.1002	-0.8173
2.46	-8.9287	-0.5601	3.3347	-0.0083	-0.0008	-0.0647	25.5504	3.8656	-15.4530	0.0863	0.5609	0.1002	-0.8172
2.47	-8.9353	-0.5528	3.3373	-0.0104	0.0039	-0.0683	25.6638	4.0121	-15.3346	0.0862	0.5610	0.1002	-0.8173
2.48	-8.9528	-0.5499	3.3313	-0.0143	0.0019	-0.0604	25.8804	4.1068	-15.3108	0.0862	0.5609	0.1002	-0.8171
2.49	-8.9575	-0.5497	3.3337	-0.0190	0.0011	-0.0598	25.6716	4.1243	-15.3290	0.0861	0.5610	0.1002	-0.8172
2.5	-8.9822	-0.5589	3.3243	-0.0214	-0.0001	-0.0636	25.6882	4.0855	-15.4875	0.0861	0.5610	0.1003	-0.8172
2.51	-8.9843	-0.5781	3.3192	-0.0240	0.0007	-0.0588	25.7859	4.1901	-15.5138	0.0860	0.5611	0.1003	-0.8172
2.52	-8.9819	-0.5913	3.3152	-0.0272	-0.0010	-0.0633	25.5276	4.2010	-15.5179	0.0860	0.5611	0.1004	-0.8171
2.53	-9.0009	-0.6088	3.3046	-0.0362	0.0015	-0.0556	25.7103	4.1998	-15.2286	0.0860	0.5611	0.1005	-0.8171
2.54	-8.9907	-0.6170	3.2836	-0.0365	-0.0027	-0.0524	25.5599	4.1873	-15.4973	0.0861	0.5611	0.1005	-0.8171
2.55	-8.9598	-0.6029	3.3216	-0.0297	-0.0064	-0.0460	25.6409	4.2673	-15.4331	0.0861	0.5611	0.1006	-0.8170
2.56	-9.0757	-0.6132	3.3142	-0.0353	0.0052	-0.0537	25.6669	4.4135	-15.3168	0.0861	0.5612	0.1006	-0.8171
2.57	-9.0184	-0.6294	3.3264	-0.0420	-0.0295	-0.0565	25.7909	4.3214	-15.4593	0.0862	0.5611	0.1007	-0.8171
2.58	-8.9283	-0.6647	3.3466	-0.0421	-0.0230	-0.0496	25.6355	4.2639	-15.3950	0.0863	0.5611	0.1008	-0.8172
2.59	-8.9568	-0.7216	3.3266	-0.0415	-0.0245	-0.0459	25.8275	4.3770	-15.4438	0.0863	0.5609	0.1009	-0.8171
2.6	-8.9308	-0.7182	3.3686	-0.0275	-0.0335	-0.0414	26.2111	4.5110	-15.2676	0.0864	0.5608	0.1009	-0.8172
2.61	-8.9202	-0.6717	3.3629	-0.0165	-0.0336	-0.0365	26.1358	4.3781	-15.2281	0.0865	0.5607	0.1008	-0.8173
2.62	-8.8452	-0.6350	3.3733	-0.0200	-0.0388	-0.0383	26.0107	4.1692	-15.1417	0.0865	0.5606	0.1008	-0.8173
2.63	-8.8547	-0.6147	3.3820	-0.0282	-0.0244	-0.0448	25.7739	4.0271	-15.2037	0.0866	0.5606	0.1008	-0.8175
2.64	-8.9071	-0.6278	3.3646	-0.0243	-0.0131	-0.0432	25.6983	3.9715	-15.6085	0.0866	0.5605	0.1008	-0.8174
2.65	-8.8931	-0.6355	3.3713	-0.0225	-0.0253	-0.0404	25.6243	4.1718	-15.5986	0.0867	0.5605	0.1008	-0.8175
2.66	-8.8793	-0.6329	3.3790	-0.0309	-0.0170	-0.0473	25.5746	4.1499	-15.3266	0.0867	0.5604	0.1008	-0.8174
2.67	-8.9200	-0.6496	3.3820	-0.0224	-0.0076	-0.0457	25.7222	4.1659	-15.3646	0.0868	0.5604	0.1008	-0.8175
2.68	-8.9452	-0.6650	3.3807	-0.0292	-0.0177	-0.0485	25.6409	3.9745	-15.3325	0.0868	0.5604	0.1008	-0.8175
2.69	-8.9283	-0.6771	3.3768	-0.0302	-0.0256	-0.0391	25.4944	4.0561	-15.4254	0.0869	0.5603	0.1008	-0.8175
2.7	-8.9019	-0.6781	3.3696	-0.0306	-0.0133	-0.0420	25.5181	4.0795	-15.4695	0.0870	0.5603	0.1008	-0.8176
2.71	-8.9044	-0.6817	3.3649	-0.0270	-0.0156	-0.0494	25.6123	4.0663	-15.4038	0.0870	0.5602	0.1009	-0.8175
2.72	-8.9108	-0.6808	3.3620	-0.0222	-0.0109	-0.0430	25.5935	4.2768	-15.5464	0.0870	0.5602	0.1009	-0.8176
2.73	-8.8925	-0.6764	3.3712	-0.0176	-0.0099	-0.0470	25.5941	4.1327	-15.4509	0.0870	0.5602	0.1008	-0.8175
2.74	-8.9032	-0.6710	3.3746	-0.0220	-0.0091	-0.0449	25.4971	4.1967	-15.2300	0.0871	0.5602	0.1008	-0.8176
2.75	-8.9069	-0.6591	3.3661	-0.0157	-0.0041	-0.0502	25.6650	4.2349	-15.4242	0.0871	0.5602	0.1008	-0.8175
2.76	-8.8987	-0.6491	3.3709	-0.0125	-0.0061	-0.0481	25.7151	4.3426	-15.2390	0.0870	0.5603	0.1008	-0.8176
2.77	-8.8978	-0.6479	3.3708	-0.0189	-0.0049	-0.0493	25.5650	4.2159	-15.3766	0.0870	0.5602	0.1008	-0.8175
2.78	-8.9136	-0.6468	3.3687	-0.0187	-0.0058	-0.0453	25.5190	4.4347	-15.3420	0.0871	0.5603	0.1008	-0.8175
2.79	-8.9137	-0.6417	3.3756	-0.0155	-0.0051	-0.0435	25.6378	4.2709	-15.6153	0.0871	0.5603	0.1007	-0.8175
2.8	-8.9205	-0.6320	3.3745	-0.0180	-0.0012	-0.0477	25.5520	4.0172	-15.5720	0.0871	0.5603	0.1007	-0.8175
2.81	-8.9510	-0.6303	3.3661	-0.0160	0.0045	-0.0500	25.7466	4.1035	-15.2864	0.0871	0.5604	0.1007	-0.8175
2.82	-8.9647	-0.6344	3.3706	-0.0167	0.0025	-0.0501	25.7408	3.8921	-15.4149	0.0870	0.5604	0.1007	-0.8174
2.83	-8.9550	-0.6428	3.3658	-0.0168	-0.0031	-0.0461	25.6392	3.9360	-15.4485	0.0871	0.5605	0.1007	-0.8175
2.84	-8.9475	-0.6686	3.3672	-0.0201	-0.0033	-0.0508	25.8871	4.1983	-15.4425	0.0870	0.5604	0.1007	-0.8174
2.85	-8.9598	-0.6825	3.3677	-0.0154	-0.0026	-0.0452	25.7377	4.0044	-15.4363	0.0871	0.5605	0.1006	-0.8174
2.86	-8.9653	-0.6832	3.3691	-0.0188	-0.0124	-0.0509	25.6168	4.1959	-15.2796	0.0871	0.5605	0.1006	-0.8174
2.87	-8.9481	-0.7012	3.3770	-0.0181	-0.0224	-0.0475	25.5789	4.2842	-15.5621	0.0871	0.5604	0.1006	-0.8174
2.88	-8.9255	-0.7064	3.3788	-0.0151	-0.0290	-0.0433	25.7061	4.0236	-15.5099	0.0871	0.5604	0.1006	-0.8176
2.89	-8.9087	-0.7071	3.3784	-0.0113	-0.0252	-0.0520	25.5306	4.2450	-15.3043	0.0871	0.5602	0.1005	-0.8176
2.9	-8.8852	-0.7078	3.3901	-0.0070	-0.0219	-0.0507	25.4882	4.2272	-15.3943	0.0870	0.5602	0.1005	-0.8177
2.91	-8.8951	-0.7010	3.4032	-0.0161	-0.0170	-0.0439	25.5924	4.3458	-15.2436	0.0870	0.5601	0.1004	-0.8176
2.92	-8.8954	-0.6988	3.4127	-0.0077	-0.0160	-0.0417	25.8377	4.3272	-15.3920	0.0871	0.5601	0.1004	-0.8177
2.93	-8.8904	-0.6831	3.4160	-0.0001	-0.0122	-0.0523	25.6818	4.1635	-15.3197	0.0870	0.5601	0.1003	-0.8177
2.94	-8.8847	-0.6639	3.4259	0.0097	-0.0066	-0.0517	25.4599	3.9130	-15.4401	0.0869	0.5601	0.1002	-0.8177
2.95	-8.8867	-0.6532	3.4167	0.0041	-0.0025	-0.0470	25.6462	4.2473	-15.4510	0.0869	0.5602	0.1001	-0.8177
2.96	-8.8708	-0.6423	3.4151	0.0033	-0.0062	-0.0434	25.5261	4.1518	-15.3068	0.0868	0.5602	0.1000	-0.8177
2.97	-8.8695	-0.6339	3.4095	0.0063	-0.0052	-0.0456	25.5553	4.1099	-15.4344	0.0868	0.5602	0.0998	-0.8177
2.98	-8.8814	-0.6264	3.4010	0.0105	0.0036	-0.0471	25.6750	4.1102	-15.4481	0.0867	0.5602	0.0997	-0.8176
2.99	-8.8845	-0.6066	3.3979	0.0019	-0.0004	-0.0417	25.8311	3.8366	-15.4361	0.0867	0.5603	0.0996	-0.8177
3	-8.8765	-0.5860	3.3924	0.0053	0.0017	-0.0452	25.6459	3.9265	-15.4332	0.0866	0.5604	0.0995	-0.8177
3.01	-8.8993	-0.5797	3.3933	0.0061	0.0081	-0.0464	25.6343	3.8731	-15.4906	0.0865	0.5605	0.0994	-0.8177
3.02	-8.9273	-0.5783	3.3897	-0.0038	0.0060	-0.0448	25.7913	3.9045	-15.6685	0.0865	0.5605	0.0993	-0.8176
3.03	-8.9409	-0.5854	3.3938	-0.0080	0.0103	-0.0481	25.7891	4.1330	-15.5651	0.0865	0.5606	0.0993	-0.8176
3.04	-8.9639	-0.6017	3.3668	-0.0096	0.0056	-0.0487	25.6795	3.9766	-15.3474	0.0864	0.5607	0.0992	-0.8175
3.05	-8.9269	-0.6048	3.3570	-0.0034	-0.0014	-0.0492	25.4602	4.0640	-15.3401	0.0864	0.5606	0.0992	-0.8175
3.06	-8.9525	-0.5912	3.3664	-0.0102	0.0019	-0.0444	25.6386	4.0737	-15.3770	0.0864	0.5608	0.0991	-0.8175
3.07	-9.0047	-0.5803	3.3475	-0.0126	0.0014	-0.0488	25.7075	4.0770	-15.4428	0.0864	0.5608	0.0991	-0.8175
3.08	-8.9585	-0.5746	3.3542	-0.0119	-0.0020	-0.0594	25.6390	4.0398	-15.2404	0.0863	0.5608	0.0991	-0.8175
3.09	-8.9693	-0.5845	3.3854	-0.0187	0.0045	-0.0619	25.9696	4.3408	-15.2753	0.0863	0.5608	0.0991	-0.8174
3.1	-9.0441	-0.6051	3.3786	-0.0178	-0.0029	-0.0558	26.3158	4.5984	-15.2535	0.0862	0.5609	0.0991	-0.8174
3.11	-8.9997	-0.6151	3.3831	-0.0193	-0.0166	-0.0544	26.0967	4.3815	-15.2924	0.0862	0.5608	0.0991	-0.8175
3.12	-8.9687	-0.6430	3.3708	-0.0187	-0.0105	-0.0487	25.8492	4.3240	-15.2847	0.0862	0.5608	0.0991	-0.8174
3.13	-8.9499	-0.6432	3.3654	-0.0121	-0.0176	-0.0423	25.6187	4.2145	-15.4684	0.0862	0.5608	0.0991	-0.8176
3.14	-8.9072	-0.6219	3.3642	-0.0152	-0.0215	-0.0385	25.6249	4.0695	-15.5025	0.0863	0.5607	0.0990	-0.8175
3.15	-8.8809	-0.5887	3.3617	-0.0164	-0.0235	-0.0419	25.4828	4.3109	-15.4882	0.0863	0.5607	0.0990	-0.8176
3.16	-8.8606	-0.5627	3.3643	-0.0141	-0.0150	-0.0376	25.6660	4.1885	-15.4103	0.0863	0.5606	0.0989	-0.8175
3.17	-8.8905	-0.5633	3.3599	-0.0117	-0.0063	-0.0392	25.9031	4.0658	-15.3553	0.0864	0.5607	0.0988	-0.8176
3.18	-8.9029	-0.5717	3.3544	-0.0118	-0.0081	-0.0449	25.9821	4.0034	-15.4629	0.0864	0.5607	0.0988	-0.8176
3.19	-8.8949	-0.5897	3.3569	-0.0161	-0.0113	-0.0504	25.7709	4.0253	-15.4649	0.0863	0.5606	0.0988	-0.8176
3.2	-8.9063	-0.5960	3.3502	-0.0119	-0.0062	-0.0555	25.7573	3.9282	-15.6114	0.0863	0.5607	0.0988	-0.8176
3.21	-8.9282	-0.5874	3.3480	-0.0105	-0.0013	-0.0565	25.7380	3.7661	-15.6257	0.0863	0.5607	0.0987	-0.8176
3.22	-8.9562	-0.5918	3.3402	-0.0085	0.0023	-0.0581	25.6265	4.0270	-15.3800	0.0862	0.5607	0.0987	-0.8176
3.23	-8.9674	-0.5916	3.3370	-0.0079	-0.0082	-0.0567	25.7739	4.2296	-15.7326	0.0861	0.5607	0.0987	-0.8175
3.24	-8.9383	-0.5908	3.3417	-0.0108	-0.0193	-0.0550	25.8633	4.0637	-15.4916	0.0861	0.5607	0.0987	-0.8176
3.25	-8.9425	-0.5908	3.3433	-0.0114	-0.0093	-0.0636	25.8351	4.1316	-15.5462	0.0860	0.5607	0.0987	-0.8176
3.26	-8.9625	-0.5925	3.3499	-0.0136	-0.0077	-0.0576	25.5994	4.0687	-15.5272	0.0860	0.5607	0.0987	-0.8177
3.27	-8.9397	-0.5960	3.3562	-0.0174	-0.0155	-0.0540	25.4842	4.2231	-15.3736	0.0859	0.5606	0.0987	-0.8176
3.28	-8.9203	-0.6052	3.3585	-0.0150	-0.0142	-0.0580	25.3588	4.2723	-15.2661	0.0859	0.5606	0.0987	-0.8177
3.29	-8.9344	-0.6106	3.3683	-0.0166	-0.0065	-0.0533	25.3165	4.3281	-15.4131	0.0859	0.5606	0.0987	-0.8177
3.3	-8.9402	-0.6157	3.3647	-0.0247	-0.0128	-0.0548	25.6224	4.4004	-15.6260	0.0859	0.5605	0.0987	-0.8176
3.31	-8.9326	-0.6290	3.3600	-0.0179	-0.0061	-0.0470	25.5431	4.1313	-15.4401	0.0859	0.5606	0.0987	-0.8177
3.32	-8.8868	-0.6233	3.3521	-0.0167	-0.0121	-0.0474	25.5232	4.2537	-15.2283	0.0859	0.5606	0.0987	-0.8177
3.33	-8.9077	-0.6064	3.3731	-0.0171	-0.0006	-0.0434	25.8750	4.2975	-15.4661	0.0859	0.5606	0.0987	-0.8178
3.34	-9.0242	-0.6187	3.3510	-0.0176	-0.0020	-0.0497	25.8398	4.1888	-15.5867	0.0859	0.5606	0.0986	-0.8176
3.35	-8.9298	-0.6134	3.3846	-0.0186	-0.0299	-0.0532	25.7439	4.1780	-15.4643	0.0859	0.5605	0.0986	-0.8177
3.36	-8.9170	-0.6467	3.3612	-0.0165	-0.0147	-0.0498	25.7712	4.0353	-15.4839	0.0859	0.5605	0.0986	-0.8178
3.37	-8.9147	-0.6668	3.3615	-0.0120	-0.0143	-0.0498	25.7418	3.9932	-15.4904	0.0858	0.5605	0.0986	-0.8177
3.38	-8.9200	-0.6262	3.3720	-0.0085	-0.0158	-0.0448	25.8805	4.0492	-15.4568	0.0858	0.5605	0.0985	-0.8179
3.39	-8.9045	-0.5718	3.3890	-0.0047	-0.0241	-0.0466	25.8141	4.0926	-15.5451	0.0858	0.5604	0.0984	-0.8178
3.4	-8.9120	-0.5435	3.3960	-0.0148	-0.0167	-0.0499	25.6978	4.1839	-15.5377	0.0858	0.5604	0.0984	-0.8179
3.41	-8.9290	-0.5477	3.3940	-0.0197	-0.0139	-0.0509	25.5633	4.1095	-15.3685	0.0858	0.5603	0.0984	-0.8178
3.42	-8.9289	-0.5643	3.4031	-0.0290	-0.0143	-0.0476	25.6025	3.9924	-15.5068	0.0858	0.5603	0.0984	-0.8179
3.43	-8.9280	-0.5823	3.3899	-0.0262	-0.0166	-0.0535	25.7179	4.0150	-15.4921	0.0859	0.5603	0.0985	-0.8179
3.44	-8.9119	-0.5946	3.3856	-0.0276	-0.0210	-0.0574	25.8681	4.0723	-15.7124	0.0859	0.5602	0.0985	-0.8180
3.45	-8.9140	-0.6030	3.3879	-0.0319	-0.0146	-0.0533	25.7363	4.2200	-15.4415	0.0859	0.5602	0.0986	-0.8180
3.46	-8.9221	-0.6197	3.3879	-0.0324	-0.0204	-0.0594	25.6683	4.3015	-15.3905	0.0859	0.5601	0.0987	-0.8180
3.47	-8.9197	-0.6320	3.3767	-0.0308	-0.0120	-0.0563	25.6336	4.2310	-15.3862	0.0859	0.5601	0.0987	-0.8181
3.48	-8.8909	-0.6414	3.3824	-0.0367	-0.0195	-0.0592	25.4716	4.0765	-15.4779	0.0859	0.5600	0.0988	-0.8180
3.49	-8.9062	-0.6477	3.3773	-0.0363	-0.0110	-0.0534	25.5026	4.2298	-15.4991	0.0859	0.5600	0.0989	-0.8181
3.5	-8.9299	-0.6540	3.3744	-0.0182	-0.0100	-0.0470	25.6556	4.1411	-15.3092	0.0859	0.5600	0.0989	-0.8181
3.51	-8.9256	-0.6520	3.3780	-0.0206	-0.0124	-0.0500	25.6769	4.3500	-15.5963	0.0859	0.5600	0.0989	-0.8181
3.52	-8.9202	-0.6534	3.3695	-0.0207	-0.0162	-0.0497	25.6727	4.3786	-15.5545	0.0860	0.5599	0.0989	-0.8181
3.53	-8.9154	-0.6474	3.3795	-0.0184	-0.0191	-0.0476	25.9174	4.2373	-15.5207	0.0860	0.5599	0.0989	-0.8181
3.54	-8.9369	-0.6472	3.3805	-0.0161	-0.0165	-0.0458	25.7664	4.1236	-15.7462	0.0860	0.5599	0.0988	-0.8182
3.55	-8.9493	-0.6437	3.3810	-0.0134	-0.0250	-0.0552	25.7585	4.0886	-15.5411	0.0859	0.5597	0.0988	-0.8182
3.56	-8.9377	-0.6399	3.3854	-0.0033	-0.0239	-0.0558	25.7590	4.1134	-15.5987	0.0859	0.5597	0.0988	-0.8183
3.57	-8.9329	-0.6295	3.3791	-0.0046	-0.0207	-0.0490	25.9187	4.2392	-15.5550	0.0859	0.5597	0.0987	-0.8183
3.58	-8.9256	-0.6089	3.3861	-0.0002	-0.0228	-0.0552	25.7092	4.0882	-15.6171	0.0858	0.5597	0.0987	-0.8184
3.59	-8.9378	-0.5967	3.3871	0.0021	-0.0121	-0.0553	26.0635	4.2052	-15.3708	0.0857	0.5596	0.0986	-0.8184
3.6	-8.9350	-0.5859	3.3962	-0.0034	-0.0199	-0.0485	26.3480	4.3010	-15.1585	0.0857	0.5596	0.0985	-0.8185
3.61	-8.9154	-0.5730	3.4043	0.0008	-0.0124	-0.0598	26.0936	4.2734	-15.2656	0.0856	0.5595	0.0984	-0.8185
3.62	-8.9172	-0.5568	3.4105	-0.0123	-0.0091	-0.0618	25.7279	4.0198	-15.4314	0.0855	0.5595	0.0984	-0.8184
3.63	-8.9454	-0.5808	3.3872	-0.0156	-0.0016	-0.0572	25.3485	4.0766	-15.4972	0.0855	0.5596	0.0985	-0.8185
3.64	-8.9307	-0.5802	3.3982	-0.0185	-0.0150	-0.0620	25.4938	4.2161	-15.4366	0.0854	0.5595	0.0985	-0.8185
3.65	-8.9291	-0.5956	3.3949	-0.0164	-0.0179	-0.0613	25.6734	4.0974	-15.4840	0.0854	0.5595	0.0985	-0.8186
3.66	-8.8973	-0.6099	3.4099	-0.0201	-0.0203	-0.0580	25.6663	4.2389	-15.3248	0.0853	0.5594	0.0985	-0.8185
3.67	-8.9297	-0.6080	3.4114	-0.0170	-0.0137	-0.0531	25.5451	4.1322	-15.4111	0.0853	0.5594	0.0985	-0.8186
3.68	-8.9084	-0.6197	3.4151	-0.0271	-0.0230	-0.0540	25.6104	4.0888	-15.5944	0.0853	0.5593	0.0985	-0.8186
3.69	-8.9053	-0.6356	3.4223	-0.0198	-0.0176	-0.0547	25.4601	4.0740	-15.4616	0.0853	0.5593	0.0986	-0.8187
3.7	-8.8800	-0.6388	3.4188	-0.0189	-0.0224	-0.0597	25.7028	4.3846	-15.3250	0.0853	0.5592	0.0986	-0.8187
3.71	-8.8351	-0.6496	3.4333	-0.0304	-0.0138	-0.0558	25.7466	4.1107	-15.5631	0.0853	0.5592	0.0986	-0.8187
3.72	-8.8914	-0.6530	3.4177	-0.0221	-0.0092	-0.0616	25.3912	4.2425	-15.4009	0.0852	0.5592	0.0987	-0.8188
3.73	-8.8514	-0.6301	3.4280	-0.0226	-0.0171	-0.0573	25.8005	4.0541	-15.4147	0.0852	0.5591	0.0987	-0.8187
3.74	-8.8808	-0.6564	3.4240	-0.0205	-0.0055	-0.0456	25.6960	3.9493	-15.5730	0.0852	0.5591	0.0987	-0.8188
3.75	-8.8892	-0.6539	3.4145	-0.0194	-0.0018	-0.0591	25.5536	4.1026	-15.3706	0.0852	0.5591	0.0987	-0.8187
3.76	-8.8609	-0.6474	3.4268	-0.0198	-0.0051	-0.0620	25.5080	3.9679	-15.5739	0.0851	0.5592	0.0988	-0.8188
3.77	-8.8836	-0.6517	3.4173	-0.0194	-0.0010	-0.0560	25.5543	3.8545	-15.4944	0.0851	0.5591	0.0988	-0.8187
3.78	-8.8852	-0.6500	3.4189	-0.0187	0.0002	-0.0598	25.7213	4.1493	-15.4873	0.0851	0.5592	0.0988	-0.8187
3.79	-8.8786	-0.6509	3.4151	-0.0244	0.0004	-0.0591	25.5784	4.0740	-15.5169	0.0850	0.5592	0.0989	-0.8187
3.8	-8.8802	-0.6522	3.4095	-0.0181	-0.0032	-0.0580	25.5773	4.0394	-15.3317	0.0850	0.5592	0.0989	-0.8186
3.81	-8.8829	-0.6562	3.3973	-0.0166	-0.0014	-0.0602	25.5637	4.1476	-15.4661	0.0849	0.5593	0.0989	-0.8187
3.82	-8.8934	-0.6632	3.3891	-0.0165	0.0013	-0.0533	25.4551	4.0158	-15.3089	0.0849	0.5593	0.0989	-0.8187
3.83	-8.9099	-0.6640	3.3815	-0.0185	0.0019	-0.0537	25.5113	4.3360	-15.4347	0.0849	0.5594	0.0990	-0.8187
3.84	-8.9104	-0.6733	3.3873	-0.0174	0.0031	-0.0587	25.4603	4.2146	-15.5748	0.0848	0.5593	0.0990	-0.8186
3.85	-8.9459	-0.6835	3.3850	-0.0180	0.0022	-0.0547	25.5240	4.1139	-15.3737	0.0848	0.5594	0.0990	-0.8186
3.86	-8.9606	-0.6909	3.3839	-0.0191	0.0005	-0.0590	25.5871	4.1751	-15.4126	0.0848	0.5594	0.0990	-0.8186
3.87	-8.9652	-0.7072	3.3742	-0.0177	0.0010	-0.0526	25.5830	4.3377	-15.4596	0.0847	0.5594	0.0990	-0.8185
3.88	-8.9413	-0.7058	3.3669	-0.0165	-0.0065	-0.0564	25.4643	4.2812	-15.5682	0.0847	0.5595	0.0990	-0.8186
3.89	-8.9366	-0.6901	3.3695	-0.0163	-0.0076	-0.0596	25.3857	4.2399	-15.5051	0.0847	0.5594	0.0990	-0.8185
3.9	-8.9940	-0.6794	3.3506	-0.0106	-0.0002	-0.0598	25.6154	4.3580	-15.4332	0.0846	0.5595	0.0991	-0.8186
3.91	-8.9493	-0.6692	3.3653	0.0030	-0.0223	-0.0622	25.4565	4.2051	-15.4700	0.0845	0.5594	0.0990	-0.8185
3.92	-8.9427	-0.6581	3.3927	-0.0164	-0.0144	-0.0617	25.5236	4.2357	-15.3204	0.0844	0.5594	0.0990	-0.8186
3.93	-9.0020	-0.6661	3.3958	-0.0173	-0.0260	-0.0633	25.7555	4.0361	-15.4112	0.0844	0.5593	0.0990	-0.8187
3.94	-8.9607	-0.6564	3.3980	-0.0155	-0.0254	-0.0563	25.7598	3.8413	-15.4793	0.0843	0.5592	0.0990	-0.8187
3.95	-8.9119	-0.6563	3.3914	-0.0206	-0.0250	-0.0495	25.6464	4.0017	-15.3049	0.0843	0.5592	0.0990	-0.8188
3.96	-8.9111	-0.6840	3.3859	-0.0137	-0.0230	-0.0483	25.6817	4.0414	-15.4340	0.0843	0.5591	0.0990	-0.8188
3.97	-8.9099	-0.6769	3.3945	-0.0098	-0.0290	-0.0393	25.6082	3.9005	-15.5948	0.0844	0.5591	0.0989	-0.8189
3.98	-8.8899	-0.6561	3.4085	-0.0028	-0.0311	-0.0390	25.4835	4.1626	-15.4193	0.0844	0.5589	0.0988	-0.8189
3.99	-8.8906	-0.6402	3.4052	-0.0136	-0.0169	-0.0367	25.3599	4.0157	-15.5838	0.0844	0.5589	0.0988	-0.8190
4	-8.8992	-0.6369	3.3956	-0.0110	-0.0199	-0.0401	25.6261	3.9226	-15.6452	0.0844	0.5589	0.0987	-0.8190
4.01	-8.8969	-0.6447	3.3956	-0.0137	-0.0226	-0.0438	25.6237	4.0855	-15.3273	0.0844	0.5588	0.0986	-0.8191
4.02	-8.8925	-0.6644	3.3899	-0.0112	-0.0178	-0.0509	25.4478	4.3661	-15.4898	0.0844	0.5588	0.0986	-0.8191
4.03	-8.8928	-0.6604	3.3947	-0.0125	-0.0148	-0.0522	25.6469	4.3801	-15.5301	0.0844	0.5587	0.0986	-0.8191
4.04	-8.8962	-0.6335	3.3901	-0.0167	-0.0155	-0.0538	25.4491	4.2607	-15.4298	0.0844	0.5587	0.0986	-0.8192
4.05	-8.8960	-0.6162	3.3965	-0.0181	-0.0116	-0.0570	25.3324	4.1111	-15.4544	0.0843	0.5586	0.0986	-0.8191
4.06	-8.9085	-0.6109	3.3988	-0.0122	-0.0147	-0.0592	25.7799	4.1808	-15.4637	0.0843	0.5587	0.0986	-0.8192
4.07	-8.9104	-0.6027	3.4111	-0.0146	-0.0182	-0.0587	25.5014	4.1882	-15.5591	0.0842	0.5586	0.0986	-0.8192
4.08	-8.9011	-0.6034	3.4147	-0.0185	-0.0156	-0.0594	25.3699	4.1637	-15.3090	0.0842	0.5586	0.0986	-0.8193
4.09	-8.9012	-0.6065	3.4236	-0.0182	-0.0182	-0.0553	25.9104	4.3556	-15.5787	0.0842	0.5585	0.0986	-0.8192
4.1	-8.9062	-0.6128	3.4270	-0.0216	-0.0234	-0.0551	25.9235	4.2846	-15.5160	0.0842	0.5585	0.0987	-0.8193
4.11	-8.8986	-0.6266	3.4365	-0.0220	-0.0243	-0.0459	25.7710	4.3683	-15.4138	0.0842	0.5584	0.0987	-0.8194
4.12	-8.8907	-0.6353	3.4396	-0.0276	-0.0210	-0.0444	25.7759	4.4161	-15.4216	0.0842	0.5583	0.0987	-0.8194
4.13	-8.9017	-0.6585	3.4311	-0.0408	-0.0136	-0.0416	25.5981	4.1231	-15.5178	0.0843	0.5583	0.0988	-0.8195
4.14	-8.8844	-0.6693	3.4246	-0.0381	-0.0163	-0.0410	25.3591	4.0958	-15.6663	0.0844	0.5582	0.0988	-0.8194
4.15	-8.8307	-0.6621	3.4167	-0.0387	-0.0127	-0.0426	25.6523	4.0897	-15.6256	0.0845	0.5582	0.0989	-0.8195
4.16	-8.8935	-0.6631	3.4407	-0.0364	0.0009	-0.0433	25.3382	4.2091	-15.4011	0.0846	0.5582	0.0989	-0.8194
4.17	-8.9946	-0.6715	3.4270	-0.0370	-0.0049	-0.0454	25.5842	4.1719	-15.2357	0.0847	0.5583	0.0990	-0.8194
4.18	-8.8809	-0.6616	3.4605	-0.0314	-0.0259	-0.0440	25.4818	4.0870	-15.4605	0.0847	0.5582	0.0990	-0.8194
4.19	-8.8898	-0.6928	3.4362	-0.0254	-0.0263	-0.0461	25.6453	4.1053	-15.7037	0.0848	0.5581	0.0990	-0.8195
4.2	-8.8738	-0.7210	3.4234	-0.0202	-0.0143	-0.0460	25.6623	4.2028	-15.6688	0.0848	0.5581	0.0990	-0.8195
4.21	-8.8661	-0.7066	3.4293	-0.0173	-0.0105	-0.0454	25.5837	4.3110	-15.5211	0.0848	0.5580	0.0990	-0.8195
4.22	-8.8661	-0.6682	3.4233	-0.0120	-0.0123	-0.0471	25.6784	4.0482	-15.7187	0.0848	0.5580	0.0990	-0.8196
4.23	-8.8530	-0.6466	3.4353	-0.0160	-0.0002	-0.0513	25.3504	4.3109	-15.3829	0.0848	0.5580	0.0990	-0.8194
4.24	-8.8979	-0.6502	3.4277	-0.0147	0.0017	-0.0523	25.4340	4.3468	-15.3235	0.0847	0.5581	0.0990	-0.8195
4.25	-8.8959	-0.6496	3.4359	-0.0163	-0.0014	-0.0580	25.5130	4.3010	-15.5654	0.0847	0.5581	0.0990	-0.8195
4.26	-8.9233	-0.6519	3.4276	-0.0177	0.0005	-0.0550	25.4584	4.4081	-15.6987	0.0847	0.5581	0.0990	-0.8195
4.27	-8.9034	-0.6348	3.4208	-0.0103	-0.0049	-0.0537	25.6150	4.2613	-15.4554	0.0846	0.5581	0.0990	-0.8194
4.28	-8.8839	-0.6123	3.4218	-0.0126	-0.0025	-0.0568	25.5238	4.2855	-15.4210	0.0846	0.5582	0.0990	-0.8195
4.29	-8.9153	-0.6127	3.4180	-0.0158	0.0030	-0.0592	25.5035	4.2968	-15.4998	0.0845	0.5582	0.0990	-0.8195
4.3	-8.9200	-0.6144	3.4173	-0.0077	-0.0083	-0.0566	25.3776	4.1956	-15.5772	0.0844	0.5582	0.0990	-0.8194
4.31	-8.9152	-0.6291	3.4137	-0.0182	-0.0031	-0.0563	25.5386	4.0987	-15.5641	0.0844	0.5582	0.0990	-0.8195
4.32	-8.9178	-0.6402	3.4130	-0.0155	0.0011	-0.0512	25.6885	4.0809	-15.6385	0.0844	0.5582	0.0990	-0.8194
4.33	-8.9230	-0.6414	3.4088	-0.0157	-0.0012	-0.0481	25.4481	3.9658	-15.6246	0.0844	0.5583	0.0990	-0.8195
4.34	-8.9252	-0.6453	3.4102	-0.0134	-0.0111	-0.0495	25.5922	4.2158	-15.4664	0.0844	0.5582	0.0990	-0.8194
4.35	-8.9129	-0.6428	3.4174	-0.0135	-0.0086	-0.0482	25.6970	4.4265	-15.6121	0.0844	0.5582	0.0989	-0.8194
4.36	-8.9158	-0.6536	3.4206	-0.0154	-0.0139	-0.0477	25.8056	4.2912	-15.5984	0.0844	0.5582	0.0989	-0.8194
4.37	-8.9068	-0.6565	3.4240	-0.0145	-0.0188	-0.0471	25.5937	4.2882	-15.8067	0.0844	0.5581	0.0989	-0.8194
4.38	-8.9119	-0.6514	3.4299	-0.0115	-0.0159	-0.0438	25.4550	4.2555	-15.6352	0.0844	0.5582	0.0989	-0.8196
4.39	-8.9305	-0.6447	3.4243	-0.0150	-0.0134	-0.0467	25.3895	4.3422	-15.5787	0.0844	0.5581	0.0988	-0.8195
4.4	-8.9158	-0.6345	3.4299	-0.0125	-0.0144	-0.0501	25.4029	4.3242	-15.5826	0.0844	0.5581	0.0988	-0.8196
4.41	-8.9384	-0.6211	3.4251	-0.0090	-0.0108	-0.0545	25.3939	4.1838	-15.5986	0.0843	0.5580	0.0988	-0.8195
4.42	-8.9259	-0.6072	3.4202	-0.0083	-0.0120	-0.0486	25.5120	4.1742	-15.4300	0.0843	0.5581	0.0987	-0.8196
4.43	-8.9085	-0.5940	3.4129	-0.0147	-0.0156	-0.0509	25.6376	4.2678	-15.6094	0.0843	0.5580	0.0987	-0.8196
4.44	-8.9111	-0.5763	3.4046	-0.0170	-0.0198	-0.0545	25.3968	4.2093	-15.7060	0.0842	0.5580	0.0987	-0.8196
4.45	-8.9084	-0.5577	3.4098	-0.0174	-0.0171	-0.0521	25.4078	4.1895	-15.6595	0.0842	0.5579	0.0987	-0.8197
4.46	-8.9130	-0.5495	3.4154	-0.0269	-0.0152	-0.0449	25.3678	4.3037	-15.5455	0.0843	0.5579	0.0987	-0.8197
4.47	-8.9132	-0.5692	3.4222	-0.0352	-0.0284	-0.0577	25.5164	4.2850	-15.6727	0.0843	0.5578	0.0988	-0.8198
4.48	-8.9219	-0.6000	3.4180	-0.0374	-0.0187	-0.0538	25.6818	4.1954	-15.5969	0.0843	0.5577	0.0989	-0.8197
4.49	-8.9063	-0.6254	3.4262	-0.0434	-0.0202	-0.0548	25.7773	4.2027	-15.4509	0.0844	0.5577	0.0990	-0.8198
4.5	-8.9171	-0.6575	3.4241	-0.0416	-0.0201	-0.0527	25.8771	4.0072	-15.5263	0.0844	0.5576	0.0991	-0.8198
4.51	-8.9088	-0.6790	3.4172	-0.0454	-0.0243	-0.0546	25.7765	4.1473	-15.6709	0.0845	0.5575	0.0992	-0.8199
4.52	-8.9037	-0.6838	3.4251	-0.0397	-0.0202	-0.0558	25.6426	4.3227	-15.6818	0.0845	0.5575	0.0993	-0.8199
4.53	-8.9118	-0.6835	3.4111	-0.0430	-0.0191	-0.0518	25.5673	4.1222	-15.5348	0.0846	0.5574	0.0994	-0.8199
4.54	-8.8973	-0.6849	3.4162	-0.0401	-0.0232	-0.0474	25.3674	4.1068	-15.6550	0.0846	0.5573	0.0995	-0.8200
4.55	-8.9009	-0.6854	3.4148	-0.0416	-0.0214	-0.0489	25.5656	4.0910	-15.6804	0.0847	0.5572	0.0996	-0.8199
4.56	-8.8875	-0.6760	3.4225	-0.0416	-0.0259	-0.0446	25.7840	4.2284	-15.6661	0.0848	0.5572	0.0997	-0.8201
4.57	-8.8896	-0.6666	3.4289	-0.0428	-0.0265	-0.0439	25.6119	4.1498	-15.6782	0.0849	0.5571	0.0998	-0.8200
4.58	-8.8999	-0.6793	3.4312	-0.0422	-0.0216	-0.0505	25.4763	4.3298	-15.6777	0.0850	0.5571	0.0999	-0.8201
4.59	-8.8876	-0.6879	3.4294	-0.0407	-0.0199	-0.0533	25.6695	4.4802	-15.6064	0.0850	0.5569	0.0999	-0.8201
4.6	-8.8675	-0.6969	3.4431	-0.0388	-0.0241	-0.0490	25.9099	4.4542	-15.4164	0.0851	0.5569	0.1000	-0.8201
4.61	-8.8814	-0.7071	3.4418	-0.0379	-0.0171	-0.0536	25.7712	4.4581	-15.4491	0.0851	0.5568	0.1001	-0.8202
4.62	-8.8871	-0.7097	3.4484	-0.0356	-0.0224	-0.0553	25.6174	4.5560	-15.3616	0.0851	0.5567	0.1002	-0.8201
4.63	-8.8993	-0.7187	3.4479	-0.0383	-0.0194	-0.0520	25.4545	4.6573	-15.5050	0.0852	0.5568	0.1003	-0.8203
4.64	-8.9043	-0.7297	3.4563	-0.0342	-0.0174	-0.0622	25.2603	4.4645	-15.8677	0.0852	0.5566	0.1004	-0.8202
4.65	-8.9073	-0.7473	3.4425	-0.0322	-0.0224	-0.0548	25.2319	4.2875	-15.5611	0.0852	0.5566	0.1004	-0.8203
4.66	-8.8933	-0.7530	3.4426	-0.0286	-0.0250	-0.0504	25.2780	4.3131	-15.5486	0.0852	0.5565	0.1005	-0.8203
4.67	-8.8819	-0.7560	3.4399	-0.0199	-0.0291	-0.0477	25.6318	4.2770	-15.5636	0.0852	0.5564	0.1005	-0.8204
4.68	-8.8807	-0.7557	3.4372	-0.0176	-0.0270	-0.0438	25.5765	4.1752	-15.7174	0.0853	0.5563	0.1005	-0.8204
4.69	-8.8809	-0.7483	3.4615	-0.0190	-0.0235	-0.0484	25.2143	4.0002	-15.7462	0.0853	0.5563	0.1004	-0.8205
4.7	-8.8784	-0.7402	3.4516	-0.0143	-0.0229	-0.0410	25.6869	4.1713	-15.7267	0.0853	0.5562	0.1004	-0.8205
4.71	-8.8474	-0.7336	3.4550	-0.0119	-0.0241	-0.0452	25.3538	4.3125	-15.4802	0.0853	0.5561	0.1004	-0.8206
4.72	-8.8381	-0.7294	3.4557	0.0018	-0.0154	-0.0435	25.5791	4.3388	-15.6697	0.0853	0.5561	0.1003	-0.8206
4.73	-8.8257	-0.7181	3.4617	0.0026	-0.0124	-0.0414	25.4909	4.0915	-15.5405	0.0852	0.5561	0.1001	-0.8206
4.74	-8.8446	-0.7145	3.4690	0.0072	-0.0089	-0.0474	25.5292	4.1887	-15.4594	0.0852	0.5561	0.1001	-0.8207
4.75	-8.8591	-0.7187	3.4760	0.0091	-0.0075	-0.0440	25.3944	4.2816	-15.4281	0.0851	0.5561	0.0999	-0.8207
4.76	-8.8607	-0.7121	3.4802	0.0091	-0.0014	-0.0425	25.3357	4.2366	-15.6205	0.0851	0.5562	0.0998	-0.8207
4.77	-8.8331	-0.6960	3.4774	0.0071	-0.0002	-0.0414	25.5596	4.4282	-15.6652	0.0850	0.5562	0.0997	-0.8206
4.78	-8.8416	-0.6684	3.4847	0.0093	0.0028	-0.0441	25.3129	4.2445	-15.6461	0.0850	0.5563	0.0996	-0.8206
4.79	-8.8981	-0.6322	3.4757	0.0086	0.0096	-0.0524	25.3756	4.3613	-15.6082	0.0849	0.5564	0.0995	-0.8206
4.8	-8.8671	-0.6090	3.4694	0.0091	0.0019	-0.0475	25.4894	4.4889	-15.5143	0.0848	0.5564	0.0993	-0.8205
4.81	-8.8390	-0.6080	3.4799	0.0053	0.0035	-0.0482	25.6314	4.3628	-15.6099	0.0847	0.5565	0.0993	-0.8206
4.82	-8.9153	-0.6131	3.4915	0.0076	0.0122	-0.0444	25.3607	4.2755	-15.6128	0.0846	0.5565	0.0991	-0.8205
4.83	-8.9483	-0.6015	3.4913	-0.0010	0.0054	-0.0465	25.3602	4.3177	-15.5259	0.0846	0.5567	0.0991	-0.8206
4.84	-8.8853	-0.5872	3.4999	-0.0079	-0.0035	-0.0397	25.5279	4.2801	-15.6578	0.0846	0.5566	0.0990	-0.8204
4.85	-8.8660	-0.6066	3.4859	0.0006	-0.0005	-0.0356	25.3664	4.3328	-15.5378	0.0846	0.5567	0.0989	-0.8205
4.86	-8.8624	-0.6105	3.4751	-0.0085	-0.0055	-0.0341	25.6480	4.2086	-15.7280	0.0846	0.5567	0.0988	-0.8205
4.87	-8.8218	-0.5974	3.4749	-0.0103	-0.0025	-0.0373	25.6983	3.9975	-15.4238	0.0846	0.5567	0.0988	-0.8204
4.88	-8.8240	-0.5787	3.4684	-0.0139	0.0120	-0.0352	25.5581	4.1691	-15.5874	0.0847	0.5568	0.0987	-0.8205
4.89	-8.8397	-0.5717	3.4655	-0.0145	0.0146	-0.0413	25.4721	4.2030	-15.6536	0.0847	0.5569	0.0987	-0.8203
4.9	-8.8575	-0.5840	3.4618	-0.0171	0.0145	-0.0490	25.3013	3.8009	-15.6503	0.0847	0.5570	0.0987	-0.8203
4.91	-8.8636	-0.6011	3.4541	-0.0143	0.0145	-0.0557	25.4112	4.1366	-15.5394	0.0846	0.5570	0.0987	-0.8202
4.92	-8.8650	-0.6108	3.4408	-0.0166	0.0171	-0.0644	25.5169	4.4549	-15.5788	0.0845	0.5572	0.0987	-0.8202
4.93	-8.8829	-0.6180	3.4374	-0.0136	0.0273	-0.0669	25.4964	4.3275	-15.8530	0.0844	0.5573	0.0988	-0.8201
4.94	-8.9221	-0.6051	3.4288	-0.0160	0.0231	-0.0750	25.4896	4.2244	-15.4628	0.0843	0.5574	0.0989	-0.8200
4.95	-8.9548	-0.5886	3.4234	-0.0175	0.0281	-0.0754	25.5188	4.1129	-15.3568	0.0842	0.5576	0.0990	-0.8199
4.96	-8.9717	-0.5921	3.4237	-0.0163	0.0200	-0.0761	25.4442	4.2562	-15.4977	0.0841	0.5576	0.0990	-0.8198
4.97	-8.9686	-0.5987	3.4270	-0.0341	0.0068	-0.0808	25.2250	4.1606	-15.4309	0.0840	0.5577	0.0992	-0.8198
4.98	-8.9766	-0.6238	3.4359	-0.0422	0.0101	-0.0744	25.6183	4.4085	-15.5638	0.0839	0.5577	0.0994	-0.8197
4.99	-8.9887	-0.6461	3.4409	-0.0473	-0.0034	-0.0665	25.5746	4.3737	-15.5565	0.0839	0.5578	0.0995	-0.8198
5	-8.9671	-0.6688	3.4606	-0.0490	-0.0184	-0.0541	25.2861	4.4146	-15.7196	0.0840	0.5577	0.0997	-0.8198
5.01	-8.9513	-0.6954	3.4573	-0.0496	-0.0182	-0.0520	25.4186	4.2967	-15.4728	0.0840	0.5576	0.0998	-0.8198
5.02	-8.9213	-0.7182	3.4635	-0.0613	-0.0208	-0.0422	25.3893	4.3205	-15.4539	0.0842	0.5575	0.1000	-0.8198
5.03	-8.8987	-0.7501	3.4567	-0.0517	-0.0246	-0.0396	25.3321	4.2438	-15.5982	0.0843	0.5575	0.1001	-0.8198
5.04	-8.8342	-0.7553	3.4706	-0.0481	-0.0307	-0.0354	25.6575	4.0639	-15.7077	0.0845	0.5574	0.1002	-0.8199
5.05	-8.8906	-0.7632	3.4880	-0.0418	-0.0037	-0.0385	25.7089	4.2324	-15.7619	0.0846	0.5573	0.1002	-0.8198
5.06	-8.9513	-0.7663	3.4705	-0.0417	-0.0215	-0.0378	25.5200	4.2081	-15.6063	0.0847	0.5573	0.1003	-0.8199
5.07	-8.8225	-0.7451	3.5064	-0.0376	-0.0261	-0.0453	25.5646	4.2021	-15.3786	0.0848	0.5572	0.1004	-0.8199
5.08	-8.8246	-0.7821	3.4765	-0.0346	-0.0086	-0.0434	25.7676	4.0167	-15.6348	0.0848	0.5573	0.1004	-0.8200
5.09	-8.8011	-0.7965	3.4819	-0.0222	-0.0097	-0.0459	25.9305	4.1273	-15.5674	0.0849	0.5572	0.1004	-0.8199
5.1	-8.7890	-0.7688	3.4947	-0.0074	-0.0081	-0.0472	26.3251	4.4971	-15.2754	0.0848	0.5572	0.1004	-0.8199
5.11	-8.7804	-0.7333	3.4932	-0.0036	-0.0063	-0.0420	26.0607	4.4422	-15.3233	0.0848	0.5572	0.1003	-0.8199
5.12	-8.7686	-0.6863	3.4979	-0.0012	0.0082	-0.0488	25.7981	4.4325	-15.4718	0.0848	0.5572	0.1002	-0.8198
5.13	-8.8142	-0.6638	3.4993	0.0021	0.0163	-0.0522	25.4691	4.3259	-15.7229	0.0847	0.5574	0.1002	-0.8199
5.14	-8.8315	-0.6689	3.4901	0.0023	0.0152	-0.0443	25.4630	4.1545	-15.7326	0.0846	0.5575	0.1001	-0.8198
5.15	-8.8477	-0.6627	3.4730	0.0015	0.0231	-0.0518	25.6988	4.2870	-15.6220	0.0846	0.5576	0.1000	-0.8198
5.16	-8.8698	-0.6523	3.4622	0.0011	0.0318	-0.0531	25.6614	4.3902	-15.6864	0.0845	0.5577	0.1000	-0.8195
5.17	-8.9027	-0.6483	3.4462	-0.0109	0.0341	-0.0533	25.6731	4.6171	-15.6391	0.0844	0.5579	0.1000	-0.8195
5.18	-8.9251	-0.6449	3.4325	-0.0059	0.0318	-0.0533	25.3393	4.6794	-15.7084	0.0843	0.5581	0.1000	-0.8194
5.19	-8.9445	-0.6541	3.4190	-0.0134	0.0270	-0.0523	25.3010	4.5772	-15.5672	0.0843	0.5582	0.1000	-0.8193
5.2	-8.9490	-0.6613	3.4102	-0.0164	0.0225	-0.0554	25.4152	4.3806	-15.4944	0.0842	0.5584	0.1000	-0.8192
5.21	-8.9505	-0.6752	3.4079	-0.0148	0.0167	-0.0513	25.5455	4.3622	-15.5574	0.0842	0.5585	0.1000	-0.8192
5.22	-8.9692	-0.6827	3.3966	-0.0168	0.0159	-0.0452	25.6004	4.2708	-15.6532	0.0842	0.5586	0.1000	-0.8191
5.23	-8.9575	-0.6885	3.3868	-0.0168	0.0071	-0.0462	25.5623	4.3950	-15.5754	0.0842	0.5586	0.1000	-0.8190
5.24	-8.9463	-0.7017	3.3818	-0.0147	0.0030	-0.0449	25.7118	4.3041	-15.3577	0.0842	0.5587	0.1000	-0.8191
5.25	-8.9505	-0.7080	3.3828	-0.0169	0.0099	-0.0494	25.7870	4.2646	-15.5160	0.0842	0.5587	0.1000	-0.8190
5.26	-8.9625	-0.7167	3.3901	-0.0156	0.0001	-0.0507	25.6869	4.1867	-15.4435	0.0841	0.5588	0.1000	-0.8190
5.27	-8.9663	-0.7243	3.3878	-0.0117	-0.0078	-0.0468	25.6581	4.3234	-15.5760	0.0841	0.5588	0.1000	-0.8189
5.28	-8.9374	-0.7231	3.3976	-0.0120	-0.0091	-0.0507	25.4385	4.1700	-15.5835	0.0841	0.5588	0.0999	-0.8190
5.29	-8.9415	-0.7191	3.4014	-0.0073	-0.0047	-0.0431	25.5663	4.2778	-15.7018	0.0841	0.5588	0.0999	-0.8190
5.3	-8.9385	-0.7001	3.4006	-0.0005	-0.0088	-0.0460	25.5902	4.3332	-15.5583	0.0840	0.5587	0.0998	-0.8189
5.31	-8.9175	-0.6824	3.4035	0.0097	-0.0079	-0.0428	25.6718	4.1629	-15.5575	0.0840	0.5588	0.0997	-0.8190
5.32	-8.9067	-0.6569	3.4123	0.0024	-0.0122	-0.0368	25.5426	4.1491	-15.7434	0.0840	0.5588	0.0996	-0.8190
5.33	-8.9260	-0.6332	3.4137	0.0038	-0.0091	-0.0365	25.6307	4.2869	-15.6953	0.0840	0.5588	0.0995	-0.8191
5.34	-8.9285	-0.6122	3.4152	-0.0049	-0.0157	-0.0373	25.3694	4.4087	-15.5522	0.0840	0.5588	0.0994	-0.8190
5.35	-8.9080	-0.5992	3.4223	-0.0066	-0.0094	-0.0396	25.4394	4.4738	-15.5748	0.0840	0.5588	0.0993	-0.8191
5.36	-8.9148	-0.6037	3.4275	-0.0146	-0.0148	-0.0420	25.5156	4.3424	-15.7740	0.0840	0.5588	0.0992	-0.8191
5.37	-8.9082	-0.6067	3.4244	-0.0121	-0.0129	-0.0453	25.4799	4.4838	-15.6069	0.0840	0.5587	0.0992	-0.8190
5.38	-8.8875	-0.6052	3.4321	-0.0165	-0.0150	-0.0442	25.5071	4.4849	-15.3349	0.0840	0.5588	0.0992	-0.8192
5.39	-8.8827	-0.6003	3.4344	-0.0177	-0.0132	-0.0476	25.6241	4.4589	-15.5750	0.0840	0.5587	0.0992	-0.8191
5.4	-8.8873	-0.6051	3.4358	-0.0173	-0.0182	-0.0505	25.5054	4.3022	-15.5414	0.0840	0.5587	0.0992	-0.8192
5.41	-8.8682	-0.6136	3.4425	-0.0173	-0.0233	-0.0511	25.4749	4.3030	-15.6815	0.0840	0.5585	0.0992	-0.8191
5.42	-8.8602	-0.6273	3.4486	-0.0174	-0.0147	-0.0559	25.7359	4.1916	-15.6233	0.0840	0.5585	0.0992	-0.8192
5.43	-8.8500	-0.6360	3.4499	-0.0191	-0.0146	-0.0549	25.7668	4.2403	-15.5504	0.0840	0.5585	0.0992	-0.8193
5.44	-8.8443	-0.6502	3.4495	-0.0197	-0.0091	-0.0579	25.7608	4.1375	-15.5514	0.0839	0.5585	0.0992	-0.8192
5.45	-8.8416	-0.6574	3.4514	-0.0165	-0.0045	-0.0602	25.6709	4.1150	-15.6776	0.0839	0.5585	0.0993	-0.8193
5.46	-8.8493	-0.6504	3.4496	-0.0164	0.0036	-0.0567	25.6468	4.1420	-15.7524	0.0838	0.5585	0.0993	-0.8192
5.47	-8.8651	-0.6545	3.4475	-0.0154	0.0067	-0.0519	25.5329	4.0995	-15.5527	0.0838	0.5586	0.0993	-0.8192
5.48	-8.8536	-0.6454	3.4422	-0.0175	0.0050	-0.0626	25.7060	4.2277	-15.5694	0.0837	0.5586	0.0993	-0.8191
5.49	-8.8695	-0.6495	3.4471	-0.0221	0.0079	-0.0550	25.5212	4.3019	-15.5621	0.0837	0.5587	0.0994	-0.8192
5.5	-8.8985	-0.6687	3.4422	-0.0230	0.0119	-0.0553	25.6831	4.1787	-15.4063	0.0837	0.5588	0.0994	-0.8191
5.51	-8.9074	-0.6865	3.4329	-0.0313	0.0056	-0.0589	25.5421	4.2746	-15.6476	0.0837	0.5588	0.0995	-0.8191
5.52	-8.9133	-0.6920	3.4234	-0.0323	0.0120	-0.0586	25.2827	4.5085	-15.6719	0.0836	0.5589	0.0996	-0.8190
5.53	-8.9171	-0.7077	3.4149	-0.0285	0.0073	-0.0603	25.5714	4.4388	-15.6688	0.0836	0.5589	0.0997	-0.8189
5.54	-8.9126	-0.7171	3.4114	-0.0323	0.0059	-0.0555	25.6054	4.1763	-15.8210	0.0836	0.5590	0.0998	-0.8189
5.55	-8.9085	-0.7201	3.4078	-0.0332	0.0105	-0.0543	25.4828	4.3109	-15.5463	0.0836	0.5590	0.0999	-0.8188
5.56	-8.9207	-0.7415	3.4082	-0.0232	0.0065	-0.0470	25.4164	4.3923	-15.4857	0.0836	0.5591	0.0999	-0.8189
5.57	-8.9191	-0.7559	3.4047	-0.0170	0.0109	-0.0468	25.6470	4.4122	-15.5916	0.0836	0.5591	0.0999	-0.8188
5.58	-8.9124	-0.7566	3.4013	-0.0170	0.0099	-0.0490	25.5297	4.3052	-15.5698	0.0836	0.5593	0.0999	-0.8188
5.59	-8.9067	-0.7567	3.4045	-0.0146	0.0060	-0.0496	25.7882	4.3869	-15.4773	0.0836	0.5592	0.0999	-0.8186
5.6	-8.8987	-0.7465	3.4027	-0.0099	0.0001	-0.0421	25.8718	4.5211	-15.3494	0.0836	0.5593	0.0999	-0.8187
5.61	-8.8930	-0.7263	3.4084	-0.0061	-0.0041	-0.0417	25.8233	4.4211	-15.4291	0.0836	0.5593	0.0998	-0.8187
5.62	-8.9074	-0.7010	3.4161	0.0005	-0.0010	-0.0415	25.7067	4.2193	-15.4634	0.0835	0.5593	0.0997	-0.8186
5.63	-8.9232	-0.6913	3.4214	-0.0041	-0.0072	-0.0392	25.5089	4.4316	-15.4847	0.0835	0.5594	0.0996	-0.8187
5.64	-8.9289	-0.6855	3.4199	-0.0046	-0.0042	-0.0411	25.5378	4.1353	-15.4735	0.0835	0.5594	0.0996	-0.8186
5.65	-8.9066	-0.6789	3.4226	-0.0007	-0.0009	-0.0470	25.5827	4.0417	-15.5057	0.0835	0.5595	0.0995	-0.8187
5.66	-8.9045	-0.6567	3.4297	-0.0100	-0.0016	-0.0370	25.5772	4.3451	-15.7080	0.0835	0.5594	0.0994	-0.8186
5.67	-8.9342	-0.6442	3.4185	-0.0061	-0.0011	-0.0445	25.5441	4.2916	-15.4769	0.0835	0.5595	0.0994	-0.8186
5.68	-8.9129	-0.6479	3.4107	-0.0022	0.0031	-0.0451	25.4848	4.1354	-15.3738	0.0834	0.5595	0.0993	-0.8186
5.69	-8.8807	-0.6583	3.4106	-0.0022	-0.0041	-0.0486	25.6973	4.1927	-15.6056	0.0834	0.5596	0.0992	-0.8186
5.7	-8.9153	-0.6647	3.4248	-0.0152	0.0039	-0.0531	25.5409	4.3238	-15.4365	0.0834	0.5596	0.0992	-0.8186
5.71	-8.9598	-0.6700	3.4308	-0.0130	-0.0015	-0.0495	25.5982	4.4467	-15.5136	0.0833	0.5596	0.0992	-0.8185
5.72	-8.9144	-0.6750	3.4365	-0.0075	-0.0148	-0.0430	25.3033	4.4703	-15.4184	0.0833	0.5596	0.0992	-0.8186
5.73	-8.8828	-0.6933	3.4187	-0.0157	-0.0087	-0.0408	25.3857	4.1827	-15.6981	0.0833	0.5596	0.0991	-0.8185
5.74	-8.8821	-0.6976	3.4133	-0.0171	-0.0002	-0.0387	25.4973	4.2416	-15.5946	0.0834	0.5597	0.0991	-0.8186
5.75	-8.8715	-0.6786	3.4075	-0.0132	0.0025	-0.0357	25.4949	4.3355	-15.4766	0.0834	0.5597	0.0991	-0.8185
5.76	-8.8666	-0.6516	3.4116	-0.0069	0.0032	-0.0364	25.4068	4.2717	-15.6206	0.0834	0.5598	0.0990	-0.8185
5.77	-8.8788	-0.6204	3.4117	-0.0065	0.0026	-0.0393	25.3883	4.4275	-15.4472	0.0834	0.5598	0.0989	-0.8184
5.78	-8.9049	-0.6140	3.4068	-0.0013	0.0094	-0.0442	25.5140	4.4704	-15.3622	0.0834	0.5599	0.0989	-0.8184
5.79	-8.9244	-0.6271	3.3909	-0.0073	0.0072	-0.0486	25.4668	4.1387	-15.6449	0.0833	0.5599	0.0988	-0.8184
5.8	-8.9006	-0.6301	3.3921	-0.0124	0.0071	-0.0535	25.4885	4.1127	-15.5790	0.0833	0.5599	0.0988	-0.8183
5.81	-8.9063	-0.6301	3.3834	-0.0131	0.0029	-0.0592	25.4745	4.2539	-15.4535	0.0832	0.5601	0.0988	-0.8184
5.82	-8.9175	-0.6243	3.3821	-0.0174	0.0040	-0.0595	25.6518	4.1666	-15.6196	0.0832	0.5601	0.0989	-0.8183
5.83	-8.9468	-0.6257	3.3840	-0.0169	0.0037	-0.0631	25.6193	4.1171	-15.4690	0.0831	0.5602	0.0989	-0.8183
5.84	-8.9370	-0.6343	3.3755	-0.0196	0.0033	-0.0631	25.4363	4.1336	-15.4709	0.0830	0.5601	0.0990	-0.8182
5.85	-8.9336	-0.6523	3.3779	-0.0276	0.0097	-0.0611	25.6539	4.2500	-15.3504	0.0830	0.5602	0.0990	-0.8182
5.86	-8.9424	-0.6778	3.3733	-0.0296	-0.0035	-0.0626	25.4153	3.9950	-15.6146	0.0830	0.5602	0.0991	-0.8182
5.87	-8.9358	-0.7076	3.3804	-0.0426	-0.0043	-0.0550	25.4540	4.2202	-15.6795	0.0830	0.5602	0.0992	-0.8181
5.88	-8.9323	-0.7248	3.3783	-0.0332	-0.0124	-0.0537	25.5935	4.2925	-15.6404	0.0830	0.5602	0.0993	-0.8183
5.89	-8.9167	-0.7392	3.3785	-0.0361	-0.0061	-0.0527	25.4451	4.3721	-15.5318	0.0831	0.5602	0.0994	-0.8182
5.9	-8.9202	-0.7544	3.3857	-0.0317	-0.0008	-0.0448	25.7532	4.3295	-15.4089	0.0831	0.5602	0.0995	-0.8182
5.91	-8.9200	-0.7663	3.3595	-0.0325	-0.0073	-0.0434	25.7599	4.3115	-15.7069	0.0832	0.5601	0.0995	-0.8181
5.92	-8.8534	-0.7479	3.3911	-0.0193	-0.0027	-0.0444	25.5122	4.4826	-15.5960	0.0832	0.5602	0.0995	-0.8182
5.93	-8.9664	-0.7339	3.4031	-0.0280	0.0136	-0.0427	25.2967	4.3927	-15.4557	0.0832	0.5603	0.0996	-0.8181
5.94	-9.0235	-0.7194	3.3866	-0.0202	-0.0086	-0.0507	25.3673	4.2915	-15.4108	0.0832	0.5603	0.0996	-0.8180
5.95	-8.9046	-0.7048	3.4279	-0.0240	-0.0227	-0.0490	25.5137	4.4464	-15.3693	0.0832	0.5602	0.0996	-0.8181
5.96	-8.9146	-0.7336	3.3837	-0.0176	-0.0046	-0.0471	25.5857	4.4156	-15.3929	0.0832	0.5602	0.0996	-0.8181
5.97	-8.9058	-0.7641	3.3877	-0.0205	-0.0102	-0.0421	25.3530	4.5096	-15.6305	0.0833	0.5602	0.0996	-0.8181
5.98	-8.9010	-0.7497	3.3935	-0.0150	-0.0132	-0.0393	25.5848	4.1237	-15.6741	0.0833	0.5602	0.0996	-0.8181
5.99	-8.8770	-0.7314	3.4114	-0.0119	-0.0182	-0.0367	25.5503	4.0593	-15.6386	0.0833	0.5602	0.0995	-0.8182
6	-8.8825	-0.7062	3.4100	-0.0181	-0.0124	-0.0361	25.4733	4.3936	-15.6719	0.0834	0.5601	0.0995	-0.8182
6.01	-8.8979	-0.7001	3.4164	-0.0104	-0.0037	-0.0382	25.7075	3.9894	-15.6393	0.0834	0.5602	0.0994	-0.8182
6.02	-8.8967	-0.7056	3.4267	-0.0109	-0.0095	-0.0365	25.5243	4.0740	-15.6700	0.0834	0.5602	0.0994	-0.8181
6.03	-8.8934	-0.7034	3.4176	-0.0151	-0.0053	-0.0379	25.5059	4.2554	-15.4966	0.0834	0.5602	0.0993	-0.8182
6.04	-8.9050	-0.6998	3.4182	-0.0147	-0.0020	-0.0378	25.6007	4.1703	-15.4833	0.0835	0.5602	0.0993	-0.8182
6.05	-8.9026	-0.7021	3.4178	-0.0137	-0.0066	-0.0389	25.4966	4.0345	-15.3727	0.0835	0.5602	0.0992	-0.8181
6.06	-8.8978	-0.6957	3.4154	-0.0065	-0.0066	-0.0403	25.3348	3.9470	-15.3839	0.0835	0.5603	0.0992	-0.8182
6.07	-8.9060	-0.6932	3.4211	-0.0003	-0.0068	-0.0335	25.5061	4.2555	-15.3537	0.0835	0.5602	0.0991	-0.8181
6.08	-8.8967	-0.6951	3.4146	-0.0024	-0.0032	-0.0407	25.5475	4.3779	-15.4816	0.0835	0.5603	0.0990	-0.8182
6.09	-8.8760	-0.6949	3.4148	-0.0056	-0.0093	-0.0463	25.4175	4.5013	-15.3751	0.0835	0.5602	0.0989	-0.8181
6.1	-8.8754	-0.6893	3.4197	-0.0140	-0.0007	-0.0397	26.0415	4.3472	-15.4042	0.0835	0.5603	0.0989	-0.8181
6.11	-8.8888	-0.6797	3.4187	0.0002	0.0015	-0.0408	25.8952	4.3089	-15.5075	0.0835	0.5603	0.0988	-0.8181
6.12	-8.8968	-0.6650	3.4169	0.0003	-0.0019	-0.0427	25.6846	4.5466	-15.6266	0.0834	0.5603	0.0987	-0.8180
6.13	-8.8923	-0.6579	3.4204	-0.0011	0.0011	-0.0403	25.6168	4.4956	-15.6131	0.0834	0.5605	0.0986	-0.8181
6.14	-8.9037	-0.6594	3.4131	0.0039	0.0035	-0.0379	25.4990	4.3024	-15.5841	0.0834	0.5605	0.0985	-0.8180
6.15	-8.9231	-0.6658	3.4141	-0.0010	0.0067	-0.0382	25.4510	4.4558	-15.6969	0.0834	0.5606	0.0984	-0.8181
6.16	-8.9337	-0.6735	3.4158	-0.0019	-0.0051	-0.0367	25.3690	4.0570	-15.5358	0.0833	0.5605	0.0983	-0.8179
6.17	-8.9364	-0.6713	3.4142	0.0081	-0.0118	-0.0382	25.6694	4.1744	-15.4371	0.0833	0.5606	0.0982	-0.8181
6.18	-8.9230	-0.6603	3.4179	0.0032	-0.0087	-0.0374	25.6628	3.9671	-15.6811	0.0833	0.5606	0.0981	-0.8180
6.19	-8.9086	-0.6523	3.4226	0.0015	-0.0123	-0.0411	25.6924	4.0515	-15.7699	0.0833	0.5606	0.0980	-0.8180
6.2	-8.9139	-0.6471	3.4155	0.0077	-0.0008	-0.0377	25.6465	4.2464	-15.6162	0.0832	0.5606	0.0979	-0.8181
6.21	-8.9126	-0.6391	3.4216	0.0067	-0.0080	-0.0400	25.7397	4.1727	-15.5366	0.0832	0.5606	0.0977	-0.8181
6.22	-8.9111	-0.6271	3.4221	0.0033	-0.0125	-0.0449	25.9369	4.2227	-15.7876	0.0832	0.5606	0.0976	-0.8181
6.23	-8.9098	-0.6158	3.4243	-0.0011	-0.0066	-0.0441	25.5736	4.1777	-15.5250	0.0831	0.5606	0.0975	-0.8180
6.24	-8.9148	-0.6069	3.4280	0.0049	-0.0016	-0.0480	25.5677	4.2292	-15.5923	0.0831	0.5607	0.0975	-0.8181
6.25	-8.9144	-0.6024	3.4277	-0.0096	-0.0200	-0.0449	25.6447	4.2908	-15.8001	0.0830	0.5606	0.0974	-0.8181
6.26	-8.8930	-0.5922	3.4259	-0.0129	-0.0117	-0.0464	25.6865	4.0587	-15.6515	0.0830	0.5606	0.0974	-0.8182
6.27	-8.8903	-0.5891	3.4367	-0.0127	-0.0087	-0.0477	25.6004	4.3378	-15.5353	0.0830	0.5606	0.0974	-0.8181
6.28	-8.9000	-0.5971	3.4303	-0.0181	-0.0079	-0.0498	25.5324	4.3514	-15.5896	0.0830	0.5606	0.0974	-0.8182
6.29	-8.8908	-0.6001	3.4327	-0.0185	-0.0073	-0.0483	25.5491	4.2666	-15.4690	0.0830	0.5606	0.0974	-0.8182
6.3	-8.9018	-0.6110	3.4352	-0.0204	-0.0056	-0.0512	25.5929	4.2883	-15.5395	0.0830	0.5605	0.0974	-0.8181
6.31	-8.9126	-0.6179	3.4354	-0.0202	-0.0068	-0.0504	25.6096	4.3987	-15.6689	0.0830	0.5606	0.0974	-0.8182
6.32	-8.9133	-0.6291	3.4290	-0.0181	-0.0071	-0.0492	25.5199	4.3315	-15.5070	0.0830	0.5606	0.0974	-0.8181
6.33	-8.9150	-0.6492	3.4375	-0.0301	-0.0117	-0.0507	25.5651	4.2720	-15.6044	0.0830	0.5606	0.0975	-0.8182
6.34	-8.9229	-0.6651	3.4369	-0.0274	-0.0056	-0.0497	25.5877	4.2165	-15.4166	0.0830	0.5605	0.0975	-0.8181
6.35	-8.9131	-0.6780	3.4301	-0.0166	-0.0114	-0.0487	25.4996	4.2862	-15.5246	0.0830	0.5605	0.0975	-0.8182
6.36	-8.8956	-0.6834	3.4366	-0.0158	-0.0099	-0.0466	25.8054	3.9382	-15.6999	0.0830	0.5605	0.0975	-0.8182
6.37	-8.8873	-0.6879	3.4310	-0.0173	-0.0130	-0.0481	25.6781	4.0044	-15.5299	0.0830	0.5605	0.0975	-0.8181
6.38	-8.8812	-0.6857	3.4281	-0.0123	-0.0152	-0.0486	25.5569	4.0465	-15.5582	0.0830	0.5605	0.0975	-0.8183
6.39	-8.8717	-0.6807	3.4286	-0.0146	-0.0109	-0.0441	25.7858	4.1301	-15.6975	0.0830	0.5605	0.0975	-0.8182
6.4	-8.8767	-0.6730	3.4385	-0.0123	-0.0076	-0.0445	25.8568	4.1026	-15.7653	0.0830	0.5605	0.0974	-0.8183
6.41	-8.9027	-0.6607	3.4373	-0.0030	-0.0008	-0.0422	25.5261	4.1155	-15.6335	0.0830	0.5604	0.0973	-0.8182
6.42	-8.9012	-0.6607	3.4424	-0.0061	-0.0045	-0.0431	25.6458	4.2157	-15.5328	0.0830	0.5605	0.0973	-0.8182
6.43	-8.8906	-0.6612	3.4488	-0.0000	-0.0039	-0.0441	25.8191	4.1940	-15.7531	0.0829	0.5605	0.0972	-0.8182
6.44	-8.8938	-0.6611	3.4396	-0.0067	-0.0016	-0.0463	25.6753	4.2093	-15.6568	0.0829	0.5605	0.0972	-0.8182
6.45	-8.8822	-0.6620	3.4365	-0.0040	-0.0031	-0.0466	25.5817	4.0995	-15.5502	0.0829	0.5606	0.0971	-0.8182
6.46	-8.8619	-0.6629	3.4287	-0.0045	0.0012	-0.0485	25.4479	4.2509	-15.3878	0.0828	0.5606	0.0971	-0.8182
6.47	-8.8502	-0.6513	3.4282	0.0039	0.0025	-0.0446	25.6144	4.3232	-15.4200	0.0828	0.5607	0.0970	-0.8182
6.48	-8.8577	-0.6412	3.4321	0.0002	0.0121	-0.0482	25.8149	4.1817	-15.5552	0.0827	0.5607	0.0969	-0.8181
6.49	-8.8870	-0.6209	3.4279	0.0002	0.0070	-0.0450	25.4945	4.2220	-15.5787	0.0827	0.5608	0.0968	-0.8181
6.5	-8.8890	-0.6010	3.4288	0.0027	0.0024	-0.0518	25.5684	4.3206	-15.3145	0.0826	0.5609	0.0968	-0.8181
6.51	-8.8902	-0.6032	3.4333	0.0002	0.0073	-0.0489	25.8184	4.5060	-15.3402	0.0825	0.5609	0.0967	-0.8181
6.52	-8.9101	-0.6016	3.4304	0.0057	0.0121	-0.0559	25.5572	4.2451	-15.4671	0.0824	0.5610	0.0966	-0.8180
6.53	-8.9479	-0.5862	3.4226	0.0073	0.0155	-0.0575	25.4710	4.1010	-15.5053	0.0823	0.5611	0.0966	-0.8180
6.54	-8.9562	-0.5775	3.4214	-0.0082	0.0057	-0.0570	25.7691	4.2545	-15.7199	0.0822	0.5612	0.0966	-0.8179
6.55	-8.9276	-0.5866	3.4113	-0.0117	-0.0047	-0.0604	26.0091	4.0993	-15.5112	0.0821	0.5611	0.0966	-0.8179
6.56	-8.8971	-0.5983	3.4109	-0.0158	0.0039	-0.0640	25.5680	4.1143	-15.6845	0.0821	0.5612	0.0966	-0.8180
6.57	-8.9222	-0.6202	3.4225	-0.0167	0.0027	-0.0617	25.8149	3.9763	-15.4404	0.0820	0.5612	0.0966	-0.8179
6.58	-8.9614	-0.6437	3.4210	-0.0167	-0.0009	-0.0602	25.7977	4.1128	-15.5414	0.0819	0.5613	0.0967	-0.8179
6.59	-8.9161	-0.6444	3.4159	-0.0176	-0.0078	-0.0613	25.8213	4.1795	-15.4830	0.0819	0.5612	0.0967	-0.8178
6.6	-8.8805	-0.6480	3.4135	-0.0179	-0.0085	-0.0552	26.1346	4.4959	-15.1760	0.0818	0.5613	0.0967	-0.8179
6.61	-8.9064	-0.6619	3.4008	-0.0265	-0.0006	-0.0441	25.8913	4.3448	-15.2651	0.0819	0.5613	0.0968	-0.8179
6.62	-8.8867	-0.6560	3.3986	-0.0216	-0.0064	-0.0484	25.7472	4.1218	-15.4421	0.0819	0.5612	0.0968	-0.8178
6.63	-8.8872	-0.6472	3.4061	-0.0167	-0.0085	-0.0417	25.5836	4.1897	-15.5811	0.0819	0.5613	0.0968	-0.8179
6.64	-8.9139	-0.6415	3.3933	-0.0161	0.0037	-0.0465	25.5527	4.0037	-15.5517	0.0819	0.5613	0.0968	-0.8178
6.65	-8.9236	-0.6455	3.3800	-0.0223	0.0093	-0.0533	25.5422	4.3521	-15.4189	0.0819	0.5614	0.0968	-0.8178
6.66	-8.9145	-0.6515	3.3718	-0.0194	0.0039	-0.0475	25.4732	4.2249	-15.6990	0.0819	0.5614	0.0968	-0.8177
6.67	-8.9066	-0.6592	3.3753	-0.0198	-0.0061	-0.0543	25.7249	4.3617	-15.6345	0.0819	0.5614	0.0968	-0.8178
6.68	-8.9242	-0.6536	3.3668	-0.0181	0.0012	-0.0570	25.4889	4.2735	-15.7362	0.0818	0.5614	0.0969	-0.8177
6.69	-8.9266	-0.6473	3.3649	-0.0150	0.0027	-0.0633	25.4929	4.2112	-15.7089	0.0817	0.5615	0.0969	-0.8177
6.7	-8.9175	-0.6409	3.3712	-0.0172	-0.0018	-0.0628	25.6014	4.2716	-15.5237	0.0817	0.5615	0.0969	-0.8177
6.71	-8.9415	-0.6412	3.3674	-0.0153	0.0071	-0.0583	25.5694	4.1866	-15.6323	0.0816	0.5615	0.0970	-0.8177
6.72	-8.9519	-0.6412	3.3777	-0.0246	-0.0061	-0.0560	25.6489	4.3870	-15.6418	0.0816	0.5616	0.0970	-0.8177
6.73	-8.9410	-0.6445	3.3835	-0.0281	-0.0077	-0.0623	25.6996	4.3678	-15.4333	0.0815	0.5615	0.0971	-0.8176
6.74	-8.9340	-0.6562	3.3817	-0.0268	-0.0099	-0.0497	25.6484	4.0766	-15.6395	0.0816	0.5615	0.0971	-0.8177
6.75	-8.9334	-0.6592	3.3845	-0.0366	-0.0028	-0.0498	25.5724	4.2400	-15.4586	0.0816	0.5615	0.0972	-0.8177
6.76	-8.9204	-0.6667	3.4007	-0.0428	-0.0118	-0.0490	25.8753	4.1929	-15.6292	0.0817	0.5615	0.0973	-0.8177
6.77	-8.9296	-0.6832	3.3968	-0.0410	-0.0128	-0.0474	25.7485	3.9409	-15.7592	0.0817	0.5615	0.0974	-0.8177
6.78	-8.8865	-0.6874	3.3870	-0.0447	-0.0223	-0.0415	25.6537	4.1281	-15.6481	0.0818	0.5614	0.0975	-0.8177
6.79	-8.8941	-0.6886	3.4244	-0.0428	-0.0129	-0.0424	25.6902	4.3543	-15.6191	0.0819	0.5614	0.0976	-0.8177
6.8	-9.0039	-0.6910	3.4015	-0.0425	-0.0181	-0.0456	25.6653	4.2307	-15.5343	0.0820	0.5613	0.0977	-0.8177
6.81	-8.9058	-0.6816	3.4308	-0.0421	-0.0338	-0.0477	25.6873	4.2535	-15.8062	0.0821	0.5612	0.0978	-0.8178
6.82	-8.9068	-0.7004	3.4162	-0.0399	-0.0104	-0.0456	25.6642	4.3507	-15.7320	0.0822	0.5612	0.0979	-0.8178
6.83	-8.9364	-0.7376	3.3971	-0.0394	-0.0109	-0.0468	25.7033	4.3157	-15.7856	0.0822	0.5612	0.0979	-0.8178
6.84	-8.8875	-0.7457	3.4210	-0.0262	-0.0181	-0.0410	25.5674	4.3365	-15.6490	0.0823	0.5611	0.0980	-0.8178
6.85	-8.8804	-0.7336	3.4208	-0.0279	-0.0246	-0.0400	25.4928	4.2003	-15.6726	0.0824	0.5610	0.0980	-0.8179
6.86	-8.8712	-0.7202	3.4322	-0.0277	-0.0129	-0.0386	25.6685	4.2978	-15.6576	0.0824	0.5610	0.0980	-0.8179
6.87	-8.8657	-0.6964	3.4362	-0.0186	-0.0137	-0.0381	25.6944	4.3602	-15.6687	0.0825	0.5609	0.0980	-0.8178
6.88	-8.8683	-0.6929	3.4479	-0.0166	-0.0106	-0.0406	25.5563	4.1888	-15.7559	0.0825	0.5610	0.0979	-0.8179
6.89	-8.8652	-0.6955	3.4414	-0.0147	-0.0146	-0.0426	25.4973	4.4506	-15.6391	0.0825	0.5609	0.0979	-0.8179
6.9	-8.8592	-0.6937	3.4430	-0.0186	-0.0129	-0.0419	25.6959	4.2629	-15.6928	0.0825	0.5609	0.0979	-0.8180
6.91	-8.8662	-0.6797	3.4418	-0.0165	-0.0084	-0.0442	25.6606	4.2485	-15.5485	0.0825	0.5609	0.0979	-0.8179
6.92	-8.8803	-0.6605	3.4444	-0.0078	-0.0003	-0.0461	25.5877	4.1904	-15.8217	0.0825	0.5609	0.0978	-0.8179
6.93	-8.8902	-0.6566	3.4411	-0.0090	-0.0045	-0.0446	25.7253	4.0437	-15.6689	0.0825	0.5609	0.0978	-0.8179
6.94	-8.8913	-0.6566	3.4389	-0.0140	-0.0012	-0.0476	25.5704	4.2865	-15.6773	0.0825	0.5610	0.0978	-0.8179
6.95	-8.8751	-0.6575	3.4394	-0.0092	-0.0023	-0.0503	25.6849	4.1174	-15.5412	0.0825	0.5610	0.0978	-0.8179
6.96	-8.8742	-0.6639	3.4348	-0.0059	-0.0028	-0.0482	25.9474	4.1839	-15.6118	0.0824	0.5610	0.0977	-0.8179
6.97	-8.8789	-0.6689	3.4309	-0.0132	-0.0038	-0.0472	25.6614	4.3184	-15.6816	0.0824	0.5611	0.0977	-0.8179
6.98	-8.8734	-0.6664	3.4347	-0.0084	0.0029	-0.0489	25.4521	4.3351	-15.6644	0.0824	0.5610	0.0977	-0.8178
6.99	-8.8741	-0.6694	3.4290	0.0001	0.0063	-0.0476	25.6431	4.2170	-15.6530	0.0823	0.5612	0.0976	-0.8179
7	-8.8675	-0.6619	3.4227	0.0069	0.0040	-0.0411	25.8376	4.2553	-15.5295	0.0823	0.5612	0.0975	-0.8178
7.01	-8.8736	-0.6433	3.4165	0.0014	0.0109	-0.0468	25.6007	4.2207	-15.6547	0.0822	0.5613	0.0974	-0.8178
7.02	-8.8962	-0.6304	3.4119	0.0009	0.0123	-0.0439	25.4925	4.3429	-15.6866	0.0821	0.5613	0.0973	-0.8177
7.03	-8.9293	-0.6137	3.4156	-0.0041	0.0120	-0.0464	25.4846	4.3111	-15.6267	0.0821	0.5614	0.0973	-0.8177
7.04	-8.9550	-0.6005	3.4177	-0.0014	0.0116	-0.0430	25.7563	4.1587	-15.5533	0.0821	0.5615	0.0972	-0.8176
7.05	-8.9567	-0.6001	3.4117	-0.0138	0.0035	-0.0377	25.6850	4.1578	-15.5707	0.0821	0.5615	0.0972	-0.8175
7.06	-8.9560	-0.6064	3.4108	-0.0165	0.0079	-0.0442	25.5811	4.0393	-15.5771	0.0821	0.5617	0.0972	-0.8176
7.07	-8.9567	-0.6130	3.3984	-0.0105	0.0101	-0.0460	25.6963	4.4018	-15.5383	0.0821	0.5617	0.0971	-0.8175
7.08	-8.9448	-0.6200	3.3952	-0.0119	0.0021	-0.0433	25.4562	4.3539	-15.4492	0.0821	0.5618	0.0971	-0.8175
7.09	-8.9404	-0.6274	3.4032	-0.0121	0.0033	-0.0404	25.6809	4.3168	-15.5198	0.0821	0.5618	0.0971	-0.8174
7.1	-8.9460	-0.6262	3.3910	-0.0127	-0.0024	-0.0379	26.0610	4.3338	-15.2978	0.0821	0.5618	0.0970	-0.8174
7.11	-8.9263	-0.6151	3.3979	-0.0147	-0.0067	-0.0401	25.9422	4.3456	-15.3644	0.0821	0.5618	0.0970	-0.8174
7.12	-8.9105	-0.6064	3.4128	-0.0179	-0.0149	-0.0411	25.8531	4.1956	-15.4232	0.0821	0.5618	0.0970	-0.8174
7.13	-8.8952	-0.5934	3.4168	-0.0150	-0.0096	-0.0425	25.6635	4.0450	-15.4903	0.0822	0.5618	0.0969	-0.8175
7.14	-8.8867	-0.5883	3.4161	-0.0203	-0.0042	-0.0452	25.7532	4.1055	-15.4169	0.0822	0.5618	0.0969	-0.8174
7.15	-8.8928	-0.5925	3.4204	-0.0194	-0.0070	-0.0468	25.8895	4.1124	-15.4052	0.0822	0.5618	0.0969	-0.8175
7.16	-8.8877	-0.5991	3.4242	-0.0208	0.0007	-0.0435	25.8177	4.0837	-15.5837	0.0822	0.5618	0.0969	-0.8174
7.17	-8.8925	-0.6095	3.4207	-0.0253	0.0012	-0.0492	25.7449	4.2562	-15.4339	0.0822	0.5619	0.0970	-0.8174
7.18	-8.8952	-0.6172	3.4231	-0.0265	-0.0048	-0.0470	25.4101	4.2369	-15.6717	0.0822	0.5619	0.0970	-0.8174
7.19	-8.8983	-0.6264	3.4275	-0.0315	-0.0018	-0.0515	25.4398	4.1605	-15.5733	0.0822	0.5619	0.0971	-0.8174
7.2	-8.9156	-0.6371	3.4197	-0.0318	0.0008	-0.0546	25.7159	4.2966	-15.5402	0.0822	0.5619	0.0972	-0.8174
7.21	-8.9190	-0.6437	3.4155	-0.0285	0.0125	-0.0519	25.6237	4.2877	-15.5973	0.0822	0.5620	0.0972	-0.8173
7.22	-8.9063	-0.6561	3.4130	-0.0319	0.0030	-0.0519	25.7311	4.4368	-15.4708	0.0823	0.5620	0.0973	-0.8173
7.23	-8.9016	-0.6745	3.4044	-0.0318	0.0011	-0.0560	25.4373	4.1509	-15.5514	0.0823	0.5620	0.0974	-0.8172
7.24	-8.9074	-0.6869	3.4036	-0.0244	0.0071	-0.0553	25.5566	4.3337	-15.6745	0.0822	0.5621	0.0974	-0.8172
7.25	-8.9015	-0.6934	3.3989	-0.0211	0.0075	-0.0540	25.4845	4.5069	-15.6526	0.0822	0.5621	0.0975	-0.8172
7.26	-8.9034	-0.6951	3.3959	-0.0287	0.0072	-0.0466	25.4067	4.3628	-15.3614	0.0822	0.5622	0.0975	-0.8171
7.27	-8.9013	-0.6970	3.3913	-0.0223	0.0026	-0.0492	25.7224	4.3664	-15.5021	0.0822	0.5622	0.0976	-0.8171
7.28	-8.8971	-0.7072	3.3902	-0.0149	0.0039	-0.0416	25.5089	4.3706	-15.4107	0.0822	0.5623	0.0975	-0.8171
7.29	-8.8975	-0.7013	3.3903	-0.0169	0.0041	-0.0439	25.6651	4.3653	-15.4340	0.0823	0.5623	0.0975	-0.8170
7.3	-8.8989	-0.6965	3.3821	-0.0086	-0.0034	-0.0489	25.6622	4.3274	-15.4645	0.0822	0.5623	0.0975	-0.8170
7.31	-8.9118	-0.6933	3.3770	-0.0095	0.0067	-0.0504	25.6650	4.0031	-15.6025	0.0822	0.5624	0.0975	-0.8170
7.32	-8.9095	-0.6738	3.3879	0.0021	0.0046	-0.0494	25.8156	3.9709	-15.7591	0.0821	0.5624	0.0974	-0.8170
7.33	-8.9372	-0.6701	3.3845	-0.0058	0.0064	-0.0483	25.8656	4.2334	-15.5318	0.0821	0.5625	0.0974	-0.8170
7.34	-8.9235	-0.6624	3.3795	-0.0139	0.0049	-0.0491	25.7423	4.0924	-15.5687	0.0820	0.5625	0.0973	-0.8169
7.35	-8.9217	-0.6687	3.3694	-0.0130	0.0022	-0.0484	25.7530	4.0930	-15.5489	0.0820	0.5626	0.0973	-0.8169
7.36	-8.9158	-0.6606	3.3703	-0.0067	0.0001	-0.0492	25.7569	4.3312	-15.5639	0.0820	0.5626	0.0973	-0.8169
7.37	-8.9555	-0.6418	3.3775	-0.0056	0.0081	-0.0469	25.7529	4.0280	-15.5554	0.0819	0.5626	0.0973	-0.8168
7.38	-8.9850	-0.6094	3.3703	0.0020	-0.0006	-0.0499	25.6617	3.9179	-15.5475	0.0819	0.5628	0.0972	-0.8169
7.39	-8.9521	-0.5956	3.3719	-0.0151	0.0057	-0.0537	25.5012	4.3175	-15.4343	0.0818	0.5628	0.0972	-0.8168
7.4	-8.9468	-0.6078	3.3757	-0.0143	-0.0032	-0.0577	25.5294	4.2515	-15.5077	0.0818	0.5628	0.0972	-0.8168
7.41	-8.9655	-0.6267	3.3819	-0.0174	0.0025	-0.0601	25.6945	4.3048	-15.3511	0.0817	0.5628	0.0972	-0.8167
7.42	-8.9940	-0.6529	3.3775	-0.0160	-0.0025	-0.0578	25.5280	4.2500	-15.2926	0.0817	0.5628	0.0973	-0.8168
7.43	-8.9707	-0.6575	3.3821	-0.0195	-0.0147	-0.0553	25.4619	4.0020	-15.4074	0.0816	0.5628	0.0973	-0.8168
7.44	-8.9328	-0.6688	3.3662	-0.0211	-0.0122	-0.0493	25.5543	4.3706	-15.3384	0.0816	0.5628	0.0973	-0.8168
7.45	-8.9220	-0.6902	3.3674	-0.0176	-0.0081	-0.0493	25.7007	4.3622	-15.6074	0.0816	0.5628	0.0973	-0.8168
7.46	-8.9186	-0.6792	3.3690	-0.0168	-0.0107	-0.0497	25.4886	4.3900	-15.5271	0.0816	0.5627	0.0973	-0.8168
7.47	-8.9113	-0.6619	3.3758	-0.0161	-0.0140	-0.0448	25.5413	4.2650	-15.3988	0.0816	0.5627	0.0973	-0.8169
7.48	-8.9042	-0.6376	3.3804	-0.0147	-0.0128	-0.0420	25.6607	4.0626	-15.3421	0.0816	0.5626	0.0973	-0.8168
7.49	-8.8982	-0.6155	3.3804	-0.0165	-0.0152	-0.0470	25.6905	4.1421	-15.4181	0.0817	0.5627	0.0973	-0.8169
7.5	-8.8883	-0.6105	3.3813	-0.0142	-0.0113	-0.0560	25.7566	4.2081	-15.4413	0.0816	0.5626	0.0973	-0.8169
7.51	-8.9017	-0.6168	3.3836	-0.0153	-0.0166	-0.0635	25.8202	4.1543	-15.3204	0.0815	0.5626	0.0973	-0.8170
7.52	-8.9042	-0.6204	3.3786	-0.0141	-0.0050	-0.0679	25.8608	3.8745	-15.5825	0.0815	0.5626	0.0973	-0.8169
7.53	-8.8988	-0.6302	3.3759	-0.0163	-0.0167	-0.0675	25.5663	3.8788	-15.6691	0.0814	0.5625	0.0974	-0.8170
7.54	-8.9016	-0.6371	3.3742	-0.0181	-0.0143	-0.0663	25.6195	4.3044	-15.3886	0.0813	0.5625	0.0974	-0.8170
7.55	-8.9037	-0.6387	3.3749	-0.0200	-0.0076	-0.0654	25.7713	4.2641	-15.4445	0.0812	0.5624	0.0975	-0.8170
7.56	-8.9152	-0.6468	3.3706	-0.0203	-0.0069	-0.0630	25.7369	4.2020	-15.5867	0.0812	0.5625	0.0975	-0.8171
7.57	-8.9389	-0.6669	3.3762	-0.0275	-0.0120	-0.0607	25.7879	4.4450	-15.7079	0.0811	0.5624	0.0976	-0.8170
7.58	-8.9340	-0.6765	3.3725	-0.0244	-0.0099	-0.0643	25.6612	4.2403	-15.5041	0.0811	0.5625	0.0977	-0.8171
7.59	-8.9255	-0.6753	3.3781	-0.0316	-0.0162	-0.0607	25.7454	4.4849	-15.3657	0.0811	0.5623	0.0978	-0.8170
7.6	-8.9370	-0.6885	3.3794	-0.0367	-0.0080	-0.0567	26.2473	4.4344	-15.3673	0.0811	0.5623	0.0979	-0.8171
7.61	-8.9287	-0.6969	3.3683	-0.0298	-0.0076	-0.0517	26.1114	4.5254	-15.4298	0.0811	0.5623	0.0979	-0.8171
7.62	-8.8595	-0.6883	3.3810	-0.0307	-0.0143	-0.0496	25.6643	4.5171	-15.4337	0.0811	0.5623	0.0980	-0.8170
7.63	-8.9170	-0.6846	3.4102	-0.0370	0.0005	-0.0466	25.4108	4.2516	-15.2770	0.0812	0.5624	0.0981	-0.8171
7.64	-9.0225	-0.6963	3.3917	-0.0413	-0.0082	-0.0530	25.3231	4.4901	-15.4690	0.0812	0.5623	0.0982	-0.8170
7.65	-8.9111	-0.6912	3.4243	-0.0428	-0.0219	-0.0500	25.4174	4.2266	-15.2565	0.0813	0.5623	0.0983	-0.8171
7.66	-8.9005	-0.7138	3.4050	-0.0403	-0.0091	-0.0492	25.4250	4.3287	-15.4857	0.0814	0.5622	0.0984	-0.8170
7.67	-8.9240	-0.7581	3.3924	-0.0367	-0.0131	-0.0461	25.5543	4.4024	-15.5933	0.0814	0.5622	0.0984	-0.8171
7.68	-8.9153	-0.7603	3.4003	-0.0277	-0.0119	-0.0441	25.8067	4.1243	-15.7366	0.0815	0.5621	0.0985	-0.8171
7.69	-8.8926	-0.7440	3.4045	-0.0208	-0.0228	-0.0467	25.7069	4.1484	-15.6869	0.0815	0.5621	0.0985	-0.8171
7.7	-8.8717	-0.7328	3.4079	-0.0187	-0.0230	-0.0415	25.5885	4.2370	-15.6345	0.0815	0.5620	0.0985	-0.8172
7.71	-8.8856	-0.7144	3.4110	-0.0156	-0.0132	-0.0425	25.7461	4.1030	-15.4027	0.0815	0.5620	0.0984	-0.8172
7.72	-8.8900	-0.7169	3.4181	-0.0163	-0.0172	-0.0364	25.6117	4.2271	-15.3878	0.0816	0.5620	0.0984	-0.8173
7.73	-8.8908	-0.7199	3.4196	-0.0188	-0.0111	-0.0469	25.6019	4.2199	-15.7077	0.0816	0.5619	0.0984	-0.8172
7.74	-8.8784	-0.7311	3.4181	-0.0181	-0.0126	-0.0467	25.7080	4.3664	-15.7108	0.0816	0.5619	0.0984	-0.8173
7.75	-8.8808	-0.7323	3.4259	-0.0096	-0.0062	-0.0460	25.5492	4.3817	-15.5393	0.0816	0.5619	0.0983	-0.8173
7.76	-8.8975	-0.7307	3.4212	-0.0133	0.0013	-0.0503	25.7157	4.0003	-15.5180	0.0816	0.5620	0.0983	-0.8173
7.77	-8.9026	-0.7281	3.4149	-0.0080	-0.0033	-0.0487	25.5881	4.2807	-15.3411	0.0815	0.5619	0.0983	-0.8172
7.78	-8.8732	-0.7095	3.4154	-0.0031	-0.0035	-0.0493	25.5000	4.3065	-15.6755	0.0815	0.5620	0.0983	-0.8172
7.79	-8.8759	-0.6945	3.4052	0.0037	0.0033	-0.0455	25.5254	4.3812	-15.4212	0.0814	0.5620	0.0982	-0.8172
7.8	-8.8800	-0.6857	3.3958	0.0010	0.0020	-0.0421	25.5142	4.4221	-15.6993	0.0814	0.5620	0.0981	-0.8172
7.81	-8.8783	-0.6716	3.4046	0.0039	-0.0001	-0.0423	25.5179	4.3028	-15.5026	0.0813	0.5621	0.0980	-0.8173
7.82	-8.9040	-0.6587	3.4056	0.0024	0.0015	-0.0390	25.5227	4.4645	-15.3917	0.0813	0.5621	0.0979	-0.8172
7.83	-8.9139	-0.6487	3.4071	-0.0002	-0.0009	-0.0363	25.5120	4.3149	-15.5212	0.0813	0.5622	0.0978	-0.8172
7.84	-8.9209	-0.6432	3.4125	-0.0023	0.0012	-0.0363	25.5263	4.3270	-15.4457	0.0813	0.5622	0.0977	-0.8171
7.85	-8.9271	-0.6433	3.4151	-0.0026	-0.0042	-0.0360	25.6141	4.3049	-15.6250	0.0813	0.5623	0.0976	-0.8172
7.86	-8.9360	-0.6433	3.4133	-0.0041	-0.0047	-0.0380	25.6347	4.1811	-15.4854	0.0813	0.5623	0.0975	-0.8172
7.87	-8.9296	-0.6421	3.4102	-0.0009	0.0013	-0.0432	25.8095	4.3542	-15.4788	0.0813	0.5623	0.0974	-0.8171
7.88	-8.9273	-0.6395	3.4111	-0.0082	0.0003	-0.0428	25.6717	4.1912	-15.3642	0.0813	0.5624	0.0974	-0.8172
7.89	-8.9354	-0.6365	3.4151	-0.0083	-0.0061	-0.0415	25.7139	4.0228	-15.5459	0.0812	0.5623	0.0973	-0.8171
7.9	-8.9244	-0.6233	3.4127	-0.0158	-0.0105	-0.0450	25.6434	4.3158	-15.5339	0.0813	0.5624	0.0973	-0.8172
7.91	-8.9042	-0.6139	3.4150	-0.0090	-0.0117	-0.0468	25.4945	4.3367	-15.3418	0.0812	0.5623	0.0972	-0.8171
7.92	-8.9078	-0.6108	3.4124	-0.0103	-0.0113	-0.0485	25.5359	4.1833	-15.4319	0.0812	0.5623	0.0972	-0.8172
7.93	-8.9100	-0.6056	3.4181	-0.0150	-0.0133	-0.0482	25.6627	3.9774	-15.6288	0.0812	0.5623	0.0972	-0.8172
7.94	-8.9109	-0.5966	3.4190	-0.0214	-0.0117	-0.0551	25.7327	4.2387	-15.4414	0.0812	0.5622	0.0972	-0.8172
7.95	-8.9025	-0.6059	3.4256	-0.0177	-0.0192	-0.0536	25.5539	4.3132	-15.6028	0.0812	0.5622	0.0973	-0.8173
7.96	-8.8757	-0.6111	3.4342	-0.0229	-0.0131	-0.0605	25.6909	4.3614	-15.6611	0.0811	0.5621	0.0973	-0.8173
7.97	-8.8905	-0.6220	3.4344	-0.0335	-0.0100	-0.0542	25.5962	4.6297	-15.4772	0.0811	0.5622	0.0974	-0.8173
7.98	-8.8815	-0.6356	3.4315	-0.0386	-0.0125	-0.0578	25.3924	4.4067	-15.4912	0.0812	0.5620	0.0975	-0.8172
7.99	-8.8569	-0.6484	3.4330	-0.0359	-0.0145	-0.0561	25.5499	4.3894	-15.3512	0.0812	0.5621	0.0976	-0.8173
8	-8.8479	-0.6572	3.4272	-0.0417	-0.0085	-0.0562	25.5051	4.1331	-15.2705	0.0812	0.5620	0.0977	-0.8173
8.01	-8.8547	-0.6658	3.4333	-0.0424	-0.0012	-0.0534	25.5169	4.1995	-15.5949	0.0812	0.5620	0.0978	-0.8173
8.02	-8.8810	-0.6748	3.4277	-0.0403	0.0051	-0.0512	25.5251	4.3505	-15.4460	0.0813	0.5620	0.0979	-0.8172
8.03	-8.8817	-0.6795	3.4247	-0.0445	0.0058	-0.0516	25.6202	4.5306	-15.5314	0.0813	0.5621	0.0981	-0.8172
8.04	-8.9019	-0.6896	3.4269	-0.0432	0.0054	-0.0446	25.6370	4.2685	-15.5541	0.0814	0.5621	0.0982	-0.8172
8.05	-8.9157	-0.7160	3.4194	-0.0386	0.0087	-0.0478	25.8118	4.1354	-15.7230	0.0815	0.5621	0.0982	-0.8170
8.06	-8.9138	-0.7269	3.4170	-0.0361	0.0143	-0.0461	25.6583	4.1474	-15.8824	0.0815	0.5623	0.0983	-0.8171
8.07	-8.9133	-0.7316	3.4093	-0.0389	0.0042	-0.0463	25.7419	4.1380	-15.4823	0.0816	0.5623	0.0984	-0.8170
8.08	-8.9049	-0.7313	3.3967	-0.0170	0.0004	-0.0446	25.8148	4.1858	-15.5048	0.0816	0.5624	0.0984	-0.8170
8.09	-8.9050	-0.7203	3.3935	-0.0217	-0.0014	-0.0450	25.7438	4.4481	-15.2679	0.0816	0.5623	0.0984	-0.8169
8.1	-8.9114	-0.7119	3.3905	-0.0216	0.0013	-0.0448	26.0918	4.3793	-15.1969	0.0816	0.5624	0.0984	-0.8169
8.11	-8.9001	-0.7117	3.3864	-0.0164	0.0030	-0.0433	25.9076	4.3073	-15.3695	0.0816	0.5624	0.0984	-0.8169
8.12	-8.9075	-0.7030	3.3766	-0.0175	0.0089	-0.0421	25.6097	4.4287	-15.6194	0.0816	0.5624	0.0984	-0.8168
8.13	-8.9202	-0.6873	3.3800	-0.0148	0.0054	-0.0406	25.3519	4.3107	-15.5984	0.0817	0.5626	0.0984	-0.8169
8.14	-8.9326	-0.6773	3.3842	-0.0168	0.0072	-0.0475	25.3751	4.3803	-15.5516	0.0816	0.5626	0.0984	-0.8168
8.15	-8.9589	-0.6731	3.3895	-0.0182	0.0087	-0.0449	25.5655	4.2836	-15.5023	0.0816	0.5627	0.0984	-0.8168
8.16	-8.9384	-0.6751	3.3870	-0.0156	0.0025	-0.0495	25.3306	4.3364	-15.7463	0.0816	0.5626	0.0984	-0.8167
8.17	-8.9306	-0.6752	3.3908	-0.0144	0.0044	-0.0452	25.6960	4.5048	-15.8136	0.0817	0.5627	0.0984	-0.8167
8.18	-8.9644	-0.6602	3.3865	-0.0177	0.0048	-0.0477	25.7365	4.5289	-15.5167	0.0817	0.5628	0.0984	-0.8167
8.19	-8.9617	-0.6338	3.3873	-0.0146	0.0016	-0.0500	25.5627	4.2821	-15.5670	0.0816	0.5628	0.0984	-0.8166
8.2	-8.9482	-0.6293	3.3819	-0.0145	-0.0067	-0.0532	25.5768	4.1663	-15.4164	0.0816	0.5628	0.0984	-0.8167
8.21	-8.9343	-0.6382	3.3787	-0.0177	-0.0113	-0.0481	25.4423	4.2123	-15.3313	0.0816	0.5628	0.0984	-0.8167
8.22	-8.9246	-0.6563	3.3987	-0.0194	-0.0140	-0.0410	25.3459	4.3262	-15.4026	0.0816	0.5628	0.0984	-0.8167
8.23	-8.9633	-0.6691	3.4040	-0.0213	-0.0126	-0.0463	25.5853	4.1377	-15.5656	0.0816	0.5627	0.0984	-0.8166
8.24	-8.9675	-0.6796	3.4063	-0.0288	-0.0211	-0.0462	25.7762	4.3603	-15.4999	0.0817	0.5627	0.0984	-0.8168
8.25	-8.9139	-0.6866	3.4155	-0.0234	-0.0234	-0.0421	25.5992	4.2712	-15.4581	0.0817	0.5626	0.0984	-0.8168
8.26	-8.8803	-0.7039	3.4001	-0.0169	-0.0254	-0.0386	25.5264	4.1512	-15.6488	0.0818	0.5625	0.0984	-0.8168
8.27	-8.8628	-0.7132	3.3939	-0.0187	-0.0175	-0.0374	25.8122	4.2014	-15.5311	0.0818	0.5625	0.0984	-0.8168
8.28	-8.8530	-0.6970	3.4001	-0.0140	-0.0096	-0.0362	25.7874	4.0712	-15.5129	0.0819	0.5625	0.0983	-0.8169
8.29	-8.8633	-0.6688	3.3994	-0.0133	-0.0041	-0.0363	25.6159	4.3042	-15.6054	0.0819	0.5625	0.0983	-0.8169
8.3	-8.8634	-0.6381	3.4007	-0.0168	-0.0005	-0.0379	25.6983	4.1790	-15.6417	0.0819	0.5625	0.0982	-0.8168
8.31	-8.8875	-0.6249	3.4088	-0.0151	0.0059	-0.0369	25.4361	4.1874	-15.5215	0.0820	0.5626	0.0982	-0.8168
8.32	-8.9084	-0.6283	3.3963	-0.0154	-0.0009	-0.0399	25.6684	4.1888	-15.6840	0.0820	0.5626	0.0982	-0.8168
8.33	-8.9092	-0.6291	3.3844	-0.0165	0.0021	-0.0543	25.6552	4.4398	-15.5406	0.0820	0.5627	0.0982	-0.8168
8.34	-8.8977	-0.6303	3.3765	-0.0173	0.0041	-0.0538	25.6834	4.4632	-15.5441	0.0819	0.5626	0.0982	-0.8167
8.35	-8.9038	-0.6219	3.3790	-0.0161	0.0034	-0.0568	25.6301	4.3192	-15.5312	0.0819	0.5627	0.0982	-0.8167
8.36	-8.9188	-0.6183	3.3797	-0.0160	0.0022	-0.0568	25.3689	4.2395	-15.3756	0.0818	0.5627	0.0982	-0.8167
8.37	-8.9326	-0.6130	3.3778	-0.0161	0.0072	-0.0525	25.4824	4.3705	-15.6497	0.0818	0.5627	0.0982	-0.8166
8.38	-8.9488	-0.6198	3.3817	-0.0164	0.0044	-0.0579	25.4983	4.3455	-15.6140	0.0817	0.5629	0.0983	-0.8167
8.39	-8.9487	-0.6312	3.3789	-0.0265	-0.0035	-0.0540	25.4604	4.2631	-15.5324	0.0817	0.5628	0.0983	-0.8166
8.4	-8.9472	-0.6462	3.3725	-0.0313	-0.0051	-0.0571	25.3398	4.4769	-15.4912	0.0817	0.5628	0.0984	-0.8167
8.41	-8.9389	-0.6564	3.3777	-0.0386	-0.0123	-0.0464	25.6011	4.3600	-15.4130	0.0818	0.5627	0.0985	-0.8166
8.42	-8.9519	-0.6658	3.3776	-0.0431	-0.0053	-0.0468	25.7764	4.1345	-15.5953	0.0819	0.5628	0.0986	-0.8166
8.43	-8.9143	-0.6713	3.3669	-0.0411	-0.0177	-0.0425	25.7515	4.2518	-15.6303	0.0819	0.5627	0.0987	-0.8166
8.44	-8.9159	-0.6694	3.4033	-0.0398	-0.0131	-0.0384	25.7480	4.2927	-15.6364	0.0820	0.5627	0.0987	-0.8166
8.45	-9.0200	-0.6794	3.3844	-0.0421	-0.0140	-0.0420	25.6826	4.1726	-15.6164	0.0821	0.5627	0.0988	-0.8167
8.46	-8.9308	-0.6872	3.4103	-0.0427	-0.0327	-0.0488	25.7271	4.0587	-15.5112	0.0822	0.5625	0.0989	-0.8167
8.47	-8.9145	-0.7076	3.4027	-0.0404	-0.0171	-0.0483	25.4413	4.1767	-15.5463	0.0823	0.5625	0.0990	-0.8168
8.48	-8.9439	-0.7482	3.3770	-0.0419	-0.0184	-0.0482	25.5916	4.1885	-15.5316	0.0823	0.5624	0.0991	-0.8167
8.49	-8.9198	-0.7527	3.3946	-0.0330	-0.0250	-0.0456	25.4598	4.0885	-15.5335	0.0824	0.5624	0.0991	-0.8168
8.5	-8.8867	-0.7310	3.3970	-0.0229	-0.0280	-0.0426	25.6631	4.2439	-15.7186	0.0825	0.5622	0.0991	-0.8168
8.51	-8.8760	-0.7083	3.4066	-0.0172	-0.0218	-0.0391	25.6559	4.3547	-15.6673	0.0825	0.5622	0.0991	-0.8169
8.52	-8.8881	-0.6842	3.4016	-0.0167	-0.0197	-0.0460	25.6877	4.3614	-15.5085	0.0825	0.5621	0.0991	-0.8169
8.53	-8.8790	-0.6828	3.4203	-0.0241	-0.0175	-0.0399	25.4888	4.4975	-15.6993	0.0826	0.5621	0.0991	-0.8170
8.54	-8.8863	-0.6926	3.4217	-0.0116	-0.0164	-0.0455	25.3774	4.3304	-15.5317	0.0826	0.5620	0.0991	-0.8170
8.55	-8.8667	-0.6903	3.4194	-0.0154	-0.0146	-0.0420	25.7247	4.2305	-15.6259	0.0826	0.5620	0.0990	-0.8170
8.56	-8.8820	-0.6900	3.4272	-0.0165	-0.0087	-0.0430	25.4025	4.3185	-15.6302	0.0826	0.5620	0.0990	-0.8171
8.57	-8.8867	-0.6851	3.4308	-0.0157	-0.0105	-0.0505	25.2988	4.3411	-15.6518	0.0826	0.5620	0.0990	-0.8170
8.58	-8.8742	-0.6650	3.4395	-0.0167	-0.0102	-0.0540	25.5432	4.1797	-15.5545	0.0826	0.5620	0.0990	-0.8171
8.59	-8.8892	-0.6732	3.4319	-0.0159	-0.0061	-0.0471	25.7760	4.2546	-15.5265	0.0825	0.5619	0.0990	-0.8170
8.6	-8.8892	-0.6800	3.4313	-0.0141	-0.0146	-0.0504	25.8553	4.4490	-15.5443	0.0825	0.5619	0.0990	-0.8171
8.61	-8.8736	-0.6804	3.4270	-0.0090	-0.0132	-0.0463	25.8500	4.3553	-15.5410	0.0825	0.5619	0.0989	-0.8171
8.62	-8.8818	-0.6859	3.4261	-0.0160	-0.0080	-0.0415	25.7972	4.0575	-15.4596	0.0825	0.5619	0.0989	-0.8171
8.63	-8.8941	-0.6822	3.4256	-0.0096	-0.0097	-0.0428	25.5308	4.1606	-15.4846	0.0825	0.5619	0.0989	-0.8172
8.64	-8.8883	-0.6787	3.4231	-0.0089	-0.0080	-0.0485	25.4911	4.1490	-15.6467	0.0825	0.5619	0.0988	-0.8171
8.65	-8.8812	-0.6705	3.4230	-0.0112	-0.0073	-0.0373	25.4738	4.1613	-15.4930	0.0825	0.5619	0.0988	-0.8172
8.66	-8.8977	-0.6660	3.4212	-0.0099	-0.0061	-0.0422	25.4970	4.1771	-15.4921	0.0825	0.5618	0.0987	-0.8171
8.67	-8.9132	-0.6659	3.4247	-0.0167	-0.0063	-0.0452	25.3294	4.1314	-15.4896	0.0825	0.5619	0.0987	-0.8172
8.68	-8.9231	-0.6616	3.4236	-0.0163	-0.0001	-0.0396	25.5140	4.4123	-15.6893	0.0825	0.5619	0.0987	-0.8171
8.69	-8.9342	-0.6603	3.4284	-0.0124	-0.0072	-0.0375	25.5600	4.3512	-15.6086	0.0826	0.5619	0.0986	-0.8171
8.7	-8.9432	-0.6607	3.4241	-0.0068	0.0027	-0.0376	25.1285	4.2599	-15.4822	0.0826	0.5620	0.0986	-0.8171
8.71	-8.9324	-0.6604	3.4169	-0.0070	0.0019	-0.0429	25.2954	4.4371	-15.4895	0.0826	0.5620	0.0985	-0.8171
8.72	-8.9136	-0.6580	3.4150	-0.0069	-0.0103	-0.0443	25.4793	4.0916	-15.3292	0.0825	0.5620	0.0985	-0.8171
8.73	-8.9066	-0.6469	3.4160	-0.0149	-0.0070	-0.0495	25.4917	4.3525	-15.6146	0.0825	0.5619	0.0984	-0.8171
8.74	-8.9017	-0.6354	3.4248	-0.0059	-0.0063	-0.0458	25.3531	4.4538	-15.6790	0.0825	0.5620	0.0984	-0.8172
8.75	-8.9202	-0.6308	3.4305	-0.0012	-0.0024	-0.0489	25.2956	4.3577	-15.5549	0.0825	0.5620	0.0983	-0.8171
8.76	-8.9178	-0.6266	3.4302	-0.0096	-0.0103	-0.0498	25.5703	4.1126	-15.6161	0.0824	0.5620	0.0983	-0.8172
8.77	-8.8965	-0.6195	3.4275	-0.0088	-0.0083	-0.0451	25.5769	4.2966	-15.4636	0.0824	0.5620	0.0983	-0.8171
8.78	-8.8830	-0.6169	3.4351	-0.0110	-0.0134	-0.0478	25.4281	4.3163	-15.5316	0.0824	0.5619	0.0982	-0.8172
8.79	-8.8858	-0.6227	3.4364	-0.0169	-0.0063	-0.0472	25.3829	4.2237	-15.6231	0.0824	0.5620	0.0982	-0.8172
8.8	-8.8854	-0.6173	3.4250	-0.0160	-0.0087	-0.0459	25.7699	4.2728	-15.4844	0.0824	0.5619	0.0982	-0.8171
8.81	-8.8653	-0.6125	3.4290	-0.0175	-0.0123	-0.0468	25.7356	4.1408	-15.4929	0.0824	0.5619	0.0982	-0.8173
8.82	-8.8736	-0.6302	3.4240	-0.0249	0.0019	-0.0418	25.4646	4.0239	-15.4875	0.0824	0.5619	0.0982	-0.8172
8.83	-8.8947	-0.6428	3.4295	-0.0270	0.0023	-0.0457	25.5271	3.9608	-15.4907	0.0825	0.5620	0.0983	-0.8172
8.84	-8.9015	-0.6482	3.4245	-0.0291	-0.0008	-0.0401	25.7720	4.0893	-15.4803	0.0825	0.5620	0.0983	-0.8171
8.85	-8.9136	-0.6646	3.4246	-0.0386	-0.0028	-0.0424	25.7283	4.1919	-15.6255	0.0826	0.5620	0.0983	-0.8171
8.86	-8.9319	-0.6759	3.4227	-0.0281	0.0026	-0.0409	25.5945	4.3161	-15.5293	0.0826	0.5620	0.0984	-0.8171
8.87	-8.9279	-0.6751	3.4129	-0.0219	-0.0024	-0.0382	25.4872	4.3635	-15.7972	0.0827	0.5620	0.0984	-0.8170
8.88	-8.9235	-0.6682	3.4040	-0.0209	-0.0048	-0.0392	25.4636	4.2162	-15.5441	0.0828	0.5621	0.0984	-0.8171
8.89	-8.9118	-0.6571	3.3888	-0.0187	-0.0040	-0.0358	25.5158	4.0152	-15.3470	0.0828	0.5620	0.0984	-0.8170
8.9	-8.9193	-0.6570	3.3755	-0.0175	-0.0042	-0.0368	25.6038	4.1944	-15.6905	0.0829	0.5621	0.0983	-0.8171
8.91	-8.9076	-0.6521	3.3658	-0.0145	0.0043	-0.0354	25.4691	4.4477	-15.6701	0.0829	0.5621	0.0983	-0.8169
8.92	-8.8961	-0.6385	3.3691	-0.0219	-0.0058	-0.0361	25.3699	4.6336	-15.5992	0.0830	0.5621	0.0983	-0.8170
8.93	-8.9204	-0.6237	3.3768	-0.0135	0.0012	-0.0364	25.2548	4.2328	-15.5389	0.0830	0.5621	0.0982	-0.8170
8.94	-8.9503	-0.6223	3.3773	-0.0175	-0.0027	-0.0359	25.4072	4.3493	-15.4750	0.0830	0.5622	0.0982	-0.8169
8.95	-8.9220	-0.6188	3.3865	-0.0113	-0.0070	-0.0371	25.3658	4.2221	-15.5085	0.0831	0.5622	0.0982	-0.8170
8.96	-8.9016	-0.6086	3.4021	-0.0135	-0.0040	-0.0402	25.4446	4.3061	-15.4855	0.0831	0.5622	0.0981	-0.8169
8.97	-8.9487	-0.5971	3.3973	-0.0129	-0.0066	-0.0466	25.4643	4.2852	-15.5053	0.0831	0.5622	0.0981	-0.8170
8.98	-8.9500	-0.5717	3.3988	-0.0194	-0.0085	-0.0479	25.6414	3.8494	-15.4718	0.0831	0.5621	0.0981	-0.8169
8.99	-8.9391	-0.5555	3.3984	-0.0204	-0.0161	-0.0470	25.8809	3.9368	-15.4997	0.0831	0.5622	0.0981	-0.8170
9	-8.9111	-0.5492	3.4016	-0.0218	-0.0145	-0.0559	25.6436	4.0091	-15.6237	0.0831	0.5621	0.0981	-0.8170
9.01	-8.9034	-0.5639	3.4125	-0.0434	-0.0131	-0.0587	25.6855	3.9657	-15.4861	0.0831	0.5621	0.0983	-0.8170
9.02	-8.9376	-0.5999	3.4222	-0.0416	-0.0191	-0.0532	25.4579	4.0919	-15.4835	0.0831	0.5620	0.0984	-0.8170
9.03	-8.9574	-0.6309	3.4312	-0.0430	-0.0122	-0.0474	25.3553	4.3053	-15.7651	0.0832	0.5619	0.0985	-0.8171
9.04	-8.9239	-0.6455	3.4291	-0.0398	-0.0265	-0.0431	25.2549	4.1715	-15.5366	0.0833	0.5619	0.0986	-0.8171
9.05	-8.8823	-0.6780	3.4169	-0.0412	-0.0219	-0.0410	25.4682	4.1590	-15.4487	0.0834	0.5617	0.0986	-0.8171
9.06	-8.8606	-0.6944	3.4176	-0.0437	-0.0238	-0.0378	25.6065	4.1627	-15.7474	0.0835	0.5617	0.0987	-0.8172
9.07	-8.8570	-0.7017	3.4113	-0.0423	-0.0231	-0.0351	25.3606	4.1748	-15.4405	0.0836	0.5616	0.0988	-0.8172
9.08	-8.8508	-0.6976	3.4127	-0.0407	-0.0086	-0.0360	25.2635	4.3658	-15.6816	0.0838	0.5617	0.0988	-0.8173
9.09	-8.8492	-0.6766	3.4084	-0.0380	-0.0069	-0.0397	25.4723	4.2230	-15.5776	0.0838	0.5616	0.0989	-0.8171
9.1	-8.8594	-0.6779	3.4099	-0.0180	0.0032	-0.0439	26.0017	4.2937	-15.4899	0.0839	0.5616	0.0989	-0.8172
9.11	-8.8779	-0.6892	3.4025	-0.0163	0.0039	-0.0513	25.9349	4.3516	-15.4341	0.0838	0.5617	0.0989	-0.8171
9.12	-8.8796	-0.6852	3.3970	-0.0110	0.0015	-0.0552	25.6755	4.4002	-15.3446	0.0838	0.5617	0.0989	-0.8171
9.13	-8.8877	-0.6838	3.3981	0.0013	0.0023	-0.0627	25.4492	4.2965	-15.4473	0.0837	0.5618	0.0989	-0.8172
9.14	-8.9108	-0.6722	3.3970	0.0078	0.0053	-0.0646	25.4765	4.1111	-15.6540	0.0835	0.5618	0.0988	-0.8171
9.15	-8.9215	-0.6657	3.3969	0.0085	0.0084	-0.0681	25.6771	4.2486	-15.5468	0.0834	0.5619	0.0988	-0.8171
9.16	-8.9113	-0.6580	3.3919	0.0005	-0.0047	-0.0671	25.3449	4.3606	-15.6608	0.0832	0.5618	0.0987	-0.8170
9.17	-8.9111	-0.6638	3.3876	-0.0016	-0.0020	-0.0682	25.8132	4.3347	-15.5989	0.0831	0.5619	0.0987	-0.8171
9.18	-8.9189	-0.6693	3.3853	-0.0055	0.0019	-0.0617	25.6482	4.2306	-15.5845	0.0830	0.5619	0.0987	-0.8171
9.19	-8.9290	-0.6684	3.3874	-0.0145	0.0011	-0.0621	25.6058	4.2973	-15.6664	0.0829	0.5619	0.0988	-0.8171
9.2	-8.9462	-0.6744	3.3931	-0.0148	0.0030	-0.0566	25.8468	4.1353	-15.5492	0.0829	0.5619	0.0988	-0.8171
9.21	-8.9635	-0.6871	3.3870	-0.0168	-0.0030	-0.0501	25.6548	4.2376	-15.3556	0.0829	0.5619	0.0988	-0.8171
9.22	-8.9148	-0.6810	3.3812	-0.0164	-0.0189	-0.0440	25.5946	4.2310	-15.4981	0.0829	0.5619	0.0988	-0.8171
9.23	-8.9131	-0.6803	3.4160	-0.0162	0.0011	-0.0418	25.4790	4.0647	-15.5623	0.0829	0.5619	0.0987	-0.8170
9.24	-9.0246	-0.6972	3.3863	-0.0163	-0.0013	-0.0487	25.5444	4.0971	-15.4512	0.0829	0.5620	0.0987	-0.8171
9.25	-8.9097	-0.6924	3.4117	-0.0157	-0.0281	-0.0439	25.6948	4.2471	-15.7273	0.0829	0.5619	0.0987	-0.8171
9.26	-8.8925	-0.7150	3.4013	-0.0170	-0.0148	-0.0428	25.5039	4.2623	-15.5277	0.0829	0.5618	0.0987	-0.8172
9.27	-8.9330	-0.7555	3.3781	-0.0110	-0.0082	-0.0413	25.8481	4.2829	-15.5607	0.0829	0.5618	0.0987	-0.8171
9.28	-8.8973	-0.7464	3.3988	-0.0104	-0.0136	-0.0424	25.5420	4.0971	-15.5373	0.0829	0.5618	0.0986	-0.8172
9.29	-8.8743	-0.7174	3.4063	-0.0038	-0.0154	-0.0355	25.3480	4.1460	-15.5557	0.0830	0.5618	0.0985	-0.8172
9.3	-8.8811	-0.6794	3.4067	-0.0035	-0.0082	-0.0390	25.5182	4.1768	-15.5396	0.0829	0.5617	0.0984	-0.8172
9.31	-8.8874	-0.6410	3.4019	-0.0003	-0.0081	-0.0386	25.4882	4.1954	-15.5582	0.0829	0.5618	0.0984	-0.8173
9.32	-8.8914	-0.6367	3.4146	-0.0051	-0.0043	-0.0397	25.6608	4.2640	-15.6873	0.0829	0.5618	0.0983	-0.8172
9.33	-8.9183	-0.6377	3.3984	-0.0125	0.0049	-0.0376	25.4248	4.3302	-15.5554	0.0830	0.5619	0.0982	-0.8173
9.34	-8.9167	-0.6309	3.4077	-0.0004	-0.0062	-0.0374	25.4021	4.3614	-15.5482	0.0829	0.5618	0.0981	-0.8172
9.35	-8.9264	-0.6301	3.4107	-0.0032	-0.0102	-0.0366	25.5251	4.1191	-15.6719	0.0829	0.5618	0.0980	-0.8172
9.36	-8.9293	-0.6221	3.4088	0.0021	-0.0090	-0.0361	25.4968	4.0278	-15.5898	0.0829	0.5618	0.0979	-0.8173
9.37	-8.9429	-0.6230	3.3995	-0.0140	-0.0086	-0.0364	25.7915	3.9841	-15.4368	0.0830	0.5618	0.0979	-0.8172
9.38	-8.9189	-0.6283	3.4077	-0.0097	-0.0058	-0.0384	25.7416	4.1057	-15.4633	0.0830	0.5619	0.0978	-0.8173
9.39	-8.9172	-0.6335	3.4036	-0.0107	-0.0140	-0.0364	25.6756	3.9548	-15.5753	0.0830	0.5618	0.0978	-0.8173
9.4	-8.9132	-0.6403	3.3991	-0.0145	-0.0145	-0.0411	25.8733	4.0703	-15.5081	0.0830	0.5618	0.0977	-0.8173
9.41	-8.9004	-0.6405	3.4091	-0.0085	-0.0098	-0.0386	25.7756	4.1868	-15.6643	0.0830	0.5617	0.0976	-0.8173
9.42	-8.9058	-0.6318	3.4064	-0.0034	-0.0071	-0.0425	25.6219	4.1669	-15.6065	0.0830	0.5618	0.0976	-0.8173
9.43	-8.9042	-0.6307	3.4145	-0.0092	-0.0160	-0.0413	25.6064	4.0168	-15.7124	0.0830	0.5617	0.0975	-0.8173
9.44	-8.8950	-0.6370	3.4212	-0.0089	-0.0151	-0.0386	25.7931	3.9804	-15.6678	0.0831	0.5617	0.0975	-0.8174
9.45	-8.8945	-0.6359	3.4073	-0.0082	-0.0091	-0.0406	25.5676	4.1116	-15.5177	0.0831	0.5617	0.0974	-0.8174
9.46	-8.8817	-0.6399	3.4066	-0.0068	-0.0140	-0.0467	25.5819	4.0699	-15.5593	0.0830	0.5616	0.0974	-0.8174
9.47	-8.9098	-0.6427	3.4065	0.0034	-0.0059	-0.0423	25.6141	4.3417	-15.5429	0.0830	0.5617	0.0973	-0.8175
9.48	-8.9118	-0.6231	3.4048	-0.0033	-0.0077	-0.0435	25.4919	4.3541	-15.5577	0.0830	0.5616	0.0972	-0.8174
9.49	-8.8997	-0.6137	3.4083	-0.0092	-0.0077	-0.0390	25.3007	4.1551	-15.5443	0.0830	0.5617	0.0971	-0.8175
9.5	-8.9048	-0.5991	3.4068	0.0026	0.0025	-0.0453	25.4668	4.1390	-15.7152	0.0829	0.5617	0.0970	-0.8174
9.51	-8.9062	-0.5727	3.4098	0.0033	-0.0048	-0.0435	25.5957	4.0587	-15.4505	0.0829	0.5617	0.0969	-0.8175
9.52	-8.9014	-0.5553	3.4104	-0.0022	-0.0096	-0.0468	25.4861	4.1871	-15.4657	0.0829	0.5617	0.0969	-0.8174
9.53	-8.8983	-0.5423	3.4116	-0.0129	-0.0067	-0.0447	25.3966	4.1878	-15.5502	0.0829	0.5617	0.0968	-0.8175
9.54	-8.9042	-0.5426	3.4091	-0.0087	-0.0086	-0.0466	25.5980	4.1149	-15.3977	0.0828	0.5617	0.0968	-0.8175
9.55	-8.9112	-0.5564	3.4007	-0.0146	-0.0029	-0.0419	25.5769	4.0864	-15.5663	0.0828	0.5617	0.0968	-0.8174
9.56	-8.9064	-0.5509	3.3885	-0.0092	-0.0011	-0.0443	25.5968	3.9754	-15.5279	0.0828	0.5618	0.0967	-0.8175
9.57	-8.9105	-0.5571	3.3929	-0.0162	-0.0012	-0.0456	25.7207	3.8959	-15.5607	0.0828	0.5617	0.0967	-0.8174
9.58	-8.9284	-0.5675	3.3828	-0.0162	-0.0029	-0.0437	25.5810	3.9118	-15.4793	0.0829	0.5618	0.0967	-0.8175
9.59	-8.9140	-0.5628	3.3896	-0.0192	-0.0054	-0.0517	25.6625	3.9929	-15.3329	0.0828	0.5617	0.0967	-0.8174
9.6	-8.9446	-0.5734	3.3933	-0.0222	-0.0052	-0.0466	26.0635	4.2580	-15.5079	0.0828	0.5618	0.0967	-0.8174
9.61	-8.9416	-0.5812	3.3886	-0.0277	-0.0115	-0.0486	25.9437	4.2424	-15.5675	0.0829	0.5617	0.0968	-0.8175
9.62	-8.9245	-0.5814	3.3884	-0.0352	-0.0152	-0.0479	25.6418	4.1248	-15.5473	0.0829	0.5616	0.0968	-0.8174
9.63	-8.9384	-0.5815	3.3830	-0.0330	-0.0078	-0.0441	25.4793	4.0296	-15.7577	0.0830	0.5617	0.0969	-0.8175
9.64	-8.9417	-0.5852	3.3770	-0.0360	-0.0047	-0.0419	25.2269	4.0536	-15.5913	0.0831	0.5616	0.0970	-0.8175
9.65	-8.9328	-0.5825	3.3733	-0.0232	-0.0037	-0.0414	25.5373	4.1141	-15.3419	0.0831	0.5617	0.0970	-0.8175
9.66	-8.9245	-0.5680	3.3726	-0.0355	-0.0108	-0.0429	25.6940	4.3526	-15.5017	0.0832	0.5616	0.0970	-0.8174
9.67	-8.9432	-0.5646	3.3737	-0.0345	-0.0144	-0.0390	25.4475	4.3340	-15.4483	0.0833	0.5616	0.0971	-0.8175
9.68	-8.9492	-0.5701	3.3740	-0.0312	-0.0072	-0.0375	25.5092	3.9776	-15.3586	0.0833	0.5616	0.0971	-0.8175
9.69	-8.9470	-0.5730	3.3699	-0.0297	-0.0142	-0.0431	25.4852	4.1105	-15.3732	0.0834	0.5615	0.0971	-0.8175
9.7	-8.9435	-0.5768	3.3733	-0.0348	-0.0166	-0.0446	25.4945	4.3824	-15.5855	0.0835	0.5615	0.0972	-0.8175
9.71	-8.9729	-0.5892	3.3667	-0.0388	-0.0124	-0.0396	25.3723	4.2975	-15.7033	0.0835	0.5615	0.0973	-0.8175
9.72	-8.9434	-0.5980	3.3698	-0.0286	-0.0258	-0.0447	25.4288	4.1688	-15.3852	0.0836	0.5614	0.0973	-0.8176
9.73	-8.9179	-0.6023	3.3826	-0.0244	-0.0237	-0.0447	25.3574	4.1568	-15.8029	0.0836	0.5612	0.0973	-0.8175
9.74	-8.9660	-0.5882	3.3834	-0.0266	-0.0232	-0.0533	25.7839	4.0448	-15.7787	0.0837	0.5612	0.0974	-0.8177
9.75	-8.9725	-0.5666	3.4001	-0.0390	-0.0276	-0.0523	25.6650	4.1056	-15.6811	0.0837	0.5611	0.0975	-0.8177
9.76	-8.9532	-0.5566	3.4082	-0.0331	-0.0239	-0.0531	25.5270	3.9612	-15.7006	0.0837	0.5610	0.0975	-0.8178
9.77	-8.9544	-0.5721	3.4192	-0.0354	-0.0230	-0.0577	25.7150	4.1806	-15.6385	0.0838	0.5609	0.0976	-0.8178
9.78	-8.9313	-0.5951	3.4242	-0.0401	-0.0338	-0.0655	25.4998	4.2565	-15.7743	0.0838	0.5608	0.0978	-0.8179
9.79	-8.9195	-0.6246	3.4397	-0.0414	-0.0335	-0.0582	25.5318	4.0590	-15.5827	0.0838	0.5607	0.0979	-0.8180
9.8	-8.9366	-0.6442	3.4282	-0.0429	-0.0303	-0.0585	25.6891	4.0829	-15.7859	0.0838	0.5605	0.0980	-0.8179
9.81	-8.8826	-0.6603	3.4235	-0.0343	-0.0397	-0.0574	25.5567	4.0493	-15.7095	0.0839	0.5604	0.0981	-0.8181
9.82	-8.8689	-0.6908	3.4072	-0.0310	-0.0259	-0.0530	25.6000	4.2608	-15.6611	0.0839	0.5603	0.0982	-0.8181
9.83	-8.8454	-0.6953	3.4040	-0.0226	-0.0262	-0.0588	25.5554	4.1535	-15.6041	0.0839	0.5603	0.0982	-0.8183
9.84	-8.8431	-0.6988	3.4071	-0.0147	-0.0185	-0.0531	25.7026	4.2612	-15.4467	0.0838	0.5601	0.0982	-0.8182
9.85	-8.8634	-0.6712	3.4166	-0.0165	-0.0206	-0.0502	25.5073	4.3296	-15.6227	0.0838	0.5601	0.0982	-0.8183
9.86	-8.8576	-0.6304	3.4189	-0.0132	-0.0204	-0.0499	25.3521	4.0236	-15.6771	0.0838	0.5600	0.0982	-0.8184
9.87	-8.8676	-0.6061	3.4180	-0.0134	-0.0151	-0.0541	25.4983	4.1685	-15.6320	0.0838	0.5600	0.0982	-0.8183
9.88	-8.8759	-0.6003	3.4098	-0.0136	-0.0176	-0.0530	25.4988	4.1471	-15.7019	0.0838	0.5600	0.0982	-0.8185
9.89	-8.8658	-0.6018	3.4087	-0.0102	-0.0105	-0.0617	25.4744	4.4571	-15.4326	0.0837	0.5599	0.0982	-0.8184
9.9	-8.8751	-0.6084	3.4062	-0.0126	-0.0159	-0.0616	25.3184	4.2946	-15.6929	0.0836	0.5599	0.0982	-0.8185
9.91	-8.8893	-0.6123	3.4022	-0.0132	-0.0167	-0.0662	25.2990	4.1279	-15.8518	0.0835	0.5598	0.0983	-0.8185
9.92	-8.9050	-0.6048	3.4100	-0.0121	-0.0095	-0.0646	25.4474	4.1694	-15.8846	0.0835	0.5598	0.0983	-0.8186
9.93	-8.9159	-0.6060	3.4071	-0.0150	-0.0164	-0.0624	25.6872	4.1475	-15.6863	0.0834	0.5597	0.0983	-0.8186
9.94	-8.9181	-0.5981	3.4040	-0.0148	-0.0093	-0.0620	25.5953	4.1774	-15.4972	0.0833	0.5597	0.0984	-0.8186
9.95	-8.9188	-0.5940	3.4114	-0.0141	-0.0171	-0.0616	25.5620	4.0415	-15.7000	0.0833	0.5597	0.0984	-0.8187
9.96	-8.9381	-0.5926	3.4064	-0.0173	-0.0182	-0.0625	25.6155	4.3696	-15.6408	0.0832	0.5596	0.0984	-0.8187
9.97	-8.9280	-0.5971	3.4134	-0.0168	-0.0171	-0.0518	25.7185	4.2057	-15.6697	0.0832	0.5596	0.0984	-0.8188
9.98	-8.9278	-0.5926	3.4153	-0.0325	-0.0179	-0.0475	25.4915	4.1343	-15.6468	0.0832	0.5594	0.0985	-0.8187
9.99	-8.8913	-0.5796	3.3993	-0.0392	-0.0277	-0.0400	25.3629	4.0637	-15.7715	0.0833	0.5594	0.0986	-0.8188
10	-8.8680	-0.5621	3.4381	-0.0412	-0.0128	-0.0353	25.4775	4.0801	-15.9014	0.0834	0.5593	0.0986	-0.8188
10.01	-9.0022	-0.5681	3.4224	-0.0429	-0.0015	-0.0389	25.7191	4.2841	-15.6767	0.0836	0.5594	0.0987	-0.8188
10.02	-8.9032	-0.5566	3.4522	-0.0447	-0.0305	-0.0410	25.5349	4.1190	-15.5603	0.0837	0.5592	0.0988	-0.8188
10.03	-8.8753	-0.5716	3.4517	-0.0591	-0.0173	-0.0372	25.6458	4.0982	-15.6609	0.0838	0.5592	0.0989	-0.8188
10.04	-8.9180	-0.6055	3.4324	-0.0640	-0.0213	-0.0379	25.6092	4.3478	-15.5271	0.0840	0.5591	0.0991	-0.8189
10.05	-8.8678	-0.6121	3.4416	-0.0623	-0.0258	-0.0372	25.2560	4.0091	-15.9927	0.0842	0.5590	0.0992	-0.8188
10.06	-8.8403	-0.6144	3.4329	-0.0660	-0.0207	-0.0381	25.4629	4.2299	-15.7748	0.0844	0.5589	0.0994	-0.8190
10.07	-8.8498	-0.6098	3.4416	-0.0638	-0.0133	-0.0353	25.4723	4.1848	-15.6404	0.0845	0.5589	0.0995	-0.8189
10.08	-8.8751	-0.6067	3.4416	-0.0676	-0.0075	-0.0374	25.3357	4.2155	-15.6163	0.0847	0.5589	0.0997	-0.8190
10.09	-8.8940	-0.6313	3.4375	-0.0663	-0.0095	-0.0370	25.7126	4.2554	-15.4462	0.0849	0.5588	0.0999	-0.8188
10.1	-8.9064	-0.6505	3.4292	-0.0662	-0.0090	-0.0411	25.7599	4.2658	-15.4894	0.0851	0.5588	0.1001	-0.8189
10.11	-8.8969	-0.6547	3.4285	-0.0560	-0.0102	-0.0381	25.6039	4.3587	-15.4674	0.0852	0.5587	0.1002	-0.8188
10.12	-8.9152	-0.6676	3.4265	-0.0472	-0.0137	-0.0409	25.7057	4.1445	-15.5641	0.0853	0.5587	0.1003	-0.8188
10.13	-8.9359	-0.6645	3.4256	-0.0453	-0.0100	-0.0454	25.4799	4.1540	-15.6160	0.0854	0.5587	0.1004	-0.8189
10.14	-8.9637	-0.6687	3.4285	-0.0418	-0.0119	-0.0478	25.5430	4.0354	-15.6923	0.0855	0.5586	0.1005	-0.8188
10.15	-8.9668	-0.6717	3.4265	-0.0435	-0.0248	-0.0514	25.5676	4.1803	-15.7982	0.0856	0.5586	0.1006	-0.8189
10.16	-8.9415	-0.6789	3.4357	-0.0429	-0.0218	-0.0545	25.6674	4.1033	-15.5192	0.0856	0.5584	0.1007	-0.8189
10.17	-8.9441	-0.6930	3.4403	-0.0413	-0.0256	-0.0540	25.5196	4.0643	-15.5963	0.0857	0.5584	0.1009	-0.8190
10.18	-8.9278	-0.7143	3.4361	-0.0424	-0.0314	-0.0532	25.3192	4.1473	-15.8205	0.0857	0.5582	0.1010	-0.8190
10.19	-8.8898	-0.7316	3.4513	-0.0425	-0.0342	-0.0498	25.5140	4.1866	-15.6094	0.0858	0.5581	0.1011	-0.8191
10.2	-8.8888	-0.7459	3.4523	-0.0375	-0.0206	-0.0524	25.3565	4.1772	-15.7891	0.0859	0.5580	0.1012	-0.8192
10.21	-8.8740	-0.7710	3.4541	-0.0240	-0.0228	-0.0526	25.2959	4.1597	-15.8152	0.0859	0.5579	0.1012	-0.8192
10.22	-8.8610	-0.7845	3.4656	-0.0204	-0.0275	-0.0495	25.2878	4.2348	-15.7106	0.0859	0.5579	0.1012	-0.8193
10.23	-8.8615	-0.7866	3.4613	-0.0147	-0.0235	-0.0489	25.3890	4.2892	-15.7787	0.0859	0.5577	0.1012	-0.8192
10.24	-8.8586	-0.7790	3.4743	-0.0045	-0.0201	-0.0517	25.4952	4.1339	-15.5916	0.0858	0.5577	0.1012	-0.8194
10.25	-8.8571	-0.7665	3.4719	-0.0001	-0.0195	-0.0552	25.3266	4.2376	-15.5786	0.0858	0.5577	0.1011	-0.8194
10.26	-8.8441	-0.7443	3.4772	0.0106	-0.0219	-0.0530	25.5110	4.2770	-15.7610	0.0857	0.5576	0.1010	-0.8195
10.27	-8.8411	-0.7231	3.4804	0.0115	-0.0114	-0.0543	25.3602	4.2549	-15.7327	0.0856	0.5576	0.1009	-0.8195
10.28	-8.8495	-0.6965	3.4905	0.0207	-0.0158	-0.0492	25.3083	4.2742	-15.7665	0.0855	0.5576	0.1008	-0.8196
10.29	-8.8472	-0.6623	3.4943	0.0252	-0.0173	-0.0590	25.4586	4.2266	-15.9128	0.0853	0.5575	0.1006	-0.8196
10.3	-8.8351	-0.6438	3.4910	0.0239	-0.0203	-0.0498	25.5733	4.0605	-15.9474	0.0852	0.5574	0.1004	-0.8196
10.31	-8.8440	-0.6281	3.4991	0.0291	-0.0065	-0.0459	25.5550	4.1205	-15.7884	0.0851	0.5575	0.1003	-0.8198
10.32	-8.8470	-0.6159	3.4931	0.0210	-0.0028	-0.0501	25.6123	4.1737	-15.7452	0.0850	0.5575	0.1001	-0.8197
10.33	-8.8377	-0.6033	3.4948	0.0087	-0.0052	-0.0468	25.6780	3.9807	-15.6750	0.0849	0.5576	0.1000	-0.8198
10.34	-8.8387	-0.5999	3.4918	0.0086	-0.0052	-0.0417	25.6465	4.1018	-15.6174	0.0848	0.5575	0.0999	-0.8197
10.35	-8.8478	-0.5912	3.4908	0.0090	-0.0007	-0.0419	25.6613	3.9740	-15.8053	0.0848	0.5576	0.0998	-0.8197
10.36	-8.8626	-0.5871	3.4804	0.0111	0.0033	-0.0391	25.6437	4.0224	-15.8123	0.0847	0.5576	0.0996	-0.8197
10.37	-8.8719	-0.5908	3.4756	0.0084	0.0003	-0.0408	25.3649	3.9665	-15.5516	0.0847	0.5576	0.0995	-0.8197
10.38	-8.8711	-0.5884	3.4752	0.0096	-0.0041	-0.0431	25.4184	4.2342	-15.5468	0.0846	0.5577	0.0994	-0.8198
10.39	-8.8859	-0.5913	3.4695	0.0036	0.0033	-0.0445	25.6203	4.2532	-15.5955	0.0846	0.5577	0.0993	-0.8197
10.4	-8.9011	-0.5872	3.4655	0.0002	0.0081	-0.0456	25.5117	4.3331	-15.6954	0.0845	0.5578	0.0992	-0.8197
10.41	-8.9135	-0.5804	3.4589	-0.0009	0.0046	-0.0468	25.3576	4.3712	-15.5384	0.0845	0.5578	0.0991	-0.8196
10.42	-8.9062	-0.5852	3.4518	-0.0012	0.0064	-0.0477	25.4432	4.1183	-15.5812	0.0844	0.5579	0.0991	-0.8197
10.43	-8.9117	-0.5828	3.4342	-0.0077	0.0106	-0.0526	25.6165	4.2458	-15.5074	0.0844	0.5579	0.0991	-0.8196
10.44	-8.8925	-0.5746	3.4354	-0.0054	0.0126	-0.0517	25.5008	4.2843	-15.4278	0.0843	0.5580	0.0990	-0.8196
10.45	-8.8861	-0.5772	3.4317	-0.0088	0.0083	-0.0523	25.3410	4.2439	-15.6972	0.0843	0.5581	0.0990	-0.8196
10.46	-8.9033	-0.5627	3.4305	-0.0024	0.0039	-0.0488	25.4839	4.1720	-15.6109	0.0842	0.5581	0.0990	-0.8195
10.47	-8.9124	-0.5579	3.4431	-0.0165	0.0020	-0.0459	25.5785	4.1423	-15.5176	0.0842	0.5582	0.0990	-0.8195
10.48	-8.9035	-0.5697	3.4299	-0.0139	0.0022	-0.0476	25.6492	3.9726	-15.6596	0.0842	0.5581	0.0990	-0.8194
10.49	-8.8826	-0.5823	3.4367	-0.0166	0.0039	-0.0474	25.8530	4.1354	-15.7413	0.0842	0.5582	0.0990	-0.8195
10.5	-8.9382	-0.5869	3.4284	-0.0150	0.0142	-0.0491	25.7217	4.0305	-15.7588	0.0842	0.5583	0.0990	-0.8194
10.51	-8.9500	-0.5854	3.4351	-0.0200	0.0006	-0.0486	25.6986	3.9910	-15.6582	0.0842	0.5583	0.0990	-0.8194
10.52	-8.9479	-0.5915	3.4266	-0.0169	0.0002	-0.0482	25.5431	4.0098	-15.5572	0.0842	0.5583	0.0990	-0.8194
10.53	-8.9195	-0.5971	3.4197	-0.0326	-0.0076	-0.0535	25.5701	4.0002	-15.5142	0.0842	0.5583	0.0991	-0.8194
10.54	-8.9092	-0.6214	3.4185	-0.0278	-0.0038	-0.0549	25.5876	3.9991	-15.4770	0.0842	0.5583	0.0991	-0.8194
10.55	-8.9411	-0.6510	3.4251	-0.0167	-0.0020	-0.0491	25.4604	4.0684	-15.6880	0.0842	0.5583	0.0991	-0.8193
10.56	-8.9712	-0.6670	3.4361	-0.0187	-0.0106	-0.0487	25.6107	4.1272	-15.5123	0.0842	0.5584	0.0991	-0.8194
10.57	-8.9334	-0.6694	3.4263	-0.0178	-0.0203	-0.0430	25.7946	4.1670	-15.6007	0.0842	0.5583	0.0991	-0.8194
10.58	-8.8875	-0.6804	3.4280	-0.0174	-0.0193	-0.0488	25.4445	4.0222	-15.4556	0.0842	0.5582	0.0991	-0.8195
10.59	-8.8855	-0.6877	3.4193	-0.0103	-0.0124	-0.0466	25.6608	4.3918	-15.4976	0.0842	0.5581	0.0991	-0.8194
10.6	-8.8592	-0.6837	3.4193	-0.0072	-0.0112	-0.0421	26.0406	4.4621	-15.2830	0.0842	0.5582	0.0990	-0.8195
10.61	-8.8314	-0.6513	3.4146	0.0018	-0.0107	-0.0384	25.9330	4.4321	-15.2132	0.0842	0.5581	0.0989	-0.8195
10.62	-8.8254	-0.6002	3.4226	0.0059	-0.0055	-0.0421	25.6071	4.4847	-15.6446	0.0841	0.5581	0.0988	-0.8195
10.63	-8.8531	-0.5691	3.4198	0.0071	0.0014	-0.0389	25.4333	4.2608	-15.5281	0.0841	0.5582	0.0987	-0.8196
10.64	-8.8768	-0.5479	3.4158	0.0091	0.0055	-0.0503	25.4171	4.3571	-15.4852	0.0840	0.5582	0.0986	-0.8195
10.65	-8.8879	-0.5301	3.4100	0.0079	0.0021	-0.0555	25.3975	3.9902	-15.6487	0.0839	0.5583	0.0985	-0.8195
10.66	-8.8871	-0.5092	3.4101	0.0091	0.0040	-0.0519	25.4743	4.0587	-15.6344	0.0838	0.5583	0.0984	-0.8194
10.67	-8.9046	-0.5010	3.3954	0.0043	-0.0020	-0.0585	25.6399	3.9443	-15.7721	0.0837	0.5584	0.0984	-0.8195
10.68	-8.9134	-0.4929	3.3941	-0.0029	0.0009	-0.0557	25.8092	4.0493	-15.6716	0.0836	0.5584	0.0983	-0.8195
10.69	-8.9262	-0.4981	3.3922	-0.0089	0.0111	-0.0626	25.3754	3.9950	-15.6283	0.0835	0.5584	0.0984	-0.8194
10.7	-8.9433	-0.5067	3.3909	-0.0183	0.0001	-0.0561	25.4240	4.0490	-15.6548	0.0835	0.5585	0.0984	-0.8195
10.71	-8.9560	-0.5191	3.3855	-0.0197	0.0022	-0.0552	25.6258	4.2176	-15.6424	0.0835	0.5585	0.0984	-0.8194
10.72	-8.9662	-0.5571	3.3830	-0.0373	0.0005	-0.0537	25.5586	4.0205	-15.8703	0.0835	0.5585	0.0985	-0.8194
10.73	-8.9728	-0.5859	3.3843	-0.0432	-0.0051	-0.0499	25.6034	3.8644	-15.6274	0.0835	0.5584	0.0986	-0.8193
10.74	-8.9571	-0.6003	3.3824	-0.0412	-0.0086	-0.0466	25.3407	4.0085	-15.5461	0.0836	0.5585	0.0987	-0.8194
10.75	-8.9465	-0.6269	3.3676	-0.0440	-0.0093	-0.0391	25.4735	4.1007	-15.6944	0.0837	0.5584	0.0988	-0.8194
10.76	-8.8936	-0.6234	3.3929	-0.0398	-0.0130	-0.0411	25.4959	3.9670	-15.5610	0.0838	0.5584	0.0989	-0.8194
10.77	-9.0180	-0.6326	3.3997	-0.0441	0.0043	-0.0434	25.4904	4.0732	-15.4403	0.0839	0.5584	0.0990	-0.8193
10.78	-9.0067	-0.6388	3.3891	-0.0413	-0.0264	-0.0493	25.6137	4.1805	-15.6137	0.0840	0.5584	0.0991	-0.8194
10.79	-8.8645	-0.6340	3.4233	-0.0437	-0.0289	-0.0543	25.5482	4.1280	-15.4468	0.0841	0.5582	0.0992	-0.8194
10.8	-8.9406	-0.6854	3.3804	-0.0378	-0.0133	-0.0543	25.6950	4.2348	-15.5731	0.0841	0.5581	0.0993	-0.8194
10.81	-8.9163	-0.7094	3.3931	-0.0310	-0.0225	-0.0616	25.4456	4.3579	-15.4148	0.0841	0.5581	0.0994	-0.8195
10.82	-8.8931	-0.6896	3.3935	-0.0228	-0.0246	-0.0507	25.3953	4.1367	-15.5709	0.0841	0.5580	0.0994	-0.8195
10.83	-8.8892	-0.6627	3.4027	-0.0168	-0.0175	-0.0504	25.3990	4.2572	-15.6626	0.0841	0.5580	0.0994	-0.8196
10.84	-8.9012	-0.6167	3.4133	-0.0158	-0.0203	-0.0518	25.5023	4.5605	-15.7563	0.0841	0.5579	0.0994	-0.8196
10.85	-8.9174	-0.5960	3.4249	-0.0141	-0.0216	-0.0406	25.3687	4.2074	-15.7090	0.0841	0.5578	0.0994	-0.8197
10.86	-8.9210	-0.5938	3.4236	-0.0194	-0.0215	-0.0483	25.4604	3.9621	-15.6392	0.0841	0.5578	0.0994	-0.8197
10.87	-8.8991	-0.5840	3.4241	-0.0167	-0.0218	-0.0466	25.5191	3.9870	-15.5585	0.0841	0.5577	0.0994	-0.8197
10.88	-8.9191	-0.5780	3.4254	-0.0195	-0.0136	-0.0536	25.3631	3.9638	-15.5540	0.0841	0.5577	0.0994	-0.8199
10.89	-8.9318	-0.5632	3.4301	-0.0244	-0.0206	-0.0482	25.5945	3.8616	-15.8108	0.0841	0.5576	0.0994	-0.8198
10.9	-8.9240	-0.5632	3.4408	-0.0256	-0.0247	-0.0476	25.4928	4.1586	-15.6337	0.0842	0.5576	0.0994	-0.8199
10.91	-8.9259	-0.5741	3.4386	-0.0303	-0.0292	-0.0573	25.5864	4.0646	-15.6623	0.0842	0.5574	0.0995	-0.8199
10.92	-8.9210	-0.5793	3.4365	-0.0309	-0.0261	-0.0594	25.5604	4.0645	-15.4989	0.0842	0.5573	0.0996	-0.8200
10.93	-8.8984	-0.5955	3.4446	-0.0357	-0.0322	-0.0616	25.2937	4.2191	-15.8316	0.0842	0.5572	0.0997	-0.8201
10.94	-8.8832	-0.6096	3.4423	-0.0363	-0.0274	-0.0578	25.3663	3.9682	-15.6898	0.0842	0.5571	0.0998	-0.8201
10.95	-8.8786	-0.6145	3.4412	-0.0313	-0.0285	-0.0582	25.6366	3.9762	-15.5045	0.0842	0.5570	0.0999	-0.8202
10.96	-8.8705	-0.6233	3.4412	-0.0348	-0.0276	-0.0475	25.5063	4.3728	-15.7355	0.0843	0.5569	0.0999	-0.8202
10.97	-8.8597	-0.6283	3.4550	-0.0330	-0.0198	-0.0540	25.3508	4.4220	-15.7406	0.0843	0.5568	0.1000	-0.8203
10.98	-8.8883	-0.6268	3.4610	-0.0296	-0.0208	-0.0629	25.5180	4.0102	-15.7449	0.0843	0.5567	0.1001	-0.8202
10.99	-8.8903	-0.6229	3.4578	-0.0318	-0.0192	-0.0554	25.3676	4.2233	-15.7244	0.0843	0.5567	0.1002	-0.8204
11	-8.8612	-0.6215	3.4787	-0.0204	-0.0261	-0.0544	25.2828	4.3350	-15.6073	0.0843	0.5566	0.1002	-0.8204
11.01	-8.8956	-0.6191	3.4768	-0.0385	-0.0215	-0.0537	25.3916	4.1175	-15.4474	0.0843	0.5565	0.1003	-0.8205
11.02	-8.8943	-0.6108	3.4820	-0.0400	-0.0192	-0.0560	25.5055	4.2593	-15.5704	0.0844	0.5564	0.1004	-0.8205
11.03	-8.8808	-0.6117	3.4958	-0.0410	-0.0267	-0.0635	25.2403	4.2319	-15.6746	0.0844	0.5563	0.1005	-0.8205
11.04	-8.8930	-0.6304	3.4898	-0.0412	-0.0272	-0.0534	25.4321	4.2207	-15.8353	0.0844	0.5563	0.1006	-0.8206
11.05	-8.8915	-0.6385	3.4871	-0.0381	-0.0253	-0.0562	25.6112	3.9530	-15.7966	0.0845	0.5561	0.1007	-0.8206
11.06	-8.8923	-0.6476	3.4826	-0.0312	-0.0250	-0.0511	25.5444	3.9920	-15.9877	0.0845	0.5561	0.1008	-0.8207
11.07	-8.8603	-0.6423	3.4892	-0.0342	-0.0241	-0.0495	25.5017	3.7957	-15.7851	0.0846	0.5560	0.1009	-0.8207
11.08	-8.8579	-0.6351	3.4999	-0.0341	-0.0174	-0.0478	25.6700	4.1230	-15.7637	0.0846	0.5560	0.1009	-0.8208
11.09	-8.8648	-0.6406	3.4925	-0.0338	-0.0248	-0.0481	25.7594	4.2411	-15.4991	0.0847	0.5558	0.1010	-0.8207
11.1	-8.8475	-0.6430	3.5004	-0.0352	-0.0195	-0.0460	25.8864	4.2860	-15.6670	0.0847	0.5558	0.1010	-0.8208
11.11	-8.8210	-0.6566	3.5088	-0.0356	-0.0223	-0.0531	25.7975	4.2839	-15.8187	0.0848	0.5557	0.1011	-0.8209
11.12	-8.8283	-0.6847	3.5173	-0.0272	-0.0123	-0.0619	25.6294	4.2425	-15.4507	0.0847	0.5556	0.1012	-0.8208
11.13	-8.8444	-0.6970	3.5170	-0.0239	-0.0044	-0.0553	25.5356	4.3109	-15.7945	0.0847	0.5557	0.1013	-0.8209
11.14	-8.8158	-0.7015	3.5231	-0.0186	-0.0047	-0.0614	25.4745	4.2364	-15.9059	0.0847	0.5556	0.1013	-0.8209
11.15	-8.8292	-0.6987	3.5252	-0.0162	0.0077	-0.0613	25.5062	4.2247	-15.7885	0.0846	0.5557	0.1013	-0.8209
11.16	-8.8484	-0.6886	3.5106	-0.0149	0.0055	-0.0576	25.3738	4.0533	-15.7582	0.0846	0.5557	0.1014	-0.8208
11.17	-8.8536	-0.6854	3.5030	-0.0154	0.0102	-0.0604	25.2901	4.2115	-15.7803	0.0845	0.5558	0.1014	-0.8208
11.18	-8.8617	-0.6662	3.4934	-0.0155	0.0091	-0.0616	25.4764	4.1379	-15.5805	0.0844	0.5558	0.1014	-0.8207
11.19	-8.8731	-0.6561	3.4814	-0.0166	0.0139	-0.0612	25.4327	4.2643	-15.6608	0.0844	0.5559	0.1015	-0.8207
11.2	-8.8815	-0.6571	3.4707	-0.0150	0.0132	-0.0580	25.2401	4.2548	-15.7106	0.0843	0.5560	0.1015	-0.8207
11.21	-8.8742	-0.6624	3.4628	-0.0174	0.0036	-0.0528	25.3982	4.2730	-15.5010	0.0843	0.5560	0.1015	-0.8206
11.22	-8.8755	-0.6715	3.4578	-0.0174	0.0019	-0.0441	25.4919	4.2182	-15.5507	0.0843	0.5561	0.1015	-0.8206
11.23	-8.9019	-0.6700	3.4606	-0.0149	0.0052	-0.0476	25.5493	4.0582	-15.6773	0.0843	0.5560	0.1015	-0.8205
11.24	-8.9138	-0.6637	3.4522	-0.0179	-0.0029	-0.0528	25.7875	4.2186	-15.6987	0.0843	0.5561	0.1015	-0.8206
11.25	-8.8899	-0.6772	3.4512	-0.0170	0.0028	-0.0549	25.5714	4.1116	-15.7903	0.0842	0.5561	0.1015	-0.8205
11.26	-8.9142	-0.6734	3.4471	-0.0141	0.0046	-0.0511	25.5516	4.0767	-15.7643	0.0842	0.5562	0.1016	-0.8205
11.27	-8.9555	-0.6489	3.4401	-0.0089	0.0006	-0.0482	25.6789	4.0828	-15.7614	0.0842	0.5562	0.1015	-0.8205
11.28	-8.9613	-0.6409	3.4418	-0.0137	0.0013	-0.0467	25.6222	4.2228	-15.7968	0.0842	0.5562	0.1015	-0.8205
11.29	-8.9228	-0.6400	3.4357	-0.0165	-0.0023	-0.0573	25.5483	4.0777	-15.9022	0.0841	0.5563	0.1015	-0.8205
11.3	-8.9265	-0.6631	3.4353	-0.0169	0.0005	-0.0587	25.5732	4.1751	-15.7622	0.0841	0.5562	0.1015	-0.8204
11.31	-8.9497	-0.6775	3.4465	-0.0149	-0.0088	-0.0541	25.5703	4.1550	-15.7702	0.0840	0.5563	0.1016	-0.8205
11.32	-8.9653	-0.6716	3.4594	-0.0174	-0.0158	-0.0509	25.5590	4.3871	-15.6305	0.0840	0.5562	0.1016	-0.8205
11.33	-8.9428	-0.6574	3.4569	-0.0170	-0.0134	-0.0564	25.6055	4.3977	-15.7935	0.0840	0.5562	0.1016	-0.8206
11.34	-8.8949	-0.6592	3.4466	-0.0168	-0.0198	-0.0530	25.3656	4.3164	-15.6692	0.0840	0.5561	0.1016	-0.8205
11.35	-8.8586	-0.6725	3.4441	-0.0179	-0.0235	-0.0496	25.2960	4.3709	-15.7014	0.0840	0.5561	0.1016	-0.8206
11.36	-8.8380	-0.6622	3.4469	-0.0170	-0.0184	-0.0437	25.4746	4.3264	-15.6488	0.0840	0.5560	0.1016	-0.8207
11.37	-8.8345	-0.6437	3.4407	-0.0177	-0.0232	-0.0425	25.4876	4.3802	-15.8031	0.0840	0.5559	0.1015	-0.8207
11.38	-8.8306	-0.6148	3.4505	-0.0127	-0.0142	-0.0501	25.4676	4.2122	-15.6298	0.0840	0.5559	0.1015	-0.8208
11.39	-8.8488	-0.5954	3.4396	-0.0140	-0.0006	-0.0502	25.3663	4.1991	-15.6274	0.0840	0.5559	0.1015	-0.8207
11.4	-8.8599	-0.5860	3.4442	-0.0144	-0.0039	-0.0518	25.4054	4.2875	-15.6802	0.0840	0.5560	0.1015	-0.8208
11.41	-8.8847	-0.5982	3.4367	-0.0163	-0.0017	-0.0461	25.3725	4.2477	-15.7920	0.0840	0.5559	0.1015	-0.8206
11.42	-8.8780	-0.6039	3.4269	-0.0179	0.0017	-0.0595	25.5204	4.1555	-15.7227	0.0839	0.5560	0.1016	-0.8207
11.43	-8.8659	-0.6087	3.4330	-0.0167	0.0012	-0.0606	25.6065	4.1964	-15.7288	0.0839	0.5560	0.1016	-0.8207
11.44	-8.8979	-0.6046	3.4251	-0.0173	0.0006	-0.0617	25.7603	4.0855	-15.7206	0.0838	0.5560	0.1016	-0.8206
