time	acceleration_x	acceleration_y	acceleration_z	gyroscope_x	gyroscope_y	gyroscope_z	magnetometer_x	magnetometer_y	magnetometer_z	quaternion_w	quaternion_x	quaternion_y	quaternion_z
0	-9.4652	-0.3456	-1.7138	-0.0102	0.0017	0.0046	-4.8553	-18.3578	4.3410	0.5121	-0.4824	0.5984	0.3835
0.01	-9.4665	-0.3519	-1.7047	-0.0045	0.0022	-0.0050	-5.0913	-18.2637	4.5776	0.5121	-0.4823	0.5983	0.3835
0.02	-9.4601	-0.3480	-1.7005	-0.0129	-0.0001	-0.0032	-5.0791	-18.3373	4.6588	0.5122	-0.4824	0.5984	0.3835
0.03	-9.4710	-0.3613	-1.7091	-0.0130	0.0091	-0.0028	-5.0949	-18.0941	4.6768	0.5121	-0.4824	0.5983	0.3834
0.04	-9.4662	-0.3617	-1.7137	-0.0079	0.0059	-0.0064	-5.0699	-18.0478	4.4246	0.5121	-0.4824	0.5984	0.3834
0.05	-9.4589	-0.3651	-1.7032	-0.0138	0.0051	-0.0008	-4.9217	-18.0244	4.5536	0.5121	-0.4824	0.5984	0.3834
0.06	-9.4650	-0.3608	-1.7176	-0.0134	0.0037	-0.0036	-4.9759	-18.1365	4.3543	0.5120	-0.4824	0.5983	0.3834
0.07	-9.4635	-0.3533	-1.7170	-0.0077	0.0069	-0.0063	-5.1301	-18.1123	4.6746	0.5121	-0.4825	0.5984	0.3834
0.08	-9.4621	-0.3659	-1.7159	-0.0090	0.0087	0.0015	-5.0240	-18.1832	4.5716	0.5120	-0.4825	0.5984	0.3833
0.09	-9.4681	-0.3586	-1.7191	-0.0052	0.0091	-0.0051	-5.0039	-18.1957	4.2579	0.5121	-0.4825	0.5985	0.3833
0.1	-9.4661	-0.3650	-1.7192	-0.0156	0.0040	0.0010	-4.9122	-18.3893	4.4639	0.5120	-0.4825	0.5984	0.3833
0.11	-9.4629	-0.3548	-1.7267	-0.0072	0.0136	0.0061	-4.7146	-18.4519	4.2617	0.5120	-0.4825	0.5985	0.3833
0.12	-9.4668	-0.3424	-1.7347	-0.0061	0.0068	-0.0020	-4.9481	-18.3345	4.4580	0.5120	-0.4825	0.5985	0.3833
0.13	-9.4640	-0.3450	-1.7395	-0.0070	0.0093	-0.0015	-4.8358	-18.4018	4.5347	0.5119	-0.4825	0.5985	0.3832
0.14	-9.4749	-0.3484	-1.7575	-0.0089	0.0042	0.0007	-4.8418	-18.3430	4.3912	0.5120	-0.4826	0.5986	0.3832
0.15	-9.4631	-0.3406	-1.7578	-0.0149	0.0053	0.0047	-4.9530	-18.2898	4.4293	0.5119	-0.4825	0.5985	0.3832
0.16	-9.4727	-0.3447	-1.7674	-0.0118	0.0136	-0.0024	-4.8793	-18.2747	4.3944	0.5119	-0.4826	0.5986	0.3832
0.17	-9.4795	-0.3380	-1.7898	-0.0226	0.0048	-0.0007	-5.0423	-18.3806	4.5081	0.5118	-0.4826	0.5985	0.3832
0.18	-9.4586	-0.3395	-1.7792	-0.0062	0.0050	-0.0016	-4.8359	-18.5733	4.5125	0.5118	-0.4826	0.5986	0.3832
0.19	-9.4645	-0.3402	-1.7713	-0.0056	0.0073	-0.0017	-4.7845	-18.5102	4.5077	0.5118	-0.4826	0.5986	0.3831
0.2	-9.4761	-0.3410	-1.7832	-0.0120	0.0063	-0.0001	-5.1290	-18.3038	4.5042	0.5118	-0.4826	0.5986	0.3831
0.21	-9.4634	-0.3468	-1.7702	-0.0174	0.0080	-0.0032	-4.9650	-18.2068	4.4857	0.5118	-0.4827	0.5987	0.3831
0.22	-9.4587	-0.3589	-1.7657	-0.0179	0.0033	-0.0018	-4.9240	-18.1843	4.5279	0.5117	-0.4827	0.5986	0.3831
0.23	-9.4687	-0.3656	-1.7815	-0.0088	-0.0026	0.0006	-5.0961	-18.1009	4.6184	0.5117	-0.4827	0.5987	0.3832
0.24	-9.4561	-0.3655	-1.7759	-0.0147	-0.0029	-0.0017	-5.0611	-18.2059	4.4848	0.5117	-0.4826	0.5986	0.3831
0.25	-9.4626	-0.3711	-1.7618	-0.0067	0.0036	0.0007	-5.2119	-18.3411	4.3962	0.5117	-0.4827	0.5987	0.3832
0.26	-9.4654	-0.3726	-1.7562	-0.0098	0.0068	-0.0054	-4.9088	-18.3610	4.7506	0.5117	-0.4827	0.5986	0.3831
0.27	-9.4593	-0.3729	-1.7452	-0.0108	0.0008	-0.0077	-4.6256	-18.1929	4.7201	0.5117	-0.4827	0.5986	0.3831
0.28	-9.4742	-0.3728	-1.7406	-0.0042	-0.0077	0.0015	-4.8119	-18.2057	4.5580	0.5117	-0.4827	0.5986	0.3831
0.29	-9.4744	-0.3697	-1.7487	-0.0077	-0.0024	-0.0046	-4.6606	-18.2388	4.5105	0.5118	-0.4827	0.5986	0.3831
0.3	-9.4585	-0.3629	-1.7262	-0.0059	-0.0015	0.0027	-4.8224	-18.1187	4.5767	0.5118	-0.4827	0.5986	0.3831
0.31	-9.4627	-0.3646	-1.7369	-0.0061	-0.0051	-0.0032	-4.9347	-18.2482	4.5308	0.5118	-0.4826	0.5986	0.3831
0.32	-9.4614	-0.3607	-1.7185	-0.0058	0.0038	0.0011	-4.9021	-18.4244	4.3875	0.5118	-0.4827	0.5987	0.3831
0.33	-9.4599	-0.3533	-1.7192	-0.0054	0.0023	-0.0004	-5.0214	-18.2449	4.6508	0.5118	-0.4826	0.5986	0.3831
0.34	-9.4864	-0.3563	-1.7305	-0.0041	0.0075	0.0035	-4.9578	-18.4243	4.6482	0.5118	-0.4826	0.5987	0.3831
0.35	-9.4576	-0.3329	-1.7156	-0.0002	0.0044	0.0012	-5.0890	-18.2848	4.5707	0.5118	-0.4825	0.5987	0.3830
0.36	-9.4549	-0.3335	-1.7242	-0.0062	0.0032	0.0047	-5.0450	-18.2447	4.6282	0.5118	-0.4826	0.5988	0.3830
0.37	-9.4782	-0.3215	-1.7335	-0.0087	-0.0033	0.0007	-4.9480	-18.5081	4.5529	0.5118	-0.4825	0.5988	0.3830
0.38	-9.4758	-0.3189	-1.7141	-0.0093	0.0086	0.0026	-5.0732	-18.3930	4.4847	0.5118	-0.4825	0.5988	0.3830
0.39	-9.4621	-0.3195	-1.7261	-0.0031	0.0125	-0.0044	-5.0582	-18.3899	4.6485	0.5118	-0.4826	0.5989	0.3829
0.4	-9.4747	-0.3280	-1.7351	-0.0147	0.0034	-0.0057	-5.0863	-18.4120	4.5399	0.5118	-0.4825	0.5988	0.3829
0.41	-9.4741	-0.3312	-1.7374	-0.0116	0.0042	0.0013	-4.9980	-18.3341	4.5453	0.5118	-0.4826	0.5989	0.3829
0.42	-9.4694	-0.3403	-1.7451	-0.0077	0.0031	-0.0020	-4.9948	-18.2930	4.8051	0.5117	-0.4825	0.5988	0.3828
0.43	-9.4672	-0.3487	-1.7430	-0.0092	-0.0017	-0.0107	-4.8706	-18.3256	4.5529	0.5118	-0.4826	0.5989	0.3829
0.44	-9.4637	-0.3559	-1.7365	-0.0123	-0.0001	-0.0041	-4.9701	-18.2887	4.6401	0.5118	-0.4826	0.5988	0.3828
0.45	-9.4645	-0.3654	-1.7516	-0.0092	0.0098	0.0020	-4.9809	-18.3474	4.5154	0.5118	-0.4826	0.5988	0.3828
0.46	-9.4540	-0.3618	-1.7401	-0.0042	0.0098	-0.0015	-5.0103	-18.1731	4.5083	0.5118	-0.4826	0.5989	0.3828
0.47	-9.4666	-0.3646	-1.7505	-0.0039	0.0042	-0.0060	-4.8006	-18.1983	4.5199	0.5118	-0.4826	0.5989	0.3827
0.48	-9.4657	-0.3662	-1.7482	-0.0015	-0.0011	-0.0009	-4.7703	-18.3492	4.5144	0.5118	-0.4826	0.5989	0.3827
0.49	-9.4607	-0.3470	-1.7340	-0.0048	0.0042	0.0012	-4.9135	-18.2805	4.5322	0.5118	-0.4825	0.5989	0.3827
0.5	-9.4622	-0.3474	-1.7539	-0.0111	0.0014	0.0032	-4.9225	-18.4258	4.3897	0.5118	-0.4826	0.5990	0.3827
0.51	-9.4687	-0.3527	-1.7530	-0.0146	-0.0017	-0.0050	-4.9695	-18.3600	4.4978	0.5118	-0.4826	0.5989	0.3827
0.52	-9.4634	-0.3563	-1.7496	-0.0058	0.0030	-0.0019	-4.8624	-18.2068	4.5035	0.5118	-0.4826	0.5990	0.3827
0.53	-9.4611	-0.3623	-1.7447	-0.0080	-0.0016	-0.0008	-5.0153	-18.3324	4.6284	0.5118	-0.4825	0.5989	0.3827
0.54	-9.4666	-0.3648	-1.7480	-0.0070	0.0046	-0.0002	-4.9727	-18.3936	4.5590	0.5118	-0.4825	0.5990	0.3827
0.55	-9.4585	-0.3673	-1.7419	-0.0121	0.0040	0.0032	-5.1717	-18.4454	4.5383	0.5118	-0.4826	0.5990	0.3827
0.56	-9.4718	-0.3761	-1.7529	-0.0111	-0.0027	-0.0070	-5.0551	-18.4965	4.7209	0.5118	-0.4825	0.5989	0.3826
0.57	-9.4587	-0.3734	-1.7581	-0.0091	0.0035	-0.0020	-5.0882	-18.4665	4.5831	0.5118	-0.4826	0.5990	0.3827
0.58	-9.4679	-0.3583	-1.7621	-0.0099	0.0013	-0.0004	-5.1473	-18.3526	4.5982	0.5118	-0.4825	0.5990	0.3826
0.59	-9.4641	-0.3555	-1.7692	-0.0106	-0.0026	0.0016	-4.9655	-18.4974	4.3940	0.5119	-0.4826	0.5990	0.3827
0.6	-9.4555	-0.3621	-1.7653	-0.0158	-0.0020	0.0008	-4.9877	-18.2998	4.6275	0.5118	-0.4825	0.5990	0.3826
0.61	-9.4727	-0.3638	-1.7715	-0.0117	-0.0053	-0.0006	-5.2097	-18.2100	4.5756	0.5118	-0.4825	0.5990	0.3827
0.62	-9.4677	-0.3649	-1.7699	-0.0160	0.0020	-0.0036	-5.2118	-18.0859	4.6417	0.5118	-0.4825	0.5990	0.3827
0.63	-9.4616	-0.3615	-1.7501	-0.0169	0.0018	-0.0023	-5.0465	-18.3857	4.7238	0.5118	-0.4825	0.5989	0.3827
0.64	-9.4645	-0.3759	-1.7519	-0.0122	-0.0059	0.0000	-5.0044	-18.4944	4.5672	0.5119	-0.4826	0.5990	0.3827
0.65	-9.4706	-0.3750	-1.7386	-0.0155	-0.0024	0.0040	-5.0641	-18.2201	4.5169	0.5118	-0.4825	0.5989	0.3827
0.66	-9.4657	-0.3664	-1.7226	-0.0155	-0.0071	-0.0023	-5.1046	-18.4693	4.6808	0.5119	-0.4826	0.5989	0.3828
0.67	-9.4619	-0.3628	-1.7275	-0.0147	-0.0051	0.0053	-4.8759	-18.4941	4.3770	0.5118	-0.4825	0.5989	0.3828
0.68	-9.4654	-0.3656	-1.7435	-0.0097	-0.0096	0.0024	-4.7407	-18.1289	4.5022	0.5119	-0.4825	0.5989	0.3828
0.69	-9.4689	-0.3639	-1.7343	-0.0165	-0.0080	0.0015	-4.8440	-18.3532	4.6128	0.5119	-0.4825	0.5989	0.3829
0.7	-9.4611	-0.3673	-1.7327	-0.0151	-0.0072	0.0036	-4.8789	-18.3964	4.6968	0.5119	-0.4824	0.5988	0.3829
0.71	-9.4607	-0.3675	-1.7384	-0.0149	-0.0074	-0.0010	-5.0058	-18.4859	4.5831	0.5119	-0.4824	0.5989	0.3829
0.72	-9.4715	-0.3629	-1.7494	-0.0177	-0.0038	-0.0031	-4.9797	-18.4557	4.4102	0.5119	-0.4824	0.5988	0.3829
0.73	-9.4690	-0.3621	-1.7441	-0.0128	0.0024	0.0054	-4.9737	-18.3472	4.7973	0.5119	-0.4824	0.5989	0.3830
0.74	-9.4548	-0.3644	-1.7375	-0.0146	-0.0039	0.0016	-5.0754	-18.5012	4.3755	0.5118	-0.4823	0.5988	0.3830
0.75	-9.4714	-0.3609	-1.7241	-0.0207	-0.0076	0.0059	-5.0363	-18.5477	4.5933	0.5119	-0.4824	0.5988	0.3831
0.76	-9.4662	-0.3496	-1.7142	-0.0158	0.0007	-0.0030	-4.8533	-18.4444	4.8786	0.5119	-0.4824	0.5988	0.3830
0.77	-9.4584	-0.3409	-1.7149	-0.0148	0.0032	-0.0024	-4.7305	-18.2480	4.9238	0.5119	-0.4824	0.5988	0.3831
0.78	-9.4622	-0.3467	-1.7128	-0.0151	-0.0002	0.0054	-4.4635	-18.0410	4.9152	0.5118	-0.4824	0.5988	0.3831
0.79	-9.4671	-0.3438	-1.7141	-0.0207	-0.0019	-0.0028	-4.6664	-18.1360	4.6694	0.5118	-0.4824	0.5988	0.3831
0.8	-9.4586	-0.3418	-1.7108	-0.0252	-0.0034	-0.0023	-4.9409	-18.1923	4.5326	0.5118	-0.4825	0.5987	0.3832
0.81	-9.4624	-0.3523	-1.7094	-0.0212	0.0036	-0.0001	-4.9367	-18.3436	4.6811	0.5117	-0.4824	0.5987	0.3832
0.82	-9.4633	-0.3420	-1.7087	-0.0206	-0.0054	0.0001	-4.9939	-18.2867	4.6151	0.5118	-0.4825	0.5987	0.3833
0.83	-9.4616	-0.3456	-1.7125	-0.0128	-0.0042	0.0020	-5.1486	-18.1313	4.6513	0.5118	-0.4825	0.5987	0.3833
0.84	-9.4636	-0.3387	-1.7187	-0.0098	0.0049	-0.0004	-5.1143	-18.2187	4.5637	0.5118	-0.4825	0.5987	0.3833
0.85	-9.4569	-0.3364	-1.7140	-0.0129	-0.0001	0.0013	-4.8954	-18.5025	4.6865	0.5117	-0.4824	0.5987	0.3832
0.86	-9.4646	-0.3387	-1.7194	-0.0075	0.0036	0.0020	-4.9051	-18.5190	4.6218	0.5118	-0.4825	0.5987	0.3833
0.87	-9.4685	-0.3334	-1.7397	-0.0082	0.0060	-0.0044	-4.7854	-18.3965	4.6777	0.5118	-0.4825	0.5987	0.3832
0.88	-9.4538	-0.3333	-1.7281	-0.0086	0.0085	-0.0034	-4.9358	-18.2896	4.4870	0.5117	-0.4824	0.5987	0.3832
0.89	-9.4728	-0.3309	-1.7325	-0.0138	0.0004	-0.0063	-4.7986	-18.1916	4.6022	0.5118	-0.4825	0.5988	0.3832
0.9	-9.4674	-0.3310	-1.7255	-0.0080	-0.0037	-0.0028	-4.7528	-18.3392	4.4932	0.5118	-0.4825	0.5987	0.3832
0.91	-9.4613	-0.3354	-1.7419	-0.0062	0.0057	-0.0022	-4.9180	-18.3971	4.5048	0.5118	-0.4825	0.5988	0.3832
0.92	-9.4691	-0.3453	-1.7548	-0.0069	0.0036	-0.0019	-4.9069	-18.2687	4.5978	0.5117	-0.4825	0.5987	0.3831
0.93	-9.4578	-0.3461	-1.7470	-0.0116	0.0034	0.0049	-4.9242	-18.3102	4.8050	0.5118	-0.4825	0.5988	0.3832
0.94	-9.4634	-0.3539	-1.7462	-0.0066	0.0025	-0.0058	-5.0575	-18.2376	4.4289	0.5118	-0.4825	0.5988	0.3831
0.95	-9.4643	-0.3646	-1.7611	-0.0078	0.0086	-0.0082	-5.0795	-18.1981	4.6989	0.5117	-0.4825	0.5987	0.3831
0.96	-9.4607	-0.3578	-1.7539	-0.0209	0.0007	-0.0084	-5.0713	-18.2099	4.5617	0.5118	-0.4826	0.5987	0.3831
0.97	-9.4645	-0.3599	-1.7612	-0.0112	0.0074	-0.0038	-5.1925	-18.2234	4.6391	0.5117	-0.4826	0.5987	0.3831
0.98	-9.4664	-0.3584	-1.7689	-0.0099	0.0154	-0.0030	-5.0884	-18.3787	4.6518	0.5117	-0.4827	0.5988	0.3830
0.99	-9.4598	-0.3581	-1.7588	-0.0189	0.0068	-0.0071	-5.0593	-18.3197	4.5487	0.5116	-0.4826	0.5987	0.3830
1	-9.4681	-0.3608	-1.7625	-0.0115	0.0011	-0.0057	-5.0898	-18.0403	4.6384	0.5117	-0.4827	0.5988	0.3830
1.01	-9.4679	-0.3573	-1.7675	-0.0116	-0.0013	0.0009	-5.0511	-18.2766	4.6549	0.5117	-0.4827	0.5987	0.3830
1.02	-9.4589	-0.3681	-1.7576	-0.0162	-0.0003	-0.0064	-5.1437	-18.4299	4.5114	0.5117	-0.4827	0.5987	0.3830
1.03	-9.4691	-0.3712	-1.7475	-0.0052	-0.0059	-0.0062	-5.1635	-18.2547	4.4838	0.5117	-0.4827	0.5987	0.3830
1.04	-9.4648	-0.3715	-1.7367	-0.0094	-0.0051	0.0015	-4.7908	-18.4271	4.5605	0.5117	-0.4827	0.5987	0.3830
1.05	-9.4578	-0.3686	-1.7448	-0.0069	0.0044	-0.0002	-4.7556	-18.2830	4.5807	0.5117	-0.4827	0.5987	0.3830
1.06	-9.4614	-0.3626	-1.7472	-0.0118	-0.0021	-0.0032	-5.0106	-18.2938	4.3856	0.5117	-0.4827	0.5986	0.3830
1.07	-9.4629	-0.3648	-1.7358	-0.0147	0.0042	-0.0060	-5.0589	-18.3694	4.5454	0.5118	-0.4828	0.5987	0.3830
1.08	-9.4617	-0.3641	-1.7339	-0.0138	-0.0071	-0.0062	-4.9776	-18.2681	4.4739	0.5118	-0.4827	0.5986	0.3830
1.09	-9.4627	-0.3685	-1.7378	-0.0192	-0.0076	-0.0027	-4.9616	-18.2955	4.5893	0.5118	-0.4828	0.5986	0.3831
1.1	-9.4586	-0.3798	-1.7290	-0.0115	-0.0011	-0.0067	-4.7196	-18.2831	4.6037	0.5118	-0.4827	0.5985	0.3831
1.11	-9.4656	-0.3824	-1.7260	-0.0170	-0.0016	0.0005	-4.8781	-18.3841	4.6024	0.5118	-0.4828	0.5985	0.3831
1.12	-9.4601	-0.3910	-1.7208	-0.0137	0.0027	0.0027	-5.1179	-18.2069	4.5681	0.5118	-0.4828	0.5985	0.3831
1.13	-9.4652	-0.3870	-1.7256	-0.0104	0.0049	-0.0042	-5.1829	-18.2132	4.3598	0.5117	-0.4828	0.5985	0.3831
1.14	-9.4657	-0.3849	-1.7353	-0.0192	-0.0011	-0.0017	-4.9475	-18.2043	4.7619	0.5118	-0.4829	0.5986	0.3832
1.15	-9.4536	-0.3675	-1.7249	-0.0213	0.0002	-0.0033	-5.0567	-18.2133	4.7228	0.5117	-0.4828	0.5985	0.3832
1.16	-9.4571	-0.3619	-1.7291	-0.0122	0.0027	-0.0031	-5.2688	-18.2078	4.6708	0.5117	-0.4829	0.5985	0.3832
1.17	-9.4745	-0.3584	-1.7335	-0.0166	0.0020	-0.0029	-5.1416	-18.2251	4.5917	0.5117	-0.4829	0.5984	0.3831
1.18	-9.4662	-0.3509	-1.7334	-0.0112	-0.0023	-0.0017	-4.9628	-18.0744	4.5914	0.5117	-0.4829	0.5985	0.3832
1.19	-9.4591	-0.3398	-1.7232	-0.0106	0.0013	-0.0043	-5.1675	-18.2262	4.5735	0.5117	-0.4829	0.5984	0.3832
1.2	-9.4628	-0.3401	-1.7200	-0.0167	-0.0022	-0.0019	-5.0926	-18.3480	4.6737	0.5117	-0.4829	0.5984	0.3832
1.21	-9.4802	-0.3513	-1.7261	-0.0175	-0.0005	0.0052	-4.9771	-18.0641	4.6816	0.5117	-0.4829	0.5984	0.3832
1.22	-9.4751	-0.3546	-1.7352	-0.0104	-0.0040	-0.0004	-4.8879	-18.3133	4.5590	0.5117	-0.4829	0.5984	0.3832
1.23	-9.4561	-0.3533	-1.7360	-0.0108	-0.0054	-0.0060	-4.9411	-18.3866	4.6387	0.5118	-0.4829	0.5984	0.3832
1.24	-9.4729	-0.3552	-1.7459	-0.0115	0.0018	-0.0007	-4.8115	-18.3653	4.4883	0.5117	-0.4829	0.5983	0.3832
1.25	-9.4662	-0.3525	-1.7452	-0.0126	-0.0020	0.0040	-4.8541	-18.3579	4.5436	0.5117	-0.4829	0.5984	0.3833
1.26	-9.4596	-0.3490	-1.7427	-0.0056	-0.0029	0.0004	-4.7666	-18.2538	4.6047	0.5117	-0.4829	0.5984	0.3833
1.27	-9.4755	-0.3551	-1.7436	-0.0126	-0.0035	0.0003	-4.5622	-18.3095	4.6540	0.5118	-0.4829	0.5984	0.3833
1.28	-9.4740	-0.3536	-1.7538	-0.0052	-0.0034	0.0081	-4.6209	-18.1694	4.8136	0.5118	-0.4828	0.5984	0.3833
1.29	-9.4593	-0.3511	-1.7419	-0.0100	-0.0005	-0.0018	-4.6320	-18.3001	4.5208	0.5118	-0.4828	0.5984	0.3833
1.3	-9.4637	-0.3486	-1.7520	-0.0078	0.0023	-0.0034	-4.9584	-18.3425	4.6782	0.5118	-0.4828	0.5984	0.3833
1.31	-9.4640	-0.3379	-1.7552	-0.0067	0.0014	0.0017	-4.8282	-18.3347	4.6008	0.5117	-0.4828	0.5984	0.3833
1.32	-9.4641	-0.3377	-1.7405	-0.0153	-0.0030	-0.0029	-4.8687	-18.2970	4.5133	0.5118	-0.4828	0.5984	0.3833
1.33	-9.4764	-0.3479	-1.7528	-0.0156	0.0047	-0.0038	-5.1313	-18.1819	4.4681	0.5118	-0.4828	0.5984	0.3833
1.34	-9.4676	-0.3433	-1.7521	-0.0163	0.0005	0.0013	-5.0431	-18.3078	4.6576	0.5118	-0.4829	0.5984	0.3834
1.35	-9.4537	-0.3434	-1.7408	-0.0093	0.0050	-0.0022	-5.0933	-18.3042	4.7005	0.5117	-0.4828	0.5983	0.3833
1.36	-9.4688	-0.3436	-1.7476	-0.0163	-0.0025	-0.0043	-4.9471	-18.3120	4.4565	0.5118	-0.4828	0.5984	0.3833
1.37	-9.4734	-0.3437	-1.7483	-0.0133	-0.0037	-0.0043	-4.8720	-18.4552	4.7349	0.5118	-0.4828	0.5983	0.3833
1.38	-9.4632	-0.3354	-1.7466	-0.0069	0.0026	-0.0110	-5.0678	-18.4936	4.5851	0.5118	-0.4828	0.5983	0.3833
1.39	-9.4705	-0.3387	-1.7658	-0.0087	-0.0022	-0.0060	-5.0735	-18.2682	4.6171	0.5119	-0.4829	0.5983	0.3833
1.4	-9.4642	-0.3450	-1.7418	-0.0064	-0.0052	0.0009	-4.9546	-18.3451	4.5554	0.5119	-0.4828	0.5983	0.3833
1.41	-9.4575	-0.3475	-1.7304	-0.0064	-0.0107	-0.0042	-5.0208	-18.4209	4.4987	0.5119	-0.4828	0.5983	0.3833
1.42	-9.4665	-0.3435	-1.7383	-0.0085	0.0015	-0.0075	-4.8906	-18.2728	4.5213	0.5119	-0.4828	0.5982	0.3832
1.43	-9.4577	-0.3488	-1.7137	-0.0057	-0.0029	0.0005	-4.8211	-18.5413	4.4090	0.5120	-0.4828	0.5983	0.3832
1.44	-9.4603	-0.3612	-1.7256	-0.0103	0.0020	0.0000	-4.9715	-18.5046	4.6190	0.5120	-0.4828	0.5983	0.3832
1.45	-9.4748	-0.3604	-1.7394	-0.0118	-0.0032	0.0033	-5.0497	-18.1856	4.5253	0.5120	-0.4827	0.5983	0.3832
1.46	-9.4616	-0.3676	-1.7442	-0.0175	-0.0057	-0.0014	-5.1728	-18.2604	4.3981	0.5120	-0.4828	0.5983	0.3833
1.47	-9.4658	-0.3687	-1.7569	-0.0185	-0.0061	-0.0069	-5.1118	-18.4118	4.3121	0.5120	-0.4828	0.5982	0.3833
1.48	-9.4689	-0.3655	-1.7528	-0.0210	-0.0043	-0.0000	-5.0163	-18.4000	4.5927	0.5120	-0.4828	0.5982	0.3834
1.49	-9.4615	-0.3645	-1.7478	-0.0137	0.0014	0.0027	-4.8961	-18.2842	4.5930	0.5119	-0.4827	0.5981	0.3833
1.5	-9.4619	-0.3747	-1.7507	-0.0115	0.0030	0.0026	-4.9288	-18.4348	4.6292	0.5120	-0.4828	0.5982	0.3834
1.51	-9.4613	-0.3698	-1.7526	-0.0083	0.0021	-0.0008	-5.0050	-18.2980	4.5265	0.5120	-0.4828	0.5982	0.3834
1.52	-9.4664	-0.3650	-1.7450	-0.0184	-0.0049	0.0003	-4.7595	-18.4034	4.5847	0.5120	-0.4828	0.5982	0.3834
1.53	-9.4660	-0.3612	-1.7382	-0.0169	0.0007	-0.0039	-5.1409	-18.1804	4.5953	0.5120	-0.4828	0.5982	0.3834
1.54	-9.4614	-0.3661	-1.7398	-0.0109	0.0038	-0.0038	-5.1040	-18.1970	4.6111	0.5120	-0.4828	0.5982	0.3834
1.55	-9.4616	-0.3637	-1.7473	-0.0133	-0.0013	-0.0019	-5.2973	-18.5027	4.5225	0.5120	-0.4828	0.5982	0.3834
1.56	-9.4679	-0.3610	-1.7434	-0.0123	-0.0044	-0.0035	-5.1733	-18.1791	4.5773	0.5120	-0.4828	0.5981	0.3834
1.57	-9.4686	-0.3616	-1.7304	-0.0116	-0.0056	-0.0038	-5.0559	-18.3482	4.6000	0.5121	-0.4828	0.5981	0.3835
1.58	-9.4635	-0.3578	-1.7358	-0.0156	-0.0042	0.0023	-5.0419	-18.4054	4.6256	0.5120	-0.4828	0.5981	0.3835
1.59	-9.4636	-0.3640	-1.7242	-0.0082	-0.0101	0.0022	-4.9846	-18.3632	4.7412	0.5121	-0.4828	0.5981	0.3835
1.6	-9.4683	-0.3616	-1.7313	-0.0117	-0.0054	-0.0021	-4.9094	-18.4943	4.4908	0.5121	-0.4827	0.5980	0.3835
1.61	-9.4739	-0.3669	-1.7310	-0.0170	-0.0056	-0.0018	-4.8063	-18.4211	4.4135	0.5121	-0.4827	0.5980	0.3835
1.62	-9.4721	-0.3615	-1.7275	-0.0085	-0.0051	0.0021	-5.1560	-18.2405	4.2495	0.5121	-0.4827	0.5980	0.3835
1.63	-9.4632	-0.3597	-1.7295	-0.0112	-0.0005	-0.0057	-5.0726	-18.4260	4.3016	0.5121	-0.4827	0.5980	0.3835
1.64	-9.4626	-0.3532	-1.7467	-0.0110	-0.0019	0.0017	-4.9679	-18.2581	4.4756	0.5122	-0.4827	0.5980	0.3836
1.65	-9.4640	-0.3475	-1.7397	-0.0119	-0.0038	-0.0007	-5.1292	-18.2471	4.4854	0.5121	-0.4827	0.5980	0.3836
1.66	-9.4654	-0.3473	-1.7381	-0.0111	0.0056	0.0081	-4.9437	-18.3424	4.6005	0.5122	-0.4827	0.5980	0.3836
1.67	-9.4658	-0.3438	-1.7405	-0.0123	-0.0039	0.0012	-4.8104	-18.1987	4.5130	0.5121	-0.4826	0.5980	0.3836
1.68	-9.4683	-0.3481	-1.7440	-0.0128	-0.0054	-0.0034	-4.9342	-18.2310	4.4062	0.5122	-0.4827	0.5980	0.3836
1.69	-9.4715	-0.3565	-1.7382	-0.0153	0.0021	-0.0016	-4.8813	-18.3630	4.4182	0.5121	-0.4827	0.5980	0.3836
1.7	-9.4601	-0.3511	-1.7476	-0.0090	0.0016	0.0000	-4.9810	-18.1273	4.5022	0.5121	-0.4827	0.5979	0.3836
1.71	-9.4603	-0.3537	-1.7498	-0.0168	0.0026	-0.0061	-5.0026	-18.2365	4.4125	0.5121	-0.4827	0.5980	0.3836
1.72	-9.4621	-0.3642	-1.7462	-0.0169	-0.0037	-0.0073	-4.8429	-18.4433	4.5807	0.5122	-0.4827	0.5979	0.3836
1.73	-9.4625	-0.3660	-1.7326	-0.0154	0.0012	-0.0014	-5.0512	-18.3112	4.5719	0.5122	-0.4827	0.5979	0.3837
1.74	-9.4604	-0.3682	-1.7421	-0.0089	-0.0034	-0.0080	-5.0626	-18.2927	4.3852	0.5121	-0.4827	0.5978	0.3836
1.75	-9.4699	-0.3542	-1.7595	-0.0149	0.0003	-0.0038	-5.0934	-18.4241	4.4613	0.5122	-0.4828	0.5979	0.3837
1.76	-9.4589	-0.3555	-1.7450	-0.0153	-0.0008	-0.0011	-4.9761	-18.3347	4.5166	0.5122	-0.4828	0.5978	0.3837
1.77	-9.4620	-0.3380	-1.7471	-0.0119	-0.0035	-0.0069	-4.6364	-18.2759	4.5657	0.5122	-0.4828	0.5978	0.3837
1.78	-9.4660	-0.3498	-1.7486	-0.0123	-0.0023	0.0038	-4.6937	-18.3930	4.7372	0.5122	-0.4828	0.5978	0.3837
1.79	-9.4665	-0.3523	-1.7468	-0.0106	-0.0084	-0.0030	-4.5514	-18.3412	4.5317	0.5122	-0.4827	0.5978	0.3837
1.8	-9.4642	-0.3496	-1.7458	-0.0139	-0.0039	-0.0007	-4.6324	-18.3521	4.4829	0.5123	-0.4828	0.5978	0.3838
1.81	-9.4628	-0.3565	-1.7458	-0.0143	-0.0051	0.0036	-4.6194	-18.5032	4.5391	0.5122	-0.4827	0.5977	0.3837
1.82	-9.4618	-0.3640	-1.7540	-0.0174	-0.0023	0.0008	-4.7122	-18.4078	4.4034	0.5123	-0.4828	0.5978	0.3838
1.83	-9.4668	-0.3647	-1.7529	-0.0140	-0.0016	0.0077	-4.9287	-18.2426	4.2860	0.5122	-0.4827	0.5977	0.3838
1.84	-9.4669	-0.3671	-1.7548	-0.0145	-0.0030	0.0026	-4.9115	-18.3061	4.2127	0.5123	-0.4827	0.5978	0.3839
1.85	-9.4587	-0.3688	-1.7532	-0.0091	-0.0042	0.0044	-5.0160	-18.2648	4.3567	0.5122	-0.4826	0.5977	0.3839
1.86	-9.4692	-0.3667	-1.7497	-0.0144	-0.0042	0.0010	-5.0061	-18.4173	4.4259	0.5122	-0.4827	0.5977	0.3839
1.87	-9.4682	-0.3589	-1.7428	-0.0146	0.0001	0.0050	-5.0279	-18.2940	4.2537	0.5122	-0.4827	0.5977	0.3840
1.88	-9.4588	-0.3673	-1.7429	-0.0098	0.0032	-0.0000	-5.1916	-18.2931	4.2260	0.5122	-0.4826	0.5977	0.3839
1.89	-9.4583	-0.3531	-1.7430	-0.0172	0.0047	0.0023	-5.2236	-18.2797	4.3524	0.5122	-0.4827	0.5978	0.3840
1.9	-9.4608	-0.3595	-1.7339	-0.0111	-0.0013	-0.0048	-5.0654	-18.0507	4.4346	0.5122	-0.4827	0.5977	0.3840
1.91	-9.4728	-0.3564	-1.7288	-0.0167	0.0016	-0.0049	-5.0893	-18.0218	4.3938	0.5122	-0.4827	0.5977	0.3840
1.92	-9.4630	-0.3625	-1.7305	-0.0194	0.0032	0.0002	-5.1214	-18.1315	4.4269	0.5121	-0.4827	0.5976	0.3840
1.93	-9.4725	-0.3551	-1.7343	-0.0108	0.0029	-0.0050	-4.9260	-18.2085	4.5080	0.5122	-0.4827	0.5977	0.3840
1.94	-9.4741	-0.3612	-1.7341	-0.0095	0.0006	0.0001	-4.8994	-18.2278	4.5305	0.5122	-0.4827	0.5976	0.3840
1.95	-9.4592	-0.3657	-1.7283	-0.0170	-0.0054	-0.0036	-5.1293	-18.3509	4.4167	0.5122	-0.4827	0.5976	0.3840
1.96	-9.4710	-0.3639	-1.7355	-0.0180	-0.0072	0.0034	-5.0756	-17.9663	4.4218	0.5122	-0.4827	0.5976	0.3841
1.97	-9.4635	-0.3639	-1.7341	-0.0167	-0.0085	0.0043	-5.0947	-18.1210	4.5018	0.5122	-0.4827	0.5976	0.3841
1.98	-9.4591	-0.3558	-1.7251	-0.0125	-0.0054	0.0013	-4.9167	-18.2646	4.3608	0.5122	-0.4827	0.5976	0.3842
1.99	-9.4725	-0.3563	-1.7520	-0.0083	0.0028	-0.0005	-4.9566	-18.3850	4.5555	0.5122	-0.4826	0.5975	0.3841
2	-9.4662	-0.3481	-1.7440	-0.0152	-0.0026	-0.0074	-4.7028	-18.3265	4.3603	0.5122	-0.4827	0.5975	0.3842
2.01	-9.4607	-0.3595	-1.7315	-0.0185	-0.0081	0.0015	-4.8619	-18.6012	4.2326	0.5122	-0.4827	0.5975	0.3842
2.02	-9.4712	-0.3568	-1.7515	-0.0164	0.0052	0.0020	-4.9647	-18.4989	4.5225	0.5122	-0.4827	0.5975	0.3842
2.03	-9.4633	-0.3649	-1.7342	-0.0175	-0.0065	-0.0006	-4.9090	-18.2664	4.5924	0.5122	-0.4827	0.5975	0.3843
2.04	-9.4652	-0.3633	-1.7386	-0.0120	-0.0045	0.0010	-4.9633	-18.3597	4.4921	0.5122	-0.4827	0.5975	0.3843
2.05	-9.4685	-0.3695	-1.7583	-0.0211	-0.0021	-0.0009	-4.8633	-18.1040	4.3156	0.5122	-0.4827	0.5974	0.3843
2.06	-9.4604	-0.3600	-1.7476	-0.0152	-0.0093	0.0009	-4.8349	-18.3980	4.4307	0.5122	-0.4827	0.5974	0.3843
2.07	-9.4647	-0.3600	-1.7522	-0.0110	0.0063	-0.0027	-5.0419	-18.3492	4.5014	0.5123	-0.4827	0.5974	0.3844
2.08	-9.4642	-0.3646	-1.7735	-0.0089	0.0023	0.0023	-5.0071	-18.2498	4.5649	0.5122	-0.4827	0.5974	0.3844
2.09	-9.4560	-0.3593	-1.7579	-0.0232	0.0023	-0.0031	-5.0140	-18.1247	4.5367	0.5122	-0.4828	0.5974	0.3844
2.1	-9.4626	-0.3482	-1.7595	-0.0293	0.0017	0.0005	-5.0229	-18.1133	4.4871	0.5121	-0.4828	0.5973	0.3844
2.11	-9.4718	-0.3631	-1.7706	-0.0192	-0.0009	-0.0029	-4.9898	-18.2406	4.5044	0.5121	-0.4828	0.5973	0.3845
2.12	-9.4611	-0.3555	-1.7436	-0.0194	0.0016	-0.0046	-5.0766	-18.3207	4.3470	0.5121	-0.4828	0.5973	0.3845
2.13	-9.4707	-0.3582	-1.7507	-0.0137	0.0013	0.0000	-5.0263	-18.1864	4.2942	0.5121	-0.4828	0.5973	0.3845
2.14	-9.4661	-0.3699	-1.7489	-0.0182	-0.0044	-0.0039	-5.0037	-18.3145	4.5743	0.5122	-0.4829	0.5973	0.3846
2.15	-9.4604	-0.3666	-1.7336	-0.0162	-0.0070	-0.0047	-4.8889	-18.2389	4.4113	0.5121	-0.4829	0.5972	0.3846
2.16	-9.4629	-0.3517	-1.7325	-0.0133	-0.0050	0.0009	-5.0253	-18.2120	4.3047	0.5122	-0.4829	0.5972	0.3846
2.17	-9.4651	-0.3431	-1.7365	-0.0142	-0.0077	-0.0067	-4.8412	-18.4932	4.3496	0.5121	-0.4828	0.5971	0.3846
2.18	-9.4613	-0.3488	-1.7393	-0.0132	-0.0105	-0.0041	-4.8505	-18.3977	4.2418	0.5122	-0.4829	0.5971	0.3846
2.19	-9.4766	-0.3483	-1.7312	-0.0154	-0.0054	0.0008	-4.9816	-18.2291	4.5560	0.5122	-0.4829	0.5971	0.3847
2.2	-9.4683	-0.3536	-1.7176	-0.0136	-0.0086	0.0011	-4.8373	-18.3786	4.4014	0.5122	-0.4828	0.5970	0.3847
2.21	-9.4616	-0.3507	-1.7239	-0.0098	-0.0105	0.0043	-4.8582	-18.3534	4.5474	0.5123	-0.4828	0.5970	0.3848
2.22	-9.4685	-0.3433	-1.7290	-0.0152	-0.0090	0.0041	-5.0831	-18.3875	4.3263	0.5123	-0.4828	0.5970	0.3848
2.23	-9.4629	-0.3436	-1.7102	-0.0118	-0.0119	0.0049	-5.0676	-18.3301	4.4344	0.5123	-0.4828	0.5970	0.3849
2.24	-9.4729	-0.3485	-1.7295	-0.0093	-0.0046	-0.0006	-4.8316	-18.5499	4.6432	0.5123	-0.4827	0.5969	0.3848
2.25	-9.4625	-0.3485	-1.7193	-0.0086	-0.0059	0.0009	-4.8718	-18.4074	4.5747	0.5124	-0.4827	0.5970	0.3849
2.26	-9.4589	-0.3463	-1.7176	-0.0160	-0.0033	-0.0038	-5.1087	-18.2213	4.6301	0.5124	-0.4827	0.5969	0.3849
2.27	-9.4697	-0.3467	-1.7471	-0.0154	0.0011	-0.0029	-4.8096	-18.1284	4.7680	0.5124	-0.4827	0.5969	0.3849
2.28	-9.4707	-0.3521	-1.7447	-0.0173	-0.0092	0.0059	-4.5921	-18.1765	4.7835	0.5124	-0.4827	0.5969	0.3850
2.29	-9.4637	-0.3560	-1.7443	-0.0220	-0.0047	-0.0013	-4.8165	-18.3292	4.6614	0.5124	-0.4827	0.5969	0.3850
2.3	-9.4611	-0.3573	-1.7526	-0.0218	-0.0072	-0.0007	-4.8933	-18.2463	4.5012	0.5124	-0.4827	0.5968	0.3851
2.31	-9.4703	-0.3669	-1.7421	-0.0171	-0.0020	0.0003	-4.9540	-18.1511	4.5283	0.5123	-0.4827	0.5968	0.3851
2.32	-9.4736	-0.3681	-1.7344	-0.0177	0.0016	0.0010	-5.1727	-18.2352	4.3708	0.5124	-0.4828	0.5968	0.3852
2.33	-9.4721	-0.3572	-1.7380	-0.0154	-0.0035	0.0020	-5.3027	-18.2224	4.5064	0.5123	-0.4827	0.5968	0.3852
2.34	-9.4720	-0.3502	-1.7391	-0.0128	-0.0065	0.0064	-5.0473	-18.2056	4.6484	0.5124	-0.4827	0.5968	0.3852
2.35	-9.4614	-0.3488	-1.7392	-0.0133	0.0018	0.0026	-4.9589	-18.3057	4.4797	0.5123	-0.4827	0.5967	0.3852
2.36	-9.4674	-0.3430	-1.7278	-0.0115	-0.0029	0.0046	-4.8355	-18.3941	4.5482	0.5123	-0.4827	0.5968	0.3853
2.37	-9.4867	-0.3346	-1.7351	-0.0134	-0.0041	0.0065	-4.7811	-18.3709	4.4630	0.5123	-0.4827	0.5968	0.3853
2.38	-9.4746	-0.3361	-1.7277	-0.0098	-0.0029	0.0026	-4.8030	-18.3735	4.3962	0.5123	-0.4826	0.5967	0.3853
2.39	-9.4618	-0.3456	-1.7203	-0.0100	-0.0108	0.0026	-4.7898	-18.3872	4.6599	0.5124	-0.4826	0.5968	0.3854
2.4	-9.4703	-0.3444	-1.7262	-0.0132	-0.0019	0.0018	-4.9400	-18.3530	4.5461	0.5124	-0.4826	0.5967	0.3854
2.41	-9.4660	-0.3437	-1.7320	-0.0105	-0.0057	0.0034	-4.7583	-18.2443	4.5079	0.5124	-0.4826	0.5968	0.3854
2.42	-9.4632	-0.3452	-1.7328	-0.0127	-0.0035	0.0043	-4.9863	-18.4890	4.5231	0.5123	-0.4825	0.5967	0.3854
2.43	-9.4665	-0.3587	-1.7298	-0.0103	0.0031	-0.0021	-5.0082	-18.3414	4.4054	0.5124	-0.4825	0.5967	0.3854
2.44	-9.4711	-0.3512	-1.7475	-0.0126	0.0100	0.0019	-4.8259	-18.4268	4.6179	0.5124	-0.4825	0.5967	0.3854
2.45	-9.4647	-0.3468	-1.7427	-0.0161	0.0043	0.0017	-4.9440	-18.2179	4.5355	0.5123	-0.4825	0.5967	0.3854
2.46	-9.4692	-0.3476	-1.7381	-0.0187	0.0005	0.0015	-5.1536	-18.2217	4.3897	0.5123	-0.4826	0.5968	0.3855
2.47	-9.4574	-0.3476	-1.7434	-0.0133	0.0016	-0.0010	-5.1755	-18.2032	4.4561	0.5123	-0.4826	0.5967	0.3855
2.48	-9.4573	-0.3460	-1.7426	-0.0116	-0.0036	-0.0042	-4.9117	-18.2769	4.5441	0.5123	-0.4826	0.5967	0.3855
2.49	-9.4736	-0.3614	-1.7599	-0.0158	-0.0055	-0.0035	-5.0613	-18.3100	4.4691	0.5123	-0.4825	0.5966	0.3855
2.5	-9.4657	-0.3685	-1.7544	-0.0066	-0.0011	0.0017	-5.0234	-18.2001	4.7801	0.5124	-0.4826	0.5967	0.3855
2.51	-9.4655	-0.3746	-1.7554	-0.0131	-0.0018	-0.0033	-4.7849	-18.3639	4.5330	0.5124	-0.4825	0.5967	0.3855
2.52	-9.4669	-0.3731	-1.7544	-0.0082	0.0012	-0.0022	-4.8399	-18.3956	4.3701	0.5124	-0.4826	0.5967	0.3855
2.53	-9.4618	-0.3749	-1.7560	-0.0116	-0.0091	0.0025	-5.0743	-18.2819	4.6330	0.5124	-0.4825	0.5966	0.3855
2.54	-9.4646	-0.3718	-1.7489	-0.0121	0.0005	-0.0039	-4.8989	-18.2053	4.5944	0.5124	-0.4825	0.5966	0.3855
2.55	-9.4808	-0.3787	-1.7533	-0.0118	-0.0038	0.0053	-4.8869	-18.3865	4.5804	0.5124	-0.4825	0.5966	0.3856
2.56	-9.4735	-0.3749	-1.7592	-0.0169	-0.0120	0.0031	-4.7913	-18.3703	4.3353	0.5124	-0.4825	0.5965	0.3856
2.57	-9.4644	-0.3738	-1.7506	-0.0129	-0.0066	-0.0040	-4.8856	-18.2937	4.4262	0.5125	-0.4825	0.5966	0.3857
2.58	-9.4762	-0.3720	-1.7747	-0.0142	-0.0003	0.0051	-4.8687	-18.4193	4.4720	0.5124	-0.4825	0.5965	0.3857
2.59	-9.4514	-0.3684	-1.7600	-0.0133	-0.0004	-0.0005	-4.8941	-18.2975	4.5425	0.5125	-0.4825	0.5966	0.3857
2.6	-9.4547	-0.3708	-1.7581	-0.0141	-0.0043	-0.0010	-4.7811	-18.3619	4.4171	0.5124	-0.4825	0.5965	0.3857
2.61	-9.4711	-0.3729	-1.7729	-0.0103	-0.0017	-0.0017	-4.8141	-18.4084	4.6621	0.5125	-0.4825	0.5965	0.3857
2.62	-9.4593	-0.3810	-1.7427	-0.0074	-0.0073	0.0032	-4.9413	-18.3080	4.5589	0.5125	-0.4824	0.5965	0.3857
2.63	-9.4643	-0.3797	-1.7462	-0.0095	-0.0001	0.0014	-4.9939	-18.3110	4.7080	0.5125	-0.4824	0.5965	0.3857
2.64	-9.4721	-0.3749	-1.7533	-0.0102	-0.0087	-0.0056	-4.7437	-18.2584	4.5760	0.5126	-0.4824	0.5965	0.3858
2.65	-9.4617	-0.3752	-1.7383	-0.0107	0.0005	-0.0027	-5.0057	-18.2544	4.6382	0.5125	-0.4824	0.5965	0.3858
2.66	-9.4692	-0.3719	-1.7507	-0.0090	0.0015	-0.0090	-5.0010	-18.2674	4.7196	0.5126	-0.4825	0.5965	0.3858
2.67	-9.4569	-0.3648	-1.7403	-0.0033	0.0030	-0.0007	-4.9422	-18.1152	4.5856	0.5125	-0.4824	0.5964	0.3857
2.68	-9.4601	-0.3640	-1.7430	-0.0081	0.0033	-0.0027	-4.9634	-18.2217	4.4901	0.5126	-0.4824	0.5965	0.3857
2.69	-9.4659	-0.3710	-1.7505	-0.0120	-0.0034	-0.0042	-4.8139	-18.2697	4.5354	0.5126	-0.4824	0.5964	0.3857
2.7	-9.4611	-0.3691	-1.7400	-0.0129	0.0070	-0.0015	-5.0374	-18.5226	4.4862	0.5126	-0.4824	0.5964	0.3857
2.71	-9.4621	-0.3739	-1.7372	-0.0125	0.0012	-0.0017	-5.0435	-18.2494	4.6471	0.5126	-0.4825	0.5965	0.3857
2.72	-9.4707	-0.3833	-1.7470	-0.0059	-0.0043	-0.0045	-5.0387	-18.2176	4.5182	0.5126	-0.4824	0.5964	0.3857
2.73	-9.4648	-0.3831	-1.7333	-0.0106	-0.0066	0.0003	-4.8213	-18.2063	4.5927	0.5126	-0.4824	0.5964	0.3857
2.74	-9.4550	-0.3761	-1.7269	-0.0117	-0.0083	-0.0041	-4.8390	-18.2226	4.5142	0.5126	-0.4824	0.5963	0.3857
2.75	-9.4643	-0.3671	-1.7341	-0.0099	-0.0087	0.0001	-5.0261	-18.1952	4.4268	0.5127	-0.4824	0.5964	0.3858
2.76	-9.4612	-0.3654	-1.7184	-0.0099	-0.0098	0.0063	-4.9805	-18.4159	4.6884	0.5127	-0.4823	0.5963	0.3858
2.77	-9.4663	-0.3574	-1.7260	-0.0111	-0.0006	0.0031	-4.4843	-18.1907	4.7566	0.5127	-0.4823	0.5964	0.3858
2.78	-9.4605	-0.3513	-1.7209	-0.0088	-0.0089	-0.0011	-4.4668	-17.8207	4.8764	0.5127	-0.4823	0.5963	0.3858
2.79	-9.4674	-0.3448	-1.7338	-0.0065	-0.0021	0.0007	-4.6745	-18.0586	4.6466	0.5128	-0.4823	0.5963	0.3858
2.8	-9.4727	-0.3410	-1.7349	-0.0077	-0.0052	-0.0013	-4.9296	-18.1607	4.3229	0.5128	-0.4823	0.5963	0.3858
2.81	-9.4642	-0.3424	-1.7291	-0.0063	-0.0073	0.0004	-5.0116	-18.2425	4.5096	0.5128	-0.4822	0.5963	0.3858
2.82	-9.4711	-0.3394	-1.7364	-0.0132	-0.0036	-0.0040	-5.1161	-18.2065	4.6968	0.5129	-0.4823	0.5963	0.3859
2.83	-9.4633	-0.3416	-1.7499	-0.0142	-0.0035	-0.0038	-4.9203	-18.3233	4.6073	0.5129	-0.4822	0.5962	0.3859
2.84	-9.4587	-0.3483	-1.7358	-0.0105	-0.0047	-0.0050	-4.9885	-18.2091	4.7524	0.5129	-0.4823	0.5963	0.3859
2.85	-9.4766	-0.3451	-1.7527	-0.0113	-0.0030	-0.0049	-5.0910	-18.1933	4.4847	0.5129	-0.4822	0.5962	0.3859
2.86	-9.4644	-0.3451	-1.7436	-0.0142	-0.0015	-0.0046	-5.0991	-18.2172	4.5150	0.5129	-0.4823	0.5962	0.3859
2.87	-9.4642	-0.3407	-1.7396	-0.0092	-0.0046	-0.0040	-5.2005	-18.1800	4.5414	0.5129	-0.4823	0.5962	0.3859
2.88	-9.4755	-0.3205	-1.7386	-0.0079	-0.0019	-0.0018	-5.1340	-18.2949	4.7110	0.5129	-0.4822	0.5961	0.3859
2.89	-9.4610	-0.3119	-1.7245	-0.0042	-0.0020	-0.0038	-5.3001	-18.2783	4.5835	0.5130	-0.4823	0.5962	0.3859
2.9	-9.4688	-0.3078	-1.7140	-0.0045	-0.0097	-0.0013	-5.1573	-18.1936	4.4565	0.5130	-0.4822	0.5961	0.3859
2.91	-9.4830	-0.3092	-1.7316	-0.0026	-0.0099	0.0022	-4.8281	-18.4134	4.4270	0.5131	-0.4822	0.5962	0.3859
2.92	-9.4597	-0.2996	-1.7260	-0.0087	-0.0048	-0.0072	-4.8524	-18.5653	4.4415	0.5131	-0.4821	0.5961	0.3859
2.93	-9.4684	-0.3017	-1.7235	-0.0041	0.0004	0.0030	-4.6297	-18.2597	4.5555	0.5132	-0.4821	0.5961	0.3859
2.94	-9.4750	-0.3031	-1.7418	-0.0098	0.0030	-0.0050	-4.7620	-18.3735	4.6503	0.5132	-0.4821	0.5961	0.3859
2.95	-9.4614	-0.3140	-1.7327	-0.0080	0.0052	-0.0029	-5.0139	-18.4893	4.5225	0.5132	-0.4821	0.5961	0.3858
2.96	-9.4635	-0.3209	-1.7417	-0.0045	0.0032	0.0041	-5.0039	-18.3365	4.5118	0.5132	-0.4821	0.5962	0.3858
2.97	-9.4590	-0.3251	-1.7412	-0.0111	-0.0013	-0.0029	-4.7725	-18.5005	4.8085	0.5132	-0.4821	0.5962	0.3858
2.98	-9.4755	-0.3290	-1.7408	-0.0071	-0.0070	-0.0031	-4.9888	-18.3651	4.6933	0.5132	-0.4821	0.5962	0.3858
2.99	-9.4719	-0.3287	-1.7643	-0.0026	0.0015	-0.0021	-5.0089	-18.3782	4.3919	0.5132	-0.4820	0.5961	0.3857
3	-9.4587	-0.3412	-1.7531	-0.0041	-0.0078	0.0023	-5.0016	-18.2449	4.4654	0.5133	-0.4820	0.5962	0.3858
3.01	-9.4674	-0.3388	-1.7687	-0.0018	-0.0019	-0.0043	-5.1462	-18.1977	4.5109	0.5133	-0.4820	0.5962	0.3858
3.02	-9.4669	-0.3325	-1.7720	-0.0155	-0.0021	-0.0081	-5.1888	-18.1933	4.2977	0.5134	-0.4820	0.5961	0.3858
3.03	-9.4563	-0.3262	-1.7547	-0.0148	-0.0018	-0.0042	-4.9749	-18.3052	4.4710	0.5133	-0.4820	0.5961	0.3858
3.04	-9.4758	-0.3331	-1.7579	-0.0116	0.0038	-0.0064	-5.0278	-18.1338	4.3705	0.5133	-0.4820	0.5961	0.3858
3.05	-9.4729	-0.3599	-1.7554	-0.0088	-0.0080	0.0009	-5.1169	-18.3486	4.3725	0.5134	-0.4820	0.5961	0.3858
3.06	-9.4504	-0.3618	-1.7447	-0.0148	-0.0012	-0.0005	-4.9930	-18.3024	4.5341	0.5133	-0.4820	0.5960	0.3858
3.07	-9.4626	-0.3725	-1.7617	-0.0188	0.0043	-0.0073	-5.0118	-18.1859	4.5144	0.5134	-0.4821	0.5961	0.3858
3.08	-9.4712	-0.3869	-1.7726	-0.0122	-0.0001	-0.0075	-5.1394	-18.1855	4.6447	0.5134	-0.4821	0.5960	0.3858
3.09	-9.4590	-0.4028	-1.7502	-0.0168	-0.0052	-0.0011	-5.2011	-18.0746	4.5184	0.5134	-0.4821	0.5960	0.3859
3.1	-9.4653	-0.4086	-1.7497	-0.0099	-0.0006	-0.0037	-4.9884	-18.3003	4.4284	0.5134	-0.4820	0.5959	0.3858
3.11	-9.4600	-0.4200	-1.7406	-0.0062	-0.0045	0.0051	-4.7865	-18.5059	4.4348	0.5134	-0.4820	0.5960	0.3858
3.12	-9.4759	-0.4382	-1.7375	-0.0070	-0.0022	-0.0012	-4.7446	-18.5037	4.4570	0.5134	-0.4820	0.5960	0.3858
3.13	-9.4757	-0.4377	-1.7303	-0.0049	0.0010	-0.0019	-4.8166	-18.3307	4.4062	0.5134	-0.4820	0.5960	0.3858
3.14	-9.4579	-0.4414	-1.7231	-0.0057	0.0048	0.0001	-5.0514	-18.4887	4.5754	0.5135	-0.4820	0.5961	0.3858
3.15	-9.4642	-0.4302	-1.7401	-0.0074	-0.0004	0.0013	-4.9482	-18.2653	4.5647	0.5135	-0.4819	0.5960	0.3858
3.16	-9.4769	-0.4203	-1.7296	-0.0068	-0.0051	0.0024	-4.7236	-18.3935	4.3116	0.5135	-0.4819	0.5961	0.3858
3.17	-9.4476	-0.4035	-1.7103	-0.0091	0.0000	0.0024	-4.8584	-18.4826	4.4549	0.5135	-0.4819	0.5960	0.3857
3.18	-9.4683	-0.4003	-1.7292	-0.0037	0.0047	0.0027	-4.9219	-18.4052	4.4331	0.5135	-0.4819	0.5961	0.3858
3.19	-9.4810	-0.3816	-1.7418	-0.0059	0.0029	0.0055	-4.9599	-18.3585	4.6025	0.5135	-0.4818	0.5961	0.3857
3.2	-9.4423	-0.3639	-1.7124	-0.0164	0.0009	-0.0007	-5.0471	-18.3715	4.5986	0.5135	-0.4818	0.5961	0.3857
3.21	-9.4701	-0.3626	-1.7281	-0.0123	-0.0014	-0.0002	-4.8801	-18.2814	4.7129	0.5135	-0.4818	0.5961	0.3858
3.22	-9.4747	-0.3655	-1.7266	-0.0050	0.0073	-0.0032	-5.1179	-18.3869	4.5412	0.5135	-0.4818	0.5961	0.3857
3.23	-9.4629	-0.3722	-1.7203	-0.0109	0.0088	-0.0039	-5.1394	-18.1579	4.5167	0.5135	-0.4819	0.5962	0.3857
3.24	-9.4622	-0.3720	-1.7283	-0.0113	0.0050	-0.0016	-4.9857	-18.0027	4.4224	0.5134	-0.4818	0.5961	0.3857
3.25	-9.4685	-0.3642	-1.7313	-0.0131	0.0016	-0.0027	-5.0053	-18.2710	4.5323	0.5135	-0.4819	0.5962	0.3857
3.26	-9.4639	-0.3445	-1.7328	-0.0110	0.0076	-0.0004	-5.0134	-18.2542	4.5151	0.5135	-0.4819	0.5961	0.3857
3.27	-9.4664	-0.3258	-1.7332	-0.0031	0.0088	-0.0001	-4.7098	-18.1257	4.7919	0.5135	-0.4819	0.5962	0.3856
3.28	-9.4642	-0.3090	-1.7339	-0.0088	0.0025	0.0056	-4.6032	-17.9998	4.7608	0.5134	-0.4819	0.5962	0.3856
3.29	-9.4751	-0.2950	-1.7402	-0.0020	-0.0024	0.0039	-4.7546	-18.1820	4.8368	0.5135	-0.4818	0.5962	0.3856
3.3	-9.4657	-0.2870	-1.7392	-0.0014	0.0039	0.0096	-4.8001	-18.2018	4.7204	0.5135	-0.4818	0.5963	0.3856
3.31	-9.4621	-0.2860	-1.7342	-0.0049	0.0042	0.0041	-4.9198	-18.2263	4.5599	0.5134	-0.4817	0.5963	0.3856
3.32	-9.4777	-0.2856	-1.7632	-0.0047	0.0047	-0.0051	-4.8130	-18.5225	4.5549	0.5135	-0.4818	0.5964	0.3856
3.33	-9.4620	-0.2926	-1.7607	-0.0118	0.0027	0.0038	-4.7700	-18.2884	4.6561	0.5135	-0.4817	0.5963	0.3856
3.34	-9.4564	-0.2924	-1.7462	-0.0168	-0.0030	0.0017	-4.7575	-18.3257	4.5467	0.5135	-0.4818	0.5964	0.3856
3.35	-9.4650	-0.3029	-1.7547	-0.0108	-0.0041	-0.0026	-4.9944	-18.1959	4.3593	0.5134	-0.4817	0.5963	0.3856
3.36	-9.4572	-0.3041	-1.7467	-0.0078	0.0097	-0.0080	-4.9773	-18.2558	4.6343	0.5135	-0.4818	0.5963	0.3856
3.37	-9.4654	-0.3114	-1.7539	-0.0083	0.0034	0.0031	-4.9346	-18.3070	4.5270	0.5135	-0.4818	0.5963	0.3856
3.38	-9.4774	-0.3062	-1.7710	-0.0085	0.0105	-0.0022	-4.8623	-18.0268	4.6668	0.5134	-0.4817	0.5963	0.3855
3.39	-9.4587	-0.2963	-1.7621	-0.0122	0.0060	-0.0009	-5.0161	-18.1621	4.5554	0.5135	-0.4818	0.5964	0.3856
3.4	-9.4766	-0.3151	-1.7772	-0.0131	-0.0020	-0.0046	-5.0480	-18.3960	4.5628	0.5134	-0.4818	0.5963	0.3855
3.41	-9.4646	-0.3197	-1.7703	-0.0085	-0.0056	-0.0089	-4.8725	-18.3061	4.3752	0.5135	-0.4818	0.5964	0.3855
3.42	-9.4628	-0.3548	-1.7671	-0.0139	-0.0001	-0.0033	-4.9679	-17.9801	4.5500	0.5134	-0.4818	0.5963	0.3855
3.43	-9.4770	-0.3653	-1.7618	-0.0184	-0.0033	-0.0056	-5.2000	-18.3630	4.7141	0.5135	-0.4818	0.5963	0.3856
3.44	-9.4564	-0.3610	-1.7544	-0.0088	-0.0020	0.0008	-5.1963	-18.3069	4.5549	0.5135	-0.4818	0.5963	0.3856
3.45	-9.4560	-0.3703	-1.7544	-0.0190	0.0010	-0.0028	-5.0402	-18.1838	4.6599	0.5135	-0.4818	0.5962	0.3856
3.46	-9.4655	-0.3590	-1.7528	-0.0101	0.0073	-0.0016	-4.9927	-18.3254	4.6376	0.5135	-0.4819	0.5963	0.3856
3.47	-9.4688	-0.3518	-1.7366	-0.0136	-0.0007	0.0042	-5.0412	-18.1909	4.3244	0.5134	-0.4818	0.5963	0.3856
3.48	-9.4622	-0.3424	-1.7288	-0.0122	-0.0012	0.0006	-4.9079	-18.2337	4.6553	0.5135	-0.4819	0.5963	0.3856
3.49	-9.4683	-0.3340	-1.7407	-0.0073	-0.0058	0.0009	-4.8708	-18.2123	4.6830	0.5134	-0.4818	0.5962	0.3856
3.5	-9.4632	-0.3262	-1.7421	-0.0053	-0.0044	-0.0047	-4.9392	-18.3144	4.4055	0.5135	-0.4818	0.5963	0.3856
3.51	-9.4585	-0.3286	-1.7360	-0.0094	-0.0106	-0.0023	-4.9194	-18.4671	4.4655	0.5135	-0.4818	0.5962	0.3856
3.52	-9.4677	-0.3324	-1.7429	-0.0037	-0.0072	-0.0020	-4.9463	-18.4055	4.7062	0.5136	-0.4817	0.5962	0.3856
3.53	-9.4608	-0.3543	-1.7331	-0.0089	-0.0108	-0.0020	-5.0575	-18.3077	4.5393	0.5136	-0.4817	0.5962	0.3856
3.54	-9.4618	-0.3696	-1.7315	-0.0202	-0.0075	-0.0024	-5.0905	-18.2670	4.5912	0.5137	-0.4817	0.5961	0.3856
3.55	-9.4606	-0.3755	-1.7404	-0.0200	-0.0096	-0.0075	-5.1103	-18.2540	4.5179	0.5137	-0.4818	0.5961	0.3857
3.56	-9.4603	-0.3878	-1.7351	-0.0116	-0.0040	-0.0020	-4.9535	-18.3466	4.3885	0.5137	-0.4817	0.5960	0.3857
3.57	-9.4611	-0.3940	-1.7378	-0.0168	-0.0020	-0.0058	-5.0484	-18.0766	4.3909	0.5137	-0.4818	0.5961	0.3857
3.58	-9.4594	-0.4008	-1.7364	-0.0175	-0.0060	0.0007	-5.1082	-18.3541	4.3988	0.5137	-0.4818	0.5960	0.3857
3.59	-9.4585	-0.4018	-1.7282	-0.0105	-0.0018	-0.0071	-5.2894	-18.4018	4.6432	0.5138	-0.4818	0.5960	0.3858
3.6	-9.4669	-0.3983	-1.7386	-0.0104	0.0015	-0.0069	-5.0033	-18.3979	4.6725	0.5137	-0.4818	0.5959	0.3857
3.61	-9.4635	-0.4016	-1.7373	-0.0089	-0.0030	-0.0042	-5.2112	-18.2524	4.6378	0.5138	-0.4818	0.5960	0.3857
3.62	-9.4516	-0.3964	-1.7238	-0.0072	-0.0018	-0.0053	-5.0051	-18.2513	4.5050	0.5138	-0.4818	0.5959	0.3857
3.63	-9.4585	-0.3984	-1.7379	-0.0063	-0.0025	-0.0040	-4.9660	-18.3927	4.7689	0.5138	-0.4817	0.5959	0.3857
3.64	-9.4620	-0.3966	-1.7248	-0.0127	0.0009	-0.0060	-5.0569	-18.4017	4.6305	0.5139	-0.4818	0.5960	0.3857
3.65	-9.4591	-0.4012	-1.7245	-0.0146	-0.0111	-0.0068	-5.0829	-18.3565	4.4289	0.5138	-0.4818	0.5959	0.3857
3.66	-9.4640	-0.3870	-1.7344	-0.0112	-0.0005	-0.0014	-4.9234	-18.4821	4.5368	0.5139	-0.4818	0.5959	0.3857
3.67	-9.4549	-0.3936	-1.7371	-0.0122	0.0055	0.0066	-4.8769	-18.3590	4.3655	0.5138	-0.4817	0.5958	0.3857
3.68	-9.4673	-0.3949	-1.7402	-0.0078	0.0028	0.0041	-4.8801	-18.4349	4.4445	0.5138	-0.4818	0.5959	0.3857
3.69	-9.4531	-0.3858	-1.7367	-0.0072	0.0024	0.0014	-4.9379	-18.4133	4.6466	0.5138	-0.4817	0.5959	0.3857
3.7	-9.4659	-0.3942	-1.7391	-0.0020	-0.0008	0.0028	-4.7129	-18.4497	4.4544	0.5138	-0.4817	0.5959	0.3857
3.71	-9.4760	-0.3814	-1.7398	-0.0058	-0.0086	-0.0023	-4.9252	-18.3808	4.6231	0.5139	-0.4817	0.5960	0.3857
3.72	-9.4574	-0.3920	-1.7346	-0.0114	-0.0018	0.0001	-5.2048	-18.0495	4.4857	0.5139	-0.4817	0.5959	0.3857
3.73	-9.4680	-0.3883	-1.7472	-0.0029	-0.0084	-0.0002	-5.0652	-18.2471	4.5437	0.5140	-0.4816	0.5960	0.3857
3.74	-9.4658	-0.3789	-1.7455	-0.0058	-0.0101	0.0028	-4.9625	-18.1972	4.5589	0.5140	-0.4815	0.5959	0.3857
3.75	-9.4623	-0.3611	-1.7522	-0.0065	-0.0008	0.0026	-5.0963	-18.2574	4.7107	0.5140	-0.4816	0.5960	0.3857
3.76	-9.4653	-0.3487	-1.7531	-0.0093	-0.0032	0.0002	-4.9756	-18.1566	4.6937	0.5140	-0.4815	0.5959	0.3857
3.77	-9.4655	-0.3372	-1.7538	-0.0077	0.0002	-0.0010	-4.5684	-18.1686	4.7046	0.5140	-0.4815	0.5960	0.3857
3.78	-9.4643	-0.3403	-1.7502	-0.0089	0.0081	-0.0027	-4.4962	-18.4132	4.8736	0.5140	-0.4815	0.5959	0.3857
3.79	-9.4609	-0.3749	-1.7547	-0.0101	0.0010	-0.0046	-4.6593	-18.1410	4.7588	0.5140	-0.4815	0.5960	0.3856
3.8	-9.4568	-0.3736	-1.7544	-0.0130	0.0010	-0.0046	-4.8812	-18.1672	4.5565	0.5140	-0.4816	0.5960	0.3857
3.81	-9.4673	-0.3288	-1.7465	-0.0101	-0.0039	-0.0028	-5.1165	-18.1672	4.5105	0.5140	-0.4815	0.5959	0.3856
3.82	-9.4627	-0.3318	-1.7449	-0.0075	-0.0012	-0.0044	-5.0669	-18.2384	4.6166	0.5141	-0.4816	0.5960	0.3857
3.83	-9.4600	-0.3735	-1.7528	-0.0113	0.0010	-0.0004	-4.9599	-18.1989	4.5051	0.5141	-0.4815	0.5959	0.3856
3.84	-9.4582	-0.3787	-1.7402	-0.0098	-0.0009	-0.0019	-5.0799	-18.2772	4.5285	0.5141	-0.4816	0.5960	0.3857
3.85	-9.4759	-0.3292	-1.7511	-0.0052	-0.0041	0.0084	-5.0111	-18.4009	4.5512	0.5141	-0.4815	0.5959	0.3856
3.86	-9.4622	-0.3159	-1.7326	-0.0101	-0.0018	0.0038	-4.7532	-18.3641	4.4892	0.5141	-0.4815	0.5959	0.3857
3.87	-9.4467	-0.3271	-1.7318	-0.0073	0.0018	0.0030	-4.9727	-18.4021	4.4854	0.5141	-0.4815	0.5960	0.3857
3.88	-9.4742	-0.3077	-1.7400	-0.0061	0.0008	-0.0025	-4.9554	-18.3088	4.5498	0.5141	-0.4814	0.5959	0.3856
3.89	-9.4828	-0.2804	-1.7321	-0.0087	0.0004	-0.0022	-4.7130	-18.1937	4.5343	0.5142	-0.4815	0.5960	0.3857
3.9	-9.4790	-0.2854	-1.7319	-0.0153	0.0036	0.0034	-4.7890	-18.2307	4.5025	0.5141	-0.4815	0.5960	0.3857
3.91	-9.4643	-0.3044	-1.7225	-0.0140	-0.0016	0.0037	-4.9177	-18.3982	4.4202	0.5141	-0.4815	0.5960	0.3857
3.92	-9.4478	-0.3234	-1.7287	-0.0157	-0.0059	-0.0013	-4.8339	-18.2849	4.4633	0.5140	-0.4814	0.5959	0.3857
3.93	-9.4798	-0.3425	-1.7429	-0.0160	-0.0076	0.0016	-4.9359	-18.3148	4.4300	0.5141	-0.4815	0.5959	0.3858
3.94	-9.4770	-0.3427	-1.7389	-0.0139	-0.0063	0.0026	-5.2004	-18.0919	4.4521	0.5141	-0.4814	0.5959	0.3858
3.95	-9.4431	-0.3354	-1.7198	-0.0191	-0.0023	-0.0018	-5.0078	-18.0884	4.3686	0.5141	-0.4814	0.5959	0.3858
3.96	-9.4675	-0.3184	-1.7431	-0.0192	-0.0009	-0.0011	-4.8921	-18.2598	4.2397	0.5141	-0.4815	0.5959	0.3859
3.97	-9.4649	-0.3149	-1.7397	-0.0089	-0.0014	0.0007	-5.1601	-18.1692	4.4258	0.5141	-0.4815	0.5958	0.3858
3.98	-9.4562	-0.3061	-1.7328	-0.0153	-0.0004	0.0002	-5.1474	-17.9341	4.4091	0.5141	-0.4815	0.5959	0.3859
3.99	-9.4621	-0.3164	-1.7298	-0.0128	0.0015	-0.0017	-5.1703	-18.1354	4.5317	0.5140	-0.4814	0.5958	0.3858
4	-9.4621	-0.3291	-1.7323	-0.0142	-0.0020	-0.0022	-5.1439	-18.3495	4.6129	0.5141	-0.4815	0.5958	0.3859
4.01	-9.4616	-0.3461	-1.7414	-0.0186	-0.0057	0.0051	-5.1863	-18.4066	4.5002	0.5141	-0.4815	0.5958	0.3859
4.02	-9.4610	-0.3576	-1.7529	-0.0137	-0.0018	-0.0027	-5.0724	-18.0638	4.5423	0.5141	-0.4815	0.5958	0.3860
4.03	-9.4613	-0.3710	-1.7432	-0.0120	-0.0034	-0.0008	-5.1022	-18.0432	4.4252	0.5141	-0.4815	0.5958	0.3860
4.04	-9.4634	-0.3732	-1.7414	-0.0056	-0.0041	-0.0023	-4.8974	-18.2873	4.4318	0.5141	-0.4815	0.5958	0.3860
4.05	-9.4673	-0.3719	-1.7450	-0.0097	-0.0006	0.0017	-4.6804	-18.3204	4.5058	0.5141	-0.4815	0.5958	0.3860
4.06	-9.4527	-0.3602	-1.7323	-0.0115	0.0004	-0.0016	-4.9230	-18.4962	4.5633	0.5141	-0.4814	0.5957	0.3859
4.07	-9.4634	-0.3521	-1.7398	-0.0089	-0.0060	-0.0000	-5.0233	-18.4261	4.4104	0.5142	-0.4815	0.5958	0.3860
4.08	-9.4620	-0.3507	-1.7289	-0.0133	-0.0062	-0.0049	-4.9444	-18.4069	4.6342	0.5141	-0.4814	0.5957	0.3860
4.09	-9.4544	-0.3561	-1.7281	-0.0083	0.0001	-0.0022	-4.9268	-18.4979	4.5591	0.5142	-0.4815	0.5958	0.3860
4.1	-9.4646	-0.3723	-1.7538	-0.0093	-0.0083	-0.0034	-4.8163	-18.3695	4.4466	0.5142	-0.4814	0.5957	0.3859
4.11	-9.4647	-0.3613	-1.7505	-0.0161	-0.0038	-0.0065	-4.7650	-18.2552	4.4258	0.5142	-0.4814	0.5957	0.3860
4.12	-9.4493	-0.3737	-1.7427	-0.0048	-0.0081	-0.0063	-4.8529	-18.3766	4.5120	0.5143	-0.4814	0.5957	0.3860
4.13	-9.4562	-0.3679	-1.7416	-0.0090	-0.0049	0.0004	-4.8797	-18.3123	4.5409	0.5143	-0.4814	0.5956	0.3860
4.14	-9.4690	-0.3844	-1.7541	-0.0140	-0.0049	-0.0026	-5.1243	-18.2134	4.4421	0.5143	-0.4814	0.5957	0.3860
4.15	-9.4650	-0.3856	-1.7413	-0.0058	-0.0054	0.0009	-5.0334	-18.0686	4.3926	0.5143	-0.4814	0.5956	0.3860
4.16	-9.4625	-0.3913	-1.7471	-0.0143	-0.0042	-0.0029	-4.9581	-18.3125	4.5929	0.5144	-0.4814	0.5956	0.3860
4.17	-9.4593	-0.3879	-1.7580	-0.0182	-0.0078	0.0012	-5.1830	-18.1279	4.6164	0.5143	-0.4813	0.5955	0.3860
4.18	-9.4588	-0.3732	-1.7526	-0.0137	0.0000	-0.0049	-5.1374	-18.0665	4.4087	0.5144	-0.4814	0.5956	0.3861
4.19	-9.4595	-0.3726	-1.7487	-0.0146	-0.0023	-0.0005	-5.0365	-18.4580	4.5794	0.5143	-0.4814	0.5955	0.3861
4.2	-9.4624	-0.3760	-1.7540	-0.0123	-0.0062	-0.0015	-4.8983	-18.2294	4.4992	0.5144	-0.4814	0.5955	0.3861
4.21	-9.4643	-0.3760	-1.7429	-0.0036	-0.0051	-0.0014	-5.0286	-18.0208	4.6314	0.5144	-0.4814	0.5955	0.3861
4.22	-9.4621	-0.3799	-1.7428	-0.0081	-0.0060	0.0102	-5.0763	-18.2136	4.6049	0.5144	-0.4813	0.5955	0.3861
4.23	-9.4592	-0.3764	-1.7392	-0.0102	-0.0089	0.0008	-4.7151	-18.1824	4.3919	0.5144	-0.4813	0.5955	0.3862
4.24	-9.4593	-0.3652	-1.7486	-0.0083	-0.0055	-0.0009	-4.5500	-18.3749	4.3394	0.5144	-0.4812	0.5954	0.3861
4.25	-9.4649	-0.3504	-1.7431	-0.0165	-0.0052	-0.0024	-4.8366	-18.4715	4.4937	0.5145	-0.4813	0.5955	0.3862
4.26	-9.4339	-0.3544	-1.7260	-0.0152	-0.0026	-0.0015	-4.9116	-18.3288	4.4010	0.5145	-0.4813	0.5954	0.3862
4.27	-9.4823	-0.3531	-1.7314	-0.0082	-0.0076	0.0041	-4.4650	-18.1700	4.5821	0.5145	-0.4812	0.5955	0.3862
4.28	-9.4965	-0.3372	-1.7229	-0.0094	-0.0055	0.0034	-4.2418	-17.9861	4.8436	0.5145	-0.4812	0.5954	0.3862
4.29	-9.4558	-0.3169	-1.6959	-0.0172	-0.0046	-0.0003	-4.5157	-18.1341	4.6215	0.5145	-0.4812	0.5954	0.3863
4.3	-9.4557	-0.3100	-1.7128	-0.0156	-0.0128	-0.0034	-4.9748	-17.9826	4.5033	0.5145	-0.4812	0.5954	0.3863
4.31	-9.4832	-0.3322	-1.7388	-0.0113	0.0017	0.0029	-4.9749	-18.2386	4.4704	0.5145	-0.4812	0.5953	0.3863
4.32	-9.4689	-0.3212	-1.7317	-0.0124	-0.0054	0.0031	-4.9650	-18.4970	4.5316	0.5146	-0.4812	0.5954	0.3864
4.33	-9.4561	-0.3225	-1.7296	-0.0150	-0.0024	-0.0023	-4.9507	-18.1918	4.4282	0.5145	-0.4812	0.5954	0.3863
4.34	-9.4656	-0.3383	-1.7290	-0.0191	0.0006	-0.0005	-5.2159	-18.2326	4.4102	0.5145	-0.4812	0.5954	0.3864
4.35	-9.4609	-0.3591	-1.7369	-0.0192	-0.0003	-0.0007	-5.0971	-18.2038	4.3688	0.5145	-0.4812	0.5953	0.3864
4.36	-9.4519	-0.3727	-1.7364	-0.0185	0.0089	-0.0023	-5.0515	-18.4427	4.3699	0.5145	-0.4813	0.5953	0.3864
4.37	-9.4522	-0.3786	-1.7379	-0.0098	0.0013	-0.0041	-5.1187	-18.3068	4.5248	0.5145	-0.4813	0.5953	0.3864
4.38	-9.4584	-0.3698	-1.7385	-0.0102	0.0019	-0.0080	-4.9250	-18.3000	4.5005	0.5144	-0.4813	0.5953	0.3863
4.39	-9.4605	-0.3610	-1.7632	-0.0144	0.0037	-0.0027	-5.0715	-18.2027	4.4490	0.5145	-0.4814	0.5954	0.3864
4.4	-9.4634	-0.3693	-1.7754	-0.0084	-0.0027	0.0023	-5.0120	-18.2259	4.4689	0.5144	-0.4813	0.5953	0.3864
4.41	-9.4565	-0.3688	-1.7686	-0.0111	-0.0011	0.0030	-4.8866	-18.1943	4.5926	0.5145	-0.4813	0.5954	0.3864
4.42	-9.4634	-0.3820	-1.7841	-0.0198	-0.0033	0.0003	-4.8685	-18.2948	4.2772	0.5144	-0.4813	0.5953	0.3864
4.43	-9.4756	-0.3824	-1.7713	-0.0202	-0.0017	-0.0018	-4.9787	-18.5025	4.3409	0.5144	-0.4813	0.5953	0.3864
4.44	-9.4532	-0.3842	-1.7457	-0.0123	0.0008	0.0017	-4.9259	-18.2676	4.3205	0.5144	-0.4813	0.5953	0.3865
4.45	-9.4611	-0.3805	-1.7417	-0.0069	0.0016	0.0014	-4.7689	-18.3781	4.3064	0.5144	-0.4813	0.5953	0.3864
4.46	-9.4681	-0.3754	-1.7512	-0.0174	0.0033	-0.0049	-4.9060	-18.3683	4.4473	0.5144	-0.4814	0.5953	0.3865
4.47	-9.4454	-0.3667	-1.7190	-0.0078	-0.0020	-0.0030	-5.0793	-18.2820	4.4715	0.5144	-0.4813	0.5953	0.3864
4.48	-9.4677	-0.3643	-1.7332	-0.0087	0.0018	-0.0037	-5.0120	-18.2993	4.3812	0.5144	-0.4814	0.5953	0.3864
4.49	-9.4620	-0.3374	-1.7273	-0.0153	0.0078	-0.0012	-5.0720	-18.3063	4.4138	0.5143	-0.4813	0.5952	0.3864
4.5	-9.4639	-0.3394	-1.7230	-0.0083	-0.0083	0.0014	-4.7999	-18.2698	4.4133	0.5144	-0.4814	0.5953	0.3864
4.51	-9.4625	-0.3314	-1.7354	-0.0092	-0.0081	-0.0046	-4.8600	-18.2002	4.5418	0.5144	-0.4813	0.5952	0.3864
4.52	-9.4603	-0.3293	-1.7192	-0.0115	-0.0048	-0.0077	-5.0842	-18.2034	4.3989	0.5145	-0.4814	0.5952	0.3864
4.53	-9.4584	-0.3449	-1.7360	-0.0093	-0.0005	-0.0040	-4.9124	-18.3239	4.4058	0.5145	-0.4814	0.5952	0.3864
4.54	-9.4568	-0.3553	-1.7432	-0.0172	-0.0025	0.0012	-5.1369	-18.1330	4.5283	0.5145	-0.4814	0.5952	0.3864
4.55	-9.4597	-0.3747	-1.7479	-0.0183	-0.0018	-0.0022	-5.2004	-18.2173	4.4158	0.5145	-0.4814	0.5952	0.3865
4.56	-9.4653	-0.3692	-1.7584	-0.0115	-0.0025	-0.0029	-4.9298	-18.1084	4.3893	0.5144	-0.4814	0.5951	0.3865
4.57	-9.4590	-0.3560	-1.7560	-0.0097	0.0024	-0.0043	-5.0668	-18.3723	4.5162	0.5145	-0.4814	0.5952	0.3865
4.58	-9.4563	-0.3392	-1.7493	-0.0115	0.0017	-0.0007	-5.0138	-18.4373	4.4780	0.5145	-0.4814	0.5951	0.3865
4.59	-9.4745	-0.3350	-1.7499	-0.0121	-0.0022	-0.0010	-4.8665	-18.1685	4.2917	0.5145	-0.4815	0.5952	0.3865
4.6	-9.4603	-0.3482	-1.7336	-0.0131	-0.0117	0.0005	-4.8934	-18.2332	4.4357	0.5145	-0.4814	0.5951	0.3865
4.61	-9.4621	-0.3487	-1.7351	-0.0107	-0.0018	-0.0070	-4.8447	-18.3057	4.3632	0.5145	-0.4814	0.5951	0.3865
4.62	-9.4600	-0.3611	-1.7366	-0.0157	-0.0074	0.0026	-4.7866	-18.2739	4.3521	0.5145	-0.4814	0.5951	0.3865
4.63	-9.4633	-0.3632	-1.7436	-0.0148	-0.0014	-0.0038	-4.7852	-18.3699	4.4625	0.5145	-0.4814	0.5950	0.3865
4.64	-9.4672	-0.3583	-1.7408	-0.0141	0.0006	0.0016	-4.9046	-18.3826	4.1759	0.5145	-0.4815	0.5951	0.3866
4.65	-9.4722	-0.3632	-1.7452	-0.0125	-0.0072	0.0057	-4.9498	-18.2414	4.4298	0.5145	-0.4814	0.5950	0.3866
4.66	-9.4712	-0.3437	-1.7639	-0.0186	-0.0021	0.0015	-5.0224	-18.1896	4.3112	0.5145	-0.4814	0.5951	0.3867
4.67	-9.4545	-0.3445	-1.7523	-0.0134	-0.0035	0.0054	-5.0362	-18.3129	4.4123	0.5144	-0.4814	0.5950	0.3866
4.68	-9.4666	-0.3460	-1.7632	-0.0153	-0.0026	-0.0025	-4.9599	-18.2792	4.3908	0.5145	-0.4814	0.5950	0.3867
4.69	-9.4679	-0.3592	-1.7572	-0.0128	0.0014	0.0061	-4.9073	-18.3268	4.4631	0.5145	-0.4814	0.5950	0.3867
4.7	-9.4739	-0.3471	-1.7708	-0.0133	0.0005	0.0028	-4.8837	-18.1910	4.4979	0.5144	-0.4814	0.5950	0.3867
4.71	-9.4690	-0.3546	-1.7605	-0.0150	0.0004	-0.0027	-4.8518	-18.3329	4.5967	0.5144	-0.4814	0.5950	0.3867
4.72	-9.4778	-0.3507	-1.7769	-0.0176	0.0020	0.0023	-4.9671	-18.2239	4.5552	0.5144	-0.4814	0.5950	0.3867
4.73	-9.4550	-0.3637	-1.7694	-0.0214	0.0009	-0.0059	-5.0161	-18.0988	4.4501	0.5144	-0.4815	0.5950	0.3868
4.74	-9.4521	-0.3629	-1.7545	-0.0161	-0.0064	-0.0013	-4.9322	-18.1420	4.5328	0.5143	-0.4814	0.5949	0.3868
4.75	-9.4933	-0.3589	-1.8032	-0.0147	0.0016	0.0058	-5.0629	-18.1373	4.3236	0.5144	-0.4815	0.5950	0.3868
4.76	-9.4391	-0.3549	-1.7439	-0.0161	0.0033	-0.0043	-5.0365	-18.0977	4.5472	0.5143	-0.4815	0.5950	0.3868
4.77	-9.4619	-0.3468	-1.7785	-0.0139	-0.0056	0.0020	-4.7578	-18.0194	4.7456	0.5144	-0.4815	0.5950	0.3868
4.78	-9.4848	-0.3260	-1.8004	-0.0129	-0.0014	0.0025	-4.6182	-18.0527	4.4260	0.5143	-0.4815	0.5949	0.3868
4.79	-9.4491	-0.3153	-1.7504	-0.0130	-0.0079	0.0012	-4.7472	-18.2895	4.7038	0.5144	-0.4815	0.5949	0.3869
4.8	-9.4793	-0.3248	-1.7771	-0.0101	-0.0098	-0.0026	-4.6943	-18.3750	4.6885	0.5144	-0.4815	0.5949	0.3869
4.81	-9.4857	-0.3246	-1.7838	-0.0155	-0.0055	0.0029	-4.7865	-18.5711	4.4094	0.5144	-0.4814	0.5948	0.3869
4.82	-9.4493	-0.3382	-1.7558	-0.0162	-0.0088	0.0021	-4.9851	-18.2995	4.3256	0.5144	-0.4815	0.5949	0.3870
4.83	-9.4553	-0.3483	-1.7691	-0.0114	-0.0075	-0.0059	-4.8801	-18.2714	4.4929	0.5144	-0.4814	0.5948	0.3870
4.84	-9.4671	-0.3560	-1.7764	-0.0217	-0.0082	-0.0016	-4.9092	-18.4522	4.5130	0.5145	-0.4815	0.5949	0.3871
4.85	-9.4627	-0.3634	-1.7615	-0.0118	-0.0081	-0.0029	-4.9793	-18.4138	4.5969	0.5144	-0.4814	0.5947	0.3870
4.86	-9.4521	-0.3682	-1.7420	-0.0091	-0.0080	0.0038	-4.7995	-18.3522	4.6099	0.5145	-0.4814	0.5948	0.3871
4.87	-9.4576	-0.3720	-1.7448	-0.0124	-0.0087	0.0021	-4.9788	-18.2895	4.3981	0.5145	-0.4814	0.5948	0.3871
4.88	-9.4618	-0.3718	-1.7502	-0.0091	-0.0015	-0.0017	-5.0910	-17.9771	4.5065	0.5145	-0.4813	0.5947	0.3871
4.89	-9.4621	-0.3676	-1.7355	-0.0141	-0.0036	0.0016	-5.2351	-18.2406	4.4778	0.5145	-0.4814	0.5948	0.3871
4.9	-9.4564	-0.3576	-1.7359	-0.0054	-0.0044	-0.0033	-5.0884	-18.2744	4.5670	0.5145	-0.4813	0.5947	0.3871
4.91	-9.4594	-0.3445	-1.7352	-0.0091	-0.0023	0.0019	-5.0568	-18.2791	4.5427	0.5146	-0.4814	0.5948	0.3871
4.92	-9.4612	-0.3356	-1.7386	-0.0101	-0.0076	0.0015	-5.1334	-18.1888	4.4807	0.5145	-0.4813	0.5947	0.3871
4.93	-9.4655	-0.3242	-1.7368	-0.0217	-0.0033	-0.0018	-4.9942	-18.1777	4.6230	0.5145	-0.4813	0.5947	0.3872
4.94	-9.4602	-0.3140	-1.7152	-0.0116	-0.0063	-0.0030	-5.0363	-18.2028	4.4051	0.5146	-0.4813	0.5947	0.3872
4.95	-9.4694	-0.3283	-1.7211	-0.0188	-0.0042	-0.0034	-5.0569	-18.1229	4.4388	0.5145	-0.4813	0.5946	0.3872
4.96	-9.4642	-0.3323	-1.7191	-0.0188	0.0008	0.0022	-5.2404	-17.9958	4.2822	0.5145	-0.4814	0.5947	0.3872
4.97	-9.4516	-0.3391	-1.6956	-0.0087	-0.0063	-0.0026	-5.0930	-18.3083	4.5136	0.5145	-0.4814	0.5946	0.3872
4.98	-9.4608	-0.3417	-1.7105	-0.0105	-0.0028	-0.0028	-4.8217	-18.3568	4.4389	0.5146	-0.4814	0.5946	0.3872
4.99	-9.4571	-0.3435	-1.7008	-0.0097	0.0025	-0.0031	-4.9576	-18.3458	4.4414	0.5145	-0.4813	0.5946	0.3872
5	-9.4652	-0.3584	-1.7033	-0.0120	0.0024	-0.0085	-4.8358	-18.4384	4.2727	0.5146	-0.4814	0.5946	0.3872
5.01	-9.4628	-0.3700	-1.7126	-0.0065	0.0113	0.0031	-4.8742	-18.2863	4.3263	0.5145	-0.4814	0.5946	0.3872
5.02	-9.4609	-0.3739	-1.7170	-0.0113	0.0025	-0.0033	-5.0976	-18.2403	4.4699	0.5145	-0.4814	0.5947	0.3872
5.03	-9.4582	-0.3757	-1.7282	-0.0035	-0.0049	0.0006	-5.1079	-18.3863	4.3019	0.5145	-0.4814	0.5946	0.3871
5.04	-9.4597	-0.3805	-1.7277	-0.0101	-0.0000	0.0025	-4.8719	-18.5250	4.4755	0.5145	-0.4814	0.5947	0.3871
5.05	-9.4630	-0.3794	-1.7363	-0.0098	0.0009	-0.0054	-5.0353	-18.3777	4.3843	0.5146	-0.4814	0.5947	0.3871
5.06	-9.4628	-0.3788	-1.7483	-0.0090	-0.0028	0.0038	-4.9472	-18.5433	4.5284	0.5145	-0.4813	0.5946	0.3871
5.07	-9.4607	-0.3807	-1.7552	-0.0164	0.0068	-0.0033	-4.8484	-18.3960	4.5074	0.5146	-0.4814	0.5947	0.3871
5.08	-9.4567	-0.3872	-1.7501	-0.0143	0.0049	-0.0008	-5.1399	-18.1911	4.5111	0.5145	-0.4814	0.5947	0.3871
5.09	-9.4565	-0.4027	-1.7489	-0.0143	-0.0040	0.0024	-5.0210	-18.2006	4.4843	0.5145	-0.4814	0.5947	0.3872
5.1	-9.4587	-0.3935	-1.7593	-0.0186	-0.0040	-0.0016	-5.0435	-18.0925	4.6126	0.5145	-0.4814	0.5946	0.3871
5.11	-9.4597	-0.3841	-1.7786	-0.0147	-0.0035	-0.0044	-4.9863	-18.1155	4.4402	0.5145	-0.4814	0.5947	0.3872
5.12	-9.4628	-0.3871	-1.7769	-0.0202	0.0044	-0.0035	-4.9646	-18.2467	4.4480	0.5145	-0.4815	0.5946	0.3872
5.13	-9.4605	-0.3648	-1.7714	-0.0179	0.0046	0.0001	-5.0746	-18.3429	4.6086	0.5144	-0.4815	0.5946	0.3872
5.14	-9.4534	-0.3702	-1.7668	-0.0107	0.0004	-0.0008	-4.8901	-18.3688	4.5994	0.5145	-0.4815	0.5947	0.3872
5.15	-9.4642	-0.3722	-1.7616	-0.0181	-0.0019	0.0008	-5.0293	-18.1840	4.5841	0.5144	-0.4815	0.5946	0.3872
5.16	-9.4627	-0.3727	-1.7605	-0.0159	-0.0077	0.0033	-5.1598	-18.2489	4.6136	0.5144	-0.4815	0.5946	0.3873
5.17	-9.4605	-0.3665	-1.7564	-0.0066	-0.0024	0.0022	-4.9223	-18.3417	4.4899	0.5144	-0.4815	0.5946	0.3872
5.18	-9.4645	-0.3554	-1.7660	-0.0139	-0.0017	-0.0018	-5.0501	-18.3889	4.5437	0.5144	-0.4815	0.5946	0.3873
5.19	-9.4657	-0.3398	-1.7612	-0.0079	-0.0083	0.0037	-4.6842	-18.5652	4.4284	0.5144	-0.4815	0.5946	0.3873
5.2	-9.4558	-0.3256	-1.7622	-0.0094	-0.0055	0.0015	-4.8206	-18.4209	4.2699	0.5144	-0.4814	0.5946	0.3873
5.21	-9.4607	-0.3267	-1.7498	-0.0179	-0.0100	0.0023	-4.9883	-18.4296	4.6721	0.5145	-0.4814	0.5946	0.3873
5.22	-9.4630	-0.3295	-1.7607	-0.0197	-0.0106	0.0022	-4.9004	-18.3265	4.5284	0.5145	-0.4814	0.5946	0.3874
5.23	-9.4633	-0.3316	-1.7679	-0.0063	-0.0058	0.0014	-4.8377	-18.3552	4.3429	0.5145	-0.4814	0.5946	0.3874
5.24	-9.4495	-0.3305	-1.7323	-0.0171	0.0012	-0.0018	-4.9515	-18.3521	4.6514	0.5144	-0.4814	0.5945	0.3874
5.25	-9.4583	-0.3321	-1.7300	-0.0124	-0.0020	-0.0009	-4.8557	-18.2383	4.5273	0.5145	-0.4814	0.5946	0.3874
5.26	-9.4675	-0.3289	-1.7391	-0.0169	-0.0016	0.0013	-5.0006	-18.3057	4.4398	0.5145	-0.4814	0.5945	0.3874
5.27	-9.4579	-0.3237	-1.7407	-0.0150	0.0024	-0.0028	-4.8075	-18.1324	4.8002	0.5145	-0.4814	0.5946	0.3874
5.28	-9.4591	-0.3296	-1.7335	-0.0242	0.0005	-0.0008	-4.7735	-17.9874	4.7566	0.5144	-0.4815	0.5945	0.3874
5.29	-9.4633	-0.3163	-1.7433	-0.0231	-0.0030	-0.0061	-4.8719	-18.0866	4.6695	0.5144	-0.4815	0.5945	0.3875
5.3	-9.4621	-0.3119	-1.7499	-0.0135	0.0049	-0.0030	-4.7644	-18.1322	4.8452	0.5144	-0.4816	0.5945	0.3875
5.31	-9.4647	-0.3149	-1.7327	-0.0128	0.0008	0.0011	-4.7785	-18.1821	4.7036	0.5143	-0.4815	0.5944	0.3874
5.32	-9.4656	-0.3035	-1.7317	-0.0158	-0.0022	-0.0047	-5.1251	-18.2755	4.5301	0.5144	-0.4816	0.5945	0.3875
5.33	-9.4603	-0.3116	-1.7299	-0.0153	-0.0051	-0.0041	-4.9487	-18.3456	4.6674	0.5144	-0.4816	0.5944	0.3875
5.34	-9.4621	-0.3276	-1.7223	-0.0186	-0.0036	0.0048	-5.0579	-18.3117	4.8866	0.5144	-0.4816	0.5945	0.3876
5.35	-9.4592	-0.3441	-1.7040	-0.0154	-0.0068	0.0010	-4.9572	-18.4185	4.6668	0.5143	-0.4815	0.5944	0.3875
5.36	-9.4598	-0.3532	-1.7185	-0.0153	-0.0078	-0.0029	-4.6586	-18.3980	4.5608	0.5144	-0.4816	0.5944	0.3876
5.37	-9.4662	-0.3644	-1.7299	-0.0113	0.0054	0.0004	-4.7680	-18.2332	4.6552	0.5144	-0.4816	0.5944	0.3876
5.38	-9.4664	-0.3660	-1.7270	-0.0136	-0.0062	-0.0080	-4.9503	-18.3082	4.6925	0.5143	-0.4816	0.5943	0.3875
5.39	-9.4628	-0.3680	-1.7067	-0.0165	-0.0010	0.0060	-5.0664	-18.4377	4.5680	0.5144	-0.4816	0.5944	0.3876
5.4	-9.4527	-0.3614	-1.7227	-0.0090	0.0061	-0.0013	-4.7737	-18.3809	4.7548	0.5143	-0.4816	0.5944	0.3876
5.41	-9.4606	-0.3771	-1.7247	-0.0193	-0.0058	-0.0012	-4.8850	-18.2416	4.7329	0.5144	-0.4816	0.5944	0.3876
5.42	-9.4668	-0.3884	-1.7276	-0.0172	0.0018	0.0020	-4.8720	-18.2434	4.5481	0.5143	-0.4816	0.5943	0.3876
5.43	-9.4541	-0.3920	-1.7288	-0.0136	-0.0040	-0.0082	-4.8997	-18.3343	4.4225	0.5143	-0.4817	0.5944	0.3876
5.44	-9.4568	-0.3787	-1.7259	-0.0171	0.0027	0.0060	-4.9832	-18.1823	4.6862	0.5143	-0.4817	0.5944	0.3876
5.45	-9.4621	-0.3763	-1.7482	-0.0087	0.0081	-0.0006	-4.9585	-18.4042	4.6675	0.5142	-0.4816	0.5944	0.3876
5.46	-9.4612	-0.3738	-1.7488	-0.0112	0.0102	-0.0045	-4.9633	-18.4210	4.7756	0.5143	-0.4817	0.5944	0.3876
5.47	-9.4623	-0.3685	-1.7443	-0.0165	0.0050	-0.0020	-4.9754	-18.3940	4.5140	0.5142	-0.4817	0.5944	0.3875
5.48	-9.4614	-0.3626	-1.7351	-0.0156	0.0057	-0.0029	-4.9072	-18.4349	4.7001	0.5142	-0.4817	0.5945	0.3875
5.49	-9.4576	-0.3611	-1.7343	-0.0137	0.0003	-0.0007	-4.8638	-18.3109	4.5838	0.5141	-0.4817	0.5944	0.3875
5.5	-9.4572	-0.3692	-1.7472	-0.0130	-0.0046	-0.0039	-4.9886	-18.2464	4.5921	0.5142	-0.4817	0.5945	0.3875
5.51	-9.4615	-0.3740	-1.7521	-0.0135	0.0027	0.0020	-5.0985	-18.3665	4.5727	0.5142	-0.4817	0.5944	0.3875
5.52	-9.4599	-0.3731	-1.7578	-0.0182	-0.0052	0.0010	-5.0965	-18.2602	4.6213	0.5142	-0.4818	0.5944	0.3876
5.53	-9.4580	-0.3682	-1.7535	-0.0183	-0.0023	0.0032	-4.9059	-18.2145	4.3693	0.5141	-0.4817	0.5944	0.3876
5.54	-9.4562	-0.3677	-1.7533	-0.0100	-0.0033	0.0021	-4.7934	-18.2956	4.3515	0.5141	-0.4817	0.5944	0.3876
5.55	-9.4578	-0.3658	-1.7615	-0.0187	-0.0027	0.0019	-4.7503	-18.4666	4.6385	0.5142	-0.4817	0.5944	0.3876
5.56	-9.4593	-0.3596	-1.7663	-0.0181	-0.0014	0.0016	-4.6985	-18.2341	4.4926	0.5141	-0.4817	0.5944	0.3876
5.57	-9.4592	-0.3571	-1.7525	-0.0181	-0.0027	-0.0006	-4.9100	-18.2234	4.5024	0.5141	-0.4818	0.5944	0.3877
5.58	-9.4610	-0.3468	-1.7507	-0.0159	-0.0054	0.0030	-4.7493	-18.2833	4.6518	0.5141	-0.4817	0.5944	0.3877
5.59	-9.4627	-0.3514	-1.7536	-0.0191	-0.0093	-0.0004	-4.8769	-18.1221	4.4334	0.5141	-0.4818	0.5944	0.3878
5.6	-9.4582	-0.3467	-1.7701	-0.0193	-0.0045	-0.0018	-4.9469	-18.3651	4.3871	0.5141	-0.4817	0.5943	0.3878
5.61	-9.4625	-0.3500	-1.7643	-0.0133	-0.0071	-0.0026	-5.0919	-18.5854	4.6853	0.5141	-0.4818	0.5943	0.3878
5.62	-9.4582	-0.3492	-1.7607	-0.0133	-0.0033	-0.0015	-4.7890	-18.1474	4.6307	0.5141	-0.4818	0.5943	0.3878
5.63	-9.4529	-0.3552	-1.7523	-0.0151	-0.0043	-0.0015	-4.9433	-18.4351	4.5026	0.5141	-0.4817	0.5943	0.3878
5.64	-9.4614	-0.3513	-1.7552	-0.0149	0.0010	-0.0019	-5.0509	-18.3095	4.4875	0.5141	-0.4818	0.5943	0.3878
5.65	-9.4619	-0.3456	-1.7522	-0.0143	0.0040	0.0024	-4.8123	-18.3341	4.6753	0.5141	-0.4818	0.5943	0.3878
5.66	-9.4582	-0.3479	-1.7446	-0.0142	-0.0021	-0.0012	-4.9717	-18.2934	4.6160	0.5141	-0.4818	0.5943	0.3878
5.67	-9.4526	-0.3351	-1.7440	-0.0053	0.0024	-0.0028	-4.9594	-18.1033	4.5608	0.5140	-0.4818	0.5943	0.3878
5.68	-9.4571	-0.3288	-1.7319	-0.0170	-0.0030	-0.0067	-4.9634	-18.4553	4.7180	0.5141	-0.4818	0.5943	0.3878
5.69	-9.4651	-0.3332	-1.7418	-0.0127	0.0011	-0.0004	-5.1264	-18.2465	4.4637	0.5141	-0.4818	0.5943	0.3878
5.7	-9.4627	-0.3277	-1.7438	-0.0140	-0.0003	-0.0001	-5.0568	-18.1845	4.5959	0.5140	-0.4818	0.5943	0.3878
5.71	-9.4467	-0.3315	-1.7252	-0.0107	-0.0036	0.0015	-4.9582	-18.3701	4.5589	0.5141	-0.4818	0.5943	0.3878
5.72	-9.4675	-0.3413	-1.7341	-0.0079	-0.0064	0.0018	-4.8221	-18.1780	4.7895	0.5141	-0.4818	0.5943	0.3878
5.73	-9.4697	-0.3375	-1.7460	-0.0061	-0.0025	-0.0036	-4.8452	-18.3275	4.5959	0.5141	-0.4818	0.5943	0.3878
5.74	-9.4581	-0.3459	-1.7353	-0.0097	-0.0062	-0.0067	-4.9533	-18.3259	4.3630	0.5141	-0.4818	0.5942	0.3878
5.75	-9.4798	-0.3430	-1.7377	-0.0100	-0.0019	-0.0069	-4.9962	-18.2263	4.6473	0.5141	-0.4818	0.5943	0.3878
5.76	-9.4618	-0.3402	-1.7252	-0.0076	-0.0090	-0.0066	-4.8611	-18.4121	4.5523	0.5142	-0.4818	0.5942	0.3878
5.77	-9.4538	-0.3377	-1.7143	-0.0108	-0.0002	-0.0071	-4.5355	-18.3423	4.6802	0.5142	-0.4818	0.5942	0.3877
5.78	-9.4696	-0.3342	-1.7167	-0.0129	-0.0047	-0.0015	-4.6406	-18.2166	4.6950	0.5142	-0.4818	0.5942	0.3877
5.79	-9.4679	-0.3310	-1.7120	-0.0119	-0.0009	-0.0012	-4.8172	-18.3113	4.6515	0.5142	-0.4818	0.5942	0.3877
5.8	-9.4685	-0.3305	-1.7258	-0.0091	-0.0018	0.0014	-4.7147	-18.1318	4.4942	0.5142	-0.4818	0.5942	0.3877
5.81	-9.4748	-0.3439	-1.7332	-0.0093	-0.0066	0.0016	-4.8543	-18.1313	4.5205	0.5142	-0.4818	0.5942	0.3877
5.82	-9.4466	-0.3545	-1.7271	-0.0130	-0.0063	0.0011	-5.0467	-18.2254	4.4961	0.5142	-0.4818	0.5942	0.3878
5.83	-9.4566	-0.3548	-1.7488	-0.0154	0.0007	0.0001	-5.1788	-18.1684	4.6776	0.5142	-0.4818	0.5942	0.3878
5.84	-9.4730	-0.3477	-1.7550	-0.0073	-0.0017	-0.0020	-5.0825	-18.0674	4.6624	0.5142	-0.4819	0.5943	0.3878
5.85	-9.4668	-0.3371	-1.7494	-0.0136	-0.0009	-0.0065	-4.9151	-18.3219	4.7286	0.5142	-0.4818	0.5942	0.3877
5.86	-9.4634	-0.3372	-1.7463	-0.0174	-0.0029	-0.0086	-4.8439	-18.2243	4.6109	0.5142	-0.4819	0.5942	0.3878
5.87	-9.4629	-0.3442	-1.7443	-0.0180	-0.0014	-0.0031	-5.0798	-18.2370	4.5236	0.5142	-0.4819	0.5942	0.3878
5.88	-9.4615	-0.3575	-1.7472	-0.0124	-0.0048	-0.0096	-5.0446	-18.3026	4.6523	0.5142	-0.4819	0.5941	0.3877
5.89	-9.4681	-0.3595	-1.7552	-0.0148	0.0010	-0.0042	-5.0001	-18.2728	4.3697	0.5142	-0.4820	0.5942	0.3878
5.9	-9.4629	-0.3744	-1.7541	-0.0111	-0.0057	0.0022	-5.1677	-18.1529	4.7386	0.5142	-0.4819	0.5941	0.3878
5.91	-9.4650	-0.3729	-1.7686	-0.0075	0.0035	0.0016	-5.1784	-18.3294	4.5375	0.5142	-0.4820	0.5942	0.3878
5.92	-9.4704	-0.3682	-1.7684	-0.0078	0.0014	-0.0004	-4.8026	-18.4522	4.5041	0.5142	-0.4819	0.5941	0.3877
5.93	-9.4639	-0.3570	-1.7575	-0.0113	-0.0026	-0.0016	-4.9230	-18.4512	4.5346	0.5142	-0.4819	0.5942	0.3877
5.94	-9.4610	-0.3517	-1.7511	-0.0121	-0.0001	-0.0083	-5.0198	-18.4094	4.5012	0.5142	-0.4819	0.5941	0.3877
5.95	-9.4648	-0.3728	-1.7602	-0.0174	-0.0044	0.0029	-4.8401	-18.2757	4.5346	0.5142	-0.4819	0.5941	0.3877
5.96	-9.4598	-0.3749	-1.7546	-0.0096	-0.0006	-0.0061	-4.8576	-18.3444	4.4971	0.5142	-0.4820	0.5941	0.3877
5.97	-9.4643	-0.3738	-1.7605	-0.0097	0.0007	-0.0024	-4.8723	-18.2925	4.2924	0.5142	-0.4820	0.5941	0.3877
5.98	-9.4656	-0.3810	-1.7534	-0.0141	-0.0098	-0.0015	-4.9905	-18.3916	4.4023	0.5142	-0.4820	0.5941	0.3877
5.99	-9.4635	-0.3676	-1.7464	-0.0135	-0.0003	-0.0084	-5.1250	-18.2913	4.5196	0.5142	-0.4820	0.5940	0.3877
6	-9.4646	-0.3585	-1.7526	-0.0119	-0.0091	0.0008	-4.9637	-18.2406	4.6063	0.5143	-0.4820	0.5941	0.3877
6.01	-9.4561	-0.3601	-1.7549	-0.0067	-0.0050	-0.0095	-4.9904	-18.2325	4.4599	0.5143	-0.4820	0.5940	0.3877
6.02	-9.4514	-0.3697	-1.7419	-0.0100	-0.0064	-0.0029	-5.2218	-18.2949	4.6049	0.5143	-0.4820	0.5940	0.3877
6.03	-9.4684	-0.3640	-1.7458	-0.0037	0.0018	-0.0032	-5.0855	-18.2974	4.5857	0.5143	-0.4820	0.5940	0.3877
6.04	-9.4705	-0.3627	-1.7411	-0.0102	0.0044	-0.0101	-4.8746	-18.3354	4.7535	0.5143	-0.4820	0.5941	0.3876
6.05	-9.4605	-0.3624	-1.7402	-0.0072	0.0070	-0.0054	-4.8963	-17.9306	4.5505	0.5143	-0.4821	0.5941	0.3876
6.06	-9.4617	-0.3642	-1.7409	-0.0035	-0.0038	-0.0016	-5.0238	-18.3056	4.4746	0.5143	-0.4820	0.5940	0.3875
6.07	-9.4600	-0.3389	-1.7352	-0.0041	-0.0005	-0.0022	-5.1223	-18.2723	4.7451	0.5144	-0.4820	0.5941	0.3875
6.08	-9.4589	-0.3380	-1.7440	-0.0096	0.0013	-0.0037	-5.0808	-18.1630	4.4676	0.5143	-0.4820	0.5941	0.3875
6.09	-9.4628	-0.3340	-1.7302	-0.0107	-0.0012	0.0062	-5.1347	-18.2706	4.4211	0.5144	-0.4821	0.5942	0.3875
6.1	-9.4680	-0.3535	-1.7381	-0.0055	0.0038	0.0042	-4.9154	-18.3663	4.8503	0.5143	-0.4820	0.5941	0.3874
6.11	-9.4646	-0.3664	-1.7217	-0.0114	0.0065	0.0003	-4.8810	-18.3677	4.7025	0.5143	-0.4820	0.5942	0.3875
6.12	-9.4618	-0.3634	-1.7314	-0.0166	0.0001	0.0008	-5.1098	-18.5208	4.5851	0.5143	-0.4820	0.5942	0.3875
6.13	-9.4585	-0.3619	-1.7273	-0.0163	0.0035	-0.0032	-4.8268	-18.5358	4.5575	0.5142	-0.4820	0.5942	0.3874
6.14	-9.4627	-0.3527	-1.7346	-0.0094	-0.0038	-0.0022	-4.8841	-18.4280	4.3968	0.5143	-0.4821	0.5943	0.3875
6.15	-9.4621	-0.3586	-1.7348	-0.0109	-0.0041	-0.0011	-4.9324	-18.1919	4.4583	0.5143	-0.4820	0.5942	0.3874
6.16	-9.4628	-0.3425	-1.7369	-0.0063	0.0018	-0.0008	-5.0004	-18.4545	4.5996	0.5143	-0.4820	0.5942	0.3874
6.17	-9.4647	-0.3447	-1.7439	-0.0125	0.0042	0.0002	-5.0318	-18.3539	4.6054	0.5142	-0.4820	0.5942	0.3874
6.18	-9.4652	-0.3471	-1.7310	-0.0063	-0.0014	-0.0024	-4.9212	-18.2841	4.6018	0.5143	-0.4820	0.5942	0.3874
6.19	-9.4821	-0.3487	-1.7470	-0.0056	0.0030	0.0056	-5.0887	-18.3770	4.4229	0.5142	-0.4820	0.5943	0.3874
6.2	-9.4574	-0.3342	-1.7479	-0.0160	-0.0021	-0.0024	-4.8428	-18.1157	4.4888	0.5142	-0.4820	0.5943	0.3874
6.21	-9.4526	-0.3354	-1.7418	-0.0134	0.0045	-0.0041	-4.9557	-17.9236	4.6131	0.5142	-0.4821	0.5943	0.3874
6.22	-9.4637	-0.3280	-1.7570	-0.0065	0.0029	-0.0055	-5.1655	-18.1043	4.4510	0.5142	-0.4821	0.5943	0.3873
6.23	-9.4548	-0.3381	-1.7463	-0.0074	0.0029	-0.0055	-5.0071	-18.1026	4.5911	0.5142	-0.4821	0.5943	0.3873
6.24	-9.4591	-0.3354	-1.7408	-0.0059	-0.0036	-0.0034	-5.0498	-18.2076	4.5956	0.5142	-0.4820	0.5942	0.3872
6.25	-9.4731	-0.3228	-1.7579	-0.0070	0.0015	-0.0052	-4.9689	-18.1783	4.6047	0.5143	-0.4821	0.5943	0.3873
6.26	-9.4570	-0.3252	-1.7611	-0.0043	0.0008	-0.0065	-5.0041	-18.1018	4.7406	0.5143	-0.4821	0.5943	0.3872
6.27	-9.4546	-0.3276	-1.7519	-0.0071	0.0049	0.0018	-4.9417	-18.0851	4.8351	0.5143	-0.4821	0.5943	0.3872
6.28	-9.4679	-0.3378	-1.7599	-0.0070	-0.0028	-0.0067	-4.5820	-17.8053	4.9773	0.5143	-0.4821	0.5943	0.3871
6.29	-9.4681	-0.3445	-1.7683	-0.0024	0.0029	-0.0031	-4.7612	-18.1488	4.6837	0.5143	-0.4821	0.5943	0.3871
6.3	-9.4636	-0.3417	-1.7600	-0.0024	-0.0053	0.0011	-4.8389	-18.2735	4.6890	0.5143	-0.4821	0.5944	0.3871
6.31	-9.4550	-0.3575	-1.7719	-0.0074	-0.0052	-0.0023	-4.7217	-18.3314	4.6003	0.5143	-0.4820	0.5943	0.3870
6.32	-9.4573	-0.3624	-1.7523	-0.0086	-0.0094	-0.0010	-4.8499	-18.2800	4.6041	0.5144	-0.4821	0.5944	0.3871
6.33	-9.4622	-0.3687	-1.7479	-0.0083	-0.0003	-0.0084	-5.0021	-18.3289	4.5729	0.5144	-0.4820	0.5943	0.3870
6.34	-9.4687	-0.3744	-1.7466	-0.0042	0.0015	-0.0033	-5.1716	-18.2083	4.6782	0.5144	-0.4821	0.5944	0.3870
6.35	-9.4627	-0.3700	-1.7573	-0.0066	-0.0049	-0.0046	-4.8439	-18.3168	4.5968	0.5144	-0.4820	0.5943	0.3870
6.36	-9.4772	-0.3695	-1.7703	-0.0123	0.0029	-0.0044	-4.8386	-18.2459	4.4914	0.5144	-0.4821	0.5944	0.3870
6.37	-9.4644	-0.3624	-1.7578	-0.0027	-0.0038	-0.0003	-5.0136	-18.2616	4.6894	0.5144	-0.4821	0.5944	0.3870
6.38	-9.4592	-0.3495	-1.7546	-0.0061	-0.0037	0.0027	-4.9514	-18.2548	4.6666	0.5144	-0.4820	0.5943	0.3869
6.39	-9.4706	-0.3611	-1.7630	-0.0076	-0.0004	-0.0016	-4.9717	-18.0936	4.7910	0.5145	-0.4821	0.5944	0.3870
6.4	-9.4628	-0.3592	-1.7593	-0.0136	-0.0007	0.0002	-4.9943	-18.2978	4.7383	0.5144	-0.4820	0.5944	0.3869
6.41	-9.4602	-0.3614	-1.7343	-0.0140	-0.0036	-0.0002	-4.8800	-18.2856	4.6164	0.5144	-0.4821	0.5944	0.3870
6.42	-9.4638	-0.3636	-1.7467	-0.0056	-0.0011	-0.0016	-4.9801	-18.3082	4.4945	0.5144	-0.4820	0.5944	0.3869
6.43	-9.4660	-0.3633	-1.7273	-0.0098	0.0041	-0.0051	-4.9255	-18.3758	4.6337	0.5144	-0.4821	0.5944	0.3869
6.44	-9.4628	-0.3665	-1.7197	-0.0153	-0.0000	-0.0020	-4.9231	-18.2598	4.5567	0.5144	-0.4821	0.5944	0.3869
6.45	-9.4625	-0.3743	-1.7193	-0.0072	-0.0046	0.0001	-4.9681	-18.3326	4.7070	0.5144	-0.4820	0.5944	0.3869
6.46	-9.4695	-0.3696	-1.7156	-0.0195	-0.0085	0.0028	-5.0745	-18.1746	4.5551	0.5144	-0.4821	0.5944	0.3869
6.47	-9.4708	-0.3677	-1.7234	-0.0094	-0.0041	0.0033	-5.0968	-18.2775	4.5231	0.5144	-0.4820	0.5944	0.3869
6.48	-9.4641	-0.3442	-1.7291	-0.0078	-0.0025	-0.0040	-4.8635	-18.2553	4.6269	0.5144	-0.4821	0.5944	0.3869
6.49	-9.4626	-0.3458	-1.7264	-0.0033	-0.0025	-0.0029	-4.8918	-18.1699	4.5728	0.5144	-0.4820	0.5944	0.3869
6.5	-9.4674	-0.3484	-1.7294	-0.0069	-0.0030	0.0015	-4.8958	-18.4567	4.7208	0.5145	-0.4820	0.5945	0.3869
6.51	-9.4632	-0.3527	-1.7343	-0.0106	0.0030	0.0005	-4.8604	-18.4252	4.6688	0.5144	-0.4820	0.5945	0.3868
6.52	-9.4621	-0.3577	-1.7212	-0.0083	-0.0007	0.0005	-4.9838	-18.3049	4.7100	0.5145	-0.4820	0.5945	0.3868
6.53	-9.4618	-0.3523	-1.7368	-0.0097	0.0010	-0.0041	-4.8581	-18.2785	4.5735	0.5144	-0.4820	0.5945	0.3868
6.54	-9.4646	-0.3398	-1.7409	-0.0079	0.0002	-0.0052	-4.8271	-18.2073	4.5030	0.5144	-0.4820	0.5945	0.3868
6.55	-9.4607	-0.3433	-1.7378	-0.0182	-0.0065	-0.0085	-5.0567	-18.1963	4.6854	0.5145	-0.4821	0.5945	0.3868
6.56	-9.4613	-0.3445	-1.7421	-0.0130	-0.0030	-0.0009	-4.7630	-18.3055	4.6784	0.5144	-0.4820	0.5944	0.3868
6.57	-9.4616	-0.3311	-1.7475	-0.0089	-0.0015	-0.0018	-5.0293	-18.2712	4.6983	0.5145	-0.4821	0.5945	0.3868
6.58	-9.4618	-0.3329	-1.7450	-0.0120	-0.0013	-0.0033	-5.0321	-18.2342	4.6404	0.5144	-0.4821	0.5944	0.3868
6.59	-9.4650	-0.3567	-1.7305	-0.0169	-0.0005	-0.0024	-4.8787	-18.3269	4.5641	0.5145	-0.4821	0.5945	0.3868
6.6	-9.4624	-0.3640	-1.7437	-0.0078	-0.0040	-0.0027	-4.8841	-18.2771	4.7126	0.5144	-0.4821	0.5944	0.3868
6.61	-9.4640	-0.3672	-1.7514	-0.0121	0.0047	-0.0074	-5.1091	-18.3088	4.5378	0.5144	-0.4821	0.5944	0.3867
6.62	-9.4596	-0.3652	-1.7504	-0.0141	-0.0027	-0.0019	-5.1160	-18.3138	4.6828	0.5144	-0.4821	0.5944	0.3868
6.63	-9.4581	-0.3557	-1.7572	-0.0123	-0.0052	-0.0042	-4.8836	-18.5067	4.6206	0.5144	-0.4821	0.5944	0.3867
6.64	-9.4641	-0.3425	-1.7619	-0.0108	0.0055	-0.0017	-4.7848	-18.3140	4.4963	0.5145	-0.4822	0.5945	0.3868
6.65	-9.4648	-0.3380	-1.7534	-0.0066	-0.0026	0.0033	-5.0842	-18.2229	4.5020	0.5144	-0.4821	0.5944	0.3867
6.66	-9.4682	-0.3347	-1.7573	-0.0097	-0.0041	-0.0024	-5.1231	-18.3371	4.5492	0.5145	-0.4822	0.5945	0.3867
6.67	-9.4628	-0.3300	-1.7648	-0.0092	-0.0000	0.0021	-4.7745	-18.2643	4.7196	0.5144	-0.4821	0.5944	0.3867
6.68	-9.4581	-0.3329	-1.7486	-0.0130	-0.0041	-0.0016	-4.7243	-18.4223	4.5498	0.5144	-0.4821	0.5945	0.3867
6.69	-9.4616	-0.3450	-1.7532	-0.0138	-0.0082	-0.0054	-5.0154	-18.3150	4.5054	0.5144	-0.4821	0.5944	0.3867
6.7	-9.4633	-0.3506	-1.7599	-0.0168	-0.0033	-0.0004	-4.8094	-18.2809	4.4984	0.5144	-0.4821	0.5944	0.3867
6.71	-9.4700	-0.3548	-1.7553	-0.0118	-0.0073	-0.0020	-4.7183	-18.3829	4.6281	0.5145	-0.4822	0.5944	0.3868
6.72	-9.4552	-0.3374	-1.7527	-0.0051	-0.0082	0.0029	-4.9504	-18.3797	4.5629	0.5145	-0.4821	0.5944	0.3867
6.73	-9.4543	-0.3301	-1.7454	-0.0109	-0.0130	-0.0041	-4.7951	-18.1693	4.4841	0.5145	-0.4821	0.5944	0.3868
6.74	-9.4777	-0.3310	-1.7594	-0.0119	-0.0025	0.0015	-4.8663	-18.4004	4.5331	0.5145	-0.4821	0.5943	0.3867
6.75	-9.4697	-0.3238	-1.7477	-0.0127	-0.0078	-0.0016	-5.0134	-18.3415	4.4854	0.5145	-0.4821	0.5944	0.3868
6.76	-9.4607	-0.3145	-1.7436	-0.0193	-0.0069	-0.0055	-4.8649	-18.3230	4.5690	0.5145	-0.4821	0.5943	0.3868
6.77	-9.4623	-0.3253	-1.7537	-0.0181	0.0023	-0.0044	-4.5365	-18.1041	4.8805	0.5145	-0.4822	0.5943	0.3868
6.78	-9.4644	-0.3297	-1.7368	-0.0164	-0.0118	-0.0072	-4.6709	-17.8310	4.8354	0.5145	-0.4822	0.5942	0.3868
6.79	-9.4617	-0.3245	-1.7291	-0.0164	0.0025	-0.0039	-4.9276	-18.0159	4.8044	0.5145	-0.4822	0.5942	0.3868
6.8	-9.4595	-0.3340	-1.7388	-0.0172	0.0067	-0.0052	-5.0290	-18.1640	4.8342	0.5145	-0.4823	0.5943	0.3868
6.81	-9.4546	-0.3355	-1.7395	-0.0122	0.0050	-0.0029	-5.0147	-18.2535	4.5799	0.5144	-0.4823	0.5942	0.3868
6.82	-9.4538	-0.3312	-1.7322	-0.0083	-0.0046	-0.0008	-5.0083	-18.2220	4.5012	0.5145	-0.4823	0.5943	0.3868
6.83	-9.4620	-0.3310	-1.7347	-0.0163	0.0001	-0.0058	-5.1205	-18.1702	4.5071	0.5144	-0.4823	0.5942	0.3868
6.84	-9.4645	-0.3295	-1.7312	-0.0055	0.0036	-0.0046	-5.0115	-18.1467	4.5098	0.5145	-0.4824	0.5943	0.3868
6.85	-9.4766	-0.3204	-1.7426	-0.0031	0.0005	-0.0033	-4.9306	-18.4210	4.5120	0.5144	-0.4823	0.5943	0.3867
6.86	-9.4673	-0.3090	-1.7355	-0.0099	0.0004	-0.0015	-4.6735	-18.3273	4.5303	0.5145	-0.4823	0.5943	0.3867
6.87	-9.4557	-0.3100	-1.7335	-0.0085	-0.0020	-0.0049	-4.9292	-18.2916	4.4906	0.5145	-0.4823	0.5943	0.3867
6.88	-9.4716	-0.3059	-1.7457	-0.0102	0.0039	-0.0082	-5.0476	-18.5718	4.6089	0.5144	-0.4823	0.5943	0.3866
6.89	-9.4681	-0.3122	-1.7458	-0.0173	0.0033	-0.0020	-4.8802	-18.4260	4.5999	0.5145	-0.4824	0.5944	0.3866
6.9	-9.4736	-0.3191	-1.7626	-0.0201	-0.0031	-0.0038	-5.0930	-18.3710	4.6126	0.5144	-0.4824	0.5943	0.3866
6.91	-9.4608	-0.3306	-1.7513	-0.0169	-0.0037	-0.0044	-5.0227	-18.3726	4.3272	0.5145	-0.4825	0.5943	0.3866
6.92	-9.4405	-0.3357	-1.7365	-0.0135	-0.0024	-0.0014	-4.9106	-18.3948	4.4444	0.5144	-0.4824	0.5942	0.3866
6.93	-9.4729	-0.3400	-1.7691	-0.0153	-0.0002	-0.0062	-4.9154	-18.2285	4.4967	0.5144	-0.4825	0.5943	0.3866
6.94	-9.4635	-0.3414	-1.7555	-0.0065	-0.0019	0.0010	-4.9472	-18.2563	4.4313	0.5144	-0.4825	0.5943	0.3866
6.95	-9.4533	-0.3560	-1.7608	-0.0158	0.0032	-0.0046	-5.0946	-18.3023	4.6126	0.5144	-0.4825	0.5942	0.3866
6.96	-9.4613	-0.3622	-1.7604	-0.0150	0.0032	0.0005	-5.0820	-18.3138	4.6067	0.5144	-0.4825	0.5943	0.3866
6.97	-9.4694	-0.3758	-1.7583	-0.0090	-0.0031	-0.0080	-4.9640	-18.2354	4.5550	0.5144	-0.4825	0.5943	0.3866
6.98	-9.4498	-0.3844	-1.7510	-0.0198	-0.0022	-0.0060	-5.0691	-18.0743	4.3152	0.5144	-0.4826	0.5942	0.3866
6.99	-9.4465	-0.3815	-1.7371	-0.0037	0.0023	-0.0056	-5.0872	-18.2350	4.7246	0.5143	-0.4825	0.5942	0.3865
7	-9.4681	-0.3754	-1.7463	-0.0126	0.0026	-0.0070	-5.0964	-18.2088	4.6514	0.5144	-0.4826	0.5943	0.3865
7.01	-9.4603	-0.3615	-1.7456	-0.0236	-0.0050	-0.0017	-4.9094	-18.0506	4.5784	0.5143	-0.4826	0.5942	0.3865
7.02	-9.4587	-0.3463	-1.7403	-0.0111	0.0005	-0.0026	-5.0145	-18.0994	4.5974	0.5143	-0.4827	0.5942	0.3865
7.03	-9.4714	-0.3437	-1.7456	-0.0112	-0.0029	-0.0038	-4.9050	-18.2274	4.6041	0.5143	-0.4827	0.5942	0.3865
7.04	-9.4636	-0.3686	-1.7405	-0.0132	0.0001	-0.0054	-4.7352	-18.3198	4.5864	0.5143	-0.4827	0.5942	0.3865
7.05	-9.4627	-0.3752	-1.7460	-0.0162	-0.0027	-0.0038	-4.7500	-18.4206	4.4744	0.5143	-0.4827	0.5942	0.3865
7.06	-9.4626	-0.4026	-1.7550	-0.0251	-0.0001	-0.0062	-4.8506	-18.5648	4.6375	0.5143	-0.4827	0.5941	0.3865
7.07	-9.4654	-0.4642	-1.7643	-0.0194	-0.0026	-0.0022	-4.8137	-18.3163	4.4776	0.5143	-0.4828	0.5942	0.3866
7.08	-9.4444	-0.4981	-1.7328	-0.0134	-0.0043	0.0004	-4.7734	-18.3123	4.2836	0.5143	-0.4828	0.5941	0.3866
7.09	-9.4163	-0.4863	-1.7132	-0.0106	-0.0066	-0.0035	-4.8691	-18.4115	4.6763	0.5143	-0.4828	0.5942	0.3866
7.1	-9.4856	-0.4718	-1.7624	-0.0040	0.0031	-0.0008	-4.8278	-18.3323	4.2824	0.5143	-0.4828	0.5941	0.3865
7.11	-9.4649	-0.4238	-1.7315	-0.0034	-0.0014	0.0004	-4.8219	-18.5388	4.3110	0.5143	-0.4828	0.5942	0.3865
7.12	-9.4329	-0.3794	-1.7030	-0.0044	-0.0083	0.0017	-4.8977	-18.2832	4.6498	0.5143	-0.4827	0.5942	0.3865
7.13	-9.5008	-0.3600	-1.7512	-0.0068	0.0003	-0.0028	-4.9241	-18.1651	4.5173	0.5143	-0.4827	0.5942	0.3865
7.14	-9.4908	-0.3999	-1.7439	-0.0033	0.0096	-0.0042	-5.0110	-18.3350	4.3873	0.5144	-0.4828	0.5943	0.3865
7.15	-9.4122	-0.4130	-1.6920	-0.0049	0.0124	-0.0013	-5.2411	-18.1314	4.4915	0.5143	-0.4828	0.5943	0.3864
7.16	-9.4654	-0.4262	-1.7364	-0.0057	0.0070	-0.0027	-5.2249	-17.9453	4.6394	0.5143	-0.4828	0.5943	0.3863
7.17	-9.4908	-0.4377	-1.7446	-0.0014	0.0041	-0.0052	-4.9593	-18.1245	4.4809	0.5142	-0.4827	0.5943	0.3862
7.18	-9.4539	-0.4375	-1.7074	-0.0073	0.0029	-0.0031	-5.0529	-18.2512	4.5212	0.5143	-0.4828	0.5944	0.3862
7.19	-9.4357	-0.4310	-1.6951	-0.0056	0.0018	-0.0004	-5.0464	-18.3207	4.3447	0.5143	-0.4828	0.5944	0.3862
7.2	-9.4534	-0.3965	-1.7098	-0.0002	0.0055	-0.0033	-5.2413	-18.2245	4.6111	0.5143	-0.4828	0.5944	0.3861
7.21	-9.4819	-0.3829	-1.7281	-0.0068	0.0065	0.0003	-5.2340	-18.2066	4.5650	0.5143	-0.4828	0.5945	0.3861
7.22	-9.4606	-0.3716	-1.6814	-0.0079	-0.0085	0.0039	-5.0438	-18.2333	4.5268	0.5143	-0.4828	0.5944	0.3861
7.23	-9.4476	-0.3702	-1.6985	-0.0072	0.0036	-0.0014	-4.8743	-18.5826	4.4069	0.5143	-0.4828	0.5945	0.3861
7.24	-9.4570	-0.3629	-1.7021	-0.0108	0.0058	-0.0022	-4.8146	-18.6640	4.3112	0.5142	-0.4827	0.5945	0.3860
7.25	-9.4651	-0.3793	-1.7181	-0.0161	0.0062	0.0012	-4.9335	-18.3690	4.4752	0.5142	-0.4828	0.5945	0.3861
7.26	-9.4636	-0.3870	-1.7125	-0.0069	0.0025	0.0034	-4.7983	-18.2819	4.7164	0.5142	-0.4828	0.5945	0.3860
7.27	-9.4737	-0.3788	-1.7350	-0.0109	0.0040	-0.0006	-4.6536	-18.2463	4.8214	0.5142	-0.4828	0.5946	0.3860
7.28	-9.4638	-0.3739	-1.7290	-0.0114	0.0040	0.0028	-4.4009	-18.0027	4.7349	0.5141	-0.4828	0.5946	0.3860
7.29	-9.4637	-0.3667	-1.7281	-0.0079	-0.0006	0.0032	-4.8748	-18.1130	4.8669	0.5141	-0.4828	0.5946	0.3860
7.3	-9.4643	-0.3429	-1.7406	-0.0134	0.0066	0.0019	-4.8680	-18.0819	4.6909	0.5141	-0.4828	0.5947	0.3860
7.31	-9.4717	-0.3248	-1.7556	-0.0076	0.0034	0.0064	-4.7989	-18.4275	4.6759	0.5140	-0.4828	0.5946	0.3860
7.32	-9.4635	-0.3147	-1.7615	-0.0069	-0.0026	0.0065	-4.9550	-18.4642	4.6544	0.5141	-0.4828	0.5948	0.3860
7.33	-9.4606	-0.2963	-1.7521	-0.0062	0.0087	-0.0032	-5.0874	-18.3456	4.6070	0.5141	-0.4828	0.5948	0.3859
7.34	-9.4644	-0.3010	-1.7500	-0.0050	0.0085	0.0004	-5.0504	-18.4207	4.6999	0.5141	-0.4828	0.5949	0.3859
7.35	-9.4717	-0.3137	-1.7508	-0.0141	0.0045	-0.0020	-5.0713	-18.2692	4.6798	0.5140	-0.4828	0.5948	0.3859
7.36	-9.4704	-0.3155	-1.7499	-0.0130	0.0046	-0.0022	-4.9399	-18.2257	4.3995	0.5140	-0.4828	0.5948	0.3859
7.37	-9.4570	-0.3192	-1.7495	-0.0117	0.0072	0.0046	-5.0235	-18.3307	4.5181	0.5139	-0.4828	0.5949	0.3858
7.38	-9.4678	-0.3163	-1.7788	-0.0107	0.0073	-0.0011	-5.1485	-18.2703	4.6130	0.5139	-0.4828	0.5949	0.3858
7.39	-9.4665	-0.3087	-1.7867	-0.0082	0.0064	-0.0037	-5.0513	-18.4245	4.5813	0.5139	-0.4829	0.5950	0.3858
7.4	-9.4601	-0.3216	-1.7742	-0.0084	-0.0048	-0.0055	-4.9255	-18.3238	4.4309	0.5139	-0.4829	0.5949	0.3858
7.41	-9.4613	-0.3325	-1.7885	-0.0103	-0.0035	-0.0030	-5.0722	-18.2989	4.4617	0.5139	-0.4829	0.5949	0.3858
7.42	-9.4593	-0.3251	-1.8035	-0.0072	-0.0022	0.0042	-4.9728	-18.2792	4.5199	0.5139	-0.4828	0.5949	0.3857
7.43	-9.4543	-0.3160	-1.7943	-0.0088	0.0033	-0.0011	-4.6854	-18.4327	4.4966	0.5139	-0.4829	0.5950	0.3857
7.44	-9.4650	-0.3214	-1.7921	-0.0139	-0.0005	-0.0034	-4.9110	-18.4224	4.5142	0.5139	-0.4829	0.5949	0.3857
7.45	-9.4637	-0.3346	-1.7635	-0.0100	-0.0098	-0.0056	-4.8763	-18.3530	4.4891	0.5139	-0.4829	0.5949	0.3857
7.46	-9.4723	-0.3547	-1.7546	-0.0032	-0.0062	-0.0012	-5.0027	-18.4805	4.6063	0.5140	-0.4829	0.5949	0.3857
7.47	-9.4649	-0.3575	-1.7521	-0.0103	-0.0061	-0.0034	-4.8356	-18.2135	4.5808	0.5140	-0.4829	0.5949	0.3857
7.48	-9.4546	-0.3387	-1.7347	-0.0116	-0.0048	0.0022	-5.0295	-18.2174	4.5949	0.5140	-0.4829	0.5949	0.3857
7.49	-9.4705	-0.3272	-1.7415	-0.0039	-0.0006	-0.0031	-5.0858	-18.2103	4.5031	0.5139	-0.4828	0.5949	0.3857
7.5	-9.4747	-0.3030	-1.7304	-0.0052	-0.0015	0.0034	-4.8369	-18.4118	4.4831	0.5140	-0.4828	0.5950	0.3857
7.51	-9.4623	-0.2926	-1.7345	-0.0129	-0.0027	-0.0014	-4.9618	-18.3532	4.5552	0.5140	-0.4828	0.5949	0.3857
7.52	-9.4781	-0.2852	-1.7359	-0.0171	-0.0026	-0.0039	-4.9847	-18.1875	4.5961	0.5140	-0.4829	0.5949	0.3857
7.53	-9.4553	-0.3205	-1.7339	-0.0143	-0.0002	-0.0053	-4.9785	-18.3364	4.5846	0.5139	-0.4829	0.5949	0.3857
7.54	-9.4538	-0.3621	-1.7368	-0.0282	-0.0071	-0.0092	-4.9766	-18.2290	4.5802	0.5139	-0.4829	0.5949	0.3857
7.55	-9.4717	-0.4017	-1.7414	-0.0248	-0.0020	-0.0021	-4.9871	-18.1159	4.6001	0.5139	-0.4830	0.5948	0.3858
7.56	-9.4506	-0.4373	-1.7373	-0.0210	-0.0050	-0.0008	-4.9587	-18.4195	4.5000	0.5139	-0.4830	0.5948	0.3857
7.57	-9.4433	-0.4663	-1.7356	-0.0274	0.0024	-0.0026	-5.0934	-18.2625	4.5011	0.5139	-0.4831	0.5948	0.3858
7.58	-9.4635	-0.4814	-1.7461	-0.0269	0.0012	-0.0009	-5.1434	-18.3389	4.6327	0.5138	-0.4831	0.5948	0.3858
7.59	-9.4585	-0.4858	-1.7360	-0.0138	-0.0055	0.0033	-5.1678	-18.2134	4.7471	0.5138	-0.4831	0.5948	0.3859
7.6	-9.4512	-0.4685	-1.7425	-0.0044	-0.0009	-0.0041	-4.9737	-18.3044	4.7758	0.5138	-0.4831	0.5948	0.3858
7.61	-9.4699	-0.4383	-1.7666	-0.0025	-0.0027	0.0037	-4.7679	-18.2837	4.5172	0.5138	-0.4831	0.5948	0.3858
7.62	-9.4552	-0.3927	-1.7530	-0.0019	0.0016	-0.0001	-4.7011	-18.3251	4.5064	0.5138	-0.4830	0.5949	0.3858
7.63	-9.4594	-0.3514	-1.7567	-0.0034	0.0007	0.0051	-4.8741	-18.4707	4.5091	0.5138	-0.4830	0.5949	0.3857
7.64	-9.4658	-0.3190	-1.7592	0.0047	-0.0029	0.0075	-5.0873	-18.4643	4.4100	0.5139	-0.4830	0.5950	0.3858
7.65	-9.4546	-0.2960	-1.7475	-0.0009	0.0008	0.0011	-5.1645	-18.3298	4.3963	0.5138	-0.4829	0.5950	0.3857
7.66	-9.4678	-0.2720	-1.7506	-0.0071	-0.0049	0.0031	-5.0599	-18.2797	4.4642	0.5139	-0.4829	0.5950	0.3857
7.67	-9.4657	-0.2782	-1.7531	-0.0136	0.0039	-0.0009	-5.0736	-18.3896	4.5999	0.5138	-0.4829	0.5950	0.3856
7.68	-9.4749	-0.2943	-1.7550	-0.0123	-0.0027	0.0007	-4.9209	-18.2769	4.5869	0.5138	-0.4829	0.5950	0.3857
7.69	-9.4636	-0.3228	-1.7520	-0.0083	0.0041	0.0017	-4.9420	-18.3085	4.5803	0.5138	-0.4829	0.5950	0.3857
7.7	-9.4568	-0.3346	-1.7605	-0.0158	0.0038	-0.0050	-4.9803	-18.2745	4.6081	0.5138	-0.4829	0.5950	0.3856
7.71	-9.4645	-0.3424	-1.7645	-0.0201	-0.0035	0.0016	-5.0775	-18.4960	4.4675	0.5138	-0.4830	0.5950	0.3857
7.72	-9.4596	-0.3480	-1.7647	-0.0147	0.0025	0.0014	-5.0081	-18.3145	4.5530	0.5137	-0.4830	0.5950	0.3857
7.73	-9.4650	-0.3618	-1.7663	-0.0144	0.0021	-0.0034	-4.8089	-18.3019	4.5879	0.5137	-0.4830	0.5951	0.3857
7.74	-9.4706	-0.3644	-1.7683	-0.0123	-0.0008	-0.0083	-4.8074	-18.2082	4.6144	0.5136	-0.4830	0.5950	0.3856
7.75	-9.4573	-0.3476	-1.7537	-0.0095	-0.0045	-0.0008	-4.9454	-18.3149	4.5256	0.5137	-0.4831	0.5950	0.3857
7.76	-9.4664	-0.3308	-1.7570	-0.0056	-0.0004	-0.0062	-4.9434	-18.1257	4.5911	0.5137	-0.4830	0.5950	0.3856
7.77	-9.4725	-0.3349	-1.7543	-0.0127	-0.0046	-0.0036	-4.6482	-18.1942	4.9318	0.5137	-0.4831	0.5950	0.3856
7.78	-9.4578	-0.3403	-1.7352	-0.0112	-0.0025	-0.0026	-4.6713	-18.2123	4.6296	0.5137	-0.4831	0.5950	0.3856
7.79	-9.4794	-0.3306	-1.7363	-0.0056	-0.0063	-0.0011	-4.5329	-18.3491	4.6025	0.5137	-0.4830	0.5950	0.3856
7.8	-9.4711	-0.3130	-1.7351	-0.0101	-0.0089	0.0004	-4.5830	-18.3699	4.5275	0.5138	-0.4830	0.5950	0.3856
7.81	-9.4564	-0.3200	-1.7361	-0.0032	-0.0046	-0.0038	-4.7120	-18.4017	4.4494	0.5137	-0.4830	0.5950	0.3856
7.82	-9.4639	-0.3198	-1.7258	-0.0088	-0.0039	-0.0045	-4.7800	-18.3257	4.3163	0.5138	-0.4831	0.5950	0.3856
7.83	-9.4587	-0.3244	-1.7111	-0.0067	-0.0097	-0.0059	-5.0481	-18.2791	4.3841	0.5138	-0.4830	0.5950	0.3856
7.84	-9.4603	-0.3370	-1.7061	-0.0089	-0.0026	-0.0072	-5.1222	-18.2266	4.4900	0.5139	-0.4831	0.5950	0.3856
7.85	-9.4665	-0.3437	-1.7158	-0.0118	0.0002	-0.0083	-5.0188	-18.0978	4.6298	0.5138	-0.4830	0.5949	0.3855
7.86	-9.4609	-0.3569	-1.7156	-0.0105	-0.0055	-0.0006	-4.7824	-18.3198	4.4491	0.5139	-0.4831	0.5950	0.3855
7.87	-9.4558	-0.3594	-1.7003	-0.0071	-0.0083	0.0031	-4.9847	-18.2503	4.2954	0.5139	-0.4830	0.5950	0.3855
7.88	-9.4651	-0.3583	-1.7223	-0.0110	-0.0068	-0.0023	-5.2884	-18.3084	4.4223	0.5139	-0.4830	0.5949	0.3855
7.89	-9.4620	-0.3533	-1.7147	-0.0171	-0.0045	-0.0060	-5.1575	-18.1670	4.5346	0.5139	-0.4831	0.5950	0.3856
7.9	-9.4456	-0.3490	-1.7160	-0.0180	-0.0069	-0.0036	-4.9262	-18.1033	4.4768	0.5139	-0.4831	0.5949	0.3856
7.91	-9.4591	-0.3495	-1.7322	-0.0149	-0.0038	-0.0003	-4.9986	-18.3193	4.3972	0.5139	-0.4831	0.5949	0.3856
7.92	-9.4656	-0.3433	-1.7443	-0.0179	-0.0005	-0.0017	-5.0134	-18.0877	4.5221	0.5138	-0.4831	0.5948	0.3856
7.93	-9.4574	-0.3465	-1.7397	-0.0196	0.0024	-0.0030	-5.1453	-18.1409	4.6213	0.5138	-0.4832	0.5949	0.3856
7.94	-9.4653	-0.3483	-1.7526	-0.0163	0.0002	-0.0031	-5.1441	-18.2175	4.3881	0.5138	-0.4832	0.5949	0.3856
7.95	-9.4741	-0.3539	-1.7666	-0.0200	0.0004	-0.0009	-4.7942	-18.1807	4.2985	0.5138	-0.4832	0.5948	0.3856
7.96	-9.4574	-0.3567	-1.7543	-0.0252	0.0016	-0.0038	-4.9959	-18.1928	4.5631	0.5137	-0.4833	0.5948	0.3857
7.97	-9.4612	-0.3589	-1.7818	-0.0146	0.0029	-0.0083	-4.9675	-18.3360	4.4739	0.5137	-0.4833	0.5948	0.3856
7.98	-9.4703	-0.3609	-1.7827	-0.0122	0.0034	-0.0037	-4.7655	-18.5458	4.4227	0.5137	-0.4833	0.5949	0.3856
7.99	-9.4599	-0.3632	-1.7817	-0.0208	-0.0009	-0.0071	-4.7496	-18.4277	4.4633	0.5136	-0.4833	0.5948	0.3856
8	-9.4613	-0.3670	-1.7721	-0.0120	-0.0022	-0.0033	-5.0091	-18.4455	4.2991	0.5137	-0.4834	0.5948	0.3856
8.01	-9.4657	-0.3742	-1.7853	-0.0256	-0.0093	-0.0064	-4.9350	-18.2788	4.4202	0.5137	-0.4834	0.5947	0.3856
8.02	-9.4687	-0.3816	-1.7774	-0.0173	-0.0062	-0.0035	-4.8124	-18.3270	4.3834	0.5137	-0.4835	0.5947	0.3857
8.03	-9.4563	-0.3860	-1.7741	-0.0178	-0.0019	-0.0053	-4.8734	-18.3856	4.2333	0.5136	-0.4835	0.5947	0.3857
8.04	-9.4614	-0.3815	-1.7708	-0.0170	-0.0084	-0.0003	-4.7208	-18.3085	4.4037	0.5137	-0.4835	0.5947	0.3857
8.05	-9.4596	-0.3844	-1.7618	-0.0171	-0.0034	-0.0022	-5.0274	-18.2714	4.4730	0.5137	-0.4835	0.5947	0.3857
8.06	-9.4606	-0.3792	-1.7542	-0.0113	-0.0068	-0.0042	-4.9376	-18.2690	4.6252	0.5136	-0.4835	0.5946	0.3857
8.07	-9.4606	-0.3611	-1.7517	-0.0125	-0.0028	0.0043	-4.8571	-18.2942	4.5900	0.5137	-0.4835	0.5947	0.3858
8.08	-9.4633	-0.3326	-1.7550	-0.0182	0.0033	-0.0048	-5.0994	-18.2267	4.4879	0.5136	-0.4835	0.5946	0.3857
8.09	-9.4588	-0.3298	-1.7451	-0.0126	-0.0056	0.0001	-5.1074	-18.2282	4.5412	0.5137	-0.4836	0.5947	0.3858
8.1	-9.4534	-0.3353	-1.7427	-0.0141	-0.0017	-0.0069	-5.0038	-18.4063	4.4094	0.5136	-0.4835	0.5946	0.3857
8.11	-9.4602	-0.3341	-1.7307	-0.0086	-0.0043	-0.0043	-5.0287	-18.0876	4.5660	0.5136	-0.4836	0.5946	0.3857
8.12	-9.4588	-0.3527	-1.7213	-0.0114	0.0003	-0.0052	-4.9902	-18.2048	4.4239	0.5136	-0.4836	0.5946	0.3857
8.13	-9.4684	-0.3475	-1.7203	-0.0102	-0.0060	-0.0031	-5.1111	-18.3896	4.5131	0.5136	-0.4836	0.5946	0.3857
8.14	-9.4606	-0.3437	-1.7103	-0.0147	-0.0048	-0.0104	-4.9826	-18.2570	4.5132	0.5137	-0.4837	0.5946	0.3857
8.15	-9.4587	-0.3442	-1.7009	-0.0247	-0.0091	0.0041	-5.0808	-18.1551	4.5352	0.5136	-0.4836	0.5945	0.3857
8.16	-9.4683	-0.3478	-1.7152	-0.0110	0.0042	0.0007	-5.0194	-18.3097	4.4337	0.5136	-0.4837	0.5946	0.3858
8.17	-9.4468	-0.3477	-1.7074	-0.0120	0.0059	-0.0024	-4.7215	-18.4728	4.5227	0.5135	-0.4836	0.5945	0.3857
8.18	-9.4613	-0.3536	-1.6968	-0.0094	0.0034	0.0023	-4.9241	-18.3004	4.6305	0.5136	-0.4837	0.5946	0.3857
8.19	-9.4680	-0.3473	-1.7151	-0.0093	0.0010	-0.0066	-4.7500	-18.2739	4.4331	0.5136	-0.4837	0.5946	0.3857
8.2	-9.4603	-0.3542	-1.7086	-0.0179	0.0022	-0.0003	-4.6433	-18.2557	4.4348	0.5135	-0.4837	0.5946	0.3857
8.21	-9.4631	-0.3513	-1.7086	-0.0151	0.0014	-0.0050	-4.9118	-18.2977	4.5199	0.5135	-0.4838	0.5946	0.3857
8.22	-9.4641	-0.3381	-1.7155	-0.0140	0.0062	0.0014	-4.6819	-18.3470	4.6681	0.5135	-0.4838	0.5946	0.3857
8.23	-9.4632	-0.3418	-1.7269	-0.0163	0.0064	-0.0010	-4.9768	-18.4247	4.2834	0.5134	-0.4838	0.5947	0.3857
8.24	-9.4582	-0.3396	-1.7363	-0.0121	0.0033	-0.0025	-5.0100	-18.3866	4.2499	0.5134	-0.4838	0.5946	0.3856
8.25	-9.4705	-0.3513	-1.7369	-0.0131	-0.0062	0.0006	-5.0437	-18.1335	4.4403	0.5134	-0.4838	0.5947	0.3857
8.26	-9.4703	-0.3559	-1.7538	-0.0166	-0.0024	-0.0028	-5.0532	-18.1098	4.4814	0.5134	-0.4838	0.5946	0.3857
8.27	-9.4597	-0.3607	-1.7597	-0.0168	0.0030	-0.0029	-4.5764	-18.1137	4.7396	0.5134	-0.4839	0.5946	0.3857
8.28	-9.4621	-0.3743	-1.7366	-0.0116	0.0073	-0.0058	-4.6510	-18.0113	4.5813	0.5133	-0.4839	0.5946	0.3856
8.29	-9.4596	-0.3832	-1.7504	-0.0169	-0.0034	-0.0012	-4.7361	-18.0370	4.6084	0.5133	-0.4839	0.5946	0.3856
8.3	-9.4597	-0.3778	-1.7435	-0.0160	-0.0045	-0.0071	-4.9541	-18.1531	4.6559	0.5133	-0.4840	0.5946	0.3857
8.31	-9.4575	-0.3785	-1.7544	-0.0128	-0.0060	-0.0065	-4.9765	-18.0952	4.5789	0.5133	-0.4839	0.5945	0.3856
8.32	-9.4689	-0.3688	-1.7738	-0.0136	-0.0017	-0.0030	-4.8849	-18.1682	4.4682	0.5134	-0.4840	0.5946	0.3857
8.33	-9.4648	-0.3654	-1.7671	-0.0080	0.0059	-0.0006	-5.1050	-18.1301	4.7953	0.5133	-0.4840	0.5946	0.3856
8.34	-9.4635	-0.3642	-1.7650	-0.0077	-0.0034	0.0007	-5.2062	-18.2313	4.6059	0.5134	-0.4840	0.5947	0.3856
8.35	-9.4684	-0.3466	-1.7727	-0.0075	-0.0053	0.0079	-5.1062	-18.2315	4.4695	0.5133	-0.4839	0.5946	0.3856
8.36	-9.4598	-0.3572	-1.7567	-0.0186	-0.0084	-0.0005	-4.9316	-18.3584	4.4997	0.5133	-0.4840	0.5946	0.3857
8.37	-9.4646	-0.3694	-1.7591	-0.0115	-0.0074	-0.0002	-4.9295	-18.4056	4.6852	0.5133	-0.4839	0.5946	0.3857
8.38	-9.4562	-0.3635	-1.7578	-0.0157	-0.0070	0.0012	-4.8519	-18.4032	4.5814	0.5133	-0.4839	0.5946	0.3857
8.39	-9.4559	-0.3684	-1.7469	-0.0145	-0.0131	-0.0015	-4.8943	-18.2906	4.6002	0.5134	-0.4839	0.5946	0.3857
8.4	-9.4721	-0.3677	-1.7410	-0.0158	-0.0004	-0.0063	-4.8748	-18.2181	4.5224	0.5133	-0.4839	0.5946	0.3857
8.41	-9.4673	-0.3679	-1.7320	-0.0111	0.0034	-0.0011	-5.0695	-18.2283	4.5362	0.5134	-0.4840	0.5946	0.3857
8.42	-9.4575	-0.3567	-1.7235	-0.0107	-0.0036	0.0075	-4.9377	-18.3220	4.5965	0.5133	-0.4839	0.5946	0.3857
8.43	-9.4610	-0.3521	-1.7235	-0.0135	-0.0020	-0.0038	-4.8911	-18.1963	4.6880	0.5133	-0.4840	0.5946	0.3857
8.44	-9.4651	-0.3513	-1.7232	-0.0142	-0.0061	-0.0006	-4.9838	-18.2995	4.6165	0.5133	-0.4839	0.5946	0.3857
8.45	-9.4678	-0.3501	-1.7109	-0.0107	-0.0027	-0.0014	-4.9540	-18.2639	4.5586	0.5133	-0.4839	0.5946	0.3857
8.46	-9.4658	-0.3554	-1.7049	-0.0139	-0.0035	0.0010	-4.8753	-18.1955	4.5932	0.5133	-0.4840	0.5946	0.3858
8.47	-9.4627	-0.3536	-1.7051	-0.0169	-0.0027	-0.0025	-4.8801	-18.4083	4.5712	0.5133	-0.4840	0.5946	0.3857
8.48	-9.4555	-0.3588	-1.7133	-0.0165	-0.0002	0.0001	-4.8674	-18.2985	4.6051	0.5133	-0.4840	0.5946	0.3858
8.49	-9.4620	-0.3566	-1.7218	-0.0133	-0.0005	-0.0060	-4.9549	-18.1017	4.4724	0.5132	-0.4840	0.5945	0.3857
8.5	-9.4614	-0.3609	-1.7204	-0.0069	-0.0019	-0.0060	-4.9650	-18.3916	4.6153	0.5133	-0.4840	0.5946	0.3857
8.51	-9.4642	-0.3522	-1.7158	-0.0110	-0.0076	-0.0097	-4.9474	-18.2217	4.5283	0.5133	-0.4840	0.5945	0.3857
8.52	-9.4632	-0.3502	-1.7132	-0.0073	-0.0032	-0.0048	-5.0018	-18.3120	4.4631	0.5133	-0.4840	0.5945	0.3857
8.53	-9.4611	-0.3481	-1.7074	-0.0078	0.0001	0.0051	-5.1676	-18.3097	4.5947	0.5133	-0.4840	0.5945	0.3857
8.54	-9.4647	-0.3660	-1.7105	-0.0071	0.0053	0.0034	-4.8206	-18.3439	4.6946	0.5133	-0.4840	0.5946	0.3857
8.55	-9.4623	-0.3493	-1.7242	-0.0115	0.0057	-0.0000	-4.7003	-18.2153	4.4325	0.5133	-0.4840	0.5946	0.3857
8.56	-9.4627	-0.3645	-1.7180	-0.0107	-0.0036	0.0028	-4.9892	-18.3825	4.3901	0.5132	-0.4840	0.5946	0.3856
8.57	-9.4688	-0.3672	-1.7248	-0.0075	-0.0047	0.0063	-4.8399	-18.4961	4.5220	0.5133	-0.4840	0.5947	0.3857
8.58	-9.4624	-0.3638	-1.7361	-0.0070	-0.0017	-0.0007	-5.0574	-18.2112	4.4810	0.5133	-0.4840	0.5947	0.3856
8.59	-9.4602	-0.3659	-1.7317	-0.0093	-0.0004	0.0012	-5.1674	-18.2614	4.4881	0.5133	-0.4840	0.5947	0.3857
8.6	-9.4663	-0.3671	-1.7476	-0.0097	0.0017	0.0023	-4.9235	-18.2005	4.4911	0.5132	-0.4839	0.5947	0.3856
8.61	-9.4642	-0.3596	-1.7463	-0.0083	0.0016	0.0040	-4.8864	-18.3875	4.6043	0.5132	-0.4839	0.5947	0.3856
8.62	-9.4616	-0.3463	-1.7342	-0.0157	-0.0030	-0.0006	-5.1509	-18.3503	4.3835	0.5132	-0.4840	0.5947	0.3856
8.63	-9.4669	-0.3448	-1.7533	-0.0161	-0.0113	0.0026	-4.7431	-18.2994	4.4933	0.5132	-0.4839	0.5947	0.3857
8.64	-9.4636	-0.3499	-1.7485	-0.0146	-0.0014	-0.0082	-4.9462	-18.3126	4.4956	0.5132	-0.4840	0.5947	0.3857
8.65	-9.4723	-0.3628	-1.7469	-0.0132	-0.0052	-0.0058	-5.1349	-18.2108	4.6281	0.5132	-0.4840	0.5947	0.3857
8.66	-9.4662	-0.3670	-1.7659	-0.0119	0.0007	-0.0066	-4.9962	-18.2470	4.4414	0.5132	-0.4840	0.5947	0.3857
8.67	-9.4607	-0.3641	-1.7531	-0.0063	0.0007	-0.0018	-5.0537	-18.2220	4.3574	0.5132	-0.4840	0.5946	0.3856
8.68	-9.4743	-0.3681	-1.7581	-0.0042	-0.0057	-0.0016	-4.9350	-18.3443	4.6804	0.5132	-0.4840	0.5947	0.3856
8.69	-9.4643	-0.3714	-1.7525	-0.0087	-0.0032	-0.0014	-4.9594	-18.1232	4.4232	0.5132	-0.4840	0.5947	0.3856
8.7	-9.4550	-0.3634	-1.7475	-0.0065	0.0019	-0.0040	-5.0029	-18.2754	4.4610	0.5132	-0.4840	0.5947	0.3856
8.71	-9.4734	-0.3612	-1.7533	-0.0071	-0.0017	-0.0019	-5.1578	-18.5325	4.6019	0.5133	-0.4840	0.5947	0.3856
8.72	-9.4736	-0.3500	-1.7454	-0.0059	-0.0063	-0.0009	-4.9437	-18.4407	4.4606	0.5133	-0.4840	0.5947	0.3855
8.73	-9.4586	-0.3581	-1.7485	-0.0085	0.0049	0.0045	-4.6252	-18.5309	4.5277	0.5133	-0.4840	0.5948	0.3855
8.74	-9.4606	-0.3529	-1.7447	-0.0047	0.0022	-0.0051	-4.7007	-18.2715	4.4812	0.5132	-0.4839	0.5947	0.3854
8.75	-9.4698	-0.3600	-1.7492	-0.0051	-0.0023	-0.0024	-4.8376	-18.2675	4.5094	0.5133	-0.4840	0.5948	0.3855
8.76	-9.4647	-0.3696	-1.7462	-0.0041	-0.0026	-0.0003	-5.0214	-18.2647	4.6305	0.5133	-0.4839	0.5948	0.3854
8.77	-9.4650	-0.3600	-1.7380	-0.0078	-0.0036	-0.0031	-4.5777	-18.0193	4.7353	0.5133	-0.4839	0.5948	0.3854
8.78	-9.4705	-0.3568	-1.7476	-0.0072	-0.0040	-0.0021	-4.4690	-18.2295	4.8724	0.5133	-0.4839	0.5948	0.3854
8.79	-9.4623	-0.3460	-1.7470	-0.0082	-0.0037	-0.0025	-4.7133	-18.2595	4.8511	0.5133	-0.4839	0.5948	0.3854
8.8	-9.4653	-0.3416	-1.7376	-0.0116	-0.0042	-0.0040	-4.6905	-18.1195	4.6084	0.5134	-0.4839	0.5948	0.3854
8.81	-9.4671	-0.3409	-1.7421	-0.0045	0.0004	-0.0056	-4.7668	-18.1290	4.3114	0.5133	-0.4839	0.5948	0.3853
8.82	-9.4769	-0.3381	-1.7442	-0.0137	0.0007	-0.0030	-4.8966	-18.2981	4.4052	0.5134	-0.4840	0.5948	0.3854
8.83	-9.4513	-0.3382	-1.7331	-0.0129	0.0032	-0.0044	-5.0623	-18.1857	4.5723	0.5133	-0.4840	0.5948	0.3853
8.84	-9.4650	-0.3360	-1.7338	-0.0089	0.0027	-0.0061	-5.1959	-18.1565	4.7302	0.5134	-0.4840	0.5949	0.3853
8.85	-9.4728	-0.3519	-1.7496	-0.0039	0.0045	-0.0036	-5.0797	-18.1032	4.4920	0.5133	-0.4840	0.5948	0.3852
8.86	-9.4651	-0.3705	-1.7405	-0.0076	0.0013	-0.0101	-5.0222	-18.2330	4.4713	0.5133	-0.4840	0.5948	0.3852
8.87	-9.4565	-0.3719	-1.7330	-0.0083	-0.0041	-0.0086	-5.3019	-18.1968	4.8676	0.5134	-0.4840	0.5948	0.3852
8.88	-9.4688	-0.3730	-1.7383	-0.0117	-0.0005	-0.0058	-5.1889	-18.2052	4.6049	0.5133	-0.4840	0.5948	0.3851
8.89	-9.4751	-0.3679	-1.7524	-0.0113	0.0009	-0.0052	-4.9868	-18.2987	4.5260	0.5134	-0.4841	0.5949	0.3852
8.9	-9.4431	-0.3513	-1.7001	-0.0069	-0.0098	-0.0044	-4.9099	-18.2697	4.3951	0.5134	-0.4841	0.5948	0.3851
8.91	-9.4710	-0.3482	-1.7168	-0.0035	-0.0060	0.0041	-4.9641	-18.3104	4.5574	0.5134	-0.4840	0.5949	0.3852
8.92	-9.4775	-0.3425	-1.7352	-0.0046	-0.0033	-0.0036	-4.8311	-18.1687	4.3519	0.5134	-0.4840	0.5948	0.3851
8.93	-9.4425	-0.3445	-1.6890	-0.0052	-0.0016	-0.0039	-4.8751	-18.3425	4.3610	0.5135	-0.4840	0.5948	0.3851
8.94	-9.4772	-0.3418	-1.7403	-0.0092	-0.0020	-0.0040	-4.9544	-18.3396	4.5412	0.5135	-0.4840	0.5948	0.3851
8.95	-9.4548	-0.3136	-1.7039	-0.0139	-0.0116	-0.0040	-4.9382	-18.4815	4.7775	0.5135	-0.4840	0.5948	0.3851
8.96	-9.4826	-0.3472	-1.7225	-0.0054	0.0022	-0.0019	-4.8495	-18.2193	4.3632	0.5135	-0.4840	0.5948	0.3851
8.97	-9.4664	-0.3164	-1.7228	-0.0169	-0.0019	0.0010	-4.8513	-18.2654	4.5645	0.5135	-0.4840	0.5948	0.3850
8.98	-9.4472	-0.3410	-1.7110	-0.0106	-0.0044	-0.0044	-4.8701	-18.3650	4.7656	0.5135	-0.4840	0.5949	0.3851
8.99	-9.4749	-0.3424	-1.7602	-0.0147	-0.0020	-0.0066	-4.8371	-18.1557	4.2879	0.5134	-0.4840	0.5948	0.3850
9	-9.4586	-0.3513	-1.7342	-0.0067	-0.0050	0.0016	-4.8704	-18.3188	4.4213	0.5135	-0.4840	0.5948	0.3850
9.01	-9.4699	-0.3737	-1.7607	-0.0123	-0.0027	-0.0029	-4.9690	-18.1066	4.4110	0.5135	-0.4840	0.5948	0.3850
9.02	-9.4623	-0.3674	-1.7518	-0.0154	-0.0040	-0.0104	-5.1114	-18.1766	4.5822	0.5135	-0.4840	0.5948	0.3850
9.03	-9.4562	-0.3849	-1.7577	-0.0088	-0.0005	-0.0052	-5.0803	-18.3204	4.7281	0.5135	-0.4840	0.5948	0.3850
9.04	-9.4630	-0.3845	-1.7609	-0.0031	0.0021	0.0013	-5.0357	-18.2379	4.5785	0.5135	-0.4840	0.5948	0.3850
9.05	-9.4596	-0.3834	-1.7535	-0.0075	0.0029	-0.0052	-5.2899	-18.2291	4.4489	0.5135	-0.4841	0.5948	0.3849
9.06	-9.4609	-0.3769	-1.7565	-0.0130	0.0030	-0.0058	-5.1697	-18.4021	4.4498	0.5135	-0.4840	0.5948	0.3849
9.07	-9.4634	-0.3634	-1.7618	-0.0107	0.0049	-0.0064	-5.1651	-18.2506	4.4164	0.5135	-0.4841	0.5949	0.3849
9.08	-9.4670	-0.3613	-1.7568	-0.0040	0.0011	-0.0032	-5.0699	-18.3286	4.6566	0.5135	-0.4841	0.5949	0.3848
9.09	-9.4696	-0.3588	-1.7563	-0.0047	-0.0057	0.0021	-5.1297	-18.1826	4.4400	0.5136	-0.4841	0.5949	0.3849
9.1	-9.4712	-0.3487	-1.7703	-0.0072	0.0003	0.0052	-4.9206	-18.3798	4.5611	0.5135	-0.4840	0.5949	0.3848
9.11	-9.4569	-0.3426	-1.7611	-0.0177	-0.0073	-0.0023	-4.8322	-18.4583	4.5875	0.5135	-0.4841	0.5949	0.3849
9.12	-9.4689	-0.3501	-1.7678	-0.0151	0.0002	0.0023	-4.8755	-18.4559	4.4372	0.5135	-0.4841	0.5949	0.3849
9.13	-9.4717	-0.3606	-1.7727	-0.0132	-0.0014	-0.0066	-4.8270	-18.3631	4.6599	0.5135	-0.4840	0.5949	0.3848
9.14	-9.4589	-0.3817	-1.7600	-0.0142	-0.0045	0.0003	-4.9044	-18.4605	4.6224	0.5135	-0.4841	0.5949	0.3849
9.15	-9.4724	-0.3661	-1.7703	-0.0097	-0.0035	-0.0050	-5.0163	-18.4292	4.4606	0.5135	-0.4841	0.5949	0.3848
9.16	-9.4797	-0.3692	-1.7616	-0.0100	0.0018	-0.0027	-5.0896	-18.3109	4.5053	0.5135	-0.4841	0.5949	0.3848
9.17	-9.4732	-0.3478	-1.7457	-0.0049	0.0047	-0.0020	-5.0111	-18.5687	4.5455	0.5135	-0.4840	0.5949	0.3848
9.18	-9.4655	-0.3295	-1.7514	-0.0057	0.0006	-0.0015	-4.9396	-18.4910	4.5575	0.5135	-0.4841	0.5950	0.3848
9.19	-9.4614	-0.3311	-1.7392	-0.0087	-0.0036	0.0092	-5.0283	-18.2922	4.4650	0.5135	-0.4840	0.5950	0.3848
9.2	-9.4647	-0.3209	-1.7399	-0.0064	-0.0005	-0.0038	-5.0748	-18.2291	4.5032	0.5135	-0.4840	0.5950	0.3847
9.21	-9.4629	-0.3399	-1.7434	-0.0185	0.0049	-0.0085	-5.1030	-18.0921	4.5385	0.5135	-0.4841	0.5950	0.3847
9.22	-9.4568	-0.3569	-1.7440	-0.0144	-0.0020	-0.0046	-5.2335	-18.1596	4.5245	0.5135	-0.4841	0.5950	0.3847
9.23	-9.4633	-0.3752	-1.7439	-0.0192	-0.0043	-0.0068	-5.2245	-18.2429	4.4838	0.5135	-0.4841	0.5950	0.3847
9.24	-9.4534	-0.3830	-1.7431	-0.0147	0.0022	-0.0040	-5.0859	-18.1011	4.3903	0.5134	-0.4841	0.5949	0.3847
9.25	-9.4606	-0.3822	-1.7354	-0.0088	0.0028	-0.0003	-4.8977	-18.1388	4.6083	0.5135	-0.4842	0.5950	0.3847
9.26	-9.4647	-0.3709	-1.7261	-0.0161	-0.0054	-0.0020	-4.9920	-18.2241	4.7215	0.5134	-0.4842	0.5949	0.3847
9.27	-9.4616	-0.3667	-1.7214	-0.0086	0.0050	-0.0040	-4.7892	-18.1850	4.7468	0.5134	-0.4842	0.5950	0.3847
9.28	-9.4602	-0.3562	-1.7001	-0.0058	-0.0058	-0.0040	-4.7913	-18.2096	5.0190	0.5134	-0.4842	0.5949	0.3847
9.29	-9.4611	-0.3321	-1.7051	-0.0083	0.0012	-0.0054	-4.8774	-18.2236	4.6619	0.5135	-0.4842	0.5950	0.3846
9.3	-9.4613	-0.3348	-1.6968	-0.0081	-0.0056	-0.0004	-4.8975	-18.1278	4.4498	0.5135	-0.4842	0.5950	0.3847
9.31	-9.4608	-0.3362	-1.7028	-0.0043	-0.0019	-0.0003	-4.8257	-18.3657	4.6021	0.5134	-0.4841	0.5949	0.3846
9.32	-9.4735	-0.3279	-1.7135	-0.0039	0.0012	-0.0057	-4.8143	-18.3892	4.5677	0.5135	-0.4842	0.5950	0.3846
9.33	-9.4636	-0.3173	-1.7005	-0.0002	0.0045	0.0006	-4.8983	-18.4335	4.4965	0.5135	-0.4841	0.5950	0.3845
9.34	-9.4647	-0.3303	-1.7137	-0.0105	0.0086	0.0007	-4.6916	-18.2597	4.7096	0.5135	-0.4842	0.5951	0.3845
9.35	-9.4772	-0.3253	-1.7211	-0.0095	0.0020	-0.0054	-4.8347	-18.2049	4.5648	0.5134	-0.4841	0.5950	0.3845
9.36	-9.4647	-0.3326	-1.7141	-0.0050	0.0048	-0.0008	-4.8809	-18.4738	4.4894	0.5135	-0.4841	0.5951	0.3844
9.37	-9.4671	-0.3242	-1.7292	-0.0062	0.0093	-0.0030	-5.0814	-18.3000	4.5112	0.5135	-0.4842	0.5952	0.3844
9.38	-9.4633	-0.3171	-1.7349	-0.0096	0.0130	-0.0054	-4.8804	-18.0712	4.7701	0.5134	-0.4842	0.5952	0.3843
9.39	-9.4565	-0.3191	-1.7360	-0.0132	0.0030	-0.0030	-5.0098	-18.0500	4.7348	0.5134	-0.4843	0.5952	0.3843
9.4	-9.4712	-0.3343	-1.7458	-0.0106	0.0039	-0.0041	-5.0177	-18.2567	4.5091	0.5134	-0.4842	0.5952	0.3843
9.41	-9.4659	-0.3479	-1.7308	-0.0169	0.0038	-0.0050	-4.9829	-18.3192	4.4707	0.5134	-0.4843	0.5952	0.3843
9.42	-9.4603	-0.3628	-1.7476	-0.0151	0.0083	-0.0049	-5.1665	-18.0112	4.5969	0.5133	-0.4843	0.5952	0.3842
9.43	-9.4618	-0.3645	-1.7484	-0.0096	0.0117	-0.0063	-5.0028	-18.3440	4.5409	0.5133	-0.4844	0.5953	0.3842
9.44	-9.4656	-0.3723	-1.7500	-0.0130	0.0065	0.0003	-5.0864	-18.3863	4.5269	0.5133	-0.4844	0.5953	0.3842
9.45	-9.4771	-0.3500	-1.7754	-0.0151	0.0052	-0.0040	-4.9502	-18.2227	4.6101	0.5132	-0.4844	0.5953	0.3842
9.46	-9.4646	-0.3305	-1.7664	-0.0073	0.0037	-0.0063	-5.0724	-18.2352	4.5634	0.5132	-0.4844	0.5953	0.3842
9.47	-9.4647	-0.3206	-1.7642	-0.0124	0.0033	-0.0019	-5.0132	-18.2555	4.5920	0.5132	-0.4844	0.5953	0.3841
9.48	-9.4724	-0.3240	-1.7740	-0.0059	0.0084	-0.0028	-4.9463	-18.3655	4.5789	0.5132	-0.4845	0.5953	0.3841
9.49	-9.4486	-0.3327	-1.7850	-0.0075	0.0060	-0.0052	-4.9878	-18.1921	4.5853	0.5131	-0.4844	0.5953	0.3840
9.5	-9.4533	-0.3518	-1.7690	-0.0053	0.0014	-0.0023	-4.8491	-18.4817	4.5884	0.5132	-0.4845	0.5954	0.3840
9.51	-9.4825	-0.3652	-1.7928	-0.0091	0.0004	0.0003	-4.9346	-18.4153	4.4261	0.5132	-0.4844	0.5954	0.3840
9.52	-9.4671	-0.3716	-1.7759	-0.0145	-0.0001	-0.0011	-4.9800	-18.1999	4.4366	0.5132	-0.4845	0.5954	0.3840
9.53	-9.4653	-0.3851	-1.7929	-0.0083	0.0006	-0.0068	-4.9527	-18.3338	4.7338	0.5132	-0.4845	0.5954	0.3839
9.54	-9.4679	-0.3901	-1.7951	-0.0061	0.0016	-0.0014	-5.1079	-18.4379	4.4736	0.5132	-0.4845	0.5954	0.3839
9.55	-9.4365	-0.4039	-1.7501	-0.0081	-0.0010	-0.0038	-5.0939	-18.5041	4.4279	0.5132	-0.4845	0.5954	0.3839
9.56	-9.4698	-0.4027	-1.7758	-0.0076	-0.0067	-0.0058	-4.9429	-18.1098	4.6127	0.5132	-0.4844	0.5954	0.3839
9.57	-9.4713	-0.4068	-1.7654	-0.0101	-0.0009	-0.0033	-5.0776	-18.2862	4.4572	0.5133	-0.4845	0.5955	0.3839
9.58	-9.4501	-0.4033	-1.7453	-0.0033	-0.0033	-0.0026	-5.1417	-18.4472	4.6817	0.5132	-0.4845	0.5954	0.3839
9.59	-9.4664	-0.4057	-1.7412	-0.0087	0.0026	-0.0037	-4.8886	-18.3380	4.6131	0.5133	-0.4845	0.5955	0.3839
9.6	-9.4653	-0.3892	-1.7447	-0.0059	0.0056	-0.0070	-4.8803	-18.2062	4.4841	0.5132	-0.4845	0.5954	0.3838
9.61	-9.4567	-0.3821	-1.7230	-0.0129	-0.0001	-0.0027	-5.0947	-18.2754	4.4887	0.5132	-0.4845	0.5955	0.3838
9.62	-9.4595	-0.3632	-1.7300	-0.0127	0.0008	-0.0015	-4.8394	-18.3147	4.5308	0.5132	-0.4845	0.5955	0.3838
9.63	-9.4596	-0.3522	-1.7299	-0.0090	0.0007	-0.0042	-5.0105	-18.3827	4.6989	0.5132	-0.4845	0.5954	0.3837
9.64	-9.4657	-0.3557	-1.7149	-0.0120	-0.0003	-0.0083	-4.8192	-18.5035	4.5616	0.5133	-0.4846	0.5955	0.3838
9.65	-9.4629	-0.3454	-1.7165	-0.0142	-0.0021	-0.0060	-4.8842	-18.0758	4.6193	0.5132	-0.4845	0.5954	0.3837
9.66	-9.4621	-0.3559	-1.7141	-0.0093	0.0006	-0.0015	-4.9907	-18.3137	4.7060	0.5133	-0.4846	0.5955	0.3837
9.67	-9.4615	-0.3701	-1.7171	-0.0163	-0.0040	-0.0065	-4.9830	-18.3062	4.5633	0.5132	-0.4845	0.5954	0.3837
9.68	-9.4608	-0.3636	-1.7140	-0.0113	-0.0006	-0.0065	-4.9087	-18.3490	4.6060	0.5132	-0.4846	0.5954	0.3837
9.69	-9.4503	-0.3728	-1.7006	-0.0226	0.0029	0.0022	-4.8191	-18.3900	4.5416	0.5132	-0.4846	0.5954	0.3837
9.7	-9.4536	-0.3984	-1.7070	-0.0112	-0.0022	-0.0004	-4.9046	-18.4849	4.4757	0.5132	-0.4846	0.5954	0.3837
9.71	-9.4843	-0.3936	-1.7207	-0.0106	-0.0016	-0.0003	-4.8888	-18.3759	4.5306	0.5132	-0.4846	0.5955	0.3837
9.72	-9.4627	-0.3790	-1.7062	-0.0056	-0.0016	0.0004	-5.0820	-18.3284	4.4461	0.5132	-0.4846	0.5955	0.3837
9.73	-9.4592	-0.3719	-1.7153	-0.0064	0.0004	-0.0014	-4.8544	-18.4317	4.6379	0.5132	-0.4846	0.5955	0.3837
9.74	-9.4645	-0.3426	-1.7168	-0.0025	0.0057	0.0036	-4.9806	-18.3840	4.7000	0.5132	-0.4845	0.5955	0.3836
9.75	-9.4456	-0.3206	-1.7035	-0.0021	0.0020	-0.0026	-4.8775	-18.3078	4.5492	0.5132	-0.4846	0.5956	0.3836
9.76	-9.4673	-0.3104	-1.7340	-0.0084	0.0092	-0.0061	-4.8611	-18.3257	4.7862	0.5132	-0.4846	0.5956	0.3835
9.77	-9.4688	-0.3205	-1.7362	-0.0131	0.0037	-0.0100	-4.5352	-18.2509	4.9568	0.5132	-0.4846	0.5956	0.3835
9.78	-9.4628	-0.3291	-1.7373	-0.0170	-0.0012	-0.0003	-4.6936	-18.2008	4.8383	0.5131	-0.4846	0.5956	0.3835
9.79	-9.4672	-0.3279	-1.7486	-0.0032	0.0067	-0.0038	-4.7060	-18.2288	4.8965	0.5132	-0.4846	0.5956	0.3835
9.8	-9.4568	-0.3250	-1.7512	-0.0154	-0.0016	-0.0045	-5.0035	-18.0774	4.7518	0.5132	-0.4847	0.5956	0.3835
9.81	-9.4616	-0.3322	-1.7528	-0.0150	0.0016	-0.0060	-5.3363	-18.0901	4.5554	0.5131	-0.4846	0.5956	0.3834
9.82	-9.4638	-0.3439	-1.7650	-0.0130	0.0019	-0.0048	-4.9256	-18.1022	4.6469	0.5132	-0.4847	0.5956	0.3835
9.83	-9.4671	-0.3534	-1.7480	-0.0120	0.0039	-0.0041	-5.2412	-17.9308	4.6648	0.5131	-0.4847	0.5956	0.3834
9.84	-9.4793	-0.3410	-1.7600	-0.0075	0.0027	-0.0040	-5.1851	-18.2009	4.5186	0.5131	-0.4848	0.5957	0.3834
9.85	-9.4486	-0.3475	-1.7465	-0.0057	0.0020	-0.0022	-4.7064	-18.2984	4.5100	0.5131	-0.4847	0.5956	0.3834
9.86	-9.4575	-0.3608	-1.7412	-0.0015	0.0043	-0.0044	-4.7070	-18.3594	4.5746	0.5131	-0.4847	0.5957	0.3833
9.87	-9.4750	-0.3760	-1.7740	-0.0068	0.0023	-0.0072	-4.8176	-18.2448	4.5857	0.5131	-0.4847	0.5957	0.3833
9.88	-9.4639	-0.3771	-1.7559	-0.0063	-0.0016	-0.0027	-4.9393	-18.3669	4.4727	0.5131	-0.4847	0.5956	0.3832
9.89	-9.4550	-0.3749	-1.7476	-0.0114	0.0020	-0.0021	-4.9164	-18.3890	4.7693	0.5132	-0.4848	0.5958	0.3833
9.9	-9.4635	-0.3643	-1.7516	-0.0085	-0.0059	0.0016	-4.9647	-18.3250	4.4867	0.5131	-0.4847	0.5957	0.3832
9.91	-9.4672	-0.3779	-1.7623	-0.0081	-0.0047	-0.0026	-4.8341	-18.2787	4.6673	0.5132	-0.4847	0.5957	0.3833
9.92	-9.4552	-0.3719	-1.7425	-0.0109	0.0022	-0.0029	-4.9609	-18.2773	4.7180	0.5131	-0.4847	0.5957	0.3832
9.93	-9.4637	-0.3661	-1.7453	-0.0136	0.0031	0.0012	-4.9724	-18.3193	4.5794	0.5131	-0.4847	0.5957	0.3832
9.94	-9.4574	-0.3722	-1.7261	-0.0105	0.0031	-0.0010	-4.9983	-18.3600	4.6303	0.5131	-0.4847	0.5958	0.3832
9.95	-9.4583	-0.3599	-1.7208	-0.0094	-0.0009	-0.0028	-5.1442	-18.1928	4.5835	0.5131	-0.4847	0.5957	0.3832
9.96	-9.4632	-0.3684	-1.7330	-0.0092	0.0011	-0.0053	-4.9782	-18.2081	4.7167	0.5131	-0.4847	0.5958	0.3832
9.97	-9.4599	-0.3672	-1.7220	-0.0160	-0.0006	-0.0055	-5.1520	-18.2240	4.6724	0.5131	-0.4847	0.5957	0.3832
9.98	-9.4539	-0.3633	-1.7342	-0.0110	0.0076	-0.0056	-5.0077	-18.3476	4.5244	0.5131	-0.4848	0.5958	0.3832
9.99	-9.4485	-0.3541	-1.7112	-0.0124	0.0018	-0.0043	-5.0123	-18.1031	4.5210	0.5130	-0.4848	0.5957	0.3831
10	-9.4661	-0.3447	-1.7277	-0.0114	-0.0023	-0.0078	-5.0040	-18.0380	4.5007	0.5131	-0.4848	0.5958	0.3831
10.01	-9.4824	-0.3417	-1.7417	-0.0168	0.0047	-0.0046	-5.1775	-18.1849	4.7133	0.5131	-0.4848	0.5957	0.3831
10.02	-9.4582	-0.3566	-1.7111	-0.0239	0.0037	-0.0038	-5.1083	-18.2727	4.5499	0.5130	-0.4849	0.5958	0.3831
10.03	-9.4518	-0.3653	-1.7061	-0.0128	0.0061	-0.0008	-5.0776	-18.3845	4.4952	0.5130	-0.4849	0.5957	0.3831
10.04	-9.4663	-0.3718	-1.7313	-0.0115	0.0013	-0.0015	-4.9867	-18.4859	4.8012	0.5130	-0.4849	0.5958	0.3831
10.05	-9.4689	-0.3754	-1.7356	-0.0138	-0.0022	-0.0013	-4.8736	-18.3870	4.5485	0.5130	-0.4849	0.5958	0.3831
10.06	-9.4508	-0.3693	-1.7255	-0.0093	-0.0011	-0.0027	-4.7636	-18.3605	4.5262	0.5129	-0.4849	0.5957	0.3831
10.07	-9.4740	-0.3526	-1.7594	-0.0066	0.0015	-0.0020	-4.7674	-18.2706	4.5174	0.5130	-0.4849	0.5958	0.3831
10.08	-9.4704	-0.3536	-1.7577	-0.0169	-0.0055	0.0006	-4.9061	-18.2972	4.4141	0.5130	-0.4849	0.5958	0.3831
10.09	-9.4586	-0.3557	-1.7535	-0.0138	0.0009	0.0034	-4.9425	-18.2651	4.7026	0.5130	-0.4850	0.5958	0.3831
10.1	-9.4604	-0.3681	-1.7567	-0.0086	0.0040	0.0005	-4.9272	-18.3988	4.7024	0.5129	-0.4849	0.5958	0.3831
10.11	-9.4624	-0.3861	-1.7827	-0.0133	0.0051	-0.0022	-4.9359	-18.2163	4.5822	0.5129	-0.4849	0.5958	0.3831
10.12	-9.4464	-0.4374	-1.7985	-0.0094	-0.0032	-0.0033	-4.7506	-18.4246	4.6435	0.5129	-0.4849	0.5958	0.3831
10.13	-9.4289	-0.4925	-1.7800	-0.0134	-0.0005	-0.0046	-4.8942	-18.3941	4.5385	0.5129	-0.4849	0.5958	0.3830
10.14	-9.4711	-0.5167	-1.7997	-0.0225	-0.0017	-0.0018	-5.1394	-18.1941	4.4045	0.5129	-0.4850	0.5959	0.3831
10.15	-9.4796	-0.4957	-1.7775	-0.0174	0.0016	0.0010	-5.0437	-18.0371	4.5930	0.5129	-0.4850	0.5958	0.3831
10.16	-9.4432	-0.4317	-1.7300	-0.0082	-0.0025	0.0019	-5.1915	-18.1700	4.5846	0.5129	-0.4850	0.5959	0.3831
10.17	-9.4671	-0.3334	-1.7531	-0.0042	-0.0023	-0.0087	-5.0761	-18.2218	4.7099	0.5129	-0.4849	0.5958	0.3830
10.18	-9.4722	-0.2661	-1.7422	-0.0097	0.0038	-0.0011	-5.0289	-18.1175	4.6648	0.5129	-0.4850	0.5959	0.3831
10.19	-9.4583	-0.2354	-1.7102	-0.0065	0.0024	0.0024	-5.0886	-18.2383	4.5890	0.5129	-0.4850	0.5959	0.3830
10.2	-9.4740	-0.2380	-1.7251	-0.0164	0.0056	-0.0029	-4.9085	-18.2018	4.6117	0.5128	-0.4850	0.5959	0.3830
10.21	-9.4765	-0.2791	-1.7236	-0.0148	0.0001	-0.0038	-4.9440	-18.1088	4.6115	0.5128	-0.4850	0.5959	0.3830
10.22	-9.4726	-0.3168	-1.7131	-0.0200	-0.0064	-0.0037	-4.9269	-18.0276	4.7118	0.5128	-0.4850	0.5958	0.3830
10.23	-9.4612	-0.3377	-1.7128	-0.0079	-0.0069	-0.0023	-4.7245	-18.2342	4.4661	0.5129	-0.4850	0.5959	0.3831
10.24	-9.4658	-0.3582	-1.7171	-0.0099	0.0046	0.0012	-4.6390	-18.4582	4.4117	0.5128	-0.4850	0.5958	0.3830
10.25	-9.4739	-0.3442	-1.7300	-0.0124	0.0005	-0.0030	-4.9362	-18.5384	4.5987	0.5128	-0.4850	0.5959	0.3830
10.26	-9.4447	-0.3481	-1.6697	-0.0094	-0.0054	-0.0073	-4.8707	-18.2533	4.8917	0.5128	-0.4850	0.5959	0.3830
10.27	-9.4877	-0.3578	-1.7112	-0.0056	0.0038	0.0041	-4.6673	-18.3649	4.8617	0.5129	-0.4850	0.5959	0.3830
10.28	-9.4839	-0.3407	-1.7172	-0.0055	-0.0013	-0.0040	-4.7932	-18.3671	4.9905	0.5128	-0.4850	0.5959	0.3829
10.29	-9.4398	-0.3345	-1.6820	-0.0043	0.0008	-0.0030	-4.8667	-18.2736	4.5683	0.5129	-0.4850	0.5959	0.3829
10.3	-9.4776	-0.3287	-1.7211	-0.0067	0.0112	0.0015	-4.9977	-18.2647	4.7599	0.5129	-0.4850	0.5960	0.3829
10.31	-9.4837	-0.3353	-1.7240	-0.0076	0.0082	-0.0048	-4.9808	-18.0982	4.5802	0.5128	-0.4849	0.5960	0.3828
10.32	-9.4497	-0.3322	-1.7018	-0.0062	0.0024	-0.0005	-4.9693	-18.1545	4.5772	0.5128	-0.4850	0.5961	0.3828
10.33	-9.4600	-0.3331	-1.7313	-0.0141	0.0025	-0.0029	-5.1004	-18.3168	4.4134	0.5128	-0.4850	0.5960	0.3828
10.34	-9.4690	-0.3381	-1.7483	-0.0087	0.0064	-0.0027	-5.1354	-18.5085	4.4722	0.5128	-0.4850	0.5961	0.3828
10.35	-9.4412	-0.3442	-1.7223	-0.0109	0.0084	-0.0077	-5.1137	-18.3927	4.5087	0.5127	-0.4850	0.5960	0.3827
10.36	-9.4601	-0.3478	-1.7358	-0.0084	0.0050	-0.0087	-5.1389	-18.3980	4.4928	0.5128	-0.4851	0.5961	0.3827
10.37	-9.4680	-0.3566	-1.7508	-0.0054	0.0028	-0.0034	-4.9226	-18.2388	4.6657	0.5128	-0.4851	0.5961	0.3827
10.38	-9.4630	-0.3483	-1.7550	-0.0097	0.0115	-0.0043	-4.8694	-18.2296	4.6786	0.5127	-0.4851	0.5961	0.3826
10.39	-9.4620	-0.3458	-1.7594	-0.0104	0.0076	0.0033	-4.9826	-18.2335	4.5670	0.5127	-0.4851	0.5962	0.3826
10.4	-9.4586	-0.3388	-1.7508	-0.0110	0.0054	0.0037	-5.0934	-18.2417	4.4458	0.5127	-0.4851	0.5962	0.3826
10.41	-9.4628	-0.3538	-1.7497	-0.0099	0.0046	-0.0071	-4.9154	-18.2178	4.6053	0.5127	-0.4851	0.5962	0.3826
10.42	-9.4655	-0.3603	-1.7687	-0.0122	0.0015	-0.0059	-4.8809	-18.3172	4.8873	0.5126	-0.4851	0.5962	0.3825
10.43	-9.4611	-0.3605	-1.7627	-0.0067	0.0071	-0.0025	-4.8930	-18.4176	4.7064	0.5127	-0.4851	0.5963	0.3825
10.44	-9.4624	-0.3703	-1.7579	-0.0075	0.0050	-0.0023	-4.8952	-18.3852	4.5018	0.5126	-0.4851	0.5963	0.3825
10.45	-9.4660	-0.3793	-1.7675	-0.0102	0.0038	-0.0053	-4.8146	-18.4031	4.4959	0.5126	-0.4852	0.5963	0.3825
10.46	-9.4619	-0.3799	-1.7726	-0.0044	0.0031	-0.0042	-4.7923	-18.3882	4.5950	0.5126	-0.4852	0.5963	0.3824
10.47	-9.4535	-0.3851	-1.7648	-0.0069	0.0059	-0.0039	-5.0642	-18.2843	4.5868	0.5126	-0.4852	0.5963	0.3824
10.48	-9.4545	-0.3859	-1.7771	-0.0079	0.0024	0.0018	-4.9851	-18.1672	4.5646	0.5126	-0.4852	0.5964	0.3824
10.49	-9.4601	-0.3985	-1.7718	-0.0104	0.0045	0.0023	-4.9589	-18.1143	4.6026	0.5125	-0.4851	0.5963	0.3823
10.5	-9.4626	-0.3996	-1.7632	-0.0101	0.0017	0.0031	-4.9694	-18.5930	4.5443	0.5126	-0.4852	0.5964	0.3824
10.51	-9.4595	-0.4078	-1.7718	-0.0043	-0.0043	-0.0006	-4.8178	-18.3310	4.3944	0.5126	-0.4851	0.5964	0.3823
10.52	-9.4621	-0.4050	-1.7639	-0.0055	0.0039	-0.0035	-5.0473	-18.1278	4.8885	0.5126	-0.4851	0.5965	0.3823
10.53	-9.4571	-0.3965	-1.7624	-0.0088	-0.0049	-0.0004	-5.1369	-18.1621	4.7123	0.5126	-0.4851	0.5964	0.3823
10.54	-9.4521	-0.3885	-1.7325	-0.0071	-0.0046	-0.0028	-5.0270	-18.3864	4.5597	0.5126	-0.4851	0.5964	0.3823
10.55	-9.4645	-0.3750	-1.7423	-0.0113	-0.0070	0.0027	-5.0505	-18.1927	4.5780	0.5127	-0.4851	0.5965	0.3823
10.56	-9.4819	-0.3696	-1.7474	-0.0061	-0.0059	0.0002	-5.0561	-18.1226	4.5917	0.5126	-0.4850	0.5964	0.3823
10.57	-9.4614	-0.3493	-1.7224	-0.0056	-0.0047	0.0011	-5.0250	-18.2695	4.5441	0.5127	-0.4850	0.5965	0.3824
10.58	-9.4591	-0.3414	-1.7316	-0.0093	-0.0076	-0.0039	-4.9690	-18.3446	4.5266	0.5127	-0.4850	0.5964	0.3823
10.59	-9.4768	-0.3567	-1.7284	-0.0141	-0.0015	-0.0011	-5.1133	-18.2409	4.5896	0.5127	-0.4850	0.5965	0.3824
10.6	-9.4496	-0.3739	-1.7032	-0.0076	-0.0132	0.0051	-4.8385	-18.3050	4.6695	0.5127	-0.4849	0.5964	0.3824
10.61	-9.4591	-0.3700	-1.7144	-0.0125	-0.0050	0.0008	-4.9459	-18.3317	4.7816	0.5127	-0.4849	0.5964	0.3824
10.62	-9.4759	-0.3648	-1.7245	-0.0147	-0.0018	0.0019	-4.7643	-18.4595	4.5838	0.5127	-0.4849	0.5964	0.3824
10.63	-9.4629	-0.3570	-1.7148	-0.0076	-0.0081	0.0035	-4.7490	-18.4949	4.5950	0.5127	-0.4848	0.5964	0.3824
10.64	-9.4606	-0.3568	-1.7162	-0.0069	-0.0054	0.0046	-5.1220	-18.3792	4.6752	0.5128	-0.4849	0.5965	0.3825
10.65	-9.4656	-0.3547	-1.7171	-0.0062	0.0020	0.0030	-4.9834	-18.1625	4.5349	0.5127	-0.4848	0.5965	0.3824
10.66	-9.4523	-0.3535	-1.7208	-0.0122	0.0028	0.0020	-4.9674	-18.3710	4.6649	0.5128	-0.4848	0.5966	0.3824
10.67	-9.4519	-0.3588	-1.7170	-0.0119	0.0043	0.0007	-4.9608	-18.4928	4.6760	0.5127	-0.4847	0.5965	0.3824
10.68	-9.4669	-0.3691	-1.7199	-0.0142	-0.0035	0.0026	-5.0865	-18.3841	4.7854	0.5127	-0.4848	0.5966	0.3824
10.69	-9.4663	-0.3733	-1.7250	-0.0146	0.0040	0.0014	-4.8431	-18.3841	4.5459	0.5127	-0.4848	0.5966	0.3824
10.7	-9.4616	-0.3738	-1.7452	-0.0063	0.0007	0.0025	-5.0471	-18.1988	4.4584	0.5127	-0.4847	0.5966	0.3824
10.71	-9.4612	-0.3664	-1.7556	-0.0096	0.0014	0.0005	-5.0274	-18.3532	4.6159	0.5127	-0.4847	0.5966	0.3824
10.72	-9.4602	-0.3584	-1.7518	-0.0170	0.0039	-0.0039	-5.1034	-18.5183	4.4243	0.5126	-0.4848	0.5966	0.3824
10.73	-9.4520	-0.3618	-1.7496	-0.0114	0.0019	-0.0015	-5.0435	-18.2486	4.6475	0.5126	-0.4848	0.5967	0.3824
10.74	-9.4549	-0.3579	-1.7464	-0.0117	0.0041	-0.0041	-4.8589	-18.2125	4.6139	0.5126	-0.4848	0.5966	0.3823
10.75	-9.4666	-0.3366	-1.7510	-0.0170	-0.0032	-0.0031	-4.8866	-18.3510	4.4417	0.5126	-0.4848	0.5967	0.3824
10.76	-9.4602	-0.3344	-1.7423	-0.0173	0.0014	0.0005	-4.9078	-18.5627	4.5950	0.5126	-0.4848	0.5966	0.3824
10.77	-9.4612	-0.3342	-1.7355	-0.0148	-0.0001	-0.0008	-4.7712	-18.2691	4.7870	0.5126	-0.4848	0.5967	0.3824
10.78	-9.4673	-0.3420	-1.7421	-0.0137	-0.0053	-0.0025	-4.6209	-18.0219	4.6572	0.5126	-0.4848	0.5966	0.3824
10.79	-9.4586	-0.3426	-1.7273	-0.0125	-0.0127	0.0027	-4.6578	-18.1920	4.5834	0.5126	-0.4848	0.5966	0.3825
10.8	-9.4516	-0.3542	-1.7226	-0.0121	-0.0016	0.0026	-4.6036	-18.2597	4.5642	0.5126	-0.4848	0.5966	0.3825
10.81	-9.4594	-0.3745	-1.7413	-0.0226	-0.0023	0.0006	-4.7096	-18.2311	4.4064	0.5125	-0.4848	0.5966	0.3825
10.82	-9.4752	-0.3759	-1.7295	-0.0176	-0.0063	-0.0016	-4.8953	-18.1888	4.5828	0.5126	-0.4848	0.5966	0.3826
10.83	-9.4669	-0.3691	-1.7442	-0.0184	-0.0018	-0.0021	-4.9792	-18.3536	4.7395	0.5125	-0.4848	0.5966	0.3826
10.84	-9.4515	-0.3694	-1.7426	-0.0153	-0.0028	-0.0042	-4.8717	-18.3547	4.6663	0.5126	-0.4849	0.5966	0.3826
10.85	-9.4586	-0.3429	-1.7414	-0.0112	-0.0078	0.0050	-4.8516	-18.4456	4.4001	0.5125	-0.4848	0.5965	0.3826
10.86	-9.4655	-0.3302	-1.7646	-0.0130	0.0015	0.0011	-4.9649	-18.5518	4.4039	0.5125	-0.4848	0.5966	0.3826
10.87	-9.4621	-0.3160	-1.7642	-0.0076	0.0003	-0.0036	-4.9186	-18.3393	4.5804	0.5126	-0.4848	0.5966	0.3826
10.88	-9.4655	-0.3143	-1.7520	-0.0061	0.0032	-0.0031	-5.0129	-18.4130	4.5063	0.5125	-0.4847	0.5966	0.3826
10.89	-9.4753	-0.3261	-1.7732	-0.0162	0.0051	-0.0033	-5.1222	-18.1183	4.5333	0.5126	-0.4848	0.5966	0.3826
10.9	-9.4619	-0.3330	-1.7588	-0.0095	-0.0019	-0.0082	-5.2072	-18.2056	4.3859	0.5125	-0.4848	0.5966	0.3825
10.91	-9.4502	-0.3496	-1.7570	-0.0091	-0.0046	-0.0027	-4.9265	-18.0605	4.7274	0.5126	-0.4848	0.5966	0.3826
10.92	-9.4768	-0.3501	-1.7795	-0.0147	-0.0087	-0.0062	-5.1101	-18.1136	4.5874	0.5125	-0.4848	0.5965	0.3825
10.93	-9.4683	-0.3335	-1.7784	-0.0208	0.0022	-0.0051	-5.1971	-18.1980	4.4233	0.5126	-0.4849	0.5965	0.3826
10.94	-9.4564	-0.3279	-1.7719	-0.0149	-0.0010	-0.0001	-5.0268	-18.1270	4.5595	0.5125	-0.4849	0.5965	0.3826
10.95	-9.4679	-0.3223	-1.7752	-0.0193	-0.0023	-0.0045	-5.0134	-18.2441	4.4946	0.5125	-0.4849	0.5965	0.3826
10.96	-9.4707	-0.3179	-1.7644	-0.0139	-0.0030	-0.0072	-5.1218	-18.0880	4.7206	0.5125	-0.4849	0.5965	0.3826
10.97	-9.4593	-0.3277	-1.7565	-0.0087	-0.0117	-0.0019	-5.0913	-18.2558	4.5702	0.5126	-0.4849	0.5964	0.3826
10.98	-9.4591	-0.3306	-1.7576	-0.0102	-0.0019	0.0040	-4.9416	-18.1390	4.6543	0.5126	-0.4849	0.5965	0.3827
10.99	-9.4633	-0.3286	-1.7499	-0.0133	-0.0120	-0.0041	-4.9542	-18.3938	4.4431	0.5125	-0.4848	0.5964	0.3826
11	-9.4674	-0.3359	-1.7474	-0.0113	-0.0055	-0.0062	-4.8156	-18.3229	4.4264	0.5126	-0.4849	0.5964	0.3827
11.01	-9.4638	-0.3388	-1.7361	-0.0148	-0.0025	-0.0087	-4.9338	-18.4515	4.4962	0.5126	-0.4849	0.5964	0.3827
11.02	-9.4670	-0.3465	-1.7208	-0.0078	-0.0085	-0.0068	-4.8772	-18.5792	4.5631	0.5127	-0.4849	0.5964	0.3827
11.03	-9.4656	-0.3479	-1.7337	-0.0155	-0.0031	-0.0025	-4.8569	-18.3310	4.4328	0.5127	-0.4848	0.5963	0.3827
11.04	-9.4664	-0.3448	-1.7157	-0.0271	-0.0028	-0.0007	-4.8435	-18.2487	4.4372	0.5126	-0.4849	0.5963	0.3827
11.05	-9.4591	-0.3505	-1.7073	-0.0161	-0.0071	-0.0036	-4.9218	-18.3468	4.4813	0.5126	-0.4849	0.5963	0.3828
11.06	-9.4801	-0.3582	-1.7214	-0.0067	0.0028	-0.0025	-4.9373	-18.3667	4.6379	0.5126	-0.4849	0.5963	0.3827
11.07	-9.4668	-0.3762	-1.7111	-0.0151	-0.0017	0.0006	-5.0628	-18.2861	4.6002	0.5127	-0.4849	0.5964	0.3828
11.08	-9.4597	-0.3782	-1.7132	-0.0109	-0.0039	-0.0071	-5.0812	-18.2341	4.4849	0.5126	-0.4849	0.5963	0.3827
11.09	-9.4627	-0.3779	-1.7352	-0.0160	-0.0025	-0.0058	-4.9928	-17.9857	4.6014	0.5127	-0.4850	0.5963	0.3828
11.1	-9.4598	-0.3757	-1.7227	-0.0120	0.0012	-0.0041	-5.1137	-18.2266	4.6133	0.5126	-0.4849	0.5962	0.3827
11.11	-9.4669	-0.3655	-1.7319	-0.0129	0.0006	-0.0017	-5.2266	-18.1969	4.6116	0.5126	-0.4849	0.5963	0.3827
11.12	-9.4669	-0.3631	-1.7516	-0.0095	0.0039	-0.0041	-5.2761	-18.2102	4.7657	0.5126	-0.4850	0.5963	0.3827
11.13	-9.4618	-0.3552	-1.7371	-0.0134	-0.0003	-0.0004	-5.2828	-18.2031	4.4980	0.5126	-0.4849	0.5963	0.3827
11.14	-9.4588	-0.3542	-1.7350	-0.0166	-0.0046	-0.0037	-5.0584	-18.2036	4.5508	0.5127	-0.4850	0.5963	0.3828
11.15	-9.4636	-0.3649	-1.7398	-0.0147	-0.0048	-0.0023	-4.9165	-18.1943	4.6048	0.5126	-0.4850	0.5962	0.3828
11.16	-9.4654	-0.3659	-1.7327	-0.0130	0.0017	-0.0045	-5.1500	-18.2299	4.4503	0.5126	-0.4850	0.5963	0.3828
11.17	-9.4639	-0.3639	-1.7473	-0.0099	0.0014	-0.0016	-4.9207	-18.4757	4.3361	0.5126	-0.4849	0.5962	0.3827
11.18	-9.4607	-0.3818	-1.7529	-0.0138	-0.0010	-0.0075	-4.7419	-18.5116	4.5175	0.5126	-0.4850	0.5963	0.3828
11.19	-9.4575	-0.3784	-1.7584	-0.0131	0.0055	-0.0021	-4.8221	-18.2501	4.4805	0.5126	-0.4850	0.5963	0.3827
11.2	-9.4569	-0.3727	-1.7502	-0.0068	-0.0021	-0.0027	-4.9448	-18.3561	4.4816	0.5126	-0.4850	0.5963	0.3827
11.21	-9.4659	-0.3689	-1.7580	-0.0159	-0.0012	-0.0046	-4.9405	-18.3778	4.6667	0.5126	-0.4850	0.5963	0.3827
11.22	-9.4624	-0.3670	-1.7520	-0.0104	0.0048	0.0057	-4.9566	-18.3339	4.4371	0.5126	-0.4850	0.5963	0.3827
11.23	-9.4660	-0.3560	-1.7640	-0.0031	0.0071	-0.0049	-5.0724	-18.2482	4.4964	0.5126	-0.4850	0.5963	0.3827
11.24	-9.4672	-0.3484	-1.7654	-0.0078	0.0012	-0.0039	-4.8981	-18.3756	4.5596	0.5125	-0.4850	0.5963	0.3826
11.25	-9.4630	-0.3480	-1.7594	-0.0156	-0.0079	-0.0059	-5.0946	-18.3567	4.3910	0.5126	-0.4850	0.5963	0.3827
11.26	-9.4583	-0.3554	-1.7618	-0.0178	-0.0016	-0.0023	-5.0165	-18.2280	4.5159	0.5126	-0.4850	0.5963	0.3827
11.27	-9.4574	-0.3427	-1.7667	-0.0116	-0.0026	-0.0062	-4.6682	-18.1324	4.7850	0.5126	-0.4851	0.5963	0.3827
11.28	-9.4765	-0.3533	-1.7657	-0.0144	-0.0071	-0.0009	-4.8131	-18.0013	4.8127	0.5126	-0.4850	0.5962	0.3827
11.29	-9.4681	-0.3643	-1.7684	-0.0204	0.0033	-0.0030	-4.7516	-18.1784	4.6196	0.5126	-0.4851	0.5962	0.3827
11.3	-9.4592	-0.3588	-1.7597	-0.0171	-0.0021	-0.0073	-4.9730	-18.1126	4.7219	0.5126	-0.4851	0.5962	0.3828
11.31	-9.4593	-0.3669	-1.7559	-0.0212	0.0015	-0.0027	-4.9798	-18.2654	4.6659	0.5125	-0.4851	0.5961	0.3827
11.32	-9.4662	-0.3565	-1.7550	-0.0106	0.0025	-0.0008	-4.9641	-18.3037	4.5718	0.5125	-0.4852	0.5962	0.3828
11.33	-9.4654	-0.3401	-1.7495	-0.0128	-0.0009	-0.0031	-5.0845	-18.0780	4.6657	0.5125	-0.4851	0.5962	0.3828
11.34	-9.4636	-0.3426	-1.7468	-0.0101	-0.0049	0.0023	-4.9605	-18.2314	4.4599	0.5126	-0.4852	0.5962	0.3828
11.35	-9.4563	-0.3397	-1.7357	-0.0073	0.0008	-0.0020	-4.9550	-18.2891	4.5032	0.5125	-0.4851	0.5962	0.3828
11.36	-9.4559	-0.3388	-1.7408	-0.0117	-0.0044	-0.0040	-4.9577	-18.5658	4.4811	0.5125	-0.4851	0.5962	0.3828
11.37	-9.4672	-0.3337	-1.7435	-0.0218	0.0026	0.0018	-4.9558	-18.4756	4.5079	0.5125	-0.4851	0.5962	0.3828
