time	acceleration_x	acceleration_y	acceleration_z	gyroscope_x	gyroscope_y	gyroscope_z	magnetometer_x	magnetometer_y	magnetometer_z	quaternion_w	quaternion_x	quaternion_y	quaternion_z
0	-9.5586	-0.4342	-1.3968	-0.0228	-0.0169	-0.0443	30.1017	17.6449	1.6791	0.5410	0.3664	0.6636	-0.3640
0.01	-9.5610	-0.4267	-1.3806	-0.0207	-0.0202	-0.0380	29.9792	17.7770	1.7045	0.5412	0.3664	0.6637	-0.3639
0.02	-9.5662	-0.4382	-1.3889	-0.0208	-0.0199	-0.0387	30.0164	17.7345	1.6725	0.5413	0.3664	0.6636	-0.3638
0.03	-9.5708	-0.4293	-1.3808	-0.0221	-0.0216	-0.0491	29.9596	17.7817	1.7577	0.5416	0.3663	0.6636	-0.3637
0.04	-9.5605	-0.4225	-1.3783	-0.0204	-0.0219	-0.0486	29.7008	17.6249	1.8918	0.5417	0.3662	0.6635	-0.3635
0.05	-9.4927	-0.4251	-1.3716	-0.0210	-0.0174	-0.0404	29.6398	17.9529	1.8676	0.5418	0.3661	0.6636	-0.3635
0.06	-9.5382	-0.4110	-1.3582	-0.0164	-0.0024	-0.0498	29.6351	17.9970	1.8659	0.5418	0.3661	0.6636	-0.3634
0.07	-9.6206	-0.4097	-1.3702	-0.0220	-0.0038	-0.0601	29.7143	17.8209	1.8811	0.5418	0.3659	0.6637	-0.3633
0.08	-9.5532	-0.3995	-1.3621	-0.0205	-0.0179	-0.0548	29.8537	17.8421	1.8608	0.5420	0.3658	0.6638	-0.3633
0.09	-9.5035	-0.4046	-1.3498	-0.0234	-0.0056	-0.0652	29.6574	17.8525	1.7563	0.5419	0.3656	0.6638	-0.3632
0.1	-9.5502	-0.4213	-1.3603	-0.0239	-0.0088	-0.0680	29.8934	17.7752	1.7976	0.5420	0.3655	0.6640	-0.3632
0.11	-9.5618	-0.4276	-1.3641	-0.0328	-0.0104	-0.0582	29.9293	17.7381	1.7677	0.5420	0.3652	0.6640	-0.3631
0.12	-9.5518	-0.4268	-1.3499	-0.0402	-0.0065	-0.0525	29.6714	17.7562	1.9233	0.5421	0.3651	0.6641	-0.3630
0.13	-9.5615	-0.4306	-1.3507	-0.0427	-0.0053	-0.0549	29.4541	17.9422	1.9632	0.5422	0.3649	0.6642	-0.3629
0.14	-9.5816	-0.4407	-1.3548	-0.0454	-0.0090	-0.0547	29.9085	18.0824	1.7008	0.5423	0.3647	0.6643	-0.3627
0.15	-9.5820	-0.4476	-1.3596	-0.0488	-0.0086	-0.0546	30.5651	17.7744	2.1562	0.5423	0.3647	0.6644	-0.3627
0.16	-9.5734	-0.4639	-1.3552	-0.0428	-0.0047	-0.0585	30.4756	17.6765	2.2177	0.5423	0.3646	0.6644	-0.3627
0.17	-9.5677	-0.4744	-1.3551	-0.0372	-0.0107	-0.0657	30.1307	17.6908	1.7109	0.5424	0.3644	0.6645	-0.3626
0.18	-9.5710	-0.4854	-1.3654	-0.0323	-0.0062	-0.0579	29.9755	17.7381	1.6142	0.5423	0.3642	0.6645	-0.3625
0.19	-9.5674	-0.4972	-1.3666	-0.0228	-0.0132	-0.0534	29.7194	18.0165	1.6163	0.5425	0.3642	0.6646	-0.3624
0.2	-9.5735	-0.4958	-1.3702	-0.0230	-0.0049	-0.0549	29.8089	18.0024	1.5925	0.5426	0.3641	0.6646	-0.3623
0.21	-9.5746	-0.4929	-1.3769	-0.0218	-0.0093	-0.0493	29.8442	17.7984	1.6958	0.5428	0.3641	0.6646	-0.3621
0.22	-9.5674	-0.4938	-1.3828	-0.0247	-0.0103	-0.0485	29.8267	17.6279	1.7198	0.5429	0.3640	0.6646	-0.3620
0.23	-9.5733	-0.4930	-1.3763	-0.0218	-0.0028	-0.0367	29.8360	17.7447	1.7105	0.5430	0.3640	0.6646	-0.3618
0.24	-9.5758	-0.4873	-1.3746	-0.0231	-0.0140	-0.0429	30.0321	17.9068	1.9050	0.5432	0.3640	0.6646	-0.3616
0.25	-9.5793	-0.4798	-1.3790	-0.0208	-0.0112	-0.0390	29.9176	17.7493	1.8156	0.5433	0.3640	0.6645	-0.3614
0.26	-9.5725	-0.4770	-1.3780	-0.0211	-0.0128	-0.0361	29.8361	17.7628	1.6753	0.5435	0.3640	0.6646	-0.3613
0.27	-9.5738	-0.4738	-1.3834	-0.0189	-0.0122	-0.0329	29.6394	17.9300	1.9018	0.5436	0.3640	0.6645	-0.3611
0.28	-9.5752	-0.4665	-1.3844	-0.0023	-0.0150	-0.0309	29.7991	17.8920	1.8107	0.5438	0.3641	0.6644	-0.3610
0.29	-9.5642	-0.4576	-1.3861	-0.0023	-0.0133	-0.0301	29.8564	17.7350	1.7984	0.5439	0.3641	0.6643	-0.3609
0.3	-9.5684	-0.4480	-1.3885	0.0022	-0.0109	-0.0323	29.5867	17.8994	1.9097	0.5441	0.3642	0.6642	-0.3608
0.31	-9.5861	-0.4326	-1.3875	0.0060	-0.0033	-0.0352	29.7232	17.7787	1.6947	0.5441	0.3643	0.6642	-0.3607
0.32	-9.5891	-0.4161	-1.3911	0.0090	-0.0130	-0.0296	29.8237	17.7604	1.7782	0.5442	0.3644	0.6640	-0.3606
0.33	-9.5807	-0.4030	-1.3839	0.0059	-0.0123	-0.0268	29.8431	17.6743	1.9375	0.5444	0.3645	0.6640	-0.3605
0.34	-9.5844	-0.3849	-1.3858	0.0043	-0.0134	-0.0320	29.9633	17.5273	1.8475	0.5445	0.3646	0.6639	-0.3604
0.35	-9.6101	-0.3666	-1.3821	0.0065	-0.0155	-0.0405	29.8296	17.4894	2.0277	0.5446	0.3647	0.6638	-0.3603
0.36	-9.6148	-0.3486	-1.3757	0.0037	-0.0205	-0.0413	29.9091	17.5727	1.7792	0.5447	0.3646	0.6636	-0.3602
0.37	-9.6001	-0.3348	-1.3813	-0.0010	-0.0229	-0.0380	30.0494	17.7397	1.7351	0.5449	0.3647	0.6636	-0.3602
0.38	-9.6037	-0.3318	-1.3672	-0.0036	-0.0270	-0.0496	29.9634	18.0777	1.7718	0.5450	0.3647	0.6635	-0.3601
0.39	-9.6233	-0.3310	-1.3663	-0.0168	-0.0265	-0.0513	29.8450	17.8867	1.6732	0.5452	0.3646	0.6634	-0.3601
0.4	-9.6164	-0.3385	-1.3650	-0.0209	-0.0349	-0.0488	29.7270	17.6170	1.7282	0.5454	0.3645	0.6634	-0.3600
0.41	-9.6033	-0.3458	-1.3576	-0.0260	-0.0370	-0.0524	29.4940	17.8747	1.7011	0.5456	0.3644	0.6633	-0.3599
0.42	-9.6072	-0.3595	-1.3500	-0.0264	-0.0358	-0.0538	29.9102	17.7218	1.6979	0.5459	0.3643	0.6633	-0.3598
0.43	-9.6000	-0.3728	-1.3453	-0.0392	-0.0385	-0.0569	29.8552	17.6491	1.8021	0.5460	0.3641	0.6632	-0.3596
0.44	-9.6012	-0.3866	-1.3366	-0.0443	-0.0356	-0.0557	29.5965	17.7897	1.9105	0.5464	0.3640	0.6632	-0.3595
0.45	-9.5916	-0.4071	-1.3252	-0.0440	-0.0429	-0.0627	29.8756	17.9240	1.7153	0.5466	0.3637	0.6631	-0.3594
0.46	-9.5997	-0.4175	-1.3131	-0.0489	-0.0421	-0.0626	30.0019	17.8903	1.7011	0.5469	0.3635	0.6631	-0.3593
0.47	-9.5995	-0.4301	-1.3051	-0.0394	-0.0400	-0.0582	30.0415	17.7397	1.7239	0.5471	0.3633	0.6631	-0.3591
0.48	-9.5925	-0.4338	-1.2899	-0.0389	-0.0471	-0.0650	29.7012	17.7669	1.5549	0.5473	0.3631	0.6630	-0.3591
0.49	-9.5796	-0.4388	-1.2756	-0.0446	-0.0430	-0.0691	29.8929	17.7884	1.7464	0.5476	0.3629	0.6631	-0.3590
0.5	-9.5595	-0.4351	-1.2631	-0.0374	-0.0532	-0.0657	29.8582	17.9816	1.8543	0.5477	0.3625	0.6630	-0.3590
0.51	-9.5475	-0.4378	-1.2445	-0.0388	-0.0504	-0.0598	29.7220	17.7877	1.4254	0.5480	0.3623	0.6631	-0.3590
0.52	-9.5183	-0.4449	-1.2367	-0.0348	-0.0544	-0.0568	30.0429	17.8013	1.4816	0.5482	0.3620	0.6630	-0.3590
0.53	-9.4803	-0.4399	-1.2317	-0.0340	-0.0474	-0.0576	29.9469	17.8417	1.5438	0.5484	0.3618	0.6630	-0.3590
0.54	-9.4582	-0.4517	-1.2253	-0.0364	-0.0337	-0.0601	29.8095	17.5222	1.5209	0.5485	0.3616	0.6629	-0.3589
0.55	-9.4507	-0.4600	-1.2322	-0.0412	-0.0267	-0.0558	29.8553	17.7677	1.4109	0.5487	0.3614	0.6630	-0.3588
0.56	-9.4534	-0.4613	-1.2348	-0.0331	-0.0184	-0.0550	29.7759	17.8752	1.6496	0.5488	0.3612	0.6631	-0.3587
0.57	-9.4500	-0.4767	-1.2338	-0.0348	-0.0019	-0.0524	29.7190	17.8286	1.4412	0.5488	0.3610	0.6631	-0.3586
0.58	-9.4623	-0.4991	-1.2490	-0.0311	0.0031	-0.0544	29.8604	17.9596	1.4172	0.5489	0.3609	0.6633	-0.3585
0.59	-9.4837	-0.5035	-1.2626	-0.0221	0.0121	-0.0556	29.8219	17.7813	1.4450	0.5489	0.3608	0.6634	-0.3584
0.6	-9.5229	-0.5071	-1.2693	-0.0212	0.0203	-0.0535	29.8351	17.7469	1.6485	0.5489	0.3608	0.6636	-0.3583
0.61	-9.5339	-0.5094	-1.2910	-0.0064	0.0187	-0.0498	29.8985	17.8444	1.4898	0.5487	0.3607	0.6636	-0.3582
0.62	-9.5150	-0.4977	-1.2989	0.0077	0.0233	-0.0464	30.0813	17.9793	1.5772	0.5487	0.3608	0.6637	-0.3582
0.63	-9.5239	-0.4737	-1.3082	0.0145	0.0352	-0.0511	29.7028	17.8740	1.5766	0.5485	0.3608	0.6638	-0.3582
0.64	-9.5616	-0.4481	-1.3252	0.0199	0.0362	-0.0538	29.7325	17.8334	1.7958	0.5483	0.3609	0.6639	-0.3582
0.65	-9.5491	-0.4260	-1.3360	0.0192	0.0322	-0.0556	30.2955	17.9553	1.8706	0.5481	0.3611	0.6639	-0.3583
0.66	-9.5416	-0.4139	-1.3450	0.0271	0.0361	-0.0533	30.1055	17.9449	1.7080	0.5479	0.3612	0.6640	-0.3583
0.67	-9.6024	-0.4009	-1.3619	0.0112	0.0379	-0.0632	30.0145	17.8755	1.6879	0.5478	0.3612	0.6642	-0.3583
0.68	-9.6274	-0.3881	-1.3577	0.0054	0.0337	-0.0566	29.7016	17.9745	1.6240	0.5476	0.3612	0.6642	-0.3583
0.69	-9.6467	-0.3735	-1.3628	0.0006	0.0307	-0.0507	29.6814	17.8068	1.8671	0.5475	0.3613	0.6644	-0.3582
0.7	-9.6467	-0.3757	-1.3720	-0.0080	0.0166	-0.0496	29.7307	17.7835	1.5482	0.5474	0.3612	0.6645	-0.3582
0.71	-9.6217	-0.3763	-1.3786	-0.0188	0.0126	-0.0496	29.7789	17.6367	1.8113	0.5474	0.3612	0.6646	-0.3581
0.72	-9.5939	-0.3953	-1.3815	-0.0183	0.0034	-0.0503	29.9150	17.4685	1.5207	0.5474	0.3611	0.6647	-0.3580
0.73	-9.5947	-0.4155	-1.3861	-0.0216	0.0024	-0.0500	30.0274	17.5270	1.6230	0.5475	0.3611	0.6647	-0.3578
0.74	-9.6209	-0.4293	-1.3877	-0.0275	-0.0035	-0.0440	29.9113	17.6824	1.8715	0.5476	0.3610	0.6647	-0.3576
0.75	-9.6369	-0.4358	-1.3931	-0.0344	-0.0008	-0.0423	29.9100	17.6043	1.7612	0.5477	0.3610	0.6647	-0.3574
0.76	-9.6240	-0.4398	-1.3900	-0.0386	-0.0040	-0.0391	29.8657	17.5742	1.5297	0.5480	0.3610	0.6648	-0.3572
0.77	-9.6126	-0.4437	-1.3927	-0.0197	-0.0061	-0.0382	29.8425	17.9109	1.5954	0.5480	0.3609	0.6647	-0.3570
0.78	-9.6154	-0.4551	-1.3961	-0.0257	-0.0095	-0.0541	29.9207	17.6922	1.7466	0.5482	0.3609	0.6648	-0.3569
0.79	-9.6099	-0.4572	-1.3884	-0.0257	-0.0130	-0.0537	29.9117	17.6783	1.8344	0.5483	0.3608	0.6647	-0.3567
0.8	-9.5913	-0.4513	-1.3790	-0.0203	-0.0182	-0.0575	29.7360	17.8929	1.8655	0.5485	0.3607	0.6648	-0.3567
0.81	-9.5948	-0.4413	-1.3712	-0.0213	-0.0155	-0.0565	29.6270	17.8636	1.5678	0.5486	0.3606	0.6648	-0.3566
0.82	-9.6021	-0.4363	-1.3628	-0.0212	-0.0187	-0.0530	29.8559	18.0683	1.6398	0.5487	0.3605	0.6647	-0.3564
0.83	-9.5951	-0.4255	-1.3470	-0.0221	-0.0211	-0.0544	29.7856	17.9042	1.7364	0.5489	0.3605	0.6648	-0.3564
0.84	-9.5790	-0.4136	-1.3401	-0.0215	-0.0258	-0.0562	29.7036	17.8503	1.6714	0.5490	0.3603	0.6647	-0.3563
0.85	-9.5801	-0.4083	-1.3279	-0.0201	-0.0203	-0.0530	29.5261	18.0687	1.7310	0.5492	0.3603	0.6647	-0.3562
0.86	-9.5714	-0.4090	-1.3249	-0.0223	-0.0238	-0.0576	29.6477	17.8368	1.4962	0.5493	0.3601	0.6646	-0.3560
0.87	-9.5574	-0.4075	-1.3098	-0.0202	-0.0296	-0.0600	29.7220	17.7556	1.8602	0.5495	0.3600	0.6646	-0.3561
0.88	-9.5430	-0.4103	-1.2993	-0.0313	-0.0215	-0.0579	29.5943	17.9217	1.5784	0.5496	0.3598	0.6647	-0.3560
0.89	-9.5533	-0.4042	-1.2883	-0.0405	-0.0227	-0.0597	29.7011	17.6894	1.6291	0.5497	0.3596	0.6647	-0.3559
0.9	-9.5495	-0.4112	-1.2805	-0.0368	-0.0265	-0.0611	29.9361	17.4893	1.7728	0.5498	0.3594	0.6648	-0.3559
0.91	-9.5377	-0.4156	-1.2790	-0.0482	-0.0164	-0.0602	29.9910	17.4900	1.6285	0.5499	0.3591	0.6649	-0.3558
0.92	-9.5041	-0.4286	-1.2748	-0.0481	-0.0174	-0.0659	29.8020	17.5850	1.6777	0.5500	0.3589	0.6650	-0.3557
0.93	-9.4364	-0.4268	-1.2568	-0.0494	-0.0139	-0.0652	29.8147	17.9156	1.6422	0.5501	0.3586	0.6650	-0.3555
0.94	-9.5303	-0.4420	-1.2619	-0.0555	-0.0005	-0.0738	29.9155	17.5804	1.6664	0.5502	0.3584	0.6653	-0.3555
0.95	-9.5430	-0.4643	-1.2762	-0.0499	-0.0012	-0.0796	29.8847	17.6720	1.6580	0.5502	0.3581	0.6654	-0.3553
0.96	-9.4395	-0.4749	-1.2628	-0.0519	-0.0027	-0.0772	29.6846	17.8716	1.6422	0.5503	0.3578	0.6656	-0.3553
0.97	-9.4485	-0.5095	-1.2769	-0.0587	0.0149	-0.0787	29.8586	17.8537	1.7568	0.5502	0.3575	0.6658	-0.3551
0.98	-9.4825	-0.5456	-1.2930	-0.0534	0.0238	-0.0712	29.9855	17.8430	1.7374	0.5502	0.3573	0.6660	-0.3549
0.99	-9.4953	-0.5535	-1.3017	-0.0474	0.0296	-0.0619	29.6873	17.9083	1.5597	0.5502	0.3572	0.6663	-0.3547
1	-9.4939	-0.5627	-1.3223	-0.0446	0.0405	-0.0545	29.7542	17.9601	1.5591	0.5501	0.3570	0.6664	-0.3545
1.01	-9.5180	-0.5668	-1.3388	-0.0322	0.0491	-0.0538	29.5931	17.9259	1.6499	0.5500	0.3570	0.6668	-0.3543
1.02	-9.5318	-0.5700	-1.3571	-0.0226	0.0516	-0.0515	29.6911	17.9590	2.0052	0.5498	0.3570	0.6669	-0.3541
1.03	-9.5459	-0.5786	-1.3750	-0.0216	0.0526	-0.0533	29.7511	17.9275	1.9073	0.5497	0.3570	0.6672	-0.3540
1.04	-9.5635	-0.5788	-1.3941	-0.0113	0.0536	-0.0540	29.6232	17.9620	1.6887	0.5495	0.3570	0.6673	-0.3538
1.05	-9.5690	-0.5639	-1.4058	-0.0007	0.0562	-0.0519	29.6369	18.0185	1.9104	0.5493	0.3570	0.6676	-0.3537
1.06	-9.5733	-0.5516	-1.4185	0.0103	0.0473	-0.0460	29.6422	17.9138	1.9194	0.5491	0.3571	0.6677	-0.3537
1.07	-9.5868	-0.5313	-1.4363	0.0151	0.0400	-0.0334	29.6094	17.9638	1.9427	0.5490	0.3572	0.6678	-0.3536
1.08	-9.5892	-0.5065	-1.4449	0.0181	0.0503	-0.0343	29.8624	17.8394	1.9085	0.5489	0.3574	0.6680	-0.3535
1.09	-9.5943	-0.4807	-1.4509	0.0172	0.0444	-0.0266	29.8969	17.5779	1.6844	0.5487	0.3575	0.6680	-0.3534
1.1	-9.6081	-0.4632	-1.4565	0.0186	0.0336	-0.0285	29.7031	17.6650	1.6167	0.5486	0.3577	0.6681	-0.3533
1.11	-9.6399	-0.4478	-1.4654	0.0220	0.0275	-0.0269	29.8100	17.6759	1.8575	0.5485	0.3579	0.6680	-0.3532
1.12	-9.6642	-0.4361	-1.4646	0.0150	0.0230	-0.0277	29.9352	17.7065	2.0605	0.5485	0.3581	0.6681	-0.3531
1.13	-9.6672	-0.4286	-1.4676	0.0041	0.0103	-0.0283	29.8609	17.7819	2.0178	0.5485	0.3582	0.6680	-0.3529
1.14	-9.6723	-0.4207	-1.4671	0.0069	-0.0005	-0.0256	30.0451	17.8206	2.0098	0.5486	0.3583	0.6679	-0.3528
1.15	-9.6666	-0.4217	-1.4663	0.0030	-0.0030	-0.0273	30.3082	17.9921	2.1444	0.5486	0.3586	0.6678	-0.3528
1.16	-9.6657	-0.4142	-1.4607	0.0020	-0.0086	-0.0193	30.0861	17.7688	2.2054	0.5487	0.3587	0.6677	-0.3527
1.17	-9.6582	-0.4022	-1.4472	0.0024	-0.0216	-0.0266	29.9747	17.7459	1.9512	0.5489	0.3588	0.6676	-0.3526
1.18	-9.6321	-0.3915	-1.4392	0.0015	-0.0274	-0.0291	29.8164	17.8785	1.9002	0.5490	0.3588	0.6674	-0.3525
1.19	-9.6156	-0.3814	-1.4236	0.0025	-0.0261	-0.0293	29.6904	17.7439	1.9505	0.5492	0.3589	0.6674	-0.3525
1.2	-9.5959	-0.3620	-1.4108	0.0041	-0.0250	-0.0294	29.6174	17.9486	1.8309	0.5494	0.3589	0.6672	-0.3524
1.21	-9.5792	-0.3393	-1.3859	0.0047	-0.0329	-0.0366	29.5566	17.8768	1.6055	0.5496	0.3589	0.6671	-0.3523
1.22	-9.5583	-0.3145	-1.3670	-0.0045	-0.0397	-0.0364	29.6594	17.7407	1.7484	0.5497	0.3589	0.6670	-0.3523
1.23	-9.5448	-0.3016	-1.3491	-0.0101	-0.0278	-0.0480	29.7078	17.9054	1.7353	0.5498	0.3588	0.6670	-0.3523
1.24	-9.5333	-0.2797	-1.3358	-0.0213	-0.0336	-0.0501	29.9293	17.7670	1.6967	0.5500	0.3586	0.6670	-0.3523
1.25	-9.5154	-0.2718	-1.3214	-0.0287	-0.0304	-0.0546	29.6272	17.8269	1.5201	0.5500	0.3584	0.6669	-0.3523
1.26	-9.5036	-0.2837	-1.3106	-0.0439	-0.0253	-0.0576	29.7904	17.9818	1.6684	0.5503	0.3582	0.6670	-0.3522
1.27	-9.4956	-0.2978	-1.3033	-0.0494	-0.0178	-0.0652	29.8751	17.7428	1.7772	0.5503	0.3580	0.6671	-0.3521
1.28	-9.4891	-0.3172	-1.3064	-0.0635	-0.0132	-0.0672	30.0289	17.8663	1.8838	0.5505	0.3577	0.6673	-0.3520
1.29	-9.4829	-0.3572	-1.3120	-0.0719	-0.0165	-0.0742	30.0096	17.7558	1.5924	0.5506	0.3573	0.6674	-0.3518
1.3	-9.4817	-0.3906	-1.3108	-0.0768	-0.0035	-0.0758	30.0385	17.5546	1.7112	0.5507	0.3570	0.6676	-0.3516
1.31	-9.4829	-0.4315	-1.3168	-0.0785	-0.0012	-0.0762	29.7718	17.5944	1.6910	0.5508	0.3566	0.6678	-0.3514
1.32	-9.4757	-0.4663	-1.3215	-0.0743	0.0081	-0.0798	29.8102	17.6474	1.6298	0.5508	0.3563	0.6680	-0.3512
1.33	-9.4688	-0.5064	-1.3354	-0.0746	0.0168	-0.0772	29.9611	17.8027	1.6391	0.5509	0.3560	0.6684	-0.3510
1.34	-9.4766	-0.5415	-1.3451	-0.0637	0.0275	-0.0774	29.7819	17.7313	1.5326	0.5508	0.3557	0.6686	-0.3508
1.35	-9.4904	-0.5632	-1.3575	-0.0548	0.0290	-0.0754	29.9338	17.8342	1.7639	0.5508	0.3555	0.6689	-0.3507
1.36	-9.4912	-0.5836	-1.3722	-0.0430	0.0372	-0.0721	29.9405	17.9490	1.6992	0.5506	0.3553	0.6690	-0.3505
1.37	-9.4968	-0.5887	-1.3894	-0.0329	0.0404	-0.0677	29.6933	17.8310	1.7797	0.5505	0.3552	0.6693	-0.3503
1.38	-9.5208	-0.5902	-1.4100	-0.0206	0.0439	-0.0591	29.6535	17.7030	1.9890	0.5504	0.3551	0.6695	-0.3502
1.39	-9.5348	-0.5817	-1.4267	-0.0159	0.0486	-0.0551	29.6718	17.9479	1.7830	0.5502	0.3551	0.6697	-0.3501
1.4	-9.5450	-0.5717	-1.4432	-0.0026	0.0550	-0.0538	29.6569	17.9279	2.0469	0.5501	0.3552	0.6700	-0.3500
1.41	-9.5595	-0.5548	-1.4562	0.0028	0.0509	-0.0451	29.6802	17.7287	1.9751	0.5499	0.3552	0.6701	-0.3498
1.42	-9.5884	-0.5380	-1.4671	0.0131	0.0468	-0.0415	29.8488	17.9730	1.8512	0.5497	0.3553	0.6703	-0.3498
1.43	-9.6196	-0.5171	-1.4882	0.0218	0.0427	-0.0394	29.7754	17.9181	1.7103	0.5495	0.3554	0.6703	-0.3497
1.44	-9.6177	-0.4998	-1.5009	0.0241	0.0347	-0.0308	29.6044	17.8642	1.8626	0.5494	0.3556	0.6704	-0.3497
1.45	-9.6211	-0.4745	-1.5083	0.0311	0.0305	-0.0273	29.6149	17.6518	2.1097	0.5492	0.3558	0.6704	-0.3497
1.46	-9.6340	-0.4411	-1.5136	0.0274	0.0223	-0.0256	29.9671	17.8281	2.0905	0.5492	0.3560	0.6704	-0.3496
1.47	-9.6550	-0.4051	-1.5138	0.0311	0.0124	-0.0219	29.8229	17.9618	2.1262	0.5492	0.3562	0.6703	-0.3495
1.48	-9.6592	-0.3754	-1.5125	0.0285	0.0065	-0.0263	29.7344	17.7012	1.7919	0.5492	0.3564	0.6703	-0.3495
1.49	-9.6275	-0.3538	-1.5039	0.0289	-0.0003	-0.0294	29.9700	17.8317	1.9615	0.5492	0.3566	0.6702	-0.3494
1.5	-9.6451	-0.3363	-1.4992	0.0270	-0.0053	-0.0380	29.7607	17.9570	2.0276	0.5492	0.3567	0.6700	-0.3494
1.51	-9.6637	-0.3271	-1.4970	0.0068	-0.0105	-0.0328	29.6428	17.8201	1.9060	0.5494	0.3568	0.6700	-0.3494
1.52	-9.6502	-0.3114	-1.4739	0.0018	-0.0173	-0.0308	29.5254	17.7632	1.8823	0.5495	0.3568	0.6699	-0.3493
1.53	-9.6563	-0.3072	-1.4650	-0.0095	-0.0223	-0.0396	29.7177	17.9723	1.7905	0.5497	0.3568	0.6699	-0.3492
1.54	-9.6280	-0.3101	-1.4645	-0.0193	-0.0280	-0.0380	29.8659	17.8362	1.9209	0.5498	0.3567	0.6697	-0.3491
1.55	-9.5634	-0.3158	-1.4565	-0.0251	-0.0390	-0.0400	29.8311	17.8681	1.9433	0.5500	0.3567	0.6697	-0.3490
1.56	-9.5300	-0.3389	-1.4460	-0.0322	-0.0304	-0.0446	29.8490	17.8340	2.0286	0.5502	0.3565	0.6697	-0.3489
1.57	-9.5366	-0.3608	-1.4439	-0.0358	-0.0277	-0.0444	29.8446	17.9405	1.9994	0.5503	0.3563	0.6697	-0.3488
1.58	-9.5541	-0.3683	-1.4396	-0.0446	-0.0285	-0.0485	29.7489	17.9512	2.0980	0.5505	0.3562	0.6698	-0.3487
1.59	-9.5541	-0.3714	-1.4313	-0.0466	-0.0207	-0.0557	29.6050	17.6534	1.9966	0.5506	0.3559	0.6698	-0.3486
1.6	-9.5559	-0.3765	-1.4297	-0.0474	-0.0254	-0.0555	29.5527	17.7588	1.9697	0.5509	0.3557	0.6699	-0.3484
1.61	-9.5414	-0.3858	-1.4202	-0.0455	-0.0292	-0.0670	29.6670	17.7493	1.7979	0.5509	0.3554	0.6698	-0.3483
1.62	-9.5315	-0.4019	-1.4143	-0.0470	-0.0229	-0.0768	29.6730	18.0208	1.8374	0.5511	0.3552	0.6700	-0.3483
1.63	-9.5134	-0.4099	-1.4063	-0.0452	-0.0268	-0.0780	29.8180	17.8046	1.8053	0.5512	0.3548	0.6701	-0.3483
1.64	-9.5003	-0.4192	-1.4030	-0.0437	-0.0249	-0.0792	29.9402	17.8111	1.8895	0.5512	0.3545	0.6702	-0.3482
1.65	-9.4999	-0.4296	-1.3992	-0.0443	-0.0217	-0.0753	30.4881	17.9826	2.1406	0.5513	0.3544	0.6702	-0.3483
1.66	-9.5007	-0.4428	-1.3907	-0.0529	-0.0208	-0.0817	30.5156	17.9340	2.0683	0.5512	0.3544	0.6702	-0.3485
1.67	-9.5133	-0.4538	-1.3947	-0.0521	-0.0124	-0.0737	30.1750	17.9288	1.8436	0.5513	0.3542	0.6703	-0.3485
1.68	-9.5220	-0.4684	-1.3974	-0.0478	-0.0095	-0.0704	29.9386	17.8415	1.8227	0.5513	0.3538	0.6704	-0.3483
1.69	-9.5180	-0.4863	-1.4044	-0.0480	-0.0012	-0.0714	29.5850	17.9787	1.8328	0.5514	0.3536	0.6706	-0.3483
1.7	-9.5216	-0.5042	-1.4037	-0.0501	-0.0029	-0.0667	29.8856	17.8815	1.8214	0.5514	0.3534	0.6707	-0.3481
1.71	-9.5378	-0.5212	-1.4104	-0.0425	0.0006	-0.0741	29.8649	17.8403	1.8421	0.5515	0.3532	0.6709	-0.3480
1.72	-9.5506	-0.5367	-1.4191	-0.0306	0.0014	-0.0613	29.5915	17.7729	1.8079	0.5515	0.3530	0.6710	-0.3479
1.73	-9.5556	-0.5413	-1.4203	-0.0256	-0.0041	-0.0565	29.7953	17.7354	2.0064	0.5515	0.3528	0.6711	-0.3479
1.74	-9.5656	-0.5385	-1.4243	-0.0224	0.0024	-0.0564	29.8146	18.0303	1.9531	0.5515	0.3527	0.6712	-0.3478
1.75	-9.5856	-0.5357	-1.4337	-0.0203	-0.0000	-0.0527	29.8300	17.9364	1.9054	0.5515	0.3526	0.6712	-0.3477
1.76	-9.5117	-0.5197	-1.4265	-0.0234	-0.0018	-0.0491	29.6869	17.8588	1.9224	0.5516	0.3525	0.6713	-0.3477
1.77	-9.5415	-0.4858	-1.4145	-0.0116	0.0114	-0.0493	29.6368	18.0829	1.9306	0.5515	0.3524	0.6714	-0.3476
1.78	-9.6613	-0.4757	-1.4388	-0.0065	0.0056	-0.0483	29.5895	17.9938	1.8442	0.5516	0.3524	0.6715	-0.3475
1.79	-9.5734	-0.4517	-1.4277	-0.0035	-0.0063	-0.0455	29.4319	18.0438	1.8125	0.5516	0.3524	0.6714	-0.3474
1.8	-9.5197	-0.4434	-1.4178	-0.0071	-0.0033	-0.0506	29.4807	18.0029	1.8256	0.5516	0.3523	0.6715	-0.3474
1.81	-9.5763	-0.4564	-1.4362	-0.0189	0.0021	-0.0540	29.8030	18.0537	1.8466	0.5516	0.3522	0.6716	-0.3474
1.82	-9.5961	-0.4562	-1.4397	-0.0219	-0.0084	-0.0364	29.8100	17.9345	2.0694	0.5517	0.3522	0.6715	-0.3472
1.83	-9.5821	-0.4599	-1.4383	-0.0233	-0.0135	-0.0288	29.8369	17.9499	1.6477	0.5519	0.3522	0.6716	-0.3471
1.84	-9.5786	-0.4436	-1.4397	-0.0222	-0.0097	-0.0289	29.9044	17.6203	1.8593	0.5520	0.3522	0.6715	-0.3469
1.85	-9.6100	-0.4216	-1.4371	-0.0202	-0.0123	-0.0379	29.9626	17.6603	2.1659	0.5522	0.3522	0.6715	-0.3467
1.86	-9.6143	-0.4382	-1.4383	-0.0217	-0.0123	-0.0329	30.0205	18.0136	1.9982	0.5523	0.3522	0.6714	-0.3465
1.87	-9.6141	-0.4445	-1.4393	-0.0208	-0.0148	-0.0412	29.7438	17.8584	1.6661	0.5524	0.3522	0.6714	-0.3464
1.88	-9.6007	-0.4410	-1.4359	-0.0155	-0.0244	-0.0488	29.7208	17.7409	1.8200	0.5526	0.3521	0.6714	-0.3463
1.89	-9.5865	-0.4352	-1.4298	-0.0151	-0.0260	-0.0430	29.7295	17.7578	1.8238	0.5527	0.3520	0.6713	-0.3462
1.9	-9.5761	-0.4244	-1.4164	-0.0078	-0.0322	-0.0498	29.7120	17.7801	1.9427	0.5529	0.3520	0.6713	-0.3462
1.91	-9.5652	-0.4113	-1.4026	-0.0190	-0.0349	-0.0475	29.8898	17.9749	1.8918	0.5531	0.3519	0.6712	-0.3461
1.92	-9.5645	-0.4005	-1.3978	-0.0213	-0.0329	-0.0511	29.8695	17.7267	1.7670	0.5533	0.3518	0.6712	-0.3460
1.93	-9.5490	-0.3930	-1.3888	-0.0223	-0.0312	-0.0545	29.6378	17.8518	1.6240	0.5534	0.3516	0.6711	-0.3460
1.94	-9.5385	-0.3932	-1.3826	-0.0211	-0.0287	-0.0495	29.4938	17.9570	1.7773	0.5535	0.3515	0.6711	-0.3460
1.95	-9.5465	-0.3980	-1.3757	-0.0280	-0.0202	-0.0498	29.5012	17.9051	1.9978	0.5536	0.3513	0.6711	-0.3459
1.96	-9.5450	-0.4068	-1.3712	-0.0299	-0.0245	-0.0493	29.8347	17.7557	1.7558	0.5538	0.3512	0.6712	-0.3458
1.97	-9.5430	-0.4208	-1.3686	-0.0399	-0.0230	-0.0489	29.8060	17.7608	1.6326	0.5539	0.3510	0.6712	-0.3457
1.98	-9.5493	-0.4351	-1.3614	-0.0469	-0.0289	-0.0520	29.8173	17.8832	1.6487	0.5540	0.3507	0.6712	-0.3456
1.99	-9.5495	-0.4463	-1.3634	-0.0349	-0.0227	-0.0485	29.8162	18.0127	1.6568	0.5542	0.3506	0.6713	-0.3455
2	-9.5474	-0.4563	-1.3656	-0.0424	-0.0155	-0.0484	29.8118	17.9774	1.9543	0.5542	0.3504	0.6713	-0.3454
2.01	-9.5439	-0.4727	-1.3556	-0.0361	-0.0184	-0.0462	29.8214	17.7830	1.7814	0.5544	0.3502	0.6714	-0.3453
2.02	-9.5441	-0.4844	-1.3698	-0.0377	-0.0169	-0.0407	29.7986	17.6614	1.7626	0.5545	0.3501	0.6714	-0.3452
2.03	-9.4885	-0.4706	-1.3541	-0.0286	-0.0177	-0.0424	29.8730	17.8928	1.8809	0.5547	0.3500	0.6715	-0.3451
2.04	-9.5227	-0.4882	-1.3628	-0.0284	-0.0074	-0.0472	30.0243	17.6584	1.7078	0.5547	0.3498	0.6715	-0.3449
2.05	-9.5136	-0.5007	-1.3703	-0.0220	-0.0077	-0.0441	29.7152	17.6663	1.6600	0.5548	0.3497	0.6716	-0.3449
2.06	-9.5400	-0.4804	-1.3711	-0.0151	-0.0000	-0.0396	29.7842	17.7080	1.9804	0.5548	0.3497	0.6716	-0.3448
2.07	-9.5324	-0.4843	-1.3838	-0.0160	-0.0035	-0.0491	29.8245	17.8800	1.7868	0.5548	0.3496	0.6716	-0.3447
2.08	-9.5234	-0.4813	-1.3836	-0.0000	-0.0002	-0.0365	29.8129	17.6344	1.9986	0.5549	0.3496	0.6717	-0.3447
2.09	-9.5619	-0.4588	-1.3940	0.0051	0.0034	-0.0403	29.9411	17.7175	1.7960	0.5548	0.3496	0.6717	-0.3446
2.1	-9.5474	-0.4482	-1.3940	0.0050	-0.0000	-0.0400	29.6156	17.7909	1.8208	0.5548	0.3496	0.6717	-0.3447
2.11	-9.5667	-0.4321	-1.3983	0.0027	0.0004	-0.0408	29.7416	17.7302	2.1611	0.5548	0.3496	0.6717	-0.3446
2.12	-9.5816	-0.4126	-1.4039	0.0057	0.0062	-0.0434	29.6936	17.8134	1.8546	0.5548	0.3496	0.6718	-0.3446
2.13	-9.5852	-0.3827	-1.4045	0.0080	0.0057	-0.0437	29.4592	17.8119	1.7904	0.5547	0.3496	0.6718	-0.3446
2.14	-9.5824	-0.3609	-1.4104	0.0038	-0.0004	-0.0462	29.7639	17.7300	1.9950	0.5547	0.3496	0.6718	-0.3446
2.15	-9.6063	-0.3511	-1.4167	-0.0002	0.0031	-0.0529	30.1580	17.8790	2.1248	0.5547	0.3496	0.6718	-0.3445
2.16	-9.6025	-0.3327	-1.4137	-0.0093	-0.0021	-0.0520	30.1306	17.8452	1.9801	0.5548	0.3496	0.6718	-0.3444
2.17	-9.6043	-0.3235	-1.4171	-0.0191	-0.0026	-0.0557	29.8620	17.8036	1.9423	0.5549	0.3495	0.6719	-0.3443
2.18	-9.6140	-0.3288	-1.4277	-0.0232	-0.0102	-0.0585	29.5018	17.8434	1.9414	0.5549	0.3494	0.6718	-0.3442
2.19	-9.6116	-0.3426	-1.4190	-0.0361	-0.0185	-0.0595	29.6624	17.9849	1.6578	0.5551	0.3493	0.6720	-0.3441
2.2	-9.5973	-0.3607	-1.4173	-0.0454	-0.0213	-0.0579	29.9454	17.8668	1.6984	0.5552	0.3491	0.6720	-0.3439
2.21	-9.6059	-0.3862	-1.4151	-0.0482	-0.0156	-0.0686	29.9764	17.5800	1.7468	0.5554	0.3489	0.6721	-0.3438
2.22	-9.6056	-0.4106	-1.4114	-0.0490	-0.0257	-0.0687	30.0650	17.6665	1.8582	0.5555	0.3487	0.6721	-0.3436
2.23	-9.5838	-0.4359	-1.4105	-0.0503	-0.0309	-0.0702	29.9535	17.8368	1.7852	0.5557	0.3484	0.6721	-0.3435
2.24	-9.5760	-0.4562	-1.4019	-0.0538	-0.0283	-0.0718	29.9588	17.8078	1.5631	0.5559	0.3482	0.6722	-0.3434
2.25	-9.5865	-0.4770	-1.3939	-0.0589	-0.0322	-0.0697	29.8146	17.6733	1.8552	0.5561	0.3479	0.6722	-0.3432
2.26	-9.5834	-0.4950	-1.3787	-0.0481	-0.0293	-0.0674	29.7938	17.6504	1.9342	0.5563	0.3477	0.6723	-0.3431
2.27	-9.5645	-0.5025	-1.3706	-0.0491	-0.0328	-0.0679	29.7750	18.0542	1.9298	0.5565	0.3474	0.6723	-0.3430
2.28	-9.5520	-0.5013	-1.3570	-0.0479	-0.0352	-0.0666	29.6207	18.0709	2.1397	0.5567	0.3471	0.6724	-0.3430
2.29	-9.5558	-0.5021	-1.3472	-0.0471	-0.0350	-0.0616	29.7623	18.0131	1.9040	0.5568	0.3468	0.6724	-0.3428
2.3	-9.5616	-0.5124	-1.3427	-0.0452	-0.0357	-0.0551	29.6730	18.0093	1.6805	0.5570	0.3466	0.6724	-0.3427
2.31	-9.5501	-0.5100	-1.3321	-0.0412	-0.0304	-0.0578	29.9535	17.9133	1.8008	0.5572	0.3464	0.6724	-0.3426
2.32	-9.5343	-0.5006	-1.3244	-0.0374	-0.0275	-0.0537	29.9293	17.9481	1.9248	0.5573	0.3462	0.6724	-0.3425
2.33	-9.5230	-0.4911	-1.3180	-0.0386	-0.0227	-0.0526	29.9228	17.9475	1.8290	0.5575	0.3460	0.6726	-0.3425
2.34	-9.5181	-0.4860	-1.3090	-0.0448	-0.0191	-0.0467	29.6827	17.9055	1.8119	0.5575	0.3458	0.6726	-0.3423
2.35	-9.4911	-0.4882	-1.3018	-0.0326	-0.0147	-0.0451	29.6221	17.8164	1.8936	0.5577	0.3457	0.6727	-0.3423
2.36	-9.4906	-0.4957	-1.3030	-0.0261	-0.0120	-0.0480	29.8805	17.9504	2.0271	0.5577	0.3455	0.6726	-0.3421
2.37	-9.5186	-0.5114	-1.3064	-0.0226	-0.0067	-0.0451	29.6757	17.9443	1.8982	0.5578	0.3454	0.6727	-0.3421
2.38	-9.5128	-0.5171	-1.3013	-0.0211	-0.0088	-0.0316	29.7378	17.9099	2.1138	0.5579	0.3454	0.6727	-0.3420
2.39	-9.5274	-0.5174	-1.3078	-0.0228	0.0022	-0.0323	29.6587	17.7462	2.0558	0.5579	0.3453	0.6728	-0.3418
2.4	-9.5118	-0.5304	-1.3140	-0.0078	-0.0008	-0.0322	29.8723	17.8633	1.7864	0.5580	0.3453	0.6728	-0.3417
2.41	-9.4686	-0.5264	-1.3241	0.0018	-0.0021	-0.0284	30.0556	17.8504	1.7375	0.5580	0.3454	0.6728	-0.3417
2.42	-9.4621	-0.5336	-1.3394	0.0049	0.0116	-0.0277	29.8148	17.8546	1.7268	0.5580	0.3454	0.6729	-0.3416
2.43	-9.4873	-0.5221	-1.3530	0.0113	0.0226	-0.0279	29.8672	17.7842	1.8278	0.5578	0.3455	0.6728	-0.3415
2.44	-9.5201	-0.4973	-1.3639	0.0233	0.0288	-0.0261	29.7026	17.7164	1.9550	0.5578	0.3457	0.6729	-0.3415
2.45	-9.5496	-0.4614	-1.3779	0.0298	0.0367	-0.0255	29.9946	17.8781	1.7269	0.5576	0.3459	0.6729	-0.3414
2.46	-9.5603	-0.4116	-1.3952	0.0291	0.0391	-0.0254	29.9739	17.9224	1.8171	0.5575	0.3461	0.6730	-0.3414
2.47	-9.5551	-0.3749	-1.3996	0.0355	0.0347	-0.0264	29.8122	17.6247	1.8459	0.5573	0.3462	0.6730	-0.3414
2.48	-9.5527	-0.3502	-1.4092	0.0336	0.0287	-0.0308	29.8574	17.7084	1.8354	0.5572	0.3464	0.6731	-0.3414
2.49	-9.5502	-0.3211	-1.4205	0.0289	0.0294	-0.0367	30.0294	17.8386	2.0266	0.5570	0.3466	0.6731	-0.3414
2.5	-9.5454	-0.2847	-1.4338	0.0322	0.0383	-0.0451	29.9403	17.8553	2.0055	0.5568	0.3467	0.6732	-0.3414
2.51	-9.5490	-0.2689	-1.4430	0.0144	0.0370	-0.0477	29.8260	17.9567	1.9340	0.5567	0.3468	0.6733	-0.3414
2.52	-9.5739	-0.2437	-1.4492	0.0008	0.0374	-0.0552	29.8439	17.7685	2.0232	0.5565	0.3468	0.6735	-0.3413
2.53	-9.6002	-0.2373	-1.4592	-0.0173	0.0373	-0.0524	29.8592	17.8210	1.8031	0.5564	0.3468	0.6737	-0.3412
2.54	-9.6271	-0.2466	-1.4699	-0.0255	0.0334	-0.0637	29.7393	17.8834	1.9410	0.5563	0.3466	0.6738	-0.3410
2.55	-9.6408	-0.2663	-1.4785	-0.0445	0.0262	-0.0711	29.6552	17.6899	1.7940	0.5562	0.3465	0.6740	-0.3409
2.56	-9.6531	-0.2973	-1.4881	-0.0535	0.0235	-0.0683	30.0090	17.8972	2.0878	0.5563	0.3463	0.6742	-0.3407
2.57	-9.6657	-0.3244	-1.4978	-0.0611	0.0078	-0.0722	29.7177	17.9776	2.0620	0.5563	0.3461	0.6744	-0.3404
2.58	-9.6565	-0.3640	-1.4944	-0.0735	-0.0013	-0.0725	29.8945	17.6293	1.7661	0.5565	0.3459	0.6746	-0.3402
2.59	-9.6660	-0.4075	-1.4975	-0.0745	-0.0040	-0.0753	30.0313	17.8293	1.9244	0.5565	0.3455	0.6747	-0.3400
2.6	-9.6776	-0.4430	-1.4987	-0.0730	-0.0159	-0.0757	29.8657	17.6677	2.0883	0.5567	0.3453	0.6749	-0.3398
2.61	-9.6739	-0.4746	-1.4918	-0.0748	-0.0171	-0.0777	30.0644	17.7597	1.8066	0.5568	0.3449	0.6750	-0.3395
2.62	-9.6408	-0.5036	-1.4794	-0.0706	-0.0290	-0.0765	29.9708	17.7796	1.7368	0.5571	0.3446	0.6751	-0.3394
2.63	-9.5713	-0.5011	-1.4542	-0.0692	-0.0353	-0.0691	29.7679	17.9061	2.0946	0.5573	0.3443	0.6752	-0.3392
2.64	-9.6501	-0.5079	-1.4409	-0.0686	-0.0306	-0.0745	30.0592	18.0298	2.0927	0.5575	0.3440	0.6752	-0.3390
2.65	-9.6459	-0.5260	-1.4345	-0.0561	-0.0419	-0.0775	30.3686	18.0388	2.2259	0.5576	0.3439	0.6752	-0.3391
2.66	-9.5169	-0.5178	-1.3956	-0.0535	-0.0537	-0.0630	30.3200	17.8973	2.2969	0.5578	0.3437	0.6751	-0.3391
2.67	-9.5115	-0.5349	-1.3815	-0.0448	-0.0393	-0.0681	30.0658	17.8546	2.0555	0.5580	0.3434	0.6752	-0.3391
2.68	-9.5211	-0.5524	-1.3745	-0.0420	-0.0365	-0.0676	29.5728	17.8779	2.0153	0.5580	0.3431	0.6751	-0.3390
2.69	-9.5040	-0.5499	-1.3602	-0.0410	-0.0380	-0.0535	29.6366	17.8965	1.9093	0.5583	0.3429	0.6752	-0.3390
2.7	-9.4697	-0.5420	-1.3551	-0.0278	-0.0354	-0.0458	29.7298	17.8290	2.0889	0.5584	0.3427	0.6752	-0.3389
2.71	-9.4820	-0.5235	-1.3449	-0.0230	-0.0231	-0.0485	29.8845	18.0243	1.8400	0.5585	0.3425	0.6752	-0.3388
2.72	-9.4918	-0.5066	-1.3447	-0.0215	-0.0208	-0.0509	29.8291	18.1505	1.8061	0.5586	0.3424	0.6752	-0.3388
2.73	-9.4942	-0.5123	-1.3421	-0.0217	-0.0119	-0.0541	29.7114	18.0203	2.1130	0.5587	0.3423	0.6753	-0.3387
2.74	-9.4895	-0.5171	-1.3426	-0.0089	-0.0115	-0.0498	29.9032	18.0587	1.8424	0.5587	0.3422	0.6753	-0.3387
2.75	-9.4799	-0.4997	-1.3531	0.0005	-0.0043	-0.0529	29.6222	18.0577	1.8881	0.5587	0.3421	0.6753	-0.3387
2.76	-9.4872	-0.4859	-1.3601	-0.0019	-0.0047	-0.0546	29.5450	17.8260	2.1611	0.5587	0.3421	0.6754	-0.3388
2.77	-9.4980	-0.4677	-1.3704	0.0017	-0.0072	-0.0534	29.8665	17.7927	1.9143	0.5587	0.3420	0.6754	-0.3388
2.78	-9.5050	-0.4493	-1.3831	0.0052	0.0100	-0.0540	29.9321	17.9525	1.9623	0.5587	0.3420	0.6755	-0.3388
2.79	-9.5112	-0.4354	-1.3920	-0.0038	0.0078	-0.0467	29.8857	17.6300	1.7192	0.5586	0.3419	0.6755	-0.3387
2.8	-9.5452	-0.4253	-1.4017	-0.0012	0.0151	-0.0484	30.0544	17.6628	1.6492	0.5586	0.3419	0.6756	-0.3387
2.81	-9.5632	-0.4230	-1.4138	-0.0060	0.0186	-0.0527	30.0780	17.8393	1.8296	0.5585	0.3419	0.6757	-0.3386
2.82	-9.5790	-0.4235	-1.4242	-0.0226	0.0118	-0.0463	29.8160	18.0497	1.8345	0.5584	0.3418	0.6758	-0.3385
2.83	-9.5979	-0.4299	-1.4333	-0.0215	0.0136	-0.0452	29.7191	18.0351	1.8163	0.5585	0.3418	0.6760	-0.3384
2.84	-9.6031	-0.4341	-1.4375	-0.0249	0.0061	-0.0410	29.8853	17.6786	1.8644	0.5584	0.3417	0.6760	-0.3383
2.85	-9.6177	-0.4413	-1.4470	-0.0236	0.0079	-0.0392	29.9267	17.9408	2.0075	0.5585	0.3416	0.6761	-0.3382
2.86	-9.6209	-0.4463	-1.4529	-0.0307	-0.0011	-0.0415	29.8288	18.0712	2.0292	0.5585	0.3415	0.6761	-0.3380
2.87	-9.6265	-0.4502	-1.4545	-0.0403	0.0001	-0.0412	29.6837	17.9067	1.9822	0.5586	0.3415	0.6762	-0.3378
2.88	-9.6311	-0.4593	-1.4606	-0.0323	0.0029	-0.0423	29.8012	17.8908	1.9206	0.5587	0.3414	0.6763	-0.3376
2.89	-9.6169	-0.4635	-1.4589	-0.0319	-0.0131	-0.0425	29.5224	18.0661	2.1999	0.5588	0.3413	0.6763	-0.3374
2.9	-9.6152	-0.4675	-1.4552	-0.0210	-0.0108	-0.0457	29.6987	18.0437	2.2157	0.5590	0.3413	0.6763	-0.3373
2.91	-9.6103	-0.4701	-1.4545	-0.0221	-0.0201	-0.0468	29.7958	17.9206	1.7399	0.5591	0.3412	0.6763	-0.3372
2.92	-9.6005	-0.4820	-1.4476	-0.0234	-0.0242	-0.0460	29.5639	18.0315	1.8463	0.5592	0.3411	0.6763	-0.3371
2.93	-9.5830	-0.4855	-1.4369	-0.0217	-0.0272	-0.0397	29.7678	18.0624	2.0399	0.5593	0.3410	0.6761	-0.3369
2.94	-9.5659	-0.4802	-1.4264	-0.0216	-0.0278	-0.0376	29.7103	17.9317	2.0094	0.5596	0.3410	0.6762	-0.3368
2.95	-9.5483	-0.4770	-1.4099	-0.0206	-0.0322	-0.0415	29.7595	17.8267	1.9958	0.5597	0.3409	0.6761	-0.3367
2.96	-9.5454	-0.4714	-1.4024	-0.0153	-0.0330	-0.0382	29.9341	17.7044	1.8259	0.5599	0.3408	0.6761	-0.3367
2.97	-9.5390	-0.4665	-1.3923	-0.0014	-0.0314	-0.0443	29.7846	17.6859	1.8401	0.5600	0.3407	0.6760	-0.3367
2.98	-9.5317	-0.4597	-1.3920	0.0006	-0.0272	-0.0440	29.8758	17.5943	1.8397	0.5601	0.3406	0.6760	-0.3367
2.99	-9.5318	-0.4479	-1.3884	-0.0023	-0.0274	-0.0443	30.0620	17.8114	1.8320	0.5602	0.3406	0.6759	-0.3367
3	-9.5448	-0.4315	-1.3846	0.0042	-0.0176	-0.0440	29.8914	17.6825	1.8438	0.5601	0.3405	0.6758	-0.3367
3.01	-9.5422	-0.4231	-1.3722	0.0018	-0.0215	-0.0438	29.7138	17.8132	1.8222	0.5603	0.3405	0.6759	-0.3368
3.02	-9.5333	-0.4044	-1.3683	-0.0089	-0.0258	-0.0458	29.7305	17.7470	1.8492	0.5603	0.3404	0.6758	-0.3368
3.03	-9.5328	-0.3939	-1.3682	-0.0137	-0.0193	-0.0496	29.7378	17.8847	1.5308	0.5605	0.3403	0.6759	-0.3368
3.04	-9.5404	-0.3897	-1.3702	-0.0150	-0.0134	-0.0479	29.7226	17.7592	1.6772	0.5604	0.3402	0.6758	-0.3367
3.05	-9.5420	-0.3785	-1.3692	-0.0167	-0.0121	-0.0448	29.6248	17.8246	1.8365	0.5605	0.3401	0.6759	-0.3367
3.06	-9.5348	-0.3841	-1.3679	-0.0236	-0.0127	-0.0507	29.8327	17.8622	1.5311	0.5606	0.3400	0.6759	-0.3366
3.07	-9.5412	-0.3933	-1.3750	-0.0271	-0.0068	-0.0573	29.7560	17.9644	1.9237	0.5606	0.3398	0.6760	-0.3365
3.08	-9.5543	-0.4100	-1.3854	-0.0424	-0.0072	-0.0545	29.5078	17.9363	2.0426	0.5607	0.3396	0.6762	-0.3364
3.09	-9.5560	-0.4254	-1.3941	-0.0438	-0.0048	-0.0545	29.6097	17.8929	1.9716	0.5608	0.3394	0.6762	-0.3363
3.1	-9.5653	-0.4450	-1.3941	-0.0430	-0.0032	-0.0557	29.8711	17.9752	1.8679	0.5608	0.3393	0.6764	-0.3362
3.11	-9.5777	-0.4673	-1.3997	-0.0450	-0.0079	-0.0562	29.6930	18.0406	1.6934	0.5608	0.3390	0.6764	-0.3360
3.12	-9.5802	-0.4870	-1.3999	-0.0402	-0.0123	-0.0572	29.6745	18.0368	1.8018	0.5610	0.3388	0.6765	-0.3359
3.13	-9.5769	-0.5000	-1.4023	-0.0327	-0.0152	-0.0541	29.7130	17.7530	1.7680	0.5611	0.3387	0.6766	-0.3358
3.14	-9.5616	-0.5004	-1.4034	-0.0293	-0.0215	-0.0456	29.9086	17.8158	1.8098	0.5612	0.3386	0.6765	-0.3356
3.15	-9.5520	-0.5050	-1.3907	-0.0275	-0.0169	-0.0535	30.4546	17.7504	1.9329	0.5612	0.3386	0.6765	-0.3357
3.16	-9.5569	-0.4984	-1.3917	-0.0221	-0.0140	-0.0465	30.2676	17.7339	1.8406	0.5613	0.3385	0.6765	-0.3356
3.17	-9.5643	-0.4922	-1.3882	-0.0212	-0.0101	-0.0411	29.9807	17.7854	1.8372	0.5614	0.3385	0.6766	-0.3355
3.18	-9.5570	-0.4900	-1.3795	-0.0233	-0.0210	-0.0353	29.7790	17.6855	1.8291	0.5615	0.3384	0.6765	-0.3353
3.19	-9.5533	-0.4732	-1.3727	-0.0212	-0.0205	-0.0340	29.9266	18.0019	1.7669	0.5617	0.3383	0.6765	-0.3353
3.2	-9.5392	-0.4494	-1.3720	-0.0176	-0.0123	-0.0359	29.9031	17.9104	1.6127	0.5617	0.3383	0.6765	-0.3352
3.21	-9.5395	-0.4319	-1.3723	-0.0122	-0.0111	-0.0383	29.8077	17.6912	1.8463	0.5618	0.3382	0.6765	-0.3351
3.22	-9.5398	-0.4346	-1.3749	-0.0154	-0.0086	-0.0400	29.8747	17.8331	1.8078	0.5618	0.3381	0.6765	-0.3350
3.23	-9.5503	-0.4422	-1.3788	-0.0247	-0.0062	-0.0390	29.7980	17.8059	1.9393	0.5619	0.3381	0.6766	-0.3349
3.24	-9.5877	-0.4485	-1.3761	-0.0190	-0.0075	-0.0453	29.7441	18.0132	1.8896	0.5620	0.3380	0.6767	-0.3349
3.25	-9.5970	-0.4522	-1.3734	-0.0139	-0.0056	-0.0385	29.7550	17.8936	1.9136	0.5620	0.3379	0.6766	-0.3347
3.26	-9.6155	-0.4489	-1.3767	-0.0104	-0.0107	-0.0397	29.7590	17.8151	1.9079	0.5622	0.3380	0.6767	-0.3346
3.27	-9.6050	-0.4520	-1.3820	-0.0080	-0.0155	-0.0439	29.8866	17.9258	1.7466	0.5622	0.3379	0.6766	-0.3345
3.28	-9.5582	-0.4505	-1.3759	-0.0051	-0.0138	-0.0427	29.7963	17.9017	1.9846	0.5623	0.3379	0.6766	-0.3345
3.29	-9.5286	-0.4488	-1.3720	0.0017	-0.0174	-0.0346	29.9922	17.8116	2.0090	0.5623	0.3378	0.6765	-0.3345
3.3	-9.5280	-0.4423	-1.3745	0.0040	-0.0098	-0.0317	29.7180	17.9340	1.8835	0.5624	0.3379	0.6765	-0.3345
3.31	-9.5506	-0.4243	-1.3789	0.0028	-0.0026	-0.0336	29.5568	18.0250	2.0995	0.5624	0.3379	0.6765	-0.3344
3.32	-9.5691	-0.3943	-1.3804	0.0066	-0.0097	-0.0288	29.8508	17.9080	2.0318	0.5624	0.3379	0.6765	-0.3344
3.33	-9.5823	-0.3643	-1.3768	0.0043	-0.0103	-0.0298	29.9652	17.7043	1.7612	0.5626	0.3380	0.6765	-0.3343
3.34	-9.5804	-0.3413	-1.3750	0.0030	-0.0054	-0.0351	29.8657	17.7276	1.7423	0.5626	0.3381	0.6764	-0.3342
3.35	-9.5709	-0.3213	-1.3756	-0.0059	-0.0122	-0.0488	29.9001	17.7291	1.6541	0.5627	0.3381	0.6764	-0.3342
3.36	-9.5607	-0.3085	-1.3813	-0.0030	-0.0148	-0.0497	29.9391	17.7168	1.6197	0.5626	0.3379	0.6764	-0.3341
3.37	-9.5478	-0.3003	-1.3731	-0.0088	-0.0122	-0.0584	29.9432	17.6312	1.8781	0.5627	0.3379	0.6764	-0.3342
3.38	-9.5376	-0.2972	-1.3724	-0.0262	-0.0143	-0.0596	29.6956	17.6222	1.9466	0.5627	0.3377	0.6765	-0.3341
3.39	-9.5437	-0.3013	-1.3723	-0.0217	-0.0128	-0.0624	29.7220	17.7098	1.8154	0.5628	0.3375	0.6765	-0.3341
3.4	-9.5569	-0.3075	-1.3746	-0.0363	-0.0105	-0.0635	29.7712	17.8201	1.7406	0.5629	0.3373	0.6767	-0.3340
3.41	-9.5606	-0.3258	-1.3765	-0.0508	-0.0080	-0.0736	29.6180	17.8259	1.6622	0.5629	0.3370	0.6768	-0.3339
3.42	-9.5565	-0.3567	-1.3749	-0.0499	-0.0087	-0.0681	29.7268	17.7393	1.9225	0.5630	0.3368	0.6769	-0.3338
3.43	-9.5533	-0.3848	-1.3870	-0.0641	-0.0094	-0.0736	29.8611	17.7959	2.1296	0.5630	0.3365	0.6770	-0.3336
3.44	-9.5615	-0.4181	-1.3897	-0.0691	-0.0027	-0.0763	29.7107	17.8302	1.8707	0.5631	0.3362	0.6773	-0.3335
3.45	-9.5669	-0.4478	-1.3881	-0.0686	-0.0006	-0.0780	29.6697	17.6405	1.8883	0.5631	0.3358	0.6775	-0.3333
3.46	-9.5781	-0.4741	-1.3908	-0.0747	-0.0091	-0.0782	29.8696	17.9150	1.7792	0.5632	0.3355	0.6777	-0.3332
3.47	-9.5673	-0.5002	-1.3975	-0.0687	-0.0093	-0.0743	29.8226	17.8776	1.8338	0.5633	0.3351	0.6778	-0.3330
3.48	-9.5739	-0.5163	-1.3995	-0.0539	0.0008	-0.0713	29.7493	17.7156	1.9416	0.5634	0.3349	0.6779	-0.3328
3.49	-9.5707	-0.5370	-1.4035	-0.0519	-0.0005	-0.0754	29.9419	18.0387	2.0423	0.5635	0.3347	0.6781	-0.3327
3.5	-9.4935	-0.5198	-1.3899	-0.0449	-0.0011	-0.0635	29.8670	17.5625	1.9064	0.5635	0.3344	0.6782	-0.3325
3.51	-9.5985	-0.5196	-1.3856	-0.0353	-0.0038	-0.0666	29.6961	17.9167	1.7033	0.5636	0.3343	0.6784	-0.3325
3.52	-9.6301	-0.5250	-1.4053	-0.0337	-0.0099	-0.0688	29.8597	17.7971	2.0309	0.5636	0.3341	0.6784	-0.3323
3.53	-9.5188	-0.5010	-1.3828	-0.0260	-0.0127	-0.0638	29.9599	17.7535	1.9254	0.5637	0.3340	0.6786	-0.3323
3.54	-9.5379	-0.5212	-1.3824	-0.0230	-0.0107	-0.0676	29.9266	17.9349	1.8914	0.5637	0.3337	0.6785	-0.3322
3.55	-9.5713	-0.5302	-1.3874	-0.0287	-0.0064	-0.0574	29.9202	17.7739	1.9338	0.5637	0.3336	0.6787	-0.3322
3.56	-9.5571	-0.5189	-1.3881	-0.0230	-0.0029	-0.0451	29.9745	17.8447	2.0459	0.5638	0.3335	0.6787	-0.3321
3.57	-9.5413	-0.5152	-1.3831	-0.0191	-0.0067	-0.0405	29.7551	17.7335	1.8976	0.5638	0.3334	0.6787	-0.3320
3.58	-9.5621	-0.4878	-1.3827	-0.0207	-0.0088	-0.0384	29.6660	17.6952	1.9246	0.5640	0.3334	0.6788	-0.3319
3.59	-9.5723	-0.4792	-1.3947	-0.0087	-0.0029	-0.0429	29.7698	17.9378	1.8800	0.5640	0.3334	0.6788	-0.3317
3.6	-9.5809	-0.4846	-1.3911	-0.0120	0.0004	-0.0473	29.7770	17.9555	1.9842	0.5640	0.3334	0.6789	-0.3317
3.61	-9.5703	-0.4765	-1.3955	-0.0097	-0.0045	-0.0435	29.6305	17.7955	2.0017	0.5640	0.3333	0.6788	-0.3315
3.62	-9.5577	-0.4584	-1.3973	-0.0103	0.0031	-0.0439	29.7293	17.8021	2.0153	0.5641	0.3333	0.6789	-0.3314
3.63	-9.5597	-0.4506	-1.4006	-0.0106	-0.0019	-0.0557	29.6737	17.8683	1.9433	0.5641	0.3333	0.6789	-0.3313
3.64	-9.5542	-0.4352	-1.4004	-0.0158	-0.0009	-0.0539	29.8467	17.9003	1.9306	0.5641	0.3332	0.6789	-0.3313
3.65	-9.5657	-0.4167	-1.3984	-0.0212	-0.0022	-0.0447	30.2826	18.0156	2.2605	0.5641	0.3334	0.6789	-0.3313
3.66	-9.5720	-0.4157	-1.4032	-0.0205	-0.0065	-0.0483	30.1502	18.0797	2.2255	0.5641	0.3335	0.6788	-0.3313
3.67	-9.5748	-0.4150	-1.4022	-0.0244	-0.0017	-0.0488	29.9952	17.8280	1.9451	0.5642	0.3334	0.6789	-0.3312
3.68	-9.5745	-0.4217	-1.3958	-0.0275	-0.0073	-0.0446	29.8768	17.9602	2.0531	0.5642	0.3333	0.6789	-0.3310
3.69	-9.5755	-0.4370	-1.4007	-0.0284	-0.0111	-0.0471	29.8104	17.8505	1.8065	0.5644	0.3333	0.6790	-0.3309
3.7	-9.5753	-0.4425	-1.4033	-0.0267	-0.0129	-0.0433	30.0035	17.8429	1.7304	0.5644	0.3332	0.6790	-0.3307
3.71	-9.5683	-0.4525	-1.3985	-0.0244	-0.0104	-0.0394	30.1120	17.9338	1.8486	0.5646	0.3331	0.6790	-0.3306
3.72	-9.5810	-0.4602	-1.3994	-0.0244	-0.0101	-0.0381	29.9432	17.7953	1.8695	0.5647	0.3331	0.6790	-0.3304
3.73	-9.5686	-0.4671	-1.3995	-0.0249	-0.0115	-0.0402	30.0084	17.8007	1.4516	0.5648	0.3330	0.6790	-0.3303
3.74	-9.5523	-0.4666	-1.3942	-0.0232	-0.0157	-0.0407	29.9104	17.6677	1.7914	0.5649	0.3330	0.6790	-0.3301
3.75	-9.5649	-0.4573	-1.3931	-0.0189	-0.0151	-0.0482	29.8679	17.8369	1.9728	0.5649	0.3329	0.6790	-0.3300
3.76	-9.5669	-0.4578	-1.3919	-0.0240	-0.0152	-0.0466	30.0085	17.8783	1.8348	0.5651	0.3328	0.6791	-0.3299
3.77	-9.5561	-0.4502	-1.3855	-0.0227	-0.0152	-0.0443	29.9494	17.9759	1.8375	0.5652	0.3327	0.6790	-0.3298
3.78	-9.5543	-0.4442	-1.3790	-0.0193	-0.0104	-0.0411	29.7901	18.1453	1.6794	0.5653	0.3327	0.6791	-0.3298
3.79	-9.5557	-0.4439	-1.3865	-0.0192	-0.0134	-0.0481	29.8998	17.8517	2.0126	0.5653	0.3325	0.6791	-0.3297
3.8	-9.5450	-0.4327	-1.3861	-0.0246	-0.0088	-0.0452	29.7599	17.9384	1.8608	0.5654	0.3324	0.6792	-0.3296
3.81	-9.5299	-0.4248	-1.3869	-0.0231	-0.0052	-0.0479	29.8578	18.0106	1.7408	0.5654	0.3323	0.6792	-0.3295
3.82	-9.5252	-0.4235	-1.3861	-0.0198	0.0009	-0.0532	29.6000	17.9059	1.6953	0.5654	0.3322	0.6793	-0.3294
3.83	-9.5470	-0.4238	-1.3873	-0.0201	-0.0020	-0.0546	29.7490	17.8709	1.5455	0.5655	0.3321	0.6794	-0.3294
3.84	-9.5441	-0.4192	-1.3856	-0.0224	-0.0067	-0.0549	29.7862	18.0884	1.8902	0.5654	0.3319	0.6794	-0.3293
3.85	-9.5456	-0.4154	-1.3921	-0.0240	-0.0017	-0.0511	29.6691	17.9873	1.9805	0.5655	0.3318	0.6796	-0.3293
3.86	-9.5573	-0.4245	-1.3922	-0.0231	-0.0004	-0.0498	29.8161	18.0142	1.8199	0.5654	0.3317	0.6795	-0.3291
3.87	-9.5694	-0.4269	-1.3970	-0.0232	-0.0004	-0.0503	29.8014	17.9127	1.8920	0.5655	0.3316	0.6797	-0.3291
3.88	-9.5648	-0.4303	-1.4045	-0.0236	-0.0079	-0.0485	29.9492	17.8391	1.7653	0.5655	0.3315	0.6797	-0.3290
3.89	-9.5647	-0.4288	-1.4079	-0.0236	-0.0019	-0.0548	29.7589	17.8613	1.8476	0.5655	0.3314	0.6798	-0.3289
3.9	-9.5671	-0.4300	-1.4086	-0.0240	-0.0022	-0.0539	30.0239	17.6914	1.8429	0.5656	0.3312	0.6799	-0.3289
3.91	-9.5657	-0.4350	-1.4141	-0.0238	-0.0067	-0.0523	30.1877	17.8605	1.9092	0.5656	0.3311	0.6800	-0.3288
3.92	-9.5670	-0.4393	-1.4174	-0.0235	-0.0029	-0.0508	29.9361	17.7815	1.6831	0.5657	0.3311	0.6800	-0.3286
3.93	-9.5693	-0.4413	-1.4219	-0.0236	-0.0045	-0.0552	30.0980	17.8353	1.8299	0.5657	0.3310	0.6800	-0.3285
3.94	-9.5739	-0.4472	-1.4246	-0.0241	-0.0042	-0.0494	29.9194	17.7864	2.0923	0.5658	0.3309	0.6801	-0.3284
3.95	-9.5776	-0.4478	-1.4341	-0.0245	-0.0114	-0.0480	29.7569	17.8542	1.6848	0.5659	0.3308	0.6801	-0.3282
3.96	-9.5910	-0.4558	-1.4305	-0.0232	-0.0111	-0.0449	29.8270	17.6628	1.9473	0.5660	0.3308	0.6802	-0.3281
3.97	-9.5919	-0.4578	-1.4310	-0.0236	-0.0168	-0.0429	29.7684	17.5260	1.9596	0.5661	0.3307	0.6801	-0.3280
3.98	-9.5868	-0.4659	-1.4272	-0.0223	-0.0182	-0.0424	29.8380	17.6803	1.9424	0.5662	0.3307	0.6801	-0.3278
3.99	-9.5811	-0.4646	-1.4270	-0.0207	-0.0113	-0.0446	29.7080	17.7824	1.7518	0.5663	0.3307	0.6802	-0.3277
4	-9.5725	-0.4611	-1.4338	-0.0256	-0.0108	-0.0457	29.7894	17.8825	1.8413	0.5663	0.3306	0.6801	-0.3276
4.01	-9.5651	-0.4602	-1.4201	-0.0219	-0.0156	-0.0450	29.9034	18.0365	1.9664	0.5665	0.3306	0.6802	-0.3275
4.02	-9.5571	-0.4564	-1.4169	-0.0157	-0.0126	-0.0466	29.7587	18.0489	1.9284	0.5665	0.3305	0.6802	-0.3274
4.03	-9.5519	-0.4510	-1.4120	-0.0126	-0.0125	-0.0387	29.8405	17.9499	1.9530	0.5666	0.3305	0.6802	-0.3273
4.04	-9.5440	-0.4419	-1.4080	-0.0163	-0.0151	-0.0438	29.6871	18.0971	1.9349	0.5666	0.3304	0.6802	-0.3272
4.05	-9.5339	-0.4355	-1.4056	-0.0187	-0.0187	-0.0463	29.6130	17.9412	1.8236	0.5667	0.3303	0.6802	-0.3272
4.06	-9.5405	-0.4304	-1.4034	-0.0222	-0.0183	-0.0410	29.8245	18.0479	1.8841	0.5668	0.3302	0.6802	-0.3271
4.07	-9.5617	-0.4267	-1.3961	-0.0225	-0.0170	-0.0410	30.0174	18.1028	1.6891	0.5668	0.3302	0.6802	-0.3270
4.08	-9.5642	-0.4251	-1.3974	-0.0182	-0.0217	-0.0414	29.8401	17.9447	1.6269	0.5670	0.3302	0.6803	-0.3269
4.09	-9.5722	-0.4243	-1.3993	-0.0155	-0.0149	-0.0444	29.9672	17.9044	1.7404	0.5671	0.3301	0.6802	-0.3268
4.1	-9.5797	-0.4098	-1.4013	-0.0203	-0.0119	-0.0392	29.9134	17.8371	1.7389	0.5672	0.3302	0.6802	-0.3267
4.11	-9.5690	-0.3908	-1.4015	-0.0083	-0.0137	-0.0441	29.8819	17.7995	1.8923	0.5672	0.3301	0.6801	-0.3265
4.12	-9.5613	-0.3873	-1.3924	-0.0115	-0.0195	-0.0484	29.9819	17.7039	1.7869	0.5673	0.3301	0.6802	-0.3265
4.13	-9.5467	-0.3920	-1.3943	-0.0219	-0.0165	-0.0512	29.8456	17.7574	1.6918	0.5674	0.3300	0.6802	-0.3264
4.14	-9.5630	-0.3982	-1.3939	-0.0202	-0.0118	-0.0581	29.9607	17.9027	2.0866	0.5674	0.3299	0.6802	-0.3264
4.15	-9.5785	-0.4039	-1.3884	-0.0235	-0.0143	-0.0525	30.1077	17.9972	2.0074	0.5675	0.3298	0.6802	-0.3263
4.16	-9.5881	-0.4064	-1.3837	-0.0233	-0.0158	-0.0515	30.1359	17.8599	2.0631	0.5676	0.3298	0.6802	-0.3262
4.17	-9.6042	-0.4174	-1.3875	-0.0302	-0.0157	-0.0523	29.9875	17.8723	1.8391	0.5677	0.3297	0.6803	-0.3261
4.18	-9.5608	-0.4335	-1.3889	-0.0244	-0.0230	-0.0538	29.8363	17.9203	2.0322	0.5677	0.3296	0.6802	-0.3259
4.19	-9.5238	-0.4464	-1.3838	-0.0298	-0.0195	-0.0474	29.8040	17.9128	1.7705	0.5679	0.3295	0.6803	-0.3259
4.2	-9.5190	-0.4638	-1.3818	-0.0298	-0.0163	-0.0465	29.8523	17.8655	1.7752	0.5679	0.3293	0.6803	-0.3258
4.21	-9.5293	-0.4755	-1.3858	-0.0264	-0.0142	-0.0498	29.6406	17.7567	1.9234	0.5680	0.3292	0.6804	-0.3257
4.22	-9.5452	-0.4650	-1.3914	-0.0269	-0.0075	-0.0420	29.7743	18.0387	1.8765	0.5681	0.3291	0.6804	-0.3256
4.23	-9.5585	-0.4485	-1.3821	-0.0133	-0.0063	-0.0465	29.8988	18.0568	1.8365	0.5681	0.3291	0.6804	-0.3255
4.24	-9.5695	-0.4369	-1.3902	-0.0139	0.0003	-0.0481	29.9409	17.9373	1.8331	0.5681	0.3290	0.6805	-0.3255
4.25	-9.5570	-0.4289	-1.3939	-0.0113	-0.0071	-0.0531	29.6324	17.7759	1.8429	0.5681	0.3289	0.6805	-0.3254
4.26	-9.5489	-0.4146	-1.3960	-0.0028	-0.0050	-0.0541	29.7085	17.9657	1.6343	0.5681	0.3289	0.6806	-0.3255
4.27	-9.5474	-0.4009	-1.3932	-0.0008	-0.0061	-0.0551	29.7590	17.7630	1.7700	0.5681	0.3289	0.6806	-0.3255
4.28	-9.5450	-0.3873	-1.3945	-0.0054	-0.0098	-0.0552	29.8173	17.5697	1.8094	0.5681	0.3288	0.6806	-0.3255
4.29	-9.5560	-0.3693	-1.3977	-0.0157	-0.0113	-0.0579	29.9557	17.7658	1.7165	0.5681	0.3287	0.6806	-0.3255
4.3	-9.5730	-0.3579	-1.3927	-0.0215	-0.0068	-0.0645	29.8170	17.5762	1.4157	0.5681	0.3286	0.6807	-0.3255
4.31	-9.5756	-0.3551	-1.3923	-0.0228	-0.0107	-0.0630	30.0559	17.7112	1.5250	0.5682	0.3285	0.6808	-0.3254
4.32	-9.5714	-0.3679	-1.3883	-0.0386	-0.0061	-0.0662	29.9297	17.7306	1.7285	0.5681	0.3283	0.6808	-0.3253
4.33	-9.5804	-0.3911	-1.3957	-0.0406	-0.0123	-0.0630	29.9531	17.7160	1.6950	0.5683	0.3281	0.6810	-0.3253
4.34	-9.5815	-0.4038	-1.3931	-0.0491	-0.0124	-0.0627	29.9074	17.8819	1.6925	0.5684	0.3280	0.6810	-0.3251
4.35	-9.5797	-0.4307	-1.3943	-0.0497	-0.0208	-0.0561	29.7904	17.8980	1.7470	0.5685	0.3278	0.6811	-0.3249
4.36	-9.5833	-0.4563	-1.3996	-0.0473	-0.0156	-0.0633	29.6325	17.9118	1.8987	0.5686	0.3276	0.6810	-0.3247
4.37	-9.5848	-0.4735	-1.3995	-0.0486	-0.0185	-0.0635	29.9546	17.8707	1.9930	0.5687	0.3275	0.6812	-0.3246
4.38	-9.5844	-0.4950	-1.3993	-0.0466	-0.0198	-0.0709	29.6710	17.6393	1.9496	0.5688	0.3272	0.6812	-0.3245
4.39	-9.5963	-0.5125	-1.4026	-0.0494	-0.0167	-0.0631	29.8318	17.9154	1.7672	0.5689	0.3271	0.6813	-0.3243
4.4	-9.5419	-0.5107	-1.3935	-0.0374	-0.0203	-0.0554	29.8399	17.8007	1.8168	0.5691	0.3269	0.6813	-0.3242
4.41	-9.5409	-0.5015	-1.3734	-0.0263	-0.0229	-0.0592	29.7802	17.8180	1.8833	0.5691	0.3268	0.6813	-0.3242
4.42	-9.6526	-0.5063	-1.3837	-0.0215	-0.0171	-0.0683	29.8343	17.7992	1.6936	0.5692	0.3267	0.6814	-0.3241
4.43	-9.5650	-0.4982	-1.3664	-0.0259	-0.0276	-0.0609	29.6455	17.8914	1.7586	0.5693	0.3265	0.6813	-0.3240
4.44	-9.5173	-0.4977	-1.3550	-0.0218	-0.0225	-0.0664	29.6684	17.9154	1.9591	0.5694	0.3264	0.6814	-0.3241
4.45	-9.5697	-0.5089	-1.3606	-0.0219	-0.0178	-0.0633	29.7254	17.8651	1.8986	0.5694	0.3262	0.6814	-0.3240
4.46	-9.5479	-0.5171	-1.3570	-0.0222	-0.0276	-0.0489	30.0397	17.7251	1.6770	0.5695	0.3261	0.6814	-0.3240
4.47	-9.5066	-0.4812	-1.3362	-0.0250	-0.0264	-0.0402	30.0341	17.7185	1.7943	0.5696	0.3260	0.6814	-0.3239
4.48	-9.5453	-0.4839	-1.3450	-0.0174	-0.0108	-0.0404	30.0006	17.7403	1.7098	0.5697	0.3260	0.6814	-0.3238
4.49	-9.5689	-0.4573	-1.3416	-0.0113	-0.0102	-0.0398	29.9101	17.8918	2.0343	0.5698	0.3260	0.6814	-0.3238
4.5	-9.5696	-0.4496	-1.3413	-0.0250	-0.0116	-0.0460	29.9745	17.9174	1.7967	0.5698	0.3259	0.6814	-0.3237
4.51	-9.5543	-0.4788	-1.3484	-0.0175	-0.0175	-0.0509	29.6995	17.7757	1.6579	0.5699	0.3258	0.6815	-0.3237
4.52	-9.5453	-0.4645	-1.3437	-0.0176	-0.0088	-0.0524	29.5258	17.7147	1.9229	0.5699	0.3257	0.6815	-0.3236
4.53	-9.5473	-0.4520	-1.3376	-0.0145	-0.0140	-0.0485	29.7107	17.9708	1.7155	0.5700	0.3257	0.6815	-0.3236
4.54	-9.5512	-0.4621	-1.3484	-0.0210	-0.0102	-0.0380	29.9792	18.0948	1.6953	0.5700	0.3256	0.6815	-0.3235
4.55	-9.5516	-0.4503	-1.3509	-0.0227	-0.0126	-0.0446	30.0213	17.8256	1.7851	0.5701	0.3255	0.6815	-0.3234
4.56	-9.5558	-0.4513	-1.3499	-0.0212	-0.0068	-0.0435	29.6830	17.8147	1.4989	0.5701	0.3255	0.6816	-0.3233
4.57	-9.5650	-0.4501	-1.3474	-0.0236	-0.0066	-0.0415	29.6731	17.7845	1.8262	0.5701	0.3254	0.6816	-0.3232
4.58	-9.5663	-0.4537	-1.3526	-0.0217	-0.0115	-0.0428	29.5680	18.0368	1.7590	0.5702	0.3254	0.6817	-0.3232
4.59	-9.5726	-0.4590	-1.3567	-0.0211	-0.0077	-0.0403	29.7481	17.9255	1.6825	0.5702	0.3253	0.6816	-0.3231
4.6	-9.5839	-0.4622	-1.3611	-0.0179	-0.0052	-0.0400	29.7488	17.9080	1.6990	0.5703	0.3253	0.6817	-0.3230
4.61	-9.5827	-0.4613	-1.3553	-0.0218	-0.0122	-0.0398	29.8607	17.7938	1.7063	0.5703	0.3252	0.6816	-0.3228
4.62	-9.5915	-0.4587	-1.3580	-0.0222	-0.0120	-0.0404	29.8310	17.9543	1.6791	0.5705	0.3252	0.6817	-0.3227
4.63	-9.5904	-0.4554	-1.3613	-0.0214	-0.0132	-0.0381	29.7276	17.9543	1.5718	0.5705	0.3252	0.6817	-0.3226
4.64	-9.5768	-0.4479	-1.3566	-0.0215	-0.0219	-0.0324	29.8626	17.8672	1.9827	0.5707	0.3252	0.6816	-0.3224
4.65	-9.5667	-0.4357	-1.3566	-0.0071	-0.0269	-0.0351	30.4051	17.9345	1.9806	0.5707	0.3254	0.6815	-0.3225
4.66	-9.5632	-0.4200	-1.3543	-0.0065	-0.0216	-0.0350	30.5623	17.8675	1.8353	0.5706	0.3257	0.6813	-0.3227
4.67	-9.5634	-0.4098	-1.3475	-0.0021	-0.0133	-0.0414	30.1896	17.7549	1.6648	0.5707	0.3258	0.6812	-0.3228
4.68	-9.5547	-0.3967	-1.3472	-0.0047	-0.0155	-0.0378	29.8780	17.6395	1.6721	0.5706	0.3257	0.6811	-0.3227
4.69	-9.5528	-0.3939	-1.3441	-0.0139	-0.0169	-0.0417	29.7076	17.6469	1.6854	0.5708	0.3257	0.6812	-0.3227
4.7	-9.5517	-0.3893	-1.3414	-0.0146	-0.0126	-0.0413	29.7338	17.7712	1.6721	0.5708	0.3257	0.6812	-0.3227
4.71	-9.5561	-0.3874	-1.3413	-0.0189	-0.0130	-0.0497	29.9720	17.6211	1.6867	0.5709	0.3256	0.6812	-0.3226
4.72	-9.5345	-0.3865	-1.3424	-0.0213	-0.0179	-0.0471	29.9902	17.7319	1.6644	0.5709	0.3255	0.6812	-0.3226
4.73	-9.5311	-0.3923	-1.3405	-0.0233	-0.0087	-0.0475	29.7281	17.9729	1.9600	0.5710	0.3254	0.6813	-0.3225
4.74	-9.5441	-0.3992	-1.3441	-0.0218	-0.0057	-0.0507	29.9067	17.9788	1.8654	0.5710	0.3253	0.6813	-0.3224
4.75	-9.5448	-0.4041	-1.3481	-0.0267	-0.0050	-0.0512	29.8110	17.6760	1.5444	0.5710	0.3252	0.6813	-0.3223
4.76	-9.5527	-0.4075	-1.3498	-0.0253	0.0046	-0.0535	29.6881	17.9757	1.7156	0.5710	0.3252	0.6815	-0.3223
4.77	-9.5581	-0.4156	-1.3575	-0.0226	-0.0002	-0.0523	29.5988	17.7802	1.7789	0.5710	0.3251	0.6815	-0.3222
4.78	-9.5643	-0.4160	-1.3539	-0.0243	0.0005	-0.0551	29.9204	17.7535	1.7742	0.5711	0.3250	0.6817	-0.3221
4.79	-9.5614	-0.4147	-1.3570	-0.0219	-0.0010	-0.0568	29.7736	17.9326	1.6717	0.5710	0.3249	0.6816	-0.3220
4.8	-9.5593	-0.4158	-1.3637	-0.0255	0.0022	-0.0556	29.7379	17.8823	1.7896	0.5710	0.3248	0.6818	-0.3220
4.81	-9.5760	-0.4140	-1.3674	-0.0247	0.0046	-0.0580	29.6002	18.0940	1.7283	0.5710	0.3247	0.6819	-0.3219
4.82	-9.5691	-0.4199	-1.3733	-0.0226	-0.0032	-0.0554	29.5493	17.9896	1.5314	0.5710	0.3246	0.6819	-0.3218
4.83	-9.5699	-0.4158	-1.3714	-0.0227	-0.0049	-0.0541	29.9812	17.8924	1.8386	0.5710	0.3245	0.6820	-0.3218
4.84	-9.5843	-0.4202	-1.3868	-0.0235	-0.0033	-0.0545	30.0989	17.7537	1.8126	0.5710	0.3244	0.6820	-0.3217
4.85	-9.5863	-0.4268	-1.3842	-0.0246	-0.0050	-0.0535	29.7847	17.7161	1.5559	0.5711	0.3244	0.6821	-0.3216
4.86	-9.5786	-0.4281	-1.3872	-0.0275	-0.0073	-0.0549	29.9180	17.7244	1.6004	0.5711	0.3243	0.6821	-0.3215
4.87	-9.5889	-0.4389	-1.3871	-0.0287	-0.0130	-0.0544	29.7219	17.6184	1.6939	0.5712	0.3243	0.6821	-0.3214
4.88	-9.5950	-0.4439	-1.3874	-0.0276	-0.0112	-0.0541	29.8048	17.6366	1.6676	0.5713	0.3242	0.6822	-0.3213
4.89	-9.5865	-0.4548	-1.3848	-0.0258	-0.0094	-0.0513	29.9292	17.6460	1.7415	0.5713	0.3241	0.6822	-0.3211
4.9	-9.5804	-0.4584	-1.3823	-0.0263	-0.0158	-0.0537	29.8743	17.6138	1.9122	0.5714	0.3241	0.6822	-0.3211
4.91	-9.5832	-0.4573	-1.3858	-0.0230	-0.0178	-0.0545	29.8848	17.6987	1.6605	0.5715	0.3240	0.6822	-0.3210
4.92	-9.5781	-0.4606	-1.3738	-0.0227	-0.0215	-0.0551	29.7412	18.1083	1.7866	0.5716	0.3239	0.6822	-0.3209
4.93	-9.5654	-0.4555	-1.3706	-0.0225	-0.0238	-0.0534	29.9464	17.9797	1.9837	0.5717	0.3238	0.6821	-0.3208
4.94	-9.5695	-0.4450	-1.3671	-0.0223	-0.0151	-0.0499	29.7183	17.9910	1.7129	0.5718	0.3238	0.6822	-0.3207
4.95	-9.5690	-0.4350	-1.3618	-0.0235	-0.0169	-0.0549	29.7915	17.9717	1.7888	0.5719	0.3238	0.6822	-0.3206
4.96	-9.5586	-0.4216	-1.3579	-0.0222	-0.0239	-0.0523	29.7219	17.7768	1.7457	0.5720	0.3237	0.6822	-0.3206
4.97	-9.5361	-0.4151	-1.3514	-0.0160	-0.0202	-0.0556	29.7380	17.9373	1.8728	0.5720	0.3236	0.6821	-0.3206
4.98	-9.5425	-0.4066	-1.3483	-0.0179	-0.0207	-0.0498	29.6392	17.9643	1.8509	0.5721	0.3235	0.6821	-0.3206
4.99	-9.5561	-0.4042	-1.3404	-0.0231	-0.0136	-0.0530	29.7467	17.8858	1.8571	0.5721	0.3234	0.6822	-0.3205
5	-9.5440	-0.4193	-1.3513	-0.0203	-0.0136	-0.0506	29.7528	17.8450	1.8771	0.5721	0.3233	0.6821	-0.3204
5.01	-9.5627	-0.4197	-1.3471	-0.0203	-0.0150	-0.0373	29.5899	17.5750	1.6290	0.5723	0.3233	0.6822	-0.3204
5.02	-9.5653	-0.4070	-1.3423	-0.0243	-0.0182	-0.0463	30.0843	17.6994	1.7455	0.5723	0.3232	0.6822	-0.3203
5.03	-9.5738	-0.4046	-1.3438	-0.0217	-0.0152	-0.0502	30.0202	17.7397	1.7408	0.5724	0.3231	0.6823	-0.3203
5.04	-9.5577	-0.4133	-1.3443	-0.0211	-0.0102	-0.0593	29.7719	17.7091	1.5300	0.5724	0.3230	0.6822	-0.3202
5.05	-9.5534	-0.4188	-1.3421	-0.0290	-0.0045	-0.0608	29.9423	17.7383	1.6585	0.5724	0.3229	0.6823	-0.3202
5.06	-9.5778	-0.4380	-1.3409	-0.0257	-0.0080	-0.0671	29.8088	17.5126	1.6206	0.5724	0.3227	0.6824	-0.3202
5.07	-9.5806	-0.4446	-1.3402	-0.0221	-0.0094	-0.0574	29.8170	17.6986	1.6395	0.5724	0.3226	0.6824	-0.3201
5.08	-9.5909	-0.4391	-1.3334	-0.0237	-0.0123	-0.0537	29.6731	18.0264	1.8065	0.5726	0.3226	0.6825	-0.3200
5.09	-9.5928	-0.4465	-1.3328	-0.0219	-0.0056	-0.0546	29.8001	17.8519	1.5703	0.5726	0.3225	0.6825	-0.3199
5.1	-9.5492	-0.4530	-1.3286	-0.0250	-0.0183	-0.0550	29.9320	17.9338	1.4141	0.5727	0.3224	0.6825	-0.3199
5.11	-9.5193	-0.4625	-1.3292	-0.0230	-0.0183	-0.0507	29.8718	17.7909	1.8068	0.5727	0.3223	0.6825	-0.3198
5.12	-9.5157	-0.4738	-1.3343	-0.0247	-0.0054	-0.0475	29.9002	17.9359	1.7338	0.5728	0.3222	0.6826	-0.3197
5.13	-9.5398	-0.4780	-1.3422	-0.0272	-0.0052	-0.0453	29.5468	17.6874	1.6701	0.5728	0.3222	0.6826	-0.3196
5.14	-9.5551	-0.4729	-1.3434	-0.0213	-0.0023	-0.0456	29.9007	17.8674	1.9572	0.5728	0.3221	0.6826	-0.3195
5.15	-9.5667	-0.4512	-1.3517	-0.0244	0.0049	-0.0421	30.4473	18.1207	2.0467	0.5728	0.3221	0.6827	-0.3194
5.16	-9.5627	-0.4423	-1.3543	-0.0197	0.0019	-0.0409	30.2334	18.0550	2.0453	0.5728	0.3221	0.6828	-0.3193
5.17	-9.5470	-0.4352	-1.3550	-0.0233	-0.0063	-0.0550	30.0640	17.7933	1.8339	0.5729	0.3220	0.6828	-0.3193
5.18	-9.5408	-0.4252	-1.3572	-0.0168	-0.0041	-0.0549	29.7632	17.8334	1.7802	0.5728	0.3219	0.6828	-0.3192
5.19	-9.5322	-0.4152	-1.3621	-0.0186	0.0032	-0.0568	29.7424	17.9126	1.8165	0.5728	0.3219	0.6830	-0.3192
5.2	-9.5324	-0.4027	-1.3619	-0.0098	0.0009	-0.0532	29.8821	17.7656	1.6078	0.5728	0.3218	0.6830	-0.3192
5.21	-9.5550	-0.3926	-1.3625	-0.0112	0.0014	-0.0542	29.9155	17.8675	1.6865	0.5728	0.3218	0.6830	-0.3192
5.22	-9.5645	-0.3809	-1.3692	-0.0228	-0.0007	-0.0582	29.9542	17.5824	1.8220	0.5728	0.3217	0.6831	-0.3191
5.23	-9.5674	-0.3790	-1.3717	-0.0213	0.0053	-0.0586	29.9532	17.8294	1.6748	0.5727	0.3216	0.6832	-0.3190
5.24	-9.5660	-0.3847	-1.3776	-0.0267	-0.0025	-0.0561	30.1074	17.7034	1.7374	0.5728	0.3215	0.6833	-0.3190
5.25	-9.5807	-0.4007	-1.3853	-0.0286	0.0024	-0.0585	30.1665	17.5959	1.6845	0.5727	0.3214	0.6833	-0.3189
5.26	-9.5862	-0.4149	-1.3930	-0.0369	0.0003	-0.0616	29.7474	17.7728	1.8568	0.5728	0.3213	0.6835	-0.3188
5.27	-9.5800	-0.4234	-1.3940	-0.0443	-0.0023	-0.0556	29.7183	17.6807	1.7180	0.5728	0.3212	0.6835	-0.3187
5.28	-9.5911	-0.4433	-1.4058	-0.0365	0.0003	-0.0628	29.9913	17.8274	1.7826	0.5729	0.3211	0.6837	-0.3186
5.29	-9.5948	-0.4546	-1.4091	-0.0324	-0.0014	-0.0601	29.8419	17.7215	1.8037	0.5728	0.3210	0.6836	-0.3184
5.3	-9.6018	-0.4584	-1.4181	-0.0390	-0.0066	-0.0663	29.7219	17.6107	1.8271	0.5729	0.3209	0.6837	-0.3183
5.31	-9.6116	-0.4710	-1.4228	-0.0446	-0.0041	-0.0639	29.6669	17.8562	1.7230	0.5730	0.3208	0.6838	-0.3182
5.32	-9.5563	-0.4629	-1.4095	-0.0273	-0.0038	-0.0565	29.6673	17.9895	1.7688	0.5730	0.3207	0.6838	-0.3180
5.33	-9.6241	-0.4509	-1.4032	-0.0262	-0.0024	-0.0653	29.8024	18.0028	1.9123	0.5731	0.3206	0.6840	-0.3180
5.34	-9.7020	-0.4576	-1.4060	-0.0222	-0.0178	-0.0688	29.7110	17.9496	1.7494	0.5731	0.3205	0.6840	-0.3179
5.35	-9.5815	-0.4462	-1.3905	-0.0308	-0.0340	-0.0620	29.7085	17.6581	2.1027	0.5732	0.3204	0.6840	-0.3179
5.36	-9.5555	-0.4635	-1.3733	-0.0285	-0.0268	-0.0605	29.8901	17.9501	1.9752	0.5733	0.3202	0.6839	-0.3178
5.37	-9.5836	-0.4917	-1.3724	-0.0313	-0.0261	-0.0645	29.8279	17.9537	1.8738	0.5734	0.3201	0.6840	-0.3178
5.38	-9.5667	-0.5005	-1.3581	-0.0361	-0.0283	-0.0486	29.7328	17.7473	1.7105	0.5735	0.3200	0.6839	-0.3177
5.39	-9.5267	-0.5029	-1.3487	-0.0228	-0.0286	-0.0418	29.8434	17.6202	1.7887	0.5736	0.3199	0.6839	-0.3176
5.4	-9.5273	-0.4832	-1.3430	-0.0230	-0.0242	-0.0427	29.9586	17.7670	1.8158	0.5738	0.3199	0.6839	-0.3176
5.41	-9.5500	-0.4851	-1.3418	-0.0213	-0.0262	-0.0418	29.9456	17.7789	1.6583	0.5738	0.3198	0.6838	-0.3175
5.42	-9.5472	-0.5004	-1.3415	-0.0227	-0.0287	-0.0470	30.1479	17.7619	1.7957	0.5740	0.3197	0.6838	-0.3175
5.43	-9.5407	-0.5029	-1.3379	-0.0158	-0.0145	-0.0476	30.0197	17.8495	1.8075	0.5740	0.3196	0.6837	-0.3174
5.44	-9.5306	-0.4964	-1.3356	-0.0108	-0.0098	-0.0502	30.0535	17.6875	1.7977	0.5741	0.3196	0.6838	-0.3174
5.45	-9.5239	-0.4849	-1.3342	-0.0060	-0.0115	-0.0507	29.8260	17.9180	1.9832	0.5740	0.3196	0.6838	-0.3174
5.46	-9.5318	-0.4691	-1.3337	0.0015	-0.0126	-0.0430	30.0163	17.8734	1.9327	0.5741	0.3196	0.6838	-0.3174
5.47	-9.5381	-0.4530	-1.3338	0.0005	-0.0075	-0.0373	30.0455	18.0259	1.6767	0.5741	0.3196	0.6837	-0.3174
5.48	-9.5416	-0.4478	-1.3353	-0.0006	-0.0047	-0.0380	29.7882	18.0587	1.7125	0.5741	0.3197	0.6838	-0.3174
5.49	-9.5447	-0.4337	-1.3409	-0.0073	0.0004	-0.0451	29.5316	17.9586	1.9088	0.5741	0.3197	0.6838	-0.3174
5.5	-9.5589	-0.4322	-1.3529	-0.0185	0.0005	-0.0461	29.8696	18.0182	1.7702	0.5740	0.3196	0.6838	-0.3173
5.51	-9.5845	-0.4344	-1.3560	-0.0212	0.0020	-0.0432	29.8274	17.7672	2.0570	0.5741	0.3196	0.6839	-0.3172
5.52	-9.5810	-0.4340	-1.3595	-0.0137	0.0004	-0.0415	29.6504	17.8492	1.8668	0.5741	0.3196	0.6839	-0.3171
5.53	-9.5763	-0.4312	-1.3524	-0.0194	0.0001	-0.0375	29.8584	17.7621	1.8237	0.5741	0.3196	0.6840	-0.3171
5.54	-9.6137	-0.4331	-1.3721	-0.0154	0.0026	-0.0452	29.5193	18.0386	2.0294	0.5741	0.3196	0.6839	-0.3169
5.55	-9.5836	-0.4233	-1.3733	-0.0135	-0.0089	-0.0344	29.6671	17.9219	1.8126	0.5741	0.3197	0.6840	-0.3168
5.56	-9.5874	-0.4176	-1.3631	-0.0207	-0.0029	-0.0376	29.9736	17.7774	1.6229	0.5742	0.3197	0.6840	-0.3167
5.57	-9.5959	-0.4248	-1.3694	-0.0215	-0.0086	-0.0363	29.5977	17.8232	1.6081	0.5742	0.3197	0.6839	-0.3165
5.58	-9.5884	-0.4091	-1.3665	-0.0204	-0.0092	-0.0396	30.0576	17.8182	1.7187	0.5744	0.3197	0.6840	-0.3165
5.59	-9.5898	-0.4074	-1.3634	-0.0215	-0.0148	-0.0393	30.0725	17.7869	1.7234	0.5744	0.3197	0.6839	-0.3163
5.6	-9.5834	-0.4013	-1.3591	-0.0213	-0.0159	-0.0489	29.8524	17.6922	1.6490	0.5745	0.3197	0.6840	-0.3162
5.61	-9.5828	-0.3927	-1.3572	-0.0151	-0.0125	-0.0469	29.7526	17.7525	1.5879	0.5745	0.3197	0.6839	-0.3161
5.62	-9.5833	-0.3992	-1.3550	-0.0202	-0.0127	-0.0531	29.8015	17.6866	1.7711	0.5746	0.3196	0.6839	-0.3161
5.63	-9.5849	-0.3941	-1.3513	-0.0185	-0.0198	-0.0545	30.0033	17.6415	1.8079	0.5747	0.3196	0.6839	-0.3160
5.64	-9.5813	-0.3959	-1.3473	-0.0216	-0.0178	-0.0516	29.9279	17.9042	1.8085	0.5748	0.3195	0.6839	-0.3159
5.65	-9.5836	-0.4036	-1.3446	-0.0248	-0.0253	-0.0553	30.5169	17.9175	1.7849	0.5749	0.3195	0.6839	-0.3159
5.66	-9.5836	-0.3988	-1.3444	-0.0218	-0.0240	-0.0525	30.5106	17.8837	1.7083	0.5749	0.3196	0.6837	-0.3159
5.67	-9.5803	-0.4052	-1.3445	-0.0210	-0.0220	-0.0565	30.0371	17.8640	1.7902	0.5750	0.3195	0.6838	-0.3159
5.68	-9.5722	-0.4079	-1.3416	-0.0216	-0.0184	-0.0556	29.8541	17.9021	1.6219	0.5750	0.3195	0.6837	-0.3158
5.69	-9.5619	-0.4075	-1.3353	-0.0271	-0.0181	-0.0596	29.6242	18.0131	1.8038	0.5752	0.3194	0.6838	-0.3158
5.7	-9.5615	-0.4114	-1.3265	-0.0244	-0.0242	-0.0601	29.6593	17.9147	1.6631	0.5752	0.3192	0.6838	-0.3158
5.71	-9.5714	-0.4145	-1.3173	-0.0287	-0.0203	-0.0638	29.6154	18.1542	1.7216	0.5753	0.3191	0.6838	-0.3157
5.72	-9.5809	-0.4179	-1.3151	-0.0360	-0.0132	-0.0569	29.7508	18.0449	1.7671	0.5753	0.3190	0.6838	-0.3156
5.73	-9.5651	-0.4261	-1.3103	-0.0445	-0.0209	-0.0689	29.7006	17.9740	1.4680	0.5755	0.3188	0.6839	-0.3155
5.74	-9.5484	-0.4352	-1.3023	-0.0457	-0.0213	-0.0647	29.5950	18.1029	1.5076	0.5756	0.3186	0.6839	-0.3154
5.75	-9.5516	-0.4488	-1.3024	-0.0423	-0.0205	-0.0588	29.7407	17.9795	1.6883	0.5756	0.3184	0.6839	-0.3153
5.76	-9.5546	-0.4621	-1.3001	-0.0466	-0.0229	-0.0550	29.8077	17.7462	1.5228	0.5758	0.3183	0.6840	-0.3153
5.77	-9.5460	-0.4761	-1.3019	-0.0450	-0.0216	-0.0536	29.8578	17.7167	1.4823	0.5758	0.3181	0.6840	-0.3151
5.78	-9.5563	-0.4801	-1.3000	-0.0324	-0.0147	-0.0547	29.9230	17.6422	1.4434	0.5760	0.3180	0.6841	-0.3151
5.79	-9.5564	-0.4880	-1.3025	-0.0302	-0.0101	-0.0521	29.8900	17.6081	1.7120	0.5759	0.3178	0.6841	-0.3150
5.8	-9.5424	-0.4981	-1.2996	-0.0293	-0.0036	-0.0528	30.0260	17.7484	1.4727	0.5760	0.3177	0.6842	-0.3149
5.81	-9.5565	-0.4944	-1.3049	-0.0204	-0.0028	-0.0492	29.9696	17.8466	1.3967	0.5760	0.3177	0.6842	-0.3149
5.82	-9.5594	-0.4901	-1.3113	-0.0199	-0.0084	-0.0508	30.0216	17.6208	1.5773	0.5760	0.3176	0.6842	-0.3148
5.83	-9.5566	-0.4875	-1.3083	-0.0198	-0.0072	-0.0525	29.8612	17.6264	1.7953	0.5761	0.3176	0.6844	-0.3148
5.84	-9.5484	-0.4708	-1.3064	-0.0131	-0.0062	-0.0496	29.6836	17.7432	1.6996	0.5760	0.3175	0.6843	-0.3147
5.85	-9.5454	-0.4592	-1.3012	-0.0102	-0.0012	-0.0512	29.7538	17.6862	1.6651	0.5761	0.3175	0.6844	-0.3147
5.86	-9.5383	-0.4463	-1.3115	-0.0088	-0.0049	-0.0489	29.6901	17.7273	1.5697	0.5760	0.3174	0.6843	-0.3147
5.87	-9.5230	-0.4239	-1.3047	0.0018	-0.0046	-0.0479	29.8852	17.7912	1.4622	0.5760	0.3175	0.6844	-0.3147
5.88	-9.5065	-0.4142	-1.2997	-0.0100	-0.0013	-0.0494	29.8686	18.0045	1.4608	0.5760	0.3175	0.6844	-0.3147
5.89	-9.5187	-0.4108	-1.3085	-0.0177	-0.0008	-0.0505	29.7329	17.8106	1.5592	0.5760	0.3174	0.6844	-0.3146
5.9	-9.5399	-0.4106	-1.3114	-0.0224	0.0050	-0.0536	29.6933	17.7035	1.5667	0.5760	0.3174	0.6845	-0.3146
5.91	-9.5472	-0.4104	-1.3148	-0.0223	0.0111	-0.0539	29.8031	17.9441	1.7308	0.5759	0.3173	0.6846	-0.3145
5.92	-9.5518	-0.4165	-1.3315	-0.0206	0.0130	-0.0489	29.9511	18.0614	1.6992	0.5759	0.3173	0.6847	-0.3144
5.93	-9.5641	-0.4134	-1.3371	-0.0218	0.0216	-0.0457	29.8266	17.9752	1.6282	0.5758	0.3172	0.6848	-0.3142
5.94	-9.5946	-0.4128	-1.3396	-0.0219	0.0230	-0.0483	29.5549	17.8802	1.6824	0.5758	0.3173	0.6850	-0.3142
5.95	-9.5678	-0.4310	-1.3437	-0.0231	0.0123	-0.0550	29.6267	17.8406	1.6268	0.5757	0.3172	0.6850	-0.3141
5.96	-9.5522	-0.4451	-1.3447	-0.0255	0.0103	-0.0549	29.8189	17.7857	1.7510	0.5757	0.3171	0.6852	-0.3140
5.97	-9.6028	-0.4579	-1.3536	-0.0243	0.0130	-0.0537	29.9233	17.7952	1.7564	0.5756	0.3171	0.6852	-0.3139
5.98	-9.6047	-0.4692	-1.3630	-0.0260	-0.0007	-0.0546	29.9820	17.7060	1.6308	0.5756	0.3170	0.6853	-0.3138
5.99	-9.6183	-0.4706	-1.3592	-0.0214	0.0030	-0.0440	29.8757	17.8566	1.6934	0.5757	0.3170	0.6854	-0.3137
6	-9.6282	-0.4694	-1.3617	-0.0223	-0.0017	-0.0447	29.9168	17.6764	1.5625	0.5756	0.3170	0.6853	-0.3136
6.01	-9.6110	-0.4727	-1.3709	-0.0194	-0.0003	-0.0533	29.8050	17.8416	1.5773	0.5757	0.3170	0.6855	-0.3135
6.02	-9.5801	-0.4764	-1.3684	-0.0147	-0.0029	-0.0490	29.6418	17.5877	1.5532	0.5757	0.3170	0.6854	-0.3134
6.03	-9.5701	-0.4777	-1.3692	-0.0093	-0.0038	-0.0408	29.7002	17.7684	1.6431	0.5758	0.3170	0.6855	-0.3133
6.04	-9.5950	-0.4731	-1.3708	0.0016	-0.0090	-0.0399	29.8028	17.8120	1.6756	0.5758	0.3171	0.6854	-0.3133
6.05	-9.6290	-0.4446	-1.3731	0.0040	-0.0080	-0.0440	30.1080	17.7987	1.6468	0.5758	0.3171	0.6854	-0.3132
6.06	-9.6296	-0.4160	-1.3672	0.0020	-0.0094	-0.0493	29.9366	17.9671	1.6955	0.5758	0.3172	0.6854	-0.3132
6.07	-9.6241	-0.3872	-1.3530	0.0040	-0.0165	-0.0535	29.6742	17.9957	1.8669	0.5758	0.3172	0.6853	-0.3132
6.08	-9.6235	-0.3699	-1.3563	-0.0050	-0.0179	-0.0501	29.8565	17.7556	1.7206	0.5760	0.3172	0.6853	-0.3132
6.09	-9.5985	-0.3571	-1.3378	-0.0197	-0.0272	-0.0543	29.5052	17.8463	1.6465	0.5760	0.3171	0.6852	-0.3132
6.1	-9.5756	-0.3500	-1.3260	-0.0198	-0.0298	-0.0609	29.6629	17.8985	1.6563	0.5761	0.3170	0.6853	-0.3132
6.11	-9.5363	-0.3425	-1.3135	-0.0253	-0.0333	-0.0565	29.9477	17.8813	1.6771	0.5762	0.3169	0.6851	-0.3131
6.12	-9.5191	-0.3413	-1.3060	-0.0342	-0.0292	-0.0625	29.7466	17.8807	1.5072	0.5763	0.3167	0.6852	-0.3131
6.13	-9.5280	-0.3535	-1.3018	-0.0491	-0.0264	-0.0662	29.5947	18.0741	1.4944	0.5764	0.3165	0.6852	-0.3131
6.14	-9.5283	-0.3785	-1.2932	-0.0531	-0.0223	-0.0646	30.0423	17.9360	1.6665	0.5765	0.3162	0.6853	-0.3130
6.15	-9.5276	-0.4093	-1.2926	-0.0652	-0.0150	-0.0581	30.4172	17.6609	1.6778	0.5765	0.3163	0.6853	-0.3130
6.16	-9.5365	-0.4489	-1.2924	-0.0653	-0.0127	-0.0615	30.2842	17.7618	1.6356	0.5765	0.3162	0.6853	-0.3130
6.17	-9.5353	-0.4816	-1.2932	-0.0657	-0.0140	-0.0634	30.1924	17.9265	1.7241	0.5767	0.3159	0.6855	-0.3128
6.18	-9.5378	-0.5150	-1.3024	-0.0594	-0.0097	-0.0571	29.8756	17.9470	1.8030	0.5767	0.3157	0.6855	-0.3126
6.19	-9.5565	-0.5387	-1.3052	-0.0484	-0.0052	-0.0610	29.7812	17.7431	1.5620	0.5768	0.3155	0.6857	-0.3125
6.2	-9.5590	-0.5521	-1.3110	-0.0541	-0.0081	-0.0593	29.8245	17.9201	1.6189	0.5768	0.3153	0.6857	-0.3124
6.21	-9.5617	-0.5617	-1.3169	-0.0352	-0.0029	-0.0551	29.9270	18.0114	1.5846	0.5769	0.3152	0.6858	-0.3123
6.22	-9.5638	-0.5685	-1.3253	-0.0246	-0.0001	-0.0518	29.7971	17.8947	1.6926	0.5769	0.3151	0.6859	-0.3122
6.23	-9.4955	-0.5437	-1.3072	-0.0221	-0.0074	-0.0506	29.9003	17.7324	1.8533	0.5769	0.3151	0.6859	-0.3121
6.24	-9.5653	-0.5175	-1.3074	-0.0130	-0.0014	-0.0562	29.8131	17.8047	1.6484	0.5769	0.3150	0.6860	-0.3121
6.25	-9.6316	-0.5046	-1.3204	-0.0186	-0.0012	-0.0566	29.7076	18.0309	1.5645	0.5768	0.3149	0.6860	-0.3121
6.26	-9.5261	-0.4738	-1.2970	-0.0144	-0.0050	-0.0478	29.7455	17.7475	1.8350	0.5769	0.3149	0.6861	-0.3121
6.27	-9.5114	-0.4683	-1.2947	-0.0035	0.0006	-0.0511	29.7646	17.8646	1.7563	0.5769	0.3149	0.6861	-0.3120
6.28	-9.5500	-0.4864	-1.3084	-0.0154	0.0003	-0.0449	29.6344	17.9169	1.5746	0.5769	0.3149	0.6862	-0.3120
6.29	-9.5497	-0.4793	-1.3046	-0.0060	-0.0000	-0.0312	29.8500	17.8601	1.7228	0.5768	0.3149	0.6861	-0.3119
6.3	-9.5200	-0.4684	-1.2983	-0.0038	-0.0008	-0.0300	29.9096	18.0727	1.7589	0.5769	0.3150	0.6861	-0.3119
6.31	-9.5401	-0.4541	-1.3085	-0.0078	0.0043	-0.0274	29.8158	17.9899	1.5105	0.5769	0.3150	0.6861	-0.3118
6.32	-9.5614	-0.4463	-1.3196	0.0015	0.0073	-0.0300	29.7546	18.0666	1.7419	0.5768	0.3151	0.6861	-0.3117
6.33	-9.5612	-0.4568	-1.3288	-0.0033	0.0112	-0.0324	29.8319	18.0580	1.5339	0.5769	0.3152	0.6862	-0.3117
6.34	-9.5607	-0.4587	-1.3342	0.0031	0.0147	-0.0358	30.1075	17.5633	1.7031	0.5767	0.3153	0.6862	-0.3116
6.35	-9.5548	-0.4542	-1.3506	0.0028	0.0217	-0.0408	29.8268	17.7298	1.6095	0.5767	0.3154	0.6863	-0.3116
6.36	-9.5516	-0.4377	-1.3567	0.0024	0.0126	-0.0406	29.8339	17.7111	1.7014	0.5765	0.3154	0.6863	-0.3115
6.37	-9.5610	-0.4155	-1.3591	0.0016	0.0172	-0.0377	30.0235	17.7296	1.7915	0.5765	0.3155	0.6864	-0.3115
6.38	-9.5720	-0.3973	-1.3686	0.0021	0.0192	-0.0408	29.8758	17.8826	1.8465	0.5764	0.3156	0.6864	-0.3114
6.39	-9.5802	-0.3869	-1.3737	-0.0016	0.0135	-0.0392	29.9512	17.9072	1.8287	0.5764	0.3157	0.6864	-0.3113
6.4	-9.5872	-0.3746	-1.3778	-0.0074	0.0147	-0.0465	29.8028	17.8077	1.6689	0.5763	0.3157	0.6865	-0.3113
6.41	-9.5965	-0.3760	-1.3864	-0.0242	0.0039	-0.0476	29.7109	17.5158	1.5616	0.5763	0.3156	0.6866	-0.3112
6.42	-9.6048	-0.3828	-1.3945	-0.0225	0.0037	-0.0394	29.7805	17.6588	1.5215	0.5763	0.3157	0.6866	-0.3111
6.43	-9.5965	-0.3948	-1.3873	-0.0233	-0.0021	-0.0498	29.5463	17.8308	1.8245	0.5763	0.3156	0.6866	-0.3109
6.44	-9.5889	-0.4030	-1.3941	-0.0238	-0.0000	-0.0505	29.5726	17.6943	1.7593	0.5764	0.3156	0.6867	-0.3108
6.45	-9.5899	-0.4132	-1.3962	-0.0289	0.0024	-0.0456	29.6865	17.7194	1.6744	0.5764	0.3156	0.6867	-0.3107
6.46	-9.5838	-0.4222	-1.3924	-0.0280	-0.0022	-0.0484	29.6119	17.7682	1.7107	0.5765	0.3156	0.6868	-0.3106
6.47	-9.5791	-0.4287	-1.4007	-0.0260	0.0010	-0.0476	29.7768	17.9290	1.6798	0.5765	0.3155	0.6868	-0.3104
6.48	-9.5834	-0.4378	-1.3982	-0.0229	-0.0024	-0.0477	29.8205	17.8616	1.5836	0.5765	0.3155	0.6869	-0.3103
6.49	-9.5869	-0.4386	-1.3956	-0.0227	0.0019	-0.0553	29.8731	17.9491	1.6100	0.5765	0.3155	0.6869	-0.3102
6.5	-9.5825	-0.4331	-1.3970	-0.0236	-0.0001	-0.0527	29.6335	17.6939	1.5911	0.5765	0.3154	0.6869	-0.3101
6.51	-9.5870	-0.4365	-1.3974	-0.0212	-0.0078	-0.0512	29.6715	17.7520	1.7262	0.5766	0.3154	0.6870	-0.3100
6.52	-9.5831	-0.4335	-1.3928	-0.0183	-0.0071	-0.0567	30.0513	17.7861	1.5057	0.5766	0.3154	0.6870	-0.3099
6.53	-9.5784	-0.4255	-1.3888	-0.0211	-0.0111	-0.0526	29.9336	17.6914	1.5817	0.5767	0.3153	0.6871	-0.3099
6.54	-9.5808	-0.4302	-1.3871	-0.0208	-0.0108	-0.0585	29.8100	17.7283	1.6965	0.5767	0.3152	0.6870	-0.3098
6.55	-9.5879	-0.4195	-1.3913	-0.0221	-0.0109	-0.0553	29.9692	17.8414	1.8522	0.5768	0.3152	0.6871	-0.3097
6.56	-9.5882	-0.4170	-1.3777	-0.0228	-0.0173	-0.0541	30.0057	17.7477	2.0258	0.5769	0.3151	0.6871	-0.3096
6.57	-9.5817	-0.4199	-1.3733	-0.0217	-0.0211	-0.0589	29.7222	17.7091	1.5560	0.5769	0.3150	0.6870	-0.3096
6.58	-9.5664	-0.4185	-1.3670	-0.0238	-0.0170	-0.0599	29.6524	17.7141	1.7494	0.5771	0.3150	0.6871	-0.3096
6.59	-9.5613	-0.4202	-1.3594	-0.0209	-0.0145	-0.0584	29.7763	17.7501	1.7642	0.5771	0.3148	0.6871	-0.3095
6.6	-9.5661	-0.4195	-1.3586	-0.0258	-0.0140	-0.0618	29.9265	17.8422	1.6576	0.5771	0.3148	0.6871	-0.3095
6.61	-9.5448	-0.4250	-1.3498	-0.0282	-0.0196	-0.0577	29.8412	17.7662	1.7897	0.5771	0.3146	0.6871	-0.3094
6.62	-9.5370	-0.4306	-1.3477	-0.0380	-0.0176	-0.0587	29.4723	18.0853	2.0342	0.5773	0.3145	0.6872	-0.3094
6.63	-9.5429	-0.4377	-1.3478	-0.0465	-0.0149	-0.0553	29.5084	17.9834	1.8446	0.5773	0.3143	0.6872	-0.3093
6.64	-9.5345	-0.4441	-1.3528	-0.0418	-0.0084	-0.0560	29.9962	17.7778	1.7569	0.5774	0.3141	0.6873	-0.3091
6.65	-9.5329	-0.4587	-1.3550	-0.0468	-0.0106	-0.0571	30.1212	17.9160	1.8124	0.5775	0.3140	0.6874	-0.3090
6.66	-9.5440	-0.4745	-1.3574	-0.0427	-0.0069	-0.0552	29.9510	17.9000	1.6231	0.5775	0.3138	0.6874	-0.3089
6.67	-9.5444	-0.4851	-1.3587	-0.0369	-0.0073	-0.0562	30.0077	18.0229	1.7305	0.5776	0.3137	0.6875	-0.3088
6.68	-9.5568	-0.4946	-1.3608	-0.0267	-0.0015	-0.0563	29.8162	17.9071	1.7507	0.5775	0.3135	0.6875	-0.3087
6.69	-9.5742	-0.5050	-1.3693	-0.0224	-0.0032	-0.0524	29.7360	17.9295	1.6726	0.5776	0.3135	0.6877	-0.3087
6.7	-9.5811	-0.5004	-1.3731	-0.0222	-0.0096	-0.0522	29.7048	17.6826	1.6157	0.5776	0.3134	0.6877	-0.3087
6.71	-9.5843	-0.4954	-1.3787	-0.0236	-0.0044	-0.0488	29.7755	17.6206	1.6101	0.5776	0.3134	0.6877	-0.3086
6.72	-9.5954	-0.4815	-1.3786	-0.0107	-0.0095	-0.0524	29.9136	17.7270	1.9114	0.5776	0.3133	0.6877	-0.3085
6.73	-9.6014	-0.4673	-1.3776	-0.0034	-0.0111	-0.0502	30.0083	17.6382	1.6814	0.5777	0.3134	0.6877	-0.3085
6.74	-9.6010	-0.4565	-1.3755	-0.0097	-0.0159	-0.0541	29.9317	17.6004	1.7119	0.5778	0.3133	0.6877	-0.3085
6.75	-9.5965	-0.4391	-1.3735	-0.0150	-0.0192	-0.0536	29.8016	17.8221	1.8899	0.5778	0.3133	0.6876	-0.3084
6.76	-9.6006	-0.4248	-1.3610	-0.0213	-0.0166	-0.0496	29.6980	17.9886	1.6044	0.5779	0.3133	0.6877	-0.3084
6.77	-9.5927	-0.4186	-1.3589	-0.0190	-0.0227	-0.0507	29.7428	17.6163	1.5820	0.5780	0.3132	0.6876	-0.3083
6.78	-9.5801	-0.4158	-1.3466	-0.0218	-0.0312	-0.0467	29.8972	17.8576	1.5580	0.5782	0.3132	0.6876	-0.3082
6.79	-9.5785	-0.4251	-1.3426	-0.0236	-0.0317	-0.0455	29.9047	17.6977	1.6976	0.5782	0.3130	0.6875	-0.3081
6.8	-9.5764	-0.4309	-1.3338	-0.0223	-0.0256	-0.0511	29.6330	17.8633	1.5076	0.5784	0.3130	0.6875	-0.3081
6.81	-9.5772	-0.4366	-1.3225	-0.0227	-0.0262	-0.0444	29.4758	17.9336	1.5112	0.5785	0.3129	0.6874	-0.3080
6.82	-9.5562	-0.4307	-1.3120	-0.0227	-0.0261	-0.0485	29.7114	18.1154	1.6716	0.5786	0.3128	0.6874	-0.3079
6.83	-9.5697	-0.4223	-1.3083	-0.0228	-0.0246	-0.0515	29.8309	17.8410	1.6761	0.5787	0.3128	0.6874	-0.3079
6.84	-9.5433	-0.4350	-1.3070	-0.0231	-0.0283	-0.0526	29.6409	17.9946	1.6319	0.5788	0.3126	0.6874	-0.3079
6.85	-9.5272	-0.4374	-1.2894	-0.0222	-0.0242	-0.0598	29.6344	18.0802	1.5270	0.5789	0.3125	0.6874	-0.3079
6.86	-9.5691	-0.4502	-1.3001	-0.0231	-0.0174	-0.0539	29.6062	17.8211	1.6966	0.5789	0.3124	0.6873	-0.3078
6.87	-9.5753	-0.4610	-1.2929	-0.0242	-0.0214	-0.0531	29.7771	18.1094	1.5191	0.5790	0.3123	0.6874	-0.3078
6.88	-9.5745	-0.4572	-1.2780	-0.0211	-0.0254	-0.0553	29.7904	17.9285	1.4679	0.5791	0.3122	0.6874	-0.3078
6.89	-9.5872	-0.4593	-1.2804	-0.0241	-0.0260	-0.0529	29.8944	17.6915	1.4990	0.5791	0.3121	0.6873	-0.3078
6.9	-9.5797	-0.4681	-1.2790	-0.0238	-0.0270	-0.0510	29.8761	17.8247	1.4688	0.5793	0.3120	0.6873	-0.3077
6.91	-9.5367	-0.4782	-1.2743	-0.0202	-0.0258	-0.0551	29.9449	17.5774	1.6615	0.5794	0.3119	0.6873	-0.3077
6.92	-9.5009	-0.4883	-1.2748	-0.0243	-0.0153	-0.0448	29.9662	17.7039	1.6329	0.5794	0.3118	0.6873	-0.3077
6.93	-9.5105	-0.4920	-1.2801	-0.0173	-0.0066	-0.0409	30.1058	17.8279	1.4638	0.5794	0.3118	0.6873	-0.3076
6.94	-9.5385	-0.4833	-1.2782	-0.0188	-0.0077	-0.0356	29.8982	17.8915	1.4960	0.5795	0.3118	0.6874	-0.3075
6.95	-9.5435	-0.4583	-1.2755	-0.0126	-0.0026	-0.0407	29.6729	17.6473	1.8097	0.5795	0.3118	0.6873	-0.3074
6.96	-9.5563	-0.4509	-1.2866	-0.0048	-0.0008	-0.0381	29.6986	17.8456	1.6022	0.5795	0.3118	0.6874	-0.3074
6.97	-9.5646	-0.4404	-1.2965	-0.0091	-0.0062	-0.0454	29.9381	17.6957	1.4757	0.5795	0.3118	0.6874	-0.3074
6.98	-9.5574	-0.4297	-1.3019	-0.0074	-0.0069	-0.0531	29.9306	17.8828	1.4713	0.5795	0.3117	0.6874	-0.3074
6.99	-9.5489	-0.4207	-1.3020	-0.0018	-0.0003	-0.0532	29.5769	17.8875	1.5433	0.5795	0.3117	0.6874	-0.3074
7	-9.5368	-0.4084	-1.3026	-0.0101	0.0013	-0.0510	29.6466	17.9817	1.5908	0.5794	0.3117	0.6874	-0.3073
7.01	-9.5452	-0.4016	-1.3065	-0.0180	0.0008	-0.0513	29.7225	18.0900	1.4584	0.5795	0.3117	0.6875	-0.3073
7.02	-9.5630	-0.3913	-1.3135	-0.0181	0.0062	-0.0540	29.8602	17.9364	1.4786	0.5794	0.3116	0.6876	-0.3072
7.03	-9.5913	-0.3877	-1.3212	-0.0215	-0.0010	-0.0540	29.7104	18.0788	1.5305	0.5795	0.3116	0.6877	-0.3072
7.04	-9.6012	-0.3954	-1.3213	-0.0235	0.0027	-0.0551	29.7330	18.0807	1.6943	0.5794	0.3114	0.6877	-0.3071
7.05	-9.6013	-0.4015	-1.3241	-0.0238	-0.0001	-0.0524	29.6844	17.9530	1.5128	0.5794	0.3114	0.6878	-0.3071
7.06	-9.6080	-0.4149	-1.3267	-0.0285	-0.0015	-0.0545	29.8034	18.0349	1.4703	0.5794	0.3113	0.6878	-0.3070
7.07	-9.6055	-0.4336	-1.3337	-0.0290	-0.0061	-0.0536	29.7146	17.8145	1.4894	0.5794	0.3112	0.6878	-0.3069
7.08	-9.6004	-0.4373	-1.3241	-0.0365	-0.0109	-0.0579	29.8249	17.8125	1.4800	0.5796	0.3111	0.6880	-0.3068
7.09	-9.6022	-0.4467	-1.3273	-0.0296	-0.0086	-0.0592	30.0517	17.6685	1.5032	0.5796	0.3110	0.6880	-0.3067
7.1	-9.6054	-0.4557	-1.3310	-0.0281	-0.0142	-0.0582	29.8904	17.8739	1.6906	0.5797	0.3109	0.6880	-0.3066
7.11	-9.6039	-0.4569	-1.3243	-0.0232	-0.0146	-0.0570	29.8972	17.9247	1.5655	0.5797	0.3108	0.6879	-0.3065
7.12	-9.5394	-0.4484	-1.3153	-0.0252	-0.0209	-0.0534	29.8896	17.7688	1.4744	0.5798	0.3107	0.6880	-0.3065
7.13	-9.5661	-0.4321	-1.2998	-0.0258	-0.0160	-0.0576	29.7325	17.7116	1.6633	0.5798	0.3106	0.6880	-0.3065
7.14	-9.6562	-0.4327	-1.3082	-0.0235	-0.0155	-0.0655	30.0274	18.0357	1.6724	0.5799	0.3105	0.6880	-0.3064
7.15	-9.5602	-0.4340	-1.2902	-0.0238	-0.0288	-0.0648	30.4005	17.8479	1.6613	0.5800	0.3104	0.6880	-0.3064
7.16	-9.5031	-0.4427	-1.2774	-0.0281	-0.0292	-0.0614	30.2959	17.7518	1.6933	0.5801	0.3102	0.6880	-0.3064
7.17	-9.5437	-0.4673	-1.2737	-0.0381	-0.0167	-0.0696	30.1082	17.8486	1.5772	0.5802	0.3100	0.6881	-0.3064
7.18	-9.5570	-0.4805	-1.2728	-0.0396	-0.0110	-0.0564	29.9802	17.6831	1.6173	0.5802	0.3098	0.6881	-0.3063
7.19	-9.5253	-0.4908	-1.2742	-0.0392	-0.0113	-0.0531	29.7316	18.0827	1.5826	0.5803	0.3097	0.6882	-0.3062
7.2	-9.5274	-0.4789	-1.2727	-0.0295	-0.0114	-0.0455	29.6815	17.8421	1.5081	0.5803	0.3096	0.6882	-0.3061
7.21	-9.5580	-0.4800	-1.2828	-0.0294	-0.0040	-0.0486	29.8831	17.7841	1.7504	0.5804	0.3096	0.6883	-0.3060
7.22	-9.5538	-0.4906	-1.2766	-0.0282	-0.0019	-0.0560	29.7380	17.8055	1.5682	0.5804	0.3094	0.6883	-0.3059
7.23	-9.5547	-0.5013	-1.2850	-0.0239	0.0038	-0.0559	29.5311	17.7933	1.5331	0.5804	0.3094	0.6884	-0.3059
7.24	-9.5508	-0.5090	-1.2882	-0.0197	0.0023	-0.0580	29.8653	17.7989	1.6538	0.5803	0.3093	0.6885	-0.3058
7.25	-9.5297	-0.5058	-1.2974	-0.0197	-0.0044	-0.0532	30.0821	17.8102	1.5113	0.5803	0.3092	0.6885	-0.3058
7.26	-9.5343	-0.4979	-1.3065	-0.0190	0.0027	-0.0505	29.7624	17.6800	1.5155	0.5804	0.3092	0.6886	-0.3057
7.27	-9.5574	-0.4865	-1.3029	-0.0100	-0.0062	-0.0424	29.9777	17.7613	1.7000	0.5803	0.3091	0.6886	-0.3057
7.28	-9.5590	-0.4794	-1.3071	-0.0045	0.0018	-0.0406	29.9955	17.8217	1.6411	0.5804	0.3092	0.6887	-0.3057
7.29	-9.5693	-0.4738	-1.3199	-0.0052	0.0015	-0.0415	29.8225	17.7797	1.5827	0.5803	0.3092	0.6886	-0.3056
7.3	-9.5831	-0.4693	-1.3234	-0.0086	0.0056	-0.0435	29.8551	17.9379	1.7630	0.5803	0.3092	0.6887	-0.3056
7.31	-9.5857	-0.4737	-1.3327	-0.0069	0.0067	-0.0356	29.8800	17.8124	1.5908	0.5803	0.3092	0.6887	-0.3055
7.32	-9.5862	-0.4716	-1.3334	-0.0039	-0.0014	-0.0374	30.0450	17.7922	1.3885	0.5802	0.3093	0.6887	-0.3054
7.33	-9.6024	-0.4624	-1.3390	-0.0046	-0.0023	-0.0391	30.0216	17.8940	1.6609	0.5803	0.3093	0.6888	-0.3055
7.34	-9.6104	-0.4515	-1.3435	0.0039	-0.0007	-0.0347	30.0372	17.7700	1.4072	0.5803	0.3094	0.6887	-0.3054
7.35	-9.6022	-0.4353	-1.3391	0.0015	-0.0048	-0.0309	30.0183	17.8145	1.3133	0.5803	0.3095	0.6887	-0.3053
7.36	-9.6009	-0.4159	-1.3382	0.0022	-0.0095	-0.0326	30.0482	17.7903	1.7759	0.5803	0.3096	0.6885	-0.3052
7.37	-9.5998	-0.4068	-1.3304	0.0008	-0.0085	-0.0389	29.8810	17.8105	1.7411	0.5804	0.3097	0.6886	-0.3052
7.38	-9.5970	-0.3883	-1.3247	0.0027	-0.0097	-0.0390	30.0437	17.7902	1.5755	0.5804	0.3097	0.6885	-0.3052
7.39	-9.5883	-0.3739	-1.3241	-0.0045	-0.0148	-0.0418	29.8811	17.8131	1.6172	0.5805	0.3097	0.6885	-0.3051
7.4	-9.5893	-0.3641	-1.3194	-0.0087	-0.0079	-0.0445	29.7402	17.7769	1.6233	0.5805	0.3098	0.6885	-0.3051
7.41	-9.5734	-0.3638	-1.3128	-0.0157	-0.0116	-0.0430	29.7556	17.8448	1.6986	0.5806	0.3097	0.6884	-0.3050
7.42	-9.5596	-0.3637	-1.3079	-0.0233	-0.0121	-0.0509	29.8202	17.8878	1.5526	0.5806	0.3097	0.6885	-0.3050
7.43	-9.5585	-0.3658	-1.3038	-0.0225	-0.0157	-0.0491	29.8674	17.9750	1.7299	0.5806	0.3096	0.6884	-0.3049
7.44	-9.5600	-0.3680	-1.3046	-0.0224	-0.0193	-0.0422	29.8406	17.8657	1.5658	0.5808	0.3095	0.6885	-0.3049
7.45	-9.5448	-0.3709	-1.3005	-0.0246	-0.0130	-0.0478	30.0200	17.7558	1.6687	0.5808	0.3094	0.6885	-0.3048
7.46	-9.5409	-0.3824	-1.2967	-0.0245	-0.0124	-0.0552	30.0337	17.6152	1.7402	0.5809	0.3093	0.6885	-0.3048
7.47	-9.5545	-0.3934	-1.2989	-0.0215	-0.0104	-0.0560	29.9410	17.7293	1.5865	0.5809	0.3092	0.6885	-0.3047
7.48	-9.5508	-0.3958	-1.2993	-0.0246	-0.0064	-0.0563	29.9147	17.5608	1.5130	0.5809	0.3091	0.6886	-0.3047
7.49	-9.5373	-0.4006	-1.2952	-0.0315	-0.0052	-0.0614	29.7839	17.5561	1.5248	0.5809	0.3090	0.6887	-0.3046
7.5	-9.5492	-0.4074	-1.2964	-0.0333	-0.0019	-0.0648	29.7177	17.7889	1.5231	0.5809	0.3088	0.6887	-0.3046
7.51	-9.5515	-0.4150	-1.3013	-0.0268	0.0011	-0.0598	29.9287	18.0332	1.4985	0.5810	0.3088	0.6889	-0.3045
7.52	-9.5423	-0.4228	-1.3030	-0.0316	-0.0020	-0.0620	30.0157	17.7418	1.7139	0.5809	0.3086	0.6889	-0.3045
7.53	-9.5405	-0.4351	-1.3098	-0.0283	0.0053	-0.0630	29.9093	17.7708	1.6143	0.5810	0.3085	0.6891	-0.3044
7.54	-9.5545	-0.4447	-1.3152	-0.0234	0.0079	-0.0647	29.9514	17.8141	1.7094	0.5808	0.3084	0.6891	-0.3043
7.55	-9.5628	-0.4512	-1.3206	-0.0269	0.0022	-0.0673	29.9395	17.6879	1.6848	0.5808	0.3083	0.6892	-0.3043
7.56	-9.5687	-0.4565	-1.3277	-0.0217	0.0087	-0.0647	29.9067	17.8978	1.5812	0.5808	0.3082	0.6893	-0.3043
7.57	-9.5727	-0.4671	-1.3291	-0.0240	0.0129	-0.0667	29.7524	17.8757	1.6091	0.5807	0.3080	0.6894	-0.3042
7.58	-9.5817	-0.4651	-1.3323	-0.0232	0.0105	-0.0668	29.6658	17.8977	1.8091	0.5807	0.3080	0.6896	-0.3042
7.59	-9.5792	-0.4676	-1.3407	-0.0262	0.0037	-0.0648	29.6795	18.0147	1.9329	0.5806	0.3078	0.6896	-0.3042
7.6	-9.5859	-0.4734	-1.3429	-0.0250	0.0102	-0.0615	29.6610	17.9011	1.7607	0.5806	0.3077	0.6898	-0.3041
7.61	-9.5890	-0.4688	-1.3473	-0.0229	0.0073	-0.0602	29.7507	17.8666	1.4826	0.5805	0.3076	0.6898	-0.3040
7.62	-9.5839	-0.4718	-1.3434	-0.0236	-0.0003	-0.0596	30.0089	18.0239	1.6483	0.5806	0.3076	0.6899	-0.3040
7.63	-9.5933	-0.4735	-1.3466	-0.0226	-0.0002	-0.0573	29.6697	18.0632	1.5708	0.5806	0.3075	0.6899	-0.3039
7.64	-9.6017	-0.4704	-1.3456	-0.0213	-0.0026	-0.0543	29.8310	17.7885	2.0085	0.5806	0.3075	0.6899	-0.3038
7.65	-9.5933	-0.4783	-1.3474	-0.0225	-0.0009	-0.0511	30.5085	17.8163	1.8571	0.5807	0.3074	0.6900	-0.3037
7.66	-9.5859	-0.4784	-1.3363	-0.0229	-0.0101	-0.0493	30.5388	17.9107	1.6691	0.5807	0.3074	0.6900	-0.3036
7.67	-9.5767	-0.4825	-1.3396	-0.0232	-0.0078	-0.0510	30.2243	17.7950	1.5889	0.5808	0.3073	0.6900	-0.3036
7.68	-9.5746	-0.4856	-1.3410	-0.0234	-0.0114	-0.0476	30.0905	18.0892	1.5307	0.5808	0.3073	0.6900	-0.3034
7.69	-9.5651	-0.4772	-1.3305	-0.0227	-0.0134	-0.0455	29.9657	17.6931	1.8341	0.5809	0.3073	0.6900	-0.3034
7.7	-9.5490	-0.4727	-1.3265	-0.0185	-0.0079	-0.0432	29.8338	17.7184	1.6862	0.5809	0.3072	0.6900	-0.3033
7.71	-9.5510	-0.4693	-1.3221	-0.0183	-0.0109	-0.0432	29.9695	17.8577	1.6613	0.5810	0.3072	0.6901	-0.3033
7.72	-9.5624	-0.4621	-1.3217	-0.0179	-0.0070	-0.0466	29.9605	17.7983	1.6760	0.5810	0.3071	0.6900	-0.3032
7.73	-9.5562	-0.4583	-1.3139	-0.0135	-0.0072	-0.0410	29.8509	17.9377	1.5245	0.5810	0.3071	0.6901	-0.3031
7.74	-9.5573	-0.4508	-1.3181	-0.0175	-0.0042	-0.0452	29.9130	17.8882	1.6547	0.5811	0.3071	0.6901	-0.3031
7.75	-9.5529	-0.4277	-1.3129	-0.0108	-0.0020	-0.0484	30.0970	17.9055	1.6660	0.5810	0.3070	0.6901	-0.3030
7.76	-9.5579	-0.4087	-1.3141	-0.0145	0.0039	-0.0439	29.8972	18.0139	1.6740	0.5811	0.3070	0.6902	-0.3030
7.77	-9.5515	-0.4097	-1.3183	-0.0176	0.0007	-0.0460	29.6332	17.9537	1.6349	0.5810	0.3070	0.6902	-0.3029
7.78	-9.5388	-0.4171	-1.3192	-0.0234	0.0002	-0.0539	29.7708	17.8635	1.7542	0.5811	0.3069	0.6903	-0.3029
7.79	-9.5658	-0.4226	-1.3221	-0.0231	0.0029	-0.0543	29.9131	18.0272	1.7480	0.5810	0.3068	0.6903	-0.3028
7.8	-9.5768	-0.4399	-1.3272	-0.0246	0.0021	-0.0552	29.6925	17.9467	1.6614	0.5810	0.3067	0.6904	-0.3028
7.81	-9.6112	-0.4276	-1.3282	-0.0192	-0.0003	-0.0499	29.8123	17.9162	1.6117	0.5810	0.3067	0.6905	-0.3027
7.82	-9.6194	-0.4442	-1.3304	-0.0218	-0.0042	-0.0470	29.8905	18.1168	1.5532	0.5810	0.3066	0.6904	-0.3026
7.83	-9.5727	-0.4515	-1.3350	-0.0213	-0.0105	-0.0366	29.9875	17.9513	1.5720	0.5812	0.3067	0.6905	-0.3025
7.84	-9.5522	-0.4493	-1.3310	-0.0246	-0.0037	-0.0483	30.1990	17.9066	1.5966	0.5812	0.3066	0.6905	-0.3024
7.85	-9.5636	-0.4634	-1.3350	-0.0180	-0.0037	-0.0479	30.1140	17.8610	1.4900	0.5812	0.3066	0.6906	-0.3024
7.86	-9.5739	-0.4517	-1.3383	-0.0199	-0.0110	-0.0386	30.1643	17.7027	1.5683	0.5812	0.3065	0.6905	-0.3022
7.87	-9.5872	-0.4343	-1.3358	-0.0160	-0.0058	-0.0377	30.1192	17.7526	1.7052	0.5813	0.3066	0.6905	-0.3021
7.88	-9.6042	-0.4145	-1.3377	-0.0173	-0.0056	-0.0419	30.0078	17.6952	1.6328	0.5814	0.3066	0.6905	-0.3020
7.89	-9.5968	-0.4024	-1.3328	-0.0137	-0.0115	-0.0471	30.2064	17.8345	1.4590	0.5814	0.3065	0.6905	-0.3020
7.9	-9.5660	-0.3905	-1.3321	-0.0096	-0.0169	-0.0536	30.2752	17.7027	1.6105	0.5815	0.3065	0.6905	-0.3020
7.91	-9.5518	-0.3928	-1.3284	-0.0177	-0.0055	-0.0542	30.0205	17.6517	1.8147	0.5815	0.3064	0.6905	-0.3019
7.92	-9.5454	-0.3874	-1.3307	-0.0226	-0.0144	-0.0555	29.9926	18.0046	1.6950	0.5816	0.3063	0.6905	-0.3019
7.93	-9.5196	-0.3749	-1.3332	-0.0229	-0.0090	-0.0639	30.1781	17.9866	1.5581	0.5815	0.3062	0.6905	-0.3019
7.94	-9.5303	-0.3725	-1.3297	-0.0222	-0.0050	-0.0639	29.9130	17.8969	1.4849	0.5816	0.3061	0.6907	-0.3019
7.95	-9.5557	-0.3771	-1.3320	-0.0314	-0.0011	-0.0636	29.6743	18.0440	1.4395	0.5816	0.3060	0.6907	-0.3018
7.96	-9.5597	-0.3834	-1.3260	-0.0438	-0.0082	-0.0592	29.8447	17.8823	1.6333	0.5816	0.3058	0.6908	-0.3017
7.97	-9.5552	-0.4066	-1.3301	-0.0441	-0.0043	-0.0630	29.9022	18.0135	1.7801	0.5816	0.3056	0.6909	-0.3016
7.98	-9.5678	-0.4286	-1.3282	-0.0517	-0.0006	-0.0597	29.8552	18.0842	1.4888	0.5817	0.3054	0.6910	-0.3015
7.99	-9.5684	-0.4490	-1.3407	-0.0506	0.0016	-0.0687	29.9197	17.9168	1.6675	0.5817	0.3053	0.6911	-0.3014
8	-9.5607	-0.4706	-1.3459	-0.0546	-0.0021	-0.0657	30.0987	18.1985	1.6543	0.5817	0.3050	0.6912	-0.3012
8.01	-9.5780	-0.4941	-1.3477	-0.0474	-0.0055	-0.0602	29.6978	18.1395	1.6677	0.5818	0.3049	0.6914	-0.3012
8.02	-9.5945	-0.5096	-1.3542	-0.0421	-0.0091	-0.0591	30.0775	17.7660	1.6518	0.5818	0.3047	0.6914	-0.3010
8.03	-9.5770	-0.5213	-1.3561	-0.0395	-0.0006	-0.0603	30.3393	17.6962	1.7362	0.5819	0.3046	0.6915	-0.3009
8.04	-9.5888	-0.5241	-1.3527	-0.0294	-0.0055	-0.0597	29.9718	17.8588	1.8735	0.5819	0.3045	0.6915	-0.3008
8.05	-9.5633	-0.5253	-1.3544	-0.0210	-0.0079	-0.0611	30.1446	17.7548	1.7173	0.5819	0.3044	0.6916	-0.3008
8.06	-9.5336	-0.5010	-1.3428	-0.0228	-0.0074	-0.0474	30.0462	17.8025	1.6210	0.5819	0.3043	0.6916	-0.3007
8.07	-9.6539	-0.4898	-1.3554	-0.0153	0.0026	-0.0624	29.8552	18.0367	1.4604	0.5819	0.3043	0.6916	-0.3007
8.08	-9.6225	-0.4812	-1.3506	-0.0206	-0.0155	-0.0604	29.9671	17.8665	1.5922	0.5820	0.3042	0.6917	-0.3007
8.09	-9.5312	-0.4678	-1.3275	-0.0243	-0.0199	-0.0533	30.0160	17.9343	1.8544	0.5820	0.3041	0.6916	-0.3006
8.1	-9.5669	-0.4924	-1.3373	-0.0071	-0.0089	-0.0577	30.0213	17.8703	1.5681	0.5821	0.3041	0.6917	-0.3007
8.11	-9.5908	-0.4916	-1.3403	-0.0139	-0.0157	-0.0439	29.8558	18.0157	1.6681	0.5821	0.3040	0.6916	-0.3006
8.12	-9.5806	-0.4902	-1.3350	-0.0179	-0.0093	-0.0436	29.8746	18.0682	1.7582	0.5822	0.3040	0.6916	-0.3005
8.13	-9.5656	-0.4688	-1.3294	-0.0095	-0.0114	-0.0370	29.7384	17.9753	1.6149	0.5822	0.3040	0.6916	-0.3004
8.14	-9.5889	-0.4497	-1.3294	-0.0121	-0.0140	-0.0395	29.9160	18.2807	1.7392	0.5823	0.3041	0.6915	-0.3004
8.15	-9.6001	-0.4572	-1.3316	-0.0150	-0.0184	-0.0378	30.3169	18.1583	1.8731	0.5824	0.3041	0.6915	-0.3003
8.16	-9.5888	-0.4640	-1.3264	-0.0183	-0.0186	-0.0474	30.2613	18.0482	1.8059	0.5825	0.3040	0.6914	-0.3002
8.17	-9.5695	-0.4607	-1.3208	0.0028	-0.0120	-0.0522	29.7700	18.0780	1.7352	0.5826	0.3040	0.6914	-0.3003
8.18	-9.5640	-0.4492	-1.3173	-0.0045	-0.0138	-0.0477	29.5536	17.7843	1.8240	0.5825	0.3040	0.6913	-0.3002
8.19	-9.5647	-0.4355	-1.3152	-0.0072	-0.0139	-0.0459	29.6829	18.0057	1.5401	0.5826	0.3040	0.6914	-0.3003
8.2	-9.5548	-0.4217	-1.3085	-0.0192	-0.0197	-0.0439	29.7445	17.9955	1.5105	0.5827	0.3039	0.6914	-0.3002
8.21	-9.5573	-0.4177	-1.3063	-0.0123	-0.0160	-0.0450	29.6870	17.5983	1.5243	0.5827	0.3039	0.6914	-0.3002
8.22	-9.5607	-0.4182	-1.3095	-0.0179	-0.0185	-0.0437	29.7440	17.6415	1.5199	0.5828	0.3039	0.6913	-0.3002
8.23	-9.5612	-0.4197	-1.2972	-0.0212	-0.0138	-0.0475	29.7817	17.6505	1.6569	0.5828	0.3038	0.6913	-0.3001
8.24	-9.5551	-0.4239	-1.2960	-0.0226	-0.0170	-0.0416	29.9091	17.3890	1.5516	0.5829	0.3037	0.6913	-0.3001
8.25	-9.5592	-0.4369	-1.2992	-0.0244	-0.0141	-0.0459	30.0402	17.8122	1.4992	0.5829	0.3036	0.6913	-0.3000
8.26	-9.5669	-0.4481	-1.2966	-0.0282	-0.0110	-0.0442	29.7246	17.9980	1.6393	0.5831	0.3036	0.6914	-0.2999
8.27	-9.5634	-0.4503	-1.2956	-0.0217	-0.0074	-0.0394	29.5976	17.9038	1.7291	0.5831	0.3036	0.6914	-0.2998
8.28	-9.5647	-0.4557	-1.2922	-0.0228	-0.0113	-0.0421	29.6584	18.0225	1.6324	0.5832	0.3035	0.6914	-0.2998
8.29	-9.5678	-0.4566	-1.2944	-0.0229	-0.0127	-0.0371	29.5078	17.9789	1.4926	0.5831	0.3035	0.6913	-0.2997
8.3	-9.5648	-0.4519	-1.2933	-0.0227	-0.0159	-0.0480	29.6916	17.8453	1.5357	0.5832	0.3034	0.6914	-0.2996
8.31	-9.5593	-0.4438	-1.2932	-0.0171	-0.0121	-0.0457	29.6851	17.6588	1.6890	0.5833	0.3034	0.6914	-0.2996
8.32	-9.5546	-0.4401	-1.2897	-0.0190	-0.0075	-0.0481	29.5192	17.8340	1.7164	0.5833	0.3033	0.6914	-0.2995
8.33	-9.5612	-0.4311	-1.2933	-0.0203	-0.0109	-0.0552	29.5425	17.7970	1.6830	0.5834	0.3032	0.6915	-0.2995
8.34	-9.5541	-0.4194	-1.2906	-0.0204	-0.0078	-0.0495	29.6756	17.6924	1.7385	0.5834	0.3032	0.6914	-0.2995
8.35	-9.5571	-0.4130	-1.2912	-0.0145	-0.0086	-0.0539	29.5231	17.7837	1.6136	0.5834	0.3031	0.6915	-0.2995
8.36	-9.5671	-0.4110	-1.2912	-0.0202	-0.0045	-0.0544	29.6344	17.9161	1.6281	0.5833	0.3030	0.6915	-0.2994
8.37	-9.5654	-0.4063	-1.2937	-0.0228	-0.0053	-0.0543	29.7146	17.7725	1.4448	0.5834	0.3029	0.6916	-0.2994
8.38	-9.5619	-0.4123	-1.2954	-0.0229	-0.0112	-0.0549	29.5968	17.6905	1.5056	0.5834	0.3028	0.6916	-0.2993
8.39	-9.5733	-0.4162	-1.2994	-0.0199	-0.0037	-0.0525	29.9261	17.8041	1.7349	0.5834	0.3028	0.6916	-0.2993
8.4	-9.5730	-0.4182	-1.3034	-0.0227	-0.0060	-0.0552	29.8617	17.9182	1.6915	0.5835	0.3027	0.6917	-0.2993
8.41	-9.5653	-0.4220	-1.3002	-0.0219	-0.0043	-0.0536	29.9529	17.7565	1.7067	0.5835	0.3026	0.6917	-0.2992
8.42	-9.5696	-0.4264	-1.2988	-0.0228	-0.0004	-0.0526	29.9456	17.7117	1.9386	0.5835	0.3026	0.6918	-0.2992
8.43	-9.5644	-0.4349	-1.3047	-0.0274	-0.0055	-0.0544	29.7863	17.7420	1.6771	0.5834	0.3024	0.6918	-0.2991
8.44	-9.5696	-0.4422	-1.3129	-0.0298	-0.0047	-0.0574	29.8006	17.6959	1.6475	0.5835	0.3024	0.6919	-0.2990
8.45	-9.5744	-0.4442	-1.3071	-0.0325	-0.0067	-0.0556	29.6630	17.9521	1.4829	0.5835	0.3022	0.6919	-0.2989
8.46	-9.5701	-0.4492	-1.3132	-0.0278	-0.0071	-0.0537	29.5328	17.9397	1.4702	0.5836	0.3021	0.6920	-0.2989
8.47	-9.5713	-0.4584	-1.3160	-0.0267	-0.0107	-0.0555	29.6225	17.7868	1.6133	0.5836	0.3020	0.6920	-0.2988
8.48	-9.5741	-0.4683	-1.3179	-0.0245	-0.0046	-0.0522	29.8865	17.8113	1.6727	0.5836	0.3019	0.6921	-0.2988
8.49	-9.5803	-0.4719	-1.3198	-0.0287	-0.0045	-0.0593	29.6694	17.6632	1.8191	0.5836	0.3018	0.6921	-0.2987
8.5	-9.5822	-0.4718	-1.3172	-0.0233	-0.0029	-0.0527	29.5287	17.8485	1.4876	0.5836	0.3018	0.6921	-0.2986
8.51	-9.5793	-0.4758	-1.3167	-0.0233	-0.0033	-0.0498	29.5256	17.7573	1.5141	0.5837	0.3018	0.6922	-0.2986
8.52	-9.5785	-0.4776	-1.3146	-0.0219	-0.0029	-0.0476	29.7153	17.9228	1.5594	0.5837	0.3017	0.6922	-0.2985
8.53	-9.5772	-0.4749	-1.3177	-0.0194	-0.0029	-0.0497	29.4138	17.9682	1.6219	0.5838	0.3017	0.6923	-0.2984
8.54	-9.5701	-0.4717	-1.3136	-0.0208	-0.0066	-0.0546	29.6710	17.6908	1.6144	0.5838	0.3016	0.6922	-0.2983
8.55	-9.5697	-0.4619	-1.3165	-0.0148	-0.0037	-0.0476	29.6541	17.7220	1.5916	0.5838	0.3016	0.6923	-0.2983
8.56	-9.5738	-0.4588	-1.3127	-0.0197	-0.0047	-0.0503	29.5466	17.7680	1.6840	0.5839	0.3016	0.6923	-0.2982
8.57	-9.5730	-0.4488	-1.3152	-0.0103	-0.0070	-0.0453	29.6555	17.8424	1.6437	0.5839	0.3016	0.6922	-0.2981
8.58	-9.5656	-0.4416	-1.3070	0.0004	-0.0077	-0.0485	29.6230	17.6914	1.4821	0.5839	0.3016	0.6923	-0.2982
8.59	-9.5653	-0.4365	-1.3061	-0.0108	-0.0114	-0.0460	29.7332	17.7475	1.7035	0.5839	0.3016	0.6922	-0.2981
8.6	-9.5663	-0.4260	-1.3070	-0.0095	-0.0119	-0.0478	29.7591	17.6946	1.6669	0.5840	0.3016	0.6923	-0.2981
8.61	-9.5605	-0.4137	-1.3054	-0.0040	-0.0130	-0.0446	29.8465	17.8335	1.4050	0.5839	0.3015	0.6922	-0.2981
8.62	-9.5545	-0.4079	-1.3032	-0.0179	-0.0110	-0.0501	29.5289	17.7783	1.4326	0.5840	0.3015	0.6922	-0.2981
8.63	-9.5586	-0.4060	-1.3067	-0.0158	-0.0092	-0.0528	29.5954	17.7043	1.2488	0.5840	0.3014	0.6922	-0.2981
8.64	-9.5669	-0.4105	-1.3035	-0.0198	-0.0093	-0.0501	29.9668	17.7268	1.5974	0.5840	0.3014	0.6922	-0.2980
8.65	-9.5677	-0.4176	-1.3095	-0.0240	-0.0085	-0.0479	30.1069	17.7381	1.7241	0.5841	0.3013	0.6923	-0.2980
8.66	-9.5706	-0.4188	-1.3115	-0.0238	-0.0060	-0.0513	30.0231	17.6961	1.7140	0.5841	0.3012	0.6923	-0.2979
8.67	-9.5729	-0.4071	-1.3057	-0.0250	-0.0079	-0.0486	29.9948	17.7341	1.7575	0.5842	0.3012	0.6924	-0.2979
8.68	-9.5730	-0.3979	-1.3119	-0.0262	-0.0035	-0.0560	29.7780	17.9368	1.6344	0.5841	0.3010	0.6923	-0.2978
8.69	-9.5645	-0.4086	-1.3131	-0.0270	-0.0049	-0.0604	29.6831	17.9922	1.6591	0.5842	0.3010	0.6925	-0.2978
8.7	-9.5482	-0.4196	-1.3086	-0.0278	0.0003	-0.0574	29.5926	17.9555	1.6435	0.5841	0.3009	0.6925	-0.2977
8.71	-9.5721	-0.4426	-1.3057	-0.0386	-0.0020	-0.0666	29.6107	18.0508	1.6574	0.5842	0.3007	0.6926	-0.2977
8.72	-9.5831	-0.4533	-1.3072	-0.0324	-0.0036	-0.0656	29.7653	18.0796	1.6276	0.5842	0.3006	0.6927	-0.2976
8.73	-9.6033	-0.4578	-1.3040	-0.0311	-0.0014	-0.0560	29.7437	17.9241	1.9526	0.5842	0.3005	0.6928	-0.2975
8.74	-9.5942	-0.4684	-1.3068	-0.0296	-0.0030	-0.0614	29.8995	17.8710	1.8207	0.5842	0.3004	0.6928	-0.2975
8.75	-9.5449	-0.4861	-1.3095	-0.0243	-0.0048	-0.0560	29.6318	17.9681	1.6250	0.5842	0.3003	0.6928	-0.2974
8.76	-9.5203	-0.5070	-1.3122	-0.0228	-0.0113	-0.0549	29.6625	17.9971	1.6602	0.5843	0.3002	0.6929	-0.2974
8.77	-9.5214	-0.5155	-1.3210	-0.0235	-0.0066	-0.0481	29.7917	17.7774	1.4937	0.5843	0.3001	0.6929	-0.2973
8.78	-9.5498	-0.5083	-1.3207	-0.0165	-0.0007	-0.0347	29.8967	17.6755	1.4516	0.5843	0.3002	0.6930	-0.2973
8.79	-9.5768	-0.4828	-1.3269	-0.0128	-0.0037	-0.0362	30.0231	17.8272	1.5830	0.5843	0.3001	0.6929	-0.2972
8.8	-9.5887	-0.4584	-1.3336	0.0006	0.0061	-0.0415	29.9938	17.6680	1.5457	0.5843	0.3002	0.6930	-0.2971
8.81	-9.5808	-0.4449	-1.3338	0.0033	-0.0046	-0.0460	30.0296	17.7831	1.6248	0.5843	0.3002	0.6930	-0.2972
8.82	-9.5724	-0.4289	-1.3354	0.0028	-0.0021	-0.0500	29.9186	17.8140	1.6733	0.5842	0.3002	0.6929	-0.2972
8.83	-9.5691	-0.4168	-1.3343	0.0030	0.0014	-0.0534	29.9219	17.7924	1.6456	0.5842	0.3003	0.6930	-0.2973
8.84	-9.5516	-0.4026	-1.3319	-0.0023	0.0014	-0.0588	29.7652	17.8160	1.6642	0.5841	0.3003	0.6930	-0.2973
8.85	-9.5413	-0.3925	-1.3317	-0.0012	-0.0036	-0.0537	29.7357	17.7760	1.6406	0.5841	0.3003	0.6931	-0.2973
8.86	-9.5602	-0.3793	-1.3262	-0.0182	-0.0011	-0.0558	29.7302	17.8999	1.7398	0.5841	0.3002	0.6930	-0.2972
8.87	-9.5776	-0.3703	-1.3280	-0.0255	-0.0007	-0.0590	29.8777	18.0971	1.8756	0.5841	0.3001	0.6932	-0.2972
8.88	-9.5777	-0.3751	-1.3325	-0.0257	-0.0007	-0.0593	29.7477	17.8876	1.5886	0.5841	0.3000	0.6932	-0.2972
8.89	-9.5776	-0.3974	-1.3325	-0.0419	0.0014	-0.0553	29.8110	17.8879	1.5652	0.5841	0.2999	0.6933	-0.2971
8.9	-9.5793	-0.4124	-1.3386	-0.0535	-0.0004	-0.0573	29.8371	17.8925	1.5294	0.5841	0.2997	0.6934	-0.2969
8.91	-9.5733	-0.4337	-1.3403	-0.0483	0.0006	-0.0551	29.8415	17.8836	1.7804	0.5842	0.2996	0.6935	-0.2968
8.92	-9.5745	-0.4536	-1.3412	-0.0482	-0.0064	-0.0535	29.9850	17.9040	1.5495	0.5843	0.2995	0.6936	-0.2966
8.93	-9.5944	-0.4759	-1.3423	-0.0423	-0.0037	-0.0649	29.7222	17.8578	1.4187	0.5843	0.2993	0.6935	-0.2965
8.94	-9.6013	-0.4967	-1.3441	-0.0287	-0.0026	-0.0618	29.5360	18.0407	1.7114	0.5844	0.2992	0.6937	-0.2964
8.95	-9.5977	-0.4970	-1.3402	-0.0294	-0.0061	-0.0499	29.7377	17.7019	1.7902	0.5844	0.2991	0.6937	-0.2963
8.96	-9.6034	-0.5065	-1.3419	-0.0223	-0.0077	-0.0562	29.7301	17.8833	1.5807	0.5844	0.2991	0.6937	-0.2963
8.97	-9.5437	-0.5009	-1.3340	-0.0227	-0.0096	-0.0535	29.8313	17.7760	1.5614	0.5844	0.2990	0.6937	-0.2962
8.98	-9.5734	-0.4822	-1.3196	-0.0217	-0.0114	-0.0572	30.0878	17.7575	1.5406	0.5845	0.2989	0.6937	-0.2962
8.99	-9.6623	-0.4821	-1.3337	-0.0236	-0.0111	-0.0570	29.8706	18.1074	1.4407	0.5846	0.2988	0.6938	-0.2962
9	-9.5669	-0.4722	-1.3106	-0.0186	-0.0245	-0.0561	29.7921	17.7336	1.4790	0.5846	0.2987	0.6937	-0.2961
9.01	-9.5256	-0.4734	-1.3025	-0.0209	-0.0259	-0.0580	30.0637	17.8651	1.4775	0.5847	0.2986	0.6938	-0.2962
9.02	-9.5739	-0.4868	-1.3073	-0.0230	-0.0136	-0.0525	29.9555	17.6971	1.4578	0.5847	0.2985	0.6937	-0.2961
9.03	-9.5901	-0.4890	-1.3008	-0.0162	-0.0240	-0.0440	29.8640	17.8532	1.7877	0.5849	0.2985	0.6937	-0.2961
9.04	-9.5671	-0.4828	-1.2900	-0.0154	-0.0241	-0.0380	29.6322	17.9804	1.5157	0.5849	0.2985	0.6936	-0.2960
9.05	-9.5665	-0.4550	-1.2852	-0.0092	-0.0095	-0.0405	29.6587	18.0068	1.3874	0.5850	0.2985	0.6936	-0.2960
9.06	-9.5941	-0.4455	-1.2882	-0.0114	-0.0142	-0.0455	29.8294	17.8561	1.6345	0.5851	0.2985	0.6936	-0.2960
9.07	-9.5786	-0.4509	-1.2763	-0.0213	-0.0146	-0.0501	29.8214	17.8290	1.5042	0.5851	0.2984	0.6935	-0.2959
9.08	-9.5574	-0.4509	-1.2728	-0.0167	-0.0196	-0.0509	29.7615	18.1279	1.8066	0.5852	0.2984	0.6936	-0.2959
9.09	-9.5359	-0.4420	-1.2709	-0.0165	-0.0159	-0.0537	29.6726	18.0209	1.6716	0.5852	0.2983	0.6935	-0.2959
9.1	-9.5275	-0.4279	-1.2687	-0.0090	-0.0069	-0.0531	29.4923	17.8881	1.4178	0.5853	0.2983	0.6936	-0.2959
9.11	-9.5341	-0.4262	-1.2661	-0.0201	-0.0108	-0.0571	29.7648	17.9654	1.6745	0.5852	0.2982	0.6935	-0.2958
9.12	-9.5332	-0.4159	-1.2682	-0.0215	-0.0053	-0.0562	29.8511	17.9957	1.7423	0.5853	0.2981	0.6936	-0.2958
9.13	-9.5434	-0.4151	-1.2690	-0.0223	-0.0070	-0.0550	29.6193	17.9408	1.6081	0.5853	0.2980	0.6936	-0.2958
9.14	-9.5527	-0.4308	-1.2744	-0.0229	-0.0039	-0.0511	29.8441	17.7829	1.6980	0.5853	0.2980	0.6937	-0.2957
9.15	-9.5505	-0.4469	-1.2734	-0.0224	-0.0007	-0.0463	30.2715	17.9122	1.5166	0.5853	0.2979	0.6937	-0.2957
9.16	-9.5499	-0.4613	-1.2760	-0.0239	-0.0079	-0.0509	30.2392	17.8712	1.4958	0.5853	0.2978	0.6937	-0.2956
9.17	-9.5646	-0.4683	-1.2869	-0.0250	-0.0023	-0.0445	30.0257	17.7866	1.8272	0.5854	0.2978	0.6938	-0.2956
9.18	-9.5654	-0.4804	-1.2901	-0.0225	-0.0049	-0.0438	29.7545	17.7292	1.5922	0.5853	0.2977	0.6938	-0.2954
9.19	-9.5657	-0.4889	-1.2923	-0.0238	-0.0071	-0.0417	29.6774	17.8547	1.6314	0.5854	0.2977	0.6939	-0.2954
9.2	-9.5727	-0.4867	-1.3065	-0.0182	-0.0026	-0.0450	29.6601	17.9024	1.5761	0.5854	0.2977	0.6939	-0.2953
9.21	-9.5763	-0.4787	-1.3056	-0.0190	-0.0023	-0.0406	29.6757	17.9121	1.7195	0.5854	0.2977	0.6939	-0.2953
9.22	-9.5840	-0.4643	-1.3082	-0.0170	0.0011	-0.0415	29.5568	17.7933	1.5920	0.5854	0.2977	0.6939	-0.2952
9.23	-9.6031	-0.4564	-1.3081	-0.0009	-0.0043	-0.0421	29.4582	17.5809	1.3980	0.5854	0.2977	0.6939	-0.2952
9.24	-9.5940	-0.4478	-1.3135	-0.0065	-0.0025	-0.0449	29.7011	17.8866	1.6346	0.5854	0.2977	0.6939	-0.2952
9.25	-9.5891	-0.4324	-1.3161	-0.0073	-0.0018	-0.0485	29.4812	17.8984	1.5841	0.5854	0.2977	0.6939	-0.2951
9.26	-9.5917	-0.4175	-1.3150	-0.0054	-0.0009	-0.0479	29.4763	17.8991	1.7452	0.5855	0.2978	0.6940	-0.2951
9.27	-9.5786	-0.4100	-1.3115	-0.0038	-0.0063	-0.0451	29.6436	17.8826	1.6541	0.5855	0.2978	0.6939	-0.2951
9.28	-9.5762	-0.3992	-1.3105	-0.0015	-0.0014	-0.0475	29.6751	17.7000	1.8261	0.5855	0.2978	0.6939	-0.2951
9.29	-9.5765	-0.3942	-1.3074	-0.0062	-0.0028	-0.0468	29.5689	17.8280	1.6716	0.5855	0.2978	0.6938	-0.2950
9.3	-9.5683	-0.3923	-1.3034	-0.0195	-0.0081	-0.0488	29.5551	17.7854	1.6450	0.5855	0.2978	0.6939	-0.2950
9.31	-9.5671	-0.3905	-1.3036	-0.0223	-0.0080	-0.0464	29.4351	17.8684	1.6719	0.5855	0.2977	0.6939	-0.2949
9.32	-9.5665	-0.3965	-1.3000	-0.0234	-0.0069	-0.0487	29.5826	17.9070	1.5828	0.5855	0.2977	0.6939	-0.2948
9.33	-9.5595	-0.4023	-1.3011	-0.0228	-0.0064	-0.0554	29.6489	17.8988	1.6227	0.5856	0.2976	0.6940	-0.2948
9.34	-9.5628	-0.4051	-1.2970	-0.0246	-0.0079	-0.0563	29.9929	17.7416	1.4767	0.5856	0.2975	0.6940	-0.2948
9.35	-9.5646	-0.4111	-1.2973	-0.0217	-0.0073	-0.0560	29.7108	17.7578	1.5938	0.5857	0.2974	0.6941	-0.2948
9.36	-9.5522	-0.4190	-1.2985	-0.0296	-0.0041	-0.0580	29.5651	17.9290	1.7146	0.5856	0.2973	0.6941	-0.2947
9.37	-9.5541	-0.4262	-1.2983	-0.0256	-0.0033	-0.0610	29.6407	17.8704	1.6915	0.5857	0.2972	0.6942	-0.2947
9.38	-9.5462	-0.4374	-1.2985	-0.0256	-0.0005	-0.0579	29.6077	17.7601	1.7337	0.5856	0.2971	0.6942	-0.2946
9.39	-9.5464	-0.4407	-1.3018	-0.0339	-0.0047	-0.0574	29.6182	17.6737	1.6074	0.5856	0.2970	0.6943	-0.2945
9.4	-9.5575	-0.4455	-1.3065	-0.0295	-0.0010	-0.0633	29.4482	17.8741	1.7190	0.5857	0.2969	0.6944	-0.2945
9.41	-9.5658	-0.4527	-1.3083	-0.0272	-0.0005	-0.0611	29.7560	17.8315	1.8199	0.5856	0.2967	0.6944	-0.2945
9.42	-9.5655	-0.4596	-1.3103	-0.0274	-0.0030	-0.0567	29.5383	17.7052	1.7954	0.5857	0.2967	0.6945	-0.2944
9.43	-9.5678	-0.4648	-1.3144	-0.0256	-0.0019	-0.0595	29.6788	18.0371	1.7280	0.5856	0.2965	0.6945	-0.2943
9.44	-9.5785	-0.4709	-1.3214	-0.0223	0.0015	-0.0587	29.6394	17.8433	1.5492	0.5857	0.2965	0.6947	-0.2943
9.45	-9.5744	-0.4700	-1.3219	-0.0226	0.0034	-0.0595	29.5450	17.8008	1.7250	0.5856	0.2964	0.6947	-0.2943
9.46	-9.5654	-0.4734	-1.3288	-0.0231	0.0060	-0.0552	29.5969	17.8190	1.8412	0.5856	0.2963	0.6948	-0.2942
9.47	-9.5716	-0.4735	-1.3320	-0.0214	0.0029	-0.0541	29.4530	17.7886	1.6747	0.5855	0.2963	0.6948	-0.2942
9.48	-9.5757	-0.4689	-1.3367	-0.0227	-0.0001	-0.0597	29.7674	18.0962	1.7207	0.5856	0.2962	0.6949	-0.2941
9.49	-9.5870	-0.4682	-1.3378	-0.0219	0.0017	-0.0572	29.6783	17.9703	1.6581	0.5856	0.2961	0.6950	-0.2941
9.5	-9.5837	-0.4632	-1.3408	-0.0210	-0.0025	-0.0517	29.7200	17.7747	1.4921	0.5855	0.2961	0.6949	-0.2940
9.51	-9.5735	-0.4580	-1.3384	-0.0129	-0.0050	-0.0536	29.7835	17.9320	1.6590	0.5856	0.2961	0.6950	-0.2940
9.52	-9.5924	-0.4576	-1.3380	-0.0154	-0.0077	-0.0554	29.8517	17.7248	1.6965	0.5856	0.2960	0.6950	-0.2939
9.53	-9.6089	-0.4611	-1.3488	-0.0206	0.0019	-0.0537	29.8282	17.7342	1.5167	0.5857	0.2960	0.6951	-0.2939
9.54	-9.5989	-0.4600	-1.3400	-0.0223	-0.0074	-0.0543	29.9237	17.7016	1.5235	0.5857	0.2959	0.6950	-0.2938
9.55	-9.5909	-0.4531	-1.3432	-0.0180	-0.0128	-0.0452	29.9477	17.7614	1.5333	0.5858	0.2959	0.6950	-0.2937
9.56	-9.5972	-0.4386	-1.3367	-0.0151	-0.0078	-0.0426	29.8576	17.8192	1.5004	0.5858	0.2959	0.6950	-0.2937
9.57	-9.5998	-0.4288	-1.3299	-0.0239	-0.0129	-0.0502	29.5269	17.8091	1.6059	0.5859	0.2958	0.6949	-0.2936
9.58	-9.5610	-0.4310	-1.3207	-0.0216	-0.0148	-0.0561	29.7102	17.8856	1.7119	0.5860	0.2958	0.6951	-0.2936
9.59	-9.5697	-0.4368	-1.3159	-0.0250	-0.0128	-0.0580	29.5925	17.9609	1.8625	0.5860	0.2956	0.6950	-0.2935
9.6	-9.6089	-0.4551	-1.3217	-0.0219	-0.0124	-0.0596	29.3685	17.9264	1.6182	0.5861	0.2956	0.6951	-0.2935
9.61	-9.5973	-0.4503	-1.3015	-0.0252	-0.0273	-0.0557	29.4800	17.8856	1.6965	0.5861	0.2954	0.6949	-0.2935
9.62	-9.5968	-0.4458	-1.2941	-0.0217	-0.0232	-0.0540	29.6124	17.9942	1.8074	0.5862	0.2954	0.6950	-0.2934
9.63	-9.5836	-0.4503	-1.2871	-0.0318	-0.0176	-0.0551	29.5109	17.8567	1.4737	0.5863	0.2953	0.6949	-0.2934
9.64	-9.5428	-0.4536	-1.2735	-0.0310	-0.0183	-0.0546	29.7967	17.9165	1.9189	0.5864	0.2952	0.6949	-0.2933
9.65	-9.5087	-0.4720	-1.2754	-0.0251	-0.0178	-0.0476	30.0685	17.9776	1.8568	0.5865	0.2951	0.6950	-0.2933
9.66	-9.5009	-0.4882	-1.2694	-0.0272	-0.0120	-0.0509	29.8567	18.1487	1.6757	0.5865	0.2950	0.6950	-0.2932
9.67	-9.5173	-0.4902	-1.2723	-0.0240	0.0002	-0.0496	30.0058	18.1421	1.7690	0.5865	0.2950	0.6950	-0.2932
9.68	-9.5267	-0.4802	-1.2737	-0.0239	0.0018	-0.0446	29.6215	18.0226	1.6325	0.5865	0.2949	0.6950	-0.2930
9.69	-9.5270	-0.4640	-1.2667	-0.0244	-0.0039	-0.0465	29.5937	17.9643	1.6614	0.5866	0.2949	0.6951	-0.2930
9.7	-9.5226	-0.4583	-1.2739	-0.0250	-0.0044	-0.0497	29.9112	18.0274	1.4863	0.5866	0.2948	0.6951	-0.2929
9.71	-9.5227	-0.4580	-1.2771	-0.0230	0.0055	-0.0569	29.6527	17.8224	1.4560	0.5865	0.2948	0.6952	-0.2929
9.72	-9.5151	-0.4549	-1.2869	-0.0191	0.0081	-0.0551	29.9359	17.8039	1.5848	0.5865	0.2947	0.6953	-0.2928
9.73	-9.5120	-0.4468	-1.2952	-0.0218	0.0175	-0.0543	30.0945	17.7945	1.5562	0.5864	0.2947	0.6954	-0.2928
9.74	-9.5147	-0.4417	-1.3010	-0.0196	0.0141	-0.0563	29.6626	17.6735	1.5950	0.5864	0.2946	0.6955	-0.2927
9.75	-9.5271	-0.4269	-1.3068	-0.0226	0.0253	-0.0575	29.9002	17.8215	1.4670	0.5862	0.2946	0.6956	-0.2926
9.76	-9.5600	-0.4195	-1.3181	-0.0239	0.0217	-0.0553	29.9713	17.8028	1.4875	0.5862	0.2946	0.6958	-0.2926
9.77	-9.5748	-0.4230	-1.3284	-0.0264	0.0219	-0.0586	29.8849	17.6657	1.6092	0.5861	0.2945	0.6958	-0.2925
9.78	-9.5872	-0.4324	-1.3347	-0.0242	0.0215	-0.0606	29.8237	17.8607	1.4919	0.5860	0.2945	0.6960	-0.2924
9.79	-9.6019	-0.4446	-1.3430	-0.0320	0.0190	-0.0565	29.8062	18.0096	1.4427	0.5859	0.2944	0.6961	-0.2923
9.8	-9.6029	-0.4597	-1.3598	-0.0281	0.0258	-0.0589	29.6512	17.8452	1.5230	0.5858	0.2943	0.6963	-0.2922
9.81	-9.6008	-0.4739	-1.3680	-0.0389	0.0233	-0.0640	29.8589	18.1545	1.7447	0.5858	0.2942	0.6964	-0.2921
9.82	-9.6127	-0.4796	-1.3783	-0.0466	0.0082	-0.0640	29.8279	18.0944	1.7565	0.5857	0.2941	0.6965	-0.2920
9.83	-9.6302	-0.4956	-1.3821	-0.0331	0.0065	-0.0642	29.8005	17.9611	1.7209	0.5858	0.2940	0.6967	-0.2919
9.84	-9.6388	-0.5018	-1.3863	-0.0321	0.0033	-0.0625	29.7760	18.1340	1.8095	0.5857	0.2939	0.6967	-0.2918
9.85	-9.6181	-0.5090	-1.3873	-0.0223	0.0049	-0.0569	29.6874	17.9755	1.7861	0.5858	0.2938	0.6968	-0.2918
9.86	-9.5598	-0.4987	-1.3693	-0.0260	0.0001	-0.0474	29.7272	18.0013	1.7214	0.5857	0.2938	0.6967	-0.2916
9.87	-9.6594	-0.4955	-1.3738	-0.0242	0.0021	-0.0596	29.7063	17.9498	1.8814	0.5858	0.2938	0.6968	-0.2916
9.88	-9.6687	-0.5030	-1.3727	-0.0232	-0.0109	-0.0596	29.8908	17.8969	1.6113	0.5858	0.2937	0.6968	-0.2915
9.89	-9.5452	-0.4980	-1.3478	-0.0216	-0.0202	-0.0527	29.8827	17.8296	1.5262	0.5859	0.2936	0.6968	-0.2915
9.9	-9.5458	-0.5143	-1.3405	-0.0229	-0.0202	-0.0524	29.9014	17.7079	1.7145	0.5860	0.2935	0.6968	-0.2915
9.91	-9.5861	-0.5373	-1.3389	-0.0231	-0.0157	-0.0454	30.0066	17.7144	1.5848	0.5860	0.2935	0.6968	-0.2914
9.92	-9.5763	-0.5377	-1.3365	-0.0237	-0.0161	-0.0379	30.1495	17.7704	1.4134	0.5861	0.2935	0.6968	-0.2913
9.93	-9.5341	-0.5218	-1.3286	-0.0236	-0.0228	-0.0338	29.7641	17.9029	1.6676	0.5862	0.2934	0.6967	-0.2912
9.94	-9.5556	-0.4995	-1.3201	-0.0153	-0.0150	-0.0288	29.7423	17.9069	1.6722	0.5863	0.2935	0.6967	-0.2912
9.95	-9.5766	-0.4914	-1.3189	-0.0111	-0.0132	-0.0358	29.9377	17.8551	1.6098	0.5864	0.2935	0.6966	-0.2911
9.96	-9.5624	-0.4966	-1.3194	-0.0108	-0.0195	-0.0383	29.8813	17.7753	1.5411	0.5865	0.2935	0.6966	-0.2911
9.97	-9.5465	-0.4939	-1.3138	-0.0008	-0.0094	-0.0406	29.8002	17.9237	1.6753	0.5865	0.2935	0.6965	-0.2911
9.98	-9.5414	-0.4813	-1.3139	-0.0020	-0.0131	-0.0356	29.6901	17.7489	1.5259	0.5865	0.2936	0.6965	-0.2911
9.99	-9.5377	-0.4681	-1.3137	0.0025	-0.0039	-0.0346	29.8957	17.9044	1.6233	0.5865	0.2937	0.6965	-0.2911
10	-9.5275	-0.4472	-1.3152	0.0036	-0.0006	-0.0314	29.5637	17.8107	1.7598	0.5865	0.2937	0.6964	-0.2910
10.01	-9.5333	-0.4340	-1.3159	-0.0004	0.0008	-0.0347	29.7962	17.8076	1.7454	0.5865	0.2938	0.6965	-0.2910
10.02	-9.5441	-0.4250	-1.3183	-0.0079	-0.0010	-0.0397	29.8621	17.9557	1.6085	0.5865	0.2938	0.6964	-0.2910
10.03	-9.5515	-0.4231	-1.3230	-0.0041	-0.0006	-0.0396	29.5711	18.0424	1.7451	0.5865	0.2939	0.6965	-0.2910
10.04	-9.5553	-0.4214	-1.3303	-0.0134	0.0097	-0.0409	29.7468	18.1897	1.7428	0.5864	0.2939	0.6965	-0.2909
10.05	-9.5634	-0.4223	-1.3334	-0.0206	0.0002	-0.0446	29.6929	18.0050	1.6293	0.5864	0.2939	0.6965	-0.2908
10.06	-9.5629	-0.4205	-1.3330	-0.0188	-0.0039	-0.0393	29.7365	18.0040	1.6701	0.5865	0.2939	0.6966	-0.2907
10.07	-9.5671	-0.4249	-1.3396	-0.0161	-0.0070	-0.0353	29.6700	17.8379	1.6367	0.5865	0.2939	0.6965	-0.2906
10.08	-9.5692	-0.4250	-1.3410	-0.0159	-0.0012	-0.0423	29.9585	17.6810	1.7916	0.5865	0.2939	0.6966	-0.2906
10.09	-9.5655	-0.4212	-1.3459	-0.0190	-0.0069	-0.0405	30.0787	17.6365	1.5634	0.5865	0.2939	0.6966	-0.2905
10.1	-9.5671	-0.4167	-1.3513	-0.0214	-0.0076	-0.0463	29.8977	17.8378	1.6522	0.5866	0.2939	0.6966	-0.2905
10.11	-9.5704	-0.4092	-1.3520	-0.0194	-0.0014	-0.0500	30.2210	17.6963	1.5840	0.5865	0.2938	0.6966	-0.2904
10.12	-9.5783	-0.4019	-1.3572	-0.0178	-0.0037	-0.0546	29.9675	17.8674	1.4399	0.5866	0.2938	0.6967	-0.2904
10.13	-9.5793	-0.3968	-1.3538	-0.0185	-0.0003	-0.0515	29.5670	17.7026	1.7013	0.5865	0.2937	0.6967	-0.2904
10.14	-9.5736	-0.3958	-1.3527	-0.0151	0.0003	-0.0555	30.0461	17.8663	1.8078	0.5865	0.2937	0.6967	-0.2903
10.15	-9.5786	-0.3924	-1.3572	-0.0193	-0.0023	-0.0536	30.2966	18.0924	1.4951	0.5866	0.2937	0.6968	-0.2903
10.16	-9.5788	-0.3943	-1.3529	-0.0232	-0.0053	-0.0566	30.2005	18.1070	1.5162	0.5866	0.2936	0.6968	-0.2902
10.17	-9.5723	-0.3969	-1.3530	-0.0240	-0.0019	-0.0547	29.8776	18.0726	1.8014	0.5866	0.2936	0.6968	-0.2902
10.18	-9.5670	-0.4069	-1.3592	-0.0213	-0.0007	-0.0542	29.6998	17.8251	1.6985	0.5866	0.2935	0.6968	-0.2901
10.19	-9.5677	-0.4114	-1.3597	-0.0269	-0.0070	-0.0564	29.6230	17.9149	1.7958	0.5867	0.2935	0.6969	-0.2900
10.2	-9.5670	-0.4191	-1.3611	-0.0245	-0.0069	-0.0557	29.7478	17.9144	1.6407	0.5867	0.2934	0.6969	-0.2900
10.21	-9.5658	-0.4304	-1.3621	-0.0251	0.0021	-0.0594	29.5752	17.8144	1.5539	0.5867	0.2933	0.6969	-0.2899
10.22	-9.5641	-0.4401	-1.3580	-0.0308	-0.0047	-0.0576	29.7163	17.8199	1.8645	0.5867	0.2932	0.6969	-0.2898
10.23	-9.5705	-0.4504	-1.3631	-0.0281	-0.0042	-0.0637	29.7782	17.9028	1.6843	0.5868	0.2931	0.6970	-0.2898
10.24	-9.5729	-0.4582	-1.3647	-0.0256	0.0009	-0.0616	29.8171	17.9534	1.6695	0.5868	0.2931	0.6971	-0.2897
10.25	-9.5703	-0.4590	-1.3677	-0.0224	-0.0008	-0.0591	29.5986	17.9987	1.9414	0.5868	0.2930	0.6970	-0.2896
10.26	-9.5795	-0.4669	-1.3679	-0.0244	-0.0061	-0.0571	29.5098	17.9936	1.8396	0.5869	0.2930	0.6972	-0.2896
10.27	-9.5877	-0.4683	-1.3722	-0.0228	-0.0063	-0.0541	29.7862	17.7959	1.6164	0.5869	0.2929	0.6971	-0.2895
10.28	-9.5859	-0.4748	-1.3700	-0.0241	-0.0108	-0.0561	29.7797	17.6837	1.6565	0.5870	0.2928	0.6972	-0.2895
10.29	-9.5879	-0.4705	-1.3644	-0.0213	-0.0112	-0.0560	29.7678	17.8308	1.8313	0.5869	0.2927	0.6971	-0.2894
10.3	-9.5924	-0.4686	-1.3677	-0.0214	-0.0068	-0.0540	29.8049	17.8106	1.8770	0.5870	0.2927	0.6971	-0.2894
10.31	-9.5957	-0.4660	-1.3600	-0.0224	-0.0102	-0.0536	29.7107	17.8048	1.7318	0.5871	0.2927	0.6972	-0.2893
10.32	-9.5829	-0.4612	-1.3573	-0.0211	-0.0186	-0.0547	29.6850	17.8267	1.6048	0.5871	0.2926	0.6971	-0.2892
10.33	-9.5817	-0.4616	-1.3547	-0.0257	-0.0245	-0.0505	29.7714	17.7773	1.6164	0.5873	0.2925	0.6971	-0.2892
10.34	-9.5922	-0.4599	-1.3550	-0.0217	-0.0148	-0.0466	29.6913	17.8933	1.7360	0.5873	0.2925	0.6971	-0.2891
10.35	-9.5815	-0.4666	-1.3527	-0.0262	-0.0255	-0.0465	29.6217	18.0330	1.6590	0.5875	0.2924	0.6971	-0.2891
10.36	-9.5681	-0.4655	-1.3475	-0.0227	-0.0228	-0.0497	29.6016	17.8855	1.8191	0.5875	0.2923	0.6969	-0.2890
10.37	-9.5570	-0.4692	-1.3358	-0.0256	-0.0152	-0.0475	29.6816	17.8868	1.7568	0.5876	0.2923	0.6970	-0.2890
10.38	-9.5512	-0.4707	-1.3326	-0.0276	-0.0225	-0.0541	29.7788	17.7807	1.7041	0.5877	0.2922	0.6970	-0.2889
10.39	-9.5570	-0.4770	-1.3344	-0.0254	-0.0209	-0.0526	29.9300	17.8415	1.9428	0.5877	0.2921	0.6970	-0.2889
10.4	-9.5655	-0.4859	-1.3286	-0.0242	-0.0202	-0.0453	29.6426	17.6937	1.6429	0.5879	0.2921	0.6970	-0.2888
10.41	-9.5564	-0.4848	-1.3241	-0.0218	-0.0268	-0.0463	29.5744	17.8843	1.6408	0.5879	0.2920	0.6969	-0.2888
10.42	-9.5456	-0.4736	-1.3158	-0.0164	-0.0213	-0.0444	29.4593	17.8675	1.9335	0.5880	0.2919	0.6969	-0.2888
10.43	-9.5497	-0.4489	-1.3081	-0.0069	-0.0210	-0.0502	29.6939	17.6876	1.7730	0.5880	0.2919	0.6968	-0.2888
10.44	-9.5597	-0.4320	-1.3113	-0.0060	-0.0098	-0.0468	29.8044	17.7628	1.7140	0.5881	0.2919	0.6968	-0.2888
10.45	-9.5382	-0.4234	-1.3004	-0.0170	-0.0144	-0.0517	29.7505	17.8148	1.8137	0.5881	0.2918	0.6968	-0.2888
10.46	-9.5313	-0.4161	-1.2950	-0.0124	-0.0108	-0.0558	29.8630	17.8330	1.5068	0.5881	0.2918	0.6968	-0.2888
10.47	-9.5683	-0.4159	-1.2964	-0.0219	-0.0050	-0.0549	29.8722	17.6901	1.5283	0.5881	0.2917	0.6968	-0.2888
10.48	-9.5709	-0.4204	-1.2926	-0.0216	-0.0126	-0.0497	29.7401	17.6549	1.5112	0.5882	0.2917	0.6969	-0.2887
10.49	-9.5865	-0.4176	-1.2917	-0.0202	-0.0023	-0.0495	29.8181	17.7385	1.7654	0.5882	0.2916	0.6969	-0.2887
10.5	-9.5906	-0.4285	-1.2936	-0.0243	-0.0072	-0.0531	29.6659	17.7860	1.8144	0.5881	0.2915	0.6969	-0.2886
10.51	-9.5430	-0.4479	-1.2863	-0.0239	-0.0103	-0.0504	29.7217	17.9324	1.6768	0.5883	0.2915	0.6970	-0.2886
10.52	-9.5089	-0.4657	-1.2953	-0.0225	-0.0068	-0.0529	29.7742	17.8776	1.7066	0.5882	0.2914	0.6970	-0.2885
10.53	-9.5089	-0.4848	-1.3042	-0.0238	-0.0018	-0.0479	29.5914	17.9256	1.7023	0.5883	0.2914	0.6971	-0.2885
10.54	-9.5360	-0.4842	-1.3083	-0.0235	-0.0045	-0.0374	29.6069	17.7938	1.6881	0.5882	0.2914	0.6970	-0.2884
10.55	-9.5622	-0.4718	-1.3142	-0.0243	-0.0001	-0.0449	29.4732	17.7058	1.7330	0.5883	0.2913	0.6971	-0.2883
10.56	-9.5764	-0.4556	-1.3231	-0.0213	0.0037	-0.0462	29.5676	17.7296	1.6269	0.5883	0.2913	0.6971	-0.2882
10.57	-9.5814	-0.4435	-1.3353	-0.0234	0.0080	-0.0536	29.6334	17.7168	1.6231	0.5882	0.2913	0.6972	-0.2882
10.58	-9.5740	-0.4347	-1.3401	-0.0102	0.0068	-0.0575	29.4581	17.7212	1.5681	0.5882	0.2913	0.6973	-0.2882
10.59	-9.5678	-0.4191	-1.3421	-0.0132	0.0045	-0.0605	29.6037	18.0091	1.8574	0.5881	0.2912	0.6973	-0.2882
10.6	-9.5625	-0.4116	-1.3431	-0.0120	0.0010	-0.0636	29.7294	17.9092	1.7527	0.5881	0.2912	0.6974	-0.2882
10.61	-9.5589	-0.4035	-1.3457	-0.0232	0.0019	-0.0679	29.6662	17.9035	1.6856	0.5880	0.2910	0.6974	-0.2881
10.62	-9.5630	-0.3973	-1.3417	-0.0239	-0.0033	-0.0589	29.7087	17.8745	1.7874	0.5881	0.2910	0.6975	-0.2881
10.63	-9.5773	-0.3922	-1.3427	-0.0251	-0.0012	-0.0598	29.6662	17.9705	1.5232	0.5880	0.2909	0.6976	-0.2881
10.64	-9.5904	-0.3994	-1.3421	-0.0354	-0.0048	-0.0564	29.7961	17.9263	1.7182	0.5880	0.2908	0.6976	-0.2880
10.65	-9.5972	-0.4235	-1.3453	-0.0487	-0.0040	-0.0576	30.3210	17.8003	1.7082	0.5881	0.2906	0.6977	-0.2879
10.66	-9.5960	-0.4477	-1.3545	-0.0487	-0.0085	-0.0553	30.2618	17.9316	1.6769	0.5882	0.2905	0.6977	-0.2877
10.67	-9.5927	-0.4637	-1.3533	-0.0451	-0.0112	-0.0533	30.1639	17.7577	1.7162	0.5883	0.2904	0.6978	-0.2876
10.68	-9.6002	-0.4883	-1.3554	-0.0471	-0.0103	-0.0556	29.7889	17.8570	1.7767	0.5883	0.2902	0.6978	-0.2875
10.69	-9.5986	-0.5047	-1.3565	-0.0501	-0.0135	-0.0549	29.6319	17.8987	1.6456	0.5885	0.2901	0.6979	-0.2873
10.7	-9.5887	-0.5235	-1.3583	-0.0357	-0.0126	-0.0515	29.8332	17.7399	1.5000	0.5885	0.2900	0.6979	-0.2872
10.71	-9.5987	-0.5262	-1.3538	-0.0335	-0.0133	-0.0620	29.7521	17.9614	1.5345	0.5886	0.2899	0.6979	-0.2872
10.72	-9.5901	-0.5350	-1.3553	-0.0257	-0.0192	-0.0583	29.7879	18.0850	1.6938	0.5887	0.2898	0.6979	-0.2871
10.73	-9.5222	-0.5201	-1.3361	-0.0209	-0.0204	-0.0519	29.7840	17.9408	1.6413	0.5887	0.2897	0.6979	-0.2871
10.74	-9.5787	-0.5070	-1.3273	-0.0214	-0.0161	-0.0591	29.7274	18.0337	1.5105	0.5888	0.2897	0.6979	-0.2871
10.75	-9.6422	-0.5030	-1.3368	-0.0115	-0.0164	-0.0560	29.6687	18.1644	1.7666	0.5888	0.2896	0.6978	-0.2870
10.76	-9.5278	-0.4789	-1.3128	-0.0120	-0.0226	-0.0541	29.6058	18.1527	1.8402	0.5889	0.2896	0.6978	-0.2871
10.77	-9.5021	-0.4836	-1.3067	-0.0135	-0.0132	-0.0556	29.5864	18.0101	1.7374	0.5889	0.2895	0.6978	-0.2871
10.78	-9.5546	-0.5000	-1.3065	-0.0098	-0.0074	-0.0526	29.6215	17.9517	1.7189	0.5890	0.2895	0.6979	-0.2871
10.79	-9.5544	-0.4886	-1.3084	-0.0106	-0.0133	-0.0455	29.5651	18.0821	1.5296	0.5889	0.2894	0.6978	-0.2871
10.8	-9.5418	-0.4831	-1.3076	-0.0029	-0.0087	-0.0385	29.6688	18.2842	1.6052	0.5890	0.2895	0.6978	-0.2871
10.81	-9.4978	-0.4398	-1.3002	0.0009	-0.0151	-0.0348	29.7953	18.0127	1.6932	0.5890	0.2895	0.6977	-0.2871
10.82	-9.5588	-0.4430	-1.2935	0.0038	-0.0063	-0.0428	29.5294	17.9595	1.5814	0.5890	0.2896	0.6977	-0.2871
10.83	-9.5836	-0.4591	-1.3130	-0.0016	0.0003	-0.0473	29.8575	17.9097	1.5560	0.5890	0.2896	0.6978	-0.2871
10.84	-9.5790	-0.4308	-1.3069	-0.0004	-0.0049	-0.0474	29.9642	17.8447	1.4772	0.5890	0.2896	0.6977	-0.2871
10.85	-9.5462	-0.4594	-1.3246	-0.0127	-0.0048	-0.0550	29.7501	17.7972	1.7021	0.5890	0.2896	0.6978	-0.2871
10.86	-9.5416	-0.4306	-1.3145	-0.0003	-0.0011	-0.0527	29.8755	17.8017	1.5642	0.5889	0.2896	0.6977	-0.2871
10.87	-9.5786	-0.4147	-1.3224	0.0038	0.0034	-0.0512	29.8569	17.7117	1.4799	0.5889	0.2897	0.6978	-0.2872
10.88	-9.5569	-0.4131	-1.3214	-0.0139	-0.0029	-0.0527	29.8833	18.0317	1.6397	0.5888	0.2896	0.6978	-0.2872
10.89	-9.5803	-0.4091	-1.3217	-0.0186	-0.0004	-0.0525	29.7976	17.8279	1.4455	0.5888	0.2896	0.6978	-0.2871
10.9	-9.5863	-0.4220	-1.3320	-0.0236	-0.0053	-0.0534	29.6586	17.6726	1.6313	0.5889	0.2895	0.6979	-0.2871
10.91	-9.5922	-0.4276	-1.3432	-0.0226	-0.0056	-0.0514	29.7205	18.0421	1.6317	0.5889	0.2895	0.6979	-0.2870
10.92	-9.5986	-0.4394	-1.3330	-0.0338	-0.0106	-0.0508	29.8313	18.0154	1.8022	0.5889	0.2894	0.6979	-0.2870
10.93	-9.6000	-0.4525	-1.3436	-0.0368	-0.0107	-0.0521	29.5813	17.9645	1.8738	0.5889	0.2893	0.6979	-0.2868
10.94	-9.5952	-0.4615	-1.3373	-0.0384	-0.0113	-0.0477	29.6097	18.0843	1.7345	0.5891	0.2892	0.6980	-0.2867
10.95	-9.5937	-0.4774	-1.3381	-0.0331	-0.0181	-0.0510	29.7397	17.9252	1.7331	0.5892	0.2891	0.6979	-0.2866
10.96	-9.5830	-0.4793	-1.3365	-0.0195	-0.0102	-0.0474	29.5815	18.0754	1.6201	0.5892	0.2891	0.6980	-0.2866
10.97	-9.5705	-0.4778	-1.3296	-0.0257	-0.0158	-0.0545	29.7062	18.0633	1.7035	0.5893	0.2890	0.6979	-0.2865
10.98	-9.5759	-0.4870	-1.3327	-0.0208	-0.0143	-0.0513	29.7933	18.0734	1.6056	0.5894	0.2890	0.6979	-0.2865
10.99	-9.5766	-0.4772	-1.3291	-0.0239	-0.0126	-0.0516	29.7840	18.0606	1.5967	0.5894	0.2889	0.6979	-0.2864
11	-9.5661	-0.4776	-1.3220	-0.0223	-0.0161	-0.0558	29.7005	18.0853	1.7980	0.5894	0.2889	0.6978	-0.2863
11.01	-9.5659	-0.4729	-1.3109	-0.0191	-0.0128	-0.0516	29.6691	17.9434	1.5075	0.5896	0.2888	0.6979	-0.2863
11.02	-9.5668	-0.4565	-1.3080	-0.0119	-0.0132	-0.0428	29.8830	17.8822	1.6552	0.5895	0.2888	0.6979	-0.2863
11.03	-9.5621	-0.4535	-1.3067	0.0013	-0.0171	-0.0468	30.0174	17.8949	1.6239	0.5896	0.2888	0.6979	-0.2864
11.04	-9.5525	-0.4452	-1.3035	-0.0128	-0.0126	-0.0534	29.7292	17.9051	1.4433	0.5896	0.2888	0.6978	-0.2863
11.05	-9.5437	-0.4370	-1.2978	-0.0207	-0.0152	-0.0496	29.9396	17.7415	1.6551	0.5897	0.2887	0.6978	-0.2863
11.06	-9.5422	-0.4343	-1.2964	-0.0181	-0.0069	-0.0497	29.7273	17.7571	1.8328	0.5897	0.2887	0.6979	-0.2863
11.07	-9.5370	-0.4335	-1.2862	-0.0217	-0.0083	-0.0495	29.6821	17.8386	1.5776	0.5897	0.2886	0.6978	-0.2862
11.08	-9.5352	-0.4320	-1.2874	-0.0182	-0.0084	-0.0505	29.5716	17.6787	1.4708	0.5898	0.2886	0.6979	-0.2862
11.09	-9.5337	-0.4345	-1.2954	-0.0214	0.0008	-0.0494	29.7997	17.6169	1.6429	0.5897	0.2885	0.6979	-0.2862
11.1	-9.5317	-0.4406	-1.3011	-0.0244	-0.0017	-0.0508	29.8502	17.8830	1.4685	0.5897	0.2885	0.6980	-0.2861
11.11	-9.5410	-0.4444	-1.3002	-0.0235	0.0031	-0.0526	29.6431	17.8921	1.5853	0.5896	0.2884	0.6980	-0.2860
11.12	-9.5584	-0.4430	-1.3084	-0.0231	0.0109	-0.0535	29.7218	17.9023	1.5592	0.5897	0.2884	0.6981	-0.2860
11.13	-9.5677	-0.4448	-1.3070	-0.0228	0.0096	-0.0524	29.4636	18.0201	1.6213	0.5896	0.2883	0.6982	-0.2859
11.14	-9.5601	-0.4450	-1.3147	-0.0236	0.0071	-0.0530	29.7173	17.9274	1.6908	0.5896	0.2883	0.6983	-0.2858
11.15	-9.5690	-0.4491	-1.3199	-0.0240	0.0057	-0.0557	30.1175	18.2237	1.6423	0.5896	0.2882	0.6984	-0.2858
11.16	-9.5837	-0.4505	-1.3249	-0.0248	0.0096	-0.0546	29.9882	18.2087	1.6855	0.5895	0.2882	0.6984	-0.2857
11.17	-9.5781	-0.4428	-1.3264	-0.0227	0.0082	-0.0550	29.7553	18.1068	1.5886	0.5895	0.2881	0.6985	-0.2857
11.18	-9.5801	-0.4434	-1.3192	-0.0226	0.0030	-0.0509	29.6023	18.0159	1.5907	0.5894	0.2881	0.6985	-0.2856
11.19	-9.5997	-0.4470	-1.3290	-0.0230	0.0025	-0.0506	29.5297	17.9078	1.7354	0.5895	0.2881	0.6986	-0.2856
11.2	-9.5817	-0.4416	-1.3262	-0.0228	0.0000	-0.0529	29.7471	17.9856	1.4833	0.5894	0.2880	0.6987	-0.2855
11.21	-9.5696	-0.4455	-1.3283	-0.0226	-0.0010	-0.0556	29.8212	17.7917	1.3760	0.5895	0.2880	0.6987	-0.2854
11.22	-9.5719	-0.4563	-1.3320	-0.0189	-0.0034	-0.0464	29.6982	17.8120	1.6535	0.5895	0.2879	0.6987	-0.2853
11.23	-9.5738	-0.4538	-1.3379	-0.0212	0.0017	-0.0520	29.8122	17.8248	1.7096	0.5895	0.2879	0.6987	-0.2853
11.24	-9.5747	-0.4539	-1.3375	-0.0206	-0.0045	-0.0543	29.8305	17.7554	1.7110	0.5895	0.2879	0.6988	-0.2852
11.25	-9.5697	-0.4557	-1.3357	-0.0236	-0.0015	-0.0539	29.9404	17.7120	1.6950	0.5895	0.2878	0.6987	-0.2851
11.26	-9.5715	-0.4513	-1.3353	-0.0179	-0.0014	-0.0525	29.6156	17.6255	1.7328	0.5896	0.2878	0.6989	-0.2851
11.27	-9.5575	-0.4472	-1.3322	-0.0148	-0.0079	-0.0600	29.6795	17.9465	1.7965	0.5895	0.2877	0.6988	-0.2851
11.28	-9.5648	-0.4442	-1.3279	-0.0236	-0.0052	-0.0527	29.6945	17.7366	1.5808	0.5896	0.2877	0.6989	-0.2851
11.29	-9.5737	-0.4412	-1.3305	-0.0234	-0.0095	-0.0585	29.8196	17.7941	1.7267	0.5895	0.2876	0.6989	-0.2850
11.3	-9.5715	-0.4404	-1.3301	-0.0183	0.0003	-0.0543	29.8680	18.0647	1.6810	0.5896	0.2876	0.6989	-0.2850
11.31	-9.5692	-0.4291	-1.3278	-0.0212	0.0015	-0.0514	29.7925	17.8780	1.7335	0.5896	0.2875	0.6990	-0.2849
11.32	-9.5478	-0.4111	-1.3228	-0.0236	-0.0006	-0.0514	29.7097	17.6794	1.6053	0.5895	0.2875	0.6990	-0.2848
11.33	-9.5591	-0.4025	-1.3245	-0.0206	0.0035	-0.0552	29.7258	17.9597	1.6274	0.5896	0.2875	0.6991	-0.2848
11.34	-9.5549	-0.4123	-1.3270	-0.0274	-0.0014	-0.0585	29.6435	17.8216	1.5671	0.5895	0.2873	0.6991	-0.2848
11.35	-9.5464	-0.4252	-1.3271	-0.0285	0.0046	-0.0642	29.4535	17.8702	1.7569	0.5895	0.2873	0.6993	-0.2847
11.36	-9.5772	-0.4534	-1.3317	-0.0243	0.0071	-0.0625	29.7423	17.9040	1.8164	0.5894	0.2871	0.6993	-0.2847
11.37	-9.5966	-0.4711	-1.3338	-0.0336	0.0005	-0.0551	29.6894	18.0220	1.6675	0.5895	0.2871	0.6994	-0.2846
11.38	-9.6171	-0.4784	-1.3399	-0.0265	-0.0055	-0.0520	29.7416	18.0784	1.5243	0.5895	0.2870	0.6994	-0.2845
11.39	-9.6157	-0.4954	-1.3370	-0.0278	-0.0048	-0.0557	29.9102	17.8072	1.5873	0.5895	0.2869	0.6994	-0.2844
11.4	-9.5723	-0.5094	-1.3384	-0.0226	-0.0092	-0.0467	29.7657	17.7164	1.6382	0.5896	0.2869	0.6994	-0.2844
11.41	-9.5323	-0.5235	-1.3361	-0.0216	-0.0110	-0.0470	29.7099	17.7205	1.4474	0.5896	0.2869	0.6994	-0.2843
11.42	-9.5479	-0.5328	-1.3435	-0.0235	-0.0050	-0.0481	30.0911	17.7287	1.4518	0.5897	0.2868	0.6995	-0.2843
11.43	-9.5742	-0.5114	-1.3438	-0.0161	-0.0068	-0.0421	29.9693	17.7117	1.7428	0.5896	0.2868	0.6994	-0.2842
