time	acceleration_x	acceleration_y	acceleration_z	gyroscope_x	gyroscope_y	gyroscope_z	magnetometer_x	magnetometer_y	magnetometer_z	quaternion_w	quaternion_x	quaternion_y	quaternion_z
0	-3.6357	-0.3591	-4.2345	0.0428	-0.1325	-0.1497	14.4150	12.2966	12.2220	0.1117	0.4096	0.3166	-0.1483
0.01	-7.2020	-0.7653	-8.3026	0.0646	-0.2786	-0.3016	28.3779	24.2991	24.0342	0.2209	0.8086	0.6261	-0.2941
0.02	-6.3672	-0.7359	-7.1960	0.0415	-0.2662	-0.2718	24.9453	21.5544	21.2197	0.1946	0.7104	0.5518	-0.2604
0.03	-6.7981	-0.8438	-7.6524	0.0194	-0.3041	-0.2965	27.0345	23.1240	22.9106	0.2093	0.7617	0.5930	-0.2808
0.04	-6.4331	-0.8753	-7.2183	-0.0071	-0.3142	-0.2856	26.1343	22.2068	22.2034	0.2009	0.7281	0.5686	-0.2706
0.05	-6.5870	-0.9523	-7.3641	-0.0309	-0.3232	-0.2932	26.4277	23.0304	22.4204	0.2072	0.7476	0.5854	-0.2795
0.06	-6.4339	-1.0114	-7.1838	-0.0674	-0.3297	-0.2858	25.8810	22.9562	21.7782	0.2044	0.7331	0.5759	-0.2760
0.07	-6.4267	-1.0909	-7.2004	-0.0866	-0.3345	-0.2873	25.9454	23.0788	21.8617	0.2074	0.7399	0.5829	-0.2802
0.08	-6.3944	-1.1504	-7.1205	-0.1167	-0.3222	-0.2722	25.8538	22.8278	21.7857	0.2071	0.7339	0.5801	-0.2797
0.09	-6.4498	-1.1926	-7.1237	-0.1388	-0.3102	-0.2543	26.1043	23.0981	21.5995	0.2088	0.7351	0.5827	-0.2816
0.1	-6.4506	-1.2298	-7.0881	-0.1570	-0.3016	-0.2455	25.7108	23.0567	21.8115	0.2096	0.7328	0.5826	-0.2822
0.11	-6.4828	-1.2685	-7.0718	-0.1760	-0.2809	-0.2285	25.9055	23.0707	21.7741	0.2107	0.7316	0.5834	-0.2829
0.12	-6.5576	-1.2768	-7.0626	-0.1886	-0.2614	-0.2173	25.6425	22.9018	21.4354	0.2118	0.7305	0.5841	-0.2836
0.13	-6.6456	-1.2753	-7.0648	-0.2056	-0.2616	-0.2021	25.8050	22.8907	21.6250	0.2130	0.7294	0.5848	-0.2842
0.14	-6.6875	-1.2720	-7.0506	-0.2074	-0.2657	-0.1813	25.9515	22.7999	21.6382	0.2142	0.7283	0.5854	-0.2847
0.15	-6.7111	-1.2489	-7.0466	-0.2206	-0.2664	-0.1586	25.9548	22.7929	21.4697	0.2155	0.7272	0.5859	-0.2852
0.16	-6.6733	-1.2261	-7.0734	-0.2235	-0.2746	-0.1299	26.0570	23.1403	21.4515	0.2169	0.7263	0.5864	-0.2857
0.17	-6.6032	-1.1900	-7.0802	-0.2099	-0.2796	-0.1033	26.0190	22.8072	21.3344	0.2183	0.7254	0.5867	-0.2862
0.18	-6.6374	-1.1194	-7.1216	-0.2081	-0.2678	-0.0709	26.0305	22.6978	21.3855	0.2198	0.7246	0.5869	-0.2867
0.19	-6.6586	-1.0412	-7.1183	-0.1904	-0.2447	-0.0417	25.9016	23.0896	21.3847	0.2211	0.7240	0.5870	-0.2871
0.2	-6.7489	-0.9349	-7.1189	-0.1842	-0.2218	-0.0191	25.7847	23.0085	21.4003	0.2224	0.7235	0.5870	-0.2874
0.21	-6.8614	-0.8196	-7.1025	-0.1687	-0.2143	0.0060	26.1434	22.8630	21.3731	0.2236	0.7230	0.5869	-0.2877
0.22	-6.9732	-0.7141	-7.0519	-0.1575	-0.2144	0.0218	26.0926	22.8144	21.1181	0.2248	0.7226	0.5867	-0.2880
0.23	-7.0557	-0.6181	-7.0052	-0.1563	-0.2208	0.0519	25.8584	22.8760	21.1621	0.2261	0.7224	0.5865	-0.2883
0.24	-7.0685	-0.5383	-6.9375	-0.1349	-0.2399	0.0661	26.0907	22.6963	21.2347	0.2274	0.7221	0.5861	-0.2887
0.25	-7.0937	-0.4472	-6.9039	-0.1334	-0.2482	0.0794	26.3281	22.7105	21.2737	0.2287	0.7219	0.5857	-0.2891
0.26	-7.0010	-0.3980	-6.8520	-0.1139	-0.2681	0.0953	26.1359	22.6010	21.1245	0.2300	0.7217	0.5851	-0.2897
0.27	-6.8900	-0.3142	-6.7937	-0.0944	-0.2730	0.1035	26.1409	22.6073	21.0025	0.2313	0.7215	0.5845	-0.2903
0.28	-6.8203	-0.2528	-6.7787	-0.0808	-0.2847	0.1196	26.3237	22.3353	20.9835	0.2325	0.7214	0.5838	-0.2909
0.29	-6.7529	-0.1439	-6.7190	-0.0549	-0.2950	0.1372	26.2557	22.3692	20.9928	0.2338	0.7214	0.5830	-0.2916
0.3	-6.6960	-0.0937	-6.6750	-0.0321	-0.3076	0.1567	26.5134	22.3398	20.6843	0.2350	0.7214	0.5820	-0.2925
0.31	-6.6842	-0.0152	-6.6132	-0.0010	-0.3107	0.1656	26.5554	22.3937	20.8026	0.2361	0.7215	0.5810	-0.2934
0.32	-6.6410	0.0683	-6.5538	0.0161	-0.3174	0.1749	26.6568	22.1587	20.8189	0.2372	0.7216	0.5799	-0.2943
0.33	-6.6284	0.1280	-6.4970	0.0335	-0.3219	0.1847	26.8570	22.0844	20.5719	0.2382	0.7218	0.5788	-0.2954
0.34	-6.7038	0.2101	-6.4760	0.0469	-0.3128	0.1881	27.0256	21.9049	20.4993	0.2392	0.7220	0.5776	-0.2964
0.35	-6.7221	0.2726	-6.4223	0.0658	-0.2974	0.1913	27.1768	22.0156	20.3521	0.2401	0.7223	0.5764	-0.2974
0.36	-6.7788	0.3261	-6.3989	0.0877	-0.2804	0.1815	27.3055	21.9856	20.3607	0.2408	0.7225	0.5752	-0.2985
0.37	-6.8113	0.3709	-6.3803	0.0970	-0.2766	0.1677	27.4803	21.6592	20.2239	0.2415	0.7228	0.5740	-0.2995
0.38	-6.8635	0.4188	-6.3517	0.1072	-0.2672	0.1707	27.4427	22.0634	20.1201	0.2421	0.7231	0.5729	-0.3006
0.39	-6.9684	0.4527	-6.3387	0.1172	-0.2697	0.1656	27.4293	21.7928	19.8970	0.2427	0.7233	0.5717	-0.3017
0.4	-6.9383	0.4656	-6.3173	0.1245	-0.2715	0.1561	27.4934	21.9840	19.8895	0.2432	0.7236	0.5706	-0.3028
0.41	-6.9125	0.4960	-6.2896	0.1258	-0.2535	0.1549	27.6720	21.9589	19.9294	0.2437	0.7239	0.5694	-0.3039
0.42	-6.9689	0.5092	-6.3177	0.1287	-0.2431	0.1424	27.5945	21.6288	19.8221	0.2441	0.7241	0.5684	-0.3050
0.43	-6.9643	0.5145	-6.3000	0.1344	-0.2286	0.1271	27.7220	21.5827	19.7326	0.2444	0.7244	0.5673	-0.3061
0.44	-6.9812	0.5172	-6.3042	0.1285	-0.2174	0.1273	27.8667	21.6657	19.6832	0.2447	0.7246	0.5663	-0.3070
0.45	-7.0310	0.5213	-6.3066	0.1271	-0.1937	0.1157	28.0796	21.6612	19.3923	0.2450	0.7249	0.5654	-0.3080
0.46	-7.1222	0.5378	-6.3246	0.1235	-0.1795	0.1018	28.0654	21.6431	19.2392	0.2452	0.7251	0.5646	-0.3088
0.47	-7.1715	0.5351	-6.3110	0.1253	-0.1731	0.0985	28.0627	21.5759	19.3122	0.2453	0.7253	0.5637	-0.3097
0.48	-7.2215	0.5216	-6.3041	0.1190	-0.1653	0.0879	28.0803	21.6766	19.3345	0.2455	0.7255	0.5630	-0.3105
0.49	-7.2173	0.5052	-6.2992	0.1067	-0.1741	0.0755	28.0376	21.6504	19.1902	0.2456	0.7257	0.5622	-0.3113
0.5	-7.2045	0.4773	-6.2776	0.0966	-0.1755	0.0676	28.2007	21.6467	19.0488	0.2458	0.7258	0.5616	-0.3122
0.51	-7.2869	0.4485	-6.2703	0.0776	-0.1923	0.0512	28.0812	21.5598	19.0218	0.2461	0.7258	0.5609	-0.3130
0.52	-7.3731	0.4108	-6.2712	0.0701	-0.2004	0.0419	28.1723	21.7153	19.0664	0.2465	0.7258	0.5604	-0.3139
0.53	-7.4005	0.3524	-6.2679	0.0635	-0.2083	0.0276	28.7053	21.5334	18.8711	0.2468	0.7257	0.5598	-0.3148
0.54	-7.4136	0.3052	-6.2600	0.0618	-0.2108	0.0253	29.0391	21.6371	19.0366	0.2472	0.7256	0.5593	-0.3157
0.55	-7.4462	0.2727	-6.2507	0.0522	-0.1991	0.0206	28.6906	21.6492	18.6220	0.2476	0.7254	0.5588	-0.3165
0.56	-7.4755	0.2593	-6.2436	0.0514	-0.1999	0.0140	28.7057	21.6994	18.6212	0.2479	0.7253	0.5584	-0.3173
0.57	-7.4864	0.2240	-6.2229	0.0469	-0.2010	0.0002	28.5564	21.6472	18.5455	0.2483	0.7251	0.5580	-0.3182
0.58	-7.5169	0.2095	-6.2203	0.0436	-0.2020	-0.0117	28.5594	21.3201	18.5780	0.2486	0.7249	0.5576	-0.3191
0.59	-7.5176	0.1570	-6.2164	0.0394	-0.2052	-0.0111	28.6489	21.4575	18.5616	0.2490	0.7246	0.5573	-0.3199
0.6	-7.5089	0.1274	-6.2202	0.0346	-0.2117	-0.0140	28.6810	21.2611	18.5940	0.2494	0.7243	0.5570	-0.3208
0.61	-7.4563	0.0920	-6.2177	0.0208	-0.2126	-0.0178	28.8539	21.5570	18.4414	0.2499	0.7240	0.5567	-0.3216
0.62	-7.4572	0.0801	-6.2131	0.0246	-0.2008	-0.0177	28.7586	21.3839	18.3838	0.2503	0.7238	0.5564	-0.3224
0.63	-7.4335	0.0832	-6.2021	0.0214	-0.1863	-0.0143	28.6890	21.5266	18.3374	0.2507	0.7235	0.5561	-0.3232
0.64	-7.4281	0.0899	-6.1812	0.0219	-0.1847	-0.0104	28.8332	21.5938	18.1856	0.2510	0.7233	0.5558	-0.3239
0.65	-7.4094	0.0968	-6.1791	0.0230	-0.1754	-0.0106	28.6678	21.4519	17.9649	0.2514	0.7231	0.5555	-0.3246
0.66	-7.4071	0.1193	-6.1686	0.0251	-0.1720	-0.0120	28.6363	21.6564	18.0972	0.2517	0.7228	0.5552	-0.3253
0.67	-7.4594	0.1375	-6.1662	0.0211	-0.1633	-0.0200	28.8950	21.6699	18.3442	0.2521	0.7226	0.5550	-0.3260
0.68	-7.4433	0.1393	-6.1553	0.0008	-0.1665	-0.0285	29.0073	21.5579	18.1440	0.2524	0.7223	0.5548	-0.3266
0.69	-7.4683	0.1525	-6.1584	-0.0045	-0.1638	-0.0350	28.8355	21.3263	18.0134	0.2528	0.7220	0.5547	-0.3272
0.7	-7.5018	0.1585	-6.1743	-0.0053	-0.1662	-0.0353	29.0069	21.7006	18.1741	0.2532	0.7217	0.5545	-0.3279
0.71	-7.4781	0.1651	-6.1641	-0.0177	-0.1665	-0.0359	28.8829	21.4704	17.9116	0.2536	0.7214	0.5544	-0.3285
0.72	-7.5149	0.1755	-6.1734	-0.0269	-0.1553	-0.0374	28.9245	21.2896	17.8155	0.2541	0.7211	0.5543	-0.3290
0.73	-7.5315	0.1861	-6.1838	-0.0359	-0.1516	-0.0414	28.9867	21.4283	17.6990	0.2545	0.7207	0.5542	-0.3295
0.74	-7.5807	0.1978	-6.1935	-0.0458	-0.1553	-0.0584	29.0573	21.3715	17.8469	0.2550	0.7203	0.5543	-0.3301
0.75	-7.6615	0.2058	-6.2200	-0.0552	-0.1529	-0.0590	29.0838	21.4854	17.7339	0.2555	0.7199	0.5543	-0.3306
0.76	-7.7156	0.2026	-6.2238	-0.0768	-0.1620	-0.0731	28.9601	21.5052	17.7465	0.2561	0.7194	0.5544	-0.3310
0.77	-7.7823	0.2014	-6.2602	-0.0872	-0.1716	-0.0837	29.1963	21.5938	17.7085	0.2567	0.7188	0.5546	-0.3315
0.78	-7.7831	0.2022	-6.2611	-0.1027	-0.2000	-0.0864	29.0736	21.5545	17.5193	0.2574	0.7182	0.5547	-0.3320
0.79	-7.8113	0.1924	-6.2569	-0.1204	-0.2141	-0.0881	28.9758	21.5758	17.5989	0.2582	0.7175	0.5549	-0.3326
0.8	-7.8101	0.1818	-6.2550	-0.1316	-0.2206	-0.0903	28.9847	21.2616	17.6294	0.2591	0.7168	0.5551	-0.3331
0.81	-7.8848	0.1721	-6.2594	-0.1476	-0.2182	-0.0992	28.9924	21.4334	17.5168	0.2601	0.7160	0.5553	-0.3336
0.82	-7.9367	0.1677	-6.2827	-0.1548	-0.2411	-0.0999	28.9682	21.6761	17.6723	0.2611	0.7152	0.5556	-0.3341
0.83	-8.0224	0.1479	-6.2703	-0.1729	-0.2504	-0.1028	29.1467	21.6606	17.5052	0.2622	0.7144	0.5558	-0.3347
0.84	-8.0673	0.1350	-6.2969	-0.1860	-0.2797	-0.1065	29.1215	21.6287	17.6244	0.2634	0.7134	0.5561	-0.3353
0.85	-8.0797	0.1342	-6.2328	-0.1994	-0.3163	-0.1066	29.0492	21.7715	17.6657	0.2648	0.7124	0.5563	-0.3360
0.86	-8.1207	0.0829	-6.2470	-0.2153	-0.3336	-0.1015	29.1897	21.5142	17.5331	0.2662	0.7114	0.5565	-0.3367
0.87	-8.0770	0.1011	-6.1609	-0.2177	-0.3814	-0.1031	29.1531	21.3669	17.1453	0.2678	0.7102	0.5567	-0.3375
0.88	-8.0676	0.0526	-6.1171	-0.2373	-0.4013	-0.1007	29.1694	21.6003	17.5591	0.2696	0.7090	0.5569	-0.3384
0.89	-8.0731	0.0494	-6.0392	-0.2320	-0.4257	-0.1061	29.1656	21.4796	17.3967	0.2714	0.7078	0.5570	-0.3394
0.9	-8.0856	0.0241	-5.9667	-0.2377	-0.4430	-0.1068	29.1536	21.2367	17.0048	0.2732	0.7064	0.5571	-0.3404
0.91	-8.0958	0.0031	-5.8932	-0.2579	-0.4636	-0.1036	29.5452	21.0456	17.0299	0.2752	0.7051	0.5572	-0.3415
0.92	-8.0979	-0.0049	-5.8113	-0.2605	-0.4750	-0.1066	29.6416	21.0353	17.0173	0.2772	0.7037	0.5573	-0.3426
0.93	-8.1250	-0.0309	-5.7374	-0.2588	-0.4781	-0.1039	29.4907	21.0462	16.9266	0.2793	0.7023	0.5574	-0.3437
0.94	-8.1230	-0.0470	-5.6574	-0.2602	-0.5006	-0.1065	29.6598	21.0226	16.9092	0.2814	0.7008	0.5575	-0.3448
0.95	-8.0823	-0.0655	-5.5603	-0.2576	-0.5155	-0.1012	29.5248	21.0944	16.7444	0.2835	0.6994	0.5575	-0.3460
0.96	-8.0857	-0.0702	-5.4777	-0.2470	-0.5214	-0.1027	29.5060	21.1573	16.7354	0.2856	0.6979	0.5575	-0.3473
0.97	-8.0647	-0.0918	-5.4152	-0.2465	-0.5369	-0.0966	29.6369	20.9801	16.7491	0.2877	0.6964	0.5574	-0.3486
0.98	-8.0507	-0.0793	-5.3089	-0.2360	-0.5457	-0.0970	29.7242	20.9717	16.5592	0.2899	0.6949	0.5573	-0.3500
0.99	-8.0633	-0.0994	-5.2342	-0.2315	-0.5294	-0.0948	29.6557	21.1279	16.2990	0.2920	0.6935	0.5572	-0.3513
1	-8.1123	-0.0857	-5.1628	-0.2161	-0.5227	-0.0921	29.8350	21.1292	16.1593	0.2940	0.6920	0.5571	-0.3526
1.01	-8.1407	-0.0895	-5.0843	-0.2077	-0.5119	-0.0903	29.7037	21.1062	16.2296	0.2960	0.6906	0.5569	-0.3539
1.02	-8.1431	-0.0946	-4.9977	-0.1961	-0.5122	-0.0856	29.8072	21.1765	16.5107	0.2979	0.6893	0.5567	-0.3553
1.03	-8.1682	-0.0933	-4.9240	-0.1880	-0.5111	-0.0874	30.3248	21.3025	16.2825	0.2998	0.6879	0.5566	-0.3566
1.04	-8.1503	-0.0961	-4.8555	-0.1814	-0.5149	-0.0794	30.6963	21.3526	16.2604	0.3017	0.6865	0.5563	-0.3580
1.05	-8.1672	-0.0874	-4.7665	-0.1726	-0.5117	-0.0836	30.4205	21.0894	16.0568	0.3035	0.6852	0.5561	-0.3594
1.06	-8.2136	-0.1135	-4.7325	-0.1567	-0.4972	-0.0840	30.2847	21.2527	15.6528	0.3052	0.6839	0.5558	-0.3608
1.07	-8.2015	-0.0964	-4.6591	-0.1576	-0.4963	-0.0841	30.1123	21.1108	15.5178	0.3070	0.6826	0.5556	-0.3622
1.08	-8.2308	-0.1134	-4.6132	-0.1529	-0.4924	-0.0903	30.2730	20.9495	15.6440	0.3087	0.6813	0.5553	-0.3635
1.09	-8.1941	-0.1356	-4.5602	-0.1319	-0.4977	-0.0863	30.5784	20.9308	15.4631	0.3103	0.6800	0.5551	-0.3650
1.1	-8.2357	-0.1187	-4.4940	-0.1289	-0.4728	-0.0809	30.5486	20.8619	15.3781	0.3119	0.6788	0.5548	-0.3663
1.11	-8.2580	-0.1310	-4.4754	-0.1098	-0.4625	-0.0836	30.5312	20.8832	15.2385	0.3134	0.6776	0.5545	-0.3677
1.12	-8.2028	-0.1289	-4.4045	-0.1019	-0.4564	-0.0781	30.6179	20.9050	15.1382	0.3148	0.6764	0.5541	-0.3691
1.13	-8.1599	-0.1334	-4.3686	-0.0833	-0.4379	-0.0719	30.8062	21.0119	15.0001	0.3162	0.6754	0.5538	-0.3705
1.14	-8.1930	-0.1553	-4.3406	-0.0789	-0.4054	-0.0688	30.5101	20.8613	14.9072	0.3174	0.6744	0.5534	-0.3717
1.15	-8.2338	-0.1380	-4.3584	-0.0741	-0.3889	-0.0651	30.6879	20.7721	14.7587	0.3186	0.6734	0.5531	-0.3729
1.16	-8.2296	-0.1468	-4.3373	-0.0586	-0.3816	-0.0601	30.7515	20.9993	14.6950	0.3197	0.6725	0.5528	-0.3741
1.17	-8.2474	-0.1384	-4.3572	-0.0483	-0.3575	-0.0496	30.7002	21.0968	14.4171	0.3208	0.6717	0.5524	-0.3753
1.18	-8.2268	-0.1389	-4.3453	-0.0312	-0.3383	-0.0485	30.8588	20.9175	14.4650	0.3217	0.6709	0.5520	-0.3764
1.19	-8.2822	-0.1481	-4.3724	-0.0309	-0.3134	-0.0479	30.8946	20.9029	14.5027	0.3226	0.6702	0.5517	-0.3774
1.2	-8.3092	-0.1095	-4.3534	-0.0176	-0.3028	-0.0373	30.9796	21.2055	14.2117	0.3234	0.6696	0.5513	-0.3784
1.21	-8.3698	-0.1182	-4.3464	-0.0032	-0.2800	-0.0381	31.0014	20.9337	14.2763	0.3241	0.6690	0.5509	-0.3794
1.22	-8.4016	-0.1055	-4.3585	-0.0039	-0.2731	-0.0314	30.9064	20.9969	14.2326	0.3247	0.6684	0.5505	-0.3804
1.23	-8.3897	-0.0982	-4.3409	-0.0014	-0.2631	-0.0241	30.8576	21.0572	14.2747	0.3254	0.6679	0.5501	-0.3813
1.24	-8.3781	-0.1141	-4.3488	0.0046	-0.2509	-0.0141	30.8512	21.0730	14.1837	0.3260	0.6675	0.5497	-0.3821
1.25	-8.4294	-0.0863	-4.3361	0.0228	-0.2421	-0.0085	31.0489	20.9227	13.9659	0.3266	0.6671	0.5492	-0.3830
1.26	-8.4819	-0.0766	-4.3691	0.0222	-0.2291	-0.0002	30.8127	21.0326	13.8274	0.3271	0.6668	0.5487	-0.3838
1.27	-8.5129	-0.0556	-4.3778	0.0289	-0.2263	0.0146	30.8913	20.9569	13.7845	0.3276	0.6665	0.5482	-0.3846
1.28	-8.5903	-0.0209	-4.3948	0.0347	-0.2212	0.0120	31.2777	20.7554	13.7993	0.3281	0.6662	0.5477	-0.3854
1.29	-8.5900	-0.0071	-4.4041	0.0347	-0.2257	0.0266	31.2709	20.8918	13.7084	0.3287	0.6660	0.5471	-0.3862
1.3	-8.6051	-0.0009	-4.3941	0.0375	-0.2166	0.0318	31.3889	20.8915	13.4957	0.3292	0.6658	0.5465	-0.3870
1.31	-8.6442	0.0256	-4.4032	0.0484	-0.2249	0.0302	31.2847	20.7808	13.4065	0.3297	0.6656	0.5459	-0.3878
1.32	-8.6448	0.0292	-4.3922	0.0481	-0.2214	0.0405	31.1488	20.8847	13.4390	0.3302	0.6654	0.5452	-0.3886
1.33	-8.6864	0.0502	-4.3849	0.0488	-0.2264	0.0400	31.3221	20.9494	13.1813	0.3307	0.6652	0.5445	-0.3894
1.34	-8.7195	0.0730	-4.3875	0.0529	-0.2294	0.0428	31.3461	20.6803	13.1114	0.3312	0.6650	0.5439	-0.3902
1.35	-8.7224	0.0799	-4.3728	0.0510	-0.2337	0.0514	31.4206	20.9887	13.3324	0.3317	0.6649	0.5431	-0.3910
1.36	-8.7014	0.0988	-4.3431	0.0564	-0.2522	0.0582	31.5595	21.0356	13.3340	0.3323	0.6647	0.5424	-0.3919
1.37	-8.7437	0.1313	-4.3138	0.0565	-0.2463	0.0559	31.5085	20.8093	13.0542	0.3329	0.6645	0.5416	-0.3928
1.38	-8.7822	0.1407	-4.2786	0.0620	-0.2529	0.0553	31.5606	20.9561	12.8200	0.3334	0.6644	0.5408	-0.3937
1.39	-8.8148	0.1527	-4.2400	0.0666	-0.2605	0.0534	31.4115	20.9659	12.6722	0.3340	0.6642	0.5400	-0.3946
1.4	-8.8164	0.1727	-4.2376	0.0692	-0.2754	0.0541	31.5911	20.8292	12.6953	0.3346	0.6640	0.5392	-0.3956
1.41	-8.7830	0.1989	-4.1910	0.0733	-0.2878	0.0519	31.7635	20.7642	12.7069	0.3352	0.6637	0.5383	-0.3967
1.42	-8.7271	0.1814	-4.1717	0.0733	-0.3025	0.0497	31.6063	20.7891	12.6344	0.3358	0.6635	0.5374	-0.3978
1.43	-8.6643	0.1988	-4.1171	0.0736	-0.3009	0.0467	31.6232	20.8606	12.3833	0.3365	0.6632	0.5365	-0.3989
1.44	-8.6832	0.2210	-4.1126	0.0741	-0.2941	0.0458	31.6139	20.7611	12.2968	0.3371	0.6629	0.5357	-0.4000
1.45	-8.6916	0.2493	-4.0497	0.0809	-0.2892	0.0422	31.8491	20.7820	12.3759	0.3377	0.6626	0.5348	-0.4011
1.46	-8.7948	0.2418	-4.0530	0.0759	-0.2763	0.0446	31.9769	20.7980	12.1275	0.3382	0.6624	0.5340	-0.4021
1.47	-8.8279	0.2827	-4.0328	0.0757	-0.2912	0.0389	32.0910	20.5386	12.0607	0.3388	0.6621	0.5332	-0.4032
1.48	-8.7918	0.2847	-3.9932	0.0757	-0.3012	0.0325	32.1738	20.5361	12.0107	0.3394	0.6618	0.5323	-0.4043
1.49	-8.7767	0.2892	-3.9650	0.0740	-0.3102	0.0204	32.1306	20.4161	11.9679	0.3400	0.6614	0.5315	-0.4055
1.5	-8.7951	0.3058	-3.9468	0.0686	-0.3096	0.0226	32.1721	20.6218	11.7814	0.3406	0.6610	0.5307	-0.4066
1.51	-8.7470	0.2920	-3.8940	0.0574	-0.3180	0.0300	32.1168	20.5789	11.6366	0.3413	0.6606	0.5299	-0.4078
1.52	-8.7744	0.3156	-3.8672	0.0540	-0.3189	0.0200	32.2405	20.4746	11.7767	0.3420	0.6602	0.5291	-0.4089
1.53	-8.7363	0.3161	-3.8198	0.0523	-0.3195	0.0158	32.5702	20.6087	11.7878	0.3427	0.6597	0.5284	-0.4101
1.54	-8.7427	0.3049	-3.7819	0.0477	-0.3054	0.0156	33.0113	20.7413	11.6527	0.3434	0.6593	0.5277	-0.4112
1.55	-8.8051	0.3291	-3.7837	0.0483	-0.2942	0.0102	32.4824	20.6804	11.1839	0.3440	0.6588	0.5270	-0.4122
1.56	-8.7992	0.3176	-3.7235	0.0342	-0.2934	0.0071	32.1859	20.8141	11.1510	0.3447	0.6584	0.5263	-0.4133
1.57	-8.8484	0.3272	-3.7332	0.0320	-0.2907	0.0079	32.2627	20.6909	11.1486	0.3453	0.6579	0.5256	-0.4143
1.58	-8.8400	0.3186	-3.6806	0.0248	-0.2951	-0.0010	32.3145	20.4973	10.8951	0.3460	0.6574	0.5250	-0.4153
1.59	-8.8535	0.3099	-3.6356	0.0204	-0.2964	-0.0046	32.3970	20.2463	10.8297	0.3467	0.6569	0.5244	-0.4163
1.6	-8.8780	0.3142	-3.6135	0.0237	-0.2834	-0.0047	32.3736	20.4658	10.6835	0.3473	0.6564	0.5238	-0.4173
1.61	-8.9326	0.2863	-3.5933	0.0116	-0.2794	0.0001	32.3640	20.3540	10.6711	0.3480	0.6559	0.5232	-0.4183
1.62	-8.9243	0.3026	-3.5852	0.0007	-0.2917	0.0047	32.4128	20.4108	10.7288	0.3487	0.6554	0.5226	-0.4192
1.63	-8.8775	0.2919	-3.5196	-0.0025	-0.2994	0.0081	32.2665	20.4819	10.5440	0.3495	0.6548	0.5220	-0.4202
1.64	-8.8827	0.2778	-3.5043	-0.0039	-0.2903	0.0098	32.4688	20.4512	10.4056	0.3503	0.6543	0.5214	-0.4211
1.65	-8.8494	0.2725	-3.4417	-0.0035	-0.2920	0.0128	32.7909	20.3518	10.2674	0.3511	0.6538	0.5208	-0.4220
1.66	-8.8528	0.2796	-3.4272	-0.0028	-0.2792	0.0153	32.7138	20.2200	10.0756	0.3518	0.6533	0.5202	-0.4229
1.67	-8.8291	0.2721	-3.3878	-0.0008	-0.2716	0.0173	32.7159	20.1646	9.9016	0.3525	0.6528	0.5196	-0.4237
1.68	-8.8711	0.2785	-3.3861	-0.0066	-0.2653	0.0296	32.9465	20.3212	9.7310	0.3533	0.6524	0.5190	-0.4245
1.69	-8.9121	0.3014	-3.3448	-0.0019	-0.2585	0.0340	32.8596	20.2215	9.8105	0.3540	0.6520	0.5184	-0.4253
1.7	-8.9612	0.3129	-3.3258	-0.0025	-0.2494	0.0344	32.8413	20.0053	9.9219	0.3547	0.6516	0.5178	-0.4260
1.71	-8.9593	0.3232	-3.3073	-0.0045	-0.2550	0.0291	33.0330	20.0235	9.6668	0.3555	0.6512	0.5172	-0.4268
1.72	-8.9094	0.3162	-3.2985	0.0038	-0.2527	0.0242	32.9688	20.0187	9.7047	0.3561	0.6508	0.5166	-0.4275
1.73	-8.8640	0.3143	-3.2466	0.0133	-0.2591	0.0227	32.8784	20.0105	9.7984	0.3568	0.6504	0.5159	-0.4283
1.74	-8.9531	0.3255	-3.2748	0.0157	-0.2500	0.0253	32.9745	20.0624	9.4836	0.3574	0.6500	0.5153	-0.4292
1.75	-8.8691	0.3307	-3.2280	0.0204	-0.2530	0.0260	33.1219	20.3216	9.5129	0.3581	0.6496	0.5147	-0.4300
1.76	-8.9348	0.3453	-3.2096	0.0214	-0.2307	0.0216	32.7921	20.2416	9.4556	0.3586	0.6493	0.5141	-0.4307
1.77	-8.9078	0.3492	-3.2343	0.0215	-0.2360	0.0149	32.9331	20.1642	9.1888	0.3592	0.6489	0.5135	-0.4315
1.78	-8.8668	0.3542	-3.1779	0.0214	-0.2298	0.0166	33.0550	20.2156	9.2672	0.3597	0.6486	0.5129	-0.4323
1.79	-8.9218	0.3748	-3.2064	0.0271	-0.2165	0.0169	32.7357	20.1546	8.9482	0.3602	0.6483	0.5124	-0.4330
1.8	-8.8792	0.3721	-3.1554	0.0350	-0.2195	0.0134	32.7751	20.1047	9.0095	0.3607	0.6479	0.5118	-0.4338
1.81	-8.9434	0.3887	-3.1699	0.0335	-0.1944	0.0046	33.1071	20.2982	8.9770	0.3611	0.6477	0.5113	-0.4345
1.82	-8.9400	0.3714	-3.1706	0.0324	-0.1913	-0.0046	32.9901	20.1888	8.9274	0.3614	0.6474	0.5108	-0.4352
1.83	-9.0038	0.3765	-3.1611	0.0357	-0.1666	-0.0114	32.9972	20.0526	8.9496	0.3617	0.6471	0.5104	-0.4358
1.84	-9.0658	0.3808	-3.1861	0.0351	-0.1515	-0.0126	33.1943	20.0032	8.7771	0.3620	0.6469	0.5100	-0.4364
1.85	-9.0698	0.3756	-3.1292	0.0337	-0.1599	-0.0205	33.3988	20.0141	8.6954	0.3622	0.6466	0.5096	-0.4370
1.86	-9.1929	0.3918	-3.1297	0.0239	-0.1475	-0.0182	33.1113	20.0175	8.6382	0.3624	0.6463	0.5093	-0.4376
1.87	-9.2291	0.3833	-3.0961	0.0219	-0.1652	-0.0200	33.1078	19.9968	8.8838	0.3627	0.6460	0.5090	-0.4382
1.88	-9.2122	0.3759	-3.0801	0.0221	-0.1752	-0.0201	33.2504	20.0536	8.7203	0.3630	0.6457	0.5086	-0.4389
1.89	-9.2041	0.3721	-3.0437	0.0137	-0.1830	-0.0232	33.2955	19.8080	8.5798	0.3634	0.6453	0.5082	-0.4395
1.9	-9.2077	0.3648	-3.0386	0.0158	-0.1929	-0.0214	33.0875	19.8730	8.5546	0.3638	0.6449	0.5079	-0.4402
1.91	-9.1267	0.3544	-2.9693	0.0058	-0.2090	-0.0162	33.3414	19.8980	8.3249	0.3642	0.6445	0.5075	-0.4409
1.92	-9.1813	0.3895	-2.9541	0.0006	-0.2003	-0.0121	33.2055	19.8333	8.5217	0.3647	0.6441	0.5071	-0.4416
1.93	-9.1349	0.3816	-2.9107	-0.0053	-0.2159	-0.0104	33.0760	20.2031	8.3797	0.3652	0.6437	0.5066	-0.4423
1.94	-9.1060	0.4257	-2.8299	-0.0064	-0.2146	-0.0108	33.3017	19.9562	8.1125	0.3657	0.6432	0.5062	-0.4430
1.95	-9.1457	0.4099	-2.8154	-0.0148	-0.2087	-0.0126	33.0914	20.2230	8.1864	0.3663	0.6428	0.5059	-0.4436
1.96	-9.1667	0.4257	-2.7903	-0.0300	-0.2091	-0.0204	33.3248	20.2810	8.2141	0.3668	0.6423	0.5055	-0.4442
1.97	-9.1672	0.4057	-2.7671	-0.0287	-0.1999	-0.0269	33.0929	20.1027	8.1100	0.3674	0.6418	0.5052	-0.4448
1.98	-9.1904	0.3783	-2.7462	-0.0349	-0.1896	-0.0302	33.1374	20.1284	8.0851	0.3679	0.6413	0.5050	-0.4454
1.99	-9.1859	0.3719	-2.7164	-0.0358	-0.1906	-0.0296	33.1856	19.9436	7.9530	0.3684	0.6408	0.5048	-0.4460
2	-9.1874	0.3680	-2.6824	-0.0439	-0.1789	-0.0247	33.0921	20.1243	7.8080	0.3689	0.6403	0.5045	-0.4465
2.01	-9.1623	0.3593	-2.6573	-0.0518	-0.1737	-0.0195	33.1598	19.9738	7.9034	0.3695	0.6398	0.5043	-0.4469
2.02	-9.1713	0.3632	-2.6109	-0.0484	-0.1722	-0.0212	33.0890	19.9896	8.1031	0.3700	0.6394	0.5041	-0.4474
2.03	-9.2295	0.3584	-2.6103	-0.0550	-0.1644	-0.0118	33.7187	19.8010	7.8470	0.3706	0.6389	0.5039	-0.4478
2.04	-9.2220	0.3445	-2.5810	-0.0544	-0.1618	-0.0141	34.0850	19.8788	7.7765	0.3711	0.6385	0.5037	-0.4482
2.05	-9.2636	0.3337	-2.5819	-0.0555	-0.1447	-0.0149	33.7053	20.0572	7.5144	0.3716	0.6381	0.5036	-0.4485
2.06	-9.3122	0.2988	-2.5705	-0.0541	-0.1391	-0.0164	33.5111	20.1735	7.6278	0.3721	0.6377	0.5034	-0.4489
2.07	-9.3406	0.2977	-2.5488	-0.0514	-0.1322	-0.0176	33.2456	20.1586	7.5362	0.3725	0.6373	0.5033	-0.4492
2.08	-9.3266	0.2687	-2.4927	-0.0362	-0.1316	-0.0268	33.1934	19.9966	7.5320	0.3729	0.6370	0.5031	-0.4495
2.09	-9.3091	0.2423	-2.4560	-0.0288	-0.1398	-0.0308	33.4025	20.0740	7.5678	0.3733	0.6366	0.5030	-0.4500
2.1	-9.2578	0.2080	-2.4041	-0.0140	-0.1491	-0.0331	33.3055	19.9274	7.4498	0.3736	0.6362	0.5028	-0.4504
2.11	-9.2771	0.2056	-2.3640	-0.0024	-0.1495	-0.0361	33.1884	20.0631	7.4561	0.3739	0.6358	0.5025	-0.4510
2.12	-9.2087	0.1690	-2.3216	0.0144	-0.1591	-0.0325	33.2106	20.1349	7.5688	0.3742	0.6355	0.5022	-0.4516
2.13	-9.1652	0.1600	-2.2345	0.0324	-0.1507	-0.0330	33.2311	20.1286	7.2656	0.3744	0.6352	0.5019	-0.4522
2.14	-9.1966	0.1657	-2.2094	0.0498	-0.1506	-0.0308	33.5202	20.0324	7.2654	0.3746	0.6349	0.5016	-0.4528
2.15	-9.1366	0.1592	-2.1476	0.0689	-0.1450	-0.0341	33.3093	20.0366	7.3783	0.3746	0.6347	0.5012	-0.4535
2.16	-9.2084	0.2029	-2.1031	0.0841	-0.1225	-0.0332	33.1703	20.1956	7.1671	0.3746	0.6345	0.5008	-0.4542
2.17	-9.2508	0.2282	-2.0996	0.0987	-0.1289	-0.0497	33.2309	20.2151	7.1855	0.3745	0.6344	0.5004	-0.4549
2.18	-9.1725	0.2417	-2.0360	0.1063	-0.1181	-0.0492	33.1793	20.1982	7.0555	0.3743	0.6342	0.5001	-0.4556
2.19	-9.1491	0.2556	-2.0203	0.1223	-0.1130	-0.0528	33.5180	20.2194	6.9684	0.3741	0.6341	0.4997	-0.4564
2.2	-9.1038	0.2855	-1.9896	0.1246	-0.0937	-0.0721	33.3341	20.1895	6.9740	0.3738	0.6340	0.4993	-0.4571
2.21	-9.1228	0.2412	-2.0092	0.1232	-0.0610	-0.0815	33.2753	20.2320	6.6699	0.3734	0.6340	0.4991	-0.4578
2.22	-9.1789	0.2336	-2.0277	0.1235	-0.0456	-0.0845	33.4104	20.1554	6.6414	0.3729	0.6340	0.4990	-0.4584
2.23	-9.2862	0.2233	-2.0179	0.1177	-0.0282	-0.0806	33.0550	20.1541	6.7063	0.3724	0.6340	0.4988	-0.4589
2.24	-9.3586	0.2094	-2.0394	0.1178	-0.0305	-0.0922	33.2798	20.2141	6.4941	0.3719	0.6340	0.4987	-0.4594
2.25	-9.3578	0.2035	-1.9837	0.1042	-0.0316	-0.0917	33.3980	20.2084	6.6344	0.3714	0.6339	0.4986	-0.4600
2.26	-9.4736	0.1751	-2.0175	0.0980	-0.0268	-0.0983	33.2623	20.4218	6.6097	0.3709	0.6339	0.4986	-0.4605
2.27	-9.4491	0.1382	-2.0000	0.0870	-0.0467	-0.1097	33.1309	20.3642	6.5856	0.3705	0.6337	0.4986	-0.4610
2.28	-9.4241	0.0841	-1.9638	0.0724	-0.0479	-0.1084	33.1122	20.3733	6.3798	0.3701	0.6335	0.4986	-0.4616
2.29	-9.4505	0.0266	-1.9907	0.0742	-0.0542	-0.1078	33.2132	20.3948	6.5898	0.3698	0.6333	0.4986	-0.4621
2.3	-9.3849	-0.0319	-1.9848	0.0708	-0.0574	-0.1072	33.3922	20.6368	6.5574	0.3694	0.6331	0.4986	-0.4627
2.31	-9.3361	-0.0892	-2.0254	0.0728	-0.0585	-0.0951	33.2808	20.6623	6.5185	0.3691	0.6329	0.4986	-0.4632
2.32	-9.2667	-0.1351	-2.0377	0.0751	-0.0658	-0.0808	32.9895	20.5268	6.4110	0.3689	0.6328	0.4985	-0.4637
2.33	-9.2517	-0.1884	-2.0365	0.0770	-0.0561	-0.0628	33.0490	20.5885	6.2093	0.3686	0.6327	0.4983	-0.4642
2.34	-9.2650	-0.2107	-2.0301	0.0917	-0.0395	-0.0441	33.0227	20.6398	6.4037	0.3683	0.6327	0.4981	-0.4647
2.35	-9.3152	-0.2075	-2.0229	0.0968	-0.0367	-0.0339	33.0308	20.7128	6.1491	0.3680	0.6328	0.4978	-0.4651
2.36	-9.2806	-0.2138	-2.0234	0.1145	-0.0397	-0.0197	33.1308	20.7347	6.0109	0.3677	0.6329	0.4975	-0.4655
2.37	-9.2204	-0.1932	-2.0028	0.1254	-0.0346	-0.0008	33.1156	20.4409	6.2739	0.3674	0.6331	0.4971	-0.4659
2.38	-9.2020	-0.1397	-2.0555	0.1392	-0.0362	0.0119	33.1300	20.5279	6.3173	0.3671	0.6334	0.4966	-0.4664
2.39	-9.0445	-0.0833	-2.0360	0.1531	-0.0460	0.0295	33.0355	20.6407	6.0235	0.3668	0.6337	0.4960	-0.4668
2.4	-8.9846	-0.0191	-2.0600	0.1488	-0.0275	0.0377	33.0138	20.6428	5.9369	0.3664	0.6340	0.4954	-0.4672
2.41	-8.9608	0.0447	-2.1062	0.1516	-0.0014	0.0389	33.2535	20.6193	6.0111	0.3661	0.6345	0.4949	-0.4675
2.42	-8.9518	0.0961	-2.1164	0.1489	0.0284	0.0353	33.3264	20.6821	6.0879	0.3656	0.6349	0.4944	-0.4678
2.43	-9.0978	0.1587	-2.1892	0.1385	0.0633	0.0288	33.1885	20.3956	5.9302	0.3651	0.6355	0.4940	-0.4678
2.44	-9.2652	0.1889	-2.1888	0.1239	0.0803	0.0221	33.3401	20.4299	6.0043	0.3645	0.6360	0.4937	-0.4679
2.45	-9.4820	0.2119	-2.2212	0.1142	0.0871	0.0218	33.2560	20.6101	5.8718	0.3640	0.6365	0.4934	-0.4678
2.46	-9.4886	0.2366	-2.2280	0.0907	0.0750	0.0241	33.4208	20.4399	5.9505	0.3636	0.6370	0.4932	-0.4678
2.47	-9.4046	0.2676	-2.2222	0.0776	0.0457	0.0262	33.2364	20.4665	6.0927	0.3633	0.6374	0.4929	-0.4677
2.48	-9.3839	0.2771	-2.2641	0.0655	0.0297	0.0336	33.0842	20.4789	6.0275	0.3630	0.6377	0.4927	-0.4677
2.49	-9.3067	0.3321	-2.2837	0.0476	0.0144	0.0334	33.4202	20.6623	6.0926	0.3629	0.6380	0.4924	-0.4678
2.5	-9.1542	0.3392	-2.2758	0.0310	0.0137	0.0271	33.2795	20.5380	5.9196	0.3629	0.6382	0.4922	-0.4677
2.51	-9.2068	0.3914	-2.2957	0.0162	0.0327	0.0209	33.0635	20.4284	5.9036	0.3628	0.6384	0.4921	-0.4676
2.52	-9.2827	0.3641	-2.3440	-0.0077	0.0439	0.0167	33.4079	20.7144	6.1723	0.3627	0.6386	0.4920	-0.4675
2.53	-9.1427	0.3137	-2.3512	-0.0274	0.0323	0.0094	33.6419	20.7294	6.1177	0.3627	0.6387	0.4920	-0.4673
2.54	-9.1225	0.2668	-2.3698	-0.0297	0.0466	0.0092	34.0523	20.6769	6.3175	0.3628	0.6389	0.4921	-0.4670
2.55	-9.1486	0.1874	-2.4127	-0.0439	0.0603	0.0098	33.5836	20.5981	6.0457	0.3628	0.6390	0.4922	-0.4667
2.56	-9.1008	0.1497	-2.4335	-0.0493	0.0654	-0.0009	33.2303	20.6926	6.0460	0.3628	0.6391	0.4924	-0.4664
2.57	-9.1141	0.1028	-2.4812	-0.0419	0.0896	0.0047	33.2488	20.5993	5.9441	0.3627	0.6393	0.4925	-0.4660
2.58	-9.1808	0.0815	-2.5828	-0.0328	0.1090	0.0147	33.3594	20.1676	5.9178	0.3626	0.6396	0.4927	-0.4655
2.59	-9.1110	0.0870	-2.6265	-0.0271	0.1067	0.0157	33.3671	20.2044	6.1694	0.3625	0.6399	0.4928	-0.4651
2.6	-9.2091	0.0984	-2.6502	-0.0164	0.1135	0.0235	33.6206	20.1818	5.8787	0.3623	0.6402	0.4929	-0.4646
2.61	-9.4541	0.1527	-2.7468	-0.0018	0.1331	0.0195	33.6241	20.1913	5.8912	0.3620	0.6406	0.4930	-0.4642
2.62	-9.4044	0.1749	-2.7328	0.0053	0.1170	0.0278	33.4617	20.1931	6.0587	0.3618	0.6410	0.4931	-0.4638
2.63	-9.4006	0.1778	-2.8004	0.0171	0.1337	0.0286	33.6556	20.1802	6.0679	0.3615	0.6415	0.4931	-0.4633
2.64	-9.4790	0.2150	-2.8490	0.0221	0.1298	0.0376	33.4117	20.2157	6.1746	0.3612	0.6420	0.4931	-0.4629
2.65	-9.6394	0.1913	-2.8706	0.0231	0.1158	0.0340	33.3629	20.0339	6.2794	0.3609	0.6425	0.4931	-0.4625
2.66	-9.7054	0.1501	-2.8644	0.0461	0.0865	0.0334	33.4494	20.0587	6.2720	0.3606	0.6429	0.4929	-0.4623
2.67	-9.7263	0.1121	-2.8288	0.0453	0.0583	0.0331	33.4608	20.1634	6.2286	0.3604	0.6433	0.4928	-0.4621
2.68	-9.7855	0.0945	-2.8261	0.0581	0.0360	0.0347	33.2948	20.3415	6.5005	0.3602	0.6436	0.4925	-0.4621
2.69	-9.9257	0.1167	-2.7747	0.0739	0.0078	0.0408	33.4588	20.2932	6.3592	0.3600	0.6439	0.4922	-0.4621
2.7	-9.8753	0.1040	-2.7591	0.0888	-0.0400	0.0520	33.4750	20.1966	6.2244	0.3599	0.6442	0.4917	-0.4624
2.71	-9.7216	0.1307	-2.6752	0.1030	-0.0543	0.0492	33.5086	20.4102	6.2811	0.3599	0.6444	0.4911	-0.4627
2.72	-9.6635	0.1328	-2.6988	0.1164	-0.0564	0.0570	33.6291	20.1407	6.1433	0.3598	0.6447	0.4905	-0.4631
2.73	-9.5004	0.1734	-2.6581	0.1267	-0.0795	0.0717	33.3289	20.2109	6.3465	0.3597	0.6449	0.4897	-0.4635
2.74	-9.4462	0.2076	-2.6133	0.1418	-0.0987	0.0811	33.3418	20.1899	6.0734	0.3597	0.6452	0.4889	-0.4640
2.75	-9.4547	0.2582	-2.5503	0.1512	-0.1204	0.0942	33.5275	20.1005	6.0899	0.3597	0.6455	0.4880	-0.4646
2.76	-9.3756	0.3183	-2.4574	0.1491	-0.1416	0.0962	33.7935	19.9834	6.0598	0.3598	0.6457	0.4870	-0.4652
2.77	-9.2457	0.3783	-2.3940	0.1510	-0.1514	0.0947	33.7627	20.0490	5.9393	0.3599	0.6459	0.4860	-0.4659
2.78	-9.1895	0.4432	-2.3426	0.1500	-0.1423	0.0938	33.9478	19.9215	5.7325	0.3600	0.6462	0.4850	-0.4666
2.79	-9.1053	0.4728	-2.3316	0.1478	-0.1385	0.0942	34.2072	19.8332	5.4946	0.3601	0.6464	0.4840	-0.4672
2.8	-8.9523	0.5256	-2.3105	0.1398	-0.1323	0.0923	34.0827	19.8297	5.4096	0.3602	0.6466	0.4830	-0.4678
2.81	-8.8794	0.5608	-2.3500	0.1316	-0.1161	0.0845	34.0517	19.8662	5.5403	0.3602	0.6468	0.4822	-0.4684
2.82	-8.6895	0.6067	-2.3677	0.1204	-0.1167	0.0788	34.0676	19.7109	5.4524	0.3603	0.6470	0.4813	-0.4689
2.83	-8.5849	0.6418	-2.3783	0.1068	-0.0855	0.0725	33.8130	19.9307	5.1873	0.3603	0.6473	0.4806	-0.4693
2.84	-8.7137	0.6456	-2.4590	0.0748	-0.0459	0.0640	33.9660	19.7946	5.1494	0.3604	0.6475	0.4800	-0.4695
2.85	-8.7688	0.6670	-2.4987	0.0532	-0.0264	0.0487	33.9558	19.4924	5.2593	0.3604	0.6477	0.4796	-0.4697
2.86	-8.8566	0.7044	-2.5197	0.0383	-0.0024	0.0314	33.9943	19.8312	5.2742	0.3603	0.6479	0.4793	-0.4697
2.87	-9.0289	0.7303	-2.5781	-0.0013	0.0183	0.0193	33.9081	19.7951	5.0954	0.3603	0.6480	0.4792	-0.4696
2.88	-9.0880	0.7242	-2.5726	-0.0325	0.0260	0.0030	33.9172	19.7187	5.3255	0.3604	0.6481	0.4792	-0.4695
2.89	-9.2014	0.7116	-2.5858	-0.0577	0.0286	-0.0079	34.0891	19.8502	5.4452	0.3605	0.6481	0.4793	-0.4693
2.9	-9.3370	0.6802	-2.6236	-0.0917	0.0164	-0.0183	33.8162	19.8342	5.4714	0.3607	0.6480	0.4796	-0.4690
2.91	-9.3844	0.6471	-2.6265	-0.1237	-0.0219	-0.0262	33.9460	19.8365	5.1771	0.3611	0.6478	0.4798	-0.4688
2.92	-9.3790	0.6190	-2.6542	-0.1445	-0.0441	-0.0293	33.9905	19.8368	5.3081	0.3616	0.6474	0.4801	-0.4687
2.93	-9.3012	0.6239	-2.6815	-0.1646	-0.0783	-0.0375	33.9378	19.8404	5.4750	0.3622	0.6469	0.4804	-0.4686
2.94	-9.1180	0.5841	-2.6819	-0.1914	-0.1154	-0.0390	34.0262	19.7009	5.3102	0.3630	0.6462	0.4806	-0.4686
2.95	-9.0188	0.5455	-2.6693	-0.2189	-0.1200	-0.0479	34.0406	19.6094	5.3855	0.3639	0.6455	0.4810	-0.4685
2.96	-8.9688	0.5105	-2.6671	-0.2341	-0.1328	-0.0563	34.1554	19.4671	5.3411	0.3648	0.6447	0.4814	-0.4685
2.97	-9.0084	0.4603	-2.6179	-0.2435	-0.1250	-0.0646	34.3243	19.5110	5.3846	0.3658	0.6439	0.4819	-0.4685
2.98	-9.2668	0.4027	-2.6292	-0.2607	-0.1121	-0.0835	34.3968	19.4396	5.4946	0.3667	0.6430	0.4824	-0.4683
2.99	-9.3679	0.3758	-2.5757	-0.2581	-0.1241	-0.0888	34.2969	19.3756	5.3706	0.3676	0.6421	0.4830	-0.4683
3	-9.5008	0.3263	-2.5558	-0.2765	-0.1111	-0.0913	34.0168	19.4985	5.3516	0.3686	0.6411	0.4837	-0.4681
3.01	-9.5973	0.2737	-2.5616	-0.2785	-0.1175	-0.0923	34.1831	19.4949	5.5011	0.3696	0.6402	0.4843	-0.4680
3.02	-9.5491	0.2445	-2.5518	-0.2711	-0.1192	-0.1113	34.3520	19.6558	5.3906	0.3705	0.6392	0.4850	-0.4679
3.03	-9.4876	0.1997	-2.5703	-0.2815	-0.1340	-0.1175	34.5001	19.7308	5.6515	0.3714	0.6381	0.4857	-0.4679
3.04	-9.3810	0.1555	-2.5451	-0.2730	-0.1453	-0.1145	34.7976	19.9171	5.7410	0.3724	0.6370	0.4864	-0.4679
3.05	-9.4145	0.1062	-2.5142	-0.2629	-0.1436	-0.1183	34.1777	19.8699	5.5250	0.3733	0.6360	0.4871	-0.4679
3.06	-9.5020	0.1190	-2.4788	-0.2608	-0.1617	-0.1227	34.0273	20.0459	5.7027	0.3743	0.6349	0.4877	-0.4680
3.07	-9.5744	0.1087	-2.3926	-0.2553	-0.1749	-0.1171	33.9944	19.9192	5.5070	0.3753	0.6337	0.4882	-0.4682
3.08	-9.5848	0.1167	-2.3547	-0.2404	-0.2056	-0.1240	33.9020	19.7224	5.5240	0.3762	0.6326	0.4887	-0.4684
3.09	-9.4602	0.0974	-2.2529	-0.2349	-0.2292	-0.1245	33.9153	19.8590	5.7443	0.3773	0.6313	0.4892	-0.4688
3.1	-9.4946	0.0350	-2.2329	-0.2342	-0.2331	-0.1284	34.0043	19.8124	5.5302	0.3783	0.6301	0.4896	-0.4692
3.11	-9.4818	-0.0162	-2.1872	-0.2170	-0.2645	-0.1186	34.0130	19.9100	5.5313	0.3793	0.6288	0.4899	-0.4697
3.12	-9.3768	-0.0551	-2.1113	-0.2020	-0.2895	-0.1156	33.7433	19.8173	5.6305	0.3804	0.6275	0.4901	-0.4704
3.13	-9.2600	-0.0533	-2.0689	-0.1827	-0.3111	-0.1027	33.9847	19.7617	5.4192	0.3815	0.6263	0.4902	-0.4711
3.14	-9.1265	-0.0028	-2.0051	-0.1617	-0.3214	-0.0861	34.1092	19.7207	5.3804	0.3826	0.6250	0.4902	-0.4719
3.15	-9.0859	0.0208	-1.9840	-0.1458	-0.2997	-0.0671	34.1011	19.9524	5.1626	0.3837	0.6239	0.4901	-0.4726
3.16	-9.1377	0.0633	-1.9815	-0.1237	-0.2642	-0.0689	34.0946	19.9003	5.0400	0.3846	0.6229	0.4900	-0.4732
3.17	-9.1963	0.0915	-1.9968	-0.1111	-0.2344	-0.0753	34.1191	19.8587	5.0675	0.3853	0.6220	0.4900	-0.4739
3.18	-9.2994	0.1437	-1.9803	-0.0929	-0.2152	-0.0764	33.9869	19.6860	5.0816	0.3860	0.6212	0.4899	-0.4744
3.19	-9.3727	0.1812	-1.9605	-0.0818	-0.2192	-0.0875	33.7743	20.0537	5.0224	0.3866	0.6203	0.4899	-0.4751
3.2	-9.3277	0.2202	-1.9105	-0.0804	-0.2200	-0.0977	33.9186	20.0362	5.1668	0.3872	0.6195	0.4899	-0.4758
3.21	-9.3359	0.2127	-1.8894	-0.0874	-0.2105	-0.1111	33.9272	19.9703	4.9803	0.3877	0.6186	0.4899	-0.4764
3.22	-9.3154	0.1877	-1.9022	-0.0981	-0.2011	-0.1169	33.9193	20.0135	4.7431	0.3882	0.6177	0.4901	-0.4770
3.23	-9.2004	0.1531	-1.8838	-0.1043	-0.1920	-0.1256	34.0851	19.9686	4.7895	0.3887	0.6168	0.4902	-0.4776
3.24	-9.2376	0.1231	-1.9266	-0.1203	-0.1716	-0.1221	33.8307	20.0649	4.8464	0.3893	0.6159	0.4905	-0.4781
3.25	-9.2533	0.1040	-1.9074	-0.1329	-0.1689	-0.1299	33.8475	20.1811	4.8927	0.3898	0.6150	0.4908	-0.4786
3.26	-9.3995	0.0728	-1.9028	-0.1388	-0.1427	-0.1208	33.9209	20.1693	4.8539	0.3903	0.6141	0.4911	-0.4789
3.27	-9.5544	0.0510	-1.9486	-0.1485	-0.1468	-0.1136	33.5720	20.1573	4.8939	0.3908	0.6132	0.4914	-0.4792
3.28	-9.5821	0.0295	-1.9247	-0.1557	-0.1676	-0.1084	33.5580	20.2364	4.7896	0.3915	0.6123	0.4917	-0.4796
3.29	-9.6078	0.0165	-1.9513	-0.1642	-0.1874	-0.1009	33.5860	20.3800	4.5401	0.3922	0.6114	0.4920	-0.4799
3.3	-9.4964	-0.0054	-1.9146	-0.1784	-0.2203	-0.0906	33.6825	20.2871	4.8043	0.3931	0.6103	0.4922	-0.4803
3.31	-9.4661	-0.0475	-1.8766	-0.1854	-0.2231	-0.0812	33.6350	20.2449	4.9199	0.3940	0.6093	0.4924	-0.4807
3.32	-9.4928	-0.0796	-1.8551	-0.1843	-0.2337	-0.0525	33.7600	20.2532	4.6656	0.3950	0.6083	0.4924	-0.4811
3.33	-9.4848	-0.0929	-1.7843	-0.1846	-0.2315	-0.0419	33.6232	20.3792	4.4351	0.3961	0.6073	0.4925	-0.4814
3.34	-9.5846	-0.1103	-1.7407	-0.1844	-0.2175	-0.0246	33.7046	20.2711	4.5922	0.3971	0.6064	0.4925	-0.4817
3.35	-9.7147	-0.1182	-1.6805	-0.1825	-0.2216	-0.0108	33.8441	20.2595	4.5240	0.3982	0.6055	0.4924	-0.4820
3.36	-9.7477	-0.1246	-1.6030	-0.1799	-0.2482	0.0014	33.8291	20.1412	4.3825	0.3993	0.6046	0.4923	-0.4823
3.37	-9.7285	-0.0833	-1.5440	-0.1721	-0.2708	0.0195	33.8392	20.0633	4.4369	0.4006	0.6037	0.4921	-0.4826
3.38	-9.5923	-0.0102	-1.4812	-0.1602	-0.2929	0.0292	33.5707	20.0692	4.3552	0.4019	0.6028	0.4917	-0.4830
3.39	-9.4147	0.0762	-1.4432	-0.1585	-0.3181	0.0413	33.6405	20.1580	4.2024	0.4032	0.6019	0.4912	-0.4835
3.4	-9.3054	0.1478	-1.3849	-0.1594	-0.3170	0.0489	33.7889	20.2817	4.2483	0.4046	0.6010	0.4907	-0.4840
3.41	-9.3359	0.2500	-1.3281	-0.1599	-0.2989	0.0398	33.8754	20.2126	4.1673	0.4060	0.6001	0.4903	-0.4844
3.42	-9.2953	0.2966	-1.2835	-0.1618	-0.3082	0.0361	34.0216	20.0641	4.1281	0.4073	0.5992	0.4899	-0.4849
3.43	-9.2042	0.3336	-1.1741	-0.1638	-0.3005	0.0288	34.0045	20.0964	4.0531	0.4086	0.5982	0.4895	-0.4853
3.44	-9.2695	0.3514	-1.1693	-0.1794	-0.2729	0.0143	34.0203	19.8961	3.7556	0.4099	0.5973	0.4892	-0.4857
3.45	-9.3308	0.3414	-1.0946	-0.1834	-0.2548	-0.0013	33.7521	19.9953	4.0576	0.4111	0.5963	0.4891	-0.4860
3.46	-9.5833	0.3442	-1.0948	-0.1942	-0.2301	-0.0098	33.8201	20.2106	3.9408	0.4122	0.5954	0.4890	-0.4863
3.47	-9.5446	0.3085	-1.0742	-0.1920	-0.2458	0.0007	33.8453	20.0138	3.7670	0.4134	0.5945	0.4889	-0.4865
3.48	-9.4768	0.2731	-0.9845	-0.1827	-0.2442	0.0012	33.8223	19.9860	3.8551	0.4146	0.5935	0.4887	-0.4868
3.49	-9.5667	0.2556	-1.0317	-0.1845	-0.2405	0.0099	33.8396	19.9762	3.7245	0.4157	0.5927	0.4886	-0.4870
3.5	-9.4737	0.2318	-0.9193	-0.1702	-0.2631	0.0115	33.8290	19.9976	3.8107	0.4169	0.5917	0.4884	-0.4874
3.51	-9.5022	0.2123	-0.9035	-0.1599	-0.2642	0.0238	33.7117	20.0778	3.4605	0.4181	0.5909	0.4880	-0.4877
3.52	-9.4539	0.1915	-0.8073	-0.1436	-0.2737	0.0327	34.0065	19.8932	3.8088	0.4193	0.5900	0.4877	-0.4881
3.53	-9.4535	0.1971	-0.7758	-0.1238	-0.2668	0.0498	34.3486	19.9056	3.9111	0.4205	0.5893	0.4872	-0.4885
3.54	-9.4185	0.2144	-0.7423	-0.1032	-0.2580	0.0579	34.7773	19.9199	3.6416	0.4216	0.5886	0.4867	-0.4889
3.55	-9.3742	0.2469	-0.7080	-0.0756	-0.2528	0.0632	34.3637	19.9334	3.5171	0.4226	0.5880	0.4861	-0.4893
3.56	-9.3754	0.2786	-0.6925	-0.0558	-0.2431	0.0696	34.0724	19.7852	3.5294	0.4236	0.5875	0.4854	-0.4897
3.57	-9.4752	0.3349	-0.6838	-0.0317	-0.2203	0.0743	34.0352	19.8281	3.5559	0.4244	0.5871	0.4847	-0.4901
3.58	-9.5532	0.3669	-0.6889	-0.0127	-0.2169	0.0678	34.0386	19.7037	3.3593	0.4252	0.5868	0.4840	-0.4906
3.59	-9.5193	0.3733	-0.6442	0.0086	-0.2085	0.0664	34.0601	19.5487	3.2026	0.4258	0.5865	0.4833	-0.4911
3.6	-9.5864	0.3888	-0.6620	0.0220	-0.1934	0.0631	34.0316	19.6154	3.3645	0.4264	0.5863	0.4825	-0.4916
3.61	-9.5161	0.4200	-0.6527	0.0477	-0.2004	0.0633	34.0673	19.5745	3.3378	0.4269	0.5861	0.4817	-0.4921
3.62	-9.5084	0.4309	-0.6257	0.0607	-0.1898	0.0626	34.1515	19.6134	3.2147	0.4274	0.5859	0.4809	-0.4927
3.63	-9.6040	0.4681	-0.6753	0.0793	-0.1950	0.0612	34.1364	19.7788	3.0818	0.4278	0.5858	0.4800	-0.4933
3.64	-9.4572	0.5420	-0.6040	0.0971	-0.2116	0.0518	34.1277	19.6792	2.9896	0.4282	0.5857	0.4791	-0.4941
3.65	-9.5091	0.5725	-0.5973	0.0951	-0.1741	0.0374	34.1593	19.5588	2.8291	0.4285	0.5856	0.4783	-0.4947
3.66	-9.6643	0.6185	-0.7371	0.0980	-0.1920	0.0239	34.2382	19.6317	2.8243	0.4287	0.5854	0.4775	-0.4955
3.67	-9.2981	0.6994	-0.5000	0.1009	-0.2147	0.0155	33.9335	19.7336	2.9473	0.4290	0.5852	0.4766	-0.4963
3.68	-9.5905	0.7571	-0.5947	0.0805	-0.1429	-0.0027	34.0623	19.4220	2.5502	0.4291	0.5851	0.4760	-0.4970
3.69	-9.5572	0.7258	-0.5852	0.0740	-0.1899	-0.0102	34.1605	19.4751	2.5249	0.4293	0.5848	0.4754	-0.4977
3.7	-9.5029	0.7538	-0.4913	0.0622	-0.1855	-0.0134	33.8948	19.4039	2.5111	0.4296	0.5845	0.4748	-0.4984
3.71	-9.6422	0.7699	-0.5801	0.0361	-0.1795	-0.0315	34.1678	19.1989	2.5601	0.4298	0.5841	0.4743	-0.4991
3.72	-9.5268	0.7125	-0.5149	0.0204	-0.2106	-0.0364	34.1850	19.2460	2.2585	0.4302	0.5836	0.4738	-0.4998
3.73	-9.4989	0.6820	-0.5249	-0.0072	-0.2007	-0.0380	34.1768	19.4008	2.3006	0.4306	0.5830	0.4734	-0.5005
3.74	-9.4288	0.6262	-0.4987	-0.0242	-0.2073	-0.0356	34.2039	19.3464	2.3478	0.4311	0.5824	0.4730	-0.5011
3.75	-9.3598	0.5980	-0.4931	-0.0407	-0.1964	-0.0395	34.4503	19.3042	2.3588	0.4316	0.5818	0.4727	-0.5017
3.76	-9.2637	0.5374	-0.4723	-0.0606	-0.1755	-0.0398	34.3083	19.4615	2.2891	0.4321	0.5812	0.4725	-0.5022
3.77	-9.2946	0.5097	-0.4844	-0.0768	-0.1428	-0.0396	34.2602	19.3255	2.0646	0.4326	0.5806	0.4724	-0.5025
3.78	-9.2614	0.4577	-0.4980	-0.0870	-0.1147	-0.0351	34.2596	19.3680	1.9884	0.4331	0.5801	0.4724	-0.5027
3.79	-9.2921	0.4280	-0.5083	-0.1013	-0.0845	-0.0299	34.1078	19.6589	1.8466	0.4335	0.5797	0.4725	-0.5028
3.8	-9.3900	0.4025	-0.5191	-0.1063	-0.0667	-0.0171	34.1281	19.6240	2.0375	0.4340	0.5793	0.4726	-0.5028
3.81	-9.4786	0.3681	-0.5271	-0.1225	-0.0499	-0.0254	34.2099	19.5700	1.8347	0.4344	0.5789	0.4727	-0.5027
3.82	-9.5046	0.3279	-0.5217	-0.1332	-0.0506	-0.0211	34.2161	19.5882	2.0860	0.4349	0.5784	0.4729	-0.5026
3.83	-9.5401	0.2765	-0.5008	-0.1278	-0.0503	-0.0136	34.2607	19.3588	2.1594	0.4354	0.5781	0.4731	-0.5025
3.84	-9.5326	0.2197	-0.5180	-0.1247	-0.0554	-0.0113	34.2917	19.6419	1.9839	0.4358	0.5777	0.4733	-0.5024
3.85	-9.5315	0.2069	-0.4970	-0.1122	-0.0505	-0.0096	34.1265	19.7001	1.8801	0.4363	0.5773	0.4734	-0.5023
3.86	-9.5715	0.1947	-0.5376	-0.1090	-0.0506	-0.0087	34.1157	19.5375	1.8601	0.4367	0.5770	0.4735	-0.5022
3.87	-9.4605	0.1636	-0.5227	-0.0946	-0.0587	-0.0028	34.1918	19.5020	2.0512	0.4372	0.5767	0.4735	-0.5022
3.88	-9.4777	0.1695	-0.5262	-0.0860	-0.0481	-0.0052	34.1825	19.4375	2.0204	0.4375	0.5764	0.4735	-0.5021
3.89	-9.4683	0.1718	-0.5380	-0.0707	-0.0603	0.0017	34.0228	19.3173	1.8468	0.4379	0.5761	0.4735	-0.5021
3.9	-9.4206	0.1881	-0.5027	-0.0560	-0.0599	0.0000	34.1500	19.1811	1.9193	0.4382	0.5759	0.4734	-0.5021
3.91	-9.5046	0.2063	-0.5340	-0.0491	-0.0465	-0.0043	34.3267	19.1530	1.9971	0.4385	0.5757	0.4734	-0.5022
3.92	-9.4539	0.2222	-0.4874	-0.0259	-0.0494	-0.0019	34.4868	19.0571	1.9644	0.4387	0.5756	0.4733	-0.5023
3.93	-9.4713	0.2681	-0.4903	-0.0154	-0.0449	-0.0075	34.6030	19.1544	2.0906	0.4389	0.5754	0.4731	-0.5024
3.94	-9.4503	0.3137	-0.4789	0.0090	-0.0424	0.0063	34.5228	19.3925	1.9130	0.4390	0.5754	0.4729	-0.5025
3.95	-9.4207	0.3549	-0.4502	0.0229	-0.0391	0.0065	34.3180	19.2241	1.8646	0.4391	0.5754	0.4727	-0.5027
3.96	-9.4691	0.4068	-0.4437	0.0202	-0.0368	-0.0065	34.5652	19.2335	1.9134	0.4391	0.5754	0.4725	-0.5028
3.97	-9.4864	0.4475	-0.4072	0.0295	-0.0368	0.0046	34.0737	19.4316	1.7260	0.4392	0.5754	0.4722	-0.5030
3.98	-9.5423	0.5084	-0.4126	0.0449	-0.0399	0.0048	34.2943	19.4016	1.8857	0.4392	0.5755	0.4719	-0.5032
3.99	-9.4967	0.5446	-0.4055	0.0438	-0.0476	0.0060	34.4473	19.4015	1.7821	0.4392	0.5755	0.4716	-0.5034
4	-9.5175	0.5964	-0.3960	0.0478	-0.0392	-0.0073	34.3049	19.4231	1.9009	0.4392	0.5756	0.4713	-0.5037
4.01	-9.5503	0.6120	-0.4348	0.0471	-0.0360	-0.0059	34.1422	19.3735	2.0884	0.4391	0.5756	0.4710	-0.5039
4.02	-9.4648	0.6099	-0.4078	0.0486	-0.0456	-0.0204	34.2493	19.4964	1.9008	0.4391	0.5756	0.4708	-0.5042
4.03	-9.4979	0.6221	-0.4264	0.0453	-0.0399	-0.0397	34.6970	19.4131	2.0974	0.4390	0.5756	0.4706	-0.5045
4.04	-9.5003	0.5946	-0.4147	0.0434	-0.0379	-0.0468	34.9323	19.3516	2.0496	0.4389	0.5755	0.4705	-0.5048
4.05	-9.5216	0.5809	-0.4246	0.0387	-0.0370	-0.0559	34.5635	19.3077	1.7299	0.4387	0.5754	0.4704	-0.5051
4.06	-9.4951	0.5646	-0.4095	0.0390	-0.0366	-0.0634	34.5191	19.4804	1.8280	0.4386	0.5753	0.4703	-0.5055
4.07	-9.4945	0.5629	-0.4076	0.0293	-0.0263	-0.0724	34.3204	19.5820	1.7726	0.4384	0.5752	0.4702	-0.5058
4.08	-9.4951	0.5341	-0.4227	0.0206	-0.0278	-0.0716	34.2494	19.2481	1.4643	0.4383	0.5750	0.4703	-0.5061
4.09	-9.4927	0.5145	-0.4279	0.0241	-0.0142	-0.0757	34.4514	19.2687	1.5464	0.4381	0.5749	0.4703	-0.5064
4.1	-9.5171	0.5001	-0.4823	0.0197	-0.0158	-0.0700	34.4178	19.2442	1.5717	0.4379	0.5748	0.4703	-0.5066
4.11	-9.4782	0.4864	-0.4869	0.0096	-0.0127	-0.0724	34.6633	19.2715	1.5880	0.4377	0.5747	0.4704	-0.5068
4.12	-9.4951	0.4673	-0.5314	-0.0098	-0.0075	-0.0786	34.5787	19.2344	1.5186	0.4376	0.5745	0.4705	-0.5070
4.13	-9.5137	0.4423	-0.5445	-0.0241	-0.0136	-0.0739	34.4789	19.3250	1.5054	0.4376	0.5743	0.4707	-0.5072
4.14	-9.5403	0.4058	-0.5539	-0.0374	-0.0084	-0.0682	34.2390	19.3565	1.7019	0.4375	0.5741	0.4708	-0.5073
4.15	-9.5183	0.3777	-0.5521	-0.0509	-0.0096	-0.0712	34.5126	19.3332	1.5046	0.4375	0.5738	0.4711	-0.5073
4.16	-9.5204	0.3576	-0.5459	-0.0629	-0.0087	-0.0594	34.3328	19.3542	1.4917	0.4376	0.5736	0.4713	-0.5074
4.17	-9.4970	0.3187	-0.5514	-0.0817	-0.0135	-0.0453	34.2116	19.3227	1.6910	0.4378	0.5733	0.4715	-0.5073
4.18	-9.5635	0.3168	-0.5556	-0.0905	-0.0009	-0.0364	34.4104	19.4614	1.6217	0.4380	0.5730	0.4717	-0.5072
4.19	-9.6424	0.2866	-0.5877	-0.1050	-0.0038	-0.0343	34.2809	19.3885	1.5884	0.4382	0.5728	0.4720	-0.5070
4.2	-9.6846	0.2481	-0.5969	-0.1160	-0.0040	-0.0200	34.3179	19.3469	1.6938	0.4385	0.5725	0.4722	-0.5068
4.21	-9.6846	0.2072	-0.6387	-0.1172	-0.0200	-0.0086	34.3809	19.6471	1.5590	0.4389	0.5722	0.4724	-0.5066
4.22	-9.6429	0.1998	-0.6279	-0.1107	-0.0332	-0.0104	34.2326	19.6753	1.6460	0.4393	0.5719	0.4726	-0.5065
4.23	-9.6730	0.1837	-0.6474	-0.1169	-0.0380	-0.0003	34.4567	19.5900	1.3762	0.4398	0.5716	0.4727	-0.5063
4.24	-9.6427	0.1746	-0.6299	-0.1097	-0.0493	0.0088	34.4124	19.6147	1.6522	0.4403	0.5713	0.4728	-0.5062
4.25	-9.6131	0.1867	-0.6035	-0.1031	-0.0458	0.0163	34.5817	19.5307	1.6667	0.4407	0.5711	0.4728	-0.5061
4.26	-9.6260	0.2089	-0.5909	-0.0917	-0.0551	0.0159	34.4523	19.5989	1.6391	0.4412	0.5708	0.4728	-0.5060
4.27	-9.6314	0.2307	-0.5586	-0.0812	-0.0671	0.0147	34.1450	19.2840	1.6886	0.4417	0.5705	0.4727	-0.5059
4.28	-9.6451	0.2283	-0.5183	-0.0755	-0.0740	0.0175	34.5677	19.5325	1.5574	0.4421	0.5703	0.4726	-0.5059
4.29	-9.6640	0.2407	-0.4997	-0.0567	-0.0830	0.0207	34.5152	19.4231	1.4781	0.4426	0.5700	0.4724	-0.5060
4.3	-9.5735	0.2354	-0.4694	-0.0328	-0.0936	0.0121	34.4071	19.2711	1.4316	0.4430	0.5698	0.4722	-0.5062
4.31	-9.5267	0.2546	-0.4344	-0.0323	-0.0950	0.0173	34.5105	19.2599	1.3993	0.4433	0.5696	0.4719	-0.5063
4.32	-9.5419	0.2690	-0.4336	-0.0179	-0.0893	0.0133	34.6379	19.2391	1.7278	0.4437	0.5694	0.4716	-0.5065
4.33	-9.4386	0.2920	-0.3962	0.0045	-0.0993	0.0053	34.4917	19.3027	1.4780	0.4440	0.5692	0.4713	-0.5068
4.34	-9.4351	0.3354	-0.3658	0.0204	-0.0946	0.0054	34.5798	19.5003	1.7164	0.4442	0.5690	0.4709	-0.5071
4.35	-9.4697	0.3659	-0.3620	0.0413	-0.0847	-0.0015	34.4016	19.3179	1.3891	0.4443	0.5690	0.4705	-0.5074
4.36	-9.4392	0.4128	-0.3138	0.0528	-0.0743	-0.0036	34.6941	19.3646	1.2971	0.4443	0.5689	0.4701	-0.5078
4.37	-9.4677	0.4596	-0.2978	0.0706	-0.0701	-0.0084	34.5048	19.1759	1.3831	0.4443	0.5689	0.4697	-0.5082
4.38	-9.4543	0.4830	-0.2748	0.0741	-0.0601	-0.0130	34.4806	19.4264	1.5070	0.4443	0.5689	0.4694	-0.5086
4.39	-9.4366	0.5175	-0.2428	0.0939	-0.0618	-0.0230	34.5636	19.4164	1.6137	0.4441	0.5690	0.4690	-0.5090
4.4	-9.4270	0.5213	-0.2341	0.1014	-0.0573	-0.0354	34.4050	19.4802	1.2982	0.4439	0.5690	0.4686	-0.5095
4.41	-9.4064	0.5252	-0.2150	0.1042	-0.0515	-0.0480	34.4667	19.4547	1.2742	0.4437	0.5691	0.4682	-0.5100
4.42	-9.4348	0.5361	-0.2094	0.1136	-0.0419	-0.0538	34.4167	19.2101	1.0674	0.4433	0.5691	0.4679	-0.5105
4.43	-9.4730	0.5436	-0.2203	0.1255	-0.0414	-0.0560	34.5588	19.3629	1.2481	0.4430	0.5692	0.4676	-0.5110
4.44	-9.4830	0.5810	-0.2031	0.1258	-0.0292	-0.0700	34.4979	19.3503	1.2691	0.4425	0.5693	0.4673	-0.5116
4.45	-9.4887	0.6017	-0.2378	0.1255	-0.0224	-0.0699	34.1865	19.5094	1.1428	0.4421	0.5694	0.4670	-0.5121
4.46	-9.4274	0.6398	-0.2175	0.1236	-0.0207	-0.0703	34.5576	19.5304	0.9057	0.4417	0.5695	0.4668	-0.5126
4.47	-9.4837	0.6755	-0.2477	0.1031	0.0015	-0.0828	34.7203	19.4861	0.8283	0.4412	0.5696	0.4666	-0.5130
4.48	-9.4905	0.6692	-0.2528	0.0846	-0.0075	-0.0858	34.4262	19.4193	0.9665	0.4408	0.5696	0.4665	-0.5135
4.49	-9.5128	0.6860	-0.2588	0.0655	0.0019	-0.0878	34.4478	19.4158	1.1386	0.4404	0.5696	0.4665	-0.5138
4.5	-9.5384	0.6727	-0.2595	0.0442	-0.0049	-0.1061	34.4539	19.4536	0.8818	0.4400	0.5695	0.4666	-0.5142
4.51	-9.5764	0.6411	-0.2677	0.0260	-0.0089	-0.1086	34.2880	19.6063	0.7120	0.4397	0.5693	0.4667	-0.5145
4.52	-9.5807	0.6107	-0.2549	0.0100	-0.0041	-0.1060	34.5190	19.4876	0.9117	0.4395	0.5691	0.4669	-0.5148
4.53	-9.6321	0.5949	-0.2679	-0.0198	-0.0119	-0.1099	34.8147	19.8928	0.9958	0.4393	0.5688	0.4671	-0.5150
4.54	-9.6158	0.5320	-0.2675	-0.0469	-0.0169	-0.1108	35.0841	19.8969	1.1120	0.4392	0.5685	0.4674	-0.5152
4.55	-9.6317	0.4746	-0.2862	-0.0683	-0.0353	-0.1043	34.4671	19.9021	0.7736	0.4393	0.5680	0.4678	-0.5154
4.56	-9.6373	0.4161	-0.3011	-0.0885	-0.0392	-0.1068	34.4357	20.0431	0.7271	0.4394	0.5675	0.4681	-0.5155
4.57	-9.6236	0.3524	-0.2860	-0.1074	-0.0383	-0.0987	34.1046	19.9393	0.9025	0.4395	0.5670	0.4685	-0.5156
4.58	-9.6422	0.2986	-0.2882	-0.1241	-0.0449	-0.0922	34.1087	19.8004	0.9609	0.4398	0.5665	0.4689	-0.5156
4.59	-9.6289	0.2471	-0.2732	-0.1429	-0.0503	-0.0898	34.3262	20.0125	0.8217	0.4401	0.5659	0.4693	-0.5157
4.6	-9.5603	0.1882	-0.2601	-0.1589	-0.0630	-0.0838	34.1592	19.9818	0.9755	0.4405	0.5652	0.4697	-0.5157
4.61	-9.5360	0.1421	-0.2516	-0.1560	-0.0608	-0.0838	34.0598	20.1201	0.9523	0.4409	0.5645	0.4701	-0.5157
4.62	-9.5306	0.0980	-0.2577	-0.1594	-0.0575	-0.0668	33.9780	20.0407	0.9703	0.4414	0.5639	0.4705	-0.5156
4.63	-9.5455	0.0567	-0.2254	-0.1704	-0.0523	-0.0600	34.2004	19.9896	0.9424	0.4418	0.5633	0.4709	-0.5155
4.64	-9.5838	0.0196	-0.2379	-0.1690	-0.0595	-0.0433	34.0548	19.9383	1.0693	0.4424	0.5627	0.4712	-0.5154
4.65	-9.5158	-0.0174	-0.1980	-0.1703	-0.0683	-0.0369	34.2118	19.7612	1.0453	0.4430	0.5621	0.4715	-0.5152
4.66	-9.5469	-0.0332	-0.1914	-0.1599	-0.0651	-0.0222	34.2683	19.9337	0.9191	0.4435	0.5616	0.4717	-0.5151
4.67	-9.5248	-0.0562	-0.1606	-0.1610	-0.0735	-0.0110	34.2642	19.7659	1.0682	0.4442	0.5611	0.4719	-0.5150
4.68	-9.4817	-0.0426	-0.1480	-0.1488	-0.0621	-0.0117	34.0600	19.6258	1.0618	0.4447	0.5606	0.4721	-0.5148
4.69	-9.4499	-0.0451	-0.1324	-0.1324	-0.0688	-0.0090	34.0764	19.9094	0.9238	0.4453	0.5601	0.4722	-0.5147
4.7	-9.4648	-0.0408	-0.1143	-0.1138	-0.0534	-0.0095	34.0823	19.7187	1.0366	0.4458	0.5598	0.4723	-0.5146
4.71	-9.5004	-0.0454	-0.0990	-0.1001	-0.0488	-0.0030	34.0662	19.7571	1.1527	0.4462	0.5595	0.4724	-0.5146
4.72	-9.5297	-0.0507	-0.0903	-0.0810	-0.0456	-0.0006	34.0959	19.8100	1.1672	0.4466	0.5592	0.4724	-0.5145
4.73	-9.5588	-0.0362	-0.0762	-0.0618	-0.0433	-0.0030	34.3499	19.5716	1.1153	0.4469	0.5590	0.4724	-0.5145
4.74	-9.5725	-0.0176	-0.0606	-0.0355	-0.0482	0.0092	34.0577	19.8066	1.0141	0.4471	0.5588	0.4723	-0.5145
4.75	-9.6038	0.0097	-0.0468	-0.0173	-0.0491	0.0087	34.1128	19.9369	1.2806	0.4474	0.5587	0.4721	-0.5146
4.76	-9.5821	0.0446	-0.0368	0.0077	-0.0638	0.0125	33.8801	20.0094	1.0759	0.4476	0.5587	0.4718	-0.5148
4.77	-9.5125	0.0728	-0.0043	0.0342	-0.0675	0.0099	34.0397	19.8089	1.0645	0.4477	0.5586	0.4714	-0.5150
4.78	-9.4947	0.1015	-0.0047	0.0474	-0.0602	0.0013	34.0058	19.8940	0.9787	0.4478	0.5586	0.4711	-0.5153
4.79	-9.4405	0.1256	0.0129	0.0676	-0.0552	-0.0048	33.9984	20.1377	0.9385	0.4478	0.5587	0.4707	-0.5156
4.8	-9.4405	0.1645	0.0142	0.0949	-0.0474	-0.0038	34.0862	19.8881	0.9978	0.4476	0.5588	0.4703	-0.5160
4.81	-9.4247	0.1927	0.0259	0.1165	-0.0460	-0.0169	34.1505	20.0075	0.8730	0.4474	0.5589	0.4698	-0.5164
4.82	-9.4277	0.2345	0.0308	0.1320	-0.0276	-0.0248	34.0885	19.9017	0.8827	0.4471	0.5591	0.4694	-0.5169
4.83	-9.4394	0.2644	0.0119	0.1478	-0.0228	-0.0315	33.9553	19.8140	0.8408	0.4467	0.5594	0.4689	-0.5174
4.84	-9.4424	0.2952	0.0034	0.1509	-0.0181	-0.0359	34.3941	19.6013	0.5972	0.4463	0.5596	0.4685	-0.5179
4.85	-9.4718	0.3370	-0.0011	0.1515	-0.0061	-0.0474	34.4626	19.5929	0.9258	0.4458	0.5599	0.4681	-0.5183
4.86	-9.5115	0.3602	-0.0100	0.1498	-0.0046	-0.0577	34.3110	19.8976	0.7321	0.4453	0.5601	0.4678	-0.5188
4.87	-9.5283	0.4096	-0.0239	0.1472	0.0015	-0.0589	34.0962	19.6022	0.5676	0.4447	0.5603	0.4675	-0.5193
4.88	-9.5087	0.4080	-0.0357	0.1260	0.0000	-0.0740	34.2856	19.7955	0.6143	0.4442	0.5605	0.4672	-0.5198
4.89	-9.5141	0.3962	-0.0476	0.1216	-0.0024	-0.0753	34.0644	19.8298	0.5932	0.4437	0.5606	0.4670	-0.5203
4.9	-9.5422	0.4109	-0.0582	0.0984	0.0039	-0.0839	34.0874	19.8286	0.5942	0.4433	0.5607	0.4669	-0.5207
4.91	-9.5498	0.3884	-0.0617	0.0782	0.0004	-0.0834	34.0358	19.7857	0.6164	0.4429	0.5607	0.4668	-0.5211
4.92	-9.5646	0.3755	-0.0645	0.0601	0.0024	-0.0846	33.9460	19.9809	0.5102	0.4425	0.5607	0.4668	-0.5214
4.93	-9.5684	0.3544	-0.0605	0.0371	-0.0093	-0.0827	34.1256	20.0021	0.4927	0.4422	0.5607	0.4668	-0.5217
4.94	-9.5396	0.3192	-0.0719	0.0225	0.0026	-0.0868	34.0114	20.0109	0.6439	0.4420	0.5606	0.4669	-0.5219
4.95	-9.5109	0.2994	-0.0780	-0.0012	0.0092	-0.0874	33.8009	20.1545	0.5035	0.4418	0.5604	0.4671	-0.5221
4.96	-9.4757	0.2449	-0.0961	-0.0256	0.0149	-0.0816	33.8093	20.2635	0.4918	0.4416	0.5603	0.4673	-0.5222
4.97	-9.4667	0.2024	-0.1047	-0.0347	0.0219	-0.0844	33.9272	20.2503	0.4913	0.4415	0.5601	0.4676	-0.5223
4.98	-9.4983	0.1545	-0.1293	-0.0623	0.0219	-0.0830	33.8719	20.2805	0.5041	0.4414	0.5599	0.4679	-0.5223
4.99	-9.5044	0.0958	-0.1321	-0.0750	0.0282	-0.0848	33.9935	20.1768	0.4650	0.4414	0.5596	0.4683	-0.5222
5	-9.5346	0.0551	-0.1493	-0.0815	0.0283	-0.0728	33.9047	20.1721	0.7110	0.4414	0.5594	0.4687	-0.5221
5.01	-9.5078	0.0190	-0.1446	-0.0820	0.0190	-0.0633	33.6420	20.2829	0.7790	0.4415	0.5592	0.4690	-0.5220
5.02	-9.4858	-0.0051	-0.1477	-0.0899	0.0273	-0.0516	34.0690	20.2510	0.7807	0.4415	0.5589	0.4693	-0.5219
5.03	-9.4870	-0.0307	-0.1564	-0.1000	0.0331	-0.0405	34.4169	20.2731	0.6960	0.4417	0.5588	0.4697	-0.5216
5.04	-9.5056	-0.0392	-0.1638	-0.1005	0.0329	-0.0326	34.8646	20.1863	0.5567	0.4419	0.5586	0.4700	-0.5214
5.05	-9.5119	-0.0679	-0.1675	-0.0977	0.0436	-0.0158	34.2471	20.2239	0.7546	0.4420	0.5585	0.4703	-0.5211
5.06	-9.5778	-0.0970	-0.1994	-0.0927	0.0503	-0.0079	34.0872	20.4463	0.6006	0.4422	0.5584	0.4706	-0.5207
5.07	-9.6086	-0.1233	-0.2178	-0.0828	0.0466	-0.0055	33.9723	20.4472	0.4952	0.4423	0.5584	0.4709	-0.5204
5.08	-9.6419	-0.1328	-0.2140	-0.0797	0.0480	-0.0027	33.7463	20.1352	0.7570	0.4425	0.5584	0.4711	-0.5201
5.09	-9.6999	-0.1600	-0.2354	-0.0611	0.0382	-0.0027	33.8537	20.1289	0.6420	0.4426	0.5584	0.4712	-0.5199
5.1	-9.6996	-0.1613	-0.2121	-0.0498	0.0239	0.0088	34.0684	20.1329	0.8791	0.4427	0.5584	0.4713	-0.5197
5.11	-9.6988	-0.1613	-0.1979	-0.0255	0.0109	0.0092	33.9824	20.1239	0.8989	0.4429	0.5584	0.4713	-0.5196
5.12	-9.6639	-0.1552	-0.1838	-0.0158	-0.0067	0.0061	33.9801	20.2922	0.8473	0.4430	0.5584	0.4712	-0.5195
5.13	-9.6321	-0.1233	-0.1620	0.0211	-0.0105	0.0067	33.9865	20.2671	0.7318	0.4430	0.5585	0.4710	-0.5196
5.14	-9.6181	-0.0946	-0.1354	0.0349	-0.0262	0.0102	33.9937	20.1064	1.0062	0.4430	0.5586	0.4707	-0.5197
5.15	-9.6050	-0.0562	-0.1188	0.0464	-0.0276	0.0033	33.7366	20.0389	0.9503	0.4430	0.5586	0.4704	-0.5199
5.16	-9.5464	-0.0053	-0.1020	0.0686	-0.0269	0.0111	33.9107	20.0349	0.8555	0.4430	0.5588	0.4701	-0.5201
5.17	-9.5221	0.0550	-0.0912	0.0759	-0.0270	0.0054	34.0498	20.0595	0.9167	0.4429	0.5589	0.4697	-0.5204
5.18	-9.4938	0.1117	-0.0785	0.0924	-0.0235	-0.0006	33.7230	20.0155	0.7556	0.4427	0.5591	0.4693	-0.5207
5.19	-9.4703	0.1636	-0.0525	0.0915	-0.0188	-0.0016	34.0452	19.9625	0.8419	0.4426	0.5593	0.4689	-0.5210
5.2	-9.4895	0.2103	-0.0521	0.0966	-0.0153	-0.0031	33.9692	20.1209	0.9062	0.4424	0.5595	0.4686	-0.5212
5.21	-9.5112	0.2422	-0.0310	0.0980	-0.0069	-0.0057	33.8352	20.1542	0.8096	0.4421	0.5598	0.4682	-0.5215
5.22	-9.5564	0.2799	-0.0367	0.0841	-0.0027	-0.0066	34.1626	20.0828	0.5282	0.4419	0.5600	0.4679	-0.5218
5.23	-9.5433	0.3093	-0.0241	0.0757	-0.0055	-0.0109	34.1235	20.0710	0.4023	0.4417	0.5601	0.4676	-0.5220
5.24	-9.5331	0.3347	-0.0278	0.0761	-0.0086	-0.0118	33.9772	19.8804	0.7132	0.4416	0.5603	0.4673	-0.5222
5.25	-9.5261	0.3546	-0.0385	0.0581	-0.0041	-0.0198	34.0621	19.8707	0.7121	0.4414	0.5604	0.4671	-0.5224
5.26	-9.5174	0.3596	-0.0465	0.0433	-0.0028	-0.0210	34.1015	20.0710	0.5496	0.4413	0.5605	0.4669	-0.5226
5.27	-9.5105	0.3548	-0.0541	0.0356	0.0054	-0.0317	33.9938	19.8845	0.5350	0.4411	0.5606	0.4668	-0.5227
5.28	-9.5139	0.3334	-0.0708	0.0140	0.0097	-0.0292	33.9900	20.0726	0.7563	0.4410	0.5606	0.4668	-0.5228
5.29	-9.5336	0.3170	-0.0743	0.0034	0.0075	-0.0295	33.9525	20.0164	0.5279	0.4409	0.5606	0.4668	-0.5229
5.3	-9.5536	0.2894	-0.0868	-0.0104	0.0133	-0.0305	34.2102	20.0832	0.5947	0.4409	0.5606	0.4668	-0.5229
5.31	-9.5738	0.2578	-0.0980	-0.0297	0.0139	-0.0326	33.9340	20.1707	0.7664	0.4409	0.5605	0.4669	-0.5229
5.32	-9.5936	0.2311	-0.1066	-0.0392	0.0106	-0.0285	33.8756	20.0013	0.4739	0.4409	0.5605	0.4670	-0.5228
5.33	-9.5718	0.2000	-0.1051	-0.0521	0.0021	-0.0290	34.1155	20.0960	0.7839	0.4410	0.5603	0.4671	-0.5228
5.34	-9.5797	0.1671	-0.1140	-0.0550	0.0025	-0.0220	34.0818	20.2892	0.5926	0.4412	0.5602	0.4672	-0.5227
5.35	-9.6041	0.1448	-0.1335	-0.0594	-0.0043	-0.0134	33.9328	20.0393	0.6903	0.4414	0.5601	0.4673	-0.5226
5.36	-9.5674	0.1244	-0.1285	-0.0676	-0.0089	-0.0083	33.6625	20.0279	0.7114	0.4416	0.5599	0.4674	-0.5225
5.37	-9.6208	0.1066	-0.1506	-0.0719	-0.0044	-0.0091	34.0299	19.9318	0.6894	0.4418	0.5598	0.4675	-0.5224
5.38	-9.6493	0.0848	-0.1532	-0.0626	-0.0102	-0.0078	33.8802	20.2163	0.7221	0.4420	0.5597	0.4676	-0.5223
5.39	-9.6436	0.0579	-0.1327	-0.0601	-0.0193	-0.0094	33.9933	20.1539	0.5920	0.4423	0.5595	0.4676	-0.5222
5.4	-9.6642	0.0352	-0.1300	-0.0569	-0.0277	-0.0018	33.9652	19.8632	0.5148	0.4425	0.5593	0.4676	-0.5222
5.41	-9.6262	0.0080	-0.1132	-0.0552	-0.0390	-0.0006	34.0295	19.9212	0.8596	0.4428	0.5592	0.4675	-0.5222
5.42	-9.5992	-0.0196	-0.1063	-0.0365	-0.0448	-0.0031	34.0961	19.9739	0.6104	0.4431	0.5590	0.4675	-0.5222
5.43	-9.5915	-0.0373	-0.1026	-0.0194	-0.0461	0.0070	34.0509	19.8518	0.6129	0.4433	0.5589	0.4673	-0.5223
5.44	-9.5872	-0.0372	-0.0942	0.0038	-0.0490	0.0086	33.9602	20.0011	0.8766	0.4434	0.5588	0.4670	-0.5224
5.45	-9.6129	-0.0207	-0.0872	0.0221	-0.0505	0.0162	34.0091	20.0870	0.6553	0.4436	0.5588	0.4667	-0.5226
5.46	-9.6209	0.0137	-0.0731	0.0440	-0.0524	0.0176	33.8685	19.9097	0.4941	0.4437	0.5589	0.4664	-0.5228
5.47	-9.6147	0.0457	-0.0504	0.0580	-0.0582	0.0185	34.1348	20.0203	0.5414	0.4438	0.5589	0.4659	-0.5231
5.48	-9.6094	0.0775	-0.0332	0.0803	-0.0671	0.0130	34.1433	20.1179	0.4782	0.4438	0.5590	0.4654	-0.5234
5.49	-9.5729	0.0996	-0.0183	0.0914	-0.0639	0.0066	33.9751	20.0096	0.6275	0.4437	0.5591	0.4649	-0.5238
5.5	-9.5413	0.1282	-0.0003	0.1031	-0.0702	0.0012	33.8892	20.0529	0.4940	0.4437	0.5592	0.4644	-0.5242
5.51	-9.5186	0.1548	0.0062	0.1206	-0.0676	-0.0026	34.2671	19.9235	0.2999	0.4435	0.5593	0.4639	-0.5247
5.52	-9.4581	0.1823	0.0271	0.1253	-0.0698	0.0016	34.2067	19.9587	0.3389	0.4434	0.5594	0.4633	-0.5252
5.53	-9.4216	0.2127	0.0235	0.1239	-0.0588	-0.0007	34.4679	20.0204	0.4071	0.4432	0.5596	0.4627	-0.5257
5.54	-9.4152	0.2674	0.0317	0.1293	-0.0495	0.0071	34.9583	20.1015	0.5497	0.4431	0.5598	0.4622	-0.5261
5.55	-9.4492	0.3012	0.0283	0.1273	-0.0355	0.0038	34.3860	20.1517	0.1878	0.4429	0.5600	0.4616	-0.5265
5.56	-9.4612	0.3470	0.0159	0.1287	-0.0318	0.0049	34.1251	20.0295	0.0198	0.4426	0.5603	0.4611	-0.5268
5.57	-9.4484	0.4007	0.0302	0.1241	-0.0288	0.0066	33.9375	20.1438	0.0768	0.4424	0.5605	0.4606	-0.5272
5.58	-9.4696	0.4365	0.0250	0.1127	-0.0253	0.0135	34.0417	19.9423	-0.0775	0.4422	0.5608	0.4601	-0.5275
5.59	-9.4805	0.4847	0.0406	0.1019	-0.0194	0.0119	34.4068	19.7071	0.0641	0.4421	0.5610	0.4596	-0.5278
5.6	-9.5184	0.4894	0.0456	0.0979	-0.0235	0.0100	34.2256	19.5365	0.0157	0.4419	0.5612	0.4592	-0.5281
5.61	-9.5311	0.5142	0.0656	0.0796	-0.0260	0.0055	34.2747	19.6786	-0.1551	0.4418	0.5614	0.4588	-0.5283
5.62	-9.5091	0.5302	0.0667	0.0613	-0.0297	0.0039	34.3582	19.7596	-0.0671	0.4417	0.5615	0.4585	-0.5286
5.63	-9.4854	0.5357	0.0561	0.0512	-0.0235	-0.0028	34.0897	19.6975	-0.2202	0.4417	0.5616	0.4582	-0.5288
5.64	-9.4737	0.5274	0.0437	0.0275	-0.0201	-0.0076	34.0467	19.4356	-0.0966	0.4417	0.5617	0.4580	-0.5289
5.65	-9.4833	0.5063	0.0300	0.0199	-0.0132	-0.0127	34.3321	19.6293	-0.0182	0.4417	0.5617	0.4578	-0.5290
5.66	-9.4662	0.4991	0.0295	0.0015	-0.0104	-0.0206	34.3144	19.9438	-0.3440	0.4417	0.5617	0.4577	-0.5291
5.67	-9.4540	0.4827	0.0288	-0.0066	-0.0094	-0.0226	34.1456	19.5855	-0.1987	0.4417	0.5616	0.4577	-0.5292
5.68	-9.4874	0.4610	0.0098	-0.0225	0.0087	-0.0339	34.2694	19.8972	-0.2111	0.4417	0.5616	0.4577	-0.5292
5.69	-9.4955	0.4552	0.0174	-0.0316	0.0131	-0.0308	34.1181	20.1101	-0.2124	0.4417	0.5615	0.4578	-0.5292
5.7	-9.5234	0.4403	0.0147	-0.0421	0.0282	-0.0329	34.2544	19.9448	-0.2220	0.4417	0.5614	0.4580	-0.5291
5.71	-9.5406	0.4241	-0.0050	-0.0559	0.0237	-0.0324	34.1823	20.0484	-0.1365	0.4418	0.5614	0.4582	-0.5290
5.72	-9.5044	0.4013	-0.0029	-0.0648	0.0239	-0.0329	34.1408	19.8445	0.0230	0.4419	0.5612	0.4584	-0.5288
5.73	-9.4908	0.3647	-0.0250	-0.0715	0.0252	-0.0332	34.2159	20.0156	0.0579	0.4419	0.5611	0.4586	-0.5287
5.74	-9.4802	0.3408	-0.0429	-0.0794	0.0311	-0.0344	34.2923	19.9029	-0.1557	0.4421	0.5610	0.4589	-0.5285
5.75	-9.4820	0.3023	-0.0594	-0.0803	0.0427	-0.0413	34.0517	20.0232	0.0100	0.4421	0.5609	0.4592	-0.5283
5.76	-9.5023	0.2526	-0.0827	-0.0826	0.0388	-0.0450	34.0857	20.1961	-0.0897	0.4422	0.5607	0.4595	-0.5281
5.77	-9.5124	0.2055	-0.0950	-0.0866	0.0528	-0.0417	34.0871	19.6146	-0.0819	0.4422	0.5606	0.4599	-0.5279
5.78	-9.5278	0.1629	-0.1164	-0.0853	0.0543	-0.0409	34.3788	19.7653	0.0896	0.4423	0.5605	0.4602	-0.5276
5.79	-9.5266	0.1141	-0.1328	-0.0828	0.0531	-0.0421	34.2044	19.6040	0.0686	0.4423	0.5604	0.4606	-0.5274
5.8	-9.5426	0.0876	-0.1453	-0.0772	0.0557	-0.0377	34.1782	19.5824	0.2319	0.4424	0.5604	0.4609	-0.5271
5.81	-9.5613	0.0624	-0.1582	-0.0571	0.0533	-0.0348	34.3460	19.7239	0.2847	0.4424	0.5603	0.4612	-0.5269
5.82	-9.5726	0.0620	-0.1597	-0.0511	0.0581	-0.0335	34.3551	19.9282	0.1381	0.4423	0.5603	0.4614	-0.5267
5.83	-9.6224	0.0684	-0.1731	-0.0413	0.0582	-0.0242	34.3176	19.9091	0.0612	0.4423	0.5604	0.4616	-0.5265
5.84	-9.6258	0.0848	-0.1791	-0.0282	0.0435	-0.0256	34.2301	19.9312	0.0491	0.4423	0.5604	0.4618	-0.5264
5.85	-9.6091	0.1019	-0.1833	-0.0208	0.0464	-0.0203	34.2830	19.8332	0.1544	0.4422	0.5605	0.4619	-0.5263
5.86	-9.5733	0.1070	-0.1982	-0.0043	0.0377	-0.0122	34.0391	19.8155	0.2566	0.4421	0.5606	0.4619	-0.5262
5.87	-9.5627	0.1243	-0.1921	-0.0044	0.0426	-0.0119	33.9606	20.2651	0.2706	0.4421	0.5607	0.4619	-0.5261
5.88	-9.6082	0.1453	-0.2017	0.0066	0.0390	-0.0119	34.0571	20.1985	0.3746	0.4420	0.5608	0.4620	-0.5260
5.89	-9.5970	0.1660	-0.1752	0.0225	0.0330	-0.0108	34.1745	20.1805	0.2283	0.4418	0.5610	0.4619	-0.5260
5.9	-9.6120	0.1881	-0.1845	0.0201	0.0402	-0.0063	34.0669	20.0487	0.2501	0.4417	0.5612	0.4618	-0.5260
5.91	-9.6059	0.2113	-0.1663	0.0334	0.0267	-0.0139	34.0479	19.8328	0.2544	0.4416	0.5613	0.4618	-0.5260
5.92	-9.6011	0.2273	-0.1688	0.0426	0.0184	-0.0166	33.9271	20.0915	0.2369	0.4414	0.5615	0.4616	-0.5261
5.93	-9.5719	0.2557	-0.1568	0.0436	0.0158	-0.0141	34.2419	20.1885	0.2570	0.4413	0.5616	0.4615	-0.5262
5.94	-9.5744	0.2797	-0.1490	0.0444	0.0073	-0.0183	34.0758	19.9168	0.3608	0.4411	0.5617	0.4613	-0.5263
5.95	-9.5515	0.2981	-0.1349	0.0444	0.0013	-0.0302	34.1582	19.9282	0.3354	0.4410	0.5618	0.4612	-0.5265
5.96	-9.5673	0.3080	-0.1205	0.0496	0.0058	-0.0312	34.1335	19.8392	0.3554	0.4408	0.5619	0.4611	-0.5267
5.97	-9.5554	0.3243	-0.1220	0.0451	-0.0082	-0.0317	34.3494	19.7003	0.1229	0.4406	0.5620	0.4609	-0.5269
5.98	-9.5389	0.3191	-0.0947	0.0479	-0.0017	-0.0378	34.5256	19.8004	0.0146	0.4404	0.5620	0.4608	-0.5271
5.99	-9.5415	0.3095	-0.1020	0.0447	0.0003	-0.0432	34.1236	19.8337	-0.0514	0.4402	0.5621	0.4607	-0.5273
6	-9.5411	0.3191	-0.0877	0.0400	-0.0011	-0.0531	34.1782	19.8264	0.0821	0.4400	0.5621	0.4606	-0.5275
6.01	-9.5845	0.3222	-0.0996	0.0377	0.0007	-0.0576	34.2978	19.8173	0.1997	0.4398	0.5621	0.4606	-0.5277
6.02	-9.5594	0.3140	-0.0888	0.0240	-0.0071	-0.0579	34.3765	19.8732	0.3085	0.4397	0.5620	0.4605	-0.5279
6.03	-9.5350	0.2992	-0.0901	0.0237	-0.0088	-0.0565	34.6699	20.0172	0.4504	0.4395	0.5620	0.4605	-0.5281
6.04	-9.5325	0.2725	-0.0944	0.0220	-0.0138	-0.0625	35.2174	20.0418	0.4153	0.4394	0.5619	0.4605	-0.5283
6.05	-9.5128	0.2484	-0.0823	0.0132	0.0003	-0.0630	34.4339	20.0573	0.1685	0.4393	0.5618	0.4606	-0.5285
6.06	-9.5136	0.2242	-0.0754	-0.0041	-0.0036	-0.0635	34.0645	20.0589	0.0028	0.4392	0.5616	0.4607	-0.5287
6.07	-9.5291	0.2031	-0.0779	-0.0043	-0.0017	-0.0597	33.7893	20.1720	0.1568	0.4391	0.5615	0.4607	-0.5288
6.08	-9.5470	0.1802	-0.0701	-0.0105	0.0005	-0.0560	33.6981	20.2260	0.3722	0.4390	0.5614	0.4608	-0.5289
6.09	-9.5749	0.1539	-0.0748	-0.0047	-0.0083	-0.0540	33.8171	20.0091	0.2798	0.4389	0.5613	0.4609	-0.5290
6.1	-9.5445	0.1393	-0.0595	-0.0114	-0.0029	-0.0535	34.1241	20.1401	0.1224	0.4389	0.5612	0.4609	-0.5291
6.11	-9.5356	0.1069	-0.0522	-0.0205	-0.0050	-0.0496	33.9749	20.0964	0.2686	0.4388	0.5611	0.4610	-0.5292
6.12	-9.5312	0.0973	-0.0480	-0.0212	-0.0109	-0.0431	33.7411	19.9119	0.3386	0.4389	0.5610	0.4610	-0.5293
6.13	-9.5346	0.0790	-0.0426	-0.0193	-0.0012	-0.0449	33.7571	19.9461	0.0907	0.4388	0.5609	0.4611	-0.5294
6.14	-9.5265	0.0667	-0.0375	-0.0080	-0.0146	-0.0361	34.0481	20.0348	-0.0705	0.4388	0.5608	0.4611	-0.5295
6.15	-9.5219	0.0572	-0.0264	-0.0131	-0.0152	-0.0317	33.9503	20.1336	0.0009	0.4389	0.5607	0.4611	-0.5296
6.16	-9.5241	0.0514	-0.0200	-0.0069	-0.0102	-0.0341	33.9434	19.9780	0.0441	0.4389	0.5606	0.4611	-0.5297
6.17	-9.5083	0.0509	-0.0139	-0.0030	-0.0036	-0.0254	34.0797	20.1355	-0.1801	0.4389	0.5605	0.4611	-0.5297
6.18	-9.4965	0.0626	-0.0119	-0.0045	-0.0057	-0.0221	34.2277	20.1219	0.1883	0.4389	0.5605	0.4610	-0.5298
6.19	-9.4932	0.0695	-0.0000	-0.0032	0.0007	-0.0219	33.9544	19.8671	0.1341	0.4389	0.5605	0.4610	-0.5299
6.2	-9.4789	0.0667	-0.0039	-0.0046	0.0111	-0.0186	33.7728	20.0698	0.1583	0.4389	0.5605	0.4609	-0.5299
6.21	-9.4734	0.0894	-0.0023	-0.0043	0.0174	-0.0164	33.8545	19.9034	0.0657	0.4388	0.5606	0.4609	-0.5299
6.22	-9.4941	0.0814	-0.0168	-0.0039	0.0181	-0.0189	33.6974	20.1239	0.0204	0.4388	0.5606	0.4609	-0.5298
6.23	-9.5074	0.0925	-0.0204	0.0032	0.0204	-0.0104	34.0934	20.0074	0.1325	0.4388	0.5607	0.4609	-0.5298
6.24	-9.5334	0.1070	-0.0335	0.0083	0.0213	-0.0088	34.0273	20.0358	0.3717	0.4387	0.5608	0.4608	-0.5298
6.25	-9.5438	0.1228	-0.0397	0.0022	0.0248	-0.0172	33.9062	20.3689	0.2021	0.4386	0.5609	0.4608	-0.5298
6.26	-9.5405	0.1327	-0.0494	0.0110	0.0277	-0.0187	33.7748	20.0016	0.1328	0.4385	0.5609	0.4608	-0.5298
6.27	-9.5459	0.1411	-0.0586	0.0124	0.0315	-0.0211	33.7396	20.0999	0.3542	0.4384	0.5611	0.4608	-0.5298
6.28	-9.5401	0.1479	-0.0691	-0.0047	0.0318	-0.0155	34.0280	20.2061	0.2205	0.4384	0.5611	0.4608	-0.5297
6.29	-9.5418	0.1501	-0.0685	0.0004	0.0326	-0.0256	34.0913	20.2322	0.2572	0.4383	0.5612	0.4609	-0.5297
6.3	-9.5548	0.1622	-0.0875	0.0048	0.0367	-0.0235	33.9581	20.1708	0.3286	0.4382	0.5613	0.4609	-0.5297
6.31	-9.5718	0.1544	-0.1025	0.0020	0.0382	-0.0209	33.8290	20.0893	0.1173	0.4380	0.5614	0.4609	-0.5296
6.32	-9.5929	0.1533	-0.1086	0.0011	0.0351	-0.0256	33.8159	20.2354	0.2305	0.4379	0.5615	0.4610	-0.5296
6.33	-9.6041	0.1457	-0.1116	-0.0034	0.0252	-0.0317	34.0722	20.0799	0.5057	0.4379	0.5615	0.4610	-0.5296
6.34	-9.5998	0.1440	-0.1283	-0.0066	0.0238	-0.0318	34.1080	20.1846	0.2747	0.4378	0.5616	0.4611	-0.5296
6.35	-9.5890	0.1572	-0.1276	-0.0059	0.0221	-0.0329	34.0238	19.9358	0.2306	0.4377	0.5616	0.4611	-0.5296
6.36	-9.6288	0.1622	-0.1305	-0.0132	0.0224	-0.0325	33.8720	19.9677	0.2273	0.4376	0.5616	0.4612	-0.5295
6.37	-9.6438	0.1440	-0.1168	-0.0213	0.0222	-0.0321	34.1128	20.0343	0.2851	0.4376	0.5616	0.4613	-0.5295
6.38	-9.6631	0.1329	-0.1120	-0.0211	0.0173	-0.0325	33.9701	19.8844	0.3336	0.4376	0.5615	0.4613	-0.5295
6.39	-9.6470	0.1276	-0.1183	-0.0268	0.0085	-0.0329	33.7919	20.1562	0.4296	0.4376	0.5615	0.4614	-0.5295
6.4	-9.6190	0.1349	-0.1111	-0.0297	0.0016	-0.0306	33.9566	20.1033	0.2757	0.4376	0.5614	0.4615	-0.5295
6.41	-9.5490	0.1356	-0.1180	-0.0284	-0.0030	-0.0308	33.6969	19.9896	0.0773	0.4377	0.5613	0.4615	-0.5295
6.42	-9.5071	0.1422	-0.0923	-0.0292	0.0102	-0.0186	33.8797	20.1297	0.2549	0.4377	0.5613	0.4616	-0.5295
6.43	-9.5485	0.1356	-0.1110	-0.0322	0.0125	-0.0117	34.1373	20.2008	0.2158	0.4378	0.5612	0.4616	-0.5294
6.44	-9.5123	0.1199	-0.0821	-0.0306	0.0210	-0.0101	33.9252	20.2632	0.3995	0.4379	0.5612	0.4617	-0.5293
6.45	-9.5612	0.1093	-0.0840	-0.0309	0.0345	-0.0083	33.9224	20.2718	0.4011	0.4379	0.5613	0.4617	-0.5291
6.46	-9.5693	0.1099	-0.0953	-0.0301	0.0417	-0.0067	33.8980	20.0980	0.5207	0.4379	0.5614	0.4618	-0.5290
6.47	-9.5460	0.0995	-0.0809	-0.0316	0.0389	-0.0074	33.9452	20.2467	0.4944	0.4379	0.5614	0.4619	-0.5288
6.48	-9.6174	0.1227	-0.1122	-0.0232	0.0407	-0.0053	34.0114	20.0268	0.3877	0.4379	0.5615	0.4620	-0.5287
6.49	-9.5951	0.1414	-0.1149	-0.0170	0.0210	-0.0066	34.0196	20.0994	0.4631	0.4380	0.5616	0.4620	-0.5286
6.5	-9.5748	0.1769	-0.0960	-0.0110	0.0179	-0.0079	33.8860	20.2414	0.1920	0.4380	0.5616	0.4620	-0.5285
6.51	-9.6066	0.2114	-0.1109	-0.0031	0.0174	-0.0015	33.9678	20.0543	0.4015	0.4380	0.5617	0.4619	-0.5285
6.52	-9.5910	0.2521	-0.0919	-0.0049	0.0153	0.0012	34.1760	20.0714	0.4186	0.4380	0.5618	0.4619	-0.5284
6.53	-9.5789	0.2744	-0.0946	-0.0050	0.0106	-0.0077	34.3082	20.2371	0.4420	0.4380	0.5618	0.4618	-0.5284
6.54	-9.5667	0.2750	-0.1146	-0.0030	0.0091	-0.0070	34.7919	20.2313	0.2668	0.4381	0.5619	0.4618	-0.5284
6.55	-9.5090	0.3015	-0.1141	-0.0014	0.0061	-0.0073	34.4047	20.1511	0.4634	0.4381	0.5619	0.4617	-0.5284
6.56	-9.4756	0.3022	-0.1147	-0.0011	0.0058	-0.0082	34.2492	20.3519	0.3534	0.4381	0.5619	0.4617	-0.5284
6.57	-9.4895	0.3155	-0.1360	0.0004	0.0085	-0.0158	34.1892	20.1261	0.4989	0.4381	0.5620	0.4616	-0.5284
6.58	-9.4807	0.3161	-0.1384	-0.0045	0.0092	-0.0235	34.1000	19.9689	0.6746	0.4381	0.5620	0.4616	-0.5284
6.59	-9.4942	0.3090	-0.1564	-0.0150	0.0124	-0.0333	34.1272	20.0659	0.3515	0.4380	0.5619	0.4617	-0.5284
6.6	-9.5514	0.3246	-0.1598	-0.0197	0.0178	-0.0313	33.8165	20.1289	0.4013	0.4380	0.5619	0.4617	-0.5284
6.61	-9.5638	0.3050	-0.1524	-0.0317	0.0114	-0.0369	33.9939	19.9515	0.3811	0.4380	0.5618	0.4618	-0.5284
6.62	-9.5570	0.2822	-0.1401	-0.0362	0.0097	-0.0453	33.8682	20.0986	0.3830	0.4380	0.5617	0.4620	-0.5284
6.63	-9.5916	0.2525	-0.1250	-0.0505	0.0020	-0.0523	33.9220	20.2157	0.3997	0.4380	0.5616	0.4622	-0.5284
6.64	-9.5990	0.2027	-0.1260	-0.0556	-0.0068	-0.0549	33.9461	20.1555	0.2773	0.4381	0.5613	0.4623	-0.5284
6.65	-9.5769	0.1861	-0.0947	-0.0568	-0.0032	-0.0511	33.9728	20.4239	0.3066	0.4382	0.5611	0.4625	-0.5284
6.66	-9.5633	0.1361	-0.1054	-0.0570	-0.0116	-0.0560	33.8535	20.2860	0.5952	0.4383	0.5609	0.4627	-0.5284
6.67	-9.5123	0.1234	-0.0792	-0.0716	-0.0097	-0.0589	33.7042	20.2546	0.4752	0.4384	0.5606	0.4629	-0.5284
6.68	-9.5080	0.0823	-0.1004	-0.0678	-0.0038	-0.0583	34.0052	20.3782	0.4626	0.4385	0.5604	0.4632	-0.5284
6.69	-9.4549	0.0493	-0.0698	-0.0555	-0.0021	-0.0595	33.9024	20.2086	0.6212	0.4385	0.5602	0.4634	-0.5284
6.7	-9.4890	0.0370	-0.1033	-0.0552	0.0113	-0.0508	34.0267	20.1817	0.4740	0.4386	0.5600	0.4636	-0.5284
6.71	-9.4442	0.0128	-0.0881	-0.0518	0.0070	-0.0452	34.0423	20.1207	0.4939	0.4386	0.5599	0.4638	-0.5283
6.72	-9.5146	0.0094	-0.0838	-0.0478	0.0146	-0.0457	33.9242	19.9483	0.4417	0.4386	0.5597	0.4639	-0.5283
6.73	-9.5755	-0.0142	-0.1004	-0.0388	0.0125	-0.0425	33.9536	20.1100	0.4113	0.4386	0.5596	0.4641	-0.5283
6.74	-9.6391	-0.0260	-0.0787	-0.0353	0.0145	-0.0424	33.9427	20.2364	0.5060	0.4386	0.5595	0.4642	-0.5282
6.75	-9.6792	-0.0408	-0.1121	-0.0329	-0.0021	-0.0364	33.9452	19.9654	0.4601	0.4387	0.5594	0.4643	-0.5282
6.76	-9.6023	-0.0424	-0.0888	-0.0289	-0.0138	-0.0361	33.9540	20.1620	0.4931	0.4387	0.5593	0.4644	-0.5283
6.77	-9.5692	-0.0540	-0.0997	-0.0310	-0.0181	-0.0345	34.1109	20.3904	0.4342	0.4388	0.5591	0.4644	-0.5284
6.78	-9.5193	-0.0473	-0.0866	-0.0239	-0.0227	-0.0356	33.8230	20.1967	0.2353	0.4389	0.5590	0.4644	-0.5284
6.79	-9.5044	-0.0629	-0.0788	-0.0217	-0.0273	-0.0331	33.8983	20.0579	0.6777	0.4390	0.5588	0.4644	-0.5285
6.8	-9.5015	-0.0699	-0.0832	-0.0104	-0.0207	-0.0290	33.9147	20.1402	0.4193	0.4390	0.5587	0.4644	-0.5286
6.81	-9.5057	-0.0570	-0.0870	-0.0038	-0.0103	-0.0263	33.8371	20.2531	0.4488	0.4390	0.5587	0.4643	-0.5287
6.82	-9.4986	-0.0635	-0.0843	-0.0030	-0.0141	-0.0163	33.8707	20.2926	0.4620	0.4391	0.5586	0.4642	-0.5288
6.83	-9.4977	-0.0814	-0.0946	0.0008	-0.0096	-0.0075	33.5032	20.3454	0.5228	0.4391	0.5586	0.4641	-0.5289
6.84	-9.4923	-0.1006	-0.1111	0.0114	-0.0067	-0.0053	33.8675	20.2347	0.6988	0.4391	0.5587	0.4640	-0.5289
6.85	-9.4790	-0.1083	-0.1120	0.0186	-0.0009	-0.0055	33.7769	20.3488	0.6533	0.4391	0.5588	0.4639	-0.5290
6.86	-9.5216	-0.0941	-0.1223	0.0284	0.0059	0.0015	33.7625	20.4791	0.5299	0.4390	0.5589	0.4637	-0.5290
6.87	-9.5851	-0.0671	-0.1104	0.0317	0.0114	0.0069	33.7763	20.3876	0.3368	0.4390	0.5590	0.4635	-0.5291
6.88	-9.6370	-0.0649	-0.1153	0.0421	0.0101	0.0114	33.7583	20.3935	0.6124	0.4389	0.5592	0.4633	-0.5291
6.89	-9.6233	-0.0264	-0.0986	0.0491	-0.0022	0.0182	33.8392	20.5033	0.4378	0.4389	0.5594	0.4630	-0.5292
6.9	-9.6294	0.0173	-0.0977	0.0506	-0.0085	0.0161	34.2380	20.1519	0.3918	0.4388	0.5596	0.4627	-0.5293
6.91	-9.6154	0.0516	-0.0766	0.0485	-0.0146	0.0178	33.9429	20.1134	0.5255	0.4388	0.5598	0.4624	-0.5294
6.92	-9.6060	0.0847	-0.0688	0.0567	-0.0214	0.0131	33.7964	19.9934	0.3722	0.4388	0.5599	0.4621	-0.5296
6.93	-9.5886	0.1070	-0.0596	0.0529	-0.0313	0.0164	34.0834	20.0404	0.4930	0.4388	0.5600	0.4617	-0.5298
6.94	-9.5753	0.1294	-0.0520	0.0474	-0.0280	0.0078	34.0000	20.1877	0.4640	0.4388	0.5601	0.4614	-0.5299
6.95	-9.5236	0.1475	-0.0378	0.0504	-0.0344	0.0001	33.8864	20.0578	0.2819	0.4388	0.5602	0.4611	-0.5301
6.96	-9.5063	0.1450	-0.0278	0.0509	-0.0352	-0.0037	34.1559	20.1113	0.3166	0.4388	0.5603	0.4608	-0.5304
6.97	-9.5123	0.1441	-0.0092	0.0471	-0.0387	-0.0073	34.0816	19.9921	0.2514	0.4387	0.5603	0.4605	-0.5306
6.98	-9.4732	0.1358	0.0055	0.0476	-0.0428	-0.0074	34.0555	20.1415	0.2337	0.4387	0.5603	0.4602	-0.5308
6.99	-9.4296	0.1227	0.0160	0.0467	-0.0379	-0.0161	33.8844	20.0433	0.3167	0.4387	0.5603	0.4599	-0.5311
7	-9.4104	0.1147	0.0164	0.0490	-0.0220	-0.0231	33.8423	20.3129	0.2821	0.4386	0.5604	0.4597	-0.5313
7.01	-9.3718	0.0955	0.0055	0.0459	-0.0091	-0.0309	33.9791	20.2286	0.2772	0.4384	0.5604	0.4595	-0.5315
7.02	-9.3512	0.0867	-0.0064	0.0581	-0.0054	-0.0310	33.9455	20.1567	0.3508	0.4382	0.5605	0.4594	-0.5318
7.03	-9.3873	0.0844	-0.0050	0.0717	0.0137	-0.0349	34.2814	20.2589	0.4006	0.4380	0.5607	0.4592	-0.5320
7.04	-9.4741	0.0768	-0.0291	0.0757	0.0222	-0.0447	34.8174	20.4346	0.3686	0.4377	0.5608	0.4591	-0.5321
7.05	-9.4703	0.0880	-0.0203	0.0763	0.0339	-0.0439	34.1765	20.2827	-0.0258	0.4373	0.5610	0.4590	-0.5323
7.06	-9.5014	0.1046	-0.0276	0.0957	0.0480	-0.0492	33.9951	20.3271	-0.0082	0.4369	0.5613	0.4589	-0.5325
7.07	-9.5139	0.1265	-0.0582	0.0931	0.0428	-0.0518	33.6783	20.3414	0.2289	0.4364	0.5615	0.4588	-0.5327
7.08	-9.4825	0.1695	-0.0603	0.0718	0.0436	-0.0371	34.0888	20.2890	0.0062	0.4360	0.5617	0.4587	-0.5329
7.09	-9.4741	0.1914	-0.0856	0.0760	0.0517	-0.0370	34.0083	20.0682	0.0148	0.4357	0.5620	0.4586	-0.5330
7.1	-9.5051	0.2104	-0.0933	0.0638	0.0557	-0.0360	33.9696	20.0588	-0.0468	0.4353	0.5623	0.4585	-0.5330
7.11	-9.5472	0.2218	-0.1332	0.0505	0.0632	-0.0332	34.1626	20.3661	0.2584	0.4350	0.5625	0.4585	-0.5331
7.12	-9.5670	0.2402	-0.1519	0.0364	0.0675	-0.0316	33.9562	20.2144	0.1955	0.4346	0.5628	0.4585	-0.5330
7.13	-9.6411	0.2554	-0.1667	0.0179	0.0662	-0.0309	34.1256	20.0074	0.0461	0.4344	0.5630	0.4586	-0.5330
7.14	-9.6621	0.2639	-0.1879	0.0096	0.0599	-0.0276	34.1157	20.1232	0.1249	0.4342	0.5631	0.4587	-0.5329
7.15	-9.6505	0.2614	-0.1930	-0.0187	0.0539	-0.0270	33.8896	20.1173	-0.1711	0.4341	0.5632	0.4588	-0.5327
7.16	-9.6527	0.2538	-0.2296	-0.0318	0.0472	-0.0153	33.8182	20.4496	0.1619	0.4341	0.5633	0.4590	-0.5326
7.17	-9.6579	0.2470	-0.2375	-0.0493	0.0379	-0.0170	33.9350	20.1312	0.1550	0.4341	0.5633	0.4591	-0.5324
7.18	-9.6791	0.2311	-0.2617	-0.0571	0.0291	-0.0110	34.0286	20.1111	0.4117	0.4342	0.5633	0.4593	-0.5322
7.19	-9.6837	0.2157	-0.2612	-0.0723	0.0239	-0.0119	33.9159	20.1122	0.4389	0.4343	0.5632	0.4594	-0.5320
7.2	-9.7006	0.2037	-0.2636	-0.0748	0.0177	-0.0092	33.9406	20.1701	0.1064	0.4345	0.5631	0.4596	-0.5318
7.21	-9.6946	0.1678	-0.2445	-0.0784	-0.0084	-0.0080	33.9544	20.2387	0.3999	0.4348	0.5630	0.4597	-0.5317
7.22	-9.6954	0.1692	-0.2549	-0.0818	-0.0154	-0.0096	33.7979	20.0639	0.3281	0.4351	0.5628	0.4598	-0.5315
7.23	-9.6021	0.1588	-0.2264	-0.0745	-0.0359	-0.0109	33.7802	20.3672	0.1054	0.4354	0.5626	0.4599	-0.5315
7.24	-9.5733	0.1431	-0.2120	-0.0736	-0.0294	-0.0166	33.9451	20.5492	0.2802	0.4356	0.5623	0.4599	-0.5314
7.25	-9.5844	0.1569	-0.2054	-0.0602	-0.0324	-0.0280	33.9530	20.2208	0.2539	0.4359	0.5621	0.4600	-0.5315
7.26	-9.5712	0.1579	-0.1563	-0.0567	-0.0383	-0.0307	33.8987	20.2570	0.3012	0.4361	0.5619	0.4601	-0.5315
7.27	-9.6291	0.1553	-0.1486	-0.0606	-0.0426	-0.0372	33.8629	20.2579	0.3977	0.4363	0.5616	0.4601	-0.5316
7.28	-9.6696	0.1403	-0.1243	-0.0557	-0.0478	-0.0368	34.0722	20.1174	0.2762	0.4365	0.5613	0.4602	-0.5316
7.29	-9.6944	0.1217	-0.1127	-0.0532	-0.0497	-0.0426	33.8824	20.0909	0.1570	0.4367	0.5610	0.4602	-0.5318
7.3	-9.6583	0.1228	-0.0908	-0.0539	-0.0643	-0.0467	33.8631	20.0412	0.2152	0.4369	0.5607	0.4603	-0.5319
7.31	-9.6282	0.1150	-0.0660	-0.0548	-0.0757	-0.0436	34.0419	20.1959	0.3641	0.4371	0.5603	0.4603	-0.5321
7.32	-9.5571	0.0979	-0.0603	-0.0556	-0.0889	-0.0446	33.9458	20.3144	0.3652	0.4374	0.5599	0.4603	-0.5323
7.33	-9.4560	0.0857	-0.0260	-0.0523	-0.0905	-0.0449	33.7962	20.3698	0.3505	0.4377	0.5595	0.4602	-0.5325
7.34	-9.4573	0.0671	-0.0333	-0.0519	-0.0772	-0.0430	33.9471	20.0823	0.1893	0.4379	0.5591	0.4602	-0.5327
7.35	-9.4441	0.0652	-0.0336	-0.0558	-0.0781	-0.0438	33.8437	20.1955	0.1786	0.4382	0.5587	0.4602	-0.5329
7.36	-9.4283	0.0513	-0.0097	-0.0536	-0.0689	-0.0426	33.8728	20.3162	0.1689	0.4384	0.5584	0.4602	-0.5331
7.37	-9.4380	0.0184	-0.0212	-0.0514	-0.0528	-0.0395	33.9327	20.5463	0.3341	0.4386	0.5581	0.4602	-0.5332
7.38	-9.4338	0.0124	0.0113	-0.0382	-0.0433	-0.0513	34.0309	20.5702	0.0988	0.4388	0.5578	0.4603	-0.5334
7.39	-9.4531	0.0119	-0.0249	-0.0290	-0.0393	-0.0407	33.9254	20.4724	0.0729	0.4389	0.5576	0.4603	-0.5335
7.4	-9.3762	0.0032	0.0255	-0.0302	-0.0349	-0.0359	33.9831	20.3429	0.1881	0.4390	0.5574	0.4603	-0.5336
7.41	-9.4442	-0.0105	0.0008	-0.0280	-0.0124	-0.0351	33.9893	20.4417	0.2078	0.4390	0.5573	0.4603	-0.5337
7.42	-9.4232	0.0012	0.0077	-0.0242	-0.0128	-0.0322	33.9406	20.4910	0.3163	0.4391	0.5572	0.4604	-0.5337
7.43	-9.4236	0.0069	0.0112	-0.0155	0.0086	-0.0324	33.8212	20.3605	0.0303	0.4391	0.5571	0.4604	-0.5337
7.44	-9.4435	-0.0203	-0.0134	-0.0126	0.0128	-0.0321	33.7837	20.3863	0.1281	0.4390	0.5571	0.4605	-0.5337
7.45	-9.4449	-0.0009	0.0173	-0.0044	0.0193	-0.0278	33.8600	20.3760	0.2080	0.4390	0.5571	0.4605	-0.5337
7.46	-9.5335	0.0092	0.0089	-0.0037	0.0267	-0.0239	33.9269	20.3828	0.0693	0.4389	0.5572	0.4605	-0.5337
7.47	-9.5373	-0.0090	-0.0226	-0.0046	0.0304	-0.0159	34.1527	20.3793	0.0953	0.4388	0.5573	0.4606	-0.5337
7.48	-9.5330	0.0030	-0.0191	0.0001	0.0239	-0.0243	33.7974	20.2178	0.0623	0.4387	0.5573	0.4606	-0.5336
7.49	-9.5370	0.0026	-0.0679	0.0059	0.0176	-0.0262	33.9551	20.2020	0.1776	0.4386	0.5574	0.4606	-0.5337
7.5	-9.5189	0.0110	-0.0298	0.0125	0.0240	-0.0173	33.8422	20.1954	0.0888	0.4386	0.5575	0.4606	-0.5337
7.51	-9.5925	0.0118	-0.0972	0.0113	0.0308	-0.0201	33.7198	20.3507	0.0719	0.4384	0.5576	0.4605	-0.5336
7.52	-9.5248	0.0044	-0.0817	0.0220	0.0153	-0.0315	33.8513	20.5686	0.1072	0.4383	0.5576	0.4605	-0.5337
7.53	-9.5116	0.0150	-0.1304	0.0193	0.0202	-0.0301	34.1941	20.5447	0.3682	0.4382	0.5577	0.4605	-0.5338
7.54	-9.4462	0.0194	-0.1114	0.0295	0.0189	-0.0304	34.6082	20.6087	0.3518	0.4380	0.5578	0.4605	-0.5338
7.55	-9.4960	0.0360	-0.1121	0.0354	0.0479	-0.0294	34.1272	20.5982	-0.0292	0.4378	0.5580	0.4605	-0.5338
7.56	-9.5626	0.0703	-0.1021	0.0333	0.0490	-0.0303	33.9501	20.6072	-0.2417	0.4375	0.5581	0.4605	-0.5338
7.57	-9.6208	0.0795	-0.1276	0.0299	0.0531	-0.0268	33.5020	20.5607	0.3737	0.4373	0.5583	0.4605	-0.5338
7.58	-9.5896	0.0469	-0.1461	0.0252	0.0486	-0.0271	33.6928	20.6758	0.2946	0.4371	0.5585	0.4605	-0.5338
7.59	-9.5924	0.0556	-0.1320	0.0310	0.0369	-0.0287	33.7565	20.6661	-0.0299	0.4369	0.5587	0.4605	-0.5338
7.6	-9.5934	0.0473	-0.1232	0.0205	0.0314	-0.0256	33.6532	20.5914	-0.0008	0.4367	0.5588	0.4605	-0.5338
7.61	-9.6761	0.0645	-0.1243	0.0222	0.0406	-0.0237	33.8000	20.6356	0.1173	0.4365	0.5589	0.4605	-0.5338
7.62	-9.7111	0.0416	-0.1673	0.0190	0.0267	-0.0202	33.5050	20.4592	0.0433	0.4364	0.5591	0.4604	-0.5338
7.63	-9.6251	0.0450	-0.1151	0.0206	0.0053	-0.0117	33.7254	20.4243	0.0266	0.4363	0.5592	0.4603	-0.5339
7.64	-9.6992	0.0645	-0.1311	0.0147	0.0019	-0.0062	33.5535	20.5429	0.2388	0.4363	0.5592	0.4602	-0.5339
7.65	-9.6466	0.0647	-0.1341	0.0137	-0.0182	-0.0085	33.9953	20.2981	0.0187	0.4363	0.5592	0.4601	-0.5340
7.66	-9.6027	0.0303	-0.1109	0.0091	-0.0118	-0.0058	34.0069	20.2558	0.0604	0.4363	0.5593	0.4599	-0.5341
7.67	-9.5995	0.0350	-0.1305	0.0173	-0.0201	-0.0060	33.9298	20.2717	0.1278	0.4364	0.5593	0.4598	-0.5342
7.68	-9.5938	0.0365	-0.0873	0.0233	-0.0299	-0.0059	33.9659	20.3519	-0.0139	0.4364	0.5593	0.4596	-0.5344
7.69	-9.6344	0.0054	-0.1191	0.0140	-0.0371	-0.0063	33.9505	20.2466	0.1551	0.4364	0.5593	0.4594	-0.5345
7.7	-9.5596	-0.0033	-0.0794	0.0217	-0.0426	-0.0080	33.9485	20.2778	0.0175	0.4365	0.5592	0.4591	-0.5347
7.71	-9.5587	0.0006	-0.0847	0.0209	-0.0403	-0.0053	33.9746	20.2500	0.0113	0.4366	0.5592	0.4589	-0.5349
7.72	-9.4919	0.0172	-0.0629	0.0272	-0.0458	0.0030	33.8095	20.4948	-0.1123	0.4366	0.5592	0.4586	-0.5350
7.73	-9.4389	0.0193	-0.0445	0.0398	-0.0431	-0.0009	33.8075	20.2270	0.1126	0.4367	0.5592	0.4583	-0.5353
7.74	-9.4255	0.0367	-0.0248	0.0456	-0.0394	0.0050	33.8991	20.4169	0.0190	0.4367	0.5593	0.4580	-0.5355
7.75	-9.4657	0.0584	-0.0198	0.0479	-0.0233	0.0061	33.7599	20.5422	0.0004	0.4367	0.5594	0.4577	-0.5356
7.76	-9.4891	0.0782	-0.0302	0.0474	-0.0121	0.0019	33.7740	20.5404	-0.1415	0.4366	0.5595	0.4575	-0.5358
7.77	-9.4624	0.0979	-0.0334	0.0481	-0.0118	0.0022	33.5979	20.4678	-0.1942	0.4365	0.5597	0.4572	-0.5359
7.78	-9.4692	0.1126	-0.0436	0.0471	-0.0017	0.0003	33.5967	20.4270	-0.1863	0.4364	0.5598	0.4570	-0.5360
7.79	-9.4487	0.1285	-0.0510	0.0496	0.0090	-0.0071	33.5989	20.4414	-0.0594	0.4363	0.5600	0.4568	-0.5361
7.8	-9.4191	0.1421	-0.0427	0.0485	0.0127	-0.0024	33.5991	20.3046	-0.1357	0.4362	0.5602	0.4566	-0.5362
7.81	-9.4491	0.1688	-0.0424	0.0478	0.0312	0.0008	33.8561	20.4361	-0.1987	0.4360	0.5604	0.4564	-0.5362
7.82	-9.4592	0.1742	-0.0594	0.0486	0.0327	-0.0013	33.8762	20.4546	-0.1690	0.4358	0.5606	0.4563	-0.5362
7.83	-9.4747	0.1909	-0.0423	0.0470	0.0370	-0.0058	33.7360	20.2986	-0.1864	0.4356	0.5609	0.4561	-0.5363
7.84	-9.5568	0.2036	-0.0646	0.0483	0.0531	-0.0053	34.0307	20.0719	-0.3513	0.4354	0.5612	0.4560	-0.5362
7.85	-9.5698	0.2102	-0.0765	0.0436	0.0475	-0.0053	34.3042	20.1690	-0.3445	0.4352	0.5614	0.4559	-0.5362
7.86	-9.5644	0.2186	-0.0674	0.0313	0.0522	-0.0084	33.7429	20.1910	-0.3888	0.4350	0.5617	0.4559	-0.5362
7.87	-9.5919	0.2127	-0.1011	0.0256	0.0492	-0.0111	33.7299	20.1496	-0.1372	0.4348	0.5619	0.4559	-0.5361
7.88	-9.5226	0.2125	-0.1026	0.0229	0.0353	-0.0078	33.9596	20.2532	-0.1141	0.4347	0.5621	0.4558	-0.5361
7.89	-9.6084	0.2285	-0.0873	0.0150	0.0538	-0.0138	33.6120	20.2717	-0.2979	0.4345	0.5623	0.4558	-0.5360
7.9	-9.6365	0.2030	-0.1622	0.0094	0.0402	-0.0157	33.9935	20.1523	-0.1416	0.4344	0.5624	0.4558	-0.5359
7.91	-9.4683	0.2070	-0.1030	0.0081	0.0264	-0.0205	33.9820	20.1945	-0.1827	0.4343	0.5625	0.4558	-0.5359
7.92	-9.6294	0.1945	-0.1601	-0.0045	0.0466	-0.0198	33.7198	20.1556	-0.1746	0.4342	0.5626	0.4559	-0.5358
7.93	-9.5756	0.1755	-0.1206	-0.0043	0.0273	-0.0229	33.9065	20.2872	-0.1697	0.4341	0.5627	0.4559	-0.5358
7.94	-9.6432	0.1796	-0.1315	-0.0142	0.0423	-0.0245	33.9550	20.3842	0.0786	0.4340	0.5628	0.4560	-0.5357
7.95	-9.6471	0.1494	-0.1500	-0.0048	0.0243	-0.0178	33.7351	20.5227	-0.1002	0.4339	0.5629	0.4561	-0.5356
7.96	-9.6194	0.1586	-0.1384	-0.0200	0.0257	-0.0197	33.5693	20.5397	-0.0079	0.4339	0.5629	0.4561	-0.5356
7.97	-9.6253	0.1415	-0.1437	-0.0208	0.0144	-0.0126	33.6269	20.3101	0.0271	0.4339	0.5629	0.4561	-0.5355
7.98	-9.6114	0.1361	-0.1394	-0.0274	0.0092	-0.0091	33.8590	20.2284	-0.0378	0.4340	0.5629	0.4562	-0.5354
7.99	-9.5862	0.1255	-0.1342	-0.0095	0.0032	-0.0115	33.5947	20.3667	-0.1225	0.4340	0.5629	0.4561	-0.5354
8	-9.5949	0.1264	-0.1288	-0.0067	0.0040	-0.0098	33.5970	20.2444	0.0431	0.4341	0.5630	0.4561	-0.5354
8.01	-9.5608	0.1158	-0.1304	-0.0084	-0.0113	-0.0206	33.7109	20.1797	-0.1591	0.4341	0.5629	0.4561	-0.5354
8.02	-9.5533	0.1101	-0.1168	-0.0084	-0.0057	-0.0174	33.8988	20.3113	0.0710	0.4341	0.5629	0.4560	-0.5355
8.03	-9.5762	0.1115	-0.1243	-0.0008	-0.0075	-0.0125	34.4141	20.2387	0.0594	0.4341	0.5629	0.4559	-0.5355
8.04	-9.5612	0.1076	-0.1104	0.0012	-0.0166	-0.0117	34.7667	20.2339	-0.2536	0.4342	0.5629	0.4559	-0.5356
8.05	-9.5069	0.1017	-0.1044	0.0072	-0.0135	-0.0088	34.2229	20.3874	-0.2402	0.4342	0.5629	0.4558	-0.5356
8.06	-9.4925	0.1093	-0.0855	0.0022	-0.0130	-0.0038	34.0241	20.3084	-0.1456	0.4343	0.5629	0.4557	-0.5357
8.07	-9.5354	0.1208	-0.0932	0.0101	-0.0070	-0.0069	33.9979	20.4278	-0.1009	0.4343	0.5629	0.4555	-0.5357
8.08	-9.5050	0.1184	-0.0676	0.0002	-0.0111	-0.0072	34.1091	20.2216	-0.1177	0.4343	0.5629	0.4554	-0.5358
8.09	-9.4886	0.1275	-0.0673	0.0110	0.0031	-0.0069	34.1186	20.1728	-0.0841	0.4343	0.5630	0.4553	-0.5358
8.1	-9.5132	0.1347	-0.0686	0.0239	0.0046	-0.0069	34.0083	20.2172	-0.1950	0.4343	0.5631	0.4552	-0.5359
8.11	-9.5150	0.1461	-0.0622	0.0203	0.0072	-0.0061	34.0182	20.0500	-0.2018	0.4342	0.5632	0.4551	-0.5359
8.12	-9.5293	0.1615	-0.0582	0.0223	0.0059	-0.0059	34.1233	20.3294	-0.1884	0.4341	0.5633	0.4550	-0.5359
8.13	-9.5343	0.1704	-0.0763	0.0188	0.0070	-0.0060	34.1001	20.3041	0.0094	0.4341	0.5634	0.4548	-0.5360
8.14	-9.4940	0.1855	-0.0544	0.0227	0.0134	-0.0057	34.0200	20.3474	-0.1321	0.4340	0.5635	0.4547	-0.5360
8.15	-9.5015	0.2006	-0.0550	0.0206	0.0159	-0.0054	33.9966	20.4848	-0.0780	0.4339	0.5636	0.4546	-0.5360
8.16	-9.4912	0.2165	-0.0610	0.0228	0.0164	-0.0062	33.8705	20.2581	-0.0244	0.4339	0.5638	0.4545	-0.5360
8.17	-9.4815	0.2306	-0.0592	0.0198	0.0232	-0.0063	34.0448	20.0107	-0.2276	0.4338	0.5639	0.4544	-0.5360
8.18	-9.5163	0.2390	-0.0561	0.0132	0.0268	-0.0061	33.7822	20.1004	-0.0831	0.4337	0.5641	0.4544	-0.5360
8.19	-9.5337	0.2413	-0.0644	0.0050	0.0283	-0.0071	33.7641	20.1117	0.0233	0.4336	0.5642	0.4544	-0.5359
8.2	-9.5223	0.2292	-0.0599	-0.0042	0.0283	-0.0082	34.0965	20.3003	-0.1121	0.4336	0.5643	0.4544	-0.5359
8.21	-9.5585	0.2266	-0.0849	-0.0043	0.0283	-0.0083	34.1112	20.1099	-0.4343	0.4335	0.5644	0.4544	-0.5358
8.22	-9.5428	0.2202	-0.0890	-0.0075	0.0305	-0.0120	34.0751	20.0778	-0.2155	0.4335	0.5645	0.4544	-0.5357
8.23	-9.5509	0.2204	-0.0859	-0.0097	0.0278	-0.0165	34.1561	20.1505	-0.0685	0.4334	0.5646	0.4544	-0.5356
8.24	-9.5435	0.2074	-0.0998	-0.0154	0.0235	-0.0201	34.1966	20.2307	-0.1330	0.4334	0.5646	0.4545	-0.5356
8.25	-9.5136	0.2007	-0.0885	-0.0251	0.0308	-0.0199	34.1968	19.9803	0.0057	0.4334	0.5647	0.4546	-0.5355
8.26	-9.5325	0.1855	-0.1023	-0.0265	0.0365	-0.0183	34.1566	20.1698	0.1150	0.4334	0.5647	0.4547	-0.5353
8.27	-9.5399	0.1701	-0.1125	-0.0269	0.0380	-0.0204	34.0819	20.1904	-0.1972	0.4333	0.5648	0.4548	-0.5352
8.28	-9.5439	0.1556	-0.1128	-0.0234	0.0357	-0.0217	34.1023	20.2048	-0.1148	0.4333	0.5648	0.4549	-0.5351
8.29	-9.5809	0.1421	-0.1084	-0.0186	0.0336	-0.0181	34.1108	20.0635	-0.0039	0.4333	0.5649	0.4550	-0.5350
8.3	-9.5964	0.1319	-0.1177	-0.0124	0.0294	-0.0247	33.9109	20.1731	-0.1290	0.4332	0.5649	0.4550	-0.5349
8.31	-9.5821	0.1217	-0.1120	-0.0205	0.0333	-0.0241	34.0161	20.3970	0.1231	0.4331	0.5650	0.4551	-0.5348
8.32	-9.6162	0.1273	-0.1162	-0.0171	0.0265	-0.0251	33.9060	20.2756	-0.0592	0.4331	0.5650	0.4552	-0.5348
8.33	-9.6177	0.1273	-0.1133	-0.0090	0.0261	-0.0170	33.8450	20.0244	0.0432	0.4331	0.5651	0.4553	-0.5347
8.34	-9.5934	0.1239	-0.1145	-0.0123	0.0173	-0.0205	34.1038	20.2398	0.0534	0.4330	0.5651	0.4553	-0.5347
8.35	-9.5653	0.1206	-0.1104	-0.0109	0.0154	-0.0123	33.8632	20.2876	-0.1409	0.4330	0.5651	0.4553	-0.5346
8.36	-9.5419	0.1261	-0.1159	-0.0070	0.0110	-0.0043	34.0788	20.2883	0.1094	0.4330	0.5652	0.4553	-0.5346
8.37	-9.5126	0.1337	-0.1164	-0.0030	0.0090	-0.0092	34.1943	20.2403	0.0622	0.4330	0.5653	0.4552	-0.5346
8.38	-9.5279	0.1492	-0.1244	-0.0032	0.0176	-0.0068	34.0046	20.1757	-0.1368	0.4330	0.5653	0.4552	-0.5345
8.39	-9.5322	0.1545	-0.1389	0.0069	0.0091	-0.0121	34.0034	20.1863	0.0111	0.4330	0.5654	0.4551	-0.5345
8.4	-9.5064	0.1576	-0.1320	0.0113	0.0183	-0.0164	34.0320	20.2154	0.1696	0.4329	0.5655	0.4551	-0.5345
8.41	-9.5327	0.1628	-0.1424	0.0046	0.0208	-0.0247	34.1357	20.1238	0.0677	0.4328	0.5656	0.4551	-0.5345
8.42	-9.5499	0.1648	-0.1503	0.0078	0.0257	-0.0292	34.3596	20.1234	0.0135	0.4327	0.5656	0.4551	-0.5345
8.43	-9.5576	0.1710	-0.1447	0.0021	0.0263	-0.0288	34.3739	19.9669	-0.1049	0.4326	0.5657	0.4551	-0.5345
8.44	-9.5647	0.1692	-0.1577	0.0060	0.0276	-0.0336	34.2256	20.1151	-0.1374	0.4324	0.5658	0.4552	-0.5345
8.45	-9.5495	0.1708	-0.1585	-0.0011	0.0263	-0.0308	33.9172	20.1571	0.0294	0.4323	0.5658	0.4552	-0.5345
8.46	-9.5421	0.1643	-0.1673	0.0015	0.0235	-0.0359	34.0039	20.0793	0.1069	0.4322	0.5659	0.4553	-0.5345
8.47	-9.5534	0.1557	-0.1752	0.0036	0.0234	-0.0363	34.1158	20.2028	-0.0381	0.4321	0.5659	0.4554	-0.5345
8.48	-9.5557	0.1603	-0.1952	-0.0018	0.0304	-0.0346	34.1090	20.2412	-0.0207	0.4319	0.5660	0.4554	-0.5345
8.49	-9.5085	0.1640	-0.1814	-0.0006	0.0280	-0.0407	34.0375	20.5178	0.0458	0.4318	0.5660	0.4555	-0.5345
8.5	-9.5838	0.1650	-0.1982	-0.0112	0.0316	-0.0421	33.9075	20.2321	0.1761	0.4317	0.5660	0.4556	-0.5345
8.51	-9.5953	0.1597	-0.2015	-0.0172	0.0280	-0.0452	34.0421	20.3196	0.1899	0.4316	0.5660	0.4558	-0.5345
8.52	-9.5774	0.1540	-0.1906	-0.0221	0.0211	-0.0473	34.0104	20.3958	0.2947	0.4315	0.5660	0.4559	-0.5344
8.53	-9.6224	0.1337	-0.1982	-0.0299	0.0257	-0.0454	34.3605	20.3402	0.1707	0.4314	0.5659	0.4561	-0.5344
8.54	-9.5966	0.1209	-0.1859	-0.0290	0.0160	-0.0445	34.7562	20.4385	0.1382	0.4314	0.5658	0.4563	-0.5344
8.55	-9.5568	0.1035	-0.1764	-0.0297	0.0109	-0.0423	34.1567	20.3434	0.0015	0.4314	0.5658	0.4564	-0.5343
8.56	-9.5833	0.0977	-0.1876	-0.0289	0.0112	-0.0324	33.9704	20.6326	0.0566	0.4314	0.5657	0.4565	-0.5343
8.57	-9.5585	0.0904	-0.1813	-0.0296	-0.0016	-0.0335	33.8846	20.8069	0.0940	0.4314	0.5656	0.4566	-0.5343
8.58	-9.5452	0.0801	-0.1589	-0.0313	-0.0005	-0.0346	33.7046	20.2999	0.1951	0.4315	0.5655	0.4567	-0.5343
8.59	-9.5319	0.0653	-0.1783	-0.0289	-0.0077	-0.0377	33.9642	20.0560	0.0259	0.4315	0.5654	0.4568	-0.5343
8.6	-9.4730	0.0563	-0.1574	-0.0276	-0.0025	-0.0370	34.1694	19.9595	0.3101	0.4315	0.5653	0.4568	-0.5343
8.61	-9.5222	0.0477	-0.1851	-0.0292	0.0029	-0.0360	34.0461	20.1516	0.1730	0.4315	0.5652	0.4569	-0.5343
8.62	-9.4815	0.0392	-0.1626	-0.0292	0.0012	-0.0439	34.1625	20.2953	-0.0909	0.4315	0.5651	0.4570	-0.5344
8.63	-9.5016	0.0393	-0.1646	-0.0290	0.0144	-0.0425	33.9421	20.2576	-0.0490	0.4315	0.5651	0.4572	-0.5343
8.64	-9.5143	0.0327	-0.1637	-0.0297	0.0167	-0.0378	33.9810	20.2763	0.2182	0.4315	0.5650	0.4573	-0.5343
8.65	-9.5233	0.0327	-0.1551	-0.0275	0.0136	-0.0413	34.0616	20.1568	0.0554	0.4314	0.5650	0.4574	-0.5343
8.66	-9.5242	0.0200	-0.1690	-0.0284	0.0172	-0.0405	34.0594	20.3662	-0.0256	0.4314	0.5649	0.4576	-0.5343
8.67	-9.5285	0.0240	-0.1745	-0.0293	0.0149	-0.0326	34.0542	20.3310	0.0774	0.4314	0.5649	0.4577	-0.5342
8.68	-9.5216	0.0181	-0.1942	-0.0291	0.0163	-0.0324	33.9815	20.4822	0.2117	0.4314	0.5648	0.4578	-0.5342
8.69	-9.5016	0.0213	-0.1813	-0.0294	0.0169	-0.0330	33.7864	20.5239	0.1454	0.4313	0.5648	0.4579	-0.5341
8.7	-9.5297	0.0267	-0.1969	-0.0295	0.0201	-0.0284	33.8812	20.5750	0.0489	0.4313	0.5648	0.4580	-0.5340
8.71	-9.5322	0.0230	-0.1950	-0.0281	0.0227	-0.0269	33.7211	20.3314	0.2038	0.4313	0.5648	0.4581	-0.5340
8.72	-9.5307	0.0232	-0.1957	-0.0293	0.0299	-0.0313	33.4640	20.2905	0.1697	0.4313	0.5648	0.4582	-0.5339
8.73	-9.5584	0.0154	-0.2051	-0.0296	0.0388	-0.0222	33.7344	20.6463	0.2052	0.4313	0.5648	0.4584	-0.5337
8.74	-9.5614	0.0135	-0.2139	-0.0296	0.0359	-0.0225	33.8905	20.3440	0.0988	0.4312	0.5649	0.4585	-0.5336
8.75	-9.5459	0.0074	-0.2116	-0.0292	0.0365	-0.0131	33.7793	20.3467	0.0928	0.4312	0.5649	0.4586	-0.5335
8.76	-9.5732	0.0023	-0.2216	-0.0217	0.0354	-0.0149	33.7963	20.6274	0.2059	0.4312	0.5650	0.4587	-0.5333
8.77	-9.6040	-0.0044	-0.2328	-0.0109	0.0387	-0.0107	33.7758	20.3428	0.1718	0.4311	0.5651	0.4588	-0.5332
8.78	-9.6005	-0.0110	-0.2535	-0.0060	0.0260	-0.0065	33.8556	20.1575	0.1997	0.4311	0.5652	0.4588	-0.5331
8.79	-9.5670	0.0107	-0.2468	-0.0025	0.0263	-0.0065	34.1067	20.1820	0.1877	0.4311	0.5653	0.4588	-0.5331
8.8	-9.5968	-0.0074	-0.2599	-0.0024	0.0206	-0.0090	34.0078	20.2099	-0.1244	0.4310	0.5654	0.4587	-0.5330
8.81	-9.5551	0.0015	-0.2413	0.0029	0.0199	-0.0083	34.1635	20.3103	0.0545	0.4310	0.5655	0.4587	-0.5330
8.82	-9.6042	0.0098	-0.2472	0.0128	0.0267	-0.0061	34.0363	20.1550	0.2104	0.4309	0.5656	0.4587	-0.5329
8.83	-9.5746	0.0104	-0.2484	0.0212	0.0053	-0.0064	33.9682	20.2044	0.3143	0.4308	0.5657	0.4585	-0.5330
8.84	-9.6026	0.0364	-0.2326	0.0233	0.0142	-0.0066	33.9163	20.3347	0.2124	0.4308	0.5659	0.4584	-0.5330
8.85	-9.5934	0.0210	-0.2382	0.0303	0.0052	-0.0069	33.8554	20.3834	0.1773	0.4307	0.5660	0.4583	-0.5330
8.86	-9.5665	0.0545	-0.2167	0.0339	0.0010	-0.0062	33.9824	20.2271	0.1846	0.4306	0.5661	0.4581	-0.5331
8.87	-9.5558	0.0416	-0.2327	0.0396	0.0039	-0.0059	33.9756	20.3354	0.2170	0.4305	0.5662	0.4580	-0.5332
8.88	-9.5592	0.0771	-0.2031	0.0448	0.0027	-0.0075	33.9079	20.5615	0.3180	0.4304	0.5664	0.4578	-0.5333
8.89	-9.5734	0.0960	-0.2192	0.0477	0.0042	-0.0065	33.8540	20.4438	0.1578	0.4302	0.5665	0.4576	-0.5334
8.9	-9.5645	0.1030	-0.2067	0.0456	-0.0031	-0.0056	34.0139	20.3190	0.2113	0.4301	0.5667	0.4574	-0.5335
8.91	-9.5628	0.1104	-0.2171	0.0420	-0.0048	-0.0062	33.9026	20.4255	0.3190	0.4300	0.5668	0.4572	-0.5337
8.92	-9.5326	0.1347	-0.2032	0.0388	-0.0026	-0.0043	33.8582	20.4395	0.1782	0.4299	0.5669	0.4570	-0.5338
8.93	-9.5064	0.1359	-0.2074	0.0396	-0.0041	-0.0027	33.9927	20.5496	0.1886	0.4298	0.5671	0.4568	-0.5339
8.94	-9.4906	0.1487	-0.1972	0.0339	0.0022	-0.0045	33.8103	20.6401	0.1607	0.4298	0.5672	0.4566	-0.5339
8.95	-9.5278	0.1474	-0.2033	0.0272	0.0111	-0.0057	33.8097	20.5962	-0.0003	0.4297	0.5673	0.4565	-0.5340
8.96	-9.5433	0.1721	-0.2028	0.0302	0.0101	-0.0029	34.0806	20.2543	-0.0016	0.4296	0.5675	0.4564	-0.5340
8.97	-9.5666	0.1675	-0.2203	0.0214	0.0163	0.0011	34.1420	20.1720	0.0178	0.4295	0.5676	0.4563	-0.5340
8.98	-9.5796	0.1776	-0.2242	0.0227	0.0157	-0.0007	34.1746	20.3251	-0.0163	0.4294	0.5678	0.4561	-0.5340
8.99	-9.5797	0.1657	-0.2318	0.0136	0.0112	-0.0040	34.3305	20.1709	0.0789	0.4294	0.5679	0.4560	-0.5340
9	-9.5795	0.1599	-0.2409	0.0087	0.0115	-0.0048	34.2465	20.1983	0.2128	0.4294	0.5680	0.4560	-0.5340
9.01	-9.5478	0.1933	-0.2374	0.0090	0.0105	-0.0070	34.0630	20.1529	0.0460	0.4293	0.5681	0.4559	-0.5340
9.02	-9.5360	0.1953	-0.2435	0.0009	0.0136	-0.0043	34.1283	20.0585	0.2091	0.4293	0.5682	0.4558	-0.5340
9.03	-9.5468	0.2168	-0.2548	-0.0025	0.0110	-0.0069	34.4911	20.1933	0.4277	0.4293	0.5682	0.4558	-0.5339
9.04	-9.5204	0.2252	-0.2367	-0.0011	0.0071	-0.0066	34.8099	20.2073	0.3107	0.4293	0.5682	0.4558	-0.5339
9.05	-9.5288	0.2147	-0.2641	-0.0078	0.0164	-0.0106	34.2588	20.1834	0.1341	0.4293	0.5683	0.4558	-0.5338
9.06	-9.4988	0.2188	-0.2478	-0.0178	0.0142	-0.0185	33.8485	20.4618	0.5507	0.4293	0.5683	0.4559	-0.5338
9.07	-9.5586	0.1964	-0.2667	-0.0278	0.0206	-0.0307	34.1458	20.3235	0.3082	0.4293	0.5683	0.4560	-0.5337
9.08	-9.5118	0.1654	-0.2580	-0.0300	0.0254	-0.0322	33.8916	20.1948	0.3728	0.4293	0.5683	0.4561	-0.5336
9.09	-9.5568	0.1471	-0.2478	-0.0289	0.0314	-0.0336	33.8501	20.3508	0.2719	0.4292	0.5683	0.4562	-0.5335
9.1	-9.6302	0.1074	-0.2755	-0.0291	0.0331	-0.0348	34.0229	20.1946	0.2295	0.4292	0.5683	0.4564	-0.5334
9.11	-9.6002	0.0725	-0.2414	-0.0292	0.0228	-0.0402	33.9105	20.1196	0.4615	0.4291	0.5683	0.4565	-0.5334
9.12	-9.6607	0.0426	-0.2716	-0.0285	0.0212	-0.0489	33.8847	20.1112	0.2987	0.4291	0.5682	0.4567	-0.5333
9.13	-9.6002	-0.0064	-0.2465	-0.0185	-0.0042	-0.0457	33.7938	20.3755	0.3838	0.4290	0.5681	0.4568	-0.5334
9.14	-9.5746	-0.0361	-0.2450	-0.0130	-0.0120	-0.0388	33.9216	20.3839	0.1381	0.4290	0.5680	0.4568	-0.5335
9.15	-9.5646	-0.0386	-0.2574	-0.0010	-0.0125	-0.0384	34.0438	20.1719	0.1569	0.4290	0.5680	0.4568	-0.5336
9.16	-9.5187	-0.0314	-0.2513	0.0136	-0.0138	-0.0387	34.1095	20.2135	0.3534	0.4289	0.5679	0.4568	-0.5337
9.17	-9.5247	-0.0300	-0.2491	0.0195	-0.0148	-0.0384	34.0915	20.2195	0.2649	0.4288	0.5679	0.4567	-0.5339
9.18	-9.5469	-0.0213	-0.2507	0.0230	-0.0105	-0.0316	34.0932	20.1740	0.1537	0.4287	0.5679	0.4567	-0.5340
9.19	-9.5396	-0.0099	-0.2315	0.0225	-0.0101	-0.0335	33.9679	20.2794	0.1354	0.4286	0.5679	0.4566	-0.5342
9.2	-9.5437	-0.0004	-0.2333	0.0299	-0.0106	-0.0333	33.8382	20.2138	0.2335	0.4285	0.5679	0.4565	-0.5343
9.21	-9.5366	0.0190	-0.2227	0.0374	-0.0087	-0.0324	33.8128	20.2974	0.2416	0.4283	0.5680	0.4564	-0.5345
9.22	-9.5485	0.0384	-0.2272	0.0344	-0.0110	-0.0308	34.0540	20.3648	0.2776	0.4282	0.5680	0.4563	-0.5347
9.23	-9.5264	0.0567	-0.2276	0.0319	-0.0125	-0.0279	33.9639	20.3227	0.1503	0.4281	0.5680	0.4561	-0.5348
9.24	-9.5049	0.0633	-0.2272	0.0264	-0.0167	-0.0139	33.8260	20.3754	0.0167	0.4280	0.5681	0.4560	-0.5350
9.25	-9.5067	0.0947	-0.2262	0.0238	-0.0035	-0.0089	33.8255	20.5859	0.0892	0.4280	0.5681	0.4558	-0.5350
9.26	-9.4898	0.0983	-0.2323	0.0212	-0.0044	-0.0066	34.0875	20.4957	-0.1074	0.4279	0.5682	0.4557	-0.5351
9.27	-9.4829	0.1142	-0.2315	0.0170	-0.0043	-0.0077	34.0760	20.3374	-0.1023	0.4279	0.5683	0.4556	-0.5352
9.28	-9.5069	0.1270	-0.2378	0.0047	-0.0011	-0.0061	33.8066	20.3912	0.1735	0.4279	0.5683	0.4555	-0.5352
9.29	-9.5142	0.1234	-0.2308	0.0030	0.0021	-0.0030	33.8487	20.4892	0.1328	0.4279	0.5684	0.4554	-0.5352
9.3	-9.5361	0.1227	-0.2340	-0.0051	0.0098	0.0061	33.7837	20.4219	0.1914	0.4279	0.5685	0.4553	-0.5351
9.31	-9.5437	0.1256	-0.2456	-0.0063	0.0143	0.0097	33.7191	20.3720	0.2890	0.4280	0.5686	0.4553	-0.5350
9.32	-9.5499	0.1362	-0.2449	-0.0045	0.0142	0.0146	33.7447	20.3017	0.0508	0.4280	0.5687	0.4552	-0.5350
9.33	-9.5366	0.1466	-0.2427	-0.0060	0.0098	0.0178	33.8563	20.1564	-0.1939	0.4281	0.5688	0.4551	-0.5349
9.34	-9.5069	0.1629	-0.2560	-0.0037	0.0084	0.0212	33.9713	20.0885	0.2127	0.4282	0.5690	0.4550	-0.5348
9.35	-9.4991	0.1754	-0.2477	-0.0055	0.0155	0.0177	34.0975	20.2106	0.2085	0.4282	0.5691	0.4549	-0.5347
9.36	-9.5277	0.1899	-0.2718	-0.0094	0.0260	0.0181	34.0942	20.2035	-0.0798	0.4283	0.5692	0.4548	-0.5345
9.37	-9.5180	0.1953	-0.2611	-0.0078	0.0233	0.0163	34.0913	19.9346	0.0175	0.4283	0.5694	0.4547	-0.5344
9.38	-9.5969	0.1939	-0.2796	-0.0054	0.0295	0.0121	34.1155	20.2109	0.1662	0.4283	0.5695	0.4547	-0.5343
9.39	-9.6071	0.1871	-0.2668	-0.0028	0.0155	0.0032	34.4261	20.1226	0.0682	0.4283	0.5696	0.4546	-0.5342
9.4	-9.6423	0.1863	-0.2701	-0.0031	0.0143	-0.0058	34.0499	20.0099	0.0776	0.4283	0.5697	0.4546	-0.5342
9.41	-9.6120	0.1779	-0.2659	-0.0020	-0.0024	-0.0083	33.9020	20.1973	0.2126	0.4283	0.5698	0.4545	-0.5342
9.42	-9.5846	0.1794	-0.2558	0.0031	-0.0042	-0.0100	34.1326	19.9236	0.0636	0.4283	0.5698	0.4545	-0.5342
9.43	-9.5792	0.1780	-0.2745	0.0181	-0.0090	-0.0111	33.9780	20.0481	-0.0171	0.4283	0.5698	0.4543	-0.5343
9.44	-9.5339	0.1717	-0.2626	0.0131	-0.0143	-0.0167	34.0138	20.1383	0.2274	0.4283	0.5698	0.4542	-0.5344
9.45	-9.5060	0.1762	-0.2494	0.0190	0.0025	-0.0297	34.0008	20.1116	0.2884	0.4282	0.5699	0.4542	-0.5345
9.46	-9.5697	0.1748	-0.2525	0.0235	0.0156	-0.0311	34.0082	20.1102	0.1295	0.4280	0.5700	0.4541	-0.5345
9.47	-9.5636	0.1713	-0.2365	0.0213	-0.0028	-0.0310	33.8997	20.3419	0.2062	0.4279	0.5700	0.4541	-0.5346
9.48	-9.5954	0.1700	-0.2277	0.0247	0.0037	-0.0350	34.0847	20.2422	0.0292	0.4277	0.5700	0.4540	-0.5347
9.49	-9.5876	0.1636	-0.2366	0.0220	-0.0063	-0.0345	34.1056	20.4516	0.0185	0.4276	0.5701	0.4540	-0.5349
9.5	-9.5411	0.1704	-0.2288	0.0234	-0.0065	-0.0320	34.0142	20.4864	0.0755	0.4275	0.5701	0.4539	-0.5350
9.51	-9.4905	0.1576	-0.2300	0.0222	-0.0134	-0.0293	33.7251	20.3292	0.0734	0.4274	0.5701	0.4538	-0.5351
9.52	-9.4980	0.1585	-0.2246	0.0229	-0.0118	-0.0164	34.0404	20.2403	0.1986	0.4274	0.5701	0.4537	-0.5353
9.53	-9.5036	0.1574	-0.2357	0.0241	-0.0047	-0.0174	34.5329	20.1748	0.1315	0.4273	0.5702	0.4536	-0.5353
9.54	-9.5025	0.1755	-0.2126	0.0215	0.0004	-0.0109	34.9534	20.2802	0.1843	0.4273	0.5702	0.4535	-0.5354
9.55	-9.5442	0.1716	-0.2418	0.0205	0.0071	-0.0181	34.5881	20.1537	0.0648	0.4272	0.5703	0.4535	-0.5354
9.56	-9.5378	0.1603	-0.2245	0.0228	0.0059	-0.0119	34.2621	20.1868	0.0688	0.4271	0.5704	0.4533	-0.5355
9.57	-9.5717	0.1665	-0.2531	0.0219	0.0137	-0.0131	34.0980	20.3277	0.1074	0.4270	0.5705	0.4533	-0.5355
9.58	-9.5279	0.1666	-0.2417	0.0225	0.0094	-0.0140	34.0432	20.1344	0.1263	0.4269	0.5706	0.4532	-0.5355
9.59	-9.5562	0.1827	-0.2495	0.0215	0.0048	-0.0078	33.9992	20.1949	0.0486	0.4268	0.5707	0.4531	-0.5356
9.6	-9.5381	0.1930	-0.2509	0.0226	0.0051	-0.0061	33.9345	20.1635	0.0021	0.4268	0.5708	0.4529	-0.5356
9.61	-9.5298	0.2152	-0.2340	0.0214	0.0066	-0.0081	33.9637	20.1811	0.0209	0.4267	0.5709	0.4528	-0.5357
9.62	-9.5616	0.2243	-0.2471	0.0206	0.0064	-0.0065	34.0932	20.0395	-0.1198	0.4266	0.5710	0.4527	-0.5357
9.63	-9.5326	0.2287	-0.2281	0.0154	0.0029	-0.0054	33.6905	20.3902	-0.0070	0.4266	0.5711	0.4526	-0.5357
9.64	-9.5912	0.2412	-0.2391	0.0213	0.0167	-0.0046	33.7871	20.1466	0.1034	0.4265	0.5712	0.4525	-0.5357
9.65	-9.5732	0.2434	-0.2478	0.0118	0.0022	-0.0069	33.7392	20.1051	0.2438	0.4265	0.5713	0.4524	-0.5357
9.66	-9.5188	0.2451	-0.2312	0.0115	0.0072	-0.0068	33.7197	20.1771	0.1288	0.4264	0.5714	0.4523	-0.5358
9.67	-9.5923	0.2491	-0.2580	0.0032	0.0207	-0.0116	33.7932	20.2523	0.1018	0.4264	0.5715	0.4523	-0.5357
9.68	-9.5620	0.2477	-0.2405	-0.0037	0.0002	-0.0188	33.8720	20.2559	0.1001	0.4264	0.5715	0.4523	-0.5357
9.69	-9.5751	0.2507	-0.2417	-0.0041	0.0029	-0.0162	33.9828	20.1677	-0.0073	0.4263	0.5715	0.4523	-0.5357
9.7	-9.5569	0.2440	-0.2394	-0.0027	-0.0135	-0.0105	33.9445	20.1196	0.0266	0.4264	0.5715	0.4522	-0.5358
9.71	-9.5544	0.2437	-0.2265	-0.0022	-0.0090	-0.0098	33.9509	20.0748	0.0169	0.4264	0.5716	0.4521	-0.5358
9.72	-9.5548	0.2351	-0.2333	-0.0052	-0.0128	-0.0121	34.0782	20.0822	0.0132	0.4264	0.5715	0.4521	-0.5359
9.73	-9.5416	0.2461	-0.2236	-0.0069	-0.0114	-0.0131	33.9853	19.9649	0.0409	0.4265	0.5715	0.4520	-0.5359
9.74	-9.5401	0.2340	-0.2297	-0.0088	-0.0034	-0.0202	33.9457	20.0214	-0.0605	0.4265	0.5715	0.4520	-0.5359
9.75	-9.5274	0.2255	-0.2203	-0.0066	-0.0110	-0.0225	33.9499	19.9747	-0.0826	0.4265	0.5715	0.4520	-0.5360
9.76	-9.5176	0.2195	-0.2264	-0.0069	-0.0030	-0.0293	33.9783	20.0383	0.0656	0.4265	0.5715	0.4520	-0.5360
9.77	-9.5086	0.2186	-0.2150	-0.0031	0.0053	-0.0280	34.0867	20.3018	-0.0594	0.4264	0.5715	0.4520	-0.5360
9.78	-9.5263	0.2217	-0.2404	-0.0039	0.0144	-0.0321	33.9409	20.1531	-0.0911	0.4263	0.5715	0.4520	-0.5360
9.79	-9.5273	0.2254	-0.2185	-0.0030	0.0109	-0.0314	34.0647	20.2043	-0.0581	0.4263	0.5715	0.4520	-0.5361
9.8	-9.5661	0.2181	-0.2455	-0.0039	0.0089	-0.0322	34.0266	20.1083	-0.1035	0.4262	0.5715	0.4521	-0.5361
9.81	-9.5346	0.2160	-0.2314	-0.0035	0.0087	-0.0397	33.8426	20.1333	0.0037	0.4261	0.5715	0.4521	-0.5361
9.82	-9.5533	0.2188	-0.2451	-0.0133	0.0151	-0.0439	33.9057	20.2796	0.0963	0.4260	0.5715	0.4522	-0.5361
9.83	-9.5167	0.2162	-0.2341	-0.0198	0.0072	-0.0469	33.7921	20.2675	0.1455	0.4259	0.5714	0.4523	-0.5362
9.84	-9.5609	0.2236	-0.2412	-0.0242	0.0178	-0.0461	33.8807	20.4197	-0.0091	0.4259	0.5714	0.4525	-0.5361
9.85	-9.5490	0.2144	-0.2395	-0.0271	0.0113	-0.0526	33.9980	20.4779	0.1942	0.4258	0.5713	0.4526	-0.5361
9.86	-9.5608	0.2030	-0.2318	-0.0286	0.0164	-0.0555	33.8463	20.1978	0.0805	0.4257	0.5712	0.4528	-0.5361
9.87	-9.5857	0.1750	-0.2510	-0.0283	0.0129	-0.0546	33.8430	19.9362	0.0269	0.4257	0.5711	0.4530	-0.5362
9.88	-9.5809	0.1620	-0.2385	-0.0301	0.0152	-0.0602	33.7467	20.2855	-0.0808	0.4256	0.5710	0.4532	-0.5362
9.89	-9.6162	0.1348	-0.2442	-0.0305	0.0109	-0.0544	33.7864	20.1630	0.0999	0.4255	0.5709	0.4534	-0.5362
9.9	-9.6075	0.1192	-0.2451	-0.0337	0.0015	-0.0584	34.0031	20.1858	0.2265	0.4255	0.5708	0.4535	-0.5362
9.91	-9.6056	0.1002	-0.2457	-0.0368	-0.0038	-0.0578	33.9016	20.3171	0.0139	0.4254	0.5706	0.4537	-0.5362
9.92	-9.5984	0.0789	-0.2468	-0.0321	-0.0150	-0.0568	34.1410	20.1442	-0.0023	0.4254	0.5705	0.4538	-0.5363
9.93	-9.5724	0.0717	-0.2353	-0.0320	-0.0204	-0.0514	34.0340	20.3050	0.2296	0.4255	0.5703	0.4539	-0.5364
9.94	-9.5607	0.0523	-0.2264	-0.0347	-0.0251	-0.0513	33.9296	20.3337	0.1649	0.4255	0.5701	0.4540	-0.5365
9.95	-9.5519	0.0447	-0.2128	-0.0306	-0.0266	-0.0571	33.7656	20.4337	0.0368	0.4255	0.5699	0.4541	-0.5366
9.96	-9.5247	0.0345	-0.2038	-0.0300	-0.0234	-0.0454	33.8817	20.3514	-0.1091	0.4256	0.5697	0.4542	-0.5367
9.97	-9.5149	0.0264	-0.1880	-0.0272	-0.0219	-0.0535	33.8367	20.2581	0.1768	0.4256	0.5695	0.4543	-0.5368
9.98	-9.5224	0.0092	-0.1890	-0.0255	-0.0195	-0.0475	33.7964	20.5437	0.0014	0.4256	0.5694	0.4544	-0.5369
9.99	-9.4963	0.0044	-0.1592	-0.0277	-0.0210	-0.0440	33.9258	20.5153	0.0932	0.4256	0.5692	0.4545	-0.5369
10	-9.5106	-0.0016	-0.1721	-0.0288	-0.0117	-0.0514	33.6571	20.5258	0.0831	0.4256	0.5691	0.4546	-0.5370
10.01	-9.4696	-0.0160	-0.1511	-0.0298	-0.0113	-0.0489	33.5761	20.6550	0.1467	0.4256	0.5689	0.4547	-0.5371
10.02	-9.4780	-0.0307	-0.1560	-0.0224	-0.0051	-0.0448	33.6791	20.5287	0.1417	0.4256	0.5688	0.4548	-0.5371
10.03	-9.4857	-0.0291	-0.1519	-0.0066	0.0004	-0.0433	34.0446	20.5947	0.1359	0.4255	0.5688	0.4548	-0.5372
10.04	-9.4699	-0.0303	-0.1521	-0.0024	0.0025	-0.0429	34.4308	20.7568	0.4466	0.4255	0.5687	0.4549	-0.5372
10.05	-9.4897	-0.0372	-0.1433	-0.0133	0.0132	-0.0404	33.8326	20.8440	0.1823	0.4254	0.5687	0.4550	-0.5372
10.06	-9.5379	-0.0429	-0.1820	-0.0105	0.0203	-0.0380	33.7321	20.5737	0.0020	0.4253	0.5687	0.4551	-0.5372
10.07	-9.4915	-0.0485	-0.1582	-0.0003	0.0156	-0.0348	33.7119	20.5487	0.1775	0.4252	0.5687	0.4551	-0.5372
10.08	-9.5097	-0.0528	-0.1912	0.0017	0.0146	-0.0225	33.7620	20.4293	0.0182	0.4251	0.5688	0.4551	-0.5373
10.09	-9.4811	-0.0534	-0.1867	0.0047	0.0180	-0.0187	34.0566	20.2458	-0.0666	0.4250	0.5688	0.4551	-0.5372
10.1	-9.5047	-0.0291	-0.1925	0.0135	0.0258	-0.0192	33.8444	20.4642	-0.2365	0.4249	0.5689	0.4551	-0.5372
10.11	-9.4950	-0.0245	-0.2025	0.0154	0.0352	-0.0074	33.7054	20.6281	-0.0910	0.4248	0.5691	0.4551	-0.5372
10.12	-9.5155	-0.0127	-0.1982	0.0217	0.0488	-0.0122	33.9356	20.4570	-0.1645	0.4246	0.5693	0.4551	-0.5371
10.13	-9.5389	-0.0211	-0.2298	0.0231	0.0506	-0.0057	34.0551	19.9704	0.0271	0.4244	0.5696	0.4551	-0.5370
10.14	-9.5054	-0.0335	-0.2274	0.0219	0.0418	-0.0072	33.8140	20.3168	0.1827	0.4243	0.5698	0.4550	-0.5369
10.15	-9.5287	-0.0466	-0.2694	0.0236	0.0496	-0.0138	33.8260	20.6731	0.1464	0.4241	0.5700	0.4550	-0.5369
10.16	-9.5495	-0.0542	-0.2910	0.0283	0.0553	-0.0199	33.6710	20.4192	0.1358	0.4239	0.5702	0.4550	-0.5368
10.17	-9.5919	-0.0533	-0.3268	0.0442	0.0539	-0.0096	33.6335	20.4642	-0.0613	0.4236	0.5705	0.4550	-0.5368
10.18	-9.6073	-0.0326	-0.3460	0.0466	0.0536	-0.0130	33.6700	20.4832	0.0925	0.4234	0.5708	0.4549	-0.5367
10.19	-9.6272	-0.0109	-0.3563	0.0509	0.0509	-0.0152	33.8865	20.5180	0.1703	0.4231	0.5710	0.4548	-0.5367
10.2	-9.6583	0.0066	-0.3540	0.0653	0.0443	-0.0140	33.7543	20.5912	0.1470	0.4228	0.5713	0.4547	-0.5367
10.21	-9.6881	0.0278	-0.3648	0.0715	0.0345	-0.0244	33.7264	20.5798	0.1556	0.4225	0.5716	0.4546	-0.5369
10.22	-9.6347	0.0338	-0.3703	0.0732	0.0243	-0.0222	33.7644	20.4423	0.1579	0.4222	0.5718	0.4544	-0.5370
10.23	-9.5902	0.0565	-0.3516	0.0734	0.0158	-0.0315	33.8509	20.4141	0.1431	0.4218	0.5720	0.4542	-0.5371
10.24	-9.6450	0.0662	-0.3687	0.0740	0.0182	-0.0308	33.8173	20.5710	-0.0754	0.4215	0.5722	0.4541	-0.5373
10.25	-9.6108	0.0644	-0.3388	0.0744	0.0029	-0.0333	33.8556	20.6801	0.1964	0.4213	0.5724	0.4539	-0.5375
10.26	-9.6053	0.0645	-0.3295	0.0709	0.0010	-0.0325	33.4170	20.5025	0.1010	0.4210	0.5725	0.4537	-0.5377
10.27	-9.6026	0.0497	-0.3145	0.0681	-0.0102	-0.0363	33.8302	20.5257	0.0680	0.4207	0.5726	0.4535	-0.5380
10.28	-9.5905	0.0303	-0.2947	0.0689	-0.0171	-0.0295	34.0389	20.6129	-0.0290	0.4205	0.5727	0.4533	-0.5382
10.29	-9.5567	0.0266	-0.2872	0.0744	-0.0130	-0.0321	34.0088	20.4369	-0.0169	0.4203	0.5728	0.4531	-0.5385
10.3	-9.5528	0.0413	-0.2837	0.0692	-0.0122	-0.0286	33.8164	20.3946	-0.0668	0.4200	0.5729	0.4529	-0.5388
10.31	-9.5740	0.0605	-0.2817	0.0668	-0.0090	-0.0260	33.6979	20.3816	-0.1446	0.4198	0.5730	0.4527	-0.5390
10.32	-9.5614	0.0705	-0.2603	0.0572	-0.0086	-0.0232	33.8418	20.4903	-0.1053	0.4196	0.5731	0.4525	-0.5392
10.33	-9.5498	0.0719	-0.2541	0.0505	-0.0138	-0.0250	33.9638	20.5979	-0.1317	0.4195	0.5732	0.4523	-0.5394
10.34	-9.5594	0.0756	-0.2389	0.0486	-0.0113	-0.0321	33.8183	20.5533	-0.1336	0.4193	0.5733	0.4521	-0.5396
10.35	-9.5370	0.0624	-0.2411	0.0467	-0.0182	-0.0284	33.6236	20.5887	-0.3762	0.4192	0.5733	0.4520	-0.5398
10.36	-9.5244	0.0663	-0.2122	0.0399	-0.0210	-0.0251	33.7565	20.5409	-0.0227	0.4190	0.5734	0.4518	-0.5400
10.37	-9.5494	0.0568	-0.2285	0.0219	-0.0201	-0.0267	33.8983	20.6348	-0.1344	0.4190	0.5734	0.4517	-0.5401
10.38	-9.4909	0.0431	-0.1783	0.0226	-0.0266	-0.0260	33.8848	20.6202	-0.1837	0.4189	0.5733	0.4515	-0.5403
10.39	-9.5232	0.0267	-0.2055	0.0209	-0.0130	-0.0236	33.7039	20.4578	-0.0920	0.4188	0.5733	0.4514	-0.5404
10.4	-9.4466	0.0143	-0.1748	0.0147	-0.0102	-0.0230	33.8856	20.6069	-0.1304	0.4188	0.5734	0.4513	-0.5405
10.41	-9.4810	0.0167	-0.1898	0.0064	0.0002	-0.0236	33.7557	20.7134	0.0262	0.4187	0.5734	0.4513	-0.5406
10.42	-9.4585	0.0075	-0.1784	0.0102	-0.0062	-0.0210	33.7448	20.4804	-0.1326	0.4187	0.5734	0.4512	-0.5406
10.43	-9.4842	0.0145	-0.1642	0.0008	0.0047	-0.0159	33.7268	20.5787	-0.2044	0.4186	0.5734	0.4512	-0.5407
10.44	-9.5206	0.0062	-0.1856	-0.0009	0.0040	-0.0086	33.6425	20.6830	-0.3904	0.4186	0.5735	0.4512	-0.5406
10.45	-9.4713	-0.0007	-0.1713	-0.0029	0.0090	-0.0116	33.6364	20.6490	-0.1350	0.4186	0.5736	0.4511	-0.5406
10.46	-9.5028	0.0035	-0.1880	-0.0038	0.0182	-0.0106	33.7494	20.5962	-0.2081	0.4186	0.5736	0.4511	-0.5406
10.47	-9.4997	-0.0044	-0.1995	-0.0065	0.0265	-0.0164	33.8272	20.5310	-0.3160	0.4185	0.5737	0.4511	-0.5405
10.48	-9.4702	-0.0276	-0.1982	-0.0079	0.0262	-0.0100	33.8775	20.3215	-0.1691	0.4185	0.5738	0.4512	-0.5404
10.49	-9.5193	-0.0373	-0.2296	-0.0036	0.0379	-0.0098	33.9246	20.2826	-0.2289	0.4184	0.5739	0.4512	-0.5403
10.5	-9.4969	-0.0657	-0.2185	0.0004	0.0374	-0.0095	33.9390	20.4189	-0.1970	0.4183	0.5741	0.4512	-0.5402
10.51	-9.5490	-0.0682	-0.2326	-0.0007	0.0371	-0.0092	33.7338	20.7356	-0.2309	0.4182	0.5742	0.4512	-0.5401
10.52	-9.5324	-0.0681	-0.2324	0.0051	0.0344	-0.0058	33.6782	20.5724	-0.1881	0.4182	0.5744	0.4512	-0.5400
10.53	-9.5806	-0.0664	-0.2416	0.0129	0.0432	-0.0064	34.1932	20.5716	0.0743	0.4180	0.5746	0.4512	-0.5399
10.54	-9.6001	-0.0613	-0.2520	0.0191	0.0361	-0.0039	34.5730	20.6055	0.1576	0.4179	0.5747	0.4512	-0.5398
10.55	-9.6006	-0.0518	-0.2294	0.0209	0.0335	-0.0061	34.1115	20.6252	-0.0843	0.4178	0.5749	0.4512	-0.5398
10.56	-9.6271	-0.0508	-0.2635	0.0240	0.0290	-0.0061	33.7929	20.7743	-0.3219	0.4177	0.5751	0.4511	-0.5398
10.57	-9.6096	-0.0289	-0.2350	0.0263	0.0251	-0.0057	33.7533	20.6412	-0.1588	0.4176	0.5752	0.4510	-0.5397
10.58	-9.6317	-0.0209	-0.2515	0.0226	0.0179	-0.0068	33.6924	20.4592	-0.0620	0.4175	0.5754	0.4509	-0.5397
10.59	-9.5922	-0.0001	-0.2177	0.0261	0.0049	-0.0026	33.6625	20.3741	-0.2684	0.4174	0.5755	0.4508	-0.5398
10.6	-9.6665	0.0199	-0.2510	0.0212	0.0080	0.0019	33.5032	20.5812	-0.2530	0.4173	0.5756	0.4506	-0.5398
10.61	-9.6044	0.0487	-0.2244	0.0245	-0.0183	-0.0011	33.6157	20.6066	-0.2892	0.4173	0.5757	0.4505	-0.5399
10.62	-9.5717	0.0637	-0.1997	0.0209	-0.0155	-0.0031	33.4884	20.4365	-0.2141	0.4173	0.5758	0.4503	-0.5400
10.63	-9.5806	0.0369	-0.2203	0.0178	-0.0213	0.0009	33.7820	20.6224	-0.1627	0.4173	0.5758	0.4501	-0.5401
10.64	-9.4998	0.0249	-0.2090	0.0022	-0.0249	0.0147	33.7923	20.4836	-0.1557	0.4174	0.5759	0.4499	-0.5401
10.65	-9.4604	0.0230	-0.2127	0.0125	-0.0173	0.0180	33.7768	20.3225	-0.4352	0.4175	0.5759	0.4497	-0.5401
10.66	-9.4339	0.0279	-0.2122	0.0221	-0.0140	0.0229	33.7942	20.2593	-0.2029	0.4176	0.5760	0.4495	-0.5402
10.67	-9.4355	0.0485	-0.2205	0.0210	0.0034	0.0364	33.7614	20.0173	-0.2086	0.4176	0.5762	0.4492	-0.5401
10.68	-9.4549	0.0671	-0.2237	0.0213	0.0101	0.0402	33.9031	20.2743	-0.3810	0.4177	0.5765	0.4490	-0.5400
10.69	-9.4821	0.0950	-0.2350	0.0211	0.0242	0.0452	33.8357	20.2425	-0.1935	0.4177	0.5767	0.4488	-0.5399
10.7	-9.5387	0.1278	-0.2439	0.0213	0.0279	0.0367	33.9683	20.4130	-0.1342	0.4177	0.5770	0.4486	-0.5398
10.71	-9.5438	0.1390	-0.2465	0.0215	0.0272	0.0316	33.8732	20.0402	-0.2713	0.4177	0.5773	0.4484	-0.5397
10.72	-9.5552	0.1556	-0.2499	0.0211	0.0299	0.0281	33.7738	20.0773	-0.3282	0.4177	0.5775	0.4482	-0.5396
10.73	-9.5718	0.1587	-0.2774	0.0223	0.0295	0.0223	33.9194	20.2095	-0.0859	0.4176	0.5777	0.4481	-0.5395
10.74	-9.5550	0.1663	-0.2587	0.0173	0.0220	0.0203	33.7981	20.3213	-0.2836	0.4176	0.5779	0.4479	-0.5394
10.75	-9.5619	0.1734	-0.2752	0.0194	0.0246	0.0133	33.6734	20.3348	-0.1482	0.4176	0.5781	0.4478	-0.5393
10.76	-9.5368	0.1785	-0.2693	0.0227	0.0233	0.0110	33.7276	20.4509	-0.3130	0.4175	0.5783	0.4477	-0.5393
10.77	-9.5417	0.1867	-0.2693	0.0247	0.0277	0.0025	33.8284	20.5546	-0.3881	0.4174	0.5785	0.4476	-0.5392
10.78	-9.5442	0.2021	-0.2924	0.0214	0.0278	-0.0020	34.0617	20.3323	-0.2538	0.4173	0.5787	0.4475	-0.5392
10.79	-9.4597	0.2111	-0.2745	0.0187	0.0261	-0.0050	34.0413	20.2248	-0.1500	0.4172	0.5789	0.4474	-0.5392
10.8	-9.5429	0.2285	-0.2827	0.0237	0.0399	-0.0053	33.9308	20.2521	-0.4752	0.4170	0.5791	0.4474	-0.5391
10.81	-9.5797	0.2322	-0.2915	0.0161	0.0311	-0.0090	33.9906	20.2328	-0.3476	0.4169	0.5792	0.4473	-0.5390
10.82	-9.5589	0.2383	-0.2790	0.0026	0.0406	-0.0108	33.8548	20.2570	-0.3596	0.4168	0.5794	0.4473	-0.5389
10.83	-9.5685	0.2406	-0.3092	0.0064	0.0266	-0.0111	33.8855	20.0986	-0.3127	0.4167	0.5795	0.4473	-0.5389
10.84	-9.5364	0.2575	-0.2762	0.0012	0.0212	-0.0092	34.0385	20.0699	-0.2464	0.4167	0.5796	0.4473	-0.5388
10.85	-9.5819	0.2701	-0.3030	-0.0017	0.0225	-0.0053	34.0618	19.9959	-0.5524	0.4166	0.5797	0.4473	-0.5388
10.86	-9.4867	0.2871	-0.2751	-0.0101	0.0129	-0.0067	33.9396	19.9549	-0.4147	0.4166	0.5798	0.4473	-0.5387
10.87	-9.5134	0.2989	-0.2944	-0.0284	0.0250	-0.0118	34.1175	20.0130	-0.2917	0.4166	0.5798	0.4473	-0.5386
10.88	-9.5277	0.2823	-0.2975	-0.0286	0.0333	-0.0183	34.1534	19.8997	-0.1812	0.4166	0.5799	0.4474	-0.5385
10.89	-9.5053	0.2701	-0.2923	-0.0396	0.0312	-0.0248	34.0563	19.8879	-0.1085	0.4166	0.5799	0.4476	-0.5383
10.9	-9.5180	0.2379	-0.3095	-0.0514	0.0389	-0.0290	33.9128	20.1080	-0.3525	0.4166	0.5799	0.4478	-0.5381
10.91	-9.5293	0.2165	-0.3222	-0.0554	0.0460	-0.0307	33.8644	20.0327	-0.2314	0.4166	0.5799	0.4480	-0.5379
10.92	-9.5474	0.1978	-0.3301	-0.0542	0.0441	-0.0325	33.8658	19.8524	-0.1241	0.4166	0.5799	0.4483	-0.5377
10.93	-9.5483	0.1793	-0.3299	-0.0556	0.0393	-0.0319	33.8805	20.1181	-0.2601	0.4166	0.5799	0.4485	-0.5376
10.94	-9.5360	0.1615	-0.3314	-0.0527	0.0392	-0.0327	34.1159	20.2627	-0.0196	0.4166	0.5799	0.4488	-0.5374
10.95	-9.5320	0.1429	-0.3372	-0.0541	0.0326	-0.0294	33.9664	20.2911	-0.0616	0.4167	0.5798	0.4490	-0.5372
10.96	-9.5044	0.1288	-0.3245	-0.0506	0.0335	-0.0329	33.9595	20.3584	0.1672	0.4167	0.5798	0.4492	-0.5371
10.97	-9.5155	0.1102	-0.3421	-0.0544	0.0432	-0.0291	33.9681	20.3166	-0.0543	0.4167	0.5798	0.4494	-0.5369
10.98	-9.4980	0.0870	-0.3344	-0.0431	0.0384	-0.0261	33.9561	20.4999	-0.0504	0.4167	0.5798	0.4496	-0.5367
10.99	-9.5035	0.0712	-0.3483	-0.0306	0.0462	-0.0261	33.9809	20.2360	-0.1674	0.4166	0.5799	0.4498	-0.5365
11	-9.5174	0.0634	-0.3650	-0.0304	0.0547	-0.0237	33.8561	20.2574	-0.1495	0.4165	0.5800	0.4500	-0.5364
11.01	-9.5125	0.0568	-0.3800	-0.0280	0.0451	-0.0174	33.7667	20.3309	0.0471	0.4165	0.5801	0.4501	-0.5362
11.02	-9.5321	0.0647	-0.3980	-0.0211	0.0524	-0.0143	34.0229	20.3879	-0.1573	0.4164	0.5802	0.4502	-0.5360
11.03	-9.5581	0.0748	-0.4130	-0.0049	0.0539	-0.0135	34.4898	20.4413	0.1294	0.4163	0.5803	0.4503	-0.5358
11.04	-9.5767	0.0852	-0.4343	-0.0007	0.0613	-0.0093	34.9864	20.3490	0.2123	0.4162	0.5805	0.4504	-0.5356
11.05	-9.5809	0.1141	-0.4572	-0.0051	0.0567	-0.0081	34.3254	20.1800	-0.0811	0.4161	0.5807	0.4505	-0.5354
11.06	-9.5722	0.1358	-0.4673	0.0035	0.0551	-0.0070	34.1256	20.3474	-0.0639	0.4160	0.5809	0.4506	-0.5353
11.07	-9.5957	0.1637	-0.4903	0.0068	0.0548	-0.0104	34.0947	20.3690	-0.0153	0.4158	0.5811	0.4506	-0.5352
11.08	-9.5989	0.1816	-0.4976	-0.0048	0.0433	-0.0119	33.9755	20.3150	-0.0146	0.4158	0.5812	0.4506	-0.5350
11.09	-9.5973	0.1927	-0.4895	0.0054	0.0408	-0.0196	34.2639	20.2686	-0.0409	0.4156	0.5814	0.4507	-0.5350
11.1	-9.6408	0.1930	-0.5068	0.0015	0.0370	-0.0147	33.9321	20.2116	0.0769	0.4155	0.5815	0.4507	-0.5349
11.11	-9.6852	0.1992	-0.5122	-0.0020	0.0251	-0.0165	33.8300	20.2293	0.0604	0.4154	0.5816	0.4507	-0.5348
11.12	-9.7045	0.2003	-0.5225	0.0007	0.0188	-0.0215	34.0954	20.2441	0.1141	0.4154	0.5816	0.4507	-0.5348
11.13	-9.6556	0.1918	-0.5071	-0.0034	0.0084	-0.0249	33.9176	20.1616	0.1660	0.4153	0.5817	0.4508	-0.5348
11.14	-9.6224	0.1982	-0.5153	-0.0020	-0.0051	-0.0270	33.9260	20.1291	-0.1771	0.4153	0.5817	0.4507	-0.5348
11.15	-9.5956	0.1896	-0.5147	-0.0055	-0.0063	-0.0300	34.0427	20.1384	0.0818	0.4152	0.5816	0.4507	-0.5349
11.16	-9.5650	0.1824	-0.5070	-0.0038	-0.0148	-0.0332	33.9840	20.1711	0.1769	0.4152	0.5816	0.4507	-0.5350
11.17	-9.5666	0.1825	-0.4950	-0.0077	-0.0054	-0.0319	34.1206	20.3221	0.1889	0.4152	0.5815	0.4508	-0.5350
11.18	-9.6025	0.1815	-0.4956	-0.0046	-0.0087	-0.0326	33.9954	20.4116	0.0174	0.4152	0.5815	0.4508	-0.5351
11.19	-9.6026	0.1737	-0.4629	-0.0015	-0.0108	-0.0320	34.0498	20.2688	0.0299	0.4151	0.5814	0.4507	-0.5352
11.2	-9.6316	0.1544	-0.4778	-0.0126	-0.0169	-0.0330	33.9255	20.1752	0.0222	0.4151	0.5814	0.4507	-0.5353
11.21	-9.5783	0.1304	-0.4674	-0.0127	-0.0240	-0.0307	34.0178	20.0205	-0.0243	0.4152	0.5813	0.4507	-0.5354
11.22	-9.5737	0.1051	-0.4742	-0.0147	-0.0252	-0.0325	34.0004	20.3018	0.0692	0.4152	0.5812	0.4507	-0.5355
11.23	-9.5494	0.0761	-0.4710	-0.0070	-0.0306	-0.0332	34.2428	20.2798	-0.1910	0.4152	0.5810	0.4507	-0.5356
11.24	-9.5491	0.0583	-0.4569	-0.0046	-0.0322	-0.0329	34.2421	20.1988	-0.0089	0.4152	0.5809	0.4507	-0.5357
11.25	-9.5734	0.0360	-0.4614	-0.0049	-0.0301	-0.0326	34.0815	20.2615	0.0715	0.4153	0.5808	0.4506	-0.5359
11.26	-9.5590	0.0376	-0.4431	-0.0024	-0.0230	-0.0299	34.1062	20.0584	0.2096	0.4153	0.5808	0.4506	-0.5360
11.27	-9.5392	0.0351	-0.4464	0.0049	-0.0328	-0.0271	34.1270	20.1111	-0.0950	0.4153	0.5807	0.4505	-0.5361
11.28	-9.5330	0.0408	-0.4319	0.0036	-0.0340	-0.0318	34.0004	20.1438	-0.1060	0.4153	0.5806	0.4504	-0.5363
11.29	-9.5520	0.0572	-0.4315	0.0186	-0.0363	-0.0285	34.0501	20.2472	-0.1304	0.4153	0.5805	0.4503	-0.5365
11.3	-9.5507	0.0765	-0.4093	0.0200	-0.0389	-0.0302	33.9353	20.1941	-0.0531	0.4152	0.5805	0.4502	-0.5367
11.31	-9.5629	0.0912	-0.4099	0.0172	-0.0360	-0.0306	34.0175	20.3599	-0.0547	0.4152	0.5804	0.4500	-0.5369
11.32	-9.5507	0.1107	-0.3881	0.0175	-0.0442	-0.0239	33.9046	20.4421	-0.2576	0.4152	0.5803	0.4499	-0.5371
11.33	-9.5766	0.1182	-0.3739	0.0183	-0.0350	-0.0284	33.9943	20.3521	-0.0316	0.4152	0.5803	0.4497	-0.5373
11.34	-9.5428	0.1175	-0.3625	0.0148	-0.0428	-0.0316	34.1060	20.3178	-0.0653	0.4152	0.5802	0.4496	-0.5375
11.35	-9.5214	0.1194	-0.3460	0.0182	-0.0425	-0.0262	33.9568	20.2907	-0.1610	0.4152	0.5801	0.4495	-0.5377
11.36	-9.5389	0.1183	-0.3723	0.0131	-0.0284	-0.0306	34.1676	20.4546	0.1392	0.4151	0.5800	0.4494	-0.5379
11.37	-9.4290	0.1220	-0.3449	0.0000	-0.0357	-0.0278	33.9018	20.4508	-0.0321	0.4151	0.5799	0.4493	-0.5380
11.38	-9.5111	0.1322	-0.3531	-0.0041	-0.0131	-0.0210	34.0245	20.1897	-0.3814	0.4152	0.5799	0.4493	-0.5381
11.39	-9.5110	0.1232	-0.3543	-0.0056	-0.0264	-0.0193	33.9217	20.2527	-0.0485	0.4152	0.5798	0.4492	-0.5382
11.4	-9.5184	0.1142	-0.3206	-0.0219	-0.0165	-0.0254	33.8302	20.1961	-0.1917	0.4153	0.5798	0.4492	-0.5382
11.41	-9.5516	0.1176	-0.3531	-0.0260	-0.0164	-0.0306	33.9894	20.2813	-0.4721	0.4153	0.5797	0.4492	-0.5383
11.42	-9.5448	0.1176	-0.3002	-0.0158	-0.0175	-0.0192	34.1217	20.3387	-0.2756	0.4154	0.5796	0.4492	-0.5383
11.43	-9.6045	0.1095	-0.3583	-0.0204	-0.0187	-0.0122	33.9009	20.1948	-0.3075	0.4154	0.5795	0.4492	-0.5383
11.44	-9.5310	0.1439	-0.2936	-0.0210	-0.0251	-0.0118	33.9577	20.5222	-0.1531	0.4156	0.5795	0.4491	-0.5384
11.45	-9.5768	0.1200	-0.3483	-0.0285	-0.0207	-0.0147	34.0628	20.3763	-0.0838	0.4157	0.5794	0.4491	-0.5384
11.46	-9.5001	0.1283	-0.3030	-0.0237	-0.0300	-0.0154	33.9035	20.1960	-0.2237	0.4158	0.5793	0.4491	-0.5384
11.47	-9.5552	0.1147	-0.3124	-0.0271	-0.0234	-0.0195	33.9508	20.2472	-0.0677	0.4159	0.5792	0.4491	-0.5385
11.48	-9.5809	0.0856	-0.3215	-0.0297	-0.0199	-0.0233	34.0426	20.3549	-0.3506	0.4160	0.5791	0.4491	-0.5385
11.49	-9.5718	0.0944	-0.3040	-0.0292	-0.0215	-0.0249	34.0040	20.2168	-0.0654	0.4161	0.5790	0.4491	-0.5385
11.5	-9.5836	0.1088	-0.3084	-0.0292	-0.0296	-0.0303	33.9511	20.3199	0.1096	0.4162	0.5788	0.4491	-0.5386
11.51	-9.5906	0.0855	-0.3084	-0.0289	-0.0276	-0.0338	33.8754	20.5641	-0.2180	0.4162	0.5787	0.4491	-0.5387
11.52	-9.5707	0.0783	-0.3018	-0.0290	-0.0233	-0.0311	33.8874	20.5779	-0.1839	0.4163	0.5785	0.4492	-0.5387
11.53	-9.5822	0.0398	-0.3120	-0.0289	-0.0326	-0.0415	34.3694	20.5831	0.0806	0.4164	0.5783	0.4492	-0.5388
11.54	-9.5756	0.0194	-0.2923	-0.0289	-0.0326	-0.0480	34.7745	20.5982	0.1525	0.4165	0.5781	0.4493	-0.5389
11.55	-9.5987	-0.0056	-0.2857	-0.0288	-0.0393	-0.0485	34.0765	20.7677	0.1016	0.4166	0.5779	0.4494	-0.5390
11.56	-9.5931	-0.0413	-0.2591	-0.0203	-0.0472	-0.0569	33.8702	20.6617	-0.2108	0.4166	0.5776	0.4494	-0.5392
11.57	-9.5853	-0.0594	-0.2500	-0.0123	-0.0480	-0.0570	33.8618	20.6406	-0.1562	0.4166	0.5774	0.4495	-0.5394
