time	acceleration_x	acceleration_y	acceleration_z	gyroscope_x	gyroscope_y	gyroscope_z	magnetometer_x	magnetometer_y	magnetometer_z	quaternion_w	quaternion_x	quaternion_y	quaternion_z
0	-9.8987	-0.0440	-0.8703	-0.0332	0.0114	-0.0699	15.9672	25.6071	3.3447	0.5773	0.3732	0.6407	-0.3423
0.01	-9.8794	-0.0751	-0.8630	-0.0520	0.0041	-0.0735	16.1731	25.5105	3.4993	0.5772	0.3729	0.6408	-0.3422
0.02	-9.8831	-0.1042	-0.8816	-0.0592	0.0004	-0.0716	16.1676	25.7317	3.4507	0.5773	0.3727	0.6410	-0.3421
0.03	-9.8731	-0.1421	-0.8779	-0.0605	0.0120	-0.0625	16.2920	25.5936	3.4623	0.5772	0.3724	0.6412	-0.3419
0.04	-9.8618	-0.1641	-0.8931	-0.0652	0.0092	-0.0580	16.0129	25.6228	3.3645	0.5773	0.3722	0.6414	-0.3417
0.05	-9.8483	-0.1597	-0.9053	-0.0598	0.0108	-0.0502	16.2368	25.7652	3.5203	0.5774	0.3721	0.6416	-0.3415
0.06	-9.8479	-0.1601	-0.9026	-0.0596	0.0100	-0.0504	16.5232	25.8165	3.6501	0.5774	0.3719	0.6417	-0.3413
0.07	-9.8674	-0.1595	-0.9053	-0.0597	0.0152	-0.0532	16.1779	25.6593	3.6362	0.5774	0.3717	0.6419	-0.3411
0.08	-9.8883	-0.1633	-0.9205	-0.0594	0.0085	-0.0511	15.9801	25.9209	3.5923	0.5775	0.3715	0.6421	-0.3409
0.09	-9.8770	-0.1733	-0.9186	-0.0555	0.0023	-0.0583	15.6647	25.4582	3.4681	0.5775	0.3713	0.6423	-0.3408
0.1	-9.8695	-0.1737	-0.9177	-0.0424	-0.0001	-0.0497	15.8088	25.7086	3.3984	0.5775	0.3712	0.6423	-0.3406
0.11	-9.8787	-0.1702	-0.9218	-0.0318	-0.0024	-0.0517	15.8832	25.8165	3.6577	0.5776	0.3711	0.6425	-0.3405
0.12	-9.8714	-0.1521	-0.9021	-0.0353	-0.0030	-0.0516	15.9313	25.5366	3.5895	0.5776	0.3709	0.6425	-0.3404
0.13	-9.8914	-0.1389	-0.8950	-0.0295	-0.0008	-0.0460	15.9922	25.7641	3.6268	0.5777	0.3708	0.6426	-0.3403
0.14	-9.8903	-0.1189	-0.8998	-0.0229	-0.0038	-0.0475	15.8929	25.5981	3.5972	0.5777	0.3707	0.6427	-0.3403
0.15	-9.8844	-0.1158	-0.9025	-0.0140	-0.0096	-0.0421	15.8278	25.4183	3.6331	0.5777	0.3707	0.6427	-0.3402
0.16	-9.8944	-0.1025	-0.9025	-0.0131	-0.0042	-0.0452	15.8618	25.6773	3.3770	0.5778	0.3707	0.6427	-0.3402
0.17	-9.8962	-0.0984	-0.8949	-0.0119	-0.0166	-0.0437	16.1893	25.4504	3.6313	0.5777	0.3706	0.6427	-0.3402
0.18	-9.8880	-0.0901	-0.8952	-0.0096	-0.0167	-0.0406	16.0366	25.3648	3.7004	0.5779	0.3706	0.6428	-0.3402
0.19	-9.8986	-0.0688	-0.8869	-0.0120	-0.0040	-0.0428	16.0542	25.4925	3.4536	0.5779	0.3705	0.6427	-0.3401
0.2	-9.8782	-0.0554	-0.8982	-0.0072	-0.0037	-0.0386	15.8679	25.4202	3.3401	0.5779	0.3705	0.6428	-0.3401
0.21	-9.8825	-0.0517	-0.8838	-0.0077	-0.0086	-0.0405	15.8863	25.5709	3.4300	0.5779	0.3705	0.6427	-0.3400
0.22	-9.9363	-0.0331	-0.8802	-0.0097	-0.0061	-0.0438	16.1186	25.3927	3.6673	0.5779	0.3705	0.6428	-0.3400
0.23	-9.9373	-0.0361	-0.8685	-0.0090	-0.0119	-0.0448	15.9863	25.5804	3.5925	0.5779	0.3704	0.6429	-0.3400
0.24	-9.9193	-0.0395	-0.8638	-0.0199	-0.0177	-0.0391	15.9765	25.6588	3.6214	0.5779	0.3704	0.6428	-0.3399
0.25	-9.9044	-0.0492	-0.8525	-0.0251	-0.0243	-0.0385	15.8713	25.6067	3.6089	0.5781	0.3703	0.6429	-0.3399
0.26	-9.9184	-0.0540	-0.8488	-0.0278	-0.0281	-0.0344	15.7570	25.8138	3.7489	0.5781	0.3702	0.6428	-0.3398
0.27	-9.8818	-0.0439	-0.8279	-0.0306	-0.0298	-0.0337	15.8778	25.9592	3.6093	0.5783	0.3701	0.6429	-0.3397
0.28	-9.8609	-0.0234	-0.8250	-0.0342	-0.0252	-0.0262	15.8916	25.6830	3.6029	0.5784	0.3700	0.6428	-0.3396
0.29	-9.8878	0.0079	-0.8265	-0.0280	-0.0246	-0.0248	15.8782	25.6421	3.7345	0.5786	0.3699	0.6428	-0.3395
0.3	-9.8895	-0.0037	-0.8282	-0.0267	-0.0218	-0.0326	15.8930	25.7550	3.6697	0.5787	0.3699	0.6428	-0.3394
0.31	-9.8655	-0.0322	-0.8246	-0.0366	-0.0157	-0.0333	15.8756	25.6482	3.8012	0.5788	0.3698	0.6428	-0.3392
0.32	-9.8610	-0.0406	-0.8262	-0.0168	-0.0206	-0.0360	15.8947	25.5178	3.7074	0.5789	0.3697	0.6428	-0.3392
0.33	-9.8609	-0.0446	-0.8234	-0.0150	-0.0174	-0.0397	15.9947	25.3139	3.4196	0.5790	0.3696	0.6427	-0.3392
0.34	-9.8552	-0.0456	-0.8226	-0.0130	-0.0169	-0.0370	15.9503	25.4404	3.5065	0.5790	0.3696	0.6428	-0.3391
0.35	-9.8638	-0.0384	-0.8208	-0.0078	-0.0140	-0.0370	16.0613	25.4733	3.5333	0.5790	0.3695	0.6427	-0.3391
0.36	-9.8674	-0.0229	-0.8159	-0.0126	-0.0151	-0.0356	16.0705	25.4233	3.4174	0.5792	0.3696	0.6427	-0.3391
0.37	-9.8483	-0.0278	-0.8028	-0.0193	-0.0170	-0.0349	16.1996	25.5322	3.7625	0.5792	0.3695	0.6427	-0.3390
0.38	-9.8441	-0.0315	-0.7993	-0.0103	-0.0156	-0.0401	16.0525	25.4805	3.5529	0.5793	0.3695	0.6427	-0.3390
0.39	-9.8309	-0.0258	-0.7960	-0.0082	-0.0121	-0.0393	16.0804	25.4400	3.4036	0.5793	0.3694	0.6427	-0.3389
0.4	-9.8293	-0.0314	-0.7962	-0.0077	-0.0054	-0.0364	15.8949	25.5800	3.5852	0.5793	0.3694	0.6427	-0.3389
0.41	-9.8513	-0.0333	-0.8220	-0.0086	-0.0083	-0.0391	15.9393	25.5170	3.4130	0.5794	0.3694	0.6427	-0.3389
0.42	-9.8613	-0.0418	-0.8274	-0.0084	-0.0024	-0.0447	15.9887	25.5613	3.5822	0.5793	0.3693	0.6427	-0.3388
0.43	-9.8563	-0.0298	-0.8317	-0.0084	-0.0046	-0.0469	15.8724	25.6153	3.8634	0.5794	0.3693	0.6428	-0.3389
0.44	-9.8594	-0.0289	-0.8333	0.0018	0.0012	-0.0485	15.8703	25.7026	3.8687	0.5793	0.3693	0.6428	-0.3388
0.45	-9.8559	-0.0312	-0.8516	0.0049	0.0062	-0.0505	15.9645	25.8957	3.4071	0.5793	0.3693	0.6429	-0.3389
0.46	-9.8603	-0.0329	-0.8493	0.0005	0.0041	-0.0493	15.9739	25.4851	3.5362	0.5792	0.3693	0.6428	-0.3388
0.47	-9.8618	-0.0338	-0.8436	-0.0022	0.0104	-0.0539	15.8671	25.4709	3.5016	0.5791	0.3693	0.6430	-0.3389
0.48	-9.8622	-0.0270	-0.8475	0.0029	0.0060	-0.0509	15.8733	25.5966	3.5867	0.5791	0.3693	0.6430	-0.3389
0.49	-9.8812	-0.0185	-0.8504	-0.0027	0.0204	-0.0531	15.9645	25.7288	3.6122	0.5790	0.3693	0.6431	-0.3388
0.5	-9.8986	-0.0176	-0.8591	-0.0068	0.0062	-0.0497	16.0723	25.7097	3.6292	0.5790	0.3693	0.6432	-0.3388
0.51	-9.8931	-0.0294	-0.8431	-0.0069	0.0054	-0.0490	15.9473	25.4634	3.5627	0.5789	0.3692	0.6432	-0.3388
0.52	-9.8692	-0.0340	-0.8463	-0.0118	0.0036	-0.0499	16.2038	25.4479	3.5356	0.5789	0.3692	0.6433	-0.3388
0.53	-9.8568	-0.0353	-0.8598	-0.0102	0.0105	-0.0482	15.9450	25.4770	3.4098	0.5788	0.3691	0.6433	-0.3387
0.54	-9.8334	-0.0479	-0.8526	-0.0101	0.0103	-0.0513	15.9918	25.2970	3.4856	0.5788	0.3691	0.6435	-0.3387
0.55	-9.8089	-0.0431	-0.8497	-0.0276	0.0073	-0.0537	16.2845	25.3465	3.8450	0.5788	0.3690	0.6436	-0.3386
0.56	-9.8140	-0.0419	-0.8421	-0.0289	0.0086	-0.0522	16.4254	25.6400	3.7787	0.5788	0.3689	0.6437	-0.3385
0.57	-9.8085	-0.0623	-0.8497	-0.0335	0.0097	-0.0559	16.3374	25.7297	3.7719	0.5788	0.3688	0.6438	-0.3384
0.58	-9.8290	-0.0617	-0.8585	-0.0322	0.0151	-0.0498	16.1595	25.4325	3.6889	0.5787	0.3687	0.6439	-0.3383
0.59	-9.8577	-0.0741	-0.8551	-0.0356	0.0197	-0.0482	15.9451	25.6392	3.5122	0.5787	0.3687	0.6441	-0.3382
0.6	-9.8360	-0.0727	-0.8622	-0.0311	0.0243	-0.0458	16.0132	25.3889	3.6748	0.5786	0.3686	0.6442	-0.3380
0.61	-9.8237	-0.0688	-0.8625	-0.0272	0.0315	-0.0499	15.8525	25.5886	3.4923	0.5786	0.3686	0.6444	-0.3379
0.62	-9.8425	-0.0641	-0.8830	-0.0349	0.0408	-0.0486	15.9679	25.8017	3.6375	0.5785	0.3685	0.6446	-0.3377
0.63	-9.8428	-0.0494	-0.8684	-0.0288	0.0465	-0.0557	15.9878	25.5687	3.5481	0.5784	0.3685	0.6448	-0.3375
0.64	-9.8533	-0.0593	-0.8815	-0.0319	0.0499	-0.0507	16.0017	25.5918	3.6594	0.5782	0.3684	0.6450	-0.3373
0.65	-9.8623	-0.0626	-0.8794	-0.0333	0.0490	-0.0539	15.9520	25.6354	3.7220	0.5781	0.3684	0.6453	-0.3372
0.66	-9.9165	-0.0772	-0.8964	-0.0336	0.0480	-0.0599	16.0902	25.6628	3.6312	0.5780	0.3684	0.6456	-0.3370
0.67	-9.9141	-0.0867	-0.9252	-0.0333	0.0454	-0.0576	15.9128	25.4847	3.8966	0.5777	0.3683	0.6458	-0.3368
0.68	-9.8913	-0.1051	-0.9313	-0.0369	0.0466	-0.0589	15.7878	25.6084	3.6434	0.5777	0.3682	0.6461	-0.3367
0.69	-9.8623	-0.1214	-0.9344	-0.0295	0.0405	-0.0434	15.9605	25.6133	3.7215	0.5776	0.3682	0.6462	-0.3365
0.7	-9.8928	-0.1308	-0.9600	-0.0323	0.0417	-0.0365	16.0694	25.5198	3.8959	0.5775	0.3682	0.6465	-0.3363
0.71	-9.8510	-0.1181	-0.9701	-0.0354	0.0391	-0.0355	16.0079	25.5138	3.6073	0.5774	0.3682	0.6466	-0.3360
0.72	-9.8476	-0.1019	-0.9742	-0.0300	0.0513	-0.0360	15.7148	25.5879	3.6519	0.5773	0.3682	0.6468	-0.3358
0.73	-9.8929	-0.0669	-1.0001	-0.0295	0.0417	-0.0390	15.9579	25.4909	3.6519	0.5772	0.3682	0.6470	-0.3356
0.74	-9.8738	-0.0783	-0.9937	-0.0148	0.0330	-0.0350	15.9909	25.8073	3.9318	0.5771	0.3682	0.6471	-0.3355
0.75	-9.8988	-0.0772	-1.0033	-0.0121	0.0384	-0.0356	16.0090	25.6604	3.9023	0.5771	0.3684	0.6473	-0.3354
0.76	-9.8975	-0.0751	-1.0071	-0.0295	0.0349	-0.0378	15.9289	25.5627	3.7985	0.5769	0.3683	0.6474	-0.3351
0.77	-9.9000	-0.0718	-1.0050	-0.0179	0.0357	-0.0440	15.9458	25.4225	3.8555	0.5769	0.3684	0.6476	-0.3350
0.78	-9.8953	-0.0705	-1.0105	-0.0096	0.0291	-0.0411	16.0137	25.4860	3.7260	0.5767	0.3684	0.6477	-0.3349
0.79	-9.8981	-0.0694	-1.0181	-0.0112	0.0214	-0.0422	15.8582	25.6593	3.7335	0.5767	0.3684	0.6478	-0.3348
0.8	-9.8933	-0.0607	-1.0254	-0.0087	0.0233	-0.0452	16.1094	25.6578	3.9110	0.5766	0.3684	0.6479	-0.3347
0.81	-9.8973	-0.0651	-1.0370	-0.0076	0.0215	-0.0434	15.9788	25.4985	3.9182	0.5765	0.3684	0.6480	-0.3346
0.82	-9.9051	-0.0494	-1.0441	-0.0082	0.0172	-0.0528	16.0016	25.6006	3.8410	0.5764	0.3685	0.6482	-0.3346
0.83	-9.8994	-0.0444	-1.0437	-0.0073	0.0188	-0.0521	16.0883	25.3613	3.7736	0.5763	0.3684	0.6483	-0.3345
0.84	-9.9044	-0.0486	-1.0423	-0.0088	0.0172	-0.0489	16.0898	25.7055	3.7715	0.5762	0.3685	0.6484	-0.3345
0.85	-9.9255	-0.0525	-1.0442	-0.0061	0.0154	-0.0498	15.9817	25.5871	3.9304	0.5760	0.3684	0.6484	-0.3344
0.86	-9.9372	-0.0481	-1.0563	-0.0059	0.0135	-0.0487	16.0023	25.6109	3.8227	0.5760	0.3685	0.6486	-0.3343
0.87	-9.8719	-0.0448	-1.0371	-0.0134	0.0049	-0.0454	15.9409	25.8844	3.7705	0.5760	0.3684	0.6487	-0.3343
0.88	-9.8414	-0.0427	-1.0157	-0.0079	-0.0014	-0.0473	15.9176	25.7893	3.7101	0.5760	0.3684	0.6487	-0.3343
0.89	-9.8807	-0.0326	-1.0352	-0.0081	0.0053	-0.0448	16.2318	25.6719	3.8160	0.5759	0.3684	0.6487	-0.3342
0.9	-9.8275	-0.0485	-1.0189	-0.0071	-0.0071	-0.0570	16.2206	25.6920	3.8791	0.5759	0.3683	0.6488	-0.3342
0.91	-9.8780	-0.0657	-1.0283	-0.0157	0.0020	-0.0583	15.9544	25.4718	3.8704	0.5759	0.3682	0.6489	-0.3342
0.92	-9.8913	-0.0740	-1.0147	-0.0211	-0.0018	-0.0518	16.0727	25.3092	3.8237	0.5759	0.3681	0.6489	-0.3341
0.93	-9.9000	-0.0771	-1.0235	-0.0274	-0.0122	-0.0457	16.1860	25.4524	3.8121	0.5760	0.3681	0.6490	-0.3341
0.94	-9.9004	-0.0665	-1.0254	-0.0147	-0.0064	-0.0457	16.1415	25.5489	3.7428	0.5760	0.3680	0.6490	-0.3340
0.95	-9.8904	-0.0612	-1.0314	-0.0204	-0.0151	-0.0468	15.9782	25.6892	3.8794	0.5761	0.3680	0.6491	-0.3340
0.96	-9.8918	-0.0638	-1.0277	-0.0284	-0.0200	-0.0463	16.0036	25.6107	3.6948	0.5761	0.3678	0.6490	-0.3339
0.97	-9.8725	-0.0798	-1.0158	-0.0243	-0.0166	-0.0460	15.9543	25.4391	3.7686	0.5762	0.3677	0.6491	-0.3339
0.98	-9.8384	-0.0843	-1.0190	-0.0144	-0.0172	-0.0512	16.0701	25.4768	3.6867	0.5763	0.3676	0.6491	-0.3339
0.99	-9.8241	-0.0832	-1.0178	-0.0191	-0.0133	-0.0506	15.9995	25.8228	3.9119	0.5763	0.3675	0.6491	-0.3338
1	-9.8281	-0.0906	-1.0126	-0.0173	-0.0148	-0.0530	15.9933	25.6386	3.9141	0.5764	0.3675	0.6492	-0.3338
1.01	-9.8393	-0.0994	-1.0198	-0.0122	-0.0093	-0.0501	15.9539	25.4695	4.0824	0.5764	0.3674	0.6491	-0.3338
1.02	-9.8588	-0.0952	-1.0184	-0.0197	-0.0160	-0.0433	15.8752	25.5680	3.8352	0.5765	0.3673	0.6492	-0.3338
1.03	-9.8465	-0.0902	-1.0097	-0.0143	-0.0130	-0.0419	15.9063	25.7100	3.9113	0.5765	0.3672	0.6491	-0.3337
1.04	-9.8456	-0.0846	-1.0048	-0.0126	-0.0107	-0.0407	16.0118	25.6484	3.9032	0.5766	0.3672	0.6492	-0.3337
1.05	-9.8622	-0.0797	-1.0131	-0.0155	-0.0061	-0.0437	16.3219	25.6124	3.9891	0.5766	0.3671	0.6492	-0.3336
1.06	-9.8387	-0.0864	-1.0040	-0.0125	-0.0159	-0.0355	16.6505	25.8044	4.2608	0.5767	0.3671	0.6492	-0.3336
1.07	-9.8665	-0.1018	-1.0028	-0.0031	-0.0040	-0.0335	16.4771	25.7336	3.9239	0.5767	0.3671	0.6492	-0.3335
1.08	-9.8888	-0.0889	-1.0095	-0.0016	0.0000	-0.0337	16.2613	25.6101	3.6999	0.5767	0.3672	0.6492	-0.3335
1.09	-9.8679	-0.0812	-1.0051	0.0027	-0.0070	-0.0337	16.1436	25.5089	3.8926	0.5767	0.3672	0.6492	-0.3335
1.1	-9.8810	-0.0733	-1.0104	0.0113	-0.0071	-0.0337	16.0672	25.4755	3.9171	0.5767	0.3672	0.6490	-0.3334
1.11	-9.8958	-0.0666	-1.0058	0.0041	-0.0042	-0.0336	15.9140	25.6028	3.7759	0.5767	0.3673	0.6491	-0.3334
1.12	-9.8737	-0.0526	-1.0109	-0.0003	-0.0056	-0.0337	15.7392	25.6905	4.0051	0.5767	0.3673	0.6490	-0.3334
1.13	-9.8582	-0.0407	-1.0133	0.0038	-0.0149	-0.0347	16.1091	25.5923	3.9091	0.5768	0.3674	0.6490	-0.3334
1.14	-9.8594	-0.0342	-1.0084	0.0096	-0.0122	-0.0366	15.8175	25.4607	3.9039	0.5768	0.3674	0.6489	-0.3334
1.15	-9.8557	-0.0315	-1.0069	0.0105	-0.0085	-0.0399	15.9463	25.6319	3.8782	0.5768	0.3674	0.6489	-0.3334
1.16	-9.8360	-0.0357	-1.0004	0.0115	-0.0184	-0.0363	15.8978	25.6665	3.7674	0.5768	0.3675	0.6489	-0.3335
1.17	-9.8467	-0.0144	-1.0036	0.0127	-0.0108	-0.0411	15.9445	25.6582	3.8347	0.5768	0.3675	0.6488	-0.3335
1.18	-9.8552	-0.0075	-1.0047	0.0053	-0.0094	-0.0497	15.9716	25.6535	3.8729	0.5769	0.3675	0.6488	-0.3336
1.19	-9.8554	-0.0089	-1.0006	-0.0023	-0.0069	-0.0468	15.8211	25.6875	3.8134	0.5768	0.3675	0.6488	-0.3335
1.2	-9.8476	0.0071	-0.9893	0.0049	-0.0045	-0.0518	15.6985	25.8065	3.9984	0.5768	0.3675	0.6489	-0.3336
1.21	-9.8703	0.0067	-1.0045	-0.0035	0.0005	-0.0610	15.7834	25.5250	3.9122	0.5767	0.3674	0.6488	-0.3336
1.22	-9.8614	0.0028	-1.0065	-0.0083	-0.0019	-0.0570	15.7849	25.6235	3.8541	0.5767	0.3674	0.6489	-0.3336
1.23	-9.8616	-0.0056	-1.0105	-0.0073	0.0024	-0.0588	15.8018	26.0006	3.8177	0.5767	0.3673	0.6490	-0.3336
1.24	-9.8623	-0.0004	-1.0117	-0.0075	-0.0008	-0.0607	15.7067	25.7271	4.0106	0.5766	0.3672	0.6490	-0.3336
1.25	-9.8624	-0.0084	-1.0041	-0.0092	0.0057	-0.0629	15.6855	25.6809	3.8847	0.5767	0.3672	0.6492	-0.3336
1.26	-9.8664	-0.0419	-1.0085	-0.0126	0.0002	-0.0639	15.7197	25.5837	3.8781	0.5766	0.3671	0.6492	-0.3336
1.27	-9.8788	-0.0385	-1.0166	-0.0278	0.0019	-0.0597	16.1237	25.4317	3.7531	0.5766	0.3670	0.6493	-0.3336
1.28	-9.8510	-0.0377	-1.0078	-0.0341	0.0014	-0.0594	16.1517	25.6024	4.0212	0.5766	0.3668	0.6494	-0.3335
1.29	-9.8527	-0.0420	-1.0087	-0.0350	0.0035	-0.0645	16.1391	25.4482	3.9786	0.5766	0.3667	0.6495	-0.3334
1.3	-9.8594	-0.0459	-1.0071	-0.0335	0.0063	-0.0672	16.1321	25.3521	3.8555	0.5766	0.3666	0.6497	-0.3333
1.31	-9.8476	-0.0531	-1.0058	-0.0347	0.0061	-0.0694	16.1729	25.5603	4.0201	0.5766	0.3664	0.6498	-0.3333
1.32	-9.8342	-0.0661	-1.0171	-0.0364	0.0044	-0.0668	15.9184	25.5869	3.8664	0.5766	0.3663	0.6499	-0.3332
1.33	-9.8855	-0.0825	-1.0130	-0.0359	0.0057	-0.0713	15.8846	25.5564	3.8148	0.5765	0.3661	0.6501	-0.3331
1.34	-9.8927	-0.0879	-1.0098	-0.0399	-0.0119	-0.0664	15.8074	25.3757	3.9692	0.5766	0.3659	0.6502	-0.3331
1.35	-9.8600	-0.1144	-1.0010	-0.0359	-0.0113	-0.0725	15.7732	25.5541	3.7006	0.5766	0.3657	0.6502	-0.3330
1.36	-9.8560	-0.1269	-1.0093	-0.0380	0.0031	-0.0689	15.8865	25.7002	3.6008	0.5766	0.3655	0.6504	-0.3330
1.37	-9.8441	-0.1487	-1.0075	-0.0341	0.0006	-0.0601	16.0617	25.6101	3.6532	0.5766	0.3654	0.6505	-0.3329
1.38	-9.8511	-0.1391	-1.0192	-0.0336	0.0075	-0.0569	15.9304	25.8003	3.8161	0.5766	0.3653	0.6507	-0.3328
1.39	-9.8226	-0.1143	-1.0256	-0.0337	0.0050	-0.0547	15.6656	26.0423	3.7786	0.5766	0.3651	0.6507	-0.3327
1.4	-9.8393	-0.1010	-1.0293	-0.0341	0.0154	-0.0598	15.7001	25.7406	3.8330	0.5766	0.3650	0.6509	-0.3326
1.41	-9.8587	-0.0947	-1.0445	-0.0341	0.0105	-0.0611	15.7192	25.7837	3.7179	0.5766	0.3649	0.6510	-0.3325
1.42	-9.8624	-0.1159	-1.0468	-0.0331	0.0121	-0.0598	15.5937	25.9414	3.7757	0.5765	0.3648	0.6511	-0.3323
1.43	-9.9019	-0.1296	-1.0437	-0.0341	0.0040	-0.0543	15.6414	25.9012	3.9166	0.5766	0.3647	0.6513	-0.3323
1.44	-9.8685	-0.1294	-1.0455	-0.0321	0.0029	-0.0602	15.6832	25.8017	4.0488	0.5766	0.3646	0.6514	-0.3322
1.45	-9.8111	-0.1297	-1.0402	-0.0324	0.0036	-0.0471	15.8224	25.3853	4.0585	0.5766	0.3645	0.6515	-0.3321
1.46	-9.8462	-0.1191	-1.0525	-0.0328	0.0019	-0.0427	15.9862	25.4979	3.8526	0.5766	0.3644	0.6515	-0.3319
1.47	-9.8407	-0.1213	-1.0469	-0.0286	0.0002	-0.0510	15.9679	25.6802	3.8346	0.5767	0.3643	0.6516	-0.3318
1.48	-9.8566	-0.1265	-1.0554	-0.0331	0.0103	-0.0484	16.1038	25.5258	4.1139	0.5767	0.3643	0.6517	-0.3317
1.49	-9.8512	-0.1356	-1.0622	-0.0300	0.0049	-0.0471	15.9565	25.6125	4.0063	0.5766	0.3642	0.6518	-0.3316
1.5	-9.8638	-0.1397	-1.0752	-0.0258	0.0090	-0.0490	15.8657	25.4371	3.8707	0.5767	0.3642	0.6520	-0.3315
1.51	-9.8909	-0.1293	-1.0784	-0.0243	0.0068	-0.0473	16.0183	25.6857	3.9449	0.5766	0.3641	0.6520	-0.3314
1.52	-9.8936	-0.1274	-1.0819	-0.0186	0.0080	-0.0471	15.8616	25.5424	4.0162	0.5766	0.3641	0.6522	-0.3313
1.53	-9.9149	-0.1286	-1.0793	-0.0079	0.0048	-0.0446	15.9708	25.3548	3.9736	0.5765	0.3640	0.6521	-0.3312
1.54	-9.9097	-0.1181	-1.0964	-0.0096	-0.0039	-0.0410	15.9486	25.6550	4.1374	0.5766	0.3640	0.6522	-0.3312
1.55	-9.8583	-0.1104	-1.0899	-0.0102	-0.0016	-0.0431	16.1906	25.8262	4.1783	0.5766	0.3640	0.6522	-0.3311
1.56	-9.8787	-0.1137	-1.0865	-0.0090	-0.0007	-0.0354	16.2514	25.8465	4.1746	0.5766	0.3640	0.6523	-0.3310
1.57	-9.9182	-0.0937	-1.0801	-0.0088	-0.0102	-0.0495	16.1527	25.8461	4.1627	0.5766	0.3640	0.6523	-0.3310
1.58	-9.8623	-0.1002	-1.0697	-0.0082	-0.0121	-0.0480	16.0261	25.7490	3.9995	0.5766	0.3640	0.6523	-0.3310
1.59	-9.8523	-0.1309	-1.0605	-0.0082	-0.0127	-0.0547	15.6302	25.5864	3.7286	0.5766	0.3639	0.6523	-0.3310
1.6	-9.8803	-0.1210	-1.0452	-0.0072	-0.0090	-0.0425	15.9257	25.6918	3.7439	0.5766	0.3639	0.6523	-0.3310
1.61	-9.8723	-0.1162	-1.0542	-0.0085	-0.0150	-0.0358	15.8958	25.5583	3.8033	0.5767	0.3639	0.6523	-0.3310
1.62	-9.8575	-0.1050	-1.0530	-0.0048	-0.0136	-0.0343	15.8978	25.4916	3.7548	0.5767	0.3639	0.6523	-0.3309
1.63	-9.8573	-0.0855	-1.0407	-0.0038	-0.0201	-0.0367	15.9069	25.7401	3.8549	0.5768	0.3639	0.6522	-0.3309
1.64	-9.8519	-0.0827	-1.0405	-0.0031	-0.0239	-0.0351	15.8842	25.5234	3.8020	0.5769	0.3639	0.6521	-0.3309
1.65	-9.8542	-0.0949	-1.0434	-0.0017	-0.0190	-0.0418	16.0560	25.4534	3.9765	0.5769	0.3639	0.6521	-0.3309
1.66	-9.8588	-0.1044	-1.0413	-0.0098	-0.0109	-0.0405	16.0474	25.4568	3.8372	0.5770	0.3639	0.6521	-0.3308
1.67	-9.8554	-0.1008	-1.0505	-0.0009	-0.0070	-0.0393	15.8624	25.4104	3.8258	0.5770	0.3638	0.6521	-0.3308
1.68	-9.8638	-0.0945	-1.0491	0.0014	-0.0142	-0.0366	16.1315	25.4818	3.8253	0.5771	0.3639	0.6521	-0.3308
1.69	-9.8634	-0.0796	-1.0388	-0.0044	-0.0137	-0.0438	16.0237	25.6178	3.8384	0.5771	0.3639	0.6520	-0.3308
1.7	-9.8650	-0.0777	-1.0433	-0.0062	-0.0155	-0.0380	15.9693	25.6197	3.7509	0.5772	0.3639	0.6521	-0.3308
1.71	-9.8730	-0.0741	-1.0454	0.0054	-0.0162	-0.0403	16.0126	25.6834	3.7955	0.5771	0.3639	0.6519	-0.3308
1.72	-9.8685	-0.0691	-1.0449	-0.0004	-0.0188	-0.0455	15.9540	25.7445	3.7508	0.5772	0.3639	0.6519	-0.3308
1.73	-9.8609	-0.0743	-1.0358	0.0015	-0.0186	-0.0383	16.0739	25.3677	4.0468	0.5772	0.3639	0.6519	-0.3308
1.74	-9.8618	-0.0683	-1.0255	-0.0017	-0.0131	-0.0429	15.9982	25.7429	3.9158	0.5772	0.3639	0.6518	-0.3308
1.75	-9.8607	-0.0750	-1.0267	-0.0100	-0.0163	-0.0393	15.9960	25.6195	3.9056	0.5774	0.3639	0.6519	-0.3308
1.76	-9.8638	-0.0493	-1.0161	-0.0059	-0.0111	-0.0382	15.9557	25.6548	3.9368	0.5773	0.3639	0.6518	-0.3307
1.77	-9.8555	-0.1028	-1.0479	-0.0079	-0.0160	-0.0336	15.8788	25.8401	3.8401	0.5774	0.3639	0.6518	-0.3307
1.78	-9.8630	-0.0415	-1.0044	0.0122	-0.0098	-0.0360	15.9061	25.5588	3.8032	0.5774	0.3639	0.6517	-0.3307
1.79	-9.8613	-0.0391	-1.0172	-0.0018	-0.0114	-0.0467	16.0154	25.6050	3.9644	0.5774	0.3639	0.6518	-0.3307
1.8	-9.8589	-0.0711	-1.0160	-0.0041	-0.0102	-0.0462	15.9423	25.7634	3.8428	0.5774	0.3639	0.6518	-0.3307
1.81	-9.8623	-0.0465	-1.0169	-0.0051	-0.0044	-0.0477	15.8648	25.7088	3.8120	0.5774	0.3639	0.6518	-0.3307
1.82	-9.8607	-0.0593	-1.0150	-0.0037	-0.0130	-0.0401	16.0255	25.5631	3.8321	0.5775	0.3639	0.6518	-0.3307
1.83	-9.8617	-0.0511	-1.0089	-0.0091	-0.0041	-0.0424	16.0791	25.6131	3.6819	0.5775	0.3639	0.6518	-0.3306
1.84	-9.8605	-0.0656	-1.0070	-0.0080	-0.0122	-0.0503	15.8835	25.5629	3.8263	0.5775	0.3638	0.6518	-0.3306
1.85	-9.8630	-0.0637	-1.0217	-0.0062	-0.0148	-0.0510	15.9811	25.6933	3.7354	0.5775	0.3638	0.6517	-0.3306
1.86	-9.8371	-0.0732	-1.0203	-0.0118	-0.0072	-0.0548	16.1136	25.6615	3.8326	0.5776	0.3637	0.6518	-0.3306
1.87	-9.8197	-0.0783	-1.0136	-0.0084	-0.0117	-0.0461	16.0311	25.5664	3.6514	0.5775	0.3637	0.6518	-0.3306
1.88	-9.8270	-0.0802	-1.0294	-0.0084	-0.0059	-0.0435	15.9198	25.6056	3.6806	0.5776	0.3637	0.6519	-0.3305
1.89	-9.8247	-0.0791	-1.0250	-0.0134	0.0016	-0.0463	15.7783	25.5784	3.8771	0.5775	0.3637	0.6519	-0.3304
1.9	-9.8360	-0.0859	-1.0248	-0.0289	-0.0041	-0.0467	15.9854	25.6059	3.8807	0.5776	0.3636	0.6520	-0.3303
1.91	-9.8445	-0.0921	-1.0245	-0.0236	0.0027	-0.0489	16.1250	25.5709	3.8240	0.5776	0.3635	0.6521	-0.3302
1.92	-9.8458	-0.1045	-1.0214	-0.0221	0.0063	-0.0468	15.9906	25.6756	3.7439	0.5775	0.3635	0.6521	-0.3301
1.93	-9.8735	-0.1109	-1.0252	-0.0311	0.0059	-0.0480	15.7722	25.7806	3.6116	0.5776	0.3634	0.6523	-0.3300
1.94	-9.8845	-0.1122	-1.0530	-0.0175	0.0087	-0.0473	15.8602	25.6197	3.9670	0.5775	0.3634	0.6524	-0.3298
1.95	-9.8539	-0.1090	-1.0551	-0.0134	0.0097	-0.0464	15.9268	25.7931	4.0353	0.5776	0.3634	0.6525	-0.3298
1.96	-9.8504	-0.0939	-1.0652	-0.0096	0.0106	-0.0460	15.8733	25.6611	3.8983	0.5774	0.3633	0.6525	-0.3296
1.97	-9.8654	-0.0885	-1.0651	-0.0104	0.0080	-0.0473	16.0559	25.5848	3.6855	0.5774	0.3633	0.6527	-0.3295
1.98	-9.8541	-0.0789	-1.0598	-0.0060	0.0059	-0.0479	16.0615	25.5759	3.7857	0.5774	0.3633	0.6528	-0.3294
1.99	-9.8427	-0.0890	-1.0448	-0.0070	0.0082	-0.0481	16.1774	25.6816	3.9259	0.5773	0.3633	0.6528	-0.3293
2	-9.9071	-0.0959	-1.0482	-0.0069	0.0048	-0.0474	16.0571	25.6759	3.9036	0.5773	0.3633	0.6530	-0.3293
2.01	-9.9083	-0.0997	-1.0411	-0.0113	-0.0044	-0.0386	15.8391	25.5657	3.9413	0.5773	0.3633	0.6530	-0.3291
2.02	-9.9025	-0.1105	-1.0403	-0.0085	-0.0078	-0.0385	16.2050	25.6087	3.8397	0.5773	0.3633	0.6531	-0.3290
2.03	-9.8785	-0.1160	-1.0438	-0.0084	-0.0076	-0.0368	16.0485	25.5780	3.8232	0.5772	0.3632	0.6531	-0.3289
2.04	-9.8696	-0.1248	-1.0482	-0.0125	-0.0186	-0.0356	16.0135	25.7123	3.8109	0.5774	0.3632	0.6532	-0.3288
2.05	-9.8638	-0.1107	-1.0572	-0.0084	-0.0094	-0.0319	16.4316	25.6658	3.8669	0.5774	0.3632	0.6532	-0.3287
2.06	-9.8515	-0.0907	-1.0555	-0.0030	-0.0014	-0.0343	16.4611	25.9980	3.9936	0.5774	0.3632	0.6532	-0.3286
2.07	-9.8622	-0.0703	-1.0611	-0.0039	-0.0028	-0.0366	16.2181	25.7534	4.0785	0.5774	0.3633	0.6533	-0.3285
2.08	-9.8614	-0.0632	-1.0601	-0.0111	-0.0044	-0.0374	15.9937	25.5501	3.9039	0.5774	0.3633	0.6533	-0.3284
2.09	-9.8616	-0.0830	-1.0666	-0.0068	-0.0152	-0.0397	15.7100	25.3966	3.6501	0.5775	0.3633	0.6533	-0.3283
2.1	-9.8741	-0.0721	-1.0659	-0.0082	-0.0057	-0.0418	15.6861	25.6150	3.8096	0.5774	0.3632	0.6533	-0.3282
2.11	-9.8694	-0.0642	-1.0631	-0.0068	-0.0064	-0.0463	15.8469	25.7331	3.7739	0.5775	0.3632	0.6534	-0.3281
2.12	-9.8568	-0.0566	-1.0633	-0.0087	-0.0072	-0.0432	15.8976	25.7658	3.9720	0.5775	0.3632	0.6535	-0.3280
2.13	-9.8551	-0.0396	-1.0549	-0.0110	-0.0100	-0.0456	15.8864	25.8256	3.9106	0.5775	0.3631	0.6535	-0.3279
2.14	-9.8577	-0.0523	-1.0564	-0.0069	-0.0080	-0.0473	15.8909	25.6541	3.7574	0.5775	0.3631	0.6536	-0.3279
2.15	-9.8712	-0.0420	-1.0596	-0.0077	-0.0066	-0.0438	15.7596	25.8935	3.8135	0.5775	0.3630	0.6536	-0.3278
2.16	-9.8741	-0.0373	-1.0615	-0.0081	-0.0047	-0.0491	15.8664	25.6774	3.9283	0.5775	0.3630	0.6537	-0.3277
2.17	-9.8665	-0.0345	-1.0477	-0.0194	-0.0079	-0.0482	15.9074	25.5830	3.7140	0.5775	0.3629	0.6537	-0.3276
2.18	-9.8941	-0.0436	-1.0574	-0.0145	-0.0083	-0.0485	15.7648	25.7080	3.4502	0.5776	0.3629	0.6539	-0.3275
2.19	-9.8972	-0.0491	-1.0642	-0.0078	-0.0141	-0.0482	15.6863	25.7450	3.7441	0.5776	0.3628	0.6539	-0.3274
2.2	-9.8978	-0.0495	-1.0511	-0.0141	-0.0183	-0.0472	15.7585	25.3834	3.7651	0.5777	0.3628	0.6540	-0.3274
2.21	-9.8996	-0.0637	-1.0584	-0.0190	-0.0180	-0.0445	15.9946	25.4289	3.5507	0.5776	0.3626	0.6539	-0.3272
2.22	-9.8687	-0.0716	-1.0483	-0.0239	-0.0250	-0.0410	16.0864	25.6247	3.9222	0.5778	0.3626	0.6540	-0.3272
2.23	-9.8529	-0.0669	-1.0337	-0.0151	-0.0258	-0.0501	16.0478	25.5767	3.7547	0.5778	0.3625	0.6540	-0.3271
2.24	-9.9278	-0.0609	-1.0418	-0.0061	-0.0194	-0.0433	16.0928	25.6011	3.6709	0.5778	0.3624	0.6540	-0.3270
2.25	-9.9112	-0.0615	-1.0396	-0.0126	-0.0309	-0.0552	15.9271	25.4878	3.8088	0.5780	0.3623	0.6541	-0.3270
2.26	-9.8693	-0.0779	-1.0281	-0.0128	-0.0232	-0.0608	16.1963	25.5091	3.8077	0.5780	0.3622	0.6541	-0.3270
2.27	-9.9081	-0.0816	-1.0190	-0.0149	-0.0286	-0.0522	15.9596	25.4958	3.7204	0.5781	0.3621	0.6542	-0.3270
2.28	-9.9012	-0.0808	-1.0153	-0.0182	-0.0408	-0.0441	15.7640	25.5676	3.6836	0.5781	0.3619	0.6541	-0.3269
2.29	-9.8890	-0.0788	-1.0011	-0.0142	-0.0364	-0.0392	15.8038	25.7414	3.9271	0.5783	0.3619	0.6541	-0.3268
2.3	-9.8626	-0.0637	-1.0125	-0.0233	-0.0404	-0.0485	15.6563	25.7376	3.6681	0.5784	0.3618	0.6541	-0.3268
2.31	-9.8373	-0.0647	-1.0086	-0.0289	-0.0287	-0.0503	15.8028	25.8661	3.7669	0.5785	0.3616	0.6541	-0.3267
2.32	-9.8286	-0.0723	-1.0078	-0.0203	-0.0274	-0.0491	15.8940	25.8199	3.9037	0.5786	0.3616	0.6541	-0.3266
2.33	-9.8163	-0.0835	-1.0334	-0.0285	-0.0226	-0.0485	15.8904	25.6741	3.7060	0.5786	0.3614	0.6542	-0.3265
2.34	-9.8051	-0.0827	-1.0336	-0.0217	-0.0187	-0.0419	15.8826	25.7965	3.7603	0.5787	0.3614	0.6542	-0.3264
2.35	-9.8277	-0.0812	-1.0367	-0.0102	-0.0080	-0.0494	15.9036	25.7618	4.1532	0.5787	0.3613	0.6542	-0.3263
2.36	-9.8553	-0.0818	-1.0437	-0.0132	-0.0107	-0.0492	15.7569	25.7425	3.7307	0.5787	0.3613	0.6543	-0.3262
2.37	-9.8574	-0.0896	-1.0416	-0.0102	-0.0156	-0.0503	15.8670	25.8404	3.7954	0.5787	0.3613	0.6544	-0.3262
2.38	-9.8869	-0.0944	-1.0440	-0.0064	-0.0170	-0.0514	15.8800	25.7458	3.8486	0.5787	0.3612	0.6544	-0.3261
2.39	-9.8803	-0.1000	-1.0375	-0.0055	-0.0214	-0.0500	15.9971	25.4526	3.6720	0.5787	0.3612	0.6544	-0.3261
2.4	-9.8674	-0.1039	-1.0300	-0.0063	-0.0246	-0.0436	15.9335	25.5261	3.6965	0.5788	0.3612	0.6544	-0.3261
2.41	-9.8655	-0.1084	-1.0286	-0.0076	-0.0262	-0.0452	15.9031	25.6807	3.7386	0.5789	0.3611	0.6544	-0.3260
2.42	-9.8598	-0.0979	-1.0231	-0.0018	-0.0231	-0.0486	16.1052	25.5927	3.4887	0.5788	0.3611	0.6544	-0.3260
2.43	-9.8618	-0.0927	-1.0249	0.0027	-0.0246	-0.0481	15.9305	25.5899	3.6642	0.5789	0.3611	0.6544	-0.3260
2.44	-9.8643	-0.0872	-1.0216	0.0071	-0.0250	-0.0467	15.8782	25.5744	3.8044	0.5789	0.3611	0.6544	-0.3260
2.45	-9.8904	-0.0742	-1.0206	0.0035	-0.0229	-0.0469	15.8913	25.6604	3.8663	0.5790	0.3611	0.6544	-0.3260
2.46	-9.8802	-0.0741	-1.0242	0.0096	-0.0301	-0.0459	15.8866	25.6926	3.7932	0.5789	0.3610	0.6543	-0.3260
2.47	-9.8673	-0.0723	-1.0078	0.0109	-0.0291	-0.0397	15.8843	25.5418	3.5580	0.5790	0.3611	0.6543	-0.3260
2.48	-9.8819	-0.0639	-1.0034	0.0005	-0.0292	-0.0449	15.8967	25.6589	3.8126	0.5791	0.3611	0.6542	-0.3260
2.49	-9.8581	-0.0583	-1.0031	-0.0049	-0.0337	-0.0526	15.8241	25.6785	3.7651	0.5791	0.3610	0.6542	-0.3260
2.5	-9.8636	-0.0487	-0.9965	0.0036	-0.0271	-0.0539	15.6667	25.7728	3.8121	0.5792	0.3610	0.6543	-0.3261
2.51	-9.8665	-0.0522	-0.9918	0.0024	-0.0327	-0.0541	15.7716	25.6253	3.7379	0.5792	0.3609	0.6542	-0.3261
2.52	-9.8623	-0.0609	-0.9856	-0.0033	-0.0281	-0.0516	15.7900	25.7739	3.6791	0.5793	0.3609	0.6542	-0.3261
2.53	-9.8471	-0.0590	-0.9830	-0.0074	-0.0289	-0.0574	15.8942	25.6715	3.6997	0.5792	0.3608	0.6541	-0.3261
2.54	-9.8407	-0.0710	-0.9783	-0.0095	-0.0318	-0.0537	15.9824	25.6797	3.7002	0.5793	0.3607	0.6542	-0.3261
2.55	-9.8239	-0.0817	-0.9828	-0.0149	-0.0326	-0.0515	16.1920	25.8545	3.6762	0.5794	0.3606	0.6542	-0.3261
2.56	-9.8316	-0.0936	-0.9756	-0.0267	-0.0268	-0.0486	16.2705	26.1011	3.7657	0.5795	0.3605	0.6542	-0.3260
2.57	-9.8404	-0.1126	-0.9692	-0.0368	-0.0288	-0.0470	16.2189	25.6631	3.8524	0.5796	0.3604	0.6542	-0.3259
2.58	-9.8155	-0.1297	-0.9785	-0.0306	-0.0205	-0.0391	16.1016	25.5139	3.6563	0.5797	0.3603	0.6543	-0.3257
2.59	-9.8365	-0.1432	-0.9918	-0.0323	-0.0235	-0.0344	15.9016	25.4528	3.7558	0.5798	0.3602	0.6543	-0.3256
2.6	-9.8529	-0.1428	-1.0034	-0.0350	-0.0175	-0.0354	16.1114	25.5041	3.6148	0.5798	0.3601	0.6543	-0.3254
2.61	-9.8517	-0.1648	-1.0092	-0.0337	-0.0113	-0.0338	15.9287	25.4900	3.7754	0.5800	0.3601	0.6544	-0.3252
2.62	-9.8591	-0.1785	-1.0175	-0.0297	-0.0100	-0.0301	16.0581	25.4184	3.6496	0.5800	0.3600	0.6544	-0.3250
2.63	-9.8589	-0.1686	-1.0224	-0.0259	-0.0103	-0.0305	16.0196	25.6169	3.6929	0.5801	0.3600	0.6545	-0.3249
2.64	-9.8446	-0.1704	-1.0258	-0.0223	-0.0141	-0.0347	15.8643	25.5855	3.8355	0.5801	0.3600	0.6545	-0.3247
2.65	-9.8636	-0.1738	-1.0202	-0.0109	-0.0124	-0.0304	15.9144	25.5966	3.6894	0.5802	0.3600	0.6545	-0.3246
2.66	-9.8993	-0.1630	-1.0121	-0.0054	-0.0178	-0.0346	16.0623	25.5969	3.5398	0.5802	0.3600	0.6545	-0.3245
2.67	-9.8771	-0.1496	-1.0282	0.0086	-0.0140	-0.0336	16.0777	25.5850	3.6224	0.5802	0.3601	0.6545	-0.3245
2.68	-9.8566	-0.1240	-1.0234	0.0143	-0.0124	-0.0332	15.9688	25.6153	3.7392	0.5803	0.3602	0.6545	-0.3245
2.69	-9.8548	-0.0989	-1.0115	0.0184	-0.0107	-0.0346	15.9798	25.4011	3.7448	0.5802	0.3603	0.6544	-0.3245
2.7	-9.8701	-0.0807	-1.0075	0.0176	-0.0155	-0.0278	15.9912	25.5484	3.6410	0.5802	0.3604	0.6545	-0.3245
2.71	-9.8592	-0.0678	-1.0073	0.0176	-0.0166	-0.0314	15.9680	25.7110	3.7192	0.5802	0.3604	0.6543	-0.3244
2.72	-9.8834	-0.0772	-0.9981	0.0169	-0.0146	-0.0322	15.8943	25.5554	3.7257	0.5802	0.3606	0.6543	-0.3244
2.73	-9.9373	-0.0670	-0.9888	0.0220	-0.0175	-0.0297	15.8442	25.8071	3.7337	0.5802	0.3607	0.6543	-0.3244
2.74	-9.8825	-0.0801	-0.9812	0.0151	-0.0265	-0.0341	15.7782	25.6612	3.6375	0.5802	0.3607	0.6542	-0.3244
2.75	-9.8736	-0.0812	-0.9792	0.0152	-0.0247	-0.0324	15.9161	25.7106	3.6254	0.5803	0.3608	0.6542	-0.3244
2.76	-9.8854	-0.0806	-0.9729	0.0178	-0.0283	-0.0225	15.8955	25.7600	3.6222	0.5803	0.3609	0.6541	-0.3244
2.77	-9.8493	-0.0814	-0.9671	0.0173	-0.0319	-0.0147	16.0984	25.6065	3.4230	0.5804	0.3610	0.6540	-0.3244
2.78	-9.8184	-0.0609	-0.9679	0.0185	-0.0269	-0.0089	15.9645	25.4922	3.5550	0.5804	0.3611	0.6538	-0.3243
2.79	-9.8214	-0.0427	-0.9670	0.0183	-0.0225	-0.0151	15.9984	25.5264	3.6458	0.5805	0.3613	0.6537	-0.3243
2.8	-9.8267	-0.0367	-0.9712	0.0128	-0.0183	-0.0153	15.9349	25.4597	3.6436	0.5805	0.3614	0.6536	-0.3242
2.81	-9.8263	-0.0355	-0.9695	0.0099	-0.0194	-0.0193	15.8559	25.6850	3.5950	0.5805	0.3615	0.6536	-0.3242
2.82	-9.8459	-0.0421	-0.9714	0.0181	-0.0166	-0.0191	16.0205	25.5832	3.8788	0.5806	0.3617	0.6535	-0.3241
2.83	-9.8616	-0.0446	-0.9738	0.0168	-0.0143	-0.0199	16.0658	25.3618	3.5968	0.5806	0.3618	0.6534	-0.3241
2.84	-9.8605	-0.0282	-0.9561	0.0158	-0.0214	-0.0204	15.8874	25.4758	3.5930	0.5807	0.3619	0.6534	-0.3241
2.85	-9.8558	-0.0058	-0.9572	0.0243	-0.0192	-0.0208	15.8917	25.6804	3.6408	0.5806	0.3620	0.6532	-0.3240
2.86	-9.8601	0.0048	-0.9628	0.0191	-0.0146	-0.0280	15.9971	25.6901	3.6479	0.5807	0.3621	0.6532	-0.3240
2.87	-9.8560	0.0165	-0.9632	0.0201	-0.0123	-0.0335	16.1481	25.5150	3.5674	0.5806	0.3622	0.6532	-0.3240
2.88	-9.8475	0.0213	-0.9640	0.0180	-0.0126	-0.0334	16.1196	25.5039	3.6071	0.5806	0.3623	0.6532	-0.3240
2.89	-9.8649	0.0312	-0.9696	0.0156	-0.0110	-0.0315	15.8510	25.5884	3.6503	0.5806	0.3624	0.6531	-0.3240
2.9	-9.8702	0.0335	-0.9720	0.0194	-0.0091	-0.0348	15.9249	25.4991	3.3741	0.5806	0.3625	0.6531	-0.3240
2.91	-9.8791	0.0353	-0.9724	0.0178	-0.0091	-0.0329	16.0258	25.6653	3.5306	0.5806	0.3626	0.6531	-0.3240
2.92	-9.8882	0.0385	-0.9701	0.0181	-0.0106	-0.0348	15.8612	25.3825	3.6191	0.5805	0.3626	0.6530	-0.3240
2.93	-9.8809	0.0459	-0.9695	0.0080	-0.0113	-0.0399	16.0300	25.6494	3.6640	0.5806	0.3627	0.6531	-0.3240
2.94	-9.8681	0.0345	-0.9663	0.0124	-0.0100	-0.0347	16.0625	25.6795	3.5696	0.5805	0.3628	0.6530	-0.3240
2.95	-9.8615	0.0385	-0.9691	0.0108	-0.0193	-0.0403	16.1437	25.4735	3.5446	0.5806	0.3628	0.6530	-0.3240
2.96	-9.8888	0.0561	-0.9670	0.0124	-0.0175	-0.0381	16.1675	25.6310	3.5217	0.5805	0.3628	0.6529	-0.3240
2.97	-9.9068	0.0580	-0.9671	0.0121	-0.0146	-0.0437	16.0444	25.4239	3.5990	0.5805	0.3629	0.6529	-0.3240
2.98	-9.8670	0.0489	-0.9670	-0.0027	-0.0177	-0.0520	16.0786	25.4901	3.7700	0.5805	0.3629	0.6530	-0.3240
2.99	-9.8939	0.0283	-0.9634	-0.0061	-0.0164	-0.0503	16.0761	25.4351	3.3910	0.5805	0.3628	0.6529	-0.3239
3	-9.8892	0.0134	-0.9535	-0.0088	-0.0219	-0.0545	15.9574	25.4110	3.6119	0.5806	0.3628	0.6530	-0.3240
3.01	-9.8765	0.0035	-0.9496	-0.0036	-0.0232	-0.0472	16.0205	25.5578	3.5933	0.5806	0.3627	0.6530	-0.3239
3.02	-9.8692	0.0110	-0.9475	0.0029	-0.0236	-0.0471	16.1004	25.6668	3.5281	0.5807	0.3627	0.6530	-0.3240
3.03	-9.8735	0.0165	-0.9384	-0.0064	-0.0229	-0.0452	16.0414	25.7060	3.5305	0.5806	0.3626	0.6529	-0.3239
3.04	-9.8725	0.0173	-0.9422	-0.0040	-0.0249	-0.0466	16.2200	25.3253	3.5807	0.5808	0.3626	0.6530	-0.3239
3.05	-9.8587	0.0061	-0.9359	-0.0065	-0.0226	-0.0499	16.4154	25.7031	3.6256	0.5808	0.3625	0.6529	-0.3239
3.06	-9.8537	-0.0108	-0.9366	-0.0051	-0.0192	-0.0556	16.4567	25.5784	3.4214	0.5808	0.3625	0.6529	-0.3239
3.07	-9.8412	-0.0115	-0.9354	0.0010	-0.0123	-0.0612	16.2325	25.6900	3.5523	0.5808	0.3624	0.6530	-0.3239
3.08	-9.8272	-0.0029	-0.9217	-0.0042	-0.0235	-0.0517	16.0635	25.6920	3.5876	0.5808	0.3624	0.6530	-0.3239
3.09	-9.8487	-0.0076	-0.9276	-0.0044	-0.0164	-0.0537	15.8374	25.6674	3.5189	0.5809	0.3623	0.6530	-0.3240
3.1	-9.8445	0.0025	-0.9099	-0.0073	-0.0145	-0.0613	15.6933	25.7601	3.5118	0.5808	0.3622	0.6530	-0.3239
3.11	-9.8474	-0.0108	-0.9165	-0.0017	-0.0145	-0.0590	15.8447	25.4626	3.6139	0.5808	0.3622	0.6531	-0.3240
3.12	-9.8441	-0.0096	-0.9147	-0.0055	-0.0120	-0.0596	16.0937	25.6028	3.6353	0.5808	0.3621	0.6531	-0.3240
3.13	-9.8473	-0.0075	-0.9246	-0.0065	-0.0139	-0.0541	15.9827	25.4185	3.5070	0.5808	0.3620	0.6532	-0.3240
3.14	-9.8551	-0.0202	-0.9225	-0.0044	-0.0114	-0.0570	16.0718	25.4949	3.6407	0.5808	0.3620	0.6532	-0.3239
3.15	-9.8530	-0.0356	-0.9319	-0.0075	-0.0119	-0.0551	16.3294	25.4870	3.5518	0.5808	0.3619	0.6532	-0.3239
3.16	-9.8670	-0.0157	-0.9342	-0.0076	-0.0058	-0.0572	16.1266	25.3194	3.3746	0.5808	0.3619	0.6533	-0.3239
3.17	-9.8644	-0.0343	-0.9343	-0.0105	-0.0078	-0.0456	15.9535	25.3739	3.4818	0.5808	0.3618	0.6533	-0.3238
3.18	-9.8879	-0.0339	-0.9329	-0.0091	-0.0141	-0.0455	16.1094	25.3640	3.1647	0.5809	0.3618	0.6534	-0.3238
3.19	-9.8993	-0.0416	-0.9393	-0.0075	-0.0158	-0.0474	16.0342	25.4784	3.3467	0.5809	0.3617	0.6534	-0.3238
3.2	-9.8975	-0.0348	-0.9412	-0.0070	-0.0141	-0.0490	16.1671	25.4374	3.5101	0.5809	0.3617	0.6535	-0.3238
3.21	-9.8914	-0.0195	-0.9461	-0.0029	-0.0203	-0.0520	16.1530	25.4571	3.6350	0.5809	0.3616	0.6534	-0.3237
3.22	-9.8882	-0.0426	-0.9510	0.0061	-0.0189	-0.0530	15.9561	25.4495	3.4517	0.5809	0.3616	0.6534	-0.3238
3.23	-9.8973	-0.0162	-0.9485	0.0086	-0.0170	-0.0533	16.3411	25.6256	3.4624	0.5809	0.3616	0.6534	-0.3238
3.24	-9.8805	-0.0163	-0.9581	0.0143	-0.0219	-0.0603	15.9888	25.6205	3.5656	0.5809	0.3615	0.6533	-0.3239
3.25	-9.8854	0.0028	-0.9596	0.0177	-0.0211	-0.0619	15.8738	25.6329	3.2656	0.5809	0.3616	0.6534	-0.3240
3.26	-9.8856	0.0218	-0.9482	0.0160	-0.0171	-0.0704	16.0611	25.6059	3.4061	0.5808	0.3615	0.6534	-0.3241
3.27	-9.8682	0.0189	-0.9389	0.0170	-0.0185	-0.0698	16.0518	25.6859	3.6390	0.5808	0.3615	0.6534	-0.3243
3.28	-9.8468	0.0313	-0.9308	0.0112	-0.0177	-0.0781	15.7661	25.8164	3.4960	0.5807	0.3613	0.6533	-0.3243
3.29	-9.8463	0.0279	-0.9394	0.0083	-0.0146	-0.0840	15.8510	25.5675	3.4113	0.5807	0.3612	0.6535	-0.3245
3.3	-9.8403	0.0346	-0.9407	0.0066	-0.0133	-0.0799	15.8769	25.6876	3.7850	0.5807	0.3611	0.6535	-0.3246
3.31	-9.8357	0.0155	-0.9330	-0.0077	-0.0127	-0.0854	15.7442	25.7405	3.7332	0.5806	0.3609	0.6536	-0.3247
3.32	-9.8449	0.0298	-0.9341	-0.0085	-0.0179	-0.0814	16.0533	25.5953	3.4813	0.5806	0.3608	0.6536	-0.3248
3.33	-9.8455	-0.0068	-0.9338	-0.0136	-0.0222	-0.0852	16.0377	25.4007	3.3928	0.5806	0.3606	0.6537	-0.3248
3.34	-9.8504	-0.0245	-0.9323	-0.0284	-0.0087	-0.0818	15.9644	25.4911	3.2900	0.5807	0.3604	0.6538	-0.3249
3.35	-9.8391	-0.0389	-0.9368	-0.0363	-0.0026	-0.0787	15.9957	25.3259	3.4623	0.5806	0.3601	0.6539	-0.3248
3.36	-9.8451	-0.0568	-0.9404	-0.0339	-0.0143	-0.0705	15.8676	25.5065	3.2757	0.5807	0.3600	0.6541	-0.3248
3.37	-9.8609	-0.0674	-0.9466	-0.0363	-0.0030	-0.0715	16.0812	25.3470	3.2786	0.5807	0.3598	0.6542	-0.3247
3.38	-9.8533	-0.1010	-0.9404	-0.0353	-0.0039	-0.0704	16.0122	25.5072	3.6603	0.5807	0.3596	0.6543	-0.3246
3.39	-9.8625	-0.1037	-0.9482	-0.0349	-0.0090	-0.0703	15.8676	25.5522	3.4723	0.5807	0.3594	0.6544	-0.3246
3.4	-9.8677	-0.1213	-0.9564	-0.0396	-0.0100	-0.0693	16.0512	25.5339	3.4461	0.5808	0.3592	0.6545	-0.3245
3.41	-9.8592	-0.1310	-0.9475	-0.0332	-0.0097	-0.0673	16.0516	25.5199	3.3406	0.5808	0.3590	0.6546	-0.3244
3.42	-9.8588	-0.1315	-0.9549	-0.0356	-0.0014	-0.0681	15.8550	25.6340	3.4096	0.5808	0.3588	0.6547	-0.3243
3.43	-9.8599	-0.1555	-0.9414	-0.0374	-0.0021	-0.0608	15.9439	25.5001	3.5295	0.5809	0.3587	0.6549	-0.3243
3.44	-9.8611	-0.1456	-0.9391	-0.0277	-0.0021	-0.0646	15.8037	25.6140	3.3851	0.5809	0.3585	0.6549	-0.3242
3.45	-9.8832	-0.1575	-0.9483	-0.0260	-0.0009	-0.0604	15.9055	25.7774	3.4333	0.5810	0.3584	0.6551	-0.3242
3.46	-9.8668	-0.1392	-0.9455	-0.0127	-0.0002	-0.0594	15.7831	25.5681	3.4868	0.5809	0.3582	0.6551	-0.3241
3.47	-9.8549	-0.1309	-0.9398	-0.0150	0.0008	-0.0604	15.6276	25.8038	3.8041	0.5809	0.3582	0.6552	-0.3241
3.48	-9.8532	-0.1176	-0.9331	-0.0152	0.0075	-0.0643	15.7320	25.7292	3.6967	0.5808	0.3581	0.6553	-0.3240
3.49	-9.8499	-0.1082	-0.9344	-0.0215	0.0040	-0.0594	15.7991	25.7685	3.4115	0.5808	0.3580	0.6554	-0.3239
3.5	-9.8654	-0.1058	-0.9412	-0.0141	0.0032	-0.0600	15.7929	25.9207	3.3966	0.5808	0.3579	0.6555	-0.3239
3.51	-9.8865	-0.1260	-0.9318	-0.0180	0.0035	-0.0572	15.8791	25.5799	3.4701	0.5808	0.3578	0.6556	-0.3239
3.52	-9.9475	-0.1235	-0.9441	-0.0125	0.0010	-0.0560	16.0317	25.4851	3.2767	0.5808	0.3578	0.6557	-0.3238
3.53	-9.8752	-0.1312	-0.9273	-0.0217	-0.0125	-0.0607	15.9512	25.3189	3.2170	0.5807	0.3576	0.6557	-0.3237
3.54	-9.8784	-0.1549	-0.9274	-0.0242	-0.0121	-0.0486	16.1157	25.5287	3.6051	0.5808	0.3575	0.6558	-0.3237
3.55	-9.8720	-0.1608	-0.9353	-0.0117	-0.0146	-0.0428	16.4082	25.6423	3.6339	0.5809	0.3575	0.6558	-0.3236
3.56	-9.8509	-0.1688	-0.9343	-0.0075	-0.0118	-0.0378	16.6767	25.4003	3.8220	0.5809	0.3574	0.6558	-0.3236
3.57	-9.8445	-0.1345	-0.9330	-0.0056	-0.0131	-0.0366	16.3358	25.6257	3.7351	0.5810	0.3575	0.6558	-0.3235
3.58	-9.8337	-0.1218	-0.9425	-0.0104	-0.0060	-0.0412	16.1006	25.6073	3.2930	0.5810	0.3574	0.6558	-0.3235
3.59	-9.8211	-0.1127	-0.9347	-0.0076	0.0018	-0.0451	15.8307	25.6991	3.5157	0.5810	0.3574	0.6558	-0.3234
3.6	-9.8235	-0.1117	-0.9368	-0.0089	0.0060	-0.0457	15.7898	25.6914	3.5777	0.5809	0.3574	0.6558	-0.3233
3.61	-9.8481	-0.1208	-0.9398	-0.0067	0.0081	-0.0476	15.9543	25.7219	3.6730	0.5810	0.3574	0.6560	-0.3233
3.62	-9.8495	-0.1070	-0.9456	-0.0083	0.0085	-0.0522	15.8528	25.7798	3.6059	0.5809	0.3573	0.6560	-0.3232
3.63	-9.8606	-0.0944	-0.9531	-0.0083	0.0103	-0.0490	16.0340	25.5932	3.5396	0.5809	0.3573	0.6561	-0.3232
3.64	-9.8735	-0.0888	-0.9605	-0.0076	0.0141	-0.0542	15.7714	25.6090	3.5778	0.5808	0.3573	0.6562	-0.3231
3.65	-9.8683	-0.0767	-0.9718	-0.0093	0.0034	-0.0535	15.6302	25.6209	3.6822	0.5808	0.3572	0.6562	-0.3231
3.66	-9.8613	-0.0766	-0.9680	-0.0105	0.0102	-0.0523	15.9732	25.9690	3.8029	0.5808	0.3572	0.6563	-0.3230
3.67	-9.8619	-0.0794	-0.9654	-0.0221	0.0047	-0.0553	15.7787	25.8859	3.5348	0.5807	0.3571	0.6564	-0.3229
3.68	-9.8609	-0.0885	-0.9676	-0.0158	0.0051	-0.0527	15.8619	25.7511	3.5857	0.5808	0.3571	0.6565	-0.3229
3.69	-9.8619	-0.0921	-0.9710	-0.0281	0.0024	-0.0527	16.0273	25.8182	3.4969	0.5808	0.3569	0.6566	-0.3228
3.7	-9.8640	-0.1007	-0.9683	-0.0307	0.0083	-0.0539	15.7543	25.7064	3.5088	0.5808	0.3569	0.6567	-0.3227
3.71	-9.8611	-0.1067	-0.9713	-0.0174	0.0069	-0.0534	16.0393	25.6179	3.6936	0.5807	0.3567	0.6567	-0.3226
3.72	-9.8597	-0.1144	-0.9689	-0.0183	0.0070	-0.0581	16.0626	25.5692	3.5009	0.5808	0.3567	0.6569	-0.3225
3.73	-9.8629	-0.1179	-0.9814	-0.0304	0.0124	-0.0546	15.9677	25.3500	3.2942	0.5807	0.3566	0.6570	-0.3224
3.74	-9.8458	-0.1246	-0.9838	-0.0172	0.0081	-0.0493	16.0095	25.6218	3.6143	0.5807	0.3565	0.6570	-0.3223
3.75	-9.8677	-0.1359	-0.9914	-0.0178	0.0111	-0.0477	15.8909	25.6025	3.3924	0.5808	0.3565	0.6572	-0.3223
3.76	-9.9041	-0.1165	-1.0075	-0.0303	0.0107	-0.0536	16.0384	25.7600	3.4796	0.5807	0.3564	0.6573	-0.3221
3.77	-9.8944	-0.1166	-0.9947	-0.0181	0.0103	-0.0558	15.7074	25.7926	3.7426	0.5807	0.3563	0.6575	-0.3221
3.78	-9.9235	-0.1315	-1.0012	-0.0190	0.0047	-0.0557	15.8230	25.7835	3.4961	0.5806	0.3562	0.6575	-0.3219
3.79	-9.9233	-0.1455	-0.9924	-0.0121	0.0030	-0.0533	16.0297	25.6678	3.8480	0.5806	0.3562	0.6576	-0.3219
3.8	-9.9089	-0.1416	-0.9989	-0.0112	-0.0083	-0.0541	15.8079	25.5719	3.6253	0.5805	0.3561	0.6577	-0.3218
3.81	-9.8826	-0.1372	-0.9808	-0.0154	-0.0120	-0.0485	15.8328	25.6980	3.7705	0.5806	0.3560	0.6577	-0.3218
3.82	-9.8770	-0.1247	-0.9785	-0.0085	-0.0134	-0.0473	15.7036	25.6955	3.6081	0.5806	0.3560	0.6577	-0.3218
3.83	-9.8656	-0.1249	-0.9871	-0.0116	-0.0054	-0.0456	15.8868	25.6978	3.5984	0.5806	0.3559	0.6578	-0.3217
3.84	-9.8602	-0.1387	-0.9778	-0.0143	-0.0133	-0.0469	15.9037	25.6924	3.6232	0.5807	0.3559	0.6578	-0.3217
3.85	-9.8473	-0.1448	-0.9857	-0.0162	-0.0096	-0.0532	15.9238	25.7085	3.5096	0.5807	0.3557	0.6577	-0.3216
3.86	-9.8500	-0.1497	-0.9784	-0.0113	-0.0113	-0.0526	15.7625	25.5689	3.8341	0.5808	0.3557	0.6578	-0.3216
3.87	-9.8598	-0.1359	-0.9917	-0.0068	-0.0119	-0.0467	15.9091	25.6716	3.4762	0.5808	0.3556	0.6578	-0.3216
3.88	-9.8652	-0.1327	-0.9703	-0.0092	-0.0035	-0.0432	15.8107	25.6970	3.5386	0.5809	0.3556	0.6579	-0.3216
3.89	-9.8702	-0.1354	-0.9735	-0.0085	-0.0106	-0.0452	15.9321	25.7114	3.6553	0.5809	0.3556	0.6578	-0.3215
3.9	-9.8594	-0.1402	-0.9693	-0.0089	0.0013	-0.0436	15.9691	25.6538	3.6904	0.5809	0.3555	0.6579	-0.3215
3.91	-9.8616	-0.1316	-0.9736	-0.0047	-0.0078	-0.0455	15.9294	25.6383	3.7362	0.5809	0.3555	0.6579	-0.3214
3.92	-9.8611	-0.1280	-0.9761	-0.0001	-0.0094	-0.0428	16.0391	25.7379	3.5210	0.5809	0.3555	0.6578	-0.3214
3.93	-9.8589	-0.1222	-0.9687	-0.0069	-0.0051	-0.0446	15.8603	25.6557	3.5948	0.5810	0.3555	0.6579	-0.3214
3.94	-9.8582	-0.1170	-0.9735	-0.0035	-0.0098	-0.0411	15.7942	25.6066	3.8286	0.5810	0.3554	0.6579	-0.3214
3.95	-9.8623	-0.1238	-0.9713	0.0040	-0.0022	-0.0404	15.8856	25.6272	3.5689	0.5811	0.3555	0.6579	-0.3214
3.96	-9.8582	-0.1105	-0.9680	0.0054	-0.0023	-0.0379	15.9265	25.9460	3.6361	0.5810	0.3555	0.6578	-0.3213
3.97	-9.8606	-0.1099	-0.9701	0.0066	-0.0052	-0.0414	15.8842	25.8743	3.6682	0.5810	0.3555	0.6579	-0.3213
3.98	-9.8594	-0.0998	-0.9704	-0.0015	-0.0063	-0.0407	15.7518	25.4725	3.6283	0.5810	0.3555	0.6579	-0.3213
3.99	-9.8605	-0.0807	-0.9692	0.0005	-0.0034	-0.0367	15.6933	25.8387	3.7483	0.5810	0.3555	0.6578	-0.3212
4	-9.8496	-0.0714	-0.9676	-0.0051	0.0017	-0.0393	15.8689	25.6498	3.7371	0.5811	0.3555	0.6579	-0.3212
4.01	-9.8548	-0.0751	-0.9708	-0.0012	-0.0032	-0.0436	15.8824	25.6104	3.6283	0.5811	0.3555	0.6579	-0.3212
4.02	-9.8619	-0.0685	-0.9697	-0.0042	0.0030	-0.0432	16.0009	25.5923	3.6746	0.5811	0.3555	0.6580	-0.3212
4.03	-9.8610	-0.0558	-0.9763	-0.0038	0.0109	-0.0500	15.8936	25.7085	3.6322	0.5810	0.3554	0.6579	-0.3211
4.04	-9.8604	-0.0744	-0.9713	-0.0045	0.0074	-0.0526	15.8247	25.6796	3.7981	0.5810	0.3554	0.6581	-0.3211
4.05	-9.8579	-0.0480	-0.9701	-0.0099	-0.0005	-0.0520	16.2903	25.7508	3.8470	0.5810	0.3554	0.6581	-0.3210
4.06	-9.8600	-0.0616	-0.9698	-0.0075	-0.0030	-0.0529	16.4817	25.8203	3.8448	0.5810	0.3553	0.6581	-0.3210
4.07	-9.8531	-0.0740	-0.9691	-0.0096	0.0021	-0.0434	16.2438	25.6376	3.7472	0.5810	0.3553	0.6582	-0.3210
4.08	-9.8538	-0.0690	-0.9708	-0.0106	0.0047	-0.0493	16.1352	25.5484	3.3971	0.5810	0.3552	0.6582	-0.3209
4.09	-9.8641	-0.0801	-0.9621	-0.0113	0.0046	-0.0520	16.0875	25.4175	3.4907	0.5810	0.3552	0.6583	-0.3209
4.1	-9.8607	-0.0799	-0.9701	-0.0141	0.0055	-0.0518	15.9370	25.3775	3.6325	0.5809	0.3551	0.6583	-0.3208
4.11	-9.8786	-0.0906	-0.9757	-0.0224	0.0070	-0.0526	15.9614	25.4097	3.6295	0.5810	0.3551	0.6585	-0.3208
4.12	-9.8707	-0.1057	-0.9752	-0.0166	0.0103	-0.0512	15.9685	25.5026	3.6011	0.5809	0.3550	0.6585	-0.3207
4.13	-9.8749	-0.1075	-0.9937	-0.0145	0.0093	-0.0508	15.8938	25.4615	3.6621	0.5809	0.3549	0.6586	-0.3206
4.14	-9.8713	-0.1136	-0.9899	-0.0263	0.0011	-0.0529	15.7569	25.4864	3.4695	0.5809	0.3548	0.6587	-0.3205
4.15	-9.8706	-0.1236	-0.9853	-0.0190	0.0059	-0.0496	15.9185	25.5822	3.4952	0.5809	0.3547	0.6587	-0.3205
4.16	-9.8629	-0.1362	-0.9884	-0.0170	0.0004	-0.0495	15.9914	25.5558	3.4445	0.5810	0.3547	0.6588	-0.3204
4.17	-9.8589	-0.1425	-0.9972	-0.0294	-0.0060	-0.0586	15.8570	25.5643	3.5902	0.5810	0.3545	0.6588	-0.3203
4.18	-9.8569	-0.1383	-1.0015	-0.0202	0.0055	-0.0560	15.7864	25.6594	3.8349	0.5810	0.3545	0.6590	-0.3203
4.19	-9.8471	-0.1437	-1.0027	-0.0136	0.0057	-0.0553	15.8856	25.9708	3.4959	0.5810	0.3544	0.6590	-0.3203
4.2	-9.8699	-0.1403	-0.9923	-0.0093	-0.0038	-0.0534	15.6536	25.9740	3.5149	0.5811	0.3543	0.6591	-0.3203
4.21	-9.8931	-0.1450	-0.9990	-0.0098	0.0056	-0.0529	15.8082	25.7020	3.6142	0.5810	0.3542	0.6590	-0.3202
4.22	-9.8562	-0.1458	-1.0026	-0.0090	0.0066	-0.0587	15.8692	25.8772	3.7310	0.5810	0.3542	0.6591	-0.3203
4.23	-9.8483	-0.1249	-1.0018	-0.0072	0.0043	-0.0496	15.7082	25.7668	3.6882	0.5810	0.3541	0.6592	-0.3202
4.24	-9.8560	-0.1151	-0.9989	-0.0089	0.0052	-0.0514	15.6631	25.6663	3.7256	0.5809	0.3541	0.6592	-0.3202
4.25	-9.8679	-0.1098	-0.9928	-0.0055	0.0025	-0.0526	15.8219	25.5285	3.5945	0.5810	0.3541	0.6593	-0.3202
4.26	-9.8783	-0.1149	-0.9790	-0.0036	-0.0070	-0.0543	16.0055	25.7609	3.6334	0.5810	0.3540	0.6592	-0.3202
4.27	-9.8975	-0.1196	-0.9737	-0.0015	-0.0038	-0.0543	15.8982	25.6203	3.5869	0.5810	0.3540	0.6593	-0.3203
4.28	-9.9175	-0.1070	-0.9905	-0.0032	-0.0121	-0.0537	15.7509	25.4518	3.7434	0.5809	0.3539	0.6592	-0.3202
4.29	-9.8699	-0.1179	-0.9864	-0.0038	-0.0091	-0.0529	15.8193	25.4784	3.5508	0.5810	0.3539	0.6593	-0.3203
4.3	-9.8858	-0.1378	-0.9913	-0.0079	-0.0077	-0.0455	16.0258	25.5017	3.3934	0.5810	0.3538	0.6593	-0.3203
4.31	-9.8654	-0.1324	-0.9840	-0.0080	-0.0077	-0.0470	15.8471	25.6708	3.4593	0.5811	0.3538	0.6593	-0.3203
4.32	-9.8548	-0.1232	-0.9806	-0.0080	-0.0002	-0.0348	15.8907	25.5469	3.4050	0.5811	0.3538	0.6593	-0.3202
4.33	-9.8419	-0.1176	-0.9932	-0.0100	0.0003	-0.0354	15.7024	25.7004	3.6130	0.5811	0.3538	0.6593	-0.3201
4.34	-9.8415	-0.0985	-0.9935	-0.0068	-0.0022	-0.0384	15.9473	25.5678	3.5587	0.5812	0.3538	0.6593	-0.3201
4.35	-9.8391	-0.0901	-0.9983	-0.0038	0.0046	-0.0360	15.8862	25.6200	3.4886	0.5812	0.3537	0.6592	-0.3200
4.36	-9.8427	-0.0999	-1.0048	-0.0083	0.0056	-0.0519	15.6493	25.9094	3.8825	0.5812	0.3537	0.6593	-0.3201
4.37	-9.8521	-0.1079	-1.0067	-0.0053	0.0117	-0.0485	16.0354	26.0270	3.7018	0.5812	0.3537	0.6593	-0.3200
4.38	-9.8620	-0.1082	-1.0065	-0.0046	0.0146	-0.0540	15.7794	25.7329	3.7286	0.5811	0.3537	0.6594	-0.3200
4.39	-9.8623	-0.0954	-1.0065	-0.0089	0.0126	-0.0550	15.7850	25.6635	3.5812	0.5811	0.3536	0.6594	-0.3200
4.4	-9.8642	-0.0832	-1.0063	-0.0108	0.0089	-0.0579	15.8818	25.6128	3.6731	0.5811	0.3536	0.6595	-0.3200
4.41	-9.8509	-0.0838	-1.0065	-0.0115	0.0049	-0.0577	15.4798	25.7721	3.6666	0.5811	0.3535	0.6596	-0.3200
4.42	-9.8584	-0.0808	-1.0064	-0.0094	0.0122	-0.0582	15.6734	25.8651	3.5605	0.5810	0.3534	0.6596	-0.3199
4.43	-9.8499	-0.0913	-1.0113	-0.0245	0.0063	-0.0584	15.9215	25.6011	3.8773	0.5811	0.3533	0.6598	-0.3199
4.44	-9.8541	-0.1099	-1.0099	-0.0272	0.0089	-0.0561	15.8180	25.8385	3.5503	0.5810	0.3532	0.6598	-0.3198
4.45	-9.8614	-0.1150	-1.0166	-0.0285	-0.0003	-0.0561	15.7476	25.5158	3.5600	0.5811	0.3531	0.6599	-0.3198
4.46	-9.8529	-0.1278	-1.0221	-0.0329	0.0109	-0.0590	15.8933	25.3533	3.8438	0.5810	0.3529	0.6599	-0.3197
4.47	-9.8677	-0.1421	-1.0318	-0.0337	0.0099	-0.0538	15.8347	25.6551	3.6613	0.5811	0.3528	0.6601	-0.3196
4.48	-9.8816	-0.1540	-1.0458	-0.0322	0.0147	-0.0581	15.7720	25.4399	3.7594	0.5811	0.3527	0.6602	-0.3195
4.49	-9.8816	-0.1681	-1.0497	-0.0347	0.0081	-0.0540	16.0807	25.6472	3.5880	0.5811	0.3526	0.6602	-0.3194
4.5	-9.8632	-0.1746	-1.0454	-0.0301	0.0062	-0.0493	15.9269	25.7458	3.7498	0.5812	0.3525	0.6604	-0.3193
4.51	-9.8924	-0.1683	-1.0431	-0.0163	0.0116	-0.0467	15.8576	25.7707	3.9290	0.5811	0.3524	0.6604	-0.3192
4.52	-9.9182	-0.1575	-1.0553	-0.0262	0.0109	-0.0541	15.8718	25.3910	3.6251	0.5811	0.3524	0.6606	-0.3191
4.53	-9.8841	-0.1724	-1.0478	-0.0120	0.0061	-0.0640	15.8701	25.5599	3.6069	0.5810	0.3523	0.6606	-0.3191
4.54	-9.8958	-0.1806	-1.0445	-0.0121	0.0022	-0.0605	15.8584	25.6632	3.7479	0.5811	0.3522	0.6607	-0.3191
4.55	-9.8897	-0.1861	-1.0414	-0.0155	-0.0052	-0.0513	16.0953	25.8777	3.8381	0.5811	0.3521	0.6607	-0.3191
4.56	-9.8808	-0.1876	-1.0479	-0.0170	-0.0128	-0.0505	16.4624	25.8678	4.0017	0.5812	0.3520	0.6607	-0.3191
4.57	-9.8631	-0.1809	-1.0363	-0.0124	-0.0090	-0.0488	16.1268	25.8156	3.9186	0.5812	0.3520	0.6607	-0.3191
4.58	-9.8604	-0.1636	-1.0281	-0.0102	-0.0111	-0.0461	15.8896	25.6006	3.8174	0.5813	0.3519	0.6607	-0.3191
4.59	-9.8571	-0.1720	-1.0394	-0.0070	-0.0033	-0.0491	15.8042	25.5104	3.7427	0.5813	0.3519	0.6607	-0.3191
4.6	-9.8530	-0.1731	-1.0415	-0.0121	-0.0020	-0.0499	15.8439	25.7927	3.7103	0.5813	0.3518	0.6606	-0.3190
4.61	-9.8563	-0.1803	-1.0425	-0.0103	-0.0071	-0.0482	15.7198	25.8526	3.8224	0.5814	0.3517	0.6607	-0.3190
4.62	-9.8512	-0.1804	-1.0357	-0.0084	-0.0023	-0.0474	15.7625	25.8293	3.8323	0.5814	0.3517	0.6607	-0.3190
4.63	-9.8580	-0.1783	-1.0424	-0.0077	-0.0129	-0.0377	15.7132	25.6585	3.9734	0.5815	0.3517	0.6607	-0.3190
4.64	-9.8602	-0.1748	-1.0430	-0.0079	-0.0105	-0.0397	15.8630	25.6041	3.6595	0.5815	0.3516	0.6606	-0.3190
4.65	-9.8631	-0.1603	-1.0414	-0.0087	-0.0044	-0.0421	15.9113	25.6538	3.6693	0.5816	0.3516	0.6606	-0.3189
4.66	-9.8707	-0.1776	-1.0418	-0.0072	0.0040	-0.0432	15.9825	25.5639	3.7112	0.5816	0.3516	0.6607	-0.3189
4.67	-9.8762	-0.1676	-1.0448	-0.0075	0.0066	-0.0399	16.0135	25.5852	3.4835	0.5815	0.3515	0.6606	-0.3188
4.68	-9.8847	-0.1739	-1.0454	-0.0082	-0.0110	-0.0328	16.0202	25.5955	3.9082	0.5817	0.3516	0.6607	-0.3188
4.69	-9.8606	-0.1657	-1.0391	-0.0069	-0.0126	-0.0381	16.1207	26.0061	3.8625	0.5817	0.3515	0.6606	-0.3188
4.7	-9.8697	-0.1486	-1.0463	-0.0011	-0.0072	-0.0388	15.8456	25.7843	3.7661	0.5818	0.3516	0.6606	-0.3188
4.71	-9.8661	-0.1456	-1.0424	0.0005	-0.0088	-0.0400	15.7309	25.6632	3.9509	0.5818	0.3515	0.6605	-0.3188
4.72	-9.8782	-0.1379	-1.0417	0.0138	-0.0029	-0.0366	15.7506	25.6600	3.7186	0.5818	0.3516	0.6605	-0.3188
4.73	-9.8663	-0.1255	-1.0380	0.0047	-0.0136	-0.0377	15.9133	25.5342	3.6297	0.5819	0.3516	0.6604	-0.3188
4.74	-9.8596	-0.1175	-1.0266	0.0014	-0.0137	-0.0414	15.9185	25.6922	3.8676	0.5819	0.3516	0.6603	-0.3188
4.75	-9.8628	-0.1056	-1.0276	0.0139	-0.0075	-0.0413	15.9326	25.6509	3.6632	0.5820	0.3516	0.6604	-0.3189
4.76	-9.8605	-0.1003	-1.0292	0.0147	-0.0078	-0.0386	15.7493	25.7178	3.6585	0.5819	0.3516	0.6603	-0.3190
4.77	-9.8621	-0.0800	-1.0186	0.0142	-0.0078	-0.0430	15.7953	25.7730	3.7557	0.5820	0.3517	0.6603	-0.3190
4.78	-9.8607	-0.0697	-1.0184	0.0169	-0.0067	-0.0462	15.9300	25.7579	3.6100	0.5819	0.3517	0.6601	-0.3191
4.79	-9.8622	-0.0601	-1.0193	0.0096	-0.0094	-0.0456	15.9331	25.7501	3.7520	0.5820	0.3517	0.6601	-0.3191
4.8	-9.8618	-0.0415	-1.0255	-0.0022	-0.0003	-0.0492	15.6957	25.6133	3.8658	0.5820	0.3517	0.6601	-0.3191
4.81	-9.8617	-0.0457	-1.0203	-0.0043	-0.0029	-0.0525	15.6418	25.5329	3.6882	0.5820	0.3516	0.6601	-0.3191
4.82	-9.8615	-0.0438	-1.0046	-0.0038	-0.0070	-0.0463	15.6348	25.8306	3.8682	0.5820	0.3516	0.6602	-0.3192
4.83	-9.8616	-0.0512	-1.0148	-0.0055	-0.0009	-0.0499	15.9861	25.7800	3.6983	0.5820	0.3516	0.6601	-0.3192
4.84	-9.8568	-0.0602	-1.0115	-0.0063	-0.0038	-0.0591	15.9004	25.4274	3.4659	0.5820	0.3515	0.6602	-0.3192
4.85	-9.8618	-0.0607	-1.0186	-0.0150	-0.0016	-0.0576	15.7860	25.6243	3.6547	0.5820	0.3514	0.6602	-0.3192
4.86	-9.8620	-0.0796	-1.0211	-0.0283	-0.0055	-0.0527	15.9639	25.4381	3.7454	0.5821	0.3513	0.6603	-0.3191
4.87	-9.8603	-0.0845	-1.0101	-0.0249	0.0006	-0.0539	15.8817	25.4364	3.6856	0.5821	0.3512	0.6603	-0.3191
4.88	-9.8493	-0.0920	-1.0197	-0.0304	-0.0024	-0.0566	15.6897	25.8521	3.5855	0.5822	0.3510	0.6604	-0.3190
4.89	-9.8479	-0.1100	-1.0291	-0.0337	-0.0012	-0.0547	15.5267	25.8528	3.7472	0.5822	0.3509	0.6604	-0.3189
4.9	-9.8603	-0.1225	-1.0231	-0.0342	0.0042	-0.0614	15.7314	25.5849	3.6931	0.5822	0.3508	0.6605	-0.3189
4.91	-9.8722	-0.1337	-1.0199	-0.0329	-0.0021	-0.0611	15.9185	25.6216	3.7913	0.5823	0.3506	0.6606	-0.3188
4.92	-9.8786	-0.1599	-1.0399	-0.0234	0.0041	-0.0614	15.9301	25.7833	3.8263	0.5822	0.3504	0.6607	-0.3187
4.93	-9.8430	-0.1743	-1.0352	-0.0299	0.0030	-0.0582	15.8112	25.7381	3.7982	0.5823	0.3504	0.6608	-0.3187
4.94	-9.8584	-0.1674	-1.0440	-0.0239	-0.0005	-0.0576	15.6924	25.6534	3.8426	0.5823	0.3502	0.6608	-0.3186
4.95	-9.8465	-0.1624	-1.0454	-0.0156	-0.0005	-0.0634	15.6092	25.6826	3.9725	0.5824	0.3501	0.6610	-0.3187
4.96	-9.8541	-0.1776	-1.0428	-0.0139	0.0101	-0.0613	15.8584	25.6617	3.6579	0.5822	0.3500	0.6610	-0.3186
4.97	-9.8541	-0.1885	-1.0469	-0.0227	0.0060	-0.0607	15.9275	25.8008	3.8042	0.5823	0.3499	0.6611	-0.3186
4.98	-9.8811	-0.1880	-1.0450	-0.0157	0.0030	-0.0624	15.7465	25.8836	3.7025	0.5822	0.3498	0.6612	-0.3186
4.99	-9.9107	-0.2010	-1.0444	-0.0271	-0.0001	-0.0577	15.7412	25.7444	3.5786	0.5822	0.3497	0.6612	-0.3185
5	-9.8779	-0.2259	-1.0484	-0.0237	0.0046	-0.0531	15.7446	25.7799	3.8501	0.5823	0.3496	0.6614	-0.3185
5.01	-9.8813	-0.2193	-1.0491	-0.0097	-0.0008	-0.0426	15.7468	25.7167	3.8136	0.5823	0.3496	0.6613	-0.3184
5.02	-9.8524	-0.2259	-1.0375	-0.0084	-0.0014	-0.0389	15.9788	25.6587	3.7530	0.5823	0.3496	0.6614	-0.3184
5.03	-9.8547	-0.2162	-1.0481	-0.0058	-0.0042	-0.0346	16.1125	25.6750	3.6976	0.5823	0.3496	0.6613	-0.3183
5.04	-9.8566	-0.1750	-1.0543	-0.0090	0.0002	-0.0332	16.0951	25.6856	3.9726	0.5824	0.3496	0.6613	-0.3183
5.05	-9.8587	-0.1519	-1.0537	0.0035	-0.0039	-0.0371	16.2870	25.6357	4.0345	0.5824	0.3496	0.6613	-0.3182
5.06	-9.8434	-0.1493	-1.0648	0.0022	-0.0003	-0.0390	16.5083	25.5559	4.2119	0.5824	0.3496	0.6613	-0.3182
5.07	-9.8396	-0.1490	-1.0650	0.0020	0.0056	-0.0465	16.1758	25.6969	4.0490	0.5824	0.3497	0.6613	-0.3182
5.08	-9.8424	-0.1431	-1.0562	-0.0017	0.0013	-0.0511	15.9054	25.6762	3.7566	0.5824	0.3496	0.6613	-0.3182
5.09	-9.8456	-0.1408	-1.0485	-0.0052	0.0021	-0.0464	15.6551	25.5337	3.7176	0.5824	0.3496	0.6614	-0.3182
5.1	-9.8527	-0.1383	-1.0685	-0.0011	0.0044	-0.0435	15.8083	25.7764	3.7398	0.5823	0.3496	0.6613	-0.3182
5.11	-9.8532	-0.1224	-1.0589	-0.0094	0.0089	-0.0500	15.7523	25.7241	3.6096	0.5823	0.3496	0.6614	-0.3182
5.12	-9.8391	-0.1141	-1.0707	-0.0102	0.0132	-0.0521	15.7074	25.8050	3.6587	0.5823	0.3495	0.6615	-0.3181
5.13	-9.8436	-0.1265	-1.0659	-0.0166	0.0093	-0.0533	15.6025	25.8470	3.8819	0.5823	0.3495	0.6616	-0.3181
5.14	-9.8497	-0.1344	-1.0725	-0.0283	0.0089	-0.0550	15.7264	25.8446	4.0331	0.5822	0.3494	0.6616	-0.3180
5.15	-9.8553	-0.1423	-1.0824	-0.0255	0.0090	-0.0498	15.6328	25.8150	3.8398	0.5823	0.3493	0.6617	-0.3179
5.16	-9.8605	-0.1624	-1.0846	-0.0315	0.0126	-0.0536	15.7015	25.9143	3.8146	0.5823	0.3492	0.6618	-0.3178
5.17	-9.8656	-0.1681	-1.0908	-0.0334	0.0152	-0.0484	15.8454	25.8610	3.8153	0.5822	0.3491	0.6619	-0.3177
5.18	-9.8776	-0.1685	-1.1070	-0.0325	0.0097	-0.0515	15.6366	25.7191	3.7255	0.5823	0.3490	0.6621	-0.3176
5.19	-9.8767	-0.1826	-1.0993	-0.0242	0.0046	-0.0476	15.9044	25.7737	3.8614	0.5823	0.3489	0.6621	-0.3175
5.2	-9.8630	-0.1825	-1.1002	-0.0221	0.0006	-0.0432	15.5508	25.7042	3.7433	0.5824	0.3489	0.6622	-0.3174
5.21	-9.8687	-0.1884	-1.1106	-0.0260	0.0029	-0.0475	15.8483	25.4531	3.7148	0.5823	0.3488	0.6622	-0.3173
5.22	-9.9174	-0.1732	-1.1171	-0.0225	0.0094	-0.0424	15.9071	25.5181	3.6470	0.5823	0.3488	0.6623	-0.3172
5.23	-9.8847	-0.1753	-1.1085	-0.0253	-0.0011	-0.0520	15.6352	25.6149	3.5969	0.5823	0.3487	0.6624	-0.3171
5.24	-9.8873	-0.1810	-1.1106	-0.0216	-0.0006	-0.0531	16.0105	25.7782	3.8154	0.5823	0.3486	0.6624	-0.3170
5.25	-9.8935	-0.1848	-1.1141	-0.0098	-0.0026	-0.0463	15.9530	25.7156	3.9153	0.5824	0.3486	0.6625	-0.3170
5.26	-9.8715	-0.1947	-1.0955	-0.0183	-0.0172	-0.0428	15.6701	25.5513	3.8161	0.5824	0.3485	0.6625	-0.3170
5.27	-9.8686	-0.1873	-1.1009	-0.0124	-0.0186	-0.0386	15.8095	25.5595	3.9966	0.5825	0.3485	0.6625	-0.3169
5.28	-9.8545	-0.1656	-1.0895	-0.0062	-0.0140	-0.0361	15.5736	25.6919	3.6749	0.5825	0.3484	0.6624	-0.3169
5.29	-9.8543	-0.1526	-1.0885	-0.0048	-0.0093	-0.0356	15.7816	25.5965	3.8999	0.5826	0.3484	0.6624	-0.3169
5.3	-9.8457	-0.1646	-1.0854	-0.0102	-0.0170	-0.0357	15.8572	25.8479	3.8673	0.5827	0.3484	0.6623	-0.3168
5.31	-9.8498	-0.1731	-1.0884	-0.0073	-0.0064	-0.0413	15.7612	25.8923	3.7809	0.5827	0.3484	0.6623	-0.3168
5.32	-9.8525	-0.1672	-1.0893	-0.0060	-0.0082	-0.0395	15.7893	25.7247	3.9464	0.5828	0.3484	0.6623	-0.3168
5.33	-9.8541	-0.1639	-1.1032	-0.0016	-0.0085	-0.0395	15.6820	25.9970	3.8697	0.5828	0.3484	0.6623	-0.3168
5.34	-9.8629	-0.1461	-1.0956	0.0018	-0.0162	-0.0346	15.6639	25.8836	3.7714	0.5829	0.3484	0.6623	-0.3168
5.35	-9.8791	-0.1332	-1.0855	-0.0016	-0.0132	-0.0391	15.5007	25.9681	3.9350	0.5829	0.3484	0.6621	-0.3167
5.36	-9.8656	-0.1384	-1.0950	-0.0064	-0.0113	-0.0358	15.5168	25.6636	3.8714	0.5830	0.3484	0.6622	-0.3167
5.37	-9.8597	-0.1318	-1.0828	-0.0040	-0.0150	-0.0327	15.7176	25.8756	3.8390	0.5830	0.3484	0.6621	-0.3167
5.38	-9.8610	-0.1296	-1.0794	-0.0001	-0.0171	-0.0382	15.8363	25.9196	3.9568	0.5831	0.3484	0.6621	-0.3167
5.39	-9.8562	-0.1240	-1.0848	0.0006	-0.0163	-0.0360	15.6551	25.5119	3.7858	0.5831	0.3484	0.6620	-0.3167
5.4	-9.8550	-0.1311	-1.0834	-0.0057	-0.0161	-0.0360	15.7402	25.4972	3.8642	0.5832	0.3484	0.6620	-0.3167
5.41	-9.8622	-0.1225	-1.0866	-0.0043	-0.0171	-0.0341	16.0013	25.6678	3.7399	0.5833	0.3484	0.6619	-0.3167
5.42	-9.8603	-0.1120	-1.0802	-0.0076	-0.0168	-0.0343	15.8544	25.5930	3.7885	0.5833	0.3483	0.6618	-0.3166
5.43	-9.8628	-0.1164	-1.0842	0.0058	-0.0128	-0.0341	15.9031	25.5459	4.0788	0.5834	0.3484	0.6619	-0.3166
5.44	-9.8649	-0.1037	-1.0787	0.0055	-0.0161	-0.0338	15.8107	25.8031	3.9161	0.5834	0.3484	0.6618	-0.3166
5.45	-9.8610	-0.1085	-1.0773	-0.0008	-0.0165	-0.0380	15.8375	26.0341	3.6929	0.5836	0.3484	0.6618	-0.3167
5.46	-9.8611	-0.1014	-1.0674	-0.0005	-0.0151	-0.0388	15.9748	25.5106	3.8411	0.5835	0.3484	0.6616	-0.3166
5.47	-9.8605	-0.0845	-1.0576	-0.0040	-0.0170	-0.0355	16.0957	25.5062	3.8209	0.5836	0.3484	0.6616	-0.3166
5.48	-9.8609	-0.0771	-1.0575	-0.0041	-0.0195	-0.0425	15.9451	25.4488	3.8371	0.5837	0.3484	0.6616	-0.3166
5.49	-9.8493	-0.0669	-1.0541	-0.0074	-0.0138	-0.0511	15.7827	25.6462	3.8024	0.5837	0.3483	0.6615	-0.3166
5.5	-9.8409	-0.0700	-1.0506	-0.0041	-0.0146	-0.0451	15.5775	25.8647	3.9428	0.5838	0.3483	0.6616	-0.3167
5.51	-9.8454	-0.0710	-1.0513	-0.0063	-0.0118	-0.0501	15.6531	25.8481	4.0037	0.5838	0.3482	0.6616	-0.3166
5.52	-9.8385	-0.0693	-1.0438	-0.0105	-0.0111	-0.0532	15.7183	25.7727	3.7931	0.5839	0.3482	0.6616	-0.3167
5.53	-9.8255	-0.0776	-1.0476	-0.0166	-0.0103	-0.0510	15.6812	25.7432	3.9172	0.5838	0.3480	0.6615	-0.3166
5.54	-9.8312	-0.0798	-1.0552	-0.0208	-0.0096	-0.0537	15.8196	25.7438	4.0289	0.5839	0.3480	0.6616	-0.3166
5.55	-9.8436	-0.0828	-1.0455	-0.0293	-0.0059	-0.0539	15.9459	25.8002	3.9841	0.5839	0.3478	0.6617	-0.3165
5.56	-9.8234	-0.0910	-1.0512	-0.0303	-0.0065	-0.0520	16.2709	25.8651	4.0390	0.5840	0.3477	0.6617	-0.3164
5.57	-9.8312	-0.1062	-1.0545	-0.0341	-0.0136	-0.0524	16.0711	25.8309	3.8160	0.5841	0.3476	0.6618	-0.3164
5.58	-9.8424	-0.1177	-1.0520	-0.0323	-0.0038	-0.0502	15.9472	25.9146	3.8780	0.5841	0.3475	0.6618	-0.3163
5.59	-9.8589	-0.1319	-1.0565	-0.0300	0.0043	-0.0500	15.8250	25.7286	3.8025	0.5842	0.3474	0.6620	-0.3162
5.6	-9.8680	-0.1516	-1.0564	-0.0311	-0.0050	-0.0468	15.7744	25.5491	3.8856	0.5841	0.3472	0.6619	-0.3161
5.61	-9.8585	-0.1622	-1.0650	-0.0313	0.0001	-0.0549	15.9641	25.5924	4.0015	0.5842	0.3472	0.6621	-0.3160
5.62	-9.8462	-0.1666	-1.0802	-0.0210	-0.0047	-0.0537	15.7889	25.7025	3.8228	0.5842	0.3470	0.6621	-0.3159
5.63	-9.8594	-0.1494	-1.0774	-0.0165	-0.0025	-0.0523	15.6715	25.5605	3.7192	0.5843	0.3470	0.6622	-0.3159
5.64	-9.8525	-0.1405	-1.0813	-0.0266	-0.0057	-0.0446	15.9228	25.6656	3.7005	0.5843	0.3469	0.6622	-0.3158
5.65	-9.8585	-0.1590	-1.0853	-0.0179	-0.0011	-0.0538	16.0292	25.7783	3.7018	0.5843	0.3468	0.6623	-0.3158
5.66	-9.8666	-0.1769	-1.0776	-0.0193	0.0014	-0.0536	15.8814	25.5216	3.7453	0.5843	0.3467	0.6623	-0.3158
5.67	-9.9098	-0.1671	-1.0858	-0.0080	0.0017	-0.0536	15.6799	25.7577	3.9076	0.5842	0.3467	0.6623	-0.3157
5.68	-9.8977	-0.1853	-1.0927	-0.0191	-0.0061	-0.0567	15.8571	25.8312	3.9749	0.5843	0.3466	0.6625	-0.3157
5.69	-9.8798	-0.1991	-1.0798	-0.0165	-0.0165	-0.0508	15.7531	25.7357	3.8460	0.5843	0.3465	0.6625	-0.3157
5.7	-9.8666	-0.1909	-1.0813	-0.0095	-0.0112	-0.0443	15.7050	25.7000	3.6937	0.5844	0.3465	0.6625	-0.3157
5.71	-9.8591	-0.1952	-1.0871	-0.0153	-0.0089	-0.0346	15.7325	25.5469	3.8016	0.5844	0.3464	0.6624	-0.3156
5.72	-9.8494	-0.1652	-1.0958	-0.0044	-0.0095	-0.0349	15.7005	25.6969	4.0434	0.5845	0.3465	0.6624	-0.3155
5.73	-9.8447	-0.1483	-1.0883	-0.0064	-0.0080	-0.0361	15.7675	25.6329	3.9089	0.5845	0.3465	0.6624	-0.3155
5.74	-9.8570	-0.1291	-1.0910	-0.0094	-0.0057	-0.0412	15.8983	25.7344	3.8685	0.5845	0.3464	0.6624	-0.3154
5.75	-9.8474	-0.1299	-1.1017	-0.0070	-0.0080	-0.0487	15.9160	25.8749	4.0106	0.5846	0.3464	0.6625	-0.3155
5.76	-9.8586	-0.1415	-1.0830	-0.0067	-0.0060	-0.0466	15.7271	25.6384	3.9432	0.5845	0.3464	0.6624	-0.3154
5.77	-9.8606	-0.1289	-1.0824	-0.0070	-0.0089	-0.0462	15.9947	25.5499	3.8309	0.5846	0.3464	0.6625	-0.3154
5.78	-9.8494	-0.1071	-1.0800	-0.0021	-0.0100	-0.0467	15.8809	25.5818	3.6828	0.5845	0.3463	0.6624	-0.3154
5.79	-9.8485	-0.0888	-1.0861	-0.0052	-0.0071	-0.0484	15.8291	25.5671	3.7461	0.5846	0.3463	0.6625	-0.3154
5.8	-9.8417	-0.0809	-1.0820	-0.0037	-0.0091	-0.0464	15.8763	25.5737	3.9742	0.5846	0.3463	0.6625	-0.3154
5.81	-9.8403	-0.0901	-1.0802	-0.0171	-0.0016	-0.0475	15.7705	25.5767	3.7534	0.5846	0.3462	0.6625	-0.3153
5.82	-9.8313	-0.0925	-1.0920	-0.0180	-0.0015	-0.0449	15.9226	25.5551	3.9524	0.5846	0.3462	0.6626	-0.3153
5.83	-9.8324	-0.0965	-1.0918	-0.0253	-0.0074	-0.0473	15.6348	25.8750	3.7913	0.5847	0.3461	0.6626	-0.3152
5.84	-9.8569	-0.1205	-1.0947	-0.0295	-0.0049	-0.0481	15.8344	25.6914	3.6799	0.5847	0.3460	0.6627	-0.3151
5.85	-9.8595	-0.1460	-1.0897	-0.0268	-0.0072	-0.0445	15.7097	25.6552	3.7002	0.5847	0.3459	0.6626	-0.3150
5.86	-9.8577	-0.1542	-1.1057	-0.0340	-0.0056	-0.0462	15.7272	25.6323	3.8452	0.5848	0.3458	0.6628	-0.3149
5.87	-9.8569	-0.1712	-1.1092	-0.0349	0.0023	-0.0514	15.8595	25.4299	4.0550	0.5848	0.3457	0.6628	-0.3148
5.88	-9.8442	-0.1738	-1.1046	-0.0266	0.0000	-0.0484	15.7047	25.5533	4.1747	0.5849	0.3456	0.6629	-0.3147
5.89	-9.8530	-0.1720	-1.1114	-0.0168	0.0018	-0.0460	15.7455	25.7772	4.0646	0.5849	0.3456	0.6629	-0.3146
5.9	-9.8960	-0.1571	-1.1157	-0.0205	0.0011	-0.0508	15.6710	25.9581	3.8218	0.5849	0.3455	0.6630	-0.3146
5.91	-9.8845	-0.1549	-1.1108	-0.0188	-0.0025	-0.0531	15.6600	25.7012	3.9549	0.5849	0.3454	0.6631	-0.3145
5.92	-9.8654	-0.1696	-1.1057	-0.0144	-0.0090	-0.0618	15.8284	25.5440	4.0887	0.5848	0.3453	0.6631	-0.3145
5.93	-9.8872	-0.1783	-1.1135	-0.0063	-0.0044	-0.0512	15.7070	25.7114	3.9593	0.5849	0.3453	0.6632	-0.3145
5.94	-9.8774	-0.1878	-1.0986	-0.0071	-0.0124	-0.0470	15.7090	25.7215	3.6980	0.5849	0.3452	0.6632	-0.3145
5.95	-9.8690	-0.1690	-1.0809	-0.0019	-0.0187	-0.0402	15.7843	25.6226	3.9937	0.5850	0.3453	0.6632	-0.3145
5.96	-9.8535	-0.1338	-1.0946	-0.0064	-0.0162	-0.0357	15.9041	25.7673	3.9601	0.5849	0.3452	0.6631	-0.3145
5.97	-9.8536	-0.1209	-1.0996	-0.0089	-0.0161	-0.0448	15.9178	25.8592	3.9063	0.5850	0.3452	0.6631	-0.3145
5.98	-9.8328	-0.1294	-1.0864	-0.0094	-0.0164	-0.0413	15.6466	25.6062	3.7921	0.5851	0.3452	0.6631	-0.3144
5.99	-9.8260	-0.1370	-1.0936	-0.0086	-0.0181	-0.0441	15.7000	25.5542	3.9699	0.5851	0.3451	0.6630	-0.3144
6	-9.8303	-0.1487	-1.0904	-0.0086	-0.0119	-0.0462	15.8136	25.5827	3.9795	0.5852	0.3451	0.6631	-0.3144
6.01	-9.8318	-0.1496	-1.0919	-0.0039	-0.0111	-0.0424	15.8552	25.5781	3.8911	0.5852	0.3451	0.6631	-0.3144
6.02	-9.8498	-0.1425	-1.0890	-0.0080	-0.0126	-0.0421	15.8622	25.7760	4.0390	0.5853	0.3451	0.6631	-0.3144
6.03	-9.8570	-0.1303	-1.0932	-0.0085	-0.0116	-0.0403	15.7696	25.6484	3.8643	0.5852	0.3450	0.6630	-0.3143
6.04	-9.8550	-0.1343	-1.0917	-0.0088	-0.0134	-0.0409	15.9566	25.5598	3.7921	0.5853	0.3450	0.6631	-0.3143
6.05	-9.8686	-0.1263	-1.1129	-0.0092	-0.0061	-0.0446	16.1739	25.7502	3.9871	0.5853	0.3450	0.6631	-0.3143
6.06	-9.8509	-0.1285	-1.1083	-0.0086	-0.0137	-0.0408	16.1090	25.7445	3.9557	0.5853	0.3449	0.6630	-0.3142
6.07	-9.8550	-0.1372	-1.0956	-0.0109	-0.0104	-0.0398	15.8654	25.7936	4.1036	0.5854	0.3449	0.6631	-0.3142
6.08	-9.8629	-0.1257	-1.1087	-0.0184	-0.0075	-0.0336	15.6694	25.9567	3.9363	0.5854	0.3449	0.6631	-0.3141
6.09	-9.8493	-0.1411	-1.0977	-0.0163	-0.0112	-0.0348	15.4537	25.8545	3.9273	0.5855	0.3449	0.6631	-0.3140
6.1	-9.8582	-0.1110	-1.0986	-0.0179	-0.0110	-0.0345	15.7603	25.5258	4.0204	0.5855	0.3448	0.6630	-0.3139
6.11	-9.8771	-0.1114	-1.0939	-0.0200	-0.0089	-0.0348	15.5859	25.8443	3.8612	0.5856	0.3448	0.6631	-0.3138
6.12	-9.8792	-0.1169	-1.0950	-0.0242	-0.0029	-0.0346	15.5438	25.9449	4.2236	0.5856	0.3448	0.6631	-0.3137
6.13	-9.8736	-0.1196	-1.0770	-0.0185	-0.0128	-0.0343	15.5228	25.9518	4.0122	0.5857	0.3448	0.6631	-0.3136
6.14	-9.8887	-0.1114	-1.0848	-0.0059	-0.0168	-0.0348	15.7428	25.7243	3.7731	0.5858	0.3448	0.6631	-0.3136
6.15	-9.8844	-0.1083	-1.0818	-0.0098	-0.0203	-0.0369	15.9598	25.6666	3.8144	0.5858	0.3447	0.6630	-0.3135
6.16	-9.8812	-0.1005	-1.0750	-0.0049	-0.0109	-0.0461	16.0270	25.6276	3.8129	0.5859	0.3447	0.6631	-0.3135
6.17	-9.8670	-0.0801	-1.0705	-0.0037	-0.0107	-0.0414	15.8124	25.4806	4.1373	0.5858	0.3447	0.6630	-0.3135
6.18	-9.8735	-0.0766	-1.0649	-0.0054	-0.0209	-0.0487	15.8040	25.5823	3.8101	0.5860	0.3447	0.6631	-0.3135
6.19	-9.8445	-0.0754	-1.0581	-0.0028	-0.0175	-0.0535	15.6647	25.6153	3.8697	0.5859	0.3446	0.6630	-0.3135
6.2	-9.8407	-0.0737	-1.0519	-0.0023	-0.0174	-0.0515	15.8765	25.6977	3.8324	0.5860	0.3446	0.6631	-0.3136
6.21	-9.8238	-0.0656	-1.0534	-0.0083	-0.0136	-0.0578	15.9229	25.5679	3.8003	0.5860	0.3445	0.6630	-0.3136
6.22	-9.8055	-0.0665	-1.0461	-0.0113	-0.0193	-0.0573	15.7564	25.6831	3.7849	0.5860	0.3444	0.6630	-0.3136
6.23	-9.8036	-0.0713	-1.0458	-0.0100	-0.0105	-0.0536	15.7071	25.6875	3.8700	0.5860	0.3443	0.6631	-0.3136
6.24	-9.8186	-0.0739	-1.0463	-0.0236	-0.0099	-0.0554	15.7458	25.8732	3.8843	0.5860	0.3442	0.6631	-0.3135
6.25	-9.8337	-0.0815	-1.0545	-0.0281	-0.0050	-0.0564	15.5962	25.7233	3.9276	0.5861	0.3441	0.6632	-0.3135
6.26	-9.8449	-0.0893	-1.0631	-0.0302	-0.0087	-0.0567	15.6897	25.6469	3.9419	0.5861	0.3440	0.6633	-0.3134
6.27	-9.8362	-0.1100	-1.0760	-0.0311	-0.0048	-0.0561	15.7168	25.7063	3.7136	0.5862	0.3439	0.6634	-0.3134
6.28	-9.8311	-0.1177	-1.0725	-0.0346	0.0097	-0.0500	15.8274	25.9565	4.0180	0.5861	0.3437	0.6634	-0.3132
6.29	-9.8431	-0.1205	-1.0803	-0.0340	0.0015	-0.0505	15.6727	25.9082	4.0810	0.5862	0.3436	0.6636	-0.3131
6.3	-9.8463	-0.1181	-1.0811	-0.0341	0.0094	-0.0579	15.6564	25.9880	3.8777	0.5861	0.3435	0.6637	-0.3130
6.31	-9.8534	-0.1298	-1.0929	-0.0351	0.0077	-0.0571	15.8188	25.9922	3.9688	0.5861	0.3434	0.6638	-0.3129
6.32	-9.8659	-0.1714	-1.0856	-0.0331	0.0033	-0.0550	15.9117	25.6882	3.9911	0.5861	0.3433	0.6640	-0.3128
6.33	-9.9196	-0.1758	-1.1039	-0.0290	0.0020	-0.0507	15.8896	25.7075	3.9971	0.5861	0.3432	0.6640	-0.3126
6.34	-9.8960	-0.1822	-1.1011	-0.0338	-0.0048	-0.0541	15.9268	25.7513	3.9325	0.5862	0.3431	0.6642	-0.3126
6.35	-9.8721	-0.2067	-1.0965	-0.0271	-0.0041	-0.0513	15.7967	25.4474	3.8553	0.5861	0.3429	0.6642	-0.3124
6.36	-9.8543	-0.1928	-1.1000	-0.0151	-0.0094	-0.0412	15.7270	25.6347	4.1726	0.5862	0.3429	0.6643	-0.3124
6.37	-9.8355	-0.1949	-1.0969	-0.0140	-0.0010	-0.0338	15.6695	25.5017	3.9483	0.5862	0.3429	0.6643	-0.3123
6.38	-9.8145	-0.1768	-1.1151	-0.0108	0.0024	-0.0328	15.6547	25.5432	3.8886	0.5862	0.3429	0.6643	-0.3122
6.39	-9.7854	-0.1451	-1.1127	-0.0083	0.0022	-0.0362	15.9620	25.6936	3.8846	0.5862	0.3429	0.6643	-0.3121
6.4	-9.7840	-0.1260	-1.1133	-0.0093	0.0056	-0.0395	15.7115	25.6509	3.8056	0.5862	0.3429	0.6644	-0.3121
6.41	-9.8415	-0.1134	-1.1148	-0.0110	0.0062	-0.0449	15.5938	25.6805	3.9599	0.5862	0.3429	0.6645	-0.3120
6.42	-9.8466	-0.1172	-1.1148	-0.0130	0.0025	-0.0479	15.7268	25.6441	4.0937	0.5861	0.3429	0.6645	-0.3119
6.43	-9.7968	-0.1363	-1.1138	-0.0106	0.0052	-0.0449	15.7308	25.8005	4.1498	0.5861	0.3429	0.6646	-0.3119
6.44	-9.8321	-0.1280	-1.1146	-0.0092	0.0133	-0.0487	15.5499	25.8359	3.9303	0.5860	0.3428	0.6647	-0.3118
6.45	-9.8242	-0.1204	-1.1150	-0.0077	0.0129	-0.0444	15.5966	25.6427	4.0165	0.5860	0.3429	0.6648	-0.3118
6.46	-9.8361	-0.1282	-1.1145	-0.0163	0.0111	-0.0439	15.7434	25.7692	3.8849	0.5859	0.3428	0.6648	-0.3116
6.47	-9.8634	-0.1270	-1.1158	-0.0199	0.0123	-0.0371	15.7138	25.7422	3.9959	0.5859	0.3428	0.6649	-0.3115
6.48	-9.8639	-0.1322	-1.1179	-0.0283	0.0075	-0.0337	15.7278	25.7922	4.0199	0.5859	0.3428	0.6650	-0.3114
6.49	-9.8556	-0.1392	-1.1137	-0.0305	0.0133	-0.0343	15.7231	25.9466	4.1684	0.5859	0.3428	0.6651	-0.3112
6.5	-9.8766	-0.1432	-1.1224	-0.0231	0.0132	-0.0347	15.7226	25.9265	4.1878	0.5859	0.3428	0.6653	-0.3111
6.51	-9.8719	-0.1563	-1.1230	-0.0261	0.0029	-0.0343	15.7378	25.6563	3.9531	0.5859	0.3427	0.6653	-0.3109
6.52	-9.8569	-0.1692	-1.1191	-0.0178	0.0096	-0.0340	15.9065	25.4777	3.6987	0.5859	0.3428	0.6654	-0.3108
6.53	-9.8582	-0.1601	-1.1277	-0.0246	0.0131	-0.0309	15.8949	25.5808	4.1415	0.5858	0.3427	0.6654	-0.3106
6.54	-9.8151	-0.1460	-1.1268	-0.0240	0.0064	-0.0295	15.7990	25.5888	4.0328	0.5859	0.3427	0.6655	-0.3104
6.55	-9.8466	-0.1283	-1.1220	-0.0051	0.0136	-0.0309	16.1497	25.7335	3.9999	0.5858	0.3428	0.6656	-0.3103
6.56	-9.8810	-0.0952	-1.1325	-0.0110	0.0090	-0.0312	15.8813	25.4931	4.2131	0.5858	0.3428	0.6656	-0.3102
6.57	-9.8421	-0.0726	-1.1236	-0.0099	0.0047	-0.0378	15.9540	25.5041	4.0437	0.5858	0.3428	0.6657	-0.3101
6.58	-9.8224	-0.0513	-1.1402	-0.0166	0.0116	-0.0421	15.8723	25.4871	3.9729	0.5858	0.3428	0.6657	-0.3100
6.59	-9.8436	-0.0073	-1.1402	-0.0162	0.0080	-0.0376	15.7516	25.4698	4.0150	0.5858	0.3428	0.6659	-0.3099
6.6	-9.8723	0.0246	-1.1376	-0.0149	0.0104	-0.0436	15.7566	25.5596	3.9993	0.5857	0.3428	0.6659	-0.3098
6.61	-9.8765	0.0643	-1.1511	-0.0291	0.0209	-0.0493	15.8530	25.6958	4.0008	0.5857	0.3428	0.6661	-0.3097
6.62	-9.8655	0.0907	-1.1498	-0.0366	0.0175	-0.0608	15.7629	25.7468	4.1757	0.5856	0.3426	0.6662	-0.3096
6.63	-9.8829	0.0880	-1.1636	-0.0499	0.0212	-0.0723	15.7364	25.7625	4.1338	0.5855	0.3425	0.6665	-0.3094
6.64	-9.8992	0.0667	-1.1817	-0.0567	0.0138	-0.0853	15.8732	25.6195	3.9598	0.5854	0.3422	0.6667	-0.3093
6.65	-9.8816	0.0299	-1.1755	-0.0607	0.0114	-0.0795	15.8051	25.7129	4.0497	0.5854	0.3419	0.6669	-0.3091
6.66	-9.8879	0.0165	-1.1843	-0.0781	0.0030	-0.0800	15.8273	25.6968	4.1019	0.5855	0.3416	0.6672	-0.3090
6.67	-9.8773	-0.0238	-1.1877	-0.0785	-0.0010	-0.0865	15.8341	25.6321	4.0965	0.5855	0.3412	0.6673	-0.3088
6.68	-9.8747	-0.0571	-1.1940	-0.0818	-0.0093	-0.0846	15.9899	25.7596	4.0776	0.5856	0.3409	0.6676	-0.3087
6.69	-9.8881	-0.0900	-1.1891	-0.0853	-0.0178	-0.0853	15.6586	25.7606	4.1324	0.5857	0.3405	0.6678	-0.3085
6.7	-9.8841	-0.1180	-1.1886	-0.0840	-0.0142	-0.0867	15.7597	25.6283	4.2175	0.5858	0.3401	0.6680	-0.3083
6.71	-9.8748	-0.1498	-1.1774	-0.0855	-0.0132	-0.0841	15.8907	25.4253	4.0921	0.5858	0.3397	0.6681	-0.3081
6.72	-9.8701	-0.1756	-1.1683	-0.0849	-0.0138	-0.0823	15.8399	25.7665	3.9514	0.5859	0.3393	0.6684	-0.3080
6.73	-9.8607	-0.1983	-1.1734	-0.0794	-0.0181	-0.0810	15.9477	25.6647	3.7146	0.5860	0.3389	0.6685	-0.3078
6.74	-9.8589	-0.2111	-1.1637	-0.0757	-0.0207	-0.0722	15.9018	25.6650	4.1060	0.5861	0.3386	0.6686	-0.3076
6.75	-9.8605	-0.2209	-1.1662	-0.0672	-0.0217	-0.0752	15.6566	25.6239	4.0858	0.5863	0.3383	0.6689	-0.3076
6.76	-9.8515	-0.2238	-1.1541	-0.0582	-0.0288	-0.0707	15.5583	25.5901	4.1208	0.5864	0.3380	0.6689	-0.3074
6.77	-9.8394	-0.2270	-1.1527	-0.0599	-0.0243	-0.0656	15.7340	25.6748	4.2342	0.5865	0.3377	0.6690	-0.3073
6.78	-9.8525	-0.2276	-1.1342	-0.0435	-0.0268	-0.0585	15.8903	25.6577	4.0585	0.5866	0.3374	0.6690	-0.3072
6.79	-9.8347	-0.2237	-1.1412	-0.0339	-0.0337	-0.0532	15.8664	25.6264	4.1335	0.5868	0.3373	0.6690	-0.3072
6.8	-9.8326	-0.2285	-1.1260	-0.0353	-0.0192	-0.0576	15.8628	25.7419	4.1948	0.5868	0.3371	0.6691	-0.3071
6.81	-9.8279	-0.2193	-1.1249	-0.0328	-0.0205	-0.0492	15.8972	25.6472	4.1897	0.5869	0.3370	0.6691	-0.3070
6.82	-9.8177	-0.2052	-1.1292	-0.0313	-0.0160	-0.0498	15.7379	25.7782	4.1653	0.5870	0.3369	0.6692	-0.3069
6.83	-9.7983	-0.2017	-1.1139	-0.0150	-0.0118	-0.0491	15.7246	25.9258	4.2232	0.5870	0.3368	0.6692	-0.3069
6.84	-9.7882	-0.1913	-1.1218	-0.0103	-0.0139	-0.0442	15.7933	25.7943	4.2668	0.5871	0.3368	0.6692	-0.3069
6.85	-9.7989	-0.1818	-1.1190	-0.0058	-0.0097	-0.0471	15.8023	25.8413	3.9498	0.5870	0.3367	0.6692	-0.3068
6.86	-9.7878	-0.1724	-1.1194	-0.0076	-0.0103	-0.0517	15.6234	25.8363	4.2534	0.5871	0.3367	0.6693	-0.3068
6.87	-9.8055	-0.1766	-1.1155	0.0034	-0.0004	-0.0490	15.5185	25.7870	4.2553	0.5870	0.3367	0.6693	-0.3068
6.88	-9.8464	-0.1812	-1.1168	0.0044	0.0057	-0.0387	15.6751	25.7274	4.0676	0.5870	0.3367	0.6693	-0.3068
6.89	-9.8180	-0.1787	-1.1212	0.0022	0.0037	-0.0470	15.9892	25.6675	4.1236	0.5869	0.3367	0.6693	-0.3068
6.9	-9.8133	-0.1701	-1.1125	-0.0069	0.0052	-0.0436	16.0512	25.5125	4.0398	0.5869	0.3367	0.6694	-0.3067
6.91	-9.8262	-0.1571	-1.1210	-0.0032	0.0068	-0.0434	15.8809	25.6600	3.8328	0.5868	0.3367	0.6695	-0.3067
6.92	-9.8345	-0.1577	-1.1354	-0.0059	0.0074	-0.0446	15.7797	25.5759	4.1029	0.5867	0.3367	0.6695	-0.3066
6.93	-9.8327	-0.1719	-1.1239	-0.0107	0.0118	-0.0471	15.8808	25.4593	4.2141	0.5868	0.3368	0.6697	-0.3066
6.94	-9.8468	-0.1839	-1.1308	-0.0053	0.0119	-0.0447	15.8654	25.6438	4.1479	0.5867	0.3367	0.6697	-0.3065
6.95	-9.8870	-0.1902	-1.1452	-0.0082	0.0109	-0.0421	15.8761	25.6605	4.0464	0.5866	0.3368	0.6698	-0.3064
6.96	-9.8898	-0.2160	-1.1511	-0.0083	0.0073	-0.0470	15.8700	25.6522	4.2346	0.5865	0.3367	0.6698	-0.3063
6.97	-9.8625	-0.2250	-1.1560	-0.0102	0.0040	-0.0385	15.6346	25.6543	3.9939	0.5865	0.3368	0.6699	-0.3063
6.98	-9.8537	-0.2403	-1.1519	-0.0113	0.0024	-0.0339	15.7636	25.6642	3.9044	0.5865	0.3368	0.6700	-0.3062
6.99	-9.8595	-0.2417	-1.1719	-0.0136	0.0080	-0.0326	15.7944	25.9318	4.1898	0.5865	0.3368	0.6700	-0.3060
7	-9.8512	-0.2203	-1.1819	-0.0072	0.0129	-0.0292	15.7759	26.0016	4.1877	0.5865	0.3369	0.6701	-0.3060
7.01	-9.8404	-0.1993	-1.1734	-0.0100	0.0089	-0.0344	15.6510	25.7624	4.2904	0.5864	0.3369	0.6701	-0.3058
7.02	-9.8564	-0.1835	-1.1818	-0.0075	0.0084	-0.0340	15.5252	25.6756	4.0456	0.5864	0.3369	0.6702	-0.3058
7.03	-9.8593	-0.1865	-1.1885	-0.0102	0.0048	-0.0337	15.5023	25.6333	4.2883	0.5863	0.3369	0.6702	-0.3056
7.04	-9.8520	-0.1875	-1.1933	0.0052	0.0091	-0.0350	15.5258	25.7836	4.3914	0.5863	0.3370	0.6703	-0.3056
7.05	-9.8603	-0.1666	-1.2045	0.0067	0.0119	-0.0376	16.0390	25.8659	4.3273	0.5862	0.3371	0.6703	-0.3055
7.06	-9.8624	-0.1417	-1.2114	0.0085	0.0024	-0.0387	16.2749	25.7508	4.1743	0.5862	0.3371	0.6703	-0.3055
7.07	-9.8818	-0.1178	-1.1956	0.0032	0.0011	-0.0406	16.0301	25.6501	4.1878	0.5862	0.3372	0.6704	-0.3055
7.08	-9.8986	-0.0815	-1.2156	-0.0052	-0.0152	-0.0411	15.7604	25.6435	4.1128	0.5862	0.3372	0.6704	-0.3055
7.09	-9.8993	-0.0565	-1.2246	-0.0089	-0.0133	-0.0407	15.5694	25.5032	4.0468	0.5862	0.3372	0.6704	-0.3054
7.1	-9.9066	-0.0268	-1.2363	-0.0084	-0.0125	-0.0505	15.4655	25.5798	4.1598	0.5862	0.3371	0.6704	-0.3054
7.11	-9.9667	0.0229	-1.2645	-0.0199	-0.0161	-0.0542	15.5013	25.7285	4.1823	0.5862	0.3370	0.6705	-0.3054
7.12	-9.9937	0.0606	-1.2601	-0.0323	-0.0163	-0.0648	15.5878	25.7523	4.0988	0.5863	0.3368	0.6705	-0.3053
7.13	-9.9625	0.0631	-1.2625	-0.0353	-0.0271	-0.0752	15.5673	25.5818	4.0675	0.5863	0.3366	0.6706	-0.3053
7.14	-9.9438	0.0120	-1.2551	-0.0523	-0.0369	-0.0841	15.4700	25.5909	4.0583	0.5864	0.3363	0.6707	-0.3053
7.15	-9.9590	-0.0009	-1.2564	-0.0580	-0.0430	-0.0897	15.6084	25.5982	3.9795	0.5865	0.3359	0.6708	-0.3053
7.16	-9.9200	-0.0006	-1.2167	-0.0588	-0.0501	-0.0946	15.4917	25.5738	4.1392	0.5867	0.3355	0.6709	-0.3053
7.17	-9.9229	-0.0173	-1.2035	-0.0646	-0.0526	-0.1006	15.4812	25.6703	4.2735	0.5868	0.3351	0.6709	-0.3052
7.18	-9.9110	-0.0416	-1.1723	-0.0669	-0.0600	-0.1051	15.3629	25.8839	4.1063	0.5870	0.3346	0.6710	-0.3053
7.19	-9.8436	-0.0822	-1.1545	-0.0711	-0.0661	-0.1046	15.4391	26.0057	4.0874	0.5872	0.3341	0.6711	-0.3053
7.2	-9.8509	-0.1078	-1.1393	-0.0828	-0.0651	-0.1055	15.5087	26.0253	4.1810	0.5875	0.3336	0.6712	-0.3053
7.21	-9.8053	-0.1365	-1.1170	-0.0831	-0.0668	-0.0993	15.3847	26.1366	4.1392	0.5876	0.3330	0.6712	-0.3052
7.22	-9.7278	-0.1713	-1.1038	-0.0849	-0.0634	-0.0854	15.3795	25.9663	4.0257	0.5879	0.3326	0.6713	-0.3052
7.23	-9.6960	-0.1691	-1.0767	-0.0846	-0.0534	-0.0889	15.4410	25.9629	3.9339	0.5881	0.3321	0.6714	-0.3051
7.24	-9.7801	-0.1570	-1.0555	-0.0853	-0.0488	-0.0738	15.5126	25.8295	4.0561	0.5883	0.3317	0.6714	-0.3049
7.25	-9.7832	-0.1266	-1.0538	-0.0840	-0.0470	-0.0673	15.3510	26.0005	4.1787	0.5886	0.3313	0.6715	-0.3048
7.26	-9.7362	-0.1746	-1.0257	-0.0898	-0.0450	-0.0731	15.4465	25.9644	4.1152	0.5888	0.3309	0.6716	-0.3046
7.27	-9.7877	-0.2064	-1.0352	-0.0996	-0.0458	-0.0701	15.7424	25.5700	4.0298	0.5891	0.3305	0.6717	-0.3045
7.28	-9.7701	-0.2078	-1.0083	-0.1026	-0.0421	-0.0735	15.6894	25.5991	4.1978	0.5893	0.3300	0.6717	-0.3042
7.29	-9.7623	-0.2096	-0.9980	-0.1165	-0.0326	-0.0791	15.3689	25.4888	4.0066	0.5895	0.3295	0.6719	-0.3040
7.3	-9.7286	-0.2282	-0.9771	-0.1218	-0.0246	-0.0724	15.6576	25.6631	4.0076	0.5897	0.3290	0.6721	-0.3037
7.31	-9.6973	-0.2265	-0.9749	-0.1316	-0.0170	-0.0663	15.5050	25.7465	4.1488	0.5899	0.3285	0.6723	-0.3033
7.32	-9.6689	-0.2165	-0.9739	-0.1312	-0.0086	-0.0618	15.3885	25.8821	4.3709	0.5901	0.3281	0.6726	-0.3029
7.33	-9.6800	-0.2109	-0.9711	-0.1377	0.0171	-0.0515	15.4729	25.7053	4.1705	0.5903	0.3277	0.6729	-0.3024
7.34	-9.7338	-0.1914	-0.9861	-0.1330	0.0305	-0.0482	15.5957	25.8764	4.2064	0.5904	0.3273	0.6732	-0.3020
7.35	-9.8129	-0.1930	-1.0032	-0.1305	0.0381	-0.0374	15.7001	25.7482	4.2834	0.5904	0.3270	0.6735	-0.3014
7.36	-9.8843	-0.1884	-1.0268	-0.1363	0.0383	-0.0351	15.4201	25.9076	4.2123	0.5905	0.3267	0.6739	-0.3008
7.37	-9.9222	-0.1961	-1.0418	-0.1375	0.0320	-0.0380	15.3516	25.9167	4.3100	0.5906	0.3264	0.6742	-0.3003
7.38	-9.9327	-0.1868	-1.0624	-0.1357	0.0218	-0.0420	15.2566	25.8156	4.3399	0.5907	0.3261	0.6745	-0.2997
7.39	-9.9223	-0.2056	-1.0842	-0.1311	0.0165	-0.0460	15.5155	25.9698	4.4362	0.5908	0.3257	0.6748	-0.2992
7.4	-9.9140	-0.2207	-1.1012	-0.1341	0.0170	-0.0478	15.3382	26.0572	4.4186	0.5909	0.3254	0.6751	-0.2987
7.41	-9.8848	-0.2232	-1.0996	-0.1179	0.0053	-0.0499	15.4781	25.9766	4.2464	0.5910	0.3250	0.6753	-0.2983
7.42	-9.8506	-0.2479	-1.0873	-0.1108	0.0089	-0.0464	15.4125	25.9089	4.2428	0.5911	0.3247	0.6755	-0.2979
7.43	-9.8533	-0.2501	-1.1017	-0.1000	0.0044	-0.0451	15.3603	26.0862	4.3420	0.5913	0.3244	0.6758	-0.2976
7.44	-9.8532	-0.2603	-1.1006	-0.0852	0.0109	-0.0530	15.4524	25.6572	4.6801	0.5913	0.3241	0.6759	-0.2972
7.45	-9.8622	-0.2630	-1.1250	-0.0883	0.0124	-0.0560	15.4726	25.8520	4.6683	0.5914	0.3239	0.6762	-0.2970
7.46	-9.8733	-0.2672	-1.1279	-0.0788	0.0155	-0.0558	15.5844	25.7663	4.5014	0.5914	0.3236	0.6763	-0.2966
7.47	-9.8669	-0.2735	-1.1404	-0.0609	0.0213	-0.0619	15.5368	25.5644	4.4186	0.5914	0.3234	0.6766	-0.2965
7.48	-9.8785	-0.2686	-1.1460	-0.0471	0.0229	-0.0587	15.6543	25.5718	4.2895	0.5913	0.3233	0.6768	-0.2963
7.49	-9.8973	-0.2712	-1.1470	-0.0347	0.0164	-0.0587	15.5221	25.7692	4.5185	0.5912	0.3231	0.6769	-0.2961
7.5	-9.9188	-0.2708	-1.1583	-0.0341	0.0080	-0.0610	15.3389	25.6627	4.6496	0.5913	0.3230	0.6772	-0.2961
7.51	-9.8844	-0.2536	-1.1687	-0.0283	0.0098	-0.0578	15.4456	25.5948	4.2982	0.5912	0.3229	0.6772	-0.2959
7.52	-9.8838	-0.2518	-1.1833	-0.0207	0.0096	-0.0595	15.5016	25.7580	4.4867	0.5911	0.3228	0.6774	-0.2959
7.53	-9.8956	-0.2324	-1.1818	-0.0149	0.0098	-0.0607	15.3865	25.9411	4.6293	0.5910	0.3227	0.6774	-0.2958
7.54	-9.8930	-0.2204	-1.1866	-0.0120	0.0030	-0.0572	15.3873	26.0647	4.5019	0.5910	0.3227	0.6776	-0.2958
7.55	-9.8701	-0.2272	-1.1748	-0.0080	-0.0020	-0.0651	15.5933	26.0123	4.6947	0.5909	0.3226	0.6777	-0.2958
7.56	-9.9335	-0.2334	-1.1726	-0.0065	-0.0049	-0.0623	15.7639	26.0714	4.7282	0.5909	0.3225	0.6777	-0.2958
7.57	-9.9324	-0.2341	-1.1770	-0.0084	-0.0174	-0.0680	15.7271	25.8664	4.5876	0.5909	0.3224	0.6778	-0.2958
7.58	-9.8916	-0.2494	-1.1699	-0.0084	-0.0194	-0.0685	15.7565	25.8271	4.5905	0.5909	0.3223	0.6778	-0.2959
7.59	-9.8977	-0.2499	-1.1767	-0.0078	-0.0129	-0.0636	15.4298	25.7775	4.7108	0.5909	0.3222	0.6779	-0.2959
7.6	-9.8712	-0.2507	-1.1632	-0.0087	-0.0156	-0.0573	15.5978	25.8326	4.5250	0.5908	0.3221	0.6778	-0.2959
7.61	-9.8595	-0.2262	-1.1675	-0.0085	-0.0232	-0.0546	15.5375	25.8434	4.7019	0.5909	0.3221	0.6779	-0.2959
7.62	-9.8443	-0.2185	-1.1714	-0.0081	-0.0239	-0.0490	15.3330	26.0114	4.5627	0.5909	0.3220	0.6779	-0.2959
7.63	-9.8516	-0.2035	-1.1691	-0.0070	-0.0244	-0.0458	15.4821	25.9531	4.3279	0.5910	0.3219	0.6779	-0.2959
7.64	-9.8602	-0.2080	-1.1558	-0.0091	-0.0270	-0.0557	15.5700	25.8378	4.5036	0.5910	0.3218	0.6779	-0.2959
7.65	-9.8542	-0.2116	-1.1507	-0.0140	-0.0340	-0.0607	15.8333	25.4408	4.5601	0.5911	0.3217	0.6778	-0.2960
7.66	-9.8609	-0.2162	-1.1522	-0.0072	-0.0253	-0.0646	15.8025	25.8537	4.4148	0.5912	0.3216	0.6779	-0.2961
7.67	-9.8435	-0.2168	-1.1469	-0.0099	-0.0299	-0.0609	15.6317	25.9568	4.5862	0.5912	0.3214	0.6778	-0.2961
7.68	-9.8037	-0.2109	-1.1302	-0.0083	-0.0260	-0.0588	15.7941	25.9326	4.4235	0.5913	0.3214	0.6778	-0.2962
7.69	-9.7887	-0.2117	-1.1300	-0.0107	-0.0260	-0.0600	15.8268	25.7251	4.3762	0.5913	0.3212	0.6778	-0.2962
7.7	-9.8025	-0.2209	-1.1337	-0.0211	-0.0189	-0.0597	15.4150	25.6917	4.6291	0.5914	0.3211	0.6779	-0.2962
7.71	-9.8127	-0.2190	-1.1416	-0.0256	-0.0198	-0.0607	15.7202	25.8754	4.7721	0.5914	0.3209	0.6778	-0.2961
7.72	-9.8330	-0.2298	-1.1503	-0.0202	-0.0173	-0.0558	15.6956	25.8268	4.5846	0.5915	0.3208	0.6779	-0.2961
7.73	-9.8523	-0.2296	-1.1317	-0.0297	-0.0126	-0.0579	15.7301	25.6584	4.3952	0.5915	0.3207	0.6779	-0.2961
7.74	-9.8623	-0.2371	-1.1310	-0.0334	-0.0132	-0.0606	15.6182	25.7430	4.6677	0.5915	0.3205	0.6780	-0.2960
7.75	-9.8301	-0.2513	-1.1236	-0.0329	-0.0133	-0.0597	15.3453	25.8446	4.6385	0.5917	0.3204	0.6781	-0.2960
7.76	-9.8733	-0.2601	-1.1268	-0.0337	-0.0048	-0.0615	15.5522	25.7396	4.6843	0.5916	0.3202	0.6781	-0.2959
7.77	-9.8127	-0.2628	-1.1437	-0.0350	-0.0101	-0.0518	15.6359	25.9518	4.7869	0.5917	0.3201	0.6783	-0.2958
7.78	-9.7619	-0.2876	-1.1273	-0.0325	-0.0066	-0.0509	15.6803	25.9132	4.6244	0.5917	0.3199	0.6782	-0.2957
7.79	-9.8684	-0.2672	-1.1402	-0.0346	-0.0029	-0.0475	15.6457	25.9451	4.5579	0.5918	0.3198	0.6784	-0.2956
7.8	-9.8300	-0.2554	-1.1303	-0.0292	-0.0037	-0.0480	15.6790	26.0691	4.5312	0.5918	0.3197	0.6784	-0.2955
7.81	-9.8169	-0.2700	-1.1294	-0.0312	-0.0078	-0.0546	15.6413	25.8620	4.6506	0.5918	0.3196	0.6785	-0.2954
7.82	-9.8346	-0.2780	-1.1262	-0.0262	-0.0093	-0.0462	15.6895	25.7262	4.6488	0.5919	0.3195	0.6785	-0.2953
7.83	-9.8177	-0.2984	-1.1214	-0.0151	-0.0162	-0.0389	15.6055	25.7783	4.5376	0.5919	0.3194	0.6785	-0.2953
7.84	-9.8332	-0.2899	-1.1303	-0.0125	-0.0040	-0.0382	15.8154	25.6985	4.5710	0.5920	0.3194	0.6786	-0.2952
7.85	-9.8312	-0.2722	-1.1557	-0.0091	-0.0027	-0.0327	15.7740	25.5650	4.5695	0.5919	0.3194	0.6785	-0.2951
7.86	-9.8435	-0.2604	-1.1590	-0.0057	-0.0045	-0.0346	15.5182	25.6823	4.5470	0.5920	0.3194	0.6786	-0.2951
7.87	-9.8539	-0.2665	-1.1595	-0.0008	0.0100	-0.0387	15.4408	25.8227	4.6056	0.5920	0.3194	0.6786	-0.2950
7.88	-9.8578	-0.2621	-1.1694	0.0021	0.0007	-0.0390	15.6389	25.8408	4.6817	0.5919	0.3195	0.6786	-0.2950
7.89	-9.8632	-0.2559	-1.1658	0.0134	-0.0047	-0.0381	15.6775	25.8548	4.5442	0.5919	0.3195	0.6786	-0.2950
7.9	-9.8724	-0.2550	-1.1655	0.0184	-0.0128	-0.0383	15.5293	25.8020	4.4303	0.5919	0.3196	0.6786	-0.2951
7.91	-9.8810	-0.2332	-1.1682	0.0188	-0.0142	-0.0336	15.8249	25.7450	4.7556	0.5919	0.3197	0.6785	-0.2951
7.92	-9.8915	-0.2209	-1.1585	0.0145	-0.0110	-0.0336	15.8427	25.7404	4.5942	0.5919	0.3197	0.6784	-0.2951
7.93	-9.8899	-0.2122	-1.1691	0.0152	-0.0135	-0.0337	15.8427	25.8868	4.3154	0.5919	0.3198	0.6785	-0.2951
7.94	-9.8689	-0.1969	-1.1603	0.0152	-0.0175	-0.0340	15.5249	25.8959	4.7420	0.5919	0.3199	0.6784	-0.2952
7.95	-9.8559	-0.2003	-1.1517	0.0166	-0.0150	-0.0338	15.7301	25.5954	4.6804	0.5920	0.3200	0.6784	-0.2952
7.96	-9.8572	-0.1998	-1.1512	0.0156	-0.0149	-0.0340	15.7551	25.8961	4.6308	0.5919	0.3200	0.6782	-0.2952
7.97	-9.8556	-0.2059	-1.1444	0.0157	-0.0217	-0.0358	15.6495	25.7827	4.7982	0.5920	0.3200	0.6782	-0.2953
7.98	-9.8499	-0.1939	-1.1446	0.0157	-0.0216	-0.0336	15.8088	25.7960	4.8606	0.5920	0.3201	0.6781	-0.2953
7.99	-9.8535	-0.1965	-1.1527	0.0167	-0.0218	-0.0342	15.6481	25.8749	4.7605	0.5920	0.3201	0.6780	-0.2954
8	-9.8569	-0.1930	-1.1517	0.0151	-0.0224	-0.0375	15.5684	25.7213	4.6202	0.5921	0.3202	0.6780	-0.2955
8.01	-9.8536	-0.2088	-1.1449	0.0146	-0.0221	-0.0391	15.7144	25.7795	4.6940	0.5921	0.3202	0.6779	-0.2955
8.02	-9.8793	-0.1935	-1.1385	0.0191	-0.0234	-0.0367	15.7763	25.7212	4.5540	0.5922	0.3203	0.6778	-0.2956
8.03	-9.8799	-0.1881	-1.1423	0.0179	-0.0317	-0.0348	15.7166	25.8692	4.6618	0.5922	0.3203	0.6776	-0.2956
8.04	-9.8717	-0.1768	-1.1428	0.0176	-0.0229	-0.0377	15.8045	25.8026	4.6311	0.5923	0.3203	0.6776	-0.2957
8.05	-9.8657	-0.1693	-1.1278	0.0159	-0.0235	-0.0368	16.1508	25.7705	4.5397	0.5923	0.3204	0.6775	-0.2958
8.06	-9.8671	-0.1854	-1.1184	0.0162	-0.0316	-0.0397	16.0243	25.9525	4.5713	0.5924	0.3204	0.6774	-0.2958
8.07	-9.8828	-0.1822	-1.1142	0.0184	-0.0255	-0.0397	15.9099	25.8672	4.5179	0.5924	0.3204	0.6774	-0.2959
8.08	-9.8592	-0.1802	-1.1134	0.0165	-0.0347	-0.0411	15.7292	25.6326	4.5038	0.5925	0.3204	0.6772	-0.2960
8.09	-9.8525	-0.1800	-1.1014	0.0193	-0.0366	-0.0461	15.5718	25.6034	4.4238	0.5926	0.3204	0.6772	-0.2961
8.1	-9.8584	-0.1810	-1.0914	0.0146	-0.0399	-0.0397	15.5990	25.9776	4.5162	0.5926	0.3204	0.6770	-0.2962
8.11	-9.8613	-0.1952	-1.0770	0.0128	-0.0342	-0.0469	15.5987	25.9284	4.6732	0.5927	0.3204	0.6769	-0.2963
8.12	-9.8102	-0.1966	-1.0764	-0.0024	-0.0292	-0.0465	15.5939	25.9760	4.5190	0.5928	0.3204	0.6769	-0.2964
8.13	-9.7777	-0.2035	-1.0648	-0.0033	-0.0373	-0.0481	15.6012	26.1183	4.3696	0.5929	0.3203	0.6768	-0.2964
8.14	-9.8108	-0.2104	-1.0380	-0.0049	-0.0231	-0.0411	15.5905	26.2137	4.6616	0.5930	0.3202	0.6767	-0.2964
8.15	-9.8108	-0.2101	-1.0476	-0.0049	-0.0258	-0.0453	15.7337	25.9671	4.5846	0.5930	0.3202	0.6767	-0.2964
8.16	-9.7747	-0.2191	-1.0291	-0.0058	-0.0201	-0.0498	15.3988	26.1218	4.4643	0.5931	0.3201	0.6767	-0.2965
8.17	-9.8323	-0.2316	-1.0242	-0.0067	-0.0119	-0.0471	15.5934	26.0493	4.3324	0.5931	0.3200	0.6766	-0.2964
8.18	-9.8751	-0.2249	-1.0381	-0.0040	-0.0147	-0.0454	15.5889	25.9069	4.3489	0.5932	0.3200	0.6767	-0.2965
8.19	-9.8305	-0.2477	-1.0304	-0.0085	-0.0177	-0.0423	15.4880	25.8309	4.4969	0.5932	0.3200	0.6766	-0.2964
8.2	-9.8220	-0.2689	-1.0417	-0.0081	-0.0156	-0.0418	15.7497	25.6562	4.3001	0.5933	0.3200	0.6767	-0.2964
8.21	-9.8284	-0.2634	-1.0419	-0.0072	-0.0141	-0.0414	15.9726	25.7997	4.1292	0.5933	0.3199	0.6766	-0.2964
8.22	-9.7964	-0.2600	-1.0626	-0.0070	-0.0104	-0.0337	15.8132	25.5979	4.3296	0.5933	0.3199	0.6766	-0.2963
8.23	-9.7871	-0.2306	-1.0719	-0.0060	-0.0006	-0.0343	15.7515	25.4904	4.3469	0.5934	0.3199	0.6766	-0.2963
8.24	-9.7829	-0.2021	-1.0726	0.0073	0.0031	-0.0333	15.7942	25.7912	4.4234	0.5933	0.3200	0.6766	-0.2962
8.25	-9.8176	-0.1825	-1.0786	0.0037	0.0131	-0.0330	15.6546	25.7622	4.5578	0.5933	0.3201	0.6767	-0.2962
8.26	-9.8146	-0.1960	-1.0818	-0.0050	0.0101	-0.0326	15.7206	25.9053	4.5151	0.5932	0.3201	0.6767	-0.2961
8.27	-9.8034	-0.2247	-1.0880	-0.0044	0.0101	-0.0333	15.8454	25.5539	4.5595	0.5933	0.3201	0.6768	-0.2961
8.28	-9.8538	-0.2189	-1.1064	0.0001	0.0155	-0.0333	15.8918	25.7919	4.4456	0.5931	0.3202	0.6767	-0.2960
8.29	-9.8467	-0.2108	-1.1162	-0.0050	0.0122	-0.0336	15.7010	25.9529	4.1891	0.5931	0.3202	0.6768	-0.2959
8.3	-9.8569	-0.2109	-1.1146	0.0018	0.0165	-0.0332	15.3833	25.9934	4.5152	0.5931	0.3203	0.6769	-0.2959
8.31	-9.8602	-0.2004	-1.1175	0.0050	0.0133	-0.0350	15.5005	26.0319	4.4604	0.5930	0.3203	0.6769	-0.2958
8.32	-9.8594	-0.2027	-1.1280	-0.0008	0.0168	-0.0342	15.5235	26.0533	4.3217	0.5930	0.3204	0.6770	-0.2958
8.33	-9.8768	-0.1948	-1.1469	0.0042	0.0196	-0.0322	15.6095	26.2205	4.4709	0.5929	0.3205	0.6770	-0.2957
8.34	-9.8872	-0.1910	-1.1492	0.0097	0.0171	-0.0342	15.6261	25.8440	4.4093	0.5928	0.3206	0.6771	-0.2956
8.35	-9.8900	-0.1844	-1.1558	0.0078	0.0177	-0.0382	15.8148	25.8483	4.4768	0.5926	0.3206	0.6771	-0.2956
8.36	-9.9065	-0.1682	-1.1598	0.0010	0.0156	-0.0405	15.6226	25.9826	4.2730	0.5926	0.3207	0.6773	-0.2955
8.37	-9.9312	-0.1767	-1.1567	0.0027	0.0117	-0.0354	15.6234	25.8744	4.4685	0.5925	0.3208	0.6773	-0.2955
8.38	-9.9239	-0.1769	-1.1665	0.0094	-0.0019	-0.0401	15.7717	25.8813	4.5570	0.5925	0.3209	0.6773	-0.2955
8.39	-9.8731	-0.1674	-1.1589	0.0084	-0.0047	-0.0357	15.7876	25.6495	4.4465	0.5924	0.3209	0.6773	-0.2955
8.4	-9.9127	-0.1620	-1.1492	0.0071	-0.0107	-0.0402	15.8573	25.4810	4.4041	0.5924	0.3209	0.6773	-0.2955
8.41	-9.9446	-0.1385	-1.1504	0.0062	-0.0150	-0.0430	15.7118	25.6733	4.1580	0.5925	0.3209	0.6773	-0.2955
8.42	-9.8710	-0.1503	-1.1323	-0.0008	-0.0183	-0.0478	15.9556	25.3803	4.1653	0.5924	0.3209	0.6772	-0.2955
8.43	-9.8753	-0.1793	-1.1318	-0.0007	-0.0255	-0.0447	15.8590	25.5439	4.1996	0.5925	0.3209	0.6773	-0.2955
8.44	-9.8894	-0.1905	-1.1150	-0.0017	-0.0340	-0.0440	15.8338	25.7626	4.5623	0.5926	0.3208	0.6772	-0.2955
8.45	-9.8686	-0.1903	-1.1159	-0.0085	-0.0322	-0.0416	15.6916	25.7714	4.2310	0.5927	0.3208	0.6772	-0.2956
8.46	-9.8517	-0.1757	-1.1078	-0.0086	-0.0228	-0.0393	15.6669	25.7645	4.4450	0.5927	0.3207	0.6770	-0.2955
8.47	-9.8550	-0.1695	-1.0837	-0.0099	-0.0283	-0.0398	15.6027	25.7721	4.4564	0.5928	0.3207	0.6770	-0.2955
8.48	-9.8632	-0.1800	-1.0925	-0.0076	-0.0236	-0.0467	15.9098	25.9500	4.4049	0.5929	0.3206	0.6770	-0.2955
8.49	-9.8459	-0.1963	-1.0849	-0.0081	-0.0234	-0.0580	15.7570	25.8817	4.5462	0.5929	0.3205	0.6769	-0.2955
8.5	-9.8099	-0.1963	-1.0841	-0.0085	-0.0290	-0.0566	15.7924	25.7306	4.5089	0.5931	0.3204	0.6770	-0.2956
8.51	-9.8035	-0.1990	-1.0802	-0.0080	-0.0212	-0.0584	15.7376	25.9694	4.4425	0.5931	0.3203	0.6769	-0.2956
8.52	-9.7939	-0.1991	-1.0697	-0.0038	-0.0247	-0.0604	15.6294	26.0557	4.3532	0.5932	0.3202	0.6770	-0.2957
8.53	-9.7950	-0.1992	-1.0557	-0.0071	-0.0103	-0.0568	15.4730	26.0262	4.4278	0.5931	0.3201	0.6769	-0.2957
8.54	-9.7896	-0.1906	-1.0472	-0.0067	-0.0052	-0.0595	15.5595	25.8035	4.4341	0.5932	0.3201	0.6770	-0.2958
8.55	-9.7800	-0.1885	-1.0387	-0.0106	0.0032	-0.0480	16.0833	26.1086	4.8514	0.5931	0.3200	0.6770	-0.2957
8.56	-9.7888	-0.1903	-1.0453	-0.0070	0.0107	-0.0423	15.9562	26.0700	5.1577	0.5931	0.3200	0.6771	-0.2957
8.57	-9.8259	-0.1907	-1.0478	-0.0083	0.0124	-0.0425	15.8659	25.9357	4.7594	0.5931	0.3200	0.6772	-0.2956
8.58	-9.8598	-0.1852	-1.0525	-0.0080	0.0090	-0.0329	15.8470	25.7073	4.4874	0.5930	0.3200	0.6772	-0.2955
8.59	-9.8610	-0.1794	-1.0656	-0.0096	0.0041	-0.0347	15.6786	25.4861	4.5571	0.5930	0.3201	0.6772	-0.2954
8.6	-9.9061	-0.1746	-1.0821	-0.0070	0.0025	-0.0335	15.8242	25.6007	4.5896	0.5930	0.3200	0.6772	-0.2953
8.61	-9.9186	-0.1740	-1.0993	-0.0130	-0.0075	-0.0348	15.9307	25.5864	4.3429	0.5930	0.3201	0.6773	-0.2953
8.62	-9.8952	-0.1766	-1.1018	-0.0145	-0.0052	-0.0332	15.7097	25.9062	4.2408	0.5930	0.3201	0.6773	-0.2952
8.63	-9.8991	-0.1817	-1.1032	-0.0138	-0.0086	-0.0398	15.5747	25.6730	4.4453	0.5931	0.3200	0.6773	-0.2951
8.64	-9.8874	-0.1792	-1.1152	-0.0095	-0.0134	-0.0359	15.8877	25.7728	4.5929	0.5931	0.3200	0.6773	-0.2950
8.65	-9.8898	-0.1815	-1.1140	-0.0067	-0.0127	-0.0376	15.7316	25.8715	4.4263	0.5931	0.3200	0.6773	-0.2950
8.66	-9.8861	-0.1849	-1.1129	-0.0041	-0.0187	-0.0371	15.8415	25.8580	4.5179	0.5932	0.3200	0.6773	-0.2950
8.67	-9.8782	-0.1724	-1.1173	-0.0086	-0.0189	-0.0380	15.9480	25.7666	4.3539	0.5932	0.3200	0.6772	-0.2949
8.68	-9.8736	-0.1676	-1.1173	-0.0098	-0.0169	-0.0396	15.7846	25.8640	4.5209	0.5933	0.3200	0.6773	-0.2949
8.69	-9.8594	-0.1765	-1.1158	-0.0076	-0.0147	-0.0353	15.6914	25.8455	4.5529	0.5934	0.3199	0.6772	-0.2949
8.7	-9.8703	-0.1723	-1.1151	-0.0047	-0.0224	-0.0391	15.8364	25.8722	4.3732	0.5935	0.3199	0.6772	-0.2949
8.71	-9.8598	-0.1715	-1.1142	-0.0082	-0.0213	-0.0478	15.7035	25.7491	4.3811	0.5935	0.3198	0.6771	-0.2949
8.72	-9.8481	-0.1719	-1.1147	-0.0037	-0.0192	-0.0391	15.7791	25.6642	4.3975	0.5936	0.3198	0.6771	-0.2949
8.73	-9.8582	-0.1720	-1.1155	-0.0076	-0.0165	-0.0331	15.7814	26.0472	4.5303	0.5936	0.3198	0.6771	-0.2948
8.74	-9.8821	-0.1851	-1.1120	-0.0084	-0.0178	-0.0361	15.7131	25.8899	4.2935	0.5937	0.3198	0.6770	-0.2948
8.75	-9.8618	-0.1845	-1.1164	-0.0061	-0.0276	-0.0349	15.7265	25.6136	4.1784	0.5939	0.3198	0.6770	-0.2948
8.76	-9.8253	-0.1908	-1.1123	-0.0067	-0.0239	-0.0332	15.6245	25.7362	4.3686	0.5939	0.3197	0.6769	-0.2947
8.77	-9.8236	-0.1815	-1.1146	-0.0080	-0.0216	-0.0348	15.8446	25.5486	4.3862	0.5940	0.3197	0.6769	-0.2947
8.78	-9.8241	-0.1808	-1.1151	-0.0077	-0.0206	-0.0340	15.7887	25.7961	4.3992	0.5940	0.3197	0.6767	-0.2947
8.79	-9.8205	-0.1855	-1.1109	-0.0085	-0.0178	-0.0369	15.9737	25.8196	4.2326	0.5941	0.3197	0.6768	-0.2947
8.8	-9.8612	-0.1964	-1.1015	-0.0078	-0.0171	-0.0335	15.9664	25.4615	4.2297	0.5942	0.3197	0.6767	-0.2946
8.81	-9.9122	-0.2031	-1.1000	-0.0058	-0.0193	-0.0378	15.8135	25.8487	4.3952	0.5942	0.3196	0.6767	-0.2946
8.82	-9.8597	-0.2023	-1.0956	-0.0108	-0.0242	-0.0377	15.8133	25.9683	4.3718	0.5944	0.3196	0.6767	-0.2946
8.83	-9.8573	-0.2158	-1.1162	-0.0040	-0.0195	-0.0343	15.8467	25.7626	4.5284	0.5944	0.3196	0.6766	-0.2945
8.84	-9.8518	-0.2115	-1.1181	-0.0055	-0.0268	-0.0336	15.9505	25.6336	4.6084	0.5945	0.3196	0.6765	-0.2945
8.85	-9.8359	-0.2190	-1.1144	-0.0006	-0.0186	-0.0240	15.7929	25.7687	4.4456	0.5946	0.3196	0.6764	-0.2944
8.86	-9.8230	-0.1962	-1.1261	0.0050	-0.0138	-0.0320	15.9522	25.9863	4.6225	0.5947	0.3197	0.6764	-0.2945
8.87	-9.8216	-0.1786	-1.1266	-0.0023	-0.0101	-0.0324	15.8526	26.0422	4.4511	0.5947	0.3197	0.6764	-0.2944
8.88	-9.8430	-0.1766	-1.1478	0.0009	-0.0103	-0.0317	15.8039	25.7456	4.3427	0.5947	0.3197	0.6763	-0.2944
8.89	-9.8424	-0.1839	-1.1467	0.0022	-0.0175	-0.0334	15.8314	25.7936	4.4969	0.5948	0.3197	0.6763	-0.2944
8.9	-9.8602	-0.1766	-1.1393	0.0070	-0.0033	-0.0348	15.8004	25.6986	4.4740	0.5948	0.3198	0.6763	-0.2944
8.91	-9.8734	-0.1745	-1.1369	0.0110	-0.0070	-0.0353	15.6650	25.5640	4.4700	0.5948	0.3198	0.6762	-0.2944
8.92	-9.8645	-0.1685	-1.1343	0.0146	-0.0116	-0.0336	15.9304	25.8990	4.5018	0.5948	0.3199	0.6761	-0.2944
8.93	-9.8865	-0.1499	-1.1367	0.0167	-0.0157	-0.0336	15.8863	25.8159	4.3201	0.5949	0.3200	0.6762	-0.2944
8.94	-9.8756	-0.1461	-1.1227	0.0177	-0.0151	-0.0346	15.6604	25.7601	4.1860	0.5948	0.3200	0.6760	-0.2945
8.95	-9.8692	-0.1455	-1.1188	0.0191	-0.0222	-0.0355	15.8307	25.7190	4.4043	0.5949	0.3201	0.6760	-0.2946
8.96	-9.8612	-0.1300	-1.1183	0.0148	-0.0277	-0.0325	15.8079	25.5560	4.3831	0.5949	0.3201	0.6758	-0.2946
8.97	-9.8535	-0.1225	-1.1123	0.0145	-0.0213	-0.0425	15.8295	25.6195	4.3807	0.5950	0.3201	0.6758	-0.2946
8.98	-9.8498	-0.1103	-1.1146	0.0192	-0.0267	-0.0333	15.7938	25.5232	4.2166	0.5951	0.3202	0.6757	-0.2947
8.99	-9.8489	-0.1125	-1.1034	0.0140	-0.0209	-0.0371	15.9050	25.4829	4.1873	0.5951	0.3202	0.6756	-0.2947
9	-9.8613	-0.1204	-1.0994	0.0114	-0.0237	-0.0392	15.9107	25.6047	4.3234	0.5952	0.3203	0.6756	-0.2948
9.01	-9.8627	-0.1162	-1.1050	0.0082	-0.0171	-0.0367	15.6221	25.5973	4.5562	0.5952	0.3203	0.6755	-0.2948
9.02	-9.8206	-0.1244	-1.0835	0.0061	-0.0224	-0.0367	15.7022	25.7753	4.3211	0.5953	0.3203	0.6754	-0.2949
9.03	-9.8264	-0.1241	-1.0746	0.0121	-0.0257	-0.0339	15.8321	25.7492	4.2556	0.5953	0.3203	0.6752	-0.2949
9.04	-9.8612	-0.1199	-1.0599	0.0097	-0.0251	-0.0350	15.7020	25.7845	4.4537	0.5954	0.3204	0.6752	-0.2949
9.05	-9.8203	-0.1159	-1.0599	-0.0021	-0.0203	-0.0363	16.1190	25.8948	4.6271	0.5954	0.3204	0.6752	-0.2949
9.06	-9.8502	-0.1332	-1.0485	-0.0072	-0.0169	-0.0335	16.2213	25.7631	4.4062	0.5955	0.3203	0.6751	-0.2949
9.07	-9.8609	-0.1385	-1.0446	-0.0061	-0.0200	-0.0269	15.9775	25.8191	4.3589	0.5956	0.3204	0.6751	-0.2948
9.08	-9.8561	-0.1588	-1.0360	-0.0060	-0.0213	-0.0218	15.8426	25.8368	4.5831	0.5957	0.3204	0.6750	-0.2948
9.09	-9.8640	-0.1400	-1.0401	-0.0076	-0.0250	-0.0160	15.6227	25.7606	4.3169	0.5958	0.3204	0.6749	-0.2947
9.1	-9.8570	-0.1282	-1.0483	-0.0095	-0.0175	-0.0164	15.9185	25.7203	4.1137	0.5959	0.3205	0.6748	-0.2946
9.11	-9.8799	-0.1177	-1.0467	-0.0011	-0.0154	-0.0206	15.7345	25.8359	4.4785	0.5960	0.3206	0.6748	-0.2945
9.12	-9.8891	-0.1189	-1.0461	0.0077	-0.0267	-0.0316	15.7323	25.8157	4.2515	0.5961	0.3206	0.6747	-0.2945
9.13	-9.8929	-0.1195	-1.0476	0.0054	-0.0237	-0.0310	15.8553	25.7774	4.1598	0.5961	0.3206	0.6746	-0.2945
9.14	-9.9012	-0.1169	-1.0506	0.0039	-0.0261	-0.0223	16.0990	25.5065	4.1543	0.5962	0.3207	0.6745	-0.2945
9.15	-9.9009	-0.0891	-1.0522	0.0116	-0.0272	-0.0253	15.9947	25.6043	4.2614	0.5963	0.3207	0.6744	-0.2945
9.16	-9.8946	-0.0860	-1.0402	0.0076	-0.0367	-0.0297	16.0261	25.6355	4.2799	0.5964	0.3208	0.6743	-0.2945
9.17	-9.8871	-0.0974	-1.0421	0.0149	-0.0395	-0.0303	16.0001	25.3485	4.3945	0.5964	0.3208	0.6741	-0.2945
9.18	-9.8937	-0.0818	-1.0224	0.0155	-0.0398	-0.0276	15.8397	25.4986	4.1790	0.5966	0.3209	0.6741	-0.2946
9.19	-9.8692	-0.0812	-1.0118	0.0150	-0.0395	-0.0302	15.9035	25.5750	3.8732	0.5967	0.3209	0.6739	-0.2947
9.2	-9.8601	-0.0746	-1.0200	0.0136	-0.0409	-0.0316	15.8582	25.5251	4.1455	0.5969	0.3210	0.6738	-0.2947
9.21	-9.8581	-0.0754	-1.0129	0.0063	-0.0379	-0.0369	15.8987	25.6671	4.1606	0.5969	0.3209	0.6736	-0.2948
9.22	-9.8633	-0.0712	-1.0189	0.0166	-0.0394	-0.0346	15.9686	25.6028	4.1398	0.5971	0.3210	0.6735	-0.2948
9.23	-9.8593	-0.0755	-1.0035	0.0148	-0.0367	-0.0341	15.9920	25.5631	4.1878	0.5972	0.3210	0.6734	-0.2949
9.24	-9.8462	-0.0712	-1.0065	0.0105	-0.0302	-0.0364	15.8702	25.7664	4.3636	0.5972	0.3210	0.6732	-0.2949
9.25	-9.8470	-0.0680	-1.0072	0.0205	-0.0310	-0.0359	15.9024	25.6932	4.2015	0.5974	0.3211	0.6732	-0.2950
9.26	-9.8598	-0.0740	-1.0033	0.0150	-0.0312	-0.0407	15.9626	25.7908	4.1532	0.5974	0.3211	0.6730	-0.2951
9.27	-9.8585	-0.0661	-1.0080	0.0151	-0.0256	-0.0400	15.8253	25.5607	4.3516	0.5975	0.3211	0.6730	-0.2952
9.28	-9.8445	-0.0676	-1.0068	0.0150	-0.0239	-0.0381	16.0005	25.6430	4.2580	0.5974	0.3211	0.6728	-0.2952
9.29	-9.8508	-0.0707	-1.0035	0.0141	-0.0241	-0.0424	15.9410	25.7277	4.0876	0.5975	0.3212	0.6728	-0.2953
9.3	-9.8455	-0.0648	-1.0073	0.0136	-0.0230	-0.0483	15.8345	25.6260	4.0866	0.5976	0.3212	0.6727	-0.2954
9.31	-9.8411	-0.0667	-1.0087	0.0136	-0.0231	-0.0463	15.6928	25.8728	4.2494	0.5976	0.3212	0.6726	-0.2954
9.32	-9.8610	-0.0719	-1.0029	0.0197	-0.0213	-0.0465	15.7073	25.5911	4.1538	0.5976	0.3212	0.6726	-0.2955
9.33	-9.8499	-0.0708	-1.0073	0.0124	-0.0219	-0.0532	15.9540	25.4142	4.1237	0.5976	0.3212	0.6725	-0.2956
9.34	-9.8582	-0.0621	-1.0061	0.0141	-0.0197	-0.0493	15.9733	25.3377	4.2656	0.5977	0.3212	0.6725	-0.2957
9.35	-9.8619	-0.0788	-1.0074	0.0049	-0.0184	-0.0528	15.9612	25.5595	4.0676	0.5976	0.3211	0.6724	-0.2957
9.36	-9.8468	-0.0757	-1.0038	0.0103	-0.0186	-0.0463	15.8743	25.5506	3.9514	0.5977	0.3212	0.6724	-0.2958
9.37	-9.8550	-0.0759	-0.9974	0.0093	-0.0174	-0.0478	16.0182	25.5685	4.1179	0.5977	0.3212	0.6723	-0.2958
9.38	-9.8452	-0.0878	-1.0074	0.0010	-0.0139	-0.0514	15.8693	25.7605	3.9940	0.5978	0.3212	0.6723	-0.2959
9.39	-9.8351	-0.0793	-1.0047	0.0109	-0.0155	-0.0523	15.9733	25.6110	4.3029	0.5977	0.3211	0.6723	-0.2959
9.4	-9.8289	-0.0863	-1.0010	0.0031	-0.0171	-0.0479	15.9697	25.5612	4.3052	0.5978	0.3211	0.6723	-0.2960
9.41	-9.8258	-0.0840	-1.0067	0.0006	-0.0203	-0.0449	15.7630	25.4908	4.0331	0.5979	0.3211	0.6722	-0.2960
9.42	-9.8530	-0.0979	-1.0009	0.0070	-0.0108	-0.0522	15.8937	25.5012	4.0818	0.5978	0.3211	0.6721	-0.2960
9.43	-9.8676	-0.0996	-1.0072	-0.0026	-0.0097	-0.0572	15.8515	25.8120	4.1303	0.5979	0.3211	0.6722	-0.2961
9.44	-9.8363	-0.1009	-1.0039	0.0018	-0.0023	-0.0508	15.7993	25.7730	4.3587	0.5978	0.3210	0.6722	-0.2961
9.45	-9.8397	-0.0977	-1.0050	-0.0028	0.0009	-0.0537	15.7048	25.7050	4.1856	0.5978	0.3210	0.6723	-0.2961
9.46	-9.8332	-0.0817	-1.0110	0.0104	-0.0011	-0.0497	15.7921	25.8200	4.0452	0.5977	0.3210	0.6722	-0.2961
9.47	-9.8239	-0.0938	-1.0012	0.0082	0.0036	-0.0528	16.0108	25.8277	4.1491	0.5977	0.3210	0.6723	-0.2961
9.48	-9.8321	-0.1052	-1.0049	0.0029	0.0054	-0.0603	15.5864	25.7854	4.2121	0.5977	0.3210	0.6724	-0.2961
9.49	-9.8822	-0.1104	-1.0075	-0.0008	0.0076	-0.0502	15.7002	25.9227	4.1816	0.5976	0.3210	0.6724	-0.2961
9.5	-9.8725	-0.1063	-1.0027	-0.0038	0.0050	-0.0423	15.7983	25.7802	3.9218	0.5976	0.3211	0.6725	-0.2961
9.51	-9.8548	-0.1394	-1.0019	-0.0034	0.0027	-0.0417	15.8115	25.4528	4.1307	0.5976	0.3211	0.6725	-0.2960
9.52	-9.8773	-0.1232	-1.0063	-0.0070	0.0012	-0.0385	16.1784	25.4715	4.2014	0.5976	0.3211	0.6725	-0.2960
9.53	-9.8477	-0.1271	-1.0095	-0.0075	-0.0031	-0.0347	16.0351	25.4714	3.9397	0.5975	0.3211	0.6724	-0.2959
9.54	-9.8176	-0.1103	-1.0148	-0.0055	0.0089	-0.0337	15.9699	25.4405	4.0154	0.5976	0.3211	0.6725	-0.2958
9.55	-9.8274	-0.0923	-1.0341	-0.0048	0.0098	-0.0331	16.4769	25.5442	4.2317	0.5975	0.3212	0.6726	-0.2957
9.56	-9.8251	-0.0803	-1.0375	-0.0008	0.0061	-0.0340	16.7758	25.8289	4.3458	0.5975	0.3212	0.6726	-0.2957
9.57	-9.8255	-0.0941	-1.0594	-0.0016	0.0106	-0.0329	16.2603	25.8358	4.1668	0.5975	0.3213	0.6726	-0.2956
9.58	-9.8317	-0.1005	-1.0601	-0.0078	0.0113	-0.0392	16.0072	25.6919	4.1220	0.5975	0.3213	0.6727	-0.2955
9.59	-9.8587	-0.0874	-1.0543	0.0063	0.0114	-0.0410	15.9135	25.5666	4.2576	0.5974	0.3214	0.6727	-0.2955
9.6	-9.8597	-0.0848	-1.0662	0.0111	0.0097	-0.0393	16.0117	25.7241	4.0760	0.5973	0.3214	0.6727	-0.2954
9.61	-9.8802	-0.0768	-1.0690	0.0001	0.0138	-0.0469	15.9931	25.6729	4.1418	0.5973	0.3215	0.6728	-0.2954
9.62	-9.9052	-0.0556	-1.0791	-0.0059	0.0150	-0.0484	15.7551	25.5664	4.2020	0.5972	0.3215	0.6729	-0.2953
9.63	-9.8839	-0.0592	-1.0752	-0.0017	0.0069	-0.0493	15.9321	25.7038	3.9725	0.5971	0.3215	0.6729	-0.2953
9.64	-9.8606	-0.0705	-1.0781	-0.0004	0.0063	-0.0500	16.0051	25.5835	4.1493	0.5971	0.3215	0.6730	-0.2953
9.65	-9.8707	-0.0544	-1.0872	-0.0068	0.0002	-0.0479	15.9005	26.0144	4.1761	0.5971	0.3215	0.6730	-0.2953
9.66	-9.8769	-0.0524	-1.0855	-0.0080	0.0076	-0.0498	15.9451	25.7924	4.0624	0.5971	0.3215	0.6731	-0.2952
9.67	-9.8739	-0.0652	-1.0884	-0.0076	0.0078	-0.0479	15.8297	25.5502	4.2085	0.5970	0.3215	0.6731	-0.2951
9.68	-9.8830	-0.0655	-1.0920	-0.0085	0.0007	-0.0524	15.8266	25.7506	4.2047	0.5970	0.3215	0.6732	-0.2952
9.69	-9.8941	-0.0802	-1.0867	-0.0120	-0.0046	-0.0441	15.9980	25.7766	4.1708	0.5970	0.3214	0.6732	-0.2951
9.7	-9.8873	-0.0794	-1.0863	-0.0168	0.0006	-0.0425	16.0061	25.5487	4.0196	0.5970	0.3214	0.6733	-0.2950
9.71	-9.8481	-0.1039	-1.0753	-0.0111	-0.0014	-0.0483	16.0271	25.4005	4.0100	0.5970	0.3214	0.6733	-0.2949
9.72	-9.8826	-0.0953	-1.0729	-0.0097	-0.0003	-0.0460	15.8477	25.5771	4.1638	0.5970	0.3214	0.6733	-0.2949
9.73	-9.8862	-0.0783	-1.0792	-0.0160	-0.0101	-0.0503	15.8812	25.6093	4.0125	0.5970	0.3213	0.6734	-0.2948
9.74	-9.8252	-0.0935	-1.0718	-0.0098	-0.0109	-0.0487	15.9395	25.6097	4.1052	0.5970	0.3212	0.6733	-0.2948
9.75	-9.8445	-0.1100	-1.0644	-0.0121	-0.0131	-0.0512	15.8199	25.5925	4.1022	0.5971	0.3212	0.6734	-0.2948
9.76	-9.8291	-0.1204	-1.0604	-0.0102	-0.0119	-0.0444	15.9567	25.6426	3.9921	0.5971	0.3212	0.6734	-0.2947
9.77	-9.8269	-0.1281	-1.0617	-0.0003	-0.0062	-0.0452	15.8938	25.7247	4.0210	0.5972	0.3212	0.6734	-0.2947
9.78	-9.8213	-0.1110	-1.0576	-0.0073	-0.0023	-0.0412	16.0164	25.6020	4.0230	0.5971	0.3211	0.6733	-0.2946
9.79	-9.8340	-0.0919	-1.0716	0.0098	0.0064	-0.0388	16.0155	25.4797	3.9973	0.5971	0.3212	0.6734	-0.2946
9.8	-9.8555	-0.0744	-1.0774	0.0109	0.0098	-0.0473	15.8003	25.7623	4.0930	0.5970	0.3213	0.6734	-0.2946
9.81	-9.8735	-0.0829	-1.0788	0.0036	0.0132	-0.0523	15.6942	25.7210	4.3372	0.5969	0.3213	0.6735	-0.2946
9.82	-9.8834	-0.0745	-1.0838	0.0094	0.0045	-0.0573	15.9716	25.5914	4.1630	0.5969	0.3213	0.6736	-0.2947
9.83	-9.8655	-0.0566	-1.0948	0.0058	0.0055	-0.0547	15.7403	25.7244	4.0976	0.5968	0.3213	0.6736	-0.2947
9.84	-9.8820	-0.0444	-1.0782	-0.0028	0.0072	-0.0541	15.8024	25.6801	4.1073	0.5968	0.3214	0.6737	-0.2947
9.85	-9.8997	-0.0374	-1.0876	0.0014	0.0001	-0.0512	15.8446	25.6960	4.1049	0.5967	0.3213	0.6736	-0.2946
9.86	-9.8992	-0.0290	-1.0885	-0.0052	-0.0028	-0.0494	15.9301	25.6992	4.2138	0.5967	0.3213	0.6737	-0.2947
9.87	-9.8985	-0.0325	-1.0788	-0.0017	-0.0122	-0.0536	15.9089	25.6750	4.0400	0.5967	0.3213	0.6737	-0.2947
9.88	-9.8867	-0.0422	-1.0795	-0.0106	-0.0198	-0.0549	15.6938	25.7761	4.2320	0.5967	0.3212	0.6738	-0.2947
9.89	-9.8590	-0.0495	-1.0761	-0.0157	-0.0156	-0.0603	15.9736	25.7066	4.0645	0.5967	0.3211	0.6737	-0.2946
9.9	-9.8493	-0.0718	-1.0769	-0.0148	-0.0152	-0.0564	15.9720	25.4204	4.0534	0.5968	0.3210	0.6738	-0.2946
9.91	-9.8420	-0.0932	-1.0694	-0.0272	-0.0141	-0.0515	15.9475	25.6876	4.0936	0.5969	0.3209	0.6738	-0.2946
9.92	-9.8083	-0.1156	-1.0629	-0.0336	-0.0141	-0.0547	16.0574	25.6162	3.8799	0.5969	0.3208	0.6738	-0.2945
9.93	-9.7908	-0.1243	-1.0699	-0.0212	-0.0092	-0.0523	15.8593	25.5054	4.1700	0.5970	0.3207	0.6739	-0.2944
9.94	-9.7935	-0.1321	-1.0675	-0.0119	-0.0026	-0.0438	16.0026	25.6589	4.2097	0.5970	0.3207	0.6739	-0.2944
9.95	-9.8018	-0.1288	-1.0758	-0.0093	0.0102	-0.0525	15.9579	25.7868	3.9102	0.5970	0.3207	0.6740	-0.2943
9.96	-9.8154	-0.1324	-1.0828	-0.0059	0.0136	-0.0462	15.8085	25.6889	4.0121	0.5968	0.3207	0.6740	-0.2942
9.97	-9.8368	-0.1205	-1.0817	0.0071	0.0070	-0.0510	15.9630	25.5853	4.3862	0.5968	0.3207	0.6741	-0.2942
9.98	-9.8092	-0.1159	-1.0883	0.0190	0.0075	-0.0523	16.0506	25.6182	4.1904	0.5967	0.3208	0.6741	-0.2943
9.99	-9.8041	-0.1105	-1.1033	0.0185	0.0172	-0.0492	15.8924	25.6028	4.2784	0.5966	0.3209	0.6741	-0.2943
10	-9.8194	-0.0973	-1.1035	0.0271	0.0262	-0.0559	16.0596	25.6077	4.3205	0.5965	0.3210	0.6743	-0.2944
10.01	-9.7846	-0.0833	-1.1159	0.0347	0.0332	-0.0511	15.9200	25.6232	4.0999	0.5963	0.3211	0.6743	-0.2944
10.02	-9.8038	-0.0660	-1.1210	0.0426	0.0363	-0.0418	15.7998	25.7865	4.1845	0.5961	0.3214	0.6744	-0.2945
10.03	-9.8274	-0.0317	-1.1321	0.0463	0.0369	-0.0540	15.8444	25.7784	4.1928	0.5958	0.3215	0.6744	-0.2945
10.04	-9.8692	0.0016	-1.1367	0.0408	0.0390	-0.0560	15.8356	25.7820	4.1075	0.5956	0.3217	0.6745	-0.2946
10.05	-9.9060	0.0264	-1.1512	0.0453	0.0391	-0.0507	16.3399	25.7985	4.4212	0.5954	0.3219	0.6746	-0.2947
10.06	-9.9269	0.0386	-1.1376	0.0328	0.0246	-0.0610	16.3801	26.0307	4.6166	0.5951	0.3220	0.6747	-0.2948
10.07	-9.9335	0.0362	-1.1164	0.0191	0.0104	-0.0585	16.3449	25.5834	4.1417	0.5950	0.3221	0.6748	-0.2949
10.08	-9.9248	0.0386	-1.1091	0.0172	0.0083	-0.0667	16.1711	25.4041	3.9896	0.5949	0.3221	0.6748	-0.2950
10.09	-9.8893	0.0309	-1.1022	0.0098	-0.0080	-0.0652	16.0852	25.5799	3.9611	0.5949	0.3221	0.6749	-0.2950
10.1	-9.8625	0.0249	-1.0773	-0.0041	-0.0098	-0.0694	16.1081	25.3810	3.8824	0.5948	0.3219	0.6748	-0.2951
10.11	-9.8824	-0.0139	-1.0737	-0.0202	-0.0074	-0.0761	16.1364	25.4347	3.9534	0.5948	0.3218	0.6750	-0.2951
10.12	-9.8351	-0.0497	-1.0671	-0.0251	0.0044	-0.0858	16.0378	25.5438	4.0186	0.5948	0.3216	0.6751	-0.2951
10.13	-9.8272	-0.0783	-1.0682	-0.0341	0.0097	-0.0871	15.8100	25.6736	3.9973	0.5947	0.3214	0.6752	-0.2951
10.14	-9.8445	-0.0870	-1.0693	-0.0369	0.0085	-0.0924	15.9516	25.6798	4.0013	0.5946	0.3212	0.6754	-0.2950
10.15	-9.8438	-0.1073	-1.0821	-0.0463	0.0072	-0.0870	16.0610	25.5390	4.0090	0.5946	0.3210	0.6756	-0.2950
10.16	-9.8586	-0.1388	-1.0646	-0.0412	0.0100	-0.0889	15.9308	25.4877	3.9991	0.5946	0.3207	0.6758	-0.2949
10.17	-9.8893	-0.1681	-1.0657	-0.0534	0.0173	-0.0932	15.6482	25.8711	4.0079	0.5944	0.3204	0.6759	-0.2948
10.18	-9.9465	-0.1821	-1.0805	-0.0566	0.0124	-0.0943	15.5733	25.9259	3.9693	0.5944	0.3202	0.6763	-0.2948
10.19	-9.9241	-0.1932	-1.0798	-0.0614	0.0018	-0.0978	15.7381	25.8415	4.0520	0.5944	0.3198	0.6764	-0.2947
10.2	-9.9087	-0.2187	-1.0937	-0.0640	-0.0004	-0.0911	15.7696	26.0573	4.0908	0.5944	0.3195	0.6767	-0.2946
10.21	-9.8918	-0.2297	-1.1021	-0.0581	-0.0102	-0.0872	15.7537	25.9261	4.0932	0.5944	0.3192	0.6768	-0.2945
10.22	-9.8652	-0.2480	-1.1061	-0.0612	-0.0058	-0.0815	15.7596	25.8179	4.1816	0.5945	0.3189	0.6770	-0.2944
10.23	-9.8551	-0.2355	-1.1145	-0.0647	-0.0072	-0.0807	15.5691	25.9047	3.8415	0.5945	0.3186	0.6771	-0.2942
10.24	-9.8289	-0.2262	-1.1137	-0.0653	-0.0173	-0.0765	15.6608	25.9668	4.0753	0.5946	0.3183	0.6772	-0.2941
10.25	-9.8210	-0.2398	-1.1155	-0.0703	-0.0107	-0.0812	15.6760	25.7203	4.2143	0.5947	0.3180	0.6774	-0.2940
10.26	-9.8237	-0.2657	-1.1124	-0.0640	-0.0020	-0.0784	15.6722	25.7936	3.9965	0.5947	0.3177	0.6775	-0.2938
10.27	-9.8320	-0.2887	-1.1218	-0.0647	-0.0026	-0.0837	15.8706	25.6878	4.0578	0.5948	0.3174	0.6777	-0.2937
10.28	-9.8318	-0.2868	-1.1221	-0.0638	0.0072	-0.0800	15.8115	25.6663	4.1945	0.5947	0.3171	0.6778	-0.2935
10.29	-9.8469	-0.2967	-1.1376	-0.0619	-0.0050	-0.0758	15.9056	25.6773	4.1964	0.5948	0.3169	0.6781	-0.2934
10.3	-9.8409	-0.3239	-1.1334	-0.0602	-0.0019	-0.0730	15.8850	25.6925	4.3245	0.5948	0.3166	0.6782	-0.2932
10.31	-9.9156	-0.2976	-1.1521	-0.0533	0.0021	-0.0650	15.8467	25.8974	4.1749	0.5948	0.3164	0.6783	-0.2931
10.32	-9.8607	-0.3298	-1.1445	-0.0537	-0.0168	-0.0656	15.8257	25.6188	4.1839	0.5949	0.3162	0.6784	-0.2930
10.33	-9.9100	-0.3060	-1.1591	-0.0456	-0.0095	-0.0617	15.5131	25.6154	4.3325	0.5950	0.3160	0.6785	-0.2928
10.34	-9.9139	-0.3112	-1.1454	-0.0469	-0.0161	-0.0582	15.8137	25.6919	4.3966	0.5951	0.3158	0.6786	-0.2927
10.35	-9.8993	-0.3010	-1.1479	-0.0394	-0.0168	-0.0554	15.6313	25.7284	4.2695	0.5951	0.3156	0.6786	-0.2926
10.36	-9.8981	-0.3209	-1.1457	-0.0430	-0.0266	-0.0575	15.8125	26.0134	4.2672	0.5952	0.3155	0.6787	-0.2925
10.37	-9.9121	-0.3163	-1.1424	-0.0321	-0.0242	-0.0554	15.6879	26.0033	4.2737	0.5953	0.3153	0.6787	-0.2925
10.38	-9.8714	-0.3262	-1.1327	-0.0315	-0.0326	-0.0495	15.6725	25.8284	4.2660	0.5954	0.3152	0.6787	-0.2924
10.39	-9.8507	-0.3151	-1.1123	-0.0265	-0.0286	-0.0480	15.6587	25.9613	4.2780	0.5955	0.3150	0.6787	-0.2923
10.4	-9.8820	-0.3076	-1.1169	-0.0148	-0.0194	-0.0497	15.4525	25.7819	4.3827	0.5956	0.3150	0.6787	-0.2923
10.41	-9.9136	-0.2831	-1.1112	-0.0108	-0.0218	-0.0479	15.6954	25.7922	4.1548	0.5956	0.3149	0.6787	-0.2923
10.42	-9.8731	-0.2776	-1.0963	-0.0093	-0.0285	-0.0520	15.6357	25.9585	4.2775	0.5956	0.3148	0.6786	-0.2923
10.43	-9.8786	-0.2793	-1.0806	-0.0058	-0.0278	-0.0573	15.8176	25.9261	4.2616	0.5957	0.3148	0.6787	-0.2923
10.44	-9.8757	-0.2773	-1.0722	-0.0087	-0.0365	-0.0435	15.6705	25.8036	4.1426	0.5958	0.3147	0.6786	-0.2923
10.45	-9.8587	-0.2713	-1.0542	-0.0062	-0.0459	-0.0378	15.7403	25.6858	4.2534	0.5960	0.3147	0.6785	-0.2923
10.46	-9.8409	-0.2413	-1.0509	-0.0025	-0.0402	-0.0354	15.8278	25.6629	4.3967	0.5961	0.3147	0.6783	-0.2923
10.47	-9.8117	-0.2144	-1.0321	-0.0076	-0.0389	-0.0361	15.9153	25.6974	4.2111	0.5962	0.3147	0.6783	-0.2923
10.48	-9.8037	-0.2203	-1.0310	-0.0072	-0.0343	-0.0350	15.8378	25.9916	4.0077	0.5964	0.3146	0.6782	-0.2923
10.49	-9.7835	-0.2180	-1.0235	-0.0071	-0.0294	-0.0344	15.7221	25.7544	4.2955	0.5964	0.3146	0.6781	-0.2922
10.5	-9.7782	-0.2253	-1.0212	-0.0063	-0.0330	-0.0348	15.8589	25.7790	4.1592	0.5966	0.3146	0.6781	-0.2922
10.51	-9.7798	-0.2149	-1.0229	-0.0024	-0.0244	-0.0345	15.8828	25.5830	4.2208	0.5967	0.3146	0.6779	-0.2922
10.52	-9.7894	-0.2093	-1.0211	-0.0051	-0.0148	-0.0360	15.6884	25.6750	4.3246	0.5968	0.3147	0.6780	-0.2921
10.53	-9.7859	-0.2112	-1.0164	-0.0056	-0.0122	-0.0324	15.7497	25.5683	4.1559	0.5967	0.3147	0.6778	-0.2920
10.54	-9.7871	-0.1934	-1.0167	-0.0072	-0.0095	-0.0305	15.8466	25.7401	4.1064	0.5968	0.3147	0.6779	-0.2920
10.55	-9.7869	-0.1922	-1.0269	-0.0052	-0.0003	-0.0324	15.9393	26.0536	4.2020	0.5968	0.3148	0.6779	-0.2919
10.56	-9.7890	-0.1876	-1.0350	-0.0046	0.0001	-0.0320	16.3825	26.0252	4.1747	0.5968	0.3148	0.6779	-0.2918
10.57	-9.8056	-0.1766	-1.0607	-0.0084	0.0061	-0.0342	15.9535	25.9367	4.1088	0.5968	0.3149	0.6779	-0.2917
10.58	-9.8055	-0.1764	-1.0757	-0.0078	0.0117	-0.0327	15.7614	25.7287	4.1012	0.5968	0.3149	0.6780	-0.2916
10.59	-9.8215	-0.1759	-1.0722	-0.0087	0.0166	-0.0342	15.5413	25.6200	4.0630	0.5967	0.3150	0.6781	-0.2915
10.6	-9.8302	-0.1716	-1.0800	-0.0078	0.0139	-0.0317	15.7098	25.5481	4.1927	0.5966	0.3150	0.6780	-0.2914
10.61	-9.8240	-0.1692	-1.0857	-0.0046	0.0181	-0.0310	15.6500	25.8302	4.1612	0.5967	0.3151	0.6782	-0.2913
10.62	-9.8227	-0.1599	-1.0999	-0.0027	0.0235	-0.0309	15.6123	25.9724	4.1992	0.5965	0.3152	0.6782	-0.2912
10.63	-9.8494	-0.1458	-1.1100	0.0083	0.0212	-0.0305	15.7724	25.8651	4.0734	0.5965	0.3153	0.6783	-0.2911
10.64	-9.8441	-0.1504	-1.1074	0.0115	0.0161	-0.0339	15.8761	25.6485	4.1983	0.5964	0.3154	0.6783	-0.2910
10.65	-9.8443	-0.1429	-1.1079	0.0095	0.0235	-0.0304	15.9608	25.6766	4.1408	0.5963	0.3156	0.6784	-0.2910
10.66	-9.8407	-0.1505	-1.1116	0.0120	0.0259	-0.0327	15.7715	25.6597	3.8905	0.5962	0.3157	0.6784	-0.2909
10.67	-9.8283	-0.1705	-1.1279	0.0162	0.0318	-0.0346	15.7559	25.6829	4.2331	0.5960	0.3158	0.6784	-0.2908
10.68	-9.8526	-0.1846	-1.1557	0.0172	0.0313	-0.0338	15.9991	25.5473	4.1222	0.5959	0.3160	0.6786	-0.2908
10.69	-9.8447	-0.1937	-1.1515	0.0208	0.0281	-0.0315	16.0440	25.6339	3.8314	0.5958	0.3162	0.6786	-0.2908
10.7	-9.8455	-0.2079	-1.1620	0.0277	0.0256	-0.0336	15.7935	25.6805	3.9832	0.5957	0.3164	0.6787	-0.2908
10.71	-9.8428	-0.2164	-1.1647	0.0411	0.0258	-0.0255	15.6642	25.6605	4.1072	0.5954	0.3166	0.6786	-0.2908
10.72	-9.8433	-0.2254	-1.1623	0.0420	0.0257	-0.0271	15.8199	25.7805	4.0457	0.5953	0.3168	0.6787	-0.2908
10.73	-9.8927	-0.2222	-1.1828	0.0493	0.0314	-0.0278	15.8901	25.5563	4.0086	0.5952	0.3171	0.6787	-0.2909
10.74	-9.8847	-0.2092	-1.1942	0.0482	0.0332	-0.0313	15.7803	25.6695	4.2185	0.5949	0.3173	0.6787	-0.2909
10.75	-9.8587	-0.1904	-1.1946	0.0676	0.0273	-0.0327	15.6631	25.6667	4.0453	0.5948	0.3177	0.6788	-0.2910
10.76	-9.8686	-0.1729	-1.2041	0.0683	0.0250	-0.0322	15.8453	25.5389	4.1384	0.5945	0.3180	0.6787	-0.2911
10.77	-9.8651	-0.1460	-1.2147	0.0698	0.0257	-0.0326	15.8638	25.6541	4.2112	0.5944	0.3183	0.6787	-0.2913
10.78	-9.8570	-0.1234	-1.2099	0.0667	0.0232	-0.0320	15.8675	25.7497	4.0758	0.5941	0.3185	0.6786	-0.2914
10.79	-9.8572	-0.0937	-1.2043	0.0661	0.0233	-0.0314	15.8509	25.8862	3.9673	0.5940	0.3189	0.6787	-0.2915
10.8	-9.8829	-0.0779	-1.2063	0.0627	0.0250	-0.0315	15.8945	25.9513	4.3765	0.5937	0.3191	0.6786	-0.2917
10.81	-9.9055	-0.0599	-1.2212	0.0444	0.0133	-0.0319	15.7609	25.8841	4.2137	0.5936	0.3194	0.6786	-0.2917
10.82	-9.8904	-0.0550	-1.1903	0.0443	0.0026	-0.0323	15.8836	25.6094	3.9643	0.5935	0.3196	0.6786	-0.2918
10.83	-9.8880	-0.0430	-1.1939	0.0359	0.0060	-0.0320	16.0885	25.6136	3.8582	0.5934	0.3197	0.6786	-0.2919
10.84	-9.8777	-0.0352	-1.1859	0.0185	0.0054	-0.0335	15.7955	25.6827	4.0397	0.5934	0.3199	0.6786	-0.2919
10.85	-9.8623	-0.0420	-1.1804	0.0150	0.0054	-0.0332	16.0774	25.6686	4.1149	0.5932	0.3199	0.6785	-0.2918
10.86	-9.8439	-0.0495	-1.1708	0.0092	-0.0046	-0.0339	15.9979	25.7541	4.0703	0.5933	0.3201	0.6786	-0.2919
10.87	-9.8806	-0.0609	-1.1621	-0.0044	-0.0038	-0.0334	15.9616	25.6584	4.2603	0.5933	0.3201	0.6785	-0.2918
10.88	-9.8856	-0.0692	-1.1598	-0.0130	-0.0061	-0.0378	15.5857	25.8917	3.9868	0.5933	0.3201	0.6786	-0.2917
10.89	-9.8283	-0.0961	-1.1491	-0.0294	-0.0208	-0.0395	15.7106	25.6279	3.9967	0.5934	0.3200	0.6785	-0.2916
10.9	-9.8316	-0.1158	-1.1521	-0.0285	-0.0057	-0.0362	15.8680	25.6965	4.1113	0.5934	0.3200	0.6786	-0.2915
10.91	-9.8016	-0.1435	-1.1525	-0.0340	-0.0050	-0.0326	15.9658	25.6090	4.0792	0.5935	0.3199	0.6786	-0.2913
10.92	-9.7885	-0.1412	-1.1608	-0.0310	0.0044	-0.0331	16.0854	25.5542	4.0884	0.5935	0.3199	0.6786	-0.2911
10.93	-9.7858	-0.1229	-1.1896	-0.0334	0.0101	-0.0342	15.8164	25.7101	4.1999	0.5936	0.3199	0.6788	-0.2910
10.94	-9.8046	-0.1244	-1.2038	-0.0260	0.0132	-0.0337	15.7240	25.7675	4.1465	0.5935	0.3198	0.6788	-0.2908
10.95	-9.8285	-0.1169	-1.2119	-0.0270	0.0208	-0.0357	15.9372	25.7529	3.9927	0.5936	0.3199	0.6790	-0.2907
10.96	-9.8272	-0.1201	-1.2204	-0.0267	0.0147	-0.0406	15.9510	25.7575	3.9852	0.5935	0.3198	0.6790	-0.2905
10.97	-9.8497	-0.1238	-1.2274	-0.0167	0.0202	-0.0448	15.7453	25.7552	4.1310	0.5934	0.3198	0.6792	-0.2904
10.98	-9.8591	-0.1300	-1.2299	-0.0190	0.0113	-0.0419	15.5506	25.9408	4.1919	0.5934	0.3198	0.6792	-0.2903
10.99	-9.8580	-0.1204	-1.2249	-0.0070	0.0131	-0.0439	15.5434	25.8556	4.1533	0.5933	0.3198	0.6793	-0.2902
11	-9.8652	-0.1176	-1.2286	-0.0110	0.0085	-0.0394	15.9178	25.7409	4.2041	0.5933	0.3199	0.6794	-0.2901
11.01	-9.8669	-0.1269	-1.2332	-0.0092	0.0050	-0.0397	15.8606	25.7561	4.1288	0.5933	0.3198	0.6794	-0.2900
11.02	-9.8637	-0.1224	-1.2315	-0.0084	0.0017	-0.0405	16.0478	25.5533	4.0536	0.5933	0.3199	0.6795	-0.2900
11.03	-9.8589	-0.1221	-1.2338	-0.0084	0.0037	-0.0434	16.0511	25.6831	3.7577	0.5932	0.3198	0.6794	-0.2899
11.04	-9.8515	-0.1172	-1.2366	-0.0093	-0.0025	-0.0497	15.8974	25.7556	4.0022	0.5933	0.3198	0.6795	-0.2899
11.05	-9.8609	-0.1237	-1.2371	-0.0100	0.0014	-0.0415	16.0736	25.6235	4.2404	0.5932	0.3198	0.6796	-0.2898
11.06	-9.8550	-0.1227	-1.2364	-0.0103	-0.0058	-0.0380	16.4515	25.7688	4.1525	0.5932	0.3198	0.6796	-0.2897
11.07	-9.8622	-0.1131	-1.2316	-0.0151	0.0011	-0.0407	16.1912	25.7262	4.1954	0.5933	0.3198	0.6796	-0.2897
11.08	-9.8810	-0.1232	-1.2558	-0.0101	0.0007	-0.0370	15.9334	25.7511	4.1539	0.5932	0.3198	0.6796	-0.2896
11.09	-9.8600	-0.1232	-1.2433	-0.0076	-0.0094	-0.0427	15.7925	25.5309	4.1250	0.5933	0.3198	0.6797	-0.2896
11.1	-9.9074	-0.1126	-1.2299	-0.0091	-0.0155	-0.0393	15.8658	25.4619	3.9424	0.5932	0.3198	0.6796	-0.2895
11.11	-9.9144	-0.0970	-1.2437	-0.0078	-0.0162	-0.0445	15.8147	25.7318	4.2333	0.5933	0.3198	0.6797	-0.2895
11.12	-9.8679	-0.1013	-1.2174	-0.0124	-0.0239	-0.0546	15.7318	25.7379	4.0640	0.5934	0.3197	0.6796	-0.2895
11.13	-9.8731	-0.1222	-1.2156	-0.0167	-0.0251	-0.0463	15.7704	25.5555	4.1473	0.5935	0.3196	0.6796	-0.2895
11.14	-9.8659	-0.1393	-1.2160	-0.0156	-0.0237	-0.0364	15.6467	25.5963	4.1643	0.5935	0.3196	0.6796	-0.2894
11.15	-9.8571	-0.1243	-1.1972	-0.0144	-0.0260	-0.0355	15.7905	25.7891	4.1726	0.5936	0.3195	0.6795	-0.2893
11.16	-9.8330	-0.1026	-1.1856	-0.0232	-0.0321	-0.0385	15.5165	25.7410	4.3005	0.5938	0.3195	0.6795	-0.2893
11.17	-9.8053	-0.0978	-1.1855	-0.0306	-0.0263	-0.0362	15.7724	25.7528	4.1348	0.5939	0.3193	0.6794	-0.2892
11.18	-9.8251	-0.0978	-1.1802	-0.0168	-0.0279	-0.0381	15.8204	25.7632	4.1809	0.5940	0.3193	0.6795	-0.2891
11.19	-9.8269	-0.1196	-1.1691	-0.0256	-0.0273	-0.0342	15.7757	25.7239	4.1135	0.5941	0.3192	0.6794	-0.2890
11.2	-9.8075	-0.1147	-1.1673	-0.0135	-0.0237	-0.0418	15.8641	25.5920	4.0369	0.5943	0.3192	0.6794	-0.2890
11.21	-9.8238	-0.1199	-1.1635	-0.0163	-0.0171	-0.0394	15.8357	25.4758	4.1855	0.5942	0.3191	0.6793	-0.2889
11.22	-9.8133	-0.1162	-1.1589	-0.0134	-0.0168	-0.0357	15.9367	25.5092	4.1525	0.5943	0.3191	0.6793	-0.2889
11.23	-9.8263	-0.1132	-1.1637	-0.0212	-0.0174	-0.0347	15.7877	25.6247	4.1743	0.5944	0.3191	0.6793	-0.2888
11.24	-9.8441	-0.1076	-1.1531	-0.0190	-0.0140	-0.0342	15.9390	25.4733	4.1478	0.5945	0.3191	0.6793	-0.2887
11.25	-9.8351	-0.0967	-1.1534	-0.0210	-0.0145	-0.0346	15.9295	25.5086	4.1922	0.5946	0.3191	0.6793	-0.2886
11.26	-9.8347	-0.1071	-1.1678	-0.0122	-0.0139	-0.0341	16.0638	25.6088	4.2535	0.5946	0.3190	0.6793	-0.2885
11.27	-9.8271	-0.1032	-1.1736	-0.0052	-0.0150	-0.0351	15.9421	25.7735	4.0503	0.5947	0.3191	0.6793	-0.2885
11.28	-9.8427	-0.1026	-1.1594	-0.0116	-0.0197	-0.0374	15.9199	25.6461	4.1587	0.5947	0.3190	0.6792	-0.2884
11.29	-9.8557	-0.0912	-1.1719	-0.0084	-0.0192	-0.0378	15.9419	25.6991	4.0657	0.5948	0.3190	0.6792	-0.2884
11.3	-9.8577	-0.0811	-1.1747	-0.0067	-0.0122	-0.0437	15.7358	25.5802	4.0349	0.5948	0.3190	0.6792	-0.2884
11.31	-9.8607	-0.0826	-1.1822	-0.0161	-0.0162	-0.0475	15.8313	25.6668	3.8756	0.5949	0.3189	0.6792	-0.2883
11.32	-9.8549	-0.0821	-1.1699	-0.0158	-0.0139	-0.0477	15.9323	25.5471	3.9688	0.5949	0.3189	0.6792	-0.2883
11.33	-9.8553	-0.0840	-1.1669	-0.0090	-0.0124	-0.0491	15.8213	25.6531	4.1663	0.5949	0.3188	0.6792	-0.2883
11.34	-9.8534	-0.0687	-1.1742	-0.0109	-0.0177	-0.0421	15.8433	26.0006	4.0342	0.5950	0.3188	0.6792	-0.2882
11.35	-9.8616	-0.0655	-1.1823	-0.0105	-0.0112	-0.0537	15.8580	25.7333	3.9200	0.5950	0.3187	0.6791	-0.2882
11.36	-9.8446	-0.0645	-1.1703	-0.0194	-0.0152	-0.0532	15.8025	25.7460	4.2446	0.5951	0.3186	0.6792	-0.2882
11.37	-9.8600	-0.0654	-1.1647	-0.0273	-0.0190	-0.0485	15.6145	25.8024	4.0607	0.5951	0.3185	0.6792	-0.2881
11.38	-9.8715	-0.0695	-1.1570	-0.0242	-0.0194	-0.0473	15.7272	26.1054	4.0802	0.5952	0.3184	0.6792	-0.2881
11.39	-9.8598	-0.0704	-1.1703	-0.0287	-0.0226	-0.0581	15.9659	25.5935	4.0301	0.5953	0.3183	0.6792	-0.2880
11.4	-9.8591	-0.0837	-1.1593	-0.0308	-0.0230	-0.0533	16.1338	25.4792	4.0285	0.5954	0.3181	0.6793	-0.2880
11.41	-9.8575	-0.0827	-1.1782	-0.0272	-0.0222	-0.0577	16.1141	25.4787	4.0203	0.5955	0.3180	0.6793	-0.2879
11.42	-9.8017	-0.0957	-1.1702	-0.0341	-0.0176	-0.0599	16.0235	25.5691	4.0359	0.5955	0.3178	0.6793	-0.2878
11.43	-9.8036	-0.1052	-1.1668	-0.0321	-0.0178	-0.0597	15.9271	25.7798	4.1934	0.5956	0.3177	0.6794	-0.2878
11.44	-9.8182	-0.0982	-1.1666	-0.0337	-0.0135	-0.0544	15.7453	25.6196	4.1519	0.5956	0.3175	0.6794	-0.2877
11.45	-9.8140	-0.1062	-1.1541	-0.0341	-0.0158	-0.0602	15.8743	25.7069	4.1124	0.5958	0.3174	0.6795	-0.2877
11.46	-9.8223	-0.1094	-1.1505	-0.0336	-0.0153	-0.0591	16.0600	25.5430	4.0263	0.5957	0.3172	0.6795	-0.2876
