time	acceleration_x	acceleration_y	acceleration_z	gyroscope_x	gyroscope_y	gyroscope_z	magnetometer_x	magnetometer_y	magnetometer_z	quaternion_w	quaternion_x	quaternion_y	quaternion_z
0	-9.6308	-0.0955	-1.3088	0.0123	-0.0178	0.0100	39.0890	1.0988	7.7550	0.6455	0.1391	0.7402	-0.1265
0.01	-9.6363	-0.0885	-1.3197	0.0034	-0.0151	0.0079	39.1867	0.9186	7.9178	0.6456	0.1391	0.7403	-0.1266
0.02	-9.6281	-0.1048	-1.3140	0.0045	-0.0154	0.0113	39.0706	1.0249	7.6797	0.6455	0.1391	0.7402	-0.1265
0.03	-9.6356	-0.0969	-1.3169	0.0127	-0.0154	0.0140	39.1243	1.0591	7.7745	0.6456	0.1391	0.7402	-0.1266
0.04	-9.6351	-0.0931	-1.3111	0.0121	-0.0170	0.0141	39.0759	1.0470	7.7885	0.6455	0.1392	0.7401	-0.1266
0.05	-9.6282	-0.0890	-1.3170	0.0092	-0.0250	0.0144	39.2405	0.9440	7.6771	0.6456	0.1392	0.7401	-0.1266
0.06	-9.6312	-0.0882	-1.3262	0.0097	-0.0176	0.0116	39.2620	1.0020	7.7162	0.6457	0.1392	0.7401	-0.1266
0.07	-9.6293	-0.0819	-1.3229	0.0021	-0.0193	0.0142	39.2741	0.8723	7.6872	0.6456	0.1392	0.7400	-0.1266
0.08	-9.6271	-0.0782	-1.3374	0.0110	-0.0159	0.0120	39.2430	1.0011	7.8153	0.6458	0.1392	0.7401	-0.1267
0.09	-9.6384	-0.0775	-1.3405	0.0029	-0.0183	0.0174	39.0517	0.9141	7.7564	0.6457	0.1392	0.7400	-0.1266
0.1	-9.6325	-0.0805	-1.3280	0.0070	-0.0159	0.0109	39.1694	0.9139	7.6303	0.6458	0.1392	0.7400	-0.1267
0.11	-9.6091	-0.0788	-1.3278	0.0105	-0.0169	0.0170	39.2804	1.0891	7.5159	0.6457	0.1392	0.7399	-0.1267
0.12	-9.6234	-0.0846	-1.3191	0.0020	-0.0186	0.0153	39.2445	1.0230	7.6366	0.6458	0.1393	0.7399	-0.1267
0.13	-9.6306	-0.0803	-1.3339	0.0065	-0.0175	0.0091	39.1593	0.9408	7.7697	0.6458	0.1392	0.7399	-0.1267
0.14	-9.6305	-0.0819	-1.3278	0.0038	-0.0160	0.0087	39.1928	1.0440	7.7943	0.6458	0.1392	0.7399	-0.1267
0.15	-9.6296	-0.0854	-1.3267	0.0053	-0.0111	0.0107	39.1704	1.0646	7.7784	0.6459	0.1392	0.7399	-0.1267
0.16	-9.6278	-0.0953	-1.3416	0.0046	-0.0093	0.0151	39.1912	1.0302	7.9222	0.6458	0.1392	0.7399	-0.1267
0.17	-9.6369	-0.1053	-1.3338	0.0112	-0.0173	0.0082	39.1391	1.1057	7.7894	0.6459	0.1392	0.7399	-0.1267
0.18	-9.6199	-0.1137	-1.3313	0.0036	-0.0144	0.0083	38.9924	1.2111	7.7736	0.6458	0.1392	0.7398	-0.1267
0.19	-9.6231	-0.1077	-1.3303	0.0038	-0.0103	0.0111	39.1360	1.2365	7.8776	0.6459	0.1392	0.7399	-0.1267
0.2	-9.6250	-0.1080	-1.3204	0.0044	-0.0150	0.0101	39.4858	1.3009	7.8900	0.6459	0.1392	0.7398	-0.1267
0.21	-9.6309	-0.1199	-1.3246	0.0084	-0.0103	0.0156	39.4940	0.8655	8.0814	0.6459	0.1392	0.7399	-0.1267
0.22	-9.6363	-0.1176	-1.3197	0.0058	-0.0130	0.0120	39.4416	0.9197	7.9676	0.6459	0.1391	0.7398	-0.1266
0.23	-9.6396	-0.1210	-1.3192	0.0086	-0.0134	0.0161	39.2650	0.9385	7.8732	0.6459	0.1391	0.7398	-0.1266
0.24	-9.6260	-0.1075	-1.3079	0.0059	-0.0110	0.0128	39.1563	0.7841	7.7960	0.6459	0.1392	0.7399	-0.1266
0.25	-9.6239	-0.1060	-1.3044	0.0100	-0.0072	0.0087	39.2234	0.9496	7.9342	0.6459	0.1391	0.7398	-0.1267
0.26	-9.6375	-0.1083	-1.3041	0.0086	-0.0123	0.0156	39.2428	0.7151	7.8101	0.6459	0.1392	0.7399	-0.1267
0.27	-9.6328	-0.0998	-1.3047	0.0010	-0.0126	0.0122	39.2959	0.9396	7.5688	0.6459	0.1392	0.7398	-0.1267
0.28	-9.6314	-0.0921	-1.2959	0.0088	-0.0088	0.0074	39.3924	0.8603	7.8454	0.6460	0.1392	0.7399	-0.1267
0.29	-9.6314	-0.0960	-1.3127	0.0052	-0.0123	0.0129	39.1971	0.8256	7.7405	0.6459	0.1392	0.7398	-0.1267
0.3	-9.6248	-0.0886	-1.3072	-0.0013	-0.0159	0.0109	39.2651	0.9692	7.6330	0.6459	0.1392	0.7398	-0.1267
0.31	-9.6254	-0.0858	-1.3146	0.0022	-0.0118	0.0094	39.4345	1.0369	7.6778	0.6459	0.1391	0.7398	-0.1267
0.32	-9.6320	-0.0904	-1.3137	0.0063	-0.0105	0.0076	39.2989	0.9272	7.9420	0.6459	0.1391	0.7398	-0.1267
0.33	-9.6249	-0.0811	-1.3229	0.0006	-0.0067	0.0122	39.1037	0.9114	7.7902	0.6460	0.1391	0.7399	-0.1267
0.34	-9.6263	-0.0785	-1.3240	-0.0021	-0.0108	0.0077	39.0530	1.1965	7.8891	0.6459	0.1391	0.7398	-0.1267
0.35	-9.6265	-0.0829	-1.3289	-0.0015	-0.0077	0.0039	39.0345	1.0815	7.8198	0.6460	0.1391	0.7399	-0.1267
0.36	-9.6272	-0.0834	-1.3338	-0.0003	-0.0079	0.0077	39.1716	1.1102	7.5790	0.6459	0.1390	0.7398	-0.1266
0.37	-9.6354	-0.0818	-1.3322	0.0016	-0.0103	0.0094	39.0763	1.0314	7.9442	0.6459	0.1390	0.7399	-0.1267
0.38	-9.6309	-0.0863	-1.3309	0.0004	-0.0077	0.0059	39.1371	0.9086	7.6368	0.6459	0.1390	0.7399	-0.1267
0.39	-9.6274	-0.0794	-1.3327	0.0037	-0.0101	0.0089	39.2796	1.1313	7.5309	0.6459	0.1389	0.7399	-0.1267
0.4	-9.6175	-0.0834	-1.3326	0.0019	-0.0102	0.0113	39.0186	0.9723	7.6646	0.6459	0.1389	0.7399	-0.1267
0.41	-9.6330	-0.0943	-1.3200	0.0071	-0.0168	0.0166	39.2052	1.0273	7.5377	0.6459	0.1390	0.7399	-0.1266
0.42	-9.6251	-0.0821	-1.3314	0.0005	-0.0091	0.0120	39.2668	0.9630	7.5684	0.6459	0.1390	0.7399	-0.1266
0.43	-9.6195	-0.0835	-1.3312	0.0051	-0.0175	0.0098	39.4047	0.8230	7.6497	0.6459	0.1389	0.7398	-0.1266
0.44	-9.6344	-0.0835	-1.3260	0.0043	-0.0120	0.0086	39.2643	0.8704	7.7736	0.6459	0.1389	0.7399	-0.1267
0.45	-9.6275	-0.0812	-1.3254	0.0019	-0.0056	0.0080	39.2020	0.7785	7.7293	0.6459	0.1389	0.7399	-0.1266
0.46	-9.6312	-0.0871	-1.3210	0.0081	-0.0155	0.0066	39.2447	0.7949	7.7696	0.6459	0.1389	0.7399	-0.1267
0.47	-9.6389	-0.0872	-1.3252	0.0016	-0.0075	0.0081	39.1154	1.0410	7.6254	0.6459	0.1389	0.7399	-0.1267
0.48	-9.6226	-0.0924	-1.3189	0.0021	-0.0101	0.0098	39.1722	0.8658	7.8084	0.6459	0.1389	0.7399	-0.1267
0.49	-9.6283	-0.0978	-1.3179	0.0005	-0.0152	0.0137	39.2369	0.8236	7.8104	0.6459	0.1389	0.7399	-0.1267
0.5	-9.6312	-0.1096	-1.3210	-0.0024	-0.0153	0.0127	39.2103	0.9031	7.6208	0.6459	0.1388	0.7399	-0.1266
0.51	-9.6317	-0.1096	-1.3156	-0.0023	-0.0099	0.0094	39.2310	1.2317	7.6842	0.6460	0.1388	0.7400	-0.1266
0.52	-9.6199	-0.1066	-1.3217	0.0082	-0.0162	0.0090	39.0684	1.2584	7.7232	0.6459	0.1388	0.7399	-0.1266
0.53	-9.6200	-0.1018	-1.3251	0.0035	-0.0104	0.0060	39.0620	1.2157	7.8005	0.6460	0.1388	0.7400	-0.1267
0.54	-9.6314	-0.1011	-1.3231	0.0042	-0.0126	0.0075	39.0389	0.9615	7.8372	0.6459	0.1387	0.7399	-0.1267
0.55	-9.6221	-0.0977	-1.3244	0.0046	-0.0141	0.0072	39.1998	1.0489	7.7017	0.6459	0.1387	0.7399	-0.1267
0.56	-9.6222	-0.0823	-1.3240	0.0039	-0.0079	0.0080	39.1883	1.0915	7.6039	0.6459	0.1387	0.7399	-0.1267
0.57	-9.6260	-0.0839	-1.3238	-0.0010	-0.0114	0.0119	39.1012	1.1004	7.7722	0.6459	0.1387	0.7399	-0.1267
0.58	-9.6244	-0.0764	-1.3309	-0.0007	-0.0064	0.0056	39.2640	1.0554	7.5851	0.6460	0.1387	0.7400	-0.1267
0.59	-9.6224	-0.0842	-1.3239	0.0028	-0.0122	0.0118	39.1802	1.1621	7.7829	0.6459	0.1387	0.7399	-0.1267
0.6	-9.6407	-0.0890	-1.3203	0.0023	-0.0148	0.0180	39.2954	0.8682	7.9401	0.6460	0.1387	0.7400	-0.1266
0.61	-9.6274	-0.0881	-1.3184	0.0049	-0.0160	0.0118	39.2966	0.8535	7.6118	0.6459	0.1387	0.7399	-0.1266
0.62	-9.6178	-0.0880	-1.3273	0.0064	-0.0135	0.0077	39.2237	0.8846	7.5647	0.6460	0.1387	0.7399	-0.1266
0.63	-9.6251	-0.0925	-1.3196	0.0085	-0.0141	0.0097	39.3464	0.9314	7.5995	0.6460	0.1387	0.7399	-0.1267
0.64	-9.6306	-0.0934	-1.3175	0.0025	-0.0107	0.0115	39.2236	0.9855	7.7388	0.6459	0.1387	0.7399	-0.1267
0.65	-9.6227	-0.0772	-1.3127	0.0073	-0.0104	0.0114	39.1211	0.7202	7.9400	0.6460	0.1387	0.7399	-0.1267
0.66	-9.6154	-0.0885	-1.3196	0.0056	-0.0115	0.0126	39.1616	0.8655	7.6500	0.6459	0.1387	0.7399	-0.1267
0.67	-9.6366	-0.0859	-1.3141	0.0051	-0.0114	0.0116	39.2901	0.8822	7.6863	0.6460	0.1387	0.7399	-0.1267
0.68	-9.6213	-0.0833	-1.3137	0.0003	-0.0103	0.0092	39.3845	0.9554	7.5382	0.6459	0.1386	0.7399	-0.1267
0.69	-9.6199	-0.0883	-1.3191	0.0064	-0.0118	0.0123	39.2882	0.8114	7.8274	0.6460	0.1387	0.7400	-0.1267
0.7	-9.6218	-0.0844	-1.3144	0.0019	-0.0091	0.0125	39.4414	1.0142	8.1049	0.6459	0.1386	0.7399	-0.1266
0.71	-9.6279	-0.0820	-1.3152	-0.0028	-0.0088	0.0028	39.4201	0.9955	8.0954	0.6460	0.1385	0.7400	-0.1265
0.72	-9.6174	-0.0963	-1.3208	0.0013	-0.0185	0.0103	39.1724	1.0950	8.0378	0.6460	0.1384	0.7399	-0.1265
0.73	-9.6323	-0.0807	-1.3157	0.0000	-0.0138	0.0093	39.1002	1.1151	7.8713	0.6460	0.1384	0.7400	-0.1265
0.74	-9.6347	-0.0923	-1.3256	0.0046	-0.0107	0.0079	38.9298	1.1284	7.6586	0.6460	0.1384	0.7400	-0.1265
0.75	-9.6257	-0.0985	-1.3205	0.0077	-0.0075	0.0135	39.0060	1.0296	7.7846	0.6459	0.1384	0.7399	-0.1265
0.76	-9.6213	-0.0931	-1.3208	0.0052	-0.0114	0.0100	39.3309	1.0390	7.7655	0.6460	0.1384	0.7400	-0.1265
0.77	-9.6296	-0.0970	-1.3249	0.0082	-0.0133	0.0132	39.1091	1.1740	7.5236	0.6459	0.1384	0.7400	-0.1265
0.78	-9.6297	-0.0929	-1.3254	0.0075	-0.0171	0.0157	39.3593	0.9899	7.7262	0.6460	0.1385	0.7400	-0.1266
0.79	-9.6128	-0.0984	-1.3276	0.0037	-0.0106	0.0117	39.3482	0.8494	7.5848	0.6459	0.1385	0.7399	-0.1265
0.8	-9.6331	-0.0962	-1.3232	0.0103	-0.0114	0.0177	39.2634	1.0075	7.7599	0.6460	0.1385	0.7400	-0.1265
0.81	-9.6412	-0.0920	-1.3172	0.0159	-0.0130	0.0172	39.4258	1.0533	7.7530	0.6460	0.1386	0.7399	-0.1266
0.82	-9.6347	-0.0912	-1.3300	0.0115	-0.0144	0.0163	39.4418	1.0344	7.5992	0.6459	0.1386	0.7399	-0.1266
0.83	-9.6222	-0.0931	-1.3254	0.0056	-0.0195	0.0139	39.4293	1.0512	7.6028	0.6461	0.1386	0.7400	-0.1266
0.84	-9.6207	-0.0948	-1.3229	0.0068	-0.0191	0.0139	39.0674	1.1509	7.7639	0.6460	0.1386	0.7399	-0.1266
0.85	-9.6334	-0.0864	-1.3245	0.0009	-0.0174	0.0109	39.1966	1.0514	7.7304	0.6461	0.1386	0.7399	-0.1266
0.86	-9.6340	-0.0912	-1.3226	0.0022	-0.0146	0.0131	39.1800	1.0213	7.5932	0.6460	0.1386	0.7398	-0.1266
0.87	-9.6371	-0.0984	-1.3242	0.0053	-0.0138	0.0126	39.2230	1.0602	7.5935	0.6461	0.1386	0.7399	-0.1266
0.88	-9.6291	-0.0949	-1.3313	0.0032	-0.0104	0.0111	39.2841	0.9881	7.6581	0.6461	0.1386	0.7398	-0.1266
0.89	-9.6200	-0.0915	-1.3294	0.0081	-0.0104	0.0133	39.2832	0.9339	7.7073	0.6460	0.1386	0.7398	-0.1266
0.9	-9.6175	-0.0865	-1.3188	0.0071	-0.0165	0.0122	39.1649	1.0549	7.7746	0.6461	0.1386	0.7399	-0.1266
0.91	-9.6255	-0.0983	-1.3239	0.0031	-0.0100	0.0140	39.1120	1.0260	7.9190	0.6461	0.1386	0.7398	-0.1266
0.92	-9.6342	-0.0948	-1.3168	0.0052	-0.0135	0.0131	39.2383	1.0424	7.7583	0.6461	0.1386	0.7399	-0.1266
0.93	-9.6208	-0.0875	-1.3244	0.0139	-0.0089	0.0117	39.0922	1.0367	7.4868	0.6460	0.1387	0.7398	-0.1266
0.94	-9.6277	-0.0917	-1.3172	0.0052	-0.0176	0.0118	39.1324	0.9335	7.6394	0.6461	0.1387	0.7399	-0.1266
0.95	-9.6293	-0.0853	-1.3202	0.0030	-0.0181	0.0108	39.0875	1.1237	7.7227	0.6461	0.1387	0.7398	-0.1266
0.96	-9.6218	-0.0918	-1.3235	0.0167	-0.0122	0.0109	39.1827	1.0541	7.6051	0.6461	0.1387	0.7398	-0.1266
0.97	-9.6331	-0.0976	-1.3134	0.0159	-0.0103	0.0174	39.2762	1.0255	7.6045	0.6461	0.1387	0.7398	-0.1266
0.98	-9.6329	-0.0898	-1.3188	0.0119	-0.0123	0.0160	39.4022	1.0539	7.7291	0.6461	0.1388	0.7398	-0.1267
0.99	-9.6350	-0.0902	-1.3134	0.0157	-0.0157	0.0178	39.2392	1.0238	7.6455	0.6461	0.1388	0.7398	-0.1267
1	-9.6254	-0.0896	-1.3027	0.0200	-0.0140	0.0111	39.1586	1.0615	7.4915	0.6460	0.1389	0.7397	-0.1267
1.01	-9.6332	-0.0930	-1.2990	0.0062	-0.0119	0.0153	39.4080	0.9125	7.6519	0.6461	0.1389	0.7398	-0.1267
1.02	-9.6262	-0.0931	-1.2917	0.0077	-0.0093	0.0139	39.3140	0.8941	7.6972	0.6460	0.1389	0.7398	-0.1267
1.03	-9.6236	-0.0919	-1.2919	0.0121	-0.0179	0.0144	39.4402	1.0321	7.4935	0.6461	0.1390	0.7398	-0.1268
1.04	-9.6366	-0.0920	-1.3013	0.0102	-0.0115	0.0099	39.4398	1.1394	7.6223	0.6460	0.1390	0.7397	-0.1268
1.05	-9.6252	-0.0883	-1.3048	0.0152	-0.0124	0.0136	39.2100	1.2045	7.7019	0.6461	0.1390	0.7397	-0.1268
1.06	-9.6328	-0.0893	-1.3048	0.0198	-0.0125	0.0134	39.3623	0.8976	7.5105	0.6461	0.1391	0.7397	-0.1269
1.07	-9.6242	-0.0861	-1.3222	0.0089	-0.0132	0.0153	39.2914	1.1275	7.5827	0.6460	0.1391	0.7397	-0.1269
1.08	-9.6244	-0.0942	-1.3316	0.0089	-0.0063	0.0072	39.1682	1.2053	7.8107	0.6461	0.1391	0.7398	-0.1269
1.09	-9.6297	-0.0914	-1.3380	0.0119	-0.0096	0.0150	39.0794	0.9523	7.7514	0.6460	0.1391	0.7397	-0.1269
1.1	-9.6300	-0.0957	-1.3419	0.0110	-0.0074	0.0138	39.1844	1.1830	7.5987	0.6460	0.1392	0.7398	-0.1269
1.11	-9.6303	-0.0984	-1.3517	0.0028	-0.0152	0.0127	39.2020	1.2264	7.6004	0.6459	0.1392	0.7397	-0.1269
1.12	-9.6305	-0.0993	-1.3568	0.0120	-0.0064	0.0126	39.0817	1.0616	7.7008	0.6460	0.1392	0.7398	-0.1269
1.13	-9.6297	-0.1068	-1.3685	0.0068	-0.0078	0.0105	39.1513	0.8929	7.7044	0.6460	0.1392	0.7398	-0.1269
1.14	-9.6251	-0.0993	-1.3651	0.0121	-0.0174	0.0080	39.2788	1.0713	7.6270	0.6459	0.1392	0.7397	-0.1270
1.15	-9.6306	-0.0975	-1.3548	0.0100	-0.0122	0.0114	39.2778	0.9189	7.4978	0.6460	0.1392	0.7398	-0.1270
1.16	-9.6280	-0.1003	-1.3497	0.0194	-0.0153	0.0092	39.1589	0.8879	7.6719	0.6460	0.1393	0.7397	-0.1270
1.17	-9.6345	-0.0948	-1.3488	0.0129	-0.0139	0.0072	39.2491	0.9938	7.7065	0.6460	0.1393	0.7398	-0.1271
1.18	-9.6327	-0.0857	-1.3448	0.0134	-0.0115	0.0114	39.3617	0.8610	7.6820	0.6459	0.1393	0.7397	-0.1271
1.19	-9.6369	-0.0893	-1.3378	0.0143	-0.0067	0.0131	39.2474	0.9740	7.8248	0.6459	0.1394	0.7398	-0.1272
1.2	-9.6220	-0.0921	-1.3300	0.0171	-0.0121	0.0151	39.5963	0.8117	7.8913	0.6459	0.1394	0.7397	-0.1272
1.21	-9.6347	-0.0879	-1.3158	0.0125	-0.0129	0.0128	39.7280	1.0481	7.8796	0.6459	0.1394	0.7397	-0.1272
1.22	-9.6263	-0.0946	-1.3073	0.0096	-0.0143	0.0113	39.4493	1.0008	7.8512	0.6459	0.1395	0.7397	-0.1272
1.23	-9.6168	-0.0950	-1.3048	0.0061	-0.0095	0.0069	39.2117	0.9994	7.6440	0.6459	0.1394	0.7397	-0.1272
1.24	-9.6289	-0.0944	-1.3073	0.0039	-0.0139	0.0136	38.9833	0.8741	7.6721	0.6459	0.1395	0.7397	-0.1272
1.25	-9.6383	-0.0881	-1.3051	0.0074	-0.0094	0.0144	39.2335	0.8461	7.5594	0.6458	0.1395	0.7397	-0.1272
1.26	-9.6179	-0.0973	-1.3022	0.0024	-0.0065	0.0072	39.2070	0.9782	7.7723	0.6459	0.1395	0.7398	-0.1272
1.27	-9.6150	-0.0838	-1.3098	0.0011	-0.0017	0.0131	38.9612	1.0502	7.7157	0.6458	0.1395	0.7398	-0.1272
1.28	-9.6372	-0.0889	-1.3080	0.0075	-0.0071	0.0105	39.0101	0.9865	7.7952	0.6459	0.1395	0.7399	-0.1272
1.29	-9.6239	-0.0793	-1.3013	0.0160	-0.0067	0.0106	39.2530	1.2239	7.8582	0.6457	0.1395	0.7398	-0.1272
1.3	-9.6151	-0.0824	-1.3010	0.0031	-0.0019	0.0090	38.9363	1.2707	7.8663	0.6457	0.1395	0.7399	-0.1272
1.31	-9.6309	-0.0815	-1.3066	0.0109	-0.0069	0.0098	39.0935	1.3061	7.4691	0.6457	0.1395	0.7399	-0.1273
1.32	-9.6246	-0.0816	-1.3038	0.0054	-0.0050	0.0104	39.1361	1.1209	7.8086	0.6456	0.1395	0.7399	-0.1273
1.33	-9.6136	-0.0941	-1.2991	0.0052	-0.0068	0.0101	39.1498	1.1016	7.9535	0.6457	0.1395	0.7400	-0.1273
1.34	-9.6194	-0.1022	-1.3107	0.0058	-0.0151	0.0100	39.0634	1.2432	7.7084	0.6456	0.1395	0.7399	-0.1273
1.35	-9.6299	-0.0984	-1.3122	0.0108	-0.0127	0.0150	39.1518	1.0941	7.8362	0.6457	0.1396	0.7400	-0.1273
1.36	-9.6310	-0.1004	-1.3043	0.0134	-0.0141	0.0131	39.3111	0.7556	7.7249	0.6456	0.1396	0.7398	-0.1273
1.37	-9.6325	-0.0888	-1.3085	0.0094	-0.0119	0.0156	39.3096	0.8010	7.8046	0.6457	0.1396	0.7399	-0.1273
1.38	-9.6319	-0.0945	-1.3173	0.0051	-0.0072	0.0116	39.3705	0.7632	7.7629	0.6456	0.1396	0.7399	-0.1273
1.39	-9.6167	-0.0843	-1.3214	0.0161	-0.0083	0.0087	39.2046	0.8596	7.5964	0.6456	0.1396	0.7399	-0.1274
1.4	-9.6268	-0.0812	-1.3257	0.0122	-0.0158	0.0106	39.1261	0.9494	7.7875	0.6456	0.1397	0.7399	-0.1274
1.41	-9.6337	-0.0870	-1.3140	0.0122	-0.0129	0.0122	39.2660	0.8432	7.7072	0.6456	0.1397	0.7399	-0.1274
1.42	-9.6269	-0.0943	-1.3199	0.0084	-0.0094	0.0057	39.1143	0.8785	7.5868	0.6456	0.1397	0.7399	-0.1275
1.43	-9.6108	-0.0903	-1.3187	0.0132	-0.0118	0.0095	39.3068	0.7990	7.5558	0.6455	0.1397	0.7399	-0.1275
1.44	-9.6295	-0.0888	-1.3326	0.0062	-0.0136	0.0108	39.2806	0.7475	7.5968	0.6456	0.1397	0.7399	-0.1275
1.45	-9.6226	-0.0874	-1.3304	0.0108	-0.0085	0.0076	39.2117	1.0321	7.5205	0.6455	0.1397	0.7399	-0.1275
1.46	-9.6187	-0.0941	-1.3227	0.0048	-0.0116	0.0086	39.1652	1.1494	7.4315	0.6455	0.1397	0.7400	-0.1275
1.47	-9.6228	-0.1011	-1.3238	-0.0006	-0.0121	0.0080	39.1199	1.0185	7.6812	0.6455	0.1397	0.7399	-0.1275
1.48	-9.6289	-0.0961	-1.3306	-0.0003	-0.0131	0.0044	39.1329	1.1179	7.7532	0.6455	0.1396	0.7400	-0.1275
1.49	-9.6280	-0.0947	-1.3289	0.0035	-0.0161	0.0111	38.9824	0.9764	7.7160	0.6456	0.1396	0.7400	-0.1275
1.5	-9.6238	-0.1007	-1.3195	0.0037	-0.0027	0.0038	39.2421	1.1205	7.8170	0.6455	0.1396	0.7399	-0.1275
1.51	-9.6303	-0.0982	-1.3273	0.0001	-0.0114	0.0076	39.1635	1.2131	7.9347	0.6455	0.1396	0.7400	-0.1275
1.52	-9.6289	-0.0985	-1.3233	0.0086	-0.0102	0.0040	39.3142	1.1642	7.7371	0.6455	0.1396	0.7400	-0.1276
1.53	-9.6351	-0.0987	-1.3275	0.0131	-0.0100	0.0051	39.3429	1.0583	7.7677	0.6455	0.1396	0.7401	-0.1276
1.54	-9.6323	-0.0894	-1.3197	0.0066	-0.0161	0.0137	39.2675	0.8486	7.6260	0.6454	0.1396	0.7400	-0.1276
1.55	-9.6378	-0.0903	-1.3315	0.0066	-0.0169	0.0144	39.3119	0.8823	7.7126	0.6455	0.1396	0.7400	-0.1276
1.56	-9.6416	-0.0902	-1.3316	0.0001	-0.0175	0.0172	39.2863	0.8304	7.7070	0.6455	0.1396	0.7400	-0.1276
1.57	-9.6200	-0.0911	-1.3196	0.0028	-0.0119	0.0066	39.2944	0.6886	7.6397	0.6455	0.1396	0.7399	-0.1276
1.58	-9.6184	-0.0904	-1.3269	0.0066	-0.0155	0.0082	39.3912	0.7963	7.7638	0.6456	0.1396	0.7400	-0.1276
1.59	-9.6313	-0.0879	-1.3179	0.0018	-0.0164	0.0071	39.2280	0.9293	7.7662	0.6455	0.1395	0.7400	-0.1276
1.6	-9.6322	-0.0886	-1.3179	-0.0001	-0.0113	0.0103	39.2181	1.1515	7.8660	0.6456	0.1395	0.7400	-0.1276
1.61	-9.6206	-0.0799	-1.3136	0.0004	-0.0185	0.0101	39.1272	0.9402	7.7154	0.6455	0.1395	0.7399	-0.1276
1.62	-9.6309	-0.0815	-1.3129	0.0002	-0.0165	0.0075	39.1371	0.8289	7.8719	0.6456	0.1395	0.7400	-0.1276
1.63	-9.6124	-0.0849	-1.3116	0.0011	-0.0114	0.0137	39.2618	0.9367	7.7766	0.6455	0.1394	0.7400	-0.1276
1.64	-9.6232	-0.0793	-1.3166	0.0040	-0.0080	0.0072	39.1124	1.1746	7.6993	0.6455	0.1394	0.7400	-0.1276
1.65	-9.6330	-0.0821	-1.3077	0.0033	-0.0081	0.0047	39.1554	0.8673	7.8749	0.6455	0.1394	0.7400	-0.1276
1.66	-9.6199	-0.0780	-1.3122	-0.0003	-0.0108	0.0125	39.2000	1.0675	7.7584	0.6455	0.1394	0.7400	-0.1276
1.67	-9.6226	-0.0853	-1.3079	0.0024	-0.0106	0.0084	39.0981	1.2248	7.5734	0.6455	0.1394	0.7401	-0.1276
1.68	-9.6362	-0.0798	-1.3120	0.0017	-0.0119	0.0098	39.2202	0.8776	7.8523	0.6454	0.1393	0.7400	-0.1275
1.69	-9.6199	-0.0940	-1.3082	-0.0023	-0.0106	0.0073	39.2049	1.2096	7.9182	0.6455	0.1393	0.7401	-0.1275
1.7	-9.6181	-0.0912	-1.3122	-0.0032	-0.0086	0.0083	39.5005	1.2847	7.9120	0.6455	0.1393	0.7401	-0.1275
1.71	-9.6228	-0.0953	-1.3124	0.0020	-0.0132	0.0123	39.5461	1.0512	7.9168	0.6455	0.1393	0.7401	-0.1275
1.72	-9.6271	-0.1039	-1.3110	0.0078	-0.0135	0.0171	39.4287	0.9846	7.9564	0.6455	0.1393	0.7401	-0.1274
1.73	-9.6307	-0.0972	-1.3127	0.0071	-0.0166	0.0176	39.2923	1.1825	7.7685	0.6455	0.1393	0.7401	-0.1274
1.74	-9.6311	-0.0988	-1.3104	0.0095	-0.0159	0.0136	39.2149	0.9521	7.8130	0.6455	0.1393	0.7401	-0.1274
1.75	-9.6297	-0.0988	-1.3194	0.0084	-0.0106	0.0119	39.2722	1.0304	7.5941	0.6455	0.1393	0.7400	-0.1274
1.76	-9.6325	-0.0950	-1.3120	0.0025	-0.0185	0.0160	39.3776	1.0092	7.6092	0.6456	0.1393	0.7401	-0.1274
1.77	-9.6231	-0.0972	-1.3076	0.0025	-0.0135	0.0146	39.4318	0.9789	7.7284	0.6455	0.1393	0.7400	-0.1274
1.78	-9.6287	-0.0976	-1.3183	0.0074	-0.0137	0.0136	39.2165	1.0103	7.6443	0.6456	0.1394	0.7401	-0.1274
1.79	-9.6332	-0.0914	-1.3162	0.0020	-0.0208	0.0180	38.9973	0.8112	7.8936	0.6455	0.1393	0.7400	-0.1274
1.8	-9.6269	-0.0962	-1.3182	0.0002	-0.0176	0.0184	39.1455	1.1242	7.7124	0.6456	0.1394	0.7400	-0.1273
1.81	-9.6240	-0.0905	-1.3214	0.0111	-0.0180	0.0115	39.2138	0.8846	7.7032	0.6456	0.1394	0.7400	-0.1274
1.82	-9.6176	-0.0921	-1.3194	0.0044	-0.0135	0.0074	39.0987	0.9087	7.8955	0.6456	0.1393	0.7399	-0.1274
1.83	-9.6261	-0.0990	-1.3280	0.0047	-0.0122	0.0147	39.0961	1.0696	7.9121	0.6457	0.1394	0.7400	-0.1274
1.84	-9.6309	-0.0989	-1.3305	0.0018	-0.0173	0.0144	39.1178	1.1015	7.7460	0.6456	0.1394	0.7399	-0.1273
1.85	-9.6317	-0.0950	-1.3303	0.0002	-0.0141	0.0089	39.2824	0.9551	7.7381	0.6457	0.1393	0.7400	-0.1273
1.86	-9.6235	-0.0937	-1.3287	0.0006	-0.0156	0.0154	39.1785	1.3234	7.5648	0.6456	0.1393	0.7399	-0.1273
1.87	-9.6152	-0.0934	-1.3242	0.0013	-0.0147	0.0076	39.1907	1.2264	7.7095	0.6457	0.1393	0.7399	-0.1273
1.88	-9.6267	-0.0914	-1.3260	0.0042	-0.0185	0.0136	39.3232	1.0718	7.6717	0.6457	0.1393	0.7399	-0.1273
1.89	-9.6267	-0.0900	-1.3269	0.0024	-0.0148	0.0081	39.1079	1.1413	7.6968	0.6457	0.1393	0.7399	-0.1273
1.9	-9.6309	-0.0848	-1.3166	0.0039	-0.0167	0.0167	39.1031	1.0005	7.5782	0.6457	0.1393	0.7399	-0.1273
1.91	-9.6303	-0.0895	-1.3181	0.0069	-0.0195	0.0194	39.1106	1.0480	7.7422	0.6457	0.1393	0.7399	-0.1273
1.92	-9.6316	-0.0904	-1.3188	0.0076	-0.0136	0.0143	39.3082	0.9859	7.7920	0.6458	0.1393	0.7399	-0.1273
1.93	-9.6282	-0.0911	-1.3202	0.0062	-0.0172	0.0132	39.3815	0.8434	7.7653	0.6457	0.1393	0.7398	-0.1273
1.94	-9.6257	-0.0941	-1.3200	0.0136	-0.0128	0.0138	39.1974	0.9910	7.8011	0.6458	0.1394	0.7399	-0.1273
1.95	-9.6353	-0.1005	-1.3170	0.0054	-0.0181	0.0134	39.3867	0.8800	7.5568	0.6458	0.1394	0.7398	-0.1273
1.96	-9.6308	-0.0964	-1.3128	0.0121	-0.0182	0.0171	39.4072	0.9276	7.5572	0.6458	0.1394	0.7398	-0.1273
1.97	-9.6271	-0.0967	-1.3213	0.0108	-0.0144	0.0145	39.1469	0.9591	7.7216	0.6458	0.1395	0.7398	-0.1273
1.98	-9.6295	-0.0954	-1.3222	0.0052	-0.0140	0.0153	39.2026	1.0561	7.6606	0.6458	0.1395	0.7398	-0.1273
1.99	-9.6300	-0.0870	-1.3214	0.0050	-0.0106	0.0161	39.1781	0.9723	7.7173	0.6458	0.1395	0.7398	-0.1273
2	-9.6303	-0.0963	-1.3208	0.0096	-0.0131	0.0136	39.1855	0.9286	7.5900	0.6458	0.1395	0.7397	-0.1273
2.01	-9.6215	-0.0898	-1.3162	0.0076	-0.0129	0.0151	39.2848	0.9657	7.6106	0.6459	0.1395	0.7398	-0.1273
2.02	-9.6257	-0.0833	-1.3231	0.0067	-0.0170	0.0143	39.3815	1.0697	7.8822	0.6458	0.1395	0.7397	-0.1273
2.03	-9.6320	-0.0901	-1.3138	0.0055	-0.0185	0.0080	39.2670	1.2018	7.7925	0.6459	0.1395	0.7398	-0.1273
2.04	-9.6237	-0.0934	-1.3187	0.0057	-0.0136	0.0093	39.2002	1.1137	7.6729	0.6458	0.1395	0.7397	-0.1273
2.05	-9.6225	-0.0862	-1.2992	0.0062	-0.0121	0.0084	39.1387	1.1003	7.6775	0.6459	0.1395	0.7397	-0.1273
2.06	-9.6279	-0.0841	-1.3106	0.0081	-0.0101	0.0090	39.1395	0.9508	7.7183	0.6459	0.1395	0.7397	-0.1273
2.07	-9.6201	-0.0871	-1.3116	0.0066	-0.0137	0.0147	39.2482	0.9942	7.8824	0.6458	0.1395	0.7397	-0.1273
2.08	-9.6196	-0.0834	-1.3140	0.0027	-0.0093	0.0152	39.3078	1.1657	7.8420	0.6459	0.1395	0.7398	-0.1273
2.09	-9.6341	-0.0867	-1.3144	0.0093	-0.0176	0.0095	39.1589	1.2912	7.7416	0.6459	0.1395	0.7397	-0.1273
2.1	-9.6308	-0.0879	-1.3073	0.0103	-0.0135	0.0115	39.3744	0.8585	7.8036	0.6459	0.1395	0.7398	-0.1273
2.11	-9.6296	-0.0914	-1.3110	0.0165	-0.0159	0.0157	39.4385	0.9398	7.6869	0.6458	0.1396	0.7396	-0.1274
2.12	-9.6280	-0.0952	-1.3125	0.0108	-0.0132	0.0066	39.3532	1.1827	7.6821	0.6459	0.1396	0.7397	-0.1274
2.13	-9.6128	-0.0959	-1.3135	0.0034	-0.0165	0.0132	39.0872	1.0071	7.6908	0.6459	0.1396	0.7397	-0.1274
2.14	-9.6174	-0.0980	-1.3132	0.0130	-0.0161	0.0170	39.1089	0.8866	7.6695	0.6459	0.1396	0.7396	-0.1274
2.15	-9.6226	-0.0964	-1.3147	0.0102	-0.0119	0.0152	39.4096	1.1783	7.8012	0.6459	0.1397	0.7397	-0.1274
2.16	-9.6250	-0.0872	-1.3153	0.0018	-0.0159	0.0083	38.9448	1.2787	7.7199	0.6459	0.1396	0.7396	-0.1274
2.17	-9.6206	-0.0887	-1.3230	0.0063	-0.0153	0.0156	39.3585	1.1095	7.6675	0.6460	0.1396	0.7397	-0.1274
2.18	-9.6162	-0.0881	-1.3203	0.0036	-0.0131	0.0179	39.2492	1.1178	7.6944	0.6459	0.1397	0.7396	-0.1274
2.19	-9.6286	-0.0955	-1.3211	0.0085	-0.0144	0.0112	39.2951	1.0144	7.6802	0.6460	0.1397	0.7396	-0.1274
2.2	-9.6253	-0.0972	-1.3310	0.0113	-0.0041	0.0131	39.6366	1.0470	7.8635	0.6459	0.1397	0.7396	-0.1274
2.21	-9.6158	-0.0974	-1.3323	0.0065	-0.0119	0.0079	39.7094	1.0312	7.8656	0.6459	0.1397	0.7397	-0.1274
2.22	-9.6234	-0.1026	-1.3260	0.0017	-0.0089	0.0092	39.3761	1.1047	7.8665	0.6459	0.1397	0.7396	-0.1274
2.23	-9.6257	-0.0985	-1.3395	0.0053	-0.0142	0.0093	39.0827	1.2221	7.9748	0.6459	0.1397	0.7396	-0.1274
2.24	-9.6241	-0.0944	-1.3394	-0.0025	-0.0161	0.0097	38.8596	1.2378	7.8068	0.6459	0.1396	0.7397	-0.1274
2.25	-9.6232	-0.0915	-1.3329	0.0033	-0.0131	0.0100	39.0726	0.9795	7.8157	0.6459	0.1396	0.7396	-0.1274
2.26	-9.6291	-0.0893	-1.3401	0.0009	-0.0162	0.0093	39.1744	1.0331	7.6205	0.6460	0.1396	0.7397	-0.1274
2.27	-9.6242	-0.0942	-1.3364	0.0094	-0.0134	0.0083	39.0430	0.9701	7.7830	0.6459	0.1396	0.7396	-0.1274
2.28	-9.6415	-0.0972	-1.3336	0.0048	-0.0106	0.0100	39.3251	1.1129	7.8914	0.6460	0.1396	0.7397	-0.1274
2.29	-9.6237	-0.0965	-1.3314	0.0063	-0.0077	0.0073	39.3076	0.9886	7.9255	0.6459	0.1395	0.7396	-0.1274
2.3	-9.6226	-0.0878	-1.3222	0.0062	-0.0179	0.0095	39.2190	0.9486	7.6483	0.6459	0.1395	0.7396	-0.1274
2.31	-9.6305	-0.0867	-1.3190	-0.0013	-0.0142	0.0113	39.4198	1.0069	7.6793	0.6460	0.1395	0.7396	-0.1274
2.32	-9.6199	-0.0892	-1.3170	0.0053	-0.0104	0.0123	39.3519	0.8274	7.8481	0.6459	0.1395	0.7396	-0.1274
2.33	-9.6271	-0.0866	-1.3138	0.0107	-0.0152	0.0143	39.5577	0.8579	7.7173	0.6460	0.1395	0.7397	-0.1274
2.34	-9.6200	-0.0875	-1.3174	0.0110	-0.0157	0.0092	39.3380	0.8667	7.6188	0.6460	0.1395	0.7396	-0.1274
2.35	-9.6257	-0.0800	-1.3114	0.0064	-0.0149	0.0090	39.2611	0.9822	7.7047	0.6460	0.1395	0.7397	-0.1274
2.36	-9.6152	-0.0891	-1.3166	0.0005	-0.0191	0.0145	39.3415	0.8009	7.8331	0.6459	0.1395	0.7395	-0.1274
2.37	-9.6319	-0.0907	-1.3086	0.0077	-0.0173	0.0066	39.2084	1.0108	7.9268	0.6460	0.1395	0.7396	-0.1274
2.38	-9.6192	-0.0913	-1.3086	0.0138	-0.0144	0.0109	39.3755	0.9437	7.7133	0.6460	0.1395	0.7396	-0.1275
2.39	-9.6205	-0.0901	-1.3219	0.0016	-0.0112	0.0087	39.2318	0.9973	7.8205	0.6460	0.1395	0.7395	-0.1274
2.4	-9.6217	-0.0860	-1.3196	0.0094	-0.0108	0.0042	39.0672	1.0777	7.7995	0.6460	0.1395	0.7396	-0.1275
2.41	-9.6210	-0.0859	-1.3096	0.0078	-0.0108	0.0095	39.0679	1.2806	7.7096	0.6460	0.1395	0.7396	-0.1275
2.42	-9.6305	-0.0869	-1.3112	0.0057	-0.0138	0.0075	39.0968	1.0789	7.6988	0.6460	0.1395	0.7396	-0.1275
2.43	-9.6294	-0.0918	-1.3187	0.0059	-0.0126	0.0091	38.9923	0.9670	7.9001	0.6459	0.1395	0.7395	-0.1275
2.44	-9.6254	-0.0983	-1.3075	0.0065	-0.0069	0.0054	38.7897	1.2061	7.9929	0.6460	0.1395	0.7396	-0.1275
2.45	-9.6219	-0.0956	-1.3121	0.0002	-0.0085	0.0088	39.1591	1.0357	7.8352	0.6460	0.1394	0.7396	-0.1275
2.46	-9.6317	-0.0953	-1.3163	0.0051	-0.0126	0.0114	39.0864	1.1414	7.7408	0.6460	0.1394	0.7396	-0.1275
2.47	-9.6360	-0.0971	-1.3195	0.0101	-0.0133	0.0119	39.0737	0.8829	7.7073	0.6459	0.1394	0.7396	-0.1275
2.48	-9.6296	-0.0974	-1.3144	0.0013	-0.0082	0.0059	39.1785	1.0759	7.8812	0.6459	0.1394	0.7396	-0.1275
2.49	-9.6366	-0.0981	-1.3083	0.0035	-0.0123	0.0112	39.1332	0.8861	7.9007	0.6460	0.1394	0.7396	-0.1275
2.5	-9.6299	-0.0976	-1.3182	0.0034	-0.0134	0.0134	39.2174	0.8086	7.9335	0.6459	0.1394	0.7396	-0.1275
2.51	-9.6273	-0.1058	-1.3156	0.0158	-0.0178	0.0136	39.3558	0.9833	7.7669	0.6460	0.1394	0.7396	-0.1276
2.52	-9.6244	-0.0990	-1.3156	0.0049	-0.0141	0.0136	39.3905	0.8585	7.7750	0.6460	0.1394	0.7396	-0.1276
2.53	-9.6322	-0.0951	-1.3137	0.0035	-0.0119	0.0076	39.2256	0.9034	7.8075	0.6460	0.1394	0.7397	-0.1276
2.54	-9.6302	-0.1034	-1.3218	0.0009	-0.0114	0.0119	39.2518	0.9460	7.5032	0.6459	0.1394	0.7396	-0.1275
2.55	-9.6235	-0.1028	-1.3244	0.0045	-0.0139	0.0130	39.2258	0.9184	7.7186	0.6460	0.1394	0.7396	-0.1275
2.56	-9.6298	-0.0970	-1.3257	0.0002	-0.0127	0.0128	39.0899	0.9305	7.7137	0.6460	0.1394	0.7396	-0.1275
2.57	-9.6315	-0.0990	-1.3205	0.0055	-0.0133	0.0117	39.0698	0.9607	7.8043	0.6459	0.1394	0.7396	-0.1275
2.58	-9.6265	-0.0986	-1.3319	-0.0012	-0.0076	0.0082	38.9881	1.2473	7.9085	0.6460	0.1394	0.7397	-0.1275
2.59	-9.6276	-0.0946	-1.3270	0.0028	-0.0088	0.0161	39.1174	1.1899	7.8929	0.6460	0.1394	0.7396	-0.1275
2.6	-9.6297	-0.1067	-1.3195	0.0053	-0.0112	0.0080	39.1862	1.0368	7.8998	0.6460	0.1394	0.7397	-0.1275
2.61	-9.6305	-0.1041	-1.3242	0.0086	-0.0058	0.0080	39.0508	1.2062	7.9050	0.6459	0.1394	0.7396	-0.1275
2.62	-9.6259	-0.0942	-1.3283	0.0082	-0.0070	0.0089	38.8918	1.0356	7.8717	0.6459	0.1394	0.7397	-0.1275
2.63	-9.6289	-0.0898	-1.3360	0.0046	-0.0081	0.0058	38.9079	0.8274	7.8038	0.6459	0.1394	0.7397	-0.1275
2.64	-9.6265	-0.0891	-1.3325	0.0060	-0.0077	0.0060	38.9692	0.9021	8.1007	0.6458	0.1393	0.7397	-0.1275
2.65	-9.6308	-0.0893	-1.3288	0.0056	-0.0140	0.0120	39.0804	1.0307	7.9749	0.6459	0.1393	0.7397	-0.1275
2.66	-9.6353	-0.0886	-1.3311	0.0017	-0.0090	0.0114	39.0942	0.8638	7.7358	0.6458	0.1393	0.7397	-0.1275
2.67	-9.6295	-0.0903	-1.3228	0.0032	-0.0100	0.0128	39.4082	0.8445	7.7499	0.6459	0.1393	0.7398	-0.1275
2.68	-9.6306	-0.0938	-1.3162	-0.0003	-0.0119	0.0126	39.3789	0.8485	7.7103	0.6458	0.1393	0.7397	-0.1275
2.69	-9.6221	-0.0862	-1.3148	0.0044	-0.0064	0.0099	39.5180	0.9527	7.8875	0.6459	0.1393	0.7398	-0.1275
2.7	-9.6312	-0.0925	-1.3108	0.0048	-0.0133	0.0151	39.5446	0.9294	8.1879	0.6458	0.1392	0.7398	-0.1274
2.71	-9.6210	-0.0929	-1.3108	0.0012	-0.0154	0.0080	39.5790	1.2022	7.8994	0.6459	0.1392	0.7398	-0.1274
2.72	-9.6255	-0.0862	-1.3088	0.0077	-0.0128	0.0131	39.3758	1.0732	7.8745	0.6458	0.1392	0.7398	-0.1274
2.73	-9.6310	-0.0846	-1.3050	0.0096	-0.0134	0.0105	39.2933	1.1497	7.5710	0.6459	0.1392	0.7398	-0.1274
2.74	-9.6257	-0.0785	-1.3048	0.0134	-0.0198	0.0127	39.0758	1.0131	7.7607	0.6459	0.1392	0.7398	-0.1274
2.75	-9.6138	-0.0871	-1.3044	0.0081	-0.0167	0.0166	39.1624	0.9161	7.8044	0.6458	0.1392	0.7397	-0.1274
2.76	-9.6241	-0.0748	-1.3039	0.0083	-0.0091	0.0128	39.1813	1.1023	7.7148	0.6459	0.1393	0.7398	-0.1274
2.77	-9.6294	-0.0758	-1.3120	0.0095	-0.0156	0.0097	39.0486	0.9699	7.6432	0.6459	0.1393	0.7397	-0.1275
2.78	-9.6207	-0.0899	-1.2997	0.0053	-0.0136	0.0092	39.1687	1.0030	7.6796	0.6459	0.1393	0.7398	-0.1275
2.79	-9.6255	-0.0879	-1.3053	0.0100	-0.0046	0.0138	39.2520	1.2354	7.7849	0.6458	0.1393	0.7397	-0.1275
2.8	-9.6258	-0.0999	-1.3083	0.0115	-0.0142	0.0060	39.2537	1.0989	7.7369	0.6459	0.1393	0.7397	-0.1275
2.81	-9.6295	-0.0886	-1.3116	0.0050	-0.0110	0.0077	39.2471	1.1561	7.7366	0.6459	0.1393	0.7397	-0.1275
2.82	-9.6283	-0.0981	-1.3135	0.0047	-0.0096	0.0116	39.2763	1.0457	7.4730	0.6458	0.1393	0.7397	-0.1275
2.83	-9.6302	-0.0972	-1.3203	0.0063	-0.0065	0.0099	39.0586	1.1274	7.7565	0.6459	0.1393	0.7398	-0.1275
2.84	-9.6393	-0.1012	-1.3136	0.0046	-0.0165	0.0133	39.1249	1.1420	7.8140	0.6458	0.1393	0.7398	-0.1275
2.85	-9.6339	-0.1076	-1.3138	0.0188	-0.0156	0.0126	39.2115	1.0737	7.7154	0.6459	0.1393	0.7398	-0.1276
2.86	-9.6300	-0.0978	-1.3142	0.0174	-0.0143	0.0164	39.0571	0.9495	7.7897	0.6458	0.1394	0.7397	-0.1276
2.87	-9.6365	-0.1007	-1.3282	0.0118	-0.0141	0.0162	39.2339	1.0656	7.6868	0.6458	0.1394	0.7397	-0.1276
2.88	-9.6298	-0.1038	-1.3258	0.0085	-0.0139	0.0092	39.3849	0.8828	7.5897	0.6458	0.1394	0.7397	-0.1276
2.89	-9.6293	-0.1046	-1.3267	0.0087	-0.0170	0.0116	39.2543	0.9256	7.6683	0.6458	0.1394	0.7397	-0.1276
2.9	-9.6315	-0.1017	-1.3354	0.0124	-0.0156	0.0108	39.1677	1.1821	7.5557	0.6459	0.1394	0.7397	-0.1277
2.91	-9.6232	-0.1047	-1.3253	0.0136	-0.0142	0.0109	39.2993	1.0660	7.6147	0.6459	0.1394	0.7397	-0.1277
2.92	-9.6221	-0.1052	-1.3185	0.0076	-0.0144	0.0132	39.1744	1.0919	7.9025	0.6459	0.1395	0.7397	-0.1277
2.93	-9.6242	-0.1053	-1.3186	0.0072	-0.0172	0.0113	39.1722	1.1535	7.5460	0.6458	0.1395	0.7396	-0.1277
2.94	-9.6181	-0.1119	-1.3313	-0.0020	-0.0195	0.0175	39.2532	1.0122	8.0029	0.6459	0.1395	0.7397	-0.1277
2.95	-9.6208	-0.0997	-1.3284	0.0013	-0.0189	0.0121	39.2731	1.0741	7.8852	0.6459	0.1394	0.7396	-0.1277
2.96	-9.6277	-0.0874	-1.3364	0.0037	-0.0189	0.0094	39.3865	1.0144	7.6949	0.6460	0.1394	0.7396	-0.1277
2.97	-9.6202	-0.0913	-1.3526	0.0101	-0.0136	0.0104	39.1276	1.1722	7.7105	0.6459	0.1394	0.7396	-0.1277
2.98	-9.6133	-0.0843	-1.3502	0.0081	-0.0264	0.0103	39.1016	1.0572	7.7019	0.6460	0.1394	0.7395	-0.1277
2.99	-9.6210	-0.0805	-1.3411	0.0082	-0.0200	0.0112	39.2478	0.9254	7.7161	0.6460	0.1394	0.7395	-0.1277
3	-9.6391	-0.0703	-1.3461	0.0057	-0.0176	0.0146	39.2172	1.0375	7.7002	0.6460	0.1394	0.7394	-0.1277
3.01	-9.6374	-0.0640	-1.3414	0.0064	-0.0089	0.0122	38.9163	1.1674	7.8072	0.6461	0.1394	0.7395	-0.1277
3.02	-9.6226	-0.0634	-1.3335	0.0087	-0.0146	0.0119	39.0258	1.1759	7.7645	0.6460	0.1395	0.7395	-0.1277
3.03	-9.6366	-0.0748	-1.3291	0.0029	-0.0169	0.0136	39.0994	1.1161	7.6046	0.6461	0.1395	0.7395	-0.1277
3.04	-9.6268	-0.0732	-1.3160	0.0112	-0.0186	0.0150	39.1911	1.0556	7.6349	0.6460	0.1395	0.7394	-0.1277
3.05	-9.6318	-0.0631	-1.3043	0.0059	-0.0194	0.0148	39.3346	0.8255	7.7140	0.6461	0.1395	0.7394	-0.1277
3.06	-9.6297	-0.0729	-1.3020	0.0028	-0.0156	0.0191	39.2661	1.1106	7.5747	0.6461	0.1395	0.7394	-0.1277
3.07	-9.6262	-0.0838	-1.2889	0.0105	-0.0166	0.0129	39.3835	0.8571	7.7246	0.6461	0.1395	0.7394	-0.1277
3.08	-9.6203	-0.0888	-1.2888	0.0065	-0.0172	0.0100	39.1231	1.0074	7.7101	0.6462	0.1395	0.7395	-0.1277
3.09	-9.6168	-0.1013	-1.2837	0.0093	-0.0166	0.0117	39.3419	1.0173	7.7038	0.6462	0.1395	0.7394	-0.1277
3.1	-9.6284	-0.1130	-1.2857	0.0036	-0.0169	0.0112	39.2890	0.9648	7.7335	0.6462	0.1395	0.7394	-0.1278
3.11	-9.6349	-0.1217	-1.2870	0.0037	-0.0179	0.0068	39.1511	0.8652	7.6143	0.6461	0.1395	0.7393	-0.1277
3.12	-9.6268	-0.1241	-1.2844	0.0077	-0.0163	0.0142	39.2036	1.0234	7.5243	0.6462	0.1395	0.7394	-0.1278
3.13	-9.6292	-0.1242	-1.2849	0.0130	-0.0140	0.0090	39.2809	1.1641	7.6967	0.6462	0.1395	0.7393	-0.1278
3.14	-9.6235	-0.1244	-1.2962	0.0051	-0.0174	0.0147	39.1818	1.1185	7.7150	0.6462	0.1395	0.7393	-0.1278
3.15	-9.6151	-0.1306	-1.2880	0.0088	-0.0138	0.0084	39.1553	1.1228	7.6930	0.6462	0.1395	0.7393	-0.1278
3.16	-9.6257	-0.1226	-1.3035	0.0088	-0.0062	0.0114	39.0919	1.0342	7.5995	0.6462	0.1395	0.7393	-0.1278
3.17	-9.6279	-0.1187	-1.3073	0.0068	-0.0128	0.0141	39.0597	1.2159	7.6225	0.6462	0.1396	0.7394	-0.1278
3.18	-9.6139	-0.1173	-1.3039	0.0021	-0.0098	0.0083	38.9077	1.2159	7.5927	0.6461	0.1395	0.7393	-0.1278
3.19	-9.6209	-0.1101	-1.3156	0.0077	-0.0115	0.0127	39.0401	0.9859	7.8457	0.6462	0.1395	0.7394	-0.1278
3.2	-9.6278	-0.0976	-1.3298	0.0068	-0.0171	0.0088	39.4279	1.2928	7.8977	0.6462	0.1395	0.7393	-0.1278
3.21	-9.6357	-0.0866	-1.3233	0.0015	-0.0123	0.0128	39.5243	1.4416	7.8551	0.6462	0.1395	0.7394	-0.1278
3.22	-9.6318	-0.0887	-1.3329	0.0007	-0.0143	0.0121	39.3646	1.2363	7.9627	0.6462	0.1395	0.7393	-0.1278
3.23	-9.6306	-0.0907	-1.3362	0.0008	-0.0128	0.0133	39.2062	1.0615	7.8992	0.6462	0.1395	0.7393	-0.1278
3.24	-9.6352	-0.0827	-1.3334	0.0005	-0.0128	0.0139	39.0259	0.9536	7.7292	0.6462	0.1395	0.7394	-0.1278
3.25	-9.6386	-0.0857	-1.3509	0.0022	-0.0101	0.0128	39.0486	0.9207	7.6142	0.6462	0.1395	0.7393	-0.1277
3.26	-9.6253	-0.0823	-1.3520	0.0032	-0.0126	0.0117	39.1755	1.0625	7.6384	0.6463	0.1395	0.7394	-0.1277
3.27	-9.6357	-0.0657	-1.3501	-0.0013	-0.0161	0.0144	39.2087	0.8359	8.0320	0.6462	0.1395	0.7393	-0.1277
3.28	-9.6384	-0.0654	-1.3578	-0.0005	-0.0130	0.0163	39.2416	0.7378	7.6223	0.6463	0.1395	0.7394	-0.1277
3.29	-9.6274	-0.0616	-1.3588	0.0011	-0.0127	0.0069	39.1025	0.9631	7.7261	0.6462	0.1394	0.7393	-0.1276
3.3	-9.6308	-0.0665	-1.3561	-0.0045	-0.0133	0.0069	39.2956	0.9446	7.6869	0.6462	0.1394	0.7394	-0.1276
3.31	-9.6306	-0.0786	-1.3496	0.0057	-0.0102	0.0109	39.3801	0.9415	7.6172	0.6462	0.1394	0.7394	-0.1276
3.32	-9.6271	-0.0874	-1.3414	0.0003	-0.0201	0.0114	39.1818	0.9984	7.6074	0.6462	0.1394	0.7393	-0.1276
3.33	-9.6288	-0.0819	-1.3366	-0.0027	-0.0140	0.0070	39.2434	1.2432	7.8411	0.6463	0.1393	0.7394	-0.1276
3.34	-9.6334	-0.0883	-1.3311	-0.0060	-0.0137	0.0079	38.9121	1.0002	7.8667	0.6463	0.1393	0.7394	-0.1276
3.35	-9.6289	-0.0902	-1.3281	-0.0074	-0.0124	0.0039	39.1379	1.1132	7.7233	0.6463	0.1392	0.7394	-0.1276
3.36	-9.6273	-0.0828	-1.3140	-0.0026	-0.0148	0.0075	39.0398	1.0128	7.6039	0.6462	0.1391	0.7393	-0.1275
3.37	-9.6307	-0.0867	-1.3125	0.0006	-0.0099	0.0077	39.0979	1.0534	7.6518	0.6463	0.1391	0.7394	-0.1275
3.38	-9.6206	-0.0970	-1.3076	-0.0009	-0.0195	0.0083	39.2560	1.2666	7.5365	0.6463	0.1391	0.7394	-0.1275
3.39	-9.6190	-0.0972	-1.3051	0.0004	-0.0099	0.0063	39.2106	1.0733	7.6512	0.6463	0.1390	0.7394	-0.1275
3.4	-9.6239	-0.0989	-1.3003	0.0068	-0.0157	0.0088	39.1158	1.2326	7.9389	0.6463	0.1390	0.7394	-0.1275
3.41	-9.6341	-0.0998	-1.3004	0.0051	-0.0099	0.0125	39.0394	1.0020	7.8289	0.6463	0.1390	0.7394	-0.1275
3.42	-9.6165	-0.1011	-1.2981	-0.0039	-0.0097	0.0148	39.2514	0.9376	7.5591	0.6463	0.1390	0.7394	-0.1275
3.43	-9.6176	-0.0992	-1.3059	0.0017	-0.0123	0.0133	39.4899	0.8807	7.5285	0.6462	0.1390	0.7394	-0.1274
3.44	-9.6301	-0.0959	-1.2991	-0.0002	-0.0066	0.0125	39.3255	0.8543	7.6656	0.6463	0.1390	0.7395	-0.1274
3.45	-9.6394	-0.1032	-1.3066	0.0022	-0.0083	0.0118	39.1798	0.8815	7.7585	0.6462	0.1390	0.7395	-0.1274
3.46	-9.6222	-0.1088	-1.3099	0.0033	-0.0136	0.0068	39.2223	1.0571	7.8822	0.6463	0.1390	0.7395	-0.1274
3.47	-9.6173	-0.1108	-1.3119	0.0061	-0.0083	0.0104	39.2774	0.9145	7.9091	0.6462	0.1390	0.7395	-0.1274
3.48	-9.6306	-0.1080	-1.3253	0.0044	-0.0115	0.0129	39.4362	0.7689	7.6214	0.6462	0.1390	0.7395	-0.1274
3.49	-9.6254	-0.1057	-1.3231	0.0071	-0.0054	0.0084	39.2655	0.9407	7.7018	0.6462	0.1390	0.7395	-0.1274
3.5	-9.6290	-0.0997	-1.3239	-0.0004	-0.0113	0.0094	39.1208	1.0082	7.6965	0.6461	0.1389	0.7395	-0.1274
3.51	-9.6297	-0.0919	-1.3215	0.0030	-0.0115	0.0100	39.1284	1.2296	7.8395	0.6462	0.1390	0.7396	-0.1274
3.52	-9.6205	-0.0935	-1.3280	-0.0006	-0.0085	0.0047	39.1531	1.0276	7.9991	0.6462	0.1389	0.7395	-0.1274
3.53	-9.6280	-0.0906	-1.3312	-0.0059	-0.0162	0.0081	39.2581	1.2811	7.7478	0.6462	0.1389	0.7396	-0.1274
3.54	-9.6262	-0.0835	-1.3311	0.0001	-0.0103	0.0145	39.0893	1.1937	7.9114	0.6461	0.1388	0.7395	-0.1273
3.55	-9.6282	-0.0793	-1.3263	-0.0004	-0.0059	0.0046	39.1769	0.9647	7.8560	0.6462	0.1388	0.7396	-0.1273
3.56	-9.6383	-0.0845	-1.3231	-0.0050	-0.0069	0.0089	39.1939	1.1025	7.7541	0.6461	0.1388	0.7396	-0.1273
3.57	-9.6347	-0.0788	-1.3234	-0.0024	-0.0048	0.0076	39.0374	1.1117	7.5890	0.6461	0.1387	0.7396	-0.1273
3.58	-9.6284	-0.0807	-1.3248	0.0021	-0.0080	0.0074	39.0651	1.0170	7.7564	0.6461	0.1387	0.7398	-0.1273
3.59	-9.6256	-0.0862	-1.3194	0.0077	-0.0131	0.0128	39.0486	1.1403	7.7591	0.6461	0.1387	0.7397	-0.1273
3.6	-9.6315	-0.0938	-1.3164	-0.0031	-0.0117	0.0126	39.2891	0.8489	7.4929	0.6461	0.1387	0.7397	-0.1273
3.61	-9.6355	-0.0806	-1.3123	-0.0022	-0.0171	0.0149	39.3066	0.9549	7.6559	0.6460	0.1387	0.7396	-0.1272
3.62	-9.6185	-0.0820	-1.3157	-0.0039	-0.0171	0.0118	39.2849	1.0363	7.7089	0.6461	0.1387	0.7397	-0.1272
3.63	-9.6193	-0.0810	-1.3137	0.0011	-0.0092	0.0131	39.4678	0.7313	7.7647	0.6461	0.1386	0.7397	-0.1271
3.64	-9.6253	-0.0864	-1.3200	-0.0016	-0.0118	0.0075	39.3889	0.9440	7.8554	0.6461	0.1386	0.7397	-0.1271
3.65	-9.6265	-0.0891	-1.3270	0.0030	-0.0065	0.0076	39.2076	0.9543	7.5717	0.6461	0.1386	0.7398	-0.1271
3.66	-9.6222	-0.0866	-1.3133	0.0082	-0.0091	0.0145	39.1984	0.8142	7.5612	0.6460	0.1386	0.7397	-0.1271
3.67	-9.6276	-0.0967	-1.3036	-0.0011	-0.0159	0.0142	39.1039	0.9410	7.6919	0.6461	0.1386	0.7398	-0.1271
3.68	-9.6232	-0.0923	-1.3106	0.0051	-0.0095	0.0107	39.2163	0.9426	7.8126	0.6460	0.1386	0.7397	-0.1271
3.69	-9.6289	-0.1018	-1.3106	0.0027	-0.0125	0.0141	39.2201	0.8561	7.7886	0.6461	0.1386	0.7398	-0.1271
3.7	-9.6237	-0.0960	-1.3131	0.0004	-0.0074	0.0097	39.4858	1.3141	8.0039	0.6460	0.1386	0.7398	-0.1271
3.71	-9.6271	-0.0899	-1.3207	0.0009	-0.0126	0.0060	39.5670	1.4002	8.0826	0.6460	0.1385	0.7398	-0.1271
3.72	-9.6358	-0.0911	-1.3250	0.0022	-0.0187	0.0090	39.3015	1.2494	8.0298	0.6460	0.1385	0.7398	-0.1270
3.73	-9.6312	-0.0956	-1.3148	-0.0002	-0.0162	0.0146	39.0829	1.1946	7.9123	0.6461	0.1385	0.7398	-0.1270
3.74	-9.6265	-0.0925	-1.3169	0.0007	-0.0146	0.0134	39.0123	0.9759	7.8965	0.6461	0.1385	0.7398	-0.1270
3.75	-9.6306	-0.0904	-1.3313	0.0031	-0.0116	0.0145	39.0203	0.9348	7.8138	0.6460	0.1385	0.7397	-0.1270
3.76	-9.6277	-0.0863	-1.3299	0.0002	-0.0129	0.0138	39.1592	1.0584	7.5940	0.6461	0.1385	0.7398	-0.1269
3.77	-9.6382	-0.0929	-1.3234	0.0029	-0.0174	0.0154	39.2047	0.9022	7.6500	0.6461	0.1385	0.7398	-0.1269
3.78	-9.6375	-0.0832	-1.3185	0.0067	-0.0187	0.0172	39.2019	1.0551	7.8400	0.6462	0.1385	0.7398	-0.1269
3.79	-9.6376	-0.0866	-1.3239	0.0013	-0.0197	0.0103	39.1721	0.9520	7.6696	0.6461	0.1385	0.7397	-0.1269
3.8	-9.6425	-0.0871	-1.3237	0.0012	-0.0178	0.0163	39.4623	0.8540	7.6962	0.6462	0.1385	0.7397	-0.1269
3.81	-9.6361	-0.0882	-1.3198	-0.0003	-0.0165	0.0136	39.3123	0.9067	7.8119	0.6462	0.1385	0.7397	-0.1268
3.82	-9.6317	-0.0893	-1.3173	0.0053	-0.0199	0.0160	39.0473	0.7832	7.6105	0.6462	0.1385	0.7397	-0.1268
3.83	-9.6291	-0.0869	-1.3203	0.0034	-0.0146	0.0143	39.3625	0.8007	7.6290	0.6463	0.1385	0.7398	-0.1268
3.84	-9.6298	-0.1025	-1.3255	0.0044	-0.0116	0.0133	39.1880	1.0439	7.6802	0.6462	0.1385	0.7397	-0.1268
3.85	-9.6326	-0.1056	-1.3338	-0.0005	-0.0163	0.0148	39.2762	1.0305	7.6726	0.6462	0.1385	0.7397	-0.1268
3.86	-9.6299	-0.0982	-1.3396	0.0016	-0.0200	0.0183	39.2628	1.0602	7.6004	0.6462	0.1385	0.7396	-0.1267
3.87	-9.6353	-0.0975	-1.3342	0.0067	-0.0210	0.0175	39.2199	1.0062	7.7581	0.6463	0.1385	0.7397	-0.1267
3.88	-9.6322	-0.0948	-1.3352	0.0035	-0.0145	0.0122	39.4090	1.1359	7.8439	0.6463	0.1385	0.7397	-0.1267
3.89	-9.6260	-0.0941	-1.3420	0.0076	-0.0137	0.0077	39.2750	1.2664	7.6845	0.6463	0.1385	0.7396	-0.1267
3.9	-9.6287	-0.0903	-1.3320	0.0019	-0.0197	0.0105	39.2578	0.9810	7.8520	0.6463	0.1385	0.7397	-0.1267
3.91	-9.6279	-0.0912	-1.3297	0.0011	-0.0198	0.0182	39.0822	1.0980	7.7098	0.6463	0.1385	0.7396	-0.1267
3.92	-9.6159	-0.0944	-1.3322	0.0012	-0.0096	0.0161	39.1205	1.1165	7.6304	0.6463	0.1385	0.7397	-0.1267
3.93	-9.6250	-0.1000	-1.3257	0.0002	-0.0097	0.0152	39.1827	1.1409	7.8428	0.6463	0.1385	0.7396	-0.1266
3.94	-9.6329	-0.0967	-1.3204	0.0021	-0.0151	0.0096	39.2945	1.0862	7.6683	0.6463	0.1385	0.7397	-0.1266
3.95	-9.6276	-0.0885	-1.3139	0.0012	-0.0146	0.0090	39.1414	0.9107	7.7714	0.6463	0.1384	0.7396	-0.1266
3.96	-9.6254	-0.0878	-1.3077	0.0037	-0.0149	0.0175	39.2862	1.0152	7.8466	0.6463	0.1384	0.7397	-0.1266
3.97	-9.6242	-0.0869	-1.2965	0.0080	-0.0187	0.0174	39.2731	1.2475	7.5815	0.6463	0.1385	0.7396	-0.1266
3.98	-9.6286	-0.0831	-1.3006	0.0096	-0.0161	0.0135	39.0600	1.1418	7.6670	0.6464	0.1385	0.7396	-0.1266
3.99	-9.6203	-0.0801	-1.2849	0.0021	-0.0212	0.0147	39.2077	0.9931	7.7246	0.6464	0.1385	0.7396	-0.1266
4	-9.6256	-0.0692	-1.2977	0.0023	-0.0136	0.0091	39.4569	1.0844	7.7325	0.6463	0.1385	0.7395	-0.1265
4.01	-9.6221	-0.0645	-1.2941	-0.0029	-0.0194	0.0110	39.4271	0.9144	7.5924	0.6464	0.1384	0.7396	-0.1265
4.02	-9.6166	-0.0806	-1.2876	0.0072	-0.0180	0.0139	39.3266	0.8850	7.7220	0.6464	0.1384	0.7396	-0.1265
4.03	-9.6257	-0.0827	-1.2895	0.0069	-0.0158	0.0213	39.1776	1.0896	7.8546	0.6465	0.1385	0.7396	-0.1265
4.04	-9.6283	-0.0793	-1.2979	0.0024	-0.0123	0.0136	39.3008	1.2458	7.6724	0.6464	0.1385	0.7395	-0.1265
4.05	-9.6276	-0.0829	-1.2926	-0.0010	-0.0176	0.0168	39.1224	1.0379	7.8635	0.6465	0.1385	0.7395	-0.1265
4.06	-9.6237	-0.0893	-1.2966	0.0099	-0.0114	0.0149	39.3580	0.7730	7.7181	0.6465	0.1385	0.7395	-0.1264
4.07	-9.6125	-0.0814	-1.3112	0.0076	-0.0122	0.0131	39.4880	1.1472	7.8016	0.6464	0.1385	0.7395	-0.1264
4.08	-9.6266	-0.0798	-1.3209	0.0046	-0.0080	0.0117	39.2268	1.1135	7.7996	0.6465	0.1385	0.7396	-0.1265
4.09	-9.6230	-0.0847	-1.3342	0.0060	-0.0144	0.0083	39.0492	1.0077	7.6766	0.6464	0.1385	0.7396	-0.1265
4.1	-9.6188	-0.0906	-1.3380	0.0000	-0.0184	0.0088	39.0715	1.0652	7.7692	0.6465	0.1385	0.7396	-0.1265
4.11	-9.6170	-0.1015	-1.3518	0.0030	-0.0106	0.0127	39.2188	0.9450	7.9222	0.6464	0.1385	0.7395	-0.1264
4.12	-9.6252	-0.0980	-1.3529	0.0046	-0.0140	0.0135	39.0703	0.8605	7.7433	0.6464	0.1385	0.7396	-0.1264
4.13	-9.6283	-0.0982	-1.3460	0.0089	-0.0099	0.0069	39.1761	1.0385	7.9114	0.6464	0.1385	0.7396	-0.1264
4.14	-9.6275	-0.0979	-1.3570	-0.0022	-0.0131	0.0091	39.1973	1.0263	7.7283	0.6464	0.1385	0.7396	-0.1264
4.15	-9.6342	-0.1040	-1.3525	0.0129	-0.0125	0.0159	39.2030	1.1426	7.7164	0.6464	0.1385	0.7396	-0.1264
4.16	-9.6282	-0.1018	-1.3484	0.0079	-0.0115	0.0146	39.1788	1.2182	7.7997	0.6464	0.1385	0.7396	-0.1264
4.17	-9.6272	-0.1177	-1.3504	0.0048	-0.0161	0.0144	39.4420	0.9971	7.6669	0.6464	0.1385	0.7396	-0.1264
4.18	-9.6263	-0.1192	-1.3511	0.0074	-0.0200	0.0134	39.3522	0.8577	7.8353	0.6464	0.1385	0.7395	-0.1264
4.19	-9.6315	-0.1103	-1.3390	0.0110	-0.0196	0.0083	39.2725	0.9927	7.7903	0.6465	0.1386	0.7396	-0.1265
4.2	-9.6219	-0.1157	-1.3379	0.0093	-0.0181	0.0123	39.6849	0.9308	7.9972	0.6465	0.1385	0.7395	-0.1265
4.21	-9.6203	-0.1062	-1.3355	0.0062	-0.0225	0.0167	39.8730	1.0692	7.9259	0.6465	0.1385	0.7395	-0.1264
4.22	-9.6308	-0.1112	-1.3230	0.0063	-0.0165	0.0104	39.5766	0.9738	7.8453	0.6465	0.1385	0.7395	-0.1264
4.23	-9.6283	-0.0996	-1.3194	0.0047	-0.0093	0.0127	39.2269	0.9019	7.8845	0.6465	0.1385	0.7395	-0.1264
4.24	-9.6281	-0.0915	-1.3136	0.0072	-0.0165	0.0124	39.0683	1.0850	7.7027	0.6465	0.1385	0.7395	-0.1264
4.25	-9.6336	-0.0885	-1.3044	0.0042	-0.0164	0.0099	39.3396	0.8329	7.7988	0.6465	0.1385	0.7394	-0.1264
4.26	-9.6316	-0.0898	-1.3095	0.0025	-0.0105	0.0118	39.1948	0.8691	7.9235	0.6465	0.1385	0.7395	-0.1264
4.27	-9.6214	-0.0868	-1.2946	0.0006	-0.0114	0.0083	39.1521	0.9675	7.7181	0.6465	0.1385	0.7395	-0.1264
4.28	-9.6153	-0.0821	-1.2872	0.0038	-0.0082	0.0077	39.0992	0.8913	7.7392	0.6465	0.1385	0.7396	-0.1264
4.29	-9.6210	-0.0787	-1.2942	0.0071	-0.0047	0.0129	39.0529	1.1349	7.5950	0.6464	0.1385	0.7395	-0.1264
4.3	-9.6187	-0.0787	-1.2980	-0.0002	-0.0127	0.0075	39.1951	1.0610	7.7853	0.6464	0.1385	0.7396	-0.1264
4.31	-9.6264	-0.0764	-1.3007	0.0030	-0.0141	0.0051	39.0840	1.2036	7.7506	0.6464	0.1384	0.7396	-0.1264
4.32	-9.6196	-0.0829	-1.3065	0.0065	-0.0111	0.0164	39.0694	1.3125	7.6843	0.6464	0.1384	0.7395	-0.1264
4.33	-9.6221	-0.0809	-1.3130	0.0015	-0.0128	0.0141	38.9820	1.0428	7.7217	0.6465	0.1385	0.7396	-0.1264
4.34	-9.6334	-0.0836	-1.3153	0.0062	-0.0081	0.0124	39.1337	1.0209	7.7129	0.6464	0.1385	0.7396	-0.1264
4.35	-9.6303	-0.0894	-1.3111	0.0002	-0.0135	0.0128	39.1521	1.2175	7.6999	0.6464	0.1385	0.7397	-0.1263
4.36	-9.6227	-0.0879	-1.3178	0.0043	-0.0217	0.0153	39.2206	1.0127	7.8008	0.6464	0.1385	0.7395	-0.1263
4.37	-9.6287	-0.0918	-1.3106	-0.0005	-0.0156	0.0115	39.2435	0.8155	7.9300	0.6465	0.1384	0.7396	-0.1263
4.38	-9.6249	-0.0894	-1.3321	0.0029	-0.0094	0.0069	39.5128	0.8828	7.8598	0.6464	0.1384	0.7396	-0.1263
4.39	-9.6212	-0.0868	-1.3271	0.0109	-0.0125	0.0115	39.3210	0.8403	7.7197	0.6464	0.1384	0.7396	-0.1263
4.4	-9.6230	-0.0838	-1.3221	0.0049	-0.0109	0.0096	39.3105	0.8759	7.7218	0.6464	0.1384	0.7396	-0.1263
4.41	-9.6176	-0.0953	-1.3363	0.0010	-0.0093	0.0066	39.3005	0.8276	7.8612	0.6464	0.1384	0.7396	-0.1263
4.42	-9.6263	-0.1047	-1.3260	0.0068	-0.0086	0.0110	39.3632	0.9292	7.9290	0.6464	0.1383	0.7397	-0.1263
4.43	-9.6271	-0.0988	-1.3256	0.0111	-0.0082	0.0135	39.3569	0.9427	7.7945	0.6463	0.1383	0.7396	-0.1263
4.44	-9.6242	-0.0968	-1.3236	0.0010	-0.0110	0.0155	39.0511	0.8461	7.8209	0.6464	0.1384	0.7397	-0.1262
4.45	-9.6221	-0.0958	-1.3359	0.0002	-0.0063	0.0071	39.0120	0.9688	7.9274	0.6463	0.1383	0.7397	-0.1262
4.46	-9.6360	-0.1034	-1.3235	0.0082	-0.0110	0.0046	39.1012	0.9025	7.8180	0.6463	0.1383	0.7398	-0.1263
4.47	-9.6208	-0.0916	-1.3269	0.0122	-0.0101	0.0078	38.9694	1.0387	7.6942	0.6463	0.1383	0.7397	-0.1263
4.48	-9.6206	-0.0940	-1.3248	0.0041	-0.0086	0.0062	39.2243	1.1146	7.8540	0.6463	0.1383	0.7398	-0.1263
4.49	-9.6274	-0.0907	-1.3394	-0.0006	-0.0081	0.0102	39.2243	1.0945	7.9067	0.6463	0.1383	0.7398	-0.1263
4.5	-9.6211	-0.0889	-1.3348	0.0013	-0.0029	0.0142	39.2274	1.1152	7.8728	0.6462	0.1383	0.7398	-0.1262
4.51	-9.6280	-0.0868	-1.3233	0.0071	-0.0092	0.0095	39.2288	0.9923	7.9153	0.6462	0.1383	0.7399	-0.1263
4.52	-9.6283	-0.0875	-1.3335	0.0015	-0.0035	0.0116	39.0843	1.0452	7.8405	0.6462	0.1383	0.7399	-0.1262
4.53	-9.6323	-0.0876	-1.3282	0.0003	-0.0071	0.0100	39.0960	0.9458	7.7867	0.6462	0.1383	0.7400	-0.1262
4.54	-9.6304	-0.0924	-1.3323	0.0067	-0.0108	0.0122	39.3547	0.8639	7.8266	0.6461	0.1382	0.7399	-0.1262
4.55	-9.6308	-0.0961	-1.3303	0.0106	-0.0140	0.0157	39.2664	0.8247	7.6795	0.6461	0.1383	0.7399	-0.1262
4.56	-9.6285	-0.0934	-1.3244	0.0009	-0.0085	0.0100	39.4245	0.7690	7.7956	0.6461	0.1383	0.7399	-0.1262
4.57	-9.6226	-0.0892	-1.3347	0.0016	-0.0093	0.0063	39.4954	0.7622	7.8363	0.6460	0.1382	0.7399	-0.1262
4.58	-9.6305	-0.0897	-1.3229	0.0058	-0.0121	0.0103	39.3833	0.8984	7.6999	0.6461	0.1382	0.7400	-0.1262
4.59	-9.6280	-0.0795	-1.3216	-0.0021	-0.0105	0.0141	39.2429	1.0426	7.7428	0.6461	0.1382	0.7400	-0.1262
4.6	-9.6350	-0.0862	-1.3180	0.0040	-0.0072	0.0103	39.0828	0.8285	7.8933	0.6461	0.1382	0.7400	-0.1262
4.61	-9.6284	-0.0850	-1.3113	0.0082	-0.0093	0.0074	39.3389	0.8666	7.9037	0.6460	0.1382	0.7400	-0.1262
4.62	-9.6307	-0.0888	-1.3112	0.0040	-0.0103	0.0136	39.3887	0.9583	7.7827	0.6460	0.1382	0.7400	-0.1262
4.63	-9.6323	-0.0956	-1.3102	0.0097	-0.0086	0.0106	39.2470	1.0720	7.8300	0.6460	0.1382	0.7400	-0.1262
4.64	-9.6188	-0.0981	-1.3109	0.0091	-0.0080	0.0064	39.2148	0.9046	7.7260	0.6459	0.1382	0.7401	-0.1262
4.65	-9.6169	-0.1032	-1.3092	0.0059	-0.0061	0.0086	39.2554	1.0645	7.7076	0.6459	0.1382	0.7401	-0.1262
4.66	-9.6208	-0.1024	-1.3138	0.0042	-0.0130	0.0106	39.3085	1.1947	7.7304	0.6459	0.1382	0.7401	-0.1262
4.67	-9.6233	-0.0952	-1.3108	0.0061	-0.0098	0.0133	39.1505	1.0464	7.8888	0.6459	0.1382	0.7401	-0.1262
4.68	-9.6173	-0.0989	-1.3023	0.0042	-0.0057	0.0028	39.1331	1.2176	7.8875	0.6458	0.1382	0.7401	-0.1262
4.69	-9.6179	-0.0964	-1.3075	0.0058	-0.0078	0.0062	39.1722	0.9562	7.7861	0.6459	0.1382	0.7402	-0.1263
4.7	-9.6251	-0.0999	-1.3070	-0.0006	-0.0060	0.0060	39.3900	1.0959	7.9801	0.6458	0.1381	0.7402	-0.1262
4.71	-9.6256	-0.1092	-1.3120	0.0035	-0.0095	0.0139	39.3877	1.0650	7.9413	0.6458	0.1381	0.7402	-0.1262
4.72	-9.6284	-0.0964	-1.3108	0.0157	-0.0089	0.0124	39.3292	0.8777	7.6538	0.6458	0.1381	0.7402	-0.1262
4.73	-9.6272	-0.0981	-1.3138	0.0096	-0.0130	0.0154	39.2322	0.7412	7.4985	0.6458	0.1382	0.7402	-0.1262
4.74	-9.6360	-0.0903	-1.3212	0.0088	-0.0138	0.0143	39.0065	0.8968	7.8392	0.6458	0.1382	0.7403	-0.1262
4.75	-9.6359	-0.0959	-1.3180	0.0085	-0.0128	0.0077	39.2521	1.0996	7.6999	0.6457	0.1382	0.7402	-0.1262
4.76	-9.6311	-0.0887	-1.3143	0.0094	-0.0141	0.0179	39.3569	0.9048	7.7825	0.6458	0.1382	0.7403	-0.1263
4.77	-9.6283	-0.0913	-1.3256	0.0045	-0.0120	0.0114	39.2924	0.9564	7.7552	0.6457	0.1382	0.7402	-0.1263
4.78	-9.6322	-0.0937	-1.3231	0.0157	-0.0049	0.0100	39.1916	1.1131	7.5746	0.6458	0.1383	0.7403	-0.1263
4.79	-9.6272	-0.0925	-1.3252	0.0150	-0.0082	0.0144	39.0683	0.9182	7.7693	0.6456	0.1383	0.7402	-0.1263
4.8	-9.6297	-0.0840	-1.3331	0.0095	-0.0126	0.0148	39.2210	1.2414	7.4556	0.6457	0.1383	0.7403	-0.1263
4.81	-9.6281	-0.0842	-1.3128	0.0079	-0.0090	0.0177	39.2610	1.1484	7.6798	0.6457	0.1383	0.7403	-0.1263
4.82	-9.6357	-0.0826	-1.3206	0.0076	-0.0135	0.0158	39.2440	1.1517	7.7628	0.6456	0.1384	0.7402	-0.1263
4.83	-9.6294	-0.0825	-1.3270	0.0075	-0.0144	0.0118	39.1712	1.0124	7.5841	0.6457	0.1384	0.7403	-0.1263
4.84	-9.6280	-0.0864	-1.3334	0.0029	-0.0128	0.0121	39.0311	0.9942	7.8621	0.6457	0.1384	0.7403	-0.1263
4.85	-9.6336	-0.0801	-1.3379	0.0083	-0.0095	0.0079	39.2112	1.0418	7.8481	0.6457	0.1384	0.7403	-0.1263
4.86	-9.6261	-0.0861	-1.3320	0.0066	-0.0070	0.0150	39.3437	0.8316	7.8171	0.6456	0.1384	0.7403	-0.1263
4.87	-9.6287	-0.0860	-1.3218	0.0005	-0.0170	0.0142	39.2222	1.1614	7.6820	0.6456	0.1384	0.7403	-0.1263
4.88	-9.6290	-0.0875	-1.3208	0.0024	-0.0119	0.0095	39.1121	0.8842	7.6524	0.6456	0.1384	0.7403	-0.1263
4.89	-9.6272	-0.0849	-1.3260	0.0064	-0.0073	0.0115	39.0710	1.0200	7.8332	0.6456	0.1384	0.7403	-0.1263
4.9	-9.6246	-0.0942	-1.3213	0.0023	-0.0079	0.0161	39.1703	1.1501	7.7997	0.6456	0.1384	0.7404	-0.1263
4.91	-9.6403	-0.0936	-1.3181	0.0085	-0.0125	0.0176	39.3092	1.0324	7.6945	0.6456	0.1384	0.7404	-0.1262
4.92	-9.6277	-0.1001	-1.3182	0.0033	-0.0141	0.0157	39.3137	1.0301	7.7780	0.6456	0.1384	0.7404	-0.1262
4.93	-9.6325	-0.0954	-1.3117	0.0095	-0.0102	0.0105	39.4344	0.8614	7.5430	0.6455	0.1384	0.7403	-0.1262
4.94	-9.6174	-0.0889	-1.3279	0.0050	-0.0127	0.0140	39.2794	1.0121	7.4715	0.6456	0.1384	0.7404	-0.1262
4.95	-9.6285	-0.0952	-1.3196	0.0042	-0.0166	0.0107	39.3080	0.9366	7.7442	0.6456	0.1384	0.7404	-0.1262
4.96	-9.6274	-0.0936	-1.3068	0.0060	-0.0146	0.0195	39.4894	1.0639	7.7302	0.6456	0.1384	0.7404	-0.1262
4.97	-9.6250	-0.0933	-1.3104	0.0060	-0.0125	0.0151	39.1152	1.0373	7.6435	0.6456	0.1384	0.7403	-0.1262
4.98	-9.6286	-0.0910	-1.3088	0.0028	-0.0165	0.0104	38.9844	1.1993	7.4853	0.6456	0.1384	0.7403	-0.1262
4.99	-9.6208	-0.0830	-1.3070	0.0035	-0.0145	0.0124	39.2350	1.1591	7.6631	0.6456	0.1384	0.7404	-0.1262
5	-9.6222	-0.0850	-1.3185	0.0066	-0.0143	0.0064	39.2498	0.8366	7.8541	0.6456	0.1384	0.7403	-0.1262
5.01	-9.6207	-0.0905	-1.3125	0.0145	-0.0143	0.0149	39.1705	1.0269	7.5882	0.6456	0.1384	0.7404	-0.1262
5.02	-9.6263	-0.0865	-1.3162	0.0090	-0.0077	0.0082	39.1409	1.1697	7.8266	0.6456	0.1384	0.7403	-0.1262
5.03	-9.6181	-0.0874	-1.3144	0.0054	-0.0189	0.0070	39.2608	1.1049	7.7358	0.6456	0.1384	0.7404	-0.1263
5.04	-9.6247	-0.0935	-1.3259	0.0069	-0.0139	0.0133	39.1435	1.2425	7.7225	0.6456	0.1384	0.7403	-0.1263
5.05	-9.6192	-0.0975	-1.3208	0.0019	-0.0133	0.0121	39.2189	1.1871	7.5866	0.6456	0.1384	0.7403	-0.1263
5.06	-9.6303	-0.0978	-1.3190	0.0090	-0.0111	0.0103	39.2010	0.9411	7.7476	0.6456	0.1384	0.7404	-0.1263
5.07	-9.6244	-0.0933	-1.3271	0.0048	-0.0065	0.0122	39.2192	1.0574	7.8818	0.6455	0.1384	0.7403	-0.1263
5.08	-9.6219	-0.0941	-1.3227	0.0126	-0.0060	0.0128	39.1872	1.0494	7.4584	0.6456	0.1385	0.7405	-0.1263
5.09	-9.6157	-0.0909	-1.3207	0.0176	-0.0149	0.0079	39.0295	0.9320	7.6583	0.6455	0.1385	0.7404	-0.1263
5.1	-9.6341	-0.0873	-1.3262	0.0054	-0.0125	0.0158	39.0119	1.0044	7.7462	0.6456	0.1385	0.7404	-0.1263
5.11	-9.6317	-0.0976	-1.3196	0.0093	-0.0152	0.0131	39.3845	0.8535	7.7326	0.6455	0.1385	0.7403	-0.1263
5.12	-9.6228	-0.0949	-1.3210	0.0040	-0.0079	0.0168	39.1629	1.0465	7.6028	0.6455	0.1385	0.7404	-0.1263
5.13	-9.6282	-0.0901	-1.3314	0.0052	-0.0119	0.0136	39.1174	0.9773	7.5413	0.6455	0.1385	0.7404	-0.1263
5.14	-9.6269	-0.0912	-1.3265	0.0031	-0.0179	0.0133	39.1935	0.7754	7.8401	0.6455	0.1385	0.7404	-0.1263
5.15	-9.6192	-0.0873	-1.3221	0.0094	-0.0173	0.0157	39.0769	0.8960	7.8030	0.6456	0.1386	0.7404	-0.1263
5.16	-9.6266	-0.0961	-1.3273	0.0064	-0.0134	0.0132	39.1896	0.9043	7.7082	0.6455	0.1386	0.7403	-0.1263
5.17	-9.6181	-0.0919	-1.3143	0.0128	-0.0142	0.0140	39.1793	1.0313	7.7390	0.6456	0.1386	0.7404	-0.1263
5.18	-9.6119	-0.0887	-1.3203	0.0058	-0.0122	0.0130	39.0702	1.1482	7.7086	0.6455	0.1386	0.7403	-0.1263
5.19	-9.6223	-0.0840	-1.3108	0.0039	-0.0186	0.0082	39.2141	1.1090	7.7354	0.6456	0.1386	0.7404	-0.1263
5.2	-9.6218	-0.0789	-1.3208	0.0008	-0.0142	0.0111	39.3751	1.0596	7.8868	0.6456	0.1385	0.7403	-0.1263
5.21	-9.6232	-0.0879	-1.3193	0.0022	-0.0097	0.0106	39.4996	1.2505	8.1508	0.6456	0.1385	0.7404	-0.1263
5.22	-9.6150	-0.0811	-1.3136	0.0045	-0.0096	0.0092	39.2583	1.1149	7.7714	0.6455	0.1385	0.7404	-0.1263
5.23	-9.6219	-0.0863	-1.3066	0.0035	-0.0095	0.0058	39.0259	1.2255	7.8292	0.6455	0.1385	0.7404	-0.1263
5.24	-9.6206	-0.0930	-1.3139	0.0044	-0.0087	0.0104	38.7543	0.9201	7.6150	0.6455	0.1385	0.7404	-0.1263
5.25	-9.6143	-0.0826	-1.3111	0.0081	-0.0097	0.0081	39.1094	0.9990	7.4837	0.6455	0.1384	0.7404	-0.1263
5.26	-9.6294	-0.0849	-1.3157	0.0075	-0.0105	0.0102	39.1564	1.1299	7.7537	0.6455	0.1385	0.7405	-0.1263
5.27	-9.6257	-0.0949	-1.3110	0.0003	-0.0158	0.0099	39.0993	0.9300	7.5602	0.6455	0.1384	0.7404	-0.1263
5.28	-9.6172	-0.0960	-1.3060	0.0013	-0.0184	0.0153	39.2033	0.9674	7.7137	0.6456	0.1384	0.7405	-0.1263
5.29	-9.6182	-0.0999	-1.3155	0.0025	-0.0174	0.0107	39.1374	0.7384	7.7308	0.6455	0.1384	0.7403	-0.1263
5.3	-9.6277	-0.1044	-1.3105	0.0003	-0.0194	0.0122	39.4050	0.9219	7.6845	0.6456	0.1384	0.7404	-0.1263
5.31	-9.6243	-0.0991	-1.3145	0.0031	-0.0181	0.0124	39.3999	0.9031	7.6222	0.6456	0.1384	0.7404	-0.1262
5.32	-9.6171	-0.0962	-1.3150	0.0026	-0.0162	0.0132	39.4272	0.8312	7.6165	0.6456	0.1384	0.7403	-0.1262
5.33	-9.6233	-0.0951	-1.3217	0.0078	-0.0148	0.0134	39.2988	0.8791	7.7612	0.6457	0.1384	0.7404	-0.1263
5.34	-9.6290	-0.0955	-1.3238	0.0084	-0.0140	0.0137	39.2350	0.8234	7.7769	0.6456	0.1384	0.7403	-0.1262
5.35	-9.6225	-0.0915	-1.3271	0.0112	-0.0094	0.0153	39.2489	0.9287	7.6957	0.6456	0.1384	0.7404	-0.1263
5.36	-9.6223	-0.0907	-1.3333	0.0093	-0.0113	0.0144	39.2508	0.9424	7.7187	0.6455	0.1384	0.7403	-0.1263
5.37	-9.6329	-0.0895	-1.3268	0.0046	-0.0130	0.0131	39.2327	0.8321	7.6189	0.6456	0.1384	0.7403	-0.1263
5.38	-9.6198	-0.0930	-1.3334	0.0058	-0.0123	0.0128	39.2891	1.0436	7.6077	0.6456	0.1384	0.7403	-0.1263
5.39	-9.6161	-0.0947	-1.3317	0.0046	-0.0052	0.0056	39.0957	1.2002	7.6978	0.6456	0.1384	0.7403	-0.1263
5.4	-9.6279	-0.0958	-1.3380	0.0072	-0.0036	0.0061	38.9945	1.1563	7.7861	0.6455	0.1384	0.7404	-0.1263
5.41	-9.6222	-0.0943	-1.3213	0.0037	-0.0099	0.0073	39.2302	1.2283	7.5726	0.6455	0.1384	0.7404	-0.1263
5.42	-9.6179	-0.0894	-1.3183	0.0063	-0.0067	0.0050	39.0938	1.2523	7.6318	0.6455	0.1384	0.7405	-0.1263
5.43	-9.6184	-0.0857	-1.3228	0.0104	-0.0124	0.0078	39.0717	0.9900	7.6083	0.6454	0.1384	0.7404	-0.1263
5.44	-9.6289	-0.0849	-1.3206	0.0118	-0.0060	0.0063	39.1088	1.0259	7.8327	0.6455	0.1384	0.7405	-0.1264
5.45	-9.6151	-0.0809	-1.3218	0.0052	-0.0041	0.0077	39.3229	1.0249	7.4722	0.6454	0.1384	0.7405	-0.1264
5.46	-9.6247	-0.0843	-1.3208	0.0039	-0.0097	0.0095	39.1029	1.2338	7.7057	0.6454	0.1384	0.7405	-0.1264
5.47	-9.6229	-0.0922	-1.3145	0.0109	-0.0117	0.0124	38.9803	0.9605	7.6172	0.6454	0.1384	0.7405	-0.1264
5.48	-9.6161	-0.0881	-1.3150	0.0091	-0.0055	0.0094	39.1586	0.8545	7.6294	0.6454	0.1384	0.7405	-0.1264
5.49	-9.6123	-0.0876	-1.3117	0.0104	-0.0106	0.0108	39.3196	0.7845	7.6210	0.6454	0.1384	0.7405	-0.1264
5.5	-9.6285	-0.0862	-1.3215	0.0006	-0.0082	0.0142	39.4048	0.8548	7.7120	0.6453	0.1384	0.7405	-0.1264
5.51	-9.6290	-0.0899	-1.3186	0.0106	-0.0060	0.0043	39.3203	0.8384	7.7318	0.6454	0.1384	0.7406	-0.1265
5.52	-9.6220	-0.0854	-1.3176	0.0109	-0.0072	0.0119	39.3277	0.7828	7.6967	0.6453	0.1384	0.7406	-0.1265
5.53	-9.6198	-0.0871	-1.3142	0.0086	-0.0082	0.0095	39.3369	0.9035	7.5278	0.6453	0.1384	0.7406	-0.1265
5.54	-9.6139	-0.0857	-1.3087	0.0045	-0.0050	0.0106	39.3283	0.7400	7.6381	0.6452	0.1384	0.7406	-0.1265
5.55	-9.6213	-0.0862	-1.3116	0.0118	-0.0124	0.0154	39.2197	1.0163	7.7413	0.6452	0.1384	0.7406	-0.1265
5.56	-9.6306	-0.0886	-1.3129	0.0112	-0.0158	0.0107	39.2734	0.8302	7.6868	0.6453	0.1384	0.7406	-0.1265
5.57	-9.6321	-0.0856	-1.3145	0.0033	-0.0070	0.0087	39.1653	0.9941	7.8044	0.6452	0.1384	0.7406	-0.1265
5.58	-9.6199	-0.0881	-1.3173	0.0112	-0.0075	0.0089	39.0735	1.1316	7.7861	0.6453	0.1384	0.7407	-0.1266
5.59	-9.6205	-0.0798	-1.3250	0.0077	-0.0097	0.0063	39.2142	1.0681	7.6768	0.6452	0.1384	0.7406	-0.1266
5.6	-9.6203	-0.0836	-1.3129	0.0063	-0.0060	0.0061	39.0786	1.1728	7.7379	0.6452	0.1384	0.7407	-0.1266
5.61	-9.6184	-0.0958	-1.3168	0.0074	-0.0081	0.0051	39.1584	1.1843	7.5930	0.6451	0.1384	0.7406	-0.1266
5.62	-9.6112	-0.0949	-1.3262	0.0019	-0.0053	0.0125	39.2817	1.1894	7.6492	0.6451	0.1384	0.7407	-0.1266
5.63	-9.6225	-0.0998	-1.3175	0.0029	-0.0043	0.0053	39.1981	1.0069	7.7309	0.6451	0.1384	0.7407	-0.1266
5.64	-9.6292	-0.0981	-1.3263	0.0062	-0.0079	0.0125	39.0932	1.0946	7.6959	0.6451	0.1384	0.7407	-0.1266
5.65	-9.6329	-0.0950	-1.3143	0.0042	-0.0089	0.0127	39.0653	1.0967	7.7157	0.6451	0.1384	0.7408	-0.1266
5.66	-9.6290	-0.0958	-1.3156	0.0065	-0.0147	0.0107	39.1327	0.8653	7.5694	0.6451	0.1384	0.7407	-0.1266
5.67	-9.6223	-0.1073	-1.3151	0.0050	-0.0139	0.0139	39.1757	0.8337	7.5205	0.6451	0.1384	0.7408	-0.1266
5.68	-9.6201	-0.0978	-1.3149	0.0064	-0.0112	0.0109	39.2294	0.9426	7.6203	0.6450	0.1383	0.7407	-0.1266
5.69	-9.6227	-0.0946	-1.3263	0.0116	-0.0061	0.0046	39.4527	1.0293	7.7482	0.6451	0.1384	0.7408	-0.1266
5.7	-9.6274	-0.1005	-1.3256	0.0046	-0.0118	0.0111	39.6629	0.9003	8.0025	0.6450	0.1383	0.7408	-0.1266
5.71	-9.6302	-0.0993	-1.3281	0.0099	-0.0157	0.0116	39.7713	1.0326	7.9199	0.6451	0.1384	0.7408	-0.1267
5.72	-9.6222	-0.0918	-1.3278	0.0077	-0.0209	0.0176	39.5072	1.0139	7.7633	0.6451	0.1384	0.7407	-0.1267
5.73	-9.6208	-0.0943	-1.3290	0.0049	-0.0104	0.0064	39.2482	1.1155	7.6540	0.6451	0.1384	0.7407	-0.1267
5.74	-9.6220	-0.0932	-1.3261	0.0082	-0.0116	0.0132	39.1615	0.9168	7.6488	0.6451	0.1384	0.7408	-0.1267
5.75	-9.6362	-0.0940	-1.3057	0.0009	-0.0168	0.0137	39.0842	1.0442	7.6071	0.6450	0.1384	0.7407	-0.1266
5.76	-9.6274	-0.0901	-1.3178	0.0022	-0.0079	0.0075	39.0107	1.0078	7.6812	0.6451	0.1383	0.7408	-0.1267
5.77	-9.6322	-0.0892	-1.3140	0.0028	-0.0071	0.0048	39.2404	1.0860	7.8235	0.6450	0.1383	0.7408	-0.1267
5.78	-9.6211	-0.1002	-1.3114	0.0057	-0.0069	0.0137	39.2531	1.1187	7.6195	0.6451	0.1383	0.7408	-0.1267
5.79	-9.6174	-0.0877	-1.3073	0.0070	-0.0177	0.0167	39.2366	1.1374	7.6363	0.6450	0.1383	0.7407	-0.1266
5.8	-9.6195	-0.0937	-1.3106	0.0093	-0.0059	0.0083	39.1585	1.0621	7.5322	0.6450	0.1383	0.7408	-0.1267
5.81	-9.6246	-0.0894	-1.3072	0.0054	-0.0075	0.0135	38.9835	0.9109	7.7234	0.6450	0.1383	0.7408	-0.1267
5.82	-9.6228	-0.0826	-1.3058	0.0052	-0.0123	0.0125	39.1429	0.9542	7.7268	0.6450	0.1383	0.7407	-0.1266
5.83	-9.6236	-0.0828	-1.3058	0.0037	-0.0152	0.0085	39.2687	1.0496	7.7197	0.6451	0.1383	0.7408	-0.1267
5.84	-9.6182	-0.0810	-1.3072	0.0042	-0.0115	0.0125	39.1049	1.3961	7.7231	0.6450	0.1383	0.7408	-0.1267
5.85	-9.6229	-0.0948	-1.3044	0.0044	-0.0162	0.0098	39.0514	1.0678	7.6925	0.6451	0.1383	0.7408	-0.1267
5.86	-9.6355	-0.0882	-1.3128	0.0075	-0.0108	0.0155	39.2481	0.9209	7.8470	0.6450	0.1383	0.7407	-0.1266
5.87	-9.6148	-0.0906	-1.3150	0.0027	-0.0079	0.0149	39.4411	1.1935	7.6510	0.6450	0.1383	0.7408	-0.1266
5.88	-9.6210	-0.1013	-1.3146	0.0044	-0.0145	0.0099	39.2312	1.0252	7.5352	0.6450	0.1383	0.7408	-0.1266
5.89	-9.6281	-0.0904	-1.3213	0.0075	-0.0152	0.0107	39.3105	1.1143	7.7835	0.6450	0.1383	0.7407	-0.1266
5.9	-9.6302	-0.0940	-1.3266	0.0010	-0.0168	0.0122	39.3472	1.1170	7.4881	0.6451	0.1383	0.7408	-0.1266
5.91	-9.6251	-0.0951	-1.3306	0.0126	-0.0128	0.0124	39.2968	1.0146	7.6221	0.6451	0.1383	0.7407	-0.1266
5.92	-9.6212	-0.0975	-1.3277	0.0135	-0.0130	0.0083	39.2141	1.0413	7.5876	0.6451	0.1383	0.7408	-0.1267
5.93	-9.6350	-0.0969	-1.3220	0.0052	-0.0138	0.0092	39.3473	1.0449	7.5275	0.6450	0.1383	0.7407	-0.1267
5.94	-9.6259	-0.0975	-1.3290	0.0019	-0.0147	0.0145	39.2144	0.9173	7.5717	0.6451	0.1383	0.7408	-0.1267
5.95	-9.6291	-0.0971	-1.3256	0.0033	-0.0155	0.0135	39.1519	1.0099	7.5360	0.6451	0.1383	0.7407	-0.1267
5.96	-9.6227	-0.0957	-1.3289	0.0012	-0.0133	0.0054	39.1791	1.0266	7.8400	0.6451	0.1383	0.7407	-0.1267
5.97	-9.6273	-0.0955	-1.3325	0.0043	-0.0198	0.0124	39.0718	1.1290	7.6855	0.6451	0.1383	0.7407	-0.1267
5.98	-9.6259	-0.1003	-1.3273	0.0040	-0.0155	0.0160	38.9743	1.1982	7.6460	0.6452	0.1383	0.7407	-0.1267
5.99	-9.6150	-0.0979	-1.3281	0.0082	-0.0095	0.0085	39.0558	1.0330	7.7359	0.6452	0.1383	0.7407	-0.1267
6	-9.6269	-0.0973	-1.3263	0.0043	-0.0148	0.0118	39.1516	1.0220	7.7888	0.6451	0.1383	0.7406	-0.1267
6.01	-9.6291	-0.0941	-1.3156	-0.0038	-0.0147	0.0205	39.2745	1.0581	7.8333	0.6452	0.1383	0.7407	-0.1266
6.02	-9.6254	-0.0981	-1.3269	0.0029	-0.0144	0.0094	39.1958	0.8415	7.6442	0.6452	0.1383	0.7406	-0.1266
6.03	-9.6244	-0.0947	-1.3149	0.0047	-0.0097	0.0108	39.1626	1.0107	7.6505	0.6452	0.1383	0.7407	-0.1266
6.04	-9.6201	-0.0887	-1.3117	0.0027	-0.0128	0.0173	39.1546	1.0359	7.6044	0.6452	0.1383	0.7406	-0.1266
6.05	-9.6308	-0.0972	-1.3070	0.0046	-0.0163	0.0187	39.2963	0.9538	7.8186	0.6452	0.1383	0.7406	-0.1266
6.06	-9.6232	-0.0927	-1.3071	0.0013	-0.0157	0.0100	39.3046	1.0496	7.8963	0.6453	0.1383	0.7406	-0.1265
6.07	-9.6161	-0.0807	-1.3129	0.0080	-0.0051	0.0132	39.4115	0.8086	7.7051	0.6452	0.1383	0.7406	-0.1265
6.08	-9.6320	-0.0821	-1.3084	0.0076	-0.0144	0.0136	39.3855	1.1159	7.7458	0.6453	0.1383	0.7407	-0.1266
6.09	-9.6236	-0.0876	-1.3141	0.0092	-0.0148	0.0163	39.2089	1.0678	7.5588	0.6452	0.1383	0.7406	-0.1265
6.1	-9.6200	-0.0918	-1.3123	0.0059	-0.0148	0.0120	39.2633	1.0424	7.5781	0.6453	0.1383	0.7406	-0.1266
6.11	-9.6232	-0.0950	-1.3149	0.0105	-0.0127	0.0062	39.2392	0.9433	7.8528	0.6452	0.1383	0.7405	-0.1266
6.12	-9.6232	-0.0942	-1.3143	0.0090	-0.0140	0.0186	39.2280	0.8698	7.6697	0.6453	0.1383	0.7406	-0.1266
6.13	-9.6277	-0.0981	-1.3183	-0.0017	-0.0180	0.0152	39.3023	0.9875	7.8283	0.6453	0.1383	0.7406	-0.1265
6.14	-9.6124	-0.0933	-1.3301	0.0034	-0.0125	0.0118	39.2774	0.9267	7.6711	0.6453	0.1383	0.7405	-0.1265
6.15	-9.6118	-0.0974	-1.3172	0.0047	-0.0114	0.0122	39.1422	1.0542	7.6073	0.6453	0.1383	0.7406	-0.1265
6.16	-9.6209	-0.0901	-1.3207	0.0050	-0.0081	0.0138	39.1719	1.0271	7.7968	0.6453	0.1383	0.7406	-0.1265
6.17	-9.6251	-0.0970	-1.3249	0.0063	-0.0127	0.0152	39.1575	1.2248	7.8042	0.6453	0.1384	0.7406	-0.1265
6.18	-9.6155	-0.0980	-1.3196	0.0093	-0.0179	0.0133	39.1567	1.1026	7.8078	0.6453	0.1384	0.7405	-0.1265
6.19	-9.6145	-0.0911	-1.3369	0.0123	-0.0147	0.0112	39.1639	1.0333	7.9107	0.6454	0.1384	0.7406	-0.1266
6.2	-9.6234	-0.0968	-1.3369	0.0031	-0.0154	0.0055	39.4428	1.3096	7.9055	0.6453	0.1384	0.7405	-0.1266
6.21	-9.6263	-0.0917	-1.3274	0.0046	-0.0118	0.0130	39.4991	1.2265	8.1185	0.6454	0.1383	0.7405	-0.1265
6.22	-9.6240	-0.0910	-1.3216	0.0023	-0.0144	0.0146	39.3734	1.0813	7.8439	0.6454	0.1383	0.7405	-0.1265
6.23	-9.6346	-0.0928	-1.3214	0.0037	-0.0164	0.0142	39.2782	0.8754	7.6775	0.6454	0.1383	0.7405	-0.1265
6.24	-9.6207	-0.0911	-1.3325	0.0022	-0.0126	0.0071	39.1816	1.0345	7.4386	0.6454	0.1383	0.7405	-0.1265
6.25	-9.6329	-0.0946	-1.3218	0.0045	-0.0149	0.0078	39.2957	0.9586	7.6599	0.6454	0.1383	0.7404	-0.1265
6.26	-9.6334	-0.0962	-1.3198	0.0040	-0.0135	0.0135	39.5170	0.8504	7.6508	0.6455	0.1383	0.7405	-0.1265
6.27	-9.6304	-0.0981	-1.3292	0.0065	-0.0110	0.0125	39.2706	1.0242	7.5540	0.6454	0.1383	0.7405	-0.1265
6.28	-9.6226	-0.0952	-1.3372	0.0058	-0.0093	0.0101	39.2090	1.0334	7.7746	0.6455	0.1383	0.7405	-0.1265
6.29	-9.6188	-0.0968	-1.3235	0.0094	-0.0143	0.0104	39.2278	0.9617	7.6396	0.6454	0.1383	0.7404	-0.1265
6.3	-9.6291	-0.0982	-1.3277	0.0099	-0.0091	0.0122	39.2374	0.9103	7.4275	0.6454	0.1383	0.7405	-0.1265
6.31	-9.6278	-0.1003	-1.3258	0.0097	-0.0066	0.0074	39.3620	0.8794	7.7426	0.6454	0.1383	0.7405	-0.1266
6.32	-9.6389	-0.0961	-1.3163	0.0130	-0.0146	0.0116	39.1398	1.1091	7.6586	0.6454	0.1383	0.7404	-0.1266
6.33	-9.6258	-0.0863	-1.3139	0.0132	-0.0053	0.0070	39.0577	1.1349	7.6425	0.6454	0.1383	0.7406	-0.1266
6.34	-9.6243	-0.0931	-1.3234	0.0071	-0.0087	0.0086	39.1862	1.0574	7.6444	0.6453	0.1383	0.7405	-0.1266
6.35	-9.6235	-0.0953	-1.3161	0.0065	-0.0122	0.0057	39.0664	1.2706	7.9072	0.6454	0.1383	0.7405	-0.1267
6.36	-9.6286	-0.0983	-1.3069	0.0075	-0.0056	0.0088	39.0403	1.1818	7.8192	0.6453	0.1383	0.7405	-0.1267
6.37	-9.6315	-0.0899	-1.3040	0.0097	-0.0039	0.0110	39.1878	1.1309	7.6121	0.6453	0.1383	0.7406	-0.1267
6.38	-9.6153	-0.0967	-1.3042	0.0064	-0.0103	0.0075	39.0775	1.1569	7.6510	0.6453	0.1383	0.7405	-0.1267
6.39	-9.6222	-0.0971	-1.3050	-0.0025	-0.0045	0.0097	39.0683	0.8716	7.6652	0.6453	0.1383	0.7406	-0.1267
6.4	-9.6174	-0.0949	-1.3151	-0.0073	-0.0102	0.0077	39.0419	1.1763	7.6088	0.6453	0.1382	0.7406	-0.1266
6.41	-9.6277	-0.0971	-1.2988	0.0073	-0.0119	0.0156	39.2394	1.0463	7.7328	0.6453	0.1383	0.7406	-0.1266
6.42	-9.6304	-0.0987	-1.3115	0.0048	-0.0135	0.0110	39.3095	1.0496	7.6237	0.6453	0.1383	0.7406	-0.1266
6.43	-9.6178	-0.0971	-1.3075	-0.0040	-0.0143	0.0078	39.3912	0.9443	7.5418	0.6452	0.1382	0.7405	-0.1266
6.44	-9.6217	-0.1037	-1.3031	0.0004	-0.0111	0.0134	39.3603	0.8701	7.6791	0.6453	0.1382	0.7406	-0.1266
6.45	-9.6274	-0.1060	-1.3099	0.0031	-0.0107	0.0126	39.3290	0.9802	7.5205	0.6453	0.1382	0.7406	-0.1266
6.46	-9.6278	-0.0980	-1.3110	0.0040	-0.0114	0.0096	39.3867	0.9374	7.6093	0.6453	0.1382	0.7406	-0.1266
6.47	-9.6170	-0.1062	-1.3058	0.0050	-0.0105	0.0115	39.0774	0.9534	7.4442	0.6453	0.1382	0.7406	-0.1266
6.48	-9.6215	-0.0959	-1.3032	0.0082	-0.0129	0.0170	39.2292	0.9466	7.5091	0.6453	0.1382	0.7406	-0.1265
6.49	-9.6218	-0.0967	-1.3147	0.0074	-0.0079	0.0117	39.1537	0.9385	7.6251	0.6453	0.1382	0.7406	-0.1266
6.5	-9.6185	-0.0957	-1.3107	0.0019	-0.0068	0.0140	39.2214	1.0192	7.7364	0.6452	0.1382	0.7406	-0.1265
6.51	-9.6177	-0.1007	-1.3116	0.0069	-0.0092	0.0106	39.1113	1.0449	7.8465	0.6453	0.1382	0.7407	-0.1265
6.52	-9.6289	-0.0987	-1.3255	0.0019	-0.0051	0.0126	39.2057	1.1382	7.6462	0.6452	0.1382	0.7406	-0.1265
6.53	-9.6237	-0.0901	-1.3213	0.0039	-0.0058	0.0080	39.1635	1.0840	7.7099	0.6453	0.1382	0.7407	-0.1265
6.54	-9.6285	-0.0855	-1.3306	0.0037	-0.0045	0.0102	39.2143	1.2193	7.7570	0.6452	0.1382	0.7406	-0.1265
6.55	-9.6203	-0.0938	-1.3335	0.0031	-0.0064	0.0126	39.1083	1.1631	7.7014	0.6452	0.1382	0.7407	-0.1265
6.56	-9.6202	-0.0923	-1.3413	0.0003	-0.0053	0.0161	39.0472	1.0878	7.6146	0.6452	0.1382	0.7407	-0.1264
6.57	-9.6252	-0.0894	-1.3397	0.0025	-0.0050	0.0126	39.0714	1.1297	7.7304	0.6451	0.1382	0.7407	-0.1264
6.58	-9.6085	-0.0965	-1.3316	0.0018	-0.0088	0.0084	38.9747	0.9989	7.7435	0.6452	0.1382	0.7408	-0.1264
6.59	-9.6249	-0.1024	-1.3265	0.0002	-0.0127	0.0169	38.9690	1.0476	7.8504	0.6451	0.1382	0.7407	-0.1264
6.6	-9.6292	-0.1005	-1.3174	-0.0008	-0.0151	0.0149	39.0325	0.9691	7.5478	0.6452	0.1382	0.7408	-0.1264
6.61	-9.6261	-0.0919	-1.3138	0.0073	-0.0192	0.0130	39.2193	0.8619	7.6675	0.6452	0.1382	0.7407	-0.1263
6.62	-9.6273	-0.0934	-1.3192	0.0007	-0.0085	0.0116	39.3626	0.7551	7.6418	0.6452	0.1382	0.7407	-0.1263
6.63	-9.6264	-0.0963	-1.3076	0.0058	-0.0126	0.0112	39.3454	1.0065	7.7144	0.6452	0.1381	0.7407	-0.1263
6.64	-9.6264	-0.0907	-1.3147	0.0051	-0.0160	0.0172	39.2843	0.9917	7.7440	0.6452	0.1382	0.7407	-0.1263
6.65	-9.6179	-0.0940	-1.3080	0.0017	-0.0097	0.0088	39.3098	0.8230	7.7638	0.6452	0.1381	0.7407	-0.1263
6.66	-9.6122	-0.0847	-1.3077	0.0073	-0.0127	0.0085	39.1910	1.0375	7.6891	0.6452	0.1381	0.7407	-0.1263
6.67	-9.6288	-0.0907	-1.3072	0.0042	-0.0146	0.0081	39.2496	0.9694	7.6666	0.6453	0.1381	0.7407	-0.1263
6.68	-9.6270	-0.0911	-1.3189	0.0044	-0.0176	0.0132	39.1956	0.9354	7.5389	0.6452	0.1381	0.7406	-0.1263
6.69	-9.6118	-0.0866	-1.3080	0.0022	-0.0121	0.0123	39.3598	1.0526	7.7277	0.6453	0.1381	0.7407	-0.1263
6.7	-9.6220	-0.0900	-1.3135	0.0008	-0.0168	0.0107	39.5005	1.1949	7.8136	0.6453	0.1381	0.7407	-0.1263
6.71	-9.6268	-0.0946	-1.3187	0.0021	-0.0114	0.0037	39.3950	1.4070	7.7083	0.6453	0.1381	0.7407	-0.1263
6.72	-9.6199	-0.0917	-1.3080	0.0040	-0.0178	0.0098	39.2941	1.1798	7.6762	0.6453	0.1380	0.7406	-0.1263
6.73	-9.6298	-0.0923	-1.3080	0.0035	-0.0192	0.0117	39.2347	0.9961	7.8021	0.6453	0.1380	0.7406	-0.1263
6.74	-9.6266	-0.0939	-1.3215	0.0101	-0.0189	0.0118	39.2554	0.9325	7.6838	0.6454	0.1380	0.7406	-0.1263
6.75	-9.6219	-0.0905	-1.3173	0.0029	-0.0184	0.0122	39.1954	1.0460	7.4780	0.6453	0.1380	0.7405	-0.1263
6.76	-9.6171	-0.0823	-1.3092	0.0014	-0.0191	0.0094	39.1723	1.0472	7.6321	0.6454	0.1380	0.7406	-0.1263
6.77	-9.6160	-0.0985	-1.3097	0.0104	-0.0164	0.0117	39.2062	1.0436	7.7368	0.6454	0.1380	0.7405	-0.1263
6.78	-9.6148	-0.0986	-1.3048	0.0074	-0.0192	0.0134	39.1013	1.2898	7.5433	0.6455	0.1380	0.7406	-0.1264
6.79	-9.6170	-0.0902	-1.3132	0.0101	-0.0130	0.0122	39.1881	1.2295	7.3977	0.6454	0.1380	0.7405	-0.1263
6.8	-9.6289	-0.0930	-1.3120	0.0064	-0.0143	0.0148	39.3923	0.8478	7.5647	0.6455	0.1380	0.7405	-0.1264
6.81	-9.6237	-0.0897	-1.3184	0.0039	-0.0187	0.0136	39.3032	0.9848	7.8568	0.6455	0.1380	0.7405	-0.1263
6.82	-9.6156	-0.0906	-1.3168	0.0054	-0.0163	0.0186	39.4187	1.1039	7.7979	0.6455	0.1381	0.7404	-0.1263
6.83	-9.6230	-0.0917	-1.3192	0.0069	-0.0167	0.0137	39.4307	0.8141	7.7812	0.6456	0.1381	0.7405	-0.1263
6.84	-9.6227	-0.0932	-1.3194	0.0088	-0.0073	0.0160	39.2689	0.9646	7.7722	0.6455	0.1381	0.7404	-0.1263
6.85	-9.6181	-0.0923	-1.3217	0.0056	-0.0167	0.0106	39.0772	0.8919	7.5950	0.6456	0.1381	0.7405	-0.1263
6.86	-9.6115	-0.0889	-1.3231	0.0169	-0.0134	0.0106	39.2561	0.8716	7.6173	0.6455	0.1381	0.7404	-0.1264
6.87	-9.6337	-0.0983	-1.3234	0.0146	-0.0164	0.0142	39.3946	1.1904	7.5884	0.6456	0.1382	0.7404	-0.1264
6.88	-9.6284	-0.0954	-1.3139	0.0117	-0.0134	0.0140	39.4036	1.2571	7.6404	0.6456	0.1382	0.7404	-0.1264
6.89	-9.6150	-0.0950	-1.3255	0.0026	-0.0050	0.0107	39.2367	1.0514	7.7430	0.6455	0.1382	0.7404	-0.1264
6.9	-9.6194	-0.0995	-1.3248	0.0032	-0.0141	0.0082	39.3697	0.9745	7.4557	0.6456	0.1382	0.7404	-0.1264
6.91	-9.6217	-0.0883	-1.3351	0.0104	-0.0139	0.0188	39.2054	1.0291	7.6066	0.6455	0.1382	0.7404	-0.1264
6.92	-9.6209	-0.0934	-1.3353	0.0045	-0.0154	0.0149	39.1680	0.9631	7.9235	0.6456	0.1382	0.7404	-0.1264
6.93	-9.6251	-0.0945	-1.3195	0.0060	-0.0095	0.0150	39.1802	1.2306	7.7447	0.6455	0.1382	0.7403	-0.1264
6.94	-9.6301	-0.0912	-1.3263	0.0005	-0.0082	0.0111	39.1757	1.2178	7.6924	0.6456	0.1382	0.7404	-0.1264
6.95	-9.6307	-0.0896	-1.3213	0.0086	-0.0104	0.0103	39.1920	1.1532	7.6552	0.6455	0.1382	0.7404	-0.1264
6.96	-9.6273	-0.0885	-1.3177	0.0106	-0.0146	0.0150	39.1297	0.9034	7.7955	0.6456	0.1382	0.7404	-0.1264
6.97	-9.6238	-0.0904	-1.3073	0.0066	-0.0140	0.0184	38.9822	1.1683	7.6567	0.6456	0.1383	0.7404	-0.1264
6.98	-9.6269	-0.0944	-1.3046	0.0101	-0.0108	0.0151	39.1881	1.0800	7.6145	0.6456	0.1383	0.7404	-0.1264
6.99	-9.6291	-0.0935	-1.3098	0.0132	-0.0179	0.0104	39.2903	0.8543	7.7058	0.6456	0.1383	0.7404	-0.1264
7	-9.6416	-0.0872	-1.3157	0.0067	-0.0137	0.0166	39.2443	0.9701	7.4439	0.6455	0.1383	0.7403	-0.1264
7.01	-9.6290	-0.0870	-1.3104	0.0106	-0.0063	0.0095	39.3705	0.9582	7.8042	0.6456	0.1384	0.7404	-0.1264
7.02	-9.6254	-0.0907	-1.3124	0.0115	-0.0106	0.0136	39.3082	1.1266	7.6785	0.6456	0.1384	0.7403	-0.1264
7.03	-9.6316	-0.0927	-1.3095	0.0131	-0.0128	0.0146	39.1897	1.0700	7.5735	0.6456	0.1384	0.7404	-0.1265
7.04	-9.6285	-0.0985	-1.3113	0.0045	-0.0111	0.0138	39.1764	1.0240	7.6855	0.6455	0.1384	0.7403	-0.1264
7.05	-9.6175	-0.0963	-1.3083	0.0071	-0.0073	0.0142	39.1826	1.0667	7.6199	0.6456	0.1384	0.7404	-0.1264
7.06	-9.6235	-0.0961	-1.3167	0.0153	-0.0144	0.0123	39.1990	1.1703	7.6738	0.6456	0.1385	0.7403	-0.1265
7.07	-9.6291	-0.0916	-1.3195	0.0104	-0.0062	0.0148	39.3928	1.0223	7.4993	0.6455	0.1385	0.7403	-0.1265
7.08	-9.6187	-0.0962	-1.3172	0.0060	-0.0154	0.0091	39.1148	1.1701	7.5942	0.6456	0.1385	0.7404	-0.1265
7.09	-9.6222	-0.1010	-1.3148	0.0024	-0.0103	0.0128	39.1576	1.0461	7.8009	0.6455	0.1385	0.7403	-0.1265
7.1	-9.6201	-0.0980	-1.3094	0.0024	-0.0112	0.0147	39.3157	0.9195	7.8370	0.6456	0.1385	0.7404	-0.1265
7.11	-9.6280	-0.1018	-1.3191	0.0145	-0.0148	0.0129	39.1412	1.0635	7.7512	0.6455	0.1385	0.7403	-0.1265
7.12	-9.6274	-0.1016	-1.3189	0.0100	-0.0143	0.0116	39.3109	0.9367	7.6800	0.6456	0.1385	0.7403	-0.1265
7.13	-9.6274	-0.0965	-1.3200	0.0059	-0.0113	0.0166	39.2002	0.9898	7.5606	0.6456	0.1385	0.7403	-0.1265
7.14	-9.6229	-0.0904	-1.3240	0.0081	-0.0093	0.0091	39.1760	1.1609	7.6776	0.6455	0.1386	0.7403	-0.1265
7.15	-9.6312	-0.0869	-1.3229	0.0067	-0.0117	0.0108	39.1748	0.9931	7.8805	0.6456	0.1386	0.7403	-0.1265
7.16	-9.6316	-0.0944	-1.3203	0.0101	-0.0098	0.0145	39.1870	1.0106	7.8729	0.6455	0.1386	0.7403	-0.1265
7.17	-9.6305	-0.0977	-1.3344	0.0149	-0.0076	0.0151	39.3415	1.1863	7.8191	0.6455	0.1386	0.7404	-0.1265
7.18	-9.6342	-0.0983	-1.3410	0.0131	-0.0155	0.0161	39.3289	1.0348	7.6794	0.6455	0.1387	0.7403	-0.1265
7.19	-9.6278	-0.0956	-1.3312	0.0102	-0.0179	0.0111	39.4542	0.9415	7.5981	0.6456	0.1387	0.7403	-0.1266
7.2	-9.6294	-0.1034	-1.3268	0.0069	-0.0204	0.0121	39.6928	1.0374	7.7884	0.6456	0.1387	0.7403	-0.1266
7.21	-9.6359	-0.0976	-1.3219	0.0110	-0.0128	0.0134	40.0385	1.2738	7.7296	0.6456	0.1387	0.7403	-0.1266
7.22	-9.6388	-0.0972	-1.3245	0.0093	-0.0127	0.0068	39.7065	1.0885	7.6508	0.6456	0.1387	0.7402	-0.1266
7.23	-9.6308	-0.0877	-1.3195	0.0040	-0.0155	0.0066	39.4728	1.0278	7.7554	0.6456	0.1387	0.7402	-0.1266
7.24	-9.6268	-0.0876	-1.3108	0.0028	-0.0140	0.0052	39.1614	0.9927	7.8262	0.6456	0.1386	0.7403	-0.1266
7.25	-9.6261	-0.0954	-1.3144	0.0004	-0.0138	0.0117	39.1588	0.8188	7.4826	0.6455	0.1386	0.7402	-0.1266
7.26	-9.6192	-0.0836	-1.3172	0.0011	-0.0185	0.0087	39.1499	1.0899	7.9298	0.6457	0.1386	0.7403	-0.1266
7.27	-9.6268	-0.0882	-1.3182	0.0005	-0.0056	0.0098	39.1909	1.3613	7.7662	0.6456	0.1386	0.7402	-0.1266
7.28	-9.6271	-0.0841	-1.3119	0.0060	-0.0111	0.0063	39.2375	1.1180	7.5563	0.6456	0.1386	0.7403	-0.1266
7.29	-9.6290	-0.0884	-1.3122	0.0048	-0.0150	0.0061	38.9360	1.0258	7.7711	0.6456	0.1385	0.7402	-0.1266
7.3	-9.6283	-0.0919	-1.3145	0.0028	-0.0038	0.0037	39.1613	0.9950	7.7915	0.6456	0.1385	0.7403	-0.1267
7.31	-9.6256	-0.0839	-1.3090	0.0060	-0.0084	0.0061	39.0927	1.1165	7.6807	0.6456	0.1385	0.7403	-0.1267
7.32	-9.6237	-0.0965	-1.3142	0.0014	-0.0066	0.0064	39.1323	1.2961	7.8166	0.6455	0.1385	0.7403	-0.1267
7.33	-9.6299	-0.0932	-1.3131	-0.0005	-0.0092	0.0084	39.1750	1.1837	7.7008	0.6456	0.1384	0.7404	-0.1267
7.34	-9.6239	-0.0929	-1.3091	0.0010	-0.0167	0.0102	39.0251	0.8934	7.7414	0.6455	0.1384	0.7403	-0.1267
7.35	-9.6256	-0.0940	-1.3123	0.0020	-0.0198	0.0140	39.3911	0.9097	7.7021	0.6456	0.1384	0.7403	-0.1266
7.36	-9.6341	-0.0900	-1.3117	0.0099	-0.0192	0.0147	39.3971	0.9723	7.8567	0.6455	0.1384	0.7402	-0.1266
7.37	-9.6263	-0.0842	-1.3127	0.0066	-0.0152	0.0119	39.3125	0.8280	7.5403	0.6456	0.1384	0.7403	-0.1267
7.38	-9.6172	-0.0936	-1.3141	0.0011	-0.0120	0.0080	39.3137	0.9027	7.4914	0.6456	0.1384	0.7403	-0.1267
7.39	-9.6269	-0.0942	-1.3156	0.0066	-0.0111	0.0092	39.4013	1.0519	7.5888	0.6456	0.1384	0.7403	-0.1267
7.4	-9.6264	-0.0821	-1.3189	0.0101	-0.0053	0.0102	39.3209	0.9164	7.5275	0.6456	0.1384	0.7403	-0.1267
7.41	-9.6147	-0.0940	-1.3237	0.0082	-0.0083	0.0063	39.1996	0.9954	7.7148	0.6455	0.1384	0.7403	-0.1267
7.42	-9.6223	-0.0922	-1.3181	0.0014	-0.0102	0.0086	39.1121	0.9894	7.7158	0.6456	0.1384	0.7403	-0.1267
7.43	-9.6274	-0.0947	-1.3222	0.0007	-0.0170	0.0159	39.3396	0.9070	7.7498	0.6455	0.1384	0.7402	-0.1267
7.44	-9.6192	-0.0954	-1.3223	0.0049	-0.0155	0.0111	39.2901	1.0871	7.6897	0.6456	0.1384	0.7403	-0.1267
7.45	-9.6244	-0.0979	-1.3119	0.0002	-0.0123	0.0122	38.9540	1.0840	7.6435	0.6456	0.1383	0.7403	-0.1267
7.46	-9.6320	-0.0932	-1.3138	0.0038	-0.0056	0.0090	39.0743	0.9230	7.8213	0.6456	0.1383	0.7403	-0.1267
7.47	-9.6190	-0.0879	-1.3241	0.0113	-0.0106	0.0074	39.1554	1.0348	7.8175	0.6455	0.1383	0.7403	-0.1267
7.48	-9.6249	-0.0961	-1.3261	0.0004	-0.0056	0.0101	39.1628	1.0250	7.7852	0.6455	0.1383	0.7403	-0.1267
7.49	-9.6104	-0.0993	-1.3249	0.0040	-0.0110	0.0049	38.9635	1.0135	7.6928	0.6455	0.1383	0.7404	-0.1267
7.5	-9.6241	-0.1078	-1.3293	0.0016	-0.0126	0.0063	39.1516	1.0862	7.7407	0.6455	0.1383	0.7403	-0.1267
7.51	-9.6189	-0.1068	-1.3277	0.0077	-0.0074	0.0034	39.3396	1.2411	7.7030	0.6455	0.1383	0.7404	-0.1267
7.52	-9.6219	-0.0991	-1.3271	0.0065	-0.0081	0.0120	39.0599	1.1107	7.7517	0.6455	0.1382	0.7404	-0.1267
7.53	-9.6282	-0.0946	-1.3229	-0.0011	-0.0075	0.0127	39.0875	0.9280	7.8971	0.6455	0.1382	0.7405	-0.1267
7.54	-9.6276	-0.0855	-1.3105	0.0059	-0.0136	0.0135	39.0588	0.9455	7.9076	0.6454	0.1382	0.7404	-0.1267
7.55	-9.6269	-0.0914	-1.3140	0.0039	-0.0173	0.0157	39.1981	0.8324	7.8865	0.6455	0.1383	0.7404	-0.1267
7.56	-9.6163	-0.0890	-1.3046	0.0025	-0.0117	0.0147	39.5964	0.9080	7.7845	0.6455	0.1383	0.7404	-0.1267
7.57	-9.6153	-0.0810	-1.3053	0.0072	-0.0078	0.0104	39.3916	1.0495	7.8639	0.6454	0.1382	0.7404	-0.1267
7.58	-9.6293	-0.0842	-1.3140	0.0106	-0.0110	0.0129	39.3332	1.0058	7.6538	0.6455	0.1383	0.7405	-0.1267
7.59	-9.6192	-0.0921	-1.3065	0.0061	-0.0095	0.0135	39.2576	0.9464	7.8573	0.6454	0.1383	0.7404	-0.1267
7.6	-9.6177	-0.0868	-1.2996	0.0067	-0.0080	0.0147	39.2940	1.1224	7.8168	0.6455	0.1383	0.7405	-0.1267
7.61	-9.6193	-0.0765	-1.3070	0.0114	-0.0083	0.0101	39.3155	1.0465	7.5057	0.6454	0.1383	0.7404	-0.1267
7.62	-9.6185	-0.0860	-1.2908	0.0060	-0.0129	0.0108	39.3594	0.8806	7.7913	0.6454	0.1383	0.7405	-0.1267
7.63	-9.6335	-0.0875	-1.3064	0.0051	-0.0130	0.0130	39.3434	0.9283	7.7025	0.6454	0.1383	0.7404	-0.1267
7.64	-9.6127	-0.0874	-1.3011	0.0021	-0.0074	0.0105	39.1243	1.1521	7.7362	0.6454	0.1383	0.7404	-0.1267
7.65	-9.6189	-0.0922	-1.3121	0.0071	-0.0076	0.0103	39.1707	0.9856	7.7146	0.6454	0.1383	0.7405	-0.1267
7.66	-9.6267	-0.0886	-1.3217	0.0019	-0.0138	0.0063	39.0435	1.1872	7.7211	0.6454	0.1383	0.7405	-0.1267
7.67	-9.6311	-0.0962	-1.3077	0.0044	-0.0093	0.0087	39.1050	0.9293	7.5151	0.6454	0.1383	0.7405	-0.1267
7.68	-9.6198	-0.0910	-1.3090	-0.0003	-0.0070	0.0050	39.0615	0.7220	7.7267	0.6453	0.1382	0.7405	-0.1267
7.69	-9.6296	-0.0915	-1.3244	0.0042	-0.0067	0.0053	39.0845	1.1203	7.9385	0.6453	0.1382	0.7406	-0.1267
7.7	-9.6299	-0.0968	-1.3162	0.0042	-0.0039	0.0095	39.5030	1.2298	7.8714	0.6453	0.1382	0.7406	-0.1267
7.71	-9.6213	-0.0983	-1.3269	0.0003	-0.0116	0.0094	39.5808	1.3846	7.9340	0.6453	0.1382	0.7406	-0.1267
7.72	-9.6273	-0.1014	-1.3279	0.0106	-0.0125	0.0160	39.4562	1.2785	7.7374	0.6453	0.1382	0.7406	-0.1267
7.73	-9.6255	-0.1123	-1.3172	0.0164	-0.0140	0.0152	39.3342	1.1153	7.8162	0.6453	0.1383	0.7406	-0.1267
7.74	-9.6240	-0.1037	-1.3226	0.0144	-0.0068	0.0143	39.2981	1.1051	7.6987	0.6453	0.1383	0.7406	-0.1268
7.75	-9.6255	-0.0962	-1.3234	0.0177	-0.0094	0.0136	39.2229	0.8667	7.4933	0.6452	0.1383	0.7405	-0.1268
7.76	-9.6193	-0.1031	-1.3219	0.0177	-0.0146	0.0164	39.3573	0.7767	7.6825	0.6453	0.1384	0.7406	-0.1268
7.77	-9.6173	-0.0921	-1.3184	0.0184	-0.0079	0.0145	39.3604	0.9722	7.7157	0.6452	0.1385	0.7405	-0.1269
7.78	-9.6332	-0.0907	-1.3315	0.0134	-0.0079	0.0128	39.2971	1.1205	7.7154	0.6452	0.1385	0.7406	-0.1269
7.79	-9.6258	-0.0935	-1.3323	0.0115	-0.0073	0.0138	39.2386	1.2156	7.6884	0.6451	0.1385	0.7405	-0.1269
7.8	-9.6258	-0.0914	-1.3377	0.0165	-0.0102	0.0085	39.1048	1.0820	7.7341	0.6452	0.1385	0.7406	-0.1270
7.81	-9.6272	-0.0850	-1.3296	0.0014	-0.0101	0.0119	39.2071	1.0000	7.8232	0.6452	0.1385	0.7406	-0.1270
7.82	-9.6206	-0.0854	-1.3201	0.0075	-0.0086	0.0160	39.2445	0.8506	7.7363	0.6451	0.1385	0.7406	-0.1269
7.83	-9.6251	-0.0945	-1.3162	0.0222	-0.0079	0.0128	39.1296	0.9951	7.5707	0.6452	0.1386	0.7407	-0.1270
7.84	-9.6199	-0.0918	-1.3214	0.0104	-0.0101	0.0112	39.1745	1.0240	7.7112	0.6451	0.1386	0.7406	-0.1270
7.85	-9.6202	-0.0876	-1.3221	0.0092	-0.0131	0.0080	39.0788	0.9097	7.8287	0.6451	0.1386	0.7407	-0.1270
7.86	-9.6079	-0.0911	-1.2978	0.0091	-0.0114	0.0111	39.0538	1.0667	7.7751	0.6450	0.1386	0.7406	-0.1270
7.87	-9.6217	-0.0968	-1.3141	0.0070	-0.0093	0.0089	39.1685	0.9076	7.9117	0.6451	0.1386	0.7406	-0.1271
7.88	-9.6315	-0.0991	-1.3121	0.0102	-0.0072	0.0161	39.1355	1.0260	7.5288	0.6450	0.1387	0.7406	-0.1271
7.89	-9.6258	-0.0946	-1.3121	0.0090	-0.0129	0.0162	39.1812	1.0364	7.5889	0.6450	0.1387	0.7406	-0.1271
7.9	-9.6280	-0.0966	-1.3094	0.0039	-0.0133	0.0176	38.9454	1.0517	7.8257	0.6451	0.1387	0.7406	-0.1271
7.91	-9.6329	-0.0974	-1.3068	0.0127	-0.0113	0.0231	39.0308	0.9853	7.7673	0.6450	0.1388	0.7406	-0.1270
7.92	-9.6346	-0.0899	-1.3091	0.0095	-0.0142	0.0136	39.2880	0.7979	7.6364	0.6451	0.1388	0.7406	-0.1270
7.93	-9.6296	-0.0928	-1.3062	0.0142	-0.0117	0.0167	39.4044	1.0842	7.6148	0.6450	0.1388	0.7405	-0.1270
7.94	-9.6290	-0.0900	-1.3157	0.0173	-0.0094	0.0151	39.2773	1.0074	7.7342	0.6451	0.1389	0.7406	-0.1271
7.95	-9.6244	-0.0849	-1.3077	0.0120	-0.0048	0.0128	39.3545	0.9534	7.6988	0.6450	0.1389	0.7406	-0.1271
7.96	-9.6210	-0.0888	-1.3207	0.0082	-0.0114	0.0151	39.4226	0.9576	7.7363	0.6450	0.1390	0.7406	-0.1271
7.97	-9.6230	-0.0876	-1.3236	0.0036	-0.0114	0.0069	39.2150	0.9723	7.6063	0.6450	0.1389	0.7406	-0.1271
7.98	-9.6261	-0.0957	-1.3126	0.0105	-0.0059	0.0104	38.9971	1.0336	7.5065	0.6450	0.1390	0.7406	-0.1271
7.99	-9.6300	-0.0894	-1.3173	0.0141	-0.0056	0.0154	39.0531	0.9053	7.5689	0.6449	0.1390	0.7407	-0.1272
8	-9.6169	-0.0876	-1.3176	0.0079	-0.0171	0.0125	39.3575	1.0687	7.7974	0.6449	0.1390	0.7406	-0.1272
8.01	-9.6105	-0.0968	-1.3196	0.0101	-0.0133	0.0154	39.1589	0.9222	7.9059	0.6450	0.1390	0.7407	-0.1272
8.02	-9.6256	-0.0908	-1.3151	0.0072	-0.0049	0.0136	39.1872	0.9999	8.0178	0.6449	0.1391	0.7406	-0.1272
8.03	-9.6261	-0.0896	-1.3232	0.0076	-0.0080	0.0118	39.2172	1.0713	7.8397	0.6450	0.1391	0.7407	-0.1272
8.04	-9.6150	-0.0939	-1.3156	0.0068	-0.0059	0.0064	39.3318	0.9371	7.6738	0.6448	0.1391	0.7407	-0.1272
8.05	-9.6292	-0.0894	-1.3133	0.0167	-0.0129	0.0102	39.3589	0.9861	7.8733	0.6449	0.1391	0.7407	-0.1272
8.06	-9.6174	-0.0893	-1.3132	0.0126	-0.0078	0.0101	39.1600	1.0735	7.8470	0.6448	0.1391	0.7407	-0.1273
8.07	-9.6241	-0.0868	-1.3145	0.0051	-0.0093	0.0077	39.3240	0.9563	7.7094	0.6448	0.1391	0.7407	-0.1273
8.08	-9.6263	-0.0819	-1.3281	0.0064	-0.0067	0.0096	39.3158	0.9594	7.6121	0.6449	0.1391	0.7408	-0.1273
8.09	-9.6284	-0.0931	-1.3122	0.0135	-0.0150	0.0134	39.1626	0.9652	7.6386	0.6448	0.1391	0.7407	-0.1273
8.1	-9.6342	-0.0913	-1.3120	0.0105	-0.0147	0.0127	39.1942	1.1474	7.5582	0.6448	0.1392	0.7408	-0.1273
8.11	-9.6242	-0.0903	-1.3164	0.0119	-0.0144	0.0147	39.3310	1.0276	7.5080	0.6448	0.1392	0.7406	-0.1273
8.12	-9.6227	-0.0925	-1.3156	0.0156	-0.0122	0.0092	39.2072	0.9611	7.5753	0.6448	0.1392	0.7407	-0.1274
8.13	-9.6285	-0.0968	-1.3240	0.0100	-0.0122	0.0086	39.2447	1.0799	7.6123	0.6448	0.1392	0.7407	-0.1274
8.14	-9.6288	-0.0983	-1.3159	0.0052	-0.0119	0.0086	39.2203	0.9648	7.4109	0.6448	0.1392	0.7407	-0.1274
8.15	-9.6200	-0.1051	-1.3203	0.0103	-0.0119	0.0099	39.3308	0.9405	7.5793	0.6448	0.1392	0.7407	-0.1274
8.16	-9.6257	-0.0953	-1.3195	0.0099	-0.0146	0.0101	39.3007	1.0065	7.4825	0.6448	0.1392	0.7407	-0.1275
8.17	-9.6280	-0.0955	-1.3304	0.0065	-0.0125	0.0119	39.1466	1.0334	7.4627	0.6448	0.1392	0.7407	-0.1275
8.18	-9.6281	-0.0981	-1.3226	0.0055	-0.0125	0.0104	39.2171	1.1356	7.7276	0.6447	0.1392	0.7406	-0.1275
8.19	-9.6273	-0.0937	-1.3234	0.0091	-0.0137	0.0118	39.3345	0.9979	7.7058	0.6448	0.1392	0.7407	-0.1275
8.2	-9.6216	-0.0933	-1.3198	0.0063	-0.0045	0.0099	39.5808	1.1438	7.8770	0.6448	0.1392	0.7407	-0.1275
8.21	-9.6212	-0.0896	-1.3213	0.0041	-0.0047	0.0100	39.6565	1.2462	7.8885	0.6448	0.1392	0.7407	-0.1275
8.22	-9.6196	-0.0967	-1.3272	0.0081	-0.0062	0.0046	39.4689	1.1990	7.8771	0.6447	0.1392	0.7407	-0.1275
8.23	-9.6167	-0.0911	-1.3182	0.0043	-0.0051	0.0079	39.2301	1.3200	7.5947	0.6447	0.1392	0.7408	-0.1275
8.24	-9.6240	-0.0923	-1.2978	0.0043	-0.0125	0.0115	39.1192	1.1616	7.7435	0.6447	0.1392	0.7408	-0.1275
8.25	-9.6261	-0.0953	-1.3083	0.0089	-0.0141	0.0115	39.2027	1.1652	7.8413	0.6446	0.1392	0.7407	-0.1275
8.26	-9.6189	-0.0805	-1.3140	0.0058	-0.0043	0.0102	39.0742	1.2596	7.6636	0.6447	0.1392	0.7408	-0.1275
8.27	-9.6238	-0.0789	-1.3079	0.0036	-0.0084	0.0034	39.1206	1.2441	7.6114	0.6446	0.1392	0.7408	-0.1275
8.28	-9.6207	-0.0859	-1.3091	0.0037	-0.0205	0.0127	39.0774	1.0138	7.6468	0.6447	0.1392	0.7408	-0.1276
8.29	-9.6290	-0.0906	-1.3003	0.0052	-0.0139	0.0117	39.1979	0.9273	7.5352	0.6446	0.1392	0.7407	-0.1275
8.3	-9.6270	-0.0941	-1.3001	0.0045	-0.0140	0.0104	39.4890	0.8914	7.5637	0.6447	0.1392	0.7408	-0.1276
8.31	-9.6335	-0.0879	-1.3099	-0.0015	-0.0170	0.0116	39.3551	0.8671	7.7182	0.6447	0.1391	0.7408	-0.1275
8.32	-9.6400	-0.0960	-1.3083	0.0050	-0.0118	0.0116	39.3226	0.9659	7.7264	0.6447	0.1391	0.7407	-0.1275
8.33	-9.6356	-0.0974	-1.3237	0.0083	-0.0162	0.0132	39.3675	0.7983	7.7282	0.6448	0.1392	0.7408	-0.1275
8.34	-9.6264	-0.0983	-1.3193	0.0052	-0.0117	0.0104	39.2915	0.8916	7.7245	0.6447	0.1391	0.7407	-0.1275
8.35	-9.6134	-0.0943	-1.3176	0.0144	-0.0119	0.0124	39.2672	0.9371	7.7249	0.6448	0.1392	0.7408	-0.1276
8.36	-9.6163	-0.0956	-1.3236	0.0137	-0.0126	0.0134	39.1681	0.9033	7.7173	0.6447	0.1392	0.7407	-0.1276
8.37	-9.6315	-0.0929	-1.3154	0.0026	-0.0134	0.0151	39.2023	1.0472	7.7257	0.6447	0.1392	0.7407	-0.1276
8.38	-9.6316	-0.1031	-1.3274	0.0089	-0.0151	0.0126	39.4285	1.1095	7.5323	0.6447	0.1392	0.7407	-0.1276
8.39	-9.6294	-0.1058	-1.3282	0.0047	-0.0186	0.0097	39.1655	1.0252	7.6290	0.6447	0.1392	0.7407	-0.1276
8.4	-9.6146	-0.1059	-1.3336	-0.0010	-0.0149	0.0074	39.1946	0.9690	7.6223	0.6448	0.1392	0.7407	-0.1276
8.41	-9.6158	-0.0961	-1.3203	0.0003	-0.0142	0.0076	39.2793	0.9492	7.6720	0.6448	0.1392	0.7407	-0.1276
8.42	-9.6336	-0.0911	-1.3320	0.0032	-0.0194	0.0118	39.2517	1.0207	7.7354	0.6448	0.1391	0.7407	-0.1276
8.43	-9.6185	-0.0870	-1.3289	0.0109	-0.0180	0.0049	39.2669	1.0032	7.7222	0.6448	0.1391	0.7406	-0.1276
8.44	-9.6326	-0.0965	-1.3303	0.0017	-0.0084	0.0019	39.1548	1.0849	7.6960	0.6448	0.1391	0.7407	-0.1276
8.45	-9.6305	-0.0999	-1.3301	0.0032	-0.0091	0.0081	39.0665	1.1308	7.6198	0.6448	0.1391	0.7407	-0.1276
8.46	-9.6240	-0.0965	-1.3195	0.0085	-0.0084	0.0106	39.1732	1.1415	7.8488	0.6448	0.1391	0.7407	-0.1276
8.47	-9.6278	-0.0965	-1.3177	0.0035	-0.0221	0.0125	39.2504	0.8882	7.6003	0.6448	0.1391	0.7406	-0.1276
8.48	-9.6141	-0.0976	-1.3121	0.0013	-0.0174	0.0061	39.4242	0.7058	7.6763	0.6448	0.1390	0.7406	-0.1276
8.49	-9.6296	-0.0974	-1.3090	0.0061	-0.0188	0.0147	39.5096	0.8734	7.7652	0.6449	0.1390	0.7406	-0.1276
8.5	-9.6181	-0.0947	-1.3135	-0.0014	-0.0172	0.0067	39.2237	1.0198	7.6797	0.6448	0.1390	0.7406	-0.1276
8.51	-9.6273	-0.0899	-1.3075	0.0049	-0.0115	0.0113	39.3727	1.0078	7.7832	0.6449	0.1390	0.7407	-0.1276
8.52	-9.6234	-0.0899	-1.3087	0.0026	-0.0135	0.0106	39.3087	0.9867	7.5963	0.6449	0.1390	0.7406	-0.1276
8.53	-9.6103	-0.0927	-1.3014	0.0008	-0.0090	0.0112	39.1983	0.8344	7.6035	0.6449	0.1390	0.7407	-0.1276
8.54	-9.6168	-0.0919	-1.3006	0.0058	-0.0093	0.0115	39.0925	0.8397	7.6460	0.6448	0.1390	0.7406	-0.1276
8.55	-9.6306	-0.0975	-1.3057	0.0057	-0.0108	0.0089	39.2141	0.7276	7.4258	0.6449	0.1390	0.7406	-0.1276
8.56	-9.6303	-0.0916	-1.3036	0.0080	-0.0137	0.0136	39.1669	0.7999	7.6413	0.6449	0.1390	0.7406	-0.1276
8.57	-9.6236	-0.0883	-1.3102	0.0082	-0.0061	0.0112	39.2015	0.9226	7.6920	0.6448	0.1390	0.7406	-0.1276
8.58	-9.6254	-0.0875	-1.3071	0.0024	-0.0100	0.0064	39.0639	1.0062	7.8424	0.6449	0.1390	0.7407	-0.1276
8.59	-9.6259	-0.0839	-1.2999	-0.0029	-0.0140	0.0076	39.0211	1.1407	7.7572	0.6449	0.1389	0.7406	-0.1276
8.6	-9.6170	-0.0842	-1.3095	0.0039	-0.0076	0.0091	39.1912	1.1725	7.6545	0.6449	0.1389	0.7407	-0.1276
8.61	-9.6208	-0.0782	-1.3071	0.0024	-0.0125	0.0076	39.1713	1.1789	7.5133	0.6448	0.1389	0.7406	-0.1276
8.62	-9.6170	-0.0836	-1.3194	0.0087	-0.0126	0.0156	39.2935	1.0419	7.6867	0.6449	0.1389	0.7407	-0.1276
8.63	-9.6185	-0.0872	-1.3150	0.0037	-0.0035	0.0052	39.2190	1.0157	7.8798	0.6448	0.1389	0.7407	-0.1276
8.64	-9.6262	-0.0777	-1.3099	0.0061	-0.0136	0.0064	39.3544	1.2015	7.6355	0.6448	0.1389	0.7407	-0.1276
8.65	-9.6267	-0.0866	-1.3161	0.0042	-0.0182	0.0121	39.3229	1.0672	7.5294	0.6449	0.1389	0.7407	-0.1276
8.66	-9.6279	-0.0859	-1.3150	0.0110	-0.0167	0.0134	39.2750	0.9791	7.6871	0.6449	0.1389	0.7406	-0.1277
8.67	-9.6216	-0.0949	-1.3146	0.0066	-0.0093	0.0073	39.3743	0.8485	7.5484	0.6449	0.1389	0.7407	-0.1277
8.68	-9.6207	-0.0957	-1.3176	0.0043	-0.0105	0.0131	39.3276	0.8412	7.6270	0.6448	0.1389	0.7406	-0.1277
8.69	-9.6297	-0.0957	-1.3239	0.0013	-0.0131	0.0150	39.3431	0.8367	7.7608	0.6449	0.1389	0.7407	-0.1276
8.7	-9.6307	-0.1010	-1.3250	0.0021	-0.0164	0.0157	39.6532	1.0242	7.8489	0.6449	0.1389	0.7406	-0.1276
8.71	-9.6328	-0.0950	-1.3192	0.0068	-0.0202	0.0168	39.8076	1.1960	7.7334	0.6449	0.1389	0.7406	-0.1276
8.72	-9.6322	-0.0917	-1.3165	0.0110	-0.0206	0.0136	39.4809	1.1751	7.6794	0.6449	0.1389	0.7406	-0.1276
8.73	-9.6274	-0.0968	-1.3128	0.0132	-0.0192	0.0114	39.2509	1.1960	7.6593	0.6450	0.1389	0.7405	-0.1277
8.74	-9.6100	-0.1005	-1.3147	0.0046	-0.0188	0.0125	38.9933	1.0135	7.7743	0.6450	0.1389	0.7405	-0.1277
8.75	-9.6280	-0.0974	-1.3108	0.0064	-0.0155	0.0205	39.2561	1.0636	7.7245	0.6450	0.1390	0.7404	-0.1276
8.76	-9.6304	-0.0965	-1.3199	0.0057	-0.0163	0.0122	39.2337	0.9984	7.4697	0.6451	0.1390	0.7405	-0.1276
8.77	-9.6276	-0.0845	-1.3232	0.0073	-0.0186	0.0082	39.1322	0.9894	7.7293	0.6451	0.1390	0.7404	-0.1277
8.78	-9.6197	-0.0886	-1.3179	0.0023	-0.0205	0.0102	39.1691	1.0458	7.8302	0.6452	0.1390	0.7405	-0.1277
8.79	-9.6245	-0.0822	-1.3151	0.0056	-0.0172	0.0197	39.1502	1.0518	7.5808	0.6451	0.1390	0.7404	-0.1276
8.8	-9.6279	-0.0727	-1.3165	0.0127	-0.0181	0.0116	39.1648	1.0977	7.6230	0.6452	0.1390	0.7404	-0.1277
8.81	-9.6234	-0.0867	-1.3054	0.0065	-0.0113	0.0058	39.1520	0.7133	7.7803	0.6452	0.1390	0.7404	-0.1277
8.82	-9.6292	-0.0938	-1.3176	0.0047	-0.0130	0.0135	39.1574	0.9541	7.7930	0.6451	0.1390	0.7403	-0.1277
8.83	-9.6279	-0.0937	-1.3241	0.0139	-0.0154	0.0127	39.1516	1.1471	7.7776	0.6452	0.1390	0.7404	-0.1277
8.84	-9.6301	-0.0928	-1.3209	0.0037	-0.0114	0.0121	39.1672	1.0961	7.6406	0.6452	0.1390	0.7403	-0.1277
8.85	-9.6191	-0.0959	-1.3161	0.0088	-0.0151	0.0147	39.1432	0.9576	7.5848	0.6452	0.1390	0.7404	-0.1277
8.86	-9.6249	-0.0976	-1.3120	0.0100	-0.0155	0.0182	39.2486	0.9450	7.7073	0.6452	0.1391	0.7403	-0.1277
8.87	-9.6318	-0.0935	-1.3181	0.0121	-0.0151	0.0148	39.2165	1.1823	7.8034	0.6452	0.1391	0.7403	-0.1277
8.88	-9.6316	-0.0861	-1.3246	0.0006	-0.0142	0.0141	39.2865	1.1988	7.5876	0.6452	0.1391	0.7403	-0.1277
8.89	-9.6233	-0.0857	-1.3250	0.0041	-0.0195	0.0131	39.3403	0.9618	7.6956	0.6452	0.1391	0.7402	-0.1277
8.9	-9.6155	-0.0848	-1.3212	0.0033	-0.0153	0.0149	39.2196	0.8604	7.7873	0.6453	0.1391	0.7403	-0.1277
8.91	-9.6226	-0.0799	-1.3132	0.0035	-0.0190	0.0154	39.2338	1.1306	7.8217	0.6453	0.1391	0.7402	-0.1277
8.92	-9.6219	-0.0912	-1.3156	0.0106	-0.0096	0.0120	39.0532	1.0677	7.8572	0.6453	0.1391	0.7402	-0.1277
8.93	-9.6213	-0.0933	-1.3152	0.0022	-0.0129	0.0149	39.1648	1.0006	7.5902	0.6453	0.1391	0.7402	-0.1276
8.94	-9.6248	-0.0975	-1.3092	0.0058	-0.0159	0.0144	39.1544	1.1898	7.4958	0.6454	0.1391	0.7402	-0.1276
8.95	-9.6208	-0.0987	-1.3092	0.0010	-0.0118	0.0099	39.3272	1.1469	7.7263	0.6453	0.1391	0.7402	-0.1276
8.96	-9.6353	-0.0901	-1.3082	0.0035	-0.0140	0.0095	39.2107	0.9165	7.8261	0.6454	0.1391	0.7402	-0.1276
8.97	-9.6198	-0.0846	-1.2966	0.0077	-0.0134	0.0103	38.9405	1.0554	7.6606	0.6453	0.1391	0.7402	-0.1276
8.98	-9.6266	-0.0835	-1.3056	0.0075	-0.0157	0.0126	39.2769	1.1455	7.8439	0.6454	0.1391	0.7402	-0.1276
8.99	-9.6275	-0.0925	-1.3136	0.0014	-0.0133	0.0136	39.2923	1.0742	7.6727	0.6454	0.1391	0.7402	-0.1276
9	-9.6150	-0.0883	-1.3045	0.0057	-0.0184	0.0127	39.1472	0.9962	7.4876	0.6454	0.1391	0.7401	-0.1276
9.01	-9.6288	-0.0885	-1.3169	0.0076	-0.0153	0.0085	39.0746	1.2792	7.6426	0.6455	0.1391	0.7402	-0.1276
9.02	-9.6291	-0.0986	-1.3053	0.0044	-0.0122	0.0123	39.0652	0.9409	7.7060	0.6454	0.1391	0.7401	-0.1276
9.03	-9.6227	-0.0969	-1.3060	0.0067	-0.0150	0.0146	38.9138	0.8856	7.6950	0.6455	0.1391	0.7402	-0.1276
9.04	-9.6339	-0.0891	-1.3070	0.0098	-0.0155	0.0168	39.3830	1.0825	7.6953	0.6454	0.1392	0.7400	-0.1276
9.05	-9.6348	-0.0926	-1.3158	0.0056	-0.0148	0.0120	39.3492	1.0163	7.7122	0.6455	0.1392	0.7401	-0.1276
9.06	-9.6319	-0.0929	-1.3151	0.0030	-0.0172	0.0105	39.2020	1.0626	7.6602	0.6455	0.1392	0.7401	-0.1276
9.07	-9.6196	-0.0925	-1.3157	0.0049	-0.0129	0.0140	39.2523	1.0127	7.5038	0.6455	0.1392	0.7400	-0.1276
9.08	-9.6157	-0.0925	-1.3183	0.0022	-0.0161	0.0163	39.2458	1.0812	7.6307	0.6456	0.1392	0.7401	-0.1276
9.09	-9.6214	-0.0930	-1.3329	0.0104	-0.0066	0.0157	39.4634	0.9667	7.6048	0.6455	0.1392	0.7400	-0.1276
9.1	-9.6331	-0.0827	-1.3303	0.0067	-0.0097	0.0182	39.1027	1.0345	7.6221	0.6455	0.1392	0.7401	-0.1276
9.11	-9.6225	-0.0860	-1.3286	-0.0029	-0.0176	0.0133	38.9847	0.9467	7.5819	0.6455	0.1392	0.7400	-0.1275
9.12	-9.6313	-0.0910	-1.3377	0.0036	-0.0153	0.0098	39.1030	0.7764	7.7689	0.6456	0.1392	0.7400	-0.1275
9.13	-9.6329	-0.0891	-1.3298	0.0042	-0.0160	0.0141	39.2121	1.0571	7.7432	0.6456	0.1392	0.7400	-0.1275
9.14	-9.6209	-0.0889	-1.3299	0.0117	-0.0151	0.0127	39.2643	1.0881	7.6681	0.6456	0.1392	0.7400	-0.1275
9.15	-9.6221	-0.0977	-1.3329	0.0054	-0.0149	0.0125	39.0456	1.1491	7.8006	0.6456	0.1392	0.7400	-0.1275
9.16	-9.6262	-0.0972	-1.3280	0.0106	-0.0173	0.0091	39.0915	1.1993	7.6356	0.6456	0.1392	0.7399	-0.1276
9.17	-9.6224	-0.1031	-1.3238	0.0056	-0.0136	0.0114	39.0642	1.0197	7.5678	0.6456	0.1392	0.7400	-0.1276
9.18	-9.6236	-0.1058	-1.3239	0.0020	-0.0078	0.0160	39.1527	1.1328	7.7843	0.6456	0.1392	0.7399	-0.1275
9.19	-9.6184	-0.1044	-1.3229	0.0003	-0.0071	0.0111	39.1560	0.9074	7.8931	0.6456	0.1392	0.7400	-0.1275
9.2	-9.6207	-0.1024	-1.3164	0.0027	-0.0094	0.0122	39.4452	1.0203	7.8715	0.6456	0.1392	0.7400	-0.1275
9.21	-9.6147	-0.1022	-1.3079	0.0064	-0.0071	0.0137	39.4812	1.0494	7.8772	0.6456	0.1393	0.7400	-0.1275
9.22	-9.6380	-0.1001	-1.3093	0.0042	-0.0159	0.0135	39.4707	1.0905	7.8788	0.6456	0.1393	0.7400	-0.1275
9.23	-9.6320	-0.1027	-1.3082	0.0086	-0.0157	0.0139	39.4331	0.9488	7.7564	0.6456	0.1393	0.7399	-0.1275
9.24	-9.6259	-0.0962	-1.3124	0.0037	-0.0116	0.0142	39.3444	0.9571	7.7546	0.6456	0.1393	0.7400	-0.1275
9.25	-9.6241	-0.0877	-1.3222	0.0005	-0.0128	0.0085	39.3301	0.8502	7.6243	0.6456	0.1392	0.7399	-0.1274
9.26	-9.6237	-0.0881	-1.3138	0.0121	-0.0161	0.0117	39.1849	0.9735	7.7824	0.6457	0.1393	0.7400	-0.1275
9.27	-9.6255	-0.0885	-1.3310	0.0023	-0.0159	0.0137	39.1159	1.0306	7.7729	0.6457	0.1393	0.7399	-0.1275
9.28	-9.6229	-0.0819	-1.3331	0.0028	-0.0139	0.0166	39.1908	1.0446	7.7555	0.6457	0.1393	0.7400	-0.1274
9.29	-9.6291	-0.0791	-1.3225	0.0027	-0.0096	0.0094	39.3216	0.8516	7.9476	0.6456	0.1393	0.7399	-0.1274
9.3	-9.6288	-0.0810	-1.3272	0.0045	-0.0144	0.0112	39.1507	0.7537	7.8828	0.6457	0.1393	0.7399	-0.1274
9.31	-9.6174	-0.0757	-1.3224	0.0039	-0.0119	0.0099	39.3451	0.8063	7.7600	0.6457	0.1393	0.7399	-0.1274
9.32	-9.6163	-0.0849	-1.3211	0.0029	-0.0130	0.0117	39.3431	1.0343	7.7079	0.6457	0.1392	0.7399	-0.1274
9.33	-9.6138	-0.0834	-1.3127	-0.0004	-0.0189	0.0092	39.0828	1.0191	7.8404	0.6458	0.1392	0.7399	-0.1274
9.34	-9.6266	-0.0816	-1.3120	0.0022	-0.0059	0.0056	39.1771	0.9052	7.9331	0.6457	0.1392	0.7399	-0.1274
9.35	-9.6205	-0.0859	-1.3049	-0.0000	-0.0124	0.0091	39.0465	0.9984	7.8440	0.6457	0.1392	0.7400	-0.1274
9.36	-9.6303	-0.0913	-1.2981	0.0022	-0.0132	0.0121	39.1357	1.1201	7.7008	0.6457	0.1392	0.7399	-0.1274
9.37	-9.6226	-0.0968	-1.2929	0.0053	-0.0136	0.0085	39.2348	1.0923	7.8568	0.6457	0.1392	0.7399	-0.1274
9.38	-9.6169	-0.0999	-1.2832	0.0012	-0.0096	0.0163	39.0437	0.9921	7.9345	0.6457	0.1392	0.7399	-0.1273
9.39	-9.6157	-0.0989	-1.2821	0.0016	-0.0069	0.0084	39.0683	1.3273	8.0927	0.6457	0.1391	0.7399	-0.1273
9.4	-9.6144	-0.1060	-1.2856	0.0026	-0.0083	0.0109	38.9298	1.0263	7.9532	0.6457	0.1391	0.7400	-0.1273
9.41	-9.6196	-0.1093	-1.2800	0.0086	-0.0149	0.0125	39.1709	1.0945	7.7667	0.6457	0.1391	0.7399	-0.1273
9.42	-9.6202	-0.1036	-1.2809	0.0023	-0.0153	0.0143	39.3694	1.0015	7.6453	0.6457	0.1392	0.7399	-0.1273
9.43	-9.6210	-0.1048	-1.2773	0.0044	-0.0109	0.0113	39.1776	0.9254	7.7204	0.6457	0.1391	0.7399	-0.1273
9.44	-9.6275	-0.1096	-1.2985	-0.0020	-0.0099	0.0110	39.2530	0.9291	7.8407	0.6457	0.1391	0.7400	-0.1273
9.45	-9.6095	-0.0990	-1.2928	-0.0037	-0.0075	0.0138	39.2972	0.8704	7.6663	0.6457	0.1391	0.7399	-0.1272
9.46	-9.6187	-0.1019	-1.2987	0.0025	-0.0097	0.0131	39.0951	0.9900	7.8492	0.6457	0.1391	0.7400	-0.1272
9.47	-9.6229	-0.0908	-1.3153	0.0068	-0.0107	0.0090	39.3329	0.8199	7.6996	0.6457	0.1391	0.7399	-0.1272
9.48	-9.6192	-0.0925	-1.3113	0.0012	-0.0099	0.0164	39.3797	1.1371	7.6592	0.6457	0.1391	0.7400	-0.1272
9.49	-9.6259	-0.0926	-1.3162	-0.0015	-0.0123	0.0114	39.2190	0.8484	7.7741	0.6457	0.1391	0.7400	-0.1272
9.5	-9.6277	-0.0855	-1.3354	0.0045	-0.0072	0.0087	39.2105	1.0035	8.0144	0.6456	0.1391	0.7399	-0.1271
9.51	-9.6250	-0.0906	-1.3395	0.0055	-0.0064	0.0086	39.1224	1.2287	7.8489	0.6457	0.1391	0.7401	-0.1272
9.52	-9.6182	-0.0965	-1.3320	0.0001	-0.0091	0.0042	39.1434	1.0283	7.6890	0.6456	0.1390	0.7400	-0.1272
9.53	-9.6214	-0.0960	-1.3387	0.0066	-0.0099	0.0084	39.1321	1.0138	7.7394	0.6457	0.1390	0.7401	-0.1272
9.54	-9.6191	-0.0948	-1.3396	-0.0053	-0.0093	0.0073	39.2129	1.1130	7.7301	0.6456	0.1390	0.7400	-0.1271
9.55	-9.6245	-0.0911	-1.3359	0.0003	-0.0068	0.0073	39.2355	1.1065	7.6993	0.6456	0.1390	0.7401	-0.1271
9.56	-9.6247	-0.0968	-1.3429	-0.0024	-0.0114	0.0127	39.1680	1.1171	7.8171	0.6456	0.1389	0.7401	-0.1271
9.57	-9.6293	-0.0970	-1.3435	-0.0040	-0.0109	0.0093	39.0620	1.0352	8.0186	0.6456	0.1389	0.7401	-0.1271
9.58	-9.6194	-0.0876	-1.3427	-0.0002	-0.0178	0.0102	38.9370	0.9953	7.8805	0.6457	0.1389	0.7401	-0.1271
9.59	-9.6206	-0.0875	-1.3469	-0.0015	-0.0171	0.0150	38.9213	1.1934	7.6076	0.6457	0.1389	0.7401	-0.1270
9.6	-9.6255	-0.0947	-1.3368	0.0031	-0.0181	0.0148	39.2479	1.0970	7.7365	0.6457	0.1389	0.7401	-0.1270
9.61	-9.6257	-0.0906	-1.3336	0.0021	-0.0136	0.0128	39.5028	0.8326	7.6298	0.6456	0.1388	0.7400	-0.1270
9.62	-9.6273	-0.0867	-1.3220	0.0017	-0.0122	0.0064	39.4049	0.8824	7.7010	0.6457	0.1388	0.7401	-0.1270
9.63	-9.6286	-0.0953	-1.3242	-0.0013	-0.0063	0.0097	39.2607	1.1769	8.0068	0.6457	0.1388	0.7401	-0.1270
9.64	-9.6211	-0.1013	-1.3234	0.0028	-0.0139	0.0128	39.3010	1.1080	7.7100	0.6457	0.1388	0.7401	-0.1269
9.65	-9.6232	-0.1114	-1.3190	-0.0011	-0.0085	0.0079	39.3183	0.6792	7.7394	0.6457	0.1388	0.7401	-0.1269
9.66	-9.6239	-0.0987	-1.3133	0.0039	-0.0104	0.0070	39.2371	1.0278	7.8782	0.6457	0.1387	0.7401	-0.1269
9.67	-9.6259	-0.0955	-1.3070	0.0029	-0.0136	0.0089	39.0799	1.0856	7.8744	0.6457	0.1387	0.7401	-0.1269
9.68	-9.6298	-0.1005	-1.3104	0.0027	-0.0077	0.0117	39.2348	0.9213	7.6803	0.6456	0.1387	0.7401	-0.1269
9.69	-9.6244	-0.0974	-1.3074	0.0038	-0.0118	0.0099	39.3018	1.0395	7.9964	0.6457	0.1387	0.7402	-0.1269
9.7	-9.6156	-0.0878	-1.3064	-0.0022	-0.0067	0.0139	39.4316	1.0561	8.0842	0.6456	0.1386	0.7402	-0.1268
9.71	-9.6178	-0.0843	-1.3055	0.0130	-0.0098	0.0131	39.7248	1.1874	7.8815	0.6456	0.1387	0.7402	-0.1268
9.72	-9.6119	-0.0818	-1.2980	0.0100	-0.0071	0.0084	39.4800	1.3142	7.9034	0.6456	0.1387	0.7402	-0.1269
9.73	-9.6211	-0.0891	-1.3059	0.0060	-0.0089	0.0096	39.2660	1.1001	7.6971	0.6456	0.1387	0.7402	-0.1269
9.74	-9.6264	-0.0865	-1.3033	0.0068	-0.0159	0.0101	39.0343	1.0494	7.7941	0.6456	0.1387	0.7402	-0.1269
9.75	-9.6232	-0.0867	-1.3042	0.0064	-0.0086	0.0130	39.0268	1.1273	7.6842	0.6455	0.1387	0.7401	-0.1269
9.76	-9.6170	-0.0955	-1.2993	0.0067	-0.0098	0.0103	39.0678	1.1075	7.7367	0.6456	0.1387	0.7402	-0.1269
9.77	-9.6152	-0.0950	-1.3004	0.0100	-0.0078	0.0085	39.1264	1.0781	8.0450	0.6455	0.1387	0.7402	-0.1269
9.78	-9.6285	-0.0940	-1.3067	0.0066	-0.0129	0.0132	39.1164	0.9983	7.6248	0.6456	0.1387	0.7403	-0.1269
9.79	-9.6204	-0.0972	-1.3052	0.0132	-0.0082	0.0132	39.2008	1.0549	7.5169	0.6455	0.1387	0.7402	-0.1269
9.8	-9.6257	-0.0947	-1.3116	0.0059	-0.0104	0.0160	39.3387	0.8931	7.5540	0.6455	0.1387	0.7402	-0.1269
9.81	-9.6248	-0.1022	-1.3167	-0.0017	-0.0127	0.0137	39.3519	1.0401	7.8547	0.6455	0.1387	0.7402	-0.1269
9.82	-9.6104	-0.0958	-1.3117	0.0092	-0.0147	0.0176	39.4428	0.9533	7.6117	0.6455	0.1387	0.7402	-0.1269
9.83	-9.6194	-0.0935	-1.3131	0.0112	-0.0149	0.0155	39.3638	0.9569	7.6439	0.6456	0.1388	0.7403	-0.1269
9.84	-9.6270	-0.0936	-1.3246	0.0014	-0.0052	0.0128	39.1105	1.0493	7.5636	0.6455	0.1388	0.7402	-0.1269
9.85	-9.6224	-0.0802	-1.3201	0.0056	-0.0112	0.0157	39.1855	1.0207	7.5393	0.6456	0.1388	0.7403	-0.1268
9.86	-9.6326	-0.0859	-1.3159	0.0062	-0.0110	0.0162	39.2985	1.0315	7.4206	0.6455	0.1388	0.7402	-0.1268
9.87	-9.6382	-0.0894	-1.3283	0.0120	-0.0139	0.0173	39.1863	1.0374	7.6017	0.6455	0.1389	0.7402	-0.1268
9.88	-9.6338	-0.0934	-1.3247	0.0111	-0.0109	0.0101	39.2120	1.0048	7.7234	0.6455	0.1389	0.7402	-0.1269
9.89	-9.6172	-0.0981	-1.3254	0.0087	-0.0138	0.0111	39.1863	1.1145	7.7667	0.6455	0.1389	0.7402	-0.1269
9.9	-9.6242	-0.0969	-1.3327	0.0007	-0.0113	0.0119	39.2979	1.1027	7.8032	0.6455	0.1389	0.7403	-0.1269
9.91	-9.6241	-0.0960	-1.3300	0.0056	-0.0165	0.0135	39.1479	0.8968	7.6716	0.6455	0.1389	0.7402	-0.1268
9.92	-9.6145	-0.0888	-1.3417	0.0041	-0.0152	0.0103	39.1148	0.9744	7.7285	0.6456	0.1389	0.7402	-0.1269
9.93	-9.6238	-0.1009	-1.3342	0.0069	-0.0096	0.0113	39.1170	0.9063	7.6809	0.6455	0.1389	0.7402	-0.1268
9.94	-9.6255	-0.0923	-1.3382	0.0065	-0.0137	0.0172	39.3157	1.1958	7.8393	0.6455	0.1389	0.7402	-0.1268
9.95	-9.6149	-0.0891	-1.3275	0.0078	-0.0169	0.0160	39.2536	1.1327	7.7147	0.6455	0.1389	0.7402	-0.1268
9.96	-9.6154	-0.0879	-1.3194	0.0022	-0.0155	0.0104	39.3562	0.9065	7.7688	0.6456	0.1389	0.7402	-0.1268
9.97	-9.6261	-0.0918	-1.3181	0.0034	-0.0144	0.0160	39.3679	1.0674	7.8305	0.6455	0.1389	0.7402	-0.1268
9.98	-9.6333	-0.0896	-1.3214	-0.0006	-0.0148	0.0113	39.2470	0.9926	7.4982	0.6456	0.1389	0.7402	-0.1268
9.99	-9.6166	-0.0887	-1.3139	0.0003	-0.0176	0.0140	39.3403	1.1152	7.6460	0.6456	0.1389	0.7402	-0.1268
10	-9.6192	-0.0893	-1.3198	0.0028	-0.0182	0.0163	39.0870	1.0357	7.8018	0.6456	0.1389	0.7401	-0.1267
10.01	-9.6149	-0.0974	-1.3135	0.0076	-0.0181	0.0162	39.2533	0.9343	7.8059	0.6457	0.1389	0.7402	-0.1268
10.02	-9.6171	-0.0932	-1.3022	0.0006	-0.0148	0.0107	39.2436	0.9293	7.7560	0.6456	0.1389	0.7401	-0.1267
10.03	-9.6267	-0.0862	-1.2996	0.0065	-0.0154	0.0088	39.2335	0.8058	7.6908	0.6457	0.1389	0.7402	-0.1268
10.04	-9.6194	-0.0876	-1.2982	0.0101	-0.0125	0.0190	39.3984	1.0774	7.7250	0.6456	0.1389	0.7401	-0.1267
10.05	-9.6155	-0.0910	-1.3061	0.0032	-0.0184	0.0150	39.2301	0.9837	7.5754	0.6457	0.1389	0.7401	-0.1267
10.06	-9.6223	-0.0907	-1.2957	0.0026	-0.0210	0.0143	39.3673	0.9662	7.6827	0.6457	0.1389	0.7401	-0.1267
10.07	-9.6163	-0.0837	-1.2996	-0.0016	-0.0157	0.0155	39.2976	1.1391	7.7814	0.6457	0.1389	0.7400	-0.1267
10.08	-9.6285	-0.0779	-1.3088	0.0048	-0.0131	0.0146	39.1719	1.0895	7.8135	0.6458	0.1389	0.7401	-0.1267
10.09	-9.6119	-0.0834	-1.3106	0.0079	-0.0065	0.0131	39.3638	1.0142	7.7494	0.6457	0.1389	0.7401	-0.1267
10.1	-9.6159	-0.0929	-1.3066	0.0004	-0.0090	0.0123	39.3157	1.0487	7.6885	0.6457	0.1389	0.7401	-0.1267
10.11	-9.6149	-0.0896	-1.3073	0.0009	-0.0105	0.0169	39.1891	0.9432	7.7886	0.6456	0.1389	0.7401	-0.1266
10.12	-9.6141	-0.0840	-1.3192	0.0010	-0.0080	0.0115	39.1971	0.9381	7.7199	0.6457	0.1389	0.7401	-0.1266
10.13	-9.6277	-0.0819	-1.3167	0.0062	-0.0049	0.0141	39.2297	0.9731	7.7982	0.6456	0.1389	0.7401	-0.1266
10.14	-9.6216	-0.0850	-1.3152	0.0043	-0.0135	0.0160	39.3782	1.1451	7.5701	0.6456	0.1389	0.7401	-0.1266
10.15	-9.6135	-0.0862	-1.3193	0.0021	-0.0121	0.0174	39.2814	0.9131	7.8391	0.6457	0.1390	0.7402	-0.1265
10.16	-9.6137	-0.0876	-1.3177	0.0018	-0.0133	0.0132	39.0118	1.0965	7.8861	0.6456	0.1389	0.7401	-0.1265
10.17	-9.6143	-0.0917	-1.3215	0.0033	-0.0097	0.0142	39.1536	1.0744	7.6387	0.6457	0.1389	0.7402	-0.1265
10.18	-9.6280	-0.0867	-1.3274	0.0096	-0.0131	0.0142	39.3028	0.9325	7.5960	0.6456	0.1390	0.7401	-0.1265
10.19	-9.6141	-0.0813	-1.3374	0.0067	-0.0099	0.0123	39.1845	0.8534	7.8569	0.6457	0.1390	0.7402	-0.1265
10.2	-9.6118	-0.0935	-1.3410	0.0029	-0.0078	0.0156	39.4872	1.0369	7.8958	0.6456	0.1390	0.7402	-0.1265
10.21	-9.6257	-0.0954	-1.3337	0.0005	-0.0124	0.0105	39.5530	1.2407	7.8650	0.6456	0.1390	0.7402	-0.1265
10.22	-9.6250	-0.0960	-1.3359	-0.0007	-0.0097	0.0146	39.3624	1.0323	7.9693	0.6456	0.1389	0.7402	-0.1264
10.23	-9.6221	-0.0994	-1.3414	0.0012	-0.0151	0.0107	39.2787	0.9966	7.9389	0.6456	0.1389	0.7402	-0.1264
10.24	-9.6306	-0.0957	-1.3378	0.0097	-0.0165	0.0122	39.0944	0.8462	7.8480	0.6456	0.1389	0.7402	-0.1264
10.25	-9.6196	-0.1077	-1.3443	0.0062	-0.0137	0.0081	39.1413	0.7184	7.9722	0.6456	0.1389	0.7401	-0.1264
10.26	-9.6311	-0.0968	-1.3333	0.0021	-0.0120	0.0113	38.9752	1.2455	7.9608	0.6457	0.1389	0.7402	-0.1264
10.27	-9.6265	-0.1001	-1.3281	0.0040	-0.0156	0.0049	39.1645	1.1039	7.7891	0.6456	0.1389	0.7402	-0.1264
10.28	-9.6277	-0.0962	-1.3321	0.0000	-0.0188	0.0058	39.3282	1.0244	7.8425	0.6457	0.1388	0.7402	-0.1265
10.29	-9.6298	-0.0936	-1.3254	-0.0008	-0.0125	0.0118	39.2500	1.0452	7.9940	0.6456	0.1388	0.7401	-0.1264
10.3	-9.6295	-0.0888	-1.3238	-0.0020	-0.0142	0.0074	39.2801	0.9486	7.7109	0.6457	0.1388	0.7402	-0.1264
10.31	-9.6300	-0.0913	-1.3309	0.0052	-0.0091	0.0048	38.9800	1.2879	7.8822	0.6456	0.1387	0.7402	-0.1264
10.32	-9.6199	-0.0918	-1.3177	0.0028	-0.0183	0.0084	39.1541	1.2295	7.7805	0.6456	0.1387	0.7402	-0.1264
10.33	-9.6207	-0.0898	-1.3104	-0.0066	-0.0128	0.0091	38.9893	1.0802	7.7011	0.6457	0.1387	0.7403	-0.1264
10.34	-9.6187	-0.0919	-1.3103	0.0056	-0.0123	0.0063	38.8787	1.0368	7.7817	0.6456	0.1386	0.7402	-0.1264
10.35	-9.6221	-0.0950	-1.3085	-0.0034	-0.0125	0.0119	39.2292	0.9950	7.6416	0.6457	0.1386	0.7403	-0.1264
10.36	-9.6313	-0.0912	-1.3099	0.0006	-0.0130	0.0157	39.1716	0.8609	7.8417	0.6456	0.1386	0.7402	-0.1264
10.37	-9.6130	-0.0939	-1.2979	-0.0007	-0.0162	0.0147	39.3392	0.8802	7.6283	0.6457	0.1386	0.7402	-0.1263
10.38	-9.6128	-0.0901	-1.3010	0.0000	-0.0097	0.0059	39.3441	0.9000	7.6755	0.6457	0.1386	0.7402	-0.1263
10.39	-9.6208	-0.0797	-1.3058	0.0041	-0.0087	0.0090	39.1831	1.0705	7.7039	0.6456	0.1385	0.7402	-0.1263
10.4	-9.6156	-0.0836	-1.3017	0.0019	-0.0132	0.0086	39.2154	0.9249	7.7171	0.6457	0.1385	0.7403	-0.1263
10.41	-9.6242	-0.0812	-1.3042	0.0053	-0.0161	0.0088	39.1811	1.0073	7.7867	0.6456	0.1385	0.7403	-0.1263
10.42	-9.6312	-0.0858	-1.3078	0.0070	-0.0134	0.0110	39.2358	1.0204	7.6503	0.6457	0.1385	0.7403	-0.1264
10.43	-9.6129	-0.0875	-1.3084	0.0051	-0.0040	0.0130	39.0894	0.8384	7.8043	0.6456	0.1385	0.7402	-0.1263
10.44	-9.6271	-0.0889	-1.3075	0.0045	-0.0102	0.0128	39.1548	0.9067	7.9986	0.6456	0.1385	0.7403	-0.1263
10.45	-9.6297	-0.0895	-1.3111	0.0054	-0.0128	0.0083	39.1800	0.9780	7.7740	0.6456	0.1385	0.7403	-0.1264
10.46	-9.6221	-0.0924	-1.3123	0.0007	-0.0136	0.0103	39.2951	1.1947	7.8723	0.6456	0.1385	0.7403	-0.1264
10.47	-9.6181	-0.0918	-1.3164	-0.0014	-0.0035	0.0094	39.1584	1.2997	7.7712	0.6456	0.1385	0.7403	-0.1263
10.48	-9.6224	-0.0960	-1.3133	-0.0006	-0.0055	0.0149	39.0510	1.0540	7.9225	0.6456	0.1385	0.7404	-0.1263
10.49	-9.6226	-0.1038	-1.3284	-0.0013	-0.0078	0.0112	39.2684	1.0210	7.7614	0.6456	0.1384	0.7404	-0.1263
10.5	-9.6187	-0.0976	-1.3306	0.0005	-0.0063	0.0141	39.0940	1.1299	7.6446	0.6455	0.1384	0.7404	-0.1262
10.51	-9.6224	-0.1150	-1.3225	-0.0000	-0.0053	0.0057	39.2127	1.1073	7.8543	0.6455	0.1384	0.7405	-0.1262
10.52	-9.6209	-0.1079	-1.3238	-0.0041	-0.0079	0.0108	39.2119	1.1712	7.8280	0.6455	0.1384	0.7405	-0.1262
10.53	-9.6311	-0.0991	-1.3228	-0.0032	-0.0137	0.0129	39.1293	1.1857	7.5074	0.6455	0.1383	0.7405	-0.1262
10.54	-9.6395	-0.0961	-1.3255	-0.0033	-0.0167	0.0113	39.1987	0.9227	7.6006	0.6455	0.1383	0.7404	-0.1261
10.55	-9.6368	-0.0971	-1.3186	0.0007	-0.0164	0.0145	39.5140	0.8766	7.9010	0.6455	0.1383	0.7405	-0.1261
10.56	-9.6225	-0.0875	-1.3247	0.0021	-0.0098	0.0081	39.1945	0.7067	7.7912	0.6455	0.1383	0.7405	-0.1261
10.57	-9.6132	-0.0929	-1.3213	0.0042	-0.0081	0.0080	39.2672	0.7632	7.5990	0.6454	0.1382	0.7405	-0.1261
10.58	-9.6274	-0.0956	-1.3220	0.0056	-0.0136	0.0104	39.3915	1.1024	7.6224	0.6455	0.1383	0.7406	-0.1261
10.59	-9.6216	-0.0847	-1.3217	0.0072	-0.0122	0.0146	39.3391	0.8665	7.6274	0.6455	0.1382	0.7405	-0.1261
10.6	-9.6293	-0.0898	-1.3257	0.0066	-0.0103	0.0138	39.2081	0.9495	7.5864	0.6455	0.1383	0.7406	-0.1261
10.61	-9.6300	-0.0857	-1.3213	0.0118	-0.0144	0.0140	39.1973	0.8867	7.8061	0.6454	0.1383	0.7404	-0.1261
10.62	-9.6269	-0.0895	-1.3111	0.0057	-0.0122	0.0113	39.1941	0.9631	7.7787	0.6455	0.1383	0.7405	-0.1262
10.63	-9.6203	-0.0944	-1.3172	0.0083	-0.0075	0.0111	39.2135	1.1303	7.8136	0.6454	0.1383	0.7405	-0.1262
10.64	-9.6152	-0.0954	-1.3151	0.0048	-0.0116	0.0123	39.1352	1.0563	7.6836	0.6454	0.1383	0.7405	-0.1262
10.65	-9.6179	-0.0892	-1.3164	-0.0044	-0.0099	0.0093	39.0239	0.9399	7.8165	0.6454	0.1383	0.7406	-0.1261
10.66	-9.6186	-0.0835	-1.3090	0.0036	-0.0074	0.0109	39.0424	1.0755	7.8610	0.6454	0.1382	0.7406	-0.1261
10.67	-9.6176	-0.0886	-1.3185	-0.0037	-0.0027	0.0109	39.2315	1.0047	7.7437	0.6454	0.1382	0.7406	-0.1261
10.68	-9.6088	-0.0850	-1.3173	0.0049	-0.0039	0.0050	39.0280	1.1475	7.8900	0.6453	0.1382	0.7406	-0.1261
10.69	-9.6199	-0.0820	-1.3092	0.0039	-0.0086	0.0065	38.9485	0.9841	7.7563	0.6453	0.1382	0.7407	-0.1261
10.7	-9.6120	-0.0942	-1.3210	0.0066	-0.0021	0.0073	39.2422	1.2776	7.8030	0.6453	0.1382	0.7407	-0.1261
10.71	-9.6213	-0.0966	-1.3072	0.0087	-0.0120	0.0082	39.3550	1.2139	7.7282	0.6453	0.1382	0.7407	-0.1262
10.72	-9.6200	-0.0973	-1.3147	0.0133	-0.0168	0.0170	39.3233	1.2881	7.5563	0.6452	0.1382	0.7407	-0.1262
10.73	-9.6320	-0.0873	-1.3151	0.0092	-0.0164	0.0176	39.2145	1.0664	7.6718	0.6453	0.1382	0.7407	-0.1262
10.74	-9.6293	-0.0898	-1.3174	-0.0009	-0.0170	0.0113	39.0802	1.0682	7.7548	0.6453	0.1382	0.7407	-0.1262
10.75	-9.6243	-0.0909	-1.3133	0.0054	-0.0073	0.0135	39.4070	1.2546	7.6417	0.6452	0.1382	0.7406	-0.1261
10.76	-9.6237	-0.0917	-1.3166	0.0049	-0.0110	0.0143	39.2379	0.8170	7.5239	0.6453	0.1382	0.7407	-0.1261
10.77	-9.6133	-0.0945	-1.3064	0.0169	-0.0104	0.0138	39.2241	0.9063	7.4642	0.6452	0.1382	0.7407	-0.1262
10.78	-9.6227	-0.0850	-1.3188	0.0178	-0.0106	0.0187	39.3585	0.9157	7.7078	0.6453	0.1383	0.7407	-0.1262
10.79	-9.6320	-0.0915	-1.3251	0.0088	-0.0115	0.0129	39.3724	1.0230	7.8440	0.6452	0.1383	0.7406	-0.1262
10.8	-9.6126	-0.0916	-1.3202	0.0081	-0.0151	0.0106	39.3148	1.0972	7.7774	0.6452	0.1383	0.7407	-0.1262
10.81	-9.6188	-0.0900	-1.3247	0.0156	-0.0151	0.0103	39.3004	0.9355	7.7175	0.6452	0.1384	0.7407	-0.1263
10.82	-9.6119	-0.0924	-1.3201	0.0095	-0.0130	0.0094	39.4585	0.9023	7.7287	0.6452	0.1384	0.7406	-0.1263
10.83	-9.6136	-0.0897	-1.3156	0.0067	-0.0171	0.0078	39.2646	1.1425	7.8349	0.6453	0.1384	0.7407	-0.1263
10.84	-9.6182	-0.0882	-1.3249	0.0039	-0.0168	0.0101	39.1199	1.0164	7.7800	0.6452	0.1383	0.7406	-0.1263
10.85	-9.6205	-0.0877	-1.3255	0.0032	-0.0120	0.0126	39.1823	1.0622	7.9013	0.6453	0.1383	0.7407	-0.1263
10.86	-9.6215	-0.0875	-1.3307	0.0017	-0.0155	0.0086	39.1818	1.0953	7.8183	0.6452	0.1383	0.7406	-0.1263
10.87	-9.6195	-0.0897	-1.3216	0.0081	-0.0162	0.0148	39.1459	1.0984	7.5839	0.6453	0.1383	0.7407	-0.1263
10.88	-9.6224	-0.0860	-1.3235	0.0095	-0.0187	0.0142	39.4768	1.2095	7.6863	0.6453	0.1383	0.7406	-0.1263
10.89	-9.6214	-0.0925	-1.3276	0.0046	-0.0199	0.0104	39.1156	1.1459	7.8210	0.6453	0.1383	0.7406	-0.1263
10.9	-9.6186	-0.0953	-1.3291	0.0121	-0.0171	0.0097	39.0143	1.1928	7.7030	0.6453	0.1383	0.7406	-0.1264
10.91	-9.6209	-0.1007	-1.3123	0.0119	-0.0180	0.0156	39.0831	1.0073	7.4796	0.6453	0.1383	0.7406	-0.1264
10.92	-9.6369	-0.0967	-1.3187	0.0076	-0.0155	0.0171	39.3461	1.0412	7.6507	0.6454	0.1384	0.7406	-0.1264
10.93	-9.6260	-0.1017	-1.3208	0.0086	-0.0134	0.0068	39.3812	0.8873	7.6273	0.6453	0.1384	0.7405	-0.1264
10.94	-9.6290	-0.0992	-1.3288	0.0071	-0.0070	0.0121	39.3246	1.0980	7.6751	0.6453	0.1384	0.7406	-0.1264
10.95	-9.6248	-0.0999	-1.3271	0.0104	-0.0147	0.0104	39.4359	0.8164	7.7180	0.6453	0.1384	0.7405	-0.1264
10.96	-9.6203	-0.0967	-1.3303	0.0162	-0.0147	0.0166	39.3781	0.6412	7.6047	0.6453	0.1384	0.7406	-0.1265
10.97	-9.6146	-0.0985	-1.3233	0.0054	-0.0059	0.0130	39.2924	1.1777	7.7653	0.6453	0.1384	0.7405	-0.1265
10.98	-9.6158	-0.0873	-1.3256	0.0012	-0.0112	0.0181	39.0979	1.0334	7.6765	0.6453	0.1384	0.7406	-0.1264
10.99	-9.6284	-0.0846	-1.3246	0.0058	-0.0197	0.0120	39.0841	0.9638	7.6266	0.6453	0.1384	0.7406	-0.1264
11	-9.6260	-0.0874	-1.3257	0.0033	-0.0155	0.0129	39.1093	0.8175	7.6448	0.6453	0.1384	0.7405	-0.1264
11.01	-9.6282	-0.0859	-1.3166	0.0097	-0.0095	0.0130	39.2611	0.9537	7.6458	0.6454	0.1385	0.7406	-0.1264
11.02	-9.6282	-0.0889	-1.3153	-0.0025	-0.0132	0.0167	39.3408	0.9002	7.6309	0.6453	0.1384	0.7405	-0.1264
11.03	-9.6217	-0.0909	-1.3146	0.0054	-0.0186	0.0174	39.3154	1.0000	7.7064	0.6454	0.1385	0.7406	-0.1264
11.04	-9.6166	-0.0872	-1.3119	0.0073	-0.0086	0.0056	39.3829	1.0113	7.7526	0.6453	0.1384	0.7405	-0.1264
11.05	-9.6226	-0.0984	-1.3088	-0.0029	-0.0114	0.0073	39.1386	1.1214	7.6907	0.6453	0.1384	0.7406	-0.1264
11.06	-9.6311	-0.0947	-1.3058	0.0009	-0.0146	0.0154	39.4112	1.2086	7.6062	0.6453	0.1384	0.7406	-0.1264
11.07	-9.6118	-0.0870	-1.3064	0.0033	-0.0132	0.0136	39.2086	1.0865	7.7210	0.6453	0.1384	0.7405	-0.1264
11.08	-9.6215	-0.0882	-1.3032	0.0050	-0.0160	0.0057	39.0058	1.0836	7.7313	0.6454	0.1384	0.7406	-0.1264
11.09	-9.6340	-0.0824	-1.3095	0.0081	-0.0133	0.0185	39.0709	0.9569	7.7066	0.6454	0.1384	0.7405	-0.1264
11.1	-9.6277	-0.0910	-1.2992	0.0117	-0.0180	0.0129	39.4109	1.1028	7.7635	0.6454	0.1384	0.7406	-0.1264
11.11	-9.6151	-0.0954	-1.2982	0.0052	-0.0159	0.0169	39.4712	1.0084	7.6063	0.6453	0.1384	0.7404	-0.1264
11.12	-9.6233	-0.0940	-1.3104	0.0088	-0.0133	0.0087	39.3004	1.0160	7.7018	0.6454	0.1384	0.7405	-0.1264
11.13	-9.6236	-0.1008	-1.3123	0.0065	-0.0141	0.0108	39.2911	0.8217	7.6722	0.6454	0.1384	0.7405	-0.1264
11.14	-9.6156	-0.0964	-1.3195	0.0028	-0.0189	0.0161	39.2473	0.9796	7.7087	0.6454	0.1384	0.7405	-0.1264
11.15	-9.6314	-0.1028	-1.3228	0.0048	-0.0132	0.0148	39.4121	1.1190	7.7256	0.6454	0.1384	0.7405	-0.1264
11.16	-9.6202	-0.0989	-1.3221	0.0026	-0.0134	0.0128	39.2659	0.9547	7.6340	0.6454	0.1384	0.7405	-0.1264
11.17	-9.6132	-0.1035	-1.3193	0.0033	-0.0133	0.0136	39.2361	0.8865	7.5833	0.6455	0.1384	0.7405	-0.1264
11.18	-9.6188	-0.1041	-1.3141	0.0074	-0.0113	0.0071	39.2968	1.1030	7.6005	0.6454	0.1384	0.7404	-0.1264
11.19	-9.6265	-0.1016	-1.3277	0.0079	-0.0100	0.0119	39.2765	1.0807	7.8829	0.6454	0.1384	0.7405	-0.1264
11.2	-9.6316	-0.1034	-1.3262	0.0023	-0.0120	0.0093	39.3927	1.1074	7.9141	0.6454	0.1384	0.7405	-0.1264
11.21	-9.6228	-0.1025	-1.3342	0.0003	-0.0145	0.0117	39.5381	0.7951	8.1304	0.6454	0.1383	0.7405	-0.1263
11.22	-9.6141	-0.0980	-1.3372	0.0044	-0.0151	0.0064	39.2964	1.1326	7.9247	0.6454	0.1382	0.7405	-0.1263
11.23	-9.6270	-0.0977	-1.3437	0.0024	-0.0180	0.0084	39.0073	1.2174	7.7620	0.6455	0.1382	0.7405	-0.1263
11.24	-9.6207	-0.0908	-1.3320	-0.0001	-0.0144	0.0108	38.9556	0.9146	7.8030	0.6455	0.1382	0.7405	-0.1263
11.25	-9.6178	-0.0855	-1.3325	0.0041	-0.0144	0.0023	38.9524	1.2365	7.7798	0.6454	0.1382	0.7404	-0.1263
11.26	-9.6170	-0.0878	-1.3440	0.0037	-0.0090	0.0107	39.1645	1.0746	7.8791	0.6455	0.1382	0.7405	-0.1263
11.27	-9.6325	-0.0878	-1.3243	-0.0028	-0.0156	0.0131	38.9723	1.0181	7.7646	0.6455	0.1381	0.7405	-0.1263
11.28	-9.6161	-0.0911	-1.3213	0.0015	-0.0153	0.0141	39.2119	1.2643	7.8002	0.6455	0.1381	0.7405	-0.1263
11.29	-9.6311	-0.0853	-1.3253	0.0026	-0.0104	0.0116	39.1223	0.8969	7.7208	0.6455	0.1381	0.7404	-0.1263
11.3	-9.6304	-0.0868	-1.3129	0.0056	-0.0162	0.0098	39.3544	0.8021	7.6689	0.6455	0.1381	0.7405	-0.1263
11.31	-9.6341	-0.0828	-1.3089	0.0049	-0.0133	0.0124	39.1974	0.8547	7.6625	0.6455	0.1381	0.7405	-0.1263
11.32	-9.6239	-0.0853	-1.3107	-0.0017	-0.0165	0.0156	39.3537	0.7362	7.7450	0.6455	0.1381	0.7404	-0.1263
11.33	-9.6124	-0.0847	-1.3111	-0.0010	-0.0152	0.0144	39.3090	1.0119	7.6045	0.6456	0.1381	0.7405	-0.1262
11.34	-9.6239	-0.0805	-1.3201	0.0027	-0.0099	0.0095	39.1371	0.8979	7.7517	0.6455	0.1380	0.7405	-0.1262
11.35	-9.6168	-0.0822	-1.3088	0.0045	-0.0131	0.0150	39.1443	0.8215	7.6749	0.6456	0.1381	0.7405	-0.1262
11.36	-9.6202	-0.0889	-1.3118	0.0073	-0.0129	0.0132	39.1089	0.6646	7.8255	0.6455	0.1380	0.7404	-0.1262
11.37	-9.6163	-0.0917	-1.3054	0.0024	-0.0135	0.0119	39.0649	0.8517	7.7744	0.6456	0.1381	0.7405	-0.1262
11.38	-9.6142	-0.0870	-1.3109	0.0020	-0.0122	0.0142	39.2939	0.9942	7.6715	0.6456	0.1380	0.7405	-0.1262
11.39	-9.6201	-0.0913	-1.3173	0.0004	-0.0062	0.0098	39.0299	1.1853	7.7873	0.6455	0.1380	0.7405	-0.1262
11.4	-9.6286	-0.0960	-1.3155	0.0082	-0.0118	0.0135	39.1368	1.2012	7.7906	0.6455	0.1380	0.7405	-0.1262
11.41	-9.6284	-0.0957	-1.3205	-0.0016	-0.0170	0.0122	39.1344	1.0854	7.6600	0.6455	0.1380	0.7405	-0.1262
11.42	-9.6104	-0.0901	-1.3223	0.0017	-0.0093	0.0073	39.3139	1.1288	7.7642	0.6456	0.1380	0.7405	-0.1262
11.43	-9.6148	-0.0957	-1.3304	-0.0009	-0.0074	0.0091	39.1438	1.1722	7.4973	0.6455	0.1379	0.7404	-0.1261
11.44	-9.6147	-0.0898	-1.3268	0.0053	-0.0036	0.0099	39.0145	1.2357	7.4547	0.6455	0.1380	0.7406	-0.1261
11.45	-9.6161	-0.0887	-1.3287	0.0062	-0.0075	0.0103	39.2602	1.2651	7.8417	0.6455	0.1379	0.7406	-0.1261
11.46	-9.6153	-0.0875	-1.3209	-0.0007	-0.0178	0.0140	39.2511	1.1110	7.6990	0.6455	0.1379	0.7406	-0.1261
11.47	-9.6211	-0.0964	-1.3300	0.0016	-0.0121	0.0125	39.0919	1.1118	7.7033	0.6455	0.1379	0.7405	-0.1261
11.48	-9.6131	-0.0981	-1.3172	0.0000	-0.0086	0.0086	39.3945	1.0150	7.7116	0.6455	0.1379	0.7406	-0.1261
11.49	-9.6211	-0.0980	-1.3157	0.0044	-0.0099	0.0165	39.4809	1.0575	7.7088	0.6455	0.1379	0.7406	-0.1261
11.5	-9.6286	-0.0899	-1.3189	0.0101	-0.0044	0.0140	39.3659	0.9713	7.7244	0.6454	0.1379	0.7405	-0.1261
11.51	-9.6254	-0.0932	-1.3073	0.0013	-0.0067	0.0098	39.3720	0.8267	7.5959	0.6455	0.1379	0.7407	-0.1261
11.52	-9.6247	-0.0924	-1.3166	0.0071	-0.0084	0.0135	39.2508	1.0890	7.6773	0.6454	0.1379	0.7406	-0.1261
11.53	-9.6246	-0.0865	-1.3164	0.0045	-0.0099	0.0077	39.3472	1.0682	7.9423	0.6455	0.1379	0.7407	-0.1261
11.54	-9.6287	-0.0934	-1.3282	0.0123	-0.0093	0.0161	39.0037	0.9512	7.6684	0.6454	0.1379	0.7406	-0.1261
11.55	-9.6175	-0.0961	-1.3160	0.0070	-0.0072	0.0144	39.0004	0.7893	7.5143	0.6454	0.1380	0.7407	-0.1261
11.56	-9.6287	-0.0961	-1.3158	0.0130	-0.0148	0.0122	39.2217	0.8803	7.8980	0.6454	0.1380	0.7406	-0.1261
11.57	-9.6328	-0.0915	-1.3192	0.0058	-0.0112	0.0085	39.2036	0.9819	7.8116	0.6453	0.1380	0.7406	-0.1261
11.58	-9.6265	-0.0817	-1.3200	0.0009	-0.0099	0.0072	39.1252	0.9374	7.6829	0.6454	0.1379	0.7407	-0.1261
11.59	-9.6185	-0.0872	-1.3253	0.0033	-0.0098	0.0122	39.1382	1.0779	7.7258	0.6453	0.1379	0.7407	-0.1261
11.6	-9.6191	-0.1038	-1.3133	0.0088	-0.0125	0.0074	39.0860	1.1902	7.6453	0.6454	0.1379	0.7407	-0.1261
11.61	-9.6110	-0.1082	-1.3150	0.0056	-0.0118	0.0068	39.0157	1.1867	7.4986	0.6453	0.1379	0.7406	-0.1261
11.62	-9.6188	-0.1089	-1.3235	0.0064	-0.0119	0.0060	39.1024	1.2266	7.6579	0.6454	0.1379	0.7407	-0.1262
11.63	-9.6204	-0.0907	-1.3186	-0.0000	-0.0101	0.0105	39.0997	1.1013	7.8921	0.6453	0.1379	0.7407	-0.1262
11.64	-9.6258	-0.0881	-1.3256	-0.0004	-0.0063	0.0102	39.2332	0.9898	7.8161	0.6453	0.1378	0.7407	-0.1261
11.65	-9.6253	-0.0912	-1.3170	-0.0009	-0.0147	0.0131	39.0785	1.1504	7.6766	0.6453	0.1378	0.7407	-0.1261
11.66	-9.6205	-0.0878	-1.3126	-0.0043	-0.0093	0.0101	39.0025	0.9569	7.7253	0.6453	0.1378	0.7407	-0.1261
11.67	-9.6399	-0.0852	-1.3159	0.0082	-0.0132	0.0075	39.3702	0.9575	7.6633	0.6453	0.1378	0.7408	-0.1261
11.68	-9.6356	-0.0863	-1.3170	0.0048	-0.0149	0.0098	39.1715	0.9491	7.5109	0.6453	0.1377	0.7407	-0.1261
11.69	-9.6180	-0.0837	-1.3123	0.0018	-0.0052	0.0113	39.2475	0.8595	7.6612	0.6453	0.1377	0.7408	-0.1261
11.7	-9.6324	-0.0963	-1.3166	0.0085	-0.0074	0.0069	39.6041	1.0272	7.7505	0.6453	0.1377	0.7408	-0.1261
11.71	-9.6254	-0.0845	-1.3121	0.0065	-0.0107	0.0094	39.5585	1.0591	7.9067	0.6453	0.1377	0.7408	-0.1261
11.72	-9.6250	-0.0862	-1.3033	0.0160	-0.0138	0.0119	39.4150	0.9495	7.7754	0.6453	0.1378	0.7407	-0.1262
