time	acceleration_x	acceleration_y	acceleration_z	gyroscope_x	gyroscope_y	gyroscope_z	magnetometer_x	magnetometer_y	magnetometer_z	quaternion_w	quaternion_x	quaternion_y	quaternion_z
0	1.0550	-9.0378	3.3215	0.3541	-0.0729	0.0034	-11.6146	10.1535	-3.1716	-0.1364	0.1726	-0.5693	0.7922
0.01	1.0728	-9.0049	3.3692	0.3388	-0.0722	0.0106	-11.6205	10.1179	-3.0881	-0.1370	0.1725	-0.5679	0.7931
0.02	1.0850	-9.0194	3.4017	0.3089	-0.0834	0.0117	-11.4747	10.2409	-2.9937	-0.1377	0.1725	-0.5667	0.7940
0.03	1.0959	-9.0496	3.4138	0.2776	-0.0806	0.0210	-11.2104	10.1374	-3.2544	-0.1383	0.1724	-0.5654	0.7946
0.04	1.0799	-9.0807	3.4178	0.2546	-0.0792	0.0205	-11.3575	10.0604	-3.1919	-0.1389	0.1724	-0.5644	0.7953
0.05	1.0685	-9.1193	3.4002	0.2331	-0.0780	0.0215	-11.3351	10.1789	-3.1128	-0.1395	0.1724	-0.5634	0.7959
0.06	1.0739	-9.0955	3.3752	0.2155	-0.0768	0.0216	-11.2645	9.7883	-3.4991	-0.1401	0.1723	-0.5624	0.7964
0.07	1.0856	-9.0272	3.3430	0.1842	-0.0719	0.0189	-11.1389	9.5940	-3.5951	-0.1407	0.1723	-0.5617	0.7970
0.08	1.1011	-9.0531	3.3225	0.1504	-0.0640	0.0210	-11.0058	9.7814	-3.2803	-0.1411	0.1723	-0.5610	0.7973
0.09	1.1186	-9.1417	3.2830	0.1279	-0.0657	0.0171	-11.2260	9.8054	-3.4132	-0.1416	0.1723	-0.5605	0.7976
0.1	1.1305	-9.1749	3.2622	0.1094	-0.0475	0.0149	-11.1779	9.7242	-3.7430	-0.1420	0.1723	-0.5599	0.7978
0.11	1.1292	-9.2099	3.2424	0.0925	-0.0412	0.0118	-11.1317	9.4408	-3.3630	-0.1423	0.1722	-0.5595	0.7981
0.12	1.1026	-9.2605	3.1954	0.0764	-0.0270	0.0019	-11.3606	9.6877	-3.3300	-0.1426	0.1722	-0.5592	0.7983
0.13	1.0645	-9.3674	3.1730	0.0624	-0.0129	-0.0064	-11.2285	9.9059	-3.4856	-0.1427	0.1721	-0.5589	0.7985
0.14	1.0263	-9.4810	3.1484	0.0532	-0.0050	-0.0071	-11.2641	9.8715	-3.6280	-0.1428	0.1721	-0.5587	0.7987
0.15	0.9910	-9.5830	3.1535	0.0523	0.0088	-0.0111	-11.1791	10.0206	-3.5089	-0.1428	0.1720	-0.5585	0.7988
0.16	0.9477	-9.7574	3.1355	0.0482	0.0137	-0.0126	-11.2075	9.8998	-3.3849	-0.1428	0.1719	-0.5584	0.7990
0.17	0.9207	-9.9703	3.1255	0.0784	0.0112	-0.0108	-11.2418	9.8511	-3.7438	-0.1428	0.1717	-0.5580	0.7991
0.18	0.8666	-10.1117	3.0602	0.1310	0.0206	-0.0175	-11.3707	10.1249	-3.5123	-0.1429	0.1716	-0.5576	0.7996
0.19	0.8222	-9.9102	2.9971	0.2051	0.0200	-0.0216	-11.2531	9.9560	-3.3784	-0.1430	0.1713	-0.5568	0.8001
0.2	0.7896	-9.6666	2.8947	0.2527	0.0164	-0.0197	-11.3149	10.0638	-3.6946	-0.1431	0.1711	-0.5558	0.8008
0.21	0.7523	-9.3152	2.8018	0.2996	0.0079	-0.0298	-11.3189	9.9500	-3.6669	-0.1433	0.1709	-0.5546	0.8016
0.22	0.7408	-9.0957	2.9307	0.3121	0.0117	-0.0147	-11.3761	9.8938	-3.7013	-0.1435	0.1706	-0.5534	0.8025
0.23	0.6884	-9.1762	3.0780	0.2865	0.0155	-0.0007	-11.3910	9.9821	-3.6362	-0.1437	0.1703	-0.5522	0.8034
0.24	0.6752	-9.3537	3.2299	0.2652	-0.0031	-0.0036	-11.2443	9.6806	-3.8627	-0.1440	0.1700	-0.5511	0.8040
0.25	0.6914	-9.4429	3.3680	0.2379	-0.0181	-0.0031	-11.2052	9.5134	-3.9434	-0.1443	0.1699	-0.5502	0.8048
0.26	0.6900	-9.4121	3.4443	0.2281	-0.0227	-0.0091	-11.2045	9.5284	-3.9918	-0.1445	0.1698	-0.5493	0.8053
0.27	0.7155	-9.3438	3.4796	0.2159	-0.0402	-0.0176	-11.2036	9.5243	-4.0509	-0.1448	0.1698	-0.5484	0.8060
0.28	0.7467	-9.3216	3.5130	0.1886	-0.0460	-0.0143	-11.0559	9.5301	-4.1362	-0.1451	0.1698	-0.5475	0.8064
0.29	0.7679	-9.3240	3.5422	0.1843	-0.0509	-0.0076	-11.0415	9.4080	-3.9899	-0.1454	0.1699	-0.5468	0.8069
0.3	0.7952	-9.2484	3.5721	0.1989	-0.0499	-0.0039	-11.3470	9.4860	-4.1209	-0.1457	0.1699	-0.5460	0.8074
0.31	0.8285	-9.1273	3.6383	0.2146	-0.0561	-0.0011	-11.1441	9.6157	-4.0515	-0.1461	0.1699	-0.5451	0.8078
0.32	0.8814	-9.0472	3.7227	0.2284	-0.0620	0.0056	-11.3047	9.6102	-4.1351	-0.1466	0.1699	-0.5442	0.8085
0.33	0.9465	-8.9718	3.8100	0.2275	-0.0574	0.0111	-11.2192	9.6166	-4.1343	-0.1470	0.1699	-0.5432	0.8090
0.34	0.9958	-8.8912	3.8915	0.2368	-0.0543	0.0169	-10.5494	9.8155	-4.1423	-0.1475	0.1699	-0.5423	0.8096
0.35	1.0263	-8.7849	3.9780	0.2338	-0.0541	0.0206	-10.6986	9.7316	-4.0596	-0.1479	0.1698	-0.5412	0.8101
0.36	1.0490	-8.7498	4.1043	0.2256	-0.0503	0.0205	-10.8557	9.5878	-4.0721	-0.1484	0.1697	-0.5404	0.8107
0.37	1.0841	-8.8165	4.1816	0.2128	-0.0552	0.0190	-11.1439	9.7689	-4.2824	-0.1488	0.1697	-0.5395	0.8112
0.38	1.1010	-8.8186	4.2457	0.2135	-0.0571	0.0060	-11.1788	9.5438	-4.2936	-0.1493	0.1697	-0.5386	0.8117
0.39	1.1115	-8.7326	4.2399	0.2105	-0.0603	0.0054	-11.2823	9.6965	-4.3000	-0.1497	0.1697	-0.5377	0.8122
0.4	1.1475	-8.5393	4.2311	0.1953	-0.0774	0.0073	-11.3455	9.4031	-4.2775	-0.1501	0.1698	-0.5369	0.8127
0.41	1.2329	-8.4548	4.2666	0.1651	-0.0833	0.0072	-11.3537	9.6714	-4.1228	-0.1506	0.1699	-0.5361	0.8131
0.42	1.3577	-8.4929	4.3121	0.1262	-0.0981	0.0166	-11.2522	9.5950	-4.5072	-0.1510	0.1701	-0.5355	0.8132
0.43	1.4691	-8.6256	4.3770	0.0819	-0.1046	0.0318	-11.0426	9.5814	-4.5661	-0.1516	0.1703	-0.5352	0.8134
0.44	1.5488	-8.7911	4.4080	0.0654	-0.0895	0.0502	-11.0736	9.7432	-4.4547	-0.1521	0.1705	-0.5349	0.8134
0.45	1.6011	-8.8276	4.4354	0.0602	-0.0846	0.0656	-10.8505	9.5182	-4.4982	-0.1527	0.1706	-0.5346	0.8135
0.46	1.5931	-8.8319	4.3862	0.0478	-0.0610	0.0810	-11.1168	9.3868	-4.4521	-0.1533	0.1705	-0.5345	0.8135
0.47	1.5661	-8.6034	4.3807	0.0535	-0.0429	0.0918	-11.1618	9.5538	-4.6371	-0.1539	0.1704	-0.5343	0.8135
0.48	1.5554	-8.4625	4.4122	0.0360	-0.0236	0.0946	-10.9875	9.6072	-4.4547	-0.1544	0.1701	-0.5342	0.8135
0.49	1.5729	-8.5484	4.3883	-0.0016	0.0085	0.0960	-10.9882	9.5001	-4.5811	-0.1548	0.1698	-0.5343	0.8134
0.5	1.5156	-8.6882	4.3546	-0.0422	0.0274	0.0933	-10.9801	9.4890	-4.5335	-0.1552	0.1694	-0.5346	0.8133
0.51	1.3507	-8.8406	4.2243	-0.0621	0.0463	0.0967	-10.9849	9.6750	-4.6638	-0.1555	0.1689	-0.5349	0.8131
0.52	1.2362	-8.8180	4.1284	-0.0631	0.0436	0.1089	-10.9766	9.5975	-4.5227	-0.1558	0.1684	-0.5353	0.8130
0.53	1.2124	-8.8876	4.0858	-0.0621	0.0407	0.1109	-10.9889	9.6585	-4.4603	-0.1562	0.1678	-0.5356	0.8127
0.54	1.2220	-8.9673	4.0434	-0.0642	0.0511	0.1051	-10.9637	9.9297	-4.4773	-0.1565	0.1673	-0.5360	0.8126
0.55	1.1792	-9.0063	3.9693	-0.0572	0.0427	0.1020	-10.6612	9.7480	-4.3583	-0.1569	0.1668	-0.5363	0.8124
0.56	1.1252	-9.0504	3.9142	-0.0536	0.0463	0.1083	-10.9023	9.8514	-4.3988	-0.1572	0.1662	-0.5366	0.8122
0.57	1.0885	-9.1382	3.8665	-0.0396	0.0418	0.1078	-10.8780	9.9280	-4.4895	-0.1576	0.1657	-0.5369	0.8121
0.58	1.0423	-9.0839	3.8150	-0.0183	0.0335	0.1146	-10.9239	9.9992	-4.6254	-0.1580	0.1652	-0.5371	0.8119
0.59	0.9896	-8.9603	3.7878	-0.0089	0.0428	0.1121	-10.7695	9.9760	-4.2703	-0.1584	0.1647	-0.5372	0.8120
0.6	0.9849	-8.9168	3.7369	-0.0199	0.0358	0.1083	-10.5955	9.9244	-4.5041	-0.1588	0.1641	-0.5373	0.8118
0.61	1.0043	-8.9114	3.6978	-0.0172	0.0265	0.1174	-10.6367	10.0546	-4.4518	-0.1593	0.1636	-0.5375	0.8118
0.62	1.0163	-8.9255	3.6799	-0.0258	0.0304	0.1202	-10.6145	9.8614	-4.3954	-0.1598	0.1631	-0.5377	0.8116
0.63	1.0328	-8.9241	3.6655	-0.0284	0.0449	0.1293	-10.3515	9.8311	-4.6092	-0.1602	0.1624	-0.5379	0.8115
0.64	1.0249	-8.9040	3.6316	-0.0272	0.0520	0.1394	-10.3743	9.9814	-4.5538	-0.1607	0.1618	-0.5382	0.8114
0.65	1.0067	-8.9126	3.6109	-0.0524	0.0619	0.1414	-10.3111	9.7515	-4.4680	-0.1611	0.1611	-0.5385	0.8112
0.66	0.9288	-8.9715	3.6080	-0.0647	0.0820	0.1505	-10.2956	9.8848	-4.6930	-0.1616	0.1603	-0.5389	0.8111
0.67	0.8033	-9.0488	3.5742	-0.0811	0.1042	0.1636	-10.4836	10.0320	-4.5612	-0.1620	0.1594	-0.5393	0.8107
0.68	0.7251	-9.0771	3.5654	-0.0840	0.1165	0.1581	-10.3131	10.1706	-4.4921	-0.1623	0.1585	-0.5399	0.8106
0.69	0.6467	-9.0597	3.5611	-0.0791	0.1174	0.1589	-10.2339	10.3212	-4.4388	-0.1627	0.1576	-0.5404	0.8103
0.7	0.5683	-9.1236	3.5860	-0.0824	0.1231	0.1470	-10.0317	10.0641	-4.1317	-0.1630	0.1566	-0.5409	0.8102
0.71	0.4740	-9.3009	3.6273	-0.0855	0.1226	0.1410	-9.8631	10.3358	-4.4712	-0.1632	0.1558	-0.5414	0.8099
0.72	0.4055	-9.4265	3.6506	-0.0809	0.1238	0.1242	-10.2210	10.2638	-4.3124	-0.1633	0.1549	-0.5420	0.8097
0.73	0.3663	-9.5010	3.6796	-0.0533	0.1187	0.1115	-10.2322	10.3531	-4.3852	-0.1635	0.1542	-0.5424	0.8095
0.74	0.3444	-9.5515	3.6707	-0.0311	0.1211	0.1011	-10.0786	10.4034	-4.3756	-0.1636	0.1534	-0.5427	0.8094
0.75	0.3455	-9.4668	3.6507	0.0059	0.1021	0.0893	-9.9608	10.3631	-4.4652	-0.1637	0.1527	-0.5429	0.8095
0.76	0.3632	-9.3342	3.6503	0.0220	0.0992	0.0634	-9.9191	10.4265	-4.5500	-0.1638	0.1520	-0.5429	0.8095
0.77	0.3814	-9.3101	3.6289	0.0190	0.1021	0.0442	-10.0486	10.5080	-4.2901	-0.1638	0.1514	-0.5430	0.8096
0.78	0.3965	-9.2974	3.6030	0.0184	0.1044	0.0233	-9.8637	10.3677	-4.2096	-0.1636	0.1508	-0.5430	0.8096
0.79	0.4063	-9.2572	3.5768	0.0101	0.0926	0.0138	-9.9526	10.4044	-4.1255	-0.1635	0.1504	-0.5431	0.8098
0.8	0.4376	-9.2794	3.5524	-0.0044	0.0925	-0.0043	-9.9870	10.3561	-4.4260	-0.1633	0.1500	-0.5432	0.8098
0.81	0.4403	-9.3260	3.5483	-0.0055	0.1002	-0.0166	-9.7193	10.4774	-4.3850	-0.1630	0.1495	-0.5432	0.8099
0.82	0.4271	-9.3991	3.5736	-0.0074	0.1020	-0.0262	-9.7206	10.4663	-4.3990	-0.1627	0.1492	-0.5434	0.8100
0.83	0.4013	-9.4371	3.5918	-0.0041	0.1046	-0.0323	-9.7439	10.3646	-4.5643	-0.1623	0.1488	-0.5434	0.8101
0.84	0.4067	-9.4414	3.6438	0.0063	0.1001	-0.0288	-9.4071	10.4020	-4.5462	-0.1620	0.1484	-0.5435	0.8102
0.85	0.4330	-9.5330	3.7025	0.0136	0.0881	-0.0266	-8.9036	10.3671	-4.2942	-0.1616	0.1480	-0.5434	0.8102
0.86	0.4541	-9.5655	3.7280	0.0208	0.0837	-0.0214	-9.3823	10.1857	-4.5442	-0.1614	0.1477	-0.5435	0.8104
0.87	0.4583	-9.5113	3.7213	0.0244	0.0833	-0.0126	-9.7222	10.0840	-4.8455	-0.1612	0.1473	-0.5434	0.8106
0.88	0.4490	-9.4132	3.6781	0.0214	0.0759	-0.0076	-9.6903	10.4130	-4.7938	-0.1610	0.1470	-0.5434	0.8107
0.89	0.4225	-9.2835	3.6259	0.0130	0.0677	0.0032	-9.8384	10.4046	-4.5653	-0.1609	0.1466	-0.5434	0.8108
0.9	0.3631	-9.2403	3.5822	-0.0168	0.0722	0.0094	-9.7212	10.3052	-4.5649	-0.1608	0.1463	-0.5435	0.8108
0.91	0.3187	-9.3285	3.5622	-0.0423	0.0662	0.0157	-9.7394	10.5500	-4.6587	-0.1607	0.1460	-0.5438	0.8107
0.92	0.3046	-9.4301	3.5350	-0.0564	0.0527	0.0211	-9.9014	10.6828	-4.6958	-0.1606	0.1457	-0.5440	0.8105
0.93	0.2953	-9.4645	3.5243	-0.0494	0.0432	0.0297	-9.6603	10.5497	-4.5716	-0.1606	0.1454	-0.5443	0.8105
0.94	0.3136	-9.5047	3.5389	-0.0315	0.0359	0.0432	-9.7179	10.6357	-4.7340	-0.1607	0.1451	-0.5445	0.8103
0.95	0.3345	-9.5604	3.5621	-0.0261	0.0287	0.0561	-9.6804	10.7064	-4.6002	-0.1609	0.1449	-0.5447	0.8102
0.96	0.3264	-9.5472	3.5907	0.0079	0.0350	0.0676	-9.7890	10.5575	-4.4725	-0.1611	0.1445	-0.5447	0.8102
0.97	0.3042	-9.4698	3.6176	0.0274	0.0360	0.0789	-9.8075	10.6217	-4.6573	-0.1614	0.1441	-0.5447	0.8102
0.98	0.2828	-9.3853	3.6257	0.0418	0.0329	0.0955	-9.9160	10.6905	-4.6786	-0.1617	0.1436	-0.5447	0.8103
0.99	0.2380	-9.2719	3.6443	0.0536	0.0376	0.0949	-9.7859	10.6588	-4.7738	-0.1621	0.1431	-0.5445	0.8103
1	0.1579	-9.1841	3.6608	0.0502	0.0477	0.0959	-9.6899	10.5844	-4.7733	-0.1624	0.1426	-0.5445	0.8105
1.01	0.0950	-9.1069	3.6785	0.0470	0.0376	0.0955	-9.3905	10.4081	-4.7771	-0.1628	0.1420	-0.5444	0.8105
1.02	0.0493	-9.0499	3.6823	0.0304	0.0371	0.0922	-9.3164	10.2196	-4.7354	-0.1632	0.1416	-0.5444	0.8106
1.03	0.0164	-8.9376	3.6844	0.0158	0.0374	0.0798	-9.4620	10.3052	-4.8783	-0.1634	0.1411	-0.5443	0.8105
1.04	-0.0272	-8.9104	3.7009	-0.0042	0.0352	0.0777	-9.2925	10.4853	-4.9438	-0.1637	0.1407	-0.5445	0.8105
1.05	-0.0672	-8.9234	3.6640	-0.0347	0.0379	0.0728	-9.4231	10.6163	-4.8302	-0.1639	0.1404	-0.5447	0.8104
1.06	-0.1222	-8.8911	3.6409	-0.0503	0.0316	0.0644	-9.3819	10.2598	-4.8797	-0.1641	0.1400	-0.5449	0.8102
1.07	-0.1648	-8.8882	3.6284	-0.0688	0.0254	0.0573	-9.2124	10.5694	-4.7361	-0.1643	0.1398	-0.5453	0.8101
1.08	-0.1651	-8.8638	3.6332	-0.0826	0.0068	0.0444	-9.1585	10.5564	-4.9393	-0.1644	0.1397	-0.5457	0.8098
1.09	-0.1425	-8.9100	3.6058	-0.1009	-0.0022	0.0325	-9.1480	10.6900	-4.7108	-0.1645	0.1396	-0.5461	0.8095
1.1	-0.1090	-8.9302	3.6441	-0.1189	-0.0066	0.0237	-9.2524	10.5677	-4.5687	-0.1646	0.1396	-0.5465	0.8091
1.11	-0.0775	-9.1796	3.6194	-0.1410	-0.0130	0.0140	-9.3681	10.6299	-4.7013	-0.1647	0.1397	-0.5472	0.8087
1.12	-0.0411	-9.1138	3.5734	-0.1336	-0.0158	-0.0024	-9.3300	10.6324	-4.5071	-0.1646	0.1398	-0.5477	0.8083
1.13	-0.0266	-9.0711	3.5764	-0.1338	-0.0151	-0.0098	-9.3519	10.6225	-4.7804	-0.1646	0.1400	-0.5482	0.8079
1.14	0.0063	-9.1976	3.5714	-0.1379	-0.0115	-0.0203	-9.3277	10.8953	-4.6800	-0.1645	0.1401	-0.5488	0.8076
1.15	0.0270	-9.3143	3.5561	-0.1536	-0.0090	-0.0297	-9.3583	10.8328	-4.5544	-0.1644	0.1403	-0.5493	0.8072
1.16	0.0290	-9.4026	3.4963	-0.1386	-0.0063	-0.0315	-9.2777	10.8532	-4.6471	-0.1642	0.1405	-0.5499	0.8068
1.17	0.0305	-9.3946	3.4744	-0.1316	-0.0038	-0.0310	-9.2320	10.8745	-4.3865	-0.1640	0.1407	-0.5503	0.8064
1.18	0.0200	-9.4076	3.4331	-0.1320	-0.0079	-0.0355	-9.2694	10.7141	-4.3205	-0.1639	0.1409	-0.5509	0.8061
1.19	0.0196	-9.3732	3.4059	-0.1192	-0.0122	-0.0332	-9.0440	10.5433	-4.4339	-0.1637	0.1411	-0.5514	0.8058
1.2	0.0142	-9.3734	3.3942	-0.1074	-0.0143	-0.0383	-8.9318	10.6235	-4.3889	-0.1636	0.1413	-0.5518	0.8055
1.21	0.0382	-9.3961	3.3932	-0.1091	-0.0186	-0.0446	-9.1991	10.4778	-4.4097	-0.1634	0.1415	-0.5521	0.8052
1.22	0.0839	-9.4294	3.3945	-0.0977	-0.0226	-0.0469	-9.2690	10.5236	-4.2563	-0.1633	0.1418	-0.5525	0.8050
1.23	0.1416	-9.4646	3.3864	-0.0806	-0.0315	-0.0543	-9.2459	10.8545	-4.3814	-0.1631	0.1421	-0.5528	0.8048
1.24	0.2086	-9.4516	3.3747	-0.0822	-0.0362	-0.0613	-9.2539	10.7746	-4.0894	-0.1630	0.1424	-0.5530	0.8045
1.25	0.2835	-9.4399	3.3577	-0.0814	-0.0419	-0.0589	-9.2398	10.6568	-4.2761	-0.1628	0.1428	-0.5533	0.8044
1.26	0.3514	-9.4541	3.3388	-0.0810	-0.0419	-0.0531	-9.4312	10.8212	-4.4371	-0.1627	0.1431	-0.5536	0.8041
1.27	0.3807	-9.4873	3.3249	-0.0825	-0.0427	-0.0461	-9.3715	10.6549	-4.4051	-0.1626	0.1434	-0.5539	0.8040
1.28	0.3960	-9.5247	3.3130	-0.0833	-0.0215	-0.0394	-9.2463	10.7826	-4.2999	-0.1625	0.1436	-0.5541	0.8036
1.29	0.4076	-9.5857	3.3220	-0.0894	-0.0139	-0.0301	-9.2346	10.8637	-4.2173	-0.1624	0.1438	-0.5545	0.8035
1.3	0.3812	-9.6358	3.3107	-0.0852	0.0024	-0.0243	-9.1367	10.8620	-4.1848	-0.1623	0.1439	-0.5548	0.8032
1.31	0.3496	-9.5876	3.3018	-0.0781	0.0107	-0.0225	-9.5361	10.8161	-4.0551	-0.1622	0.1439	-0.5551	0.8030
1.32	0.3140	-9.5444	3.3001	-0.0601	0.0042	-0.0227	-9.5141	11.0993	-3.8100	-0.1621	0.1440	-0.5554	0.8029
1.33	0.3531	-9.5364	3.3002	-0.0460	-0.0021	-0.0292	-9.5276	10.9207	-3.9372	-0.1620	0.1441	-0.5555	0.8027
1.34	0.4040	-9.4850	3.3312	-0.0399	-0.0093	-0.0314	-9.2360	10.8762	-4.0852	-0.1619	0.1442	-0.5557	0.8027
1.35	0.4282	-9.4679	3.3531	-0.0300	-0.0017	-0.0294	-8.9823	11.0457	-4.0222	-0.1618	0.1442	-0.5557	0.8025
1.36	0.4548	-9.4682	3.3800	-0.0308	0.0122	-0.0208	-9.3604	10.7749	-4.0029	-0.1617	0.1442	-0.5559	0.8025
1.37	0.4469	-9.4857	3.4010	-0.0327	0.0194	-0.0100	-9.6048	10.8276	-4.1707	-0.1616	0.1442	-0.5560	0.8024
1.38	0.4043	-9.4668	3.4089	-0.0221	0.0321	-0.0067	-9.4252	10.5522	-4.0553	-0.1615	0.1440	-0.5561	0.8024
1.39	0.3452	-9.4351	3.4033	-0.0123	0.0499	-0.0070	-9.2452	10.7042	-4.1396	-0.1614	0.1438	-0.5563	0.8024
1.4	0.2837	-9.3712	3.3890	-0.0283	0.0593	-0.0073	-9.4972	10.7511	-4.0498	-0.1612	0.1436	-0.5564	0.8024
1.41	0.1949	-9.3448	3.3760	-0.0208	0.0598	0.0011	-9.5356	10.6205	-4.0435	-0.1611	0.1433	-0.5566	0.8024
1.42	0.1171	-9.3252	3.3597	-0.0147	0.0557	-0.0016	-9.3626	10.7878	-4.1576	-0.1610	0.1431	-0.5566	0.8023
1.43	0.0878	-9.2861	3.3599	-0.0224	0.0505	-0.0065	-9.2685	10.6234	-4.2460	-0.1609	0.1429	-0.5568	0.8023
1.44	0.0993	-9.2765	3.3440	-0.0185	0.0321	-0.0097	-9.3427	10.9176	-4.1182	-0.1607	0.1427	-0.5569	0.8023
1.45	0.1600	-9.2346	3.3375	-0.0216	0.0156	-0.0095	-9.3897	11.1012	-4.1950	-0.1607	0.1427	-0.5570	0.8023
1.46	0.2055	-9.2313	3.3393	-0.0294	0.0058	-0.0070	-9.3723	10.7706	-4.0290	-0.1607	0.1426	-0.5571	0.8022
1.47	0.2609	-9.2781	3.3374	-0.0429	0.0098	-0.0086	-9.5012	10.9390	-4.0957	-0.1606	0.1426	-0.5573	0.8021
1.48	0.3061	-9.3370	3.3359	-0.0517	0.0021	-0.0063	-9.4204	10.8337	-3.9948	-0.1606	0.1426	-0.5575	0.8019
1.49	0.3199	-9.3751	3.3248	-0.0534	0.0118	-0.0053	-9.2686	11.0128	-3.9649	-0.1605	0.1426	-0.5577	0.8017
1.5	0.3142	-9.3943	3.3110	-0.0407	0.0210	-0.0022	-9.3106	11.1145	-3.9734	-0.1605	0.1425	-0.5579	0.8017
1.51	0.3066	-9.3795	3.3087	-0.0286	0.0184	0.0048	-9.3884	10.8438	-4.1485	-0.1605	0.1424	-0.5580	0.8016
1.52	0.3000	-9.3846	3.3157	-0.0214	0.0187	0.0033	-9.4259	10.7845	-4.0991	-0.1605	0.1423	-0.5582	0.8016
1.53	0.3019	-9.4014	3.3282	-0.0075	0.0204	0.0089	-9.5157	10.7380	-3.9551	-0.1605	0.1421	-0.5582	0.8015
1.54	0.3039	-9.3889	3.3365	-0.0051	0.0273	0.0137	-9.3958	10.9032	-3.9629	-0.1605	0.1419	-0.5583	0.8015
1.55	0.2963	-9.3583	3.3418	-0.0009	0.0264	0.0173	-9.4386	10.9592	-4.0163	-0.1606	0.1417	-0.5583	0.8015
1.56	0.2845	-9.3316	3.3535	-0.0040	0.0239	0.0194	-9.4265	10.8610	-4.1580	-0.1606	0.1415	-0.5584	0.8014
1.57	0.2742	-9.3447	3.3622	-0.0038	0.0227	0.0150	-9.0369	10.7363	-4.1602	-0.1607	0.1414	-0.5585	0.8015
1.58	0.2832	-9.3429	3.3640	-0.0074	0.0232	0.0141	-9.4601	10.7775	-4.1187	-0.1607	0.1412	-0.5585	0.8014
1.59	0.2959	-9.3255	3.3657	-0.0186	0.0285	0.0041	-9.4217	10.7015	-4.0059	-0.1607	0.1410	-0.5586	0.8015
1.6	0.3066	-9.3205	3.3735	-0.0276	0.0162	0.0071	-9.2672	10.5536	-3.8318	-0.1607	0.1408	-0.5586	0.8013
1.61	0.3069	-9.3337	3.3789	-0.0276	0.0257	0.0107	-9.3004	10.7254	-4.0618	-0.1607	0.1407	-0.5588	0.8013
1.62	0.3117	-9.3601	3.3843	-0.0298	0.0350	0.0174	-9.2818	10.9283	-3.9544	-0.1607	0.1404	-0.5589	0.8013
1.63	0.2955	-9.3698	3.3896	-0.0326	0.0348	0.0243	-9.2884	10.9573	-3.9009	-0.1608	0.1402	-0.5591	0.8012
1.64	0.2710	-9.3547	3.3737	-0.0341	0.0381	0.0312	-9.3805	10.7334	-4.2258	-0.1608	0.1400	-0.5593	0.8011
1.65	0.2382	-9.3268	3.3575	-0.0368	0.0467	0.0329	-9.2627	10.7634	-3.9455	-0.1609	0.1396	-0.5595	0.8010
1.66	0.2064	-9.3033	3.3397	-0.0323	0.0473	0.0369	-9.1041	10.7728	-3.8163	-0.1609	0.1393	-0.5597	0.8010
1.67	0.1900	-9.2637	3.3055	-0.0366	0.0391	0.0376	-9.1856	11.1344	-4.0936	-0.1610	0.1389	-0.5598	0.8008
1.68	0.1919	-9.2667	3.2770	-0.0424	0.0373	0.0341	-9.4162	10.9932	-4.0470	-0.1611	0.1386	-0.5600	0.8008
1.69	0.2002	-9.3074	3.2489	-0.0564	0.0435	0.0290	-9.1971	11.0588	-3.7862	-0.1611	0.1383	-0.5603	0.8006
1.7	0.1942	-9.3810	3.2346	-0.0574	0.0308	0.0280	-9.2084	10.8909	-4.0857	-0.1612	0.1381	-0.5605	0.8005
1.71	0.1776	-9.4652	3.2279	-0.0556	0.0356	0.0269	-9.1873	10.7098	-4.0353	-0.1612	0.1379	-0.5608	0.8003
1.72	0.1633	-9.4872	3.2226	-0.0436	0.0345	0.0375	-9.3457	10.9447	-4.1306	-0.1613	0.1376	-0.5610	0.8002
1.73	0.1343	-9.5114	3.2287	-0.0325	0.0316	0.0431	-9.3699	11.0536	-4.1108	-0.1614	0.1373	-0.5612	0.8001
1.74	0.1091	-9.5363	3.2479	-0.0149	0.0369	0.0437	-9.0871	10.9981	-4.0663	-0.1615	0.1370	-0.5613	0.7999
1.75	0.0640	-9.5634	3.2550	0.0112	0.0356	0.0437	-9.0199	11.1535	-3.9439	-0.1616	0.1367	-0.5614	0.8000
1.76	0.0107	-9.5600	3.2712	0.0207	0.0345	0.0413	-8.9999	10.9220	-3.8873	-0.1617	0.1364	-0.5614	0.8000
1.77	-0.0138	-9.5391	3.2922	0.0401	0.0419	0.0351	-9.1047	11.0351	-3.7947	-0.1618	0.1361	-0.5614	0.8002
1.78	-0.0181	-9.5042	3.3085	0.0630	0.0383	0.0198	-9.0305	10.9190	-3.8837	-0.1619	0.1358	-0.5611	0.8003
1.79	-0.0134	-9.4541	3.3490	0.0797	0.0350	0.0152	-8.8839	10.9779	-3.9796	-0.1620	0.1355	-0.5609	0.8005
1.8	0.0052	-9.4285	3.3863	0.0983	0.0292	0.0074	-8.9896	11.1885	-3.8272	-0.1620	0.1352	-0.5605	0.8008
1.81	0.0247	-9.3889	3.4272	0.1048	0.0311	-0.0029	-9.0991	10.9896	-3.9777	-0.1620	0.1350	-0.5601	0.8011
1.82	0.0316	-9.3324	3.4794	0.1235	0.0286	-0.0072	-9.0453	11.0533	-4.0767	-0.1621	0.1347	-0.5597	0.8015
1.83	0.0430	-9.2735	3.5263	0.1225	0.0255	-0.0125	-8.9350	10.9789	-4.0550	-0.1621	0.1345	-0.5592	0.8018
1.84	0.0425	-9.2458	3.5726	0.1066	0.0261	-0.0296	-8.5515	10.9367	-3.8276	-0.1620	0.1344	-0.5588	0.8022
1.85	0.0326	-9.2258	3.6021	0.0874	0.0272	-0.0317	-8.6223	10.9129	-3.5848	-0.1619	0.1342	-0.5584	0.8024
1.86	0.0317	-9.1727	3.6260	0.0711	0.0270	-0.0309	-8.9530	10.8875	-3.8340	-0.1618	0.1341	-0.5582	0.8027
1.87	0.0234	-9.1300	3.6336	0.0637	0.0247	-0.0322	-9.1567	11.1222	-4.0852	-0.1617	0.1340	-0.5579	0.8029
1.88	0.0286	-9.1122	3.6171	0.0332	0.0223	-0.0299	-9.1084	10.9409	-4.1138	-0.1616	0.1339	-0.5578	0.8030
1.89	0.0320	-9.1008	3.6045	0.0155	0.0131	-0.0137	-8.9562	10.7892	-4.1038	-0.1615	0.1338	-0.5578	0.8031
1.9	0.0365	-9.1094	3.5881	-0.0107	0.0106	-0.0079	-9.0360	11.0144	-4.4043	-0.1615	0.1337	-0.5578	0.8031
1.91	0.0469	-9.1409	3.5756	-0.0260	0.0040	-0.0049	-9.0745	11.1261	-4.3482	-0.1616	0.1336	-0.5579	0.8030
1.92	0.0566	-9.1677	3.5713	-0.0455	-0.0080	0.0129	-9.1678	10.9966	-4.1933	-0.1617	0.1336	-0.5580	0.8028
1.93	0.0713	-9.2137	3.5628	-0.0559	-0.0114	0.0162	-9.1503	10.8778	-4.2209	-0.1618	0.1335	-0.5582	0.8028
1.94	0.0947	-9.2427	3.5603	-0.0572	-0.0150	0.0213	-8.8694	10.6458	-4.3385	-0.1620	0.1335	-0.5584	0.8025
1.95	0.1071	-9.2772	3.5757	-0.0633	0.0013	0.0281	-8.7070	10.6688	-4.1824	-0.1621	0.1334	-0.5587	0.8024
1.96	0.0886	-9.3239	3.5806	-0.0678	0.0066	0.0299	-8.7432	10.6376	-4.3102	-0.1622	0.1333	-0.5590	0.8021
1.97	0.0459	-9.3009	3.5742	-0.0575	0.0112	0.0318	-8.6796	10.6791	-4.4100	-0.1623	0.1331	-0.5593	0.8019
1.98	0.0323	-9.2548	3.5629	-0.0578	0.0195	0.0296	-9.0414	10.7833	-4.3515	-0.1624	0.1329	-0.5595	0.8018
1.99	0.0304	-9.2224	3.5598	-0.0571	0.0199	0.0203	-9.0179	10.9562	-4.1583	-0.1625	0.1327	-0.5597	0.8016
2	-0.0046	-9.2189	3.5526	-0.0567	0.0362	0.0123	-8.7695	10.7524	-4.3735	-0.1625	0.1325	-0.5601	0.8015
2.01	-0.0610	-9.1809	3.5449	-0.0589	0.0336	0.0091	-8.8069	10.8208	-4.3071	-0.1625	0.1323	-0.5603	0.8013
2.02	-0.1159	-9.2291	3.5955	-0.0504	0.0301	0.0155	-8.8850	10.9510	-4.1546	-0.1625	0.1321	-0.5606	0.8013
2.03	-0.1541	-9.3754	3.6272	-0.0568	0.0349	0.0173	-8.8118	10.9078	-4.3192	-0.1625	0.1319	-0.5608	0.8010
2.04	-0.1564	-9.4636	3.5975	-0.0358	0.0263	0.0212	-8.8034	10.8851	-4.1757	-0.1625	0.1317	-0.5610	0.8009
2.05	-0.1374	-9.3536	3.5738	-0.0071	0.0168	0.0137	-8.9912	11.0212	-4.1948	-0.1626	0.1316	-0.5611	0.8009
2.06	-0.1068	-9.2502	3.5500	-0.0071	0.0009	0.0128	-8.9757	11.1369	-3.9854	-0.1626	0.1315	-0.5611	0.8008
2.07	-0.0697	-9.2701	3.5789	-0.0200	-0.0024	0.0057	-8.9971	10.9599	-4.1690	-0.1627	0.1315	-0.5613	0.8008
2.08	-0.0478	-9.4884	3.5805	-0.0280	-0.0115	0.0109	-8.9621	11.1718	-4.0509	-0.1628	0.1315	-0.5614	0.8006
2.09	-0.0448	-9.5701	3.5300	-0.0016	-0.0096	0.0059	-9.0562	11.1789	-4.0683	-0.1629	0.1314	-0.5615	0.8007
2.1	-0.0325	-9.4535	3.5195	0.0243	-0.0067	0.0077	-9.0906	11.1811	-4.2505	-0.1630	0.1314	-0.5613	0.8006
2.11	-0.0214	-9.2763	3.4995	0.0425	-0.0143	0.0182	-8.9534	11.0598	-4.0651	-0.1632	0.1313	-0.5612	0.8007
2.12	-0.0272	-9.2403	3.5217	0.0313	-0.0141	0.0143	-8.8463	10.9542	-4.3751	-0.1634	0.1313	-0.5611	0.8008
2.13	-0.0176	-9.3558	3.5394	0.0168	-0.0059	0.0105	-8.7416	10.8105	-4.3274	-0.1635	0.1312	-0.5610	0.8008
2.14	0.0060	-9.4403	3.5412	0.0199	-0.0014	0.0175	-8.5994	10.9369	-4.0901	-0.1636	0.1311	-0.5610	0.8008
2.15	-0.0023	-9.3896	3.5303	0.0294	0.0062	0.0152	-8.5421	10.7642	-3.9627	-0.1637	0.1310	-0.5609	0.8009
2.16	-0.0288	-9.2903	3.5194	0.0299	0.0148	0.0125	-8.7132	10.7689	-4.1531	-0.1638	0.1308	-0.5609	0.8010
2.17	-0.0540	-9.2211	3.4983	0.0221	0.0257	0.0146	-8.7363	10.9522	-4.3231	-0.1639	0.1306	-0.5607	0.8009
2.18	-0.0786	-9.2076	3.4726	0.0110	0.0391	0.0093	-8.5668	10.8864	-4.0787	-0.1639	0.1304	-0.5608	0.8011
2.19	-0.1029	-9.2016	3.4425	-0.0097	0.0362	0.0065	-8.7447	10.8250	-4.0928	-0.1638	0.1302	-0.5609	0.8010
2.2	-0.1430	-9.1975	3.4245	-0.0099	0.0432	-0.0050	-8.8403	10.8043	-3.9572	-0.1637	0.1300	-0.5610	0.8010
2.21	-0.1812	-9.1992	3.4039	-0.0269	0.0374	-0.0076	-8.6989	11.0263	-4.2555	-0.1636	0.1298	-0.5611	0.8009
2.22	-0.2199	-9.2140	3.3937	-0.0376	0.0373	-0.0130	-8.8321	11.0958	-4.0362	-0.1635	0.1297	-0.5613	0.8009
2.23	-0.2453	-9.2831	3.3857	-0.0458	0.0487	-0.0149	-8.7989	11.1065	-4.2508	-0.1634	0.1294	-0.5615	0.8008
2.24	-0.2566	-9.2977	3.3692	-0.0420	0.0360	-0.0203	-8.7953	11.0014	-4.0001	-0.1632	0.1293	-0.5617	0.8006
2.25	-0.2488	-9.2804	3.3594	-0.0529	0.0224	-0.0238	-8.8377	11.1196	-4.1690	-0.1631	0.1292	-0.5619	0.8006
2.26	-0.2284	-9.2859	3.3418	-0.0546	0.0203	-0.0327	-8.8825	11.1978	-4.3250	-0.1630	0.1292	-0.5621	0.8005
2.27	-0.2091	-9.2918	3.3487	-0.0551	0.0147	-0.0324	-8.7500	11.1771	-4.0852	-0.1629	0.1292	-0.5624	0.8004
2.28	-0.1732	-9.3289	3.3496	-0.0562	0.0132	-0.0224	-8.9360	11.1861	-4.1376	-0.1628	0.1291	-0.5625	0.8002
2.29	-0.1334	-9.3749	3.3538	-0.0549	0.0131	-0.0272	-8.7254	11.0582	-4.0994	-0.1627	0.1291	-0.5628	0.8001
2.3	-0.0999	-9.3966	3.3483	-0.0568	0.0072	-0.0252	-8.7638	11.1235	-4.1428	-0.1625	0.1291	-0.5630	0.8000
2.31	-0.0731	-9.3838	3.3364	-0.0579	0.0096	-0.0201	-8.8432	11.0028	-4.0241	-0.1624	0.1291	-0.5632	0.7997
2.32	-0.0513	-9.3610	3.3359	-0.0505	0.0182	-0.0319	-8.5811	10.9116	-4.0241	-0.1623	0.1291	-0.5635	0.7997
2.33	-0.0241	-9.3854	3.3362	-0.0493	0.0268	-0.0295	-8.5228	10.9163	-3.8513	-0.1622	0.1290	-0.5637	0.7996
2.34	-0.0259	-9.3984	3.3208	-0.0462	0.0347	-0.0323	-8.3201	10.9671	-3.8754	-0.1620	0.1290	-0.5639	0.7995
2.35	-0.0507	-9.3694	3.3088	-0.0316	0.0419	-0.0328	-8.1194	11.1897	-4.0787	-0.1618	0.1288	-0.5640	0.7994
2.36	-0.0787	-9.3063	3.3115	-0.0314	0.0409	-0.0326	-8.4219	10.9897	-3.9305	-0.1616	0.1287	-0.5642	0.7994
2.37	-0.1047	-9.2900	3.3153	-0.0294	0.0450	-0.0320	-8.6699	11.0662	-3.8311	-0.1614	0.1285	-0.5643	0.7993
2.38	-0.1165	-9.2986	3.3193	-0.0432	0.0472	-0.0291	-8.7238	10.9772	-4.2936	-0.1612	0.1284	-0.5645	0.7993
2.39	-0.1165	-9.3208	3.3161	-0.0511	0.0376	-0.0228	-8.9621	11.0308	-4.1419	-0.1611	0.1282	-0.5648	0.7992
2.4	-0.0987	-9.3096	3.3068	-0.0549	0.0330	-0.0285	-8.8796	11.2320	-3.8086	-0.1609	0.1281	-0.5650	0.7990
2.41	-0.0628	-9.3172	3.3122	-0.0565	0.0368	-0.0322	-8.9823	11.3686	-3.8013	-0.1608	0.1280	-0.5653	0.7990
2.42	-0.0635	-9.3624	3.2778	-0.0563	0.0302	-0.0337	-8.6805	11.1525	-3.8977	-0.1606	0.1279	-0.5654	0.7987
2.43	-0.0512	-9.2768	3.2661	-0.0555	0.0232	-0.0266	-8.9363	10.9916	-3.8908	-0.1605	0.1278	-0.5657	0.7987
2.44	-0.0294	-9.3252	3.2842	-0.0662	0.0262	-0.0294	-8.9437	11.1813	-3.9159	-0.1603	0.1277	-0.5660	0.7985
2.45	-0.0381	-9.4451	3.2819	-0.0763	0.0258	-0.0305	-8.7576	11.1926	-3.8289	-0.1601	0.1277	-0.5663	0.7984
2.46	-0.0462	-9.4822	3.2753	-0.0533	0.0167	-0.0260	-9.0403	11.0208	-3.7903	-0.1600	0.1277	-0.5665	0.7982
2.47	-0.0291	-9.4652	3.2875	-0.0349	0.0171	-0.0213	-9.0220	11.1725	-3.6933	-0.1599	0.1277	-0.5667	0.7981
2.48	-0.0026	-9.4434	3.2901	-0.0329	0.0130	-0.0257	-8.9183	11.1182	-3.7600	-0.1598	0.1277	-0.5669	0.7980
2.49	-0.0065	-9.4697	3.2874	-0.0294	0.0088	-0.0177	-8.6955	11.1554	-3.9249	-0.1597	0.1276	-0.5670	0.7979
2.5	-0.0182	-9.4374	3.2521	-0.0309	0.0081	-0.0139	-8.8714	11.1363	-3.8760	-0.1597	0.1276	-0.5672	0.7979
2.51	-0.0025	-9.2489	3.2325	-0.0303	-0.0041	-0.0111	-8.9464	10.9846	-3.9506	-0.1597	0.1276	-0.5673	0.7977
2.52	0.0344	-9.1672	3.2474	-0.0452	-0.0118	-0.0169	-8.8404	10.9629	-4.0129	-0.1597	0.1277	-0.5675	0.7977
2.53	0.0628	-9.3283	3.2626	-0.0776	-0.0086	-0.0156	-8.9119	10.8736	-3.8925	-0.1596	0.1278	-0.5677	0.7973
2.54	0.0702	-9.4959	3.2608	-0.0863	-0.0033	-0.0074	-8.9441	11.0004	-3.7492	-0.1596	0.1278	-0.5681	0.7971
2.55	0.0672	-9.5314	3.2351	-0.0840	-0.0013	-0.0085	-8.8720	11.2958	-3.7362	-0.1596	0.1279	-0.5685	0.7969
2.56	0.0670	-9.4525	3.2205	-0.0784	0.0044	-0.0055	-8.7315	11.3368	-3.9435	-0.1595	0.1279	-0.5688	0.7966
2.57	0.0631	-9.4124	3.2162	-0.0759	0.0118	0.0027	-8.8394	11.1220	-3.7699	-0.1595	0.1279	-0.5692	0.7965
2.58	0.0607	-9.4482	3.2075	-0.0844	0.0064	0.0006	-8.8478	11.2733	-3.8479	-0.1595	0.1278	-0.5695	0.7961
2.59	0.0418	-9.4554	3.1936	-0.0773	0.0166	0.0039	-8.7484	11.1949	-3.7215	-0.1595	0.1278	-0.5699	0.7960
2.6	0.0216	-9.4530	3.1975	-0.0805	0.0189	0.0065	-8.8094	11.3426	-3.7228	-0.1594	0.1277	-0.5702	0.7956
2.61	0.0088	-9.4239	3.2045	-0.0783	0.0281	0.0009	-8.9649	11.2836	-3.8146	-0.1594	0.1276	-0.5706	0.7955
2.62	-0.0041	-9.4661	3.2386	-0.0695	0.0358	0.0078	-8.8583	11.3712	-3.8601	-0.1593	0.1274	-0.5709	0.7952
2.63	-0.0242	-9.5455	3.2155	-0.0607	0.0344	0.0085	-8.7605	11.4123	-3.8976	-0.1593	0.1273	-0.5712	0.7950
2.64	-0.0677	-9.4850	3.1930	-0.0456	0.0414	-0.0010	-8.7038	11.4075	-3.4497	-0.1592	0.1271	-0.5715	0.7949
2.65	-0.0947	-9.4154	3.1917	-0.0354	0.0337	0.0052	-8.8120	11.3894	-3.5035	-0.1591	0.1269	-0.5717	0.7948
2.66	-0.1301	-9.4330	3.1984	-0.0525	0.0380	0.0031	-8.7546	11.2652	-3.7447	-0.1591	0.1267	-0.5720	0.7947
2.67	-0.1684	-9.5289	3.1764	-0.0526	0.0325	0.0023	-8.8253	11.4505	-3.6425	-0.1590	0.1266	-0.5722	0.7945
2.68	-0.1995	-9.5325	3.1754	-0.0408	0.0203	-0.0074	-8.9254	11.2404	-3.4901	-0.1589	0.1265	-0.5724	0.7944
2.69	-0.2163	-9.5354	3.1832	-0.0292	0.0119	-0.0045	-8.8065	11.1183	-3.6095	-0.1589	0.1264	-0.5726	0.7943
2.7	-0.2155	-9.5628	3.1975	-0.0199	0.0056	-0.0091	-8.7847	11.1251	-3.8447	-0.1589	0.1264	-0.5727	0.7943
2.71	-0.2113	-9.5785	3.2155	-0.0078	-0.0050	-0.0062	-8.6205	11.2647	-3.6933	-0.1589	0.1264	-0.5727	0.7942
2.72	-0.2028	-9.5574	3.2311	0.0157	-0.0117	-0.0063	-8.5477	11.0506	-3.5967	-0.1590	0.1264	-0.5727	0.7942
2.73	-0.1938	-9.5109	3.2405	0.0334	-0.0098	-0.0133	-8.7985	11.1752	-3.6773	-0.1590	0.1264	-0.5726	0.7943
2.74	-0.1825	-9.4654	3.2507	0.0447	-0.0131	-0.0149	-8.8522	11.2414	-3.8224	-0.1591	0.1264	-0.5724	0.7943
2.75	-0.1644	-9.4126	3.2544	0.0484	-0.0181	-0.0180	-8.8181	11.3419	-3.8071	-0.1592	0.1264	-0.5723	0.7946
2.76	-0.1566	-9.3371	3.2502	0.0468	-0.0230	-0.0295	-8.6808	11.2505	-3.9770	-0.1592	0.1265	-0.5720	0.7946
2.77	-0.1431	-9.2693	3.2639	0.0483	-0.0220	-0.0283	-8.8904	11.2957	-3.7437	-0.1592	0.1266	-0.5719	0.7948
2.78	-0.1333	-9.2461	3.2770	0.0333	-0.0270	-0.0262	-8.9410	11.2408	-3.6314	-0.1592	0.1267	-0.5717	0.7948
2.79	-0.1162	-9.2389	3.2725	0.0211	-0.0330	-0.0315	-8.7758	11.1056	-3.7075	-0.1593	0.1268	-0.5716	0.7949
2.8	-0.1013	-9.2239	3.2882	0.0160	-0.0324	-0.0328	-8.9034	11.1839	-3.5881	-0.1593	0.1270	-0.5715	0.7949
2.81	-0.0678	-9.2364	3.3067	-0.0061	-0.0403	-0.0366	-8.9216	11.3513	-3.6932	-0.1593	0.1272	-0.5715	0.7948
2.82	-0.0401	-9.2808	3.3085	-0.0107	-0.0460	-0.0377	-8.8311	11.0756	-3.8736	-0.1594	0.1274	-0.5715	0.7949
2.83	-0.0189	-9.3136	3.3052	-0.0295	-0.0466	-0.0348	-8.6508	11.1004	-3.6695	-0.1594	0.1276	-0.5716	0.7947
2.84	0.0001	-9.3242	3.3099	-0.0283	-0.0505	-0.0335	-8.4797	11.3607	-3.2252	-0.1595	0.1278	-0.5717	0.7947
2.85	0.0152	-9.3331	3.3011	-0.0377	-0.0461	-0.0317	-8.4267	11.2846	-3.2627	-0.1596	0.1280	-0.5717	0.7944
2.86	0.0344	-9.3509	3.2934	-0.0460	-0.0550	-0.0326	-8.6855	11.1447	-3.5338	-0.1597	0.1282	-0.5719	0.7944
2.87	0.0438	-9.3483	3.2775	-0.0541	-0.0592	-0.0233	-8.9036	10.9031	-3.6072	-0.1598	0.1284	-0.5721	0.7942
2.88	0.0664	-9.3410	3.2574	-0.0545	-0.0497	-0.0192	-8.7707	10.7061	-3.6998	-0.1600	0.1286	-0.5722	0.7940
2.89	0.0813	-9.3360	3.2350	-0.0628	-0.0494	-0.0123	-8.5965	10.9755	-3.7177	-0.1601	0.1288	-0.5725	0.7938
2.9	0.0824	-9.3317	3.1948	-0.0784	-0.0487	-0.0127	-8.8633	11.1312	-3.6256	-0.1603	0.1290	-0.5727	0.7935
2.91	0.0680	-9.3565	3.1711	-0.0865	-0.0467	-0.0146	-9.0375	11.0683	-3.5812	-0.1604	0.1291	-0.5731	0.7932
2.92	0.0646	-9.4488	3.1579	-0.0828	-0.0465	-0.0128	-8.5644	11.1875	-3.5055	-0.1605	0.1293	-0.5733	0.7929
2.93	0.0769	-9.5211	3.1532	-0.0808	-0.0473	-0.0105	-8.9114	11.3083	-3.6918	-0.1606	0.1296	-0.5737	0.7927
2.94	0.0957	-9.5464	3.1391	-0.0787	-0.0485	-0.0134	-8.8404	11.2233	-3.5795	-0.1607	0.1298	-0.5740	0.7924
2.95	0.1144	-9.5525	3.1357	-0.0606	-0.0413	-0.0136	-8.8699	11.1571	-3.5173	-0.1608	0.1300	-0.5742	0.7922
2.96	0.1261	-9.5451	3.1337	-0.0557	-0.0432	-0.0089	-8.9376	11.2883	-3.6673	-0.1608	0.1302	-0.5744	0.7919
2.97	0.1349	-9.5529	3.1341	-0.0338	-0.0310	-0.0087	-8.8694	11.3904	-3.4805	-0.1609	0.1303	-0.5746	0.7918
2.98	0.1286	-9.5442	3.1323	-0.0309	-0.0262	-0.0086	-8.9774	11.3253	-3.4764	-0.1610	0.1304	-0.5747	0.7917
2.99	0.1007	-9.5137	3.1321	-0.0280	-0.0153	-0.0065	-8.9937	11.4686	-3.6912	-0.1611	0.1305	-0.5748	0.7915
3	0.0871	-9.4815	3.1322	-0.0270	-0.0041	-0.0076	-9.0045	11.4217	-3.3834	-0.1611	0.1305	-0.5750	0.7915
3.01	0.0835	-9.4588	3.1301	-0.0298	-0.0013	-0.0085	-8.9696	11.2161	-3.4044	-0.1611	0.1305	-0.5751	0.7914
3.02	0.0696	-9.4365	3.1411	-0.0234	0.0170	-0.0061	-9.0742	11.3230	-3.4772	-0.1611	0.1304	-0.5753	0.7914
3.03	0.0460	-9.4218	3.1327	-0.0240	0.0184	-0.0072	-9.0867	11.0600	-3.4502	-0.1610	0.1303	-0.5753	0.7912
3.04	0.0372	-9.3985	3.1272	-0.0308	0.0237	-0.0079	-8.8647	11.1307	-3.3102	-0.1610	0.1302	-0.5755	0.7912
3.05	0.0378	-9.3739	3.1341	-0.0297	0.0252	-0.0074	-9.0942	11.4105	-3.2751	-0.1609	0.1301	-0.5757	0.7911
3.06	0.0396	-9.3878	3.1351	-0.0341	0.0303	-0.0095	-8.7175	11.2037	-3.5021	-0.1608	0.1300	-0.5758	0.7909
3.07	0.0386	-9.4286	3.1342	-0.0319	0.0428	-0.0132	-8.7334	10.9791	-3.3791	-0.1607	0.1299	-0.5761	0.7910
3.08	0.0420	-9.4589	3.1175	-0.0433	0.0487	-0.0121	-8.8580	11.1548	-3.4276	-0.1605	0.1297	-0.5762	0.7908
3.09	0.0392	-9.4600	3.1079	-0.0483	0.0475	-0.0120	-8.7380	10.7975	-3.5863	-0.1604	0.1295	-0.5765	0.7907
3.1	0.0285	-9.4637	3.0989	-0.0448	0.0522	-0.0106	-8.7149	11.0227	-3.4238	-0.1602	0.1293	-0.5767	0.7905
3.11	0.0142	-9.4937	3.0908	-0.0452	0.0576	-0.0152	-8.8612	11.2208	-3.5618	-0.1600	0.1291	-0.5770	0.7905
3.12	-0.0011	-9.5123	3.0764	-0.0333	0.0604	-0.0084	-8.7618	11.1796	-3.5635	-0.1598	0.1289	-0.5772	0.7904
3.13	-0.0324	-9.5214	3.0762	-0.0308	0.0562	-0.0067	-8.9884	11.1865	-3.3926	-0.1596	0.1286	-0.5774	0.7903
3.14	-0.0568	-9.5256	3.0675	-0.0300	0.0581	-0.0071	-8.9981	11.2086	-3.3197	-0.1595	0.1284	-0.5776	0.7903
3.15	-0.0770	-9.4914	3.0545	-0.0308	0.0591	-0.0061	-8.8732	11.1507	-3.4149	-0.1593	0.1281	-0.5778	0.7902
3.16	-0.1075	-9.4728	3.0617	-0.0305	0.0527	-0.0071	-8.9247	11.3242	-3.4647	-0.1592	0.1279	-0.5780	0.7901
3.17	-0.1358	-9.4808	3.0569	-0.0285	0.0494	-0.0071	-8.8878	11.3986	-3.4505	-0.1590	0.1277	-0.5781	0.7900
3.18	-0.1511	-9.4894	3.0541	-0.0306	0.0428	-0.0039	-8.9256	11.1326	-3.5588	-0.1589	0.1275	-0.5783	0.7900
3.19	-0.1595	-9.4950	3.0498	-0.0309	0.0358	-0.0009	-9.0183	11.5526	-3.3789	-0.1589	0.1273	-0.5785	0.7899
3.2	-0.1844	-9.4810	3.0413	-0.0310	0.0306	-0.0080	-8.9636	11.4692	-3.3613	-0.1588	0.1272	-0.5787	0.7898
3.21	-0.1939	-9.4856	3.0392	-0.0313	0.0191	-0.0068	-9.1268	11.3549	-3.4578	-0.1587	0.1271	-0.5788	0.7897
3.22	-0.1729	-9.4945	3.0317	-0.0298	0.0107	-0.0076	-8.8912	11.4690	-3.4812	-0.1587	0.1271	-0.5790	0.7896
3.23	-0.1594	-9.4828	3.0268	-0.0312	-0.0043	-0.0100	-8.8170	11.2474	-3.3733	-0.1587	0.1271	-0.5791	0.7895
3.24	-0.1405	-9.4872	3.0186	-0.0305	-0.0155	-0.0110	-9.0482	11.3750	-3.0361	-0.1587	0.1271	-0.5792	0.7893
3.25	-0.1216	-9.5223	3.0163	-0.0319	-0.0152	-0.0089	-8.7349	11.2628	-3.3481	-0.1588	0.1272	-0.5794	0.7893
3.26	-0.0959	-9.5432	3.0140	-0.0280	-0.0164	-0.0147	-8.6106	11.1308	-3.4851	-0.1588	0.1272	-0.5795	0.7891
3.27	-0.0615	-9.5507	3.0084	-0.0314	-0.0122	-0.0189	-8.6522	11.0769	-3.4264	-0.1588	0.1273	-0.5797	0.7891
3.28	-0.0450	-9.5630	3.0106	-0.0233	-0.0108	-0.0166	-8.6226	11.2015	-3.4754	-0.1588	0.1274	-0.5797	0.7889
3.29	-0.0333	-9.5548	3.0104	-0.0090	-0.0145	-0.0152	-8.8850	11.1774	-3.4143	-0.1588	0.1274	-0.5798	0.7889
3.3	-0.0260	-9.5347	3.0112	-0.0052	-0.0155	-0.0196	-8.7156	11.2123	-3.3411	-0.1589	0.1275	-0.5798	0.7889
3.31	-0.0223	-9.5224	3.0137	-0.0050	-0.0092	-0.0199	-8.8089	11.1035	-3.3763	-0.1588	0.1275	-0.5798	0.7888
3.32	-0.0246	-9.5154	3.0125	-0.0045	-0.0053	-0.0222	-8.8267	11.1003	-3.2375	-0.1588	0.1276	-0.5799	0.7889
3.33	-0.0315	-9.5028	3.0157	0.0015	-0.0096	-0.0188	-8.6662	11.1136	-3.2802	-0.1588	0.1276	-0.5799	0.7888
3.34	-0.0291	-9.4785	3.0181	-0.0060	-0.0130	-0.0232	-8.5849	11.3077	-3.2136	-0.1588	0.1277	-0.5799	0.7888
3.35	-0.0278	-9.4566	3.0266	0.0066	-0.0062	-0.0233	-8.4669	11.1417	-3.0559	-0.1588	0.1277	-0.5799	0.7887
3.36	-0.0316	-9.4515	3.0272	0.0006	-0.0064	-0.0244	-8.9258	11.3347	-3.3167	-0.1588	0.1277	-0.5799	0.7888
3.37	-0.0247	-9.4601	3.0330	-0.0065	-0.0106	-0.0292	-9.0132	11.4470	-3.4167	-0.1588	0.1278	-0.5799	0.7888
3.38	-0.0185	-9.4678	3.0311	-0.0017	-0.0078	-0.0313	-8.9375	11.2972	-3.2403	-0.1587	0.1279	-0.5799	0.7887
3.39	-0.0025	-9.4784	3.0299	-0.0060	-0.0128	-0.0334	-8.7888	11.2887	-3.4058	-0.1587	0.1280	-0.5800	0.7888
3.4	0.0082	-9.4966	3.0340	-0.0056	-0.0118	-0.0301	-9.0288	11.3134	-3.4759	-0.1586	0.1280	-0.5800	0.7887
3.41	0.0083	-9.5233	3.0384	-0.0071	-0.0104	-0.0284	-9.0538	11.4208	-3.4589	-0.1586	0.1281	-0.5800	0.7887
3.42	0.0079	-9.5303	3.0392	-0.0038	-0.0134	-0.0213	-8.9814	11.2649	-3.4753	-0.1586	0.1282	-0.5800	0.7886
3.43	-0.0065	-9.5058	3.0340	-0.0052	-0.0161	-0.0183	-9.0064	11.4276	-3.3523	-0.1586	0.1282	-0.5801	0.7887
3.44	-0.0041	-9.4883	3.0294	0.0004	-0.0157	-0.0199	-8.7061	11.3004	-3.4021	-0.1587	0.1283	-0.5801	0.7886
3.45	0.0106	-9.5026	3.0436	-0.0038	-0.0158	-0.0204	-8.8169	11.0765	-3.5656	-0.1587	0.1284	-0.5801	0.7886
3.46	0.0283	-9.5355	3.0564	-0.0040	-0.0212	-0.0126	-8.8474	11.2318	-3.5355	-0.1587	0.1284	-0.5801	0.7885
3.47	0.0353	-9.5509	3.0827	0.0103	-0.0205	-0.0148	-8.7890	11.3055	-3.5964	-0.1588	0.1285	-0.5801	0.7885
3.48	0.0346	-9.5438	3.0784	0.0200	-0.0125	-0.0189	-8.7309	11.2899	-3.4449	-0.1588	0.1285	-0.5800	0.7886
3.49	0.0377	-9.4931	3.0732	0.0203	-0.0169	-0.0137	-9.0481	11.2853	-3.2415	-0.1589	0.1286	-0.5799	0.7886
3.5	0.0306	-9.4714	3.0813	0.0202	-0.0084	-0.0078	-8.8659	11.3055	-3.4082	-0.1590	0.1286	-0.5799	0.7887
3.51	0.0214	-9.4836	3.0658	0.0143	-0.0077	-0.0091	-8.8332	11.2625	-3.3443	-0.1590	0.1285	-0.5798	0.7887
3.52	-0.0055	-9.4661	3.0497	0.0173	-0.0089	-0.0094	-8.7592	11.1168	-3.4260	-0.1591	0.1285	-0.5798	0.7888
3.53	-0.0251	-9.4363	3.0358	0.0089	-0.0065	-0.0108	-8.7222	11.0983	-3.5738	-0.1591	0.1285	-0.5797	0.7887
3.54	-0.0368	-9.4346	3.0174	-0.0037	-0.0124	-0.0124	-8.8637	11.2594	-3.6582	-0.1591	0.1286	-0.5798	0.7887
3.55	-0.0406	-9.4650	3.0068	-0.0032	-0.0086	-0.0192	-8.9938	11.2831	-3.2485	-0.1591	0.1286	-0.5798	0.7887
3.56	-0.0286	-9.4881	3.0023	-0.0062	-0.0113	-0.0179	-8.9530	11.3674	-3.1269	-0.1591	0.1286	-0.5798	0.7886
3.57	-0.0028	-9.5187	3.0164	0.0015	-0.0177	-0.0252	-8.7630	11.4866	-3.4613	-0.1592	0.1287	-0.5799	0.7887
3.58	0.0236	-9.5485	3.0264	0.0222	-0.0181	-0.0247	-9.0559	11.3128	-3.3955	-0.1592	0.1288	-0.5797	0.7886
3.59	0.0335	-9.5504	3.0381	0.0223	-0.0092	-0.0200	-9.0439	11.2724	-3.2000	-0.1592	0.1288	-0.5797	0.7888
3.6	0.0385	-9.5481	3.0468	0.0248	-0.0137	-0.0185	-8.9781	11.3819	-3.5300	-0.1592	0.1288	-0.5795	0.7887
3.61	0.0357	-9.5423	3.0606	0.0432	-0.0121	-0.0158	-9.1230	11.4847	-3.1775	-0.1593	0.1289	-0.5794	0.7889
3.62	0.0434	-9.5207	3.0686	0.0464	-0.0209	-0.0137	-8.8821	11.2920	-3.4419	-0.1594	0.1289	-0.5792	0.7890
3.63	0.0434	-9.4896	3.0856	0.0415	-0.0240	-0.0173	-8.7143	11.3034	-3.3922	-0.1594	0.1289	-0.5791	0.7891
3.64	0.0415	-9.4705	3.0917	0.0436	-0.0198	-0.0131	-8.9334	11.1830	-3.3626	-0.1595	0.1290	-0.5789	0.7892
3.65	0.0411	-9.4661	3.1021	0.0446	-0.0207	-0.0123	-9.0479	11.0885	-3.6271	-0.1596	0.1290	-0.5787	0.7893
3.66	0.0305	-9.4260	3.1049	0.0360	-0.0245	-0.0148	-8.9207	11.1485	-3.4639	-0.1597	0.1290	-0.5786	0.7894
3.67	0.0186	-9.4060	3.1081	0.0308	-0.0208	-0.0107	-8.9183	11.3955	-3.4468	-0.1598	0.1291	-0.5784	0.7893
3.68	0.0185	-9.4442	3.1206	0.0212	-0.0256	-0.0138	-8.9956	11.3608	-3.6103	-0.1599	0.1291	-0.5784	0.7895
3.69	0.0293	-9.4618	3.1285	0.0216	-0.0309	-0.0109	-8.8945	11.2583	-3.6300	-0.1600	0.1292	-0.5783	0.7895
3.7	0.0570	-9.4621	3.1400	0.0217	-0.0301	-0.0222	-8.9222	11.3239	-3.4617	-0.1601	0.1293	-0.5782	0.7895
3.71	0.1022	-9.4395	3.1421	0.0352	-0.0312	-0.0155	-8.9196	11.1729	-3.3715	-0.1602	0.1294	-0.5780	0.7896
3.72	0.1360	-9.4147	3.1501	0.0350	-0.0233	-0.0188	-9.0224	11.2493	-3.3582	-0.1603	0.1295	-0.5779	0.7897
3.73	0.1455	-9.4128	3.1560	0.0330	-0.0104	-0.0198	-9.0082	11.2974	-3.1809	-0.1603	0.1295	-0.5778	0.7898
3.74	0.1431	-9.4110	3.1625	0.0315	-0.0059	-0.0123	-8.9306	11.3019	-3.2558	-0.1603	0.1295	-0.5776	0.7898
3.75	0.1243	-9.4057	3.1675	0.0217	0.0127	-0.0095	-8.8019	11.1719	-3.4058	-0.1604	0.1294	-0.5777	0.7899
3.76	0.1003	-9.3959	3.1688	0.0200	0.0194	-0.0149	-8.9987	11.1136	-3.6270	-0.1604	0.1292	-0.5776	0.7899
3.77	0.0792	-9.3860	3.1744	0.0201	0.0188	-0.0145	-8.9915	11.3131	-3.4070	-0.1604	0.1290	-0.5776	0.7901
3.78	0.0698	-9.3811	3.1794	0.0181	0.0267	-0.0195	-9.1035	11.2704	-3.2598	-0.1603	0.1288	-0.5775	0.7900
3.79	0.0461	-9.3788	3.1739	0.0123	0.0287	-0.0295	-9.0785	11.5653	-3.4292	-0.1602	0.1287	-0.5775	0.7901
3.8	0.0242	-9.3736	3.1786	0.0085	0.0196	-0.0189	-8.9254	11.2932	-3.5132	-0.1602	0.1285	-0.5775	0.7902
3.81	0.0174	-9.3734	3.1737	-0.0039	0.0188	-0.0211	-8.9154	11.0708	-3.6687	-0.1602	0.1284	-0.5775	0.7901
3.82	0.0155	-9.3854	3.1650	-0.0087	0.0201	-0.0161	-8.9258	11.2373	-3.5341	-0.1602	0.1282	-0.5776	0.7902
3.83	0.0229	-9.4046	3.1574	-0.0121	0.0185	-0.0138	-8.7566	11.1869	-3.5752	-0.1601	0.1281	-0.5776	0.7901
3.84	0.0396	-9.4394	3.1558	-0.0221	0.0182	-0.0198	-8.4958	11.2284	-3.2329	-0.1601	0.1280	-0.5778	0.7901
3.85	0.0608	-9.4619	3.1495	-0.0103	0.0148	-0.0122	-8.4041	11.0999	-3.0592	-0.1600	0.1279	-0.5778	0.7900
3.86	0.0726	-9.4846	3.1413	-0.0069	0.0100	-0.0133	-8.8023	10.9679	-3.2867	-0.1600	0.1279	-0.5779	0.7900
3.87	0.0744	-9.4804	3.1364	-0.0048	0.0096	-0.0075	-9.0042	10.9926	-3.4207	-0.1600	0.1278	-0.5779	0.7900
3.88	0.0811	-9.4810	3.1367	-0.0088	0.0159	-0.0080	-9.1206	10.8187	-3.3524	-0.1599	0.1277	-0.5780	0.7899
3.89	0.0789	-9.4869	3.1325	-0.0020	0.0183	-0.0069	-8.9606	11.1073	-3.3345	-0.1599	0.1276	-0.5781	0.7899
3.9	0.0674	-9.4708	3.1402	0.0164	0.0212	-0.0076	-9.0315	11.1882	-3.3830	-0.1599	0.1275	-0.5780	0.7900
3.91	0.0557	-9.4608	3.1368	0.0163	0.0273	-0.0048	-9.0931	11.1756	-3.4976	-0.1599	0.1273	-0.5781	0.7900
3.92	0.0420	-9.4497	3.1404	0.0113	0.0260	-0.0013	-9.0818	11.5459	-3.2604	-0.1598	0.1272	-0.5780	0.7900
3.93	0.0264	-9.4367	3.1459	0.0159	0.0231	-0.0056	-8.9365	11.3172	-3.1407	-0.1598	0.1270	-0.5780	0.7901
3.94	0.0183	-9.4237	3.1432	0.0103	0.0244	-0.0054	-9.0926	11.3087	-3.3850	-0.1598	0.1269	-0.5780	0.7901
3.95	0.0027	-9.4017	3.1507	0.0122	0.0259	-0.0066	-9.1993	11.2747	-3.5439	-0.1597	0.1267	-0.5780	0.7902
3.96	-0.0012	-9.4078	3.1536	0.0024	0.0304	-0.0074	-9.0661	11.3294	-3.5560	-0.1597	0.1265	-0.5780	0.7901
3.97	0.0074	-9.4270	3.1540	-0.0052	0.0305	-0.0063	-8.9221	11.3600	-3.2394	-0.1597	0.1263	-0.5781	0.7901
3.98	0.0060	-9.4358	3.1506	-0.0055	0.0302	-0.0057	-8.9305	11.2967	-3.3567	-0.1597	0.1261	-0.5782	0.7902
3.99	0.0062	-9.4362	3.1408	-0.0032	0.0325	-0.0076	-9.0843	11.2227	-3.2479	-0.1597	0.1259	-0.5782	0.7901
4	0.0081	-9.4267	3.1310	-0.0072	0.0254	-0.0071	-8.9907	11.1176	-3.2908	-0.1597	0.1257	-0.5783	0.7902
4.01	0.0015	-9.4279	3.1257	-0.0055	0.0376	-0.0075	-8.7748	11.2302	-3.4688	-0.1596	0.1254	-0.5783	0.7901
4.02	-0.0032	-9.4577	3.1237	-0.0123	0.0320	-0.0065	-8.7170	11.0050	-3.2567	-0.1596	0.1253	-0.5785	0.7902
4.03	-0.0134	-9.4741	3.1151	-0.0076	0.0351	-0.0076	-8.6943	11.1543	-3.6058	-0.1595	0.1251	-0.5785	0.7900
4.04	-0.0294	-9.4827	3.1101	-0.0051	0.0384	-0.0069	-8.6844	10.9779	-3.3296	-0.1594	0.1249	-0.5786	0.7901
4.05	-0.0490	-9.4832	3.1050	-0.0066	0.0347	-0.0073	-8.8318	11.1527	-3.4444	-0.1593	0.1247	-0.5787	0.7901
4.06	-0.0666	-9.4849	3.1069	0.0024	0.0359	-0.0070	-8.8767	11.2628	-3.2965	-0.1592	0.1246	-0.5787	0.7900
4.07	-0.0728	-9.4791	3.1087	0.0027	0.0263	-0.0107	-8.9866	11.0609	-3.1218	-0.1592	0.1244	-0.5788	0.7901
4.08	-0.0725	-9.4650	3.1077	0.0097	0.0169	-0.0115	-8.9166	11.3588	-3.5027	-0.1591	0.1243	-0.5787	0.7901
4.09	-0.0709	-9.4536	3.1134	0.0122	0.0114	-0.0085	-8.9807	11.3342	-3.0865	-0.1591	0.1243	-0.5788	0.7902
4.1	-0.0544	-9.4303	3.1149	0.0095	0.0156	-0.0178	-8.7573	11.2826	-3.0811	-0.1591	0.1242	-0.5787	0.7901
4.11	-0.0281	-9.4259	3.1200	-0.0003	0.0125	-0.0179	-8.9576	11.5188	-3.2750	-0.1590	0.1241	-0.5788	0.7902
4.12	-0.0074	-9.4184	3.1260	-0.0002	0.0131	-0.0166	-8.8148	11.2754	-3.3429	-0.1590	0.1240	-0.5788	0.7902
4.13	0.0067	-9.4188	3.1294	-0.0017	0.0135	-0.0193	-8.8653	11.3734	-3.5178	-0.1590	0.1239	-0.5788	0.7902
4.14	0.0169	-9.4418	3.1211	-0.0069	0.0157	-0.0260	-9.0251	11.4109	-3.1936	-0.1589	0.1238	-0.5789	0.7902
4.15	0.0182	-9.4523	3.1152	-0.0077	0.0148	-0.0210	-8.9418	11.3456	-3.3216	-0.1588	0.1238	-0.5789	0.7901
4.16	0.0090	-9.4557	3.1043	-0.0099	0.0179	-0.0177	-8.8600	11.2997	-3.3729	-0.1588	0.1237	-0.5790	0.7902
4.17	0.0105	-9.4659	3.0976	-0.0139	0.0141	-0.0132	-9.0688	11.2331	-3.2604	-0.1587	0.1237	-0.5790	0.7900
4.18	0.0059	-9.4905	3.0962	-0.0136	0.0107	-0.0129	-9.1044	10.9706	-3.2391	-0.1587	0.1236	-0.5791	0.7901
4.19	0.0036	-9.5015	3.0917	-0.0099	0.0038	-0.0122	-8.8420	11.1163	-3.4516	-0.1586	0.1236	-0.5792	0.7900
4.2	0.0049	-9.4965	3.0905	-0.0062	0.0052	-0.0061	-8.8572	11.0893	-3.3569	-0.1587	0.1235	-0.5792	0.7900
4.21	0.0129	-9.4817	3.0865	-0.0036	0.0046	-0.0074	-9.0232	10.8118	-3.3485	-0.1587	0.1235	-0.5793	0.7899
4.22	0.0205	-9.4573	3.0840	-0.0025	0.0084	-0.0086	-8.9764	11.0315	-3.4444	-0.1587	0.1234	-0.5793	0.7899
4.23	0.0250	-9.4376	3.0853	0.0021	0.0008	-0.0064	-8.9654	11.1819	-3.2905	-0.1587	0.1234	-0.5793	0.7899
4.24	0.0387	-9.4324	3.0939	-0.0022	0.0050	-0.0104	-8.7702	10.9958	-3.4649	-0.1587	0.1233	-0.5793	0.7898
4.25	0.0643	-9.4254	3.0993	-0.0057	0.0063	-0.0103	-8.8594	11.1748	-3.4215	-0.1587	0.1233	-0.5794	0.7899
4.26	0.0798	-9.4327	3.1036	-0.0045	0.0101	-0.0069	-8.7212	11.3370	-3.4763	-0.1587	0.1232	-0.5794	0.7899
4.27	0.0844	-9.4461	3.1148	-0.0025	0.0203	-0.0075	-8.8468	11.0213	-3.3404	-0.1587	0.1230	-0.5795	0.7899
4.28	0.0800	-9.4585	3.1193	-0.0087	0.0195	-0.0074	-9.0097	11.1244	-3.3672	-0.1587	0.1229	-0.5795	0.7898
4.29	0.0576	-9.4584	3.1102	-0.0127	0.0265	-0.0074	-9.1148	11.3645	-3.3100	-0.1586	0.1228	-0.5796	0.7898
4.3	0.0333	-9.4498	3.0942	-0.0106	0.0359	-0.0078	-9.1625	11.2113	-3.2905	-0.1586	0.1225	-0.5797	0.7898
4.31	0.0177	-9.4480	3.0932	-0.0254	0.0324	-0.0071	-8.9392	11.2701	-3.3918	-0.1585	0.1223	-0.5798	0.7897
4.32	0.0198	-9.4810	3.0954	-0.0218	0.0291	-0.0108	-9.0338	11.4204	-3.2242	-0.1585	0.1222	-0.5800	0.7897
4.33	0.0196	-9.5142	3.1071	-0.0144	0.0295	-0.0096	-9.0422	11.3582	-3.3010	-0.1584	0.1221	-0.5801	0.7896
4.34	0.0213	-9.5274	3.1078	-0.0065	0.0299	-0.0107	-8.7227	11.4593	-3.1956	-0.1583	0.1219	-0.5802	0.7897
4.35	0.0248	-9.5108	3.1057	-0.0031	0.0282	-0.0112	-8.6801	11.5568	-3.0806	-0.1582	0.1218	-0.5801	0.7896
4.36	0.0315	-9.4916	3.1038	-0.0042	0.0300	-0.0099	-8.7472	11.4255	-3.2723	-0.1582	0.1217	-0.5803	0.7896
4.37	0.0267	-9.4723	3.1010	0.0059	0.0309	-0.0070	-8.8523	11.2115	-3.4737	-0.1581	0.1215	-0.5803	0.7896
4.38	0.0131	-9.4419	3.0971	0.0059	0.0339	-0.0071	-8.6852	11.0273	-3.5385	-0.1580	0.1213	-0.5803	0.7896
4.39	-0.0126	-9.4151	3.0886	-0.0039	0.0500	-0.0073	-8.7871	11.0495	-3.4359	-0.1579	0.1211	-0.5804	0.7897
4.4	-0.0391	-9.3841	3.0834	-0.0080	0.0436	-0.0067	-8.8913	11.0212	-3.5656	-0.1578	0.1209	-0.5804	0.7897
4.41	-0.0533	-9.3679	3.0767	-0.0137	0.0481	-0.0086	-8.8011	11.2713	-3.5079	-0.1577	0.1207	-0.5806	0.7897
4.42	-0.0676	-9.3789	3.0689	-0.0228	0.0402	-0.0080	-8.7259	11.3812	-3.6470	-0.1576	0.1205	-0.5806	0.7895
4.43	-0.0777	-9.4057	3.0673	-0.0273	0.0363	-0.0075	-8.9293	11.4023	-3.6311	-0.1576	0.1203	-0.5808	0.7896
4.44	-0.0755	-9.4451	3.0597	-0.0327	0.0412	-0.0100	-8.9030	11.1577	-3.6293	-0.1575	0.1200	-0.5810	0.7895
4.45	-0.0772	-9.4955	3.0577	-0.0366	0.0296	-0.0106	-8.8471	11.1565	-3.6287	-0.1574	0.1199	-0.5812	0.7894
4.46	-0.0743	-9.5387	3.0434	-0.0392	0.0225	-0.0121	-8.8531	11.3354	-3.6384	-0.1573	0.1198	-0.5813	0.7892
4.47	-0.0719	-9.5609	3.0357	-0.0328	0.0289	-0.0124	-8.9069	11.1522	-3.3556	-0.1572	0.1197	-0.5815	0.7892
4.48	-0.0688	-9.5764	3.0251	-0.0343	0.0186	-0.0118	-9.1096	11.4898	-3.4107	-0.1571	0.1197	-0.5817	0.7891
4.49	-0.0636	-9.5908	3.0224	-0.0236	0.0144	-0.0060	-8.9132	11.3726	-3.4816	-0.1571	0.1196	-0.5818	0.7889
4.5	-0.0554	-9.5946	3.0169	-0.0165	0.0022	-0.0086	-8.9908	11.4072	-3.4133	-0.1571	0.1196	-0.5819	0.7890
4.51	-0.0395	-9.5813	3.0184	-0.0059	0.0041	-0.0124	-8.8707	11.4582	-3.5315	-0.1571	0.1196	-0.5819	0.7889
4.52	-0.0282	-9.5614	3.0232	-0.0034	0.0019	-0.0075	-8.9127	11.3285	-3.4816	-0.1571	0.1195	-0.5820	0.7890
4.53	-0.0332	-9.5149	3.0154	0.0040	-0.0091	-0.0085	-8.9737	11.5137	-3.3506	-0.1571	0.1195	-0.5819	0.7888
4.54	-0.0415	-9.4979	3.0317	0.0147	0.0022	-0.0040	-8.6748	11.3091	-3.4652	-0.1572	0.1195	-0.5819	0.7889
4.55	-0.0419	-9.5360	3.0516	0.0209	-0.0068	-0.0041	-8.9053	11.5220	-3.4723	-0.1572	0.1194	-0.5819	0.7890
4.56	-0.0368	-9.5213	3.0648	0.0209	-0.0088	-0.0076	-8.9819	11.5352	-3.3524	-0.1573	0.1194	-0.5818	0.7890
4.57	-0.0235	-9.4819	3.0696	0.0253	-0.0095	-0.0078	-8.7323	11.1350	-3.3707	-0.1574	0.1194	-0.5818	0.7891
4.58	-0.0011	-9.4382	3.0758	0.0229	-0.0015	-0.0127	-8.7970	11.2885	-3.4418	-0.1574	0.1194	-0.5816	0.7891
4.59	0.0158	-9.4173	3.0992	0.0213	-0.0039	-0.0088	-8.7248	11.2518	-3.5230	-0.1574	0.1194	-0.5816	0.7892
4.6	0.0124	-9.4248	3.1007	0.0213	0.0043	-0.0077	-8.9662	11.0864	-3.5312	-0.1574	0.1193	-0.5814	0.7891
4.61	-0.0081	-9.4288	3.1127	0.0189	0.0101	-0.0086	-9.0488	11.3857	-3.4544	-0.1574	0.1192	-0.5814	0.7893
4.62	-0.0256	-9.4466	3.1110	0.0191	0.0140	-0.0068	-8.6999	11.3416	-3.3752	-0.1574	0.1191	-0.5814	0.7893
4.63	-0.0340	-9.4449	3.1029	0.0072	0.0130	-0.0114	-8.9711	11.2677	-3.4195	-0.1574	0.1191	-0.5814	0.7893
4.64	-0.0383	-9.4407	3.1032	0.0139	0.0149	-0.0150	-8.8207	11.4067	-3.5518	-0.1574	0.1190	-0.5814	0.7894
4.65	-0.0375	-9.4418	3.1026	0.0131	0.0209	-0.0202	-8.7944	11.3661	-3.4357	-0.1573	0.1189	-0.5813	0.7894
4.66	-0.0308	-9.4486	3.1029	0.0082	0.0215	-0.0255	-8.8732	11.4141	-3.4047	-0.1572	0.1189	-0.5813	0.7895
4.67	-0.0338	-9.4451	3.0865	0.0069	0.0183	-0.0183	-8.9245	11.2854	-3.3340	-0.1571	0.1188	-0.5813	0.7894
4.68	-0.0367	-9.4390	3.0819	0.0050	0.0198	-0.0200	-9.0802	11.3112	-3.3667	-0.1570	0.1187	-0.5813	0.7895
4.69	-0.0321	-9.4525	3.0767	-0.0046	0.0158	-0.0174	-8.9922	11.4174	-3.3701	-0.1570	0.1186	-0.5813	0.7895
4.7	-0.0243	-9.4714	3.0737	-0.0041	0.0196	-0.0099	-8.8624	11.3417	-3.5779	-0.1569	0.1185	-0.5814	0.7895
4.71	-0.0200	-9.4802	3.0737	-0.0036	0.0171	-0.0105	-8.8575	11.6004	-3.4208	-0.1569	0.1184	-0.5814	0.7895
4.72	-0.0114	-9.4898	3.0718	-0.0054	0.0082	-0.0070	-8.5948	11.5243	-3.2265	-0.1569	0.1184	-0.5815	0.7895
4.73	-0.0102	-9.4927	3.0771	-0.0025	0.0171	-0.0082	-8.8233	11.4394	-3.3052	-0.1568	0.1183	-0.5815	0.7895
4.74	-0.0109	-9.4982	3.0764	-0.0045	0.0098	-0.0090	-8.8649	11.1904	-3.5579	-0.1568	0.1182	-0.5815	0.7894
4.75	-0.0160	-9.4932	3.0705	0.0107	0.0075	-0.0066	-8.9761	11.2245	-3.5138	-0.1568	0.1182	-0.5816	0.7895
4.76	-0.0259	-9.4818	3.0737	0.0158	0.0105	-0.0045	-8.8987	11.3020	-3.5957	-0.1568	0.1181	-0.5815	0.7895
4.77	-0.0366	-9.4808	3.0814	0.0130	0.0178	-0.0027	-8.8468	11.0906	-3.6271	-0.1568	0.1180	-0.5815	0.7896
4.78	-0.0481	-9.4790	3.0773	0.0125	0.0149	-0.0036	-8.8601	11.1480	-3.6458	-0.1568	0.1178	-0.5814	0.7895
4.79	-0.0604	-9.4610	3.0854	0.0161	0.0151	-0.0070	-8.8700	11.1883	-3.5790	-0.1568	0.1178	-0.5814	0.7896
4.8	-0.0701	-9.4512	3.0836	0.0198	0.0160	-0.0064	-8.8101	11.2772	-3.5775	-0.1568	0.1177	-0.5814	0.7897
4.81	-0.0831	-9.4472	3.0872	0.0133	0.0205	-0.0069	-8.7447	11.2930	-3.6540	-0.1568	0.1175	-0.5813	0.7897
4.82	-0.0882	-9.4483	3.0955	0.0161	0.0207	-0.0066	-8.7895	11.3260	-3.5469	-0.1568	0.1174	-0.5814	0.7898
4.83	-0.0910	-9.4518	3.0923	0.0040	0.0122	-0.0073	-8.7389	11.3574	-3.3328	-0.1567	0.1173	-0.5813	0.7898
4.84	-0.0906	-9.4381	3.0941	-0.0043	0.0162	-0.0151	-8.3562	11.3283	-3.0427	-0.1567	0.1173	-0.5814	0.7898
4.85	-0.0892	-9.4310	3.0926	-0.0056	0.0131	-0.0159	-8.2533	11.5047	-3.1034	-0.1566	0.1172	-0.5814	0.7897
4.86	-0.0865	-9.4347	3.0961	0.0005	0.0143	-0.0142	-8.6519	11.2827	-3.1486	-0.1566	0.1171	-0.5814	0.7898
4.87	-0.0809	-9.4309	3.0945	-0.0043	0.0127	-0.0188	-8.6064	11.1903	-3.2169	-0.1566	0.1170	-0.5814	0.7898
4.88	-0.0657	-9.4249	3.0871	-0.0046	0.0197	-0.0244	-8.7707	11.2590	-3.3602	-0.1565	0.1169	-0.5814	0.7898
4.89	-0.0409	-9.4208	3.0867	-0.0065	0.0138	-0.0183	-8.9092	11.4113	-3.3796	-0.1565	0.1168	-0.5815	0.7898
4.9	-0.0181	-9.4291	3.0820	-0.0105	0.0168	-0.0176	-8.9808	11.4441	-3.2531	-0.1565	0.1167	-0.5815	0.7898
4.91	-0.0062	-9.4396	3.0746	-0.0160	0.0225	-0.0119	-8.9131	11.5224	-3.3154	-0.1564	0.1166	-0.5816	0.7898
4.92	-0.0091	-9.4519	3.0644	-0.0137	0.0172	-0.0115	-8.7596	11.5638	-3.2516	-0.1564	0.1164	-0.5816	0.7897
4.93	-0.0208	-9.4687	3.0644	-0.0167	0.0210	-0.0132	-8.8027	11.3238	-3.4549	-0.1563	0.1163	-0.5817	0.7897
4.94	-0.0353	-9.4893	3.0596	-0.0207	0.0217	-0.0085	-8.5876	11.2293	-3.5670	-0.1563	0.1163	-0.5818	0.7896
4.95	-0.0473	-9.5061	3.0587	-0.0075	0.0267	-0.0118	-8.7059	11.1854	-3.3341	-0.1562	0.1161	-0.5819	0.7897
4.96	-0.0710	-9.5152	3.0525	-0.0186	0.0252	-0.0072	-8.5784	11.1915	-3.4858	-0.1561	0.1160	-0.5820	0.7896
4.97	-0.0862	-9.5192	3.0457	-0.0041	0.0218	-0.0095	-8.6673	11.2067	-3.4489	-0.1561	0.1159	-0.5820	0.7896
4.98	-0.1033	-9.5077	3.0409	-0.0059	0.0171	-0.0063	-9.0479	11.1325	-3.5024	-0.1560	0.1158	-0.5821	0.7896
4.99	-0.1107	-9.5060	3.0377	-0.0050	0.0111	-0.0075	-8.7639	11.0827	-3.6918	-0.1560	0.1158	-0.5821	0.7895
5	-0.1104	-9.5027	3.0419	-0.0102	0.0021	-0.0074	-8.8017	11.1162	-3.3753	-0.1560	0.1158	-0.5822	0.7895
5.01	-0.1047	-9.5015	3.0436	0.0010	-0.0110	-0.0099	-8.7492	11.2412	-3.4353	-0.1561	0.1158	-0.5822	0.7895
5.02	-0.0821	-9.5006	3.0475	-0.0031	-0.0119	-0.0086	-8.6465	11.0900	-3.3983	-0.1561	0.1158	-0.5823	0.7895
5.03	-0.0575	-9.5015	3.0506	-0.0063	-0.0187	-0.0136	-8.9093	11.2906	-3.3585	-0.1561	0.1159	-0.5822	0.7894
5.04	-0.0302	-9.5059	3.0439	-0.0052	-0.0099	-0.0184	-9.0781	11.3965	-3.4995	-0.1562	0.1159	-0.5822	0.7894
5.05	-0.0118	-9.4978	3.0397	-0.0053	-0.0093	-0.0168	-8.8609	11.3372	-3.4613	-0.1562	0.1160	-0.5823	0.7894
5.06	0.0097	-9.4970	3.0438	-0.0050	-0.0095	-0.0188	-8.9394	11.4165	-3.4047	-0.1561	0.1160	-0.5823	0.7893
5.07	0.0227	-9.4916	3.0329	-0.0054	-0.0116	-0.0162	-9.0934	11.1164	-3.3409	-0.1562	0.1161	-0.5824	0.7894
5.08	0.0323	-9.4990	3.0305	-0.0048	-0.0123	-0.0195	-9.0132	11.3124	-3.2789	-0.1562	0.1161	-0.5823	0.7893
5.09	0.0365	-9.5233	3.0305	-0.0050	-0.0018	-0.0098	-8.9068	11.3547	-3.2800	-0.1562	0.1162	-0.5824	0.7893
5.1	0.0440	-9.5238	3.0229	-0.0043	0.0010	-0.0070	-8.7631	11.5713	-3.3025	-0.1562	0.1161	-0.5823	0.7892
5.11	0.0546	-9.5184	3.0189	0.0070	0.0030	-0.0075	-8.5847	11.5007	-3.3731	-0.1562	0.1161	-0.5824	0.7893
5.12	0.0474	-9.5068	3.0198	0.0084	0.0054	-0.0070	-8.7595	11.1570	-3.4134	-0.1562	0.1160	-0.5824	0.7893
5.13	0.0338	-9.4915	3.0191	0.0076	0.0123	-0.0071	-8.5833	11.2128	-3.1887	-0.1562	0.1160	-0.5823	0.7893
5.14	0.0189	-9.4840	3.0277	0.0096	0.0158	-0.0072	-8.7162	11.1968	-3.2914	-0.1562	0.1159	-0.5824	0.7894
5.15	0.0172	-9.4862	3.0366	0.0136	0.0129	-0.0089	-8.6753	11.3014	-3.5323	-0.1562	0.1158	-0.5823	0.7894
5.16	0.0153	-9.4785	3.0398	0.0095	0.0219	-0.0064	-8.7487	11.0715	-3.3780	-0.1561	0.1157	-0.5823	0.7894
5.17	0.0087	-9.4717	3.0537	0.0170	0.0228	-0.0071	-8.8958	11.2090	-3.2902	-0.1561	0.1155	-0.5822	0.7894
5.18	0.0007	-9.4688	3.0623	0.0121	0.0207	-0.0059	-8.7520	11.1737	-3.2664	-0.1561	0.1154	-0.5823	0.7895
5.19	-0.0139	-9.4646	3.0654	0.0027	0.0296	-0.0061	-8.6708	11.0813	-3.1472	-0.1560	0.1153	-0.5823	0.7895
5.2	-0.0341	-9.4463	3.0642	0.0074	0.0218	-0.0060	-8.7411	11.1624	-3.2801	-0.1559	0.1152	-0.5823	0.7896
5.21	-0.0600	-9.4165	3.0493	-0.0004	0.0195	-0.0064	-8.5537	11.4145	-3.2753	-0.1559	0.1151	-0.5823	0.7895
5.22	-0.0595	-9.4071	3.0502	-0.0002	0.0260	-0.0059	-8.6828	11.4505	-3.5703	-0.1559	0.1149	-0.5823	0.7896
5.23	-0.0487	-9.4444	3.0576	-0.0058	0.0256	-0.0064	-8.8210	11.2911	-3.4983	-0.1559	0.1148	-0.5823	0.7896
5.24	-0.0338	-9.4894	3.0663	-0.0140	0.0243	-0.0062	-8.7810	11.2433	-3.4645	-0.1558	0.1146	-0.5824	0.7895
5.25	-0.0211	-9.5237	3.0660	-0.0060	0.0219	-0.0070	-8.7693	11.5331	-3.3596	-0.1558	0.1145	-0.5825	0.7896
5.26	-0.0145	-9.5414	3.0576	-0.0089	0.0250	-0.0066	-8.6849	11.3431	-3.2540	-0.1557	0.1144	-0.5825	0.7895
5.27	-0.0108	-9.5298	3.0469	-0.0100	0.0237	-0.0076	-8.9013	11.5318	-3.3276	-0.1557	0.1143	-0.5827	0.7895
5.28	-0.0104	-9.5205	3.0321	-0.0033	0.0320	-0.0081	-8.7654	11.4603	-3.0895	-0.1556	0.1142	-0.5826	0.7894
5.29	-0.0201	-9.5051	3.0121	-0.0062	0.0370	-0.0074	-8.9190	11.1328	-2.9732	-0.1555	0.1140	-0.5827	0.7895
5.3	-0.0456	-9.4891	3.0030	-0.0063	0.0311	-0.0042	-9.0031	11.2205	-3.4424	-0.1554	0.1139	-0.5828	0.7895
5.31	-0.0822	-9.4799	2.9941	-0.0028	0.0343	-0.0044	-8.8715	11.1844	-3.4447	-0.1553	0.1137	-0.5828	0.7894
5.32	-0.1113	-9.4689	2.9929	-0.0045	0.0331	-0.0075	-8.6979	11.1791	-3.5214	-0.1553	0.1136	-0.5829	0.7895
5.33	-0.1239	-9.4628	2.9866	-0.0019	0.0289	-0.0066	-8.6347	11.2429	-3.3113	-0.1552	0.1134	-0.5829	0.7894
5.34	-0.1284	-9.4668	2.9930	-0.0024	0.0253	-0.0070	-8.1681	11.5044	-2.9763	-0.1551	0.1133	-0.5830	0.7895
5.35	-0.1353	-9.4757	3.0062	0.0008	0.0145	-0.0074	-8.0910	11.3445	-3.3582	-0.1551	0.1132	-0.5830	0.7894
5.36	-0.1316	-9.4929	3.0061	-0.0039	0.0151	-0.0067	-8.5830	11.2172	-3.2950	-0.1551	0.1131	-0.5831	0.7895
5.37	-0.1352	-9.5073	3.0069	-0.0025	0.0138	-0.0097	-8.7338	11.2779	-3.2976	-0.1550	0.1131	-0.5831	0.7894
5.38	-0.1336	-9.5184	3.0110	-0.0045	0.0054	-0.0094	-8.9456	11.2966	-3.4347	-0.1550	0.1130	-0.5831	0.7894
5.39	-0.1263	-9.5278	3.0176	-0.0044	-0.0052	-0.0115	-8.8197	11.3916	-3.4841	-0.1550	0.1131	-0.5831	0.7894
5.4	-0.1064	-9.5356	3.0104	-0.0042	-0.0129	-0.0124	-8.7227	11.4996	-3.2720	-0.1550	0.1131	-0.5831	0.7894
5.41	-0.0779	-9.5364	3.0073	-0.0042	-0.0097	-0.0081	-8.7180	11.6540	-3.3397	-0.1551	0.1131	-0.5832	0.7894
5.42	-0.0537	-9.5511	3.0083	-0.0049	-0.0120	-0.0100	-8.9165	11.5558	-3.3773	-0.1551	0.1132	-0.5831	0.7893
5.43	-0.0230	-9.5595	3.0078	0.0045	-0.0104	-0.0075	-8.9233	11.4494	-3.2541	-0.1552	0.1132	-0.5832	0.7893
5.44	-0.0200	-9.5347	2.9945	0.0187	-0.0152	-0.0069	-8.7680	11.6232	-3.2632	-0.1552	0.1132	-0.5831	0.7893
5.45	-0.0262	-9.5027	2.9936	0.0043	-0.0226	-0.0048	-8.9427	11.4022	-3.3325	-0.1553	0.1133	-0.5831	0.7894
5.46	-0.0311	-9.5293	3.0116	0.0181	-0.0139	-0.0060	-8.8992	11.2689	-3.4684	-0.1554	0.1133	-0.5830	0.7894
5.47	-0.0324	-9.5515	3.0166	0.0214	-0.0052	-0.0024	-8.8409	11.3141	-3.4421	-0.1555	0.1133	-0.5829	0.7894
5.48	-0.0313	-9.5284	3.0245	0.0222	-0.0090	-0.0064	-8.9640	11.4556	-3.4463	-0.1555	0.1133	-0.5829	0.7895
5.49	-0.0248	-9.4873	3.0344	0.0259	-0.0090	-0.0071	-8.8276	11.4771	-3.4892	-0.1556	0.1133	-0.5827	0.7895
5.5	-0.0134	-9.4537	3.0475	0.0258	-0.0016	-0.0095	-8.7227	11.3568	-3.1830	-0.1556	0.1132	-0.5827	0.7896
5.51	-0.0258	-9.4425	3.0623	0.0306	0.0078	-0.0057	-8.6215	11.1009	-3.0749	-0.1556	0.1132	-0.5826	0.7897
5.52	-0.0437	-9.4294	3.0714	0.0250	0.0089	-0.0098	-8.6971	11.1893	-3.5375	-0.1556	0.1131	-0.5825	0.7898
5.53	-0.0540	-9.4266	3.0806	0.0213	0.0129	-0.0112	-8.5173	11.2117	-3.5582	-0.1556	0.1130	-0.5824	0.7898
5.54	-0.0638	-9.4417	3.0852	0.0229	0.0136	-0.0115	-8.7567	11.1921	-3.5049	-0.1556	0.1130	-0.5824	0.7899
5.55	-0.0540	-9.4405	3.0878	0.0173	0.0121	-0.0174	-8.8057	11.3907	-3.2267	-0.1555	0.1129	-0.5823	0.7899
5.56	-0.0374	-9.4391	3.0876	-0.0038	0.0149	-0.0179	-8.6985	11.3571	-3.4299	-0.1554	0.1129	-0.5823	0.7899
5.57	-0.0352	-9.4422	3.0809	0.0039	0.0111	-0.0111	-8.8697	11.4204	-3.4944	-0.1554	0.1128	-0.5824	0.7900
5.58	-0.0409	-9.4309	3.0674	-0.0021	0.0146	-0.0119	-8.9452	11.1465	-3.3742	-0.1554	0.1127	-0.5823	0.7900
5.59	-0.0552	-9.4265	3.0529	-0.0072	0.0202	-0.0113	-8.8557	11.2156	-3.4044	-0.1554	0.1126	-0.5824	0.7900
5.6	-0.0830	-9.4596	3.0448	-0.0066	0.0258	-0.0102	-8.8111	11.4187	-3.5643	-0.1553	0.1125	-0.5823	0.7899
5.61	-0.1030	-9.4934	3.0427	-0.0109	0.0183	-0.0069	-8.8500	11.1353	-3.4342	-0.1552	0.1124	-0.5824	0.7900
5.62	-0.1230	-9.5134	3.0323	-0.0033	0.0195	-0.0075	-8.8136	11.2582	-3.4127	-0.1552	0.1123	-0.5825	0.7899
5.63	-0.1338	-9.5313	3.0284	-0.0068	0.0154	-0.0071	-8.8991	11.3672	-3.3046	-0.1552	0.1122	-0.5825	0.7899
5.64	-0.1339	-9.5438	3.0361	-0.0013	0.0067	-0.0078	-9.0359	11.4732	-3.6184	-0.1552	0.1122	-0.5826	0.7899
5.65	-0.1170	-9.5417	3.0290	0.0099	0.0043	-0.0067	-8.9796	11.3415	-3.3326	-0.1552	0.1121	-0.5825	0.7899
5.66	-0.0987	-9.5417	3.0298	0.0106	0.0020	-0.0100	-8.8503	11.4079	-3.2562	-0.1552	0.1121	-0.5825	0.7900
5.67	-0.0798	-9.5288	3.0369	0.0194	0.0022	-0.0133	-8.8042	11.2815	-3.2420	-0.1551	0.1121	-0.5824	0.7900
5.68	-0.0604	-9.5084	3.0430	0.0181	-0.0026	-0.0086	-8.9740	11.1819	-3.5305	-0.1552	0.1121	-0.5824	0.7901
5.69	-0.0391	-9.5070	3.0471	0.0214	-0.0044	-0.0081	-8.8327	11.2059	-3.6453	-0.1552	0.1121	-0.5823	0.7901
5.7	-0.0209	-9.4933	3.0558	0.0208	-0.0014	-0.0066	-8.6505	11.1925	-3.4124	-0.1552	0.1120	-0.5822	0.7902
5.71	-0.0123	-9.4692	3.0616	0.0223	0.0028	-0.0070	-8.5532	11.2158	-3.5607	-0.1553	0.1120	-0.5821	0.7902
5.72	-0.0231	-9.4625	3.0692	0.0215	0.0107	-0.0063	-8.5883	10.9300	-3.5239	-0.1553	0.1119	-0.5821	0.7903
5.73	-0.0400	-9.4662	3.0766	0.0208	0.0098	-0.0014	-8.9062	11.2102	-3.3454	-0.1553	0.1118	-0.5820	0.7904
5.74	-0.0587	-9.4567	3.0850	0.0204	0.0116	-0.0027	-8.6218	11.4182	-3.4394	-0.1553	0.1117	-0.5819	0.7903
5.75	-0.0812	-9.4553	3.0886	0.0212	0.0187	-0.0066	-8.7018	11.2584	-3.5674	-0.1553	0.1116	-0.5819	0.7905
5.76	-0.0879	-9.4505	3.0928	0.0155	0.0128	-0.0045	-8.7071	11.3075	-3.3750	-0.1552	0.1115	-0.5819	0.7905
5.77	-0.0948	-9.4460	3.0873	0.0137	0.0103	-0.0086	-8.6659	11.2741	-3.3489	-0.1553	0.1115	-0.5819	0.7906
5.78	-0.0931	-9.4269	3.0794	0.0008	0.0170	-0.0112	-8.9679	11.3030	-3.3773	-0.1552	0.1114	-0.5818	0.7905
5.79	-0.0874	-9.4228	3.0813	-0.0039	0.0219	-0.0059	-8.8978	11.3895	-3.2062	-0.1551	0.1113	-0.5819	0.7906
5.8	-0.0856	-9.4336	3.0753	-0.0042	0.0221	-0.0145	-8.7580	11.3769	-3.3653	-0.1551	0.1112	-0.5819	0.7906
5.81	-0.0743	-9.4330	3.0730	-0.0027	0.0168	-0.0134	-8.7359	11.3732	-3.2578	-0.1550	0.1111	-0.5819	0.7905
5.82	-0.0695	-9.4324	3.0637	-0.0047	0.0161	-0.0152	-8.8480	11.3917	-3.2957	-0.1550	0.1110	-0.5819	0.7907
5.83	-0.0715	-9.4444	3.0574	-0.0067	0.0191	-0.0211	-8.5453	11.4953	-3.3489	-0.1549	0.1109	-0.5819	0.7906
5.84	-0.0786	-9.4643	3.0539	-0.0165	0.0131	-0.0113	-8.3554	11.4489	-3.2250	-0.1549	0.1109	-0.5820	0.7906
5.85	-0.0783	-9.4752	3.0507	-0.0088	0.0108	-0.0079	-8.0457	11.4893	-3.3117	-0.1548	0.1108	-0.5820	0.7905
5.86	-0.0864	-9.4906	3.0440	-0.0077	0.0155	-0.0104	-8.3691	11.1438	-3.0531	-0.1548	0.1108	-0.5821	0.7906
5.87	-0.0908	-9.5065	3.0408	-0.0059	0.0084	-0.0086	-8.7458	11.0613	-3.3408	-0.1548	0.1107	-0.5821	0.7905
5.88	-0.0887	-9.5168	3.0475	-0.0046	0.0075	-0.0073	-8.6439	10.9805	-3.2562	-0.1548	0.1107	-0.5821	0.7905
5.89	-0.0850	-9.5100	3.0451	-0.0057	0.0029	-0.0074	-8.6262	11.0805	-3.3974	-0.1548	0.1107	-0.5822	0.7905
5.9	-0.0788	-9.5077	3.0434	0.0003	0.0135	-0.0073	-8.5991	11.1525	-3.3195	-0.1547	0.1106	-0.5822	0.7905
5.91	-0.0699	-9.4956	3.0415	-0.0040	0.0133	-0.0070	-8.4803	11.2134	-3.2858	-0.1547	0.1105	-0.5823	0.7905
5.92	-0.0685	-9.4802	3.0394	-0.0020	0.0108	-0.0083	-8.6483	11.2459	-3.1721	-0.1547	0.1105	-0.5822	0.7904
5.93	-0.0587	-9.4778	3.0457	0.0011	0.0114	-0.0133	-8.6906	11.2533	-3.3398	-0.1546	0.1105	-0.5823	0.7905
5.94	-0.0527	-9.4795	3.0437	-0.0077	0.0127	-0.0130	-8.6098	11.3533	-3.3305	-0.1546	0.1104	-0.5823	0.7905
5.95	-0.0570	-9.4819	3.0408	-0.0023	0.0112	-0.0132	-8.6035	11.3100	-3.3187	-0.1545	0.1104	-0.5824	0.7905
5.96	-0.0606	-9.4839	3.0445	-0.0022	0.0134	-0.0159	-8.7366	11.3269	-3.5101	-0.1545	0.1103	-0.5824	0.7904
5.97	-0.0677	-9.4930	3.0404	-0.0040	0.0153	-0.0135	-8.7773	11.3274	-3.4367	-0.1544	0.1103	-0.5824	0.7904
5.98	-0.0754	-9.4981	3.0391	-0.0034	0.0198	-0.0095	-8.7125	11.4937	-3.0929	-0.1544	0.1102	-0.5824	0.7905
5.99	-0.0797	-9.4883	3.0337	-0.0069	0.0065	-0.0104	-8.9268	11.5124	-3.2488	-0.1543	0.1102	-0.5824	0.7904
6	-0.0808	-9.4836	3.0382	-0.0014	0.0058	-0.0086	-8.9592	11.3821	-3.6534	-0.1543	0.1101	-0.5825	0.7905
6.01	-0.0809	-9.4748	3.0393	0.0006	0.0063	-0.0073	-8.7229	11.4501	-3.3193	-0.1543	0.1101	-0.5825	0.7904
6.02	-0.0872	-9.4585	3.0501	0.0040	0.0053	-0.0068	-8.9505	11.5788	-3.3051	-0.1543	0.1101	-0.5826	0.7905
6.03	-0.1007	-9.4479	3.0569	0.0029	0.0014	-0.0069	-9.0054	11.6093	-3.1814	-0.1543	0.1100	-0.5825	0.7904
6.04	-0.1071	-9.4574	3.0618	0.0031	-0.0008	-0.0076	-8.8069	11.4308	-3.3459	-0.1543	0.1100	-0.5825	0.7904
6.05	-0.0911	-9.4652	3.0633	-0.0018	-0.0018	-0.0098	-8.8491	11.4449	-3.3676	-0.1543	0.1100	-0.5825	0.7904
6.06	-0.0748	-9.4491	3.0532	-0.0050	-0.0025	-0.0103	-8.8544	11.2548	-3.4768	-0.1543	0.1100	-0.5825	0.7904
6.07	-0.0697	-9.4693	3.0454	-0.0106	-0.0092	-0.0093	-8.5522	11.0371	-3.3446	-0.1544	0.1101	-0.5826	0.7904
6.08	-0.0663	-9.5146	3.0403	-0.0182	-0.0091	-0.0098	-8.5635	11.1953	-3.2685	-0.1544	0.1101	-0.5826	0.7903
6.09	-0.0740	-9.5231	3.0233	-0.0084	-0.0034	-0.0091	-8.6859	11.3244	-3.4929	-0.1544	0.1101	-0.5827	0.7903
6.1	-0.0794	-9.5124	3.0131	-0.0070	-0.0085	-0.0083	-8.8156	11.3115	-3.3873	-0.1544	0.1101	-0.5826	0.7902
6.11	-0.0630	-9.5133	3.0216	-0.0019	-0.0111	-0.0117	-8.7796	11.2499	-3.1158	-0.1545	0.1102	-0.5827	0.7902
6.12	-0.0413	-9.5108	3.0296	0.0097	0.0026	-0.0113	-8.6850	11.1661	-3.3100	-0.1545	0.1102	-0.5827	0.7903
6.13	-0.0239	-9.5303	3.0558	0.0123	-0.0001	-0.0090	-8.7281	11.2133	-3.4144	-0.1545	0.1102	-0.5826	0.7903
6.14	-0.0135	-9.5489	3.0659	0.0189	-0.0051	-0.0073	-8.6896	11.3199	-3.3371	-0.1545	0.1102	-0.5826	0.7903
6.15	-0.0111	-9.5200	3.0719	0.0200	0.0086	-0.0074	-9.0112	11.2504	-3.5742	-0.1545	0.1101	-0.5825	0.7904
6.16	-0.0092	-9.4727	3.0848	0.0203	0.0164	-0.0058	-8.8609	11.5312	-3.4674	-0.1545	0.1100	-0.5825	0.7905
6.17	-0.0284	-9.4247	3.0859	0.0208	0.0258	-0.0075	-8.6693	11.4944	-3.1753	-0.1544	0.1099	-0.5823	0.7904
6.18	-0.0703	-9.3939	3.0824	0.0141	0.0286	-0.0005	-8.9535	11.3835	-3.1999	-0.1544	0.1097	-0.5824	0.7906
6.19	-0.1217	-9.3764	3.0771	-0.0056	0.0359	0.0024	-8.8179	11.4566	-3.3836	-0.1543	0.1096	-0.5824	0.7905
6.2	-0.1704	-9.3775	3.0636	-0.0056	0.0392	-0.0019	-8.7827	11.5216	-3.2987	-0.1543	0.1094	-0.5825	0.7906
6.21	-0.2071	-9.3926	3.0489	-0.0138	0.0349	-0.0069	-8.8111	11.4861	-3.3736	-0.1542	0.1092	-0.5825	0.7905
6.22	-0.2222	-9.4147	3.0384	-0.0314	0.0174	-0.0095	-8.7743	11.3799	-3.5174	-0.1541	0.1091	-0.5826	0.7905
6.23	-0.2088	-9.4558	3.0251	-0.0306	0.0107	-0.0189	-8.6760	11.4617	-3.3965	-0.1541	0.1091	-0.5827	0.7905
6.24	-0.1792	-9.4844	3.0173	-0.0299	-0.0004	-0.0101	-8.7383	11.5420	-3.3570	-0.1540	0.1091	-0.5828	0.7903
6.25	-0.1469	-9.5035	3.0116	-0.0281	0.0011	-0.0109	-8.6657	11.2460	-3.5090	-0.1540	0.1092	-0.5830	0.7903
6.26	-0.1213	-9.5239	2.9979	-0.0301	-0.0088	-0.0138	-8.6381	11.2946	-3.4094	-0.1540	0.1092	-0.5831	0.7902
6.27	-0.1109	-9.5375	2.9949	-0.0242	-0.0072	-0.0173	-8.5296	11.2926	-3.3687	-0.1540	0.1093	-0.5832	0.7902
6.28	-0.1155	-9.5475	2.9964	-0.0212	-0.0047	-0.0123	-8.6348	11.1003	-3.3694	-0.1540	0.1093	-0.5832	0.7900
6.29	-0.1153	-9.5729	3.0104	-0.0075	-0.0130	-0.0129	-8.8188	11.4197	-3.3886	-0.1540	0.1094	-0.5833	0.7900
6.3	-0.1187	-9.5790	3.0130	-0.0045	-0.0142	-0.0090	-8.6286	11.3610	-3.3317	-0.1540	0.1095	-0.5833	0.7900
6.31	-0.1162	-9.5385	3.0197	0.0013	-0.0128	-0.0101	-8.5347	11.2542	-3.2427	-0.1541	0.1095	-0.5832	0.7899
6.32	-0.1132	-9.4960	3.0212	0.0046	-0.0166	-0.0090	-8.5416	11.1048	-3.4196	-0.1541	0.1096	-0.5833	0.7900
6.33	-0.1071	-9.4614	3.0176	0.0056	-0.0179	-0.0061	-8.6447	11.2296	-3.6116	-0.1542	0.1096	-0.5832	0.7900
6.34	-0.1042	-9.4404	3.0166	-0.0034	-0.0193	-0.0089	-8.3674	11.3785	-3.2271	-0.1543	0.1097	-0.5833	0.7900
6.35	-0.0957	-9.4730	3.0213	-0.0076	-0.0209	-0.0074	-8.3021	11.1911	-3.0823	-0.1543	0.1098	-0.5832	0.7898
6.36	-0.0595	-9.4990	3.0326	-0.0076	-0.0170	-0.0132	-8.6348	11.1859	-3.1315	-0.1544	0.1099	-0.5833	0.7899
6.37	-0.0278	-9.5128	3.0277	-0.0068	-0.0113	-0.0228	-8.7367	11.4059	-3.2083	-0.1543	0.1099	-0.5833	0.7898
6.38	-0.0075	-9.5058	3.0258	-0.0024	-0.0088	-0.0244	-8.6452	11.1781	-3.2442	-0.1543	0.1100	-0.5833	0.7898
6.39	0.0105	-9.4827	3.0258	-0.0044	-0.0145	-0.0205	-8.8106	11.2836	-3.3752	-0.1543	0.1101	-0.5833	0.7898
6.4	0.0151	-9.4821	3.0282	0.0019	-0.0016	-0.0168	-8.8227	11.3452	-3.1778	-0.1543	0.1101	-0.5833	0.7898
6.41	0.0021	-9.4819	3.0294	0.0018	0.0161	-0.0094	-8.7317	11.2152	-3.2271	-0.1543	0.1101	-0.5833	0.7899
6.42	-0.0291	-9.5013	3.0307	-0.0008	0.0182	-0.0083	-8.7685	11.3604	-3.2872	-0.1542	0.1100	-0.5833	0.7898
6.43	-0.0663	-9.5002	3.0254	0.0048	0.0122	-0.0071	-8.7482	11.4596	-3.2480	-0.1542	0.1099	-0.5833	0.7899
6.44	-0.0819	-9.4779	3.0223	-0.0035	0.0177	-0.0109	-8.6003	11.3993	-3.2959	-0.1541	0.1099	-0.5833	0.7899
6.45	-0.0865	-9.4826	3.0244	0.0029	0.0174	-0.0127	-8.5896	11.2791	-3.4527	-0.1541	0.1098	-0.5834	0.7899
6.46	-0.0881	-9.4891	3.0206	0.0011	0.0205	-0.0094	-8.4828	11.1550	-3.4356	-0.1540	0.1097	-0.5834	0.7899
6.47	-0.0821	-9.4857	3.0210	0.0058	0.0158	-0.0089	-8.5008	11.0913	-3.3180	-0.1540	0.1097	-0.5834	0.7899
6.48	-0.0763	-9.4972	3.0195	-0.0001	0.0156	-0.0123	-8.6883	11.4473	-3.3716	-0.1539	0.1096	-0.5834	0.7899
6.49	-0.0750	-9.5111	3.0197	-0.0036	0.0229	-0.0192	-8.9575	11.3651	-3.3317	-0.1538	0.1095	-0.5834	0.7899
6.5	-0.0769	-9.5208	3.0170	-0.0043	0.0202	-0.0179	-8.9292	11.2204	-3.5876	-0.1537	0.1095	-0.5835	0.7900
6.51	-0.0781	-9.5181	3.0200	-0.0027	0.0220	-0.0133	-8.7983	11.3065	-3.4728	-0.1536	0.1094	-0.5835	0.7899
6.52	-0.0766	-9.5190	3.0098	-0.0018	0.0098	-0.0080	-8.6812	11.1621	-3.2103	-0.1536	0.1094	-0.5836	0.7900
6.53	-0.0779	-9.5085	3.0106	0.0092	0.0133	-0.0069	-8.6663	11.2675	-3.3979	-0.1536	0.1093	-0.5835	0.7899
6.54	-0.0699	-9.5147	3.0093	0.0104	0.0221	-0.0068	-8.8004	11.4728	-3.4160	-0.1535	0.1092	-0.5835	0.7900
6.55	-0.0644	-9.5176	3.0118	0.0107	0.0169	-0.0072	-8.8847	11.4254	-3.3669	-0.1535	0.1091	-0.5835	0.7900
6.56	-0.0664	-9.5089	3.0208	0.0193	0.0211	-0.0062	-8.7411	11.4192	-3.2511	-0.1534	0.1090	-0.5834	0.7900
6.57	-0.0762	-9.5088	3.0270	0.0207	0.0231	-0.0052	-8.7763	11.6574	-3.3010	-0.1534	0.1089	-0.5834	0.7902
6.58	-0.0891	-9.4987	3.0277	0.0221	0.0221	-0.0070	-8.8433	11.6924	-3.4747	-0.1534	0.1088	-0.5833	0.7902
6.59	-0.0928	-9.4743	3.0325	0.0222	0.0152	-0.0067	-8.6609	11.5263	-3.2581	-0.1534	0.1087	-0.5832	0.7903
6.6	-0.1018	-9.4696	3.0413	0.0160	0.0196	-0.0067	-8.6718	11.4519	-3.2514	-0.1533	0.1086	-0.5831	0.7903
6.61	-0.0994	-9.4697	3.0424	0.0201	0.0161	-0.0078	-8.6805	11.5293	-3.3119	-0.1533	0.1085	-0.5831	0.7904
6.62	-0.1159	-9.4729	3.0457	0.0164	0.0143	-0.0065	-8.8142	11.3644	-3.4957	-0.1533	0.1084	-0.5831	0.7904
6.63	-0.1302	-9.4602	3.0433	0.0213	0.0233	-0.0068	-8.6008	11.3439	-3.4132	-0.1532	0.1083	-0.5830	0.7905
6.64	-0.1337	-9.4657	3.0406	0.0108	0.0250	-0.0055	-8.4604	11.2722	-3.6505	-0.1532	0.1082	-0.5830	0.7906
6.65	-0.1338	-9.4715	3.0373	0.0027	0.0206	-0.0054	-8.6738	11.3537	-3.5047	-0.1531	0.1081	-0.5830	0.7905
6.66	-0.1488	-9.4734	3.0280	0.0027	0.0129	-0.0075	-8.8113	11.3594	-3.5618	-0.1531	0.1081	-0.5830	0.7906
6.67	-0.1476	-9.4798	3.0176	-0.0028	0.0180	-0.0067	-8.6305	11.3183	-3.4480	-0.1530	0.1080	-0.5830	0.7905
6.68	-0.1437	-9.4772	3.0152	0.0017	0.0172	-0.0101	-8.9349	11.4063	-3.4271	-0.1530	0.1079	-0.5831	0.7906
6.69	-0.1444	-9.4815	3.0158	0.0091	0.0148	-0.0108	-8.8832	11.3749	-3.1760	-0.1530	0.1078	-0.5830	0.7906
6.7	-0.1464	-9.4821	3.0187	0.0051	0.0156	-0.0115	-8.6132	11.1577	-3.4320	-0.1529	0.1078	-0.5830	0.7906
6.71	-0.1460	-9.4782	3.0201	0.0078	0.0131	-0.0087	-8.8292	11.1611	-3.4501	-0.1529	0.1077	-0.5830	0.7906
6.72	-0.1353	-9.4859	3.0255	0.0063	0.0058	-0.0151	-8.6614	11.2211	-3.6964	-0.1528	0.1077	-0.5830	0.7907
6.73	-0.1224	-9.4923	3.0228	0.0054	0.0152	-0.0174	-8.5966	11.6264	-3.3067	-0.1528	0.1077	-0.5830	0.7907
6.74	-0.1093	-9.4769	3.0137	0.0108	0.0166	-0.0244	-8.7951	11.6145	-3.2965	-0.1527	0.1076	-0.5829	0.7907
6.75	-0.1172	-9.4527	3.0076	0.0105	0.0184	-0.0263	-8.5379	11.5002	-3.6388	-0.1526	0.1076	-0.5830	0.7908
6.76	-0.1537	-9.4655	3.0089	-0.0025	0.0241	-0.0191	-8.5887	11.4096	-3.4101	-0.1524	0.1075	-0.5829	0.7908
6.77	-0.1746	-9.5004	3.0126	-0.0059	0.0085	-0.0182	-8.8504	11.2330	-3.3569	-0.1524	0.1075	-0.5830	0.7909
6.78	-0.1509	-9.5066	3.0168	-0.0052	0.0037	-0.0129	-8.7467	11.4551	-3.2442	-0.1523	0.1075	-0.5829	0.7908
6.79	-0.1288	-9.5127	3.0260	-0.0052	0.0014	-0.0217	-8.6709	11.6545	-3.3248	-0.1523	0.1075	-0.5830	0.7908
6.8	-0.1357	-9.5324	3.0253	-0.0044	-0.0066	-0.0141	-8.7934	11.3895	-3.3102	-0.1523	0.1076	-0.5830	0.7908
6.81	-0.1383	-9.5312	3.0149	0.0018	0.0008	-0.0126	-8.7937	11.2489	-3.3023	-0.1523	0.1076	-0.5830	0.7907
6.82	-0.1246	-9.5051	3.0118	0.0104	0.0003	-0.0180	-8.9162	11.3605	-3.4958	-0.1523	0.1076	-0.5830	0.7909
6.83	-0.1107	-9.4935	3.0091	0.0151	0.0035	-0.0158	-8.7113	11.2062	-3.5431	-0.1522	0.1076	-0.5829	0.7908
6.84	-0.1095	-9.4862	3.0079	0.0164	-0.0077	-0.0191	-8.0260	11.3756	-3.2713	-0.1522	0.1077	-0.5829	0.7909
6.85	-0.1000	-9.4798	3.0140	0.0121	-0.0091	-0.0109	-8.0976	11.2341	-3.2677	-0.1522	0.1077	-0.5828	0.7909
6.86	-0.0879	-9.4745	3.0244	0.0160	-0.0110	-0.0112	-8.3543	11.3059	-3.1970	-0.1523	0.1077	-0.5828	0.7910
6.87	-0.0793	-9.4628	3.0284	0.0114	-0.0095	-0.0138	-8.5686	11.3737	-3.2871	-0.1523	0.1078	-0.5827	0.7910
6.88	-0.0851	-9.4562	3.0384	0.0147	-0.0079	-0.0161	-8.7377	11.2744	-3.4068	-0.1523	0.1078	-0.5826	0.7910
6.89	-0.0905	-9.4506	3.0419	0.0152	-0.0044	-0.0177	-8.6663	11.4587	-3.3767	-0.1523	0.1078	-0.5826	0.7911
6.9	-0.0916	-9.4624	3.0483	0.0088	0.0008	-0.0129	-8.7503	11.3027	-3.3944	-0.1523	0.1078	-0.5825	0.7911
6.91	-0.0914	-9.4786	3.0560	-0.0001	-0.0029	-0.0191	-8.7696	11.4271	-3.3782	-0.1522	0.1079	-0.5826	0.7911
6.92	-0.1103	-9.4930	3.0455	-0.0060	-0.0017	-0.0153	-8.8885	11.5890	-3.4016	-0.1522	0.1079	-0.5825	0.7910
6.93	-0.1179	-9.4953	3.0456	-0.0028	-0.0070	-0.0217	-8.9429	11.4806	-3.3780	-0.1522	0.1080	-0.5826	0.7911
6.94	-0.1120	-9.4780	3.0446	-0.0051	-0.0105	-0.0177	-8.5585	11.5885	-3.2475	-0.1522	0.1080	-0.5826	0.7911
6.95	-0.0956	-9.4575	3.0382	0.0016	-0.0094	-0.0203	-8.6839	11.3626	-3.3969	-0.1522	0.1081	-0.5826	0.7911
6.96	-0.0639	-9.4812	3.0493	-0.0018	-0.0133	-0.0202	-8.7225	11.4282	-3.3688	-0.1522	0.1082	-0.5826	0.7910
6.97	-0.0454	-9.5165	3.0628	-0.0017	-0.0069	-0.0159	-8.8878	11.3617	-3.2991	-0.1521	0.1082	-0.5826	0.7910
6.98	-0.0293	-9.5240	3.0682	0.0053	-0.0092	-0.0181	-8.7326	11.2761	-3.4373	-0.1521	0.1083	-0.5826	0.7911
6.99	-0.0266	-9.4973	3.0596	0.0130	-0.0106	-0.0207	-8.8849	11.3958	-3.2717	-0.1521	0.1084	-0.5824	0.7910
7	-0.0195	-9.4477	3.0641	0.0093	0.0025	-0.0143	-8.7818	11.4047	-3.3095	-0.1521	0.1084	-0.5825	0.7912
7.01	-0.0236	-9.4273	3.0592	0.0049	0.0092	-0.0071	-8.5913	11.2300	-3.2634	-0.1521	0.1083	-0.5824	0.7911
7.02	-0.0392	-9.4286	3.0449	-0.0045	0.0174	-0.0071	-8.4880	11.2390	-3.3573	-0.1521	0.1083	-0.5825	0.7912
7.03	-0.0662	-9.4200	3.0375	-0.0063	0.0254	-0.0073	-8.5310	11.1154	-3.4805	-0.1520	0.1082	-0.5825	0.7911
7.04	-0.0949	-9.4152	3.0230	-0.0087	0.0269	-0.0068	-8.5218	11.0481	-3.4748	-0.1519	0.1080	-0.5825	0.7911
7.05	-0.1146	-9.4109	3.0181	-0.0237	0.0289	-0.0079	-8.7141	11.1928	-3.4422	-0.1518	0.1079	-0.5826	0.7911
7.06	-0.1170	-9.4242	3.0135	-0.0300	0.0203	-0.0116	-8.9235	11.3273	-3.2520	-0.1518	0.1079	-0.5827	0.7910
7.07	-0.1041	-9.4415	3.0162	-0.0303	0.0151	-0.0167	-8.7121	11.2801	-3.5191	-0.1517	0.1079	-0.5829	0.7910
7.08	-0.1021	-9.4672	3.0150	-0.0332	0.0156	-0.0169	-8.7739	11.3765	-3.5693	-0.1516	0.1078	-0.5830	0.7909
7.09	-0.1036	-9.4916	3.0108	-0.0357	0.0140	-0.0109	-8.8816	11.3248	-3.1132	-0.1515	0.1078	-0.5832	0.7909
7.1	-0.1133	-9.5037	2.9992	-0.0323	0.0224	-0.0131	-8.5478	11.3869	-3.1019	-0.1514	0.1077	-0.5832	0.7907
7.11	-0.1347	-9.5328	2.9856	-0.0342	0.0214	-0.0121	-8.7553	11.6206	-3.3301	-0.1513	0.1077	-0.5834	0.7907
7.12	-0.1467	-9.5546	2.9733	-0.0373	0.0110	-0.0131	-8.6233	11.3878	-3.2923	-0.1513	0.1077	-0.5836	0.7905
7.13	-0.1447	-9.5614	2.9641	-0.0322	0.0004	-0.0138	-8.5972	11.4196	-3.2129	-0.1512	0.1077	-0.5837	0.7904
7.14	-0.1304	-9.5684	2.9638	-0.0283	-0.0042	-0.0109	-8.7091	11.2877	-3.1864	-0.1512	0.1078	-0.5839	0.7904
7.15	-0.1220	-9.5767	2.9671	-0.0294	-0.0073	-0.0133	-8.7002	11.4599	-3.3434	-0.1512	0.1078	-0.5840	0.7902
7.16	-0.1092	-9.5846	2.9657	-0.0247	-0.0105	-0.0152	-8.6813	11.4944	-3.2265	-0.1512	0.1079	-0.5841	0.7902
7.17	-0.1014	-9.5573	2.9578	-0.0211	-0.0160	-0.0078	-8.7797	11.4996	-3.1116	-0.1512	0.1080	-0.5841	0.7900
7.18	-0.0980	-9.5492	2.9667	-0.0124	-0.0233	-0.0080	-8.8998	11.2592	-3.2103	-0.1513	0.1081	-0.5842	0.7901
7.19	-0.0820	-9.5754	2.9744	-0.0026	-0.0199	-0.0086	-8.5206	11.3666	-3.3727	-0.1513	0.1082	-0.5842	0.7900
7.2	-0.0579	-9.5530	2.9834	-0.0019	-0.0202	-0.0095	-8.5876	11.1459	-3.3304	-0.1514	0.1083	-0.5842	0.7900
7.21	-0.0244	-9.5336	2.9865	0.0036	-0.0216	-0.0064	-8.6236	11.1334	-3.0653	-0.1515	0.1083	-0.5842	0.7900
7.22	0.0083	-9.5086	2.9990	0.0161	-0.0155	-0.0076	-8.5847	11.2439	-3.2571	-0.1515	0.1084	-0.5841	0.7900
7.23	0.0252	-9.4704	3.0059	0.0169	-0.0174	-0.0136	-8.8460	11.2390	-3.3191	-0.1516	0.1084	-0.5840	0.7901
7.24	0.0124	-9.4586	3.0170	0.0114	-0.0047	-0.0092	-8.8966	11.4503	-3.1943	-0.1516	0.1085	-0.5839	0.7900
7.25	-0.0074	-9.4647	3.0248	0.0124	0.0124	-0.0059	-8.6572	11.1502	-3.2097	-0.1516	0.1084	-0.5840	0.7901
7.26	-0.0396	-9.4608	3.0267	0.0033	0.0131	-0.0070	-8.7068	11.3319	-3.4831	-0.1516	0.1083	-0.5840	0.7901
7.27	-0.0660	-9.4621	3.0254	-0.0004	0.0119	-0.0135	-8.6868	11.4257	-3.1954	-0.1515	0.1083	-0.5840	0.7902
7.28	-0.0781	-9.4464	3.0210	-0.0041	0.0145	-0.0221	-8.6986	11.3875	-3.2105	-0.1514	0.1083	-0.5840	0.7901
7.29	-0.0977	-9.4529	3.0215	-0.0057	0.0173	-0.0243	-8.7022	11.4040	-3.2886	-0.1513	0.1083	-0.5840	0.7901
7.3	-0.0942	-9.4786	3.0148	-0.0048	0.0199	-0.0178	-8.8618	11.4082	-2.9572	-0.1512	0.1082	-0.5841	0.7901
7.31	-0.0818	-9.4862	3.0148	-0.0128	0.0186	-0.0262	-8.8783	11.3724	-3.1880	-0.1511	0.1082	-0.5841	0.7901
7.32	-0.0793	-9.4891	2.9996	-0.0164	0.0215	-0.0223	-8.7711	11.6250	-3.3306	-0.1510	0.1082	-0.5843	0.7901
7.33	-0.0748	-9.4842	2.9896	-0.0051	0.0131	-0.0208	-8.9277	11.6426	-3.4112	-0.1509	0.1082	-0.5842	0.7900
7.34	-0.0519	-9.4945	2.9876	-0.0145	0.0187	-0.0197	-8.5075	11.5034	-3.0790	-0.1508	0.1082	-0.5844	0.7901
7.35	-0.0444	-9.5167	2.9865	-0.0103	0.0200	-0.0203	-8.2474	11.3863	-2.8682	-0.1506	0.1081	-0.5843	0.7899
7.36	-0.0545	-9.5279	2.9802	-0.0056	0.0101	-0.0168	-8.6160	11.2708	-3.0993	-0.1506	0.1081	-0.5844	0.7900
7.37	-0.0592	-9.5164	2.9769	-0.0025	0.0079	-0.0088	-8.6246	11.5624	-3.1116	-0.1506	0.1081	-0.5844	0.7900
7.38	-0.0661	-9.5178	2.9874	-0.0052	0.0077	-0.0089	-8.6414	11.1856	-3.2141	-0.1505	0.1080	-0.5845	0.7900
7.39	-0.0693	-9.5437	2.9860	-0.0055	0.0115	-0.0061	-8.8187	11.3132	-3.3445	-0.1505	0.1080	-0.5845	0.7900
7.4	-0.0675	-9.5428	2.9888	-0.0036	0.0114	-0.0074	-8.6813	11.3304	-3.2155	-0.1505	0.1079	-0.5845	0.7899
7.41	-0.0618	-9.5251	2.9935	0.0059	0.0136	-0.0074	-8.5260	11.0973	-3.2366	-0.1504	0.1079	-0.5846	0.7900
7.42	-0.0498	-9.4986	2.9913	0.0048	0.0111	-0.0068	-8.7743	11.4092	-3.2657	-0.1504	0.1078	-0.5845	0.7899
7.43	-0.0621	-9.5000	2.9965	0.0030	0.0143	-0.0069	-8.7698	11.3199	-3.0920	-0.1504	0.1078	-0.5846	0.7900
7.44	-0.0775	-9.5004	2.9934	0.0020	0.0121	-0.0075	-8.5658	11.4440	-3.2809	-0.1504	0.1077	-0.5846	0.7900
7.45	-0.0773	-9.4815	2.9962	0.0058	0.0157	-0.0071	-8.6709	11.3909	-3.3027	-0.1503	0.1077	-0.5846	0.7900
7.46	-0.0805	-9.4843	2.9975	0.0012	0.0171	-0.0072	-8.6512	11.2564	-3.1100	-0.1503	0.1076	-0.5846	0.7900
7.47	-0.0864	-9.4997	2.9953	-0.0038	0.0184	-0.0090	-8.8549	11.3982	-3.3088	-0.1502	0.1075	-0.5846	0.7900
7.48	-0.0969	-9.4859	2.9858	0.0039	0.0248	-0.0065	-8.7366	11.5327	-3.1606	-0.1502	0.1074	-0.5846	0.7900
7.49	-0.1117	-9.4659	2.9884	-0.0055	0.0188	-0.0091	-8.6252	11.4795	-3.1512	-0.1501	0.1073	-0.5846	0.7899
7.5	-0.1085	-9.4827	2.9896	-0.0033	0.0275	-0.0093	-8.8971	11.2194	-3.2547	-0.1500	0.1072	-0.5847	0.7900
7.51	-0.1077	-9.4957	2.9947	-0.0034	0.0278	-0.0092	-8.8282	11.4817	-3.2432	-0.1499	0.1071	-0.5848	0.7900
7.52	-0.1214	-9.4845	2.9889	-0.0027	0.0291	-0.0083	-8.5789	11.3559	-3.2472	-0.1499	0.1070	-0.5848	0.7901
7.53	-0.1384	-9.4696	2.9838	-0.0055	0.0246	-0.0064	-8.6775	11.4591	-3.2531	-0.1498	0.1069	-0.5848	0.7899
7.54	-0.1517	-9.4714	2.9788	-0.0056	0.0217	-0.0084	-8.7684	11.6720	-3.1169	-0.1497	0.1068	-0.5849	0.7900
7.55	-0.1567	-9.4806	2.9775	-0.0067	0.0114	-0.0070	-8.8011	11.4092	-3.2277	-0.1497	0.1068	-0.5849	0.7900
7.56	-0.1396	-9.4906	2.9799	-0.0058	0.0088	-0.0089	-8.8747	11.2577	-3.2498	-0.1497	0.1067	-0.5849	0.7899
7.57	-0.1286	-9.4969	2.9768	-0.0095	0.0080	-0.0084	-8.8412	11.3906	-3.2401	-0.1497	0.1067	-0.5850	0.7900
7.58	-0.1288	-9.5159	2.9767	-0.0143	0.0090	-0.0109	-8.7116	11.4554	-3.3904	-0.1496	0.1067	-0.5850	0.7899
7.59	-0.1156	-9.5248	2.9679	-0.0115	0.0071	-0.0135	-8.6497	11.2413	-3.2393	-0.1496	0.1067	-0.5851	0.7899
7.6	-0.1015	-9.4994	2.9664	-0.0058	0.0025	-0.0139	-8.7619	11.3844	-3.2489	-0.1495	0.1067	-0.5851	0.7898
7.61	-0.0867	-9.5031	2.9817	-0.0191	0.0029	-0.0172	-8.8918	11.4488	-3.2314	-0.1495	0.1067	-0.5852	0.7898
7.62	-0.0993	-9.5166	2.9703	-0.0120	0.0119	-0.0127	-8.7611	11.4988	-3.1166	-0.1494	0.1067	-0.5852	0.7898
7.63	-0.1131	-9.5059	2.9668	-0.0052	0.0074	-0.0155	-8.5263	11.5740	-3.2378	-0.1494	0.1067	-0.5853	0.7898
7.64	-0.1303	-9.5118	2.9650	-0.0106	0.0030	-0.0122	-8.8181	11.4341	-3.3581	-0.1494	0.1067	-0.5853	0.7898
7.65	-0.1387	-9.5271	2.9581	-0.0087	-0.0011	-0.0099	-8.8273	11.0510	-3.3015	-0.1493	0.1067	-0.5854	0.7897
7.66	-0.1219	-9.5234	2.9561	-0.0074	-0.0018	-0.0065	-8.7185	11.4787	-3.1947	-0.1494	0.1068	-0.5854	0.7897
7.67	-0.1051	-9.5247	2.9502	-0.0100	-0.0016	-0.0109	-8.8602	11.5860	-3.3851	-0.1493	0.1068	-0.5854	0.7896
7.68	-0.0970	-9.5257	2.9497	-0.0069	-0.0097	-0.0117	-8.8354	11.2931	-3.1674	-0.1494	0.1068	-0.5855	0.7896
7.69	-0.0927	-9.5230	2.9434	-0.0048	-0.0026	-0.0148	-8.7072	11.4361	-3.1971	-0.1494	0.1069	-0.5855	0.7896
7.7	-0.0911	-9.5297	2.9367	-0.0092	-0.0063	-0.0151	-8.8740	11.4590	-2.9755	-0.1494	0.1069	-0.5855	0.7896
7.71	-0.0882	-9.5352	2.9344	-0.0019	-0.0080	-0.0100	-8.7251	11.4451	-3.0676	-0.1494	0.1070	-0.5855	0.7895
7.72	-0.0759	-9.5460	2.9361	0.0072	-0.0086	-0.0138	-8.6908	11.4647	-3.4177	-0.1494	0.1070	-0.5855	0.7896
7.73	-0.0718	-9.5404	2.9362	0.0021	-0.0083	-0.0137	-8.7741	11.4171	-3.0659	-0.1494	0.1071	-0.5855	0.7896
7.74	-0.0533	-9.5434	2.9436	0.0043	-0.0113	-0.0127	-8.7742	11.2583	-3.0375	-0.1494	0.1071	-0.5854	0.7895
7.75	-0.0281	-9.5352	2.9600	0.0105	-0.0027	-0.0135	-8.6156	11.2938	-3.1910	-0.1494	0.1072	-0.5855	0.7896
7.76	-0.0222	-9.5326	2.9701	0.0135	0.0033	-0.0136	-8.7724	11.2570	-3.4116	-0.1494	0.1072	-0.5854	0.7896
7.77	-0.0449	-9.5231	2.9653	0.0110	0.0050	-0.0102	-8.6045	11.3264	-3.1909	-0.1494	0.1071	-0.5854	0.7897
7.78	-0.0826	-9.4964	2.9537	0.0110	0.0115	-0.0159	-8.6628	11.0432	-3.0084	-0.1493	0.1071	-0.5853	0.7897
7.79	-0.1020	-9.4648	2.9464	0.0027	0.0030	-0.0178	-8.7832	11.2987	-3.3673	-0.1493	0.1071	-0.5853	0.7897
7.8	-0.0960	-9.4815	2.9584	-0.0046	-0.0050	-0.0199	-8.7775	11.5025	-3.2232	-0.1493	0.1072	-0.5853	0.7897
7.81	-0.0842	-9.5232	2.9713	-0.0059	-0.0006	-0.0127	-8.6428	11.4428	-3.1200	-0.1492	0.1072	-0.5853	0.7896
7.82	-0.0704	-9.5596	2.9797	-0.0017	-0.0064	-0.0157	-8.9102	11.3504	-3.1714	-0.1493	0.1073	-0.5854	0.7897
7.83	-0.0414	-9.5732	2.9776	-0.0029	-0.0093	-0.0152	-9.0232	11.2636	-3.1308	-0.1493	0.1073	-0.5854	0.7896
7.84	-0.0155	-9.5523	2.9621	0.0026	-0.0027	-0.0071	-8.4217	11.4867	-2.9124	-0.1493	0.1073	-0.5854	0.7897
7.85	0.0021	-9.5442	2.9484	0.0040	0.0057	-0.0074	-8.2667	11.4195	-2.8321	-0.1493	0.1073	-0.5853	0.7896
7.86	0.0100	-9.5293	2.9482	0.0031	0.0160	-0.0064	-8.4570	11.3853	-3.1043	-0.1492	0.1073	-0.5854	0.7897
7.87	-0.0024	-9.5103	2.9370	0.0086	0.0127	-0.0083	-8.5686	11.3085	-3.2128	-0.1492	0.1072	-0.5853	0.7897
7.88	-0.0349	-9.4920	2.9320	0.0038	0.0200	-0.0064	-8.7794	11.3758	-3.1044	-0.1492	0.1071	-0.5853	0.7897
7.89	-0.0743	-9.4709	2.9212	0.0095	0.0177	-0.0082	-8.9921	11.4962	-3.1158	-0.1491	0.1071	-0.5854	0.7897
7.9	-0.1026	-9.4617	2.9254	0.0075	0.0227	-0.0110	-9.2129	11.4530	-3.2852	-0.1491	0.1070	-0.5853	0.7898
7.91	-0.1147	-9.4755	2.9376	0.0023	0.0211	-0.0063	-8.8010	11.4901	-3.2687	-0.1490	0.1069	-0.5854	0.7898
7.92	-0.1168	-9.4868	2.9527	0.0015	0.0136	-0.0099	-8.7932	11.4445	-3.0831	-0.1490	0.1068	-0.5853	0.7897
7.93	-0.1350	-9.4946	2.9569	-0.0028	0.0100	-0.0124	-8.7527	11.5203	-3.2593	-0.1489	0.1068	-0.5854	0.7898
7.94	-0.1399	-9.4997	2.9474	-0.0074	0.0120	-0.0141	-8.5569	11.1965	-3.1384	-0.1489	0.1068	-0.5854	0.7897
7.95	-0.1364	-9.5197	2.9413	-0.0048	0.0094	-0.0126	-8.6391	11.1526	-3.0912	-0.1488	0.1068	-0.5855	0.7898
7.96	-0.1227	-9.5460	2.9438	-0.0118	0.0041	-0.0166	-8.5110	11.3425	-3.1178	-0.1488	0.1068	-0.5855	0.7897
7.97	-0.1136	-9.5701	2.9369	-0.0098	-0.0002	-0.0202	-8.5042	11.1553	-3.1054	-0.1487	0.1068	-0.5855	0.7897
7.98	-0.1079	-9.5730	2.9250	-0.0060	-0.0050	-0.0174	-8.7861	11.2819	-3.1178	-0.1487	0.1069	-0.5856	0.7897
7.99	-0.0808	-9.5822	2.9205	-0.0048	-0.0095	-0.0159	-8.6918	11.3722	-3.1098	-0.1487	0.1070	-0.5855	0.7896
8	-0.0585	-9.5783	2.9185	0.0001	-0.0118	-0.0068	-8.7244	11.5056	-3.2250	-0.1488	0.1070	-0.5856	0.7897
8.01	-0.0444	-9.5629	2.9153	-0.0005	-0.0161	-0.0081	-8.7606	11.5612	-3.3650	-0.1488	0.1071	-0.5856	0.7896
8.02	-0.0386	-9.5336	2.9152	0.0086	-0.0215	-0.0076	-8.6832	11.3381	-3.4189	-0.1489	0.1072	-0.5856	0.7897
8.03	-0.0344	-9.5531	2.9280	0.0092	-0.0166	-0.0075	-8.6785	11.5126	-3.2982	-0.1489	0.1072	-0.5855	0.7896
8.04	-0.0202	-9.5635	2.9358	0.0078	-0.0134	-0.0074	-8.7526	11.4046	-3.1635	-0.1490	0.1073	-0.5855	0.7896
8.05	-0.0112	-9.5402	2.9501	0.0142	-0.0140	-0.0074	-8.9135	11.4426	-3.0975	-0.1491	0.1073	-0.5854	0.7897
8.06	0.0033	-9.5271	2.9588	0.0198	-0.0096	-0.0079	-8.8574	11.4672	-3.1299	-0.1491	0.1073	-0.5853	0.7897
8.07	0.0214	-9.4882	2.9711	0.0204	-0.0040	-0.0097	-8.8714	11.5113	-3.1036	-0.1492	0.1074	-0.5853	0.7898
8.08	0.0145	-9.4578	2.9756	0.0154	0.0034	-0.0096	-8.6251	11.5215	-2.9972	-0.1491	0.1073	-0.5852	0.7898
8.09	-0.0043	-9.4635	2.9917	0.0222	0.0187	-0.0087	-8.7720	11.5246	-3.0803	-0.1491	0.1073	-0.5852	0.7899
8.1	-0.0207	-9.4677	2.9898	0.0136	0.0259	-0.0070	-8.9604	11.5646	-3.2478	-0.1490	0.1072	-0.5851	0.7898
8.11	-0.0376	-9.4603	2.9874	0.0158	0.0273	-0.0082	-8.8668	11.4753	-3.1650	-0.1490	0.1071	-0.5851	0.7900
8.12	-0.0663	-9.4602	2.9805	0.0041	0.0291	-0.0118	-8.8598	11.5449	-3.1346	-0.1489	0.1069	-0.5851	0.7900
8.13	-0.0806	-9.4748	2.9811	-0.0036	0.0269	-0.0176	-8.6189	11.0953	-3.3051	-0.1488	0.1069	-0.5851	0.7900
8.14	-0.0890	-9.4968	2.9734	-0.0039	0.0282	-0.0249	-8.5891	11.1097	-3.3019	-0.1487	0.1068	-0.5852	0.7900
8.15	-0.1021	-9.4981	2.9682	-0.0086	0.0278	-0.0220	-8.6433	11.4193	-2.9964	-0.1485	0.1068	-0.5852	0.7900
8.16	-0.1205	-9.4850	2.9703	-0.0038	0.0219	-0.0131	-8.7293	11.2518	-3.1436	-0.1484	0.1067	-0.5853	0.7900
8.17	-0.1241	-9.5154	2.9737	-0.0103	0.0156	-0.0086	-8.6713	11.1755	-3.3160	-0.1484	0.1066	-0.5852	0.7899
8.18	-0.1282	-9.5314	2.9590	-0.0098	0.0067	-0.0117	-8.8447	11.4246	-3.3017	-0.1484	0.1066	-0.5854	0.7900
8.19	-0.1316	-9.4951	2.9580	-0.0066	0.0028	-0.0079	-8.6824	11.3648	-3.2666	-0.1483	0.1066	-0.5854	0.7899
8.2	-0.1243	-9.4965	2.9566	-0.0149	-0.0087	-0.0075	-8.5627	11.4005	-3.1203	-0.1484	0.1067	-0.5854	0.7899
8.21	-0.1071	-9.5086	2.9565	-0.0104	-0.0072	-0.0075	-8.7274	11.3879	-3.0042	-0.1484	0.1067	-0.5855	0.7898
8.22	-0.0932	-9.5153	2.9550	-0.0130	-0.0097	-0.0077	-8.7911	11.3794	-2.9172	-0.1484	0.1068	-0.5855	0.7898
8.23	-0.0752	-9.5165	2.9565	-0.0124	-0.0094	-0.0066	-8.7845	11.4237	-3.1325	-0.1485	0.1068	-0.5856	0.7897
8.24	-0.0621	-9.5247	2.9513	-0.0088	-0.0066	-0.0068	-8.7778	11.5732	-3.1110	-0.1485	0.1068	-0.5856	0.7896
8.25	-0.0590	-9.5272	2.9508	-0.0036	-0.0077	-0.0066	-8.8000	11.5493	-3.1379	-0.1485	0.1069	-0.5857	0.7897
8.26	-0.0570	-9.5228	2.9436	-0.0081	-0.0022	-0.0064	-8.5953	11.4143	-3.0796	-0.1485	0.1069	-0.5857	0.7896
8.27	-0.0522	-9.5314	2.9480	-0.0057	0.0039	-0.0065	-8.7148	11.3691	-3.2215	-0.1485	0.1069	-0.5858	0.7897
8.28	-0.0583	-9.5529	2.9516	-0.0035	0.0083	-0.0063	-9.0108	11.4030	-3.1013	-0.1485	0.1068	-0.5857	0.7895
8.29	-0.0686	-9.5611	2.9518	-0.0019	0.0069	-0.0060	-8.9237	11.3521	-3.0247	-0.1485	0.1068	-0.5858	0.7896
8.3	-0.0787	-9.5432	2.9501	0.0025	0.0095	-0.0061	-8.8325	11.4658	-2.9916	-0.1485	0.1068	-0.5858	0.7896
8.31	-0.0973	-9.5214	2.9530	0.0149	0.0094	-0.0056	-8.6732	11.4042	-3.2035	-0.1485	0.1067	-0.5857	0.7896
8.32	-0.1136	-9.5113	2.9584	0.0052	0.0157	-0.0062	-8.7321	11.2793	-3.2038	-0.1485	0.1067	-0.5858	0.7897
8.33	-0.1219	-9.4921	2.9578	0.0045	0.0170	-0.0067	-8.4784	11.2945	-3.0900	-0.1484	0.1066	-0.5857	0.7896
8.34	-0.1365	-9.4845	2.9613	0.0055	0.0166	-0.0064	-7.9767	11.3249	-3.0775	-0.1484	0.1065	-0.5858	0.7897
8.35	-0.1475	-9.4821	2.9556	-0.0054	0.0095	-0.0070	-7.9504	11.1693	-2.8667	-0.1484	0.1065	-0.5857	0.7896
8.36	-0.1504	-9.4742	2.9459	-0.0107	0.0145	-0.0092	-8.1250	11.2000	-3.1970	-0.1483	0.1065	-0.5858	0.7896
8.37	-0.1512	-9.4814	2.9404	-0.0074	0.0101	-0.0118	-8.5281	11.3660	-3.1643	-0.1483	0.1064	-0.5859	0.7896
8.38	-0.1467	-9.4967	2.9397	-0.0090	0.0061	-0.0109	-8.6968	11.1615	-3.0483	-0.1483	0.1064	-0.5859	0.7895
8.39	-0.1305	-9.5153	2.9421	-0.0055	0.0010	-0.0128	-8.6729	11.4261	-2.9453	-0.1482	0.1064	-0.5860	0.7895
8.4	-0.1124	-9.5278	2.9393	-0.0091	-0.0037	-0.0141	-8.6583	11.4359	-2.8747	-0.1482	0.1065	-0.5860	0.7895
8.41	-0.0960	-9.5326	2.9394	-0.0057	-0.0043	-0.0130	-8.9312	11.3286	-3.2769	-0.1482	0.1065	-0.5860	0.7895
8.42	-0.0872	-9.5310	2.9378	-0.0091	0.0033	-0.0184	-8.8562	11.4724	-3.1393	-0.1482	0.1066	-0.5860	0.7894
8.43	-0.0851	-9.5234	2.9371	-0.0052	0.0090	-0.0173	-8.7349	11.4542	-3.0515	-0.1481	0.1066	-0.5861	0.7895
8.44	-0.0852	-9.5260	2.9348	-0.0055	0.0084	-0.0192	-8.9270	11.4720	-3.0475	-0.1481	0.1066	-0.5861	0.7894
8.45	-0.0843	-9.5277	2.9353	-0.0063	0.0009	-0.0119	-8.9721	11.6664	-3.1451	-0.1480	0.1066	-0.5862	0.7894
8.46	-0.0832	-9.5268	2.9291	-0.0031	0.0028	-0.0113	-8.7358	11.5013	-3.1667	-0.1480	0.1066	-0.5862	0.7894
8.47	-0.0905	-9.5263	2.9317	-0.0047	0.0075	-0.0196	-8.7850	11.4893	-3.0100	-0.1480	0.1066	-0.5862	0.7894
8.48	-0.0884	-9.5284	2.9214	-0.0049	-0.0014	-0.0164	-8.7040	11.7378	-3.1495	-0.1479	0.1066	-0.5862	0.7894
8.49	-0.0840	-9.5349	2.9229	-0.0036	0.0017	-0.0163	-8.9568	11.6741	-3.1615	-0.1479	0.1067	-0.5862	0.7893
8.5	-0.0726	-9.5471	2.9207	-0.0031	-0.0079	-0.0197	-8.9102	11.3532	-3.1513	-0.1479	0.1067	-0.5863	0.7894
8.51	-0.0660	-9.5548	2.9065	-0.0058	-0.0091	-0.0175	-8.5577	11.3462	-3.2852	-0.1479	0.1068	-0.5863	0.7893
8.52	-0.0599	-9.5593	2.9011	-0.0054	-0.0087	-0.0134	-8.8268	11.4904	-3.1510	-0.1479	0.1069	-0.5863	0.7893
8.53	-0.0474	-9.5539	2.9052	-0.0046	-0.0115	-0.0124	-8.5249	11.0298	-3.1474	-0.1479	0.1069	-0.5863	0.7892
8.54	-0.0417	-9.5435	2.9017	0.0088	-0.0034	-0.0067	-8.6673	11.2894	-3.1321	-0.1479	0.1069	-0.5863	0.7893
8.55	-0.0362	-9.5411	2.9067	0.0046	-0.0062	-0.0117	-8.9434	11.6047	-3.0140	-0.1479	0.1070	-0.5863	0.7893
8.56	-0.0296	-9.5420	2.9207	0.0038	-0.0069	-0.0081	-8.6554	11.3651	-3.1456	-0.1480	0.1070	-0.5862	0.7892
8.57	-0.0256	-9.5262	2.9217	0.0148	0.0017	-0.0089	-8.6687	11.3829	-3.3541	-0.1480	0.1070	-0.5863	0.7894
8.58	-0.0274	-9.5165	2.9308	0.0177	-0.0035	-0.0068	-8.8302	11.4805	-3.1912	-0.1480	0.1070	-0.5862	0.7893
8.59	-0.0369	-9.5094	2.9564	0.0206	0.0065	-0.0086	-8.5889	11.4485	-3.1132	-0.1480	0.1070	-0.5861	0.7894
8.6	-0.0472	-9.5054	2.9617	0.0171	0.0123	-0.0096	-8.6791	11.4525	-3.2717	-0.1480	0.1069	-0.5860	0.7894
8.61	-0.0695	-9.4954	2.9653	0.0207	0.0140	-0.0078	-8.6470	11.5883	-3.3207	-0.1480	0.1069	-0.5860	0.7895
8.62	-0.0892	-9.4582	2.9476	0.0065	0.0076	-0.0121	-8.5846	11.4722	-3.0558	-0.1479	0.1068	-0.5860	0.7895
8.63	-0.0851	-9.4450	2.9357	-0.0058	-0.0036	-0.0146	-8.7826	11.5302	-3.0423	-0.1479	0.1069	-0.5860	0.7895
8.64	-0.0650	-9.4789	2.9445	-0.0025	0.0010	-0.0176	-8.8379	11.5547	-3.1918	-0.1479	0.1069	-0.5860	0.7895
8.65	-0.0398	-9.5360	2.9507	-0.0093	0.0033	-0.0127	-8.7304	11.6855	-3.0981	-0.1479	0.1069	-0.5860	0.7895
8.66	-0.0190	-9.5776	2.9570	-0.0126	-0.0003	-0.0153	-8.5816	11.5048	-2.8872	-0.1478	0.1069	-0.5861	0.7895
8.67	0.0001	-9.5897	2.9512	-0.0084	0.0049	-0.0175	-8.5789	11.4325	-3.1706	-0.1478	0.1069	-0.5861	0.7894
8.68	0.0182	-9.5768	2.9378	0.0009	-0.0001	-0.0128	-8.7884	11.4783	-3.2574	-0.1478	0.1070	-0.5861	0.7894
8.69	0.0133	-9.5513	2.9285	0.0023	0.0140	-0.0070	-8.5975	11.4180	-3.2349	-0.1477	0.1069	-0.5861	0.7894
8.7	-0.0018	-9.5354	2.9225	0.0062	0.0175	-0.0067	-8.8102	11.2791	-3.2587	-0.1477	0.1068	-0.5861	0.7895
8.71	-0.0351	-9.5145	2.9130	0.0023	0.0211	-0.0070	-8.5251	11.2827	-3.1378	-0.1477	0.1068	-0.5861	0.7894
8.72	-0.0768	-9.4995	2.9061	0.0032	0.0346	-0.0063	-8.6614	11.2814	-3.0257	-0.1476	0.1066	-0.5862	0.7895
8.73	-0.1255	-9.4830	2.9025	-0.0025	0.0283	-0.0074	-8.7947	11.2805	-3.0858	-0.1475	0.1065	-0.5862	0.7895
8.74	-0.1532	-9.4766	2.9035	-0.0037	0.0201	-0.0061	-8.7472	11.2780	-2.9419	-0.1474	0.1064	-0.5862	0.7894
8.75	-0.1638	-9.4909	2.9027	0.0024	0.0118	-0.0116	-8.7661	11.2842	-3.0912	-0.1474	0.1064	-0.5863	0.7895
8.76	-0.1513	-9.5081	2.9079	-0.0099	0.0071	-0.0157	-8.7965	11.2691	-3.1665	-0.1474	0.1064	-0.5863	0.7894
8.77	-0.1357	-9.5376	2.9084	-0.0106	0.0038	-0.0168	-8.8521	11.3290	-3.1535	-0.1473	0.1064	-0.5864	0.7895
8.78	-0.1192	-9.5584	2.9074	-0.0137	0.0042	-0.0192	-8.4839	11.5748	-3.0637	-0.1473	0.1064	-0.5864	0.7893
8.79	-0.1055	-9.5788	2.9069	-0.0138	-0.0042	-0.0222	-8.9537	11.5249	-3.1768	-0.1472	0.1065	-0.5865	0.7893
8.8	-0.0960	-9.5874	2.8992	-0.0055	-0.0092	-0.0148	-8.9513	11.4091	-3.1258	-0.1472	0.1066	-0.5865	0.7893
8.81	-0.0865	-9.5891	2.9037	-0.0026	-0.0082	-0.0110	-8.7916	11.5556	-3.2434	-0.1472	0.1066	-0.5865	0.7892
8.82	-0.0741	-9.5796	2.9002	-0.0020	-0.0080	-0.0075	-8.9841	11.6196	-3.2636	-0.1473	0.1067	-0.5866	0.7893
8.83	-0.0607	-9.5770	2.9053	0.0021	-0.0146	-0.0147	-8.4730	11.5488	-2.7631	-0.1473	0.1067	-0.5865	0.7892
8.84	-0.0414	-9.5668	2.9097	0.0032	-0.0188	-0.0116	-8.3296	11.7184	-2.9216	-0.1473	0.1068	-0.5865	0.7893
8.85	-0.0359	-9.5477	2.9120	0.0069	-0.0208	-0.0060	-8.2667	11.3908	-3.0648	-0.1474	0.1069	-0.5864	0.7892
8.86	-0.0415	-9.5169	2.9103	0.0123	-0.0228	-0.0084	-8.3842	11.4032	-3.2397	-0.1475	0.1070	-0.5864	0.7893
8.87	-0.0379	-9.5270	2.9174	0.0134	-0.0217	-0.0074	-8.6888	11.2729	-3.0577	-0.1476	0.1071	-0.5863	0.7893
8.88	-0.0268	-9.5589	2.9315	0.0116	-0.0223	-0.0077	-8.7567	11.2083	-2.9156	-0.1477	0.1071	-0.5863	0.7893
8.89	-0.0029	-9.5488	2.9448	0.0165	-0.0185	-0.0097	-8.5851	11.3222	-2.9185	-0.1477	0.1072	-0.5862	0.7893
8.9	0.0168	-9.5356	2.9405	0.0202	-0.0077	-0.0102	-8.6565	11.3217	-3.0027	-0.1478	0.1072	-0.5861	0.7894
8.91	0.0440	-9.5164	2.9448	0.0207	0.0038	-0.0058	-8.5251	11.2329	-3.1788	-0.1478	0.1072	-0.5861	0.7894
8.92	0.0538	-9.5053	2.9608	0.0214	0.0116	-0.0065	-8.6000	11.2757	-2.9987	-0.1478	0.1071	-0.5860	0.7894
8.93	0.0318	-9.5186	2.9610	0.0213	0.0213	-0.0065	-8.8401	11.5533	-3.2742	-0.1477	0.1071	-0.5860	0.7896
8.94	-0.0003	-9.5267	2.9631	0.0203	0.0325	-0.0067	-8.6034	11.5478	-3.0107	-0.1477	0.1069	-0.5859	0.7896
8.95	-0.0499	-9.5186	2.9696	0.0208	0.0377	-0.0083	-8.6752	11.3716	-3.1057	-0.1476	0.1068	-0.5859	0.7897
8.96	-0.0889	-9.5010	2.9671	0.0202	0.0401	-0.0066	-8.8260	11.5106	-3.1434	-0.1475	0.1066	-0.5858	0.7897
8.97	-0.1156	-9.4942	2.9679	0.0215	0.0377	-0.0061	-8.7468	11.4487	-3.2352	-0.1474	0.1064	-0.5858	0.7898
8.98	-0.1264	-9.4867	2.9685	0.0199	0.0309	-0.0090	-8.6971	11.5701	-3.0095	-0.1473	0.1063	-0.5857	0.7899
8.99	-0.1282	-9.4785	2.9739	0.0171	0.0320	-0.0097	-8.6741	11.4837	-3.1406	-0.1472	0.1061	-0.5857	0.7899
9	-0.1304	-9.4713	2.9715	0.0139	0.0265	-0.0165	-8.9552	11.4850	-3.0031	-0.1472	0.1061	-0.5857	0.7900
9.01	-0.1387	-9.4709	2.9724	0.0040	0.0179	-0.0111	-8.9185	11.6084	-2.9332	-0.1471	0.1060	-0.5857	0.7900
9.02	-0.1374	-9.4786	2.9706	0.0029	0.0164	-0.0108	-8.8930	11.5103	-2.9320	-0.1470	0.1059	-0.5857	0.7901
9.03	-0.1318	-9.4834	2.9673	-0.0063	0.0178	-0.0099	-8.7686	11.3618	-3.0410	-0.1470	0.1059	-0.5857	0.7900
9.04	-0.1173	-9.4982	2.9636	-0.0037	0.0092	-0.0069	-8.8536	11.5585	-3.0142	-0.1470	0.1058	-0.5858	0.7900
9.05	-0.1110	-9.5096	2.9546	-0.0029	0.0035	-0.0078	-8.9988	11.5136	-3.1010	-0.1470	0.1058	-0.5858	0.7900
9.06	-0.0929	-9.5208	2.9522	0.0014	0.0100	-0.0072	-8.6848	11.4845	-3.1258	-0.1469	0.1058	-0.5858	0.7899
9.07	-0.0783	-9.5320	2.9592	-0.0020	0.0076	-0.0069	-8.6113	11.3784	-3.2372	-0.1469	0.1058	-0.5859	0.7900
9.08	-0.0739	-9.5338	2.9566	0.0047	0.0014	-0.0063	-8.6262	11.0176	-3.1760	-0.1469	0.1057	-0.5858	0.7900
9.09	-0.0716	-9.5316	2.9619	-0.0023	-0.0024	-0.0077	-8.5944	11.3118	-3.3016	-0.1470	0.1058	-0.5859	0.7900
9.1	-0.0840	-9.5253	2.9524	0.0036	0.0059	-0.0073	-8.7342	11.2971	-3.2238	-0.1469	0.1057	-0.5858	0.7899
9.11	-0.0874	-9.5184	2.9565	0.0069	0.0044	-0.0068	-8.5564	11.3311	-2.9688	-0.1469	0.1057	-0.5858	0.7900
9.12	-0.0983	-9.5120	2.9621	0.0061	0.0056	-0.0083	-8.7399	11.4262	-3.0870	-0.1469	0.1057	-0.5858	0.7900
9.13	-0.1091	-9.5040	2.9660	0.0101	0.0125	-0.0083	-8.8190	11.3724	-3.2107	-0.1469	0.1056	-0.5858	0.7900
9.14	-0.1099	-9.5036	2.9711	0.0058	0.0107	-0.0068	-8.7076	11.4210	-3.2276	-0.1469	0.1056	-0.5858	0.7900
9.15	-0.1049	-9.5086	2.9666	0.0013	0.0118	-0.0078	-8.6537	11.4981	-3.0679	-0.1469	0.1055	-0.5858	0.7900
9.16	-0.1031	-9.5005	2.9624	0.0046	0.0120	-0.0114	-8.6426	11.6807	-3.0146	-0.1468	0.1055	-0.5858	0.7901
9.17	-0.1089	-9.4918	2.9593	-0.0018	0.0073	-0.0088	-8.8005	11.5525	-3.1367	-0.1468	0.1055	-0.5858	0.7900
9.18	-0.1127	-9.5025	2.9503	0.0011	0.0054	-0.0106	-8.8100	11.5100	-3.0166	-0.1468	0.1055	-0.5859	0.7900
9.19	-0.1134	-9.5148	2.9477	-0.0037	0.0071	-0.0089	-8.8849	11.3767	-3.0463	-0.1468	0.1055	-0.5859	0.7900
9.2	-0.1142	-9.5211	2.9502	-0.0003	0.0112	-0.0085	-8.6818	11.3214	-3.0061	-0.1468	0.1054	-0.5859	0.7900
9.21	-0.1137	-9.5196	2.9496	-0.0037	0.0041	-0.0086	-8.7075	11.6195	-3.2468	-0.1467	0.1054	-0.5859	0.7900
9.22	-0.1113	-9.5241	2.9534	0.0075	0.0093	-0.0066	-8.9679	11.5472	-3.2017	-0.1467	0.1054	-0.5859	0.7900
9.23	-0.1122	-9.5227	2.9508	0.0074	0.0075	-0.0090	-8.9272	11.5877	-2.8595	-0.1467	0.1053	-0.5859	0.7900
9.24	-0.1185	-9.5142	2.9530	0.0157	0.0038	-0.0127	-8.7857	11.5071	-3.2429	-0.1467	0.1053	-0.5858	0.7900
9.25	-0.1147	-9.5088	2.9638	0.0167	0.0026	-0.0100	-8.6892	11.2335	-3.2779	-0.1467	0.1053	-0.5858	0.7901
9.26	-0.1070	-9.4998	2.9606	0.0111	0.0078	-0.0116	-8.5831	11.2586	-3.2468	-0.1467	0.1053	-0.5857	0.7901
9.27	-0.0977	-9.4954	2.9648	0.0126	0.0047	-0.0114	-8.6517	11.3172	-3.2757	-0.1467	0.1053	-0.5858	0.7902
9.28	-0.0932	-9.4971	2.9633	0.0063	0.0024	-0.0160	-8.4818	11.3115	-3.0927	-0.1466	0.1053	-0.5857	0.7901
9.29	-0.0874	-9.5035	2.9619	-0.0030	-0.0046	-0.0228	-8.8323	11.2792	-3.1258	-0.1466	0.1053	-0.5857	0.7902
9.3	-0.0787	-9.5125	2.9622	-0.0025	-0.0053	-0.0141	-8.6500	11.2109	-2.9534	-0.1466	0.1054	-0.5857	0.7902
9.31	-0.0756	-9.5111	2.9570	-0.0049	-0.0035	-0.0172	-8.6801	11.1926	-3.2122	-0.1466	0.1054	-0.5857	0.7901
9.32	-0.0770	-9.5202	2.9497	-0.0033	0.0087	-0.0114	-8.8121	11.4557	-3.3406	-0.1466	0.1054	-0.5858	0.7902
9.33	-0.0764	-9.5239	2.9456	-0.0073	0.0060	-0.0124	-8.5241	11.4379	-2.9729	-0.1465	0.1054	-0.5858	0.7901
9.34	-0.0751	-9.5265	2.9458	-0.0026	0.0053	-0.0149	-8.4894	11.4274	-2.9728	-0.1465	0.1054	-0.5859	0.7901
9.35	-0.0800	-9.5224	2.9403	-0.0049	0.0089	-0.0111	-8.2770	11.5755	-3.1582	-0.1464	0.1054	-0.5858	0.7900
9.36	-0.0782	-9.5248	2.9357	-0.0026	-0.0027	-0.0087	-8.6536	11.5063	-3.0896	-0.1465	0.1054	-0.5859	0.7901
9.37	-0.0776	-9.5199	2.9305	-0.0091	-0.0090	-0.0073	-8.7715	11.6169	-3.0623	-0.1465	0.1055	-0.5859	0.7900
9.38	-0.0796	-9.5110	2.9347	0.0001	-0.0053	-0.0121	-8.7803	11.4110	-3.2665	-0.1465	0.1055	-0.5859	0.7900
9.39	-0.0798	-9.5090	2.9456	0.0073	-0.0045	-0.0104	-8.7448	11.2463	-3.1299	-0.1465	0.1055	-0.5859	0.7900
9.4	-0.0689	-9.5169	2.9470	0.0043	-0.0077	-0.0104	-9.0460	11.1887	-3.3200	-0.1465	0.1056	-0.5859	0.7900
9.41	-0.0603	-9.5195	2.9489	0.0001	-0.0073	-0.0080	-8.9243	11.6079	-3.3010	-0.1466	0.1056	-0.5859	0.7900
9.42	-0.0482	-9.5252	2.9603	0.0022	-0.0098	-0.0078	-8.6281	11.6557	-3.2267	-0.1466	0.1056	-0.5859	0.7899
9.43	-0.0495	-9.5368	2.9734	0.0001	-0.0037	-0.0090	-8.7981	11.5139	-3.1744	-0.1466	0.1057	-0.5859	0.7900
9.44	-0.0559	-9.5299	2.9665	0.0047	-0.0020	-0.0092	-8.7149	11.2442	-3.1233	-0.1466	0.1057	-0.5859	0.7900
9.45	-0.0658	-9.5048	2.9623	0.0048	-0.0066	-0.0079	-8.5869	11.1547	-3.2397	-0.1467	0.1057	-0.5859	0.7900
9.46	-0.0624	-9.4819	2.9569	0.0021	-0.0121	-0.0102	-8.5655	11.3991	-3.3335	-0.1467	0.1057	-0.5859	0.7899
9.47	-0.0484	-9.4784	2.9616	-0.0076	-0.0063	-0.0094	-8.6101	11.3596	-3.2588	-0.1467	0.1058	-0.5859	0.7899
9.48	-0.0362	-9.5148	2.9710	-0.0049	0.0055	-0.0091	-8.9040	11.3941	-3.3698	-0.1467	0.1058	-0.5860	0.7899
9.49	-0.0272	-9.5417	2.9826	-0.0003	0.0050	-0.0115	-8.6475	11.5911	-3.2816	-0.1467	0.1058	-0.5859	0.7898
9.5	-0.0248	-9.5522	2.9856	-0.0018	0.0064	-0.0097	-8.6828	11.3846	-2.9687	-0.1467	0.1058	-0.5860	0.7899
9.51	-0.0199	-9.5221	2.9773	0.0178	0.0129	-0.0129	-8.7826	11.1507	-3.2375	-0.1466	0.1057	-0.5859	0.7899
9.52	-0.0126	-9.4967	2.9775	0.0125	0.0131	-0.0113	-8.7434	11.4323	-3.3192	-0.1466	0.1057	-0.5860	0.7900
9.53	-0.0197	-9.4797	2.9624	0.0114	0.0226	-0.0072	-8.7673	11.2378	-3.1228	-0.1465	0.1056	-0.5859	0.7900
9.54	-0.0379	-9.4718	2.9591	0.0002	0.0287	-0.0067	-8.6287	11.3371	-3.2650	-0.1465	0.1055	-0.5859	0.7900
9.55	-0.0764	-9.4627	2.9493	-0.0068	0.0385	-0.0071	-8.9127	11.5228	-3.1024	-0.1464	0.1053	-0.5860	0.7900
9.56	-0.1145	-9.4591	2.9419	-0.0016	0.0253	-0.0066	-8.9501	11.2854	-3.2575	-0.1463	0.1052	-0.5860	0.7900
9.57	-0.1465	-9.4764	2.9419	-0.0090	0.0316	-0.0071	-8.8438	11.2569	-3.2567	-0.1463	0.1051	-0.5861	0.7901
9.58	-0.1644	-9.4842	2.9299	-0.0115	0.0225	-0.0093	-8.8246	11.3327	-3.2148	-0.1462	0.1050	-0.5861	0.7900
9.59	-0.1590	-9.4971	2.9294	-0.0215	0.0188	-0.0101	-8.4657	11.3776	-3.1203	-0.1461	0.1049	-0.5863	0.7900
9.6	-0.1578	-9.5172	2.9319	-0.0222	0.0172	-0.0095	-8.5836	11.3777	-3.2682	-0.1460	0.1049	-0.5863	0.7898
9.61	-0.1535	-9.5466	2.9298	-0.0202	-0.0010	-0.0091	-8.8112	11.4568	-3.2511	-0.1461	0.1049	-0.5864	0.7898
9.62	-0.1440	-9.5607	2.9226	-0.0224	-0.0060	-0.0103	-8.6946	11.3294	-3.0569	-0.1461	0.1049	-0.5865	0.7897
9.63	-0.1344	-9.5764	2.9266	-0.0171	-0.0164	-0.0139	-8.6588	11.4137	-3.1366	-0.1461	0.1050	-0.5866	0.7896
9.64	-0.1204	-9.5888	2.9238	-0.0143	-0.0139	-0.0148	-8.6852	11.1459	-3.1674	-0.1461	0.1051	-0.5867	0.7896
9.65	-0.1007	-9.5991	2.9177	-0.0054	-0.0157	-0.0083	-8.7865	11.2340	-3.1385	-0.1461	0.1052	-0.5867	0.7895
9.66	-0.0805	-9.6042	2.9223	-0.0021	-0.0222	-0.0124	-8.7317	11.1302	-3.1567	-0.1462	0.1053	-0.5867	0.7896
9.67	-0.0528	-9.5884	2.9225	0.0032	-0.0227	-0.0093	-8.8625	11.4844	-3.1655	-0.1463	0.1054	-0.5866	0.7894
9.68	-0.0364	-9.5723	2.9222	0.0126	-0.0271	-0.0095	-8.7208	11.4295	-2.9365	-0.1464	0.1055	-0.5866	0.7896
9.69	-0.0286	-9.5373	2.9255	0.0219	-0.0215	-0.0052	-8.8084	11.3816	-2.9948	-0.1465	0.1056	-0.5865	0.7896
9.7	-0.0333	-9.5392	2.9337	0.0216	-0.0217	-0.0050	-8.8755	11.5219	-2.9380	-0.1466	0.1056	-0.5864	0.7896
9.71	-0.0292	-9.5618	2.9530	0.0213	-0.0179	-0.0084	-8.7437	11.3123	-3.1983	-0.1466	0.1057	-0.5863	0.7896
9.72	-0.0136	-9.5424	2.9664	0.0237	-0.0185	-0.0056	-8.6339	11.4420	-2.9780	-0.1467	0.1057	-0.5862	0.7897
9.73	-0.0033	-9.5038	2.9738	0.0253	-0.0068	-0.0125	-8.7311	11.4078	-3.2366	-0.1467	0.1058	-0.5862	0.7898
9.74	0.0252	-9.4582	2.9831	0.0233	-0.0023	-0.0124	-8.7780	11.3518	-3.1700	-0.1467	0.1058	-0.5860	0.7898
9.75	0.0388	-9.4348	2.9968	0.0214	0.0055	-0.0132	-8.6367	11.4760	-3.1710	-0.1467	0.1058	-0.5860	0.7899
9.76	0.0251	-9.4474	3.0008	0.0225	0.0167	-0.0110	-8.7095	11.6196	-3.1114	-0.1467	0.1057	-0.5859	0.7899
9.77	0.0009	-9.4612	3.0074	0.0190	0.0263	-0.0093	-8.5712	11.6009	-3.0997	-0.1467	0.1056	-0.5859	0.7901
9.78	-0.0385	-9.4687	3.0044	0.0053	0.0359	-0.0101	-8.6662	11.3393	-3.2786	-0.1465	0.1054	-0.5859	0.7900
9.79	-0.0636	-9.4781	3.0052	0.0014	0.0300	-0.0060	-9.0223	11.3731	-3.2353	-0.1465	0.1053	-0.5859	0.7900
9.8	-0.0772	-9.4850	2.9994	0.0050	0.0349	-0.0116	-9.0263	11.3913	-3.2609	-0.1464	0.1052	-0.5859	0.7901
9.81	-0.0863	-9.4818	2.9922	0.0043	0.0293	-0.0130	-8.9817	11.5736	-3.2534	-0.1463	0.1051	-0.5859	0.7900
9.82	-0.0919	-9.4718	2.9884	-0.0059	0.0316	-0.0114	-8.5983	11.4275	-3.1480	-0.1462	0.1050	-0.5860	0.7901
9.83	-0.0930	-9.4656	2.9790	-0.0012	0.0284	-0.0085	-8.4523	11.2237	-2.9974	-0.1461	0.1049	-0.5860	0.7901
9.84	-0.1000	-9.4557	2.9721	-0.0049	0.0234	-0.0086	-8.2776	11.3932	-2.9863	-0.1460	0.1048	-0.5861	0.7901
9.85	-0.1070	-9.4622	2.9651	-0.0152	0.0174	-0.0081	-8.0648	11.2636	-3.2876	-0.1460	0.1047	-0.5861	0.7900
9.86	-0.1117	-9.4901	2.9612	-0.0225	0.0115	-0.0066	-8.2595	11.1615	-3.1545	-0.1460	0.1047	-0.5862	0.7900
9.87	-0.1101	-9.5144	2.9604	-0.0267	0.0093	-0.0061	-8.6673	11.3579	-3.1606	-0.1459	0.1047	-0.5864	0.7899
9.88	-0.1041	-9.5452	2.9581	-0.0267	0.0139	-0.0072	-8.5191	11.3983	-3.2082	-0.1459	0.1046	-0.5865	0.7898
9.89	-0.0938	-9.5737	2.9566	-0.0167	0.0092	-0.0076	-8.7542	11.3801	-3.2529	-0.1459	0.1046	-0.5866	0.7898
9.9	-0.0951	-9.5922	2.9563	-0.0103	0.0056	-0.0070	-8.9093	11.3607	-3.1360	-0.1459	0.1046	-0.5866	0.7897
9.91	-0.0958	-9.6056	2.9563	-0.0054	0.0090	-0.0026	-8.6950	11.2389	-3.0270	-0.1459	0.1045	-0.5867	0.7897
9.92	-0.0936	-9.5934	2.9598	0.0037	0.0029	-0.0064	-8.7178	11.4806	-3.2947	-0.1459	0.1045	-0.5866	0.7896
9.93	-0.0990	-9.5652	2.9601	0.0158	0.0095	-0.0036	-8.7097	11.5740	-3.0560	-0.1459	0.1045	-0.5867	0.7897
9.94	-0.1040	-9.5376	2.9616	0.0207	0.0121	-0.0050	-8.8725	11.5409	-3.2665	-0.1459	0.1044	-0.5866	0.7898
9.95	-0.1051	-9.5129	2.9635	0.0215	0.0171	-0.0074	-8.8927	11.5611	-3.3450	-0.1459	0.1043	-0.5865	0.7898
9.96	-0.1111	-9.4825	2.9727	0.0215	0.0203	-0.0052	-8.8868	11.5362	-3.2245	-0.1458	0.1042	-0.5865	0.7899
9.97	-0.1127	-9.4644	2.9764	0.0198	0.0215	-0.0053	-8.7573	11.5792	-3.3331	-0.1458	0.1041	-0.5864	0.7899
9.98	-0.1143	-9.4593	2.9824	0.0171	0.0182	-0.0067	-8.6692	11.4863	-3.1465	-0.1458	0.1040	-0.5864	0.7900
9.99	-0.1172	-9.4592	2.9875	0.0129	0.0125	-0.0084	-8.8301	11.4172	-3.0498	-0.1457	0.1039	-0.5863	0.7900
10	-0.1248	-9.4594	2.9904	0.0089	0.0147	-0.0075	-8.6704	11.0175	-3.0201	-0.1457	0.1039	-0.5864	0.7901
10.01	-0.1240	-9.4639	2.9929	0.0026	0.0158	-0.0056	-8.6283	10.9737	-3.1993	-0.1457	0.1038	-0.5863	0.7901
10.02	-0.1294	-9.4721	2.9917	-0.0052	0.0211	-0.0073	-8.5605	11.2564	-3.4972	-0.1456	0.1038	-0.5864	0.7901
10.03	-0.1292	-9.4776	2.9833	-0.0020	0.0150	-0.0094	-8.5162	11.0720	-3.5002	-0.1456	0.1037	-0.5864	0.7900
10.04	-0.1318	-9.4890	2.9865	-0.0054	0.0141	-0.0053	-8.5542	11.1540	-3.3698	-0.1456	0.1036	-0.5865	0.7900
10.05	-0.1351	-9.4834	2.9821	-0.0045	0.0133	-0.0103	-8.6985	11.2307	-3.4321	-0.1455	0.1036	-0.5865	0.7900
10.06	-0.1370	-9.4798	2.9741	-0.0050	0.0151	-0.0099	-8.7148	11.1234	-3.3145	-0.1455	0.1035	-0.5865	0.7900
10.07	-0.1299	-9.4861	2.9814	-0.0037	0.0129	-0.0115	-8.7184	11.0951	-3.3018	-0.1455	0.1035	-0.5866	0.7901
10.08	-0.1240	-9.4852	2.9775	-0.0031	0.0060	-0.0137	-8.5438	11.2967	-3.1905	-0.1454	0.1035	-0.5866	0.7900
10.09	-0.1164	-9.4821	2.9720	-0.0079	0.0053	-0.0080	-8.5721	11.2254	-3.2652	-0.1454	0.1035	-0.5866	0.7900
10.1	-0.1137	-9.4767	2.9750	-0.0070	0.0098	-0.0157	-8.8068	11.1889	-3.0211	-0.1454	0.1034	-0.5866	0.7899
10.11	-0.1139	-9.4828	2.9730	-0.0151	0.0146	-0.0195	-8.9277	11.4139	-2.9309	-0.1453	0.1034	-0.5867	0.7899
10.12	-0.1122	-9.4922	2.9710	-0.0203	0.0039	-0.0193	-8.6330	11.3791	-3.3200	-0.1452	0.1034	-0.5868	0.7899
10.13	-0.1152	-9.5105	2.9695	-0.0181	0.0082	-0.0158	-8.6889	11.5973	-3.2444	-0.1452	0.1034	-0.5869	0.7898
10.14	-0.1133	-9.5216	2.9611	-0.0278	0.0067	-0.0229	-8.7987	11.4242	-3.1228	-0.1451	0.1035	-0.5870	0.7898
10.15	-0.1161	-9.5264	2.9529	-0.0133	0.0015	-0.0152	-8.7138	11.3831	-3.1132	-0.1451	0.1035	-0.5870	0.7897
10.16	-0.1121	-9.5325	2.9532	-0.0164	0.0044	-0.0081	-8.8285	11.3564	-2.9880	-0.1451	0.1035	-0.5872	0.7897
10.17	-0.1087	-9.5316	2.9534	-0.0114	-0.0066	-0.0132	-8.7820	11.4841	-3.1632	-0.1450	0.1035	-0.5871	0.7895
10.18	-0.0937	-9.5359	2.9463	-0.0238	-0.0141	-0.0087	-8.7942	11.4278	-3.1079	-0.1451	0.1036	-0.5873	0.7895
10.19	-0.0757	-9.5345	2.9528	-0.0174	-0.0109	-0.0127	-8.6653	11.0706	-3.1603	-0.1451	0.1037	-0.5873	0.7894
10.2	-0.0617	-9.5228	2.9440	-0.0045	-0.0144	-0.0068	-8.5180	11.1932	-3.0320	-0.1452	0.1038	-0.5874	0.7894
10.21	-0.0515	-9.4987	2.9379	-0.0050	-0.0008	-0.0109	-8.6406	11.3004	-3.0551	-0.1452	0.1038	-0.5874	0.7894
10.22	-0.0479	-9.4925	2.9412	-0.0033	-0.0021	-0.0071	-8.5904	11.4045	-3.1295	-0.1452	0.1038	-0.5874	0.7894
10.23	-0.0458	-9.5071	2.9454	-0.0070	0.0025	-0.0063	-8.5138	11.1462	-3.1814	-0.1452	0.1038	-0.5875	0.7893
10.24	-0.0384	-9.5217	2.9467	-0.0145	-0.0025	-0.0097	-8.5334	11.0850	-3.2258	-0.1452	0.1038	-0.5875	0.7892
10.25	-0.0312	-9.5207	2.9527	-0.0074	0.0010	-0.0075	-8.6430	11.2519	-3.1210	-0.1452	0.1038	-0.5876	0.7893
10.26	-0.0304	-9.5307	2.9529	-0.0043	0.0109	-0.0081	-8.5843	11.4590	-3.0987	-0.1452	0.1038	-0.5876	0.7892
10.27	-0.0425	-9.5353	2.9599	-0.0079	0.0078	-0.0091	-8.7455	11.4721	-3.0153	-0.1452	0.1038	-0.5877	0.7893
10.28	-0.0681	-9.5395	2.9537	-0.0087	0.0167	-0.0059	-8.9294	11.5355	-3.0646	-0.1451	0.1037	-0.5877	0.7891
10.29	-0.0859	-9.5250	2.9443	-0.0044	0.0205	-0.0087	-8.7264	11.6047	-2.9053	-0.1451	0.1036	-0.5878	0.7892
10.3	-0.1019	-9.4931	2.9375	-0.0043	0.0182	-0.0058	-8.9273	11.6173	-3.0111	-0.1450	0.1035	-0.5878	0.7891
10.31	-0.0871	-9.4951	2.9390	-0.0039	0.0131	-0.0088	-9.0196	11.4499	-3.1259	-0.1450	0.1035	-0.5878	0.7891
10.32	-0.0702	-9.5315	2.9480	-0.0066	0.0171	-0.0087	-8.7561	11.4599	-3.1534	-0.1450	0.1034	-0.5879	0.7892
10.33	-0.0623	-9.5663	2.9584	-0.0089	0.0186	-0.0072	-8.6811	11.3495	-3.0970	-0.1449	0.1034	-0.5879	0.7891
10.34	-0.0518	-9.5806	2.9592	-0.0030	0.0132	-0.0109	-8.3026	11.6334	-2.9716	-0.1449	0.1033	-0.5880	0.7891
10.35	-0.0386	-9.5626	2.9588	0.0029	0.0170	-0.0091	-8.1249	11.7269	-2.9183	-0.1448	0.1033	-0.5879	0.7890
10.36	-0.0281	-9.5278	2.9550	0.0040	0.0165	-0.0130	-8.2914	11.4448	-3.0797	-0.1448	0.1032	-0.5880	0.7891
10.37	-0.0394	-9.5077	2.9495	0.0047	0.0243	-0.0103	-8.5408	11.5133	-3.2539	-0.1447	0.1031	-0.5880	0.7891
10.38	-0.0637	-9.4955	2.9487	-0.0024	0.0342	-0.0057	-8.6208	11.4014	-3.1075	-0.1446	0.1030	-0.5880	0.7891
10.39	-0.1041	-9.4815	2.9347	-0.0050	0.0349	-0.0021	-8.4660	11.3912	-3.1400	-0.1446	0.1028	-0.5881	0.7891
10.4	-0.1618	-9.4722	2.9278	-0.0041	0.0365	-0.0063	-8.7665	11.3551	-3.1418	-0.1445	0.1027	-0.5882	0.7891
10.41	-0.1961	-9.4698	2.9221	-0.0042	0.0315	-0.0064	-8.7082	11.2454	-3.0738	-0.1444	0.1026	-0.5882	0.7891
10.42	-0.2116	-9.4656	2.9168	-0.0038	0.0271	-0.0068	-8.5474	11.4810	-2.9958	-0.1443	0.1024	-0.5882	0.7890
10.43	-0.2124	-9.4825	2.9240	-0.0075	0.0166	-0.0084	-8.7023	11.4693	-3.3242	-0.1443	0.1024	-0.5883	0.7891
10.44	-0.2040	-9.5113	2.9249	-0.0073	0.0151	-0.0087	-8.5947	11.4666	-3.2381	-0.1442	0.1023	-0.5883	0.7890
10.45	-0.1911	-9.5300	2.9219	-0.0161	0.0084	-0.0104	-8.6095	11.4925	-3.0205	-0.1442	0.1023	-0.5884	0.7890
10.46	-0.1757	-9.5514	2.9299	-0.0153	0.0013	-0.0077	-8.8001	11.3599	-3.0627	-0.1442	0.1023	-0.5885	0.7889
10.47	-0.1672	-9.5746	2.9190	-0.0200	-0.0059	-0.0091	-8.8186	11.5336	-2.8916	-0.1442	0.1024	-0.5886	0.7889
10.48	-0.1558	-9.5830	2.9126	-0.0090	-0.0092	-0.0100	-8.7335	11.3605	-3.0473	-0.1442	0.1024	-0.5886	0.7888
10.49	-0.1303	-9.5764	2.9147	-0.0032	-0.0174	-0.0176	-8.7659	11.5554	-2.9537	-0.1442	0.1025	-0.5886	0.7887
10.5	-0.1075	-9.5723	2.9147	-0.0043	-0.0210	-0.0111	-8.7416	11.5586	-2.9524	-0.1443	0.1026	-0.5887	0.7888
10.51	-0.0739	-9.5692	2.9182	-0.0030	-0.0246	-0.0122	-8.7616	11.4317	-3.0981	-0.1444	0.1027	-0.5886	0.7887
10.52	-0.0501	-9.5559	2.9189	0.0068	-0.0229	-0.0068	-8.7403	11.2668	-3.1744	-0.1445	0.1028	-0.5887	0.7888
10.53	-0.0404	-9.5266	2.9098	0.0023	-0.0159	-0.0080	-8.7691	11.4939	-2.9142	-0.1445	0.1028	-0.5886	0.7887
10.54	-0.0467	-9.5102	2.9099	0.0025	-0.0164	-0.0076	-8.7276	11.5546	-2.9913	-0.1446	0.1029	-0.5886	0.7887
10.55	-0.0481	-9.5482	2.9256	0.0018	-0.0149	-0.0052	-8.8325	11.4253	-3.0515	-0.1446	0.1030	-0.5886	0.7887
10.56	-0.0395	-9.5640	2.9417	0.0020	-0.0110	-0.0073	-8.7971	11.1970	-3.0455	-0.1447	0.1030	-0.5886	0.7886
10.57	-0.0246	-9.5449	2.9452	0.0146	-0.0120	-0.0066	-8.5265	11.3160	-3.0058	-0.1448	0.1030	-0.5886	0.7888
10.58	0.0046	-9.5078	2.9526	0.0212	0.0013	-0.0109	-8.7649	11.3965	-2.9616	-0.1448	0.1030	-0.5885	0.7887
10.59	0.0187	-9.4721	2.9584	0.0150	0.0076	-0.0105	-8.6901	11.3924	-3.0828	-0.1448	0.1030	-0.5885	0.7888
10.6	0.0059	-9.4763	2.9631	0.0142	0.0196	-0.0077	-8.6355	11.2811	-2.9210	-0.1447	0.1029	-0.5884	0.7888
10.61	-0.0233	-9.4963	2.9708	0.0088	0.0325	-0.0065	-8.8115	11.4363	-3.0714	-0.1446	0.1028	-0.5884	0.7889
10.62	-0.0597	-9.4996	2.9669	0.0065	0.0381	-0.0062	-8.8388	11.6208	-3.2109	-0.1446	0.1026	-0.5884	0.7889
10.63	-0.0944	-9.5028	2.9659	-0.0001	0.0353	-0.0066	-8.8645	11.4497	-3.2286	-0.1445	0.1025	-0.5884	0.7889
10.64	-0.1149	-9.5016	2.9601	0.0005	0.0342	-0.0069	-8.7208	11.4854	-3.2457	-0.1444	0.1024	-0.5885	0.7889
10.65	-0.1201	-9.5048	2.9605	-0.0042	0.0412	-0.0132	-8.6736	11.4394	-3.0382	-0.1443	0.1022	-0.5885	0.7889
10.66	-0.1239	-9.5169	2.9581	-0.0020	0.0333	-0.0154	-8.7983	11.5607	-2.9081	-0.1441	0.1021	-0.5886	0.7889
10.67	-0.1336	-9.5105	2.9517	0.0009	0.0319	-0.0075	-8.6493	11.4817	-3.0377	-0.1440	0.1020	-0.5886	0.7889
10.68	-0.1430	-9.5064	2.9451	-0.0009	0.0287	-0.0066	-8.6625	11.3548	-3.1839	-0.1440	0.1019	-0.5887	0.7890
10.69	-0.1496	-9.5093	2.9333	-0.0031	0.0197	-0.0071	-8.6804	11.7267	-2.8640	-0.1439	0.1018	-0.5887	0.7889
10.7	-0.1496	-9.5226	2.9320	-0.0048	0.0180	-0.0070	-8.8752	11.4484	-2.9976	-0.1439	0.1017	-0.5887	0.7889
10.71	-0.1490	-9.5299	2.9391	-0.0064	0.0220	-0.0066	-8.7303	11.5050	-3.1496	-0.1438	0.1016	-0.5888	0.7889
10.72	-0.1448	-9.5338	2.9378	-0.0025	0.0145	-0.0057	-8.6533	11.6338	-2.9114	-0.1438	0.1015	-0.5888	0.7889
10.73	-0.1416	-9.5354	2.9369	-0.0038	0.0145	-0.0074	-8.8624	11.5664	-2.9581	-0.1438	0.1015	-0.5889	0.7889
10.74	-0.1363	-9.5349	2.9477	0.0019	0.0095	-0.0067	-8.7617	11.4026	-3.0396	-0.1438	0.1014	-0.5888	0.7888
10.75	-0.1264	-9.5356	2.9473	0.0040	0.0093	-0.0076	-8.6403	11.1844	-3.1244	-0.1438	0.1014	-0.5889	0.7889
10.76	-0.1228	-9.5313	2.9538	0.0091	0.0094	-0.0021	-8.5409	11.3329	-3.0270	-0.1438	0.1013	-0.5888	0.7889
10.77	-0.1244	-9.5179	2.9591	0.0031	0.0079	-0.0058	-8.6643	11.3035	-3.2383	-0.1438	0.1013	-0.5889	0.7889
10.78	-0.1263	-9.5099	2.9597	0.0018	0.0142	-0.0075	-8.6678	11.1759	-3.2255	-0.1437	0.1012	-0.5888	0.7888
10.79	-0.1305	-9.5028	2.9626	0.0143	0.0121	-0.0064	-8.6698	11.3825	-3.0682	-0.1437	0.1012	-0.5888	0.7889
10.8	-0.1383	-9.5060	2.9631	0.0113	0.0090	-0.0074	-8.6256	11.4578	-3.0770	-0.1437	0.1011	-0.5888	0.7889
10.81	-0.1420	-9.5043	2.9626	0.0158	0.0161	-0.0069	-8.5142	11.3215	-3.2310	-0.1437	0.1011	-0.5887	0.7889
10.82	-0.1528	-9.4969	2.9671	0.0136	0.0162	-0.0065	-8.8443	11.6184	-3.2447	-0.1437	0.1010	-0.5888	0.7891
10.83	-0.1653	-9.4900	2.9614	0.0092	0.0206	-0.0066	-8.7528	11.5090	-3.1860	-0.1436	0.1009	-0.5887	0.7890
10.84	-0.1740	-9.4896	2.9642	0.0099	0.0185	-0.0070	-8.1399	11.6603	-2.8630	-0.1436	0.1008	-0.5887	0.7891
10.85	-0.1758	-9.4853	2.9624	0.0044	0.0182	-0.0049	-8.0638	11.6259	-2.8469	-0.1436	0.1007	-0.5887	0.7890
10.86	-0.1758	-9.4804	2.9617	0.0012	0.0178	-0.0088	-8.2678	11.4953	-2.9234	-0.1435	0.1007	-0.5887	0.7891
10.87	-0.1751	-9.4793	2.9625	-0.0043	0.0164	-0.0071	-8.6228	11.4733	-3.0602	-0.1435	0.1006	-0.5888	0.7891
10.88	-0.1685	-9.4803	2.9653	-0.0044	0.0158	-0.0102	-8.6346	11.4946	-3.1476	-0.1434	0.1005	-0.5888	0.7891
10.89	-0.1613	-9.4817	2.9652	-0.0037	0.0073	-0.0104	-8.6125	11.4374	-3.0024	-0.1434	0.1005	-0.5888	0.7891
10.9	-0.1569	-9.4789	2.9604	-0.0063	0.0149	-0.0123	-8.6202	11.5185	-3.0951	-0.1434	0.1004	-0.5888	0.7891
10.91	-0.1488	-9.4839	2.9633	-0.0037	0.0178	-0.0189	-8.5962	11.5090	-3.1225	-0.1433	0.1004	-0.5889	0.7891
10.92	-0.1471	-9.4865	2.9605	-0.0059	0.0141	-0.0104	-8.7134	11.4335	-3.2135	-0.1433	0.1003	-0.5888	0.7890
10.93	-0.1440	-9.4931	2.9565	-0.0076	0.0077	-0.0089	-8.6927	11.4844	-3.3322	-0.1433	0.1003	-0.5889	0.7891
10.94	-0.1445	-9.4951	2.9474	-0.0116	0.0101	-0.0130	-8.4169	11.2873	-3.3029	-0.1432	0.1003	-0.5890	0.7890
10.95	-0.1421	-9.5095	2.9459	-0.0179	0.0055	-0.0143	-8.7521	11.3025	-3.0103	-0.1432	0.1003	-0.5891	0.7890
10.96	-0.1423	-9.5240	2.9420	-0.0128	0.0047	-0.0125	-8.4727	11.2561	-3.1506	-0.1432	0.1003	-0.5891	0.7889
10.97	-0.1400	-9.5385	2.9369	-0.0195	0.0015	-0.0100	-8.6038	11.3471	-3.3235	-0.1432	0.1003	-0.5892	0.7889
10.98	-0.1332	-9.5568	2.9308	-0.0131	0.0022	-0.0146	-8.5121	11.3310	-3.1681	-0.1431	0.1003	-0.5893	0.7888
10.99	-0.1287	-9.5621	2.9217	-0.0103	-0.0038	-0.0102	-8.3881	11.2720	-3.2463	-0.1431	0.1004	-0.5893	0.7887
11	-0.1210	-9.5701	2.9256	-0.0065	-0.0052	-0.0128	-8.5666	11.3921	-3.0902	-0.1431	0.1004	-0.5894	0.7888
11.01	-0.1135	-9.5731	2.9236	-0.0069	-0.0098	-0.0089	-8.5106	11.2475	-3.1487	-0.1432	0.1004	-0.5894	0.7887
11.02	-0.1110	-9.5695	2.9267	-0.0014	-0.0169	-0.0092	-8.7572	11.3455	-3.0956	-0.1432	0.1005	-0.5894	0.7887
11.03	-0.1004	-9.5560	2.9280	0.0031	-0.0110	-0.0095	-8.5622	11.4880	-3.2380	-0.1433	0.1006	-0.5893	0.7886
11.04	-0.0908	-9.5481	2.9293	0.0085	-0.0039	-0.0097	-8.6964	11.6580	-3.1987	-0.1433	0.1006	-0.5893	0.7887
11.05	-0.0894	-9.5316	2.9320	0.0101	-0.0048	-0.0137	-8.7848	11.8433	-2.9021	-0.1433	0.1006	-0.5893	0.7887
11.06	-0.0844	-9.5286	2.9354	-0.0062	-0.0020	-0.0116	-8.5758	11.6495	-3.0712	-0.1433	0.1006	-0.5893	0.7886
11.07	-0.0820	-9.5154	2.9340	0.0098	0.0044	-0.0137	-8.7262	11.4543	-2.9811	-0.1433	0.1006	-0.5894	0.7888
11.08	-0.0788	-9.4939	2.9278	0.0095	0.0023	-0.0107	-8.7039	11.6873	-3.1590	-0.1433	0.1006	-0.5893	0.7887
11.09	-0.0790	-9.4862	2.9388	0.0063	0.0061	-0.0107	-8.6599	11.4136	-3.1732	-0.1433	0.1006	-0.5893	0.7888
11.1	-0.0806	-9.4755	2.9381	0.0055	0.0086	-0.0123	-8.5013	11.5789	-3.1157	-0.1432	0.1006	-0.5892	0.7887
11.11	-0.0817	-9.4809	2.9417	0.0092	0.0085	-0.0069	-8.6554	11.5248	-3.2333	-0.1432	0.1005	-0.5892	0.7888
11.12	-0.0829	-9.4896	2.9479	0.0100	0.0058	-0.0093	-8.7359	11.4104	-3.0864	-0.1432	0.1005	-0.5892	0.7888
11.13	-0.0744	-9.5006	2.9555	-0.0047	0.0081	-0.0089	-8.6088	11.2917	-3.1257	-0.1432	0.1005	-0.5892	0.7888
11.14	-0.0727	-9.5069	2.9577	-0.0045	0.0157	-0.0113	-8.6282	11.1937	-3.2214	-0.1432	0.1004	-0.5893	0.7888
11.15	-0.0756	-9.5114	2.9571	0.0004	0.0141	-0.0065	-8.5906	11.2027	-3.3305	-0.1431	0.1004	-0.5893	0.7888
11.16	-0.0923	-9.5263	2.9582	0.0010	0.0155	-0.0077	-8.6981	11.4318	-3.0911	-0.1431	0.1003	-0.5893	0.7888
11.17	-0.1211	-9.5290	2.9529	-0.0045	0.0171	-0.0063	-8.6182	11.4921	-3.2553	-0.1431	0.1002	-0.5893	0.7887
11.18	-0.1433	-9.5077	2.9372	-0.0043	0.0141	-0.0070	-8.6190	11.2229	-3.0519	-0.1430	0.1002	-0.5894	0.7888
11.19	-0.1489	-9.4868	2.9242	-0.0055	0.0084	-0.0075	-8.5871	11.2093	-2.9153	-0.1430	0.1002	-0.5894	0.7887
11.2	-0.1375	-9.5041	2.9330	-0.0043	0.0100	-0.0074	-8.4815	11.1856	-3.1723	-0.1430	0.1001	-0.5895	0.7887
11.21	-0.1270	-9.5556	2.9499	-0.0098	0.0035	-0.0066	-8.6479	11.3079	-2.9723	-0.1430	0.1001	-0.5895	0.7887
11.22	-0.1144	-9.5777	2.9607	-0.0016	0.0127	-0.0024	-8.7034	11.5192	-3.2565	-0.1430	0.1000	-0.5895	0.7887
11.23	-0.0981	-9.5788	2.9565	-0.0044	0.0147	-0.0101	-8.7165	11.7691	-3.2839	-0.1430	0.1000	-0.5896	0.7887
11.24	-0.0793	-9.5388	2.9546	0.0003	0.0157	-0.0104	-8.6116	11.5448	-3.1934	-0.1429	0.0999	-0.5895	0.7886
11.25	-0.0740	-9.5124	2.9466	0.0000	0.0162	-0.0064	-8.6223	11.3620	-3.2288	-0.1429	0.0999	-0.5896	0.7887
11.26	-0.0829	-9.4949	2.9459	-0.0033	0.0270	-0.0071	-8.6005	11.4977	-3.0561	-0.1428	0.0998	-0.5896	0.7886
11.27	-0.1090	-9.4881	2.9368	-0.0030	0.0307	-0.0061	-8.6808	11.7183	-3.0201	-0.1428	0.0997	-0.5897	0.7887
11.28	-0.1545	-9.4795	2.9192	-0.0071	0.0298	-0.0061	-8.7233	11.7290	-3.1436	-0.1427	0.0995	-0.5897	0.7886
11.29	-0.2021	-9.4746	2.9090	-0.0035	0.0315	-0.0068	-8.5506	11.5214	-3.2418	-0.1426	0.0994	-0.5898	0.7886
11.3	-0.2298	-9.4798	2.9069	-0.0081	0.0161	-0.0069	-8.5137	11.6925	-3.2136	-0.1426	0.0993	-0.5898	0.7886
11.31	-0.2339	-9.4972	2.9105	-0.0085	0.0109	-0.0075	-8.5338	11.2514	-3.2283	-0.1425	0.0993	-0.5899	0.7885
11.32	-0.2266	-9.5232	2.9109	-0.0085	0.0090	-0.0148	-8.4352	11.3192	-3.1048	-0.1425	0.0993	-0.5900	0.7886
11.33	-0.2192	-9.5396	2.9093	-0.0054	-0.0007	-0.0097	-8.4061	11.2477	-2.9748	-0.1425	0.0993	-0.5900	0.7885
11.34	-0.2124	-9.5616	2.9072	-0.0059	-0.0083	-0.0111	-8.0578	11.4282	-2.9181	-0.1425	0.0993	-0.5900	0.7885
11.35	-0.2056	-9.5836	2.9094	-0.0053	-0.0170	-0.0119	-8.1440	11.5402	-2.9630	-0.1426	0.0994	-0.5900	0.7884
11.36	-0.1931	-9.5935	2.9056	-0.0031	-0.0159	-0.0091	-8.3260	11.6254	-2.9858	-0.1426	0.0995	-0.5900	0.7885
11.37	-0.1697	-9.5892	2.9103	-0.0021	-0.0252	-0.0076	-8.4197	11.6644	-2.9538	-0.1427	0.0996	-0.5900	0.7884
11.38	-0.1356	-9.5852	2.9142	0.0086	-0.0278	-0.0114	-8.6042	11.5889	-3.1505	-0.1428	0.0997	-0.5900	0.7884
11.39	-0.1009	-9.5800	2.9161	0.0088	-0.0312	-0.0082	-8.5657	11.3931	-3.1582	-0.1429	0.0998	-0.5899	0.7884
11.4	-0.0701	-9.5635	2.9236	0.0135	-0.0267	-0.0073	-8.8455	11.5529	-3.1266	-0.1430	0.0999	-0.5899	0.7884
11.41	-0.0423	-9.5411	2.9214	0.0198	-0.0257	-0.0050	-8.7994	11.6011	-3.0006	-0.1431	0.1000	-0.5898	0.7885
11.42	-0.0359	-9.5068	2.9252	0.0148	-0.0254	-0.0031	-8.6262	11.4446	-2.8390	-0.1432	0.1001	-0.5897	0.7884
11.43	-0.0407	-9.4917	2.9307	0.0059	-0.0124	-0.0083	-8.8061	11.5294	-3.1441	-0.1433	0.1001	-0.5897	0.7885
11.44	-0.0421	-9.5244	2.9480	0.0060	-0.0141	-0.0052	-8.6653	11.3036	-3.2551	-0.1433	0.1002	-0.5897	0.7885
11.45	-0.0421	-9.5307	2.9540	0.0211	-0.0077	-0.0090	-8.7365	11.6713	-2.9835	-0.1434	0.1002	-0.5896	0.7886
