time	acceleration_x	acceleration_y	acceleration_z	gyroscope_x	gyroscope_y	gyroscope_z	magnetometer_x	magnetometer_y	magnetometer_z	quaternion_w	quaternion_x	quaternion_y	quaternion_z
0	0.3399	-9.9939	1.4932	0.0522	0.4246	0.1368	11.1826	27.7809	-3.4602	-0.4737	0.3600	0.5300	-0.6043
0.01	0.2873	-9.9761	1.5011	0.0628	0.4135	0.1235	11.1342	27.8137	-3.6066	-0.4744	0.3613	0.5286	-0.6040
0.02	0.2421	-10.0240	1.5296	0.0624	0.4066	0.1197	11.3504	27.7672	-3.3445	-0.4752	0.3628	0.5273	-0.6038
0.03	0.1821	-10.0738	1.5571	0.0663	0.3834	0.1040	11.5711	27.8783	-3.2672	-0.4759	0.3641	0.5260	-0.6035
0.04	0.1429	-10.1110	1.5896	0.0854	0.3637	0.1011	11.6041	27.8280	-3.1266	-0.4767	0.3652	0.5248	-0.6034
0.05	0.0915	-10.1761	1.6521	0.1006	0.3531	0.0916	12.0604	27.7997	-3.1125	-0.4774	0.3663	0.5235	-0.6032
0.06	0.0443	-10.2683	1.7050	0.1247	0.3350	0.0831	12.1215	27.8859	-3.1332	-0.4782	0.3672	0.5222	-0.6032
0.07	0.0193	-10.2789	1.7498	0.1578	0.3112	0.0792	11.6356	27.7991	-3.2994	-0.4790	0.3680	0.5209	-0.6032
0.08	-0.0291	-10.2243	1.7761	0.1973	0.2913	0.0759	11.9625	27.8293	-3.3780	-0.4797	0.3686	0.5194	-0.6033
0.09	-0.0802	-10.1064	1.7838	0.2185	0.2619	0.0743	11.8585	27.8826	-3.4187	-0.4806	0.3691	0.5181	-0.6037
0.1	-0.1194	-9.9132	1.7683	0.2339	0.2448	0.0699	11.9079	27.5994	-3.3970	-0.4813	0.3695	0.5167	-0.6040
0.11	-0.1430	-9.7225	1.7609	0.2311	0.2155	0.0663	11.9655	27.5393	-3.4594	-0.4821	0.3698	0.5154	-0.6044
0.12	-0.1695	-9.6126	1.7739	0.2186	0.1824	0.0635	12.0356	27.5603	-3.6303	-0.4826	0.3699	0.5142	-0.6048
0.13	-0.1844	-9.6107	1.8225	0.1976	0.1607	0.0656	12.0552	27.5635	-3.5414	-0.4832	0.3701	0.5131	-0.6052
0.14	-0.1930	-9.7238	1.8761	0.1691	0.1445	0.0610	12.0372	27.5216	-3.7169	-0.4836	0.3703	0.5122	-0.6055
0.15	-0.2078	-9.7850	1.9304	0.1646	0.1271	0.0562	12.0536	27.3539	-3.8624	-0.4840	0.3704	0.5113	-0.6059
0.16	-0.2141	-9.8448	1.9843	0.1496	0.0936	0.0520	12.0216	27.3839	-3.9955	-0.4843	0.3705	0.5106	-0.6063
0.17	-0.1974	-9.8559	2.0240	0.1490	0.0716	0.0375	12.0864	27.3641	-4.0171	-0.4846	0.3704	0.5099	-0.6066
0.18	-0.1520	-9.8778	2.0617	0.1449	0.0599	0.0220	12.1541	27.3915	-3.9348	-0.4849	0.3703	0.5093	-0.6070
0.19	-0.0879	-9.8680	2.0815	0.1653	0.0388	0.0147	12.1148	27.3627	-3.9495	-0.4851	0.3700	0.5087	-0.6073
0.2	-0.0300	-9.7783	2.1026	0.1682	0.0314	0.0032	12.1393	27.2905	-4.1017	-0.4854	0.3698	0.5082	-0.6078
0.21	-0.0190	-9.6755	2.1316	0.1712	0.0392	0.0013	12.1228	27.4163	-3.9278	-0.4858	0.3695	0.5076	-0.6082
0.22	-0.0243	-9.6070	2.1566	0.1739	0.0433	0.0006	12.1881	27.2927	-3.8796	-0.4861	0.3692	0.5070	-0.6086
0.23	-0.0413	-9.5919	2.1729	0.1644	0.0462	-0.0058	12.3534	27.2631	-4.3022	-0.4865	0.3689	0.5065	-0.6089
0.24	-0.0593	-9.5987	2.1894	0.1443	0.0401	-0.0094	12.2402	27.3450	-4.0405	-0.4868	0.3686	0.5060	-0.6092
0.25	-0.0695	-9.6598	2.2006	0.1382	0.0396	-0.0212	12.0609	27.5815	-4.1309	-0.4871	0.3684	0.5055	-0.6095
0.26	-0.0862	-9.7404	2.2439	0.1348	0.0404	-0.0193	12.3266	27.4677	-4.5527	-0.4874	0.3681	0.5050	-0.6097
0.27	-0.0867	-9.8456	2.2766	0.1380	0.0339	-0.0287	12.4139	27.3279	-4.5816	-0.4878	0.3678	0.5047	-0.6100
0.28	-0.0735	-9.8834	2.3204	0.1420	0.0262	-0.0335	12.5398	27.2862	-4.3293	-0.4882	0.3674	0.5043	-0.6102
0.29	-0.0718	-9.8621	2.3408	0.1608	0.0238	-0.0361	12.3349	27.2410	-4.5819	-0.4886	0.3670	0.5039	-0.6105
0.3	-0.0756	-9.7440	2.3721	0.1692	0.0246	-0.0389	12.1962	26.9745	-4.7028	-0.4890	0.3666	0.5034	-0.6108
0.31	-0.0658	-9.6733	2.4216	0.1702	0.0210	-0.0409	12.2371	27.3076	-4.6723	-0.4894	0.3661	0.5029	-0.6112
0.32	-0.0578	-9.6729	2.4526	0.1678	0.0180	-0.0492	12.1828	27.4118	-4.5325	-0.4898	0.3656	0.5025	-0.6115
0.33	-0.0772	-9.5955	2.5080	0.1692	0.0207	-0.0456	12.0116	27.2801	-4.8046	-0.4902	0.3651	0.5020	-0.6117
0.34	-0.0980	-9.5011	2.4999	0.1649	0.0152	-0.0437	12.1734	27.1764	-4.8629	-0.4907	0.3647	0.5017	-0.6121
0.35	-0.1197	-9.4118	2.5031	0.1415	0.0067	-0.0534	12.2044	27.2013	-4.9318	-0.4910	0.3642	0.5013	-0.6123
0.36	-0.1720	-9.4871	2.4779	0.1177	-0.0011	-0.0538	12.0308	27.1895	-4.9568	-0.4913	0.3638	0.5011	-0.6126
0.37	-0.2102	-9.5585	2.4533	0.1168	-0.0132	-0.0572	12.0538	27.1997	-5.0765	-0.4915	0.3633	0.5009	-0.6127
0.38	-0.2112	-9.6532	2.4493	0.0960	-0.0342	-0.0687	11.6663	27.1742	-5.2637	-0.4918	0.3628	0.5009	-0.6129
0.39	-0.1717	-9.7863	2.4210	0.0928	-0.0562	-0.0799	11.9284	27.4028	-5.1104	-0.4920	0.3622	0.5009	-0.6131
0.4	-0.0953	-9.8199	2.4123	0.1142	-0.0664	-0.0869	11.8911	27.1936	-5.1819	-0.4922	0.3615	0.5009	-0.6133
0.41	-0.0294	-9.7802	2.4040	0.1237	-0.0794	-0.0989	11.7351	27.0949	-5.1168	-0.4925	0.3608	0.5010	-0.6136
0.42	0.0217	-9.6720	2.4402	0.1341	-0.0803	-0.0986	11.8010	27.2069	-5.2041	-0.4927	0.3599	0.5009	-0.6138
0.43	0.0542	-9.6997	2.4891	0.1240	-0.0914	-0.0965	11.7072	27.2152	-5.5331	-0.4930	0.3591	0.5010	-0.6141
0.44	0.0979	-9.7134	2.5032	0.1234	-0.0921	-0.0973	11.5851	27.3960	-5.4452	-0.4931	0.3582	0.5010	-0.6143
0.45	0.1186	-9.6157	2.5281	0.1296	-0.0979	-0.1008	11.7051	27.2109	-5.4101	-0.4934	0.3574	0.5011	-0.6146
0.46	0.1454	-9.5743	2.5510	0.1210	-0.0987	-0.0959	11.6683	27.1775	-5.4915	-0.4936	0.3565	0.5012	-0.6149
0.47	0.1611	-9.5141	2.5652	0.1190	-0.1045	-0.0914	11.6873	27.1766	-5.8387	-0.4937	0.3557	0.5013	-0.6152
0.48	0.1602	-9.4980	2.5662	0.0991	-0.1038	-0.1031	11.6765	27.2056	-5.6668	-0.4939	0.3548	0.5015	-0.6154
0.49	0.1538	-9.4950	2.5621	0.0924	-0.1165	-0.1065	11.5486	26.8753	-5.6130	-0.4940	0.3540	0.5017	-0.6156
0.5	0.1513	-9.4946	2.5671	0.0762	-0.1257	-0.1110	11.4366	27.0881	-5.5707	-0.4941	0.3531	0.5020	-0.6158
0.51	0.1673	-9.5168	2.5450	0.0643	-0.1278	-0.1128	11.3227	27.3931	-5.8198	-0.4941	0.3523	0.5023	-0.6158
0.52	0.2118	-9.5295	2.5388	0.0567	-0.1419	-0.1114	11.3123	27.2310	-5.8812	-0.4942	0.3514	0.5028	-0.6161
0.53	0.2503	-9.5595	2.5396	0.0472	-0.1488	-0.1084	11.3580	27.2893	-5.9505	-0.4941	0.3506	0.5033	-0.6162
0.54	0.2997	-9.5510	2.5346	0.0405	-0.1515	-0.1030	11.5139	27.2494	-5.6559	-0.4941	0.3498	0.5038	-0.6163
0.55	0.3505	-9.5546	2.5463	0.0424	-0.1595	-0.0975	11.4960	27.3718	-5.5070	-0.4939	0.3489	0.5042	-0.6164
0.56	0.4138	-9.5804	2.5456	0.0410	-0.1652	-0.0947	11.6068	27.3262	-5.6454	-0.4938	0.3481	0.5047	-0.6166
0.57	0.5016	-9.5791	2.5439	0.0412	-0.1690	-0.0861	11.2815	27.3120	-5.7985	-0.4937	0.3472	0.5052	-0.6168
0.58	0.6039	-9.5858	2.5452	0.0259	-0.1651	-0.0881	10.9992	27.5044	-6.0885	-0.4934	0.3464	0.5057	-0.6170
0.59	0.7165	-9.5882	2.5298	0.0160	-0.1568	-0.0801	11.0227	27.3457	-5.9360	-0.4933	0.3457	0.5063	-0.6172
0.6	0.8032	-9.5458	2.5309	0.0185	-0.1511	-0.0726	10.9611	27.3443	-5.9608	-0.4930	0.3450	0.5068	-0.6173
0.61	0.8473	-9.5282	2.5299	0.0014	-0.1265	-0.0612	10.8445	27.2585	-6.0243	-0.4929	0.3445	0.5073	-0.6174
0.62	0.8843	-9.5624	2.5375	-0.0144	-0.1038	-0.0511	10.7146	27.3158	-6.1762	-0.4926	0.3440	0.5076	-0.6174
0.63	0.8957	-9.6258	2.5551	-0.0336	-0.0828	-0.0399	10.7562	27.3512	-6.0185	-0.4924	0.3437	0.5081	-0.6175
0.64	0.8828	-9.6915	2.5648	-0.0371	-0.0628	-0.0193	10.6820	27.0916	-6.1121	-0.4921	0.3436	0.5084	-0.6174
0.65	0.8576	-9.7473	2.5765	-0.0293	-0.0447	-0.0114	10.9020	27.0623	-6.1932	-0.4919	0.3435	0.5087	-0.6174
0.66	0.8148	-9.7824	2.5648	-0.0265	-0.0271	-0.0015	11.0013	27.0691	-5.8805	-0.4918	0.3435	0.5089	-0.6175
0.67	0.7680	-9.7454	2.5535	-0.0107	-0.0246	0.0126	11.0338	26.9607	-6.0743	-0.4915	0.3434	0.5090	-0.6175
0.68	0.7125	-9.6950	2.5490	-0.0011	-0.0076	0.0172	11.0714	26.9779	-6.1206	-0.4914	0.3435	0.5091	-0.6177
0.69	0.6511	-9.6686	2.5089	0.0115	0.0006	0.0253	10.7874	27.0573	-5.9221	-0.4912	0.3435	0.5090	-0.6177
0.7	0.6084	-9.6313	2.4967	0.0130	0.0068	0.0209	10.7180	27.1822	-6.1005	-0.4911	0.3436	0.5090	-0.6179
0.71	0.5688	-9.6377	2.4989	0.0131	0.0120	0.0200	10.9213	27.1169	-6.2019	-0.4910	0.3436	0.5089	-0.6179
0.72	0.5504	-9.6897	2.5016	0.0133	0.0061	0.0241	10.8248	26.9590	-6.2111	-0.4909	0.3436	0.5088	-0.6180
0.73	0.5547	-9.7274	2.5124	0.0130	0.0033	0.0247	10.8167	27.0861	-5.8657	-0.4908	0.3437	0.5088	-0.6182
0.74	0.5701	-9.7524	2.5303	0.0143	0.0137	0.0171	10.9353	27.3132	-6.0936	-0.4907	0.3437	0.5087	-0.6183
0.75	0.5791	-9.8369	2.5393	0.0174	0.0211	0.0156	10.8978	27.1406	-6.1019	-0.4907	0.3438	0.5086	-0.6184
0.76	0.5731	-9.8230	2.5133	0.0346	0.0319	0.0188	10.9012	27.2370	-6.0307	-0.4906	0.3438	0.5084	-0.6184
0.77	0.5556	-9.6987	2.5189	0.0420	0.0372	0.0118	11.0346	27.3461	-6.2784	-0.4907	0.3439	0.5083	-0.6186
0.78	0.5647	-9.7022	2.5422	0.0395	0.0421	0.0060	10.9438	27.3267	-5.9214	-0.4907	0.3440	0.5080	-0.6187
0.79	0.5508	-9.6979	2.4966	0.0463	0.0523	-0.0029	10.8956	27.3302	-6.0609	-0.4909	0.3440	0.5078	-0.6187
0.8	0.5076	-9.4995	2.4920	0.0564	0.0558	-0.0076	10.9069	27.3458	-6.0566	-0.4910	0.3440	0.5075	-0.6188
0.81	0.4982	-9.4528	2.5318	0.0377	0.0677	-0.0075	11.0527	27.0499	-5.9118	-0.4912	0.3441	0.5073	-0.6188
0.82	0.4999	-9.5810	2.5403	0.0194	0.0675	-0.0082	11.0703	27.1615	-6.2740	-0.4914	0.3443	0.5071	-0.6187
0.83	0.4773	-9.6242	2.5435	0.0117	0.0581	-0.0106	10.8483	26.9969	-6.3850	-0.4915	0.3444	0.5070	-0.6186
0.84	0.4530	-9.6700	2.5369	0.0014	0.0705	-0.0203	11.1781	26.8775	-5.9411	-0.4917	0.3446	0.5069	-0.6186
0.85	0.4494	-9.7036	2.5294	0.0044	0.0595	-0.0253	11.2637	27.1775	-6.1703	-0.4918	0.3447	0.5068	-0.6184
0.86	0.4515	-9.7055	2.5215	0.0129	0.0530	-0.0273	11.3362	26.8703	-6.2533	-0.4920	0.3448	0.5068	-0.6184
0.87	0.4364	-9.7053	2.5198	0.0087	0.0460	-0.0197	11.2766	26.9987	-6.2290	-0.4921	0.3448	0.5066	-0.6182
0.88	0.4204	-9.6881	2.5030	0.0123	0.0450	-0.0130	10.8934	27.0634	-6.1111	-0.4922	0.3449	0.5066	-0.6182
0.89	0.4071	-9.6574	2.4932	0.0146	0.0452	-0.0117	11.1378	26.9393	-6.0055	-0.4923	0.3450	0.5065	-0.6182
0.9	0.3944	-9.6221	2.4904	0.0149	0.0434	-0.0089	11.1996	27.0271	-6.1478	-0.4923	0.3450	0.5063	-0.6181
0.91	0.3889	-9.6150	2.4965	0.0127	0.0229	-0.0087	11.0506	26.8334	-6.1269	-0.4924	0.3451	0.5063	-0.6182
0.92	0.3850	-9.6032	2.5099	0.0108	0.0173	-0.0089	11.1068	26.9904	-6.3121	-0.4924	0.3451	0.5063	-0.6182
0.93	0.4005	-9.6021	2.5069	0.0007	0.0088	-0.0092	10.7990	27.3079	-6.2862	-0.4924	0.3451	0.5063	-0.6182
0.94	0.4058	-9.5937	2.4967	-0.0097	0.0042	-0.0089	10.9226	27.0277	-6.1225	-0.4923	0.3451	0.5063	-0.6181
0.95	0.4305	-9.5990	2.5024	-0.0113	-0.0081	-0.0103	11.0958	27.2102	-5.9149	-0.4922	0.3451	0.5065	-0.6182
0.96	0.4436	-9.6476	2.4993	-0.0328	-0.0066	-0.0082	10.9704	27.2538	-6.0035	-0.4921	0.3451	0.5066	-0.6181
0.97	0.4544	-9.7228	2.4939	-0.0375	-0.0126	-0.0092	11.0051	27.2505	-5.8482	-0.4919	0.3452	0.5068	-0.6180
0.98	0.4734	-9.7693	2.4846	-0.0378	-0.0208	-0.0032	11.0236	27.1428	-5.9885	-0.4918	0.3452	0.5070	-0.6180
0.99	0.4952	-9.8032	2.4659	-0.0331	-0.0089	-0.0057	10.7968	27.2937	-6.1896	-0.4916	0.3452	0.5072	-0.6180
1	0.5144	-9.8004	2.4503	-0.0167	-0.0180	-0.0096	10.9833	27.3597	-5.9187	-0.4915	0.3452	0.5074	-0.6180
1.01	0.5256	-9.7713	2.4377	-0.0057	-0.0061	0.0013	11.3019	27.2374	-6.0718	-0.4913	0.3452	0.5074	-0.6180
1.02	0.5365	-9.7253	2.4334	-0.0074	-0.0004	0.0046	11.1624	27.1331	-6.1357	-0.4912	0.3453	0.5075	-0.6181
1.03	0.5260	-9.6908	2.4381	0.0094	0.0019	0.0021	10.9668	26.8570	-6.1953	-0.4911	0.3452	0.5075	-0.6181
1.04	0.5091	-9.7129	2.4526	0.0118	0.0063	0.0041	11.2354	26.9920	-6.2097	-0.4911	0.3453	0.5075	-0.6182
1.05	0.5024	-9.7170	2.4702	0.0150	0.0136	0.0047	11.7944	26.9631	-5.8915	-0.4910	0.3453	0.5074	-0.6182
1.06	0.4858	-9.6975	2.4828	0.0282	0.0073	0.0041	11.7560	27.0210	-6.1391	-0.4910	0.3453	0.5073	-0.6183
1.07	0.4777	-9.6661	2.5024	0.0324	0.0147	0.0045	11.1847	27.3433	-5.9249	-0.4910	0.3452	0.5072	-0.6185
1.08	0.4642	-9.6531	2.5241	0.0352	0.0211	0.0066	11.0840	27.4056	-5.8391	-0.4910	0.3452	0.5070	-0.6185
1.09	0.4310	-9.6499	2.5339	0.0284	0.0214	0.0075	10.9818	27.3734	-5.9195	-0.4910	0.3453	0.5070	-0.6187
1.1	0.3938	-9.6277	2.5362	0.0275	0.0238	0.0079	10.9908	27.3510	-5.8645	-0.4910	0.3453	0.5068	-0.6187
1.11	0.3691	-9.6187	2.5449	0.0296	0.0270	0.0060	10.9452	27.2733	-6.1917	-0.4911	0.3453	0.5067	-0.6189
1.12	0.3532	-9.6106	2.5421	0.0190	0.0259	0.0047	11.1973	27.2514	-5.9660	-0.4910	0.3453	0.5065	-0.6188
1.13	0.3370	-9.6027	2.5482	0.0153	0.0218	0.0079	11.1145	27.1363	-6.0894	-0.4910	0.3454	0.5065	-0.6189
1.14	0.3349	-9.5956	2.5507	0.0091	0.0154	0.0053	10.9067	27.2260	-6.0577	-0.4910	0.3455	0.5064	-0.6190
1.15	0.3419	-9.5854	2.5457	0.0141	0.0071	0.0083	11.1602	27.2780	-6.0139	-0.4909	0.3455	0.5064	-0.6190
1.16	0.3489	-9.5657	2.5298	0.0026	0.0084	0.0046	11.1803	27.1467	-6.0074	-0.4909	0.3455	0.5064	-0.6192
1.17	0.3616	-9.5696	2.5206	-0.0097	0.0082	0.0079	10.9753	27.1788	-6.0748	-0.4907	0.3456	0.5064	-0.6191
1.18	0.3708	-9.6061	2.5191	-0.0222	0.0061	0.0067	11.0664	27.1628	-6.0712	-0.4906	0.3457	0.5065	-0.6192
1.19	0.3690	-9.6679	2.5063	-0.0355	0.0013	-0.0015	11.0476	27.1659	-5.9866	-0.4904	0.3457	0.5066	-0.6190
1.2	0.3681	-9.7227	2.5091	-0.0260	-0.0011	0.0048	11.0165	27.2806	-6.0570	-0.4903	0.3459	0.5067	-0.6191
1.21	0.3647	-9.7571	2.5026	-0.0184	0.0010	0.0095	11.3759	27.2137	-5.9774	-0.4902	0.3459	0.5068	-0.6191
1.22	0.3541	-9.7756	2.4887	-0.0090	0.0003	0.0111	11.3330	27.0695	-6.1266	-0.4900	0.3460	0.5068	-0.6191
1.23	0.3528	-9.7562	2.4834	-0.0043	-0.0040	0.0074	11.2323	27.0854	-6.0853	-0.4899	0.3460	0.5069	-0.6192
1.24	0.3457	-9.7317	2.4932	0.0090	0.0011	0.0064	11.1398	27.0516	-6.1661	-0.4898	0.3460	0.5069	-0.6192
1.25	0.3467	-9.7233	2.5012	0.0136	0.0020	0.0074	11.1545	26.9504	-5.9418	-0.4897	0.3460	0.5069	-0.6193
1.26	0.3407	-9.7142	2.5139	0.0160	0.0001	0.0081	11.2478	27.1065	-6.0105	-0.4896	0.3460	0.5068	-0.6194
1.27	0.3277	-9.7052	2.5210	0.0182	-0.0010	0.0050	11.2494	27.1560	-6.0109	-0.4896	0.3460	0.5068	-0.6195
1.28	0.3216	-9.6921	2.5299	0.0162	0.0018	0.0069	11.1139	27.2090	-5.9162	-0.4895	0.3460	0.5067	-0.6196
1.29	0.3165	-9.6851	2.5412	0.0155	0.0000	-0.0043	11.2587	27.0049	-6.1483	-0.4894	0.3460	0.5067	-0.6197
1.3	0.3062	-9.6713	2.5466	0.0136	0.0095	-0.0061	11.2377	26.9834	-6.0824	-0.4894	0.3459	0.5067	-0.6197
1.31	0.3065	-9.6439	2.5468	0.0154	0.0116	-0.0075	11.2757	27.3511	-6.0224	-0.4894	0.3459	0.5067	-0.6198
1.32	0.2880	-9.6346	2.5550	0.0130	0.0100	-0.0098	11.1751	27.1522	-6.0073	-0.4894	0.3459	0.5067	-0.6198
1.33	0.2727	-9.6193	2.5611	0.0156	0.0130	-0.0083	11.1616	27.1844	-6.0539	-0.4894	0.3459	0.5066	-0.6198
1.34	0.2688	-9.5990	2.5620	0.0135	0.0163	-0.0096	11.1517	27.1472	-5.8635	-0.4894	0.3459	0.5066	-0.6199
1.35	0.2544	-9.5861	2.5779	0.0143	0.0184	-0.0069	10.8982	27.2120	-6.0525	-0.4894	0.3459	0.5065	-0.6199
1.36	0.2519	-9.5885	2.5888	0.0130	0.0129	-0.0145	11.1433	27.2751	-6.0797	-0.4895	0.3459	0.5065	-0.6200
1.37	0.2459	-9.5724	2.5881	0.0054	0.0138	-0.0216	11.1862	27.1682	-5.8942	-0.4894	0.3458	0.5065	-0.6199
1.38	0.2418	-9.5667	2.5859	0.0104	0.0086	-0.0199	10.9981	27.1426	-6.0554	-0.4895	0.3458	0.5065	-0.6199
1.39	0.2489	-9.5761	2.5903	0.0039	0.0031	-0.0286	11.2391	27.2248	-6.0081	-0.4895	0.3458	0.5066	-0.6199
1.4	0.2636	-9.5698	2.5866	-0.0089	0.0013	-0.0284	11.4806	26.9718	-6.0117	-0.4894	0.3457	0.5066	-0.6198
1.41	0.2934	-9.5940	2.5876	-0.0178	-0.0003	-0.0293	11.1965	27.0371	-6.1338	-0.4895	0.3457	0.5068	-0.6198
1.42	0.3214	-9.6309	2.5834	-0.0202	0.0044	-0.0351	11.2933	27.2959	-6.0847	-0.4894	0.3457	0.5069	-0.6197
1.43	0.3239	-9.6748	2.5760	-0.0199	0.0084	-0.0254	11.3852	27.0814	-5.9512	-0.4894	0.3457	0.5071	-0.6196
1.44	0.3119	-9.6858	2.5633	-0.0184	0.0178	-0.0257	11.1348	27.4023	-5.8185	-0.4894	0.3457	0.5071	-0.6194
1.45	0.2713	-9.6633	2.5596	-0.0228	0.0210	-0.0206	11.1893	27.0709	-5.9961	-0.4894	0.3458	0.5072	-0.6194
1.46	0.2311	-9.6723	2.5580	-0.0194	0.0150	-0.0116	11.0986	27.1356	-6.1646	-0.4894	0.3459	0.5073	-0.6193
1.47	0.2060	-9.6719	2.5386	-0.0224	0.0066	-0.0165	11.1046	27.1836	-6.0174	-0.4893	0.3459	0.5074	-0.6192
1.48	0.2083	-9.6401	2.5307	-0.0235	-0.0014	-0.0181	11.4038	27.1576	-6.0201	-0.4892	0.3460	0.5075	-0.6192
1.49	0.2482	-9.6735	2.5336	-0.0350	-0.0154	-0.0304	11.1426	27.1795	-5.7490	-0.4891	0.3459	0.5077	-0.6191
1.5	0.3254	-9.7195	2.5559	-0.0250	-0.0208	-0.0362	11.2499	27.1551	-5.9745	-0.4891	0.3459	0.5080	-0.6190
1.51	0.4400	-9.7881	2.6088	-0.0095	-0.0244	-0.0443	11.1713	27.1754	-5.7238	-0.4890	0.3457	0.5081	-0.6189
1.52	0.5680	-9.8645	2.6665	-0.0096	-0.0235	-0.0484	11.0565	27.1522	-5.7799	-0.4890	0.3456	0.5084	-0.6189
1.53	0.6476	-9.8914	2.7017	-0.0015	-0.0023	-0.0373	11.0563	27.2092	-5.9963	-0.4890	0.3454	0.5085	-0.6189
1.54	0.6636	-9.8604	2.6863	-0.0085	0.0234	-0.0332	11.1724	27.2969	-5.8296	-0.4891	0.3455	0.5085	-0.6188
1.55	0.6290	-9.7731	2.6395	-0.0139	0.0476	-0.0164	11.5758	27.1337	-5.8376	-0.4891	0.3456	0.5085	-0.6186
1.56	0.5071	-9.6754	2.5572	-0.0352	0.0551	-0.0072	11.8206	27.1789	-5.8430	-0.4891	0.3458	0.5085	-0.6185
1.57	0.3381	-9.6161	2.4511	-0.0542	0.0552	0.0090	11.3208	27.2392	-5.8718	-0.4891	0.3462	0.5086	-0.6183
1.58	0.2078	-9.5713	2.3675	-0.0643	0.0427	0.0084	11.3843	27.3483	-5.9187	-0.4889	0.3465	0.5086	-0.6181
1.59	0.1596	-9.6092	2.3293	-0.0675	0.0189	-0.0061	11.3191	27.2784	-5.9544	-0.4889	0.3467	0.5089	-0.6180
1.6	0.1801	-9.6933	2.3166	-0.0658	-0.0127	-0.0186	11.3967	26.9871	-5.7347	-0.4887	0.3468	0.5091	-0.6178
1.61	0.2741	-9.7224	2.3295	-0.0582	-0.0359	-0.0347	11.5997	27.0174	-5.8202	-0.4885	0.3468	0.5095	-0.6178
1.62	0.3820	-9.7296	2.3453	-0.0378	-0.0574	-0.0422	11.2748	26.9776	-5.9215	-0.4883	0.3466	0.5098	-0.6176
1.63	0.4885	-9.7199	2.3363	-0.0352	-0.0641	-0.0419	11.1457	27.1509	-5.9845	-0.4881	0.3464	0.5102	-0.6176
1.64	0.6003	-9.6662	2.3194	-0.0340	-0.0639	-0.0546	11.3158	27.1443	-5.7941	-0.4880	0.3462	0.5106	-0.6176
1.65	0.6900	-9.5898	2.2847	-0.0236	-0.0547	-0.0612	11.3623	26.9855	-5.8090	-0.4879	0.3459	0.5109	-0.6174
1.66	0.7726	-9.5628	2.2755	-0.0314	-0.0548	-0.0661	11.1917	27.0042	-5.8507	-0.4879	0.3457	0.5113	-0.6174
1.67	0.8375	-9.6407	2.2766	-0.0241	-0.0409	-0.0805	11.0394	27.0033	-5.7082	-0.4878	0.3454	0.5116	-0.6172
1.68	0.8843	-9.6612	2.2874	-0.0134	-0.0205	-0.0854	11.0239	27.2330	-5.7688	-0.4879	0.3452	0.5119	-0.6171
1.69	0.8937	-9.6908	2.3164	-0.0163	-0.0146	-0.0890	10.8661	27.3692	-5.8299	-0.4880	0.3449	0.5121	-0.6169
1.7	0.9050	-9.7800	2.3533	-0.0111	-0.0058	-0.0980	10.7766	27.2145	-5.8792	-0.4882	0.3447	0.5124	-0.6167
1.71	0.9191	-9.9014	2.4102	-0.0104	-0.0056	-0.1131	10.8454	27.3272	-5.7865	-0.4884	0.3444	0.5126	-0.6164
1.72	0.9397	-9.8614	2.4003	0.0054	-0.0075	-0.1185	10.9225	27.3639	-5.7338	-0.4887	0.3441	0.5129	-0.6162
1.73	0.9692	-9.5463	2.3495	0.0173	-0.0118	-0.1261	10.7611	27.3388	-5.8656	-0.4890	0.3438	0.5131	-0.6160
1.74	1.0242	-9.3825	2.3065	-0.0040	-0.0188	-0.1299	10.6968	27.3696	-5.8621	-0.4892	0.3434	0.5134	-0.6158
1.75	1.1022	-9.4560	2.2889	-0.0384	-0.0287	-0.1213	10.7088	27.5278	-5.8110	-0.4894	0.3431	0.5138	-0.6155
1.76	1.1858	-9.5117	2.2864	-0.0701	-0.0386	-0.1103	10.7127	27.4654	-5.6383	-0.4894	0.3428	0.5143	-0.6151
1.77	1.2760	-9.5916	2.2813	-0.0965	-0.0368	-0.0939	10.8073	27.1854	-5.7982	-0.4894	0.3427	0.5149	-0.6148
1.78	1.3409	-9.7776	2.2732	-0.1202	-0.0268	-0.0640	10.7980	27.1979	-5.7118	-0.4892	0.3428	0.5154	-0.6144
1.79	1.3740	-9.9892	2.2797	-0.1357	0.0006	-0.0276	10.5063	27.0751	-5.8600	-0.4890	0.3430	0.5159	-0.6141
1.8	1.3529	-10.1205	2.2842	-0.1278	0.0156	-0.0014	10.5697	27.1000	-5.7410	-0.4887	0.3434	0.5163	-0.6137
1.81	1.3009	-10.1588	2.2806	-0.0838	0.0376	0.0298	10.4298	27.2874	-5.5049	-0.4885	0.3438	0.5165	-0.6135
1.82	1.2239	-10.1345	2.2998	-0.0328	0.0646	0.0544	10.4114	27.0816	-5.6507	-0.4883	0.3442	0.5164	-0.6135
1.83	1.1530	-10.1677	2.3482	0.0438	0.0753	0.0657	10.6711	27.3846	-5.6785	-0.4883	0.3445	0.5160	-0.6136
1.84	1.0875	-10.1419	2.4441	0.1240	0.0926	0.0747	10.5893	27.2179	-5.5551	-0.4884	0.3448	0.5154	-0.6141
1.85	1.0452	-10.0898	2.5833	0.2045	0.1071	0.0761	10.7920	27.3231	-5.4230	-0.4887	0.3448	0.5144	-0.6146
1.86	1.0261	-10.1017	2.7418	0.2489	0.1093	0.0720	10.7975	27.3461	-5.6268	-0.4891	0.3448	0.5133	-0.6153
1.87	1.0548	-10.1805	2.9018	0.2757	0.1207	0.0732	10.7150	27.4371	-5.7832	-0.4895	0.3446	0.5120	-0.6159
1.88	1.0767	-10.2134	3.0162	0.3012	0.1314	0.0782	10.8069	27.5498	-5.7551	-0.4901	0.3445	0.5106	-0.6168
1.89	1.0516	-10.0699	3.0486	0.3035	0.1522	0.0989	10.4537	27.3043	-5.9550	-0.4906	0.3445	0.5092	-0.6176
1.9	0.9972	-9.7494	3.0231	0.2984	0.1718	0.1078	10.7900	27.1564	-5.9098	-0.4911	0.3446	0.5077	-0.6183
1.91	0.8696	-9.4947	2.9612	0.2676	0.1909	0.1330	10.8973	27.2797	-5.9782	-0.4916	0.3449	0.5062	-0.6191
1.92	0.7027	-9.3265	2.8794	0.2393	0.2234	0.1651	11.0480	27.3814	-6.3115	-0.4919	0.3453	0.5046	-0.6197
1.93	0.5039	-9.1975	2.8270	0.2103	0.2290	0.1908	11.2599	27.2702	-6.3341	-0.4922	0.3460	0.5031	-0.6204
1.94	0.3095	-9.1836	2.8017	0.1770	0.2256	0.2123	11.2344	27.2591	-6.1809	-0.4923	0.3468	0.5016	-0.6210
1.95	0.1647	-9.2203	2.7870	0.1466	0.2094	0.2274	11.2421	27.1391	-6.2802	-0.4924	0.3477	0.5003	-0.6216
1.96	0.0625	-9.2121	2.7811	0.1302	0.1972	0.2429	11.5976	26.7041	-6.5737	-0.4922	0.3486	0.4990	-0.6223
1.97	-0.0184	-9.1814	2.7449	0.1027	0.1920	0.2505	11.7873	26.8386	-6.3494	-0.4920	0.3495	0.4978	-0.6228
1.98	-0.0768	-9.1336	2.6896	0.0683	0.1806	0.2565	11.8628	26.6986	-6.4044	-0.4917	0.3506	0.4967	-0.6234
1.99	-0.1321	-9.0572	2.6201	0.0366	0.1749	0.2683	12.0061	26.6816	-6.4963	-0.4913	0.3517	0.4957	-0.6239
2	-0.1766	-8.9679	2.5109	0.0027	0.1748	0.2718	12.0794	26.7403	-6.4597	-0.4908	0.3529	0.4948	-0.6243
2.01	-0.2230	-8.8630	2.3973	-0.0337	0.1920	0.2845	12.3116	26.8990	-6.5078	-0.4902	0.3543	0.4939	-0.6246
2.02	-0.3054	-8.8623	2.2966	-0.0691	0.2193	0.2990	12.5276	26.9332	-6.2063	-0.4897	0.3559	0.4931	-0.6249
2.03	-0.4214	-8.9872	2.2163	-0.1005	0.2482	0.3140	12.4479	26.7476	-6.2507	-0.4890	0.3577	0.4922	-0.6250
2.04	-0.5621	-9.1216	2.1665	-0.1094	0.2822	0.3274	12.6304	26.7338	-6.2514	-0.4884	0.3596	0.4914	-0.6251
2.05	-0.7160	-9.2920	2.1684	-0.1172	0.3097	0.3346	13.3924	26.8462	-5.9587	-0.4878	0.3617	0.4904	-0.6251
2.06	-0.8629	-9.5969	2.2032	-0.1212	0.3435	0.3427	13.8368	26.8123	-6.0259	-0.4873	0.3639	0.4893	-0.6251
2.07	-1.0255	-9.8363	2.2297	-0.0960	0.3649	0.3445	13.5656	26.7069	-5.8418	-0.4868	0.3661	0.4881	-0.6251
2.08	-1.1978	-9.8772	2.2322	-0.0616	0.3813	0.3404	13.4385	27.0842	-5.9498	-0.4864	0.3683	0.4868	-0.6250
2.09	-1.3757	-9.8183	2.2097	-0.0263	0.4087	0.3309	13.7223	26.9063	-5.7813	-0.4863	0.3705	0.4853	-0.6252
2.1	-1.5791	-9.7664	2.1853	0.0052	0.4080	0.3295	13.8172	26.5354	-5.7500	-0.4861	0.3726	0.4837	-0.6252
2.11	-1.7756	-9.7155	2.1639	0.0129	0.4162	0.3135	13.8370	26.6157	-5.6421	-0.4861	0.3746	0.4821	-0.6253
2.12	-1.9739	-9.6587	2.1706	0.0197	0.4067	0.2897	14.0856	26.4649	-5.7411	-0.4861	0.3765	0.4805	-0.6253
2.13	-2.1110	-9.7288	2.2069	0.0117	0.3865	0.2755	14.5618	26.4123	-5.6991	-0.4861	0.3784	0.4790	-0.6254
2.14	-2.1583	-9.8470	2.2590	0.0113	0.3501	0.2427	14.7731	26.3504	-5.6116	-0.4861	0.3801	0.4777	-0.6254
2.15	-2.1321	-9.9491	2.3189	0.0097	0.3219	0.1946	14.5364	25.9958	-5.5731	-0.4861	0.3816	0.4765	-0.6253
2.16	-2.0488	-10.0823	2.3848	0.0186	0.2924	0.1486	14.9630	26.2183	-5.2867	-0.4864	0.3829	0.4755	-0.6252
2.17	-1.9435	-10.1940	2.4543	0.0378	0.2667	0.1042	15.1957	26.1676	-5.2561	-0.4866	0.3839	0.4745	-0.6251
2.18	-1.8274	-10.2793	2.5305	0.0673	0.2484	0.0729	15.3211	26.0161	-5.2353	-0.4870	0.3847	0.4736	-0.6250
2.19	-1.7173	-10.3033	2.6100	0.1207	0.2323	0.0310	15.2068	26.0853	-5.3367	-0.4875	0.3852	0.4725	-0.6249
2.2	-1.6184	-10.2388	2.6757	0.1685	0.2205	0.0017	15.3824	26.1553	-5.5995	-0.4883	0.3856	0.4715	-0.6250
2.21	-1.5306	-10.1185	2.7084	0.2080	0.1998	-0.0408	15.5358	26.3292	-5.4347	-0.4892	0.3856	0.4705	-0.6250
2.22	-1.4185	-9.9482	2.7299	0.2241	0.1745	-0.0837	15.4947	26.2920	-5.5200	-0.4902	0.3854	0.4695	-0.6251
2.23	-1.2888	-9.7850	2.7523	0.2300	0.1573	-0.1170	15.3935	25.8184	-5.6200	-0.4913	0.3851	0.4686	-0.6251
2.24	-1.1359	-9.6871	2.7900	0.2131	0.1413	-0.1567	15.2906	25.9375	-5.4970	-0.4924	0.3847	0.4679	-0.6250
2.25	-0.9788	-9.7041	2.8561	0.1836	0.1345	-0.1962	15.1260	26.2240	-5.7475	-0.4936	0.3842	0.4674	-0.6248
2.26	-0.8564	-9.7927	2.9032	0.1514	0.1247	-0.2174	15.2394	26.2633	-5.6064	-0.4947	0.3837	0.4670	-0.6243
2.27	-0.7748	-9.7675	2.9080	0.1245	0.1250	-0.2316	15.1997	25.9959	-5.6355	-0.4959	0.3833	0.4668	-0.6239
2.28	-0.7439	-9.6406	2.8553	0.1072	0.1208	-0.2429	14.9751	26.1442	-5.5980	-0.4971	0.3829	0.4666	-0.6234
2.29	-0.7458	-9.5560	2.7858	0.0770	0.1123	-0.2582	14.9004	26.0873	-5.7013	-0.4982	0.3824	0.4666	-0.6228
2.3	-0.7382	-9.5077	2.7322	0.0553	0.0940	-0.2797	14.7648	25.9391	-5.7974	-0.4993	0.3819	0.4667	-0.6221
2.31	-0.7083	-9.4781	2.6946	0.0425	0.0667	-0.2939	14.7704	26.1086	-5.9739	-0.5004	0.3814	0.4670	-0.6214
2.32	-0.6934	-9.4472	2.6673	0.0514	0.0263	-0.3120	14.6151	26.3821	-5.9421	-0.5014	0.3807	0.4673	-0.6207
2.33	-0.6330	-9.4288	2.6487	0.0479	-0.0219	-0.3449	14.5382	26.4182	-5.8890	-0.5024	0.3797	0.4679	-0.6200
2.34	-0.5032	-9.3870	2.6214	0.0602	-0.0764	-0.3684	14.2846	26.3930	-6.0063	-0.5034	0.3785	0.4686	-0.6195
2.35	-0.3421	-9.2870	2.5891	0.0698	-0.1314	-0.3905	14.2367	26.4118	-6.0413	-0.5043	0.3770	0.4694	-0.6189
2.36	-0.1426	-9.1906	2.5744	0.0708	-0.1822	-0.4073	13.9927	26.3841	-6.1106	-0.5053	0.3754	0.4705	-0.6185
2.37	0.0829	-9.1092	2.5813	0.0742	-0.2324	-0.4161	13.9141	26.4023	-6.1018	-0.5060	0.3735	0.4716	-0.6180
2.38	0.3339	-9.0618	2.5852	0.0739	-0.2622	-0.4222	13.4694	26.6097	-5.9534	-0.5068	0.3716	0.4728	-0.6177
2.39	0.5694	-9.0006	2.5974	0.0718	-0.2909	-0.4295	12.9527	26.7192	-6.1700	-0.5074	0.3695	0.4741	-0.6174
2.4	0.8028	-8.9572	2.6289	0.0734	-0.3107	-0.4277	12.7419	26.7396	-6.4550	-0.5080	0.3673	0.4755	-0.6171
2.41	1.0312	-8.9786	2.6681	0.0566	-0.3161	-0.4236	12.7385	26.7453	-6.2306	-0.5087	0.3653	0.4770	-0.6169
2.42	1.1990	-9.0346	2.7223	0.0430	-0.3142	-0.4074	12.4237	26.7167	-6.2275	-0.5091	0.3632	0.4783	-0.6165
2.43	1.3108	-9.1286	2.7699	0.0385	-0.2913	-0.3903	12.1359	26.8111	-6.3895	-0.5096	0.3613	0.4797	-0.6162
2.44	1.3775	-9.2673	2.8272	0.0152	-0.2758	-0.3688	11.9302	26.8097	-6.4081	-0.5100	0.3595	0.4810	-0.6158
2.45	1.4118	-9.4184	2.8989	0.0129	-0.2639	-0.3355	11.8175	26.9599	-6.3674	-0.5104	0.3579	0.4823	-0.6155
2.46	1.4202	-9.6037	2.9526	0.0085	-0.2509	-0.3119	11.6868	27.1387	-6.4943	-0.5106	0.3563	0.4835	-0.6152
2.47	1.4031	-9.6909	2.9804	0.0145	-0.2468	-0.2800	11.3228	26.9828	-6.7168	-0.5108	0.3549	0.4846	-0.6150
2.48	1.3727	-9.6734	2.9885	0.0208	-0.2511	-0.2406	11.1912	26.9794	-6.5634	-0.5110	0.3535	0.4856	-0.6150
2.49	1.3806	-9.6263	2.9621	0.0290	-0.2470	-0.2215	11.2445	27.1400	-6.6093	-0.5110	0.3521	0.4866	-0.6150
2.5	1.4202	-9.5370	2.9491	0.0360	-0.2505	-0.1834	11.1614	27.3512	-6.5697	-0.5109	0.3508	0.4875	-0.6151
2.51	1.4899	-9.5362	2.9645	0.0282	-0.2479	-0.1386	11.0524	27.3242	-6.6917	-0.5107	0.3496	0.4882	-0.6152
2.52	1.5673	-9.5765	2.9716	0.0138	-0.2285	-0.1089	10.7974	27.2442	-6.8049	-0.5104	0.3486	0.4890	-0.6155
2.53	1.5643	-9.5654	2.9705	0.0163	-0.1920	-0.0597	10.6412	26.9199	-6.9414	-0.5101	0.3478	0.4896	-0.6157
2.54	1.4923	-9.5618	2.9736	0.0131	-0.1481	-0.0157	10.7579	27.1700	-6.9376	-0.5097	0.3473	0.4900	-0.6160
2.55	1.3468	-9.6090	2.9835	0.0161	-0.1148	0.0242	10.9628	27.1276	-6.6226	-0.5093	0.3470	0.4902	-0.6164
2.56	1.1551	-9.6898	3.0028	0.0302	-0.0790	0.0602	11.2931	26.9767	-6.6103	-0.5089	0.3468	0.4903	-0.6168
2.57	0.9748	-9.7750	3.0201	0.0415	-0.0557	0.0818	11.0805	27.1143	-6.7923	-0.5084	0.3468	0.4902	-0.6173
2.58	0.8184	-9.7895	3.0424	0.0409	-0.0222	0.0956	10.9128	27.3108	-6.8911	-0.5080	0.3468	0.4899	-0.6176
2.59	0.6836	-9.7836	3.0626	0.0493	-0.0086	0.1033	10.7973	27.2598	-7.1409	-0.5077	0.3470	0.4897	-0.6182
2.6	0.6062	-9.8097	3.0731	0.0633	0.0121	0.1120	10.6974	26.8516	-7.1880	-0.5074	0.3471	0.4893	-0.6186
2.61	0.5912	-9.7492	3.0790	0.0841	0.0324	0.1189	11.0040	27.1526	-6.8743	-0.5072	0.3473	0.4888	-0.6192
2.62	0.5753	-9.6509	3.0746	0.0902	0.0636	0.1174	10.9845	27.3323	-6.6707	-0.5070	0.3475	0.4881	-0.6196
2.63	0.5386	-9.5657	3.0554	0.1041	0.1060	0.1203	10.8869	27.2246	-6.7978	-0.5070	0.3479	0.4873	-0.6200
2.64	0.4817	-9.4509	3.0692	0.1231	0.1494	0.1171	10.8886	27.2601	-6.7733	-0.5071	0.3484	0.4864	-0.6204
2.65	0.3912	-9.5333	3.1343	0.1258	0.1886	0.1099	10.9865	27.1798	-7.0107	-0.5073	0.3489	0.4853	-0.6207
2.66	0.2732	-9.6889	3.1979	0.1431	0.2334	0.0944	10.9995	27.0283	-7.0695	-0.5077	0.3496	0.4842	-0.6210
2.67	0.1487	-9.6751	3.2512	0.1624	0.2563	0.0841	10.9983	27.1304	-6.8960	-0.5082	0.3501	0.4829	-0.6212
2.68	0.0149	-9.6108	3.2837	0.1851	0.2868	0.0695	11.4187	26.9021	-7.0482	-0.5089	0.3508	0.4816	-0.6214
2.69	-0.0997	-9.4963	3.2898	0.1829	0.3041	0.0566	11.5210	26.9801	-6.9464	-0.5097	0.3514	0.4801	-0.6214
2.7	-0.1960	-9.3280	3.2802	0.1640	0.3176	0.0447	11.5646	27.0769	-7.2737	-0.5105	0.3521	0.4787	-0.6215
2.71	-0.3078	-9.2143	3.2584	0.1427	0.3312	0.0427	11.7822	26.7778	-7.0627	-0.5113	0.3528	0.4773	-0.6214
2.72	-0.4099	-9.1326	3.2270	0.1017	0.3412	0.0508	11.8726	26.8461	-7.1703	-0.5121	0.3538	0.4761	-0.6213
2.73	-0.5183	-9.0657	3.1807	0.0512	0.3439	0.0500	11.8930	26.6793	-7.1585	-0.5128	0.3548	0.4749	-0.6210
2.74	-0.6060	-9.0292	3.1093	0.0194	0.3454	0.0581	11.7347	26.7831	-7.2047	-0.5133	0.3560	0.4739	-0.6206
2.75	-0.6710	-8.9916	3.0321	-0.0162	0.3352	0.0624	11.6599	26.7745	-7.0782	-0.5138	0.3573	0.4730	-0.6202
2.76	-0.7120	-8.9956	2.9802	-0.0513	0.3238	0.0549	11.8766	26.6196	-7.1784	-0.5142	0.3585	0.4721	-0.6197
2.77	-0.7252	-9.0659	2.9539	-0.0801	0.3105	0.0433	12.1061	26.5282	-7.0305	-0.5146	0.3598	0.4716	-0.6192
2.78	-0.7445	-9.1766	2.9427	-0.0906	0.2943	0.0238	12.1751	26.7579	-7.0115	-0.5150	0.3610	0.4710	-0.6185
2.79	-0.7742	-9.2712	2.9339	-0.0888	0.2720	0.0186	12.0720	26.8320	-7.1240	-0.5153	0.3622	0.4706	-0.6179
2.8	-0.7996	-9.3107	2.9235	-0.0886	0.2603	0.0101	12.0593	26.8822	-6.9632	-0.5156	0.3633	0.4702	-0.6173
2.81	-0.7991	-9.3391	2.9218	-0.0876	0.2433	-0.0053	11.9306	26.8036	-6.7325	-0.5159	0.3643	0.4698	-0.6167
2.82	-0.7690	-9.3831	2.9063	-0.1004	0.2259	-0.0065	12.0689	26.8095	-6.7218	-0.5162	0.3652	0.4696	-0.6161
2.83	-0.7304	-9.3352	2.8637	-0.1160	0.2026	-0.0163	12.2944	26.8031	-6.6206	-0.5164	0.3661	0.4694	-0.6155
2.84	-0.6779	-9.2170	2.8031	-0.1353	0.1877	-0.0227	12.0802	27.1181	-6.6262	-0.5167	0.3671	0.4694	-0.6149
2.85	-0.6048	-9.2686	2.7521	-0.1695	0.1768	-0.0322	12.1108	26.9358	-6.5949	-0.5167	0.3680	0.4695	-0.6141
2.86	-0.5356	-9.4612	2.7074	-0.2039	0.1720	-0.0385	12.1413	27.0822	-6.4448	-0.5168	0.3690	0.4698	-0.6133
2.87	-0.4769	-9.6535	2.6591	-0.2162	0.1710	-0.0482	12.2734	27.0801	-6.3497	-0.5168	0.3699	0.4701	-0.6124
2.88	-0.4461	-9.7781	2.6026	-0.2163	0.1605	-0.0540	12.1703	27.1987	-6.3400	-0.5169	0.3709	0.4704	-0.6115
2.89	-0.4667	-9.8309	2.5564	-0.2164	0.1650	-0.0645	12.2638	26.9371	-6.1723	-0.5170	0.3718	0.4708	-0.6106
2.9	-0.5458	-9.8993	2.4995	-0.2002	0.1575	-0.0720	12.6521	26.8985	-6.1538	-0.5171	0.3727	0.4711	-0.6097
2.91	-0.5973	-9.9342	2.4551	-0.1814	0.1362	-0.0882	12.4693	26.9216	-6.0615	-0.5173	0.3734	0.4716	-0.6089
2.92	-0.5896	-9.9873	2.4447	-0.1650	0.1094	-0.1087	12.5283	26.7646	-6.0492	-0.5174	0.3739	0.4719	-0.6080
2.93	-0.5165	-10.1085	2.4647	-0.1373	0.0815	-0.1160	12.4661	26.9448	-5.8408	-0.5177	0.3743	0.4724	-0.6073
2.94	-0.3966	-10.1866	2.4947	-0.1092	0.0627	-0.1322	12.2229	27.2134	-5.6596	-0.5178	0.3745	0.4728	-0.6066
2.95	-0.2850	-10.1357	2.5032	-0.0796	0.0380	-0.1378	12.1525	26.9152	-5.7566	-0.5181	0.3746	0.4732	-0.6061
2.96	-0.1480	-10.0294	2.4962	-0.0427	0.0229	-0.1450	12.1176	26.9538	-5.7494	-0.5184	0.3744	0.4736	-0.6056
2.97	-0.0291	-9.9127	2.4765	-0.0291	0.0069	-0.1489	12.0172	27.0666	-5.6857	-0.5187	0.3742	0.4739	-0.6052
2.98	0.0596	-9.8078	2.4597	-0.0087	-0.0049	-0.1445	12.2147	27.1982	-5.7020	-0.5191	0.3739	0.4743	-0.6049
2.99	0.1280	-9.7439	2.4837	0.0111	-0.0126	-0.1493	11.8030	27.3912	-5.7496	-0.5194	0.3735	0.4745	-0.6046
3	0.1723	-9.7996	2.5406	0.0234	-0.0168	-0.1403	11.6809	27.3157	-6.0106	-0.5198	0.3731	0.4748	-0.6044
3.01	0.2003	-9.8399	2.5954	0.0450	-0.0298	-0.1415	11.7196	27.4503	-5.5568	-0.5200	0.3726	0.4750	-0.6041
3.02	0.2177	-9.7829	2.6447	0.0654	-0.0456	-0.1473	11.6105	27.3243	-5.7960	-0.5205	0.3720	0.4752	-0.6041
3.03	0.2538	-9.7252	2.6711	0.0788	-0.0625	-0.1358	11.7324	27.2019	-5.8926	-0.5208	0.3713	0.4754	-0.6041
3.04	0.2916	-9.6115	2.6871	0.0970	-0.0718	-0.1362	11.4607	27.4136	-5.7005	-0.5211	0.3705	0.4756	-0.6042
3.05	0.3262	-9.4739	2.7073	0.0982	-0.0892	-0.1283	11.8503	27.5350	-5.6229	-0.5213	0.3697	0.4757	-0.6043
3.06	0.3472	-9.4053	2.7410	0.0994	-0.1025	-0.1241	12.2293	27.5022	-5.6226	-0.5216	0.3689	0.4759	-0.6044
3.07	0.3887	-9.4577	2.8132	0.0917	-0.1153	-0.1168	11.4190	27.3684	-5.9351	-0.5217	0.3681	0.4762	-0.6046
3.08	0.4627	-9.5518	2.9003	0.0935	-0.1286	-0.1225	11.2029	27.5846	-6.0504	-0.5218	0.3671	0.4764	-0.6048
3.09	0.5471	-9.5774	2.9575	0.0924	-0.1303	-0.1142	11.1654	27.2173	-6.1215	-0.5220	0.3663	0.4768	-0.6051
3.1	0.6123	-9.5087	2.9755	0.0849	-0.1342	-0.1115	11.0474	27.1299	-6.1540	-0.5221	0.3654	0.4770	-0.6053
3.11	0.6576	-9.4198	2.9757	0.0729	-0.1355	-0.1112	11.1010	27.1515	-6.0794	-0.5222	0.3646	0.4774	-0.6055
3.12	0.6849	-9.3958	2.9589	0.0570	-0.1353	-0.0910	10.9948	27.0704	-6.2718	-0.5221	0.3638	0.4777	-0.6056
3.13	0.6950	-9.3800	2.9338	0.0386	-0.1308	-0.0879	10.8433	27.2227	-6.2391	-0.5220	0.3631	0.4781	-0.6058
3.14	0.7125	-9.3761	2.9208	0.0296	-0.1400	-0.0864	10.8210	27.1701	-6.1420	-0.5219	0.3624	0.4786	-0.6060
3.15	0.7414	-9.3844	2.8839	0.0169	-0.1352	-0.0738	10.7496	27.1879	-6.2694	-0.5217	0.3618	0.4790	-0.6061
3.16	0.7537	-9.3506	2.8450	0.0152	-0.1410	-0.0637	10.4199	27.1875	-5.9897	-0.5216	0.3613	0.4795	-0.6064
3.17	0.7620	-9.2814	2.7915	0.0142	-0.1264	-0.0434	10.7410	27.1758	-6.3606	-0.5213	0.3607	0.4798	-0.6065
3.18	0.7420	-9.1342	2.7573	0.0148	-0.1179	-0.0385	10.6751	27.4548	-6.4527	-0.5211	0.3603	0.4802	-0.6068
3.19	0.6996	-9.0789	2.7355	0.0052	-0.1178	-0.0231	10.5111	27.3527	-6.2752	-0.5207	0.3598	0.4805	-0.6069
3.2	0.6857	-9.1607	2.7467	-0.0018	-0.1128	-0.0147	10.4856	27.2631	-6.3898	-0.5204	0.3595	0.4809	-0.6072
3.21	0.6971	-9.2686	2.7802	-0.0083	-0.1131	-0.0133	10.7041	27.4122	-6.5072	-0.5201	0.3592	0.4812	-0.6074
3.22	0.6779	-9.3822	2.8314	-0.0203	-0.1051	-0.0122	10.5254	27.5466	-6.2921	-0.5197	0.3589	0.4815	-0.6076
3.23	0.6504	-9.5593	2.8872	-0.0400	-0.1017	-0.0106	10.5542	27.4260	-6.4193	-0.5194	0.3587	0.4820	-0.6077
3.24	0.6294	-9.7538	2.9173	-0.0493	-0.1113	-0.0075	10.3980	27.2173	-6.4255	-0.5189	0.3585	0.4824	-0.6078
3.25	0.5689	-9.8420	2.9300	-0.0566	-0.1126	-0.0062	10.5545	27.3344	-6.3378	-0.5185	0.3583	0.4829	-0.6080
3.26	0.4856	-9.8367	2.9001	-0.0600	-0.1255	0.0018	10.4436	27.4666	-6.3256	-0.5179	0.3581	0.4834	-0.6080
3.27	0.3934	-9.8104	2.8648	-0.0647	-0.1343	0.0068	10.6833	27.3126	-6.2983	-0.5175	0.3579	0.4840	-0.6083
3.28	0.3171	-9.8330	2.8301	-0.0658	-0.1492	0.0115	10.5626	27.1413	-6.2068	-0.5168	0.3577	0.4845	-0.6084
3.29	0.2959	-9.8576	2.7991	-0.0590	-0.1597	0.0123	10.8319	27.4908	-6.2140	-0.5162	0.3574	0.4851	-0.6087
3.3	0.3126	-9.8377	2.7780	-0.0427	-0.1759	0.0122	10.6084	27.3080	-6.3500	-0.5156	0.3570	0.4856	-0.6090
3.31	0.3582	-9.8032	2.7572	-0.0270	-0.1910	0.0119	10.5460	27.4326	-6.2644	-0.5149	0.3566	0.4862	-0.6093
3.32	0.4138	-9.7177	2.7445	0.0066	-0.1959	0.0115	10.6852	27.5611	-6.2757	-0.5143	0.3561	0.4867	-0.6098
3.33	0.4614	-9.6053	2.7299	0.0194	-0.1993	0.0092	10.5240	27.2240	-6.3309	-0.5137	0.3554	0.4871	-0.6102
3.34	0.4918	-9.5043	2.7042	0.0400	-0.1970	-0.0026	10.5469	27.3068	-6.3230	-0.5133	0.3548	0.4876	-0.6108
3.35	0.5049	-9.4535	2.7035	0.0454	-0.2007	-0.0044	10.5557	27.3500	-6.4381	-0.5127	0.3541	0.4879	-0.6113
3.36	0.5094	-9.4736	2.7202	0.0458	-0.1938	-0.0022	10.5307	27.1844	-6.3971	-0.5123	0.3534	0.4883	-0.6118
3.37	0.5047	-9.5026	2.7307	0.0599	-0.1879	-0.0058	10.5777	27.6123	-6.3301	-0.5118	0.3526	0.4886	-0.6123
3.38	0.4935	-9.5504	2.7723	0.0663	-0.1990	0.0102	10.4809	27.4383	-6.3108	-0.5113	0.3519	0.4889	-0.6129
3.39	0.4894	-9.5995	2.8133	0.0641	-0.1952	0.0099	10.3263	27.2190	-6.5332	-0.5108	0.3512	0.4892	-0.6135
3.4	0.4767	-9.5904	2.8411	0.0699	-0.1856	0.0148	10.4325	27.5870	-6.7101	-0.5103	0.3505	0.4894	-0.6141
3.41	0.4494	-9.5590	2.8622	0.0678	-0.1902	0.0172	10.6114	27.2975	-6.6753	-0.5099	0.3499	0.4897	-0.6147
3.42	0.4315	-9.5366	2.8767	0.0648	-0.1785	0.0339	10.4091	27.2682	-6.7001	-0.5093	0.3492	0.4899	-0.6153
3.43	0.4067	-9.4903	2.8899	0.0574	-0.1764	0.0357	10.2256	27.2543	-6.6692	-0.5088	0.3487	0.4901	-0.6160
3.44	0.3783	-9.4572	2.8997	0.0531	-0.1727	0.0346	10.2962	27.3675	-6.7166	-0.5082	0.3481	0.4903	-0.6165
3.45	0.3490	-9.4087	2.8962	0.0431	-0.1799	0.0286	10.2809	27.2321	-6.7444	-0.5077	0.3475	0.4906	-0.6171
3.46	0.3218	-9.4090	2.9072	0.0371	-0.1760	0.0196	10.5843	27.1527	-6.8846	-0.5072	0.3470	0.4909	-0.6176
3.47	0.2955	-9.4778	2.9243	0.0305	-0.1705	0.0152	10.7496	27.2042	-6.9930	-0.5066	0.3464	0.4912	-0.6180
3.48	0.2572	-9.5393	2.9337	0.0173	-0.1631	0.0119	10.4967	27.0587	-6.8536	-0.5062	0.3459	0.4916	-0.6185
3.49	0.2004	-9.5758	2.9412	0.0178	-0.1609	0.0090	10.3282	26.9979	-6.8309	-0.5057	0.3454	0.4919	-0.6189
3.5	0.1582	-9.5942	2.9238	0.0126	-0.1668	0.0056	10.5736	27.1914	-6.7896	-0.5052	0.3449	0.4923	-0.6193
3.51	0.1551	-9.5884	2.8994	0.0148	-0.1747	-0.0021	10.5155	27.1586	-7.0038	-0.5046	0.3444	0.4926	-0.6196
3.52	0.1948	-9.5426	2.8569	0.0050	-0.1963	0.0016	10.4748	27.1979	-6.8057	-0.5041	0.3438	0.4932	-0.6201
3.53	0.2831	-9.5073	2.8245	-0.0099	-0.2072	-0.0067	10.3835	27.2981	-6.9550	-0.5035	0.3432	0.4937	-0.6205
3.54	0.3895	-9.5620	2.8004	-0.0210	-0.2157	0.0012	10.4491	27.1961	-6.9072	-0.5028	0.3426	0.4943	-0.6209
3.55	0.5203	-9.6261	2.7810	-0.0129	-0.2092	-0.0009	10.9611	27.1483	-6.7414	-0.5022	0.3420	0.4949	-0.6212
3.56	0.6200	-9.6424	2.7794	-0.0127	-0.2017	0.0084	11.0792	27.2176	-6.7850	-0.5015	0.3415	0.4954	-0.6216
3.57	0.6860	-9.6254	2.7684	-0.0007	-0.1924	0.0127	10.9046	27.4186	-6.9025	-0.5009	0.3409	0.4959	-0.6220
3.58	0.7126	-9.5912	2.7497	0.0128	-0.1719	0.0109	10.4644	27.5492	-7.0317	-0.5003	0.3404	0.4963	-0.6224
3.59	0.7108	-9.5253	2.7284	0.0264	-0.1541	0.0161	10.4633	27.6099	-7.1455	-0.4999	0.3399	0.4966	-0.6229
3.6	0.6705	-9.4444	2.7206	0.0413	-0.1404	0.0146	10.4905	27.0897	-6.9030	-0.4994	0.3394	0.4968	-0.6233
3.61	0.6151	-9.4164	2.7273	0.0417	-0.1232	0.0014	10.3725	26.9911	-7.0604	-0.4991	0.3390	0.4970	-0.6238
3.62	0.5805	-9.4222	2.7502	0.0456	-0.1176	-0.0071	10.5340	27.2285	-7.2462	-0.4988	0.3385	0.4971	-0.6240
3.63	0.5661	-9.4492	2.7871	0.0486	-0.1140	-0.0089	10.4887	27.3151	-7.0642	-0.4985	0.3380	0.4973	-0.6244
3.64	0.5960	-9.4473	2.8230	0.0529	-0.1019	-0.0185	10.5575	27.0746	-7.1797	-0.4983	0.3376	0.4974	-0.6248
3.65	0.6593	-9.4727	2.8538	0.0422	-0.0930	-0.0372	10.6892	26.9379	-7.2823	-0.4981	0.3372	0.4975	-0.6250
3.66	0.7238	-9.5292	2.8754	0.0248	-0.0814	-0.0444	10.6888	26.9402	-7.2082	-0.4980	0.3368	0.4977	-0.6253
3.67	0.7715	-9.5839	2.8920	0.0119	-0.0721	-0.0493	10.5318	26.8215	-7.2999	-0.4979	0.3364	0.4979	-0.6253
3.68	0.7772	-9.6347	2.9122	0.0029	-0.0516	-0.0523	10.5008	27.1215	-7.3055	-0.4978	0.3362	0.4982	-0.6254
3.69	0.7633	-9.6750	2.9059	-0.0145	-0.0404	-0.0584	10.5141	27.1127	-7.2735	-0.4977	0.3359	0.4983	-0.6253
3.7	0.7475	-9.7054	2.8967	-0.0237	-0.0310	-0.0568	10.5080	27.0159	-7.2248	-0.4977	0.3358	0.4986	-0.6252
3.71	0.7096	-9.7275	2.8850	-0.0351	-0.0213	-0.0574	10.1613	26.8483	-7.1111	-0.4977	0.3357	0.4989	-0.6251
3.72	0.6599	-9.7306	2.8811	-0.0356	-0.0257	-0.0619	10.2234	26.9706	-7.2150	-0.4976	0.3356	0.4992	-0.6249
3.73	0.6079	-9.7404	2.8703	-0.0384	-0.0282	-0.0616	10.2564	27.2627	-7.0665	-0.4976	0.3354	0.4995	-0.6248
3.74	0.5756	-9.7368	2.8543	-0.0374	-0.0280	-0.0681	10.1025	27.0214	-7.2166	-0.4976	0.3353	0.4998	-0.6247
3.75	0.5512	-9.7308	2.8462	-0.0385	-0.0346	-0.0723	10.2364	27.2627	-7.2421	-0.4976	0.3352	0.5001	-0.6245
3.76	0.5645	-9.7689	2.8327	-0.0357	-0.0448	-0.0694	10.2448	26.9723	-7.2840	-0.4975	0.3349	0.5004	-0.6243
3.77	0.6151	-9.7744	2.8128	-0.0388	-0.0615	-0.0753	10.1297	27.1134	-7.1615	-0.4975	0.3347	0.5008	-0.6243
3.78	0.7088	-9.7200	2.8022	-0.0238	-0.0727	-0.0739	10.1729	27.2967	-7.1623	-0.4973	0.3344	0.5012	-0.6242
3.79	0.8159	-9.6765	2.7789	-0.0104	-0.0772	-0.0757	10.1041	27.1639	-7.1701	-0.4973	0.3340	0.5016	-0.6242
3.8	0.9149	-9.6682	2.7800	-0.0081	-0.0770	-0.0791	9.8366	27.2065	-6.9933	-0.4972	0.3336	0.5019	-0.6241
3.81	0.9964	-9.6902	2.7871	0.0048	-0.0752	-0.0665	10.0649	27.2448	-7.1650	-0.4971	0.3332	0.5022	-0.6242
3.82	1.0468	-9.6927	2.7990	0.0141	-0.0714	-0.0513	9.9985	27.4323	-7.0932	-0.4971	0.3329	0.5025	-0.6243
3.83	1.0527	-9.6913	2.8176	0.0310	-0.0568	-0.0452	10.0362	26.9682	-7.2069	-0.4970	0.3325	0.5025	-0.6243
3.84	1.0353	-9.6656	2.8285	0.0399	-0.0520	-0.0377	10.1861	26.9685	-7.1081	-0.4970	0.3322	0.5027	-0.6246
3.85	1.0126	-9.6178	2.8365	0.0504	-0.0568	-0.0444	10.1268	26.8694	-7.3998	-0.4969	0.3318	0.5027	-0.6247
3.86	0.9989	-9.5843	2.8625	0.0675	-0.0570	-0.0406	10.1815	26.9020	-7.3289	-0.4970	0.3314	0.5028	-0.6250
3.87	0.9925	-9.5544	2.8766	0.0634	-0.0670	-0.0407	10.0389	27.0497	-7.1683	-0.4969	0.3309	0.5027	-0.6251
3.88	1.0180	-9.5122	2.8938	0.0678	-0.0685	-0.0387	9.9593	26.7764	-7.2422	-0.4969	0.3305	0.5028	-0.6254
3.89	1.0717	-9.4499	2.8996	0.0659	-0.0757	-0.0384	9.7746	26.9318	-7.2909	-0.4968	0.3300	0.5028	-0.6256
3.9	1.1458	-9.3897	2.8982	0.0680	-0.0825	-0.0374	9.8960	26.9326	-7.3730	-0.4967	0.3295	0.5029	-0.6259
3.91	1.2137	-9.3665	2.9108	0.0554	-0.0779	-0.0269	9.7581	27.0284	-7.4933	-0.4967	0.3291	0.5030	-0.6262
3.92	1.2729	-9.3617	2.9276	0.0435	-0.0696	-0.0136	9.8717	27.1721	-7.5053	-0.4965	0.3288	0.5030	-0.6264
3.93	1.3118	-9.3894	2.9368	0.0304	-0.0555	-0.0086	9.7821	27.2021	-7.6394	-0.4963	0.3285	0.5031	-0.6267
3.94	1.3052	-9.3870	2.9406	0.0162	-0.0421	0.0104	9.5750	27.1911	-7.3654	-0.4961	0.3283	0.5031	-0.6268
3.95	1.2493	-9.3728	2.9276	0.0062	-0.0252	0.0158	9.6441	27.3074	-7.4112	-0.4959	0.3283	0.5032	-0.6270
3.96	1.1865	-9.3846	2.9178	-0.0118	-0.0152	0.0289	9.7775	27.2601	-7.5569	-0.4957	0.3284	0.5032	-0.6271
3.97	1.1093	-9.4149	2.9133	-0.0253	-0.0131	0.0404	9.8018	27.0601	-7.6043	-0.4953	0.3285	0.5032	-0.6272
3.98	1.0436	-9.4495	2.9111	-0.0220	-0.0104	0.0461	9.8055	27.3555	-7.4626	-0.4951	0.3287	0.5033	-0.6274
3.99	0.9849	-9.4921	2.9239	-0.0315	-0.0055	0.0495	9.6403	27.3089	-7.5291	-0.4947	0.3289	0.5033	-0.6275
4	0.9411	-9.5361	2.9438	-0.0142	-0.0122	0.0596	9.8622	27.1539	-7.6112	-0.4944	0.3291	0.5033	-0.6277
4.01	0.9066	-9.6002	2.9733	-0.0121	-0.0094	0.0653	9.8724	27.2336	-7.4624	-0.4940	0.3292	0.5032	-0.6278
4.02	0.8692	-9.6558	2.9756	-0.0115	-0.0075	0.0723	10.0363	26.8508	-7.6052	-0.4937	0.3295	0.5032	-0.6281
4.03	0.8355	-9.6392	2.9752	0.0041	-0.0095	0.0801	10.1551	26.8657	-7.3603	-0.4933	0.3297	0.5031	-0.6284
4.04	0.8252	-9.5806	2.9622	0.0065	-0.0027	0.0838	10.3041	27.0623	-7.4972	-0.4930	0.3299	0.5029	-0.6287
4.05	0.8133	-9.5272	2.9349	0.0052	0.0041	0.0919	10.8650	26.8972	-7.3578	-0.4926	0.3301	0.5027	-0.6290
4.06	0.8075	-9.4567	2.9116	0.0037	0.0072	0.0914	11.0477	26.7386	-7.2752	-0.4922	0.3304	0.5026	-0.6293
4.07	0.8222	-9.4045	2.9068	-0.0075	0.0170	0.0918	10.3866	27.0230	-7.4008	-0.4919	0.3307	0.5024	-0.6295
4.08	0.8378	-9.3994	2.9055	-0.0133	0.0318	0.0921	10.1349	27.4577	-7.4861	-0.4915	0.3311	0.5022	-0.6297
4.09	0.8213	-9.3987	2.9167	-0.0168	0.0463	0.0942	10.3651	27.1221	-7.2765	-0.4913	0.3316	0.5020	-0.6299
4.1	0.7685	-9.4164	2.9204	-0.0252	0.0624	0.0930	10.3857	26.8673	-7.4748	-0.4910	0.3320	0.5018	-0.6300
4.11	0.6777	-9.4170	2.9249	-0.0196	0.0839	0.0930	10.4016	27.1368	-7.4400	-0.4908	0.3326	0.5015	-0.6302
4.12	0.5783	-9.4110	2.9178	-0.0324	0.0961	0.0866	10.3036	27.0674	-7.1120	-0.4905	0.3332	0.5012	-0.6301
4.13	0.4586	-9.3976	2.9085	-0.0384	0.1075	0.0793	10.1624	26.9951	-7.1908	-0.4904	0.3339	0.5009	-0.6302
4.14	0.3629	-9.3995	2.8945	-0.0384	0.1086	0.0716	10.4891	27.1830	-7.3499	-0.4902	0.3346	0.5006	-0.6302
4.15	0.3037	-9.3969	2.8907	-0.0533	0.1046	0.0616	10.6817	27.1009	-7.2591	-0.4901	0.3353	0.5003	-0.6301
4.16	0.2734	-9.4330	2.8875	-0.0678	0.1049	0.0563	10.5526	27.0805	-7.2604	-0.4900	0.3360	0.5002	-0.6301
4.17	0.2598	-9.4681	2.8725	-0.0786	0.0904	0.0468	10.5674	27.1083	-7.2181	-0.4897	0.3367	0.5000	-0.6299
4.18	0.2421	-9.4829	2.8571	-0.0885	0.0890	0.0403	10.8332	27.0780	-7.1271	-0.4896	0.3374	0.5000	-0.6298
4.19	0.2300	-9.5028	2.8249	-0.0907	0.0785	0.0438	10.8197	27.1061	-7.1880	-0.4893	0.3380	0.4999	-0.6296
4.2	0.2053	-9.4757	2.8060	-0.0928	0.0727	0.0488	10.8816	27.1736	-7.0216	-0.4891	0.3387	0.4999	-0.6295
4.21	0.1972	-9.5113	2.7772	-0.1057	0.0647	0.0396	10.9023	26.8696	-7.1315	-0.4888	0.3393	0.4999	-0.6293
4.22	0.1975	-9.5672	2.7708	-0.1134	0.0510	0.0398	11.0910	26.7370	-7.1696	-0.4885	0.3399	0.5000	-0.6291
4.23	0.1894	-9.5965	2.7725	-0.1050	0.0440	0.0395	11.0875	26.7536	-7.0399	-0.4882	0.3404	0.5002	-0.6290
4.24	0.2019	-9.6651	2.7651	-0.0966	0.0425	0.0410	11.1434	26.8635	-7.0704	-0.4879	0.3409	0.5003	-0.6288
4.25	0.1899	-9.6889	2.7589	-0.0862	0.0324	0.0365	10.9322	27.0035	-7.0589	-0.4877	0.3413	0.5005	-0.6287
4.26	0.1679	-9.6788	2.7361	-0.0825	0.0303	0.0368	11.0813	26.9863	-7.0815	-0.4873	0.3417	0.5006	-0.6285
4.27	0.1401	-9.6512	2.7230	-0.0729	0.0210	0.0357	11.2163	27.1522	-6.8203	-0.4871	0.3421	0.5007	-0.6285
4.28	0.1089	-9.6252	2.7065	-0.0676	0.0188	0.0379	11.0517	27.1657	-6.7821	-0.4868	0.3424	0.5008	-0.6284
4.29	0.0782	-9.5784	2.6829	-0.0632	0.0053	0.0289	11.1483	27.0131	-6.7940	-0.4865	0.3427	0.5010	-0.6284
4.3	0.0733	-9.5268	2.6671	-0.0667	0.0007	0.0131	10.9645	26.9841	-6.7834	-0.4863	0.3429	0.5011	-0.6283
4.31	0.0633	-9.5184	2.6500	-0.0832	-0.0088	0.0068	11.0703	27.0666	-6.8007	-0.4860	0.3431	0.5014	-0.6282
4.32	0.0764	-9.5396	2.6545	-0.0882	-0.0152	-0.0097	11.2940	27.0606	-6.9626	-0.4858	0.3433	0.5018	-0.6281
4.33	0.1189	-9.5777	2.6645	-0.0889	-0.0224	-0.0122	11.2225	26.9873	-6.5897	-0.4854	0.3434	0.5021	-0.6279
4.34	0.1506	-9.6207	2.6804	-0.0875	-0.0301	-0.0332	10.9395	27.1177	-6.5123	-0.4853	0.3435	0.5025	-0.6278
4.35	0.1867	-9.6539	2.6821	-0.0878	-0.0250	-0.0475	11.1304	27.1148	-6.4809	-0.4851	0.3435	0.5029	-0.6275
4.36	0.2064	-9.6526	2.6716	-0.0806	-0.0291	-0.0539	11.2064	27.2895	-6.3873	-0.4850	0.3435	0.5034	-0.6273
4.37	0.2131	-9.6436	2.6668	-0.0754	-0.0227	-0.0647	11.2085	27.2886	-6.5374	-0.4848	0.3435	0.5037	-0.6270
4.38	0.2243	-9.6642	2.6587	-0.0625	-0.0242	-0.0709	11.0205	27.1301	-6.6324	-0.4848	0.3434	0.5041	-0.6268
4.39	0.2377	-9.7121	2.6597	-0.0625	-0.0323	-0.0798	11.1240	27.1040	-6.5660	-0.4848	0.3433	0.5045	-0.6266
4.4	0.2684	-9.7525	2.6611	-0.0513	-0.0271	-0.0865	11.1629	27.0793	-6.4110	-0.4848	0.3431	0.5049	-0.6263
4.41	0.3042	-9.7477	2.6645	-0.0384	-0.0310	-0.0881	10.9577	27.1484	-6.3359	-0.4849	0.3430	0.5053	-0.6262
4.42	0.3573	-9.7226	2.6631	-0.0287	-0.0357	-0.0925	10.9286	27.1402	-6.4422	-0.4849	0.3427	0.5056	-0.6259
4.43	0.4245	-9.6909	2.6679	-0.0150	-0.0400	-0.0974	10.9093	26.9374	-6.1743	-0.4850	0.3424	0.5060	-0.6258
4.44	0.4918	-9.6580	2.6705	-0.0120	-0.0320	-0.0939	10.5146	27.2183	-6.5335	-0.4850	0.3420	0.5062	-0.6256
4.45	0.5459	-9.6073	2.6741	-0.0116	-0.0344	-0.0941	10.8452	27.1709	-6.6354	-0.4852	0.3418	0.5065	-0.6255
4.46	0.5811	-9.6021	2.6791	-0.0114	-0.0239	-0.0913	10.7393	27.3794	-6.5779	-0.4853	0.3415	0.5068	-0.6254
4.47	0.6172	-9.6163	2.6839	-0.0108	-0.0232	-0.0882	10.5983	27.2837	-6.3983	-0.4854	0.3413	0.5070	-0.6252
4.48	0.6342	-9.6077	2.6852	-0.0111	-0.0173	-0.0885	10.8953	27.1781	-6.5527	-0.4855	0.3410	0.5072	-0.6251
4.49	0.6416	-9.5792	2.6834	-0.0104	-0.0070	-0.0895	10.7932	27.3023	-6.4656	-0.4856	0.3408	0.5074	-0.6249
4.5	0.6295	-9.5854	2.6843	-0.0093	-0.0058	-0.0814	10.6937	27.0555	-6.4512	-0.4858	0.3406	0.5076	-0.6248
4.51	0.5979	-9.6143	2.6864	-0.0112	0.0029	-0.0737	10.5405	27.2791	-6.6576	-0.4858	0.3405	0.5077	-0.6246
4.52	0.5499	-9.6585	2.6836	-0.0202	-0.0023	-0.0613	10.5990	27.3787	-6.3533	-0.4860	0.3404	0.5080	-0.6245
4.53	0.5091	-9.6880	2.6733	-0.0181	-0.0132	-0.0600	10.5102	27.1961	-6.1879	-0.4860	0.3403	0.5082	-0.6243
4.54	0.4947	-9.7120	2.6671	-0.0256	-0.0181	-0.0502	10.5072	27.4360	-6.3614	-0.4860	0.3402	0.5084	-0.6243
4.55	0.5135	-9.7069	2.6593	-0.0224	-0.0343	-0.0555	10.8808	27.5424	-6.2356	-0.4859	0.3400	0.5086	-0.6242
4.56	0.5722	-9.7050	2.6604	-0.0309	-0.0480	-0.0551	11.1606	27.5359	-5.9934	-0.4858	0.3398	0.5089	-0.6241
4.57	0.6406	-9.7284	2.6579	-0.0183	-0.0572	-0.0447	10.7064	27.3218	-6.2285	-0.4857	0.3396	0.5092	-0.6241
4.58	0.7182	-9.7055	2.6402	-0.0111	-0.0578	-0.0420	10.5613	27.6502	-6.3570	-0.4855	0.3393	0.5094	-0.6241
4.59	0.7858	-9.6641	2.6312	-0.0065	-0.0559	-0.0462	10.6114	27.2544	-6.4798	-0.4855	0.3391	0.5097	-0.6242
4.6	0.8475	-9.6520	2.6222	-0.0034	-0.0524	-0.0383	10.5654	27.0782	-6.5674	-0.4853	0.3388	0.5099	-0.6242
4.61	0.8885	-9.6419	2.6073	-0.0094	-0.0468	-0.0443	10.3414	27.3332	-6.4874	-0.4853	0.3386	0.5102	-0.6243
4.62	0.9018	-9.6132	2.5979	0.0014	-0.0279	-0.0372	10.2979	27.0930	-6.3277	-0.4852	0.3384	0.5102	-0.6242
4.63	0.8954	-9.6067	2.5816	-0.0034	-0.0277	-0.0290	10.3410	27.3211	-6.4053	-0.4851	0.3383	0.5104	-0.6243
4.64	0.8803	-9.6127	2.5718	-0.0037	-0.0194	-0.0296	10.2930	27.1374	-6.4654	-0.4851	0.3382	0.5105	-0.6243
4.65	0.8692	-9.6363	2.5727	-0.0110	-0.0110	-0.0246	10.4121	27.2471	-6.4553	-0.4850	0.3381	0.5106	-0.6242
4.66	0.8636	-9.6695	2.5777	-0.0056	-0.0038	-0.0186	10.4023	27.2341	-6.5349	-0.4850	0.3381	0.5107	-0.6243
4.67	0.8581	-9.6784	2.5769	-0.0008	0.0093	-0.0083	10.2789	27.1296	-6.5865	-0.4849	0.3381	0.5107	-0.6243
4.68	0.8542	-9.6671	2.5822	-0.0088	0.0151	-0.0109	10.1537	27.3952	-6.4029	-0.4849	0.3382	0.5107	-0.6243
4.69	0.8528	-9.6807	2.5835	0.0054	0.0181	-0.0083	10.1412	27.5046	-6.3627	-0.4848	0.3382	0.5106	-0.6243
4.7	0.8532	-9.7038	2.5976	0.0105	0.0228	-0.0049	10.1451	27.6176	-6.3499	-0.4849	0.3383	0.5106	-0.6243
4.71	0.8609	-9.7031	2.6045	0.0143	0.0326	-0.0012	10.1570	27.5535	-6.2743	-0.4849	0.3384	0.5105	-0.6244
4.72	0.8701	-9.6837	2.6050	0.0182	0.0339	0.0085	10.1110	27.4031	-6.4864	-0.4849	0.3384	0.5103	-0.6244
4.73	0.8664	-9.6571	2.6130	0.0139	0.0462	0.0186	10.2774	27.4192	-6.5277	-0.4849	0.3386	0.5102	-0.6245
4.74	0.8595	-9.6329	2.6123	0.0246	0.0495	0.0295	10.1607	27.4011	-6.5908	-0.4848	0.3388	0.5099	-0.6246
4.75	0.8459	-9.6027	2.6243	0.0331	0.0599	0.0297	10.2161	27.4474	-6.4383	-0.4849	0.3390	0.5096	-0.6247
4.76	0.8027	-9.5858	2.6224	0.0263	0.0689	0.0386	10.1420	27.2511	-6.2210	-0.4848	0.3392	0.5093	-0.6248
4.77	0.7484	-9.5782	2.6242	0.0145	0.0730	0.0516	10.1534	26.9983	-6.5363	-0.4848	0.3396	0.5090	-0.6249
4.78	0.6724	-9.5911	2.6183	0.0129	0.0757	0.0520	10.4043	26.9702	-6.5008	-0.4848	0.3399	0.5087	-0.6250
4.79	0.5922	-9.6174	2.6192	0.0133	0.0795	0.0554	10.4500	27.0084	-6.4044	-0.4848	0.3403	0.5084	-0.6251
4.8	0.5259	-9.6386	2.6258	0.0121	0.0768	0.0592	10.6281	27.2996	-6.5804	-0.4847	0.3407	0.5080	-0.6252
4.81	0.4678	-9.6727	2.6327	0.0119	0.0683	0.0561	10.5457	27.2844	-6.6280	-0.4846	0.3410	0.5078	-0.6253
4.82	0.4256	-9.6866	2.6405	0.0178	0.0697	0.0574	10.6711	27.2710	-6.4633	-0.4846	0.3414	0.5075	-0.6255
4.83	0.4108	-9.6687	2.6397	0.0187	0.0477	0.0535	10.5989	27.3837	-6.4311	-0.4844	0.3416	0.5071	-0.6255
4.84	0.4032	-9.6331	2.6478	0.0384	0.0422	0.0469	10.5664	26.9770	-6.4858	-0.4844	0.3419	0.5069	-0.6258
4.85	0.4052	-9.5962	2.6431	0.0393	0.0379	0.0420	10.9116	27.1750	-6.3718	-0.4843	0.3420	0.5066	-0.6260
4.86	0.4111	-9.5517	2.6502	0.0400	0.0361	0.0396	10.6877	27.3277	-6.4317	-0.4843	0.3421	0.5064	-0.6262
4.87	0.4248	-9.5441	2.6695	0.0359	0.0339	0.0329	10.6793	27.3514	-6.4568	-0.4842	0.3422	0.5060	-0.6263
4.88	0.4306	-9.5900	2.6893	0.0361	0.0291	0.0295	10.7717	27.2853	-6.3518	-0.4842	0.3423	0.5058	-0.6265
4.89	0.4157	-9.5731	2.6901	0.0173	0.0296	0.0215	10.6149	27.2722	-6.5002	-0.4841	0.3424	0.5057	-0.6266
4.9	0.4011	-9.5192	2.6751	0.0112	0.0278	0.0153	10.4828	27.3891	-6.4040	-0.4840	0.3425	0.5055	-0.6267
4.91	0.3929	-9.5135	2.6718	0.0125	0.0219	0.0168	10.6167	26.9756	-6.7046	-0.4840	0.3427	0.5055	-0.6269
4.92	0.3771	-9.5270	2.6674	0.0068	0.0245	0.0101	10.8140	27.4418	-6.5478	-0.4839	0.3428	0.5053	-0.6269
4.93	0.3713	-9.5865	2.6703	-0.0063	0.0209	0.0019	10.7313	27.2729	-6.3941	-0.4839	0.3429	0.5053	-0.6269
4.94	0.3710	-9.6490	2.6802	0.0056	0.0106	-0.0020	10.8753	27.2418	-6.5753	-0.4838	0.3429	0.5052	-0.6269
4.95	0.3750	-9.6623	2.6850	0.0092	0.0080	-0.0059	10.7327	27.2027	-6.5095	-0.4838	0.3429	0.5052	-0.6270
4.96	0.3793	-9.6729	2.6970	0.0142	0.0018	-0.0021	11.1493	27.2059	-6.4262	-0.4837	0.3429	0.5052	-0.6271
4.97	0.3850	-9.6831	2.7063	0.0125	-0.0011	-0.0033	10.9630	27.2080	-6.4625	-0.4837	0.3428	0.5051	-0.6271
4.98	0.3741	-9.6513	2.6898	0.0130	-0.0018	-0.0059	10.8348	27.0361	-6.3364	-0.4836	0.3428	0.5051	-0.6273
4.99	0.3618	-9.5986	2.6701	0.0138	-0.0037	-0.0034	10.8387	27.0849	-6.3734	-0.4835	0.3428	0.5051	-0.6273
5	0.3557	-9.5624	2.6471	0.0118	-0.0151	-0.0104	10.9190	27.0581	-6.5585	-0.4835	0.3427	0.5051	-0.6274
5.01	0.3641	-9.5347	2.6332	-0.0024	-0.0202	-0.0109	10.9502	27.0677	-6.4307	-0.4833	0.3426	0.5052	-0.6274
5.02	0.3972	-9.5622	2.6355	-0.0132	-0.0239	-0.0174	10.9513	27.0818	-6.5754	-0.4833	0.3426	0.5053	-0.6275
5.03	0.4405	-9.5979	2.6356	-0.0141	-0.0294	-0.0273	10.8955	27.2120	-6.4744	-0.4831	0.3424	0.5055	-0.6275
5.04	0.4921	-9.6405	2.6291	-0.0235	-0.0298	-0.0291	10.8717	27.3059	-6.1796	-0.4830	0.3423	0.5057	-0.6275
5.05	0.5348	-9.6819	2.6260	-0.0143	-0.0337	-0.0312	11.1798	27.5310	-6.0651	-0.4829	0.3422	0.5059	-0.6275
5.06	0.5636	-9.6769	2.6200	-0.0142	-0.0194	-0.0370	11.4015	27.4925	-6.2211	-0.4829	0.3421	0.5060	-0.6275
5.07	0.5780	-9.6707	2.6147	-0.0051	-0.0125	-0.0315	10.9392	27.3774	-6.3642	-0.4828	0.3420	0.5062	-0.6275
5.08	0.5813	-9.6710	2.6152	0.0058	-0.0113	-0.0338	10.9496	27.6049	-6.3424	-0.4828	0.3419	0.5062	-0.6274
5.09	0.5691	-9.6637	2.6227	0.0107	0.0052	-0.0308	10.9302	27.5642	-6.4626	-0.4829	0.3418	0.5063	-0.6275
5.1	0.5452	-9.6696	2.6244	0.0142	0.0052	-0.0214	11.0927	27.0453	-6.5822	-0.4829	0.3417	0.5062	-0.6275
5.11	0.5391	-9.6691	2.6357	0.0141	0.0118	-0.0190	10.7976	27.2077	-6.6567	-0.4829	0.3417	0.5062	-0.6276
5.12	0.5418	-9.6670	2.6458	0.0136	0.0184	-0.0191	10.6261	27.4506	-6.5155	-0.4829	0.3417	0.5061	-0.6275
5.13	0.5377	-9.6460	2.6415	0.0130	0.0155	-0.0157	10.9103	27.3257	-6.4350	-0.4830	0.3417	0.5061	-0.6276
5.14	0.5362	-9.5776	2.6418	0.0129	0.0169	-0.0081	10.7527	27.3218	-6.6284	-0.4830	0.3417	0.5060	-0.6276
5.15	0.5305	-9.5693	2.6466	0.0114	0.0228	-0.0104	10.7488	27.1395	-6.5699	-0.4830	0.3417	0.5060	-0.6276
5.16	0.5297	-9.6059	2.6595	0.0143	0.0308	-0.0089	10.7424	27.1897	-6.2755	-0.4831	0.3418	0.5059	-0.6277
5.17	0.5405	-9.6249	2.6790	0.0122	0.0341	-0.0094	10.9042	27.2765	-6.4535	-0.4831	0.3418	0.5058	-0.6277
5.18	0.5556	-9.6351	2.6995	0.0185	0.0321	-0.0085	10.9308	27.0002	-6.5606	-0.4831	0.3419	0.5057	-0.6277
5.19	0.5616	-9.6003	2.7074	0.0284	0.0397	-0.0070	10.9308	26.9805	-6.5047	-0.4832	0.3419	0.5055	-0.6277
5.2	0.5430	-9.5795	2.7089	0.0242	0.0535	-0.0085	10.6825	27.1124	-6.6567	-0.4833	0.3420	0.5053	-0.6278
5.21	0.4943	-9.5710	2.7189	0.0202	0.0617	-0.0083	10.8399	27.2258	-6.4145	-0.4834	0.3422	0.5051	-0.6277
5.22	0.4430	-9.5789	2.7186	0.0242	0.0645	-0.0079	10.7536	27.2897	-6.5221	-0.4836	0.3423	0.5049	-0.6277
5.23	0.3864	-9.5514	2.7288	0.0343	0.0602	-0.0043	10.8344	27.0456	-6.6261	-0.4837	0.3424	0.5047	-0.6278
5.24	0.3477	-9.5294	2.7376	0.0180	0.0603	-0.0062	10.8283	27.1155	-6.6373	-0.4838	0.3425	0.5045	-0.6277
5.25	0.3434	-9.5355	2.7435	0.0154	0.0604	-0.0099	10.8551	27.2327	-6.5638	-0.4840	0.3427	0.5043	-0.6277
5.26	0.3300	-9.5412	2.7513	0.0076	0.0557	-0.0113	10.7283	27.3481	-6.5050	-0.4840	0.3428	0.5041	-0.6276
5.27	0.3378	-9.5527	2.7510	0.0146	0.0446	-0.0214	10.9891	27.2372	-6.6743	-0.4842	0.3429	0.5041	-0.6277
5.28	0.3419	-9.5347	2.7474	0.0051	0.0455	-0.0217	10.9962	27.1155	-6.5525	-0.4843	0.3430	0.5040	-0.6276
5.29	0.3497	-9.5571	2.7387	-0.0110	0.0346	-0.0241	10.8335	27.2820	-6.5202	-0.4843	0.3431	0.5040	-0.6275
5.3	0.3610	-9.5709	2.7296	-0.0124	0.0329	-0.0197	10.7481	27.1333	-6.6312	-0.4843	0.3431	0.5040	-0.6274
5.31	0.3767	-9.6017	2.7223	-0.0132	0.0178	-0.0175	10.6085	27.1005	-6.3768	-0.4843	0.3432	0.5040	-0.6274
5.32	0.3986	-9.6340	2.7185	-0.0036	0.0118	-0.0148	10.7659	27.1887	-6.7217	-0.4843	0.3432	0.5040	-0.6274
5.33	0.4180	-9.6581	2.7280	-0.0070	0.0069	-0.0106	10.9606	27.1795	-6.6300	-0.4842	0.3432	0.5040	-0.6273
5.34	0.4489	-9.6732	2.7231	0.0085	0.0031	-0.0135	10.7846	26.9408	-6.6112	-0.4843	0.3432	0.5041	-0.6274
5.35	0.4836	-9.6593	2.7216	0.0142	0.0015	-0.0097	10.8987	27.0708	-6.6117	-0.4842	0.3432	0.5040	-0.6275
5.36	0.5161	-9.6491	2.7133	0.0147	0.0058	-0.0097	10.6946	27.0081	-6.4031	-0.4842	0.3432	0.5040	-0.6276
5.37	0.5455	-9.6261	2.7185	0.0151	0.0046	-0.0092	10.9846	27.0680	-6.5481	-0.4842	0.3431	0.5039	-0.6276
5.38	0.5594	-9.6091	2.7341	0.0178	0.0055	-0.0053	10.8238	27.3251	-6.6289	-0.4842	0.3431	0.5039	-0.6277
5.39	0.5619	-9.5968	2.7297	0.0137	0.0134	-0.0046	10.6357	27.1827	-6.4662	-0.4841	0.3431	0.5038	-0.6277
5.4	0.5495	-9.5769	2.7289	0.0131	0.0176	-0.0024	10.8806	27.0932	-6.7174	-0.4841	0.3431	0.5037	-0.6277
5.41	0.5249	-9.5778	2.7327	0.0122	0.0274	-0.0017	10.7129	27.0567	-6.7182	-0.4842	0.3432	0.5037	-0.6279
5.42	0.5020	-9.5784	2.7338	0.0151	0.0248	0.0087	11.0447	27.1263	-6.7098	-0.4841	0.3432	0.5036	-0.6279
5.43	0.4755	-9.5968	2.7358	0.0131	0.0334	0.0046	10.7326	27.2161	-6.7193	-0.4841	0.3434	0.5035	-0.6280
5.44	0.4459	-9.5949	2.7371	0.0114	0.0357	-0.0006	10.8459	27.3902	-6.7234	-0.4841	0.3434	0.5033	-0.6279
5.45	0.4273	-9.5960	2.7387	0.0080	0.0300	-0.0067	10.9412	27.1519	-6.4832	-0.4842	0.3435	0.5033	-0.6280
5.46	0.4142	-9.6098	2.7359	0.0004	0.0314	-0.0094	10.9261	27.1241	-6.5849	-0.4842	0.3436	0.5032	-0.6280
5.47	0.4108	-9.6194	2.7316	0.0103	0.0193	-0.0090	10.9111	27.1072	-6.6550	-0.4842	0.3436	0.5031	-0.6280
5.48	0.4144	-9.6198	2.7254	0.0117	0.0171	-0.0094	10.9509	27.1610	-6.4840	-0.4842	0.3436	0.5031	-0.6280
5.49	0.4336	-9.6235	2.7278	0.0145	0.0184	-0.0091	10.9988	27.2996	-6.5981	-0.4842	0.3436	0.5030	-0.6280
5.5	0.4453	-9.6286	2.7329	0.0132	0.0090	-0.0085	10.8963	27.2265	-6.5685	-0.4842	0.3436	0.5030	-0.6281
5.51	0.4459	-9.6237	2.7322	0.0146	0.0074	-0.0087	11.0110	27.2790	-6.5028	-0.4841	0.3436	0.5029	-0.6281
5.52	0.4378	-9.6182	2.7288	0.0130	0.0152	-0.0086	10.9382	27.2172	-6.6567	-0.4842	0.3436	0.5029	-0.6282
5.53	0.4354	-9.6032	2.7242	0.0136	0.0140	-0.0088	11.0159	27.0162	-6.7534	-0.4842	0.3436	0.5028	-0.6282
5.54	0.4426	-9.6037	2.7362	0.0120	0.0057	-0.0088	11.1161	27.1928	-6.5606	-0.4842	0.3436	0.5028	-0.6283
5.55	0.4599	-9.6243	2.7353	0.0225	0.0065	-0.0083	11.5135	27.0705	-6.4083	-0.4841	0.3435	0.5027	-0.6284
5.56	0.4803	-9.6127	2.7377	0.0269	0.0072	-0.0092	11.6490	26.9550	-6.4253	-0.4841	0.3435	0.5026	-0.6285
5.57	0.4851	-9.6064	2.7489	0.0336	0.0151	-0.0086	11.2668	26.9132	-6.5830	-0.4842	0.3434	0.5025	-0.6286
5.58	0.4829	-9.6107	2.7512	0.0374	0.0223	-0.0087	10.9618	27.4448	-6.4532	-0.4842	0.3433	0.5023	-0.6286
5.59	0.4759	-9.5591	2.7520	0.0303	0.0188	-0.0085	10.9370	27.2138	-6.4471	-0.4843	0.3434	0.5023	-0.6288
5.6	0.4665	-9.5317	2.7550	0.0414	0.0208	-0.0101	10.9813	26.8892	-6.7505	-0.4843	0.3433	0.5021	-0.6288
5.61	0.4705	-9.5286	2.7611	0.0280	0.0264	-0.0112	11.0618	27.0816	-6.6549	-0.4844	0.3433	0.5020	-0.6290
5.62	0.4719	-9.5242	2.7786	0.0242	0.0306	-0.0092	10.9251	27.1437	-6.5302	-0.4844	0.3433	0.5018	-0.6289
5.63	0.4660	-9.5714	2.7926	0.0147	0.0311	-0.0076	11.1829	27.2955	-6.5576	-0.4845	0.3433	0.5018	-0.6290
5.64	0.4646	-9.5976	2.8027	0.0148	0.0270	-0.0091	11.0556	27.3532	-6.7149	-0.4846	0.3434	0.5017	-0.6290
5.65	0.4666	-9.5981	2.8033	0.0151	0.0260	-0.0106	10.9534	27.2573	-6.4401	-0.4846	0.3434	0.5016	-0.6290
5.66	0.4487	-9.5855	2.8064	0.0145	0.0403	-0.0081	10.8223	27.1357	-6.4728	-0.4847	0.3435	0.5015	-0.6291
5.67	0.4131	-9.5517	2.8005	0.0136	0.0381	-0.0065	11.0290	27.1807	-6.5602	-0.4847	0.3436	0.5013	-0.6290
5.68	0.3582	-9.5387	2.7800	0.0165	0.0377	-0.0032	10.9699	27.0834	-6.7792	-0.4848	0.3437	0.5012	-0.6291
5.69	0.3122	-9.5164	2.7670	0.0008	0.0268	-0.0024	10.9219	27.0601	-6.4942	-0.4847	0.3437	0.5011	-0.6290
5.7	0.2780	-9.5299	2.7511	-0.0106	0.0189	-0.0027	10.9491	27.0753	-6.5063	-0.4847	0.3438	0.5012	-0.6291
5.71	0.2711	-9.5491	2.7361	-0.0092	0.0097	-0.0091	11.1035	26.8964	-6.6225	-0.4847	0.3438	0.5012	-0.6290
5.72	0.3029	-9.5543	2.7447	-0.0117	-0.0034	-0.0083	11.1084	26.8971	-6.4929	-0.4846	0.3438	0.5012	-0.6290
5.73	0.3500	-9.5633	2.7400	-0.0136	-0.0167	-0.0183	11.2238	26.8746	-6.6440	-0.4845	0.3438	0.5014	-0.6291
5.74	0.4060	-9.5607	2.7444	-0.0137	-0.0212	-0.0189	11.1835	26.9443	-6.5212	-0.4844	0.3437	0.5015	-0.6291
5.75	0.4516	-9.5665	2.7371	-0.0132	-0.0202	-0.0169	11.0489	26.9672	-6.7067	-0.4843	0.3437	0.5016	-0.6291
5.76	0.4806	-9.5687	2.7248	-0.0175	-0.0199	-0.0242	10.9411	26.7461	-6.4847	-0.4841	0.3435	0.5017	-0.6290
5.77	0.4932	-9.5790	2.7199	-0.0181	-0.0123	-0.0184	10.8236	27.0867	-6.7092	-0.4841	0.3435	0.5019	-0.6291
5.78	0.5003	-9.6049	2.7143	-0.0226	-0.0046	-0.0163	11.0588	26.9802	-6.6801	-0.4840	0.3435	0.5020	-0.6290
5.79	0.5001	-9.6359	2.7113	-0.0221	-0.0069	-0.0162	11.1767	27.1050	-6.6118	-0.4839	0.3435	0.5021	-0.6290
5.8	0.5062	-9.6712	2.7108	-0.0218	0.0047	-0.0104	10.8951	27.3647	-6.6549	-0.4838	0.3436	0.5022	-0.6290
5.81	0.5132	-9.7033	2.7097	-0.0155	-0.0000	-0.0092	10.9941	27.3356	-6.4913	-0.4838	0.3436	0.5023	-0.6290
5.82	0.5176	-9.7069	2.7068	-0.0124	-0.0021	-0.0104	11.0367	27.2848	-6.4316	-0.4837	0.3436	0.5024	-0.6290
5.83	0.5085	-9.6674	2.6834	-0.0061	0.0017	-0.0097	11.0393	27.2097	-6.5427	-0.4836	0.3436	0.5024	-0.6289
5.84	0.4893	-9.6212	2.6673	-0.0035	0.0117	-0.0086	10.8977	27.3757	-6.5565	-0.4836	0.3436	0.5024	-0.6290
5.85	0.4632	-9.6348	2.6637	-0.0100	0.0102	-0.0098	11.0339	27.4331	-6.5469	-0.4835	0.3437	0.5024	-0.6290
5.86	0.4658	-9.6526	2.6640	0.0046	0.0081	-0.0093	11.1684	27.1530	-6.5431	-0.4835	0.3437	0.5025	-0.6291
5.87	0.4817	-9.6340	2.6722	0.0139	0.0114	-0.0092	11.0017	27.2435	-6.5453	-0.4835	0.3436	0.5024	-0.6290
5.88	0.4987	-9.6105	2.6773	0.0141	0.0082	-0.0094	11.0589	27.3660	-6.4189	-0.4835	0.3436	0.5024	-0.6291
5.89	0.5092	-9.5930	2.7007	0.0131	0.0134	-0.0077	11.1759	26.9265	-6.4964	-0.4835	0.3436	0.5023	-0.6292
5.9	0.4921	-9.5954	2.7126	0.0150	0.0180	-0.0011	10.9358	26.8743	-6.6182	-0.4835	0.3436	0.5022	-0.6292
5.91	0.4551	-9.6002	2.7140	0.0143	0.0247	-0.0029	10.8406	26.9994	-6.7501	-0.4835	0.3437	0.5022	-0.6293
5.92	0.4182	-9.5900	2.7114	0.0138	0.0307	0.0015	11.2729	26.7060	-6.8407	-0.4835	0.3437	0.5020	-0.6293
5.93	0.3909	-9.5719	2.7064	0.0135	0.0281	-0.0036	11.0581	26.9814	-6.7446	-0.4836	0.3438	0.5020	-0.6294
5.94	0.3776	-9.5735	2.6985	0.0050	0.0290	-0.0049	10.9981	26.9686	-6.7029	-0.4835	0.3438	0.5018	-0.6293
5.95	0.3764	-9.5781	2.6981	-0.0042	0.0310	-0.0051	11.1801	26.9981	-6.7545	-0.4836	0.3440	0.5018	-0.6293
5.96	0.3814	-9.6091	2.7000	-0.0009	0.0234	-0.0091	11.1855	26.7595	-6.4655	-0.4835	0.3440	0.5018	-0.6293
5.97	0.3825	-9.6159	2.6939	-0.0085	0.0235	-0.0092	10.9969	27.0431	-6.5117	-0.4835	0.3441	0.5018	-0.6293
5.98	0.3705	-9.6087	2.6878	-0.0125	0.0180	-0.0093	11.1483	27.1700	-6.6592	-0.4835	0.3442	0.5018	-0.6293
5.99	0.3584	-9.6138	2.6691	-0.0108	0.0220	-0.0098	11.0802	27.1900	-6.3537	-0.4835	0.3442	0.5018	-0.6292
6	0.3457	-9.6180	2.6597	-0.0135	0.0197	-0.0078	11.0079	27.4507	-6.6060	-0.4835	0.3443	0.5018	-0.6292
6.01	0.3570	-9.6042	2.6541	-0.0053	0.0112	-0.0105	11.0616	27.4078	-6.7561	-0.4834	0.3443	0.5018	-0.6291
6.02	0.3751	-9.5860	2.6499	-0.0092	0.0145	-0.0142	10.8882	27.2090	-6.4815	-0.4834	0.3444	0.5019	-0.6292
6.03	0.3880	-9.5986	2.6485	-0.0136	0.0110	-0.0101	10.8613	27.2878	-6.4499	-0.4834	0.3444	0.5019	-0.6291
6.04	0.4081	-9.6166	2.6472	-0.0123	0.0080	-0.0124	11.0840	27.4108	-6.4102	-0.4833	0.3444	0.5020	-0.6291
6.05	0.4236	-9.6155	2.6501	-0.0121	0.0090	-0.0120	11.3381	27.6121	-6.2257	-0.4833	0.3445	0.5020	-0.6291
6.06	0.4250	-9.6308	2.6606	-0.0140	0.0090	-0.0101	11.6050	27.7068	-6.2050	-0.4832	0.3445	0.5021	-0.6291
6.07	0.4150	-9.6548	2.6583	-0.0122	0.0111	-0.0079	11.2896	27.2801	-6.6002	-0.4832	0.3446	0.5021	-0.6291
6.08	0.3955	-9.6705	2.6592	-0.0111	0.0062	-0.0020	11.0303	27.4712	-6.7051	-0.4831	0.3446	0.5021	-0.6290
6.09	0.3762	-9.6849	2.6537	-0.0136	0.0111	-0.0009	11.0519	27.3274	-6.6609	-0.4830	0.3447	0.5022	-0.6291
6.1	0.3658	-9.6788	2.6412	-0.0122	0.0076	-0.0071	11.1147	27.0440	-6.4310	-0.4830	0.3447	0.5022	-0.6291
6.11	0.3614	-9.6675	2.6337	-0.0108	0.0062	-0.0029	11.1205	27.0421	-6.6183	-0.4829	0.3448	0.5023	-0.6291
6.12	0.3565	-9.6554	2.6239	-0.0139	0.0008	-0.0091	10.9881	27.0014	-6.4808	-0.4828	0.3447	0.5023	-0.6290
6.13	0.3600	-9.6299	2.6289	-0.0108	-0.0001	-0.0100	11.1850	27.2037	-6.5279	-0.4827	0.3448	0.5024	-0.6291
6.14	0.3899	-9.6768	2.6154	-0.0139	-0.0004	-0.0105	11.1296	27.0409	-6.6579	-0.4827	0.3448	0.5024	-0.6291
6.15	0.4094	-9.6721	2.6143	-0.0082	0.0028	-0.0093	11.1739	27.1566	-6.7298	-0.4826	0.3448	0.5024	-0.6290
6.16	0.4331	-9.6519	2.6098	0.0080	-0.0043	-0.0116	11.2126	27.3344	-6.4286	-0.4826	0.3448	0.5025	-0.6292
6.17	0.4442	-9.6473	2.6093	0.0049	-0.0049	-0.0093	11.1902	27.0016	-6.3133	-0.4825	0.3447	0.5025	-0.6292
6.18	0.4449	-9.6524	2.6162	0.0113	0.0097	-0.0095	10.9755	27.2096	-6.5083	-0.4825	0.3447	0.5025	-0.6293
6.19	0.4270	-9.6536	2.6255	0.0145	0.0116	-0.0085	11.2413	27.2887	-6.5193	-0.4824	0.3446	0.5024	-0.6292
6.2	0.4011	-9.6589	2.6358	0.0151	0.0159	-0.0080	11.0117	27.0765	-6.4612	-0.4825	0.3446	0.5024	-0.6293
6.21	0.3793	-9.6469	2.6434	0.0141	0.0204	-0.0081	11.1415	27.1829	-6.4334	-0.4825	0.3446	0.5023	-0.6294
6.22	0.3627	-9.6332	2.6423	0.0191	0.0176	-0.0081	11.1457	27.0454	-6.6014	-0.4825	0.3446	0.5022	-0.6294
6.23	0.3530	-9.6335	2.6499	0.0193	0.0186	-0.0084	11.0173	27.2158	-6.6109	-0.4826	0.3446	0.5022	-0.6295
6.24	0.3596	-9.6226	2.6506	0.0150	0.0076	-0.0140	11.0930	27.0416	-6.5395	-0.4826	0.3446	0.5021	-0.6295
6.25	0.3734	-9.6101	2.6490	0.0146	0.0027	-0.0173	11.0333	27.1650	-6.5362	-0.4826	0.3445	0.5021	-0.6296
6.26	0.3913	-9.6239	2.6534	0.0146	0.0011	-0.0157	11.2179	27.2035	-6.7176	-0.4825	0.3444	0.5020	-0.6296
6.27	0.4107	-9.6468	2.6527	0.0146	-0.0020	-0.0158	11.2032	27.1351	-6.5628	-0.4826	0.3444	0.5021	-0.6297
6.28	0.4133	-9.6717	2.6590	0.0137	0.0005	-0.0133	11.3004	26.9654	-6.7574	-0.4825	0.3443	0.5021	-0.6297
6.29	0.4058	-9.6647	2.6604	0.0242	-0.0000	-0.0162	11.0135	27.0340	-6.5077	-0.4826	0.3442	0.5021	-0.6298
6.3	0.3923	-9.6320	2.6598	0.0209	-0.0035	-0.0205	11.0075	26.8182	-6.4015	-0.4825	0.3441	0.5020	-0.6298
6.31	0.3975	-9.6150	2.6603	0.0321	-0.0129	-0.0127	11.1638	26.8019	-6.3890	-0.4825	0.3439	0.5020	-0.6300
6.32	0.4032	-9.5935	2.6732	0.0317	-0.0192	-0.0115	11.1852	26.9276	-6.6647	-0.4825	0.3438	0.5020	-0.6301
6.33	0.4172	-9.6096	2.6949	0.0283	-0.0223	-0.0087	10.9097	27.1810	-6.6221	-0.4824	0.3436	0.5019	-0.6302
6.34	0.4318	-9.6303	2.7159	0.0243	-0.0224	-0.0101	10.9282	27.2149	-6.3625	-0.4824	0.3435	0.5020	-0.6304
6.35	0.4534	-9.6269	2.7331	0.0235	-0.0247	-0.0084	10.9356	27.0783	-6.7659	-0.4823	0.3433	0.5020	-0.6305
6.36	0.4666	-9.6309	2.7438	0.0204	-0.0223	-0.0100	11.1380	27.0086	-6.7294	-0.4823	0.3432	0.5020	-0.6307
6.37	0.4864	-9.6251	2.7456	0.0297	-0.0163	-0.0092	10.9887	27.3268	-6.5563	-0.4822	0.3430	0.5019	-0.6307
6.38	0.4875	-9.6089	2.7504	0.0258	-0.0213	-0.0068	11.0638	26.9794	-6.6499	-0.4821	0.3429	0.5020	-0.6309
6.39	0.4731	-9.5792	2.7336	0.0205	-0.0103	-0.0004	11.0858	26.8869	-6.6513	-0.4821	0.3428	0.5019	-0.6310
6.4	0.4471	-9.5375	2.7236	0.0238	-0.0029	0.0012	10.9077	26.9866	-6.5381	-0.4820	0.3427	0.5018	-0.6311
6.41	0.4150	-9.5151	2.7071	0.0214	0.0021	0.0028	10.9378	27.1188	-6.8438	-0.4820	0.3427	0.5018	-0.6313
6.42	0.3856	-9.5113	2.7164	0.0141	0.0037	-0.0035	11.0783	27.1959	-6.8658	-0.4819	0.3426	0.5018	-0.6313
6.43	0.3661	-9.5174	2.7209	0.0150	0.0046	-0.0054	11.1181	27.1664	-6.6441	-0.4819	0.3426	0.5018	-0.6314
6.44	0.3666	-9.5408	2.7374	0.0133	-0.0015	-0.0095	11.1078	27.1945	-6.4554	-0.4818	0.3425	0.5017	-0.6314
6.45	0.3752	-9.5720	2.7528	0.0148	-0.0033	-0.0089	10.9787	27.0448	-6.5567	-0.4818	0.3425	0.5017	-0.6316
6.46	0.3965	-9.5817	2.7588	0.0131	-0.0121	-0.0123	11.0791	26.9962	-6.7253	-0.4818	0.3424	0.5017	-0.6316
6.47	0.4145	-9.5759	2.7642	0.0161	-0.0108	-0.0161	11.1117	26.9987	-6.6619	-0.4817	0.3422	0.5017	-0.6317
6.48	0.4304	-9.5789	2.7630	0.0061	-0.0159	-0.0162	11.1132	27.1037	-6.7010	-0.4817	0.3422	0.5018	-0.6318
6.49	0.4475	-9.5745	2.7596	-0.0034	-0.0158	-0.0218	11.0837	27.0646	-6.6726	-0.4816	0.3420	0.5019	-0.6318
6.5	0.4645	-9.5842	2.7560	-0.0034	-0.0059	-0.0205	10.9663	26.9632	-6.6984	-0.4816	0.3420	0.5020	-0.6318
6.51	0.4736	-9.5911	2.7563	-0.0056	0.0036	-0.0195	11.1379	27.0430	-6.6579	-0.4815	0.3419	0.5020	-0.6317
6.52	0.4753	-9.6043	2.7514	-0.0091	-0.0082	-0.0126	11.0778	26.9460	-6.8334	-0.4815	0.3419	0.5021	-0.6318
6.53	0.4694	-9.6050	2.7456	-0.0114	-0.0005	-0.0098	11.0083	26.8142	-6.6629	-0.4814	0.3419	0.5022	-0.6318
6.54	0.4583	-9.5917	2.7356	-0.0110	0.0047	-0.0101	11.3291	27.0461	-6.5543	-0.4814	0.3419	0.5022	-0.6318
6.55	0.4336	-9.5790	2.7327	-0.0115	0.0010	-0.0100	11.6052	26.8862	-6.6028	-0.4813	0.3419	0.5023	-0.6318
6.56	0.4149	-9.6131	2.7360	-0.0120	-0.0005	-0.0093	11.8214	27.0447	-6.5510	-0.4812	0.3419	0.5023	-0.6318
6.57	0.4154	-9.6210	2.7396	-0.0078	-0.0065	-0.0090	11.2716	26.9995	-6.6686	-0.4812	0.3419	0.5024	-0.6318
6.58	0.4156	-9.6077	2.7431	0.0010	-0.0060	-0.0090	11.1815	27.4649	-6.7757	-0.4811	0.3418	0.5024	-0.6318
6.59	0.4368	-9.5915	2.7524	0.0037	-0.0063	-0.0094	10.8914	27.1486	-6.6168	-0.4811	0.3418	0.5025	-0.6319
6.6	0.4609	-9.5837	2.7580	0.0125	0.0004	-0.0097	11.0211	26.9895	-6.7118	-0.4810	0.3418	0.5025	-0.6319
6.61	0.4704	-9.5870	2.7629	0.0034	0.0005	-0.0090	10.9812	27.2312	-6.7733	-0.4810	0.3417	0.5025	-0.6320
6.62	0.4707	-9.5841	2.7550	0.0023	0.0064	-0.0103	10.9204	26.9200	-6.7303	-0.4809	0.3417	0.5025	-0.6320
6.63	0.4657	-9.6005	2.7526	0.0015	0.0013	-0.0064	11.0870	27.0998	-6.8911	-0.4809	0.3417	0.5025	-0.6321
6.64	0.4559	-9.6020	2.7556	-0.0046	0.0030	0.0023	10.9757	27.0228	-6.9597	-0.4808	0.3417	0.5025	-0.6321
6.65	0.4460	-9.6054	2.7501	-0.0085	0.0072	-0.0090	11.2142	26.7914	-6.8449	-0.4807	0.3417	0.5025	-0.6321
6.66	0.4356	-9.6081	2.7429	-0.0027	0.0044	-0.0096	11.3053	26.7177	-6.7195	-0.4807	0.3418	0.5026	-0.6322
6.67	0.4232	-9.5864	2.7430	0.0039	0.0121	-0.0094	11.1852	26.7971	-6.7577	-0.4807	0.3417	0.5026	-0.6321
6.68	0.4051	-9.5758	2.7445	-0.0026	0.0083	-0.0075	11.2281	26.8542	-6.9440	-0.4807	0.3418	0.5026	-0.6322
6.69	0.3938	-9.5736	2.7386	0.0094	0.0060	-0.0067	11.2092	26.8982	-6.8269	-0.4806	0.3417	0.5025	-0.6321
6.7	0.3790	-9.5716	2.7340	-0.0099	0.0166	-0.0091	11.2067	26.6531	-6.8535	-0.4806	0.3418	0.5026	-0.6322
6.71	0.3686	-9.5588	2.7227	-0.0095	0.0111	-0.0065	11.0568	26.9104	-6.7816	-0.4805	0.3418	0.5026	-0.6322
6.72	0.3658	-9.5713	2.7186	-0.0115	0.0102	-0.0092	11.0134	26.7840	-6.7317	-0.4805	0.3418	0.5026	-0.6321
6.73	0.3791	-9.5894	2.7117	-0.0211	0.0124	-0.0096	11.0634	26.8771	-6.7452	-0.4805	0.3419	0.5027	-0.6321
6.74	0.3983	-9.6214	2.7071	-0.0359	0.0035	-0.0119	10.9727	27.0303	-6.8975	-0.4804	0.3420	0.5028	-0.6320
6.75	0.4122	-9.6516	2.6929	-0.0323	0.0116	-0.0116	10.9883	27.0667	-6.4990	-0.4803	0.3420	0.5030	-0.6320
6.76	0.4178	-9.6639	2.6807	-0.0277	0.0113	-0.0146	11.1528	27.0423	-6.5322	-0.4802	0.3421	0.5030	-0.6318
6.77	0.4278	-9.6711	2.6709	-0.0225	0.0093	-0.0121	10.9071	27.2728	-6.9300	-0.4802	0.3422	0.5032	-0.6318
6.78	0.4321	-9.6700	2.6623	-0.0104	0.0103	-0.0094	10.9716	26.8778	-6.7687	-0.4801	0.3422	0.5032	-0.6318
6.79	0.4351	-9.6659	2.6596	-0.0094	0.0176	-0.0096	11.1604	26.9531	-6.6849	-0.4801	0.3422	0.5032	-0.6318
6.8	0.4304	-9.6530	2.6567	-0.0026	0.0166	-0.0096	10.9930	26.9745	-6.5288	-0.4801	0.3423	0.5032	-0.6318
6.81	0.4354	-9.6406	2.6534	0.0079	0.0153	-0.0086	10.8564	26.9787	-6.5986	-0.4801	0.3423	0.5032	-0.6318
6.82	0.4399	-9.6266	2.6591	0.0142	0.0083	-0.0046	10.9954	26.7357	-6.5050	-0.4801	0.3423	0.5031	-0.6319
6.83	0.4466	-9.6155	2.6645	0.0083	0.0153	-0.0099	11.2210	26.6966	-6.7630	-0.4800	0.3422	0.5031	-0.6318
6.84	0.4513	-9.6266	2.6686	0.0080	0.0181	-0.0080	11.2842	26.7917	-6.7059	-0.4801	0.3423	0.5031	-0.6319
6.85	0.4503	-9.6250	2.6758	0.0144	0.0208	-0.0096	11.3948	26.8361	-6.6893	-0.4801	0.3423	0.5030	-0.6319
6.86	0.4503	-9.6274	2.6811	0.0148	0.0199	-0.0074	11.4751	26.8959	-6.7160	-0.4802	0.3423	0.5030	-0.6320
6.87	0.4458	-9.6315	2.6857	0.0112	0.0182	-0.0085	11.1717	26.8923	-6.5187	-0.4801	0.3423	0.5028	-0.6320
6.88	0.4370	-9.6338	2.6862	0.0103	0.0229	-0.0091	11.3499	26.9623	-6.7123	-0.4802	0.3423	0.5028	-0.6320
6.89	0.4274	-9.6300	2.6936	0.0149	0.0254	-0.0021	11.2777	27.0457	-6.5945	-0.4802	0.3423	0.5027	-0.6321
6.9	0.4156	-9.6129	2.6975	0.0136	0.0227	0.0011	11.3384	26.9790	-6.8314	-0.4802	0.3424	0.5026	-0.6321
6.91	0.4116	-9.6017	2.6970	0.0135	0.0274	-0.0010	11.0779	26.8818	-6.9563	-0.4802	0.3424	0.5026	-0.6322
6.92	0.4045	-9.5841	2.7039	0.0162	0.0298	0.0004	11.1762	26.9746	-6.7534	-0.4802	0.3425	0.5024	-0.6322
6.93	0.3952	-9.5730	2.7022	0.0158	0.0295	-0.0100	11.2135	27.0391	-6.3080	-0.4803	0.3425	0.5024	-0.6322
6.94	0.3821	-9.5597	2.6987	0.0069	0.0328	-0.0070	10.8853	27.0546	-6.7017	-0.4803	0.3425	0.5022	-0.6321
6.95	0.3684	-9.5496	2.6941	-0.0044	0.0234	-0.0057	11.0190	27.0755	-6.8473	-0.4803	0.3426	0.5023	-0.6322
6.96	0.3550	-9.5489	2.6853	-0.0058	0.0234	-0.0087	11.1457	27.1448	-6.5531	-0.4803	0.3427	0.5022	-0.6322
6.97	0.3466	-9.5615	2.6799	-0.0092	0.0245	-0.0098	11.1895	26.9421	-6.5672	-0.4803	0.3427	0.5022	-0.6321
6.98	0.3449	-9.5776	2.6775	-0.0138	0.0184	-0.0086	11.2366	26.9908	-6.5765	-0.4803	0.3428	0.5023	-0.6321
6.99	0.3517	-9.5913	2.6642	-0.0182	0.0135	-0.0085	10.9349	26.9496	-6.6529	-0.4802	0.3429	0.5023	-0.6320
7	0.3676	-9.5909	2.6607	-0.0133	0.0050	-0.0100	11.1990	27.0240	-6.4979	-0.4802	0.3429	0.5024	-0.6321
7.01	0.3841	-9.6258	2.6673	-0.0131	0.0052	-0.0095	11.2930	27.1703	-6.7697	-0.4801	0.3429	0.5024	-0.6320
7.02	0.3960	-9.6689	2.6734	-0.0134	0.0047	-0.0101	11.3531	26.9067	-6.7438	-0.4801	0.3430	0.5025	-0.6320
7.03	0.3954	-9.6817	2.6789	-0.0052	0.0096	-0.0093	11.3397	26.7338	-6.7258	-0.4800	0.3430	0.5025	-0.6320
7.04	0.3820	-9.6488	2.6666	0.0021	0.0111	-0.0084	11.3847	26.9016	-6.4860	-0.4800	0.3430	0.5025	-0.6320
7.05	0.3788	-9.6113	2.6582	-0.0007	0.0039	-0.0089	11.8360	26.9414	-6.3460	-0.4800	0.3429	0.5025	-0.6320
7.06	0.3855	-9.5922	2.6619	-0.0084	0.0021	-0.0090	11.8844	27.0289	-6.3808	-0.4799	0.3429	0.5026	-0.6320
7.07	0.3964	-9.6088	2.6643	-0.0012	0.0035	-0.0088	11.2547	27.3279	-6.6136	-0.4799	0.3429	0.5026	-0.6321
7.08	0.4097	-9.6431	2.6720	-0.0036	0.0041	-0.0086	11.3649	27.4259	-6.5124	-0.4798	0.3429	0.5026	-0.6320
7.09	0.4254	-9.6613	2.6742	-0.0120	0.0029	-0.0089	11.0643	27.3370	-6.4670	-0.4798	0.3430	0.5027	-0.6321
7.1	0.4405	-9.6695	2.6746	-0.0116	0.0041	-0.0099	11.0640	27.1166	-6.7141	-0.4797	0.3429	0.5028	-0.6320
7.11	0.4502	-9.6741	2.6726	-0.0117	0.0130	-0.0094	11.3652	27.1813	-6.5296	-0.4797	0.3430	0.5028	-0.6321
7.12	0.4574	-9.6870	2.6684	-0.0120	0.0197	-0.0099	11.1566	27.1694	-6.3893	-0.4796	0.3430	0.5028	-0.6320
7.13	0.4514	-9.6865	2.6573	-0.0114	0.0168	-0.0087	11.1607	27.1256	-6.6367	-0.4796	0.3431	0.5029	-0.6320
7.14	0.4247	-9.6568	2.6440	-0.0001	0.0227	-0.0060	11.3591	26.9107	-6.3683	-0.4796	0.3432	0.5028	-0.6320
7.15	0.3903	-9.6299	2.6287	0.0028	0.0310	-0.0007	11.1994	27.1669	-6.4732	-0.4796	0.3432	0.5027	-0.6319
7.16	0.3547	-9.6084	2.6232	0.0030	0.0316	-0.0013	11.1106	27.1786	-6.7259	-0.4797	0.3433	0.5027	-0.6320
7.17	0.3346	-9.5879	2.6261	0.0147	0.0285	0.0011	11.1371	27.1252	-6.6303	-0.4796	0.3434	0.5026	-0.6320
7.18	0.3301	-9.5931	2.6325	0.0111	0.0309	-0.0092	11.2916	27.2579	-6.5647	-0.4797	0.3434	0.5025	-0.6320
7.19	0.3290	-9.6032	2.6444	0.0103	0.0264	-0.0093	11.3809	27.1634	-6.6053	-0.4797	0.3434	0.5024	-0.6320
7.2	0.3400	-9.6205	2.6626	0.0063	0.0177	-0.0072	11.2920	26.9612	-6.4441	-0.4797	0.3435	0.5024	-0.6320
7.21	0.3453	-9.6527	2.6693	0.0094	0.0226	-0.0091	11.2789	26.9865	-6.5668	-0.4798	0.3435	0.5024	-0.6320
7.22	0.3447	-9.6772	2.6789	0.0101	0.0191	-0.0094	11.3893	27.0595	-6.5841	-0.4798	0.3435	0.5023	-0.6321
7.23	0.3485	-9.6877	2.6819	0.0140	0.0203	-0.0083	11.3823	27.0908	-6.5940	-0.4798	0.3435	0.5023	-0.6321
7.24	0.3503	-9.6849	2.6817	0.0144	0.0133	-0.0115	11.2760	26.9427	-6.6784	-0.4798	0.3435	0.5022	-0.6321
7.25	0.3598	-9.6715	2.6886	0.0153	0.0139	-0.0130	11.2740	27.0572	-6.5075	-0.4799	0.3435	0.5022	-0.6322
7.26	0.3683	-9.6476	2.6946	0.0220	0.0168	-0.0132	11.0662	27.1636	-6.8242	-0.4798	0.3434	0.5021	-0.6322
7.27	0.3787	-9.6182	2.7043	0.0222	0.0123	-0.0071	11.3925	27.0641	-6.6024	-0.4799	0.3434	0.5020	-0.6323
7.28	0.3795	-9.5932	2.7056	0.0192	0.0056	-0.0057	11.1598	27.0838	-6.4646	-0.4799	0.3433	0.5020	-0.6323
7.29	0.3708	-9.5583	2.7080	0.0166	0.0030	-0.0070	11.1563	27.0700	-6.4976	-0.4799	0.3433	0.5019	-0.6324
7.3	0.3534	-9.5741	2.7161	0.0140	0.0121	-0.0024	11.3294	27.0826	-6.5948	-0.4798	0.3432	0.5019	-0.6325
7.31	0.3520	-9.6145	2.7210	0.0142	0.0070	0.0013	11.1575	27.0694	-6.5659	-0.4798	0.3432	0.5018	-0.6326
7.32	0.3619	-9.6200	2.7370	0.0143	0.0097	-0.0067	11.4623	26.8942	-6.4164	-0.4798	0.3432	0.5018	-0.6326
7.33	0.3756	-9.6019	2.7434	0.0144	0.0044	-0.0108	11.0979	26.9681	-6.2932	-0.4798	0.3431	0.5017	-0.6326
7.34	0.3983	-9.5759	2.7506	0.0147	0.0045	-0.0081	11.1394	27.1180	-6.5347	-0.4798	0.3431	0.5018	-0.6328
7.35	0.4105	-9.5661	2.7544	0.0142	0.0132	-0.0102	11.3688	27.0169	-6.4566	-0.4798	0.3431	0.5017	-0.6328
7.36	0.4108	-9.5590	2.7574	0.0151	0.0139	-0.0037	11.1947	26.7505	-6.5714	-0.4798	0.3431	0.5017	-0.6329
7.37	0.4005	-9.5462	2.7580	0.0137	0.0177	-0.0061	11.2116	27.0317	-6.5866	-0.4798	0.3431	0.5016	-0.6328
7.38	0.3851	-9.5379	2.7617	0.0165	0.0236	-0.0078	11.3237	27.1726	-6.5885	-0.4798	0.3431	0.5015	-0.6329
7.39	0.3682	-9.5320	2.7607	0.0058	0.0247	-0.0059	11.4465	26.8393	-6.5466	-0.4798	0.3431	0.5015	-0.6329
7.4	0.3558	-9.5313	2.7560	-0.0005	0.0316	-0.0035	11.4951	26.7778	-6.3528	-0.4798	0.3432	0.5014	-0.6328
7.41	0.3339	-9.5359	2.7591	-0.0026	0.0349	-0.0085	11.4518	27.0642	-6.5317	-0.4799	0.3433	0.5014	-0.6329
7.42	0.3169	-9.5346	2.7527	-0.0137	0.0399	-0.0090	11.3800	26.8770	-6.7305	-0.4799	0.3434	0.5013	-0.6328
7.43	0.3035	-9.5481	2.7402	-0.0204	0.0347	-0.0086	11.3751	26.8362	-6.8422	-0.4799	0.3436	0.5014	-0.6327
7.44	0.3011	-9.5657	2.7208	-0.0289	0.0278	-0.0113	11.4113	27.0083	-6.8732	-0.4799	0.3437	0.5014	-0.6326
7.45	0.2971	-9.6000	2.7175	-0.0348	0.0260	-0.0099	11.3233	26.9883	-6.7270	-0.4799	0.3438	0.5015	-0.6325
7.46	0.3001	-9.6271	2.7038	-0.0337	0.0286	-0.0094	11.3543	27.1310	-6.4681	-0.4798	0.3440	0.5015	-0.6324
7.47	0.3127	-9.6386	2.6898	-0.0318	0.0215	-0.0096	11.3288	26.9615	-6.5983	-0.4798	0.3441	0.5016	-0.6323
7.48	0.3191	-9.6462	2.6778	-0.0322	0.0211	-0.0081	11.1936	27.1052	-6.4675	-0.4797	0.3442	0.5017	-0.6322
7.49	0.3330	-9.6473	2.6693	-0.0291	0.0178	-0.0099	11.3245	27.0462	-6.4109	-0.4797	0.3443	0.5018	-0.6321
7.5	0.3405	-9.6526	2.6624	-0.0245	0.0228	-0.0092	11.3042	27.1600	-6.5484	-0.4797	0.3444	0.5019	-0.6321
7.51	0.3468	-9.6544	2.6601	-0.0216	0.0275	-0.0100	11.1957	27.0885	-6.3786	-0.4796	0.3445	0.5018	-0.6319
7.52	0.3408	-9.6544	2.6609	-0.0103	0.0316	-0.0076	11.2323	27.0690	-6.4199	-0.4797	0.3446	0.5019	-0.6320
7.53	0.3330	-9.6560	2.6607	-0.0136	0.0295	-0.0041	11.2990	27.0824	-6.2077	-0.4796	0.3447	0.5019	-0.6319
7.54	0.3277	-9.6547	2.6605	-0.0122	0.0331	-0.0027	11.3939	27.0733	-6.2900	-0.4796	0.3448	0.5019	-0.6319
7.55	0.3160	-9.6570	2.6675	-0.0106	0.0378	-0.0047	11.8041	27.0904	-6.3133	-0.4796	0.3449	0.5018	-0.6318
7.56	0.3073	-9.6645	2.6714	-0.0117	0.0244	-0.0085	12.0538	27.1648	-6.1537	-0.4796	0.3450	0.5018	-0.6317
7.57	0.3052	-9.6679	2.6719	-0.0017	0.0269	-0.0092	11.6363	27.0365	-6.4382	-0.4796	0.3451	0.5018	-0.6317
7.58	0.3016	-9.6587	2.6677	0.0049	0.0224	-0.0092	11.4841	27.4091	-6.4813	-0.4796	0.3451	0.5017	-0.6317
7.59	0.3113	-9.6364	2.6603	-0.0025	0.0249	-0.0094	11.6022	26.8950	-6.3459	-0.4797	0.3452	0.5018	-0.6317
7.6	0.3222	-9.6306	2.6638	0.0038	0.0268	-0.0091	11.6188	26.7740	-6.5363	-0.4797	0.3452	0.5017	-0.6317
7.61	0.3227	-9.6217	2.6713	0.0074	0.0293	-0.0082	11.4422	26.9959	-6.3374	-0.4798	0.3453	0.5017	-0.6317
7.62	0.3217	-9.6108	2.6736	-0.0027	0.0274	-0.0085	11.5446	26.7834	-6.5040	-0.4797	0.3453	0.5016	-0.6316
7.63	0.3186	-9.6091	2.6783	0.0048	0.0287	-0.0084	11.5581	26.9813	-6.5220	-0.4798	0.3454	0.5016	-0.6317
7.64	0.3154	-9.6047	2.6747	0.0065	0.0327	-0.0083	11.5125	27.0161	-6.6966	-0.4798	0.3454	0.5015	-0.6316
7.65	0.3092	-9.5993	2.6838	-0.0008	0.0259	-0.0083	11.3376	26.9339	-6.7027	-0.4798	0.3455	0.5014	-0.6316
7.66	0.2990	-9.5984	2.6813	-0.0028	0.0236	-0.0086	11.4890	26.7931	-6.4119	-0.4799	0.3456	0.5015	-0.6317
7.67	0.2897	-9.6072	2.6865	-0.0014	0.0263	-0.0083	11.4114	27.1486	-6.7759	-0.4798	0.3456	0.5014	-0.6316
7.68	0.2844	-9.6142	2.6764	-0.0088	0.0217	-0.0086	11.5939	27.1673	-6.4678	-0.4799	0.3457	0.5015	-0.6316
7.69	0.2831	-9.6123	2.6752	-0.0089	0.0281	-0.0084	11.6788	27.2908	-6.4795	-0.4798	0.3457	0.5014	-0.6315
7.7	0.2806	-9.6047	2.6729	-0.0132	0.0178	-0.0088	11.3688	27.2246	-6.4520	-0.4798	0.3458	0.5015	-0.6315
7.71	0.2906	-9.6111	2.6711	-0.0114	0.0206	-0.0086	11.4243	27.0434	-6.3483	-0.4798	0.3459	0.5015	-0.6314
7.72	0.2969	-9.6054	2.6705	-0.0090	0.0188	-0.0086	11.4789	27.1267	-6.4075	-0.4798	0.3459	0.5015	-0.6314
7.73	0.3048	-9.5969	2.6604	-0.0132	0.0160	-0.0088	11.3454	26.9670	-6.3394	-0.4797	0.3460	0.5015	-0.6314
7.74	0.3162	-9.5959	2.6577	-0.0108	0.0162	-0.0087	11.5195	27.1773	-6.5833	-0.4797	0.3460	0.5015	-0.6314
7.75	0.3134	-9.5975	2.6599	-0.0197	0.0190	-0.0099	11.5485	27.1358	-6.4457	-0.4797	0.3461	0.5016	-0.6313
7.76	0.3103	-9.6077	2.6543	-0.0223	0.0231	-0.0096	11.2106	26.9911	-6.2477	-0.4796	0.3461	0.5016	-0.6312
7.77	0.2913	-9.6053	2.6427	-0.0165	0.0187	-0.0097	11.5825	26.9009	-6.5275	-0.4796	0.3463	0.5017	-0.6312
7.78	0.2784	-9.6019	2.6351	-0.0222	0.0214	-0.0100	11.5547	26.7718	-6.5833	-0.4796	0.3463	0.5017	-0.6311
7.79	0.2855	-9.6292	2.6275	-0.0165	0.0231	-0.0135	11.4044	26.7096	-6.4653	-0.4796	0.3464	0.5018	-0.6311
7.8	0.2906	-9.6664	2.6333	-0.0175	0.0189	-0.0094	11.5565	26.9504	-6.4746	-0.4795	0.3465	0.5018	-0.6310
7.81	0.2956	-9.7002	2.6294	-0.0105	0.0191	-0.0090	11.5704	26.9029	-6.2967	-0.4795	0.3465	0.5018	-0.6310
7.82	0.2895	-9.6973	2.6271	-0.0152	0.0073	-0.0091	11.6512	26.9478	-6.3274	-0.4795	0.3466	0.5019	-0.6310
7.83	0.2780	-9.6744	2.6134	-0.0096	0.0070	-0.0086	11.6353	26.8211	-6.3861	-0.4794	0.3465	0.5019	-0.6309
7.84	0.2806	-9.6638	2.6080	-0.0082	0.0083	-0.0096	11.6099	26.8456	-6.3597	-0.4794	0.3466	0.5020	-0.6310
7.85	0.2927	-9.6609	2.6117	-0.0067	0.0069	-0.0091	11.5520	26.9395	-6.5287	-0.4793	0.3466	0.5020	-0.6309
7.86	0.3069	-9.6816	2.6284	0.0008	0.0068	-0.0082	11.4622	26.9006	-6.3634	-0.4794	0.3466	0.5021	-0.6310
7.87	0.3198	-9.6980	2.6406	0.0101	-0.0017	-0.0061	11.5652	27.0137	-6.3939	-0.4792	0.3465	0.5020	-0.6310
7.88	0.3377	-9.6994	2.6443	0.0130	0.0004	-0.0081	11.5042	27.1388	-6.3435	-0.4792	0.3465	0.5020	-0.6311
7.89	0.3508	-9.6672	2.6511	0.0133	0.0163	-0.0090	11.3123	27.1930	-6.4750	-0.4793	0.3465	0.5020	-0.6311
7.9	0.3466	-9.6537	2.6499	0.0165	0.0199	-0.0082	11.4072	27.1671	-6.3844	-0.4793	0.3464	0.5019	-0.6311
7.91	0.3335	-9.6597	2.6442	0.0115	0.0213	-0.0089	11.3362	27.1909	-6.2943	-0.4793	0.3465	0.5019	-0.6312
7.92	0.3141	-9.6473	2.6376	0.0144	0.0264	-0.0074	11.4331	27.0274	-6.3683	-0.4793	0.3465	0.5018	-0.6312
7.93	0.2888	-9.6290	2.6209	0.0045	0.0280	-0.0072	11.4282	27.0077	-6.2306	-0.4794	0.3466	0.5018	-0.6312
7.94	0.2690	-9.5999	2.6086	0.0126	0.0263	-0.0088	11.2312	27.0015	-6.3975	-0.4794	0.3465	0.5016	-0.6311
7.95	0.2573	-9.5935	2.6109	0.0082	0.0249	-0.0092	11.4466	26.9078	-6.3683	-0.4794	0.3466	0.5016	-0.6312
7.96	0.2576	-9.6045	2.6127	0.0075	0.0211	-0.0120	11.6001	26.7352	-6.1793	-0.4795	0.3466	0.5016	-0.6312
7.97	0.2697	-9.6121	2.6198	0.0139	0.0234	-0.0079	11.7326	26.8287	-6.2733	-0.4795	0.3466	0.5015	-0.6312
7.98	0.2826	-9.6127	2.6332	0.0140	0.0243	-0.0141	11.7013	26.9145	-6.2711	-0.4796	0.3466	0.5015	-0.6312
7.99	0.2883	-9.6215	2.6384	0.0141	0.0186	-0.0136	11.7908	26.8400	-6.3251	-0.4796	0.3466	0.5014	-0.6312
8	0.2896	-9.6276	2.6445	0.0144	0.0163	-0.0114	11.7384	26.9499	-6.5612	-0.4796	0.3466	0.5014	-0.6313
8.01	0.2795	-9.6233	2.6490	0.0088	0.0153	-0.0108	11.4646	26.8915	-6.2163	-0.4796	0.3465	0.5013	-0.6312
8.02	0.2759	-9.6336	2.6499	0.0016	0.0086	-0.0132	11.8407	27.0349	-6.4608	-0.4796	0.3466	0.5013	-0.6313
8.03	0.2784	-9.6405	2.6531	0.0073	0.0132	-0.0140	11.5425	26.9921	-6.3896	-0.4796	0.3465	0.5013	-0.6313
8.04	0.2933	-9.6598	2.6570	-0.0056	0.0015	-0.0108	11.7359	27.0136	-6.1678	-0.4796	0.3465	0.5014	-0.6313
8.05	0.3064	-9.6647	2.6523	0.0028	0.0059	-0.0108	12.0479	27.0079	-6.1861	-0.4796	0.3465	0.5014	-0.6313
8.06	0.3133	-9.6537	2.6446	-0.0090	0.0033	-0.0107	12.0615	26.9843	-6.1827	-0.4795	0.3465	0.5014	-0.6313
8.07	0.3185	-9.6372	2.6358	-0.0108	-0.0057	-0.0097	11.9067	26.9358	-6.3249	-0.4795	0.3465	0.5015	-0.6313
8.08	0.3209	-9.6680	2.6357	-0.0128	-0.0029	-0.0098	11.5905	27.4645	-6.2021	-0.4793	0.3464	0.5015	-0.6313
8.09	0.3332	-9.6926	2.6375	-0.0052	-0.0028	-0.0103	11.6059	27.2164	-6.3303	-0.4793	0.3465	0.5017	-0.6314
8.1	0.3535	-9.6857	2.6449	0.0142	-0.0052	-0.0074	11.3187	27.2042	-6.3151	-0.4793	0.3464	0.5016	-0.6314
8.11	0.3773	-9.6618	2.6495	0.0147	-0.0070	-0.0094	11.3827	26.9506	-6.3060	-0.4793	0.3463	0.5017	-0.6315
8.12	0.3999	-9.6181	2.6609	0.0310	0.0028	-0.0083	11.7073	26.8681	-6.3115	-0.4792	0.3462	0.5016	-0.6315
8.13	0.3967	-9.5969	2.6665	0.0185	0.0094	-0.0103	11.5939	27.0297	-6.3033	-0.4793	0.3461	0.5015	-0.6316
8.14	0.3679	-9.5961	2.6729	0.0129	0.0170	-0.0018	11.5375	27.1502	-6.3344	-0.4792	0.3461	0.5015	-0.6317
8.15	0.3400	-9.5977	2.6800	0.0169	0.0287	-0.0042	11.6263	27.0945	-6.2210	-0.4793	0.3462	0.5014	-0.6317
8.16	0.3094	-9.5988	2.6762	0.0131	0.0283	-0.0111	11.6804	26.9703	-6.2186	-0.4794	0.3462	0.5013	-0.6318
8.17	0.2885	-9.5986	2.6755	0.0152	0.0248	-0.0079	11.5832	27.1150	-6.5165	-0.4794	0.3462	0.5012	-0.6317
8.18	0.2862	-9.6085	2.6779	0.0128	0.0316	-0.0114	11.5769	26.7967	-6.4265	-0.4795	0.3463	0.5012	-0.6318
8.19	0.2915	-9.6227	2.6765	0.0083	0.0314	-0.0092	11.4374	26.8954	-6.3056	-0.4794	0.3463	0.5010	-0.6317
8.2	0.2980	-9.6221	2.6698	0.0073	0.0312	-0.0131	11.3004	27.0278	-6.3060	-0.4795	0.3463	0.5010	-0.6317
8.21	0.2999	-9.6287	2.6734	0.0105	0.0326	-0.0116	11.7069	27.1078	-6.3324	-0.4796	0.3464	0.5009	-0.6317
8.22	0.3005	-9.6265	2.6670	0.0107	0.0343	-0.0142	11.2610	26.9932	-6.2838	-0.4797	0.3464	0.5009	-0.6317
8.23	0.2903	-9.6310	2.6623	0.0014	0.0261	-0.0095	11.3963	26.8832	-6.3533	-0.4797	0.3465	0.5008	-0.6317
8.24	0.2758	-9.6362	2.6567	0.0125	0.0293	-0.0088	11.5176	27.1740	-6.3570	-0.4797	0.3465	0.5008	-0.6317
8.25	0.2675	-9.6362	2.6537	0.0092	0.0339	-0.0090	11.5992	27.1001	-6.1493	-0.4798	0.3466	0.5007	-0.6317
8.26	0.2621	-9.6460	2.6538	0.0035	0.0330	-0.0093	11.4460	27.0580	-6.3420	-0.4798	0.3466	0.5006	-0.6316
8.27	0.2562	-9.6369	2.6513	0.0097	0.0196	-0.0092	11.4895	26.9865	-6.3029	-0.4799	0.3467	0.5006	-0.6317
8.28	0.2527	-9.6366	2.6500	0.0099	0.0204	-0.0095	11.4342	27.1253	-6.3089	-0.4799	0.3466	0.5005	-0.6317
8.29	0.2560	-9.6430	2.6548	0.0077	0.0135	-0.0086	11.5864	26.9821	-6.1008	-0.4799	0.3467	0.5005	-0.6317
8.3	0.2553	-9.6397	2.6582	0.0129	0.0124	-0.0059	11.4295	26.9939	-6.1543	-0.4799	0.3466	0.5004	-0.6317
8.31	0.2597	-9.6518	2.6666	0.0143	0.0185	-0.0054	11.4253	27.2163	-6.4762	-0.4799	0.3466	0.5004	-0.6318
8.32	0.2683	-9.6609	2.6679	0.0136	0.0188	-0.0041	11.6117	27.0854	-6.3571	-0.4799	0.3467	0.5003	-0.6318
8.33	0.2825	-9.6509	2.6686	0.0139	0.0172	-0.0078	11.5344	27.0771	-6.5258	-0.4799	0.3466	0.5002	-0.6318
8.34	0.2929	-9.6351	2.6723	0.0137	0.0154	-0.0047	11.5717	26.8737	-6.3594	-0.4799	0.3467	0.5003	-0.6319
8.35	0.2953	-9.6357	2.6750	0.0184	0.0203	-0.0100	11.7291	26.9048	-6.2935	-0.4799	0.3466	0.5001	-0.6319
8.36	0.2926	-9.6217	2.6732	0.0137	0.0249	-0.0085	11.9060	26.9114	-6.3411	-0.4800	0.3467	0.5001	-0.6320
8.37	0.2739	-9.6257	2.6894	0.0169	0.0331	-0.0084	11.5811	26.8876	-6.6468	-0.4800	0.3467	0.5000	-0.6319
8.38	0.2434	-9.6573	2.6650	0.0159	0.0279	-0.0095	11.4754	26.9260	-6.3794	-0.4801	0.3467	0.4999	-0.6320
8.39	0.2256	-9.5787	2.6851	0.0169	0.0326	-0.0080	11.5851	27.0068	-6.3460	-0.4802	0.3467	0.4998	-0.6320
8.4	0.2045	-9.6006	2.7019	0.0195	0.0298	-0.0084	11.5399	26.6646	-6.4023	-0.4802	0.3467	0.4997	-0.6320
8.41	0.1977	-9.6389	2.6999	0.0172	0.0357	-0.0081	11.6540	26.9698	-6.5193	-0.4803	0.3468	0.4996	-0.6321
8.42	0.1881	-9.6201	2.7108	0.0272	0.0281	-0.0084	11.5197	26.9416	-6.4273	-0.4804	0.3468	0.4995	-0.6321
8.43	0.1917	-9.5883	2.7068	0.0287	0.0275	-0.0078	11.5799	27.1448	-6.2501	-0.4805	0.3468	0.4994	-0.6322
8.44	0.2058	-9.5677	2.7066	0.0210	0.0240	-0.0083	11.5414	27.0910	-6.4494	-0.4804	0.3468	0.4992	-0.6321
8.45	0.2197	-9.5753	2.7109	0.0143	0.0226	-0.0093	11.6939	26.9685	-6.3720	-0.4805	0.3468	0.4992	-0.6322
8.46	0.2358	-9.5666	2.7191	0.0134	0.0254	-0.0089	11.5849	27.1421	-6.2863	-0.4805	0.3468	0.4991	-0.6322
8.47	0.2510	-9.5595	2.7275	0.0150	0.0183	-0.0112	11.5305	26.9480	-6.3925	-0.4806	0.3468	0.4990	-0.6322
8.48	0.2620	-9.5717	2.7318	0.0152	0.0233	-0.0098	11.6740	27.1102	-6.5224	-0.4806	0.3468	0.4990	-0.6323
8.49	0.2470	-9.5664	2.7215	0.0118	0.0262	-0.0117	11.6242	27.1583	-6.4743	-0.4807	0.3468	0.4989	-0.6323
8.5	0.2198	-9.5761	2.7261	0.0027	0.0256	-0.0102	11.4752	26.9872	-6.3429	-0.4807	0.3469	0.4989	-0.6323
8.51	0.2035	-9.5922	2.7154	-0.0040	0.0226	-0.0085	11.5326	26.9834	-6.6187	-0.4807	0.3469	0.4988	-0.6322
8.52	0.1856	-9.5704	2.7038	-0.0069	0.0205	-0.0120	11.7028	26.8815	-6.5521	-0.4807	0.3470	0.4989	-0.6322
8.53	0.1810	-9.5577	2.7009	-0.0105	0.0082	-0.0119	11.7135	26.7525	-6.3078	-0.4807	0.3470	0.4989	-0.6322
8.54	0.2026	-9.5883	2.6965	-0.0096	0.0167	-0.0183	11.8608	26.9697	-6.2952	-0.4807	0.3470	0.4990	-0.6321
8.55	0.2222	-9.6053	2.6929	-0.0121	0.0074	-0.0196	12.1313	27.0907	-6.4302	-0.4806	0.3470	0.4990	-0.6321
8.56	0.2299	-9.6054	2.6852	-0.0113	0.0045	-0.0201	12.1585	26.9433	-6.3402	-0.4806	0.3470	0.4991	-0.6320
8.57	0.2322	-9.6096	2.6796	-0.0109	0.0163	-0.0186	11.9695	26.8827	-6.3005	-0.4806	0.3470	0.4992	-0.6320
8.58	0.2427	-9.6216	2.6795	-0.0112	0.0128	-0.0139	11.6873	27.2848	-6.5895	-0.4806	0.3470	0.4992	-0.6319
8.59	0.2442	-9.6351	2.6747	-0.0129	0.0086	-0.0146	11.6881	26.9786	-6.5319	-0.4806	0.3471	0.4993	-0.6320
8.6	0.2446	-9.6361	2.6658	-0.0074	0.0033	-0.0199	11.7061	26.6658	-6.5901	-0.4806	0.3470	0.4993	-0.6319
8.61	0.2424	-9.6489	2.6720	-0.0065	0.0066	-0.0252	11.5999	26.8403	-6.4761	-0.4806	0.3470	0.4994	-0.6319
8.62	0.2459	-9.6682	2.6789	-0.0080	0.0064	-0.0143	11.7589	27.0904	-6.3898	-0.4805	0.3470	0.4994	-0.6318
8.63	0.2462	-9.6632	2.6821	-0.0012	0.0118	-0.0110	11.6012	27.2822	-6.3415	-0.4805	0.3470	0.4995	-0.6318
8.64	0.2355	-9.6403	2.6721	-0.0075	0.0080	-0.0120	11.6908	27.1921	-6.3197	-0.4805	0.3470	0.4995	-0.6318
8.65	0.2348	-9.6214	2.6652	0.0037	-0.0035	-0.0106	11.5184	26.9800	-6.4779	-0.4804	0.3469	0.4995	-0.6318
8.66	0.2393	-9.6177	2.6589	-0.0031	-0.0010	-0.0097	11.7034	27.2314	-6.4956	-0.4804	0.3470	0.4996	-0.6319
8.67	0.2602	-9.6243	2.6668	-0.0068	-0.0075	-0.0118	11.5474	26.8999	-6.5497	-0.4803	0.3469	0.4997	-0.6319
8.68	0.2808	-9.6644	2.6832	-0.0042	-0.0047	-0.0091	11.4650	27.0057	-6.4210	-0.4803	0.3469	0.4998	-0.6319
8.69	0.3045	-9.6981	2.6904	-0.0076	-0.0003	-0.0097	11.7900	27.0268	-6.5837	-0.4801	0.3468	0.4998	-0.6319
8.7	0.3203	-9.7073	2.7053	0.0088	0.0061	-0.0094	11.6952	27.0072	-6.5469	-0.4802	0.3468	0.4998	-0.6320
8.71	0.3254	-9.6942	2.7038	0.0150	0.0049	-0.0111	11.4445	26.6949	-6.3871	-0.4802	0.3467	0.4998	-0.6320
8.72	0.3175	-9.6767	2.6969	0.0146	0.0147	-0.0082	11.5310	26.6552	-6.3602	-0.4801	0.3467	0.4997	-0.6320
8.73	0.3078	-9.6438	2.6895	0.0148	0.0238	-0.0093	11.6550	26.6596	-6.4695	-0.4802	0.3467	0.4997	-0.6321
8.74	0.2832	-9.5992	2.6789	0.0149	0.0229	-0.0078	11.7783	26.8184	-6.4800	-0.4802	0.3467	0.4996	-0.6321
8.75	0.2524	-9.5647	2.6702	0.0145	0.0267	-0.0091	11.8577	26.8343	-6.4106	-0.4803	0.3468	0.4996	-0.6321
8.76	0.2233	-9.5326	2.6661	0.0140	0.0322	-0.0085	11.7186	26.9283	-6.2813	-0.4803	0.3468	0.4994	-0.6321
8.77	0.2051	-9.5255	2.6646	0.0152	0.0259	-0.0090	11.8538	26.9288	-6.2689	-0.4804	0.3468	0.4994	-0.6322
8.78	0.2038	-9.5314	2.6744	0.0101	0.0202	-0.0093	11.6349	27.1235	-6.3454	-0.4804	0.3468	0.4993	-0.6321
8.79	0.2096	-9.5488	2.6832	-0.0063	0.0183	-0.0174	11.7239	26.9828	-6.3743	-0.4804	0.3469	0.4994	-0.6321
8.8	0.2190	-9.5667	2.6943	-0.0030	0.0174	-0.0134	11.7401	26.8043	-6.4737	-0.4804	0.3469	0.4994	-0.6321
8.81	0.2243	-9.5958	2.6988	-0.0103	0.0198	-0.0214	11.6123	26.9956	-6.4466	-0.4804	0.3469	0.4994	-0.6320
8.82	0.2225	-9.6220	2.6933	-0.0123	0.0102	-0.0196	11.6825	27.0459	-6.5422	-0.4804	0.3469	0.4995	-0.6320
8.83	0.2192	-9.6322	2.6796	-0.0101	0.0083	-0.0229	11.5418	27.2823	-6.5130	-0.4804	0.3469	0.4995	-0.6319
8.84	0.2237	-9.6412	2.6783	-0.0160	0.0031	-0.0182	11.5683	27.3812	-6.2229	-0.4804	0.3469	0.4997	-0.6319
8.85	0.2410	-9.6571	2.6741	-0.0185	-0.0014	-0.0158	11.6873	27.0586	-6.5252	-0.4803	0.3469	0.4997	-0.6319
8.86	0.2677	-9.6580	2.6727	-0.0093	-0.0084	-0.0236	11.5730	26.9578	-6.3066	-0.4803	0.3468	0.4999	-0.6319
8.87	0.2778	-9.6522	2.6642	-0.0119	-0.0081	-0.0100	11.4556	26.7984	-6.2809	-0.4801	0.3468	0.4999	-0.6318
8.88	0.2826	-9.6267	2.6538	-0.0107	-0.0161	-0.0095	11.4649	27.1380	-6.3924	-0.4801	0.3467	0.5001	-0.6319
8.89	0.2813	-9.6308	2.6592	-0.0126	-0.0194	-0.0101	11.6749	26.9858	-6.2239	-0.4799	0.3467	0.5002	-0.6319
8.9	0.2892	-9.6616	2.6577	-0.0103	-0.0238	-0.0104	11.8484	26.9279	-6.3947	-0.4798	0.3466	0.5003	-0.6319
8.91	0.3011	-9.6614	2.6644	-0.0052	-0.0232	-0.0098	11.7132	26.8150	-6.3520	-0.4797	0.3465	0.5005	-0.6320
8.92	0.3209	-9.6502	2.6698	-0.0080	-0.0144	-0.0100	11.8833	26.9129	-6.3965	-0.4796	0.3464	0.5005	-0.6320
8.93	0.3460	-9.6280	2.6719	0.0066	-0.0130	-0.0094	11.6927	26.8556	-6.3139	-0.4796	0.3464	0.5006	-0.6321
8.94	0.3576	-9.5996	2.6779	0.0111	-0.0058	-0.0098	11.5140	26.9339	-6.1756	-0.4794	0.3462	0.5005	-0.6321
8.95	0.3440	-9.6132	2.6806	-0.0016	0.0060	-0.0081	11.7044	26.9049	-6.3145	-0.4794	0.3463	0.5006	-0.6322
8.96	0.3222	-9.6214	2.6833	0.0016	0.0046	-0.0071	11.5377	26.8620	-6.4395	-0.4794	0.3462	0.5006	-0.6322
8.97	0.2949	-9.6178	2.6808	0.0080	0.0099	-0.0081	11.3609	26.9626	-6.5047	-0.4794	0.3462	0.5006	-0.6322
8.98	0.2693	-9.6103	2.6771	0.0055	0.0179	-0.0127	11.4679	26.8134	-6.2469	-0.4794	0.3462	0.5006	-0.6322
8.99	0.2618	-9.5994	2.6716	0.0022	0.0248	-0.0117	11.6371	26.9916	-6.1643	-0.4794	0.3463	0.5006	-0.6322
9	0.2645	-9.6072	2.6771	-0.0049	0.0206	-0.0154	11.5872	27.0493	-6.2523	-0.4794	0.3463	0.5006	-0.6322
9.01	0.2670	-9.6074	2.6805	-0.0118	0.0130	-0.0161	11.5291	26.8939	-6.3856	-0.4794	0.3463	0.5006	-0.6321
9.02	0.2664	-9.6036	2.6740	-0.0117	0.0250	-0.0181	11.7809	27.0773	-6.3922	-0.4794	0.3464	0.5007	-0.6321
9.03	0.2640	-9.6139	2.6669	-0.0092	0.0218	-0.0195	11.5465	26.9115	-6.1844	-0.4794	0.3464	0.5007	-0.6320
9.04	0.2627	-9.6256	2.6586	-0.0117	0.0265	-0.0135	11.6035	27.0821	-6.2878	-0.4795	0.3465	0.5007	-0.6320
9.05	0.2528	-9.6316	2.6553	-0.0109	0.0233	-0.0139	11.8550	27.1055	-6.2810	-0.4794	0.3465	0.5007	-0.6319
9.06	0.2445	-9.6356	2.6526	-0.0134	0.0144	-0.0087	12.1407	27.0044	-6.1628	-0.4794	0.3466	0.5008	-0.6319
9.07	0.2477	-9.6437	2.6455	-0.0121	0.0143	-0.0103	11.8255	27.2115	-6.3457	-0.4794	0.3466	0.5008	-0.6318
9.08	0.2570	-9.6559	2.6386	-0.0101	0.0134	-0.0086	11.7289	27.2931	-6.1761	-0.4793	0.3466	0.5008	-0.6318
9.09	0.2651	-9.6632	2.6424	-0.0090	0.0071	-0.0096	11.6492	27.2544	-6.4481	-0.4793	0.3467	0.5009	-0.6318
9.1	0.2724	-9.6666	2.6439	-0.0030	0.0197	-0.0092	11.8071	26.9411	-6.5099	-0.4793	0.3467	0.5009	-0.6318
9.11	0.2735	-9.6690	2.6376	0.0026	0.0143	-0.0096	11.8345	26.9909	-6.4284	-0.4793	0.3468	0.5009	-0.6318
9.12	0.2823	-9.6717	2.6487	0.0063	0.0086	-0.0082	11.8332	26.9339	-6.2660	-0.4792	0.3467	0.5009	-0.6318
9.13	0.2847	-9.6705	2.6486	0.0135	0.0170	-0.0075	11.6932	27.0160	-6.4685	-0.4793	0.3467	0.5009	-0.6319
9.14	0.2865	-9.6641	2.6532	0.0127	0.0127	-0.0097	11.6428	27.0154	-6.4582	-0.4793	0.3467	0.5008	-0.6319
9.15	0.2804	-9.6591	2.6508	0.0120	0.0157	-0.0076	11.6410	26.9316	-6.2766	-0.4792	0.3467	0.5007	-0.6319
9.16	0.2738	-9.6549	2.6519	0.0104	0.0151	-0.0081	11.7653	27.0856	-6.4238	-0.4793	0.3467	0.5008	-0.6320
9.17	0.2636	-9.6453	2.6501	0.0159	0.0184	-0.0088	11.7092	26.8968	-6.2268	-0.4793	0.3467	0.5007	-0.6320
9.18	0.2511	-9.6448	2.6522	0.0137	0.0228	-0.0090	11.5848	27.0823	-6.2099	-0.4793	0.3467	0.5006	-0.6320
9.19	0.2268	-9.6376	2.6605	0.0146	0.0217	-0.0090	11.4487	26.9393	-6.2096	-0.4793	0.3467	0.5005	-0.6320
9.2	0.2152	-9.6318	2.6619	0.0120	0.0173	-0.0094	11.6166	27.0120	-6.2216	-0.4794	0.3467	0.5005	-0.6321
9.21	0.1972	-9.6259	2.6598	0.0134	0.0173	-0.0082	11.4589	27.3758	-6.3961	-0.4794	0.3467	0.5005	-0.6321
9.22	0.1852	-9.6143	2.6590	0.0154	0.0211	-0.0082	11.6263	27.1657	-6.4164	-0.4794	0.3467	0.5004	-0.6321
9.23	0.1844	-9.6008	2.6627	0.0119	0.0141	-0.0082	11.6728	26.9243	-6.2894	-0.4794	0.3467	0.5004	-0.6322
9.24	0.1868	-9.5943	2.6677	0.0147	0.0121	-0.0084	11.5109	27.1368	-6.3240	-0.4794	0.3467	0.5003	-0.6322
9.25	0.2013	-9.5947	2.6749	0.0140	0.0025	-0.0092	11.6079	27.0916	-6.2897	-0.4794	0.3466	0.5003	-0.6323
9.26	0.2182	-9.5869	2.6801	0.0135	0.0045	-0.0097	11.4911	26.9633	-6.4024	-0.4793	0.3465	0.5002	-0.6323
9.27	0.2389	-9.5844	2.6854	0.0144	0.0045	-0.0086	11.8713	26.8365	-6.3935	-0.4794	0.3465	0.5003	-0.6324
9.28	0.2499	-9.5775	2.6920	0.0148	0.0031	-0.0115	11.9824	26.8067	-6.5668	-0.4793	0.3465	0.5002	-0.6324
9.29	0.2689	-9.5843	2.6971	0.0097	0.0071	-0.0131	11.6677	26.9423	-6.5334	-0.4793	0.3464	0.5003	-0.6325
9.3	0.2749	-9.6000	2.6965	-0.0048	0.0100	-0.0152	11.9740	26.6344	-6.3462	-0.4793	0.3464	0.5003	-0.6324
9.31	0.2671	-9.5965	2.6920	-0.0070	0.0181	-0.0151	11.6122	26.9125	-6.4406	-0.4793	0.3464	0.5003	-0.6324
9.32	0.2591	-9.5969	2.6869	-0.0124	0.0105	-0.0117	11.7773	27.1142	-6.4856	-0.4793	0.3465	0.5004	-0.6324
9.33	0.2417	-9.6019	2.6726	-0.0119	0.0135	-0.0145	11.8772	26.9435	-6.1840	-0.4792	0.3465	0.5004	-0.6323
9.34	0.2295	-9.6164	2.6653	-0.0116	0.0118	-0.0132	11.6789	26.8788	-6.2317	-0.4793	0.3466	0.5005	-0.6323
9.35	0.2218	-9.6263	2.6529	-0.0119	0.0134	-0.0126	11.6770	26.8765	-6.1758	-0.4792	0.3466	0.5005	-0.6323
9.36	0.2230	-9.6345	2.6413	-0.0129	0.0085	-0.0091	11.7808	26.8776	-6.3001	-0.4792	0.3466	0.5006	-0.6323
9.37	0.2171	-9.6344	2.6373	-0.0107	0.0038	-0.0125	11.6207	26.8737	-6.2846	-0.4791	0.3466	0.5006	-0.6322
9.38	0.2159	-9.6399	2.6318	-0.0080	0.0066	-0.0101	11.6732	26.8801	-6.2263	-0.4791	0.3466	0.5007	-0.6322
9.39	0.2162	-9.6399	2.6151	-0.0132	0.0058	-0.0136	11.5917	26.8908	-6.5009	-0.4790	0.3466	0.5007	-0.6322
9.4	0.2205	-9.6379	2.6194	-0.0098	0.0094	-0.0160	11.5424	27.1558	-6.1831	-0.4789	0.3466	0.5008	-0.6321
9.41	0.2393	-9.6478	2.6236	-0.0068	0.0004	-0.0109	11.6824	27.1290	-6.2390	-0.4790	0.3466	0.5009	-0.6322
9.42	0.2562	-9.6678	2.6289	-0.0041	0.0063	-0.0105	11.6318	27.0330	-6.3133	-0.4789	0.3466	0.5009	-0.6322
9.43	0.2679	-9.6781	2.6428	0.0109	0.0085	-0.0115	11.6794	27.0695	-6.0930	-0.4789	0.3466	0.5009	-0.6322
9.44	0.2646	-9.6682	2.6440	0.0001	0.0061	-0.0109	11.5439	26.9579	-6.2190	-0.4788	0.3465	0.5009	-0.6322
9.45	0.2610	-9.6479	2.6286	0.0006	0.0016	-0.0095	11.4659	27.0593	-6.3270	-0.4788	0.3466	0.5009	-0.6323
9.46	0.2636	-9.6213	2.6138	0.0107	-0.0015	-0.0132	11.8154	26.8899	-6.4585	-0.4788	0.3465	0.5009	-0.6323
9.47	0.2681	-9.6172	2.6200	-0.0014	-0.0023	-0.0133	11.8335	26.8522	-6.2068	-0.4787	0.3464	0.5010	-0.6323
9.48	0.2778	-9.6439	2.6283	-0.0072	0.0025	-0.0116	11.8276	27.0055	-6.1259	-0.4787	0.3464	0.5010	-0.6323
9.49	0.2821	-9.6756	2.6343	0.0054	0.0045	-0.0122	11.8325	27.0421	-6.3573	-0.4787	0.3464	0.5010	-0.6323
9.5	0.2954	-9.7063	2.6464	0.0036	0.0005	-0.0086	11.6031	26.9164	-6.4983	-0.4786	0.3464	0.5011	-0.6324
9.51	0.3094	-9.6962	2.6452	0.0128	0.0087	-0.0164	11.4363	27.0553	-6.4019	-0.4786	0.3463	0.5010	-0.6324
9.52	0.3134	-9.6735	2.6470	0.0110	0.0157	-0.0133	11.7221	27.1630	-6.2041	-0.4787	0.3463	0.5010	-0.6325
9.53	0.3069	-9.6629	2.6473	0.0090	0.0233	-0.0120	11.7205	26.9561	-6.3200	-0.4787	0.3463	0.5010	-0.6324
9.54	0.2937	-9.6421	2.6394	0.0156	0.0346	-0.0122	11.8539	27.0388	-6.0316	-0.4787	0.3464	0.5009	-0.6324
9.55	0.2731	-9.6114	2.6307	0.0141	0.0301	-0.0100	12.1666	27.1399	-5.9994	-0.4788	0.3464	0.5008	-0.6324
9.56	0.2347	-9.5946	2.6248	0.0115	0.0316	-0.0075	12.3712	27.1694	-6.0750	-0.4788	0.3464	0.5007	-0.6324
9.57	0.2013	-9.5842	2.6160	0.0079	0.0333	-0.0096	11.7018	27.2402	-6.3515	-0.4789	0.3465	0.5006	-0.6325
9.58	0.1778	-9.5776	2.6140	-0.0043	0.0235	-0.0106	11.6229	27.4666	-6.0464	-0.4789	0.3465	0.5006	-0.6324
9.59	0.1789	-9.6045	2.6181	-0.0041	0.0172	-0.0144	11.6639	27.2575	-6.3428	-0.4789	0.3466	0.5007	-0.6324
9.6	0.1905	-9.6372	2.6289	0.0036	0.0188	-0.0182	11.6343	27.0790	-6.3700	-0.4789	0.3466	0.5006	-0.6324
9.61	0.1982	-9.6535	2.6347	-0.0013	0.0129	-0.0106	11.4202	27.0362	-6.1523	-0.4789	0.3466	0.5007	-0.6324
9.62	0.2078	-9.6528	2.6361	0.0053	0.0116	-0.0116	11.6858	27.0936	-6.3179	-0.4789	0.3466	0.5006	-0.6324
9.63	0.2153	-9.6614	2.6462	0.0051	0.0003	-0.0126	11.7087	27.2176	-6.2304	-0.4789	0.3465	0.5006	-0.6324
9.64	0.2185	-9.6675	2.6410	0.0047	0.0009	-0.0143	11.8368	26.7998	-6.2096	-0.4788	0.3465	0.5007	-0.6325
9.65	0.2303	-9.6600	2.6410	0.0100	0.0013	-0.0166	11.6473	26.6998	-6.3846	-0.4788	0.3464	0.5007	-0.6324
9.66	0.2349	-9.6613	2.6458	0.0127	-0.0009	-0.0174	11.6718	27.0134	-6.2769	-0.4789	0.3464	0.5007	-0.6326
9.67	0.2432	-9.6652	2.6477	0.0143	-0.0143	-0.0146	11.8401	26.8095	-6.0850	-0.4788	0.3462	0.5007	-0.6326
9.68	0.2437	-9.6386	2.6450	0.0119	-0.0211	-0.0104	11.6723	26.7882	-6.2007	-0.4787	0.3461	0.5008	-0.6327
9.69	0.2264	-9.6508	2.6470	0.0156	-0.0160	-0.0095	11.8618	26.9350	-6.4763	-0.4786	0.3460	0.5007	-0.6327
9.7	0.2290	-9.6712	2.6569	0.0139	-0.0198	-0.0049	11.5842	27.0545	-6.4896	-0.4786	0.3459	0.5008	-0.6329
9.71	0.2511	-9.6501	2.6662	0.0154	-0.0164	-0.0101	11.5199	27.0837	-6.3665	-0.4785	0.3458	0.5008	-0.6330
9.72	0.2789	-9.6458	2.6714	0.0196	-0.0263	-0.0147	11.4111	26.9208	-6.2164	-0.4784	0.3456	0.5009	-0.6331
9.73	0.3164	-9.6187	2.6787	0.0249	-0.0263	-0.0097	11.7086	26.8306	-6.4129	-0.4784	0.3454	0.5009	-0.6332
9.74	0.3542	-9.5794	2.7002	0.0169	-0.0225	-0.0101	11.5692	26.8523	-6.1839	-0.4783	0.3453	0.5009	-0.6333
9.75	0.3634	-9.5799	2.7085	0.0153	-0.0161	-0.0107	11.3847	27.0088	-6.4469	-0.4782	0.3452	0.5010	-0.6335
9.76	0.3544	-9.5735	2.7054	0.0169	0.0026	-0.0085	11.3458	27.0093	-6.4671	-0.4781	0.3451	0.5009	-0.6334
9.77	0.3308	-9.5653	2.7076	0.0144	0.0100	-0.0054	11.5378	27.0054	-6.3703	-0.4782	0.3451	0.5009	-0.6336
9.78	0.3070	-9.5678	2.7085	0.0130	0.0191	-0.0090	11.6430	27.0322	-6.3372	-0.4782	0.3451	0.5008	-0.6336
9.79	0.2882	-9.5750	2.7084	0.0141	0.0124	-0.0088	11.4563	27.2269	-6.4897	-0.4782	0.3451	0.5008	-0.6336
9.8	0.2729	-9.5767	2.7072	0.0105	0.0192	-0.0108	11.4622	26.9843	-6.3262	-0.4782	0.3450	0.5007	-0.6336
9.81	0.2713	-9.5739	2.7150	0.0116	0.0246	-0.0136	11.3722	26.9161	-6.3314	-0.4782	0.3451	0.5007	-0.6337
9.82	0.2687	-9.5766	2.7159	0.0040	0.0215	-0.0077	11.5492	27.1202	-6.5109	-0.4783	0.3451	0.5007	-0.6337
9.83	0.2653	-9.5867	2.7179	-0.0095	0.0218	-0.0150	11.6291	27.0312	-6.4487	-0.4782	0.3451	0.5006	-0.6336
9.84	0.2646	-9.5999	2.7092	-0.0120	0.0181	-0.0171	11.7555	26.7919	-6.4421	-0.4783	0.3452	0.5007	-0.6336
9.85	0.2608	-9.5937	2.7037	-0.0114	0.0249	-0.0101	11.7193	27.0353	-6.3794	-0.4782	0.3453	0.5007	-0.6335
9.86	0.2662	-9.6084	2.6931	-0.0117	0.0237	-0.0192	11.7475	26.6762	-6.5080	-0.4783	0.3454	0.5008	-0.6335
9.87	0.2703	-9.6261	2.6819	-0.0113	0.0172	-0.0145	11.7057	26.6591	-6.3255	-0.4782	0.3453	0.5008	-0.6334
9.88	0.2722	-9.6309	2.6738	-0.0114	0.0176	-0.0121	11.7678	26.9891	-6.4060	-0.4782	0.3454	0.5008	-0.6334
9.89	0.2776	-9.6306	2.6711	-0.0108	0.0174	-0.0087	11.6569	26.7437	-6.4929	-0.4782	0.3455	0.5008	-0.6334
9.9	0.2780	-9.6261	2.6679	-0.0113	0.0255	-0.0100	11.6535	27.0440	-6.3637	-0.4782	0.3455	0.5008	-0.6333
9.91	0.2739	-9.6293	2.6694	-0.0034	0.0226	-0.0073	11.6134	26.9914	-6.3842	-0.4782	0.3456	0.5009	-0.6333
9.92	0.2608	-9.6441	2.6706	-0.0094	0.0160	-0.0061	11.5835	27.0654	-6.2017	-0.4781	0.3457	0.5008	-0.6333
9.93	0.2393	-9.6451	2.6723	-0.0075	0.0165	-0.0059	11.6419	27.1164	-6.2386	-0.4781	0.3457	0.5009	-0.6333
9.94	0.2287	-9.6389	2.6716	0.0046	0.0176	-0.0075	11.3248	27.1046	-6.4013	-0.4781	0.3457	0.5008	-0.6332
9.95	0.2236	-9.6367	2.6738	0.0070	0.0237	-0.0097	11.6432	27.0808	-6.2335	-0.4781	0.3458	0.5008	-0.6333
9.96	0.2222	-9.6407	2.6756	0.0061	0.0208	-0.0113	11.8044	26.9973	-6.5100	-0.4781	0.3458	0.5008	-0.6333
9.97	0.2204	-9.6303	2.6702	0.0050	0.0238	-0.0086	11.8457	27.0130	-6.2789	-0.4781	0.3458	0.5007	-0.6333
9.98	0.2221	-9.6213	2.6680	0.0022	0.0175	-0.0129	11.7225	27.1200	-6.2885	-0.4782	0.3459	0.5007	-0.6333
9.99	0.2231	-9.6268	2.6699	-0.0069	0.0183	-0.0141	11.3375	27.0790	-6.2436	-0.4781	0.3459	0.5007	-0.6333
10	0.2216	-9.6324	2.6727	0.0035	0.0160	-0.0102	11.4995	27.1746	-6.1975	-0.4782	0.3459	0.5007	-0.6333
10.01	0.2224	-9.6211	2.6693	0.0111	0.0192	-0.0106	11.6621	27.1370	-6.5131	-0.4781	0.3459	0.5006	-0.6332
10.02	0.2253	-9.6111	2.6663	0.0075	0.0202	-0.0073	11.7378	26.8555	-6.3184	-0.4782	0.3459	0.5006	-0.6333
10.03	0.2275	-9.5969	2.6722	0.0026	0.0188	-0.0105	11.5693	26.7090	-6.2722	-0.4782	0.3460	0.5006	-0.6333
10.04	0.2333	-9.5872	2.6754	0.0002	0.0189	-0.0122	11.8605	26.8403	-6.2260	-0.4782	0.3460	0.5006	-0.6333
10.05	0.2345	-9.5777	2.6779	0.0021	0.0189	-0.0126	12.2109	26.9211	-6.0430	-0.4782	0.3460	0.5006	-0.6333
10.06	0.2305	-9.5779	2.6857	-0.0016	0.0219	-0.0102	12.5335	27.0842	-5.9944	-0.4782	0.3460	0.5006	-0.6333
10.07	0.2318	-9.5833	2.6840	-0.0012	0.0182	-0.0116	12.0353	27.2455	-6.2489	-0.4782	0.3461	0.5006	-0.6333
10.08	0.2277	-9.5739	2.6892	-0.0066	0.0222	-0.0078	11.9235	27.3096	-6.0074	-0.4781	0.3461	0.5005	-0.6332
10.09	0.2263	-9.5759	2.6821	-0.0090	0.0226	-0.0162	11.7943	27.1070	-6.0605	-0.4782	0.3462	0.5006	-0.6332
10.1	0.2203	-9.5657	2.6817	-0.0116	0.0203	-0.0132	11.6193	26.9348	-6.1477	-0.4782	0.3462	0.5006	-0.6331
10.11	0.2209	-9.5592	2.6733	-0.0186	0.0226	-0.0169	11.5974	27.1597	-6.1340	-0.4782	0.3463	0.5007	-0.6331
10.12	0.2276	-9.5496	2.6683	-0.0211	0.0190	-0.0170	11.5539	27.1134	-6.1381	-0.4781	0.3464	0.5007	-0.6330
10.13	0.2361	-9.5396	2.6622	-0.0239	0.0186	-0.0217	11.6669	27.1390	-6.0255	-0.4781	0.3465	0.5008	-0.6329
10.14	0.2380	-9.5369	2.6520	-0.0360	0.0167	-0.0186	11.6919	26.9317	-6.2421	-0.4781	0.3466	0.5009	-0.6328
10.15	0.2320	-9.5518	2.6363	-0.0364	0.0195	-0.0116	11.7705	27.0461	-6.1439	-0.4780	0.3467	0.5009	-0.6327
10.16	0.2333	-9.5834	2.6241	-0.0378	0.0189	-0.0116	11.6122	27.0378	-6.1162	-0.4780	0.3468	0.5011	-0.6327
10.17	0.2378	-9.6177	2.6062	-0.0393	0.0177	-0.0145	11.8160	26.9355	-6.1638	-0.4779	0.3469	0.5011	-0.6326
10.18	0.2523	-9.6486	2.6051	-0.0370	0.0134	-0.0107	11.8278	27.2005	-6.2669	-0.4778	0.3470	0.5013	-0.6325
10.19	0.2553	-9.6696	2.5930	-0.0399	0.0090	-0.0098	11.8339	27.2472	-6.1089	-0.4777	0.3471	0.5014	-0.6323
10.2	0.2538	-9.7119	2.5816	-0.0357	0.0072	-0.0102	11.6958	26.9442	-6.2714	-0.4776	0.3472	0.5015	-0.6323
10.21	0.2474	-9.7071	2.5726	-0.0323	0.0074	-0.0100	11.8046	26.8676	-5.9609	-0.4775	0.3473	0.5016	-0.6322
10.22	0.2445	-9.7050	2.5570	-0.0273	0.0141	-0.0099	11.8291	27.0933	-6.0083	-0.4774	0.3473	0.5017	-0.6322
10.23	0.2523	-9.7022	2.5537	-0.0169	0.0104	-0.0094	11.9282	26.9027	-6.2505	-0.4774	0.3474	0.5018	-0.6322
10.24	0.2656	-9.6990	2.5659	-0.0111	0.0030	-0.0107	11.7579	27.0245	-6.0886	-0.4773	0.3474	0.5018	-0.6321
10.25	0.2911	-9.7245	2.5760	-0.0117	0.0085	-0.0156	11.5654	27.2000	-6.1654	-0.4773	0.3474	0.5019	-0.6322
10.26	0.3071	-9.7430	2.5859	-0.0022	0.0160	-0.0119	11.8831	26.9244	-6.0345	-0.4772	0.3474	0.5019	-0.6321
10.27	0.3118	-9.7457	2.5997	0.0026	0.0188	-0.0169	11.7696	27.0859	-6.0256	-0.4773	0.3475	0.5019	-0.6321
10.28	0.3146	-9.7312	2.6070	0.0146	0.0244	-0.0179	11.3110	27.3036	-6.0948	-0.4773	0.3474	0.5018	-0.6321
10.29	0.3080	-9.7043	2.6021	0.0144	0.0251	-0.0110	11.7768	27.0307	-6.1609	-0.4774	0.3475	0.5018	-0.6322
10.3	0.2806	-9.6828	2.5993	0.0117	0.0315	-0.0091	11.6179	27.0634	-6.0160	-0.4774	0.3475	0.5017	-0.6321
10.31	0.2442	-9.6631	2.5870	0.0091	0.0405	-0.0087	11.7148	27.1144	-6.0501	-0.4775	0.3476	0.5016	-0.6321
10.32	0.2022	-9.6290	2.5780	0.0110	0.0361	-0.0090	11.8868	27.0202	-6.0267	-0.4776	0.3476	0.5015	-0.6321
10.33	0.1766	-9.6107	2.5710	0.0049	0.0324	-0.0086	11.7161	27.0360	-6.0580	-0.4776	0.3477	0.5014	-0.6321
10.34	0.1556	-9.6134	2.5689	-0.0007	0.0233	-0.0080	11.7557	27.0667	-5.9131	-0.4776	0.3478	0.5014	-0.6322
10.35	0.1441	-9.6197	2.5712	-0.0069	0.0214	-0.0081	11.5667	27.1209	-5.8561	-0.4776	0.3478	0.5014	-0.6321
10.36	0.1616	-9.6276	2.5746	-0.0103	0.0075	-0.0088	11.6129	26.9977	-6.0743	-0.4776	0.3479	0.5015	-0.6322
10.37	0.1851	-9.6363	2.5818	-0.0094	0.0053	-0.0097	11.7591	27.1676	-5.9121	-0.4774	0.3478	0.5014	-0.6321
10.38	0.2079	-9.6527	2.5821	-0.0118	-0.0064	-0.0099	11.8440	26.9854	-5.9909	-0.4774	0.3478	0.5016	-0.6321
10.39	0.2187	-9.6577	2.5785	-0.0112	-0.0065	-0.0095	11.6331	27.1377	-6.0360	-0.4773	0.3478	0.5016	-0.6321
10.4	0.2294	-9.6607	2.5787	-0.0118	-0.0109	-0.0132	11.7407	27.0612	-6.1272	-0.4772	0.3477	0.5017	-0.6321
10.41	0.2346	-9.6732	2.5784	-0.0116	-0.0127	-0.0138	11.7329	26.9315	-6.1291	-0.4771	0.3477	0.5019	-0.6322
10.42	0.2380	-9.6777	2.5783	-0.0101	-0.0131	-0.0122	11.6232	26.8216	-6.1478	-0.4770	0.3477	0.5019	-0.6322
10.43	0.2363	-9.6848	2.5797	-0.0121	-0.0131	-0.0108	11.6692	26.9945	-5.8264	-0.4769	0.3476	0.5021	-0.6322
10.44	0.2300	-9.6567	2.5702	-0.0118	-0.0141	-0.0102	11.6401	27.1595	-6.0646	-0.4768	0.3475	0.5021	-0.6322
10.45	0.2221	-9.6480	2.5687	-0.0123	-0.0208	-0.0096	11.5461	27.1051	-6.2273	-0.4767	0.3475	0.5023	-0.6323
10.46	0.2216	-9.6773	2.5706	-0.0111	-0.0197	-0.0103	11.5874	27.1613	-5.7727	-0.4766	0.3474	0.5024	-0.6323
10.47	0.2419	-9.6926	2.5848	-0.0046	-0.0257	-0.0103	11.7632	27.0419	-6.0229	-0.4764	0.3473	0.5024	-0.6324
10.48	0.2607	-9.7048	2.5891	0.0023	-0.0239	-0.0098	11.7071	27.0478	-6.1631	-0.4763	0.3472	0.5026	-0.6325
10.49	0.2828	-9.6861	2.5858	0.0131	-0.0164	-0.0106	11.8076	27.1740	-6.2200	-0.4762	0.3471	0.5026	-0.6325
10.5	0.3079	-9.6587	2.5946	0.0066	-0.0199	-0.0117	11.7826	27.2674	-6.0580	-0.4762	0.3470	0.5027	-0.6326
10.51	0.3237	-9.6644	2.6089	0.0126	-0.0114	-0.0089	11.7232	27.0178	-5.9483	-0.4761	0.3469	0.5026	-0.6327
10.52	0.3142	-9.6698	2.6124	0.0147	-0.0021	-0.0100	11.7450	27.0749	-5.8384	-0.4761	0.3469	0.5027	-0.6328
10.53	0.2984	-9.6630	2.6135	0.0150	0.0009	-0.0070	11.4178	27.1449	-6.0244	-0.4760	0.3468	0.5026	-0.6329
10.54	0.2768	-9.6426	2.6232	0.0139	0.0122	-0.0089	11.6539	27.1374	-5.7807	-0.4760	0.3468	0.5026	-0.6329
10.55	0.2603	-9.6216	2.6226	0.0144	0.0097	-0.0092	12.1794	27.1136	-5.7437	-0.4760	0.3467	0.5025	-0.6329
10.56	0.2523	-9.6023	2.6200	0.0149	0.0107	-0.0090	12.3694	27.1662	-5.8898	-0.4760	0.3467	0.5025	-0.6330
10.57	0.2522	-9.5786	2.6261	0.0139	0.0022	-0.0093	11.8786	27.4092	-5.7560	-0.4760	0.3467	0.5025	-0.6331
10.58	0.2484	-9.5654	2.6326	0.0170	0.0046	-0.0090	11.8040	27.3649	-5.7845	-0.4759	0.3466	0.5024	-0.6331
10.59	0.2469	-9.5638	2.6377	-0.0008	0.0097	-0.0114	11.8485	27.2313	-6.1556	-0.4760	0.3466	0.5025	-0.6332
10.6	0.2508	-9.5645	2.6405	-0.0122	0.0088	-0.0094	11.7909	26.8986	-6.0610	-0.4759	0.3466	0.5025	-0.6331
10.61	0.2593	-9.5763	2.6382	-0.0123	0.0105	-0.0085	11.8816	26.8355	-6.1204	-0.4759	0.3467	0.5026	-0.6332
10.62	0.2601	-9.5917	2.6345	-0.0117	0.0152	-0.0117	12.0157	26.9773	-5.9595	-0.4758	0.3467	0.5025	-0.6331
10.63	0.2583	-9.6136	2.6290	-0.0114	0.0159	-0.0136	11.9798	26.8069	-6.0432	-0.4758	0.3468	0.5026	-0.6331
10.64	0.2649	-9.6314	2.6316	-0.0224	0.0048	-0.0116	11.6512	26.9460	-6.0701	-0.4757	0.3468	0.5027	-0.6331
10.65	0.2661	-9.6470	2.6327	-0.0205	0.0086	-0.0095	11.6325	26.8598	-5.8646	-0.4756	0.3468	0.5027	-0.6330
10.66	0.2690	-9.6523	2.6292	-0.0172	0.0100	-0.0099	11.7224	26.8682	-6.0320	-0.4756	0.3469	0.5028	-0.6330
10.67	0.2762	-9.6497	2.6218	-0.0159	0.0094	-0.0100	11.6242	26.9753	-5.8077	-0.4755	0.3469	0.5029	-0.6330
10.68	0.2721	-9.6534	2.6223	-0.0178	0.0123	-0.0095	11.5978	26.9646	-5.8840	-0.4755	0.3470	0.5029	-0.6330
10.69	0.2625	-9.6571	2.6184	-0.0164	0.0118	-0.0100	11.4310	27.2540	-5.9266	-0.4754	0.3470	0.5029	-0.6329
10.7	0.2543	-9.6454	2.6034	-0.0117	0.0125	-0.0083	11.7154	27.1664	-5.7928	-0.4754	0.3471	0.5030	-0.6329
10.71	0.2479	-9.6398	2.5945	-0.0129	0.0083	-0.0087	11.5370	27.1209	-6.0133	-0.4753	0.3471	0.5031	-0.6329
10.72	0.2498	-9.6464	2.5848	-0.0220	0.0126	-0.0106	11.3847	27.0510	-5.9398	-0.4752	0.3472	0.5031	-0.6328
10.73	0.2501	-9.6714	2.5776	-0.0209	0.0054	-0.0082	11.7299	27.0184	-5.6858	-0.4752	0.3472	0.5032	-0.6328
10.74	0.2524	-9.6888	2.5751	-0.0120	0.0065	-0.0040	11.6508	27.1929	-5.7504	-0.4751	0.3472	0.5032	-0.6328
10.75	0.2558	-9.7087	2.5779	-0.0108	0.0113	-0.0103	11.7303	27.2069	-5.6595	-0.4751	0.3473	0.5033	-0.6328
10.76	0.2545	-9.7271	2.5820	-0.0036	0.0050	-0.0093	11.6162	27.2382	-5.6045	-0.4750	0.3472	0.5033	-0.6328
10.77	0.2492	-9.7317	2.5808	0.0030	0.0070	-0.0077	11.7116	26.9531	-5.7821	-0.4750	0.3473	0.5033	-0.6329
10.78	0.2521	-9.7241	2.5840	0.0132	0.0099	-0.0083	11.9408	26.8411	-5.6258	-0.4749	0.3472	0.5033	-0.6329
10.79	0.2493	-9.7080	2.5881	0.0138	0.0168	-0.0095	11.7409	26.8515	-5.7375	-0.4750	0.3472	0.5032	-0.6329
10.8	0.2483	-9.6922	2.5856	0.0158	0.0164	-0.0083	11.9559	26.9615	-6.0688	-0.4750	0.3472	0.5032	-0.6330
10.81	0.2447	-9.6818	2.5908	0.0144	0.0225	-0.0019	11.8579	26.9142	-5.7861	-0.4750	0.3473	0.5031	-0.6330
10.82	0.2388	-9.6662	2.5947	0.0187	0.0252	-0.0074	11.5941	27.0365	-5.9307	-0.4750	0.3473	0.5030	-0.6331
10.83	0.2256	-9.6389	2.5965	0.0178	0.0286	-0.0083	11.8226	26.9284	-6.1133	-0.4750	0.3473	0.5029	-0.6331
10.84	0.2137	-9.6263	2.5968	0.0203	0.0307	-0.0055	11.9144	27.0872	-5.8791	-0.4751	0.3473	0.5028	-0.6332
10.85	0.2032	-9.6200	2.5970	0.0190	0.0266	-0.0067	11.7966	27.0756	-5.8992	-0.4751	0.3473	0.5027	-0.6332
10.86	0.1929	-9.6187	2.6019	0.0098	0.0281	-0.0074	11.8314	27.0780	-5.9737	-0.4752	0.3474	0.5026	-0.6332
10.87	0.1806	-9.6164	2.6042	0.0158	0.0326	-0.0081	11.8247	27.1453	-6.0968	-0.4752	0.3474	0.5025	-0.6332
10.88	0.1707	-9.6221	2.5989	0.0093	0.0284	-0.0094	11.9202	27.1166	-6.0010	-0.4752	0.3475	0.5024	-0.6332
10.89	0.1606	-9.6248	2.6047	0.0069	0.0299	-0.0087	11.7390	27.2973	-5.9244	-0.4753	0.3475	0.5024	-0.6332
10.9	0.1545	-9.6216	2.5984	0.0015	0.0193	-0.0100	11.7239	27.3087	-5.6683	-0.4752	0.3475	0.5023	-0.6332
10.91	0.1665	-9.6281	2.5985	-0.0056	0.0165	-0.0089	11.7507	27.0963	-5.9733	-0.4753	0.3476	0.5024	-0.6333
10.92	0.1811	-9.6353	2.6008	0.0064	0.0169	-0.0085	11.6816	27.1437	-6.0004	-0.4752	0.3476	0.5023	-0.6332
10.93	0.1884	-9.6588	2.6023	-0.0067	0.0129	-0.0091	11.6283	27.0636	-6.0027	-0.4752	0.3477	0.5024	-0.6333
10.94	0.1817	-9.6777	2.6031	0.0046	0.0161	-0.0085	11.6305	27.0074	-5.9858	-0.4752	0.3476	0.5023	-0.6332
10.95	0.1713	-9.6724	2.5986	-0.0058	0.0088	-0.0094	11.7739	27.0663	-6.0148	-0.4752	0.3477	0.5023	-0.6333
10.96	0.1600	-9.6503	2.5869	-0.0028	0.0053	-0.0105	12.1627	27.1247	-6.3161	-0.4751	0.3477	0.5023	-0.6333
10.97	0.1538	-9.6332	2.5754	0.0009	0.0042	-0.0055	11.9028	26.8539	-6.1131	-0.4750	0.3477	0.5023	-0.6333
10.98	0.1610	-9.6308	2.5739	-0.0114	0.0013	-0.0061	11.8132	26.8452	-5.9650	-0.4750	0.3477	0.5024	-0.6333
10.99	0.1804	-9.6615	2.5808	-0.0093	-0.0027	-0.0108	12.0603	27.0116	-5.8881	-0.4749	0.3477	0.5025	-0.6333
11	0.1922	-9.6909	2.5926	-0.0108	0.0008	-0.0099	11.9155	27.0402	-5.9141	-0.4748	0.3477	0.5026	-0.6334
11.01	0.2076	-9.7120	2.5906	-0.0035	0.0021	-0.0101	11.8972	27.0398	-5.8940	-0.4747	0.3476	0.5025	-0.6333
11.02	0.2213	-9.7183	2.5892	0.0040	0.0020	-0.0099	11.9310	27.0118	-5.9261	-0.4747	0.3476	0.5026	-0.6334
11.03	0.2295	-9.7011	2.5882	0.0125	0.0025	-0.0089	12.0114	26.7768	-5.8505	-0.4747	0.3476	0.5026	-0.6335
11.04	0.2313	-9.6999	2.5799	0.0125	0.0064	-0.0091	12.0358	27.0370	-5.7337	-0.4747	0.3476	0.5026	-0.6335
11.05	0.2184	-9.6914	2.5723	0.0132	0.0167	-0.0085	12.2300	27.1231	-5.6887	-0.4747	0.3475	0.5025	-0.6335
11.06	0.1996	-9.6645	2.5660	0.0133	0.0199	-0.0093	12.1987	27.2550	-5.6237	-0.4747	0.3475	0.5024	-0.6336
11.07	0.1749	-9.6349	2.5567	0.0139	0.0238	-0.0090	12.0822	27.3447	-5.8332	-0.4747	0.3476	0.5024	-0.6336
11.08	0.1461	-9.6174	2.5517	0.0132	0.0160	-0.0095	12.1249	27.5246	-5.9887	-0.4747	0.3475	0.5023	-0.6336
11.09	0.1303	-9.6166	2.5488	0.0134	0.0161	-0.0098	11.7896	27.0550	-5.8568	-0.4748	0.3476	0.5023	-0.6337
11.1	0.1295	-9.6185	2.5638	0.0088	0.0074	-0.0188	11.8410	26.8570	-5.8016	-0.4747	0.3475	0.5022	-0.6337
11.11	0.1307	-9.6307	2.5719	0.0083	0.0071	-0.0153	11.8269	27.0266	-6.0509	-0.4748	0.3475	0.5023	-0.6338
11.12	0.1422	-9.6413	2.5773	0.0069	-0.0058	-0.0177	11.8173	26.8180	-6.0544	-0.4747	0.3474	0.5022	-0.6338
11.13	0.1632	-9.6487	2.5809	0.0052	-0.0185	-0.0164	11.8393	27.0353	-5.9483	-0.4746	0.3473	0.5023	-0.6339
11.14	0.1780	-9.6624	2.5843	-0.0016	-0.0146	-0.0137	11.9650	27.2125	-5.9027	-0.4746	0.3472	0.5024	-0.6339
11.15	0.1890	-9.6762	2.5849	0.0000	-0.0204	-0.0204	11.8037	27.2506	-6.1903	-0.4745	0.3471	0.5025	-0.6339
11.16	0.2029	-9.6830	2.5757	-0.0043	-0.0217	-0.0140	11.8438	26.9106	-5.9916	-0.4744	0.3470	0.5026	-0.6340
11.17	0.2254	-9.6843	2.5721	-0.0030	-0.0227	-0.0132	11.9289	26.7158	-6.0462	-0.4743	0.3469	0.5027	-0.6340
11.18	0.2476	-9.6839	2.5700	0.0029	-0.0229	-0.0145	11.8811	26.9194	-6.0239	-0.4742	0.3468	0.5028	-0.6341
11.19	0.2549	-9.6592	2.5623	0.0007	-0.0275	-0.0127	11.6054	27.1425	-6.0277	-0.4740	0.3466	0.5028	-0.6341
11.2	0.2551	-9.6714	2.5669	-0.0010	-0.0175	-0.0113	11.6978	27.0500	-6.1776	-0.4740	0.3466	0.5030	-0.6343
11.21	0.2699	-9.7072	2.5825	0.0101	-0.0201	-0.0085	11.8706	26.9976	-6.0414	-0.4739	0.3465	0.5030	-0.6343
11.22	0.2824	-9.7081	2.5881	0.0189	-0.0179	-0.0083	11.8018	26.9467	-6.1038	-0.4738	0.3463	0.5030	-0.6344
11.23	0.3006	-9.7007	2.5961	0.0136	-0.0244	-0.0111	11.8405	27.0452	-6.1379	-0.4737	0.3462	0.5031	-0.6346
11.24	0.3193	-9.6564	2.6075	0.0234	-0.0155	-0.0096	11.8061	27.0908	-5.9911	-0.4737	0.3461	0.5031	-0.6347
11.25	0.3235	-9.6247	2.6128	0.0212	-0.0039	-0.0095	11.6623	27.0974	-6.1018	-0.4736	0.3460	0.5030	-0.6348
11.26	0.2986	-9.6222	2.6157	0.0141	0.0109	-0.0064	12.0356	27.0211	-6.2365	-0.4736	0.3459	0.5029	-0.6348
11.27	0.2719	-9.6167	2.6209	0.0142	0.0183	-0.0024	11.9789	27.0614	-6.0879	-0.4736	0.3460	0.5029	-0.6349
11.28	0.2437	-9.6216	2.6214	0.0095	0.0184	-0.0078	11.9147	27.0387	-6.0040	-0.4736	0.3460	0.5029	-0.6349
11.29	0.2127	-9.6231	2.6193	0.0096	0.0182	-0.0089	11.8066	27.0489	-5.8161	-0.4736	0.3460	0.5028	-0.6350
11.3	0.1972	-9.6166	2.6104	0.0073	0.0280	-0.0089	11.5673	27.1356	-6.0826	-0.4736	0.3460	0.5027	-0.6349
11.31	0.1841	-9.6144	2.6141	0.0026	0.0332	-0.0086	11.8700	27.0181	-6.1121	-0.4737	0.3461	0.5027	-0.6349
11.32	0.1725	-9.6168	2.6135	0.0071	0.0191	-0.0076	11.8633	27.0857	-6.0014	-0.4737	0.3461	0.5027	-0.6350
11.33	0.1660	-9.6189	2.6141	0.0118	0.0194	-0.0094	11.8071	26.8722	-6.0618	-0.4736	0.3461	0.5026	-0.6349
11.34	0.1581	-9.6298	2.6221	0.0042	0.0286	-0.0115	11.9095	26.8624	-6.0066	-0.4737	0.3462	0.5026	-0.6350
11.35	0.1528	-9.6402	2.6137	0.0016	0.0251	-0.0107	11.8265	27.0407	-6.0841	-0.4737	0.3462	0.5025	-0.6350
11.36	0.1410	-9.6391	2.6090	-0.0004	0.0194	-0.0117	11.9748	27.0085	-6.1608	-0.4738	0.3463	0.5025	-0.6350
11.37	0.1320	-9.6428	2.6072	-0.0083	0.0143	-0.0108	11.7763	26.7436	-5.9926	-0.4737	0.3463	0.5025	-0.6349
11.38	0.1403	-9.6469	2.6046	-0.0060	0.0074	-0.0094	11.8807	27.0408	-6.1978	-0.4736	0.3463	0.5025	-0.6350
11.39	0.1495	-9.6502	2.6033	0.0033	0.0063	-0.0096	11.8906	27.0327	-6.1885	-0.4736	0.3463	0.5025	-0.6350
11.4	0.1647	-9.6560	2.5999	0.0037	0.0053	-0.0099	11.6952	27.1287	-6.0167	-0.4735	0.3463	0.5025	-0.6350
11.41	0.1729	-9.6661	2.6010	0.0067	-0.0037	-0.0084	11.9655	27.1503	-6.1474	-0.4735	0.3463	0.5026	-0.6351
11.42	0.1768	-9.6666	2.6000	0.0118	-0.0003	-0.0083	12.0103	26.9878	-6.2681	-0.4735	0.3462	0.5025	-0.6351
11.43	0.1839	-9.6651	2.6018	0.0101	-0.0032	-0.0100	11.7918	27.1474	-6.0926	-0.4735	0.3462	0.5026	-0.6352
11.44	0.1894	-9.6682	2.6039	0.0131	0.0051	-0.0089	11.9471	27.1057	-5.9140	-0.4734	0.3461	0.5025	-0.6352
11.45	0.1963	-9.6638	2.6066	0.0127	-0.0008	-0.0096	11.8691	27.1934	-6.0919	-0.4734	0.3461	0.5025	-0.6353
11.46	0.1991	-9.6650	2.6157	0.0141	0.0042	-0.0093	11.8634	26.9965	-6.1542	-0.4733	0.3460	0.5025	-0.6354
11.47	0.1988	-9.6663	2.6203	0.0144	0.0115	-0.0080	11.9349	27.0155	-6.0426	-0.4733	0.3460	0.5024	-0.6354
11.48	0.2003	-9.6577	2.6221	0.0140	0.0058	-0.0088	11.9096	27.2368	-6.0269	-0.4733	0.3460	0.5024	-0.6355
11.49	0.1952	-9.6442	2.6224	0.0139	0.0109	-0.0082	12.0253	26.8865	-5.9121	-0.4733	0.3459	0.5024	-0.6356
11.5	0.1962	-9.6410	2.6225	0.0142	0.0053	-0.0089	11.7926	26.9945	-6.0095	-0.4733	0.3459	0.5024	-0.6356
11.51	0.1982	-9.6337	2.6275	0.0140	0.0062	-0.0079	11.9152	26.9455	-6.0585	-0.4732	0.3458	0.5023	-0.6356
11.52	0.1934	-9.6348	2.6318	0.0136	0.0122	-0.0124	12.0149	27.0675	-6.1116	-0.4733	0.3458	0.5023	-0.6358
11.53	0.1930	-9.6318	2.6331	0.0155	0.0092	-0.0127	11.8388	26.7544	-6.1702	-0.4733	0.3458	0.5022	-0.6358
11.54	0.1930	-9.6320	2.6371	0.0153	0.0130	-0.0172	12.1259	27.0804	-5.9584	-0.4733	0.3458	0.5022	-0.6358
11.55	0.1871	-9.6240	2.6328	0.0142	0.0142	-0.0110	12.4912	27.0143	-5.8501	-0.4733	0.3457	0.5021	-0.6358
