time	acceleration_x	acceleration_y	acceleration_z	gyroscope_x	gyroscope_y	gyroscope_z	magnetometer_x	magnetometer_y	magnetometer_z	quaternion_w	quaternion_x	quaternion_y	quaternion_z
0	-9.4853	-0.1248	-1.6228	-0.0200	-0.0002	-0.0043	29.2768	2.6116	14.8244	0.6452	0.0010	0.7640	-0.0090
0.01	-9.4841	-0.1219	-1.6202	-0.0231	-0.0049	-0.0036	29.5656	2.9953	15.0457	0.6452	0.0009	0.7640	-0.0090
0.02	-9.4873	-0.1185	-1.6272	-0.0207	-0.0072	-0.0040	29.4667	2.9111	15.2359	0.6452	0.0009	0.7640	-0.0089
0.03	-9.4932	-0.1211	-1.6079	-0.0181	-0.0034	-0.0054	29.1284	2.8510	15.1467	0.6452	0.0009	0.7639	-0.0089
0.04	-9.4911	-0.1140	-1.6127	-0.0205	-0.0075	-0.0032	29.2997	2.8288	15.3061	0.6453	0.0009	0.7640	-0.0089
0.05	-9.4955	-0.0992	-1.6176	-0.0252	-0.0108	-0.0023	29.3754	2.7030	15.2540	0.6453	0.0009	0.7639	-0.0089
0.06	-9.4980	-0.0988	-1.6059	-0.0211	-0.0067	-0.0011	29.4606	2.6463	15.3096	0.6453	0.0009	0.7640	-0.0089
0.07	-9.4858	-0.1005	-1.6133	-0.0161	-0.0028	-0.0035	29.3171	2.9190	15.1578	0.6453	0.0009	0.7638	-0.0089
0.08	-9.4886	-0.0851	-1.6245	-0.0157	0.0043	-0.0033	29.1554	2.8633	15.2056	0.6453	0.0009	0.7639	-0.0089
0.09	-9.4837	-0.0775	-1.6196	-0.0207	0.0005	-0.0067	29.5221	2.8821	15.3220	0.6453	0.0009	0.7639	-0.0089
0.1	-9.4882	-0.0812	-1.6063	-0.0232	-0.0027	-0.0042	29.4019	2.9447	15.4781	0.6452	0.0009	0.7639	-0.0089
0.11	-9.4846	-0.0739	-1.5964	-0.0150	-0.0029	-0.0013	29.4022	3.0016	15.1535	0.6453	0.0009	0.7640	-0.0088
0.12	-9.4919	-0.0720	-1.5940	-0.0166	-0.0031	-0.0054	29.3046	3.1018	15.0572	0.6453	0.0009	0.7639	-0.0089
0.13	-9.4934	-0.0866	-1.5826	-0.0228	-0.0030	-0.0033	29.1515	2.8608	15.1397	0.6453	0.0009	0.7640	-0.0088
0.14	-9.4907	-0.0879	-1.5745	-0.0178	-0.0028	-0.0049	29.3814	2.9537	15.3876	0.6452	0.0009	0.7638	-0.0088
0.15	-9.4886	-0.0978	-1.5901	-0.0138	-0.0018	-0.0044	29.3481	2.8513	15.2043	0.6453	0.0009	0.7639	-0.0088
0.16	-9.4936	-0.1036	-1.5730	-0.0151	-0.0087	-0.0030	29.3454	2.7305	15.2270	0.6453	0.0009	0.7639	-0.0089
0.17	-9.4923	-0.0976	-1.5782	-0.0228	-0.0114	-0.0049	29.4126	2.6676	15.2938	0.6453	0.0009	0.7638	-0.0088
0.18	-9.4949	-0.1015	-1.5899	-0.0146	-0.0093	-0.0034	29.5353	3.0078	15.2701	0.6454	0.0009	0.7639	-0.0088
0.19	-9.4950	-0.1015	-1.5985	-0.0156	-0.0090	-0.0065	29.3788	2.9117	15.1119	0.6454	0.0009	0.7638	-0.0089
0.2	-9.4866	-0.0985	-1.5913	-0.0180	-0.0028	-0.0047	29.3466	2.8465	15.1429	0.6454	0.0009	0.7638	-0.0089
0.21	-9.4887	-0.1039	-1.5968	-0.0205	-0.0070	-0.0027	29.3632	2.9549	15.1968	0.6453	0.0009	0.7637	-0.0088
0.22	-9.4854	-0.1045	-1.5923	-0.0154	-0.0015	-0.0048	29.3352	2.9648	15.2715	0.6454	0.0009	0.7638	-0.0089
0.23	-9.4774	-0.1236	-1.6007	-0.0185	-0.0034	-0.0016	29.2526	2.7728	15.1125	0.6454	0.0009	0.7638	-0.0088
0.24	-9.4880	-0.1118	-1.6114	-0.0212	-0.0044	-0.0054	29.2895	2.8698	15.3626	0.6454	0.0009	0.7638	-0.0088
0.25	-9.4929	-0.1173	-1.6053	-0.0223	-0.0061	-0.0023	29.2458	2.8522	15.2563	0.6454	0.0009	0.7638	-0.0088
0.26	-9.4880	-0.1221	-1.5909	-0.0162	-0.0057	-0.0026	29.4330	2.8105	15.1689	0.6454	0.0009	0.7638	-0.0088
0.27	-9.4911	-0.1249	-1.5883	-0.0191	-0.0006	-0.0076	29.3776	3.0461	15.1690	0.6454	0.0009	0.7638	-0.0088
0.28	-9.4874	-0.1386	-1.5762	-0.0104	0.0025	-0.0012	29.3504	2.7578	15.2681	0.6454	0.0009	0.7637	-0.0088
0.29	-9.4852	-0.1471	-1.5839	-0.0157	0.0010	-0.0033	29.3381	2.7165	15.2716	0.6454	0.0009	0.7638	-0.0088
0.3	-9.4808	-0.1385	-1.5863	-0.0215	-0.0033	-0.0055	29.1353	2.8169	15.1435	0.6454	0.0009	0.7638	-0.0088
0.31	-9.4853	-0.1346	-1.6051	-0.0128	-0.0011	-0.0061	29.2716	2.9607	15.4684	0.6454	0.0009	0.7639	-0.0088
0.32	-9.4877	-0.1485	-1.5989	-0.0194	-0.0005	-0.0038	29.2742	2.9391	15.3296	0.6453	0.0009	0.7638	-0.0088
0.33	-9.4888	-0.1420	-1.5864	-0.0184	0.0014	0.0003	29.2580	2.7618	15.2737	0.6454	0.0009	0.7638	-0.0088
0.34	-9.4994	-0.1393	-1.5761	-0.0154	-0.0020	-0.0031	29.4889	2.7815	15.2227	0.6454	0.0009	0.7638	-0.0088
0.35	-9.4958	-0.1351	-1.5698	-0.0083	-0.0064	-0.0016	29.5145	2.8771	15.1691	0.6453	0.0010	0.7638	-0.0089
0.36	-9.4897	-0.1267	-1.5871	-0.0164	-0.0031	-0.0039	29.5415	2.8626	15.1919	0.6454	0.0010	0.7639	-0.0089
0.37	-9.4853	-0.1253	-1.6078	-0.0227	-0.0080	-0.0042	29.3229	2.6541	15.0546	0.6454	0.0010	0.7638	-0.0088
0.38	-9.4806	-0.1203	-1.6223	-0.0093	-0.0054	-0.0046	29.3239	2.7386	15.1741	0.6455	0.0010	0.7638	-0.0089
0.39	-9.4742	-0.1177	-1.6227	-0.0108	-0.0097	-0.0042	29.3580	2.6723	15.2073	0.6454	0.0010	0.7637	-0.0089
0.4	-9.4890	-0.1227	-1.6247	-0.0204	-0.0078	-0.0030	29.3848	2.8570	15.0378	0.6455	0.0010	0.7638	-0.0089
0.41	-9.4862	-0.1267	-1.6195	-0.0150	-0.0056	-0.0020	29.4176	2.9985	15.2027	0.6455	0.0010	0.7637	-0.0089
0.42	-9.4853	-0.1227	-1.6121	-0.0173	-0.0067	-0.0036	29.3078	2.8747	15.3081	0.6455	0.0010	0.7637	-0.0089
0.43	-9.4870	-0.1168	-1.6091	-0.0077	-0.0046	0.0010	29.4750	2.7780	15.1560	0.6455	0.0011	0.7637	-0.0089
0.44	-9.4764	-0.1150	-1.5916	-0.0022	-0.0064	-0.0032	29.2850	2.8043	15.0744	0.6455	0.0011	0.7637	-0.0090
0.45	-9.4916	-0.0969	-1.5949	-0.0168	-0.0060	-0.0021	29.2862	2.9462	15.1203	0.6456	0.0011	0.7637	-0.0090
0.46	-9.4910	-0.0941	-1.5897	-0.0148	-0.0016	0.0009	29.2548	3.0184	14.9736	0.6455	0.0012	0.7636	-0.0089
0.47	-9.4900	-0.0872	-1.5876	-0.0166	-0.0089	-0.0003	29.4104	3.0741	15.1423	0.6456	0.0012	0.7637	-0.0089
0.48	-9.4864	-0.0782	-1.5873	-0.0125	0.0029	-0.0045	29.3971	2.9523	15.3203	0.6455	0.0012	0.7637	-0.0090
0.49	-9.4925	-0.0848	-1.5807	-0.0158	0.0017	-0.0038	29.3355	2.7757	15.1845	0.6455	0.0012	0.7637	-0.0090
0.5	-9.4863	-0.0846	-1.5705	-0.0192	-0.0055	-0.0018	29.3673	2.8583	15.1708	0.6455	0.0012	0.7637	-0.0090
0.51	-9.4823	-0.0876	-1.5726	-0.0209	-0.0038	-0.0053	29.2319	2.9257	15.2040	0.6455	0.0012	0.7637	-0.0089
0.52	-9.4879	-0.0944	-1.5702	-0.0157	-0.0058	-0.0035	29.1491	3.0770	15.2950	0.6456	0.0012	0.7637	-0.0089
0.53	-9.4948	-0.1073	-1.5739	-0.0087	-0.0021	-0.0028	29.3581	2.9595	15.1723	0.6455	0.0012	0.7636	-0.0090
0.54	-9.4946	-0.1083	-1.5765	-0.0158	-0.0008	-0.0020	29.3522	2.8285	15.1790	0.6456	0.0013	0.7637	-0.0090
0.55	-9.4873	-0.1088	-1.5762	-0.0118	-0.0059	-0.0030	29.3765	2.6821	15.0627	0.6455	0.0013	0.7637	-0.0090
0.56	-9.4832	-0.1077	-1.5749	-0.0116	-0.0007	-0.0043	29.2832	2.9124	15.3980	0.6456	0.0013	0.7637	-0.0090
0.57	-9.4865	-0.1011	-1.5712	-0.0232	-0.0025	-0.0020	29.2712	2.7565	15.1467	0.6455	0.0013	0.7636	-0.0090
0.58	-9.4875	-0.1009	-1.5743	-0.0165	-0.0090	-0.0049	29.2705	2.8171	15.1152	0.6456	0.0013	0.7637	-0.0090
0.59	-9.4967	-0.1130	-1.5643	-0.0177	-0.0060	-0.0027	29.4841	2.9141	15.3740	0.6456	0.0013	0.7636	-0.0090
0.6	-9.4894	-0.1040	-1.5776	-0.0107	-0.0025	-0.0041	29.7873	3.0776	15.3644	0.6455	0.0013	0.7636	-0.0090
0.61	-9.4871	-0.1064	-1.5709	-0.0182	-0.0074	-0.0066	29.6303	2.8474	15.2082	0.6457	0.0013	0.7637	-0.0090
0.62	-9.4944	-0.1167	-1.5884	-0.0154	-0.0003	-0.0026	29.4697	2.8878	15.2002	0.6456	0.0013	0.7636	-0.0090
0.63	-9.4907	-0.1235	-1.5914	-0.0199	-0.0078	-0.0022	29.1089	3.1452	15.1293	0.6457	0.0013	0.7637	-0.0090
0.64	-9.4924	-0.1100	-1.5875	-0.0215	-0.0023	-0.0064	29.2235	3.0954	15.0488	0.6456	0.0013	0.7635	-0.0090
0.65	-9.4916	-0.1196	-1.5948	-0.0192	0.0019	-0.0020	29.1394	3.1471	15.3665	0.6456	0.0013	0.7636	-0.0090
0.66	-9.4873	-0.1182	-1.6043	-0.0237	-0.0008	-0.0064	29.1478	3.0568	15.0929	0.6456	0.0013	0.7636	-0.0090
0.67	-9.4877	-0.1180	-1.6024	-0.0174	-0.0029	-0.0053	29.2040	3.0343	14.9447	0.6456	0.0013	0.7636	-0.0090
0.68	-9.4869	-0.1246	-1.6048	-0.0157	-0.0002	-0.0042	29.2785	3.0317	15.2330	0.6456	0.0013	0.7637	-0.0090
0.69	-9.4874	-0.1230	-1.6039	-0.0091	-0.0048	-0.0083	29.3654	2.9388	15.2869	0.6456	0.0013	0.7636	-0.0090
0.7	-9.4890	-0.1317	-1.6130	-0.0155	0.0004	-0.0058	29.3546	2.9603	15.2337	0.6456	0.0013	0.7637	-0.0090
0.71	-9.4911	-0.1275	-1.6079	-0.0148	0.0025	-0.0119	29.2734	2.9686	15.0634	0.6455	0.0013	0.7636	-0.0091
0.72	-9.4952	-0.1363	-1.5963	-0.0170	-0.0071	-0.0010	29.2711	2.8295	15.2411	0.6456	0.0013	0.7637	-0.0091
0.73	-9.4951	-0.1232	-1.6112	-0.0212	-0.0079	-0.0053	29.4106	2.8008	15.1121	0.6456	0.0013	0.7636	-0.0091
0.74	-9.4858	-0.1220	-1.6069	-0.0194	-0.0077	-0.0067	29.4900	2.7258	15.1742	0.6456	0.0013	0.7636	-0.0091
0.75	-9.4863	-0.1120	-1.5924	-0.0176	-0.0063	-0.0042	29.6201	2.7105	15.2163	0.6456	0.0013	0.7636	-0.0091
0.76	-9.4819	-0.1089	-1.5991	-0.0222	-0.0073	-0.0047	29.4462	2.8248	15.0562	0.6456	0.0013	0.7636	-0.0090
0.77	-9.4856	-0.1085	-1.5893	-0.0227	-0.0076	-0.0032	29.2752	2.9556	15.1723	0.6457	0.0012	0.7636	-0.0090
0.78	-9.4878	-0.1016	-1.6006	-0.0194	-0.0031	-0.0039	29.2527	2.8872	15.1942	0.6456	0.0012	0.7635	-0.0090
0.79	-9.4917	-0.1085	-1.5978	-0.0217	-0.0053	-0.0033	29.3896	2.7714	15.1822	0.6457	0.0012	0.7636	-0.0090
0.8	-9.4883	-0.1063	-1.5869	-0.0228	-0.0036	-0.0041	29.2907	2.7954	15.3623	0.6457	0.0012	0.7635	-0.0090
0.81	-9.4825	-0.1040	-1.5853	-0.0168	-0.0049	-0.0045	29.2699	2.8263	15.3118	0.6457	0.0012	0.7636	-0.0090
0.82	-9.4953	-0.0970	-1.5728	-0.0181	-0.0037	-0.0046	29.2522	2.9932	15.1634	0.6457	0.0012	0.7635	-0.0090
0.83	-9.4939	-0.0929	-1.5688	-0.0181	-0.0013	-0.0039	29.3125	3.0233	15.1912	0.6457	0.0012	0.7635	-0.0090
0.84	-9.4860	-0.0956	-1.5759	-0.0156	-0.0009	-0.0064	29.3243	3.0863	15.1805	0.6457	0.0012	0.7636	-0.0090
0.85	-9.4780	-0.0954	-1.5842	-0.0231	-0.0010	-0.0066	29.1824	2.8634	15.1771	0.6456	0.0012	0.7635	-0.0090
0.86	-9.4962	-0.1062	-1.5902	-0.0206	-0.0037	-0.0062	29.2572	2.8048	15.2987	0.6457	0.0012	0.7636	-0.0090
0.87	-9.4979	-0.0983	-1.5907	-0.0239	-0.0004	-0.0047	29.2146	2.9848	15.1039	0.6457	0.0012	0.7635	-0.0089
0.88	-9.4793	-0.1078	-1.5798	-0.0231	-0.0072	-0.0044	29.4872	3.0008	15.1437	0.6457	0.0011	0.7636	-0.0089
0.89	-9.4935	-0.1132	-1.5983	-0.0244	0.0013	-0.0048	29.2494	3.0668	15.2930	0.6456	0.0011	0.7635	-0.0089
0.9	-9.4927	-0.1226	-1.6003	-0.0187	-0.0035	-0.0071	29.2605	2.9117	15.2550	0.6457	0.0011	0.7636	-0.0089
0.91	-9.4992	-0.1274	-1.5915	-0.0215	-0.0122	-0.0019	29.3110	2.8345	15.1277	0.6457	0.0011	0.7635	-0.0089
0.92	-9.4983	-0.1211	-1.5963	-0.0170	-0.0035	-0.0069	29.4213	2.7182	15.0784	0.6457	0.0011	0.7635	-0.0089
0.93	-9.4870	-0.1190	-1.6102	-0.0210	-0.0051	-0.0064	29.5451	2.6075	15.2388	0.6457	0.0011	0.7635	-0.0089
0.94	-9.4836	-0.1186	-1.6056	-0.0219	-0.0040	-0.0076	29.4566	2.9170	15.1362	0.6457	0.0010	0.7635	-0.0089
0.95	-9.4887	-0.1189	-1.6059	-0.0191	-0.0050	-0.0035	29.4742	2.9394	15.1265	0.6458	0.0010	0.7635	-0.0089
0.96	-9.4872	-0.1149	-1.6061	-0.0201	-0.0051	-0.0054	29.5442	2.7583	15.3249	0.6457	0.0010	0.7634	-0.0089
0.97	-9.4896	-0.1066	-1.6116	-0.0133	-0.0064	-0.0026	29.1907	2.9231	15.1242	0.6458	0.0010	0.7635	-0.0089
0.98	-9.4882	-0.0923	-1.6081	-0.0189	-0.0074	-0.0061	29.3595	2.9470	15.1261	0.6458	0.0010	0.7635	-0.0089
0.99	-9.4845	-0.0904	-1.6062	-0.0179	-0.0033	-0.0048	29.2852	2.7618	15.2414	0.6458	0.0010	0.7635	-0.0089
1	-9.4910	-0.0946	-1.5995	-0.0135	-0.0064	-0.0080	29.2620	2.9010	15.0462	0.6458	0.0010	0.7634	-0.0089
1.01	-9.4936	-0.0900	-1.5961	-0.0213	-0.0020	-0.0048	29.2848	2.8380	15.1750	0.6458	0.0010	0.7635	-0.0089
1.02	-9.4957	-0.0984	-1.6079	-0.0232	-0.0041	-0.0031	29.2324	2.9704	15.3185	0.6458	0.0010	0.7635	-0.0089
1.03	-9.5004	-0.1040	-1.6227	-0.0227	-0.0022	-0.0025	29.0730	3.1488	15.1611	0.6458	0.0010	0.7634	-0.0089
1.04	-9.4882	-0.1021	-1.6276	-0.0227	-0.0022	-0.0041	29.3289	3.0046	15.2797	0.6458	0.0010	0.7635	-0.0088
1.05	-9.4829	-0.1070	-1.6134	-0.0230	-0.0024	-0.0069	29.3231	3.0703	15.2931	0.6458	0.0010	0.7634	-0.0088
1.06	-9.4893	-0.1100	-1.6145	-0.0231	-0.0045	-0.0054	29.2073	2.9604	15.1544	0.6459	0.0009	0.7635	-0.0088
1.07	-9.4831	-0.1105	-1.6171	-0.0230	-0.0024	-0.0036	29.0951	2.9536	14.9511	0.6458	0.0009	0.7634	-0.0088
1.08	-9.4809	-0.1134	-1.6103	-0.0223	-0.0013	-0.0048	29.1412	2.8343	15.3058	0.6458	0.0009	0.7635	-0.0088
1.09	-9.4920	-0.1208	-1.6186	-0.0231	-0.0065	-0.0085	29.5238	2.9392	15.5540	0.6458	0.0009	0.7635	-0.0088
1.1	-9.4910	-0.1228	-1.6173	-0.0181	-0.0095	-0.0040	29.4218	2.9714	15.4806	0.6458	0.0009	0.7634	-0.0088
1.11	-9.4862	-0.1255	-1.6133	-0.0206	-0.0083	0.0003	29.3843	2.8777	15.2689	0.6459	0.0009	0.7635	-0.0087
1.12	-9.4918	-0.1268	-1.6139	-0.0192	-0.0114	-0.0050	29.3987	2.9222	15.2016	0.6459	0.0009	0.7634	-0.0087
1.13	-9.4917	-0.1183	-1.6075	-0.0170	-0.0073	-0.0060	29.3443	2.7861	15.3231	0.6459	0.0009	0.7634	-0.0087
1.14	-9.4951	-0.1260	-1.5947	-0.0201	-0.0068	-0.0024	29.4408	2.8842	15.1371	0.6459	0.0009	0.7633	-0.0087
1.15	-9.4897	-0.1189	-1.5902	-0.0168	-0.0047	-0.0071	29.3123	3.0056	15.3227	0.6459	0.0009	0.7634	-0.0087
1.16	-9.4867	-0.1207	-1.5856	-0.0188	-0.0055	-0.0038	29.2049	2.7510	15.3251	0.6459	0.0009	0.7633	-0.0087
1.17	-9.4911	-0.1212	-1.6025	-0.0177	-0.0071	-0.0089	29.1529	2.9825	15.1559	0.6459	0.0009	0.7633	-0.0087
1.18	-9.4860	-0.1291	-1.5869	-0.0142	-0.0118	-0.0042	29.3749	2.8515	15.1808	0.6460	0.0009	0.7633	-0.0087
1.19	-9.4847	-0.1171	-1.5845	-0.0173	-0.0091	-0.0015	29.4420	2.7179	15.1801	0.6460	0.0009	0.7633	-0.0087
1.2	-9.4911	-0.1167	-1.5843	-0.0203	-0.0030	-0.0058	29.1975	2.8376	15.1747	0.6460	0.0009	0.7633	-0.0087
1.21	-9.4864	-0.1168	-1.5746	-0.0222	-0.0120	-0.0062	29.1742	2.7836	15.1680	0.6460	0.0008	0.7632	-0.0087
1.22	-9.4863	-0.1211	-1.5781	-0.0216	-0.0035	-0.0033	29.2742	2.8065	15.2847	0.6461	0.0008	0.7633	-0.0087
1.23	-9.4876	-0.1129	-1.5781	-0.0243	-0.0037	-0.0052	29.2767	2.8115	15.2489	0.6461	0.0008	0.7632	-0.0087
1.24	-9.4937	-0.1061	-1.5747	-0.0207	-0.0043	-0.0051	29.4419	2.7714	15.2889	0.6461	0.0008	0.7633	-0.0087
1.25	-9.4792	-0.1121	-1.5700	-0.0183	0.0002	-0.0041	29.3353	3.0133	15.1522	0.6460	0.0008	0.7632	-0.0087
1.26	-9.4779	-0.1100	-1.5746	-0.0242	-0.0039	-0.0026	29.2284	3.0171	15.0659	0.6461	0.0008	0.7632	-0.0086
1.27	-9.4834	-0.1083	-1.5865	-0.0210	-0.0044	-0.0071	29.3306	2.8043	15.2921	0.6461	0.0008	0.7633	-0.0086
1.28	-9.4915	-0.1089	-1.5837	-0.0211	-0.0037	-0.0070	29.3387	3.0821	15.1493	0.6460	0.0007	0.7632	-0.0086
1.29	-9.4838	-0.1096	-1.5834	-0.0199	-0.0051	-0.0070	29.3555	2.9394	15.2999	0.6461	0.0007	0.7633	-0.0086
1.3	-9.4897	-0.1025	-1.5789	-0.0233	-0.0064	-0.0071	29.4404	2.9990	15.2003	0.6461	0.0007	0.7632	-0.0086
1.31	-9.4843	-0.1079	-1.5925	-0.0197	0.0012	-0.0059	29.4209	2.8985	15.1792	0.6461	0.0007	0.7633	-0.0086
1.32	-9.4676	-0.1114	-1.5948	-0.0235	-0.0050	-0.0041	29.4241	2.8863	15.1530	0.6460	0.0007	0.7632	-0.0086
1.33	-9.4865	-0.1129	-1.6040	-0.0161	-0.0062	-0.0043	29.3206	2.7731	15.2328	0.6461	0.0007	0.7632	-0.0086
1.34	-9.4842	-0.1169	-1.6049	-0.0219	-0.0052	-0.0041	29.1920	2.8548	15.2103	0.6461	0.0007	0.7632	-0.0086
1.35	-9.4889	-0.1213	-1.6173	-0.0192	0.0056	-0.0054	29.1755	2.9080	15.1692	0.6460	0.0007	0.7632	-0.0086
1.36	-9.4873	-0.1216	-1.6169	-0.0171	-0.0003	-0.0098	29.3487	2.7771	15.1481	0.6461	0.0006	0.7633	-0.0086
1.37	-9.4960	-0.1271	-1.6105	-0.0230	-0.0063	-0.0065	29.4030	2.5706	15.1445	0.6461	0.0006	0.7632	-0.0086
1.38	-9.4881	-0.1236	-1.6155	-0.0212	-0.0050	-0.0077	29.5486	2.7808	15.3403	0.6461	0.0006	0.7633	-0.0086
1.39	-9.4847	-0.1187	-1.6110	-0.0247	-0.0004	-0.0059	29.0190	2.8898	15.1311	0.6460	0.0006	0.7632	-0.0086
1.4	-9.4904	-0.1151	-1.6161	-0.0222	-0.0031	-0.0058	29.3844	2.7901	15.2004	0.6461	0.0005	0.7632	-0.0085
1.41	-9.4850	-0.1087	-1.6204	-0.0235	0.0005	-0.0059	29.2169	2.7945	15.3156	0.6461	0.0005	0.7632	-0.0085
1.42	-9.4714	-0.1169	-1.6131	-0.0223	-0.0063	-0.0040	29.2368	2.8566	15.1271	0.6461	0.0005	0.7632	-0.0085
1.43	-9.4813	-0.1219	-1.6257	-0.0214	-0.0035	-0.0045	29.2669	3.0797	15.4154	0.6461	0.0005	0.7632	-0.0085
1.44	-9.4937	-0.1178	-1.6367	-0.0232	-0.0021	-0.0093	29.1515	2.9088	15.2282	0.6461	0.0005	0.7632	-0.0085
1.45	-9.4767	-0.1155	-1.6159	-0.0228	-0.0027	-0.0044	29.1911	2.8567	15.2319	0.6461	0.0004	0.7633	-0.0085
1.46	-9.4769	-0.1210	-1.6149	-0.0229	-0.0090	-0.0104	29.2370	2.9767	15.1785	0.6460	0.0004	0.7632	-0.0085
1.47	-9.4854	-0.1261	-1.6042	-0.0232	-0.0078	-0.0039	29.3921	3.0562	15.0875	0.6461	0.0004	0.7632	-0.0085
1.48	-9.4861	-0.1180	-1.6105	-0.0206	-0.0047	-0.0038	29.4241	2.9198	15.3302	0.6461	0.0004	0.7632	-0.0084
1.49	-9.4792	-0.1211	-1.5957	-0.0226	-0.0052	-0.0048	29.4242	2.8128	15.2191	0.6461	0.0004	0.7632	-0.0084
1.5	-9.4924	-0.1248	-1.6019	-0.0190	-0.0046	-0.0038	29.4136	2.7313	15.3899	0.6461	0.0004	0.7632	-0.0084
1.51	-9.4856	-0.1190	-1.5798	-0.0118	-0.0052	-0.0064	29.4319	2.5690	15.3312	0.6461	0.0004	0.7632	-0.0084
1.52	-9.4902	-0.1159	-1.5776	-0.0129	-0.0040	-0.0075	29.3917	2.8139	15.0022	0.6462	0.0004	0.7632	-0.0085
1.53	-9.4808	-0.0987	-1.5747	-0.0133	-0.0060	-0.0060	29.2501	2.9851	15.0679	0.6461	0.0004	0.7631	-0.0085
1.54	-9.4802	-0.0875	-1.5712	-0.0146	-0.0082	-0.0028	29.2726	2.9824	15.1890	0.6462	0.0004	0.7632	-0.0085
1.55	-9.4890	-0.0925	-1.5819	-0.0224	-0.0077	-0.0053	29.1151	2.7558	15.3298	0.6462	0.0004	0.7631	-0.0085
1.56	-9.4883	-0.0932	-1.5703	-0.0222	-0.0087	-0.0078	29.3330	2.7985	15.3139	0.6463	0.0004	0.7632	-0.0085
1.57	-9.4827	-0.0956	-1.5702	-0.0239	-0.0047	-0.0061	29.3462	3.1114	15.1282	0.6462	0.0003	0.7631	-0.0085
1.58	-9.4861	-0.1112	-1.5830	-0.0229	-0.0022	-0.0019	29.2413	2.8953	15.3271	0.6462	0.0003	0.7631	-0.0084
1.59	-9.4795	-0.1132	-1.5778	-0.0235	-0.0009	-0.0065	29.6053	2.8988	15.3487	0.6462	0.0003	0.7631	-0.0084
1.6	-9.4813	-0.1191	-1.5736	-0.0228	-0.0070	-0.0044	29.7673	2.8793	15.3780	0.6462	0.0003	0.7631	-0.0084
1.61	-9.4813	-0.1197	-1.5902	-0.0237	-0.0008	-0.0065	29.5408	3.0114	15.2853	0.6463	0.0003	0.7632	-0.0084
1.62	-9.4745	-0.1134	-1.5902	-0.0219	0.0007	-0.0086	29.3121	3.0916	15.2006	0.6462	0.0002	0.7631	-0.0084
1.63	-9.4699	-0.1128	-1.5770	-0.0215	0.0000	-0.0045	29.2359	3.0447	15.1639	0.6462	0.0002	0.7632	-0.0084
1.64	-9.4957	-0.1229	-1.5978	-0.0200	-0.0029	-0.0074	29.2125	2.9080	15.3031	0.6461	0.0002	0.7631	-0.0084
1.65	-9.5002	-0.1167	-1.6110	-0.0230	-0.0039	-0.0088	29.2112	2.9643	15.3200	0.6462	0.0002	0.7632	-0.0084
1.66	-9.4880	-0.1285	-1.5889	-0.0176	-0.0079	0.0006	29.2070	3.0168	15.3231	0.6462	0.0002	0.7631	-0.0083
1.67	-9.4937	-0.1223	-1.6113	-0.0210	-0.0116	-0.0034	29.5128	2.7696	15.3035	0.6462	0.0002	0.7631	-0.0083
1.68	-9.4853	-0.1250	-1.6032	-0.0186	-0.0049	-0.0046	29.6393	2.7762	15.2940	0.6463	0.0002	0.7631	-0.0083
1.69	-9.4801	-0.1188	-1.6035	-0.0188	-0.0065	-0.0037	29.4652	2.5325	15.3676	0.6462	0.0002	0.7631	-0.0083
1.7	-9.4916	-0.1205	-1.6143	-0.0187	-0.0045	-0.0042	29.4528	2.7454	15.2581	0.6463	0.0002	0.7631	-0.0083
1.71	-9.4836	-0.1218	-1.6049	-0.0212	-0.0068	-0.0038	29.4402	2.7931	15.2735	0.6462	0.0002	0.7630	-0.0083
1.72	-9.4866	-0.1213	-1.6095	-0.0201	-0.0072	-0.0071	29.5597	2.7556	15.4278	0.6463	0.0002	0.7631	-0.0083
1.73	-9.4831	-0.1194	-1.6028	-0.0186	-0.0023	-0.0075	29.3472	2.6537	15.0845	0.6463	0.0001	0.7630	-0.0083
1.74	-9.4794	-0.1137	-1.6026	-0.0164	-0.0045	-0.0063	29.5162	2.7739	15.0952	0.6463	0.0001	0.7631	-0.0083
1.75	-9.5030	-0.1100	-1.6094	-0.0226	-0.0089	-0.0024	29.5437	2.7710	15.5339	0.6463	0.0001	0.7630	-0.0083
1.76	-9.4737	-0.1055	-1.6041	-0.0205	-0.0042	-0.0056	29.2860	2.8989	15.2795	0.6463	0.0001	0.7630	-0.0083
1.77	-9.4850	-0.1072	-1.6074	-0.0149	-0.0030	-0.0085	29.1257	2.9453	15.2741	0.6463	0.0001	0.7630	-0.0083
1.78	-9.5017	-0.1182	-1.6112	-0.0132	-0.0010	-0.0050	29.1963	2.9177	15.2688	0.6463	0.0001	0.7630	-0.0083
1.79	-9.4875	-0.1188	-1.6043	-0.0142	-0.0063	-0.0045	29.2259	3.0402	15.2702	0.6464	0.0001	0.7631	-0.0083
1.8	-9.4856	-0.1147	-1.5993	-0.0087	-0.0032	-0.0099	29.0566	2.9930	15.2698	0.6463	0.0002	0.7630	-0.0084
1.81	-9.4933	-0.1192	-1.5972	-0.0093	-0.0022	-0.0066	29.2926	3.0462	15.2661	0.6464	0.0002	0.7631	-0.0084
1.82	-9.4892	-0.1204	-1.6034	-0.0171	-0.0045	-0.0096	29.2776	2.8997	15.2803	0.6463	0.0002	0.7630	-0.0084
1.83	-9.4845	-0.1303	-1.5775	-0.0085	-0.0043	-0.0069	29.2148	3.0941	15.3702	0.6463	0.0002	0.7630	-0.0085
1.84	-9.4926	-0.1261	-1.6025	-0.0091	-0.0025	-0.0049	29.1369	3.0168	15.3535	0.6463	0.0002	0.7630	-0.0085
1.85	-9.4952	-0.1339	-1.5851	-0.0122	-0.0041	-0.0042	29.2329	2.8188	15.3581	0.6463	0.0002	0.7630	-0.0085
1.86	-9.4871	-0.1319	-1.5782	-0.0075	0.0039	-0.0037	29.6006	2.8795	15.3830	0.6463	0.0003	0.7631	-0.0086
1.87	-9.4906	-0.1169	-1.6018	-0.0062	-0.0042	-0.0058	29.4738	2.7036	15.3442	0.6463	0.0003	0.7630	-0.0086
1.88	-9.4845	-0.1220	-1.5889	-0.0121	-0.0039	-0.0056	29.4262	2.6844	15.4592	0.6463	0.0003	0.7631	-0.0087
1.89	-9.4897	-0.1206	-1.5921	-0.0113	-0.0020	-0.0068	29.5405	2.7601	15.3770	0.6462	0.0003	0.7630	-0.0087
1.9	-9.4875	-0.1164	-1.5947	-0.0137	-0.0066	-0.0038	29.5167	2.8104	15.2565	0.6463	0.0003	0.7630	-0.0087
1.91	-9.4956	-0.1184	-1.6012	-0.0155	-0.0051	-0.0046	29.4063	2.8559	15.2926	0.6463	0.0003	0.7630	-0.0087
1.92	-9.4932	-0.1151	-1.6004	-0.0068	0.0013	-0.0050	29.2749	2.8768	15.2652	0.6463	0.0004	0.7630	-0.0088
1.93	-9.4819	-0.1085	-1.5848	-0.0120	-0.0040	-0.0084	29.3954	2.7213	15.2940	0.6463	0.0004	0.7631	-0.0088
1.94	-9.4998	-0.0939	-1.5773	-0.0093	-0.0064	-0.0016	29.3391	2.8666	15.1320	0.6463	0.0004	0.7630	-0.0088
1.95	-9.4903	-0.0950	-1.5859	-0.0138	0.0008	-0.0062	29.2681	2.9036	15.2924	0.6463	0.0004	0.7631	-0.0088
1.96	-9.4917	-0.0934	-1.5718	-0.0182	-0.0029	-0.0055	29.3599	2.8292	15.1692	0.6462	0.0004	0.7630	-0.0088
1.97	-9.4940	-0.0901	-1.5938	-0.0158	-0.0057	-0.0056	29.5004	2.9568	15.3322	0.6463	0.0004	0.7631	-0.0088
1.98	-9.4847	-0.0879	-1.5875	-0.0136	-0.0039	-0.0042	29.3505	2.8160	15.3335	0.6463	0.0004	0.7630	-0.0089
1.99	-9.4894	-0.0913	-1.6074	-0.0145	-0.0040	0.0025	29.2598	3.1325	15.2375	0.6463	0.0005	0.7630	-0.0089
2	-9.4833	-0.0890	-1.5945	-0.0232	-0.0014	-0.0049	29.3784	2.9989	15.3704	0.6463	0.0005	0.7630	-0.0088
2.01	-9.4931	-0.1033	-1.6051	-0.0159	-0.0026	-0.0038	29.2707	2.8003	15.3847	0.6463	0.0005	0.7630	-0.0088
2.02	-9.4892	-0.1176	-1.6009	-0.0170	0.0029	-0.0040	29.2554	2.9189	15.4857	0.6463	0.0005	0.7631	-0.0088
2.03	-9.4901	-0.1308	-1.5946	-0.0192	-0.0023	-0.0041	29.1536	2.9537	15.3552	0.6462	0.0005	0.7630	-0.0088
2.04	-9.4920	-0.1191	-1.6048	-0.0157	-0.0100	-0.0040	29.4490	2.7245	15.3589	0.6463	0.0005	0.7631	-0.0088
2.05	-9.4900	-0.1168	-1.6085	-0.0186	-0.0039	-0.0043	29.5462	2.6945	15.2543	0.6463	0.0005	0.7630	-0.0088
2.06	-9.4881	-0.1202	-1.6027	-0.0180	-0.0084	-0.0038	29.5419	2.8931	15.0767	0.6464	0.0005	0.7631	-0.0088
2.07	-9.4815	-0.1186	-1.6002	-0.0204	-0.0074	-0.0056	29.5182	2.7449	15.3074	0.6463	0.0005	0.7630	-0.0088
2.08	-9.4906	-0.1385	-1.6237	-0.0192	-0.0054	-0.0052	29.4522	2.7080	15.3684	0.6463	0.0005	0.7630	-0.0088
2.09	-9.4932	-0.1542	-1.6206	-0.0229	-0.0028	-0.0042	29.7467	2.9697	15.4398	0.6463	0.0005	0.7630	-0.0088
2.1	-9.4888	-0.1677	-1.6207	-0.0231	-0.0124	-0.0042	29.7950	2.9161	15.6995	0.6463	0.0004	0.7629	-0.0088
2.11	-9.4885	-0.1576	-1.6302	-0.0237	-0.0072	-0.0056	29.5023	3.0865	15.4320	0.6464	0.0004	0.7630	-0.0088
2.12	-9.4783	-0.1778	-1.6168	-0.0211	0.0002	-0.0052	29.2532	2.9118	15.2726	0.6464	0.0004	0.7630	-0.0088
2.13	-9.4872	-0.1742	-1.6012	-0.0232	-0.0088	-0.0044	29.1488	2.8514	15.2811	0.6464	0.0004	0.7630	-0.0087
2.14	-9.4865	-0.1350	-1.6018	-0.0176	-0.0051	-0.0041	29.1050	2.9719	15.1810	0.6463	0.0004	0.7629	-0.0087
2.15	-9.4904	-0.0952	-1.6106	-0.0217	-0.0011	-0.0038	29.2202	3.0887	15.1237	0.6464	0.0004	0.7630	-0.0087
2.16	-9.4737	-0.0736	-1.5907	-0.0241	-0.0025	-0.0046	29.1644	2.9893	15.2856	0.6464	0.0004	0.7630	-0.0087
2.17	-9.4803	-0.0637	-1.6112	-0.0227	-0.0063	-0.0019	29.2593	2.9703	15.3685	0.6464	0.0004	0.7629	-0.0087
2.18	-9.4890	-0.0543	-1.6029	-0.0195	-0.0020	-0.0054	29.2818	2.9629	15.2624	0.6464	0.0003	0.7630	-0.0087
2.19	-9.4788	-0.0714	-1.6053	-0.0195	-0.0073	-0.0063	29.2521	2.7569	15.3434	0.6464	0.0003	0.7629	-0.0087
2.2	-9.4832	-0.0878	-1.6019	-0.0227	0.0019	-0.0042	29.3024	2.8395	15.2377	0.6464	0.0003	0.7630	-0.0086
2.21	-9.4776	-0.0980	-1.5861	-0.0179	-0.0048	-0.0080	29.1634	2.7634	15.2652	0.6463	0.0003	0.7629	-0.0087
2.22	-9.4837	-0.1206	-1.5799	-0.0247	-0.0064	-0.0034	29.2289	3.0574	15.2760	0.6464	0.0003	0.7630	-0.0086
2.23	-9.5034	-0.1375	-1.5939	-0.0197	-0.0058	-0.0024	29.2405	2.9845	15.3464	0.6464	0.0003	0.7629	-0.0086
2.24	-9.4869	-0.1305	-1.5831	-0.0216	-0.0091	-0.0076	29.1647	2.7713	15.1523	0.6464	0.0003	0.7629	-0.0086
2.25	-9.5001	-0.1272	-1.5798	-0.0187	-0.0039	-0.0046	29.2877	2.9129	15.1886	0.6464	0.0003	0.7629	-0.0086
2.26	-9.4959	-0.1159	-1.5830	-0.0133	-0.0072	-0.0049	29.1649	2.7540	15.1630	0.6464	0.0003	0.7629	-0.0086
2.27	-9.4836	-0.1007	-1.5839	-0.0196	-0.0038	-0.0065	29.2092	2.7003	15.1956	0.6465	0.0003	0.7629	-0.0086
2.28	-9.4896	-0.0606	-1.5996	-0.0182	-0.0065	-0.0027	29.1765	2.7946	15.1453	0.6464	0.0003	0.7628	-0.0086
2.29	-9.4848	-0.0521	-1.5907	-0.0235	-0.0095	-0.0041	29.2941	3.0101	15.3155	0.6465	0.0003	0.7629	-0.0086
2.3	-9.4753	-0.0527	-1.5887	-0.0228	-0.0019	-0.0066	29.2547	2.9370	15.1687	0.6465	0.0002	0.7629	-0.0086
2.31	-9.4996	-0.0784	-1.6097	-0.0236	-0.0066	-0.0028	29.2999	2.8166	15.2721	0.6465	0.0002	0.7629	-0.0085
2.32	-9.4841	-0.0971	-1.5853	-0.0228	-0.0062	-0.0069	29.1609	2.7140	15.1529	0.6465	0.0002	0.7628	-0.0085
2.33	-9.4722	-0.1159	-1.5936	-0.0235	-0.0001	-0.0039	29.3486	2.9450	15.1180	0.6465	0.0002	0.7629	-0.0085
2.34	-9.4891	-0.1430	-1.5982	-0.0235	-0.0062	-0.0063	29.2775	2.8238	15.3202	0.6465	0.0002	0.7629	-0.0085
2.35	-9.4788	-0.1436	-1.5932	-0.0230	-0.0014	-0.0059	29.0672	2.7953	15.2305	0.6465	0.0001	0.7628	-0.0085
2.36	-9.4906	-0.1485	-1.5947	-0.0231	0.0011	-0.0054	29.2306	2.7237	15.2821	0.6465	0.0001	0.7630	-0.0085
2.37	-9.4894	-0.1372	-1.5880	-0.0234	0.0030	-0.0086	29.2800	2.8438	15.2625	0.6464	0.0001	0.7629	-0.0085
2.38	-9.4794	-0.1344	-1.5783	-0.0229	-0.0055	-0.0039	29.2714	2.9685	15.2158	0.6465	0.0001	0.7630	-0.0084
2.39	-9.4801	-0.1224	-1.5962	-0.0216	-0.0025	-0.0058	29.2152	2.9766	15.1202	0.6464	0.0001	0.7629	-0.0084
2.4	-9.4706	-0.1223	-1.5778	-0.0230	-0.0076	-0.0056	29.0386	2.7591	15.3550	0.6465	0.0000	0.7629	-0.0084
2.41	-9.4972	-0.1317	-1.5894	-0.0220	-0.0096	-0.0048	29.2534	2.9968	15.2472	0.6465	0.0000	0.7629	-0.0084
2.42	-9.4857	-0.1275	-1.5916	-0.0206	-0.0050	-0.0045	29.4637	2.8933	15.1349	0.6465	0.0000	0.7629	-0.0084
2.43	-9.4745	-0.1209	-1.5735	-0.0181	-0.0052	-0.0045	29.3404	2.8966	15.2948	0.6465	0.0000	0.7629	-0.0084
2.44	-9.4914	-0.1199	-1.6028	-0.0206	-0.0072	-0.0072	29.4505	2.8722	15.1215	0.6465	-0.0000	0.7629	-0.0084
2.45	-9.4809	-0.1300	-1.5890	-0.0243	-0.0029	-0.0057	29.2586	2.7624	15.2614	0.6465	-0.0000	0.7629	-0.0084
2.46	-9.4798	-0.1342	-1.5898	-0.0223	-0.0069	-0.0042	29.2755	2.9155	15.2686	0.6465	-0.0000	0.7628	-0.0083
2.47	-9.5055	-0.1363	-1.6181	-0.0233	-0.0047	-0.0046	29.2697	2.8614	15.1480	0.6465	-0.0001	0.7629	-0.0083
2.48	-9.4866	-0.1332	-1.5960	-0.0231	-0.0054	-0.0045	29.4137	2.7967	15.3701	0.6465	-0.0001	0.7628	-0.0083
2.49	-9.4924	-0.1193	-1.6007	-0.0237	-0.0036	-0.0045	29.1903	2.8065	15.2761	0.6465	-0.0001	0.7629	-0.0083
2.5	-9.4901	-0.1352	-1.6053	-0.0214	-0.0066	-0.0066	29.1969	2.8091	15.1773	0.6465	-0.0001	0.7628	-0.0083
2.51	-9.4730	-0.1491	-1.5892	-0.0235	-0.0061	-0.0046	29.2872	2.9071	15.1446	0.6465	-0.0001	0.7628	-0.0082
2.52	-9.4930	-0.1504	-1.6136	-0.0232	-0.0043	-0.0048	29.2762	2.7029	15.4791	0.6466	-0.0002	0.7628	-0.0082
2.53	-9.4861	-0.1562	-1.6028	-0.0238	-0.0004	-0.0044	29.1788	2.7929	15.5513	0.6465	-0.0002	0.7628	-0.0082
2.54	-9.4998	-0.1424	-1.6085	-0.0221	-0.0025	-0.0074	29.1975	3.0084	15.3188	0.6466	-0.0002	0.7629	-0.0082
2.55	-9.4887	-0.1191	-1.6109	-0.0221	-0.0036	-0.0077	29.2902	2.9351	15.4670	0.6465	-0.0002	0.7628	-0.0082
2.56	-9.4911	-0.1235	-1.5894	-0.0204	-0.0047	-0.0040	29.2593	2.8190	15.1798	0.6466	-0.0002	0.7629	-0.0082
2.57	-9.4785	-0.1063	-1.5951	-0.0194	-0.0024	-0.0048	29.2905	2.7162	15.1553	0.6465	-0.0002	0.7628	-0.0082
2.58	-9.4775	-0.1031	-1.5794	-0.0215	-0.0033	-0.0076	29.1395	2.8313	15.3427	0.6465	-0.0003	0.7628	-0.0082
2.59	-9.4859	-0.0939	-1.5772	-0.0223	-0.0070	-0.0027	29.4438	2.7836	15.4577	0.6465	-0.0003	0.7628	-0.0081
2.6	-9.4839	-0.0998	-1.5610	-0.0236	-0.0082	-0.0054	29.6023	2.9000	15.1546	0.6465	-0.0003	0.7628	-0.0081
2.61	-9.4961	-0.0977	-1.5760	-0.0206	-0.0084	-0.0039	29.6013	2.8634	15.2488	0.6466	-0.0003	0.7629	-0.0081
2.62	-9.4881	-0.1015	-1.5760	-0.0220	-0.0106	-0.0005	29.3753	2.8647	15.4749	0.6466	-0.0003	0.7628	-0.0081
2.63	-9.4924	-0.1074	-1.5760	-0.0200	-0.0097	-0.0055	29.3544	2.6079	15.3508	0.6467	-0.0003	0.7628	-0.0081
2.64	-9.4912	-0.0964	-1.6013	-0.0167	-0.0106	-0.0054	29.3375	2.7104	15.0400	0.6466	-0.0003	0.7627	-0.0081
2.65	-9.4860	-0.0811	-1.5887	-0.0213	-0.0046	-0.0015	29.3901	2.9112	15.2309	0.6467	-0.0003	0.7627	-0.0081
2.66	-9.4761	-0.0889	-1.5758	-0.0226	-0.0040	-0.0055	29.3538	2.6923	15.2661	0.6467	-0.0003	0.7627	-0.0080
2.67	-9.4812	-0.0990	-1.5727	-0.0191	-0.0058	-0.0009	29.1967	2.7662	15.2703	0.6467	-0.0003	0.7627	-0.0080
2.68	-9.4772	-0.1169	-1.5629	-0.0224	-0.0105	-0.0025	29.4812	2.9033	15.1515	0.6467	-0.0003	0.7627	-0.0080
2.69	-9.4986	-0.1552	-1.5954	-0.0217	-0.0098	-0.0047	29.1347	2.9617	15.3217	0.6467	-0.0003	0.7627	-0.0080
2.7	-9.4928	-0.1524	-1.5994	-0.0236	-0.0035	-0.0065	29.2792	2.9539	15.0997	0.6467	-0.0003	0.7627	-0.0080
2.71	-9.4533	-0.1481	-1.5896	-0.0216	-0.0029	-0.0075	29.1695	2.9409	15.1444	0.6467	-0.0004	0.7626	-0.0080
2.72	-9.4882	-0.1334	-1.6006	-0.0222	-0.0041	-0.0050	29.2041	3.0733	15.1797	0.6467	-0.0004	0.7627	-0.0080
2.73	-9.4914	-0.1155	-1.6124	-0.0195	-0.0028	-0.0045	29.1230	2.9613	15.1514	0.6467	-0.0004	0.7627	-0.0079
2.74	-9.4850	-0.0838	-1.6015	-0.0190	-0.0044	-0.0038	29.1476	2.7489	15.1757	0.6467	-0.0004	0.7627	-0.0079
2.75	-9.4957	-0.0558	-1.6180	-0.0183	-0.0020	-0.0039	29.2823	2.9017	15.2457	0.6467	-0.0004	0.7627	-0.0079
2.76	-9.4902	-0.0375	-1.6405	-0.0225	-0.0034	-0.0041	29.2542	2.8425	15.2873	0.6467	-0.0004	0.7627	-0.0079
2.77	-9.4839	-0.0316	-1.6288	-0.0234	-0.0073	-0.0051	29.2525	3.1225	15.1745	0.6467	-0.0004	0.7627	-0.0079
2.78	-9.4738	-0.0329	-1.6282	-0.0239	-0.0057	-0.0042	29.3306	2.9998	15.1737	0.6467	-0.0004	0.7626	-0.0079
2.79	-9.4904	-0.0566	-1.6378	-0.0223	0.0009	-0.0079	29.4469	2.5337	15.1546	0.6468	-0.0005	0.7627	-0.0079
2.8	-9.4904	-0.0764	-1.6365	-0.0233	-0.0052	-0.0056	29.4132	2.7195	15.2618	0.6467	-0.0005	0.7627	-0.0079
2.81	-9.4765	-0.0993	-1.6288	-0.0226	-0.0041	-0.0064	29.4229	2.8863	15.3966	0.6468	-0.0005	0.7627	-0.0078
2.82	-9.4897	-0.1194	-1.6365	-0.0203	-0.0036	-0.0057	29.4194	2.8618	15.2434	0.6467	-0.0005	0.7626	-0.0078
2.83	-9.4926	-0.1074	-1.6268	-0.0242	-0.0087	-0.0007	29.4206	2.9020	15.1343	0.6467	-0.0005	0.7627	-0.0078
2.84	-9.4761	-0.0991	-1.6201	-0.0165	-0.0041	-0.0070	29.2689	2.9640	15.0654	0.6467	-0.0005	0.7627	-0.0078
2.85	-9.4746	-0.0825	-1.6169	-0.0212	-0.0043	-0.0014	29.2683	2.6774	15.0829	0.6467	-0.0005	0.7626	-0.0078
2.86	-9.4899	-0.0861	-1.6203	-0.0174	-0.0063	-0.0038	29.2562	2.7329	15.1939	0.6468	-0.0005	0.7627	-0.0078
2.87	-9.4900	-0.0861	-1.6016	-0.0160	-0.0092	-0.0075	29.2796	2.7902	15.2902	0.6468	-0.0005	0.7626	-0.0078
2.88	-9.4775	-0.0854	-1.5983	-0.0170	-0.0044	-0.0075	29.1978	2.8328	15.4458	0.6468	-0.0005	0.7627	-0.0078
2.89	-9.4826	-0.1006	-1.6046	-0.0237	-0.0018	-0.0048	29.0931	2.9634	15.3305	0.6467	-0.0005	0.7626	-0.0078
2.9	-9.4803	-0.1225	-1.5998	-0.0231	-0.0006	-0.0080	29.1824	2.9527	15.2449	0.6468	-0.0006	0.7627	-0.0078
2.91	-9.4762	-0.1398	-1.5864	-0.0225	-0.0019	-0.0024	29.0545	2.9333	15.3956	0.6467	-0.0006	0.7627	-0.0078
2.92	-9.4711	-0.1589	-1.5719	-0.0212	0.0023	-0.0102	29.1841	3.0257	15.2247	0.6467	-0.0006	0.7627	-0.0078
2.93	-9.4955	-0.1509	-1.5910	-0.0226	0.0027	-0.0102	29.0999	3.0414	15.3681	0.6467	-0.0007	0.7627	-0.0078
2.94	-9.4981	-0.1575	-1.5952	-0.0235	-0.0029	-0.0066	29.1957	2.9007	15.1692	0.6467	-0.0007	0.7627	-0.0077
2.95	-9.4916	-0.1477	-1.5950	-0.0218	-0.0027	-0.0101	29.1856	2.8438	15.2294	0.6467	-0.0007	0.7627	-0.0077
2.96	-9.4808	-0.1440	-1.5804	-0.0220	-0.0082	-0.0041	29.1655	2.9619	15.2628	0.6466	-0.0007	0.7626	-0.0077
2.97	-9.4774	-0.1467	-1.5931	-0.0185	-0.0026	-0.0042	29.1138	2.9407	15.2519	0.6467	-0.0007	0.7627	-0.0077
2.98	-9.4761	-0.1298	-1.5910	-0.0188	-0.0030	-0.0036	29.3407	2.6780	15.0893	0.6467	-0.0007	0.7627	-0.0077
2.99	-9.4770	-0.1330	-1.5927	-0.0232	-0.0073	0.0009	29.3990	2.7958	15.1512	0.6467	-0.0007	0.7627	-0.0077
3	-9.4741	-0.1481	-1.6004	-0.0226	-0.0075	-0.0002	29.5209	2.7828	15.2720	0.6467	-0.0007	0.7627	-0.0077
3.01	-9.4827	-0.1558	-1.6050	-0.0199	-0.0046	-0.0049	29.3802	2.8202	15.2831	0.6467	-0.0007	0.7627	-0.0076
3.02	-9.4901	-0.1559	-1.6069	-0.0202	-0.0071	-0.0023	29.4646	2.7121	15.1719	0.6467	-0.0007	0.7627	-0.0076
3.03	-9.4806	-0.1495	-1.6035	-0.0218	-0.0081	-0.0043	29.3254	2.7904	14.9482	0.6467	-0.0007	0.7626	-0.0076
3.04	-9.4752	-0.1449	-1.6078	-0.0221	-0.0065	-0.0025	29.3718	2.7770	15.2413	0.6468	-0.0007	0.7627	-0.0076
3.05	-9.4895	-0.1274	-1.6065	-0.0215	-0.0058	-0.0042	29.4263	2.7084	15.1068	0.6468	-0.0008	0.7626	-0.0076
3.06	-9.4933	-0.1227	-1.6045	-0.0175	-0.0110	0.0013	29.4594	2.8846	15.1160	0.6468	-0.0007	0.7627	-0.0076
3.07	-9.4763	-0.1012	-1.6087	-0.0199	-0.0067	-0.0062	29.2258	2.9494	15.3837	0.6468	-0.0007	0.7626	-0.0075
3.08	-9.4813	-0.0975	-1.6154	-0.0210	-0.0019	-0.0041	29.0907	2.8464	15.3006	0.6468	-0.0008	0.7626	-0.0075
3.09	-9.4799	-0.1013	-1.6055	-0.0217	-0.0004	-0.0080	29.5653	3.0874	15.2444	0.6468	-0.0008	0.7626	-0.0075
3.1	-9.4751	-0.0928	-1.6031	-0.0206	0.0006	-0.0046	29.6028	3.1567	15.2541	0.6467	-0.0008	0.7626	-0.0075
3.11	-9.4841	-0.1066	-1.6074	-0.0181	-0.0012	-0.0034	29.4019	3.0241	15.3157	0.6468	-0.0008	0.7627	-0.0075
3.12	-9.4813	-0.0995	-1.5908	-0.0247	-0.0027	-0.0054	29.3831	2.9912	15.2327	0.6467	-0.0008	0.7627	-0.0075
3.13	-9.4811	-0.0882	-1.5893	-0.0195	-0.0028	-0.0064	29.1433	2.8492	15.1861	0.6468	-0.0008	0.7627	-0.0075
3.14	-9.4867	-0.0863	-1.5891	-0.0189	-0.0056	-0.0069	29.2102	2.9876	15.4846	0.6467	-0.0008	0.7626	-0.0075
3.15	-9.4911	-0.0815	-1.5895	-0.0246	-0.0060	-0.0055	29.1728	2.8107	15.2599	0.6468	-0.0009	0.7627	-0.0075
3.16	-9.4744	-0.0766	-1.5824	-0.0206	-0.0025	-0.0052	29.2923	2.8500	15.3311	0.6468	-0.0009	0.7627	-0.0075
3.17	-9.4835	-0.0698	-1.5897	-0.0200	-0.0056	-0.0014	29.3966	2.8376	15.2784	0.6467	-0.0009	0.7626	-0.0074
3.18	-9.4849	-0.0802	-1.5844	-0.0190	-0.0073	-0.0072	29.3392	2.6877	15.2662	0.6468	-0.0009	0.7627	-0.0074
3.19	-9.4748	-0.0875	-1.5733	-0.0212	-0.0071	-0.0029	29.4997	2.7295	15.3695	0.6468	-0.0009	0.7626	-0.0074
3.2	-9.4866	-0.0900	-1.5849	-0.0187	-0.0026	-0.0054	29.3554	2.7320	15.1652	0.6468	-0.0009	0.7627	-0.0074
3.21	-9.4814	-0.1008	-1.5929	-0.0168	-0.0055	-0.0042	29.3853	2.9998	15.1737	0.6467	-0.0009	0.7626	-0.0074
3.22	-9.4856	-0.1016	-1.5813	-0.0219	-0.0040	-0.0009	29.3212	2.8341	15.1740	0.6468	-0.0009	0.7627	-0.0074
3.23	-9.4952	-0.1011	-1.6011	-0.0218	-0.0054	0.0009	29.3262	2.7947	15.1700	0.6468	-0.0009	0.7626	-0.0074
3.24	-9.4846	-0.1053	-1.5992	-0.0183	-0.0060	-0.0042	29.3328	2.7851	15.1864	0.6468	-0.0009	0.7626	-0.0074
3.25	-9.4870	-0.1013	-1.5979	-0.0126	-0.0077	-0.0021	29.1693	2.8968	15.1464	0.6468	-0.0009	0.7626	-0.0074
3.26	-9.4835	-0.1109	-1.6014	-0.0208	-0.0048	-0.0060	29.3368	2.8522	15.2196	0.6468	-0.0009	0.7626	-0.0074
3.27	-9.4800	-0.1175	-1.6246	-0.0230	-0.0025	-0.0084	29.0307	2.7610	15.2353	0.6468	-0.0009	0.7626	-0.0074
3.28	-9.4806	-0.1250	-1.6191	-0.0243	0.0012	-0.0027	29.1269	2.8743	15.0539	0.6467	-0.0009	0.7626	-0.0073
3.29	-9.4772	-0.1362	-1.6252	-0.0180	-0.0024	-0.0045	29.2051	2.8959	15.0962	0.6468	-0.0009	0.7627	-0.0073
3.3	-9.4785	-0.1374	-1.6166	-0.0206	0.0028	-0.0032	29.3794	2.9730	15.2248	0.6468	-0.0009	0.7626	-0.0073
3.31	-9.4900	-0.1525	-1.6115	-0.0223	-0.0006	-0.0042	29.2322	2.7524	15.2845	0.6468	-0.0009	0.7627	-0.0073
3.32	-9.4845	-0.1598	-1.5986	-0.0234	-0.0024	-0.0059	29.1951	2.9880	15.2340	0.6467	-0.0009	0.7626	-0.0073
3.33	-9.4808	-0.1568	-1.5939	-0.0181	-0.0032	-0.0052	29.1828	2.9352	15.1650	0.6467	-0.0010	0.7627	-0.0073
3.34	-9.4924	-0.1585	-1.6026	-0.0162	-0.0042	-0.0007	29.1084	2.8436	15.3513	0.6467	-0.0009	0.7627	-0.0073
3.35	-9.5021	-0.1600	-1.5828	-0.0226	-0.0096	-0.0033	29.0860	2.9100	15.5839	0.6467	-0.0009	0.7626	-0.0072
3.36	-9.4824	-0.1329	-1.5930	-0.0227	-0.0077	-0.0050	29.3484	2.7466	15.2500	0.6468	-0.0010	0.7627	-0.0072
3.37	-9.4738	-0.1330	-1.5954	-0.0161	-0.0051	-0.0061	29.3016	2.7468	15.2366	0.6468	-0.0010	0.7626	-0.0072
3.38	-9.4770	-0.1338	-1.5992	-0.0162	-0.0032	-0.0068	29.1598	2.8107	15.3911	0.6468	-0.0010	0.7627	-0.0072
3.39	-9.4810	-0.1286	-1.6099	-0.0190	-0.0020	-0.0072	29.2221	2.7885	15.2649	0.6467	-0.0010	0.7626	-0.0073
3.4	-9.4732	-0.1389	-1.6052	-0.0188	0.0022	-0.0040	29.0954	2.8916	15.1984	0.6468	-0.0010	0.7627	-0.0072
3.41	-9.4841	-0.1506	-1.6034	-0.0176	-0.0046	-0.0035	29.2952	2.8866	15.0857	0.6467	-0.0010	0.7627	-0.0072
3.42	-9.4843	-0.1481	-1.5946	-0.0203	0.0001	-0.0034	29.2726	2.8121	15.2235	0.6467	-0.0010	0.7627	-0.0072
3.43	-9.4773	-0.1383	-1.5942	-0.0118	-0.0014	-0.0032	29.3005	2.7821	15.0502	0.6467	-0.0010	0.7627	-0.0072
3.44	-9.4839	-0.1281	-1.5881	-0.0215	-0.0068	0.0010	29.3823	2.9428	15.2389	0.6467	-0.0009	0.7627	-0.0072
3.45	-9.4930	-0.1078	-1.5981	-0.0222	-0.0066	-0.0030	29.3490	2.9693	15.2790	0.6468	-0.0009	0.7627	-0.0072
3.46	-9.4914	-0.0980	-1.5952	-0.0234	0.0014	-0.0040	29.3808	2.9668	15.1556	0.6467	-0.0010	0.7626	-0.0072
3.47	-9.4838	-0.0846	-1.5849	-0.0193	-0.0039	-0.0033	29.2420	2.8574	15.2957	0.6467	-0.0010	0.7627	-0.0072
3.48	-9.4933	-0.0852	-1.6065	-0.0168	0.0016	-0.0039	29.1911	2.7541	15.3515	0.6467	-0.0010	0.7627	-0.0072
3.49	-9.4745	-0.0855	-1.6036	-0.0236	-0.0016	-0.0032	29.2065	2.8785	15.1226	0.6467	-0.0010	0.7627	-0.0071
3.5	-9.4775	-0.1026	-1.5859	-0.0205	0.0016	-0.0017	29.2058	2.9522	15.3063	0.6467	-0.0010	0.7627	-0.0071
3.51	-9.4870	-0.1186	-1.5750	-0.0189	0.0057	-0.0042	29.1846	2.8789	15.1801	0.6466	-0.0010	0.7628	-0.0071
3.52	-9.4907	-0.1192	-1.5771	-0.0214	-0.0035	-0.0032	29.0820	3.0184	15.2388	0.6466	-0.0010	0.7628	-0.0071
3.53	-9.4883	-0.1248	-1.5857	-0.0189	-0.0063	-0.0042	29.2115	3.1421	15.1677	0.6466	-0.0010	0.7627	-0.0071
3.54	-9.4910	-0.1096	-1.5979	-0.0144	-0.0004	-0.0040	29.2881	3.0095	15.0843	0.6467	-0.0010	0.7628	-0.0071
3.55	-9.4927	-0.1005	-1.6094	-0.0159	0.0034	-0.0030	29.4390	2.6913	15.3318	0.6466	-0.0010	0.7628	-0.0071
3.56	-9.4923	-0.1029	-1.6031	-0.0230	-0.0026	-0.0041	29.3877	2.9891	15.1882	0.6466	-0.0010	0.7629	-0.0071
3.57	-9.4874	-0.0907	-1.6065	-0.0208	-0.0041	-0.0032	29.3508	2.8661	15.0492	0.6465	-0.0010	0.7628	-0.0071
3.58	-9.4931	-0.0928	-1.6022	-0.0201	0.0006	-0.0056	29.4818	2.6883	15.2787	0.6466	-0.0010	0.7628	-0.0071
3.59	-9.4944	-0.1015	-1.6042	-0.0170	-0.0031	-0.0054	29.5607	2.8983	15.7088	0.6466	-0.0010	0.7628	-0.0071
3.6	-9.4943	-0.1013	-1.6066	-0.0174	-0.0051	-0.0034	29.6211	2.8646	15.7227	0.6465	-0.0010	0.7628	-0.0071
3.61	-9.4906	-0.1083	-1.6036	-0.0172	-0.0004	-0.0061	29.4313	3.0027	15.4695	0.6466	-0.0010	0.7629	-0.0071
3.62	-9.4839	-0.1181	-1.6196	-0.0199	-0.0042	-0.0049	29.2305	3.0686	15.4053	0.6465	-0.0010	0.7628	-0.0071
3.63	-9.4769	-0.1230	-1.6307	-0.0181	-0.0056	-0.0082	28.9258	2.9035	15.2957	0.6466	-0.0010	0.7629	-0.0071
3.64	-9.4850	-0.1169	-1.6334	-0.0216	-0.0058	-0.0077	29.1997	3.0375	15.2701	0.6465	-0.0010	0.7628	-0.0071
3.65	-9.4901	-0.1160	-1.6250	-0.0178	-0.0058	-0.0050	29.2807	3.1111	15.2572	0.6466	-0.0010	0.7628	-0.0071
3.66	-9.4838	-0.1191	-1.6260	-0.0148	0.0018	-0.0068	29.1072	2.9707	15.1568	0.6465	-0.0010	0.7628	-0.0071
3.67	-9.4808	-0.1172	-1.6222	-0.0189	-0.0010	-0.0039	29.1012	3.1188	15.2058	0.6465	-0.0010	0.7628	-0.0071
3.68	-9.4836	-0.1235	-1.6240	-0.0235	-0.0016	-0.0046	29.1932	3.0922	15.0713	0.6465	-0.0010	0.7629	-0.0071
3.69	-9.4863	-0.1321	-1.6092	-0.0208	-0.0080	-0.0049	29.1926	3.0082	15.2533	0.6465	-0.0011	0.7628	-0.0070
3.7	-9.4765	-0.1379	-1.6090	-0.0186	0.0001	-0.0014	29.1631	3.0243	15.2777	0.6466	-0.0010	0.7629	-0.0070
3.71	-9.4863	-0.1399	-1.5967	-0.0129	-0.0009	-0.0044	29.2748	3.0362	15.2734	0.6465	-0.0010	0.7628	-0.0070
3.72	-9.4893	-0.1418	-1.6020	-0.0129	-0.0043	-0.0018	29.2462	2.9029	15.2777	0.6465	-0.0010	0.7629	-0.0071
3.73	-9.4881	-0.1364	-1.5766	-0.0164	-0.0082	-0.0035	29.3153	2.7119	15.2782	0.6465	-0.0010	0.7629	-0.0071
3.74	-9.4893	-0.1209	-1.5830	-0.0158	0.0010	-0.0070	29.3599	2.8937	15.0509	0.6465	-0.0010	0.7629	-0.0071
3.75	-9.4883	-0.1017	-1.5786	-0.0126	-0.0031	-0.0055	29.3501	2.7527	15.3486	0.6465	-0.0010	0.7629	-0.0071
3.76	-9.4894	-0.0969	-1.5771	-0.0076	-0.0065	-0.0062	29.3200	2.5805	15.3176	0.6465	-0.0010	0.7629	-0.0071
3.77	-9.4759	-0.0909	-1.5800	-0.0102	-0.0044	-0.0042	29.4280	2.8285	15.1607	0.6465	-0.0009	0.7629	-0.0072
3.78	-9.4854	-0.0891	-1.5738	-0.0148	-0.0048	-0.0016	29.3451	2.9622	15.2016	0.6465	-0.0009	0.7628	-0.0072
3.79	-9.4996	-0.0931	-1.5804	-0.0213	-0.0057	-0.0077	29.3674	2.8345	15.1088	0.6466	-0.0009	0.7629	-0.0072
3.8	-9.4785	-0.0919	-1.5703	-0.0191	-0.0030	-0.0039	29.4240	2.7605	15.3601	0.6465	-0.0009	0.7629	-0.0072
3.81	-9.4750	-0.0926	-1.5763	-0.0223	-0.0079	-0.0016	29.2601	2.7878	15.1815	0.6466	-0.0009	0.7629	-0.0071
3.82	-9.4877	-0.0931	-1.5650	-0.0164	-0.0070	-0.0045	29.2564	2.8325	15.2678	0.6465	-0.0009	0.7628	-0.0071
3.83	-9.4827	-0.0884	-1.5733	-0.0171	-0.0047	-0.0005	29.3918	3.0278	15.4360	0.6465	-0.0009	0.7629	-0.0071
3.84	-9.4771	-0.0927	-1.5815	-0.0220	-0.0026	-0.0000	29.2339	2.9509	15.2138	0.6465	-0.0009	0.7629	-0.0071
3.85	-9.4845	-0.1009	-1.5832	-0.0227	-0.0027	-0.0013	29.1623	3.0117	15.2523	0.6465	-0.0009	0.7628	-0.0071
3.86	-9.4978	-0.1086	-1.6062	-0.0221	-0.0033	-0.0010	29.1902	3.1033	15.3630	0.6466	-0.0009	0.7629	-0.0070
3.87	-9.4771	-0.1035	-1.5883	-0.0185	-0.0032	-0.0015	29.1884	3.0214	15.2721	0.6465	-0.0009	0.7629	-0.0070
3.88	-9.4783	-0.1182	-1.5995	-0.0202	-0.0023	-0.0038	29.1597	2.9493	15.4164	0.6466	-0.0009	0.7629	-0.0070
3.89	-9.4906	-0.1167	-1.6079	-0.0200	0.0034	-0.0050	29.2874	3.0220	15.2485	0.6464	-0.0009	0.7628	-0.0070
3.9	-9.4809	-0.1021	-1.6016	-0.0204	-0.0069	-0.0031	29.2205	3.1148	15.2856	0.6465	-0.0009	0.7629	-0.0070
3.91	-9.4885	-0.1081	-1.6098	-0.0216	-0.0077	-0.0057	29.2223	2.8075	15.4325	0.6465	-0.0009	0.7629	-0.0070
3.92	-9.4891	-0.1056	-1.6102	-0.0112	-0.0059	-0.0033	29.5392	2.6993	15.1936	0.6465	-0.0009	0.7629	-0.0070
3.93	-9.4920	-0.1122	-1.6226	-0.0195	-0.0041	0.0001	29.4148	2.7041	15.2225	0.6465	-0.0009	0.7629	-0.0070
3.94	-9.4843	-0.1086	-1.6212	-0.0190	-0.0054	-0.0036	29.4207	2.8027	15.1433	0.6465	-0.0009	0.7629	-0.0070
3.95	-9.4896	-0.1101	-1.6305	-0.0212	-0.0039	-0.0045	29.2664	2.7688	15.3577	0.6465	-0.0009	0.7629	-0.0070
3.96	-9.4942	-0.1121	-1.6297	-0.0238	-0.0076	-0.0041	29.2516	2.7780	15.2809	0.6465	-0.0009	0.7628	-0.0069
3.97	-9.4802	-0.1211	-1.6416	-0.0195	-0.0062	-0.0065	29.3839	2.7854	15.2092	0.6466	-0.0009	0.7629	-0.0069
3.98	-9.4850	-0.1226	-1.6371	-0.0144	-0.0039	-0.0032	29.2817	2.7606	15.5936	0.6465	-0.0009	0.7628	-0.0069
3.99	-9.4895	-0.1203	-1.6256	-0.0196	-0.0077	-0.0042	29.2532	2.8394	15.4735	0.6466	-0.0009	0.7629	-0.0069
4	-9.4870	-0.1289	-1.6131	-0.0147	-0.0081	-0.0053	29.2588	2.9541	15.3299	0.6465	-0.0009	0.7628	-0.0069
4.01	-9.4895	-0.1267	-1.6254	-0.0163	-0.0063	-0.0002	29.2800	2.9439	15.3037	0.6466	-0.0009	0.7628	-0.0069
4.02	-9.4870	-0.1332	-1.6100	-0.0247	0.0016	-0.0046	29.2077	2.9250	15.3665	0.6466	-0.0009	0.7629	-0.0069
4.03	-9.4891	-0.1286	-1.6128	-0.0155	-0.0019	-0.0067	29.1591	3.0227	15.4474	0.6465	-0.0009	0.7628	-0.0069
4.04	-9.4793	-0.1189	-1.6091	-0.0195	-0.0018	-0.0052	29.2824	3.0211	15.4326	0.6466	-0.0009	0.7629	-0.0069
4.05	-9.4772	-0.1197	-1.5940	-0.0237	-0.0045	-0.0063	29.2531	3.0399	15.3603	0.6465	-0.0010	0.7629	-0.0069
4.06	-9.4927	-0.1256	-1.5947	-0.0212	0.0027	-0.0015	29.2689	2.9592	15.2900	0.6466	-0.0010	0.7629	-0.0069
4.07	-9.4857	-0.1102	-1.5838	-0.0153	0.0067	-0.0025	29.2665	2.9300	15.3623	0.6464	-0.0009	0.7629	-0.0069
4.08	-9.4747	-0.1083	-1.5776	-0.0196	-0.0030	-0.0026	29.1423	2.9504	15.3542	0.6465	-0.0009	0.7629	-0.0069
4.09	-9.4832	-0.1143	-1.5727	-0.0218	-0.0054	0.0024	29.4304	2.9187	15.4148	0.6465	-0.0009	0.7629	-0.0068
4.1	-9.4823	-0.1010	-1.5798	-0.0190	-0.0059	-0.0004	29.6021	2.7433	15.4994	0.6464	-0.0009	0.7629	-0.0068
4.11	-9.4854	-0.1199	-1.5820	-0.0214	-0.0054	-0.0027	29.5293	3.0140	15.2958	0.6465	-0.0009	0.7630	-0.0068
4.12	-9.4806	-0.1223	-1.5775	-0.0199	-0.0051	-0.0033	29.5003	3.0310	15.1615	0.6465	-0.0009	0.7629	-0.0068
4.13	-9.4942	-0.1295	-1.5776	-0.0204	0.0007	-0.0041	29.3534	2.8462	15.0733	0.6465	-0.0009	0.7630	-0.0068
4.14	-9.4964	-0.1350	-1.5814	-0.0186	-0.0069	-0.0018	29.3953	2.8998	15.1987	0.6464	-0.0009	0.7629	-0.0068
4.15	-9.4808	-0.1432	-1.5777	-0.0240	0.0004	-0.0049	28.9874	2.7360	15.1663	0.6465	-0.0009	0.7629	-0.0067
4.16	-9.4878	-0.1355	-1.5953	-0.0134	0.0009	-0.0036	29.1488	3.0272	15.0236	0.6464	-0.0009	0.7629	-0.0067
4.17	-9.4781	-0.1221	-1.5869	-0.0171	-0.0053	-0.0052	29.1999	2.9682	14.9735	0.6464	-0.0009	0.7629	-0.0068
4.18	-9.4820	-0.1202	-1.5692	-0.0210	-0.0048	-0.0051	29.2124	2.9559	15.1257	0.6464	-0.0009	0.7630	-0.0067
4.19	-9.4995	-0.1072	-1.5899	-0.0145	-0.0042	-0.0059	29.2403	2.9337	15.1787	0.6464	-0.0009	0.7629	-0.0068
4.2	-9.4843	-0.0929	-1.5826	-0.0140	-0.0018	-0.0035	29.0277	2.8119	15.2036	0.6464	-0.0009	0.7630	-0.0068
4.21	-9.4857	-0.0791	-1.6005	-0.0186	0.0044	-0.0030	29.3105	2.6867	15.0762	0.6463	-0.0009	0.7629	-0.0068
4.22	-9.4845	-0.0818	-1.6082	-0.0179	-0.0045	-0.0043	29.1525	2.7444	15.1384	0.6464	-0.0009	0.7630	-0.0068
4.23	-9.4874	-0.0893	-1.5981	-0.0133	0.0025	-0.0020	29.2305	2.7706	15.1491	0.6464	-0.0009	0.7630	-0.0068
4.24	-9.4866	-0.1093	-1.6160	-0.0226	0.0028	-0.0028	29.0969	2.9190	15.0990	0.6463	-0.0009	0.7630	-0.0067
4.25	-9.4687	-0.1228	-1.6021	-0.0225	0.0050	-0.0025	29.1951	3.0567	15.4990	0.6463	-0.0009	0.7630	-0.0067
4.26	-9.4848	-0.1368	-1.6237	-0.0230	-0.0028	-0.0017	29.2823	2.8102	15.2799	0.6463	-0.0009	0.7631	-0.0067
4.27	-9.4866	-0.1599	-1.6099	-0.0220	-0.0029	-0.0020	29.4466	2.7363	15.2904	0.6463	-0.0009	0.7631	-0.0067
4.28	-9.4679	-0.1603	-1.5900	-0.0242	-0.0072	-0.0047	29.3265	2.7520	15.1926	0.6462	-0.0009	0.7630	-0.0066
4.29	-9.4925	-0.1420	-1.6085	-0.0140	-0.0045	-0.0008	29.4873	2.9381	15.1702	0.6463	-0.0009	0.7631	-0.0066
4.3	-9.4842	-0.1105	-1.5952	-0.0127	-0.0036	-0.0043	29.3181	2.7929	15.2191	0.6463	-0.0009	0.7631	-0.0067
4.31	-9.4874	-0.0971	-1.6000	-0.0175	-0.0003	-0.0051	29.3157	2.8526	15.3240	0.6463	-0.0009	0.7631	-0.0067
4.32	-9.4869	-0.0879	-1.6068	-0.0232	0.0021	-0.0028	29.3576	2.9599	15.0544	0.6462	-0.0009	0.7631	-0.0066
4.33	-9.4840	-0.1074	-1.6064	-0.0215	-0.0066	-0.0047	29.2744	2.8758	15.1326	0.6463	-0.0009	0.7631	-0.0066
4.34	-9.4898	-0.1344	-1.6079	-0.0169	-0.0059	-0.0067	29.3562	2.9887	15.1947	0.6463	-0.0009	0.7631	-0.0066
4.35	-9.4734	-0.1546	-1.5951	-0.0228	-0.0042	-0.0046	29.1386	2.9436	15.1734	0.6462	-0.0009	0.7630	-0.0066
4.36	-9.4873	-0.1578	-1.5957	-0.0234	-0.0125	-0.0077	29.4061	2.8719	15.1781	0.6463	-0.0010	0.7631	-0.0066
4.37	-9.4964	-0.1437	-1.6008	-0.0206	-0.0011	-0.0060	29.2987	2.8795	15.2111	0.6463	-0.0010	0.7631	-0.0066
4.38	-9.4728	-0.1111	-1.5948	-0.0150	-0.0041	-0.0001	29.2525	2.8496	15.3135	0.6463	-0.0010	0.7631	-0.0066
4.39	-9.4815	-0.0880	-1.5989	-0.0177	-0.0038	-0.0049	29.2838	3.0466	15.1430	0.6462	-0.0010	0.7630	-0.0066
4.4	-9.4876	-0.0702	-1.5858	-0.0226	-0.0028	-0.0045	29.2417	2.9353	15.3259	0.6463	-0.0010	0.7631	-0.0066
4.41	-9.4757	-0.0490	-1.5722	-0.0232	-0.0025	-0.0050	29.3247	2.8105	15.3412	0.6463	-0.0010	0.7631	-0.0066
4.42	-9.4930	-0.0431	-1.5887	-0.0212	-0.0049	-0.0047	29.3200	2.7756	15.1576	0.6462	-0.0010	0.7631	-0.0065
4.43	-9.4943	-0.0739	-1.5952	-0.0237	-0.0052	-0.0036	29.0519	2.8822	15.2903	0.6463	-0.0010	0.7631	-0.0065
4.44	-9.4783	-0.0909	-1.6056	-0.0235	-0.0011	-0.0089	29.1640	2.9932	15.2399	0.6462	-0.0010	0.7631	-0.0065
4.45	-9.4788	-0.1255	-1.6152	-0.0235	-0.0068	-0.0090	29.1847	3.0694	15.3059	0.6463	-0.0011	0.7631	-0.0065
4.46	-9.4892	-0.1481	-1.6070	-0.0229	-0.0017	-0.0023	29.2003	2.9432	15.0712	0.6462	-0.0011	0.7630	-0.0065
4.47	-9.4817	-0.1557	-1.6021	-0.0231	-0.0013	-0.0037	29.2615	2.8678	15.1156	0.6463	-0.0011	0.7631	-0.0065
4.48	-9.4874	-0.1742	-1.6095	-0.0194	-0.0022	0.0008	29.3298	2.7209	15.2084	0.6462	-0.0011	0.7631	-0.0064
4.49	-9.4821	-0.1527	-1.6120	-0.0130	-0.0063	-0.0023	29.3022	2.9777	15.1726	0.6463	-0.0011	0.7631	-0.0064
4.5	-9.4758	-0.1377	-1.5991	-0.0185	-0.0060	-0.0084	29.1707	2.8430	15.1739	0.6462	-0.0011	0.7631	-0.0065
4.51	-9.4935	-0.1156	-1.6219	-0.0182	-0.0028	-0.0058	29.4064	2.5852	15.3375	0.6462	-0.0011	0.7631	-0.0065
4.52	-9.4788	-0.0837	-1.6219	-0.0208	-0.0050	-0.0032	29.1214	2.8035	15.1412	0.6463	-0.0011	0.7631	-0.0064
4.53	-9.4839	-0.0872	-1.6196	-0.0215	-0.0040	-0.0062	29.4498	2.7901	15.0606	0.6462	-0.0011	0.7631	-0.0064
4.54	-9.4821	-0.0794	-1.6250	-0.0152	-0.0037	-0.0076	29.3262	2.8758	15.3278	0.6463	-0.0011	0.7632	-0.0065
4.55	-9.4746	-0.0896	-1.5941	-0.0218	-0.0085	-0.0038	29.2469	2.9110	15.0692	0.6462	-0.0011	0.7631	-0.0064
4.56	-9.4996	-0.1000	-1.6177	-0.0192	-0.0052	-0.0050	29.2940	2.9726	15.1758	0.6463	-0.0011	0.7632	-0.0064
4.57	-9.4868	-0.1270	-1.6139	-0.0223	-0.0042	-0.0053	29.2463	2.9510	15.1682	0.6462	-0.0012	0.7631	-0.0064
4.58	-9.4821	-0.1310	-1.6269	-0.0216	-0.0007	-0.0062	29.1938	3.0533	15.3199	0.6462	-0.0012	0.7631	-0.0064
4.59	-9.4868	-0.1252	-1.6258	-0.0248	-0.0025	-0.0062	29.4893	2.8751	15.5339	0.6462	-0.0012	0.7631	-0.0064
4.6	-9.4842	-0.1164	-1.6143	-0.0226	-0.0059	-0.0089	29.7914	2.8805	15.5595	0.6462	-0.0012	0.7631	-0.0064
4.61	-9.4889	-0.1028	-1.6362	-0.0199	0.0004	-0.0033	29.4956	2.9685	15.3830	0.6463	-0.0012	0.7632	-0.0064
4.62	-9.4756	-0.0906	-1.6113	-0.0146	-0.0016	-0.0059	29.3109	2.9673	15.5377	0.6462	-0.0012	0.7631	-0.0064
4.63	-9.4852	-0.0877	-1.6200	-0.0207	-0.0020	-0.0074	29.0743	3.0360	15.3878	0.6462	-0.0012	0.7632	-0.0064
4.64	-9.4907	-0.0920	-1.6106	-0.0210	-0.0017	-0.0070	29.1572	2.9288	15.2063	0.6461	-0.0013	0.7631	-0.0064
4.65	-9.4866	-0.0849	-1.5910	-0.0163	-0.0053	-0.0065	29.1898	2.9498	15.3672	0.6462	-0.0013	0.7632	-0.0064
4.66	-9.4879	-0.0925	-1.5988	-0.0168	-0.0087	-0.0076	29.1800	2.9097	15.1269	0.6462	-0.0013	0.7631	-0.0064
4.67	-9.4764	-0.0915	-1.5977	-0.0223	-0.0094	-0.0060	29.4749	2.7706	15.2545	0.6462	-0.0013	0.7631	-0.0064
4.68	-9.4834	-0.0933	-1.5961	-0.0155	-0.0046	-0.0060	29.4717	2.7884	15.2435	0.6462	-0.0013	0.7631	-0.0064
4.69	-9.4852	-0.0903	-1.5981	-0.0176	-0.0050	-0.0053	29.5260	2.7743	15.2783	0.6462	-0.0013	0.7631	-0.0064
4.7	-9.4999	-0.0919	-1.6059	-0.0191	-0.0064	-0.0043	29.2380	2.7888	15.3776	0.6463	-0.0013	0.7631	-0.0064
4.71	-9.4958	-0.0945	-1.5941	-0.0162	-0.0077	-0.0062	29.4715	2.7558	15.2288	0.6462	-0.0013	0.7630	-0.0064
4.72	-9.4878	-0.0893	-1.5918	-0.0115	-0.0044	-0.0029	29.4622	2.9206	15.2682	0.6463	-0.0013	0.7631	-0.0064
4.73	-9.4720	-0.1059	-1.5895	-0.0173	-0.0024	-0.0060	29.4346	3.0669	15.2091	0.6462	-0.0013	0.7631	-0.0064
4.74	-9.4820	-0.1053	-1.5819	-0.0191	0.0023	-0.0073	29.2881	2.9660	15.3366	0.6462	-0.0013	0.7631	-0.0064
4.75	-9.4925	-0.1192	-1.5855	-0.0145	-0.0045	-0.0093	29.2930	2.8140	15.3136	0.6462	-0.0013	0.7631	-0.0065
4.76	-9.4894	-0.1160	-1.5838	-0.0228	-0.0075	-0.0067	29.5230	3.0647	15.3797	0.6462	-0.0013	0.7631	-0.0065
4.77	-9.4890	-0.1160	-1.5803	-0.0165	-0.0007	-0.0064	29.1638	3.2188	15.1765	0.6462	-0.0013	0.7632	-0.0065
4.78	-9.4782	-0.1170	-1.5764	-0.0234	-0.0057	-0.0022	29.1346	2.8856	15.2183	0.6462	-0.0013	0.7631	-0.0065
4.79	-9.4787	-0.1237	-1.5796	-0.0208	-0.0016	-0.0060	29.1173	3.0745	15.2406	0.6462	-0.0014	0.7632	-0.0064
4.8	-9.4815	-0.1356	-1.5872	-0.0231	-0.0010	-0.0077	29.1983	3.0841	15.2650	0.6462	-0.0014	0.7631	-0.0064
4.81	-9.4828	-0.1450	-1.5826	-0.0236	-0.0000	-0.0036	29.1584	2.7225	15.3677	0.6462	-0.0014	0.7632	-0.0064
4.82	-9.4827	-0.1583	-1.5935	-0.0227	-0.0021	-0.0067	29.1320	2.9756	15.3010	0.6461	-0.0014	0.7631	-0.0064
4.83	-9.4881	-0.1486	-1.6014	-0.0240	-0.0061	-0.0063	29.2131	3.1118	15.3470	0.6462	-0.0014	0.7632	-0.0064
4.84	-9.4847	-0.1588	-1.6079	-0.0228	-0.0043	-0.0064	29.1240	2.9708	15.1057	0.6462	-0.0015	0.7632	-0.0064
4.85	-9.4754	-0.1602	-1.6023	-0.0243	-0.0086	-0.0036	29.3952	2.7989	15.3444	0.6461	-0.0015	0.7631	-0.0063
4.86	-9.4829	-0.1463	-1.6202	-0.0136	-0.0060	-0.0043	29.4577	2.5852	15.3269	0.6462	-0.0015	0.7632	-0.0064
4.87	-9.4932	-0.1477	-1.6148	-0.0142	-0.0066	-0.0042	29.4675	2.7600	15.2524	0.6462	-0.0015	0.7631	-0.0064
4.88	-9.4856	-0.1278	-1.6082	-0.0195	-0.0035	-0.0013	29.4471	3.0444	15.1766	0.6462	-0.0015	0.7632	-0.0064
4.89	-9.4794	-0.1251	-1.6025	-0.0221	-0.0072	-0.0028	29.4854	2.8694	15.1632	0.6461	-0.0015	0.7631	-0.0063
4.9	-9.4875	-0.1183	-1.6172	-0.0226	-0.0064	-0.0062	29.3168	2.6480	15.1373	0.6462	-0.0015	0.7632	-0.0063
4.91	-9.4813	-0.1161	-1.6206	-0.0214	-0.0075	-0.0064	29.3526	2.8863	15.0678	0.6462	-0.0015	0.7631	-0.0063
4.92	-9.4900	-0.1185	-1.6222	-0.0205	-0.0054	-0.0072	29.3785	2.8313	15.0348	0.6462	-0.0015	0.7631	-0.0063
4.93	-9.4861	-0.1200	-1.6249	-0.0230	-0.0044	-0.0069	29.4853	2.9055	15.3176	0.6462	-0.0015	0.7631	-0.0063
4.94	-9.4935	-0.1191	-1.6301	-0.0233	-0.0053	-0.0027	29.5100	3.0309	15.3905	0.6462	-0.0016	0.7631	-0.0063
4.95	-9.4856	-0.1251	-1.6317	-0.0231	-0.0009	-0.0023	29.2680	2.8985	15.1446	0.6462	-0.0016	0.7632	-0.0062
4.96	-9.4765	-0.1261	-1.6150	-0.0237	0.0011	-0.0068	29.3267	3.0406	15.1256	0.6461	-0.0016	0.7631	-0.0062
4.97	-9.4918	-0.1281	-1.6153	-0.0230	-0.0066	-0.0060	29.1706	2.9267	15.3274	0.6462	-0.0016	0.7632	-0.0062
4.98	-9.4792	-0.1139	-1.6066	-0.0236	-0.0047	-0.0043	29.1277	3.0709	15.3591	0.6462	-0.0016	0.7631	-0.0062
4.99	-9.4843	-0.1085	-1.6205	-0.0197	-0.0009	-0.0048	29.1328	2.9334	15.1692	0.6462	-0.0016	0.7632	-0.0062
5	-9.4876	-0.0917	-1.6101	-0.0243	-0.0072	-0.0029	29.2166	2.9422	15.3741	0.6462	-0.0017	0.7631	-0.0062
5.01	-9.4903	-0.0862	-1.6024	-0.0151	0.0001	-0.0031	29.3313	2.9394	15.3048	0.6462	-0.0016	0.7632	-0.0062
5.02	-9.4753	-0.0834	-1.5931	-0.0218	-0.0065	-0.0044	29.2492	2.9645	15.3343	0.6462	-0.0016	0.7632	-0.0061
5.03	-9.4806	-0.0902	-1.5924	-0.0169	-0.0035	-0.0042	29.4615	3.1638	15.0143	0.6461	-0.0016	0.7631	-0.0061
5.04	-9.4969	-0.0884	-1.5908	-0.0133	-0.0042	-0.0032	29.6467	2.8634	15.1377	0.6462	-0.0016	0.7632	-0.0062
5.05	-9.4856	-0.0811	-1.5904	-0.0174	-0.0061	-0.0035	29.4825	2.8013	15.2501	0.6462	-0.0016	0.7632	-0.0062
5.06	-9.4908	-0.0787	-1.5916	-0.0216	-0.0053	-0.0026	29.4004	2.8877	15.1102	0.6462	-0.0016	0.7632	-0.0061
5.07	-9.4892	-0.0663	-1.6034	-0.0244	-0.0059	-0.0006	29.3581	2.8500	15.2696	0.6461	-0.0016	0.7631	-0.0061
5.08	-9.4752	-0.0654	-1.5919	-0.0222	-0.0040	-0.0018	29.5037	2.9707	15.3572	0.6462	-0.0016	0.7632	-0.0061
5.09	-9.4722	-0.0790	-1.5790	-0.0241	-0.0062	-0.0069	29.7331	2.9601	15.2880	0.6462	-0.0017	0.7632	-0.0061
5.1	-9.4776	-0.0898	-1.5864	-0.0190	-0.0066	-0.0025	29.8344	3.1731	15.2100	0.6462	-0.0017	0.7631	-0.0061
5.11	-9.4886	-0.1015	-1.5924	-0.0146	-0.0018	-0.0022	29.4630	2.8807	15.4628	0.6462	-0.0016	0.7632	-0.0061
5.12	-9.4843	-0.1207	-1.5918	-0.0245	-0.0076	-0.0100	29.2941	2.9575	15.4628	0.6462	-0.0017	0.7631	-0.0061
5.13	-9.4896	-0.1232	-1.5904	-0.0209	-0.0065	-0.0061	29.1085	2.8345	15.4447	0.6462	-0.0017	0.7632	-0.0060
5.14	-9.4823	-0.1139	-1.5973	-0.0244	-0.0042	-0.0058	29.2719	2.7855	15.3651	0.6462	-0.0017	0.7631	-0.0060
5.15	-9.4784	-0.0900	-1.6073	-0.0167	-0.0017	-0.0056	29.4593	3.0299	15.2073	0.6462	-0.0017	0.7632	-0.0060
5.16	-9.4792	-0.0813	-1.6019	-0.0212	-0.0002	-0.0043	29.2722	2.9440	15.0140	0.6462	-0.0017	0.7632	-0.0060
5.17	-9.4816	-0.0759	-1.6130	-0.0209	-0.0028	-0.0047	29.2543	3.0054	15.2493	0.6462	-0.0017	0.7632	-0.0060
5.18	-9.4900	-0.0879	-1.6075	-0.0230	0.0011	-0.0065	29.3662	2.8511	15.3675	0.6462	-0.0018	0.7632	-0.0060
5.19	-9.4759	-0.1101	-1.6094	-0.0234	-0.0012	-0.0063	29.3083	3.1873	15.3296	0.6461	-0.0018	0.7632	-0.0060
5.2	-9.4745	-0.1465	-1.6068	-0.0190	0.0062	-0.0056	29.2509	2.8039	15.1567	0.6461	-0.0018	0.7633	-0.0060
5.21	-9.4796	-0.1681	-1.6090	-0.0245	0.0008	-0.0067	29.2798	2.9147	15.2725	0.6460	-0.0018	0.7632	-0.0060
5.22	-9.4831	-0.1972	-1.6041	-0.0151	-0.0015	-0.0042	29.1575	2.9183	15.2355	0.6461	-0.0018	0.7633	-0.0060
5.23	-9.4847	-0.1820	-1.6085	-0.0192	-0.0056	-0.0056	29.3685	2.7088	15.1701	0.6461	-0.0018	0.7633	-0.0060
5.24	-9.4812	-0.1600	-1.6234	-0.0169	0.0006	-0.0005	29.2667	3.1164	15.1216	0.6461	-0.0018	0.7633	-0.0060
5.25	-9.4870	-0.1475	-1.6109	-0.0151	0.0020	-0.0026	29.3597	2.8778	14.9610	0.6460	-0.0018	0.7633	-0.0060
5.26	-9.4946	-0.1220	-1.6120	-0.0115	-0.0015	-0.0051	29.4535	2.6309	15.1784	0.6460	-0.0018	0.7633	-0.0060
5.27	-9.4805	-0.1215	-1.5961	-0.0136	-0.0022	-0.0011	29.2381	2.7614	15.1309	0.6460	-0.0017	0.7633	-0.0060
5.28	-9.4784	-0.1412	-1.5876	-0.0178	0.0014	-0.0048	29.3770	2.8252	15.0516	0.6459	-0.0017	0.7633	-0.0060
5.29	-9.4952	-0.1606	-1.5955	-0.0198	-0.0010	-0.0018	29.2207	2.7292	15.2358	0.6460	-0.0017	0.7634	-0.0060
5.3	-9.4719	-0.1561	-1.5985	-0.0189	-0.0006	-0.0060	29.3548	3.0845	15.0775	0.6459	-0.0017	0.7633	-0.0060
5.31	-9.4825	-0.1592	-1.6145	-0.0199	-0.0054	-0.0071	29.2453	2.8111	14.9425	0.6460	-0.0018	0.7634	-0.0060
5.32	-9.4922	-0.1424	-1.6087	-0.0230	0.0007	-0.0016	29.0820	2.7784	15.2072	0.6459	-0.0018	0.7633	-0.0060
5.33	-9.4830	-0.1299	-1.6131	-0.0226	-0.0007	-0.0069	29.2167	3.0815	15.1480	0.6459	-0.0018	0.7634	-0.0060
5.34	-9.4764	-0.1180	-1.6125	-0.0174	0.0055	-0.0043	29.1802	3.1081	15.1858	0.6459	-0.0018	0.7634	-0.0060
5.35	-9.4856	-0.1135	-1.6191	-0.0219	0.0017	-0.0064	29.1752	3.0265	15.1333	0.6458	-0.0018	0.7634	-0.0059
5.36	-9.4918	-0.1149	-1.6232	-0.0229	-0.0032	-0.0050	29.3009	3.0739	15.3135	0.6459	-0.0018	0.7635	-0.0059
5.37	-9.4837	-0.1124	-1.6024	-0.0218	-0.0023	-0.0016	29.2016	3.0365	15.2973	0.6458	-0.0018	0.7634	-0.0059
5.38	-9.4861	-0.1086	-1.6164	-0.0224	-0.0056	-0.0045	29.2470	2.8725	15.0514	0.6459	-0.0018	0.7635	-0.0059
5.39	-9.4762	-0.0972	-1.6075	-0.0227	-0.0015	-0.0027	29.2774	2.9900	15.1782	0.6458	-0.0018	0.7634	-0.0059
5.4	-9.4756	-0.0890	-1.6069	-0.0214	-0.0073	-0.0031	29.1728	2.9447	15.1816	0.6458	-0.0018	0.7635	-0.0058
5.41	-9.4970	-0.0809	-1.6163	-0.0230	-0.0110	-0.0033	29.3352	2.8805	15.3058	0.6459	-0.0019	0.7634	-0.0058
5.42	-9.5125	-0.0594	-1.6176	-0.0221	-0.0081	-0.0069	29.3715	2.8810	15.1738	0.6459	-0.0019	0.7634	-0.0058
5.43	-9.4771	-0.0457	-1.6066	-0.0238	-0.0056	-0.0023	29.2306	3.0078	15.1659	0.6459	-0.0019	0.7634	-0.0058
5.44	-9.4807	-0.0376	-1.6205	-0.0208	-0.0028	-0.0009	29.3332	2.7857	15.1871	0.6459	-0.0019	0.7634	-0.0058
5.45	-9.4849	-0.0406	-1.5954	-0.0226	-0.0039	-0.0048	29.2893	2.7494	15.1600	0.6459	-0.0019	0.7635	-0.0057
5.46	-9.5078	-0.0816	-1.6375	-0.0207	-0.0047	-0.0009	29.3332	2.9111	15.2551	0.6458	-0.0019	0.7634	-0.0057
5.47	-9.4948	-0.0943	-1.6384	-0.0207	-0.0040	-0.0043	29.3400	2.8946	15.4841	0.6459	-0.0019	0.7635	-0.0057
5.48	-9.4568	-0.0980	-1.5906	-0.0182	-0.0014	-0.0036	29.2311	3.0177	15.2121	0.6458	-0.0019	0.7634	-0.0057
5.49	-9.5391	-0.1078	-1.6818	-0.0220	-0.0012	-0.0038	29.3024	3.1548	14.8689	0.6459	-0.0019	0.7635	-0.0057
5.5	-9.4585	-0.0958	-1.5914	-0.0143	-0.0082	-0.0035	29.2491	3.0357	15.0205	0.6458	-0.0019	0.7634	-0.0057
5.51	-9.4809	-0.0916	-1.6143	-0.0172	-0.0055	-0.0057	29.1853	2.9757	15.2072	0.6459	-0.0019	0.7634	-0.0057
5.52	-9.5112	-0.1042	-1.6639	-0.0229	-0.0029	-0.0075	29.1718	3.0980	15.1480	0.6459	-0.0019	0.7635	-0.0057
5.53	-9.4532	-0.1083	-1.6088	-0.0224	0.0011	-0.0123	29.2656	2.9746	15.1814	0.6458	-0.0020	0.7634	-0.0057
5.54	-9.4806	-0.1367	-1.6367	-0.0189	0.0009	-0.0052	29.3585	2.7734	15.1680	0.6458	-0.0020	0.7635	-0.0057
5.55	-9.4895	-0.1566	-1.6454	-0.0216	-0.0013	-0.0075	29.2223	2.8535	15.4887	0.6458	-0.0020	0.7635	-0.0057
5.56	-9.4830	-0.1591	-1.6101	-0.0234	-0.0026	-0.0098	29.3041	2.9109	15.2763	0.6458	-0.0020	0.7636	-0.0057
5.57	-9.4826	-0.1576	-1.6188	-0.0230	0.0016	-0.0052	29.1533	2.8724	15.2579	0.6457	-0.0021	0.7635	-0.0057
5.58	-9.4954	-0.1571	-1.6223	-0.0242	-0.0048	-0.0096	29.2234	2.9110	15.3530	0.6458	-0.0021	0.7635	-0.0057
5.59	-9.4736	-0.1447	-1.6073	-0.0196	-0.0075	-0.0048	29.6189	3.0227	15.2131	0.6458	-0.0021	0.7635	-0.0057
5.6	-9.4690	-0.1336	-1.5989	-0.0173	-0.0059	-0.0023	29.7643	2.8835	15.3716	0.6457	-0.0021	0.7635	-0.0057
5.61	-9.4944	-0.1428	-1.5937	-0.0095	-0.0060	-0.0020	29.6537	2.9756	15.3299	0.6458	-0.0021	0.7636	-0.0057
5.62	-9.4959	-0.1592	-1.5925	-0.0136	-0.0072	0.0017	29.5018	2.6237	15.1532	0.6458	-0.0020	0.7635	-0.0057
5.63	-9.4790	-0.1699	-1.5865	-0.0180	-0.0064	-0.0038	29.2694	2.8602	15.3595	0.6458	-0.0020	0.7635	-0.0057
5.64	-9.4750	-0.1810	-1.5802	-0.0121	-0.0053	-0.0023	29.3719	3.0678	15.2601	0.6458	-0.0020	0.7634	-0.0057
5.65	-9.4839	-0.1813	-1.5631	-0.0138	-0.0029	-0.0038	29.3177	2.7822	15.2900	0.6458	-0.0020	0.7635	-0.0057
5.66	-9.4737	-0.1781	-1.5461	-0.0128	-0.0037	-0.0038	29.2835	2.9347	15.0256	0.6458	-0.0020	0.7635	-0.0057
5.67	-9.4803	-0.1587	-1.5457	-0.0091	-0.0082	-0.0035	29.4550	2.9045	15.1222	0.6458	-0.0019	0.7635	-0.0057
5.68	-9.4960	-0.1445	-1.5413	-0.0020	-0.0065	-0.0043	29.4149	2.6256	15.3429	0.6458	-0.0019	0.7635	-0.0058
5.69	-9.4759	-0.1030	-1.5301	-0.0097	-0.0078	-0.0043	29.4514	2.9151	14.9355	0.6458	-0.0018	0.7634	-0.0058
5.7	-9.4831	-0.0831	-1.5438	-0.0079	-0.0033	-0.0020	29.2101	3.0578	14.9668	0.6459	-0.0018	0.7635	-0.0059
5.71	-9.4850	-0.0641	-1.5533	-0.0065	0.0020	-0.0049	29.1903	2.9968	15.0752	0.6458	-0.0018	0.7634	-0.0059
5.72	-9.4784	-0.0506	-1.5427	-0.0159	0.0053	-0.0063	29.1770	3.1244	15.2292	0.6458	-0.0018	0.7635	-0.0059
5.73	-9.4888	-0.0439	-1.5561	-0.0076	0.0008	-0.0026	29.0881	2.9385	15.0657	0.6457	-0.0017	0.7635	-0.0060
5.74	-9.4946	-0.0423	-1.5633	-0.0165	-0.0025	0.0004	29.1247	2.9236	15.2558	0.6458	-0.0017	0.7636	-0.0060
5.75	-9.4695	-0.0529	-1.5589	-0.0222	0.0044	-0.0022	29.0932	3.0239	15.1622	0.6457	-0.0017	0.7635	-0.0059
5.76	-9.4847	-0.0747	-1.5725	-0.0215	0.0007	-0.0055	29.2547	3.0158	14.9699	0.6457	-0.0017	0.7636	-0.0059
5.77	-9.4959	-0.0880	-1.6071	-0.0193	0.0068	-0.0063	29.2545	3.0295	15.1744	0.6457	-0.0017	0.7636	-0.0059
5.78	-9.4918	-0.0980	-1.5984	-0.0172	-0.0030	-0.0070	29.0499	2.9479	15.2615	0.6456	-0.0017	0.7636	-0.0059
5.79	-9.4753	-0.0919	-1.6152	-0.0218	0.0034	-0.0026	29.4520	2.8235	15.1625	0.6456	-0.0017	0.7637	-0.0059
5.8	-9.4845	-0.0839	-1.6371	-0.0189	-0.0025	-0.0038	29.4942	2.7660	15.0915	0.6456	-0.0017	0.7636	-0.0059
5.81	-9.4914	-0.0836	-1.6422	-0.0193	0.0127	-0.0043	29.4048	2.7786	15.3144	0.6456	-0.0018	0.7638	-0.0059
5.82	-9.4937	-0.0656	-1.6490	-0.0198	-0.0027	-0.0004	29.4412	2.7763	15.1584	0.6455	-0.0017	0.7637	-0.0059
5.83	-9.4930	-0.0750	-1.6653	-0.0207	0.0031	-0.0073	29.5438	2.7724	15.1070	0.6455	-0.0018	0.7637	-0.0059
5.84	-9.4895	-0.0830	-1.6639	-0.0187	-0.0004	-0.0081	29.4387	2.8038	15.2366	0.6455	-0.0018	0.7638	-0.0059
5.85	-9.4918	-0.1018	-1.6763	-0.0196	-0.0023	-0.0026	29.2153	2.9645	15.0713	0.6454	-0.0018	0.7637	-0.0059
5.86	-9.4890	-0.1283	-1.6694	-0.0216	-0.0038	-0.0054	29.4274	2.8228	15.1144	0.6455	-0.0018	0.7638	-0.0059
5.87	-9.4935	-0.1515	-1.6733	-0.0230	-0.0091	-0.0030	29.3623	2.7769	15.2100	0.6455	-0.0018	0.7637	-0.0058
5.88	-9.4917	-0.1596	-1.6851	-0.0234	-0.0083	-0.0089	29.2357	2.9486	15.1543	0.6455	-0.0018	0.7638	-0.0058
5.89	-9.4759	-0.1459	-1.6745	-0.0220	0.0010	-0.0072	29.2943	2.9210	15.2764	0.6454	-0.0019	0.7637	-0.0058
5.9	-9.4825	-0.1302	-1.6809	-0.0217	-0.0027	-0.0071	29.0443	3.0612	15.2520	0.6455	-0.0019	0.7638	-0.0058
5.91	-9.4918	-0.1192	-1.6695	-0.0233	-0.0047	-0.0045	29.1826	3.0915	15.1038	0.6455	-0.0019	0.7638	-0.0058
5.92	-9.4839	-0.1313	-1.6596	-0.0223	-0.0014	-0.0068	29.1867	2.8967	15.3675	0.6454	-0.0019	0.7638	-0.0058
5.93	-9.4834	-0.1327	-1.6369	-0.0228	-0.0050	-0.0041	29.1913	3.0608	15.2408	0.6455	-0.0019	0.7638	-0.0058
5.94	-9.4831	-0.1508	-1.6310	-0.0220	-0.0006	-0.0087	29.1781	2.9548	15.1638	0.6454	-0.0020	0.7638	-0.0058
5.95	-9.4864	-0.1567	-1.6325	-0.0183	-0.0031	-0.0079	29.0488	2.9798	15.1611	0.6455	-0.0020	0.7638	-0.0058
5.96	-9.4956	-0.1570	-1.6121	-0.0185	-0.0076	-0.0041	29.2974	3.0353	15.2747	0.6454	-0.0020	0.7637	-0.0058
5.97	-9.4956	-0.1553	-1.6083	-0.0232	-0.0094	-0.0042	29.3274	3.0210	15.1385	0.6455	-0.0020	0.7638	-0.0058
5.98	-9.4859	-0.1386	-1.5862	-0.0223	-0.0037	-0.0041	29.2995	2.8297	15.2550	0.6455	-0.0020	0.7638	-0.0058
5.99	-9.4875	-0.1371	-1.5852	-0.0178	-0.0049	-0.0041	29.5880	2.5205	15.2249	0.6455	-0.0020	0.7638	-0.0058
6	-9.4893	-0.1359	-1.5848	-0.0246	-0.0045	-0.0038	29.2825	2.9452	15.1599	0.6454	-0.0020	0.7638	-0.0057
6.01	-9.4865	-0.1370	-1.5676	-0.0191	-0.0049	-0.0041	29.4292	2.8562	15.3183	0.6455	-0.0020	0.7638	-0.0057
6.02	-9.4945	-0.1325	-1.5760	-0.0115	-0.0046	-0.0043	29.3531	2.6280	15.2140	0.6455	-0.0020	0.7638	-0.0057
6.03	-9.4961	-0.1386	-1.5760	-0.0125	-0.0045	-0.0037	29.4472	3.0897	15.0990	0.6454	-0.0020	0.7637	-0.0058
6.04	-9.4812	-0.1333	-1.5554	-0.0215	-0.0047	-0.0046	29.3035	2.8689	14.9738	0.6455	-0.0020	0.7638	-0.0058
6.05	-9.4915	-0.1223	-1.5633	-0.0146	-0.0055	-0.0034	29.3415	2.9049	15.0641	0.6455	-0.0020	0.7638	-0.0058
6.06	-9.4913	-0.1225	-1.5661	-0.0180	-0.0107	-0.0085	29.4642	2.9110	15.3353	0.6455	-0.0020	0.7638	-0.0058
6.07	-9.4823	-0.0924	-1.5604	-0.0177	-0.0061	-0.0065	29.4335	2.7346	15.0457	0.6455	-0.0020	0.7637	-0.0058
6.08	-9.4967	-0.0842	-1.5642	-0.0087	0.0031	-0.0035	29.2924	2.9248	15.1641	0.6455	-0.0020	0.7638	-0.0058
6.09	-9.4922	-0.0780	-1.5750	-0.0197	0.0015	-0.0063	29.1589	3.0888	15.4683	0.6454	-0.0020	0.7638	-0.0058
6.1	-9.4906	-0.0694	-1.5713	-0.0197	-0.0006	-0.0053	29.4508	3.1224	15.4126	0.6454	-0.0020	0.7638	-0.0058
6.11	-9.4786	-0.0756	-1.5783	-0.0153	0.0056	-0.0055	29.3982	3.0068	15.5160	0.6454	-0.0020	0.7639	-0.0058
6.12	-9.4883	-0.0764	-1.5911	-0.0205	0.0004	-0.0040	29.4414	2.8616	15.2511	0.6454	-0.0020	0.7638	-0.0058
6.13	-9.4888	-0.0981	-1.5782	-0.0192	0.0039	-0.0043	29.2878	2.8880	15.0064	0.6454	-0.0020	0.7639	-0.0058
6.14	-9.4803	-0.1214	-1.5908	-0.0192	-0.0016	-0.0039	29.2849	2.8943	15.3374	0.6453	-0.0020	0.7638	-0.0058
6.15	-9.4953	-0.1207	-1.5955	-0.0229	-0.0009	-0.0062	29.2348	2.8860	15.0582	0.6453	-0.0020	0.7639	-0.0058
6.16	-9.4927	-0.1285	-1.6060	-0.0232	-0.0056	-0.0006	29.0563	2.8971	15.0727	0.6453	-0.0020	0.7639	-0.0058
6.17	-9.4883	-0.1286	-1.6108	-0.0176	-0.0100	-0.0017	29.4615	2.8730	15.2381	0.6453	-0.0020	0.7639	-0.0058
6.18	-9.4859	-0.1284	-1.6173	-0.0183	-0.0110	-0.0038	29.3167	3.0114	15.0457	0.6454	-0.0020	0.7639	-0.0058
6.19	-9.4809	-0.1164	-1.6247	-0.0192	-0.0034	-0.0031	29.2784	2.9198	15.2447	0.6454	-0.0020	0.7638	-0.0057
6.2	-9.4890	-0.1063	-1.6243	-0.0127	-0.0006	-0.0041	29.3934	2.9093	15.0798	0.6454	-0.0020	0.7639	-0.0058
6.21	-9.4872	-0.0969	-1.6247	-0.0139	-0.0048	-0.0040	29.2453	2.7843	15.1194	0.6453	-0.0020	0.7638	-0.0058
6.22	-9.4886	-0.1001	-1.6262	-0.0131	-0.0039	-0.0062	29.3885	2.9580	14.9378	0.6454	-0.0020	0.7639	-0.0058
6.23	-9.4884	-0.1059	-1.6230	-0.0117	-0.0056	-0.0036	29.3052	2.9168	15.1240	0.6453	-0.0019	0.7639	-0.0058
6.24	-9.4844	-0.1195	-1.6275	-0.0221	-0.0045	-0.0043	29.2329	2.9598	15.1736	0.6454	-0.0019	0.7639	-0.0058
6.25	-9.4744	-0.1357	-1.6272	-0.0222	-0.0071	-0.0043	29.3870	2.8925	15.2946	0.6453	-0.0020	0.7638	-0.0058
6.26	-9.4814	-0.1385	-1.6341	-0.0163	-0.0050	-0.0037	29.1675	2.6797	15.2033	0.6454	-0.0019	0.7639	-0.0058
6.27	-9.4887	-0.1519	-1.6395	-0.0244	-0.0040	-0.0048	29.1472	2.9209	15.0515	0.6454	-0.0020	0.7639	-0.0058
6.28	-9.4870	-0.1376	-1.6422	-0.0194	-0.0057	-0.0020	29.5041	2.8607	15.0940	0.6453	-0.0020	0.7638	-0.0058
6.29	-9.4798	-0.1110	-1.6459	-0.0200	-0.0034	-0.0043	29.1709	3.0300	15.2111	0.6454	-0.0020	0.7639	-0.0058
6.3	-9.4913	-0.0930	-1.6631	-0.0230	-0.0073	-0.0076	28.9954	2.8784	15.2253	0.6454	-0.0020	0.7638	-0.0058
6.31	-9.4793	-0.0719	-1.6565	-0.0227	-0.0034	-0.0037	29.2739	2.9824	14.9409	0.6454	-0.0020	0.7639	-0.0057
6.32	-9.4844	-0.0794	-1.6417	-0.0220	-0.0009	-0.0040	29.2875	2.8656	15.1300	0.6453	-0.0020	0.7638	-0.0057
6.33	-9.4913	-0.0797	-1.6511	-0.0221	-0.0021	-0.0033	29.1204	2.9482	15.1624	0.6453	-0.0020	0.7639	-0.0057
6.34	-9.4819	-0.0882	-1.6218	-0.0225	-0.0072	-0.0058	29.1650	2.8864	15.2072	0.6453	-0.0020	0.7639	-0.0057
6.35	-9.4993	-0.0914	-1.6354	-0.0118	-0.0130	-0.0092	29.4573	2.7695	15.0767	0.6453	-0.0020	0.7638	-0.0057
6.36	-9.4900	-0.0772	-1.6217	-0.0219	-0.0090	-0.0061	29.4186	2.9239	15.1296	0.6454	-0.0021	0.7639	-0.0057
6.37	-9.4708	-0.0675	-1.5825	-0.0207	-0.0089	-0.0037	29.4393	2.8955	15.1422	0.6454	-0.0021	0.7638	-0.0057
6.38	-9.4828	-0.0510	-1.5905	-0.0200	-0.0071	-0.0084	29.4263	2.8449	14.8829	0.6455	-0.0021	0.7638	-0.0057
6.39	-9.4861	-0.0632	-1.5971	-0.0230	-0.0086	-0.0034	29.4526	2.7831	15.0134	0.6454	-0.0021	0.7637	-0.0057
6.4	-9.4800	-0.0705	-1.5885	-0.0227	-0.0082	-0.0055	29.2971	3.0502	15.0184	0.6455	-0.0021	0.7638	-0.0057
6.41	-9.4896	-0.0831	-1.5752	-0.0229	-0.0035	-0.0065	29.2847	3.0330	15.1067	0.6454	-0.0021	0.7638	-0.0057
6.42	-9.4869	-0.0993	-1.5821	-0.0231	-0.0064	-0.0096	29.1868	2.8644	15.0833	0.6454	-0.0022	0.7638	-0.0057
6.43	-9.4927	-0.1461	-1.5700	-0.0230	-0.0061	-0.0087	29.2059	2.9995	15.0779	0.6455	-0.0022	0.7638	-0.0057
6.44	-9.4874	-0.1651	-1.5649	-0.0222	-0.0074	-0.0066	29.2616	3.0650	15.1140	0.6455	-0.0022	0.7638	-0.0057
6.45	-9.4871	-0.1818	-1.5739	-0.0227	-0.0030	-0.0035	29.1454	3.0639	15.1986	0.6455	-0.0022	0.7638	-0.0056
6.46	-9.4917	-0.1903	-1.5756	-0.0215	-0.0081	-0.0088	29.2770	2.9734	15.1459	0.6454	-0.0023	0.7637	-0.0056
6.47	-9.4822	-0.1867	-1.5633	-0.0216	-0.0110	-0.0039	29.2693	2.9761	15.3117	0.6455	-0.0023	0.7638	-0.0056
6.48	-9.4771	-0.1887	-1.5665	-0.0216	-0.0033	-0.0077	29.2347	2.9600	15.1901	0.6455	-0.0023	0.7637	-0.0056
6.49	-9.4826	-0.1696	-1.5741	-0.0182	-0.0011	-0.0059	29.1476	3.0372	15.1832	0.6455	-0.0023	0.7638	-0.0056
6.5	-9.4773	-0.1687	-1.5537	-0.0184	-0.0065	-0.0034	29.3056	3.0739	15.0630	0.6455	-0.0023	0.7637	-0.0056
6.51	-9.4865	-0.1619	-1.5750	-0.0161	0.0048	-0.0058	29.2312	3.0331	14.9972	0.6455	-0.0023	0.7638	-0.0056
6.52	-9.4848	-0.1468	-1.5642	-0.0137	-0.0052	-0.0037	29.3551	2.9306	15.1678	0.6455	-0.0023	0.7638	-0.0056
6.53	-9.4842	-0.1356	-1.5697	-0.0169	-0.0034	-0.0040	29.2642	3.0893	15.1978	0.6454	-0.0023	0.7637	-0.0056
6.54	-9.4882	-0.1338	-1.5771	-0.0187	-0.0021	-0.0035	29.1953	2.9188	15.0290	0.6455	-0.0023	0.7638	-0.0056
6.55	-9.4850	-0.1268	-1.5904	-0.0199	0.0018	-0.0042	29.2844	2.9219	15.0455	0.6454	-0.0023	0.7638	-0.0056
6.56	-9.4825	-0.1198	-1.5861	-0.0192	-0.0047	-0.0041	29.3148	2.7558	15.0917	0.6455	-0.0023	0.7639	-0.0056
6.57	-9.4873	-0.1207	-1.5905	-0.0221	-0.0017	-0.0054	29.4509	2.7128	15.2039	0.6454	-0.0023	0.7638	-0.0056
6.58	-9.4895	-0.1119	-1.5966	-0.0224	-0.0048	-0.0031	29.3090	2.9485	15.2471	0.6454	-0.0023	0.7638	-0.0056
6.59	-9.4710	-0.1036	-1.5913	-0.0209	-0.0036	-0.0046	29.5619	2.8622	15.1899	0.6454	-0.0023	0.7638	-0.0056
6.6	-9.4790	-0.1059	-1.6004	-0.0185	-0.0081	-0.0007	29.6021	2.9390	15.3861	0.6454	-0.0023	0.7638	-0.0056
6.61	-9.4880	-0.1024	-1.6122	-0.0241	-0.0021	-0.0079	29.5113	2.7476	15.3056	0.6455	-0.0023	0.7639	-0.0056
6.62	-9.4799	-0.1013	-1.6051	-0.0216	0.0005	-0.0014	29.4466	2.7721	15.1469	0.6454	-0.0023	0.7638	-0.0056
6.63	-9.4749	-0.1002	-1.6086	-0.0225	-0.0088	0.0004	29.2359	3.1070	15.1620	0.6454	-0.0023	0.7639	-0.0055
6.64	-9.4852	-0.1040	-1.6144	-0.0168	-0.0044	-0.0050	29.1833	3.1061	15.1815	0.6454	-0.0023	0.7638	-0.0055
6.65	-9.4889	-0.0994	-1.6131	-0.0226	-0.0014	-0.0054	29.3061	3.0981	15.1842	0.6454	-0.0023	0.7638	-0.0055
6.66	-9.4890	-0.0884	-1.6132	-0.0224	-0.0029	-0.0061	29.2383	3.1237	14.9781	0.6454	-0.0024	0.7638	-0.0055
6.67	-9.4911	-0.0816	-1.6366	-0.0154	-0.0009	-0.0055	29.1116	3.0321	15.1492	0.6454	-0.0023	0.7638	-0.0055
6.68	-9.4795	-0.0683	-1.6342	-0.0154	-0.0015	-0.0092	29.1102	2.9251	15.2857	0.6454	-0.0024	0.7639	-0.0055
6.69	-9.4822	-0.0459	-1.6461	-0.0173	-0.0036	-0.0072	29.1173	2.9334	15.2726	0.6454	-0.0024	0.7638	-0.0056
6.7	-9.4785	-0.0310	-1.6496	-0.0230	-0.0005	-0.0030	29.2941	2.9597	15.2215	0.6454	-0.0024	0.7639	-0.0055
6.71	-9.4746	-0.0368	-1.6405	-0.0221	-0.0056	-0.0034	29.1837	2.8453	15.0847	0.6453	-0.0024	0.7638	-0.0055
6.72	-9.4975	-0.0566	-1.6489	-0.0223	-0.0097	-0.0030	29.2131	2.8755	15.1895	0.6454	-0.0024	0.7639	-0.0055
6.73	-9.4785	-0.0801	-1.6411	-0.0219	-0.0083	-0.0061	29.4435	2.9539	15.2221	0.6454	-0.0024	0.7638	-0.0055
6.74	-9.4870	-0.1036	-1.6442	-0.0212	-0.0029	-0.0092	29.4167	2.7314	15.3129	0.6454	-0.0024	0.7639	-0.0055
6.75	-9.4966	-0.1200	-1.6457	-0.0187	-0.0042	-0.0032	29.5330	2.9096	15.1715	0.6454	-0.0024	0.7638	-0.0055
6.76	-9.4839	-0.1217	-1.6467	-0.0221	-0.0046	-0.0046	29.3877	2.9139	15.0633	0.6454	-0.0024	0.7638	-0.0055
6.77	-9.4731	-0.1208	-1.6435	-0.0173	-0.0044	-0.0032	29.3456	2.8501	15.1777	0.6454	-0.0024	0.7639	-0.0055
6.78	-9.4730	-0.1032	-1.6344	-0.0171	-0.0049	-0.0052	29.3566	2.8538	15.1202	0.6453	-0.0024	0.7638	-0.0055
6.79	-9.4859	-0.1020	-1.6430	-0.0184	-0.0030	-0.0012	29.4521	2.7996	15.0772	0.6454	-0.0024	0.7639	-0.0055
6.8	-9.4772	-0.0911	-1.6217	-0.0181	0.0027	-0.0038	29.2890	2.6899	15.2936	0.6453	-0.0024	0.7638	-0.0055
6.81	-9.4871	-0.0939	-1.6078	-0.0151	-0.0046	-0.0056	29.2717	2.6048	15.1986	0.6454	-0.0024	0.7639	-0.0055
6.82	-9.4904	-0.0997	-1.6192	-0.0209	-0.0103	0.0005	29.2727	2.9825	15.1875	0.6453	-0.0024	0.7638	-0.0055
6.83	-9.4809	-0.1001	-1.6131	-0.0232	-0.0049	-0.0025	29.3816	3.0476	15.2711	0.6454	-0.0024	0.7638	-0.0054
6.84	-9.4724	-0.1039	-1.5907	-0.0228	-0.0034	-0.0063	29.1285	3.1292	15.2978	0.6454	-0.0024	0.7638	-0.0054
6.85	-9.4843	-0.1152	-1.5958	-0.0232	-0.0015	-0.0062	29.1597	3.0830	15.0916	0.6453	-0.0025	0.7638	-0.0054
6.86	-9.4753	-0.1214	-1.5898	-0.0232	-0.0144	-0.0083	29.3258	3.1300	15.0072	0.6454	-0.0025	0.7639	-0.0054
6.87	-9.4795	-0.1502	-1.5735	-0.0231	-0.0049	-0.0065	29.0932	2.9326	15.0961	0.6454	-0.0025	0.7638	-0.0054
6.88	-9.4855	-0.1586	-1.5725	-0.0205	-0.0059	-0.0052	29.2261	3.0020	15.1587	0.6454	-0.0025	0.7639	-0.0054
6.89	-9.4765	-0.1551	-1.5783	-0.0226	-0.0026	-0.0081	29.3882	3.0423	15.1829	0.6454	-0.0025	0.7638	-0.0054
6.9	-9.4820	-0.1681	-1.5609	-0.0138	-0.0045	-0.0094	29.1256	2.8023	15.0986	0.6454	-0.0026	0.7638	-0.0054
6.91	-9.4764	-0.1720	-1.5625	-0.0168	-0.0096	-0.0053	29.2921	2.9015	15.2092	0.6454	-0.0026	0.7638	-0.0054
6.92	-9.4814	-0.1636	-1.5606	-0.0224	-0.0072	-0.0051	29.4556	2.7610	15.1905	0.6454	-0.0026	0.7638	-0.0054
6.93	-9.4873	-0.1561	-1.5571	-0.0225	-0.0046	-0.0025	29.3409	2.8859	15.1656	0.6454	-0.0026	0.7638	-0.0054
6.94	-9.4909	-0.1531	-1.5662	-0.0223	-0.0039	-0.0038	29.3621	2.6996	15.2496	0.6454	-0.0026	0.7638	-0.0054
6.95	-9.4785	-0.1520	-1.5527	-0.0236	-0.0047	-0.0021	29.3414	2.7479	15.2273	0.6455	-0.0026	0.7638	-0.0054
6.96	-9.4779	-0.1326	-1.5711	-0.0226	-0.0043	-0.0041	29.4369	2.7939	15.1737	0.6454	-0.0026	0.7637	-0.0053
6.97	-9.4795	-0.1229	-1.5667	-0.0226	-0.0047	-0.0041	29.3413	2.7691	15.2890	0.6455	-0.0026	0.7638	-0.0053
6.98	-9.4906	-0.1062	-1.5789	-0.0207	-0.0042	-0.0076	29.3587	2.9324	15.1428	0.6454	-0.0026	0.7638	-0.0053
6.99	-9.4830	-0.1020	-1.5743	-0.0235	-0.0058	-0.0056	29.3543	2.9453	15.2183	0.6455	-0.0027	0.7638	-0.0053
7	-9.4783	-0.1038	-1.5785	-0.0206	-0.0073	-0.0026	29.3589	2.9448	15.0700	0.6454	-0.0027	0.7638	-0.0053
7.01	-9.4865	-0.0966	-1.6050	-0.0231	-0.0067	-0.0029	29.2425	2.8152	15.1208	0.6455	-0.0027	0.7638	-0.0053
7.02	-9.4798	-0.0995	-1.6020	-0.0205	-0.0039	-0.0033	29.3314	2.7607	15.2639	0.6455	-0.0027	0.7638	-0.0053
7.03	-9.4804	-0.0976	-1.6124	-0.0212	0.0010	-0.0046	29.3791	3.1483	15.2808	0.6454	-0.0027	0.7637	-0.0053
7.04	-9.4716	-0.1056	-1.6152	-0.0227	-0.0041	-0.0048	29.1384	2.9667	15.1502	0.6455	-0.0027	0.7638	-0.0052
7.05	-9.4836	-0.0924	-1.6085	-0.0223	-0.0012	-0.0004	29.1331	2.9711	15.2129	0.6454	-0.0027	0.7638	-0.0052
7.06	-9.4976	-0.0882	-1.6159	-0.0217	-0.0006	-0.0026	29.2558	3.0311	15.0624	0.6455	-0.0027	0.7639	-0.0052
7.07	-9.4889	-0.0791	-1.6332	-0.0215	0.0019	-0.0063	28.9927	3.1011	14.8504	0.6454	-0.0027	0.7638	-0.0052
7.08	-9.4789	-0.0696	-1.6463	-0.0218	-0.0008	-0.0062	29.1995	3.0931	15.1090	0.6454	-0.0027	0.7638	-0.0052
7.09	-9.4872	-0.0632	-1.6344	-0.0229	-0.0059	-0.0061	29.6290	2.9854	15.5529	0.6454	-0.0028	0.7638	-0.0052
7.1	-9.4895	-0.0670	-1.6259	-0.0220	-0.0083	-0.0061	29.7650	3.1250	15.4801	0.6454	-0.0028	0.7638	-0.0052
7.11	-9.4881	-0.0913	-1.6270	-0.0226	-0.0116	-0.0025	29.5422	3.1441	15.2525	0.6455	-0.0028	0.7639	-0.0051
7.12	-9.4955	-0.0995	-1.6338	-0.0175	-0.0089	0.0016	29.3488	3.0692	15.3486	0.6454	-0.0028	0.7638	-0.0051
7.13	-9.4902	-0.1210	-1.6360	-0.0206	-0.0094	-0.0030	29.2712	2.9712	15.2944	0.6455	-0.0028	0.7638	-0.0051
7.14	-9.4906	-0.1456	-1.6314	-0.0232	-0.0102	-0.0037	29.4476	2.9571	15.2337	0.6454	-0.0028	0.7637	-0.0051
7.15	-9.4694	-0.1495	-1.6323	-0.0217	-0.0038	-0.0042	29.4573	3.0918	15.2553	0.6455	-0.0028	0.7638	-0.0051
7.16	-9.4708	-0.1551	-1.6139	-0.0208	-0.0083	-0.0060	29.2305	2.8282	15.1042	0.6455	-0.0028	0.7637	-0.0051
7.17	-9.4690	-0.1467	-1.6069	-0.0234	-0.0057	-0.0075	29.2486	2.7912	15.2823	0.6455	-0.0028	0.7637	-0.0051
7.18	-9.4779	-0.1360	-1.6059	-0.0232	-0.0100	-0.0040	29.3071	2.8806	15.2230	0.6455	-0.0028	0.7637	-0.0050
7.19	-9.4777	-0.1184	-1.5982	-0.0194	-0.0094	-0.0002	29.1382	2.7971	15.0514	0.6455	-0.0028	0.7637	-0.0050
7.2	-9.4799	-0.1069	-1.6033	-0.0206	-0.0031	-0.0032	29.1154	2.9564	15.2739	0.6456	-0.0028	0.7637	-0.0050
7.21	-9.4805	-0.0978	-1.5970	-0.0234	-0.0018	-0.0036	29.1781	2.9914	15.1631	0.6455	-0.0028	0.7636	-0.0050
7.22	-9.4836	-0.1117	-1.5932	-0.0213	-0.0057	-0.0046	29.2477	2.8150	15.0433	0.6456	-0.0029	0.7637	-0.0050
7.23	-9.4895	-0.1242	-1.5976	-0.0231	-0.0043	-0.0076	29.2659	2.7191	15.1432	0.6455	-0.0029	0.7637	-0.0050
7.24	-9.4755	-0.1176	-1.5965	-0.0215	-0.0040	-0.0028	29.3755	2.8960	15.1654	0.6456	-0.0029	0.7637	-0.0050
7.25	-9.4784	-0.1207	-1.5867	-0.0232	-0.0023	-0.0031	29.2535	2.8960	15.2628	0.6455	-0.0029	0.7637	-0.0049
7.26	-9.4871	-0.1165	-1.5891	-0.0209	-0.0021	-0.0078	29.1085	2.8373	15.2295	0.6455	-0.0029	0.7637	-0.0049
7.27	-9.4853	-0.1234	-1.5855	-0.0223	-0.0069	-0.0054	29.2447	2.8250	15.1232	0.6455	-0.0029	0.7637	-0.0049
7.28	-9.4868	-0.1310	-1.5738	-0.0218	-0.0083	-0.0023	29.1687	2.9839	15.2562	0.6455	-0.0029	0.7636	-0.0049
7.29	-9.4815	-0.1253	-1.5825	-0.0205	-0.0049	-0.0049	29.3087	2.8725	15.3484	0.6456	-0.0029	0.7637	-0.0049
7.3	-9.4810	-0.1302	-1.5762	-0.0184	-0.0054	-0.0039	29.2677	2.8662	15.2003	0.6455	-0.0029	0.7637	-0.0049
7.31	-9.4861	-0.1321	-1.5749	-0.0192	-0.0049	-0.0032	29.5227	2.9792	15.3578	0.6456	-0.0029	0.7638	-0.0049
7.32	-9.4830	-0.1515	-1.5773	-0.0231	-0.0066	-0.0053	29.5162	2.8017	15.2530	0.6455	-0.0030	0.7636	-0.0049
7.33	-9.4851	-0.1576	-1.5832	-0.0223	-0.0023	-0.0034	29.4316	2.8104	15.1477	0.6456	-0.0030	0.7637	-0.0049
7.34	-9.4789	-0.1577	-1.5889	-0.0207	-0.0064	-0.0016	29.5919	2.9584	15.1841	0.6456	-0.0030	0.7637	-0.0048
7.35	-9.4810	-0.1633	-1.5927	-0.0177	-0.0029	-0.0041	29.3475	3.0439	15.1480	0.6455	-0.0030	0.7636	-0.0048
7.36	-9.4838	-0.1488	-1.5978	-0.0231	-0.0051	0.0007	29.2931	2.9768	15.1809	0.6456	-0.0030	0.7637	-0.0048
7.37	-9.4897	-0.1304	-1.5988	-0.0160	-0.0026	-0.0010	29.2411	2.9220	15.1347	0.6456	-0.0029	0.7637	-0.0048
7.38	-9.4762	-0.1182	-1.5988	-0.0175	0.0044	-0.0025	29.1955	2.6639	15.2500	0.6456	-0.0029	0.7638	-0.0048
7.39	-9.4836	-0.1047	-1.6105	-0.0222	-0.0017	-0.0010	29.1869	2.9060	15.2443	0.6455	-0.0029	0.7637	-0.0048
7.4	-9.4750	-0.0857	-1.6061	-0.0196	-0.0009	-0.0019	29.2312	2.9652	15.2714	0.6455	-0.0029	0.7637	-0.0048
7.41	-9.4707	-0.0841	-1.5899	-0.0235	-0.0024	-0.0053	29.2747	2.8354	15.1871	0.6455	-0.0029	0.7637	-0.0048
7.42	-9.4791	-0.0831	-1.5995	-0.0230	-0.0018	-0.0006	29.3663	2.9812	15.2147	0.6455	-0.0029	0.7637	-0.0047
7.43	-9.4886	-0.0714	-1.6156	-0.0218	0.0007	-0.0013	29.2511	2.9548	15.3692	0.6455	-0.0029	0.7638	-0.0047
7.44	-9.4828	-0.0740	-1.6243	-0.0215	0.0043	-0.0042	29.2123	2.8616	15.3152	0.6454	-0.0030	0.7638	-0.0047
7.45	-9.4695	-0.0697	-1.6254	-0.0233	-0.0075	-0.0045	29.3054	2.8963	15.1650	0.6455	-0.0030	0.7638	-0.0047
7.46	-9.4837	-0.0732	-1.6144	-0.0225	-0.0094	-0.0039	29.2822	2.8740	15.1825	0.6454	-0.0030	0.7637	-0.0047
7.47	-9.4847	-0.0692	-1.6040	-0.0229	-0.0113	-0.0064	29.1680	2.8949	15.0194	0.6455	-0.0030	0.7638	-0.0046
7.48	-9.4785	-0.0835	-1.6126	-0.0224	-0.0051	-0.0095	29.2854	2.8610	15.1926	0.6455	-0.0030	0.7637	-0.0046
7.49	-9.4882	-0.0875	-1.6171	-0.0235	-0.0063	-0.0033	29.4371	2.9630	15.2385	0.6455	-0.0030	0.7637	-0.0046
7.5	-9.4765	-0.0919	-1.6265	-0.0240	-0.0041	-0.0099	29.5531	2.9848	14.9381	0.6455	-0.0031	0.7637	-0.0046
7.51	-9.4727	-0.0926	-1.6305	-0.0216	-0.0047	-0.0074	29.4759	2.7220	15.0422	0.6455	-0.0031	0.7637	-0.0046
7.52	-9.4747	-0.1038	-1.6170	-0.0235	-0.0055	-0.0086	29.2960	2.5749	15.1213	0.6455	-0.0031	0.7637	-0.0046
7.53	-9.4776	-0.1133	-1.6173	-0.0221	-0.0056	-0.0102	29.1989	2.8174	14.9704	0.6455	-0.0032	0.7637	-0.0046
7.54	-9.4713	-0.1215	-1.6006	-0.0238	-0.0034	-0.0074	29.2256	2.8728	15.1146	0.6456	-0.0032	0.7638	-0.0046
7.55	-9.4900	-0.1240	-1.6006	-0.0205	-0.0081	-0.0091	29.2871	2.9370	15.0156	0.6455	-0.0032	0.7637	-0.0046
7.56	-9.4977	-0.1274	-1.6016	-0.0207	-0.0124	-0.0041	29.3496	2.9345	15.0269	0.6456	-0.0032	0.7637	-0.0046
7.57	-9.4856	-0.1113	-1.6130	-0.0216	-0.0087	-0.0089	29.3675	2.7667	15.2045	0.6456	-0.0033	0.7636	-0.0046
7.58	-9.4748	-0.1083	-1.6201	-0.0206	-0.0003	-0.0072	29.2644	3.0499	15.2457	0.6456	-0.0033	0.7637	-0.0046
7.59	-9.4767	-0.1129	-1.6173	-0.0230	-0.0039	-0.0099	29.6014	3.0409	15.2798	0.6456	-0.0033	0.7637	-0.0046
7.6	-9.4792	-0.1419	-1.6110	-0.0208	-0.0072	-0.0070	29.5867	3.0835	15.5121	0.6455	-0.0033	0.7636	-0.0046
7.61	-9.4853	-0.1586	-1.6080	-0.0217	-0.0041	-0.0096	29.5249	2.9261	15.5229	0.6456	-0.0034	0.7637	-0.0046
7.62	-9.4916	-0.1594	-1.6200	-0.0220	-0.0033	-0.0067	29.2472	3.0652	15.4408	0.6456	-0.0034	0.7637	-0.0046
7.63	-9.4887	-0.1762	-1.6159	-0.0230	-0.0013	-0.0034	29.0797	3.0207	15.3131	0.6456	-0.0034	0.7637	-0.0046
7.64	-9.4799	-0.1562	-1.6032	-0.0231	-0.0052	-0.0062	29.2235	3.1060	15.0739	0.6455	-0.0034	0.7636	-0.0046
7.65	-9.4817	-0.1535	-1.6088	-0.0231	-0.0046	-0.0054	29.0718	3.1835	14.8810	0.6456	-0.0034	0.7637	-0.0046
7.66	-9.4896	-0.1433	-1.6057	-0.0230	-0.0072	-0.0032	29.3249	2.9079	15.1041	0.6456	-0.0035	0.7637	-0.0045
7.67	-9.4702	-0.1447	-1.6047	-0.0232	-0.0114	-0.0028	29.3586	2.7016	15.1016	0.6456	-0.0035	0.7636	-0.0045
7.68	-9.4843	-0.1428	-1.6010	-0.0225	-0.0106	-0.0004	29.3519	2.6917	15.1081	0.6457	-0.0035	0.7636	-0.0045
7.69	-9.4843	-0.1345	-1.6070	-0.0227	-0.0109	-0.0029	29.4616	2.6890	15.2437	0.6457	-0.0035	0.7636	-0.0045
7.7	-9.4813	-0.1129	-1.6049	-0.0191	-0.0114	-0.0059	29.5839	2.9428	15.3117	0.6457	-0.0035	0.7636	-0.0045
7.71	-9.4797	-0.0968	-1.6137	-0.0229	-0.0056	-0.0060	29.5305	2.8627	15.1764	0.6456	-0.0035	0.7635	-0.0045
7.72	-9.4777	-0.0809	-1.6133	-0.0226	-0.0043	-0.0039	29.2860	2.8734	15.2036	0.6457	-0.0035	0.7636	-0.0044
7.73	-9.4915	-0.0849	-1.6033	-0.0238	-0.0048	-0.0047	29.4276	2.9486	15.1469	0.6457	-0.0035	0.7636	-0.0044
7.74	-9.4878	-0.0845	-1.6045	-0.0217	-0.0069	-0.0039	29.3796	2.7434	15.0681	0.6457	-0.0035	0.7636	-0.0044
7.75	-9.4728	-0.0879	-1.6018	-0.0170	-0.0085	-0.0046	29.2531	2.8730	15.2214	0.6457	-0.0035	0.7635	-0.0044
7.76	-9.4813	-0.0941	-1.6141	-0.0208	-0.0056	-0.0029	29.1522	3.0854	15.1392	0.6457	-0.0035	0.7635	-0.0044
7.77	-9.4884	-0.0950	-1.6045	-0.0151	-0.0012	-0.0067	29.0767	3.0794	15.2641	0.6457	-0.0035	0.7636	-0.0044
7.78	-9.4877	-0.0951	-1.5989	-0.0236	-0.0066	-0.0027	29.1867	2.8940	15.1957	0.6457	-0.0036	0.7635	-0.0044
7.79	-9.4863	-0.0834	-1.6023	-0.0209	-0.0043	-0.0053	29.1992	3.0842	15.0728	0.6458	-0.0036	0.7636	-0.0044
7.8	-9.4882	-0.0678	-1.5986	-0.0222	-0.0019	-0.0042	29.3037	2.9219	15.2556	0.6457	-0.0036	0.7635	-0.0044
7.81	-9.4848	-0.0725	-1.5957	-0.0222	-0.0025	-0.0025	29.1857	3.0767	15.2845	0.6458	-0.0036	0.7636	-0.0044
7.82	-9.4739	-0.0719	-1.5840	-0.0221	-0.0015	-0.0104	29.2547	3.1117	15.2341	0.6457	-0.0036	0.7635	-0.0044
7.83	-9.4848	-0.0804	-1.5791	-0.0229	-0.0082	-0.0042	29.2838	2.9051	15.4524	0.6457	-0.0036	0.7635	-0.0043
7.84	-9.4908	-0.0880	-1.5671	-0.0209	-0.0022	-0.0047	29.2184	2.9135	15.3318	0.6457	-0.0036	0.7635	-0.0043
7.85	-9.4858	-0.1060	-1.5620	-0.0131	-0.0005	-0.0054	29.4371	2.8193	14.9510	0.6457	-0.0036	0.7635	-0.0044
7.86	-9.4859	-0.0940	-1.5672	-0.0216	-0.0038	-0.0023	29.5036	2.9867	15.2505	0.6458	-0.0036	0.7636	-0.0043
7.87	-9.4951	-0.0912	-1.5682	-0.0227	-0.0068	-0.0031	29.4215	2.9064	15.2758	0.6457	-0.0036	0.7635	-0.0043
7.88	-9.4821	-0.0889	-1.5703	-0.0210	-0.0021	-0.0040	29.3693	2.9961	15.2828	0.6458	-0.0037	0.7636	-0.0043
7.89	-9.4812	-0.0826	-1.5736	-0.0170	0.0041	-0.0041	29.3426	2.7370	15.2064	0.6456	-0.0036	0.7635	-0.0043
7.9	-9.4900	-0.0977	-1.5719	-0.0205	-0.0068	-0.0027	29.3431	2.7259	14.9398	0.6457	-0.0036	0.7636	-0.0043
7.91	-9.4840	-0.0959	-1.5770	-0.0221	-0.0053	-0.0041	29.3939	2.9117	15.1395	0.6457	-0.0037	0.7636	-0.0043
7.92	-9.4813	-0.1011	-1.5846	-0.0208	-0.0087	-0.0037	29.1811	2.8176	15.2050	0.6457	-0.0037	0.7635	-0.0043
7.93	-9.4905	-0.1084	-1.5884	-0.0195	-0.0062	-0.0060	29.2143	2.9672	15.1801	0.6457	-0.0037	0.7636	-0.0043
7.94	-9.4845	-0.1337	-1.5961	-0.0209	-0.0049	-0.0036	29.2339	3.0434	15.1632	0.6457	-0.0037	0.7635	-0.0043
7.95	-9.4732	-0.1284	-1.6033	-0.0203	-0.0002	-0.0041	29.2333	2.9662	15.0469	0.6457	-0.0037	0.7636	-0.0043
7.96	-9.4905	-0.1421	-1.6147	-0.0163	0.0026	-0.0047	29.2720	2.9151	15.2086	0.6456	-0.0037	0.7635	-0.0043
7.97	-9.4906	-0.1485	-1.6123	-0.0175	0.0012	-0.0033	29.2893	2.9696	15.2652	0.6457	-0.0037	0.7636	-0.0043
7.98	-9.4886	-0.1407	-1.6233	-0.0237	0.0025	-0.0061	29.3298	3.0358	15.1472	0.6456	-0.0037	0.7636	-0.0043
7.99	-9.4881	-0.1415	-1.6397	-0.0222	-0.0033	-0.0064	29.2394	3.0195	15.2499	0.6457	-0.0037	0.7636	-0.0043
8	-9.4823	-0.1448	-1.6452	-0.0230	-0.0024	-0.0041	29.2704	3.0193	15.3837	0.6456	-0.0037	0.7636	-0.0042
8.01	-9.4814	-0.1509	-1.6353	-0.0215	0.0028	-0.0038	29.2712	2.9167	15.3214	0.6456	-0.0037	0.7636	-0.0042
8.02	-9.4764	-0.1457	-1.6353	-0.0185	-0.0022	-0.0050	29.2249	3.1521	15.0542	0.6456	-0.0037	0.7637	-0.0042
8.03	-9.4935	-0.1585	-1.6330	-0.0194	-0.0043	-0.0027	29.1513	3.2397	15.1855	0.6456	-0.0037	0.7636	-0.0042
8.04	-9.4929	-0.1565	-1.6351	-0.0180	-0.0074	-0.0020	29.4011	2.7466	15.1823	0.6457	-0.0037	0.7637	-0.0042
8.05	-9.4865	-0.1443	-1.6350	-0.0173	-0.0033	-0.0028	29.4463	2.7224	15.0714	0.6456	-0.0037	0.7636	-0.0042
8.06	-9.4840	-0.1345	-1.6352	-0.0162	-0.0086	-0.0024	29.3851	2.8032	15.1726	0.6457	-0.0037	0.7637	-0.0042
8.07	-9.4945	-0.1170	-1.6406	-0.0185	-0.0019	-0.0016	29.2345	2.7579	15.2912	0.6456	-0.0037	0.7636	-0.0042
8.08	-9.4848	-0.1126	-1.6298	-0.0150	0.0028	-0.0043	29.3034	2.7881	15.2649	0.6456	-0.0037	0.7637	-0.0042
8.09	-9.4658	-0.1033	-1.6343	-0.0208	-0.0052	-0.0041	29.5251	2.9370	15.3119	0.6456	-0.0037	0.7636	-0.0042
8.1	-9.4914	-0.1152	-1.6418	-0.0113	-0.0055	-0.0042	29.4325	2.9389	15.4777	0.6456	-0.0037	0.7636	-0.0042
8.11	-9.4861	-0.1231	-1.6330	-0.0076	-0.0048	-0.0041	29.3247	2.9836	15.2916	0.6457	-0.0036	0.7637	-0.0043
8.12	-9.4873	-0.1173	-1.6291	-0.0098	-0.0038	-0.0024	29.3327	2.8704	15.3212	0.6456	-0.0036	0.7636	-0.0043
8.13	-9.4928	-0.1206	-1.6309	-0.0121	-0.0035	-0.0042	29.2853	2.9416	15.2041	0.6457	-0.0036	0.7637	-0.0043
8.14	-9.4887	-0.0949	-1.6278	-0.0121	0.0020	-0.0020	29.0131	2.9963	15.1465	0.6456	-0.0035	0.7636	-0.0043
8.15	-9.4804	-0.1020	-1.6106	-0.0134	0.0001	-0.0074	29.0612	2.7343	15.4258	0.6456	-0.0035	0.7637	-0.0044
8.16	-9.4871	-0.0979	-1.6123	-0.0143	0.0022	-0.0079	29.2977	3.0584	15.4204	0.6456	-0.0035	0.7637	-0.0044
8.17	-9.4935	-0.1003	-1.5967	-0.0166	-0.0040	-0.0041	29.2086	2.9722	15.2228	0.6455	-0.0035	0.7637	-0.0044
8.18	-9.4886	-0.1135	-1.5999	-0.0195	-0.0018	-0.0051	29.1009	3.0675	15.3973	0.6456	-0.0035	0.7637	-0.0044
8.19	-9.4772	-0.1162	-1.6095	-0.0180	-0.0051	-0.0025	29.3598	3.0267	15.2664	0.6456	-0.0035	0.7637	-0.0044
8.2	-9.4830	-0.1187	-1.6082	-0.0182	-0.0033	-0.0020	29.1606	2.9567	15.1465	0.6456	-0.0035	0.7637	-0.0044
8.21	-9.4756	-0.1057	-1.5931	-0.0191	-0.0053	-0.0039	29.3886	2.9187	15.1897	0.6455	-0.0035	0.7636	-0.0044
8.22	-9.4786	-0.1065	-1.6005	-0.0110	-0.0114	-0.0041	29.2277	2.8587	15.0848	0.6456	-0.0035	0.7637	-0.0044
8.23	-9.4826	-0.1035	-1.5964	-0.0220	-0.0116	-0.0048	29.3969	2.9473	15.2125	0.6456	-0.0035	0.7636	-0.0044
8.24	-9.4853	-0.0992	-1.5867	-0.0191	-0.0064	-0.0043	29.4063	2.7365	14.8878	0.6456	-0.0035	0.7636	-0.0044
8.25	-9.4759	-0.1103	-1.5764	-0.0181	-0.0044	-0.0045	29.3522	2.7319	15.1236	0.6456	-0.0035	0.7636	-0.0044
8.26	-9.4859	-0.1148	-1.5730	-0.0194	-0.0048	-0.0040	29.3528	2.8214	15.0811	0.6456	-0.0035	0.7636	-0.0044
8.27	-9.4790	-0.1185	-1.5766	-0.0169	-0.0039	-0.0042	29.2506	2.8483	15.1304	0.6456	-0.0035	0.7636	-0.0044
8.28	-9.4707	-0.1091	-1.5757	-0.0175	-0.0060	-0.0044	29.3061	2.9266	15.2898	0.6456	-0.0035	0.7636	-0.0044
8.29	-9.4806	-0.1088	-1.5788	-0.0222	-0.0067	-0.0071	29.1615	2.7611	15.2442	0.6457	-0.0035	0.7637	-0.0044
8.3	-9.4865	-0.1011	-1.5803	-0.0226	-0.0038	-0.0002	29.2580	3.0064	15.0120	0.6456	-0.0035	0.7636	-0.0044
8.31	-9.4851	-0.1017	-1.5738	-0.0211	-0.0049	-0.0021	29.2936	2.8401	15.2504	0.6457	-0.0035	0.7637	-0.0044
8.32	-9.4824	-0.1060	-1.5878	-0.0221	-0.0080	-0.0058	29.2756	2.7797	15.2929	0.6456	-0.0035	0.7636	-0.0044
8.33	-9.4762	-0.1084	-1.5843	-0.0200	-0.0057	-0.0111	29.1701	3.0557	15.2256	0.6457	-0.0036	0.7636	-0.0044
8.34	-9.4787	-0.1168	-1.5798	-0.0228	-0.0012	-0.0078	29.2549	2.8590	15.1551	0.6457	-0.0036	0.7636	-0.0044
8.35	-9.4736	-0.1188	-1.5932	-0.0204	0.0016	-0.0055	29.3037	3.0468	15.2420	0.6456	-0.0036	0.7636	-0.0044
8.36	-9.4871	-0.1224	-1.5927	-0.0209	-0.0045	-0.0031	29.1632	3.1501	15.3889	0.6457	-0.0036	0.7637	-0.0044
8.37	-9.4901	-0.1170	-1.5940	-0.0223	-0.0019	-0.0060	29.2350	3.0161	15.2780	0.6456	-0.0036	0.7636	-0.0043
8.38	-9.4832	-0.1029	-1.5934	-0.0215	-0.0041	-0.0051	29.1086	3.0878	15.3212	0.6457	-0.0036	0.7637	-0.0043
8.39	-9.4863	-0.1057	-1.5911	-0.0233	0.0055	-0.0040	29.2021	2.9544	15.2945	0.6456	-0.0037	0.7636	-0.0043
8.4	-9.4909	-0.1242	-1.6025	-0.0229	-0.0004	-0.0053	29.2933	2.8874	15.0086	0.6456	-0.0037	0.7637	-0.0043
8.41	-9.4808	-0.1262	-1.6245	-0.0232	-0.0072	-0.0001	29.1506	2.8791	15.1983	0.6456	-0.0037	0.7636	-0.0043
8.42	-9.4742	-0.1353	-1.6290	-0.0182	-0.0014	0.0010	29.3286	2.9523	15.0753	0.6456	-0.0037	0.7636	-0.0043
8.43	-9.4872	-0.1413	-1.6447	-0.0233	-0.0049	-0.0050	29.5857	3.0983	15.2138	0.6456	-0.0037	0.7637	-0.0042
8.44	-9.4763	-0.1280	-1.6395	-0.0214	-0.0066	-0.0036	29.1933	2.7665	15.1200	0.6456	-0.0037	0.7636	-0.0042
8.45	-9.4742	-0.1284	-1.6362	-0.0210	-0.0037	-0.0060	29.3424	2.9398	15.1426	0.6456	-0.0037	0.7637	-0.0042
8.46	-9.4859	-0.1203	-1.6292	-0.0210	0.0012	-0.0097	29.2804	2.9972	15.1881	0.6455	-0.0037	0.7636	-0.0042
8.47	-9.4864	-0.1102	-1.6266	-0.0202	-0.0035	-0.0050	29.2184	2.8616	15.1856	0.6456	-0.0037	0.7637	-0.0042
8.48	-9.4871	-0.0885	-1.6273	-0.0211	-0.0015	-0.0044	29.5450	2.9129	15.1417	0.6456	-0.0037	0.7637	-0.0042
8.49	-9.4924	-0.0859	-1.6278	-0.0226	-0.0051	-0.0052	29.2917	2.8895	15.0734	0.6456	-0.0038	0.7637	-0.0042
8.5	-9.4957	-0.0966	-1.6206	-0.0225	-0.0079	-0.0029	29.1805	2.8092	15.0971	0.6456	-0.0038	0.7636	-0.0042
8.51	-9.4947	-0.1049	-1.6167	-0.0198	-0.0061	-0.0079	29.1371	2.9159	15.1001	0.6456	-0.0038	0.7636	-0.0042
8.52	-9.4903	-0.1206	-1.6200	-0.0184	-0.0043	-0.0044	29.4063	3.0305	15.2312	0.6456	-0.0038	0.7637	-0.0042
8.53	-9.4853	-0.1272	-1.6040	-0.0221	-0.0025	-0.0051	29.2214	2.8466	15.0628	0.6456	-0.0038	0.7636	-0.0042
8.54	-9.4814	-0.1356	-1.6082	-0.0198	-0.0023	-0.0047	28.9793	2.9526	15.1145	0.6456	-0.0038	0.7637	-0.0042
8.55	-9.4726	-0.1325	-1.6016	-0.0212	-0.0033	-0.0024	29.1371	3.0179	15.3227	0.6456	-0.0038	0.7636	-0.0042
8.56	-9.4743	-0.1323	-1.5909	-0.0131	-0.0021	-0.0062	29.2173	2.7825	15.1744	0.6456	-0.0038	0.7637	-0.0042
8.57	-9.4820	-0.1221	-1.5849	-0.0196	0.0008	-0.0091	29.2731	2.8057	15.1886	0.6455	-0.0038	0.7636	-0.0042
8.58	-9.4768	-0.1160	-1.5794	-0.0226	-0.0051	-0.0028	29.3959	2.8488	15.1720	0.6456	-0.0038	0.7637	-0.0042
8.59	-9.4809	-0.1238	-1.5686	-0.0218	-0.0045	-0.0039	29.6658	3.0479	15.3998	0.6456	-0.0038	0.7637	-0.0042
8.6	-9.4953	-0.1157	-1.5628	-0.0201	-0.0083	-0.0033	29.6093	2.8729	15.5277	0.6456	-0.0038	0.7636	-0.0042
8.61	-9.4942	-0.1199	-1.5607	-0.0228	-0.0072	-0.0031	29.5590	2.9779	15.6214	0.6457	-0.0038	0.7637	-0.0041
8.62	-9.4830	-0.1302	-1.5623	-0.0221	-0.0059	-0.0046	29.4985	2.9573	15.3215	0.6456	-0.0039	0.7636	-0.0041
8.63	-9.4782	-0.1195	-1.5675	-0.0226	-0.0075	-0.0026	29.3090	2.8601	15.1482	0.6457	-0.0039	0.7637	-0.0041
8.64	-9.4841	-0.1188	-1.5723	-0.0226	-0.0076	-0.0031	29.5529	2.8577	15.1967	0.6456	-0.0039	0.7636	-0.0041
8.65	-9.4846	-0.1029	-1.5753	-0.0228	-0.0028	-0.0061	29.2490	2.9591	15.1797	0.6457	-0.0039	0.7636	-0.0041
8.66	-9.4703	-0.0959	-1.5733	-0.0215	-0.0088	-0.0049	29.3341	2.9288	15.1384	0.6457	-0.0039	0.7636	-0.0041
8.67	-9.4850	-0.0905	-1.5898	-0.0136	-0.0038	-0.0028	29.2701	2.9544	15.0437	0.6457	-0.0039	0.7636	-0.0041
8.68	-9.4902	-0.0999	-1.5795	-0.0232	-0.0008	-0.0063	29.3524	2.8400	15.3153	0.6457	-0.0039	0.7636	-0.0041
8.69	-9.4830	-0.0942	-1.5913	-0.0223	-0.0062	-0.0034	29.3083	2.8746	15.0929	0.6457	-0.0039	0.7636	-0.0041
8.7	-9.4936	-0.1032	-1.5936	-0.0212	0.0025	-0.0068	29.0670	3.0171	15.1331	0.6457	-0.0039	0.7636	-0.0041
8.71	-9.4832	-0.1098	-1.6093	-0.0223	0.0023	-0.0063	29.1796	3.0138	15.2027	0.6456	-0.0040	0.7636	-0.0041
8.72	-9.4816	-0.1079	-1.6102	-0.0228	-0.0023	-0.0070	29.3839	3.0376	15.1328	0.6456	-0.0040	0.7637	-0.0040
8.73	-9.4833	-0.1105	-1.6217	-0.0199	-0.0001	-0.0058	29.4398	2.9851	15.2741	0.6456	-0.0040	0.7637	-0.0040
8.74	-9.4875	-0.1048	-1.6327	-0.0201	-0.0013	-0.0070	29.3656	2.9075	15.4045	0.6456	-0.0040	0.7637	-0.0040
8.75	-9.4763	-0.1015	-1.6293	-0.0234	0.0036	-0.0099	29.1541	3.0463	15.2248	0.6455	-0.0040	0.7637	-0.0040
8.76	-9.4719	-0.1069	-1.6280	-0.0227	-0.0020	-0.0103	29.0848	2.9866	15.0371	0.6455	-0.0041	0.7637	-0.0041
8.77	-9.4954	-0.1037	-1.6390	-0.0229	-0.0051	-0.0040	29.1415	2.9048	15.1562	0.6456	-0.0041	0.7637	-0.0040
8.78	-9.5012	-0.1107	-1.6347	-0.0227	-0.0104	-0.0055	29.2783	2.9827	15.1874	0.6455	-0.0041	0.7636	-0.0040
8.79	-9.4869	-0.1117	-1.6310	-0.0226	-0.0043	-0.0031	29.2409	2.6923	15.1680	0.6456	-0.0041	0.7637	-0.0040
8.8	-9.4871	-0.1182	-1.6167	-0.0229	-0.0041	-0.0042	29.4540	2.6186	15.2231	0.6456	-0.0041	0.7637	-0.0040
8.81	-9.4887	-0.1245	-1.6152	-0.0186	-0.0063	-0.0031	29.4889	2.7739	15.3203	0.6456	-0.0041	0.7637	-0.0040
8.82	-9.4873	-0.1175	-1.6080	-0.0180	-0.0049	-0.0042	29.2172	2.8634	15.1372	0.6456	-0.0041	0.7636	-0.0040
8.83	-9.4887	-0.1096	-1.6026	-0.0198	-0.0043	-0.0034	29.2964	2.9503	15.1118	0.6456	-0.0041	0.7637	-0.0040
8.84	-9.4873	-0.1200	-1.6026	-0.0216	-0.0040	-0.0040	29.3884	2.7787	15.1998	0.6456	-0.0041	0.7637	-0.0040
8.85	-9.4900	-0.1191	-1.5997	-0.0207	-0.0080	-0.0063	29.4709	2.7673	15.1862	0.6456	-0.0041	0.7636	-0.0040
8.86	-9.4845	-0.1286	-1.5959	-0.0220	-0.0089	-0.0058	29.1860	2.8751	15.1630	0.6457	-0.0042	0.7637	-0.0040
8.87	-9.4928	-0.1210	-1.5918	-0.0193	-0.0094	-0.0057	29.2626	2.9632	14.9434	0.6456	-0.0042	0.7636	-0.0040
8.88	-9.4942	-0.1355	-1.5755	-0.0208	-0.0056	-0.0041	29.3487	2.9154	15.2953	0.6457	-0.0042	0.7636	-0.0040
8.89	-9.4857	-0.1238	-1.5797	-0.0181	0.0024	-0.0040	29.0467	3.0244	15.1416	0.6456	-0.0042	0.7636	-0.0040
8.9	-9.4864	-0.1169	-1.5729	-0.0203	0.0006	-0.0049	29.2387	3.1197	15.3173	0.6456	-0.0042	0.7636	-0.0039
8.91	-9.4912	-0.1058	-1.5746	-0.0239	0.0005	-0.0088	29.2563	3.0937	15.1427	0.6456	-0.0042	0.7636	-0.0039
8.92	-9.4854	-0.0969	-1.5767	-0.0156	0.0037	-0.0040	29.2822	3.1132	15.0509	0.6456	-0.0042	0.7637	-0.0040
8.93	-9.4710	-0.1015	-1.5733	-0.0210	-0.0012	-0.0045	29.1542	3.0926	15.1882	0.6456	-0.0042	0.7637	-0.0039
8.94	-9.4842	-0.1087	-1.5884	-0.0212	-0.0018	-0.0042	29.1001	2.9886	15.1686	0.6456	-0.0042	0.7637	-0.0039
8.95	-9.4839	-0.1177	-1.5949	-0.0244	-0.0029	-0.0000	29.2729	3.0751	14.9515	0.6456	-0.0042	0.7637	-0.0039
8.96	-9.4846	-0.1304	-1.5730	-0.0205	-0.0023	-0.0022	29.2617	3.1486	15.1983	0.6455	-0.0042	0.7636	-0.0039
8.97	-9.4949	-0.1418	-1.5695	-0.0170	-0.0082	-0.0001	29.1571	2.8374	15.2262	0.6456	-0.0042	0.7637	-0.0039
8.98	-9.4846	-0.1410	-1.5630	-0.0207	-0.0047	-0.0045	29.2161	2.7974	15.2404	0.6456	-0.0042	0.7637	-0.0039
8.99	-9.4884	-0.1320	-1.5654	-0.0180	-0.0052	-0.0034	29.3337	2.8862	15.1411	0.6456	-0.0042	0.7637	-0.0039
9	-9.4866	-0.1378	-1.5792	-0.0187	0.0038	-0.0058	29.4426	2.7707	15.0705	0.6455	-0.0042	0.7637	-0.0039
9.01	-9.4891	-0.1255	-1.6004	-0.0120	0.0023	-0.0042	29.2911	2.7545	15.2192	0.6455	-0.0042	0.7637	-0.0039
9.02	-9.4863	-0.1279	-1.6076	-0.0121	-0.0012	-0.0065	29.4319	2.8455	15.1753	0.6455	-0.0042	0.7637	-0.0039
9.03	-9.4898	-0.1280	-1.6088	-0.0181	0.0034	-0.0053	29.3396	2.8527	15.1040	0.6454	-0.0042	0.7637	-0.0039
9.04	-9.4784	-0.1280	-1.6096	-0.0206	-0.0016	-0.0025	29.3566	2.7981	15.1839	0.6455	-0.0042	0.7638	-0.0039
9.05	-9.4861	-0.1281	-1.6110	-0.0201	-0.0010	0.0035	29.4402	2.8189	15.1879	0.6455	-0.0042	0.7637	-0.0039
9.06	-9.4916	-0.1227	-1.6106	-0.0173	-0.0029	-0.0035	29.4291	2.6046	15.1872	0.6455	-0.0041	0.7638	-0.0039
9.07	-9.4824	-0.1013	-1.6121	-0.0218	0.0061	-0.0041	29.3433	2.9891	15.1694	0.6454	-0.0042	0.7637	-0.0039
9.08	-9.4914	-0.1011	-1.6155	-0.0219	0.0016	-0.0033	29.1166	3.0195	15.4146	0.6454	-0.0042	0.7638	-0.0039
9.09	-9.4869	-0.0914	-1.6179	-0.0229	-0.0009	-0.0047	29.4245	3.0298	15.4375	0.6454	-0.0042	0.7638	-0.0039
9.1	-9.4784	-0.0873	-1.6176	-0.0188	-0.0037	-0.0046	29.6106	3.3179	15.4508	0.6454	-0.0042	0.7638	-0.0039
9.11	-9.4769	-0.0854	-1.6065	-0.0193	0.0054	-0.0029	29.3933	3.0079	15.2740	0.6454	-0.0042	0.7639	-0.0039
9.12	-9.4789	-0.0831	-1.6244	-0.0238	-0.0008	-0.0047	29.2615	2.9740	15.1617	0.6453	-0.0042	0.7639	-0.0038
9.13	-9.4778	-0.0847	-1.6074	-0.0196	-0.0032	-0.0010	28.9847	2.8989	15.0636	0.6454	-0.0042	0.7639	-0.0038
9.14	-9.4945	-0.0872	-1.5929	-0.0208	-0.0006	-0.0062	29.0599	2.9960	15.2196	0.6453	-0.0042	0.7638	-0.0038
9.15	-9.4952	-0.0922	-1.5827	-0.0247	-0.0059	-0.0102	29.1396	2.9575	15.0093	0.6454	-0.0042	0.7639	-0.0038
9.16	-9.4966	-0.1003	-1.5801	-0.0213	-0.0064	-0.0019	29.3142	3.0810	14.9278	0.6454	-0.0042	0.7639	-0.0038
9.17	-9.4917	-0.0920	-1.5765	-0.0168	-0.0101	-0.0087	29.1901	2.9338	15.1087	0.6454	-0.0042	0.7638	-0.0038
9.18	-9.4865	-0.0961	-1.5635	-0.0217	-0.0068	-0.0059	29.3375	2.8179	15.1167	0.6454	-0.0043	0.7638	-0.0038
9.19	-9.4780	-0.0936	-1.5702	-0.0217	-0.0079	-0.0029	29.5585	2.9204	15.0584	0.6454	-0.0043	0.7638	-0.0038
9.2	-9.4837	-0.0771	-1.5721	-0.0235	0.0027	-0.0063	29.2172	2.7756	15.0424	0.6454	-0.0043	0.7639	-0.0038
9.21	-9.4933	-0.0757	-1.5735	-0.0211	-0.0064	-0.0020	29.4849	2.9285	15.2128	0.6453	-0.0043	0.7638	-0.0038
9.22	-9.4881	-0.0836	-1.6073	-0.0203	-0.0041	-0.0029	29.3304	2.9094	15.1840	0.6454	-0.0043	0.7638	-0.0038
9.23	-9.4740	-0.1021	-1.6172	-0.0234	0.0010	-0.0069	29.2703	3.0491	15.1641	0.6454	-0.0043	0.7638	-0.0037
9.24	-9.4750	-0.1284	-1.6227	-0.0221	-0.0032	-0.0035	29.3506	3.1073	14.9926	0.6454	-0.0043	0.7639	-0.0037
9.25	-9.4841	-0.1593	-1.6292	-0.0165	0.0044	-0.0051	29.4858	2.9576	15.0273	0.6453	-0.0043	0.7638	-0.0037
9.26	-9.4771	-0.1692	-1.6170	-0.0168	-0.0030	-0.0024	29.2996	2.9371	14.9960	0.6453	-0.0043	0.7639	-0.0037
9.27	-9.4767	-0.1582	-1.6195	-0.0100	0.0011	-0.0086	29.1664	2.9766	15.0388	0.6453	-0.0043	0.7639	-0.0038
9.28	-9.4895	-0.1416	-1.6065	-0.0173	0.0056	-0.0040	29.3220	2.7920	14.9047	0.6452	-0.0043	0.7639	-0.0038
9.29	-9.4882	-0.1212	-1.6069	-0.0207	0.0022	-0.0048	29.1801	2.9426	15.0538	0.6453	-0.0043	0.7640	-0.0038
9.3	-9.4800	-0.1071	-1.6089	-0.0175	0.0007	-0.0070	29.2514	3.0142	15.3766	0.6452	-0.0043	0.7639	-0.0038
9.31	-9.4941	-0.1066	-1.6147	-0.0184	0.0028	-0.0028	29.3093	2.9248	15.1007	0.6453	-0.0043	0.7640	-0.0038
9.32	-9.4832	-0.1069	-1.6161	-0.0178	-0.0002	-0.0058	29.2883	2.8934	15.0253	0.6452	-0.0043	0.7639	-0.0038
9.33	-9.4690	-0.1102	-1.6168	-0.0179	0.0082	-0.0081	29.1905	2.9283	14.9711	0.6452	-0.0043	0.7640	-0.0038
9.34	-9.4755	-0.1340	-1.6099	-0.0192	0.0006	-0.0019	29.2601	3.0332	14.9185	0.6452	-0.0043	0.7640	-0.0038
9.35	-9.4877	-0.1402	-1.5994	-0.0220	-0.0078	-0.0038	29.3746	2.8890	14.9014	0.6451	-0.0043	0.7640	-0.0038
9.36	-9.4866	-0.1336	-1.5933	-0.0202	-0.0001	-0.0059	29.4716	3.0295	15.0707	0.6452	-0.0043	0.7641	-0.0038
9.37	-9.4808	-0.1406	-1.5795	-0.0238	-0.0064	-0.0040	29.4406	2.9440	15.0475	0.6452	-0.0043	0.7640	-0.0038
9.38	-9.4879	-0.1289	-1.5859	-0.0185	-0.0043	-0.0038	29.4784	2.9160	15.0824	0.6452	-0.0043	0.7641	-0.0038
9.39	-9.4924	-0.1258	-1.5884	-0.0127	-0.0043	-0.0031	29.3592	2.8245	15.0253	0.6451	-0.0043	0.7640	-0.0038
9.4	-9.4885	-0.1222	-1.5824	-0.0168	-0.0033	-0.0037	29.2986	2.8362	14.9140	0.6452	-0.0043	0.7640	-0.0038
9.41	-9.4911	-0.1134	-1.5840	-0.0221	-0.0069	-0.0033	29.2553	3.1261	15.0658	0.6452	-0.0043	0.7640	-0.0038
9.42	-9.4937	-0.1056	-1.6064	-0.0163	-0.0024	-0.0046	29.1750	3.1881	15.1911	0.6452	-0.0043	0.7640	-0.0038
9.43	-9.4821	-0.1061	-1.6084	-0.0163	-0.0019	-0.0050	29.3245	2.9549	15.0678	0.6452	-0.0043	0.7640	-0.0038
9.44	-9.4702	-0.1129	-1.6137	-0.0164	-0.0084	-0.0038	29.2668	2.7775	15.0343	0.6452	-0.0043	0.7640	-0.0038
9.45	-9.4815	-0.1114	-1.6189	-0.0130	0.0001	-0.0041	29.3565	2.9016	15.1266	0.6452	-0.0043	0.7640	-0.0038
9.46	-9.4865	-0.1144	-1.6181	-0.0210	0.0029	-0.0021	29.3862	2.9135	15.0964	0.6451	-0.0043	0.7640	-0.0038
9.47	-9.4728	-0.1163	-1.6025	-0.0179	0.0047	-0.0042	29.2628	3.0042	15.0833	0.6452	-0.0043	0.7641	-0.0038
9.48	-9.4850	-0.1097	-1.5999	-0.0178	-0.0015	-0.0019	29.3169	2.9859	15.3045	0.6451	-0.0043	0.7641	-0.0038
9.49	-9.4891	-0.1113	-1.6089	-0.0149	0.0005	-0.0050	29.2131	2.9930	15.1004	0.6451	-0.0043	0.7641	-0.0038
9.5	-9.4837	-0.1078	-1.5957	-0.0204	-0.0026	-0.0038	29.2084	2.9855	15.2005	0.6451	-0.0043	0.7641	-0.0038
9.51	-9.4863	-0.1015	-1.6009	-0.0202	0.0027	-0.0090	29.3166	2.9964	15.1351	0.6451	-0.0043	0.7641	-0.0038
9.52	-9.4978	-0.0858	-1.6171	-0.0192	-0.0047	-0.0034	29.2739	2.9841	15.1490	0.6451	-0.0043	0.7641	-0.0038
9.53	-9.4834	-0.0869	-1.6115	-0.0181	-0.0005	-0.0058	29.3072	3.0013	15.1257	0.6450	-0.0043	0.7640	-0.0038
9.54	-9.4815	-0.0926	-1.6015	-0.0145	0.0038	-0.0056	29.2700	2.9767	15.0834	0.6451	-0.0043	0.7642	-0.0038
9.55	-9.4874	-0.0980	-1.6086	-0.0232	-0.0040	-0.0054	29.3399	2.7411	14.9507	0.6450	-0.0043	0.7641	-0.0038
9.56	-9.4840	-0.1076	-1.6063	-0.0188	-0.0065	-0.0030	29.1862	2.7515	14.9762	0.6451	-0.0043	0.7642	-0.0038
9.57	-9.4790	-0.1211	-1.6071	-0.0214	-0.0004	-0.0087	29.4105	2.7278	15.0489	0.6450	-0.0043	0.7641	-0.0038
9.58	-9.4851	-0.1230	-1.5839	-0.0193	-0.0012	-0.0041	29.4187	2.8907	15.1010	0.6450	-0.0043	0.7641	-0.0038
9.59	-9.4919	-0.1212	-1.5913	-0.0168	-0.0035	-0.0034	29.4255	3.0675	15.1247	0.6450	-0.0043	0.7641	-0.0038
9.6	-9.4937	-0.1264	-1.5902	-0.0198	-0.0056	-0.0035	29.6574	3.1116	15.3553	0.6450	-0.0043	0.7641	-0.0038
9.61	-9.4883	-0.1217	-1.6011	-0.0137	0.0064	-0.0045	29.4465	2.8520	15.4245	0.6451	-0.0043	0.7642	-0.0038
9.62	-9.4919	-0.1172	-1.6088	-0.0121	-0.0025	-0.0050	29.3205	2.9854	15.4161	0.6450	-0.0043	0.7642	-0.0039
9.63	-9.4931	-0.1233	-1.6163	-0.0186	-0.0043	-0.0030	29.1156	2.9402	15.0760	0.6450	-0.0043	0.7642	-0.0039
9.64	-9.4890	-0.1084	-1.6123	-0.0180	-0.0018	-0.0056	29.1513	3.0149	15.0748	0.6449	-0.0043	0.7641	-0.0039
9.65	-9.4891	-0.1179	-1.6184	-0.0214	-0.0054	-0.0066	29.3138	3.1147	15.1789	0.6450	-0.0043	0.7642	-0.0039
9.66	-9.4810	-0.1186	-1.6008	-0.0131	-0.0007	-0.0039	29.2800	3.1230	15.1578	0.6450	-0.0043	0.7642	-0.0039
9.67	-9.4820	-0.1189	-1.6081	-0.0209	-0.0040	-0.0073	29.2365	3.0033	15.1610	0.6450	-0.0043	0.7642	-0.0039
9.68	-9.4888	-0.1222	-1.6042	-0.0142	0.0041	-0.0079	29.3256	3.1451	15.1711	0.6450	-0.0043	0.7642	-0.0039
9.69	-9.4897	-0.1093	-1.6050	-0.0107	-0.0028	-0.0107	29.1257	3.0139	15.1387	0.6449	-0.0043	0.7642	-0.0040
9.7	-9.4777	-0.1035	-1.6034	-0.0163	0.0039	-0.0026	29.1839	2.9533	15.2383	0.6450	-0.0043	0.7642	-0.0040
9.71	-9.4824	-0.1086	-1.5884	-0.0165	0.0068	-0.0060	29.1554	3.0663	15.1934	0.6448	-0.0043	0.7642	-0.0040
9.72	-9.4902	-0.1199	-1.5867	-0.0156	-0.0051	-0.0075	29.2692	2.7826	14.9167	0.6449	-0.0043	0.7643	-0.0040
9.73	-9.4845	-0.1170	-1.5734	-0.0145	0.0034	-0.0084	29.4196	2.9364	15.1087	0.6449	-0.0043	0.7643	-0.0040
9.74	-9.4879	-0.1248	-1.5710	-0.0154	0.0003	-0.0035	29.5451	2.9362	15.2111	0.6449	-0.0043	0.7643	-0.0041
9.75	-9.4860	-0.1207	-1.5755	-0.0124	0.0026	-0.0045	29.2849	2.9555	15.0546	0.6448	-0.0042	0.7643	-0.0041
9.76	-9.4856	-0.1189	-1.5918	-0.0115	-0.0022	-0.0037	29.3738	2.9050	14.9757	0.6448	-0.0042	0.7643	-0.0041
9.77	-9.4716	-0.1207	-1.6037	-0.0160	-0.0051	-0.0065	29.2469	2.8416	15.2291	0.6448	-0.0042	0.7643	-0.0041
9.78	-9.4823	-0.1214	-1.6129	-0.0101	-0.0013	-0.0039	29.3165	2.8553	15.2762	0.6448	-0.0042	0.7643	-0.0041
9.79	-9.4924	-0.1166	-1.6140	-0.0191	-0.0014	-0.0067	29.3343	2.8701	15.1454	0.6449	-0.0042	0.7644	-0.0042
9.8	-9.4864	-0.1211	-1.6198	-0.0212	0.0015	-0.0031	29.3322	2.8189	15.3321	0.6448	-0.0042	0.7643	-0.0041
9.81	-9.4887	-0.1221	-1.5994	-0.0083	0.0035	-0.0084	29.2780	2.9935	15.0927	0.6448	-0.0042	0.7644	-0.0042
9.82	-9.4856	-0.1262	-1.5992	-0.0144	0.0043	-0.0044	29.2243	3.0384	15.0602	0.6447	-0.0042	0.7643	-0.0042
9.83	-9.4854	-0.1226	-1.5983	-0.0253	0.0008	-0.0017	29.2794	2.9000	15.2081	0.6447	-0.0042	0.7644	-0.0042
9.84	-9.4787	-0.1150	-1.5993	-0.0155	0.0037	-0.0047	29.1898	2.9821	14.9350	0.6447	-0.0042	0.7644	-0.0042
9.85	-9.4807	-0.1131	-1.6092	-0.0131	0.0006	-0.0025	29.1611	3.1114	15.1800	0.6446	-0.0042	0.7644	-0.0042
9.86	-9.4852	-0.1144	-1.6110	-0.0189	0.0058	-0.0059	29.2488	3.0894	15.0315	0.6447	-0.0042	0.7645	-0.0042
9.87	-9.4842	-0.1157	-1.6020	-0.0143	-0.0006	-0.0041	29.2904	3.0019	15.1677	0.6446	-0.0041	0.7645	-0.0042
9.88	-9.4903	-0.1147	-1.6076	-0.0132	0.0018	-0.0057	29.3097	3.0284	15.2506	0.6447	-0.0041	0.7645	-0.0043
9.89	-9.4912	-0.1065	-1.6094	-0.0210	0.0048	-0.0040	29.0602	3.0105	15.0145	0.6445	-0.0041	0.7645	-0.0042
9.9	-9.4844	-0.1046	-1.6000	-0.0165	0.0043	-0.0038	29.1992	3.1224	15.1277	0.6446	-0.0041	0.7646	-0.0042
9.91	-9.4768	-0.1192	-1.5981	-0.0160	-0.0013	-0.0052	29.3076	2.9307	15.1518	0.6445	-0.0041	0.7645	-0.0043
9.92	-9.4867	-0.1161	-1.5917	-0.0129	-0.0010	-0.0068	29.3483	2.9631	14.9184	0.6445	-0.0041	0.7645	-0.0043
9.93	-9.4900	-0.1100	-1.5988	-0.0192	-0.0068	-0.0070	29.2503	2.8229	14.8748	0.6446	-0.0041	0.7646	-0.0043
9.94	-9.4802	-0.1217	-1.5940	-0.0097	-0.0073	-0.0045	29.3625	2.7822	14.9805	0.6446	-0.0041	0.7645	-0.0043
9.95	-9.4853	-0.1084	-1.5792	-0.0079	-0.0035	-0.0051	29.3091	2.7158	15.1457	0.6446	-0.0041	0.7646	-0.0044
9.96	-9.4910	-0.1049	-1.5710	-0.0192	-0.0052	-0.0068	29.4191	2.6799	14.9678	0.6445	-0.0041	0.7645	-0.0044
9.97	-9.4873	-0.1127	-1.5723	-0.0171	-0.0036	-0.0052	29.3205	2.7927	15.1312	0.6446	-0.0041	0.7646	-0.0044
9.98	-9.4869	-0.1104	-1.5737	-0.0178	0.0048	-0.0057	29.3307	2.7841	15.0233	0.6445	-0.0041	0.7645	-0.0044
9.99	-9.4818	-0.1136	-1.5930	-0.0202	0.0027	-0.0050	29.3449	2.9694	14.9828	0.6445	-0.0041	0.7646	-0.0044
10	-9.4828	-0.1178	-1.5882	-0.0232	-0.0006	-0.0034	29.3153	2.8279	14.9958	0.6445	-0.0041	0.7646	-0.0044
10.01	-9.4942	-0.1128	-1.5918	-0.0207	0.0021	-0.0042	29.2541	3.0072	15.1224	0.6445	-0.0041	0.7646	-0.0044
10.02	-9.4853	-0.1141	-1.5991	-0.0194	0.0088	-0.0043	29.1936	2.9786	15.1836	0.6444	-0.0041	0.7647	-0.0044
10.03	-9.4836	-0.1173	-1.6021	-0.0210	0.0032	-0.0035	29.1554	2.8969	15.1537	0.6444	-0.0041	0.7646	-0.0044
10.04	-9.4735	-0.0996	-1.5938	-0.0167	0.0055	-0.0014	29.2572	3.0735	15.0766	0.6444	-0.0041	0.7647	-0.0044
10.05	-9.4827	-0.1020	-1.6053	-0.0155	0.0084	-0.0051	29.2787	3.0836	15.2025	0.6443	-0.0041	0.7647	-0.0044
10.06	-9.4921	-0.1019	-1.6021	-0.0177	-0.0005	-0.0057	29.3519	2.9407	15.0931	0.6444	-0.0041	0.7648	-0.0044
10.07	-9.4860	-0.0988	-1.5923	-0.0162	0.0064	-0.0029	29.3315	2.9295	15.0604	0.6442	-0.0041	0.7647	-0.0044
10.08	-9.4868	-0.0999	-1.6013	-0.0146	0.0013	-0.0043	29.0976	2.9558	15.2244	0.6443	-0.0041	0.7648	-0.0044
10.09	-9.4931	-0.1079	-1.6134	-0.0173	0.0021	-0.0031	29.4533	3.0583	15.4276	0.6442	-0.0041	0.7648	-0.0044
10.1	-9.4788	-0.1217	-1.5979	-0.0193	-0.0049	-0.0030	29.4169	2.9380	15.4401	0.6442	-0.0040	0.7648	-0.0044
10.11	-9.4813	-0.1268	-1.6044	-0.0161	-0.0033	-0.0030	29.4014	2.9472	15.3579	0.6443	-0.0040	0.7649	-0.0044
10.12	-9.4865	-0.1264	-1.6232	-0.0170	-0.0036	-0.0030	29.3636	2.8989	15.2060	0.6442	-0.0040	0.7648	-0.0044
10.13	-9.4889	-0.1304	-1.6249	-0.0196	-0.0071	-0.0060	29.2494	2.8193	15.1847	0.6443	-0.0040	0.7648	-0.0044
10.14	-9.4759	-0.1364	-1.6189	-0.0197	-0.0080	0.0041	29.4884	2.8087	15.1798	0.6442	-0.0040	0.7647	-0.0044
10.15	-9.4820	-0.1273	-1.6053	-0.0160	-0.0036	-0.0027	29.3341	2.8158	15.1835	0.6443	-0.0040	0.7648	-0.0044
10.16	-9.4754	-0.1187	-1.6051	-0.0212	-0.0068	-0.0047	29.4050	2.8275	14.9986	0.6443	-0.0040	0.7648	-0.0044
10.17	-9.4713	-0.1203	-1.5982	-0.0225	-0.0049	-0.0040	29.3012	3.0199	15.0728	0.6443	-0.0040	0.7647	-0.0044
10.18	-9.4829	-0.1177	-1.5993	-0.0132	-0.0030	-0.0021	29.1948	2.8378	15.0935	0.6443	-0.0040	0.7648	-0.0044
10.19	-9.4865	-0.1223	-1.5999	-0.0168	-0.0082	-0.0034	29.3495	2.8636	15.2285	0.6443	-0.0040	0.7647	-0.0044
10.2	-9.4881	-0.1215	-1.5995	-0.0172	-0.0017	-0.0039	29.3509	3.0372	15.2763	0.6443	-0.0040	0.7648	-0.0044
10.21	-9.4912	-0.1171	-1.6052	-0.0204	-0.0029	-0.0034	29.1023	2.8647	15.2611	0.6442	-0.0040	0.7647	-0.0044
10.22	-9.4813	-0.1204	-1.5998	-0.0199	-0.0016	-0.0048	29.0538	2.8993	15.0420	0.6443	-0.0040	0.7648	-0.0044
10.23	-9.4854	-0.1234	-1.5946	-0.0147	-0.0037	-0.0105	29.1816	2.8989	15.1371	0.6443	-0.0040	0.7648	-0.0044
10.24	-9.4857	-0.1196	-1.5979	-0.0219	-0.0063	-0.0040	29.2819	3.0973	15.1957	0.6443	-0.0040	0.7648	-0.0044
10.25	-9.4865	-0.1151	-1.5877	-0.0203	-0.0012	-0.0043	29.2969	2.9341	15.1507	0.6443	-0.0040	0.7647	-0.0044
10.26	-9.4917	-0.1000	-1.5958	-0.0202	-0.0034	-0.0065	29.2850	3.0410	15.0845	0.6443	-0.0040	0.7648	-0.0044
10.27	-9.4896	-0.0972	-1.6028	-0.0114	-0.0069	-0.0058	29.3017	3.0006	15.0625	0.6443	-0.0040	0.7648	-0.0044
10.28	-9.4770	-0.1017	-1.5922	-0.0210	-0.0104	-0.0033	29.2704	3.0332	15.1799	0.6443	-0.0040	0.7647	-0.0044
10.29	-9.4747	-0.1067	-1.5990	-0.0218	-0.0044	-0.0040	29.4016	3.1720	15.2501	0.6444	-0.0040	0.7648	-0.0044
10.3	-9.4893	-0.1116	-1.5988	-0.0185	-0.0045	-0.0036	29.4648	2.9949	15.0201	0.6443	-0.0040	0.7647	-0.0044
10.31	-9.4807	-0.1132	-1.6038	-0.0152	-0.0052	-0.0060	29.4502	2.9338	15.1860	0.6444	-0.0040	0.7648	-0.0044
10.32	-9.4873	-0.1113	-1.6033	-0.0234	-0.0036	-0.0058	29.4498	2.7932	15.1846	0.6443	-0.0040	0.7647	-0.0044
10.33	-9.4906	-0.1214	-1.6026	-0.0223	-0.0014	-0.0058	29.3492	2.6136	15.1734	0.6443	-0.0040	0.7647	-0.0044
10.34	-9.4869	-0.1112	-1.6115	-0.0197	-0.0017	-0.0051	29.2195	2.8565	15.2214	0.6443	-0.0040	0.7647	-0.0044
10.35	-9.4799	-0.1191	-1.6001	-0.0191	-0.0092	-0.0070	29.1999	2.9587	15.3042	0.6443	-0.0041	0.7647	-0.0044
10.36	-9.4885	-0.1061	-1.6096	-0.0192	-0.0035	-0.0052	29.2961	3.1856	15.0170	0.6444	-0.0041	0.7648	-0.0044
10.37	-9.4857	-0.1138	-1.5887	-0.0168	-0.0049	-0.0038	29.1872	3.0810	15.1640	0.6443	-0.0041	0.7647	-0.0044
10.38	-9.4893	-0.1201	-1.5954	-0.0230	-0.0085	-0.0031	29.2126	2.8569	15.3306	0.6444	-0.0041	0.7647	-0.0044
10.39	-9.4889	-0.1145	-1.5927	-0.0206	-0.0004	-0.0039	29.2152	3.0008	15.0478	0.6443	-0.0041	0.7646	-0.0044
10.4	-9.4777	-0.1153	-1.5986	-0.0167	-0.0030	-0.0053	29.1942	2.8410	15.1161	0.6444	-0.0041	0.7647	-0.0044
10.41	-9.4853	-0.1113	-1.6073	-0.0235	0.0003	-0.0038	29.1059	2.8213	15.2079	0.6443	-0.0041	0.7647	-0.0044
10.42	-9.4852	-0.1117	-1.6041	-0.0195	-0.0029	-0.0042	29.1381	2.9967	15.0881	0.6443	-0.0041	0.7647	-0.0043
10.43	-9.4886	-0.1036	-1.6027	-0.0193	-0.0046	-0.0034	29.2094	2.9596	15.0687	0.6444	-0.0041	0.7647	-0.0043
10.44	-9.4813	-0.1058	-1.6059	-0.0234	-0.0019	-0.0049	29.2249	2.7510	15.2557	0.6443	-0.0041	0.7647	-0.0043
10.45	-9.4793	-0.1144	-1.6113	-0.0168	-0.0032	-0.0044	29.3719	2.9140	15.2231	0.6444	-0.0041	0.7647	-0.0043
10.46	-9.4759	-0.1115	-1.5941	-0.0205	-0.0093	0.0008	29.3064	3.1774	15.0600	0.6443	-0.0041	0.7646	-0.0043
10.47	-9.4813	-0.1241	-1.5946	-0.0239	-0.0076	-0.0030	29.2563	3.0084	15.1963	0.6444	-0.0041	0.7647	-0.0043
10.48	-9.4834	-0.1190	-1.5860	-0.0203	-0.0031	-0.0051	29.3661	2.8423	15.3244	0.6444	-0.0041	0.7647	-0.0043
10.49	-9.4819	-0.1320	-1.5972	-0.0202	-0.0057	-0.0076	29.5230	2.9605	15.0987	0.6444	-0.0041	0.7647	-0.0043
10.5	-9.4887	-0.1297	-1.6091	-0.0183	-0.0049	-0.0069	29.1540	2.6629	15.0980	0.6444	-0.0041	0.7647	-0.0043
10.51	-9.4688	-0.1287	-1.6140	-0.0238	-0.0014	-0.0112	29.2663	2.6966	15.0656	0.6444	-0.0042	0.7647	-0.0043
10.52	-9.4856	-0.1331	-1.6160	-0.0215	-0.0026	-0.0032	29.4708	2.6819	15.2027	0.6444	-0.0042	0.7647	-0.0043
10.53	-9.4828	-0.1312	-1.6069	-0.0237	-0.0066	-0.0066	29.3729	2.6930	15.3873	0.6443	-0.0042	0.7646	-0.0043
10.54	-9.4784	-0.1329	-1.6085	-0.0195	-0.0046	-0.0072	29.2601	2.9446	15.2395	0.6444	-0.0042	0.7647	-0.0043
10.55	-9.4889	-0.1282	-1.6117	-0.0166	-0.0090	-0.0063	29.3289	2.8641	15.2682	0.6444	-0.0042	0.7646	-0.0043
10.56	-9.4753	-0.1279	-1.5997	-0.0233	-0.0083	-0.0084	29.4001	2.9293	15.2761	0.6445	-0.0042	0.7647	-0.0043
10.57	-9.4739	-0.1242	-1.5977	-0.0228	-0.0049	-0.0053	29.2651	2.7836	15.2399	0.6444	-0.0042	0.7646	-0.0043
10.58	-9.4829	-0.1151	-1.5966	-0.0230	-0.0029	-0.0135	29.3090	2.8429	15.3223	0.6444	-0.0043	0.7646	-0.0043
10.59	-9.4776	-0.1080	-1.6059	-0.0240	-0.0006	-0.0040	29.5781	3.1084	15.4855	0.6444	-0.0043	0.7646	-0.0043
10.6	-9.4841	-0.1003	-1.5950	-0.0227	-0.0053	-0.0052	29.6284	3.2374	15.3637	0.6444	-0.0043	0.7646	-0.0043
10.61	-9.4878	-0.0997	-1.5883	-0.0227	-0.0036	-0.0038	29.4176	3.2552	15.1387	0.6445	-0.0043	0.7647	-0.0042
10.62	-9.4728	-0.1088	-1.5793	-0.0204	-0.0026	-0.0047	29.2915	3.0058	15.0844	0.6444	-0.0043	0.7646	-0.0042
10.63	-9.4733	-0.1118	-1.5829	-0.0238	-0.0028	-0.0056	29.2110	3.0424	15.0850	0.6445	-0.0044	0.7647	-0.0042
10.64	-9.4809	-0.1185	-1.5810	-0.0211	-0.0045	-0.0042	29.1854	2.9245	15.1864	0.6444	-0.0044	0.7646	-0.0042
10.65	-9.4770	-0.1119	-1.5785	-0.0221	-0.0035	-0.0031	29.0781	2.9667	15.2561	0.6445	-0.0044	0.7646	-0.0042
10.66	-9.4798	-0.1037	-1.5865	-0.0224	-0.0067	-0.0061	29.1230	3.0282	15.1514	0.6444	-0.0044	0.7646	-0.0042
10.67	-9.4794	-0.0971	-1.5806	-0.0181	-0.0079	-0.0066	29.3368	2.7738	15.1411	0.6445	-0.0044	0.7646	-0.0042
10.68	-9.4965	-0.1033	-1.5879	-0.0234	-0.0102	-0.0053	29.3637	2.7745	14.9646	0.6445	-0.0044	0.7646	-0.0042
10.69	-9.4911	-0.0949	-1.5878	-0.0215	-0.0084	-0.0035	29.2014	2.9179	15.1821	0.6445	-0.0044	0.7646	-0.0042
10.7	-9.4870	-0.1021	-1.5827	-0.0213	-0.0040	-0.0035	29.3857	2.7506	15.1509	0.6445	-0.0044	0.7646	-0.0042
10.71	-9.4828	-0.0978	-1.5883	-0.0200	-0.0041	-0.0025	29.5100	2.9666	15.3123	0.6445	-0.0044	0.7645	-0.0042
10.72	-9.4914	-0.1011	-1.5909	-0.0222	-0.0042	-0.0024	29.4106	2.9156	15.0945	0.6445	-0.0044	0.7646	-0.0041
10.73	-9.4867	-0.1008	-1.6011	-0.0207	-0.0059	-0.0059	29.4210	2.8884	15.0523	0.6445	-0.0044	0.7645	-0.0041
10.74	-9.4820	-0.1030	-1.6091	-0.0188	0.0034	-0.0077	29.4494	2.9746	15.2769	0.6445	-0.0045	0.7646	-0.0041
10.75	-9.4822	-0.1200	-1.6009	-0.0192	0.0037	-0.0038	29.2298	2.9291	14.9182	0.6445	-0.0045	0.7646	-0.0041
10.76	-9.4730	-0.1136	-1.6081	-0.0234	-0.0003	-0.0045	29.3122	3.0680	15.2145	0.6445	-0.0045	0.7646	-0.0041
10.77	-9.4747	-0.1196	-1.6121	-0.0216	0.0006	-0.0058	29.3058	2.9683	15.0557	0.6445	-0.0045	0.7646	-0.0041
10.78	-9.4902	-0.1127	-1.6165	-0.0207	-0.0044	-0.0029	29.2423	2.9167	15.2979	0.6444	-0.0045	0.7646	-0.0041
10.79	-9.4852	-0.1130	-1.6115	-0.0230	0.0016	-0.0040	29.1749	2.9835	15.0983	0.6445	-0.0045	0.7647	-0.0041
10.8	-9.4828	-0.1079	-1.6095	-0.0230	-0.0026	-0.0041	29.1989	2.8576	15.2000	0.6444	-0.0045	0.7646	-0.0041
10.81	-9.4906	-0.1093	-1.6172	-0.0200	-0.0050	-0.0070	29.1105	2.9672	15.1745	0.6445	-0.0045	0.7647	-0.0041
10.82	-9.4905	-0.1096	-1.6191	-0.0222	-0.0018	-0.0042	29.1681	3.2161	14.9405	0.6444	-0.0045	0.7646	-0.0041
10.83	-9.4873	-0.1200	-1.6306	-0.0216	-0.0053	-0.0015	29.4167	2.9862	15.2633	0.6444	-0.0045	0.7646	-0.0040
10.84	-9.4799	-0.1170	-1.6299	-0.0139	-0.0027	-0.0043	29.0591	3.0153	15.2740	0.6444	-0.0045	0.7646	-0.0041
10.85	-9.4881	-0.1299	-1.6251	-0.0217	-0.0101	-0.0036	29.3098	2.8226	15.1860	0.6444	-0.0045	0.7646	-0.0040
10.86	-9.4850	-0.1320	-1.6227	-0.0196	-0.0041	-0.0042	29.6341	2.9950	15.1047	0.6445	-0.0045	0.7647	-0.0040
10.87	-9.4925	-0.1270	-1.6107	-0.0213	-0.0060	-0.0045	29.3105	2.8940	15.0334	0.6445	-0.0045	0.7646	-0.0040
10.88	-9.4857	-0.1348	-1.6142	-0.0239	-0.0040	-0.0087	29.2208	2.8512	14.8423	0.6445	-0.0046	0.7646	-0.0040
10.89	-9.4806	-0.1297	-1.6045	-0.0225	-0.0059	-0.0060	29.4658	2.8694	15.1333	0.6444	-0.0046	0.7645	-0.0040
10.9	-9.4828	-0.1329	-1.6073	-0.0233	-0.0051	-0.0040	29.3605	2.8670	15.0758	0.6445	-0.0046	0.7646	-0.0040
10.91	-9.4895	-0.1164	-1.6018	-0.0208	-0.0038	-0.0065	29.2727	2.8389	15.1135	0.6445	-0.0046	0.7646	-0.0040
10.92	-9.4886	-0.1227	-1.6017	-0.0229	-0.0100	-0.0013	29.3860	2.6802	15.0709	0.6445	-0.0046	0.7645	-0.0040
10.93	-9.4865	-0.1140	-1.6004	-0.0228	-0.0125	-0.0037	29.2389	2.7098	15.2233	0.6446	-0.0046	0.7646	-0.0040
10.94	-9.4808	-0.1089	-1.5976	-0.0232	-0.0071	-0.0040	29.2516	2.9236	15.3815	0.6446	-0.0046	0.7645	-0.0039
10.95	-9.4847	-0.1008	-1.5967	-0.0195	-0.0071	-0.0042	29.1187	2.9592	15.1398	0.6446	-0.0046	0.7645	-0.0039
10.96	-9.4763	-0.1026	-1.5905	-0.0208	-0.0031	-0.0061	29.3712	2.9082	15.2898	0.6445	-0.0046	0.7644	-0.0039
10.97	-9.4900	-0.1124	-1.6034	-0.0238	-0.0119	-0.0041	29.2133	3.2011	15.1318	0.6446	-0.0047	0.7645	-0.0039
10.98	-9.4781	-0.1133	-1.5829	-0.0214	-0.0111	-0.0048	29.0482	3.2409	15.0568	0.6446	-0.0047	0.7645	-0.0039
10.99	-9.4784	-0.1151	-1.5868	-0.0175	-0.0060	-0.0079	29.1944	2.9190	15.1382	0.6447	-0.0047	0.7645	-0.0039
11	-9.4821	-0.1140	-1.5882	-0.0190	-0.0028	-0.0047	29.1652	2.9450	15.4004	0.6446	-0.0047	0.7644	-0.0039
11.01	-9.4762	-0.1050	-1.5779	-0.0232	-0.0045	-0.0018	29.0834	3.0637	15.1572	0.6447	-0.0047	0.7644	-0.0039
11.02	-9.4827	-0.1015	-1.5831	-0.0219	-0.0037	-0.0037	29.1128	2.9267	15.0921	0.6447	-0.0047	0.7645	-0.0039
11.03	-9.4692	-0.1041	-1.5811	-0.0195	-0.0063	-0.0044	29.0846	2.7344	15.3177	0.6446	-0.0047	0.7644	-0.0039
11.04	-9.4929	-0.1013	-1.5846	-0.0188	-0.0113	-0.0065	29.2037	2.9096	15.1179	0.6447	-0.0047	0.7645	-0.0039
11.05	-9.4911	-0.0997	-1.5936	-0.0213	-0.0082	-0.0016	29.4514	2.7976	15.1266	0.6447	-0.0047	0.7644	-0.0039
11.06	-9.4813	-0.1051	-1.5991	-0.0199	-0.0045	-0.0034	29.5417	2.8285	15.2403	0.6448	-0.0047	0.7645	-0.0039
11.07	-9.4910	-0.1090	-1.5922	-0.0228	-0.0048	-0.0025	29.3965	2.9717	14.9677	0.6447	-0.0047	0.7643	-0.0039
11.08	-9.4880	-0.1247	-1.6000	-0.0225	-0.0043	-0.0041	29.4550	2.9341	15.1566	0.6447	-0.0047	0.7644	-0.0038
11.09	-9.4845	-0.1172	-1.5988	-0.0227	-0.0042	-0.0029	29.7069	2.9681	15.1817	0.6447	-0.0047	0.7644	-0.0038
11.1	-9.4860	-0.1095	-1.6004	-0.0171	-0.0093	-0.0020	29.7833	2.9324	15.2648	0.6447	-0.0047	0.7643	-0.0038
11.11	-9.4820	-0.1074	-1.6101	-0.0224	-0.0071	-0.0064	29.5547	3.0839	15.2261	0.6448	-0.0047	0.7644	-0.0038
11.12	-9.4800	-0.1050	-1.6115	-0.0155	-0.0000	-0.0042	29.4952	3.0383	15.3931	0.6448	-0.0047	0.7643	-0.0038
11.13	-9.4964	-0.1044	-1.6041	-0.0111	-0.0073	-0.0056	29.3711	2.8559	15.0628	0.6448	-0.0047	0.7644	-0.0039
11.14	-9.4857	-0.1079	-1.6008	-0.0187	0.0016	-0.0054	29.1962	2.8950	15.2740	0.6447	-0.0047	0.7643	-0.0039
11.15	-9.4774	-0.1104	-1.5994	-0.0143	0.0003	-0.0034	29.3071	2.8526	15.2375	0.6448	-0.0047	0.7644	-0.0039
11.16	-9.4882	-0.1108	-1.6044	-0.0149	-0.0015	-0.0055	29.1610	2.9333	15.1645	0.6447	-0.0047	0.7644	-0.0039
11.17	-9.4747	-0.1167	-1.5939	-0.0239	0.0018	-0.0037	29.2988	2.9669	15.3926	0.6447	-0.0047	0.7644	-0.0039
11.18	-9.4910	-0.1202	-1.5947	-0.0161	-0.0036	-0.0049	29.2900	2.9683	15.2117	0.6447	-0.0047	0.7644	-0.0039
11.19	-9.4866	-0.1209	-1.6013	-0.0218	-0.0023	-0.0011	29.1706	2.8070	15.1865	0.6447	-0.0047	0.7644	-0.0039
11.2	-9.4844	-0.1234	-1.6079	-0.0210	0.0023	-0.0085	29.1077	2.8383	15.1047	0.6447	-0.0047	0.7644	-0.0039
11.21	-9.4827	-0.1199	-1.6009	-0.0158	-0.0037	-0.0050	29.2266	2.9001	15.0713	0.6446	-0.0047	0.7644	-0.0039
11.22	-9.4956	-0.1263	-1.6001	-0.0226	-0.0092	-0.0030	29.2033	2.8585	15.1871	0.6447	-0.0047	0.7644	-0.0039
11.23	-9.4932	-0.1256	-1.5981	-0.0220	-0.0071	-0.0037	29.2414	2.8945	15.1918	0.6447	-0.0047	0.7644	-0.0039
11.24	-9.4883	-0.1229	-1.6034	-0.0214	-0.0042	-0.0052	29.3739	2.8587	15.3272	0.6447	-0.0047	0.7644	-0.0038
11.25	-9.4858	-0.1338	-1.6182	-0.0208	-0.0057	-0.0002	29.3812	2.9159	15.0274	0.6447	-0.0047	0.7644	-0.0038
11.26	-9.4822	-0.1390	-1.6155	-0.0211	-0.0045	-0.0042	29.3694	2.7006	15.0364	0.6447	-0.0047	0.7644	-0.0038
11.27	-9.4839	-0.1269	-1.6166	-0.0236	-0.0074	-0.0046	29.2154	2.8268	15.0980	0.6448	-0.0047	0.7644	-0.0038
11.28	-9.4810	-0.1239	-1.6171	-0.0229	-0.0029	0.0004	29.2680	2.9002	15.1285	0.6447	-0.0047	0.7643	-0.0038
11.29	-9.4923	-0.1225	-1.6203	-0.0186	-0.0057	-0.0031	29.4165	2.7863	15.5284	0.6448	-0.0047	0.7644	-0.0038
11.3	-9.4724	-0.1080	-1.6153	-0.0212	-0.0040	-0.0039	29.2947	3.0450	15.1844	0.6448	-0.0047	0.7643	-0.0038
11.31	-9.4802	-0.1054	-1.6075	-0.0239	-0.0048	-0.0049	29.3693	2.8475	15.2321	0.6448	-0.0047	0.7644	-0.0037
11.32	-9.4944	-0.1042	-1.6034	-0.0229	-0.0080	-0.0038	29.2872	2.9757	15.3562	0.6448	-0.0047	0.7643	-0.0037
11.33	-9.4844	-0.0993	-1.6045	-0.0230	-0.0059	-0.0031	29.1933	3.1680	15.2306	0.6448	-0.0047	0.7643	-0.0037
