time	acceleration_x	acceleration_y	acceleration_z	gyroscope_x	gyroscope_y	gyroscope_z	magnetometer_x	magnetometer_y	magnetometer_z	quaternion_w	quaternion_x	quaternion_y	quaternion_z
0	-9.5045	-0.1139	-1.5022	-0.0216	-0.0023	-0.0089	20.5689	0.7138	15.7862	0.6488	-0.0225	0.7605	0.0123
0.01	-9.5022	-0.0933	-1.4957	-0.0194	-0.0015	-0.0081	20.5800	0.4491	15.6328	0.6488	-0.0225	0.7606	0.0123
0.02	-9.4998	-0.0867	-1.5099	-0.0221	-0.0016	-0.0030	20.7985	0.6873	15.6862	0.6488	-0.0225	0.7605	0.0123
0.03	-9.5071	-0.0855	-1.5277	-0.0220	-0.0020	-0.0071	20.6447	0.5970	15.8447	0.6488	-0.0225	0.7606	0.0123
0.04	-9.4998	-0.0927	-1.5188	-0.0203	-0.0094	-0.0034	20.7042	0.6023	15.7515	0.6487	-0.0225	0.7605	0.0124
0.05	-9.4987	-0.0931	-1.5180	-0.0213	-0.0038	-0.0027	21.0693	0.4618	15.7633	0.6488	-0.0225	0.7606	0.0123
0.06	-9.4950	-0.1004	-1.5305	-0.0217	-0.0038	-0.0038	20.9858	0.6138	15.5829	0.6488	-0.0225	0.7605	0.0124
0.07	-9.4981	-0.0924	-1.5287	-0.0225	-0.0025	-0.0090	20.8270	0.4353	15.6430	0.6488	-0.0225	0.7606	0.0124
0.08	-9.5020	-0.0910	-1.5224	-0.0179	-0.0029	-0.0045	21.1214	0.5281	15.7774	0.6488	-0.0225	0.7605	0.0123
0.09	-9.5011	-0.0957	-1.5236	-0.0195	-0.0022	-0.0043	20.9724	0.5812	15.7567	0.6488	-0.0225	0.7605	0.0123
0.1	-9.5050	-0.0917	-1.5249	-0.0227	-0.0025	-0.0053	20.8749	0.5213	15.7464	0.6488	-0.0225	0.7606	0.0123
0.11	-9.5006	-0.0847	-1.5202	-0.0163	-0.0001	-0.0064	20.8904	0.6476	15.7743	0.6487	-0.0225	0.7605	0.0123
0.12	-9.4959	-0.0857	-1.5167	-0.0217	-0.0004	-0.0033	20.9172	0.4460	15.7187	0.6488	-0.0225	0.7606	0.0123
0.13	-9.5044	-0.0814	-1.5261	-0.0220	-0.0063	-0.0063	20.8365	0.4635	15.7046	0.6487	-0.0226	0.7606	0.0124
0.14	-9.4965	-0.0921	-1.5189	-0.0224	-0.0070	-0.0037	20.8652	0.7819	15.7540	0.6488	-0.0226	0.7606	0.0124
0.15	-9.4933	-0.0956	-1.5259	-0.0216	-0.0045	-0.0079	20.9097	0.6578	15.8509	0.6487	-0.0226	0.7605	0.0124
0.16	-9.4986	-0.0932	-1.5292	-0.0228	-0.0022	-0.0041	20.6699	0.6916	15.8002	0.6488	-0.0226	0.7606	0.0124
0.17	-9.4990	-0.0861	-1.5340	-0.0171	0.0038	-0.0059	20.7916	0.6161	15.5857	0.6487	-0.0226	0.7606	0.0124
0.18	-9.5068	-0.0841	-1.5210	-0.0188	-0.0007	-0.0116	20.6086	0.5771	15.7890	0.6487	-0.0226	0.7605	0.0124
0.19	-9.5018	-0.0862	-1.5288	-0.0221	-0.0035	-0.0036	20.8826	0.5914	15.7109	0.6488	-0.0227	0.7607	0.0124
0.2	-9.5030	-0.0910	-1.5390	-0.0231	-0.0043	-0.0101	20.7139	0.6061	15.8326	0.6487	-0.0227	0.7606	0.0124
0.21	-9.4948	-0.0999	-1.5449	-0.0217	0.0017	-0.0100	20.6644	0.7518	15.7311	0.6487	-0.0227	0.7606	0.0124
0.22	-9.4922	-0.0953	-1.5417	-0.0159	-0.0018	-0.0069	20.9150	0.7657	15.5204	0.6486	-0.0227	0.7606	0.0124
0.23	-9.5059	-0.1195	-1.5525	-0.0135	-0.0055	-0.0054	21.1073	0.7479	15.8499	0.6487	-0.0227	0.7606	0.0123
0.24	-9.5063	-0.1298	-1.5474	-0.0146	-0.0084	-0.0067	21.1052	0.8016	15.7985	0.6487	-0.0226	0.7606	0.0123
0.25	-9.4978	-0.1247	-1.5256	-0.0208	-0.0023	-0.0036	20.9640	0.7586	15.7865	0.6487	-0.0226	0.7606	0.0123
0.26	-9.5086	-0.1070	-1.5176	-0.0185	0.0001	-0.0079	20.9191	0.6227	15.7990	0.6487	-0.0227	0.7606	0.0123
0.27	-9.5073	-0.1188	-1.5252	-0.0117	-0.0015	-0.0037	20.9776	0.7695	15.7753	0.6487	-0.0226	0.7606	0.0122
0.28	-9.5030	-0.0974	-1.5220	-0.0160	-0.0019	-0.0030	20.9205	0.7842	15.7318	0.6487	-0.0226	0.7607	0.0122
0.29	-9.4946	-0.1010	-1.5285	-0.0121	0.0002	-0.0036	20.7831	0.4514	15.8939	0.6486	-0.0226	0.7606	0.0122
0.3	-9.4946	-0.0995	-1.5318	-0.0203	-0.0067	-0.0033	20.8096	0.3493	15.6935	0.6487	-0.0226	0.7607	0.0122
0.31	-9.5035	-0.0988	-1.5187	-0.0157	-0.0041	-0.0032	20.6643	0.4223	15.6219	0.6487	-0.0226	0.7606	0.0122
0.32	-9.5047	-0.1153	-1.5279	-0.0211	-0.0092	-0.0057	20.8719	0.5210	15.9316	0.6487	-0.0226	0.7606	0.0122
0.33	-9.4998	-0.1088	-1.5185	-0.0176	-0.0037	-0.0079	20.8879	0.6613	15.6241	0.6487	-0.0226	0.7606	0.0122
0.34	-9.5063	-0.1092	-1.5264	-0.0225	-0.0030	-0.0054	20.8857	0.6934	15.7197	0.6487	-0.0226	0.7606	0.0122
0.35	-9.4955	-0.1159	-1.5336	-0.0162	-0.0038	-0.0034	20.8685	0.6032	15.6134	0.6487	-0.0226	0.7606	0.0122
0.36	-9.4840	-0.1210	-1.5271	-0.0205	-0.0043	-0.0059	20.9649	0.6466	15.9449	0.6486	-0.0226	0.7606	0.0122
0.37	-9.5075	-0.1198	-1.5259	-0.0210	-0.0050	-0.0048	20.8497	0.5228	16.0490	0.6487	-0.0226	0.7607	0.0122
0.38	-9.4951	-0.1164	-1.5220	-0.0210	-0.0004	-0.0052	20.6576	0.5490	15.5771	0.6487	-0.0226	0.7606	0.0122
0.39	-9.4945	-0.1016	-1.5266	-0.0228	-0.0012	-0.0036	20.8307	0.5431	15.6616	0.6487	-0.0226	0.7607	0.0122
0.4	-9.5019	-0.1023	-1.5305	-0.0217	-0.0065	-0.0042	20.7696	0.5345	15.7755	0.6486	-0.0227	0.7606	0.0123
0.41	-9.4986	-0.1017	-1.5304	-0.0226	-0.0071	-0.0073	20.7551	0.6760	15.6531	0.6487	-0.0227	0.7606	0.0123
0.42	-9.4955	-0.0988	-1.5252	-0.0220	-0.0042	-0.0039	20.7762	0.8683	15.6792	0.6487	-0.0227	0.7606	0.0123
0.43	-9.5008	-0.0846	-1.5242	-0.0226	-0.0046	-0.0017	20.6824	0.6058	15.6709	0.6487	-0.0227	0.7606	0.0123
0.44	-9.5053	-0.0984	-1.5256	-0.0221	-0.0069	-0.0040	20.9284	0.5613	15.6855	0.6488	-0.0227	0.7607	0.0123
0.45	-9.4955	-0.0977	-1.5128	-0.0224	-0.0053	-0.0056	20.8555	0.6190	15.6806	0.6487	-0.0227	0.7606	0.0123
0.46	-9.4941	-0.1042	-1.5245	-0.0205	-0.0055	-0.0021	20.7169	0.2616	15.6775	0.6487	-0.0227	0.7606	0.0124
0.47	-9.4969	-0.1046	-1.5249	-0.0240	-0.0044	-0.0048	20.8026	0.4521	15.7631	0.6487	-0.0227	0.7605	0.0124
0.48	-9.5104	-0.1175	-1.5165	-0.0170	-0.0031	-0.0021	20.8919	0.7067	15.8906	0.6487	-0.0227	0.7606	0.0124
0.49	-9.5079	-0.1089	-1.5170	-0.0151	-0.0046	0.0011	20.7393	0.6579	15.6290	0.6487	-0.0227	0.7606	0.0124
0.5	-9.5067	-0.0997	-1.5220	-0.0235	-0.0095	-0.0024	20.9535	0.6194	15.8575	0.6487	-0.0227	0.7606	0.0124
0.51	-9.5006	-0.0941	-1.5284	-0.0220	-0.0095	-0.0045	21.0528	0.6310	15.8436	0.6488	-0.0227	0.7606	0.0124
0.52	-9.4989	-0.0829	-1.5179	-0.0229	-0.0045	-0.0061	20.9162	0.5214	15.7744	0.6488	-0.0227	0.7605	0.0124
0.53	-9.5100	-0.0763	-1.5377	-0.0218	-0.0006	-0.0085	20.8338	0.5567	15.6932	0.6488	-0.0228	0.7606	0.0124
0.54	-9.4957	-0.0754	-1.5404	-0.0225	-0.0050	-0.0063	20.7086	0.5350	15.7598	0.6487	-0.0228	0.7605	0.0124
0.55	-9.4931	-0.0796	-1.5286	-0.0213	0.0055	-0.0068	20.7277	0.5457	15.7544	0.6487	-0.0228	0.7606	0.0124
0.56	-9.5054	-0.0887	-1.5281	-0.0225	0.0007	-0.0057	20.8631	0.5431	15.8269	0.6487	-0.0228	0.7606	0.0125
0.57	-9.5023	-0.0959	-1.5328	-0.0217	-0.0002	-0.0064	20.8888	0.5469	15.8075	0.6487	-0.0228	0.7606	0.0125
0.58	-9.4887	-0.0916	-1.5360	-0.0227	-0.0017	0.0007	20.8737	0.5413	15.7431	0.6487	-0.0228	0.7606	0.0125
0.59	-9.5098	-0.1011	-1.5359	-0.0211	-0.0052	-0.0068	21.0042	0.6707	15.7892	0.6487	-0.0228	0.7606	0.0125
0.6	-9.5104	-0.1174	-1.5243	-0.0182	-0.0042	-0.0069	20.8864	0.5599	15.7432	0.6487	-0.0228	0.7606	0.0124
0.61	-9.5010	-0.1211	-1.5185	-0.0167	-0.0039	-0.0047	20.9352	0.5404	15.8605	0.6486	-0.0228	0.7606	0.0124
0.62	-9.5099	-0.1094	-1.5278	-0.0122	0.0006	-0.0050	21.0798	0.5525	15.8641	0.6487	-0.0228	0.7607	0.0124
0.63	-9.4983	-0.1042	-1.5202	-0.0093	0.0010	-0.0052	20.9925	0.5412	15.7035	0.6486	-0.0227	0.7606	0.0124
0.64	-9.5009	-0.0960	-1.5192	-0.0215	-0.0042	-0.0031	20.9485	0.3373	15.6771	0.6487	-0.0228	0.7607	0.0124
0.65	-9.5056	-0.0981	-1.5204	-0.0186	-0.0049	-0.0034	21.0497	0.5946	15.7744	0.6486	-0.0227	0.7606	0.0124
0.66	-9.5003	-0.0893	-1.5153	-0.0214	-0.0039	-0.0062	20.9410	0.4781	15.6669	0.6486	-0.0227	0.7607	0.0124
0.67	-9.5050	-0.0864	-1.5320	-0.0196	-0.0011	-0.0027	20.9848	0.3973	15.6958	0.6486	-0.0227	0.7607	0.0124
0.68	-9.5004	-0.0993	-1.5208	-0.0222	-0.0068	-0.0041	20.8966	0.7882	15.6599	0.6486	-0.0227	0.7606	0.0124
0.69	-9.5016	-0.1069	-1.5181	-0.0210	-0.0036	-0.0029	20.7754	0.5431	15.8792	0.6487	-0.0227	0.7607	0.0124
0.7	-9.5020	-0.1099	-1.5342	-0.0216	-0.0052	-0.0078	20.5722	0.6155	15.8479	0.6486	-0.0227	0.7606	0.0124
0.71	-9.4919	-0.1047	-1.5341	-0.0224	-0.0007	-0.0080	20.7625	0.7406	15.8323	0.6487	-0.0228	0.7607	0.0124
0.72	-9.4995	-0.1141	-1.5403	-0.0234	-0.0025	-0.0048	20.9508	0.6887	15.9487	0.6486	-0.0228	0.7606	0.0124
0.73	-9.4934	-0.1132	-1.5402	-0.0224	-0.0037	-0.0046	21.1861	0.9386	16.0369	0.6486	-0.0228	0.7607	0.0124
0.74	-9.5099	-0.1193	-1.5253	-0.0229	-0.0009	-0.0022	21.1565	0.8309	15.8699	0.6486	-0.0228	0.7607	0.0124
0.75	-9.5023	-0.1136	-1.5368	-0.0203	-0.0021	-0.0047	21.0935	0.8134	15.9542	0.6486	-0.0228	0.7607	0.0124
0.76	-9.4977	-0.1158	-1.5374	-0.0177	-0.0016	-0.0080	20.7446	0.7561	15.9662	0.6486	-0.0228	0.7607	0.0124
0.77	-9.4997	-0.1119	-1.5293	-0.0232	-0.0031	-0.0050	20.6837	0.8820	15.7473	0.6486	-0.0228	0.7607	0.0124
0.78	-9.5082	-0.1066	-1.5325	-0.0210	-0.0038	-0.0027	20.7067	0.7093	15.7887	0.6486	-0.0228	0.7607	0.0124
0.79	-9.5035	-0.1051	-1.5314	-0.0231	-0.0036	-0.0049	20.6304	0.5799	15.9463	0.6485	-0.0228	0.7606	0.0125
0.8	-9.5024	-0.1107	-1.5181	-0.0176	-0.0074	-0.0049	20.8470	0.4679	15.7069	0.6486	-0.0228	0.7607	0.0125
0.81	-9.5072	-0.1148	-1.5224	-0.0156	-0.0067	-0.0032	21.0055	0.4365	15.7964	0.6486	-0.0228	0.7607	0.0124
0.82	-9.5033	-0.1074	-1.5146	-0.0211	-0.0098	-0.0035	21.0409	0.6055	15.6711	0.6486	-0.0228	0.7607	0.0124
0.83	-9.5035	-0.1036	-1.5118	-0.0188	-0.0042	-0.0029	20.7932	0.5850	15.6556	0.6486	-0.0228	0.7606	0.0124
0.84	-9.5053	-0.0928	-1.5214	-0.0208	-0.0044	-0.0037	20.8099	0.5780	15.8002	0.6486	-0.0228	0.7607	0.0124
0.85	-9.5193	-0.0821	-1.5263	-0.0198	-0.0057	-0.0005	20.8840	0.6307	15.8606	0.6487	-0.0228	0.7607	0.0125
0.86	-9.5095	-0.0884	-1.5197	-0.0219	-0.0028	-0.0042	20.8284	0.7160	15.8049	0.6486	-0.0228	0.7606	0.0125
0.87	-9.5099	-0.0855	-1.5332	-0.0223	-0.0078	-0.0081	20.8151	0.4254	15.9839	0.6487	-0.0228	0.7607	0.0125
0.88	-9.5171	-0.0903	-1.5271	-0.0229	-0.0093	-0.0034	20.9280	0.4784	15.9930	0.6487	-0.0228	0.7606	0.0125
0.89	-9.4952	-0.0915	-1.5290	-0.0222	-0.0071	-0.0020	20.8569	0.7355	15.8830	0.6487	-0.0228	0.7607	0.0125
0.9	-9.5050	-0.1089	-1.5420	-0.0222	-0.0068	-0.0074	20.5366	0.8547	16.0279	0.6487	-0.0228	0.7606	0.0125
0.91	-9.5024	-0.1096	-1.5434	-0.0216	-0.0054	-0.0081	20.7110	0.7857	15.8645	0.6487	-0.0229	0.7606	0.0125
0.92	-9.4978	-0.1072	-1.5214	-0.0224	-0.0036	-0.0067	20.7136	0.6051	16.0072	0.6487	-0.0229	0.7606	0.0126
0.93	-9.5067	-0.1016	-1.5275	-0.0188	0.0003	-0.0041	20.5439	0.7683	15.9408	0.6486	-0.0229	0.7606	0.0126
0.94	-9.5143	-0.1005	-1.5324	-0.0189	-0.0018	-0.0057	20.6853	0.7277	15.7970	0.6487	-0.0229	0.7607	0.0126
0.95	-9.5020	-0.0879	-1.5236	-0.0207	0.0012	-0.0063	20.8824	0.9195	15.8664	0.6486	-0.0229	0.7606	0.0126
0.96	-9.4995	-0.0869	-1.5239	-0.0196	-0.0048	-0.0119	20.7085	0.8595	15.7471	0.6487	-0.0229	0.7607	0.0125
0.97	-9.5055	-0.0919	-1.5244	-0.0198	-0.0027	-0.0044	20.8501	0.7573	15.7453	0.6486	-0.0230	0.7606	0.0125
0.98	-9.5083	-0.0929	-1.5310	-0.0205	-0.0057	-0.0028	20.8590	0.6180	15.8511	0.6487	-0.0230	0.7607	0.0126
0.99	-9.5023	-0.0950	-1.5071	-0.0222	-0.0112	-0.0029	20.7283	0.4505	15.8523	0.6487	-0.0230	0.7606	0.0126
1	-9.5026	-0.0909	-1.5142	-0.0221	-0.0051	-0.0060	21.1897	0.6010	15.7693	0.6487	-0.0230	0.7606	0.0126
1.01	-9.5084	-0.0903	-1.5281	-0.0232	-0.0044	-0.0107	21.0251	0.6015	15.7461	0.6487	-0.0230	0.7606	0.0126
1.02	-9.5003	-0.0977	-1.5191	-0.0192	-0.0025	-0.0063	20.9768	0.4377	15.8993	0.6487	-0.0230	0.7606	0.0126
1.03	-9.5070	-0.1043	-1.5297	-0.0188	-0.0044	-0.0023	20.9435	0.4711	15.9632	0.6487	-0.0230	0.7606	0.0126
1.04	-9.5129	-0.1118	-1.5385	-0.0232	-0.0061	-0.0048	20.7820	0.5321	15.8266	0.6486	-0.0230	0.7605	0.0126
1.05	-9.5052	-0.1114	-1.5299	-0.0204	-0.0029	-0.0044	20.9588	0.3826	15.7589	0.6487	-0.0230	0.7606	0.0126
1.06	-9.5046	-0.1085	-1.5114	-0.0221	-0.0053	-0.0046	21.0934	0.4806	15.7394	0.6487	-0.0230	0.7606	0.0126
1.07	-9.5064	-0.1236	-1.5253	-0.0220	-0.0069	-0.0069	20.7869	0.5605	15.8300	0.6487	-0.0230	0.7606	0.0126
1.08	-9.5089	-0.1191	-1.5304	-0.0232	-0.0075	-0.0041	20.9265	0.7002	15.9181	0.6487	-0.0230	0.7606	0.0126
1.09	-9.4961	-0.1249	-1.5333	-0.0228	-0.0076	-0.0078	20.8457	0.8620	15.8415	0.6487	-0.0230	0.7606	0.0126
1.1	-9.4901	-0.1409	-1.5400	-0.0220	-0.0060	-0.0083	20.6703	0.6411	15.9324	0.6487	-0.0231	0.7606	0.0126
1.11	-9.4903	-0.1327	-1.5307	-0.0207	-0.0026	-0.0046	20.8633	0.7542	15.6239	0.6487	-0.0231	0.7605	0.0126
1.12	-9.4950	-0.1233	-1.5292	-0.0200	-0.0004	-0.0024	20.6855	0.7596	15.6777	0.6487	-0.0231	0.7606	0.0126
1.13	-9.5019	-0.1144	-1.5375	-0.0183	-0.0053	-0.0037	20.6911	0.4379	15.7867	0.6487	-0.0231	0.7606	0.0126
1.14	-9.5064	-0.1034	-1.5318	-0.0224	-0.0061	-0.0026	20.7708	0.4949	15.6786	0.6488	-0.0231	0.7606	0.0127
1.15	-9.4964	-0.0956	-1.5265	-0.0217	-0.0047	-0.0054	20.6537	0.8923	15.6338	0.6487	-0.0231	0.7605	0.0127
1.16	-9.5057	-0.0961	-1.5351	-0.0223	-0.0047	-0.0125	20.6412	0.8893	15.7914	0.6487	-0.0231	0.7606	0.0127
1.17	-9.5103	-0.1027	-1.5398	-0.0225	-0.0068	-0.0035	20.5529	0.6150	15.8409	0.6487	-0.0232	0.7606	0.0127
1.18	-9.5049	-0.1040	-1.5306	-0.0197	-0.0080	-0.0037	20.9140	0.5100	15.8465	0.6487	-0.0232	0.7605	0.0127
1.19	-9.5082	-0.1117	-1.5312	-0.0231	-0.0031	-0.0028	20.8967	0.4077	15.7442	0.6488	-0.0232	0.7606	0.0127
1.2	-9.5051	-0.0962	-1.5376	-0.0200	-0.0033	-0.0049	20.9119	0.4419	15.7710	0.6487	-0.0232	0.7605	0.0127
1.21	-9.5014	-0.0921	-1.5284	-0.0228	-0.0047	-0.0028	20.8678	0.6028	15.7217	0.6488	-0.0232	0.7606	0.0128
1.22	-9.5039	-0.0924	-1.5236	-0.0206	-0.0033	-0.0007	21.1280	0.5062	15.9392	0.6487	-0.0232	0.7605	0.0128
1.23	-9.5059	-0.0952	-1.5179	-0.0213	-0.0064	-0.0068	21.3658	0.5210	16.0571	0.6488	-0.0232	0.7606	0.0128
1.24	-9.5043	-0.0878	-1.5139	-0.0166	-0.0088	-0.0026	21.1878	0.6581	15.9751	0.6488	-0.0232	0.7605	0.0128
1.25	-9.5101	-0.0702	-1.5294	-0.0194	-0.0037	-0.0047	21.0591	0.6538	15.8064	0.6487	-0.0232	0.7605	0.0128
1.26	-9.5002	-0.0827	-1.5106	-0.0166	-0.0076	-0.0042	20.9369	0.6959	15.9466	0.6488	-0.0232	0.7605	0.0128
1.27	-9.4933	-0.0724	-1.5094	-0.0212	-0.0053	-0.0027	20.7816	0.6896	15.7988	0.6488	-0.0232	0.7605	0.0128
1.28	-9.5116	-0.0696	-1.5278	-0.0221	-0.0043	-0.0012	20.7886	0.6197	15.8358	0.6488	-0.0232	0.7605	0.0128
1.29	-9.4935	-0.0763	-1.5180	-0.0193	0.0039	-0.0109	20.6007	0.6468	15.8850	0.6487	-0.0232	0.7605	0.0128
1.3	-9.4917	-0.0658	-1.5141	-0.0208	-0.0032	-0.0109	20.9747	0.5394	15.7635	0.6488	-0.0232	0.7606	0.0128
1.31	-9.5097	-0.0747	-1.5282	-0.0200	-0.0003	-0.0049	20.8012	0.7120	15.7901	0.6487	-0.0232	0.7606	0.0128
1.32	-9.5000	-0.0862	-1.5178	-0.0193	-0.0001	-0.0112	20.8758	0.4756	15.7882	0.6487	-0.0233	0.7606	0.0128
1.33	-9.4949	-0.0980	-1.5234	-0.0209	-0.0053	-0.0078	20.9013	0.4767	15.7784	0.6487	-0.0233	0.7606	0.0128
1.34	-9.4995	-0.1142	-1.5361	-0.0220	-0.0012	-0.0065	20.8751	0.5854	15.9346	0.6487	-0.0233	0.7606	0.0128
1.35	-9.5008	-0.1137	-1.5330	-0.0219	-0.0083	-0.0035	20.9025	0.7248	15.7361	0.6487	-0.0233	0.7606	0.0128
1.36	-9.4984	-0.1111	-1.5293	-0.0223	-0.0098	-0.0034	20.8704	0.6574	15.6714	0.6487	-0.0233	0.7605	0.0128
1.37	-9.5081	-0.1224	-1.5394	-0.0207	-0.0040	-0.0056	21.0092	0.5357	15.8114	0.6488	-0.0234	0.7606	0.0128
1.38	-9.5054	-0.1131	-1.5357	-0.0208	-0.0034	-0.0037	21.1846	0.5811	15.7966	0.6487	-0.0233	0.7605	0.0128
1.39	-9.5080	-0.1118	-1.5378	-0.0219	-0.0043	-0.0102	21.0464	0.5500	15.7318	0.6488	-0.0233	0.7606	0.0128
1.4	-9.5110	-0.1134	-1.5337	-0.0179	-0.0002	-0.0104	21.0650	0.5779	15.6746	0.6487	-0.0233	0.7605	0.0128
1.41	-9.4989	-0.1134	-1.5381	-0.0207	0.0024	-0.0034	20.9192	0.5369	15.8490	0.6487	-0.0233	0.7606	0.0128
1.42	-9.4939	-0.1067	-1.5401	-0.0220	-0.0070	-0.0071	20.8841	0.6147	15.8746	0.6487	-0.0234	0.7606	0.0128
1.43	-9.5031	-0.1048	-1.5344	-0.0216	-0.0041	-0.0038	20.8717	0.6532	15.8749	0.6487	-0.0234	0.7605	0.0128
1.44	-9.5082	-0.1227	-1.5465	-0.0217	-0.0031	-0.0026	21.0008	0.6409	15.8649	0.6488	-0.0234	0.7606	0.0128
1.45	-9.5066	-0.1187	-1.5384	-0.0218	-0.0058	-0.0032	21.0398	0.5021	15.7655	0.6487	-0.0234	0.7606	0.0128
1.46	-9.5034	-0.1224	-1.5428	-0.0223	-0.0042	-0.0034	20.6983	0.4977	15.8031	0.6487	-0.0234	0.7606	0.0128
1.47	-9.5052	-0.1185	-1.5409	-0.0166	-0.0047	-0.0036	20.8345	0.6837	15.7576	0.6487	-0.0234	0.7605	0.0128
1.48	-9.4938	-0.1232	-1.5203	-0.0202	-0.0043	-0.0096	20.6697	0.5838	15.9262	0.6487	-0.0234	0.7606	0.0128
1.49	-9.5009	-0.1245	-1.5141	-0.0203	-0.0027	-0.0051	20.6761	0.5874	15.7621	0.6487	-0.0234	0.7606	0.0128
1.5	-9.5092	-0.1248	-1.5198	-0.0215	-0.0022	-0.0099	20.8082	0.6718	15.6377	0.6487	-0.0234	0.7606	0.0128
1.51	-9.5032	-0.1071	-1.5104	-0.0224	-0.0054	-0.0074	20.9051	0.5345	15.9323	0.6487	-0.0235	0.7606	0.0129
1.52	-9.5152	-0.0880	-1.5079	-0.0214	-0.0024	-0.0055	20.9821	0.5702	15.8229	0.6487	-0.0235	0.7606	0.0129
1.53	-9.5030	-0.0867	-1.5033	-0.0223	-0.0043	-0.0065	20.9613	0.3570	15.9937	0.6487	-0.0235	0.7606	0.0129
1.54	-9.5023	-0.0895	-1.4924	-0.0226	-0.0096	-0.0062	21.0173	0.5671	15.7891	0.6487	-0.0235	0.7605	0.0129
1.55	-9.5017	-0.0979	-1.4976	-0.0221	-0.0116	-0.0050	21.2133	0.6638	15.6859	0.6488	-0.0235	0.7606	0.0129
1.56	-9.4937	-0.1018	-1.5111	-0.0186	-0.0088	-0.0058	21.1161	0.5023	15.8663	0.6487	-0.0235	0.7605	0.0128
1.57	-9.4855	-0.1011	-1.5192	-0.0200	-0.0028	-0.0069	21.0314	0.6763	15.9035	0.6488	-0.0235	0.7605	0.0128
1.58	-9.4902	-0.1016	-1.5139	-0.0216	-0.0047	-0.0045	21.0458	0.5274	15.6715	0.6487	-0.0235	0.7605	0.0128
1.59	-9.5084	-0.1031	-1.5179	-0.0179	-0.0041	-0.0046	20.7587	0.4953	15.7330	0.6487	-0.0235	0.7605	0.0128
1.6	-9.4993	-0.1007	-1.5109	-0.0220	-0.0082	-0.0065	20.9980	0.5723	15.8114	0.6488	-0.0235	0.7605	0.0128
1.61	-9.4933	-0.0976	-1.5232	-0.0151	-0.0038	-0.0030	20.9041	0.6247	15.7700	0.6487	-0.0234	0.7605	0.0128
1.62	-9.4971	-0.0990	-1.5290	-0.0208	-0.0058	-0.0040	20.7565	0.6527	15.7924	0.6488	-0.0235	0.7606	0.0128
1.63	-9.4908	-0.1003	-1.5200	-0.0185	-0.0044	-0.0060	20.7788	0.6266	15.9156	0.6488	-0.0235	0.7605	0.0128
1.64	-9.5064	-0.0971	-1.5271	-0.0195	-0.0077	-0.0032	20.9661	0.6539	15.7735	0.6488	-0.0235	0.7606	0.0128
1.65	-9.5043	-0.0924	-1.5278	-0.0212	-0.0047	-0.0031	20.6706	0.6277	15.8844	0.6487	-0.0235	0.7605	0.0129
1.66	-9.5012	-0.0972	-1.5251	-0.0206	-0.0026	-0.0084	20.8875	0.5441	15.7293	0.6488	-0.0235	0.7605	0.0129
1.67	-9.4926	-0.0881	-1.5289	-0.0228	-0.0040	-0.0069	21.0263	0.5683	15.9174	0.6488	-0.0235	0.7605	0.0129
1.68	-9.5028	-0.0858	-1.5348	-0.0223	-0.0033	-0.0077	21.0840	0.5532	15.9285	0.6487	-0.0235	0.7605	0.0129
1.69	-9.5097	-0.0897	-1.5378	-0.0219	-0.0048	-0.0104	20.8267	0.6558	15.8195	0.6488	-0.0236	0.7606	0.0129
1.7	-9.4968	-0.0852	-1.5362	-0.0225	-0.0062	-0.0045	20.7189	0.6234	15.8068	0.6488	-0.0236	0.7605	0.0129
1.71	-9.4919	-0.0808	-1.5395	-0.0222	0.0009	-0.0073	20.6927	0.4505	15.9446	0.6488	-0.0236	0.7606	0.0129
1.72	-9.5006	-0.0852	-1.5386	-0.0176	-0.0039	-0.0041	20.9650	0.5720	15.9888	0.6487	-0.0236	0.7605	0.0129
1.73	-9.5000	-0.1114	-1.5430	-0.0160	-0.0095	-0.0030	21.2695	0.6520	16.0264	0.6488	-0.0236	0.7605	0.0129
1.74	-9.5084	-0.1132	-1.5554	-0.0161	-0.0051	-0.0044	21.1517	0.5133	15.9796	0.6488	-0.0236	0.7605	0.0129
1.75	-9.4886	-0.0981	-1.5216	-0.0221	-0.0080	-0.0060	21.0105	0.4883	15.8721	0.6488	-0.0236	0.7605	0.0129
1.76	-9.5146	-0.1172	-1.5468	-0.0169	-0.0058	-0.0066	20.6909	0.4411	15.7808	0.6488	-0.0236	0.7605	0.0129
1.77	-9.4904	-0.0880	-1.5378	-0.0178	-0.0075	-0.0041	20.8935	0.4078	15.6840	0.6488	-0.0236	0.7605	0.0129
1.78	-9.4967	-0.1147	-1.5206	-0.0238	-0.0090	-0.0016	21.0190	0.4783	15.7155	0.6489	-0.0236	0.7605	0.0129
1.79	-9.5307	-0.0852	-1.5573	-0.0158	-0.0090	-0.0032	20.8593	0.6051	15.6800	0.6488	-0.0236	0.7604	0.0129
1.8	-9.4746	-0.0973	-1.4994	-0.0208	-0.0098	-0.0075	20.9229	0.5907	15.4170	0.6489	-0.0236	0.7605	0.0129
1.81	-9.5233	-0.1116	-1.5325	-0.0226	-0.0124	-0.0048	20.9932	0.4400	15.5345	0.6489	-0.0236	0.7604	0.0129
1.82	-9.5048	-0.1136	-1.5217	-0.0224	-0.0121	-0.0039	20.9285	0.4708	15.6431	0.6489	-0.0236	0.7604	0.0129
1.83	-9.4827	-0.1332	-1.5137	-0.0221	-0.0048	-0.0068	20.6850	0.6292	15.7351	0.6489	-0.0236	0.7603	0.0129
1.84	-9.5106	-0.1157	-1.5377	-0.0217	-0.0012	-0.0035	20.6564	0.5375	15.7540	0.6489	-0.0236	0.7604	0.0129
1.85	-9.4871	-0.1303	-1.5065	-0.0223	-0.0058	-0.0051	20.5998	0.7077	15.8575	0.6489	-0.0236	0.7604	0.0130
1.86	-9.5011	-0.1258	-1.5157	-0.0237	-0.0011	-0.0036	20.8246	0.7832	15.7172	0.6489	-0.0237	0.7603	0.0130
1.87	-9.4972	-0.1136	-1.5017	-0.0223	-0.0062	-0.0058	20.7717	0.6436	15.7399	0.6490	-0.0237	0.7604	0.0130
1.88	-9.4978	-0.1039	-1.5064	-0.0224	-0.0018	-0.0010	20.6265	0.8281	15.7202	0.6489	-0.0237	0.7604	0.0130
1.89	-9.5153	-0.0801	-1.5204	-0.0226	-0.0027	-0.0069	20.8263	0.8444	15.7348	0.6490	-0.0237	0.7604	0.0130
1.9	-9.4916	-0.0691	-1.5076	-0.0220	-0.0033	-0.0031	20.8029	0.7624	15.7269	0.6489	-0.0237	0.7603	0.0131
1.91	-9.5102	-0.0682	-1.5211	-0.0228	-0.0111	-0.0031	20.7926	0.7299	15.6227	0.6489	-0.0237	0.7604	0.0131
1.92	-9.4975	-0.0500	-1.5243	-0.0211	-0.0041	-0.0098	20.7066	0.4729	15.6627	0.6489	-0.0238	0.7604	0.0131
1.93	-9.4796	-0.0666	-1.5096	-0.0212	0.0009	-0.0043	21.0627	0.6074	15.6406	0.6489	-0.0237	0.7603	0.0131
1.94	-9.5181	-0.0927	-1.5405	-0.0225	-0.0060	-0.0035	21.0549	0.5843	15.6707	0.6490	-0.0237	0.7604	0.0131
1.95	-9.5094	-0.1119	-1.5261	-0.0224	-0.0050	-0.0030	20.7816	0.4909	15.6239	0.6489	-0.0237	0.7604	0.0131
1.96	-9.5002	-0.1239	-1.5186	-0.0219	-0.0069	-0.0079	20.9168	0.7454	15.7228	0.6490	-0.0238	0.7604	0.0131
1.97	-9.5050	-0.1191	-1.5244	-0.0183	-0.0029	-0.0053	21.0847	0.7777	15.7406	0.6489	-0.0237	0.7603	0.0131
1.98	-9.4995	-0.1275	-1.5250	-0.0201	-0.0072	-0.0083	20.8093	0.7356	15.6269	0.6489	-0.0238	0.7604	0.0131
1.99	-9.4904	-0.1183	-1.5119	-0.0215	-0.0030	-0.0074	20.8407	0.4642	15.8153	0.6489	-0.0238	0.7604	0.0131
2	-9.5076	-0.1258	-1.5200	-0.0212	-0.0102	0.0001	20.9705	0.3942	15.5632	0.6489	-0.0238	0.7603	0.0131
2.01	-9.4925	-0.1273	-1.5185	-0.0211	-0.0078	-0.0003	20.9943	0.5521	15.5729	0.6490	-0.0238	0.7604	0.0131
2.02	-9.5004	-0.1215	-1.5155	-0.0162	-0.0047	-0.0063	20.6753	0.7019	15.5420	0.6490	-0.0238	0.7603	0.0131
2.03	-9.5090	-0.1157	-1.5312	-0.0214	-0.0033	-0.0058	20.5308	0.6528	15.8142	0.6490	-0.0238	0.7604	0.0131
2.04	-9.5060	-0.0915	-1.5368	-0.0232	-0.0072	-0.0025	20.9372	0.6900	15.7351	0.6489	-0.0238	0.7603	0.0131
2.05	-9.4965	-0.0891	-1.5304	-0.0218	-0.0047	-0.0050	20.8424	0.5607	15.7505	0.6490	-0.0238	0.7604	0.0132
2.06	-9.5104	-0.0878	-1.5362	-0.0227	-0.0060	-0.0054	20.8277	0.7858	15.6868	0.6490	-0.0238	0.7603	0.0132
2.07	-9.4944	-0.0862	-1.5350	-0.0227	-0.0021	-0.0023	20.9329	0.8871	15.9009	0.6490	-0.0238	0.7603	0.0132
2.08	-9.5005	-0.0992	-1.5308	-0.0218	-0.0015	-0.0083	20.6743	0.6367	15.8123	0.6489	-0.0238	0.7603	0.0132
2.09	-9.5194	-0.1147	-1.5441	-0.0231	-0.0048	-0.0086	20.8921	0.4699	15.7243	0.6489	-0.0239	0.7603	0.0132
2.1	-9.4987	-0.1071	-1.5208	-0.0202	-0.0095	-0.0042	20.8283	0.7367	15.5248	0.6490	-0.0239	0.7603	0.0132
2.11	-9.4961	-0.0911	-1.5341	-0.0218	-0.0081	-0.0112	20.8538	0.4296	15.7566	0.6489	-0.0239	0.7603	0.0132
2.12	-9.4959	-0.0859	-1.5428	-0.0220	-0.0069	-0.0100	21.1064	0.2401	15.7127	0.6490	-0.0239	0.7603	0.0132
2.13	-9.4958	-0.0886	-1.5205	-0.0230	-0.0104	-0.0079	20.8568	0.4052	15.7130	0.6490	-0.0239	0.7603	0.0132
2.14	-9.5136	-0.0873	-1.5390	-0.0216	-0.0066	-0.0048	21.0047	0.4908	15.8943	0.6491	-0.0240	0.7603	0.0132
2.15	-9.5045	-0.0892	-1.5411	-0.0218	-0.0038	-0.0019	21.1633	0.6017	15.7080	0.6490	-0.0239	0.7602	0.0132
2.16	-9.5055	-0.0905	-1.5324	-0.0202	-0.0090	-0.0077	20.8720	0.7205	15.8615	0.6490	-0.0240	0.7603	0.0132
2.17	-9.5072	-0.0909	-1.5273	-0.0228	-0.0110	-0.0031	20.7699	0.5711	15.7981	0.6491	-0.0240	0.7602	0.0133
2.18	-9.5072	-0.1003	-1.5310	-0.0222	-0.0094	-0.0029	20.8806	0.4157	15.8559	0.6490	-0.0240	0.7602	0.0133
2.19	-9.5033	-0.1022	-1.5276	-0.0193	-0.0105	-0.0012	20.9894	0.4214	15.7111	0.6492	-0.0239	0.7603	0.0133
2.2	-9.4966	-0.1191	-1.5286	-0.0168	-0.0087	-0.0005	20.6888	0.4642	15.6456	0.6491	-0.0239	0.7602	0.0133
2.21	-9.5012	-0.1161	-1.5348	-0.0222	-0.0088	-0.0042	20.6469	0.7386	15.8439	0.6492	-0.0239	0.7602	0.0133
2.22	-9.4866	-0.1055	-1.5269	-0.0224	-0.0021	-0.0110	20.9901	0.8524	15.7697	0.6491	-0.0240	0.7601	0.0133
2.23	-9.4954	-0.1111	-1.5164	-0.0219	-0.0032	-0.0109	21.1482	0.8328	16.1287	0.6491	-0.0240	0.7602	0.0133
2.24	-9.5121	-0.1418	-1.5312	-0.0226	-0.0054	-0.0073	21.0833	0.7180	16.0841	0.6491	-0.0240	0.7602	0.0133
2.25	-9.4822	-0.1500	-1.4971	-0.0217	-0.0102	-0.0067	21.0226	0.7856	15.6275	0.6491	-0.0240	0.7601	0.0133
2.26	-9.5237	-0.1555	-1.5165	-0.0204	-0.0099	-0.0029	20.9074	0.7300	15.6812	0.6492	-0.0240	0.7602	0.0133
2.27	-9.4991	-0.1359	-1.5076	-0.0226	-0.0085	-0.0016	20.8743	0.6172	15.8832	0.6492	-0.0240	0.7601	0.0133
2.28	-9.4867	-0.1208	-1.5041	-0.0209	-0.0083	-0.0034	20.8987	0.4587	15.8392	0.6492	-0.0240	0.7601	0.0134
2.29	-9.5078	-0.1026	-1.5185	-0.0176	-0.0074	-0.0032	20.8628	0.5799	15.7901	0.6492	-0.0240	0.7600	0.0134
2.3	-9.5068	-0.0926	-1.4911	-0.0219	-0.0097	-0.0031	21.1090	0.6221	15.7024	0.6493	-0.0240	0.7601	0.0134
2.31	-9.4984	-0.0920	-1.4954	-0.0204	-0.0102	-0.0039	21.1221	0.6032	15.7440	0.6492	-0.0240	0.7601	0.0133
2.32	-9.5043	-0.0995	-1.4944	-0.0219	-0.0131	-0.0056	21.1603	0.6151	15.6374	0.6493	-0.0239	0.7601	0.0133
2.33	-9.5077	-0.1010	-1.4979	-0.0220	-0.0100	-0.0038	20.9404	0.4557	15.6372	0.6493	-0.0240	0.7600	0.0133
2.34	-9.5020	-0.1134	-1.4915	-0.0217	-0.0102	-0.0045	20.8935	0.4797	15.6106	0.6493	-0.0240	0.7600	0.0134
2.35	-9.5103	-0.1233	-1.4943	-0.0217	-0.0014	-0.0045	20.8447	0.7056	15.6895	0.6493	-0.0240	0.7600	0.0134
2.36	-9.5085	-0.1200	-1.4990	-0.0216	-0.0086	0.0012	20.7769	0.6639	15.7124	0.6493	-0.0240	0.7599	0.0134
2.37	-9.4904	-0.1067	-1.5005	-0.0229	-0.0071	-0.0056	20.9267	0.5391	15.7302	0.6494	-0.0240	0.7600	0.0134
2.38	-9.5080	-0.0898	-1.5120	-0.0230	-0.0052	-0.0034	20.9824	0.7013	15.8228	0.6493	-0.0240	0.7600	0.0134
2.39	-9.5139	-0.0762	-1.5278	-0.0228	-0.0066	-0.0050	20.9196	0.5566	15.8004	0.6494	-0.0240	0.7600	0.0135
2.4	-9.4932	-0.0572	-1.5104	-0.0227	-0.0017	-0.0061	20.7756	0.5612	15.7932	0.6493	-0.0240	0.7599	0.0135
2.41	-9.5097	-0.0640	-1.5356	-0.0222	-0.0032	-0.0028	20.8407	0.5575	15.8264	0.6493	-0.0240	0.7600	0.0135
2.42	-9.5056	-0.0572	-1.5393	-0.0225	-0.0051	-0.0048	20.8942	0.5648	15.9223	0.6494	-0.0240	0.7600	0.0135
2.43	-9.4881	-0.0571	-1.5425	-0.0226	-0.0001	-0.0035	20.8845	0.5497	15.8130	0.6493	-0.0241	0.7600	0.0135
2.44	-9.5052	-0.0632	-1.5568	-0.0217	0.0001	-0.0066	20.8807	0.6620	15.7721	0.6494	-0.0241	0.7601	0.0136
2.45	-9.5025	-0.0776	-1.5677	-0.0215	-0.0015	-0.0079	20.7776	0.7550	15.8606	0.6493	-0.0241	0.7600	0.0136
2.46	-9.4923	-0.0830	-1.5530	-0.0218	-0.0048	-0.0114	20.8270	0.6637	15.8385	0.6493	-0.0241	0.7601	0.0136
2.47	-9.4918	-0.0951	-1.5639	-0.0217	-0.0028	-0.0064	20.7263	0.5510	15.7095	0.6492	-0.0242	0.7600	0.0136
2.48	-9.5041	-0.0994	-1.5600	-0.0217	-0.0054	-0.0071	20.6145	0.5524	15.6782	0.6493	-0.0242	0.7600	0.0136
2.49	-9.4928	-0.1022	-1.5524	-0.0218	-0.0115	-0.0027	20.8800	0.5701	15.6501	0.6493	-0.0242	0.7600	0.0136
2.5	-9.5094	-0.1033	-1.5576	-0.0191	-0.0061	-0.0033	21.0791	0.5450	15.7643	0.6493	-0.0242	0.7600	0.0136
2.51	-9.5053	-0.0944	-1.5563	-0.0189	-0.0042	-0.0029	21.0297	0.6789	15.5885	0.6493	-0.0241	0.7600	0.0136
2.52	-9.4935	-0.1010	-1.5499	-0.0203	-0.0040	-0.0085	21.0704	0.6055	15.8009	0.6493	-0.0241	0.7600	0.0135
2.53	-9.4903	-0.0904	-1.5423	-0.0197	-0.0074	-0.0052	20.7979	0.7475	15.7581	0.6494	-0.0241	0.7600	0.0135
2.54	-9.4935	-0.0836	-1.5322	-0.0155	-0.0066	-0.0019	20.9015	0.5494	15.5945	0.6493	-0.0241	0.7599	0.0135
2.55	-9.5083	-0.0943	-1.5335	-0.0174	-0.0043	-0.0042	20.8593	0.5890	15.7685	0.6494	-0.0241	0.7600	0.0135
2.56	-9.5001	-0.0915	-1.5287	-0.0184	-0.0004	-0.0045	20.8230	0.7648	15.7879	0.6493	-0.0241	0.7600	0.0136
2.57	-9.5010	-0.1097	-1.5267	-0.0164	-0.0084	-0.0044	20.9185	0.4924	15.8690	0.6494	-0.0241	0.7600	0.0135
2.58	-9.5007	-0.1190	-1.5199	-0.0192	-0.0074	-0.0015	20.8548	0.7147	15.9932	0.6493	-0.0241	0.7600	0.0136
2.59	-9.4894	-0.1232	-1.5109	-0.0231	-0.0015	-0.0069	20.9104	0.5378	15.8402	0.6494	-0.0241	0.7600	0.0136
2.6	-9.4943	-0.1449	-1.5135	-0.0200	-0.0041	-0.0041	20.8442	0.5225	15.5802	0.6494	-0.0241	0.7600	0.0136
2.61	-9.5013	-0.1570	-1.5197	-0.0203	-0.0063	-0.0086	20.7142	0.5569	15.8100	0.6493	-0.0241	0.7599	0.0136
2.62	-9.4958	-0.1451	-1.5125	-0.0233	-0.0062	-0.0052	20.8177	0.5899	15.8811	0.6494	-0.0242	0.7600	0.0136
2.63	-9.4985	-0.1475	-1.5001	-0.0194	-0.0057	-0.0024	20.9377	0.8906	15.6435	0.6494	-0.0241	0.7600	0.0136
2.64	-9.5092	-0.1609	-1.5016	-0.0219	-0.0038	-0.0053	20.7830	0.7223	15.7607	0.6494	-0.0242	0.7600	0.0136
2.65	-9.5107	-0.1281	-1.4998	-0.0204	-0.0067	-0.0021	20.9222	0.6454	15.5763	0.6493	-0.0242	0.7599	0.0136
2.66	-9.4910	-0.0981	-1.4882	-0.0211	-0.0074	-0.0051	20.9298	0.4295	15.9298	0.6494	-0.0242	0.7600	0.0137
2.67	-9.5008	-0.0892	-1.4809	-0.0222	-0.0103	-0.0047	20.7704	0.5242	15.7528	0.6494	-0.0242	0.7599	0.0137
2.68	-9.5115	-0.0943	-1.4949	-0.0218	-0.0066	-0.0044	21.0975	0.6677	15.4611	0.6494	-0.0242	0.7599	0.0137
2.69	-9.5083	-0.1035	-1.5037	-0.0217	-0.0041	-0.0018	21.0176	0.5312	15.8137	0.6495	-0.0242	0.7600	0.0137
2.7	-9.4859	-0.1233	-1.4991	-0.0226	-0.0103	-0.0037	20.8368	0.6161	15.7342	0.6494	-0.0242	0.7599	0.0137
2.71	-9.4949	-0.1190	-1.5059	-0.0222	-0.0071	-0.0073	20.9680	0.6058	15.7691	0.6495	-0.0242	0.7599	0.0137
2.72	-9.5030	-0.1184	-1.5097	-0.0223	-0.0097	-0.0071	20.9511	0.5292	15.8903	0.6494	-0.0242	0.7598	0.0137
2.73	-9.5008	-0.1253	-1.5091	-0.0208	-0.0053	-0.0028	21.1859	0.6043	15.9342	0.6495	-0.0242	0.7599	0.0138
2.74	-9.5018	-0.1024	-1.5028	-0.0180	-0.0111	-0.0032	21.1910	0.4960	15.9460	0.6495	-0.0242	0.7599	0.0138
2.75	-9.5116	-0.0902	-1.5170	-0.0194	-0.0018	-0.0028	21.1836	0.4052	15.6654	0.6495	-0.0242	0.7598	0.0137
2.76	-9.5060	-0.1085	-1.5273	-0.0131	-0.0072	-0.0010	20.9162	0.4454	15.7415	0.6495	-0.0241	0.7599	0.0137
2.77	-9.5068	-0.0887	-1.5257	-0.0198	-0.0085	-0.0047	20.7526	0.6777	15.5815	0.6495	-0.0241	0.7598	0.0137
2.78	-9.4972	-0.0818	-1.5328	-0.0229	-0.0042	-0.0077	20.6644	0.7776	15.5802	0.6495	-0.0242	0.7599	0.0138
2.79	-9.4983	-0.0863	-1.5316	-0.0217	-0.0012	-0.0024	20.6234	0.7289	15.8395	0.6494	-0.0242	0.7598	0.0138
2.8	-9.4926	-0.0702	-1.5423	-0.0178	-0.0031	-0.0059	20.5443	0.7605	15.7018	0.6495	-0.0242	0.7599	0.0138
2.81	-9.4939	-0.0537	-1.5272	-0.0195	-0.0037	-0.0056	20.7258	0.7234	15.5997	0.6495	-0.0242	0.7599	0.0138
2.82	-9.5139	-0.0650	-1.5336	-0.0220	-0.0015	-0.0019	20.6532	0.5625	15.7503	0.6495	-0.0242	0.7599	0.0138
2.83	-9.4967	-0.0839	-1.5291	-0.0214	-0.0042	-0.0067	20.6254	0.6897	15.7096	0.6495	-0.0242	0.7599	0.0138
2.84	-9.5056	-0.0842	-1.5325	-0.0206	-0.0004	-0.0082	20.7651	0.5157	15.5464	0.6495	-0.0242	0.7599	0.0138
2.85	-9.5028	-0.0944	-1.5323	-0.0173	-0.0115	-0.0027	20.8495	0.5511	15.7156	0.6495	-0.0242	0.7599	0.0138
2.86	-9.5044	-0.0966	-1.5241	-0.0193	-0.0080	-0.0048	20.9601	0.6102	15.5317	0.6494	-0.0242	0.7598	0.0138
2.87	-9.5091	-0.0893	-1.5363	-0.0159	-0.0055	-0.0049	21.0665	0.5808	15.6976	0.6495	-0.0242	0.7599	0.0138
2.88	-9.5033	-0.0831	-1.5294	-0.0234	-0.0031	-0.0073	20.8672	0.4594	15.7589	0.6495	-0.0242	0.7598	0.0138
2.89	-9.5039	-0.0880	-1.5376	-0.0199	-0.0056	-0.0072	20.9533	0.6084	15.7232	0.6496	-0.0242	0.7599	0.0138
2.9	-9.5016	-0.0975	-1.5333	-0.0212	-0.0074	-0.0076	20.9464	0.4813	15.8474	0.6495	-0.0243	0.7598	0.0138
2.91	-9.4930	-0.0899	-1.5317	-0.0177	-0.0087	-0.0040	20.9932	0.5529	15.6992	0.6495	-0.0242	0.7598	0.0138
2.92	-9.5017	-0.1032	-1.5289	-0.0185	-0.0069	-0.0054	21.0226	0.5638	15.8203	0.6495	-0.0242	0.7598	0.0138
2.93	-9.4904	-0.1194	-1.5276	-0.0226	-0.0055	-0.0058	20.8581	0.4223	15.7788	0.6495	-0.0242	0.7598	0.0138
2.94	-9.4912	-0.1198	-1.5147	-0.0214	-0.0029	-0.0034	20.8893	0.3946	15.6114	0.6496	-0.0243	0.7599	0.0138
2.95	-9.4917	-0.1278	-1.5000	-0.0217	-0.0048	-0.0022	20.8865	0.5102	15.7213	0.6495	-0.0243	0.7598	0.0138
2.96	-9.5031	-0.1301	-1.5100	-0.0227	-0.0059	-0.0075	20.8335	0.8072	15.6975	0.6496	-0.0243	0.7599	0.0139
2.97	-9.5070	-0.1287	-1.5085	-0.0216	-0.0045	-0.0037	20.7101	0.6410	15.5176	0.6495	-0.0243	0.7598	0.0139
2.98	-9.5049	-0.1179	-1.5030	-0.0230	-0.0035	-0.0053	20.6164	0.6775	15.8208	0.6495	-0.0243	0.7598	0.0139
2.99	-9.5041	-0.1234	-1.5103	-0.0228	-0.0019	-0.0035	20.8150	0.6599	15.7746	0.6495	-0.0243	0.7598	0.0139
3	-9.4974	-0.1401	-1.5141	-0.0228	-0.0011	-0.0088	20.7198	0.6748	15.7129	0.6495	-0.0243	0.7598	0.0139
3.01	-9.4937	-0.1464	-1.5123	-0.0209	-0.0051	-0.0040	20.6450	0.6557	15.7509	0.6495	-0.0243	0.7599	0.0139
3.02	-9.4987	-0.1508	-1.5286	-0.0221	-0.0025	-0.0027	20.7148	0.6834	15.7070	0.6495	-0.0244	0.7598	0.0139
3.03	-9.4960	-0.1498	-1.5224	-0.0217	-0.0041	-0.0035	20.7854	0.6135	15.5940	0.6495	-0.0244	0.7599	0.0140
3.04	-9.4993	-0.1394	-1.5155	-0.0225	-0.0093	-0.0028	20.7906	0.5626	15.8537	0.6495	-0.0244	0.7598	0.0140
3.05	-9.5064	-0.1292	-1.5198	-0.0213	-0.0109	-0.0043	20.7324	0.6128	15.6923	0.6496	-0.0244	0.7598	0.0140
3.06	-9.4917	-0.1216	-1.5243	-0.0184	-0.0082	-0.0005	20.9401	0.5349	15.6501	0.6495	-0.0244	0.7598	0.0140
3.07	-9.4976	-0.1042	-1.5322	-0.0182	-0.0008	-0.0062	20.8042	0.4955	15.6387	0.6496	-0.0244	0.7598	0.0140
3.08	-9.5002	-0.0853	-1.5282	-0.0220	-0.0045	-0.0083	20.7707	0.5049	15.7629	0.6495	-0.0244	0.7598	0.0140
3.09	-9.4955	-0.0878	-1.5299	-0.0219	-0.0041	-0.0017	20.9723	0.3986	15.8314	0.6495	-0.0244	0.7598	0.0140
3.1	-9.4972	-0.0934	-1.5507	-0.0213	-0.0076	-0.0053	20.8384	0.4403	15.6914	0.6496	-0.0244	0.7598	0.0140
3.11	-9.4869	-0.0949	-1.5361	-0.0225	-0.0069	-0.0077	20.8367	0.3924	15.8591	0.6495	-0.0244	0.7597	0.0141
3.12	-9.5106	-0.0937	-1.5374	-0.0182	-0.0057	-0.0109	21.1732	0.6538	15.7095	0.6496	-0.0244	0.7598	0.0140
3.13	-9.5073	-0.1034	-1.5305	-0.0182	-0.0028	-0.0067	20.9727	0.6524	15.6345	0.6495	-0.0244	0.7598	0.0140
3.14	-9.5106	-0.1115	-1.5272	-0.0184	-0.0095	-0.0004	20.9060	0.5319	15.6710	0.6496	-0.0244	0.7598	0.0140
3.15	-9.5056	-0.1129	-1.5089	-0.0121	-0.0051	-0.0056	20.7955	0.7959	15.6205	0.6495	-0.0243	0.7597	0.0140
3.16	-9.5072	-0.1017	-1.5180	-0.0188	-0.0031	-0.0043	20.7728	0.7006	15.8039	0.6496	-0.0243	0.7598	0.0140
3.17	-9.4985	-0.1054	-1.5215	-0.0216	-0.0013	-0.0030	20.7002	0.6949	15.7776	0.6496	-0.0243	0.7598	0.0140
3.18	-9.4938	-0.0885	-1.5043	-0.0183	-0.0073	-0.0032	20.7156	0.7932	15.7030	0.6495	-0.0243	0.7597	0.0140
3.19	-9.5034	-0.0684	-1.5346	-0.0106	-0.0064	-0.0078	20.7334	0.6134	15.7620	0.6496	-0.0243	0.7598	0.0140
3.2	-9.5097	-0.0480	-1.5270	-0.0110	-0.0061	-0.0022	20.8055	0.7498	15.5591	0.6496	-0.0243	0.7598	0.0140
3.21	-9.4989	-0.0209	-1.5113	-0.0176	-0.0005	-0.0062	20.6268	0.8814	15.5982	0.6496	-0.0243	0.7598	0.0139
3.22	-9.5020	-0.0127	-1.4915	-0.0230	-0.0069	-0.0065	20.6902	0.7150	15.8158	0.6495	-0.0243	0.7597	0.0140
3.23	-9.5156	-0.0277	-1.5053	-0.0197	-0.0102	-0.0022	21.0666	0.7911	15.9720	0.6496	-0.0243	0.7598	0.0140
3.24	-9.5091	-0.0588	-1.5189	-0.0209	-0.0097	-0.0031	21.0735	0.6843	15.9642	0.6496	-0.0243	0.7597	0.0140
3.25	-9.4958	-0.0724	-1.5123	-0.0209	-0.0107	-0.0017	21.0395	0.5599	15.8316	0.6496	-0.0243	0.7597	0.0140
3.26	-9.5156	-0.1010	-1.5263	-0.0173	-0.0099	-0.0038	21.0382	0.5927	15.7425	0.6497	-0.0243	0.7597	0.0140
3.27	-9.5019	-0.1225	-1.5132	-0.0208	-0.0086	-0.0051	20.9256	0.4466	15.5844	0.6497	-0.0243	0.7597	0.0140
3.28	-9.5003	-0.1224	-1.5305	-0.0197	-0.0048	-0.0092	20.8724	0.7239	15.8718	0.6497	-0.0243	0.7597	0.0140
3.29	-9.5011	-0.1211	-1.5350	-0.0194	-0.0054	-0.0050	20.9780	0.7427	15.8795	0.6496	-0.0243	0.7596	0.0140
3.3	-9.5081	-0.1142	-1.5297	-0.0139	-0.0024	-0.0027	20.7707	0.6202	15.7747	0.6497	-0.0243	0.7597	0.0140
3.31	-9.5035	-0.1098	-1.5255	-0.0196	-0.0080	-0.0018	20.8479	0.8308	15.7842	0.6497	-0.0243	0.7597	0.0140
3.32	-9.4980	-0.1100	-1.5236	-0.0159	-0.0056	-0.0069	20.7137	0.6946	15.8005	0.6497	-0.0243	0.7597	0.0140
3.33	-9.5020	-0.1069	-1.5292	-0.0223	-0.0052	-0.0078	20.8390	0.5136	15.6890	0.6497	-0.0243	0.7597	0.0140
3.34	-9.5040	-0.1066	-1.5261	-0.0200	0.0007	-0.0037	20.7752	0.6340	15.6048	0.6497	-0.0243	0.7597	0.0140
3.35	-9.5098	-0.1095	-1.5219	-0.0226	-0.0052	-0.0097	20.9208	0.7791	15.9902	0.6497	-0.0244	0.7597	0.0140
3.36	-9.4955	-0.1115	-1.5153	-0.0181	-0.0013	-0.0107	20.9909	0.6385	15.8628	0.6496	-0.0244	0.7596	0.0140
3.37	-9.5072	-0.1096	-1.5290	-0.0195	-0.0018	-0.0059	20.8739	0.6516	15.9080	0.6497	-0.0244	0.7598	0.0140
3.38	-9.5033	-0.1223	-1.5207	-0.0222	-0.0015	-0.0043	20.6022	0.6445	15.8010	0.6496	-0.0244	0.7597	0.0140
3.39	-9.4898	-0.1210	-1.5190	-0.0217	-0.0005	-0.0075	20.8450	0.6356	15.8561	0.6497	-0.0244	0.7598	0.0140
3.4	-9.5029	-0.1364	-1.5213	-0.0212	-0.0028	-0.0063	20.9853	0.7417	15.8762	0.6496	-0.0244	0.7597	0.0140
3.41	-9.5042	-0.1357	-1.5134	-0.0184	-0.0083	-0.0048	20.8786	0.7256	15.9050	0.6496	-0.0244	0.7597	0.0141
3.42	-9.4979	-0.1422	-1.5077	-0.0197	-0.0071	-0.0044	21.0034	0.7472	15.9564	0.6496	-0.0245	0.7597	0.0141
3.43	-9.5031	-0.1501	-1.5250	-0.0136	-0.0024	-0.0021	20.9515	0.6668	15.7558	0.6496	-0.0244	0.7597	0.0141
3.44	-9.5005	-0.1487	-1.5195	-0.0197	-0.0057	-0.0078	20.9774	0.5425	15.9146	0.6497	-0.0244	0.7598	0.0141
3.45	-9.4985	-0.1376	-1.5131	-0.0207	-0.0054	-0.0052	21.1046	0.5966	15.8580	0.6496	-0.0244	0.7597	0.0140
3.46	-9.5089	-0.1234	-1.5309	-0.0218	-0.0057	-0.0013	21.1190	0.5090	15.7094	0.6497	-0.0244	0.7598	0.0140
3.47	-9.5000	-0.1194	-1.5192	-0.0213	-0.0030	-0.0051	20.8624	0.4520	15.7141	0.6496	-0.0244	0.7597	0.0141
3.48	-9.4998	-0.1201	-1.5184	-0.0177	-0.0066	-0.0044	20.8099	0.8385	15.7858	0.6497	-0.0244	0.7597	0.0141
3.49	-9.5081	-0.1224	-1.5359	-0.0225	-0.0037	-0.0018	20.8008	0.8920	15.6461	0.6496	-0.0244	0.7597	0.0141
3.5	-9.5088	-0.1279	-1.5309	-0.0169	-0.0097	-0.0050	20.8712	0.6615	15.7953	0.6496	-0.0244	0.7597	0.0141
3.51	-9.4983	-0.1284	-1.5230	-0.0196	-0.0108	-0.0048	20.9974	0.4614	15.7958	0.6497	-0.0244	0.7597	0.0141
3.52	-9.5058	-0.1142	-1.5361	-0.0236	-0.0045	-0.0041	20.8239	0.3755	15.9343	0.6497	-0.0244	0.7597	0.0141
3.53	-9.4968	-0.1054	-1.5350	-0.0211	-0.0060	-0.0052	20.8082	0.4422	16.0006	0.6497	-0.0244	0.7597	0.0141
3.54	-9.4951	-0.0957	-1.5394	-0.0205	-0.0047	-0.0019	20.7924	0.6421	15.8669	0.6496	-0.0244	0.7596	0.0141
3.55	-9.5080	-0.0908	-1.5428	-0.0195	-0.0031	-0.0055	20.9322	0.7746	15.7777	0.6497	-0.0244	0.7597	0.0141
3.56	-9.5008	-0.0863	-1.5376	-0.0208	-0.0062	-0.0096	20.9736	0.8021	15.7846	0.6497	-0.0245	0.7597	0.0141
3.57	-9.4997	-0.0873	-1.5366	-0.0216	-0.0014	-0.0025	20.9824	0.3764	15.8204	0.6497	-0.0245	0.7597	0.0142
3.58	-9.4951	-0.0913	-1.5339	-0.0200	-0.0023	-0.0014	20.9534	0.5070	15.6779	0.6496	-0.0244	0.7597	0.0142
3.59	-9.5084	-0.0953	-1.5352	-0.0227	-0.0050	-0.0041	20.9024	0.5723	15.8756	0.6497	-0.0244	0.7597	0.0142
3.6	-9.5088	-0.0920	-1.5252	-0.0226	-0.0112	-0.0032	20.8148	0.5961	15.8167	0.6497	-0.0245	0.7597	0.0142
3.61	-9.5083	-0.0919	-1.5243	-0.0218	-0.0091	-0.0044	20.8915	0.7557	15.7869	0.6497	-0.0245	0.7596	0.0142
3.62	-9.5001	-0.0867	-1.5185	-0.0154	-0.0035	-0.0045	20.8681	0.6212	15.7671	0.6497	-0.0245	0.7597	0.0142
3.63	-9.5068	-0.0672	-1.5324	-0.0157	-0.0041	-0.0054	20.8363	0.6719	15.8598	0.6497	-0.0244	0.7597	0.0142
3.64	-9.5036	-0.0573	-1.5344	-0.0197	-0.0039	-0.0017	21.1132	0.5883	15.8176	0.6497	-0.0244	0.7597	0.0142
3.65	-9.5020	-0.0515	-1.5348	-0.0210	-0.0038	-0.0047	20.8572	0.5471	15.7957	0.6497	-0.0244	0.7596	0.0142
3.66	-9.4990	-0.0377	-1.5376	-0.0219	-0.0047	-0.0049	20.9061	0.5950	15.8728	0.6497	-0.0244	0.7597	0.0142
3.67	-9.4948	-0.0297	-1.5293	-0.0218	-0.0035	-0.0022	20.8654	0.6770	15.9595	0.6497	-0.0244	0.7597	0.0142
3.68	-9.5071	-0.0417	-1.5342	-0.0217	-0.0021	-0.0039	20.9699	0.5737	15.8264	0.6496	-0.0244	0.7596	0.0143
3.69	-9.5079	-0.0568	-1.5251	-0.0227	-0.0093	-0.0080	20.8968	0.5506	15.6824	0.6497	-0.0245	0.7597	0.0143
3.7	-9.5036	-0.0750	-1.5300	-0.0220	-0.0089	-0.0125	20.8679	0.6046	15.8297	0.6497	-0.0245	0.7596	0.0143
3.71	-9.5069	-0.1007	-1.5396	-0.0219	-0.0023	-0.0101	20.7603	0.6680	15.5513	0.6497	-0.0245	0.7597	0.0143
3.72	-9.5004	-0.1144	-1.5232	-0.0219	-0.0000	-0.0082	21.0654	0.6333	15.8215	0.6496	-0.0246	0.7596	0.0143
3.73	-9.5005	-0.1368	-1.5309	-0.0215	-0.0058	-0.0061	21.1489	0.7812	15.9886	0.6497	-0.0246	0.7597	0.0143
3.74	-9.4988	-0.1449	-1.5251	-0.0197	-0.0043	-0.0040	20.9339	0.6701	15.9753	0.6497	-0.0246	0.7597	0.0143
3.75	-9.4909	-0.1208	-1.5309	-0.0223	-0.0011	-0.0066	20.7650	0.6945	15.9315	0.6497	-0.0246	0.7597	0.0143
3.76	-9.4923	-0.1209	-1.5204	-0.0200	0.0006	-0.0018	20.6842	0.7612	15.5441	0.6497	-0.0246	0.7597	0.0143
3.77	-9.5014	-0.1226	-1.5333	-0.0218	-0.0033	-0.0072	20.6816	0.7420	15.6242	0.6496	-0.0246	0.7597	0.0143
3.78	-9.5071	-0.1189	-1.5367	-0.0204	-0.0057	-0.0055	20.7715	0.6902	15.8629	0.6497	-0.0246	0.7597	0.0143
3.79	-9.5020	-0.1223	-1.5143	-0.0171	-0.0054	-0.0044	20.6476	0.5770	15.7412	0.6496	-0.0246	0.7596	0.0143
3.8	-9.5073	-0.1303	-1.5242	-0.0216	-0.0104	-0.0035	20.7470	0.4460	15.6468	0.6497	-0.0246	0.7597	0.0143
3.81	-9.5042	-0.1273	-1.5242	-0.0190	-0.0095	-0.0017	21.0754	0.4442	15.6821	0.6497	-0.0246	0.7597	0.0143
3.82	-9.5025	-0.1331	-1.5243	-0.0174	-0.0117	-0.0006	21.1420	0.5299	15.6612	0.6497	-0.0245	0.7597	0.0143
3.83	-9.4996	-0.1209	-1.5305	-0.0213	-0.0044	-0.0077	20.7618	0.4700	15.6765	0.6497	-0.0246	0.7596	0.0143
3.84	-9.4890	-0.1228	-1.5277	-0.0180	-0.0037	-0.0050	20.8586	0.6335	15.6417	0.6497	-0.0246	0.7596	0.0143
3.85	-9.5027	-0.1204	-1.5345	-0.0216	-0.0041	-0.0019	20.9510	0.4861	15.9190	0.6497	-0.0246	0.7597	0.0143
3.86	-9.4972	-0.1020	-1.5198	-0.0222	-0.0089	-0.0042	21.0020	0.5797	15.8725	0.6497	-0.0246	0.7596	0.0144
3.87	-9.4926	-0.0867	-1.5183	-0.0215	-0.0045	-0.0034	20.8641	0.5752	15.5133	0.6498	-0.0246	0.7597	0.0144
3.88	-9.4992	-0.0867	-1.5248	-0.0220	-0.0098	-0.0030	20.6925	0.3111	15.6241	0.6497	-0.0246	0.7596	0.0144
3.89	-9.4970	-0.0678	-1.5267	-0.0201	-0.0086	-0.0029	20.8232	0.6176	15.7479	0.6498	-0.0246	0.7597	0.0144
3.9	-9.5012	-0.0706	-1.5311	-0.0195	-0.0004	-0.0078	20.8138	0.8489	15.7393	0.6497	-0.0246	0.7596	0.0144
3.91	-9.5074	-0.0894	-1.5360	-0.0209	-0.0037	-0.0089	20.8249	0.7073	15.6438	0.6497	-0.0246	0.7596	0.0144
3.92	-9.5028	-0.1005	-1.5337	-0.0183	-0.0061	-0.0047	20.6395	0.5906	15.8352	0.6497	-0.0246	0.7596	0.0144
3.93	-9.4906	-0.1189	-1.5443	-0.0175	0.0013	-0.0080	20.7337	0.5598	15.8317	0.6497	-0.0246	0.7596	0.0144
3.94	-9.5046	-0.1186	-1.5489	-0.0235	-0.0034	-0.0067	20.8155	0.6707	15.8456	0.6498	-0.0246	0.7597	0.0144
3.95	-9.4925	-0.1249	-1.5361	-0.0209	-0.0002	-0.0066	20.7334	0.7892	15.5225	0.6497	-0.0247	0.7596	0.0144
3.96	-9.4972	-0.1014	-1.5284	-0.0175	-0.0005	-0.0023	20.9292	0.6383	15.5035	0.6497	-0.0247	0.7597	0.0144
3.97	-9.5047	-0.0949	-1.5476	-0.0148	-0.0017	-0.0085	20.8179	0.7792	15.7778	0.6496	-0.0246	0.7596	0.0144
3.98	-9.4977	-0.0894	-1.5259	-0.0156	-0.0055	-0.0110	20.6948	0.5612	15.8322	0.6497	-0.0247	0.7597	0.0144
3.99	-9.5004	-0.0803	-1.5161	-0.0128	-0.0077	-0.0073	20.9864	0.3879	15.7050	0.6497	-0.0246	0.7597	0.0143
4	-9.5056	-0.0841	-1.5213	-0.0152	-0.0046	-0.0031	21.1106	0.6299	15.8628	0.6497	-0.0246	0.7597	0.0143
4.01	-9.5075	-0.0845	-1.5235	-0.0151	-0.0043	-0.0022	20.8463	0.4566	15.8137	0.6497	-0.0246	0.7597	0.0143
4.02	-9.5084	-0.0880	-1.5321	-0.0200	-0.0027	-0.0054	21.0605	0.6567	15.7635	0.6497	-0.0246	0.7597	0.0143
4.03	-9.5034	-0.0953	-1.5345	-0.0219	-0.0035	-0.0064	20.8260	0.6261	15.6766	0.6497	-0.0246	0.7597	0.0143
4.04	-9.4997	-0.0867	-1.5288	-0.0216	-0.0043	-0.0081	20.8902	0.4673	15.6699	0.6496	-0.0246	0.7596	0.0143
4.05	-9.4985	-0.0829	-1.5280	-0.0220	-0.0078	-0.0071	21.0016	0.4335	15.7434	0.6497	-0.0247	0.7597	0.0143
4.06	-9.4981	-0.0860	-1.5238	-0.0218	-0.0047	-0.0057	20.8244	0.4993	15.8356	0.6497	-0.0247	0.7597	0.0144
4.07	-9.5026	-0.0843	-1.5193	-0.0224	-0.0083	-0.0089	20.8074	0.5451	15.7014	0.6497	-0.0247	0.7597	0.0144
4.08	-9.5002	-0.0943	-1.5222	-0.0233	-0.0097	-0.0031	20.9189	0.6818	15.6416	0.6497	-0.0247	0.7596	0.0144
4.09	-9.4937	-0.0885	-1.5293	-0.0230	-0.0023	-0.0096	20.7616	0.6492	15.7812	0.6497	-0.0247	0.7596	0.0144
4.1	-9.4895	-0.0914	-1.5204	-0.0225	-0.0052	-0.0071	20.7377	0.6565	15.9327	0.6497	-0.0248	0.7597	0.0144
4.11	-9.5052	-0.0855	-1.5391	-0.0229	-0.0023	-0.0037	20.6632	0.6707	15.7618	0.6496	-0.0248	0.7596	0.0144
4.12	-9.5108	-0.0887	-1.5348	-0.0227	0.0018	-0.0067	20.6578	0.4422	15.6355	0.6497	-0.0248	0.7597	0.0144
4.13	-9.4973	-0.0850	-1.5472	-0.0233	-0.0044	-0.0099	20.5224	0.5542	15.8192	0.6497	-0.0248	0.7597	0.0144
4.14	-9.5052	-0.0926	-1.5412	-0.0209	-0.0005	-0.0073	20.7153	0.7669	15.8480	0.6497	-0.0249	0.7597	0.0144
4.15	-9.5046	-0.1022	-1.5351	-0.0214	-0.0043	-0.0058	20.7602	0.7079	15.7322	0.6496	-0.0249	0.7596	0.0144
4.16	-9.5014	-0.1167	-1.5286	-0.0218	-0.0034	-0.0052	20.5005	0.8918	15.6302	0.6496	-0.0249	0.7597	0.0145
4.17	-9.4974	-0.1377	-1.5285	-0.0231	-0.0082	-0.0072	20.7154	0.4890	15.6660	0.6497	-0.0249	0.7597	0.0145
4.18	-9.5068	-0.1572	-1.5425	-0.0201	-0.0089	-0.0034	21.0195	0.3673	15.6764	0.6496	-0.0249	0.7596	0.0145
4.19	-9.5011	-0.1607	-1.5266	-0.0191	-0.0045	-0.0035	20.9470	0.6193	15.6531	0.6497	-0.0249	0.7597	0.0145
4.2	-9.5003	-0.1545	-1.5246	-0.0207	-0.0080	-0.0094	21.0471	0.5764	15.6909	0.6497	-0.0249	0.7597	0.0144
4.21	-9.4992	-0.1417	-1.5272	-0.0151	-0.0021	-0.0047	21.0050	0.5335	15.6157	0.6497	-0.0248	0.7597	0.0144
4.22	-9.4922	-0.1220	-1.5125	-0.0150	-0.0057	-0.0051	21.0237	0.4665	15.8921	0.6496	-0.0248	0.7596	0.0144
4.23	-9.4983	-0.1148	-1.5219	-0.0075	-0.0066	-0.0031	21.3975	0.6430	15.7728	0.6497	-0.0248	0.7597	0.0143
4.24	-9.5004	-0.1050	-1.5294	-0.0158	-0.0028	-0.0024	21.1852	0.5182	15.6948	0.6497	-0.0247	0.7597	0.0143
4.25	-9.5048	-0.1139	-1.5388	-0.0179	0.0002	-0.0062	21.1128	0.6951	15.8453	0.6496	-0.0247	0.7597	0.0143
4.26	-9.5006	-0.1303	-1.5307	-0.0098	-0.0075	-0.0080	20.9420	0.5408	15.6942	0.6497	-0.0247	0.7597	0.0143
4.27	-9.5020	-0.1265	-1.5207	-0.0152	0.0007	-0.0025	20.7891	0.5225	15.8131	0.6496	-0.0247	0.7597	0.0142
4.28	-9.5039	-0.1215	-1.5379	-0.0224	0.0015	-0.0030	20.7428	0.7374	15.6858	0.6497	-0.0247	0.7597	0.0143
4.29	-9.5040	-0.1214	-1.5218	-0.0202	-0.0001	-0.0046	20.7866	0.8223	15.5804	0.6496	-0.0247	0.7597	0.0143
4.3	-9.4960	-0.1032	-1.5202	-0.0217	-0.0010	-0.0024	20.9964	0.8014	15.6776	0.6496	-0.0247	0.7598	0.0143
4.31	-9.4971	-0.0864	-1.5205	-0.0210	-0.0024	-0.0064	20.8265	0.5806	15.5348	0.6496	-0.0247	0.7597	0.0143
4.32	-9.5091	-0.0740	-1.5329	-0.0218	-0.0014	-0.0057	20.7230	0.5013	15.7263	0.6496	-0.0247	0.7598	0.0143
4.33	-9.4963	-0.0615	-1.5201	-0.0169	-0.0037	-0.0038	20.8028	0.4813	15.8992	0.6496	-0.0247	0.7598	0.0143
4.34	-9.5018	-0.0613	-1.5303	-0.0136	-0.0030	-0.0061	20.9015	0.4829	15.7897	0.6496	-0.0247	0.7598	0.0143
4.35	-9.5035	-0.0732	-1.5245	-0.0229	-0.0077	-0.0020	20.8809	0.5355	15.8157	0.6496	-0.0247	0.7598	0.0143
4.36	-9.5014	-0.0916	-1.5195	-0.0217	-0.0123	-0.0039	20.8118	0.5975	15.8685	0.6495	-0.0247	0.7597	0.0143
4.37	-9.5017	-0.0938	-1.5216	-0.0231	-0.0071	-0.0032	20.7818	0.5417	15.7463	0.6496	-0.0247	0.7598	0.0144
4.38	-9.5048	-0.1019	-1.5145	-0.0176	-0.0036	-0.0086	21.1094	0.4827	15.9124	0.6496	-0.0247	0.7597	0.0144
4.39	-9.5021	-0.0979	-1.5182	-0.0166	-0.0041	-0.0005	21.0681	0.4969	15.7721	0.6497	-0.0247	0.7598	0.0144
4.4	-9.4921	-0.0871	-1.5110	-0.0219	-0.0038	-0.0032	20.9635	0.4892	15.7637	0.6496	-0.0247	0.7597	0.0144
4.41	-9.5049	-0.0828	-1.5041	-0.0220	0.0015	-0.0053	20.9250	0.5999	15.7728	0.6496	-0.0247	0.7598	0.0144
4.42	-9.4998	-0.0841	-1.5190	-0.0222	-0.0023	-0.0064	20.7399	0.7198	15.7415	0.6496	-0.0247	0.7598	0.0144
4.43	-9.4994	-0.0865	-1.5167	-0.0212	-0.0058	-0.0057	20.8994	0.7343	15.7973	0.6495	-0.0247	0.7597	0.0144
4.44	-9.4856	-0.0784	-1.5059	-0.0195	-0.0025	-0.0071	20.8758	0.8429	15.5138	0.6496	-0.0248	0.7598	0.0144
4.45	-9.5131	-0.0906	-1.5214	-0.0199	-0.0062	-0.0027	21.0294	0.5210	15.5600	0.6496	-0.0247	0.7598	0.0144
4.46	-9.5096	-0.0906	-1.5279	-0.0229	-0.0032	-0.0037	20.8280	0.5350	15.7849	0.6496	-0.0247	0.7598	0.0144
4.47	-9.5008	-0.0920	-1.5167	-0.0218	-0.0038	-0.0035	20.7712	0.5908	15.7676	0.6495	-0.0247	0.7597	0.0144
4.48	-9.4981	-0.1050	-1.5218	-0.0223	0.0003	-0.0051	21.0423	0.5608	15.5223	0.6495	-0.0248	0.7598	0.0144
4.49	-9.4873	-0.1123	-1.5244	-0.0211	-0.0011	-0.0033	20.7071	0.5949	15.8828	0.6495	-0.0248	0.7598	0.0145
4.5	-9.4947	-0.1167	-1.5285	-0.0219	-0.0029	-0.0033	20.8059	0.7640	15.8941	0.6495	-0.0248	0.7598	0.0145
4.51	-9.5010	-0.1185	-1.5327	-0.0219	-0.0053	-0.0034	20.7738	0.6147	15.7219	0.6495	-0.0248	0.7598	0.0145
4.52	-9.5077	-0.1204	-1.5488	-0.0217	-0.0019	-0.0022	20.6331	0.5855	15.9163	0.6495	-0.0248	0.7598	0.0145
4.53	-9.4930	-0.1223	-1.5364	-0.0198	-0.0026	-0.0032	20.7479	0.6753	15.9488	0.6495	-0.0248	0.7599	0.0145
4.54	-9.4935	-0.1222	-1.5328	-0.0178	-0.0101	-0.0020	20.6980	0.6390	15.8570	0.6494	-0.0248	0.7598	0.0145
4.55	-9.5038	-0.1214	-1.5378	-0.0216	-0.0099	-0.0011	20.9199	0.6592	15.6221	0.6495	-0.0248	0.7598	0.0146
4.56	-9.5052	-0.1135	-1.5343	-0.0181	-0.0092	-0.0025	20.7384	0.5031	15.7379	0.6495	-0.0247	0.7598	0.0146
4.57	-9.4993	-0.1080	-1.5336	-0.0211	-0.0095	-0.0026	20.9305	0.4715	15.7826	0.6496	-0.0247	0.7598	0.0146
4.58	-9.5003	-0.1117	-1.5237	-0.0152	-0.0018	-0.0041	21.1659	0.5948	15.7617	0.6495	-0.0247	0.7598	0.0146
4.59	-9.5075	-0.1172	-1.5418	-0.0204	-0.0096	-0.0029	20.9553	0.6747	15.6472	0.6496	-0.0247	0.7598	0.0146
4.6	-9.5058	-0.1205	-1.5319	-0.0225	-0.0077	-0.0034	20.8690	0.4409	15.7336	0.6496	-0.0247	0.7598	0.0146
4.61	-9.5007	-0.1089	-1.5301	-0.0179	-0.0057	-0.0031	20.8269	0.3641	15.8102	0.6495	-0.0247	0.7597	0.0146
4.62	-9.5029	-0.0937	-1.5246	-0.0213	-0.0055	-0.0041	20.6875	0.6397	15.6040	0.6496	-0.0247	0.7598	0.0146
4.63	-9.5058	-0.0864	-1.5254	-0.0179	-0.0017	-0.0075	20.7758	0.7565	15.4924	0.6496	-0.0247	0.7598	0.0146
4.64	-9.5018	-0.0921	-1.5272	-0.0208	-0.0099	-0.0035	20.8235	0.7366	15.9382	0.6496	-0.0247	0.7598	0.0146
4.65	-9.4990	-0.0912	-1.5161	-0.0209	-0.0079	-0.0068	20.6919	0.6484	15.9433	0.6496	-0.0247	0.7597	0.0146
4.66	-9.5066	-0.0972	-1.5229	-0.0202	-0.0019	-0.0041	20.8509	0.6524	15.7990	0.6496	-0.0247	0.7598	0.0146
4.67	-9.4949	-0.1021	-1.5124	-0.0221	-0.0022	-0.0058	20.7170	0.6495	15.7478	0.6496	-0.0247	0.7598	0.0146
4.68	-9.5019	-0.1050	-1.5103	-0.0213	-0.0059	-0.0031	20.7962	0.6638	15.7632	0.6495	-0.0247	0.7597	0.0146
4.69	-9.5093	-0.1020	-1.5020	-0.0217	-0.0032	-0.0055	20.7969	0.5461	15.7653	0.6496	-0.0247	0.7598	0.0147
4.7	-9.5061	-0.0920	-1.5114	-0.0219	-0.0035	-0.0092	20.8273	0.6056	15.7560	0.6496	-0.0248	0.7598	0.0147
4.71	-9.4912	-0.0837	-1.5168	-0.0211	0.0001	-0.0067	20.7122	0.6867	15.7924	0.6496	-0.0248	0.7598	0.0147
4.72	-9.4914	-0.0939	-1.5009	-0.0210	-0.0039	-0.0039	20.8581	0.5437	16.0535	0.6495	-0.0248	0.7597	0.0147
4.73	-9.5141	-0.0886	-1.5177	-0.0214	-0.0070	-0.0013	21.1976	0.7126	16.0103	0.6496	-0.0248	0.7598	0.0147
4.74	-9.4999	-0.1016	-1.5185	-0.0210	-0.0083	-0.0056	21.1876	0.7308	15.8906	0.6496	-0.0248	0.7598	0.0147
4.75	-9.5009	-0.1003	-1.5191	-0.0221	-0.0094	-0.0037	21.0084	0.4912	15.8841	0.6496	-0.0248	0.7597	0.0147
4.76	-9.5114	-0.1051	-1.5226	-0.0156	-0.0101	-0.0046	20.7580	0.5436	15.9153	0.6496	-0.0248	0.7598	0.0147
4.77	-9.5076	-0.0953	-1.5232	-0.0206	-0.0092	-0.0038	20.8782	0.4508	15.5493	0.6496	-0.0248	0.7597	0.0147
4.78	-9.4966	-0.0957	-1.5188	-0.0207	-0.0094	-0.0090	20.9019	0.4497	15.7376	0.6497	-0.0248	0.7597	0.0147
4.79	-9.5086	-0.0873	-1.5144	-0.0184	-0.0102	-0.0049	20.9674	0.6233	15.7740	0.6496	-0.0248	0.7596	0.0147
4.8	-9.5043	-0.0889	-1.5239	-0.0206	-0.0063	-0.0059	21.0847	0.5641	15.7836	0.6497	-0.0248	0.7597	0.0147
4.81	-9.5009	-0.1017	-1.5224	-0.0212	-0.0052	-0.0101	20.8924	0.4897	15.8725	0.6496	-0.0248	0.7597	0.0147
4.82	-9.5089	-0.1084	-1.5348	-0.0186	-0.0044	-0.0075	20.9238	0.5247	15.5908	0.6497	-0.0248	0.7597	0.0147
4.83	-9.5046	-0.1161	-1.5305	-0.0167	-0.0043	-0.0038	20.8036	0.4083	15.5764	0.6496	-0.0248	0.7597	0.0147
4.84	-9.4920	-0.1096	-1.5376	-0.0217	0.0001	-0.0064	20.7338	0.5448	15.8753	0.6496	-0.0248	0.7597	0.0147
4.85	-9.4958	-0.1210	-1.5461	-0.0195	-0.0025	-0.0099	20.8789	0.6433	15.7379	0.6496	-0.0249	0.7597	0.0147
4.86	-9.4880	-0.1071	-1.5500	-0.0221	-0.0018	-0.0116	20.6941	0.7034	15.6206	0.6496	-0.0249	0.7597	0.0147
4.87	-9.4920	-0.1039	-1.5361	-0.0219	-0.0065	-0.0034	20.8887	0.5269	15.9235	0.6497	-0.0249	0.7598	0.0147
4.88	-9.5052	-0.1079	-1.5476	-0.0230	-0.0026	-0.0025	20.8148	0.6967	15.7791	0.6496	-0.0249	0.7597	0.0147
4.89	-9.5019	-0.1143	-1.5401	-0.0214	-0.0015	-0.0041	20.5071	0.7222	15.7520	0.6496	-0.0249	0.7598	0.0147
4.9	-9.5000	-0.1027	-1.5426	-0.0200	0.0013	-0.0024	20.7750	0.5413	15.7647	0.6495	-0.0249	0.7597	0.0147
4.91	-9.5024	-0.1068	-1.5439	-0.0222	-0.0099	0.0000	20.9315	0.8513	15.6485	0.6496	-0.0249	0.7597	0.0148
4.92	-9.5048	-0.0962	-1.5402	-0.0208	-0.0088	-0.0072	20.8624	0.7772	15.8710	0.6496	-0.0249	0.7597	0.0148
4.93	-9.5047	-0.0810	-1.5373	-0.0204	-0.0025	-0.0044	21.0338	0.4076	15.7748	0.6496	-0.0249	0.7597	0.0148
4.94	-9.4989	-0.0866	-1.5372	-0.0217	-0.0028	-0.0035	21.1910	0.5262	15.6888	0.6496	-0.0249	0.7598	0.0148
4.95	-9.4930	-0.0817	-1.5317	-0.0219	-0.0083	-0.0028	20.9492	0.6432	15.5070	0.6496	-0.0249	0.7597	0.0148
4.96	-9.5027	-0.0941	-1.5328	-0.0214	-0.0083	-0.0054	20.9094	0.6759	15.5703	0.6496	-0.0249	0.7598	0.0148
4.97	-9.4986	-0.0939	-1.5261	-0.0220	-0.0037	-0.0063	20.8170	0.2845	15.5908	0.6496	-0.0249	0.7597	0.0148
4.98	-9.5050	-0.0938	-1.5301	-0.0207	-0.0089	-0.0047	20.7397	0.4008	15.7377	0.6496	-0.0249	0.7597	0.0148
4.99	-9.5109	-0.1009	-1.5301	-0.0222	-0.0046	-0.0017	20.8651	0.6851	15.7189	0.6496	-0.0249	0.7597	0.0148
5	-9.5035	-0.0959	-1.5369	-0.0220	-0.0101	-0.0061	21.0108	0.4107	15.7171	0.6496	-0.0249	0.7597	0.0148
5.01	-9.5012	-0.1016	-1.5312	-0.0221	-0.0106	-0.0058	20.7701	0.4226	15.9136	0.6497	-0.0249	0.7597	0.0148
5.02	-9.5030	-0.1024	-1.5253	-0.0221	-0.0049	-0.0024	20.6519	0.6763	15.6491	0.6496	-0.0249	0.7597	0.0149
5.03	-9.5044	-0.0999	-1.5251	-0.0217	-0.0002	-0.0034	20.7925	0.8034	15.7611	0.6497	-0.0249	0.7597	0.0149
5.04	-9.4996	-0.1041	-1.5164	-0.0225	-0.0031	-0.0001	20.6278	0.6293	15.6711	0.6496	-0.0249	0.7596	0.0149
5.05	-9.5015	-0.1087	-1.5035	-0.0182	-0.0027	-0.0031	20.7837	0.7177	15.5766	0.6496	-0.0249	0.7597	0.0149
5.06	-9.5037	-0.1094	-1.4991	-0.0199	-0.0076	-0.0025	20.8359	0.7175	15.8925	0.6496	-0.0249	0.7597	0.0149
5.07	-9.5074	-0.1098	-1.5044	-0.0225	-0.0032	-0.0041	20.7466	0.6524	15.9976	0.6496	-0.0249	0.7597	0.0150
5.08	-9.5038	-0.0964	-1.4902	-0.0200	-0.0019	-0.0073	20.7243	0.6690	15.6079	0.6496	-0.0249	0.7597	0.0150
5.09	-9.4918	-0.0896	-1.4853	-0.0210	-0.0086	-0.0052	20.7672	0.5753	15.6333	0.6496	-0.0250	0.7597	0.0150
5.1	-9.5033	-0.0867	-1.4878	-0.0197	-0.0110	-0.0035	20.6908	0.7364	15.8259	0.6497	-0.0250	0.7597	0.0150
5.11	-9.5111	-0.0778	-1.4998	-0.0216	-0.0030	0.0015	20.9074	0.4925	15.6573	0.6496	-0.0249	0.7596	0.0150
5.12	-9.5031	-0.0757	-1.5022	-0.0222	-0.0074	-0.0039	21.0743	0.4237	15.6011	0.6497	-0.0249	0.7597	0.0150
5.13	-9.4988	-0.0974	-1.5014	-0.0214	-0.0027	-0.0052	20.8314	0.5621	15.7371	0.6496	-0.0249	0.7597	0.0150
5.14	-9.4988	-0.1027	-1.5282	-0.0223	-0.0042	-0.0011	20.9634	0.6184	15.7811	0.6497	-0.0249	0.7598	0.0150
5.15	-9.5089	-0.1128	-1.5228	-0.0225	-0.0036	-0.0036	20.6859	0.4808	15.8244	0.6496	-0.0249	0.7597	0.0151
5.16	-9.5040	-0.1178	-1.5285	-0.0216	-0.0040	-0.0020	20.7931	0.4198	15.9113	0.6496	-0.0249	0.7597	0.0151
5.17	-9.5041	-0.1160	-1.5348	-0.0216	-0.0068	-0.0029	21.1228	0.5837	15.7252	0.6496	-0.0249	0.7597	0.0151
5.18	-9.5073	-0.1212	-1.5399	-0.0198	-0.0059	-0.0031	20.8860	0.6118	15.6686	0.6496	-0.0249	0.7597	0.0151
5.19	-9.5060	-0.1283	-1.5452	-0.0220	-0.0093	-0.0025	20.9983	0.4665	15.7551	0.6497	-0.0249	0.7597	0.0151
5.2	-9.5090	-0.1311	-1.5547	-0.0217	-0.0062	-0.0047	21.0826	0.7161	15.8565	0.6496	-0.0249	0.7597	0.0151
5.21	-9.4948	-0.1239	-1.5692	-0.0219	-0.0045	-0.0055	20.8046	0.7115	15.9200	0.6497	-0.0249	0.7597	0.0151
5.22	-9.4814	-0.1188	-1.5573	-0.0215	0.0022	-0.0038	20.8894	0.6443	15.7311	0.6496	-0.0249	0.7596	0.0151
5.23	-9.4947	-0.1138	-1.5510	-0.0214	-0.0046	-0.0054	21.2096	0.8017	15.8804	0.6496	-0.0249	0.7597	0.0151
5.24	-9.5065	-0.1060	-1.5599	-0.0229	-0.0019	-0.0085	21.0523	0.7228	15.8597	0.6496	-0.0250	0.7597	0.0151
5.25	-9.5029	-0.0984	-1.5545	-0.0221	0.0007	-0.0035	20.8257	0.7782	15.7977	0.6496	-0.0250	0.7597	0.0152
5.26	-9.4987	-0.0847	-1.5479	-0.0213	-0.0045	-0.0046	20.7368	0.6243	15.6135	0.6496	-0.0250	0.7597	0.0152
5.27	-9.4971	-0.0879	-1.5473	-0.0216	-0.0032	-0.0048	20.8432	0.5452	15.5621	0.6496	-0.0250	0.7597	0.0152
5.28	-9.5044	-0.0925	-1.5448	-0.0218	-0.0035	-0.0023	20.9580	0.5544	15.4721	0.6496	-0.0250	0.7598	0.0152
5.29	-9.5023	-0.1050	-1.5435	-0.0219	-0.0090	-0.0030	20.9951	0.6530	15.5934	0.6495	-0.0250	0.7597	0.0152
5.3	-9.5043	-0.1068	-1.5341	-0.0212	-0.0090	-0.0079	20.7326	0.5308	15.6027	0.6496	-0.0250	0.7597	0.0152
5.31	-9.5014	-0.0921	-1.5277	-0.0200	-0.0091	-0.0025	20.9312	0.4557	15.7053	0.6496	-0.0250	0.7597	0.0152
5.32	-9.5061	-0.0949	-1.5127	-0.0233	-0.0108	-0.0040	21.1791	0.5049	15.3979	0.6496	-0.0250	0.7597	0.0152
5.33	-9.5039	-0.0855	-1.5201	-0.0178	-0.0041	-0.0060	21.0256	0.4618	15.5294	0.6496	-0.0250	0.7597	0.0152
5.34	-9.5077	-0.0835	-1.5140	-0.0200	-0.0034	-0.0067	20.9460	0.5131	15.6055	0.6496	-0.0250	0.7597	0.0152
5.35	-9.4904	-0.0770	-1.4922	-0.0192	-0.0036	-0.0011	20.8267	0.5957	15.5958	0.6496	-0.0250	0.7597	0.0152
5.36	-9.5040	-0.0856	-1.4850	-0.0215	-0.0044	-0.0025	20.7278	0.8167	15.5070	0.6496	-0.0250	0.7596	0.0152
5.37	-9.5156	-0.0835	-1.5004	-0.0217	-0.0049	-0.0035	20.8124	0.7964	15.3773	0.6496	-0.0250	0.7597	0.0153
5.38	-9.5011	-0.0676	-1.4933	-0.0200	-0.0068	-0.0028	20.9800	0.7021	15.4491	0.6496	-0.0250	0.7597	0.0153
5.39	-9.5061	-0.0677	-1.4897	-0.0206	-0.0055	-0.0035	21.1100	0.7552	15.5892	0.6497	-0.0249	0.7598	0.0153
5.4	-9.5000	-0.0744	-1.5044	-0.0191	-0.0034	-0.0034	20.7751	0.6301	15.5887	0.6496	-0.0249	0.7597	0.0153
5.41	-9.5008	-0.0810	-1.5031	-0.0224	0.0034	-0.0114	20.8160	0.6416	15.5861	0.6496	-0.0250	0.7597	0.0153
5.42	-9.5024	-0.0943	-1.5263	-0.0195	-0.0013	-0.0061	20.7989	0.6634	15.7711	0.6496	-0.0250	0.7597	0.0152
5.43	-9.4954	-0.1021	-1.5322	-0.0216	-0.0037	-0.0061	20.8087	0.8490	15.6832	0.6495	-0.0250	0.7597	0.0153
5.44	-9.5017	-0.1107	-1.5349	-0.0218	0.0003	-0.0059	20.7197	0.5804	15.5651	0.6496	-0.0250	0.7598	0.0153
5.45	-9.4961	-0.1169	-1.5449	-0.0209	-0.0005	-0.0018	20.7263	0.5872	15.6067	0.6495	-0.0250	0.7598	0.0153
5.46	-9.4950	-0.1144	-1.5351	-0.0222	-0.0023	-0.0041	20.7298	0.6623	15.7777	0.6495	-0.0250	0.7598	0.0153
5.47	-9.4968	-0.1087	-1.5368	-0.0202	-0.0030	-0.0062	20.7050	0.6273	15.6600	0.6494	-0.0250	0.7597	0.0153
5.48	-9.5079	-0.0994	-1.5404	-0.0207	-0.0072	-0.0081	20.8602	0.6488	15.6935	0.6495	-0.0250	0.7598	0.0153
5.49	-9.5031	-0.1063	-1.5309	-0.0220	-0.0099	-0.0031	21.0228	0.6498	15.4507	0.6495	-0.0250	0.7598	0.0153
5.5	-9.5030	-0.1132	-1.5387	-0.0198	-0.0034	-0.0030	20.8757	0.5964	15.4566	0.6495	-0.0250	0.7598	0.0153
5.51	-9.5107	-0.1201	-1.5548	-0.0195	-0.0041	-0.0030	20.9757	0.4368	15.6397	0.6495	-0.0250	0.7598	0.0153
5.52	-9.4937	-0.1205	-1.5436	-0.0185	-0.0029	-0.0028	21.1008	0.4255	15.4319	0.6495	-0.0250	0.7598	0.0153
5.53	-9.4948	-0.1265	-1.5492	-0.0228	-0.0035	-0.0041	20.9367	0.7214	15.6515	0.6495	-0.0250	0.7598	0.0153
5.54	-9.5031	-0.1306	-1.5499	-0.0200	-0.0051	-0.0036	20.7743	0.7392	15.6854	0.6494	-0.0250	0.7597	0.0153
5.55	-9.5068	-0.1256	-1.5403	-0.0233	-0.0077	-0.0057	20.9251	0.6055	15.5671	0.6495	-0.0250	0.7598	0.0154
5.56	-9.4971	-0.1268	-1.5499	-0.0165	-0.0046	-0.0057	21.0002	0.5556	15.4391	0.6495	-0.0250	0.7598	0.0154
5.57	-9.4994	-0.1274	-1.5423	-0.0164	-0.0063	0.0011	20.8994	0.5552	15.4466	0.6495	-0.0250	0.7598	0.0154
5.58	-9.4994	-0.1159	-1.5355	-0.0206	-0.0058	-0.0052	20.8746	0.6538	15.7279	0.6495	-0.0250	0.7598	0.0154
5.59	-9.5070	-0.1132	-1.5278	-0.0224	-0.0060	-0.0025	21.0086	0.6341	15.6286	0.6495	-0.0250	0.7598	0.0154
5.6	-9.4999	-0.1264	-1.5242	-0.0171	-0.0019	-0.0041	20.8936	0.6890	15.7794	0.6495	-0.0249	0.7598	0.0153
5.61	-9.4883	-0.1189	-1.5094	-0.0203	-0.0048	-0.0039	20.8876	0.7649	15.6076	0.6495	-0.0249	0.7597	0.0153
5.62	-9.5034	-0.1226	-1.5291	-0.0194	0.0002	-0.0020	20.7926	0.5815	15.3630	0.6495	-0.0249	0.7599	0.0154
5.63	-9.5049	-0.1188	-1.5265	-0.0203	-0.0061	-0.0035	20.9825	0.7499	15.6119	0.6495	-0.0249	0.7598	0.0154
5.64	-9.4926	-0.1117	-1.5047	-0.0200	-0.0067	-0.0038	21.0877	0.8052	15.7369	0.6495	-0.0249	0.7599	0.0153
5.65	-9.4981	-0.1070	-1.5097	-0.0176	-0.0052	-0.0085	20.9431	0.5125	15.4522	0.6495	-0.0249	0.7598	0.0153
5.66	-9.5073	-0.1094	-1.4988	-0.0188	-0.0041	-0.0028	20.8896	0.6069	15.5708	0.6495	-0.0249	0.7598	0.0153
5.67	-9.4986	-0.1016	-1.5165	-0.0165	-0.0062	-0.0042	20.8548	0.8152	15.7042	0.6495	-0.0249	0.7598	0.0153
5.68	-9.5017	-0.0887	-1.5224	-0.0212	-0.0087	-0.0034	20.7020	0.4620	15.6655	0.6495	-0.0249	0.7598	0.0153
5.69	-9.4964	-0.0955	-1.5334	-0.0192	-0.0047	-0.0035	20.8327	0.4880	15.6781	0.6496	-0.0249	0.7599	0.0153
5.7	-9.4866	-0.0991	-1.5260	-0.0227	-0.0065	-0.0059	20.9102	0.5781	15.5634	0.6495	-0.0249	0.7598	0.0153
5.71	-9.5042	-0.0916	-1.5305	-0.0221	-0.0028	-0.0042	20.8603	0.5889	15.5991	0.6495	-0.0249	0.7598	0.0154
5.72	-9.4978	-0.0836	-1.5205	-0.0226	-0.0067	0.0008	21.0343	0.7738	15.6447	0.6494	-0.0248	0.7597	0.0154
5.73	-9.4990	-0.0854	-1.5138	-0.0185	-0.0022	-0.0048	21.3740	0.5817	15.9578	0.6495	-0.0248	0.7598	0.0153
5.74	-9.4942	-0.0929	-1.5176	-0.0195	-0.0066	-0.0027	21.2996	0.6178	15.8766	0.6495	-0.0248	0.7598	0.0153
5.75	-9.5011	-0.0816	-1.5219	-0.0217	-0.0022	-0.0104	21.1140	0.6319	15.6944	0.6495	-0.0247	0.7598	0.0153
5.76	-9.5030	-0.0828	-1.5172	-0.0221	-0.0063	-0.0034	20.7860	0.4881	15.7442	0.6495	-0.0248	0.7598	0.0153
5.77	-9.5076	-0.0822	-1.5327	-0.0207	-0.0056	-0.0014	20.6299	0.7585	15.6592	0.6495	-0.0247	0.7598	0.0153
5.78	-9.5032	-0.0735	-1.5350	-0.0131	-0.0009	-0.0033	20.6852	0.8664	15.6842	0.6495	-0.0247	0.7599	0.0153
5.79	-9.5024	-0.0675	-1.5358	-0.0191	0.0031	-0.0034	20.6527	0.7197	15.6659	0.6494	-0.0247	0.7598	0.0153
5.8	-9.4917	-0.0718	-1.5458	-0.0230	0.0004	-0.0100	20.6708	0.7702	15.6873	0.6494	-0.0247	0.7599	0.0153
5.81	-9.4944	-0.0743	-1.5427	-0.0180	-0.0005	-0.0069	20.6644	0.5296	15.6635	0.6494	-0.0248	0.7599	0.0153
5.82	-9.5062	-0.0794	-1.5359	-0.0193	-0.0017	-0.0057	20.6631	0.5273	15.7491	0.6494	-0.0248	0.7599	0.0153
5.83	-9.4892	-0.0865	-1.5289	-0.0212	-0.0058	-0.0075	20.6643	0.7765	15.8617	0.6494	-0.0248	0.7599	0.0153
5.84	-9.5017	-0.0928	-1.5324	-0.0226	-0.0049	-0.0042	20.6446	0.6145	15.9807	0.6494	-0.0248	0.7599	0.0153
5.85	-9.5053	-0.1038	-1.5264	-0.0101	-0.0060	-0.0015	20.6957	0.7052	15.8449	0.6494	-0.0248	0.7599	0.0153
5.86	-9.5188	-0.1008	-1.5131	-0.0113	-0.0095	-0.0066	20.8933	0.5021	15.6331	0.6494	-0.0247	0.7598	0.0153
5.87	-9.5019	-0.1027	-1.5195	-0.0222	-0.0038	-0.0101	21.0307	0.4873	15.8537	0.6494	-0.0248	0.7599	0.0152
5.88	-9.4927	-0.1023	-1.5278	-0.0174	-0.0025	-0.0030	21.0401	0.5408	15.6548	0.6494	-0.0248	0.7599	0.0153
5.89	-9.4978	-0.1055	-1.5407	-0.0155	-0.0024	-0.0046	20.9638	0.6255	15.6334	0.6494	-0.0247	0.7600	0.0152
5.9	-9.5005	-0.1123	-1.5463	-0.0156	-0.0093	-0.0057	21.0120	0.4027	15.8109	0.6494	-0.0247	0.7599	0.0152
5.91	-9.4993	-0.1081	-1.5465	-0.0199	-0.0056	-0.0060	20.6338	0.3031	15.6469	0.6494	-0.0247	0.7599	0.0152
5.92	-9.4950	-0.1230	-1.5494	-0.0151	-0.0052	-0.0013	20.7437	0.5583	15.7281	0.6494	-0.0247	0.7599	0.0152
5.93	-9.4953	-0.1146	-1.5469	-0.0224	-0.0097	-0.0102	20.6814	0.5325	15.8876	0.6494	-0.0247	0.7598	0.0152
5.94	-9.4913	-0.1151	-1.5423	-0.0203	-0.0008	-0.0058	20.4764	0.3597	15.6342	0.6494	-0.0247	0.7600	0.0152
5.95	-9.4969	-0.1190	-1.5337	-0.0207	-0.0085	-0.0031	20.7819	0.6124	15.4730	0.6494	-0.0247	0.7599	0.0152
5.96	-9.4952	-0.1248	-1.5365	-0.0221	-0.0071	-0.0056	20.6716	0.6771	15.7574	0.6494	-0.0247	0.7599	0.0152
5.97	-9.4946	-0.1190	-1.5377	-0.0218	-0.0056	-0.0022	20.6519	0.6448	15.8485	0.6494	-0.0247	0.7598	0.0152
5.98	-9.5018	-0.1226	-1.5276	-0.0224	0.0002	-0.0046	20.7653	0.8789	15.8680	0.6494	-0.0247	0.7599	0.0153
5.99	-9.5056	-0.1192	-1.5238	-0.0192	-0.0032	-0.0059	20.5482	0.6166	15.8008	0.6494	-0.0248	0.7599	0.0153
6	-9.5006	-0.1192	-1.5166	-0.0219	-0.0035	-0.0054	20.4560	0.7685	15.7316	0.6494	-0.0248	0.7599	0.0153
6.01	-9.4959	-0.1141	-1.5309	-0.0209	-0.0057	-0.0045	20.7105	0.6056	15.8800	0.6494	-0.0248	0.7599	0.0153
6.02	-9.5061	-0.1010	-1.5260	-0.0224	-0.0036	-0.0065	20.7282	0.8867	15.8282	0.6494	-0.0248	0.7599	0.0153
6.03	-9.4983	-0.1009	-1.5325	-0.0211	-0.0018	-0.0043	20.7869	0.7789	15.6755	0.6494	-0.0248	0.7600	0.0153
6.04	-9.4958	-0.1154	-1.5244	-0.0172	-0.0112	-0.0055	20.5539	0.4501	15.6980	0.6493	-0.0248	0.7598	0.0153
6.05	-9.4970	-0.1131	-1.5179	-0.0212	-0.0068	-0.0016	20.7304	0.5041	15.5473	0.6494	-0.0248	0.7599	0.0153
6.06	-9.5003	-0.1034	-1.5184	-0.0178	-0.0022	-0.0050	20.9873	0.3826	15.7042	0.6494	-0.0248	0.7599	0.0153
6.07	-9.4941	-0.1039	-1.5023	-0.0180	-0.0070	0.0003	20.7905	0.4385	15.8307	0.6494	-0.0248	0.7599	0.0153
6.08	-9.5033	-0.1027	-1.4840	-0.0180	-0.0036	-0.0003	20.9350	0.4009	15.5635	0.6494	-0.0247	0.7599	0.0153
6.09	-9.5116	-0.1034	-1.4969	-0.0153	-0.0048	-0.0084	20.8832	0.4389	15.7490	0.6494	-0.0247	0.7599	0.0153
6.1	-9.5062	-0.1059	-1.5177	-0.0145	-0.0029	-0.0075	20.7641	0.5664	15.5931	0.6494	-0.0247	0.7599	0.0153
6.11	-9.5049	-0.1091	-1.5210	-0.0140	-0.0018	-0.0012	20.7246	0.5965	15.6670	0.6493	-0.0247	0.7599	0.0153
6.12	-9.4960	-0.1182	-1.5380	-0.0130	-0.0079	-0.0040	20.8644	0.4699	15.7071	0.6494	-0.0247	0.7600	0.0152
6.13	-9.4947	-0.1235	-1.5331	-0.0237	-0.0052	-0.0030	20.7688	0.3914	15.8084	0.6493	-0.0247	0.7599	0.0153
6.14	-9.4917	-0.1186	-1.5407	-0.0088	-0.0074	-0.0029	20.7493	0.4624	15.7028	0.6494	-0.0247	0.7600	0.0152
6.15	-9.4843	-0.1101	-1.5388	-0.0147	-0.0021	-0.0064	20.6640	0.6792	15.6586	0.6493	-0.0246	0.7599	0.0152
6.16	-9.4997	-0.0980	-1.5364	-0.0184	0.0041	-0.0054	20.5591	0.7580	15.7006	0.6493	-0.0247	0.7600	0.0152
6.17	-9.4979	-0.0852	-1.5262	-0.0218	-0.0006	-0.0050	20.5991	0.5530	15.8156	0.6493	-0.0247	0.7600	0.0152
6.18	-9.4920	-0.0756	-1.5248	-0.0180	0.0047	-0.0050	20.5530	0.6578	15.9536	0.6492	-0.0247	0.7600	0.0152
6.19	-9.4903	-0.0585	-1.5092	-0.0213	-0.0011	-0.0066	20.6932	0.7410	15.9209	0.6493	-0.0247	0.7601	0.0152
6.2	-9.5085	-0.0643	-1.5204	-0.0174	-0.0018	-0.0069	20.7439	0.6445	15.7080	0.6492	-0.0247	0.7600	0.0152
6.21	-9.5018	-0.0635	-1.5178	-0.0219	0.0019	-0.0044	20.5629	0.6502	15.8423	0.6492	-0.0247	0.7601	0.0152
6.22	-9.4968	-0.0631	-1.5145	-0.0212	-0.0035	-0.0063	20.6470	0.7436	15.9319	0.6491	-0.0247	0.7600	0.0152
6.23	-9.5111	-0.0662	-1.5202	-0.0180	-0.0055	-0.0024	20.9773	0.8460	16.0666	0.6492	-0.0247	0.7601	0.0152
6.24	-9.5216	-0.0664	-1.5379	-0.0186	-0.0070	-0.0031	20.9560	0.6707	15.9809	0.6492	-0.0247	0.7601	0.0152
6.25	-9.4988	-0.0797	-1.5476	-0.0189	-0.0075	-0.0039	21.0984	0.5905	15.9702	0.6492	-0.0247	0.7600	0.0152
6.26	-9.4858	-0.0792	-1.5396	-0.0234	-0.0139	-0.0031	20.9483	0.5862	15.8693	0.6492	-0.0247	0.7601	0.0153
6.27	-9.4881	-0.0807	-1.5553	-0.0217	-0.0100	-0.0055	20.9590	0.6703	15.5901	0.6492	-0.0247	0.7600	0.0153
6.28	-9.4890	-0.0882	-1.5456	-0.0223	-0.0076	-0.0022	21.0191	0.6210	15.7787	0.6493	-0.0247	0.7600	0.0153
6.29	-9.4935	-0.0846	-1.5450	-0.0188	-0.0042	-0.0010	20.7350	0.7543	15.6533	0.6492	-0.0247	0.7600	0.0153
6.3	-9.4955	-0.0826	-1.5339	-0.0188	-0.0046	-0.0068	20.7069	0.4927	15.5704	0.6493	-0.0247	0.7600	0.0153
6.31	-9.5094	-0.0885	-1.5242	-0.0200	-0.0069	-0.0029	20.9689	0.3753	15.7322	0.6493	-0.0246	0.7600	0.0153
6.32	-9.4986	-0.0954	-1.5218	-0.0200	-0.0123	-0.0017	21.0641	0.6653	15.5608	0.6493	-0.0246	0.7600	0.0153
6.33	-9.5023	-0.1018	-1.5206	-0.0222	-0.0067	-0.0018	20.8152	0.7144	15.6795	0.6493	-0.0246	0.7600	0.0153
6.34	-9.5020	-0.1032	-1.5350	-0.0230	-0.0013	-0.0085	20.6587	0.6465	15.7630	0.6493	-0.0246	0.7600	0.0153
6.35	-9.4901	-0.1162	-1.5351	-0.0128	-0.0014	-0.0078	20.7300	0.5890	15.5527	0.6493	-0.0247	0.7600	0.0153
6.36	-9.5045	-0.1085	-1.5451	-0.0150	-0.0001	-0.0024	20.9425	0.5528	15.6759	0.6492	-0.0246	0.7600	0.0152
6.37	-9.4991	-0.1239	-1.5422	-0.0179	-0.0035	-0.0083	20.9281	0.6588	15.6585	0.6493	-0.0246	0.7601	0.0152
6.38	-9.4918	-0.1220	-1.5270	-0.0192	-0.0038	-0.0037	20.8239	0.6710	15.5389	0.6492	-0.0246	0.7600	0.0152
6.39	-9.4899	-0.1159	-1.5322	-0.0136	-0.0014	-0.0025	20.8895	0.7701	15.6433	0.6493	-0.0246	0.7601	0.0152
6.4	-9.4915	-0.1315	-1.5131	-0.0186	-0.0027	-0.0039	20.7441	0.6259	15.7664	0.6492	-0.0246	0.7600	0.0152
6.41	-9.5048	-0.1257	-1.5253	-0.0208	-0.0108	-0.0063	20.6950	0.4301	15.7416	0.6492	-0.0246	0.7601	0.0152
6.42	-9.5010	-0.1284	-1.5218	-0.0209	-0.0060	-0.0071	20.8467	0.3739	15.7854	0.6492	-0.0246	0.7601	0.0152
6.43	-9.5048	-0.1289	-1.5239	-0.0186	-0.0032	-0.0051	21.1513	0.4797	15.6775	0.6492	-0.0246	0.7600	0.0152
6.44	-9.4973	-0.1211	-1.5282	-0.0123	-0.0041	-0.0030	20.7680	0.5861	15.5764	0.6493	-0.0246	0.7601	0.0152
6.45	-9.4996	-0.1454	-1.5383	-0.0167	-0.0034	-0.0049	20.8636	0.4048	15.5634	0.6492	-0.0245	0.7601	0.0152
6.46	-9.4879	-0.1555	-1.5389	-0.0151	-0.0037	-0.0060	20.9152	0.4431	15.6646	0.6492	-0.0245	0.7601	0.0151
6.47	-9.4956	-0.1533	-1.5419	-0.0141	-0.0046	0.0036	20.8134	0.5858	15.6557	0.6491	-0.0245	0.7600	0.0151
6.48	-9.4979	-0.1489	-1.5422	-0.0167	-0.0084	-0.0033	20.9868	0.5488	15.7066	0.6492	-0.0245	0.7601	0.0151
6.49	-9.4980	-0.1237	-1.5314	-0.0203	-0.0093	-0.0060	20.8668	0.6044	15.7322	0.6492	-0.0245	0.7601	0.0151
6.5	-9.5015	-0.1127	-1.5285	-0.0163	-0.0088	-0.0029	20.8466	0.6946	15.6181	0.6492	-0.0245	0.7600	0.0151
6.51	-9.4981	-0.1052	-1.5311	-0.0209	-0.0106	-0.0040	20.8619	0.4220	15.8000	0.6493	-0.0245	0.7600	0.0152
6.52	-9.4905	-0.1011	-1.5099	-0.0202	-0.0042	-0.0065	20.8313	0.5561	15.7136	0.6492	-0.0245	0.7600	0.0152
6.53	-9.5045	-0.1021	-1.5263	-0.0185	-0.0028	-0.0068	20.7250	0.4943	15.6330	0.6493	-0.0245	0.7601	0.0151
6.54	-9.4981	-0.1044	-1.5163	-0.0225	-0.0069	-0.0068	20.9476	0.5452	15.7742	0.6492	-0.0245	0.7600	0.0152
6.55	-9.5006	-0.0970	-1.5151	-0.0167	-0.0048	-0.0003	20.9213	0.7762	15.7310	0.6493	-0.0245	0.7601	0.0152
6.56	-9.4996	-0.0874	-1.5230	-0.0162	-0.0041	-0.0088	20.8078	0.7054	15.6351	0.6492	-0.0245	0.7600	0.0151
6.57	-9.4923	-0.0778	-1.5263	-0.0157	-0.0011	-0.0057	20.6909	0.7406	15.6856	0.6492	-0.0245	0.7601	0.0151
6.58	-9.4998	-0.0796	-1.5365	-0.0178	-0.0025	-0.0042	20.7705	0.7183	15.5549	0.6492	-0.0245	0.7600	0.0151
6.59	-9.4941	-0.0813	-1.5374	-0.0154	-0.0034	-0.0050	20.9100	0.6226	15.4688	0.6492	-0.0245	0.7601	0.0151
6.6	-9.4916	-0.0831	-1.5344	-0.0146	-0.0064	-0.0038	20.7708	0.6959	15.5298	0.6492	-0.0245	0.7601	0.0151
6.61	-9.5014	-0.0861	-1.5398	-0.0178	-0.0053	-0.0076	20.8349	0.7649	15.6819	0.6492	-0.0245	0.7600	0.0151
6.62	-9.5013	-0.0881	-1.5357	-0.0163	-0.0028	-0.0019	21.1400	0.5960	15.6488	0.6492	-0.0244	0.7601	0.0150
6.63	-9.5015	-0.0867	-1.5367	-0.0085	-0.0069	-0.0049	21.0803	0.6051	15.5790	0.6492	-0.0243	0.7601	0.0150
6.64	-9.5006	-0.0844	-1.5446	-0.0091	-0.0088	-0.0022	20.8629	0.6640	15.7881	0.6493	-0.0243	0.7601	0.0149
6.65	-9.5002	-0.0848	-1.5464	-0.0177	-0.0069	-0.0038	20.8508	0.6395	15.6373	0.6492	-0.0243	0.7600	0.0149
6.66	-9.4904	-0.0753	-1.5415	-0.0198	-0.0092	-0.0062	20.9455	0.7520	15.6973	0.6492	-0.0243	0.7601	0.0149
6.67	-9.5017	-0.0703	-1.5394	-0.0168	-0.0065	-0.0032	20.9577	0.5674	15.5801	0.6492	-0.0243	0.7601	0.0149
6.68	-9.4982	-0.0798	-1.5335	-0.0229	-0.0075	-0.0035	20.7975	0.8491	15.3514	0.6492	-0.0243	0.7600	0.0149
6.69	-9.5025	-0.0796	-1.5274	-0.0161	-0.0121	-0.0032	20.7621	0.6796	15.5303	0.6493	-0.0243	0.7601	0.0149
6.7	-9.4943	-0.0834	-1.5268	-0.0144	-0.0071	-0.0031	20.9133	0.5439	15.7329	0.6493	-0.0242	0.7600	0.0149
6.71	-9.4950	-0.0949	-1.5368	-0.0233	-0.0023	-0.0048	20.7442	0.5438	15.7760	0.6493	-0.0243	0.7601	0.0149
6.72	-9.5049	-0.1054	-1.5347	-0.0202	-0.0018	-0.0034	20.9281	0.7409	15.7103	0.6492	-0.0243	0.7600	0.0150
6.73	-9.4940	-0.1009	-1.5274	-0.0208	-0.0045	-0.0025	21.2392	0.7203	16.0453	0.6493	-0.0243	0.7601	0.0150
6.74	-9.5029	-0.1053	-1.5245	-0.0219	-0.0077	-0.0051	21.0766	0.4746	16.0777	0.6493	-0.0243	0.7600	0.0150
6.75	-9.5038	-0.1143	-1.5357	-0.0217	-0.0029	-0.0048	20.8835	0.8036	15.7985	0.6492	-0.0243	0.7600	0.0150
6.76	-9.4971	-0.1078	-1.5113	-0.0218	-0.0034	-0.0050	20.7180	0.7123	15.6164	0.6493	-0.0243	0.7601	0.0150
6.77	-9.5008	-0.1081	-1.5101	-0.0219	-0.0046	-0.0027	20.7079	0.6624	15.5182	0.6492	-0.0243	0.7600	0.0150
6.78	-9.5026	-0.1162	-1.5157	-0.0216	-0.0052	-0.0060	20.6459	0.5650	15.6836	0.6493	-0.0243	0.7601	0.0150
6.79	-9.4995	-0.1287	-1.5074	-0.0213	-0.0051	-0.0046	20.5908	0.6764	15.4008	0.6492	-0.0243	0.7600	0.0150
6.8	-9.4975	-0.1327	-1.5027	-0.0224	-0.0098	-0.0023	20.8422	0.3989	15.4689	0.6493	-0.0243	0.7601	0.0150
6.81	-9.5045	-0.1374	-1.5137	-0.0206	-0.0106	-0.0070	20.8571	0.3694	15.7250	0.6493	-0.0243	0.7600	0.0150
6.82	-9.5040	-0.1405	-1.5022	-0.0229	-0.0074	0.0013	20.8555	0.6035	15.6721	0.6493	-0.0243	0.7600	0.0151
6.83	-9.4826	-0.1211	-1.4947	-0.0191	-0.0059	-0.0041	20.8512	0.5649	15.8264	0.6493	-0.0243	0.7600	0.0151
6.84	-9.4985	-0.1201	-1.5152	-0.0144	-0.0079	-0.0057	20.8454	0.6727	15.8552	0.6493	-0.0243	0.7600	0.0151
6.85	-9.4956	-0.1202	-1.5095	-0.0200	-0.0029	-0.0012	20.6812	0.6599	15.7592	0.6493	-0.0243	0.7600	0.0151
6.86	-9.5014	-0.1195	-1.5136	-0.0169	-0.0045	-0.0084	20.7600	0.5769	15.8032	0.6492	-0.0243	0.7600	0.0151
6.87	-9.5082	-0.1173	-1.5263	-0.0205	-0.0023	-0.0066	20.8806	0.3902	15.6909	0.6493	-0.0243	0.7601	0.0151
6.88	-9.4997	-0.1223	-1.5312	-0.0206	-0.0060	-0.0033	20.8264	0.5232	15.8503	0.6493	-0.0243	0.7600	0.0151
6.89	-9.5047	-0.1100	-1.5326	-0.0195	-0.0063	-0.0078	20.6806	0.4650	15.6924	0.6493	-0.0243	0.7601	0.0151
6.9	-9.4877	-0.1089	-1.5267	-0.0211	0.0011	-0.0027	20.7826	0.5680	15.7138	0.6492	-0.0243	0.7600	0.0151
6.91	-9.5005	-0.1118	-1.5279	-0.0222	-0.0027	-0.0054	20.8637	0.7128	15.7879	0.6492	-0.0243	0.7601	0.0151
6.92	-9.5022	-0.1093	-1.5422	-0.0181	-0.0054	-0.0107	20.5212	0.6940	15.6369	0.6492	-0.0244	0.7601	0.0151
6.93	-9.4979	-0.1197	-1.5452	-0.0204	0.0015	-0.0065	20.6089	0.6168	15.8136	0.6492	-0.0244	0.7600	0.0151
6.94	-9.4888	-0.1118	-1.5601	-0.0226	-0.0022	-0.0045	20.6092	0.7633	15.6494	0.6492	-0.0244	0.7601	0.0151
6.95	-9.5005	-0.1038	-1.5578	-0.0219	-0.0029	-0.0030	20.6356	0.7080	15.9028	0.6492	-0.0244	0.7601	0.0151
6.96	-9.4928	-0.1085	-1.5491	-0.0222	-0.0064	-0.0055	20.7162	0.7709	15.9431	0.6492	-0.0244	0.7601	0.0151
6.97	-9.4951	-0.0948	-1.5538	-0.0188	-0.0081	-0.0073	20.6681	0.5563	15.6647	0.6491	-0.0244	0.7600	0.0151
6.98	-9.5047	-0.0984	-1.5625	-0.0171	-0.0082	-0.0008	20.7266	0.4696	15.7206	0.6492	-0.0244	0.7601	0.0151
6.99	-9.5042	-0.0929	-1.5559	-0.0183	-0.0109	-0.0041	20.7920	0.4969	15.8519	0.6492	-0.0244	0.7601	0.0151
7	-9.5053	-0.0834	-1.5528	-0.0170	-0.0048	-0.0032	21.0210	0.4938	15.6199	0.6492	-0.0244	0.7600	0.0151
7.01	-9.4954	-0.0751	-1.5369	-0.0224	-0.0063	-0.0049	21.0169	0.4116	15.6278	0.6492	-0.0243	0.7601	0.0151
7.02	-9.4957	-0.0742	-1.5395	-0.0172	-0.0025	-0.0098	20.6663	0.3883	15.8545	0.6492	-0.0244	0.7601	0.0150
7.03	-9.4968	-0.0820	-1.5276	-0.0162	-0.0022	-0.0014	20.9351	0.4566	15.7419	0.6492	-0.0243	0.7601	0.0150
7.04	-9.5000	-0.0851	-1.5281	-0.0142	-0.0042	-0.0082	20.8677	0.5888	15.9218	0.6491	-0.0243	0.7600	0.0150
7.05	-9.5030	-0.0874	-1.5229	-0.0146	-0.0050	-0.0032	20.6338	0.4600	15.7128	0.6492	-0.0243	0.7601	0.0150
7.06	-9.4971	-0.0823	-1.5150	-0.0173	-0.0043	-0.0019	20.9177	0.3633	15.7839	0.6492	-0.0243	0.7601	0.0150
7.07	-9.5046	-0.0880	-1.5125	-0.0187	-0.0079	-0.0037	20.8838	0.5374	15.9617	0.6492	-0.0243	0.7601	0.0150
7.08	-9.5171	-0.0856	-1.5193	-0.0224	-0.0046	-0.0023	20.6803	0.7609	15.5420	0.6492	-0.0243	0.7601	0.0150
7.09	-9.4912	-0.0811	-1.5163	-0.0217	-0.0020	-0.0059	20.6793	0.7261	15.6575	0.6492	-0.0243	0.7601	0.0150
7.1	-9.4945	-0.0846	-1.5049	-0.0222	-0.0043	-0.0088	20.7604	0.7352	15.7109	0.6492	-0.0243	0.7601	0.0150
7.11	-9.4882	-0.0889	-1.5264	-0.0217	-0.0043	-0.0054	20.7145	0.7403	15.6832	0.6491	-0.0243	0.7600	0.0150
7.12	-9.4891	-0.0866	-1.5105	-0.0144	-0.0001	-0.0043	20.5852	0.7183	15.7066	0.6492	-0.0243	0.7602	0.0150
7.13	-9.4863	-0.0961	-1.4982	-0.0204	-0.0046	-0.0050	20.6341	0.6242	15.6751	0.6491	-0.0243	0.7601	0.0150
7.14	-9.4952	-0.1038	-1.5036	-0.0191	0.0021	-0.0022	20.8356	0.6792	15.7657	0.6492	-0.0243	0.7602	0.0150
7.15	-9.4982	-0.1052	-1.4995	-0.0227	-0.0039	-0.0098	20.8035	0.5509	15.8894	0.6491	-0.0244	0.7601	0.0150
7.16	-9.5045	-0.1155	-1.4913	-0.0196	-0.0040	-0.0041	20.4974	0.6912	15.7512	0.6491	-0.0244	0.7602	0.0150
7.17	-9.5020	-0.1266	-1.5089	-0.0222	-0.0082	-0.0042	20.6584	0.5811	15.8041	0.6491	-0.0244	0.7602	0.0150
7.18	-9.4968	-0.1177	-1.5084	-0.0181	-0.0069	-0.0043	20.9653	0.5749	15.7683	0.6491	-0.0244	0.7601	0.0150
7.19	-9.4962	-0.1246	-1.5268	-0.0198	-0.0044	-0.0023	20.8314	0.5601	15.9182	0.6492	-0.0244	0.7602	0.0151
7.2	-9.4910	-0.1149	-1.5334	-0.0171	-0.0048	-0.0067	20.8537	0.6062	15.6822	0.6491	-0.0244	0.7601	0.0150
7.21	-9.4925	-0.1180	-1.5220	-0.0112	-0.0032	-0.0058	20.8870	0.6854	15.8200	0.6491	-0.0243	0.7602	0.0150
7.22	-9.5000	-0.1175	-1.5312	-0.0170	-0.0025	-0.0047	21.0891	0.5689	16.0010	0.6491	-0.0243	0.7601	0.0150
7.23	-9.4873	-0.1246	-1.5241	-0.0184	-0.0031	0.0011	21.3172	0.5757	15.8491	0.6491	-0.0243	0.7602	0.0150
7.24	-9.4981	-0.1125	-1.5320	-0.0189	-0.0029	-0.0046	21.2878	0.6120	15.9158	0.6491	-0.0243	0.7602	0.0150
7.25	-9.4981	-0.1144	-1.5528	-0.0213	0.0009	-0.0080	21.0108	0.6625	15.8360	0.6490	-0.0243	0.7602	0.0150
7.26	-9.5055	-0.1053	-1.5423	-0.0176	-0.0098	0.0007	21.0181	0.5736	15.8967	0.6491	-0.0243	0.7602	0.0150
7.27	-9.5051	-0.1048	-1.5437	-0.0197	-0.0018	-0.0006	20.8342	0.5416	15.7653	0.6491	-0.0242	0.7602	0.0150
7.28	-9.5072	-0.1108	-1.5542	-0.0156	-0.0046	-0.0034	20.9291	0.4158	15.5451	0.6491	-0.0242	0.7602	0.0150
7.29	-9.4963	-0.1004	-1.5578	-0.0201	-0.0020	-0.0037	20.8531	0.3723	15.6478	0.6490	-0.0242	0.7602	0.0150
7.3	-9.4955	-0.1110	-1.5539	-0.0179	-0.0011	-0.0050	20.6500	0.6374	15.7696	0.6490	-0.0242	0.7603	0.0150
7.31	-9.4973	-0.1157	-1.5607	-0.0196	-0.0029	-0.0040	20.8365	0.7409	15.6702	0.6490	-0.0242	0.7602	0.0150
7.32	-9.5051	-0.1055	-1.5540	-0.0206	0.0025	-0.0059	20.8577	0.5295	15.6470	0.6490	-0.0242	0.7603	0.0150
7.33	-9.4970	-0.1172	-1.5393	-0.0205	-0.0021	-0.0037	20.8214	0.6037	15.6349	0.6490	-0.0242	0.7603	0.0150
7.34	-9.4919	-0.1054	-1.5420	-0.0214	-0.0030	-0.0084	20.8881	0.5052	15.8120	0.6490	-0.0243	0.7603	0.0150
7.35	-9.4959	-0.0964	-1.5296	-0.0137	-0.0101	-0.0035	20.9072	0.7180	15.7695	0.6490	-0.0242	0.7603	0.0150
7.36	-9.5048	-0.0947	-1.5314	-0.0180	-0.0090	-0.0041	21.0135	0.6517	15.7297	0.6489	-0.0242	0.7602	0.0150
7.37	-9.5069	-0.0986	-1.5145	-0.0206	-0.0099	-0.0043	21.0627	0.6808	15.6301	0.6490	-0.0242	0.7603	0.0149
7.38	-9.5064	-0.0942	-1.5156	-0.0216	-0.0072	-0.0040	20.9068	0.6949	15.6937	0.6490	-0.0242	0.7602	0.0150
7.39	-9.5063	-0.0930	-1.5145	-0.0180	-0.0052	-0.0051	21.0738	0.4553	15.7354	0.6491	-0.0242	0.7603	0.0149
7.4	-9.4976	-0.0913	-1.5028	-0.0199	-0.0059	-0.0023	20.8067	0.4875	15.4111	0.6490	-0.0242	0.7602	0.0149
7.41	-9.5071	-0.0851	-1.5008	-0.0201	-0.0043	-0.0055	20.9814	0.7224	15.6613	0.6490	-0.0242	0.7602	0.0149
7.42	-9.5127	-0.0837	-1.5109	-0.0190	-0.0096	-0.0019	20.8496	0.6895	15.5426	0.6490	-0.0242	0.7602	0.0150
7.43	-9.4955	-0.0869	-1.5016	-0.0169	-0.0069	-0.0039	20.8668	0.6218	15.4251	0.6490	-0.0242	0.7602	0.0150
7.44	-9.4965	-0.0805	-1.4972	-0.0192	-0.0012	-0.0044	20.7303	0.7532	15.6003	0.6491	-0.0242	0.7603	0.0150
7.45	-9.4992	-0.0905	-1.5082	-0.0201	-0.0051	-0.0033	20.8251	0.7184	15.6533	0.6490	-0.0242	0.7602	0.0150
7.46	-9.4923	-0.0805	-1.5123	-0.0226	-0.0075	-0.0031	20.7968	0.7360	15.6319	0.6491	-0.0242	0.7603	0.0150
7.47	-9.4920	-0.0821	-1.5146	-0.0222	-0.0026	-0.0042	20.7453	0.7292	15.7277	0.6490	-0.0242	0.7602	0.0150
7.48	-9.5011	-0.0863	-1.5093	-0.0199	-0.0003	-0.0041	20.7633	0.6188	15.7450	0.6490	-0.0242	0.7603	0.0150
7.49	-9.4937	-0.0814	-1.5200	-0.0185	-0.0044	-0.0031	20.7881	0.5253	15.8805	0.6490	-0.0242	0.7603	0.0150
7.5	-9.5013	-0.0888	-1.5075	-0.0221	0.0019	-0.0038	20.8818	0.6582	15.6644	0.6489	-0.0242	0.7603	0.0150
7.51	-9.4977	-0.0895	-1.5171	-0.0223	-0.0030	-0.0022	20.8087	0.6322	15.5347	0.6490	-0.0242	0.7603	0.0150
7.52	-9.4988	-0.0952	-1.5282	-0.0198	-0.0032	-0.0042	20.7843	0.6890	15.7099	0.6489	-0.0242	0.7603	0.0150
7.53	-9.4975	-0.1026	-1.5203	-0.0213	-0.0027	-0.0093	20.6788	0.9078	15.7378	0.6490	-0.0242	0.7603	0.0150
7.54	-9.5012	-0.1091	-1.5321	-0.0213	-0.0037	-0.0073	20.7604	0.5205	15.6586	0.6489	-0.0242	0.7603	0.0150
7.55	-9.5083	-0.1093	-1.5331	-0.0215	-0.0067	-0.0067	20.9466	0.5125	15.6261	0.6490	-0.0242	0.7603	0.0150
7.56	-9.4962	-0.1167	-1.5468	-0.0211	-0.0053	-0.0023	20.8116	0.5478	15.5590	0.6489	-0.0242	0.7603	0.0150
7.57	-9.4995	-0.1139	-1.5502	-0.0154	-0.0013	-0.0021	20.8540	0.4401	15.7966	0.6489	-0.0242	0.7603	0.0150
7.58	-9.4992	-0.1201	-1.5493	-0.0174	-0.0058	-0.0050	20.9202	0.5965	15.4296	0.6489	-0.0242	0.7603	0.0150
7.59	-9.4955	-0.1212	-1.5363	-0.0209	-0.0042	-0.0035	21.0611	0.6679	15.5121	0.6489	-0.0242	0.7603	0.0150
7.6	-9.5036	-0.1180	-1.5359	-0.0214	-0.0027	-0.0087	20.9102	0.6300	15.5908	0.6489	-0.0242	0.7604	0.0150
7.61	-9.5062	-0.1250	-1.5332	-0.0174	-0.0012	-0.0036	20.6774	0.7343	15.5187	0.6488	-0.0242	0.7603	0.0150
7.62	-9.5023	-0.1157	-1.5308	-0.0214	-0.0026	-0.0030	20.6743	0.6278	15.7013	0.6489	-0.0242	0.7604	0.0150
7.63	-9.5031	-0.1157	-1.5335	-0.0163	-0.0070	-0.0021	20.8480	0.5176	15.7082	0.6489	-0.0242	0.7604	0.0150
7.64	-9.5097	-0.1063	-1.5285	-0.0101	-0.0037	-0.0035	20.7818	0.4415	15.6175	0.6489	-0.0241	0.7604	0.0150
7.65	-9.4925	-0.1031	-1.5245	-0.0188	-0.0006	-0.0071	20.7524	0.6713	15.7530	0.6488	-0.0241	0.7603	0.0150
7.66	-9.5022	-0.1161	-1.5331	-0.0205	-0.0041	-0.0034	20.9749	0.7404	15.6071	0.6489	-0.0241	0.7604	0.0150
7.67	-9.5013	-0.1190	-1.5486	-0.0187	0.0042	-0.0027	20.8771	0.7417	15.6973	0.6488	-0.0241	0.7604	0.0150
7.68	-9.4990	-0.1255	-1.5380	-0.0187	0.0012	-0.0030	20.7388	0.6597	15.8207	0.6488	-0.0241	0.7604	0.0150
7.69	-9.5001	-0.1247	-1.5341	-0.0219	-0.0028	-0.0052	20.8751	0.5459	15.8316	0.6488	-0.0241	0.7605	0.0150
7.7	-9.4981	-0.1089	-1.5174	-0.0157	-0.0065	-0.0057	20.9106	0.5773	15.8097	0.6488	-0.0241	0.7604	0.0150
7.71	-9.5065	-0.1021	-1.5190	-0.0188	-0.0005	-0.0051	20.7929	0.5517	15.6552	0.6488	-0.0241	0.7605	0.0150
7.72	-9.5109	-0.1005	-1.5172	-0.0181	-0.0045	-0.0072	21.0044	0.6427	16.0593	0.6487	-0.0241	0.7604	0.0149
7.73	-9.5058	-0.1049	-1.5196	-0.0159	-0.0073	-0.0055	21.2100	0.7851	15.8182	0.6488	-0.0241	0.7605	0.0149
7.74	-9.5020	-0.1034	-1.5260	-0.0201	-0.0057	-0.0034	21.0859	0.6454	15.7652	0.6488	-0.0241	0.7605	0.0149
7.75	-9.4961	-0.1049	-1.5283	-0.0205	-0.0071	-0.0026	20.9392	0.4029	15.9201	0.6488	-0.0241	0.7604	0.0149
7.76	-9.4945	-0.1002	-1.5309	-0.0184	-0.0088	-0.0051	20.9177	0.4420	15.6963	0.6488	-0.0241	0.7605	0.0149
7.77	-9.5019	-0.0977	-1.5303	-0.0136	-0.0087	-0.0026	20.9161	0.5552	15.6997	0.6488	-0.0241	0.7604	0.0149
7.78	-9.4861	-0.0821	-1.5312	-0.0192	-0.0021	-0.0030	20.7581	0.5943	15.6830	0.6488	-0.0241	0.7605	0.0149
7.79	-9.4994	-0.0871	-1.5236	-0.0220	-0.0063	-0.0026	20.8498	0.6649	15.6833	0.6487	-0.0241	0.7604	0.0149
7.8	-9.4926	-0.0837	-1.5117	-0.0194	-0.0025	-0.0052	20.7425	0.5880	15.6938	0.6488	-0.0241	0.7605	0.0149
7.81	-9.5059	-0.0915	-1.4984	-0.0202	-0.0073	-0.0066	20.8091	0.4268	15.6726	0.6488	-0.0241	0.7604	0.0149
7.82	-9.5099	-0.0767	-1.5165	-0.0218	-0.0107	-0.0057	20.8756	0.4693	15.7631	0.6488	-0.0241	0.7604	0.0149
7.83	-9.5058	-0.0720	-1.5039	-0.0205	-0.0052	-0.0081	20.7419	0.7763	15.8608	0.6488	-0.0241	0.7604	0.0149
7.84	-9.5078	-0.0849	-1.5105	-0.0217	0.0014	-0.0070	20.5453	0.7656	15.8649	0.6488	-0.0241	0.7604	0.0149
7.85	-9.5059	-0.0670	-1.5136	-0.0222	-0.0055	-0.0068	20.6808	0.6680	15.8071	0.6488	-0.0242	0.7605	0.0149
7.86	-9.5047	-0.0789	-1.5225	-0.0226	-0.0071	-0.0069	20.6759	0.4510	15.6835	0.6487	-0.0242	0.7604	0.0149
7.87	-9.4950	-0.0861	-1.5116	-0.0209	-0.0046	-0.0055	20.7093	0.7448	15.7612	0.6488	-0.0242	0.7605	0.0149
7.88	-9.4946	-0.0831	-1.5010	-0.0209	-0.0071	-0.0082	20.6103	0.8532	16.1072	0.6488	-0.0242	0.7604	0.0149
7.89	-9.5063	-0.0849	-1.5294	-0.0230	-0.0017	-0.0103	20.6591	0.5838	15.7488	0.6488	-0.0242	0.7605	0.0149
7.9	-9.4907	-0.0889	-1.5277	-0.0183	-0.0027	-0.0086	20.7066	0.5932	15.4879	0.6487	-0.0243	0.7604	0.0149
7.91	-9.4985	-0.0986	-1.5180	-0.0141	-0.0082	-0.0029	20.5748	0.5736	15.7036	0.6488	-0.0242	0.7604	0.0149
7.92	-9.4998	-0.1227	-1.5201	-0.0222	-0.0072	-0.0052	20.8030	0.6223	15.7694	0.6488	-0.0242	0.7604	0.0149
7.93	-9.5041	-0.1197	-1.5242	-0.0221	-0.0057	-0.0068	20.9354	0.4472	15.9302	0.6488	-0.0243	0.7604	0.0149
7.94	-9.5026	-0.1228	-1.5269	-0.0167	-0.0049	-0.0046	20.8325	0.3122	15.6402	0.6488	-0.0243	0.7605	0.0149
7.95	-9.5071	-0.1121	-1.5354	-0.0172	-0.0030	-0.0029	20.7372	0.5099	15.7176	0.6488	-0.0242	0.7604	0.0149
7.96	-9.5004	-0.1090	-1.5337	-0.0223	-0.0042	-0.0052	20.8100	0.6881	15.6640	0.6488	-0.0243	0.7605	0.0149
7.97	-9.5165	-0.1179	-1.5366	-0.0176	-0.0032	-0.0090	20.5703	0.5850	15.7007	0.6487	-0.0243	0.7604	0.0149
7.98	-9.4974	-0.1191	-1.5472	-0.0200	-0.0058	-0.0029	20.8494	0.5850	15.6628	0.6488	-0.0243	0.7605	0.0149
7.99	-9.4998	-0.1248	-1.5603	-0.0174	-0.0030	-0.0074	20.9402	0.4389	15.7496	0.6488	-0.0242	0.7605	0.0149
8	-9.5028	-0.1308	-1.5462	-0.0226	-0.0089	-0.0041	20.6738	0.4554	15.7996	0.6488	-0.0243	0.7604	0.0149
8.01	-9.5011	-0.1188	-1.5451	-0.0217	-0.0093	-0.0060	20.6045	0.7295	15.6544	0.6488	-0.0243	0.7605	0.0149
8.02	-9.5097	-0.1159	-1.5339	-0.0219	-0.0037	-0.0016	20.7121	0.7204	15.8323	0.6488	-0.0243	0.7604	0.0149
8.03	-9.5061	-0.1110	-1.5260	-0.0218	-0.0010	-0.0090	20.6481	0.6540	15.8732	0.6488	-0.0243	0.7605	0.0149
8.04	-9.4976	-0.1011	-1.5252	-0.0220	-0.0077	-0.0079	20.7885	0.6784	15.7767	0.6487	-0.0243	0.7604	0.0149
8.05	-9.4963	-0.1053	-1.5313	-0.0219	-0.0018	-0.0033	20.6333	0.5762	15.7523	0.6488	-0.0243	0.7605	0.0149
8.06	-9.5032	-0.0918	-1.5310	-0.0207	-0.0067	-0.0036	20.6237	0.8710	15.9603	0.6488	-0.0243	0.7604	0.0149
8.07	-9.5003	-0.0930	-1.5356	-0.0198	-0.0012	-0.0030	20.7178	0.7476	15.8430	0.6488	-0.0243	0.7605	0.0149
8.08	-9.4862	-0.0882	-1.5407	-0.0201	-0.0047	-0.0060	20.5681	0.7601	15.8914	0.6487	-0.0243	0.7605	0.0149
8.09	-9.4895	-0.0991	-1.5325	-0.0200	-0.0083	-0.0047	20.7444	0.7297	15.7609	0.6488	-0.0243	0.7605	0.0149
8.1	-9.4943	-0.1024	-1.5214	-0.0180	-0.0073	-0.0025	20.7654	0.6266	15.7285	0.6488	-0.0243	0.7605	0.0149
8.11	-9.4896	-0.0986	-1.5167	-0.0235	-0.0055	-0.0040	20.7773	0.4377	15.7261	0.6487	-0.0243	0.7604	0.0149
8.12	-9.4999	-0.0926	-1.5276	-0.0190	-0.0083	-0.0037	20.6622	0.2139	15.4836	0.6488	-0.0243	0.7605	0.0149
8.13	-9.5050	-0.0943	-1.5195	-0.0175	-0.0039	-0.0112	20.7468	0.4466	15.6573	0.6488	-0.0243	0.7604	0.0149
8.14	-9.5075	-0.0899	-1.5246	-0.0137	-0.0026	-0.0054	20.9647	0.5673	15.8186	0.6488	-0.0243	0.7605	0.0149
8.15	-9.5001	-0.0833	-1.5179	-0.0136	-0.0056	-0.0046	20.8077	0.2930	15.9945	0.6487	-0.0243	0.7604	0.0149
8.16	-9.5000	-0.0839	-1.5229	-0.0175	-0.0066	-0.0096	20.8821	0.5126	15.6950	0.6488	-0.0243	0.7605	0.0148
8.17	-9.4980	-0.0914	-1.5209	-0.0203	-0.0077	-0.0082	20.7723	0.4353	15.6970	0.6488	-0.0243	0.7604	0.0148
8.18	-9.4966	-0.0933	-1.5174	-0.0135	-0.0039	-0.0054	20.8220	0.5017	15.6771	0.6487	-0.0243	0.7604	0.0148
8.19	-9.5030	-0.1007	-1.5153	-0.0129	-0.0109	-0.0059	21.0381	0.4992	15.8033	0.6488	-0.0243	0.7605	0.0148
8.2	-9.5052	-0.1011	-1.5147	-0.0203	-0.0082	-0.0022	20.8625	0.5708	15.7593	0.6488	-0.0243	0.7604	0.0148
8.21	-9.4866	-0.0999	-1.5168	-0.0137	-0.0029	-0.0095	20.5938	0.7230	15.8171	0.6488	-0.0243	0.7605	0.0147
8.22	-9.4974	-0.1029	-1.5239	-0.0203	0.0010	-0.0068	20.7307	0.6172	15.9706	0.6487	-0.0243	0.7604	0.0147
8.23	-9.5051	-0.0942	-1.5183	-0.0198	-0.0065	-0.0067	21.2053	0.9556	15.9213	0.6488	-0.0243	0.7605	0.0147
8.24	-9.5076	-0.0902	-1.5284	-0.0180	0.0033	-0.0093	21.0687	0.8306	15.8325	0.6488	-0.0243	0.7605	0.0147
8.25	-9.4975	-0.0832	-1.5282	-0.0222	-0.0002	-0.0107	20.8268	0.7495	15.8785	0.6487	-0.0243	0.7605	0.0147
8.26	-9.5090	-0.0855	-1.5448	-0.0217	-0.0006	-0.0080	20.7480	0.8361	15.6539	0.6487	-0.0244	0.7605	0.0147
8.27	-9.5096	-0.0828	-1.5439	-0.0224	-0.0070	-0.0038	20.6657	0.5399	15.7113	0.6487	-0.0244	0.7605	0.0147
8.28	-9.5033	-0.0794	-1.5325	-0.0222	-0.0092	-0.0025	20.7534	0.7775	15.7589	0.6488	-0.0244	0.7605	0.0147
8.29	-9.5058	-0.0926	-1.5404	-0.0173	-0.0044	-0.0010	20.8509	0.5248	15.7607	0.6487	-0.0243	0.7604	0.0147
8.3	-9.5055	-0.1030	-1.5249	-0.0206	-0.0112	-0.0079	20.9633	0.6143	15.7395	0.6488	-0.0244	0.7605	0.0147
8.31	-9.4979	-0.1059	-1.5242	-0.0187	-0.0102	0.0026	20.9063	0.7392	15.6437	0.6488	-0.0243	0.7604	0.0147
8.32	-9.5085	-0.1025	-1.5302	-0.0205	-0.0093	-0.0045	21.0216	0.5404	15.6820	0.6488	-0.0243	0.7605	0.0147
8.33	-9.5088	-0.0979	-1.5354	-0.0216	-0.0054	-0.0054	21.0057	0.5766	15.6679	0.6488	-0.0243	0.7604	0.0147
8.34	-9.5079	-0.1051	-1.5311	-0.0162	-0.0035	-0.0024	21.0451	0.4449	15.7980	0.6488	-0.0243	0.7604	0.0147
8.35	-9.5022	-0.0968	-1.5250	-0.0194	-0.0049	-0.0031	20.9150	0.5160	15.9265	0.6488	-0.0243	0.7605	0.0147
8.36	-9.5015	-0.1053	-1.5294	-0.0221	-0.0044	-0.0062	20.7434	0.3695	15.8830	0.6487	-0.0243	0.7604	0.0147
8.37	-9.5087	-0.1060	-1.5331	-0.0185	-0.0001	-0.0042	20.8870	0.5143	15.6019	0.6488	-0.0243	0.7605	0.0147
8.38	-9.5031	-0.1036	-1.5367	-0.0169	-0.0039	-0.0011	20.5678	0.7029	15.7462	0.6487	-0.0243	0.7605	0.0147
8.39	-9.4970	-0.1046	-1.5260	-0.0200	-0.0085	-0.0042	20.7477	0.5059	15.6873	0.6488	-0.0242	0.7605	0.0147
8.4	-9.5033	-0.1012	-1.5374	-0.0224	-0.0025	-0.0058	20.8732	0.3611	15.6720	0.6487	-0.0243	0.7604	0.0147
8.41	-9.5056	-0.1040	-1.5294	-0.0228	-0.0027	-0.0089	20.9611	0.6623	15.6565	0.6487	-0.0243	0.7605	0.0147
8.42	-9.5040	-0.0994	-1.5223	-0.0183	-0.0050	-0.0089	20.8823	0.7429	15.9028	0.6487	-0.0243	0.7605	0.0146
8.43	-9.5060	-0.0942	-1.5264	-0.0189	-0.0019	-0.0055	20.8240	0.7264	15.8685	0.6487	-0.0243	0.7604	0.0146
8.44	-9.5073	-0.0981	-1.5294	-0.0221	-0.0041	-0.0050	20.8892	0.6267	15.7308	0.6488	-0.0243	0.7606	0.0146
8.45	-9.5002	-0.1158	-1.5201	-0.0215	-0.0041	-0.0086	20.6706	0.6608	15.7550	0.6487	-0.0243	0.7605	0.0146
8.46	-9.5082	-0.1229	-1.5291	-0.0216	-0.0053	-0.0042	20.8144	0.5753	15.7714	0.6488	-0.0243	0.7605	0.0146
8.47	-9.5107	-0.1102	-1.5359	-0.0224	-0.0020	-0.0054	20.9493	0.5515	15.6519	0.6487	-0.0243	0.7604	0.0147
8.48	-9.5054	-0.1102	-1.5232	-0.0223	-0.0062	-0.0068	20.8475	0.6696	15.8070	0.6487	-0.0243	0.7605	0.0146
8.49	-9.5051	-0.0979	-1.5231	-0.0224	-0.0124	-0.0043	21.1338	0.6322	15.6601	0.6487	-0.0243	0.7605	0.0146
8.5	-9.5043	-0.0903	-1.5240	-0.0217	-0.0062	-0.0062	21.0198	0.6699	15.8194	0.6487	-0.0243	0.7605	0.0146
8.51	-9.5069	-0.0855	-1.5217	-0.0189	-0.0034	-0.0046	20.9158	0.5319	15.8641	0.6488	-0.0243	0.7605	0.0146
8.52	-9.5072	-0.0967	-1.5366	-0.0185	-0.0018	-0.0081	20.9639	0.6034	15.5813	0.6487	-0.0243	0.7605	0.0146
8.53	-9.5059	-0.1019	-1.5274	-0.0121	-0.0026	-0.0067	21.0589	0.6650	15.7924	0.6487	-0.0243	0.7605	0.0146
8.54	-9.5030	-0.0955	-1.5356	-0.0204	-0.0062	-0.0030	20.9022	0.6340	15.6362	0.6487	-0.0243	0.7604	0.0146
8.55	-9.4977	-0.1018	-1.5313	-0.0230	-0.0084	-0.0033	21.0746	0.6575	15.8213	0.6488	-0.0243	0.7605	0.0145
8.56	-9.5011	-0.0936	-1.5333	-0.0160	-0.0053	-0.0038	20.9054	0.6247	15.6363	0.6487	-0.0242	0.7605	0.0145
8.57	-9.5158	-0.1018	-1.5281	-0.0207	-0.0067	-0.0073	20.8960	0.4457	15.6152	0.6488	-0.0242	0.7605	0.0145
8.58	-9.5029	-0.1046	-1.5250	-0.0188	-0.0054	-0.0062	20.9702	0.6786	15.7984	0.6487	-0.0242	0.7605	0.0145
8.59	-9.5011	-0.1133	-1.5471	-0.0192	-0.0011	-0.0031	20.7802	0.6076	15.7209	0.6487	-0.0242	0.7605	0.0145
8.6	-9.4924	-0.1174	-1.5412	-0.0235	-0.0018	-0.0109	20.8092	0.7235	15.8059	0.6487	-0.0243	0.7605	0.0145
8.61	-9.4997	-0.1085	-1.5330	-0.0189	-0.0047	-0.0023	20.9476	0.6535	15.9415	0.6487	-0.0243	0.7605	0.0145
8.62	-9.5013	-0.1026	-1.5280	-0.0161	-0.0010	-0.0027	20.8291	0.5494	15.8254	0.6487	-0.0242	0.7606	0.0145
8.63	-9.5047	-0.0990	-1.5382	-0.0192	-0.0020	-0.0052	20.8717	0.6843	15.8546	0.6487	-0.0242	0.7605	0.0145
8.64	-9.5144	-0.0912	-1.5363	-0.0184	0.0014	-0.0014	20.8224	0.5744	15.8199	0.6487	-0.0242	0.7606	0.0145
8.65	-9.5010	-0.0871	-1.5257	-0.0210	-0.0015	-0.0050	20.9660	0.5295	15.9611	0.6486	-0.0242	0.7605	0.0145
8.66	-9.5032	-0.0921	-1.5231	-0.0151	-0.0035	-0.0050	20.8733	0.7335	15.7746	0.6486	-0.0242	0.7606	0.0145
8.67	-9.5092	-0.0957	-1.5175	-0.0183	-0.0081	-0.0047	20.7550	0.6187	15.7713	0.6486	-0.0242	0.7606	0.0145
8.68	-9.4978	-0.0879	-1.5244	-0.0223	-0.0072	-0.0057	21.0430	0.5375	15.6584	0.6486	-0.0242	0.7605	0.0145
8.69	-9.5038	-0.0905	-1.5280	-0.0213	-0.0039	-0.0054	21.0025	0.6601	15.7953	0.6487	-0.0242	0.7606	0.0144
8.7	-9.5078	-0.0969	-1.5239	-0.0169	-0.0031	-0.0039	21.1544	0.4101	15.8330	0.6486	-0.0242	0.7606	0.0144
8.71	-9.4998	-0.0956	-1.5251	-0.0217	-0.0083	-0.0075	20.9655	0.5735	15.7559	0.6487	-0.0242	0.7606	0.0144
8.72	-9.4980	-0.0997	-1.5333	-0.0209	-0.0075	-0.0033	20.8853	0.5542	16.0759	0.6486	-0.0242	0.7605	0.0144
8.73	-9.4902	-0.0910	-1.5271	-0.0200	-0.0051	-0.0068	21.2842	0.5742	15.9726	0.6487	-0.0242	0.7606	0.0144
8.74	-9.5031	-0.1000	-1.5229	-0.0224	-0.0109	-0.0019	21.3165	0.5677	15.9712	0.6487	-0.0242	0.7605	0.0144
8.75	-9.5066	-0.0967	-1.5191	-0.0198	-0.0007	-0.0131	21.1235	0.6049	16.1783	0.6487	-0.0242	0.7605	0.0144
8.76	-9.5092	-0.0895	-1.5196	-0.0191	-0.0083	-0.0046	20.7898	0.5681	15.9312	0.6487	-0.0242	0.7606	0.0144
8.77	-9.5019	-0.0987	-1.5244	-0.0169	-0.0065	-0.0060	20.6433	0.8251	15.9489	0.6487	-0.0242	0.7605	0.0144
8.78	-9.4936	-0.1048	-1.5229	-0.0139	-0.0009	-0.0050	20.5483	0.7438	15.8528	0.6487	-0.0242	0.7606	0.0143
8.79	-9.5094	-0.1118	-1.5262	-0.0155	-0.0005	-0.0019	20.5181	0.7406	15.8201	0.6486	-0.0242	0.7605	0.0143
8.8	-9.5082	-0.0921	-1.5299	-0.0220	-0.0020	-0.0059	20.5297	0.5978	15.9501	0.6487	-0.0242	0.7606	0.0143
8.81	-9.4977	-0.0970	-1.5180	-0.0181	-0.0019	-0.0095	20.6896	0.5997	15.9161	0.6486	-0.0242	0.7606	0.0143
8.82	-9.5137	-0.0954	-1.5300	-0.0222	-0.0018	-0.0057	20.8768	0.6829	15.9477	0.6486	-0.0242	0.7606	0.0143
8.83	-9.5058	-0.1039	-1.5431	-0.0163	-0.0032	-0.0075	20.7529	0.5552	15.8320	0.6486	-0.0242	0.7606	0.0143
8.84	-9.4881	-0.1058	-1.5390	-0.0173	-0.0025	-0.0069	20.6639	0.7938	15.8384	0.6486	-0.0242	0.7606	0.0143
8.85	-9.5001	-0.1210	-1.5317	-0.0188	-0.0085	-0.0030	20.5576	0.4629	15.8446	0.6486	-0.0242	0.7606	0.0143
8.86	-9.5051	-0.1272	-1.5355	-0.0212	-0.0060	-0.0028	20.7826	0.2799	15.8423	0.6486	-0.0242	0.7605	0.0143
8.87	-9.5010	-0.1206	-1.5419	-0.0206	-0.0055	-0.0046	20.8469	0.4702	15.9640	0.6486	-0.0242	0.7606	0.0143
8.88	-9.5026	-0.1262	-1.5430	-0.0194	-0.0091	-0.0027	20.7464	0.4390	15.8988	0.6486	-0.0242	0.7606	0.0143
8.89	-9.5014	-0.1154	-1.5299	-0.0221	-0.0048	-0.0017	20.7826	0.4420	15.7782	0.6487	-0.0242	0.7606	0.0143
8.9	-9.4949	-0.1170	-1.5330	-0.0213	-0.0026	-0.0034	20.7779	0.5957	15.6498	0.6486	-0.0242	0.7606	0.0143
8.91	-9.4943	-0.1072	-1.5398	-0.0205	-0.0034	-0.0020	20.7553	0.5620	15.8071	0.6486	-0.0242	0.7606	0.0144
8.92	-9.4943	-0.0983	-1.5490	-0.0126	-0.0038	-0.0094	20.6547	0.5667	15.8544	0.6486	-0.0242	0.7606	0.0143
8.93	-9.5010	-0.0969	-1.5510	-0.0175	-0.0062	-0.0036	20.7659	0.5859	15.8372	0.6486	-0.0242	0.7606	0.0143
8.94	-9.4971	-0.0903	-1.5430	-0.0199	-0.0061	-0.0038	20.8715	0.4553	15.8552	0.6487	-0.0242	0.7607	0.0143
8.95	-9.5046	-0.1011	-1.5305	-0.0220	-0.0097	-0.0035	20.8361	0.5540	15.7074	0.6486	-0.0242	0.7606	0.0143
8.96	-9.5071	-0.1008	-1.5371	-0.0221	-0.0001	-0.0084	20.8876	0.7453	15.8480	0.6487	-0.0242	0.7606	0.0143
8.97	-9.5050	-0.0947	-1.5316	-0.0221	-0.0046	-0.0057	20.6753	0.8064	15.8129	0.6486	-0.0242	0.7605	0.0143
8.98	-9.5082	-0.0835	-1.5336	-0.0221	-0.0018	-0.0045	20.4950	0.8266	15.9861	0.6486	-0.0243	0.7606	0.0143
8.99	-9.5049	-0.0847	-1.5381	-0.0213	-0.0015	-0.0050	20.6920	0.7830	15.9498	0.6486	-0.0243	0.7606	0.0143
9	-9.5041	-0.0827	-1.5314	-0.0226	0.0020	-0.0082	20.6869	0.6355	15.6903	0.6485	-0.0243	0.7606	0.0143
9.01	-9.5081	-0.0949	-1.5282	-0.0217	-0.0065	-0.0030	20.6944	0.7485	15.9849	0.6486	-0.0243	0.7607	0.0144
9.02	-9.5026	-0.0951	-1.5391	-0.0223	-0.0027	-0.0074	20.6762	0.7236	15.8664	0.6485	-0.0243	0.7606	0.0144
9.03	-9.5034	-0.0945	-1.5287	-0.0201	-0.0040	-0.0131	20.7170	0.7508	15.8341	0.6486	-0.0243	0.7607	0.0143
9.04	-9.5076	-0.1058	-1.5167	-0.0165	-0.0084	-0.0049	20.5791	0.6564	15.8359	0.6485	-0.0243	0.7606	0.0143
9.05	-9.5022	-0.1020	-1.5193	-0.0212	0.0017	-0.0055	20.8477	0.4453	15.7575	0.6486	-0.0243	0.7607	0.0143
9.06	-9.5014	-0.0990	-1.5190	-0.0221	-0.0000	-0.0028	20.9450	0.6780	15.7293	0.6485	-0.0244	0.7607	0.0143
9.07	-9.5090	-0.1018	-1.5143	-0.0223	-0.0060	-0.0050	20.7390	0.3127	15.6144	0.6485	-0.0244	0.7607	0.0143
9.08	-9.5008	-0.0857	-1.4994	-0.0221	-0.0047	-0.0061	20.8816	0.4244	15.9934	0.6485	-0.0244	0.7607	0.0143
9.09	-9.5111	-0.0838	-1.5098	-0.0217	-0.0034	-0.0043	20.8149	0.4874	15.7714	0.6485	-0.0244	0.7607	0.0144
9.1	-9.5070	-0.0838	-1.5056	-0.0217	-0.0066	-0.0046	20.9364	0.5533	15.9735	0.6485	-0.0244	0.7607	0.0144
9.11	-9.5025	-0.0895	-1.5152	-0.0193	-0.0088	-0.0020	20.8029	0.5162	15.7449	0.6485	-0.0244	0.7606	0.0144
9.12	-9.4991	-0.0910	-1.5334	-0.0230	-0.0065	-0.0079	20.5567	0.3673	15.7862	0.6486	-0.0244	0.7607	0.0144
9.13	-9.5029	-0.0977	-1.5348	-0.0197	-0.0044	-0.0056	20.6631	0.5676	15.9698	0.6485	-0.0244	0.7607	0.0144
9.14	-9.4975	-0.1058	-1.5228	-0.0179	-0.0066	-0.0058	20.7387	0.5627	15.6909	0.6486	-0.0244	0.7607	0.0144
9.15	-9.5024	-0.1078	-1.5375	-0.0166	-0.0038	0.0001	20.8935	0.5850	15.9816	0.6485	-0.0244	0.7606	0.0144
9.16	-9.4970	-0.1203	-1.5311	-0.0172	0.0000	-0.0091	20.6709	0.5472	15.8831	0.6485	-0.0244	0.7607	0.0143
9.17	-9.4936	-0.1050	-1.5291	-0.0230	-0.0018	-0.0112	20.6386	0.6229	15.8376	0.6485	-0.0244	0.7607	0.0143
9.18	-9.5062	-0.1151	-1.5280	-0.0220	-0.0015	-0.0040	20.7166	0.6650	15.8199	0.6485	-0.0244	0.7607	0.0143
9.19	-9.5098	-0.1051	-1.5233	-0.0182	-0.0036	-0.0051	20.5886	0.6444	15.9714	0.6485	-0.0245	0.7608	0.0143
9.2	-9.4953	-0.1018	-1.5254	-0.0202	-0.0003	-0.0079	20.8534	0.5195	15.9897	0.6485	-0.0245	0.7607	0.0143
9.21	-9.5046	-0.0923	-1.5333	-0.0224	0.0009	-0.0066	20.6509	0.7014	15.6938	0.6485	-0.0245	0.7608	0.0143
9.22	-9.5063	-0.1051	-1.5424	-0.0221	-0.0039	-0.0065	20.8625	0.7655	15.9428	0.6484	-0.0245	0.7607	0.0143
9.23	-9.4960	-0.1021	-1.5340	-0.0208	-0.0069	-0.0029	21.0333	0.6077	16.0512	0.6485	-0.0245	0.7608	0.0143
9.24	-9.5021	-0.1042	-1.5337	-0.0206	-0.0093	-0.0036	21.0042	0.5728	15.9788	0.6485	-0.0245	0.7607	0.0143
9.25	-9.5010	-0.1110	-1.5358	-0.0161	-0.0071	-0.0033	21.0523	0.6665	15.8892	0.6485	-0.0245	0.7607	0.0143
9.26	-9.4960	-0.1194	-1.5261	-0.0196	-0.0087	-0.0032	20.8629	0.3442	15.6867	0.6485	-0.0245	0.7607	0.0143
9.27	-9.5087	-0.1204	-1.5307	-0.0203	-0.0009	-0.0048	20.9405	0.3539	15.7613	0.6485	-0.0245	0.7607	0.0143
9.28	-9.5052	-0.1075	-1.5265	-0.0226	-0.0043	-0.0057	21.0299	0.6043	15.7325	0.6485	-0.0245	0.7607	0.0143
9.29	-9.4993	-0.1085	-1.5323	-0.0214	-0.0054	-0.0072	20.8937	0.5446	15.6634	0.6484	-0.0245	0.7607	0.0143
9.3	-9.4996	-0.1023	-1.5358	-0.0230	-0.0020	-0.0079	20.7266	0.5959	15.9136	0.6485	-0.0245	0.7608	0.0143
9.31	-9.4994	-0.1028	-1.5212	-0.0186	-0.0078	-0.0025	20.8853	0.6630	15.8217	0.6485	-0.0245	0.7607	0.0143
9.32	-9.5039	-0.1076	-1.5116	-0.0169	-0.0103	-0.0035	20.9386	0.6532	15.6830	0.6485	-0.0245	0.7607	0.0143
9.33	-9.5147	-0.1037	-1.5201	-0.0229	-0.0049	-0.0022	20.7920	0.6457	15.6962	0.6485	-0.0245	0.7607	0.0143
9.34	-9.5045	-0.1032	-1.5206	-0.0217	-0.0008	-0.0028	20.7669	0.5469	15.9083	0.6485	-0.0245	0.7607	0.0144
9.35	-9.4906	-0.1115	-1.5270	-0.0221	-0.0052	-0.0051	20.8166	0.5761	15.8435	0.6485	-0.0245	0.7607	0.0144
9.36	-9.4972	-0.1101	-1.5261	-0.0219	-0.0047	-0.0035	20.6215	0.5550	15.8734	0.6484	-0.0245	0.7607	0.0144
9.37	-9.5007	-0.0990	-1.5188	-0.0222	-0.0053	-0.0060	20.7906	0.6635	15.8512	0.6485	-0.0245	0.7608	0.0144
9.38	-9.5079	-0.1030	-1.5282	-0.0221	0.0022	-0.0030	20.6884	0.7889	15.8679	0.6484	-0.0245	0.7607	0.0144
9.39	-9.4927	-0.0928	-1.5218	-0.0221	-0.0043	-0.0075	20.8907	0.8282	15.8372	0.6485	-0.0246	0.7608	0.0144
9.4	-9.4936	-0.0991	-1.5283	-0.0223	-0.0065	-0.0072	20.9030	0.7467	15.9681	0.6484	-0.0246	0.7607	0.0144
9.41	-9.5057	-0.0977	-1.5267	-0.0217	-0.0146	-0.0079	20.9114	0.5824	15.9288	0.6485	-0.0246	0.7607	0.0144
9.42	-9.4955	-0.0914	-1.5227	-0.0202	-0.0060	0.0003	20.8714	0.6264	15.8218	0.6485	-0.0246	0.7607	0.0144
9.43	-9.5022	-0.0848	-1.5193	-0.0220	-0.0037	-0.0068	21.0661	0.6129	15.6135	0.6484	-0.0246	0.7607	0.0144
9.44	-9.5064	-0.0942	-1.5402	-0.0216	-0.0024	-0.0029	21.0763	0.3643	15.6005	0.6485	-0.0246	0.7608	0.0144
9.45	-9.4944	-0.0986	-1.5337	-0.0218	-0.0067	-0.0058	20.9493	0.5664	15.7674	0.6485	-0.0245	0.7607	0.0144
9.46	-9.4949	-0.0895	-1.5217	-0.0231	-0.0123	-0.0035	20.8215	0.5664	15.7676	0.6485	-0.0246	0.7607	0.0144
9.47	-9.5062	-0.0860	-1.5365	-0.0199	-0.0079	-0.0044	20.9087	0.5714	15.8693	0.6485	-0.0246	0.7606	0.0144
9.48	-9.5059	-0.0832	-1.5205	-0.0160	-0.0092	-0.0083	20.8891	0.5682	15.8648	0.6485	-0.0246	0.7607	0.0144
9.49	-9.5082	-0.0861	-1.5146	-0.0241	-0.0037	-0.0051	20.8025	0.5680	15.6990	0.6485	-0.0246	0.7607	0.0144
9.5	-9.5032	-0.0994	-1.5300	-0.0153	-0.0071	-0.0053	20.8443	0.5699	15.6823	0.6485	-0.0246	0.7606	0.0144
9.51	-9.5055	-0.0995	-1.5377	-0.0199	-0.0099	-0.0066	20.8148	0.5630	15.7791	0.6486	-0.0246	0.7607	0.0144
9.52	-9.5070	-0.1019	-1.5369	-0.0230	-0.0040	-0.0076	20.8353	0.6995	15.9230	0.6485	-0.0246	0.7606	0.0144
9.53	-9.5099	-0.1062	-1.5369	-0.0221	-0.0016	-0.0086	20.8000	0.5586	15.7225	0.6486	-0.0246	0.7607	0.0144
9.54	-9.5046	-0.0971	-1.5427	-0.0225	-0.0039	-0.0064	20.9801	0.6531	15.6710	0.6485	-0.0246	0.7606	0.0144
9.55	-9.4941	-0.0941	-1.5321	-0.0220	-0.0048	-0.0075	21.1050	0.7536	15.8023	0.6486	-0.0246	0.7607	0.0143
9.56	-9.5006	-0.0910	-1.5308	-0.0218	-0.0029	-0.0045	20.7113	0.5804	15.7698	0.6485	-0.0246	0.7607	0.0143
9.57	-9.5092	-0.0878	-1.5402	-0.0229	-0.0011	-0.0026	20.6615	0.5420	15.7625	0.6485	-0.0246	0.7607	0.0144
9.58	-9.5108	-0.0924	-1.5289	-0.0227	-0.0033	-0.0070	20.6432	0.6747	15.8786	0.6485	-0.0246	0.7607	0.0144
9.59	-9.5015	-0.0914	-1.5418	-0.0212	-0.0066	-0.0058	20.7217	0.6017	15.8265	0.6485	-0.0247	0.7607	0.0144
9.6	-9.5085	-0.1070	-1.5260	-0.0226	-0.0097	-0.0085	20.8641	0.4068	15.7730	0.6485	-0.0247	0.7607	0.0144
9.61	-9.4986	-0.0981	-1.5360	-0.0214	-0.0047	-0.0062	20.8185	0.6811	15.7085	0.6485	-0.0247	0.7606	0.0144
9.62	-9.5036	-0.0931	-1.5318	-0.0225	-0.0037	-0.0098	20.7297	0.6224	15.6579	0.6486	-0.0247	0.7607	0.0144
9.63	-9.5109	-0.0908	-1.5073	-0.0202	-0.0061	-0.0091	20.9194	0.5600	15.8897	0.6485	-0.0247	0.7606	0.0143
9.64	-9.5006	-0.0887	-1.5216	-0.0217	-0.0038	-0.0049	20.8090	0.5572	15.7470	0.6486	-0.0248	0.7607	0.0144
9.65	-9.4982	-0.0847	-1.5338	-0.0219	-0.0044	-0.0079	21.0250	0.6694	15.4794	0.6485	-0.0248	0.7606	0.0143
9.66	-9.4997	-0.0853	-1.5269	-0.0219	-0.0066	-0.0042	20.9293	0.6313	15.7625	0.6485	-0.0248	0.7607	0.0143
9.67	-9.4997	-0.1130	-1.5405	-0.0222	-0.0053	-0.0051	20.8116	0.5405	15.6234	0.6485	-0.0248	0.7607	0.0143
9.68	-9.4951	-0.1235	-1.5417	-0.0215	-0.0053	-0.0088	20.7520	0.5873	15.8712	0.6485	-0.0248	0.7606	0.0143
9.69	-9.4961	-0.1271	-1.5256	-0.0177	-0.0094	-0.0029	20.8380	0.5441	15.9507	0.6486	-0.0248	0.7607	0.0143
9.7	-9.5081	-0.1266	-1.5294	-0.0193	-0.0087	-0.0050	20.9041	0.6114	15.8506	0.6485	-0.0248	0.7606	0.0143
9.71	-9.5000	-0.1175	-1.5266	-0.0212	-0.0023	-0.0074	20.5555	0.6696	16.0712	0.6486	-0.0248	0.7607	0.0143
9.72	-9.4947	-0.1143	-1.5268	-0.0209	-0.0004	-0.0091	21.0276	0.5607	15.8650	0.6485	-0.0248	0.7606	0.0143
9.73	-9.4930	-0.1185	-1.5254	-0.0167	-0.0012	-0.0070	21.2562	0.6842	15.7429	0.6485	-0.0248	0.7607	0.0143
9.74	-9.5042	-0.1227	-1.5300	-0.0151	-0.0040	-0.0034	21.0715	0.8057	15.8544	0.6485	-0.0248	0.7607	0.0142
9.75	-9.4935	-0.1037	-1.5264	-0.0158	-0.0041	-0.0049	20.9336	0.8847	16.0434	0.6485	-0.0248	0.7606	0.0142
9.76	-9.5010	-0.1116	-1.5223	-0.0135	-0.0039	-0.0027	20.7893	0.6196	15.7221	0.6485	-0.0247	0.7607	0.0142
9.77	-9.5064	-0.1164	-1.5247	-0.0169	-0.0042	-0.0034	20.7599	0.7776	15.9084	0.6485	-0.0247	0.7607	0.0142
9.78	-9.5116	-0.1101	-1.5238	-0.0227	-0.0038	-0.0037	20.6944	0.6437	15.8505	0.6485	-0.0247	0.7607	0.0142
9.79	-9.5023	-0.1159	-1.5241	-0.0165	-0.0039	-0.0024	20.7747	0.6708	15.8116	0.6484	-0.0247	0.7606	0.0142
9.8	-9.4966	-0.1066	-1.5142	-0.0155	-0.0105	-0.0019	20.9348	0.4093	15.8365	0.6485	-0.0247	0.7607	0.0142
9.81	-9.4978	-0.1042	-1.5257	-0.0235	-0.0010	-0.0034	21.0527	0.4692	15.8498	0.6485	-0.0247	0.7607	0.0142
9.82	-9.5002	-0.0891	-1.5110	-0.0163	-0.0075	-0.0043	21.0792	0.6887	15.7591	0.6485	-0.0246	0.7607	0.0142
9.83	-9.5004	-0.0833	-1.5120	-0.0175	-0.0089	-0.0044	21.2259	0.5631	15.7327	0.6485	-0.0246	0.7606	0.0141
9.84	-9.5090	-0.0803	-1.5086	-0.0204	-0.0048	-0.0037	21.0610	0.4444	15.8918	0.6485	-0.0246	0.7607	0.0141
9.85	-9.5103	-0.0788	-1.5169	-0.0150	-0.0059	-0.0042	20.9974	0.3947	15.9474	0.6485	-0.0246	0.7607	0.0141
9.86	-9.4987	-0.0866	-1.5107	-0.0163	-0.0046	-0.0067	20.8377	0.3937	15.8349	0.6485	-0.0246	0.7606	0.0141
9.87	-9.5065	-0.0753	-1.5069	-0.0220	-0.0032	-0.0065	21.0978	0.5200	15.8274	0.6486	-0.0246	0.7607	0.0141
9.88	-9.5026	-0.0833	-1.5153	-0.0151	-0.0057	-0.0047	21.0893	0.4432	15.8541	0.6485	-0.0245	0.7606	0.0141
9.89	-9.5004	-0.0833	-1.5155	-0.0199	-0.0056	-0.0061	20.9726	0.6335	15.7744	0.6486	-0.0245	0.7607	0.0141
9.9	-9.5008	-0.0822	-1.5290	-0.0175	-0.0020	-0.0075	20.8532	0.6524	15.6184	0.6485	-0.0245	0.7606	0.0140
9.91	-9.4970	-0.0918	-1.5348	-0.0174	0.0003	-0.0047	21.0149	0.6714	15.9249	0.6485	-0.0245	0.7607	0.0140
9.92	-9.4944	-0.0917	-1.5302	-0.0126	-0.0042	-0.0027	20.6444	0.7481	16.0332	0.6485	-0.0245	0.7607	0.0140
9.93	-9.4952	-0.0901	-1.5343	-0.0185	0.0034	-0.0080	20.7543	0.7272	15.9109	0.6484	-0.0245	0.7607	0.0140
9.94	-9.5013	-0.0803	-1.5250	-0.0132	-0.0023	-0.0040	20.9022	0.6374	15.8162	0.6485	-0.0245	0.7608	0.0140
9.95	-9.5044	-0.0894	-1.5333	-0.0147	0.0031	-0.0077	20.6287	0.5302	15.6872	0.6484	-0.0245	0.7607	0.0139
9.96	-9.5040	-0.0889	-1.5290	-0.0141	0.0016	-0.0055	20.8379	0.6202	15.6236	0.6485	-0.0245	0.7608	0.0139
9.97	-9.5016	-0.0919	-1.5481	-0.0169	-0.0027	-0.0058	20.6793	0.7594	15.7420	0.6484	-0.0245	0.7607	0.0139
9.98	-9.5003	-0.1028	-1.5457	-0.0189	-0.0024	-0.0060	20.8601	0.4819	15.8476	0.6484	-0.0245	0.7608	0.0139
9.99	-9.5036	-0.1049	-1.5515	-0.0197	-0.0039	-0.0029	21.1446	0.3850	15.8332	0.6484	-0.0244	0.7608	0.0139
10	-9.4894	-0.1162	-1.5554	-0.0190	-0.0040	-0.0067	21.0872	0.4095	15.8435	0.6484	-0.0244	0.7608	0.0138
10.01	-9.4988	-0.1142	-1.5536	-0.0188	-0.0061	-0.0067	21.1527	0.4981	15.8324	0.6484	-0.0244	0.7608	0.0138
10.02	-9.5034	-0.1205	-1.5513	-0.0147	-0.0042	-0.0051	21.0420	0.4762	15.8422	0.6484	-0.0244	0.7608	0.0138
10.03	-9.4970	-0.1211	-1.5393	-0.0187	-0.0056	-0.0064	20.9209	0.3357	15.8279	0.6484	-0.0244	0.7608	0.0138
10.04	-9.5034	-0.1215	-1.5391	-0.0142	-0.0045	-0.0027	20.9782	0.6097	15.8445	0.6483	-0.0244	0.7607	0.0137
10.05	-9.5011	-0.1162	-1.5552	-0.0114	-0.0045	-0.0055	20.8343	0.5156	15.8041	0.6484	-0.0243	0.7608	0.0137
10.06	-9.4987	-0.1098	-1.5467	-0.0125	-0.0051	-0.0049	20.9355	0.5321	15.8901	0.6484	-0.0243	0.7608	0.0137
10.07	-9.5066	-0.1123	-1.5434	-0.0099	-0.0038	-0.0049	21.1784	0.5287	15.9351	0.6484	-0.0243	0.7608	0.0136
10.08	-9.5060	-0.1158	-1.5405	-0.0112	-0.0047	-0.0065	20.8131	0.4560	15.8394	0.6484	-0.0243	0.7608	0.0136
10.09	-9.4970	-0.1092	-1.5421	-0.0187	-0.0024	-0.0088	20.7154	0.6193	15.8993	0.6484	-0.0243	0.7608	0.0136
10.1	-9.5055	-0.1129	-1.5482	-0.0120	-0.0000	-0.0047	20.8227	0.6842	15.8156	0.6484	-0.0243	0.7608	0.0136
10.11	-9.5091	-0.0989	-1.5320	-0.0191	-0.0063	-0.0049	20.7696	0.8344	16.1189	0.6483	-0.0243	0.7608	0.0136
10.12	-9.5019	-0.1017	-1.5329	-0.0215	-0.0012	-0.0041	20.7905	0.7905	15.9607	0.6484	-0.0243	0.7609	0.0136
10.13	-9.4919	-0.0897	-1.5173	-0.0158	-0.0032	-0.0054	20.9408	0.5702	16.0283	0.6483	-0.0243	0.7608	0.0135
10.14	-9.5131	-0.0901	-1.5256	-0.0216	-0.0008	-0.0116	20.9052	0.5683	15.7179	0.6484	-0.0243	0.7609	0.0135
10.15	-9.5020	-0.0950	-1.5226	-0.0191	-0.0054	-0.0076	20.8549	0.5664	15.8507	0.6483	-0.0243	0.7608	0.0135
10.16	-9.5034	-0.0890	-1.5199	-0.0209	-0.0021	-0.0033	20.8794	0.5638	16.0235	0.6483	-0.0243	0.7609	0.0135
10.17	-9.5044	-0.0969	-1.5217	-0.0197	-0.0100	-0.0077	20.8740	0.4014	16.0365	0.6484	-0.0243	0.7608	0.0135
10.18	-9.4953	-0.0935	-1.5253	-0.0084	-0.0068	-0.0050	21.1293	0.4170	15.8499	0.6483	-0.0243	0.7608	0.0135
10.19	-9.4953	-0.0900	-1.5024	-0.0176	-0.0013	-0.0098	21.1912	0.3871	15.7494	0.6484	-0.0243	0.7609	0.0134
10.2	-9.5007	-0.0927	-1.5180	-0.0181	-0.0064	-0.0085	21.1052	0.5902	15.8510	0.6483	-0.0242	0.7608	0.0134
10.21	-9.5117	-0.0943	-1.5190	-0.0144	-0.0046	-0.0040	21.0724	0.4481	15.8787	0.6484	-0.0242	0.7609	0.0133
10.22	-9.4988	-0.0894	-1.5112	-0.0191	-0.0037	-0.0042	20.9824	0.3685	16.0284	0.6483	-0.0242	0.7608	0.0133
10.23	-9.5043	-0.0928	-1.5294	-0.0221	-0.0067	-0.0064	21.3909	0.7519	16.0134	0.6484	-0.0242	0.7608	0.0133
10.24	-9.4960	-0.1069	-1.5271	-0.0240	-0.0081	-0.0059	21.2418	0.7283	15.9757	0.6484	-0.0242	0.7608	0.0133
10.25	-9.4846	-0.1068	-1.5208	-0.0204	-0.0034	-0.0043	21.0058	0.7519	15.8899	0.6484	-0.0242	0.7608	0.0133
10.26	-9.4964	-0.0925	-1.5318	-0.0220	-0.0056	-0.0076	20.7873	0.7397	15.7114	0.6484	-0.0242	0.7608	0.0133
10.27	-9.5016	-0.0931	-1.5282	-0.0226	-0.0057	-0.0101	20.6679	0.5862	15.6257	0.6484	-0.0242	0.7608	0.0133
10.28	-9.5081	-0.0863	-1.5357	-0.0205	-0.0032	-0.0086	20.8288	0.5681	15.7914	0.6484	-0.0243	0.7609	0.0133
10.29	-9.5107	-0.0980	-1.5444	-0.0196	-0.0017	-0.0061	20.5654	0.5501	15.8891	0.6483	-0.0243	0.7608	0.0133
10.3	-9.4892	-0.0932	-1.5415	-0.0166	-0.0025	-0.0062	20.6069	0.6891	15.8721	0.6484	-0.0243	0.7609	0.0133
10.31	-9.4845	-0.0988	-1.5346	-0.0202	-0.0013	-0.0057	20.8763	0.5791	15.7619	0.6483	-0.0243	0.7608	0.0133
10.32	-9.4962	-0.1037	-1.5379	-0.0196	-0.0013	-0.0105	20.6984	0.6290	15.8808	0.6483	-0.0243	0.7609	0.0133
10.33	-9.5054	-0.1030	-1.5370	-0.0217	-0.0051	-0.0048	20.5776	0.6555	15.8966	0.6483	-0.0243	0.7608	0.0133
10.34	-9.5093	-0.1038	-1.5379	-0.0230	-0.0036	-0.0065	20.7047	0.5383	15.7388	0.6483	-0.0243	0.7609	0.0133
10.35	-9.5062	-0.1007	-1.5290	-0.0203	-0.0114	-0.0044	20.6777	0.7650	15.9078	0.6484	-0.0243	0.7609	0.0133
10.36	-9.4983	-0.1025	-1.5296	-0.0159	-0.0062	-0.0082	20.9395	0.6363	15.7239	0.6483	-0.0243	0.7608	0.0133
10.37	-9.5052	-0.1006	-1.5371	-0.0191	-0.0042	-0.0071	21.0011	0.6809	15.5168	0.6484	-0.0243	0.7609	0.0132
10.38	-9.5132	-0.1007	-1.5343	-0.0199	-0.0040	-0.0043	21.0244	0.7433	15.6699	0.6483	-0.0243	0.7608	0.0132
10.39	-9.4995	-0.1001	-1.5362	-0.0186	-0.0048	-0.0070	20.9278	0.5181	15.6003	0.6484	-0.0243	0.7609	0.0132
10.4	-9.4900	-0.1071	-1.5244	-0.0183	-0.0039	-0.0050	20.9298	0.3632	15.7395	0.6483	-0.0243	0.7608	0.0132
10.41	-9.4929	-0.1120	-1.5273	-0.0183	-0.0040	-0.0023	20.8876	0.6955	15.7065	0.6483	-0.0242	0.7609	0.0131
10.42	-9.5050	-0.1013	-1.5223	-0.0222	-0.0049	-0.0078	20.8388	0.8449	15.7208	0.6483	-0.0242	0.7609	0.0131
10.43	-9.5066	-0.1032	-1.5202	-0.0216	-0.0056	-0.0061	20.7510	0.5340	15.9969	0.6483	-0.0243	0.7608	0.0131
10.44	-9.5019	-0.1015	-1.5144	-0.0198	-0.0022	-0.0076	20.8509	0.5891	15.9554	0.6484	-0.0243	0.7609	0.0131
10.45	-9.5034	-0.0977	-1.5133	-0.0234	-0.0077	-0.0033	20.9295	0.5517	15.7525	0.6483	-0.0242	0.7608	0.0131
10.46	-9.5017	-0.0958	-1.5148	-0.0214	-0.0058	-0.0078	20.7336	0.5996	15.8625	0.6484	-0.0243	0.7609	0.0131
10.47	-9.5039	-0.1001	-1.5104	-0.0156	-0.0028	-0.0097	20.7682	0.4536	16.0143	0.6483	-0.0243	0.7608	0.0131
10.48	-9.5086	-0.1020	-1.5276	-0.0225	-0.0018	-0.0061	20.8337	0.5350	15.7032	0.6483	-0.0243	0.7609	0.0131
10.49	-9.5024	-0.1003	-1.5271	-0.0218	-0.0051	-0.0064	20.7210	0.6933	15.8078	0.6483	-0.0243	0.7609	0.0131
10.5	-9.4893	-0.1032	-1.5175	-0.0224	-0.0013	-0.0087	20.8203	0.6190	15.9317	0.6483	-0.0243	0.7609	0.0131
10.51	-9.4952	-0.1073	-1.5266	-0.0218	-0.0052	-0.0035	20.9458	0.7679	15.7685	0.6483	-0.0243	0.7609	0.0131
10.52	-9.5027	-0.1118	-1.5266	-0.0222	-0.0026	-0.0031	20.7480	0.5840	15.9443	0.6483	-0.0243	0.7609	0.0131
10.53	-9.4971	-0.0994	-1.5191	-0.0230	-0.0028	-0.0053	20.6359	0.7594	15.7980	0.6483	-0.0243	0.7609	0.0131
10.54	-9.5038	-0.0940	-1.5249	-0.0227	-0.0104	-0.0031	20.7641	0.5706	15.7963	0.6483	-0.0243	0.7608	0.0131
10.55	-9.5042	-0.0991	-1.5353	-0.0230	-0.0081	-0.0015	20.8571	0.3686	15.8152	0.6484	-0.0243	0.7609	0.0132
10.56	-9.5014	-0.0941	-1.5280	-0.0229	-0.0052	-0.0033	20.8191	0.5732	15.6281	0.6483	-0.0243	0.7608	0.0132
10.57	-9.4974	-0.1009	-1.5253	-0.0231	-0.0065	-0.0095	20.9143	0.5648	15.6864	0.6484	-0.0244	0.7609	0.0132
10.58	-9.4882	-0.1048	-1.5351	-0.0227	-0.0052	-0.0054	20.9226	0.5844	15.8210	0.6483	-0.0244	0.7608	0.0132
10.59	-9.5092	-0.1066	-1.5324	-0.0230	-0.0044	-0.0080	20.7967	0.4280	16.0473	0.6483	-0.0244	0.7608	0.0132
10.6	-9.4963	-0.0995	-1.5288	-0.0229	-0.0035	-0.0042	20.8790	0.4190	15.6611	0.6483	-0.0244	0.7609	0.0132
10.61	-9.5005	-0.0957	-1.5184	-0.0226	-0.0044	-0.0049	20.7323	0.6678	15.6832	0.6483	-0.0244	0.7608	0.0132
10.62	-9.5123	-0.0860	-1.5328	-0.0226	-0.0042	-0.0032	20.8853	0.6468	15.7337	0.6484	-0.0244	0.7609	0.0132
10.63	-9.4934	-0.0895	-1.5293	-0.0227	-0.0025	-0.0117	20.7642	0.6507	15.6956	0.6483	-0.0245	0.7608	0.0132
10.64	-9.4997	-0.0879	-1.5317	-0.0228	-0.0071	-0.0077	20.8351	0.4294	15.7601	0.6484	-0.0245	0.7609	0.0132
10.65	-9.5003	-0.0825	-1.5439	-0.0231	-0.0043	-0.0082	20.7372	0.7769	16.0155	0.6483	-0.0245	0.7608	0.0132
10.66	-9.4993	-0.0798	-1.5340	-0.0226	-0.0029	-0.0067	20.8932	0.7908	15.7980	0.6483	-0.0245	0.7609	0.0132
10.67	-9.5027	-0.0790	-1.5431	-0.0229	-0.0032	-0.0094	20.7054	0.5762	15.8731	0.6483	-0.0246	0.7609	0.0132
10.68	-9.5044	-0.0843	-1.5492	-0.0234	-0.0064	-0.0104	20.7269	0.7641	15.8105	0.6483	-0.0246	0.7608	0.0132
10.69	-9.5031	-0.0884	-1.5349	-0.0229	-0.0052	-0.0091	20.8552	0.7080	15.7084	0.6484	-0.0246	0.7609	0.0132
10.7	-9.5011	-0.1090	-1.5402	-0.0207	-0.0027	-0.0092	20.8556	0.6475	15.8093	0.6483	-0.0246	0.7608	0.0132
10.71	-9.5079	-0.1072	-1.5438	-0.0222	-0.0031	-0.0051	20.7526	0.6175	15.6337	0.6483	-0.0247	0.7609	0.0132
10.72	-9.5071	-0.1084	-1.5385	-0.0211	-0.0051	-0.0065	20.9046	0.4402	16.0064	0.6483	-0.0247	0.7608	0.0132
10.73	-9.5048	-0.1039	-1.5286	-0.0231	-0.0125	-0.0038	21.2122	0.7634	16.0927	0.6484	-0.0247	0.7609	0.0132
10.74	-9.4956	-0.1039	-1.5283	-0.0194	-0.0100	-0.0056	21.1174	0.6448	15.8553	0.6484	-0.0247	0.7608	0.0132
10.75	-9.5042	-0.0924	-1.5496	-0.0194	-0.0088	-0.0055	20.9603	0.3871	15.9124	0.6484	-0.0247	0.7608	0.0132
10.76	-9.5011	-0.0923	-1.5498	-0.0189	-0.0051	-0.0052	20.8949	0.4113	15.8045	0.6484	-0.0247	0.7608	0.0132
10.77	-9.5005	-0.0953	-1.5381	-0.0215	-0.0038	-0.0051	21.0856	0.4811	15.7847	0.6484	-0.0246	0.7608	0.0132
10.78	-9.5099	-0.0912	-1.5443	-0.0225	-0.0044	-0.0053	20.8913	0.4651	15.9655	0.6484	-0.0247	0.7608	0.0132
10.79	-9.5065	-0.1020	-1.5199	-0.0230	-0.0073	-0.0042	20.7642	0.4005	15.8115	0.6483	-0.0247	0.7607	0.0132
10.8	-9.5020	-0.1068	-1.5211	-0.0225	-0.0124	-0.0082	20.8668	0.6309	15.6840	0.6484	-0.0247	0.7608	0.0132
10.81	-9.5148	-0.1025	-1.5180	-0.0226	-0.0119	-0.0041	20.8974	0.4407	15.8323	0.6484	-0.0247	0.7607	0.0132
10.82	-9.5039	-0.1127	-1.5132	-0.0206	-0.0102	-0.0021	21.1727	0.6310	15.9476	0.6485	-0.0247	0.7608	0.0133
10.83	-9.4848	-0.1053	-1.5225	-0.0217	-0.0119	-0.0050	20.7836	0.4713	15.8013	0.6485	-0.0247	0.7607	0.0133
10.84	-9.4949	-0.1103	-1.5305	-0.0233	-0.0098	-0.0060	20.8252	0.6764	15.7987	0.6485	-0.0247	0.7607	0.0133
10.85	-9.5031	-0.1117	-1.5263	-0.0202	-0.0045	-0.0069	20.8108	0.7852	15.8718	0.6485	-0.0247	0.7607	0.0133
10.86	-9.4954	-0.1130	-1.5165	-0.0204	-0.0009	-0.0068	20.7595	0.7365	15.8976	0.6484	-0.0248	0.7606	0.0133
10.87	-9.5044	-0.1090	-1.5108	-0.0192	-0.0048	-0.0082	20.7661	0.7673	15.9124	0.6485	-0.0248	0.7607	0.0133
10.88	-9.5069	-0.1000	-1.5133	-0.0225	-0.0017	-0.0115	20.8085	0.7426	15.9877	0.6485	-0.0248	0.7607	0.0133
10.89	-9.5050	-0.1031	-1.5199	-0.0219	-0.0084	-0.0100	20.8697	0.7704	15.7911	0.6485	-0.0248	0.7608	0.0132
10.9	-9.5048	-0.1071	-1.5222	-0.0221	-0.0107	-0.0046	20.8666	0.7422	15.8268	0.6485	-0.0248	0.7606	0.0133
10.91	-9.4904	-0.1126	-1.5269	-0.0210	-0.0111	-0.0082	20.6050	0.6661	15.6725	0.6485	-0.0249	0.7607	0.0133
10.92	-9.4934	-0.1091	-1.5304	-0.0174	-0.0058	-0.0100	20.7276	0.4652	15.8026	0.6486	-0.0249	0.7607	0.0132
10.93	-9.5005	-0.1106	-1.5245	-0.0219	-0.0061	-0.0062	21.0664	0.4016	15.8242	0.6485	-0.0249	0.7606	0.0132
10.94	-9.5053	-0.1085	-1.5194	-0.0221	-0.0069	-0.0058	20.8977	0.6196	15.8276	0.6486	-0.0249	0.7607	0.0132
10.95	-9.5150	-0.1025	-1.5300	-0.0220	-0.0064	-0.0074	20.9713	0.7348	15.7787	0.6486	-0.0249	0.7606	0.0132
10.96	-9.5019	-0.0941	-1.5320	-0.0221	-0.0084	-0.0052	20.8647	0.7224	15.6905	0.6486	-0.0249	0.7607	0.0132
10.97	-9.4836	-0.0973	-1.5227	-0.0219	-0.0061	-0.0084	20.8616	0.5729	15.8278	0.6485	-0.0249	0.7606	0.0132
10.98	-9.5048	-0.0968	-1.5400	-0.0209	-0.0086	-0.0082	20.7367	0.4888	15.8135	0.6486	-0.0249	0.7606	0.0132
10.99	-9.5052	-0.1025	-1.5307	-0.0223	-0.0047	-0.0086	20.8572	0.5354	15.8124	0.6486	-0.0250	0.7606	0.0132
11	-9.5010	-0.0997	-1.5278	-0.0222	-0.0084	-0.0029	21.0479	0.4207	15.8409	0.6486	-0.0250	0.7606	0.0132
11.01	-9.4976	-0.0987	-1.5312	-0.0222	-0.0053	-0.0067	20.9221	0.5283	15.7027	0.6486	-0.0249	0.7606	0.0132
11.02	-9.5073	-0.0851	-1.5400	-0.0221	-0.0041	-0.0083	20.7002	0.6041	15.7710	0.6486	-0.0250	0.7606	0.0132
11.03	-9.4966	-0.0832	-1.5353	-0.0175	-0.0002	-0.0062	20.7293	0.5849	16.0245	0.6486	-0.0250	0.7606	0.0132
11.04	-9.4989	-0.0812	-1.5232	-0.0140	-0.0010	-0.0075	20.8687	0.5861	15.8913	0.6485	-0.0250	0.7606	0.0132
11.05	-9.5112	-0.0807	-1.5285	-0.0241	-0.0001	-0.0082	20.8483	0.6078	15.8051	0.6486	-0.0250	0.7607	0.0132
11.06	-9.5112	-0.0865	-1.5264	-0.0204	-0.0057	-0.0065	20.8669	0.6993	15.8065	0.6486	-0.0250	0.7606	0.0132
11.07	-9.5052	-0.0824	-1.5268	-0.0206	-0.0014	-0.0080	20.8060	0.6503	15.8633	0.6486	-0.0250	0.7607	0.0132
11.08	-9.5080	-0.0914	-1.5295	-0.0200	-0.0021	-0.0120	20.6508	0.7704	16.0264	0.6485	-0.0251	0.7606	0.0131
11.09	-9.5051	-0.0999	-1.5235	-0.0206	-0.0046	-0.0068	20.7547	0.6270	15.6754	0.6485	-0.0251	0.7606	0.0131
11.1	-9.4971	-0.1006	-1.5279	-0.0194	-0.0115	-0.0043	20.9211	0.7325	15.6812	0.6486	-0.0251	0.7606	0.0131
11.11	-9.5002	-0.0896	-1.5218	-0.0204	-0.0073	-0.0049	20.7320	0.4825	15.7486	0.6485	-0.0251	0.7606	0.0131
11.12	-9.5136	-0.0814	-1.5306	-0.0166	-0.0017	-0.0037	21.0108	0.5474	15.7217	0.6486	-0.0250	0.7607	0.0131
11.13	-9.5104	-0.0843	-1.5268	-0.0210	-0.0015	-0.0068	20.9763	0.4264	15.8829	0.6486	-0.0250	0.7606	0.0131
11.14	-9.5186	-0.0972	-1.5363	-0.0193	-0.0044	-0.0078	20.9271	0.3070	15.7205	0.6486	-0.0251	0.7607	0.0131
11.15	-9.4994	-0.1086	-1.5353	-0.0215	-0.0063	-0.0087	20.9491	0.4387	15.7624	0.6485	-0.0251	0.7606	0.0131
11.16	-9.4932	-0.1104	-1.5402	-0.0224	-0.0053	-0.0069	20.7217	0.4435	15.6730	0.6486	-0.0251	0.7606	0.0131
11.17	-9.5018	-0.1145	-1.5351	-0.0194	-0.0054	-0.0024	20.8512	0.5294	15.6881	0.6486	-0.0251	0.7606	0.0131
11.18	-9.5081	-0.1105	-1.5303	-0.0183	-0.0033	-0.0032	20.8614	0.5061	15.7401	0.6485	-0.0251	0.7606	0.0131
11.19	-9.5085	-0.1141	-1.5345	-0.0195	-0.0100	-0.0057	20.8574	0.4976	15.7406	0.6486	-0.0251	0.7607	0.0131
11.2	-9.5012	-0.1039	-1.5294	-0.0167	-0.0069	-0.0070	20.9861	0.5523	15.8302	0.6486	-0.0251	0.7606	0.0131
11.21	-9.5127	-0.0970	-1.5418	-0.0216	-0.0002	-0.0061	20.8350	0.5968	15.8598	0.6486	-0.0251	0.7607	0.0131
11.22	-9.5023	-0.0989	-1.5448	-0.0159	-0.0002	-0.0054	21.0099	0.6673	15.9995	0.6485	-0.0251	0.7606	0.0131
11.23	-9.5037	-0.0929	-1.5401	-0.0203	-0.0022	-0.0040	21.1128	0.7918	16.1131	0.6486	-0.0251	0.7607	0.0131
11.24	-9.5032	-0.0960	-1.5392	-0.0245	-0.0065	-0.0075	20.9157	0.7314	16.1706	0.6486	-0.0251	0.7606	0.0131
11.25	-9.4939	-0.0940	-1.5393	-0.0180	-0.0033	-0.0032	21.0394	0.7582	16.0766	0.6485	-0.0251	0.7606	0.0131
11.26	-9.4959	-0.0978	-1.5295	-0.0138	-0.0046	-0.0126	20.7627	0.6185	15.8952	0.6486	-0.0251	0.7607	0.0130
11.27	-9.4988	-0.1000	-1.5335	-0.0194	-0.0070	-0.0066	20.8193	0.5284	15.9128	0.6486	-0.0251	0.7606	0.0130
11.28	-9.4955	-0.0916	-1.5288	-0.0171	0.0000	-0.0050	20.7033	0.5813	16.0288	0.6486	-0.0251	0.7607	0.0130
11.29	-9.5043	-0.1075	-1.5201	-0.0181	-0.0086	-0.0039	20.7279	0.4602	15.8462	0.6485	-0.0251	0.7606	0.0130
11.3	-9.4969	-0.1016	-1.5161	-0.0190	-0.0106	-0.0009	20.9223	0.4873	16.0598	0.6486	-0.0251	0.7606	0.0130
11.31	-9.5030	-0.1026	-1.5154	-0.0209	-0.0103	-0.0037	20.8304	0.4536	15.6756	0.6486	-0.0251	0.7606	0.0130
11.32	-9.5115	-0.0977	-1.5142	-0.0222	-0.0098	-0.0041	20.9642	0.5541	15.7388	0.6486	-0.0251	0.7606	0.0131
11.33	-9.4997	-0.0989	-1.5183	-0.0201	-0.0047	-0.0078	20.7886	0.5559	15.9352	0.6486	-0.0251	0.7606	0.0131
11.34	-9.4985	-0.0996	-1.5178	-0.0219	-0.0050	-0.0030	21.0798	0.5767	15.7476	0.6486	-0.0251	0.7606	0.0130
11.35	-9.5013	-0.1076	-1.5289	-0.0215	-0.0074	-0.0008	20.6815	0.6872	15.6587	0.6487	-0.0251	0.7606	0.0130
11.36	-9.4978	-0.1148	-1.5390	-0.0202	-0.0098	-0.0084	20.7507	0.5212	15.5854	0.6486	-0.0251	0.7605	0.0130
11.37	-9.4987	-0.1176	-1.5221	-0.0198	-0.0051	-0.0073	20.6514	0.6886	15.8662	0.6487	-0.0251	0.7606	0.0130
11.38	-9.4994	-0.1253	-1.5132	-0.0201	-0.0061	-0.0036	20.7151	0.6892	15.7123	0.6487	-0.0251	0.7605	0.0130
11.39	-9.5094	-0.1068	-1.5096	-0.0230	-0.0088	-0.0034	20.9701	0.6211	15.7845	0.6487	-0.0251	0.7606	0.0131
11.4	-9.5013	-0.0957	-1.5155	-0.0223	-0.0041	-0.0075	20.7754	0.6493	15.8044	0.6487	-0.0251	0.7605	0.0131
