time	acceleration_x	acceleration_y	acceleration_z	gyroscope_x	gyroscope_y	gyroscope_z	magnetometer_x	magnetometer_y	magnetometer_z	quaternion_w	quaternion_x	quaternion_y	quaternion_z
0	-5.3486	-0.1420	-0.8616	0.0103	0.0017	0.0026	25.6387	4.4947	4.6776	-0.2604	-0.2770	-0.3149	0.2425
0.01	-10.5630	-0.2809	-1.6961	0.0160	-0.0002	0.0103	50.5743	8.9079	9.1147	-0.5146	-0.5474	-0.6223	0.4790
0.02	-9.2915	-0.2550	-1.4898	0.0136	-0.0049	0.0065	44.2170	8.0584	7.7482	-0.4529	-0.4818	-0.5476	0.4216
0.03	-9.9812	-0.2749	-1.5923	0.0231	0.0017	0.0035	47.5769	8.7511	8.4106	-0.4862	-0.5173	-0.5880	0.4527
0.04	-9.5539	-0.2652	-1.5291	0.0136	0.0031	0.0069	45.3666	8.2126	7.8458	-0.4655	-0.4953	-0.5630	0.4334
0.05	-9.8257	-0.2734	-1.5755	0.0174	-0.0070	0.0066	46.6306	8.7231	8.1839	-0.4788	-0.5094	-0.5790	0.4458
0.06	-9.6591	-0.2676	-1.5538	0.0198	-0.0029	0.0067	45.9498	8.2995	8.0409	-0.4703	-0.5005	-0.5688	0.4380
0.07	-9.7615	-0.2699	-1.5696	0.0175	0.0025	0.0077	46.3429	8.4098	8.1329	-0.4755	-0.5060	-0.5750	0.4428
0.08	-9.6976	-0.2629	-1.5540	0.0219	-0.0030	0.0035	46.0600	8.4462	8.0628	-0.4725	-0.5029	-0.5714	0.4400
0.09	-9.7342	-0.2572	-1.5586	0.0185	-0.0037	0.0054	46.0693	8.3130	8.2028	-0.4740	-0.5045	-0.5732	0.4415
0.1	-9.7170	-0.2551	-1.5645	0.0099	-0.0014	0.0041	46.1183	8.3813	8.1725	-0.4733	-0.5039	-0.5724	0.4409
0.11	-9.7141	-0.2548	-1.5647	0.0150	-0.0040	0.0030	46.2023	8.4356	8.1961	-0.4733	-0.5038	-0.5724	0.4409
0.12	-9.7142	-0.2575	-1.5709	0.0175	0.0008	0.0109	46.0109	8.4177	8.0931	-0.4733	-0.5039	-0.5724	0.4409
0.13	-9.7233	-0.2624	-1.5720	0.0137	-0.0078	0.0113	46.1581	8.4181	8.0863	-0.4733	-0.5039	-0.5724	0.4409
0.14	-9.7208	-0.2664	-1.5686	0.0148	-0.0060	0.0071	46.1100	8.4391	8.0893	-0.4734	-0.5039	-0.5724	0.4409
0.15	-9.7200	-0.2637	-1.5667	0.0150	-0.0081	0.0071	46.1701	8.3566	7.8697	-0.4734	-0.5039	-0.5723	0.4409
0.16	-9.7237	-0.2550	-1.5733	0.0178	-0.0059	0.0041	46.4130	8.3416	8.1369	-0.4734	-0.5039	-0.5723	0.4410
0.17	-9.7208	-0.2509	-1.5719	0.0157	-0.0109	0.0021	46.1968	8.2277	8.2876	-0.4734	-0.5039	-0.5723	0.4410
0.18	-9.7215	-0.2457	-1.5664	0.0181	-0.0067	0.0141	46.1188	8.3147	8.2993	-0.4734	-0.5039	-0.5723	0.4410
0.19	-9.7220	-0.2402	-1.5709	0.0205	-0.0103	0.0101	46.0411	8.3497	8.1027	-0.4734	-0.5040	-0.5722	0.4410
0.2	-9.7211	-0.2360	-1.5677	0.0174	-0.0045	0.0017	46.2420	8.3367	7.9999	-0.4734	-0.5040	-0.5722	0.4411
0.21	-9.7164	-0.2394	-1.5650	0.0191	-0.0049	0.0109	46.2890	8.3471	8.2616	-0.4734	-0.5040	-0.5722	0.4411
0.22	-9.7189	-0.2434	-1.5691	0.0176	-0.0106	0.0103	46.3185	8.3363	8.0895	-0.4734	-0.5040	-0.5721	0.4411
0.23	-9.7213	-0.2453	-1.5641	0.0147	-0.0079	0.0063	46.0458	8.4119	8.0930	-0.4734	-0.5040	-0.5721	0.4411
0.24	-9.7188	-0.2544	-1.5612	0.0167	-0.0038	0.0038	45.9356	8.4444	8.0895	-0.4734	-0.5040	-0.5721	0.4411
0.25	-9.7173	-0.2565	-1.5638	0.0100	-0.0061	-0.0007	46.1495	8.3565	8.2477	-0.4734	-0.5040	-0.5721	0.4412
0.26	-9.7163	-0.2552	-1.5653	0.0217	0.0021	0.0025	46.0431	8.3804	8.0019	-0.4734	-0.5040	-0.5721	0.4412
0.27	-9.7220	-0.2518	-1.5617	0.0211	-0.0064	0.0022	46.0647	8.6282	7.9961	-0.4733	-0.5040	-0.5720	0.4412
0.28	-9.7164	-0.2524	-1.5592	0.0164	-0.0098	0.0067	46.0036	8.4317	8.1265	-0.4733	-0.5040	-0.5720	0.4413
0.29	-9.7129	-0.2490	-1.5548	0.0123	-0.0046	0.0026	45.9816	8.4179	8.2602	-0.4733	-0.5040	-0.5720	0.4413
0.3	-9.7232	-0.2489	-1.5610	0.0171	-0.0057	0.0033	46.1569	8.4213	8.2007	-0.4733	-0.5040	-0.5720	0.4413
0.31	-9.7218	-0.2530	-1.5582	0.0170	-0.0010	0.0086	46.1020	8.4252	8.0448	-0.4733	-0.5040	-0.5720	0.4413
0.32	-9.7174	-0.2555	-1.5577	0.0180	-0.0062	0.0110	46.1672	8.4176	8.1557	-0.4733	-0.5041	-0.5719	0.4413
0.33	-9.7172	-0.2602	-1.5541	0.0152	-0.0067	0.0070	46.2732	8.4403	8.1955	-0.4733	-0.5041	-0.5719	0.4413
0.34	-9.7214	-0.2588	-1.5647	0.0120	-0.0013	0.0119	46.3121	8.3284	8.1002	-0.4733	-0.5041	-0.5719	0.4413
0.35	-9.7162	-0.2615	-1.5661	0.0153	-0.0024	0.0080	46.2452	8.3627	7.9474	-0.4733	-0.5041	-0.5719	0.4413
0.36	-9.7186	-0.2645	-1.5629	0.0175	-0.0038	0.0120	46.2356	8.4725	8.1411	-0.4733	-0.5042	-0.5718	0.4413
0.37	-9.7253	-0.2644	-1.5694	0.0193	-0.0035	0.0084	46.3320	8.3109	8.1999	-0.4733	-0.5042	-0.5718	0.4413
0.38	-9.7182	-0.2575	-1.5704	0.0176	-0.0009	0.0124	46.0558	8.4732	8.1802	-0.4733	-0.5042	-0.5718	0.4413
0.39	-9.7148	-0.2570	-1.5741	0.0200	-0.0034	0.0085	46.0680	8.3365	8.2972	-0.4733	-0.5043	-0.5718	0.4413
0.4	-9.7146	-0.2571	-1.5754	0.0177	-0.0095	0.0084	46.1986	8.4254	8.2522	-0.4733	-0.5043	-0.5717	0.4414
0.41	-9.7164	-0.2616	-1.5748	0.0173	-0.0066	0.0123	46.2099	8.3254	8.2846	-0.4733	-0.5043	-0.5717	0.4414
0.42	-9.7194	-0.2655	-1.5747	0.0166	-0.0085	0.0069	46.2974	8.2787	8.1450	-0.4734	-0.5043	-0.5716	0.4414
0.43	-9.7199	-0.2641	-1.5696	0.0075	-0.0024	0.0015	46.1216	8.5008	8.2394	-0.4734	-0.5043	-0.5717	0.4414
0.44	-9.7207	-0.2623	-1.5739	0.0152	-0.0039	0.0019	46.1207	8.2917	8.2950	-0.4733	-0.5043	-0.5717	0.4414
0.45	-9.7196	-0.2641	-1.5747	0.0153	-0.0023	0.0054	46.2063	8.5620	8.1441	-0.4733	-0.5043	-0.5716	0.4414
0.46	-9.7156	-0.2613	-1.5710	0.0221	-0.0056	0.0032	46.3498	8.4533	8.0814	-0.4733	-0.5043	-0.5716	0.4415
0.47	-9.7197	-0.2572	-1.5685	0.0200	-0.0082	0.0069	46.1494	8.4231	8.0999	-0.4733	-0.5043	-0.5716	0.4415
0.48	-9.7244	-0.2598	-1.5672	0.0218	-0.0024	0.0019	46.0482	8.3454	8.0805	-0.4733	-0.5043	-0.5716	0.4415
0.49	-9.7225	-0.2581	-1.5701	0.0172	-0.0065	0.0065	46.2151	8.3287	8.2222	-0.4733	-0.5043	-0.5715	0.4416
0.5	-9.7166	-0.2558	-1.5670	0.0189	-0.0138	0.0100	46.7277	8.6959	8.2997	-0.4733	-0.5043	-0.5715	0.4416
0.51	-9.7175	-0.2550	-1.5640	0.0202	-0.0076	0.0079	46.5410	8.4534	8.2681	-0.4733	-0.5044	-0.5714	0.4416
0.52	-9.7158	-0.2547	-1.5616	0.0193	-0.0048	0.0087	46.2191	8.2585	8.0849	-0.4733	-0.5044	-0.5714	0.4417
0.53	-9.7143	-0.2513	-1.5617	0.0184	-0.0045	0.0050	46.2593	8.3374	8.1863	-0.4733	-0.5044	-0.5714	0.4417
0.54	-9.7187	-0.2513	-1.5602	0.0153	-0.0036	0.0050	46.1355	8.3770	8.0820	-0.4733	-0.5044	-0.5714	0.4417
0.55	-9.7180	-0.2471	-1.5561	0.0196	-0.0049	0.0083	46.2320	8.3410	8.0596	-0.4733	-0.5044	-0.5713	0.4417
0.56	-9.7185	-0.2472	-1.5643	0.0131	-0.0007	0.0025	46.0882	8.2046	8.0677	-0.4733	-0.5044	-0.5713	0.4417
0.57	-9.7217	-0.2510	-1.5648	0.0162	-0.0056	0.0083	46.2498	8.5459	8.2364	-0.4733	-0.5044	-0.5713	0.4417
0.58	-9.7207	-0.2536	-1.5687	0.0123	-0.0079	0.0096	45.8462	8.3216	8.1675	-0.4733	-0.5045	-0.5713	0.4417
0.59	-9.7188	-0.2551	-1.5633	0.0140	-0.0001	0.0079	45.9771	8.2226	8.1349	-0.4733	-0.5045	-0.5713	0.4417
0.6	-9.7199	-0.2545	-1.5633	0.0216	0.0005	0.0057	46.0349	8.3404	8.2912	-0.4733	-0.5045	-0.5713	0.4418
0.61	-9.7217	-0.2536	-1.5675	0.0122	0.0005	0.0032	46.0513	8.4997	8.1370	-0.4732	-0.5045	-0.5713	0.4418
0.62	-9.7189	-0.2505	-1.5619	0.0143	-0.0033	0.0050	45.9492	8.6785	7.8451	-0.4732	-0.5045	-0.5713	0.4418
0.63	-9.7199	-0.2533	-1.5643	0.0193	0.0010	0.0013	45.9825	8.5229	8.0066	-0.4732	-0.5045	-0.5713	0.4418
0.64	-9.7205	-0.2531	-1.5683	0.0180	0.0017	0.0039	45.8906	8.4593	8.0670	-0.4732	-0.5046	-0.5713	0.4418
0.65	-9.7170	-0.2492	-1.5692	0.0152	0.0048	0.0001	45.9346	8.5261	8.0815	-0.4731	-0.5046	-0.5713	0.4418
0.66	-9.7177	-0.2494	-1.5658	0.0143	0.0029	0.0044	45.9510	8.6755	8.3637	-0.4731	-0.5046	-0.5713	0.4418
0.67	-9.7206	-0.2489	-1.5654	0.0143	0.0012	0.0002	45.7557	8.5925	8.2551	-0.4731	-0.5046	-0.5713	0.4418
0.68	-9.7275	-0.2518	-1.5670	0.0092	0.0018	0.0029	45.9563	8.4076	8.0836	-0.4731	-0.5046	-0.5713	0.4418
0.69	-9.7175	-0.2554	-1.5638	0.0125	-0.0022	0.0034	46.0113	8.6185	8.2614	-0.4731	-0.5046	-0.5713	0.4418
0.7	-9.7177	-0.2562	-1.5620	0.0125	0.0007	0.0053	46.0520	8.2351	8.1150	-0.4731	-0.5046	-0.5713	0.4418
0.71	-9.7217	-0.2559	-1.5616	0.0143	-0.0089	0.0080	46.1492	8.1447	8.2084	-0.4731	-0.5046	-0.5713	0.4418
0.72	-9.7182	-0.2578	-1.5596	0.0181	-0.0083	0.0026	46.2433	8.1284	8.0205	-0.4731	-0.5046	-0.5713	0.4418
0.73	-9.7201	-0.2632	-1.5599	0.0125	-0.0075	0.0084	46.0862	8.3248	7.9459	-0.4731	-0.5046	-0.5713	0.4419
0.74	-9.7211	-0.2639	-1.5653	0.0105	-0.0096	0.0026	46.0603	8.5116	8.2218	-0.4731	-0.5046	-0.5713	0.4419
0.75	-9.7208	-0.2660	-1.5680	0.0176	-0.0028	0.0002	46.0852	8.3116	8.3962	-0.4731	-0.5046	-0.5713	0.4419
0.76	-9.7151	-0.2658	-1.5669	0.0136	-0.0022	0.0040	45.9987	8.3132	8.1412	-0.4731	-0.5046	-0.5713	0.4419
0.77	-9.7201	-0.2651	-1.5637	0.0192	-0.0086	0.0032	46.1422	8.3238	8.1757	-0.4731	-0.5046	-0.5712	0.4419
0.78	-9.7264	-0.2625	-1.5663	0.0146	-0.0044	0.0080	46.1001	8.2945	7.9647	-0.4731	-0.5046	-0.5712	0.4420
0.79	-9.7220	-0.2566	-1.5707	0.0190	-0.0044	-0.0011	45.9472	8.1825	8.1072	-0.4731	-0.5046	-0.5712	0.4420
0.8	-9.7203	-0.2538	-1.5745	0.0161	-0.0008	0.0005	46.0345	8.3950	8.1553	-0.4730	-0.5046	-0.5712	0.4420
0.81	-9.7222	-0.2599	-1.5802	0.0145	-0.0040	0.0035	46.0258	8.6146	8.2733	-0.4730	-0.5046	-0.5712	0.4420
0.82	-9.7208	-0.2655	-1.5815	0.0204	-0.0034	0.0026	45.9036	8.4921	8.1209	-0.4730	-0.5046	-0.5712	0.4421
0.83	-9.7147	-0.2644	-1.5825	0.0104	-0.0023	0.0038	45.7884	8.4780	8.0778	-0.4730	-0.5046	-0.5712	0.4421
0.84	-9.7182	-0.2645	-1.5757	0.0161	-0.0067	-0.0007	45.9478	8.4595	8.2759	-0.4730	-0.5046	-0.5712	0.4421
0.85	-9.7249	-0.2603	-1.5742	0.0172	-0.0003	0.0009	45.9786	8.5198	8.2008	-0.4730	-0.5046	-0.5712	0.4421
0.86	-9.7159	-0.2560	-1.5705	0.0153	0.0037	-0.0002	46.0661	8.5624	8.0715	-0.4729	-0.5046	-0.5712	0.4421
0.87	-9.7183	-0.2473	-1.5686	0.0104	-0.0010	0.0012	45.9466	8.5964	8.0425	-0.4729	-0.5046	-0.5712	0.4421
0.88	-9.7227	-0.2440	-1.5652	0.0103	-0.0031	0.0030	46.0449	8.3076	8.1663	-0.4729	-0.5046	-0.5712	0.4421
0.89	-9.7191	-0.2369	-1.5659	0.0128	-0.0123	0.0016	46.0456	8.2804	8.1580	-0.4729	-0.5045	-0.5712	0.4422
0.9	-9.7175	-0.2368	-1.5538	0.0138	-0.0054	0.0048	46.2110	8.4656	8.0995	-0.4729	-0.5045	-0.5712	0.4422
0.91	-9.7213	-0.2362	-1.5503	0.0140	-0.0036	0.0058	46.1858	8.2833	7.9498	-0.4729	-0.5045	-0.5712	0.4422
0.92	-9.7263	-0.2425	-1.5549	0.0117	-0.0014	0.0097	46.1167	8.3345	8.1231	-0.4729	-0.5045	-0.5712	0.4422
0.93	-9.7166	-0.2477	-1.5493	0.0171	-0.0043	0.0070	46.0723	8.3050	8.1587	-0.4729	-0.5046	-0.5712	0.4422
0.94	-9.7182	-0.2550	-1.5483	0.0171	-0.0069	0.0022	46.0058	8.3196	8.1441	-0.4729	-0.5046	-0.5711	0.4422
0.95	-9.7214	-0.2554	-1.5563	0.0177	-0.0019	0.0034	46.1408	8.3162	8.2507	-0.4729	-0.5046	-0.5711	0.4422
0.96	-9.7166	-0.2584	-1.5556	0.0162	-0.0104	0.0096	46.2195	8.1834	8.1129	-0.4729	-0.5046	-0.5711	0.4423
0.97	-9.7164	-0.2496	-1.5576	0.0195	-0.0046	0.0039	46.1419	8.3608	8.2330	-0.4729	-0.5046	-0.5711	0.4423
0.98	-9.7172	-0.2474	-1.5565	0.0085	-0.0067	0.0050	46.0104	8.4917	8.2331	-0.4729	-0.5046	-0.5711	0.4423
0.99	-9.7141	-0.2468	-1.5646	0.0065	-0.0011	0.0005	46.1450	8.5882	8.3455	-0.4729	-0.5046	-0.5711	0.4423
1	-9.7161	-0.2514	-1.5657	0.0129	-0.0050	0.0014	46.5291	8.3647	8.6485	-0.4729	-0.5045	-0.5711	0.4423
1.01	-9.7217	-0.2548	-1.5685	0.0109	0.0017	0.0040	46.5323	8.4932	8.4706	-0.4729	-0.5045	-0.5711	0.4423
1.02	-9.7173	-0.2599	-1.5709	0.0056	-0.0064	0.0078	46.1084	8.5633	8.3074	-0.4729	-0.5045	-0.5711	0.4423
1.03	-9.7198	-0.2676	-1.5697	0.0214	-0.0007	0.0036	46.0098	8.4540	8.3407	-0.4729	-0.5045	-0.5711	0.4423
1.04	-9.7216	-0.2708	-1.5707	0.0172	-0.0000	0.0022	46.1843	8.5180	8.3715	-0.4729	-0.5046	-0.5711	0.4423
1.05	-9.7246	-0.2683	-1.5781	0.0131	-0.0082	0.0069	46.1941	8.3596	8.2411	-0.4729	-0.5046	-0.5711	0.4423
1.06	-9.7214	-0.2670	-1.5835	0.0214	-0.0074	0.0078	46.2212	8.4526	8.4048	-0.4729	-0.5046	-0.5710	0.4424
1.07	-9.7134	-0.2644	-1.5786	0.0211	-0.0112	0.0121	45.9662	8.4020	8.4004	-0.4729	-0.5046	-0.5710	0.4424
1.08	-9.7224	-0.2640	-1.5840	0.0208	-0.0108	0.0105	46.1004	8.2625	8.3281	-0.4729	-0.5046	-0.5709	0.4424
1.09	-9.7225	-0.2632	-1.5831	0.0181	-0.0094	0.0062	46.5195	8.3539	8.3709	-0.4729	-0.5046	-0.5709	0.4424
1.1	-9.7219	-0.2607	-1.5795	0.0124	-0.0075	0.0070	46.2509	8.2817	8.3520	-0.4729	-0.5046	-0.5709	0.4425
1.11	-9.7218	-0.2612	-1.5789	0.0159	-0.0101	0.0061	46.1856	8.3709	8.1307	-0.4730	-0.5046	-0.5708	0.4425
1.12	-9.7225	-0.2650	-1.5736	0.0165	-0.0031	0.0029	46.2130	8.4737	8.0590	-0.4729	-0.5046	-0.5708	0.4425
1.13	-9.7218	-0.2611	-1.5671	0.0121	-0.0027	0.0044	46.1958	8.4982	8.1082	-0.4729	-0.5046	-0.5708	0.4425
1.14	-9.7185	-0.2586	-1.5656	0.0155	-0.0061	0.0030	46.0671	8.4292	8.2103	-0.4729	-0.5046	-0.5708	0.4425
1.15	-9.7208	-0.2611	-1.5616	0.0190	-0.0071	0.0048	46.0169	8.3778	8.3391	-0.4729	-0.5046	-0.5708	0.4426
1.16	-9.7259	-0.2513	-1.5549	0.0157	-0.0102	0.0048	46.0467	8.3992	8.4377	-0.4729	-0.5046	-0.5708	0.4426
1.17	-9.7158	-0.2489	-1.5453	0.0162	-0.0032	0.0062	46.2266	8.2840	8.3362	-0.4729	-0.5046	-0.5708	0.4426
1.18	-9.7162	-0.2535	-1.5454	0.0162	-0.0094	0.0011	46.0208	8.3479	8.1687	-0.4729	-0.5046	-0.5708	0.4426
1.19	-9.7192	-0.2584	-1.5549	0.0121	-0.0091	0.0046	46.1142	8.4952	8.2459	-0.4729	-0.5046	-0.5707	0.4426
1.2	-9.7193	-0.2645	-1.5598	0.0064	-0.0065	0.0015	46.1206	8.4522	8.3613	-0.4730	-0.5046	-0.5707	0.4427
1.21	-9.7141	-0.2643	-1.5562	0.0093	-0.0005	0.0073	46.1128	8.3944	8.2193	-0.4730	-0.5046	-0.5708	0.4426
1.22	-9.7218	-0.2575	-1.5549	0.0217	-0.0058	0.0115	46.1253	8.3386	8.3245	-0.4730	-0.5046	-0.5707	0.4427
1.23	-9.7232	-0.2541	-1.5641	0.0146	-0.0044	0.0028	46.1002	8.2844	8.4718	-0.4730	-0.5046	-0.5707	0.4427
1.24	-9.7145	-0.2532	-1.5533	0.0161	-0.0013	0.0024	46.1413	8.5438	8.1679	-0.4729	-0.5046	-0.5707	0.4427
1.25	-9.7153	-0.2532	-1.5614	0.0147	-0.0103	0.0060	46.0662	8.5625	8.2329	-0.4730	-0.5046	-0.5707	0.4427
1.26	-9.7190	-0.2497	-1.5643	0.0188	-0.0100	0.0077	46.0226	8.5172	8.2054	-0.4730	-0.5046	-0.5706	0.4427
1.27	-9.7183	-0.2491	-1.5601	0.0169	-0.0095	0.0127	46.1317	8.2536	8.0592	-0.4730	-0.5047	-0.5706	0.4427
1.28	-9.7210	-0.2527	-1.5653	0.0178	-0.0070	0.0055	46.1372	8.3843	8.2415	-0.4730	-0.5047	-0.5706	0.4428
1.29	-9.7234	-0.2593	-1.5653	0.0083	-0.0084	0.0069	46.2412	8.3400	8.2843	-0.4730	-0.5047	-0.5706	0.4428
1.3	-9.7226	-0.2591	-1.5679	0.0104	-0.0103	0.0139	46.0878	8.2968	8.1758	-0.4731	-0.5047	-0.5705	0.4428
1.31	-9.7148	-0.2545	-1.5701	0.0097	-0.0057	0.0025	46.3510	8.5101	8.1726	-0.4731	-0.5046	-0.5705	0.4428
1.32	-9.7214	-0.2518	-1.5700	0.0186	0.0007	0.0114	46.1670	8.4962	8.1746	-0.4731	-0.5047	-0.5705	0.4428
1.33	-9.7225	-0.2495	-1.5787	0.0115	-0.0081	0.0046	45.8878	8.6084	8.1695	-0.4731	-0.5047	-0.5705	0.4428
1.34	-9.7143	-0.2446	-1.5821	0.0175	-0.0107	0.0052	46.1847	8.3511	8.0799	-0.4731	-0.5047	-0.5705	0.4428
1.35	-9.7197	-0.2479	-1.5772	0.0143	-0.0082	0.0086	46.2671	8.4360	8.3400	-0.4731	-0.5047	-0.5704	0.4428
1.36	-9.7247	-0.2454	-1.5723	0.0083	0.0000	0.0011	45.9925	8.5010	8.3438	-0.4731	-0.5047	-0.5705	0.4428
1.37	-9.7157	-0.2510	-1.5674	0.0173	0.0044	0.0042	46.1195	8.3907	8.3527	-0.4730	-0.5047	-0.5705	0.4428
1.38	-9.7171	-0.2532	-1.5625	0.0173	-0.0012	0.0022	46.2995	8.3954	8.3475	-0.4730	-0.5047	-0.5705	0.4428
1.39	-9.7181	-0.2550	-1.5625	0.0223	0.0006	0.0051	46.2634	8.4031	8.2181	-0.4730	-0.5047	-0.5705	0.4428
1.4	-9.7154	-0.2596	-1.5628	0.0184	-0.0039	0.0060	46.0929	8.3778	8.3586	-0.4730	-0.5048	-0.5704	0.4428
1.41	-9.7166	-0.2638	-1.5640	0.0149	-0.0068	0.0035	46.1497	8.4888	8.2559	-0.4730	-0.5048	-0.5704	0.4429
1.42	-9.7262	-0.2700	-1.5703	0.0211	-0.0025	0.0035	46.1592	8.4636	8.2605	-0.4729	-0.5048	-0.5704	0.4429
1.43	-9.7230	-0.2635	-1.5621	0.0150	0.0003	0.0024	45.9968	8.3409	8.2604	-0.4729	-0.5048	-0.5704	0.4429
1.44	-9.7120	-0.2657	-1.5648	0.0156	-0.0132	0.0114	46.0497	8.5064	8.2599	-0.4729	-0.5048	-0.5704	0.4429
1.45	-9.7156	-0.2642	-1.5671	0.0119	-0.0115	0.0113	46.1187	8.3474	8.2595	-0.4730	-0.5048	-0.5703	0.4429
1.46	-9.7232	-0.2547	-1.5671	0.0189	-0.0032	0.0040	46.5097	8.3496	8.1422	-0.4730	-0.5048	-0.5703	0.4429
1.47	-9.7218	-0.2555	-1.5756	0.0161	-0.0055	0.0094	46.4980	8.4007	8.2620	-0.4730	-0.5048	-0.5703	0.4430
1.48	-9.7197	-0.2519	-1.5755	0.0152	0.0034	0.0069	46.1780	8.0896	8.2729	-0.4730	-0.5048	-0.5703	0.4429
1.49	-9.7199	-0.2619	-1.5810	0.0165	-0.0008	0.0042	46.2972	8.4153	8.3785	-0.4729	-0.5049	-0.5703	0.4429
1.5	-9.7164	-0.2670	-1.5777	0.0108	-0.0069	0.0106	46.7336	8.6582	8.4909	-0.4730	-0.5049	-0.5703	0.4429
1.51	-9.7185	-0.2651	-1.5719	0.0080	-0.0003	0.0070	46.5825	8.5439	8.3726	-0.4730	-0.5049	-0.5703	0.4429
1.52	-9.7272	-0.2562	-1.5678	0.0066	-0.0026	0.0015	46.0612	8.3556	8.1011	-0.4730	-0.5049	-0.5703	0.4429
1.53	-9.7248	-0.2539	-1.5696	0.0150	-0.0039	0.0069	46.0546	8.4726	8.0508	-0.4730	-0.5049	-0.5703	0.4429
1.54	-9.7177	-0.2491	-1.5644	0.0064	-0.0080	0.0094	45.9870	8.6826	8.1179	-0.4730	-0.5049	-0.5703	0.4429
1.55	-9.7221	-0.2398	-1.5623	0.0051	-0.0029	0.0037	45.8796	8.5339	7.9318	-0.4730	-0.5049	-0.5703	0.4429
1.56	-9.7216	-0.2401	-1.5610	0.0065	-0.0037	0.0033	46.0173	8.6113	8.2829	-0.4730	-0.5048	-0.5703	0.4429
1.57	-9.7189	-0.2377	-1.5560	0.0071	0.0029	0.0043	46.0217	8.4532	8.0991	-0.4730	-0.5048	-0.5704	0.4428
1.58	-9.7199	-0.2450	-1.5549	0.0041	0.0062	-0.0001	45.9587	8.4324	7.9974	-0.4730	-0.5048	-0.5704	0.4428
1.59	-9.7193	-0.2515	-1.5517	0.0094	-0.0033	0.0048	45.9710	8.5939	8.2181	-0.4730	-0.5048	-0.5704	0.4428
1.6	-9.7217	-0.2589	-1.5532	0.0134	-0.0067	0.0021	45.9949	8.4427	8.0058	-0.4730	-0.5048	-0.5704	0.4428
1.61	-9.7123	-0.2629	-1.5534	0.0078	-0.0017	-0.0005	46.0875	8.5084	8.1752	-0.4730	-0.5048	-0.5704	0.4428
1.62	-9.7142	-0.2634	-1.5547	0.0107	-0.0062	0.0038	45.9676	8.4611	8.1545	-0.4730	-0.5048	-0.5704	0.4428
1.63	-9.7204	-0.2614	-1.5592	0.0130	-0.0034	0.0097	45.9635	8.5072	8.0881	-0.4730	-0.5048	-0.5704	0.4428
1.64	-9.7258	-0.2603	-1.5639	0.0105	-0.0006	0.0014	46.1480	8.2938	8.1824	-0.4730	-0.5048	-0.5704	0.4428
1.65	-9.7206	-0.2503	-1.5593	0.0161	-0.0035	0.0092	46.2612	8.2105	7.9643	-0.4730	-0.5048	-0.5704	0.4428
1.66	-9.7251	-0.2500	-1.5663	0.0107	-0.0018	0.0081	46.1058	8.3318	8.1911	-0.4730	-0.5048	-0.5704	0.4428
1.67	-9.7234	-0.2514	-1.5663	0.0087	-0.0086	0.0024	46.1552	8.3233	8.1715	-0.4730	-0.5048	-0.5704	0.4428
1.68	-9.7169	-0.2535	-1.5702	0.0123	-0.0045	0.0092	46.0974	8.3033	7.9854	-0.4730	-0.5048	-0.5704	0.4428
1.69	-9.7136	-0.2576	-1.5689	0.0099	-0.0112	0.0050	45.9647	8.3922	8.0732	-0.4730	-0.5048	-0.5704	0.4428
1.7	-9.7224	-0.2598	-1.5728	0.0101	-0.0032	0.0056	46.0612	8.4902	8.1723	-0.4731	-0.5048	-0.5704	0.4428
1.71	-9.7222	-0.2618	-1.5811	0.0161	0.0022	0.0033	46.0536	8.5054	8.1880	-0.4730	-0.5048	-0.5704	0.4428
1.72	-9.7198	-0.2620	-1.5726	0.0151	-0.0037	0.0072	46.0469	8.6103	8.0770	-0.4730	-0.5048	-0.5704	0.4428
1.73	-9.7235	-0.2612	-1.5736	0.0121	-0.0005	0.0053	46.0615	8.4499	8.1710	-0.4730	-0.5048	-0.5704	0.4427
1.74	-9.7244	-0.2575	-1.5795	0.0094	0.0010	0.0017	46.1326	8.6273	8.1478	-0.4730	-0.5048	-0.5704	0.4427
1.75	-9.7142	-0.2577	-1.5726	0.0048	0.0034	0.0016	46.0026	8.6258	8.0617	-0.4730	-0.5048	-0.5705	0.4427
1.76	-9.7172	-0.2539	-1.5695	0.0116	0.0032	0.0017	45.8785	8.4603	8.3110	-0.4730	-0.5048	-0.5705	0.4427
1.77	-9.7261	-0.2539	-1.5746	0.0096	0.0041	0.0005	45.9870	8.5771	8.0965	-0.4729	-0.5048	-0.5705	0.4427
1.78	-9.7188	-0.2537	-1.5666	0.0054	0.0041	0.0043	46.0726	8.5665	8.1326	-0.4729	-0.5048	-0.5706	0.4426
1.79	-9.7189	-0.2540	-1.5709	0.0179	0.0010	-0.0005	46.0493	8.5591	8.1131	-0.4729	-0.5048	-0.5706	0.4426
1.8	-9.7181	-0.2536	-1.5699	0.0089	-0.0045	0.0023	45.9889	8.5848	8.0615	-0.4729	-0.5048	-0.5706	0.4427
1.81	-9.7214	-0.2554	-1.5696	0.0128	-0.0032	0.0043	46.0416	8.4330	8.1772	-0.4729	-0.5048	-0.5706	0.4426
1.82	-9.7148	-0.2546	-1.5642	0.0181	-0.0036	0.0108	46.1070	8.2714	7.8958	-0.4729	-0.5049	-0.5706	0.4426
1.83	-9.7183	-0.2552	-1.5719	0.0181	0.0000	0.0051	46.1457	8.4013	8.1874	-0.4729	-0.5049	-0.5706	0.4427
1.84	-9.7223	-0.2553	-1.5666	0.0111	0.0022	0.0041	46.1292	8.4178	8.1553	-0.4728	-0.5049	-0.5706	0.4426
1.85	-9.7196	-0.2554	-1.5663	0.0072	-0.0023	0.0021	46.1274	8.2556	8.2016	-0.4728	-0.5049	-0.5706	0.4426
1.86	-9.7198	-0.2565	-1.5639	0.0148	-0.0009	0.0052	46.1729	8.4555	8.1022	-0.4728	-0.5049	-0.5706	0.4426
1.87	-9.7202	-0.2556	-1.5651	0.0139	-0.0093	0.0090	46.2585	8.4981	8.0738	-0.4728	-0.5049	-0.5706	0.4426
1.88	-9.7174	-0.2562	-1.5642	0.0159	-0.0036	0.0034	46.0688	8.4020	8.1802	-0.4728	-0.5049	-0.5706	0.4426
1.89	-9.7165	-0.2549	-1.5588	0.0122	0.0055	0.0087	46.0967	8.4927	8.0347	-0.4728	-0.5050	-0.5706	0.4426
1.9	-9.7230	-0.2588	-1.5646	0.0077	0.0016	0.0048	45.8994	8.2908	8.1598	-0.4728	-0.5050	-0.5706	0.4426
1.91	-9.7229	-0.2638	-1.5641	0.0129	-0.0069	0.0061	45.9742	8.3976	8.1834	-0.4728	-0.5050	-0.5706	0.4426
1.92	-9.7156	-0.2565	-1.5637	0.0106	-0.0068	0.0047	46.0545	8.5366	8.2489	-0.4728	-0.5050	-0.5706	0.4426
1.93	-9.7141	-0.2564	-1.5632	0.0094	-0.0009	0.0013	45.9341	8.5509	8.1153	-0.4728	-0.5049	-0.5706	0.4426
1.94	-9.7148	-0.2570	-1.5675	0.0191	-0.0069	0.0041	45.9882	8.6510	8.2640	-0.4728	-0.5049	-0.5706	0.4426
1.95	-9.7150	-0.2566	-1.5700	0.0186	-0.0054	0.0009	46.0394	8.6354	8.1471	-0.4728	-0.5050	-0.5706	0.4426
1.96	-9.7204	-0.2535	-1.5656	0.0094	0.0009	0.0034	46.0827	8.2968	8.0460	-0.4728	-0.5050	-0.5706	0.4426
1.97	-9.7166	-0.2523	-1.5626	0.0164	-0.0015	-0.0004	45.9822	8.5625	8.3791	-0.4727	-0.5050	-0.5706	0.4426
1.98	-9.7200	-0.2473	-1.5651	0.0149	-0.0031	0.0029	45.8888	8.5615	8.1237	-0.4727	-0.5050	-0.5706	0.4426
1.99	-9.7165	-0.2498	-1.5605	0.0099	-0.0040	0.0025	46.0758	8.5712	8.2282	-0.4727	-0.5050	-0.5706	0.4426
2	-9.7165	-0.2568	-1.5662	0.0099	-0.0128	0.0038	46.3762	8.7234	8.3397	-0.4727	-0.5049	-0.5706	0.4427
2.01	-9.7231	-0.2591	-1.5644	0.0091	-0.0116	0.0103	46.3967	8.6187	8.2828	-0.4728	-0.5049	-0.5706	0.4427
2.02	-9.7173	-0.2626	-1.5638	0.0201	-0.0110	0.0088	46.1279	8.1441	8.4343	-0.4728	-0.5049	-0.5706	0.4427
2.03	-9.7188	-0.2628	-1.5724	0.0161	-0.0122	0.0076	46.3078	8.5484	8.2189	-0.4728	-0.5049	-0.5705	0.4427
2.04	-9.7206	-0.2655	-1.5747	0.0167	-0.0078	0.0087	46.2527	8.3259	8.3041	-0.4728	-0.5050	-0.5705	0.4427
2.05	-9.7193	-0.2639	-1.5768	0.0151	-0.0116	0.0069	46.1666	8.2155	8.3466	-0.4728	-0.5050	-0.5705	0.4427
2.06	-9.7142	-0.2585	-1.5749	0.0196	0.0006	0.0090	46.0621	8.5724	8.0826	-0.4728	-0.5050	-0.5704	0.4427
2.07	-9.7132	-0.2548	-1.5728	0.0149	-0.0084	0.0068	46.1085	8.4757	8.2023	-0.4728	-0.5050	-0.5704	0.4427
2.08	-9.7172	-0.2547	-1.5752	0.0160	-0.0074	0.0067	46.2708	8.5221	8.2475	-0.4728	-0.5050	-0.5704	0.4428
2.09	-9.7231	-0.2565	-1.5749	0.0183	-0.0109	0.0105	46.0581	8.4981	8.2088	-0.4729	-0.5050	-0.5704	0.4428
2.1	-9.7238	-0.2553	-1.5799	0.0197	-0.0054	0.0089	45.9897	8.6101	8.2513	-0.4728	-0.5050	-0.5703	0.4428
2.11	-9.7220	-0.2601	-1.5779	0.0147	0.0012	0.0056	45.9984	8.3886	8.1575	-0.4728	-0.5051	-0.5703	0.4428
2.12	-9.7202	-0.2603	-1.5834	0.0147	-0.0067	0.0010	46.0741	8.5184	8.1347	-0.4728	-0.5051	-0.5703	0.4428
2.13	-9.7115	-0.2579	-1.5765	0.0135	-0.0009	0.0053	46.0969	8.4884	8.2311	-0.4728	-0.5051	-0.5703	0.4428
2.14	-9.7173	-0.2510	-1.5780	0.0187	-0.0036	0.0060	46.0611	8.2648	8.1135	-0.4728	-0.5051	-0.5703	0.4428
2.15	-9.7194	-0.2478	-1.5792	0.0163	-0.0063	0.0015	45.9143	8.4528	8.1909	-0.4728	-0.5051	-0.5703	0.4428
2.16	-9.7149	-0.2382	-1.5751	0.0164	0.0006	0.0032	45.9931	8.2974	8.3596	-0.4727	-0.5051	-0.5703	0.4428
2.17	-9.7220	-0.2363	-1.5740	0.0119	-0.0074	0.0099	46.1243	8.5060	8.3658	-0.4728	-0.5051	-0.5703	0.4428
2.18	-9.7237	-0.2416	-1.5715	0.0186	-0.0089	0.0077	46.0064	8.2535	8.1693	-0.4728	-0.5051	-0.5703	0.4429
2.19	-9.7219	-0.2417	-1.5588	0.0187	-0.0040	0.0067	46.0555	8.4049	8.3376	-0.4728	-0.5052	-0.5702	0.4429
2.2	-9.7220	-0.2436	-1.5536	0.0179	-0.0084	0.0068	46.2766	8.5080	8.2224	-0.4728	-0.5052	-0.5702	0.4429
2.21	-9.7191	-0.2511	-1.5563	0.0162	-0.0063	0.0081	46.0980	8.3045	8.2105	-0.4728	-0.5052	-0.5702	0.4429
2.22	-9.7194	-0.2580	-1.5552	0.0193	-0.0112	0.0051	46.0766	8.5088	8.0945	-0.4728	-0.5052	-0.5702	0.4429
2.23	-9.7138	-0.2681	-1.5516	0.0143	-0.0054	0.0036	46.0969	8.1991	8.2694	-0.4728	-0.5052	-0.5702	0.4429
2.24	-9.7191	-0.2751	-1.5559	0.0164	-0.0090	0.0068	46.0599	8.4142	8.0868	-0.4728	-0.5052	-0.5701	0.4430
2.25	-9.7156	-0.2736	-1.5478	0.0139	-0.0100	0.0120	46.1430	8.3906	8.4056	-0.4728	-0.5052	-0.5701	0.4430
2.26	-9.7162	-0.2667	-1.5468	0.0146	-0.0117	0.0065	46.1184	8.5320	8.2804	-0.4728	-0.5052	-0.5701	0.4430
2.27	-9.7204	-0.2618	-1.5479	0.0142	-0.0056	0.0047	45.8912	8.3668	7.9991	-0.4728	-0.5052	-0.5701	0.4430
2.28	-9.7234	-0.2558	-1.5567	0.0183	-0.0065	0.0072	46.0684	8.5192	8.2216	-0.4728	-0.5052	-0.5700	0.4430
2.29	-9.7220	-0.2548	-1.5646	0.0151	-0.0113	0.0054	46.2795	8.5556	8.2227	-0.4728	-0.5052	-0.5700	0.4430
2.3	-9.7142	-0.2542	-1.5638	0.0116	-0.0051	0.0033	46.0736	8.4944	8.2453	-0.4728	-0.5052	-0.5700	0.4430
2.31	-9.7191	-0.2609	-1.5738	0.0167	-0.0039	0.0036	46.0013	8.4787	8.0930	-0.4728	-0.5052	-0.5700	0.4431
2.32	-9.7208	-0.2624	-1.5697	0.0097	-0.0078	-0.0020	46.1141	8.6005	8.3786	-0.4728	-0.5052	-0.5700	0.4431
2.33	-9.7203	-0.2664	-1.5746	0.0100	-0.0113	0.0028	46.0453	8.6562	8.3025	-0.4728	-0.5052	-0.5700	0.4431
2.34	-9.7195	-0.2702	-1.5737	0.0140	-0.0017	0.0026	46.2060	8.3771	7.9839	-0.4728	-0.5052	-0.5700	0.4431
2.35	-9.7211	-0.2693	-1.5716	0.0064	-0.0046	0.0028	45.9998	8.5598	8.2496	-0.4728	-0.5052	-0.5700	0.4431
2.36	-9.7161	-0.2655	-1.5761	0.0109	-0.0024	0.0098	45.9031	8.4265	8.1301	-0.4728	-0.5052	-0.5700	0.4431
2.37	-9.7184	-0.2640	-1.5705	0.0205	-0.0086	0.0092	46.2234	8.4166	8.2460	-0.4728	-0.5052	-0.5700	0.4431
2.38	-9.7274	-0.2632	-1.5756	0.0185	-0.0059	0.0030	46.0015	8.4328	8.1935	-0.4728	-0.5052	-0.5700	0.4431
2.39	-9.7239	-0.2602	-1.5803	0.0126	-0.0077	0.0066	46.0969	8.3981	8.0303	-0.4728	-0.5052	-0.5700	0.4431
2.4	-9.7152	-0.2587	-1.5752	0.0131	-0.0094	0.0113	46.1682	8.4988	8.2607	-0.4728	-0.5052	-0.5699	0.4431
2.41	-9.7206	-0.2567	-1.5796	0.0176	-0.0081	0.0046	46.2640	8.5142	8.2111	-0.4728	-0.5052	-0.5699	0.4431
2.42	-9.7190	-0.2577	-1.5755	0.0148	-0.0080	0.0034	46.0807	8.2889	8.2506	-0.4728	-0.5052	-0.5699	0.4432
2.43	-9.7121	-0.2565	-1.5723	0.0138	-0.0096	0.0057	46.0216	8.5527	8.2071	-0.4729	-0.5052	-0.5699	0.4432
2.44	-9.7142	-0.2540	-1.5685	0.0107	-0.0112	0.0082	46.1084	8.3347	8.2552	-0.4729	-0.5052	-0.5699	0.4432
2.45	-9.7230	-0.2531	-1.5703	0.0119	-0.0084	0.0092	46.0777	8.3446	8.2005	-0.4729	-0.5052	-0.5698	0.4432
2.46	-9.7225	-0.2568	-1.5671	0.0207	-0.0019	0.0076	46.1886	8.4522	8.1524	-0.4729	-0.5052	-0.5698	0.4432
2.47	-9.7177	-0.2535	-1.5623	0.0170	-0.0047	0.0054	45.9681	8.4026	8.0715	-0.4729	-0.5053	-0.5698	0.4432
2.48	-9.7188	-0.2537	-1.5615	0.0082	-0.0014	0.0035	46.1090	8.4335	8.0448	-0.4729	-0.5052	-0.5698	0.4432
2.49	-9.7174	-0.2519	-1.5618	0.0014	-0.0011	0.0055	46.1592	8.5162	8.2691	-0.4729	-0.5052	-0.5699	0.4431
2.5	-9.7165	-0.2542	-1.5593	0.0124	0.0027	-0.0009	46.5055	8.6712	8.3985	-0.4729	-0.5052	-0.5699	0.4431
2.51	-9.7203	-0.2515	-1.5615	0.0124	-0.0050	-0.0015	46.4405	8.5561	8.3827	-0.4729	-0.5052	-0.5699	0.4431
2.52	-9.7263	-0.2501	-1.5712	0.0103	-0.0018	0.0003	45.9123	8.4571	8.1935	-0.4728	-0.5052	-0.5699	0.4431
2.53	-9.7190	-0.2498	-1.5636	0.0098	0.0013	0.0044	45.9474	8.5965	8.1571	-0.4728	-0.5052	-0.5700	0.4431
2.54	-9.7132	-0.2491	-1.5640	0.0174	0.0029	0.0029	45.9737	8.5212	8.2275	-0.4728	-0.5052	-0.5700	0.4431
2.55	-9.7115	-0.2481	-1.5642	0.0114	-0.0003	0.0039	46.0187	8.5581	8.3149	-0.4728	-0.5052	-0.5700	0.4431
2.56	-9.7225	-0.2472	-1.5635	0.0136	-0.0018	0.0077	46.0659	8.4373	7.9896	-0.4728	-0.5052	-0.5700	0.4431
2.57	-9.7247	-0.2480	-1.5621	0.0195	0.0046	0.0141	46.1494	8.3250	8.1103	-0.4728	-0.5053	-0.5700	0.4431
2.58	-9.7156	-0.2466	-1.5518	0.0180	0.0059	0.0094	46.3867	8.2917	8.2299	-0.4727	-0.5054	-0.5700	0.4430
2.59	-9.7191	-0.2462	-1.5536	0.0164	-0.0023	0.0091	46.4503	8.3096	8.0907	-0.4727	-0.5054	-0.5700	0.4430
2.6	-9.7211	-0.2498	-1.5531	0.0138	0.0046	0.0023	46.1839	8.4140	8.2050	-0.4727	-0.5054	-0.5700	0.4430
2.61	-9.7201	-0.2544	-1.5541	0.0121	0.0023	0.0061	45.9446	8.1317	8.0026	-0.4727	-0.5054	-0.5700	0.4430
2.62	-9.7181	-0.2547	-1.5580	0.0042	-0.0030	0.0069	46.3317	8.2084	8.0247	-0.4727	-0.5054	-0.5700	0.4430
2.63	-9.7187	-0.2608	-1.5673	0.0161	-0.0045	0.0045	45.9807	8.3103	8.0044	-0.4727	-0.5054	-0.5700	0.4430
2.64	-9.7240	-0.2661	-1.5783	0.0097	-0.0086	0.0007	46.0964	8.1671	8.1695	-0.4727	-0.5054	-0.5700	0.4430
2.65	-9.7225	-0.2589	-1.5762	0.0163	-0.0051	0.0036	46.1786	8.2889	8.2065	-0.4727	-0.5054	-0.5700	0.4430
2.66	-9.7218	-0.2534	-1.5677	0.0044	-0.0079	0.0056	46.1634	8.3879	8.0851	-0.4727	-0.5054	-0.5700	0.4430
2.67	-9.7163	-0.2437	-1.5710	0.0017	0.0022	0.0112	46.2426	8.3826	8.2232	-0.4727	-0.5054	-0.5700	0.4429
2.68	-9.7218	-0.2446	-1.5678	0.0129	-0.0045	0.0053	46.1126	8.3773	8.1273	-0.4727	-0.5054	-0.5700	0.4429
2.69	-9.7271	-0.2518	-1.5717	0.0101	-0.0080	0.0033	45.9374	8.4189	8.0668	-0.4727	-0.5054	-0.5700	0.4429
2.7	-9.7204	-0.2612	-1.5737	0.0020	-0.0028	0.0046	45.8191	8.6912	8.1085	-0.4727	-0.5054	-0.5700	0.4429
2.71	-9.7194	-0.2743	-1.5732	0.0039	-0.0077	0.0025	45.9708	8.6545	8.3165	-0.4728	-0.5053	-0.5701	0.4429
2.72	-9.7211	-0.2799	-1.5773	0.0059	-0.0066	0.0042	46.0277	8.4353	8.1869	-0.4728	-0.5053	-0.5701	0.4429
2.73	-9.7199	-0.2795	-1.5768	0.0112	0.0011	0.0052	45.8983	8.5379	8.1651	-0.4728	-0.5053	-0.5701	0.4429
2.74	-9.7126	-0.2712	-1.5712	0.0087	-0.0041	0.0029	45.8459	8.5650	8.1905	-0.4728	-0.5053	-0.5701	0.4429
2.75	-9.7166	-0.2628	-1.5755	0.0100	-0.0016	0.0068	45.8076	8.4662	8.1283	-0.4728	-0.5053	-0.5701	0.4428
2.76	-9.7260	-0.2569	-1.5775	0.0169	-0.0060	0.0105	46.2473	8.5325	8.0609	-0.4728	-0.5053	-0.5701	0.4429
2.77	-9.7237	-0.2508	-1.5674	0.0163	-0.0072	0.0130	46.3044	8.5581	8.2204	-0.4728	-0.5054	-0.5700	0.4428
2.78	-9.7204	-0.2449	-1.5672	0.0132	-0.0018	0.0082	46.0378	8.2995	8.1385	-0.4728	-0.5054	-0.5700	0.4428
2.79	-9.7249	-0.2474	-1.5666	0.0132	-0.0067	0.0067	46.2357	8.2921	8.0877	-0.4728	-0.5054	-0.5700	0.4428
2.8	-9.7215	-0.2570	-1.5643	0.0164	0.0012	0.0104	46.0409	8.3686	8.1016	-0.4728	-0.5054	-0.5700	0.4428
2.81	-9.7209	-0.2630	-1.5659	0.0089	-0.0040	0.0069	46.2096	8.4965	8.0938	-0.4728	-0.5054	-0.5700	0.4428
2.82	-9.7213	-0.2668	-1.5622	0.0171	-0.0006	0.0024	46.2689	8.2810	8.1010	-0.4728	-0.5054	-0.5700	0.4428
2.83	-9.7166	-0.2662	-1.5582	0.0112	-0.0050	0.0058	46.3887	8.3868	8.1090	-0.4728	-0.5054	-0.5700	0.4428
2.84	-9.7185	-0.2671	-1.5596	0.0133	-0.0078	0.0059	46.0946	8.3705	8.0796	-0.4728	-0.5054	-0.5700	0.4428
2.85	-9.7123	-0.2612	-1.5582	0.0135	-0.0020	0.0022	46.0286	8.2954	8.2552	-0.4728	-0.5054	-0.5700	0.4428
2.86	-9.7176	-0.2558	-1.5590	0.0063	-0.0039	0.0053	46.0466	8.6280	8.0238	-0.4728	-0.5054	-0.5700	0.4428
2.87	-9.7218	-0.2511	-1.5598	0.0081	-0.0066	0.0078	45.9851	8.6243	8.0612	-0.4728	-0.5054	-0.5700	0.4428
2.88	-9.7186	-0.2498	-1.5644	0.0124	0.0000	0.0050	46.0805	8.6282	8.2033	-0.4728	-0.5054	-0.5700	0.4428
2.89	-9.7224	-0.2549	-1.5698	0.0128	-0.0047	-0.0012	45.9957	8.6239	8.1675	-0.4728	-0.5054	-0.5701	0.4428
2.9	-9.7266	-0.2522	-1.5758	0.0105	-0.0017	0.0011	46.1367	8.6289	8.1646	-0.4728	-0.5054	-0.5701	0.4428
2.91	-9.7157	-0.2542	-1.5724	0.0134	0.0020	0.0047	45.9467	8.6318	8.2817	-0.4728	-0.5054	-0.5701	0.4428
2.92	-9.7148	-0.2551	-1.5692	0.0116	-0.0068	0.0043	46.1616	8.3938	8.1205	-0.4728	-0.5054	-0.5701	0.4428
2.93	-9.7243	-0.2556	-1.5735	0.0122	0.0007	0.0025	45.9390	8.5787	8.1245	-0.4727	-0.5054	-0.5701	0.4428
2.94	-9.7173	-0.2605	-1.5727	0.0161	-0.0055	0.0075	45.9650	8.6185	8.2167	-0.4727	-0.5054	-0.5701	0.4428
2.95	-9.7132	-0.2632	-1.5705	0.0218	0.0032	0.0069	46.2813	8.1908	7.9702	-0.4727	-0.5055	-0.5701	0.4428
2.96	-9.7238	-0.2607	-1.5810	0.0196	0.0010	0.0038	46.3925	8.3222	7.9120	-0.4727	-0.5055	-0.5701	0.4428
2.97	-9.7167	-0.2630	-1.5782	0.0151	-0.0019	0.0014	46.3594	8.3638	7.9799	-0.4726	-0.5055	-0.5701	0.4428
2.98	-9.7156	-0.2637	-1.5743	0.0167	0.0026	0.0077	46.2400	8.1898	8.1199	-0.4726	-0.5055	-0.5701	0.4428
2.99	-9.7249	-0.2599	-1.5755	0.0082	-0.0082	0.0068	46.4116	8.3326	8.2081	-0.4726	-0.5055	-0.5701	0.4428
3	-9.7240	-0.2562	-1.5738	0.0150	-0.0034	0.0115	46.7719	8.4752	8.3460	-0.4726	-0.5055	-0.5701	0.4428
3.01	-9.7203	-0.2585	-1.5728	0.0184	0.0001	0.0039	46.5564	8.5489	8.1616	-0.4726	-0.5056	-0.5701	0.4428
3.02	-9.7176	-0.2541	-1.5701	0.0199	0.0011	0.0074	46.0580	8.4269	8.1229	-0.4726	-0.5056	-0.5700	0.4428
3.03	-9.7221	-0.2556	-1.5679	0.0197	0.0024	0.0087	46.2172	8.4496	8.2441	-0.4726	-0.5056	-0.5700	0.4428
3.04	-9.7205	-0.2528	-1.5694	0.0195	0.0065	0.0078	46.0571	8.5562	8.0837	-0.4725	-0.5057	-0.5700	0.4428
3.05	-9.7161	-0.2509	-1.5639	0.0157	0.0108	0.0092	46.1049	8.5924	8.3375	-0.4725	-0.5058	-0.5701	0.4428
3.06	-9.7201	-0.2517	-1.5631	0.0202	0.0025	0.0071	45.9654	8.4450	8.4312	-0.4724	-0.5058	-0.5700	0.4427
3.07	-9.7169	-0.2530	-1.5640	0.0160	0.0041	0.0078	46.0401	8.3965	8.0669	-0.4724	-0.5058	-0.5700	0.4427
3.08	-9.7201	-0.2544	-1.5630	0.0131	0.0061	0.0073	45.9260	8.4060	8.1382	-0.4724	-0.5059	-0.5701	0.4427
3.09	-9.7198	-0.2536	-1.5638	0.0195	0.0009	0.0070	45.9989	8.4073	8.1449	-0.4724	-0.5059	-0.5701	0.4427
3.1	-9.7167	-0.2489	-1.5604	0.0064	0.0017	0.0036	46.1479	8.4008	8.1878	-0.4723	-0.5059	-0.5701	0.4427
3.11	-9.7168	-0.2576	-1.5646	0.0155	0.0009	-0.0005	46.1384	8.4295	8.2470	-0.4723	-0.5059	-0.5701	0.4427
3.12	-9.7234	-0.2574	-1.5698	0.0182	-0.0056	0.0079	45.9691	8.3081	8.3153	-0.4723	-0.5059	-0.5701	0.4427
3.13	-9.7212	-0.2572	-1.5714	0.0185	-0.0108	0.0086	46.2150	8.4393	8.3385	-0.4723	-0.5059	-0.5701	0.4427
3.14	-9.7119	-0.2547	-1.5666	0.0119	0.0017	0.0059	46.2458	8.5069	8.3214	-0.4723	-0.5059	-0.5701	0.4427
3.15	-9.7173	-0.2525	-1.5732	0.0134	-0.0017	0.0138	46.2541	8.4906	8.0689	-0.4723	-0.5060	-0.5700	0.4427
3.16	-9.7136	-0.2516	-1.5729	0.0221	-0.0073	0.0125	46.2338	8.4931	8.1414	-0.4723	-0.5060	-0.5700	0.4427
3.17	-9.7185	-0.2499	-1.5740	0.0148	-0.0083	0.0070	46.3757	8.3915	8.4078	-0.4723	-0.5060	-0.5700	0.4427
3.18	-9.7237	-0.2545	-1.5714	0.0163	-0.0114	0.0071	46.2189	8.4383	8.2380	-0.4723	-0.5060	-0.5699	0.4427
3.19	-9.7231	-0.2527	-1.5649	0.0184	-0.0013	0.0103	46.0888	8.6053	8.2580	-0.4723	-0.5060	-0.5699	0.4427
3.2	-9.7180	-0.2519	-1.5742	0.0195	-0.0004	0.0080	45.9731	8.5257	8.1018	-0.4723	-0.5061	-0.5699	0.4427
3.21	-9.7172	-0.2533	-1.5729	0.0197	-0.0059	0.0083	45.9536	8.2661	8.0920	-0.4723	-0.5061	-0.5699	0.4428
3.22	-9.7154	-0.2584	-1.5689	0.0198	-0.0088	0.0104	46.2491	8.3519	8.1850	-0.4723	-0.5061	-0.5698	0.4428
3.23	-9.7179	-0.2632	-1.5715	0.0188	0.0007	0.0077	46.2664	8.3156	8.1404	-0.4723	-0.5062	-0.5698	0.4428
3.24	-9.7181	-0.2641	-1.5816	0.0121	-0.0006	0.0059	46.1065	8.4323	8.2772	-0.4723	-0.5062	-0.5698	0.4428
3.25	-9.7227	-0.2590	-1.5808	0.0174	-0.0033	0.0077	46.1216	8.5616	8.1929	-0.4723	-0.5062	-0.5698	0.4428
3.26	-9.7189	-0.2591	-1.5727	0.0154	-0.0082	0.0062	46.1962	8.5334	8.0516	-0.4723	-0.5062	-0.5698	0.4428
3.27	-9.7215	-0.2641	-1.5697	0.0151	-0.0005	0.0034	46.0739	8.2804	8.1667	-0.4722	-0.5062	-0.5698	0.4428
3.28	-9.7198	-0.2620	-1.5657	0.0185	-0.0071	0.0068	46.0714	8.4825	8.2800	-0.4722	-0.5062	-0.5698	0.4428
3.29	-9.7186	-0.2533	-1.5633	0.0154	-0.0102	0.0065	45.9514	8.4705	8.3701	-0.4722	-0.5062	-0.5698	0.4428
3.3	-9.7126	-0.2606	-1.5674	0.0150	-0.0020	0.0042	46.1198	8.5833	8.1336	-0.4722	-0.5062	-0.5698	0.4428
3.31	-9.7227	-0.2727	-1.5798	0.0173	-0.0080	0.0080	46.0502	8.4608	8.1613	-0.4722	-0.5062	-0.5697	0.4429
3.32	-9.7229	-0.2722	-1.5742	0.0115	-0.0136	0.0094	46.0190	8.3800	8.1294	-0.4723	-0.5062	-0.5697	0.4429
3.33	-9.7164	-0.2682	-1.5675	0.0193	-0.0093	0.0081	46.1851	8.4383	8.2355	-0.4723	-0.5062	-0.5697	0.4429
3.34	-9.7170	-0.2581	-1.5664	0.0111	-0.0072	0.0059	46.0748	8.2977	8.2463	-0.4723	-0.5062	-0.5697	0.4429
3.35	-9.7192	-0.2504	-1.5661	0.0084	-0.0074	0.0046	46.1996	8.2408	8.1264	-0.4723	-0.5062	-0.5697	0.4429
3.36	-9.7148	-0.2440	-1.5637	0.0113	-0.0070	0.0094	46.1497	8.2297	8.0112	-0.4723	-0.5062	-0.5696	0.4429
3.37	-9.7182	-0.2446	-1.5626	0.0108	-0.0087	0.0089	46.2013	8.3225	8.2749	-0.4724	-0.5062	-0.5696	0.4429
3.38	-9.7194	-0.2425	-1.5595	0.0166	-0.0087	0.0080	45.9355	8.4173	8.1923	-0.4724	-0.5062	-0.5696	0.4429
3.39	-9.7136	-0.2479	-1.5536	0.0102	-0.0097	0.0052	46.1101	8.2731	8.0589	-0.4724	-0.5062	-0.5696	0.4429
3.4	-9.7189	-0.2565	-1.5608	0.0075	-0.0080	0.0053	45.9542	8.4110	8.2147	-0.4724	-0.5062	-0.5696	0.4429
3.41	-9.7144	-0.2660	-1.5486	0.0110	-0.0112	0.0079	45.9068	8.3926	8.0097	-0.4724	-0.5062	-0.5696	0.4429
3.42	-9.7172	-0.2678	-1.5462	0.0168	-0.0093	0.0087	46.3617	8.4346	8.2447	-0.4725	-0.5062	-0.5695	0.4430
3.43	-9.7198	-0.2647	-1.5492	0.0122	-0.0028	0.0023	46.1227	8.3521	8.3714	-0.4725	-0.5062	-0.5695	0.4430
3.44	-9.7186	-0.2628	-1.5540	0.0081	-0.0038	-0.0007	46.2732	8.3057	8.2442	-0.4724	-0.5061	-0.5696	0.4430
3.45	-9.7114	-0.2552	-1.5645	0.0051	-0.0022	0.0016	46.1208	8.5155	8.2346	-0.4724	-0.5061	-0.5696	0.4429
3.46	-9.7161	-0.2500	-1.5608	0.0081	-0.0057	0.0058	46.2400	8.6252	8.1073	-0.4725	-0.5061	-0.5696	0.4429
3.47	-9.7162	-0.2498	-1.5610	0.0125	-0.0011	0.0041	46.1632	8.4449	8.2343	-0.4725	-0.5061	-0.5696	0.4429
3.48	-9.7149	-0.2492	-1.5662	0.0092	-0.0019	0.0048	45.8778	8.3033	8.2369	-0.4725	-0.5061	-0.5696	0.4429
3.49	-9.7231	-0.2502	-1.5726	0.0108	-0.0089	0.0009	46.1546	8.5280	8.3566	-0.4725	-0.5061	-0.5696	0.4429
3.5	-9.7216	-0.2547	-1.5691	0.0055	-0.0112	0.0072	46.4768	8.8188	8.4501	-0.4725	-0.5060	-0.5696	0.4429
3.51	-9.7229	-0.2589	-1.5774	0.0062	-0.0070	0.0058	46.5673	8.5919	8.3723	-0.4725	-0.5060	-0.5696	0.4429
3.52	-9.7209	-0.2588	-1.5844	0.0120	-0.0019	0.0060	46.1638	8.1160	8.1232	-0.4725	-0.5060	-0.5696	0.4429
3.53	-9.7185	-0.2601	-1.5860	0.0124	-0.0013	0.0092	46.3280	8.3610	8.2196	-0.4725	-0.5060	-0.5696	0.4429
3.54	-9.7192	-0.2588	-1.5841	0.0149	-0.0008	0.0121	46.3183	8.3033	8.1275	-0.4725	-0.5061	-0.5696	0.4429
3.55	-9.7215	-0.2581	-1.5893	0.0135	-0.0043	0.0034	46.3197	8.4335	8.0748	-0.4725	-0.5061	-0.5696	0.4429
3.56	-9.7225	-0.2557	-1.5916	0.0141	-0.0106	0.0023	46.1787	8.4975	8.3333	-0.4725	-0.5061	-0.5696	0.4429
3.57	-9.7168	-0.2522	-1.5822	0.0150	-0.0060	0.0007	46.1540	8.3649	8.2018	-0.4725	-0.5060	-0.5696	0.4429
3.58	-9.7184	-0.2551	-1.5903	0.0187	-0.0120	0.0032	46.0734	8.2498	8.1971	-0.4725	-0.5060	-0.5696	0.4430
3.59	-9.7153	-0.2558	-1.5813	0.0165	-0.0117	0.0050	46.0695	8.2456	8.0860	-0.4725	-0.5060	-0.5695	0.4430
3.6	-9.7242	-0.2558	-1.5768	0.0174	-0.0034	0.0027	46.2741	8.3673	8.1248	-0.4725	-0.5060	-0.5695	0.4430
3.61	-9.7254	-0.2564	-1.5778	0.0096	-0.0012	0.0048	46.0002	8.4821	8.2250	-0.4725	-0.5060	-0.5695	0.4430
3.62	-9.7154	-0.2586	-1.5724	0.0123	-0.0028	0.0006	45.9631	8.4881	8.0663	-0.4725	-0.5060	-0.5696	0.4430
3.63	-9.7146	-0.2579	-1.5639	0.0047	0.0013	-0.0013	46.1093	8.6090	8.2177	-0.4725	-0.5060	-0.5696	0.4430
3.64	-9.7274	-0.2600	-1.5672	0.0028	-0.0031	0.0029	46.1246	8.3798	8.1302	-0.4725	-0.5060	-0.5696	0.4430
3.65	-9.7191	-0.2592	-1.5634	0.0094	0.0002	-0.0001	46.0357	8.3511	8.0882	-0.4725	-0.5059	-0.5697	0.4430
3.66	-9.7143	-0.2586	-1.5550	0.0101	0.0020	0.0040	46.0953	8.5429	8.0913	-0.4725	-0.5059	-0.5697	0.4430
3.67	-9.7182	-0.2588	-1.5571	0.0080	-0.0014	0.0034	46.0295	8.4445	8.1076	-0.4725	-0.5059	-0.5697	0.4430
3.68	-9.7175	-0.2616	-1.5607	0.0092	-0.0009	0.0025	46.1549	8.4312	8.2511	-0.4725	-0.5059	-0.5697	0.4430
3.69	-9.7198	-0.2569	-1.5565	0.0027	-0.0031	0.0106	46.3308	8.6243	8.3046	-0.4725	-0.5059	-0.5697	0.4429
3.7	-9.7188	-0.2561	-1.5589	0.0128	-0.0034	0.0080	46.2011	8.3613	8.1293	-0.4725	-0.5059	-0.5697	0.4429
3.71	-9.7212	-0.2559	-1.5533	0.0146	0.0003	0.0055	46.2405	8.4808	8.2842	-0.4725	-0.5059	-0.5697	0.4429
3.72	-9.7231	-0.2561	-1.5571	0.0029	-0.0072	0.0040	46.2084	8.4626	8.1354	-0.4725	-0.5059	-0.5698	0.4429
3.73	-9.7192	-0.2541	-1.5569	0.0105	-0.0043	0.0027	46.2556	8.3044	8.0946	-0.4725	-0.5059	-0.5698	0.4429
3.74	-9.7191	-0.2536	-1.5591	0.0117	-0.0076	0.0035	46.1810	8.4618	8.1838	-0.4725	-0.5059	-0.5698	0.4429
3.75	-9.7192	-0.2551	-1.5700	0.0131	-0.0054	0.0028	46.3226	8.5177	8.2534	-0.4725	-0.5059	-0.5698	0.4429
3.76	-9.7184	-0.2520	-1.5714	0.0089	-0.0043	0.0094	46.1534	8.4465	8.1994	-0.4726	-0.5059	-0.5698	0.4429
3.77	-9.7172	-0.2547	-1.5626	0.0042	-0.0128	0.0049	46.1608	8.2019	8.2037	-0.4726	-0.5058	-0.5698	0.4429
3.78	-9.7180	-0.2516	-1.5597	0.0102	-0.0071	0.0072	46.0889	8.4254	8.1278	-0.4726	-0.5058	-0.5697	0.4429
3.79	-9.7234	-0.2510	-1.5683	0.0120	-0.0004	0.0068	46.1382	8.3347	8.1616	-0.4726	-0.5058	-0.5697	0.4429
3.8	-9.7154	-0.2454	-1.5626	0.0059	-0.0054	0.0027	46.0021	8.4119	8.1069	-0.4726	-0.5058	-0.5698	0.4429
3.81	-9.7174	-0.2500	-1.5640	0.0080	-0.0050	0.0022	45.8910	8.3948	8.1035	-0.4726	-0.5058	-0.5698	0.4429
3.82	-9.7259	-0.2531	-1.5675	0.0115	0.0036	-0.0001	46.0205	8.3157	8.3451	-0.4726	-0.5058	-0.5698	0.4429
3.83	-9.7145	-0.2554	-1.5660	0.0081	-0.0021	0.0066	45.9690	8.5701	7.9245	-0.4726	-0.5058	-0.5698	0.4429
3.84	-9.7153	-0.2591	-1.5674	0.0137	-0.0010	0.0054	45.9956	8.6752	8.2500	-0.4726	-0.5058	-0.5698	0.4429
3.85	-9.7203	-0.2613	-1.5744	0.0175	0.0100	0.0029	45.9716	8.6310	8.3140	-0.4725	-0.5058	-0.5698	0.4429
3.86	-9.7216	-0.2639	-1.5760	0.0105	0.0007	-0.0009	46.1770	8.3614	8.1298	-0.4725	-0.5058	-0.5699	0.4429
3.87	-9.7189	-0.2587	-1.5716	0.0135	-0.0015	0.0029	45.9944	8.5904	8.2233	-0.4725	-0.5058	-0.5699	0.4429
3.88	-9.7204	-0.2538	-1.5680	0.0160	-0.0055	0.0084	45.8801	8.5629	7.9332	-0.4725	-0.5058	-0.5699	0.4429
3.89	-9.7226	-0.2524	-1.5750	0.0054	-0.0048	0.0087	46.0759	8.3224	8.3807	-0.4725	-0.5058	-0.5699	0.4429
3.9	-9.7201	-0.2552	-1.5843	0.0137	-0.0036	0.0082	46.2280	8.3441	8.2336	-0.4725	-0.5058	-0.5699	0.4429
3.91	-9.7169	-0.2588	-1.5895	0.0133	-0.0037	0.0081	46.2267	8.3211	8.0746	-0.4725	-0.5058	-0.5699	0.4429
3.92	-9.7188	-0.2695	-1.5827	0.0174	-0.0117	0.0108	46.3323	8.3550	8.2318	-0.4726	-0.5058	-0.5698	0.4429
3.93	-9.7203	-0.2713	-1.5786	0.0153	-0.0099	0.0080	46.1176	8.2981	7.9655	-0.4726	-0.5058	-0.5698	0.4429
3.94	-9.7188	-0.2680	-1.5807	0.0052	-0.0084	0.0065	46.2579	8.4370	8.1892	-0.4726	-0.5058	-0.5698	0.4429
3.95	-9.7167	-0.2591	-1.5745	0.0090	-0.0055	0.0044	46.0872	8.3778	8.1807	-0.4726	-0.5058	-0.5698	0.4429
3.96	-9.7245	-0.2572	-1.5722	0.0138	-0.0057	0.0059	46.1238	8.3642	8.2042	-0.4726	-0.5058	-0.5698	0.4429
3.97	-9.7171	-0.2491	-1.5696	0.0143	-0.0042	0.0109	46.0766	8.3918	8.1177	-0.4726	-0.5058	-0.5698	0.4429
3.98	-9.7169	-0.2470	-1.5725	0.0048	0.0038	0.0095	46.1543	8.1998	8.0828	-0.4726	-0.5058	-0.5698	0.4428
3.99	-9.7229	-0.2424	-1.5654	0.0015	-0.0034	0.0049	46.3053	8.7129	8.3337	-0.4727	-0.5058	-0.5698	0.4428
4	-9.7190	-0.2416	-1.5628	0.0114	-0.0051	0.0110	46.5391	8.5880	8.5358	-0.4727	-0.5058	-0.5698	0.4428
4.01	-9.7163	-0.2493	-1.5664	0.0158	-0.0020	0.0096	46.4857	8.5165	8.2697	-0.4727	-0.5058	-0.5698	0.4428
4.02	-9.7135	-0.2512	-1.5648	0.0194	0.0037	0.0076	46.0651	8.4271	8.1208	-0.4727	-0.5059	-0.5698	0.4428
4.03	-9.7163	-0.2589	-1.5555	0.0072	0.0020	0.0094	46.2764	8.5167	8.1228	-0.4726	-0.5059	-0.5698	0.4428
4.04	-9.7196	-0.2571	-1.5540	0.0093	0.0023	0.0054	45.9349	8.5707	8.2853	-0.4726	-0.5059	-0.5698	0.4427
4.05	-9.7221	-0.2590	-1.5481	0.0115	-0.0004	0.0054	45.9345	8.4314	8.3412	-0.4726	-0.5059	-0.5698	0.4427
4.06	-9.7217	-0.2560	-1.5554	0.0116	-0.0081	0.0065	46.1113	8.4894	8.3445	-0.4727	-0.5059	-0.5698	0.4427
4.07	-9.7204	-0.2546	-1.5505	0.0065	-0.0085	0.0108	46.1255	8.6798	8.1021	-0.4727	-0.5059	-0.5698	0.4427
4.08	-9.7192	-0.2521	-1.5480	0.0100	-0.0087	0.0084	46.2213	8.2891	8.1310	-0.4727	-0.5058	-0.5698	0.4427
4.09	-9.7188	-0.2545	-1.5581	0.0184	-0.0076	0.0144	46.0591	8.2229	8.1815	-0.4727	-0.5059	-0.5697	0.4427
4.1	-9.7232	-0.2508	-1.5628	0.0050	-0.0065	0.0065	46.3814	8.1721	7.9240	-0.4728	-0.5059	-0.5697	0.4427
4.11	-9.7212	-0.2524	-1.5621	0.0097	-0.0093	0.0072	46.2378	8.1736	8.0752	-0.4728	-0.5058	-0.5697	0.4427
4.12	-9.7207	-0.2542	-1.5687	0.0088	-0.0054	0.0110	46.0889	8.5850	8.0805	-0.4728	-0.5058	-0.5697	0.4427
4.13	-9.7187	-0.2613	-1.5664	0.0127	-0.0015	0.0141	46.0975	8.4213	7.9462	-0.4728	-0.5059	-0.5697	0.4427
4.14	-9.7131	-0.2594	-1.5643	0.0092	-0.0006	0.0082	46.2747	8.3623	8.0470	-0.4728	-0.5059	-0.5697	0.4427
4.15	-9.7147	-0.2639	-1.5689	0.0174	-0.0037	0.0103	46.1511	8.4010	8.0682	-0.4728	-0.5059	-0.5697	0.4427
4.16	-9.7224	-0.2654	-1.5780	0.0141	-0.0081	0.0096	45.9872	8.2733	8.1657	-0.4728	-0.5059	-0.5697	0.4427
4.17	-9.7235	-0.2640	-1.5777	0.0173	-0.0012	0.0010	46.1408	8.2060	8.2695	-0.4728	-0.5059	-0.5697	0.4427
4.18	-9.7214	-0.2659	-1.5794	0.0171	0.0001	0.0065	46.0685	8.3705	8.0602	-0.4728	-0.5059	-0.5697	0.4427
4.19	-9.7209	-0.2678	-1.5833	0.0066	-0.0066	0.0038	46.1441	8.3840	8.1353	-0.4728	-0.5059	-0.5697	0.4427
4.2	-9.7165	-0.2762	-1.5894	0.0127	-0.0052	0.0084	45.9473	8.3593	8.2907	-0.4728	-0.5059	-0.5697	0.4427
4.21	-9.7072	-0.2732	-1.5914	0.0139	-0.0060	0.0090	46.1371	8.5302	8.0350	-0.4728	-0.5059	-0.5696	0.4427
4.22	-9.7161	-0.2710	-1.5953	0.0083	-0.0057	0.0012	46.1286	8.3030	8.2215	-0.4728	-0.5059	-0.5697	0.4427
4.23	-9.7247	-0.2670	-1.5929	0.0215	-0.0076	0.0096	46.0956	8.2995	8.2552	-0.4728	-0.5059	-0.5696	0.4427
4.24	-9.7220	-0.2626	-1.5912	0.0141	-0.0024	0.0047	46.1675	8.3658	8.1596	-0.4728	-0.5059	-0.5696	0.4427
4.25	-9.7242	-0.2657	-1.5903	0.0207	-0.0135	0.0105	46.1128	8.4531	8.2733	-0.4728	-0.5059	-0.5696	0.4428
4.26	-9.7239	-0.2627	-1.5820	0.0206	-0.0094	0.0144	46.2066	8.3363	8.2506	-0.4729	-0.5060	-0.5695	0.4428
4.27	-9.7222	-0.2592	-1.5828	0.0175	-0.0070	0.0162	46.1688	8.1797	8.1496	-0.4729	-0.5060	-0.5695	0.4428
4.28	-9.7171	-0.2480	-1.5681	0.0161	-0.0097	0.0125	46.2972	8.4719	8.0671	-0.4729	-0.5060	-0.5694	0.4428
4.29	-9.7237	-0.2434	-1.5604	0.0133	-0.0083	0.0117	46.2353	8.2619	8.2412	-0.4729	-0.5060	-0.5694	0.4428
4.3	-9.7204	-0.2355	-1.5518	0.0210	-0.0061	0.0107	46.2921	8.3999	7.9500	-0.4729	-0.5061	-0.5694	0.4428
4.31	-9.7107	-0.2608	-1.5575	0.0163	-0.0091	0.0100	46.1364	8.4503	8.0196	-0.4729	-0.5061	-0.5693	0.4428
4.32	-9.7225	-0.2530	-1.5455	0.0205	-0.0083	0.0089	46.1111	8.5039	8.0687	-0.4729	-0.5061	-0.5693	0.4429
4.33	-9.7088	-0.2809	-1.5463	0.0194	-0.0088	0.0105	46.2889	8.2908	8.1345	-0.4729	-0.5061	-0.5692	0.4429
4.34	-9.7236	-0.2788	-1.5507	0.0202	-0.0088	0.0120	46.1561	8.4704	8.2758	-0.4730	-0.5061	-0.5692	0.4429
4.35	-9.7148	-0.2655	-1.5365	0.0214	-0.0122	0.0111	46.0886	8.6730	7.9614	-0.4730	-0.5061	-0.5691	0.4429
4.36	-9.7175	-0.2555	-1.5317	0.0124	-0.0046	0.0062	46.1270	8.3980	8.0587	-0.4730	-0.5061	-0.5691	0.4430
4.37	-9.7163	-0.2460	-1.5371	0.0158	-0.0115	0.0081	46.3133	8.2891	8.3963	-0.4730	-0.5061	-0.5691	0.4430
4.38	-9.7148	-0.2446	-1.5411	0.0192	0.0028	0.0095	45.9030	8.4809	8.1666	-0.4730	-0.5062	-0.5691	0.4430
4.39	-9.7122	-0.2422	-1.5360	0.0118	-0.0071	0.0079	46.1983	8.3092	8.2327	-0.4730	-0.5062	-0.5691	0.4430
4.4	-9.7246	-0.2525	-1.5449	0.0142	-0.0053	0.0126	46.1713	8.5368	8.3952	-0.4730	-0.5062	-0.5690	0.4430
4.41	-9.7191	-0.2510	-1.5483	0.0144	-0.0053	0.0096	45.9036	8.4622	8.1948	-0.4730	-0.5062	-0.5690	0.4430
4.42	-9.7144	-0.2527	-1.5489	0.0051	-0.0061	0.0063	46.0294	8.4440	8.2861	-0.4730	-0.5062	-0.5690	0.4430
4.43	-9.7237	-0.2565	-1.5559	0.0104	-0.0031	0.0138	45.8953	8.4675	8.1612	-0.4730	-0.5062	-0.5690	0.4429
4.44	-9.7233	-0.2550	-1.5715	0.0172	-0.0032	0.0082	46.0072	8.4383	8.1658	-0.4730	-0.5062	-0.5690	0.4429
4.45	-9.7110	-0.2533	-1.5687	0.0125	-0.0077	0.0136	46.1421	8.4858	8.1301	-0.4731	-0.5062	-0.5690	0.4429
4.46	-9.7189	-0.2462	-1.5760	0.0208	-0.0003	0.0090	46.2703	8.5379	8.0799	-0.4730	-0.5063	-0.5690	0.4430
4.47	-9.7245	-0.2517	-1.5837	0.0170	-0.0043	0.0096	46.1330	8.3848	7.9914	-0.4730	-0.5063	-0.5689	0.4430
4.48	-9.7208	-0.2569	-1.5875	0.0072	-0.0094	0.0082	46.2813	8.2882	8.0693	-0.4731	-0.5063	-0.5689	0.4430
4.49	-9.7244	-0.2681	-1.5928	0.0078	-0.0044	0.0071	46.4536	8.4194	8.2963	-0.4731	-0.5063	-0.5689	0.4429
4.5	-9.7312	-0.2740	-1.6012	0.0139	-0.0044	0.0080	46.6891	8.4851	8.4193	-0.4731	-0.5063	-0.5689	0.4429
4.51	-9.7226	-0.2711	-1.6046	0.0142	-0.0120	0.0066	46.6937	8.3604	8.4075	-0.4731	-0.5063	-0.5689	0.4430
4.52	-9.7147	-0.2690	-1.6016	0.0133	-0.0014	0.0075	46.1685	8.4465	8.0731	-0.4731	-0.5063	-0.5689	0.4430
4.53	-9.7328	-0.2626	-1.6080	0.0146	-0.0013	0.0061	46.3041	8.6850	8.2243	-0.4731	-0.5063	-0.5689	0.4430
4.54	-9.7349	-0.2184	-1.5787	0.0157	-0.0056	0.0060	46.0737	8.4822	8.0710	-0.4731	-0.5063	-0.5689	0.4430
4.55	-9.7009	-0.2117	-1.5584	0.0031	-0.0027	0.0021	45.7533	8.5865	8.1594	-0.4731	-0.5063	-0.5689	0.4430
4.56	-9.7209	-0.2318	-1.5931	0.0140	0.0022	0.0016	45.9398	8.6749	8.3677	-0.4731	-0.5063	-0.5689	0.4430
4.57	-9.7267	-0.2543	-1.5900	0.0102	-0.0027	0.0044	46.1001	8.6811	8.1745	-0.4731	-0.5063	-0.5689	0.4430
4.58	-9.7166	-0.2779	-1.5676	-0.0001	-0.0055	0.0026	45.9452	8.6091	8.1534	-0.4731	-0.5062	-0.5690	0.4429
4.59	-9.7131	-0.2911	-1.5627	0.0066	0.0017	0.0072	46.0737	8.4841	8.1884	-0.4731	-0.5062	-0.5690	0.4429
4.6	-9.7285	-0.2967	-1.5626	0.0110	-0.0040	0.0084	46.1184	8.6355	8.2502	-0.4731	-0.5062	-0.5690	0.4429
4.61	-9.7190	-0.2845	-1.5478	0.0134	0.0010	0.0007	46.0083	8.5138	8.1238	-0.4731	-0.5062	-0.5690	0.4429
4.62	-9.7079	-0.2763	-1.5413	0.0137	-0.0042	0.0050	46.1372	8.5083	8.2228	-0.4731	-0.5062	-0.5690	0.4429
4.63	-9.7250	-0.2642	-1.5491	0.0208	-0.0062	0.0083	46.1363	8.4086	7.9139	-0.4731	-0.5062	-0.5690	0.4429
4.64	-9.7155	-0.2453	-1.5460	0.0167	-0.0020	0.0040	46.2670	8.4352	8.1152	-0.4730	-0.5063	-0.5690	0.4430
4.65	-9.7064	-0.2371	-1.5424	0.0175	-0.0091	0.0073	46.3219	8.1714	7.9725	-0.4730	-0.5063	-0.5690	0.4430
4.66	-9.7154	-0.2405	-1.5425	0.0103	-0.0060	0.0070	46.1927	8.2621	8.2370	-0.4730	-0.5062	-0.5690	0.4430
4.67	-9.7238	-0.2393	-1.5420	0.0143	-0.0062	0.0116	46.1180	8.4721	8.1798	-0.4731	-0.5063	-0.5689	0.4430
4.68	-9.7199	-0.2446	-1.5457	0.0104	-0.0006	0.0069	45.9724	8.3841	7.7800	-0.4731	-0.5063	-0.5689	0.4430
4.69	-9.7085	-0.2526	-1.5365	0.0134	-0.0025	0.0044	46.0431	8.5117	8.1155	-0.4730	-0.5063	-0.5689	0.4430
4.7	-9.7171	-0.2614	-1.5402	0.0157	-0.0008	0.0033	46.1340	8.5035	8.0774	-0.4730	-0.5063	-0.5690	0.4430
4.71	-9.7226	-0.2671	-1.5523	0.0073	-0.0046	0.0074	46.1616	8.5113	8.2082	-0.4730	-0.5063	-0.5690	0.4430
4.72	-9.7205	-0.2642	-1.5559	0.0170	-0.0091	0.0097	46.2055	8.4963	8.1443	-0.4730	-0.5063	-0.5689	0.4430
4.73	-9.7282	-0.2654	-1.5590	0.0097	-0.0108	0.0067	45.9206	8.5844	8.2613	-0.4731	-0.5063	-0.5689	0.4430
4.74	-9.7222	-0.2617	-1.5664	0.0102	-0.0047	0.0056	46.0030	8.5923	8.2591	-0.4731	-0.5062	-0.5689	0.4430
4.75	-9.7138	-0.2572	-1.5680	0.0067	-0.0008	0.0064	46.0612	8.5776	8.2257	-0.4731	-0.5062	-0.5689	0.4430
4.76	-9.7141	-0.2493	-1.5707	0.0100	-0.0058	0.0045	46.0052	8.6011	8.0656	-0.4731	-0.5062	-0.5690	0.4430
4.77	-9.7183	-0.2471	-1.5846	0.0106	-0.0057	0.0026	45.8344	8.5617	8.0865	-0.4731	-0.5062	-0.5690	0.4430
4.78	-9.7175	-0.2487	-1.5942	0.0162	0.0002	0.0037	45.9856	8.5051	8.0643	-0.4731	-0.5062	-0.5690	0.4430
4.79	-9.7168	-0.2510	-1.5906	0.0082	0.0001	0.0078	46.0283	8.6684	8.1266	-0.4731	-0.5062	-0.5690	0.4430
4.8	-9.7283	-0.2535	-1.5958	0.0074	-0.0059	0.0019	45.8655	8.6740	8.2729	-0.4731	-0.5062	-0.5690	0.4430
4.81	-9.7259	-0.2552	-1.5944	0.0126	-0.0107	0.0119	45.9792	8.6503	8.0217	-0.4731	-0.5062	-0.5690	0.4430
4.82	-9.7204	-0.2629	-1.5901	0.0081	-0.0137	0.0106	46.0086	8.4095	8.1496	-0.4731	-0.5062	-0.5689	0.4430
4.83	-9.7238	-0.2591	-1.5868	0.0060	-0.0074	0.0104	46.0613	8.4420	8.1433	-0.4732	-0.5062	-0.5689	0.4430
4.84	-9.7283	-0.2583	-1.5872	0.0099	-0.0055	0.0027	46.0625	8.3247	7.9319	-0.4732	-0.5061	-0.5689	0.4430
4.85	-9.7236	-0.2638	-1.5808	0.0130	-0.0072	0.0042	46.1335	8.2368	8.1084	-0.4732	-0.5061	-0.5689	0.4430
4.86	-9.7159	-0.2548	-1.5777	0.0114	-0.0101	0.0102	46.0041	8.2954	8.1413	-0.4732	-0.5061	-0.5689	0.4430
4.87	-9.7224	-0.2570	-1.5742	0.0131	-0.0101	0.0063	46.1514	8.4411	8.0611	-0.4732	-0.5061	-0.5689	0.4430
4.88	-9.7166	-0.2628	-1.5638	0.0094	-0.0061	0.0018	46.0311	8.4955	8.1857	-0.4732	-0.5061	-0.5689	0.4430
4.89	-9.7124	-0.2592	-1.5581	0.0133	-0.0102	0.0055	45.9232	8.4008	8.0433	-0.4732	-0.5061	-0.5689	0.4430
4.9	-9.7260	-0.2613	-1.5602	0.0109	-0.0103	0.0088	46.1025	8.4263	8.1078	-0.4733	-0.5061	-0.5689	0.4430
4.91	-9.7227	-0.2607	-1.5596	0.0216	-0.0124	0.0072	46.2328	8.4314	8.0771	-0.4733	-0.5061	-0.5688	0.4431
4.92	-9.7183	-0.2575	-1.5569	0.0114	-0.0125	0.0065	45.9923	8.5119	7.9725	-0.4733	-0.5060	-0.5688	0.4431
4.93	-9.7169	-0.2564	-1.5531	0.0084	-0.0051	0.0048	45.7776	8.5274	8.2110	-0.4733	-0.5060	-0.5688	0.4431
4.94	-9.7219	-0.2633	-1.5687	0.0111	-0.0044	0.0097	45.9511	8.6790	8.2809	-0.4733	-0.5060	-0.5688	0.4431
4.95	-9.7146	-0.2603	-1.5638	0.0096	-0.0094	0.0062	46.0633	8.6708	8.1330	-0.4733	-0.5060	-0.5688	0.4431
4.96	-9.7129	-0.2588	-1.5605	0.0126	-0.0016	0.0054	45.9340	8.5274	8.0560	-0.4733	-0.5060	-0.5688	0.4431
4.97	-9.7195	-0.2521	-1.5606	0.0082	-0.0021	0.0036	46.0023	8.7110	8.1295	-0.4733	-0.5060	-0.5689	0.4431
4.98	-9.7187	-0.2567	-1.5575	0.0091	-0.0023	0.0018	45.8619	8.3985	8.2717	-0.4733	-0.5060	-0.5689	0.4431
4.99	-9.7144	-0.2521	-1.5544	0.0163	-0.0052	-0.0000	46.0083	8.3399	8.3617	-0.4733	-0.5060	-0.5689	0.4431
5	-9.7155	-0.2540	-1.5561	0.0170	-0.0037	0.0072	46.6918	8.6225	8.5145	-0.4733	-0.5060	-0.5689	0.4431
5.01	-9.7158	-0.2577	-1.5534	0.0186	-0.0072	0.0077	46.7204	8.4911	8.2854	-0.4733	-0.5060	-0.5689	0.4432
5.02	-9.7181	-0.2547	-1.5548	0.0183	-0.0163	0.0092	46.5072	8.5520	8.0245	-0.4733	-0.5060	-0.5688	0.4432
5.03	-9.7128	-0.2555	-1.5471	0.0176	-0.0132	0.0080	46.3714	8.6335	8.0789	-0.4733	-0.5060	-0.5688	0.4432
5.04	-9.7239	-0.2553	-1.5558	0.0122	-0.0142	0.0111	46.2524	8.2707	8.1565	-0.4733	-0.5060	-0.5687	0.4433
5.05	-9.7222	-0.2539	-1.5568	0.0137	-0.0152	0.0129	46.1228	8.3536	8.1861	-0.4734	-0.5060	-0.5687	0.4433
5.06	-9.7113	-0.2514	-1.5518	0.0179	-0.0078	0.0061	45.7549	8.4904	8.1673	-0.4734	-0.5060	-0.5687	0.4433
5.07	-9.7188	-0.2548	-1.5601	0.0192	-0.0076	0.0047	45.9749	8.5108	8.1455	-0.4734	-0.5060	-0.5687	0.4433
5.08	-9.7265	-0.2605	-1.5693	0.0185	-0.0087	0.0019	46.2297	8.3655	8.2784	-0.4734	-0.5060	-0.5686	0.4434
5.09	-9.7194	-0.2585	-1.5692	0.0136	-0.0126	0.0091	45.9552	8.3550	8.0672	-0.4734	-0.5060	-0.5686	0.4434
5.1	-9.7161	-0.2622	-1.5683	0.0161	-0.0094	0.0075	45.9667	8.3911	8.1040	-0.4734	-0.5060	-0.5686	0.4434
5.11	-9.7248	-0.2607	-1.5731	0.0225	-0.0031	0.0042	46.0007	8.4786	8.2309	-0.4733	-0.5060	-0.5686	0.4434
5.12	-9.7179	-0.2600	-1.5741	0.0163	-0.0042	0.0082	46.0850	8.3616	8.3665	-0.4733	-0.5060	-0.5686	0.4435
5.13	-9.7133	-0.2636	-1.5659	0.0205	0.0019	0.0078	46.1623	8.4525	8.2297	-0.4733	-0.5060	-0.5686	0.4435
5.14	-9.7226	-0.2581	-1.5732	0.0159	-0.0062	0.0086	45.9474	8.4768	8.1456	-0.4733	-0.5060	-0.5685	0.4435
5.15	-9.7244	-0.2616	-1.5753	0.0144	0.0045	0.0031	46.0956	8.5768	7.9619	-0.4733	-0.5060	-0.5686	0.4435
5.16	-9.7185	-0.2616	-1.5727	0.0162	-0.0045	0.0125	46.0973	8.3454	8.1283	-0.4733	-0.5061	-0.5686	0.4435
5.17	-9.7143	-0.2589	-1.5683	0.0197	-0.0061	0.0125	46.1803	8.3733	8.1369	-0.4733	-0.5061	-0.5685	0.4435
5.18	-9.7231	-0.2631	-1.5724	0.0180	-0.0095	0.0082	46.1644	8.5607	8.3132	-0.4733	-0.5061	-0.5685	0.4435
5.19	-9.7251	-0.2637	-1.5692	0.0159	-0.0107	0.0095	45.8691	8.6706	8.2653	-0.4733	-0.5061	-0.5685	0.4435
5.2	-9.7174	-0.2626	-1.5674	0.0199	-0.0036	0.0074	46.1768	8.2855	8.1925	-0.4732	-0.5061	-0.5684	0.4435
5.21	-9.7286	-0.2610	-1.5697	0.0072	-0.0091	0.0107	46.4458	8.2025	8.2328	-0.4733	-0.5061	-0.5684	0.4435
5.22	-9.7186	-0.2636	-1.5701	0.0153	-0.0062	0.0081	46.0567	8.1845	8.0266	-0.4733	-0.5061	-0.5684	0.4435
5.23	-9.7173	-0.2594	-1.5663	0.0213	-0.0067	0.0083	46.1112	8.3007	8.2001	-0.4733	-0.5062	-0.5684	0.4436
5.24	-9.7170	-0.2563	-1.5660	0.0120	-0.0070	0.0095	46.0718	8.3582	8.1849	-0.4733	-0.5062	-0.5684	0.4436
5.25	-9.7193	-0.2529	-1.5664	0.0153	-0.0071	0.0079	46.2701	8.2753	8.1195	-0.4733	-0.5062	-0.5684	0.4436
5.26	-9.7160	-0.2514	-1.5637	0.0189	-0.0074	0.0117	46.1769	8.5464	8.1413	-0.4733	-0.5062	-0.5683	0.4436
5.27	-9.7183	-0.2520	-1.5642	0.0197	-0.0019	0.0163	46.0844	8.5364	8.1901	-0.4733	-0.5062	-0.5683	0.4436
5.28	-9.7262	-0.2526	-1.5613	0.0194	-0.0119	0.0101	46.1918	8.3924	8.1604	-0.4733	-0.5062	-0.5683	0.4436
5.29	-9.7312	-0.2503	-1.5605	0.0191	-0.0039	0.0137	46.1674	8.3765	7.9795	-0.4733	-0.5063	-0.5682	0.4436
5.3	-9.7254	-0.2439	-1.5660	0.0180	-0.0031	0.0044	46.1750	8.2862	8.1695	-0.4733	-0.5063	-0.5682	0.4436
5.31	-9.7200	-0.2481	-1.5627	0.0201	-0.0046	0.0080	46.0750	8.2880	8.2980	-0.4732	-0.5063	-0.5682	0.4437
5.32	-9.7211	-0.2506	-1.5658	0.0169	-0.0020	0.0077	46.0718	8.4136	8.2338	-0.4732	-0.5063	-0.5682	0.4437
5.33	-9.7158	-0.2509	-1.5628	0.0147	-0.0053	0.0047	45.9051	8.2720	8.2987	-0.4732	-0.5063	-0.5682	0.4437
5.34	-9.7158	-0.2528	-1.5655	0.0192	0.0016	0.0016	46.0235	8.2897	8.1309	-0.4732	-0.5063	-0.5682	0.4437
5.35	-9.7130	-0.2530	-1.5674	0.0209	-0.0028	0.0055	46.0056	8.3847	8.2401	-0.4731	-0.5064	-0.5682	0.4437
5.36	-9.7136	-0.2537	-1.5641	0.0180	-0.0054	0.0081	46.1862	8.3583	8.2091	-0.4731	-0.5064	-0.5682	0.4437
5.37	-9.7151	-0.2612	-1.5559	0.0130	-0.0051	0.0026	46.0849	8.3809	8.1723	-0.4731	-0.5064	-0.5682	0.4438
5.38	-9.7217	-0.2577	-1.5546	0.0150	-0.0024	0.0063	46.0965	8.2594	8.1558	-0.4731	-0.5064	-0.5682	0.4438
5.39	-9.7185	-0.2568	-1.5607	0.0189	-0.0092	0.0092	46.3516	8.1779	8.1124	-0.4731	-0.5064	-0.5682	0.4438
5.4	-9.7181	-0.2620	-1.5559	0.0134	-0.0141	0.0118	46.2650	8.2706	8.2272	-0.4731	-0.5064	-0.5681	0.4438
5.41	-9.7225	-0.2612	-1.5630	0.0114	-0.0092	0.0111	46.2349	8.3828	8.0622	-0.4731	-0.5064	-0.5681	0.4438
5.42	-9.7181	-0.2561	-1.5626	0.0132	-0.0055	0.0079	46.2779	8.2591	8.2280	-0.4731	-0.5064	-0.5681	0.4438
5.43	-9.7136	-0.2544	-1.5607	0.0117	-0.0098	0.0074	46.1716	8.4994	8.1102	-0.4732	-0.5064	-0.5681	0.4438
5.44	-9.7168	-0.2521	-1.5660	0.0177	-0.0094	0.0147	45.9606	8.5661	8.0570	-0.4732	-0.5064	-0.5681	0.4438
5.45	-9.7195	-0.2531	-1.5615	0.0106	-0.0055	0.0053	46.2353	8.3212	8.1186	-0.4732	-0.5064	-0.5681	0.4438
5.46	-9.7186	-0.2534	-1.5532	0.0125	-0.0123	0.0066	46.0888	8.2834	8.3177	-0.4732	-0.5064	-0.5681	0.4438
5.47	-9.7134	-0.2572	-1.5539	0.0103	-0.0083	0.0097	46.1586	8.2723	8.2135	-0.4732	-0.5064	-0.5680	0.4438
5.48	-9.7255	-0.2601	-1.5580	0.0078	0.0005	0.0118	46.0916	8.3734	8.4706	-0.4732	-0.5064	-0.5681	0.4438
5.49	-9.7228	-0.2683	-1.5602	0.0104	-0.0011	0.0089	45.9775	8.3575	8.2953	-0.4732	-0.5064	-0.5681	0.4438
5.5	-9.7181	-0.2740	-1.5568	0.0158	-0.0004	0.0108	46.6724	8.5635	8.0943	-0.4732	-0.5064	-0.5681	0.4438
5.51	-9.7219	-0.2770	-1.5650	0.0150	-0.0003	0.0032	46.6157	8.6277	8.1591	-0.4732	-0.5064	-0.5681	0.4438
5.52	-9.7197	-0.2717	-1.5639	0.0191	0.0006	0.0028	45.9660	8.6949	8.2153	-0.4731	-0.5064	-0.5681	0.4438
5.53	-9.7150	-0.2696	-1.5568	0.0130	0.0018	0.0063	45.9163	8.6475	8.3379	-0.4731	-0.5065	-0.5681	0.4438
5.54	-9.7165	-0.2657	-1.5623	0.0160	0.0023	0.0014	45.9729	8.3811	8.2961	-0.4731	-0.5065	-0.5681	0.4438
5.55	-9.7232	-0.2696	-1.5798	0.0138	0.0027	0.0071	46.0142	8.5069	8.4315	-0.4730	-0.5065	-0.5681	0.4438
5.56	-9.7184	-0.2687	-1.5774	0.0086	-0.0039	0.0097	45.7520	8.6061	8.1626	-0.4730	-0.5065	-0.5681	0.4438
5.57	-9.7158	-0.2626	-1.5826	0.0158	-0.0058	0.0078	45.8143	8.5275	8.1496	-0.4730	-0.5065	-0.5681	0.4438
5.58	-9.7235	-0.2570	-1.5862	0.0135	-0.0048	0.0092	46.3047	8.2440	8.0846	-0.4730	-0.5065	-0.5681	0.4438
5.59	-9.7275	-0.2524	-1.5870	0.0117	-0.0067	0.0095	46.4286	8.2775	8.1428	-0.4730	-0.5065	-0.5681	0.4438
5.6	-9.7244	-0.2494	-1.5830	0.0183	-0.0001	0.0037	46.1101	8.3526	8.3105	-0.4730	-0.5065	-0.5681	0.4438
5.61	-9.7194	-0.2450	-1.5745	0.0102	-0.0086	0.0068	46.0981	8.3408	8.0998	-0.4730	-0.5065	-0.5681	0.4438
5.62	-9.7248	-0.2481	-1.5765	0.0125	-0.0061	0.0019	46.2616	8.3281	8.0426	-0.4730	-0.5065	-0.5681	0.4438
5.63	-9.7198	-0.2414	-1.5677	0.0154	-0.0135	0.0030	46.0367	8.4612	8.2742	-0.4730	-0.5065	-0.5681	0.4438
5.64	-9.7139	-0.2401	-1.5622	0.0062	0.0012	0.0014	46.0827	8.3535	8.0720	-0.4730	-0.5065	-0.5682	0.4438
5.65	-9.7228	-0.2392	-1.5592	0.0160	-0.0078	0.0094	46.0781	8.3907	8.0509	-0.4730	-0.5065	-0.5682	0.4438
5.66	-9.7214	-0.2409	-1.5511	0.0100	-0.0053	0.0064	46.0610	8.5102	8.1479	-0.4730	-0.5065	-0.5681	0.4438
5.67	-9.7126	-0.2407	-1.5515	0.0114	-0.0031	0.0029	45.9914	8.5249	8.2656	-0.4730	-0.5065	-0.5682	0.4438
5.68	-9.7222	-0.2398	-1.5516	0.0156	-0.0044	0.0064	46.0951	8.6028	8.1941	-0.4730	-0.5065	-0.5682	0.4438
5.69	-9.7199	-0.2395	-1.5463	0.0106	-0.0069	0.0047	45.7683	8.5887	8.3287	-0.4730	-0.5064	-0.5682	0.4438
5.7	-9.7204	-0.2443	-1.5588	0.0142	-0.0053	0.0038	46.0565	8.4706	8.3021	-0.4730	-0.5064	-0.5682	0.4438
5.71	-9.7210	-0.2477	-1.5533	-0.0003	0.0027	0.0064	46.1535	8.4396	8.0911	-0.4730	-0.5064	-0.5682	0.4438
5.72	-9.7144	-0.2518	-1.5453	0.0133	-0.0047	0.0009	45.9965	8.5374	8.2255	-0.4729	-0.5064	-0.5683	0.4438
5.73	-9.7169	-0.2524	-1.5600	0.0168	0.0003	0.0043	45.8939	8.4635	8.2501	-0.4729	-0.5064	-0.5683	0.4438
5.74	-9.7191	-0.2528	-1.5507	0.0125	0.0033	0.0045	46.0369	8.7588	8.0825	-0.4729	-0.5064	-0.5683	0.4438
5.75	-9.7168	-0.2565	-1.5483	0.0149	-0.0038	0.0074	46.0675	8.6732	8.0756	-0.4729	-0.5064	-0.5683	0.4438
5.76	-9.7133	-0.2597	-1.5601	0.0182	0.0066	0.0110	46.1407	8.2012	8.2574	-0.4728	-0.5065	-0.5683	0.4438
5.77	-9.7271	-0.2647	-1.5668	0.0151	-0.0063	0.0067	46.1513	8.3993	8.2390	-0.4728	-0.5065	-0.5683	0.4438
5.78	-9.7153	-0.2668	-1.5573	0.0070	-0.0042	0.0069	46.1615	8.3681	8.2213	-0.4728	-0.5065	-0.5683	0.4438
5.79	-9.7177	-0.2656	-1.5675	0.0079	-0.0033	0.0003	46.1247	8.2124	7.8914	-0.4728	-0.5065	-0.5683	0.4438
5.8	-9.7186	-0.2697	-1.5725	0.0095	-0.0038	0.0063	46.3230	8.2852	8.2965	-0.4728	-0.5065	-0.5684	0.4438
5.81	-9.7156	-0.2697	-1.5671	0.0086	-0.0061	0.0100	46.3890	8.3450	8.1829	-0.4728	-0.5065	-0.5684	0.4437
5.82	-9.7176	-0.2634	-1.5697	0.0176	-0.0056	0.0055	46.1432	8.5017	8.0604	-0.4728	-0.5065	-0.5683	0.4438
5.83	-9.7229	-0.2645	-1.5757	0.0192	0.0009	0.0069	46.1528	8.4963	8.2409	-0.4728	-0.5065	-0.5683	0.4438
5.84	-9.7256	-0.2622	-1.5685	0.0159	-0.0020	0.0031	46.1527	8.5234	8.2626	-0.4728	-0.5065	-0.5684	0.4438
5.85	-9.7194	-0.2597	-1.5681	0.0177	-0.0059	0.0072	46.1374	8.5851	8.1565	-0.4727	-0.5065	-0.5683	0.4438
5.86	-9.7209	-0.2619	-1.5724	0.0109	-0.0006	0.0012	46.1895	8.6445	8.0616	-0.4727	-0.5065	-0.5684	0.4438
5.87	-9.7168	-0.2565	-1.5715	0.0142	-0.0014	0.0063	45.9863	8.6708	8.2596	-0.4727	-0.5065	-0.5684	0.4438
5.88	-9.7196	-0.2535	-1.5667	0.0163	0.0037	0.0087	45.9011	8.7723	8.1162	-0.4727	-0.5065	-0.5684	0.4438
5.89	-9.7166	-0.2536	-1.5623	0.0065	0.0003	0.0050	46.1683	8.5634	8.2810	-0.4727	-0.5065	-0.5684	0.4438
5.9	-9.7167	-0.2499	-1.5634	0.0041	0.0003	0.0030	46.0977	8.4843	8.1695	-0.4726	-0.5065	-0.5685	0.4437
5.91	-9.7102	-0.2540	-1.5569	0.0147	0.0031	-0.0007	45.9641	8.5060	8.0248	-0.4726	-0.5065	-0.5685	0.4437
5.92	-9.7048	-0.2522	-1.5451	0.0044	-0.0008	0.0039	46.1369	8.5196	8.2261	-0.4726	-0.5065	-0.5685	0.4437
5.93	-9.7139	-0.2570	-1.5536	0.0087	0.0014	0.0023	46.1074	8.6242	8.1719	-0.4726	-0.5065	-0.5686	0.4437
5.94	-9.7246	-0.2526	-1.5726	-0.0010	-0.0012	0.0093	46.0493	8.5165	8.1493	-0.4726	-0.5065	-0.5686	0.4436
5.95	-9.7051	-0.2988	-1.5399	0.0085	0.0005	0.0108	46.1666	8.3028	8.1250	-0.4726	-0.5065	-0.5686	0.4436
5.96	-9.7256	-0.3268	-1.5544	0.0010	0.0063	0.0080	46.4202	8.3930	8.0998	-0.4726	-0.5065	-0.5687	0.4435
5.97	-9.7314	-0.3423	-1.5746	-0.0008	0.0049	0.0079	46.2790	8.4421	8.1553	-0.4726	-0.5065	-0.5687	0.4435
5.98	-9.7095	-0.3326	-1.5518	0.0107	0.0023	0.0071	46.1192	8.4182	8.2457	-0.4726	-0.5065	-0.5687	0.4434
5.99	-9.7387	-0.2941	-1.5843	0.0230	0.0015	0.0123	46.4659	8.3258	8.3273	-0.4725	-0.5066	-0.5687	0.4434
6	-9.7129	-0.2446	-1.5754	0.0188	0.0005	0.0115	46.4686	8.7068	8.3990	-0.4725	-0.5066	-0.5687	0.4434
6.01	-9.7083	-0.1994	-1.5591	0.0230	-0.0010	0.0099	46.3209	8.6506	8.3658	-0.4725	-0.5066	-0.5687	0.4434
6.02	-9.7156	-0.1660	-1.5601	0.0135	-0.0024	0.0081	46.1048	8.2702	8.2357	-0.4725	-0.5066	-0.5687	0.4434
6.03	-9.7156	-0.1560	-1.5663	0.0184	-0.0036	0.0081	46.0648	8.4875	8.0996	-0.4725	-0.5067	-0.5687	0.4434
6.04	-9.7137	-0.1785	-1.5614	0.0051	-0.0005	0.0098	45.8936	8.2085	8.0167	-0.4725	-0.5067	-0.5687	0.4434
6.05	-9.7270	-0.2164	-1.5709	-0.0044	0.0018	0.0036	46.0129	8.3015	8.2547	-0.4725	-0.5066	-0.5688	0.4434
6.06	-9.7156	-0.2512	-1.5630	-0.0013	0.0045	-0.0008	46.1162	8.3870	7.9206	-0.4725	-0.5066	-0.5688	0.4433
6.07	-9.7185	-0.2760	-1.5571	0.0032	-0.0053	0.0026	45.9177	8.4215	7.9890	-0.4725	-0.5066	-0.5689	0.4433
6.08	-9.7403	-0.2841	-1.5798	0.0110	-0.0042	0.0070	45.9951	8.4782	8.2693	-0.4725	-0.5066	-0.5689	0.4433
6.09	-9.7193	-0.2755	-1.5676	0.0105	-0.0057	0.0079	46.0747	8.4674	8.3791	-0.4725	-0.5066	-0.5689	0.4433
6.1	-9.7307	-0.2659	-1.5848	0.0105	-0.0000	0.0092	46.0156	8.4412	8.2212	-0.4725	-0.5066	-0.5689	0.4433
6.11	-9.6958	-0.2391	-1.5694	0.0169	0.0032	0.0030	46.1057	8.3594	8.3790	-0.4724	-0.5066	-0.5689	0.4432
6.12	-9.7223	-0.2399	-1.5832	0.0174	0.0021	0.0047	46.0754	8.3961	8.2233	-0.4724	-0.5066	-0.5689	0.4433
6.13	-9.7218	-0.2405	-1.5748	0.0208	-0.0068	0.0094	46.1822	8.3809	7.9521	-0.4724	-0.5066	-0.5689	0.4433
6.14	-9.7108	-0.2446	-1.5731	0.0190	-0.0062	0.0123	46.0586	8.3855	8.0913	-0.4724	-0.5067	-0.5689	0.4433
6.15	-9.7381	-0.2526	-1.5981	0.0138	0.0049	0.0096	46.1095	8.3861	8.0614	-0.4724	-0.5067	-0.5689	0.4433
6.16	-9.7136	-0.2466	-1.5660	0.0115	-0.0079	0.0106	46.0770	8.3841	7.8910	-0.4724	-0.5067	-0.5689	0.4433
6.17	-9.7202	-0.2605	-1.5742	0.0094	-0.0078	0.0094	46.2264	8.2808	7.9779	-0.4724	-0.5067	-0.5689	0.4432
6.18	-9.7276	-0.2495	-1.5778	0.0200	-0.0086	0.0085	46.2419	8.3390	8.2143	-0.4724	-0.5067	-0.5689	0.4433
6.19	-9.7082	-0.2482	-1.5540	0.0162	-0.0099	0.0077	45.9925	8.4928	8.1106	-0.4724	-0.5067	-0.5688	0.4433
6.2	-9.7251	-0.2485	-1.5658	0.0208	-0.0110	0.0026	46.0208	8.3420	8.0818	-0.4724	-0.5067	-0.5688	0.4433
6.21	-9.7221	-0.2491	-1.5571	0.0154	0.0022	0.0076	46.1192	8.3209	8.0080	-0.4724	-0.5067	-0.5688	0.4433
6.22	-9.7208	-0.2558	-1.5559	0.0164	0.0028	0.0122	46.0587	8.4177	8.2535	-0.4723	-0.5068	-0.5688	0.4433
6.23	-9.7180	-0.2542	-1.5528	0.0156	-0.0038	0.0103	46.1842	8.3568	8.3163	-0.4723	-0.5068	-0.5688	0.4433
6.24	-9.7215	-0.2660	-1.5571	0.0107	-0.0064	0.0091	46.0464	8.4196	8.1109	-0.4723	-0.5068	-0.5688	0.4433
6.25	-9.7228	-0.2653	-1.5658	0.0175	0.0005	0.0068	45.9921	8.3083	8.3420	-0.4723	-0.5068	-0.5688	0.4433
6.26	-9.7111	-0.2663	-1.5525	0.0077	-0.0067	0.0050	46.0100	8.3484	8.2554	-0.4723	-0.5068	-0.5688	0.4433
6.27	-9.7218	-0.2722	-1.5673	0.0130	-0.0035	0.0055	46.0090	8.5777	7.9452	-0.4723	-0.5068	-0.5688	0.4433
6.28	-9.7230	-0.2722	-1.5607	0.0177	-0.0098	0.0062	46.1289	8.5417	8.2001	-0.4723	-0.5068	-0.5688	0.4433
6.29	-9.7220	-0.2675	-1.5641	0.0132	-0.0059	0.0048	46.0034	8.3271	8.3400	-0.4723	-0.5068	-0.5688	0.4433
6.3	-9.7058	-0.2625	-1.5633	0.0161	-0.0025	0.0124	46.0741	8.2872	8.0642	-0.4723	-0.5068	-0.5688	0.4433
6.31	-9.7190	-0.2644	-1.5681	0.0153	-0.0125	0.0110	46.2061	8.3088	8.3688	-0.4723	-0.5068	-0.5687	0.4433
6.32	-9.7230	-0.2680	-1.5632	0.0133	-0.0054	0.0119	46.0969	8.3052	8.2939	-0.4723	-0.5068	-0.5687	0.4433
6.33	-9.7193	-0.2639	-1.5657	0.0138	-0.0073	0.0117	46.1404	8.2837	8.1179	-0.4723	-0.5069	-0.5687	0.4433
6.34	-9.7147	-0.2676	-1.5562	0.0064	-0.0114	0.0105	46.1857	8.4142	8.4367	-0.4724	-0.5069	-0.5687	0.4433
6.35	-9.7314	-0.2705	-1.5697	0.0072	-0.0050	0.0111	46.2492	8.3411	8.1699	-0.4724	-0.5068	-0.5687	0.4433
6.36	-9.7020	-0.2616	-1.5453	0.0099	-0.0072	0.0051	46.0828	8.3259	8.1036	-0.4724	-0.5068	-0.5687	0.4433
6.37	-9.7319	-0.2686	-1.5625	0.0182	-0.0016	0.0088	46.1577	8.4863	8.0202	-0.4724	-0.5069	-0.5687	0.4433
6.38	-9.7308	-0.2468	-1.5692	0.0157	-0.0028	0.0124	46.1962	8.4673	8.0166	-0.4724	-0.5069	-0.5687	0.4433
6.39	-9.6978	-0.2511	-1.5395	0.0177	-0.0085	0.0066	46.2526	8.4543	8.1532	-0.4724	-0.5069	-0.5687	0.4433
6.4	-9.7341	-0.2491	-1.5747	0.0194	0.0007	0.0084	46.0504	8.2906	8.2820	-0.4724	-0.5069	-0.5686	0.4433
6.41	-9.7144	-0.2439	-1.5642	0.0176	-0.0049	0.0081	46.2022	8.3110	8.1978	-0.4723	-0.5069	-0.5686	0.4433
6.42	-9.7167	-0.2531	-1.5747	0.0183	-0.0088	0.0108	46.0124	8.2915	8.1820	-0.4724	-0.5070	-0.5686	0.4434
6.43	-9.7124	-0.2474	-1.5682	0.0128	-0.0031	0.0055	46.0745	8.3153	8.0348	-0.4723	-0.5070	-0.5686	0.4434
6.44	-9.7206	-0.2594	-1.5720	0.0104	-0.0029	0.0042	46.0223	8.2668	8.3114	-0.4723	-0.5069	-0.5686	0.4434
6.45	-9.7239	-0.2526	-1.5858	0.0167	0.0056	0.0118	45.9962	8.5255	8.1386	-0.4723	-0.5070	-0.5686	0.4433
6.46	-9.7044	-0.2547	-1.5707	0.0173	-0.0003	0.0083	46.2695	8.3800	7.8633	-0.4723	-0.5070	-0.5686	0.4433
6.47	-9.7269	-0.2581	-1.5954	0.0176	-0.0005	0.0043	46.0100	8.2969	8.2233	-0.4723	-0.5070	-0.5686	0.4433
6.48	-9.7207	-0.2505	-1.5936	0.0084	-0.0007	0.0104	45.9952	8.5948	8.0692	-0.4723	-0.5070	-0.5686	0.4433
6.49	-9.7207	-0.2526	-1.5948	0.0146	-0.0027	0.0011	46.4174	8.5206	8.3558	-0.4722	-0.5070	-0.5686	0.4433
6.5	-9.7127	-0.2517	-1.5826	0.0161	-0.0063	0.0090	46.3747	8.4452	8.5182	-0.4722	-0.5071	-0.5686	0.4433
6.51	-9.7303	-0.2689	-1.5819	0.0167	-0.0018	0.0090	46.3890	8.4180	8.3637	-0.4722	-0.5071	-0.5686	0.4433
6.52	-9.7372	-0.2611	-1.6042	0.0151	0.0007	0.0061	46.5065	8.3829	8.0735	-0.4722	-0.5071	-0.5686	0.4433
6.53	-9.6854	-0.2517	-1.5429	0.0143	-0.0015	0.0086	46.4012	8.4599	7.9267	-0.4722	-0.5071	-0.5686	0.4433
6.54	-9.7336	-0.2682	-1.5817	0.0183	-0.0004	0.0057	46.3099	8.2185	8.0873	-0.4722	-0.5071	-0.5686	0.4433
6.55	-9.7194	-0.2599	-1.5483	0.0153	0.0005	0.0073	46.1162	8.3710	7.9838	-0.4721	-0.5072	-0.5686	0.4433
6.56	-9.7236	-0.2677	-1.5486	0.0148	-0.0042	0.0010	46.1666	8.2931	7.8753	-0.4721	-0.5071	-0.5686	0.4433
6.57	-9.7111	-0.2485	-1.5296	0.0088	0.0026	0.0054	46.1772	8.2944	8.0665	-0.4721	-0.5071	-0.5687	0.4433
6.58	-9.7144	-0.2552	-1.5361	0.0143	0.0035	0.0074	46.1510	8.3498	8.0663	-0.4721	-0.5072	-0.5687	0.4433
6.59	-9.7273	-0.2429	-1.5529	0.0130	-0.0002	0.0075	46.3398	8.3510	8.0784	-0.4721	-0.5072	-0.5687	0.4433
6.6	-9.6987	-0.2416	-1.5259	0.0138	-0.0047	0.0056	46.0061	8.4182	8.0515	-0.4721	-0.5072	-0.5687	0.4433
6.61	-9.7241	-0.2488	-1.5521	0.0086	0.0033	0.0046	45.9828	8.4756	8.1009	-0.4720	-0.5072	-0.5687	0.4433
6.62	-9.7223	-0.2457	-1.5535	0.0064	0.0042	0.0071	46.1610	8.4964	8.2651	-0.4720	-0.5072	-0.5688	0.4432
6.63	-9.7195	-0.2507	-1.5566	0.0133	0.0072	0.0022	45.9916	8.6284	8.1107	-0.4720	-0.5072	-0.5688	0.4432
6.64	-9.7133	-0.2535	-1.5477	0.0092	0.0070	0.0029	45.8520	8.6196	8.0327	-0.4720	-0.5072	-0.5688	0.4432
6.65	-9.7017	-0.2551	-1.5406	0.0055	0.0018	0.0016	45.9370	8.3755	8.1094	-0.4719	-0.5072	-0.5689	0.4432
6.66	-9.7191	-0.2732	-1.5545	0.0101	0.0055	0.0021	46.0701	8.5231	8.3554	-0.4719	-0.5072	-0.5689	0.4431
6.67	-9.7152	-0.2691	-1.5470	0.0077	-0.0027	-0.0001	46.0992	8.3840	8.3024	-0.4719	-0.5072	-0.5690	0.4432
6.68	-9.7261	-0.2724	-1.5581	0.0111	0.0059	0.0058	46.0357	8.2860	8.1931	-0.4719	-0.5072	-0.5690	0.4431
6.69	-9.7351	-0.2559	-1.5731	0.0213	0.0066	0.0033	46.0277	8.5089	8.0477	-0.4718	-0.5072	-0.5690	0.4431
6.7	-9.6998	-0.2382	-1.5504	0.0201	-0.0046	0.0069	46.1740	8.4908	8.0843	-0.4718	-0.5072	-0.5690	0.4431
6.71	-9.7185	-0.2242	-1.5785	0.0222	-0.0029	0.0026	46.2882	8.4169	8.1624	-0.4718	-0.5072	-0.5690	0.4432
6.72	-9.7240	-0.2124	-1.5973	0.0090	-0.0089	0.0042	46.1651	8.3728	7.9585	-0.4718	-0.5072	-0.5690	0.4432
6.73	-9.7145	-0.2158	-1.5975	0.0084	-0.0026	0.0094	46.3154	8.3196	8.0714	-0.4718	-0.5072	-0.5690	0.4432
6.74	-9.7092	-0.2286	-1.6006	0.0081	-0.0017	0.0059	46.0687	8.3587	8.1940	-0.4718	-0.5072	-0.5690	0.4432
6.75	-9.7240	-0.2631	-1.5941	0.0091	-0.0028	0.0075	46.1802	8.4622	8.2576	-0.4718	-0.5072	-0.5690	0.4431
6.76	-9.7187	-0.2912	-1.5704	0.0141	0.0056	0.0024	46.2247	8.3219	8.2356	-0.4718	-0.5072	-0.5690	0.4431
6.77	-9.7122	-0.3032	-1.5508	0.0154	-0.0017	0.0030	46.1773	8.4465	8.2538	-0.4717	-0.5072	-0.5690	0.4431
6.78	-9.7310	-0.2770	-1.5684	0.0208	0.0014	0.0099	46.0137	8.5053	8.0847	-0.4717	-0.5073	-0.5690	0.4431
6.79	-9.7137	-0.2169	-1.5672	0.0194	0.0086	0.0091	46.0568	8.5388	8.0592	-0.4717	-0.5073	-0.5690	0.4431
6.8	-9.7323	-0.1594	-1.6015	0.0172	0.0043	0.0043	46.0478	8.6913	8.0435	-0.4716	-0.5073	-0.5690	0.4431
6.81	-9.7054	-0.1319	-1.6008	-0.0000	0.0049	0.0051	46.0303	8.5513	8.1918	-0.4716	-0.5073	-0.5691	0.4431
6.82	-9.6892	-0.1833	-1.5713	-0.0083	-0.0007	-0.0003	45.9284	8.6120	8.3777	-0.4716	-0.5073	-0.5692	0.4430
6.83	-9.7413	-0.2591	-1.5982	-0.0085	-0.0027	0.0010	45.9957	8.4968	7.9487	-0.4717	-0.5072	-0.5692	0.4430
6.84	-9.7177	-0.3417	-1.5587	-0.0051	-0.0025	0.0024	45.8663	8.5822	8.0774	-0.4717	-0.5072	-0.5693	0.4429
6.85	-9.7237	-0.3914	-1.5470	-0.0004	0.0022	0.0017	45.7872	8.5842	8.1420	-0.4717	-0.5071	-0.5693	0.4429
6.86	-9.7223	-0.3889	-1.5257	0.0086	0.0020	0.0053	46.0134	8.5601	8.0003	-0.4717	-0.5071	-0.5694	0.4429
6.87	-9.7381	-0.3578	-1.5305	0.0211	-0.0022	0.0096	46.1218	8.3244	8.1947	-0.4717	-0.5071	-0.5693	0.4429
6.88	-9.7710	-0.2773	-1.5718	0.0252	-0.0040	0.0095	46.2366	8.3502	8.0182	-0.4717	-0.5072	-0.5693	0.4429
6.89	-9.6687	-0.1683	-1.5041	0.0227	-0.0078	0.0108	46.3105	8.3215	7.8526	-0.4717	-0.5072	-0.5693	0.4430
6.9	-9.6775	-0.1134	-1.5550	0.0200	0.0021	0.0109	46.2857	8.1675	7.9700	-0.4716	-0.5072	-0.5692	0.4430
6.91	-9.7467	-0.0813	-1.6220	0.0094	0.0001	0.0037	46.2902	8.2508	8.0945	-0.4716	-0.5072	-0.5693	0.4429
6.92	-9.6997	-0.1218	-1.5869	-0.0002	-0.0068	0.0011	46.2895	8.3995	8.0462	-0.4717	-0.5072	-0.5693	0.4429
6.93	-9.7210	-0.2019	-1.6072	-0.0057	-0.0006	0.0041	46.2924	8.4014	7.9395	-0.4717	-0.5072	-0.5693	0.4429
6.94	-9.7115	-0.2957	-1.5651	0.0030	-0.0059	0.0036	46.2518	8.2353	8.1332	-0.4717	-0.5071	-0.5694	0.4429
6.95	-9.6996	-0.3728	-1.5397	0.0012	-0.0108	0.0036	45.9625	8.3562	8.2965	-0.4718	-0.5071	-0.5694	0.4429
6.96	-9.7229	-0.4039	-1.5359	0.0059	0.0003	0.0090	46.0335	8.3160	8.2834	-0.4718	-0.5071	-0.5694	0.4428
6.97	-9.7455	-0.3846	-1.5557	0.0195	-0.0053	0.0032	46.1709	8.1637	8.0386	-0.4718	-0.5071	-0.5694	0.4429
6.98	-9.7348	-0.3204	-1.5710	0.0169	-0.0032	0.0042	46.0259	8.2359	8.1665	-0.4717	-0.5071	-0.5694	0.4429
6.99	-9.7133	-0.2456	-1.5709	0.0219	0.0015	0.0070	46.3430	8.7072	8.1576	-0.4717	-0.5071	-0.5694	0.4429
7	-9.7137	-0.1835	-1.5912	0.0144	-0.0016	0.0018	46.2426	8.7625	8.4581	-0.4717	-0.5071	-0.5694	0.4429
7.01	-9.7165	-0.1641	-1.6029	-0.0015	-0.0044	0.0057	46.2233	8.6256	8.3305	-0.4717	-0.5071	-0.5694	0.4429
7.02	-9.6941	-0.1908	-1.5847	-0.0044	-0.0073	0.0071	46.1284	8.3009	8.3300	-0.4718	-0.5070	-0.5694	0.4428
7.03	-9.6991	-0.2668	-1.5713	-0.0078	-0.0088	0.0108	46.1807	8.4703	8.1745	-0.4719	-0.5070	-0.5694	0.4428
7.04	-9.7319	-0.3623	-1.5654	-0.0044	-0.0062	0.0036	45.9370	8.4429	8.0559	-0.4719	-0.5069	-0.5695	0.4428
7.05	-9.7343	-0.4173	-1.5541	0.0057	-0.0092	0.0038	45.9275	8.5585	8.4869	-0.4719	-0.5069	-0.5695	0.4428
7.06	-9.7302	-0.4176	-1.5576	0.0198	-0.0100	0.0102	46.0444	8.4258	8.2795	-0.4719	-0.5069	-0.5695	0.4428
7.07	-9.7330	-0.3633	-1.5756	0.0249	-0.0147	0.0104	46.1391	8.3744	8.1409	-0.4720	-0.5069	-0.5694	0.4428
7.08	-9.7257	-0.2778	-1.5703	0.0280	-0.0076	0.0168	46.2760	8.3832	8.2006	-0.4720	-0.5070	-0.5693	0.4429
7.09	-9.7302	-0.1965	-1.5720	0.0300	-0.0143	0.0099	46.1664	8.3997	8.1564	-0.4720	-0.5070	-0.5693	0.4429
7.1	-9.7028	-0.1252	-1.5563	0.0180	-0.0084	0.0117	46.2059	8.3478	8.2059	-0.4720	-0.5070	-0.5692	0.4430
7.11	-9.6957	-0.0961	-1.5418	0.0202	-0.0091	0.0130	46.2987	8.2972	8.1161	-0.4720	-0.5070	-0.5692	0.4430
7.12	-9.7387	-0.0993	-1.5671	0.0160	-0.0059	0.0098	46.1846	8.2916	8.0767	-0.4720	-0.5070	-0.5691	0.4430
7.13	-9.7246	-0.1458	-1.5438	0.0054	-0.0120	0.0116	46.0828	8.3296	8.1997	-0.4720	-0.5070	-0.5691	0.4430
7.14	-9.7102	-0.1960	-1.5449	0.0031	-0.0094	0.0086	46.2605	8.5099	8.0130	-0.4721	-0.5070	-0.5691	0.4430
7.15	-9.7024	-0.2446	-1.5309	0.0028	-0.0103	0.0050	46.0080	8.4465	8.2554	-0.4721	-0.5069	-0.5691	0.4430
7.16	-9.7455	-0.2726	-1.5807	0.0006	-0.0094	0.0102	46.1223	8.4686	8.1805	-0.4722	-0.5069	-0.5691	0.4429
7.17	-9.7088	-0.2900	-1.5404	0.0073	-0.0043	-0.0015	46.0576	8.4744	8.1597	-0.4722	-0.5069	-0.5691	0.4430
7.18	-9.7209	-0.3012	-1.5579	0.0063	-0.0061	0.0031	46.0607	8.2430	8.1927	-0.4722	-0.5068	-0.5692	0.4430
7.19	-9.7395	-0.2931	-1.5764	0.0119	-0.0078	0.0012	46.1087	8.2650	8.1610	-0.4722	-0.5068	-0.5692	0.4430
7.2	-9.6979	-0.2932	-1.5308	0.0216	-0.0048	0.0054	46.2030	8.4198	8.2025	-0.4722	-0.5068	-0.5691	0.4430
7.21	-9.7353	-0.2785	-1.5903	0.0149	-0.0059	0.0080	46.1318	8.4838	8.2578	-0.4722	-0.5068	-0.5691	0.4430
7.22	-9.7044	-0.2881	-1.5459	0.0204	-0.0031	0.0085	46.1146	8.2021	8.0876	-0.4722	-0.5068	-0.5691	0.4430
7.23	-9.7273	-0.2596	-1.5844	0.0156	-0.0084	0.0095	46.0034	8.3799	8.0741	-0.4722	-0.5068	-0.5691	0.4431
7.24	-9.7242	-0.2643	-1.5901	0.0200	-0.0087	0.0116	46.0654	8.4861	8.3300	-0.4722	-0.5069	-0.5690	0.4431
7.25	-9.7092	-0.2469	-1.5723	0.0155	-0.0063	0.0147	46.0336	8.4605	8.3054	-0.4722	-0.5069	-0.5690	0.4431
7.26	-9.7343	-0.2444	-1.6014	0.0138	-0.0074	0.0062	45.8735	8.4050	7.9379	-0.4722	-0.5069	-0.5690	0.4431
7.27	-9.7083	-0.2449	-1.5758	0.0179	-0.0097	0.0082	46.2493	8.3609	8.1542	-0.4723	-0.5069	-0.5689	0.4431
7.28	-9.7257	-0.2423	-1.5830	0.0118	-0.0108	0.0055	46.2550	8.1746	8.1319	-0.4723	-0.5069	-0.5689	0.4432
7.29	-9.7154	-0.2556	-1.5643	0.0159	-0.0036	0.0140	46.0880	8.2867	8.1416	-0.4723	-0.5069	-0.5689	0.4432
7.3	-9.7251	-0.2461	-1.5709	0.0174	-0.0050	0.0086	46.1905	8.3059	8.1919	-0.4723	-0.5069	-0.5689	0.4432
7.31	-9.7249	-0.2632	-1.5642	0.0149	-0.0087	0.0083	46.1700	8.4930	8.0804	-0.4723	-0.5069	-0.5688	0.4432
7.32	-9.7168	-0.2595	-1.5605	0.0101	-0.0079	0.0067	46.0763	8.4557	8.2027	-0.4723	-0.5069	-0.5688	0.4432
7.33	-9.7221	-0.2716	-1.5669	0.0154	-0.0116	0.0004	46.1168	8.4743	8.1638	-0.4723	-0.5068	-0.5688	0.4432
7.34	-9.7129	-0.2839	-1.5516	0.0180	-0.0083	0.0115	46.0865	8.3854	8.1717	-0.4724	-0.5069	-0.5688	0.4433
7.35	-9.7226	-0.2766	-1.5597	0.0154	-0.0030	0.0036	46.2409	8.2461	8.0812	-0.4723	-0.5069	-0.5688	0.4433
7.36	-9.7148	-0.2903	-1.5560	0.0164	-0.0019	0.0015	46.0762	8.4276	8.0721	-0.4723	-0.5068	-0.5688	0.4433
7.37	-9.7282	-0.2751	-1.5620	0.0210	0.0001	0.0067	45.9254	8.4757	8.1698	-0.4723	-0.5069	-0.5688	0.4433
7.38	-9.7187	-0.2782	-1.5563	0.0136	-0.0073	0.0047	45.9409	8.4600	8.2577	-0.4723	-0.5069	-0.5688	0.4433
7.39	-9.7146	-0.2619	-1.5610	0.0150	0.0002	0.0060	46.0870	8.7255	8.1366	-0.4723	-0.5069	-0.5687	0.4433
7.4	-9.7211	-0.2471	-1.5708	0.0134	-0.0021	0.0094	46.0896	8.4487	8.2094	-0.4723	-0.5069	-0.5687	0.4433
7.41	-9.7140	-0.2425	-1.5713	0.0142	-0.0072	0.0106	46.1872	8.5594	8.4970	-0.4723	-0.5069	-0.5687	0.4433
7.42	-9.7231	-0.2383	-1.5794	0.0146	-0.0094	0.0117	46.1521	8.6413	8.2196	-0.4723	-0.5069	-0.5687	0.4433
7.43	-9.7209	-0.2445	-1.5738	0.0087	-0.0006	0.0060	45.9151	8.2864	8.2580	-0.4723	-0.5069	-0.5687	0.4433
7.44	-9.7197	-0.2547	-1.5796	0.0119	-0.0119	0.0090	45.9974	8.3647	8.4045	-0.4724	-0.5069	-0.5687	0.4433
7.45	-9.7222	-0.2618	-1.5812	0.0090	-0.0084	0.0074	46.2243	8.4912	8.1274	-0.4724	-0.5068	-0.5687	0.4434
7.46	-9.7249	-0.2646	-1.5723	-0.0026	-0.0123	0.0093	46.1293	8.3140	8.3301	-0.4725	-0.5068	-0.5687	0.4433
7.47	-9.7240	-0.2601	-1.5713	0.0115	-0.0064	0.0112	46.1150	8.2996	8.1753	-0.4725	-0.5068	-0.5686	0.4433
7.48	-9.7206	-0.2563	-1.5614	0.0170	-0.0077	0.0056	46.3819	8.3014	8.1872	-0.4725	-0.5068	-0.5686	0.4434
7.49	-9.7239	-0.2489	-1.5664	0.0115	-0.0104	0.0101	46.4097	8.3206	8.0732	-0.4725	-0.5068	-0.5686	0.4434
7.5	-9.7234	-0.2408	-1.5615	0.0124	-0.0110	0.0097	46.4810	8.9296	8.2700	-0.4726	-0.5068	-0.5686	0.4434
7.51	-9.7159	-0.2329	-1.5544	0.0136	-0.0050	0.0040	46.6219	8.8478	8.2525	-0.4726	-0.5068	-0.5686	0.4434
7.52	-9.7168	-0.2307	-1.5584	0.0139	-0.0078	0.0059	46.1847	8.4426	8.0900	-0.4726	-0.5068	-0.5685	0.4434
7.53	-9.7269	-0.2349	-1.5553	0.0170	-0.0062	0.0026	46.0185	8.4455	8.0279	-0.4726	-0.5067	-0.5685	0.4435
7.54	-9.7222	-0.2380	-1.5548	0.0129	0.0034	0.0044	46.1684	8.4552	8.1532	-0.4726	-0.5067	-0.5685	0.4435
7.55	-9.7140	-0.2463	-1.5520	0.0096	0.0021	0.0101	45.9544	8.6277	8.1401	-0.4726	-0.5068	-0.5686	0.4434
7.56	-9.7205	-0.2555	-1.5574	0.0077	-0.0014	-0.0013	45.8833	8.3487	8.0743	-0.4726	-0.5067	-0.5686	0.4434
7.57	-9.7174	-0.2700	-1.5539	0.0039	0.0026	0.0021	46.1427	8.3700	8.3440	-0.4726	-0.5067	-0.5686	0.4434
7.58	-9.7112	-0.2751	-1.5383	0.0000	0.0024	0.0020	45.8431	8.5050	8.2837	-0.4726	-0.5067	-0.5687	0.4434
7.59	-9.7144	-0.2802	-1.5367	0.0094	-0.0042	0.0026	46.0138	8.5093	8.0853	-0.4726	-0.5067	-0.5687	0.4434
7.6	-9.7185	-0.2821	-1.5436	0.0164	-0.0050	0.0031	45.9953	8.4973	8.1437	-0.4726	-0.5066	-0.5687	0.4434
7.61	-9.7203	-0.2799	-1.5541	0.0149	0.0017	0.0007	45.8611	8.5207	8.2147	-0.4725	-0.5066	-0.5687	0.4434
7.62	-9.7128	-0.2792	-1.5509	0.0126	-0.0010	0.0029	46.1620	8.4298	8.1140	-0.4725	-0.5066	-0.5687	0.4434
7.63	-9.7215	-0.2823	-1.5591	0.0160	-0.0036	0.0095	46.1007	8.3287	8.4772	-0.4725	-0.5067	-0.5687	0.4434
7.64	-9.7234	-0.2777	-1.5608	0.0150	-0.0046	0.0094	46.1428	8.3438	8.2705	-0.4725	-0.5067	-0.5687	0.4434
7.65	-9.7207	-0.2699	-1.5644	0.0130	-0.0048	0.0059	46.3101	8.3557	8.3980	-0.4725	-0.5067	-0.5687	0.4434
7.66	-9.7191	-0.2616	-1.5694	0.0167	-0.0036	0.0127	46.1042	8.3190	8.1262	-0.4725	-0.5067	-0.5686	0.4434
7.67	-9.7254	-0.2504	-1.5680	0.0110	0.0006	0.0040	46.1599	8.5047	7.9436	-0.4725	-0.5067	-0.5687	0.4434
7.68	-9.7209	-0.2422	-1.5716	0.0145	-0.0052	0.0067	46.2204	8.6076	8.2141	-0.4725	-0.5067	-0.5686	0.4434
7.69	-9.7170	-0.2369	-1.5749	0.0093	0.0020	0.0074	46.2128	8.3158	8.2215	-0.4725	-0.5067	-0.5687	0.4434
7.7	-9.7236	-0.2404	-1.5837	0.0148	0.0081	0.0092	46.0270	8.4462	7.8879	-0.4725	-0.5067	-0.5687	0.4434
7.71	-9.7246	-0.2407	-1.5867	0.0158	0.0023	0.0080	45.9372	8.4112	8.2527	-0.4725	-0.5067	-0.5687	0.4434
7.72	-9.7156	-0.2537	-1.5651	0.0111	-0.0071	0.0068	46.0119	8.4314	8.2936	-0.4725	-0.5067	-0.5687	0.4434
7.73	-9.7301	-0.2545	-1.5822	0.0177	0.0010	0.0099	46.1563	8.4119	8.2183	-0.4725	-0.5067	-0.5686	0.4434
7.74	-9.7233	-0.2516	-1.5874	0.0152	0.0043	0.0023	45.8748	8.5471	8.3539	-0.4724	-0.5068	-0.5687	0.4434
7.75	-9.7214	-0.2539	-1.5796	0.0062	0.0043	-0.0008	45.7937	8.4180	8.1448	-0.4724	-0.5067	-0.5687	0.4434
7.76	-9.7230	-0.2525	-1.5832	0.0166	-0.0036	0.0034	46.0540	8.2165	8.1602	-0.4724	-0.5067	-0.5687	0.4434
7.77	-9.7143	-0.2456	-1.5724	0.0158	0.0004	0.0037	46.1296	8.4646	8.2480	-0.4724	-0.5067	-0.5687	0.4434
7.78	-9.7184	-0.2398	-1.5713	0.0128	-0.0009	0.0068	45.9991	8.5166	8.2430	-0.4724	-0.5067	-0.5687	0.4434
7.79	-9.7239	-0.2344	-1.5701	0.0052	-0.0068	0.0038	45.9301	8.4955	8.2312	-0.4724	-0.5067	-0.5687	0.4434
7.8	-9.7177	-0.2341	-1.5652	0.0157	0.0024	-0.0011	46.0639	8.5163	8.2510	-0.4724	-0.5067	-0.5688	0.4434
7.81	-9.7305	-0.2327	-1.5767	0.0150	-0.0091	0.0047	46.0159	8.4920	8.2224	-0.4724	-0.5067	-0.5687	0.4435
7.82	-9.7129	-0.2307	-1.5639	0.0110	-0.0150	0.0097	46.1136	8.3808	8.2817	-0.4724	-0.5067	-0.5687	0.4435
7.83	-9.7232	-0.2262	-1.5753	0.0050	-0.0065	0.0039	46.3123	8.2654	8.1208	-0.4724	-0.5066	-0.5687	0.4435
7.84	-9.7332	-0.2321	-1.5759	0.0119	-0.0060	0.0045	46.2868	8.2634	7.8687	-0.4725	-0.5066	-0.5687	0.4435
7.85	-9.7194	-0.2235	-1.5645	0.0137	-0.0002	0.0063	46.1785	8.3808	8.0338	-0.4724	-0.5066	-0.5687	0.4435
7.86	-9.7194	-0.2343	-1.5673	0.0123	0.0002	0.0012	46.0932	8.4737	8.1280	-0.4724	-0.5066	-0.5687	0.4435
7.87	-9.7127	-0.2466	-1.5560	0.0007	-0.0088	0.0050	46.1757	8.2510	8.1896	-0.4725	-0.5066	-0.5687	0.4435
7.88	-9.7217	-0.2678	-1.5592	0.0025	-0.0113	0.0055	45.8783	8.2642	8.0285	-0.4725	-0.5065	-0.5688	0.4435
7.89	-9.7167	-0.2810	-1.5518	0.0103	-0.0036	0.0032	45.9849	8.5158	8.1176	-0.4725	-0.5065	-0.5688	0.4435
7.9	-9.7174	-0.2820	-1.5494	0.0113	-0.0070	0.0021	46.2523	8.4906	8.1755	-0.4725	-0.5065	-0.5688	0.4435
7.91	-9.7233	-0.2883	-1.5514	0.0155	-0.0064	0.0109	46.1116	8.6064	8.1228	-0.4725	-0.5065	-0.5687	0.4435
7.92	-9.7204	-0.2778	-1.5519	0.0034	-0.0074	0.0092	45.9950	8.5735	8.5399	-0.4726	-0.5065	-0.5687	0.4435
7.93	-9.7157	-0.2747	-1.5533	0.0049	-0.0010	-0.0004	45.8012	8.6073	8.1992	-0.4726	-0.5064	-0.5688	0.4435
7.94	-9.7101	-0.2701	-1.5483	0.0149	-0.0000	0.0016	46.0732	8.5031	8.1365	-0.4726	-0.5064	-0.5688	0.4435
7.95	-9.7159	-0.2768	-1.5626	0.0052	-0.0011	0.0055	46.0184	8.5142	8.1485	-0.4726	-0.5064	-0.5688	0.4435
7.96	-9.7229	-0.2639	-1.5588	0.0039	0.0057	0.0000	45.9682	8.6124	8.0403	-0.4726	-0.5064	-0.5689	0.4435
7.97	-9.7059	-0.2572	-1.5523	0.0038	-0.0029	0.0023	45.9422	8.5738	8.0568	-0.4726	-0.5064	-0.5689	0.4434
7.98	-9.7197	-0.2638	-1.5573	-0.0018	0.0009	-0.0001	46.0739	8.5994	8.1401	-0.4726	-0.5063	-0.5689	0.4434
7.99	-9.7199	-0.2681	-1.5639	0.0053	-0.0043	0.0029	46.0843	8.5807	8.4937	-0.4726	-0.5063	-0.5690	0.4434
8	-9.7163	-0.2763	-1.5594	0.0075	-0.0073	0.0095	46.3854	8.6035	8.5045	-0.4726	-0.5063	-0.5690	0.4434
8.01	-9.7085	-0.2917	-1.5563	0.0069	-0.0031	0.0102	46.2842	8.4415	8.2654	-0.4727	-0.5063	-0.5690	0.4434
8.02	-9.7282	-0.2982	-1.5723	0.0121	-0.0066	0.0067	46.0536	8.2015	8.1439	-0.4727	-0.5063	-0.5690	0.4434
8.03	-9.7161	-0.2889	-1.5553	0.0185	-0.0070	0.0139	46.3182	8.5215	8.2893	-0.4727	-0.5063	-0.5689	0.4434
8.04	-9.7188	-0.2717	-1.5607	0.0063	-0.0055	0.0098	45.9728	8.3217	8.0740	-0.4727	-0.5063	-0.5689	0.4434
8.05	-9.7215	-0.2507	-1.5659	0.0095	-0.0080	0.0102	46.1219	8.2759	8.1198	-0.4727	-0.5063	-0.5689	0.4434
8.06	-9.7117	-0.2384	-1.5565	0.0075	-0.0063	0.0073	46.1951	8.4042	8.0652	-0.4728	-0.5062	-0.5689	0.4434
8.07	-9.7244	-0.2403	-1.5681	0.0096	-0.0021	0.0084	46.3144	8.3696	8.1657	-0.4728	-0.5062	-0.5689	0.4433
8.08	-9.7161	-0.2380	-1.5668	0.0131	-0.0050	0.0112	46.1337	8.3892	8.1702	-0.4728	-0.5063	-0.5689	0.4433
8.09	-9.7221	-0.2398	-1.5766	0.0182	-0.0066	0.0108	45.9028	8.2858	8.2949	-0.4728	-0.5063	-0.5689	0.4434
8.1	-9.7222	-0.2418	-1.5771	0.0036	-0.0093	0.0133	46.1983	8.2823	8.3480	-0.4728	-0.5063	-0.5688	0.4433
8.11	-9.7243	-0.2356	-1.5826	0.0109	-0.0052	0.0061	46.2742	8.3438	8.2488	-0.4728	-0.5062	-0.5688	0.4433
8.12	-9.7286	-0.2452	-1.5884	0.0080	-0.0017	0.0046	45.9594	8.4634	8.2713	-0.4729	-0.5062	-0.5689	0.4433
8.13	-9.7407	-0.2295	-1.6218	-0.0010	-0.0015	0.0102	46.1843	8.3744	8.2811	-0.4729	-0.5062	-0.5689	0.4433
8.14	-9.6979	-0.2226	-1.5804	0.0031	-0.0099	0.0068	46.0735	8.3549	8.2314	-0.4729	-0.5062	-0.5689	0.4433
8.15	-9.7109	-0.2369	-1.5725	0.0110	-0.0023	0.0119	45.8637	8.4497	8.1462	-0.4729	-0.5062	-0.5689	0.4432
8.16	-9.7440	-0.2390	-1.5902	0.0053	-0.0085	0.0056	46.1374	8.4515	8.2772	-0.4730	-0.5062	-0.5689	0.4432
8.17	-9.7172	-0.2409	-1.5651	0.0033	-0.0047	0.0060	46.0881	8.3831	8.2826	-0.4730	-0.5061	-0.5689	0.4432
8.18	-9.7184	-0.2438	-1.5706	0.0082	0.0003	0.0097	46.0823	8.6477	8.2078	-0.4730	-0.5061	-0.5689	0.4432
8.19	-9.7311	-0.2482	-1.5757	0.0138	-0.0060	0.0124	45.9032	8.2778	8.1645	-0.4730	-0.5062	-0.5689	0.4432
8.2	-9.7161	-0.2508	-1.5590	0.0061	0.0015	0.0071	46.1471	8.2039	8.1977	-0.4730	-0.5062	-0.5689	0.4432
8.21	-9.7165	-0.2555	-1.5523	0.0110	-0.0062	0.0092	46.3190	8.4822	8.1797	-0.4731	-0.5062	-0.5689	0.4432
8.22	-9.7296	-0.2606	-1.5577	0.0147	-0.0090	0.0144	46.3720	8.4015	8.1879	-0.4731	-0.5062	-0.5689	0.4432
8.23	-9.7159	-0.2597	-1.5526	0.0194	-0.0095	0.0070	46.1758	8.3637	8.1930	-0.4731	-0.5062	-0.5688	0.4432
8.24	-9.7199	-0.2573	-1.5497	0.0146	0.0005	0.0093	46.1782	8.3942	8.0568	-0.4731	-0.5062	-0.5688	0.4432
8.25	-9.7251	-0.2522	-1.5462	0.0083	-0.0034	0.0111	46.0376	8.3502	8.1591	-0.4731	-0.5062	-0.5688	0.4432
8.26	-9.7162	-0.2434	-1.5455	0.0124	-0.0039	0.0067	46.0123	8.4567	8.1837	-0.4731	-0.5062	-0.5688	0.4432
8.27	-9.7221	-0.2442	-1.5615	0.0068	-0.0031	0.0062	46.0268	8.4562	8.1848	-0.4731	-0.5062	-0.5688	0.4432
8.28	-9.7272	-0.2483	-1.5683	0.0133	-0.0112	0.0079	46.1329	8.3468	8.1582	-0.4731	-0.5062	-0.5688	0.4432
8.29	-9.7226	-0.2547	-1.5654	0.0087	-0.0027	0.0052	46.0688	8.4070	8.0542	-0.4731	-0.5062	-0.5688	0.4432
8.3	-9.7137	-0.2586	-1.5619	0.0076	-0.0035	0.0104	46.2167	8.2774	8.1922	-0.4732	-0.5062	-0.5688	0.4431
8.31	-9.7100	-0.2658	-1.5541	0.0019	-0.0073	0.0054	46.0287	8.4103	8.3976	-0.4732	-0.5061	-0.5688	0.4431
8.32	-9.7227	-0.2683	-1.5670	0.0103	-0.0049	0.0083	46.0891	8.3298	8.1417	-0.4732	-0.5061	-0.5688	0.4431
8.33	-9.7204	-0.2713	-1.5613	0.0057	-0.0044	0.0021	46.2512	8.5300	8.1034	-0.4732	-0.5061	-0.5688	0.4431
8.34	-9.7179	-0.2690	-1.5658	0.0013	-0.0044	0.0038	45.9597	8.5510	8.4290	-0.4732	-0.5061	-0.5689	0.4431
8.35	-9.7209	-0.2564	-1.5604	0.0192	-0.0064	0.0086	46.0679	8.4155	8.2552	-0.4732	-0.5061	-0.5689	0.4431
8.36	-9.7197	-0.2474	-1.5563	0.0110	-0.0047	0.0055	46.1089	8.3205	8.1878	-0.4732	-0.5061	-0.5689	0.4431
8.37	-9.7164	-0.2425	-1.5603	0.0084	-0.0030	0.0044	46.1048	8.2610	8.0803	-0.4732	-0.5060	-0.5689	0.4431
8.38	-9.7168	-0.2419	-1.5566	0.0137	-0.0050	0.0100	46.0954	8.5218	8.2370	-0.4732	-0.5061	-0.5689	0.4431
8.39	-9.7207	-0.2455	-1.5579	0.0126	-0.0044	0.0049	46.1116	8.2382	8.2062	-0.4732	-0.5061	-0.5689	0.4431
8.4	-9.7237	-0.2513	-1.5641	0.0022	-0.0085	0.0075	46.0829	8.2538	8.0514	-0.4733	-0.5060	-0.5689	0.4431
8.41	-9.7144	-0.2535	-1.5625	0.0095	-0.0058	0.0125	46.2093	8.4016	8.1153	-0.4733	-0.5060	-0.5689	0.4431
8.42	-9.7156	-0.2672	-1.5556	0.0132	-0.0015	0.0021	46.1418	8.2621	8.2169	-0.4733	-0.5060	-0.5689	0.4431
8.43	-9.7229	-0.2849	-1.5611	0.0144	-0.0046	0.0098	46.1166	8.3154	8.2976	-0.4733	-0.5060	-0.5689	0.4431
8.44	-9.7135	-0.2887	-1.5594	0.0072	-0.0022	0.0105	46.2771	8.2658	8.2612	-0.4733	-0.5060	-0.5689	0.4431
8.45	-9.7179	-0.2864	-1.5515	0.0039	-0.0060	0.0094	46.2591	8.5131	8.2840	-0.4733	-0.5060	-0.5689	0.4430
8.46	-9.7290	-0.2705	-1.5582	0.0061	-0.0059	0.0108	46.1117	8.3969	8.1127	-0.4734	-0.5060	-0.5689	0.4430
8.47	-9.7178	-0.2590	-1.5624	0.0092	-0.0074	0.0082	45.9503	8.1774	8.3389	-0.4734	-0.5060	-0.5689	0.4430
8.48	-9.7180	-0.2460	-1.5694	0.0122	-0.0004	0.0100	46.2103	8.3065	8.3774	-0.4734	-0.5060	-0.5689	0.4430
8.49	-9.7206	-0.2384	-1.5786	0.0093	-0.0033	0.0010	46.3519	8.3972	8.2442	-0.4734	-0.5060	-0.5689	0.4430
8.5	-9.7283	-0.2404	-1.5837	0.0101	-0.0104	0.0061	46.5200	8.7120	8.2939	-0.4734	-0.5060	-0.5689	0.4430
8.51	-9.7013	-0.2392	-1.5730	0.0049	-0.0045	0.0016	46.5073	8.7946	8.2683	-0.4734	-0.5059	-0.5689	0.4430
8.52	-9.7168	-0.2432	-1.6111	0.0054	0.0035	0.0065	45.9747	8.4757	8.0539	-0.4734	-0.5059	-0.5689	0.4430
8.53	-9.7603	-0.2617	-1.6111	0.0040	-0.0004	-0.0002	46.0010	8.6096	8.1975	-0.4734	-0.5059	-0.5690	0.4430
8.54	-9.6990	-0.2687	-1.5673	-0.0003	-0.0060	0.0048	45.8482	8.7231	8.1823	-0.4734	-0.5059	-0.5690	0.4429
8.55	-9.7054	-0.2748	-1.5865	0.0065	-0.0043	0.0073	46.0931	8.4968	8.0369	-0.4735	-0.5059	-0.5690	0.4429
8.56	-9.7550	-0.2863	-1.6044	0.0093	-0.0036	0.0092	46.0270	8.4117	8.0548	-0.4735	-0.5058	-0.5690	0.4429
8.57	-9.7133	-0.2729	-1.5797	0.0153	-0.0119	0.0124	46.1566	8.5783	8.0696	-0.4735	-0.5059	-0.5690	0.4429
8.58	-9.6979	-0.2582	-1.5598	0.0151	-0.0084	0.0122	46.2536	8.3567	7.9859	-0.4735	-0.5059	-0.5689	0.4429
8.59	-9.7402	-0.2473	-1.5825	0.0115	-0.0046	0.0087	46.2217	8.2618	7.9670	-0.4735	-0.5059	-0.5689	0.4429
8.6	-9.7154	-0.2360	-1.5542	0.0078	0.0012	0.0042	46.2132	8.3591	8.1006	-0.4735	-0.5059	-0.5690	0.4429
8.61	-9.7072	-0.2302	-1.5513	0.0021	-0.0089	0.0098	46.2791	8.3773	8.0052	-0.4736	-0.5058	-0.5690	0.4429
8.62	-9.7319	-0.2326	-1.5613	0.0011	-0.0093	0.0086	46.3322	8.5330	7.8774	-0.4736	-0.5058	-0.5690	0.4429
8.63	-9.7261	-0.2476	-1.5614	0.0021	-0.0064	0.0096	46.1160	8.5046	7.8774	-0.4736	-0.5058	-0.5690	0.4428
8.64	-9.7148	-0.2424	-1.5426	0.0054	-0.0071	0.0055	46.1521	8.3582	8.1881	-0.4737	-0.5058	-0.5690	0.4428
8.65	-9.7362	-0.2448	-1.5614	0.0148	0.0006	0.0063	46.1465	8.1335	8.0137	-0.4736	-0.5058	-0.5690	0.4428
8.66	-9.7199	-0.2466	-1.5460	0.0094	-0.0061	0.0028	46.1507	8.3749	7.8682	-0.4736	-0.5058	-0.5690	0.4428
8.67	-9.7139	-0.2430	-1.5504	0.0031	-0.0043	0.0074	45.9458	8.4249	7.8732	-0.4737	-0.5058	-0.5690	0.4428
8.68	-9.7221	-0.2417	-1.5572	0.0028	0.0018	0.0013	46.0162	8.4570	7.9181	-0.4737	-0.5057	-0.5691	0.4428
8.69	-9.7146	-0.2356	-1.5435	0.0081	-0.0062	0.0071	45.9497	8.5940	8.0450	-0.4737	-0.5057	-0.5691	0.4428
8.7	-9.7168	-0.2346	-1.5565	0.0023	-0.0049	0.0066	46.1081	8.6847	8.1631	-0.4737	-0.5057	-0.5691	0.4427
8.71	-9.7268	-0.2351	-1.5677	-0.0033	-0.0017	0.0062	46.1152	8.5379	8.0955	-0.4737	-0.5057	-0.5691	0.4427
8.72	-9.7168	-0.2343	-1.5677	0.0039	-0.0023	0.0043	46.0425	8.6924	8.0335	-0.4737	-0.5056	-0.5692	0.4427
8.73	-9.7110	-0.2406	-1.5677	0.0008	0.0003	0.0011	46.0784	8.5738	8.0479	-0.4737	-0.5056	-0.5692	0.4426
8.74	-9.7279	-0.2465	-1.5953	0.0044	-0.0069	0.0079	45.9479	8.5190	8.1787	-0.4738	-0.5056	-0.5692	0.4426
8.75	-9.7150	-0.2512	-1.5807	0.0059	0.0004	0.0079	45.8624	8.5782	8.0567	-0.4738	-0.5056	-0.5692	0.4426
8.76	-9.7136	-0.2576	-1.5785	0.0117	-0.0092	0.0092	46.0357	8.1279	8.1298	-0.4738	-0.5056	-0.5692	0.4426
8.77	-9.7111	-0.2601	-1.5678	0.0057	-0.0081	0.0030	46.2579	8.3913	8.1616	-0.4738	-0.5055	-0.5692	0.4426
8.78	-9.7229	-0.2642	-1.5738	0.0054	-0.0004	0.0022	46.0827	8.2994	8.1390	-0.4738	-0.5055	-0.5693	0.4426
8.79	-9.7267	-0.2587	-1.5649	0.0064	-0.0042	0.0047	46.2467	8.2511	7.9258	-0.4738	-0.5055	-0.5693	0.4426
8.8	-9.7147	-0.2501	-1.5487	0.0102	-0.0049	0.0060	46.1374	8.2593	7.8542	-0.4738	-0.5055	-0.5693	0.4426
8.81	-9.7092	-0.2406	-1.5404	0.0097	-0.0069	0.0086	46.2645	8.4730	8.0222	-0.4738	-0.5055	-0.5693	0.4426
8.82	-9.7112	-0.2329	-1.5496	0.0045	-0.0045	0.0048	46.0148	8.3719	8.0606	-0.4739	-0.5055	-0.5693	0.4426
8.83	-9.7335	-0.2304	-1.5772	0.0040	-0.0068	0.0075	46.2788	8.3314	8.0660	-0.4739	-0.5054	-0.5693	0.4425
8.84	-9.7373	-0.2564	-1.5736	0.0088	0.0027	0.0106	46.3224	8.3560	8.0539	-0.4739	-0.5055	-0.5693	0.4425
8.85	-9.6953	-0.2875	-1.5533	0.0083	-0.0046	0.0069	46.0826	8.5730	8.0712	-0.4739	-0.5055	-0.5693	0.4425
8.86	-9.7128	-0.3185	-1.5660	-0.0028	-0.0034	0.0016	46.1828	8.5978	8.2097	-0.4739	-0.5054	-0.5694	0.4425
8.87	-9.7406	-0.3471	-1.5872	0.0013	-0.0056	0.0034	46.0531	8.5949	8.2544	-0.4739	-0.5054	-0.5694	0.4424
8.88	-9.7195	-0.3602	-1.5839	0.0050	0.0027	0.0049	45.8768	8.4828	8.0811	-0.4739	-0.5054	-0.5695	0.4424
8.89	-9.7136	-0.3447	-1.5871	0.0046	-0.0000	0.0077	45.9224	8.5397	8.2314	-0.4739	-0.5054	-0.5695	0.4424
8.9	-9.7217	-0.3139	-1.5911	0.0122	-0.0030	0.0061	46.0682	8.8798	8.0854	-0.4739	-0.5054	-0.5695	0.4424
8.91	-9.7112	-0.2800	-1.5899	0.0124	0.0015	0.0093	46.0568	8.6491	8.0157	-0.4739	-0.5054	-0.5695	0.4423
8.92	-9.7055	-0.2526	-1.5759	0.0135	-0.0082	0.0058	45.9696	8.4763	8.3043	-0.4739	-0.5054	-0.5695	0.4424
8.93	-9.7208	-0.2442	-1.5814	0.0065	-0.0102	0.0066	46.1257	8.5105	7.9736	-0.4739	-0.5054	-0.5695	0.4424
8.94	-9.7183	-0.2454	-1.5632	0.0104	-0.0131	0.0084	45.9387	8.5703	8.2657	-0.4740	-0.5053	-0.5695	0.4424
8.95	-9.7074	-0.2576	-1.5398	0.0059	-0.0105	0.0053	46.1107	8.6111	8.1645	-0.4740	-0.5053	-0.5695	0.4424
8.96	-9.7161	-0.2585	-1.5345	0.0051	-0.0024	0.0079	46.2440	8.4314	7.9514	-0.4740	-0.5053	-0.5695	0.4424
8.97	-9.7211	-0.2632	-1.5294	0.0083	-0.0083	0.0067	46.2694	8.2480	8.1132	-0.4740	-0.5053	-0.5695	0.4424
8.98	-9.7189	-0.2591	-1.5287	0.0085	-0.0022	0.0099	46.3314	8.3516	8.0243	-0.4740	-0.5053	-0.5695	0.4423
8.99	-9.7075	-0.2558	-1.5190	0.0098	-0.0043	0.0064	46.2739	8.3529	8.4227	-0.4740	-0.5053	-0.5695	0.4423
9	-9.7187	-0.2537	-1.5215	0.0120	-0.0027	0.0079	46.6363	8.5082	8.4029	-0.4740	-0.5053	-0.5695	0.4423
9.01	-9.7173	-0.2375	-1.5203	0.0165	-0.0067	0.0092	46.3915	8.6868	8.4662	-0.4741	-0.5053	-0.5695	0.4423
9.02	-9.7045	-0.2355	-1.5173	0.0114	-0.0019	0.0047	45.9842	8.4734	8.2915	-0.4740	-0.5053	-0.5695	0.4423
9.03	-9.7212	-0.2298	-1.5259	0.0149	-0.0077	0.0099	46.1599	8.4751	8.2654	-0.4740	-0.5053	-0.5695	0.4423
9.04	-9.7211	-0.2389	-1.5348	0.0163	-0.0012	0.0183	45.9689	8.0631	8.2390	-0.4741	-0.5053	-0.5695	0.4423
9.05	-9.7177	-0.2485	-1.5476	0.0116	-0.0046	0.0091	45.8602	8.3979	8.0659	-0.4741	-0.5053	-0.5694	0.4423
9.06	-9.7150	-0.2489	-1.5538	0.0100	-0.0052	0.0046	45.8947	8.3375	8.1072	-0.4741	-0.5053	-0.5695	0.4423
9.07	-9.7283	-0.2528	-1.5780	0.0143	0.0002	0.0029	45.9567	8.3127	8.2389	-0.4740	-0.5053	-0.5695	0.4423
9.08	-9.7196	-0.2476	-1.5859	0.0120	-0.0031	0.0067	45.9917	8.4086	8.2963	-0.4740	-0.5053	-0.5695	0.4423
9.09	-9.7192	-0.2397	-1.5994	0.0160	-0.0016	0.0065	46.1429	8.2713	8.1570	-0.4740	-0.5054	-0.5695	0.4423
9.1	-9.7311	-0.2350	-1.6179	0.0194	-0.0073	0.0063	45.9682	8.5290	8.2117	-0.4740	-0.5054	-0.5695	0.4423
9.11	-9.7238	-0.2347	-1.6321	0.0136	-0.0018	0.0075	45.9444	8.3667	8.2873	-0.4740	-0.5054	-0.5695	0.4423
9.12	-9.7089	-0.2375	-1.6347	0.0145	-0.0093	0.0081	45.9403	8.3831	8.2587	-0.4740	-0.5054	-0.5694	0.4424
9.13	-9.7322	-0.2334	-1.6461	0.0132	-0.0007	0.0107	46.0541	8.3588	8.1753	-0.4740	-0.5054	-0.5694	0.4424
9.14	-9.7300	-0.2246	-1.6507	0.0128	-0.0114	0.0124	46.0042	8.2660	8.1907	-0.4740	-0.5054	-0.5694	0.4424
9.15	-9.7232	-0.2129	-1.6382	0.0142	-0.0087	0.0118	46.1047	8.3436	8.3985	-0.4740	-0.5054	-0.5694	0.4424
9.16	-9.7217	-0.2104	-1.6323	0.0062	-0.0065	0.0108	46.0303	8.4938	8.2268	-0.4740	-0.5054	-0.5694	0.4423
9.17	-9.7402	-0.2144	-1.6267	0.0166	-0.0058	0.0061	46.0289	8.4007	8.0961	-0.4740	-0.5054	-0.5694	0.4424
9.18	-9.7179	-0.2298	-1.5957	0.0159	-0.0075	0.0088	46.0323	8.2513	8.2043	-0.4740	-0.5054	-0.5693	0.4424
9.19	-9.7133	-0.2403	-1.5702	0.0181	-0.0097	0.0077	46.0376	8.3163	8.1980	-0.4740	-0.5054	-0.5693	0.4424
9.2	-9.7327	-0.2440	-1.5739	0.0164	-0.0086	0.0044	45.9368	8.2689	8.0449	-0.4740	-0.5054	-0.5693	0.4424
9.21	-9.7088	-0.2363	-1.5431	0.0167	-0.0071	0.0042	45.9743	8.4537	8.0578	-0.4740	-0.5054	-0.5693	0.4425
9.22	-9.7088	-0.2486	-1.5320	0.0162	-0.0113	0.0114	46.1155	8.4154	8.2402	-0.4740	-0.5054	-0.5693	0.4425
9.23	-9.7243	-0.2479	-1.5419	0.0189	-0.0046	0.0056	46.0451	8.2617	8.1383	-0.4740	-0.5054	-0.5692	0.4425
9.24	-9.7103	-0.2558	-1.5261	0.0045	-0.0098	0.0030	45.8964	8.5278	8.3331	-0.4740	-0.5054	-0.5693	0.4425
9.25	-9.7190	-0.2670	-1.5236	0.0143	-0.0037	0.0050	46.0261	8.3445	8.3275	-0.4740	-0.5054	-0.5693	0.4425
9.26	-9.7229	-0.2706	-1.5220	0.0115	-0.0027	0.0042	45.9683	8.2601	8.1650	-0.4740	-0.5054	-0.5693	0.4425
9.27	-9.7137	-0.2716	-1.5234	0.0096	0.0004	0.0031	45.8583	8.3125	8.2856	-0.4740	-0.5054	-0.5693	0.4425
9.28	-9.7213	-0.2654	-1.5328	0.0147	0.0007	0.0061	45.9734	8.3838	8.1170	-0.4740	-0.5054	-0.5693	0.4425
9.29	-9.7176	-0.2534	-1.5403	0.0149	0.0012	0.0046	45.9714	8.3654	8.1024	-0.4739	-0.5054	-0.5693	0.4425
9.3	-9.7138	-0.2390	-1.5428	0.0155	0.0006	0.0037	46.1553	8.4489	8.4059	-0.4739	-0.5054	-0.5693	0.4425
9.31	-9.7156	-0.2296	-1.5454	0.0170	-0.0054	0.0081	45.8585	8.3836	8.1908	-0.4739	-0.5054	-0.5693	0.4425
9.32	-9.7221	-0.2328	-1.5584	0.0209	-0.0011	0.0106	46.1006	8.4647	8.0831	-0.4739	-0.5055	-0.5693	0.4425
9.33	-9.7235	-0.2320	-1.5642	0.0131	-0.0011	0.0074	46.2417	8.2514	8.3126	-0.4738	-0.5055	-0.5693	0.4425
9.34	-9.7223	-0.2367	-1.5781	0.0089	-0.0064	0.0067	46.0730	8.4993	8.1572	-0.4738	-0.5055	-0.5693	0.4425
9.35	-9.7202	-0.2393	-1.5845	0.0109	0.0042	0.0012	46.1450	8.3051	8.0774	-0.4738	-0.5055	-0.5694	0.4425
9.36	-9.7220	-0.2497	-1.5911	0.0156	0.0006	0.0031	46.0532	8.3147	8.3157	-0.4738	-0.5055	-0.5694	0.4425
9.37	-9.7221	-0.2626	-1.5954	0.0082	-0.0117	0.0067	45.9562	8.1867	8.0895	-0.4738	-0.5055	-0.5694	0.4425
9.38	-9.7186	-0.2858	-1.6063	0.0100	-0.0102	0.0067	45.9416	8.3369	8.0084	-0.4738	-0.5055	-0.5694	0.4425
9.39	-9.7192	-0.3104	-1.6067	0.0079	0.0015	0.0110	45.9841	8.3536	8.2609	-0.4738	-0.5055	-0.5694	0.4425
9.4	-9.7243	-0.3241	-1.6055	0.0052	0.0012	0.0020	46.0589	8.4702	8.3268	-0.4738	-0.5054	-0.5694	0.4425
9.41	-9.7274	-0.3398	-1.6169	0.0114	-0.0095	0.0114	45.9171	8.3420	8.3763	-0.4738	-0.5054	-0.5694	0.4425
9.42	-9.7261	-0.3323	-1.6130	0.0135	-0.0097	0.0077	46.0798	8.3334	8.3340	-0.4738	-0.5054	-0.5694	0.4425
9.43	-9.7174	-0.3172	-1.6061	0.0124	-0.0068	0.0018	45.9425	8.4741	8.2118	-0.4738	-0.5054	-0.5694	0.4425
9.44	-9.7161	-0.3041	-1.5930	0.0106	-0.0017	0.0056	46.0204	8.2432	8.4506	-0.4738	-0.5054	-0.5694	0.4425
9.45	-9.7231	-0.2971	-1.5793	0.0121	-0.0007	0.0020	46.0200	8.4103	8.3507	-0.4738	-0.5054	-0.5694	0.4425
9.46	-9.7135	-0.2715	-1.5649	0.0176	-0.0085	0.0075	45.9250	8.4788	8.2090	-0.4738	-0.5054	-0.5694	0.4425
9.47	-9.7094	-0.2438	-1.5614	0.0200	-0.0067	0.0088	45.9573	8.3888	8.3728	-0.4738	-0.5054	-0.5694	0.4426
9.48	-9.7170	-0.2085	-1.5669	0.0205	-0.0052	0.0036	45.9329	8.3631	8.2431	-0.4738	-0.5055	-0.5694	0.4426
9.49	-9.7124	-0.1939	-1.5573	0.0069	-0.0065	0.0029	46.1612	8.3801	8.4230	-0.4738	-0.5054	-0.5694	0.4426
9.5	-9.7098	-0.1954	-1.5470	0.0101	-0.0051	0.0080	46.1924	8.3839	8.5631	-0.4738	-0.5054	-0.5694	0.4426
9.51	-9.7263	-0.2158	-1.5488	0.0138	-0.0043	0.0072	46.3587	8.5114	8.3237	-0.4738	-0.5054	-0.5694	0.4426
9.52	-9.7256	-0.2308	-1.5386	0.0092	-0.0096	0.0087	46.3959	8.4741	8.2362	-0.4738	-0.5054	-0.5694	0.4426
9.53	-9.7109	-0.2440	-1.5251	0.0027	-0.0066	0.0093	46.2726	8.4371	8.0622	-0.4738	-0.5054	-0.5694	0.4426
9.54	-9.7156	-0.2569	-1.5255	0.0095	-0.0011	0.0087	45.9910	8.4171	8.1907	-0.4738	-0.5054	-0.5694	0.4426
9.55	-9.7128	-0.2673	-1.5247	0.0087	-0.0089	0.0086	46.0792	8.4134	8.2911	-0.4738	-0.5054	-0.5694	0.4426
9.56	-9.7006	-0.2767	-1.5043	0.0067	-0.0071	0.0081	46.2210	8.4341	7.9996	-0.4738	-0.5054	-0.5694	0.4425
9.57	-9.7258	-0.2885	-1.5316	0.0139	-0.0065	0.0092	46.0923	8.3941	8.1648	-0.4739	-0.5054	-0.5694	0.4425
9.58	-9.7235	-0.2885	-1.5354	0.0115	-0.0053	0.0062	45.9109	8.5022	8.3674	-0.4739	-0.5054	-0.5694	0.4425
9.59	-9.7209	-0.2943	-1.5498	0.0066	-0.0030	0.0035	45.9315	8.4048	8.1269	-0.4739	-0.5054	-0.5694	0.4425
9.6	-9.7237	-0.2921	-1.5656	0.0132	-0.0059	0.0106	46.0660	8.4393	8.0604	-0.4739	-0.5054	-0.5694	0.4425
9.61	-9.7155	-0.2917	-1.5721	0.0040	-0.0049	0.0027	46.0715	8.5365	8.2625	-0.4739	-0.5053	-0.5694	0.4425
9.62	-9.7210	-0.2946	-1.5858	0.0057	0.0009	0.0070	45.8967	8.4581	8.1660	-0.4739	-0.5053	-0.5695	0.4425
9.63	-9.7166	-0.2942	-1.5904	0.0113	-0.0072	0.0032	45.9744	8.6463	7.9373	-0.4739	-0.5053	-0.5695	0.4425
9.64	-9.7189	-0.2974	-1.5997	0.0064	-0.0095	0.0117	45.8682	8.3337	8.0153	-0.4739	-0.5053	-0.5695	0.4425
9.65	-9.7234	-0.3033	-1.6103	0.0045	-0.0006	0.0071	45.9019	8.4636	8.1537	-0.4739	-0.5053	-0.5695	0.4425
9.66	-9.7176	-0.3074	-1.6197	0.0017	-0.0031	0.0022	46.0205	8.5085	8.2274	-0.4739	-0.5053	-0.5695	0.4424
9.67	-9.7138	-0.3048	-1.6184	0.0085	-0.0092	0.0084	45.9122	8.4126	8.2867	-0.4739	-0.5053	-0.5695	0.4424
9.68	-9.7260	-0.2920	-1.6268	0.0127	-0.0031	0.0070	45.7529	8.6860	8.1284	-0.4739	-0.5053	-0.5695	0.4424
9.69	-9.7279	-0.2744	-1.6220	0.0167	-0.0067	0.0086	45.9073	8.3278	8.2775	-0.4739	-0.5053	-0.5695	0.4425
9.7	-9.7225	-0.2532	-1.6141	0.0190	-0.0053	0.0080	46.1150	8.1463	8.0938	-0.4739	-0.5053	-0.5695	0.4425
9.71	-9.7223	-0.2376	-1.6159	0.0196	-0.0086	0.0117	46.2583	8.3272	8.0475	-0.4739	-0.5053	-0.5695	0.4425
9.72	-9.7334	-0.2314	-1.6206	0.0192	-0.0118	0.0080	46.3434	8.3429	8.1690	-0.4739	-0.5053	-0.5694	0.4425
9.73	-9.7167	-0.2247	-1.5974	0.0131	-0.0093	0.0070	46.0414	8.3430	7.9466	-0.4739	-0.5053	-0.5694	0.4425
9.74	-9.7197	-0.2154	-1.6003	0.0129	-0.0093	0.0091	46.2505	8.3236	7.9985	-0.4739	-0.5053	-0.5694	0.4426
9.75	-9.7293	-0.2051	-1.6000	0.0031	-0.0079	0.0103	46.2206	8.3876	8.0246	-0.4740	-0.5053	-0.5694	0.4425
9.76	-9.7221	-0.2010	-1.5811	0.0103	-0.0099	0.0093	46.1068	8.4457	8.1009	-0.4740	-0.5053	-0.5694	0.4425
9.77	-9.7199	-0.1909	-1.5787	0.0142	-0.0063	0.0067	45.9860	8.3111	8.0525	-0.4740	-0.5053	-0.5694	0.4426
9.78	-9.7265	-0.1894	-1.5893	0.0101	-0.0086	0.0098	46.0653	8.3525	8.0958	-0.4740	-0.5053	-0.5694	0.4426
9.79	-9.7349	-0.1978	-1.6000	0.0077	-0.0106	0.0076	46.0556	8.3140	8.2539	-0.4740	-0.5053	-0.5694	0.4426
9.8	-9.7256	-0.2040	-1.5922	0.0068	-0.0057	0.0081	45.9796	8.4132	8.1681	-0.4740	-0.5052	-0.5694	0.4426
9.81	-9.7140	-0.2070	-1.5716	0.0099	-0.0081	0.0047	46.0451	8.6258	8.1370	-0.4740	-0.5052	-0.5694	0.4426
9.82	-9.7208	-0.2140	-1.5693	0.0184	-0.0063	0.0013	46.1009	8.6846	8.0115	-0.4740	-0.5052	-0.5694	0.4426
9.83	-9.7270	-0.2184	-1.5456	0.0077	-0.0094	0.0087	45.8473	8.3816	7.9434	-0.4740	-0.5052	-0.5694	0.4426
9.84	-9.7152	-0.2221	-1.5105	0.0062	-0.0074	0.0033	45.9387	8.5365	8.1056	-0.4740	-0.5052	-0.5694	0.4426
9.85	-9.7099	-0.2136	-1.4857	0.0054	-0.0073	0.0054	45.9332	8.6629	8.1278	-0.4741	-0.5051	-0.5694	0.4426
9.86	-9.7150	-0.2155	-1.4834	0.0041	-0.0065	-0.0001	46.1120	8.5639	8.0468	-0.4741	-0.5051	-0.5694	0.4426
9.87	-9.7141	-0.2239	-1.4783	0.0125	-0.0061	0.0038	46.0074	8.5333	8.0667	-0.4741	-0.5051	-0.5694	0.4426
9.88	-9.7086	-0.2354	-1.4687	0.0189	-0.0093	0.0051	46.0263	8.2846	8.1893	-0.4740	-0.5051	-0.5694	0.4426
9.89	-9.7269	-0.2335	-1.4584	0.0200	-0.0090	0.0042	46.1139	8.3735	8.1046	-0.4740	-0.5051	-0.5694	0.4427
9.9	-9.7203	-0.2249	-1.4541	0.0165	-0.0062	0.0107	46.0966	8.2643	7.8517	-0.4740	-0.5051	-0.5694	0.4427
9.91	-9.6897	-0.2463	-1.4524	0.0119	0.0007	0.0021	46.0926	8.2362	8.0286	-0.4740	-0.5051	-0.5694	0.4427
9.92	-9.7207	-0.2564	-1.4914	0.0118	-0.0041	0.0086	46.1165	8.3971	8.0544	-0.4740	-0.5051	-0.5694	0.4427
9.93	-9.7086	-0.2615	-1.4854	0.0110	0.0025	0.0014	46.1939	8.3968	7.9641	-0.4740	-0.5051	-0.5694	0.4427
9.94	-9.7160	-0.2960	-1.5124	0.0122	0.0016	0.0049	45.8960	8.2286	7.9967	-0.4739	-0.5051	-0.5695	0.4427
9.95	-9.7206	-0.3015	-1.5444	0.0086	0.0038	0.0053	46.0655	8.3561	7.9831	-0.4739	-0.5051	-0.5695	0.4426
9.96	-9.7001	-0.3126	-1.5282	-0.0033	-0.0015	0.0043	46.0722	8.3252	7.9808	-0.4739	-0.5051	-0.5695	0.4426
9.97	-9.7282	-0.3458	-1.5643	0.0038	0.0087	0.0073	45.9952	8.3676	8.0293	-0.4739	-0.5051	-0.5696	0.4425
9.98	-9.7242	-0.3409	-1.5852	0.0122	0.0080	0.0021	46.0154	8.6127	8.1751	-0.4739	-0.5051	-0.5696	0.4425
9.99	-9.7189	-0.3354	-1.5978	-0.0027	0.0033	0.0027	46.1154	8.5538	8.2471	-0.4739	-0.5051	-0.5697	0.4425
10	-9.7241	-0.3254	-1.6214	-0.0028	-0.0034	0.0098	46.3616	8.6668	8.2595	-0.4739	-0.5051	-0.5697	0.4424
10.01	-9.7293	-0.3146	-1.6588	0.0063	-0.0011	0.0103	46.4162	8.7501	8.2560	-0.4739	-0.5051	-0.5698	0.4424
10.02	-9.7123	-0.3176	-1.6629	0.0009	-0.0050	0.0154	46.3573	8.4894	8.2037	-0.4739	-0.5051	-0.5698	0.4423
10.03	-9.7430	-0.3197	-1.6909	-0.0017	-0.0001	0.0054	46.2203	8.5334	8.2528	-0.4740	-0.5050	-0.5698	0.4423
10.04	-9.7274	-0.3165	-1.6683	0.0099	-0.0088	0.0056	46.2900	8.3423	8.2451	-0.4740	-0.5050	-0.5698	0.4423
10.05	-9.7142	-0.3000	-1.6568	0.0005	-0.0076	0.0028	46.1185	8.2587	8.2679	-0.4740	-0.5050	-0.5698	0.4423
10.06	-9.7343	-0.2957	-1.6417	0.0106	-0.0070	0.0095	46.0124	8.5425	8.1106	-0.4740	-0.5050	-0.5698	0.4423
10.07	-9.7191	-0.2897	-1.6016	0.0153	-0.0047	0.0139	46.0527	8.3486	8.0632	-0.4740	-0.5050	-0.5698	0.4423
10.08	-9.7266	-0.2790	-1.5849	0.0173	-0.0098	0.0135	46.2744	8.2847	8.0773	-0.4740	-0.5050	-0.5698	0.4423
10.09	-9.7316	-0.2499	-1.5698	0.0215	-0.0056	0.0099	46.2764	8.3131	8.0839	-0.4740	-0.5051	-0.5697	0.4423
10.1	-9.7213	-0.2137	-1.5572	0.0178	-0.0080	0.0127	46.1810	8.1821	8.1888	-0.4740	-0.5051	-0.5697	0.4423
10.11	-9.7095	-0.1854	-1.5269	0.0130	-0.0005	0.0121	46.1710	8.2676	8.1342	-0.4740	-0.5051	-0.5697	0.4423
10.12	-9.7262	-0.1607	-1.5263	0.0166	0.0003	0.0075	46.0125	8.3981	7.9307	-0.4740	-0.5051	-0.5697	0.4423
10.13	-9.7210	-0.1355	-1.5147	0.0219	-0.0111	0.0123	46.1467	8.2682	8.1633	-0.4740	-0.5051	-0.5697	0.4423
10.14	-9.7169	-0.1255	-1.5091	0.0164	-0.0039	0.0119	46.2167	8.3529	8.2059	-0.4740	-0.5052	-0.5696	0.4423
10.15	-9.7282	-0.1329	-1.5195	0.0081	-0.0109	0.0069	46.1686	8.3680	7.9833	-0.4740	-0.5052	-0.5696	0.4423
10.16	-9.7105	-0.1421	-1.5128	0.0096	-0.0088	0.0041	46.3032	8.0858	8.3975	-0.4740	-0.5051	-0.5696	0.4423
10.17	-9.7152	-0.1624	-1.5148	0.0035	-0.0068	0.0024	46.2270	8.1939	8.2087	-0.4740	-0.5051	-0.5697	0.4423
10.18	-9.7267	-0.1791	-1.5212	0.0032	-0.0046	0.0063	46.2077	8.3562	8.2893	-0.4741	-0.5051	-0.5697	0.4423
10.19	-9.7140	-0.2003	-1.5161	0.0117	0.0004	0.0021	46.1066	8.2044	8.1497	-0.4740	-0.5051	-0.5697	0.4423
10.2	-9.7186	-0.2171	-1.5356	0.0110	-0.0053	0.0011	46.0564	8.1343	8.2728	-0.4740	-0.5050	-0.5697	0.4423
10.21	-9.7094	-0.2276	-1.5451	0.0118	-0.0041	0.0044	46.2010	8.2495	8.2396	-0.4740	-0.5050	-0.5697	0.4423
10.22	-9.7265	-0.2446	-1.5702	0.0044	-0.0014	0.0042	46.0696	8.1789	8.2755	-0.4740	-0.5050	-0.5698	0.4423
10.23	-9.7307	-0.2574	-1.5884	0.0063	-0.0015	0.0041	46.2022	8.3962	8.1504	-0.4740	-0.5050	-0.5698	0.4423
10.24	-9.7149	-0.2771	-1.5813	0.0007	-0.0021	0.0023	46.2210	8.3844	8.0654	-0.4740	-0.5050	-0.5698	0.4423
10.25	-9.7264	-0.2962	-1.5895	0.0058	-0.0017	0.0081	46.1042	8.5460	8.2304	-0.4740	-0.5050	-0.5698	0.4423
10.26	-9.7268	-0.3109	-1.5985	0.0020	-0.0150	0.0085	45.9797	8.4915	8.2611	-0.4741	-0.5049	-0.5698	0.4423
10.27	-9.7093	-0.3319	-1.5958	0.0016	-0.0096	0.0098	46.2363	8.3502	8.1348	-0.4741	-0.5049	-0.5698	0.4422
10.28	-9.7140	-0.3453	-1.6105	0.0054	-0.0075	0.0134	46.1766	8.4204	8.1952	-0.4742	-0.5049	-0.5698	0.4422
10.29	-9.7397	-0.3564	-1.6306	0.0103	-0.0098	0.0088	46.1896	8.3051	8.0788	-0.4742	-0.5049	-0.5698	0.4422
10.3	-9.7099	-0.3412	-1.6072	0.0132	-0.0082	0.0052	45.9110	8.3016	8.0943	-0.4742	-0.5049	-0.5698	0.4422
10.31	-9.7186	-0.3398	-1.6203	0.0146	-0.0060	0.0130	46.1066	8.3750	7.9147	-0.4742	-0.5049	-0.5698	0.4422
10.32	-9.7401	-0.2984	-1.6260	0.0142	-0.0105	0.0149	46.0765	8.2815	7.9740	-0.4742	-0.5049	-0.5698	0.4422
10.33	-9.7088	-0.2660	-1.5851	0.0172	-0.0083	0.0119	46.0286	8.2943	8.1649	-0.4742	-0.5049	-0.5697	0.4422
10.34	-9.7217	-0.2544	-1.5949	0.0147	-0.0093	0.0112	46.0167	8.3192	8.2677	-0.4742	-0.5049	-0.5697	0.4422
10.35	-9.7239	-0.2534	-1.5988	0.0164	-0.0087	0.0065	46.0815	8.2403	8.3186	-0.4742	-0.5049	-0.5697	0.4423
10.36	-9.7093	-0.2683	-1.5776	0.0011	-0.0082	0.0076	46.2452	8.2948	8.0703	-0.4743	-0.5049	-0.5697	0.4423
10.37	-9.7319	-0.2871	-1.5921	0.0021	-0.0110	0.0078	46.1581	8.5054	8.3208	-0.4743	-0.5049	-0.5697	0.4422
10.38	-9.7297	-0.3048	-1.5831	0.0078	-0.0079	0.0083	46.2295	8.4436	7.9587	-0.4743	-0.5049	-0.5697	0.4422
10.39	-9.7108	-0.3151	-1.5553	0.0058	-0.0086	0.0066	46.1501	8.4852	8.1086	-0.4744	-0.5048	-0.5697	0.4422
10.4	-9.7112	-0.3180	-1.5513	0.0097	-0.0104	0.0105	46.0825	8.4429	8.3212	-0.4744	-0.5048	-0.5697	0.4422
10.41	-9.7119	-0.3079	-1.5342	0.0132	-0.0070	0.0094	46.2212	8.4950	8.1078	-0.4744	-0.5048	-0.5697	0.4422
10.42	-9.6989	-0.2954	-1.5060	0.0113	-0.0091	0.0061	45.9517	8.4108	8.2017	-0.4744	-0.5048	-0.5697	0.4422
10.43	-9.7053	-0.2896	-1.5051	0.0140	-0.0074	0.0106	45.9911	8.2386	8.2685	-0.4744	-0.5048	-0.5696	0.4423
10.44	-9.7303	-0.2663	-1.5196	0.0153	-0.0140	0.0121	46.1147	8.4006	8.1746	-0.4744	-0.5048	-0.5696	0.4423
10.45	-9.7134	-0.2516	-1.4981	0.0155	-0.0128	0.0145	46.1266	8.3695	8.1325	-0.4745	-0.5048	-0.5695	0.4423
10.46	-9.7048	-0.2245	-1.4855	0.0125	-0.0086	0.0121	46.2122	8.4010	8.2120	-0.4745	-0.5049	-0.5695	0.4423
10.47	-9.7257	-0.2247	-1.4899	0.0086	-0.0066	0.0110	46.1944	8.3344	8.0164	-0.4745	-0.5049	-0.5695	0.4423
10.48	-9.7160	-0.2260	-1.4857	0.0117	-0.0056	0.0061	46.1905	8.1953	7.9717	-0.4745	-0.5048	-0.5695	0.4423
10.49	-9.7244	-0.2231	-1.5049	0.0173	-0.0044	0.0087	46.4181	8.3508	8.2215	-0.4745	-0.5049	-0.5695	0.4423
10.5	-9.7192	-0.2326	-1.5098	0.0081	-0.0039	0.0124	46.7309	8.4134	8.3025	-0.4745	-0.5049	-0.5695	0.4423
10.51	-9.7173	-0.2246	-1.5226	0.0090	-0.0069	0.0059	46.6638	8.5162	8.1691	-0.4745	-0.5049	-0.5695	0.4423
10.52	-9.7256	-0.2284	-1.5483	0.0029	0.0006	0.0099	46.1367	8.4447	8.2423	-0.4745	-0.5049	-0.5695	0.4422
10.53	-9.7146	-0.2191	-1.5499	0.0071	0.0041	0.0102	46.0424	8.5728	8.3332	-0.4745	-0.5049	-0.5695	0.4422
10.54	-9.7307	-0.2237	-1.5885	0.0101	-0.0034	0.0081	46.1178	8.5173	8.0017	-0.4745	-0.5049	-0.5696	0.4422
10.55	-9.7114	-0.2238	-1.5926	0.0028	-0.0060	0.0066	45.8584	8.4526	8.2909	-0.4746	-0.5049	-0.5696	0.4422
10.56	-9.7137	-0.2393	-1.6075	-0.0021	-0.0008	0.0004	45.8184	8.6050	8.3045	-0.4746	-0.5048	-0.5696	0.4421
10.57	-9.7278	-0.2499	-1.6223	-0.0013	0.0048	0.0068	45.9025	8.6485	8.1050	-0.4746	-0.5048	-0.5697	0.4421
10.58	-9.7252	-0.2547	-1.6100	0.0017	0.0012	0.0035	45.9227	8.4024	8.2082	-0.4746	-0.5048	-0.5697	0.4420
10.59	-9.7369	-0.2508	-1.6222	0.0052	-0.0022	0.0017	46.1752	8.3204	8.0477	-0.4746	-0.5048	-0.5698	0.4420
10.6	-9.7280	-0.2356	-1.6109	-0.0001	-0.0057	0.0077	45.9837	8.4152	8.2486	-0.4746	-0.5047	-0.5698	0.4420
10.61	-9.7347	-0.2145	-1.6197	-0.0027	-0.0053	0.0045	45.9688	8.4217	8.2049	-0.4746	-0.5047	-0.5698	0.4420
10.62	-9.6981	-0.2170	-1.5616	-0.0012	-0.0069	0.0040	45.9657	8.6019	8.1287	-0.4747	-0.5046	-0.5698	0.4419
10.63	-9.7392	-0.2079	-1.5830	0.0054	-0.0076	0.0066	45.9732	8.4334	8.3024	-0.4747	-0.5046	-0.5699	0.4419
10.64	-9.7193	-0.1752	-1.5436	0.0025	-0.0121	0.0072	46.1022	8.4111	8.1834	-0.4747	-0.5046	-0.5699	0.4419
10.65	-9.7076	-0.1759	-1.5148	0.0022	-0.0079	0.0080	46.4072	8.3531	7.9699	-0.4747	-0.5045	-0.5699	0.4419
10.66	-9.7735	-0.1978	-1.5820	-0.0024	-0.0065	0.0054	46.1985	8.2317	8.1073	-0.4748	-0.5045	-0.5699	0.4419
10.67	-9.7100	-0.2116	-1.5397	0.0000	-0.0097	0.0027	46.0170	8.2246	8.1889	-0.4748	-0.5045	-0.5699	0.4419
10.68	-9.6928	-0.2693	-1.5186	0.0023	-0.0090	0.0021	46.2184	8.2890	8.1695	-0.4748	-0.5044	-0.5700	0.4419
10.69	-9.7586	-0.2979	-1.5738	0.0100	-0.0064	0.0029	45.9348	8.3351	8.1728	-0.4748	-0.5044	-0.5700	0.4419
10.7	-9.7254	-0.2646	-1.5679	0.0136	-0.0061	0.0023	46.0112	8.3072	8.1676	-0.4748	-0.5044	-0.5700	0.4419
10.71	-9.6712	-0.2469	-1.5370	0.0103	-0.0054	0.0042	46.1434	8.1969	8.1817	-0.4748	-0.5044	-0.5700	0.4419
10.72	-9.7390	-0.2383	-1.5772	0.0049	-0.0082	0.0114	45.9695	8.3398	8.1641	-0.4749	-0.5044	-0.5700	0.4419
10.73	-9.7323	-0.2380	-1.5725	0.0045	-0.0089	0.0057	45.8885	8.5938	8.1633	-0.4749	-0.5043	-0.5700	0.4419
10.74	-9.7014	-0.2423	-1.5702	0.0056	0.0004	0.0025	45.8918	8.5423	8.2656	-0.4749	-0.5043	-0.5700	0.4419
10.75	-9.7261	-0.2697	-1.5833	0.0019	-0.0022	0.0049	46.1672	8.4443	8.4218	-0.4749	-0.5043	-0.5700	0.4418
10.76	-9.7302	-0.2679	-1.5844	-0.0017	-0.0065	0.0028	46.0197	8.5784	8.4274	-0.4749	-0.5042	-0.5701	0.4418
10.77	-9.7199	-0.2741	-1.5777	0.0063	-0.0081	0.0026	46.0811	8.5458	8.3562	-0.4749	-0.5042	-0.5701	0.4418
10.78	-9.7224	-0.2717	-1.5696	-0.0031	-0.0094	0.0047	45.9698	8.6140	8.1424	-0.4750	-0.5041	-0.5701	0.4418
10.79	-9.7193	-0.2868	-1.5569	-0.0037	-0.0043	0.0045	45.8901	8.6136	8.0889	-0.4750	-0.5041	-0.5702	0.4418
10.8	-9.7155	-0.3078	-1.5504	0.0038	-0.0067	0.0025	46.1508	8.5189	8.2954	-0.4750	-0.5041	-0.5702	0.4418
10.81	-9.7278	-0.3211	-1.5455	0.0077	-0.0078	0.0044	46.1364	8.8268	8.0123	-0.4750	-0.5040	-0.5702	0.4418
10.82	-9.7174	-0.3420	-1.5317	0.0119	-0.0128	0.0104	46.2386	8.5847	8.2854	-0.4751	-0.5040	-0.5702	0.4418
10.83	-9.7056	-0.3508	-1.5211	0.0041	-0.0093	0.0063	46.1845	8.1374	8.1777	-0.4751	-0.5040	-0.5702	0.4418
10.84	-9.7122	-0.3437	-1.5179	0.0082	-0.0085	0.0085	46.3150	8.1550	8.1930	-0.4751	-0.5040	-0.5702	0.4418
10.85	-9.7075	-0.3258	-1.5082	0.0165	-0.0042	0.0060	46.2730	8.4096	8.1396	-0.4751	-0.5040	-0.5702	0.4418
10.86	-9.7079	-0.3105	-1.5046	0.0172	-0.0031	0.0126	46.1489	8.3711	7.8885	-0.4751	-0.5040	-0.5701	0.4418
10.87	-9.7020	-0.3066	-1.4773	0.0157	0.0010	0.0092	46.1198	8.5224	8.2883	-0.4751	-0.5041	-0.5701	0.4418
10.88	-9.7230	-0.3071	-1.4914	0.0046	-0.0054	0.0101	46.1334	8.3274	8.3277	-0.4751	-0.5041	-0.5701	0.4418
10.89	-9.7367	-0.2566	-1.5305	0.0141	-0.0071	0.0115	46.1204	8.5487	8.2568	-0.4751	-0.5041	-0.5701	0.4418
10.9	-9.6947	-0.2422	-1.4976	0.0108	-0.0078	0.0092	46.1395	8.4360	8.1781	-0.4751	-0.5041	-0.5701	0.4418
10.91	-9.7280	-0.2274	-1.5320	0.0019	-0.0045	0.0077	46.1166	8.4070	8.2538	-0.4751	-0.5040	-0.5701	0.4417
10.92	-9.7247	-0.2400	-1.5288	0.0035	-0.0019	0.0067	46.0402	8.5619	8.3632	-0.4752	-0.5040	-0.5702	0.4417
10.93	-9.7070	-0.2382	-1.5328	0.0041	-0.0044	0.0091	46.0208	8.5163	8.1525	-0.4752	-0.5040	-0.5702	0.4417
10.94	-9.7138	-0.2378	-1.5455	0.0022	0.0017	0.0100	45.8715	8.5162	8.1773	-0.4752	-0.5040	-0.5702	0.4416
10.95	-9.7242	-0.2445	-1.5503	0.0031	0.0071	0.0083	45.9851	8.3821	8.1468	-0.4752	-0.5040	-0.5702	0.4416
10.96	-9.7268	-0.2398	-1.5777	0.0052	0.0052	0.0057	45.9657	8.6334	8.2042	-0.4752	-0.5040	-0.5703	0.4415
10.97	-9.7394	-0.2255	-1.6016	0.0038	-0.0011	0.0010	45.9651	8.5158	8.2720	-0.4752	-0.5040	-0.5703	0.4415
10.98	-9.7037	-0.2197	-1.5736	0.0053	0.0004	0.0056	45.9648	8.6739	8.2225	-0.4751	-0.5040	-0.5703	0.4415
10.99	-9.7310	-0.2400	-1.5876	0.0056	0.0010	0.0008	46.1587	8.6319	8.5012	-0.4751	-0.5040	-0.5704	0.4415
11	-9.7307	-0.2505	-1.5968	0.0135	0.0047	0.0083	46.4051	8.6846	8.6725	-0.4751	-0.5040	-0.5704	0.4415
11.01	-9.7265	-0.2343	-1.6043	0.0214	-0.0088	0.0094	46.3247	8.7071	8.4800	-0.4751	-0.5040	-0.5704	0.4415
11.02	-9.7294	-0.2187	-1.6114	0.0106	-0.0101	0.0091	46.0804	8.5157	8.0849	-0.4751	-0.5040	-0.5704	0.4415
11.03	-9.7307	-0.1891	-1.6193	0.0149	-0.0048	0.0089	46.1078	8.5210	8.2133	-0.4751	-0.5040	-0.5704	0.4415
11.04	-9.7311	-0.1829	-1.6194	0.0195	-0.0085	0.0100	45.9814	8.2271	8.0952	-0.4751	-0.5040	-0.5703	0.4415
11.05	-9.7302	-0.1875	-1.6170	0.0049	-0.0049	0.0071	45.8110	8.2996	8.1600	-0.4751	-0.5040	-0.5703	0.4415
11.06	-9.7215	-0.2134	-1.6199	0.0086	-0.0074	0.0042	46.2066	8.5237	8.1926	-0.4752	-0.5040	-0.5704	0.4415
11.07	-9.7220	-0.2392	-1.6162	0.0050	-0.0105	0.0073	46.2261	8.3136	8.1566	-0.4752	-0.5039	-0.5703	0.4415
11.08	-9.7234	-0.2632	-1.6154	0.0004	-0.0096	0.0064	46.1628	8.3289	8.2516	-0.4752	-0.5039	-0.5704	0.4415
11.09	-9.7280	-0.2979	-1.6146	0.0030	-0.0118	0.0102	46.1642	8.2982	8.3686	-0.4753	-0.5039	-0.5704	0.4415
11.1	-9.7209	-0.3053	-1.6148	0.0069	-0.0104	0.0109	46.2140	8.4710	8.2286	-0.4753	-0.5039	-0.5703	0.4415
11.11	-9.7206	-0.3019	-1.6089	0.0113	-0.0095	0.0075	46.0335	8.4431	8.2963	-0.4753	-0.5039	-0.5703	0.4415
11.12	-9.7311	-0.2920	-1.6091	0.0058	-0.0064	0.0080	45.8001	8.2969	8.1524	-0.4753	-0.5038	-0.5703	0.4415
11.13	-9.7189	-0.2861	-1.5880	0.0082	-0.0081	0.0052	45.9888	8.4050	8.2990	-0.4754	-0.5038	-0.5703	0.4415
11.14	-9.7111	-0.2831	-1.5727	0.0076	-0.0118	0.0085	46.1536	8.2855	8.2086	-0.4754	-0.5038	-0.5703	0.4415
11.15	-9.7211	-0.2774	-1.5620	0.0117	-0.0086	0.0080	46.1942	8.5881	8.2041	-0.4754	-0.5038	-0.5703	0.4415
11.16	-9.7150	-0.2854	-1.5449	0.0138	-0.0027	0.0027	46.1518	8.4761	8.4013	-0.4754	-0.5038	-0.5703	0.4415
11.17	-9.7221	-0.2868	-1.5351	0.0024	-0.0068	0.0076	46.1033	8.2648	8.1779	-0.4754	-0.5038	-0.5703	0.4415
11.18	-9.7161	-0.2900	-1.5115	0.0081	-0.0102	0.0082	46.2197	8.3845	8.2520	-0.4754	-0.5037	-0.5703	0.4415
11.19	-9.7191	-0.3001	-1.5085	0.0076	-0.0132	0.0024	46.0792	8.4183	8.1941	-0.4754	-0.5037	-0.5703	0.4415
11.2	-9.7187	-0.2981	-1.5119	0.0125	-0.0089	0.0038	46.1983	8.2925	8.1722	-0.4755	-0.5037	-0.5703	0.4416
11.21	-9.7043	-0.2918	-1.4937	0.0022	-0.0084	0.0078	46.1618	8.2183	8.1831	-0.4755	-0.5037	-0.5703	0.4415
11.22	-9.7144	-0.2834	-1.5085	-0.0032	-0.0094	0.0119	46.2250	8.2490	8.2017	-0.4755	-0.5036	-0.5704	0.4415
11.23	-9.7103	-0.2778	-1.5068	0.0050	-0.0069	0.0123	46.3684	8.2293	8.0739	-0.4756	-0.5036	-0.5703	0.4415
11.24	-9.7079	-0.2717	-1.5014	0.0104	-0.0017	0.0121	46.2037	8.2525	8.3582	-0.4756	-0.5036	-0.5703	0.4415
11.25	-9.7286	-0.2700	-1.5327	0.0141	-0.0072	0.0107	46.0174	8.3642	8.2748	-0.4756	-0.5036	-0.5703	0.4415
11.26	-9.7154	-0.2696	-1.5315	0.0092	-0.0026	0.0117	46.0117	8.4799	8.0527	-0.4756	-0.5037	-0.5703	0.4414
11.27	-9.7100	-0.2706	-1.5360	0.0119	-0.0128	0.0071	46.1068	8.4895	8.1016	-0.4756	-0.5036	-0.5703	0.4415
11.28	-9.7196	-0.2688	-1.5518	0.0058	-0.0057	0.0074	46.2206	8.2258	8.2184	-0.4756	-0.5036	-0.5703	0.4415
11.29	-9.7242	-0.2674	-1.5653	-0.0029	-0.0020	0.0154	46.0770	8.2867	8.1081	-0.4757	-0.5036	-0.5703	0.4414
11.3	-9.7182	-0.2577	-1.5640	0.0033	-0.0036	0.0104	45.9000	8.3972	8.0771	-0.4757	-0.5036	-0.5703	0.4414
11.31	-9.7190	-0.2503	-1.5696	0.0026	-0.0000	0.0040	46.0764	8.4141	8.0912	-0.4757	-0.5036	-0.5704	0.4413
11.32	-9.7237	-0.2424	-1.5771	0.0117	-0.0098	0.0054	46.0772	8.3557	8.2432	-0.4757	-0.5036	-0.5704	0.4413
11.33	-9.7176	-0.2294	-1.5792	0.0045	-0.0072	0.0097	46.1866	8.2864	8.0399	-0.4757	-0.5036	-0.5704	0.4413
11.34	-9.7202	-0.2186	-1.5833	0.0007	-0.0024	0.0083	46.0858	8.4997	8.3291	-0.4758	-0.5035	-0.5704	0.4413
11.35	-9.7248	-0.2073	-1.5863	0.0115	-0.0042	0.0083	45.8795	8.4809	8.3907	-0.4757	-0.5035	-0.5704	0.4413
11.36	-9.7219	-0.2097	-1.5866	0.0014	-0.0056	0.0057	46.1751	8.4606	8.0279	-0.4758	-0.5035	-0.5704	0.4413
11.37	-9.7246	-0.2024	-1.5846	0.0018	-0.0092	0.0076	46.1809	8.5809	8.1832	-0.4758	-0.5035	-0.5704	0.4413
11.38	-9.7289	-0.2097	-1.5820	0.0115	-0.0086	0.0117	46.0856	8.5395	8.1879	-0.4758	-0.5035	-0.5704	0.4413
11.39	-9.7327	-0.2067	-1.5829	0.0087	-0.0125	0.0077	46.2263	8.2131	8.2736	-0.4758	-0.5035	-0.5704	0.4413
11.4	-9.7247	-0.2044	-1.5785	0.0155	-0.0125	0.0055	46.0853	8.4847	8.0721	-0.4759	-0.5034	-0.5704	0.4413
11.41	-9.7278	-0.2043	-1.5893	0.0149	-0.0089	0.0048	46.1889	8.5579	8.0880	-0.4758	-0.5034	-0.5704	0.4413
11.42	-9.7331	-0.1970	-1.5854	0.0128	-0.0068	0.0083	46.1707	8.4863	8.0959	-0.4759	-0.5034	-0.5704	0.4414
11.43	-9.7241	-0.1972	-1.5745	0.0127	-0.0087	0.0078	46.2006	8.4376	8.0663	-0.4759	-0.5034	-0.5704	0.4414
11.44	-9.7133	-0.2042	-1.5668	0.0137	-0.0082	0.0049	46.0965	8.3693	8.1847	-0.4759	-0.5034	-0.5703	0.4414
11.45	-9.7177	-0.2117	-1.5531	0.0174	-0.0059	0.0005	46.0998	8.6031	8.1503	-0.4758	-0.5034	-0.5703	0.4414
11.46	-9.7317	-0.2193	-1.5625	0.0164	-0.0093	0.0099	46.2048	8.2801	8.3737	-0.4758	-0.5034	-0.5703	0.4415
11.47	-9.7179	-0.2420	-1.5534	0.0058	-0.0041	0.0059	46.1449	8.4114	8.2222	-0.4758	-0.5034	-0.5703	0.4414
11.48	-9.7291	-0.2602	-1.5695	0.0014	-0.0069	0.0034	46.2807	8.3071	8.1511	-0.4758	-0.5034	-0.5704	0.4414
11.49	-9.7238	-0.2790	-1.5633	-0.0037	-0.0013	0.0044	46.2247	8.4471	8.4183	-0.4759	-0.5033	-0.5704	0.4414
11.5	-9.7163	-0.2990	-1.5656	0.0034	-0.0099	0.0073	46.3199	8.6409	8.2890	-0.4759	-0.5033	-0.5704	0.4414
11.51	-9.7116	-0.3001	-1.5737	-0.0007	-0.0055	0.0036	46.4374	8.5719	8.2615	-0.4759	-0.5033	-0.5705	0.4414
11.52	-9.7179	-0.3129	-1.5631	0.0010	-0.0013	0.0038	46.0750	8.4335	8.1989	-0.4759	-0.5032	-0.5705	0.4413
