time	acceleration_x	acceleration_y	acceleration_z	gyroscope_x	gyroscope_y	gyroscope_z	magnetometer_x	magnetometer_y	magnetometer_z	quaternion_w	quaternion_x	quaternion_y	quaternion_z
0	-5.2376	-0.3396	0.1280	-0.0181	-0.0247	-0.0063	23.7165	-5.7661	2.3333	-0.3429	0.2094	-0.3164	-0.2026
0.01	-10.3882	-0.6584	0.2475	-0.0406	-0.0445	-0.0116	46.5284	-11.6407	4.6046	-0.6775	0.4137	-0.6250	-0.4004
0.02	-9.0843	-0.5665	0.2050	-0.0331	-0.0363	-0.0102	40.1088	-10.7891	4.0974	-0.5963	0.3641	-0.5499	-0.3526
0.03	-9.7605	-0.6080	0.2485	-0.0378	-0.0464	-0.0121	43.3848	-11.9414	4.2638	-0.6402	0.3909	-0.5902	-0.3787
0.04	-9.3884	-0.6036	0.2277	-0.0382	-0.0446	-0.0124	41.3229	-10.8093	3.8083	-0.6131	0.3743	-0.5650	-0.3629
0.05	-9.7330	-0.6119	0.2878	-0.0399	-0.0499	-0.0132	42.6444	-11.1229	4.0497	-0.6306	0.3850	-0.5809	-0.3734
0.06	-9.5903	-0.6385	0.2414	-0.0398	-0.0544	-0.0110	41.8396	-10.9916	3.9923	-0.6196	0.3782	-0.5704	-0.3671
0.07	-9.6073	-0.6352	0.2838	-0.0343	-0.0557	-0.0119	42.4153	-11.2170	4.1502	-0.6264	0.3823	-0.5765	-0.3713
0.08	-9.5576	-0.6486	0.2569	-0.0392	-0.0599	-0.0126	42.3216	-10.9462	4.0277	-0.6226	0.3799	-0.5727	-0.3693
0.09	-9.5039	-0.6367	0.2807	-0.0374	-0.0628	-0.0109	42.1411	-10.9454	3.7880	-0.6247	0.3811	-0.5743	-0.3707
0.1	-9.5204	-0.6323	0.2876	-0.0363	-0.0545	-0.0112	42.0876	-11.0894	3.7220	-0.6239	0.3806	-0.5733	-0.3704
0.11	-9.4918	-0.6374	0.2712	-0.0336	-0.0617	-0.0114	42.3722	-10.9592	3.9141	-0.6240	0.3805	-0.5731	-0.3706
0.12	-9.4586	-0.6212	0.2997	-0.0293	-0.0538	-0.0141	42.1546	-10.9280	3.9157	-0.6241	0.3805	-0.5729	-0.3708
0.13	-9.5384	-0.6448	0.2788	-0.0326	-0.0564	-0.0152	42.0248	-11.1730	3.6954	-0.6242	0.3805	-0.5727	-0.3710
0.14	-9.4799	-0.6534	0.2897	-0.0146	-0.0531	-0.0204	42.0898	-11.0743	3.9077	-0.6243	0.3804	-0.5725	-0.3712
0.15	-9.4872	-0.6353	0.2940	-0.0118	-0.0389	-0.0286	41.9732	-11.0129	3.8655	-0.6244	0.3804	-0.5724	-0.3713
0.16	-9.4756	-0.6493	0.2919	-0.0112	-0.0386	-0.0352	41.9638	-11.0673	3.6802	-0.6245	0.3804	-0.5723	-0.3713
0.17	-9.4513	-0.6402	0.3051	-0.0004	-0.0362	-0.0306	42.0818	-10.9915	3.7848	-0.6246	0.3803	-0.5721	-0.3713
0.18	-9.4420	-0.6284	0.2963	0.0021	-0.0345	-0.0279	42.0453	-10.9686	3.7761	-0.6247	0.3803	-0.5720	-0.3714
0.19	-9.4635	-0.6355	0.3246	0.0062	-0.0207	-0.0307	42.0641	-11.1552	3.6935	-0.6248	0.3802	-0.5720	-0.3713
0.2	-9.3948	-0.6332	0.2920	0.0119	-0.0168	-0.0278	42.0477	-11.0117	3.8512	-0.6249	0.3802	-0.5720	-0.3713
0.21	-9.4272	-0.5672	0.3455	0.0173	0.0013	-0.0326	42.0754	-11.0494	3.7949	-0.6249	0.3801	-0.5720	-0.3712
0.22	-9.5540	-0.6376	0.2804	0.0090	0.0075	-0.0354	42.2510	-10.7825	3.8444	-0.6249	0.3802	-0.5720	-0.3711
0.23	-9.4289	-0.6170	0.3173	0.0123	0.0057	-0.0315	42.1532	-10.7648	3.6968	-0.6250	0.3802	-0.5721	-0.3710
0.24	-9.5124	-0.5821	0.3131	0.0167	0.0119	-0.0302	42.0214	-10.8899	3.7504	-0.6250	0.3801	-0.5721	-0.3709
0.25	-9.5392	-0.6066	0.2959	0.0078	0.0090	-0.0318	42.2862	-11.1897	3.8464	-0.6250	0.3802	-0.5722	-0.3708
0.26	-9.5052	-0.5747	0.3154	0.0045	0.0100	-0.0352	42.3451	-11.1702	3.8094	-0.6250	0.3802	-0.5722	-0.3707
0.27	-9.5636	-0.6088	0.3024	-0.0102	0.0183	-0.0306	42.2313	-10.8993	3.8272	-0.6249	0.3803	-0.5722	-0.3707
0.28	-9.5519	-0.6253	0.2994	-0.0038	0.0183	-0.0299	41.9429	-11.1183	3.8027	-0.6249	0.3803	-0.5723	-0.3706
0.29	-9.5322	-0.6132	0.2958	-0.0064	0.0096	-0.0259	42.0922	-10.8887	3.6211	-0.6248	0.3804	-0.5723	-0.3706
0.3	-9.5428	-0.6025	0.2976	-0.0128	0.0057	-0.0183	42.1945	-10.8476	3.7091	-0.6248	0.3804	-0.5724	-0.3706
0.31	-9.5406	-0.6020	0.2891	-0.0089	0.0071	-0.0201	41.8900	-10.8712	3.8523	-0.6248	0.3804	-0.5724	-0.3706
0.32	-9.5502	-0.6069	0.2964	-0.0098	0.0105	-0.0235	42.0668	-11.0126	3.7620	-0.6247	0.3805	-0.5724	-0.3706
0.33	-9.5412	-0.6169	0.2897	-0.0144	0.0091	-0.0213	42.2621	-10.7799	3.6899	-0.6247	0.3805	-0.5724	-0.3706
0.34	-9.5472	-0.6209	0.2939	-0.0149	0.0148	-0.0347	42.1359	-10.7730	3.8398	-0.6246	0.3806	-0.5724	-0.3705
0.35	-9.5565	-0.6424	0.2928	-0.0164	0.0129	-0.0300	42.0268	-10.8797	3.7845	-0.6245	0.3807	-0.5724	-0.3705
0.36	-9.5559	-0.6467	0.2900	-0.0166	0.0060	-0.0298	42.1086	-10.8876	3.6728	-0.6245	0.3808	-0.5724	-0.3705
0.37	-9.5417	-0.6427	0.2920	-0.0158	0.0103	-0.0282	42.2584	-11.0632	3.9020	-0.6245	0.3809	-0.5724	-0.3705
0.38	-9.5335	-0.6456	0.2966	-0.0163	0.0083	-0.0295	42.0124	-11.0144	4.0433	-0.6244	0.3810	-0.5724	-0.3705
0.39	-9.5531	-0.6484	0.2896	-0.0178	0.0052	-0.0261	42.1043	-10.9218	3.9308	-0.6244	0.3811	-0.5724	-0.3705
0.4	-9.5591	-0.6588	0.2985	-0.0126	0.0072	-0.0186	42.1848	-10.9808	3.6708	-0.6243	0.3811	-0.5725	-0.3705
0.41	-9.5653	-0.6648	0.3007	-0.0143	0.0030	-0.0191	42.0270	-10.8329	3.9426	-0.6243	0.3811	-0.5725	-0.3705
0.42	-9.5298	-0.6580	0.3116	-0.0123	-0.0020	-0.0193	41.9817	-10.8985	3.8703	-0.6243	0.3812	-0.5725	-0.3706
0.43	-9.5506	-0.6592	0.3156	-0.0084	-0.0048	-0.0161	42.0906	-10.9648	3.7956	-0.6242	0.3812	-0.5725	-0.3706
0.44	-9.5453	-0.6393	0.3216	-0.0061	-0.0041	-0.0144	42.0286	-10.9408	3.8275	-0.6242	0.3811	-0.5725	-0.3706
0.45	-9.5434	-0.6331	0.3298	0.0007	-0.0079	-0.0202	42.1795	-11.0429	3.8114	-0.6242	0.3811	-0.5725	-0.3706
0.46	-9.5540	-0.6434	0.3237	-0.0058	-0.0089	-0.0186	42.3872	-10.9211	3.6850	-0.6242	0.3811	-0.5724	-0.3707
0.47	-9.5300	-0.6328	0.3197	-0.0032	-0.0105	-0.0185	42.0030	-11.1819	4.0434	-0.6243	0.3811	-0.5724	-0.3707
0.48	-9.5307	-0.6411	0.3130	0.0026	-0.0044	-0.0180	42.2802	-10.9144	3.7874	-0.6243	0.3810	-0.5724	-0.3707
0.49	-9.5440	-0.6312	0.3116	0.0078	-0.0116	-0.0166	42.2775	-10.8775	3.8613	-0.6243	0.3810	-0.5724	-0.3707
0.5	-9.5416	-0.6256	0.3108	0.0062	-0.0160	-0.0138	42.6795	-10.6009	4.0503	-0.6243	0.3809	-0.5724	-0.3707
0.51	-9.5430	-0.6133	0.3224	0.0096	-0.0116	-0.0126	42.7733	-10.7165	3.9559	-0.6244	0.3808	-0.5725	-0.3707
0.52	-9.5372	-0.6009	0.3131	0.0139	-0.0086	-0.0145	42.0079	-11.2611	3.6834	-0.6244	0.3807	-0.5725	-0.3707
0.53	-9.5246	-0.5854	0.3320	0.0016	-0.0136	-0.0100	41.8890	-11.7704	3.7871	-0.6244	0.3807	-0.5725	-0.3707
0.54	-9.5513	-0.5882	0.3307	0.0031	-0.0058	-0.0194	41.7174	-11.1759	3.9575	-0.6245	0.3806	-0.5725	-0.3707
0.55	-9.5306	-0.6030	0.3348	0.0043	-0.0122	-0.0221	41.9790	-11.0669	3.7439	-0.6245	0.3806	-0.5725	-0.3707
0.56	-9.5348	-0.5863	0.3417	0.0005	-0.0147	-0.0167	41.9615	-11.0242	3.7360	-0.6245	0.3805	-0.5725	-0.3707
0.57	-9.5391	-0.5965	0.3371	0.0030	-0.0045	-0.0220	41.9542	-10.8462	3.7554	-0.6245	0.3805	-0.5725	-0.3707
0.58	-9.5119	-0.5981	0.3418	-0.0006	-0.0080	-0.0221	41.9791	-10.8532	3.6506	-0.6246	0.3805	-0.5725	-0.3707
0.59	-9.5329	-0.5994	0.3452	-0.0055	-0.0139	-0.0244	41.9373	-10.7381	3.8968	-0.6246	0.3805	-0.5724	-0.3707
0.6	-9.5320	-0.6027	0.3511	-0.0001	-0.0105	-0.0299	41.8943	-10.8925	3.7596	-0.6246	0.3805	-0.5724	-0.3707
0.61	-9.5142	-0.5993	0.3483	0.0001	-0.0143	-0.0220	42.1806	-10.9462	3.7910	-0.6247	0.3805	-0.5724	-0.3707
0.62	-9.4961	-0.5940	0.3465	-0.0105	-0.0078	-0.0304	42.0440	-10.9101	3.8071	-0.6247	0.3805	-0.5723	-0.3707
0.63	-9.4874	-0.5882	0.3494	-0.0069	-0.0068	-0.0352	42.0488	-10.9491	3.6423	-0.6247	0.3805	-0.5723	-0.3707
0.64	-9.4920	-0.5968	0.3471	-0.0087	-0.0024	-0.0303	42.0657	-11.3424	3.6498	-0.6247	0.3806	-0.5722	-0.3707
0.65	-9.5001	-0.5964	0.3550	-0.0100	0.0007	-0.0358	42.2492	-11.1222	3.7100	-0.6247	0.3806	-0.5722	-0.3707
0.66	-9.5140	-0.6063	0.3553	-0.0091	-0.0006	-0.0312	42.1307	-11.0809	3.7941	-0.6247	0.3807	-0.5722	-0.3706
0.67	-9.5272	-0.6124	0.3530	-0.0103	-0.0001	-0.0313	42.0252	-11.3655	3.7860	-0.6247	0.3807	-0.5722	-0.3706
0.68	-9.5452	-0.6170	0.3545	-0.0085	-0.0002	-0.0326	42.2528	-11.3215	3.6424	-0.6247	0.3808	-0.5722	-0.3706
0.69	-9.5555	-0.6181	0.3517	-0.0113	0.0054	-0.0326	42.1397	-10.8925	3.5063	-0.6247	0.3809	-0.5721	-0.3706
0.7	-9.5116	-0.6153	0.3479	-0.0096	0.0029	-0.0313	42.0520	-10.9684	3.5192	-0.6247	0.3809	-0.5721	-0.3705
0.71	-9.5093	-0.6301	0.3473	-0.0110	-0.0054	-0.0304	42.1563	-10.9907	3.6402	-0.6247	0.3810	-0.5721	-0.3705
0.72	-9.4973	-0.6349	0.3391	-0.0093	0.0068	-0.0351	41.9271	-10.9078	3.8229	-0.6247	0.3810	-0.5721	-0.3705
0.73	-9.4855	-0.6503	0.3407	-0.0100	0.0101	-0.0343	42.0781	-10.9336	4.0274	-0.6247	0.3811	-0.5721	-0.3704
0.74	-9.5285	-0.6531	0.3402	-0.0103	0.0070	-0.0349	41.9117	-10.8281	3.5573	-0.6247	0.3812	-0.5721	-0.3704
0.75	-9.5551	-0.6611	0.3527	-0.0113	0.0080	-0.0342	42.0418	-10.8303	3.5322	-0.6247	0.3813	-0.5721	-0.3704
0.76	-9.5565	-0.6716	0.3532	-0.0103	0.0052	-0.0293	42.0318	-10.9216	3.6983	-0.6246	0.3813	-0.5721	-0.3703
0.77	-9.5326	-0.6797	0.3473	-0.0087	0.0005	-0.0289	42.1894	-10.9306	3.8032	-0.6246	0.3814	-0.5721	-0.3703
0.78	-9.5087	-0.6830	0.3408	-0.0060	0.0114	-0.0317	41.9122	-10.6786	3.6218	-0.6246	0.3814	-0.5721	-0.3703
0.79	-9.5027	-0.6818	0.3484	-0.0094	0.0068	-0.0220	41.7614	-10.8569	3.6045	-0.6246	0.3815	-0.5721	-0.3703
0.8	-9.4995	-0.6639	0.3474	0.0051	0.0001	-0.0212	42.0964	-10.8173	3.5087	-0.6246	0.3815	-0.5721	-0.3702
0.81	-9.5057	-0.6472	0.3419	-0.0022	0.0059	-0.0225	42.1356	-10.9881	3.6229	-0.6245	0.3815	-0.5722	-0.3702
0.82	-9.5150	-0.6432	0.3390	-0.0063	0.0124	-0.0261	42.1472	-10.8274	3.5811	-0.6245	0.3815	-0.5722	-0.3702
0.83	-9.5241	-0.6374	0.3382	0.0109	0.0171	-0.0289	42.1423	-10.9806	3.6868	-0.6245	0.3815	-0.5723	-0.3701
0.84	-9.5385	-0.6463	0.3339	0.0061	0.0058	-0.0280	42.0495	-11.1223	3.6288	-0.6245	0.3815	-0.5723	-0.3700
0.85	-9.5364	-0.6528	0.3297	0.0118	0.0086	-0.0288	42.1644	-10.9983	3.4313	-0.6245	0.3815	-0.5724	-0.3699
0.86	-9.5421	-0.6648	0.3321	0.0112	0.0071	-0.0255	42.1184	-10.9867	3.6895	-0.6245	0.3815	-0.5724	-0.3698
0.87	-9.5417	-0.6692	0.3314	0.0063	0.0077	-0.0294	42.2327	-10.8223	4.0047	-0.6245	0.3815	-0.5724	-0.3698
0.88	-9.5398	-0.6617	0.3313	0.0118	0.0047	-0.0311	42.1376	-10.8358	3.7591	-0.6245	0.3815	-0.5725	-0.3697
0.89	-9.5366	-0.6584	0.3365	0.0103	0.0005	-0.0233	42.1290	-10.8748	3.4457	-0.6246	0.3815	-0.5725	-0.3696
0.9	-9.5225	-0.6516	0.3345	0.0067	0.0008	-0.0183	42.1706	-10.9765	3.5168	-0.6246	0.3814	-0.5725	-0.3696
0.91	-9.5186	-0.6491	0.3292	0.0163	0.0083	-0.0235	42.0147	-10.7293	3.8416	-0.6246	0.3814	-0.5726	-0.3695
0.92	-9.5101	-0.6498	0.3204	0.0049	0.0158	-0.0240	42.1147	-10.7585	3.6224	-0.6246	0.3814	-0.5727	-0.3694
0.93	-9.4965	-0.6323	0.3226	0.0058	0.0096	-0.0244	41.8943	-10.7499	3.7786	-0.6245	0.3814	-0.5727	-0.3694
0.94	-9.5391	-0.6377	0.3151	0.0140	0.0133	-0.0278	42.0054	-10.8015	3.7842	-0.6245	0.3814	-0.5728	-0.3693
0.95	-9.5478	-0.6416	0.3146	0.0044	0.0151	-0.0236	42.2779	-10.9980	3.6995	-0.6245	0.3814	-0.5729	-0.3692
0.96	-9.5404	-0.6313	0.3171	0.0045	0.0155	-0.0273	41.9279	-10.8007	3.8096	-0.6245	0.3814	-0.5729	-0.3691
0.97	-9.5658	-0.6591	0.3145	-0.0050	0.0130	-0.0275	42.0411	-10.5924	3.7701	-0.6244	0.3815	-0.5730	-0.3691
0.98	-9.5596	-0.6571	0.3227	0.0032	0.0058	-0.0222	42.0614	-10.8541	3.7818	-0.6244	0.3815	-0.5730	-0.3691
0.99	-9.5597	-0.6524	0.3272	-0.0007	0.0103	-0.0180	42.2567	-10.9767	3.9220	-0.6244	0.3815	-0.5731	-0.3690
1	-9.5416	-0.6448	0.3335	-0.0064	0.0028	-0.0159	42.9457	-10.7928	3.9876	-0.6244	0.3815	-0.5731	-0.3690
1.01	-9.5166	-0.6367	0.3328	-0.0028	-0.0035	-0.0139	42.7997	-10.7447	3.6521	-0.6244	0.3815	-0.5731	-0.3691
1.02	-9.5093	-0.6342	0.3238	-0.0002	0.0032	-0.0084	42.1222	-11.0870	3.6277	-0.6243	0.3814	-0.5731	-0.3691
1.03	-9.4969	-0.6264	0.3245	-0.0038	0.0067	-0.0131	42.3836	-11.6735	3.8296	-0.6243	0.3814	-0.5732	-0.3691
1.04	-9.5051	-0.6368	0.3213	-0.0077	0.0044	-0.0173	41.8724	-10.9673	3.7783	-0.6242	0.3814	-0.5732	-0.3691
1.05	-9.5098	-0.6431	0.3172	-0.0037	0.0111	-0.0262	41.9401	-10.8490	3.5092	-0.6242	0.3815	-0.5732	-0.3691
1.06	-9.5350	-0.6513	0.3082	-0.0102	0.0099	-0.0298	42.3351	-10.8992	3.7672	-0.6242	0.3815	-0.5733	-0.3691
1.07	-9.5406	-0.6532	0.3131	-0.0097	0.0119	-0.0286	41.9363	-10.7418	3.8472	-0.6241	0.3816	-0.5733	-0.3690
1.08	-9.5355	-0.6591	0.3011	-0.0102	0.0149	-0.0277	41.9137	-10.8944	3.7030	-0.6241	0.3817	-0.5733	-0.3690
1.09	-9.5411	-0.6630	0.3018	-0.0099	0.0126	-0.0278	42.0849	-10.8884	3.8363	-0.6240	0.3818	-0.5733	-0.3690
1.1	-9.5351	-0.6691	0.2962	-0.0099	0.0112	-0.0271	42.3048	-10.8686	3.7668	-0.6240	0.3818	-0.5734	-0.3689
1.11	-9.5299	-0.6783	0.2904	-0.0109	0.0122	-0.0263	42.0992	-10.7448	3.5301	-0.6240	0.3819	-0.5734	-0.3689
1.12	-9.5325	-0.6741	0.2915	-0.0103	0.0074	-0.0201	42.0385	-10.9321	3.8466	-0.6239	0.3819	-0.5734	-0.3689
1.13	-9.5402	-0.6791	0.2885	-0.0109	0.0075	-0.0149	42.0661	-10.6258	3.8793	-0.6239	0.3819	-0.5734	-0.3689
1.14	-9.5455	-0.6819	0.2895	-0.0068	0.0106	-0.0099	42.0644	-10.8402	3.6487	-0.6238	0.3819	-0.5735	-0.3689
1.15	-9.5447	-0.6783	0.2856	-0.0051	0.0142	-0.0101	42.0328	-10.8367	3.8197	-0.6237	0.3819	-0.5735	-0.3689
1.16	-9.5407	-0.6767	0.2851	0.0026	0.0090	-0.0102	42.1821	-10.7835	3.7978	-0.6237	0.3819	-0.5736	-0.3689
1.17	-9.5553	-0.6726	0.2864	0.0071	0.0062	-0.0122	42.0880	-10.7883	3.9543	-0.6237	0.3819	-0.5737	-0.3689
1.18	-9.5430	-0.6731	0.2856	0.0145	0.0052	-0.0152	42.1306	-10.8517	3.9950	-0.6237	0.3818	-0.5738	-0.3689
1.19	-9.5392	-0.6569	0.2869	0.0104	0.0021	-0.0192	42.3684	-10.8879	3.6962	-0.6237	0.3818	-0.5738	-0.3688
1.2	-9.5369	-0.6438	0.2886	0.0139	-0.0058	-0.0096	42.2995	-10.9882	3.7460	-0.6237	0.3817	-0.5738	-0.3688
1.21	-9.5302	-0.6348	0.2996	0.0149	0.0010	-0.0120	42.1988	-11.2249	3.8257	-0.6237	0.3816	-0.5739	-0.3688
1.22	-9.5103	-0.6228	0.3010	0.0146	-0.0092	-0.0081	42.0734	-11.0147	3.6119	-0.6237	0.3815	-0.5739	-0.3688
1.23	-9.5071	-0.6130	0.3069	0.0130	-0.0005	-0.0188	41.9536	-10.8573	3.6430	-0.6237	0.3814	-0.5740	-0.3688
1.24	-9.5207	-0.6142	0.3111	0.0134	0.0006	-0.0110	42.2038	-10.9252	3.6039	-0.6238	0.3814	-0.5740	-0.3687
1.25	-9.5027	-0.6136	0.3106	0.0171	0.0012	-0.0105	41.9118	-10.9669	3.8681	-0.6238	0.3813	-0.5741	-0.3687
1.26	-9.4951	-0.6064	0.3115	0.0134	-0.0006	-0.0115	42.1585	-10.7603	3.9069	-0.6238	0.3812	-0.5742	-0.3687
1.27	-9.5025	-0.6085	0.3027	0.0082	0.0082	-0.0072	42.1195	-10.9178	3.9184	-0.6237	0.3811	-0.5742	-0.3687
1.28	-9.4945	-0.6064	0.2959	0.0077	0.0128	-0.0137	42.0882	-10.9801	3.9962	-0.6237	0.3811	-0.5743	-0.3686
1.29	-9.4980	-0.6033	0.2960	0.0102	0.0184	-0.0142	42.3553	-10.9742	3.8501	-0.6237	0.3811	-0.5744	-0.3686
1.3	-9.5051	-0.6012	0.2860	0.0087	0.0175	-0.0140	42.2537	-10.9588	4.0405	-0.6236	0.3811	-0.5745	-0.3685
1.31	-9.5107	-0.6022	0.2911	0.0089	0.0164	-0.0185	42.0754	-11.0004	3.7392	-0.6236	0.3810	-0.5746	-0.3685
1.32	-9.5208	-0.6041	0.2854	0.0097	0.0205	-0.0210	41.9679	-10.7461	3.7382	-0.6235	0.3810	-0.5747	-0.3684
1.33	-9.5304	-0.6183	0.2902	0.0049	0.0168	-0.0266	42.1593	-10.7551	3.9165	-0.6235	0.3811	-0.5748	-0.3683
1.34	-9.5281	-0.6260	0.2814	0.0103	0.0213	-0.0308	42.1621	-10.9015	3.8903	-0.6235	0.3811	-0.5749	-0.3682
1.35	-9.5369	-0.6123	0.2832	0.0012	0.0161	-0.0217	42.0966	-11.0209	3.9323	-0.6235	0.3811	-0.5749	-0.3681
1.36	-9.5500	-0.6160	0.2742	-0.0016	0.0152	-0.0204	42.0965	-10.8478	3.8366	-0.6234	0.3811	-0.5750	-0.3681
1.37	-9.5344	-0.6132	0.2698	0.0044	0.0165	-0.0210	42.1804	-10.7672	3.7899	-0.6234	0.3811	-0.5751	-0.3680
1.38	-9.5517	-0.6324	0.2547	0.0118	0.0196	-0.0209	42.0222	-10.9128	3.9311	-0.6233	0.3811	-0.5752	-0.3680
1.39	-9.5433	-0.6303	0.2544	0.0080	0.0114	-0.0229	42.2457	-10.8803	3.8876	-0.6233	0.3811	-0.5752	-0.3679
1.4	-9.5772	-0.6363	0.2497	0.0055	0.0142	-0.0264	42.4378	-11.1297	3.9363	-0.6233	0.3811	-0.5753	-0.3678
1.41	-9.6123	-0.6451	0.2537	0.0036	0.0101	-0.0231	42.3098	-11.1844	3.7986	-0.6233	0.3811	-0.5753	-0.3678
1.42	-9.6143	-0.6409	0.2564	0.0044	0.0071	-0.0302	42.1036	-10.8495	3.9527	-0.6233	0.3812	-0.5754	-0.3677
1.43	-9.5943	-0.6475	0.2469	0.0040	-0.0046	-0.0268	42.1793	-10.8338	3.6419	-0.6233	0.3812	-0.5754	-0.3677
1.44	-9.5584	-0.6448	0.2590	0.0062	-0.0060	-0.0203	42.0607	-10.9211	4.0117	-0.6233	0.3811	-0.5754	-0.3676
1.45	-9.5491	-0.6343	0.2564	0.0126	-0.0047	-0.0163	42.0466	-10.6703	3.9600	-0.6234	0.3810	-0.5754	-0.3676
1.46	-9.5286	-0.6260	0.2613	0.0099	-0.0066	-0.0177	42.0878	-10.8681	3.7943	-0.6234	0.3810	-0.5754	-0.3676
1.47	-9.5391	-0.6075	0.2667	0.0070	-0.0063	-0.0221	42.2252	-10.8996	3.9704	-0.6234	0.3809	-0.5754	-0.3676
1.48	-9.5251	-0.6051	0.2568	-0.0053	-0.0095	-0.0239	42.2525	-10.8584	3.7735	-0.6235	0.3809	-0.5754	-0.3676
1.49	-9.5290	-0.6019	0.2634	-0.0068	-0.0063	-0.0255	42.3176	-10.9319	3.9584	-0.6235	0.3810	-0.5754	-0.3676
1.5	-9.5589	-0.6224	0.2630	-0.0028	-0.0011	-0.0223	42.7387	-10.4101	4.0139	-0.6235	0.3810	-0.5754	-0.3676
1.51	-9.5303	-0.6324	0.2719	-0.0031	-0.0090	-0.0245	42.7720	-10.6922	3.9439	-0.6235	0.3810	-0.5753	-0.3676
1.52	-9.5276	-0.6362	0.2683	-0.0099	-0.0063	-0.0310	42.2364	-11.1869	3.9260	-0.6235	0.3810	-0.5753	-0.3676
1.53	-9.5377	-0.6380	0.2798	-0.0123	-0.0169	-0.0242	41.8896	-11.4348	3.8632	-0.6236	0.3810	-0.5752	-0.3676
1.54	-9.5385	-0.6406	0.2755	-0.0012	-0.0081	-0.0219	41.8151	-10.9283	3.9620	-0.6236	0.3810	-0.5752	-0.3676
1.55	-9.5226	-0.6432	0.2801	-0.0029	-0.0059	-0.0249	41.9863	-10.7672	3.8832	-0.6236	0.3810	-0.5752	-0.3676
1.56	-9.5466	-0.6525	0.2877	-0.0035	-0.0147	-0.0257	41.9880	-10.9789	3.6530	-0.6236	0.3810	-0.5751	-0.3676
1.57	-9.5200	-0.6535	0.2835	-0.0002	-0.0192	-0.0245	42.2165	-10.8829	3.6970	-0.6237	0.3809	-0.5751	-0.3676
1.58	-9.5246	-0.6510	0.2823	-0.0064	-0.0130	-0.0281	42.0875	-11.2260	3.7169	-0.6238	0.3809	-0.5750	-0.3676
1.59	-9.5125	-0.6519	0.2715	-0.0012	-0.0076	-0.0268	42.2938	-11.0532	3.5633	-0.6238	0.3810	-0.5750	-0.3676
1.6	-9.5087	-0.6265	0.2877	-0.0048	-0.0009	-0.0184	42.1626	-10.9056	3.7980	-0.6238	0.3809	-0.5750	-0.3676
1.61	-9.5749	-0.6467	0.2802	-0.0077	-0.0013	-0.0306	42.2061	-11.0843	3.6567	-0.6238	0.3810	-0.5750	-0.3676
1.62	-9.5414	-0.6442	0.2976	-0.0058	-0.0091	-0.0322	42.2439	-11.1334	3.5932	-0.6238	0.3810	-0.5749	-0.3676
1.63	-9.5454	-0.6599	0.2984	-0.0105	-0.0138	-0.0320	42.1523	-10.8273	3.5716	-0.6239	0.3810	-0.5749	-0.3676
1.64	-9.5473	-0.6866	0.2981	-0.0130	-0.0226	-0.0317	42.0934	-10.9287	3.6910	-0.6239	0.3811	-0.5748	-0.3676
1.65	-9.5393	-0.6851	0.3030	-0.0078	-0.0161	-0.0310	42.0997	-10.9845	3.8165	-0.6240	0.3811	-0.5747	-0.3676
1.66	-9.5425	-0.6887	0.3073	-0.0085	-0.0111	-0.0301	42.2638	-10.7962	3.7793	-0.6240	0.3811	-0.5746	-0.3676
1.67	-9.5166	-0.6895	0.3137	-0.0078	-0.0126	-0.0260	42.1162	-10.8359	3.7480	-0.6240	0.3811	-0.5746	-0.3676
1.68	-9.5195	-0.6836	0.3183	-0.0065	-0.0078	-0.0296	41.9743	-10.6635	3.7034	-0.6241	0.3811	-0.5746	-0.3676
1.69	-9.5167	-0.6999	0.3191	-0.0045	-0.0168	-0.0305	42.0513	-10.6330	3.8373	-0.6241	0.3811	-0.5745	-0.3676
1.7	-9.4978	-0.7075	0.3233	-0.0067	-0.0163	-0.0274	42.0567	-10.7848	3.5201	-0.6242	0.3811	-0.5744	-0.3676
1.71	-9.5025	-0.7255	0.3178	-0.0090	-0.0071	-0.0339	42.0914	-10.8127	3.8262	-0.6242	0.3812	-0.5744	-0.3676
1.72	-9.5077	-0.7315	0.3163	0.0032	-0.0001	-0.0350	42.1789	-10.6954	3.8758	-0.6242	0.3812	-0.5744	-0.3676
1.73	-9.5073	-0.7362	0.3095	0.0073	-0.0024	-0.0284	42.1341	-10.8530	3.8917	-0.6243	0.3812	-0.5744	-0.3675
1.74	-9.5353	-0.7375	0.3219	0.0103	-0.0036	-0.0178	42.0495	-10.8126	3.7124	-0.6243	0.3811	-0.5744	-0.3675
1.75	-9.5402	-0.7280	0.3186	0.0142	-0.0037	-0.0130	42.2394	-10.8677	3.5562	-0.6243	0.3811	-0.5744	-0.3675
1.76	-9.5368	-0.7129	0.3296	0.0178	-0.0093	-0.0109	42.2089	-11.0150	3.6312	-0.6244	0.3810	-0.5745	-0.3675
1.77	-9.5373	-0.7024	0.3302	0.0133	-0.0063	-0.0120	42.4624	-10.9989	3.4843	-0.6244	0.3809	-0.5745	-0.3674
1.78	-9.5278	-0.6831	0.3383	0.0230	-0.0101	-0.0134	42.3476	-11.0223	3.6623	-0.6244	0.3808	-0.5745	-0.3674
1.79	-9.5285	-0.6660	0.3456	0.0219	-0.0106	-0.0135	42.1663	-11.1604	3.5057	-0.6245	0.3806	-0.5746	-0.3674
1.8	-9.5371	-0.6554	0.3498	0.0190	-0.0162	-0.0125	42.3776	-10.8896	3.5857	-0.6246	0.3805	-0.5746	-0.3674
1.81	-9.5078	-0.6421	0.3543	0.0282	-0.0144	-0.0101	42.1643	-10.8433	3.7279	-0.6247	0.3804	-0.5746	-0.3673
1.82	-9.5238	-0.6363	0.3699	0.0306	-0.0054	-0.0152	42.0385	-10.9356	3.8098	-0.6247	0.3802	-0.5747	-0.3672
1.83	-9.5048	-0.6248	0.3681	0.0278	-0.0133	-0.0098	42.3333	-10.9257	3.7152	-0.6248	0.3801	-0.5747	-0.3672
1.84	-9.5138	-0.6148	0.3837	0.0228	-0.0086	-0.0156	42.3349	-10.8118	3.5781	-0.6249	0.3800	-0.5748	-0.3672
1.85	-9.5195	-0.6262	0.3706	0.0172	-0.0022	-0.0142	42.1855	-10.7426	3.4769	-0.6249	0.3799	-0.5748	-0.3671
1.86	-9.5012	-0.6090	0.3840	0.0157	0.0016	-0.0136	42.1331	-10.8890	3.5524	-0.6249	0.3798	-0.5749	-0.3671
1.87	-9.5227	-0.6184	0.3730	0.0158	0.0059	-0.0157	42.1661	-10.7134	3.7052	-0.6249	0.3797	-0.5750	-0.3670
1.88	-9.5122	-0.6109	0.3755	0.0144	0.0046	-0.0148	42.0323	-10.7713	3.6672	-0.6249	0.3797	-0.5750	-0.3670
1.89	-9.4952	-0.6189	0.3671	0.0143	0.0087	-0.0112	42.0842	-10.8426	3.7310	-0.6249	0.3796	-0.5751	-0.3669
1.9	-9.5228	-0.6251	0.3747	0.0142	0.0105	-0.0135	42.0150	-10.8369	3.8170	-0.6249	0.3796	-0.5752	-0.3669
1.91	-9.4996	-0.6289	0.3622	0.0152	0.0075	-0.0086	42.2781	-10.7421	3.6631	-0.6249	0.3795	-0.5753	-0.3669
1.92	-9.4958	-0.6292	0.3861	0.0143	0.0040	-0.0096	42.1909	-10.6184	3.7015	-0.6249	0.3794	-0.5754	-0.3668
1.93	-9.5264	-0.6375	0.3755	0.0138	0.0027	-0.0084	42.1784	-10.9056	3.6683	-0.6249	0.3793	-0.5754	-0.3668
1.94	-9.4782	-0.6260	0.3853	0.0143	0.0008	-0.0097	42.2744	-11.2122	3.7379	-0.6249	0.3792	-0.5755	-0.3668
1.95	-9.4981	-0.6249	0.3811	0.0140	0.0059	-0.0093	42.1972	-11.0674	3.5394	-0.6248	0.3792	-0.5756	-0.3668
1.96	-9.5233	-0.6308	0.3877	0.0125	0.0070	-0.0122	42.2949	-10.9827	3.4141	-0.6248	0.3791	-0.5757	-0.3667
1.97	-9.4727	-0.6164	0.3795	0.0137	0.0062	-0.0154	42.3386	-11.0276	3.5943	-0.6248	0.3791	-0.5757	-0.3667
1.98	-9.4888	-0.6189	0.3815	0.0091	0.0154	-0.0091	42.2472	-10.9809	3.6911	-0.6248	0.3790	-0.5758	-0.3666
1.99	-9.5162	-0.6376	0.3720	0.0137	0.0208	-0.0116	42.3130	-10.9341	4.0354	-0.6247	0.3790	-0.5759	-0.3666
2	-9.4822	-0.6372	0.3794	0.0150	0.0189	-0.0113	42.9402	-10.4885	4.0983	-0.6247	0.3789	-0.5761	-0.3665
2.01	-9.5153	-0.6450	0.3683	0.0158	0.0192	-0.0075	42.8180	-10.8577	3.8864	-0.6246	0.3789	-0.5762	-0.3665
2.02	-9.5425	-0.6481	0.3709	0.0140	0.0189	-0.0086	42.1123	-11.2648	3.6193	-0.6246	0.3788	-0.5763	-0.3664
2.03	-9.5770	-0.6447	0.3728	0.0195	0.0294	-0.0118	42.1304	-11.6655	3.6961	-0.6245	0.3788	-0.5765	-0.3663
2.04	-9.5688	-0.6390	0.3762	0.0148	0.0168	-0.0149	42.0783	-11.2924	3.8635	-0.6245	0.3787	-0.5766	-0.3662
2.05	-9.5370	-0.6350	0.3743	0.0201	0.0139	-0.0119	42.2210	-10.9103	4.0582	-0.6245	0.3787	-0.5767	-0.3662
2.06	-9.4988	-0.6309	0.3705	0.0196	0.0187	-0.0086	41.8502	-10.8651	3.7449	-0.6244	0.3786	-0.5768	-0.3661
2.07	-9.4689	-0.6146	0.3642	0.0131	0.0183	-0.0087	42.0078	-10.9574	3.9254	-0.6244	0.3785	-0.5769	-0.3660
2.08	-9.4678	-0.5947	0.3637	0.0229	0.0258	-0.0080	42.3014	-11.1176	3.8376	-0.6243	0.3785	-0.5771	-0.3660
2.09	-9.4649	-0.5814	0.3518	0.0146	0.0356	-0.0084	42.0238	-10.8370	3.9187	-0.6243	0.3785	-0.5773	-0.3659
2.1	-9.4816	-0.5701	0.3413	0.0153	0.0299	-0.0103	41.9487	-11.0117	3.9140	-0.6242	0.3784	-0.5774	-0.3658
2.11	-9.5169	-0.5678	0.3354	0.0149	0.0347	-0.0139	42.0306	-10.7358	3.7291	-0.6241	0.3784	-0.5776	-0.3657
2.12	-9.5256	-0.5758	0.3282	0.0146	0.0428	-0.0094	42.0778	-10.9832	3.7387	-0.6240	0.3784	-0.5778	-0.3656
2.13	-9.5351	-0.5757	0.3216	0.0161	0.0372	-0.0185	42.1428	-10.9486	3.7292	-0.6239	0.3784	-0.5779	-0.3655
2.14	-9.5426	-0.5744	0.3063	0.0147	0.0359	-0.0222	42.1852	-10.8673	3.7541	-0.6238	0.3784	-0.5781	-0.3653
2.15	-9.5367	-0.5722	0.3026	0.0145	0.0340	-0.0153	42.2891	-11.0924	3.9371	-0.6237	0.3784	-0.5782	-0.3652
2.16	-9.5506	-0.5647	0.3018	0.0136	0.0333	-0.0220	42.0256	-10.9365	3.9066	-0.6237	0.3784	-0.5784	-0.3651
2.17	-9.5576	-0.5752	0.2929	0.0134	0.0278	-0.0214	42.0919	-10.8865	3.8205	-0.6236	0.3784	-0.5785	-0.3650
2.18	-9.5370	-0.5735	0.2818	0.0071	0.0341	-0.0197	42.1844	-11.0105	3.9908	-0.6235	0.3785	-0.5786	-0.3649
2.19	-9.5670	-0.5760	0.2759	0.0133	0.0318	-0.0197	42.0678	-10.8691	3.7345	-0.6235	0.3785	-0.5788	-0.3648
2.2	-9.5350	-0.5933	0.2501	0.0152	0.0313	-0.0163	41.9472	-10.8840	3.6200	-0.6234	0.3784	-0.5789	-0.3647
2.21	-9.5119	-0.5573	0.2733	0.0141	0.0255	-0.0144	42.1459	-11.0201	3.8180	-0.6233	0.3784	-0.5790	-0.3646
2.22	-9.6090	-0.5806	0.2493	0.0114	0.0335	-0.0201	42.0932	-11.0806	4.0504	-0.6233	0.3784	-0.5792	-0.3645
2.23	-9.5611	-0.5829	0.2622	0.0131	0.0246	-0.0311	42.0284	-10.9564	3.8921	-0.6232	0.3785	-0.5793	-0.3644
2.24	-9.5695	-0.5936	0.2553	0.0150	0.0199	-0.0304	42.2138	-10.8581	3.9559	-0.6232	0.3785	-0.5794	-0.3643
2.25	-9.5701	-0.6216	0.2570	0.0145	0.0224	-0.0340	42.2170	-10.8919	4.0112	-0.6232	0.3785	-0.5794	-0.3641
2.26	-9.5571	-0.6216	0.2597	0.0153	0.0195	-0.0339	42.0452	-10.8169	4.0833	-0.6232	0.3785	-0.5795	-0.3640
2.27	-9.5384	-0.5920	0.2586	0.0138	0.0139	-0.0336	42.0794	-10.6563	4.1129	-0.6232	0.3785	-0.5796	-0.3639
2.28	-9.5541	-0.5847	0.2654	0.0140	0.0142	-0.0362	41.9020	-10.9021	3.8105	-0.6232	0.3785	-0.5796	-0.3637
2.29	-9.5333	-0.5908	0.2605	0.0142	0.0164	-0.0348	42.1268	-10.9805	3.8837	-0.6232	0.3786	-0.5797	-0.3636
2.3	-9.5276	-0.5876	0.2675	0.0132	0.0102	-0.0357	42.0929	-10.9716	4.0249	-0.6233	0.3786	-0.5797	-0.3635
2.31	-9.5437	-0.6140	0.2444	0.0145	0.0185	-0.0405	41.9178	-10.9357	4.0055	-0.6233	0.3786	-0.5798	-0.3633
2.32	-9.5025	-0.6037	0.2644	0.0155	0.0104	-0.0381	42.3649	-10.8924	4.0162	-0.6233	0.3786	-0.5798	-0.3632
2.33	-9.5432	-0.6185	0.2491	0.0134	0.0157	-0.0439	42.1646	-11.0118	4.0084	-0.6233	0.3787	-0.5799	-0.3630
2.34	-9.5120	-0.6263	0.2462	0.0167	0.0185	-0.0370	42.0679	-10.8413	4.0134	-0.6234	0.3787	-0.5799	-0.3629
2.35	-9.5363	-0.6300	0.2480	0.0097	0.0169	-0.0338	42.2582	-10.9089	4.1317	-0.6233	0.3787	-0.5800	-0.3628
2.36	-9.5241	-0.6408	0.2364	0.0135	0.0207	-0.0346	42.1031	-11.0081	3.8550	-0.6233	0.3787	-0.5801	-0.3626
2.37	-9.5275	-0.6403	0.2545	-0.0004	0.0201	-0.0341	42.1827	-10.8434	3.8094	-0.6233	0.3788	-0.5801	-0.3625
2.38	-9.5307	-0.6566	0.2376	-0.0027	0.0149	-0.0310	42.0235	-11.1242	3.8410	-0.6233	0.3789	-0.5802	-0.3625
2.39	-9.5267	-0.6509	0.2514	0.0010	0.0158	-0.0330	42.2408	-10.9464	3.9810	-0.6233	0.3789	-0.5802	-0.3624
2.4	-9.5467	-0.6764	0.2379	-0.0089	0.0211	-0.0306	42.2272	-10.8564	4.0301	-0.6232	0.3790	-0.5802	-0.3623
2.41	-9.5229	-0.6789	0.2432	0.0038	0.0192	-0.0275	42.2664	-10.7998	3.9880	-0.6232	0.3790	-0.5803	-0.3623
2.42	-9.5459	-0.6831	0.2342	-0.0023	0.0213	-0.0239	42.0725	-10.7779	4.0388	-0.6231	0.3791	-0.5804	-0.3622
2.43	-9.5549	-0.6906	0.2301	0.0052	0.0213	-0.0258	41.9366	-10.7966	4.1314	-0.6231	0.3791	-0.5805	-0.3621
2.44	-9.5471	-0.6842	0.2399	0.0055	0.0165	-0.0356	41.9938	-10.7915	4.0137	-0.6231	0.3792	-0.5805	-0.3620
2.45	-9.5616	-0.6911	0.2350	0.0021	0.0104	-0.0273	41.9549	-10.6897	3.9846	-0.6230	0.3792	-0.5805	-0.3619
2.46	-9.5446	-0.6789	0.2312	0.0173	0.0199	-0.0251	42.1410	-10.8520	4.0547	-0.6230	0.3792	-0.5806	-0.3618
2.47	-9.5639	-0.6792	0.2303	0.0151	0.0216	-0.0301	42.1238	-10.8858	4.1236	-0.6230	0.3792	-0.5807	-0.3617
2.48	-9.5536	-0.6754	0.2223	0.0157	0.0165	-0.0313	41.8280	-10.8814	4.0774	-0.6230	0.3792	-0.5808	-0.3616
2.49	-9.5455	-0.6605	0.2292	0.0155	0.0085	-0.0266	42.3921	-10.6447	4.3563	-0.6230	0.3792	-0.5808	-0.3615
2.5	-9.5720	-0.6523	0.2272	0.0157	0.0086	-0.0250	42.9296	-10.7521	4.1963	-0.6231	0.3791	-0.5809	-0.3614
2.51	-9.5397	-0.6476	0.2280	0.0152	0.0018	-0.0271	43.0055	-10.7803	4.2578	-0.6231	0.3791	-0.5809	-0.3613
2.52	-9.5319	-0.6291	0.2336	0.0127	0.0000	-0.0242	42.2717	-11.0031	4.3016	-0.6231	0.3791	-0.5810	-0.3612
2.53	-9.5519	-0.6322	0.2371	0.0105	0.0013	-0.0206	42.2429	-11.7914	4.2480	-0.6231	0.3790	-0.5810	-0.3612
2.54	-9.5221	-0.6263	0.2444	0.0076	-0.0025	-0.0176	42.3070	-10.8805	3.9794	-0.6232	0.3790	-0.5810	-0.3612
2.55	-9.5341	-0.6348	0.2511	-0.0005	-0.0015	-0.0320	41.9946	-10.5891	4.2536	-0.6232	0.3790	-0.5810	-0.3611
2.56	-9.5300	-0.6551	0.2555	-0.0046	-0.0036	-0.0308	42.0574	-10.8263	4.1466	-0.6232	0.3790	-0.5810	-0.3611
2.57	-9.5160	-0.6518	0.2633	-0.0070	-0.0062	-0.0243	42.0143	-10.8363	4.0505	-0.6232	0.3790	-0.5810	-0.3611
2.58	-9.5153	-0.6505	0.2597	-0.0042	-0.0029	-0.0185	42.3449	-10.8451	4.1448	-0.6232	0.3790	-0.5810	-0.3611
2.59	-9.4988	-0.6533	0.2606	-0.0102	0.0077	-0.0256	42.0725	-10.8402	4.1369	-0.6232	0.3791	-0.5810	-0.3611
2.6	-9.4867	-0.6697	0.2594	-0.0126	0.0086	-0.0322	42.0730	-10.7088	4.3188	-0.6232	0.3792	-0.5810	-0.3611
2.61	-9.5011	-0.6766	0.2638	-0.0094	0.0114	-0.0327	42.2856	-10.6398	3.9702	-0.6231	0.3792	-0.5810	-0.3610
2.62	-9.5085	-0.6911	0.2627	-0.0110	0.0112	-0.0355	42.0973	-10.6837	4.1448	-0.6231	0.3793	-0.5810	-0.3610
2.63	-9.5520	-0.7057	0.2745	-0.0103	0.0128	-0.0340	42.0400	-10.7399	4.0075	-0.6231	0.3794	-0.5810	-0.3609
2.64	-9.5820	-0.7170	0.2748	-0.0113	0.0107	-0.0363	41.8590	-10.6476	4.1929	-0.6231	0.3795	-0.5810	-0.3609
2.65	-9.5496	-0.7282	0.2672	0.0007	0.0104	-0.0322	41.9115	-10.4115	4.2283	-0.6231	0.3795	-0.5810	-0.3608
2.66	-9.5141	-0.7201	0.2676	0.0040	0.0097	-0.0298	42.0584	-10.3959	4.0947	-0.6231	0.3796	-0.5810	-0.3608
2.67	-9.4937	-0.6953	0.2558	0.0111	0.0063	-0.0289	42.0225	-10.7411	4.1466	-0.6231	0.3796	-0.5811	-0.3607
2.68	-9.4578	-0.6785	0.2595	0.0151	0.0146	-0.0253	42.2348	-10.7998	4.2559	-0.6231	0.3796	-0.5811	-0.3606
2.69	-9.4867	-0.6670	0.2505	0.0153	0.0178	-0.0275	42.1085	-10.8618	4.1361	-0.6231	0.3795	-0.5812	-0.3605
2.7	-9.4635	-0.6661	0.2376	0.0149	0.0207	-0.0342	42.2394	-10.8291	3.9099	-0.6231	0.3796	-0.5813	-0.3603
2.71	-9.5106	-0.6693	0.2471	0.0171	0.0258	-0.0338	42.3045	-10.8486	3.9589	-0.6231	0.3796	-0.5814	-0.3602
2.72	-9.5271	-0.6779	0.2273	0.0163	0.0182	-0.0349	42.1050	-10.8381	3.9158	-0.6231	0.3796	-0.5814	-0.3600
2.73	-9.5135	-0.6732	0.2382	0.0150	0.0222	-0.0336	42.1330	-10.8445	4.0538	-0.6230	0.3796	-0.5815	-0.3599
2.74	-9.5506	-0.6733	0.2219	0.0168	0.0278	-0.0341	42.2182	-10.8407	3.8915	-0.6230	0.3796	-0.5816	-0.3597
2.75	-9.5303	-0.6792	0.2252	0.0215	0.0232	-0.0348	42.0554	-10.6653	4.0292	-0.6230	0.3797	-0.5817	-0.3596
2.76	-9.5280	-0.6749	0.2205	0.0196	0.0229	-0.0355	42.3020	-10.7290	4.2562	-0.6230	0.3797	-0.5818	-0.3594
2.77	-9.5193	-0.6729	0.2189	0.0166	0.0213	-0.0366	42.3063	-10.7753	4.0837	-0.6230	0.3797	-0.5819	-0.3593
2.78	-9.5491	-0.6720	0.2105	0.0154	0.0249	-0.0412	42.1647	-10.7180	4.3099	-0.6230	0.3797	-0.5820	-0.3591
2.79	-9.5410	-0.6752	0.2036	0.0146	0.0202	-0.0392	42.0604	-10.5990	4.2354	-0.6230	0.3798	-0.5820	-0.3589
2.8	-9.5811	-0.6879	0.1972	0.0147	0.0300	-0.0350	42.0034	-10.5462	4.2080	-0.6230	0.3798	-0.5821	-0.3588
2.81	-9.5459	-0.7030	0.1687	0.0156	0.0257	-0.0328	42.1856	-10.6291	4.0894	-0.6230	0.3798	-0.5822	-0.3586
2.82	-9.5354	-0.6832	0.1928	0.0153	0.0194	-0.0345	42.1856	-10.6104	4.3404	-0.6230	0.3799	-0.5823	-0.3585
2.83	-9.6181	-0.7156	0.1740	0.0014	0.0192	-0.0338	42.0414	-10.3438	4.1293	-0.6230	0.3799	-0.5824	-0.3584
2.84	-9.5720	-0.7149	0.1936	0.0089	0.0116	-0.0354	42.0088	-10.6183	4.1148	-0.6230	0.3799	-0.5824	-0.3583
2.85	-9.5694	-0.7351	0.1818	0.0146	0.0090	-0.0358	42.2200	-10.5499	4.3571	-0.6230	0.3800	-0.5824	-0.3582
2.86	-9.5637	-0.7413	0.1908	0.0136	0.0024	-0.0332	42.1045	-10.6229	4.2782	-0.6230	0.3799	-0.5824	-0.3581
2.87	-9.5824	-0.7363	0.1898	0.0125	-0.0063	-0.0313	41.9753	-10.7680	4.3267	-0.6231	0.3799	-0.5824	-0.3580
2.88	-9.5478	-0.7145	0.2024	0.0153	-0.0052	-0.0305	42.3890	-10.7359	4.1912	-0.6232	0.3799	-0.5824	-0.3579
2.89	-9.5762	-0.7131	0.2009	0.0144	0.0089	-0.0241	42.0726	-10.7798	4.2272	-0.6232	0.3798	-0.5825	-0.3578
2.9	-9.5358	-0.7185	0.2017	0.0077	-0.0071	-0.0344	42.2791	-10.6679	4.2075	-0.6232	0.3798	-0.5825	-0.3578
2.91	-9.5583	-0.7232	0.2064	0.0122	-0.0003	-0.0344	42.3217	-10.6753	4.2184	-0.6233	0.3798	-0.5825	-0.3577
2.92	-9.5393	-0.7351	0.1980	0.0100	0.0033	-0.0325	42.1666	-10.5142	4.2078	-0.6233	0.3798	-0.5825	-0.3576
2.93	-9.5319	-0.7261	0.2042	0.0091	-0.0072	-0.0328	42.0917	-10.7061	4.4114	-0.6234	0.3798	-0.5825	-0.3575
2.94	-9.5430	-0.7423	0.1956	0.0120	-0.0032	-0.0287	42.2254	-10.7675	4.3146	-0.6234	0.3798	-0.5825	-0.3575
2.95	-9.5225	-0.7263	0.2101	0.0061	-0.0059	-0.0310	42.1027	-10.6682	4.3017	-0.6235	0.3798	-0.5825	-0.3574
2.96	-9.5473	-0.7153	0.2121	0.0083	-0.0125	-0.0236	42.0072	-10.4657	4.2970	-0.6236	0.3797	-0.5824	-0.3574
2.97	-9.5364	-0.7141	0.2199	0.0058	-0.0092	-0.0282	42.0935	-10.4037	4.3161	-0.6236	0.3797	-0.5824	-0.3574
2.98	-9.5345	-0.7039	0.2259	-0.0060	-0.0146	-0.0288	42.2317	-10.2853	4.1886	-0.6237	0.3797	-0.5824	-0.3574
2.99	-9.5265	-0.7103	0.2189	-0.0044	-0.0066	-0.0303	42.4225	-10.3792	4.3461	-0.6237	0.3797	-0.5823	-0.3573
3	-9.5096	-0.7056	0.2330	-0.0107	-0.0110	-0.0237	42.7481	-10.4517	4.4055	-0.6237	0.3797	-0.5823	-0.3574
3.01	-9.5360	-0.7175	0.2319	-0.0102	-0.0035	-0.0259	42.6878	-10.4187	4.4437	-0.6237	0.3798	-0.5822	-0.3574
3.02	-9.5273	-0.7290	0.2355	-0.0098	-0.0031	-0.0269	42.1312	-10.7825	4.5348	-0.6237	0.3798	-0.5822	-0.3574
3.03	-9.5265	-0.7295	0.2329	-0.0111	-0.0031	-0.0252	42.3134	-11.2380	4.1917	-0.6237	0.3798	-0.5822	-0.3574
3.04	-9.5217	-0.7392	0.2249	-0.0120	-0.0023	-0.0262	42.1628	-10.4984	4.1161	-0.6237	0.3799	-0.5822	-0.3574
3.05	-9.5034	-0.7363	0.2342	-0.0107	-0.0050	-0.0189	42.1612	-10.4697	4.4229	-0.6237	0.3799	-0.5821	-0.3574
3.06	-9.5421	-0.7408	0.2361	-0.0115	0.0018	-0.0197	42.2488	-10.5657	4.2560	-0.6237	0.3799	-0.5821	-0.3575
3.07	-9.5301	-0.7544	0.2317	-0.0085	-0.0071	-0.0194	42.2871	-10.4745	4.1679	-0.6237	0.3799	-0.5821	-0.3575
3.08	-9.5393	-0.7476	0.2352	-0.0100	-0.0015	-0.0211	42.3623	-10.6227	4.2941	-0.6237	0.3799	-0.5821	-0.3575
3.09	-9.5624	-0.7628	0.2279	-0.0109	-0.0110	-0.0229	42.3172	-10.5895	4.2931	-0.6237	0.3800	-0.5820	-0.3575
3.1	-9.5267	-0.7606	0.2323	-0.0102	-0.0118	-0.0243	42.3517	-10.5230	4.4420	-0.6237	0.3800	-0.5820	-0.3576
3.11	-9.5321	-0.7589	0.2325	-0.0101	-0.0130	-0.0270	42.1225	-10.4663	4.2600	-0.6238	0.3800	-0.5819	-0.3576
3.12	-9.5203	-0.7638	0.2387	-0.0105	-0.0110	-0.0187	42.2703	-10.4155	4.1493	-0.6238	0.3800	-0.5819	-0.3576
3.13	-9.5308	-0.7574	0.2436	-0.0105	-0.0134	-0.0235	42.3080	-10.5376	4.3645	-0.6238	0.3800	-0.5818	-0.3577
3.14	-9.4975	-0.7499	0.2373	-0.0100	-0.0091	-0.0186	42.2821	-10.6813	4.1933	-0.6238	0.3800	-0.5818	-0.3577
3.15	-9.5033	-0.7439	0.2510	-0.0097	-0.0120	-0.0264	42.3055	-10.6524	4.0625	-0.6239	0.3800	-0.5817	-0.3577
3.16	-9.5364	-0.7604	0.2407	-0.0115	-0.0015	-0.0226	42.1218	-10.5043	4.3082	-0.6239	0.3800	-0.5817	-0.3578
3.17	-9.5005	-0.7448	0.2570	-0.0095	-0.0096	-0.0129	42.2956	-10.3998	4.4324	-0.6239	0.3800	-0.5817	-0.3578
3.18	-9.4963	-0.7393	0.2445	-0.0099	-0.0010	-0.0177	42.2134	-10.3189	4.2733	-0.6238	0.3800	-0.5817	-0.3578
3.19	-9.5058	-0.7447	0.2560	-0.0107	-0.0011	-0.0174	42.3000	-10.3702	4.0806	-0.6238	0.3800	-0.5817	-0.3579
3.2	-9.5120	-0.7635	0.2448	-0.0083	0.0075	-0.0236	41.9885	-10.3159	4.2098	-0.6238	0.3801	-0.5817	-0.3579
3.21	-9.5055	-0.7563	0.2562	-0.0106	0.0046	-0.0237	42.1929	-10.5507	4.3614	-0.6238	0.3801	-0.5817	-0.3579
3.22	-9.5395	-0.7635	0.2542	-0.0092	0.0041	-0.0210	42.4478	-10.5995	4.1245	-0.6237	0.3801	-0.5817	-0.3579
3.23	-9.5913	-0.7769	0.2648	-0.0077	0.0031	-0.0177	42.4458	-10.2999	4.1898	-0.6237	0.3802	-0.5817	-0.3579
3.24	-9.5976	-0.7884	0.2561	0.0023	0.0024	-0.0132	42.0373	-10.4902	4.3122	-0.6237	0.3801	-0.5817	-0.3579
3.25	-9.5627	-0.7862	0.2542	0.0117	-0.0062	-0.0100	42.2005	-10.7091	4.1387	-0.6237	0.3800	-0.5818	-0.3579
3.26	-9.5382	-0.7885	0.2369	0.0050	-0.0057	-0.0119	42.4837	-10.6305	4.3249	-0.6237	0.3800	-0.5818	-0.3579
3.27	-9.5149	-0.7615	0.2433	0.0124	-0.0008	-0.0097	42.3009	-10.4920	4.2702	-0.6238	0.3799	-0.5818	-0.3579
3.28	-9.5359	-0.7514	0.2344	0.0105	-0.0041	-0.0123	42.0912	-10.6864	4.1951	-0.6238	0.3798	-0.5819	-0.3579
3.29	-9.5045	-0.7403	0.2283	0.0125	-0.0046	-0.0130	42.2706	-10.6672	3.9785	-0.6238	0.3797	-0.5819	-0.3579
3.3	-9.5222	-0.7405	0.2342	0.0136	-0.0005	-0.0124	42.1245	-10.4882	4.2296	-0.6238	0.3797	-0.5819	-0.3578
3.31	-9.5410	-0.7528	0.2181	0.0114	-0.0045	-0.0210	42.3288	-10.5599	4.1552	-0.6239	0.3796	-0.5820	-0.3578
3.32	-9.5461	-0.7441	0.2319	0.0124	-0.0056	-0.0191	42.2349	-10.6112	4.3340	-0.6239	0.3795	-0.5820	-0.3578
3.33	-9.5633	-0.7523	0.2283	0.0133	-0.0088	-0.0165	42.1813	-10.6319	4.3344	-0.6239	0.3795	-0.5820	-0.3577
3.34	-9.5368	-0.7397	0.2430	0.0148	-0.0175	-0.0202	42.3741	-10.4860	4.2868	-0.6240	0.3794	-0.5820	-0.3577
3.35	-9.5510	-0.7427	0.2398	0.0083	-0.0114	-0.0202	42.3314	-10.4561	4.3933	-0.6241	0.3793	-0.5820	-0.3577
3.36	-9.5315	-0.7342	0.2486	0.0169	-0.0196	-0.0111	42.4990	-10.5252	4.2484	-0.6242	0.3792	-0.5819	-0.3577
3.37	-9.5161	-0.7271	0.2520	0.0040	-0.0171	-0.0185	42.2379	-10.6082	4.3416	-0.6242	0.3791	-0.5819	-0.3577
3.38	-9.5207	-0.7224	0.2559	0.0020	-0.0117	-0.0110	42.0418	-10.5016	4.0428	-0.6243	0.3791	-0.5819	-0.3578
3.39	-9.5293	-0.7224	0.2540	0.0058	-0.0057	-0.0095	42.2371	-10.4180	4.0214	-0.6243	0.3790	-0.5819	-0.3578
3.4	-9.5387	-0.7234	0.2629	0.0112	-0.0062	-0.0095	42.2496	-10.4287	4.2672	-0.6243	0.3789	-0.5820	-0.3578
3.41	-9.4853	-0.7136	0.2534	0.0084	-0.0069	-0.0097	42.2531	-10.5290	4.4088	-0.6243	0.3788	-0.5820	-0.3578
3.42	-9.4980	-0.6935	0.2731	0.0019	-0.0060	-0.0104	42.1167	-10.5069	4.2474	-0.6243	0.3788	-0.5820	-0.3578
3.43	-9.5672	-0.7259	0.2576	0.0040	-0.0067	-0.0113	42.2277	-10.5770	3.9604	-0.6243	0.3787	-0.5820	-0.3578
3.44	-9.5188	-0.7221	0.2783	0.0102	-0.0174	-0.0089	42.2449	-10.6379	3.9023	-0.6244	0.3786	-0.5820	-0.3578
3.45	-9.5320	-0.7349	0.2834	0.0076	-0.0190	-0.0122	42.3541	-10.4947	4.0483	-0.6244	0.3785	-0.5820	-0.3579
3.46	-9.5303	-0.7293	0.2866	0.0015	-0.0219	-0.0092	42.3073	-10.5508	3.9939	-0.6245	0.3785	-0.5819	-0.3579
3.47	-9.5143	-0.7016	0.2937	0.0143	-0.0142	-0.0093	42.1997	-10.6777	4.0827	-0.6246	0.3783	-0.5820	-0.3579
3.48	-9.4803	-0.6824	0.2950	0.0085	-0.0117	-0.0089	42.3629	-10.3791	4.2158	-0.6246	0.3782	-0.5820	-0.3580
3.49	-9.4855	-0.6737	0.2956	0.0047	-0.0098	-0.0129	42.5324	-10.5074	4.1942	-0.6246	0.3782	-0.5820	-0.3580
3.5	-9.4970	-0.6804	0.2971	0.0048	0.0009	-0.0194	42.9029	-10.2488	4.2143	-0.6246	0.3782	-0.5820	-0.3580
3.51	-9.4985	-0.6940	0.2938	0.0040	0.0048	-0.0184	43.0042	-10.4268	4.1724	-0.6246	0.3781	-0.5820	-0.3579
3.52	-9.4893	-0.7007	0.2859	0.0024	0.0011	-0.0180	42.2865	-10.8254	4.1050	-0.6246	0.3781	-0.5820	-0.3579
3.53	-9.5226	-0.7039	0.2830	-0.0033	0.0068	-0.0227	42.0984	-11.0886	4.0357	-0.6246	0.3781	-0.5821	-0.3579
3.54	-9.5153	-0.7065	0.2748	-0.0102	0.0083	-0.0247	42.0110	-10.5912	4.0577	-0.6246	0.3782	-0.5821	-0.3579
3.55	-9.5293	-0.7060	0.2837	-0.0091	0.0012	-0.0223	41.8460	-10.3734	3.9047	-0.6246	0.3782	-0.5821	-0.3579
3.56	-9.5354	-0.7123	0.2721	-0.0103	0.0026	-0.0206	42.0229	-10.2922	4.0851	-0.6246	0.3782	-0.5821	-0.3579
3.57	-9.5265	-0.7124	0.2826	-0.0113	0.0059	-0.0256	42.0458	-10.3955	4.0778	-0.6245	0.3783	-0.5820	-0.3579
3.58	-9.5362	-0.7238	0.2767	-0.0098	0.0046	-0.0127	42.1309	-10.5921	4.0146	-0.6245	0.3783	-0.5821	-0.3579
3.59	-9.5336	-0.7336	0.2754	-0.0084	0.0074	-0.0141	42.1559	-10.5915	4.0279	-0.6244	0.3783	-0.5821	-0.3579
3.6	-9.5422	-0.7359	0.2709	-0.0120	0.0048	-0.0139	41.8852	-10.6568	4.0593	-0.6244	0.3783	-0.5821	-0.3580
3.61	-9.5499	-0.7420	0.2808	-0.0082	-0.0005	-0.0125	42.0906	-10.5564	4.1527	-0.6244	0.3783	-0.5821	-0.3580
3.62	-9.5449	-0.7437	0.2849	-0.0064	0.0014	-0.0117	42.2565	-10.5702	4.0495	-0.6243	0.3783	-0.5821	-0.3580
3.63	-9.5525	-0.7409	0.2757	0.0006	0.0046	-0.0134	42.2127	-10.7093	3.8846	-0.6243	0.3783	-0.5822	-0.3580
3.64	-9.5489	-0.7347	0.2758	0.0082	-0.0017	-0.0149	42.2632	-10.8802	3.8999	-0.6243	0.3783	-0.5822	-0.3580
3.65	-9.5734	-0.7333	0.2802	0.0047	-0.0054	-0.0136	42.1444	-10.5735	3.9090	-0.6244	0.3782	-0.5822	-0.3580
3.66	-9.5769	-0.7377	0.2792	-0.0047	-0.0097	-0.0180	42.1579	-10.5787	3.6998	-0.6244	0.3782	-0.5822	-0.3580
3.67	-9.5871	-0.7330	0.2761	0.0089	-0.0080	-0.0177	42.1072	-10.5884	4.1760	-0.6244	0.3781	-0.5822	-0.3580
3.68	-9.5823	-0.7323	0.2770	0.0122	-0.0162	-0.0152	42.0584	-10.5578	4.0153	-0.6245	0.3780	-0.5822	-0.3580
3.69	-9.5790	-0.7332	0.2807	0.0076	-0.0185	-0.0130	41.9635	-10.6628	4.1409	-0.6245	0.3780	-0.5822	-0.3580
3.7	-9.5618	-0.7327	0.2825	0.0071	-0.0301	-0.0124	42.0744	-10.7651	3.9932	-0.6246	0.3779	-0.5821	-0.3581
3.71	-9.5522	-0.7294	0.2953	0.0152	-0.0301	-0.0126	42.1521	-10.6217	3.9655	-0.6247	0.3777	-0.5821	-0.3581
3.72	-9.5404	-0.7188	0.2994	0.0148	-0.0244	-0.0161	41.9482	-10.4999	4.0513	-0.6248	0.3776	-0.5820	-0.3581
3.73	-9.5345	-0.7139	0.3123	0.0094	-0.0261	-0.0103	41.9755	-10.4931	4.0304	-0.6249	0.3775	-0.5820	-0.3582
3.74	-9.5109	-0.7111	0.3201	0.0126	-0.0302	-0.0094	42.0688	-10.4809	3.8886	-0.6250	0.3774	-0.5819	-0.3582
3.75	-9.5041	-0.7034	0.3307	0.0080	-0.0380	-0.0122	42.2315	-10.3580	4.0290	-0.6251	0.3773	-0.5819	-0.3583
3.76	-9.4866	-0.7064	0.3351	0.0112	-0.0285	-0.0116	42.1848	-10.4979	3.9284	-0.6252	0.3771	-0.5818	-0.3583
3.77	-9.4970	-0.7128	0.3428	0.0102	-0.0214	-0.0189	41.9198	-10.4869	4.0646	-0.6253	0.3770	-0.5818	-0.3583
3.78	-9.5021	-0.7186	0.3458	0.0086	-0.0211	-0.0103	42.1420	-10.6307	4.0845	-0.6254	0.3770	-0.5817	-0.3583
3.79	-9.4745	-0.7151	0.3428	0.0129	-0.0176	-0.0083	42.0941	-10.4836	3.8559	-0.6254	0.3768	-0.5817	-0.3584
3.8	-9.4882	-0.7214	0.3413	0.0103	-0.0251	-0.0121	42.0170	-10.5783	4.0734	-0.6255	0.3767	-0.5817	-0.3584
3.81	-9.4806	-0.7360	0.3371	0.0096	-0.0130	-0.0130	42.2093	-10.6786	4.0009	-0.6256	0.3766	-0.5817	-0.3584
3.82	-9.4588	-0.7213	0.3560	0.0159	-0.0145	-0.0084	42.2053	-10.8439	3.7461	-0.6256	0.3765	-0.5817	-0.3584
3.83	-9.5027	-0.7204	0.3518	0.0145	-0.0038	-0.0111	42.3369	-10.7687	3.8359	-0.6256	0.3764	-0.5817	-0.3584
3.84	-9.5212	-0.7179	0.3593	0.0149	-0.0047	-0.0099	42.1983	-10.7586	3.8650	-0.6257	0.3764	-0.5818	-0.3584
3.85	-9.5635	-0.7147	0.3612	0.0137	-0.0071	-0.0092	42.3018	-10.7279	3.8391	-0.6257	0.3763	-0.5818	-0.3584
3.86	-9.5289	-0.7180	0.3464	0.0177	-0.0044	-0.0093	42.4314	-10.6455	3.8620	-0.6257	0.3762	-0.5819	-0.3583
3.87	-9.5025	-0.7002	0.3596	0.0136	-0.0026	-0.0091	42.1113	-10.6734	3.8388	-0.6258	0.3761	-0.5819	-0.3583
3.88	-9.5112	-0.6954	0.3432	0.0144	0.0015	-0.0056	42.0560	-10.6766	3.7615	-0.6258	0.3760	-0.5820	-0.3583
3.89	-9.4820	-0.6623	0.3476	0.0161	-0.0050	-0.0016	42.0460	-10.9382	3.8825	-0.6258	0.3759	-0.5820	-0.3583
3.9	-9.4913	-0.6492	0.3356	0.0157	0.0015	-0.0038	42.0612	-10.6608	3.8280	-0.6258	0.3758	-0.5821	-0.3583
3.91	-9.4676	-0.6469	0.3329	0.0148	0.0066	-0.0079	42.0434	-10.7641	3.9410	-0.6258	0.3757	-0.5822	-0.3583
3.92	-9.5135	-0.6460	0.3308	0.0141	0.0143	-0.0093	42.0712	-10.6265	4.0889	-0.6257	0.3756	-0.5823	-0.3582
3.93	-9.5150	-0.6612	0.3131	0.0145	0.0099	-0.0081	42.2118	-10.5553	4.1036	-0.6257	0.3756	-0.5823	-0.3582
3.94	-9.4997	-0.6429	0.3301	0.0140	0.0096	-0.0100	42.2711	-10.5920	3.9057	-0.6257	0.3755	-0.5824	-0.3582
3.95	-9.5508	-0.6605	0.3129	0.0146	0.0120	-0.0131	41.9903	-10.6575	4.0694	-0.6257	0.3754	-0.5825	-0.3581
3.96	-9.5324	-0.6572	0.3124	0.0151	0.0087	-0.0127	42.1383	-10.5689	3.9846	-0.6257	0.3754	-0.5826	-0.3581
3.97	-9.5424	-0.6532	0.3118	0.0117	0.0120	-0.0142	42.0756	-10.7890	3.9181	-0.6257	0.3753	-0.5827	-0.3580
3.98	-9.5288	-0.6604	0.3071	0.0121	0.0080	-0.0117	42.0393	-10.6454	3.9649	-0.6257	0.3753	-0.5827	-0.3580
3.99	-9.5338	-0.6542	0.3034	0.0151	0.0102	-0.0091	42.3898	-10.6963	3.9066	-0.6256	0.3752	-0.5828	-0.3579
4	-9.5348	-0.6531	0.3008	0.0133	0.0064	-0.0087	42.6348	-10.5830	4.2101	-0.6256	0.3751	-0.5829	-0.3579
4.01	-9.5406	-0.6535	0.3062	0.0115	0.0060	-0.0105	42.4368	-10.6078	4.0957	-0.6256	0.3751	-0.5829	-0.3579
4.02	-9.5086	-0.6552	0.2851	0.0143	0.0125	-0.0067	42.0082	-11.0617	3.9300	-0.6256	0.3750	-0.5830	-0.3578
4.03	-9.5203	-0.6300	0.3046	0.0127	0.0036	-0.0089	42.3554	-11.6501	3.9773	-0.6256	0.3749	-0.5831	-0.3578
4.04	-9.5816	-0.6518	0.2864	0.0064	0.0067	-0.0121	42.0992	-10.7752	4.0989	-0.6256	0.3749	-0.5832	-0.3578
4.05	-9.5510	-0.6499	0.3104	0.0074	0.0060	-0.0137	41.9613	-10.6511	4.0206	-0.6256	0.3749	-0.5832	-0.3578
4.06	-9.5617	-0.6721	0.2856	0.0027	0.0028	-0.0178	42.0906	-10.7232	3.9862	-0.6256	0.3748	-0.5832	-0.3578
4.07	-9.5415	-0.6664	0.3093	0.0058	-0.0048	-0.0103	42.2034	-10.6820	3.8873	-0.6256	0.3748	-0.5833	-0.3578
4.08	-9.5650	-0.6577	0.3051	0.0137	-0.0025	-0.0107	42.0341	-10.7008	4.2408	-0.6256	0.3747	-0.5833	-0.3577
4.09	-9.5277	-0.6435	0.3222	0.0131	-0.0045	-0.0087	42.2810	-10.6972	3.9583	-0.6256	0.3746	-0.5833	-0.3577
4.1	-9.5359	-0.6325	0.3198	0.0104	-0.0018	-0.0092	42.1943	-10.6832	3.8224	-0.6256	0.3745	-0.5834	-0.3577
4.11	-9.5307	-0.6396	0.3216	0.0045	-0.0038	-0.0114	42.1830	-10.7476	4.1579	-0.6257	0.3745	-0.5834	-0.3577
4.12	-9.5190	-0.6409	0.3204	-0.0005	0.0080	-0.0111	42.2932	-10.8129	3.9895	-0.6256	0.3745	-0.5834	-0.3577
4.13	-9.5119	-0.6513	0.3160	0.0161	0.0039	-0.0118	42.0924	-10.6529	4.0211	-0.6256	0.3744	-0.5835	-0.3577
4.14	-9.5227	-0.6621	0.3086	0.0061	0.0065	-0.0188	42.0821	-10.7516	3.9966	-0.6256	0.3744	-0.5835	-0.3577
4.15	-9.5018	-0.6563	0.3089	0.0056	0.0035	-0.0196	42.0165	-10.8035	4.3030	-0.6256	0.3743	-0.5836	-0.3576
4.16	-9.5256	-0.6586	0.3147	0.0051	0.0121	-0.0205	42.2919	-10.6881	4.1779	-0.6256	0.3743	-0.5836	-0.3576
4.17	-9.5261	-0.6544	0.3162	-0.0035	0.0022	-0.0180	42.2940	-10.6819	4.0975	-0.6256	0.3743	-0.5836	-0.3576
4.18	-9.5492	-0.6514	0.3225	0.0018	0.0067	-0.0183	42.2878	-10.7423	4.0539	-0.6256	0.3743	-0.5837	-0.3576
4.19	-9.5269	-0.6533	0.3160	0.0105	-0.0013	-0.0110	42.2912	-10.8185	3.9880	-0.6256	0.3743	-0.5837	-0.3575
4.2	-9.5443	-0.6535	0.3333	0.0065	0.0012	-0.0192	42.1063	-10.6523	4.0208	-0.6256	0.3742	-0.5837	-0.3575
4.21	-9.5402	-0.6699	0.3049	0.0028	0.0050	-0.0110	42.3373	-10.6127	3.9975	-0.6256	0.3742	-0.5838	-0.3575
4.22	-9.5143	-0.6688	0.3124	0.0104	-0.0043	-0.0132	42.0678	-10.8021	4.0164	-0.6256	0.3742	-0.5838	-0.3575
4.23	-9.5546	-0.6855	0.2942	0.0046	0.0000	-0.0173	42.0717	-10.6942	4.0018	-0.6256	0.3741	-0.5838	-0.3575
4.24	-9.5340	-0.6790	0.2910	0.0112	0.0012	-0.0172	42.1522	-10.6899	4.0127	-0.6257	0.3741	-0.5838	-0.3574
4.25	-9.5610	-0.6817	0.2883	0.0120	0.0009	-0.0131	42.2057	-10.8812	4.0062	-0.6257	0.3740	-0.5839	-0.3574
4.26	-9.5841	-0.6884	0.2814	0.0146	-0.0166	-0.0126	42.2508	-10.7981	4.0198	-0.6257	0.3739	-0.5839	-0.3574
4.27	-9.5820	-0.6808	0.2835	0.0279	-0.0129	-0.0195	42.2619	-10.6886	3.9931	-0.6258	0.3738	-0.5839	-0.3574
4.28	-9.6096	-0.6731	0.2807	0.0311	-0.0124	-0.0219	42.0502	-10.5467	4.0317	-0.6259	0.3737	-0.5839	-0.3573
4.29	-9.5951	-0.6611	0.2709	0.0390	-0.0140	-0.0273	41.9913	-10.7630	3.9310	-0.6261	0.3736	-0.5839	-0.3572
4.3	-9.5854	-0.6419	0.2862	0.0368	-0.0197	-0.0286	42.1846	-10.7267	3.9112	-0.6262	0.3734	-0.5839	-0.3570
4.31	-9.6023	-0.6389	0.2820	0.0412	-0.0183	-0.0256	42.1466	-10.4591	4.0113	-0.6264	0.3733	-0.5839	-0.3569
4.32	-9.5725	-0.6296	0.2946	0.0394	-0.0236	-0.0320	41.9939	-10.7388	4.0271	-0.6265	0.3731	-0.5839	-0.3568
4.33	-9.5817	-0.6308	0.3021	0.0395	-0.0322	-0.0348	42.2594	-10.8613	3.9246	-0.6267	0.3730	-0.5838	-0.3567
4.34	-9.5751	-0.6344	0.3208	0.0330	-0.0293	-0.0333	42.1171	-10.8928	3.9232	-0.6269	0.3729	-0.5838	-0.3566
4.35	-9.5632	-0.6284	0.3376	0.0292	-0.0389	-0.0265	42.2279	-10.8293	4.1549	-0.6271	0.3727	-0.5837	-0.3565
4.36	-9.5525	-0.6264	0.3438	0.0269	-0.0432	-0.0276	42.1405	-10.5740	4.0696	-0.6273	0.3726	-0.5836	-0.3565
4.37	-9.5224	-0.6217	0.3571	0.0175	-0.0450	-0.0230	42.0195	-10.7052	4.1253	-0.6275	0.3725	-0.5835	-0.3565
4.38	-9.5254	-0.6152	0.3755	0.0157	-0.0443	-0.0221	42.2906	-10.6872	3.9719	-0.6276	0.3723	-0.5834	-0.3565
4.39	-9.4953	-0.6144	0.3821	0.0206	-0.0454	-0.0186	42.2369	-10.7171	3.8891	-0.6278	0.3722	-0.5833	-0.3566
4.4	-9.4843	-0.6108	0.3880	0.0148	-0.0391	-0.0159	42.1859	-10.8877	3.9920	-0.6279	0.3721	-0.5832	-0.3566
4.41	-9.4536	-0.6109	0.3872	0.0128	-0.0349	-0.0109	42.1278	-10.7817	4.0343	-0.6281	0.3719	-0.5831	-0.3566
4.42	-9.4529	-0.6073	0.4110	0.0089	-0.0307	-0.0201	42.1819	-10.6580	3.9692	-0.6282	0.3718	-0.5830	-0.3566
4.43	-9.4620	-0.6180	0.4138	0.0129	-0.0264	-0.0154	42.2940	-10.7596	3.8991	-0.6283	0.3717	-0.5830	-0.3567
4.44	-9.4607	-0.6197	0.4381	0.0070	-0.0308	-0.0212	42.0704	-10.7985	3.9397	-0.6284	0.3717	-0.5829	-0.3567
4.45	-9.4740	-0.6293	0.4333	0.0008	-0.0229	-0.0139	42.0477	-10.7748	3.6983	-0.6285	0.3716	-0.5828	-0.3567
4.46	-9.4443	-0.6266	0.4395	0.0003	-0.0191	-0.0103	42.3725	-10.7993	3.9006	-0.6285	0.3715	-0.5828	-0.3568
4.47	-9.4511	-0.6300	0.4324	-0.0126	-0.0129	-0.0162	42.2251	-10.7322	3.9283	-0.6285	0.3715	-0.5828	-0.3568
4.48	-9.4227	-0.6340	0.4307	-0.0051	-0.0084	-0.0183	42.3562	-10.5841	3.8996	-0.6285	0.3715	-0.5827	-0.3569
4.49	-9.4124	-0.6335	0.4325	-0.0076	0.0017	-0.0133	42.3993	-10.6290	3.9397	-0.6285	0.3715	-0.5827	-0.3569
4.5	-9.4322	-0.6278	0.4290	-0.0073	0.0123	-0.0137	42.7143	-10.5581	4.2241	-0.6285	0.3715	-0.5828	-0.3569
4.51	-9.4902	-0.6404	0.4307	-0.0087	0.0190	-0.0178	42.8054	-10.6886	4.0912	-0.6284	0.3716	-0.5828	-0.3569
4.52	-9.5154	-0.6550	0.4214	-0.0095	0.0194	-0.0210	42.0739	-11.0548	3.7530	-0.6283	0.3717	-0.5828	-0.3569
4.53	-9.4978	-0.6710	0.4164	-0.0071	0.0281	-0.0233	42.1956	-11.2369	3.7273	-0.6282	0.3717	-0.5829	-0.3568
4.54	-9.4966	-0.6778	0.3969	-0.0048	0.0333	-0.0169	41.8810	-10.6980	3.8427	-0.6281	0.3718	-0.5830	-0.3568
4.55	-9.5275	-0.6691	0.3907	0.0022	0.0282	-0.0096	41.9467	-10.7445	3.9805	-0.6281	0.3718	-0.5831	-0.3567
4.56	-9.5111	-0.6476	0.3818	0.0067	0.0250	-0.0090	42.2096	-10.7637	3.8335	-0.6280	0.3718	-0.5832	-0.3567
4.57	-9.5085	-0.6407	0.3785	0.0059	0.0279	-0.0087	42.2399	-10.7923	3.7637	-0.6279	0.3718	-0.5834	-0.3566
4.58	-9.5264	-0.6378	0.3629	-0.0001	0.0314	-0.0165	42.2327	-10.8852	3.7859	-0.6278	0.3718	-0.5835	-0.3566
4.59	-9.5273	-0.6375	0.3651	0.0021	0.0312	-0.0205	42.2385	-10.8111	3.8628	-0.6277	0.3719	-0.5836	-0.3565
4.6	-9.5405	-0.6414	0.3514	0.0051	0.0343	-0.0231	42.2292	-11.0236	4.0417	-0.6276	0.3719	-0.5837	-0.3564
4.61	-9.5486	-0.6431	0.3539	0.0031	0.0280	-0.0275	42.2439	-10.9589	4.0282	-0.6276	0.3720	-0.5838	-0.3563
4.62	-9.5755	-0.6451	0.3411	-0.0023	0.0296	-0.0306	42.2122	-10.9324	3.8544	-0.6275	0.3721	-0.5838	-0.3562
4.63	-9.5528	-0.6348	0.3483	-0.0016	0.0156	-0.0242	42.3746	-10.9247	3.8921	-0.6275	0.3721	-0.5839	-0.3562
4.64	-9.5683	-0.6420	0.3547	-0.0069	0.0144	-0.0289	42.0880	-10.6779	3.8492	-0.6275	0.3722	-0.5839	-0.3561
4.65	-9.5572	-0.6306	0.3473	-0.0060	0.0205	-0.0307	42.1188	-10.8943	3.9373	-0.6274	0.3723	-0.5839	-0.3561
4.66	-9.5367	-0.6318	0.3540	-0.0094	0.0249	-0.0282	42.1498	-10.6366	4.0793	-0.6273	0.3724	-0.5840	-0.3560
4.67	-9.5310	-0.6302	0.3533	-0.0057	0.0203	-0.0228	42.1753	-10.7076	3.9059	-0.6273	0.3724	-0.5840	-0.3560
4.68	-9.5250	-0.6356	0.3583	-0.0091	0.0217	-0.0301	42.0417	-10.5912	3.8671	-0.6272	0.3725	-0.5841	-0.3559
4.69	-9.5087	-0.6444	0.3456	-0.0067	0.0215	-0.0244	41.9239	-10.6661	4.1865	-0.6272	0.3726	-0.5841	-0.3559
4.7	-9.4793	-0.6336	0.3620	-0.0087	0.0209	-0.0235	42.0959	-10.5734	3.9007	-0.6271	0.3727	-0.5841	-0.3558
4.71	-9.5213	-0.6287	0.3603	-0.0080	0.0235	-0.0278	42.1778	-10.6094	4.0357	-0.6270	0.3728	-0.5842	-0.3558
4.72	-9.5340	-0.6504	0.3595	-0.0117	0.0230	-0.0219	42.0721	-10.7203	3.9966	-0.6270	0.3728	-0.5842	-0.3557
4.73	-9.5194	-0.6516	0.3522	-0.0095	0.0196	-0.0290	42.0510	-10.5477	3.9463	-0.6269	0.3729	-0.5843	-0.3557
4.74	-9.5162	-0.6720	0.3571	-0.0102	0.0216	-0.0289	42.1694	-10.7354	3.8469	-0.6269	0.3730	-0.5843	-0.3556
4.75	-9.5299	-0.6753	0.3537	-0.0109	0.0202	-0.0158	42.3208	-10.5806	4.0909	-0.6268	0.3731	-0.5844	-0.3556
4.76	-9.5018	-0.6588	0.3496	-0.0104	0.0204	-0.0179	42.2654	-10.9557	3.8781	-0.6267	0.3731	-0.5844	-0.3556
4.77	-9.5059	-0.6506	0.3464	-0.0108	0.0323	-0.0130	42.1167	-10.8064	3.9776	-0.6266	0.3732	-0.5845	-0.3556
4.78	-9.5017	-0.6507	0.3359	-0.0114	0.0288	-0.0176	42.2990	-10.8075	4.0724	-0.6265	0.3733	-0.5846	-0.3556
4.79	-9.5105	-0.6519	0.3399	-0.0093	0.0348	-0.0142	42.1374	-10.9867	4.0910	-0.6264	0.3734	-0.5847	-0.3556
4.8	-9.5227	-0.6513	0.3273	-0.0055	0.0345	-0.0180	42.1666	-10.9131	3.8039	-0.6263	0.3734	-0.5848	-0.3555
4.81	-9.5216	-0.6652	0.3202	-0.0076	0.0351	-0.0161	42.1035	-10.9466	3.6350	-0.6261	0.3735	-0.5849	-0.3555
4.82	-9.5316	-0.6709	0.3062	-0.0120	0.0342	-0.0247	42.0852	-10.7857	3.9364	-0.6260	0.3736	-0.5850	-0.3554
4.83	-9.5377	-0.6733	0.2964	-0.0061	0.0314	-0.0216	42.1844	-10.6845	3.9508	-0.6259	0.3737	-0.5850	-0.3554
4.84	-9.5541	-0.6778	0.2920	-0.0037	0.0367	-0.0195	42.0353	-10.6628	4.0771	-0.6258	0.3738	-0.5852	-0.3553
4.85	-9.5622	-0.6695	0.2779	-0.0088	0.0339	-0.0260	42.1924	-10.6766	4.1391	-0.6257	0.3739	-0.5852	-0.3552
4.86	-9.5751	-0.6694	0.2778	0.0052	0.0406	-0.0219	42.0913	-10.6685	4.0118	-0.6256	0.3739	-0.5854	-0.3551
4.87	-9.5844	-0.6584	0.2704	0.0022	0.0356	-0.0247	41.9526	-10.6743	4.0907	-0.6256	0.3740	-0.5855	-0.3550
4.88	-9.5767	-0.6524	0.2672	0.0013	0.0243	-0.0191	42.0882	-10.6741	3.9107	-0.6255	0.3740	-0.5855	-0.3550
4.89	-9.5809	-0.6602	0.2569	0.0077	0.0255	-0.0160	42.1709	-10.5184	3.7103	-0.6254	0.3740	-0.5856	-0.3549
4.9	-9.5976	-0.6560	0.2588	0.0097	0.0233	-0.0213	42.1331	-10.4847	3.9085	-0.6254	0.3740	-0.5857	-0.3548
4.91	-9.5838	-0.6560	0.2462	0.0155	0.0207	-0.0237	42.1667	-10.5738	4.1682	-0.6254	0.3740	-0.5858	-0.3547
4.92	-9.5903	-0.6475	0.2580	0.0155	0.0147	-0.0170	42.1171	-10.7308	4.3888	-0.6254	0.3740	-0.5859	-0.3546
4.93	-9.6012	-0.6505	0.2496	0.0153	0.0141	-0.0151	42.0461	-10.7424	4.2320	-0.6254	0.3740	-0.5860	-0.3546
4.94	-9.5847	-0.6359	0.2638	0.0163	0.0060	-0.0244	42.3694	-10.8468	4.0153	-0.6254	0.3739	-0.5860	-0.3545
4.95	-9.5915	-0.6368	0.2563	0.0157	0.0033	-0.0281	42.1810	-10.9257	4.1094	-0.6254	0.3739	-0.5860	-0.3544
4.96	-9.5646	-0.6179	0.2698	0.0243	0.0021	-0.0316	42.1775	-10.8477	4.1149	-0.6255	0.3739	-0.5861	-0.3543
4.97	-9.5606	-0.6203	0.2693	0.0250	-0.0033	-0.0315	42.2665	-10.7688	4.0435	-0.6256	0.3738	-0.5861	-0.3542
4.98	-9.5471	-0.6202	0.2773	0.0310	-0.0076	-0.0361	42.1371	-10.8468	4.0548	-0.6257	0.3737	-0.5861	-0.3540
4.99	-9.5480	-0.6218	0.2896	0.0269	-0.0121	-0.0411	42.3602	-10.8335	3.9699	-0.6258	0.3737	-0.5860	-0.3539
5	-9.5282	-0.6238	0.3014	0.0212	-0.0196	-0.0337	42.8483	-10.5406	4.2698	-0.6260	0.3736	-0.5860	-0.3538
5.01	-9.5006	-0.6201	0.3040	0.0215	-0.0054	-0.0386	42.5395	-10.6110	4.1912	-0.6261	0.3736	-0.5860	-0.3537
5.02	-9.4973	-0.6235	0.3128	0.0187	-0.0071	-0.0361	42.0152	-10.9279	4.0512	-0.6262	0.3736	-0.5859	-0.3536
5.03	-9.4991	-0.6318	0.3194	0.0099	-0.0097	-0.0343	42.1445	-11.4409	4.1991	-0.6263	0.3735	-0.5859	-0.3535
5.04	-9.4819	-0.6235	0.3202	0.0139	-0.0000	-0.0349	41.8876	-10.7001	4.1172	-0.6263	0.3735	-0.5859	-0.3534
5.05	-9.4959	-0.6393	0.3272	0.0003	-0.0001	-0.0338	42.1148	-10.4784	4.0778	-0.6264	0.3736	-0.5859	-0.3534
5.06	-9.4972	-0.6383	0.3221	-0.0032	-0.0012	-0.0350	42.0204	-10.4667	4.0768	-0.6264	0.3736	-0.5858	-0.3533
5.07	-9.4908	-0.6541	0.3155	0.0070	0.0037	-0.0341	41.9701	-10.5391	4.1294	-0.6265	0.3736	-0.5858	-0.3533
5.08	-9.4879	-0.6614	0.3137	-0.0024	0.0054	-0.0354	41.9685	-10.5281	4.2060	-0.6265	0.3737	-0.5858	-0.3532
5.09	-9.4873	-0.6742	0.3181	-0.0086	0.0095	-0.0296	41.9874	-10.5170	4.1567	-0.6265	0.3737	-0.5858	-0.3532
5.1	-9.4905	-0.6901	0.3034	-0.0055	0.0140	-0.0293	42.0727	-10.5503	4.2033	-0.6265	0.3738	-0.5858	-0.3531
5.11	-9.5004	-0.6911	0.3073	-0.0073	0.0157	-0.0205	41.8746	-10.6712	4.1421	-0.6264	0.3739	-0.5858	-0.3531
5.12	-9.5058	-0.6925	0.3022	-0.0103	0.0149	-0.0193	41.9473	-10.8075	4.3158	-0.6264	0.3739	-0.5858	-0.3531
5.13	-9.5076	-0.6882	0.3009	-0.0094	0.0101	-0.0248	42.1168	-10.7655	4.0169	-0.6263	0.3740	-0.5858	-0.3531
5.14	-9.5113	-0.6893	0.2957	-0.0120	0.0169	-0.0208	42.1335	-10.5522	3.8834	-0.6263	0.3740	-0.5858	-0.3531
5.15	-9.5136	-0.6846	0.2896	-0.0096	0.0206	-0.0176	42.2388	-10.7070	3.8864	-0.6262	0.3741	-0.5859	-0.3531
5.16	-9.5274	-0.6777	0.2831	-0.0106	0.0230	-0.0186	42.2301	-10.7086	4.1154	-0.6261	0.3741	-0.5859	-0.3530
5.17	-9.5393	-0.6805	0.2760	-0.0088	0.0213	-0.0185	42.0488	-10.5714	4.0536	-0.6261	0.3742	-0.5860	-0.3530
5.18	-9.5381	-0.6861	0.2762	-0.0108	0.0196	-0.0175	42.1827	-10.6892	4.0031	-0.6260	0.3742	-0.5860	-0.3530
5.19	-9.5373	-0.6692	0.2670	-0.0118	0.0187	-0.0234	41.8356	-10.6994	4.2303	-0.6259	0.3743	-0.5861	-0.3530
5.2	-9.5514	-0.6796	0.2651	-0.0111	0.0180	-0.0149	42.0217	-10.7248	4.0373	-0.6259	0.3744	-0.5861	-0.3530
5.21	-9.5505	-0.6772	0.2525	-0.0138	0.0198	-0.0109	41.9161	-10.6438	4.1587	-0.6258	0.3744	-0.5861	-0.3530
5.22	-9.5510	-0.6646	0.2560	-0.0116	0.0187	-0.0182	42.1310	-10.4109	4.1600	-0.6257	0.3745	-0.5862	-0.3530
5.23	-9.5606	-0.6704	0.2532	-0.0114	0.0152	-0.0128	42.1597	-10.5230	4.2989	-0.6257	0.3745	-0.5862	-0.3530
5.24	-9.5581	-0.6656	0.2497	-0.0102	0.0128	-0.0201	42.1660	-10.5531	4.1081	-0.6256	0.3745	-0.5862	-0.3530
5.25	-9.5621	-0.6624	0.2525	-0.0147	0.0111	-0.0122	42.0977	-10.7899	4.1536	-0.6256	0.3746	-0.5863	-0.3531
5.26	-9.5522	-0.6670	0.2500	-0.0130	0.0102	-0.0213	42.0534	-10.5153	4.1200	-0.6255	0.3746	-0.5863	-0.3531
5.27	-9.5578	-0.6758	0.2496	-0.0129	0.0066	-0.0311	42.0599	-10.5282	4.0613	-0.6255	0.3747	-0.5862	-0.3531
5.28	-9.5532	-0.6789	0.2528	-0.0136	0.0104	-0.0292	42.0858	-10.7852	4.3859	-0.6255	0.3748	-0.5862	-0.3530
5.29	-9.5625	-0.6849	0.2480	-0.0102	0.0098	-0.0269	41.9884	-10.5520	4.0946	-0.6255	0.3749	-0.5862	-0.3530
5.3	-9.5648	-0.6884	0.2527	-0.0051	0.0051	-0.0196	41.9726	-10.5091	4.0926	-0.6255	0.3749	-0.5862	-0.3530
5.31	-9.5596	-0.6841	0.2574	-0.0066	0.0017	-0.0250	42.1669	-10.6469	4.0668	-0.6255	0.3749	-0.5862	-0.3530
5.32	-9.5589	-0.6825	0.2557	-0.0065	-0.0003	-0.0250	42.0429	-10.5764	3.9800	-0.6255	0.3749	-0.5862	-0.3530
5.33	-9.5500	-0.6728	0.2589	-0.0115	-0.0041	-0.0302	42.3010	-10.4677	3.9850	-0.6255	0.3750	-0.5861	-0.3530
5.34	-9.5314	-0.6751	0.2621	-0.0070	-0.0043	-0.0269	42.0154	-10.7666	4.1086	-0.6255	0.3750	-0.5861	-0.3530
5.35	-9.5367	-0.6737	0.2690	-0.0014	-0.0063	-0.0211	42.1057	-10.7374	4.1966	-0.6255	0.3750	-0.5860	-0.3530
5.36	-9.5279	-0.6694	0.2612	-0.0037	-0.0067	-0.0272	42.1782	-10.5555	4.1928	-0.6256	0.3750	-0.5860	-0.3530
5.37	-9.5138	-0.6636	0.2722	0.0016	0.0021	-0.0206	42.0756	-10.7144	4.0961	-0.6256	0.3750	-0.5860	-0.3530
5.38	-9.5125	-0.6665	0.2733	0.0009	-0.0055	-0.0266	41.9327	-10.7146	3.9865	-0.6256	0.3750	-0.5860	-0.3530
5.39	-9.4985	-0.6648	0.2806	0.0072	0.0003	-0.0285	42.0381	-10.6610	4.1453	-0.6257	0.3750	-0.5859	-0.3529
5.4	-9.4913	-0.6653	0.2825	0.0082	-0.0002	-0.0283	42.0535	-10.5934	4.2642	-0.6257	0.3750	-0.5859	-0.3529
5.41	-9.4967	-0.6673	0.2791	0.0033	0.0080	-0.0333	42.1731	-10.6271	4.2855	-0.6258	0.3750	-0.5859	-0.3528
5.42	-9.5136	-0.6723	0.2823	-0.0050	0.0073	-0.0352	42.1129	-10.4883	4.0170	-0.6258	0.3751	-0.5859	-0.3527
5.43	-9.5285	-0.6836	0.2790	-0.0097	0.0098	-0.0329	42.0855	-10.7653	3.9814	-0.6258	0.3752	-0.5859	-0.3527
5.44	-9.5306	-0.6834	0.2933	-0.0026	0.0099	-0.0352	42.2034	-10.8067	4.0800	-0.6258	0.3752	-0.5859	-0.3526
5.45	-9.5400	-0.6881	0.2888	-0.0047	0.0076	-0.0332	42.0015	-10.6889	4.2063	-0.6258	0.3753	-0.5859	-0.3526
5.46	-9.5135	-0.6837	0.2836	-0.0126	0.0025	-0.0286	42.1517	-10.4216	4.1602	-0.6258	0.3754	-0.5858	-0.3526
5.47	-9.4851	-0.6723	0.2804	-0.0115	0.0071	-0.0278	42.3149	-10.7375	4.2116	-0.6258	0.3754	-0.5858	-0.3526
5.48	-9.5131	-0.6758	0.2873	-0.0117	0.0064	-0.0244	41.9459	-10.4838	4.0622	-0.6257	0.3755	-0.5858	-0.3526
5.49	-9.5562	-0.6761	0.2925	-0.0103	0.0074	-0.0201	42.0926	-10.6095	4.2340	-0.6257	0.3755	-0.5858	-0.3526
5.5	-9.5579	-0.6845	0.2911	-0.0055	0.0044	-0.0202	42.7577	-10.4657	4.4482	-0.6257	0.3755	-0.5858	-0.3526
5.51	-9.5132	-0.7093	0.2885	-0.0061	0.0012	-0.0244	42.7651	-10.5423	4.1909	-0.6257	0.3756	-0.5858	-0.3526
5.52	-9.5114	-0.7171	0.2881	-0.0019	0.0043	-0.0188	42.3067	-10.9653	3.9286	-0.6257	0.3756	-0.5858	-0.3526
5.53	-9.5158	-0.7019	0.2815	0.0112	0.0063	-0.0157	42.1428	-11.4183	4.0469	-0.6257	0.3755	-0.5858	-0.3525
5.54	-9.5010	-0.6678	0.2813	0.0121	0.0092	-0.0139	42.2069	-10.6967	4.1315	-0.6257	0.3755	-0.5859	-0.3525
5.55	-9.4925	-0.6458	0.2649	0.0087	0.0141	-0.0099	42.1321	-10.4827	4.2479	-0.6257	0.3754	-0.5859	-0.3524
5.56	-9.5051	-0.6316	0.2536	0.0068	0.0209	-0.0145	42.1398	-10.7343	4.2674	-0.6257	0.3754	-0.5860	-0.3524
5.57	-9.5277	-0.6269	0.2504	0.0034	0.0184	-0.0131	42.0692	-10.5770	4.0445	-0.6256	0.3754	-0.5861	-0.3524
5.58	-9.5326	-0.6304	0.2453	0.0089	0.0174	-0.0188	42.0787	-10.5587	4.1630	-0.6256	0.3754	-0.5862	-0.3523
5.59	-9.5473	-0.6379	0.2414	0.0061	0.0240	-0.0235	42.2550	-10.6664	4.1326	-0.6256	0.3754	-0.5862	-0.3522
5.6	-9.5828	-0.6425	0.2383	-0.0005	0.0197	-0.0326	42.0586	-10.5272	3.9724	-0.6255	0.3755	-0.5863	-0.3521
5.61	-9.5866	-0.6369	0.2382	-0.0015	0.0105	-0.0323	42.0329	-10.6257	4.2715	-0.6255	0.3755	-0.5863	-0.3521
5.62	-9.5780	-0.6266	0.2391	-0.0018	0.0057	-0.0240	42.0419	-10.3635	3.8981	-0.6255	0.3756	-0.5863	-0.3520
5.63	-9.5631	-0.6268	0.2402	-0.0072	0.0076	-0.0314	42.0359	-10.5317	4.3478	-0.6255	0.3756	-0.5863	-0.3520
5.64	-9.5511	-0.6251	0.2354	-0.0141	0.0093	-0.0296	42.0434	-10.6859	4.2919	-0.6255	0.3757	-0.5862	-0.3520
5.65	-9.5497	-0.6300	0.2319	-0.0117	0.0099	-0.0341	42.0215	-10.6575	4.2346	-0.6255	0.3758	-0.5862	-0.3520
5.66	-9.5531	-0.6421	0.2303	-0.0203	0.0094	-0.0320	42.1346	-10.5618	4.2596	-0.6255	0.3759	-0.5862	-0.3520
5.67	-9.5604	-0.6616	0.2298	-0.0268	0.0028	-0.0341	42.2440	-10.4647	4.1153	-0.6255	0.3760	-0.5861	-0.3520
5.68	-9.5615	-0.6768	0.2292	-0.0150	0.0060	-0.0356	42.0004	-10.6563	4.2179	-0.6255	0.3761	-0.5861	-0.3520
5.69	-9.5459	-0.6831	0.2272	-0.0207	0.0016	-0.0349	42.2008	-10.6642	4.2820	-0.6255	0.3762	-0.5860	-0.3520
5.7	-9.5505	-0.6688	0.2347	-0.0186	0.0030	-0.0349	42.3302	-10.5427	4.2083	-0.6255	0.3763	-0.5859	-0.3520
5.71	-9.5788	-0.6756	0.2327	-0.0223	-0.0005	-0.0355	42.1544	-10.6019	4.1840	-0.6255	0.3764	-0.5859	-0.3520
5.72	-9.5488	-0.6771	0.2340	-0.0257	-0.0111	-0.0334	42.3210	-10.6953	4.2856	-0.6255	0.3765	-0.5858	-0.3520
5.73	-9.5379	-0.6836	0.2437	-0.0336	-0.0065	-0.0360	42.2203	-10.5384	4.1558	-0.6255	0.3766	-0.5856	-0.3521
5.74	-9.5543	-0.7009	0.2525	-0.0332	-0.0152	-0.0347	41.9834	-10.6024	4.1296	-0.6255	0.3767	-0.5855	-0.3521
5.75	-9.5419	-0.6981	0.2609	-0.0348	-0.0176	-0.0361	42.0959	-10.6705	4.2370	-0.6255	0.3769	-0.5854	-0.3522
5.76	-9.5299	-0.6998	0.2579	-0.0368	-0.0229	-0.0357	42.2040	-10.6517	4.1855	-0.6256	0.3770	-0.5852	-0.3523
5.77	-9.5185	-0.7004	0.2689	-0.0368	-0.0127	-0.0326	42.2429	-10.6549	4.0522	-0.6256	0.3771	-0.5850	-0.3524
5.78	-9.5163	-0.7088	0.2747	-0.0368	-0.0148	-0.0302	42.0317	-10.5267	4.1857	-0.6256	0.3772	-0.5849	-0.3525
5.79	-9.5181	-0.7211	0.2742	-0.0369	-0.0070	-0.0353	42.1252	-10.2015	4.1372	-0.6256	0.3773	-0.5848	-0.3525
5.8	-9.5117	-0.7344	0.2744	-0.0367	-0.0076	-0.0351	42.0462	-10.3201	4.1533	-0.6256	0.3775	-0.5847	-0.3526
5.81	-9.5073	-0.7455	0.2735	-0.0379	-0.0081	-0.0339	41.9409	-10.2726	4.0472	-0.6256	0.3776	-0.5845	-0.3527
5.82	-9.5032	-0.7618	0.2742	-0.0376	-0.0012	-0.0370	42.2541	-10.2357	4.2018	-0.6255	0.3778	-0.5844	-0.3527
5.83	-9.5058	-0.7828	0.2641	-0.0375	0.0016	-0.0291	42.1368	-10.3698	4.0576	-0.6255	0.3779	-0.5843	-0.3528
5.84	-9.5148	-0.7873	0.2701	-0.0368	-0.0041	-0.0289	42.1159	-10.6143	4.0571	-0.6255	0.3780	-0.5842	-0.3529
5.85	-9.5265	-0.7960	0.2717	-0.0374	-0.0031	-0.0235	42.0234	-10.4908	4.2124	-0.6254	0.3781	-0.5841	-0.3530
5.86	-9.5355	-0.8033	0.2750	-0.0369	-0.0036	-0.0183	42.0463	-10.1860	4.2303	-0.6254	0.3782	-0.5841	-0.3531
5.87	-9.5356	-0.8082	0.2779	-0.0360	-0.0143	-0.0157	42.0280	-10.6016	3.9499	-0.6254	0.3783	-0.5840	-0.3532
5.88	-9.5322	-0.8047	0.2776	-0.0278	-0.0058	-0.0095	42.2421	-10.5568	3.8858	-0.6253	0.3784	-0.5839	-0.3534
5.89	-9.5257	-0.8019	0.2732	-0.0214	-0.0152	-0.0109	42.3763	-10.5888	3.6972	-0.6253	0.3784	-0.5838	-0.3535
5.9	-9.5183	-0.8033	0.2757	-0.0213	-0.0091	-0.0092	42.3506	-10.7662	4.0455	-0.6253	0.3784	-0.5838	-0.3536
5.91	-9.5132	-0.7949	0.2761	-0.0107	-0.0155	-0.0115	42.1837	-10.6450	4.0744	-0.6253	0.3783	-0.5837	-0.3537
5.92	-9.5121	-0.7916	0.2824	-0.0105	-0.0094	-0.0058	42.2436	-10.4353	3.9586	-0.6254	0.3783	-0.5837	-0.3537
5.93	-9.5112	-0.7855	0.2780	-0.0060	-0.0063	-0.0074	41.9786	-10.7159	3.9222	-0.6254	0.3783	-0.5837	-0.3538
5.94	-9.5198	-0.7698	0.2764	-0.0022	-0.0035	0.0006	41.9221	-10.7834	3.9219	-0.6253	0.3782	-0.5837	-0.3539
5.95	-9.5267	-0.7565	0.2879	-0.0021	-0.0050	-0.0007	42.1566	-10.5127	4.1266	-0.6253	0.3781	-0.5837	-0.3539
5.96	-9.5284	-0.7479	0.2890	0.0077	0.0032	-0.0031	42.1166	-10.6339	3.9823	-0.6253	0.3781	-0.5837	-0.3540
5.97	-9.5263	-0.7276	0.2914	0.0100	0.0024	-0.0045	41.9115	-10.6267	3.7727	-0.6253	0.3780	-0.5838	-0.3540
5.98	-9.5205	-0.7095	0.2919	0.0105	-0.0007	-0.0104	42.0691	-10.4526	3.8512	-0.6253	0.3779	-0.5838	-0.3540
5.99	-9.5124	-0.6955	0.2912	0.0129	0.0001	-0.0078	42.3180	-10.3951	4.2804	-0.6254	0.3778	-0.5838	-0.3540
6	-9.5092	-0.6835	0.3012	0.0080	-0.0035	-0.0051	42.5740	-10.1785	4.3117	-0.6254	0.3777	-0.5839	-0.3540
6.01	-9.5215	-0.6725	0.2973	0.0169	0.0036	-0.0091	42.4612	-10.3318	4.1639	-0.6254	0.3777	-0.5839	-0.3540
6.02	-9.5170	-0.6656	0.3041	0.0127	0.0037	-0.0083	42.1401	-10.8931	4.0309	-0.6254	0.3776	-0.5840	-0.3539
6.03	-9.5279	-0.6550	0.3102	0.0149	0.0063	-0.0066	42.2350	-11.3145	4.0455	-0.6254	0.3775	-0.5840	-0.3539
6.04	-9.5448	-0.6579	0.3024	0.0143	0.0049	-0.0060	41.9778	-10.6309	4.0890	-0.6254	0.3774	-0.5841	-0.3539
6.05	-9.5312	-0.6595	0.3060	0.0131	-0.0009	-0.0010	42.2127	-10.6809	4.0775	-0.6254	0.3773	-0.5842	-0.3539
6.06	-9.5275	-0.6554	0.3021	0.0134	0.0005	-0.0010	42.2044	-10.6894	4.0630	-0.6254	0.3772	-0.5842	-0.3539
6.07	-9.5172	-0.6486	0.3026	0.0130	-0.0007	-0.0033	42.1748	-10.7303	3.9567	-0.6254	0.3771	-0.5842	-0.3539
6.08	-9.5197	-0.6484	0.3054	0.0131	0.0010	-0.0054	42.0558	-10.5708	3.9999	-0.6254	0.3770	-0.5843	-0.3539
6.09	-9.5164	-0.6360	0.3104	0.0155	-0.0001	-0.0097	42.1791	-10.8403	3.9677	-0.6255	0.3769	-0.5843	-0.3539
6.1	-9.5197	-0.6290	0.3116	0.0141	0.0042	-0.0083	42.3566	-10.9235	4.1546	-0.6255	0.3768	-0.5844	-0.3539
6.11	-9.5229	-0.6196	0.3124	0.0145	0.0068	-0.0093	42.1635	-10.5378	4.1380	-0.6255	0.3768	-0.5844	-0.3539
6.12	-9.5329	-0.6101	0.3151	0.0136	0.0054	-0.0095	42.0705	-10.7080	3.9461	-0.6255	0.3767	-0.5845	-0.3539
6.13	-9.5246	-0.5950	0.3155	0.0156	0.0074	-0.0124	42.0705	-10.8062	4.1318	-0.6255	0.3766	-0.5846	-0.3538
6.14	-9.5290	-0.5874	0.3126	0.0158	0.0051	-0.0122	42.0452	-10.8762	4.1596	-0.6255	0.3765	-0.5846	-0.3538
6.15	-9.5464	-0.5869	0.3054	0.0121	0.0077	-0.0142	42.1465	-10.6682	3.9763	-0.6255	0.3765	-0.5847	-0.3537
6.16	-9.5552	-0.5832	0.3030	0.0044	0.0072	-0.0174	42.1609	-10.7206	3.9825	-0.6255	0.3765	-0.5847	-0.3537
6.17	-9.5660	-0.5866	0.2962	-0.0004	0.0026	-0.0159	41.9309	-10.6573	4.1163	-0.6255	0.3765	-0.5847	-0.3537
6.18	-9.5647	-0.5925	0.3030	-0.0058	0.0097	-0.0226	42.1920	-10.5931	4.2005	-0.6255	0.3765	-0.5847	-0.3537
6.19	-9.5675	-0.5996	0.3048	-0.0058	0.0024	-0.0266	42.0664	-10.6065	4.0802	-0.6255	0.3765	-0.5847	-0.3537
6.2	-9.5620	-0.6176	0.3035	-0.0097	-0.0028	-0.0185	41.9715	-10.6182	3.9669	-0.6255	0.3765	-0.5847	-0.3537
6.21	-9.5570	-0.6269	0.3104	-0.0103	-0.0078	-0.0225	42.1107	-10.7204	3.8464	-0.6256	0.3765	-0.5846	-0.3537
6.22	-9.5458	-0.6297	0.3125	-0.0172	-0.0106	-0.0213	41.9917	-10.6852	3.9907	-0.6256	0.3766	-0.5845	-0.3538
6.23	-9.5394	-0.6391	0.3198	-0.0177	-0.0138	-0.0264	41.9564	-10.7025	3.8955	-0.6256	0.3766	-0.5844	-0.3539
6.24	-9.5406	-0.6439	0.3190	-0.0152	-0.0185	-0.0184	42.1239	-10.6960	3.7715	-0.6256	0.3766	-0.5843	-0.3539
6.25	-9.5322	-0.6502	0.3206	-0.0127	-0.0149	-0.0193	42.3102	-10.8644	3.8347	-0.6257	0.3766	-0.5843	-0.3540
6.26	-9.5293	-0.6504	0.3294	-0.0116	-0.0157	-0.0171	42.1273	-10.8684	4.0714	-0.6257	0.3766	-0.5842	-0.3541
6.27	-9.5188	-0.6503	0.3239	-0.0116	-0.0204	-0.0213	42.1908	-10.8784	4.1000	-0.6258	0.3766	-0.5841	-0.3541
6.28	-9.5110	-0.6460	0.3310	-0.0062	-0.0148	-0.0166	42.0865	-10.8503	3.9163	-0.6258	0.3766	-0.5840	-0.3542
6.29	-9.5004	-0.6480	0.3376	-0.0110	-0.0131	-0.0195	42.1235	-10.7076	3.8932	-0.6258	0.3766	-0.5840	-0.3542
6.3	-9.4908	-0.6488	0.3421	-0.0079	-0.0089	-0.0188	42.1758	-10.6785	3.8835	-0.6259	0.3766	-0.5839	-0.3543
6.31	-9.4901	-0.6421	0.3448	-0.0045	-0.0068	-0.0148	41.9421	-10.7258	3.9129	-0.6259	0.3766	-0.5839	-0.3543
6.32	-9.4993	-0.6444	0.3435	-0.0003	-0.0048	-0.0131	41.9755	-10.7953	4.0113	-0.6259	0.3765	-0.5839	-0.3543
6.33	-9.4922	-0.6429	0.3502	-0.0025	-0.0041	-0.0183	42.0395	-10.7949	3.9730	-0.6259	0.3765	-0.5839	-0.3543
6.34	-9.5073	-0.6393	0.3581	-0.0054	0.0030	-0.0194	42.1676	-10.6774	3.9956	-0.6259	0.3765	-0.5839	-0.3544
6.35	-9.5053	-0.6332	0.3536	-0.0087	0.0038	-0.0192	42.1753	-10.6026	3.9698	-0.6259	0.3765	-0.5838	-0.3544
6.36	-9.5063	-0.6235	0.3580	-0.0116	0.0028	-0.0183	42.0658	-10.7605	4.0238	-0.6259	0.3766	-0.5838	-0.3544
6.37	-9.4955	-0.6208	0.3502	-0.0075	0.0105	-0.0174	41.8297	-10.5600	4.2064	-0.6259	0.3766	-0.5838	-0.3544
6.38	-9.4936	-0.6303	0.3427	-0.0066	0.0060	-0.0194	42.1477	-10.7667	3.9132	-0.6259	0.3766	-0.5838	-0.3544
6.39	-9.4964	-0.6381	0.3406	-0.0039	0.0155	-0.0160	42.2705	-10.7242	3.9323	-0.6258	0.3766	-0.5839	-0.3544
6.4	-9.5217	-0.6337	0.3467	-0.0075	0.0133	-0.0170	42.2384	-10.7492	4.0116	-0.6258	0.3766	-0.5839	-0.3544
6.41	-9.5575	-0.6402	0.3421	-0.0073	0.0129	-0.0197	42.1744	-10.8005	3.9735	-0.6257	0.3767	-0.5839	-0.3544
6.42	-9.5600	-0.6476	0.3433	-0.0092	0.0094	-0.0137	41.9973	-10.6643	3.9927	-0.6257	0.3767	-0.5840	-0.3544
6.43	-9.5399	-0.6592	0.3391	-0.0016	0.0057	-0.0159	42.0140	-10.7113	3.9764	-0.6257	0.3767	-0.5840	-0.3544
6.44	-9.5229	-0.6579	0.3362	0.0081	0.0158	-0.0105	42.1616	-10.6887	3.9994	-0.6257	0.3767	-0.5840	-0.3544
6.45	-9.4998	-0.6406	0.3279	0.0101	0.0106	-0.0088	42.1655	-10.6917	3.8678	-0.6256	0.3766	-0.5841	-0.3544
6.46	-9.4850	-0.6095	0.3303	0.0143	0.0200	-0.0097	42.2675	-10.8564	3.9296	-0.6256	0.3766	-0.5842	-0.3543
6.47	-9.4934	-0.5929	0.3178	0.0128	0.0252	-0.0094	42.2428	-10.8282	4.0404	-0.6256	0.3765	-0.5843	-0.3543
6.48	-9.5006	-0.5874	0.3102	0.0130	0.0248	-0.0185	42.1631	-10.6717	3.8477	-0.6255	0.3765	-0.5844	-0.3542
6.49	-9.5249	-0.5964	0.3039	0.0040	0.0338	-0.0279	42.2545	-10.7132	3.9543	-0.6255	0.3766	-0.5845	-0.3541
6.5	-9.5362	-0.6049	0.2903	0.0074	0.0281	-0.0313	42.7851	-10.4706	3.9432	-0.6254	0.3766	-0.5846	-0.3540
6.51	-9.5528	-0.6121	0.2888	0.0113	0.0248	-0.0346	42.7393	-10.3503	4.2079	-0.6254	0.3767	-0.5846	-0.3538
6.52	-9.5724	-0.6220	0.2866	0.0069	0.0256	-0.0346	42.2856	-10.9170	4.4515	-0.6254	0.3767	-0.5847	-0.3537
6.53	-9.5724	-0.6136	0.2851	0.0023	0.0185	-0.0340	42.1356	-11.4791	3.9072	-0.6254	0.3768	-0.5847	-0.3536
6.54	-9.5659	-0.6138	0.2771	-0.0073	0.0204	-0.0340	42.0054	-10.8050	4.0988	-0.6254	0.3768	-0.5847	-0.3535
6.55	-9.5543	-0.6163	0.2773	-0.0129	0.0153	-0.0344	42.0552	-10.6337	4.2576	-0.6253	0.3769	-0.5847	-0.3535
6.56	-9.5651	-0.6168	0.2796	-0.0104	0.0094	-0.0342	42.0291	-10.5817	4.1005	-0.6253	0.3770	-0.5847	-0.3535
6.57	-9.5634	-0.6331	0.2762	-0.0189	0.0124	-0.0352	42.2000	-10.7013	4.1966	-0.6253	0.3771	-0.5847	-0.3534
6.58	-9.5650	-0.6358	0.2819	-0.0304	0.0045	-0.0356	41.9518	-10.5785	4.2627	-0.6253	0.3773	-0.5846	-0.3535
6.59	-9.5631	-0.6562	0.2744	-0.0275	0.0086	-0.0352	41.9467	-10.5627	4.1179	-0.6253	0.3774	-0.5845	-0.3535
6.6	-9.5300	-0.6648	0.2732	-0.0301	0.0061	-0.0356	42.0683	-10.7221	3.8983	-0.6252	0.3775	-0.5845	-0.3535
6.61	-9.5318	-0.6552	0.2788	-0.0212	0.0031	-0.0343	42.0092	-10.7583	4.0421	-0.6252	0.3777	-0.5844	-0.3535
6.62	-9.5538	-0.6780	0.2833	-0.0271	0.0046	-0.0338	42.1207	-10.7451	4.0529	-0.6252	0.3778	-0.5843	-0.3535
6.63	-9.5202	-0.6743	0.2864	-0.0354	0.0063	-0.0373	42.2430	-10.8455	4.0587	-0.6252	0.3779	-0.5843	-0.3536
6.64	-9.5058	-0.6935	0.2981	-0.0374	-0.0017	-0.0349	42.1723	-11.0036	4.0424	-0.6251	0.3781	-0.5841	-0.3536
6.65	-9.5171	-0.7174	0.3010	-0.0349	0.0020	-0.0366	42.0837	-10.9636	4.1232	-0.6251	0.3782	-0.5840	-0.3537
6.66	-9.5047	-0.7220	0.3079	-0.0330	0.0040	-0.0245	42.2544	-10.8165	4.1808	-0.6251	0.3783	-0.5840	-0.3537
6.67	-9.4923	-0.7190	0.3121	-0.0334	0.0062	-0.0217	42.0458	-10.8458	3.8489	-0.6250	0.3785	-0.5839	-0.3538
6.68	-9.4862	-0.7099	0.3165	-0.0231	0.0065	-0.0202	42.0890	-10.8421	3.7659	-0.6249	0.3785	-0.5839	-0.3539
6.69	-9.4902	-0.7128	0.3166	-0.0240	0.0067	-0.0173	42.1448	-10.8346	4.1343	-0.6249	0.3786	-0.5839	-0.3539
6.7	-9.4959	-0.7107	0.3122	-0.0143	0.0102	-0.0225	42.0257	-10.7593	4.2811	-0.6249	0.3787	-0.5839	-0.3539
6.71	-9.5110	-0.7228	0.3041	-0.0140	0.0168	-0.0170	42.0234	-10.5584	4.1517	-0.6248	0.3787	-0.5839	-0.3540
6.72	-9.5072	-0.7237	0.2929	-0.0157	0.0216	-0.0225	42.1119	-10.4573	3.9675	-0.6247	0.3788	-0.5839	-0.3540
6.73	-9.5049	-0.7240	0.2888	-0.0099	0.0247	-0.0299	42.1350	-10.5661	4.2803	-0.6247	0.3789	-0.5839	-0.3539
6.74	-9.5127	-0.7214	0.2783	-0.0126	0.0203	-0.0249	42.0222	-10.6160	4.0697	-0.6246	0.3790	-0.5840	-0.3539
6.75	-9.5116	-0.7234	0.2781	-0.0053	0.0188	-0.0310	42.0267	-10.6301	4.0773	-0.6246	0.3790	-0.5840	-0.3538
6.76	-9.5145	-0.7205	0.2655	-0.0011	0.0208	-0.0223	42.1204	-10.5440	4.2397	-0.6245	0.3791	-0.5840	-0.3538
6.77	-9.5284	-0.7159	0.2732	0.0039	0.0221	-0.0195	42.1258	-10.6723	4.2329	-0.6245	0.3791	-0.5841	-0.3537
6.78	-9.5387	-0.7093	0.2599	0.0062	0.0215	-0.0218	42.1459	-10.6784	4.3718	-0.6245	0.3791	-0.5842	-0.3536
6.79	-9.5511	-0.7008	0.2620	0.0109	0.0193	-0.0194	42.0532	-10.5789	4.4675	-0.6244	0.3791	-0.5842	-0.3536
6.8	-9.5710	-0.6987	0.2556	0.0130	0.0187	-0.0173	42.1022	-10.6454	4.2188	-0.6244	0.3791	-0.5843	-0.3535
6.81	-9.5747	-0.6893	0.2510	0.0147	0.0127	-0.0144	42.2615	-10.8776	4.1437	-0.6244	0.3790	-0.5844	-0.3535
6.82	-9.5741	-0.6842	0.2427	0.0139	0.0142	-0.0197	42.1541	-10.8233	4.1181	-0.6244	0.3790	-0.5844	-0.3534
6.83	-9.5645	-0.6825	0.2387	0.0136	0.0149	-0.0165	42.1023	-10.8370	4.2924	-0.6244	0.3790	-0.5845	-0.3533
6.84	-9.5539	-0.6717	0.2399	0.0127	0.0053	-0.0173	42.2380	-10.8468	4.3663	-0.6244	0.3789	-0.5846	-0.3533
6.85	-9.5472	-0.6753	0.2435	0.0144	0.0024	-0.0151	42.0695	-10.8031	4.2876	-0.6245	0.3788	-0.5846	-0.3532
6.86	-9.5467	-0.6685	0.2492	0.0138	0.0068	-0.0164	42.2238	-10.7317	4.1898	-0.6245	0.3788	-0.5846	-0.3532
6.87	-9.5592	-0.6567	0.2544	0.0144	0.0075	-0.0274	42.1267	-10.7519	4.0162	-0.6245	0.3788	-0.5847	-0.3531
6.88	-9.5764	-0.6472	0.2535	0.0138	0.0036	-0.0249	42.1337	-10.7617	4.2022	-0.6246	0.3787	-0.5847	-0.3530
6.89	-9.5752	-0.6430	0.2670	0.0097	0.0003	-0.0205	42.1016	-10.7054	4.3503	-0.6246	0.3787	-0.5847	-0.3530
6.9	-9.5855	-0.6371	0.2685	0.0030	-0.0042	-0.0247	42.2191	-10.6414	4.1015	-0.6246	0.3787	-0.5847	-0.3530
6.91	-9.5697	-0.6335	0.2724	-0.0015	-0.0061	-0.0255	42.1226	-10.6716	4.1786	-0.6247	0.3787	-0.5846	-0.3530
6.92	-9.5327	-0.6310	0.2760	-0.0080	-0.0039	-0.0239	42.0206	-10.6562	4.2035	-0.6247	0.3787	-0.5846	-0.3530
6.93	-9.5163	-0.6491	0.2738	-0.0102	-0.0117	-0.0200	42.0305	-10.6655	3.9542	-0.6247	0.3787	-0.5845	-0.3530
6.94	-9.4890	-0.6642	0.2784	-0.0096	-0.0071	-0.0250	42.1113	-10.6624	4.2668	-0.6248	0.3787	-0.5845	-0.3531
6.95	-9.4686	-0.6841	0.2865	-0.0098	-0.0107	-0.0288	42.2364	-10.6520	4.1065	-0.6248	0.3787	-0.5844	-0.3531
6.96	-9.4731	-0.6956	0.2901	-0.0109	-0.0028	-0.0237	42.0631	-10.6949	4.0433	-0.6248	0.3788	-0.5844	-0.3531
6.97	-9.4882	-0.7029	0.2914	-0.0103	0.0055	-0.0243	42.0174	-11.0120	4.2984	-0.6248	0.3788	-0.5843	-0.3531
6.98	-9.5102	-0.7045	0.2911	-0.0109	0.0053	-0.0226	42.0481	-10.6037	4.4495	-0.6248	0.3788	-0.5843	-0.3531
6.99	-9.5368	-0.6867	0.2949	-0.0026	0.0097	-0.0203	42.3560	-10.6185	4.2635	-0.6248	0.3789	-0.5843	-0.3531
7	-9.5508	-0.6689	0.2929	0.0045	0.0140	-0.0182	42.9892	-10.5894	4.0651	-0.6248	0.3788	-0.5844	-0.3531
7.01	-9.5515	-0.6574	0.2823	-0.0081	0.0149	-0.0152	42.7074	-10.5968	4.0412	-0.6247	0.3789	-0.5844	-0.3531
7.02	-9.5453	-0.6477	0.2768	-0.0030	0.0111	-0.0139	42.2241	-11.0883	4.0901	-0.6247	0.3789	-0.5844	-0.3531
7.03	-9.5370	-0.6432	0.2797	-0.0122	0.0017	-0.0122	42.3205	-11.6672	3.9679	-0.6246	0.3789	-0.5844	-0.3532
7.04	-9.5185	-0.6579	0.2755	-0.0099	0.0074	-0.0154	41.9192	-10.7639	3.9459	-0.6246	0.3789	-0.5844	-0.3532
7.05	-9.4948	-0.6753	0.2756	-0.0154	0.0016	-0.0166	42.1163	-10.7696	4.1041	-0.6246	0.3790	-0.5844	-0.3532
7.06	-9.4978	-0.6922	0.2802	-0.0156	0.0072	-0.0089	42.0657	-10.7810	4.1136	-0.6245	0.3790	-0.5844	-0.3533
7.07	-9.5084	-0.6967	0.2859	-0.0113	0.0031	-0.0141	42.2575	-10.7239	4.0119	-0.6245	0.3790	-0.5844	-0.3533
7.08	-9.5228	-0.6975	0.2851	-0.0040	0.0051	-0.0104	42.2637	-10.7887	3.8310	-0.6245	0.3790	-0.5844	-0.3534
7.09	-9.5392	-0.6864	0.2831	-0.0072	0.0104	-0.0091	42.1843	-10.4633	4.1507	-0.6244	0.3790	-0.5844	-0.3534
7.1	-9.5540	-0.6683	0.2810	0.0008	0.0130	-0.0039	42.0155	-10.7088	4.1572	-0.6244	0.3789	-0.5845	-0.3534
7.11	-9.5618	-0.6515	0.2792	0.0100	0.0137	-0.0051	42.2255	-10.6766	4.0595	-0.6244	0.3789	-0.5846	-0.3534
7.12	-9.5468	-0.6330	0.2785	0.0094	0.0160	-0.0024	42.2821	-10.8073	4.1372	-0.6243	0.3788	-0.5847	-0.3534
7.13	-9.5329	-0.6266	0.2822	0.0101	0.0099	-0.0023	42.0584	-10.7749	3.8306	-0.6243	0.3787	-0.5848	-0.3534
7.14	-9.5301	-0.6320	0.2859	0.0156	0.0085	-0.0116	42.2041	-10.6905	4.1727	-0.6243	0.3787	-0.5848	-0.3534
7.15	-9.5220	-0.6377	0.2886	0.0148	0.0072	-0.0094	41.9304	-10.6986	4.0937	-0.6243	0.3786	-0.5849	-0.3533
7.16	-9.5140	-0.6415	0.2987	0.0157	0.0057	-0.0201	42.2246	-10.8016	4.1979	-0.6243	0.3785	-0.5849	-0.3533
7.17	-9.5132	-0.6457	0.2982	0.0265	0.0030	-0.0215	41.9929	-10.8904	4.3942	-0.6244	0.3784	-0.5850	-0.3532
7.18	-9.5033	-0.6415	0.3047	0.0262	0.0024	-0.0245	42.0789	-10.7288	4.0317	-0.6245	0.3784	-0.5850	-0.3531
7.19	-9.5105	-0.6230	0.3071	0.0377	0.0137	-0.0345	42.2981	-10.9226	4.2127	-0.6245	0.3783	-0.5851	-0.3529
7.2	-9.5057	-0.5985	0.3112	0.0325	0.0124	-0.0341	42.2356	-10.7339	4.1705	-0.6246	0.3782	-0.5851	-0.3528
7.21	-9.5045	-0.5722	0.3182	0.0349	0.0159	-0.0336	42.1508	-10.7526	4.0621	-0.6247	0.3782	-0.5852	-0.3526
7.22	-9.5004	-0.5518	0.3046	0.0300	0.0188	-0.0371	42.2044	-11.0040	4.1371	-0.6247	0.3782	-0.5853	-0.3524
7.23	-9.5034	-0.5437	0.2938	0.0141	0.0203	-0.0389	41.9768	-10.8813	3.9710	-0.6247	0.3782	-0.5853	-0.3523
7.24	-9.5055	-0.5481	0.2904	0.0094	0.0217	-0.0378	42.1148	-10.7536	4.0466	-0.6247	0.3782	-0.5854	-0.3521
7.25	-9.5133	-0.5660	0.2906	-0.0055	0.0258	-0.0381	42.2116	-10.6954	3.8973	-0.6247	0.3783	-0.5854	-0.3520
7.26	-9.5151	-0.5986	0.2879	-0.0065	0.0254	-0.0386	42.0860	-10.7064	4.0523	-0.6247	0.3784	-0.5854	-0.3520
7.27	-9.5175	-0.6342	0.2876	-0.0229	0.0223	-0.0418	41.9867	-10.7134	4.3023	-0.6246	0.3786	-0.5854	-0.3519
7.28	-9.5322	-0.6758	0.2783	-0.0310	0.0221	-0.0366	42.2508	-10.8116	4.2976	-0.6245	0.3788	-0.5854	-0.3519
7.29	-9.5181	-0.6959	0.2785	-0.0337	0.0204	-0.0373	42.0595	-10.7857	4.1879	-0.6245	0.3789	-0.5853	-0.3519
7.3	-9.5248	-0.7172	0.2745	-0.0366	0.0263	-0.0370	42.1865	-10.8036	4.2876	-0.6244	0.3791	-0.5853	-0.3519
7.31	-9.5310	-0.7403	0.2531	-0.0328	0.0210	-0.0289	42.1524	-10.5736	4.2405	-0.6243	0.3793	-0.5853	-0.3519
7.32	-9.5359	-0.7561	0.2413	-0.0347	0.0269	-0.0289	41.9035	-10.8129	4.2116	-0.6242	0.3795	-0.5853	-0.3519
7.33	-9.5579	-0.7625	0.2358	-0.0284	0.0251	-0.0260	42.1775	-10.7135	4.3102	-0.6241	0.3796	-0.5853	-0.3520
7.34	-9.6073	-0.7650	0.2316	-0.0239	0.0211	-0.0211	42.1678	-10.7029	4.1802	-0.6240	0.3797	-0.5853	-0.3520
7.35	-9.6491	-0.7649	0.2380	-0.0199	0.0185	-0.0236	42.1899	-10.5769	4.1443	-0.6239	0.3798	-0.5853	-0.3520
7.36	-9.6433	-0.7696	0.2312	-0.0096	0.0064	-0.0135	42.1170	-10.6946	4.1089	-0.6239	0.3798	-0.5853	-0.3520
7.37	-9.6156	-0.7579	0.2392	-0.0042	0.0044	-0.0142	42.0535	-10.6896	4.3165	-0.6238	0.3798	-0.5853	-0.3520
7.38	-9.5787	-0.7360	0.2414	0.0070	-0.0109	-0.0100	42.2130	-10.9375	4.0486	-0.6239	0.3797	-0.5853	-0.3521
7.39	-9.5475	-0.7084	0.2495	0.0131	-0.0119	-0.0092	42.4196	-10.7997	3.9715	-0.6239	0.3796	-0.5853	-0.3521
7.4	-9.5169	-0.6788	0.2534	0.0113	-0.0127	-0.0052	42.2292	-10.8689	4.0941	-0.6240	0.3795	-0.5853	-0.3521
7.41	-9.4901	-0.6520	0.2587	0.0037	-0.0178	-0.0028	42.3817	-10.7990	4.0804	-0.6240	0.3794	-0.5853	-0.3522
7.42	-9.4893	-0.6432	0.2587	-0.0011	-0.0061	-0.0073	42.4190	-10.6739	4.2571	-0.6241	0.3793	-0.5853	-0.3523
7.43	-9.4912	-0.6392	0.2666	0.0091	-0.0020	-0.0069	42.1553	-10.7172	4.2246	-0.6241	0.3793	-0.5853	-0.3523
7.44	-9.5001	-0.6443	0.2698	-0.0005	-0.0000	-0.0114	42.1798	-10.7076	4.1809	-0.6241	0.3792	-0.5853	-0.3523
7.45	-9.5028	-0.6467	0.2759	-0.0054	0.0022	-0.0100	42.1708	-10.5983	4.0673	-0.6241	0.3792	-0.5853	-0.3523
7.46	-9.4997	-0.6468	0.2754	0.0017	0.0024	-0.0099	42.4475	-10.7861	3.9982	-0.6241	0.3792	-0.5854	-0.3524
7.47	-9.4954	-0.6438	0.2761	0.0042	0.0099	-0.0149	42.1846	-10.7376	4.2031	-0.6240	0.3791	-0.5854	-0.3523
7.48	-9.4771	-0.6379	0.2870	0.0097	0.0106	-0.0144	42.0944	-10.6803	4.1665	-0.6240	0.3791	-0.5854	-0.3523
7.49	-9.4881	-0.6371	0.2836	0.0048	0.0094	-0.0214	42.1538	-10.7326	4.3224	-0.6240	0.3791	-0.5855	-0.3523
7.5	-9.4838	-0.6370	0.2810	0.0036	0.0175	-0.0228	42.7968	-10.4571	4.5733	-0.6240	0.3791	-0.5855	-0.3522
7.51	-9.4954	-0.6328	0.2817	0.0049	0.0205	-0.0264	42.6397	-10.3976	4.4798	-0.6240	0.3791	-0.5856	-0.3522
7.52	-9.5039	-0.6430	0.2667	0.0087	0.0275	-0.0276	41.8983	-10.7097	4.3230	-0.6240	0.3791	-0.5856	-0.3521
7.53	-9.5147	-0.6489	0.2565	0.0067	0.0292	-0.0210	42.0542	-11.5229	4.0930	-0.6239	0.3792	-0.5857	-0.3520
7.54	-9.5185	-0.6537	0.2404	0.0109	0.0347	-0.0218	41.7076	-10.6577	4.1064	-0.6238	0.3792	-0.5859	-0.3519
7.55	-9.5283	-0.6336	0.2466	0.0113	0.0267	-0.0206	41.9699	-10.6137	4.1836	-0.6238	0.3792	-0.5860	-0.3518
7.56	-9.5743	-0.6418	0.2381	0.0098	0.0279	-0.0156	42.1739	-10.8243	3.8986	-0.6238	0.3792	-0.5861	-0.3517
7.57	-9.5489	-0.6318	0.2416	0.0141	0.0228	-0.0217	42.2484	-10.7069	4.2150	-0.6237	0.3792	-0.5861	-0.3516
7.58	-9.5515	-0.6374	0.2425	0.0150	0.0176	-0.0251	42.1888	-11.1350	4.2538	-0.6237	0.3791	-0.5862	-0.3515
7.59	-9.5558	-0.6420	0.2408	0.0151	0.0162	-0.0178	42.3425	-10.9980	4.2712	-0.6237	0.3791	-0.5863	-0.3515
7.6	-9.5502	-0.6162	0.2463	0.0114	0.0146	-0.0188	42.3928	-10.8074	4.0661	-0.6237	0.3791	-0.5863	-0.3514
7.61	-9.5388	-0.6005	0.2522	0.0052	0.0149	-0.0118	42.0463	-10.8610	4.1539	-0.6237	0.3790	-0.5864	-0.3514
7.62	-9.5209	-0.5862	0.2487	-0.0006	0.0093	-0.0165	42.0425	-10.8493	4.3919	-0.6237	0.3790	-0.5864	-0.3514
7.63	-9.5222	-0.5817	0.2434	-0.0076	0.0145	-0.0155	42.0491	-10.7323	4.0840	-0.6236	0.3791	-0.5865	-0.3514
7.64	-9.5190	-0.5906	0.2476	-0.0108	0.0115	-0.0152	42.0227	-10.8092	4.2140	-0.6236	0.3791	-0.5865	-0.3514
7.65	-9.5127	-0.6075	0.2386	-0.0141	0.0112	-0.0202	41.6137	-10.8362	4.2982	-0.6235	0.3791	-0.5865	-0.3514
7.66	-9.5011	-0.6381	0.2383	-0.0258	0.0185	-0.0270	42.0152	-10.5231	4.4612	-0.6235	0.3792	-0.5865	-0.3514
7.67	-9.5068	-0.6538	0.2276	-0.0216	0.0188	-0.0266	42.1184	-10.6406	4.3724	-0.6234	0.3793	-0.5865	-0.3514
7.68	-9.5061	-0.6736	0.2253	-0.0244	0.0279	-0.0234	41.8797	-10.6540	4.1492	-0.6233	0.3795	-0.5865	-0.3514
7.69	-9.5303	-0.6911	0.2252	-0.0143	0.0284	-0.0245	42.0672	-10.7763	4.1396	-0.6232	0.3796	-0.5865	-0.3514
7.7	-9.5475	-0.7055	0.2109	-0.0111	0.0249	-0.0203	42.0391	-10.6280	4.1702	-0.6231	0.3796	-0.5866	-0.3514
7.71	-9.5466	-0.7062	0.2134	-0.0104	0.0239	-0.0243	42.0409	-10.7525	4.3946	-0.6231	0.3797	-0.5866	-0.3514
7.72	-9.5595	-0.7035	0.2118	-0.0103	0.0213	-0.0134	42.0678	-10.6401	4.2592	-0.6230	0.3797	-0.5867	-0.3514
7.73	-9.5452	-0.6961	0.2165	0.0040	0.0234	-0.0137	41.9371	-10.5473	4.1367	-0.6229	0.3797	-0.5868	-0.3514
7.74	-9.5356	-0.6791	0.2150	0.0121	0.0211	-0.0099	41.9885	-10.7180	4.0462	-0.6229	0.3797	-0.5869	-0.3513
7.75	-9.5484	-0.6671	0.2107	0.0099	0.0157	-0.0087	42.2269	-10.8179	4.4070	-0.6229	0.3796	-0.5870	-0.3513
7.76	-9.5382	-0.6523	0.2133	0.0149	0.0178	-0.0090	42.2320	-11.1462	4.1528	-0.6228	0.3796	-0.5870	-0.3512
7.77	-9.5442	-0.6321	0.2103	0.0150	0.0226	-0.0130	42.1115	-10.9911	4.1766	-0.6228	0.3795	-0.5871	-0.3512
7.78	-9.5340	-0.6187	0.2067	0.0134	0.0204	-0.0094	42.0302	-10.9303	4.0999	-0.6228	0.3795	-0.5872	-0.3511
7.79	-9.5388	-0.6038	0.2124	0.0155	0.0206	-0.0110	42.2479	-11.1317	4.1307	-0.6227	0.3794	-0.5873	-0.3511
7.8	-9.5580	-0.6020	0.2039	0.0128	0.0175	-0.0120	42.1327	-11.0195	4.5120	-0.6227	0.3794	-0.5874	-0.3510
7.81	-9.5407	-0.5939	0.2087	0.0150	0.0168	-0.0148	41.9149	-10.9157	4.2438	-0.6227	0.3793	-0.5875	-0.3510
7.82	-9.5488	-0.5869	0.2031	0.0106	0.0207	-0.0169	42.1483	-10.9429	4.3230	-0.6227	0.3793	-0.5876	-0.3509
7.83	-9.5466	-0.5908	0.2035	0.0075	0.0159	-0.0171	42.0572	-10.9326	4.2772	-0.6227	0.3793	-0.5877	-0.3509
7.84	-9.5543	-0.5908	0.2018	0.0001	0.0153	-0.0196	42.0319	-10.8564	4.1441	-0.6226	0.3793	-0.5877	-0.3508
7.85	-9.5497	-0.5985	0.1996	-0.0050	0.0204	-0.0224	42.0591	-10.8134	4.2576	-0.6226	0.3793	-0.5877	-0.3508
7.86	-9.5413	-0.6024	0.2020	-0.0075	0.0154	-0.0254	42.0048	-10.7376	4.2886	-0.6225	0.3794	-0.5878	-0.3508
7.87	-9.5621	-0.6188	0.2004	-0.0035	0.0162	-0.0318	41.8368	-10.7704	4.3692	-0.6225	0.3794	-0.5878	-0.3507
7.88	-9.5485	-0.6272	0.1990	-0.0101	0.0104	-0.0354	41.9985	-10.7516	4.1995	-0.6225	0.3795	-0.5878	-0.3507
7.89	-9.5629	-0.6327	0.2076	-0.0083	0.0059	-0.0350	42.0481	-10.7632	4.4542	-0.6225	0.3796	-0.5877	-0.3506
7.9	-9.5605	-0.6415	0.2012	-0.0107	0.0094	-0.0352	42.0689	-10.7500	4.5784	-0.6225	0.3797	-0.5877	-0.3506
7.91	-9.5397	-0.6397	0.2051	-0.0126	0.0090	-0.0354	41.8581	-10.7633	4.2857	-0.6225	0.3797	-0.5877	-0.3506
7.92	-9.5444	-0.6493	0.2060	-0.0103	0.0036	-0.0345	41.6245	-10.8672	4.5145	-0.6225	0.3798	-0.5876	-0.3506
7.93	-9.5430	-0.6578	0.2139	-0.0097	0.0006	-0.0352	41.9827	-10.6616	4.4400	-0.6226	0.3799	-0.5876	-0.3505
7.94	-9.5318	-0.6650	0.2180	-0.0139	0.0054	-0.0353	42.4536	-11.0319	4.1851	-0.6226	0.3800	-0.5875	-0.3505
7.95	-9.5310	-0.6774	0.2188	-0.0116	0.0077	-0.0349	42.2566	-11.1000	4.5202	-0.6226	0.3800	-0.5875	-0.3505
7.96	-9.5203	-0.6935	0.2027	-0.0096	0.0079	-0.0350	42.1016	-10.8703	4.3237	-0.6226	0.3801	-0.5875	-0.3505
7.97	-9.5053	-0.7073	0.2150	-0.0129	0.0120	-0.0330	42.1541	-10.7616	4.2172	-0.6225	0.3802	-0.5875	-0.3504
7.98	-9.5271	-0.7181	0.2068	-0.0135	0.0064	-0.0272	42.0407	-10.8456	4.2501	-0.6225	0.3803	-0.5874	-0.3504
7.99	-9.5042	-0.7194	0.2160	-0.0118	0.0059	-0.0251	42.2525	-10.8367	4.3724	-0.6225	0.3803	-0.5874	-0.3504
8	-9.5242	-0.7293	0.2244	-0.0131	0.0031	-0.0208	42.7656	-10.5253	4.4539	-0.6225	0.3803	-0.5874	-0.3505
8.01	-9.5206	-0.7245	0.2135	-0.0074	0.0107	-0.0211	42.6663	-10.6233	4.4026	-0.6225	0.3804	-0.5874	-0.3505
8.02	-9.5092	-0.7315	0.2182	-0.0008	0.0158	-0.0152	42.2233	-10.9173	4.1675	-0.6224	0.3804	-0.5874	-0.3505
8.03	-9.5137	-0.7271	0.2194	-0.0066	0.0153	-0.0167	42.1948	-11.3592	4.2680	-0.6224	0.3804	-0.5875	-0.3505
8.04	-9.5227	-0.7213	0.2113	0.0025	0.0179	-0.0121	41.9970	-10.7699	4.2578	-0.6223	0.3804	-0.5875	-0.3505
8.05	-9.5199	-0.7072	0.2046	0.0048	0.0129	-0.0083	42.1308	-10.6582	4.0411	-0.6223	0.3803	-0.5876	-0.3505
8.06	-9.5175	-0.7017	0.2047	0.0104	0.0234	-0.0094	41.7560	-10.7392	4.1558	-0.6223	0.3803	-0.5877	-0.3504
8.07	-9.5245	-0.6838	0.1993	0.0102	0.0176	-0.0087	41.9296	-10.8180	4.3060	-0.6222	0.3802	-0.5878	-0.3504
8.08	-9.5157	-0.6742	0.1935	0.0106	0.0170	-0.0096	42.1864	-10.7086	4.2887	-0.6222	0.3802	-0.5879	-0.3504
8.09	-9.5286	-0.6661	0.1912	0.0151	0.0176	-0.0084	42.0616	-10.6937	4.1604	-0.6222	0.3801	-0.5880	-0.3503
8.1	-9.5172	-0.6567	0.1789	0.0159	0.0180	-0.0081	41.8884	-10.8279	4.1104	-0.6221	0.3801	-0.5881	-0.3503
8.11	-9.5244	-0.6396	0.1795	0.0168	0.0119	-0.0082	41.9804	-10.5554	4.4136	-0.6221	0.3800	-0.5881	-0.3502
8.12	-9.5471	-0.6391	0.1777	0.0176	0.0182	-0.0082	42.1719	-10.8139	4.2732	-0.6221	0.3799	-0.5882	-0.3502
8.13	-9.5382	-0.6303	0.1845	0.0249	0.0187	-0.0079	42.1584	-10.7496	4.1747	-0.6221	0.3798	-0.5884	-0.3501
8.14	-9.5704	-0.6128	0.1858	0.0201	0.0181	-0.0081	42.0974	-10.7418	4.1953	-0.6221	0.3797	-0.5885	-0.3501
8.15	-9.5505	-0.5987	0.1817	0.0228	0.0210	-0.0080	42.0942	-11.0153	4.1759	-0.6220	0.3796	-0.5886	-0.3500
8.16	-9.5216	-0.5736	0.1795	0.0168	0.0161	-0.0082	42.2678	-10.8473	4.3000	-0.6220	0.3796	-0.5887	-0.3499
8.17	-9.5354	-0.5770	0.1757	0.0243	0.0156	-0.0082	42.2258	-10.8928	4.1424	-0.6220	0.3795	-0.5888	-0.3499
8.18	-9.5330	-0.5812	0.1791	0.0291	0.0219	-0.0124	42.0408	-10.8634	4.2756	-0.6220	0.3794	-0.5889	-0.3498
8.19	-9.5176	-0.5819	0.1720	0.0194	0.0146	-0.0154	41.8497	-10.8950	4.2101	-0.6220	0.3793	-0.5890	-0.3497
8.2	-9.5823	-0.5810	0.1787	0.0155	0.0189	-0.0172	41.9996	-10.8548	4.1659	-0.6220	0.3793	-0.5891	-0.3496
8.21	-9.6279	-0.6022	0.1799	0.0152	0.0152	-0.0211	41.9462	-10.9231	4.3717	-0.6220	0.3792	-0.5892	-0.3496
8.22	-9.6211	-0.5982	0.1934	0.0162	0.0057	-0.0243	42.0271	-10.9852	4.3267	-0.6220	0.3792	-0.5892	-0.3495
8.23	-9.5963	-0.6182	0.1788	0.0150	0.0076	-0.0250	42.1656	-10.8838	4.1696	-0.6221	0.3791	-0.5892	-0.3494
8.24	-9.5231	-0.6084	0.1913	0.0148	-0.0062	-0.0231	42.1360	-10.8435	4.2009	-0.6221	0.3791	-0.5892	-0.3494
8.25	-9.5169	-0.5959	0.1952	0.0142	0.0089	-0.0182	42.1715	-10.6141	4.1831	-0.6222	0.3790	-0.5893	-0.3493
8.26	-9.5165	-0.5883	0.2000	0.0142	0.0078	-0.0192	42.0785	-10.5932	4.4900	-0.6222	0.3790	-0.5893	-0.3493
8.27	-9.4750	-0.5759	0.2012	0.0046	0.0069	-0.0202	41.9531	-10.7300	4.3335	-0.6222	0.3790	-0.5893	-0.3493
8.28	-9.4975	-0.5813	0.2087	-0.0038	0.0160	-0.0241	41.9848	-10.9194	4.2987	-0.6222	0.3790	-0.5893	-0.3492
8.29	-9.4987	-0.6012	0.1928	-0.0002	0.0103	-0.0240	42.1574	-10.8518	4.4106	-0.6221	0.3790	-0.5894	-0.3492
8.3	-9.5010	-0.6084	0.2080	-0.0026	0.0077	-0.0269	42.1299	-10.8987	4.3505	-0.6222	0.3790	-0.5894	-0.3492
8.31	-9.5203	-0.6344	0.2030	-0.0085	0.0176	-0.0271	42.1905	-10.7436	4.3979	-0.6221	0.3791	-0.5894	-0.3491
8.32	-9.4987	-0.6337	0.2117	-0.0128	0.0119	-0.0289	42.2099	-10.8512	4.1624	-0.6221	0.3791	-0.5894	-0.3491
8.33	-9.5080	-0.6414	0.2025	-0.0119	0.0158	-0.0297	42.1201	-10.8763	4.3333	-0.6221	0.3792	-0.5894	-0.3491
8.34	-9.5097	-0.6403	0.2060	-0.0137	0.0110	-0.0255	42.1684	-10.9731	4.5115	-0.6220	0.3793	-0.5894	-0.3491
8.35	-9.4985	-0.6423	0.2027	-0.0123	0.0151	-0.0182	42.0062	-10.7024	4.1589	-0.6220	0.3793	-0.5894	-0.3491
8.36	-9.5114	-0.6527	0.2097	-0.0201	0.0145	-0.0205	41.9436	-10.7545	4.0584	-0.6219	0.3794	-0.5894	-0.3491
8.37	-9.5292	-0.6570	0.1959	-0.0152	0.0196	-0.0216	42.0666	-10.8097	4.1944	-0.6218	0.3795	-0.5894	-0.3492
8.38	-9.5246	-0.6669	0.1963	-0.0235	0.0237	-0.0222	42.0507	-10.8696	4.1901	-0.6218	0.3796	-0.5894	-0.3492
8.39	-9.5516	-0.6751	0.1917	-0.0167	0.0201	-0.0156	42.2309	-10.9032	4.1875	-0.6217	0.3796	-0.5895	-0.3492
8.4	-9.5050	-0.6830	0.1813	-0.0212	0.0205	-0.0175	41.9270	-10.7953	4.2206	-0.6216	0.3797	-0.5895	-0.3492
8.41	-9.5032	-0.6594	0.1816	-0.0180	0.0290	-0.0151	41.7529	-10.7955	4.5145	-0.6215	0.3798	-0.5895	-0.3492
8.42	-9.5719	-0.6856	0.1775	-0.0269	0.0363	-0.0221	42.1790	-10.7648	4.4022	-0.6213	0.3799	-0.5896	-0.3493
8.43	-9.5668	-0.6833	0.1834	-0.0201	0.0219	-0.0192	42.0919	-10.8556	4.2223	-0.6212	0.3800	-0.5896	-0.3493
8.44	-9.5477	-0.6917	0.1836	-0.0191	0.0215	-0.0180	41.9831	-10.8681	4.3883	-0.6212	0.3801	-0.5897	-0.3493
8.45	-9.5487	-0.7117	0.1847	-0.0146	0.0163	-0.0213	41.8470	-11.0006	4.3723	-0.6211	0.3801	-0.5897	-0.3493
8.46	-9.5301	-0.6971	0.1866	-0.0082	0.0190	-0.0183	42.0637	-10.8996	4.3677	-0.6210	0.3802	-0.5897	-0.3493
8.47	-9.5205	-0.6794	0.1931	-0.0106	0.0205	-0.0092	42.0230	-10.9076	4.1641	-0.6210	0.3802	-0.5898	-0.3493
8.48	-9.5147	-0.6679	0.1929	-0.0072	0.0140	-0.0119	42.1926	-10.6769	4.2909	-0.6209	0.3802	-0.5898	-0.3494
8.49	-9.4949	-0.6539	0.2034	-0.0039	0.0106	-0.0100	42.1900	-10.5243	4.3758	-0.6209	0.3802	-0.5898	-0.3494
8.5	-9.4875	-0.6637	0.2002	-0.0015	0.0240	-0.0136	42.7593	-10.5993	4.5653	-0.6208	0.3802	-0.5899	-0.3494
8.51	-9.4920	-0.6757	0.2046	0.0032	0.0195	-0.0116	42.6148	-10.6884	4.4882	-0.6207	0.3802	-0.5900	-0.3494
8.52	-9.4949	-0.6883	0.1980	0.0016	0.0269	-0.0094	42.0256	-11.2642	4.5854	-0.6207	0.3802	-0.5901	-0.3493
8.53	-9.4902	-0.6827	0.2068	0.0068	0.0276	-0.0088	42.3910	-11.4979	4.4737	-0.6206	0.3801	-0.5902	-0.3493
8.54	-9.4929	-0.6856	0.1881	0.0036	0.0334	-0.0085	41.9093	-10.9659	4.4619	-0.6205	0.3801	-0.5903	-0.3493
8.55	-9.4962	-0.6619	0.2004	0.0097	0.0319	-0.0083	42.0747	-10.9051	4.5352	-0.6204	0.3801	-0.5905	-0.3492
8.56	-9.5001	-0.6672	0.1896	0.0057	0.0320	-0.0091	42.0399	-10.8282	4.2761	-0.6203	0.3801	-0.5906	-0.3492
8.57	-9.4592	-0.6245	0.2054	0.0077	0.0352	-0.0092	42.0610	-10.8595	4.5048	-0.6202	0.3801	-0.5907	-0.3491
8.58	-9.4802	-0.6267	0.1868	0.0036	0.0369	-0.0086	42.0407	-11.0324	4.5184	-0.6201	0.3801	-0.5908	-0.3491
8.59	-9.4551	-0.5989	0.1898	0.0043	0.0438	-0.0069	42.0670	-10.9190	4.4823	-0.6200	0.3801	-0.5910	-0.3490
8.6	-9.4987	-0.5710	0.1984	-0.0103	0.0429	-0.0095	41.9020	-10.6687	4.6909	-0.6199	0.3802	-0.5911	-0.3490
8.61	-9.5564	-0.5766	0.2102	-0.0122	0.0437	-0.0100	42.0774	-10.8861	4.7832	-0.6197	0.3802	-0.5913	-0.3490
8.62	-9.5591	-0.5630	0.2221	-0.0142	0.0403	-0.0111	41.8836	-10.9496	4.5447	-0.6196	0.3803	-0.5914	-0.3490
8.63	-9.5660	-0.5704	0.2411	-0.0327	0.0365	-0.0077	41.6676	-10.8082	4.7540	-0.6194	0.3804	-0.5914	-0.3491
8.64	-9.5878	-0.5817	0.2764	-0.0347	0.0254	-0.0155	41.8393	-10.8558	4.5878	-0.6193	0.3805	-0.5915	-0.3491
8.65	-9.5714	-0.5934	0.3220	-0.0395	0.0128	-0.0156	41.9707	-10.8128	4.4466	-0.6192	0.3806	-0.5914	-0.3492
8.66	-9.5537	-0.6151	0.3696	-0.0377	0.0108	-0.0139	41.8576	-10.9474	4.7178	-0.6191	0.3807	-0.5914	-0.3493
8.67	-9.5064	-0.6631	0.4113	-0.0362	-0.0056	-0.0130	41.9046	-10.7813	4.8048	-0.6190	0.3808	-0.5913	-0.3495
8.68	-9.4531	-0.6951	0.4527	-0.0366	-0.0077	-0.0175	41.9881	-10.9256	4.5406	-0.6190	0.3809	-0.5913	-0.3496
8.69	-9.3626	-0.7543	0.4636	-0.0359	0.0094	-0.0250	42.2695	-10.8789	4.4956	-0.6189	0.3810	-0.5912	-0.3497
8.7	-9.2674	-0.7891	0.4762	-0.0156	0.0228	-0.0278	41.9756	-11.2808	4.5130	-0.6188	0.3811	-0.5912	-0.3497
8.71	-9.1922	-0.7823	0.4657	-0.0100	0.0336	-0.0341	41.8909	-11.1869	4.5421	-0.6188	0.3812	-0.5913	-0.3496
8.72	-9.1445	-0.7972	0.4387	0.0019	0.0485	-0.0288	42.1939	-10.8664	4.6350	-0.6187	0.3813	-0.5914	-0.3495
8.73	-9.1330	-0.7747	0.4369	0.0160	0.0816	-0.0231	42.0311	-11.0272	4.5698	-0.6185	0.3814	-0.5916	-0.3493
8.74	-9.1387	-0.7843	0.3910	0.0134	0.1084	-0.0174	42.0502	-11.1312	4.6470	-0.6182	0.3815	-0.5920	-0.3491
8.75	-9.1300	-0.7747	0.3702	0.0304	0.1302	-0.0063	41.8952	-10.8542	4.5060	-0.6179	0.3816	-0.5924	-0.3488
8.76	-9.2008	-0.7621	0.3259	0.0413	0.1503	0.0009	41.7979	-10.9474	4.6206	-0.6175	0.3816	-0.5930	-0.3485
8.77	-9.1453	-0.7196	0.2806	0.0382	0.1640	0.0181	41.7594	-11.2567	5.0533	-0.6171	0.3817	-0.5936	-0.3481
8.78	-9.1636	-0.6622	0.2385	0.0391	0.2001	0.0180	41.9505	-10.8516	4.7653	-0.6165	0.3817	-0.5943	-0.3478
8.79	-9.2009	-0.6375	0.1508	0.0379	0.2312	0.0201	41.7143	-10.8881	5.0698	-0.6158	0.3819	-0.5952	-0.3474
8.8	-9.2354	-0.5965	0.0969	0.0388	0.2520	0.0209	41.6992	-10.9497	4.9470	-0.6151	0.3821	-0.5961	-0.3469
8.81	-9.3465	-0.5762	0.0195	0.0402	0.2670	0.0213	41.6651	-10.7930	5.0094	-0.6143	0.3823	-0.5970	-0.3464
8.82	-9.4436	-0.5866	-0.0309	0.0392	0.2791	0.0214	41.6273	-11.0400	5.3423	-0.6135	0.3825	-0.5980	-0.3459
8.83	-9.5264	-0.6193	-0.1107	0.0393	0.2896	0.0206	41.7208	-10.9014	5.1538	-0.6127	0.3827	-0.5991	-0.3453
8.84	-9.5607	-0.6491	-0.1690	0.0398	0.2927	0.0101	41.7678	-11.0386	5.5188	-0.6119	0.3830	-0.6001	-0.3448
8.85	-9.6189	-0.6842	-0.2175	0.0426	0.2916	0.0077	41.8035	-11.0707	5.3200	-0.6110	0.3833	-0.6011	-0.3442
8.86	-9.6824	-0.7373	-0.2758	0.0511	0.2798	0.0061	41.7620	-11.0171	5.4935	-0.6103	0.3835	-0.6021	-0.3436
8.87	-9.7294	-0.7580	-0.3060	0.0621	0.2742	0.0094	41.8056	-11.2120	5.8324	-0.6095	0.3837	-0.6031	-0.3429
8.88	-9.7372	-0.7890	-0.3538	0.0810	0.2656	0.0131	41.8468	-11.1570	5.8118	-0.6088	0.3838	-0.6041	-0.3423
8.89	-9.7399	-0.8039	-0.3700	0.0915	0.2435	0.0089	41.8005	-11.3526	5.9016	-0.6082	0.3838	-0.6050	-0.3416
8.9	-9.7769	-0.8250	-0.4005	0.1115	0.2299	0.0098	41.9190	-11.3403	5.7314	-0.6077	0.3838	-0.6059	-0.3410
8.91	-9.7573	-0.8332	-0.4106	0.1308	0.2122	0.0099	41.6762	-11.3917	6.0359	-0.6073	0.3836	-0.6069	-0.3403
8.92	-9.7239	-0.8500	-0.4382	0.1540	0.2053	0.0087	41.6776	-11.0463	6.1931	-0.6069	0.3834	-0.6078	-0.3395
8.93	-9.6934	-0.8427	-0.4530	0.1713	0.1949	0.0095	41.5758	-11.0726	6.1694	-0.6066	0.3831	-0.6087	-0.3387
8.94	-9.6690	-0.8013	-0.4801	0.1910	0.1783	0.0123	41.6308	-11.3085	6.4841	-0.6064	0.3827	-0.6096	-0.3379
8.95	-9.6426	-0.7249	-0.4826	0.2141	0.1689	0.0165	41.4811	-11.1424	6.3073	-0.6062	0.3822	-0.6106	-0.3370
8.96	-9.6090	-0.6393	-0.5270	0.2190	0.1724	0.0202	41.6949	-11.3343	6.5798	-0.6061	0.3817	-0.6115	-0.3361
8.97	-9.5495	-0.5507	-0.5334	0.2240	0.1671	0.0268	41.6510	-11.1157	6.6229	-0.6059	0.3812	-0.6125	-0.3353
8.98	-9.6414	-0.5155	-0.5324	0.2165	0.1637	0.0251	41.4105	-11.0501	6.8024	-0.6058	0.3806	-0.6134	-0.3344
8.99	-9.6884	-0.4220	-0.5294	0.2165	0.1557	0.0235	41.6479	-11.2447	7.0590	-0.6056	0.3801	-0.6143	-0.3336
9	-9.6853	-0.3294	-0.5216	0.1989	0.1461	0.0235	42.1101	-10.8620	6.7756	-0.6055	0.3796	-0.6152	-0.3329
9.01	-9.6600	-0.2788	-0.5413	0.1794	0.1457	0.0252	41.8777	-11.0781	6.9350	-0.6054	0.3791	-0.6160	-0.3322
9.02	-9.6127	-0.2595	-0.5467	0.1500	0.1313	0.0294	41.5536	-11.5326	6.9252	-0.6052	0.3787	-0.6168	-0.3316
9.03	-9.5895	-0.2481	-0.5871	0.1213	0.1317	0.0318	41.4668	-12.0225	6.8803	-0.6049	0.3784	-0.6174	-0.3311
9.04	-9.5950	-0.2274	-0.5791	0.1120	0.1317	0.0376	41.3374	-11.4018	7.2038	-0.6047	0.3780	-0.6181	-0.3307
9.05	-9.6989	-0.2472	-0.5894	0.0777	0.1275	0.0398	41.5589	-11.2212	7.0022	-0.6044	0.3778	-0.6188	-0.3304
9.06	-9.7531	-0.2818	-0.5708	0.0513	0.1134	0.0419	41.5049	-11.3266	7.2059	-0.6040	0.3776	-0.6193	-0.3302
9.07	-9.7473	-0.3515	-0.5602	0.0382	0.0953	0.0428	41.5057	-11.0954	7.1987	-0.6037	0.3774	-0.6198	-0.3301
9.08	-9.6695	-0.4034	-0.5720	0.0257	0.0758	0.0434	41.3235	-11.1559	7.0385	-0.6034	0.3773	-0.6202	-0.3300
9.09	-9.6133	-0.4468	-0.5896	0.0148	0.0728	0.0495	41.3507	-11.5086	7.1164	-0.6031	0.3771	-0.6205	-0.3301
9.1	-9.5442	-0.4532	-0.6017	0.0150	0.0658	0.0546	41.3211	-11.4200	7.4777	-0.6029	0.3769	-0.6209	-0.3301
9.11	-9.5495	-0.4290	-0.5859	0.0154	0.0660	0.0573	41.1871	-11.3574	7.4147	-0.6026	0.3767	-0.6212	-0.3302
9.12	-9.6074	-0.3933	-0.5887	0.0179	0.0661	0.0658	41.4491	-11.3751	7.1933	-0.6023	0.3765	-0.6216	-0.3303
9.13	-9.6007	-0.3276	-0.5734	0.0148	0.0642	0.0684	41.4070	-11.4743	7.4549	-0.6020	0.3763	-0.6220	-0.3304
9.14	-9.5578	-0.2848	-0.5868	0.0150	0.0590	0.0723	41.3258	-11.6037	7.4314	-0.6017	0.3760	-0.6224	-0.3305
9.15	-9.4941	-0.2326	-0.5906	0.0161	0.0662	0.0695	41.2969	-11.6678	7.3432	-0.6014	0.3758	-0.6227	-0.3306
9.16	-9.5075	-0.1997	-0.5979	0.0010	0.0688	0.0624	41.1202	-11.5299	7.3328	-0.6011	0.3756	-0.6231	-0.3307
9.17	-9.5455	-0.1711	-0.6032	-0.0139	0.0729	0.0658	41.2031	-11.4561	7.4108	-0.6007	0.3755	-0.6235	-0.3309
9.18	-9.5179	-0.1242	-0.6059	-0.0139	0.0782	0.0634	41.2630	-11.6334	7.5172	-0.6003	0.3754	-0.6238	-0.3310
9.19	-9.4892	-0.0675	-0.6106	-0.0323	0.0779	0.0626	41.2360	-11.6314	7.6791	-0.5999	0.3753	-0.6241	-0.3312
9.2	-9.5499	-0.0544	-0.6202	-0.0466	0.0852	0.0593	41.3549	-11.7327	7.3436	-0.5994	0.3753	-0.6245	-0.3314
9.21	-9.5996	-0.0652	-0.6228	-0.0640	0.0785	0.0494	41.1805	-11.7360	7.3730	-0.5990	0.3754	-0.6247	-0.3317
9.22	-9.6084	-0.0573	-0.6237	-0.0703	0.0678	0.0421	41.1451	-11.9184	7.7174	-0.5985	0.3755	-0.6249	-0.3320
9.23	-9.6377	-0.0695	-0.6075	-0.0819	0.0569	0.0373	41.1754	-11.8091	7.6143	-0.5981	0.3756	-0.6251	-0.3323
9.24	-9.6787	-0.0737	-0.5746	-0.0899	0.0438	0.0340	41.0167	-11.7005	7.5964	-0.5978	0.3758	-0.6251	-0.3327
9.25	-9.6746	-0.0729	-0.5539	-0.0876	0.0304	0.0230	41.1707	-11.9259	7.6270	-0.5974	0.3759	-0.6252	-0.3330
9.26	-9.6109	-0.0972	-0.5307	-0.0959	0.0214	0.0178	41.3024	-12.1253	7.5999	-0.5971	0.3761	-0.6251	-0.3334
9.27	-9.5712	-0.1707	-0.5152	-0.0915	0.0222	-0.0070	41.0942	-12.3998	7.6559	-0.5969	0.3764	-0.6251	-0.3337
9.28	-9.5276	-0.2673	-0.5116	-0.0905	0.0186	-0.0115	41.0912	-12.3851	7.5593	-0.5967	0.3766	-0.6250	-0.3340
9.29	-9.4460	-0.3481	-0.4931	-0.0711	0.0242	-0.0228	40.9755	-11.9120	7.5701	-0.5965	0.3769	-0.6249	-0.3342
9.3	-9.3657	-0.4219	-0.4990	-0.0461	0.0295	-0.0338	41.0637	-11.8726	7.6373	-0.5963	0.3771	-0.6249	-0.3342
9.31	-9.3001	-0.4740	-0.4984	-0.0186	0.0390	-0.0368	41.2689	-12.1512	7.4932	-0.5962	0.3772	-0.6249	-0.3342
9.32	-9.2303	-0.4994	-0.5091	0.0123	0.0536	-0.0429	41.1095	-11.9669	7.7129	-0.5961	0.3773	-0.6250	-0.3340
9.33	-9.2415	-0.5037	-0.4936	0.0349	0.0768	-0.0448	41.1854	-12.1361	7.6869	-0.5960	0.3774	-0.6253	-0.3337
9.34	-9.3178	-0.5013	-0.5088	0.0665	0.1008	-0.0529	41.1273	-12.1732	7.8320	-0.5959	0.3775	-0.6256	-0.3332
9.35	-9.3011	-0.4582	-0.5141	0.0881	0.1193	-0.0479	41.1935	-12.1652	7.7651	-0.5958	0.3775	-0.6260	-0.3326
9.36	-9.3370	-0.4162	-0.5432	0.1089	0.1372	-0.0402	41.0549	-11.9259	7.6784	-0.5956	0.3774	-0.6266	-0.3320
9.37	-9.2874	-0.3866	-0.5936	0.1155	0.1506	-0.0416	40.8358	-11.9008	7.7767	-0.5954	0.3774	-0.6271	-0.3313
9.38	-9.2537	-0.3365	-0.6381	0.1202	0.1723	-0.0352	41.1511	-11.8720	7.9399	-0.5952	0.3774	-0.6278	-0.3305
9.39	-9.3546	-0.3090	-0.6935	0.1219	0.1887	-0.0375	40.8054	-11.8280	7.9586	-0.5948	0.3773	-0.6285	-0.3298
9.4	-9.4943	-0.3121	-0.7143	0.1167	0.2066	-0.0287	40.9225	-11.9390	8.0719	-0.5945	0.3773	-0.6293	-0.3290
9.41	-9.5921	-0.2890	-0.7358	0.1277	0.2064	-0.0314	41.1005	-11.7891	8.0454	-0.5941	0.3773	-0.6301	-0.3282
9.42	-9.6936	-0.2264	-0.7584	0.1445	0.2048	-0.0291	40.9396	-11.9221	8.1395	-0.5937	0.3772	-0.6309	-0.3273
9.43	-9.7093	-0.2008	-0.8134	0.1351	0.2011	-0.0234	40.8138	-11.7216	8.2717	-0.5934	0.3772	-0.6317	-0.3265
9.44	-9.6389	-0.1693	-0.8497	0.1386	0.1833	-0.0104	40.8587	-12.0235	8.3422	-0.5931	0.3770	-0.6325	-0.3257
9.45	-9.5700	-0.1457	-0.8891	0.1334	0.1862	-0.0132	41.0184	-11.8398	8.2335	-0.5927	0.3769	-0.6333	-0.3250
9.46	-9.5139	-0.1080	-0.9027	0.1276	0.1771	-0.0149	40.6555	-11.9975	8.3234	-0.5924	0.3767	-0.6340	-0.3243
9.47	-9.4440	-0.0667	-0.9255	0.1212	0.1770	-0.0151	40.8738	-12.0561	8.7694	-0.5921	0.3766	-0.6347	-0.3236
9.48	-9.4856	-0.0510	-0.9228	0.1178	0.1775	-0.0108	40.8071	-11.8600	8.6635	-0.5918	0.3765	-0.6354	-0.3229
9.49	-9.4523	-0.0377	-0.9653	0.1165	0.1744	-0.0251	41.0298	-11.6897	8.9043	-0.5915	0.3764	-0.6361	-0.3222
9.5	-9.4096	-0.0107	-0.9428	0.1066	0.1723	-0.0302	41.6127	-11.5602	8.9874	-0.5912	0.3764	-0.6368	-0.3215
9.51	-9.4568	-0.0367	-0.9706	0.0927	0.1721	-0.0292	41.2848	-11.6898	9.1798	-0.5908	0.3764	-0.6374	-0.3208
9.52	-9.4538	-0.0658	-0.9777	0.0814	0.1725	-0.0367	40.7077	-12.0044	9.0736	-0.5905	0.3765	-0.6380	-0.3202
9.53	-9.4523	-0.0903	-0.9960	0.0669	0.1687	-0.0491	40.6405	-12.6748	8.9518	-0.5901	0.3766	-0.6386	-0.3196
9.54	-9.4815	-0.1529	-1.0078	0.0600	0.1707	-0.0672	40.3698	-11.7399	9.0899	-0.5898	0.3768	-0.6391	-0.3190
9.55	-9.4241	-0.2334	-1.0621	0.0427	0.1773	-0.0758	40.6932	-11.4393	9.3002	-0.5894	0.3771	-0.6396	-0.3183
9.56	-9.3986	-0.3019	-1.1171	0.0404	0.1776	-0.0826	40.5143	-11.6711	9.4052	-0.5890	0.3775	-0.6400	-0.3177
9.57	-9.5022	-0.3753	-1.1606	0.0386	0.1823	-0.0915	40.7661	-11.5357	9.2348	-0.5887	0.3778	-0.6405	-0.3170
9.58	-9.5993	-0.4360	-1.1906	0.0409	0.1863	-0.1017	40.6040	-11.4908	9.1541	-0.5883	0.3782	-0.6409	-0.3163
9.59	-9.6788	-0.4642	-1.2194	0.0391	0.1830	-0.0979	40.4228	-11.6428	9.4552	-0.5879	0.3787	-0.6414	-0.3156
9.6	-9.7599	-0.4670	-1.2229	0.0402	0.1778	-0.0936	40.5232	-11.4142	9.4245	-0.5876	0.3790	-0.6418	-0.3149
9.61	-9.8671	-0.4802	-1.2245	0.0429	0.1545	-0.0830	40.3601	-11.3524	9.4500	-0.5872	0.3793	-0.6422	-0.3143
9.62	-9.8278	-0.4904	-1.2177	0.0410	0.1311	-0.0759	40.5424	-11.5389	9.4032	-0.5870	0.3796	-0.6426	-0.3138
9.63	-9.7714	-0.5042	-1.2239	0.0436	0.1208	-0.0721	40.7734	-11.6054	9.4004	-0.5868	0.3798	-0.6429	-0.3132
9.64	-9.6731	-0.5095	-1.2704	0.0394	0.1014	-0.0581	40.7343	-11.5962	9.8169	-0.5866	0.3800	-0.6432	-0.3128
9.65	-9.5950	-0.5103	-1.2471	0.0445	0.0839	-0.0608	40.6826	-11.6123	9.6770	-0.5865	0.3801	-0.6434	-0.3124
9.66	-9.6043	-0.5071	-1.2632	0.0460	0.0781	-0.0475	40.6183	-11.5116	9.5613	-0.5864	0.3801	-0.6436	-0.3120
9.67	-9.5169	-0.4406	-1.2461	0.0419	0.0720	-0.0351	40.6839	-11.3916	9.8319	-0.5863	0.3801	-0.6439	-0.3117
9.68	-9.4900	-0.3791	-1.2338	0.0478	0.0708	-0.0225	40.6002	-11.4595	9.8402	-0.5862	0.3801	-0.6441	-0.3114
9.69	-9.4899	-0.3644	-1.2486	0.0432	0.0748	-0.0140	40.7845	-11.3218	9.9264	-0.5861	0.3801	-0.6444	-0.3111
9.7	-9.4790	-0.3441	-1.2373	0.0415	0.0771	-0.0125	40.5742	-11.3547	9.9568	-0.5859	0.3800	-0.6447	-0.3109
9.71	-9.5134	-0.3129	-1.2400	0.0377	0.0738	-0.0120	40.6572	-11.2913	9.7678	-0.5857	0.3800	-0.6450	-0.3107
9.72	-9.5792	-0.2870	-1.2400	0.0401	0.0759	-0.0095	40.6852	-11.2332	10.0137	-0.5856	0.3799	-0.6453	-0.3104
9.73	-9.6273	-0.2632	-1.2534	0.0395	0.0721	-0.0078	40.3064	-11.2523	10.0360	-0.5854	0.3798	-0.6456	-0.3102
9.74	-9.6462	-0.2229	-1.2381	0.0359	0.0600	-0.0078	40.6695	-11.1474	9.8021	-0.5853	0.3798	-0.6458	-0.3100
9.75	-9.6164	-0.2000	-1.2711	0.0172	0.0616	-0.0082	40.5991	-11.1356	10.0350	-0.5851	0.3797	-0.6461	-0.3099
9.76	-9.5101	-0.1441	-1.2811	0.0127	0.0500	-0.0080	40.5241	-10.9702	10.0006	-0.5850	0.3797	-0.6463	-0.3098
9.77	-9.5452	-0.1021	-1.2724	0.0007	0.0455	-0.0103	40.8000	-10.9807	10.2303	-0.5848	0.3797	-0.6464	-0.3097
9.78	-9.6139	-0.0989	-1.2782	-0.0158	0.0466	-0.0169	40.4084	-11.1248	10.2084	-0.5847	0.3798	-0.6465	-0.3097
9.79	-9.6568	-0.0884	-1.2504	-0.0317	0.0326	-0.0293	40.6600	-11.1733	10.2029	-0.5845	0.3800	-0.6465	-0.3097
9.8	-9.6733	-0.0948	-1.2480	-0.0456	0.0251	-0.0357	40.4687	-11.1347	10.2297	-0.5844	0.3802	-0.6465	-0.3098
9.81	-9.6556	-0.1158	-1.2367	-0.0688	0.0134	-0.0354	40.5012	-11.3976	10.1777	-0.5843	0.3804	-0.6464	-0.3099
9.82	-9.6009	-0.1532	-1.2477	-0.0857	-0.0008	-0.0386	40.3746	-11.4178	10.1440	-0.5842	0.3807	-0.6462	-0.3101
9.83	-9.5187	-0.1836	-1.2188	-0.0955	-0.0170	-0.0489	40.5774	-11.4752	10.2773	-0.5841	0.3810	-0.6460	-0.3104
9.84	-9.4655	-0.2227	-1.2166	-0.1073	-0.0246	-0.0470	40.7924	-11.6322	9.9931	-0.5840	0.3813	-0.6457	-0.3107
9.85	-9.3789	-0.2515	-1.2019	-0.1170	-0.0336	-0.0495	40.5800	-11.5518	10.0743	-0.5840	0.3817	-0.6454	-0.3111
9.86	-9.3580	-0.2754	-1.1745	-0.1236	-0.0381	-0.0504	40.7174	-11.3257	10.1608	-0.5839	0.3821	-0.6450	-0.3114
9.87	-9.3281	-0.3252	-1.1678	-0.1217	-0.0438	-0.0520	40.5076	-11.6535	10.0314	-0.5839	0.3824	-0.6446	-0.3118
9.88	-9.2478	-0.3657	-1.1538	-0.1137	-0.0278	-0.0580	40.6308	-11.5299	9.9361	-0.5839	0.3828	-0.6443	-0.3122
9.89	-9.2267	-0.4316	-1.1682	-0.1151	-0.0213	-0.0654	40.7110	-11.4452	10.0853	-0.5838	0.3833	-0.6439	-0.3125
9.9	-9.2089	-0.4745	-1.1990	-0.1133	-0.0051	-0.0698	40.4164	-11.4933	9.9429	-0.5837	0.3837	-0.6436	-0.3127
9.91	-9.2364	-0.5090	-1.2501	-0.1009	0.0177	-0.0790	40.5899	-11.2219	9.9237	-0.5836	0.3842	-0.6434	-0.3128
9.92	-9.3130	-0.5398	-1.3222	-0.0901	0.0331	-0.0868	40.5498	-11.2303	10.2006	-0.5834	0.3847	-0.6432	-0.3129
9.93	-9.3557	-0.5681	-1.3687	-0.0724	0.0380	-0.0831	40.3807	-11.1360	10.1817	-0.5833	0.3852	-0.6431	-0.3129
9.94	-9.5070	-0.6042	-1.3994	-0.0584	0.0379	-0.0912	40.4578	-11.1634	9.9980	-0.5832	0.3856	-0.6430	-0.3128
9.95	-9.6209	-0.6141	-1.4421	-0.0609	0.0270	-0.0964	40.5803	-11.1758	10.0530	-0.5831	0.3860	-0.6428	-0.3127
9.96	-9.6472	-0.6063	-1.4472	-0.0519	0.0176	-0.0972	40.4241	-10.9672	10.2674	-0.5831	0.3864	-0.6426	-0.3126
9.97	-9.6961	-0.5608	-1.4542	-0.0601	-0.0005	-0.1086	40.5669	-11.1105	10.1207	-0.5831	0.3869	-0.6424	-0.3126
9.98	-9.7346	-0.5319	-1.4227	-0.0609	-0.0216	-0.0967	40.4769	-11.2515	10.1152	-0.5832	0.3872	-0.6420	-0.3126
9.99	-9.6987	-0.5138	-1.4249	-0.0729	-0.0361	-0.0917	40.6803	-11.2857	10.1307	-0.5833	0.3876	-0.6417	-0.3127
10	-9.6315	-0.4594	-1.4049	-0.0829	-0.0508	-0.0921	41.3615	-11.1000	10.1105	-0.5834	0.3880	-0.6413	-0.3128
10.01	-9.6252	-0.4705	-1.3996	-0.1045	-0.0577	-0.0900	41.2549	-11.0881	10.2562	-0.5835	0.3884	-0.6408	-0.3131
10.02	-9.6424	-0.4821	-1.3956	-0.1330	-0.0552	-0.0950	40.6725	-11.5222	10.2383	-0.5836	0.3889	-0.6403	-0.3134
10.03	-9.7026	-0.4777	-1.3783	-0.1584	-0.0622	-0.0915	40.6741	-11.9307	9.9454	-0.5836	0.3895	-0.6397	-0.3138
10.04	-9.7874	-0.4746	-1.3587	-0.1763	-0.0771	-0.0946	40.6135	-10.9783	10.0819	-0.5837	0.3901	-0.6391	-0.3143
10.05	-9.8021	-0.5172	-1.3392	-0.2059	-0.0944	-0.0898	40.6092	-10.9867	10.0118	-0.5837	0.3907	-0.6383	-0.3149
10.06	-9.7218	-0.5530	-1.3132	-0.2331	-0.1206	-0.0861	40.6642	-10.9127	9.8436	-0.5837	0.3914	-0.6375	-0.3157
10.07	-9.7129	-0.5786	-1.2550	-0.2598	-0.1463	-0.0844	40.5177	-10.8295	9.6279	-0.5838	0.3921	-0.6365	-0.3166
10.08	-9.6879	-0.6599	-1.2291	-0.2831	-0.1660	-0.0765	40.6963	-11.0622	9.6089	-0.5839	0.3928	-0.6355	-0.3177
10.09	-9.5974	-0.7476	-1.1672	-0.3044	-0.1759	-0.0770	40.6943	-10.8903	9.6455	-0.5840	0.3936	-0.6344	-0.3188
10.1	-9.5413	-0.8582	-1.1551	-0.3053	-0.1772	-0.0680	40.5402	-10.9744	9.4326	-0.5840	0.3943	-0.6333	-0.3200
10.11	-9.4516	-0.9596	-1.1330	-0.2923	-0.1779	-0.0625	40.9882	-11.0338	9.1106	-0.5841	0.3950	-0.6322	-0.3212
10.12	-9.3798	-1.0028	-1.1197	-0.2739	-0.1719	-0.0467	40.6910	-11.0099	9.2748	-0.5841	0.3956	-0.6312	-0.3223
10.13	-9.3093	-1.0089	-1.1015	-0.2550	-0.1644	-0.0362	40.5028	-11.0296	9.2310	-0.5842	0.3961	-0.6302	-0.3234
10.14	-9.3407	-1.0386	-1.0640	-0.2293	-0.1533	-0.0227	40.8723	-10.9999	9.1365	-0.5843	0.3965	-0.6294	-0.3245
10.15	-9.3985	-1.0821	-1.0513	-0.1997	-0.1449	-0.0133	40.8305	-10.8210	9.1786	-0.5843	0.3968	-0.6287	-0.3254
10.16	-9.3910	-1.0835	-1.0141	-0.1672	-0.1343	-0.0032	40.7843	-10.9478	9.0662	-0.5844	0.3970	-0.6280	-0.3263
10.17	-9.4420	-1.0682	-1.0093	-0.1273	-0.1320	0.0063	40.8051	-11.0293	8.8097	-0.5845	0.3971	-0.6275	-0.3270
10.18	-9.4749	-1.0572	-0.9928	-0.0990	-0.1370	0.0070	41.0050	-10.8645	8.7964	-0.5847	0.3971	-0.6269	-0.3277
10.19	-9.4827	-1.0179	-0.9683	-0.0634	-0.1463	0.0127	41.1712	-11.1100	8.7775	-0.5850	0.3969	-0.6265	-0.3283
10.2	-9.5584	-0.9616	-0.9334	-0.0249	-0.1479	0.0111	41.1519	-11.2014	8.8412	-0.5854	0.3966	-0.6260	-0.3288
10.21	-9.6120	-0.9198	-0.9295	0.0159	-0.1534	0.0176	41.1376	-11.3532	8.5560	-0.5858	0.3962	-0.6257	-0.3292
10.22	-9.4899	-0.8335	-0.9164	0.0509	-0.1571	0.0293	40.7212	-11.3444	8.3763	-0.5864	0.3956	-0.6254	-0.3295
10.23	-9.4287	-0.7442	-0.9069	0.0895	-0.1411	0.0336	40.6869	-11.1592	8.5309	-0.5869	0.3950	-0.6252	-0.3297
10.24	-9.3871	-0.6935	-0.9259	0.1124	-0.1289	0.0383	40.9529	-11.3552	8.5453	-0.5874	0.3942	-0.6251	-0.3298
10.25	-9.3774	-0.6491	-0.9373	0.1304	-0.1163	0.0315	40.9792	-11.3430	8.4485	-0.5880	0.3935	-0.6251	-0.3298
10.26	-9.4328	-0.5936	-0.9703	0.1576	-0.1001	0.0177	40.9707	-11.2042	8.5035	-0.5886	0.3927	-0.6251	-0.3296
10.27	-9.5549	-0.5240	-0.9790	0.1685	-0.0837	0.0135	40.9864	-11.0936	8.5207	-0.5891	0.3919	-0.6252	-0.3293
10.28	-9.6324	-0.4621	-1.0016	0.1894	-0.0758	0.0056	40.8263	-11.0055	8.4021	-0.5897	0.3911	-0.6253	-0.3290
10.29	-9.6963	-0.3853	-0.9878	0.1990	-0.0871	0.0002	40.9984	-11.2640	8.4223	-0.5903	0.3903	-0.6254	-0.3286
10.3	-9.7710	-0.3516	-0.9872	0.2057	-0.0966	0.0052	40.8576	-11.3210	8.5309	-0.5910	0.3895	-0.6255	-0.3282
10.31	-9.7860	-0.3085	-0.9637	0.2175	-0.1103	-0.0004	40.9409	-11.0329	8.4995	-0.5918	0.3886	-0.6256	-0.3278
10.32	-9.7058	-0.2568	-0.9586	0.2165	-0.1267	-0.0027	41.0754	-11.2263	8.4086	-0.5926	0.3876	-0.6256	-0.3275
10.33	-9.6131	-0.2035	-0.9435	0.2211	-0.1299	-0.0013	40.8656	-11.3214	8.4370	-0.5934	0.3867	-0.6256	-0.3271
10.34	-9.5557	-0.1470	-0.9664	0.2173	-0.1444	-0.0079	40.8822	-11.1817	8.4384	-0.5942	0.3857	-0.6256	-0.3267
10.35	-9.5531	-0.0978	-0.9159	0.2036	-0.1572	-0.0135	40.9196	-11.3190	8.3977	-0.5951	0.3848	-0.6254	-0.3264
10.36	-9.6314	-0.0965	-0.9077	0.1857	-0.1609	-0.0302	41.1833	-10.8736	8.1061	-0.5960	0.3840	-0.6253	-0.3261
10.37	-9.5708	-0.0948	-0.8544	0.1637	-0.1730	-0.0347	41.1264	-11.2027	8.2654	-0.5969	0.3832	-0.6250	-0.3259
10.38	-9.6080	-0.0744	-0.7836	0.1439	-0.1908	-0.0398	41.2859	-11.2991	8.1296	-0.5978	0.3825	-0.6246	-0.3258
10.39	-9.5982	-0.0903	-0.7531	0.1203	-0.1987	-0.0394	41.1758	-11.0013	8.0260	-0.5987	0.3819	-0.6242	-0.3257
10.4	-9.4431	-0.0874	-0.7181	0.0900	-0.2057	-0.0362	40.9299	-11.0876	8.0963	-0.5996	0.3813	-0.6237	-0.3258
10.41	-9.3572	-0.0695	-0.7161	0.0569	-0.2133	-0.0389	41.1080	-11.2282	7.9354	-0.6004	0.3808	-0.6231	-0.3259
10.42	-9.3339	-0.1169	-0.7016	0.0307	-0.2202	-0.0337	40.8837	-11.1707	7.8921	-0.6012	0.3804	-0.6225	-0.3262
10.43	-9.3605	-0.1365	-0.6797	-0.0028	-0.2156	-0.0346	40.9806	-10.9122	7.7982	-0.6019	0.3800	-0.6218	-0.3266
10.44	-9.4174	-0.1703	-0.6307	-0.0408	-0.2111	-0.0392	41.1719	-11.0261	7.7895	-0.6025	0.3798	-0.6210	-0.3271
10.45	-9.4981	-0.2178	-0.5743	-0.0760	-0.2225	-0.0342	41.2570	-11.0316	7.7533	-0.6031	0.3797	-0.6202	-0.3277
10.46	-9.5621	-0.2652	-0.5101	-0.0915	-0.2290	-0.0334	41.0666	-11.1623	7.4195	-0.6037	0.3796	-0.6194	-0.3284
10.47	-9.5456	-0.2867	-0.4464	-0.1290	-0.2278	-0.0298	41.1621	-11.0271	7.6025	-0.6042	0.3796	-0.6185	-0.3292
10.48	-9.4454	-0.3263	-0.4300	-0.1480	-0.2182	-0.0189	41.3877	-11.1117	7.6104	-0.6046	0.3797	-0.6175	-0.3300
10.49	-9.3563	-0.3745	-0.4170	-0.1659	-0.2201	-0.0175	41.3862	-11.0127	7.5690	-0.6050	0.3798	-0.6166	-0.3310
10.5	-9.2723	-0.4498	-0.4199	-0.1782	-0.2095	-0.0125	41.6950	-10.5168	7.3060	-0.6053	0.3799	-0.6157	-0.3319
10.51	-9.3137	-0.5099	-0.3905	-0.1927	-0.1862	-0.0041	41.6278	-10.7581	7.3467	-0.6055	0.3801	-0.6148	-0.3329
10.52	-9.3960	-0.5729	-0.4270	-0.1910	-0.1696	-0.0099	41.1152	-11.2576	7.1975	-0.6057	0.3804	-0.6140	-0.3339
10.53	-9.3781	-0.6447	-0.4231	-0.1935	-0.1592	-0.0061	40.9278	-11.9691	7.0642	-0.6058	0.3806	-0.6132	-0.3348
10.54	-9.4181	-0.7140	-0.4577	-0.1833	-0.1548	-0.0003	41.2025	-11.1572	6.9487	-0.6059	0.3808	-0.6125	-0.3358
10.55	-9.4420	-0.7334	-0.4506	-0.1663	-0.1486	0.0067	41.3032	-11.1917	6.8350	-0.6060	0.3810	-0.6118	-0.3367
10.56	-9.5261	-0.7701	-0.4664	-0.1500	-0.1409	0.0095	41.2351	-11.5000	6.7085	-0.6061	0.3811	-0.6111	-0.3375
10.57	-9.5306	-0.7719	-0.4535	-0.1367	-0.1553	0.0149	41.4614	-11.2567	6.6314	-0.6063	0.3811	-0.6105	-0.3383
10.58	-9.5064	-0.7411	-0.4541	-0.1211	-0.1476	0.0252	41.6509	-11.4502	6.6638	-0.6064	0.3811	-0.6099	-0.3391
10.59	-9.5610	-0.7057	-0.4422	-0.1015	-0.1437	0.0279	41.4147	-11.5018	6.6495	-0.6066	0.3810	-0.6094	-0.3399
10.6	-9.5888	-0.6845	-0.4458	-0.0890	-0.1373	0.0382	41.4632	-11.5481	6.6571	-0.6068	0.3808	-0.6089	-0.3406
10.61	-9.5932	-0.6371	-0.4341	-0.0867	-0.1494	0.0320	41.5793	-11.4508	6.4402	-0.6070	0.3806	-0.6084	-0.3413
10.62	-9.6204	-0.5905	-0.4273	-0.0694	-0.1460	0.0355	41.4196	-11.4198	6.1881	-0.6072	0.3804	-0.6080	-0.3420
10.63	-9.6263	-0.5366	-0.4045	-0.0635	-0.1394	0.0340	41.3664	-11.5422	6.1784	-0.6074	0.3802	-0.6075	-0.3426
10.64	-9.6284	-0.4994	-0.3814	-0.0649	-0.1430	0.0348	41.4422	-11.5187	6.2380	-0.6077	0.3799	-0.6071	-0.3433
10.65	-9.6025	-0.4698	-0.3696	-0.0625	-0.1378	0.0315	41.2363	-11.4842	6.3181	-0.6079	0.3797	-0.6067	-0.3439
10.66	-9.5622	-0.4181	-0.3463	-0.0669	-0.1329	0.0263	41.3601	-11.2944	6.1707	-0.6081	0.3795	-0.6062	-0.3445
10.67	-9.6076	-0.4371	-0.3450	-0.0766	-0.1223	0.0257	41.3573	-11.5349	6.2013	-0.6083	0.3794	-0.6058	-0.3451
10.68	-9.6372	-0.4200	-0.3317	-0.0752	-0.1289	0.0234	41.1259	-11.6039	5.9964	-0.6084	0.3792	-0.6054	-0.3457
10.69	-9.6348	-0.3887	-0.3467	-0.0747	-0.1300	0.0212	41.0522	-11.4058	6.0840	-0.6086	0.3791	-0.6049	-0.3463
10.7	-9.5976	-0.3747	-0.3415	-0.0675	-0.1317	0.0299	41.2018	-11.5487	6.2192	-0.6088	0.3789	-0.6045	-0.3469
10.71	-9.5905	-0.3520	-0.3277	-0.0752	-0.1348	0.0355	41.1523	-11.5120	5.8746	-0.6090	0.3787	-0.6040	-0.3476
10.72	-9.5673	-0.3141	-0.2992	-0.0762	-0.1462	0.0242	41.1908	-11.5608	5.7920	-0.6092	0.3785	-0.6036	-0.3483
10.73	-9.5393	-0.3058	-0.2767	-0.0818	-0.1459	0.0112	41.1379	-11.8255	5.9454	-0.6095	0.3784	-0.6030	-0.3489
10.74	-9.5041	-0.3270	-0.2410	-0.0813	-0.1549	0.0117	41.3324	-11.7485	5.7904	-0.6097	0.3782	-0.6025	-0.3495
10.75	-9.5158	-0.3476	-0.2145	-0.0809	-0.1490	-0.0042	41.4690	-11.8873	5.6898	-0.6100	0.3781	-0.6019	-0.3501
10.76	-9.4772	-0.3792	-0.2043	-0.0893	-0.1459	-0.0125	41.4197	-12.0659	5.2642	-0.6103	0.3781	-0.6013	-0.3507
10.77	-9.4580	-0.4050	-0.1730	-0.0900	-0.1358	-0.0259	41.4387	-12.0705	5.3102	-0.6106	0.3781	-0.6007	-0.3512
10.78	-9.4762	-0.4392	-0.1764	-0.0877	-0.1367	-0.0361	41.4428	-12.0053	5.3652	-0.6108	0.3782	-0.6001	-0.3517
10.79	-9.4354	-0.4544	-0.1546	-0.0663	-0.1298	-0.0318	41.6197	-11.7742	5.2358	-0.6111	0.3782	-0.5996	-0.3521
10.8	-9.4718	-0.4644	-0.1449	-0.0597	-0.1215	-0.0391	41.6158	-11.7890	5.3816	-0.6114	0.3782	-0.5991	-0.3525
10.81	-9.4800	-0.4809	-0.1342	-0.0421	-0.1170	-0.0365	41.5109	-11.9132	5.3869	-0.6117	0.3781	-0.5986	-0.3528
10.82	-9.4765	-0.4939	-0.1100	-0.0368	-0.1120	-0.0393	41.5163	-11.9583	5.4928	-0.6121	0.3781	-0.5981	-0.3531
10.83	-9.4831	-0.5088	-0.1026	-0.0191	-0.1098	-0.0398	41.3017	-11.5321	5.1609	-0.6124	0.3780	-0.5977	-0.3533
10.84	-9.4659	-0.5167	-0.0770	-0.0132	-0.0967	-0.0438	41.5697	-11.8878	5.2096	-0.6127	0.3779	-0.5974	-0.3535
10.85	-9.4658	-0.5236	-0.0666	-0.0102	-0.0885	-0.0487	41.5991	-11.7663	5.1544	-0.6130	0.3778	-0.5970	-0.3536
10.86	-9.4492	-0.5158	-0.0450	-0.0043	-0.0844	-0.0412	41.4784	-11.6132	5.2704	-0.6133	0.3777	-0.5967	-0.3537
10.87	-9.4663	-0.5305	-0.0248	0.0123	-0.0733	-0.0361	41.2453	-11.7638	5.2078	-0.6136	0.3776	-0.5965	-0.3538
10.88	-9.4375	-0.4941	-0.0190	0.0160	-0.0700	-0.0337	41.3769	-11.4721	4.9589	-0.6139	0.3774	-0.5962	-0.3538
10.89	-9.4632	-0.4669	-0.0160	0.0199	-0.0628	-0.0349	41.4556	-11.5625	4.8372	-0.6141	0.3773	-0.5961	-0.3539
10.9	-9.5266	-0.4450	-0.0066	0.0332	-0.0693	-0.0223	41.4408	-11.5124	4.8620	-0.6144	0.3770	-0.5959	-0.3539
10.91	-9.5679	-0.4268	0.0164	0.0274	-0.0623	-0.0109	41.3412	-11.5474	4.9378	-0.6147	0.3768	-0.5958	-0.3540
10.92	-9.5657	-0.4168	0.0199	0.0229	-0.0681	-0.0110	41.4760	-11.5171	4.8675	-0.6149	0.3766	-0.5956	-0.3541
10.93	-9.5213	-0.4099	0.0422	0.0343	-0.0790	-0.0109	41.3820	-11.7499	4.7834	-0.6152	0.3763	-0.5954	-0.3541
10.94	-9.5392	-0.4078	0.0521	0.0337	-0.0795	-0.0110	41.6253	-11.8763	4.9232	-0.6155	0.3760	-0.5953	-0.3542
10.95	-9.5038	-0.4104	0.0561	0.0396	-0.0769	-0.0108	41.5880	-12.0038	4.8090	-0.6158	0.3757	-0.5951	-0.3543
10.96	-9.4928	-0.3888	0.0847	0.0384	-0.0724	-0.0106	41.6796	-11.6286	4.9736	-0.6161	0.3754	-0.5950	-0.3544
10.97	-9.5279	-0.3669	0.0890	0.0394	-0.0688	-0.0096	41.6567	-11.7247	4.7669	-0.6163	0.3751	-0.5949	-0.3544
10.98	-9.5123	-0.3295	0.1057	0.0380	-0.0602	0.0026	41.5114	-11.9295	4.6206	-0.6166	0.3747	-0.5948	-0.3545
10.99	-9.5213	-0.3084	0.1159	0.0394	-0.0568	0.0036	41.7313	-11.6345	4.6353	-0.6168	0.3744	-0.5947	-0.3546
11	-9.5359	-0.3001	0.1292	0.0386	-0.0584	0.0062	42.2638	-11.7697	4.8309	-0.6170	0.3741	-0.5946	-0.3546
11.01	-9.5600	-0.2737	0.1401	0.0396	-0.0601	0.0026	42.0560	-11.7187	4.7646	-0.6172	0.3738	-0.5946	-0.3547
11.02	-9.5660	-0.2621	0.1449	0.0342	-0.0591	-0.0002	41.4278	-12.0206	4.6391	-0.6174	0.3735	-0.5945	-0.3548
11.03	-9.5754	-0.2596	0.1452	0.0357	-0.0549	0.0019	41.4181	-12.6221	4.6006	-0.6176	0.3732	-0.5944	-0.3549
11.04	-9.5683	-0.2557	0.1442	0.0380	-0.0505	-0.0035	41.3527	-11.6895	4.6237	-0.6178	0.3729	-0.5944	-0.3549
11.05	-9.5823	-0.2524	0.1419	0.0381	-0.0481	-0.0065	41.5341	-11.8612	4.7118	-0.6180	0.3726	-0.5943	-0.3550
11.06	-9.5554	-0.2460	0.1363	0.0375	-0.0513	0.0014	41.5198	-11.8418	4.5157	-0.6182	0.3723	-0.5942	-0.3550
11.07	-9.5792	-0.2250	0.1446	0.0403	-0.0505	-0.0101	41.4605	-11.6397	4.5034	-0.6184	0.3721	-0.5942	-0.3550
11.08	-9.6063	-0.2267	0.1473	0.0397	-0.0532	-0.0110	41.4241	-11.9790	4.6917	-0.6187	0.3718	-0.5941	-0.3550
11.09	-9.5793	-0.2157	0.1612	0.0395	-0.0515	-0.0170	41.3130	-11.9419	4.5771	-0.6189	0.3716	-0.5940	-0.3551
11.1	-9.5822	-0.2083	0.1554	0.0370	-0.0545	-0.0185	41.2496	-11.8388	4.4378	-0.6191	0.3713	-0.5939	-0.3551
11.11	-9.5918	-0.2181	0.1603	0.0359	-0.0581	-0.0188	41.3852	-11.9140	4.7850	-0.6194	0.3711	-0.5938	-0.3551
11.12	-9.5917	-0.2175	0.1692	0.0379	-0.0577	-0.0299	41.6055	-12.0452	4.5938	-0.6196	0.3709	-0.5937	-0.3550
11.13	-9.5681	-0.2242	0.1738	0.0175	-0.0602	-0.0308	41.5853	-12.0432	4.4836	-0.6199	0.3707	-0.5935	-0.3551
11.14	-9.5373	-0.2245	0.1832	0.0137	-0.0634	-0.0329	41.6466	-12.0295	4.4525	-0.6201	0.3706	-0.5933	-0.3551
11.15	-9.5436	-0.2366	0.1909	0.0151	-0.0601	-0.0363	41.6980	-12.0620	4.4195	-0.6204	0.3704	-0.5931	-0.3551
11.16	-9.5226	-0.2515	0.2114	0.0087	-0.0651	-0.0350	41.7038	-11.9358	4.6481	-0.6206	0.3703	-0.5929	-0.3552
11.17	-9.5012	-0.2731	0.2277	0.0084	-0.0634	-0.0328	41.5278	-11.7370	4.3788	-0.6209	0.3702	-0.5927	-0.3553
11.18	-9.5004	-0.2861	0.2450	-0.0023	-0.0625	-0.0348	41.3878	-11.8011	4.4817	-0.6211	0.3701	-0.5925	-0.3553
11.19	-9.5202	-0.3148	0.2540	-0.0118	-0.0596	-0.0269	41.4376	-11.7514	4.3949	-0.6213	0.3700	-0.5923	-0.3555
11.2	-9.5296	-0.3522	0.2615	-0.0106	-0.0602	-0.0233	41.4160	-11.9043	4.4136	-0.6214	0.3699	-0.5920	-0.3556
11.21	-9.5271	-0.3777	0.2684	-0.0089	-0.0615	-0.0208	41.7003	-11.8123	4.3334	-0.6216	0.3698	-0.5918	-0.3558
11.22	-9.4832	-0.3980	0.2622	-0.0017	-0.0570	-0.0112	41.4192	-11.7675	4.3623	-0.6218	0.3697	-0.5917	-0.3559
11.23	-9.4611	-0.3988	0.2824	0.0034	-0.0570	-0.0109	41.5107	-11.7790	4.3228	-0.6219	0.3695	-0.5915	-0.3561
11.24	-9.4607	-0.3996	0.2725	0.0097	-0.0527	-0.0104	41.5108	-11.7859	4.2874	-0.6221	0.3693	-0.5914	-0.3562
11.25	-9.4248	-0.3632	0.2866	0.0048	-0.0501	-0.0108	41.5266	-11.7540	4.2925	-0.6223	0.3692	-0.5913	-0.3563
11.26	-9.4453	-0.3549	0.2922	0.0048	-0.0407	-0.0102	41.4273	-11.8777	4.0634	-0.6224	0.3690	-0.5912	-0.3564
11.27	-9.4348	-0.3437	0.2966	0.0124	-0.0418	-0.0081	41.5113	-11.7567	4.3631	-0.6225	0.3689	-0.5911	-0.3565
11.28	-9.4541	-0.3361	0.2993	0.0096	-0.0330	-0.0132	41.3898	-11.8153	4.3611	-0.6226	0.3687	-0.5910	-0.3565
11.29	-9.4425	-0.3419	0.2963	0.0117	-0.0295	-0.0090	41.4600	-11.8858	4.2901	-0.6227	0.3686	-0.5909	-0.3566
