time	acceleration_x	acceleration_y	acceleration_z	gyroscope_x	gyroscope_y	gyroscope_z	magnetometer_x	magnetometer_y	magnetometer_z	quaternion_w	quaternion_x	quaternion_y	quaternion_z
0	-0.3239	-9.0824	-2.1852	0.0119	-0.0052	0.0080	-19.7820	10.9583	17.9846	0.2056	-0.2339	0.7511	-0.5821
0.01	-0.3207	-9.0806	-2.1839	0.0163	-0.0074	0.0049	-19.6672	10.8718	17.7946	0.2056	-0.2339	0.7511	-0.5821
0.02	-0.3225	-9.0693	-2.1785	0.0097	0.0031	0.0087	-19.7248	11.1459	17.7934	0.2055	-0.2339	0.7511	-0.5821
0.03	-0.3252	-9.0762	-2.1852	0.0081	-0.0063	0.0074	-19.6185	11.0855	18.0555	0.2055	-0.2339	0.7511	-0.5821
0.04	-0.3272	-9.0780	-2.1775	0.0124	-0.0048	0.0070	-19.6244	10.8640	18.0336	0.2055	-0.2339	0.7512	-0.5821
0.05	-0.3373	-9.0726	-2.1788	0.0119	-0.0071	0.0115	-19.6196	11.2173	17.9154	0.2055	-0.2339	0.7512	-0.5821
0.06	-0.3415	-9.0781	-2.1773	0.0178	-0.0053	0.0122	-19.6011	11.2070	17.9727	0.2055	-0.2339	0.7512	-0.5821
0.07	-0.3459	-9.0749	-2.1690	0.0141	-0.0138	0.0082	-19.2458	10.9501	17.8555	0.2055	-0.2339	0.7511	-0.5820
0.08	-0.3448	-9.0768	-2.1770	0.0194	-0.0125	0.0120	-19.3357	11.0313	17.7645	0.2056	-0.2339	0.7512	-0.5821
0.09	-0.3476	-9.0733	-2.1687	0.0080	-0.0061	0.0093	-19.5338	10.9092	17.8142	0.2055	-0.2339	0.7512	-0.5821
0.1	-0.3509	-9.0777	-2.1581	0.0143	-0.0098	0.0106	-19.5540	10.9666	17.9970	0.2055	-0.2339	0.7511	-0.5820
0.11	-0.3513	-9.0799	-2.1525	0.0173	-0.0054	0.0053	-19.4099	11.0889	17.7218	0.2056	-0.2339	0.7512	-0.5821
0.12	-0.3631	-9.0756	-2.1468	0.0146	-0.0030	0.0060	-19.6471	10.9400	17.7203	0.2055	-0.2339	0.7512	-0.5821
0.13	-0.3647	-9.0743	-2.1414	0.0184	-0.0103	0.0090	-19.4200	11.0585	17.8334	0.2055	-0.2339	0.7512	-0.5821
0.14	-0.3642	-9.0778	-2.1483	0.0148	-0.0072	0.0071	-18.9924	11.1649	18.0678	0.2055	-0.2339	0.7511	-0.5820
0.15	-0.3644	-9.0763	-2.1443	0.0151	-0.0087	0.0124	-19.0096	11.2618	18.1864	0.2056	-0.2339	0.7512	-0.5821
0.16	-0.3631	-9.0747	-2.1504	0.0185	-0.0068	0.0058	-19.5316	11.2430	17.7169	0.2055	-0.2339	0.7511	-0.5821
0.17	-0.3652	-9.0734	-2.1516	0.0105	-0.0040	0.0074	-19.7297	11.3592	17.8026	0.2055	-0.2339	0.7511	-0.5821
0.18	-0.3597	-9.0793	-2.1575	0.0067	-0.0089	0.0047	-19.6375	11.3601	17.8532	0.2055	-0.2339	0.7512	-0.5821
0.19	-0.3525	-9.0748	-2.1545	0.0087	-0.0052	0.0072	-19.7210	11.0440	17.8721	0.2055	-0.2339	0.7512	-0.5820
0.2	-0.3415	-9.0790	-2.1623	0.0073	-0.0067	0.0047	-19.8519	11.1503	17.8228	0.2055	-0.2340	0.7512	-0.5820
0.21	-0.3354	-9.0817	-2.1650	0.0148	-0.0033	0.0057	-19.7216	11.1415	17.5732	0.2054	-0.2340	0.7511	-0.5820
0.22	-0.3292	-9.0796	-2.1723	0.0158	-0.0099	0.0092	-19.6190	11.2964	17.7121	0.2055	-0.2340	0.7512	-0.5820
0.23	-0.3235	-9.0729	-2.1735	0.0185	-0.0081	0.0082	-19.7182	11.2812	17.8106	0.2055	-0.2340	0.7512	-0.5820
0.24	-0.3205	-9.0789	-2.1799	0.0175	-0.0123	0.0108	-19.6850	10.9822	17.6865	0.2055	-0.2340	0.7512	-0.5820
0.25	-0.3154	-9.0774	-2.1818	0.0219	-0.0144	0.0118	-19.5422	10.9017	17.7003	0.2055	-0.2340	0.7511	-0.5820
0.26	-0.3129	-9.0730	-2.1786	0.0197	-0.0143	0.0193	-19.5809	11.1661	17.8008	0.2056	-0.2340	0.7511	-0.5820
0.27	-0.3088	-9.0776	-2.1837	0.0206	-0.0098	0.0091	-19.5635	11.1071	17.7681	0.2056	-0.2340	0.7511	-0.5821
0.28	-0.3048	-9.0802	-2.1846	0.0190	-0.0067	0.0083	-19.5634	11.0641	17.7849	0.2056	-0.2340	0.7511	-0.5820
0.29	-0.3029	-9.0819	-2.1905	0.0232	-0.0122	0.0131	-19.5775	11.0826	17.7751	0.2057	-0.2340	0.7511	-0.5821
0.3	-0.3063	-9.0776	-2.1899	0.0155	-0.0085	0.0067	-19.5550	10.9427	17.9387	0.2056	-0.2340	0.7511	-0.5821
0.31	-0.3088	-9.0864	-2.1877	0.0170	-0.0077	0.0068	-19.6424	10.8839	17.7144	0.2057	-0.2340	0.7511	-0.5821
0.32	-0.3104	-9.0760	-2.1844	0.0165	-0.0082	0.0078	-19.6478	11.0238	17.6717	0.2056	-0.2340	0.7510	-0.5821
0.33	-0.3206	-9.0723	-2.1781	0.0147	-0.0096	0.0141	-19.6657	10.9396	17.9371	0.2057	-0.2340	0.7511	-0.5821
0.34	-0.3281	-9.0826	-2.1742	0.0183	-0.0101	0.0167	-19.6101	10.9595	17.9695	0.2057	-0.2340	0.7511	-0.5821
0.35	-0.3420	-9.0855	-2.1782	0.0139	-0.0081	0.0058	-19.5421	11.2870	17.8870	0.2057	-0.2340	0.7510	-0.5821
0.36	-0.3466	-9.0711	-2.1619	0.0158	-0.0079	0.0099	-19.6867	11.1326	17.6373	0.2057	-0.2340	0.7511	-0.5821
0.37	-0.3586	-9.0712	-2.1669	0.0199	-0.0061	0.0108	-19.6128	11.0620	17.7412	0.2057	-0.2340	0.7510	-0.5821
0.38	-0.3634	-9.0879	-2.1676	0.0176	-0.0049	0.0059	-19.5299	11.1057	17.7949	0.2057	-0.2340	0.7511	-0.5822
0.39	-0.3674	-9.0722	-2.1557	0.0200	-0.0058	0.0125	-19.7488	11.0395	17.7583	0.2057	-0.2339	0.7510	-0.5821
0.4	-0.3727	-9.0724	-2.1501	0.0149	-0.0064	0.0061	-19.7143	11.2420	17.7835	0.2057	-0.2339	0.7511	-0.5822
0.41	-0.3709	-9.0743	-2.1425	0.0136	-0.0093	0.0120	-19.6086	11.3015	17.7465	0.2057	-0.2339	0.7510	-0.5821
0.42	-0.3720	-9.0739	-2.1446	0.0185	-0.0089	0.0088	-19.7461	10.9525	17.8599	0.2057	-0.2339	0.7510	-0.5821
0.43	-0.3762	-9.0775	-2.1417	0.0169	-0.0134	0.0135	-19.7248	11.0232	17.8818	0.2058	-0.2339	0.7510	-0.5822
0.44	-0.3740	-9.0782	-2.1426	0.0169	-0.0144	0.0135	-19.5020	10.8342	17.5940	0.2058	-0.2339	0.7510	-0.5821
0.45	-0.3806	-9.0771	-2.1455	0.0200	-0.0094	0.0112	-19.4632	10.8862	17.6867	0.2058	-0.2339	0.7510	-0.5822
0.46	-0.3834	-9.0752	-2.1505	0.0126	-0.0071	0.0119	-19.5889	11.0026	17.6971	0.2058	-0.2339	0.7509	-0.5821
0.47	-0.3813	-9.0772	-2.1489	0.0113	-0.0153	0.0140	-19.4439	10.9145	17.5925	0.2059	-0.2339	0.7510	-0.5821
0.48	-0.3824	-9.0719	-2.1476	0.0068	-0.0125	0.0084	-19.4296	10.8826	17.9263	0.2059	-0.2340	0.7510	-0.5821
0.49	-0.3810	-9.0772	-2.1539	0.0148	-0.0112	0.0077	-19.5293	10.8059	17.7149	0.2059	-0.2340	0.7510	-0.5821
0.5	-0.3766	-9.0766	-2.1593	0.0150	-0.0103	0.0118	-19.3564	10.9375	17.6046	0.2059	-0.2340	0.7510	-0.5821
0.51	-0.3721	-9.0744	-2.1639	0.0149	-0.0117	0.0081	-19.4638	11.0347	17.5995	0.2059	-0.2340	0.7510	-0.5821
0.52	-0.3636	-9.0764	-2.1709	0.0135	-0.0098	0.0067	-19.6497	11.1022	17.6442	0.2059	-0.2340	0.7510	-0.5821
0.53	-0.3623	-9.0727	-2.1715	0.0192	-0.0082	0.0041	-19.6520	11.0513	17.7842	0.2059	-0.2340	0.7509	-0.5820
0.54	-0.3574	-9.0773	-2.1763	0.0112	-0.0070	0.0099	-19.6387	11.2010	17.7783	0.2059	-0.2340	0.7511	-0.5821
0.55	-0.3501	-9.0784	-2.1801	0.0108	-0.0078	0.0095	-19.6864	11.2397	17.7487	0.2059	-0.2340	0.7510	-0.5820
0.56	-0.3495	-9.0798	-2.1838	0.0084	-0.0048	0.0047	-19.9966	11.2631	17.8463	0.2059	-0.2341	0.7511	-0.5821
0.57	-0.3394	-9.0771	-2.1754	0.0107	-0.0068	0.0052	-19.8926	11.1188	17.8597	0.2059	-0.2340	0.7510	-0.5820
0.58	-0.3389	-9.0809	-2.1804	0.0148	-0.0042	0.0091	-19.6719	11.2124	17.7468	0.2059	-0.2341	0.7511	-0.5820
0.59	-0.3380	-9.0840	-2.1842	0.0114	-0.0075	0.0054	-19.6437	11.2018	17.7787	0.2059	-0.2341	0.7511	-0.5820
0.6	-0.3327	-9.0762	-2.1816	0.0081	-0.0074	0.0076	-19.6469	11.1351	17.7822	0.2058	-0.2341	0.7510	-0.5820
0.61	-0.3327	-9.0786	-2.1819	0.0097	-0.0078	0.0111	-19.7342	11.2575	17.6592	0.2058	-0.2341	0.7512	-0.5820
0.62	-0.3290	-9.0748	-2.1747	0.0131	-0.0128	0.0087	-19.5920	10.9917	17.5880	0.2058	-0.2341	0.7511	-0.5819
0.63	-0.3257	-9.0756	-2.1725	0.0103	-0.0053	0.0043	-19.3102	10.9962	17.8676	0.2058	-0.2341	0.7512	-0.5820
0.64	-0.3216	-9.0738	-2.1655	0.0165	-0.0082	0.0088	-19.0593	11.0806	17.8868	0.2058	-0.2341	0.7510	-0.5819
0.65	-0.3166	-9.0782	-2.1716	0.0055	-0.0098	0.0117	-19.1206	11.3011	17.8115	0.2058	-0.2341	0.7511	-0.5819
0.66	-0.3153	-9.0803	-2.1656	0.0093	-0.0112	0.0119	-19.4757	10.9714	17.8389	0.2059	-0.2341	0.7511	-0.5819
0.67	-0.3147	-9.0783	-2.1588	0.0154	-0.0130	0.0087	-19.4881	11.2970	17.7571	0.2059	-0.2341	0.7511	-0.5819
0.68	-0.3187	-9.0795	-2.1613	0.0132	-0.0084	0.0088	-19.6135	11.1266	17.8785	0.2059	-0.2342	0.7512	-0.5819
0.69	-0.3265	-9.0809	-2.1611	0.0109	-0.0080	0.0066	-19.6184	10.9941	17.7769	0.2059	-0.2342	0.7511	-0.5818
0.7	-0.3306	-9.0757	-2.1601	0.0228	-0.0096	0.0060	-19.6957	11.2547	17.8212	0.2059	-0.2342	0.7512	-0.5819
0.71	-0.3397	-9.0843	-2.1727	0.0151	-0.0104	0.0135	-19.7292	10.9425	17.7781	0.2059	-0.2342	0.7511	-0.5818
0.72	-0.3347	-9.0670	-2.1489	0.0126	-0.0119	0.0104	-19.6085	11.0231	17.6494	0.2059	-0.2342	0.7512	-0.5819
0.73	-0.3397	-9.0798	-2.1570	0.0081	-0.0014	0.0042	-19.7825	11.0801	17.8335	0.2059	-0.2342	0.7511	-0.5818
0.74	-0.3399	-9.0832	-2.1633	0.0076	-0.0059	0.0019	-19.6037	11.0520	17.8576	0.2059	-0.2342	0.7512	-0.5818
0.75	-0.3461	-9.0707	-2.1641	0.0039	-0.0092	0.0087	-19.7637	11.1744	17.7321	0.2058	-0.2342	0.7512	-0.5818
0.76	-0.3594	-9.0732	-2.1689	0.0052	-0.0081	0.0051	-19.5288	11.0248	17.7801	0.2058	-0.2343	0.7512	-0.5818
0.77	-0.3674	-9.0726	-2.1625	-0.0013	-0.0080	0.0065	-19.6917	11.1696	17.9039	0.2058	-0.2343	0.7513	-0.5817
0.78	-0.3668	-9.0740	-2.1596	0.0048	-0.0010	0.0048	-19.6446	10.9976	18.0278	0.2057	-0.2343	0.7512	-0.5816
0.79	-0.3612	-9.0743	-2.1537	0.0096	-0.0053	0.0046	-19.7507	10.9760	18.0166	0.2057	-0.2343	0.7513	-0.5817
0.8	-0.3584	-9.0803	-2.1530	0.0097	-0.0109	0.0086	-19.7667	11.0001	17.8829	0.2057	-0.2343	0.7513	-0.5816
0.81	-0.3561	-9.0745	-2.1394	0.0103	-0.0151	0.0128	-19.5120	10.9788	17.7921	0.2058	-0.2344	0.7514	-0.5817
0.82	-0.3531	-9.0801	-2.1586	0.0121	-0.0128	0.0137	-19.5885	11.0793	17.6523	0.2058	-0.2343	0.7513	-0.5816
0.83	-0.3538	-9.0747	-2.1566	0.0035	-0.0120	0.0097	-19.4044	11.0711	17.6928	0.2058	-0.2344	0.7514	-0.5815
0.84	-0.3531	-9.0777	-2.1663	0.0065	-0.0076	0.0087	-19.5786	10.9111	17.6509	0.2058	-0.2344	0.7514	-0.5815
0.85	-0.3509	-9.0855	-2.1815	0.0111	-0.0070	0.0085	-19.3804	10.9054	17.7670	0.2058	-0.2344	0.7513	-0.5815
0.86	-0.3435	-9.0599	-2.1553	0.0105	-0.0083	0.0124	-19.4934	11.0905	17.7561	0.2058	-0.2344	0.7515	-0.5815
0.87	-0.3490	-9.0885	-2.1777	0.0085	-0.0069	0.0074	-19.8221	10.9566	17.7706	0.2058	-0.2344	0.7514	-0.5814
0.88	-0.3519	-9.0853	-2.1867	0.0121	-0.0085	0.0100	-19.7713	11.0308	17.7283	0.2058	-0.2344	0.7515	-0.5815
0.89	-0.3504	-9.0464	-2.1474	0.0076	-0.0084	0.0114	-19.8291	11.1910	17.8776	0.2058	-0.2344	0.7514	-0.5814
0.9	-0.3585	-9.1088	-2.2137	0.0086	-0.0068	0.0141	-19.6494	11.0953	17.6806	0.2058	-0.2344	0.7515	-0.5814
0.91	-0.3557	-9.0769	-2.1911	0.0111	-0.0087	0.0073	-19.6584	11.1355	17.7568	0.2058	-0.2344	0.7515	-0.5814
0.92	-0.3598	-9.0457	-2.1632	0.0041	-0.0047	0.0079	-19.5370	11.0460	17.9403	0.2058	-0.2344	0.7515	-0.5813
0.93	-0.3631	-9.0984	-2.2092	0.0060	-0.0065	0.0060	-19.6791	10.7695	18.0619	0.2058	-0.2344	0.7515	-0.5813
0.94	-0.3571	-9.0771	-2.1832	0.0029	-0.0017	0.0028	-19.5546	11.1088	17.9494	0.2057	-0.2344	0.7516	-0.5813
0.95	-0.3595	-9.0718	-2.1820	0.0096	-0.0052	0.0021	-19.3052	11.2075	17.8021	0.2057	-0.2345	0.7516	-0.5813
0.96	-0.3508	-9.0622	-2.1596	0.0072	-0.0035	0.0094	-19.5938	10.9799	17.8748	0.2056	-0.2344	0.7515	-0.5812
0.97	-0.3506	-9.0872	-2.1812	0.0019	-0.0095	0.0083	-19.5340	11.0015	17.7233	0.2056	-0.2345	0.7517	-0.5812
0.98	-0.3368	-9.0723	-2.1528	0.0085	-0.0050	0.0075	-19.5589	10.9591	17.6392	0.2056	-0.2345	0.7516	-0.5812
0.99	-0.3316	-9.0682	-2.1426	0.0093	-0.0129	0.0090	-19.5350	11.1300	17.7661	0.2056	-0.2345	0.7517	-0.5812
1	-0.3289	-9.0827	-2.1532	0.0088	-0.0058	0.0117	-19.5759	11.1844	17.6545	0.2056	-0.2345	0.7517	-0.5811
1.01	-0.3219	-9.0941	-2.1658	0.0116	-0.0045	0.0073	-19.3887	10.8935	17.5875	0.2056	-0.2345	0.7517	-0.5811
1.02	-0.3182	-9.0598	-2.1308	0.0115	-0.0109	0.0072	-19.4735	10.9821	17.9653	0.2056	-0.2345	0.7517	-0.5811
1.03	-0.3245	-9.0944	-2.1726	0.0054	-0.0029	0.0059	-19.6829	10.9915	17.8468	0.2056	-0.2345	0.7517	-0.5810
1.04	-0.3226	-9.0702	-2.1517	0.0055	-0.0120	0.0056	-19.4967	11.0038	17.7554	0.2056	-0.2346	0.7518	-0.5811
1.05	-0.3288	-9.0663	-2.1560	0.0082	-0.0091	0.0101	-19.6317	11.2367	17.7294	0.2056	-0.2346	0.7517	-0.5810
1.06	-0.3260	-9.0928	-2.1891	0.0070	-0.0159	0.0058	-19.7782	11.0016	17.6238	0.2056	-0.2346	0.7518	-0.5810
1.07	-0.3299	-9.0583	-2.1604	0.0114	-0.0094	0.0047	-19.4286	10.9045	17.8108	0.2056	-0.2346	0.7517	-0.5809
1.08	-0.3237	-9.0809	-2.1768	0.0131	-0.0094	0.0076	-19.5125	10.8966	17.5857	0.2056	-0.2347	0.7518	-0.5810
1.09	-0.3310	-9.0989	-2.1988	0.0133	-0.0127	0.0114	-19.7109	10.9542	17.6735	0.2056	-0.2347	0.7518	-0.5810
1.1	-0.3380	-9.0477	-2.1607	0.0089	-0.0078	0.0111	-19.4393	11.0641	17.8832	0.2056	-0.2347	0.7517	-0.5809
1.11	-0.3492	-9.0649	-2.1663	0.0075	-0.0076	0.0038	-19.5968	11.0992	17.7348	0.2056	-0.2347	0.7519	-0.5810
1.12	-0.3566	-9.1185	-2.2251	0.0109	-0.0051	0.0046	-19.8715	11.1390	17.7647	0.2056	-0.2347	0.7518	-0.5809
1.13	-0.3592	-9.0392	-2.1560	0.0125	-0.0056	0.0015	-19.6812	11.2253	17.9786	0.2055	-0.2347	0.7518	-0.5809
1.14	-0.3615	-9.0624	-2.1722	0.0107	-0.0027	0.0029	-19.4760	11.2345	18.1147	0.2055	-0.2347	0.7517	-0.5809
1.15	-0.3578	-9.1081	-2.2068	0.0131	-0.0057	0.0113	-19.2717	11.0604	18.1947	0.2055	-0.2347	0.7518	-0.5809
1.16	-0.3442	-9.0517	-2.1534	0.0097	-0.0073	0.0048	-19.5360	11.3130	17.8236	0.2055	-0.2348	0.7518	-0.5809
1.17	-0.3423	-9.0721	-2.1696	0.0177	-0.0069	0.0069	-19.7190	11.3530	17.7965	0.2055	-0.2348	0.7518	-0.5809
1.18	-0.3372	-9.0885	-2.1863	0.0199	-0.0072	0.0136	-19.6178	11.2189	17.8979	0.2055	-0.2347	0.7518	-0.5809
1.19	-0.3301	-9.0609	-2.1562	0.0190	-0.0103	0.0110	-19.4457	11.0167	17.7641	0.2055	-0.2347	0.7518	-0.5809
1.2	-0.3341	-9.0808	-2.1706	0.0166	-0.0124	0.0134	-19.4348	10.8967	17.8529	0.2056	-0.2347	0.7518	-0.5810
1.21	-0.3343	-9.0878	-2.1893	0.0192	-0.0120	0.0147	-19.4027	10.9984	17.7048	0.2056	-0.2347	0.7517	-0.5809
1.22	-0.3384	-9.0627	-2.1658	0.0145	-0.0093	0.0077	-19.4667	10.9498	17.6271	0.2056	-0.2347	0.7518	-0.5810
1.23	-0.3416	-9.0823	-2.1845	0.0087	-0.0073	0.0090	-19.6025	10.9249	17.7878	0.2056	-0.2347	0.7518	-0.5809
1.24	-0.3445	-9.0802	-2.1822	0.0176	-0.0060	0.0091	-19.3949	11.0031	17.8176	0.2056	-0.2347	0.7518	-0.5809
1.25	-0.3390	-9.0659	-2.1678	0.0158	-0.0110	0.0104	-19.5145	10.9829	17.7910	0.2056	-0.2347	0.7517	-0.5809
1.26	-0.3405	-9.0783	-2.1752	0.0110	-0.0087	0.0084	-19.7499	11.0663	17.8299	0.2056	-0.2347	0.7518	-0.5809
1.27	-0.3409	-9.0807	-2.1794	0.0180	-0.0099	0.0087	-19.7000	10.9289	17.9364	0.2056	-0.2347	0.7518	-0.5809
1.28	-0.3464	-9.0767	-2.1774	0.0139	-0.0070	0.0069	-19.6705	11.0762	17.7902	0.2056	-0.2347	0.7517	-0.5809
1.29	-0.3479	-9.0775	-2.1785	0.0068	-0.0033	0.0128	-19.5687	11.0599	17.8122	0.2056	-0.2347	0.7518	-0.5809
1.3	-0.3479	-9.0746	-2.1773	0.0186	-0.0083	0.0054	-19.6421	10.9087	18.0933	0.2056	-0.2347	0.7518	-0.5809
1.31	-0.3475	-9.0809	-2.1748	0.0156	-0.0073	0.0064	-19.6720	10.8994	17.9536	0.2056	-0.2348	0.7518	-0.5810
1.32	-0.3451	-9.0769	-2.1667	0.0170	-0.0084	0.0109	-19.7486	10.8749	17.6729	0.2056	-0.2347	0.7517	-0.5809
1.33	-0.3474	-9.0762	-2.1739	0.0100	-0.0044	0.0081	-19.7357	11.0480	17.8751	0.2056	-0.2347	0.7518	-0.5809
1.34	-0.3432	-9.0804	-2.1760	0.0134	-0.0063	0.0046	-19.6464	11.0028	17.8727	0.2056	-0.2348	0.7518	-0.5809
1.35	-0.3449	-9.0706	-2.1605	0.0141	-0.0057	0.0093	-19.6845	11.0216	17.9835	0.2056	-0.2347	0.7517	-0.5809
1.36	-0.3470	-9.0748	-2.1599	0.0127	-0.0083	0.0055	-19.7551	11.2760	17.8695	0.2056	-0.2348	0.7518	-0.5810
1.37	-0.3484	-9.0780	-2.1586	0.0231	-0.0145	0.0109	-19.7532	10.9279	17.6315	0.2056	-0.2348	0.7517	-0.5810
1.38	-0.3490	-9.0731	-2.1496	0.0168	-0.0131	0.0103	-19.7149	10.8785	17.8728	0.2056	-0.2348	0.7518	-0.5810
1.39	-0.3478	-9.0703	-2.1466	0.0193	-0.0080	0.0123	-19.4905	10.9859	17.9156	0.2056	-0.2348	0.7516	-0.5809
1.4	-0.3476	-9.0813	-2.1521	0.0144	-0.0045	0.0148	-19.6185	10.9805	17.7594	0.2057	-0.2347	0.7517	-0.5810
1.41	-0.3472	-9.0819	-2.1557	0.0111	-0.0081	0.0071	-19.5595	11.1475	17.7037	0.2056	-0.2348	0.7517	-0.5810
1.42	-0.3497	-9.0758	-2.1516	0.0133	-0.0079	0.0068	-19.6754	11.1010	17.7207	0.2056	-0.2348	0.7517	-0.5810
1.43	-0.3537	-9.0800	-2.1628	0.0119	-0.0076	0.0090	-19.5702	10.8552	17.6254	0.2056	-0.2348	0.7517	-0.5810
1.44	-0.3544	-9.0689	-2.1503	0.0109	-0.0066	0.0108	-19.5910	10.8226	17.6274	0.2056	-0.2348	0.7517	-0.5809
1.45	-0.3547	-9.0748	-2.1546	0.0052	-0.0086	0.0054	-19.5686	10.9646	17.6818	0.2056	-0.2348	0.7518	-0.5809
1.46	-0.3528	-9.0741	-2.1580	0.0159	-0.0115	0.0082	-19.6722	10.7516	17.8377	0.2056	-0.2348	0.7517	-0.5809
1.47	-0.3504	-9.0767	-2.1596	0.0090	-0.0076	0.0043	-19.6585	11.1011	17.6708	0.2056	-0.2348	0.7518	-0.5809
1.48	-0.3463	-9.0806	-2.1716	0.0081	-0.0079	0.0047	-19.6988	11.0713	17.9479	0.2056	-0.2348	0.7517	-0.5809
1.49	-0.3413	-9.0784	-2.1766	0.0139	-0.0034	0.0053	-19.8063	11.2020	17.9263	0.2056	-0.2349	0.7518	-0.5809
1.5	-0.3390	-9.0799	-2.1808	0.0081	-0.0061	0.0074	-19.5272	11.2187	17.7709	0.2056	-0.2349	0.7518	-0.5809
1.51	-0.3375	-9.0793	-2.1839	0.0131	-0.0062	0.0049	-19.7830	11.1729	17.8264	0.2055	-0.2349	0.7518	-0.5809
1.52	-0.3374	-9.0771	-2.1846	0.0139	-0.0080	0.0098	-19.7996	11.1594	17.9592	0.2055	-0.2349	0.7518	-0.5809
1.53	-0.3425	-9.0737	-2.1803	0.0117	-0.0059	0.0135	-19.7212	10.9305	17.9979	0.2055	-0.2348	0.7517	-0.5808
1.54	-0.3437	-9.0770	-2.1871	0.0086	-0.0055	-0.0012	-19.8669	11.0837	17.8614	0.2055	-0.2349	0.7518	-0.5809
1.55	-0.3379	-9.0707	-2.1853	0.0131	-0.0083	0.0108	-19.6736	11.0667	17.8958	0.2055	-0.2349	0.7518	-0.5808
1.56	-0.3386	-9.0782	-2.1884	0.0173	-0.0116	0.0062	-19.6451	11.0009	17.6206	0.2055	-0.2349	0.7518	-0.5809
1.57	-0.3345	-9.0791	-2.1889	0.0159	-0.0138	0.0136	-19.3636	10.9108	17.7275	0.2056	-0.2349	0.7517	-0.5808
1.58	-0.3240	-9.0812	-2.1806	0.0124	-0.0057	0.0089	-19.4019	10.7514	17.9644	0.2056	-0.2349	0.7518	-0.5809
1.59	-0.3324	-9.0714	-2.1753	0.0133	-0.0074	0.0123	-19.5348	10.9774	17.6543	0.2056	-0.2349	0.7518	-0.5809
1.6	-0.3358	-9.0798	-2.1754	0.0127	-0.0060	0.0063	-19.4968	10.8393	17.9253	0.2055	-0.2349	0.7517	-0.5808
1.61	-0.3445	-9.0753	-2.1718	0.0124	-0.0082	0.0079	-19.6734	10.7300	17.8619	0.2056	-0.2349	0.7518	-0.5809
1.62	-0.3439	-9.0753	-2.1685	0.0137	-0.0103	0.0080	-19.6081	11.0848	17.8428	0.2056	-0.2349	0.7518	-0.5808
1.63	-0.3494	-9.0814	-2.1825	0.0064	-0.0071	0.0080	-19.6361	11.0691	17.8862	0.2056	-0.2349	0.7518	-0.5809
1.64	-0.3528	-9.0716	-2.1778	0.0167	-0.0086	0.0132	-19.1352	10.9835	18.0109	0.2056	-0.2349	0.7517	-0.5808
1.65	-0.3516	-9.0691	-2.1739	0.0152	-0.0151	0.0094	-19.1273	10.8876	18.2336	0.2056	-0.2349	0.7518	-0.5808
1.66	-0.3472	-9.0780	-2.1822	0.0130	-0.0043	0.0065	-19.6140	11.2921	17.8920	0.2056	-0.2349	0.7518	-0.5808
1.67	-0.3351	-9.0783	-2.1827	0.0167	-0.0027	0.0052	-19.7454	11.2826	17.7740	0.2056	-0.2349	0.7518	-0.5808
1.68	-0.3243	-9.0745	-2.1821	0.0175	-0.0038	0.0034	-19.6095	11.1404	17.7451	0.2055	-0.2349	0.7518	-0.5809
1.69	-0.3137	-9.0842	-2.1914	0.0161	-0.0050	0.0038	-19.4885	11.0687	17.8106	0.2055	-0.2349	0.7517	-0.5809
1.7	-0.3129	-9.0787	-2.1937	0.0083	-0.0049	0.0052	-19.5887	11.2293	17.5501	0.2055	-0.2350	0.7518	-0.5809
1.71	-0.3147	-9.0749	-2.1912	0.0185	-0.0026	0.0080	-19.6002	10.9483	17.8779	0.2055	-0.2349	0.7517	-0.5808
1.72	-0.3158	-9.0751	-2.1778	0.0199	-0.0049	0.0051	-19.6159	11.1329	17.8970	0.2055	-0.2350	0.7518	-0.5809
1.73	-0.3234	-9.0739	-2.1793	0.0171	-0.0034	0.0057	-19.5744	11.1127	17.8060	0.2054	-0.2349	0.7517	-0.5809
1.74	-0.3376	-9.0702	-2.1705	0.0163	-0.0119	0.0121	-19.6914	11.0481	17.8515	0.2055	-0.2350	0.7517	-0.5810
1.75	-0.3507	-9.0688	-2.1579	0.0209	-0.0052	0.0101	-19.5845	11.0666	17.7267	0.2055	-0.2349	0.7517	-0.5810
1.76	-0.3620	-9.0760	-2.1544	0.0147	-0.0074	0.0134	-19.5239	11.0912	17.7504	0.2055	-0.2349	0.7517	-0.5810
1.77	-0.3722	-9.0764	-2.1467	0.0130	-0.0126	0.0105	-19.4778	10.9902	17.7232	0.2055	-0.2349	0.7517	-0.5810
1.78	-0.3743	-9.0735	-2.1344	0.0112	-0.0079	0.0116	-19.4094	10.7641	17.5358	0.2055	-0.2349	0.7517	-0.5809
1.79	-0.3791	-9.0791	-2.1367	0.0070	-0.0071	0.0036	-19.5465	11.0709	17.7318	0.2055	-0.2350	0.7518	-0.5810
1.8	-0.3743	-9.0773	-2.1298	0.0167	-0.0083	0.0047	-19.5198	11.0237	17.8295	0.2055	-0.2350	0.7517	-0.5809
1.81	-0.3767	-9.0795	-2.1267	0.0125	-0.0065	0.0078	-19.5138	10.9867	17.6935	0.2055	-0.2350	0.7518	-0.5810
1.82	-0.3800	-9.0798	-2.1276	0.0091	-0.0090	0.0078	-19.6055	10.9669	17.8860	0.2055	-0.2350	0.7517	-0.5809
1.83	-0.3866	-9.0799	-2.1309	0.0135	-0.0063	0.0087	-19.6034	11.1495	17.4111	0.2055	-0.2350	0.7517	-0.5809
1.84	-0.3860	-9.0820	-2.1472	0.0101	-0.0106	0.0069	-19.5951	11.2287	17.6329	0.2055	-0.2350	0.7517	-0.5809
1.85	-0.3838	-9.0743	-2.1492	0.0088	-0.0064	0.0046	-19.6066	11.0487	17.8696	0.2054	-0.2350	0.7517	-0.5809
1.86	-0.3824	-9.0708	-2.1573	0.0019	-0.0086	0.0072	-19.6892	10.9887	17.8072	0.2055	-0.2351	0.7518	-0.5809
1.87	-0.3756	-9.0765	-2.1708	0.0107	0.0002	0.0049	-19.7014	10.9956	17.8606	0.2054	-0.2350	0.7518	-0.5809
1.88	-0.3592	-9.0817	-2.1849	0.0062	-0.0021	0.0029	-19.6304	11.1583	17.9801	0.2054	-0.2351	0.7518	-0.5809
1.89	-0.3425	-9.0748	-2.1876	0.0083	-0.0027	0.0042	-19.5819	11.1516	17.6186	0.2053	-0.2350	0.7518	-0.5808
1.9	-0.3310	-9.0797	-2.1945	0.0056	-0.0004	0.0018	-19.7160	10.9451	17.7897	0.2053	-0.2351	0.7518	-0.5808
1.91	-0.3194	-9.0772	-2.2101	0.0047	-0.0094	0.0042	-19.4983	11.1792	17.8322	0.2052	-0.2351	0.7518	-0.5808
1.92	-0.3040	-9.0746	-2.2112	0.0096	-0.0071	0.0052	-19.6119	11.0645	17.8835	0.2052	-0.2351	0.7518	-0.5808
1.93	-0.2945	-9.0786	-2.2169	0.0115	-0.0060	0.0091	-19.5985	11.0863	17.9505	0.2052	-0.2351	0.7519	-0.5808
1.94	-0.2922	-9.0845	-2.2257	0.0103	-0.0117	0.0128	-19.5198	10.9086	17.7300	0.2052	-0.2351	0.7519	-0.5807
1.95	-0.2865	-9.0762	-2.2213	0.0148	-0.0100	0.0074	-19.4690	10.9655	17.6381	0.2053	-0.2352	0.7519	-0.5808
1.96	-0.2937	-9.0742	-2.2107	0.0139	-0.0060	0.0084	-19.4196	10.9931	17.7416	0.2052	-0.2351	0.7518	-0.5807
1.97	-0.3034	-9.0809	-2.2173	0.0204	-0.0092	0.0115	-19.5496	10.9092	17.7833	0.2053	-0.2351	0.7519	-0.5808
1.98	-0.3088	-9.0715	-2.2016	0.0156	-0.0098	0.0068	-19.6598	11.1386	17.6602	0.2053	-0.2351	0.7518	-0.5808
1.99	-0.3137	-9.0739	-2.2041	0.0106	-0.0088	0.0077	-19.6428	10.9687	17.7250	0.2053	-0.2352	0.7519	-0.5808
2	-0.3176	-9.0846	-2.1963	0.0133	-0.0088	0.0117	-19.4765	11.0037	17.8345	0.2053	-0.2352	0.7518	-0.5808
2.01	-0.3179	-9.0807	-2.1923	0.0147	-0.0075	0.0067	-19.6961	11.0885	17.6333	0.2053	-0.2352	0.7518	-0.5808
2.02	-0.3168	-9.0731	-2.1837	0.0142	-0.0104	0.0074	-19.5939	11.0270	17.7927	0.2053	-0.2352	0.7518	-0.5808
2.03	-0.3185	-9.0765	-2.1787	0.0130	-0.0099	0.0046	-19.4107	10.8984	17.6572	0.2053	-0.2352	0.7518	-0.5807
2.04	-0.3179	-9.0786	-2.1705	0.0176	-0.0043	0.0107	-19.5416	10.8200	17.6418	0.2053	-0.2352	0.7519	-0.5808
2.05	-0.3227	-9.0739	-2.1637	0.0123	-0.0063	0.0063	-19.5254	10.9602	17.7307	0.2053	-0.2352	0.7518	-0.5808
2.06	-0.3289	-9.0745	-2.1519	0.0166	-0.0044	0.0068	-19.7032	11.2651	17.6658	0.2053	-0.2352	0.7519	-0.5809
2.07	-0.3378	-9.0841	-2.1501	0.0144	-0.0045	0.0103	-19.6589	11.0461	17.6568	0.2052	-0.2352	0.7518	-0.5808
2.08	-0.3496	-9.0799	-2.1365	0.0073	-0.0035	0.0061	-19.6117	10.9849	17.7454	0.2052	-0.2352	0.7518	-0.5808
2.09	-0.3648	-9.0710	-2.1266	0.0182	-0.0066	0.0060	-19.8838	10.9394	17.7943	0.2052	-0.2352	0.7518	-0.5808
2.1	-0.3727	-9.0769	-2.1300	0.0122	-0.0059	0.0101	-19.6956	10.8677	17.8397	0.2052	-0.2352	0.7518	-0.5808
2.11	-0.3838	-9.0779	-2.1247	0.0158	-0.0054	0.0107	-19.5739	11.0313	17.8509	0.2052	-0.2352	0.7519	-0.5809
2.12	-0.3959	-9.0712	-2.1114	0.0135	-0.0095	0.0088	-19.6625	11.0600	18.0465	0.2052	-0.2352	0.7518	-0.5808
2.13	-0.3997	-9.0799	-2.1090	0.0053	-0.0064	0.0060	-19.4533	10.8884	17.9996	0.2052	-0.2352	0.7519	-0.5808
2.14	-0.4018	-9.0816	-2.1119	0.0094	-0.0091	0.0079	-19.0949	11.0035	18.0115	0.2052	-0.2352	0.7518	-0.5807
2.15	-0.4001	-9.0736	-2.1174	0.0013	-0.0095	0.0097	-18.9179	11.0823	17.9977	0.2052	-0.2352	0.7519	-0.5808
2.16	-0.4020	-9.0745	-2.1319	0.0109	-0.0140	0.0127	-19.4665	11.0249	17.7975	0.2052	-0.2352	0.7519	-0.5807
2.17	-0.4018	-9.0762	-2.1476	0.0116	-0.0089	0.0112	-19.6257	11.1319	17.7850	0.2052	-0.2352	0.7519	-0.5807
2.18	-0.3948	-9.0740	-2.1527	0.0146	-0.0063	0.0075	-19.6425	11.0905	17.9831	0.2052	-0.2352	0.7519	-0.5807
2.19	-0.3823	-9.0752	-2.1645	0.0106	-0.0072	0.0087	-19.6578	11.1142	17.6854	0.2052	-0.2352	0.7519	-0.5807
2.2	-0.3698	-9.0792	-2.1728	0.0111	-0.0070	0.0073	-19.5635	11.0116	17.7501	0.2052	-0.2352	0.7519	-0.5807
2.21	-0.3591	-9.0838	-2.1836	0.0079	-0.0111	0.0124	-19.6072	11.0898	17.8953	0.2052	-0.2352	0.7518	-0.5806
2.22	-0.3496	-9.0793	-2.1884	0.0053	-0.0086	0.0085	-19.5971	11.1807	17.9401	0.2052	-0.2353	0.7520	-0.5807
2.23	-0.3357	-9.0718	-2.2058	0.0056	-0.0066	0.0072	-19.7388	11.2059	17.8709	0.2052	-0.2353	0.7519	-0.5806
2.24	-0.3260	-9.0733	-2.2143	0.0046	-0.0080	0.0050	-19.7789	11.2754	18.0273	0.2052	-0.2353	0.7520	-0.5806
2.25	-0.3197	-9.0827	-2.2261	0.0069	-0.0054	0.0020	-19.6564	11.2405	17.7083	0.2051	-0.2353	0.7520	-0.5806
2.26	-0.3132	-9.0799	-2.2264	0.0191	-0.0068	0.0055	-19.6997	11.2582	17.8658	0.2051	-0.2353	0.7520	-0.5806
2.27	-0.3028	-9.0714	-2.2206	0.0190	-0.0084	0.0107	-19.6189	11.2386	17.7723	0.2052	-0.2353	0.7520	-0.5806
2.28	-0.2987	-9.0788	-2.2226	0.0243	-0.0040	0.0080	-19.5644	10.9741	17.5794	0.2051	-0.2353	0.7519	-0.5806
2.29	-0.2914	-9.0775	-2.2130	0.0203	-0.0049	0.0055	-19.7024	11.1448	17.8225	0.2052	-0.2353	0.7519	-0.5807
2.3	-0.2939	-9.0731	-2.2038	0.0180	-0.0156	0.0134	-19.6602	10.9789	17.7850	0.2052	-0.2353	0.7519	-0.5807
2.31	-0.2950	-9.0818	-2.2122	0.0213	-0.0155	0.0105	-19.6653	10.9643	17.7447	0.2053	-0.2353	0.7519	-0.5808
2.32	-0.2948	-9.0750	-2.2043	0.0194	-0.0085	0.0097	-19.3547	11.0458	17.5801	0.2052	-0.2353	0.7518	-0.5807
2.33	-0.2987	-9.0779	-2.1983	0.0135	-0.0077	0.0117	-19.6369	10.8693	17.7683	0.2053	-0.2353	0.7518	-0.5807
2.34	-0.3073	-9.0736	-2.1859	0.0127	-0.0073	0.0077	-19.7319	10.8195	17.8006	0.2053	-0.2353	0.7518	-0.5807
2.35	-0.3045	-9.0825	-2.1854	0.0140	-0.0075	0.0090	-19.3814	10.9397	17.7922	0.2052	-0.2353	0.7518	-0.5807
2.36	-0.3166	-9.0745	-2.1710	0.0201	-0.0073	0.0119	-19.5513	10.8225	17.8040	0.2053	-0.2353	0.7519	-0.5808
2.37	-0.3198	-9.0538	-2.1358	0.0117	-0.0080	0.0125	-19.4830	11.0195	17.6519	0.2053	-0.2352	0.7518	-0.5807
2.38	-0.3221	-9.1046	-2.1718	0.0140	-0.0109	0.0063	-19.5382	11.1426	17.8050	0.2053	-0.2353	0.7519	-0.5808
2.39	-0.3202	-9.0742	-2.1387	0.0187	-0.0090	0.0077	-19.4800	10.9799	17.6921	0.2053	-0.2353	0.7517	-0.5807
2.4	-0.3162	-9.0700	-2.1280	0.0215	-0.0150	0.0164	-19.5532	11.0376	17.7217	0.2054	-0.2353	0.7518	-0.5808
2.41	-0.3209	-9.1058	-2.1652	0.0226	-0.0094	0.0129	-19.7134	11.1265	17.6327	0.2054	-0.2352	0.7517	-0.5808
2.42	-0.3277	-9.0782	-2.1518	0.0152	-0.0045	0.0068	-19.6224	11.2812	17.6440	0.2054	-0.2352	0.7517	-0.5808
2.43	-0.3477	-9.0589	-2.1467	0.0177	-0.0040	0.0067	-19.8851	11.1272	17.9203	0.2054	-0.2352	0.7517	-0.5809
2.44	-0.3640	-9.0830	-2.1709	0.0128	-0.0042	0.0120	-19.6560	11.1064	17.8320	0.2054	-0.2352	0.7517	-0.5809
2.45	-0.3746	-9.0743	-2.1557	0.0142	-0.0080	0.0109	-19.7515	11.1941	17.9606	0.2054	-0.2352	0.7518	-0.5809
2.46	-0.3843	-9.0561	-2.1319	0.0083	-0.0086	0.0055	-19.7470	11.1496	17.8916	0.2053	-0.2352	0.7517	-0.5808
2.47	-0.3865	-9.0787	-2.1549	0.0033	-0.0035	0.0081	-19.7807	11.2781	17.6361	0.2053	-0.2352	0.7518	-0.5808
2.48	-0.3836	-9.0833	-2.1519	0.0061	-0.0094	0.0077	-19.8157	11.2474	17.7627	0.2053	-0.2352	0.7518	-0.5808
2.49	-0.3874	-9.0775	-2.1457	0.0157	-0.0145	0.0114	-19.6967	11.2193	17.7886	0.2054	-0.2352	0.7518	-0.5808
2.5	-0.3943	-9.0773	-2.1464	0.0159	-0.0103	0.0167	-19.4676	10.9683	17.7980	0.2054	-0.2352	0.7518	-0.5808
2.51	-0.4008	-9.0766	-2.1479	0.0152	-0.0089	0.0138	-19.5821	10.9377	17.7786	0.2054	-0.2352	0.7518	-0.5808
2.52	-0.4047	-9.0694	-2.1453	0.0096	-0.0087	0.0074	-19.4953	10.8790	17.6302	0.2054	-0.2352	0.7518	-0.5808
2.53	-0.4108	-9.0684	-2.1582	0.0081	-0.0054	0.0141	-19.3731	10.8211	17.6168	0.2054	-0.2352	0.7517	-0.5807
2.54	-0.4090	-9.0776	-2.1606	0.0193	-0.0143	0.0140	-19.6529	10.9536	17.6149	0.2055	-0.2352	0.7518	-0.5808
2.55	-0.3959	-9.0755	-2.1648	0.0125	-0.0083	0.0090	-19.5431	11.1850	17.9189	0.2055	-0.2352	0.7518	-0.5808
2.56	-0.3807	-9.0781	-2.1722	0.0126	-0.0067	0.0143	-19.7018	11.1076	17.9591	0.2055	-0.2352	0.7519	-0.5808
2.57	-0.3637	-9.0758	-2.1769	0.0180	-0.0086	0.0062	-19.5671	11.0808	17.6332	0.2055	-0.2352	0.7517	-0.5807
2.58	-0.3506	-9.0781	-2.1821	0.0199	-0.0110	0.0100	-19.6176	11.1037	17.7876	0.2055	-0.2352	0.7518	-0.5808
2.59	-0.3428	-9.0790	-2.1841	0.0155	-0.0134	0.0110	-19.5190	10.8916	17.7022	0.2055	-0.2352	0.7518	-0.5808
2.6	-0.3323	-9.0815	-2.1932	0.0149	-0.0081	0.0101	-19.5561	10.7920	17.5202	0.2055	-0.2352	0.7517	-0.5808
2.61	-0.3308	-9.0807	-2.1951	0.0135	0.0000	0.0083	-19.6932	11.1617	17.5967	0.2055	-0.2352	0.7518	-0.5809
2.62	-0.3287	-9.0767	-2.2046	0.0077	-0.0001	0.0019	-19.6744	11.2698	17.9720	0.2055	-0.2352	0.7517	-0.5808
2.63	-0.3335	-9.0692	-2.2003	0.0153	-0.0076	0.0029	-19.8545	11.0354	18.2091	0.2055	-0.2352	0.7518	-0.5808
2.64	-0.3310	-9.0788	-2.2034	0.0178	-0.0030	0.0039	-19.4771	11.2733	18.0085	0.2054	-0.2352	0.7517	-0.5808
2.65	-0.3291	-9.0824	-2.2026	0.0107	-0.0060	0.0064	-19.2545	11.4439	18.2248	0.2054	-0.2352	0.7517	-0.5809
2.66	-0.3239	-9.0693	-2.1835	0.0131	-0.0030	0.0055	-19.6754	11.2529	17.8246	0.2054	-0.2352	0.7517	-0.5809
2.67	-0.3156	-9.0750	-2.1793	0.0098	-0.0113	0.0104	-19.6454	11.2759	17.8592	0.2054	-0.2352	0.7517	-0.5808
2.68	-0.3162	-9.0791	-2.1709	0.0190	-0.0078	0.0085	-19.7567	11.2631	17.9443	0.2054	-0.2352	0.7517	-0.5809
2.69	-0.3199	-9.0795	-2.1629	0.0177	-0.0089	0.0088	-19.5712	11.0876	17.7632	0.2054	-0.2352	0.7517	-0.5809
2.7	-0.3269	-9.0848	-2.1531	0.0127	-0.0138	0.0128	-19.6900	10.8922	17.8332	0.2055	-0.2352	0.7517	-0.5809
2.71	-0.3367	-9.0815	-2.1528	0.0140	-0.0082	0.0089	-19.3588	10.9214	17.7948	0.2054	-0.2352	0.7516	-0.5808
2.72	-0.3442	-9.0702	-2.1310	0.0116	-0.0079	0.0062	-19.2971	10.9893	17.6406	0.2055	-0.2352	0.7517	-0.5809
2.73	-0.3515	-9.0760	-2.1370	0.0042	-0.0061	0.0109	-19.5717	11.0253	17.8739	0.2054	-0.2352	0.7517	-0.5808
2.74	-0.3571	-9.0772	-2.1294	0.0139	-0.0079	0.0096	-19.4731	11.1062	17.7535	0.2055	-0.2352	0.7517	-0.5808
2.75	-0.3614	-9.0748	-2.1247	0.0163	-0.0083	0.0115	-19.4445	10.9688	17.7907	0.2055	-0.2352	0.7517	-0.5808
2.76	-0.3618	-9.0814	-2.1308	0.0097	-0.0084	0.0064	-19.5984	11.1279	17.6943	0.2055	-0.2352	0.7517	-0.5808
2.77	-0.3603	-9.0784	-2.1334	0.0081	-0.0113	0.0095	-19.5960	10.9785	17.7568	0.2055	-0.2353	0.7517	-0.5808
2.78	-0.3546	-9.0789	-2.1437	0.0131	-0.0078	0.0075	-19.4307	11.0683	17.9801	0.2055	-0.2352	0.7517	-0.5808
2.79	-0.3464	-9.0820	-2.1531	0.0129	-0.0056	0.0044	-19.6839	11.1612	17.8100	0.2055	-0.2353	0.7518	-0.5808
2.8	-0.3379	-9.0710	-2.1372	0.0084	-0.0063	0.0084	-19.5467	11.1585	17.8695	0.2054	-0.2353	0.7517	-0.5808
2.81	-0.3454	-9.0791	-2.1512	0.0050	-0.0091	0.0123	-19.4043	10.8883	17.8295	0.2055	-0.2353	0.7518	-0.5808
2.82	-0.3466	-9.0840	-2.1700	0.0007	-0.0063	0.0055	-19.6716	11.0906	17.9530	0.2054	-0.2353	0.7518	-0.5807
2.83	-0.3473	-9.0705	-2.1670	0.0052	-0.0061	0.0098	-19.6909	11.1421	17.7906	0.2054	-0.2353	0.7518	-0.5807
2.84	-0.3484	-9.0789	-2.1829	0.0103	-0.0075	0.0104	-19.6002	11.0304	17.9323	0.2054	-0.2353	0.7518	-0.5807
2.85	-0.3441	-9.0800	-2.1798	0.0102	-0.0052	0.0042	-19.6514	10.8045	17.8692	0.2054	-0.2353	0.7518	-0.5807
2.86	-0.3403	-9.0757	-2.1833	0.0012	-0.0075	0.0074	-19.5185	10.9386	17.8413	0.2054	-0.2353	0.7519	-0.5807
2.87	-0.3329	-9.0822	-2.1760	0.0105	-0.0072	0.0048	-19.5675	10.9619	17.7190	0.2053	-0.2353	0.7519	-0.5806
2.88	-0.3218	-9.0910	-2.1905	0.0154	-0.0081	0.0059	-19.2735	10.9225	17.8605	0.2054	-0.2354	0.7519	-0.5807
2.89	-0.3128	-9.0737	-2.1830	0.0180	-0.0072	0.0043	-19.4811	11.1253	17.7606	0.2053	-0.2353	0.7518	-0.5806
2.9	-0.3060	-9.0781	-2.1891	0.0103	-0.0081	0.0079	-19.6401	10.9098	17.7555	0.2053	-0.2354	0.7519	-0.5807
2.91	-0.3114	-9.0856	-2.1954	0.0170	-0.0024	0.0099	-19.3647	10.9699	17.7743	0.2053	-0.2354	0.7518	-0.5807
2.92	-0.3194	-9.0792	-2.1950	0.0170	-0.0044	0.0052	-19.6526	11.2655	17.7441	0.2053	-0.2353	0.7518	-0.5807
2.93	-0.3290	-9.0775	-2.1937	0.0201	-0.0072	0.0064	-19.5946	11.1269	17.7536	0.2053	-0.2354	0.7518	-0.5808
2.94	-0.3366	-9.0763	-2.1846	0.0096	-0.0074	0.0070	-19.5563	11.1800	17.8898	0.2053	-0.2354	0.7518	-0.5807
2.95	-0.3445	-9.0728	-2.1727	0.0139	-0.0019	0.0081	-19.6804	11.0811	17.7542	0.2053	-0.2354	0.7518	-0.5808
2.96	-0.3533	-9.0711	-2.1626	0.0069	-0.0093	0.0106	-19.4339	11.0676	17.8346	0.2053	-0.2353	0.7518	-0.5807
2.97	-0.3577	-9.0745	-2.1603	0.0049	-0.0064	0.0060	-19.5824	11.1662	17.9587	0.2053	-0.2354	0.7519	-0.5807
2.98	-0.3628	-9.0768	-2.1605	0.0105	-0.0055	0.0083	-19.6496	11.1625	17.8973	0.2052	-0.2354	0.7518	-0.5807
2.99	-0.3655	-9.0821	-2.1563	0.0008	-0.0051	0.0120	-19.5755	11.0900	17.7431	0.2052	-0.2354	0.7519	-0.5807
3	-0.3628	-9.0806	-2.1452	0.0102	-0.0021	0.0085	-19.3512	10.9850	17.8596	0.2052	-0.2353	0.7519	-0.5806
3.01	-0.3578	-9.0778	-2.1515	0.0151	-0.0039	0.0053	-19.5282	11.0967	17.9636	0.2052	-0.2353	0.7519	-0.5807
3.02	-0.3544	-9.0817	-2.1557	0.0156	-0.0038	0.0098	-19.7165	10.8752	17.7230	0.2052	-0.2353	0.7519	-0.5807
3.03	-0.3526	-9.0686	-2.1503	0.0143	-0.0027	0.0088	-19.6381	10.9897	17.8763	0.2052	-0.2353	0.7518	-0.5806
3.04	-0.3634	-9.0800	-2.1530	0.0140	0.0015	0.0044	-19.5184	10.9828	17.8033	0.2051	-0.2353	0.7519	-0.5807
3.05	-0.3614	-9.0819	-2.1628	0.0203	-0.0072	0.0061	-19.5862	11.0056	17.8057	0.2051	-0.2353	0.7519	-0.5807
3.06	-0.3628	-9.0749	-2.1630	0.0074	-0.0052	0.0091	-19.6684	10.9202	18.0629	0.2051	-0.2353	0.7519	-0.5808
3.07	-0.3596	-9.0774	-2.1776	0.0139	-0.0069	0.0082	-19.5260	10.8975	17.9327	0.2051	-0.2353	0.7518	-0.5807
3.08	-0.3544	-9.0804	-2.1803	0.0109	-0.0036	0.0053	-19.4630	10.9157	17.9246	0.2051	-0.2353	0.7519	-0.5807
3.09	-0.3531	-9.0802	-2.1864	0.0054	-0.0101	0.0047	-19.4635	11.0613	17.8235	0.2051	-0.2353	0.7519	-0.5807
3.1	-0.3479	-9.0703	-2.1826	0.0067	-0.0150	0.0111	-19.4657	10.7815	17.8929	0.2051	-0.2354	0.7519	-0.5806
3.11	-0.3486	-9.0773	-2.1877	0.0122	-0.0058	0.0104	-19.6176	10.9674	17.6406	0.2051	-0.2354	0.7520	-0.5807
3.12	-0.3492	-9.0804	-2.1956	0.0117	-0.0093	0.0072	-19.6564	10.9267	17.5591	0.2051	-0.2354	0.7519	-0.5807
3.13	-0.3530	-9.0707	-2.1832	0.0170	-0.0056	0.0076	-19.4726	11.0121	17.8941	0.2051	-0.2354	0.7519	-0.5807
3.14	-0.3597	-9.0712	-2.1783	0.0053	-0.0062	0.0077	-19.1191	11.1861	18.0446	0.2051	-0.2354	0.7519	-0.5806
3.15	-0.3605	-9.0783	-2.1839	0.0168	-0.0125	0.0116	-19.1190	11.0525	17.9816	0.2051	-0.2354	0.7519	-0.5807
3.16	-0.3609	-9.0704	-2.1793	0.0172	-0.0030	0.0060	-19.4216	11.3702	17.8592	0.2051	-0.2354	0.7519	-0.5807
3.17	-0.3546	-9.0747	-2.1751	0.0127	-0.0093	0.0077	-19.9175	11.5118	17.8826	0.2051	-0.2354	0.7519	-0.5807
3.18	-0.3497	-9.0791	-2.1769	0.0144	-0.0095	0.0049	-19.6496	11.3798	17.8583	0.2051	-0.2354	0.7519	-0.5807
3.19	-0.3481	-9.0788	-2.1751	0.0082	-0.0066	0.0061	-19.6984	11.0439	17.7374	0.2051	-0.2354	0.7519	-0.5807
3.2	-0.3351	-9.0673	-2.1569	0.0094	-0.0059	0.0079	-19.7848	11.2446	17.8584	0.2051	-0.2354	0.7519	-0.5807
3.21	-0.3380	-9.0885	-2.1901	0.0177	-0.0069	0.0097	-19.6453	11.1312	17.8683	0.2051	-0.2354	0.7518	-0.5806
3.22	-0.3376	-9.0904	-2.1956	0.0142	-0.0090	0.0054	-19.5926	11.1436	17.9874	0.2051	-0.2354	0.7519	-0.5807
3.23	-0.3328	-9.0543	-2.1657	0.0116	-0.0067	0.0079	-19.7126	11.1286	18.0801	0.2051	-0.2354	0.7519	-0.5807
3.24	-0.3198	-9.0864	-2.2021	0.0223	-0.0139	0.0126	-19.8575	11.1557	17.9701	0.2051	-0.2354	0.7519	-0.5807
3.25	-0.3229	-9.0875	-2.2042	0.0254	-0.0118	0.0111	-19.6414	10.9607	17.7775	0.2051	-0.2354	0.7518	-0.5808
3.26	-0.3234	-9.0512	-2.1650	0.0199	-0.0147	0.0120	-19.4621	10.9792	17.7768	0.2052	-0.2354	0.7518	-0.5808
3.27	-0.3211	-9.0869	-2.1948	0.0145	-0.0119	0.0152	-19.3775	10.9717	17.8528	0.2052	-0.2354	0.7518	-0.5808
3.28	-0.3115	-9.0832	-2.1877	0.0228	-0.0085	0.0090	-19.6056	11.0335	17.8985	0.2052	-0.2354	0.7517	-0.5808
3.29	-0.3109	-9.0659	-2.1554	0.0184	-0.0079	0.0125	-19.6492	11.1881	17.7390	0.2053	-0.2354	0.7518	-0.5809
3.3	-0.3208	-9.0830	-2.1669	0.0189	-0.0109	0.0133	-19.5933	11.0521	17.9934	0.2053	-0.2353	0.7517	-0.5808
3.31	-0.3255	-9.1094	-2.2047	0.0177	-0.0069	0.0074	-19.5126	10.9161	17.8387	0.2053	-0.2354	0.7518	-0.5809
3.32	-0.3257	-9.0554	-2.1456	0.0192	-0.0083	0.0054	-19.5131	11.1772	17.6628	0.2053	-0.2353	0.7516	-0.5809
3.33	-0.3407	-9.0723	-2.1657	0.0167	-0.0046	0.0144	-19.6742	11.1075	17.8276	0.2053	-0.2353	0.7517	-0.5809
3.34	-0.3550	-9.0868	-2.1797	0.0199	-0.0066	0.0102	-19.5819	11.0239	17.7461	0.2053	-0.2353	0.7517	-0.5809
3.35	-0.3582	-9.0666	-2.1533	0.0194	-0.0048	0.0077	-19.7873	11.1341	17.8799	0.2053	-0.2353	0.7516	-0.5809
3.36	-0.3608	-9.0786	-2.1722	0.0222	-0.0071	0.0031	-19.6424	11.1395	17.8530	0.2053	-0.2353	0.7517	-0.5811
3.37	-0.3737	-9.0649	-2.1554	0.0179	-0.0073	0.0110	-19.6756	11.0070	17.7829	0.2053	-0.2353	0.7516	-0.5810
3.38	-0.3768	-9.0607	-2.1410	0.0177	-0.0091	0.0117	-19.6695	11.1342	17.9798	0.2054	-0.2353	0.7516	-0.5811
3.39	-0.3644	-9.0819	-2.1386	0.0193	-0.0080	0.0052	-19.6656	11.1352	17.8710	0.2053	-0.2353	0.7515	-0.5810
3.4	-0.4160	-9.1076	-2.1962	-0.0069	0.0028	0.0290	-19.7794	11.1523	17.7417	0.2054	-0.2352	0.7516	-0.5810
3.41	-0.3156	-9.0291	-2.0572	0.0500	-0.0223	-0.0189	-19.8484	11.0879	17.6847	0.2054	-0.2353	0.7515	-0.5811
3.42	-0.4707	-9.1264	-2.2964	-0.0396	0.0155	0.0553	-19.7669	11.0377	17.9838	0.2054	-0.2351	0.7517	-0.5809
3.43	-0.1713	-9.0313	-1.9617	0.1084	-0.0474	-0.0630	-19.6484	10.9894	17.8548	0.2054	-0.2354	0.7513	-0.5813
3.44	-0.6427	-9.0853	-2.3833	-0.1189	0.0458	0.1340	-19.4362	10.8189	17.7853	0.2054	-0.2350	0.7518	-0.5808
3.45	0.1234	-9.0343	-1.6878	0.2554	-0.1091	-0.1845	-19.4135	10.8680	17.7942	0.2055	-0.2356	0.7509	-0.5818
3.46	-1.1314	-9.1606	-2.8965	-0.3567	0.1483	0.3146	-19.4360	10.9152	17.8035	0.2054	-0.2346	0.7523	-0.5802
3.47	1.0407	-8.9158	-0.7902	0.7173	-0.2820	-0.5265	-19.4038	10.7822	17.7808	0.2057	-0.2363	0.7497	-0.5830
3.48	-0.0936	-3.9635	-0.9346	-3.2088	0.9061	1.9483	-19.4625	11.1497	17.6976	0.2043	-0.2309	0.7601	-0.5718
3.49	-4.0193	2.7696	1.8903	-0.3411	-0.0081	-0.8653	-19.5450	11.0341	18.2219	0.2016	-0.2323	0.7628	-0.5688
3.5	6.2345	-9.5915	-0.1290	-0.0269	-0.8896	-2.4669	-19.4743	10.6302	18.2594	0.1978	-0.2447	0.7581	-0.5712
3.51	-0.5829	-9.1067	-2.9871	-0.6401	0.2383	0.0285	-19.9068	9.8767	18.1002	0.1959	-0.2455	0.7603	-0.5686
3.52	0.7523	-10.0226	-2.7658	-0.1429	-0.0328	-0.3909	-20.1983	9.6907	18.2917	0.1946	-0.2470	0.7602	-0.5686
3.53	1.4850	-10.0300	-2.5894	0.0661	0.1840	0.5806	-20.3518	9.6491	18.4223	0.1953	-0.2448	0.7609	-0.5681
3.54	-0.9948	-8.4564	-3.1231	0.3744	0.3774	0.7292	-20.1797	9.6294	18.5558	0.1964	-0.2406	0.7612	-0.5694
3.55	-1.5667	-6.4533	-0.9961	0.4193	0.0935	0.2616	-20.2273	9.9096	18.4237	0.1973	-0.2385	0.7605	-0.5707
3.56	0.3891	-10.0428	-4.7182	-0.6679	0.1869	-0.3291	-20.3658	10.0714	18.2783	0.1951	-0.2398	0.7621	-0.5691
3.57	-0.4750	-9.2476	-4.8296	2.2834	-0.4851	0.6741	-20.2242	9.9337	18.3774	0.2002	-0.2370	0.7570	-0.5750
3.58	-0.1886	-2.2427	3.3367	1.2627	-0.3057	0.3526	-20.1025	10.1343	18.0366	0.2049	-0.2348	0.7525	-0.5803
3.59	-0.3609	-11.5976	-4.4546	-0.4754	0.0911	-0.0713	-19.7392	11.1171	17.7844	0.2037	-0.2354	0.7539	-0.5786
3.6	-0.3718	-7.6926	-1.1009	0.3032	-0.0617	0.0783	-19.7516	11.0835	18.0707	0.2044	-0.2349	0.7531	-0.5795
3.61	-0.2788	-9.8599	-2.8622	-0.1400	0.0256	-0.0228	-19.7526	10.8424	17.9340	0.2040	-0.2351	0.7536	-0.5791
3.62	-0.3550	-8.4776	-1.7316	0.1274	-0.0308	0.0447	-19.7352	10.9067	17.8732	0.2043	-0.2349	0.7532	-0.5794
3.63	-0.2698	-9.4280	-2.4711	-0.0450	0.0056	-0.0022	-19.3301	10.6473	18.0951	0.2042	-0.2350	0.7534	-0.5792
3.64	-0.3164	-8.7903	-1.9631	0.0678	-0.0166	0.0207	-19.1453	10.7218	17.9691	0.2043	-0.2349	0.7532	-0.5794
3.65	-0.2946	-9.1685	-2.2535	-0.0015	-0.0032	0.0099	-19.0974	10.9515	17.8162	0.2043	-0.2349	0.7533	-0.5794
3.66	-0.3246	-8.9965	-2.1206	0.0339	-0.0134	0.0154	-19.2436	10.8179	17.8610	0.2044	-0.2349	0.7532	-0.5794
3.67	-0.3346	-9.0421	-2.1451	0.0101	-0.0078	0.0165	-19.3979	10.9357	17.7561	0.2044	-0.2349	0.7532	-0.5794
3.68	-0.3488	-9.0406	-2.1578	0.0143	-0.0072	0.0111	-19.6982	11.0285	17.9594	0.2044	-0.2349	0.7532	-0.5794
3.69	-0.3584	-9.0532	-2.1665	0.0188	-0.0070	0.0105	-19.6462	10.7607	17.9949	0.2044	-0.2348	0.7532	-0.5794
3.7	-0.3591	-9.0280	-2.1428	0.0227	-0.0084	0.0081	-19.7937	10.7149	17.6997	0.2044	-0.2348	0.7532	-0.5795
3.71	-0.3578	-9.0425	-2.1702	0.0197	-0.0111	0.0122	-19.8186	10.5579	17.8781	0.2044	-0.2348	0.7531	-0.5794
3.72	-0.3436	-9.0424	-2.1703	0.0221	-0.0100	0.0118	-19.6639	10.7182	17.7931	0.2045	-0.2348	0.7532	-0.5795
3.73	-0.3322	-9.0386	-2.1882	0.0154	-0.0058	0.0052	-19.8248	10.7656	17.7846	0.2045	-0.2348	0.7531	-0.5795
3.74	-0.3260	-9.0370	-2.1864	0.0144	-0.0028	0.0083	-19.8749	10.7463	17.8739	0.2045	-0.2348	0.7531	-0.5796
3.75	-0.3185	-9.0393	-2.1920	0.0148	-0.0057	0.0102	-19.5879	10.7645	17.7333	0.2045	-0.2348	0.7531	-0.5795
3.76	-0.3179	-9.0461	-2.2088	0.0148	0.0012	0.0051	-19.6797	10.7516	17.8861	0.2044	-0.2348	0.7531	-0.5796
3.77	-0.3223	-9.0353	-2.1975	0.0190	-0.0062	0.0060	-19.5875	10.7946	17.8033	0.2044	-0.2348	0.7531	-0.5796
3.78	-0.3258	-9.0361	-2.1991	0.0171	-0.0056	0.0118	-19.8175	10.9451	17.9514	0.2044	-0.2347	0.7530	-0.5796
3.79	-0.3311	-9.0517	-2.2073	0.0106	-0.0058	0.0115	-19.8730	10.7854	17.7923	0.2044	-0.2348	0.7531	-0.5797
3.8	-0.3311	-9.0405	-2.1913	0.0228	-0.0052	0.0080	-19.8009	11.0596	17.7470	0.2044	-0.2347	0.7530	-0.5797
3.81	-0.3299	-9.0382	-2.1879	0.0182	-0.0125	0.0131	-19.7373	11.0068	17.7248	0.2045	-0.2347	0.7531	-0.5797
3.82	-0.3225	-9.0480	-2.1995	0.0166	-0.0088	0.0107	-19.7178	10.6860	17.8818	0.2045	-0.2347	0.7530	-0.5797
3.83	-0.3205	-9.0361	-2.1913	0.0171	-0.0081	0.0132	-19.6992	10.9313	17.7725	0.2045	-0.2347	0.7530	-0.5797
3.84	-0.3195	-9.0360	-2.1832	0.0221	-0.0058	0.0085	-19.4515	10.8456	17.8199	0.2045	-0.2347	0.7530	-0.5798
3.85	-0.3189	-9.0501	-2.1986	0.0137	0.0002	0.0034	-19.5389	10.6207	17.7834	0.2045	-0.2347	0.7529	-0.5797
3.86	-0.3205	-9.0380	-2.1880	0.0159	-0.0105	0.0103	-19.8482	10.9874	17.6522	0.2045	-0.2347	0.7530	-0.5798
3.87	-0.3239	-9.0376	-2.1897	0.0209	-0.0069	0.0096	-19.6336	11.1149	17.7568	0.2045	-0.2347	0.7529	-0.5798
3.88	-0.3321	-9.0480	-2.1971	0.0202	-0.0091	0.0101	-19.7070	10.8304	17.8094	0.2045	-0.2347	0.7530	-0.5799
3.89	-0.3356	-9.0382	-2.1883	0.0138	-0.0069	0.0072	-19.7213	10.8581	17.8542	0.2045	-0.2346	0.7529	-0.5798
3.9	-0.3359	-9.0446	-2.1949	0.0179	-0.0152	0.0127	-19.7238	10.6947	17.7255	0.2045	-0.2347	0.7529	-0.5799
3.91	-0.3331	-9.0417	-2.1975	0.0123	-0.0080	0.0097	-19.8472	10.8843	17.7628	0.2046	-0.2347	0.7529	-0.5799
3.92	-0.3252	-9.0406	-2.1928	0.0102	0.0036	0.0084	-19.7060	10.8636	17.7405	0.2045	-0.2346	0.7529	-0.5799
3.93	-0.3187	-9.0464	-2.1972	0.0133	-0.0055	0.0058	-19.7326	10.8436	17.7509	0.2045	-0.2346	0.7529	-0.5799
3.94	-0.3150	-9.0423	-2.1901	0.0097	-0.0052	0.0041	-19.6958	10.8039	17.7590	0.2045	-0.2347	0.7529	-0.5799
3.95	-0.3127	-9.0394	-2.1799	0.0107	-0.0037	0.0055	-19.7897	10.9717	17.9342	0.2045	-0.2347	0.7529	-0.5799
3.96	-0.3150	-9.0453	-2.1910	0.0131	-0.0096	0.0050	-19.8131	10.9543	17.9019	0.2044	-0.2347	0.7528	-0.5798
3.97	-0.3178	-9.0398	-2.1871	0.0067	-0.0011	0.0075	-19.7050	10.6932	18.0732	0.2044	-0.2347	0.7529	-0.5799
3.98	-0.3252	-9.0366	-2.1767	0.0144	-0.0016	0.0070	-19.8804	10.9628	17.9058	0.2044	-0.2347	0.7529	-0.5799
3.99	-0.3341	-9.0404	-2.1663	0.0193	-0.0087	0.0124	-19.8605	11.0400	17.7998	0.2044	-0.2347	0.7529	-0.5799
4	-0.3361	-9.0468	-2.1624	0.0135	-0.0091	0.0139	-19.5052	10.8058	17.8630	0.2044	-0.2346	0.7529	-0.5799
4.01	-0.3368	-9.0389	-2.1607	0.0080	-0.0090	0.0094	-19.5073	10.8789	17.8250	0.2044	-0.2346	0.7529	-0.5799
4.02	-0.3370	-9.0398	-2.1563	0.0041	-0.0098	0.0132	-19.5858	10.9266	17.8572	0.2044	-0.2346	0.7529	-0.5799
4.03	-0.3286	-9.0407	-2.1604	0.0030	-0.0087	0.0062	-19.5484	10.6376	17.8287	0.2044	-0.2346	0.7529	-0.5798
4.04	-0.3222	-9.0468	-2.1579	0.0149	-0.0075	0.0124	-19.5713	10.7065	17.8805	0.2045	-0.2347	0.7530	-0.5799
4.05	-0.3225	-9.0439	-2.1613	0.0064	-0.0083	0.0096	-19.7023	10.8985	17.7619	0.2044	-0.2346	0.7530	-0.5798
4.06	-0.3332	-9.0427	-2.1743	0.0050	-0.0093	0.0069	-19.7179	10.9533	17.5878	0.2045	-0.2347	0.7530	-0.5798
4.07	-0.3428	-9.0397	-2.1817	0.0011	-0.0128	0.0063	-19.7995	10.7989	17.8922	0.2044	-0.2347	0.7530	-0.5797
4.08	-0.3508	-9.0356	-2.1908	0.0083	-0.0066	0.0059	-19.7954	10.7791	17.6640	0.2044	-0.2347	0.7530	-0.5797
4.09	-0.3525	-9.0368	-2.1845	0.0117	-0.0143	0.0143	-19.6364	10.8382	17.7251	0.2045	-0.2347	0.7530	-0.5797
4.1	-0.3438	-9.0408	-2.1974	0.0125	-0.0041	0.0074	-19.6523	10.9229	17.7431	0.2044	-0.2347	0.7530	-0.5797
4.11	-0.3407	-9.0443	-2.2006	0.0064	-0.0067	0.0062	-19.6183	10.9061	17.8648	0.2044	-0.2348	0.7531	-0.5798
4.12	-0.3349	-9.0460	-2.2102	0.0108	-0.0014	0.0055	-19.5856	10.7283	18.0754	0.2044	-0.2347	0.7530	-0.5797
4.13	-0.3307	-9.0431	-2.2092	0.0059	-0.0026	0.0031	-19.6592	11.1508	17.9665	0.2044	-0.2348	0.7531	-0.5797
4.14	-0.3286	-9.0375	-2.2029	0.0078	-0.0042	0.0016	-19.2940	10.9633	18.1312	0.2043	-0.2348	0.7530	-0.5796
4.15	-0.3316	-9.0407	-2.2011	0.0164	-0.0061	0.0140	-19.1094	10.9550	18.1506	0.2043	-0.2348	0.7531	-0.5797
4.16	-0.3252	-9.0413	-2.2079	0.0060	-0.0045	0.0075	-19.6269	11.1046	17.9202	0.2043	-0.2348	0.7531	-0.5797
4.17	-0.3308	-9.0403	-2.2093	0.0094	-0.0066	0.0045	-19.8743	11.0655	17.8199	0.2043	-0.2348	0.7531	-0.5797
4.18	-0.3323	-9.0411	-2.2032	0.0196	-0.0110	0.0102	-19.7513	11.0649	17.8160	0.2043	-0.2348	0.7531	-0.5797
4.19	-0.3297	-9.0467	-2.2144	0.0111	-0.0078	0.0091	-19.5978	10.5723	17.7727	0.2043	-0.2348	0.7530	-0.5797
4.2	-0.3225	-9.0388	-2.1988	0.0154	-0.0139	0.0119	-19.5600	10.7662	17.7281	0.2044	-0.2348	0.7531	-0.5797
4.21	-0.3190	-9.0375	-2.1880	0.0057	-0.0110	0.0154	-19.5792	10.9074	17.7037	0.2044	-0.2347	0.7530	-0.5796
4.22	-0.3133	-9.0441	-2.1964	0.0086	-0.0084	0.0094	-19.4733	10.8680	17.7691	0.2044	-0.2348	0.7531	-0.5797
4.23	-0.3123	-9.0460	-2.1942	0.0099	-0.0122	0.0139	-19.6502	10.7811	17.9347	0.2044	-0.2348	0.7531	-0.5796
4.24	-0.3080	-9.0458	-2.1860	0.0146	-0.0079	0.0117	-19.6449	10.8295	17.8966	0.2044	-0.2348	0.7531	-0.5797
4.25	-0.3035	-9.0427	-2.1876	0.0148	-0.0076	0.0110	-19.6724	10.6969	17.8957	0.2044	-0.2347	0.7530	-0.5796
4.26	-0.3082	-9.0453	-2.1872	0.0150	-0.0077	0.0134	-19.4937	10.7392	17.8184	0.2045	-0.2347	0.7530	-0.5797
4.27	-0.3149	-9.0405	-2.1719	0.0149	-0.0118	0.0128	-19.5807	10.6960	17.9456	0.2045	-0.2347	0.7531	-0.5797
4.28	-0.3214	-9.0438	-2.1667	0.0138	-0.0093	0.0154	-19.7647	10.8072	17.8644	0.2045	-0.2347	0.7530	-0.5796
4.29	-0.3278	-9.0435	-2.1668	0.0115	-0.0067	0.0107	-19.7205	10.8850	18.0340	0.2045	-0.2347	0.7531	-0.5797
4.3	-0.3339	-9.0430	-2.1614	0.0061	-0.0093	0.0064	-19.7614	10.7804	17.9195	0.2045	-0.2347	0.7530	-0.5796
4.31	-0.3385	-9.0412	-2.1638	0.0123	-0.0091	0.0087	-19.9058	11.0304	17.8870	0.2045	-0.2347	0.7531	-0.5797
4.32	-0.3415	-9.0462	-2.1749	0.0138	-0.0069	0.0070	-19.8085	11.1409	17.8907	0.2045	-0.2347	0.7530	-0.5796
4.33	-0.3461	-9.0451	-2.1717	0.0077	-0.0046	0.0062	-19.8220	11.1231	17.7799	0.2045	-0.2347	0.7531	-0.5797
4.34	-0.3497	-9.0384	-2.1732	0.0082	-0.0061	0.0049	-19.8001	11.1416	17.8027	0.2045	-0.2347	0.7531	-0.5797
4.35	-0.3498	-9.0427	-2.1751	0.0070	-0.0072	0.0097	-19.8434	11.0672	17.8048	0.2044	-0.2347	0.7530	-0.5796
4.36	-0.3523	-9.0402	-2.1756	0.0074	-0.0089	0.0121	-19.6797	10.9384	17.7012	0.2045	-0.2348	0.7532	-0.5797
4.37	-0.3541	-9.0358	-2.1760	0.0099	-0.0073	0.0075	-19.8298	10.8683	17.7460	0.2045	-0.2347	0.7531	-0.5796
4.38	-0.3514	-9.0404	-2.1798	0.0126	-0.0076	0.0062	-19.6519	10.6719	17.8644	0.2045	-0.2348	0.7531	-0.5796
4.39	-0.3535	-9.0443	-2.1867	0.0133	-0.0075	0.0128	-19.4338	10.5386	17.6962	0.2044	-0.2347	0.7530	-0.5796
4.4	-0.3505	-9.0395	-2.1802	0.0122	-0.0076	0.0132	-19.7232	10.6685	17.8966	0.2045	-0.2347	0.7531	-0.5796
4.41	-0.3442	-9.0424	-2.1899	0.0138	-0.0076	0.0149	-19.5836	10.9309	17.8328	0.2045	-0.2347	0.7531	-0.5796
4.42	-0.3366	-9.0441	-2.1883	0.0150	-0.0087	0.0074	-19.5567	11.0047	17.8655	0.2045	-0.2347	0.7531	-0.5796
4.43	-0.3286	-9.0473	-2.1965	0.0055	-0.0109	0.0093	-19.6785	10.7706	17.9265	0.2045	-0.2347	0.7531	-0.5796
4.44	-0.3225	-9.0416	-2.1886	0.0081	-0.0101	0.0178	-19.6179	10.8087	17.6210	0.2045	-0.2347	0.7531	-0.5796
4.45	-0.3159	-9.0391	-2.1861	0.0127	-0.0089	0.0072	-19.7233	10.6060	17.9106	0.2046	-0.2347	0.7531	-0.5796
4.46	-0.3130	-9.0446	-2.1863	0.0141	-0.0116	0.0100	-19.7334	10.7957	17.8228	0.2045	-0.2347	0.7530	-0.5795
4.47	-0.3123	-9.0492	-2.1888	0.0133	-0.0088	0.0096	-19.7432	10.9193	17.5878	0.2046	-0.2347	0.7531	-0.5796
4.48	-0.3158	-9.0423	-2.1898	0.0024	-0.0050	0.0106	-19.8438	11.0077	17.9862	0.2046	-0.2347	0.7531	-0.5796
4.49	-0.3189	-9.0474	-2.1933	0.0055	-0.0006	0.0060	-19.8052	11.0843	17.8999	0.2045	-0.2347	0.7532	-0.5796
4.5	-0.3232	-9.0457	-2.1918	0.0120	-0.0081	0.0091	-19.8123	10.9270	17.8782	0.2045	-0.2347	0.7531	-0.5795
4.51	-0.3255	-9.0363	-2.1876	0.0124	-0.0068	0.0107	-19.9396	10.7796	18.0266	0.2045	-0.2347	0.7531	-0.5795
4.52	-0.3241	-9.0454	-2.1965	0.0091	-0.0048	0.0050	-19.9941	10.9663	17.9032	0.2045	-0.2347	0.7532	-0.5796
4.53	-0.3272	-9.0456	-2.2065	0.0060	-0.0024	0.0049	-19.9142	10.9590	17.8839	0.2044	-0.2347	0.7531	-0.5795
4.54	-0.3227	-9.0340	-2.1881	0.0033	-0.0041	0.0075	-19.7757	10.9653	17.9025	0.2044	-0.2347	0.7532	-0.5795
4.55	-0.3228	-9.0441	-2.1954	0.0124	-0.0112	0.0060	-19.7493	10.9668	17.7421	0.2044	-0.2347	0.7532	-0.5795
4.56	-0.3186	-9.0518	-2.1910	0.0121	-0.0106	0.0119	-19.8601	10.7229	17.7175	0.2045	-0.2348	0.7532	-0.5796
4.57	-0.3122	-9.0361	-2.1832	0.0121	-0.0061	0.0092	-19.6358	10.7325	17.8149	0.2044	-0.2347	0.7531	-0.5795
4.58	-0.3090	-9.0382	-2.1790	0.0206	-0.0104	0.0127	-19.4406	10.6962	17.8447	0.2045	-0.2347	0.7531	-0.5795
4.59	-0.3064	-9.0483	-2.1884	0.0112	-0.0041	0.0078	-19.5733	10.6365	17.7521	0.2045	-0.2347	0.7531	-0.5795
4.6	-0.3073	-9.0377	-2.1839	0.0116	-0.0053	0.0138	-19.5005	10.6258	17.7219	0.2045	-0.2347	0.7531	-0.5795
4.61	-0.3130	-9.0398	-2.1790	0.0130	-0.0092	0.0135	-19.4892	10.6787	17.8228	0.2045	-0.2347	0.7532	-0.5796
4.62	-0.3181	-9.0493	-2.1894	0.0132	-0.0085	0.0159	-19.7541	10.8193	17.6938	0.2045	-0.2347	0.7531	-0.5795
4.63	-0.3216	-9.0418	-2.1891	0.0131	-0.0099	0.0113	-19.6408	10.8483	17.7588	0.2046	-0.2347	0.7532	-0.5796
4.64	-0.3255	-9.0372	-2.1844	0.0200	-0.0080	0.0080	-19.3241	10.9855	18.0178	0.2045	-0.2346	0.7531	-0.5795
4.65	-0.3289	-9.0425	-2.1830	0.0158	-0.0107	0.0118	-19.0001	10.8740	18.2400	0.2046	-0.2347	0.7531	-0.5796
4.66	-0.3309	-9.0446	-2.1886	0.0117	-0.0046	0.0066	-19.5121	10.9253	17.9379	0.2046	-0.2347	0.7531	-0.5796
4.67	-0.3299	-9.0398	-2.1802	0.0111	-0.0091	0.0104	-19.6622	11.1144	18.1003	0.2046	-0.2347	0.7531	-0.5796
4.68	-0.3258	-9.0423	-2.1841	0.0152	-0.0067	0.0074	-19.7793	11.1169	17.7602	0.2046	-0.2347	0.7531	-0.5796
4.69	-0.3267	-9.0414	-2.1919	0.0104	-0.0039	0.0054	-19.8836	10.8398	17.8936	0.2045	-0.2347	0.7531	-0.5796
4.7	-0.3310	-9.0417	-2.1942	0.0138	-0.0045	0.0084	-19.7594	10.8347	17.7156	0.2045	-0.2347	0.7531	-0.5796
4.71	-0.3365	-9.0393	-2.1935	0.0066	-0.0037	0.0061	-19.8162	10.9249	17.9388	0.2045	-0.2346	0.7530	-0.5796
4.72	-0.3411	-9.0383	-2.1939	0.0082	0.0001	0.0083	-19.7938	10.9299	17.9932	0.2045	-0.2347	0.7531	-0.5796
4.73	-0.3452	-9.0445	-2.1952	0.0095	-0.0049	0.0043	-19.8014	10.9291	17.7763	0.2044	-0.2347	0.7531	-0.5796
4.74	-0.3456	-9.0421	-2.1923	0.0156	-0.0059	0.0136	-19.8075	10.9151	17.8814	0.2045	-0.2346	0.7531	-0.5796
4.75	-0.3542	-9.0408	-2.1951	0.0189	-0.0135	0.0117	-19.7103	10.9539	17.7030	0.2045	-0.2346	0.7531	-0.5796
4.76	-0.3499	-9.0393	-2.1940	0.0130	-0.0101	0.0136	-19.6032	10.8831	18.0500	0.2045	-0.2346	0.7531	-0.5796
4.77	-0.3484	-9.0421	-2.1960	0.0125	-0.0076	0.0070	-19.5294	10.6672	17.9086	0.2045	-0.2346	0.7531	-0.5797
4.78	-0.3413	-9.0351	-2.1862	0.0162	-0.0063	0.0111	-19.6396	10.7409	17.7263	0.2045	-0.2346	0.7530	-0.5796
4.79	-0.3340	-9.0455	-2.1906	0.0101	-0.0091	0.0064	-19.7293	10.9009	17.8652	0.2045	-0.2347	0.7531	-0.5797
4.8	-0.3298	-9.0462	-2.1902	0.0105	-0.0076	0.0114	-19.7166	11.0277	17.8074	0.2045	-0.2346	0.7531	-0.5797
4.81	-0.3255	-9.0402	-2.1806	0.0053	-0.0071	0.0094	-19.6704	10.8148	17.6529	0.2045	-0.2347	0.7531	-0.5797
4.82	-0.3221	-9.0423	-2.1816	0.0097	-0.0106	0.0043	-19.5139	10.9546	17.6801	0.2045	-0.2347	0.7530	-0.5796
4.83	-0.3226	-9.0431	-2.1854	0.0199	-0.0032	0.0134	-19.7014	10.8104	17.7408	0.2045	-0.2346	0.7531	-0.5797
4.84	-0.3215	-9.0389	-2.1782	0.0136	-0.0083	0.0040	-19.6877	11.0577	17.8240	0.2045	-0.2347	0.7531	-0.5797
4.85	-0.3216	-9.0452	-2.1777	0.0145	-0.0030	0.0091	-19.8545	10.8459	17.7500	0.2045	-0.2346	0.7530	-0.5797
4.86	-0.3260	-9.0472	-2.1824	0.0125	-0.0037	0.0088	-19.9739	10.7508	17.7659	0.2045	-0.2346	0.7531	-0.5798
4.87	-0.3260	-9.0402	-2.1780	0.0062	-0.0084	0.0078	-19.8275	11.0073	17.9648	0.2045	-0.2346	0.7530	-0.5797
4.88	-0.3269	-9.0394	-2.1739	0.0134	-0.0051	0.0057	-19.7486	10.8193	17.9172	0.2045	-0.2347	0.7531	-0.5797
4.89	-0.3285	-9.0417	-2.1740	0.0116	-0.0057	0.0041	-19.6285	10.9522	17.8407	0.2044	-0.2346	0.7530	-0.5797
4.9	-0.3245	-9.0418	-2.1771	0.0118	-0.0049	0.0060	-19.6347	10.9034	17.7207	0.2044	-0.2347	0.7531	-0.5797
4.91	-0.3209	-9.0365	-2.1805	0.0119	-0.0073	0.0087	-19.8076	10.8326	17.7600	0.2044	-0.2347	0.7530	-0.5797
4.92	-0.3167	-9.0407	-2.1853	0.0081	-0.0029	0.0099	-19.9802	11.1141	17.7282	0.2044	-0.2346	0.7530	-0.5797
4.93	-0.3104	-9.0409	-2.1867	0.0138	-0.0061	0.0114	-19.8597	10.9873	17.7472	0.2044	-0.2346	0.7531	-0.5797
4.94	-0.3094	-9.0427	-2.1830	0.0183	-0.0109	0.0107	-19.7545	10.7783	17.8791	0.2044	-0.2346	0.7530	-0.5797
4.95	-0.3107	-9.0412	-2.1829	0.0066	-0.0104	0.0109	-19.3236	10.7532	17.7734	0.2044	-0.2346	0.7531	-0.5797
4.96	-0.3130	-9.0429	-2.1942	0.0083	-0.0105	0.0100	-19.6644	10.8500	17.7455	0.2044	-0.2346	0.7530	-0.5797
4.97	-0.3129	-9.0438	-2.1896	0.0033	-0.0088	0.0111	-19.6948	10.8520	17.7445	0.2045	-0.2347	0.7531	-0.5797
4.98	-0.3173	-9.0379	-2.1980	0.0027	-0.0097	0.0071	-19.5168	10.8570	17.7861	0.2044	-0.2347	0.7531	-0.5796
4.99	-0.3209	-9.0457	-2.2097	0.0069	-0.0110	0.0070	-19.7778	10.8366	17.9304	0.2044	-0.2347	0.7531	-0.5796
5	-0.3155	-9.0495	-2.2162	0.0125	-0.0087	0.0061	-19.5842	10.9477	17.9329	0.2044	-0.2347	0.7531	-0.5796
5.01	-0.3213	-9.0311	-2.1949	0.0064	-0.0102	0.0064	-19.6996	10.7936	17.7765	0.2044	-0.2347	0.7531	-0.5796
5.02	-0.3265	-9.0441	-2.2005	0.0081	-0.0107	0.0060	-19.6548	10.7594	17.5814	0.2044	-0.2348	0.7531	-0.5796
5.03	-0.3327	-9.0460	-2.2021	0.0079	-0.0064	0.0066	-19.6209	10.7569	17.8837	0.2044	-0.2348	0.7530	-0.5795
5.04	-0.3415	-9.0357	-2.1921	0.0018	-0.0061	0.0046	-19.7290	10.8699	17.7821	0.2044	-0.2348	0.7532	-0.5796
5.05	-0.3519	-9.0373	-2.1915	0.0158	-0.0099	0.0042	-19.6028	10.9629	18.0967	0.2044	-0.2348	0.7531	-0.5796
5.06	-0.3542	-9.0387	-2.1870	0.0090	-0.0045	0.0045	-19.7045	10.8710	17.9133	0.2044	-0.2349	0.7532	-0.5796
5.07	-0.3509	-9.0414	-2.1874	0.0135	-0.0061	0.0065	-19.8145	10.7279	17.7080	0.2043	-0.2348	0.7531	-0.5796
5.08	-0.3487	-9.0406	-2.1867	0.0091	-0.0077	0.0054	-19.7662	10.9149	17.8782	0.2043	-0.2349	0.7531	-0.5796
5.09	-0.3430	-9.0379	-2.1810	0.0144	-0.0071	0.0060	-19.7262	10.8889	17.8200	0.2043	-0.2349	0.7531	-0.5796
5.1	-0.3413	-9.0441	-2.1754	0.0149	-0.0094	0.0066	-19.9144	10.8114	17.8200	0.2043	-0.2349	0.7530	-0.5796
5.11	-0.3407	-9.0431	-2.1756	0.0130	-0.0093	0.0072	-19.7692	10.9590	18.0572	0.2044	-0.2349	0.7531	-0.5797
5.12	-0.3408	-9.0378	-2.1698	0.0167	-0.0102	0.0095	-19.5750	10.9007	17.7996	0.2044	-0.2349	0.7530	-0.5796
5.13	-0.3431	-9.0377	-2.1796	0.0193	-0.0081	0.0057	-19.5106	10.9950	17.7796	0.2044	-0.2349	0.7531	-0.5797
5.14	-0.3373	-9.0355	-2.1726	0.0065	-0.0130	0.0062	-19.3872	11.1046	17.9503	0.2044	-0.2349	0.7530	-0.5796
5.15	-0.3303	-9.0426	-2.1769	0.0158	-0.0116	0.0129	-19.2848	11.0909	17.9864	0.2044	-0.2349	0.7530	-0.5797
5.16	-0.3305	-9.0450	-2.1755	0.0124	-0.0133	0.0156	-19.4402	10.9197	18.0427	0.2044	-0.2349	0.7530	-0.5797
5.17	-0.3257	-9.0425	-2.1721	0.0101	-0.0113	0.0100	-19.6193	11.0074	17.8005	0.2045	-0.2349	0.7530	-0.5796
5.18	-0.3168	-9.0404	-2.1753	0.0110	-0.0082	0.0112	-19.6058	10.9986	17.9059	0.2045	-0.2349	0.7530	-0.5797
5.19	-0.3173	-9.0426	-2.1833	0.0076	-0.0091	0.0119	-19.6095	10.7441	17.9772	0.2045	-0.2349	0.7530	-0.5796
5.2	-0.3163	-9.0419	-2.1822	0.0150	-0.0067	0.0069	-19.6926	10.7200	18.0129	0.2045	-0.2349	0.7530	-0.5797
5.21	-0.3176	-9.0415	-2.1810	0.0205	-0.0131	0.0120	-19.6405	10.8277	17.7824	0.2045	-0.2349	0.7529	-0.5796
5.22	-0.3172	-9.0424	-2.1896	0.0203	-0.0115	0.0148	-19.7825	10.9039	17.8198	0.2046	-0.2349	0.7530	-0.5797
5.23	-0.3165	-9.0385	-2.1945	0.0166	-0.0036	-0.0000	-19.8516	11.0814	17.8742	0.2045	-0.2349	0.7529	-0.5797
5.24	-0.3166	-9.0396	-2.1922	0.0091	-0.0009	0.0054	-19.7670	11.1817	17.9511	0.2045	-0.2349	0.7529	-0.5798
5.25	-0.3207	-9.0385	-2.1925	0.0186	-0.0093	0.0057	-19.7277	11.0495	17.8868	0.2045	-0.2349	0.7529	-0.5798
5.26	-0.3254	-9.0389	-2.1940	0.0085	-0.0067	0.0026	-19.8919	10.9387	17.7539	0.2045	-0.2349	0.7529	-0.5798
5.27	-0.3321	-9.0423	-2.1957	0.0133	-0.0096	0.0070	-19.9034	11.0581	18.0328	0.2045	-0.2350	0.7529	-0.5798
5.28	-0.3371	-9.0316	-2.1888	0.0140	-0.0051	0.0073	-19.9396	10.9797	18.0667	0.2044	-0.2349	0.7528	-0.5797
5.29	-0.3360	-9.0443	-2.1878	0.0141	-0.0088	0.0057	-19.7698	10.9927	17.9454	0.2045	-0.2350	0.7529	-0.5798
5.3	-0.3375	-9.0471	-2.1909	0.0146	-0.0112	0.0123	-19.5402	10.9426	17.6847	0.2045	-0.2350	0.7528	-0.5798
5.31	-0.3312	-9.0398	-2.1841	0.0212	-0.0139	0.0127	-19.8060	10.6868	17.8062	0.2045	-0.2350	0.7529	-0.5799
5.32	-0.3307	-9.0426	-2.1854	0.0160	-0.0073	0.0090	-19.5436	10.8679	17.7044	0.2045	-0.2350	0.7528	-0.5798
5.33	-0.3197	-9.0430	-2.1869	0.0214	-0.0083	0.0066	-19.6118	10.7669	17.6185	0.2045	-0.2350	0.7528	-0.5799
5.34	-0.3148	-9.0403	-2.1868	0.0152	-0.0069	0.0071	-19.6788	10.7547	17.7722	0.2045	-0.2350	0.7528	-0.5799
5.35	-0.3194	-9.0372	-2.1831	0.0189	-0.0062	0.0099	-19.6416	10.6378	17.5916	0.2045	-0.2349	0.7527	-0.5799
5.36	-0.3171	-9.0464	-2.1881	0.0200	-0.0097	0.0130	-19.6765	10.6826	17.7660	0.2046	-0.2350	0.7528	-0.5800
5.37	-0.3239	-9.0378	-2.1894	0.0144	-0.0084	0.0122	-19.6373	10.9737	17.7797	0.2046	-0.2349	0.7527	-0.5800
5.38	-0.3247	-9.0378	-2.1832	0.0184	-0.0060	0.0074	-19.7368	10.8171	17.6280	0.2046	-0.2349	0.7527	-0.5800
5.39	-0.3262	-9.0387	-2.1920	0.0167	-0.0085	0.0092	-19.7267	10.7999	17.6032	0.2046	-0.2349	0.7526	-0.5800
5.4	-0.3306	-9.0428	-2.1841	0.0208	-0.0150	0.0138	-19.7750	10.8621	17.7716	0.2047	-0.2349	0.7527	-0.5801
5.41	-0.3309	-9.0380	-2.1835	0.0168	-0.0096	0.0074	-19.8230	11.1744	17.7583	0.2047	-0.2349	0.7526	-0.5801
5.42	-0.3271	-9.0411	-2.1873	0.0143	0.0008	0.0059	-19.9007	10.8533	17.9471	0.2046	-0.2349	0.7526	-0.5801
5.43	-0.3291	-9.0432	-2.1931	0.0155	0.0021	0.0068	-19.8250	11.0190	18.0638	0.2046	-0.2349	0.7526	-0.5801
5.44	-0.3277	-9.0346	-2.1783	0.0139	-0.0002	0.0069	-19.8368	11.0470	17.9437	0.2046	-0.2349	0.7526	-0.5802
5.45	-0.3309	-9.0386	-2.1903	0.0173	-0.0074	0.0088	-19.7776	10.9332	17.9443	0.2046	-0.2349	0.7526	-0.5802
5.46	-0.3362	-9.0370	-2.1838	0.0218	-0.0062	0.0106	-19.7197	11.0860	17.7506	0.2045	-0.2348	0.7525	-0.5802
5.47	-0.3395	-9.0450	-2.1848	0.0178	-0.0031	0.0141	-19.7722	11.0361	18.0373	0.2046	-0.2348	0.7526	-0.5803
5.48	-0.3439	-9.0362	-2.1820	0.0150	-0.0072	0.0121	-19.7153	10.9679	17.8909	0.2046	-0.2348	0.7525	-0.5803
5.49	-0.3470	-9.0394	-2.1792	0.0223	-0.0106	0.0137	-19.8462	10.9971	17.8967	0.2046	-0.2348	0.7525	-0.5803
5.5	-0.3442	-9.0408	-2.1856	0.0148	-0.0118	0.0099	-19.6471	10.8908	17.6867	0.2046	-0.2348	0.7525	-0.5803
5.51	-0.3418	-9.0362	-2.1826	0.0203	-0.0038	0.0096	-19.5532	10.9087	17.7353	0.2046	-0.2348	0.7525	-0.5803
5.52	-0.3407	-9.0394	-2.1854	0.0213	-0.0081	0.0085	-19.6132	10.9029	17.8403	0.2047	-0.2348	0.7525	-0.5804
5.53	-0.3362	-9.0444	-2.1877	0.0240	-0.0011	0.0059	-19.5421	10.9106	17.6903	0.2046	-0.2347	0.7524	-0.5804
5.54	-0.3274	-9.0457	-2.1902	0.0180	-0.0056	0.0069	-19.8227	10.8973	17.7309	0.2046	-0.2347	0.7524	-0.5805
5.55	-0.3216	-9.0379	-2.1867	0.0171	-0.0039	0.0092	-19.7654	10.7565	17.9701	0.2046	-0.2347	0.7524	-0.5805
5.56	-0.3192	-9.0451	-2.1891	0.0145	-0.0011	0.0070	-19.5754	10.7240	17.7339	0.2046	-0.2347	0.7524	-0.5806
5.57	-0.3151	-9.0431	-2.1846	0.0200	-0.0017	0.0069	-19.4987	10.7520	17.6237	0.2046	-0.2347	0.7523	-0.5805
5.58	-0.3175	-9.0385	-2.1798	0.0210	-0.0084	0.0072	-19.6087	10.8344	17.6141	0.2046	-0.2347	0.7523	-0.5806
5.59	-0.3201	-9.0397	-2.1795	0.0238	-0.0128	0.0131	-19.7049	10.9920	17.6534	0.2046	-0.2347	0.7523	-0.5806
5.6	-0.3186	-9.0465	-2.1906	0.0207	-0.0032	0.0062	-19.8589	10.9066	17.8014	0.2046	-0.2346	0.7522	-0.5806
5.61	-0.3269	-9.0339	-2.1874	0.0153	-0.0037	0.0046	-19.6048	10.8122	17.8086	0.2046	-0.2347	0.7523	-0.5808
5.62	-0.3199	-9.0388	-2.1874	0.0084	-0.0044	0.0059	-19.8868	10.9348	17.7795	0.2046	-0.2347	0.7522	-0.5807
5.63	-0.3229	-9.0420	-2.2005	0.0112	-0.0039	0.0045	-19.7857	10.8696	17.8487	0.2046	-0.2347	0.7523	-0.5807
5.64	-0.3222	-9.0425	-2.1965	0.0145	-0.0027	0.0091	-19.3730	11.0018	17.9945	0.2045	-0.2346	0.7522	-0.5807
5.65	-0.3177	-9.0379	-2.1848	0.0092	-0.0058	0.0093	-19.2254	11.0718	18.0393	0.2045	-0.2347	0.7522	-0.5807
5.66	-0.3269	-9.0436	-2.1922	0.0154	-0.0044	0.0069	-19.6333	10.8339	18.0401	0.2045	-0.2347	0.7522	-0.5807
5.67	-0.3241	-9.0386	-2.1837	0.0187	-0.0042	0.0070	-19.7569	11.3002	17.8793	0.2045	-0.2346	0.7522	-0.5808
5.68	-0.3226	-9.0394	-2.1816	0.0133	-0.0057	0.0048	-19.7399	11.1545	17.7934	0.2045	-0.2347	0.7522	-0.5808
5.69	-0.3217	-9.0386	-2.1803	0.0197	-0.0058	0.0100	-19.6932	10.7007	17.8861	0.2045	-0.2346	0.7522	-0.5808
5.7	-0.3219	-9.0388	-2.1796	0.0130	-0.0087	0.0120	-19.5605	10.7832	17.7658	0.2045	-0.2346	0.7522	-0.5809
5.71	-0.3275	-9.0384	-2.1801	0.0169	-0.0036	0.0119	-19.5295	10.7178	17.7762	0.2045	-0.2346	0.7521	-0.5808
5.72	-0.3300	-9.0391	-2.1754	0.0117	-0.0089	0.0087	-19.6702	10.8931	17.7147	0.2045	-0.2346	0.7522	-0.5809
5.73	-0.3360	-9.0424	-2.1757	0.0061	-0.0053	0.0065	-19.7160	10.8968	17.6975	0.2045	-0.2346	0.7522	-0.5808
5.74	-0.3442	-9.0400	-2.1765	0.0107	-0.0087	0.0066	-19.7153	10.9881	17.7694	0.2045	-0.2346	0.7522	-0.5809
5.75	-0.3395	-9.0387	-2.1795	0.0172	-0.0105	0.0058	-19.6954	11.0058	17.7433	0.2045	-0.2346	0.7521	-0.5809
5.76	-0.3408	-9.0370	-2.1815	0.0185	-0.0038	0.0058	-19.6211	10.8831	17.7315	0.2045	-0.2346	0.7521	-0.5809
5.77	-0.3387	-9.0476	-2.1951	0.0141	-0.0032	0.0066	-19.6103	10.9353	17.6346	0.2045	-0.2346	0.7521	-0.5809
5.78	-0.3312	-9.0372	-2.1870	0.0185	-0.0062	0.0126	-19.7197	10.8787	17.7513	0.2045	-0.2346	0.7520	-0.5809
5.79	-0.3278	-9.0341	-2.1807	0.0221	0.0015	0.0061	-19.6853	11.0489	17.7754	0.2045	-0.2346	0.7521	-0.5810
5.8	-0.3220	-9.0433	-2.1869	0.0192	-0.0008	0.0027	-19.6507	10.7732	17.8454	0.2044	-0.2346	0.7520	-0.5810
5.81	-0.3179	-9.0396	-2.1826	0.0164	-0.0049	0.0081	-19.7455	10.8133	17.6504	0.2044	-0.2346	0.7521	-0.5811
5.82	-0.3186	-9.0351	-2.1724	0.0179	-0.0059	0.0099	-19.6891	10.8169	17.7453	0.2044	-0.2346	0.7520	-0.5811
5.83	-0.3177	-9.0547	-2.1969	0.0122	-0.0023	0.0034	-19.7426	10.8790	17.9017	0.2044	-0.2346	0.7520	-0.5811
5.84	-0.3151	-9.0431	-2.1951	0.0144	-0.0035	0.0086	-19.8362	10.8402	17.8939	0.2044	-0.2346	0.7520	-0.5811
5.85	-0.3185	-9.0222	-2.1774	0.0170	-0.0040	0.0046	-19.6743	10.6676	17.7558	0.2043	-0.2346	0.7519	-0.5811
5.86	-0.3219	-9.0454	-2.1952	0.0150	-0.0063	0.0089	-19.8413	11.0905	17.6342	0.2044	-0.2346	0.7520	-0.5812
5.87	-0.3198	-9.0530	-2.1968	0.0118	-0.0059	0.0127	-19.7047	10.8952	17.7076	0.2043	-0.2345	0.7520	-0.5812
5.88	-0.3248	-9.0301	-2.1823	0.0238	-0.0029	0.0123	-19.5973	10.8125	17.5609	0.2044	-0.2345	0.7520	-0.5813
5.89	-0.3328	-9.0459	-2.1905	0.0179	-0.0091	0.0092	-19.6434	10.8484	17.7704	0.2044	-0.2345	0.7519	-0.5812
5.9	-0.3385	-9.0443	-2.1850	0.0145	-0.0067	0.0122	-19.5351	10.8174	17.8469	0.2044	-0.2345	0.7519	-0.5813
5.91	-0.3500	-9.0355	-2.1739	0.0067	-0.0085	0.0111	-19.7033	10.7015	17.7220	0.2044	-0.2345	0.7519	-0.5812
5.92	-0.3463	-9.0435	-2.1875	0.0143	-0.0062	0.0122	-19.7223	10.8891	17.7699	0.2044	-0.2345	0.7519	-0.5812
5.93	-0.3434	-9.0392	-2.1811	0.0151	-0.0079	0.0066	-19.6109	11.0260	17.7430	0.2044	-0.2345	0.7519	-0.5813
5.94	-0.3359	-9.0417	-2.1845	0.0129	-0.0101	0.0086	-19.6641	11.0844	17.7535	0.2044	-0.2345	0.7519	-0.5813
5.95	-0.3340	-9.0464	-2.1915	0.0182	-0.0024	0.0091	-19.7298	10.8582	17.7609	0.2044	-0.2345	0.7519	-0.5813
5.96	-0.3310	-9.0401	-2.1866	0.0194	-0.0060	0.0080	-19.6936	10.7948	17.7366	0.2044	-0.2344	0.7518	-0.5813
5.97	-0.3244	-9.0454	-2.1886	0.0276	-0.0056	0.0070	-19.7314	11.0634	17.8781	0.2044	-0.2345	0.7518	-0.5814
5.98	-0.3244	-9.0430	-2.1928	0.0106	-0.0018	0.0029	-19.7065	10.8940	18.0807	0.2044	-0.2345	0.7518	-0.5814
5.99	-0.3290	-9.0349	-2.1911	0.0154	-0.0016	0.0105	-19.7766	11.0009	17.8633	0.2044	-0.2344	0.7518	-0.5814
6	-0.3344	-9.0441	-2.2025	0.0136	-0.0017	0.0094	-19.8945	10.8861	17.7119	0.2043	-0.2344	0.7518	-0.5814
6.01	-0.3308	-9.0426	-2.1977	0.0152	-0.0042	0.0030	-19.8515	10.7255	17.9268	0.2043	-0.2344	0.7518	-0.5815
6.02	-0.3258	-9.0342	-2.1933	0.0207	-0.0035	0.0061	-19.7629	10.9021	18.0609	0.2043	-0.2344	0.7518	-0.5815
6.03	-0.3242	-9.0439	-2.1981	0.0249	-0.0020	0.0071	-19.8939	10.9885	17.9132	0.2043	-0.2344	0.7517	-0.5815
6.04	-0.3242	-9.0443	-2.1912	0.0185	-0.0046	0.0015	-19.8501	10.9820	17.8232	0.2043	-0.2344	0.7517	-0.5816
6.05	-0.3147	-9.0399	-2.1900	0.0189	-0.0029	0.0042	-19.8016	11.0259	17.8456	0.2042	-0.2344	0.7517	-0.5816
6.06	-0.3181	-9.0435	-2.1902	0.0235	-0.0022	0.0090	-19.9326	10.8637	17.7764	0.2042	-0.2344	0.7517	-0.5817
6.07	-0.3156	-9.0430	-2.1956	0.0163	-0.0101	0.0083	-19.6624	10.7996	17.7161	0.2042	-0.2344	0.7516	-0.5817
6.08	-0.3212	-9.0419	-2.1945	0.0250	-0.0081	0.0074	-19.7552	10.8558	17.9260	0.2043	-0.2344	0.7516	-0.5818
6.09	-0.3196	-9.0441	-2.1903	0.0173	-0.0072	0.0080	-19.6317	10.7881	17.8471	0.2043	-0.2344	0.7516	-0.5818
6.1	-0.3207	-9.0417	-2.1814	0.0162	-0.0079	0.0097	-19.6947	10.6534	17.6369	0.2043	-0.2344	0.7515	-0.5818
6.11	-0.3250	-9.0400	-2.1827	0.0133	-0.0054	0.0106	-19.7924	10.7592	17.7890	0.2043	-0.2344	0.7516	-0.5819
6.12	-0.3316	-9.0400	-2.1798	0.0241	-0.0056	0.0101	-19.8248	10.7512	17.7304	0.2043	-0.2343	0.7515	-0.5819
6.13	-0.3314	-9.0418	-2.1786	0.0196	-0.0018	0.0103	-19.6326	10.9329	17.8051	0.2043	-0.2343	0.7515	-0.5819
6.14	-0.3372	-9.0345	-2.1799	0.0149	-0.0088	0.0069	-19.3666	10.8996	18.0282	0.2043	-0.2343	0.7514	-0.5819
6.15	-0.3402	-9.0426	-2.1798	0.0211	-0.0085	0.0129	-19.2718	10.9357	18.2094	0.2043	-0.2343	0.7515	-0.5820
6.16	-0.3402	-9.0413	-2.1771	0.0198	-0.0035	0.0077	-19.6814	11.0479	17.8591	0.2043	-0.2343	0.7514	-0.5820
6.17	-0.3344	-9.0418	-2.1811	0.0173	-0.0052	0.0060	-19.8533	11.2607	17.9864	0.2043	-0.2343	0.7514	-0.5820
6.18	-0.3283	-9.0385	-2.1827	0.0150	-0.0057	0.0084	-19.9579	11.1965	17.9500	0.2043	-0.2343	0.7514	-0.5820
6.19	-0.3226	-9.0358	-2.1865	0.0099	-0.0049	0.0146	-20.0745	11.0281	17.8546	0.2043	-0.2343	0.7514	-0.5820
6.2	-0.3233	-9.0432	-2.1958	0.0178	-0.0086	0.0090	-19.8885	10.9912	17.8796	0.2043	-0.2343	0.7514	-0.5821
6.21	-0.3220	-9.0390	-2.1921	0.0089	-0.0017	0.0024	-19.9036	10.9642	17.9722	0.2042	-0.2343	0.7513	-0.5820
6.22	-0.3196	-9.0367	-2.1941	0.0146	-0.0083	0.0099	-19.8003	11.0370	17.8577	0.2043	-0.2343	0.7514	-0.5821
6.23	-0.3229	-9.0480	-2.2008	0.0187	-0.0001	0.0059	-19.9531	10.9764	17.7536	0.2042	-0.2343	0.7514	-0.5821
6.24	-0.3313	-9.0457	-2.2055	0.0173	-0.0025	0.0123	-19.7580	11.0947	17.8772	0.2042	-0.2342	0.7514	-0.5821
6.25	-0.3284	-9.0363	-2.1928	0.0161	-0.0126	0.0161	-19.6481	10.8769	17.9776	0.2043	-0.2342	0.7514	-0.5821
6.26	-0.3273	-9.0380	-2.1937	0.0195	-0.0110	0.0125	-19.5391	10.7242	17.9942	0.2043	-0.2342	0.7513	-0.5821
6.27	-0.3261	-9.0402	-2.1880	0.0187	-0.0090	0.0129	-19.4585	10.6419	17.7663	0.2043	-0.2342	0.7513	-0.5822
6.28	-0.3266	-9.0428	-2.1927	0.0216	-0.0057	0.0122	-19.5803	10.8520	18.0013	0.2043	-0.2341	0.7512	-0.5822
6.29	-0.3294	-9.0421	-2.1916	0.0142	-0.0044	0.0085	-19.7565	10.5796	17.9428	0.2044	-0.2342	0.7513	-0.5822
6.3	-0.3316	-9.0392	-2.1886	0.0051	0.0024	0.0123	-19.5800	10.5605	17.6583	0.2043	-0.2341	0.7513	-0.5822
6.31	-0.3394	-9.0446	-2.1871	0.0047	-0.0111	0.0068	-19.5717	10.7983	18.0162	0.2043	-0.2342	0.7514	-0.5822
6.32	-0.3355	-9.0447	-2.1940	0.0091	-0.0026	0.0107	-19.5795	10.8046	17.8816	0.2043	-0.2341	0.7513	-0.5821
6.33	-0.3449	-9.0272	-2.1793	0.0192	-0.0041	0.0124	-19.6678	10.8236	17.7703	0.2043	-0.2341	0.7513	-0.5822
6.34	-0.3451	-9.0422	-2.1842	0.0216	-0.0091	0.0119	-19.8202	10.9111	17.6834	0.2043	-0.2341	0.7513	-0.5822
6.35	-0.3392	-9.0444	-2.1826	0.0208	-0.0021	0.0058	-19.7377	10.8596	17.7816	0.2043	-0.2341	0.7512	-0.5822
6.36	-0.3410	-9.0380	-2.1803	0.0207	-0.0079	0.0068	-19.7442	10.9076	18.0221	0.2043	-0.2341	0.7513	-0.5824
6.37	-0.3327	-9.0370	-2.1787	0.0169	-0.0023	0.0050	-19.8547	10.9789	17.9154	0.2043	-0.2341	0.7512	-0.5823
6.38	-0.3250	-9.0465	-2.1846	0.0140	-0.0039	0.0053	-19.9813	10.9503	17.8735	0.2043	-0.2341	0.7513	-0.5824
6.39	-0.3244	-9.0390	-2.1856	0.0162	-0.0068	0.0071	-19.8971	10.9779	17.8752	0.2042	-0.2341	0.7512	-0.5823
6.4	-0.3202	-9.0446	-2.1811	0.0136	-0.0002	0.0038	-19.8003	10.8434	18.0142	0.2042	-0.2341	0.7512	-0.5824
6.41	-0.3169	-9.0436	-2.1846	0.0098	-0.0098	0.0170	-19.9926	10.9391	18.0648	0.2042	-0.2341	0.7512	-0.5824
6.42	-0.3204	-9.0384	-2.1799	0.0117	-0.0073	0.0089	-19.9251	10.9751	17.7662	0.2042	-0.2341	0.7512	-0.5824
6.43	-0.3212	-9.0473	-2.1845	0.0179	-0.0144	0.0112	-19.6942	10.8820	17.8236	0.2043	-0.2341	0.7512	-0.5824
6.44	-0.3210	-9.0443	-2.1838	0.0152	-0.0090	0.0132	-19.6445	10.7324	17.7630	0.2043	-0.2341	0.7512	-0.5824
6.45	-0.3210	-9.0433	-2.1829	0.0155	-0.0096	0.0083	-19.6496	10.5727	17.7399	0.2043	-0.2341	0.7512	-0.5824
6.46	-0.3196	-9.0387	-2.1787	0.0230	-0.0070	0.0095	-19.6587	10.8270	18.0059	0.2043	-0.2340	0.7511	-0.5824
6.47	-0.3184	-9.0438	-2.1877	0.0194	-0.0034	0.0086	-19.6476	10.8815	17.8594	0.2043	-0.2340	0.7512	-0.5825
6.48	-0.3217	-9.0396	-2.1801	0.0088	-0.0068	0.0123	-19.6741	10.7671	17.7596	0.2043	-0.2340	0.7511	-0.5825
6.49	-0.3203	-9.0374	-2.1807	0.0093	-0.0063	0.0157	-19.6100	10.8794	17.9116	0.2044	-0.2340	0.7512	-0.5825
6.5	-0.3187	-9.0418	-2.1775	0.0134	-0.0078	0.0149	-19.8810	10.9750	17.7588	0.2044	-0.2340	0.7511	-0.5824
6.51	-0.3186	-9.0425	-2.1791	0.0148	-0.0039	0.0102	-19.8286	10.9607	17.8531	0.2044	-0.2340	0.7511	-0.5825
6.52	-0.3160	-9.0356	-2.1840	0.0179	-0.0088	0.0084	-19.5640	10.9693	17.8421	0.2044	-0.2340	0.7511	-0.5825
6.53	-0.3192	-9.0471	-2.1904	0.0180	-0.0077	0.0051	-19.7797	10.9670	17.7951	0.2044	-0.2340	0.7510	-0.5825
6.54	-0.3227	-9.0500	-2.1934	0.0135	-0.0065	0.0116	-19.5946	11.0635	17.6765	0.2044	-0.2340	0.7511	-0.5826
6.55	-0.3267	-9.0390	-2.1937	0.0146	-0.0089	0.0125	-20.0006	10.9046	17.9280	0.2044	-0.2339	0.7511	-0.5825
6.56	-0.3293	-9.0335	-2.1810	0.0084	-0.0040	0.0065	-19.8344	10.8605	17.9465	0.2044	-0.2340	0.7512	-0.5826
6.57	-0.3252	-9.0404	-2.1898	0.0126	-0.0039	0.0117	-19.8322	10.9692	18.2014	0.2044	-0.2339	0.7511	-0.5825
6.58	-0.3334	-9.0454	-2.1954	0.0140	-0.0044	0.0068	-19.8779	11.1793	17.9240	0.2044	-0.2339	0.7511	-0.5825
6.59	-0.3371	-9.0384	-2.1834	0.0162	-0.0066	0.0076	-19.6714	10.8913	17.8071	0.2044	-0.2339	0.7511	-0.5826
6.6	-0.3402	-9.0371	-2.1869	0.0111	-0.0056	0.0060	-19.8317	10.9395	17.9109	0.2043	-0.2339	0.7510	-0.5825
6.61	-0.3428	-9.0439	-2.1899	0.0070	-0.0049	0.0080	-19.8116	10.9932	17.8915	0.2043	-0.2340	0.7512	-0.5826
6.62	-0.3414	-9.0361	-2.1804	0.0134	-0.0120	0.0119	-19.9375	10.7900	17.9696	0.2044	-0.2339	0.7511	-0.5825
6.63	-0.3361	-9.0405	-2.1832	0.0224	-0.0047	0.0106	-19.5856	10.6359	17.8586	0.2044	-0.2339	0.7511	-0.5826
6.64	-0.3282	-9.0470	-2.1852	0.0136	-0.0115	0.0109	-19.2012	10.7103	17.9996	0.2044	-0.2339	0.7510	-0.5825
6.65	-0.3360	-9.0317	-2.1725	0.0130	-0.0050	0.0121	-19.0688	10.7543	18.0881	0.2044	-0.2339	0.7511	-0.5826
6.66	-0.3314	-9.0440	-2.1839	0.0164	-0.0079	0.0109	-19.5082	10.9972	18.0743	0.2044	-0.2339	0.7511	-0.5826
6.67	-0.3332	-9.0442	-2.1899	0.0214	-0.0084	0.0089	-19.7523	11.0955	17.8241	0.2044	-0.2339	0.7510	-0.5826
6.68	-0.3378	-9.0314	-2.1857	0.0134	-0.0108	0.0041	-19.7480	11.1765	17.9085	0.2044	-0.2339	0.7510	-0.5827
6.69	-0.3282	-9.0378	-2.1893	0.0172	-0.0068	0.0090	-19.6132	10.9299	17.9058	0.2044	-0.2339	0.7510	-0.5827
6.7	-0.3248	-9.0449	-2.1871	0.0162	-0.0086	0.0067	-19.8472	11.0496	17.9006	0.2044	-0.2339	0.7510	-0.5827
6.71	-0.3216	-9.0404	-2.1891	0.0183	-0.0114	0.0113	-19.6973	10.8009	17.9224	0.2044	-0.2339	0.7509	-0.5827
6.72	-0.3209	-9.0370	-2.1864	0.0109	-0.0082	0.0082	-19.6585	10.8477	17.7898	0.2045	-0.2339	0.7510	-0.5827
6.73	-0.3190	-9.0373	-2.1911	0.0066	-0.0041	0.0013	-19.8636	11.0728	17.8719	0.2044	-0.2340	0.7510	-0.5827
6.74	-0.3073	-9.0472	-2.1881	0.0012	-0.0048	0.0016	-19.7263	10.8232	17.9172	0.2044	-0.2340	0.7510	-0.5827
6.75	-0.3081	-9.0416	-2.1879	0.0129	-0.0051	0.0035	-19.6371	10.8425	17.9182	0.2043	-0.2340	0.7510	-0.5827
6.76	-0.3135	-9.0299	-2.1864	0.0098	-0.0036	0.0036	-19.7676	10.9069	17.7582	0.2043	-0.2340	0.7510	-0.5827
6.77	-0.3039	-9.0534	-2.2023	0.0049	-0.0053	0.0084	-19.8175	10.7736	17.7620	0.2043	-0.2340	0.7510	-0.5827
6.78	-0.3179	-9.0307	-2.1898	0.0090	0.0001	0.0064	-19.7897	10.9258	17.9447	0.2043	-0.2340	0.7510	-0.5826
6.79	-0.3201	-9.0351	-2.1806	0.0159	-0.0007	0.0075	-19.8152	10.8929	17.6698	0.2043	-0.2340	0.7511	-0.5827
6.8	-0.3292	-9.0433	-2.1807	0.0059	-0.0105	0.0077	-19.7760	10.9351	17.8031	0.2042	-0.2340	0.7510	-0.5826
6.81	-0.3333	-9.0423	-2.1710	0.0009	-0.0057	0.0129	-19.8808	10.8274	17.7709	0.2043	-0.2340	0.7511	-0.5827
6.82	-0.3358	-9.0379	-2.1746	0.0067	0.0003	0.0054	-19.7977	10.8255	17.7018	0.2042	-0.2340	0.7510	-0.5826
6.83	-0.3381	-9.0451	-2.1794	0.0079	-0.0076	0.0089	-19.7963	10.9257	17.6537	0.2042	-0.2340	0.7511	-0.5826
6.84	-0.3414	-9.0455	-2.1808	0.0067	-0.0012	0.0119	-19.7693	10.7359	17.6120	0.2042	-0.2340	0.7511	-0.5826
6.85	-0.3360	-9.0457	-2.1813	0.0044	-0.0047	0.0095	-19.6051	10.8018	17.7647	0.2041	-0.2340	0.7511	-0.5825
6.86	-0.3347	-9.0401	-2.1836	0.0077	-0.0056	0.0103	-19.7639	10.9551	17.6841	0.2042	-0.2340	0.7512	-0.5826
6.87	-0.3315	-9.0358	-2.1817	0.0103	-0.0050	0.0120	-19.7898	10.7010	17.7140	0.2041	-0.2340	0.7512	-0.5825
6.88	-0.3294	-9.0346	-2.1803	0.0053	-0.0067	0.0111	-19.8604	10.6913	17.8616	0.2041	-0.2340	0.7512	-0.5825
6.89	-0.3270	-9.0374	-2.1865	0.0040	-0.0044	0.0075	-19.8982	10.8408	17.8115	0.2041	-0.2340	0.7512	-0.5824
6.9	-0.3317	-9.0352	-2.1768	-0.0003	-0.0140	0.0135	-19.7632	10.8381	17.8032	0.2041	-0.2340	0.7513	-0.5824
6.91	-0.3255	-9.0584	-2.2045	-0.0017	-0.0034	0.0042	-19.6862	10.9359	17.9124	0.2041	-0.2340	0.7513	-0.5824
6.92	-0.3231	-9.0471	-2.1996	0.0108	0.0018	0.0092	-19.8188	10.8905	18.0545	0.2041	-0.2340	0.7513	-0.5824
6.93	-0.3279	-9.0286	-2.1836	0.0104	-0.0038	0.0100	-19.7856	10.9174	17.7715	0.2041	-0.2340	0.7513	-0.5824
6.94	-0.3264	-9.0491	-2.1898	0.0067	0.0003	0.0109	-19.7163	10.8956	17.7181	0.2040	-0.2340	0.7513	-0.5823
6.95	-0.3243	-9.0421	-2.1886	0.0137	-0.0012	0.0110	-19.6661	10.9185	17.7809	0.2040	-0.2339	0.7514	-0.5824
6.96	-0.3258	-9.0352	-2.1871	0.0114	-0.0078	0.0066	-19.6182	10.9045	17.9160	0.2040	-0.2339	0.7513	-0.5823
6.97	-0.3277	-9.0374	-2.1874	0.0161	-0.0041	0.0044	-19.8543	10.8174	18.0162	0.2040	-0.2340	0.7514	-0.5824
6.98	-0.3322	-9.0421	-2.1929	0.0098	-0.0070	0.0073	-19.7726	10.9754	17.8029	0.2040	-0.2340	0.7513	-0.5824
6.99	-0.3311	-9.0375	-2.1936	0.0220	-0.0074	0.0172	-19.8502	11.0027	17.8971	0.2040	-0.2339	0.7513	-0.5824
7	-0.3355	-9.0414	-2.1923	0.0198	-0.0094	0.0101	-19.6030	10.9899	17.9104	0.2040	-0.2339	0.7513	-0.5824
7.01	-0.3366	-9.0381	-2.1953	0.0161	-0.0076	0.0140	-19.6883	10.6607	17.6726	0.2040	-0.2339	0.7513	-0.5824
7.02	-0.3359	-9.0365	-2.1954	0.0199	-0.0081	0.0121	-19.8686	10.8497	17.8150	0.2041	-0.2339	0.7513	-0.5825
7.03	-0.3284	-9.0328	-2.1881	0.0188	-0.0075	0.0068	-19.6251	10.7239	17.8267	0.2041	-0.2339	0.7512	-0.5824
7.04	-0.3298	-9.0448	-2.1925	0.0246	-0.0068	0.0074	-19.5535	10.9686	17.8170	0.2041	-0.2339	0.7512	-0.5826
7.05	-0.3356	-9.0415	-2.1910	0.0215	-0.0039	0.0056	-19.6871	10.9800	17.8251	0.2041	-0.2339	0.7512	-0.5826
7.06	-0.3314	-9.0355	-2.1862	0.0171	-0.0085	0.0066	-19.5430	10.8355	17.7837	0.2041	-0.2339	0.7512	-0.5827
7.07	-0.3280	-9.0350	-2.1819	0.0208	-0.0083	0.0064	-19.6548	10.7295	17.6075	0.2041	-0.2339	0.7511	-0.5826
7.08	-0.3258	-9.0426	-2.1814	0.0211	-0.0078	0.0069	-19.4967	10.8845	17.5904	0.2041	-0.2339	0.7511	-0.5827
7.09	-0.3258	-9.0403	-2.1791	0.0166	-0.0114	0.0118	-19.6855	10.7410	17.8656	0.2041	-0.2339	0.7511	-0.5827
7.1	-0.3218	-9.0332	-2.1745	0.0196	-0.0096	0.0030	-19.7269	10.8656	18.0300	0.2041	-0.2339	0.7510	-0.5827
7.11	-0.3223	-9.0491	-2.1940	0.0185	-0.0022	0.0034	-19.8332	11.1262	17.8457	0.2041	-0.2339	0.7511	-0.5828
7.12	-0.3173	-9.0425	-2.1860	0.0148	-0.0036	0.0053	-19.7500	10.8895	17.7234	0.2041	-0.2339	0.7510	-0.5828
7.13	-0.3159	-9.0333	-2.1811	0.0066	-0.0052	0.0062	-19.7424	10.9818	17.8995	0.2041	-0.2339	0.7511	-0.5828
7.14	-0.3206	-9.0424	-2.1944	0.0101	-0.0038	0.0050	-19.5741	10.9953	17.9919	0.2040	-0.2339	0.7510	-0.5827
7.15	-0.3247	-9.0409	-2.2008	0.0209	-0.0112	0.0080	-19.2239	10.8837	18.1798	0.2041	-0.2339	0.7510	-0.5828
7.16	-0.3298	-9.0370	-2.1901	0.0173	-0.0046	0.0080	-19.8275	10.9306	17.8904	0.2040	-0.2339	0.7510	-0.5828
7.17	-0.3292	-9.0457	-2.1911	0.0123	-0.0039	0.0044	-19.7709	11.1973	17.8502	0.2040	-0.2339	0.7510	-0.5828
7.18	-0.3303	-9.0394	-2.1825	0.0135	-0.0083	0.0070	-19.7796	11.0400	17.7991	0.2040	-0.2340	0.7510	-0.5828
7.19	-0.3312	-9.0384	-2.1794	0.0137	-0.0068	0.0122	-19.6926	10.8795	17.6972	0.2040	-0.2339	0.7510	-0.5828
7.2	-0.3305	-9.0473	-2.1853	0.0155	-0.0140	0.0116	-19.6623	10.8490	17.8009	0.2041	-0.2339	0.7510	-0.5829
7.21	-0.3298	-9.0417	-2.1835	0.0165	-0.0112	0.0091	-19.5809	10.7977	17.8370	0.2041	-0.2339	0.7509	-0.5828
7.22	-0.3367	-9.0416	-2.1826	0.0163	-0.0067	0.0056	-19.5850	10.9220	17.8086	0.2041	-0.2340	0.7510	-0.5829
7.23	-0.3449	-9.0415	-2.1896	0.0154	-0.0081	0.0052	-19.5656	10.7698	17.8413	0.2041	-0.2340	0.7509	-0.5829
7.24	-0.3417	-9.0368	-2.1843	0.0119	-0.0059	0.0157	-19.6452	10.8591	17.7946	0.2041	-0.2339	0.7509	-0.5829
7.25	-0.3366	-9.0409	-2.1892	0.0104	-0.0052	0.0082	-19.6626	10.6855	17.9393	0.2041	-0.2339	0.7509	-0.5829
7.26	-0.3397	-9.0380	-2.1874	0.0166	-0.0099	0.0099	-19.6701	10.9225	17.9860	0.2041	-0.2339	0.7509	-0.5829
7.27	-0.3396	-9.0357	-2.1825	0.0160	-0.0110	0.0084	-19.8273	10.9661	18.0241	0.2041	-0.2340	0.7509	-0.5829
7.28	-0.3424	-9.0436	-2.1892	0.0102	-0.0100	0.0109	-19.8115	10.7840	17.8199	0.2041	-0.2339	0.7508	-0.5828
7.29	-0.3418	-9.0434	-2.1837	0.0136	-0.0047	0.0075	-19.9168	10.9150	17.7147	0.2041	-0.2340	0.7509	-0.5829
7.3	-0.3370	-9.0395	-2.1849	0.0108	-0.0048	0.0069	-20.0402	10.8851	18.3177	0.2041	-0.2340	0.7509	-0.5829
7.31	-0.3271	-9.0413	-2.1819	0.0087	-0.0035	0.0052	-19.6623	10.8917	18.0569	0.2041	-0.2340	0.7510	-0.5829
7.32	-0.3237	-9.0459	-2.1904	0.0194	-0.0083	0.0071	-19.7467	10.9928	17.7768	0.2041	-0.2340	0.7508	-0.5829
7.33	-0.3208	-9.0406	-2.1910	0.0156	0.0017	0.0057	-19.8184	10.9663	17.8289	0.2041	-0.2340	0.7509	-0.5829
7.34	-0.3230	-9.0374	-2.1878	0.0141	-0.0035	0.0104	-19.8808	10.8434	17.8020	0.2040	-0.2339	0.7509	-0.5829
7.35	-0.3156	-9.0405	-2.1946	0.0145	-0.0052	0.0106	-19.8484	10.7109	17.8375	0.2040	-0.2339	0.7508	-0.5829
7.36	-0.3174	-9.0358	-2.1892	0.0138	-0.0055	0.0114	-19.7078	10.8409	17.7004	0.2041	-0.2339	0.7509	-0.5830
7.37	-0.3196	-9.0403	-2.1882	0.0240	-0.0044	0.0088	-19.7443	10.9100	17.7619	0.2040	-0.2339	0.7508	-0.5830
7.38	-0.3157	-9.0420	-2.2016	0.0152	-0.0049	0.0108	-19.7451	10.8990	17.8796	0.2041	-0.2339	0.7509	-0.5830
7.39	-0.3205	-9.0365	-2.1995	0.0197	-0.0092	0.0112	-19.7335	10.8169	18.0091	0.2041	-0.2338	0.7508	-0.5830
7.4	-0.3197	-9.0389	-2.1925	0.0198	-0.0071	0.0089	-19.7613	10.8076	17.8634	0.2041	-0.2339	0.7508	-0.5831
7.41	-0.3216	-9.0375	-2.1958	0.0220	-0.0105	0.0090	-19.8206	10.8223	17.6332	0.2041	-0.2339	0.7508	-0.5831
7.42	-0.3228	-9.0406	-2.1947	0.0170	-0.0088	0.0099	-19.5642	10.8203	17.7027	0.2041	-0.2338	0.7507	-0.5831
7.43	-0.3250	-9.0379	-2.1888	0.0209	-0.0084	0.0110	-19.5803	10.7319	17.8657	0.2041	-0.2338	0.7508	-0.5831
7.44	-0.3302	-9.0385	-2.1933	0.0206	-0.0076	0.0142	-19.7039	10.7288	17.9069	0.2042	-0.2338	0.7507	-0.5832
7.45	-0.3299	-9.0439	-2.1974	0.0200	-0.0109	0.0070	-19.5754	10.7747	17.9362	0.2042	-0.2338	0.7507	-0.5832
7.46	-0.3299	-9.0386	-2.1859	0.0226	0.0002	0.0109	-19.6435	10.9228	17.8055	0.2042	-0.2338	0.7506	-0.5832
7.47	-0.3314	-9.0367	-2.1891	0.0227	-0.0008	0.0093	-19.8693	10.9662	17.6334	0.2042	-0.2338	0.7507	-0.5833
7.48	-0.3335	-9.0375	-2.1869	0.0132	-0.0012	0.0108	-19.7751	11.0240	17.9078	0.2042	-0.2337	0.7506	-0.5833
7.49	-0.3334	-9.0422	-2.1839	0.0172	0.0048	0.0058	-19.7118	11.0917	17.8902	0.2041	-0.2337	0.7507	-0.5833
7.5	-0.3347	-9.0384	-2.1819	0.0161	-0.0004	0.0049	-19.9369	10.8813	17.9847	0.2041	-0.2337	0.7506	-0.5833
7.51	-0.3341	-9.0397	-2.1827	0.0246	-0.0016	0.0120	-19.8702	10.8803	17.7856	0.2041	-0.2337	0.7506	-0.5834
7.52	-0.3340	-9.0403	-2.1810	0.0170	-0.0011	0.0068	-19.7912	10.9563	18.0089	0.2041	-0.2336	0.7506	-0.5834
7.53	-0.3371	-9.0407	-2.1779	0.0159	-0.0017	0.0058	-19.9145	10.9909	17.9205	0.2040	-0.2336	0.7505	-0.5834
7.54	-0.3359	-9.0359	-2.1829	0.0198	0.0047	0.0054	-19.9878	10.8791	17.7549	0.2040	-0.2336	0.7506	-0.5835
7.55	-0.3387	-9.0402	-2.1836	0.0269	0.0034	0.0090	-19.9905	10.8780	17.7718	0.2040	-0.2336	0.7505	-0.5835
7.56	-0.3345	-9.0421	-2.1841	0.0205	-0.0062	0.0093	-19.6920	10.7227	17.7828	0.2040	-0.2336	0.7506	-0.5836
7.57	-0.3291	-9.0408	-2.1896	0.0102	-0.0074	0.0064	-19.5512	10.7383	17.7005	0.2039	-0.2336	0.7505	-0.5835
7.58	-0.3226	-9.0369	-2.1866	0.0178	-0.0082	0.0114	-19.5824	10.7431	17.7768	0.2040	-0.2336	0.7505	-0.5836
7.59	-0.3179	-9.0386	-2.1895	0.0077	-0.0088	0.0127	-19.5937	10.8870	17.8548	0.2040	-0.2336	0.7505	-0.5836
7.6	-0.3111	-9.0408	-2.1876	0.0137	-0.0120	0.0100	-19.4996	10.6297	17.7151	0.2040	-0.2335	0.7505	-0.5835
7.61	-0.3101	-9.0351	-2.1841	0.0206	-0.0081	0.0149	-19.5866	10.7741	17.9534	0.2041	-0.2336	0.7506	-0.5836
7.62	-0.3129	-9.0402	-2.1834	0.0125	-0.0068	0.0082	-19.5904	10.9417	18.0021	0.2040	-0.2335	0.7505	-0.5836
7.63	-0.3157	-9.0450	-2.1885	0.0191	-0.0050	0.0051	-19.5646	10.8712	17.9967	0.2040	-0.2336	0.7505	-0.5836
7.64	-0.3154	-9.0440	-2.1906	0.0230	-0.0116	0.0073	-19.2502	11.0012	17.9894	0.2040	-0.2335	0.7504	-0.5836
7.65	-0.3156	-9.0388	-2.1915	0.0176	-0.0058	0.0156	-19.0211	11.0825	18.0800	0.2041	-0.2335	0.7505	-0.5837
7.66	-0.3167	-9.0420	-2.2080	0.0146	0.0044	0.0107	-19.5185	10.8967	17.9360	0.2040	-0.2335	0.7504	-0.5837
7.67	-0.3213	-9.0398	-2.1983	0.0140	0.0019	0.0055	-19.9236	11.0911	18.0450	0.2040	-0.2335	0.7504	-0.5837
7.68	-0.3252	-9.0369	-2.1987	0.0167	-0.0031	0.0048	-19.8035	11.0943	17.7293	0.2040	-0.2335	0.7505	-0.5837
7.69	-0.3298	-9.0367	-2.1966	0.0150	-0.0041	0.0018	-19.6459	10.9645	17.7794	0.2039	-0.2335	0.7504	-0.5837
7.7	-0.3387	-9.0431	-2.1985	0.0167	-0.0067	0.0068	-19.8078	10.7932	17.9635	0.2040	-0.2335	0.7504	-0.5838
7.71	-0.3412	-9.0380	-2.1977	0.0130	-0.0010	0.0082	-19.6822	10.6969	17.7949	0.2039	-0.2334	0.7504	-0.5837
7.72	-0.3464	-9.0383	-2.1947	0.0132	-0.0079	0.0042	-19.7441	10.9951	17.7011	0.2039	-0.2335	0.7504	-0.5838
7.73	-0.3439	-9.0392	-2.1929	0.0225	-0.0016	0.0047	-19.8958	10.9453	17.7629	0.2039	-0.2335	0.7504	-0.5838
7.74	-0.3477	-9.0395	-2.1925	0.0207	-0.0046	0.0128	-19.6257	10.8971	17.8403	0.2039	-0.2335	0.7504	-0.5839
7.75	-0.3431	-9.0388	-2.1883	0.0255	-0.0138	0.0135	-19.5367	10.9313	17.7071	0.2039	-0.2334	0.7503	-0.5839
7.76	-0.3399	-9.0390	-2.1804	0.0196	-0.0030	0.0095	-19.4381	10.7811	17.7313	0.2040	-0.2334	0.7503	-0.5839
7.77	-0.3369	-9.0423	-2.1871	0.0173	-0.0050	0.0106	-19.6521	10.9210	17.7329	0.2040	-0.2334	0.7503	-0.5839
7.78	-0.3403	-9.0400	-2.1820	0.0222	-0.0024	0.0067	-19.5125	10.8393	17.7102	0.2039	-0.2334	0.7502	-0.5839
7.79	-0.3307	-9.0384	-2.1804	0.0137	-0.0066	0.0071	-19.7542	10.7277	17.7600	0.2039	-0.2334	0.7503	-0.5840
7.8	-0.3301	-9.0415	-2.1814	0.0154	-0.0037	0.0069	-19.6257	10.8849	17.6544	0.2039	-0.2334	0.7503	-0.5840
7.81	-0.3249	-9.0404	-2.1806	0.0171	-0.0059	0.0068	-19.6811	10.7403	17.6954	0.2039	-0.2334	0.7503	-0.5840
7.82	-0.3229	-9.0342	-2.1727	0.0156	-0.0046	0.0061	-19.7123	10.8210	17.8196	0.2039	-0.2334	0.7502	-0.5840
7.83	-0.3249	-9.0470	-2.1852	0.0097	0.0022	0.0064	-19.7045	11.0694	17.5935	0.2039	-0.2334	0.7503	-0.5840
7.84	-0.3211	-9.0424	-2.1822	0.0185	-0.0037	0.0099	-19.8283	11.0427	17.8109	0.2039	-0.2334	0.7503	-0.5840
7.85	-0.3172	-9.0360	-2.1699	0.0143	0.0024	0.0094	-19.6864	10.8974	17.8128	0.2038	-0.2333	0.7502	-0.5840
7.86	-0.3201	-9.0390	-2.1788	0.0164	-0.0008	0.0075	-19.7128	10.9275	17.8001	0.2038	-0.2333	0.7503	-0.5841
7.87	-0.3228	-9.0416	-2.1840	0.0176	-0.0033	0.0043	-19.8192	10.7578	17.8466	0.2038	-0.2333	0.7502	-0.5841
7.88	-0.3237	-9.0417	-2.1784	0.0132	0.0002	0.0039	-19.7289	10.9839	17.9278	0.2038	-0.2333	0.7503	-0.5841
7.89	-0.3267	-9.0423	-2.1927	0.0203	0.0001	0.0073	-19.6909	10.9226	17.8715	0.2037	-0.2333	0.7502	-0.5841
7.9	-0.3278	-9.0399	-2.1847	0.0128	0.0018	0.0089	-19.8390	10.7994	17.9314	0.2037	-0.2333	0.7502	-0.5842
7.91	-0.3283	-9.0413	-2.1871	0.0136	0.0005	0.0094	-19.7072	10.8476	17.8280	0.2037	-0.2332	0.7502	-0.5842
7.92	-0.3270	-9.0409	-2.1897	0.0227	-0.0033	0.0100	-19.7739	11.0824	17.8109	0.2037	-0.2332	0.7502	-0.5842
7.93	-0.3275	-9.0401	-2.1860	0.0229	-0.0110	0.0111	-19.8009	10.9846	17.6966	0.2037	-0.2332	0.7502	-0.5842
7.94	-0.3275	-9.0426	-2.1912	0.0201	-0.0044	0.0110	-19.5253	10.7470	17.6423	0.2037	-0.2332	0.7502	-0.5843
7.95	-0.3277	-9.0395	-2.1993	0.0204	-0.0006	0.0083	-19.5817	10.7923	17.6094	0.2037	-0.2332	0.7502	-0.5843
7.96	-0.3288	-9.0360	-2.1965	0.0178	-0.0043	0.0093	-19.7126	10.9481	17.8325	0.2037	-0.2331	0.7501	-0.5843
7.97	-0.3268	-9.0396	-2.1985	0.0136	-0.0043	0.0082	-19.6980	10.7675	17.6696	0.2037	-0.2331	0.7502	-0.5843
7.98	-0.3226	-9.0375	-2.1968	0.0131	-0.0075	0.0105	-19.5590	10.7905	17.6950	0.2037	-0.2331	0.7501	-0.5843
7.99	-0.3228	-9.0401	-2.1960	0.0208	-0.0053	0.0118	-19.7807	10.8440	17.9545	0.2037	-0.2331	0.7502	-0.5844
8	-0.3210	-9.0447	-2.2073	0.0256	-0.0010	0.0113	-19.7899	10.8198	17.6865	0.2037	-0.2331	0.7501	-0.5844
8.01	-0.3198	-9.0396	-2.1989	0.0181	-0.0066	0.0082	-19.5609	10.9438	17.7393	0.2037	-0.2331	0.7501	-0.5844
8.02	-0.3170	-9.0363	-2.1997	0.0215	-0.0094	0.0095	-19.7123	10.8927	17.8888	0.2037	-0.2331	0.7501	-0.5845
8.03	-0.3213	-9.0454	-2.2021	0.0165	-0.0047	0.0083	-19.6941	10.9297	17.9494	0.2037	-0.2330	0.7500	-0.5844
8.04	-0.3271	-9.0457	-2.1987	0.0067	0.0031	0.0026	-19.9128	10.8804	18.0470	0.2037	-0.2331	0.7501	-0.5845
8.05	-0.3258	-9.0355	-2.1872	0.0095	0.0017	0.0117	-20.0840	10.8025	17.8279	0.2036	-0.2330	0.7501	-0.5844
8.06	-0.3314	-9.0410	-2.1874	0.0216	-0.0002	0.0080	-19.6946	10.8365	17.7180	0.2036	-0.2330	0.7502	-0.5845
8.07	-0.3353	-9.0440	-2.1879	0.0155	0.0034	0.0066	-19.7238	10.8130	18.0439	0.2036	-0.2330	0.7500	-0.5845
8.08	-0.3368	-9.0401	-2.1820	0.0237	0.0063	0.0082	-19.8760	11.0590	17.7119	0.2035	-0.2329	0.7501	-0.5846
8.09	-0.3386	-9.0369	-2.1812	0.0151	0.0026	0.0108	-19.7578	10.8942	17.9032	0.2035	-0.2329	0.7501	-0.5846
8.1	-0.3428	-9.0403	-2.1818	0.0141	-0.0043	0.0106	-19.7960	10.9917	17.8713	0.2035	-0.2329	0.7500	-0.5845
8.11	-0.3467	-9.0399	-2.1782	0.0237	-0.0065	0.0068	-19.7908	10.9873	18.0213	0.2035	-0.2329	0.7501	-0.5847
8.12	-0.3453	-9.0381	-2.1793	0.0230	-0.0033	0.0136	-19.8917	10.8783	17.7928	0.2035	-0.2328	0.7500	-0.5846
8.13	-0.3452	-9.0406	-2.1787	0.0232	-0.0024	0.0119	-19.6152	10.9368	17.9229	0.2035	-0.2328	0.7501	-0.5847
8.14	-0.3422	-9.0358	-2.1804	0.0167	-0.0115	0.0057	-19.2874	10.9026	18.1132	0.2035	-0.2328	0.7499	-0.5847
8.15	-0.3356	-9.0349	-2.1784	0.0205	-0.0120	0.0112	-19.0793	10.9202	18.1370	0.2036	-0.2328	0.7500	-0.5847
8.16	-0.3301	-9.0426	-2.1830	0.0224	-0.0106	0.0138	-19.5135	10.8822	17.9013	0.2036	-0.2328	0.7499	-0.5847
8.17	-0.3300	-9.0413	-2.1819	0.0211	-0.0065	0.0101	-19.6959	11.0890	17.7310	0.2036	-0.2328	0.7499	-0.5848
8.18	-0.3260	-9.0393	-2.1741	0.0234	-0.0078	0.0078	-19.6975	11.0910	17.8759	0.2036	-0.2328	0.7499	-0.5848
8.19	-0.3224	-9.0425	-2.1795	0.0230	-0.0071	0.0073	-19.6672	10.8071	17.8919	0.2036	-0.2328	0.7499	-0.5848
8.2	-0.3241	-9.0425	-2.1780	0.0248	-0.0076	0.0134	-19.6709	10.8367	17.8581	0.2037	-0.2328	0.7499	-0.5849
8.21	-0.3194	-9.0379	-2.1746	0.0230	-0.0132	0.0107	-19.6684	10.7863	18.0592	0.2037	-0.2328	0.7497	-0.5849
8.22	-0.3115	-9.0395	-2.1829	0.0206	-0.0114	0.0074	-19.7715	10.9663	17.7518	0.2037	-0.2328	0.7498	-0.5849
8.23	-0.3159	-9.0396	-2.1835	0.0111	-0.0047	0.0055	-19.8861	10.7759	17.9286	0.2037	-0.2328	0.7498	-0.5849
8.24	-0.3140	-9.0388	-2.1821	0.0168	0.0044	0.0077	-19.9381	10.7592	17.8533	0.2037	-0.2328	0.7498	-0.5850
8.25	-0.3116	-9.0401	-2.1842	0.0154	-0.0007	0.0068	-19.8075	11.0140	17.7368	0.2037	-0.2327	0.7498	-0.5849
8.26	-0.3173	-9.0421	-2.1834	0.0141	-0.0030	0.0077	-19.8606	11.1068	17.9593	0.2036	-0.2327	0.7498	-0.5850
8.27	-0.3168	-9.0427	-2.1887	0.0155	-0.0049	0.0107	-19.9455	11.1368	17.8915	0.2036	-0.2327	0.7498	-0.5850
8.28	-0.3117	-9.0373	-2.1873	0.0152	-0.0086	0.0135	-19.8217	10.8818	17.9409	0.2036	-0.2327	0.7497	-0.5849
8.29	-0.3134	-9.0359	-2.1907	0.0176	-0.0045	0.0075	-19.8369	10.8996	17.8043	0.2037	-0.2327	0.7498	-0.5850
8.3	-0.3191	-9.0416	-2.1954	0.0153	-0.0052	0.0068	-19.9667	10.9089	18.0087	0.2036	-0.2327	0.7498	-0.5850
8.31	-0.3193	-9.0431	-2.1937	0.0266	-0.0075	0.0144	-19.7848	10.8410	17.9634	0.2037	-0.2327	0.7498	-0.5851
8.32	-0.3256	-9.0401	-2.1887	0.0164	-0.0050	0.0119	-19.6494	10.7250	17.8024	0.2037	-0.2326	0.7497	-0.5850
8.33	-0.3299	-9.0428	-2.1828	0.0152	-0.0099	0.0128	-19.5748	10.8384	18.0069	0.2037	-0.2327	0.7497	-0.5851
8.34	-0.3362	-9.0384	-2.1891	0.0156	-0.0046	0.0105	-19.6303	10.6400	17.9500	0.2037	-0.2326	0.7497	-0.5851
8.35	-0.3364	-9.0374	-2.1810	0.0200	-0.0055	0.0105	-19.7501	10.7215	17.6778	0.2037	-0.2326	0.7497	-0.5850
8.36	-0.3382	-9.0397	-2.1881	0.0233	-0.0095	0.0065	-19.7573	10.8410	18.1196	0.2038	-0.2326	0.7497	-0.5852
8.37	-0.3419	-9.0427	-2.1833	0.0187	-0.0071	0.0097	-19.7594	10.8039	17.8831	0.2037	-0.2326	0.7497	-0.5851
8.38	-0.3397	-9.0412	-2.1898	0.0190	-0.0091	0.0141	-19.7426	10.8457	17.8960	0.2038	-0.2326	0.7497	-0.5852
8.39	-0.3386	-9.0344	-2.1850	0.0239	-0.0091	0.0118	-19.8311	10.6981	17.8614	0.2038	-0.2326	0.7496	-0.5851
8.4	-0.3431	-9.0435	-2.1769	0.0179	-0.0142	0.0129	-19.8310	10.9803	17.7052	0.2039	-0.2326	0.7496	-0.5852
8.41	-0.3434	-9.0385	-2.1814	0.0192	-0.0082	0.0088	-19.8237	11.0782	17.6061	0.2039	-0.2326	0.7496	-0.5852
8.42	-0.3446	-9.0361	-2.1788	0.0167	-0.0056	0.0049	-19.8302	10.8030	17.8185	0.2039	-0.2326	0.7496	-0.5852
8.43	-0.3393	-9.0412	-2.1878	0.0209	-0.0038	0.0031	-19.8322	10.8172	17.9404	0.2038	-0.2326	0.7496	-0.5852
8.44	-0.3341	-9.0421	-2.1996	0.0169	-0.0042	0.0130	-19.8324	10.9420	17.8002	0.2038	-0.2326	0.7496	-0.5852
8.45	-0.3292	-9.0375	-2.1905	0.0154	-0.0060	0.0059	-19.8317	11.0154	17.8472	0.2038	-0.2326	0.7496	-0.5853
8.46	-0.3252	-9.0366	-2.1915	0.0214	-0.0076	0.0098	-19.8381	10.8812	17.8145	0.2038	-0.2326	0.7495	-0.5852
8.47	-0.3244	-9.0454	-2.1946	0.0202	-0.0027	0.0089	-19.7250	10.9223	18.0587	0.2039	-0.2326	0.7495	-0.5853
8.48	-0.3210	-9.0350	-2.1856	0.0167	-0.0076	0.0093	-19.6587	11.0064	17.9725	0.2039	-0.2326	0.7495	-0.5853
8.49	-0.3207	-9.0474	-2.1908	0.0226	-0.0066	0.0113	-19.9312	10.9277	18.0606	0.2039	-0.2325	0.7495	-0.5854
8.5	-0.3200	-9.0458	-2.2049	0.0220	-0.0087	0.0120	-19.9018	10.7738	17.7712	0.2039	-0.2325	0.7495	-0.5854
8.51	-0.3187	-9.0391	-2.1960	0.0226	-0.0081	0.0115	-19.6974	10.8918	17.7983	0.2039	-0.2325	0.7494	-0.5854
8.52	-0.3171	-9.0357	-2.2006	0.0203	-0.0081	0.0105	-19.4360	10.8192	17.9852	0.2039	-0.2325	0.7494	-0.5854
8.53	-0.3181	-9.0429	-2.2061	0.0230	-0.0074	0.0067	-19.5373	10.6742	17.8409	0.2039	-0.2325	0.7493	-0.5854
8.54	-0.3188	-9.0431	-2.1957	0.0144	-0.0076	0.0077	-20.0180	10.9780	17.8050	0.2040	-0.2325	0.7494	-0.5855
8.55	-0.3225	-9.0386	-2.1959	0.0213	-0.0037	0.0095	-19.8038	10.7886	17.9044	0.2040	-0.2325	0.7494	-0.5855
8.56	-0.3221	-9.0383	-2.1920	0.0215	-0.0071	0.0124	-19.7217	10.7004	17.8795	0.2040	-0.2325	0.7494	-0.5855
8.57	-0.3267	-9.0405	-2.1833	0.0171	-0.0085	0.0104	-19.8484	10.8321	17.7459	0.2040	-0.2324	0.7493	-0.5855
8.58	-0.3345	-9.0396	-2.1903	0.0209	-0.0067	0.0099	-19.9176	10.6957	17.7077	0.2040	-0.2325	0.7493	-0.5855
8.59	-0.3406	-9.0366	-2.1853	0.0237	-0.0110	0.0135	-19.7239	10.9523	17.7047	0.2040	-0.2324	0.7493	-0.5856
8.6	-0.3361	-9.0373	-2.1871	0.0166	-0.0032	0.0077	-19.8814	10.9951	17.7463	0.2040	-0.2324	0.7493	-0.5855
8.61	-0.3326	-9.0417	-2.1898	0.0179	-0.0040	0.0076	-20.0417	10.9684	17.7622	0.2040	-0.2324	0.7494	-0.5856
8.62	-0.3311	-9.0362	-2.1855	0.0122	0.0007	0.0075	-19.9320	10.9814	17.9540	0.2040	-0.2324	0.7493	-0.5856
8.63	-0.3281	-9.0401	-2.1901	0.0214	-0.0041	0.0094	-19.7113	10.9764	17.9468	0.2040	-0.2324	0.7493	-0.5856
8.64	-0.3303	-9.0421	-2.1872	0.0223	-0.0038	0.0109	-19.5071	10.9864	18.1402	0.2040	-0.2323	0.7492	-0.5856
8.65	-0.3292	-9.0429	-2.1900	0.0160	-0.0051	0.0043	-19.1732	11.0580	18.0301	0.2040	-0.2324	0.7493	-0.5857
8.66	-0.3340	-9.0345	-2.1847	0.0109	0.0002	0.0050	-19.7180	10.9730	17.8553	0.2039	-0.2324	0.7493	-0.5857
8.67	-0.3344	-9.0391	-2.1867	0.0172	-0.0059	0.0067	-19.8351	11.1704	17.6593	0.2039	-0.2324	0.7493	-0.5857
8.68	-0.3290	-9.0416	-2.1870	0.0096	-0.0075	0.0057	-19.7249	10.8750	17.6413	0.2039	-0.2324	0.7493	-0.5857
8.69	-0.3305	-9.0386	-2.1772	0.0165	-0.0098	0.0108	-19.5672	10.7703	17.6372	0.2039	-0.2324	0.7493	-0.5857
8.7	-0.3221	-9.0435	-2.1832	0.0202	-0.0151	0.0131	-19.5369	10.8751	17.7161	0.2040	-0.2324	0.7493	-0.5857
8.71	-0.3210	-9.0426	-2.1795	0.0163	-0.0096	0.0095	-19.5536	10.8450	17.7554	0.2040	-0.2324	0.7492	-0.5856
8.72	-0.3194	-9.0376	-2.1754	0.0152	-0.0068	0.0096	-19.4463	10.8256	17.7253	0.2040	-0.2324	0.7493	-0.5857
8.73	-0.3179	-9.0374	-2.1724	0.0133	-0.0086	0.0081	-19.4982	10.9247	17.9146	0.2040	-0.2324	0.7492	-0.5857
8.74	-0.3188	-9.0450	-2.1782	0.0117	-0.0067	0.0039	-19.6844	11.0487	17.8443	0.2040	-0.2324	0.7493	-0.5857
8.75	-0.3207	-9.0371	-2.1753	0.0122	-0.0098	0.0078	-19.8956	10.9715	17.7018	0.2040	-0.2324	0.7492	-0.5856
8.76	-0.3254	-9.0340	-2.1780	0.0162	-0.0067	0.0105	-19.6361	11.0462	17.7562	0.2040	-0.2324	0.7492	-0.5856
8.77	-0.3322	-9.0426	-2.1794	0.0174	-0.0092	0.0138	-19.6350	10.9364	17.8962	0.2040	-0.2324	0.7493	-0.5857
8.78	-0.3370	-9.0389	-2.1779	0.0135	-0.0086	0.0095	-19.6176	10.9199	17.9167	0.2040	-0.2324	0.7492	-0.5856
8.79	-0.3374	-9.0400	-2.1822	0.0080	-0.0070	0.0078	-19.8295	11.1134	17.9006	0.2041	-0.2324	0.7493	-0.5857
8.8	-0.3397	-9.0442	-2.1932	0.0124	-0.0030	0.0086	-19.6215	10.8057	17.9164	0.2040	-0.2324	0.7493	-0.5856
8.81	-0.3361	-9.0485	-2.2007	0.0118	-0.0013	0.0054	-19.6973	10.9265	17.9051	0.2040	-0.2324	0.7493	-0.5857
8.82	-0.3352	-9.0368	-2.1991	0.0191	-0.0076	0.0056	-19.7227	10.8424	17.9266	0.2040	-0.2324	0.7492	-0.5856
8.83	-0.3296	-9.0410	-2.2110	0.0147	-0.0017	0.0086	-19.6955	10.8334	17.6466	0.2040	-0.2324	0.7493	-0.5856
8.84	-0.3245	-9.0414	-2.2127	0.0165	-0.0064	0.0111	-19.7229	11.0378	17.8760	0.2040	-0.2324	0.7493	-0.5856
8.85	-0.3223	-9.0387	-2.2071	0.0156	-0.0044	0.0097	-19.6933	10.8468	17.8586	0.2040	-0.2324	0.7492	-0.5856
8.86	-0.3220	-9.0380	-2.2086	0.0150	-0.0036	0.0074	-19.8286	10.7530	17.6981	0.2040	-0.2324	0.7493	-0.5857
8.87	-0.3201	-9.0406	-2.2081	0.0094	-0.0074	0.0065	-19.7371	10.7276	17.9079	0.2040	-0.2324	0.7493	-0.5856
8.88	-0.3235	-9.0424	-2.2001	0.0119	-0.0098	0.0115	-19.7197	10.8889	17.8736	0.2040	-0.2324	0.7493	-0.5857
8.89	-0.3293	-9.0386	-2.1961	0.0131	-0.0073	0.0107	-19.6174	10.8784	17.6249	0.2040	-0.2324	0.7492	-0.5856
8.9	-0.3317	-9.0374	-2.1928	0.0099	-0.0059	0.0103	-19.6447	10.6994	17.5552	0.2040	-0.2324	0.7493	-0.5856
8.91	-0.3333	-9.0433	-2.1939	0.0067	-0.0066	0.0100	-19.5714	10.8595	17.5686	0.2040	-0.2324	0.7493	-0.5856
8.92	-0.3337	-9.0400	-2.1881	0.0053	-0.0073	0.0084	-19.5453	11.0466	17.5586	0.2040	-0.2324	0.7493	-0.5855
8.93	-0.3364	-9.0392	-2.1826	0.0095	-0.0091	0.0057	-19.4397	10.8079	17.5612	0.2040	-0.2324	0.7494	-0.5855
8.94	-0.3354	-9.0420	-2.1776	0.0152	-0.0072	0.0109	-19.7652	11.0045	17.7073	0.2040	-0.2324	0.7494	-0.5855
8.95	-0.3358	-9.0406	-2.1740	0.0229	-0.0084	0.0104	-19.8976	10.9624	17.7190	0.2040	-0.2324	0.7494	-0.5855
8.96	-0.3358	-9.0358	-2.1657	0.0218	-0.0052	0.0116	-19.5643	10.8283	17.8188	0.2040	-0.2324	0.7493	-0.5855
8.97	-0.3341	-9.0381	-2.1724	0.0128	-0.0058	0.0098	-19.6960	10.8514	17.9279	0.2040	-0.2324	0.7494	-0.5856
8.98	-0.3338	-9.0404	-2.1704	0.0137	-0.0070	0.0045	-19.6613	10.9720	17.7335	0.2040	-0.2324	0.7493	-0.5855
8.99	-0.3358	-9.0349	-2.1613	0.0165	-0.0036	0.0083	-19.6606	10.8192	17.7480	0.2040	-0.2324	0.7494	-0.5856
9	-0.3327	-9.0396	-2.1677	0.0095	-0.0070	0.0040	-19.8244	10.9484	17.7138	0.2040	-0.2324	0.7493	-0.5855
9.01	-0.3313	-9.0471	-2.1734	0.0040	-0.0036	0.0044	-19.6367	10.9890	17.7590	0.2039	-0.2324	0.7494	-0.5855
9.02	-0.3286	-9.0402	-2.1729	0.0087	-0.0006	0.0127	-19.6564	10.7268	17.6642	0.2039	-0.2324	0.7494	-0.5855
9.03	-0.3266	-9.0350	-2.1682	0.0134	-0.0070	0.0053	-19.8160	10.8386	17.7025	0.2039	-0.2324	0.7494	-0.5854
9.04	-0.3271	-9.0431	-2.1791	0.0041	-0.0046	0.0035	-19.6789	10.9472	17.9516	0.2039	-0.2325	0.7495	-0.5855
9.05	-0.3254	-9.0425	-2.1795	0.0069	-0.0078	0.0069	-19.6287	10.7575	17.8848	0.2039	-0.2325	0.7495	-0.5854
9.06	-0.3249	-9.0378	-2.1823	0.0114	-0.0069	0.0049	-19.6267	10.8258	17.9451	0.2039	-0.2325	0.7495	-0.5855
9.07	-0.3200	-9.0387	-2.1869	0.0127	-0.0074	0.0095	-19.6475	10.8500	17.7929	0.2038	-0.2325	0.7494	-0.5854
9.08	-0.3209	-9.0432	-2.1950	0.0100	-0.0091	0.0090	-19.7006	10.8403	17.8564	0.2039	-0.2325	0.7495	-0.5854
9.09	-0.3132	-9.0371	-2.1946	0.0133	-0.0068	0.0078	-19.6298	10.6543	17.7516	0.2039	-0.2325	0.7495	-0.5854
9.1	-0.3151	-9.0408	-2.2013	0.0087	-0.0068	0.0101	-19.8320	10.8171	17.7922	0.2038	-0.2325	0.7495	-0.5853
9.11	-0.3180	-9.0431	-2.2079	0.0116	-0.0014	0.0085	-19.6748	10.9504	17.9451	0.2039	-0.2325	0.7496	-0.5854
9.12	-0.3207	-9.0368	-2.2030	0.0172	-0.0087	0.0073	-19.7601	10.7876	17.7346	0.2038	-0.2325	0.7495	-0.5853
9.13	-0.3217	-9.0378	-2.1996	0.0057	-0.0073	0.0088	-19.5821	10.9195	17.7732	0.2038	-0.2325	0.7496	-0.5853
9.14	-0.3278	-9.0400	-2.2110	0.0110	-0.0055	0.0059	-19.4677	10.9919	18.0075	0.2038	-0.2325	0.7495	-0.5852
9.15	-0.3277	-9.0416	-2.2125	0.0144	-0.0154	0.0134	-19.4216	11.1215	18.1819	0.2039	-0.2325	0.7496	-0.5853
9.16	-0.3276	-9.0304	-2.1922	0.0061	-0.0061	0.0094	-19.4989	11.1659	18.0405	0.2039	-0.2325	0.7496	-0.5852
9.17	-0.3281	-9.0374	-2.1930	0.0041	-0.0039	0.0088	-19.6981	11.2104	17.8769	0.2038	-0.2325	0.7496	-0.5852
9.18	-0.3270	-9.0487	-2.1903	0.0049	-0.0090	0.0051	-19.8052	10.9129	17.6993	0.2038	-0.2326	0.7496	-0.5852
9.19	-0.3235	-9.0426	-2.1918	0.0115	-0.0063	0.0060	-19.9539	10.8320	17.7992	0.2038	-0.2326	0.7496	-0.5851
9.2	-0.3263	-9.0324	-2.1865	0.0030	-0.0062	0.0078	-19.7107	11.0436	17.9934	0.2038	-0.2326	0.7497	-0.5851
9.21	-0.3256	-9.0413	-2.1782	0.0154	-0.0045	0.0064	-19.9422	10.8576	17.6966	0.2038	-0.2326	0.7496	-0.5851
9.22	-0.3302	-9.0448	-2.1757	0.0185	-0.0078	0.0091	-19.8820	10.8909	17.6716	0.2038	-0.2326	0.7497	-0.5851
9.23	-0.3320	-9.0373	-2.1765	0.0100	-0.0078	0.0131	-19.8444	10.9008	17.7450	0.2038	-0.2326	0.7497	-0.5851
9.24	-0.3364	-9.0376	-2.1672	0.0133	-0.0134	0.0116	-19.9850	10.8106	17.8022	0.2038	-0.2326	0.7497	-0.5851
9.25	-0.3411	-9.0385	-2.1694	0.0184	-0.0117	0.0128	-19.6287	10.7967	17.8465	0.2039	-0.2326	0.7497	-0.5851
9.26	-0.3425	-9.0383	-2.1659	0.0127	-0.0160	0.0165	-19.4871	10.8110	17.9652	0.2039	-0.2326	0.7497	-0.5851
9.27	-0.3391	-9.0398	-2.1738	0.0123	-0.0081	0.0124	-19.5569	10.8389	17.8265	0.2040	-0.2326	0.7497	-0.5851
9.28	-0.3324	-9.0470	-2.1770	0.0085	-0.0102	0.0123	-19.6893	11.0131	17.6009	0.2039	-0.2326	0.7497	-0.5850
9.29	-0.3318	-9.0377	-2.1823	0.0171	-0.0091	0.0124	-19.5609	10.7419	17.7032	0.2040	-0.2326	0.7498	-0.5850
9.3	-0.3184	-9.0339	-2.1804	0.0101	-0.0136	0.0046	-19.6373	10.7510	17.8886	0.2040	-0.2326	0.7497	-0.5850
9.31	-0.3184	-9.0489	-2.1863	0.0143	-0.0103	0.0135	-19.5001	10.8666	18.0194	0.2040	-0.2326	0.7498	-0.5850
9.32	-0.3148	-9.0405	-2.1844	0.0232	-0.0101	0.0086	-19.7000	11.0844	17.8991	0.2040	-0.2326	0.7496	-0.5850
9.33	-0.3153	-9.0340	-2.1792	0.0150	-0.0175	0.0076	-19.7645	10.9010	17.9279	0.2041	-0.2326	0.7497	-0.5850
9.34	-0.3128	-9.0440	-2.1964	0.0128	-0.0061	0.0124	-19.7975	10.7530	17.8723	0.2041	-0.2326	0.7497	-0.5850
9.35	-0.3164	-9.0444	-2.2001	0.0102	-0.0058	0.0078	-19.8612	10.8948	17.8027	0.2041	-0.2326	0.7497	-0.5849
9.36	-0.3185	-9.0396	-2.2024	0.0140	-0.0094	0.0081	-19.8257	10.8799	17.8450	0.2041	-0.2327	0.7498	-0.5850
9.37	-0.3186	-9.0403	-2.2027	0.0108	-0.0057	0.0045	-19.8391	10.8857	17.8027	0.2041	-0.2327	0.7497	-0.5849
9.38	-0.3170	-9.0437	-2.2056	0.0128	0.0015	0.0072	-19.6398	10.8784	17.9026	0.2041	-0.2327	0.7498	-0.5850
9.39	-0.3208	-9.0365	-2.1982	0.0146	-0.0008	0.0073	-19.8661	10.9559	17.9277	0.2040	-0.2326	0.7497	-0.5849
9.4	-0.3255	-9.0413	-2.2017	0.0071	-0.0032	0.0076	-19.8045	10.9899	17.7901	0.2040	-0.2326	0.7498	-0.5849
9.41	-0.3266	-9.0362	-2.1885	0.0156	-0.0043	0.0069	-19.7720	10.9060	17.8837	0.2040	-0.2326	0.7498	-0.5849
9.42	-0.3347	-9.0365	-2.1878	0.0121	-0.0062	0.0086	-19.8875	10.8812	17.9555	0.2040	-0.2326	0.7497	-0.5849
9.43	-0.3423	-9.0401	-2.1885	0.0158	-0.0116	0.0119	-19.7078	10.8747	17.6982	0.2040	-0.2326	0.7498	-0.5849
9.44	-0.3428	-9.0393	-2.1857	0.0180	-0.0119	0.0096	-19.5651	10.6827	17.6627	0.2040	-0.2326	0.7497	-0.5849
9.45	-0.3418	-9.0406	-2.1912	0.0155	-0.0071	0.0066	-19.8019	10.7505	17.8444	0.2040	-0.2327	0.7498	-0.5849
9.46	-0.3442	-9.0370	-2.1825	0.0196	-0.0058	0.0053	-19.5762	10.6984	17.8153	0.2040	-0.2326	0.7497	-0.5849
9.47	-0.3454	-9.0404	-2.1852	0.0156	-0.0023	0.0059	-19.6266	10.8562	17.9760	0.2040	-0.2327	0.7498	-0.5850
9.48	-0.3371	-9.0429	-2.1852	0.0120	-0.0090	0.0057	-19.5265	10.7442	17.6806	0.2040	-0.2327	0.7497	-0.5849
9.49	-0.3342	-9.0417	-2.1839	0.0162	-0.0078	0.0060	-19.5681	10.7294	18.0131	0.2040	-0.2327	0.7497	-0.5849
9.5	-0.3304	-9.0345	-2.1793	0.0089	-0.0074	0.0057	-19.6129	10.7042	17.8966	0.2040	-0.2327	0.7497	-0.5849
9.51	-0.3271	-9.0424	-2.1901	0.0189	-0.0089	0.0092	-19.7046	10.8876	17.8723	0.2040	-0.2327	0.7497	-0.5849
9.52	-0.3275	-9.0406	-2.1806	0.0225	-0.0105	0.0166	-19.8082	10.8149	18.0241	0.2040	-0.2327	0.7497	-0.5849
9.53	-0.3204	-9.0352	-2.1797	0.0155	-0.0063	0.0080	-19.6463	10.8762	17.7810	0.2040	-0.2327	0.7497	-0.5849
9.54	-0.3202	-9.0375	-2.1835	0.0156	-0.0034	0.0038	-19.7059	10.9740	17.8643	0.2040	-0.2327	0.7498	-0.5850
9.55	-0.3193	-9.0473	-2.1882	0.0072	-0.0080	0.0076	-19.7630	10.8706	17.9368	0.2040	-0.2327	0.7497	-0.5849
9.56	-0.3211	-9.0381	-2.1817	0.0071	-0.0009	0.0017	-19.8141	10.8730	17.8638	0.2040	-0.2327	0.7498	-0.5849
9.57	-0.3227	-9.0372	-2.1776	0.0191	-0.0050	0.0052	-19.8391	10.9981	17.7012	0.2039	-0.2327	0.7497	-0.5849
9.58	-0.3238	-9.0451	-2.1877	0.0142	-0.0055	0.0072	-19.9489	10.9066	17.8911	0.2039	-0.2327	0.7497	-0.5849
9.59	-0.3219	-9.0349	-2.1797	0.0064	-0.0030	0.0075	-19.8653	10.9456	17.8901	0.2039	-0.2327	0.7498	-0.5849
9.6	-0.3230	-9.0335	-2.1797	0.0088	-0.0056	0.0100	-19.8270	10.8990	17.7194	0.2039	-0.2327	0.7498	-0.5848
9.61	-0.3300	-9.0451	-2.1896	0.0121	-0.0086	0.0094	-19.7511	10.9020	17.7603	0.2039	-0.2327	0.7499	-0.5849
9.62	-0.3300	-9.0444	-2.1876	0.0161	-0.0115	0.0147	-19.7690	10.9541	17.8449	0.2039	-0.2327	0.7498	-0.5848
9.63	-0.3298	-9.0371	-2.1832	0.0111	-0.0063	0.0085	-19.6889	10.6567	17.6113	0.2040	-0.2327	0.7499	-0.5849
9.64	-0.3384	-9.0356	-2.1898	0.0142	-0.0084	0.0126	-19.3030	10.9151	17.8587	0.2039	-0.2327	0.7498	-0.5848
9.65	-0.3404	-9.0387	-2.1930	0.0018	-0.0123	0.0125	-19.0715	11.0835	18.1051	0.2040	-0.2327	0.7499	-0.5848
9.66	-0.3407	-9.0400	-2.1979	0.0082	-0.0099	0.0085	-19.3692	11.0158	17.6476	0.2040	-0.2327	0.7499	-0.5847
9.67	-0.3380	-9.0360	-2.2002	0.0169	-0.0068	0.0047	-19.5460	11.0244	17.8631	0.2040	-0.2327	0.7499	-0.5847
9.68	-0.3363	-9.0421	-2.2077	0.0156	-0.0094	0.0077	-19.6498	11.0076	17.7931	0.2040	-0.2328	0.7499	-0.5847
9.69	-0.3283	-9.0403	-2.2027	0.0067	-0.0136	0.0053	-19.7827	10.8908	17.7254	0.2040	-0.2328	0.7499	-0.5847
9.7	-0.3222	-9.0337	-2.1969	0.0103	-0.0101	0.0050	-19.8673	10.9252	17.9059	0.2040	-0.2328	0.7499	-0.5847
9.71	-0.3139	-9.0394	-2.1926	0.0141	-0.0134	0.0114	-19.6483	10.9099	17.8949	0.2040	-0.2328	0.7498	-0.5846
9.72	-0.3136	-9.0468	-2.1966	0.0082	-0.0119	0.0101	-19.9563	10.9068	18.0115	0.2040	-0.2329	0.7499	-0.5846
9.73	-0.3124	-9.0367	-2.1856	0.0088	-0.0045	0.0072	-19.9057	10.9117	17.9563	0.2040	-0.2329	0.7499	-0.5846
9.74	-0.3207	-9.0384	-2.1845	0.0143	-0.0048	0.0088	-19.8624	10.9086	17.8178	0.2040	-0.2329	0.7500	-0.5846
9.75	-0.3229	-9.0430	-2.1860	0.0079	-0.0032	0.0046	-19.7840	10.9175	17.7229	0.2040	-0.2329	0.7499	-0.5846
9.76	-0.3290	-9.0445	-2.1850	0.0102	-0.0070	0.0093	-19.7823	10.9071	17.8388	0.2040	-0.2329	0.7500	-0.5846
9.77	-0.3300	-9.0370	-2.1812	0.0153	-0.0100	0.0086	-19.7902	10.9248	17.9920	0.2040	-0.2329	0.7500	-0.5846
9.78	-0.3303	-9.0435	-2.1810	0.0096	-0.0036	0.0038	-19.7823	10.8395	17.9272	0.2040	-0.2329	0.7499	-0.5845
9.79	-0.3296	-9.0395	-2.1814	0.0071	-0.0050	0.0033	-19.7785	10.7195	17.6868	0.2039	-0.2329	0.7500	-0.5845
9.8	-0.3300	-9.0367	-2.1803	0.0066	-0.0125	0.0115	-19.9297	10.9255	17.6043	0.2039	-0.2329	0.7500	-0.5845
9.81	-0.3308	-9.0441	-2.1875	0.0032	-0.0158	0.0092	-19.9092	11.0495	17.7145	0.2040	-0.2330	0.7501	-0.5845
9.82	-0.3303	-9.0424	-2.1837	0.0042	-0.0065	0.0113	-19.6714	10.7860	17.7264	0.2040	-0.2330	0.7500	-0.5843
9.83	-0.3313	-9.0344	-2.1827	0.0060	-0.0108	0.0106	-19.7202	10.8870	17.7508	0.2040	-0.2330	0.7501	-0.5843
9.84	-0.3329	-9.0355	-2.1810	0.0157	-0.0064	0.0085	-19.6730	10.8714	17.8534	0.2040	-0.2330	0.7501	-0.5843
9.85	-0.3286	-9.0450	-2.1851	0.0128	-0.0074	0.0106	-19.5125	10.5314	17.7541	0.2040	-0.2330	0.7501	-0.5843
9.86	-0.3311	-9.0452	-2.1835	0.0055	-0.0069	0.0043	-19.7369	10.8072	17.7050	0.2040	-0.2330	0.7502	-0.5843
9.87	-0.3307	-9.0396	-2.1935	0.0137	-0.0085	0.0094	-19.7997	10.9467	17.9227	0.2040	-0.2330	0.7501	-0.5843
9.88	-0.3298	-9.0397	-2.1905	0.0129	-0.0068	0.0090	-19.5977	11.0894	17.7721	0.2040	-0.2330	0.7502	-0.5843
9.89	-0.3288	-9.0415	-2.1869	0.0123	-0.0064	0.0093	-19.6603	11.0063	17.6278	0.2040	-0.2330	0.7501	-0.5842
9.9	-0.3304	-9.0395	-2.1793	0.0068	-0.0142	0.0126	-19.6522	10.6760	17.7301	0.2040	-0.2330	0.7502	-0.5842
9.91	-0.3264	-9.0432	-2.1886	0.0115	-0.0096	0.0094	-19.5330	10.8303	17.6494	0.2040	-0.2330	0.7502	-0.5842
9.92	-0.3289	-9.0417	-2.1909	0.0097	-0.0121	0.0027	-19.7296	10.8274	17.8471	0.2040	-0.2331	0.7502	-0.5841
9.93	-0.3268	-9.0364	-2.1900	0.0095	-0.0084	0.0038	-19.6121	10.9236	17.7188	0.2040	-0.2331	0.7502	-0.5841
9.94	-0.3264	-9.0370	-2.1897	0.0081	-0.0049	0.0061	-19.8412	11.0345	17.8475	0.2040	-0.2331	0.7502	-0.5841
9.95	-0.3273	-9.0454	-2.1886	0.0061	-0.0082	0.0055	-19.7533	10.9265	17.9949	0.2040	-0.2331	0.7503	-0.5841
9.96	-0.3285	-9.0390	-2.1940	0.0082	-0.0083	0.0065	-19.8864	10.9103	17.9010	0.2039	-0.2331	0.7502	-0.5840
9.97	-0.3302	-9.0366	-2.1902	0.0060	-0.0046	0.0039	-19.7577	10.9111	17.8126	0.2039	-0.2332	0.7503	-0.5840
9.98	-0.3341	-9.0440	-2.2008	0.0088	-0.0063	0.0050	-19.6672	10.9387	17.9471	0.2039	-0.2332	0.7503	-0.5840
9.99	-0.3377	-9.0446	-2.2018	0.0086	-0.0127	0.0135	-19.8074	10.8387	17.8775	0.2039	-0.2332	0.7504	-0.5840
10	-0.3396	-9.0322	-2.1865	0.0151	-0.0132	0.0102	-19.6784	10.8298	17.9340	0.2040	-0.2332	0.7503	-0.5839
10.01	-0.3358	-9.0413	-2.1957	0.0118	-0.0072	0.0104	-19.7657	10.9404	17.9864	0.2040	-0.2332	0.7504	-0.5839
10.02	-0.3388	-9.0445	-2.1945	0.0137	-0.0144	0.0106	-19.7420	10.8969	17.8312	0.2040	-0.2332	0.7504	-0.5839
10.03	-0.3317	-9.0361	-2.1839	0.0102	-0.0047	0.0042	-19.6948	10.9405	17.7955	0.2040	-0.2332	0.7503	-0.5839
10.04	-0.3346	-9.0381	-2.1895	0.0088	-0.0115	0.0107	-19.6024	10.7903	17.8545	0.2040	-0.2333	0.7504	-0.5839
10.05	-0.3300	-9.0439	-2.1891	0.0140	-0.0124	0.0046	-19.6692	10.8974	17.7470	0.2040	-0.2333	0.7504	-0.5838
10.06	-0.3321	-9.0407	-2.1861	0.0106	-0.0065	0.0070	-19.7104	10.8742	17.7894	0.2040	-0.2333	0.7505	-0.5839
10.07	-0.3285	-9.0320	-2.1823	0.0109	-0.0084	0.0062	-19.7882	10.7238	17.8217	0.2040	-0.2333	0.7504	-0.5838
10.08	-0.3270	-9.0400	-2.1734	0.0063	-0.0081	0.0072	-19.7628	10.8787	17.8301	0.2040	-0.2333	0.7504	-0.5838
10.09	-0.3300	-9.0451	-2.1722	0.0132	-0.0153	0.0140	-19.6803	10.7795	17.7529	0.2040	-0.2333	0.7504	-0.5838
10.1	-0.3211	-9.0391	-2.1632	0.0073	-0.0070	0.0071	-19.7079	11.0036	17.7880	0.2040	-0.2333	0.7504	-0.5837
10.11	-0.3187	-9.0381	-2.1651	0.0033	-0.0042	0.0046	-19.8008	10.9862	17.8292	0.2040	-0.2334	0.7505	-0.5837
10.12	-0.3125	-9.0451	-2.1819	0.0056	-0.0049	0.0070	-19.7748	10.7555	17.9522	0.2040	-0.2334	0.7505	-0.5837
10.13	-0.3080	-9.0382	-2.1822	0.0027	-0.0059	0.0058	-19.6037	10.9680	18.0134	0.2039	-0.2334	0.7506	-0.5837
10.14	-0.3051	-9.0354	-2.1789	0.0069	-0.0036	0.0072	-19.3127	11.1099	17.9706	0.2039	-0.2334	0.7505	-0.5835
10.15	-0.3045	-9.0442	-2.1866	0.0143	-0.0092	0.0065	-19.0391	11.0397	17.9925	0.2039	-0.2334	0.7506	-0.5836
10.16	-0.3051	-9.0421	-2.1912	0.0095	-0.0052	0.0077	-19.5773	11.0061	18.0619	0.2039	-0.2334	0.7506	-0.5836
10.17	-0.3062	-9.0406	-2.1857	0.0150	-0.0073	0.0114	-19.9671	11.2798	18.0347	0.2039	-0.2334	0.7506	-0.5835
10.18	-0.3087	-9.0423	-2.1917	0.0155	-0.0084	0.0101	-19.8389	11.1272	17.8315	0.2039	-0.2334	0.7506	-0.5836
10.19	-0.3153	-9.0462	-2.2016	0.0149	-0.0139	0.0087	-19.6837	10.7882	17.8289	0.2039	-0.2334	0.7506	-0.5835
10.2	-0.3202	-9.0404	-2.2053	0.0143	-0.0143	0.0141	-19.6569	10.6299	17.7494	0.2040	-0.2334	0.7506	-0.5835
10.21	-0.3178	-9.0364	-2.2091	0.0093	-0.0124	0.0102	-19.5771	10.7189	17.7337	0.2040	-0.2334	0.7506	-0.5834
10.22	-0.3250	-9.0458	-2.2148	0.0023	-0.0074	0.0133	-19.5784	10.9292	17.7020	0.2040	-0.2334	0.7507	-0.5835
10.23	-0.3301	-9.0415	-2.2156	0.0110	-0.0095	0.0145	-19.7058	10.7158	17.6456	0.2040	-0.2334	0.7507	-0.5834
10.24	-0.3367	-9.0351	-2.1990	0.0173	-0.0069	0.0116	-19.5702	10.7311	17.8232	0.2041	-0.2334	0.7507	-0.5834
10.25	-0.3443	-9.0405	-2.2023	0.0137	-0.0092	0.0109	-19.5981	10.7105	17.9129	0.2041	-0.2334	0.7507	-0.5834
10.26	-0.3504	-9.0379	-2.1906	0.0111	-0.0102	0.0069	-19.6670	10.7433	18.0103	0.2041	-0.2334	0.7507	-0.5834
10.27	-0.3592	-9.0380	-2.1872	0.0116	-0.0162	0.0127	-19.7051	10.8601	17.7794	0.2041	-0.2334	0.7507	-0.5834
10.28	-0.3634	-9.0404	-2.1842	0.0176	-0.0115	0.0081	-19.8147	10.9644	17.9053	0.2041	-0.2334	0.7506	-0.5833
10.29	-0.3643	-9.0465	-2.1836	0.0118	-0.0066	0.0057	-19.9464	11.0661	17.8642	0.2041	-0.2335	0.7507	-0.5834
10.3	-0.3577	-9.0388	-2.1754	0.0145	-0.0056	0.0058	-19.8224	10.9074	17.7958	0.2041	-0.2335	0.7507	-0.5833
10.31	-0.3564	-9.0381	-2.1779	0.0076	-0.0042	0.0046	-19.6822	10.8764	17.8032	0.2041	-0.2335	0.7508	-0.5834
10.32	-0.3506	-9.0416	-2.1764	0.0030	-0.0086	0.0085	-19.9416	10.9059	17.8988	0.2041	-0.2335	0.7507	-0.5832
10.33	-0.3402	-9.0377	-2.1766	0.0105	-0.0020	0.0115	-19.7693	10.7357	18.0022	0.2041	-0.2335	0.7508	-0.5833
10.34	-0.3382	-9.0312	-2.1757	0.0110	-0.0073	0.0106	-19.7380	10.9291	17.9923	0.2041	-0.2335	0.7508	-0.5832
10.35	-0.3329	-9.0452	-2.1752	0.0079	-0.0043	0.0104	-19.7491	10.9722	17.9112	0.2040	-0.2335	0.7508	-0.5832
10.36	-0.3340	-9.0482	-2.1867	0.0089	-0.0106	0.0113	-19.8166	10.9841	17.7835	0.2041	-0.2335	0.7509	-0.5832
10.37	-0.3292	-9.0347	-2.1787	0.0174	-0.0098	0.0041	-19.8400	10.7690	17.8255	0.2041	-0.2335	0.7508	-0.5832
10.38	-0.3304	-9.0439	-2.1824	0.0208	-0.0093	0.0081	-19.7229	10.7626	17.7983	0.2041	-0.2335	0.7508	-0.5832
10.39	-0.3226	-9.0424	-2.1828	0.0059	-0.0146	0.0132	-19.4639	10.8278	17.8291	0.2041	-0.2335	0.7508	-0.5831
10.4	-0.3185	-9.0375	-2.1826	0.0119	-0.0070	0.0087	-19.5205	10.7052	17.7888	0.2041	-0.2335	0.7509	-0.5831
10.41	-0.3173	-9.0404	-2.1815	0.0115	-0.0070	0.0135	-19.7770	10.7205	17.8749	0.2041	-0.2335	0.7509	-0.5831
10.42	-0.3160	-9.0504	-2.1935	0.0125	-0.0083	0.0081	-19.6466	10.7995	17.9061	0.2041	-0.2335	0.7508	-0.5831
10.43	-0.3115	-9.0436	-2.1883	0.0095	-0.0085	0.0120	-19.6850	10.8074	17.9146	0.2041	-0.2335	0.7509	-0.5831
10.44	-0.3065	-9.0392	-2.1839	0.0095	-0.0098	0.0108	-19.5973	10.6998	17.8496	0.2041	-0.2335	0.7509	-0.5830
10.45	-0.3104	-9.0416	-2.1907	0.0106	-0.0039	0.0073	-19.6519	10.9242	17.6454	0.2041	-0.2335	0.7509	-0.5831
10.46	-0.3123	-9.0446	-2.1922	0.0035	-0.0086	0.0120	-19.9347	10.7681	17.8672	0.2041	-0.2335	0.7509	-0.5829
10.47	-0.3150	-9.0386	-2.1906	0.0076	-0.0070	0.0056	-19.7968	10.9328	17.6292	0.2041	-0.2335	0.7510	-0.5830
10.48	-0.3206	-9.0391	-2.1994	0.0043	-0.0045	0.0054	-19.7976	10.9568	17.8679	0.2041	-0.2336	0.7510	-0.5829
10.49	-0.3314	-9.0473	-2.2081	0.0090	-0.0035	0.0061	-19.6954	11.0427	17.8211	0.2041	-0.2336	0.7510	-0.5829
10.5	-0.3316	-9.0401	-2.1973	0.0185	-0.0056	0.0067	-19.8585	11.0480	17.8247	0.2040	-0.2336	0.7510	-0.5829
10.51	-0.3389	-9.0430	-2.2049	0.0178	-0.0001	0.0083	-19.8956	10.9502	17.8565	0.2040	-0.2335	0.7510	-0.5829
10.52	-0.3360	-9.0465	-2.2086	0.0232	-0.0045	0.0073	-19.7467	10.9704	17.6861	0.2040	-0.2335	0.7510	-0.5830
10.53	-0.3319	-9.0497	-2.2125	0.0291	-0.0113	0.0081	-19.7388	10.9799	18.0340	0.2040	-0.2335	0.7509	-0.5830
10.54	-0.3251	-9.0565	-2.2098	0.0379	-0.0148	0.0053	-19.6660	10.9434	17.8574	0.2041	-0.2335	0.7509	-0.5831
10.55	-0.3193	-9.0552	-2.1995	0.0583	-0.0309	0.0048	-19.7747	10.9002	17.9337	0.2042	-0.2336	0.7507	-0.5832
10.56	-0.3176	-9.0554	-2.1935	0.0676	-0.0308	0.0064	-19.9219	11.0171	17.8063	0.2044	-0.2336	0.7506	-0.5834
10.57	-0.3129	-9.0517	-2.1905	0.0748	-0.0314	-0.0041	-19.8069	10.7948	17.8108	0.2045	-0.2336	0.7503	-0.5835
10.58	-0.3172	-9.0495	-2.1721	0.0751	-0.0423	0.0009	-19.5182	10.5764	17.8217	0.2047	-0.2337	0.7501	-0.5838
10.59	-0.3240	-9.0506	-2.1625	0.0768	-0.0329	0.0055	-19.7833	10.7628	17.6302	0.2048	-0.2337	0.7499	-0.5840
10.6	-0.3312	-9.0490	-2.1572	0.0821	-0.0328	-0.0001	-19.6316	10.8214	17.7028	0.2050	-0.2338	0.7497	-0.5842
10.61	-0.3369	-9.0475	-2.1386	0.0795	-0.0377	0.0083	-19.7815	10.7273	17.8524	0.2052	-0.2338	0.7495	-0.5845
10.62	-0.3429	-9.0501	-2.1335	0.0873	-0.0439	-0.0032	-19.5278	10.8140	17.7647	0.2054	-0.2339	0.7492	-0.5846
10.63	-0.3471	-9.0539	-2.1235	0.0856	-0.0379	-0.0060	-19.3345	10.8952	17.9511	0.2055	-0.2340	0.7490	-0.5849
10.64	-0.3451	-9.0365	-2.0961	0.0768	-0.0375	-0.0090	-19.2833	11.2581	18.0862	0.2056	-0.2340	0.7487	-0.5850
10.65	-0.3449	-9.0400	-2.0923	0.0732	-0.0376	-0.0133	-19.0045	11.1957	18.0426	0.2058	-0.2342	0.7485	-0.5853
10.66	-0.3239	-9.0424	-2.0658	0.0557	-0.0305	-0.0098	-19.5526	11.1529	17.8188	0.2059	-0.2343	0.7483	-0.5854
10.67	-0.3106	-9.0469	-2.0571	0.0310	-0.0269	-0.0065	-19.6518	11.2242	17.8354	0.2059	-0.2343	0.7482	-0.5855
10.68	-0.3297	-9.0640	-2.0989	0.0236	-0.0189	-0.0070	-19.6652	11.0980	17.8286	0.2059	-0.2344	0.7482	-0.5856
10.69	-0.3200	-9.0656	-2.0918	0.0236	-0.0157	-0.0034	-19.7228	11.0101	17.6885	0.2059	-0.2345	0.7481	-0.5856
10.7	-0.3211	-9.0676	-2.0942	0.0285	-0.0217	-0.0017	-19.7068	11.1572	17.7884	0.2060	-0.2346	0.7481	-0.5856
10.71	-0.3118	-9.0590	-2.0795	0.0284	-0.0131	-0.0025	-19.7038	10.9784	17.5899	0.2060	-0.2346	0.7479	-0.5856
10.72	-0.3128	-9.0571	-2.0772	0.0228	-0.0147	-0.0012	-19.8219	11.0458	17.9475	0.2060	-0.2347	0.7480	-0.5857
10.73	-0.3155	-9.0586	-2.0829	0.0242	-0.0128	-0.0037	-19.6086	10.9420	17.9089	0.2060	-0.2347	0.7479	-0.5857
10.74	-0.3205	-9.0655	-2.0859	0.0174	-0.0129	0.0002	-19.7315	10.9972	17.5835	0.2060	-0.2348	0.7479	-0.5858
10.75	-0.3099	-9.0632	-2.0881	0.0171	-0.0140	0.0062	-19.5123	11.0171	17.7852	0.2060	-0.2348	0.7479	-0.5857
10.76	-0.3031	-9.0606	-2.0898	0.0113	-0.0106	0.0071	-19.6131	11.0414	17.5897	0.2060	-0.2348	0.7479	-0.5857
10.77	-0.3098	-9.0596	-2.0920	0.0082	-0.0075	0.0050	-19.5387	11.1091	17.7392	0.2060	-0.2348	0.7479	-0.5857
10.78	-0.2999	-9.0658	-2.0951	0.0046	-0.0070	0.0079	-19.4208	10.8648	17.7424	0.2060	-0.2348	0.7479	-0.5856
10.79	-0.2957	-9.0746	-2.1073	-0.0020	-0.0075	0.0091	-19.5940	11.2141	17.8490	0.2060	-0.2349	0.7480	-0.5856
10.8	-0.2976	-9.0706	-2.1130	0.0069	-0.0062	0.0111	-19.5244	11.0606	17.9385	0.2060	-0.2349	0.7480	-0.5856
10.81	-0.2878	-9.0602	-2.0958	0.0060	-0.0087	0.0148	-19.6097	10.8699	17.6523	0.2060	-0.2349	0.7481	-0.5856
10.82	-0.3084	-9.0631	-2.1148	-0.0026	-0.0049	0.0108	-19.7206	11.0399	17.6596	0.2060	-0.2348	0.7481	-0.5854
10.83	-0.3006	-9.0636	-2.1000	0.0057	-0.0098	0.0118	-19.6938	11.1248	17.8465	0.2060	-0.2349	0.7481	-0.5854
10.84	-0.3052	-9.0569	-2.0986	-0.0007	-0.0091	0.0156	-19.5910	11.2055	17.6547	0.2060	-0.2349	0.7482	-0.5853
10.85	-0.3165	-9.0622	-2.1072	-0.0011	-0.0051	0.0128	-19.7322	11.1703	17.9285	0.2060	-0.2348	0.7482	-0.5852
10.86	-0.3193	-9.0730	-2.1207	-0.0004	-0.0069	0.0152	-19.7008	11.1047	17.8017	0.2060	-0.2349	0.7484	-0.5853
10.87	-0.3165	-9.0609	-2.1081	-0.0005	-0.0040	0.0123	-19.6074	10.9451	17.8549	0.2060	-0.2348	0.7483	-0.5851
10.88	-0.3148	-9.0492	-2.0946	0.0014	0.0051	0.0141	-19.6696	10.9656	17.7503	0.2060	-0.2348	0.7485	-0.5851
10.89	-0.3261	-9.0648	-2.1166	-0.0033	0.0051	0.0173	-19.8255	11.1335	17.7820	0.2059	-0.2347	0.7484	-0.5850
10.9	-0.3126	-9.0685	-2.0998	-0.0010	0.0038	0.0139	-19.7476	10.9389	18.1010	0.2059	-0.2347	0.7486	-0.5850
10.91	-0.3157	-9.0599	-2.0936	-0.0102	0.0081	0.0215	-19.5993	10.9753	17.8401	0.2058	-0.2346	0.7486	-0.5849
10.92	-0.3451	-9.0639	-2.1287	-0.0201	0.0100	0.0230	-19.6470	11.0330	17.6244	0.2057	-0.2346	0.7488	-0.5848
10.93	-0.3465	-9.0586	-2.1321	-0.0046	0.0013	0.0162	-19.5440	11.0157	17.7545	0.2057	-0.2345	0.7489	-0.5847
10.94	-0.3263	-9.0511	-2.1025	-0.0030	-0.0054	0.0176	-19.5172	11.0103	17.6339	0.2057	-0.2345	0.7489	-0.5846
10.95	-0.3373	-9.0669	-2.1247	-0.0065	-0.0006	0.0152	-19.4518	10.8541	17.8725	0.2057	-0.2345	0.7490	-0.5846
10.96	-0.3285	-9.0582	-2.1134	0.0004	-0.0063	0.0171	-19.4799	10.8502	17.7379	0.2057	-0.2345	0.7490	-0.5844
10.97	-0.3299	-9.0544	-2.1261	0.0052	-0.0015	0.0153	-19.4620	10.9549	17.6470	0.2057	-0.2345	0.7491	-0.5844
10.98	-0.3006	-9.0482	-2.0881	-0.0045	-0.0002	0.0107	-19.6089	10.9289	17.5040	0.2056	-0.2344	0.7492	-0.5844
10.99	-0.3064	-9.0633	-2.1149	-0.0120	0.0068	0.0164	-19.6366	10.9429	17.7444	0.2056	-0.2344	0.7493	-0.5843
11	-0.3137	-9.0606	-2.1248	-0.0101	0.0033	0.0148	-19.6150	10.9125	17.7381	0.2055	-0.2344	0.7494	-0.5842
11.01	-0.3086	-9.0562	-2.1218	-0.0099	0.0010	0.0140	-19.7697	11.0770	17.6448	0.2055	-0.2343	0.7495	-0.5841
11.02	-0.3038	-9.0587	-2.1334	-0.0119	-0.0009	0.0159	-19.5800	11.0629	17.6184	0.2055	-0.2343	0.7496	-0.5840
11.03	-0.3154	-9.0633	-2.1541	-0.0042	0.0019	0.0188	-19.5349	10.9311	17.8521	0.2054	-0.2343	0.7496	-0.5839
11.04	-0.3172	-9.0588	-2.1526	-0.0009	0.0017	0.0150	-19.6439	10.9222	17.6903	0.2054	-0.2343	0.7497	-0.5839
11.05	-0.3116	-9.0585	-2.1339	0.0012	-0.0008	0.0146	-19.6381	11.1191	17.6996	0.2054	-0.2342	0.7498	-0.5838
11.06	-0.3162	-9.0658	-2.1387	0.0062	0.0021	0.0176	-19.5670	11.2186	17.9145	0.2054	-0.2342	0.7499	-0.5838
11.07	-0.3117	-9.0523	-2.1170	0.0009	-0.0006	0.0245	-19.6200	11.0865	17.5809	0.2054	-0.2341	0.7498	-0.5837
11.08	-0.3186	-9.0551	-2.1276	-0.0005	-0.0046	0.0195	-19.6363	11.0944	17.8356	0.2054	-0.2341	0.7499	-0.5836
11.09	-0.3188	-9.0626	-2.1348	-0.0001	0.0117	0.0234	-19.4747	10.9733	17.7689	0.2053	-0.2340	0.7500	-0.5836
11.1	-0.3324	-9.0567	-2.1414	0.0054	0.0066	0.0256	-19.7337	11.1146	17.7367	0.2053	-0.2339	0.7500	-0.5835
11.11	-0.3306	-9.0490	-2.1311	0.0160	0.0081	0.0187	-19.7748	10.9886	17.7151	0.2053	-0.2338	0.7502	-0.5836
11.12	-0.3302	-9.0537	-2.1299	0.0051	0.0075	0.0150	-19.5975	11.0390	17.6618	0.2053	-0.2337	0.7501	-0.5835
11.13	-0.3174	-9.0757	-2.1369	0.0123	0.0011	0.0234	-19.5902	10.9536	17.8221	0.2053	-0.2337	0.7502	-0.5835
11.14	-0.3401	-9.0354	-2.1222	0.0064	0.0071	0.0260	-19.1006	10.9342	17.9322	0.2052	-0.2336	0.7502	-0.5834
11.15	-0.3185	-9.0686	-2.1316	0.0045	0.0112	0.0311	-18.9458	10.9183	18.2161	0.2052	-0.2335	0.7503	-0.5834
11.16	-0.3494	-9.0382	-2.1294	0.0215	0.0076	0.0338	-19.1804	10.9070	17.7330	0.2053	-0.2333	0.7504	-0.5834
11.17	-0.3258	-9.0660	-2.1384	0.0008	0.0062	0.0215	-19.4817	11.1918	17.6961	0.2052	-0.2332	0.7504	-0.5834
11.18	-0.3477	-9.0266	-2.1222	0.0081	-0.0020	0.0242	-19.7245	10.9517	17.6209	0.2053	-0.2332	0.7505	-0.5834
11.19	-0.3389	-9.0660	-2.1459	0.0032	0.0008	0.0152	-19.7541	10.7483	17.7001	0.2052	-0.2331	0.7505	-0.5833
11.2	-0.3215	-9.0599	-2.1176	0.0170	-0.0001	0.0196	-19.6954	10.8579	17.7575	0.2053	-0.2331	0.7506	-0.5833
11.21	-0.3514	-9.0305	-2.1015	0.0218	-0.0017	0.0202	-19.5793	11.0488	17.7298	0.2053	-0.2330	0.7505	-0.5833
11.22	-0.3615	-9.0664	-2.1367	0.0197	0.0005	0.0137	-19.4803	11.0675	17.8511	0.2053	-0.2330	0.7506	-0.5834
11.23	-0.3436	-9.0475	-2.1104	0.0093	-0.0032	0.0073	-19.8465	11.3168	17.7978	0.2052	-0.2329	0.7505	-0.5833
11.24	-0.3500	-9.0477	-2.1214	0.0044	-0.0008	0.0069	-19.6886	10.9704	17.8457	0.2052	-0.2330	0.7506	-0.5833
11.25	-0.3413	-9.0813	-2.1452	0.0178	0.0010	0.0127	-19.6551	10.9725	17.7196	0.2052	-0.2329	0.7506	-0.5833
11.26	-0.3687	-9.0235	-2.1055	0.0185	-0.0074	0.0185	-19.7592	11.1794	17.8756	0.2052	-0.2329	0.7506	-0.5833
11.27	-0.3457	-9.0578	-2.1232	0.0080	-0.0099	0.0065	-19.7900	11.0785	17.7246	0.2052	-0.2329	0.7506	-0.5833
11.28	-0.3587	-9.0515	-2.1272	0.0062	-0.0039	0.0106	-19.8485	10.9419	17.8238	0.2052	-0.2329	0.7506	-0.5832
11.29	-0.3521	-9.0619	-2.1325	0.0094	-0.0061	0.0038	-19.8152	11.0008	17.8197	0.2052	-0.2329	0.7507	-0.5833
