time	acceleration_x	acceleration_y	acceleration_z	gyroscope_x	gyroscope_y	gyroscope_z	magnetometer_x	magnetometer_y	magnetometer_z	quaternion_w	quaternion_x	quaternion_y	quaternion_z
0	-0.2446	-9.0244	-2.1981	0.0125	-0.0076	0.0085	-30.0394	13.0971	20.2812	0.1651	-0.1909	0.7644	-0.5933
0.01	-0.2424	-9.0283	-2.2023	0.0087	-0.0047	0.0060	-30.0721	12.9889	20.3196	0.1651	-0.1909	0.7645	-0.5933
0.02	-0.2377	-9.0259	-2.2105	0.0118	-0.0050	0.0107	-29.9742	12.9251	20.5685	0.1651	-0.1909	0.7644	-0.5932
0.03	-0.2421	-9.0221	-2.1993	0.0050	-0.0040	0.0064	-29.9767	13.0470	20.4206	0.1651	-0.1909	0.7644	-0.5932
0.04	-0.2360	-9.0249	-2.2026	0.0141	-0.0064	0.0062	-29.9748	12.8658	20.3197	0.1651	-0.1909	0.7644	-0.5932
0.05	-0.2337	-9.0234	-2.1967	0.0118	-0.0059	0.0113	-29.9869	13.1057	20.5028	0.1650	-0.1909	0.7644	-0.5932
0.06	-0.2336	-9.0314	-2.1973	-0.0003	-0.0017	0.0076	-29.8912	13.2991	20.2676	0.1650	-0.1909	0.7645	-0.5932
0.07	-0.2348	-9.0314	-2.2033	0.0113	-0.0056	0.0113	-29.8904	13.1235	20.2605	0.1650	-0.1909	0.7645	-0.5932
0.08	-0.2393	-9.0189	-2.1996	0.0100	-0.0102	0.0131	-29.8983	13.1033	20.3508	0.1650	-0.1909	0.7646	-0.5932
0.09	-0.2385	-9.0312	-2.2138	0.0135	-0.0063	0.0151	-29.8842	13.1106	20.1804	0.1650	-0.1909	0.7645	-0.5931
0.1	-0.2365	-9.0339	-2.2055	0.0189	-0.0060	0.0109	-29.9083	13.1111	20.1477	0.1650	-0.1909	0.7645	-0.5932
0.11	-0.2372	-9.0193	-2.2053	0.0098	-0.0075	0.0071	-29.8411	12.7858	20.1818	0.1650	-0.1909	0.7645	-0.5932
0.12	-0.2367	-9.0272	-2.2013	0.0122	-0.0057	0.0067	-29.7820	12.8415	20.3503	0.1650	-0.1909	0.7645	-0.5931
0.13	-0.2352	-9.0347	-2.2114	0.0135	-0.0092	0.0086	-29.9281	12.9508	20.1535	0.1650	-0.1909	0.7645	-0.5932
0.14	-0.2336	-9.0209	-2.2077	0.0147	-0.0033	0.0101	-29.7315	13.0954	20.2087	0.1650	-0.1909	0.7645	-0.5932
0.15	-0.2340	-9.0196	-2.2044	0.0176	-0.0017	0.0095	-29.9730	13.0663	20.2121	0.1650	-0.1909	0.7645	-0.5932
0.16	-0.2348	-9.0274	-2.2118	0.0066	-0.0052	0.0076	-29.8916	13.0062	20.4033	0.1650	-0.1909	0.7645	-0.5931
0.17	-0.2352	-9.0220	-2.2037	0.0134	-0.0011	0.0096	-29.9162	13.0383	20.4264	0.1650	-0.1909	0.7646	-0.5932
0.18	-0.2389	-9.0294	-2.2135	-0.0005	-0.0031	0.0133	-29.9720	12.8739	20.2189	0.1649	-0.1909	0.7646	-0.5931
0.19	-0.2436	-9.0254	-2.2055	0.0116	0.0012	0.0056	-30.0446	13.1080	20.3820	0.1649	-0.1909	0.7646	-0.5931
0.2	-0.2436	-9.0202	-2.1964	0.0093	-0.0044	0.0060	-29.9827	13.1015	20.2719	0.1649	-0.1909	0.7646	-0.5931
0.21	-0.2474	-9.0243	-2.1981	0.0162	0.0021	0.0070	-29.8675	12.8986	20.4081	0.1648	-0.1909	0.7646	-0.5931
0.22	-0.2461	-9.0213	-2.1962	0.0203	-0.0031	0.0038	-29.9126	13.1779	20.3370	0.1648	-0.1909	0.7646	-0.5932
0.23	-0.2482	-9.0275	-2.2052	0.0083	0.0005	0.0071	-29.5617	13.2774	20.4509	0.1647	-0.1909	0.7645	-0.5931
0.24	-0.2476	-9.0238	-2.2024	0.0151	0.0001	0.0065	-29.3504	13.2963	20.5113	0.1647	-0.1909	0.7646	-0.5932
0.25	-0.2464	-9.0201	-2.1952	0.0116	-0.0083	0.0111	-29.9512	13.2348	20.3643	0.1647	-0.1909	0.7646	-0.5931
0.26	-0.2482	-9.0311	-2.2062	0.0136	-0.0061	0.0153	-29.9851	13.4512	20.1950	0.1647	-0.1909	0.7647	-0.5932
0.27	-0.2388	-9.0380	-2.2124	0.0117	-0.0092	0.0097	-29.9337	13.1150	20.0973	0.1647	-0.1908	0.7646	-0.5931
0.28	-0.2368	-9.0186	-2.1917	0.0229	-0.0064	0.0115	-29.8184	12.8877	20.1548	0.1648	-0.1908	0.7646	-0.5932
0.29	-0.2298	-9.0305	-2.2035	0.0181	-0.0141	0.0120	-29.7350	13.0221	20.2930	0.1648	-0.1908	0.7646	-0.5932
0.3	-0.2304	-9.0328	-2.2030	0.0187	-0.0037	0.0174	-29.8591	12.7649	20.3322	0.1648	-0.1908	0.7645	-0.5932
0.31	-0.2288	-9.0202	-2.1900	0.0117	-0.0020	0.0137	-29.8391	12.9897	20.2881	0.1648	-0.1908	0.7646	-0.5932
0.32	-0.2282	-9.0369	-2.2057	0.0103	-0.0078	0.0149	-29.7559	12.9433	20.0695	0.1648	-0.1908	0.7646	-0.5932
0.33	-0.2292	-9.0333	-2.2095	0.0160	-0.0054	0.0141	-29.9593	12.9630	20.2363	0.1648	-0.1908	0.7646	-0.5932
0.34	-0.2299	-9.0208	-2.2073	0.0089	-0.0099	0.0082	-29.8277	13.0171	20.1089	0.1648	-0.1907	0.7645	-0.5931
0.35	-0.2349	-9.0223	-2.2154	0.0146	-0.0069	0.0112	-29.9736	12.7685	20.3767	0.1648	-0.1908	0.7646	-0.5932
0.36	-0.2384	-9.0378	-2.2220	0.0087	-0.0123	0.0123	-29.8662	13.0372	20.2098	0.1649	-0.1908	0.7646	-0.5931
0.37	-0.2426	-9.0315	-2.2113	0.0113	-0.0097	0.0137	-29.8762	12.8925	20.3111	0.1649	-0.1908	0.7646	-0.5931
0.38	-0.2466	-9.0205	-2.2065	0.0119	-0.0051	0.0173	-30.1520	12.9358	20.2041	0.1649	-0.1907	0.7646	-0.5931
0.39	-0.2531	-9.0244	-2.2135	0.0124	-0.0020	0.0120	-30.0180	13.2225	20.1067	0.1649	-0.1907	0.7646	-0.5931
0.4	-0.2604	-9.0278	-2.2061	0.0110	-0.0042	0.0104	-30.0710	13.0832	20.5492	0.1649	-0.1907	0.7647	-0.5931
0.41	-0.2571	-9.0180	-2.1950	0.0182	-0.0075	0.0179	-30.1179	13.0473	20.5694	0.1649	-0.1907	0.7646	-0.5931
0.42	-0.2536	-9.0277	-2.1962	0.0169	-0.0029	0.0125	-29.9932	13.1274	20.4486	0.1649	-0.1907	0.7647	-0.5931
0.43	-0.2504	-9.0369	-2.2016	0.0146	-0.0031	0.0126	-30.0351	13.1069	20.3366	0.1649	-0.1906	0.7646	-0.5931
0.44	-0.2478	-9.0223	-2.1879	0.0222	-0.0055	0.0076	-29.9935	13.1284	20.2690	0.1649	-0.1906	0.7646	-0.5932
0.45	-0.2435	-9.0259	-2.1902	0.0163	-0.0059	0.0103	-30.0441	13.1692	20.4216	0.1649	-0.1906	0.7646	-0.5932
0.46	-0.2433	-9.0281	-2.1911	0.0196	-0.0068	0.0114	-29.9554	12.9332	20.0984	0.1649	-0.1906	0.7646	-0.5932
0.47	-0.2447	-9.0267	-2.1937	0.0208	-0.0057	0.0129	-29.7632	13.0436	20.2616	0.1649	-0.1906	0.7646	-0.5932
0.48	-0.2409	-9.0252	-2.1991	0.0121	-0.0102	0.0124	-29.7665	12.8876	20.2752	0.1649	-0.1906	0.7645	-0.5932
0.49	-0.2366	-9.0267	-2.2030	0.0103	-0.0091	0.0133	-29.7679	12.9410	20.0667	0.1650	-0.1906	0.7646	-0.5932
0.5	-0.2343	-9.0279	-2.2016	0.0217	-0.0061	0.0090	-29.8896	12.8663	20.2359	0.1650	-0.1906	0.7646	-0.5932
0.51	-0.2335	-9.0277	-2.1988	0.0241	-0.0067	0.0082	-29.7715	13.0264	20.3549	0.1650	-0.1906	0.7646	-0.5933
0.52	-0.2294	-9.0229	-2.2038	0.0197	-0.0080	0.0155	-29.7595	12.8050	20.1104	0.1650	-0.1905	0.7645	-0.5932
0.53	-0.2271	-9.0234	-2.2015	0.0169	-0.0073	0.0123	-29.8871	12.7624	20.2619	0.1650	-0.1905	0.7645	-0.5933
0.54	-0.2254	-9.0333	-2.2075	0.0189	-0.0048	0.0105	-29.9679	13.1866	20.1796	0.1650	-0.1905	0.7645	-0.5933
0.55	-0.2282	-9.0266	-2.2023	0.0169	-0.0090	0.0120	-29.8201	13.0925	20.3044	0.1650	-0.1905	0.7644	-0.5933
0.56	-0.2280	-9.0298	-2.2060	0.0166	-0.0071	0.0134	-30.0658	12.8615	20.3032	0.1650	-0.1905	0.7645	-0.5934
0.57	-0.2314	-9.0317	-2.2009	0.0170	-0.0069	0.0125	-29.9392	13.0964	20.3162	0.1650	-0.1905	0.7645	-0.5933
0.58	-0.2326	-9.0261	-2.2026	0.0140	-0.0062	0.0056	-30.0110	12.9543	20.5071	0.1650	-0.1905	0.7645	-0.5934
0.59	-0.2349	-9.0232	-2.2004	0.0197	-0.0066	0.0048	-29.9292	12.8655	20.3169	0.1650	-0.1905	0.7644	-0.5933
0.6	-0.2402	-9.0250	-2.2024	0.0150	-0.0088	0.0070	-30.1452	13.0612	20.0579	0.1650	-0.1906	0.7645	-0.5934
0.61	-0.2502	-9.0268	-2.2023	0.0136	-0.0027	0.0071	-29.9786	13.0509	20.0587	0.1650	-0.1905	0.7644	-0.5934
0.62	-0.2472	-9.0239	-2.2029	0.0172	-0.0076	0.0095	-29.9151	13.1728	20.2889	0.1650	-0.1905	0.7644	-0.5934
0.63	-0.2525	-9.0254	-2.2091	0.0107	-0.0063	0.0084	-29.9309	13.0474	20.3330	0.1650	-0.1906	0.7644	-0.5934
0.64	-0.2513	-9.0238	-2.2066	0.0170	-0.0051	0.0066	-29.9478	13.0033	20.1240	0.1650	-0.1906	0.7644	-0.5934
0.65	-0.2495	-9.0201	-2.2052	0.0197	-0.0078	0.0130	-30.0279	12.9047	20.2300	0.1650	-0.1906	0.7644	-0.5934
0.66	-0.2465	-9.0262	-2.2108	0.0247	-0.0079	0.0092	-29.6496	12.7036	20.4554	0.1650	-0.1905	0.7643	-0.5934
0.67	-0.2428	-9.0347	-2.2134	0.0231	-0.0054	0.0097	-29.8155	12.8930	20.1529	0.1650	-0.1905	0.7644	-0.5935
0.68	-0.2341	-9.0284	-2.2128	0.0219	-0.0078	0.0070	-29.6949	13.0477	20.1449	0.1650	-0.1905	0.7643	-0.5935
0.69	-0.2269	-9.0223	-2.2041	0.0148	-0.0094	0.0131	-29.7383	12.9233	20.1127	0.1650	-0.1905	0.7643	-0.5935
0.7	-0.2277	-9.0254	-2.2058	0.0158	-0.0107	0.0080	-29.8677	12.8233	20.3305	0.1651	-0.1906	0.7643	-0.5935
0.71	-0.2280	-9.0242	-2.2051	0.0173	-0.0082	0.0083	-29.9721	12.9346	20.2951	0.1651	-0.1906	0.7643	-0.5935
0.72	-0.2335	-9.0271	-2.1999	0.0138	-0.0067	0.0089	-29.8403	12.8928	20.3521	0.1651	-0.1906	0.7643	-0.5936
0.73	-0.2399	-9.0322	-2.2030	0.0173	-0.0137	0.0092	-29.6160	12.9928	20.4905	0.1651	-0.1906	0.7642	-0.5935
0.74	-0.2426	-9.0272	-2.1956	0.0093	-0.0120	0.0147	-29.4564	13.0042	20.7347	0.1651	-0.1906	0.7643	-0.5936
0.75	-0.2429	-9.0220	-2.1989	0.0069	-0.0064	0.0050	-29.7361	12.9439	20.4052	0.1651	-0.1906	0.7643	-0.5935
0.76	-0.2441	-9.0249	-2.1981	0.0105	-0.0100	0.0075	-29.8904	13.0571	20.1445	0.1651	-0.1907	0.7644	-0.5935
0.77	-0.2469	-9.0289	-2.1990	0.0141	-0.0043	0.0069	-29.7399	13.2197	20.2829	0.1651	-0.1906	0.7643	-0.5935
0.78	-0.2493	-9.0208	-2.1941	0.0064	-0.0024	0.0072	-29.8609	12.9420	20.6315	0.1651	-0.1907	0.7643	-0.5935
0.79	-0.2473	-9.0245	-2.2013	0.0107	-0.0059	0.0091	-29.8249	12.9821	20.2815	0.1651	-0.1907	0.7643	-0.5935
0.8	-0.2505	-9.0264	-2.1962	0.0076	-0.0026	0.0091	-30.0957	13.0985	20.3516	0.1650	-0.1906	0.7643	-0.5934
0.81	-0.2470	-9.0263	-2.1968	0.0116	-0.0036	0.0116	-29.9549	13.2114	20.3773	0.1650	-0.1907	0.7644	-0.5935
0.82	-0.2493	-9.0281	-2.1977	0.0100	-0.0082	0.0052	-30.0408	13.0280	20.3696	0.1650	-0.1907	0.7644	-0.5934
0.83	-0.2511	-9.0266	-2.2032	0.0172	-0.0116	0.0120	-30.0569	13.0549	20.3522	0.1650	-0.1907	0.7644	-0.5935
0.84	-0.2483	-9.0213	-2.1967	0.0175	-0.0126	0.0143	-29.8023	12.8366	20.4894	0.1651	-0.1906	0.7643	-0.5934
0.85	-0.2484	-9.0296	-2.1990	0.0205	-0.0006	0.0149	-29.7354	12.9018	20.1076	0.1651	-0.1906	0.7643	-0.5935
0.86	-0.2465	-9.0302	-2.2015	0.0178	-0.0072	0.0108	-29.9052	13.0874	20.1613	0.1651	-0.1906	0.7643	-0.5935
0.87	-0.2427	-9.0248	-2.2035	0.0076	-0.0098	0.0134	-29.8505	12.9327	20.2046	0.1651	-0.1906	0.7643	-0.5934
0.88	-0.2384	-9.0284	-2.2055	0.0131	-0.0061	0.0146	-29.7164	12.9461	20.2930	0.1651	-0.1906	0.7644	-0.5935
0.89	-0.2381	-9.0248	-2.2017	0.0161	-0.0030	0.0083	-29.7827	12.9529	20.2875	0.1651	-0.1906	0.7643	-0.5935
0.9	-0.2338	-9.0224	-2.1987	0.0109	-0.0062	0.0065	-29.8502	12.9234	20.2966	0.1651	-0.1906	0.7644	-0.5935
0.91	-0.2303	-9.0217	-2.1983	0.0085	-0.0068	0.0122	-29.8035	13.0389	20.2695	0.1651	-0.1906	0.7643	-0.5934
0.92	-0.2370	-9.0316	-2.2097	0.0179	-0.0074	0.0109	-29.8661	13.0080	20.4230	0.1651	-0.1906	0.7644	-0.5935
0.93	-0.2349	-9.0276	-2.2078	0.0151	-0.0086	0.0100	-29.9146	12.9314	20.4457	0.1651	-0.1906	0.7643	-0.5934
0.94	-0.2366	-9.0250	-2.2047	0.0154	-0.0005	0.0060	-29.9173	13.1496	20.2755	0.1651	-0.1906	0.7644	-0.5935
0.95	-0.2359	-9.0271	-2.1994	0.0097	-0.0046	0.0104	-29.8823	12.9898	20.2785	0.1651	-0.1906	0.7643	-0.5934
0.96	-0.2376	-9.0270	-2.1995	0.0102	-0.0056	0.0047	-29.8523	12.9517	20.4219	0.1650	-0.1906	0.7644	-0.5934
0.97	-0.2354	-9.0264	-2.1973	0.0212	-0.0036	0.0067	-30.0867	13.0871	20.2764	0.1650	-0.1906	0.7644	-0.5935
0.98	-0.2416	-9.0320	-2.2073	0.0090	-0.0030	0.0054	-30.0762	13.1798	20.3504	0.1650	-0.1906	0.7643	-0.5934
0.99	-0.2419	-9.0181	-2.1922	0.0093	0.0022	0.0047	-29.8723	13.2953	20.3731	0.1649	-0.1906	0.7644	-0.5935
1	-0.2396	-9.0269	-2.2015	0.0251	-0.0059	0.0103	-29.8163	13.1170	20.2267	0.1649	-0.1906	0.7643	-0.5935
1.01	-0.2466	-9.0305	-2.1998	0.0081	-0.0081	0.0078	-29.8244	13.1156	20.3914	0.1649	-0.1906	0.7644	-0.5935
1.02	-0.2417	-9.0202	-2.1931	0.0144	-0.0116	0.0147	-29.9163	13.0966	20.3498	0.1650	-0.1906	0.7643	-0.5935
1.03	-0.2404	-9.0244	-2.1991	0.0180	-0.0066	0.0121	-29.8961	13.0115	20.2880	0.1650	-0.1906	0.7643	-0.5935
1.04	-0.2390	-9.0330	-2.2061	0.0181	-0.0065	0.0079	-29.7665	13.0260	20.0536	0.1650	-0.1906	0.7643	-0.5935
1.05	-0.2393	-9.0229	-2.1968	0.0122	-0.0064	0.0104	-29.6592	13.0477	20.0741	0.1650	-0.1906	0.7643	-0.5935
1.06	-0.2386	-9.0309	-2.2023	0.0193	-0.0064	0.0093	-29.6627	12.9179	20.3380	0.1650	-0.1906	0.7644	-0.5936
1.07	-0.2317	-9.0328	-2.2086	0.0214	-0.0086	0.0048	-29.9310	13.0125	20.2708	0.1650	-0.1906	0.7643	-0.5936
1.08	-0.2343	-9.0178	-2.1953	0.0210	-0.0077	0.0082	-29.8374	13.1700	20.2765	0.1650	-0.1906	0.7643	-0.5936
1.09	-0.2314	-9.0319	-2.2109	0.0208	-0.0032	0.0104	-29.8186	12.9841	20.3732	0.1650	-0.1906	0.7642	-0.5936
1.1	-0.2306	-9.0265	-2.2085	0.0108	-0.0091	0.0128	-29.9340	13.0671	20.4702	0.1650	-0.1906	0.7643	-0.5936
1.11	-0.2299	-9.0281	-2.2050	0.0168	-0.0071	0.0078	-29.8942	13.1014	20.1228	0.1650	-0.1906	0.7642	-0.5936
1.12	-0.2315	-9.0267	-2.2103	0.0151	-0.0047	0.0092	-29.9077	12.8707	20.3954	0.1650	-0.1906	0.7642	-0.5936
1.13	-0.2297	-9.0342	-2.2190	0.0139	-0.0011	0.0071	-29.9097	12.8300	20.2552	0.1650	-0.1906	0.7643	-0.5937
1.14	-0.2300	-9.0321	-2.2106	0.0184	-0.0011	0.0074	-29.7796	13.0431	20.4742	0.1649	-0.1906	0.7642	-0.5937
1.15	-0.2389	-9.0211	-2.2039	0.0180	0.0012	0.0046	-29.9320	13.1237	20.5376	0.1649	-0.1906	0.7642	-0.5937
1.16	-0.2420	-9.0241	-2.2009	0.0182	-0.0012	0.0066	-29.7986	13.1082	20.3408	0.1648	-0.1906	0.7641	-0.5937
1.17	-0.2501	-9.0293	-2.2078	0.0231	0.0019	0.0070	-29.9668	13.2818	20.1748	0.1648	-0.1906	0.7642	-0.5938
1.18	-0.2568	-9.0224	-2.2023	0.0168	0.0010	0.0077	-30.0632	13.0202	20.1953	0.1648	-0.1905	0.7642	-0.5938
1.19	-0.2597	-9.0265	-2.2003	0.0123	-0.0019	0.0071	-29.9109	13.2301	20.4640	0.1648	-0.1905	0.7642	-0.5938
1.2	-0.2600	-9.0272	-2.1962	0.0159	-0.0038	0.0067	-29.8150	12.9964	20.4551	0.1647	-0.1905	0.7642	-0.5938
1.21	-0.2598	-9.0196	-2.1876	0.0167	-0.0121	0.0133	-29.9781	13.1689	20.2326	0.1648	-0.1905	0.7642	-0.5938
1.22	-0.2566	-9.0274	-2.1852	0.0148	-0.0002	0.0048	-29.7122	13.1774	20.3250	0.1647	-0.1905	0.7642	-0.5938
1.23	-0.2538	-9.0352	-2.1889	0.0133	-0.0032	0.0103	-29.3804	13.0100	20.5615	0.1647	-0.1905	0.7641	-0.5938
1.24	-0.2510	-9.0239	-2.1870	0.0228	-0.0043	0.0140	-29.4047	12.9617	20.7009	0.1647	-0.1905	0.7642	-0.5939
1.25	-0.2472	-9.0274	-2.1868	0.0196	-0.0017	0.0130	-29.5533	13.1056	20.4728	0.1647	-0.1904	0.7641	-0.5939
1.26	-0.2426	-9.0209	-2.1811	0.0214	-0.0049	0.0070	-29.8384	13.1207	20.3443	0.1647	-0.1905	0.7642	-0.5940
1.27	-0.2371	-9.0260	-2.1988	0.0216	-0.0063	0.0129	-29.9669	13.2283	20.4032	0.1647	-0.1904	0.7640	-0.5939
1.28	-0.2307	-9.0282	-2.2029	0.0134	-0.0044	0.0140	-29.6550	13.0274	20.3308	0.1647	-0.1904	0.7641	-0.5939
1.29	-0.2351	-9.0276	-2.1997	0.0203	-0.0065	0.0108	-29.7636	12.9203	20.2113	0.1648	-0.1904	0.7641	-0.5940
1.3	-0.2360	-9.0320	-2.2079	0.0214	-0.0010	0.0090	-29.9418	12.9379	20.4402	0.1647	-0.1904	0.7640	-0.5940
1.31	-0.2316	-9.0226	-2.2110	0.0142	-0.0073	0.0112	-29.9125	13.2021	20.2563	0.1648	-0.1904	0.7641	-0.5941
1.32	-0.2334	-9.0197	-2.2082	0.0086	0.0020	0.0082	-29.9141	13.0963	20.3429	0.1647	-0.1904	0.7641	-0.5940
1.33	-0.2332	-9.0294	-2.2089	0.0168	-0.0030	0.0067	-29.9733	13.2447	20.2091	0.1647	-0.1904	0.7641	-0.5940
1.34	-0.2330	-9.0279	-2.2105	0.0157	-0.0037	0.0091	-30.0189	13.1399	20.2015	0.1647	-0.1903	0.7640	-0.5940
1.35	-0.2325	-9.0246	-2.2081	0.0126	-0.0043	0.0068	-30.0729	12.9484	20.3163	0.1646	-0.1903	0.7641	-0.5940
1.36	-0.2328	-9.0277	-2.2168	0.0165	-0.0098	0.0090	-29.9508	12.9829	20.4790	0.1647	-0.1904	0.7641	-0.5940
1.37	-0.2321	-9.0307	-2.2161	0.0188	-0.0017	0.0084	-29.8394	13.0311	20.3982	0.1646	-0.1903	0.7640	-0.5940
1.38	-0.2386	-9.0244	-2.2078	0.0199	-0.0031	0.0081	-29.8424	13.1844	20.3858	0.1646	-0.1903	0.7640	-0.5941
1.39	-0.2428	-9.0214	-2.2040	0.0175	-0.0047	0.0131	-30.0885	13.1060	20.4881	0.1646	-0.1903	0.7640	-0.5941
1.4	-0.2483	-9.0273	-2.2116	0.0189	-0.0089	0.0137	-30.0430	12.8093	20.2657	0.1647	-0.1903	0.7640	-0.5941
1.41	-0.2485	-9.0261	-2.2115	0.0138	-0.0044	0.0067	-29.8232	12.8849	20.0827	0.1646	-0.1903	0.7639	-0.5941
1.42	-0.2467	-9.0238	-2.2064	0.0165	-0.0070	0.0065	-29.8293	13.0218	20.4087	0.1646	-0.1903	0.7640	-0.5941
1.43	-0.2460	-9.0266	-2.2106	0.0185	-0.0085	0.0109	-29.7198	13.0967	20.2837	0.1646	-0.1903	0.7640	-0.5941
1.44	-0.2394	-9.0280	-2.2128	0.0195	-0.0084	0.0118	-29.8374	12.9869	20.2035	0.1647	-0.1903	0.7640	-0.5942
1.45	-0.2329	-9.0266	-2.2008	0.0198	-0.0080	0.0051	-29.8324	12.9841	20.1960	0.1647	-0.1903	0.7639	-0.5942
1.46	-0.2242	-9.0260	-2.2032	0.0260	-0.0056	0.0079	-29.8401	12.9848	20.2928	0.1647	-0.1903	0.7639	-0.5942
1.47	-0.2212	-9.0375	-2.2062	0.0185	-0.0082	0.0096	-29.8378	12.9684	20.5774	0.1647	-0.1903	0.7639	-0.5943
1.48	-0.2231	-9.0307	-2.2054	0.0228	-0.0091	0.0078	-29.8582	12.7087	20.2900	0.1647	-0.1903	0.7638	-0.5942
1.49	-0.2288	-9.0221	-2.1974	0.0215	-0.0132	0.0157	-29.7117	12.7706	20.3024	0.1647	-0.1903	0.7639	-0.5943
1.5	-0.2323	-9.0269	-2.2016	0.0145	-0.0099	0.0138	-29.7106	13.0988	20.3408	0.1648	-0.1903	0.7638	-0.5943
1.51	-0.2440	-9.0259	-2.2024	0.0125	-0.0033	0.0103	-30.0166	13.0050	20.4155	0.1648	-0.1903	0.7639	-0.5943
1.52	-0.2493	-9.0163	-2.1913	0.0165	-0.0092	0.0080	-29.9885	12.8684	20.2988	0.1648	-0.1903	0.7638	-0.5943
1.53	-0.2502	-9.0225	-2.1983	0.0151	-0.0047	0.0028	-29.9986	12.9452	20.3928	0.1647	-0.1903	0.7638	-0.5943
1.54	-0.2552	-9.0358	-2.1972	0.0162	-0.0062	0.0126	-29.8344	13.1330	20.4077	0.1647	-0.1903	0.7638	-0.5943
1.55	-0.2519	-9.0252	-2.1952	0.0211	-0.0086	0.0102	-29.9040	12.9448	20.2892	0.1648	-0.1903	0.7637	-0.5943
1.56	-0.2494	-9.0185	-2.1933	0.0093	-0.0039	0.0114	-30.0225	13.0936	20.3306	0.1648	-0.1903	0.7639	-0.5944
1.57	-0.2511	-9.0281	-2.1957	0.0202	-0.0047	0.0096	-29.9904	13.4129	20.3546	0.1647	-0.1903	0.7638	-0.5944
1.58	-0.2531	-9.0211	-2.1943	0.0136	-0.0141	0.0134	-30.0124	13.1038	20.2775	0.1648	-0.1903	0.7638	-0.5944
1.59	-0.2485	-9.0185	-2.1942	0.0160	-0.0128	0.0156	-29.9281	12.9579	20.2996	0.1648	-0.1903	0.7637	-0.5943
1.6	-0.2543	-9.0314	-2.2069	0.0159	-0.0062	0.0085	-29.6963	13.0025	20.4396	0.1648	-0.1903	0.7638	-0.5944
1.61	-0.2489	-9.0275	-2.2117	0.0188	-0.0067	0.0053	-29.7142	12.9810	20.2864	0.1648	-0.1903	0.7638	-0.5944
1.62	-0.2477	-9.0146	-2.2012	0.0157	-0.0065	0.0048	-29.7768	12.9954	20.1812	0.1648	-0.1903	0.7637	-0.5944
1.63	-0.2489	-9.0269	-2.2013	0.0167	-0.0066	0.0098	-29.7348	12.8821	20.3350	0.1648	-0.1904	0.7638	-0.5944
1.64	-0.2394	-9.0360	-2.2077	0.0204	-0.0093	0.0142	-29.9059	12.9145	20.1686	0.1648	-0.1903	0.7637	-0.5944
1.65	-0.2342	-9.0218	-2.1928	0.0151	-0.0070	0.0170	-29.6864	13.0538	20.2576	0.1649	-0.1903	0.7637	-0.5944
1.66	-0.2352	-9.0236	-2.2016	0.0154	-0.0098	0.0098	-29.7359	12.7770	20.1071	0.1649	-0.1903	0.7637	-0.5944
1.67	-0.2330	-9.0299	-2.2051	0.0174	-0.0100	0.0094	-30.0550	12.9626	20.2621	0.1649	-0.1903	0.7637	-0.5945
1.68	-0.2304	-9.0306	-2.1968	0.0163	-0.0155	0.0175	-29.9838	13.2161	20.2879	0.1649	-0.1903	0.7637	-0.5944
1.69	-0.2273	-9.0223	-2.1976	0.0130	-0.0063	0.0090	-30.0008	13.0499	20.1005	0.1649	-0.1903	0.7637	-0.5944
1.7	-0.2303	-9.0250	-2.2014	0.0167	-0.0051	0.0057	-29.9998	13.0687	20.2277	0.1649	-0.1903	0.7637	-0.5944
1.71	-0.2328	-9.0233	-2.2064	0.0163	0.0000	0.0051	-29.9802	13.1794	20.3230	0.1649	-0.1903	0.7637	-0.5945
1.72	-0.2364	-9.0283	-2.2111	0.0193	-0.0018	0.0074	-29.8768	13.2653	20.4613	0.1649	-0.1903	0.7637	-0.5945
1.73	-0.2388	-9.0217	-2.2058	0.0206	-0.0027	0.0106	-29.7502	13.1311	20.4808	0.1649	-0.1903	0.7636	-0.5945
1.74	-0.2474	-9.0253	-2.1995	0.0168	-0.0024	0.0075	-29.6325	13.1507	20.5252	0.1649	-0.1903	0.7637	-0.5946
1.75	-0.2441	-9.0291	-2.2114	0.0167	-0.0061	0.0059	-29.7918	13.1880	20.3589	0.1648	-0.1903	0.7636	-0.5945
1.76	-0.2455	-9.0179	-2.2039	0.0142	-0.0028	0.0069	-29.7610	13.4105	20.1704	0.1648	-0.1903	0.7637	-0.5946
1.77	-0.2454	-9.0220	-2.2126	0.0116	-0.0052	0.0056	-29.8612	13.1588	20.0863	0.1648	-0.1903	0.7636	-0.5945
1.78	-0.2433	-9.0356	-2.2134	0.0176	-0.0094	0.0093	-29.7361	13.0378	20.2399	0.1648	-0.1903	0.7636	-0.5946
1.79	-0.2372	-9.0228	-2.2043	0.0133	-0.0045	0.0109	-29.7785	13.1232	20.3416	0.1648	-0.1903	0.7636	-0.5946
1.8	-0.2353	-9.0203	-2.1970	0.0174	-0.0082	0.0124	-29.7538	12.9207	20.4227	0.1648	-0.1903	0.7636	-0.5945
1.81	-0.2336	-9.0340	-2.2078	0.0198	-0.0076	0.0092	-29.7648	12.9867	20.1471	0.1648	-0.1903	0.7637	-0.5946
1.82	-0.2281	-9.0220	-2.1970	0.0224	-0.0008	0.0131	-29.7654	12.9241	20.2889	0.1648	-0.1903	0.7636	-0.5946
1.83	-0.2285	-9.0227	-2.1961	0.0177	-0.0050	0.0108	-29.9538	13.0272	20.2176	0.1648	-0.1903	0.7636	-0.5947
1.84	-0.2269	-9.0305	-2.1966	0.0133	-0.0059	0.0050	-29.8061	13.0524	20.2052	0.1648	-0.1903	0.7635	-0.5946
1.85	-0.2307	-9.0267	-2.2009	0.0232	-0.0039	0.0092	-29.8833	12.8134	20.1714	0.1648	-0.1903	0.7636	-0.5947
1.86	-0.2285	-9.0244	-2.2022	0.0201	-0.0118	0.0104	-30.0471	12.9504	20.1440	0.1648	-0.1903	0.7635	-0.5947
1.87	-0.2342	-9.0255	-2.2087	0.0167	-0.0089	0.0079	-29.9297	13.1691	20.5084	0.1648	-0.1903	0.7635	-0.5947
1.88	-0.2353	-9.0216	-2.1997	0.0214	-0.0038	0.0048	-29.8998	12.8905	20.3438	0.1648	-0.1903	0.7635	-0.5947
1.89	-0.2385	-9.0202	-2.2000	0.0110	-0.0040	0.0060	-30.0999	13.0256	20.2750	0.1648	-0.1903	0.7635	-0.5947
1.9	-0.2439	-9.0189	-2.1928	0.0136	-0.0016	0.0072	-29.9686	12.9528	20.2833	0.1648	-0.1903	0.7635	-0.5948
1.91	-0.2516	-9.0349	-2.2015	0.0170	-0.0080	0.0057	-29.9076	13.0458	20.2983	0.1647	-0.1903	0.7634	-0.5947
1.92	-0.2610	-9.0273	-2.1988	0.0125	-0.0035	0.0061	-29.9024	12.8956	20.1696	0.1647	-0.1903	0.7635	-0.5948
1.93	-0.2651	-9.0213	-2.1927	0.0155	-0.0073	0.0145	-29.8589	12.9296	20.4296	0.1648	-0.1903	0.7635	-0.5947
1.94	-0.2628	-9.0264	-2.2002	0.0032	-0.0024	0.0038	-29.9644	12.8817	20.4344	0.1647	-0.1903	0.7635	-0.5947
1.95	-0.2620	-9.0251	-2.1938	0.0089	-0.0021	0.0087	-29.8838	12.9582	20.2418	0.1647	-0.1903	0.7635	-0.5947
1.96	-0.2590	-9.0246	-2.1931	0.0171	-0.0076	0.0090	-30.0746	13.1524	20.3250	0.1647	-0.1903	0.7635	-0.5947
1.97	-0.2605	-9.0258	-2.1985	0.0145	-0.0070	0.0114	-30.0252	12.9360	20.2034	0.1647	-0.1903	0.7635	-0.5947
1.98	-0.2478	-9.0325	-2.2042	0.0130	-0.0046	0.0102	-29.6431	12.9564	20.2200	0.1647	-0.1903	0.7635	-0.5947
1.99	-0.2426	-9.0228	-2.2011	0.0164	-0.0082	0.0057	-29.7045	13.0679	20.1728	0.1647	-0.1903	0.7636	-0.5948
2	-0.2411	-9.0223	-2.2099	0.0217	-0.0071	0.0103	-29.7723	12.8512	19.9937	0.1647	-0.1903	0.7635	-0.5947
2.01	-0.2426	-9.0282	-2.2038	0.0188	-0.0086	0.0053	-29.9904	13.0153	20.3007	0.1647	-0.1904	0.7635	-0.5948
2.02	-0.2324	-9.0252	-2.2092	0.0177	-0.0097	0.0096	-30.0155	13.0347	20.2796	0.1647	-0.1904	0.7634	-0.5947
2.03	-0.2322	-9.0236	-2.2039	0.0183	-0.0061	0.0091	-29.7864	13.0571	20.2834	0.1647	-0.1904	0.7635	-0.5948
2.04	-0.2311	-9.0276	-2.2146	0.0178	-0.0084	0.0076	-29.9103	12.9563	20.1092	0.1647	-0.1904	0.7634	-0.5948
2.05	-0.2316	-9.0248	-2.2149	0.0122	-0.0105	0.0112	-29.9234	13.0778	20.1855	0.1647	-0.1904	0.7634	-0.5948
2.06	-0.2306	-9.0251	-2.2114	0.0168	-0.0083	0.0067	-29.9297	13.3416	20.2049	0.1647	-0.1904	0.7635	-0.5949
2.07	-0.2283	-9.0220	-2.2034	0.0170	-0.0048	0.0064	-29.9054	13.1085	20.1795	0.1647	-0.1904	0.7634	-0.5948
2.08	-0.2320	-9.0252	-2.2072	0.0149	0.0024	0.0080	-29.7465	12.9417	20.2615	0.1647	-0.1904	0.7635	-0.5949
2.09	-0.2322	-9.0251	-2.2096	0.0173	-0.0075	0.0121	-29.8403	13.0450	20.3975	0.1647	-0.1904	0.7633	-0.5948
2.1	-0.2388	-9.0279	-2.2136	0.0152	-0.0064	0.0160	-30.0573	13.1283	20.2374	0.1647	-0.1903	0.7634	-0.5949
2.11	-0.2333	-9.0246	-2.2121	0.0185	0.0037	0.0059	-30.1063	13.1211	20.3462	0.1647	-0.1903	0.7634	-0.5949
2.12	-0.2369	-9.0227	-2.2047	0.0128	0.0046	0.0074	-30.0230	13.0940	20.3765	0.1646	-0.1903	0.7634	-0.5949
2.13	-0.2384	-9.0268	-2.1992	0.0096	-0.0015	0.0047	-29.9003	13.2392	20.3644	0.1646	-0.1903	0.7634	-0.5949
2.14	-0.2396	-9.0269	-2.1956	0.0220	-0.0019	0.0075	-29.9563	13.0073	20.3681	0.1646	-0.1903	0.7634	-0.5949
2.15	-0.2475	-9.0275	-2.1958	0.0182	-0.0103	0.0107	-30.0432	13.1746	20.1789	0.1646	-0.1903	0.7634	-0.5950
2.16	-0.2457	-9.0263	-2.1977	0.0129	-0.0076	0.0112	-29.8367	13.1398	20.2117	0.1646	-0.1903	0.7633	-0.5949
2.17	-0.2458	-9.0278	-2.1975	0.0062	-0.0071	0.0098	-29.7302	13.0318	20.1727	0.1646	-0.1903	0.7634	-0.5949
2.18	-0.2433	-9.0241	-2.1928	0.0102	-0.0064	0.0111	-29.9361	13.1401	19.9493	0.1646	-0.1903	0.7634	-0.5949
2.19	-0.2402	-9.0292	-2.1947	0.0146	-0.0081	0.0079	-29.8373	12.9145	20.1837	0.1646	-0.1903	0.7634	-0.5949
2.2	-0.2343	-9.0213	-2.1874	0.0172	-0.0084	0.0075	-29.8497	12.9937	20.3190	0.1646	-0.1903	0.7634	-0.5949
2.21	-0.2290	-9.0211	-2.1960	0.0182	-0.0081	0.0053	-30.0335	12.8864	20.3825	0.1646	-0.1903	0.7634	-0.5949
2.22	-0.2307	-9.0276	-2.2011	0.0057	-0.0060	0.0090	-29.8018	12.9105	20.2033	0.1646	-0.1904	0.7634	-0.5949
2.23	-0.2276	-9.0246	-2.2077	0.0145	-0.0045	0.0094	-29.6104	13.0497	20.2043	0.1645	-0.1903	0.7634	-0.5948
2.24	-0.2304	-9.0250	-2.2000	0.0191	-0.0098	0.0111	-29.3355	12.9557	20.1502	0.1646	-0.1904	0.7634	-0.5949
2.25	-0.2344	-9.0268	-2.2074	0.0238	-0.0032	0.0126	-29.8486	13.1192	20.4898	0.1646	-0.1903	0.7634	-0.5949
2.26	-0.2355	-9.0188	-2.2014	0.0198	-0.0038	0.0149	-29.8527	13.5069	20.4667	0.1646	-0.1903	0.7634	-0.5950
2.27	-0.2400	-9.0242	-2.2089	0.0111	-0.0043	0.0111	-29.8965	13.1624	20.1902	0.1646	-0.1903	0.7633	-0.5949
2.28	-0.2491	-9.0257	-2.2129	0.0184	-0.0028	0.0091	-30.0093	12.8482	20.4416	0.1646	-0.1903	0.7634	-0.5950
2.29	-0.2503	-9.0248	-2.2082	0.0101	-0.0082	0.0090	-29.9253	13.1705	20.3783	0.1646	-0.1903	0.7634	-0.5949
2.3	-0.2510	-9.0252	-2.2044	0.0178	-0.0027	0.0102	-29.8664	13.1204	20.3360	0.1646	-0.1902	0.7633	-0.5949
2.31	-0.2490	-9.0284	-2.2075	0.0237	-0.0012	0.0083	-30.0255	13.1263	20.3511	0.1646	-0.1903	0.7634	-0.5950
2.32	-0.2495	-9.0249	-2.1977	0.0179	-0.0047	0.0116	-29.9015	13.1634	20.2088	0.1645	-0.1902	0.7633	-0.5950
2.33	-0.2518	-9.0298	-2.1975	0.0124	-0.0107	0.0151	-29.9534	13.0126	20.3522	0.1646	-0.1902	0.7634	-0.5950
2.34	-0.2500	-9.0301	-2.1964	0.0192	-0.0076	0.0188	-29.9901	12.8629	20.3570	0.1646	-0.1902	0.7633	-0.5950
2.35	-0.2488	-9.0251	-2.1991	0.0232	-0.0047	0.0116	-29.7707	12.8719	20.2530	0.1646	-0.1902	0.7633	-0.5951
2.36	-0.2478	-9.0282	-2.1970	0.0153	-0.0099	0.0108	-29.8276	12.7876	20.2758	0.1646	-0.1902	0.7633	-0.5950
2.37	-0.2509	-9.0235	-2.2026	0.0219	-0.0061	0.0144	-29.8403	13.0206	20.2653	0.1647	-0.1901	0.7633	-0.5951
2.38	-0.2446	-9.0250	-2.2071	0.0165	-0.0099	0.0077	-30.1131	12.8284	20.2569	0.1647	-0.1902	0.7633	-0.5951
2.39	-0.2447	-9.0233	-2.1930	0.0134	-0.0027	0.0146	-29.7327	12.8337	20.2878	0.1647	-0.1901	0.7633	-0.5951
2.4	-0.2438	-9.0299	-2.2012	0.0187	-0.0050	0.0129	-29.8413	12.8994	20.2312	0.1647	-0.1901	0.7633	-0.5951
2.41	-0.2403	-9.0279	-2.2003	0.0184	-0.0101	0.0067	-29.9256	12.8810	20.3833	0.1647	-0.1901	0.7632	-0.5951
2.42	-0.2355	-9.0281	-2.2030	0.0213	-0.0069	0.0108	-29.7833	12.9732	20.3016	0.1647	-0.1901	0.7633	-0.5951
2.43	-0.2305	-9.0272	-2.2025	0.0211	-0.0061	0.0111	-29.9771	12.8617	20.3168	0.1647	-0.1901	0.7632	-0.5951
2.44	-0.2295	-9.0266	-2.2012	0.0198	-0.0042	0.0075	-29.9581	13.1470	20.2848	0.1647	-0.1901	0.7632	-0.5952
2.45	-0.2325	-9.0235	-2.1953	0.0204	-0.0026	0.0105	-30.0625	13.1241	20.2471	0.1647	-0.1901	0.7632	-0.5952
2.46	-0.2313	-9.0295	-2.2023	0.0127	0.0017	0.0131	-30.1584	12.8843	20.3776	0.1647	-0.1901	0.7632	-0.5952
2.47	-0.2312	-9.0259	-2.1987	0.0178	0.0000	0.0114	-30.0853	12.9140	20.3520	0.1647	-0.1900	0.7632	-0.5952
2.48	-0.2370	-9.0305	-2.2045	0.0206	-0.0068	0.0103	-29.9608	13.0665	20.2711	0.1646	-0.1900	0.7631	-0.5952
2.49	-0.2427	-9.0253	-2.2008	0.0104	-0.0009	0.0097	-29.9718	13.1211	20.2540	0.1646	-0.1900	0.7632	-0.5953
2.5	-0.2437	-9.0211	-2.1922	0.0174	-0.0033	0.0122	-29.9757	13.0207	20.2634	0.1646	-0.1900	0.7632	-0.5952
2.51	-0.2432	-9.0296	-2.1978	0.0146	-0.0055	0.0104	-29.9716	13.0748	20.2650	0.1646	-0.1900	0.7633	-0.5953
2.52	-0.2463	-9.0267	-2.1953	0.0178	-0.0065	0.0180	-29.9835	12.9493	20.2543	0.1646	-0.1899	0.7632	-0.5952
2.53	-0.2387	-9.0245	-2.1964	0.0168	-0.0071	0.0156	-29.8292	12.8626	20.1843	0.1647	-0.1899	0.7632	-0.5953
2.54	-0.2388	-9.0253	-2.2100	0.0211	-0.0075	0.0141	-29.6737	12.9306	20.3243	0.1647	-0.1899	0.7632	-0.5953
2.55	-0.2333	-9.0305	-2.2135	0.0131	-0.0087	0.0137	-29.8401	13.0089	20.1558	0.1647	-0.1899	0.7631	-0.5952
2.56	-0.2278	-9.0176	-2.1985	0.0192	-0.0085	0.0075	-29.6929	12.8283	20.3001	0.1647	-0.1899	0.7632	-0.5953
2.57	-0.2280	-9.0237	-2.2078	0.0225	-0.0057	0.0081	-29.6716	12.8520	20.3831	0.1647	-0.1899	0.7631	-0.5953
2.58	-0.2279	-9.0264	-2.2046	0.0186	-0.0094	0.0108	-29.7938	13.0736	20.0862	0.1648	-0.1899	0.7632	-0.5954
2.59	-0.2321	-9.0258	-2.2139	0.0219	-0.0091	0.0110	-29.8932	13.0493	20.1663	0.1648	-0.1899	0.7631	-0.5953
2.6	-0.2318	-9.0253	-2.2038	0.0248	-0.0073	0.0111	-29.9854	12.9319	20.3006	0.1648	-0.1899	0.7631	-0.5954
2.61	-0.2340	-9.0354	-2.2096	0.0264	-0.0084	0.0136	-29.9982	12.8712	20.5661	0.1648	-0.1899	0.7630	-0.5954
2.62	-0.2360	-9.0255	-2.2138	0.0176	-0.0087	0.0143	-29.9010	13.1394	20.3579	0.1648	-0.1899	0.7630	-0.5954
2.63	-0.2346	-9.0159	-2.2086	0.0103	-0.0042	0.0095	-29.8949	13.1269	20.2459	0.1648	-0.1899	0.7631	-0.5954
2.64	-0.2350	-9.0221	-2.2144	0.0183	-0.0071	0.0135	-29.9940	13.1511	20.3764	0.1648	-0.1898	0.7630	-0.5954
2.65	-0.2411	-9.0272	-2.2144	0.0205	-0.0048	0.0135	-29.9847	13.2627	20.3342	0.1649	-0.1898	0.7631	-0.5955
2.66	-0.2406	-9.0216	-2.2018	0.0203	-0.0051	0.0082	-29.8927	13.0837	20.3467	0.1648	-0.1898	0.7629	-0.5954
2.67	-0.2451	-9.0220	-2.1987	0.0202	-0.0044	0.0104	-29.9079	13.1966	20.3608	0.1649	-0.1898	0.7630	-0.5955
2.68	-0.2543	-9.0272	-2.2030	0.0245	-0.0041	0.0105	-30.0054	13.1374	20.2957	0.1648	-0.1898	0.7630	-0.5955
2.69	-0.2567	-9.0245	-2.1926	0.0156	-0.0032	0.0143	-29.9360	12.9896	20.2490	0.1649	-0.1898	0.7630	-0.5956
2.7	-0.2623	-9.0260	-2.1946	0.0284	0.0015	0.0102	-30.0965	13.1715	20.2566	0.1648	-0.1897	0.7629	-0.5956
2.71	-0.2585	-9.0271	-2.1929	0.0161	-0.0082	0.0140	-29.7607	12.9737	20.2803	0.1649	-0.1897	0.7629	-0.5956
2.72	-0.2584	-9.0303	-2.1924	0.0151	-0.0067	0.0122	-29.5950	12.9799	20.4283	0.1649	-0.1897	0.7630	-0.5956
2.73	-0.2552	-9.0234	-2.1904	0.0208	-0.0069	0.0129	-29.4401	12.9563	20.5264	0.1649	-0.1897	0.7629	-0.5956
2.74	-0.2474	-9.0217	-2.1901	0.0203	-0.0056	0.0143	-29.2385	12.9971	20.7006	0.1649	-0.1897	0.7630	-0.5957
2.75	-0.2457	-9.0243	-2.1916	0.0222	-0.0067	0.0130	-29.4747	12.9430	20.2798	0.1649	-0.1896	0.7629	-0.5957
2.76	-0.2467	-9.0220	-2.1951	0.0202	-0.0078	0.0102	-29.6874	13.2257	20.0774	0.1649	-0.1897	0.7629	-0.5958
2.77	-0.2452	-9.0209	-2.1906	0.0121	-0.0068	0.0104	-29.8819	13.4225	20.3451	0.1649	-0.1896	0.7628	-0.5957
2.78	-0.2428	-9.0353	-2.2062	0.0204	-0.0080	0.0091	-29.9732	12.8776	20.4316	0.1649	-0.1896	0.7629	-0.5957
2.79	-0.2391	-9.0290	-2.2071	0.0249	-0.0058	0.0056	-30.0470	12.9174	20.2450	0.1649	-0.1896	0.7628	-0.5958
2.8	-0.2385	-9.0212	-2.2049	0.0151	-0.0122	0.0124	-29.9332	13.0486	20.2409	0.1650	-0.1896	0.7628	-0.5957
2.81	-0.2390	-9.0273	-2.2093	0.0123	-0.0096	0.0108	-29.9292	12.9459	20.3354	0.1650	-0.1897	0.7629	-0.5958
2.82	-0.2372	-9.0264	-2.2065	0.0111	-0.0019	0.0051	-29.9624	13.2216	20.3564	0.1649	-0.1897	0.7628	-0.5957
2.83	-0.2365	-9.0285	-2.2069	0.0213	-0.0030	0.0108	-30.1051	12.9496	20.4562	0.1649	-0.1897	0.7629	-0.5958
2.84	-0.2318	-9.0286	-2.2042	0.0153	-0.0079	0.0098	-30.1044	13.0440	20.3178	0.1649	-0.1896	0.7628	-0.5957
2.85	-0.2344	-9.0247	-2.2045	0.0121	-0.0009	0.0057	-30.0870	13.1182	20.2147	0.1649	-0.1897	0.7628	-0.5958
2.86	-0.2335	-9.0280	-2.2114	0.0220	0.0001	0.0129	-29.9563	13.0024	20.2863	0.1649	-0.1896	0.7628	-0.5958
2.87	-0.2313	-9.0271	-2.2115	0.0174	0.0048	0.0059	-29.9235	13.0748	20.4103	0.1649	-0.1896	0.7628	-0.5958
2.88	-0.2372	-9.0236	-2.2054	0.0164	-0.0045	0.0077	-30.0461	12.9249	20.5339	0.1648	-0.1896	0.7628	-0.5958
2.89	-0.2388	-9.0364	-2.2121	0.0165	-0.0065	0.0108	-29.9965	12.9981	20.3420	0.1648	-0.1896	0.7628	-0.5958
2.9	-0.2402	-9.0288	-2.2074	0.0211	-0.0095	0.0142	-29.8712	13.0784	20.1588	0.1649	-0.1896	0.7628	-0.5959
2.91	-0.2417	-9.0247	-2.2078	0.0204	-0.0046	0.0129	-29.7733	12.9486	20.1513	0.1649	-0.1896	0.7627	-0.5958
2.92	-0.2444	-9.0310	-2.2089	0.0149	-0.0061	0.0093	-29.8711	12.9676	20.2840	0.1649	-0.1896	0.7628	-0.5959
2.93	-0.2423	-9.0278	-2.2148	0.0164	-0.0055	0.0091	-29.8554	12.9427	20.2056	0.1649	-0.1896	0.7628	-0.5959
2.94	-0.2442	-9.0182	-2.2092	0.0148	-0.0034	0.0085	-29.8511	13.0208	20.3933	0.1649	-0.1896	0.7628	-0.5959
2.95	-0.2421	-9.0259	-2.2060	0.0207	-0.0046	0.0087	-29.8856	13.1554	20.5368	0.1649	-0.1896	0.7627	-0.5959
2.96	-0.2365	-9.0349	-2.2095	0.0193	-0.0038	0.0084	-29.8155	12.9793	20.3634	0.1648	-0.1896	0.7627	-0.5959
2.97	-0.2295	-9.0268	-2.2052	0.0215	-0.0038	0.0157	-29.7999	12.9906	20.1574	0.1649	-0.1895	0.7627	-0.5960
2.98	-0.2284	-9.0192	-2.1963	0.0188	0.0031	0.0111	-29.9662	13.1572	20.5378	0.1648	-0.1895	0.7627	-0.5959
2.99	-0.2292	-9.0384	-2.2060	0.0186	-0.0096	0.0144	-29.9364	13.0907	20.4661	0.1649	-0.1895	0.7628	-0.5960
3	-0.2312	-9.0267	-2.1962	0.0147	-0.0074	0.0111	-29.9491	13.1767	20.4588	0.1649	-0.1895	0.7627	-0.5960
3.01	-0.2338	-9.0144	-2.1880	0.0234	-0.0008	0.0041	-29.9394	12.9633	20.4664	0.1649	-0.1895	0.7627	-0.5961
3.02	-0.2328	-9.0311	-2.2053	0.0204	-0.0031	0.0058	-29.9480	12.9737	20.4066	0.1648	-0.1895	0.7626	-0.5960
3.03	-0.2372	-9.0305	-2.1967	0.0196	-0.0004	0.0097	-29.9343	13.0125	20.3000	0.1648	-0.1895	0.7627	-0.5961
3.04	-0.2386	-9.0274	-2.1988	0.0176	0.0011	0.0075	-29.9565	12.9876	20.4039	0.1648	-0.1894	0.7627	-0.5961
3.05	-0.2419	-9.0256	-2.2048	0.0152	-0.0030	0.0060	-29.9169	13.0553	20.3594	0.1647	-0.1894	0.7626	-0.5961
3.06	-0.2420	-9.0227	-2.1954	0.0098	0.0005	0.0071	-29.9762	13.0571	20.2244	0.1647	-0.1894	0.7627	-0.5961
3.07	-0.2459	-9.0185	-2.1938	0.0179	-0.0061	0.0070	-29.9931	13.1154	20.2454	0.1647	-0.1894	0.7626	-0.5961
3.08	-0.2496	-9.0280	-2.2014	0.0135	-0.0086	0.0107	-29.6909	13.0174	20.2583	0.1647	-0.1895	0.7627	-0.5961
3.09	-0.2484	-9.0278	-2.1964	0.0150	-0.0096	0.0140	-29.7453	13.0663	20.2230	0.1647	-0.1894	0.7626	-0.5960
3.1	-0.2483	-9.0327	-2.2066	0.0227	-0.0066	0.0065	-30.0532	12.9214	20.5138	0.1647	-0.1895	0.7626	-0.5961
3.11	-0.2505	-9.0195	-2.1998	0.0143	-0.0075	0.0119	-29.8799	12.9890	20.4217	0.1647	-0.1894	0.7626	-0.5961
3.12	-0.2501	-9.0222	-2.2112	0.0165	-0.0075	0.0047	-29.7151	12.8816	20.2870	0.1647	-0.1895	0.7626	-0.5961
3.13	-0.2490	-9.0295	-2.2144	0.0227	-0.0069	0.0089	-29.9798	12.8665	20.4685	0.1647	-0.1895	0.7626	-0.5962
3.14	-0.2483	-9.0255	-2.2128	0.0129	0.0002	0.0073	-30.0637	13.0185	20.2371	0.1647	-0.1895	0.7626	-0.5962
3.15	-0.2453	-9.0255	-2.2000	0.0175	-0.0102	0.0069	-30.0870	13.0432	20.4984	0.1647	-0.1895	0.7626	-0.5962
3.16	-0.2418	-9.0261	-2.2019	0.0112	-0.0039	0.0068	-29.8951	13.0424	20.4282	0.1647	-0.1895	0.7625	-0.5961
3.17	-0.2417	-9.0215	-2.1972	0.0190	-0.0062	0.0106	-30.0773	13.1376	20.3098	0.1647	-0.1895	0.7626	-0.5962
3.18	-0.2397	-9.0244	-2.1994	0.0237	-0.0104	0.0119	-29.9422	12.9657	20.1522	0.1647	-0.1895	0.7626	-0.5962
3.19	-0.2403	-9.0256	-2.2045	0.0199	-0.0051	0.0080	-29.9619	12.9538	20.2778	0.1647	-0.1895	0.7626	-0.5962
3.2	-0.2387	-9.0252	-2.2028	0.0171	-0.0006	0.0013	-29.8238	12.9687	20.4714	0.1647	-0.1895	0.7625	-0.5962
3.21	-0.2324	-9.0251	-2.2054	0.0157	-0.0026	0.0058	-29.9268	12.9461	20.2581	0.1647	-0.1895	0.7625	-0.5962
3.22	-0.2384	-9.0221	-2.1989	0.0116	-0.0015	0.0108	-30.0016	12.9873	20.2725	0.1646	-0.1895	0.7626	-0.5963
3.23	-0.2386	-9.0292	-2.2090	0.0131	-0.0032	0.0095	-29.5636	13.2080	20.5122	0.1646	-0.1895	0.7625	-0.5962
3.24	-0.2375	-9.0258	-2.2074	0.0225	-0.0047	0.0081	-29.5997	13.3088	20.5624	0.1646	-0.1895	0.7626	-0.5963
3.25	-0.2384	-9.0199	-2.2034	0.0211	-0.0025	0.0069	-29.7318	13.0731	20.5142	0.1646	-0.1895	0.7625	-0.5963
3.26	-0.2390	-9.0309	-2.2084	0.0177	-0.0006	0.0101	-29.9127	13.3315	20.3213	0.1646	-0.1895	0.7626	-0.5964
3.27	-0.2375	-9.0287	-2.2021	0.0226	-0.0104	0.0100	-30.0012	13.1601	20.2175	0.1646	-0.1894	0.7625	-0.5963
3.28	-0.2431	-9.0235	-2.1967	0.0190	-0.0063	0.0117	-29.7595	12.5033	20.2845	0.1646	-0.1894	0.7625	-0.5964
3.29	-0.2435	-9.0253	-2.1990	0.0225	-0.0113	0.0133	-29.6861	12.8634	20.2295	0.1647	-0.1894	0.7625	-0.5964
3.3	-0.2482	-9.0279	-2.1976	0.0231	-0.0035	0.0125	-29.6415	13.0103	20.0477	0.1647	-0.1894	0.7624	-0.5964
3.31	-0.2446	-9.0243	-2.1933	0.0155	-0.0064	0.0149	-29.6663	12.9996	20.2207	0.1647	-0.1894	0.7625	-0.5965
3.32	-0.2429	-9.0209	-2.1885	0.0201	-0.0093	0.0137	-29.7957	12.9838	20.2407	0.1647	-0.1894	0.7624	-0.5964
3.33	-0.2400	-9.0341	-2.2011	0.0208	-0.0030	0.0089	-29.8161	12.8077	20.3524	0.1647	-0.1894	0.7625	-0.5965
3.34	-0.2424	-9.0255	-2.2043	0.0207	-0.0076	0.0081	-29.8922	12.9194	20.2480	0.1647	-0.1894	0.7623	-0.5964
3.35	-0.2422	-9.0230	-2.2062	0.0218	-0.0051	0.0137	-29.9947	13.1119	20.0458	0.1647	-0.1894	0.7624	-0.5965
3.36	-0.2366	-9.0271	-2.2065	0.0172	-0.0073	0.0111	-29.8039	12.7273	20.2598	0.1647	-0.1893	0.7624	-0.5965
3.37	-0.2333	-9.0306	-2.2105	0.0214	-0.0067	0.0111	-29.8901	12.8709	20.5674	0.1647	-0.1893	0.7623	-0.5965
3.38	-0.2321	-9.0191	-2.2015	0.0162	-0.0045	0.0102	-29.9937	13.1254	20.2575	0.1647	-0.1893	0.7624	-0.5965
3.39	-0.2286	-9.0251	-2.2120	0.0194	-0.0086	0.0072	-29.8473	13.0270	20.2120	0.1647	-0.1893	0.7623	-0.5965
3.4	-0.2270	-9.0260	-2.1994	0.0197	-0.0078	0.0080	-29.9798	13.0003	20.3945	0.1647	-0.1894	0.7624	-0.5966
3.41	-0.2287	-9.0293	-2.2020	0.0171	-0.0081	0.0099	-29.9789	13.2868	20.2480	0.1647	-0.1893	0.7623	-0.5965
3.42	-0.2277	-9.0337	-2.2156	0.0089	-0.0050	0.0063	-29.9909	13.1907	20.0955	0.1647	-0.1894	0.7624	-0.5966
3.43	-0.2292	-9.0224	-2.2115	0.0203	-0.0072	0.0088	-30.0957	13.0364	20.1532	0.1647	-0.1894	0.7623	-0.5965
3.44	-0.2262	-9.0307	-2.2177	0.0196	-0.0023	0.0124	-29.9798	13.0949	20.2841	0.1647	-0.1894	0.7623	-0.5966
3.45	-0.2267	-9.0270	-2.2150	0.0187	-0.0079	0.0114	-29.9744	13.0679	20.2391	0.1647	-0.1893	0.7623	-0.5966
3.46	-0.2266	-9.0298	-2.2062	0.0206	-0.0089	0.0121	-30.1067	13.1865	20.3503	0.1648	-0.1893	0.7623	-0.5966
3.47	-0.2319	-9.0285	-2.2059	0.0193	-0.0051	0.0140	-29.7945	12.7537	20.3646	0.1648	-0.1893	0.7623	-0.5966
3.48	-0.2393	-9.0170	-2.1988	0.0197	-0.0079	0.0108	-29.6369	12.8177	20.1936	0.1648	-0.1893	0.7622	-0.5966
3.49	-0.2480	-9.0193	-2.1933	0.0210	-0.0051	0.0140	-29.6492	13.0248	20.0500	0.1648	-0.1893	0.7623	-0.5967
3.5	-0.2592	-9.0300	-2.2025	0.0209	-0.0084	0.0116	-29.6920	13.0115	20.1139	0.1648	-0.1893	0.7622	-0.5967
3.51	-0.2565	-9.0236	-2.1973	0.0198	-0.0104	0.0076	-29.9984	12.9169	20.2600	0.1649	-0.1893	0.7623	-0.5967
3.52	-0.2552	-9.0263	-2.2048	0.0257	-0.0075	0.0139	-29.8985	12.9846	20.2382	0.1649	-0.1893	0.7621	-0.5967
3.53	-0.2550	-9.0293	-2.2123	0.0201	-0.0074	0.0097	-29.7826	13.1125	20.2851	0.1649	-0.1893	0.7622	-0.5967
3.54	-0.2451	-9.0254	-2.2040	0.0176	-0.0069	0.0117	-29.7194	12.8933	20.3643	0.1649	-0.1893	0.7622	-0.5967
3.55	-0.2406	-9.0268	-2.2025	0.0241	-0.0141	0.0091	-29.8088	12.9938	20.2921	0.1649	-0.1893	0.7621	-0.5967
3.56	-0.2417	-9.0289	-2.2032	0.0215	-0.0081	0.0091	-29.8351	13.1802	19.9910	0.1649	-0.1893	0.7622	-0.5968
3.57	-0.2399	-9.0200	-2.2010	0.0131	-0.0085	0.0176	-29.9109	13.1782	20.2194	0.1650	-0.1893	0.7621	-0.5968
3.58	-0.2405	-9.0285	-2.1961	0.0136	-0.0064	0.0105	-29.9088	13.0928	20.3361	0.1650	-0.1893	0.7622	-0.5968
3.59	-0.2424	-9.0248	-2.2063	0.0220	-0.0071	0.0121	-29.8860	13.0644	20.1200	0.1650	-0.1892	0.7621	-0.5967
3.6	-0.2426	-9.0281	-2.2129	0.0207	-0.0065	0.0134	-29.9287	13.2875	20.2946	0.1650	-0.1892	0.7621	-0.5968
3.61	-0.2336	-9.0307	-2.2215	0.0213	-0.0033	0.0092	-29.9960	13.2113	20.2029	0.1650	-0.1892	0.7621	-0.5968
3.62	-0.2215	-9.0190	-2.2158	0.0223	-0.0059	0.0107	-29.9775	13.2728	20.3468	0.1650	-0.1892	0.7620	-0.5968
3.63	-0.2113	-9.0191	-2.2037	0.0195	-0.0045	0.0141	-29.9839	13.0322	20.2393	0.1650	-0.1892	0.7621	-0.5969
3.64	-0.2182	-9.0253	-2.2088	0.0200	-0.0081	0.0099	-29.8583	12.9966	20.1186	0.1650	-0.1892	0.7620	-0.5969
3.65	-0.2332	-9.0374	-2.2053	0.0224	-0.0080	0.0136	-29.9436	12.9691	20.2570	0.1650	-0.1892	0.7621	-0.5969
3.66	-0.2451	-9.0169	-2.1777	0.0234	-0.0058	0.0103	-29.7140	12.7350	20.1996	0.1650	-0.1892	0.7619	-0.5969
3.67	-0.2415	-9.0210	-2.1732	0.0253	-0.0097	0.0095	-29.8351	12.7616	19.9423	0.1651	-0.1892	0.7620	-0.5970
3.68	-0.2412	-9.0428	-2.1996	0.0197	-0.0090	0.0146	-29.7749	12.8890	20.2245	0.1651	-0.1892	0.7620	-0.5970
3.69	-0.2367	-9.0226	-2.1806	0.0229	-0.0060	0.0101	-29.7017	12.7215	20.2930	0.1651	-0.1892	0.7620	-0.5970
3.7	-0.2415	-9.0230	-2.1727	0.0222	-0.0070	0.0141	-29.8475	12.8694	20.0773	0.1651	-0.1891	0.7619	-0.5970
3.71	-0.2411	-9.0411	-2.1921	0.0238	-0.0064	0.0130	-29.7627	13.0006	20.0454	0.1651	-0.1891	0.7619	-0.5970
3.72	-0.2430	-9.0241	-2.1790	0.0179	-0.0063	0.0126	-29.7492	12.8839	20.1948	0.1652	-0.1891	0.7619	-0.5971
3.73	-0.2486	-9.0203	-2.1866	0.0188	-0.0064	0.0105	-29.6029	12.9379	20.3736	0.1651	-0.1891	0.7618	-0.5970
3.74	-0.2501	-9.0309	-2.1958	0.0206	-0.0130	0.0150	-29.3846	12.8060	20.3107	0.1652	-0.1891	0.7619	-0.5971
3.75	-0.2473	-9.0176	-2.1939	0.0224	-0.0047	0.0113	-29.8137	13.1388	20.4949	0.1652	-0.1891	0.7618	-0.5971
3.76	-0.2469	-9.0188	-2.1943	0.0108	-0.0023	0.0112	-30.1732	13.3375	20.2492	0.1652	-0.1891	0.7619	-0.5971
3.77	-0.2512	-9.0304	-2.2007	0.0109	-0.0073	0.0069	-29.9002	13.2656	20.3195	0.1652	-0.1891	0.7618	-0.5970
3.78	-0.2443	-9.0228	-2.2002	0.0181	-0.0033	0.0073	-29.8574	12.9096	20.2724	0.1652	-0.1891	0.7619	-0.5971
3.79	-0.2418	-9.0235	-2.1994	0.0199	-0.0051	0.0090	-29.9464	12.8187	20.2556	0.1652	-0.1891	0.7619	-0.5971
3.8	-0.2385	-9.0262	-2.2106	0.0180	-0.0043	0.0119	-29.9111	12.9062	20.4119	0.1652	-0.1891	0.7618	-0.5971
3.81	-0.2327	-9.0274	-2.2129	0.0137	-0.0053	0.0111	-30.0260	13.0434	20.4080	0.1652	-0.1891	0.7619	-0.5972
3.82	-0.2335	-9.0271	-2.2087	0.0168	-0.0069	0.0077	-30.0084	12.9600	20.5074	0.1652	-0.1891	0.7619	-0.5971
3.83	-0.2378	-9.0285	-2.2143	0.0174	-0.0114	0.0111	-30.0200	13.1475	20.2426	0.1652	-0.1891	0.7619	-0.5971
3.84	-0.2411	-9.0297	-2.2169	0.0125	-0.0136	0.0134	-29.8675	13.1936	20.1098	0.1652	-0.1891	0.7618	-0.5970
3.85	-0.2443	-9.0207	-2.2073	0.0195	-0.0104	0.0115	-29.6682	12.9700	20.2770	0.1652	-0.1891	0.7619	-0.5971
3.86	-0.2536	-9.0224	-2.2170	0.0133	-0.0059	0.0145	-29.6506	13.0439	20.3250	0.1652	-0.1891	0.7619	-0.5971
3.87	-0.2539	-9.0200	-2.2065	0.0101	-0.0083	0.0094	-29.9003	12.9933	20.3094	0.1652	-0.1891	0.7619	-0.5970
3.88	-0.2519	-9.0267	-2.2141	0.0134	-0.0072	0.0073	-29.6370	13.0410	20.3207	0.1652	-0.1891	0.7619	-0.5971
3.89	-0.2559	-9.0261	-2.2172	0.0127	-0.0051	0.0053	-29.9501	12.8465	20.0501	0.1652	-0.1891	0.7619	-0.5970
3.9	-0.2490	-9.0270	-2.2131	0.0186	-0.0082	0.0071	-30.0316	12.8969	20.2933	0.1652	-0.1891	0.7619	-0.5971
3.91	-0.2477	-9.0261	-2.2164	0.0128	-0.0090	0.0092	-29.9210	13.0064	20.3162	0.1652	-0.1891	0.7618	-0.5970
3.92	-0.2434	-9.0276	-2.2180	0.0182	-0.0068	0.0105	-29.9266	13.0337	20.4262	0.1652	-0.1891	0.7619	-0.5971
3.93	-0.2342	-9.0219	-2.2080	0.0173	-0.0080	0.0139	-29.7948	13.2351	20.3508	0.1653	-0.1891	0.7619	-0.5970
3.94	-0.2368	-9.0292	-2.2202	0.0173	-0.0045	0.0071	-29.9496	12.8279	20.2913	0.1652	-0.1891	0.7619	-0.5971
3.95	-0.2372	-9.0258	-2.2089	0.0178	-0.0085	0.0071	-29.8146	12.9446	20.3311	0.1652	-0.1891	0.7618	-0.5971
3.96	-0.2408	-9.0217	-2.1995	0.0163	-0.0057	0.0042	-29.9041	12.9199	20.4128	0.1652	-0.1892	0.7619	-0.5971
3.97	-0.2420	-9.0245	-2.1962	0.0173	-0.0043	0.0077	-30.0620	12.9652	20.3898	0.1652	-0.1892	0.7619	-0.5971
3.98	-0.2467	-9.0237	-2.1877	0.0115	-0.0045	0.0075	-29.9102	13.0889	20.4085	0.1652	-0.1892	0.7618	-0.5970
3.99	-0.2451	-9.0260	-2.1839	0.0111	-0.0057	0.0045	-29.9330	13.2962	20.2770	0.1652	-0.1892	0.7619	-0.5971
4	-0.2420	-9.0239	-2.1832	0.0113	-0.0082	0.0088	-29.8037	12.9239	20.3489	0.1652	-0.1892	0.7619	-0.5970
4.01	-0.2400	-9.0305	-2.1845	0.0125	-0.0085	0.0081	-29.9343	12.7895	20.4687	0.1652	-0.1892	0.7620	-0.5971
4.02	-0.2374	-9.0279	-2.1715	0.0205	-0.0113	0.0110	-29.9156	13.0371	20.1642	0.1652	-0.1892	0.7618	-0.5970
4.03	-0.2387	-9.0264	-2.1756	0.0226	-0.0125	0.0148	-30.0460	13.0000	20.2883	0.1652	-0.1892	0.7619	-0.5971
4.04	-0.2368	-9.0216	-2.1791	0.0162	-0.0096	0.0122	-29.9227	13.1806	20.2454	0.1653	-0.1892	0.7619	-0.5970
4.05	-0.2382	-9.0249	-2.1847	0.0139	-0.0080	0.0068	-29.7165	12.8358	20.2936	0.1652	-0.1892	0.7618	-0.5970
4.06	-0.2429	-9.0249	-2.1908	0.0105	-0.0086	0.0099	-29.9035	12.8595	20.4269	0.1653	-0.1893	0.7619	-0.5971
4.07	-0.2451	-9.0253	-2.1938	0.0145	-0.0079	0.0070	-30.0337	12.9436	20.2626	0.1653	-0.1893	0.7619	-0.5970
4.08	-0.2443	-9.0211	-2.1938	0.0198	-0.0067	0.0075	-29.9835	13.1493	20.1277	0.1653	-0.1893	0.7619	-0.5971
4.09	-0.2470	-9.0250	-2.2067	0.0134	-0.0065	0.0109	-30.0814	13.1893	20.2102	0.1652	-0.1893	0.7618	-0.5970
4.1	-0.2464	-9.0282	-2.2073	0.0116	-0.0043	0.0080	-30.0062	12.9604	20.3342	0.1652	-0.1893	0.7619	-0.5970
4.11	-0.2406	-9.0257	-2.2093	0.0106	-0.0050	0.0120	-29.8024	12.8766	20.1564	0.1652	-0.1893	0.7619	-0.5970
4.12	-0.2433	-9.0236	-2.2144	0.0198	-0.0002	0.0060	-29.7781	12.8753	20.4025	0.1652	-0.1893	0.7619	-0.5970
4.13	-0.2424	-9.0227	-2.2103	0.0103	-0.0003	0.0094	-30.1570	13.1436	20.3980	0.1652	-0.1893	0.7619	-0.5970
4.14	-0.2422	-9.0265	-2.2150	0.0159	-0.0056	0.0102	-29.9097	13.0283	20.3898	0.1652	-0.1893	0.7619	-0.5970
4.15	-0.2426	-9.0310	-2.2190	0.0052	-0.0046	0.0093	-29.9948	12.8455	20.2155	0.1652	-0.1893	0.7620	-0.5970
4.16	-0.2406	-9.0276	-2.2220	0.0120	-0.0020	0.0077	-29.9926	13.2103	20.3110	0.1651	-0.1892	0.7619	-0.5969
4.17	-0.2393	-9.0230	-2.2264	0.0083	0.0008	0.0076	-30.0335	13.0429	20.3023	0.1651	-0.1893	0.7620	-0.5969
4.18	-0.2416	-9.0207	-2.2286	0.0083	0.0075	0.0103	-30.0750	13.1621	20.4960	0.1650	-0.1892	0.7620	-0.5969
4.19	-0.2399	-9.0234	-2.2214	0.0122	-0.0016	0.0063	-29.9571	12.8518	20.4019	0.1650	-0.1892	0.7620	-0.5969
4.2	-0.2369	-9.0347	-2.2274	0.0151	-0.0032	0.0095	-30.1352	12.9325	20.4129	0.1650	-0.1892	0.7620	-0.5969
4.21	-0.2287	-9.0239	-2.2154	0.0218	-0.0081	0.0134	-29.9212	13.0116	20.4676	0.1650	-0.1892	0.7620	-0.5969
4.22	-0.2270	-9.0209	-2.2107	0.0174	-0.0064	0.0120	-29.7997	12.8898	20.4163	0.1650	-0.1892	0.7620	-0.5969
4.23	-0.2277	-9.0276	-2.2193	0.0171	-0.0004	0.0082	-29.6250	13.0201	20.6049	0.1650	-0.1892	0.7620	-0.5969
4.24	-0.2257	-9.0258	-2.2080	0.0217	-0.0052	0.0152	-29.3326	13.1139	20.5344	0.1650	-0.1892	0.7621	-0.5970
4.25	-0.2247	-9.0189	-2.2027	0.0181	-0.0101	0.0138	-29.5045	13.0463	20.3778	0.1650	-0.1891	0.7620	-0.5969
4.26	-0.2246	-9.0327	-2.2113	0.0154	-0.0019	0.0132	-29.7676	13.3370	20.2127	0.1650	-0.1891	0.7621	-0.5970
4.27	-0.2244	-9.0254	-2.2088	0.0231	-0.0039	0.0109	-29.7606	13.2297	20.2931	0.1650	-0.1891	0.7620	-0.5969
4.28	-0.2342	-9.0234	-2.2007	0.0179	-0.0075	0.0100	-29.7656	12.9576	20.2579	0.1650	-0.1891	0.7620	-0.5970
4.29	-0.2370	-9.0263	-2.2020	0.0190	0.0005	0.0080	-30.0224	12.9783	20.1528	0.1650	-0.1891	0.7620	-0.5970
4.3	-0.2446	-9.0272	-2.2023	0.0188	0.0006	0.0121	-29.9036	12.8660	20.2806	0.1650	-0.1891	0.7619	-0.5970
4.31	-0.2501	-9.0248	-2.2015	0.0180	-0.0003	0.0165	-29.8368	13.1335	20.2727	0.1650	-0.1890	0.7621	-0.5971
4.32	-0.2498	-9.0246	-2.2078	0.0122	-0.0028	0.0091	-29.9496	13.1706	20.4210	0.1650	-0.1890	0.7620	-0.5970
4.33	-0.2517	-9.0227	-2.1962	0.0234	-0.0026	0.0055	-30.0826	13.1428	20.4574	0.1650	-0.1890	0.7620	-0.5971
4.34	-0.2508	-9.0252	-2.1966	0.0212	0.0020	0.0055	-30.0634	13.2640	20.4330	0.1649	-0.1890	0.7619	-0.5970
4.35	-0.2517	-9.0220	-2.2040	0.0208	-0.0017	0.0095	-30.1141	13.1093	20.4564	0.1649	-0.1890	0.7620	-0.5971
4.36	-0.2497	-9.0179	-2.1931	0.0199	-0.0046	0.0084	-30.1273	12.9433	20.4178	0.1649	-0.1890	0.7619	-0.5971
4.37	-0.2507	-9.0233	-2.1920	0.0257	-0.0027	0.0117	-30.0361	13.0896	20.2584	0.1649	-0.1890	0.7619	-0.5971
4.38	-0.2479	-9.0305	-2.1941	0.0220	-0.0042	0.0106	-30.1788	13.1586	20.2796	0.1649	-0.1889	0.7619	-0.5972
4.39	-0.2464	-9.0264	-2.1914	0.0154	-0.0093	0.0139	-30.0222	13.1753	20.3682	0.1649	-0.1889	0.7619	-0.5971
4.4	-0.2464	-9.0257	-2.1922	0.0197	-0.0089	0.0129	-29.9555	12.9292	20.1632	0.1649	-0.1889	0.7619	-0.5972
4.41	-0.2398	-9.0261	-2.2060	0.0084	-0.0068	0.0106	-29.7417	12.9401	20.2889	0.1649	-0.1889	0.7619	-0.5971
4.42	-0.2338	-9.0231	-2.2035	0.0053	-0.0071	0.0146	-29.6518	12.7871	20.2796	0.1649	-0.1889	0.7620	-0.5971
4.43	-0.2346	-9.0246	-2.2096	0.0135	-0.0087	0.0116	-29.8313	12.9603	20.1447	0.1649	-0.1889	0.7620	-0.5971
4.44	-0.2316	-9.0251	-2.2150	0.0071	-0.0068	0.0072	-29.7710	12.9550	20.2939	0.1649	-0.1890	0.7620	-0.5971
4.45	-0.2315	-9.0243	-2.2147	0.0135	-0.0068	0.0109	-29.7328	12.9141	20.2693	0.1649	-0.1889	0.7620	-0.5970
4.46	-0.2330	-9.0260	-2.2153	0.0205	-0.0065	0.0131	-29.8990	13.0178	20.4352	0.1649	-0.1889	0.7620	-0.5970
4.47	-0.2319	-9.0296	-2.2204	0.0104	-0.0078	0.0149	-29.8847	12.8278	20.2213	0.1650	-0.1889	0.7620	-0.5970
4.48	-0.2318	-9.0255	-2.2236	0.0108	-0.0096	0.0078	-29.7105	12.8869	20.1978	0.1650	-0.1889	0.7620	-0.5969
4.49	-0.2360	-9.0204	-2.2243	0.0252	-0.0089	0.0138	-29.9669	13.1801	20.1524	0.1650	-0.1890	0.7621	-0.5970
4.5	-0.2357	-9.0215	-2.2268	0.0191	-0.0089	0.0097	-30.1119	12.9151	20.1329	0.1650	-0.1889	0.7620	-0.5970
4.51	-0.2455	-9.0327	-2.2269	0.0098	-0.0052	0.0111	-29.9976	13.1031	20.4242	0.1650	-0.1890	0.7621	-0.5970
4.52	-0.2419	-9.0227	-2.2242	0.0069	-0.0044	0.0081	-29.9952	13.2684	20.2153	0.1650	-0.1889	0.7620	-0.5969
4.53	-0.2448	-9.0113	-2.2181	0.0151	-0.0092	0.0095	-29.8817	13.0583	20.5691	0.1650	-0.1890	0.7621	-0.5970
4.54	-0.2499	-9.0255	-2.2221	0.0106	-0.0082	0.0074	-29.8155	13.1850	20.4423	0.1650	-0.1890	0.7621	-0.5969
4.55	-0.2512	-9.0275	-2.2168	0.0188	-0.0048	0.0100	-29.8979	12.9526	20.2527	0.1650	-0.1890	0.7620	-0.5969
4.56	-0.2508	-9.0252	-2.2156	0.0113	0.0008	0.0130	-30.0200	13.1192	20.2841	0.1650	-0.1890	0.7621	-0.5970
4.57	-0.2534	-9.0281	-2.2119	0.0127	-0.0048	0.0075	-30.0930	13.1773	20.2710	0.1649	-0.1890	0.7621	-0.5969
4.58	-0.2535	-9.0277	-2.2112	0.0166	-0.0113	0.0157	-30.0369	13.1126	20.4874	0.1650	-0.1890	0.7621	-0.5969
4.59	-0.2483	-9.0148	-2.1943	0.0174	-0.0119	0.0112	-29.8184	12.9984	20.2624	0.1650	-0.1889	0.7620	-0.5969
4.6	-0.2471	-9.0209	-2.1946	0.0185	-0.0069	0.0095	-29.7254	12.8954	20.1827	0.1650	-0.1890	0.7621	-0.5969
4.61	-0.2399	-9.0337	-2.1980	0.0214	-0.0074	0.0127	-29.6236	12.6476	20.2161	0.1650	-0.1889	0.7621	-0.5969
4.62	-0.2348	-9.0275	-2.1919	0.0152	-0.0071	0.0103	-29.8081	12.7973	20.2052	0.1650	-0.1889	0.7621	-0.5969
4.63	-0.2373	-9.0188	-2.1831	0.0140	-0.0073	0.0088	-29.9356	13.0483	20.0910	0.1650	-0.1890	0.7621	-0.5969
4.64	-0.2400	-9.0241	-2.1891	0.0120	-0.0061	0.0120	-29.8746	13.0814	20.1156	0.1650	-0.1890	0.7621	-0.5969
4.65	-0.2439	-9.0300	-2.1937	0.0184	-0.0080	0.0124	-29.7931	12.9007	20.3034	0.1651	-0.1890	0.7621	-0.5969
4.66	-0.2482	-9.0239	-2.1879	0.0100	-0.0044	0.0079	-29.9251	13.0092	20.1856	0.1650	-0.1889	0.7620	-0.5968
4.67	-0.2485	-9.0158	-2.1855	0.0184	-0.0076	0.0148	-29.8869	12.9945	20.1959	0.1651	-0.1890	0.7621	-0.5969
4.68	-0.2544	-9.0298	-2.1959	0.0173	-0.0134	0.0174	-29.9704	13.1769	20.3233	0.1651	-0.1889	0.7621	-0.5969
4.69	-0.2545	-9.0308	-2.2022	0.0111	-0.0057	0.0094	-29.9779	13.0888	20.1823	0.1651	-0.1889	0.7621	-0.5969
4.7	-0.2488	-9.0123	-2.1926	0.0100	-0.0043	0.0090	-30.0889	13.0921	20.1938	0.1651	-0.1889	0.7621	-0.5968
4.71	-0.2436	-9.0263	-2.2100	0.0168	-0.0065	0.0070	-30.2559	13.0346	20.2943	0.1651	-0.1890	0.7621	-0.5968
4.72	-0.2431	-9.0253	-2.2088	0.0115	-0.0061	0.0092	-29.8703	13.2104	20.2646	0.1651	-0.1890	0.7622	-0.5968
4.73	-0.2432	-9.0219	-2.2105	0.0072	-0.0005	0.0057	-29.7426	13.2614	20.2715	0.1650	-0.1890	0.7621	-0.5967
4.74	-0.2372	-9.0194	-2.2058	0.0083	-0.0062	0.0068	-29.5943	13.1626	20.3467	0.1650	-0.1890	0.7622	-0.5968
4.75	-0.2400	-9.0289	-2.2200	0.0062	-0.0021	0.0023	-29.7842	13.0810	20.3372	0.1650	-0.1890	0.7622	-0.5967
4.76	-0.2394	-9.0263	-2.2184	0.0085	-0.0057	0.0066	-29.9311	13.1442	20.2092	0.1649	-0.1890	0.7623	-0.5967
4.77	-0.2341	-9.0240	-2.2110	0.0149	-0.0061	0.0070	-30.0425	13.1961	20.0781	0.1649	-0.1890	0.7622	-0.5967
4.78	-0.2387	-9.0248	-2.2141	0.0145	-0.0094	0.0081	-29.6650	12.8724	20.2917	0.1649	-0.1891	0.7623	-0.5967
4.79	-0.2372	-9.0300	-2.2206	0.0117	-0.0057	0.0170	-29.9210	12.9677	20.2732	0.1649	-0.1890	0.7623	-0.5967
4.8	-0.2362	-9.0203	-2.2147	0.0192	-0.0045	0.0135	-29.8557	12.9211	20.1048	0.1649	-0.1890	0.7622	-0.5966
4.81	-0.2352	-9.0310	-2.2208	0.0176	-0.0067	0.0113	-29.8458	12.9412	20.2327	0.1650	-0.1890	0.7623	-0.5967
4.82	-0.2304	-9.0264	-2.2289	0.0076	-0.0059	0.0105	-29.9666	13.0789	20.3506	0.1649	-0.1890	0.7623	-0.5966
4.83	-0.2267	-9.0276	-2.2250	0.0153	-0.0054	0.0088	-29.8643	13.0720	20.1943	0.1649	-0.1890	0.7623	-0.5967
4.84	-0.2246	-9.0272	-2.2307	0.0124	-0.0041	0.0112	-29.8174	12.9013	20.3321	0.1649	-0.1890	0.7623	-0.5966
4.85	-0.2241	-9.0222	-2.2294	0.0203	-0.0082	0.0079	-29.9919	13.0788	20.2457	0.1649	-0.1890	0.7623	-0.5966
4.86	-0.2279	-9.0213	-2.2203	0.0173	-0.0031	0.0124	-29.9669	12.9380	20.4378	0.1649	-0.1890	0.7623	-0.5966
4.87	-0.2295	-9.0214	-2.2216	0.0148	-0.0030	0.0100	-29.9188	13.0130	20.4119	0.1649	-0.1890	0.7623	-0.5966
4.88	-0.2334	-9.0265	-2.2176	0.0045	-0.0040	0.0061	-30.0055	13.0196	20.3988	0.1649	-0.1890	0.7624	-0.5966
4.89	-0.2371	-9.0292	-2.2155	0.0100	-0.0009	0.0104	-30.1789	12.9067	20.3170	0.1649	-0.1890	0.7624	-0.5966
4.9	-0.2388	-9.0278	-2.2120	0.0207	-0.0043	0.0079	-30.0541	12.9696	20.2077	0.1649	-0.1890	0.7624	-0.5966
4.91	-0.2400	-9.0165	-2.1937	0.0157	-0.0028	0.0034	-29.9874	13.2059	20.4313	0.1648	-0.1890	0.7623	-0.5965
4.92	-0.2448	-9.0294	-2.2031	0.0112	-0.0044	0.0069	-30.0132	13.1502	20.3379	0.1648	-0.1890	0.7624	-0.5966
4.93	-0.2457	-9.0253	-2.1935	0.0126	-0.0029	0.0019	-29.9040	13.1072	20.4505	0.1648	-0.1890	0.7624	-0.5966
4.94	-0.2455	-9.0224	-2.1904	0.0117	-0.0039	0.0139	-29.9594	13.0262	20.4879	0.1648	-0.1890	0.7624	-0.5966
4.95	-0.2455	-9.0297	-2.1983	0.0094	-0.0068	0.0086	-29.9185	13.0272	20.3857	0.1647	-0.1890	0.7624	-0.5965
4.96	-0.2508	-9.0285	-2.1990	0.0150	-0.0059	0.0108	-30.0580	13.1049	20.3569	0.1647	-0.1890	0.7624	-0.5965
4.97	-0.2509	-9.0232	-2.1912	0.0095	-0.0094	0.0106	-29.7534	12.9759	20.2615	0.1648	-0.1890	0.7625	-0.5965
4.98	-0.2449	-9.0294	-2.2031	0.0181	-0.0086	0.0104	-29.9000	13.1153	20.0178	0.1648	-0.1890	0.7624	-0.5964
4.99	-0.2509	-9.0251	-2.1936	0.0176	-0.0073	0.0147	-30.1295	13.2038	20.1453	0.1648	-0.1890	0.7625	-0.5965
5	-0.2446	-9.0238	-2.1950	0.0174	-0.0084	0.0092	-29.7757	12.8769	20.2328	0.1648	-0.1890	0.7624	-0.5965
5.01	-0.2433	-9.0228	-2.1923	0.0200	-0.0088	0.0064	-29.8200	12.9214	20.4864	0.1648	-0.1891	0.7625	-0.5965
5.02	-0.2460	-9.0254	-2.1954	0.0097	-0.0056	0.0074	-29.9579	12.9432	20.3821	0.1648	-0.1891	0.7624	-0.5964
5.03	-0.2454	-9.0231	-2.1916	0.0037	-0.0068	0.0115	-29.8982	13.0728	20.4126	0.1648	-0.1891	0.7625	-0.5964
5.04	-0.2397	-9.0171	-2.1867	0.0069	-0.0067	0.0111	-29.8207	13.0931	20.3102	0.1648	-0.1891	0.7625	-0.5964
5.05	-0.2389	-9.0311	-2.2029	0.0082	-0.0149	0.0096	-29.9243	12.9066	20.3802	0.1648	-0.1891	0.7625	-0.5963
5.06	-0.2382	-9.0367	-2.2081	0.0069	-0.0075	0.0086	-29.9391	13.0472	20.2922	0.1648	-0.1892	0.7626	-0.5964
5.07	-0.2340	-9.0219	-2.2076	0.0105	-0.0092	0.0043	-30.0298	13.2563	20.1826	0.1648	-0.1892	0.7626	-0.5963
5.08	-0.2357	-9.0200	-2.2070	0.0093	-0.0059	0.0072	-29.9940	13.0320	20.4204	0.1648	-0.1892	0.7626	-0.5963
5.09	-0.2383	-9.0311	-2.2150	0.0107	-0.0075	0.0063	-30.1004	13.0174	20.3542	0.1647	-0.1892	0.7625	-0.5962
5.1	-0.2425	-9.0259	-2.2090	0.0089	-0.0062	0.0081	-30.0905	12.9975	20.3237	0.1647	-0.1892	0.7626	-0.5962
5.11	-0.2501	-9.0196	-2.2163	0.0132	-0.0029	0.0037	-29.9355	13.0835	20.5416	0.1647	-0.1892	0.7626	-0.5962
5.12	-0.2534	-9.0214	-2.2202	0.0165	-0.0054	0.0050	-29.9462	13.0422	20.3637	0.1647	-0.1892	0.7626	-0.5962
5.13	-0.2541	-9.0263	-2.2200	0.0109	-0.0054	0.0034	-29.8249	13.0089	20.5080	0.1647	-0.1893	0.7627	-0.5962
5.14	-0.2523	-9.0226	-2.2189	0.0124	-0.0106	0.0098	-29.8970	13.0377	20.1857	0.1647	-0.1893	0.7626	-0.5962
5.15	-0.2489	-9.0340	-2.2220	0.0119	-0.0089	0.0080	-30.0839	13.2016	20.2926	0.1647	-0.1893	0.7627	-0.5962
5.16	-0.2381	-9.0264	-2.2225	0.0143	-0.0100	0.0104	-29.8213	13.0307	20.2211	0.1647	-0.1893	0.7626	-0.5961
5.17	-0.2336	-9.0192	-2.2238	0.0084	-0.0087	0.0077	-29.7600	12.9169	20.1159	0.1647	-0.1894	0.7627	-0.5961
5.18	-0.2315	-9.0229	-2.2264	0.0141	-0.0119	0.0058	-29.8974	12.9553	20.1130	0.1647	-0.1894	0.7627	-0.5961
5.19	-0.2254	-9.0324	-2.2277	0.0137	-0.0088	0.0126	-29.9381	12.9306	19.9495	0.1647	-0.1894	0.7627	-0.5961
5.2	-0.2254	-9.0321	-2.2212	0.0148	-0.0070	0.0109	-29.9088	12.9500	20.4748	0.1647	-0.1894	0.7627	-0.5961
5.21	-0.2264	-9.0252	-2.2209	0.0147	-0.0110	0.0072	-29.8566	12.9193	20.4369	0.1647	-0.1894	0.7627	-0.5961
5.22	-0.2280	-9.0207	-2.2095	0.0139	-0.0074	0.0086	-29.7794	12.8097	20.4306	0.1647	-0.1894	0.7627	-0.5961
5.23	-0.2274	-9.0195	-2.1980	0.0136	-0.0091	0.0101	-29.5050	13.0326	20.5132	0.1647	-0.1894	0.7627	-0.5960
5.24	-0.2333	-9.0306	-2.2053	0.0143	-0.0114	0.0119	-29.5567	13.0986	20.5143	0.1647	-0.1894	0.7628	-0.5960
5.25	-0.2368	-9.0279	-2.1894	0.0155	-0.0056	0.0087	-30.1183	13.1366	20.4110	0.1647	-0.1894	0.7627	-0.5960
5.26	-0.2405	-9.0291	-2.1951	0.0175	-0.0075	0.0093	-30.0237	13.5961	20.2900	0.1647	-0.1895	0.7628	-0.5961
5.27	-0.2427	-9.0207	-2.1801	0.0158	-0.0043	0.0107	-30.0653	13.3801	20.3788	0.1647	-0.1894	0.7627	-0.5960
5.28	-0.2463	-9.0209	-2.1802	0.0097	-0.0027	0.0133	-29.9258	12.9731	20.2910	0.1647	-0.1894	0.7628	-0.5960
5.29	-0.2518	-9.0371	-2.2060	0.0142	-0.0033	0.0087	-29.9140	13.1622	20.3662	0.1647	-0.1894	0.7628	-0.5960
5.3	-0.2494	-9.0211	-2.1940	0.0155	-0.0033	0.0045	-30.0330	13.1112	20.4927	0.1647	-0.1894	0.7627	-0.5959
5.31	-0.2455	-9.0162	-2.1925	0.0120	-0.0088	0.0118	-29.7458	13.3695	20.2256	0.1647	-0.1894	0.7628	-0.5960
5.32	-0.2453	-9.0247	-2.2057	0.0211	-0.0065	0.0085	-29.9005	13.3845	20.1340	0.1647	-0.1894	0.7628	-0.5960
5.33	-0.2468	-9.0262	-2.2049	0.0156	-0.0083	0.0134	-30.0045	13.2448	20.1055	0.1647	-0.1894	0.7628	-0.5960
5.34	-0.2512	-9.0198	-2.2054	0.0123	-0.0122	0.0124	-29.8790	13.0660	20.4058	0.1647	-0.1894	0.7627	-0.5959
5.35	-0.2505	-9.0246	-2.2163	0.0204	-0.0068	0.0124	-29.7800	13.0463	20.2056	0.1647	-0.1894	0.7628	-0.5960
5.36	-0.2488	-9.0222	-2.2100	0.0150	-0.0077	0.0140	-29.8570	12.9530	20.2128	0.1647	-0.1894	0.7628	-0.5959
5.37	-0.2462	-9.0225	-2.2107	0.0139	-0.0057	0.0065	-29.9055	13.0702	20.0969	0.1647	-0.1894	0.7628	-0.5959
5.38	-0.2446	-9.0281	-2.2207	0.0048	-0.0063	0.0159	-29.7844	12.9959	20.1986	0.1647	-0.1894	0.7628	-0.5959
5.39	-0.2381	-9.0247	-2.2176	0.0087	-0.0085	0.0106	-29.6959	12.9601	20.3074	0.1647	-0.1894	0.7628	-0.5958
5.4	-0.2317	-9.0263	-2.2196	0.0150	-0.0057	0.0147	-29.7980	12.8702	20.2622	0.1647	-0.1894	0.7629	-0.5959
5.41	-0.2247	-9.0190	-2.2113	0.0107	-0.0081	0.0145	-29.8152	12.9942	20.3004	0.1647	-0.1894	0.7628	-0.5958
5.42	-0.2209	-9.0287	-2.2209	0.0175	-0.0082	0.0091	-29.8032	12.9829	20.1438	0.1648	-0.1894	0.7629	-0.5958
5.43	-0.2238	-9.0299	-2.2189	0.0176	-0.0103	0.0137	-29.8167	13.1396	20.2564	0.1648	-0.1894	0.7629	-0.5958
5.44	-0.2279	-9.0273	-2.2165	0.0149	-0.0046	0.0092	-30.0516	13.1445	20.2500	0.1648	-0.1894	0.7629	-0.5958
5.45	-0.2302	-9.0276	-2.2199	0.0108	-0.0083	0.0087	-30.0536	13.1503	20.3919	0.1648	-0.1894	0.7629	-0.5958
5.46	-0.2372	-9.0232	-2.2154	0.0161	-0.0054	0.0086	-29.9469	13.1367	20.2907	0.1648	-0.1894	0.7629	-0.5958
5.47	-0.2403	-9.0206	-2.2163	0.0128	-0.0039	0.0096	-30.0000	13.1772	20.1273	0.1648	-0.1894	0.7629	-0.5958
5.48	-0.2456	-9.0196	-2.2160	0.0149	-0.0045	0.0137	-30.1714	13.0336	20.2696	0.1648	-0.1894	0.7629	-0.5957
5.49	-0.2521	-9.0271	-2.2153	0.0108	-0.0043	0.0089	-29.8916	13.2052	20.2881	0.1648	-0.1894	0.7630	-0.5958
5.5	-0.2576	-9.0278	-2.2174	0.0107	-0.0078	0.0065	-29.8334	13.1972	20.3712	0.1647	-0.1894	0.7630	-0.5957
5.51	-0.2544	-9.0192	-2.2056	0.0192	-0.0037	0.0111	-29.9207	13.1446	20.3772	0.1647	-0.1894	0.7630	-0.5958
5.52	-0.2489	-9.0215	-2.2044	0.0198	-0.0089	0.0150	-29.8880	13.0583	20.2509	0.1647	-0.1894	0.7629	-0.5957
5.53	-0.2483	-9.0309	-2.2123	0.0175	-0.0109	0.0152	-29.8588	12.8617	20.0819	0.1648	-0.1894	0.7630	-0.5957
5.54	-0.2458	-9.0209	-2.1934	0.0150	-0.0083	0.0078	-29.6391	12.9219	20.0916	0.1648	-0.1894	0.7630	-0.5957
5.55	-0.2467	-9.0219	-2.1993	0.0211	-0.0060	0.0147	-29.9109	12.8884	20.2027	0.1648	-0.1894	0.7629	-0.5957
5.56	-0.2398	-9.0327	-2.2079	0.0212	-0.0067	0.0111	-29.8732	13.0864	20.1530	0.1648	-0.1894	0.7630	-0.5958
5.57	-0.2423	-9.0205	-2.1958	0.0211	-0.0064	0.0150	-29.7859	12.9439	20.1384	0.1648	-0.1893	0.7629	-0.5957
5.58	-0.2412	-9.0183	-2.1972	0.0154	-0.0059	0.0113	-29.8184	12.8282	20.1911	0.1649	-0.1893	0.7630	-0.5958
5.59	-0.2483	-9.0300	-2.2010	0.0167	-0.0073	0.0125	-29.7973	12.8264	20.3023	0.1648	-0.1893	0.7629	-0.5957
5.6	-0.2457	-9.0299	-2.2078	0.0131	-0.0050	0.0124	-29.8174	12.8976	20.3356	0.1649	-0.1893	0.7630	-0.5957
5.61	-0.2455	-9.0232	-2.1954	0.0185	-0.0083	0.0143	-29.9480	12.9700	20.3230	0.1649	-0.1893	0.7629	-0.5957
5.62	-0.2410	-9.0221	-2.1971	0.0235	-0.0101	0.0160	-29.9957	13.1903	20.5862	0.1649	-0.1893	0.7629	-0.5957
5.63	-0.2371	-9.0271	-2.2017	0.0137	-0.0016	0.0121	-29.8667	13.0401	20.3304	0.1649	-0.1893	0.7630	-0.5957
5.64	-0.2346	-9.0250	-2.2019	0.0151	-0.0094	0.0199	-29.9144	13.0872	20.2125	0.1649	-0.1892	0.7629	-0.5957
5.65	-0.2300	-9.0249	-2.1975	0.0098	-0.0048	0.0106	-30.0109	13.2307	20.2045	0.1649	-0.1892	0.7630	-0.5957
5.66	-0.2275	-9.0265	-2.2086	0.0092	-0.0037	0.0054	-29.8595	13.1652	20.3850	0.1649	-0.1892	0.7629	-0.5956
5.67	-0.2274	-9.0141	-2.2041	0.0166	-0.0047	0.0092	-29.9329	13.0181	20.2476	0.1649	-0.1893	0.7630	-0.5957
5.68	-0.2288	-9.0218	-2.2074	0.0116	-0.0032	0.0167	-29.7991	13.1398	20.1402	0.1649	-0.1892	0.7630	-0.5956
5.69	-0.2342	-9.0301	-2.2115	0.0134	-0.0066	0.0121	-29.9251	13.1373	20.3302	0.1649	-0.1892	0.7631	-0.5956
5.7	-0.2418	-9.0251	-2.2022	0.0207	-0.0052	0.0070	-30.1731	13.1704	20.4632	0.1649	-0.1892	0.7630	-0.5956
5.71	-0.2443	-9.0205	-2.1965	0.0174	-0.0038	0.0136	-29.8917	13.0851	20.3108	0.1649	-0.1892	0.7630	-0.5956
5.72	-0.2465	-9.0252	-2.2062	0.0120	-0.0056	0.0122	-29.6731	12.9562	20.2442	0.1649	-0.1892	0.7631	-0.5956
5.73	-0.2473	-9.0188	-2.1997	0.0076	-0.0118	0.0153	-29.3148	13.0085	20.3897	0.1649	-0.1892	0.7630	-0.5955
5.74	-0.2517	-9.0266	-2.2000	0.0127	-0.0109	0.0101	-29.2492	12.9720	20.5100	0.1649	-0.1892	0.7631	-0.5956
5.75	-0.2469	-9.0280	-2.2003	0.0156	-0.0064	0.0157	-29.6929	13.1315	20.4714	0.1649	-0.1892	0.7631	-0.5955
5.76	-0.2465	-9.0260	-2.1984	0.0134	-0.0088	0.0072	-29.7986	13.4109	20.4071	0.1650	-0.1892	0.7632	-0.5956
5.77	-0.2389	-9.0235	-2.2013	0.0081	-0.0034	0.0113	-29.8405	13.3583	20.1626	0.1649	-0.1892	0.7631	-0.5955
5.78	-0.2394	-9.0131	-2.1937	0.0143	-0.0078	0.0085	-30.0669	12.8737	20.3325	0.1649	-0.1892	0.7631	-0.5955
5.79	-0.2382	-9.0240	-2.1958	0.0161	-0.0033	0.0099	-29.9224	13.0266	20.2958	0.1649	-0.1892	0.7631	-0.5955
5.8	-0.2405	-9.0328	-2.2069	0.0210	-0.0088	0.0146	-29.9309	12.9347	20.2394	0.1649	-0.1892	0.7631	-0.5955
5.81	-0.2449	-9.0275	-2.2100	0.0095	-0.0113	0.0130	-29.9039	12.8478	20.0952	0.1650	-0.1892	0.7632	-0.5955
5.82	-0.2440	-9.0241	-2.2113	0.0154	-0.0031	0.0150	-30.0956	12.9479	20.2920	0.1650	-0.1892	0.7632	-0.5955
5.83	-0.2465	-9.0316	-2.2270	0.0204	-0.0016	0.0079	-30.0148	12.9277	20.2847	0.1650	-0.1892	0.7632	-0.5955
5.84	-0.2437	-9.0225	-2.2284	0.0143	-0.0063	0.0129	-30.0258	12.9053	20.3914	0.1649	-0.1891	0.7631	-0.5954
5.85	-0.2407	-9.0203	-2.2222	0.0176	-0.0021	0.0085	-29.9623	13.0701	20.3796	0.1649	-0.1892	0.7632	-0.5955
5.86	-0.2480	-9.0291	-2.2283	0.0184	-0.0081	0.0130	-29.9742	13.1960	20.2247	0.1649	-0.1891	0.7632	-0.5955
5.87	-0.2455	-9.0229	-2.2252	0.0127	-0.0046	0.0061	-29.9514	12.8937	20.1910	0.1649	-0.1891	0.7632	-0.5955
5.88	-0.2505	-9.0103	-2.2072	0.0176	-0.0019	0.0066	-29.8435	13.0301	20.4290	0.1649	-0.1892	0.7632	-0.5955
5.89	-0.2592	-9.0194	-2.2104	0.0199	-0.0084	0.0108	-29.9328	13.1347	20.3423	0.1649	-0.1892	0.7632	-0.5955
5.9	-0.2610	-9.0419	-2.2218	0.0193	-0.0089	0.0129	-29.7957	13.0034	20.2841	0.1649	-0.1892	0.7632	-0.5955
5.91	-0.2595	-9.0132	-2.2026	0.0185	-0.0065	0.0146	-29.9440	12.7898	20.3233	0.1649	-0.1891	0.7631	-0.5954
5.92	-0.2561	-9.0139	-2.1944	0.0097	-0.0069	0.0077	-29.9176	13.1092	20.2738	0.1649	-0.1892	0.7632	-0.5955
5.93	-0.2479	-9.0405	-2.2099	0.0100	-0.0062	0.0109	-29.9250	12.9982	20.3453	0.1649	-0.1891	0.7632	-0.5954
5.94	-0.2380	-9.0264	-2.2039	0.0058	-0.0057	0.0079	-29.9252	12.8978	20.1754	0.1649	-0.1892	0.7632	-0.5954
5.95	-0.2261	-9.0283	-2.2128	0.0147	-0.0115	0.0091	-29.9245	13.0180	20.4310	0.1649	-0.1892	0.7632	-0.5954
5.96	-0.2249	-9.0223	-2.2122	0.0144	-0.0057	0.0106	-29.9403	12.9098	20.4394	0.1649	-0.1892	0.7632	-0.5954
5.97	-0.2196	-9.0218	-2.2048	0.0152	-0.0054	0.0103	-29.8771	13.0906	20.4041	0.1649	-0.1892	0.7633	-0.5954
5.98	-0.2168	-9.0205	-2.2155	0.0148	-0.0050	0.0108	-29.8285	13.1227	20.1925	0.1649	-0.1892	0.7632	-0.5953
5.99	-0.2204	-9.0278	-2.2157	0.0163	-0.0129	0.0128	-29.8633	12.8640	20.3609	0.1650	-0.1892	0.7633	-0.5954
6	-0.2182	-9.0278	-2.2122	0.0188	-0.0033	0.0091	-29.9794	12.8841	20.4886	0.1649	-0.1892	0.7632	-0.5954
6.01	-0.2202	-9.0263	-2.2074	0.0098	-0.0045	0.0070	-30.0273	12.9268	20.3290	0.1649	-0.1892	0.7633	-0.5954
6.02	-0.2202	-9.0198	-2.2061	0.0143	-0.0025	0.0074	-29.9922	13.0059	20.5202	0.1649	-0.1892	0.7632	-0.5953
6.03	-0.2201	-9.0215	-2.2075	0.0120	-0.0013	0.0065	-29.8200	13.1103	20.3160	0.1649	-0.1892	0.7633	-0.5953
6.04	-0.2247	-9.0270	-2.2049	0.0185	-0.0016	0.0068	-30.0278	13.0970	20.3040	0.1648	-0.1892	0.7633	-0.5953
6.05	-0.2298	-9.0195	-2.2009	0.0122	-0.0002	0.0055	-29.9315	13.0182	20.2655	0.1648	-0.1892	0.7633	-0.5953
6.06	-0.2336	-9.0269	-2.2019	0.0090	-0.0049	0.0028	-29.9255	12.9975	20.5446	0.1648	-0.1892	0.7634	-0.5954
6.07	-0.2320	-9.0267	-2.2004	0.0085	0.0025	0.0077	-29.9516	13.1490	20.3653	0.1647	-0.1892	0.7633	-0.5953
6.08	-0.2381	-9.0237	-2.2011	0.0194	-0.0078	0.0120	-30.0580	13.2005	20.2745	0.1647	-0.1892	0.7634	-0.5953
6.09	-0.2440	-9.0177	-2.1938	0.0131	-0.0088	0.0132	-29.8217	13.0131	20.2232	0.1647	-0.1892	0.7633	-0.5952
6.1	-0.2446	-9.0270	-2.1983	0.0106	-0.0036	0.0069	-29.7524	12.8973	20.2213	0.1647	-0.1892	0.7634	-0.5953
6.11	-0.2481	-9.0246	-2.2036	0.0160	-0.0078	0.0066	-29.7705	12.8195	20.1946	0.1647	-0.1892	0.7634	-0.5952
6.12	-0.2516	-9.0215	-2.1974	0.0103	-0.0072	0.0103	-30.0161	12.9301	20.0666	0.1647	-0.1892	0.7634	-0.5952
6.13	-0.2518	-9.0290	-2.2123	0.0079	-0.0099	0.0103	-29.9867	12.8375	20.3753	0.1647	-0.1893	0.7634	-0.5952
6.14	-0.2512	-9.0257	-2.2154	0.0139	-0.0063	0.0125	-29.9423	12.8442	20.3541	0.1647	-0.1892	0.7634	-0.5952
6.15	-0.2502	-9.0188	-2.2108	0.0192	-0.0057	0.0137	-30.0242	13.0343	20.2963	0.1647	-0.1892	0.7635	-0.5952
6.16	-0.2473	-9.0231	-2.2192	0.0122	-0.0093	0.0072	-29.9882	12.9108	20.2115	0.1647	-0.1892	0.7634	-0.5951
6.17	-0.2465	-9.0314	-2.2276	0.0052	-0.0081	0.0094	-30.0917	12.7497	20.2193	0.1647	-0.1893	0.7635	-0.5951
6.18	-0.2464	-9.0219	-2.2239	0.0082	-0.0113	0.0138	-29.8121	13.0206	20.3513	0.1647	-0.1893	0.7635	-0.5951
6.19	-0.2442	-9.0208	-2.2262	0.0098	-0.0062	0.0072	-29.9263	13.0057	20.4841	0.1647	-0.1893	0.7635	-0.5951
6.2	-0.2459	-9.0253	-2.2233	0.0060	-0.0042	0.0032	-30.0051	13.0152	20.3736	0.1647	-0.1893	0.7635	-0.5950
6.21	-0.2439	-9.0279	-2.2301	0.0108	-0.0016	0.0035	-30.0209	12.6654	20.4154	0.1646	-0.1893	0.7636	-0.5950
6.22	-0.2444	-9.0059	-2.2080	0.0116	-0.0044	0.0036	-29.9408	12.8933	20.3262	0.1646	-0.1894	0.7636	-0.5950
6.23	-0.2440	-9.0191	-2.2079	0.0168	0.0010	-0.0013	-29.5911	13.0160	20.3430	0.1645	-0.1894	0.7635	-0.5950
6.24	-0.2461	-9.0341	-2.2139	0.0107	-0.0035	0.0049	-29.5191	13.0999	20.6079	0.1645	-0.1894	0.7636	-0.5950
6.25	-0.2503	-9.0259	-2.2009	0.0094	-0.0047	0.0054	-29.7092	12.9454	20.7657	0.1645	-0.1894	0.7636	-0.5950
6.26	-0.2504	-9.0220	-2.1946	0.0189	-0.0060	0.0102	-29.9328	13.5459	20.4076	0.1645	-0.1894	0.7637	-0.5950
6.27	-0.2523	-9.0281	-2.1994	0.0194	-0.0054	0.0072	-30.0361	13.2026	20.4165	0.1645	-0.1894	0.7635	-0.5949
6.28	-0.2496	-9.0215	-2.1970	0.0215	-0.0074	0.0114	-29.7484	12.9108	20.3395	0.1645	-0.1894	0.7636	-0.5950
6.29	-0.2500	-9.0204	-2.1950	0.0111	-0.0130	0.0123	-29.8158	13.1551	20.3753	0.1645	-0.1894	0.7636	-0.5950
6.3	-0.2503	-9.0292	-2.1978	0.0107	-0.0093	0.0159	-29.7990	12.7845	20.2694	0.1645	-0.1894	0.7636	-0.5949
6.31	-0.2454	-9.0284	-2.2038	0.0205	-0.0105	0.0124	-29.5283	12.9862	20.2855	0.1646	-0.1894	0.7637	-0.5950
6.32	-0.2452	-9.0204	-2.1924	0.0188	-0.0022	0.0093	-29.7995	12.8839	20.2600	0.1646	-0.1894	0.7636	-0.5949
6.33	-0.2419	-9.0271	-2.1967	0.0158	-0.0050	0.0056	-29.8290	13.0057	20.3222	0.1645	-0.1894	0.7636	-0.5950
6.34	-0.2381	-9.0306	-2.2122	0.0158	-0.0099	0.0083	-29.9368	12.9980	20.4622	0.1645	-0.1894	0.7635	-0.5949
6.35	-0.2348	-9.0228	-2.1983	0.0211	-0.0058	0.0103	-29.8776	12.9175	20.3262	0.1646	-0.1894	0.7636	-0.5950
6.36	-0.2348	-9.0259	-2.2004	0.0228	-0.0094	0.0113	-29.7188	13.0679	20.3813	0.1646	-0.1894	0.7636	-0.5950
6.37	-0.2310	-9.0291	-2.2052	0.0175	-0.0072	0.0160	-30.0740	12.8858	20.3103	0.1646	-0.1894	0.7635	-0.5950
6.38	-0.2294	-9.0255	-2.2112	0.0128	-0.0031	0.0142	-30.1849	13.1165	20.5823	0.1646	-0.1894	0.7636	-0.5950
6.39	-0.2291	-9.0251	-2.1995	0.0152	-0.0039	0.0067	-30.0075	13.1751	20.4370	0.1646	-0.1894	0.7636	-0.5950
6.4	-0.2300	-9.0243	-2.2049	0.0164	-0.0021	0.0047	-29.8446	12.9847	20.1150	0.1645	-0.1894	0.7636	-0.5950
6.41	-0.2344	-9.0222	-2.2026	0.0172	-0.0075	0.0109	-30.0996	13.0975	20.3604	0.1645	-0.1894	0.7635	-0.5949
6.42	-0.2323	-9.0292	-2.2135	0.0168	-0.0033	0.0141	-30.1537	13.0649	20.4495	0.1646	-0.1894	0.7636	-0.5950
6.43	-0.2351	-9.0293	-2.2138	0.0100	-0.0037	0.0108	-30.0360	13.2835	20.4166	0.1645	-0.1894	0.7636	-0.5949
6.44	-0.2346	-9.0254	-2.2129	0.0137	-0.0020	0.0093	-29.9123	13.0933	20.4581	0.1645	-0.1894	0.7636	-0.5950
6.45	-0.2364	-9.0244	-2.2127	0.0124	-0.0081	0.0144	-29.9207	13.1847	20.3200	0.1645	-0.1893	0.7636	-0.5949
6.46	-0.2360	-9.0182	-2.2102	0.0173	-0.0082	0.0156	-30.0070	12.9963	20.5271	0.1645	-0.1893	0.7636	-0.5949
6.47	-0.2372	-9.0273	-2.2123	0.0195	-0.0085	0.0152	-29.8290	12.5654	20.2668	0.1646	-0.1893	0.7637	-0.5949
6.48	-0.2423	-9.0252	-2.2161	0.0135	-0.0107	0.0144	-29.8245	12.9541	20.1357	0.1646	-0.1893	0.7636	-0.5949
6.49	-0.2458	-9.0222	-2.2099	0.0165	-0.0060	0.0088	-29.8434	13.0915	20.3151	0.1646	-0.1893	0.7637	-0.5949
6.5	-0.2468	-9.0219	-2.2056	0.0205	-0.0055	0.0086	-29.8242	13.0007	20.3663	0.1646	-0.1893	0.7636	-0.5949
6.51	-0.2503	-9.0343	-2.2126	0.0216	-0.0074	0.0086	-29.8934	12.9682	20.3325	0.1646	-0.1893	0.7637	-0.5950
6.52	-0.2504	-9.0211	-2.2053	0.0201	-0.0064	0.0097	-30.0142	12.7999	20.4776	0.1646	-0.1893	0.7636	-0.5949
6.53	-0.2473	-9.0159	-2.2171	0.0165	-0.0066	0.0068	-29.8781	13.1015	20.2697	0.1646	-0.1893	0.7636	-0.5949
6.54	-0.2485	-9.0226	-2.2240	0.0165	-0.0074	0.0126	-29.9542	13.0491	20.1569	0.1646	-0.1893	0.7636	-0.5949
6.55	-0.2477	-9.0264	-2.2202	0.0199	-0.0099	0.0102	-29.8105	12.9243	20.4879	0.1646	-0.1893	0.7636	-0.5949
6.56	-0.2423	-9.0240	-2.2167	0.0148	-0.0063	0.0137	-30.0488	12.9117	20.3167	0.1646	-0.1893	0.7637	-0.5950
6.57	-0.2393	-9.0269	-2.2220	0.0094	-0.0081	0.0112	-30.1903	13.2129	20.2506	0.1646	-0.1893	0.7636	-0.5949
6.58	-0.2312	-9.0273	-2.2145	0.0153	-0.0033	0.0054	-30.1232	13.2171	20.4543	0.1646	-0.1894	0.7637	-0.5949
6.59	-0.2277	-9.0216	-2.2105	0.0165	-0.0094	0.0112	-29.8920	13.0523	20.4175	0.1646	-0.1893	0.7636	-0.5949
6.6	-0.2298	-9.0228	-2.2057	0.0132	-0.0043	0.0129	-29.9581	13.2217	20.4827	0.1646	-0.1893	0.7637	-0.5949
6.61	-0.2269	-9.0371	-2.2156	0.0186	-0.0031	0.0113	-30.1485	13.0990	20.3180	0.1646	-0.1893	0.7636	-0.5949
6.62	-0.2225	-9.0284	-2.2184	0.0190	-0.0082	0.0095	-29.9256	13.0841	20.2363	0.1646	-0.1893	0.7636	-0.5949
6.63	-0.2241	-9.0171	-2.2053	0.0203	-0.0005	0.0077	-29.8146	13.1668	20.3558	0.1646	-0.1893	0.7637	-0.5949
6.64	-0.2247	-9.0253	-2.2040	0.0177	-0.0052	0.0116	-29.9895	13.2051	20.3838	0.1646	-0.1893	0.7636	-0.5949
6.65	-0.2302	-9.0309	-2.1978	0.0182	-0.0057	0.0083	-29.9592	13.0552	20.4349	0.1646	-0.1893	0.7637	-0.5950
6.66	-0.2382	-9.0262	-2.1951	0.0151	-0.0111	0.0160	-29.8066	12.9100	20.1535	0.1646	-0.1893	0.7636	-0.5949
6.67	-0.2406	-9.0282	-2.2022	0.0143	-0.0075	0.0111	-29.9326	13.0096	20.1835	0.1646	-0.1893	0.7637	-0.5949
6.68	-0.2489	-9.0290	-2.2096	0.0087	-0.0061	0.0103	-29.8988	13.0557	20.0305	0.1646	-0.1893	0.7637	-0.5949
6.69	-0.2538	-9.0183	-2.1957	0.0230	-0.0063	0.0107	-29.9210	13.0624	20.2517	0.1646	-0.1893	0.7637	-0.5949
6.7	-0.2594	-9.0217	-2.1996	0.0065	-0.0072	0.0077	-29.9043	12.8034	20.2946	0.1646	-0.1893	0.7637	-0.5949
6.71	-0.2541	-9.0223	-2.2020	0.0095	-0.0063	0.0165	-29.9186	12.8635	20.2441	0.1646	-0.1893	0.7637	-0.5948
6.72	-0.2506	-9.0209	-2.1981	0.0180	-0.0080	0.0108	-29.8669	12.9997	20.3417	0.1646	-0.1893	0.7637	-0.5948
6.73	-0.2521	-9.0205	-2.2074	0.0165	-0.0082	0.0113	-29.4163	13.0128	20.3571	0.1646	-0.1893	0.7636	-0.5948
6.74	-0.2447	-9.0292	-2.2060	0.0148	-0.0076	0.0125	-29.2504	13.0068	20.3522	0.1647	-0.1893	0.7638	-0.5949
6.75	-0.2380	-9.0231	-2.2009	0.0145	-0.0063	0.0069	-29.7599	13.1216	20.1682	0.1646	-0.1893	0.7637	-0.5948
6.76	-0.2385	-9.0289	-2.2156	0.0050	-0.0050	0.0066	-30.0349	13.2228	20.3569	0.1646	-0.1893	0.7638	-0.5948
6.77	-0.2395	-9.0195	-2.2118	0.0098	-0.0061	0.0110	-29.9741	13.2798	20.2624	0.1646	-0.1893	0.7637	-0.5947
6.78	-0.2386	-9.0149	-2.2074	0.0035	-0.0060	0.0079	-29.8017	12.9024	20.3842	0.1646	-0.1893	0.7638	-0.5947
6.79	-0.2392	-9.0278	-2.2121	0.0046	-0.0045	0.0066	-29.9793	12.9971	20.2855	0.1646	-0.1894	0.7638	-0.5947
6.8	-0.2399	-9.0273	-2.2189	0.0060	-0.0051	0.0074	-29.9882	13.0011	20.2489	0.1645	-0.1894	0.7638	-0.5946
6.81	-0.2327	-9.0176	-2.2066	0.0136	-0.0044	0.0135	-29.9698	12.9317	20.4479	0.1646	-0.1894	0.7639	-0.5947
6.82	-0.2373	-9.0250	-2.2100	0.0102	-0.0066	0.0065	-29.7670	13.2775	20.2188	0.1645	-0.1894	0.7639	-0.5946
6.83	-0.2406	-9.0248	-2.2072	0.0171	-0.0086	0.0099	-30.1024	13.0163	20.2097	0.1645	-0.1894	0.7639	-0.5946
6.84	-0.2397	-9.0270	-2.2065	0.0139	-0.0114	0.0147	-29.8768	13.0113	20.3056	0.1645	-0.1894	0.7638	-0.5945
6.85	-0.2414	-9.0308	-2.2086	0.0045	-0.0136	0.0141	-29.9295	12.8014	20.2143	0.1646	-0.1894	0.7640	-0.5945
6.86	-0.2393	-9.0265	-2.2054	0.0097	-0.0091	0.0096	-29.9702	12.8705	20.2214	0.1646	-0.1894	0.7640	-0.5945
6.87	-0.2387	-9.0245	-2.2049	0.0134	-0.0055	0.0056	-29.7939	12.7658	20.2340	0.1646	-0.1894	0.7639	-0.5945
6.88	-0.2433	-9.0247	-2.2060	0.0115	-0.0089	0.0080	-29.8368	12.7507	20.3130	0.1646	-0.1895	0.7640	-0.5945
6.89	-0.2478	-9.0261	-2.2090	0.0117	-0.0054	0.0111	-29.7998	13.1619	20.3383	0.1646	-0.1894	0.7640	-0.5944
6.9	-0.2510	-9.0241	-2.2071	0.0141	-0.0093	0.0151	-29.8750	12.7441	20.2341	0.1646	-0.1894	0.7640	-0.5944
6.91	-0.2518	-9.0244	-2.2101	0.0115	-0.0060	0.0096	-29.9150	12.9482	20.2295	0.1646	-0.1894	0.7640	-0.5943
6.92	-0.2529	-9.0265	-2.2065	0.0069	-0.0072	0.0100	-29.8808	12.8704	20.2847	0.1646	-0.1895	0.7641	-0.5944
6.93	-0.2447	-9.0293	-2.2156	0.0160	-0.0090	0.0134	-29.7802	12.7973	20.1030	0.1646	-0.1894	0.7640	-0.5943
6.94	-0.2371	-9.0218	-2.2064	0.0064	-0.0031	0.0047	-29.8976	13.0532	20.4074	0.1646	-0.1895	0.7641	-0.5943
6.95	-0.2340	-9.0203	-2.2078	0.0076	-0.0093	0.0116	-29.9137	12.9829	20.4068	0.1646	-0.1895	0.7641	-0.5943
6.96	-0.2301	-9.0254	-2.2101	0.0069	-0.0051	0.0084	-29.8936	13.1384	20.3684	0.1646	-0.1895	0.7641	-0.5942
6.97	-0.2233	-9.0261	-2.2147	0.0065	-0.0040	0.0028	-30.1008	13.0316	20.4624	0.1645	-0.1895	0.7642	-0.5942
6.98	-0.2238	-9.0267	-2.2136	0.0130	-0.0047	0.0094	-29.8913	12.9152	20.4182	0.1645	-0.1895	0.7641	-0.5942
6.99	-0.2278	-9.0276	-2.2098	0.0064	-0.0046	0.0073	-29.8223	12.9460	20.2885	0.1645	-0.1895	0.7642	-0.5942
7	-0.2282	-9.0293	-2.2154	0.0123	-0.0080	0.0131	-30.0570	12.8839	20.1647	0.1645	-0.1895	0.7642	-0.5941
7.01	-0.2319	-9.0173	-2.1996	0.0155	-0.0054	0.0082	-30.0823	13.0568	20.1464	0.1645	-0.1895	0.7643	-0.5942
7.02	-0.2329	-9.0196	-2.2039	0.0129	-0.0121	0.0107	-29.8919	13.1207	20.4525	0.1645	-0.1895	0.7642	-0.5941
7.03	-0.2372	-9.0183	-2.2042	0.0096	-0.0127	0.0139	-29.6994	12.7413	20.2338	0.1645	-0.1896	0.7642	-0.5941
7.04	-0.2384	-9.0244	-2.2021	0.0152	-0.0086	0.0123	-29.9374	12.9950	20.4772	0.1645	-0.1896	0.7642	-0.5941
7.05	-0.2399	-9.0266	-2.2095	0.0148	-0.0058	0.0081	-29.8189	12.9691	20.3460	0.1645	-0.1896	0.7642	-0.5940
7.06	-0.2477	-9.0333	-2.2055	0.0123	-0.0080	0.0141	-29.7332	12.7150	20.2034	0.1646	-0.1896	0.7643	-0.5941
7.07	-0.2437	-9.0242	-2.2051	0.0084	-0.0113	0.0101	-29.7268	13.0818	20.2291	0.1646	-0.1896	0.7643	-0.5940
7.08	-0.2478	-9.0163	-2.2053	0.0115	-0.0058	0.0107	-29.7916	13.0426	20.2689	0.1646	-0.1896	0.7643	-0.5940
7.09	-0.2519	-9.0199	-2.2111	0.0145	-0.0076	0.0083	-29.9108	12.9262	20.3395	0.1645	-0.1896	0.7642	-0.5939
7.1	-0.2536	-9.0240	-2.2109	0.0094	-0.0071	0.0101	-29.9030	12.9041	20.3804	0.1646	-0.1896	0.7643	-0.5940
7.11	-0.2525	-9.0252	-2.2059	0.0167	-0.0084	0.0057	-29.8897	12.8389	20.2692	0.1645	-0.1896	0.7643	-0.5940
7.12	-0.2528	-9.0237	-2.2059	0.0226	-0.0058	0.0089	-29.9486	13.1082	20.1205	0.1645	-0.1896	0.7643	-0.5940
7.13	-0.2495	-9.0176	-2.1976	0.0049	-0.0003	0.0040	-30.0826	13.0008	20.1420	0.1645	-0.1896	0.7643	-0.5940
7.14	-0.2504	-9.0219	-2.1965	0.0107	-0.0070	0.0072	-30.0304	12.8651	20.3718	0.1645	-0.1896	0.7643	-0.5939
7.15	-0.2484	-9.0247	-2.1988	0.0137	-0.0048	0.0038	-29.9379	12.8591	20.4403	0.1645	-0.1897	0.7644	-0.5940
7.16	-0.2440	-9.0295	-2.2010	0.0004	-0.0066	0.0056	-29.7900	13.1196	20.1937	0.1644	-0.1897	0.7643	-0.5938
7.17	-0.2446	-9.0317	-2.2070	0.0093	-0.0059	0.0096	-29.9477	12.9818	20.2562	0.1644	-0.1897	0.7644	-0.5939
7.18	-0.2421	-9.0211	-2.2071	0.0119	-0.0034	0.0058	-29.8126	13.0316	20.2911	0.1644	-0.1897	0.7644	-0.5938
7.19	-0.2383	-9.0192	-2.2081	0.0075	-0.0081	0.0115	-29.9362	12.9837	20.1779	0.1644	-0.1897	0.7645	-0.5938
7.2	-0.2428	-9.0268	-2.2104	0.0135	-0.0086	0.0087	-30.0855	13.1225	20.3282	0.1644	-0.1897	0.7644	-0.5938
7.21	-0.2404	-9.0202	-2.2128	0.0126	-0.0074	0.0119	-30.0494	12.9222	20.2958	0.1644	-0.1897	0.7645	-0.5938
7.22	-0.2373	-9.0181	-2.2087	0.0157	-0.0067	0.0078	-29.6754	12.8159	20.3255	0.1644	-0.1897	0.7645	-0.5938
7.23	-0.2363	-9.0251	-2.2174	0.0169	-0.0096	0.0053	-29.3962	12.9357	20.3069	0.1644	-0.1898	0.7644	-0.5937
7.24	-0.2400	-9.0259	-2.2148	0.0211	-0.0079	0.0128	-29.3288	12.9288	20.3977	0.1644	-0.1898	0.7645	-0.5938
7.25	-0.2404	-9.0316	-2.2211	0.0152	-0.0087	0.0127	-29.6441	12.9738	20.3171	0.1644	-0.1898	0.7644	-0.5938
7.26	-0.2371	-9.0258	-2.2091	0.0175	-0.0052	0.0130	-29.7161	13.1583	20.2181	0.1644	-0.1898	0.7645	-0.5938
7.27	-0.2387	-9.0263	-2.2109	0.0184	-0.0074	0.0095	-29.7740	13.1538	20.2930	0.1644	-0.1897	0.7644	-0.5938
7.28	-0.2365	-9.0171	-2.1983	0.0153	-0.0065	0.0070	-30.0002	12.9881	20.2191	0.1644	-0.1898	0.7644	-0.5938
7.29	-0.2392	-9.0230	-2.2039	0.0176	-0.0069	0.0100	-29.9986	13.1216	20.0457	0.1644	-0.1898	0.7644	-0.5938
7.3	-0.2404	-9.0286	-2.2063	0.0178	-0.0133	0.0143	-29.7590	13.0651	20.4847	0.1645	-0.1898	0.7644	-0.5938
7.31	-0.2378	-9.0332	-2.2023	0.0166	-0.0097	0.0092	-29.8862	13.1926	20.3198	0.1645	-0.1898	0.7645	-0.5938
7.32	-0.2366	-9.0269	-2.2061	0.0074	-0.0050	0.0073	-29.9381	13.1633	20.2594	0.1645	-0.1898	0.7644	-0.5938
7.33	-0.2280	-9.0229	-2.2118	0.0104	-0.0046	0.0150	-29.9826	13.1526	20.2596	0.1645	-0.1898	0.7645	-0.5938
7.34	-0.2313	-9.0232	-2.2205	0.0182	-0.0110	0.0098	-30.0450	13.2523	20.2865	0.1645	-0.1898	0.7644	-0.5937
7.35	-0.2364	-9.0299	-2.2227	0.0175	-0.0078	0.0086	-29.9734	13.2394	19.9941	0.1645	-0.1898	0.7645	-0.5938
7.36	-0.2347	-9.0255	-2.2226	0.0144	-0.0074	0.0091	-29.9345	13.1139	20.0886	0.1645	-0.1898	0.7645	-0.5937
7.37	-0.2363	-9.0181	-2.2154	0.0144	-0.0045	0.0081	-30.1446	12.9934	20.2733	0.1645	-0.1898	0.7644	-0.5937
7.38	-0.2339	-9.0231	-2.2218	0.0069	-0.0067	0.0063	-29.8822	13.0917	20.3630	0.1644	-0.1898	0.7645	-0.5937
7.39	-0.2343	-9.0260	-2.2121	0.0187	-0.0086	0.0103	-29.8940	13.0816	20.4597	0.1644	-0.1898	0.7645	-0.5937
7.4	-0.2263	-9.0166	-2.1915	0.0097	-0.0125	0.0135	-29.9129	12.9052	20.2276	0.1645	-0.1898	0.7645	-0.5937
7.41	-0.2224	-9.0289	-2.1967	0.0114	-0.0088	0.0073	-29.7252	12.9427	20.0753	0.1645	-0.1898	0.7644	-0.5936
7.42	-0.2263	-9.0372	-2.2063	0.0145	-0.0018	0.0072	-30.0006	12.8798	20.1295	0.1644	-0.1898	0.7645	-0.5937
7.43	-0.2271	-9.0248	-2.1939	0.0132	-0.0065	0.0091	-29.8480	12.8699	20.0232	0.1644	-0.1898	0.7645	-0.5937
7.44	-0.2279	-9.0228	-2.2080	0.0181	-0.0064	0.0103	-29.9016	12.9468	20.0720	0.1644	-0.1898	0.7645	-0.5937
7.45	-0.2377	-9.0240	-2.2054	0.0134	-0.0075	0.0126	-30.0285	12.8203	20.1911	0.1644	-0.1898	0.7645	-0.5936
7.46	-0.2416	-9.0270	-2.2114	0.0124	-0.0068	0.0098	-29.9937	12.8223	20.2233	0.1644	-0.1898	0.7645	-0.5936
7.47	-0.2461	-9.0254	-2.2072	0.0123	-0.0083	0.0151	-30.0411	12.8905	20.4413	0.1645	-0.1898	0.7646	-0.5936
7.48	-0.2525	-9.0266	-2.2201	0.0142	-0.0060	0.0065	-29.9189	12.9262	20.1610	0.1644	-0.1898	0.7645	-0.5936
7.49	-0.2512	-9.0161	-2.2218	0.0176	-0.0117	0.0135	-29.9340	13.0191	20.0938	0.1645	-0.1899	0.7646	-0.5937
7.5	-0.2535	-9.0183	-2.2225	0.0154	-0.0034	0.0069	-30.0628	13.1152	20.2240	0.1645	-0.1898	0.7645	-0.5936
7.51	-0.2546	-9.0219	-2.2210	0.0115	-0.0047	0.0092	-30.1289	13.0601	20.3446	0.1645	-0.1899	0.7646	-0.5937
7.52	-0.2462	-9.0231	-2.2220	0.0166	-0.0058	0.0068	-29.9981	13.0966	20.3652	0.1644	-0.1898	0.7645	-0.5936
7.53	-0.2423	-9.0299	-2.2141	0.0151	-0.0044	0.0088	-29.9346	13.1717	20.2237	0.1644	-0.1899	0.7646	-0.5936
7.54	-0.2352	-9.0332	-2.2155	0.0188	0.0001	0.0079	-29.9031	13.3670	20.3223	0.1644	-0.1898	0.7646	-0.5936
7.55	-0.2350	-9.0239	-2.2125	0.0188	-0.0089	0.0080	-29.8205	13.1698	20.3741	0.1644	-0.1898	0.7645	-0.5936
7.56	-0.2342	-9.0242	-2.2064	0.0153	0.0004	0.0135	-29.9788	13.1743	20.2439	0.1644	-0.1898	0.7646	-0.5937
7.57	-0.2407	-9.0251	-2.2122	0.0233	-0.0079	0.0065	-29.8855	13.3888	20.1348	0.1644	-0.1898	0.7645	-0.5937
7.58	-0.2389	-9.0210	-2.2008	0.0191	-0.0053	0.0179	-30.0377	13.0719	20.2629	0.1644	-0.1898	0.7646	-0.5937
7.59	-0.2384	-9.0204	-2.1999	0.0205	-0.0024	0.0145	-29.9079	13.0355	20.1817	0.1644	-0.1897	0.7645	-0.5937
7.6	-0.2417	-9.0205	-2.2014	0.0175	-0.0076	0.0121	-29.7754	12.8389	20.1827	0.1644	-0.1898	0.7645	-0.5937
7.61	-0.2444	-9.0270	-2.2004	0.0171	-0.0053	0.0096	-29.8329	12.7680	20.2000	0.1644	-0.1897	0.7645	-0.5937
7.62	-0.2392	-9.0293	-2.2003	0.0208	-0.0046	0.0066	-29.7342	12.9350	20.1828	0.1644	-0.1897	0.7645	-0.5937
7.63	-0.2359	-9.0249	-2.2007	0.0163	0.0007	0.0073	-29.7909	12.9267	20.1919	0.1644	-0.1897	0.7645	-0.5938
7.64	-0.2325	-9.0238	-2.2006	0.0149	-0.0086	0.0103	-29.7726	13.0070	20.3145	0.1644	-0.1897	0.7645	-0.5937
7.65	-0.2329	-9.0304	-2.2106	0.0210	-0.0060	0.0064	-29.9523	12.8574	20.4088	0.1644	-0.1898	0.7645	-0.5938
7.66	-0.2305	-9.0229	-2.2093	0.0226	-0.0046	0.0119	-29.9108	13.0523	20.1671	0.1644	-0.1897	0.7644	-0.5937
7.67	-0.2321	-9.0259	-2.2101	0.0275	-0.0079	0.0161	-29.9578	12.7393	20.0856	0.1644	-0.1897	0.7645	-0.5938
7.68	-0.2335	-9.0252	-2.2072	0.0235	-0.0127	0.0170	-30.0034	12.9923	20.2384	0.1644	-0.1897	0.7644	-0.5938
7.69	-0.2336	-9.0232	-2.2143	0.0222	-0.0013	0.0050	-29.8293	13.1389	20.0730	0.1644	-0.1897	0.7644	-0.5939
7.7	-0.2410	-9.0271	-2.2194	0.0165	0.0009	0.0078	-29.9370	12.9761	20.1132	0.1644	-0.1897	0.7644	-0.5939
7.71	-0.2458	-9.0200	-2.2151	0.0189	-0.0017	0.0065	-29.9513	13.1396	20.2945	0.1644	-0.1897	0.7644	-0.5939
7.72	-0.2478	-9.0218	-2.2158	0.0235	-0.0007	0.0102	-29.9015	13.1881	20.2780	0.1644	-0.1897	0.7644	-0.5939
7.73	-0.2501	-9.0257	-2.2149	0.0153	-0.0024	0.0063	-29.7171	13.1416	20.5437	0.1643	-0.1896	0.7643	-0.5939
7.74	-0.2480	-9.0264	-2.2107	0.0189	-0.0041	0.0059	-29.5632	13.1947	20.5043	0.1643	-0.1897	0.7644	-0.5940
7.75	-0.2370	-9.0272	-2.2153	0.0160	-0.0027	0.0090	-29.6928	13.1089	20.3998	0.1643	-0.1896	0.7644	-0.5940
7.76	-0.2272	-9.0248	-2.2140	0.0101	-0.0007	0.0065	-29.8413	13.2235	20.2371	0.1643	-0.1897	0.7644	-0.5940
7.77	-0.2228	-9.0174	-2.2070	0.0158	-0.0077	0.0077	-29.9602	13.3787	20.4074	0.1642	-0.1896	0.7643	-0.5939
7.78	-0.2246	-9.0210	-2.2085	0.0149	-0.0076	0.0106	-29.8386	12.9232	20.3731	0.1642	-0.1897	0.7644	-0.5940
7.79	-0.2242	-9.0307	-2.2108	0.0139	-0.0066	0.0138	-29.5919	13.1017	20.2872	0.1643	-0.1897	0.7644	-0.5939
7.8	-0.2261	-9.0317	-2.2110	0.0245	-0.0070	0.0089	-29.7764	12.8985	20.3439	0.1643	-0.1896	0.7643	-0.5939
7.81	-0.2297	-9.0232	-2.2075	0.0211	-0.0007	0.0113	-29.7337	13.0864	20.1943	0.1643	-0.1896	0.7644	-0.5940
7.82	-0.2405	-9.0194	-2.2094	0.0128	-0.0065	0.0111	-29.8843	12.9421	20.2733	0.1643	-0.1896	0.7644	-0.5940
7.83	-0.2467	-9.0221	-2.2071	0.0221	-0.0067	0.0075	-29.7380	13.0165	20.3126	0.1643	-0.1896	0.7644	-0.5940
7.84	-0.2476	-9.0288	-2.2123	0.0136	-0.0066	0.0084	-29.8200	13.0226	19.9754	0.1642	-0.1896	0.7643	-0.5940
7.85	-0.2459	-9.0225	-2.2069	0.0206	-0.0061	0.0112	-29.9314	12.9507	20.2534	0.1643	-0.1896	0.7643	-0.5940
7.86	-0.2489	-9.0247	-2.2024	0.0205	-0.0079	0.0094	-29.8950	12.8821	20.4228	0.1643	-0.1896	0.7643	-0.5940
7.87	-0.2526	-9.0227	-2.2095	0.0087	-0.0085	0.0124	-29.9584	13.2196	20.1735	0.1643	-0.1896	0.7643	-0.5940
7.88	-0.2498	-9.0236	-2.2052	0.0123	-0.0052	0.0147	-30.1201	13.4881	20.3222	0.1643	-0.1896	0.7644	-0.5940
7.89	-0.2512	-9.0256	-2.2111	0.0149	-0.0041	0.0045	-29.8723	12.9115	20.1586	0.1643	-0.1896	0.7643	-0.5940
7.9	-0.2514	-9.0276	-2.2033	0.0122	0.0033	0.0116	-29.8409	13.0204	20.3539	0.1642	-0.1896	0.7644	-0.5940
7.91	-0.2508	-9.0239	-2.2105	0.0156	-0.0041	0.0093	-29.7357	13.0318	20.5108	0.1642	-0.1896	0.7643	-0.5939
7.92	-0.2541	-9.0174	-2.2036	0.0080	-0.0037	0.0078	-29.7975	12.8240	20.4782	0.1642	-0.1896	0.7644	-0.5940
7.93	-0.2555	-9.0228	-2.2021	0.0137	-0.0042	0.0114	-29.9242	13.0519	20.5053	0.1642	-0.1896	0.7644	-0.5940
7.94	-0.2480	-9.0275	-2.2058	0.0068	0.0026	0.0071	-29.7784	13.1626	20.4145	0.1641	-0.1896	0.7645	-0.5940
7.95	-0.2469	-9.0206	-2.2004	0.0166	-0.0061	0.0066	-29.9514	12.8918	20.2965	0.1641	-0.1896	0.7644	-0.5939
7.96	-0.2440	-9.0210	-2.1931	0.0170	-0.0034	0.0056	-29.9902	12.8735	20.3130	0.1641	-0.1896	0.7644	-0.5940
7.97	-0.2406	-9.0331	-2.1989	0.0104	-0.0038	0.0122	-29.9705	12.9668	20.1145	0.1641	-0.1896	0.7645	-0.5939
7.98	-0.2394	-9.0223	-2.1942	0.0141	-0.0048	0.0127	-29.7156	12.9342	20.2292	0.1641	-0.1896	0.7644	-0.5939
7.99	-0.2386	-9.0210	-2.2034	0.0188	-0.0024	0.0105	-29.7750	12.8594	20.3350	0.1641	-0.1896	0.7645	-0.5940
8	-0.2344	-9.0256	-2.2040	0.0185	-0.0010	0.0129	-29.8305	12.9899	20.1690	0.1641	-0.1895	0.7644	-0.5939
8.01	-0.2346	-9.0259	-2.2167	0.0173	-0.0028	0.0058	-29.8814	12.8427	20.3260	0.1640	-0.1895	0.7645	-0.5940
8.02	-0.2313	-9.0209	-2.2158	0.0224	-0.0008	0.0087	-29.9309	12.9612	20.3064	0.1640	-0.1895	0.7644	-0.5940
8.03	-0.2313	-9.0237	-2.2138	0.0134	-0.0043	0.0079	-29.7763	12.7994	20.2224	0.1640	-0.1895	0.7644	-0.5940
8.04	-0.2362	-9.0265	-2.2149	0.0150	-0.0071	0.0100	-29.9036	12.8274	20.2300	0.1640	-0.1895	0.7644	-0.5940
8.05	-0.2390	-9.0245	-2.2176	0.0136	-0.0089	0.0103	-29.9069	13.1538	20.2219	0.1640	-0.1895	0.7644	-0.5940
8.06	-0.2381	-9.0237	-2.2186	0.0152	-0.0006	0.0138	-29.8439	12.9769	20.2149	0.1640	-0.1895	0.7645	-0.5940
8.07	-0.2373	-9.0271	-2.2200	0.0097	-0.0038	0.0078	-29.9087	12.9678	20.1216	0.1640	-0.1895	0.7645	-0.5940
8.08	-0.2368	-9.0222	-2.2195	0.0102	-0.0007	0.0073	-29.9698	13.0614	20.3726	0.1640	-0.1895	0.7645	-0.5940
8.09	-0.2384	-9.0252	-2.2062	0.0177	0.0029	0.0107	-30.0775	12.9170	20.4978	0.1639	-0.1895	0.7644	-0.5939
8.1	-0.2350	-9.0268	-2.2233	0.0133	-0.0056	0.0100	-30.0056	12.9467	20.4752	0.1639	-0.1895	0.7645	-0.5940
8.11	-0.2391	-9.0282	-2.2167	0.0111	-0.0009	0.0072	-29.9298	12.9381	20.3406	0.1639	-0.1895	0.7645	-0.5939
8.12	-0.2392	-9.0144	-2.1991	0.0171	-0.0017	0.0082	-29.9763	12.9460	20.2845	0.1638	-0.1895	0.7645	-0.5939
8.13	-0.2370	-9.0202	-2.2021	0.0133	-0.0006	0.0097	-29.9940	12.9369	20.4404	0.1638	-0.1895	0.7645	-0.5940
8.14	-0.2421	-9.0327	-2.2072	0.0187	-0.0061	0.0080	-29.9027	12.9549	20.4761	0.1638	-0.1894	0.7645	-0.5940
8.15	-0.2377	-9.0264	-2.1981	0.0171	-0.0051	0.0141	-30.0644	12.8947	20.5267	0.1638	-0.1894	0.7645	-0.5940
8.16	-0.2413	-9.0265	-2.2037	0.0130	-0.0017	0.0151	-29.8032	12.7606	20.3046	0.1638	-0.1894	0.7645	-0.5939
8.17	-0.2412	-9.0269	-2.2064	0.0142	-0.0038	0.0085	-29.7469	12.9041	20.1295	0.1638	-0.1894	0.7646	-0.5940
8.18	-0.2350	-9.0248	-2.2122	0.0146	-0.0087	0.0112	-29.7330	12.9678	20.2472	0.1638	-0.1894	0.7645	-0.5940
8.19	-0.2363	-9.0176	-2.2022	0.0119	-0.0075	0.0067	-29.7954	12.9234	19.9987	0.1638	-0.1894	0.7646	-0.5940
8.2	-0.2385	-9.0281	-2.2082	0.0220	-0.0035	0.0070	-30.0040	13.0426	20.2619	0.1638	-0.1894	0.7645	-0.5940
8.21	-0.2372	-9.0340	-2.2079	0.0163	-0.0092	0.0067	-29.9913	12.9990	20.3056	0.1638	-0.1894	0.7645	-0.5940
8.22	-0.2362	-9.0268	-2.2056	0.0133	-0.0055	0.0065	-29.9437	13.0812	20.3394	0.1638	-0.1895	0.7645	-0.5940
8.23	-0.2349	-9.0229	-2.2057	0.0107	-0.0067	0.0085	-29.5090	13.1259	20.5644	0.1638	-0.1894	0.7645	-0.5939
8.24	-0.2363	-9.0304	-2.2108	0.0225	-0.0120	0.0114	-29.3162	13.0847	20.7814	0.1638	-0.1895	0.7645	-0.5940
8.25	-0.2337	-9.0283	-2.2234	0.0180	-0.0028	0.0078	-29.7446	13.2674	20.3429	0.1638	-0.1895	0.7645	-0.5940
8.26	-0.2337	-9.0150	-2.2121	0.0232	0.0026	0.0086	-29.8606	13.3427	20.3204	0.1638	-0.1895	0.7645	-0.5941
8.27	-0.2352	-9.0251	-2.2061	0.0226	0.0015	0.0111	-29.9234	13.2832	20.2706	0.1637	-0.1894	0.7644	-0.5940
8.28	-0.2394	-9.0313	-2.2126	0.0203	-0.0017	0.0094	-30.1367	13.3636	20.4013	0.1637	-0.1894	0.7645	-0.5941
8.29	-0.2472	-9.0172	-2.2039	0.0205	-0.0057	0.0070	-30.0121	13.0140	20.2716	0.1637	-0.1894	0.7644	-0.5941
8.3	-0.2506	-9.0186	-2.2030	0.0186	0.0028	0.0068	-29.9887	13.0360	20.4459	0.1637	-0.1894	0.7644	-0.5941
8.31	-0.2534	-9.0366	-2.2129	0.0178	-0.0009	0.0080	-29.9336	13.2489	20.3664	0.1637	-0.1894	0.7645	-0.5942
8.32	-0.2576	-9.0199	-2.2088	0.0152	0.0003	0.0067	-29.8792	13.1562	20.2259	0.1636	-0.1893	0.7644	-0.5942
8.33	-0.2529	-9.0176	-2.2044	0.0250	-0.0102	0.0107	-30.0130	13.2413	20.1457	0.1636	-0.1894	0.7644	-0.5942
8.34	-0.2505	-9.0278	-2.2122	0.0216	-0.0091	0.0149	-29.9079	12.9264	20.4042	0.1637	-0.1893	0.7643	-0.5942
8.35	-0.2490	-9.0324	-2.2136	0.0247	-0.0027	0.0138	-29.6475	13.0377	20.3379	0.1637	-0.1893	0.7644	-0.5943
8.36	-0.2449	-9.0207	-2.2067	0.0253	-0.0061	0.0144	-29.7927	12.7543	20.2983	0.1637	-0.1893	0.7643	-0.5943
8.37	-0.2383	-9.0231	-2.2117	0.0238	-0.0070	0.0049	-29.7400	12.8049	20.2215	0.1637	-0.1893	0.7643	-0.5943
8.38	-0.2355	-9.0282	-2.2111	0.0191	-0.0084	0.0095	-29.7425	12.9099	20.1130	0.1637	-0.1893	0.7643	-0.5943
8.39	-0.2379	-9.0243	-2.2160	0.0204	-0.0059	0.0098	-29.9116	12.9384	20.0928	0.1637	-0.1893	0.7643	-0.5943
8.4	-0.2376	-9.0177	-2.2108	0.0235	-0.0075	0.0096	-30.0015	12.9756	20.3965	0.1637	-0.1893	0.7643	-0.5944
8.41	-0.2336	-9.0313	-2.2183	0.0248	-0.0030	0.0131	-29.7772	12.7689	20.1910	0.1637	-0.1892	0.7642	-0.5944
8.42	-0.2311	-9.0276	-2.2033	0.0217	-0.0019	0.0086	-29.8824	12.9765	20.1441	0.1637	-0.1893	0.7642	-0.5945
8.43	-0.2297	-9.0225	-2.2010	0.0193	-0.0045	0.0121	-30.0433	13.0948	20.4492	0.1637	-0.1892	0.7642	-0.5945
8.44	-0.2308	-9.0266	-2.2066	0.0203	-0.0037	0.0070	-29.9284	13.0453	20.3211	0.1637	-0.1892	0.7642	-0.5945
8.45	-0.2298	-9.0255	-2.1991	0.0242	-0.0033	0.0067	-29.8994	13.1666	20.4091	0.1637	-0.1892	0.7641	-0.5945
8.46	-0.2291	-9.0231	-2.1989	0.0198	-0.0034	0.0122	-29.9587	13.1345	20.3335	0.1637	-0.1892	0.7641	-0.5945
8.47	-0.2324	-9.0256	-2.2074	0.0161	-0.0019	0.0068	-30.0127	12.9864	20.4176	0.1637	-0.1892	0.7642	-0.5946
8.48	-0.2267	-9.0269	-2.2091	0.0217	-0.0035	0.0048	-30.0035	13.0294	20.2456	0.1636	-0.1892	0.7641	-0.5945
8.49	-0.2293	-9.0264	-2.2089	0.0141	-0.0006	0.0056	-29.8901	13.3068	20.3332	0.1636	-0.1892	0.7642	-0.5946
8.5	-0.2350	-9.0225	-2.2022	0.0216	-0.0042	0.0136	-29.8467	13.1357	20.4585	0.1636	-0.1892	0.7641	-0.5946
8.51	-0.2474	-9.0261	-2.2058	0.0142	-0.0060	0.0075	-30.0028	13.2488	20.3244	0.1636	-0.1892	0.7642	-0.5947
8.52	-0.2478	-9.0261	-2.2063	0.0221	-0.0063	0.0131	-30.0859	13.0388	20.3982	0.1636	-0.1892	0.7641	-0.5946
8.53	-0.2496	-9.0242	-2.2088	0.0220	-0.0078	0.0129	-29.8467	12.8935	20.2453	0.1636	-0.1892	0.7641	-0.5947
8.54	-0.2497	-9.0283	-2.2167	0.0183	-0.0084	0.0153	-29.7038	13.0187	20.3393	0.1637	-0.1892	0.7641	-0.5947
8.55	-0.2507	-9.0237	-2.2052	0.0213	-0.0041	0.0112	-29.8708	12.9762	20.1751	0.1637	-0.1891	0.7640	-0.5947
8.56	-0.2519	-9.0239	-2.2062	0.0136	-0.0049	0.0066	-29.6962	12.9820	20.2339	0.1637	-0.1892	0.7641	-0.5947
8.57	-0.2445	-9.0204	-2.2058	0.0201	-0.0077	0.0087	-29.8495	12.9002	20.2834	0.1637	-0.1891	0.7640	-0.5947
8.58	-0.2452	-9.0290	-2.2114	0.0211	-0.0056	0.0083	-29.8946	13.0591	20.3592	0.1637	-0.1892	0.7641	-0.5948
8.59	-0.2348	-9.0276	-2.2092	0.0148	-0.0100	0.0128	-29.7881	12.7049	20.3186	0.1637	-0.1891	0.7640	-0.5947
8.6	-0.2304	-9.0254	-2.2068	0.0176	-0.0065	0.0095	-29.9794	12.7540	20.0431	0.1637	-0.1892	0.7640	-0.5947
8.61	-0.2347	-9.0271	-2.2061	0.0189	-0.0084	0.0094	-29.9774	13.0503	20.1991	0.1637	-0.1892	0.7640	-0.5947
8.62	-0.2364	-9.0292	-2.2224	0.0217	-0.0071	0.0079	-30.0711	13.0662	20.1733	0.1637	-0.1892	0.7640	-0.5947
8.63	-0.2374	-9.0251	-2.2086	0.0177	-0.0007	0.0131	-30.0854	13.0727	20.2994	0.1637	-0.1891	0.7640	-0.5948
8.64	-0.2441	-9.0186	-2.2008	0.0162	-0.0022	0.0086	-29.9687	13.1655	20.5043	0.1637	-0.1891	0.7640	-0.5948
8.65	-0.2509	-9.0301	-2.2196	0.0118	-0.0028	0.0077	-30.0610	13.1555	20.1855	0.1637	-0.1891	0.7640	-0.5948
8.66	-0.2522	-9.0209	-2.2048	0.0250	0.0022	0.0094	-30.1571	13.0523	20.1918	0.1636	-0.1891	0.7639	-0.5948
8.67	-0.2505	-9.0195	-2.2010	0.0149	-0.0052	0.0105	-30.0742	13.0805	20.2732	0.1636	-0.1891	0.7640	-0.5948
8.68	-0.2543	-9.0235	-2.2129	0.0221	-0.0006	0.0119	-30.0525	13.1688	20.3291	0.1636	-0.1891	0.7640	-0.5948
8.69	-0.2541	-9.0236	-2.2082	0.0223	-0.0070	0.0049	-29.9089	13.1419	20.3839	0.1636	-0.1891	0.7640	-0.5949
8.7	-0.2476	-9.0192	-2.1988	0.0168	-0.0089	0.0108	-29.9992	13.0716	20.3691	0.1636	-0.1891	0.7639	-0.5949
8.71	-0.2485	-9.0310	-2.2122	0.0177	-0.0090	0.0158	-30.0222	12.9297	20.4805	0.1636	-0.1891	0.7639	-0.5949
8.72	-0.2435	-9.0221	-2.2092	0.0146	-0.0073	0.0168	-29.7195	13.0712	20.2719	0.1637	-0.1890	0.7640	-0.5949
8.73	-0.2409	-9.0222	-2.2107	0.0270	-0.0071	0.0120	-29.3219	13.0739	20.3648	0.1637	-0.1890	0.7638	-0.5949
8.74	-0.2356	-9.0245	-2.2101	0.0198	0.0003	0.0127	-29.2748	12.9856	20.5923	0.1637	-0.1890	0.7639	-0.5950
8.75	-0.2363	-9.0245	-2.2130	0.0155	-0.0062	0.0102	-29.7164	12.7689	20.3164	0.1637	-0.1890	0.7639	-0.5949
8.76	-0.2321	-9.0211	-2.2052	0.0195	-0.0076	0.0083	-29.8179	13.2432	20.1540	0.1637	-0.1890	0.7639	-0.5950
8.77	-0.2342	-9.0256	-2.2094	0.0115	-0.0040	0.0087	-30.0046	13.2670	20.2160	0.1637	-0.1890	0.7638	-0.5949
8.78	-0.2308	-9.0281	-2.2103	0.0125	-0.0015	0.0067	-29.9635	12.9981	20.1952	0.1636	-0.1890	0.7639	-0.5949
8.79	-0.2295	-9.0296	-2.2057	0.0183	-0.0070	0.0079	-29.8665	13.1098	20.2368	0.1636	-0.1890	0.7639	-0.5950
8.8	-0.2298	-9.0332	-2.2077	0.0198	-0.0043	0.0132	-29.9368	12.9889	20.1824	0.1636	-0.1890	0.7638	-0.5949
8.81	-0.2317	-9.0253	-2.2066	0.0251	-0.0018	0.0121	-29.6847	13.0551	20.3590	0.1637	-0.1890	0.7639	-0.5951
8.82	-0.2313	-9.0264	-2.2122	0.0175	-0.0040	0.0043	-29.9535	12.8996	20.4930	0.1636	-0.1890	0.7638	-0.5950
8.83	-0.2305	-9.0246	-2.2073	0.0194	0.0039	0.0073	-30.1284	12.9850	20.2813	0.1636	-0.1890	0.7639	-0.5951
8.84	-0.2345	-9.0244	-2.2016	0.0105	-0.0029	0.0062	-29.9324	12.8238	20.3081	0.1635	-0.1889	0.7638	-0.5950
8.85	-0.2364	-9.0252	-2.2030	0.0143	0.0067	0.0052	-29.9378	13.0171	20.4224	0.1635	-0.1889	0.7639	-0.5951
8.86	-0.2414	-9.0270	-2.2078	0.0225	0.0046	0.0100	-29.8196	13.1486	20.3333	0.1635	-0.1889	0.7638	-0.5951
8.87	-0.2394	-9.0216	-2.2013	0.0147	0.0026	0.0062	-29.9087	13.0357	20.2812	0.1634	-0.1889	0.7638	-0.5951
8.88	-0.2363	-9.0250	-2.2027	0.0084	-0.0026	0.0095	-29.8695	12.9961	20.3207	0.1634	-0.1889	0.7639	-0.5951
8.89	-0.2421	-9.0272	-2.2055	0.0181	-0.0097	0.0141	-29.8726	13.2184	20.1367	0.1634	-0.1889	0.7639	-0.5951
8.9	-0.2492	-9.0279	-2.2024	0.0098	-0.0097	0.0135	-29.9974	13.0471	20.1502	0.1634	-0.1889	0.7639	-0.5951
8.91	-0.2455	-9.0200	-2.1987	0.0149	-0.0061	0.0075	-29.6970	12.7366	20.4094	0.1634	-0.1889	0.7638	-0.5950
8.92	-0.2492	-9.0238	-2.2143	0.0179	-0.0080	0.0117	-29.8691	12.9974	20.5092	0.1634	-0.1889	0.7639	-0.5951
8.93	-0.2496	-9.0213	-2.2111	0.0159	-0.0073	0.0104	-29.9493	12.7735	20.4126	0.1634	-0.1889	0.7639	-0.5951
8.94	-0.2482	-9.0208	-2.2111	0.0198	-0.0039	0.0074	-30.0026	13.0327	20.1495	0.1634	-0.1889	0.7639	-0.5951
8.95	-0.2451	-9.0255	-2.2138	0.0176	-0.0068	0.0082	-29.8873	13.0130	20.4446	0.1634	-0.1889	0.7638	-0.5951
8.96	-0.2401	-9.0266	-2.2184	0.0131	-0.0028	0.0118	-29.9091	13.0626	20.3194	0.1634	-0.1889	0.7639	-0.5951
8.97	-0.2368	-9.0239	-2.2140	0.0216	-0.0015	0.0068	-29.8899	13.1271	19.9676	0.1634	-0.1889	0.7639	-0.5951
8.98	-0.2304	-9.0261	-2.2072	0.0232	-0.0035	0.0112	-29.8964	13.1116	20.2260	0.1634	-0.1888	0.7638	-0.5951
8.99	-0.2266	-9.0306	-2.2146	0.0202	-0.0069	0.0108	-29.9030	13.0067	20.3035	0.1634	-0.1889	0.7639	-0.5952
9	-0.2292	-9.0244	-2.2025	0.0184	-0.0038	0.0123	-30.0371	13.0642	20.1663	0.1634	-0.1888	0.7638	-0.5952
9.01	-0.2268	-9.0255	-2.2108	0.0072	-0.0040	0.0057	-30.0897	13.1398	20.2891	0.1634	-0.1889	0.7639	-0.5952
9.02	-0.2290	-9.0270	-2.2095	0.0149	-0.0019	0.0092	-29.9690	13.0193	20.3014	0.1634	-0.1888	0.7638	-0.5951
9.03	-0.2275	-9.0293	-2.2108	0.0118	-0.0009	0.0062	-29.9960	12.9163	20.2951	0.1633	-0.1888	0.7638	-0.5952
9.04	-0.2359	-9.0230	-2.2098	0.0078	-0.0032	0.0092	-29.7962	12.9965	20.3232	0.1633	-0.1888	0.7639	-0.5951
9.05	-0.2418	-9.0262	-2.2062	0.0109	-0.0023	0.0130	-29.9760	13.1040	20.2140	0.1633	-0.1888	0.7638	-0.5951
9.06	-0.2476	-9.0238	-2.1982	0.0135	-0.0023	0.0039	-29.9790	13.1279	20.1965	0.1633	-0.1888	0.7639	-0.5952
9.07	-0.2491	-9.0238	-2.1999	0.0169	-0.0059	0.0049	-30.0053	13.0676	20.3634	0.1633	-0.1888	0.7639	-0.5951
9.08	-0.2526	-9.0246	-2.2000	0.0210	-0.0093	0.0097	-29.8861	13.0102	20.3896	0.1633	-0.1889	0.7639	-0.5952
9.09	-0.2514	-9.0290	-2.2014	0.0228	-0.0083	0.0150	-29.7051	13.0411	20.3971	0.1633	-0.1888	0.7638	-0.5951
9.1	-0.2514	-9.0259	-2.2031	0.0171	-0.0062	0.0092	-29.7811	13.0367	20.3837	0.1633	-0.1888	0.7638	-0.5952
9.11	-0.2495	-9.0243	-2.2045	0.0169	0.0000	0.0115	-29.9989	12.8505	20.2379	0.1633	-0.1888	0.7638	-0.5952
9.12	-0.2492	-9.0270	-2.2073	0.0189	-0.0054	0.0074	-29.9059	12.9486	20.1825	0.1633	-0.1888	0.7638	-0.5952
9.13	-0.2425	-9.0227	-2.2083	0.0244	-0.0070	0.0056	-29.8169	12.8445	20.3531	0.1633	-0.1888	0.7638	-0.5953
9.14	-0.2384	-9.0210	-2.2033	0.0236	-0.0069	0.0079	-29.8131	12.7824	20.1129	0.1633	-0.1888	0.7637	-0.5953
9.15	-0.2332	-9.0283	-2.2176	0.0246	-0.0043	0.0097	-30.0411	12.9402	20.2709	0.1633	-0.1888	0.7638	-0.5953
9.16	-0.2343	-9.0250	-2.2152	0.0129	-0.0095	0.0053	-30.0790	13.0105	20.2362	0.1633	-0.1888	0.7637	-0.5953
9.17	-0.2333	-9.0249	-2.2128	0.0224	-0.0073	0.0109	-29.8577	13.1481	20.0928	0.1633	-0.1889	0.7637	-0.5954
9.18	-0.2305	-9.0265	-2.2117	0.0189	-0.0103	0.0119	-29.7852	13.2302	20.4565	0.1633	-0.1888	0.7637	-0.5953
9.19	-0.2287	-9.0251	-2.2034	0.0134	-0.0063	0.0067	-29.9754	13.1107	20.4819	0.1633	-0.1889	0.7637	-0.5954
9.2	-0.2288	-9.0260	-2.2076	0.0134	-0.0063	0.0066	-29.9898	13.1073	20.3761	0.1633	-0.1889	0.7637	-0.5953
9.21	-0.2268	-9.0240	-2.2076	0.0149	-0.0026	0.0040	-29.8848	13.2272	20.3805	0.1633	-0.1889	0.7637	-0.5953
9.22	-0.2282	-9.0273	-2.2063	0.0178	-0.0047	0.0046	-29.7133	13.1564	20.4199	0.1633	-0.1889	0.7637	-0.5954
9.23	-0.2307	-9.0247	-2.2048	0.0198	-0.0002	0.0013	-29.5845	13.0200	20.6493	0.1632	-0.1889	0.7636	-0.5953
9.24	-0.2315	-9.0270	-2.2075	0.0163	-0.0049	0.0058	-29.4802	12.9216	20.9524	0.1632	-0.1889	0.7637	-0.5954
9.25	-0.2341	-9.0241	-2.2054	0.0221	-0.0032	0.0053	-29.8671	12.9293	20.5595	0.1632	-0.1889	0.7636	-0.5954
9.26	-0.2378	-9.0311	-2.2180	0.0218	-0.0095	0.0097	-29.9915	13.3468	20.3770	0.1632	-0.1890	0.7637	-0.5955
9.27	-0.2433	-9.0198	-2.2117	0.0238	-0.0053	0.0133	-29.9216	13.2161	20.1526	0.1632	-0.1889	0.7635	-0.5955
9.28	-0.2468	-9.0247	-2.2191	0.0200	-0.0073	0.0136	-29.9284	12.9797	20.1372	0.1632	-0.1889	0.7636	-0.5955
9.29	-0.2490	-9.0270	-2.2169	0.0167	-0.0142	0.0134	-29.7738	13.0979	20.4145	0.1633	-0.1889	0.7636	-0.5955
9.3	-0.2516	-9.0217	-2.2176	0.0138	-0.0102	0.0122	-29.7629	12.8764	20.2906	0.1633	-0.1889	0.7635	-0.5955
9.31	-0.2514	-9.0206	-2.2196	0.0168	-0.0123	0.0139	-29.7726	13.0350	20.2877	0.1633	-0.1889	0.7636	-0.5955
9.32	-0.2504	-9.0199	-2.2156	0.0212	-0.0062	0.0127	-29.9023	12.9955	20.2991	0.1634	-0.1889	0.7635	-0.5955
9.33	-0.2445	-9.0258	-2.2121	0.0205	-0.0034	0.0093	-29.9457	13.2016	20.2726	0.1634	-0.1889	0.7636	-0.5956
9.34	-0.2466	-9.0260	-2.2141	0.0203	-0.0065	0.0096	-29.9170	13.0673	20.3117	0.1633	-0.1889	0.7635	-0.5955
9.35	-0.2395	-9.0284	-2.2121	0.0117	-0.0051	0.0073	-29.8443	13.0008	20.0191	0.1633	-0.1889	0.7635	-0.5956
9.36	-0.2345	-9.0247	-2.2053	0.0156	-0.0107	0.0106	-29.9891	12.9637	20.1120	0.1634	-0.1889	0.7635	-0.5955
9.37	-0.2324	-9.0243	-2.2067	0.0146	-0.0075	0.0107	-30.0753	12.8789	20.3025	0.1634	-0.1889	0.7635	-0.5955
9.38	-0.2317	-9.0249	-2.2023	0.0163	-0.0051	0.0078	-30.2067	13.0263	20.3766	0.1634	-0.1889	0.7635	-0.5956
9.39	-0.2309	-9.0387	-2.2092	0.0167	-0.0073	0.0052	-29.8913	13.0862	20.4998	0.1634	-0.1889	0.7635	-0.5955
9.4	-0.2309	-9.0277	-2.2074	0.0156	-0.0065	0.0110	-29.8821	13.0879	20.4097	0.1634	-0.1889	0.7635	-0.5956
9.41	-0.2296	-9.0190	-2.2078	0.0233	-0.0051	0.0116	-30.0324	13.0683	20.2768	0.1634	-0.1889	0.7634	-0.5955
9.42	-0.2289	-9.0246	-2.2096	0.0207	-0.0048	0.0115	-29.8948	13.1007	20.1909	0.1634	-0.1889	0.7635	-0.5956
9.43	-0.2305	-9.0259	-2.2121	0.0187	-0.0080	0.0072	-29.9607	13.1862	20.1922	0.1634	-0.1889	0.7634	-0.5956
9.44	-0.2308	-9.0301	-2.2137	0.0221	-0.0032	0.0087	-29.8749	13.1568	20.2104	0.1634	-0.1889	0.7635	-0.5957
9.45	-0.2342	-9.0301	-2.2206	0.0168	-0.0080	0.0113	-30.2226	13.1689	20.1724	0.1634	-0.1889	0.7634	-0.5956
9.46	-0.2361	-9.0277	-2.2179	0.0165	-0.0093	0.0186	-30.2148	13.1397	20.2347	0.1634	-0.1889	0.7634	-0.5956
9.47	-0.2363	-9.0203	-2.2036	0.0214	-0.0058	0.0143	-29.6540	13.0198	20.4757	0.1634	-0.1889	0.7634	-0.5957
9.48	-0.2354	-9.0197	-2.2008	0.0090	-0.0067	0.0158	-29.8448	12.9968	20.1653	0.1634	-0.1888	0.7634	-0.5956
9.49	-0.2376	-9.0392	-2.2141	0.0210	-0.0068	0.0134	-30.0382	12.9055	20.2388	0.1635	-0.1888	0.7635	-0.5957
9.5	-0.2431	-9.0143	-2.1850	0.0172	-0.0084	0.0100	-29.7230	12.9193	20.1371	0.1635	-0.1888	0.7634	-0.5957
9.51	-0.2487	-9.0209	-2.1894	0.0182	-0.0071	0.0158	-29.8662	12.9306	20.1795	0.1635	-0.1888	0.7635	-0.5957
9.52	-0.2529	-9.0359	-2.2005	0.0202	-0.0113	0.0144	-29.7503	12.9044	20.2874	0.1635	-0.1888	0.7634	-0.5956
9.53	-0.2555	-9.0189	-2.1837	0.0200	-0.0065	0.0138	-29.6948	12.9505	20.5804	0.1636	-0.1888	0.7634	-0.5957
9.54	-0.2534	-9.0194	-2.1864	0.0209	-0.0050	0.0117	-30.0041	13.0163	20.4110	0.1636	-0.1888	0.7634	-0.5957
9.55	-0.2518	-9.0313	-2.1948	0.0191	-0.0109	0.0122	-30.0170	12.9921	20.1362	0.1636	-0.1888	0.7633	-0.5957
9.56	-0.2519	-9.0285	-2.1955	0.0122	-0.0051	0.0098	-30.0030	13.0011	20.4332	0.1636	-0.1888	0.7634	-0.5958
9.57	-0.2439	-9.0186	-2.1909	0.0149	-0.0045	0.0068	-30.0336	13.0063	20.4841	0.1636	-0.1888	0.7634	-0.5957
9.58	-0.2419	-9.0237	-2.1951	0.0124	-0.0044	0.0084	-29.9836	13.1802	20.3951	0.1636	-0.1888	0.7634	-0.5957
9.59	-0.2439	-9.0357	-2.2108	0.0138	-0.0071	0.0063	-30.1248	13.0738	20.3584	0.1635	-0.1888	0.7633	-0.5957
9.6	-0.2423	-9.0296	-2.2092	0.0077	-0.0096	0.0072	-30.0343	13.0752	20.3721	0.1636	-0.1888	0.7634	-0.5957
9.61	-0.2476	-9.0090	-2.2109	0.0130	-0.0043	0.0063	-29.9198	13.0901	20.2184	0.1635	-0.1888	0.7634	-0.5957
9.62	-0.2468	-9.0214	-2.2231	0.0115	-0.0059	0.0064	-30.1193	13.0694	20.1671	0.1635	-0.1889	0.7634	-0.5957
9.63	-0.2489	-9.0238	-2.2302	0.0163	-0.0002	0.0059	-29.9927	13.0962	20.4032	0.1635	-0.1889	0.7634	-0.5957
9.64	-0.2517	-9.0212	-2.2257	0.0152	-0.0081	0.0097	-30.1422	13.1737	20.3384	0.1635	-0.1889	0.7634	-0.5957
9.65	-0.2484	-9.0306	-2.2341	0.0215	-0.0062	0.0070	-30.0008	12.9636	20.2126	0.1635	-0.1889	0.7634	-0.5957
9.66	-0.2484	-9.0270	-2.2263	0.0142	-0.0129	0.0073	-29.6603	12.7498	20.2003	0.1635	-0.1889	0.7633	-0.5957
9.67	-0.2460	-9.0217	-2.2147	0.0183	-0.0062	0.0156	-29.7059	12.7579	20.3439	0.1635	-0.1889	0.7634	-0.5957
9.68	-0.2442	-9.0188	-2.2177	0.0236	-0.0074	0.0094	-29.8098	12.9217	20.2349	0.1635	-0.1889	0.7633	-0.5957
9.69	-0.2444	-9.0287	-2.2124	0.0107	-0.0077	0.0059	-29.9421	12.9072	20.1885	0.1635	-0.1889	0.7634	-0.5957
9.7	-0.2437	-9.0268	-2.2083	0.0179	-0.0106	0.0081	-29.8354	12.9475	20.2944	0.1635	-0.1889	0.7633	-0.5957
9.71	-0.2404	-9.0250	-2.2131	0.0183	-0.0090	0.0068	-29.8703	12.8685	20.3267	0.1636	-0.1889	0.7633	-0.5957
9.72	-0.2313	-9.0251	-2.2025	0.0173	-0.0045	0.0066	-29.7781	13.0611	20.4009	0.1636	-0.1889	0.7633	-0.5958
9.73	-0.2278	-9.0244	-2.2059	0.0162	-0.0079	0.0122	-29.5167	13.0385	20.3664	0.1635	-0.1889	0.7632	-0.5957
9.74	-0.2225	-9.0216	-2.2014	0.0137	-0.0098	0.0144	-29.4392	12.7825	20.5734	0.1636	-0.1889	0.7633	-0.5958
9.75	-0.2209	-9.0249	-2.1984	0.0028	-0.0068	0.0067	-29.8236	12.9908	20.5077	0.1636	-0.1889	0.7633	-0.5957
9.76	-0.2136	-9.0370	-2.2077	0.0114	-0.0072	0.0073	-30.0069	13.2391	20.3378	0.1636	-0.1890	0.7634	-0.5957
9.77	-0.2127	-9.0257	-2.2085	0.0192	-0.0038	0.0076	-29.9993	13.2606	20.2740	0.1635	-0.1890	0.7633	-0.5957
9.78	-0.2106	-9.0233	-2.2070	0.0068	-0.0015	0.0024	-29.8367	12.9318	20.1187	0.1635	-0.1890	0.7634	-0.5957
9.79	-0.2108	-9.0301	-2.2188	0.0191	-0.0058	0.0039	-29.8420	12.9236	20.3548	0.1635	-0.1890	0.7633	-0.5957
9.8	-0.2131	-9.0306	-2.2248	0.0184	-0.0036	0.0083	-29.9902	12.9912	20.2725	0.1635	-0.1890	0.7633	-0.5957
9.81	-0.2164	-9.0211	-2.2162	0.0170	-0.0060	0.0077	-29.9774	13.1156	20.3025	0.1635	-0.1890	0.7634	-0.5958
9.82	-0.2232	-9.0209	-2.2142	0.0178	-0.0038	0.0090	-29.9757	13.0692	20.4523	0.1635	-0.1890	0.7633	-0.5957
9.83	-0.2353	-9.0289	-2.2165	0.0211	-0.0123	0.0104	-30.0036	12.9122	20.1289	0.1635	-0.1890	0.7633	-0.5958
9.84	-0.2466	-9.0230	-2.2100	0.0153	-0.0089	0.0141	-29.8091	13.0233	20.3151	0.1635	-0.1890	0.7632	-0.5957
9.85	-0.2518	-9.0266	-2.2130	0.0105	-0.0029	0.0148	-29.8184	12.9984	20.2566	0.1635	-0.1890	0.7633	-0.5957
9.86	-0.2623	-9.0214	-2.2048	0.0167	-0.0053	0.0079	-29.7969	12.9022	20.1313	0.1635	-0.1890	0.7633	-0.5957
9.87	-0.2642	-9.0260	-2.2029	0.0145	-0.0050	0.0069	-29.8799	12.9504	20.0915	0.1635	-0.1890	0.7633	-0.5957
9.88	-0.2650	-9.0192	-2.1993	0.0166	-0.0078	0.0086	-29.9031	12.9093	20.1128	0.1635	-0.1890	0.7633	-0.5958
9.89	-0.2644	-9.0270	-2.1989	0.0207	-0.0032	0.0067	-30.0121	12.9640	20.2229	0.1635	-0.1890	0.7633	-0.5958
9.9	-0.2586	-9.0299	-2.1992	0.0131	-0.0112	0.0112	-29.9067	13.0341	20.1524	0.1635	-0.1890	0.7633	-0.5958
9.91	-0.2571	-9.0231	-2.2009	0.0195	-0.0058	0.0089	-29.8934	12.9349	20.3057	0.1635	-0.1890	0.7632	-0.5957
9.92	-0.2565	-9.0231	-2.2016	0.0195	-0.0048	0.0107	-29.8924	12.8100	20.1358	0.1635	-0.1890	0.7633	-0.5958
9.93	-0.2546	-9.0235	-2.2043	0.0179	-0.0067	0.0100	-29.7524	12.9084	20.1585	0.1635	-0.1890	0.7632	-0.5958
9.94	-0.2523	-9.0331	-2.2153	0.0216	-0.0059	0.0069	-29.9572	12.9201	20.4237	0.1635	-0.1890	0.7633	-0.5958
9.95	-0.2516	-9.0220	-2.2081	0.0181	-0.0079	0.0092	-30.0785	13.0221	20.2186	0.1635	-0.1890	0.7632	-0.5958
9.96	-0.2497	-9.0232	-2.2106	0.0125	-0.0057	0.0053	-29.9236	12.9783	20.4728	0.1635	-0.1890	0.7632	-0.5958
9.97	-0.2512	-9.0226	-2.2114	0.0161	-0.0033	0.0049	-29.9023	12.9139	20.3508	0.1635	-0.1890	0.7632	-0.5959
9.98	-0.2462	-9.0236	-2.2102	0.0155	-0.0061	0.0057	-29.8840	12.9365	20.1678	0.1635	-0.1890	0.7632	-0.5958
9.99	-0.2446	-9.0212	-2.2012	0.0204	-0.0031	0.0055	-29.9135	12.9351	20.2883	0.1635	-0.1891	0.7632	-0.5959
10	-0.2467	-9.0323	-2.2084	0.0060	-0.0064	0.0088	-30.0083	13.1891	20.1476	0.1634	-0.1891	0.7632	-0.5958
10.01	-0.2432	-9.0280	-2.2045	0.0193	-0.0055	0.0088	-29.9129	12.8863	20.2215	0.1635	-0.1891	0.7633	-0.5959
10.02	-0.2370	-9.0230	-2.2005	0.0240	-0.0073	0.0124	-29.8714	12.7292	20.0938	0.1635	-0.1890	0.7631	-0.5959
10.03	-0.2346	-9.0290	-2.2014	0.0146	-0.0008	0.0157	-29.8203	12.9085	20.2285	0.1635	-0.1890	0.7632	-0.5959
10.04	-0.2351	-9.0256	-2.1913	0.0219	-0.0078	0.0115	-29.7603	13.1038	19.9674	0.1635	-0.1890	0.7632	-0.5959
10.05	-0.2383	-9.0255	-2.1986	0.0146	-0.0063	0.0081	-29.7075	13.1002	20.1829	0.1635	-0.1890	0.7631	-0.5959
10.06	-0.2390	-9.0212	-2.1895	0.0112	-0.0053	0.0107	-29.9317	13.0157	20.1942	0.1635	-0.1890	0.7632	-0.5959
10.07	-0.2423	-9.0313	-2.2017	0.0112	-0.0064	0.0096	-30.1406	12.8490	20.1971	0.1635	-0.1890	0.7632	-0.5959
10.08	-0.2435	-9.0284	-2.2051	0.0144	-0.0058	0.0118	-30.0681	12.8935	20.1624	0.1635	-0.1890	0.7632	-0.5959
10.09	-0.2450	-9.0244	-2.2130	0.0271	-0.0053	0.0063	-30.0683	13.0116	20.3048	0.1635	-0.1890	0.7631	-0.5959
10.1	-0.2357	-9.0254	-2.2166	0.0158	-0.0015	0.0087	-29.9123	12.9289	20.1186	0.1635	-0.1890	0.7632	-0.5959
10.11	-0.2335	-9.0259	-2.2154	0.0174	-0.0038	0.0109	-29.7808	12.8956	20.1700	0.1634	-0.1890	0.7632	-0.5959
10.12	-0.2254	-9.0244	-2.2185	0.0226	-0.0086	0.0093	-29.8279	12.8192	20.1442	0.1635	-0.1890	0.7631	-0.5960
10.13	-0.2229	-9.0275	-2.2191	0.0183	-0.0045	0.0049	-29.8058	12.9497	19.9914	0.1635	-0.1890	0.7631	-0.5960
10.14	-0.2207	-9.0339	-2.2238	0.0189	-0.0086	0.0071	-30.0473	12.9322	20.2762	0.1635	-0.1890	0.7631	-0.5960
10.15	-0.2163	-9.0254	-2.2177	0.0188	0.0037	0.0087	-30.0690	13.1044	20.2643	0.1634	-0.1890	0.7631	-0.5960
10.16	-0.2196	-9.0201	-2.2141	0.0166	-0.0045	0.0090	-29.9845	13.0792	20.2659	0.1634	-0.1890	0.7630	-0.5960
10.17	-0.2252	-9.0260	-2.2213	0.0232	0.0021	0.0087	-29.8690	13.1139	20.2862	0.1634	-0.1890	0.7631	-0.5961
10.18	-0.2294	-9.0283	-2.2169	0.0185	0.0046	0.0084	-29.7855	12.9155	20.2541	0.1633	-0.1889	0.7631	-0.5961
10.19	-0.2282	-9.0257	-2.2129	0.0221	-0.0029	0.0048	-29.8999	13.0368	20.3810	0.1633	-0.1889	0.7631	-0.5961
10.2	-0.2344	-9.0285	-2.2153	0.0182	-0.0063	0.0094	-29.8873	12.8138	20.2595	0.1633	-0.1889	0.7630	-0.5961
10.21	-0.2369	-9.0355	-2.2170	0.0118	-0.0088	0.0093	-30.0269	12.7820	20.2058	0.1633	-0.1889	0.7631	-0.5961
10.22	-0.2440	-9.0213	-2.2122	0.0172	-0.0054	0.0088	-29.8615	13.0394	20.3143	0.1633	-0.1890	0.7631	-0.5961
10.23	-0.2467	-9.0215	-2.1995	0.0219	-0.0021	0.0106	-29.4158	13.0192	20.2616	0.1633	-0.1889	0.7630	-0.5961
10.24	-0.2478	-9.0274	-2.2014	0.0220	-0.0004	0.0129	-29.0981	12.9142	20.3824	0.1633	-0.1889	0.7631	-0.5962
10.25	-0.2552	-9.0252	-2.1923	0.0204	-0.0068	0.0119	-29.7182	13.0858	20.3240	0.1633	-0.1889	0.7630	-0.5962
10.26	-0.2554	-9.0274	-2.1989	0.0236	-0.0074	0.0108	-29.9710	13.1740	20.2463	0.1634	-0.1889	0.7630	-0.5963
10.27	-0.2565	-9.0246	-2.2015	0.0198	-0.0093	0.0083	-29.8354	13.1641	20.3167	0.1634	-0.1889	0.7629	-0.5962
10.28	-0.2581	-9.0281	-2.2025	0.0219	-0.0031	0.0072	-29.9382	13.0452	20.1248	0.1634	-0.1889	0.7630	-0.5963
10.29	-0.2596	-9.0215	-2.2041	0.0166	-0.0093	0.0117	-29.9330	12.8152	20.2025	0.1634	-0.1889	0.7629	-0.5963
10.3	-0.2545	-9.0243	-2.1984	0.0173	-0.0095	0.0114	-29.8248	12.9202	20.1309	0.1634	-0.1889	0.7629	-0.5963
10.31	-0.2590	-9.0258	-2.2012	0.0182	-0.0109	0.0074	-29.9483	12.9267	20.1250	0.1634	-0.1889	0.7630	-0.5963
10.32	-0.2586	-9.0255	-2.2140	0.0207	-0.0040	0.0073	-30.1327	13.0530	20.3630	0.1634	-0.1889	0.7629	-0.5963
10.33	-0.2549	-9.0176	-2.2029	0.0227	0.0002	0.0050	-30.0496	13.1069	20.1975	0.1634	-0.1889	0.7629	-0.5964
10.34	-0.2509	-9.0232	-2.2092	0.0169	-0.0064	0.0104	-30.1012	13.0568	20.1931	0.1634	-0.1889	0.7628	-0.5963
10.35	-0.2437	-9.0271	-2.2144	0.0199	-0.0069	0.0113	-30.1603	13.1142	20.3257	0.1634	-0.1889	0.7629	-0.5964
10.36	-0.2421	-9.0193	-2.2093	0.0269	-0.0073	0.0069	-29.8876	13.1738	20.3908	0.1634	-0.1889	0.7628	-0.5964
10.37	-0.2429	-9.0144	-2.2023	0.0191	-0.0053	0.0060	-30.0280	13.1788	20.3685	0.1634	-0.1889	0.7628	-0.5964
10.38	-0.2456	-9.0255	-2.2099	0.0216	-0.0074	0.0059	-29.8936	13.0505	20.3872	0.1634	-0.1889	0.7628	-0.5965
10.39	-0.2436	-9.0298	-2.2062	0.0202	-0.0091	0.0090	-30.0997	13.1350	20.2405	0.1634	-0.1889	0.7628	-0.5965
10.4	-0.2428	-9.0202	-2.2007	0.0210	-0.0136	0.0150	-30.1622	12.9410	20.3755	0.1635	-0.1889	0.7628	-0.5965
10.41	-0.2386	-9.0258	-2.2079	0.0190	-0.0066	0.0083	-29.9022	12.9273	20.3827	0.1634	-0.1889	0.7627	-0.5965
10.42	-0.2334	-9.0286	-2.2175	0.0221	-0.0075	0.0055	-29.8307	12.7761	20.4088	0.1635	-0.1889	0.7627	-0.5966
10.43	-0.2341	-9.0169	-2.2092	0.0191	-0.0058	0.0078	-29.5739	12.8348	20.1883	0.1634	-0.1889	0.7627	-0.5965
10.44	-0.2377	-9.0279	-2.2153	0.0213	-0.0070	0.0116	-29.9156	12.9601	20.1024	0.1635	-0.1889	0.7627	-0.5966
10.45	-0.2345	-9.0288	-2.2182	0.0205	-0.0055	0.0130	-29.9207	12.9038	20.1204	0.1635	-0.1889	0.7626	-0.5966
10.46	-0.2390	-9.0202	-2.2140	0.0143	-0.0072	0.0095	-29.8265	12.8085	20.2765	0.1635	-0.1889	0.7627	-0.5966
10.47	-0.2383	-9.0258	-2.2141	0.0221	-0.0064	0.0108	-30.0020	12.9279	20.2644	0.1635	-0.1889	0.7627	-0.5966
10.48	-0.2395	-9.0242	-2.2185	0.0155	-0.0084	0.0076	-29.7179	13.1227	20.1514	0.1635	-0.1889	0.7626	-0.5966
10.49	-0.2399	-9.0261	-2.2237	0.0242	-0.0142	0.0144	-29.8097	13.0580	20.3660	0.1636	-0.1889	0.7627	-0.5967
10.5	-0.2355	-9.0258	-2.2172	0.0187	-0.0077	0.0139	-30.0877	13.1082	20.3268	0.1636	-0.1889	0.7626	-0.5966
10.51	-0.2317	-9.0244	-2.2119	0.0162	-0.0018	0.0132	-29.8903	12.9954	20.2882	0.1636	-0.1889	0.7627	-0.5967
10.52	-0.2247	-9.0210	-2.2070	0.0226	-0.0051	0.0058	-30.0219	13.0767	20.2928	0.1636	-0.1889	0.7626	-0.5966
10.53	-0.2214	-9.0338	-2.2226	0.0165	-0.0034	0.0080	-29.9730	13.1986	20.1878	0.1635	-0.1889	0.7626	-0.5967
10.54	-0.2200	-9.0189	-2.1998	0.0187	-0.0064	0.0064	-30.0386	13.1262	20.1911	0.1635	-0.1889	0.7626	-0.5967
10.55	-0.2216	-9.0260	-2.2092	0.0248	-0.0071	0.0066	-29.8877	13.2705	20.2846	0.1635	-0.1889	0.7625	-0.5967
10.56	-0.2220	-9.0299	-2.2094	0.0239	-0.0035	0.0069	-30.0626	13.1337	20.1909	0.1635	-0.1889	0.7626	-0.5968
10.57	-0.2228	-9.0267	-2.2126	0.0237	-0.0056	0.0127	-30.1458	12.9508	20.3687	0.1635	-0.1889	0.7625	-0.5968
10.58	-0.2274	-9.0249	-2.2198	0.0227	-0.0053	0.0159	-30.0768	13.2671	20.3198	0.1636	-0.1889	0.7625	-0.5969
10.59	-0.2308	-9.0311	-2.2272	0.0218	-0.0116	0.0135	-30.0080	13.1716	20.2638	0.1636	-0.1888	0.7624	-0.5968
10.6	-0.2327	-9.0221	-2.2192	0.0257	-0.0064	0.0112	-29.8056	12.8538	20.3222	0.1636	-0.1888	0.7625	-0.5969
10.61	-0.2377	-9.0167	-2.2048	0.0246	-0.0061	0.0147	-29.8415	12.9902	20.4419	0.1636	-0.1888	0.7624	-0.5969
10.62	-0.2412	-9.0262	-2.2145	0.0228	0.0001	0.0054	-29.9176	13.0136	20.2103	0.1636	-0.1888	0.7624	-0.5969
10.63	-0.2467	-9.0256	-2.2073	0.0236	-0.0040	0.0061	-29.8265	12.9976	20.2103	0.1636	-0.1888	0.7624	-0.5970
10.64	-0.2584	-9.0234	-2.2051	0.0236	-0.0061	0.0094	-29.7409	13.0228	20.2061	0.1636	-0.1888	0.7623	-0.5970
10.65	-0.2663	-9.0219	-2.2002	0.0234	-0.0085	0.0095	-29.7542	13.1359	20.2268	0.1636	-0.1888	0.7623	-0.5971
10.66	-0.2648	-9.0228	-2.2015	0.0207	-0.0091	0.0137	-29.8360	12.9683	20.1029	0.1636	-0.1888	0.7622	-0.5970
10.67	-0.2681	-9.0190	-2.1922	0.0239	-0.0061	0.0067	-29.8347	13.0574	20.2499	0.1637	-0.1888	0.7623	-0.5971
10.68	-0.2707	-9.0232	-2.1949	0.0254	-0.0083	0.0093	-29.8742	13.0339	20.2922	0.1637	-0.1888	0.7622	-0.5971
10.69	-0.2660	-9.0313	-2.1941	0.0259	-0.0112	0.0114	-29.9567	12.7874	20.3648	0.1637	-0.1888	0.7622	-0.5972
10.7	-0.2610	-9.0273	-2.1988	0.0220	-0.0030	0.0101	-29.8168	13.0378	20.4150	0.1637	-0.1888	0.7622	-0.5972
10.71	-0.2523	-9.0191	-2.1918	0.0187	-0.0032	0.0046	-29.9842	13.1045	20.0950	0.1637	-0.1888	0.7622	-0.5972
10.72	-0.2485	-9.0250	-2.1998	0.0212	-0.0035	0.0078	-29.7839	13.0524	20.2141	0.1637	-0.1888	0.7622	-0.5972
10.73	-0.2454	-9.0207	-2.1960	0.0213	0.0006	0.0078	-29.4396	13.2545	20.4865	0.1636	-0.1887	0.7621	-0.5972
10.74	-0.2442	-9.0203	-2.1975	0.0215	-0.0014	0.0111	-29.2344	13.3401	20.5514	0.1637	-0.1887	0.7622	-0.5973
10.75	-0.2401	-9.0224	-2.2029	0.0158	-0.0029	0.0036	-29.7256	13.2921	20.3702	0.1636	-0.1887	0.7621	-0.5973
10.76	-0.2379	-9.0305	-2.2036	0.0148	-0.0002	0.0044	-29.9302	13.4805	20.1982	0.1636	-0.1888	0.7622	-0.5973
10.77	-0.2376	-9.0258	-2.2048	0.0197	-0.0064	0.0069	-30.0109	13.2374	20.0769	0.1636	-0.1887	0.7621	-0.5973
10.78	-0.2394	-9.0220	-2.2095	0.0251	-0.0043	0.0090	-29.8493	13.0646	20.3041	0.1636	-0.1887	0.7621	-0.5974
10.79	-0.2372	-9.0300	-2.2120	0.0184	-0.0067	0.0144	-29.8602	12.9737	20.2411	0.1636	-0.1887	0.7621	-0.5974
10.8	-0.2394	-9.0302	-2.2133	0.0218	-0.0083	0.0131	-29.9348	13.1450	20.2677	0.1636	-0.1887	0.7620	-0.5973
10.81	-0.2367	-9.0285	-2.2163	0.0229	-0.0081	0.0102	-29.8083	12.8595	20.4291	0.1637	-0.1887	0.7621	-0.5974
10.82	-0.2345	-9.0221	-2.2125	0.0209	-0.0022	0.0074	-29.8417	13.0617	20.2444	0.1636	-0.1887	0.7620	-0.5974
10.83	-0.2354	-9.0261	-2.2150	0.0216	-0.0050	0.0089	-29.8295	13.0049	20.3976	0.1636	-0.1887	0.7621	-0.5975
10.84	-0.2363	-9.0263	-2.2114	0.0265	-0.0067	0.0096	-29.8329	12.8901	20.3902	0.1636	-0.1887	0.7619	-0.5974
10.85	-0.2302	-9.0264	-2.2125	0.0229	-0.0060	0.0076	-29.8350	13.2805	20.2833	0.1636	-0.1887	0.7620	-0.5975
10.86	-0.2299	-9.0194	-2.2107	0.0165	-0.0073	0.0112	-29.8183	12.9493	20.2958	0.1636	-0.1887	0.7620	-0.5975
10.87	-0.2347	-9.0257	-2.2158	0.0211	-0.0049	0.0086	-29.8849	13.2086	20.0845	0.1636	-0.1887	0.7619	-0.5975
10.88	-0.2334	-9.0261	-2.2193	0.0189	-0.0006	0.0072	-30.0182	13.0609	20.3476	0.1636	-0.1887	0.7620	-0.5976
10.89	-0.2367	-9.0244	-2.2146	0.0208	0.0030	0.0100	-30.0792	13.0268	20.3741	0.1636	-0.1886	0.7619	-0.5976
10.9	-0.2389	-9.0277	-2.2094	0.0224	0.0009	0.0064	-29.8902	13.1289	20.4620	0.1636	-0.1886	0.7619	-0.5976
10.91	-0.2331	-9.0217	-2.2089	0.0208	0.0000	0.0072	-29.9965	13.0771	20.4084	0.1635	-0.1886	0.7618	-0.5976
10.92	-0.2318	-9.0169	-2.2048	0.0208	-0.0016	0.0054	-30.0711	13.1071	20.2516	0.1635	-0.1886	0.7619	-0.5977
10.93	-0.2291	-9.0232	-2.1962	0.0231	-0.0035	0.0081	-30.0925	13.2311	20.3582	0.1635	-0.1886	0.7619	-0.5977
10.94	-0.2275	-9.0303	-2.2026	0.0180	0.0003	0.0041	-29.9920	13.0352	20.4126	0.1635	-0.1886	0.7619	-0.5977
10.95	-0.2298	-9.0279	-2.2031	0.0194	-0.0076	0.0079	-30.0029	12.9218	20.2860	0.1635	-0.1886	0.7618	-0.5977
10.96	-0.2354	-9.0220	-2.1915	0.0204	-0.0031	0.0117	-29.9510	12.9284	20.4490	0.1635	-0.1886	0.7618	-0.5977
10.97	-0.2397	-9.0262	-2.1959	0.0213	-0.0066	0.0104	-29.7433	12.7787	20.1231	0.1635	-0.1886	0.7618	-0.5978
10.98	-0.2390	-9.0223	-2.1935	0.0218	-0.0069	0.0100	-29.6638	12.7670	20.3106	0.1635	-0.1886	0.7618	-0.5977
10.99	-0.2458	-9.0211	-2.1930	0.0235	-0.0037	0.0090	-29.7665	12.8837	20.3069	0.1635	-0.1886	0.7618	-0.5978
11	-0.2502	-9.0268	-2.1988	0.0207	-0.0082	0.0062	-29.8555	13.1049	20.1903	0.1635	-0.1886	0.7618	-0.5978
11.01	-0.2497	-9.0280	-2.2009	0.0244	-0.0075	0.0084	-29.7945	13.0622	20.2258	0.1635	-0.1886	0.7618	-0.5979
11.02	-0.2518	-9.0209	-2.1950	0.0215	-0.0068	0.0116	-29.9236	12.8220	20.3068	0.1635	-0.1886	0.7617	-0.5978
11.03	-0.2507	-9.0218	-2.2019	0.0234	-0.0062	0.0099	-30.1048	12.9809	20.3109	0.1635	-0.1886	0.7617	-0.5979
11.04	-0.2485	-9.0224	-2.1984	0.0201	-0.0073	0.0076	-29.8764	13.0037	20.2959	0.1635	-0.1886	0.7617	-0.5979
11.05	-0.2495	-9.0287	-2.2036	0.0231	-0.0082	0.0119	-30.0006	12.8016	20.3250	0.1636	-0.1886	0.7616	-0.5979
11.06	-0.2499	-9.0321	-2.2203	0.0219	-0.0031	0.0076	-29.9640	13.0006	20.1983	0.1636	-0.1886	0.7617	-0.5980
11.07	-0.2513	-9.0127	-2.2022	0.0160	-0.0018	0.0059	-30.0383	13.0779	20.2299	0.1635	-0.1886	0.7616	-0.5980
11.08	-0.2495	-9.0269	-2.2155	0.0198	-0.0033	0.0086	-30.0366	12.8142	20.1819	0.1635	-0.1886	0.7617	-0.5980
11.09	-0.2451	-9.0243	-2.2205	0.0235	-0.0011	0.0091	-29.8933	13.2649	20.4010	0.1635	-0.1885	0.7616	-0.5980
11.1	-0.2432	-9.0135	-2.2110	0.0165	-0.0021	0.0054	-29.9214	13.0906	20.4830	0.1635	-0.1886	0.7616	-0.5981
11.11	-0.2396	-9.0236	-2.2143	0.0186	-0.0007	0.0055	-29.9202	12.8850	20.3239	0.1635	-0.1885	0.7616	-0.5981
11.12	-0.2374	-9.0302	-2.2227	0.0220	-0.0019	0.0074	-30.1039	12.9601	20.2716	0.1634	-0.1885	0.7616	-0.5981
11.13	-0.2322	-9.0236	-2.2106	0.0219	0.0008	0.0078	-29.9606	12.8386	20.4429	0.1634	-0.1885	0.7616	-0.5981
11.14	-0.2354	-9.0249	-2.2154	0.0182	0.0014	0.0086	-29.9176	13.0934	20.3188	0.1634	-0.1885	0.7616	-0.5981
11.15	-0.2353	-9.0348	-2.2217	0.0238	-0.0093	0.0068	-29.8567	12.9219	20.1745	0.1634	-0.1885	0.7616	-0.5982
11.16	-0.2329	-9.0222	-2.2140	0.0252	-0.0082	0.0115	-29.8055	13.0085	20.3223	0.1634	-0.1885	0.7615	-0.5981
11.17	-0.2348	-9.0180	-2.2128	0.0172	-0.0063	0.0094	-29.9410	13.1363	20.3067	0.1634	-0.1885	0.7616	-0.5982
11.18	-0.2343	-9.0306	-2.2153	0.0218	-0.0071	0.0084	-29.8767	13.0402	20.4456	0.1634	-0.1885	0.7615	-0.5982
11.19	-0.2375	-9.0284	-2.2116	0.0245	-0.0057	0.0095	-29.7340	13.0197	20.2645	0.1634	-0.1885	0.7615	-0.5983
11.2	-0.2395	-9.0159	-2.2050	0.0205	-0.0087	0.0128	-29.8334	13.0136	20.0814	0.1635	-0.1885	0.7615	-0.5982
11.21	-0.2436	-9.0244	-2.2088	0.0202	-0.0075	0.0086	-29.9325	12.9264	20.2184	0.1635	-0.1885	0.7615	-0.5983
11.22	-0.2407	-9.0250	-2.2022	0.0222	-0.0075	0.0070	-29.8763	13.0990	20.5260	0.1635	-0.1885	0.7615	-0.5983
11.23	-0.2453	-9.0195	-2.1940	0.0208	-0.0020	0.0047	-29.6850	13.1653	20.3670	0.1634	-0.1885	0.7614	-0.5983
11.24	-0.2450	-9.0253	-2.1953	0.0255	-0.0064	0.0168	-29.4545	13.3022	20.5846	0.1635	-0.1885	0.7614	-0.5984
11.25	-0.2430	-9.0290	-2.1937	0.0224	-0.0032	0.0074	-29.7513	13.2057	20.3226	0.1635	-0.1885	0.7614	-0.5984
11.26	-0.2480	-9.0270	-2.1873	0.0238	0.0027	0.0088	-30.0313	13.3257	20.0116	0.1635	-0.1885	0.7614	-0.5985
11.27	-0.2426	-9.0193	-2.1883	0.0239	-0.0019	0.0116	-29.9989	13.2201	20.3092	0.1634	-0.1884	0.7613	-0.5984
11.28	-0.2435	-9.0242	-2.1891	0.0190	-0.0037	0.0089	-30.1411	13.0583	20.3329	0.1634	-0.1884	0.7614	-0.5985
11.29	-0.2449	-9.0253	-2.1974	0.0187	-0.0032	0.0104	-30.0076	13.2048	20.4518	0.1634	-0.1884	0.7613	-0.5985
