time	acceleration_x	acceleration_y	acceleration_z	gyroscope_x	gyroscope_y	gyroscope_z	magnetometer_x	magnetometer_y	magnetometer_z	quaternion_w	quaternion_x	quaternion_y	quaternion_z
0	-9.6136	-0.2145	-1.3205	-0.0011	-0.0163	0.0123	39.6926	1.1191	8.7569	0.6496	0.1456	0.7350	-0.1288
0.01	-9.7325	-0.2154	-1.4457	-0.0020	-0.0170	0.0108	39.5732	1.2592	8.7306	0.6497	0.1456	0.7351	-0.1288
0.02	-9.7056	-0.1719	-1.4373	0.0078	-0.0261	0.0130	39.4959	1.2114	8.7004	0.6496	0.1456	0.7350	-0.1288
0.03	-9.6796	-0.1227	-1.3824	0.0032	-0.0279	0.0148	39.7639	1.2868	8.6423	0.6497	0.1456	0.7350	-0.1288
0.04	-9.7110	-0.0699	-1.3862	0.0052	-0.0234	0.0132	39.6789	1.4180	8.9674	0.6496	0.1455	0.7349	-0.1288
0.05	-9.6859	-0.0146	-1.3277	0.0039	-0.0274	0.0160	39.3499	1.4771	8.8225	0.6497	0.1456	0.7350	-0.1288
0.06	-9.6850	0.0145	-1.2679	0.0005	-0.0302	0.0158	39.6822	1.4977	8.7061	0.6497	0.1456	0.7349	-0.1287
0.07	-9.6487	0.0504	-1.1917	0.0020	-0.0324	0.0114	39.5952	1.4177	8.6770	0.6498	0.1455	0.7349	-0.1287
0.08	-9.6707	0.0660	-1.1546	0.0105	-0.0319	0.0151	39.6106	1.2183	8.5245	0.6498	0.1455	0.7348	-0.1288
0.09	-9.6685	0.0625	-1.1304	0.0111	-0.0316	0.0157	39.8047	1.2250	8.5843	0.6498	0.1456	0.7348	-0.1288
0.1	-9.6589	0.0628	-1.1220	0.0069	-0.0264	0.0159	39.5268	1.2953	8.5454	0.6499	0.1456	0.7348	-0.1288
0.11	-9.6637	0.0364	-1.1239	0.0015	-0.0261	0.0169	39.4927	1.3164	8.9463	0.6498	0.1456	0.7347	-0.1288
0.12	-9.6685	0.0170	-1.1044	-0.0014	-0.0341	0.0175	39.6198	1.3269	8.9622	0.6500	0.1456	0.7347	-0.1287
0.13	-9.6727	-0.0082	-1.0769	0.0015	-0.0248	0.0145	40.0019	1.2816	8.6130	0.6500	0.1455	0.7347	-0.1287
0.14	-9.6620	-0.0199	-1.0569	0.0015	-0.0220	0.0148	39.9305	1.2259	8.6923	0.6500	0.1455	0.7347	-0.1287
0.15	-9.6644	-0.0292	-1.0341	-0.0032	-0.0185	0.0145	39.7656	1.2248	8.6149	0.6500	0.1455	0.7347	-0.1287
0.16	-9.6617	-0.0190	-1.0292	-0.0017	-0.0186	0.0152	39.6141	1.2954	8.5354	0.6500	0.1455	0.7347	-0.1286
0.17	-9.6582	-0.0095	-1.0408	0.0041	-0.0218	0.0153	39.6426	1.1219	8.7251	0.6500	0.1455	0.7347	-0.1286
0.18	-9.6521	0.0211	-1.0457	0.0106	-0.0278	0.0157	39.6263	1.0482	8.6258	0.6500	0.1455	0.7346	-0.1286
0.19	-9.6584	0.0745	-1.0523	0.0106	-0.0235	0.0145	39.6675	1.1975	8.6245	0.6501	0.1456	0.7347	-0.1287
0.2	-9.6431	0.1019	-1.0634	-0.0006	-0.0130	0.0118	39.5554	1.2693	8.7521	0.6500	0.1455	0.7347	-0.1286
0.21	-9.6567	0.1319	-1.0928	0.0010	-0.0186	0.0197	39.4348	1.1679	8.6186	0.6500	0.1456	0.7348	-0.1286
0.22	-9.6751	0.1614	-1.1009	0.0033	-0.0151	0.0167	39.5771	1.1545	8.6270	0.6499	0.1455	0.7347	-0.1286
0.23	-9.6651	0.1511	-1.1222	0.0041	-0.0111	0.0106	39.5560	1.1615	8.4919	0.6499	0.1455	0.7348	-0.1286
0.24	-9.6638	0.1507	-1.1316	-0.0055	-0.0084	0.0118	39.3655	1.1705	8.7913	0.6499	0.1455	0.7348	-0.1285
0.25	-9.6667	0.1490	-1.1412	-0.0015	-0.0065	0.0075	39.2253	1.4084	8.6461	0.6498	0.1455	0.7348	-0.1285
0.26	-9.6732	0.1388	-1.1667	-0.0047	-0.0078	0.0121	39.2269	1.3989	8.4748	0.6499	0.1455	0.7350	-0.1285
0.27	-9.6685	0.1303	-1.1979	0.0040	-0.0108	0.0062	39.5414	1.4100	8.4341	0.6498	0.1454	0.7349	-0.1285
0.28	-9.6808	0.0963	-1.2391	0.0002	-0.0067	0.0092	39.5002	1.4014	8.6843	0.6498	0.1454	0.7350	-0.1285
0.29	-9.6711	0.0832	-1.2667	-0.0012	-0.0079	0.0089	39.4094	1.4175	8.7015	0.6496	0.1454	0.7350	-0.1284
0.3	-9.6765	0.0462	-1.2959	0.0027	-0.0119	0.0076	39.3219	1.2733	8.8156	0.6496	0.1454	0.7351	-0.1285
0.31	-9.6709	0.0009	-1.3177	0.0016	-0.0164	0.0078	39.4351	1.2392	8.5667	0.6496	0.1453	0.7351	-0.1285
0.32	-9.6946	-0.0118	-1.3628	0.0009	-0.0120	0.0110	39.6759	1.1929	8.5248	0.6496	0.1453	0.7351	-0.1284
0.33	-9.6952	-0.0358	-1.3805	0.0079	-0.0163	0.0093	39.5583	1.0456	8.5275	0.6496	0.1453	0.7352	-0.1285
0.34	-9.6901	-0.0602	-1.3758	0.0063	-0.0243	0.0092	39.7420	1.1153	8.7069	0.6496	0.1453	0.7351	-0.1285
0.35	-9.6850	-0.0763	-1.3805	0.0054	-0.0215	0.0099	39.5765	1.2210	8.6427	0.6496	0.1453	0.7352	-0.1285
0.36	-9.6982	-0.0846	-1.3849	0.0167	-0.0255	0.0084	39.7518	1.2817	8.6238	0.6495	0.1453	0.7351	-0.1285
0.37	-9.6926	-0.0897	-1.3752	0.0169	-0.0233	0.0111	39.5013	1.0884	8.5938	0.6496	0.1453	0.7351	-0.1286
0.38	-9.6933	-0.0890	-1.3813	0.0092	-0.0276	0.0107	39.6249	1.0006	8.3935	0.6496	0.1453	0.7351	-0.1286
0.39	-9.6978	-0.0912	-1.3805	0.0184	-0.0248	0.0074	39.6516	1.4271	8.5177	0.6496	0.1454	0.7351	-0.1287
0.4	-9.6937	-0.1034	-1.3491	0.0204	-0.0325	0.0109	39.6297	1.4119	8.6408	0.6496	0.1454	0.7350	-0.1287
0.41	-9.6870	-0.0962	-1.3500	0.0190	-0.0341	0.0113	39.4161	1.1596	8.5716	0.6497	0.1454	0.7350	-0.1288
0.42	-9.6872	-0.1031	-1.3163	0.0168	-0.0329	0.0125	39.4056	1.1943	8.5531	0.6497	0.1455	0.7349	-0.1289
0.43	-9.6788	-0.1135	-1.2721	0.0193	-0.0350	0.0064	39.6647	1.3412	8.7260	0.6497	0.1455	0.7348	-0.1289
0.44	-9.6807	-0.1025	-1.2107	0.0201	-0.0327	0.0155	39.5986	1.3191	8.6989	0.6498	0.1455	0.7349	-0.1290
0.45	-9.6667	-0.0925	-1.1510	0.0173	-0.0297	0.0097	39.4400	1.3362	8.6975	0.6498	0.1455	0.7348	-0.1291
0.46	-9.6783	-0.0689	-1.1282	0.0191	-0.0362	0.0088	39.4802	1.5156	8.7135	0.6499	0.1456	0.7348	-0.1291
0.47	-9.6528	-0.0107	-1.0626	0.0162	-0.0287	0.0109	39.5542	1.3791	8.6063	0.6498	0.1456	0.7347	-0.1292
0.48	-9.6611	0.0222	-0.9999	0.0022	-0.0284	0.0114	39.5586	1.4529	8.3867	0.6499	0.1456	0.7347	-0.1292
0.49	-9.6501	0.0499	-0.9540	0.0103	-0.0343	0.0137	39.4190	1.4620	8.4955	0.6499	0.1456	0.7347	-0.1292
0.5	-9.6436	0.0430	-0.9203	0.0053	-0.0322	0.0091	39.6382	1.3327	8.5636	0.6499	0.1456	0.7346	-0.1292
0.51	-9.6433	0.0331	-0.9411	0.0002	-0.0304	0.0107	39.7352	1.1277	8.3999	0.6500	0.1455	0.7347	-0.1292
0.52	-9.6424	0.0079	-0.9516	0.0013	-0.0283	0.0097	39.7331	1.0864	8.3957	0.6500	0.1455	0.7346	-0.1292
0.53	-9.6401	-0.0085	-0.9672	0.0024	-0.0180	0.0106	39.6717	1.2522	8.4662	0.6501	0.1455	0.7346	-0.1292
0.54	-9.6503	-0.0154	-0.9922	0.0057	-0.0179	0.0130	39.6101	1.2505	8.4349	0.6500	0.1455	0.7345	-0.1292
0.55	-9.6624	-0.0149	-1.0186	0.0098	-0.0220	0.0114	39.7778	1.1288	8.5591	0.6500	0.1455	0.7346	-0.1292
0.56	-9.6447	0.0018	-1.0302	0.0162	-0.0196	0.0139	39.6361	1.2243	8.3611	0.6500	0.1455	0.7346	-0.1293
0.57	-9.6684	0.0273	-1.0554	0.0033	-0.0175	0.0171	39.7246	1.2505	8.3506	0.6500	0.1455	0.7346	-0.1293
0.58	-9.6680	0.0622	-1.0659	0.0013	-0.0128	0.0136	39.7106	1.2564	8.4623	0.6500	0.1456	0.7346	-0.1292
0.59	-9.6613	0.0825	-1.0643	0.0024	-0.0164	0.0090	39.5312	1.2130	8.2999	0.6499	0.1455	0.7346	-0.1292
0.6	-9.6621	0.0859	-1.0906	-0.0057	-0.0070	0.0123	39.7419	1.3531	8.4798	0.6499	0.1455	0.7347	-0.1292
0.61	-9.6541	0.0854	-1.1072	-0.0003	-0.0054	0.0066	39.3307	1.5104	8.6242	0.6498	0.1455	0.7347	-0.1292
0.62	-9.6593	0.0924	-1.1266	0.0013	-0.0026	0.0078	39.6487	1.4816	8.7077	0.6498	0.1455	0.7349	-0.1292
0.63	-9.6700	0.0845	-1.1587	0.0039	-0.0065	0.0101	39.8423	1.3455	8.8713	0.6497	0.1454	0.7349	-0.1291
0.64	-9.6811	0.0667	-1.1860	0.0071	-0.0074	0.0112	39.7241	1.3450	8.8731	0.6497	0.1455	0.7349	-0.1292
0.65	-9.6776	0.0587	-1.2110	-0.0020	-0.0130	0.0148	39.6335	1.4240	8.7394	0.6496	0.1454	0.7349	-0.1291
0.66	-9.6777	0.0563	-1.2217	0.0000	-0.0116	0.0110	39.5018	1.5363	8.7397	0.6496	0.1454	0.7350	-0.1291
0.67	-9.6747	0.0434	-1.2205	-0.0042	-0.0194	0.0125	39.4384	1.5034	8.8791	0.6496	0.1454	0.7350	-0.1291
0.68	-9.6768	0.0319	-1.2323	0.0012	-0.0240	0.0129	39.4802	1.3875	8.5992	0.6496	0.1454	0.7349	-0.1290
0.69	-9.6776	0.0289	-1.2387	0.0024	-0.0188	0.0142	39.7300	1.2704	8.6042	0.6496	0.1454	0.7350	-0.1290
0.7	-9.6814	0.0001	-1.2574	-0.0055	-0.0134	0.0120	39.6067	1.3704	8.7114	0.6496	0.1453	0.7350	-0.1290
0.71	-9.6796	-0.0467	-1.2695	-0.0038	-0.0206	0.0146	39.5995	1.3303	8.4003	0.6496	0.1453	0.7351	-0.1290
0.72	-9.6819	-0.0577	-1.2791	0.0009	-0.0224	0.0138	39.5755	1.2959	8.6671	0.6496	0.1453	0.7350	-0.1289
0.73	-9.6893	-0.0970	-1.2865	0.0054	-0.0141	0.0142	39.7273	1.1876	8.6578	0.6496	0.1453	0.7351	-0.1289
0.74	-9.6889	-0.1095	-1.3029	0.0061	-0.0162	0.0143	39.5464	1.2965	8.7533	0.6496	0.1453	0.7351	-0.1289
0.75	-9.6890	-0.1046	-1.3137	0.0098	-0.0194	0.0136	39.5493	1.2321	8.4071	0.6495	0.1453	0.7350	-0.1289
0.76	-9.6865	-0.1033	-1.3154	0.0132	-0.0227	0.0187	39.7279	1.2222	8.7249	0.6496	0.1454	0.7351	-0.1289
0.77	-9.6923	-0.0854	-1.3080	0.0102	-0.0196	0.0155	39.3425	1.3233	8.6623	0.6495	0.1454	0.7350	-0.1289
0.78	-9.6786	-0.0768	-1.2976	0.0088	-0.0254	0.0181	39.4667	1.0809	8.4797	0.6496	0.1455	0.7351	-0.1289
0.79	-9.6773	-0.0640	-1.2847	0.0074	-0.0249	0.0195	39.6100	1.3393	8.7758	0.6495	0.1455	0.7350	-0.1289
0.8	-9.6789	-0.0457	-1.2621	0.0044	-0.0291	0.0120	39.4831	1.2595	8.5752	0.6496	0.1455	0.7350	-0.1289
0.81	-9.6722	-0.0408	-1.2365	0.0004	-0.0287	0.0128	39.5278	1.2397	8.5780	0.6497	0.1455	0.7350	-0.1289
0.82	-9.6758	-0.0345	-1.2232	0.0064	-0.0250	0.0170	39.4960	1.3759	8.7409	0.6497	0.1455	0.7349	-0.1289
0.83	-9.6626	-0.0396	-1.2075	0.0070	-0.0245	0.0134	39.5174	1.5834	8.7087	0.6497	0.1455	0.7349	-0.1289
0.84	-9.6685	-0.0210	-1.1811	0.0133	-0.0221	0.0167	39.4939	1.2479	8.6139	0.6497	0.1455	0.7349	-0.1289
0.85	-9.6718	-0.0207	-1.1432	0.0078	-0.0233	0.0143	39.3708	1.0739	8.6721	0.6497	0.1455	0.7349	-0.1289
0.86	-9.6673	-0.0125	-1.1296	0.0023	-0.0330	0.0150	39.6270	1.2407	8.5429	0.6497	0.1455	0.7348	-0.1289
0.87	-9.6787	-0.0107	-1.1132	0.0123	-0.0328	0.0143	39.5477	1.4099	8.5656	0.6498	0.1455	0.7349	-0.1290
0.88	-9.6673	-0.0093	-1.1050	0.0108	-0.0282	0.0161	39.5517	1.0626	8.5188	0.6498	0.1456	0.7348	-0.1290
0.89	-9.6640	0.0058	-1.0875	0.0063	-0.0257	0.0168	39.6081	1.1112	8.4367	0.6499	0.1456	0.7348	-0.1290
0.9	-9.6593	0.0066	-1.0670	0.0108	-0.0225	0.0157	39.5982	1.2340	8.5884	0.6498	0.1456	0.7347	-0.1290
0.91	-9.6605	0.0088	-1.0691	0.0042	-0.0273	0.0156	39.7853	1.3480	8.5183	0.6499	0.1456	0.7347	-0.1290
0.92	-9.6580	0.0096	-1.0575	0.0080	-0.0256	0.0156	39.5844	1.2181	8.4625	0.6499	0.1456	0.7347	-0.1290
0.93	-9.6576	0.0049	-1.0650	0.0009	-0.0268	0.0140	39.5872	1.3081	8.7801	0.6499	0.1456	0.7346	-0.1289
0.94	-9.6664	-0.0043	-1.0656	0.0071	-0.0273	0.0149	39.5992	1.1930	8.5738	0.6500	0.1456	0.7347	-0.1290
0.95	-9.6655	0.0005	-1.0724	0.0069	-0.0169	0.0153	39.7109	1.0027	8.6255	0.6499	0.1456	0.7347	-0.1290
0.96	-9.6580	-0.0049	-1.0756	0.0072	-0.0175	0.0132	39.6090	1.3737	8.5804	0.6500	0.1457	0.7347	-0.1290
0.97	-9.6662	-0.0164	-1.1024	0.0061	-0.0233	0.0165	39.5059	1.4824	8.5430	0.6499	0.1457	0.7346	-0.1289
0.98	-9.6754	-0.0168	-1.1248	0.0058	-0.0144	0.0130	39.4020	1.2323	8.5304	0.6499	0.1457	0.7347	-0.1290
0.99	-9.6672	-0.0280	-1.1390	0.0025	-0.0190	0.0154	39.4873	1.2263	8.6330	0.6499	0.1457	0.7347	-0.1289
1	-9.6699	-0.0346	-1.1692	-0.0058	-0.0116	0.0156	39.5251	1.4873	8.5539	0.6498	0.1456	0.7347	-0.1289
1.01	-9.6806	-0.0212	-1.1833	-0.0036	-0.0066	0.0121	39.5013	1.4477	8.5602	0.6499	0.1456	0.7348	-0.1289
1.02	-9.6758	-0.0142	-1.2116	-0.0037	-0.0069	0.0140	39.5270	1.2431	8.6443	0.6498	0.1456	0.7348	-0.1288
1.03	-9.6735	-0.0054	-1.2218	0.0031	-0.0095	0.0130	39.4810	1.3862	8.7087	0.6498	0.1456	0.7349	-0.1288
1.04	-9.6816	-0.0066	-1.2330	-0.0024	-0.0119	0.0143	39.6102	1.3302	8.6532	0.6497	0.1456	0.7348	-0.1287
1.05	-9.6895	-0.0075	-1.2358	0.0062	-0.0145	0.0130	39.6610	1.0436	8.5381	0.6497	0.1456	0.7349	-0.1287
1.06	-9.6800	-0.0027	-1.2308	0.0051	-0.0124	0.0137	39.4245	1.3081	8.7168	0.6497	0.1456	0.7349	-0.1287
1.07	-9.6809	-0.0028	-1.2344	0.0019	-0.0123	0.0162	39.6929	1.4211	8.4637	0.6496	0.1456	0.7349	-0.1287
1.08	-9.6866	-0.0008	-1.2383	-0.0026	-0.0168	0.0136	39.5849	1.2940	8.3710	0.6497	0.1456	0.7350	-0.1287
1.09	-9.6808	-0.0002	-1.2345	-0.0045	-0.0095	0.0153	39.6012	1.3947	8.6362	0.6496	0.1456	0.7350	-0.1286
1.1	-9.6785	-0.0003	-1.2290	-0.0002	-0.0172	0.0142	39.5572	1.2448	8.6389	0.6496	0.1456	0.7351	-0.1286
1.11	-9.6828	-0.0006	-1.2244	0.0074	-0.0160	0.0145	39.3870	1.4122	8.6389	0.6496	0.1456	0.7350	-0.1286
1.12	-9.6804	-0.0097	-1.2231	0.0059	-0.0075	0.0140	39.6689	1.3602	8.6312	0.6496	0.1456	0.7351	-0.1286
1.13	-9.6765	-0.0152	-1.2071	0.0010	-0.0157	0.0154	40.2055	1.5922	8.8309	0.6495	0.1456	0.7351	-0.1286
1.14	-9.6807	-0.0151	-1.2067	0.0082	-0.0152	0.0073	39.9745	1.4457	8.7197	0.6495	0.1456	0.7351	-0.1286
1.15	-9.6788	-0.0147	-1.1933	0.0052	-0.0191	0.0097	39.7435	1.3641	8.5132	0.6495	0.1456	0.7351	-0.1286
1.16	-9.6767	-0.0012	-1.1786	-0.0022	-0.0244	0.0109	39.5008	1.3151	8.6064	0.6495	0.1455	0.7351	-0.1286
1.17	-9.6781	-0.0059	-1.1737	-0.0026	-0.0182	0.0104	39.4750	1.2733	8.6233	0.6495	0.1455	0.7351	-0.1286
1.18	-9.6756	-0.0057	-1.1623	-0.0047	-0.0181	0.0105	39.4287	1.4539	8.6391	0.6495	0.1455	0.7351	-0.1285
1.19	-9.6786	-0.0061	-1.1571	0.0032	-0.0181	0.0087	39.1901	1.2204	8.4905	0.6496	0.1455	0.7352	-0.1285
1.2	-9.6723	-0.0135	-1.1507	0.0015	-0.0103	0.0151	39.5663	1.4080	8.6136	0.6495	0.1454	0.7352	-0.1285
1.21	-9.6759	-0.0117	-1.1471	0.0009	-0.0134	0.0137	39.4920	1.4579	8.5511	0.6495	0.1455	0.7353	-0.1285
1.22	-9.6759	-0.0118	-1.1420	0.0020	-0.0168	0.0157	39.4817	1.2986	8.6169	0.6494	0.1454	0.7352	-0.1285
1.23	-9.6648	-0.0047	-1.1317	-0.0006	-0.0174	0.0137	39.5644	1.4220	8.6294	0.6495	0.1454	0.7352	-0.1284
1.24	-9.6678	-0.0100	-1.1297	0.0043	-0.0179	0.0134	39.4255	1.4742	8.6280	0.6495	0.1454	0.7352	-0.1284
1.25	-9.6678	-0.0019	-1.1368	0.0014	-0.0160	0.0135	39.6204	1.1433	8.5599	0.6494	0.1454	0.7352	-0.1284
1.26	-9.6713	-0.0023	-1.1329	0.0088	-0.0173	0.0141	39.8610	1.1153	8.5376	0.6495	0.1454	0.7353	-0.1284
1.27	-9.6721	-0.0079	-1.1308	0.0018	-0.0141	0.0152	39.7313	1.0860	8.5707	0.6494	0.1454	0.7353	-0.1284
1.28	-9.6792	0.0023	-1.1397	-0.0025	-0.0120	0.0109	39.7935	1.1205	8.4948	0.6494	0.1454	0.7353	-0.1284
1.29	-9.6791	0.0107	-1.1445	0.0003	-0.0183	0.0135	39.7405	1.0766	8.3654	0.6493	0.1454	0.7353	-0.1284
1.3	-9.6710	0.0035	-1.1450	0.0008	-0.0157	0.0090	39.6235	1.1422	8.2623	0.6494	0.1454	0.7353	-0.1284
1.31	-9.6800	0.0039	-1.1383	0.0025	-0.0138	0.0130	39.6615	1.3211	8.4915	0.6494	0.1454	0.7353	-0.1284
1.32	-9.6727	0.0147	-1.1565	-0.0043	-0.0160	0.0130	39.6287	1.1700	8.5800	0.6493	0.1453	0.7353	-0.1283
1.33	-9.6754	0.0086	-1.1638	-0.0000	-0.0095	0.0099	39.6571	1.1809	8.5089	0.6493	0.1453	0.7354	-0.1283
1.34	-9.6795	0.0116	-1.1643	-0.0005	-0.0089	0.0146	39.7413	1.3196	8.6057	0.6493	0.1453	0.7354	-0.1283
1.35	-9.6810	0.0089	-1.1734	-0.0041	-0.0136	0.0031	39.4979	1.3456	8.5888	0.6493	0.1452	0.7355	-0.1283
1.36	-9.6714	-0.0036	-1.1795	0.0000	-0.0145	0.0112	39.4683	1.4049	8.4254	0.6492	0.1452	0.7354	-0.1282
1.37	-9.6756	0.0039	-1.1789	-0.0003	-0.0088	0.0071	39.5874	1.5583	8.5585	0.6492	0.1452	0.7356	-0.1283
1.38	-9.6780	0.0063	-1.1864	-0.0051	-0.0084	0.0126	39.5392	1.4247	8.6811	0.6492	0.1451	0.7356	-0.1282
1.39	-9.6784	0.0029	-1.2054	-0.0093	-0.0044	0.0099	39.5981	1.2672	8.4625	0.6491	0.1451	0.7357	-0.1282
1.4	-9.6729	-0.0008	-1.1915	-0.0004	-0.0063	0.0070	39.3707	1.6698	8.4391	0.6491	0.1451	0.7357	-0.1281
1.41	-9.6819	-0.0022	-1.1957	0.0015	-0.0123	0.0103	39.4337	1.2596	8.5535	0.6490	0.1450	0.7357	-0.1281
1.42	-9.6856	-0.0115	-1.1896	-0.0028	-0.0123	0.0098	39.5068	1.3825	8.5654	0.6490	0.1450	0.7358	-0.1281
1.43	-9.6708	-0.0189	-1.1785	-0.0017	-0.0162	0.0114	39.4469	1.3732	8.7434	0.6490	0.1450	0.7357	-0.1281
1.44	-9.6774	-0.0254	-1.1762	0.0074	-0.0154	0.0110	39.6089	1.2390	8.4967	0.6490	0.1450	0.7358	-0.1281
1.45	-9.6798	-0.0258	-1.1655	-0.0015	-0.0156	0.0094	39.6390	1.2496	8.5774	0.6490	0.1449	0.7358	-0.1281
1.46	-9.6819	-0.0245	-1.1634	-0.0004	-0.0109	0.0093	39.6958	1.1327	8.4718	0.6490	0.1449	0.7359	-0.1281
1.47	-9.6702	-0.0263	-1.1608	0.0019	-0.0079	0.0131	39.8355	1.3027	8.4523	0.6489	0.1449	0.7358	-0.1281
1.48	-9.6757	-0.0196	-1.1644	0.0105	-0.0095	0.0163	39.5621	1.3392	8.3414	0.6489	0.1449	0.7359	-0.1281
1.49	-9.6868	-0.0159	-1.1859	0.0027	-0.0074	0.0124	39.6181	1.1945	8.4056	0.6488	0.1449	0.7359	-0.1281
1.5	-9.6608	-0.0295	-1.1813	0.0052	-0.0096	0.0138	39.6570	1.1683	8.5757	0.6488	0.1449	0.7359	-0.1280
1.51	-9.6719	-0.0215	-1.1869	0.0023	-0.0143	0.0130	39.6379	1.1969	8.4135	0.6488	0.1449	0.7360	-0.1280
1.52	-9.6861	-0.0092	-1.1916	0.0002	-0.0137	0.0119	39.6550	1.2897	8.6683	0.6488	0.1449	0.7360	-0.1280
1.53	-9.6805	-0.0143	-1.1852	0.0045	-0.0167	0.0095	39.5923	1.4450	8.6837	0.6488	0.1449	0.7361	-0.1280
1.54	-9.6778	-0.0119	-1.1918	-0.0021	-0.0133	0.0087	39.4603	1.3230	8.5032	0.6487	0.1448	0.7360	-0.1280
1.55	-9.6790	-0.0124	-1.1835	0.0000	-0.0193	0.0161	39.4977	1.3783	8.6697	0.6488	0.1448	0.7361	-0.1280
1.56	-9.6739	-0.0164	-1.1816	-0.0050	-0.0210	0.0127	39.4495	1.4032	8.5654	0.6488	0.1448	0.7360	-0.1280
1.57	-9.6672	0.0023	-1.1697	-0.0041	-0.0177	0.0068	39.5818	1.3017	8.5078	0.6488	0.1448	0.7360	-0.1279
1.58	-9.6685	0.0044	-1.1664	-0.0057	-0.0121	0.0151	39.4447	1.4606	8.6632	0.6488	0.1447	0.7361	-0.1279
1.59	-9.6794	-0.0016	-1.1644	-0.0020	-0.0138	0.0066	39.5377	1.5111	8.6844	0.6487	0.1447	0.7361	-0.1279
1.6	-9.6761	0.0063	-1.1576	-0.0041	-0.0090	0.0056	39.5116	1.3183	8.3917	0.6487	0.1446	0.7362	-0.1279
1.61	-9.6716	0.0029	-1.1525	0.0006	-0.0137	0.0118	39.5282	1.4488	8.6374	0.6486	0.1446	0.7361	-0.1279
1.62	-9.6805	0.0083	-1.1519	0.0022	-0.0128	0.0097	39.7703	1.2969	8.7321	0.6487	0.1446	0.7362	-0.1279
1.63	-9.6787	0.0189	-1.1430	0.0018	-0.0186	0.0131	40.1306	1.3059	8.5624	0.6487	0.1446	0.7362	-0.1279
1.64	-9.6706	0.0129	-1.1406	0.0051	-0.0099	0.0122	39.9954	1.3742	8.5511	0.6486	0.1446	0.7362	-0.1279
1.65	-9.6802	0.0133	-1.1438	-0.0009	-0.0164	0.0116	39.7526	1.2794	8.6399	0.6486	0.1445	0.7362	-0.1278
1.66	-9.6792	0.0107	-1.1437	-0.0018	-0.0154	0.0133	39.6818	1.1131	8.6437	0.6486	0.1445	0.7363	-0.1278
1.67	-9.6715	0.0067	-1.1326	-0.0053	-0.0194	0.0125	39.6480	1.3887	8.5851	0.6486	0.1445	0.7363	-0.1278
1.68	-9.6702	0.0124	-1.1469	0.0034	-0.0195	0.0117	39.4313	1.6030	8.3242	0.6486	0.1445	0.7362	-0.1278
1.69	-9.6785	0.0014	-1.1557	-0.0015	-0.0114	0.0091	39.4566	1.3084	8.4622	0.6486	0.1444	0.7363	-0.1278
1.7	-9.6705	0.0004	-1.1577	0.0028	-0.0159	0.0123	39.6627	1.4745	8.5580	0.6486	0.1444	0.7363	-0.1278
1.71	-9.6753	-0.0091	-1.1543	0.0026	-0.0178	0.0132	39.5170	1.1483	8.4934	0.6487	0.1444	0.7364	-0.1278
1.72	-9.6847	-0.0127	-1.1741	0.0029	-0.0145	0.0122	39.4512	1.2102	8.6579	0.6486	0.1444	0.7363	-0.1277
1.73	-9.6810	-0.0149	-1.1824	-0.0026	-0.0186	0.0142	39.2931	1.4283	8.5416	0.6486	0.1444	0.7363	-0.1277
1.74	-9.6745	-0.0192	-1.1782	-0.0018	-0.0151	0.0111	39.4859	1.1853	8.4169	0.6486	0.1444	0.7363	-0.1277
1.75	-9.6714	-0.0185	-1.1952	0.0021	-0.0171	0.0105	39.5299	1.3028	8.7451	0.6485	0.1443	0.7363	-0.1277
1.76	-9.6790	-0.0210	-1.2014	0.0081	-0.0156	0.0117	39.3465	1.3915	8.5728	0.6486	0.1443	0.7364	-0.1277
1.77	-9.6791	-0.0152	-1.1883	0.0047	-0.0233	0.0120	39.4579	1.2455	8.3747	0.6486	0.1443	0.7363	-0.1277
1.78	-9.6748	-0.0194	-1.1981	0.0029	-0.0128	0.0138	39.4794	1.1962	8.5738	0.6486	0.1443	0.7364	-0.1277
1.79	-9.6769	-0.0227	-1.1994	0.0093	-0.0165	0.0118	39.6074	1.3075	8.7431	0.6485	0.1443	0.7363	-0.1277
1.8	-9.6714	-0.0169	-1.1997	0.0128	-0.0177	0.0104	39.5025	1.4111	8.4363	0.6486	0.1443	0.7364	-0.1278
1.81	-9.6735	-0.0261	-1.1872	0.0028	-0.0210	0.0147	39.5157	1.1810	8.4869	0.6486	0.1443	0.7363	-0.1278
1.82	-9.6745	-0.0208	-1.1969	0.0032	-0.0168	0.0128	39.5774	1.0986	8.6116	0.6486	0.1443	0.7363	-0.1278
1.83	-9.6791	-0.0130	-1.2045	0.0094	-0.0187	0.0127	39.6909	1.3487	8.6495	0.6486	0.1443	0.7364	-0.1278
1.84	-9.6743	-0.0191	-1.1964	0.0032	-0.0196	0.0150	39.6868	1.2592	8.5462	0.6486	0.1443	0.7363	-0.1278
1.85	-9.6764	-0.0171	-1.1858	0.0119	-0.0210	0.0100	39.8274	1.0392	8.4084	0.6486	0.1443	0.7363	-0.1278
1.86	-9.6770	-0.0206	-1.1968	0.0086	-0.0157	0.0114	39.5709	1.4475	8.5251	0.6485	0.1443	0.7363	-0.1278
1.87	-9.6780	-0.0113	-1.1827	0.0061	-0.0169	0.0147	39.5230	1.4038	8.6538	0.6486	0.1444	0.7364	-0.1278
1.88	-9.6669	0.0012	-1.1718	0.0096	-0.0149	0.0143	39.6219	1.3336	8.6961	0.6486	0.1444	0.7363	-0.1278
1.89	-9.6785	0.0006	-1.1720	0.0144	-0.0104	0.0113	39.5674	1.3450	8.7861	0.6485	0.1444	0.7364	-0.1279
1.9	-9.6759	-0.0004	-1.1706	0.0115	-0.0172	0.0071	39.6978	1.2110	8.7087	0.6485	0.1444	0.7363	-0.1279
1.91	-9.6718	-0.0026	-1.1555	0.0176	-0.0176	0.0107	39.5416	1.3063	8.4616	0.6485	0.1444	0.7363	-0.1280
1.92	-9.6776	-0.0064	-1.1458	0.0128	-0.0127	0.0118	39.3367	1.3718	8.6042	0.6485	0.1444	0.7364	-0.1280
1.93	-9.6866	-0.0070	-1.1612	0.0105	-0.0112	0.0131	39.4346	1.2457	8.6183	0.6484	0.1444	0.7363	-0.1280
1.94	-9.6862	0.0002	-1.1484	0.0068	-0.0176	0.0118	39.4367	1.1032	8.6144	0.6485	0.1445	0.7364	-0.1281
1.95	-9.6671	0.0009	-1.1423	0.0036	-0.0129	0.0106	39.5870	1.4301	8.6206	0.6484	0.1444	0.7364	-0.1281
1.96	-9.6781	-0.0005	-1.1471	0.0070	-0.0121	0.0144	39.5506	1.2960	8.6040	0.6485	0.1445	0.7365	-0.1281
1.97	-9.6781	0.0088	-1.1490	0.0045	-0.0070	0.0123	39.4901	1.3136	8.6311	0.6484	0.1445	0.7364	-0.1280
1.98	-9.6595	0.0127	-1.1445	-0.0020	-0.0077	0.0091	39.4354	1.2703	8.6954	0.6484	0.1444	0.7365	-0.1280
1.99	-9.6718	-0.0062	-1.1600	0.0020	-0.0110	0.0159	39.4197	1.0424	8.5765	0.6483	0.1444	0.7365	-0.1280
2	-9.6767	-0.0093	-1.1735	-0.0009	-0.0190	0.0118	39.5131	1.3416	8.7119	0.6483	0.1444	0.7364	-0.1280
2.01	-9.6635	-0.0018	-1.1699	0.0031	-0.0171	0.0159	39.5119	1.2541	8.6138	0.6484	0.1444	0.7365	-0.1280
2.02	-9.6631	-0.0046	-1.1830	0.0100	-0.0178	0.0153	39.5541	1.1390	8.3203	0.6483	0.1444	0.7365	-0.1280
2.03	-9.6873	-0.0015	-1.1929	0.0070	-0.0169	0.0115	39.6306	1.2674	8.5010	0.6484	0.1444	0.7365	-0.1280
2.04	-9.6824	-0.0109	-1.2106	0.0079	-0.0158	0.0141	39.5756	1.1141	8.5469	0.6483	0.1444	0.7364	-0.1280
2.05	-9.6735	-0.0101	-1.1996	-0.0003	-0.0197	0.0158	39.5286	1.3542	8.4254	0.6484	0.1444	0.7365	-0.1280
2.06	-9.6844	-0.0024	-1.2046	0.0070	-0.0163	0.0144	39.6391	1.2683	8.5735	0.6484	0.1444	0.7365	-0.1280
2.07	-9.6768	-0.0164	-1.2057	0.0063	-0.0130	0.0079	39.5149	1.3855	8.1974	0.6483	0.1444	0.7365	-0.1280
2.08	-9.6759	-0.0149	-1.1882	-0.0026	-0.0098	0.0112	39.6137	1.3995	8.5132	0.6483	0.1444	0.7365	-0.1280
2.09	-9.6743	-0.0129	-1.1957	0.0070	-0.0166	0.0147	39.4720	1.1096	8.4758	0.6483	0.1444	0.7365	-0.1280
2.1	-9.6785	-0.0089	-1.1857	0.0063	-0.0140	0.0146	39.6113	1.2490	8.4985	0.6483	0.1444	0.7365	-0.1280
2.11	-9.6764	-0.0066	-1.1910	0.0064	-0.0093	0.0136	39.5063	1.4055	8.5217	0.6482	0.1444	0.7365	-0.1280
2.12	-9.6751	-0.0090	-1.1827	0.0076	-0.0125	0.0114	39.6260	1.3831	8.6629	0.6483	0.1444	0.7366	-0.1280
2.13	-9.6809	-0.0166	-1.1722	0.0026	-0.0125	0.0108	39.8432	1.2274	8.6761	0.6482	0.1444	0.7366	-0.1280
2.14	-9.6772	-0.0120	-1.1627	-0.0011	-0.0088	0.0069	39.7995	1.3042	8.6249	0.6482	0.1444	0.7366	-0.1280
2.15	-9.6705	-0.0145	-1.1564	0.0024	-0.0149	0.0083	39.5499	1.5643	8.6529	0.6482	0.1443	0.7366	-0.1280
2.16	-9.6683	-0.0114	-1.1492	-0.0043	-0.0110	0.0074	39.3030	1.3474	8.4026	0.6482	0.1443	0.7366	-0.1280
2.17	-9.6711	-0.0085	-1.1567	-0.0033	-0.0187	0.0096	39.4590	1.3342	8.7250	0.6482	0.1443	0.7367	-0.1280
2.18	-9.6702	-0.0103	-1.1470	-0.0038	-0.0223	0.0090	39.5378	1.2663	8.6415	0.6482	0.1442	0.7366	-0.1280
2.19	-9.6724	-0.0129	-1.1583	-0.0003	-0.0176	0.0100	39.7633	1.1433	8.6435	0.6483	0.1442	0.7367	-0.1280
2.2	-9.6770	-0.0116	-1.1506	0.0054	-0.0172	0.0094	39.7917	1.0660	8.6304	0.6482	0.1442	0.7366	-0.1280
2.21	-9.6698	-0.0093	-1.1612	-0.0036	-0.0192	0.0110	39.6136	1.1465	8.4823	0.6483	0.1441	0.7367	-0.1280
2.22	-9.6734	-0.0164	-1.1622	-0.0030	-0.0131	0.0064	39.7318	1.2709	8.7948	0.6482	0.1441	0.7366	-0.1279
2.23	-9.6754	-0.0155	-1.1768	-0.0028	-0.0159	0.0099	39.6831	1.2432	8.6358	0.6483	0.1440	0.7367	-0.1279
2.24	-9.6789	-0.0132	-1.1742	-0.0002	-0.0158	0.0107	39.6277	1.2662	8.3900	0.6483	0.1440	0.7367	-0.1279
2.25	-9.6792	-0.0197	-1.1679	-0.0012	-0.0156	0.0107	39.6300	1.2283	8.5647	0.6482	0.1440	0.7366	-0.1279
2.26	-9.6751	-0.0133	-1.1755	-0.0006	-0.0160	0.0124	39.7365	1.3819	8.6491	0.6483	0.1440	0.7367	-0.1279
2.27	-9.6790	-0.0050	-1.1638	-0.0043	-0.0167	0.0124	39.6851	1.1372	8.6180	0.6483	0.1439	0.7367	-0.1279
2.28	-9.6720	-0.0033	-1.1511	-0.0024	-0.0258	0.0145	39.5808	1.3149	8.4997	0.6483	0.1439	0.7367	-0.1278
2.29	-9.6662	0.0027	-1.1544	-0.0055	-0.0168	0.0123	39.4554	1.3235	8.6645	0.6483	0.1439	0.7366	-0.1278
2.3	-9.6706	0.0014	-1.1612	-0.0022	-0.0134	0.0098	39.3898	1.2715	8.7048	0.6483	0.1438	0.7367	-0.1278
2.31	-9.6654	-0.0045	-1.1443	-0.0043	-0.0180	0.0077	39.3729	1.4547	8.6038	0.6483	0.1438	0.7367	-0.1278
2.32	-9.6710	-0.0008	-1.1463	-0.0041	-0.0096	0.0129	39.4705	1.4107	8.6405	0.6483	0.1437	0.7367	-0.1277
2.33	-9.6696	-0.0090	-1.1458	-0.0031	-0.0095	0.0120	39.5436	1.3119	8.6313	0.6483	0.1437	0.7367	-0.1277
2.34	-9.6635	-0.0104	-1.1539	0.0020	-0.0075	0.0078	39.4885	1.2602	8.6332	0.6483	0.1437	0.7367	-0.1277
2.35	-9.6634	-0.0069	-1.1428	-0.0041	-0.0063	0.0092	39.5573	1.3615	8.6491	0.6483	0.1437	0.7368	-0.1277
2.36	-9.6704	-0.0047	-1.1527	0.0008	-0.0087	0.0111	39.2731	1.3220	8.5331	0.6482	0.1436	0.7368	-0.1276
2.37	-9.6784	-0.0035	-1.1549	0.0038	-0.0117	0.0108	39.4350	1.2234	8.6624	0.6482	0.1436	0.7369	-0.1277
2.38	-9.6710	-0.0007	-1.1536	-0.0056	-0.0079	0.0078	39.6434	0.9932	8.6024	0.6482	0.1436	0.7369	-0.1276
2.39	-9.6734	0.0003	-1.1606	0.0060	-0.0127	0.0107	39.6124	1.0505	8.5262	0.6482	0.1436	0.7369	-0.1276
2.4	-9.6731	-0.0023	-1.1697	0.0027	-0.0101	0.0058	39.7533	1.2913	8.5908	0.6481	0.1435	0.7369	-0.1276
2.41	-9.6710	0.0012	-1.1790	-0.0046	-0.0105	0.0117	39.7635	1.3371	8.3652	0.6481	0.1435	0.7369	-0.1276
2.42	-9.6719	-0.0061	-1.1762	0.0021	-0.0095	0.0104	39.3982	1.1680	8.4785	0.6481	0.1435	0.7370	-0.1276
2.43	-9.6762	-0.0145	-1.1830	-0.0029	-0.0126	0.0115	39.6682	1.1656	8.6650	0.6480	0.1435	0.7369	-0.1276
2.44	-9.6765	-0.0120	-1.1812	-0.0024	-0.0102	0.0111	39.5153	1.1768	8.5393	0.6481	0.1435	0.7370	-0.1276
2.45	-9.6767	-0.0169	-1.1900	-0.0010	-0.0088	0.0136	39.4747	1.1486	8.6761	0.6480	0.1434	0.7370	-0.1275
2.46	-9.6774	-0.0175	-1.1814	0.0036	-0.0127	0.0112	39.4558	1.2257	8.6063	0.6481	0.1434	0.7371	-0.1275
2.47	-9.6769	-0.0146	-1.1902	0.0001	-0.0141	0.0086	39.5736	1.3435	8.7416	0.6480	0.1434	0.7370	-0.1275
2.48	-9.6772	-0.0038	-1.2017	-0.0060	-0.0108	0.0090	39.6177	1.3395	8.5940	0.6480	0.1433	0.7371	-0.1275
2.49	-9.6633	-0.0090	-1.2146	-0.0003	-0.0112	0.0110	39.5572	1.4895	8.5051	0.6480	0.1433	0.7371	-0.1275
2.5	-9.6750	-0.0034	-1.2089	-0.0023	-0.0100	0.0042	39.7571	1.5177	8.6485	0.6480	0.1433	0.7371	-0.1275
2.51	-9.6778	0.0029	-1.1938	-0.0017	-0.0078	0.0134	39.5036	1.3895	8.6082	0.6480	0.1433	0.7372	-0.1275
2.52	-9.6735	0.0080	-1.2067	0.0019	-0.0094	0.0088	39.5985	1.4511	8.6823	0.6479	0.1432	0.7371	-0.1274
2.53	-9.6704	-0.0086	-1.1985	-0.0011	-0.0105	0.0089	39.4600	1.5323	8.4746	0.6480	0.1432	0.7372	-0.1274
2.54	-9.6729	0.0005	-1.2057	-0.0004	-0.0127	0.0069	39.5780	1.4039	8.4555	0.6479	0.1432	0.7371	-0.1274
2.55	-9.6787	-0.0094	-1.1919	0.0010	-0.0092	0.0034	39.5144	1.2168	8.5468	0.6479	0.1431	0.7372	-0.1275
2.56	-9.6759	-0.0201	-1.1960	0.0022	-0.0198	0.0106	39.6790	1.2767	8.6168	0.6479	0.1431	0.7372	-0.1274
2.57	-9.6763	-0.0094	-1.1867	0.0070	-0.0198	0.0071	39.9234	1.1962	8.5868	0.6479	0.1431	0.7372	-0.1275
2.58	-9.6777	-0.0214	-1.1712	0.0070	-0.0169	0.0142	39.7769	1.0623	8.4555	0.6480	0.1431	0.7372	-0.1275
2.59	-9.6734	-0.0099	-1.1688	-0.0029	-0.0151	0.0098	39.5500	1.1249	8.8433	0.6479	0.1431	0.7372	-0.1275
2.6	-9.6779	-0.0076	-1.1777	0.0047	-0.0130	0.0106	39.6148	1.1871	8.5686	0.6480	0.1431	0.7372	-0.1275
2.61	-9.6637	-0.0213	-1.1552	0.0096	-0.0124	0.0104	39.6248	1.1603	8.5245	0.6479	0.1430	0.7371	-0.1275
2.62	-9.6690	-0.0069	-1.1528	0.0031	-0.0150	0.0122	39.9489	1.1834	8.8110	0.6479	0.1431	0.7372	-0.1275
2.63	-9.6762	-0.0083	-1.1610	0.0048	-0.0146	0.0109	40.0462	1.3281	8.7767	0.6479	0.1430	0.7372	-0.1275
2.64	-9.6777	-0.0058	-1.1529	-0.0005	-0.0174	0.0097	39.7991	1.3343	8.7238	0.6479	0.1430	0.7372	-0.1275
2.65	-9.6714	-0.0113	-1.1563	0.0039	-0.0214	0.0133	39.6508	1.3530	8.8688	0.6479	0.1430	0.7372	-0.1275
2.66	-9.6709	-0.0004	-1.1418	0.0021	-0.0231	0.0104	39.3883	1.4019	8.6351	0.6480	0.1430	0.7372	-0.1275
2.67	-9.6755	-0.0072	-1.1411	0.0043	-0.0164	0.0116	39.3718	1.3005	8.6741	0.6480	0.1430	0.7372	-0.1275
2.68	-9.6631	-0.0014	-1.1423	0.0003	-0.0214	0.0148	39.6497	1.2793	8.7433	0.6480	0.1430	0.7371	-0.1275
2.69	-9.6680	-0.0023	-1.1383	-0.0003	-0.0222	0.0104	39.5756	1.3955	8.5957	0.6481	0.1429	0.7372	-0.1275
2.7	-9.6692	-0.0033	-1.1547	0.0039	-0.0146	0.0140	39.5551	1.3602	8.6470	0.6480	0.1429	0.7371	-0.1275
2.71	-9.6738	0.0010	-1.1460	0.0013	-0.0085	0.0144	39.6539	1.3887	8.6007	0.6481	0.1430	0.7372	-0.1274
2.72	-9.6692	-0.0019	-1.1457	-0.0021	-0.0151	0.0141	39.5070	1.3533	8.7364	0.6480	0.1429	0.7371	-0.1274
2.73	-9.6737	-0.0033	-1.1642	0.0010	-0.0110	0.0139	39.5443	1.4067	8.6836	0.6480	0.1429	0.7372	-0.1274
2.74	-9.6783	-0.0078	-1.1633	0.0026	-0.0192	0.0096	39.5188	1.4540	8.5838	0.6480	0.1429	0.7372	-0.1274
2.75	-9.6764	-0.0085	-1.1602	0.0011	-0.0153	0.0130	39.5973	1.2015	8.3726	0.6480	0.1429	0.7371	-0.1274
2.76	-9.6756	-0.0116	-1.1730	0.0052	-0.0110	0.0109	39.8291	1.1226	8.3687	0.6481	0.1429	0.7372	-0.1274
2.77	-9.6859	0.0017	-1.1685	0.0049	-0.0196	0.0116	39.7307	1.2668	8.5213	0.6480	0.1429	0.7371	-0.1274
2.78	-9.6813	-0.0003	-1.1758	0.0012	-0.0172	0.0124	39.6844	1.1048	8.5697	0.6481	0.1429	0.7372	-0.1274
2.79	-9.6720	0.0005	-1.1820	0.0093	-0.0214	0.0074	39.7067	1.2990	8.4497	0.6480	0.1428	0.7371	-0.1274
2.8	-9.6776	0.0002	-1.1873	0.0042	-0.0188	0.0143	39.6898	1.3985	8.4534	0.6481	0.1429	0.7371	-0.1274
2.81	-9.6773	-0.0012	-1.1886	0.0070	-0.0183	0.0147	39.7114	1.2002	8.4606	0.6481	0.1429	0.7371	-0.1274
2.82	-9.6799	-0.0031	-1.1871	0.0010	-0.0166	0.0136	39.6820	1.2729	8.4553	0.6481	0.1429	0.7371	-0.1274
2.83	-9.6756	0.0001	-1.1899	0.0012	-0.0148	0.0089	39.7236	1.4086	8.4556	0.6481	0.1428	0.7371	-0.1274
2.84	-9.6712	-0.0139	-1.1877	0.0089	-0.0149	0.0106	39.7710	1.2118	8.4602	0.6481	0.1428	0.7371	-0.1274
2.85	-9.6804	-0.0094	-1.1756	-0.0003	-0.0141	0.0126	39.6315	1.0766	8.6856	0.6481	0.1428	0.7371	-0.1274
2.86	-9.6721	-0.0128	-1.1798	0.0033	-0.0186	0.0083	39.5191	1.2380	8.8212	0.6481	0.1428	0.7370	-0.1274
2.87	-9.6777	-0.0090	-1.1804	0.0092	-0.0151	0.0085	39.4511	1.1694	8.6924	0.6482	0.1428	0.7371	-0.1274
2.88	-9.6748	-0.0047	-1.1826	0.0038	-0.0140	0.0132	39.5708	1.2885	8.5795	0.6481	0.1428	0.7371	-0.1274
2.89	-9.6761	-0.0094	-1.1776	0.0051	-0.0136	0.0141	39.4976	1.4763	8.7371	0.6481	0.1428	0.7371	-0.1274
2.9	-9.6715	-0.0107	-1.1786	0.0043	-0.0114	0.0090	39.6447	1.3722	8.5883	0.6481	0.1428	0.7371	-0.1274
2.91	-9.6836	-0.0161	-1.1760	0.0042	-0.0183	0.0146	39.5793	1.3499	8.5774	0.6481	0.1428	0.7371	-0.1274
2.92	-9.6804	-0.0201	-1.1782	0.0010	-0.0144	0.0129	39.5084	1.2643	8.7869	0.6482	0.1428	0.7371	-0.1274
2.93	-9.6719	-0.0103	-1.1717	0.0001	-0.0190	0.0122	39.5920	1.3127	8.5985	0.6481	0.1428	0.7370	-0.1274
2.94	-9.6825	-0.0080	-1.1612	0.0043	-0.0160	0.0143	39.8341	1.1836	8.6564	0.6482	0.1428	0.7371	-0.1274
2.95	-9.6723	-0.0045	-1.1649	0.0051	-0.0143	0.0125	39.9629	1.2549	8.6203	0.6482	0.1428	0.7371	-0.1274
2.96	-9.6777	0.0024	-1.1673	-0.0001	-0.0189	0.0098	39.6882	1.3434	8.6581	0.6482	0.1428	0.7371	-0.1274
2.97	-9.6726	0.0012	-1.1761	-0.0025	-0.0127	0.0145	39.7038	1.0886	8.5232	0.6482	0.1428	0.7370	-0.1273
2.98	-9.6733	0.0067	-1.1661	-0.0045	-0.0208	0.0134	39.6804	1.1764	8.5821	0.6482	0.1427	0.7371	-0.1273
2.99	-9.6745	0.0020	-1.1546	0.0006	-0.0214	0.0153	39.5708	1.3710	8.6418	0.6483	0.1427	0.7370	-0.1273
3	-9.6779	-0.0014	-1.1730	-0.0003	-0.0196	0.0129	39.7126	1.4022	8.6245	0.6482	0.1427	0.7370	-0.1272
3.01	-9.6712	-0.0057	-1.1770	-0.0018	-0.0204	0.0125	39.5899	1.1571	8.6322	0.6484	0.1427	0.7371	-0.1272
3.02	-9.6718	0.0009	-1.1621	0.0072	-0.0158	0.0111	39.5350	1.1502	8.3675	0.6483	0.1427	0.7370	-0.1272
3.03	-9.6764	-0.0091	-1.1693	0.0074	-0.0136	0.0094	39.7282	1.2407	8.6219	0.6483	0.1427	0.7370	-0.1273
3.04	-9.6717	-0.0055	-1.1648	-0.0005	-0.0160	0.0149	39.5826	1.1853	8.6417	0.6483	0.1427	0.7369	-0.1272
3.05	-9.6774	-0.0030	-1.1617	0.0064	-0.0196	0.0158	39.7586	1.3416	8.5143	0.6483	0.1427	0.7370	-0.1272
3.06	-9.6774	0.0018	-1.1780	0.0044	-0.0162	0.0119	39.5816	1.2268	8.4085	0.6483	0.1427	0.7370	-0.1272
3.07	-9.6648	0.0039	-1.1736	-0.0038	-0.0153	0.0124	39.5699	1.2047	8.5695	0.6483	0.1427	0.7369	-0.1272
3.08	-9.6757	-0.0020	-1.1675	-0.0012	-0.0150	0.0102	39.7365	1.2099	8.5013	0.6484	0.1427	0.7370	-0.1272
3.09	-9.6708	-0.0040	-1.1683	0.0050	-0.0206	0.0153	39.6674	1.2256	8.6474	0.6484	0.1427	0.7369	-0.1272
3.1	-9.6776	-0.0082	-1.1628	0.0004	-0.0235	0.0115	39.7258	1.3735	8.6805	0.6484	0.1426	0.7369	-0.1272
3.11	-9.6820	0.0007	-1.1595	-0.0010	-0.0209	0.0109	39.5917	1.3792	8.6073	0.6484	0.1426	0.7368	-0.1271
3.12	-9.6715	-0.0022	-1.1625	-0.0038	-0.0187	0.0146	39.6326	1.3690	8.7201	0.6485	0.1426	0.7369	-0.1271
3.13	-9.6908	-0.0172	-1.1589	0.0075	-0.0186	0.0102	40.0147	1.0859	8.7903	0.6485	0.1426	0.7369	-0.1271
3.14	-9.6832	-0.0176	-1.1575	0.0021	-0.0134	0.0085	39.9512	1.0495	8.7376	0.6485	0.1426	0.7369	-0.1271
3.15	-9.6690	-0.0181	-1.1672	0.0012	-0.0200	0.0097	39.7878	1.3010	8.5123	0.6485	0.1426	0.7368	-0.1271
3.16	-9.6805	-0.0180	-1.1713	0.0048	-0.0172	0.0091	39.5179	1.4825	8.6005	0.6485	0.1425	0.7368	-0.1271
3.17	-9.6780	-0.0169	-1.1675	0.0017	-0.0117	0.0110	39.7183	1.1769	8.4746	0.6485	0.1425	0.7369	-0.1271
3.18	-9.6722	-0.0119	-1.1682	0.0026	-0.0157	0.0038	39.6380	1.2719	8.4536	0.6485	0.1425	0.7368	-0.1271
3.19	-9.6818	-0.0047	-1.1729	-0.0053	-0.0187	0.0091	39.5174	1.2542	8.5695	0.6486	0.1425	0.7369	-0.1271
3.2	-9.6791	-0.0010	-1.1741	0.0024	-0.0100	0.0112	39.5671	1.3092	8.5346	0.6485	0.1424	0.7368	-0.1271
3.21	-9.6737	-0.0090	-1.1764	0.0040	-0.0168	0.0119	39.7199	1.3620	8.5652	0.6486	0.1425	0.7369	-0.1271
3.22	-9.6725	-0.0056	-1.1742	0.0132	-0.0167	0.0127	39.6152	1.4275	8.5234	0.6485	0.1425	0.7368	-0.1271
3.23	-9.6797	-0.0033	-1.1628	0.0051	-0.0099	0.0099	39.4105	1.4365	8.5793	0.6485	0.1425	0.7369	-0.1271
3.24	-9.6735	-0.0023	-1.1676	0.0023	-0.0124	0.0075	39.3429	1.4216	8.6348	0.6485	0.1425	0.7369	-0.1271
3.25	-9.6695	-0.0011	-1.1672	0.0023	-0.0171	0.0131	39.5202	1.4294	8.6461	0.6485	0.1424	0.7368	-0.1271
3.26	-9.6725	-0.0089	-1.1782	0.0090	-0.0066	0.0108	39.6552	1.5252	8.5027	0.6486	0.1425	0.7369	-0.1272
3.27	-9.6708	-0.0127	-1.1820	0.0035	-0.0101	0.0097	39.3328	1.5100	8.6129	0.6485	0.1425	0.7369	-0.1271
3.28	-9.6741	-0.0063	-1.1705	0.0063	-0.0143	0.0153	39.5155	1.5084	8.5310	0.6485	0.1425	0.7369	-0.1271
3.29	-9.6771	0.0023	-1.1690	0.0015	-0.0080	0.0135	39.5659	1.5305	8.3144	0.6484	0.1425	0.7368	-0.1271
3.3	-9.6737	-0.0083	-1.1745	0.0094	-0.0151	0.0121	39.4241	1.3814	8.5219	0.6485	0.1425	0.7369	-0.1271
3.31	-9.6798	-0.0143	-1.1671	0.0159	-0.0203	0.0082	39.5097	1.3498	8.5422	0.6485	0.1425	0.7369	-0.1272
3.32	-9.6731	-0.0073	-1.1768	0.0059	-0.0154	0.0123	39.6086	1.3003	8.5591	0.6485	0.1425	0.7368	-0.1272
3.33	-9.6747	-0.0076	-1.1775	0.0003	-0.0098	0.0154	39.7230	1.0725	8.5406	0.6485	0.1425	0.7369	-0.1272
3.34	-9.6768	-0.0101	-1.1724	0.0014	-0.0134	0.0103	39.8023	1.1290	8.5955	0.6485	0.1425	0.7369	-0.1271
3.35	-9.6719	-0.0052	-1.1735	0.0009	-0.0172	0.0120	39.5532	1.2680	8.6633	0.6485	0.1425	0.7369	-0.1271
3.36	-9.6778	-0.0038	-1.1751	0.0031	-0.0213	0.0088	39.5345	1.2606	8.5568	0.6485	0.1425	0.7368	-0.1271
3.37	-9.6752	-0.0110	-1.1760	0.0033	-0.0252	0.0141	39.5426	1.1881	8.4169	0.6486	0.1425	0.7369	-0.1271
3.38	-9.6719	-0.0098	-1.1690	0.0044	-0.0210	0.0124	39.5759	1.2946	8.3909	0.6486	0.1425	0.7368	-0.1271
3.39	-9.6735	-0.0115	-1.1671	0.0001	-0.0184	0.0113	39.6677	1.2522	8.5527	0.6486	0.1425	0.7368	-0.1271
3.4	-9.6786	-0.0115	-1.1757	-0.0010	-0.0181	0.0158	39.4915	1.3496	8.6408	0.6486	0.1425	0.7368	-0.1271
3.41	-9.6705	-0.0131	-1.1737	-0.0030	-0.0207	0.0090	39.6029	1.4860	8.6171	0.6487	0.1424	0.7368	-0.1271
3.42	-9.6779	-0.0041	-1.1742	0.0078	-0.0128	0.0078	39.5719	1.3262	8.4892	0.6487	0.1424	0.7368	-0.1271
3.43	-9.6733	0.0047	-1.1791	0.0051	-0.0095	0.0095	39.5366	1.5062	8.6752	0.6486	0.1424	0.7367	-0.1271
3.44	-9.6779	0.0047	-1.1841	-0.0004	-0.0127	0.0129	39.4292	1.6979	8.4612	0.6487	0.1424	0.7368	-0.1271
3.45	-9.6747	0.0014	-1.1692	-0.0024	-0.0102	0.0126	39.5356	1.4185	8.3737	0.6486	0.1424	0.7368	-0.1270
3.46	-9.6674	0.0036	-1.1650	0.0030	-0.0172	0.0098	39.4734	1.4345	8.5332	0.6487	0.1424	0.7369	-0.1271
3.47	-9.6676	0.0017	-1.1786	-0.0026	-0.0208	0.0118	39.5387	1.4340	8.6561	0.6486	0.1424	0.7367	-0.1270
3.48	-9.6630	0.0025	-1.1809	-0.0034	-0.0182	0.0089	39.6252	1.5262	8.5798	0.6487	0.1423	0.7368	-0.1270
3.49	-9.6681	-0.0014	-1.1725	0.0001	-0.0148	0.0062	39.4968	1.3552	8.5916	0.6487	0.1423	0.7368	-0.1270
3.5	-9.6722	0.0050	-1.1660	-0.0019	-0.0155	0.0117	39.6150	1.3059	8.5957	0.6487	0.1423	0.7367	-0.1270
3.51	-9.6781	0.0031	-1.1585	-0.0036	-0.0115	0.0094	39.7365	0.9548	8.4288	0.6487	0.1423	0.7368	-0.1270
3.52	-9.6646	-0.0026	-1.1460	-0.0016	-0.0118	0.0056	39.7849	1.2409	8.5047	0.6487	0.1422	0.7368	-0.1270
3.53	-9.6723	0.0031	-1.1620	0.0016	-0.0102	0.0119	39.6141	1.4334	8.4111	0.6487	0.1422	0.7369	-0.1269
3.54	-9.6760	0.0026	-1.1646	0.0014	-0.0154	0.0144	39.6339	1.1250	8.5967	0.6486	0.1422	0.7368	-0.1269
3.55	-9.6725	-0.0007	-1.1613	0.0052	-0.0156	0.0108	39.4990	1.3588	8.5909	0.6487	0.1422	0.7368	-0.1269
3.56	-9.6697	-0.0158	-1.1618	0.0004	-0.0183	0.0099	39.4582	1.2433	8.5939	0.6487	0.1422	0.7368	-0.1269
3.57	-9.6684	-0.0119	-1.1593	-0.0036	-0.0140	0.0135	39.7138	1.2110	8.6038	0.6487	0.1422	0.7368	-0.1269
3.58	-9.6762	-0.0070	-1.1671	-0.0074	-0.0170	0.0099	39.6994	1.4040	8.3369	0.6487	0.1421	0.7368	-0.1268
3.59	-9.6735	-0.0177	-1.1534	-0.0030	-0.0190	0.0101	39.6063	1.4240	8.3726	0.6487	0.1421	0.7368	-0.1268
3.6	-9.6689	-0.0112	-1.1585	-0.0009	-0.0137	0.0085	39.6388	1.2605	8.4215	0.6488	0.1421	0.7368	-0.1268
3.61	-9.6771	-0.0129	-1.1779	-0.0102	-0.0157	0.0084	39.6002	1.3405	8.5501	0.6487	0.1420	0.7367	-0.1268
3.62	-9.6685	-0.0072	-1.1741	-0.0064	-0.0114	0.0082	39.8320	1.4684	8.6728	0.6488	0.1420	0.7369	-0.1267
3.63	-9.6672	-0.0254	-1.1703	0.0004	-0.0114	0.0120	40.0032	1.7125	8.7261	0.6487	0.1419	0.7368	-0.1267
3.64	-9.6831	-0.0334	-1.1822	-0.0001	-0.0111	0.0163	39.7762	1.5812	8.7474	0.6488	0.1420	0.7369	-0.1267
3.65	-9.6712	-0.0247	-1.1863	-0.0032	-0.0113	0.0131	39.5885	1.4002	8.7066	0.6487	0.1419	0.7368	-0.1266
3.66	-9.6676	-0.0228	-1.1834	-0.0020	-0.0209	0.0148	39.3632	1.2719	8.6271	0.6488	0.1419	0.7368	-0.1266
3.67	-9.6698	-0.0153	-1.1868	0.0007	-0.0124	0.0100	39.4169	1.3772	8.7426	0.6488	0.1419	0.7369	-0.1266
3.68	-9.6720	-0.0083	-1.1842	0.0085	-0.0123	0.0114	39.4792	1.3364	8.5961	0.6487	0.1419	0.7368	-0.1266
3.69	-9.6806	-0.0082	-1.1805	-0.0013	-0.0171	0.0147	39.3507	1.0880	8.6297	0.6488	0.1419	0.7369	-0.1266
3.7	-9.6744	-0.0092	-1.1765	0.0032	-0.0190	0.0175	39.6666	1.2054	8.5975	0.6488	0.1419	0.7368	-0.1266
3.71	-9.6830	-0.0021	-1.1699	0.0008	-0.0225	0.0153	39.7201	1.4613	8.4250	0.6489	0.1419	0.7369	-0.1266
3.72	-9.6684	-0.0043	-1.1640	0.0001	-0.0209	0.0141	39.6761	1.1676	8.5359	0.6488	0.1419	0.7367	-0.1265
3.73	-9.6743	0.0005	-1.1599	-0.0028	-0.0136	0.0093	39.7301	1.2140	8.6560	0.6488	0.1419	0.7368	-0.1265
3.74	-9.6790	0.0005	-1.1648	0.0005	-0.0135	0.0138	39.6031	1.2964	8.5759	0.6488	0.1419	0.7368	-0.1265
3.75	-9.6747	-0.0023	-1.1630	0.0063	-0.0143	0.0139	39.4346	1.1895	8.7314	0.6488	0.1419	0.7368	-0.1265
3.76	-9.6684	0.0036	-1.1602	0.0032	-0.0164	0.0136	39.4558	1.3268	8.5626	0.6489	0.1419	0.7369	-0.1265
3.77	-9.6753	0.0001	-1.1530	0.0097	-0.0158	0.0148	39.4873	1.1898	8.7105	0.6488	0.1419	0.7368	-0.1265
3.78	-9.6765	-0.0057	-1.1575	0.0024	-0.0105	0.0139	39.7457	1.2481	8.7988	0.6489	0.1420	0.7368	-0.1265
3.79	-9.6683	0.0034	-1.1504	0.0020	-0.0180	0.0152	39.5819	1.2164	8.4830	0.6488	0.1419	0.7367	-0.1264
3.8	-9.6768	0.0059	-1.1507	0.0018	-0.0208	0.0140	39.4611	1.3336	8.5572	0.6489	0.1420	0.7368	-0.1264
3.81	-9.6786	-0.0022	-1.1656	-0.0008	-0.0139	0.0146	39.5535	1.1369	8.6551	0.6489	0.1420	0.7368	-0.1264
3.82	-9.6746	-0.0042	-1.1646	-0.0039	-0.0220	0.0116	39.5385	1.4734	8.5188	0.6489	0.1419	0.7367	-0.1264
3.83	-9.6650	-0.0041	-1.1651	0.0013	-0.0150	0.0090	39.5181	1.4815	8.5295	0.6489	0.1419	0.7368	-0.1264
3.84	-9.6765	-0.0030	-1.1678	-0.0026	-0.0136	0.0137	39.4759	1.2198	8.5079	0.6489	0.1419	0.7367	-0.1263
3.85	-9.6838	-0.0015	-1.1724	0.0027	-0.0116	0.0094	39.7431	1.2697	8.6007	0.6489	0.1419	0.7368	-0.1263
3.86	-9.6720	-0.0107	-1.1633	-0.0044	-0.0186	0.0144	39.5963	1.4276	8.6189	0.6489	0.1419	0.7367	-0.1263
3.87	-9.6746	-0.0135	-1.1617	-0.0041	-0.0184	0.0115	39.5294	1.2480	8.6201	0.6490	0.1418	0.7368	-0.1263
3.88	-9.6781	-0.0134	-1.1794	-0.0056	-0.0190	0.0149	39.5384	1.2707	8.4351	0.6490	0.1418	0.7367	-0.1262
3.89	-9.6751	-0.0188	-1.1880	-0.0039	-0.0201	0.0121	39.5723	1.2821	8.5194	0.6490	0.1418	0.7367	-0.1262
3.9	-9.6689	-0.0171	-1.1838	-0.0098	-0.0253	0.0132	39.8304	1.1046	8.5328	0.6490	0.1417	0.7367	-0.1261
3.91	-9.6881	-0.0071	-1.1834	0.0009	-0.0214	0.0128	39.7123	1.1979	8.5694	0.6491	0.1417	0.7367	-0.1261
3.92	-9.6778	-0.0040	-1.1919	0.0023	-0.0168	0.0136	39.5697	1.2348	8.6053	0.6491	0.1417	0.7367	-0.1261
3.93	-9.6702	-0.0065	-1.1869	0.0009	-0.0230	0.0143	39.7115	1.2211	8.4101	0.6491	0.1417	0.7366	-0.1261
3.94	-9.6821	-0.0078	-1.1960	0.0063	-0.0202	0.0122	39.7025	1.4230	8.4685	0.6492	0.1417	0.7367	-0.1261
3.95	-9.6788	-0.0114	-1.1987	0.0023	-0.0202	0.0134	39.5442	1.2500	8.5490	0.6492	0.1417	0.7366	-0.1261
3.96	-9.6680	-0.0154	-1.1893	0.0020	-0.0225	0.0142	39.5904	1.4147	8.5036	0.6493	0.1417	0.7366	-0.1261
3.97	-9.6757	-0.0157	-1.1910	0.0007	-0.0198	0.0140	39.6477	1.2926	8.6328	0.6492	0.1417	0.7365	-0.1260
3.98	-9.6804	-0.0077	-1.1987	0.0064	-0.0150	0.0144	39.3573	1.3303	8.5968	0.6492	0.1417	0.7366	-0.1260
3.99	-9.6689	-0.0075	-1.1850	0.0058	-0.0168	0.0163	39.4426	1.2398	8.6398	0.6492	0.1418	0.7366	-0.1260
4	-9.6700	-0.0136	-1.1751	0.0061	-0.0151	0.0104	39.4451	1.2758	8.5214	0.6492	0.1418	0.7365	-0.1260
4.01	-9.6790	-0.0138	-1.1734	0.0038	-0.0237	0.0147	39.4913	1.4255	8.5306	0.6493	0.1418	0.7366	-0.1260
4.02	-9.6771	-0.0017	-1.1649	0.0088	-0.0198	0.0177	39.5016	1.4917	8.6404	0.6493	0.1418	0.7365	-0.1260
4.03	-9.6721	-0.0123	-1.1683	0.0003	-0.0192	0.0147	39.4809	1.4247	8.5576	0.6493	0.1418	0.7365	-0.1260
4.04	-9.6750	-0.0151	-1.1618	0.0021	-0.0156	0.0163	39.6449	1.2904	8.4061	0.6493	0.1418	0.7364	-0.1260
4.05	-9.6763	-0.0067	-1.1464	0.0036	-0.0192	0.0162	39.6083	1.3318	8.6028	0.6493	0.1418	0.7365	-0.1260
4.06	-9.6704	-0.0118	-1.1499	0.0028	-0.0234	0.0139	39.4433	1.2590	8.7208	0.6494	0.1418	0.7364	-0.1259
4.07	-9.6732	-0.0107	-1.1506	0.0003	-0.0178	0.0135	39.5794	1.2047	8.4273	0.6494	0.1418	0.7364	-0.1259
4.08	-9.6809	-0.0073	-1.1529	-0.0012	-0.0225	0.0144	39.7464	1.2571	8.4483	0.6494	0.1418	0.7364	-0.1259
4.09	-9.6729	-0.0048	-1.1477	-0.0035	-0.0192	0.0114	39.5327	1.1860	8.4520	0.6494	0.1418	0.7364	-0.1259
4.1	-9.6695	-0.0109	-1.1560	0.0023	-0.0215	0.0130	39.5970	1.1257	8.6297	0.6495	0.1418	0.7364	-0.1259
4.11	-9.6775	-0.0110	-1.1639	0.0080	-0.0195	0.0121	39.6229	1.2148	8.6004	0.6494	0.1418	0.7363	-0.1259
4.12	-9.6731	-0.0085	-1.1534	-0.0049	-0.0206	0.0139	39.6075	1.3612	8.7499	0.6495	0.1418	0.7364	-0.1258
4.13	-9.6682	-0.0054	-1.1577	0.0038	-0.0181	0.0157	40.0491	1.3835	8.7893	0.6495	0.1418	0.7363	-0.1258
4.14	-9.6786	-0.0064	-1.1638	0.0027	-0.0179	0.0133	39.8610	1.5044	8.8832	0.6495	0.1418	0.7364	-0.1258
4.15	-9.6750	-0.0016	-1.1719	0.0095	-0.0135	0.0130	39.6784	1.4871	8.9265	0.6495	0.1418	0.7363	-0.1258
4.16	-9.6714	0.0031	-1.1698	0.0044	-0.0134	0.0148	39.4218	1.4005	8.6059	0.6495	0.1418	0.7363	-0.1258
4.17	-9.6742	-0.0054	-1.1842	-0.0052	-0.0198	0.0124	39.3911	1.3345	8.6882	0.6495	0.1418	0.7364	-0.1258
4.18	-9.6789	0.0029	-1.1822	-0.0031	-0.0172	0.0078	39.5084	1.3612	8.7061	0.6495	0.1417	0.7363	-0.1258
4.19	-9.6702	0.0001	-1.1753	0.0005	-0.0197	0.0108	39.2234	1.6223	8.6142	0.6496	0.1417	0.7364	-0.1258
4.2	-9.6677	0.0079	-1.1850	0.0028	-0.0209	0.0132	39.5037	1.3498	8.8513	0.6496	0.1417	0.7363	-0.1257
4.21	-9.6859	-0.0008	-1.1860	-0.0053	-0.0216	0.0105	39.5412	1.3199	8.5009	0.6497	0.1417	0.7364	-0.1257
4.22	-9.6769	-0.0120	-1.1938	-0.0073	-0.0216	0.0111	39.5513	1.2344	8.6323	0.6496	0.1416	0.7362	-0.1257
4.23	-9.6774	-0.0018	-1.1810	0.0001	-0.0205	0.0134	39.4876	1.1270	8.9751	0.6497	0.1416	0.7363	-0.1257
4.24	-9.6784	-0.0100	-1.1854	0.0000	-0.0273	0.0127	39.3045	1.3354	8.7559	0.6497	0.1416	0.7362	-0.1257
4.25	-9.6840	-0.0140	-1.1828	0.0006	-0.0194	0.0109	39.5267	1.2365	8.6207	0.6497	0.1416	0.7362	-0.1256
4.26	-9.6722	-0.0096	-1.1778	0.0014	-0.0156	0.0111	39.7381	1.1550	8.5272	0.6498	0.1416	0.7363	-0.1256
4.27	-9.6701	-0.0145	-1.1724	-0.0067	-0.0201	0.0118	39.7933	1.1341	8.5610	0.6497	0.1415	0.7362	-0.1256
4.28	-9.6918	-0.0042	-1.1744	-0.0062	-0.0143	0.0145	39.7766	1.0356	8.5176	0.6498	0.1415	0.7363	-0.1256
4.29	-9.6738	-0.0061	-1.1807	0.0002	-0.0187	0.0138	39.7798	1.1836	8.6591	0.6497	0.1415	0.7362	-0.1255
4.3	-9.6746	-0.0103	-1.1651	-0.0012	-0.0190	0.0085	39.7759	1.1334	8.5856	0.6498	0.1415	0.7362	-0.1255
4.31	-9.6733	-0.0101	-1.1741	-0.0045	-0.0179	0.0087	39.7755	1.2108	8.5733	0.6498	0.1414	0.7362	-0.1255
4.32	-9.6747	-0.0143	-1.1698	0.0031	-0.0181	0.0083	39.5198	1.2579	8.6567	0.6498	0.1414	0.7362	-0.1255
4.33	-9.6785	-0.0131	-1.1538	-0.0044	-0.0213	0.0090	39.5660	1.1265	8.5167	0.6498	0.1414	0.7362	-0.1255
4.34	-9.6764	-0.0124	-1.1516	0.0005	-0.0201	0.0069	39.3641	1.4297	8.5349	0.6498	0.1413	0.7362	-0.1255
4.35	-9.6775	-0.0026	-1.1571	-0.0041	-0.0156	0.0081	39.4890	1.4827	8.7555	0.6499	0.1413	0.7362	-0.1255
4.36	-9.6772	-0.0055	-1.1620	-0.0014	-0.0159	0.0137	39.5437	1.1801	8.8402	0.6498	0.1413	0.7361	-0.1254
4.37	-9.6794	-0.0031	-1.1621	-0.0039	-0.0180	0.0071	39.5499	1.3976	8.4388	0.6499	0.1412	0.7362	-0.1254
4.38	-9.6798	-0.0008	-1.1633	-0.0042	-0.0221	0.0082	39.4902	1.4774	8.4766	0.6499	0.1412	0.7362	-0.1254
4.39	-9.6680	-0.0097	-1.1664	-0.0024	-0.0206	0.0082	39.4924	1.3106	8.6136	0.6499	0.1412	0.7362	-0.1254
4.4	-9.6698	-0.0092	-1.1631	-0.0031	-0.0219	0.0088	39.6461	1.2986	8.7186	0.6499	0.1411	0.7362	-0.1254
4.41	-9.6764	-0.0068	-1.1713	-0.0027	-0.0164	0.0117	39.5885	1.6065	8.7050	0.6499	0.1411	0.7362	-0.1254
4.42	-9.6748	-0.0137	-1.1644	-0.0010	-0.0150	0.0101	39.4655	1.4016	8.6745	0.6499	0.1411	0.7362	-0.1253
4.43	-9.6699	-0.0207	-1.1645	0.0016	-0.0172	0.0151	39.4553	1.2105	8.4947	0.6499	0.1410	0.7361	-0.1253
4.44	-9.6724	-0.0247	-1.1655	0.0051	-0.0220	0.0141	39.4508	1.2252	8.6847	0.6500	0.1411	0.7362	-0.1253
4.45	-9.6813	-0.0221	-1.1753	-0.0038	-0.0175	0.0140	39.6247	1.1466	8.5193	0.6500	0.1410	0.7362	-0.1253
4.46	-9.6751	-0.0333	-1.1836	0.0018	-0.0093	0.0144	39.7935	1.1025	8.4685	0.6500	0.1411	0.7362	-0.1253
4.47	-9.6763	-0.0287	-1.1805	0.0042	-0.0166	0.0118	39.7760	1.0573	8.7693	0.6499	0.1410	0.7361	-0.1253
4.48	-9.6787	-0.0235	-1.1871	-0.0004	-0.0144	0.0111	39.7588	1.3028	8.6820	0.6500	0.1410	0.7362	-0.1253
4.49	-9.6749	-0.0079	-1.1844	0.0057	-0.0170	0.0147	39.4957	1.1659	8.5656	0.6500	0.1410	0.7362	-0.1252
4.5	-9.6686	-0.0040	-1.1798	-0.0045	-0.0210	0.0142	39.6497	1.1348	8.5097	0.6499	0.1410	0.7361	-0.1252
4.51	-9.6689	-0.0039	-1.1886	0.0013	-0.0151	0.0131	39.4913	1.2698	8.6664	0.6500	0.1410	0.7362	-0.1252
4.52	-9.6702	0.0039	-1.1835	0.0026	-0.0108	0.0097	39.4903	1.3063	8.5621	0.6499	0.1410	0.7362	-0.1252
4.53	-9.6736	-0.0026	-1.1728	0.0086	-0.0213	0.0144	39.5396	0.9412	8.7929	0.6500	0.1410	0.7362	-0.1252
4.54	-9.6743	-0.0066	-1.1775	0.0010	-0.0155	0.0118	39.6105	1.2350	8.7325	0.6499	0.1410	0.7361	-0.1252
4.55	-9.6770	-0.0141	-1.1724	0.0016	-0.0139	0.0133	39.7104	1.4738	8.4697	0.6500	0.1410	0.7362	-0.1252
4.56	-9.6624	-0.0029	-1.1693	0.0054	-0.0138	0.0096	39.5726	1.3066	8.5972	0.6500	0.1410	0.7362	-0.1252
4.57	-9.6678	0.0058	-1.1674	0.0020	-0.0162	0.0101	39.6563	1.3978	8.6959	0.6499	0.1410	0.7362	-0.1252
4.58	-9.6727	0.0104	-1.1546	0.0035	-0.0168	0.0027	39.4856	1.4760	8.7217	0.6500	0.1409	0.7362	-0.1252
4.59	-9.6743	0.0204	-1.1634	0.0009	-0.0171	0.0089	39.4813	1.3953	8.6758	0.6499	0.1409	0.7362	-0.1252
4.6	-9.6694	0.0378	-1.1529	-0.0029	-0.0169	0.0099	39.5550	1.1464	8.7895	0.6500	0.1409	0.7363	-0.1252
4.61	-9.6576	0.0316	-1.1426	-0.0061	-0.0135	0.0117	39.5092	1.3130	8.7883	0.6499	0.1408	0.7362	-0.1251
4.62	-9.6789	0.0163	-1.1486	-0.0014	-0.0171	0.0088	39.7349	1.4079	8.9259	0.6500	0.1408	0.7363	-0.1251
4.63	-9.6720	-0.0036	-1.1434	0.0108	-0.0138	0.0100	39.9496	1.3078	8.8084	0.6499	0.1408	0.7363	-0.1252
4.64	-9.6714	-0.0173	-1.1527	0.0086	-0.0212	0.0154	39.8376	1.2711	8.6254	0.6500	0.1409	0.7363	-0.1252
4.65	-9.6695	-0.0170	-1.1472	0.0064	-0.0181	0.0135	39.6680	1.2765	8.7762	0.6499	0.1409	0.7362	-0.1252
4.66	-9.6924	-0.0169	-1.1609	0.0087	-0.0232	0.0125	39.6693	1.2362	8.5887	0.6500	0.1409	0.7362	-0.1252
4.67	-9.6658	-0.0115	-1.1613	0.0032	-0.0194	0.0153	39.7108	1.2474	8.5608	0.6500	0.1409	0.7362	-0.1252
4.68	-9.6684	-0.0131	-1.1662	0.0116	-0.0165	0.0138	39.6499	1.1633	8.4833	0.6499	0.1409	0.7361	-0.1252
4.69	-9.6742	-0.0124	-1.1646	0.0049	-0.0213	0.0130	39.4112	1.2356	8.4466	0.6500	0.1409	0.7362	-0.1252
4.7	-9.6716	-0.0136	-1.1686	0.0131	-0.0206	0.0120	39.2499	1.2452	8.6421	0.6500	0.1409	0.7362	-0.1253
4.71	-9.6799	-0.0230	-1.1746	0.0041	-0.0248	0.0162	39.6311	1.1784	8.5759	0.6501	0.1409	0.7362	-0.1253
4.72	-9.6777	-0.0371	-1.1820	0.0008	-0.0192	0.0132	39.5349	1.1241	8.5447	0.6500	0.1409	0.7361	-0.1252
4.73	-9.6781	-0.0269	-1.1947	-0.0001	-0.0159	0.0142	39.4453	1.4188	8.6736	0.6501	0.1409	0.7361	-0.1252
4.74	-9.6727	-0.0298	-1.1984	0.0031	-0.0132	0.0140	39.4243	1.4846	8.7601	0.6500	0.1409	0.7361	-0.1252
4.75	-9.6812	-0.0226	-1.2036	0.0073	-0.0134	0.0140	39.3269	1.2082	8.6171	0.6500	0.1409	0.7361	-0.1252
4.76	-9.6703	-0.0287	-1.2045	-0.0054	-0.0206	0.0145	39.6070	1.3419	8.6753	0.6501	0.1409	0.7362	-0.1252
4.77	-9.6754	-0.0227	-1.1960	0.0022	-0.0157	0.0149	39.4570	1.2989	8.5619	0.6500	0.1409	0.7361	-0.1252
4.78	-9.6784	-0.0237	-1.1895	-0.0048	-0.0112	0.0137	39.5583	1.1429	8.6378	0.6501	0.1409	0.7362	-0.1251
4.79	-9.6738	-0.0182	-1.1937	-0.0012	-0.0199	0.0146	39.7387	1.2343	8.5583	0.6500	0.1409	0.7361	-0.1251
4.8	-9.6767	-0.0182	-1.1832	0.0020	-0.0206	0.0139	39.6718	1.4663	8.3545	0.6501	0.1409	0.7362	-0.1251
4.81	-9.6689	-0.0170	-1.1674	-0.0027	-0.0213	0.0156	39.5978	1.3161	8.6813	0.6501	0.1409	0.7361	-0.1250
4.82	-9.6731	-0.0156	-1.1852	0.0104	-0.0170	0.0143	39.6772	1.1134	8.5811	0.6501	0.1409	0.7361	-0.1251
4.83	-9.6715	-0.0049	-1.1743	0.0194	-0.0144	0.0138	39.8223	1.3768	8.3416	0.6501	0.1409	0.7362	-0.1251
4.84	-9.6695	-0.0001	-1.1649	0.0045	-0.0160	0.0144	39.8534	1.2702	8.4359	0.6501	0.1409	0.7361	-0.1251
4.85	-9.6743	-0.0151	-1.1625	0.0037	-0.0152	0.0146	39.5286	1.2671	8.4645	0.6501	0.1410	0.7362	-0.1251
4.86	-9.6713	-0.0260	-1.1701	0.0074	-0.0152	0.0143	39.6185	1.4279	8.5432	0.6500	0.1410	0.7361	-0.1251
4.87	-9.6791	-0.0204	-1.1634	0.0096	-0.0145	0.0138	39.6201	1.3903	8.6571	0.6501	0.1410	0.7362	-0.1251
4.88	-9.6674	-0.0192	-1.1472	0.0118	-0.0158	0.0125	39.6285	1.4095	8.6417	0.6500	0.1410	0.7361	-0.1251
4.89	-9.6744	-0.0083	-1.1572	0.0108	-0.0186	0.0141	39.8165	1.1497	8.5958	0.6500	0.1410	0.7362	-0.1252
4.9	-9.6782	-0.0095	-1.1518	0.0100	-0.0183	0.0150	39.6716	1.1724	8.4445	0.6500	0.1411	0.7361	-0.1252
4.91	-9.6674	0.0246	-1.1547	0.0100	-0.0193	0.0172	39.5207	1.2403	8.4869	0.6500	0.1411	0.7361	-0.1252
4.92	-9.6681	0.0150	-1.1497	-0.0023	-0.0175	0.0137	39.3571	1.4626	8.4287	0.6501	0.1411	0.7361	-0.1252
4.93	-9.6676	0.0132	-1.1523	0.0022	-0.0184	0.0105	39.5416	1.4225	8.5532	0.6500	0.1411	0.7361	-0.1252
4.94	-9.6722	0.0205	-1.1480	0.0067	-0.0195	0.0134	39.6090	1.3039	8.6447	0.6501	0.1411	0.7361	-0.1252
4.95	-9.6680	0.0081	-1.1421	0.0032	-0.0172	0.0123	39.5538	1.3009	8.6684	0.6500	0.1411	0.7361	-0.1252
4.96	-9.6671	0.0153	-1.1516	0.0046	-0.0238	0.0107	39.6218	1.1921	8.7853	0.6501	0.1411	0.7361	-0.1252
4.97	-9.6731	0.0130	-1.1510	0.0029	-0.0120	0.0157	39.2476	1.3519	8.5107	0.6500	0.1411	0.7361	-0.1252
4.98	-9.6750	0.0024	-1.1537	0.0063	-0.0149	0.0155	39.4366	1.1641	8.5817	0.6501	0.1411	0.7361	-0.1252
4.99	-9.6793	-0.0089	-1.1611	0.0070	-0.0161	0.0162	39.6369	1.1971	8.8706	0.6501	0.1411	0.7361	-0.1252
5	-9.6734	-0.0098	-1.1682	-0.0051	-0.0203	0.0169	39.5233	1.2649	8.6431	0.6500	0.1411	0.7361	-0.1251
5.01	-9.6733	-0.0187	-1.1671	0.0067	-0.0202	0.0150	39.5703	1.2063	8.5491	0.6501	0.1411	0.7361	-0.1251
5.02	-9.6856	-0.0243	-1.1760	0.0030	-0.0104	0.0132	39.7291	1.4265	8.6729	0.6501	0.1411	0.7361	-0.1251
5.03	-9.6859	-0.0348	-1.1795	0.0108	-0.0147	0.0156	39.7028	1.2904	8.6253	0.6501	0.1411	0.7362	-0.1251
5.04	-9.6705	-0.0375	-1.1777	0.0090	-0.0178	0.0138	39.6144	1.1314	8.6612	0.6500	0.1411	0.7360	-0.1251
5.05	-9.6860	-0.0664	-1.1967	0.0038	-0.0191	0.0120	39.5296	1.2660	8.6238	0.6501	0.1412	0.7361	-0.1252
5.06	-9.6767	-0.0767	-1.1994	0.0053	-0.0196	0.0115	39.5226	1.2218	8.6703	0.6501	0.1411	0.7361	-0.1252
5.07	-9.6693	-0.0463	-1.1991	0.0070	-0.0123	0.0160	39.6214	1.2550	8.5524	0.6500	0.1412	0.7361	-0.1252
5.08	-9.6877	-0.0191	-1.2143	0.0045	-0.0177	0.0154	39.6072	1.1412	8.5688	0.6501	0.1412	0.7361	-0.1252
5.09	-9.6803	0.0000	-1.1876	0.0079	-0.0142	0.0106	39.6658	1.1680	8.5337	0.6500	0.1412	0.7361	-0.1252
5.1	-9.6660	0.0289	-1.1712	0.0088	-0.0114	0.0096	39.4805	1.3378	8.6296	0.6500	0.1412	0.7362	-0.1252
5.11	-9.6723	0.0477	-1.1652	-0.0003	-0.0183	0.0151	39.5223	1.2233	8.6126	0.6500	0.1412	0.7361	-0.1252
5.12	-9.6829	0.0355	-1.1650	-0.0009	-0.0083	0.0143	39.6200	1.2618	9.0164	0.6500	0.1412	0.7362	-0.1252
5.13	-9.6726	0.0221	-1.1661	-0.0034	-0.0203	0.0153	39.6481	1.4722	8.8775	0.6500	0.1412	0.7361	-0.1251
5.14	-9.6693	-0.0082	-1.1635	-0.0066	-0.0177	0.0138	39.6802	1.3076	8.8259	0.6500	0.1411	0.7362	-0.1251
5.15	-9.6625	-0.0071	-1.1487	-0.0005	-0.0120	0.0118	39.5323	1.4355	8.7047	0.6500	0.1411	0.7362	-0.1251
5.16	-9.6774	-0.0056	-1.1578	0.0000	-0.0188	0.0124	39.4431	1.2279	8.6344	0.6500	0.1411	0.7362	-0.1250
5.17	-9.6740	-0.0075	-1.1627	0.0017	-0.0140	0.0147	39.5825	1.1727	8.5513	0.6500	0.1411	0.7362	-0.1250
5.18	-9.6736	0.0109	-1.1459	0.0022	-0.0163	0.0094	39.3505	1.3620	8.6073	0.6499	0.1411	0.7361	-0.1250
5.19	-9.6776	0.0200	-1.1518	-0.0012	-0.0143	0.0111	39.4796	1.2107	8.5180	0.6500	0.1411	0.7362	-0.1250
5.2	-9.6706	0.0261	-1.1540	0.0025	-0.0193	0.0146	39.5522	1.1400	8.2827	0.6500	0.1411	0.7362	-0.1250
5.21	-9.6805	0.0221	-1.1635	0.0041	-0.0147	0.0139	39.7792	1.2346	8.4839	0.6500	0.1411	0.7363	-0.1250
5.22	-9.6778	0.0210	-1.1701	-0.0019	-0.0139	0.0077	39.6203	1.3369	8.4016	0.6499	0.1410	0.7362	-0.1250
5.23	-9.6787	0.0066	-1.1797	-0.0028	-0.0149	0.0084	39.3735	1.3371	8.6369	0.6500	0.1410	0.7362	-0.1250
5.24	-9.6664	-0.0029	-1.1630	-0.0005	-0.0154	0.0049	39.5598	1.1122	8.4751	0.6500	0.1409	0.7363	-0.1250
5.25	-9.6814	-0.0233	-1.1781	-0.0039	-0.0143	0.0099	39.7164	1.0836	8.2889	0.6499	0.1409	0.7362	-0.1250
5.26	-9.6846	-0.0422	-1.1943	0.0009	-0.0131	0.0110	39.5917	1.0669	8.6253	0.6500	0.1409	0.7363	-0.1250
5.27	-9.6664	-0.0566	-1.1737	-0.0012	-0.0155	0.0148	39.5019	1.1330	8.4500	0.6499	0.1409	0.7363	-0.1249
5.28	-9.6752	-0.0592	-1.1793	-0.0049	-0.0121	0.0133	39.5789	1.1470	8.5070	0.6500	0.1409	0.7364	-0.1249
5.29	-9.6713	-0.0508	-1.1863	-0.0046	-0.0098	0.0100	39.3271	1.3376	8.6275	0.6499	0.1408	0.7363	-0.1249
5.3	-9.6716	-0.0367	-1.1791	-0.0050	-0.0090	0.0140	39.5165	1.4061	8.5064	0.6499	0.1408	0.7364	-0.1248
5.31	-9.6780	-0.0126	-1.1953	-0.0041	-0.0090	0.0104	39.6366	1.3248	8.5590	0.6499	0.1408	0.7364	-0.1248
5.32	-9.6712	-0.0172	-1.1871	-0.0044	-0.0095	0.0082	39.5985	1.5307	8.7431	0.6498	0.1407	0.7364	-0.1248
5.33	-9.6684	-0.0386	-1.1732	-0.0006	-0.0067	0.0116	39.5204	1.4660	8.5581	0.6498	0.1407	0.7365	-0.1248
5.34	-9.6915	-0.0184	-1.2112	0.0010	-0.0138	0.0119	39.4211	1.5275	8.5775	0.6498	0.1407	0.7365	-0.1248
5.35	-9.6664	-0.0011	-1.1942	0.0016	-0.0159	0.0076	39.4670	1.4143	8.5590	0.6498	0.1407	0.7365	-0.1248
5.36	-9.6424	-0.0131	-1.1573	-0.0023	-0.0134	0.0119	39.4237	1.4214	8.5275	0.6497	0.1406	0.7365	-0.1247
5.37	-9.7030	-0.0501	-1.1755	-0.0031	-0.0137	0.0129	39.5711	1.3818	8.5965	0.6498	0.1406	0.7366	-0.1247
5.38	-9.6757	-0.0562	-1.1565	0.0047	-0.0200	0.0100	39.9051	1.2021	8.5934	0.6498	0.1406	0.7365	-0.1247
5.39	-9.6799	-0.0562	-1.1631	0.0006	-0.0156	0.0162	39.6900	1.3008	8.7989	0.6498	0.1406	0.7366	-0.1247
5.4	-9.6910	-0.0305	-1.1814	0.0023	-0.0103	0.0160	39.6877	1.0391	8.4762	0.6497	0.1406	0.7365	-0.1247
5.41	-9.6734	-0.0084	-1.1744	0.0042	-0.0196	0.0116	39.7974	1.2504	8.5993	0.6497	0.1406	0.7366	-0.1247
5.42	-9.6639	0.0191	-1.1459	0.0081	-0.0158	0.0138	39.7353	1.2024	8.6364	0.6497	0.1406	0.7366	-0.1247
5.43	-9.6690	0.0405	-1.1377	0.0131	-0.0142	0.0128	39.5189	1.1374	8.5691	0.6497	0.1407	0.7365	-0.1247
5.44	-9.6721	0.0445	-1.1302	0.0029	-0.0173	0.0082	39.5410	1.2851	8.3769	0.6498	0.1407	0.7366	-0.1248
5.45	-9.6783	0.0479	-1.1280	0.0062	-0.0118	0.0156	39.5144	1.0638	8.5794	0.6497	0.1407	0.7366	-0.1248
5.46	-9.6805	0.0351	-1.1310	0.0036	-0.0127	0.0172	39.5954	1.1622	8.5749	0.6497	0.1407	0.7366	-0.1247
5.47	-9.6719	0.0306	-1.1289	0.0028	-0.0132	0.0125	39.6208	1.1562	8.5224	0.6496	0.1407	0.7366	-0.1247
5.48	-9.6606	0.0229	-1.1330	0.0026	-0.0097	0.0082	39.5935	1.1997	8.7642	0.6496	0.1407	0.7366	-0.1247
5.49	-9.6608	0.0068	-1.1407	0.0017	-0.0071	0.0145	39.6188	1.4127	8.6729	0.6496	0.1407	0.7367	-0.1247
5.5	-9.6734	-0.0013	-1.1410	0.0064	-0.0095	0.0110	39.5563	1.1407	8.4323	0.6495	0.1407	0.7366	-0.1247
5.51	-9.6669	0.0663	-1.1457	0.0028	-0.0146	0.0131	39.3230	1.2636	8.5674	0.6496	0.1407	0.7368	-0.1247
5.52	-9.6637	0.0961	-1.1648	0.0004	-0.0093	0.0127	39.4275	1.3640	8.5952	0.6495	0.1407	0.7367	-0.1247
5.53	-9.6644	0.0828	-1.1473	-0.0021	-0.0118	0.0120	39.6394	1.4648	8.5058	0.6496	0.1406	0.7368	-0.1247
5.54	-9.6882	0.0149	-1.1797	0.0086	-0.0066	0.0095	39.5205	1.2144	8.5356	0.6494	0.1406	0.7367	-0.1247
5.55	-9.6801	-0.0396	-1.1770	0.0062	-0.0126	0.0124	39.4220	1.2806	8.6615	0.6495	0.1406	0.7368	-0.1247
5.56	-9.6434	-0.0388	-1.1631	0.0054	-0.0099	0.0119	39.6510	1.1609	8.7040	0.6494	0.1406	0.7368	-0.1247
5.57	-9.6822	-0.0534	-1.1935	0.0077	-0.0100	0.0118	39.9793	0.9911	8.5273	0.6494	0.1407	0.7368	-0.1247
5.58	-9.6920	-0.0540	-1.2096	0.0048	-0.0187	0.0152	39.7235	1.0820	8.5617	0.6494	0.1407	0.7369	-0.1247
5.59	-9.6680	-0.0678	-1.2084	0.0101	-0.0144	0.0123	39.7067	1.2587	8.5153	0.6494	0.1407	0.7368	-0.1247
5.6	-9.6814	-0.0528	-1.2270	0.0027	-0.0124	0.0146	39.8109	1.3382	8.5957	0.6494	0.1407	0.7369	-0.1247
5.61	-9.6820	-0.0396	-1.2296	0.0098	-0.0143	0.0103	39.6645	1.0489	8.7157	0.6493	0.1407	0.7368	-0.1247
5.62	-9.6686	-0.0277	-1.2195	0.0050	-0.0144	0.0157	39.6955	1.1972	8.8362	0.6494	0.1407	0.7369	-0.1248
5.63	-9.6744	-0.0243	-1.2226	0.0002	-0.0170	0.0154	40.1024	1.4709	8.9085	0.6494	0.1407	0.7369	-0.1247
5.64	-9.6690	-0.0277	-1.2107	-0.0051	-0.0160	0.0142	39.9483	1.4832	8.8610	0.6494	0.1407	0.7369	-0.1247
5.65	-9.6709	-0.0392	-1.1968	-0.0025	-0.0174	0.0163	39.7166	1.2601	8.7322	0.6494	0.1407	0.7369	-0.1247
5.66	-9.6775	-0.0492	-1.1980	0.0013	-0.0142	0.0101	39.2996	1.2327	8.6462	0.6494	0.1407	0.7369	-0.1247
5.67	-9.6741	-0.0651	-1.1727	0.0056	-0.0184	0.0128	39.3638	1.5422	8.5983	0.6494	0.1407	0.7369	-0.1247
5.68	-9.6651	-0.0619	-1.1640	0.0031	-0.0207	0.0133	39.6729	1.2079	8.4431	0.6493	0.1406	0.7368	-0.1247
5.69	-9.6675	-0.0527	-1.1683	-0.0007	-0.0155	0.0161	39.5981	1.2580	8.6030	0.6494	0.1407	0.7369	-0.1246
5.7	-9.6705	-0.0309	-1.1538	0.0067	-0.0172	0.0154	39.6635	1.2905	8.4996	0.6494	0.1407	0.7369	-0.1246
5.71	-9.6717	-0.0053	-1.1516	0.0068	-0.0193	0.0137	39.5433	1.2036	8.4615	0.6495	0.1407	0.7369	-0.1247
5.72	-9.6726	0.0205	-1.1455	0.0078	-0.0174	0.0148	39.6396	1.2336	8.5511	0.6494	0.1407	0.7368	-0.1247
5.73	-9.6687	0.0335	-1.1506	0.0003	-0.0200	0.0133	39.4984	1.2390	8.4804	0.6494	0.1407	0.7368	-0.1246
5.74	-9.6703	0.0297	-1.1369	0.0098	-0.0218	0.0143	39.3135	1.1663	8.5856	0.6494	0.1407	0.7368	-0.1247
5.75	-9.6739	0.0255	-1.1417	0.0082	-0.0150	0.0199	39.5585	1.1384	8.4937	0.6494	0.1407	0.7368	-0.1247
5.76	-9.6843	0.0462	-1.1347	0.0015	-0.0202	0.0144	39.6340	1.1327	8.4282	0.6495	0.1407	0.7369	-0.1247
5.77	-9.6609	0.0702	-1.1281	0.0035	-0.0229	0.0148	39.5209	1.3274	8.4362	0.6495	0.1407	0.7368	-0.1246
5.78	-9.6649	0.0760	-1.1289	0.0041	-0.0160	0.0146	39.5978	1.3875	8.3975	0.6495	0.1407	0.7368	-0.1246
5.79	-9.6915	0.0536	-1.1561	0.0025	-0.0182	0.0147	39.7509	1.1176	8.4780	0.6494	0.1407	0.7367	-0.1246
5.8	-9.6549	0.0122	-1.1409	-0.0033	-0.0213	0.0143	39.4425	1.0472	8.5559	0.6495	0.1407	0.7368	-0.1246
5.81	-9.6646	-0.0072	-1.1361	0.0060	-0.0157	0.0165	39.4316	1.2542	8.4728	0.6495	0.1407	0.7368	-0.1246
5.82	-9.6788	-0.0263	-1.1510	-0.0010	-0.0136	0.0123	39.7229	1.3535	8.6174	0.6495	0.1407	0.7368	-0.1246
5.83	-9.6753	-0.0302	-1.1494	0.0090	-0.0188	0.0141	39.7168	1.1905	8.4228	0.6495	0.1407	0.7368	-0.1246
5.84	-9.6771	-0.0134	-1.1596	0.0057	-0.0126	0.0149	39.6796	1.2767	8.5267	0.6495	0.1407	0.7368	-0.1246
5.85	-9.6790	-0.0102	-1.1689	0.0041	-0.0159	0.0132	39.6097	1.3286	8.3645	0.6495	0.1408	0.7368	-0.1246
5.86	-9.6739	0.0025	-1.1776	0.0019	-0.0170	0.0131	39.6511	1.2401	8.4804	0.6494	0.1407	0.7367	-0.1246
5.87	-9.6776	0.0047	-1.1736	0.0052	-0.0138	0.0044	39.4091	1.1916	8.6544	0.6495	0.1407	0.7368	-0.1246
5.88	-9.6774	-0.0076	-1.1949	0.0041	-0.0126	0.0093	39.5262	1.1531	8.6998	0.6495	0.1407	0.7368	-0.1246
5.89	-9.6774	-0.0207	-1.1969	0.0029	-0.0139	0.0162	39.5481	1.3272	8.6893	0.6495	0.1407	0.7368	-0.1246
5.9	-9.6776	-0.0415	-1.2192	-0.0018	-0.0149	0.0115	39.5473	1.2209	8.5310	0.6494	0.1407	0.7368	-0.1246
5.91	-9.6694	-0.0498	-1.2161	0.0015	-0.0145	0.0150	39.5430	1.3299	8.5630	0.6494	0.1407	0.7368	-0.1246
5.92	-9.6721	-0.0641	-1.2145	0.0070	-0.0150	0.0142	39.7399	1.3073	8.5728	0.6495	0.1407	0.7368	-0.1246
5.93	-9.6870	-0.0666	-1.2243	0.0067	-0.0168	0.0149	39.5422	1.3131	8.4622	0.6494	0.1407	0.7368	-0.1246
5.94	-9.6812	-0.0507	-1.2141	0.0101	-0.0204	0.0145	39.5555	1.2187	8.5855	0.6495	0.1408	0.7368	-0.1246
5.95	-9.6732	-0.0305	-1.2008	0.0083	-0.0275	0.0145	39.7933	1.3596	8.5120	0.6495	0.1408	0.7367	-0.1246
5.96	-9.6796	-0.0188	-1.2119	0.0039	-0.0245	0.0185	39.7951	1.2362	8.4872	0.6496	0.1408	0.7368	-0.1246
5.97	-9.6684	-0.0048	-1.1990	0.0066	-0.0223	0.0169	39.7025	1.2239	8.8042	0.6495	0.1408	0.7367	-0.1246
5.98	-9.6665	0.0024	-1.1761	0.0071	-0.0240	0.0144	39.6940	1.2387	8.5387	0.6496	0.1408	0.7367	-0.1246
5.99	-9.6853	-0.0090	-1.1666	-0.0024	-0.0165	0.0126	39.5718	1.2102	8.3139	0.6496	0.1408	0.7367	-0.1246
6	-9.6634	-0.0085	-1.1392	0.0048	-0.0225	0.0131	39.5240	1.3039	8.4958	0.6496	0.1408	0.7366	-0.1246
6.01	-9.6439	-0.0000	-1.1298	0.0075	-0.0164	0.0121	39.6673	1.3202	8.4458	0.6497	0.1408	0.7367	-0.1246
6.02	-9.6799	-0.0026	-1.1425	0.0091	-0.0202	0.0095	39.5771	1.1710	8.6554	0.6496	0.1408	0.7366	-0.1247
6.03	-9.6953	0.0099	-1.1368	0.0079	-0.0186	0.0126	39.5388	1.3305	8.5695	0.6497	0.1408	0.7367	-0.1247
6.04	-9.6774	0.0371	-1.1379	-0.0016	-0.0221	0.0156	39.5377	1.2036	8.5678	0.6496	0.1408	0.7365	-0.1247
6.05	-9.6517	0.0351	-1.1472	0.0010	-0.0212	0.0122	39.6736	1.2702	8.4176	0.6497	0.1408	0.7366	-0.1247
6.06	-9.6636	0.0399	-1.1656	-0.0005	-0.0160	0.0106	39.5369	1.2800	8.5875	0.6497	0.1408	0.7366	-0.1247
6.07	-9.6711	0.0312	-1.1654	0.0046	-0.0049	0.0140	39.4024	1.2033	8.6604	0.6496	0.1408	0.7366	-0.1246
6.08	-9.6606	0.0123	-1.1703	0.0061	-0.0145	0.0126	39.6891	1.1510	8.6636	0.6497	0.1408	0.7366	-0.1247
6.09	-9.6737	-0.0010	-1.1751	0.0024	-0.0131	0.0108	39.5595	1.2685	8.4595	0.6496	0.1408	0.7366	-0.1246
6.1	-9.6728	-0.0014	-1.1769	-0.0003	-0.0145	0.0125	39.5879	1.3368	8.3870	0.6497	0.1408	0.7367	-0.1246
6.11	-9.6700	-0.0054	-1.1694	0.0045	-0.0130	0.0128	39.3529	1.2728	8.6538	0.6496	0.1407	0.7366	-0.1246
6.12	-9.6693	-0.0201	-1.1728	0.0008	-0.0184	0.0148	39.5162	1.4505	8.7646	0.6497	0.1408	0.7367	-0.1246
6.13	-9.6867	-0.0407	-1.1865	0.0039	-0.0174	0.0103	40.2396	1.3006	8.6660	0.6496	0.1407	0.7366	-0.1246
6.14	-9.6815	-0.0446	-1.1805	-0.0036	-0.0142	0.0107	40.0141	1.2179	8.7298	0.6497	0.1407	0.7367	-0.1246
6.15	-9.6708	-0.0446	-1.1958	0.0059	-0.0146	0.0136	39.6856	1.2225	8.7802	0.6496	0.1407	0.7366	-0.1246
6.16	-9.6810	-0.0538	-1.2018	0.0088	-0.0155	0.0140	39.5935	1.0484	8.6046	0.6496	0.1407	0.7366	-0.1246
6.17	-9.6764	-0.0613	-1.1958	0.0128	-0.0144	0.0111	39.6253	1.1343	8.5505	0.6496	0.1408	0.7366	-0.1247
6.18	-9.6650	-0.0605	-1.1832	0.0031	-0.0201	0.0173	39.6292	0.9928	8.5173	0.6496	0.1408	0.7366	-0.1246
6.19	-9.6758	-0.0540	-1.1805	0.0071	-0.0192	0.0123	39.5302	1.1298	8.5997	0.6497	0.1408	0.7366	-0.1247
6.2	-9.6798	-0.0439	-1.1803	0.0015	-0.0144	0.0144	39.5404	1.3271	8.5207	0.6497	0.1408	0.7366	-0.1247
6.21	-9.6623	-0.0197	-1.1503	0.0100	-0.0184	0.0152	39.5520	1.1433	8.6544	0.6497	0.1408	0.7366	-0.1247
6.22	-9.6706	-0.0033	-1.1528	0.0028	-0.0127	0.0129	39.5273	1.3654	8.4872	0.6496	0.1408	0.7366	-0.1247
6.23	-9.6822	0.0405	-1.1724	0.0020	-0.0117	0.0119	39.3592	1.4256	8.5140	0.6497	0.1408	0.7366	-0.1247
6.24	-9.6657	0.0721	-1.1558	0.0008	-0.0123	0.0065	39.5406	1.2839	8.5168	0.6496	0.1408	0.7366	-0.1247
6.25	-9.6619	0.0725	-1.1511	0.0015	-0.0115	0.0086	39.5501	1.4649	8.4918	0.6496	0.1407	0.7366	-0.1247
6.26	-9.6797	0.0677	-1.1561	-0.0063	-0.0156	0.0131	39.5188	1.2908	8.6378	0.6497	0.1407	0.7367	-0.1246
6.27	-9.6798	0.0524	-1.1417	0.0017	-0.0121	0.0123	39.5958	1.1663	8.5494	0.6496	0.1407	0.7366	-0.1246
6.28	-9.6651	0.0137	-1.1400	-0.0040	-0.0108	0.0079	39.5883	1.3602	8.5226	0.6496	0.1407	0.7367	-0.1246
6.29	-9.6762	0.0029	-1.1459	-0.0048	-0.0059	0.0083	39.4416	1.3335	8.4077	0.6495	0.1406	0.7367	-0.1246
6.3	-9.6781	-0.0055	-1.1364	0.0052	-0.0119	0.0127	39.5673	1.3500	8.4590	0.6496	0.1406	0.7367	-0.1246
6.31	-9.6682	0.0022	-1.1335	0.0017	-0.0157	0.0080	39.5408	1.3272	8.6724	0.6496	0.1406	0.7367	-0.1246
6.32	-9.6735	0.0239	-1.1500	0.0034	-0.0089	0.0102	39.7867	1.1070	8.4988	0.6495	0.1406	0.7367	-0.1246
6.33	-9.6696	0.0432	-1.1434	0.0053	-0.0204	0.0085	39.7920	1.0088	8.5528	0.6496	0.1406	0.7368	-0.1246
6.34	-9.6673	0.0613	-1.1469	0.0082	-0.0132	0.0089	39.7704	1.1362	8.4832	0.6495	0.1406	0.7367	-0.1246
6.35	-9.6637	0.0556	-1.1603	0.0094	-0.0118	0.0121	39.8164	1.0694	8.4136	0.6495	0.1406	0.7368	-0.1247
6.36	-9.6640	0.0317	-1.1558	0.0028	-0.0200	0.0063	39.6826	1.1989	8.5183	0.6495	0.1406	0.7367	-0.1247
6.37	-9.6732	0.0232	-1.1587	0.0112	-0.0091	0.0092	39.6370	1.1626	8.5360	0.6495	0.1406	0.7368	-0.1247
6.38	-9.6700	-0.0034	-1.1693	-0.0027	-0.0096	0.0091	39.7154	1.0687	8.4901	0.6495	0.1406	0.7368	-0.1247
6.39	-9.6740	-0.0297	-1.1874	0.0009	-0.0126	0.0087	39.7193	1.1643	8.6284	0.6495	0.1405	0.7368	-0.1247
6.4	-9.6875	-0.0573	-1.2045	0.0047	-0.0154	0.0090	39.5857	1.2794	8.4842	0.6495	0.1405	0.7368	-0.1247
6.41	-9.6795	-0.0721	-1.2035	-0.0006	-0.0088	0.0115	39.6937	1.3636	8.4557	0.6495	0.1405	0.7368	-0.1247
6.42	-9.6692	-0.0833	-1.1995	0.0044	-0.0108	0.0067	39.6001	1.3352	8.6891	0.6495	0.1405	0.7368	-0.1247
6.43	-9.6825	-0.0887	-1.2051	0.0044	-0.0081	0.0103	39.5207	1.3502	8.4394	0.6494	0.1405	0.7368	-0.1247
6.44	-9.6778	-0.0850	-1.2177	0.0134	-0.0091	0.0094	39.4363	1.3309	8.8907	0.6494	0.1405	0.7369	-0.1248
6.45	-9.6705	-0.0739	-1.2054	0.0053	-0.0131	0.0128	39.6485	1.4979	8.6130	0.6494	0.1405	0.7369	-0.1248
6.46	-9.6760	-0.0528	-1.2103	0.0073	-0.0165	0.0100	39.6667	1.2594	8.7317	0.6494	0.1405	0.7369	-0.1248
6.47	-9.6796	-0.0328	-1.2044	0.0077	-0.0220	0.0080	39.5890	1.3523	8.8037	0.6494	0.1405	0.7368	-0.1248
6.48	-9.6720	-0.0148	-1.1980	0.0018	-0.0146	0.0093	39.4145	1.3184	8.6460	0.6494	0.1405	0.7369	-0.1248
6.49	-9.6764	-0.0067	-1.1749	0.0112	-0.0156	0.0137	39.3769	1.4129	8.5067	0.6494	0.1405	0.7369	-0.1248
6.5	-9.6906	-0.0056	-1.1813	0.0114	-0.0185	0.0125	39.6497	1.3191	8.2943	0.6494	0.1405	0.7368	-0.1249
6.51	-9.6737	-0.0047	-1.1782	0.0012	-0.0098	0.0084	39.6897	1.0257	8.4818	0.6494	0.1405	0.7369	-0.1249
6.52	-9.6697	-0.0172	-1.1683	0.0038	-0.0115	0.0098	39.7545	1.1832	8.6715	0.6494	0.1405	0.7369	-0.1249
6.53	-9.6836	-0.0151	-1.1655	0.0008	-0.0172	0.0093	39.7393	1.1201	8.7244	0.6494	0.1405	0.7369	-0.1249
6.54	-9.6725	-0.0198	-1.1583	0.0047	-0.0112	0.0085	39.6107	1.0844	8.5979	0.6493	0.1405	0.7368	-0.1249
6.55	-9.6641	-0.0065	-1.1528	0.0122	-0.0104	0.0108	39.6056	1.2062	8.5064	0.6494	0.1405	0.7369	-0.1249
6.56	-9.6689	-0.0006	-1.1388	0.0087	-0.0100	0.0135	39.6885	1.1666	8.5061	0.6493	0.1405	0.7369	-0.1249
6.57	-9.6766	0.0155	-1.1414	0.0128	-0.0132	0.0098	39.6526	1.1950	8.3073	0.6493	0.1405	0.7369	-0.1250
6.58	-9.6720	0.0411	-1.1287	0.0078	-0.0111	0.0103	39.5357	1.1560	8.4718	0.6493	0.1406	0.7369	-0.1250
6.59	-9.6706	0.0620	-1.1313	0.0130	-0.0124	0.0137	39.5173	1.4682	8.4925	0.6493	0.1406	0.7369	-0.1250
6.6	-9.6782	0.0695	-1.1305	0.0072	-0.0095	0.0147	39.4482	1.4799	8.3766	0.6493	0.1406	0.7369	-0.1250
6.61	-9.6655	0.0715	-1.1295	0.0066	-0.0091	0.0118	39.4501	1.3161	8.5213	0.6492	0.1406	0.7369	-0.1250
6.62	-9.6665	0.0637	-1.1352	0.0090	-0.0062	0.0038	39.6783	1.3611	8.6200	0.6492	0.1406	0.7370	-0.1251
6.63	-9.6733	0.0421	-1.1486	0.0096	-0.0068	0.0122	39.8171	1.3358	8.7433	0.6492	0.1406	0.7370	-0.1251
6.64	-9.6737	0.0239	-1.1557	0.0108	-0.0156	0.0119	39.7295	1.3644	8.5691	0.6492	0.1407	0.7370	-0.1251
6.65	-9.6722	0.0072	-1.1625	0.0040	-0.0099	0.0080	39.6992	1.3718	8.5649	0.6491	0.1406	0.7370	-0.1251
6.66	-9.6708	-0.0141	-1.1732	0.0079	-0.0127	0.0128	39.6451	1.3015	8.7192	0.6491	0.1407	0.7370	-0.1252
6.67	-9.6794	-0.0355	-1.1859	0.0035	-0.0140	0.0113	39.5038	1.2773	8.5775	0.6491	0.1407	0.7370	-0.1252
6.68	-9.6692	-0.0439	-1.1748	0.0093	-0.0168	0.0111	39.6315	1.4037	8.5070	0.6491	0.1406	0.7369	-0.1252
6.69	-9.6795	-0.0461	-1.1947	0.0074	-0.0177	0.0146	39.5663	1.3606	8.3255	0.6492	0.1407	0.7370	-0.1252
6.7	-9.6826	-0.0484	-1.1978	0.0032	-0.0142	0.0171	39.7190	1.1773	8.5295	0.6491	0.1407	0.7370	-0.1252
6.71	-9.6772	-0.0406	-1.1854	0.0048	-0.0198	0.0139	39.7157	1.2523	8.7476	0.6492	0.1407	0.7370	-0.1252
6.72	-9.6790	-0.0267	-1.1932	0.0019	-0.0179	0.0103	39.6802	1.2057	8.4312	0.6491	0.1407	0.7369	-0.1252
6.73	-9.6732	-0.0256	-1.1896	0.0036	-0.0160	0.0140	39.8812	1.1411	8.4198	0.6492	0.1407	0.7370	-0.1252
6.74	-9.6727	-0.0213	-1.1941	-0.0018	-0.0192	0.0106	39.6935	1.1327	8.7385	0.6492	0.1407	0.7369	-0.1252
6.75	-9.6744	-0.0238	-1.1932	0.0021	-0.0177	0.0132	39.5908	1.1999	8.6968	0.6492	0.1407	0.7369	-0.1252
6.76	-9.6832	-0.0285	-1.1933	-0.0000	-0.0201	0.0139	39.7231	1.3439	8.5203	0.6493	0.1407	0.7370	-0.1252
6.77	-9.6797	-0.0274	-1.1901	0.0039	-0.0134	0.0166	39.6260	1.2585	8.3630	0.6492	0.1407	0.7369	-0.1251
6.78	-9.6816	-0.0264	-1.1863	0.0048	-0.0219	0.0141	39.6730	1.2038	8.6593	0.6493	0.1407	0.7369	-0.1251
6.79	-9.6810	-0.0241	-1.1864	0.0093	-0.0179	0.0126	39.6043	1.3075	8.6602	0.6492	0.1407	0.7368	-0.1251
6.8	-9.6762	-0.0154	-1.1760	0.0059	-0.0143	0.0140	39.5180	1.2119	8.5457	0.6493	0.1407	0.7369	-0.1252
6.81	-9.6749	-0.0044	-1.1756	0.0089	-0.0098	0.0091	39.6534	1.2077	8.7648	0.6493	0.1407	0.7369	-0.1252
6.82	-9.6673	-0.0103	-1.1736	0.0154	-0.0113	0.0146	39.7780	1.3055	8.6591	0.6492	0.1407	0.7369	-0.1252
6.83	-9.6697	0.0030	-1.1643	0.0143	-0.0054	0.0133	39.6472	1.2959	8.7526	0.6492	0.1408	0.7369	-0.1252
6.84	-9.6841	0.0103	-1.1606	0.0060	-0.0117	0.0142	39.7502	1.4661	8.6053	0.6492	0.1408	0.7369	-0.1252
6.85	-9.6677	0.0233	-1.1498	0.0049	-0.0187	0.0135	39.6683	1.3933	8.7543	0.6492	0.1408	0.7369	-0.1252
6.86	-9.6489	0.0360	-1.1473	0.0109	-0.0209	0.0107	39.5542	1.1076	8.5933	0.6492	0.1408	0.7368	-0.1253
6.87	-9.6758	0.0291	-1.1543	0.0137	-0.0105	0.0120	39.7517	1.0575	8.4422	0.6492	0.1409	0.7369	-0.1253
6.88	-9.6838	0.0525	-1.1558	0.0047	-0.0179	0.0127	39.6093	1.2125	8.5533	0.6492	0.1409	0.7369	-0.1253
6.89	-9.6737	0.0476	-1.1457	0.0047	-0.0246	0.0133	39.6572	1.2207	8.5722	0.6493	0.1409	0.7369	-0.1253
6.9	-9.6668	0.0317	-1.1475	0.0071	-0.0178	0.0144	39.7902	1.2377	8.5829	0.6492	0.1409	0.7368	-0.1253
6.91	-9.6752	0.0293	-1.1614	0.0104	-0.0148	0.0131	39.7431	1.3111	8.6660	0.6493	0.1409	0.7368	-0.1253
6.92	-9.6708	0.0131	-1.1608	0.0053	-0.0179	0.0113	39.8042	1.1638	8.2941	0.6493	0.1409	0.7368	-0.1254
6.93	-9.6643	0.0007	-1.1675	0.0056	-0.0136	0.0110	39.6777	1.4109	8.3910	0.6492	0.1409	0.7367	-0.1254
6.94	-9.6755	-0.0152	-1.1801	0.0206	-0.0113	0.0118	39.6148	1.2809	8.4890	0.6493	0.1410	0.7368	-0.1254
6.95	-9.6788	-0.0399	-1.1761	0.0063	-0.0118	0.0128	39.7021	1.3280	8.6595	0.6492	0.1410	0.7368	-0.1254
6.96	-9.6812	-0.0446	-1.1839	0.0083	-0.0126	0.0087	39.6842	1.2637	8.8146	0.6493	0.1410	0.7369	-0.1255
6.97	-9.6798	-0.0619	-1.1993	0.0036	-0.0139	0.0114	39.6046	1.5196	8.5127	0.6492	0.1410	0.7368	-0.1255
6.98	-9.6854	-0.0658	-1.2150	0.0090	-0.0223	0.0093	39.4951	1.1771	8.6176	0.6492	0.1410	0.7368	-0.1255
6.99	-9.6768	-0.0699	-1.2139	0.0080	-0.0108	0.0133	39.5622	1.2066	8.6607	0.6492	0.1410	0.7368	-0.1255
7	-9.6689	-0.0626	-1.2058	0.0078	-0.0174	0.0165	39.7067	1.4231	8.6797	0.6492	0.1410	0.7367	-0.1255
7.01	-9.6881	-0.0534	-1.2028	-0.0033	-0.0169	0.0144	39.4882	1.3732	8.4200	0.6493	0.1410	0.7368	-0.1255
7.02	-9.6818	-0.0400	-1.2023	0.0024	-0.0140	0.0140	39.5775	1.2566	8.5696	0.6493	0.1410	0.7368	-0.1255
7.03	-9.6658	-0.0191	-1.1847	0.0035	-0.0140	0.0147	39.6008	1.4096	8.6918	0.6493	0.1410	0.7368	-0.1255
7.04	-9.6806	-0.0041	-1.1707	0.0015	-0.0157	0.0147	39.6788	1.2673	8.6345	0.6492	0.1410	0.7367	-0.1254
7.05	-9.6864	0.0166	-1.1675	0.0022	-0.0234	0.0103	39.7837	1.4882	8.6747	0.6493	0.1410	0.7368	-0.1254
7.06	-9.6739	0.0291	-1.1597	0.0053	-0.0217	0.0163	39.7555	1.1664	8.6273	0.6493	0.1410	0.7367	-0.1254
7.07	-9.6612	0.0356	-1.1476	0.0108	-0.0168	0.0133	39.7739	1.0655	8.4797	0.6493	0.1411	0.7367	-0.1255
7.08	-9.6812	0.0275	-1.1472	0.0005	-0.0153	0.0116	39.7666	1.3624	8.4943	0.6494	0.1410	0.7367	-0.1255
7.09	-9.6711	0.0199	-1.1554	-0.0021	-0.0174	0.0139	39.7648	1.1726	8.5967	0.6494	0.1410	0.7367	-0.1254
7.1	-9.6645	0.0191	-1.1493	0.0082	-0.0178	0.0143	39.7771	1.2597	8.5635	0.6494	0.1411	0.7367	-0.1254
7.11	-9.6782	0.0106	-1.1508	0.0043	-0.0122	0.0145	39.6901	1.1931	8.5856	0.6493	0.1411	0.7366	-0.1254
7.12	-9.6654	0.0154	-1.1588	0.0076	-0.0162	0.0137	39.6724	1.3557	8.4509	0.6494	0.1411	0.7367	-0.1254
7.13	-9.6678	0.0085	-1.1416	0.0063	-0.0220	0.0126	40.0120	1.4009	8.6800	0.6494	0.1411	0.7366	-0.1255
7.14	-9.6709	0.0172	-1.1523	-0.0016	-0.0173	0.0120	39.9006	1.3899	8.5786	0.6494	0.1411	0.7366	-0.1254
7.15	-9.6783	0.0215	-1.1628	0.0056	-0.0117	0.0135	39.7336	1.2515	8.5336	0.6494	0.1411	0.7366	-0.1254
7.16	-9.6735	0.0194	-1.1635	0.0018	-0.0083	0.0114	39.4290	1.1944	8.5279	0.6494	0.1411	0.7367	-0.1254
7.17	-9.6738	0.0042	-1.1750	0.0017	-0.0076	0.0046	39.6127	1.6669	8.5512	0.6494	0.1411	0.7367	-0.1254
7.18	-9.6688	-0.0238	-1.1743	-0.0042	-0.0104	0.0052	39.5826	1.3296	8.3402	0.6493	0.1410	0.7366	-0.1254
7.19	-9.6621	-0.0431	-1.1780	-0.0049	-0.0076	0.0094	39.4005	1.3671	8.3664	0.6494	0.1410	0.7368	-0.1254
7.2	-9.6676	-0.0634	-1.1873	-0.0026	-0.0108	0.0076	39.5883	1.2857	8.5839	0.6493	0.1409	0.7367	-0.1254
7.21	-9.6695	-0.0718	-1.1800	-0.0015	-0.0159	0.0103	39.4115	1.3174	8.4854	0.6494	0.1409	0.7368	-0.1254
7.22	-9.6762	-0.0778	-1.1856	-0.0003	-0.0151	0.0132	39.6753	1.3526	8.5604	0.6493	0.1409	0.7367	-0.1253
7.23	-9.6737	-0.0723	-1.1840	-0.0010	-0.0104	0.0157	39.6289	1.4789	8.4757	0.6493	0.1409	0.7368	-0.1253
7.24	-9.6713	-0.0537	-1.1788	0.0104	-0.0152	0.0159	39.6319	1.3158	8.6317	0.6493	0.1409	0.7368	-0.1253
7.25	-9.6732	-0.0434	-1.1902	0.0061	-0.0161	0.0120	39.6990	1.2543	8.8207	0.6493	0.1409	0.7367	-0.1253
7.26	-9.6689	-0.0433	-1.1796	0.0074	-0.0163	0.0131	39.7329	1.1730	8.5971	0.6494	0.1410	0.7368	-0.1254
7.27	-9.6664	-0.0341	-1.1733	0.0034	-0.0121	0.0108	39.7145	1.0913	8.4718	0.6493	0.1410	0.7367	-0.1253
7.28	-9.6737	-0.0417	-1.1802	0.0078	-0.0102	0.0154	39.7382	1.2919	8.4553	0.6494	0.1410	0.7368	-0.1254
7.29	-9.6844	-0.0394	-1.1870	0.0092	-0.0075	0.0082	39.6533	1.2459	8.3401	0.6492	0.1410	0.7367	-0.1254
7.3	-9.6670	-0.0230	-1.1774	0.0109	-0.0112	0.0090	39.4219	1.2916	8.2688	0.6493	0.1410	0.7368	-0.1254
7.31	-9.6718	0.0048	-1.1832	0.0062	-0.0112	0.0100	39.5820	1.2011	8.5478	0.6493	0.1410	0.7368	-0.1254
7.32	-9.6604	0.0245	-1.1659	0.0031	-0.0153	0.0129	39.7226	1.1953	8.5224	0.6492	0.1410	0.7368	-0.1254
7.33	-9.6645	0.0205	-1.1428	-0.0036	-0.0194	0.0094	39.7426	1.0746	8.5385	0.6493	0.1410	0.7368	-0.1254
7.34	-9.6726	0.0070	-1.1526	0.0045	-0.0185	0.0101	39.5473	1.1584	8.5405	0.6493	0.1410	0.7367	-0.1254
7.35	-9.6700	-0.0021	-1.1550	-0.0009	-0.0137	0.0049	39.4659	1.5400	8.6756	0.6493	0.1409	0.7368	-0.1254
7.36	-9.6618	-0.0034	-1.1548	-0.0035	-0.0154	0.0115	39.4066	1.4249	8.3828	0.6492	0.1409	0.7367	-0.1254
7.37	-9.6671	0.0008	-1.1439	-0.0018	-0.0146	0.0148	39.4023	1.3171	8.5983	0.6493	0.1409	0.7368	-0.1254
7.38	-9.6820	-0.0003	-1.1506	-0.0029	-0.0140	0.0042	39.3738	1.3849	8.5307	0.6493	0.1409	0.7368	-0.1254
7.39	-9.6744	0.0145	-1.1599	-0.0034	-0.0160	0.0127	39.5268	1.4656	8.3640	0.6493	0.1408	0.7368	-0.1253
7.4	-9.6787	0.0264	-1.1668	0.0049	-0.0163	0.0054	39.6660	1.3082	8.6605	0.6493	0.1408	0.7368	-0.1254
7.41	-9.6738	0.0281	-1.1647	0.0003	-0.0155	0.0109	39.6138	1.5231	8.7057	0.6493	0.1408	0.7368	-0.1254
7.42	-9.6782	0.0246	-1.1666	0.0040	-0.0123	0.0140	39.6606	1.6016	8.6592	0.6493	0.1408	0.7368	-0.1254
7.43	-9.6647	0.0080	-1.1657	0.0016	-0.0134	0.0139	39.5537	1.3181	8.4919	0.6493	0.1408	0.7367	-0.1253
7.44	-9.6701	-0.0146	-1.1676	-0.0035	-0.0164	0.0114	39.5582	1.3670	8.6583	0.6494	0.1408	0.7368	-0.1253
7.45	-9.6670	-0.0176	-1.1761	0.0010	-0.0181	0.0107	39.6998	1.1710	8.5499	0.6493	0.1408	0.7368	-0.1253
7.46	-9.6722	-0.0207	-1.1732	0.0027	-0.0120	0.0121	39.7417	1.0467	8.5810	0.6494	0.1408	0.7368	-0.1253
7.47	-9.6784	-0.0316	-1.1828	0.0015	-0.0124	0.0152	39.6206	1.3072	8.7364	0.6493	0.1408	0.7367	-0.1253
7.48	-9.6774	-0.0178	-1.1794	0.0051	-0.0073	0.0119	39.7572	1.2269	8.4438	0.6493	0.1408	0.7368	-0.1253
7.49	-9.6811	-0.0084	-1.1877	0.0004	-0.0143	0.0108	39.6718	1.1841	8.4682	0.6493	0.1408	0.7368	-0.1253
7.5	-9.6660	0.0025	-1.1819	-0.0018	-0.0198	0.0123	39.6143	1.1237	8.3469	0.6493	0.1407	0.7367	-0.1253
7.51	-9.6679	0.0134	-1.1816	0.0027	-0.0156	0.0148	39.7711	0.9921	8.4714	0.6494	0.1408	0.7368	-0.1253
7.52	-9.6744	0.0192	-1.1733	-0.0030	-0.0169	0.0130	39.6558	1.0565	8.5576	0.6494	0.1407	0.7368	-0.1252
7.53	-9.6737	0.0216	-1.1755	-0.0001	-0.0166	0.0129	39.6981	1.3718	8.2839	0.6494	0.1407	0.7368	-0.1252
7.54	-9.6810	-0.0011	-1.1715	0.0010	-0.0109	0.0077	39.7374	1.2504	8.6524	0.6493	0.1407	0.7367	-0.1252
7.55	-9.6739	-0.0042	-1.1776	0.0018	-0.0116	0.0077	39.5967	1.2973	8.6880	0.6494	0.1407	0.7368	-0.1252
7.56	-9.6732	0.0010	-1.1699	-0.0024	-0.0098	0.0121	39.3682	1.4918	8.5856	0.6493	0.1407	0.7368	-0.1252
7.57	-9.6596	-0.0032	-1.1673	0.0028	-0.0124	0.0152	39.5329	1.3291	8.5655	0.6493	0.1407	0.7368	-0.1252
7.58	-9.6708	-0.0084	-1.1667	0.0036	-0.0172	0.0103	39.6657	1.2794	8.3968	0.6494	0.1407	0.7368	-0.1252
7.59	-9.6707	-0.0147	-1.1743	0.0018	-0.0206	0.0083	39.7571	1.3619	8.4962	0.6494	0.1407	0.7368	-0.1252
7.6	-9.6577	-0.0103	-1.1572	-0.0034	-0.0194	0.0073	39.6168	1.3512	8.7356	0.6494	0.1406	0.7368	-0.1252
7.61	-9.6625	-0.0112	-1.1610	0.0010	-0.0203	0.0065	39.4299	1.3402	8.5877	0.6494	0.1406	0.7367	-0.1252
7.62	-9.6738	0.0019	-1.1476	0.0046	-0.0133	0.0144	39.7109	1.1697	8.6475	0.6494	0.1406	0.7368	-0.1252
7.63	-9.6740	-0.0042	-1.1486	0.0022	-0.0149	0.0138	40.2878	1.1766	8.7293	0.6494	0.1406	0.7368	-0.1252
7.64	-9.6947	-0.0083	-1.1727	0.0068	-0.0229	0.0143	40.1480	1.3000	8.7457	0.6495	0.1406	0.7367	-0.1252
7.65	-9.6719	-0.0084	-1.1644	-0.0030	-0.0134	0.0132	39.7843	1.2155	8.7622	0.6494	0.1406	0.7367	-0.1252
7.66	-9.6713	-0.0177	-1.1613	0.0098	-0.0194	0.0156	39.6635	1.1250	8.6294	0.6495	0.1406	0.7367	-0.1252
7.67	-9.6786	-0.0261	-1.1744	0.0068	-0.0173	0.0140	39.6756	1.2301	8.6764	0.6495	0.1406	0.7367	-0.1252
7.68	-9.6740	-0.0334	-1.1712	0.0018	-0.0215	0.0169	39.6845	1.1911	8.5670	0.6495	0.1406	0.7366	-0.1252
7.69	-9.6636	-0.0346	-1.1675	0.0015	-0.0177	0.0108	39.7821	1.2092	8.3594	0.6496	0.1406	0.7367	-0.1252
7.7	-9.6753	-0.0331	-1.1707	0.0058	-0.0103	0.0143	39.7455	1.3517	8.5514	0.6495	0.1406	0.7367	-0.1252
7.71	-9.6770	-0.0123	-1.1652	0.0107	-0.0172	0.0139	39.5905	1.1181	8.5589	0.6496	0.1407	0.7367	-0.1252
7.72	-9.6727	-0.0050	-1.1799	0.0073	-0.0176	0.0139	39.6242	1.2072	8.6395	0.6495	0.1407	0.7366	-0.1252
7.73	-9.6773	0.0033	-1.1848	0.0108	-0.0107	0.0141	39.4386	1.2892	8.7875	0.6495	0.1407	0.7367	-0.1252
7.74	-9.6765	0.0021	-1.1860	0.0034	-0.0118	0.0098	39.5183	1.3068	8.7970	0.6495	0.1407	0.7367	-0.1252
7.75	-9.6819	0.0129	-1.1941	0.0005	-0.0131	0.0136	39.6547	1.1318	8.6263	0.6495	0.1407	0.7366	-0.1252
7.76	-9.6780	0.0183	-1.1923	0.0025	-0.0096	0.0118	39.4641	1.1087	8.6715	0.6495	0.1407	0.7367	-0.1252
7.77	-9.6773	0.0121	-1.1975	-0.0013	-0.0099	0.0160	39.4693	1.2394	8.6027	0.6495	0.1407	0.7367	-0.1252
7.78	-9.6740	0.0071	-1.1927	0.0116	-0.0149	0.0156	39.5597	1.1614	8.5400	0.6495	0.1408	0.7367	-0.1252
7.79	-9.6604	0.0015	-1.1841	0.0078	-0.0080	0.0102	39.4103	1.3094	8.5655	0.6494	0.1408	0.7366	-0.1252
7.8	-9.6699	-0.0021	-1.1792	0.0044	-0.0177	0.0155	39.6721	1.2511	8.6587	0.6495	0.1408	0.7367	-0.1252
7.81	-9.6787	-0.0142	-1.1645	0.0101	-0.0144	0.0150	39.8094	1.1972	8.6515	0.6495	0.1408	0.7367	-0.1252
7.82	-9.6699	-0.0203	-1.1687	0.0070	-0.0186	0.0136	39.6577	1.1978	8.6537	0.6495	0.1408	0.7366	-0.1252
7.83	-9.6752	-0.0152	-1.1677	0.0119	-0.0113	0.0147	39.7877	1.2261	8.5641	0.6495	0.1409	0.7367	-0.1252
7.84	-9.6745	-0.0283	-1.1604	0.0098	-0.0084	0.0149	39.8536	1.1540	8.5437	0.6494	0.1409	0.7367	-0.1252
7.85	-9.6687	-0.0199	-1.1564	0.0098	-0.0102	0.0119	39.8574	0.9703	8.4427	0.6494	0.1409	0.7367	-0.1253
7.86	-9.6660	-0.0154	-1.1518	0.0084	-0.0146	0.0144	39.7662	1.2289	8.5809	0.6494	0.1409	0.7366	-0.1252
7.87	-9.6756	-0.0178	-1.1586	0.0103	-0.0113	0.0139	39.6557	1.2917	8.6473	0.6494	0.1410	0.7367	-0.1253
7.88	-9.6760	-0.0205	-1.1537	0.0107	-0.0193	0.0143	39.7085	1.2844	8.6686	0.6494	0.1410	0.7367	-0.1253
7.89	-9.6722	-0.0271	-1.1477	0.0112	-0.0117	0.0142	39.8597	1.2980	8.5704	0.6494	0.1411	0.7367	-0.1253
7.9	-9.6751	-0.0338	-1.1551	0.0049	-0.0137	0.0145	39.7499	1.1991	8.5652	0.6494	0.1411	0.7366	-0.1253
7.91	-9.6698	-0.0405	-1.1636	0.0097	-0.0131	0.0134	39.6593	1.3151	8.5471	0.6494	0.1411	0.7367	-0.1253
7.92	-9.6711	-0.0310	-1.1638	0.0025	-0.0079	0.0127	39.5215	1.2537	8.5907	0.6494	0.1411	0.7367	-0.1253
7.93	-9.6694	-0.0321	-1.1655	0.0093	-0.0119	0.0141	39.5792	1.3756	8.4288	0.6493	0.1411	0.7366	-0.1253
7.94	-9.6661	-0.0164	-1.1587	0.0097	-0.0124	0.0121	39.8079	1.3633	8.7327	0.6494	0.1412	0.7367	-0.1254
7.95	-9.6693	-0.0096	-1.1593	0.0094	-0.0086	0.0131	39.5731	1.2432	8.7969	0.6493	0.1412	0.7367	-0.1254
7.96	-9.6793	-0.0012	-1.1723	0.0055	-0.0084	0.0135	39.6912	1.3644	8.4882	0.6494	0.1412	0.7368	-0.1254
7.97	-9.6773	0.0081	-1.1693	0.0021	-0.0102	0.0127	39.5871	1.3748	8.7768	0.6493	0.1412	0.7367	-0.1253
7.98	-9.6769	0.0087	-1.1687	0.0088	-0.0087	0.0120	39.6120	1.2436	8.5816	0.6493	0.1412	0.7367	-0.1254
7.99	-9.6647	0.0018	-1.1731	0.0091	-0.0075	0.0172	39.5732	1.1783	8.5633	0.6492	0.1413	0.7368	-0.1254
8	-9.6757	-0.0006	-1.1787	0.0069	-0.0155	0.0143	39.7429	1.2358	8.5457	0.6492	0.1413	0.7367	-0.1254
8.01	-9.6784	0.0012	-1.1880	0.0095	-0.0179	0.0099	39.8707	1.0796	8.6925	0.6493	0.1413	0.7368	-0.1254
8.02	-9.6716	-0.0027	-1.1801	0.0121	-0.0131	0.0138	39.6967	1.0576	8.6035	0.6492	0.1413	0.7367	-0.1254
8.03	-9.6684	0.0022	-1.1834	0.0045	-0.0133	0.0107	39.8793	1.2083	8.5582	0.6493	0.1413	0.7368	-0.1254
8.04	-9.6756	-0.0062	-1.1817	0.0192	-0.0114	0.0129	39.6670	1.6086	8.5492	0.6492	0.1414	0.7367	-0.1255
8.05	-9.6779	0.0016	-1.1879	0.0159	-0.0106	0.0126	39.4922	1.3191	8.4611	0.6492	0.1414	0.7368	-0.1255
8.06	-9.6770	-0.0077	-1.1744	0.0122	-0.0118	0.0117	39.5431	1.2421	8.6105	0.6492	0.1415	0.7367	-0.1256
8.07	-9.6774	-0.0177	-1.1801	0.0191	-0.0088	0.0157	39.7661	1.4497	8.4603	0.6491	0.1415	0.7367	-0.1256
8.08	-9.6766	-0.0246	-1.1916	0.0116	-0.0115	0.0166	39.7577	1.1502	8.4818	0.6491	0.1416	0.7368	-0.1256
8.09	-9.6785	-0.0346	-1.1662	0.0121	-0.0162	0.0122	39.7923	0.9893	8.4870	0.6491	0.1416	0.7367	-0.1256
8.1	-9.6671	-0.0318	-1.1850	0.0140	-0.0107	0.0130	39.4691	1.1620	8.6722	0.6491	0.1417	0.7368	-0.1257
8.11	-9.6711	-0.0401	-1.1911	0.0125	-0.0106	0.0092	39.4853	1.2075	8.5358	0.6490	0.1417	0.7367	-0.1257
8.12	-9.6615	-0.0210	-1.1804	0.0173	-0.0082	0.0181	39.8295	1.4106	8.6968	0.6491	0.1417	0.7368	-0.1257
8.13	-9.6620	-0.0049	-1.1761	0.0095	-0.0158	0.0138	40.0017	1.6181	8.8730	0.6491	0.1418	0.7367	-0.1258
8.14	-9.6744	0.0082	-1.1768	0.0113	-0.0100	0.0116	39.8764	1.3709	8.7545	0.6491	0.1418	0.7368	-0.1258
8.15	-9.6737	0.0218	-1.1658	0.0130	-0.0075	0.0089	39.6268	1.2865	8.6295	0.6490	0.1418	0.7368	-0.1258
8.16	-9.6680	0.0167	-1.1581	0.0043	-0.0111	0.0113	39.4027	1.4066	8.6334	0.6490	0.1418	0.7368	-0.1258
8.17	-9.6733	0.0161	-1.1622	-0.0007	-0.0147	0.0113	39.5911	1.3076	8.5878	0.6490	0.1418	0.7368	-0.1258
8.18	-9.6732	-0.0033	-1.1679	-0.0013	-0.0128	0.0038	39.4870	1.2084	8.4177	0.6489	0.1418	0.7367	-0.1258
8.19	-9.6785	-0.0050	-1.1613	0.0040	-0.0147	0.0125	39.6226	1.0996	8.3944	0.6490	0.1418	0.7368	-0.1258
8.2	-9.6807	-0.0012	-1.1677	0.0104	-0.0165	0.0131	39.7721	1.0105	8.5899	0.6490	0.1418	0.7368	-0.1258
8.21	-9.6796	0.0012	-1.1752	0.0103	-0.0145	0.0130	39.7303	1.1103	8.5198	0.6490	0.1418	0.7368	-0.1259
8.22	-9.6747	0.0061	-1.1762	0.0055	-0.0180	0.0137	39.7326	1.2088	8.6321	0.6490	0.1418	0.7367	-0.1259
8.23	-9.6743	0.0031	-1.1847	-0.0008	-0.0158	0.0112	39.6471	1.2203	8.5277	0.6490	0.1418	0.7368	-0.1259
8.24	-9.6662	0.0089	-1.1849	0.0118	-0.0153	0.0080	39.6410	1.1536	8.5198	0.6490	0.1418	0.7368	-0.1259
8.25	-9.6685	0.0076	-1.1851	0.0017	-0.0144	0.0141	39.7471	1.1026	8.6419	0.6490	0.1418	0.7367	-0.1259
8.26	-9.6721	0.0039	-1.1802	-0.0000	-0.0201	0.0110	39.6236	1.2247	8.5971	0.6491	0.1418	0.7368	-0.1259
8.27	-9.6745	0.0083	-1.1775	0.0085	-0.0144	0.0123	39.5956	1.3260	8.5560	0.6490	0.1418	0.7367	-0.1259
8.28	-9.6772	0.0070	-1.1720	0.0043	-0.0162	0.0120	39.6798	1.1992	8.6479	0.6491	0.1418	0.7368	-0.1259
8.29	-9.6630	0.0037	-1.1748	0.0112	-0.0118	0.0083	39.6440	1.2821	8.6253	0.6490	0.1418	0.7367	-0.1259
8.3	-9.6678	-0.0011	-1.1662	0.0010	-0.0187	0.0065	39.6491	1.5026	8.5898	0.6490	0.1418	0.7368	-0.1260
8.31	-9.6729	0.0016	-1.1658	0.0039	-0.0135	0.0105	39.5219	1.5492	8.5332	0.6490	0.1418	0.7367	-0.1260
8.32	-9.6725	-0.0019	-1.1667	0.0093	-0.0145	0.0110	39.4106	1.2232	8.7280	0.6490	0.1418	0.7367	-0.1260
8.33	-9.6622	-0.0105	-1.1557	-0.0013	-0.0190	0.0094	39.4113	1.5306	8.6965	0.6491	0.1418	0.7367	-0.1260
8.34	-9.6733	-0.0222	-1.1634	0.0033	-0.0180	0.0143	39.5288	1.5460	8.5536	0.6491	0.1418	0.7367	-0.1260
8.35	-9.6670	-0.0178	-1.1609	0.0001	-0.0149	0.0083	39.6500	1.0928	8.5660	0.6491	0.1418	0.7367	-0.1260
8.36	-9.6717	-0.0283	-1.1615	-0.0043	-0.0109	0.0102	39.6472	1.4324	8.7458	0.6490	0.1417	0.7367	-0.1260
8.37	-9.6710	-0.0300	-1.1700	0.0029	-0.0146	0.0128	39.6640	1.2158	8.6718	0.6491	0.1418	0.7368	-0.1260
8.38	-9.6784	-0.0170	-1.1816	-0.0023	-0.0158	0.0142	39.6250	1.2445	8.4743	0.6491	0.1417	0.7367	-0.1259
8.39	-9.6747	-0.0228	-1.1816	0.0044	-0.0093	0.0092	39.5308	1.3128	8.6411	0.6491	0.1417	0.7368	-0.1259
8.4	-9.6763	-0.0136	-1.1783	0.0025	-0.0163	0.0084	39.7693	1.1921	8.5292	0.6490	0.1417	0.7367	-0.1259
8.41	-9.6776	-0.0167	-1.1849	0.0078	-0.0151	0.0107	39.8339	1.0979	8.4281	0.6490	0.1417	0.7367	-0.1260
8.42	-9.6703	-0.0230	-1.1748	0.0072	-0.0189	0.0144	39.7959	1.1848	8.5058	0.6491	0.1417	0.7367	-0.1260
8.43	-9.6663	-0.0300	-1.1769	0.0017	-0.0132	0.0151	39.5571	1.2251	8.6319	0.6490	0.1417	0.7367	-0.1260
8.44	-9.6780	-0.0239	-1.1784	0.0047	-0.0159	0.0119	39.5864	1.0857	8.6264	0.6491	0.1418	0.7368	-0.1260
8.45	-9.6779	-0.0239	-1.1807	0.0111	-0.0141	0.0112	39.6946	1.3061	8.4751	0.6491	0.1418	0.7367	-0.1260
8.46	-9.6774	-0.0176	-1.1830	0.0115	-0.0182	0.0159	39.5978	1.2037	8.4214	0.6491	0.1418	0.7368	-0.1260
8.47	-9.6720	-0.0208	-1.1864	0.0016	-0.0186	0.0078	39.4833	1.2799	8.6289	0.6491	0.1418	0.7366	-0.1260
8.48	-9.6681	-0.0192	-1.1897	0.0018	-0.0092	0.0080	39.4971	1.5071	8.6270	0.6491	0.1418	0.7367	-0.1260
8.49	-9.6701	-0.0220	-1.1865	0.0077	-0.0079	0.0103	39.6446	1.3828	8.5729	0.6490	0.1418	0.7367	-0.1260
8.5	-9.6724	-0.0139	-1.1877	0.0038	-0.0163	0.0122	39.3877	1.3545	8.4858	0.6490	0.1418	0.7367	-0.1260
8.51	-9.6761	-0.0085	-1.1800	-0.0003	-0.0107	0.0143	39.4497	1.3786	8.7641	0.6491	0.1418	0.7368	-0.1260
8.52	-9.6766	0.0038	-1.1811	0.0092	-0.0050	0.0118	39.5863	1.3378	8.6412	0.6490	0.1418	0.7367	-0.1260
8.53	-9.6626	0.0059	-1.1709	0.0092	-0.0099	0.0079	39.6316	1.2483	8.6367	0.6490	0.1418	0.7368	-0.1261
8.54	-9.6640	0.0067	-1.1653	0.0033	-0.0078	0.0100	39.6636	1.3958	8.5242	0.6489	0.1418	0.7367	-0.1261
8.55	-9.6803	0.0239	-1.1745	0.0070	-0.0109	0.0149	39.4695	1.3412	8.4372	0.6490	0.1418	0.7368	-0.1261
8.56	-9.6746	0.0135	-1.1688	0.0104	-0.0151	0.0107	39.6431	1.2490	8.6004	0.6489	0.1418	0.7368	-0.1261
8.57	-9.6615	0.0103	-1.1617	0.0077	-0.0098	0.0115	39.7239	1.1064	8.7128	0.6489	0.1419	0.7368	-0.1261
8.58	-9.6810	0.0019	-1.1536	-0.0012	-0.0108	0.0082	39.7347	1.1506	8.7219	0.6489	0.1418	0.7368	-0.1261
8.59	-9.6893	-0.0014	-1.1591	-0.0013	-0.0214	0.0128	39.7449	1.1894	8.5833	0.6489	0.1418	0.7368	-0.1261
8.6	-9.6662	-0.0096	-1.1641	0.0084	-0.0191	0.0110	39.5001	1.0951	8.4741	0.6490	0.1418	0.7368	-0.1261
8.61	-9.6661	-0.0043	-1.1632	0.0072	-0.0152	0.0088	39.6210	1.1361	8.4148	0.6489	0.1418	0.7367	-0.1261
8.62	-9.6720	0.0003	-1.1647	0.0051	-0.0174	0.0150	40.0812	1.0292	8.8264	0.6490	0.1418	0.7368	-0.1262
8.63	-9.6564	-0.0020	-1.1512	-0.0018	-0.0121	0.0142	39.8510	1.1997	8.7497	0.6490	0.1418	0.7368	-0.1261
8.64	-9.6743	-0.0006	-1.1616	0.0092	-0.0121	0.0154	39.7889	1.2289	8.7227	0.6490	0.1419	0.7368	-0.1261
8.65	-9.6788	0.0144	-1.1673	0.0050	-0.0198	0.0146	39.8371	1.1477	8.8629	0.6489	0.1419	0.7367	-0.1261
8.66	-9.6689	0.0113	-1.1672	0.0036	-0.0132	0.0143	39.6500	1.1142	8.6862	0.6490	0.1419	0.7368	-0.1261
8.67	-9.6633	0.0122	-1.1715	0.0041	-0.0131	0.0142	39.6105	1.2793	8.5921	0.6490	0.1419	0.7368	-0.1261
8.68	-9.6767	0.0103	-1.1690	0.0034	-0.0167	0.0133	39.4737	1.2648	8.4254	0.6489	0.1419	0.7367	-0.1261
8.69	-9.6767	-0.0025	-1.1801	0.0008	-0.0159	0.0131	39.6019	1.2047	8.6065	0.6490	0.1419	0.7368	-0.1261
8.7	-9.6661	-0.0020	-1.1787	0.0078	-0.0143	0.0105	39.6624	1.2877	8.5958	0.6490	0.1419	0.7367	-0.1261
8.71	-9.6683	-0.0102	-1.1749	0.0067	-0.0117	0.0153	39.6556	1.2908	8.3109	0.6490	0.1419	0.7368	-0.1261
8.72	-9.6759	-0.0119	-1.1735	0.0091	-0.0143	0.0127	39.6506	1.2453	8.5884	0.6489	0.1419	0.7367	-0.1261
8.73	-9.6714	-0.0075	-1.1884	0.0071	-0.0161	0.0145	39.5442	1.2391	8.6348	0.6490	0.1420	0.7367	-0.1262
8.74	-9.6741	-0.0163	-1.1742	0.0061	-0.0203	0.0123	39.7556	1.3748	8.6534	0.6490	0.1420	0.7367	-0.1262
8.75	-9.6792	-0.0208	-1.1852	0.0126	-0.0181	0.0156	39.6248	1.1525	8.5617	0.6490	0.1420	0.7366	-0.1262
8.76	-9.6752	-0.0188	-1.1826	0.0117	-0.0174	0.0179	39.8632	1.3136	8.4524	0.6491	0.1421	0.7367	-0.1262
8.77	-9.6589	-0.0182	-1.1775	0.0130	-0.0171	0.0163	39.7507	1.2623	8.4610	0.6490	0.1421	0.7366	-0.1262
8.78	-9.6736	-0.0212	-1.1781	0.0105	-0.0215	0.0195	39.7827	1.0640	8.5140	0.6491	0.1421	0.7367	-0.1262
8.79	-9.6745	-0.0136	-1.1791	0.0137	-0.0252	0.0160	39.8293	1.0032	8.6833	0.6490	0.1422	0.7365	-0.1263
8.8	-9.6764	-0.0138	-1.1693	0.0074	-0.0193	0.0151	39.6959	1.1690	8.4948	0.6491	0.1422	0.7366	-0.1263
8.81	-9.6796	-0.0070	-1.1739	0.0094	-0.0116	0.0116	39.7687	1.1969	8.4709	0.6491	0.1422	0.7365	-0.1263
8.82	-9.6682	-0.0017	-1.1690	0.0073	-0.0136	0.0123	39.6470	1.2109	8.4402	0.6491	0.1422	0.7365	-0.1263
8.83	-9.6701	-0.0045	-1.1719	0.0028	-0.0185	0.0137	39.6596	1.0883	8.5943	0.6491	0.1422	0.7366	-0.1263
8.84	-9.6633	-0.0065	-1.1544	0.0016	-0.0146	0.0199	39.6318	1.0232	8.6238	0.6491	0.1423	0.7365	-0.1263
8.85	-9.6608	0.0000	-1.1500	-0.0010	-0.0176	0.0130	39.7104	1.2157	8.5197	0.6491	0.1423	0.7365	-0.1263
8.86	-9.6752	-0.0077	-1.1687	-0.0035	-0.0148	0.0140	39.7459	1.1143	8.6404	0.6491	0.1422	0.7365	-0.1262
8.87	-9.6790	-0.0114	-1.1635	-0.0031	-0.0175	0.0130	39.6156	1.1008	8.6703	0.6492	0.1422	0.7365	-0.1262
8.88	-9.6741	-0.0039	-1.1627	0.0037	-0.0214	0.0141	39.5371	1.2934	8.7120	0.6492	0.1422	0.7365	-0.1262
8.89	-9.6786	0.0091	-1.1691	0.0038	-0.0120	0.0112	39.6457	1.4142	8.5340	0.6492	0.1422	0.7365	-0.1262
8.9	-9.6670	0.0148	-1.1599	-0.0002	-0.0170	0.0087	39.6539	1.1500	8.5530	0.6492	0.1422	0.7365	-0.1262
8.91	-9.6679	0.0186	-1.1532	0.0076	-0.0101	0.0150	39.6539	1.1219	8.4468	0.6492	0.1422	0.7365	-0.1262
8.92	-9.6863	0.0052	-1.1689	0.0148	-0.0136	0.0162	39.6456	1.2654	8.6616	0.6492	0.1423	0.7365	-0.1262
8.93	-9.6770	-0.0055	-1.1750	0.0094	-0.0155	0.0141	39.6542	1.2993	8.5512	0.6491	0.1423	0.7364	-0.1262
8.94	-9.6677	-0.0050	-1.1759	0.0066	-0.0195	0.0125	39.6412	1.1533	8.4470	0.6492	0.1423	0.7365	-0.1263
8.95	-9.6680	-0.0132	-1.1757	0.0025	-0.0210	0.0124	39.8276	0.9842	8.4941	0.6492	0.1423	0.7364	-0.1263
8.96	-9.6736	-0.0168	-1.1753	0.0056	-0.0181	0.0154	39.7006	1.1035	8.6698	0.6493	0.1423	0.7365	-0.1263
8.97	-9.6786	-0.0197	-1.1793	0.0117	-0.0144	0.0145	39.5332	1.1982	8.5214	0.6492	0.1424	0.7364	-0.1263
8.98	-9.6748	-0.0254	-1.1855	-0.0009	-0.0200	0.0153	39.7056	1.1959	8.5964	0.6493	0.1424	0.7364	-0.1263
8.99	-9.6823	-0.0224	-1.1781	0.0139	-0.0197	0.0147	39.7424	1.1957	8.6204	0.6493	0.1424	0.7364	-0.1263
9	-9.6864	-0.0141	-1.1808	0.0047	-0.0117	0.0184	39.6744	1.1972	8.4556	0.6492	0.1424	0.7363	-0.1263
9.01	-9.6763	-0.0105	-1.1742	0.0096	-0.0146	0.0160	39.5379	1.1907	8.3575	0.6493	0.1425	0.7364	-0.1263
9.02	-9.6752	-0.0075	-1.1711	0.0045	-0.0205	0.0172	39.6372	1.1979	8.5548	0.6493	0.1425	0.7363	-0.1263
9.03	-9.6706	0.0031	-1.1724	0.0052	-0.0151	0.0123	39.8050	1.1927	8.6984	0.6493	0.1425	0.7364	-0.1263
9.04	-9.6657	-0.0018	-1.1802	0.0003	-0.0209	0.0121	39.4542	1.1991	8.5091	0.6493	0.1425	0.7362	-0.1263
9.05	-9.6717	0.0061	-1.1755	0.0028	-0.0118	0.0167	39.5112	1.1763	8.5901	0.6493	0.1425	0.7363	-0.1263
9.06	-9.6732	0.0113	-1.1763	0.0022	-0.0171	0.0130	39.7609	1.3929	8.6430	0.6493	0.1425	0.7363	-0.1263
9.07	-9.6732	-0.0004	-1.1670	0.0031	-0.0108	0.0134	39.6398	1.2116	8.6449	0.6493	0.1425	0.7363	-0.1262
9.08	-9.6616	-0.0109	-1.1728	-0.0039	-0.0115	0.0146	39.5876	1.1007	8.6211	0.6493	0.1425	0.7363	-0.1262
9.09	-9.6749	-0.0251	-1.1781	0.0029	-0.0159	0.0095	39.6270	1.2162	8.6851	0.6493	0.1425	0.7363	-0.1262
9.1	-9.6845	-0.0278	-1.1760	0.0022	-0.0240	0.0142	39.5544	1.1984	8.7217	0.6494	0.1425	0.7363	-0.1262
9.11	-9.6679	-0.0379	-1.1683	0.0019	-0.0200	0.0137	39.5398	1.1000	8.8125	0.6493	0.1425	0.7362	-0.1262
9.12	-9.6724	-0.0291	-1.1674	0.0103	-0.0232	0.0143	39.8053	1.2342	8.9104	0.6494	0.1425	0.7362	-0.1262
9.13	-9.6735	-0.0209	-1.1656	0.0095	-0.0220	0.0163	39.7137	1.2691	8.7771	0.6494	0.1425	0.7362	-0.1262
9.14	-9.6732	-0.0179	-1.1730	0.0106	-0.0197	0.0134	39.6597	1.1128	8.8167	0.6495	0.1425	0.7362	-0.1263
9.15	-9.6707	-0.0124	-1.1670	0.0031	-0.0184	0.0150	39.8616	1.1126	8.5930	0.6495	0.1426	0.7361	-0.1263
9.16	-9.6749	-0.0082	-1.1666	0.0073	-0.0207	0.0103	39.7226	1.0193	8.6159	0.6495	0.1426	0.7361	-0.1263
9.17	-9.6750	-0.0084	-1.1700	0.0157	-0.0160	0.0128	39.6530	1.1493	8.7858	0.6495	0.1426	0.7361	-0.1263
9.18	-9.6719	-0.0073	-1.1764	0.0122	-0.0132	0.0073	39.6274	1.3420	8.5329	0.6495	0.1426	0.7360	-0.1264
9.19	-9.6750	0.0018	-1.1832	0.0095	-0.0167	0.0144	39.6452	1.0822	8.5342	0.6495	0.1426	0.7361	-0.1264
9.2	-9.6803	0.0068	-1.1875	0.0009	-0.0122	0.0133	39.4874	1.1894	8.5824	0.6495	0.1426	0.7361	-0.1264
9.21	-9.6771	-0.0017	-1.1713	-0.0001	-0.0124	0.0137	39.4994	1.2311	8.6527	0.6496	0.1426	0.7361	-0.1264
9.22	-9.6683	0.0016	-1.1633	0.0147	-0.0118	0.0096	39.7674	1.2022	8.6095	0.6495	0.1426	0.7360	-0.1264
9.23	-9.6781	0.0017	-1.1788	0.0111	-0.0074	0.0081	39.4307	1.3579	8.7684	0.6495	0.1427	0.7361	-0.1265
9.24	-9.6689	0.0036	-1.1737	0.0011	-0.0123	0.0119	39.4298	1.3476	8.6148	0.6495	0.1427	0.7361	-0.1264
9.25	-9.6632	-0.0011	-1.1676	0.0041	-0.0133	0.0059	39.4869	1.2485	8.7059	0.6494	0.1426	0.7361	-0.1265
9.26	-9.6824	0.0054	-1.1726	0.0040	-0.0137	0.0095	39.4668	1.5278	8.7980	0.6495	0.1427	0.7362	-0.1265
9.27	-9.6756	0.0113	-1.1760	0.0041	-0.0112	0.0090	39.4526	1.5125	8.6799	0.6494	0.1426	0.7361	-0.1265
9.28	-9.6597	0.0182	-1.1671	0.0062	-0.0061	0.0059	39.3380	1.4352	8.7120	0.6494	0.1426	0.7362	-0.1265
9.29	-9.6609	0.0139	-1.1657	0.0017	-0.0092	0.0100	39.5697	1.4927	8.7145	0.6493	0.1426	0.7361	-0.1265
9.3	-9.6709	-0.0031	-1.1738	0.0026	-0.0152	0.0128	39.6411	1.2236	8.6963	0.6494	0.1426	0.7362	-0.1265
9.31	-9.6760	-0.0083	-1.1725	-0.0010	-0.0180	0.0115	39.6356	1.0917	8.6032	0.6494	0.1426	0.7362	-0.1265
9.32	-9.6686	-0.0115	-1.1712	0.0044	-0.0138	0.0152	39.6297	1.2354	8.3681	0.6494	0.1426	0.7361	-0.1265
9.33	-9.6763	-0.0149	-1.1707	0.0057	-0.0150	0.0075	39.7413	1.1260	8.3769	0.6494	0.1426	0.7362	-0.1265
9.34	-9.6753	-0.0062	-1.1696	0.0058	-0.0146	0.0088	39.6902	1.0252	8.6161	0.6494	0.1426	0.7361	-0.1265
9.35	-9.6638	-0.0063	-1.1685	0.0046	-0.0119	0.0101	39.5938	1.1053	8.6941	0.6494	0.1426	0.7362	-0.1265
9.36	-9.6732	-0.0088	-1.1643	-0.0007	-0.0175	0.0109	39.7268	1.2327	8.7358	0.6494	0.1426	0.7361	-0.1265
9.37	-9.6854	-0.0123	-1.1668	-0.0006	-0.0175	0.0087	39.7896	1.2164	8.7105	0.6495	0.1425	0.7362	-0.1265
9.38	-9.6721	-0.0120	-1.1650	-0.0020	-0.0131	0.0152	39.3918	1.0646	8.5655	0.6494	0.1425	0.7361	-0.1265
9.39	-9.6676	-0.0250	-1.1697	0.0006	-0.0103	0.0147	39.6976	1.0791	8.5320	0.6494	0.1425	0.7362	-0.1265
9.4	-9.6815	-0.0349	-1.1692	0.0100	-0.0168	0.0118	39.8094	1.3667	8.6338	0.6494	0.1426	0.7361	-0.1265
9.41	-9.6753	-0.0382	-1.1778	0.0059	-0.0145	0.0102	39.6766	1.3427	8.7648	0.6494	0.1426	0.7361	-0.1265
9.42	-9.6732	-0.0404	-1.1822	-0.0023	-0.0074	0.0124	39.5437	1.3264	8.6180	0.6494	0.1425	0.7362	-0.1265
9.43	-9.6741	-0.0377	-1.1831	0.0019	-0.0085	0.0151	39.3369	1.4753	8.7018	0.6493	0.1425	0.7361	-0.1265
9.44	-9.6767	-0.0341	-1.1919	0.0014	-0.0122	0.0139	39.6218	1.3768	8.8039	0.6494	0.1426	0.7362	-0.1265
9.45	-9.6589	-0.0250	-1.1775	0.0007	-0.0106	0.0147	39.6057	1.4926	8.5313	0.6494	0.1426	0.7362	-0.1264
9.46	-9.6774	-0.0153	-1.1880	0.0033	-0.0128	0.0128	39.7318	1.2124	8.5279	0.6494	0.1426	0.7363	-0.1265
9.47	-9.6754	-0.0189	-1.1984	0.0064	-0.0103	0.0134	39.6207	1.2896	8.7248	0.6493	0.1426	0.7362	-0.1264
9.48	-9.6678	-0.0052	-1.1852	0.0048	-0.0119	0.0146	39.3296	1.4391	8.7035	0.6494	0.1426	0.7362	-0.1264
9.49	-9.6726	-0.0167	-1.1734	0.0140	-0.0160	0.0138	39.6057	1.4225	8.7218	0.6494	0.1426	0.7362	-0.1265
9.5	-9.6800	-0.0062	-1.1748	0.0079	-0.0179	0.0093	39.7030	1.0278	8.6517	0.6493	0.1426	0.7362	-0.1265
9.51	-9.6721	-0.0018	-1.1725	0.0072	-0.0105	0.0131	39.8194	1.1570	8.6205	0.6494	0.1427	0.7363	-0.1265
9.52	-9.6708	0.0154	-1.1752	0.0031	-0.0160	0.0115	39.6541	1.2682	8.5156	0.6493	0.1426	0.7362	-0.1265
9.53	-9.6638	0.0170	-1.1763	0.0017	-0.0111	0.0123	39.8319	1.3334	8.5902	0.6494	0.1426	0.7362	-0.1265
9.54	-9.6774	0.0011	-1.1744	0.0004	-0.0122	0.0132	39.6057	1.1996	8.8222	0.6493	0.1426	0.7362	-0.1265
9.55	-9.6735	0.0037	-1.1694	-0.0029	-0.0179	0.0122	39.5559	1.3375	8.7924	0.6494	0.1426	0.7362	-0.1265
9.56	-9.6716	0.0142	-1.1708	0.0081	-0.0136	0.0119	39.5010	1.2406	8.4788	0.6493	0.1426	0.7362	-0.1265
9.57	-9.6759	0.0018	-1.1716	0.0031	-0.0197	0.0097	39.5219	1.2057	8.7276	0.6494	0.1426	0.7362	-0.1265
9.58	-9.6709	0.0057	-1.1608	0.0043	-0.0135	0.0114	39.5739	1.2196	8.6918	0.6494	0.1426	0.7362	-0.1265
9.59	-9.6659	0.0007	-1.1640	0.0066	-0.0167	0.0062	39.4177	1.3408	8.6451	0.6494	0.1426	0.7362	-0.1265
9.6	-9.6664	0.0026	-1.1688	0.0017	-0.0106	0.0120	39.5562	1.2117	8.7265	0.6494	0.1426	0.7362	-0.1265
9.61	-9.6700	0.0125	-1.1758	0.0044	-0.0131	0.0121	39.5294	1.2941	8.7849	0.6493	0.1426	0.7361	-0.1265
9.62	-9.6635	0.0131	-1.1667	0.0020	-0.0093	0.0117	39.6671	1.3995	9.0175	0.6494	0.1426	0.7362	-0.1265
9.63	-9.6611	0.0079	-1.1712	0.0111	-0.0088	0.0145	39.8435	1.3913	8.7935	0.6493	0.1426	0.7362	-0.1265
9.64	-9.6719	0.0020	-1.1713	0.0052	-0.0122	0.0119	39.7032	1.3483	8.5709	0.6493	0.1426	0.7363	-0.1266
9.65	-9.6632	0.0023	-1.1734	0.0054	-0.0151	0.0173	39.6121	1.3615	8.5938	0.6493	0.1427	0.7362	-0.1265
9.66	-9.6551	-0.0058	-1.1741	0.0037	-0.0125	0.0104	39.3443	1.1062	8.7786	0.6493	0.1427	0.7362	-0.1266
9.67	-9.6735	-0.0056	-1.1837	0.0046	-0.0159	0.0140	39.5512	1.1883	8.5441	0.6493	0.1427	0.7362	-0.1266
9.68	-9.6671	-0.0176	-1.1812	0.0092	-0.0192	0.0138	39.6175	1.4062	8.5694	0.6493	0.1427	0.7362	-0.1266
9.69	-9.6659	-0.0159	-1.1756	0.0040	-0.0192	0.0133	39.6632	1.3245	8.4569	0.6494	0.1427	0.7362	-0.1266
9.7	-9.6716	-0.0127	-1.1731	0.0079	-0.0175	0.0155	39.8413	1.1415	8.4819	0.6493	0.1427	0.7362	-0.1266
9.71	-9.6767	-0.0180	-1.1783	0.0111	-0.0149	0.0190	39.7878	1.3267	8.5130	0.6494	0.1428	0.7362	-0.1266
9.72	-9.6633	-0.0178	-1.1846	0.0028	-0.0157	0.0096	39.5645	1.4861	8.7671	0.6493	0.1427	0.7361	-0.1266
9.73	-9.6658	-0.0148	-1.1777	0.0050	-0.0150	0.0136	39.9108	1.1703	8.5947	0.6494	0.1428	0.7362	-0.1266
9.74	-9.6704	-0.0190	-1.1787	0.0007	-0.0112	0.0160	39.7427	1.1389	8.5751	0.6494	0.1428	0.7362	-0.1266
9.75	-9.6601	-0.0201	-1.1789	0.0072	-0.0160	0.0133	39.4982	1.2783	8.4840	0.6493	0.1428	0.7361	-0.1266
9.76	-9.6702	-0.0196	-1.1888	0.0039	-0.0137	0.0158	39.5254	1.3841	8.4535	0.6494	0.1428	0.7362	-0.1266
9.77	-9.6736	-0.0200	-1.1804	0.0068	-0.0159	0.0151	39.8731	1.1851	8.5074	0.6493	0.1428	0.7361	-0.1266
9.78	-9.6786	-0.0213	-1.1806	0.0104	-0.0193	0.0137	39.5599	1.0867	8.6523	0.6494	0.1428	0.7362	-0.1266
9.79	-9.6635	-0.0196	-1.1695	0.0014	-0.0099	0.0140	39.7041	1.1244	8.6498	0.6493	0.1428	0.7361	-0.1266
9.8	-9.6641	-0.0169	-1.1723	-0.0047	-0.0167	0.0141	39.7019	1.1163	8.7763	0.6494	0.1428	0.7362	-0.1266
9.81	-9.6677	-0.0128	-1.1747	0.0022	-0.0141	0.0143	39.4262	1.2524	8.6767	0.6494	0.1428	0.7361	-0.1266
9.82	-9.6734	-0.0218	-1.1796	0.0009	-0.0159	0.0139	39.6183	1.3484	8.6271	0.6494	0.1428	0.7361	-0.1265
9.83	-9.6657	-0.0287	-1.1803	0.0052	-0.0118	0.0151	39.4906	1.3741	8.6608	0.6494	0.1428	0.7362	-0.1265
9.84	-9.6667	-0.0333	-1.1969	0.0043	-0.0157	0.0187	39.7476	1.3353	8.6242	0.6494	0.1429	0.7361	-0.1265
9.85	-9.6771	-0.0201	-1.1968	0.0134	-0.0133	0.0113	39.5639	1.2183	8.7173	0.6494	0.1429	0.7362	-0.1266
9.86	-9.6592	-0.0128	-1.1867	0.0001	-0.0160	0.0108	39.6854	1.1024	8.7532	0.6493	0.1429	0.7361	-0.1266
9.87	-9.6707	-0.0109	-1.1881	0.0048	-0.0175	0.0136	39.5453	1.1230	8.7327	0.6494	0.1429	0.7361	-0.1266
9.88	-9.6735	-0.0082	-1.1795	0.0113	-0.0197	0.0141	39.6743	1.0892	8.5855	0.6494	0.1429	0.7361	-0.1266
9.89	-9.6651	0.0107	-1.1842	0.0033	-0.0221	0.0156	39.8397	1.2062	8.5636	0.6494	0.1429	0.7361	-0.1266
9.9	-9.6755	0.0038	-1.1813	0.0099	-0.0181	0.0142	39.9188	1.1126	8.5696	0.6494	0.1429	0.7360	-0.1266
9.91	-9.6675	-0.0043	-1.1707	0.0027	-0.0187	0.0144	39.9014	1.0161	8.5881	0.6495	0.1429	0.7360	-0.1266
9.92	-9.6613	-0.0014	-1.1713	0.0027	-0.0227	0.0144	39.7655	1.0379	8.7377	0.6495	0.1429	0.7360	-0.1266
9.93	-9.6644	0.0006	-1.1617	0.0136	-0.0243	0.0142	39.6696	1.0846	8.7466	0.6495	0.1430	0.7359	-0.1266
9.94	-9.6768	-0.0054	-1.1684	0.0163	-0.0151	0.0144	39.6577	1.2472	8.8308	0.6496	0.1430	0.7360	-0.1267
9.95	-9.6765	-0.0091	-1.1460	0.0070	-0.0156	0.0129	39.6887	1.2572	8.5383	0.6495	0.1430	0.7359	-0.1267
9.96	-9.6757	-0.0067	-1.1517	0.0099	-0.0207	0.0129	39.6210	1.1443	8.6416	0.6496	0.1431	0.7360	-0.1267
9.97	-9.6691	-0.0046	-1.1586	0.0129	-0.0146	0.0112	39.4836	1.3904	8.6500	0.6495	0.1431	0.7359	-0.1267
9.98	-9.6621	0.0038	-1.1572	0.0129	-0.0087	0.0117	39.6386	1.3364	8.6414	0.6495	0.1431	0.7359	-0.1268
9.99	-9.6670	0.0104	-1.1562	0.0056	-0.0135	0.0114	39.6815	1.2234	8.6577	0.6495	0.1431	0.7359	-0.1268
10	-9.6602	0.0130	-1.1599	0.0065	-0.0149	0.0112	39.6601	1.1609	8.6394	0.6495	0.1431	0.7359	-0.1268
10.01	-9.6650	0.0012	-1.1587	-0.0006	-0.0154	0.0145	39.6803	1.3342	8.7579	0.6496	0.1431	0.7360	-0.1268
10.02	-9.6673	0.0043	-1.1746	-0.0019	-0.0089	0.0140	39.5221	1.3125	8.8442	0.6495	0.1431	0.7359	-0.1268
10.03	-9.6660	0.0182	-1.1726	0.0090	-0.0118	0.0140	39.7088	1.0847	8.5680	0.6495	0.1431	0.7360	-0.1268
10.04	-9.6667	0.0038	-1.1630	0.0159	-0.0120	0.0094	39.5447	1.1919	8.5680	0.6494	0.1431	0.7359	-0.1268
10.05	-9.6746	0.0096	-1.1776	0.0101	-0.0187	0.0136	39.6711	1.3264	8.6469	0.6495	0.1432	0.7360	-0.1269
10.06	-9.6739	-0.0008	-1.1749	0.0028	-0.0164	0.0147	39.6994	1.3426	8.7013	0.6495	0.1432	0.7359	-0.1269
10.07	-9.6704	-0.0139	-1.1782	0.0091	-0.0189	0.0150	39.4681	1.1872	8.7071	0.6495	0.1432	0.7359	-0.1269
10.08	-9.6722	-0.0037	-1.1773	0.0117	-0.0089	0.0106	39.6857	1.1053	8.4154	0.6495	0.1432	0.7359	-0.1269
10.09	-9.6693	-0.0059	-1.1756	0.0060	-0.0101	0.0143	39.7269	1.1289	8.6775	0.6494	0.1433	0.7359	-0.1269
10.1	-9.6684	-0.0022	-1.1834	0.0111	-0.0170	0.0120	39.8723	1.0676	8.5706	0.6495	0.1433	0.7359	-0.1269
10.11	-9.6750	-0.0115	-1.1833	0.0118	-0.0090	0.0120	39.8095	1.0023	8.6590	0.6494	0.1433	0.7359	-0.1270
10.12	-9.6706	-0.0029	-1.1848	0.0084	-0.0111	0.0151	40.0172	1.1778	8.7546	0.6494	0.1433	0.7360	-0.1270
10.13	-9.6715	0.0019	-1.1993	0.0097	-0.0176	0.0085	40.1598	1.1907	8.6221	0.6494	0.1433	0.7359	-0.1270
10.14	-9.6733	0.0006	-1.1888	0.0047	-0.0162	0.0102	39.9988	1.3019	8.6901	0.6494	0.1433	0.7359	-0.1270
10.15	-9.6764	-0.0000	-1.1825	-0.0037	-0.0196	0.0105	39.5747	1.4559	8.6016	0.6494	0.1433	0.7359	-0.1270
10.16	-9.6741	-0.0090	-1.1887	-0.0026	-0.0148	0.0096	39.4845	1.3139	8.4136	0.6494	0.1433	0.7359	-0.1270
10.17	-9.6784	-0.0024	-1.1841	0.0001	-0.0118	0.0099	39.4800	1.2369	8.5171	0.6494	0.1433	0.7359	-0.1270
10.18	-9.6736	-0.0169	-1.1853	0.0002	-0.0081	0.0107	39.4956	1.3702	8.8512	0.6494	0.1432	0.7359	-0.1270
10.19	-9.6769	-0.0228	-1.1813	-0.0020	-0.0157	0.0079	39.4705	1.3331	8.6220	0.6494	0.1432	0.7360	-0.1270
10.2	-9.6736	-0.0271	-1.1950	-0.0029	-0.0092	0.0161	39.6598	1.4193	8.6969	0.6494	0.1432	0.7360	-0.1269
10.21	-9.6731	-0.0337	-1.1788	0.0080	-0.0120	0.0106	39.7850	1.6211	8.5827	0.6494	0.1432	0.7360	-0.1270
10.22	-9.6658	-0.0270	-1.1727	0.0029	-0.0127	0.0044	39.5335	1.1988	8.4188	0.6493	0.1432	0.7360	-0.1270
10.23	-9.6743	-0.0087	-1.1709	0.0025	-0.0135	0.0097	39.6035	1.3618	8.6747	0.6494	0.1432	0.7360	-0.1270
10.24	-9.6794	-0.0096	-1.1708	0.0081	-0.0196	0.0124	39.4827	1.2382	8.7786	0.6494	0.1432	0.7360	-0.1270
10.25	-9.6692	-0.0093	-1.1679	0.0031	-0.0163	0.0102	39.5924	0.9024	8.7523	0.6494	0.1432	0.7359	-0.1270
10.26	-9.6708	-0.0127	-1.1662	0.0011	-0.0155	0.0098	39.9759	1.0600	8.5117	0.6494	0.1432	0.7360	-0.1270
10.27	-9.6731	-0.0133	-1.1729	0.0017	-0.0165	0.0135	39.7966	1.0363	8.6892	0.6494	0.1431	0.7360	-0.1270
10.28	-9.6740	-0.0097	-1.1687	-0.0022	-0.0047	0.0069	39.4906	1.2080	8.5446	0.6494	0.1431	0.7361	-0.1270
10.29	-9.6690	-0.0132	-1.1768	0.0009	-0.0121	0.0125	39.8599	1.1129	8.4606	0.6493	0.1431	0.7360	-0.1270
10.3	-9.6778	-0.0179	-1.1633	-0.0017	-0.0158	0.0160	39.8670	1.2137	8.3299	0.6494	0.1431	0.7360	-0.1270
10.31	-9.6649	-0.0237	-1.1708	0.0004	-0.0173	0.0110	39.6771	1.1950	8.2449	0.6494	0.1431	0.7360	-0.1269
10.32	-9.6683	-0.0172	-1.1668	0.0028	-0.0121	0.0141	39.5643	1.1922	8.3503	0.6494	0.1431	0.7360	-0.1269
10.33	-9.6718	-0.0129	-1.1686	-0.0001	-0.0090	0.0111	39.6833	1.1192	8.4669	0.6494	0.1431	0.7361	-0.1269
10.34	-9.6713	-0.0108	-1.1756	0.0043	-0.0122	0.0059	39.7167	1.2033	8.4425	0.6493	0.1431	0.7360	-0.1269
10.35	-9.6805	-0.0011	-1.1748	0.0025	-0.0141	0.0138	39.6383	1.2337	8.4824	0.6494	0.1431	0.7361	-0.1269
10.36	-9.6738	-0.0084	-1.1671	-0.0031	-0.0137	0.0130	39.5847	1.3657	8.6533	0.6493	0.1430	0.7360	-0.1269
10.37	-9.6832	0.0024	-1.1814	-0.0023	-0.0105	0.0140	39.4512	1.4611	8.6695	0.6494	0.1430	0.7361	-0.1269
10.38	-9.6723	-0.0027	-1.1731	-0.0045	-0.0121	0.0109	39.6676	1.3971	8.6314	0.6493	0.1430	0.7361	-0.1269
10.39	-9.6690	-0.0004	-1.1647	0.0014	-0.0149	0.0124	39.5751	1.3300	8.5275	0.6493	0.1430	0.7361	-0.1269
10.4	-9.6682	-0.0037	-1.1736	0.0056	-0.0109	0.0109	39.5711	1.4625	8.5532	0.6493	0.1430	0.7361	-0.1269
10.41	-9.6753	-0.0022	-1.1762	0.0035	-0.0169	0.0116	39.5492	1.3054	8.7019	0.6493	0.1430	0.7361	-0.1269
10.42	-9.6745	0.0017	-1.1832	-0.0011	-0.0115	0.0114	39.4516	1.4436	8.4258	0.6493	0.1430	0.7361	-0.1269
10.43	-9.6783	-0.0072	-1.1725	0.0039	-0.0153	0.0134	39.5685	1.3178	8.7443	0.6493	0.1430	0.7361	-0.1268
10.44	-9.6743	-0.0108	-1.1814	-0.0002	-0.0156	0.0111	39.7498	1.0297	8.6004	0.6494	0.1430	0.7362	-0.1269
10.45	-9.6743	-0.0072	-1.1732	0.0073	-0.0149	0.0157	39.7366	1.0895	8.5039	0.6493	0.1430	0.7361	-0.1268
10.46	-9.6751	-0.0143	-1.1756	0.0036	-0.0146	0.0130	39.7120	1.0976	8.6387	0.6494	0.1430	0.7362	-0.1269
10.47	-9.6736	-0.0013	-1.1852	0.0028	-0.0136	0.0110	39.8342	1.2217	8.5278	0.6493	0.1430	0.7361	-0.1268
10.48	-9.6735	-0.0028	-1.1783	0.0020	-0.0143	0.0138	39.7722	1.3693	8.5574	0.6493	0.1430	0.7361	-0.1268
10.49	-9.6742	-0.0123	-1.1671	-0.0043	-0.0189	0.0113	39.7375	1.2464	8.6519	0.6493	0.1429	0.7361	-0.1268
10.5	-9.6737	-0.0127	-1.1801	-0.0016	-0.0177	0.0121	39.5989	1.2916	8.6089	0.6493	0.1429	0.7361	-0.1268
10.51	-9.6789	-0.0229	-1.1849	-0.0027	-0.0135	0.0117	39.4518	1.1812	8.5349	0.6494	0.1429	0.7362	-0.1268
10.52	-9.6748	-0.0172	-1.1805	0.0085	-0.0142	0.0113	39.6607	1.3039	8.6595	0.6493	0.1429	0.7361	-0.1268
10.53	-9.6741	-0.0112	-1.1726	-0.0002	-0.0160	0.0123	39.5854	1.2658	8.5495	0.6494	0.1429	0.7361	-0.1268
10.54	-9.6791	-0.0211	-1.1909	0.0020	-0.0132	0.0117	39.5611	1.2737	8.5108	0.6493	0.1429	0.7361	-0.1268
10.55	-9.6699	-0.0077	-1.1871	0.0006	-0.0134	0.0122	39.6678	1.2894	8.6762	0.6494	0.1429	0.7361	-0.1268
10.56	-9.6711	0.0034	-1.1695	0.0003	-0.0150	0.0100	39.4819	1.2375	8.6940	0.6493	0.1429	0.7361	-0.1268
10.57	-9.6700	-0.0019	-1.1787	-0.0009	-0.0173	0.0118	39.5003	1.4171	8.4923	0.6493	0.1428	0.7361	-0.1268
10.58	-9.6644	0.0011	-1.1762	-0.0033	-0.0139	0.0112	39.4687	1.5407	8.6454	0.6494	0.1428	0.7361	-0.1267
10.59	-9.6701	-0.0000	-1.1657	0.0017	-0.0158	0.0107	39.5221	1.3897	8.7010	0.6494	0.1428	0.7361	-0.1267
10.6	-9.6798	0.0001	-1.1712	0.0043	-0.0186	0.0090	39.5889	1.2981	8.5304	0.6494	0.1428	0.7361	-0.1268
10.61	-9.6723	-0.0085	-1.1726	0.0001	-0.0166	0.0075	39.5510	1.2452	8.5270	0.6493	0.1427	0.7361	-0.1267
10.62	-9.6652	-0.0036	-1.1677	0.0030	-0.0105	0.0108	39.7708	1.5123	8.6433	0.6494	0.1427	0.7362	-0.1268
10.63	-9.6714	-0.0071	-1.1611	0.0124	-0.0141	0.0146	40.1323	1.2107	8.9251	0.6493	0.1428	0.7361	-0.1268
10.64	-9.6735	-0.0149	-1.1695	0.0076	-0.0163	0.0130	39.9985	1.2875	8.7862	0.6494	0.1428	0.7361	-0.1268
10.65	-9.6701	-0.0046	-1.1644	0.0115	-0.0226	0.0131	39.7407	1.4417	8.6581	0.6494	0.1428	0.7361	-0.1268
10.66	-9.6669	-0.0084	-1.1642	0.0097	-0.0196	0.0150	39.5575	1.2228	8.5440	0.6494	0.1428	0.7361	-0.1269
10.67	-9.6677	-0.0034	-1.1718	0.0045	-0.0171	0.0142	39.6802	1.1644	8.4589	0.6494	0.1428	0.7361	-0.1269
10.68	-9.6695	-0.0073	-1.1553	0.0082	-0.0176	0.0146	39.6419	1.3077	8.5088	0.6494	0.1429	0.7360	-0.1269
10.69	-9.6674	-0.0108	-1.1588	0.0119	-0.0179	0.0127	39.4932	1.2385	8.3539	0.6495	0.1429	0.7361	-0.1269
10.7	-9.6809	-0.0153	-1.1573	0.0054	-0.0144	0.0160	39.4388	1.0866	8.4473	0.6494	0.1429	0.7360	-0.1269
10.71	-9.6772	-0.0140	-1.1667	0.0011	-0.0140	0.0183	39.5044	1.1032	8.5396	0.6495	0.1429	0.7361	-0.1269
10.72	-9.6732	-0.0061	-1.1686	0.0082	-0.0193	0.0157	39.5579	1.2187	8.7036	0.6494	0.1429	0.7360	-0.1269
10.73	-9.6692	-0.0071	-1.1682	0.0002	-0.0147	0.0149	39.4751	1.2619	8.4680	0.6494	0.1429	0.7360	-0.1269
10.74	-9.6715	-0.0112	-1.1625	0.0027	-0.0117	0.0201	39.4884	1.5390	8.5845	0.6494	0.1430	0.7360	-0.1268
10.75	-9.6759	-0.0255	-1.1709	0.0009	-0.0152	0.0129	39.5419	1.3138	8.6883	0.6494	0.1430	0.7360	-0.1268
10.76	-9.6703	-0.0184	-1.1783	0.0069	-0.0154	0.0149	39.4425	1.0839	8.4626	0.6495	0.1430	0.7361	-0.1268
10.77	-9.6704	-0.0235	-1.1808	0.0068	-0.0110	0.0130	39.5608	1.3447	8.5925	0.6494	0.1430	0.7360	-0.1268
10.78	-9.6769	-0.0244	-1.1803	0.0048	-0.0152	0.0107	39.5093	1.0382	8.5870	0.6495	0.1430	0.7360	-0.1268
10.79	-9.6722	-0.0076	-1.1784	0.0057	-0.0093	0.0112	39.5523	1.3291	8.4568	0.6494	0.1430	0.7360	-0.1268
10.8	-9.6746	-0.0066	-1.1854	0.0069	-0.0133	0.0140	39.3989	1.2250	8.5308	0.6494	0.1430	0.7360	-0.1269
10.81	-9.6762	-0.0137	-1.1772	0.0060	-0.0176	0.0165	39.6787	1.2297	8.8559	0.6494	0.1430	0.7360	-0.1269
10.82	-9.6709	-0.0026	-1.1825	0.0043	-0.0197	0.0135	39.6096	1.3251	8.5554	0.6494	0.1430	0.7360	-0.1268
10.83	-9.6806	-0.0044	-1.1829	0.0080	-0.0235	0.0144	39.6301	1.0713	8.4857	0.6495	0.1431	0.7360	-0.1269
10.84	-9.6712	-0.0068	-1.1810	0.0102	-0.0132	0.0146	39.6710	1.2823	8.6127	0.6495	0.1431	0.7359	-0.1269
10.85	-9.6662	-0.0019	-1.1783	0.0060	-0.0144	0.0127	39.5983	1.2316	8.4974	0.6495	0.1431	0.7360	-0.1269
10.86	-9.6743	-0.0057	-1.1716	-0.0040	-0.0175	0.0151	39.5492	1.1691	8.4713	0.6494	0.1431	0.7359	-0.1269
10.87	-9.6746	-0.0028	-1.1755	-0.0031	-0.0215	0.0139	39.3228	1.2287	8.5937	0.6495	0.1431	0.7360	-0.1268
10.88	-9.6685	-0.0119	-1.1819	0.0087	-0.0195	0.0128	39.5427	1.2702	8.5355	0.6495	0.1431	0.7359	-0.1269
10.89	-9.6720	-0.0002	-1.1769	0.0033	-0.0220	0.0149	39.5102	1.0910	8.3900	0.6496	0.1431	0.7359	-0.1269
10.9	-9.6736	-0.0097	-1.1701	0.0036	-0.0233	0.0143	39.6414	1.2179	8.4051	0.6496	0.1431	0.7358	-0.1269
10.91	-9.6773	-0.0037	-1.1709	0.0072	-0.0224	0.0143	39.5728	1.0687	8.5085	0.6496	0.1431	0.7358	-0.1269
10.92	-9.6760	0.0004	-1.1675	0.0011	-0.0121	0.0145	39.5161	1.1955	8.6842	0.6496	0.1431	0.7358	-0.1269
10.93	-9.6765	-0.0018	-1.1668	-0.0010	-0.0221	0.0127	39.5092	1.1209	8.8649	0.6496	0.1431	0.7358	-0.1268
10.94	-9.6686	0.0037	-1.1615	0.0014	-0.0172	0.0138	39.6391	1.2007	8.7147	0.6497	0.1431	0.7358	-0.1268
10.95	-9.6775	-0.0038	-1.1702	0.0054	-0.0168	0.0158	39.6851	1.2059	8.6266	0.6496	0.1431	0.7358	-0.1268
10.96	-9.6664	-0.0018	-1.1652	0.0021	-0.0226	0.0130	39.5119	1.1942	8.4827	0.6497	0.1431	0.7358	-0.1268
10.97	-9.6665	0.0003	-1.1609	0.0054	-0.0185	0.0097	39.6141	1.1301	8.4879	0.6497	0.1431	0.7357	-0.1268
10.98	-9.6673	0.0019	-1.1683	0.0082	-0.0103	0.0125	39.7262	1.1907	8.4854	0.6497	0.1431	0.7358	-0.1269
10.99	-9.6578	-0.0065	-1.1657	0.0043	-0.0181	0.0151	39.4567	1.0865	8.6748	0.6497	0.1431	0.7358	-0.1269
11	-9.6627	-0.0122	-1.1600	0.0115	-0.0184	0.0144	39.5004	1.1268	8.5779	0.6497	0.1431	0.7357	-0.1269
11.01	-9.6822	-0.0141	-1.1666	0.0101	-0.0197	0.0147	39.7243	1.1099	8.4864	0.6498	0.1432	0.7358	-0.1269
11.02	-9.6761	-0.0179	-1.1653	0.0119	-0.0181	0.0145	39.6912	1.2558	8.4617	0.6497	0.1432	0.7357	-0.1269
11.03	-9.6718	-0.0194	-1.1727	0.0092	-0.0184	0.0133	39.6475	1.0994	8.5767	0.6498	0.1432	0.7357	-0.1270
11.04	-9.6750	-0.0151	-1.1774	0.0040	-0.0142	0.0152	39.5178	1.2076	8.4857	0.6497	0.1432	0.7356	-0.1269
11.05	-9.6686	-0.0053	-1.1707	0.0098	-0.0125	0.0129	39.4287	1.2804	8.2668	0.6497	0.1432	0.7357	-0.1270
11.06	-9.6609	-0.0083	-1.1645	0.0053	-0.0142	0.0150	39.5133	1.1498	8.6514	0.6497	0.1433	0.7357	-0.1270
11.07	-9.6730	0.0006	-1.1777	-0.0021	-0.0186	0.0109	39.7519	1.2896	8.3732	0.6497	0.1432	0.7356	-0.1269
11.08	-9.6754	-0.0018	-1.1780	0.0046	-0.0140	0.0112	39.4646	1.2894	8.5072	0.6498	0.1432	0.7357	-0.1270
11.09	-9.6684	-0.0081	-1.1678	0.0090	-0.0161	0.0147	39.6108	0.8836	8.7100	0.6497	0.1433	0.7356	-0.1270
11.1	-9.6645	-0.0047	-1.1819	0.0035	-0.0192	0.0136	39.5100	1.1324	8.4295	0.6498	0.1433	0.7357	-0.1270
11.11	-9.6761	0.0025	-1.1838	0.0017	-0.0151	0.0145	39.3938	1.2973	8.6631	0.6497	0.1432	0.7356	-0.1269
11.12	-9.6668	0.0021	-1.1824	0.0015	-0.0129	0.0135	39.7679	1.2881	8.8638	0.6498	0.1433	0.7357	-0.1270
11.13	-9.6691	-0.0029	-1.1833	0.0041	-0.0207	0.0125	40.1873	1.4032	8.8323	0.6498	0.1433	0.7356	-0.1270
11.14	-9.6717	-0.0117	-1.1825	-0.0014	-0.0093	0.0140	39.9914	1.3888	8.8421	0.6498	0.1433	0.7356	-0.1269
11.15	-9.6665	-0.0149	-1.1829	0.0007	-0.0089	0.0142	39.6131	1.6734	8.8051	0.6498	0.1432	0.7356	-0.1269
11.16	-9.6734	-0.0230	-1.1709	0.0037	-0.0085	0.0076	39.3886	1.5139	8.4990	0.6497	0.1432	0.7357	-0.1269
11.17	-9.6679	-0.0208	-1.1654	-0.0001	-0.0103	0.0109	39.3928	1.5457	8.4375	0.6497	0.1432	0.7357	-0.1269
11.18	-9.6748	-0.0059	-1.1646	-0.0037	-0.0150	0.0094	39.3792	1.2769	8.6418	0.6497	0.1432	0.7356	-0.1269
11.19	-9.6691	-0.0049	-1.1648	-0.0023	-0.0157	0.0091	39.6926	0.9665	8.5058	0.6498	0.1432	0.7357	-0.1269
11.2	-9.6703	-0.0030	-1.1791	0.0037	-0.0154	0.0104	39.8612	1.1748	8.5552	0.6497	0.1431	0.7357	-0.1269
11.21	-9.6811	0.0010	-1.1840	-0.0009	-0.0120	0.0117	39.9065	0.9987	8.4888	0.6498	0.1431	0.7358	-0.1269
11.22	-9.6702	-0.0023	-1.1861	0.0086	-0.0103	0.0087	39.7175	1.1123	8.3163	0.6497	0.1431	0.7357	-0.1269
11.23	-9.6615	-0.0023	-1.1860	0.0012	-0.0150	0.0121	39.5941	1.2021	8.5276	0.6497	0.1431	0.7357	-0.1269
11.24	-9.6764	0.0056	-1.1779	-0.0006	-0.0072	0.0125	39.5566	1.1614	8.4531	0.6497	0.1431	0.7357	-0.1269
11.25	-9.6771	-0.0036	-1.1831	-0.0016	-0.0119	0.0146	39.8332	1.2096	8.5171	0.6497	0.1431	0.7357	-0.1268
11.26	-9.6641	-0.0015	-1.1638	-0.0026	-0.0189	0.0144	39.5889	1.1411	8.6195	0.6498	0.1431	0.7358	-0.1268
11.27	-9.6712	-0.0057	-1.1721	-0.0033	-0.0208	0.0047	39.5655	1.2621	8.5186	0.6497	0.1430	0.7357	-0.1268
11.28	-9.6759	0.0013	-1.1729	-0.0006	-0.0183	0.0098	39.4929	1.3809	8.6999	0.6498	0.1430	0.7358	-0.1268
11.29	-9.6699	0.0100	-1.1843	0.0017	-0.0095	0.0127	39.4586	1.2494	8.7168	0.6497	0.1430	0.7357	-0.1268
11.3	-9.6668	-0.0043	-1.1725	-0.0017	-0.0086	0.0102	39.4755	1.3488	8.5398	0.6497	0.1430	0.7358	-0.1268
11.31	-9.6681	-0.0080	-1.1651	0.0005	-0.0115	0.0121	39.4978	1.2166	8.5797	0.6497	0.1430	0.7358	-0.1268
11.32	-9.6788	-0.0008	-1.1720	0.0051	-0.0132	0.0147	39.6490	1.3453	8.6009	0.6497	0.1430	0.7358	-0.1268
11.33	-9.6710	-0.0044	-1.1686	-0.0020	-0.0170	0.0069	39.6179	1.3578	8.7423	0.6497	0.1430	0.7358	-0.1268
11.34	-9.6757	-0.0029	-1.1691	-0.0023	-0.0140	0.0133	39.6529	1.4397	8.6071	0.6497	0.1429	0.7358	-0.1268
11.35	-9.6786	-0.0058	-1.1636	-0.0005	-0.0036	0.0076	39.5738	1.4382	8.7434	0.6497	0.1429	0.7358	-0.1268
11.36	-9.6641	-0.0173	-1.1588	-0.0006	-0.0149	0.0093	39.5247	1.3476	8.7224	0.6496	0.1429	0.7358	-0.1267
11.37	-9.6642	-0.0220	-1.1615	0.0022	-0.0221	0.0133	39.6783	1.1500	8.4966	0.6497	0.1429	0.7358	-0.1267
11.38	-9.6830	-0.0160	-1.1714	-0.0008	-0.0144	0.0117	39.8818	1.0496	8.6738	0.6497	0.1429	0.7358	-0.1267
11.39	-9.6845	-0.0135	-1.1713	-0.0016	-0.0198	0.0088	39.8165	1.2733	8.5931	0.6498	0.1428	0.7358	-0.1267
11.4	-9.6635	-0.0136	-1.1564	-0.0014	-0.0118	0.0115	39.7753	1.1657	8.6358	0.6497	0.1428	0.7358	-0.1267
11.41	-9.6686	-0.0194	-1.1567	0.0037	-0.0182	0.0115	39.7098	1.2234	8.4837	0.6497	0.1428	0.7358	-0.1267
11.42	-9.6659	-0.0173	-1.1568	0.0031	-0.0191	0.0072	39.7153	1.0539	8.6025	0.6498	0.1428	0.7358	-0.1267
11.43	-9.6676	-0.0259	-1.1563	0.0031	-0.0218	0.0144	39.7190	1.0672	8.6465	0.6497	0.1428	0.7357	-0.1267
11.44	-9.6741	-0.0249	-1.1688	0.0017	-0.0135	0.0117	39.7062	1.2162	8.4846	0.6498	0.1428	0.7358	-0.1267
11.45	-9.6785	-0.0199	-1.1722	-0.0070	-0.0166	0.0125	39.6176	1.0276	8.4553	0.6498	0.1427	0.7357	-0.1267
11.46	-9.6759	-0.0162	-1.1788	0.0071	-0.0187	0.0094	39.6499	1.2394	8.6349	0.6499	0.1428	0.7358	-0.1267
11.47	-9.6695	-0.0024	-1.1769	0.0054	-0.0162	0.0109	39.6226	1.3713	8.5186	0.6498	0.1427	0.7357	-0.1267
11.48	-9.6766	0.0025	-1.1849	0.0056	-0.0198	0.0112	39.6527	1.2081	8.5194	0.6498	0.1427	0.7357	-0.1267
11.49	-9.6820	-0.0026	-1.1951	0.0010	-0.0157	0.0100	39.5982	1.1924	8.5619	0.6498	0.1427	0.7357	-0.1267
11.5	-9.6688	0.0070	-1.1883	-0.0035	-0.0107	0.0138	39.4594	1.4294	8.7222	0.6498	0.1427	0.7357	-0.1267
11.51	-9.6689	0.0004	-1.1848	-0.0034	-0.0108	0.0132	39.4802	1.4333	8.4811	0.6499	0.1427	0.7358	-0.1267
11.52	-9.6828	0.0035	-1.1960	-0.0016	-0.0157	0.0092	39.6065	1.4108	8.4095	0.6498	0.1427	0.7357	-0.1267
11.53	-9.6745	0.0016	-1.1900	-0.0018	-0.0138	0.0109	39.4640	1.4779	8.4855	0.6499	0.1426	0.7358	-0.1267
11.54	-9.6668	-0.0082	-1.1899	0.0007	-0.0108	0.0120	39.5582	1.6184	8.6196	0.6498	0.1426	0.7357	-0.1266
11.55	-9.6752	-0.0024	-1.1918	-0.0001	-0.0159	0.0105	39.6368	1.2561	8.6000	0.6498	0.1426	0.7358	-0.1266
11.56	-9.6786	-0.0046	-1.1911	0.0011	-0.0150	0.0136	39.6781	1.1411	8.4663	0.6498	0.1426	0.7358	-0.1266
11.57	-9.6675	0.0059	-1.1837	0.0007	-0.0205	0.0124	39.7460	1.2496	8.4226	0.6498	0.1426	0.7357	-0.1266
11.58	-9.6775	-0.0011	-1.1835	0.0027	-0.0109	0.0142	39.6247	0.8411	8.4741	0.6499	0.1426	0.7358	-0.1266
11.59	-9.6770	0.0056	-1.1871	0.0030	-0.0173	0.0144	39.5185	1.0697	8.5347	0.6499	0.1426	0.7357	-0.1266
11.6	-9.6770	0.0069	-1.1756	-0.0009	-0.0152	0.0129	39.6444	1.3654	8.5453	0.6499	0.1426	0.7358	-0.1266
11.61	-9.6729	0.0067	-1.1728	0.0021	-0.0138	0.0107	39.5402	1.1043	8.4173	0.6498	0.1426	0.7357	-0.1266
11.62	-9.6773	0.0055	-1.1770	0.0012	-0.0108	0.0111	39.7798	1.4617	8.5805	0.6499	0.1426	0.7358	-0.1266
11.63	-9.6647	0.0026	-1.1682	0.0096	-0.0164	0.0118	40.0396	1.1899	8.7526	0.6498	0.1426	0.7357	-0.1266
11.64	-9.6707	-0.0005	-1.1548	0.0156	-0.0156	0.0147	39.8098	1.3110	8.6629	0.6499	0.1426	0.7358	-0.1266
11.65	-9.6797	-0.0022	-1.1634	0.0163	-0.0169	0.0175	39.6972	1.2288	8.6379	0.6498	0.1427	0.7357	-0.1267
11.66	-9.6698	0.0057	-1.1663	0.0016	-0.0215	0.0132	39.4555	1.2725	8.7047	0.6499	0.1427	0.7357	-0.1267
11.67	-9.6676	0.0050	-1.1605	0.0006	-0.0222	0.0107	39.2980	1.3502	8.6939	0.6499	0.1426	0.7357	-0.1267
11.68	-9.6707	-0.0019	-1.1593	0.0015	-0.0208	0.0131	39.5503	1.2602	8.8519	0.6499	0.1426	0.7356	-0.1266
11.69	-9.6774	0.0009	-1.1628	-0.0014	-0.0233	0.0091	39.3332	1.2942	8.6420	0.6500	0.1426	0.7357	-0.1267
11.7	-9.6610	-0.0022	-1.1671	0.0010	-0.0160	0.0107	39.3936	1.3061	8.5980	0.6500	0.1426	0.7356	-0.1266
11.71	-9.6625	-0.0022	-1.1638	0.0009	-0.0159	0.0128	39.5425	1.1776	8.7884	0.6500	0.1426	0.7357	-0.1266
11.72	-9.6730	-0.0062	-1.1630	0.0023	-0.0126	0.0154	39.5057	1.0078	8.6991	0.6500	0.1426	0.7356	-0.1266
11.73	-9.6785	-0.0019	-1.1659	-0.0010	-0.0198	0.0157	39.3583	1.0623	8.8687	0.6500	0.1426	0.7356	-0.1266
