time	acceleration_x	acceleration_y	acceleration_z	gyroscope_x	gyroscope_y	gyroscope_z	magnetometer_x	magnetometer_y	magnetometer_z	quaternion_w	quaternion_x	quaternion_y	quaternion_z
0	-9.3987	-1.3551	-1.6770	-0.0052	0.0105	-0.0086	13.5324	-12.1666	-0.5767	0.2477	-0.7364	0.1702	0.6061
0.01	-9.4029	-1.3691	-1.6629	-0.0008	0.0142	-0.0063	13.4362	-11.8852	-0.7138	0.2477	-0.7364	0.1705	0.6060
0.02	-9.4998	-1.3864	-1.6838	0.0118	0.0346	-0.0104	13.4796	-11.9203	-0.7547	0.2476	-0.7365	0.1708	0.6059
0.03	-9.5152	-1.3473	-1.6709	0.0131	0.0306	-0.0049	13.4323	-12.0999	-0.7290	0.2475	-0.7365	0.1712	0.6057
0.04	-9.6628	-1.3241	-1.6604	0.0189	0.0458	-0.0042	13.3071	-11.9183	-0.8652	0.2473	-0.7367	0.1715	0.6057
0.05	-9.7159	-1.3269	-1.6867	0.0201	0.0347	0.0047	13.3113	-11.7770	-0.6624	0.2471	-0.7367	0.1717	0.6056
0.06	-9.6905	-1.3061	-1.6746	0.0188	0.0103	0.0109	13.4046	-12.0482	-0.9395	0.2469	-0.7367	0.1721	0.6056
0.07	-9.7431	-1.3054	-1.6924	0.0238	0.0028	0.0099	13.3977	-12.1776	-0.8192	0.2468	-0.7366	0.1723	0.6056
0.08	-9.6760	-1.2715	-1.6962	0.0210	-0.0227	0.0167	13.4576	-11.9930	-0.6189	0.2467	-0.7365	0.1727	0.6057
0.09	-9.6148	-1.2468	-1.6901	0.0215	-0.0386	0.0152	13.2764	-12.0105	-0.6427	0.2466	-0.7363	0.1731	0.6059
0.1	-9.6493	-1.2369	-1.6921	0.0422	-0.0433	0.0098	13.2864	-12.1523	-0.7551	0.2465	-0.7360	0.1734	0.6060
0.11	-9.6472	-1.2176	-1.6876	0.0449	-0.0592	0.0114	13.4310	-12.1703	-0.5064	0.2465	-0.7359	0.1737	0.6064
0.12	-9.6271	-1.1837	-1.6685	0.0426	-0.0664	0.0057	13.4368	-12.0934	-0.7825	0.2465	-0.7355	0.1741	0.6065
0.13	-9.6048	-1.1727	-1.6815	0.0334	-0.0650	-0.0033	13.5277	-12.1006	-0.7892	0.2466	-0.7353	0.1744	0.6068
0.14	-9.5590	-1.1627	-1.6579	0.0282	-0.0721	-0.0007	13.4939	-12.2604	-0.7122	0.2465	-0.7350	0.1746	0.6070
0.15	-9.5702	-1.1578	-1.6512	0.0305	-0.0714	-0.0031	13.3794	-12.1227	-0.7498	0.2465	-0.7348	0.1748	0.6073
0.16	-9.4993	-1.1137	-1.6639	0.0214	-0.0831	0.0031	13.4625	-12.3379	-0.7445	0.2464	-0.7345	0.1749	0.6077
0.17	-9.4612	-1.0950	-1.6306	0.0206	-0.0793	-0.0011	13.2282	-12.2666	-0.6628	0.2463	-0.7341	0.1751	0.6080
0.18	-9.2972	-1.1048	-1.6651	0.0120	-0.0735	0.0006	13.2529	-12.1042	-0.6317	0.2463	-0.7339	0.1751	0.6084
0.19	-9.1108	-1.0970	-1.6462	0.0077	-0.0543	-0.0035	13.2995	-12.4896	-0.8029	0.2463	-0.7336	0.1752	0.6086
0.2	-9.1363	-1.0713	-1.6193	0.0136	-0.0105	-0.0057	13.2528	-12.3831	-0.8169	0.2462	-0.7336	0.1753	0.6088
0.21	-9.5948	-1.0691	-1.5779	0.0067	0.0439	-0.0061	13.8316	-11.9025	-0.4518	0.2462	-0.7335	0.1757	0.6086
0.22	-9.8941	-1.0835	-1.6606	-0.0092	0.0346	0.0103	13.8367	-12.0146	-0.3490	0.2462	-0.7336	0.1762	0.6085
0.23	-10.2230	-1.1011	-1.6305	-0.0104	0.0062	0.0112	13.6843	-12.2569	-0.5209	0.2462	-0.7335	0.1766	0.6085
0.24	-9.6806	-1.1278	-1.7526	-0.0249	-0.0889	0.0174	13.5363	-12.2568	-0.5309	0.2462	-0.7331	0.1769	0.6088
0.25	-9.2225	-0.9810	-1.6068	-0.0102	-0.1420	0.0168	13.1348	-12.2146	-0.6275	0.2461	-0.7326	0.1769	0.6094
0.26	-9.4124	-1.1051	-1.5994	-0.0264	-0.0529	-0.0182	13.3075	-12.2331	-0.5810	0.2460	-0.7324	0.1768	0.6097
0.27	-9.3813	-1.1172	-1.6717	-0.0202	-0.0571	-0.0076	13.2638	-12.1093	-0.6794	0.2459	-0.7323	0.1768	0.6100
0.28	-9.3718	-1.0460	-1.5852	0.0004	-0.0327	-0.0125	13.2071	-12.1926	-0.7135	0.2457	-0.7321	0.1768	0.6102
0.29	-9.4836	-1.0424	-1.6029	-0.0114	-0.0255	-0.0277	13.2376	-12.3887	-0.5876	0.2457	-0.7321	0.1768	0.6104
0.3	-9.5525	-1.0669	-1.5814	-0.0189	-0.0189	-0.0310	13.2188	-12.2756	-0.7639	0.2456	-0.7319	0.1767	0.6105
0.31	-9.7098	-1.0140	-1.5309	-0.0263	-0.0232	-0.0325	13.2255	-12.4866	-0.8199	0.2455	-0.7320	0.1766	0.6107
0.32	-9.8716	-1.0497	-1.6359	-0.0313	-0.0200	-0.0351	13.2965	-12.4553	-0.6599	0.2453	-0.7318	0.1765	0.6107
0.33	-9.5199	-1.0098	-1.6302	-0.0312	-0.0879	-0.0187	13.4720	-12.4582	-0.6225	0.2452	-0.7316	0.1764	0.6112
0.34	-9.4922	-1.0328	-1.5502	-0.0437	-0.0699	-0.0278	13.4582	-12.2945	-0.7068	0.2450	-0.7314	0.1762	0.6115
0.35	-9.5739	-1.0725	-1.6019	-0.0489	-0.0556	-0.0420	13.3100	-12.2734	-0.7641	0.2449	-0.7313	0.1759	0.6117
0.36	-9.4990	-1.0342	-1.5514	-0.0401	-0.0687	-0.0417	13.3032	-12.4050	-0.9052	0.2448	-0.7312	0.1757	0.6121
0.37	-9.4128	-1.0321	-1.5270	-0.0553	-0.0637	-0.0369	13.3476	-12.2012	-0.8767	0.2446	-0.7310	0.1755	0.6124
0.38	-9.4440	-1.0454	-1.4924	-0.0566	-0.0642	-0.0437	13.2195	-12.2614	-0.8574	0.2445	-0.7309	0.1752	0.6128
0.39	-9.4317	-1.0624	-1.4731	-0.0561	-0.0494	-0.0428	13.3241	-12.3109	-0.5671	0.2443	-0.7307	0.1749	0.6129
0.4	-9.3674	-1.0573	-1.4348	-0.0588	-0.0377	-0.0381	13.3997	-12.1490	-0.6385	0.2443	-0.7306	0.1749	0.6132
0.41	-9.3936	-1.0536	-1.4142	-0.0687	-0.0207	-0.0391	12.9513	-12.2728	-0.7436	0.2440	-0.7306	0.1746	0.6133
0.42	-9.4299	-1.0508	-1.4093	-0.0699	-0.0105	-0.0425	13.2602	-12.2994	-0.8988	0.2437	-0.7306	0.1744	0.6134
0.43	-9.4275	-1.0396	-1.4144	-0.0748	-0.0125	-0.0382	13.0975	-12.1953	-0.8624	0.2435	-0.7307	0.1741	0.6136
0.44	-9.3324	-1.0318	-1.4123	-0.0811	-0.0118	-0.0375	13.0664	-12.3289	-0.7937	0.2431	-0.7307	0.1739	0.6137
0.45	-9.3328	-1.0341	-1.4156	-0.0802	0.0032	-0.0467	13.1675	-12.4374	-0.7243	0.2428	-0.7309	0.1736	0.6139
0.46	-9.4167	-1.0517	-1.4502	-0.0825	0.0219	-0.0439	13.1116	-12.1598	-0.6793	0.2425	-0.7309	0.1733	0.6138
0.47	-9.4787	-1.0399	-1.4581	-0.0826	0.0212	-0.0465	13.2681	-12.2621	-0.9300	0.2422	-0.7312	0.1730	0.6139
0.48	-9.4640	-1.0460	-1.4809	-0.0817	0.0198	-0.0380	13.1783	-12.3647	-0.6898	0.2418	-0.7313	0.1728	0.6139
0.49	-9.4206	-1.0381	-1.4591	-0.0817	0.0200	-0.0334	13.3732	-12.0101	-0.7080	0.2416	-0.7314	0.1727	0.6139
0.5	-9.6039	-1.0538	-1.4553	-0.0834	0.0376	-0.0355	13.5311	-12.4593	-0.7672	0.2413	-0.7315	0.1726	0.6138
0.51	-9.6590	-1.0442	-1.4658	-0.0771	0.0162	-0.0353	13.3171	-12.4120	-0.9635	0.2409	-0.7317	0.1723	0.6139
0.52	-9.6092	-1.0180	-1.4458	-0.0797	-0.0097	-0.0322	13.1711	-12.4159	-0.9091	0.2406	-0.7318	0.1721	0.6140
0.53	-9.4853	-1.0258	-1.4470	-0.0841	-0.0261	-0.0312	13.3440	-12.5066	-0.8719	0.2403	-0.7317	0.1718	0.6142
0.54	-9.3907	-1.0408	-1.4427	-0.0818	-0.0423	-0.0321	13.1832	-12.2256	-0.8685	0.2400	-0.7317	0.1716	0.6145
0.55	-9.3897	-1.0383	-1.4644	-0.0814	-0.0355	-0.0366	12.9865	-12.3593	-0.7850	0.2397	-0.7317	0.1712	0.6147
0.56	-9.4565	-1.0411	-1.4875	-0.0787	-0.0340	-0.0413	13.1441	-12.3820	-0.9942	0.2394	-0.7317	0.1710	0.6150
0.57	-9.4058	-1.0658	-1.5057	-0.0774	-0.0405	-0.0427	13.1228	-12.3799	-0.9647	0.2391	-0.7316	0.1706	0.6152
0.58	-9.3227	-1.0412	-1.5064	-0.0664	-0.0228	-0.0401	13.2743	-12.4846	-0.8523	0.2389	-0.7316	0.1704	0.6154
0.59	-9.3961	-1.0292	-1.5257	-0.0670	0.0059	-0.0475	12.9452	-12.4571	-0.9091	0.2386	-0.7317	0.1701	0.6154
0.6	-9.3438	-1.0277	-1.5557	-0.0793	-0.0043	-0.0423	13.1178	-12.4844	-0.7818	0.2383	-0.7317	0.1698	0.6155
0.61	-9.2441	-1.0157	-1.5525	-0.0739	-0.0018	-0.0404	13.1434	-12.2572	-0.7971	0.2381	-0.7319	0.1696	0.6157
0.62	-9.2583	-1.0221	-1.5584	-0.0759	0.0156	-0.0412	13.0186	-12.3166	-0.9240	0.2377	-0.7319	0.1694	0.6157
0.63	-9.4372	-1.0359	-1.5737	-0.0648	0.0220	-0.0477	13.2738	-12.4564	-1.0671	0.2375	-0.7321	0.1691	0.6157
0.64	-9.4767	-1.0692	-1.6018	-0.0820	0.0227	-0.0468	13.1076	-12.0632	-0.9836	0.2371	-0.7322	0.1689	0.6157
0.65	-9.5434	-1.0827	-1.6057	-0.0692	0.0212	-0.0519	12.9522	-12.1784	-0.9742	0.2369	-0.7324	0.1686	0.6157
0.66	-9.7105	-1.1114	-1.6492	-0.0537	0.0359	-0.0590	13.2655	-12.3145	-0.9767	0.2367	-0.7325	0.1684	0.6156
0.67	-9.7054	-1.1069	-1.6816	-0.0585	0.0151	-0.0577	13.1334	-12.3468	-0.9736	0.2365	-0.7326	0.1682	0.6156
0.68	-9.7975	-1.1079	-1.6901	-0.0479	0.0177	-0.0527	13.1325	-12.3995	-0.9662	0.2363	-0.7328	0.1680	0.6157
0.69	-9.8065	-1.1271	-1.7311	-0.0394	0.0224	-0.0561	13.2703	-12.4906	-1.1221	0.2362	-0.7329	0.1678	0.6156
0.7	-9.6377	-1.1257	-1.7266	-0.0481	0.0012	-0.0575	13.1647	-12.2021	-0.9371	0.2360	-0.7330	0.1676	0.6157
0.71	-9.6548	-1.1363	-1.7019	-0.0316	0.0189	-0.0578	13.4392	-12.2813	-0.7653	0.2361	-0.7329	0.1676	0.6155
0.72	-9.6868	-1.1415	-1.6920	-0.0303	0.0241	-0.0585	13.4604	-12.3854	-0.9051	0.2362	-0.7331	0.1677	0.6154
0.73	-9.6839	-1.1315	-1.6625	-0.0302	0.0134	-0.0647	13.2590	-12.3741	-1.0050	0.2361	-0.7331	0.1675	0.6154
0.74	-9.7077	-1.1515	-1.6585	-0.0266	0.0130	-0.0747	13.2226	-12.5279	-0.9551	0.2361	-0.7332	0.1673	0.6154
0.75	-9.5727	-1.1576	-1.6469	-0.0281	0.0022	-0.0800	12.9926	-12.3526	-1.0227	0.2361	-0.7333	0.1670	0.6154
0.76	-9.5276	-1.1760	-1.6360	-0.0189	0.0130	-0.0863	13.2253	-12.4788	-1.1459	0.2361	-0.7334	0.1668	0.6153
0.77	-9.6077	-1.2134	-1.6573	-0.0173	0.0281	-0.0994	13.2486	-12.3227	-1.2597	0.2361	-0.7336	0.1666	0.6152
0.78	-9.5433	-1.2394	-1.6808	-0.0122	0.0278	-0.0970	13.1625	-12.1192	-1.0127	0.2361	-0.7337	0.1664	0.6150
0.79	-9.4421	-1.2393	-1.6924	-0.0038	0.0285	-0.0894	13.1296	-12.3092	-0.9310	0.2361	-0.7339	0.1663	0.6149
0.8	-9.4942	-1.2474	-1.7063	-0.0069	0.0419	-0.0831	13.0345	-12.3125	-1.0444	0.2361	-0.7340	0.1662	0.6146
0.81	-9.5400	-1.2582	-1.7192	-0.0028	0.0478	-0.0777	13.0890	-12.2113	-1.0198	0.2361	-0.7343	0.1662	0.6145
0.82	-9.5894	-1.2565	-1.7107	-0.0019	0.0453	-0.0659	12.9432	-12.3740	-1.0058	0.2360	-0.7344	0.1662	0.6142
0.83	-9.6298	-1.2597	-1.7187	-0.0004	0.0418	-0.0675	13.1224	-12.1860	-1.0626	0.2360	-0.7346	0.1662	0.6141
0.84	-9.5630	-1.2458	-1.7100	0.0131	0.0247	-0.0623	13.1306	-12.1885	-1.0985	0.2359	-0.7347	0.1662	0.6139
0.85	-9.5439	-1.2239	-1.6949	0.0135	0.0210	-0.0622	12.9332	-12.3707	-0.9042	0.2359	-0.7348	0.1662	0.6138
0.86	-9.5505	-1.2543	-1.6950	0.0005	0.0198	-0.0592	13.1024	-12.2120	-0.9397	0.2359	-0.7350	0.1662	0.6137
0.87	-9.5782	-1.2573	-1.6923	0.0031	0.0223	-0.0631	13.1526	-12.4501	-0.9206	0.2359	-0.7350	0.1662	0.6136
0.88	-9.7590	-1.2465	-1.6929	0.0058	0.0262	-0.0609	13.1568	-12.5386	-0.9209	0.2359	-0.7352	0.1662	0.6135
0.89	-9.7725	-1.2486	-1.7258	-0.0019	0.0044	-0.0513	13.1196	-12.5075	-0.9285	0.2359	-0.7351	0.1661	0.6134
0.9	-9.6924	-1.2355	-1.7402	-0.0057	-0.0209	-0.0331	13.3137	-12.4007	-0.9100	0.2358	-0.7351	0.1661	0.6136
0.91	-9.7364	-1.2585	-1.7486	-0.0038	-0.0249	-0.0343	13.2543	-12.2810	-0.7887	0.2357	-0.7350	0.1661	0.6137
0.92	-9.7504	-1.2556	-1.7461	-0.0053	-0.0464	-0.0408	13.0209	-12.2066	-0.9325	0.2357	-0.7349	0.1660	0.6138
0.93	-9.7390	-1.2408	-1.7325	-0.0096	-0.0598	-0.0367	13.1720	-12.4793	-1.0152	0.2357	-0.7347	0.1659	0.6141
0.94	-9.7206	-1.2460	-1.7191	-0.0166	-0.0691	-0.0328	13.1386	-12.7624	-1.0254	0.2356	-0.7345	0.1658	0.6144
0.95	-9.7598	-1.2772	-1.7037	-0.0081	-0.0711	-0.0344	13.1431	-12.5854	-0.9756	0.2356	-0.7343	0.1657	0.6147
0.96	-9.7124	-1.2863	-1.6952	-0.0062	-0.0777	-0.0355	13.1676	-12.3007	-1.1483	0.2356	-0.7340	0.1656	0.6150
0.97	-9.7700	-1.3086	-1.6618	-0.0040	-0.0768	-0.0307	13.0063	-12.2850	-1.0503	0.2356	-0.7338	0.1656	0.6154
0.98	-9.8846	-1.3455	-1.6644	0.0062	-0.0926	-0.0176	12.9959	-12.3123	-1.1057	0.2356	-0.7335	0.1655	0.6157
0.99	-9.8263	-1.3075	-1.6136	0.0238	-0.1283	-0.0063	13.1378	-12.2321	-1.2156	0.2356	-0.7331	0.1655	0.6162
1	-9.8339	-1.2349	-1.5546	0.0418	-0.1457	0.0109	13.2692	-12.2496	-0.8389	0.2357	-0.7325	0.1656	0.6168
1.01	-10.0150	-1.1945	-1.5116	0.0509	-0.1626	0.0146	13.1810	-12.2762	-1.1502	0.2359	-0.7319	0.1658	0.6175
1.02	-9.9513	-1.1539	-1.4447	0.0505	-0.2014	0.0215	12.9948	-12.3665	-0.9900	0.2360	-0.7312	0.1659	0.6182
1.03	-9.8255	-1.1124	-1.3647	0.0556	-0.2326	0.0406	13.1755	-12.3275	-1.2167	0.2361	-0.7302	0.1661	0.6191
1.04	-9.7979	-1.0780	-1.3226	0.0689	-0.2415	0.0380	13.1274	-12.3425	-1.1674	0.2363	-0.7294	0.1663	0.6201
1.05	-9.6584	-1.0219	-1.2806	0.0697	-0.2646	0.0568	13.1865	-12.5115	-1.3018	0.2365	-0.7284	0.1665	0.6211
1.06	-9.5552	-0.9640	-1.2288	0.0684	-0.2699	0.0539	13.2775	-12.7150	-1.3943	0.2366	-0.7274	0.1667	0.6222
1.07	-9.4961	-0.9484	-1.2015	0.0686	-0.2570	0.0436	13.1066	-12.6760	-1.4129	0.2368	-0.7264	0.1669	0.6232
1.08	-9.3939	-0.9012	-1.1630	0.0721	-0.2382	0.0419	13.1958	-12.7147	-1.0380	0.2370	-0.7255	0.1671	0.6242
1.09	-9.3608	-0.8845	-1.1286	0.0691	-0.2208	0.0359	13.0232	-12.6344	-1.1557	0.2372	-0.7246	0.1673	0.6250
1.1	-9.3234	-0.8834	-1.1182	0.0583	-0.1990	0.0307	12.9363	-12.5840	-1.4299	0.2373	-0.7238	0.1675	0.6258
1.11	-9.2745	-0.8468	-1.0908	0.0558	-0.1697	0.0258	13.0813	-12.7199	-1.1799	0.2375	-0.7232	0.1677	0.6265
1.12	-9.2632	-0.8102	-1.0652	0.0437	-0.1440	0.0287	12.9063	-12.6714	-1.4266	0.2375	-0.7226	0.1679	0.6271
1.13	-9.2952	-0.7985	-1.0564	0.0414	-0.1303	0.0281	12.8364	-12.5104	-1.4067	0.2375	-0.7221	0.1681	0.6277
1.14	-9.2460	-0.8199	-1.0582	0.0234	-0.1099	0.0217	13.0895	-12.5991	-1.1597	0.2375	-0.7216	0.1682	0.6281
1.15	-9.1756	-0.8533	-1.0800	0.0186	-0.0777	0.0194	12.9030	-12.7291	-1.3893	0.2374	-0.7213	0.1684	0.6285
1.16	-9.2073	-0.8829	-1.1171	0.0205	-0.0411	0.0112	13.0835	-12.4739	-1.4101	0.2373	-0.7211	0.1686	0.6287
1.17	-9.3172	-0.9147	-1.1563	0.0190	-0.0174	0.0058	12.8855	-12.3910	-1.2390	0.2373	-0.7209	0.1688	0.6289
1.18	-9.5001	-0.9217	-1.2002	0.0211	0.0147	-0.0055	12.9018	-12.6441	-1.3188	0.2372	-0.7209	0.1690	0.6289
1.19	-9.6099	-0.9221	-1.2514	0.0215	0.0225	0.0036	12.7929	-12.7165	-1.2783	0.2371	-0.7209	0.1692	0.6289
1.2	-9.6834	-0.9427	-1.2983	0.0173	0.0087	0.0168	12.7303	-12.6475	-1.2662	0.2370	-0.7209	0.1694	0.6289
1.21	-9.6865	-0.9765	-1.3478	0.0271	0.0041	0.0120	13.2096	-12.4935	-1.0015	0.2370	-0.7207	0.1699	0.6289
1.22	-9.6048	-0.9662	-1.3543	0.0434	-0.0059	0.0158	13.1146	-12.5323	-0.8939	0.2370	-0.7206	0.1702	0.6290
1.23	-9.5610	-0.9624	-1.3647	0.0542	-0.0182	0.0135	12.9442	-12.5608	-1.2162	0.2370	-0.7204	0.1705	0.6291
1.24	-9.5137	-0.9338	-1.3666	0.0682	-0.0120	0.0153	12.7472	-12.5454	-1.1770	0.2371	-0.7202	0.1709	0.6292
1.25	-9.4742	-0.9234	-1.3675	0.0686	0.0052	0.0151	12.7412	-12.7000	-1.2458	0.2371	-0.7201	0.1713	0.6292
1.26	-9.4543	-0.8813	-1.3693	0.0834	0.0197	0.0165	12.7513	-12.7544	-1.0604	0.2372	-0.7200	0.1718	0.6292
1.27	-9.4515	-0.8199	-1.3204	0.0877	0.0286	0.0202	12.6008	-12.8881	-1.0974	0.2373	-0.7199	0.1723	0.6291
1.28	-9.5242	-0.8270	-1.3234	0.0762	0.0356	0.0208	12.8591	-12.9365	-1.1343	0.2373	-0.7198	0.1727	0.6289
1.29	-9.5604	-0.8100	-1.3359	0.0795	0.0368	0.0227	12.9385	-12.6611	-1.2625	0.2374	-0.7199	0.1733	0.6289
1.3	-9.5056	-0.7485	-1.3121	0.0822	0.0169	0.0180	12.9496	-12.6839	-0.9991	0.2375	-0.7197	0.1737	0.6288
1.31	-9.5039	-0.7178	-1.2985	0.0763	0.0334	0.0206	12.6391	-12.9666	-0.9853	0.2375	-0.7197	0.1742	0.6288
1.32	-9.5729	-0.7338	-1.3149	0.0676	0.0378	0.0210	12.8031	-12.7607	-1.1692	0.2375	-0.7196	0.1746	0.6286
1.33	-9.5608	-0.7217	-1.3279	0.0666	0.0284	0.0191	12.6664	-12.8970	-0.8728	0.2375	-0.7196	0.1751	0.6286
1.34	-9.5052	-0.6761	-1.3027	0.0542	0.0239	0.0150	12.6193	-12.9890	-0.8347	0.2375	-0.7195	0.1755	0.6286
1.35	-9.5401	-0.6776	-1.2882	0.0463	0.0259	0.0046	12.6050	-12.7959	-0.9432	0.2375	-0.7195	0.1758	0.6285
1.36	-9.5918	-0.6973	-1.2948	0.0467	0.0255	-0.0002	12.5839	-12.7283	-1.0575	0.2375	-0.7195	0.1761	0.6285
1.37	-9.5394	-0.6882	-1.2861	0.0404	0.0146	-0.0057	12.6609	-12.7393	-0.9032	0.2375	-0.7194	0.1763	0.6284
1.38	-9.5168	-0.6812	-1.2726	0.0306	0.0088	-0.0067	12.3266	-12.9188	-0.7756	0.2375	-0.7194	0.1766	0.6285
1.39	-9.4949	-0.6736	-1.2668	0.0261	0.0026	-0.0139	12.5435	-12.8931	-0.7526	0.2375	-0.7193	0.1767	0.6284
1.4	-9.4989	-0.6319	-1.2578	0.0158	-0.0015	-0.0258	12.4248	-12.8150	-1.0067	0.2375	-0.7193	0.1768	0.6285
1.41	-9.5307	-0.6103	-1.2539	0.0042	-0.0065	-0.0324	12.4476	-12.9699	-0.8959	0.2375	-0.7192	0.1768	0.6285
1.42	-9.5606	-0.5910	-1.2502	-0.0079	-0.0185	-0.0351	12.4984	-13.0763	-0.7522	0.2374	-0.7191	0.1768	0.6286
1.43	-9.6701	-0.6039	-1.2504	-0.0338	-0.0169	-0.0441	12.4900	-13.0000	-0.8601	0.2373	-0.7192	0.1766	0.6288
1.44	-9.8239	-0.6327	-1.2580	-0.0495	-0.0319	-0.0651	12.7337	-12.9644	-1.0006	0.2372	-0.7191	0.1763	0.6289
1.45	-9.9491	-0.6524	-1.2515	-0.0625	-0.0483	-0.0672	12.5847	-12.8578	-1.0702	0.2371	-0.7191	0.1760	0.6291
1.46	-10.0468	-0.6550	-1.2157	-0.0692	-0.0748	-0.0738	12.5640	-13.0836	-0.9377	0.2370	-0.7189	0.1755	0.6294
1.47	-10.1245	-0.6702	-1.1897	-0.0774	-0.1067	-0.0767	12.5985	-13.1990	-0.9400	0.2369	-0.7187	0.1750	0.6299
1.48	-10.0782	-0.6848	-1.1704	-0.0915	-0.1372	-0.0689	12.5234	-12.9599	-1.1288	0.2368	-0.7184	0.1745	0.6304
1.49	-9.9490	-0.6996	-1.1254	-0.1045	-0.1723	-0.0622	12.4713	-12.8787	-1.0722	0.2366	-0.7180	0.1738	0.6311
1.5	-9.8510	-0.7349	-1.0861	-0.1078	-0.2020	-0.0593	12.5785	-12.9298	-1.0128	0.2364	-0.7175	0.1732	0.6319
1.51	-9.8118	-0.7451	-1.0463	-0.1088	-0.2256	-0.0612	12.6049	-12.8755	-0.9523	0.2363	-0.7169	0.1725	0.6328
1.52	-9.7764	-0.7399	-1.0002	-0.1199	-0.2488	-0.0519	12.4939	-12.9606	-1.1224	0.2361	-0.7163	0.1717	0.6338
1.53	-9.7677	-0.7476	-0.9668	-0.1346	-0.2689	-0.0514	12.5662	-12.7090	-1.2012	0.2359	-0.7155	0.1709	0.6348
1.54	-9.7740	-0.7642	-0.9368	-0.1326	-0.2819	-0.0481	12.6829	-12.7651	-1.4823	0.2357	-0.7149	0.1701	0.6360
1.55	-9.6559	-0.7871	-0.9151	-0.1429	-0.2981	-0.0410	12.3835	-12.9532	-1.3187	0.2354	-0.7141	0.1693	0.6372
1.56	-9.5483	-0.8035	-0.8814	-0.1421	-0.3034	-0.0395	12.6735	-12.9159	-1.3930	0.2351	-0.7133	0.1685	0.6385
1.57	-9.5151	-0.8256	-0.8602	-0.1408	-0.2964	-0.0386	12.6594	-13.2409	-1.3969	0.2348	-0.7124	0.1677	0.6396
1.58	-9.4529	-0.8330	-0.8451	-0.1372	-0.2835	-0.0300	12.5583	-12.9746	-1.4419	0.2345	-0.7117	0.1669	0.6408
1.59	-9.3923	-0.8282	-0.8218	-0.1340	-0.2607	-0.0338	12.3954	-12.7449	-1.6870	0.2342	-0.7110	0.1662	0.6419
1.6	-9.3494	-0.8332	-0.8040	-0.1355	-0.2424	-0.0229	12.4736	-13.0045	-1.4430	0.2339	-0.7103	0.1655	0.6429
1.61	-9.3265	-0.8355	-0.7812	-0.1353	-0.2003	-0.0147	12.5904	-13.0091	-1.6628	0.2335	-0.7098	0.1649	0.6439
1.62	-9.3715	-0.8253	-0.7722	-0.1321	-0.1586	-0.0130	12.4466	-12.8397	-1.6388	0.2330	-0.7094	0.1643	0.6446
1.63	-9.4067	-0.8253	-0.7859	-0.1129	-0.1258	-0.0134	12.5486	-13.0760	-1.8575	0.2327	-0.7091	0.1639	0.6452
1.64	-9.3843	-0.8087	-0.7960	-0.1049	-0.0816	-0.0118	12.6817	-13.0830	-1.7690	0.2322	-0.7088	0.1635	0.6456
1.65	-9.3659	-0.7884	-0.8098	-0.1029	-0.0434	-0.0100	12.7568	-13.0051	-1.6909	0.2318	-0.7088	0.1632	0.6460
1.66	-9.4108	-0.7823	-0.8344	-0.0972	-0.0045	-0.0095	12.7685	-13.0912	-1.9672	0.2313	-0.7088	0.1630	0.6461
1.67	-9.5359	-0.7713	-0.8317	-0.0827	0.0403	-0.0092	12.3836	-12.8821	-1.9834	0.2309	-0.7090	0.1628	0.6461
1.68	-9.6306	-0.7473	-0.8688	-0.0853	0.0541	-0.0101	12.4225	-12.9398	-1.8242	0.2304	-0.7093	0.1627	0.6461
1.69	-9.6535	-0.7059	-0.8566	-0.0762	0.0617	-0.0083	12.7326	-12.7475	-1.9625	0.2300	-0.7095	0.1626	0.6460
1.7	-9.7000	-0.6848	-0.8756	-0.0783	0.0713	-0.0077	12.6618	-12.9841	-1.8351	0.2295	-0.7098	0.1626	0.6459
1.71	-9.7452	-0.6739	-0.8968	-0.0847	0.0669	-0.0077	12.9738	-12.9367	-1.7439	0.2290	-0.7100	0.1624	0.6457
1.72	-9.7562	-0.6621	-0.9051	-0.0837	0.0514	-0.0085	12.9133	-12.6695	-2.0049	0.2286	-0.7103	0.1624	0.6457
1.73	-9.7324	-0.6499	-0.9267	-0.0840	0.0484	-0.0101	12.6827	-12.7666	-1.8408	0.2281	-0.7105	0.1622	0.6456
1.74	-9.6242	-0.6417	-0.9297	-0.0832	0.0332	-0.0141	12.3414	-12.8562	-2.0797	0.2277	-0.7107	0.1621	0.6457
1.75	-9.5818	-0.6473	-0.9596	-0.0868	0.0304	-0.0239	12.2284	-12.9164	-2.0179	0.2273	-0.7108	0.1619	0.6456
1.76	-9.6569	-0.6543	-0.9900	-0.0849	0.0403	-0.0374	12.1406	-13.1431	-1.8950	0.2269	-0.7110	0.1616	0.6456
1.77	-9.6031	-0.6545	-1.0067	-0.0830	0.0261	-0.0383	12.2457	-13.0936	-1.9929	0.2266	-0.7112	0.1614	0.6456
1.78	-9.5647	-0.6564	-1.0231	-0.0825	0.0410	-0.0481	12.2477	-12.9748	-2.0602	0.2262	-0.7114	0.1611	0.6455
1.79	-9.6034	-0.6753	-1.0529	-0.0822	0.0337	-0.0524	12.4977	-12.9325	-1.7729	0.2260	-0.7117	0.1608	0.6455
1.8	-9.6201	-0.6940	-1.0780	-0.0831	0.0360	-0.0549	12.2093	-12.9093	-1.9255	0.2257	-0.7118	0.1605	0.6455
1.81	-9.6545	-0.6975	-1.0801	-0.0707	0.0329	-0.0529	12.4846	-13.2449	-1.8614	0.2254	-0.7121	0.1603	0.6455
1.82	-9.7064	-0.6949	-1.0838	-0.0596	0.0296	-0.0600	12.5511	-13.2230	-1.8123	0.2252	-0.7121	0.1600	0.6453
1.83	-9.7435	-0.6799	-1.0896	-0.0570	0.0271	-0.0562	12.4062	-13.3422	-1.8506	0.2249	-0.7124	0.1599	0.6453
1.84	-9.7513	-0.6702	-1.0969	-0.0567	0.0171	-0.0656	12.6302	-13.1153	-1.9844	0.2247	-0.7125	0.1597	0.6452
1.85	-9.7560	-0.6697	-1.1082	-0.0560	0.0076	-0.0747	12.6064	-13.2385	-1.7796	0.2245	-0.7126	0.1594	0.6451
1.86	-9.7614	-0.6834	-1.1137	-0.0566	-0.0041	-0.0842	12.6320	-13.1242	-2.1062	0.2244	-0.7129	0.1591	0.6452
1.87	-9.7560	-0.6879	-1.1128	-0.0565	-0.0098	-0.0859	12.3090	-12.8867	-2.0294	0.2242	-0.7129	0.1588	0.6452
1.88	-9.7508	-0.6962	-1.1189	-0.0549	-0.0170	-0.0891	12.2456	-13.1242	-1.9367	0.2241	-0.7130	0.1585	0.6453
1.89	-9.7498	-0.7084	-1.1246	-0.0573	-0.0160	-0.0947	12.2705	-13.1649	-2.1612	0.2240	-0.7130	0.1581	0.6452
1.9	-9.7440	-0.7130	-1.1246	-0.0563	-0.0168	-0.1016	12.1420	-13.0124	-1.9681	0.2239	-0.7132	0.1578	0.6453
1.91	-9.7341	-0.7334	-1.1262	-0.0546	-0.0340	-0.1017	12.3766	-13.1091	-1.8918	0.2238	-0.7132	0.1574	0.6453
1.92	-9.7354	-0.7565	-1.1246	-0.0534	-0.0304	-0.1089	12.2436	-12.8879	-1.7396	0.2238	-0.7132	0.1570	0.6454
1.93	-9.7149	-0.7743	-1.1218	-0.0575	-0.0371	-0.1112	12.4709	-12.7776	-1.7467	0.2238	-0.7133	0.1566	0.6455
1.94	-9.7085	-0.7830	-1.1126	-0.0539	-0.0396	-0.1099	12.5425	-13.0478	-2.1731	0.2237	-0.7133	0.1561	0.6456
1.95	-9.7163	-0.7994	-1.0974	-0.0491	-0.0418	-0.1192	12.3178	-13.0716	-1.9599	0.2237	-0.7133	0.1557	0.6457
1.96	-9.7150	-0.8217	-1.0829	-0.0411	-0.0530	-0.1242	12.4534	-12.9563	-1.9246	0.2238	-0.7132	0.1553	0.6457
1.97	-9.7255	-0.8359	-1.0580	-0.0344	-0.0628	-0.1336	12.5301	-13.0818	-1.9116	0.2239	-0.7133	0.1548	0.6459
1.98	-9.7283	-0.8551	-1.0318	-0.0297	-0.0761	-0.1343	12.3858	-13.0193	-2.0030	0.2241	-0.7131	0.1543	0.6461
1.99	-9.7067	-0.8673	-1.0096	-0.0295	-0.0837	-0.1357	12.2868	-13.1687	-2.2312	0.2242	-0.7130	0.1539	0.6463
2	-9.6730	-0.8814	-0.9850	-0.0183	-0.0990	-0.1372	12.6871	-12.9424	-2.2821	0.2244	-0.7128	0.1534	0.6465
2.01	-9.6602	-0.8916	-0.9671	-0.0026	-0.1059	-0.1396	12.6608	-12.8721	-2.2001	0.2247	-0.7126	0.1530	0.6468
2.02	-9.6416	-0.9007	-0.9425	-0.0065	-0.1111	-0.1458	12.6616	-13.0585	-2.2032	0.2250	-0.7124	0.1525	0.6470
2.03	-9.6002	-0.9175	-0.9133	0.0016	-0.1106	-0.1496	12.7269	-13.0539	-2.1986	0.2253	-0.7121	0.1520	0.6472
2.04	-9.5751	-0.9307	-0.8875	0.0070	-0.1134	-0.1562	12.6071	-13.0531	-2.4163	0.2258	-0.7119	0.1515	0.6476
2.05	-9.5847	-0.9509	-0.8754	0.0115	-0.1007	-0.1575	12.7421	-12.9222	-2.0747	0.2263	-0.7116	0.1510	0.6478
2.06	-9.5614	-0.9823	-0.8601	0.0191	-0.1009	-0.1629	12.6940	-13.0248	-2.2153	0.2267	-0.7114	0.1506	0.6481
2.07	-9.5335	-1.0058	-0.8292	0.0204	-0.0939	-0.1663	12.7163	-12.7361	-2.1061	0.2273	-0.7110	0.1500	0.6482
2.08	-9.5423	-1.0284	-0.8264	0.0233	-0.0805	-0.1705	12.5934	-12.8651	-2.2622	0.2278	-0.7109	0.1496	0.6484
2.09	-9.5454	-1.0534	-0.8191	0.0234	-0.0712	-0.1757	12.6322	-12.7793	-2.2921	0.2284	-0.7107	0.1491	0.6485
2.1	-9.5463	-1.0718	-0.8080	0.0243	-0.0601	-0.1719	12.6178	-12.3550	-2.0941	0.2289	-0.7105	0.1486	0.6485
2.11	-9.5933	-1.1194	-0.8082	0.0305	-0.0496	-0.1634	12.6237	-12.7046	-2.0616	0.2294	-0.7105	0.1482	0.6486
2.12	-9.6225	-1.1611	-0.8048	0.0402	-0.0494	-0.1589	12.6225	-12.6483	-2.0996	0.2298	-0.7104	0.1479	0.6486
2.13	-9.6182	-1.1763	-0.7929	0.0392	-0.0461	-0.1444	12.6181	-12.6257	-2.2512	0.2302	-0.7104	0.1477	0.6486
2.14	-9.6270	-1.1932	-0.7870	0.0450	-0.0449	-0.1325	12.6287	-12.5207	-2.4280	0.2306	-0.7102	0.1475	0.6485
2.15	-9.6507	-1.2081	-0.7770	0.0418	-0.0460	-0.1174	12.6109	-12.4387	-2.2848	0.2309	-0.7102	0.1474	0.6486
2.16	-9.6508	-1.2191	-0.7755	0.0476	-0.0455	-0.1020	12.8235	-12.5764	-2.1261	0.2312	-0.7100	0.1473	0.6486
2.17	-9.6005	-1.2244	-0.7743	0.0462	-0.0516	-0.0886	12.6919	-12.7697	-2.1980	0.2315	-0.7099	0.1473	0.6487
2.18	-9.5676	-1.2265	-0.7678	0.0471	-0.0436	-0.0758	12.8305	-12.8110	-2.2069	0.2317	-0.7098	0.1473	0.6488
2.19	-9.5484	-1.2191	-0.7685	0.0453	-0.0421	-0.0617	13.1329	-12.7702	-2.2362	0.2319	-0.7096	0.1473	0.6489
2.2	-9.4906	-1.2103	-0.7654	0.0460	-0.0423	-0.0431	12.8390	-12.7926	-2.0962	0.2321	-0.7094	0.1474	0.6490
2.21	-9.4595	-1.2069	-0.7624	0.0465	-0.0223	-0.0354	13.3935	-12.4050	-1.9010	0.2323	-0.7092	0.1475	0.6490
2.22	-9.5083	-1.2029	-0.7653	0.0466	-0.0154	-0.0232	13.5036	-12.1398	-2.0785	0.2326	-0.7091	0.1479	0.6491
2.23	-9.5137	-1.1798	-0.7677	0.0444	0.0006	-0.0060	13.1633	-12.4165	-2.1315	0.2326	-0.7090	0.1481	0.6491
2.24	-9.5099	-1.1573	-0.7666	0.0481	0.0080	0.0043	12.7978	-12.3575	-2.0494	0.2326	-0.7089	0.1484	0.6491
2.25	-9.4932	-1.1329	-0.7750	0.0493	0.0238	0.0170	12.7448	-12.6274	-1.9868	0.2325	-0.7088	0.1488	0.6491
2.26	-9.5384	-1.0979	-0.7691	0.0487	0.0298	0.0231	12.8648	-12.6639	-2.0049	0.2324	-0.7088	0.1492	0.6491
2.27	-9.5940	-1.0760	-0.7786	0.0532	0.0383	0.0337	12.7325	-12.6000	-1.9831	0.2323	-0.7088	0.1497	0.6490
2.28	-9.5903	-1.0402	-0.7800	0.0523	0.0405	0.0423	12.7276	-12.4532	-2.0761	0.2322	-0.7088	0.1501	0.6489
2.29	-9.6167	-1.0000	-0.7753	0.0518	0.0345	0.0449	12.5188	-12.5796	-2.2269	0.2321	-0.7088	0.1507	0.6489
2.3	-9.6767	-0.9702	-0.7713	0.0569	0.0320	0.0442	12.8433	-12.8549	-2.1112	0.2319	-0.7088	0.1512	0.6488
2.31	-9.7216	-0.9422	-0.7686	0.0667	0.0231	0.0426	12.7498	-12.6817	-2.0924	0.2318	-0.7088	0.1517	0.6489
2.32	-9.6906	-0.9076	-0.7743	0.0527	0.0164	0.0447	12.4608	-12.6177	-1.9955	0.2316	-0.7087	0.1523	0.6487
2.33	-9.6305	-0.8889	-0.7623	0.0459	0.0140	0.0438	12.5086	-12.7926	-1.8788	0.2314	-0.7087	0.1528	0.6488
2.34	-9.5847	-0.8793	-0.7684	0.0456	0.0134	0.0415	12.5094	-12.6531	-2.1126	0.2312	-0.7086	0.1533	0.6488
2.35	-9.5898	-0.8688	-0.7693	0.0445	0.0202	0.0409	12.4130	-12.6576	-2.0073	0.2310	-0.7085	0.1537	0.6488
2.36	-9.5963	-0.8741	-0.7870	0.0457	0.0182	0.0469	12.5036	-12.6220	-1.8866	0.2308	-0.7086	0.1543	0.6488
2.37	-9.5611	-0.8457	-0.7726	0.0446	0.0296	0.0535	12.6485	-12.7116	-2.0694	0.2306	-0.7085	0.1547	0.6488
2.38	-9.6381	-0.8329	-0.7626	0.0476	0.0373	0.0481	12.6988	-12.9265	-2.0648	0.2304	-0.7085	0.1553	0.6488
2.39	-9.6507	-0.8228	-0.7840	0.0461	0.0400	0.0520	12.5776	-12.9011	-1.7487	0.2301	-0.7085	0.1559	0.6486
2.4	-9.6352	-0.7901	-0.7700	0.0501	0.0363	0.0611	12.5882	-13.0187	-1.9908	0.2298	-0.7086	0.1565	0.6486
2.41	-9.6927	-0.7994	-0.7738	0.0477	0.0436	0.0463	12.4057	-12.8170	-1.8975	0.2296	-0.7086	0.1571	0.6484
2.42	-9.6647	-0.7858	-0.7798	0.0442	0.0331	0.0441	12.4706	-12.8762	-1.7482	0.2293	-0.7087	0.1576	0.6483
2.43	-9.6190	-0.7656	-0.7660	0.0516	0.0382	0.0441	12.6176	-13.0420	-2.0403	0.2291	-0.7087	0.1582	0.6483
2.44	-9.5801	-0.7503	-0.7773	0.0496	0.0472	0.0379	12.4190	-13.0694	-1.8157	0.2289	-0.7087	0.1587	0.6482
2.45	-9.4785	-0.7309	-0.7794	0.0524	0.0463	0.0224	12.4191	-13.1645	-1.7996	0.2289	-0.7088	0.1591	0.6481
2.46	-9.4502	-0.6986	-0.7709	0.0523	0.0619	0.0204	12.3259	-13.1075	-1.8121	0.2288	-0.7088	0.1595	0.6478
2.47	-9.5641	-0.6981	-0.7938	0.0592	0.0893	0.0107	12.0912	-12.8567	-1.6886	0.2287	-0.7090	0.1600	0.6476
2.48	-9.4711	-0.6812	-0.8334	0.0452	0.0977	0.0138	12.3625	-12.8076	-1.5914	0.2286	-0.7092	0.1604	0.6473
2.49	-9.4761	-0.6484	-0.8426	0.0509	0.1305	0.0115	12.4331	-13.1263	-1.6949	0.2285	-0.7095	0.1609	0.6469
2.5	-9.5880	-0.6456	-0.9051	0.0482	0.1484	0.0043	12.3859	-12.8562	-1.8269	0.2284	-0.7099	0.1614	0.6464
2.51	-9.6039	-0.6473	-0.9454	0.0419	0.1545	-0.0052	12.3153	-12.9969	-1.6648	0.2283	-0.7103	0.1618	0.6459
2.52	-9.5884	-0.6555	-0.9683	0.0343	0.1540	0.0030	12.2847	-13.0676	-1.5679	0.2281	-0.7107	0.1623	0.6454
2.53	-9.6984	-0.6473	-1.0054	0.0397	0.1686	0.0009	12.1034	-12.9529	-1.4323	0.2279	-0.7111	0.1627	0.6448
2.54	-9.7123	-0.6222	-1.0323	0.0409	0.1614	0.0099	12.3780	-13.1228	-1.3337	0.2278	-0.7116	0.1632	0.6443
2.55	-9.7646	-0.5815	-1.0250	0.0287	0.1509	0.0091	12.2482	-13.0611	-1.4932	0.2276	-0.7120	0.1636	0.6438
2.56	-9.9408	-0.5695	-1.0604	0.0259	0.1430	0.0017	12.2604	-13.1022	-1.3268	0.2274	-0.7124	0.1640	0.6434
2.57	-10.0271	-0.5202	-1.0649	0.0091	0.1041	-0.0003	12.5341	-13.0621	-1.4482	0.2272	-0.7126	0.1643	0.6430
2.58	-9.9881	-0.5242	-1.0806	-0.0078	0.0720	-0.0024	12.4700	-13.1132	-1.4193	0.2269	-0.7129	0.1645	0.6428
2.59	-9.8517	-0.5125	-1.0904	-0.0212	0.0306	-0.0035	12.5354	-13.3796	-1.4576	0.2267	-0.7130	0.1646	0.6428
2.6	-9.8220	-0.5246	-1.0697	-0.0323	0.0182	-0.0126	12.3313	-13.2534	-1.3250	0.2264	-0.7130	0.1646	0.6428
2.61	-9.6528	-0.5385	-1.1046	-0.0438	-0.0064	-0.0117	12.2029	-13.1782	-1.3709	0.2262	-0.7131	0.1646	0.6429
2.62	-9.4629	-0.5123	-1.0670	-0.0578	-0.0186	-0.0102	12.2477	-12.9915	-1.2749	0.2259	-0.7130	0.1644	0.6431
2.63	-9.5574	-0.5343	-1.0496	-0.0597	0.0066	-0.0200	12.2035	-13.0950	-1.3229	0.2256	-0.7131	0.1643	0.6432
2.64	-9.6870	-0.5563	-1.0670	-0.0659	0.0217	-0.0201	12.3352	-13.3887	-1.2592	0.2252	-0.7131	0.1642	0.6431
2.65	-9.7429	-0.5283	-1.0535	-0.0754	0.0256	-0.0203	12.1829	-13.0994	-1.1308	0.2248	-0.7133	0.1640	0.6432
2.66	-9.8213	-0.5227	-1.0687	-0.0833	0.0125	-0.0239	12.1260	-13.2446	-1.1588	0.2245	-0.7134	0.1638	0.6432
2.67	-9.8421	-0.5530	-1.0910	-0.0834	-0.0133	-0.0132	12.1356	-13.2719	-1.2204	0.2241	-0.7135	0.1636	0.6434
2.68	-9.8489	-0.5680	-1.0839	-0.0833	-0.0360	-0.0126	12.2372	-13.1601	-1.2784	0.2237	-0.7135	0.1634	0.6437
2.69	-9.7648	-0.5768	-1.0957	-0.0857	-0.0522	-0.0260	12.2192	-13.0361	-1.2144	0.2232	-0.7134	0.1632	0.6439
2.7	-9.6254	-0.5381	-1.0576	-0.0888	-0.0722	-0.0205	12.0565	-12.9653	-1.3468	0.2228	-0.7133	0.1630	0.6442
2.71	-9.5896	-0.5543	-1.0597	-0.0913	-0.0639	-0.0306	12.4335	-13.0933	-1.2714	0.2224	-0.7131	0.1627	0.6445
2.72	-9.5243	-0.5644	-1.0550	-0.0997	-0.0750	-0.0360	12.5962	-13.0677	-1.0008	0.2221	-0.7131	0.1623	0.6449
2.73	-9.5074	-0.5636	-1.0320	-0.0887	-0.0600	-0.0429	12.3926	-13.2006	-1.1615	0.2218	-0.7129	0.1619	0.6452
2.74	-9.4546	-0.5643	-1.0451	-0.0856	-0.0570	-0.0545	12.3056	-13.1485	-1.6727	0.2216	-0.7129	0.1615	0.6455
2.75	-9.4409	-0.5760	-1.0329	-0.0929	-0.0348	-0.0737	12.2871	-13.2877	-1.4636	0.2213	-0.7128	0.1610	0.6457
2.76	-9.4216	-0.5959	-1.0668	-0.0884	-0.0113	-0.0783	12.3273	-13.5587	-1.4670	0.2211	-0.7129	0.1606	0.6458
2.77	-9.3574	-0.5906	-1.0505	-0.0886	-0.0080	-0.0822	12.1354	-13.4154	-1.4335	0.2209	-0.7130	0.1602	0.6459
2.78	-9.3856	-0.6000	-1.0508	-0.0842	0.0142	-0.0888	12.1431	-13.3280	-1.1861	0.2207	-0.7131	0.1597	0.6458
2.79	-9.5449	-0.6222	-1.0440	-0.0862	0.0397	-0.0965	12.2433	-13.1861	-1.3738	0.2206	-0.7135	0.1593	0.6458
2.8	-9.5598	-0.6213	-1.0537	-0.1045	0.0458	-0.0914	12.2345	-13.2827	-1.4692	0.2203	-0.7137	0.1588	0.6456
2.81	-9.5496	-0.6117	-1.0431	-0.1091	0.0425	-0.0889	12.2245	-13.3238	-1.5399	0.2200	-0.7141	0.1583	0.6456
2.82	-9.5955	-0.6466	-1.0661	-0.1162	0.0487	-0.0928	12.2473	-13.3191	-1.4965	0.2197	-0.7143	0.1578	0.6454
2.83	-9.5749	-0.6623	-1.0769	-0.1161	0.0342	-0.0872	12.2003	-13.1753	-1.4149	0.2194	-0.7146	0.1573	0.6454
2.84	-9.6128	-0.6745	-1.0760	-0.1279	0.0372	-0.0860	12.1279	-13.1390	-1.6225	0.2190	-0.7149	0.1567	0.6453
2.85	-9.7906	-0.7129	-1.0977	-0.1363	0.0306	-0.0915	12.1464	-13.0763	-1.5384	0.2186	-0.7151	0.1561	0.6452
2.86	-9.8708	-0.7423	-1.1446	-0.1326	0.0088	-0.0917	12.1542	-12.9281	-1.4052	0.2183	-0.7154	0.1555	0.6453
2.87	-9.6726	-0.7591	-1.1643	-0.1342	-0.0258	-0.0888	12.2625	-13.0018	-1.3107	0.2179	-0.7155	0.1549	0.6454
2.88	-9.5220	-0.7875	-1.1508	-0.1317	-0.0253	-0.0855	12.2172	-13.0903	-1.6241	0.2176	-0.7156	0.1543	0.6457
2.89	-9.5241	-0.8403	-1.1555	-0.1185	-0.0168	-0.0856	12.2552	-12.9326	-1.5219	0.2173	-0.7156	0.1537	0.6457
2.9	-9.6270	-0.8548	-1.1406	-0.1023	-0.0074	-0.0853	12.0937	-13.0010	-1.2989	0.2171	-0.7158	0.1532	0.6458
2.91	-9.8107	-0.8347	-1.1196	-0.0831	-0.0095	-0.0846	12.0610	-13.2132	-1.5263	0.2169	-0.7159	0.1527	0.6459
2.92	-9.7906	-0.8285	-1.1060	-0.0849	-0.0231	-0.0674	12.3109	-13.0105	-1.5059	0.2167	-0.7159	0.1523	0.6460
2.93	-9.7222	-0.8172	-1.0789	-0.0824	-0.0337	-0.0532	12.5288	-13.1780	-1.6197	0.2164	-0.7159	0.1520	0.6462
2.94	-9.7735	-0.8286	-1.0852	-0.0813	-0.0346	-0.0574	12.3514	-13.3419	-1.7462	0.2161	-0.7159	0.1517	0.6464
2.95	-9.7891	-0.8427	-1.0857	-0.0825	-0.0429	-0.0573	12.5113	-13.1053	-1.8245	0.2157	-0.7160	0.1514	0.6466
2.96	-9.6942	-0.8407	-1.0822	-0.0749	-0.0548	-0.0464	12.4155	-13.2401	-1.6907	0.2154	-0.7158	0.1511	0.6467
2.97	-9.6564	-0.8397	-1.0688	-0.0583	-0.0578	-0.0472	12.2996	-13.2141	-1.7016	0.2151	-0.7158	0.1509	0.6470
2.98	-9.6609	-0.8498	-1.0636	-0.0516	-0.0598	-0.0483	12.1764	-13.2529	-1.7006	0.2149	-0.7157	0.1507	0.6472
2.99	-9.6240	-0.8454	-1.0461	-0.0335	-0.0535	-0.0475	12.3915	-13.1430	-1.7014	0.2147	-0.7157	0.1506	0.6474
3	-9.5854	-0.8240	-1.0216	-0.0298	-0.0533	-0.0408	12.5163	-13.1417	-1.6969	0.2145	-0.7155	0.1505	0.6476
3.01	-9.6295	-0.8265	-1.0070	-0.0178	-0.0493	-0.0369	12.2574	-13.1194	-1.8401	0.2143	-0.7154	0.1505	0.6477
3.02	-9.6403	-0.8165	-0.9931	-0.0043	-0.0493	-0.0395	12.3763	-13.0104	-1.7194	0.2142	-0.7153	0.1505	0.6479
3.03	-9.6413	-0.7868	-0.9716	0.0120	-0.0484	-0.0337	12.2030	-13.1429	-1.6989	0.2141	-0.7151	0.1505	0.6480
3.04	-9.6482	-0.7795	-0.9739	0.0196	-0.0546	-0.0338	12.2695	-13.2471	-1.6954	0.2141	-0.7151	0.1507	0.6482
3.05	-9.6590	-0.7531	-0.9599	0.0247	-0.0591	-0.0363	12.0097	-13.0502	-1.7212	0.2141	-0.7149	0.1508	0.6484
3.06	-9.6486	-0.7306	-0.9457	0.0206	-0.0590	-0.0310	12.2667	-12.8547	-1.6668	0.2141	-0.7148	0.1509	0.6486
3.07	-9.5637	-0.7116	-0.9328	0.0275	-0.0680	-0.0164	12.4554	-12.9628	-1.9366	0.2141	-0.7144	0.1510	0.6488
3.08	-9.5474	-0.6830	-0.9097	0.0348	-0.0623	-0.0186	12.0323	-13.2187	-1.6970	0.2142	-0.7142	0.1511	0.6491
3.09	-9.5541	-0.6698	-0.8997	0.0307	-0.0612	-0.0261	12.2645	-13.1880	-1.6134	0.2142	-0.7139	0.1512	0.6493
3.1	-9.5132	-0.6586	-0.8862	0.0329	-0.0637	-0.0217	12.1338	-13.1012	-1.8323	0.2143	-0.7136	0.1513	0.6495
3.11	-9.4892	-0.6360	-0.8694	0.0360	-0.0564	-0.0218	12.1527	-13.1875	-1.6748	0.2144	-0.7135	0.1514	0.6498
3.12	-9.5044	-0.6380	-0.8633	0.0292	-0.0442	-0.0291	12.4148	-13.1998	-1.7106	0.2145	-0.7132	0.1515	0.6499
3.13	-9.5296	-0.6293	-0.8523	0.0259	-0.0357	-0.0241	12.3703	-13.3426	-1.6933	0.2145	-0.7131	0.1516	0.6501
3.14	-9.5665	-0.6283	-0.8561	0.0213	-0.0136	-0.0312	12.1763	-13.6065	-1.6894	0.2145	-0.7129	0.1516	0.6501
3.15	-9.5423	-0.6265	-0.8687	0.0211	-0.0205	-0.0249	12.5301	-13.2457	-1.7085	0.2145	-0.7128	0.1517	0.6503
3.16	-9.5575	-0.6170	-0.8594	0.0183	-0.0102	-0.0146	12.3646	-13.1842	-1.8470	0.2145	-0.7127	0.1519	0.6503
3.17	-9.6016	-0.6330	-0.8756	0.0159	0.0037	-0.0107	12.0858	-13.4017	-1.6705	0.2144	-0.7127	0.1520	0.6503
3.18	-9.5708	-0.6305	-0.8708	0.0168	0.0043	-0.0102	12.2704	-13.3920	-1.8232	0.2144	-0.7127	0.1522	0.6504
3.19	-9.6475	-0.6205	-0.8678	0.0226	0.0132	-0.0089	12.2037	-13.3203	-1.7387	0.2143	-0.7126	0.1524	0.6504
3.2	-9.7127	-0.6402	-0.8901	0.0129	0.0204	-0.0124	12.2870	-13.2172	-1.7023	0.2142	-0.7127	0.1525	0.6504
3.21	-9.6292	-0.6307	-0.8912	0.0146	0.0155	-0.0059	12.4293	-13.0124	-1.6136	0.2141	-0.7126	0.1527	0.6503
3.22	-9.6294	-0.6126	-0.8894	0.0216	0.0221	-0.0117	12.3965	-13.0687	-1.6163	0.2140	-0.7127	0.1529	0.6503
3.23	-9.6584	-0.6330	-0.9070	0.0174	0.0183	-0.0233	12.2153	-13.2203	-1.5321	0.2140	-0.7127	0.1530	0.6503
3.24	-9.6113	-0.6234	-0.8984	0.0227	0.0173	-0.0323	12.2193	-13.2220	-1.5722	0.2140	-0.7127	0.1532	0.6502
3.25	-9.5847	-0.6118	-0.8927	0.0182	0.0243	-0.0329	12.2154	-13.2186	-1.5728	0.2140	-0.7127	0.1533	0.6501
3.26	-9.6077	-0.6008	-0.8912	0.0306	0.0305	-0.0424	12.1188	-13.3041	-1.4469	0.2140	-0.7128	0.1534	0.6500
3.27	-9.6285	-0.5818	-0.8858	0.0292	0.0279	-0.0543	12.0223	-13.2219	-1.6915	0.2141	-0.7129	0.1535	0.6499
3.28	-9.6592	-0.5651	-0.8831	0.0229	0.0365	-0.0550	12.1627	-13.0879	-1.5658	0.2141	-0.7130	0.1536	0.6497
3.29	-9.7235	-0.5523	-0.9020	0.0267	0.0379	-0.0554	12.2432	-13.0965	-1.4701	0.2141	-0.7132	0.1537	0.6496
3.3	-9.6553	-0.5204	-0.9183	0.0219	0.0163	-0.0540	12.1153	-13.2521	-1.4628	0.2141	-0.7132	0.1538	0.6494
3.31	-9.6127	-0.5010	-0.9064	0.0184	0.0207	-0.0577	12.1877	-13.2732	-1.5334	0.2141	-0.7134	0.1540	0.6494
3.32	-9.6238	-0.5171	-0.9245	0.0027	0.0261	-0.0576	12.0256	-13.3509	-1.6804	0.2140	-0.7135	0.1540	0.6491
3.33	-9.6477	-0.5050	-0.9297	-0.0114	0.0208	-0.0613	12.2243	-13.5022	-1.5161	0.2139	-0.7136	0.1540	0.6490
3.34	-9.6769	-0.5199	-0.9401	-0.0321	0.0264	-0.0740	12.3829	-13.3411	-1.6084	0.2137	-0.7138	0.1539	0.6489
3.35	-9.7017	-0.5435	-0.9563	-0.0327	0.0216	-0.0808	12.2244	-13.1542	-1.4473	0.2136	-0.7140	0.1538	0.6488
3.36	-9.6464	-0.5665	-0.9684	-0.0509	0.0209	-0.0762	12.2571	-13.2982	-1.6116	0.2134	-0.7142	0.1536	0.6488
3.37	-9.6126	-0.5779	-0.9728	-0.0547	0.0208	-0.0717	12.0685	-13.2568	-1.4946	0.2132	-0.7143	0.1533	0.6486
3.38	-9.7552	-0.6006	-0.9903	-0.0531	0.0317	-0.0843	12.1107	-13.2984	-1.7865	0.2130	-0.7146	0.1531	0.6485
3.39	-9.7540	-0.6245	-1.0085	-0.0580	0.0235	-0.0812	12.2575	-13.1675	-1.8922	0.2128	-0.7147	0.1529	0.6483
3.4	-9.6942	-0.6292	-1.0128	-0.0608	0.0119	-0.0863	12.2359	-13.3137	-1.4541	0.2126	-0.7150	0.1526	0.6483
3.41	-9.7088	-0.6451	-1.0131	-0.0582	0.0089	-0.0949	12.0591	-13.2036	-1.5022	0.2124	-0.7152	0.1523	0.6482
3.42	-9.7277	-0.6751	-1.0234	-0.0583	-0.0029	-0.1045	12.1365	-13.1963	-1.4328	0.2123	-0.7153	0.1520	0.6482
3.43	-9.7370	-0.6900	-1.0302	-0.0548	-0.0038	-0.0995	12.1637	-12.9818	-1.7213	0.2121	-0.7155	0.1517	0.6482
3.44	-9.7117	-0.6896	-1.0279	-0.0613	-0.0147	-0.0943	12.1500	-13.0393	-1.5942	0.2120	-0.7155	0.1514	0.6482
3.45	-9.6950	-0.6994	-1.0278	-0.0656	-0.0228	-0.0930	12.1428	-13.1552	-1.3777	0.2118	-0.7157	0.1510	0.6483
3.46	-9.6947	-0.7078	-1.0194	-0.0554	-0.0244	-0.0902	12.2404	-13.2951	-1.3579	0.2116	-0.7156	0.1507	0.6482
3.47	-9.6942	-0.7111	-1.0082	-0.0568	-0.0247	-0.0953	12.1364	-13.1314	-1.7548	0.2115	-0.7158	0.1504	0.6484
3.48	-9.7015	-0.7309	-1.0007	-0.0576	-0.0332	-0.0981	12.1748	-13.1278	-1.7042	0.2113	-0.7158	0.1501	0.6484
3.49	-9.6711	-0.7324	-1.0011	-0.0562	-0.0388	-0.0924	12.3525	-13.2215	-1.6419	0.2112	-0.7158	0.1498	0.6485
3.5	-9.6386	-0.7305	-0.9867	-0.0572	-0.0343	-0.0873	12.3009	-13.0716	-1.6657	0.2110	-0.7158	0.1494	0.6486
3.51	-9.6563	-0.7380	-0.9805	-0.0518	-0.0456	-0.0857	12.3897	-13.1106	-1.6687	0.2109	-0.7158	0.1492	0.6487
3.52	-9.6667	-0.7401	-0.9779	-0.0532	-0.0385	-0.0843	12.3728	-13.2804	-1.6292	0.2108	-0.7158	0.1489	0.6489
3.53	-9.6610	-0.7302	-0.9701	-0.0465	-0.0397	-0.0798	12.3115	-13.1881	-1.7754	0.2106	-0.7158	0.1486	0.6489
3.54	-9.6546	-0.7193	-0.9604	-0.0416	-0.0521	-0.0834	12.3319	-13.1863	-1.6058	0.2105	-0.7158	0.1484	0.6491
3.55	-9.6277	-0.7270	-0.9560	-0.0550	-0.0503	-0.0749	12.3594	-13.0168	-1.7650	0.2103	-0.7157	0.1481	0.6493
3.56	-9.5931	-0.7212	-0.9527	-0.0529	-0.0492	-0.0719	12.4670	-13.0603	-1.8839	0.2102	-0.7157	0.1478	0.6495
3.57	-9.5834	-0.7216	-0.9450	-0.0496	-0.0501	-0.0682	12.2999	-13.2093	-1.7520	0.2101	-0.7155	0.1475	0.6496
3.58	-9.5616	-0.7228	-0.9480	-0.0576	-0.0513	-0.0668	12.2404	-13.0518	-1.5882	0.2100	-0.7155	0.1471	0.6499
3.59	-9.5041	-0.7184	-0.9413	-0.0493	-0.0378	-0.0678	12.2173	-12.9716	-1.4583	0.2099	-0.7154	0.1468	0.6501
3.6	-9.5441	-0.7203	-0.9374	-0.0497	-0.0330	-0.0737	12.0208	-13.1134	-1.7913	0.2098	-0.7153	0.1465	0.6502
3.61	-9.6129	-0.7314	-0.9454	-0.0523	-0.0327	-0.0709	12.2989	-13.0775	-1.6361	0.2096	-0.7154	0.1463	0.6504
3.62	-9.6202	-0.7415	-0.9390	-0.0452	-0.0305	-0.0733	12.3251	-12.8633	-1.6787	0.2094	-0.7154	0.1461	0.6504
3.63	-9.6129	-0.7421	-0.9399	-0.0406	-0.0229	-0.0729	12.3704	-12.9915	-1.6570	0.2093	-0.7155	0.1459	0.6505
3.64	-9.6072	-0.7385	-0.9383	-0.0520	-0.0233	-0.0724	12.1197	-13.1138	-1.6625	0.2090	-0.7154	0.1457	0.6505
3.65	-9.6096	-0.7380	-0.9405	-0.0394	-0.0134	-0.0645	12.3098	-12.9650	-1.7816	0.2089	-0.7155	0.1455	0.6506
3.66	-9.6016	-0.7446	-0.9456	-0.0348	-0.0125	-0.0606	12.2808	-13.0874	-1.7302	0.2087	-0.7156	0.1454	0.6506
3.67	-9.6195	-0.7474	-0.9522	-0.0356	-0.0151	-0.0635	12.2800	-13.0341	-1.8303	0.2085	-0.7156	0.1453	0.6506
3.68	-9.6192	-0.7477	-0.9509	-0.0304	-0.0122	-0.0598	12.4676	-12.9878	-1.9651	0.2083	-0.7157	0.1452	0.6507
3.69	-9.5948	-0.7507	-0.9524	-0.0352	-0.0237	-0.0588	12.3798	-13.1658	-1.7714	0.2082	-0.7157	0.1451	0.6507
3.7	-9.5779	-0.7542	-0.9684	-0.0333	-0.0172	-0.0654	12.7273	-13.1910	-1.7554	0.2081	-0.7157	0.1448	0.6509
3.71	-9.5734	-0.7554	-0.9610	-0.0312	-0.0158	-0.0701	12.8856	-13.1083	-1.6649	0.2080	-0.7156	0.1446	0.6508
3.72	-9.5800	-0.7576	-0.9602	-0.0318	-0.0120	-0.0649	12.7581	-13.0565	-1.6458	0.2080	-0.7157	0.1444	0.6510
3.73	-9.6026	-0.7692	-0.9710	-0.0314	-0.0092	-0.0756	12.8526	-13.0733	-1.7288	0.2079	-0.7157	0.1442	0.6510
3.74	-9.6219	-0.7686	-0.9681	-0.0313	-0.0116	-0.0712	12.5173	-12.9332	-1.7713	0.2078	-0.7157	0.1441	0.6510
3.75	-9.6263	-0.7679	-0.9631	-0.0316	-0.0130	-0.0783	12.3277	-13.1180	-1.8939	0.2076	-0.7158	0.1439	0.6510
3.76	-9.6443	-0.7786	-0.9734	-0.0292	-0.0092	-0.0853	12.4705	-13.2395	-1.6860	0.2076	-0.7159	0.1437	0.6510
3.77	-9.6560	-0.7780	-0.9792	-0.0306	-0.0079	-0.0822	12.2709	-13.0636	-1.7276	0.2075	-0.7159	0.1436	0.6510
3.78	-9.6620	-0.7821	-0.9796	-0.0314	-0.0089	-0.0851	12.5182	-12.8884	-1.8576	0.2073	-0.7160	0.1434	0.6509
3.79	-9.6787	-0.7890	-0.9782	-0.0313	-0.0121	-0.0832	12.4423	-12.9488	-2.0087	0.2073	-0.7161	0.1432	0.6510
3.8	-9.6856	-0.7965	-0.9769	-0.0316	-0.0111	-0.0833	12.0155	-12.9985	-1.8591	0.2071	-0.7161	0.1430	0.6510
3.81	-9.6668	-0.8028	-0.9785	-0.0304	-0.0177	-0.0816	12.2644	-12.8711	-1.7365	0.2070	-0.7162	0.1429	0.6511
3.82	-9.6552	-0.8104	-0.9764	-0.0362	-0.0265	-0.0852	12.1917	-12.8877	-1.8763	0.2069	-0.7162	0.1426	0.6510
3.83	-9.6648	-0.8207	-0.9658	-0.0314	-0.0181	-0.0824	12.3808	-12.9540	-1.8963	0.2068	-0.7163	0.1425	0.6511
3.84	-9.6572	-0.8261	-0.9660	-0.0334	-0.0261	-0.0780	12.3982	-12.8475	-2.1471	0.2067	-0.7163	0.1423	0.6511
3.85	-9.6335	-0.8389	-0.9577	-0.0363	-0.0305	-0.0754	12.4189	-12.8784	-1.8517	0.2066	-0.7162	0.1421	0.6512
3.86	-9.6067	-0.8507	-0.9561	-0.0313	-0.0282	-0.0683	12.3756	-12.9679	-1.7708	0.2064	-0.7163	0.1420	0.6513
3.87	-9.6068	-0.8608	-0.9540	-0.0344	-0.0354	-0.0620	12.3194	-13.2399	-1.9100	0.2063	-0.7162	0.1418	0.6514
3.88	-9.6182	-0.8668	-0.9376	-0.0291	-0.0296	-0.0641	12.4871	-13.1684	-2.0039	0.2061	-0.7163	0.1417	0.6515
3.89	-9.6137	-0.8796	-0.9283	-0.0338	-0.0355	-0.0637	12.5111	-13.0338	-1.7392	0.2059	-0.7162	0.1415	0.6515
3.9	-9.6387	-0.8991	-0.9267	-0.0303	-0.0295	-0.0593	12.4447	-13.0523	-1.8067	0.2058	-0.7162	0.1415	0.6517
3.91	-9.5860	-0.8931	-0.9167	-0.0327	-0.0347	-0.0539	12.4423	-13.0485	-1.8694	0.2056	-0.7162	0.1413	0.6518
3.92	-9.5900	-0.8743	-0.9000	-0.0239	-0.0245	-0.0483	12.4694	-13.0475	-1.9236	0.2055	-0.7161	0.1412	0.6519
3.93	-9.6395	-0.8893	-0.9069	-0.0141	-0.0222	-0.0481	12.1510	-13.0571	-2.0795	0.2053	-0.7161	0.1412	0.6520
3.94	-9.6209	-0.8788	-0.8900	-0.0119	-0.0207	-0.0418	12.4386	-13.0418	-2.0244	0.2052	-0.7161	0.1412	0.6520
3.95	-9.6116	-0.8707	-0.8852	-0.0080	-0.0201	-0.0376	12.4731	-13.0712	-2.1053	0.2050	-0.7161	0.1413	0.6521
3.96	-9.6295	-0.8668	-0.8878	-0.0078	-0.0178	-0.0399	12.2623	-12.9562	-2.1814	0.2048	-0.7160	0.1413	0.6521
3.97	-9.6420	-0.8647	-0.8783	-0.0071	-0.0206	-0.0352	12.4764	-12.9716	-2.0863	0.2047	-0.7161	0.1414	0.6522
3.98	-9.6687	-0.8610	-0.8739	-0.0041	-0.0191	-0.0338	12.2768	-12.9405	-1.7519	0.2045	-0.7160	0.1415	0.6523
3.99	-9.6838	-0.8589	-0.8702	0.0085	-0.0248	-0.0307	12.2462	-13.0403	-1.7920	0.2044	-0.7160	0.1416	0.6524
4	-9.6574	-0.8551	-0.8695	0.0056	-0.0212	-0.0183	12.5453	-13.0566	-1.6620	0.2042	-0.7159	0.1417	0.6524
4.01	-9.6085	-0.8521	-0.8755	0.0048	-0.0332	-0.0141	12.3257	-12.7984	-1.9518	0.2041	-0.7158	0.1419	0.6525
4.02	-9.5888	-0.8516	-0.8725	0.0194	-0.0323	-0.0104	12.3214	-12.9655	-1.9612	0.2040	-0.7157	0.1421	0.6527
4.03	-9.5980	-0.8434	-0.8737	0.0154	-0.0277	-0.0036	12.3004	-12.5716	-1.9640	0.2038	-0.7155	0.1423	0.6527
4.04	-9.5890	-0.8097	-0.8690	0.0267	-0.0291	0.0064	12.3401	-12.7552	-1.9701	0.2038	-0.7155	0.1425	0.6530
4.05	-9.5979	-0.7753	-0.8685	0.0437	-0.0253	0.0031	12.5703	-13.0512	-1.9425	0.2037	-0.7153	0.1428	0.6530
4.06	-9.6081	-0.7521	-0.8630	0.0445	-0.0217	0.0001	12.6006	-13.0977	-1.9805	0.2036	-0.7152	0.1432	0.6532
4.07	-9.6239	-0.7314	-0.8572	0.0458	-0.0124	-0.0085	12.4739	-13.2507	-1.8289	0.2035	-0.7151	0.1435	0.6531
4.08	-9.6557	-0.7033	-0.8557	0.0459	-0.0127	-0.0069	12.3924	-13.0920	-1.9060	0.2035	-0.7150	0.1438	0.6532
4.09	-9.6459	-0.6713	-0.8442	0.0448	-0.0146	-0.0076	12.3753	-13.1953	-1.9507	0.2034	-0.7150	0.1442	0.6532
4.1	-9.6570	-0.6478	-0.8414	0.0462	-0.0119	-0.0070	12.1907	-13.3112	-2.0339	0.2033	-0.7148	0.1445	0.6532
4.11	-9.6634	-0.6239	-0.8429	0.0455	-0.0117	-0.0071	12.3431	-13.3279	-2.0434	0.2033	-0.7149	0.1449	0.6533
4.12	-9.6204	-0.5970	-0.8352	0.0472	-0.0159	-0.0071	12.2769	-13.2880	-1.9119	0.2032	-0.7147	0.1452	0.6533
4.13	-9.6036	-0.5863	-0.8340	0.0360	-0.0155	-0.0084	12.4005	-13.1439	-1.9905	0.2033	-0.7146	0.1454	0.6534
4.14	-9.5861	-0.5787	-0.8399	0.0291	-0.0147	-0.0140	12.3173	-13.1319	-1.8389	0.2032	-0.7144	0.1455	0.6534
4.15	-9.5870	-0.5551	-0.8292	0.0305	-0.0124	-0.0243	12.3058	-13.0375	-1.8878	0.2033	-0.7144	0.1457	0.6535
4.16	-9.6105	-0.5553	-0.8277	0.0164	-0.0028	-0.0322	12.3095	-12.8734	-2.0008	0.2033	-0.7143	0.1458	0.6536
4.17	-9.6123	-0.5646	-0.8332	0.0165	-0.0025	-0.0325	12.0346	-12.9498	-1.8670	0.2033	-0.7143	0.1458	0.6536
4.18	-9.6514	-0.5734	-0.8246	0.0114	-0.0033	-0.0337	12.0472	-12.9676	-1.8668	0.2032	-0.7143	0.1460	0.6536
4.19	-9.6833	-0.5812	-0.8294	-0.0035	-0.0072	-0.0377	12.4386	-13.1022	-1.8579	0.2030	-0.7143	0.1461	0.6536
4.2	-9.6481	-0.5817	-0.8206	-0.0021	-0.0054	-0.0336	12.3454	-12.9157	-1.6601	0.2029	-0.7144	0.1462	0.6536
4.21	-9.6210	-0.5792	-0.8156	-0.0121	-0.0061	-0.0424	12.6052	-12.8421	-1.7759	0.2027	-0.7143	0.1462	0.6536
4.22	-9.7231	-0.5909	-0.8108	-0.0258	-0.0025	-0.0460	12.7647	-12.8938	-1.9888	0.2025	-0.7145	0.1462	0.6536
4.23	-9.7217	-0.6071	-0.8081	-0.0180	-0.0167	-0.0404	12.6630	-13.0724	-1.8339	0.2023	-0.7144	0.1462	0.6537
4.24	-9.6649	-0.6096	-0.7941	-0.0273	-0.0250	-0.0412	12.4196	-13.0010	-1.8658	0.2021	-0.7144	0.1461	0.6538
4.25	-9.6841	-0.6336	-0.7885	-0.0315	-0.0207	-0.0515	12.2947	-13.1362	-1.9546	0.2019	-0.7144	0.1460	0.6538
4.26	-9.7026	-0.6686	-0.7827	-0.0299	-0.0299	-0.0476	12.4524	-13.2085	-1.9424	0.2018	-0.7144	0.1460	0.6539
4.27	-9.6973	-0.6701	-0.7672	-0.0302	-0.0378	-0.0511	12.4546	-13.3388	-1.9423	0.2016	-0.7144	0.1459	0.6540
4.28	-9.6859	-0.6742	-0.7548	-0.0299	-0.0452	-0.0398	12.5562	-13.3077	-1.9295	0.2014	-0.7142	0.1458	0.6541
4.29	-9.6705	-0.6786	-0.7480	-0.0302	-0.0372	-0.0454	12.3722	-13.1036	-2.0651	0.2012	-0.7143	0.1457	0.6544
4.3	-9.6535	-0.6823	-0.7334	-0.0301	-0.0401	-0.0500	12.1779	-12.8640	-2.1730	0.2010	-0.7142	0.1456	0.6545
4.31	-9.6565	-0.6971	-0.7270	-0.0306	-0.0342	-0.0522	12.1438	-13.2084	-2.0509	0.2009	-0.7142	0.1455	0.6546
4.32	-9.6349	-0.7162	-0.7147	-0.0326	-0.0391	-0.0543	12.1603	-13.0828	-2.0250	0.2007	-0.7140	0.1454	0.6547
4.33	-9.6057	-0.7240	-0.7026	-0.0297	-0.0335	-0.0520	12.3897	-12.9741	-2.0618	0.2006	-0.7140	0.1452	0.6549
4.34	-9.6097	-0.7225	-0.6932	-0.0324	-0.0258	-0.0500	12.2678	-13.0374	-2.0048	0.2005	-0.7139	0.1450	0.6550
4.35	-9.6029	-0.7308	-0.6887	-0.0299	-0.0225	-0.0495	12.2233	-12.8977	-2.1622	0.2004	-0.7139	0.1449	0.6551
4.36	-9.5949	-0.7409	-0.6756	-0.0295	-0.0108	-0.0480	12.3688	-13.0334	-1.9944	0.2004	-0.7139	0.1448	0.6553
4.37	-9.5946	-0.7523	-0.6766	-0.0310	-0.0096	-0.0416	12.4320	-13.0988	-1.9727	0.2002	-0.7139	0.1446	0.6553
4.38	-9.5994	-0.7574	-0.6791	-0.0294	-0.0096	-0.0404	12.2092	-13.1052	-2.0644	0.2001	-0.7139	0.1445	0.6554
4.39	-9.5814	-0.7588	-0.6792	-0.0284	0.0011	-0.0429	12.3661	-12.9906	-2.0343	0.1999	-0.7138	0.1444	0.6554
4.4	-9.5763	-0.7582	-0.6820	-0.0311	0.0095	-0.0359	12.2915	-13.0229	-2.0321	0.1998	-0.7139	0.1443	0.6554
4.41	-9.5903	-0.7645	-0.6794	-0.0279	0.0164	-0.0420	12.2587	-13.1197	-1.9001	0.1996	-0.7140	0.1442	0.6554
4.42	-9.5819	-0.7709	-0.6803	-0.0235	0.0097	-0.0335	12.1453	-13.0653	-2.0364	0.1995	-0.7140	0.1442	0.6554
4.43	-9.6039	-0.7750	-0.6874	-0.0137	0.0200	-0.0339	12.2738	-13.2045	-2.1459	0.1994	-0.7141	0.1442	0.6554
4.44	-9.6035	-0.7831	-0.7031	-0.0062	0.0263	-0.0326	12.4506	-13.2871	-1.9700	0.1993	-0.7142	0.1442	0.6553
4.45	-9.5991	-0.7750	-0.7165	-0.0024	0.0367	-0.0324	12.2267	-13.2472	-2.1762	0.1992	-0.7143	0.1442	0.6553
4.46	-9.6203	-0.7620	-0.7233	0.0003	0.0353	-0.0345	12.2490	-13.3035	-2.2580	0.1991	-0.7143	0.1443	0.6551
4.47	-9.6469	-0.7513	-0.7346	0.0085	0.0369	-0.0349	12.2484	-13.1050	-2.0708	0.1991	-0.7145	0.1444	0.6551
4.48	-9.6607	-0.7416	-0.7442	0.0217	0.0403	-0.0366	12.0661	-13.0030	-2.0539	0.1990	-0.7146	0.1445	0.6549
4.49	-9.6688	-0.7215	-0.7545	0.0191	0.0367	-0.0392	12.1331	-13.1972	-1.9634	0.1989	-0.7147	0.1447	0.6548
4.5	-9.6889	-0.7044	-0.7624	0.0210	0.0365	-0.0342	12.2463	-13.1800	-1.9306	0.1988	-0.7148	0.1449	0.6546
4.51	-9.7169	-0.6860	-0.7689	0.0295	0.0285	-0.0346	12.4085	-13.0367	-1.9627	0.1988	-0.7149	0.1451	0.6544
4.52	-9.7160	-0.6750	-0.7785	0.0223	0.0251	-0.0379	12.5509	-13.1969	-1.9185	0.1987	-0.7150	0.1453	0.6543
4.53	-9.7014	-0.6582	-0.7883	0.0205	0.0190	-0.0386	12.1124	-13.0076	-2.0467	0.1987	-0.7150	0.1454	0.6542
4.54	-9.6965	-0.6464	-0.7956	0.0207	0.0163	-0.0400	12.1900	-13.0082	-2.0393	0.1986	-0.7152	0.1456	0.6542
4.55	-9.7015	-0.6353	-0.8021	0.0201	0.0121	-0.0485	12.2554	-13.1219	-1.8946	0.1986	-0.7152	0.1457	0.6541
4.56	-9.7165	-0.6221	-0.8094	0.0168	0.0088	-0.0484	12.2512	-13.0736	-2.0450	0.1986	-0.7153	0.1458	0.6541
4.57	-9.7326	-0.6236	-0.8183	0.0177	0.0014	-0.0466	12.2277	-13.1091	-2.0369	0.1985	-0.7152	0.1459	0.6539
4.58	-9.7385	-0.6251	-0.8265	0.0061	-0.0061	-0.0397	12.2875	-12.9518	-1.8102	0.1984	-0.7153	0.1460	0.6540
4.59	-9.7410	-0.6125	-0.8336	-0.0059	-0.0084	-0.0458	12.3208	-13.0794	-1.8837	0.1983	-0.7153	0.1460	0.6540
4.6	-9.7232	-0.6087	-0.8381	0.0017	-0.0140	-0.0464	12.1242	-13.0800	-1.8289	0.1982	-0.7152	0.1461	0.6540
4.61	-9.7323	-0.6085	-0.8310	-0.0040	-0.0233	-0.0424	12.2715	-13.2070	-1.8853	0.1982	-0.7153	0.1461	0.6541
4.62	-9.7562	-0.6245	-0.8435	-0.0043	-0.0318	-0.0418	12.3725	-13.1403	-2.0826	0.1981	-0.7152	0.1461	0.6542
4.63	-9.7322	-0.6222	-0.8337	-0.0079	-0.0452	-0.0491	12.2436	-13.2786	-1.7457	0.1980	-0.7151	0.1461	0.6544
4.64	-9.7097	-0.6203	-0.8254	-0.0205	-0.0445	-0.0526	12.3250	-13.1598	-1.8462	0.1979	-0.7149	0.1460	0.6544
4.65	-9.7284	-0.6225	-0.8220	-0.0233	-0.0515	-0.0527	12.4600	-13.1065	-1.9863	0.1978	-0.7149	0.1459	0.6547
4.66	-9.7182	-0.6244	-0.8059	-0.0289	-0.0577	-0.0562	12.3752	-13.3405	-1.8789	0.1977	-0.7147	0.1457	0.6549
4.67	-9.7081	-0.6352	-0.7975	-0.0307	-0.0625	-0.0568	12.2506	-13.1554	-1.8284	0.1975	-0.7146	0.1456	0.6551
4.68	-9.7130	-0.6529	-0.7928	-0.0303	-0.0598	-0.0528	12.1464	-13.1916	-1.9669	0.1974	-0.7145	0.1454	0.6553
4.69	-9.6650	-0.6491	-0.7802	-0.0316	-0.0663	-0.0511	12.1555	-13.1709	-2.0724	0.1973	-0.7143	0.1453	0.6555
4.7	-9.6687	-0.6393	-0.7637	-0.0307	-0.0648	-0.0592	12.4096	-13.1912	-1.9510	0.1972	-0.7142	0.1451	0.6558
4.71	-9.6522	-0.6479	-0.7610	-0.0315	-0.0695	-0.0622	12.8195	-13.0998	-1.5409	0.1972	-0.7139	0.1451	0.6559
4.72	-9.6263	-0.6446	-0.7464	-0.0302	-0.0706	-0.0650	12.7666	-12.8408	-1.4921	0.1975	-0.7138	0.1453	0.6561
4.73	-9.6444	-0.6599	-0.7370	-0.0328	-0.0615	-0.0691	12.6028	-12.9327	-1.7018	0.1975	-0.7136	0.1452	0.6563
4.74	-9.6449	-0.6662	-0.7232	-0.0310	-0.0713	-0.0737	12.1324	-12.9398	-1.9236	0.1975	-0.7134	0.1449	0.6566
4.75	-9.6291	-0.6789	-0.7198	-0.0298	-0.0677	-0.0676	12.1398	-12.9453	-2.1795	0.1974	-0.7132	0.1447	0.6568
4.76	-9.6272	-0.6894	-0.7000	-0.0334	-0.0650	-0.0630	12.3864	-13.1096	-2.0833	0.1973	-0.7131	0.1445	0.6570
4.77	-9.6411	-0.6686	-0.6899	-0.0277	-0.0629	-0.0634	12.1158	-13.0489	-1.8048	0.1972	-0.7130	0.1444	0.6572
4.78	-9.6361	-0.6670	-0.6889	-0.0304	-0.0593	-0.0695	12.2591	-13.0924	-2.0411	0.1972	-0.7128	0.1441	0.6574
4.79	-9.5704	-0.6911	-0.6860	-0.0312	-0.0621	-0.0622	12.2369	-12.9451	-2.0389	0.1972	-0.7127	0.1439	0.6577
4.8	-9.5219	-0.6775	-0.6716	-0.0306	-0.0608	-0.0563	12.1084	-13.1938	-2.1985	0.1971	-0.7125	0.1437	0.6579
4.81	-9.5691	-0.6788	-0.6683	-0.0311	-0.0497	-0.0631	12.2752	-13.2644	-1.9431	0.1971	-0.7124	0.1434	0.6582
4.82	-9.5599	-0.6907	-0.6815	-0.0319	-0.0471	-0.0622	12.5540	-13.3074	-2.0182	0.1970	-0.7122	0.1432	0.6583
4.83	-9.5498	-0.6882	-0.6786	-0.0301	-0.0404	-0.0605	12.5825	-13.4918	-2.4017	0.1970	-0.7121	0.1430	0.6585
4.84	-9.5499	-0.6879	-0.6812	-0.0330	-0.0255	-0.0662	12.2894	-13.1075	-2.2028	0.1970	-0.7121	0.1427	0.6586
4.85	-9.5530	-0.6899	-0.6870	-0.0312	-0.0195	-0.0597	12.4419	-13.1178	-2.2618	0.1969	-0.7120	0.1425	0.6587
4.86	-9.5638	-0.6949	-0.6818	-0.0315	-0.0162	-0.0623	12.4001	-13.3749	-1.9516	0.1969	-0.7121	0.1423	0.6589
4.87	-9.5729	-0.7049	-0.6865	-0.0316	-0.0100	-0.0607	12.1844	-13.1902	-2.1514	0.1968	-0.7120	0.1421	0.6589
4.88	-9.5622	-0.7042	-0.6956	-0.0307	0.0016	-0.0603	12.3273	-13.3007	-2.1911	0.1967	-0.7121	0.1419	0.6590
4.89	-9.5727	-0.7042	-0.6928	-0.0313	0.0094	-0.0556	12.3461	-13.1176	-2.0045	0.1966	-0.7120	0.1418	0.6589
4.9	-9.5882	-0.7117	-0.6974	-0.0295	0.0147	-0.0591	12.3099	-13.0993	-2.0448	0.1966	-0.7122	0.1416	0.6589
4.91	-9.6016	-0.7090	-0.7033	-0.0289	0.0217	-0.0579	12.2210	-13.1487	-2.0468	0.1965	-0.7122	0.1415	0.6589
4.92	-9.6009	-0.7154	-0.7040	-0.0334	0.0230	-0.0576	12.2604	-12.9551	-1.9536	0.1964	-0.7123	0.1413	0.6588
4.93	-9.5881	-0.7218	-0.7094	-0.0308	0.0203	-0.0538	12.2322	-13.0909	-2.0340	0.1963	-0.7124	0.1412	0.6588
4.94	-9.6018	-0.7125	-0.7243	-0.0308	0.0212	-0.0486	12.2691	-12.9344	-2.1855	0.1961	-0.7125	0.1410	0.6588
4.95	-9.6299	-0.7161	-0.7287	-0.0309	0.0330	-0.0550	12.3959	-13.0620	-2.0387	0.1960	-0.7127	0.1409	0.6587
4.96	-9.6299	-0.7163	-0.7460	-0.0313	0.0288	-0.0537	12.1325	-13.0707	-2.0398	0.1959	-0.7127	0.1408	0.6586
4.97	-9.5538	-0.7032	-0.7583	-0.0313	0.0341	-0.0549	12.0703	-13.1807	-2.1321	0.1958	-0.7129	0.1407	0.6586
4.98	-9.5866	-0.6901	-0.7486	-0.0309	0.0359	-0.0515	12.1971	-13.1398	-1.8248	0.1957	-0.7130	0.1405	0.6584
4.99	-9.7377	-0.7101	-0.7688	-0.0318	0.0413	-0.0578	12.3901	-13.2198	-2.2091	0.1956	-0.7132	0.1404	0.6584
5	-9.7041	-0.7112	-0.7686	-0.0314	0.0253	-0.0576	12.5408	-13.3610	-2.2249	0.1955	-0.7133	0.1402	0.6583
5.01	-9.6439	-0.6889	-0.7660	-0.0323	0.0216	-0.0594	12.3629	-13.3074	-2.0761	0.1954	-0.7134	0.1401	0.6582
5.02	-9.6747	-0.7058	-0.7670	-0.0323	0.0391	-0.0652	12.5069	-13.3790	-1.9596	0.1953	-0.7136	0.1399	0.6581
5.03	-9.6745	-0.7262	-0.7801	-0.0309	0.0293	-0.0580	12.5178	-13.1493	-1.9710	0.1951	-0.7137	0.1398	0.6580
5.04	-9.6622	-0.7024	-0.7711	-0.0319	0.0227	-0.0530	12.3115	-13.0705	-2.3341	0.1949	-0.7139	0.1398	0.6580
5.05	-9.6731	-0.7076	-0.7729	-0.0319	0.0252	-0.0585	12.4861	-13.1934	-2.3494	0.1947	-0.7140	0.1397	0.6579
5.06	-9.6527	-0.7019	-0.7725	-0.0319	0.0195	-0.0486	12.5479	-13.1305	-2.0965	0.1946	-0.7142	0.1396	0.6579
5.07	-9.6420	-0.6936	-0.7660	-0.0358	0.0152	-0.0494	12.3857	-13.2635	-2.1374	0.1943	-0.7142	0.1395	0.6577
5.08	-9.6628	-0.7127	-0.7714	-0.0357	0.0169	-0.0566	12.3647	-13.1209	-2.0040	0.1942	-0.7143	0.1394	0.6577
5.09	-9.6486	-0.7074	-0.7686	-0.0340	0.0179	-0.0572	12.3859	-13.1957	-2.2444	0.1940	-0.7144	0.1393	0.6577
5.1	-9.6688	-0.6921	-0.7634	-0.0317	0.0113	-0.0592	12.0020	-13.0609	-2.1416	0.1938	-0.7145	0.1392	0.6576
5.11	-9.6947	-0.7143	-0.7658	-0.0369	0.0103	-0.0578	12.2228	-13.0901	-1.9181	0.1937	-0.7147	0.1391	0.6577
5.12	-9.6769	-0.7262	-0.7624	-0.0388	-0.0002	-0.0536	12.0652	-12.8947	-2.1056	0.1935	-0.7147	0.1389	0.6576
5.13	-9.6578	-0.7207	-0.7677	-0.0356	0.0007	-0.0535	12.1772	-13.2128	-2.1606	0.1933	-0.7148	0.1388	0.6577
5.14	-9.6448	-0.7311	-0.7618	-0.0331	0.0007	-0.0510	12.3742	-13.2659	-1.9964	0.1931	-0.7147	0.1387	0.6576
5.15	-9.6508	-0.7591	-0.7662	-0.0339	0.0027	-0.0521	12.1928	-13.0257	-2.2048	0.1930	-0.7149	0.1386	0.6577
5.16	-9.6154	-0.7450	-0.7632	-0.0306	-0.0030	-0.0509	12.2982	-13.0962	-2.1682	0.1928	-0.7149	0.1385	0.6577
5.17	-9.6173	-0.7566	-0.7487	-0.0306	0.0033	-0.0538	12.1193	-13.3531	-2.1167	0.1927	-0.7149	0.1384	0.6577
5.18	-9.6365	-0.7656	-0.7587	-0.0269	0.0137	-0.0605	12.2891	-13.2129	-2.1038	0.1926	-0.7150	0.1383	0.6577
5.19	-9.6490	-0.7246	-0.7483	-0.0079	0.0084	-0.0541	12.4371	-13.1869	-2.3299	0.1925	-0.7150	0.1382	0.6577
5.2	-9.6612	-0.7236	-0.7560	-0.0139	0.0064	-0.0520	12.4949	-13.2292	-2.1377	0.1924	-0.7151	0.1382	0.6577
5.21	-9.6850	-0.7336	-0.7695	-0.0170	0.0119	-0.0457	12.8349	-13.0336	-1.8772	0.1923	-0.7151	0.1382	0.6576
5.22	-9.6875	-0.7176	-0.7735	-0.0107	-0.0019	-0.0433	12.7385	-13.0832	-2.2097	0.1922	-0.7152	0.1382	0.6577
5.23	-9.7022	-0.6993	-0.7768	-0.0095	-0.0005	-0.0463	12.3421	-13.0972	-1.9856	0.1921	-0.7152	0.1382	0.6577
5.24	-9.7115	-0.6982	-0.7810	-0.0192	-0.0120	-0.0435	12.2557	-12.8804	-2.0178	0.1919	-0.7152	0.1381	0.6577
5.25	-9.6958	-0.6945	-0.7843	-0.0168	-0.0129	-0.0475	12.3137	-12.9685	-2.3619	0.1918	-0.7152	0.1381	0.6578
5.26	-9.6870	-0.6940	-0.7723	-0.0210	-0.0186	-0.0444	12.4803	-13.1269	-2.2850	0.1917	-0.7151	0.1380	0.6579
5.27	-9.7180	-0.7201	-0.7823	-0.0269	-0.0168	-0.0463	12.3411	-13.0679	-2.1455	0.1915	-0.7151	0.1379	0.6580
5.28	-9.6828	-0.6850	-0.7741	-0.0137	-0.0222	-0.0541	12.3445	-13.1073	-2.1068	0.1915	-0.7150	0.1378	0.6580
5.29	-9.6658	-0.6902	-0.7639	-0.0259	-0.0308	-0.0491	12.3154	-12.9690	-2.2681	0.1914	-0.7150	0.1378	0.6582
5.3	-9.6448	-0.6879	-0.7483	-0.0253	-0.0257	-0.0479	12.0904	-13.0457	-1.9965	0.1912	-0.7149	0.1377	0.6583
5.31	-9.6746	-0.6829	-0.7294	-0.0281	-0.0217	-0.0596	12.2582	-13.1183	-1.9639	0.1911	-0.7150	0.1375	0.6584
5.32	-9.6610	-0.6910	-0.7411	-0.0309	-0.0253	-0.0525	12.2341	-13.0550	-2.2667	0.1910	-0.7148	0.1374	0.6584
5.33	-9.6253	-0.6728	-0.7190	-0.0305	-0.0251	-0.0521	12.3828	-13.1453	-2.3099	0.1909	-0.7148	0.1373	0.6586
5.34	-9.6628	-0.7006	-0.7240	-0.0338	-0.0220	-0.0544	12.2619	-12.9516	-2.1504	0.1907	-0.7148	0.1371	0.6587
5.35	-9.6570	-0.7133	-0.7382	-0.0305	-0.0248	-0.0549	12.2505	-12.9586	-2.4382	0.1906	-0.7147	0.1370	0.6588
5.36	-9.6554	-0.6954	-0.7266	-0.0191	-0.0277	-0.0587	12.2263	-13.2208	-2.2636	0.1905	-0.7148	0.1369	0.6590
5.37	-9.6460	-0.7114	-0.7315	-0.0256	-0.0267	-0.0567	12.4434	-13.3132	-2.5371	0.1904	-0.7147	0.1367	0.6590
5.38	-9.6262	-0.7168	-0.7307	-0.0184	-0.0287	-0.0593	12.5340	-13.3414	-2.2771	0.1904	-0.7147	0.1366	0.6592
5.39	-9.6110	-0.7097	-0.7209	-0.0263	-0.0271	-0.0643	12.5099	-13.0421	-2.1806	0.1903	-0.7145	0.1364	0.6592
5.4	-9.6251	-0.7182	-0.7162	-0.0222	-0.0190	-0.0607	12.6123	-13.1254	-2.4710	0.1903	-0.7145	0.1363	0.6593
5.41	-9.6407	-0.7095	-0.7126	-0.0132	-0.0166	-0.0593	12.4541	-13.0199	-2.1824	0.1902	-0.7145	0.1362	0.6594
5.42	-9.6158	-0.7050	-0.7044	-0.0268	-0.0189	-0.0619	12.3324	-13.0139	-2.3157	0.1902	-0.7144	0.1360	0.6595
5.43	-9.5783	-0.7016	-0.7030	-0.0260	-0.0091	-0.0565	12.3554	-12.8002	-2.4161	0.1901	-0.7145	0.1358	0.6596
5.44	-9.5802	-0.6952	-0.7015	-0.0219	-0.0094	-0.0605	12.2924	-12.8537	-2.2876	0.1901	-0.7144	0.1356	0.6596
5.45	-9.5434	-0.6994	-0.7058	-0.0214	-0.0059	-0.0600	12.2525	-12.9805	-2.3471	0.1901	-0.7144	0.1355	0.6597
5.46	-9.5054	-0.6765	-0.6914	-0.0305	0.0110	-0.0630	12.1498	-13.1004	-2.2103	0.1900	-0.7144	0.1353	0.6596
5.47	-9.5502	-0.6663	-0.6903	-0.0319	0.0213	-0.0726	12.1794	-13.0758	-2.2324	0.1900	-0.7146	0.1351	0.6596
5.48	-9.5981	-0.6754	-0.6870	-0.0339	0.0240	-0.0694	12.4266	-13.1287	-2.1944	0.1899	-0.7147	0.1349	0.6595
5.49	-9.6211	-0.6946	-0.6776	-0.0438	0.0273	-0.0685	12.4335	-13.2174	-2.0111	0.1898	-0.7148	0.1346	0.6595
5.5	-9.6715	-0.7046	-0.6789	-0.0571	0.0282	-0.0736	12.4025	-12.9720	-2.1460	0.1897	-0.7149	0.1343	0.6594
5.51	-9.6960	-0.7179	-0.6878	-0.0541	0.0329	-0.0722	12.4812	-12.8851	-2.2553	0.1895	-0.7151	0.1341	0.6593
5.52	-9.6626	-0.7313	-0.6930	-0.0583	0.0281	-0.0680	12.4800	-12.9740	-2.3942	0.1894	-0.7153	0.1338	0.6593
5.53	-9.6462	-0.7498	-0.7028	-0.0557	0.0265	-0.0619	12.3339	-13.0238	-2.4262	0.1892	-0.7153	0.1336	0.6592
5.54	-9.6801	-0.7766	-0.7087	-0.0583	0.0190	-0.0516	12.3110	-12.9765	-2.1826	0.1889	-0.7156	0.1334	0.6592
5.55	-9.7398	-0.7897	-0.7282	-0.0529	0.0085	-0.0411	12.2623	-13.0499	-2.2568	0.1887	-0.7156	0.1332	0.6592
5.56	-9.7361	-0.8031	-0.7591	-0.0561	0.0067	-0.0405	12.4087	-13.1171	-2.4101	0.1884	-0.7158	0.1331	0.6593
5.57	-9.6831	-0.8030	-0.7512	-0.0551	-0.0098	-0.0482	12.5551	-12.9893	-2.4051	0.1881	-0.7157	0.1329	0.6593
5.58	-9.7030	-0.8041	-0.7559	-0.0343	-0.0010	-0.0535	12.3195	-13.0000	-2.1723	0.1880	-0.7158	0.1328	0.6593
5.59	-9.7415	-0.8114	-0.7614	-0.0320	-0.0012	-0.0591	12.3014	-13.2016	-2.2715	0.1878	-0.7158	0.1327	0.6593
5.6	-9.7511	-0.8156	-0.7612	-0.0300	-0.0156	-0.0566	12.5753	-13.0248	-2.4182	0.1877	-0.7158	0.1325	0.6594
5.61	-9.7763	-0.8198	-0.7694	-0.0221	-0.0173	-0.0612	12.3790	-12.8837	-2.3944	0.1876	-0.7159	0.1324	0.6595
5.62	-9.7440	-0.8364	-0.7914	-0.0156	-0.0267	-0.0615	12.3245	-12.9384	-2.4422	0.1876	-0.7157	0.1323	0.6596
5.63	-9.6791	-0.8073	-0.7782	-0.0062	-0.0370	-0.0643	12.3895	-12.8840	-2.3210	0.1876	-0.7157	0.1322	0.6597
5.64	-9.6943	-0.7665	-0.7405	0.0117	-0.0401	-0.0736	12.4687	-13.0273	-2.3219	0.1877	-0.7155	0.1321	0.6598
5.65	-9.7068	-0.7233	-0.7555	0.0075	-0.0398	-0.0780	12.3630	-12.8601	-2.5175	0.1878	-0.7154	0.1320	0.6599
5.66	-9.6717	-0.7229	-0.7326	-0.0024	-0.0466	-0.0752	12.3887	-13.0062	-2.3699	0.1878	-0.7153	0.1318	0.6601
5.67	-9.6248	-0.7620	-0.7391	-0.0051	-0.0391	-0.0816	12.4352	-12.9166	-2.4305	0.1879	-0.7152	0.1317	0.6602
5.68	-9.5845	-0.7036	-0.7101	-0.0001	-0.0319	-0.0891	12.3531	-12.9337	-2.3109	0.1881	-0.7151	0.1315	0.6603
5.69	-9.6412	-0.6672	-0.6991	-0.0023	-0.0286	-0.0877	12.3990	-12.7231	-2.2935	0.1882	-0.7151	0.1313	0.6603
5.7	-9.6687	-0.6915	-0.7121	-0.0193	-0.0310	-0.0840	12.3851	-12.8733	-2.1994	0.1882	-0.7150	0.1311	0.6605
5.71	-9.7034	-0.7337	-0.7071	-0.0192	-0.0274	-0.0854	12.8347	-12.8622	-2.2386	0.1882	-0.7149	0.1309	0.6604
5.72	-9.6857	-0.7433	-0.7077	-0.0153	-0.0355	-0.0836	12.7663	-12.4796	-2.2245	0.1885	-0.7149	0.1309	0.6606
5.73	-9.6980	-0.7539	-0.6864	-0.0197	-0.0429	-0.0769	12.8054	-12.7128	-2.0873	0.1888	-0.7147	0.1310	0.6606
5.74	-9.7513	-0.7893	-0.7197	-0.0176	-0.0440	-0.0825	12.6749	-12.7210	-2.2647	0.1889	-0.7146	0.1309	0.6607
5.75	-9.6040	-0.8055	-0.7111	-0.0175	-0.0596	-0.0833	12.7374	-12.9643	-2.3418	0.1889	-0.7144	0.1307	0.6609
5.76	-9.5335	-0.7778	-0.6708	-0.0037	-0.0548	-0.0847	12.5825	-13.0757	-2.3603	0.1891	-0.7143	0.1304	0.6611
5.77	-9.5970	-0.8071	-0.6712	-0.0054	-0.0415	-0.0881	12.6049	-13.0762	-2.4555	0.1892	-0.7142	0.1302	0.6612
5.78	-9.5361	-0.8259	-0.6802	-0.0025	-0.0447	-0.0834	12.6764	-13.2808	-2.4040	0.1894	-0.7140	0.1300	0.6613
5.79	-9.5212	-0.7894	-0.6394	0.0180	-0.0336	-0.0846	12.5277	-13.0784	-2.4426	0.1896	-0.7139	0.1298	0.6615
5.8	-9.5582	-0.7967	-0.6385	0.0101	-0.0159	-0.0841	12.4252	-12.9564	-2.4061	0.1898	-0.7138	0.1297	0.6615
5.81	-9.5434	-0.7968	-0.6419	0.0123	-0.0119	-0.0833	12.3479	-12.9255	-2.2304	0.1899	-0.7139	0.1295	0.6616
5.82	-9.5416	-0.7893	-0.6335	0.0180	-0.0076	-0.0816	12.4948	-12.7625	-2.3544	0.1901	-0.7137	0.1294	0.6615
5.83	-9.5754	-0.7988	-0.6304	0.0082	0.0039	-0.0866	12.5678	-13.0455	-2.3261	0.1903	-0.7138	0.1293	0.6615
5.84	-9.5927	-0.7827	-0.6358	0.0055	-0.0030	-0.0889	12.3807	-12.7060	-2.3676	0.1904	-0.7138	0.1291	0.6615
5.85	-9.5600	-0.7736	-0.6230	-0.0023	0.0098	-0.0804	12.3970	-13.0823	-2.2426	0.1905	-0.7138	0.1290	0.6614
5.86	-9.5630	-0.7804	-0.6324	-0.0127	0.0183	-0.0751	12.2592	-13.0226	-2.2531	0.1906	-0.7139	0.1288	0.6615
5.87	-9.5420	-0.7773	-0.6346	-0.0045	0.0209	-0.0712	12.3498	-12.7292	-2.2238	0.1906	-0.7140	0.1287	0.6613
5.88	-9.5199	-0.7722	-0.6279	-0.0236	0.0206	-0.0596	12.3602	-12.8199	-2.1117	0.1906	-0.7141	0.1286	0.6613
5.89	-9.5140	-0.7830	-0.6407	-0.0299	0.0342	-0.0563	12.1512	-12.7897	-2.2781	0.1905	-0.7141	0.1284	0.6611
5.9	-9.4908	-0.7867	-0.6385	-0.0300	0.0421	-0.0506	12.3794	-12.7812	-2.3407	0.1904	-0.7143	0.1283	0.6611
5.91	-9.4912	-0.7899	-0.6315	-0.0398	0.0508	-0.0477	12.4979	-12.8503	-2.1963	0.1902	-0.7145	0.1282	0.6610
5.92	-9.5876	-0.8152	-0.6324	-0.0457	0.0567	-0.0368	12.4645	-12.8791	-2.3538	0.1900	-0.7147	0.1281	0.6608
5.93	-9.6544	-0.8363	-0.6394	-0.0527	0.0621	-0.0368	12.4641	-12.9927	-2.3256	0.1897	-0.7150	0.1280	0.6607
5.94	-9.6761	-0.8265	-0.6492	-0.0520	0.0612	-0.0343	12.6315	-13.0559	-2.2213	0.1894	-0.7152	0.1279	0.6605
5.95	-9.7182	-0.8289	-0.6680	-0.0598	0.0565	-0.0298	12.6082	-13.1141	-2.2533	0.1891	-0.7154	0.1277	0.6604
5.96	-9.7299	-0.8153	-0.6812	-0.0550	0.0438	-0.0203	12.4604	-13.1616	-2.2272	0.1888	-0.7155	0.1276	0.6602
5.97	-9.7690	-0.8293	-0.6909	-0.0541	0.0339	-0.0159	12.3540	-13.0364	-2.3713	0.1885	-0.7157	0.1276	0.6603
5.98	-9.7960	-0.8571	-0.7436	-0.0588	0.0155	-0.0168	12.2662	-13.0636	-2.2954	0.1882	-0.7158	0.1275	0.6603
5.99	-9.7049	-0.8388	-0.7588	-0.0461	-0.0032	-0.0174	12.3430	-13.0702	-2.1471	0.1879	-0.7158	0.1274	0.6604
6	-9.6505	-0.8140	-0.7541	-0.0417	-0.0106	-0.0121	12.6075	-12.9520	-2.2397	0.1876	-0.7158	0.1274	0.6604
6.01	-9.6607	-0.8356	-0.7717	-0.0457	-0.0107	-0.0118	12.5035	-12.8679	-2.2768	0.1873	-0.7158	0.1274	0.6606
6.02	-9.6730	-0.8484	-0.7806	-0.0344	-0.0100	-0.0126	12.4962	-12.8756	-2.3788	0.1870	-0.7158	0.1274	0.6607
6.03	-9.6735	-0.8538	-0.7966	-0.0310	-0.0217	-0.0186	12.2880	-12.9556	-2.2398	0.1867	-0.7157	0.1273	0.6607
6.04	-9.6760	-0.8535	-0.7962	-0.0240	-0.0249	-0.0205	12.4075	-13.0871	-2.2436	0.1866	-0.7157	0.1274	0.6609
6.05	-9.7049	-0.8423	-0.7917	-0.0150	-0.0248	-0.0257	12.3278	-12.8781	-2.1004	0.1864	-0.7156	0.1273	0.6610
6.06	-9.7153	-0.8380	-0.7903	-0.0072	-0.0314	-0.0250	12.3303	-12.9353	-2.2697	0.1863	-0.7156	0.1274	0.6612
6.07	-9.6988	-0.8375	-0.7781	-0.0032	-0.0322	-0.0230	12.4389	-13.0869	-2.1224	0.1861	-0.7154	0.1274	0.6613
6.08	-9.6872	-0.8389	-0.7695	0.0054	-0.0409	-0.0324	12.0655	-12.9115	-2.3273	0.1861	-0.7153	0.1275	0.6615
6.09	-9.6433	-0.8335	-0.7510	0.0206	-0.0349	-0.0320	12.0697	-12.8872	-2.2797	0.1861	-0.7151	0.1275	0.6616
6.1	-9.6604	-0.8203	-0.7123	0.0180	-0.0325	-0.0367	12.1816	-12.8566	-2.3171	0.1861	-0.7150	0.1276	0.6617
6.11	-9.5614	-0.8153	-0.7123	0.0261	-0.0311	-0.0329	12.3525	-13.1129	-2.2550	0.1862	-0.7149	0.1277	0.6619
6.12	-9.5152	-0.7877	-0.6768	0.0376	-0.0234	-0.0364	12.4620	-13.1232	-2.2285	0.1863	-0.7147	0.1278	0.6619
6.13	-9.6081	-0.8047	-0.6817	0.0433	0.0019	-0.0450	12.3467	-13.0182	-2.5165	0.1864	-0.7147	0.1279	0.6620
6.14	-9.6040	-0.7843	-0.6709	0.0456	0.0021	-0.0458	12.4661	-13.1676	-2.5263	0.1865	-0.7146	0.1280	0.6619
6.15	-9.6141	-0.7430	-0.6457	0.0435	0.0070	-0.0447	12.4015	-13.1328	-2.2834	0.1867	-0.7146	0.1282	0.6619
6.16	-9.6707	-0.7282	-0.6600	0.0470	0.0162	-0.0442	12.4442	-13.1624	-2.2031	0.1868	-0.7146	0.1284	0.6618
6.17	-9.6811	-0.6963	-0.6591	0.0457	0.0120	-0.0380	12.3556	-13.0811	-2.3511	0.1869	-0.7146	0.1285	0.6617
6.18	-9.6434	-0.6685	-0.6603	0.0439	0.0092	-0.0356	12.3888	-12.9366	-2.3113	0.1869	-0.7146	0.1287	0.6617
6.19	-9.6399	-0.6564	-0.6658	0.0405	0.0092	-0.0395	12.2623	-13.1470	-2.2665	0.1870	-0.7146	0.1289	0.6616
6.2	-9.6617	-0.6497	-0.6729	0.0237	0.0106	-0.0397	12.3167	-13.0853	-2.3354	0.1870	-0.7146	0.1290	0.6616
6.21	-9.6505	-0.6529	-0.6857	0.0135	0.0092	-0.0451	12.6656	-13.0421	-2.0197	0.1870	-0.7146	0.1291	0.6615
6.22	-9.6656	-0.6551	-0.6831	-0.0002	0.0109	-0.0432	12.7415	-13.0568	-2.1856	0.1870	-0.7147	0.1291	0.6615
6.23	-9.6801	-0.6641	-0.6865	-0.0060	0.0113	-0.0424	12.5949	-12.8617	-2.0991	0.1869	-0.7147	0.1291	0.6615
6.24	-9.6532	-0.6793	-0.7011	-0.0132	0.0102	-0.0478	12.4097	-12.8255	-2.3451	0.1868	-0.7148	0.1291	0.6615
6.25	-9.6147	-0.7025	-0.7025	-0.0298	0.0075	-0.0437	12.2088	-12.9119	-2.2914	0.1866	-0.7148	0.1290	0.6614
6.26	-9.5906	-0.7191	-0.7094	-0.0276	0.0154	-0.0497	12.4338	-12.9247	-2.2079	0.1866	-0.7149	0.1289	0.6614
6.27	-9.6118	-0.7339	-0.7219	-0.0306	0.0129	-0.0470	12.4612	-12.7927	-2.3707	0.1864	-0.7150	0.1288	0.6614
6.28	-9.6529	-0.7398	-0.7214	-0.0288	0.0217	-0.0492	12.3855	-12.9631	-2.1651	0.1862	-0.7150	0.1287	0.6613
6.29	-9.6877	-0.7378	-0.7338	-0.0317	0.0198	-0.0503	12.1166	-12.9012	-2.3717	0.1861	-0.7152	0.1286	0.6613
6.3	-9.6663	-0.7372	-0.7383	-0.0277	0.0085	-0.0536	12.2729	-12.8621	-2.1938	0.1860	-0.7153	0.1285	0.6613
6.31	-9.6572	-0.7444	-0.7433	-0.0301	0.0163	-0.0472	12.4499	-13.0113	-2.0929	0.1858	-0.7154	0.1284	0.6613
6.32	-9.6732	-0.7611	-0.7523	-0.0294	0.0088	-0.0581	12.5380	-13.1246	-2.1088	0.1857	-0.7154	0.1283	0.6612
6.33	-9.6855	-0.7732	-0.7582	-0.0305	0.0100	-0.0527	12.5383	-13.0789	-2.2718	0.1856	-0.7155	0.1282	0.6612
6.34	-9.6881	-0.7758	-0.7597	-0.0318	0.0095	-0.0457	12.5259	-13.0051	-2.4319	0.1854	-0.7156	0.1281	0.6612
6.35	-9.6873	-0.7836	-0.7620	-0.0325	0.0023	-0.0438	12.2401	-13.0180	-2.0592	0.1852	-0.7156	0.1280	0.6612
6.36	-9.7242	-0.7977	-0.7657	-0.0299	-0.0039	-0.0459	12.4029	-13.1327	-2.1741	0.1851	-0.7157	0.1279	0.6613
6.37	-9.7257	-0.8037	-0.7643	-0.0267	-0.0088	-0.0396	12.2835	-12.9393	-2.1571	0.1849	-0.7157	0.1278	0.6613
6.38	-9.6932	-0.7959	-0.7602	-0.0226	-0.0179	-0.0337	12.3648	-13.2136	-2.1565	0.1848	-0.7157	0.1278	0.6614
6.39	-9.6749	-0.8067	-0.7599	-0.0228	-0.0226	-0.0364	12.6014	-13.0148	-2.3068	0.1846	-0.7155	0.1277	0.6614
6.4	-9.6549	-0.8020	-0.7597	-0.0096	-0.0206	-0.0332	12.2500	-12.8221	-2.3335	0.1845	-0.7155	0.1277	0.6616
6.41	-9.6612	-0.7918	-0.7500	-0.0015	-0.0168	-0.0374	12.3413	-13.1620	-2.2060	0.1845	-0.7155	0.1277	0.6616
6.42	-9.6663	-0.7826	-0.7435	-0.0059	-0.0271	-0.0353	12.3494	-13.0174	-2.3493	0.1844	-0.7154	0.1277	0.6617
6.43	-9.6625	-0.7739	-0.7402	0.0053	-0.0250	-0.0325	12.3882	-12.9365	-2.5321	0.1843	-0.7153	0.1278	0.6618
6.44	-9.6033	-0.7549	-0.7418	0.0137	-0.0247	-0.0385	12.4214	-12.9183	-1.8981	0.1843	-0.7152	0.1278	0.6619
6.45	-9.6018	-0.7235	-0.7344	0.0175	-0.0271	-0.0341	12.1416	-12.9804	-2.0601	0.1844	-0.7151	0.1279	0.6621
6.46	-9.6996	-0.7100	-0.7276	0.0171	-0.0221	-0.0414	12.2681	-13.1358	-2.2293	0.1843	-0.7150	0.1279	0.6621
6.47	-9.6790	-0.7008	-0.7235	0.0141	-0.0292	-0.0498	12.3981	-12.9814	-2.3030	0.1844	-0.7150	0.1279	0.6622
6.48	-9.6474	-0.6721	-0.6987	0.0207	-0.0289	-0.0443	12.4460	-12.9152	-2.3243	0.1844	-0.7148	0.1280	0.6623
6.49	-9.6648	-0.6597	-0.6981	0.0193	-0.0295	-0.0542	12.2361	-12.9848	-2.5140	0.1845	-0.7148	0.1280	0.6624
6.5	-9.6626	-0.6629	-0.6844	0.0211	-0.0393	-0.0593	12.3798	-13.2480	-2.3606	0.1846	-0.7146	0.1280	0.6625
6.51	-9.6447	-0.6494	-0.6816	0.0149	-0.0388	-0.0583	12.4648	-13.0132	-2.4280	0.1847	-0.7145	0.1280	0.6626
6.52	-9.6245	-0.6359	-0.6711	-0.0005	-0.0309	-0.0594	12.4360	-13.1294	-2.5125	0.1847	-0.7144	0.1279	0.6627
6.53	-9.6100	-0.6251	-0.6668	-0.0032	-0.0360	-0.0643	12.4622	-13.2501	-2.3986	0.1848	-0.7142	0.1277	0.6628
6.54	-9.5960	-0.6192	-0.6610	-0.0129	-0.0279	-0.0644	12.3241	-13.0491	-2.2562	0.1848	-0.7142	0.1276	0.6630
6.55	-9.5826	-0.6246	-0.6531	-0.0272	-0.0198	-0.0711	12.5565	-13.0445	-2.5276	0.1848	-0.7141	0.1273	0.6630
6.56	-9.5832	-0.6413	-0.6527	-0.0370	-0.0212	-0.0757	12.4394	-13.2009	-2.2992	0.1848	-0.7142	0.1271	0.6632
6.57	-9.5688	-0.6665	-0.6496	-0.0498	-0.0123	-0.0771	12.5592	-13.2001	-2.4021	0.1847	-0.7141	0.1267	0.6632
6.58	-9.5519	-0.6829	-0.6480	-0.0581	-0.0156	-0.0751	12.3655	-13.1908	-2.4619	0.1847	-0.7141	0.1264	0.6633
6.59	-9.5870	-0.7070	-0.6526	-0.0594	0.0060	-0.0787	12.2635	-12.8452	-2.2199	0.1845	-0.7142	0.1261	0.6633
6.6	-9.6150	-0.7382	-0.6623	-0.0648	0.0119	-0.0744	12.4941	-12.9169	-2.4433	0.1844	-0.7143	0.1257	0.6633
6.61	-9.6234	-0.7613	-0.6639	-0.0709	0.0076	-0.0695	12.4055	-13.0427	-2.1539	0.1842	-0.7145	0.1254	0.6634
6.62	-9.6358	-0.7907	-0.6723	-0.0694	0.0131	-0.0677	12.6584	-12.8765	-2.2595	0.1840	-0.7145	0.1250	0.6633
6.63	-9.6409	-0.8179	-0.6808	-0.0701	0.0158	-0.0655	12.4915	-13.0247	-2.3373	0.1839	-0.7147	0.1247	0.6633
6.64	-9.6349	-0.8401	-0.6871	-0.0608	0.0163	-0.0568	12.3464	-13.0143	-2.1807	0.1836	-0.7147	0.1244	0.6632
6.65	-9.6628	-0.8622	-0.6985	-0.0579	0.0202	-0.0491	12.4557	-13.0373	-2.2459	0.1834	-0.7149	0.1243	0.6633
6.66	-9.6814	-0.8722	-0.7043	-0.0507	0.0178	-0.0458	12.6574	-12.9744	-2.4731	0.1832	-0.7150	0.1241	0.6632
6.67	-9.7088	-0.8712	-0.7000	-0.0330	0.0108	-0.0443	12.4497	-12.9072	-2.2558	0.1830	-0.7151	0.1240	0.6632
6.68	-9.7380	-0.8577	-0.7100	-0.0330	0.0080	-0.0344	12.4741	-12.9585	-2.4511	0.1828	-0.7152	0.1239	0.6632
6.69	-9.7496	-0.8286	-0.7073	-0.0273	-0.0101	-0.0319	12.6225	-13.0322	-2.4367	0.1826	-0.7151	0.1239	0.6632
6.7	-9.7269	-0.7991	-0.7138	-0.0169	-0.0164	-0.0139	12.3603	-13.0220	-2.1914	0.1824	-0.7151	0.1239	0.6634
6.71	-9.6896	-0.7651	-0.7114	-0.0052	-0.0232	-0.0066	12.9772	-13.0156	-2.2047	0.1822	-0.7150	0.1241	0.6634
6.72	-9.6799	-0.7435	-0.7061	-0.0122	-0.0280	-0.0092	12.9324	-12.9194	-2.2230	0.1822	-0.7149	0.1244	0.6635
6.73	-9.6648	-0.7311	-0.6978	-0.0139	-0.0317	-0.0089	12.6274	-12.9720	-2.2283	0.1820	-0.7148	0.1244	0.6637
6.74	-9.6659	-0.7108	-0.6905	-0.0202	-0.0282	-0.0126	12.4159	-12.9795	-2.3311	0.1818	-0.7147	0.1244	0.6638
6.75	-9.6582	-0.7023	-0.6821	-0.0296	-0.0324	-0.0181	12.2746	-12.8961	-2.5578	0.1816	-0.7146	0.1244	0.6639
6.76	-9.6592	-0.7065	-0.6769	-0.0280	-0.0368	-0.0308	12.4165	-13.0388	-2.3843	0.1814	-0.7145	0.1244	0.6641
6.77	-9.6557	-0.7074	-0.6809	-0.0257	-0.0289	-0.0332	12.2223	-13.0004	-2.2666	0.1813	-0.7145	0.1243	0.6643
6.78	-9.6447	-0.7036	-0.6657	-0.0193	-0.0252	-0.0411	12.1362	-12.9438	-2.2358	0.1811	-0.7144	0.1242	0.6643
6.79	-9.6381	-0.7085	-0.6580	-0.0232	-0.0293	-0.0474	12.1202	-13.1749	-2.3523	0.1810	-0.7144	0.1241	0.6645
6.8	-9.6306	-0.7035	-0.6421	-0.0170	-0.0269	-0.0512	12.2765	-12.9890	-2.3497	0.1809	-0.7143	0.1240	0.6646
6.81	-9.6140	-0.7000	-0.6351	-0.0227	-0.0251	-0.0636	12.1150	-12.9335	-2.5524	0.1809	-0.7143	0.1239	0.6647
6.82	-9.5919	-0.6996	-0.6259	-0.0244	-0.0195	-0.0626	12.1417	-13.0987	-2.4140	0.1809	-0.7142	0.1237	0.6647
6.83	-9.6118	-0.6977	-0.6175	-0.0302	-0.0203	-0.0668	12.3305	-13.0962	-2.4409	0.1809	-0.7142	0.1235	0.6648
6.84	-9.6348	-0.6983	-0.6077	-0.0296	-0.0175	-0.0731	12.1296	-12.9267	-2.4103	0.1808	-0.7142	0.1233	0.6649
6.85	-9.6147	-0.6967	-0.5970	-0.0297	-0.0118	-0.0697	12.1189	-12.9800	-2.5321	0.1808	-0.7141	0.1230	0.6649
6.86	-9.6046	-0.6993	-0.5971	-0.0307	-0.0170	-0.0624	12.1443	-12.9723	-2.4189	0.1808	-0.7142	0.1228	0.6651
6.87	-9.6207	-0.7033	-0.5955	-0.0317	-0.0107	-0.0643	12.3786	-13.3575	-2.2879	0.1807	-0.7141	0.1226	0.6651
6.88	-9.6143	-0.7106	-0.5996	-0.0403	-0.0080	-0.0693	12.4192	-13.2484	-2.4130	0.1806	-0.7142	0.1224	0.6652
6.89	-9.5933	-0.7202	-0.6000	-0.0527	0.0003	-0.0692	12.2775	-13.1341	-2.4447	0.1805	-0.7141	0.1221	0.6651
6.9	-9.6125	-0.7397	-0.5978	-0.0569	-0.0012	-0.0714	12.4597	-13.1439	-2.2861	0.1804	-0.7142	0.1218	0.6652
6.91	-9.6486	-0.7708	-0.6042	-0.0549	0.0024	-0.0744	12.4429	-13.1350	-2.4253	0.1803	-0.7143	0.1215	0.6652
6.92	-9.6500	-0.7991	-0.6042	-0.0553	0.0012	-0.0682	12.3723	-13.1613	-2.6561	0.1801	-0.7144	0.1212	0.6652
6.93	-9.6593	-0.8134	-0.6024	-0.0580	0.0069	-0.0699	12.4074	-13.0235	-2.4795	0.1799	-0.7145	0.1209	0.6652
6.94	-9.6967	-0.8318	-0.6013	-0.0500	0.0020	-0.0644	12.2583	-13.2324	-2.4329	0.1798	-0.7146	0.1207	0.6652
6.95	-9.6709	-0.8555	-0.6094	-0.0331	-0.0091	-0.0579	12.3611	-13.1435	-2.3695	0.1796	-0.7146	0.1205	0.6653
6.96	-9.6121	-0.8670	-0.6174	-0.0320	-0.0006	-0.0542	12.1052	-12.8412	-2.3080	0.1795	-0.7146	0.1204	0.6652
6.97	-9.5912	-0.8769	-0.6203	-0.0282	0.0012	-0.0482	12.1504	-12.9022	-2.6012	0.1794	-0.7147	0.1203	0.6653
6.98	-9.5961	-0.8779	-0.6254	-0.0149	-0.0040	-0.0483	12.2468	-13.0206	-2.2748	0.1794	-0.7147	0.1202	0.6653
6.99	-9.6164	-0.8704	-0.6311	-0.0041	0.0048	-0.0404	12.1567	-13.0897	-2.5264	0.1793	-0.7147	0.1202	0.6653
7	-9.6317	-0.8533	-0.6281	-0.0002	0.0116	-0.0325	11.9923	-12.9361	-2.5885	0.1792	-0.7147	0.1202	0.6653
7.01	-9.6462	-0.8347	-0.6292	0.0127	0.0141	-0.0363	12.2398	-13.0105	-2.4555	0.1791	-0.7148	0.1203	0.6652
7.02	-9.6526	-0.8179	-0.6346	0.0178	0.0111	-0.0398	12.2837	-13.0679	-2.6795	0.1791	-0.7148	0.1204	0.6652
7.03	-9.6574	-0.7990	-0.6363	0.0158	0.0139	-0.0429	12.1076	-13.0633	-2.5219	0.1791	-0.7148	0.1205	0.6651
7.04	-9.6656	-0.7813	-0.6397	0.0252	0.0085	-0.0428	12.2205	-12.9364	-2.4854	0.1791	-0.7149	0.1206	0.6651
7.05	-9.6609	-0.7495	-0.6317	0.0360	0.0064	-0.0376	12.4186	-13.0206	-2.4805	0.1792	-0.7149	0.1208	0.6650
7.06	-9.6560	-0.7231	-0.6367	0.0329	0.0020	-0.0352	12.5024	-13.0559	-2.4605	0.1792	-0.7149	0.1209	0.6650
7.07	-9.6571	-0.7058	-0.6352	0.0240	0.0077	-0.0384	12.4937	-13.1391	-2.4261	0.1792	-0.7148	0.1210	0.6649
7.08	-9.6520	-0.6821	-0.6363	0.0183	0.0032	-0.0405	12.4386	-13.2573	-2.5057	0.1792	-0.7149	0.1211	0.6649
7.09	-9.6401	-0.6634	-0.6373	0.0189	0.0054	-0.0436	12.6210	-13.0231	-2.4340	0.1792	-0.7149	0.1212	0.6649
7.1	-9.6415	-0.6542	-0.6385	0.0074	0.0033	-0.0463	12.6136	-13.1569	-2.6404	0.1792	-0.7149	0.1213	0.6648
7.11	-9.6475	-0.6586	-0.6415	-0.0062	0.0021	-0.0452	12.3625	-13.0267	-2.5086	0.1792	-0.7150	0.1213	0.6649
7.12	-9.6579	-0.6585	-0.6402	-0.0077	0.0114	-0.0444	12.5209	-13.1003	-2.6390	0.1791	-0.7150	0.1212	0.6648
7.13	-9.7045	-0.6708	-0.6462	-0.0156	0.0019	-0.0475	12.2262	-13.1574	-2.3825	0.1790	-0.7151	0.1212	0.6648
7.14	-9.6971	-0.6888	-0.6577	-0.0280	0.0002	-0.0524	12.1857	-13.1470	-2.5479	0.1788	-0.7150	0.1211	0.6648
7.15	-9.6207	-0.6833	-0.6538	-0.0314	-0.0023	-0.0473	12.3854	-13.0136	-2.6068	0.1787	-0.7152	0.1210	0.6648
7.16	-9.7044	-0.6878	-0.6444	-0.0308	0.0029	-0.0541	12.3195	-12.7920	-2.3044	0.1786	-0.7152	0.1209	0.6648
7.17	-9.7672	-0.7125	-0.6534	-0.0344	-0.0094	-0.0598	12.0938	-13.0789	-2.4444	0.1784	-0.7152	0.1207	0.6648
7.18	-9.6812	-0.7123	-0.6484	-0.0375	-0.0167	-0.0582	12.2288	-12.9425	-2.3265	0.1783	-0.7152	0.1205	0.6649
7.19	-9.6657	-0.7255	-0.6377	-0.0537	-0.0266	-0.0606	12.3734	-12.8700	-2.2139	0.1781	-0.7152	0.1203	0.6650
7.2	-9.6972	-0.7660	-0.6358	-0.0503	-0.0221	-0.0572	12.3729	-13.0531	-2.3137	0.1780	-0.7152	0.1201	0.6651
7.21	-9.6871	-0.7777	-0.6320	-0.0425	-0.0262	-0.0527	12.5700	-12.6751	-2.3684	0.1778	-0.7151	0.1199	0.6652
7.22	-9.6564	-0.7722	-0.6200	-0.0445	-0.0325	-0.0487	12.7966	-12.5049	-2.3164	0.1778	-0.7151	0.1199	0.6653
7.23	-9.6389	-0.7800	-0.6162	-0.0416	-0.0326	-0.0385	12.4799	-13.0421	-2.4226	0.1776	-0.7150	0.1198	0.6654
7.24	-9.6358	-0.7847	-0.6063	-0.0312	-0.0362	-0.0422	12.4872	-12.7961	-2.3175	0.1775	-0.7150	0.1197	0.6656
7.25	-9.6229	-0.7874	-0.5937	-0.0310	-0.0312	-0.0525	12.2619	-13.0746	-2.5239	0.1773	-0.7149	0.1195	0.6657
7.26	-9.6194	-0.8002	-0.5886	-0.0299	-0.0276	-0.0566	12.4469	-13.0409	-2.6963	0.1773	-0.7149	0.1194	0.6658
7.27	-9.6118	-0.8060	-0.5797	-0.0256	-0.0220	-0.0581	12.5432	-12.8183	-2.5135	0.1772	-0.7148	0.1192	0.6659
7.28	-9.6043	-0.8025	-0.5680	-0.0167	-0.0216	-0.0512	12.5396	-13.0389	-2.7183	0.1772	-0.7147	0.1190	0.6660
7.29	-9.6010	-0.8010	-0.5744	-0.0068	-0.0090	-0.0475	12.4861	-12.9329	-2.5241	0.1772	-0.7147	0.1190	0.6661
7.3	-9.6042	-0.7939	-0.5677	-0.0034	-0.0122	-0.0458	12.4759	-12.9459	-2.6702	0.1771	-0.7146	0.1189	0.6661
7.31	-9.6133	-0.7850	-0.5687	-0.0029	-0.0084	-0.0424	12.2616	-12.9887	-2.6050	0.1771	-0.7147	0.1189	0.6663
7.32	-9.6091	-0.7791	-0.5623	-0.0001	-0.0057	-0.0459	12.3683	-13.0988	-2.5716	0.1771	-0.7145	0.1188	0.6662
7.33	-9.6086	-0.7747	-0.5692	0.0022	-0.0049	-0.0422	12.5166	-12.9146	-2.6965	0.1771	-0.7145	0.1188	0.6663
7.34	-9.6133	-0.7665	-0.5716	0.0080	-0.0020	-0.0438	12.0995	-12.7837	-2.5086	0.1771	-0.7145	0.1188	0.6663
7.35	-9.6181	-0.7606	-0.5726	0.0074	-0.0056	-0.0462	12.2770	-12.8184	-2.7537	0.1771	-0.7144	0.1188	0.6663
7.36	-9.6262	-0.7579	-0.5743	0.0137	-0.0060	-0.0424	12.2648	-12.9197	-2.2885	0.1772	-0.7145	0.1189	0.6664
7.37	-9.6327	-0.7493	-0.5828	0.0135	0.0027	-0.0358	12.3736	-13.0081	-2.4123	0.1771	-0.7144	0.1190	0.6663
7.38	-9.6271	-0.7441	-0.5820	0.0096	0.0092	-0.0379	12.3418	-12.9851	-2.7232	0.1771	-0.7145	0.1190	0.6664
7.39	-9.6283	-0.7315	-0.5845	0.0166	0.0027	-0.0366	12.3431	-12.9955	-2.5756	0.1770	-0.7144	0.1191	0.6662
7.4	-9.6512	-0.7244	-0.5873	0.0204	0.0180	-0.0387	12.3709	-12.7705	-2.5630	0.1770	-0.7146	0.1193	0.6662
7.41	-9.6477	-0.7095	-0.5850	0.0211	0.0134	-0.0334	12.4655	-13.0136	-2.4933	0.1770	-0.7146	0.1194	0.6662
7.42	-9.6396	-0.6913	-0.5876	0.0188	0.0108	-0.0371	12.4140	-12.9050	-2.7049	0.1770	-0.7146	0.1195	0.6661
7.43	-9.6493	-0.6805	-0.5963	0.0142	0.0101	-0.0349	12.5517	-12.8935	-2.6625	0.1770	-0.7147	0.1196	0.6661
7.44	-9.6593	-0.6674	-0.5960	0.0170	0.0126	-0.0363	12.5043	-13.1762	-2.5395	0.1769	-0.7147	0.1197	0.6660
7.45	-9.6612	-0.6521	-0.5968	0.0115	0.0141	-0.0404	12.3497	-13.1030	-2.4220	0.1769	-0.7147	0.1198	0.6660
7.46	-9.6676	-0.6468	-0.6004	0.0060	0.0129	-0.0351	12.3514	-13.0554	-2.2918	0.1768	-0.7147	0.1199	0.6659
7.47	-9.6774	-0.6463	-0.6127	-0.0013	0.0088	-0.0450	12.3368	-13.0970	-2.4222	0.1768	-0.7148	0.1199	0.6659
7.48	-9.6832	-0.6454	-0.6159	-0.0057	0.0092	-0.0421	12.3763	-13.0381	-2.3786	0.1767	-0.7148	0.1199	0.6659
7.49	-9.6936	-0.6504	-0.6215	-0.0176	0.0068	-0.0399	12.2526	-12.9060	-2.4241	0.1766	-0.7149	0.1199	0.6659
7.5	-9.6973	-0.6574	-0.6197	-0.0269	-0.0040	-0.0385	12.3652	-12.8819	-2.3642	0.1764	-0.7149	0.1198	0.6659
7.51	-9.6917	-0.6603	-0.6162	-0.0237	-0.0083	-0.0407	12.3224	-13.0669	-2.4725	0.1762	-0.7149	0.1198	0.6659
7.52	-9.6723	-0.6680	-0.6174	-0.0293	-0.0074	-0.0391	12.4247	-13.2053	-2.5992	0.1761	-0.7150	0.1197	0.6660
7.53	-9.6603	-0.6774	-0.6148	-0.0301	-0.0068	-0.0478	12.3732	-12.7516	-2.2608	0.1759	-0.7149	0.1196	0.6660
7.54	-9.6591	-0.6810	-0.6174	-0.0313	-0.0055	-0.0512	12.2303	-12.9732	-2.4538	0.1758	-0.7150	0.1195	0.6661
7.55	-9.6322	-0.6911	-0.6131	-0.0311	-0.0086	-0.0504	12.2748	-13.0851	-2.3257	0.1756	-0.7150	0.1194	0.6661
7.56	-9.6107	-0.6935	-0.6045	-0.0310	-0.0045	-0.0570	12.2482	-13.1401	-2.3351	0.1756	-0.7150	0.1192	0.6662
7.57	-9.6199	-0.6966	-0.6064	-0.0298	-0.0072	-0.0592	12.2670	-13.1836	-2.6233	0.1755	-0.7149	0.1190	0.6662
7.58	-9.6432	-0.7030	-0.6057	-0.0242	-0.0053	-0.0626	12.2467	-12.9227	-2.4283	0.1754	-0.7150	0.1189	0.6662
7.59	-9.6357	-0.7054	-0.5991	-0.0275	-0.0067	-0.0608	12.2976	-12.8807	-2.7889	0.1753	-0.7150	0.1187	0.6663
7.6	-9.6357	-0.7064	-0.6056	-0.0277	0.0064	-0.0588	12.4539	-12.9940	-2.6069	0.1752	-0.7151	0.1186	0.6662
7.61	-9.6416	-0.7011	-0.6070	-0.0251	0.0053	-0.0585	12.4236	-12.9719	-2.3740	0.1751	-0.7152	0.1185	0.6663
7.62	-9.6410	-0.6956	-0.6100	-0.0248	0.0070	-0.0626	12.4627	-13.1728	-2.3695	0.1750	-0.7152	0.1184	0.6662
7.63	-9.6318	-0.6911	-0.6103	-0.0312	0.0065	-0.0615	12.3628	-13.0659	-2.2680	0.1749	-0.7153	0.1182	0.6662
7.64	-9.6170	-0.6962	-0.6127	-0.0287	0.0089	-0.0668	12.3316	-13.2448	-2.3926	0.1748	-0.7153	0.1180	0.6661
7.65	-9.6457	-0.7065	-0.6177	-0.0332	0.0174	-0.0674	12.5787	-13.5863	-2.5277	0.1748	-0.7155	0.1179	0.6661
7.66	-9.6666	-0.7311	-0.6169	-0.0333	0.0120	-0.0700	12.6429	-13.0983	-2.3722	0.1746	-0.7155	0.1177	0.6661
7.67	-9.6670	-0.7381	-0.6131	-0.0331	0.0090	-0.0729	12.5351	-12.7828	-2.2626	0.1746	-0.7156	0.1175	0.6660
7.68	-9.6980	-0.7508	-0.6160	-0.0407	0.0059	-0.0645	12.4440	-12.8373	-2.5276	0.1744	-0.7157	0.1173	0.6660
7.69	-9.6878	-0.7701	-0.6233	-0.0347	-0.0066	-0.0655	12.2622	-13.0257	-2.4956	0.1743	-0.7157	0.1172	0.6660
7.7	-9.6359	-0.7870	-0.6240	-0.0380	-0.0116	-0.0685	12.3741	-12.7745	-2.6588	0.1742	-0.7158	0.1170	0.6661
7.71	-9.6057	-0.8023	-0.6278	-0.0368	0.0051	-0.0609	12.9402	-12.9173	-2.3671	0.1743	-0.7157	0.1170	0.6660
7.72	-9.6147	-0.8167	-0.6308	-0.0330	-0.0018	-0.0527	12.9653	-12.8703	-2.4218	0.1745	-0.7158	0.1171	0.6660
7.73	-9.6375	-0.8175	-0.6375	-0.0301	0.0006	-0.0493	12.6748	-12.9105	-2.2562	0.1745	-0.7157	0.1172	0.6660
7.74	-9.6491	-0.8144	-0.6427	-0.0328	0.0072	-0.0467	12.3190	-12.9788	-2.3447	0.1743	-0.7158	0.1171	0.6660
7.75	-9.6584	-0.8014	-0.6407	-0.0215	0.0043	-0.0386	12.1698	-12.8247	-2.4751	0.1742	-0.7158	0.1171	0.6660
7.76	-9.6581	-0.7889	-0.6411	-0.0117	0.0142	-0.0496	12.2484	-13.1027	-2.2825	0.1741	-0.7159	0.1170	0.6659
7.77	-9.6708	-0.7892	-0.6463	-0.0096	0.0118	-0.0545	12.3770	-13.1985	-2.4273	0.1740	-0.7160	0.1170	0.6659
7.78	-9.6703	-0.7803	-0.6571	-0.0052	0.0103	-0.0571	12.4151	-13.0961	-2.4354	0.1740	-0.7160	0.1169	0.6658
7.79	-9.6418	-0.7679	-0.6517	-0.0055	-0.0039	-0.0513	12.2707	-12.9486	-2.3397	0.1739	-0.7161	0.1169	0.6659
7.8	-9.6383	-0.7507	-0.6453	-0.0048	-0.0019	-0.0496	12.3648	-12.9281	-2.4900	0.1739	-0.7160	0.1169	0.6659
7.81	-9.6485	-0.7359	-0.6508	-0.0050	0.0008	-0.0501	12.6695	-13.0614	-2.6194	0.1738	-0.7161	0.1169	0.6659
7.82	-9.6328	-0.7210	-0.6458	-0.0044	-0.0055	-0.0476	12.6617	-13.2768	-2.5289	0.1737	-0.7160	0.1169	0.6659
7.83	-9.6185	-0.7044	-0.6450	-0.0072	-0.0039	-0.0528	12.5439	-13.2324	-2.3806	0.1737	-0.7161	0.1168	0.6659
7.84	-9.6243	-0.7007	-0.6549	-0.0128	0.0088	-0.0523	12.6003	-13.1376	-2.3120	0.1737	-0.7161	0.1168	0.6659
7.85	-9.6262	-0.6992	-0.6555	-0.0187	0.0030	-0.0446	12.4911	-13.1977	-2.4345	0.1735	-0.7161	0.1167	0.6659
7.86	-9.6285	-0.7017	-0.6612	-0.0300	0.0020	-0.0440	12.3789	-13.0466	-2.3377	0.1734	-0.7162	0.1167	0.6660
7.87	-9.6600	-0.7162	-0.6629	-0.0297	0.0072	-0.0483	12.4060	-12.9890	-2.3381	0.1732	-0.7162	0.1166	0.6659
7.88	-9.6544	-0.7322	-0.6717	-0.0318	0.0063	-0.0502	12.3843	-13.2030	-2.3595	0.1731	-0.7163	0.1165	0.6659
7.89	-9.5852	-0.7381	-0.6715	-0.0331	0.0025	-0.0498	12.4204	-13.0578	-2.2392	0.1729	-0.7162	0.1163	0.6659
7.9	-9.6435	-0.7468	-0.6797	-0.0373	0.0228	-0.0487	12.1288	-13.0039	-2.2653	0.1728	-0.7164	0.1162	0.6659
7.91	-9.7452	-0.7703	-0.6877	-0.0424	0.0124	-0.0578	12.1988	-12.9403	-2.4104	0.1726	-0.7165	0.1160	0.6659
7.92	-9.6923	-0.7832	-0.6904	-0.0364	0.0008	-0.0519	12.4588	-12.9008	-2.5206	0.1724	-0.7165	0.1159	0.6659
7.93	-9.6379	-0.7848	-0.6893	-0.0333	0.0018	-0.0538	12.1535	-12.8962	-2.5521	0.1723	-0.7166	0.1158	0.6659
7.94	-9.6765	-0.8126	-0.6920	-0.0320	0.0030	-0.0485	12.2970	-12.9496	-2.3594	0.1721	-0.7166	0.1157	0.6659
7.95	-9.6944	-0.8320	-0.6960	-0.0299	0.0009	-0.0490	12.4555	-12.9992	-2.3650	0.1720	-0.7167	0.1156	0.6659
7.96	-9.6698	-0.8168	-0.6952	-0.0150	-0.0070	-0.0439	12.2718	-13.0057	-2.2344	0.1719	-0.7166	0.1155	0.6659
7.97	-9.6745	-0.8114	-0.6904	-0.0146	-0.0098	-0.0410	12.3427	-13.0567	-2.2850	0.1718	-0.7167	0.1155	0.6660
7.98	-9.6888	-0.8007	-0.6902	-0.0063	-0.0152	-0.0391	12.2393	-13.0232	-2.1662	0.1717	-0.7166	0.1155	0.6661
7.99	-9.6747	-0.7805	-0.6814	-0.0031	-0.0117	-0.0403	12.2238	-13.0983	-2.2765	0.1716	-0.7166	0.1155	0.6662
8	-9.6752	-0.7821	-0.6762	0.0007	-0.0195	-0.0475	12.1801	-13.0885	-2.5786	0.1715	-0.7165	0.1155	0.6662
8.01	-9.6727	-0.7819	-0.6746	0.0058	-0.0140	-0.0450	12.5494	-13.2962	-2.3613	0.1715	-0.7165	0.1155	0.6663
8.02	-9.6497	-0.7707	-0.6678	0.0081	-0.0178	-0.0439	12.4614	-13.2409	-2.3138	0.1715	-0.7164	0.1155	0.6663
8.03	-9.6442	-0.7548	-0.6537	0.0116	-0.0240	-0.0437	12.3694	-12.8821	-2.4464	0.1715	-0.7163	0.1156	0.6664
8.04	-9.6484	-0.7396	-0.6480	0.0133	-0.0168	-0.0438	12.4925	-12.9419	-2.4244	0.1715	-0.7163	0.1156	0.6665
8.05	-9.6538	-0.7240	-0.6342	0.0142	-0.0268	-0.0395	12.3893	-13.2623	-2.4706	0.1715	-0.7162	0.1157	0.6666
8.06	-9.6504	-0.7109	-0.6285	0.0090	-0.0189	-0.0385	12.5534	-13.0564	-2.5608	0.1715	-0.7161	0.1158	0.6667
8.07	-9.6313	-0.7030	-0.6285	0.0069	-0.0205	-0.0397	12.2723	-13.1797	-2.4207	0.1714	-0.7160	0.1158	0.6667
8.08	-9.6176	-0.6963	-0.6201	-0.0044	-0.0177	-0.0431	12.1948	-13.0614	-2.3086	0.1714	-0.7159	0.1157	0.6668
8.09	-9.6035	-0.6953	-0.6180	-0.0046	-0.0118	-0.0402	12.2716	-12.9005	-2.2190	0.1714	-0.7159	0.1157	0.6669
8.1	-9.5998	-0.6979	-0.6120	-0.0033	-0.0113	-0.0469	12.3446	-12.9835	-2.3481	0.1714	-0.7158	0.1156	0.6669
8.11	-9.6205	-0.7028	-0.6189	-0.0076	-0.0050	-0.0456	12.0761	-13.0911	-2.3463	0.1714	-0.7159	0.1156	0.6671
8.12	-9.6126	-0.7087	-0.6143	-0.0125	-0.0086	-0.0458	12.1820	-12.9696	-2.3428	0.1713	-0.7158	0.1155	0.6671
8.13	-9.6134	-0.7148	-0.6153	-0.0079	-0.0046	-0.0534	12.2351	-12.9934	-2.3510	0.1713	-0.7158	0.1154	0.6671
8.14	-9.6295	-0.7212	-0.6238	-0.0111	-0.0046	-0.0462	12.2025	-13.0883	-2.3350	0.1712	-0.7157	0.1154	0.6671
8.15	-9.6357	-0.7168	-0.6236	-0.0076	0.0046	-0.0407	12.2359	-12.9589	-2.3601	0.1711	-0.7158	0.1154	0.6671
8.16	-9.6482	-0.7162	-0.6276	-0.0057	0.0062	-0.0433	12.3547	-12.7204	-2.3250	0.1710	-0.7158	0.1154	0.6671
8.17	-9.6563	-0.7152	-0.6294	-0.0085	0.0056	-0.0416	12.2058	-13.0653	-2.4290	0.1709	-0.7158	0.1154	0.6671
8.18	-9.6612	-0.7113	-0.6308	-0.0150	-0.0006	-0.0416	12.2275	-13.2898	-2.5306	0.1708	-0.7159	0.1154	0.6671
8.19	-9.6725	-0.7154	-0.6338	-0.0074	-0.0027	-0.0430	12.3250	-13.1112	-2.2600	0.1707	-0.7158	0.1154	0.6671
8.2	-9.6650	-0.7073	-0.6300	-0.0102	0.0012	-0.0460	12.5498	-13.0507	-2.2410	0.1707	-0.7159	0.1154	0.6672
8.21	-9.6853	-0.7117	-0.6343	-0.0128	-0.0011	-0.0493	12.9775	-13.1749	-2.2562	0.1706	-0.7158	0.1153	0.6671
8.22	-9.6988	-0.7176	-0.6331	-0.0176	-0.0089	-0.0466	12.9007	-13.2557	-2.3256	0.1705	-0.7159	0.1153	0.6672
8.23	-9.7090	-0.7180	-0.6403	-0.0101	-0.0106	-0.0432	12.5202	-13.0584	-2.2555	0.1704	-0.7158	0.1152	0.6673
8.24	-9.7110	-0.7221	-0.6539	-0.0115	-0.0138	-0.0447	12.2977	-12.8937	-2.3735	0.1703	-0.7158	0.1152	0.6673
8.25	-9.6972	-0.7147	-0.6485	-0.0082	-0.0179	-0.0473	12.2644	-13.0745	-2.2906	0.1702	-0.7158	0.1151	0.6674
8.26	-9.7033	-0.7203	-0.6447	-0.0075	-0.0258	-0.0414	12.1408	-13.2290	-2.3337	0.1701	-0.7157	0.1151	0.6675
8.27	-9.6857	-0.7223	-0.6518	-0.0096	-0.0273	-0.0446	12.5092	-13.1436	-2.4728	0.1701	-0.7156	0.1151	0.6676
8.28	-9.6567	-0.7152	-0.6421	-0.0045	-0.0314	-0.0498	12.5088	-12.9224	-2.5177	0.1700	-0.7155	0.1150	0.6677
8.29	-9.6541	-0.7144	-0.6357	-0.0142	-0.0285	-0.0481	12.1106	-12.9189	-2.4721	0.1700	-0.7155	0.1150	0.6679
8.3	-9.6517	-0.7108	-0.6295	-0.0107	-0.0261	-0.0489	12.2600	-12.9345	-2.3957	0.1699	-0.7154	0.1149	0.6679
8.31	-9.6451	-0.7050	-0.6160	-0.0187	-0.0309	-0.0579	12.3026	-12.9056	-2.3934	0.1699	-0.7154	0.1148	0.6681
8.32	-9.6261	-0.7120	-0.6161	-0.0130	-0.0305	-0.0541	12.1734	-13.0321	-2.5195	0.1698	-0.7152	0.1147	0.6681
8.33	-9.6208	-0.7143	-0.6016	-0.0102	-0.0314	-0.0513	12.2115	-12.8748	-2.3392	0.1698	-0.7151	0.1146	0.6683
8.34	-9.6392	-0.7149	-0.5872	-0.0199	-0.0257	-0.0446	12.3255	-13.0094	-2.3553	0.1697	-0.7151	0.1145	0.6684
8.35	-9.6444	-0.7210	-0.5827	-0.0252	-0.0275	-0.0528	12.1780	-12.9383	-2.4332	0.1696	-0.7150	0.1144	0.6685
8.36	-9.6250	-0.7226	-0.5730	-0.0254	-0.0351	-0.0462	12.1990	-12.9177	-2.3882	0.1695	-0.7150	0.1143	0.6687
8.37	-9.6152	-0.7218	-0.5706	-0.0260	-0.0266	-0.0438	12.4713	-12.9228	-2.4325	0.1694	-0.7148	0.1142	0.6688
8.38	-9.6082	-0.7172	-0.5652	-0.0216	-0.0202	-0.0399	12.6507	-12.9540	-2.5665	0.1693	-0.7148	0.1141	0.6690
8.39	-9.5931	-0.7138	-0.5628	-0.0240	-0.0201	-0.0534	12.5561	-13.2082	-2.2419	0.1692	-0.7146	0.1139	0.6690
8.4	-9.5938	-0.7242	-0.5641	-0.0301	-0.0111	-0.0464	12.2980	-13.2880	-2.5108	0.1691	-0.7147	0.1138	0.6691
8.41	-9.5898	-0.7305	-0.5602	-0.0275	-0.0134	-0.0497	12.4620	-12.9075	-2.5295	0.1690	-0.7146	0.1136	0.6692
8.42	-9.6094	-0.7410	-0.5631	-0.0218	-0.0008	-0.0564	12.3934	-12.7709	-2.2734	0.1690	-0.7146	0.1135	0.6692
8.43	-9.6468	-0.7471	-0.5647	-0.0246	0.0016	-0.0495	12.2559	-13.0807	-2.4212	0.1689	-0.7147	0.1134	0.6693
8.44	-9.6849	-0.7523	-0.5671	-0.0119	0.0008	-0.0501	12.5575	-13.0653	-2.4163	0.1688	-0.7147	0.1133	0.6692
8.45	-9.7025	-0.7610	-0.5742	-0.0219	-0.0000	-0.0434	12.2911	-13.2022	-2.3199	0.1687	-0.7147	0.1133	0.6693
8.46	-9.6529	-0.7632	-0.5690	-0.0192	-0.0048	-0.0482	12.2814	-13.0220	-2.3868	0.1686	-0.7146	0.1132	0.6692
8.47	-9.6172	-0.7595	-0.5708	-0.0097	-0.0036	-0.0422	12.2638	-12.7955	-2.5285	0.1685	-0.7147	0.1132	0.6693
8.48	-9.6056	-0.7668	-0.5704	-0.0067	-0.0137	-0.0376	12.3342	-13.0151	-2.3311	0.1684	-0.7146	0.1131	0.6694
8.49	-9.6160	-0.7594	-0.5770	-0.0052	-0.0015	-0.0339	12.3772	-13.0090	-2.5251	0.1684	-0.7146	0.1131	0.6695
8.5	-9.6280	-0.7416	-0.5809	-0.0012	-0.0031	-0.0323	12.3791	-13.0116	-2.4609	0.1683	-0.7146	0.1132	0.6695
8.51	-9.6251	-0.7279	-0.5823	-0.0032	0.0082	-0.0341	12.3306	-13.0168	-2.4331	0.1682	-0.7146	0.1132	0.6695
8.52	-9.6423	-0.7134	-0.5794	-0.0003	0.0112	-0.0396	12.2952	-12.9882	-2.4850	0.1681	-0.7147	0.1133	0.6695
8.53	-9.6497	-0.7107	-0.5827	-0.0013	0.0102	-0.0454	12.4939	-12.7278	-2.2752	0.1680	-0.7147	0.1133	0.6694
8.54	-9.6503	-0.7056	-0.5861	0.0036	0.0117	-0.0427	12.4368	-12.8527	-2.4537	0.1680	-0.7148	0.1133	0.6694
8.55	-9.6521	-0.6929	-0.5885	0.0060	0.0041	-0.0425	12.3359	-13.1283	-2.3551	0.1680	-0.7148	0.1134	0.6694
8.56	-9.6439	-0.6824	-0.5898	-0.0034	0.0044	-0.0439	12.4456	-13.0013	-2.5050	0.1679	-0.7148	0.1134	0.6694
8.57	-9.6473	-0.6616	-0.5944	-0.0045	0.0103	-0.0440	12.4715	-13.1139	-2.4705	0.1678	-0.7148	0.1134	0.6693
8.58	-9.6661	-0.6533	-0.5971	-0.0048	0.0148	-0.0480	12.4371	-13.1848	-2.5381	0.1678	-0.7149	0.1134	0.6693
8.59	-9.6628	-0.6469	-0.5942	-0.0074	0.0008	-0.0415	12.3066	-13.0610	-2.3791	0.1677	-0.7149	0.1134	0.6693
8.6	-9.6517	-0.6443	-0.5954	-0.0233	-0.0013	-0.0504	12.2002	-13.1349	-2.5879	0.1676	-0.7149	0.1133	0.6693
8.61	-9.6581	-0.6527	-0.5963	-0.0296	0.0067	-0.0551	12.0720	-12.9756	-2.5669	0.1675	-0.7150	0.1132	0.6693
8.62	-9.6596	-0.6611	-0.5987	-0.0310	0.0017	-0.0551	12.4240	-13.0612	-2.3727	0.1673	-0.7150	0.1130	0.6693
8.63	-9.6734	-0.6785	-0.6043	-0.0300	-0.0001	-0.0611	12.2009	-13.1166	-2.3498	0.1672	-0.7151	0.1129	0.6693
8.64	-9.6720	-0.6949	-0.6143	-0.0337	0.0022	-0.0597	12.2712	-13.0920	-2.2921	0.1671	-0.7151	0.1127	0.6693
8.65	-9.5970	-0.7003	-0.6148	-0.0443	-0.0058	-0.0581	12.3882	-12.9951	-2.4223	0.1670	-0.7151	0.1125	0.6694
8.66	-9.6503	-0.7006	-0.6083	-0.0348	0.0104	-0.0643	12.2020	-12.8470	-2.4404	0.1669	-0.7152	0.1123	0.6694
8.67	-9.7585	-0.7274	-0.6165	-0.0425	0.0095	-0.0709	12.1616	-12.8781	-2.5450	0.1668	-0.7153	0.1121	0.6693
8.68	-9.6993	-0.7367	-0.6157	-0.0529	-0.0039	-0.0644	12.4125	-13.1553	-2.3625	0.1666	-0.7154	0.1119	0.6694
8.69	-9.6572	-0.7324	-0.6109	-0.0381	-0.0057	-0.0657	12.4462	-13.1634	-2.2939	0.1665	-0.7154	0.1117	0.6694
8.7	-9.6764	-0.7606	-0.6174	-0.0411	-0.0075	-0.0642	12.5486	-12.8240	-2.3333	0.1665	-0.7154	0.1116	0.6694
8.71	-9.6977	-0.7795	-0.6104	-0.0339	-0.0070	-0.0588	12.8546	-12.9094	-2.2180	0.1667	-0.7153	0.1118	0.6693
8.72	-9.6775	-0.7748	-0.6125	-0.0292	-0.0086	-0.0578	12.7934	-12.9350	-2.2129	0.1668	-0.7153	0.1119	0.6693
8.73	-9.6490	-0.7714	-0.6005	-0.0310	-0.0232	-0.0433	12.7456	-12.9226	-2.4519	0.1666	-0.7153	0.1118	0.6694
8.74	-9.6466	-0.7705	-0.5984	-0.0305	-0.0213	-0.0428	12.5114	-13.0459	-2.2729	0.1665	-0.7152	0.1117	0.6695
8.75	-9.6477	-0.7742	-0.5890	-0.0306	-0.0133	-0.0562	12.2882	-13.0902	-2.3139	0.1664	-0.7152	0.1115	0.6696
8.76	-9.6366	-0.7897	-0.5914	-0.0313	-0.0194	-0.0573	12.5664	-13.1977	-2.6020	0.1663	-0.7152	0.1114	0.6697
8.77	-9.6371	-0.7954	-0.5859	-0.0246	-0.0177	-0.0581	12.4357	-13.2018	-2.3738	0.1662	-0.7152	0.1112	0.6698
8.78	-9.6374	-0.7911	-0.5868	-0.0147	-0.0173	-0.0564	12.2531	-13.0347	-2.5545	0.1661	-0.7151	0.1111	0.6698
8.79	-9.6293	-0.7836	-0.5884	-0.0102	-0.0137	-0.0452	12.2845	-13.0609	-2.4387	0.1661	-0.7151	0.1111	0.6699
8.8	-9.6278	-0.7761	-0.5807	-0.0118	-0.0129	-0.0431	12.1313	-13.2103	-2.3696	0.1660	-0.7151	0.1111	0.6699
8.81	-9.6480	-0.7658	-0.5870	-0.0039	-0.0108	-0.0428	12.2845	-13.2339	-2.5905	0.1659	-0.7151	0.1111	0.6700
8.82	-9.6540	-0.7624	-0.5832	-0.0080	-0.0105	-0.0418	12.2611	-13.2445	-2.2857	0.1658	-0.7150	0.1110	0.6700
8.83	-9.6467	-0.7614	-0.5853	-0.0022	-0.0032	-0.0338	12.3031	-13.0729	-2.3301	0.1657	-0.7150	0.1111	0.6700
8.84	-9.6397	-0.7523	-0.5818	-0.0036	-0.0124	-0.0395	12.2091	-12.9161	-2.5646	0.1657	-0.7150	0.1111	0.6701
8.85	-9.6452	-0.7471	-0.5808	-0.0051	-0.0084	-0.0382	12.1946	-13.0656	-2.6224	0.1656	-0.7149	0.1111	0.6701
8.86	-9.6423	-0.7445	-0.5848	-0.0039	-0.0098	-0.0352	12.0650	-13.0630	-2.5139	0.1655	-0.7150	0.1111	0.6702
8.87	-9.6466	-0.7357	-0.5805	-0.0008	-0.0084	-0.0346	12.1628	-12.8915	-2.4649	0.1654	-0.7149	0.1111	0.6702
8.88	-9.6535	-0.7304	-0.5843	-0.0008	-0.0119	-0.0370	12.1451	-12.9308	-2.4614	0.1653	-0.7149	0.1112	0.6703
8.89	-9.6453	-0.7185	-0.5860	-0.0034	-0.0171	-0.0344	11.9985	-13.0052	-2.6305	0.1652	-0.7148	0.1112	0.6703
8.9	-9.6432	-0.7048	-0.5825	-0.0012	-0.0064	-0.0328	11.9932	-12.8166	-2.4963	0.1652	-0.7148	0.1112	0.6704
8.91	-9.6416	-0.6967	-0.5797	0.0013	-0.0076	-0.0342	12.0770	-12.8167	-2.5180	0.1651	-0.7148	0.1113	0.6704
8.92	-9.6492	-0.6810	-0.5788	0.0003	-0.0192	-0.0364	12.0836	-13.0151	-2.5400	0.1650	-0.7147	0.1113	0.6705
8.93	-9.6450	-0.6721	-0.5722	-0.0004	-0.0142	-0.0386	12.2277	-13.3811	-2.3651	0.1650	-0.7147	0.1113	0.6706
8.94	-9.6480	-0.6618	-0.5684	-0.0028	-0.0085	-0.0426	12.2318	-13.5055	-2.3590	0.1649	-0.7146	0.1113	0.6706
8.95	-9.6488	-0.6491	-0.5712	-0.0094	-0.0090	-0.0478	12.2318	-13.1055	-2.6226	0.1649	-0.7146	0.1113	0.6707
8.96	-9.6417	-0.6466	-0.5686	-0.0108	-0.0127	-0.0530	12.2817	-13.2477	-2.6011	0.1648	-0.7145	0.1112	0.6706
8.97	-9.6310	-0.6479	-0.5650	-0.0103	-0.0072	-0.0494	12.4024	-13.4149	-2.5736	0.1648	-0.7146	0.1112	0.6707
8.98	-9.6168	-0.6474	-0.5616	-0.0220	-0.0015	-0.0539	12.2680	-13.1243	-2.4989	0.1647	-0.7146	0.1110	0.6708
8.99	-9.6129	-0.6493	-0.5657	-0.0281	0.0041	-0.0549	12.1493	-13.1630	-2.4591	0.1646	-0.7146	0.1109	0.6708
9	-9.6217	-0.6533	-0.5718	-0.0314	0.0084	-0.0541	12.2116	-13.0422	-2.2966	0.1645	-0.7146	0.1107	0.6708
9.01	-9.6343	-0.6620	-0.5716	-0.0307	0.0071	-0.0582	12.0462	-13.0547	-2.3541	0.1644	-0.7147	0.1106	0.6708
9.02	-9.6412	-0.6754	-0.5799	-0.0319	0.0118	-0.0596	12.1748	-13.0681	-2.2738	0.1643	-0.7148	0.1104	0.6707
9.03	-9.6366	-0.6829	-0.5838	-0.0362	0.0080	-0.0586	12.1980	-12.9747	-2.1868	0.1642	-0.7148	0.1103	0.6707
9.04	-9.6345	-0.6895	-0.5872	-0.0398	0.0128	-0.0608	12.1770	-12.8539	-2.5185	0.1640	-0.7150	0.1101	0.6707
9.05	-9.6318	-0.7044	-0.5810	-0.0435	0.0105	-0.0600	12.2099	-13.0582	-2.4408	0.1639	-0.7150	0.1099	0.6706
9.06	-9.6470	-0.7192	-0.5825	-0.0416	0.0098	-0.0633	12.1225	-12.9957	-2.4907	0.1638	-0.7152	0.1097	0.6707
9.07	-9.6631	-0.7299	-0.5848	-0.0400	0.0126	-0.0604	11.9925	-12.9491	-2.5196	0.1636	-0.7152	0.1095	0.6705
9.08	-9.6463	-0.7370	-0.5871	-0.0358	0.0088	-0.0572	12.2538	-12.8714	-2.4197	0.1635	-0.7153	0.1094	0.6706
9.09	-9.6351	-0.7406	-0.5994	-0.0352	0.0158	-0.0601	12.1125	-12.8925	-2.5610	0.1633	-0.7154	0.1092	0.6705
9.1	-9.6387	-0.7379	-0.6019	-0.0352	0.0102	-0.0565	12.0904	-13.1622	-2.4819	0.1632	-0.7154	0.1091	0.6705
9.11	-9.6485	-0.7356	-0.6026	-0.0305	0.0075	-0.0582	12.0996	-13.2141	-2.5327	0.1631	-0.7156	0.1090	0.6705
9.12	-9.6254	-0.7379	-0.6149	-0.0305	0.0146	-0.0598	12.2472	-13.1630	-2.6290	0.1630	-0.7156	0.1088	0.6704
9.13	-9.6456	-0.7392	-0.6202	-0.0313	0.0170	-0.0642	12.5366	-13.2485	-2.5412	0.1629	-0.7158	0.1087	0.6704
9.14	-9.6912	-0.7530	-0.6277	-0.0294	0.0187	-0.0687	12.5521	-13.2997	-2.3899	0.1628	-0.7158	0.1085	0.6703
9.15	-9.7116	-0.7671	-0.6290	-0.0311	0.0176	-0.0630	12.4196	-13.3305	-2.4353	0.1627	-0.7159	0.1084	0.6703
9.16	-9.7278	-0.7655	-0.6247	-0.0286	0.0125	-0.0558	12.1448	-13.1370	-2.5462	0.1626	-0.7160	0.1082	0.6702
9.17	-9.7311	-0.7655	-0.6244	-0.0313	0.0049	-0.0562	12.3464	-13.1669	-2.4680	0.1625	-0.7161	0.1081	0.6702
9.18	-9.7265	-0.7664	-0.6258	-0.0300	-0.0082	-0.0512	12.4770	-13.0204	-2.6622	0.1623	-0.7161	0.1080	0.6702
9.19	-9.6913	-0.7706	-0.6222	-0.0314	-0.0097	-0.0513	12.1800	-12.8513	-2.3793	0.1622	-0.7161	0.1079	0.6703
9.2	-9.6399	-0.7779	-0.6243	-0.0290	-0.0108	-0.0471	12.2426	-13.2980	-2.3809	0.1621	-0.7161	0.1077	0.6704
9.21	-9.6175	-0.7845	-0.6298	-0.0203	-0.0091	-0.0438	12.7655	-12.9582	-2.3630	0.1620	-0.7160	0.1077	0.6703
9.22	-9.6316	-0.7857	-0.6291	-0.0237	-0.0103	-0.0445	12.9065	-12.6367	-2.0836	0.1621	-0.7161	0.1078	0.6704
9.23	-9.6454	-0.7696	-0.6255	-0.0117	-0.0095	-0.0368	12.4545	-12.9724	-2.3939	0.1620	-0.7160	0.1078	0.6704
9.24	-9.6372	-0.7567	-0.6192	-0.0112	-0.0100	-0.0425	12.4119	-12.8961	-2.3753	0.1619	-0.7160	0.1078	0.6705
9.25	-9.6378	-0.7475	-0.6176	-0.0059	-0.0088	-0.0402	12.1445	-12.9760	-2.6276	0.1618	-0.7160	0.1078	0.6705
9.26	-9.6454	-0.7400	-0.6176	-0.0046	0.0008	-0.0541	12.2375	-13.0282	-2.6380	0.1618	-0.7160	0.1077	0.6705
9.27	-9.6417	-0.7328	-0.6199	-0.0056	-0.0045	-0.0534	12.3678	-13.0033	-2.3516	0.1617	-0.7160	0.1077	0.6705
9.28	-9.6279	-0.7224	-0.6229	-0.0048	-0.0005	-0.0549	12.3989	-13.0022	-2.4867	0.1617	-0.7160	0.1076	0.6705
9.29	-9.6312	-0.7054	-0.6209	-0.0062	-0.0006	-0.0468	12.2626	-13.2237	-2.4848	0.1617	-0.7161	0.1076	0.6705
9.3	-9.6393	-0.6916	-0.6196	-0.0031	-0.0035	-0.0457	12.3382	-12.8598	-2.3062	0.1616	-0.7160	0.1076	0.6705
9.31	-9.6334	-0.6835	-0.6234	-0.0058	-0.0118	-0.0445	12.6928	-13.0962	-2.3416	0.1616	-0.7161	0.1076	0.6706
9.32	-9.6419	-0.6682	-0.6193	-0.0103	-0.0084	-0.0479	12.4436	-13.0053	-2.5877	0.1615	-0.7160	0.1075	0.6705
9.33	-9.6470	-0.6723	-0.6237	-0.0218	-0.0003	-0.0459	12.3855	-12.9176	-2.5978	0.1614	-0.7160	0.1075	0.6706
9.34	-9.6388	-0.6807	-0.6298	-0.0345	-0.0008	-0.0518	12.3334	-13.0626	-2.6784	0.1613	-0.7161	0.1073	0.6706
9.35	-9.6443	-0.6882	-0.6288	-0.0290	0.0027	-0.0460	12.2737	-12.9618	-2.3588	0.1611	-0.7161	0.1072	0.6706
9.36	-9.6781	-0.6959	-0.6389	-0.0323	0.0050	-0.0478	12.3020	-13.1591	-2.4107	0.1610	-0.7162	0.1071	0.6707
9.37	-9.6333	-0.7098	-0.6450	-0.0423	-0.0001	-0.0505	12.4375	-13.2931	-2.4953	0.1608	-0.7162	0.1070	0.6706
9.38	-9.5985	-0.7082	-0.6398	-0.0332	-0.0039	-0.0435	12.4855	-13.0347	-2.7030	0.1607	-0.7163	0.1068	0.6707
9.39	-9.7142	-0.7126	-0.6475	-0.0326	0.0116	-0.0518	12.4668	-12.9796	-2.4541	0.1605	-0.7162	0.1067	0.6706
9.4	-9.7540	-0.7326	-0.6554	-0.0360	0.0040	-0.0616	12.4721	-12.9506	-2.5231	0.1604	-0.7164	0.1065	0.6706
9.41	-9.6726	-0.7275	-0.6545	-0.0334	-0.0127	-0.0641	12.3026	-13.1749	-2.7306	0.1603	-0.7164	0.1064	0.6707
9.42	-9.6691	-0.7432	-0.6550	-0.0395	-0.0075	-0.0698	12.2890	-12.9436	-2.5681	0.1602	-0.7164	0.1061	0.6707
9.43	-9.6880	-0.7744	-0.6560	-0.0418	-0.0110	-0.0634	12.3002	-12.7923	-2.4866	0.1601	-0.7164	0.1059	0.6708
9.44	-9.6889	-0.7769	-0.6614	-0.0348	-0.0109	-0.0577	12.2907	-12.9069	-2.3404	0.1600	-0.7164	0.1058	0.6708
9.45	-9.6757	-0.7732	-0.6548	-0.0323	-0.0065	-0.0583	12.3011	-12.8563	-2.4924	0.1599	-0.7165	0.1056	0.6708
9.46	-9.6654	-0.7715	-0.6484	-0.0331	-0.0225	-0.0482	12.2859	-12.8973	-2.3906	0.1597	-0.7164	0.1055	0.6708
9.47	-9.6699	-0.7690	-0.6443	-0.0291	-0.0232	-0.0497	12.3082	-13.1528	-2.4996	0.1596	-0.7164	0.1053	0.6710
9.48	-9.6605	-0.7742	-0.6406	-0.0264	-0.0248	-0.0496	12.0968	-12.8924	-2.4624	0.1595	-0.7163	0.1052	0.6711
9.49	-9.6664	-0.7891	-0.6330	-0.0277	-0.0241	-0.0543	12.2455	-12.7695	-2.5695	0.1594	-0.7163	0.1051	0.6712
9.5	-9.6519	-0.7926	-0.6231	-0.0252	-0.0270	-0.0527	12.5065	-13.1666	-2.5806	0.1593	-0.7162	0.1049	0.6713
9.51	-9.6377	-0.7933	-0.6182	-0.0188	-0.0236	-0.0557	12.4593	-13.1406	-2.4307	0.1593	-0.7162	0.1048	0.6713
9.52	-9.6395	-0.7948	-0.6150	-0.0100	-0.0230	-0.0489	12.4710	-13.1352	-2.5524	0.1592	-0.7162	0.1048	0.6714
9.53	-9.6310	-0.7824	-0.6029	-0.0067	-0.0220	-0.0468	12.4914	-13.2173	-2.5876	0.1592	-0.7160	0.1047	0.6715
9.54	-9.6163	-0.7732	-0.5973	-0.0035	-0.0226	-0.0421	12.2333	-13.0706	-2.4440	0.1592	-0.7160	0.1047	0.6716
9.55	-9.6189	-0.7674	-0.5929	-0.0064	-0.0161	-0.0408	12.3783	-13.1043	-2.6921	0.1591	-0.7159	0.1046	0.6717
9.56	-9.6205	-0.7605	-0.5919	-0.0064	-0.0093	-0.0436	12.3032	-12.8862	-2.8006	0.1591	-0.7160	0.1046	0.6718
9.57	-9.6090	-0.7554	-0.5851	-0.0083	-0.0191	-0.0415	12.3863	-13.0465	-2.6526	0.1590	-0.7158	0.1045	0.6718
9.58	-9.6071	-0.7565	-0.5895	-0.0051	-0.0092	-0.0431	12.3634	-13.0779	-2.4167	0.1590	-0.7158	0.1045	0.6719
9.59	-9.6043	-0.7505	-0.5887	-0.0078	0.0034	-0.0387	12.2624	-12.8071	-2.5807	0.1589	-0.7158	0.1045	0.6719
9.6	-9.6034	-0.7458	-0.5900	-0.0056	-0.0048	-0.0355	12.3582	-12.9166	-2.5112	0.1589	-0.7157	0.1045	0.6719
9.61	-9.6241	-0.7400	-0.5992	-0.0054	0.0008	-0.0372	12.6286	-12.9371	-2.2568	0.1588	-0.7158	0.1045	0.6720
9.62	-9.6466	-0.7405	-0.6023	-0.0044	0.0096	-0.0403	12.3139	-13.0276	-2.4767	0.1587	-0.7158	0.1045	0.6719
9.63	-9.6558	-0.7308	-0.6083	-0.0054	0.0025	-0.0380	12.1639	-13.0133	-2.7031	0.1587	-0.7159	0.1045	0.6719
9.64	-9.6534	-0.7192	-0.6139	-0.0056	0.0043	-0.0353	12.2198	-12.9977	-2.5411	0.1586	-0.7158	0.1045	0.6718
9.65	-9.6696	-0.7078	-0.6147	-0.0029	0.0091	-0.0399	12.2070	-13.1555	-2.6275	0.1585	-0.7159	0.1045	0.6719
9.66	-9.6586	-0.7011	-0.6197	0.0017	-0.0008	-0.0426	12.5165	-12.9883	-2.6046	0.1585	-0.7159	0.1045	0.6719
9.67	-9.6502	-0.6889	-0.6159	-0.0015	-0.0056	-0.0348	12.3776	-12.8808	-2.3297	0.1584	-0.7159	0.1046	0.6719
9.68	-9.6888	-0.6860	-0.6158	-0.0017	0.0081	-0.0406	12.3024	-13.0413	-2.6237	0.1583	-0.7160	0.1046	0.6719
9.69	-9.6796	-0.6897	-0.6203	-0.0054	0.0001	-0.0423	12.3868	-13.1288	-2.6755	0.1583	-0.7160	0.1046	0.6718
9.7	-9.6776	-0.6763	-0.6213	-0.0037	-0.0081	-0.0427	12.4477	-13.0331	-2.6371	0.1582	-0.7160	0.1046	0.6719
9.71	-9.6819	-0.6802	-0.6218	-0.0068	-0.0102	-0.0409	12.8779	-12.9862	-2.2997	0.1583	-0.7159	0.1048	0.6718
9.72	-9.6858	-0.6794	-0.6200	-0.0074	-0.0124	-0.0377	12.7961	-13.1254	-2.1446	0.1585	-0.7159	0.1051	0.6719
9.73	-9.6893	-0.6783	-0.6187	-0.0092	-0.0106	-0.0475	12.5289	-13.0503	-2.2401	0.1584	-0.7159	0.1050	0.6719
9.74	-9.6813	-0.6822	-0.6193	-0.0159	-0.0134	-0.0457	12.2933	-13.1109	-2.4632	0.1584	-0.7159	0.1049	0.6719
9.75	-9.6758	-0.6839	-0.6195	-0.0177	-0.0160	-0.0461	12.1506	-13.0713	-2.4303	0.1583	-0.7158	0.1049	0.6720
9.76	-9.6747	-0.6888	-0.6130	-0.0237	-0.0200	-0.0452	12.3401	-13.2010	-2.5559	0.1582	-0.7158	0.1048	0.6720
9.77	-9.6635	-0.6939	-0.6109	-0.0178	-0.0170	-0.0447	12.2053	-13.1884	-2.4931	0.1581	-0.7158	0.1047	0.6721
9.78	-9.6500	-0.6999	-0.6055	-0.0250	-0.0189	-0.0552	12.1869	-13.0404	-2.5745	0.1580	-0.7157	0.1046	0.6721
9.79	-9.6444	-0.6987	-0.6024	-0.0204	-0.0145	-0.0516	12.2025	-13.0355	-2.2477	0.1579	-0.7158	0.1045	0.6723
9.8	-9.6297	-0.7016	-0.5925	-0.0301	-0.0180	-0.0505	12.3301	-12.9454	-2.4885	0.1578	-0.7157	0.1043	0.6723
9.81	-9.6553	-0.7077	-0.5885	-0.0256	-0.0151	-0.0571	11.9258	-13.1908	-2.4580	0.1577	-0.7158	0.1042	0.6724
9.82	-9.6594	-0.7242	-0.5839	-0.0190	-0.0188	-0.0554	12.0092	-12.9255	-2.4472	0.1576	-0.7157	0.1041	0.6723
9.83	-9.6392	-0.7217	-0.5837	-0.0255	-0.0233	-0.0587	12.2606	-12.9931	-2.3786	0.1576	-0.7157	0.1039	0.6725
9.84	-9.6188	-0.7203	-0.5786	-0.0280	-0.0156	-0.0558	12.1268	-12.8834	-2.2355	0.1575	-0.7156	0.1038	0.6725
9.85	-9.6277	-0.7122	-0.5807	-0.0256	-0.0126	-0.0574	12.0322	-12.9328	-2.4862	0.1574	-0.7156	0.1036	0.6725
9.86	-9.6280	-0.7086	-0.5769	-0.0291	-0.0181	-0.0472	11.9872	-13.0818	-2.4004	0.1573	-0.7157	0.1035	0.6727
9.87	-9.6127	-0.7096	-0.5766	-0.0174	-0.0158	-0.0570	12.2198	-13.1628	-2.4652	0.1573	-0.7156	0.1034	0.6727
9.88	-9.6229	-0.7117	-0.5687	-0.0187	-0.0119	-0.0564	12.3039	-13.0892	-2.3850	0.1573	-0.7156	0.1032	0.6728
9.89	-9.6451	-0.7277	-0.5655	-0.0240	-0.0057	-0.0571	12.2742	-13.3502	-2.5577	0.1572	-0.7155	0.1031	0.6727
9.9	-9.6700	-0.7314	-0.5570	-0.0181	-0.0125	-0.0594	12.3880	-13.1484	-2.6917	0.1571	-0.7156	0.1030	0.6728
9.91	-9.7024	-0.7310	-0.5565	-0.0204	-0.0031	-0.0557	12.3846	-13.0394	-2.6378	0.1571	-0.7156	0.1029	0.6728
9.92	-9.6845	-0.7443	-0.5637	-0.0262	-0.0097	-0.0555	12.2915	-13.2690	-2.7519	0.1570	-0.7156	0.1028	0.6728
9.93	-9.6197	-0.7519	-0.5602	-0.0205	-0.0106	-0.0499	12.2791	-13.0998	-2.4963	0.1569	-0.7156	0.1027	0.6729
9.94	-9.5809	-0.7639	-0.5701	-0.0161	-0.0146	-0.0462	12.4123	-13.1684	-2.3707	0.1568	-0.7155	0.1026	0.6730
9.95	-9.5893	-0.7695	-0.5680	-0.0143	-0.0009	-0.0376	12.3168	-13.0594	-2.3540	0.1568	-0.7156	0.1025	0.6730
9.96	-9.6164	-0.7589	-0.5706	-0.0104	0.0080	-0.0369	12.1712	-13.0437	-2.2306	0.1567	-0.7155	0.1025	0.6729
9.97	-9.6160	-0.7425	-0.5765	-0.0073	0.0079	-0.0333	12.3315	-13.0401	-2.2915	0.1566	-0.7156	0.1025	0.6730
9.98	-9.6253	-0.7275	-0.5739	-0.0064	0.0099	-0.0421	12.3675	-12.9127	-2.4793	0.1565	-0.7156	0.1025	0.6730
9.99	-9.6436	-0.7233	-0.5810	-0.0040	0.0078	-0.0384	12.1631	-13.0519	-2.4143	0.1565	-0.7157	0.1025	0.6729
10	-9.6455	-0.7174	-0.5875	-0.0047	0.0132	-0.0423	12.3112	-13.0533	-2.5192	0.1564	-0.7157	0.1025	0.6729
10.01	-9.6507	-0.7014	-0.5920	-0.0047	0.0157	-0.0485	12.2567	-12.7921	-2.5802	0.1563	-0.7158	0.1025	0.6728
10.02	-9.6468	-0.6924	-0.5900	-0.0056	0.0081	-0.0519	12.3606	-13.0133	-2.5860	0.1563	-0.7159	0.1024	0.6728
10.03	-9.6392	-0.6678	-0.5926	-0.0022	0.0095	-0.0434	12.3157	-13.0659	-2.4267	0.1562	-0.7159	0.1024	0.6727
10.04	-9.6515	-0.6558	-0.5901	-0.0001	0.0148	-0.0543	12.1433	-13.0339	-2.4073	0.1562	-0.7160	0.1024	0.6727
10.05	-9.6602	-0.6412	-0.5944	-0.0037	0.0073	-0.0459	12.2728	-13.2202	-2.5220	0.1562	-0.7160	0.1024	0.6726
10.06	-9.6653	-0.6288	-0.5892	-0.0127	0.0008	-0.0485	12.4933	-13.1791	-2.6241	0.1561	-0.7161	0.1024	0.6726
10.07	-9.6589	-0.6336	-0.5976	-0.0222	0.0070	-0.0526	12.3553	-13.0045	-2.2564	0.1560	-0.7161	0.1023	0.6725
10.08	-9.6504	-0.6402	-0.5985	-0.0325	0.0031	-0.0564	12.3884	-13.2159	-2.6721	0.1559	-0.7162	0.1022	0.6725
10.09	-9.6422	-0.6518	-0.6049	-0.0255	0.0108	-0.0596	12.5193	-13.1694	-2.4550	0.1558	-0.7163	0.1020	0.6725
10.1	-9.6512	-0.6650	-0.6026	-0.0408	0.0105	-0.0556	12.2959	-13.1224	-2.5090	0.1556	-0.7164	0.1019	0.6724
10.11	-9.6902	-0.6845	-0.6133	-0.0437	0.0038	-0.0621	12.0712	-13.1391	-2.5197	0.1555	-0.7165	0.1017	0.6725
10.12	-9.6540	-0.6977	-0.6265	-0.0369	0.0088	-0.0611	12.2698	-13.1488	-2.2757	0.1554	-0.7165	0.1015	0.6724
10.13	-9.6103	-0.7095	-0.6168	-0.0503	0.0032	-0.0562	12.2877	-13.0793	-2.6418	0.1552	-0.7167	0.1013	0.6724
10.14	-9.7265	-0.7259	-0.6259	-0.0545	0.0120	-0.0594	12.2875	-12.9559	-2.5319	0.1550	-0.7167	0.1011	0.6723
10.15	-9.7109	-0.7428	-0.6293	-0.0542	0.0035	-0.0620	12.1683	-12.9416	-2.2771	0.1549	-0.7168	0.1008	0.6723
10.16	-9.6660	-0.7412	-0.6215	-0.0453	-0.0023	-0.0624	12.2252	-13.0175	-2.4457	0.1547	-0.7169	0.1006	0.6723
10.17	-9.6725	-0.7597	-0.6222	-0.0469	-0.0067	-0.0735	12.1058	-13.0635	-2.6474	0.1546	-0.7169	0.1004	0.6723
10.18	-9.6685	-0.7830	-0.6213	-0.0346	-0.0070	-0.0682	12.1055	-12.9650	-2.5142	0.1545	-0.7170	0.1002	0.6724
10.19	-9.6730	-0.7932	-0.6210	-0.0348	-0.0061	-0.0597	12.2369	-12.9176	-2.2477	0.1544	-0.7170	0.1000	0.6723
10.2	-9.6398	-0.7842	-0.6145	-0.0320	-0.0106	-0.0552	12.3826	-12.8711	-2.3154	0.1543	-0.7171	0.0999	0.6724
10.21	-9.6349	-0.7771	-0.6043	-0.0314	-0.0070	-0.0520	12.6820	-12.7826	-2.3631	0.1543	-0.7170	0.0999	0.6723
10.22	-9.6512	-0.7742	-0.6037	-0.0311	-0.0086	-0.0555	12.7157	-12.6847	-2.3319	0.1546	-0.7170	0.1002	0.6723
10.23	-9.6366	-0.7830	-0.6017	-0.0294	-0.0150	-0.0580	12.6219	-12.8082	-2.4327	0.1546	-0.7170	0.1002	0.6723
10.24	-9.6435	-0.7856	-0.5926	-0.0228	-0.0021	-0.0565	12.3344	-12.8054	-2.6043	0.1545	-0.7170	0.1000	0.6723
10.25	-9.6453	-0.7876	-0.5952	-0.0132	-0.0073	-0.0608	12.4533	-13.1197	-2.5494	0.1545	-0.7170	0.0999	0.6723
10.26	-9.6330	-0.7843	-0.5919	-0.0113	-0.0132	-0.0515	12.3737	-12.9494	-2.7483	0.1544	-0.7170	0.0999	0.6723
10.27	-9.6392	-0.7806	-0.5950	-0.0108	-0.0080	-0.0425	12.2619	-13.1702	-2.6939	0.1544	-0.7170	0.0998	0.6724
10.28	-9.6379	-0.7700	-0.5876	-0.0069	-0.0136	-0.0425	12.4790	-13.1363	-2.6586	0.1543	-0.7170	0.0998	0.6723
10.29	-9.6411	-0.7537	-0.5815	-0.0034	-0.0041	-0.0428	12.3292	-12.9795	-2.5452	0.1542	-0.7171	0.0998	0.6724
10.3	-9.6351	-0.7572	-0.5840	-0.0035	0.0068	-0.0462	12.2036	-13.0573	-2.6287	0.1542	-0.7171	0.0998	0.6724
10.31	-9.6301	-0.7504	-0.5828	-0.0088	-0.0030	-0.0448	12.4341	-13.2013	-2.6581	0.1541	-0.7171	0.0998	0.6724
10.32	-9.6211	-0.7489	-0.5825	-0.0041	-0.0030	-0.0402	12.4276	-13.1068	-2.7706	0.1541	-0.7170	0.0998	0.6723
10.33	-9.6178	-0.7476	-0.5843	-0.0009	0.0043	-0.0325	12.3787	-13.0993	-2.5967	0.1540	-0.7171	0.0998	0.6724
10.34	-9.6205	-0.7515	-0.5914	-0.0061	0.0102	-0.0377	12.3944	-13.1178	-2.4168	0.1539	-0.7171	0.0998	0.6724
10.35	-9.6209	-0.7417	-0.5913	-0.0074	0.0122	-0.0391	12.0926	-13.0424	-2.5844	0.1539	-0.7171	0.0998	0.6723
10.36	-9.6332	-0.7390	-0.5928	-0.0063	0.0121	-0.0343	12.4466	-12.8913	-2.6729	0.1538	-0.7173	0.0998	0.6723
10.37	-9.6386	-0.7330	-0.5973	-0.0062	0.0155	-0.0394	12.2418	-12.8567	-2.6648	0.1537	-0.7173	0.0999	0.6722
10.38	-9.6533	-0.7247	-0.5992	-0.0058	0.0152	-0.0394	12.1557	-13.2399	-2.4240	0.1536	-0.7174	0.0999	0.6722
10.39	-9.6624	-0.7132	-0.6011	-0.0040	0.0109	-0.0352	12.1751	-12.9919	-2.1948	0.1535	-0.7174	0.0999	0.6721
10.4	-9.6687	-0.6984	-0.6099	-0.0065	0.0171	-0.0400	12.1910	-13.0426	-2.3052	0.1534	-0.7175	0.0999	0.6721
10.41	-9.6727	-0.6906	-0.6081	-0.0014	0.0091	-0.0381	12.1289	-13.1284	-2.3254	0.1533	-0.7176	0.1000	0.6720
10.42	-9.6750	-0.6848	-0.5993	-0.0036	0.0038	-0.0361	12.3571	-13.0938	-2.4850	0.1532	-0.7176	0.1000	0.6720
10.43	-9.6736	-0.6789	-0.6092	-0.0056	-0.0063	-0.0381	12.2417	-13.1117	-2.4835	0.1532	-0.7176	0.1000	0.6720
10.44	-9.6664	-0.6733	-0.6076	-0.0051	-0.0084	-0.0420	12.3141	-13.1052	-2.5921	0.1531	-0.7176	0.1000	0.6720
10.45	-9.6535	-0.6706	-0.6162	-0.0060	0.0007	-0.0441	12.3138	-13.1018	-2.3479	0.1530	-0.7177	0.1000	0.6720
10.46	-9.6619	-0.6622	-0.6121	-0.0078	0.0035	-0.0462	12.2392	-13.1191	-2.5046	0.1529	-0.7176	0.1000	0.6719
10.47	-9.6643	-0.6629	-0.6188	-0.0106	0.0064	-0.0437	12.1697	-12.9773	-2.4449	0.1529	-0.7178	0.1000	0.6720
10.48	-9.6575	-0.6662	-0.6160	-0.0234	0.0005	-0.0448	12.3509	-13.0888	-2.4056	0.1528	-0.7178	0.0999	0.6719
10.49	-9.6619	-0.6741	-0.6163	-0.0266	-0.0041	-0.0472	12.2894	-13.0505	-2.5265	0.1526	-0.7178	0.0998	0.6719
10.5	-9.6638	-0.6743	-0.6157	-0.0210	-0.0031	-0.0470	12.2479	-12.9949	-2.4362	0.1525	-0.7178	0.0997	0.6719
10.51	-9.6633	-0.6788	-0.6150	-0.0268	-0.0006	-0.0479	12.1546	-12.9184	-2.5507	0.1524	-0.7179	0.0996	0.6719
10.52	-9.6582	-0.6878	-0.6155	-0.0260	-0.0102	-0.0520	12.4201	-13.1605	-2.5294	0.1523	-0.7179	0.0995	0.6720
10.53	-9.6575	-0.6892	-0.6087	-0.0250	-0.0003	-0.0558	12.3986	-13.1672	-2.3705	0.1522	-0.7179	0.0994	0.6719
10.54	-9.6452	-0.6930	-0.6076	-0.0295	-0.0023	-0.0600	12.0950	-12.8233	-2.4924	0.1521	-0.7180	0.0993	0.6720
10.55	-9.6149	-0.6971	-0.6096	-0.0298	-0.0042	-0.0540	12.4354	-12.7997	-2.3619	0.1520	-0.7180	0.0991	0.6719
10.56	-9.6199	-0.7083	-0.6125	-0.0307	-0.0030	-0.0597	12.3650	-13.0567	-2.3748	0.1519	-0.7181	0.0990	0.6720
10.57	-9.6479	-0.7224	-0.6133	-0.0303	0.0037	-0.0570	12.3629	-12.9124	-2.0411	0.1518	-0.7180	0.0988	0.6719
10.58	-9.6532	-0.7292	-0.6157	-0.0299	0.0021	-0.0575	12.5487	-12.9194	-2.3247	0.1517	-0.7181	0.0987	0.6720
10.59	-9.6469	-0.7404	-0.6153	-0.0284	0.0065	-0.0573	12.2128	-12.9722	-2.5526	0.1516	-0.7182	0.0985	0.6719
10.6	-9.6418	-0.7378	-0.6191	-0.0237	0.0082	-0.0503	12.3702	-13.1048	-2.3590	0.1515	-0.7182	0.0985	0.6718
10.61	-9.6544	-0.7398	-0.6161	-0.0315	0.0064	-0.0473	12.2470	-13.1249	-2.5002	0.1514	-0.7184	0.0984	0.6719
10.62	-9.6414	-0.7375	-0.6162	-0.0267	0.0068	-0.0527	12.5476	-13.0516	-2.4758	0.1512	-0.7184	0.0983	0.6718
10.63	-9.6293	-0.7398	-0.6188	-0.0266	0.0108	-0.0461	12.2552	-12.7993	-2.7143	0.1511	-0.7185	0.0982	0.6718
10.64	-9.6376	-0.7484	-0.6223	-0.0302	0.0155	-0.0560	12.3592	-13.0214	-2.4591	0.1510	-0.7185	0.0981	0.6717
10.65	-9.6590	-0.7612	-0.6215	-0.0229	0.0143	-0.0561	12.4490	-13.1466	-2.4935	0.1509	-0.7187	0.0980	0.6717
10.66	-9.6874	-0.7635	-0.6253	-0.0136	0.0186	-0.0550	12.2989	-13.0310	-2.2638	0.1508	-0.7188	0.0979	0.6716
10.67	-9.7160	-0.7710	-0.6246	-0.0256	-0.0010	-0.0503	12.4608	-13.0311	-2.4582	0.1507	-0.7188	0.0978	0.6715
10.68	-9.6906	-0.7778	-0.6294	-0.0229	-0.0057	-0.0487	12.3423	-12.8933	-2.5865	0.1506	-0.7189	0.0977	0.6716
10.69	-9.6311	-0.7803	-0.6306	-0.0160	-0.0045	-0.0406	12.3499	-13.0024	-2.5930	0.1505	-0.7189	0.0977	0.6716
10.7	-9.6043	-0.7958	-0.6306	-0.0085	-0.0026	-0.0363	12.4050	-13.1541	-2.2412	0.1504	-0.7189	0.0976	0.6717
10.71	-9.6173	-0.7955	-0.6354	-0.0035	0.0023	-0.0336	12.9358	-13.0032	-2.2430	0.1505	-0.7188	0.0979	0.6715
10.72	-9.6421	-0.7812	-0.6357	0.0047	0.0003	-0.0325	12.9633	-12.8931	-2.6707	0.1508	-0.7188	0.0983	0.6715
10.73	-9.6567	-0.7562	-0.6360	0.0118	0.0100	-0.0328	12.6446	-12.9766	-2.2710	0.1509	-0.7188	0.0986	0.6714
10.74	-9.6562	-0.7336	-0.6376	0.0115	0.0016	-0.0333	12.2902	-12.9511	-2.2998	0.1509	-0.7189	0.0986	0.6714
10.75	-9.6414	-0.7194	-0.6383	0.0193	0.0028	-0.0328	12.0879	-12.9145	-2.3388	0.1509	-0.7188	0.0988	0.6714
10.76	-9.6532	-0.7022	-0.6437	0.0231	0.0148	-0.0438	12.1927	-12.9795	-2.3146	0.1509	-0.7189	0.0989	0.6713
10.77	-9.6608	-0.6864	-0.6486	0.0198	-0.0007	-0.0491	12.1098	-12.9739	-2.3219	0.1509	-0.7189	0.0989	0.6713
10.78	-9.6429	-0.6623	-0.6463	0.0191	0.0061	-0.0471	12.2616	-12.8747	-2.2476	0.1509	-0.7189	0.0990	0.6712
10.79	-9.6449	-0.6486	-0.6409	0.0173	0.0057	-0.0444	12.3158	-12.9789	-2.4830	0.1510	-0.7190	0.0991	0.6712
10.8	-9.6501	-0.6415	-0.6442	0.0176	0.0003	-0.0457	12.0862	-13.1072	-2.4796	0.1510	-0.7190	0.0991	0.6711
10.81	-9.6419	-0.6282	-0.6433	0.0126	-0.0002	-0.0404	12.2350	-13.2048	-2.3057	0.1510	-0.7190	0.0992	0.6712
10.82	-9.6540	-0.6266	-0.6378	-0.0018	0.0033	-0.0432	12.3309	-13.3279	-2.2298	0.1509	-0.7190	0.0992	0.6711
10.83	-9.6516	-0.6345	-0.6477	-0.0094	0.0103	-0.0489	12.3254	-13.4265	-2.6531	0.1509	-0.7191	0.0992	0.6711
10.84	-9.6512	-0.6417	-0.6461	-0.0229	0.0041	-0.0540	12.3366	-13.1831	-2.3939	0.1508	-0.7191	0.0991	0.6710
10.85	-9.6658	-0.6508	-0.6496	-0.0293	-0.0043	-0.0597	12.2672	-13.1007	-2.3369	0.1507	-0.7191	0.0990	0.6710
10.86	-9.6695	-0.6586	-0.6521	-0.0302	0.0089	-0.0572	12.1059	-13.2805	-2.3842	0.1506	-0.7193	0.0988	0.6711
10.87	-9.6863	-0.6738	-0.6571	-0.0300	0.0066	-0.0623	12.2131	-13.1617	-2.4637	0.1505	-0.7193	0.0987	0.6710
10.88	-9.6664	-0.6888	-0.6597	-0.0295	0.0056	-0.0610	12.2297	-13.1609	-2.4558	0.1504	-0.7194	0.0985	0.6710
10.89	-9.6091	-0.6900	-0.6597	-0.0326	0.0022	-0.0578	12.3440	-13.0237	-2.4405	0.1503	-0.7194	0.0984	0.6709
10.9	-9.7030	-0.6953	-0.6564	-0.0287	0.0149	-0.0614	12.3000	-13.1069	-2.4841	0.1502	-0.7195	0.0982	0.6709
10.91	-9.7268	-0.7222	-0.6655	-0.0335	0.0035	-0.0628	12.0629	-13.2554	-2.5565	0.1501	-0.7196	0.0981	0.6709
10.92	-9.6373	-0.7225	-0.6610	-0.0327	-0.0010	-0.0591	12.3374	-12.9593	-2.5584	0.1500	-0.7196	0.0979	0.6708
10.93	-9.6338	-0.7332	-0.6475	-0.0318	-0.0007	-0.0638	12.3369	-12.8570	-2.4406	0.1499	-0.7197	0.0978	0.6709
10.94	-9.6648	-0.7680	-0.6569	-0.0368	-0.0078	-0.0643	12.1840	-13.0407	-2.2029	0.1498	-0.7197	0.0976	0.6709
10.95	-9.6535	-0.7683	-0.6557	-0.0276	-0.0054	-0.0592	12.1316	-13.0244	-2.1423	0.1497	-0.7198	0.0974	0.6709
10.96	-9.6380	-0.7647	-0.6459	-0.0314	-0.0117	-0.0533	12.2354	-13.1742	-2.3617	0.1496	-0.7197	0.0973	0.6709
10.97	-9.6558	-0.7728	-0.6431	-0.0287	-0.0069	-0.0516	12.2584	-13.0759	-2.4745	0.1495	-0.7198	0.0972	0.6710
10.98	-9.6500	-0.7734	-0.6469	-0.0294	-0.0104	-0.0513	12.3623	-12.8233	-2.2848	0.1494	-0.7198	0.0970	0.6710
10.99	-9.6504	-0.7763	-0.6486	-0.0302	-0.0135	-0.0534	12.2983	-13.1579	-2.2467	0.1492	-0.7198	0.0969	0.6710
11	-9.6527	-0.7854	-0.6456	-0.0311	-0.0095	-0.0593	12.4499	-13.1413	-2.4687	0.1491	-0.7198	0.0968	0.6710
11.01	-9.6392	-0.7839	-0.6376	-0.0278	-0.0122	-0.0578	12.3802	-13.2386	-2.3207	0.1491	-0.7198	0.0966	0.6711
11.02	-9.6385	-0.7802	-0.6384	-0.0208	-0.0013	-0.0531	12.5064	-13.0497	-2.3985	0.1490	-0.7198	0.0965	0.6711
11.03	-9.6440	-0.7790	-0.6422	-0.0086	-0.0045	-0.0457	12.4392	-13.0320	-2.2456	0.1489	-0.7198	0.0965	0.6710
11.04	-9.6431	-0.7744	-0.6337	-0.0035	-0.0083	-0.0459	12.2022	-13.2812	-2.4001	0.1489	-0.7199	0.0965	0.6711
11.05	-9.6301	-0.7661	-0.6293	-0.0109	-0.0100	-0.0461	12.1009	-13.1642	-2.3014	0.1488	-0.7198	0.0964	0.6711
11.06	-9.6248	-0.7590	-0.6294	-0.0054	-0.0022	-0.0437	12.3050	-13.1502	-2.5333	0.1487	-0.7199	0.0964	0.6712
11.07	-9.6089	-0.7542	-0.6309	-0.0050	-0.0048	-0.0374	12.3509	-13.0380	-2.5392	0.1487	-0.7198	0.0964	0.6711
11.08	-9.6015	-0.7501	-0.6356	-0.0108	0.0018	-0.0395	12.0800	-13.0814	-2.4670	0.1486	-0.7198	0.0964	0.6712
11.09	-9.6161	-0.7458	-0.6353	-0.0048	0.0091	-0.0401	12.2290	-12.9668	-2.5478	0.1485	-0.7199	0.0964	0.6712
11.1	-9.6373	-0.7448	-0.6422	-0.0044	0.0016	-0.0379	12.3013	-12.7435	-2.3351	0.1484	-0.7198	0.0964	0.6711
11.11	-9.6551	-0.7405	-0.6418	-0.0039	0.0032	-0.0349	12.4786	-12.9181	-2.3876	0.1484	-0.7200	0.0964	0.6712
11.12	-9.6713	-0.7339	-0.6455	0.0004	0.0042	-0.0360	12.1857	-12.9743	-2.3339	0.1483	-0.7199	0.0965	0.6711
11.13	-9.6765	-0.7268	-0.6477	-0.0017	0.0012	-0.0339	12.2064	-12.9541	-2.2084	0.1482	-0.7200	0.0965	0.6712
11.14	-9.6654	-0.7170	-0.6479	0.0066	0.0018	-0.0326	12.3244	-13.0453	-2.5090	0.1481	-0.7199	0.0966	0.6711
11.15	-9.6718	-0.7061	-0.6470	-0.0041	-0.0058	-0.0335	12.2692	-13.0746	-2.2636	0.1481	-0.7200	0.0966	0.6711
11.16	-9.6746	-0.6949	-0.6417	0.0009	-0.0085	-0.0328	12.2804	-12.9953	-2.2134	0.1480	-0.7199	0.0967	0.6711
11.17	-9.6619	-0.6839	-0.6438	0.0034	-0.0119	-0.0365	11.9953	-12.9423	-2.5826	0.1479	-0.7199	0.0967	0.6712
11.18	-9.6591	-0.6760	-0.6426	-0.0009	-0.0103	-0.0358	12.3766	-13.1560	-2.6273	0.1479	-0.7199	0.0967	0.6712
11.19	-9.6461	-0.6745	-0.6442	0.0028	0.0027	-0.0336	12.4587	-13.2951	-2.5052	0.1478	-0.7199	0.0968	0.6712
11.2	-9.6472	-0.6617	-0.6397	-0.0011	-0.0022	-0.0432	12.5360	-13.2734	-2.3734	0.1478	-0.7199	0.0968	0.6712
11.21	-9.6568	-0.6498	-0.6410	-0.0034	-0.0061	-0.0400	12.8691	-13.1189	-2.2646	0.1479	-0.7198	0.0970	0.6711
11.22	-9.6561	-0.6528	-0.6422	-0.0059	0.0034	-0.0404	13.1856	-13.2340	-2.3591	0.1481	-0.7199	0.0973	0.6711
11.23	-9.6590	-0.6493	-0.6415	-0.0079	-0.0092	-0.0477	12.4844	-13.0529	-2.1960	0.1480	-0.7199	0.0973	0.6711
11.24	-9.6670	-0.6479	-0.6455	-0.0146	-0.0113	-0.0448	12.2057	-12.9167	-2.2024	0.1480	-0.7199	0.0972	0.6712
11.25	-9.6659	-0.6485	-0.6379	-0.0232	-0.0134	-0.0556	12.1590	-13.0008	-2.3189	0.1479	-0.7198	0.0971	0.6712
11.26	-9.6696	-0.6557	-0.6326	-0.0289	-0.0145	-0.0528	12.2842	-13.1567	-2.2606	0.1478	-0.7198	0.0970	0.6713
