time	acceleration_x	acceleration_y	acceleration_z	gyroscope_x	gyroscope_y	gyroscope_z	magnetometer_x	magnetometer_y	magnetometer_z	quaternion_w	quaternion_x	quaternion_y	quaternion_z
0	-9.9274	-0.3397	-0.7452	0.1156	0.1120	0.1308	32.5191	-10.0075	4.6770	0.4469	-0.5864	0.4367	0.5153
0.01	-9.8886	-0.2716	-0.7192	0.1127	0.0630	0.1221	32.3521	-10.1300	4.8261	0.4468	-0.5859	0.4379	0.5152
0.02	-9.7843	-0.2087	-0.6754	0.1140	0.0323	0.1215	32.1666	-9.9785	4.8748	0.4467	-0.5853	0.4388	0.5151
0.03	-9.7011	-0.1718	-0.6498	0.1153	-0.0218	0.1162	32.5075	-10.1123	4.6884	0.4468	-0.5845	0.4398	0.5151
0.04	-9.6291	-0.1394	-0.6228	0.1109	-0.0468	0.1145	32.3687	-10.5295	4.7123	0.4469	-0.5836	0.4407	0.5151
0.05	-9.5472	-0.1055	-0.5959	0.1151	-0.0626	0.1048	32.3047	-10.3806	4.6987	0.4472	-0.5828	0.4415	0.5152
0.06	-9.4727	-0.0600	-0.5746	0.0983	-0.0826	0.0943	32.4348	-10.4975	4.7267	0.4475	-0.5819	0.4422	0.5153
0.07	-9.3743	-0.0348	-0.5651	0.0823	-0.0883	0.0933	32.5998	-10.7871	4.9498	0.4477	-0.5810	0.4429	0.5155
0.08	-9.2495	-0.0102	-0.5574	0.0681	-0.0892	0.0910	32.3350	-10.5136	4.6412	0.4479	-0.5802	0.4435	0.5158
0.09	-9.2096	0.0236	-0.5506	0.0694	-0.0611	0.0716	32.1984	-10.5556	4.7965	0.4481	-0.5795	0.4441	0.5159
0.1	-9.2380	0.0321	-0.5427	0.0507	-0.0404	0.0541	32.1470	-10.5966	4.7046	0.4483	-0.5789	0.4447	0.5160
0.11	-9.3806	0.0479	-0.5285	0.0488	-0.0072	0.0301	32.1655	-10.7386	4.8874	0.4483	-0.5784	0.4452	0.5158
0.12	-9.5613	0.0554	-0.5251	0.0395	0.0184	0.0038	32.5668	-10.7333	5.0016	0.4485	-0.5782	0.4458	0.5157
0.13	-9.6925	0.0634	-0.5271	0.0144	0.0286	-0.0166	32.7149	-10.5135	5.0267	0.4485	-0.5780	0.4462	0.5154
0.14	-9.7793	0.0611	-0.5234	0.0022	0.0349	-0.0424	32.4837	-10.4641	5.0775	0.4486	-0.5779	0.4465	0.5151
0.15	-9.7823	0.0739	-0.5215	-0.0198	0.0276	-0.0597	32.2105	-10.6104	4.9620	0.4487	-0.5779	0.4467	0.5149
0.16	-9.8005	0.0612	-0.5263	-0.0459	0.0294	-0.0856	31.9927	-10.4152	5.0245	0.4487	-0.5781	0.4468	0.5146
0.17	-9.8442	0.0300	-0.5493	-0.0715	0.0312	-0.1101	31.8554	-10.4355	4.8680	0.4486	-0.5785	0.4466	0.5145
0.18	-9.7934	-0.0413	-0.5670	-0.0990	0.0213	-0.1241	32.1547	-10.4474	4.8423	0.4486	-0.5787	0.4463	0.5143
0.19	-9.7124	-0.1080	-0.5818	-0.1261	0.0170	-0.1328	32.1948	-10.4554	4.9875	0.4487	-0.5792	0.4461	0.5142
0.2	-9.7041	-0.2100	-0.6085	-0.1456	0.0188	-0.1425	32.1048	-10.5636	4.9126	0.4486	-0.5796	0.4457	0.5140
0.21	-9.7775	-0.3372	-0.6319	-0.1618	0.0154	-0.1551	32.1236	-10.5085	5.0609	0.4485	-0.5802	0.4452	0.5140
0.22	-9.8348	-0.4239	-0.6503	-0.1605	0.0048	-0.1488	32.1255	-10.6296	4.9380	0.4484	-0.5805	0.4447	0.5138
0.23	-9.7664	-0.4864	-0.6648	-0.1598	-0.0163	-0.1430	32.2134	-10.7413	4.8713	0.4484	-0.5810	0.4442	0.5138
0.24	-9.6935	-0.5495	-0.6640	-0.1638	-0.0299	-0.1391	32.2515	-10.4695	4.7847	0.4484	-0.5814	0.4437	0.5139
0.25	-9.6401	-0.6018	-0.6736	-0.1656	-0.0411	-0.1406	32.3366	-10.4476	4.5149	0.4484	-0.5817	0.4431	0.5140
0.26	-9.5952	-0.6396	-0.6551	-0.1610	-0.0419	-0.1427	32.1698	-10.4279	4.8496	0.4485	-0.5821	0.4426	0.5141
0.27	-9.6111	-0.6970	-0.6498	-0.1603	-0.0508	-0.1383	32.1221	-10.4981	4.6698	0.4485	-0.5823	0.4420	0.5142
0.28	-9.6785	-0.7403	-0.6343	-0.1389	-0.0580	-0.1380	32.3304	-10.2908	4.7637	0.4486	-0.5826	0.4415	0.5143
0.29	-9.6621	-0.7626	-0.6219	-0.1303	-0.0715	-0.1351	32.1905	-10.2764	4.6673	0.4487	-0.5827	0.4409	0.5143
0.3	-9.6048	-0.7982	-0.5901	-0.1195	-0.0863	-0.1289	32.2366	-10.3412	4.5772	0.4490	-0.5829	0.4404	0.5145
0.31	-9.6152	-0.8378	-0.5844	-0.0983	-0.0835	-0.1176	32.1532	-10.1238	4.7107	0.4491	-0.5830	0.4399	0.5147
0.32	-9.6167	-0.8315	-0.5661	-0.0777	-0.0821	-0.1200	32.1084	-10.2250	4.6019	0.4493	-0.5831	0.4394	0.5149
0.33	-9.6107	-0.8331	-0.5379	-0.0619	-0.0838	-0.1151	32.2138	-10.0697	4.3435	0.4495	-0.5832	0.4389	0.5151
0.34	-9.6093	-0.8668	-0.5273	-0.0477	-0.0743	-0.1115	32.2478	-10.1113	4.3157	0.4497	-0.5831	0.4385	0.5151
0.35	-9.6541	-0.8453	-0.5047	-0.0186	-0.0710	-0.1117	32.3192	-10.0978	4.4365	0.4502	-0.5830	0.4384	0.5151
0.36	-9.7103	-0.8175	-0.4750	-0.0030	-0.0622	-0.1129	32.3021	-10.0320	4.2767	0.4506	-0.5828	0.4382	0.5149
0.37	-9.7208	-0.8069	-0.4498	0.0163	-0.0578	-0.1092	32.2860	-9.8700	4.4114	0.4511	-0.5827	0.4382	0.5148
0.38	-9.6647	-0.7933	-0.4439	0.0233	-0.0569	-0.1106	32.0389	-10.0069	4.3726	0.4514	-0.5826	0.4380	0.5148
0.39	-9.5565	-0.7660	-0.4296	0.0433	-0.0465	-0.1071	32.2932	-9.9433	4.4069	0.4519	-0.5824	0.4381	0.5145
0.4	-9.4638	-0.7217	-0.4155	0.0471	-0.0324	-0.1036	32.4024	-9.9039	4.2734	0.4524	-0.5822	0.4381	0.5142
0.41	-9.4179	-0.6811	-0.4033	0.0569	-0.0102	-0.1089	32.5185	-10.1833	4.4509	0.4529	-0.5821	0.4383	0.5138
0.42	-9.3436	-0.6461	-0.4038	0.0584	0.0081	-0.1075	32.6107	-10.1720	4.2971	0.4534	-0.5820	0.4385	0.5134
0.43	-9.3021	-0.6174	-0.4109	0.0510	0.0306	-0.1100	32.4512	-10.2141	4.3831	0.4537	-0.5819	0.4387	0.5128
0.44	-9.2455	-0.5733	-0.4078	0.0643	0.0523	-0.1139	32.6188	-9.9410	4.5003	0.4542	-0.5820	0.4391	0.5122
0.45	-9.2344	-0.4997	-0.3816	0.0640	0.0803	-0.1274	32.4964	-10.0998	4.4829	0.4545	-0.5820	0.4394	0.5115
0.46	-9.2991	-0.4709	-0.3883	0.0550	0.1281	-0.1497	32.5433	-9.9811	4.4659	0.4549	-0.5823	0.4397	0.5107
0.47	-9.2704	-0.4833	-0.4061	0.0405	0.1661	-0.1682	32.5892	-9.7937	4.5824	0.4550	-0.5827	0.4400	0.5096
0.48	-9.2306	-0.4796	-0.4254	0.0387	0.2095	-0.1807	32.5640	-9.7384	4.6708	0.4552	-0.5834	0.4405	0.5084
0.49	-9.2669	-0.4877	-0.4512	0.0252	0.2652	-0.1909	32.5772	-9.7493	4.6876	0.4552	-0.5841	0.4409	0.5071
0.5	-9.3414	-0.5319	-0.5101	0.0209	0.3246	-0.2021	32.5802	-9.6803	4.8659	0.4551	-0.5851	0.4414	0.5056
0.51	-9.4136	-0.5864	-0.5768	0.0147	0.3619	-0.1902	32.4708	-9.5258	4.8165	0.4549	-0.5862	0.4421	0.5041
0.52	-9.5390	-0.6147	-0.6493	0.0200	0.3873	-0.1756	32.3639	-9.4729	5.1710	0.4546	-0.5873	0.4428	0.5024
0.53	-9.6864	-0.6224	-0.7005	0.0161	0.3891	-0.1590	32.4631	-9.2172	5.1885	0.4542	-0.5884	0.4437	0.5008
0.54	-9.8514	-0.6189	-0.7470	0.0070	0.3605	-0.1347	32.5962	-9.2885	5.3082	0.4537	-0.5893	0.4444	0.4993
0.55	-10.0272	-0.6244	-0.7894	0.0020	0.3303	-0.1297	32.4470	-9.4140	5.3806	0.4534	-0.5902	0.4452	0.4979
0.56	-10.1551	-0.6329	-0.8158	-0.0036	0.2793	-0.1200	32.3649	-9.2029	5.2890	0.4530	-0.5910	0.4457	0.4968
0.57	-10.2479	-0.6311	-0.8187	-0.0076	0.2238	-0.1099	32.1884	-9.2254	5.8542	0.4527	-0.5917	0.4461	0.4959
0.58	-10.3908	-0.6750	-0.8489	-0.0119	0.1799	-0.1080	32.4403	-9.1742	5.9490	0.4525	-0.5922	0.4466	0.4951
0.59	-10.3739	-0.7249	-0.8914	-0.0227	0.1130	-0.1034	32.6244	-9.5363	5.8016	0.4525	-0.5925	0.4468	0.4945
0.6	-10.1537	-0.7160	-0.8904	-0.0240	0.0441	-0.0881	32.5381	-9.4635	5.9427	0.4526	-0.5927	0.4470	0.4941
0.61	-9.9504	-0.6813	-0.9055	-0.0279	0.0195	-0.0660	32.6772	-9.2482	5.9236	0.4526	-0.5927	0.4471	0.4938
0.62	-9.8395	-0.6671	-0.9314	-0.0324	-0.0080	-0.0614	32.8714	-9.4256	6.0878	0.4527	-0.5927	0.4472	0.4938
0.63	-9.7379	-0.6463	-0.9390	-0.0329	-0.0170	-0.0516	33.1705	-9.1608	6.1169	0.4528	-0.5926	0.4473	0.4937
0.64	-9.6869	-0.6310	-0.9516	-0.0340	-0.0196	-0.0465	32.9060	-9.0541	6.1825	0.4529	-0.5925	0.4474	0.4936
0.65	-9.6530	-0.6294	-0.9621	-0.0566	-0.0242	-0.0556	32.5937	-9.0413	5.9466	0.4530	-0.5924	0.4474	0.4936
0.66	-9.5757	-0.6184	-0.9631	-0.0581	-0.0291	-0.0606	32.2983	-9.1531	5.7396	0.4530	-0.5925	0.4473	0.4937
0.67	-9.5162	-0.6118	-0.9668	-0.0630	-0.0314	-0.0533	32.4029	-9.2682	5.8190	0.4530	-0.5925	0.4472	0.4938
0.68	-9.5052	-0.6123	-0.9771	-0.0710	-0.0260	-0.0560	32.6592	-9.5411	5.7796	0.4530	-0.5924	0.4471	0.4938
0.69	-9.5149	-0.5938	-0.9908	-0.0785	-0.0167	-0.0540	32.4483	-9.4825	5.9197	0.4530	-0.5925	0.4471	0.4939
0.7	-9.5226	-0.5709	-1.0077	-0.0826	0.0069	-0.0469	32.5696	-9.2810	5.7100	0.4529	-0.5925	0.4471	0.4938
0.71	-9.5099	-0.5567	-1.0205	-0.0818	0.0153	-0.0407	32.3632	-9.3944	5.9835	0.4528	-0.5927	0.4472	0.4938
0.72	-9.5316	-0.5405	-1.0371	-0.0860	0.0263	-0.0390	32.2185	-9.1208	5.8775	0.4525	-0.5928	0.4471	0.4938
0.73	-9.6015	-0.5079	-1.0492	-0.0897	0.0477	-0.0368	32.3766	-9.2071	5.8867	0.4523	-0.5930	0.4473	0.4937
0.74	-9.6763	-0.4942	-1.0611	-0.1020	0.0535	-0.0490	32.6608	-9.4244	5.8728	0.4520	-0.5932	0.4474	0.4936
0.75	-9.7270	-0.4839	-1.0738	-0.1111	0.0539	-0.0539	32.6532	-9.1221	5.9703	0.4517	-0.5934	0.4474	0.4935
0.76	-9.7661	-0.4873	-1.0806	-0.1194	0.0524	-0.0678	32.3511	-9.2966	5.9803	0.4515	-0.5938	0.4474	0.4935
0.77	-9.8237	-0.5035	-1.0892	-0.1302	0.0393	-0.0748	32.2142	-9.4534	5.8436	0.4512	-0.5941	0.4473	0.4933
0.78	-9.8666	-0.5346	-1.0987	-0.1331	0.0173	-0.0839	32.2760	-9.2132	5.9323	0.4510	-0.5944	0.4472	0.4934
0.79	-9.8901	-0.5639	-1.0887	-0.1344	-0.0093	-0.0865	32.6058	-9.3477	5.7446	0.4508	-0.5946	0.4469	0.4933
0.8	-9.8857	-0.5932	-1.0760	-0.1362	-0.0259	-0.0854	32.9415	-9.5482	5.9928	0.4507	-0.5949	0.4466	0.4935
0.81	-9.8461	-0.6189	-1.0704	-0.1335	-0.0443	-0.0875	32.6066	-9.4838	5.8753	0.4507	-0.5950	0.4463	0.4937
0.82	-9.8166	-0.6368	-1.0532	-0.1381	-0.0614	-0.0875	32.6157	-9.5569	5.7729	0.4506	-0.5951	0.4459	0.4939
0.83	-9.7764	-0.6578	-1.0328	-0.1323	-0.0750	-0.0872	32.4673	-9.2799	5.7985	0.4507	-0.5952	0.4455	0.4941
0.84	-9.7368	-0.6825	-1.0048	-0.1374	-0.0919	-0.0853	32.5918	-9.2816	5.6778	0.4507	-0.5953	0.4450	0.4944
0.85	-9.7125	-0.7024	-0.9756	-0.1177	-0.0967	-0.0826	32.6949	-9.3555	5.6961	0.4508	-0.5953	0.4447	0.4948
0.86	-9.6981	-0.7127	-0.9534	-0.1060	-0.1054	-0.0858	32.4439	-9.3252	5.8122	0.4508	-0.5951	0.4442	0.4950
0.87	-9.6763	-0.7229	-0.9214	-0.1009	-0.1060	-0.0835	32.5734	-9.5487	5.5459	0.4510	-0.5951	0.4439	0.4954
0.88	-9.6653	-0.7349	-0.8976	-0.0872	-0.1034	-0.0792	32.5523	-9.3572	5.3890	0.4512	-0.5949	0.4436	0.4957
0.89	-9.6199	-0.7469	-0.8674	-0.0810	-0.1012	-0.0765	32.4866	-9.5569	5.4441	0.4514	-0.5948	0.4433	0.4960
0.9	-9.5806	-0.7424	-0.8251	-0.0642	-0.0985	-0.0701	32.5978	-9.3052	5.5082	0.4516	-0.5946	0.4431	0.4962
0.91	-9.6565	-0.7341	-0.7982	-0.0550	-0.0949	-0.0710	32.6294	-9.2431	5.5373	0.4518	-0.5944	0.4429	0.4964
0.92	-9.6610	-0.7420	-0.7814	-0.0358	-0.0926	-0.0665	32.4861	-9.2498	5.4658	0.4521	-0.5941	0.4428	0.4966
0.93	-9.5686	-0.7320	-0.7533	-0.0343	-0.0964	-0.0604	32.3623	-9.2659	5.3151	0.4523	-0.5938	0.4426	0.4968
0.94	-9.5455	-0.7333	-0.7340	-0.0290	-0.0845	-0.0617	32.6751	-9.2261	5.4451	0.4527	-0.5936	0.4426	0.4969
0.95	-9.5433	-0.7453	-0.7291	-0.0093	-0.0664	-0.0546	32.6738	-9.3151	5.4172	0.4529	-0.5933	0.4425	0.4969
0.96	-9.5230	-0.7452	-0.7203	-0.0035	-0.0550	-0.0471	32.7182	-9.2894	5.4328	0.4532	-0.5931	0.4426	0.4970
0.97	-9.4761	-0.7267	-0.7154	0.0140	-0.0475	-0.0413	32.5672	-9.2176	5.4257	0.4534	-0.5928	0.4427	0.4969
0.98	-9.4651	-0.7037	-0.7063	0.0210	-0.0337	-0.0388	32.6388	-9.5206	5.1810	0.4537	-0.5925	0.4430	0.4968
0.99	-9.4633	-0.6979	-0.7049	0.0233	-0.0145	-0.0403	32.6859	-9.3079	5.3351	0.4540	-0.5923	0.4432	0.4967
1	-9.4254	-0.6861	-0.7178	0.0418	-0.0131	-0.0373	32.7570	-9.4516	5.2637	0.4542	-0.5920	0.4435	0.4964
1.01	-9.4067	-0.6656	-0.7191	0.0468	0.0173	-0.0402	32.8844	-9.3869	5.2260	0.4545	-0.5919	0.4439	0.4962
1.02	-9.4124	-0.6466	-0.7344	0.0435	0.0365	-0.0392	32.7261	-9.1028	5.2674	0.4546	-0.5917	0.4443	0.4958
1.03	-9.4268	-0.6458	-0.7604	0.0454	0.0493	-0.0385	32.6128	-9.1839	5.4167	0.4548	-0.5916	0.4448	0.4955
1.04	-9.4410	-0.6337	-0.7873	0.0452	0.0565	-0.0331	32.5873	-9.2286	5.4327	0.4549	-0.5914	0.4452	0.4950
1.05	-9.4822	-0.6085	-0.8157	0.0434	0.0726	-0.0365	32.7140	-9.3883	5.4148	0.4550	-0.5914	0.4458	0.4946
1.06	-9.5388	-0.5900	-0.8421	0.0445	0.0875	-0.0388	32.6553	-9.4509	5.4662	0.4550	-0.5913	0.4463	0.4941
1.07	-9.6058	-0.5775	-0.8828	0.0437	0.1020	-0.0390	32.4818	-9.3406	5.6196	0.4551	-0.5913	0.4468	0.4935
1.08	-9.6460	-0.5739	-0.9166	0.0449	0.1022	-0.0330	32.5425	-9.4225	5.6086	0.4551	-0.5913	0.4475	0.4930
1.09	-9.6790	-0.5734	-0.9432	0.0450	0.1018	-0.0327	32.7026	-9.5715	5.6233	0.4551	-0.5913	0.4480	0.4924
1.1	-9.7234	-0.5690	-0.9726	0.0413	0.1023	-0.0345	32.5073	-9.1764	5.5937	0.4551	-0.5913	0.4486	0.4919
1.11	-9.7464	-0.5564	-0.9945	0.0198	0.0946	-0.0325	32.4893	-9.2375	5.6827	0.4550	-0.5913	0.4491	0.4914
1.12	-9.7650	-0.5632	-1.0247	0.0182	0.0955	-0.0298	32.6540	-9.3522	5.9546	0.4550	-0.5914	0.4497	0.4910
1.13	-9.7492	-0.5732	-1.0422	0.0177	0.0783	-0.0281	33.1446	-9.1919	5.8030	0.4550	-0.5914	0.4502	0.4906
1.14	-9.7659	-0.5615	-1.0555	0.0186	0.0650	-0.0287	32.8321	-9.3281	5.8426	0.4550	-0.5913	0.4506	0.4902
1.15	-9.7784	-0.5642	-1.0752	0.0184	0.0571	-0.0206	32.5792	-9.3529	5.9263	0.4550	-0.5912	0.4511	0.4899
1.16	-9.7641	-0.5552	-1.0807	0.0115	0.0413	-0.0100	32.3279	-9.3038	5.7754	0.4550	-0.5911	0.4515	0.4896
1.17	-9.7853	-0.5520	-1.0914	0.0036	0.0261	-0.0230	32.4563	-9.5178	5.9134	0.4550	-0.5910	0.4519	0.4895
1.18	-9.7964	-0.5524	-1.0961	-0.0052	0.0286	-0.0193	32.4755	-9.5298	5.9403	0.4549	-0.5908	0.4522	0.4893
1.19	-9.7923	-0.5478	-1.1005	-0.0077	0.0132	-0.0191	32.6223	-9.4404	5.9106	0.4550	-0.5907	0.4526	0.4893
1.2	-9.7826	-0.5444	-1.1057	-0.0083	0.0001	-0.0207	32.6054	-9.3970	5.8078	0.4549	-0.5904	0.4529	0.4892
1.21	-9.7824	-0.5462	-1.0917	-0.0186	-0.0098	-0.0323	32.4106	-9.3369	6.1284	0.4550	-0.5903	0.4531	0.4892
1.22	-9.7720	-0.5613	-1.0891	-0.0225	-0.0229	-0.0343	32.6243	-9.3519	5.9933	0.4550	-0.5900	0.4533	0.4892
1.23	-9.7590	-0.5761	-1.0784	-0.0293	-0.0342	-0.0354	32.5225	-9.2495	6.1723	0.4551	-0.5898	0.4534	0.4893
1.24	-9.7264	-0.5805	-1.0657	-0.0314	-0.0440	-0.0345	32.4750	-9.4154	6.1675	0.4552	-0.5896	0.4535	0.4893
1.25	-9.6838	-0.5822	-1.0604	-0.0253	-0.0515	-0.0366	32.4887	-9.2225	6.0215	0.4553	-0.5893	0.4536	0.4894
1.26	-9.6214	-0.5934	-1.0455	-0.0322	-0.0512	-0.0428	32.3901	-9.4077	5.7821	0.4555	-0.5892	0.4537	0.4896
1.27	-9.6353	-0.5900	-1.0200	-0.0268	-0.0516	-0.0489	32.3744	-9.2693	6.2002	0.4556	-0.5889	0.4537	0.4896
1.28	-9.6522	-0.6074	-1.0142	-0.0322	-0.0593	-0.0477	32.2448	-9.3411	6.0370	0.4558	-0.5887	0.4538	0.4898
1.29	-9.6074	-0.6167	-1.0043	-0.0293	-0.0589	-0.0524	32.5177	-9.2775	5.6728	0.4559	-0.5884	0.4537	0.4899
1.3	-9.6121	-0.6093	-0.9805	-0.0218	-0.0563	-0.0512	32.4507	-9.0416	5.7748	0.4561	-0.5882	0.4538	0.4900
1.31	-9.6161	-0.6170	-0.9794	-0.0303	-0.0512	-0.0580	32.2049	-9.4630	5.8757	0.4563	-0.5880	0.4538	0.4901
1.32	-9.5983	-0.6306	-0.9697	-0.0314	-0.0508	-0.0627	32.2242	-9.3538	5.9840	0.4565	-0.5878	0.4538	0.4901
1.33	-9.5945	-0.6403	-0.9620	-0.0314	-0.0512	-0.0584	32.2003	-9.3568	5.6589	0.4566	-0.5877	0.4537	0.4902
1.34	-9.5864	-0.6586	-0.9641	-0.0276	-0.0464	-0.0577	32.3803	-9.4782	5.7146	0.4568	-0.5876	0.4537	0.4902
1.35	-9.5776	-0.6629	-0.9539	-0.0281	-0.0422	-0.0535	32.5818	-9.3835	5.8930	0.4570	-0.5874	0.4537	0.4902
1.36	-9.5650	-0.6541	-0.9563	-0.0268	-0.0323	-0.0528	32.5659	-9.2439	5.7160	0.4571	-0.5872	0.4537	0.4901
1.37	-9.5597	-0.6426	-0.9511	-0.0335	-0.0229	-0.0552	32.5782	-9.3899	5.7418	0.4572	-0.5872	0.4538	0.4902
1.38	-9.5870	-0.6470	-0.9487	-0.0308	-0.0140	-0.0549	32.2380	-9.7824	5.7743	0.4573	-0.5871	0.4538	0.4901
1.39	-9.5830	-0.6394	-0.9452	-0.0164	-0.0155	-0.0569	32.4884	-9.4842	5.9080	0.4575	-0.5870	0.4540	0.4900
1.4	-9.6167	-0.6465	-0.9310	-0.0298	-0.0163	-0.0620	32.4638	-9.2241	5.4836	0.4576	-0.5869	0.4540	0.4899
1.41	-9.6732	-0.6721	-0.9447	-0.0332	-0.0124	-0.0592	32.2862	-9.5464	5.6262	0.4576	-0.5869	0.4540	0.4899
1.42	-9.7126	-0.6735	-0.9505	-0.0211	-0.0142	-0.0577	32.4623	-9.4789	5.6070	0.4577	-0.5868	0.4541	0.4899
1.43	-9.7351	-0.6857	-0.9546	-0.0157	-0.0177	-0.0619	32.5894	-9.3541	5.5173	0.4578	-0.5866	0.4542	0.4898
1.44	-9.7532	-0.6964	-0.9573	-0.0068	-0.0126	-0.0560	32.5350	-9.2445	5.6908	0.4579	-0.5866	0.4544	0.4898
1.45	-9.7248	-0.6994	-0.9713	-0.0074	-0.0127	-0.0588	32.2118	-9.2862	5.7582	0.4579	-0.5865	0.4544	0.4898
1.46	-9.6134	-0.6890	-0.9691	-0.0040	-0.0151	-0.0518	32.1771	-9.2359	5.9463	0.4580	-0.5864	0.4545	0.4898
1.47	-9.6510	-0.6901	-0.9645	0.0053	-0.0121	-0.0524	32.5142	-9.3820	5.8098	0.4581	-0.5862	0.4546	0.4897
1.48	-9.7050	-0.6955	-0.9773	0.0168	-0.0102	-0.0457	32.6768	-9.4232	5.7449	0.4583	-0.5860	0.4549	0.4896
1.49	-9.6868	-0.6600	-0.9604	0.0163	-0.0257	-0.0416	32.3238	-9.3311	5.8819	0.4585	-0.5857	0.4551	0.4895
1.5	-9.7138	-0.6228	-0.9483	0.0236	-0.0206	-0.0508	32.2114	-9.3591	5.7240	0.4586	-0.5854	0.4552	0.4895
1.51	-9.7434	-0.6040	-0.9404	0.0358	-0.0272	-0.0585	32.3143	-9.3633	5.7491	0.4589	-0.5853	0.4555	0.4894
1.52	-9.7327	-0.6003	-0.9245	0.0334	-0.0454	-0.0613	32.5842	-9.4641	5.5793	0.4592	-0.5849	0.4557	0.4893
1.53	-9.7142	-0.5918	-0.9110	0.0304	-0.0492	-0.0597	32.5362	-9.4354	5.5536	0.4596	-0.5846	0.4558	0.4892
1.54	-9.6952	-0.5750	-0.8935	0.0192	-0.0554	-0.0646	32.7021	-9.4386	5.5551	0.4599	-0.5842	0.4559	0.4891
1.55	-9.6713	-0.5497	-0.8754	0.0189	-0.0573	-0.0664	32.4774	-9.4539	5.5687	0.4602	-0.5839	0.4560	0.4891
1.56	-9.6571	-0.5446	-0.8626	0.0152	-0.0656	-0.0636	32.4249	-9.4124	5.7012	0.4606	-0.5836	0.4561	0.4891
1.57	-9.6173	-0.5455	-0.8465	0.0129	-0.0682	-0.0588	32.7917	-9.5443	5.5369	0.4609	-0.5833	0.4561	0.4891
1.58	-9.6024	-0.5469	-0.8328	0.0004	-0.0684	-0.0624	32.6392	-9.4132	5.6802	0.4613	-0.5830	0.4562	0.4891
1.59	-9.5802	-0.5519	-0.8238	-0.0091	-0.0656	-0.0599	32.5287	-9.2300	5.6057	0.4615	-0.5828	0.4562	0.4891
1.6	-9.5527	-0.5543	-0.8124	-0.0076	-0.0584	-0.0538	32.4561	-9.4813	5.7482	0.4618	-0.5826	0.4562	0.4892
1.61	-9.5633	-0.5729	-0.7942	-0.0228	-0.0524	-0.0572	32.5583	-9.3384	5.6403	0.4620	-0.5823	0.4562	0.4891
1.62	-9.5906	-0.5794	-0.7877	-0.0205	-0.0503	-0.0630	32.8174	-9.2601	5.6696	0.4623	-0.5822	0.4562	0.4892
1.63	-9.5988	-0.5737	-0.7794	-0.0285	-0.0491	-0.0590	32.9839	-9.0840	5.5728	0.4624	-0.5820	0.4562	0.4892
1.64	-9.5959	-0.5858	-0.7796	-0.0347	-0.0416	-0.0642	32.8387	-9.1705	5.6200	0.4626	-0.5819	0.4562	0.4892
1.65	-9.5348	-0.5981	-0.7677	-0.0355	-0.0408	-0.0660	32.7582	-9.3238	5.5775	0.4628	-0.5818	0.4561	0.4892
1.66	-9.6138	-0.6004	-0.7636	-0.0312	-0.0291	-0.0667	32.4623	-9.4214	5.5000	0.4629	-0.5817	0.4561	0.4891
1.67	-9.6739	-0.6172	-0.7687	-0.0390	-0.0265	-0.0735	32.6393	-9.2846	5.5550	0.4631	-0.5817	0.4561	0.4891
1.68	-9.6072	-0.6237	-0.7586	-0.0422	-0.0265	-0.0742	32.6612	-9.2290	5.5114	0.4632	-0.5816	0.4560	0.4890
1.69	-9.5850	-0.6369	-0.7541	-0.0475	-0.0213	-0.0799	32.6694	-9.2601	5.5542	0.4634	-0.5817	0.4560	0.4890
1.7	-9.6185	-0.6667	-0.7545	-0.0493	-0.0209	-0.0807	32.7510	-9.2410	5.4857	0.4635	-0.5817	0.4559	0.4889
1.71	-9.6616	-0.6868	-0.7562	-0.0427	-0.0201	-0.0632	32.3057	-9.2503	5.4106	0.4635	-0.5817	0.4559	0.4889
1.72	-9.6333	-0.6876	-0.7577	-0.0474	-0.0178	-0.0625	32.7148	-9.3283	5.4621	0.4635	-0.5816	0.4558	0.4889
1.73	-9.6043	-0.6873	-0.7633	-0.0457	-0.0201	-0.0590	32.8264	-9.3576	5.5354	0.4636	-0.5816	0.4558	0.4888
1.74	-9.6477	-0.6879	-0.7758	-0.0304	-0.0175	-0.0559	32.9127	-9.2777	5.3598	0.4637	-0.5815	0.4559	0.4888
1.75	-9.6469	-0.6891	-0.7839	-0.0357	-0.0178	-0.0585	32.8444	-9.2196	5.3355	0.4637	-0.5814	0.4560	0.4888
1.76	-9.6440	-0.6938	-0.7913	-0.0374	-0.0124	-0.0591	32.7541	-9.4608	5.3663	0.4638	-0.5814	0.4561	0.4888
1.77	-9.6521	-0.7191	-0.8086	-0.0364	-0.0126	-0.0607	32.6767	-9.4091	5.4771	0.4638	-0.5813	0.4561	0.4888
1.78	-9.6773	-0.7173	-0.8100	-0.0320	-0.0118	-0.0543	32.7427	-9.4311	5.6396	0.4639	-0.5812	0.4563	0.4888
1.79	-9.7035	-0.6989	-0.8174	-0.0250	-0.0145	-0.0474	32.5627	-9.4228	5.5342	0.4639	-0.5810	0.4564	0.4887
1.8	-9.7151	-0.7057	-0.8263	-0.0295	-0.0166	-0.0483	32.4777	-9.3150	5.4177	0.4640	-0.5809	0.4565	0.4888
1.81	-9.7377	-0.7109	-0.8356	-0.0276	-0.0186	-0.0434	32.7499	-9.3581	5.6313	0.4641	-0.5807	0.4567	0.4888
1.82	-9.7250	-0.7070	-0.8486	-0.0259	-0.0283	-0.0505	32.5231	-9.2624	5.6118	0.4641	-0.5805	0.4568	0.4888
1.83	-9.7006	-0.6942	-0.8522	-0.0105	-0.0314	-0.0437	32.6098	-9.1455	5.6400	0.4643	-0.5803	0.4569	0.4888
1.84	-9.7341	-0.6861	-0.8572	-0.0082	-0.0364	-0.0489	32.6347	-9.0383	5.5775	0.4644	-0.5800	0.4571	0.4888
1.85	-9.7730	-0.6854	-0.8568	-0.0080	-0.0423	-0.0441	32.5378	-9.3492	5.5123	0.4646	-0.5798	0.4572	0.4889
1.86	-9.7644	-0.6862	-0.8557	-0.0053	-0.0548	-0.0494	32.5914	-9.2398	5.5476	0.4648	-0.5794	0.4573	0.4889
1.87	-9.7514	-0.6754	-0.8442	-0.0015	-0.0650	-0.0469	32.4324	-9.1731	5.4053	0.4651	-0.5792	0.4574	0.4890
1.88	-9.7488	-0.6627	-0.8360	-0.0040	-0.0738	-0.0458	32.3838	-9.4046	5.2932	0.4653	-0.5788	0.4574	0.4891
1.89	-9.7416	-0.6619	-0.8090	-0.0072	-0.0830	-0.0450	32.6619	-9.0100	5.2162	0.4655	-0.5785	0.4575	0.4893
1.9	-9.7189	-0.6661	-0.7899	-0.0044	-0.0981	-0.0432	32.6523	-9.3041	5.3790	0.4658	-0.5781	0.4575	0.4894
1.91	-9.7022	-0.6686	-0.7776	-0.0009	-0.1092	-0.0426	32.6672	-9.4338	5.3150	0.4662	-0.5776	0.4575	0.4897
1.92	-9.6686	-0.6746	-0.7600	-0.0013	-0.1213	-0.0394	32.8232	-9.4747	5.2341	0.4665	-0.5771	0.4575	0.4899
1.93	-9.6551	-0.6671	-0.7432	0.0009	-0.1213	-0.0456	32.8477	-9.5308	5.2857	0.4668	-0.5766	0.4574	0.4901
1.94	-9.6950	-0.6660	-0.7295	0.0022	-0.1194	-0.0490	32.7092	-9.5089	5.2348	0.4673	-0.5762	0.4574	0.4904
1.95	-9.7070	-0.6633	-0.7197	0.0105	-0.1224	-0.0500	32.6416	-9.1989	5.1356	0.4676	-0.5757	0.4573	0.4906
1.96	-9.7000	-0.6499	-0.6953	0.0158	-0.1254	-0.0539	32.6657	-9.2069	4.9453	0.4681	-0.5753	0.4573	0.4909
1.97	-9.6821	-0.6406	-0.6807	0.0157	-0.1290	-0.0547	32.6467	-9.2897	5.1089	0.4685	-0.5747	0.4572	0.4910
1.98	-9.6721	-0.6297	-0.6572	0.0143	-0.1354	-0.0543	32.7814	-9.2072	5.1243	0.4690	-0.5742	0.4572	0.4913
1.99	-9.6840	-0.6195	-0.6357	0.0187	-0.1300	-0.0491	32.7055	-9.3336	4.9206	0.4695	-0.5736	0.4572	0.4915
2	-9.6557	-0.6177	-0.6258	0.0073	-0.1288	-0.0532	32.8553	-9.3238	5.0251	0.4699	-0.5731	0.4571	0.4917
2.01	-9.6186	-0.6122	-0.6084	-0.0081	-0.1388	-0.0494	32.7065	-9.3774	4.8446	0.4703	-0.5727	0.4570	0.4920
2.02	-9.5923	-0.6046	-0.5965	-0.0039	-0.1297	-0.0542	32.8079	-9.3901	4.9331	0.4707	-0.5723	0.4568	0.4922
2.03	-9.5800	-0.5992	-0.5814	-0.0054	-0.1212	-0.0522	32.7941	-9.1253	4.7937	0.4712	-0.5719	0.4567	0.4924
2.04	-9.5453	-0.5950	-0.5670	-0.0115	-0.1151	-0.0497	32.6372	-9.2639	4.8022	0.4715	-0.5714	0.4566	0.4925
2.05	-9.5448	-0.5910	-0.5489	-0.0282	-0.1085	-0.0546	32.6493	-9.2626	4.7705	0.4718	-0.5712	0.4565	0.4928
2.06	-9.5360	-0.5875	-0.5487	-0.0320	-0.0948	-0.0555	32.5185	-9.4034	4.6793	0.4721	-0.5709	0.4563	0.4929
2.07	-9.5166	-0.5871	-0.5432	-0.0330	-0.0779	-0.0573	32.6572	-9.4783	4.7268	0.4723	-0.5707	0.4562	0.4930
2.08	-9.5376	-0.5965	-0.5395	-0.0493	-0.0705	-0.0612	32.6556	-9.1893	4.5940	0.4725	-0.5705	0.4561	0.4932
2.09	-9.5236	-0.6095	-0.5350	-0.0545	-0.0541	-0.0600	32.7908	-9.0924	4.6005	0.4726	-0.5704	0.4560	0.4933
2.1	-9.4912	-0.6224	-0.5370	-0.0659	-0.0592	-0.0634	32.8958	-9.3954	4.4169	0.4728	-0.5704	0.4559	0.4934
2.11	-9.5391	-0.6571	-0.5456	-0.0810	-0.0409	-0.0647	33.0048	-9.2251	4.5056	0.4728	-0.5703	0.4556	0.4935
2.12	-9.5886	-0.6903	-0.5484	-0.0833	-0.0377	-0.0591	33.2419	-9.3769	4.6597	0.4728	-0.5704	0.4556	0.4936
2.13	-9.6039	-0.7156	-0.5572	-0.0791	-0.0457	-0.0509	33.4503	-9.4529	4.5548	0.4728	-0.5703	0.4554	0.4937
2.14	-9.6580	-0.7328	-0.5663	-0.0678	-0.0330	-0.0443	33.1710	-9.3649	4.5024	0.4728	-0.5703	0.4554	0.4939
2.15	-9.6897	-0.7420	-0.5755	-0.0631	-0.0418	-0.0417	32.8994	-9.2765	4.3684	0.4728	-0.5702	0.4553	0.4940
2.16	-9.6742	-0.7537	-0.5772	-0.0604	-0.0347	-0.0374	32.6925	-9.1978	4.4660	0.4728	-0.5701	0.4553	0.4941
2.17	-9.6596	-0.7669	-0.5719	-0.0597	-0.0338	-0.0355	32.6500	-9.1178	4.7247	0.4728	-0.5700	0.4553	0.4942
2.18	-9.6468	-0.7672	-0.5793	-0.0477	-0.0345	-0.0340	32.7094	-9.1032	4.3933	0.4728	-0.5698	0.4553	0.4942
2.19	-9.6592	-0.7574	-0.5725	-0.0330	-0.0310	-0.0330	32.5638	-9.1328	4.4781	0.4730	-0.5697	0.4555	0.4943
2.2	-9.6574	-0.7349	-0.5646	-0.0181	-0.0282	-0.0300	32.6082	-9.2215	4.6763	0.4730	-0.5695	0.4556	0.4943
2.21	-9.6296	-0.7177	-0.5491	-0.0087	-0.0326	-0.0318	32.5827	-9.1866	4.2727	0.4732	-0.5694	0.4557	0.4944
2.22	-9.6028	-0.7002	-0.5478	-0.0059	-0.0310	-0.0348	32.6095	-9.2970	4.2322	0.4733	-0.5691	0.4558	0.4943
2.23	-9.5833	-0.6788	-0.5437	-0.0035	-0.0289	-0.0339	32.3245	-9.1847	4.2903	0.4733	-0.5690	0.4559	0.4944
2.24	-9.5586	-0.6479	-0.5356	0.0128	-0.0267	-0.0384	32.5634	-9.2100	4.3671	0.4735	-0.5688	0.4560	0.4943
2.25	-9.5185	-0.6227	-0.5339	0.0152	-0.0252	-0.0418	32.5417	-9.1955	4.3285	0.4736	-0.5686	0.4561	0.4943
2.26	-9.5154	-0.5900	-0.5164	0.0208	-0.0085	-0.0443	32.3673	-9.2997	4.4646	0.4738	-0.5685	0.4563	0.4943
2.27	-9.5431	-0.5717	-0.5074	0.0161	-0.0045	-0.0573	32.6145	-9.3050	4.4183	0.4739	-0.5683	0.4565	0.4940
2.28	-9.5426	-0.5578	-0.5090	0.0122	0.0006	-0.0594	32.7231	-9.4684	4.2566	0.4742	-0.5682	0.4567	0.4938
2.29	-9.5413	-0.5429	-0.5067	0.0064	0.0103	-0.0565	32.5564	-9.4740	4.2737	0.4742	-0.5681	0.4568	0.4935
2.3	-9.5245	-0.5289	-0.5171	-0.0063	0.0205	-0.0580	32.7371	-9.3398	4.2312	0.4744	-0.5681	0.4570	0.4934
2.31	-9.5075	-0.5211	-0.5227	-0.0153	0.0306	-0.0562	32.7693	-9.2762	4.3406	0.4744	-0.5681	0.4572	0.4931
2.32	-9.5087	-0.5170	-0.5294	-0.0348	0.0417	-0.0550	32.7880	-9.5852	4.5961	0.4743	-0.5681	0.4574	0.4929
2.33	-9.5340	-0.5125	-0.5382	-0.0294	0.0568	-0.0596	32.6443	-9.4294	4.3018	0.4743	-0.5683	0.4577	0.4927
2.34	-9.5878	-0.5189	-0.5491	-0.0501	0.0609	-0.0632	32.6071	-9.2615	4.3974	0.4742	-0.5684	0.4578	0.4924
2.35	-9.6230	-0.5228	-0.5612	-0.0592	0.0691	-0.0598	32.7220	-9.4965	4.4691	0.4740	-0.5687	0.4580	0.4922
2.36	-9.5548	-0.5352	-0.5682	-0.0627	0.0699	-0.0600	32.5778	-9.3736	4.4232	0.4738	-0.5688	0.4581	0.4919
2.37	-9.5569	-0.5425	-0.5824	-0.0765	0.0876	-0.0620	32.5881	-9.2673	4.4683	0.4736	-0.5692	0.4583	0.4917
2.38	-9.6995	-0.5501	-0.6028	-0.0770	0.0892	-0.0687	32.4556	-9.1593	4.5497	0.4732	-0.5696	0.4583	0.4915
2.39	-9.7090	-0.5715	-0.6231	-0.0828	0.0845	-0.0724	32.5957	-9.2952	4.5254	0.4729	-0.5700	0.4584	0.4913
2.4	-9.6588	-0.5874	-0.6368	-0.0878	0.0847	-0.0762	32.5892	-9.2809	4.5297	0.4727	-0.5703	0.4585	0.4910
2.41	-9.6755	-0.6267	-0.6633	-0.0849	0.0880	-0.0812	32.5955	-9.1824	4.8045	0.4724	-0.5707	0.4586	0.4907
2.42	-9.7288	-0.6721	-0.6911	-0.0850	0.0771	-0.0739	32.5886	-9.2026	4.5543	0.4722	-0.5710	0.4587	0.4905
2.43	-9.7906	-0.6838	-0.7099	-0.0839	0.0779	-0.0708	32.5979	-9.2084	4.5915	0.4719	-0.5713	0.4588	0.4902
2.44	-9.8078	-0.6926	-0.7273	-0.0791	0.0628	-0.0704	32.5787	-9.1809	4.7565	0.4718	-0.5717	0.4589	0.4900
2.45	-9.8030	-0.7108	-0.7397	-0.0760	0.0504	-0.0730	32.6390	-8.9480	4.8289	0.4716	-0.5719	0.4589	0.4898
2.46	-9.8031	-0.7207	-0.7493	-0.0662	0.0387	-0.0643	32.6826	-9.1600	4.7395	0.4715	-0.5720	0.4591	0.4898
2.47	-9.7785	-0.7372	-0.7591	-0.0586	0.0274	-0.0760	32.3183	-9.4083	4.6164	0.4712	-0.5721	0.4590	0.4897
2.48	-9.7554	-0.7465	-0.7713	-0.0555	0.0191	-0.0810	32.8933	-9.3472	4.6259	0.4712	-0.5723	0.4591	0.4896
2.49	-9.7354	-0.7439	-0.7702	-0.0540	0.0074	-0.0785	33.0415	-9.2450	4.8432	0.4712	-0.5723	0.4591	0.4895
2.5	-9.7189	-0.7490	-0.7700	-0.0394	0.0052	-0.0805	32.8379	-9.3795	4.6383	0.4712	-0.5723	0.4591	0.4894
2.51	-9.7202	-0.7479	-0.7715	-0.0335	-0.0000	-0.0649	32.8530	-9.3749	4.6235	0.4713	-0.5723	0.4593	0.4894
2.52	-9.7058	-0.7378	-0.7717	-0.0313	-0.0112	-0.0627	32.6221	-9.2364	4.9087	0.4713	-0.5722	0.4593	0.4893
2.53	-9.7011	-0.7262	-0.7605	-0.0262	-0.0163	-0.0553	32.7249	-9.3777	4.6403	0.4714	-0.5721	0.4594	0.4893
2.54	-9.7038	-0.7173	-0.7534	-0.0327	-0.0205	-0.0466	32.5673	-9.3691	4.6101	0.4714	-0.5719	0.4595	0.4893
2.55	-9.6993	-0.7027	-0.7368	-0.0277	-0.0213	-0.0479	32.6038	-9.2853	4.8758	0.4715	-0.5718	0.4596	0.4894
2.56	-9.7015	-0.7009	-0.7302	-0.0288	-0.0185	-0.0439	32.5830	-9.2429	4.9147	0.4716	-0.5717	0.4597	0.4894
2.57	-9.6806	-0.7056	-0.7237	-0.0336	-0.0267	-0.0411	32.6092	-9.1738	4.8469	0.4716	-0.5715	0.4598	0.4894
2.58	-9.6595	-0.6934	-0.7022	-0.0279	-0.0371	-0.0349	32.4820	-9.2226	4.5686	0.4717	-0.5713	0.4599	0.4896
2.59	-9.6480	-0.6973	-0.7034	-0.0325	-0.0284	-0.0345	32.5266	-9.0475	4.6877	0.4716	-0.5711	0.4599	0.4897
2.6	-9.6357	-0.6966	-0.6897	-0.0280	-0.0321	-0.0355	32.4431	-9.2222	4.9122	0.4717	-0.5710	0.4600	0.4898
2.61	-9.6325	-0.6864	-0.6778	-0.0276	-0.0302	-0.0332	32.3789	-9.0959	4.8974	0.4715	-0.5708	0.4600	0.4900
2.62	-9.6272	-0.6827	-0.6643	-0.0216	-0.0273	-0.0327	32.6687	-9.0376	4.7800	0.4717	-0.5707	0.4602	0.4901
2.63	-9.6136	-0.6746	-0.6519	-0.0102	-0.0201	-0.0347	32.9913	-8.9466	5.0020	0.4717	-0.5705	0.4603	0.4900
2.64	-9.5989	-0.6605	-0.6464	-0.0111	-0.0230	-0.0324	32.8367	-9.0238	4.9082	0.4719	-0.5703	0.4605	0.4900
2.65	-9.6059	-0.6591	-0.6423	-0.0041	-0.0207	-0.0318	32.6672	-9.1769	4.8062	0.4720	-0.5701	0.4606	0.4899
2.66	-9.6115	-0.6463	-0.6306	-0.0081	-0.0163	-0.0337	32.5574	-9.3708	4.7323	0.4721	-0.5699	0.4608	0.4899
2.67	-9.5912	-0.6414	-0.6292	0.0046	-0.0070	-0.0351	32.4733	-9.4659	4.7644	0.4722	-0.5698	0.4610	0.4898
2.68	-9.5875	-0.6370	-0.6243	-0.0019	-0.0095	-0.0345	32.7460	-9.3618	4.8395	0.4723	-0.5695	0.4612	0.4896
2.69	-9.5900	-0.6321	-0.6224	0.0007	-0.0016	-0.0338	32.8066	-9.5540	4.6805	0.4724	-0.5695	0.4615	0.4896
2.7	-9.5865	-0.6298	-0.6197	0.0088	0.0001	-0.0402	32.6840	-9.4178	4.9148	0.4725	-0.5693	0.4617	0.4894
2.71	-9.6076	-0.6184	-0.6196	0.0120	0.0026	-0.0421	32.5383	-9.4326	4.8238	0.4727	-0.5692	0.4619	0.4893
2.72	-9.5914	-0.6113	-0.6138	0.0041	0.0066	-0.0458	32.5619	-9.2836	4.7965	0.4728	-0.5690	0.4621	0.4890
2.73	-9.6017	-0.6212	-0.6166	-0.0006	0.0097	-0.0473	32.6222	-9.3871	4.8061	0.4729	-0.5689	0.4623	0.4889
2.74	-9.6161	-0.6200	-0.6186	0.0070	0.0109	-0.0535	32.7102	-9.3219	4.6387	0.4730	-0.5688	0.4626	0.4887
2.75	-9.6004	-0.6118	-0.6132	0.0025	0.0142	-0.0486	32.6537	-9.1672	4.9083	0.4731	-0.5687	0.4627	0.4884
2.76	-9.6046	-0.6121	-0.6222	-0.0032	0.0252	-0.0541	32.5365	-9.4735	4.9819	0.4732	-0.5687	0.4630	0.4882
2.77	-9.5993	-0.6073	-0.6257	-0.0027	0.0293	-0.0567	32.6610	-9.3489	4.9027	0.4732	-0.5686	0.4632	0.4880
2.78	-9.5556	-0.6008	-0.6351	-0.0114	0.0308	-0.0569	32.6392	-9.2943	5.0484	0.4733	-0.5687	0.4635	0.4877
2.79	-9.5548	-0.6055	-0.6430	-0.0085	0.0441	-0.0610	32.5486	-9.4152	4.8667	0.4733	-0.5686	0.4636	0.4874
2.8	-9.5947	-0.6236	-0.6632	-0.0123	0.0522	-0.0710	32.3172	-9.5161	4.8139	0.4733	-0.5688	0.4638	0.4872
2.81	-9.6073	-0.6402	-0.6687	-0.0292	0.0482	-0.0719	32.5755	-9.3094	4.9676	0.4733	-0.5689	0.4640	0.4869
2.82	-9.6397	-0.6480	-0.6858	-0.0250	0.0519	-0.0753	32.4532	-9.3905	5.0053	0.4732	-0.5691	0.4641	0.4866
2.83	-9.6983	-0.6586	-0.6953	-0.0175	0.0539	-0.0688	32.4614	-9.4279	5.0670	0.4733	-0.5692	0.4644	0.4863
2.84	-9.7133	-0.6814	-0.7068	-0.0125	0.0523	-0.0736	32.4408	-9.3760	4.8606	0.4733	-0.5693	0.4645	0.4859
2.85	-9.6741	-0.6953	-0.7228	-0.0196	0.0433	-0.0712	32.5119	-9.2728	5.1290	0.4733	-0.5694	0.4647	0.4856
2.86	-9.6377	-0.7125	-0.7328	-0.0220	0.0419	-0.0676	32.6262	-9.5004	4.8959	0.4732	-0.5694	0.4649	0.4853
2.87	-9.6453	-0.7200	-0.7523	-0.0103	0.0475	-0.0622	32.8714	-9.5031	4.8933	0.4733	-0.5695	0.4652	0.4852
2.88	-9.6799	-0.7232	-0.7728	-0.0034	0.0456	-0.0509	32.7266	-9.4650	4.9329	0.4732	-0.5694	0.4655	0.4849
2.89	-9.7039	-0.7204	-0.7778	-0.0024	0.0333	-0.0438	32.8034	-9.3080	5.0975	0.4732	-0.5693	0.4658	0.4847
2.9	-9.7329	-0.7053	-0.7876	-0.0063	0.0393	-0.0493	32.7257	-9.3321	4.9844	0.4732	-0.5693	0.4661	0.4845
2.91	-9.7499	-0.6999	-0.8008	0.0013	0.0345	-0.0404	32.7266	-9.0457	4.9830	0.4732	-0.5692	0.4664	0.4843
2.92	-9.7498	-0.6919	-0.8049	0.0009	0.0229	-0.0486	32.4944	-9.3269	5.1992	0.4733	-0.5691	0.4667	0.4842
2.93	-9.7453	-0.6893	-0.8120	0.0111	0.0144	-0.0564	32.4391	-9.5378	5.0771	0.4733	-0.5689	0.4669	0.4839
2.94	-9.7289	-0.6823	-0.8127	0.0130	0.0106	-0.0566	32.3587	-9.2683	4.9949	0.4734	-0.5689	0.4671	0.4839
2.95	-9.7069	-0.6704	-0.8029	0.0090	-0.0003	-0.0577	32.5369	-9.3509	5.2554	0.4735	-0.5687	0.4673	0.4837
2.96	-9.7116	-0.6577	-0.7990	-0.0010	0.0008	-0.0517	32.5217	-9.2759	5.3331	0.4737	-0.5686	0.4675	0.4836
2.97	-9.7129	-0.6399	-0.7925	0.0125	-0.0008	-0.0572	32.7523	-9.4506	5.3850	0.4738	-0.5684	0.4677	0.4833
2.98	-9.6938	-0.6309	-0.7876	0.0028	-0.0093	-0.0533	32.5670	-9.2153	5.2114	0.4739	-0.5683	0.4679	0.4833
2.99	-9.6802	-0.6233	-0.7822	-0.0003	-0.0127	-0.0515	32.5810	-9.1579	5.3379	0.4741	-0.5681	0.4681	0.4832
3	-9.6630	-0.6142	-0.7736	-0.0016	-0.0117	-0.0547	32.3597	-9.3279	5.3766	0.4741	-0.5679	0.4682	0.4831
3.01	-9.6497	-0.6047	-0.7656	-0.0068	-0.0188	-0.0549	32.4843	-9.3339	5.1490	0.4743	-0.5678	0.4683	0.4831
3.02	-9.6428	-0.6037	-0.7587	-0.0076	-0.0171	-0.0532	32.6817	-9.2708	5.0238	0.4744	-0.5676	0.4684	0.4830
3.03	-9.6347	-0.6055	-0.7445	-0.0048	-0.0179	-0.0545	32.3881	-9.4813	4.9763	0.4745	-0.5675	0.4686	0.4830
3.04	-9.6437	-0.6157	-0.7380	-0.0110	-0.0121	-0.0592	32.6701	-9.4121	5.0682	0.4746	-0.5673	0.4687	0.4829
3.05	-9.5923	-0.6228	-0.7415	-0.0245	-0.0166	-0.0576	32.7098	-9.3041	5.2456	0.4748	-0.5673	0.4688	0.4828
3.06	-9.5321	-0.6143	-0.7294	-0.0302	-0.0088	-0.0571	32.6091	-9.4646	5.2177	0.4748	-0.5672	0.4688	0.4827
3.07	-9.6393	-0.6178	-0.7306	-0.0314	0.0064	-0.0609	32.6435	-9.5951	5.1752	0.4749	-0.5672	0.4689	0.4826
3.08	-9.6725	-0.6369	-0.7303	-0.0326	0.0053	-0.0600	32.6305	-9.4665	5.1619	0.4749	-0.5672	0.4690	0.4826
3.09	-9.5696	-0.6294	-0.7218	-0.0314	0.0038	-0.0582	32.6295	-9.2786	5.0915	0.4749	-0.5671	0.4691	0.4824
3.1	-9.5672	-0.6496	-0.7217	-0.0314	0.0141	-0.0686	32.4442	-9.3324	5.2110	0.4750	-0.5672	0.4692	0.4823
3.11	-9.6111	-0.6801	-0.7355	-0.0358	0.0160	-0.0696	32.5219	-9.3189	5.1401	0.4750	-0.5672	0.4692	0.4820
3.12	-9.6150	-0.6783	-0.7397	-0.0404	0.0115	-0.0627	32.9000	-9.2963	5.4260	0.4750	-0.5673	0.4694	0.4820
3.13	-9.5967	-0.6799	-0.7417	-0.0391	0.0144	-0.0614	33.2101	-9.2052	5.2914	0.4750	-0.5673	0.4694	0.4818
3.14	-9.6270	-0.6868	-0.7511	-0.0375	0.0244	-0.0564	33.0231	-9.2050	5.2346	0.4750	-0.5674	0.4696	0.4817
3.15	-9.6384	-0.6888	-0.7599	-0.0383	0.0273	-0.0581	32.5922	-9.1246	5.2542	0.4750	-0.5674	0.4697	0.4815
3.16	-9.6260	-0.6999	-0.7710	-0.0346	0.0238	-0.0598	32.2705	-9.2415	5.2523	0.4749	-0.5675	0.4697	0.4815
3.17	-9.6131	-0.7048	-0.7761	-0.0310	0.0302	-0.0638	32.1918	-9.2201	5.0713	0.4747	-0.5676	0.4698	0.4814
3.18	-9.6226	-0.7090	-0.7793	-0.0296	0.0332	-0.0659	32.4929	-8.9122	5.1579	0.4747	-0.5676	0.4699	0.4812
3.19	-9.6356	-0.7148	-0.7863	-0.0298	0.0320	-0.0703	32.3881	-9.0831	5.3861	0.4747	-0.5678	0.4701	0.4811
3.2	-9.6442	-0.7133	-0.7952	-0.0218	0.0366	-0.0619	32.4300	-9.1266	5.2084	0.4746	-0.5678	0.4702	0.4809
3.21	-9.6492	-0.7102	-0.8033	-0.0207	0.0314	-0.0582	32.5856	-9.1733	5.3586	0.4746	-0.5679	0.4704	0.4807
3.22	-9.6490	-0.7048	-0.8140	-0.0088	0.0242	-0.0529	32.5018	-9.3287	5.3771	0.4746	-0.5677	0.4706	0.4805
3.23	-9.6520	-0.7025	-0.8264	-0.0146	0.0266	-0.0536	32.6752	-9.2762	5.2138	0.4746	-0.5677	0.4708	0.4804
3.24	-9.6563	-0.6975	-0.8347	-0.0155	0.0248	-0.0617	32.7619	-9.3362	5.1792	0.4746	-0.5677	0.4710	0.4802
3.25	-9.6738	-0.7006	-0.8408	-0.0183	0.0294	-0.0559	32.8418	-9.1934	5.1586	0.4746	-0.5677	0.4712	0.4800
3.26	-9.6894	-0.7011	-0.8489	-0.0234	0.0277	-0.0541	32.6654	-9.2410	5.3109	0.4746	-0.5677	0.4715	0.4799
3.27	-9.6821	-0.6973	-0.8524	-0.0229	0.0153	-0.0492	32.4973	-9.2913	5.3540	0.4746	-0.5676	0.4716	0.4797
3.28	-9.6853	-0.7024	-0.8646	-0.0104	0.0215	-0.0534	32.5644	-9.3832	5.4365	0.4746	-0.5676	0.4718	0.4796
3.29	-9.6839	-0.7039	-0.8634	-0.0075	0.0184	-0.0441	32.4323	-9.2956	5.4687	0.4746	-0.5674	0.4720	0.4794
3.3	-9.6753	-0.7012	-0.8646	-0.0046	0.0077	-0.0435	32.4457	-9.3252	5.2215	0.4747	-0.5674	0.4723	0.4793
3.31	-9.6720	-0.6979	-0.8666	-0.0035	0.0055	-0.0446	32.4547	-9.3875	5.3001	0.4747	-0.5672	0.4725	0.4792
3.32	-9.6720	-0.6871	-0.8674	-0.0077	0.0124	-0.0499	32.3769	-9.1911	5.2329	0.4747	-0.5672	0.4726	0.4791
3.33	-9.6813	-0.6797	-0.8646	-0.0059	0.0103	-0.0449	32.3304	-9.1407	5.4859	0.4748	-0.5671	0.4729	0.4790
3.34	-9.6976	-0.6725	-0.8593	-0.0062	0.0057	-0.0432	32.4046	-9.0893	5.4342	0.4747	-0.5670	0.4730	0.4789
3.35	-9.7290	-0.6628	-0.8652	-0.0041	-0.0042	-0.0401	32.4616	-9.0012	5.6837	0.4748	-0.5669	0.4732	0.4789
3.36	-9.7310	-0.6487	-0.8679	-0.0083	-0.0074	-0.0396	32.4380	-9.1409	5.4228	0.4749	-0.5666	0.4734	0.4788
3.37	-9.7133	-0.6380	-0.8664	-0.0061	-0.0170	-0.0334	32.5522	-9.0061	5.4874	0.4750	-0.5665	0.4736	0.4788
3.38	-9.7141	-0.6319	-0.8651	-0.0074	-0.0232	-0.0387	32.3860	-9.0752	5.5174	0.4751	-0.5662	0.4738	0.4787
3.39	-9.6955	-0.6247	-0.8600	-0.0105	-0.0292	-0.0375	32.5622	-9.2062	5.4093	0.4752	-0.5661	0.4739	0.4788
3.4	-9.6671	-0.6261	-0.8574	-0.0094	-0.0363	-0.0376	32.4160	-9.3002	5.5835	0.4753	-0.5658	0.4740	0.4788
3.41	-9.6312	-0.6255	-0.8503	-0.0095	-0.0340	-0.0360	32.4880	-9.4386	5.2573	0.4754	-0.5656	0.4742	0.4788
3.42	-9.6001	-0.6247	-0.8480	-0.0125	-0.0284	-0.0361	32.7352	-9.2954	5.1236	0.4756	-0.5654	0.4743	0.4788
3.43	-9.5784	-0.6261	-0.8401	-0.0265	-0.0288	-0.0402	32.6963	-9.3855	5.3670	0.4756	-0.5652	0.4743	0.4788
3.44	-9.5679	-0.6324	-0.8396	-0.0298	-0.0232	-0.0473	32.6329	-9.3776	5.4804	0.4758	-0.5652	0.4744	0.4788
3.45	-9.5432	-0.6376	-0.8442	-0.0325	-0.0247	-0.0444	32.5809	-9.4292	5.1187	0.4758	-0.5650	0.4744	0.4788
3.46	-9.5370	-0.6331	-0.8325	-0.0328	-0.0160	-0.0506	32.5032	-9.5002	5.1163	0.4759	-0.5650	0.4745	0.4788
3.47	-9.5687	-0.6375	-0.8449	-0.0329	-0.0050	-0.0567	32.6411	-9.4730	5.4184	0.4759	-0.5649	0.4745	0.4786
3.48	-9.6073	-0.6371	-0.8489	-0.0327	0.0054	-0.0601	32.4937	-9.2291	5.3091	0.4760	-0.5649	0.4746	0.4786
3.49	-9.6239	-0.6409	-0.8527	-0.0331	0.0093	-0.0586	32.5845	-9.2455	5.2866	0.4760	-0.5650	0.4747	0.4784
3.5	-9.6238	-0.6426	-0.8640	-0.0325	0.0119	-0.0621	32.3576	-9.3573	5.4933	0.4760	-0.5649	0.4748	0.4783
3.51	-9.6360	-0.6362	-0.8776	-0.0391	0.0123	-0.0692	32.3526	-9.0509	5.3134	0.4760	-0.5651	0.4748	0.4782
3.52	-9.6545	-0.6460	-0.8823	-0.0527	0.0143	-0.0729	32.3660	-8.9508	5.4086	0.4759	-0.5652	0.4747	0.4782
3.53	-9.6460	-0.6571	-0.8851	-0.0539	0.0124	-0.0695	32.3505	-9.3488	5.4678	0.4758	-0.5654	0.4747	0.4782
3.54	-9.6449	-0.6717	-0.8963	-0.0459	0.0090	-0.0688	32.3578	-9.1139	5.4465	0.4757	-0.5654	0.4747	0.4781
3.55	-9.6749	-0.6984	-0.8986	-0.0539	0.0069	-0.0695	32.4689	-8.9031	5.4383	0.4757	-0.5655	0.4747	0.4780
3.56	-9.7306	-0.7082	-0.9006	-0.0502	0.0046	-0.0636	32.4302	-9.1726	5.4889	0.4757	-0.5655	0.4748	0.4780
3.57	-9.7528	-0.7264	-0.9039	-0.0352	-0.0052	-0.0695	32.5066	-9.2512	5.5977	0.4758	-0.5655	0.4748	0.4779
3.58	-9.7099	-0.7485	-0.9053	-0.0433	-0.0108	-0.0691	32.6714	-8.9860	5.3860	0.4758	-0.5655	0.4749	0.4779
3.59	-9.6487	-0.7668	-0.9054	-0.0341	-0.0143	-0.0609	32.4226	-9.2288	5.5410	0.4759	-0.5654	0.4749	0.4778
3.6	-9.6298	-0.7879	-0.9000	-0.0311	-0.0168	-0.0601	32.3608	-9.5423	5.2273	0.4760	-0.5654	0.4750	0.4778
3.61	-9.6385	-0.7840	-0.8984	-0.0259	-0.0179	-0.0455	32.6454	-9.2839	5.2194	0.4760	-0.5652	0.4750	0.4777
3.62	-9.6387	-0.7763	-0.8971	-0.0069	-0.0157	-0.0461	32.7282	-9.0983	5.7497	0.4761	-0.5651	0.4752	0.4777
3.63	-9.6454	-0.7598	-0.8905	0.0052	-0.0149	-0.0410	33.0252	-9.1125	5.5437	0.4762	-0.5649	0.4754	0.4776
3.64	-9.6334	-0.7433	-0.8829	0.0120	-0.0162	-0.0403	32.8350	-9.1946	5.5484	0.4764	-0.5646	0.4756	0.4776
3.65	-9.6229	-0.7289	-0.8734	0.0116	-0.0241	-0.0443	32.6106	-9.3288	5.4462	0.4766	-0.5644	0.4758	0.4775
3.66	-9.6266	-0.7170	-0.8752	0.0191	-0.0164	-0.0420	32.4293	-9.2334	5.4154	0.4768	-0.5642	0.4760	0.4774
3.67	-9.6050	-0.7000	-0.8692	0.0187	-0.0138	-0.0466	32.4367	-9.1508	5.4800	0.4770	-0.5640	0.4762	0.4772
3.68	-9.5962	-0.6833	-0.8596	0.0166	-0.0183	-0.0434	32.4664	-9.4467	5.6526	0.4771	-0.5637	0.4763	0.4770
3.69	-9.6171	-0.6596	-0.8597	0.0205	-0.0082	-0.0500	32.5529	-9.1500	5.4894	0.4774	-0.5636	0.4766	0.4769
3.7	-9.6261	-0.6433	-0.8571	0.0193	-0.0040	-0.0521	32.5393	-9.0418	5.4196	0.4775	-0.5633	0.4768	0.4767
3.71	-9.6395	-0.6211	-0.8515	0.0186	0.0017	-0.0502	32.3328	-9.2495	5.4335	0.4776	-0.5633	0.4770	0.4766
3.72	-9.6296	-0.6164	-0.8564	0.0048	-0.0066	-0.0512	32.4859	-9.2161	5.5231	0.4777	-0.5631	0.4771	0.4765
3.73	-9.6193	-0.6164	-0.8566	-0.0062	-0.0052	-0.0485	32.6468	-9.1151	5.6643	0.4778	-0.5629	0.4774	0.4764
3.74	-9.6353	-0.6118	-0.8586	-0.0107	-0.0048	-0.0490	32.3044	-9.3488	5.3567	0.4779	-0.5629	0.4775	0.4763
3.75	-9.6519	-0.6166	-0.8575	-0.0194	-0.0065	-0.0502	32.5425	-9.1562	5.4040	0.4779	-0.5627	0.4775	0.4762
3.76	-9.6684	-0.6215	-0.8627	-0.0343	-0.0048	-0.0529	32.5708	-9.0250	5.6547	0.4780	-0.5627	0.4777	0.4762
3.77	-9.6879	-0.6376	-0.8695	-0.0322	-0.0085	-0.0481	32.2207	-9.0595	5.6078	0.4779	-0.5627	0.4777	0.4762
3.78	-9.7136	-0.6432	-0.8699	-0.0330	-0.0045	-0.0480	32.4808	-9.0736	5.5822	0.4779	-0.5627	0.4778	0.4762
3.79	-9.6743	-0.6531	-0.8646	-0.0333	-0.0195	-0.0432	32.6807	-9.3472	5.3928	0.4779	-0.5625	0.4779	0.4761
3.8	-9.6203	-0.6540	-0.8606	-0.0317	-0.0207	-0.0413	32.2613	-9.3932	5.6132	0.4780	-0.5624	0.4780	0.4762
3.81	-9.7281	-0.6496	-0.8578	-0.0331	-0.0179	-0.0535	32.4864	-9.4523	5.5631	0.4781	-0.5623	0.4780	0.4762
3.82	-9.7519	-0.6614	-0.8505	-0.0324	-0.0252	-0.0471	32.6479	-9.4771	5.2397	0.4781	-0.5622	0.4781	0.4762
3.83	-9.6444	-0.6625	-0.8342	-0.0343	-0.0420	-0.0557	32.5329	-9.0536	5.2492	0.4782	-0.5621	0.4781	0.4763
3.84	-9.6356	-0.6718	-0.8152	-0.0336	-0.0353	-0.0471	32.6880	-9.1028	5.4021	0.4783	-0.5619	0.4781	0.4763
3.85	-9.6597	-0.6852	-0.8184	-0.0321	-0.0330	-0.0467	32.5393	-9.3389	5.4445	0.4784	-0.5618	0.4782	0.4764
3.86	-9.6203	-0.6848	-0.8057	-0.0329	-0.0398	-0.0536	32.6358	-9.2233	5.5050	0.4785	-0.5616	0.4781	0.4763
3.87	-9.5932	-0.6699	-0.7901	-0.0322	-0.0280	-0.0459	32.5237	-9.3144	5.6796	0.4786	-0.5615	0.4782	0.4764
3.88	-9.6109	-0.6627	-0.7887	-0.0330	-0.0258	-0.0455	32.5734	-9.1821	5.5265	0.4787	-0.5614	0.4783	0.4764
3.89	-9.6129	-0.6612	-0.7898	-0.0333	-0.0184	-0.0563	32.4604	-9.3095	5.3275	0.4788	-0.5614	0.4783	0.4764
3.9	-9.6085	-0.6690	-0.7878	-0.0337	-0.0122	-0.0537	32.4554	-9.3302	5.3558	0.4788	-0.5613	0.4783	0.4763
3.91	-9.6211	-0.6759	-0.7897	-0.0328	-0.0112	-0.0630	32.5663	-9.2839	5.3448	0.4789	-0.5612	0.4784	0.4762
3.92	-9.6367	-0.6725	-0.7924	-0.0312	-0.0091	-0.0647	32.3415	-9.3977	5.5462	0.4790	-0.5612	0.4785	0.4762
3.93	-9.6461	-0.6733	-0.7930	-0.0331	-0.0120	-0.0577	32.4500	-9.3229	5.5047	0.4790	-0.5611	0.4785	0.4761
3.94	-9.6603	-0.6787	-0.7926	-0.0313	-0.0076	-0.0645	32.5652	-9.3109	5.5801	0.4791	-0.5611	0.4786	0.4760
3.95	-9.6520	-0.6778	-0.7892	-0.0326	-0.0082	-0.0535	32.6848	-9.3020	5.5732	0.4791	-0.5610	0.4786	0.4759
3.96	-9.6406	-0.6831	-0.7861	-0.0302	-0.0207	-0.0602	32.5003	-9.3515	5.3130	0.4793	-0.5610	0.4787	0.4760
3.97	-9.6393	-0.6915	-0.7929	-0.0336	-0.0192	-0.0566	32.3211	-9.1054	5.3600	0.4792	-0.5609	0.4786	0.4759
3.98	-9.6316	-0.6995	-0.7935	-0.0349	-0.0210	-0.0597	32.7733	-9.1833	5.3315	0.4793	-0.5609	0.4787	0.4759
3.99	-9.6177	-0.7000	-0.7887	-0.0320	-0.0134	-0.0606	32.6194	-9.2109	5.3583	0.4794	-0.5608	0.4787	0.4759
4	-9.6292	-0.7128	-0.7987	-0.0337	-0.0157	-0.0524	32.7485	-9.3740	5.3288	0.4794	-0.5607	0.4788	0.4758
4.01	-9.6484	-0.7221	-0.8045	-0.0310	-0.0061	-0.0480	32.4837	-9.5201	5.4757	0.4795	-0.5607	0.4789	0.4759
4.02	-9.6488	-0.7269	-0.8048	-0.0327	-0.0108	-0.0507	32.3638	-9.3344	5.5465	0.4795	-0.5606	0.4790	0.4758
4.03	-9.6563	-0.7301	-0.8020	-0.0318	-0.0214	-0.0464	32.5053	-9.2674	5.5304	0.4796	-0.5605	0.4791	0.4758
4.04	-9.6629	-0.7331	-0.8079	-0.0342	-0.0132	-0.0471	32.4152	-9.1092	5.4466	0.4796	-0.5604	0.4791	0.4757
4.05	-9.6704	-0.7358	-0.8063	-0.0186	-0.0174	-0.0456	32.6147	-9.1693	5.4075	0.4797	-0.5603	0.4793	0.4757
4.06	-9.6739	-0.7348	-0.8061	-0.0053	-0.0154	-0.0437	32.6076	-9.4229	5.3258	0.4798	-0.5601	0.4794	0.4756
4.07	-9.6708	-0.7268	-0.8031	-0.0100	-0.0147	-0.0467	32.4377	-9.3316	5.3724	0.4799	-0.5600	0.4795	0.4756
4.08	-9.6534	-0.7254	-0.8013	-0.0066	-0.0127	-0.0415	32.4759	-9.2105	5.2191	0.4800	-0.5599	0.4797	0.4755
4.09	-9.6456	-0.7141	-0.7944	-0.0074	-0.0142	-0.0407	32.2889	-9.1068	5.4302	0.4800	-0.5598	0.4797	0.4755
4.1	-9.6533	-0.7037	-0.8009	-0.0066	-0.0093	-0.0473	32.3259	-9.2070	5.6181	0.4801	-0.5597	0.4799	0.4755
4.11	-9.6403	-0.6931	-0.7962	-0.0015	-0.0109	-0.0419	32.4588	-9.2393	5.6317	0.4801	-0.5594	0.4800	0.4753
4.12	-9.6336	-0.6778	-0.7908	-0.0041	-0.0105	-0.0377	32.5758	-9.2111	5.6009	0.4803	-0.5593	0.4802	0.4753
4.13	-9.6383	-0.6705	-0.7830	-0.0054	-0.0159	-0.0390	32.9970	-8.9119	5.6577	0.4804	-0.5591	0.4804	0.4752
4.14	-9.6244	-0.6620	-0.7858	-0.0050	-0.0108	-0.0356	32.9342	-8.8516	5.4834	0.4805	-0.5590	0.4806	0.4751
4.15	-9.6179	-0.6548	-0.7806	-0.0075	-0.0196	-0.0335	32.7249	-9.1334	5.2217	0.4805	-0.5588	0.4807	0.4751
4.16	-9.6277	-0.6450	-0.7764	-0.0042	-0.0168	-0.0418	32.3902	-9.2133	5.4208	0.4807	-0.5586	0.4809	0.4750
4.17	-9.6338	-0.6369	-0.7768	-0.0067	-0.0120	-0.0404	32.6142	-9.3229	5.4071	0.4808	-0.5585	0.4811	0.4750
4.18	-9.6204	-0.6297	-0.7736	-0.0059	-0.0152	-0.0392	32.5164	-9.4914	5.3154	0.4808	-0.5582	0.4812	0.4749
4.19	-9.6155	-0.6277	-0.7752	-0.0071	-0.0129	-0.0423	32.5285	-9.4573	5.1037	0.4810	-0.5582	0.4814	0.4748
4.2	-9.6209	-0.6294	-0.7832	-0.0025	-0.0078	-0.0374	32.6159	-9.1836	5.2418	0.4810	-0.5580	0.4815	0.4747
4.21	-9.6099	-0.6286	-0.7869	-0.0172	-0.0090	-0.0396	32.4043	-9.2874	5.2296	0.4811	-0.5579	0.4817	0.4747
4.22	-9.5984	-0.6362	-0.7934	-0.0238	-0.0013	-0.0381	32.4450	-9.2869	5.5392	0.4811	-0.5577	0.4818	0.4746
4.23	-9.6204	-0.6420	-0.8005	-0.0122	0.0071	-0.0408	32.4077	-9.3168	5.4393	0.4812	-0.5577	0.4820	0.4745
4.24	-9.6560	-0.6420	-0.8094	-0.0144	0.0109	-0.0432	32.6471	-9.3925	5.1927	0.4812	-0.5576	0.4822	0.4743
4.25	-9.6716	-0.6412	-0.8205	-0.0109	0.0021	-0.0395	32.4298	-9.0870	5.2831	0.4812	-0.5575	0.4824	0.4742
4.26	-9.6771	-0.6441	-0.8245	-0.0097	0.0050	-0.0432	32.3436	-9.1422	5.4188	0.4813	-0.5575	0.4825	0.4742
4.27	-9.6747	-0.6435	-0.8318	-0.0048	0.0042	-0.0454	32.4331	-9.2185	5.3593	0.4813	-0.5574	0.4827	0.4741
4.28	-9.6554	-0.6473	-0.8392	-0.0145	-0.0101	-0.0466	32.2669	-9.2067	5.2409	0.4813	-0.5574	0.4827	0.4741
4.29	-9.6469	-0.6458	-0.8372	-0.0126	-0.0040	-0.0499	32.5612	-9.2003	5.5277	0.4813	-0.5572	0.4828	0.4739
4.3	-9.6703	-0.6501	-0.8356	-0.0118	-0.0120	-0.0508	32.3653	-9.1063	5.3164	0.4814	-0.5572	0.4829	0.4739
4.31	-9.6867	-0.6519	-0.8348	-0.0085	-0.0108	-0.0540	32.3599	-9.2845	5.3635	0.4815	-0.5571	0.4830	0.4738
4.32	-9.6639	-0.6538	-0.8353	-0.0051	-0.0125	-0.0497	32.5362	-9.3053	5.6533	0.4816	-0.5569	0.4831	0.4737
4.33	-9.6362	-0.6367	-0.8382	-0.0078	-0.0146	-0.0466	32.4998	-9.1837	5.3219	0.4818	-0.5568	0.4833	0.4737
4.34	-9.6399	-0.6242	-0.8324	-0.0106	-0.0171	-0.0488	32.5522	-9.2318	5.2003	0.4819	-0.5566	0.4834	0.4736
4.35	-9.6377	-0.6250	-0.8316	-0.0162	-0.0149	-0.0488	32.6346	-9.3585	5.4072	0.4820	-0.5566	0.4835	0.4735
4.36	-9.6284	-0.6277	-0.8282	-0.0179	-0.0131	-0.0580	32.5764	-9.4727	5.3947	0.4820	-0.5564	0.4835	0.4734
4.37	-9.6473	-0.6375	-0.8251	-0.0172	0.0001	-0.0589	32.6392	-9.4649	5.4051	0.4822	-0.5564	0.4837	0.4733
4.38	-9.6914	-0.6464	-0.8205	-0.0225	-0.0090	-0.0579	32.8638	-9.1513	5.3871	0.4822	-0.5563	0.4838	0.4732
4.39	-9.7273	-0.6565	-0.8201	-0.0201	-0.0154	-0.0563	32.6147	-9.3673	5.4148	0.4823	-0.5562	0.4839	0.4732
4.4	-9.7097	-0.6730	-0.8240	-0.0317	-0.0116	-0.0516	32.5907	-9.3872	5.2853	0.4824	-0.5561	0.4839	0.4731
4.41	-9.6447	-0.6865	-0.8158	-0.0248	-0.0263	-0.0460	32.6262	-9.2603	5.4532	0.4825	-0.5560	0.4840	0.4731
4.42	-9.5802	-0.6989	-0.8184	-0.0307	-0.0212	-0.0441	32.5568	-9.3108	5.2943	0.4826	-0.5559	0.4840	0.4731
4.43	-9.5781	-0.7134	-0.8207	-0.0244	-0.0175	-0.0371	32.4181	-9.2777	5.3977	0.4826	-0.5558	0.4841	0.4730
4.44	-9.6065	-0.7022	-0.8175	-0.0074	-0.0178	-0.0356	32.4269	-9.3091	5.3797	0.4827	-0.5557	0.4843	0.4730
4.45	-9.6107	-0.6846	-0.8180	-0.0066	-0.0148	-0.0338	32.4349	-9.2710	5.2912	0.4828	-0.5555	0.4844	0.4729
4.46	-9.6117	-0.6663	-0.8189	-0.0077	-0.0067	-0.0339	32.4163	-9.3378	5.5352	0.4829	-0.5554	0.4846	0.4729
4.47	-9.6175	-0.6545	-0.8212	-0.0036	-0.0001	-0.0336	32.4467	-9.0787	5.2683	0.4828	-0.5552	0.4847	0.4728
4.48	-9.6204	-0.6415	-0.8232	0.0069	0.0098	-0.0392	32.5114	-9.0470	5.4384	0.4829	-0.5551	0.4850	0.4727
4.49	-9.6092	-0.6287	-0.8297	0.0096	0.0012	-0.0441	32.3757	-9.1481	5.5093	0.4830	-0.5550	0.4852	0.4725
4.5	-9.6181	-0.6070	-0.8334	0.0129	0.0069	-0.0509	32.2260	-9.4074	5.4518	0.4831	-0.5549	0.4853	0.4724
4.51	-9.6407	-0.5898	-0.8330	-0.0024	0.0107	-0.0506	32.2857	-9.2411	5.6352	0.4831	-0.5550	0.4855	0.4723
4.52	-9.6433	-0.5704	-0.8373	0.0099	0.0057	-0.0412	32.4586	-9.2557	5.6280	0.4832	-0.5548	0.4856	0.4721
4.53	-9.6336	-0.5495	-0.8388	-0.0016	0.0046	-0.0409	32.4374	-9.4719	5.3307	0.4833	-0.5547	0.4859	0.4720
4.54	-9.6333	-0.5417	-0.8424	-0.0064	0.0073	-0.0565	32.3075	-9.5725	5.1766	0.4833	-0.5545	0.4860	0.4718
4.55	-9.6402	-0.5349	-0.8438	-0.0187	0.0067	-0.0537	32.5026	-9.5134	5.5117	0.4834	-0.5545	0.4862	0.4717
4.56	-9.6355	-0.5423	-0.8517	-0.0326	0.0091	-0.0589	32.7872	-9.3374	5.3790	0.4834	-0.5545	0.4863	0.4716
4.57	-9.6430	-0.5550	-0.8580	-0.0350	0.0007	-0.0611	32.5271	-9.6913	5.2791	0.4834	-0.5545	0.4863	0.4715
4.58	-9.6671	-0.5739	-0.8622	-0.0386	0.0061	-0.0604	32.2969	-9.4347	5.4058	0.4835	-0.5545	0.4864	0.4714
4.59	-9.6768	-0.5966	-0.8682	-0.0466	0.0038	-0.0631	32.3922	-9.3557	5.4343	0.4835	-0.5545	0.4864	0.4713
4.6	-9.6913	-0.6169	-0.8725	-0.0571	-0.0038	-0.0633	32.4045	-9.4161	5.4721	0.4835	-0.5546	0.4864	0.4713
4.61	-9.6914	-0.6414	-0.8839	-0.0546	-0.0091	-0.0651	32.1934	-9.2715	5.2520	0.4834	-0.5546	0.4863	0.4713
4.62	-9.6248	-0.6537	-0.8834	-0.0547	-0.0108	-0.0607	32.6230	-9.2241	5.5607	0.4834	-0.5547	0.4863	0.4713
4.63	-9.6673	-0.6597	-0.8814	-0.0421	0.0018	-0.0634	33.0423	-9.1182	5.5793	0.4834	-0.5547	0.4864	0.4712
4.64	-9.7719	-0.6750	-0.8830	-0.0447	-0.0138	-0.0707	32.7549	-9.2138	5.5639	0.4835	-0.5547	0.4864	0.4712
4.65	-9.6776	-0.6812	-0.8726	-0.0339	-0.0219	-0.0612	32.5337	-9.2188	5.4079	0.4836	-0.5546	0.4864	0.4711
4.66	-9.6074	-0.6808	-0.8623	-0.0336	-0.0226	-0.0695	32.2909	-9.2276	5.4244	0.4837	-0.5546	0.4863	0.4711
4.67	-9.6461	-0.7013	-0.8648	-0.0325	-0.0122	-0.0754	32.1049	-9.2599	5.3482	0.4837	-0.5547	0.4862	0.4711
4.68	-9.6499	-0.7148	-0.8651	-0.0319	-0.0137	-0.0653	32.4333	-9.3065	5.2868	0.4837	-0.5546	0.4862	0.4710
4.69	-9.5986	-0.6991	-0.8462	-0.0324	-0.0118	-0.0595	32.4402	-9.3298	5.5558	0.4839	-0.5547	0.4863	0.4710
4.7	-9.5994	-0.6887	-0.8445	-0.0333	-0.0108	-0.0539	32.4148	-9.1774	5.4523	0.4839	-0.5546	0.4863	0.4709
4.71	-9.6275	-0.6781	-0.8530	-0.0320	-0.0166	-0.0515	32.5065	-9.0949	5.3327	0.4840	-0.5546	0.4864	0.4709
4.72	-9.6217	-0.6753	-0.8550	-0.0272	-0.0094	-0.0631	32.4534	-9.4499	5.2138	0.4840	-0.5545	0.4864	0.4708
4.73	-9.6312	-0.6774	-0.8559	-0.0238	-0.0073	-0.0620	32.6066	-9.4892	5.3629	0.4841	-0.5544	0.4865	0.4707
4.74	-9.6512	-0.6792	-0.8523	-0.0263	-0.0089	-0.0637	32.7093	-9.3677	5.4754	0.4842	-0.5544	0.4865	0.4706
4.75	-9.6531	-0.6778	-0.8518	-0.0295	-0.0146	-0.0623	32.7685	-9.4866	5.5430	0.4843	-0.5543	0.4865	0.4705
4.76	-9.6616	-0.6782	-0.8579	-0.0265	-0.0133	-0.0549	32.7095	-9.6195	5.3717	0.4844	-0.5543	0.4867	0.4705
4.77	-9.6574	-0.6786	-0.8572	-0.0313	-0.0118	-0.0566	32.6570	-9.3865	5.3397	0.4844	-0.5542	0.4867	0.4704
4.78	-9.6591	-0.6766	-0.8549	-0.0317	-0.0151	-0.0559	32.6009	-9.3002	5.4705	0.4845	-0.5542	0.4868	0.4704
4.79	-9.6484	-0.6833	-0.8667	-0.0275	-0.0142	-0.0550	32.4590	-9.3331	5.2011	0.4845	-0.5540	0.4868	0.4703
4.8	-9.6348	-0.6876	-0.8661	-0.0286	-0.0193	-0.0469	32.5856	-9.2188	5.2359	0.4846	-0.5540	0.4869	0.4703
4.81	-9.6512	-0.6930	-0.8674	-0.0309	-0.0117	-0.0470	32.3843	-9.3913	5.3995	0.4847	-0.5539	0.4869	0.4703
4.82	-9.6655	-0.7004	-0.8631	-0.0284	-0.0123	-0.0501	32.4264	-9.1897	5.4029	0.4847	-0.5538	0.4870	0.4703
4.83	-9.6649	-0.7070	-0.8637	-0.0239	-0.0106	-0.0501	32.7212	-9.4653	5.5212	0.4848	-0.5538	0.4871	0.4702
4.84	-9.6625	-0.7173	-0.8678	-0.0251	-0.0120	-0.0481	32.6923	-9.3303	5.4897	0.4848	-0.5537	0.4872	0.4701
4.85	-9.6726	-0.7239	-0.8614	-0.0157	-0.0139	-0.0373	32.4639	-9.1903	5.3143	0.4849	-0.5535	0.4873	0.4701
4.86	-9.6744	-0.7138	-0.8561	-0.0099	-0.0194	-0.0401	32.4685	-9.2696	5.3156	0.4850	-0.5533	0.4874	0.4700
4.87	-9.6742	-0.7073	-0.8553	-0.0053	-0.0219	-0.0361	32.4986	-9.1976	5.4248	0.4851	-0.5532	0.4876	0.4700
4.88	-9.6635	-0.6964	-0.8420	-0.0032	-0.0227	-0.0383	32.4165	-9.2915	5.4056	0.4852	-0.5530	0.4877	0.4700
4.89	-9.6480	-0.6804	-0.8329	0.0074	-0.0266	-0.0405	32.3885	-9.0972	5.4043	0.4854	-0.5528	0.4879	0.4699
4.9	-9.6498	-0.6662	-0.8247	0.0035	-0.0274	-0.0400	32.3577	-9.3890	5.4182	0.4855	-0.5525	0.4880	0.4698
4.91	-9.6422	-0.6492	-0.8204	0.0085	-0.0336	-0.0369	32.5809	-9.4624	5.3962	0.4857	-0.5523	0.4882	0.4698
4.92	-9.6287	-0.6301	-0.8159	0.0152	-0.0361	-0.0368	32.6242	-9.2752	5.2647	0.4859	-0.5520	0.4883	0.4698
4.93	-9.6271	-0.6126	-0.8097	0.0141	-0.0291	-0.0375	32.5302	-9.3281	5.4490	0.4861	-0.5517	0.4885	0.4697
4.94	-9.6203	-0.5988	-0.8081	0.0110	-0.0287	-0.0389	32.6785	-9.4438	5.2645	0.4863	-0.5516	0.4887	0.4697
4.95	-9.6247	-0.5903	-0.8020	0.0037	-0.0186	-0.0460	32.6563	-9.4787	5.2656	0.4864	-0.5514	0.4888	0.4695
4.96	-9.6338	-0.5863	-0.7999	0.0069	-0.0224	-0.0483	32.5899	-9.3866	5.3461	0.4866	-0.5512	0.4890	0.4695
4.97	-9.6310	-0.5793	-0.7960	-0.0054	-0.0234	-0.0442	32.5498	-9.3416	5.3085	0.4867	-0.5510	0.4890	0.4694
4.98	-9.6379	-0.5704	-0.7925	-0.0055	-0.0184	-0.0437	32.5665	-9.2995	5.3196	0.4868	-0.5508	0.4892	0.4693
4.99	-9.6307	-0.5702	-0.7885	-0.0111	-0.0191	-0.0436	32.3888	-9.3674	5.3465	0.4870	-0.5507	0.4893	0.4693
5	-9.6221	-0.5705	-0.7884	-0.0237	-0.0195	-0.0526	32.3746	-9.5211	5.5350	0.4870	-0.5506	0.4893	0.4692
5.01	-9.6228	-0.5755	-0.7848	-0.0302	-0.0186	-0.0605	32.4954	-9.2902	5.4793	0.4872	-0.5506	0.4894	0.4692
5.02	-9.6255	-0.5810	-0.7804	-0.0312	-0.0183	-0.0593	32.3191	-9.2068	5.2415	0.4872	-0.5505	0.4894	0.4691
5.03	-9.6131	-0.5903	-0.7827	-0.0371	-0.0151	-0.0583	32.2830	-9.3029	5.1994	0.4872	-0.5506	0.4894	0.4692
5.04	-9.6047	-0.6008	-0.7822	-0.0326	-0.0116	-0.0604	32.3732	-9.4166	5.3395	0.4872	-0.5505	0.4893	0.4691
5.05	-9.6168	-0.6120	-0.7834	-0.0441	-0.0073	-0.0626	32.5256	-9.4203	5.2966	0.4873	-0.5505	0.4894	0.4690
5.06	-9.6167	-0.6246	-0.7882	-0.0365	-0.0062	-0.0590	32.3869	-9.3742	5.5577	0.4873	-0.5505	0.4894	0.4690
5.07	-9.6163	-0.6350	-0.7947	-0.0326	0.0023	-0.0615	32.4573	-9.2386	5.2529	0.4874	-0.5505	0.4894	0.4689
5.08	-9.6166	-0.6449	-0.7994	-0.0511	0.0045	-0.0619	32.5734	-9.1367	5.1114	0.4874	-0.5506	0.4895	0.4688
5.09	-9.6191	-0.6576	-0.8124	-0.0500	0.0072	-0.0641	32.4604	-9.1560	5.2579	0.4873	-0.5506	0.4895	0.4687
5.1	-9.6372	-0.6710	-0.8218	-0.0359	0.0053	-0.0617	32.6717	-9.1484	5.4350	0.4874	-0.5507	0.4896	0.4686
5.11	-9.6528	-0.6770	-0.8230	-0.0417	0.0058	-0.0588	32.6341	-9.5375	5.2178	0.4873	-0.5506	0.4896	0.4685
5.12	-9.6658	-0.6900	-0.8330	-0.0420	0.0087	-0.0595	32.7735	-9.4568	5.2633	0.4873	-0.5507	0.4897	0.4685
5.13	-9.6650	-0.6960	-0.8374	-0.0311	0.0082	-0.0602	33.0370	-9.4199	5.6466	0.4873	-0.5507	0.4898	0.4683
5.14	-9.6805	-0.7127	-0.8430	-0.0328	0.0001	-0.0607	32.8983	-9.2846	5.5417	0.4874	-0.5507	0.4899	0.4682
5.15	-9.7179	-0.7161	-0.8412	-0.0323	-0.0042	-0.0593	32.6393	-9.2003	5.4381	0.4874	-0.5506	0.4899	0.4681
5.16	-9.7264	-0.7274	-0.8414	-0.0343	-0.0149	-0.0604	32.3431	-9.2870	5.2498	0.4875	-0.5506	0.4899	0.4681
5.17	-9.7011	-0.7280	-0.8396	-0.0255	-0.0136	-0.0474	32.2880	-9.2858	5.4117	0.4875	-0.5506	0.4900	0.4681
5.18	-9.6790	-0.7164	-0.8365	-0.0202	-0.0213	-0.0454	32.4237	-9.3459	5.3895	0.4875	-0.5504	0.4900	0.4680
5.19	-9.6676	-0.7032	-0.8338	-0.0230	-0.0195	-0.0485	32.5391	-9.1866	5.4442	0.4877	-0.5504	0.4902	0.4681
5.2	-9.6506	-0.6964	-0.8248	-0.0230	-0.0230	-0.0463	32.4600	-9.1265	5.3189	0.4877	-0.5502	0.4902	0.4680
5.21	-9.6212	-0.6912	-0.8192	-0.0142	-0.0226	-0.0524	32.4187	-9.1530	5.3936	0.4879	-0.5502	0.4903	0.4680
5.22	-9.6239	-0.6905	-0.8165	-0.0126	-0.0133	-0.0561	32.3339	-9.1208	5.3854	0.4879	-0.5500	0.4903	0.4679
5.23	-9.6566	-0.6989	-0.8120	-0.0109	-0.0146	-0.0510	32.3297	-9.2908	5.3501	0.4880	-0.5500	0.4904	0.4679
5.24	-9.6948	-0.6878	-0.8005	-0.0056	-0.0222	-0.0517	32.5134	-9.1146	5.5297	0.4881	-0.5498	0.4905	0.4678
5.25	-9.6976	-0.6815	-0.7994	-0.0034	-0.0278	-0.0516	32.5057	-9.3081	5.2363	0.4882	-0.5497	0.4905	0.4677
5.26	-9.6478	-0.6869	-0.7953	0.0022	-0.0288	-0.0504	32.4235	-9.3139	5.5923	0.4885	-0.5495	0.4907	0.4677
5.27	-9.5816	-0.6756	-0.7946	0.0033	-0.0293	-0.0458	32.5457	-9.2021	5.2387	0.4886	-0.5493	0.4907	0.4676
5.28	-9.5785	-0.6657	-0.7940	-0.0044	-0.0223	-0.0362	32.6975	-9.2299	5.3050	0.4888	-0.5492	0.4909	0.4676
5.29	-9.6176	-0.6576	-0.7913	0.0052	-0.0188	-0.0323	32.6630	-9.3035	5.2274	0.4888	-0.5489	0.4910	0.4674
5.3	-9.6376	-0.6296	-0.7925	0.0010	-0.0142	-0.0347	32.7398	-9.4409	5.1275	0.4890	-0.5488	0.4912	0.4674
5.31	-9.6285	-0.6084	-0.7907	-0.0053	-0.0156	-0.0315	32.7167	-9.3624	5.4524	0.4891	-0.5486	0.4914	0.4674
5.32	-9.6316	-0.5937	-0.7923	-0.0074	-0.0111	-0.0424	32.4545	-9.5079	5.3723	0.4891	-0.5484	0.4915	0.4673
5.33	-9.6421	-0.5831	-0.7929	-0.0097	-0.0092	-0.0528	32.6434	-9.3784	5.4600	0.4893	-0.5483	0.4917	0.4672
5.34	-9.6492	-0.5799	-0.7931	-0.0081	-0.0147	-0.0566	32.4232	-9.4372	5.4631	0.4894	-0.5482	0.4918	0.4671
5.35	-9.6408	-0.5801	-0.7919	-0.0202	-0.0149	-0.0598	32.4362	-9.5251	5.4154	0.4895	-0.5481	0.4919	0.4670
5.36	-9.6320	-0.5810	-0.7938	-0.0315	-0.0157	-0.0565	32.3863	-9.4024	5.3225	0.4895	-0.5480	0.4918	0.4669
5.37	-9.6244	-0.5850	-0.7953	-0.0325	-0.0093	-0.0606	32.4762	-9.2899	5.1042	0.4896	-0.5480	0.4919	0.4669
5.38	-9.6199	-0.5881	-0.7984	-0.0360	-0.0031	-0.0591	32.4620	-9.1967	5.2733	0.4896	-0.5480	0.4920	0.4668
5.39	-9.6306	-0.5961	-0.7918	-0.0491	-0.0025	-0.0600	32.4227	-9.3063	5.1792	0.4897	-0.5480	0.4920	0.4668
5.4	-9.6388	-0.6177	-0.7948	-0.0581	0.0008	-0.0598	32.3877	-9.3354	5.3556	0.4896	-0.5481	0.4920	0.4667
5.41	-9.6415	-0.6413	-0.7987	-0.0585	-0.0089	-0.0599	32.3803	-9.2815	5.2723	0.4895	-0.5482	0.4919	0.4668
5.42	-9.6374	-0.6724	-0.8050	-0.0569	-0.0048	-0.0600	32.5525	-9.2076	5.4069	0.4895	-0.5482	0.4919	0.4668
5.43	-9.6388	-0.6884	-0.8114	-0.0581	-0.0031	-0.0593	32.4964	-9.2382	5.3198	0.4894	-0.5482	0.4919	0.4667
5.44	-9.6414	-0.7115	-0.8092	-0.0538	0.0013	-0.0567	32.5977	-9.2206	5.3185	0.4895	-0.5483	0.4920	0.4668
5.45	-9.6584	-0.7310	-0.8202	-0.0565	-0.0068	-0.0561	32.2090	-9.2379	5.1295	0.4893	-0.5484	0.4918	0.4668
5.46	-9.6513	-0.7358	-0.8145	-0.0450	-0.0001	-0.0579	32.5232	-9.2243	5.2027	0.4893	-0.5485	0.4919	0.4668
5.47	-9.5924	-0.7407	-0.8083	-0.0327	-0.0117	-0.0528	32.4969	-9.2265	5.2289	0.4893	-0.5484	0.4919	0.4667
5.48	-9.6722	-0.7360	-0.8119	-0.0288	-0.0036	-0.0422	32.7595	-9.4651	5.1152	0.4894	-0.5483	0.4920	0.4667
5.49	-9.7421	-0.7345	-0.8129	-0.0218	0.0006	-0.0554	32.5880	-9.3184	5.3419	0.4894	-0.5483	0.4921	0.4666
5.5	-9.6314	-0.7224	-0.8107	-0.0097	-0.0157	-0.0512	32.6837	-9.3704	5.5515	0.4895	-0.5481	0.4922	0.4665
5.51	-9.5796	-0.7074	-0.8030	-0.0049	-0.0147	-0.0572	32.6850	-9.5335	5.3406	0.4897	-0.5481	0.4924	0.4664
5.52	-9.6323	-0.7213	-0.8058	-0.0090	-0.0068	-0.0575	32.5658	-9.4353	5.4018	0.4898	-0.5480	0.4924	0.4662
5.53	-9.6309	-0.7149	-0.8037	0.0007	-0.0077	-0.0437	32.6269	-9.3931	5.5102	0.4899	-0.5478	0.4926	0.4662
5.54	-9.5954	-0.6845	-0.7908	0.0009	-0.0065	-0.0430	32.4976	-9.4086	5.1742	0.4899	-0.5476	0.4927	0.4660
5.55	-9.6049	-0.6659	-0.7997	0.0024	0.0018	-0.0370	32.5074	-9.2960	5.3675	0.4901	-0.5475	0.4930	0.4659
5.56	-9.6158	-0.6481	-0.8024	-0.0011	0.0111	-0.0364	32.3448	-9.3243	5.2708	0.4901	-0.5474	0.4931	0.4658
5.57	-9.6171	-0.6408	-0.8120	-0.0065	0.0156	-0.0491	32.3208	-9.3156	5.4184	0.4901	-0.5474	0.4933	0.4656
5.58	-9.6429	-0.6395	-0.8224	-0.0018	0.0122	-0.0526	32.3459	-9.3120	5.3937	0.4902	-0.5473	0.4935	0.4654
5.59	-9.6464	-0.6451	-0.8217	-0.0095	0.0100	-0.0560	32.1733	-9.3317	5.4337	0.4901	-0.5473	0.4936	0.4653
5.6	-9.6428	-0.6299	-0.8346	-0.0029	0.0164	-0.0457	32.3940	-9.2654	5.3311	0.4902	-0.5473	0.4938	0.4652
5.61	-9.6600	-0.6213	-0.8327	-0.0075	0.0107	-0.0515	32.4169	-9.1370	5.3038	0.4901	-0.5472	0.4938	0.4650
5.62	-9.6660	-0.6312	-0.8565	-0.0099	0.0180	-0.0516	32.6584	-9.0227	5.4131	0.4902	-0.5473	0.4941	0.4649
5.63	-9.6563	-0.6129	-0.8510	-0.0167	0.0076	-0.0500	32.8402	-8.9305	5.5927	0.4902	-0.5472	0.4942	0.4648
5.64	-9.6559	-0.6241	-0.8575	-0.0280	0.0068	-0.0515	32.6895	-9.0272	5.4723	0.4903	-0.5472	0.4943	0.4647
5.65	-9.6715	-0.6327	-0.8662	-0.0257	0.0092	-0.0510	32.6768	-9.2659	5.4368	0.4902	-0.5471	0.4944	0.4646
5.66	-9.6752	-0.6393	-0.8673	-0.0300	0.0005	-0.0528	32.5386	-9.2863	5.3674	0.4903	-0.5471	0.4945	0.4645
5.67	-9.6878	-0.6591	-0.8744	-0.0341	-0.0022	-0.0527	32.4837	-9.3923	5.3191	0.4903	-0.5471	0.4946	0.4644
5.68	-9.6946	-0.6759	-0.8753	-0.0352	-0.0084	-0.0471	32.6527	-9.2841	5.2304	0.4903	-0.5470	0.4946	0.4644
5.69	-9.6985	-0.6942	-0.8787	-0.0323	-0.0117	-0.0439	32.5986	-9.2937	5.3328	0.4903	-0.5470	0.4948	0.4644
5.7	-9.6901	-0.7142	-0.8779	-0.0307	-0.0174	-0.0415	32.5175	-9.5545	5.4616	0.4903	-0.5468	0.4948	0.4644
5.71	-9.7036	-0.7207	-0.8675	-0.0321	-0.0169	-0.0413	32.5432	-9.2936	5.3257	0.4904	-0.5468	0.4949	0.4644
5.72	-9.7197	-0.7398	-0.8698	-0.0318	-0.0231	-0.0434	32.5345	-9.2087	5.3016	0.4904	-0.5466	0.4949	0.4644
5.73	-9.6940	-0.7397	-0.8604	-0.0232	-0.0289	-0.0330	32.5279	-9.1605	5.4611	0.4905	-0.5465	0.4950	0.4644
5.74	-9.6856	-0.7360	-0.8471	-0.0117	-0.0316	-0.0347	32.3857	-9.3095	5.5187	0.4906	-0.5463	0.4951	0.4644
5.75	-9.6759	-0.7339	-0.8347	-0.0083	-0.0348	-0.0336	32.5764	-9.4287	5.4454	0.4907	-0.5460	0.4952	0.4644
5.76	-9.6437	-0.7175	-0.8256	0.0019	-0.0359	-0.0341	32.3846	-9.0448	5.2485	0.4909	-0.5459	0.4954	0.4645
5.77	-9.6242	-0.6981	-0.8259	0.0094	-0.0362	-0.0337	32.4237	-9.3049	5.5741	0.4910	-0.5456	0.4954	0.4645
5.78	-9.6265	-0.6847	-0.8111	0.0177	-0.0334	-0.0338	32.5859	-9.4575	5.4836	0.4912	-0.5454	0.4957	0.4644
5.79	-9.6091	-0.6632	-0.7997	0.0191	-0.0378	-0.0340	32.4995	-9.4779	5.2970	0.4914	-0.5450	0.4957	0.4643
5.8	-9.5907	-0.6410	-0.7869	0.0190	-0.0331	-0.0333	32.5642	-9.2190	5.4224	0.4916	-0.5448	0.4959	0.4643
5.81	-9.5960	-0.6194	-0.7795	0.0180	-0.0235	-0.0318	32.4912	-9.3789	5.2760	0.4918	-0.5446	0.4961	0.4642
5.82	-9.6016	-0.5961	-0.7780	0.0190	-0.0178	-0.0343	32.3458	-9.2940	5.3502	0.4919	-0.5444	0.4962	0.4641
5.83	-9.5936	-0.5781	-0.7750	0.0185	-0.0204	-0.0332	32.4488	-9.3787	5.1989	0.4921	-0.5442	0.4964	0.4640
5.84	-9.5895	-0.5547	-0.7679	0.0191	-0.0235	-0.0373	32.7226	-9.3729	5.3849	0.4923	-0.5439	0.4966	0.4639
5.85	-9.5903	-0.5416	-0.7660	0.0176	-0.0146	-0.0369	32.4340	-9.3832	5.2153	0.4924	-0.5438	0.4968	0.4638
5.86	-9.5953	-0.5280	-0.7711	0.0049	-0.0127	-0.0435	32.6188	-9.3431	5.3215	0.4925	-0.5435	0.4969	0.4636
5.87	-9.6011	-0.5144	-0.7684	-0.0046	-0.0116	-0.0418	32.6180	-9.7376	5.3282	0.4927	-0.5435	0.4971	0.4635
5.88	-9.6042	-0.5097	-0.7813	-0.0013	0.0048	-0.0487	32.4933	-9.5012	5.1623	0.4928	-0.5434	0.4972	0.4634
5.89	-9.6100	-0.5130	-0.7868	-0.0109	0.0092	-0.0585	32.5701	-9.4779	5.1053	0.4928	-0.5433	0.4974	0.4632
5.9	-9.6118	-0.5173	-0.7873	-0.0274	0.0105	-0.0606	32.4162	-9.3388	5.3456	0.4928	-0.5433	0.4974	0.4630
5.91	-9.6128	-0.5309	-0.7991	-0.0281	0.0107	-0.0625	32.3493	-9.2073	5.4299	0.4928	-0.5434	0.4975	0.4629
5.92	-9.6238	-0.5486	-0.8121	-0.0419	0.0137	-0.0704	32.3483	-9.4894	5.3759	0.4929	-0.5435	0.4975	0.4628
5.93	-9.6257	-0.5685	-0.8248	-0.0522	0.0083	-0.0612	32.4284	-9.4626	5.1834	0.4928	-0.5436	0.4975	0.4627
5.94	-9.6341	-0.5887	-0.8362	-0.0512	0.0113	-0.0640	32.4681	-9.4421	5.4981	0.4928	-0.5437	0.4976	0.4626
5.95	-9.6515	-0.6110	-0.8462	-0.0577	0.0171	-0.0662	32.5575	-9.3737	5.4440	0.4927	-0.5438	0.4976	0.4625
5.96	-9.6599	-0.6318	-0.8586	-0.0578	0.0132	-0.0689	32.5139	-9.2963	5.4651	0.4927	-0.5439	0.4976	0.4625
5.97	-9.6513	-0.6564	-0.8667	-0.0627	0.0142	-0.0675	32.6438	-9.3758	5.5305	0.4926	-0.5440	0.4976	0.4623
5.98	-9.6641	-0.6799	-0.8745	-0.0650	0.0183	-0.0698	32.4840	-9.2402	5.3625	0.4926	-0.5442	0.4976	0.4623
5.99	-9.7025	-0.7000	-0.8761	-0.0593	0.0111	-0.0631	32.6226	-9.3874	5.2622	0.4925	-0.5443	0.4976	0.4622
6	-9.7177	-0.7189	-0.8781	-0.0568	0.0121	-0.0580	32.5540	-9.2104	5.1937	0.4924	-0.5443	0.4976	0.4621
6.01	-9.7325	-0.7241	-0.8851	-0.0537	0.0087	-0.0615	32.4266	-9.2940	5.3540	0.4924	-0.5445	0.4977	0.4621
6.02	-9.7280	-0.7295	-0.8796	-0.0447	-0.0026	-0.0486	32.4595	-9.4027	5.4290	0.4923	-0.5444	0.4977	0.4621
6.03	-9.7251	-0.7223	-0.8717	-0.0308	-0.0140	-0.0389	32.6560	-9.1381	5.3950	0.4924	-0.5444	0.4978	0.4621
6.04	-9.7024	-0.7201	-0.8649	-0.0323	-0.0245	-0.0476	32.5063	-9.4088	5.4342	0.4924	-0.5442	0.4978	0.4620
6.05	-9.6804	-0.7228	-0.8504	-0.0241	-0.0269	-0.0472	32.4676	-9.4454	5.2628	0.4925	-0.5441	0.4979	0.4621
6.06	-9.6696	-0.7275	-0.8467	-0.0217	-0.0276	-0.0504	32.3542	-9.3744	5.2481	0.4926	-0.5440	0.4979	0.4621
6.07	-9.6667	-0.7357	-0.8275	-0.0109	-0.0271	-0.0439	32.4911	-9.5928	5.4350	0.4927	-0.5438	0.4980	0.4620
6.08	-9.6809	-0.7247	-0.8134	-0.0033	-0.0342	-0.0430	32.7446	-9.4211	5.4084	0.4929	-0.5437	0.4981	0.4620
6.09	-9.6706	-0.7144	-0.8045	0.0049	-0.0357	-0.0422	32.3281	-9.3789	5.2785	0.4930	-0.5434	0.4982	0.4620
6.1	-9.6193	-0.7065	-0.7941	-0.0006	-0.0410	-0.0420	32.5810	-9.3317	5.3975	0.4932	-0.5432	0.4983	0.4620
6.11	-9.5550	-0.6926	-0.7881	0.0124	-0.0367	-0.0379	32.4008	-9.1783	5.4143	0.4934	-0.5429	0.4983	0.4618
6.12	-9.5310	-0.6854	-0.7808	0.0133	-0.0202	-0.0429	32.8188	-9.2114	5.4061	0.4936	-0.5428	0.4985	0.4618
6.13	-9.5532	-0.6664	-0.7811	0.0187	-0.0169	-0.0337	33.0661	-9.1696	5.5865	0.4938	-0.5426	0.4987	0.4616
6.14	-9.5892	-0.6355	-0.7838	0.0185	-0.0106	-0.0308	32.8100	-9.2785	5.5688	0.4939	-0.5423	0.4989	0.4615
6.15	-9.6143	-0.5975	-0.7874	0.0187	-0.0006	-0.0343	32.4854	-9.3590	5.5008	0.4940	-0.5421	0.4992	0.4613
6.16	-9.6241	-0.5668	-0.7865	0.0179	0.0014	-0.0317	32.2071	-9.3084	5.4869	0.4941	-0.5420	0.4993	0.4612
6.17	-9.6143	-0.5534	-0.7896	0.0152	0.0023	-0.0425	32.3096	-9.4349	5.4452	0.4942	-0.5419	0.4995	0.4611
6.18	-9.6183	-0.5414	-0.8052	0.0091	0.0086	-0.0535	32.4737	-9.3118	5.2682	0.4943	-0.5418	0.4997	0.4608
6.19	-9.6323	-0.5341	-0.8096	0.0028	0.0192	-0.0570	32.4422	-9.2374	5.5305	0.4944	-0.5418	0.4999	0.4607
6.2	-9.6198	-0.5300	-0.8153	-0.0074	0.0153	-0.0561	32.4609	-9.3333	5.4349	0.4944	-0.5417	0.5000	0.4604
6.21	-9.6304	-0.5264	-0.8146	-0.0102	0.0102	-0.0528	32.4472	-9.3580	5.3509	0.4945	-0.5417	0.5002	0.4603
6.22	-9.6428	-0.5286	-0.8177	-0.0220	0.0145	-0.0556	32.4512	-9.5997	5.5291	0.4945	-0.5417	0.5003	0.4601
6.23	-9.6372	-0.5336	-0.8248	-0.0331	0.0082	-0.0525	32.5658	-9.7081	5.4373	0.4945	-0.5417	0.5004	0.4600
6.24	-9.6377	-0.5465	-0.8298	-0.0316	0.0073	-0.0555	32.8865	-9.5901	5.4366	0.4945	-0.5417	0.5005	0.4599
6.25	-9.6463	-0.5724	-0.8382	-0.0383	0.0133	-0.0612	32.8457	-9.5921	5.5315	0.4945	-0.5417	0.5006	0.4598
6.26	-9.6505	-0.6033	-0.8491	-0.0558	0.0090	-0.0606	32.4874	-9.5444	5.3545	0.4945	-0.5418	0.5007	0.4598
6.27	-9.6453	-0.6349	-0.8510	-0.0566	0.0116	-0.0602	32.4186	-9.5391	5.4465	0.4944	-0.5419	0.5006	0.4597
6.28	-9.6615	-0.6603	-0.8535	-0.0592	0.0103	-0.0525	32.3118	-9.5338	5.7736	0.4943	-0.5420	0.5007	0.4597
6.29	-9.6895	-0.6777	-0.8666	-0.0485	0.0043	-0.0549	32.5605	-9.4702	5.6836	0.4942	-0.5419	0.5007	0.4596
6.3	-9.6760	-0.7050	-0.8677	-0.0511	0.0056	-0.0520	32.5265	-9.7156	5.4254	0.4942	-0.5420	0.5008	0.4596
6.31	-9.6012	-0.7151	-0.8662	-0.0511	0.0075	-0.0483	32.3947	-9.3068	5.5652	0.4941	-0.5420	0.5008	0.4595
6.32	-9.6651	-0.7117	-0.8702	-0.0322	0.0188	-0.0498	32.5762	-9.3870	5.5657	0.4941	-0.5421	0.5009	0.4594
6.33	-9.7505	-0.7181	-0.8720	-0.0322	0.0073	-0.0500	32.4088	-9.4346	5.6949	0.4941	-0.5421	0.5011	0.4593
6.34	-9.6479	-0.7134	-0.8691	-0.0321	-0.0075	-0.0510	32.1197	-9.2211	5.6244	0.4940	-0.5421	0.5010	0.4593
6.35	-9.5881	-0.6995	-0.8647	-0.0136	0.0002	-0.0540	32.2500	-9.3383	5.5509	0.4941	-0.5421	0.5011	0.4592
6.36	-9.6343	-0.7028	-0.8620	-0.0045	0.0006	-0.0544	32.3682	-9.5341	5.5896	0.4942	-0.5419	0.5012	0.4590
6.37	-9.6467	-0.7038	-0.8675	-0.0043	0.0059	-0.0478	32.5589	-9.2569	5.6789	0.4943	-0.5419	0.5015	0.4589
6.38	-9.6169	-0.6696	-0.8566	0.0027	-0.0008	-0.0491	32.2449	-9.1990	5.4813	0.4943	-0.5418	0.5016	0.4588
6.39	-9.6194	-0.6413	-0.8565	0.0148	0.0078	-0.0460	32.3426	-9.0918	5.5370	0.4944	-0.5417	0.5018	0.4587
6.4	-9.6338	-0.6238	-0.8586	0.0129	0.0057	-0.0494	32.4767	-9.2841	5.6056	0.4945	-0.5415	0.5020	0.4584
6.41	-9.6271	-0.6085	-0.8560	0.0173	-0.0000	-0.0582	32.6713	-9.2737	5.6598	0.4947	-0.5414	0.5021	0.4582
6.42	-9.6404	-0.6007	-0.8542	0.0155	0.0070	-0.0646	32.6087	-9.4692	5.5019	0.4949	-0.5413	0.5023	0.4580
6.43	-9.6490	-0.5955	-0.8605	0.0099	0.0060	-0.0594	32.6466	-9.7925	5.4670	0.4949	-0.5412	0.5024	0.4578
6.44	-9.6342	-0.5830	-0.8586	-0.0001	0.0111	-0.0598	32.5048	-9.6497	5.6394	0.4951	-0.5412	0.5027	0.4576
6.45	-9.6276	-0.5782	-0.8693	-0.0073	0.0121	-0.0580	32.4318	-9.6511	5.6438	0.4951	-0.5411	0.5028	0.4574
6.46	-9.6401	-0.5791	-0.8712	-0.0188	0.0117	-0.0624	32.4666	-9.5012	5.5521	0.4952	-0.5412	0.5029	0.4573
6.47	-9.6431	-0.5816	-0.8771	-0.0195	0.0117	-0.0543	32.4342	-9.3947	5.5930	0.4952	-0.5411	0.5030	0.4571
6.48	-9.6456	-0.5954	-0.8833	-0.0326	0.0105	-0.0573	32.4786	-9.4220	5.5663	0.4952	-0.5411	0.5031	0.4570
6.49	-9.6587	-0.6141	-0.8898	-0.0333	0.0093	-0.0613	32.5759	-9.3523	5.5866	0.4952	-0.5412	0.5032	0.4569
6.5	-9.6690	-0.6335	-0.9044	-0.0331	0.0131	-0.0593	32.4592	-9.2960	5.5642	0.4952	-0.5411	0.5032	0.4567
6.51	-9.6715	-0.6542	-0.9090	-0.0389	0.0131	-0.0492	32.3394	-9.3385	5.5885	0.4952	-0.5412	0.5034	0.4567
6.52	-9.6826	-0.6776	-0.9140	-0.0335	0.0071	-0.0407	32.4024	-9.1582	5.5483	0.4951	-0.5412	0.5035	0.4566
6.53	-9.6912	-0.7012	-0.9145	-0.0367	-0.0088	-0.0446	32.4840	-9.3650	5.6407	0.4951	-0.5412	0.5036	0.4566
6.54	-9.6824	-0.7165	-0.9147	-0.0367	-0.0069	-0.0433	32.4259	-9.0970	5.7645	0.4951	-0.5410	0.5036	0.4565
6.55	-9.6831	-0.7247	-0.9087	-0.0280	-0.0078	-0.0354	32.3795	-9.2103	5.6443	0.4951	-0.5410	0.5037	0.4566
6.56	-9.6870	-0.7295	-0.9083	-0.0226	-0.0138	-0.0336	32.4830	-9.3111	5.6709	0.4951	-0.5409	0.5038	0.4566
6.57	-9.6709	-0.7228	-0.9062	-0.0117	-0.0100	-0.0347	32.3838	-9.1798	5.6681	0.4951	-0.5408	0.5039	0.4565
6.58	-9.6544	-0.7068	-0.8982	-0.0060	-0.0191	-0.0326	32.3241	-9.3529	5.6590	0.4952	-0.5406	0.5041	0.4565
6.59	-9.6525	-0.6824	-0.8982	0.0064	-0.0192	-0.0328	32.3145	-9.3074	5.4133	0.4953	-0.5404	0.5042	0.4565
6.6	-9.6508	-0.6575	-0.8847	0.0200	-0.0214	-0.0338	32.5608	-9.5265	5.5817	0.4955	-0.5402	0.5044	0.4564
6.61	-9.6383	-0.6227	-0.8778	0.0147	-0.0161	-0.0339	32.5259	-9.3841	5.5673	0.4956	-0.5399	0.5045	0.4563
6.62	-9.6341	-0.5879	-0.8750	0.0203	-0.0156	-0.0328	32.7531	-9.4278	5.7052	0.4958	-0.5398	0.5048	0.4562
6.63	-9.6371	-0.5659	-0.8701	0.0223	-0.0197	-0.0336	33.2098	-9.5054	5.7987	0.4959	-0.5395	0.5050	0.4561
6.64	-9.6274	-0.5344	-0.8591	0.0173	-0.0209	-0.0337	32.9076	-9.4715	5.6976	0.4961	-0.5393	0.5052	0.4560
6.65	-9.6138	-0.5142	-0.8571	0.0183	-0.0173	-0.0362	32.5009	-9.4875	5.4654	0.4962	-0.5390	0.5054	0.4559
6.66	-9.6150	-0.4984	-0.8473	0.0188	-0.0169	-0.0430	32.2862	-9.2683	5.4265	0.4964	-0.5389	0.5055	0.4557
6.67	-9.6045	-0.4856	-0.8386	0.0141	-0.0148	-0.0425	32.2665	-9.6557	5.6589	0.4965	-0.5387	0.5056	0.4556
6.68	-9.5951	-0.4766	-0.8383	0.0019	-0.0175	-0.0511	32.5102	-9.5952	5.8432	0.4966	-0.5385	0.5057	0.4555
6.69	-9.6068	-0.4724	-0.8416	-0.0058	-0.0105	-0.0576	32.2969	-9.5457	5.6586	0.4968	-0.5385	0.5059	0.4554
6.7	-9.5959	-0.4760	-0.8507	-0.0187	-0.0001	-0.0546	32.4489	-9.1772	5.7887	0.4969	-0.5384	0.5059	0.4552
6.71	-9.5970	-0.4839	-0.8498	-0.0315	0.0077	-0.0658	32.3967	-9.5808	5.7356	0.4970	-0.5385	0.5060	0.4551
6.72	-9.6008	-0.4969	-0.8557	-0.0332	0.0125	-0.0757	32.2551	-9.4762	5.7032	0.4969	-0.5385	0.5060	0.4549
6.73	-9.5967	-0.5088	-0.8715	-0.0350	0.0174	-0.0724	32.2767	-9.3964	5.8238	0.4970	-0.5386	0.5061	0.4548
6.74	-9.6047	-0.5325	-0.8796	-0.0497	0.0209	-0.0771	32.4653	-9.5239	5.7897	0.4970	-0.5388	0.5061	0.4546
6.75	-9.6240	-0.5564	-0.8953	-0.0593	0.0222	-0.0703	32.3629	-9.4602	5.4953	0.4969	-0.5389	0.5061	0.4544
6.76	-9.6411	-0.5766	-0.9108	-0.0575	0.0214	-0.0751	32.2792	-9.5129	5.5772	0.4968	-0.5391	0.5061	0.4544
6.77	-9.6505	-0.6083	-0.9232	-0.0576	0.0240	-0.0742	32.3632	-9.4468	5.5586	0.4967	-0.5393	0.5060	0.4543
6.78	-9.6518	-0.6408	-0.9357	-0.0666	0.0181	-0.0768	32.2082	-9.3628	5.6256	0.4966	-0.5395	0.5060	0.4543
6.79	-9.6745	-0.6710	-0.9464	-0.0598	0.0209	-0.0768	32.4799	-9.5129	5.8454	0.4965	-0.5396	0.5059	0.4541
6.8	-9.7098	-0.6985	-0.9621	-0.0567	0.0099	-0.0721	32.4362	-9.3381	5.6758	0.4965	-0.5398	0.5059	0.4541
6.81	-9.7157	-0.7243	-0.9620	-0.0592	0.0053	-0.0634	32.4831	-9.5046	5.8728	0.4964	-0.5399	0.5059	0.4540
6.82	-9.7086	-0.7455	-0.9705	-0.0530	0.0026	-0.0640	32.6455	-9.6318	5.3885	0.4964	-0.5399	0.5059	0.4540
6.83	-9.7036	-0.7485	-0.9766	-0.0453	-0.0067	-0.0577	32.6102	-9.2569	5.5788	0.4964	-0.5400	0.5060	0.4540
6.84	-9.6764	-0.7457	-0.9768	-0.0389	-0.0121	-0.0460	32.6736	-9.2025	5.5736	0.4964	-0.5399	0.5060	0.4539
6.85	-9.6731	-0.7372	-0.9726	-0.0301	-0.0156	-0.0471	32.5095	-9.2726	5.7792	0.4964	-0.5399	0.5061	0.4539
6.86	-9.6623	-0.7365	-0.9649	-0.0255	-0.0207	-0.0511	32.3390	-9.4019	5.6504	0.4964	-0.5397	0.5060	0.4539
6.87	-9.6659	-0.7288	-0.9660	-0.0116	-0.0151	-0.0519	32.4681	-9.5147	5.4792	0.4966	-0.5397	0.5062	0.4539
6.88	-9.6821	-0.7152	-0.9593	-0.0057	-0.0231	-0.0503	32.4763	-9.2713	5.9047	0.4967	-0.5395	0.5062	0.4538
6.89	-9.7014	-0.7008	-0.9434	0.0030	-0.0203	-0.0531	32.6051	-9.1961	5.8120	0.4969	-0.5394	0.5064	0.4537
6.9	-9.7350	-0.6798	-0.9325	0.0093	-0.0232	-0.0540	32.3077	-9.2323	5.7013	0.4970	-0.5392	0.5064	0.4535
6.91	-9.7229	-0.6649	-0.9300	0.0133	-0.0290	-0.0466	32.4241	-9.3410	5.8171	0.4972	-0.5390	0.5066	0.4535
6.92	-9.6538	-0.6540	-0.9225	0.0090	-0.0359	-0.0432	32.6390	-9.2452	5.5972	0.4974	-0.5388	0.5067	0.4534
6.93	-9.5975	-0.6427	-0.9085	0.0099	-0.0369	-0.0392	32.6348	-9.1976	5.6967	0.4976	-0.5385	0.5067	0.4533
6.94	-9.5804	-0.6286	-0.9071	0.0137	-0.0390	-0.0375	32.5236	-9.3410	5.7317	0.4979	-0.5383	0.5069	0.4533
6.95	-9.5953	-0.6131	-0.9002	0.0092	-0.0351	-0.0340	32.4062	-9.2793	5.6558	0.4980	-0.5380	0.5070	0.4532
6.96	-9.6279	-0.5921	-0.8960	0.0069	-0.0283	-0.0340	32.2884	-9.3906	5.6008	0.4982	-0.5379	0.5072	0.4533
6.97	-9.6200	-0.5667	-0.8959	0.0140	-0.0314	-0.0340	32.2421	-9.4049	5.6273	0.4982	-0.5376	0.5072	0.4532
6.98	-9.6190	-0.5472	-0.8886	0.0045	-0.0267	-0.0439	32.6783	-9.3920	5.4896	0.4984	-0.5375	0.5073	0.4532
6.99	-9.6259	-0.5351	-0.8876	0.0003	-0.0220	-0.0503	32.4967	-9.4141	5.5761	0.4985	-0.5373	0.5074	0.4531
7	-9.6275	-0.5284	-0.8868	-0.0078	-0.0190	-0.0590	32.4849	-9.6743	5.7255	0.4986	-0.5372	0.5075	0.4530
7.01	-9.6107	-0.5221	-0.8881	-0.0074	-0.0205	-0.0665	32.6921	-9.6486	5.7137	0.4989	-0.5372	0.5076	0.4529
7.02	-9.6043	-0.5167	-0.8792	-0.0227	-0.0153	-0.0698	32.4072	-9.4042	5.5652	0.4989	-0.5371	0.5075	0.4528
7.03	-9.6222	-0.5138	-0.8843	-0.0305	-0.0144	-0.0690	32.3822	-9.3933	5.4870	0.4991	-0.5371	0.5075	0.4527
7.04	-9.6355	-0.5171	-0.8832	-0.0375	-0.0132	-0.0720	32.6681	-9.4189	5.6455	0.4991	-0.5371	0.5075	0.4526
7.05	-9.6497	-0.5339	-0.8830	-0.0520	-0.0142	-0.0805	32.4909	-9.1331	5.6922	0.4992	-0.5372	0.5074	0.4526
7.06	-9.6568	-0.5566	-0.8961	-0.0574	-0.0108	-0.0812	32.2621	-9.3825	5.4046	0.4991	-0.5373	0.5072	0.4526
7.07	-9.6557	-0.5887	-0.9024	-0.0670	-0.0095	-0.0826	32.3357	-9.6120	5.5029	0.4991	-0.5375	0.5071	0.4526
7.08	-9.6714	-0.6326	-0.9149	-0.0733	-0.0121	-0.0841	32.4800	-9.4694	5.7540	0.4991	-0.5376	0.5070	0.4526
7.09	-9.6927	-0.6712	-0.9157	-0.0824	-0.0135	-0.0784	32.4288	-9.3398	5.6614	0.4991	-0.5377	0.5068	0.4526
7.1	-9.7200	-0.7044	-0.9190	-0.0831	-0.0132	-0.0735	32.4900	-9.3168	5.6176	0.4991	-0.5379	0.5067	0.4526
7.11	-9.7100	-0.7438	-0.9167	-0.0811	-0.0193	-0.0734	32.3226	-9.2197	5.9456	0.4990	-0.5379	0.5065	0.4526
7.12	-9.6405	-0.7656	-0.9114	-0.0730	-0.0311	-0.0650	32.6347	-9.1262	5.7171	0.4990	-0.5381	0.5065	0.4528
7.13	-9.6610	-0.7733	-0.9019	-0.0639	-0.0282	-0.0557	32.8851	-9.0938	5.7689	0.4990	-0.5380	0.5064	0.4528
7.14	-9.7448	-0.7881	-0.9045	-0.0483	-0.0317	-0.0632	32.7169	-9.0181	5.7209	0.4991	-0.5380	0.5063	0.4529
7.15	-9.6678	-0.7949	-0.8925	-0.0442	-0.0470	-0.0594	32.6167	-9.1002	5.3797	0.4992	-0.5379	0.5062	0.4529
7.16	-9.5775	-0.7849	-0.8773	-0.0349	-0.0466	-0.0619	32.1985	-9.1694	5.4095	0.4993	-0.5379	0.5061	0.4530
7.17	-9.6204	-0.7878	-0.8625	-0.0297	-0.0426	-0.0647	32.4903	-9.3772	5.3667	0.4994	-0.5379	0.5060	0.4531
7.18	-9.6486	-0.7871	-0.8603	-0.0244	-0.0436	-0.0594	32.5031	-9.4726	5.5053	0.4995	-0.5377	0.5059	0.4531
7.19	-9.6060	-0.7603	-0.8476	-0.0076	-0.0484	-0.0472	32.7672	-9.5155	5.3710	0.4997	-0.5376	0.5060	0.4531
7.2	-9.5877	-0.7329	-0.8319	0.0021	-0.0427	-0.0452	32.7019	-9.4073	5.2803	0.4999	-0.5374	0.5060	0.4531
7.21	-9.6014	-0.7126	-0.8327	0.0001	-0.0365	-0.0430	32.3490	-9.2073	5.3181	0.5001	-0.5372	0.5061	0.4531
7.22	-9.5880	-0.6917	-0.8219	0.0001	-0.0319	-0.0499	32.5742	-9.2909	5.2780	0.5002	-0.5370	0.5061	0.4530
7.23	-9.6007	-0.6871	-0.8222	0.0005	-0.0300	-0.0598	32.5737	-9.4885	5.3428	0.5005	-0.5369	0.5062	0.4529
7.24	-9.6412	-0.6785	-0.8224	0.0075	-0.0188	-0.0573	32.6888	-9.3627	5.2171	0.5006	-0.5367	0.5063	0.4528
7.25	-9.6370	-0.6686	-0.8221	-0.0060	-0.0226	-0.0595	32.6406	-8.9984	5.2819	0.5007	-0.5366	0.5063	0.4527
7.26	-9.6297	-0.6646	-0.8211	-0.0035	-0.0145	-0.0558	32.2988	-9.1641	5.2966	0.5009	-0.5366	0.5064	0.4527
7.27	-9.6425	-0.6586	-0.8186	-0.0061	-0.0088	-0.0514	32.3447	-9.1268	5.4673	0.5009	-0.5365	0.5064	0.4526
7.28	-9.6412	-0.6550	-0.8239	-0.0083	-0.0116	-0.0483	32.3894	-8.8800	5.4188	0.5009	-0.5365	0.5065	0.4526
7.29	-9.6409	-0.6654	-0.8246	-0.0153	-0.0134	-0.0504	32.5447	-8.9403	5.3582	0.5009	-0.5363	0.5065	0.4525
7.3	-9.6535	-0.6742	-0.8217	-0.0246	-0.0153	-0.0404	32.3917	-9.1925	5.5269	0.5010	-0.5363	0.5066	0.4525
7.31	-9.6643	-0.6876	-0.8234	-0.0286	-0.0161	-0.0421	32.4652	-8.9118	5.4322	0.5010	-0.5362	0.5067	0.4525
7.32	-9.6484	-0.7073	-0.8211	-0.0322	-0.0268	-0.0382	32.3482	-9.1077	5.5913	0.5010	-0.5361	0.5066	0.4526
7.33	-9.6410	-0.7225	-0.8218	-0.0273	-0.0210	-0.0330	32.2362	-9.3390	5.4656	0.5010	-0.5361	0.5067	0.4527
7.34	-9.6370	-0.7218	-0.8174	-0.0202	-0.0296	-0.0345	32.3950	-9.3105	5.2318	0.5010	-0.5360	0.5067	0.4527
7.35	-9.6375	-0.7340	-0.8105	-0.0178	-0.0238	-0.0342	32.6827	-9.4973	5.4096	0.5011	-0.5358	0.5068	0.4528
7.36	-9.6383	-0.7311	-0.8031	-0.0073	-0.0234	-0.0311	32.7075	-9.4602	5.3239	0.5011	-0.5356	0.5069	0.4527
7.37	-9.6381	-0.7218	-0.7994	-0.0042	-0.0257	-0.0364	32.4709	-9.6312	5.0608	0.5013	-0.5355	0.5070	0.4527
7.38	-9.6370	-0.7081	-0.7941	0.0114	-0.0215	-0.0248	32.7113	-9.4706	5.2007	0.5014	-0.5352	0.5072	0.4527
7.39	-9.6240	-0.6859	-0.7899	0.0149	-0.0237	-0.0243	32.6222	-9.3536	5.1988	0.5015	-0.5350	0.5074	0.4526
7.4	-9.6134	-0.6615	-0.7873	0.0165	-0.0214	-0.0346	32.5886	-9.5156	5.3210	0.5016	-0.5347	0.5075	0.4525
7.41	-9.6152	-0.6341	-0.7866	0.0201	-0.0164	-0.0322	32.6244	-9.4613	5.5495	0.5018	-0.5345	0.5077	0.4524
7.42	-9.6264	-0.6029	-0.7806	0.0190	-0.0115	-0.0315	32.3588	-9.5203	5.3996	0.5019	-0.5343	0.5080	0.4523
7.43	-9.6349	-0.5758	-0.7817	0.0195	-0.0187	-0.0334	32.3288	-9.3307	5.0603	0.5020	-0.5341	0.5081	0.4522
7.44	-9.6362	-0.5557	-0.7787	0.0183	-0.0151	-0.0331	32.4353	-9.1771	5.2868	0.5022	-0.5339	0.5083	0.4522
7.45	-9.6359	-0.5395	-0.7862	0.0164	-0.0075	-0.0398	32.3090	-9.2899	5.3765	0.5022	-0.5338	0.5084	0.4521
7.46	-9.6354	-0.5243	-0.7909	0.0161	-0.0091	-0.0459	32.3541	-9.3065	5.2727	0.5023	-0.5337	0.5086	0.4520
7.47	-9.6381	-0.5129	-0.7898	-0.0012	-0.0100	-0.0480	32.3338	-9.3322	5.3054	0.5023	-0.5335	0.5086	0.4519
7.48	-9.6402	-0.5017	-0.7911	-0.0127	-0.0098	-0.0481	32.3330	-9.3722	5.3221	0.5024	-0.5335	0.5087	0.4519
7.49	-9.6436	-0.4974	-0.7935	-0.0134	-0.0091	-0.0561	32.3647	-8.9618	5.4125	0.5024	-0.5335	0.5088	0.4518
7.5	-9.6479	-0.5033	-0.8039	-0.0077	-0.0016	-0.0627	32.2386	-9.2380	5.3768	0.5025	-0.5334	0.5088	0.4517
7.51	-9.6585	-0.5093	-0.8017	-0.0174	-0.0044	-0.0586	32.3630	-9.3088	5.4028	0.5026	-0.5334	0.5089	0.4517
7.52	-9.6665	-0.5255	-0.8040	-0.0314	-0.0160	-0.0612	32.4574	-9.1991	5.0888	0.5026	-0.5334	0.5089	0.4516
7.53	-9.6556	-0.5417	-0.8092	-0.0341	-0.0104	-0.0648	32.6241	-9.4819	5.2008	0.5027	-0.5334	0.5089	0.4516
7.54	-9.6438	-0.5623	-0.8083	-0.0434	-0.0106	-0.0666	32.5001	-9.4821	5.2248	0.5026	-0.5334	0.5088	0.4515
7.55	-9.6553	-0.5890	-0.8163	-0.0565	-0.0111	-0.0659	32.4297	-9.6108	5.0906	0.5027	-0.5335	0.5088	0.4515
7.56	-9.6690	-0.6130	-0.8146	-0.0583	-0.0066	-0.0616	32.5476	-9.5138	5.3500	0.5026	-0.5335	0.5088	0.4515
7.57	-9.6704	-0.6390	-0.8095	-0.0572	-0.0099	-0.0624	32.5004	-9.4708	5.4382	0.5026	-0.5336	0.5087	0.4515
7.58	-9.6686	-0.6574	-0.8139	-0.0577	-0.0139	-0.0595	32.5224	-9.4940	5.2669	0.5026	-0.5336	0.5087	0.4515
7.59	-9.6610	-0.6750	-0.8157	-0.0570	-0.0143	-0.0602	32.5221	-9.4828	5.0758	0.5026	-0.5336	0.5087	0.4516
7.6	-9.6536	-0.6740	-0.8163	-0.0526	-0.0129	-0.0596	32.7047	-9.4882	5.1836	0.5026	-0.5337	0.5086	0.4516
7.61	-9.6490	-0.6745	-0.8137	-0.0436	-0.0127	-0.0603	32.6737	-9.4825	5.3179	0.5025	-0.5336	0.5086	0.4515
7.62	-9.6400	-0.6834	-0.8119	-0.0394	-0.0145	-0.0630	32.8291	-9.4836	5.4045	0.5026	-0.5337	0.5086	0.4516
7.63	-9.6418	-0.6874	-0.8106	-0.0368	-0.0170	-0.0632	33.2065	-9.3133	5.5887	0.5027	-0.5337	0.5086	0.4515
7.64	-9.6545	-0.6965	-0.8087	-0.0295	-0.0139	-0.0647	32.9549	-9.3266	5.4837	0.5028	-0.5336	0.5086	0.4515
7.65	-9.6668	-0.6930	-0.7975	-0.0319	-0.0091	-0.0596	32.6441	-9.4393	5.2407	0.5028	-0.5336	0.5086	0.4514
7.66	-9.6959	-0.6877	-0.7884	-0.0188	-0.0122	-0.0593	32.3533	-9.1407	5.0894	0.5028	-0.5336	0.5087	0.4513
7.67	-9.6877	-0.6936	-0.7893	-0.0148	-0.0197	-0.0578	32.3828	-9.2578	5.2910	0.5029	-0.5335	0.5087	0.4513
7.68	-9.6247	-0.6972	-0.7837	-0.0297	-0.0279	-0.0563	32.4098	-9.3081	5.3704	0.5030	-0.5334	0.5086	0.4513
7.69	-9.5721	-0.7020	-0.7880	-0.0231	-0.0257	-0.0522	32.3821	-9.2959	5.1099	0.5031	-0.5334	0.5087	0.4513
7.7	-9.5566	-0.7082	-0.7870	-0.0091	-0.0199	-0.0509	32.4233	-9.2763	5.1683	0.5032	-0.5333	0.5087	0.4513
7.71	-9.6003	-0.6966	-0.7871	-0.0044	-0.0135	-0.0429	32.5738	-9.3725	5.1525	0.5033	-0.5332	0.5088	0.4512
7.72	-9.6346	-0.6784	-0.7878	-0.0042	-0.0050	-0.0372	32.6508	-9.3718	5.1551	0.5033	-0.5330	0.5089	0.4511
7.73	-9.6417	-0.6581	-0.7869	-0.0056	-0.0102	-0.0367	32.6945	-9.5314	5.0511	0.5034	-0.5329	0.5091	0.4511
7.74	-9.6423	-0.6471	-0.7905	-0.0063	-0.0115	-0.0410	32.7648	-9.5141	5.2588	0.5034	-0.5328	0.5092	0.4510
7.75	-9.6383	-0.6381	-0.7990	-0.0053	-0.0045	-0.0521	32.7498	-9.4436	5.2415	0.5035	-0.5327	0.5093	0.4509
7.76	-9.6394	-0.6306	-0.7976	-0.0084	-0.0094	-0.0516	32.7458	-9.4818	5.2689	0.5036	-0.5326	0.5094	0.4509
7.77	-9.6373	-0.6217	-0.8064	-0.0067	-0.0151	-0.0506	32.4903	-9.3219	5.0706	0.5037	-0.5325	0.5095	0.4507
7.78	-9.6211	-0.6149	-0.8034	-0.0066	-0.0046	-0.0483	32.4757	-9.2437	5.3412	0.5038	-0.5324	0.5096	0.4507
7.79	-9.6312	-0.5990	-0.8063	-0.0085	0.0031	-0.0490	32.5694	-9.0889	5.2364	0.5038	-0.5323	0.5097	0.4505
7.8	-9.6396	-0.5977	-0.8098	-0.0221	0.0008	-0.0481	32.7004	-9.1498	5.0352	0.5038	-0.5323	0.5099	0.4505
7.81	-9.6367	-0.6005	-0.8107	-0.0215	-0.0042	-0.0497	32.6160	-9.2244	5.2185	0.5038	-0.5322	0.5099	0.4504
7.82	-9.6370	-0.6075	-0.8169	-0.0311	-0.0017	-0.0526	32.4814	-9.1880	5.3446	0.5038	-0.5321	0.5100	0.4503
7.83	-9.6421	-0.6181	-0.8232	-0.0336	0.0011	-0.0551	32.5709	-9.3098	5.3110	0.5039	-0.5322	0.5101	0.4503
7.84	-9.6560	-0.6334	-0.8251	-0.0371	0.0038	-0.0571	32.5991	-9.1530	5.2727	0.5038	-0.5322	0.5101	0.4502
7.85	-9.6717	-0.6514	-0.8305	-0.0365	-0.0007	-0.0601	32.5085	-9.2969	5.3175	0.5039	-0.5322	0.5102	0.4502
7.86	-9.6936	-0.6654	-0.8387	-0.0363	0.0055	-0.0598	32.4080	-9.2103	5.1195	0.5038	-0.5322	0.5101	0.4501
7.87	-9.6796	-0.6763	-0.8433	-0.0337	-0.0007	-0.0583	32.3493	-9.3042	5.2708	0.5038	-0.5323	0.5102	0.4501
7.88	-9.6025	-0.6764	-0.8478	-0.0321	-0.0068	-0.0582	32.5184	-9.2931	5.2559	0.5038	-0.5323	0.5102	0.4501
7.89	-9.6684	-0.6736	-0.8434	-0.0327	-0.0073	-0.0636	32.5362	-9.2895	5.4601	0.5039	-0.5323	0.5102	0.4500
7.9	-9.7685	-0.6866	-0.8547	-0.0315	-0.0136	-0.0693	32.3652	-9.2988	5.3204	0.5039	-0.5323	0.5102	0.4500
7.91	-9.6909	-0.6944	-0.8507	-0.0309	-0.0146	-0.0674	32.6481	-9.2810	5.2178	0.5040	-0.5323	0.5102	0.4499
7.92	-9.6241	-0.6906	-0.8375	-0.0290	-0.0205	-0.0636	32.5104	-9.3398	5.2832	0.5040	-0.5322	0.5102	0.4499
7.93	-9.6528	-0.7143	-0.8418	-0.0299	-0.0179	-0.0657	32.7544	-9.4193	5.1319	0.5041	-0.5322	0.5101	0.4498
7.94	-9.6610	-0.7331	-0.8415	-0.0328	-0.0259	-0.0634	32.8681	-9.3262	5.2979	0.5042	-0.5322	0.5102	0.4499
7.95	-9.6197	-0.7163	-0.8252	-0.0295	-0.0198	-0.0537	32.4967	-9.3325	5.3165	0.5043	-0.5321	0.5101	0.4498
7.96	-9.6174	-0.7130	-0.8229	-0.0234	-0.0172	-0.0461	32.5793	-9.3992	5.2089	0.5044	-0.5320	0.5102	0.4499
7.97	-9.6348	-0.7114	-0.8311	-0.0224	-0.0205	-0.0454	32.9113	-9.2997	5.2800	0.5043	-0.5319	0.5102	0.4498
7.98	-9.6322	-0.7110	-0.8263	-0.0197	-0.0127	-0.0451	32.6456	-9.3594	5.3308	0.5044	-0.5318	0.5103	0.4498
7.99	-9.6483	-0.7307	-0.8248	-0.0168	-0.0134	-0.0448	32.5816	-9.2942	5.1780	0.5045	-0.5317	0.5104	0.4498
8	-9.6504	-0.7376	-0.8220	-0.0077	-0.0109	-0.0491	32.7978	-9.2013	5.1226	0.5045	-0.5315	0.5105	0.4497
8.01	-9.6341	-0.7365	-0.8287	-0.0096	-0.0117	-0.0517	32.5249	-9.2320	5.1981	0.5047	-0.5315	0.5106	0.4497
8.02	-9.6329	-0.7340	-0.8294	-0.0059	-0.0095	-0.0421	32.4771	-9.4035	5.2123	0.5047	-0.5313	0.5107	0.4496
8.03	-9.6365	-0.7226	-0.8235	-0.0057	-0.0160	-0.0375	32.4871	-9.2241	5.1415	0.5048	-0.5312	0.5109	0.4495
8.04	-9.6372	-0.7041	-0.8298	0.0042	-0.0123	-0.0369	32.4886	-9.4347	5.1457	0.5048	-0.5310	0.5110	0.4494
8.05	-9.6409	-0.6871	-0.8324	0.0171	-0.0052	-0.0331	32.3592	-9.2150	5.0787	0.5049	-0.5309	0.5112	0.4494
8.06	-9.6405	-0.6743	-0.8290	0.0085	-0.0091	-0.0329	32.4584	-9.0946	5.4950	0.5050	-0.5307	0.5113	0.4493
8.07	-9.6389	-0.6544	-0.8258	0.0122	-0.0107	-0.0406	32.4980	-9.4091	5.3173	0.5051	-0.5305	0.5115	0.4492
8.08	-9.6453	-0.6328	-0.8280	0.0181	-0.0140	-0.0399	32.4747	-9.3508	5.3628	0.5052	-0.5303	0.5117	0.4491
8.09	-9.6610	-0.6109	-0.8312	0.0185	-0.0120	-0.0367	32.4934	-9.4398	5.1655	0.5054	-0.5301	0.5119	0.4490
8.1	-9.6651	-0.5917	-0.8283	0.0190	-0.0194	-0.0387	32.4710	-9.4341	5.2044	0.5055	-0.5299	0.5121	0.4489
8.11	-9.6593	-0.5774	-0.8222	0.0173	-0.0159	-0.0412	32.5443	-9.2773	5.3498	0.5056	-0.5296	0.5122	0.4488
8.12	-9.6545	-0.5629	-0.8238	0.0105	-0.0083	-0.0464	33.0437	-9.2837	5.3448	0.5058	-0.5295	0.5124	0.4487
8.13	-9.6413	-0.5523	-0.8201	0.0003	-0.0216	-0.0429	33.4566	-9.1545	5.6532	0.5059	-0.5293	0.5125	0.4486
8.14	-9.6444	-0.5387	-0.8215	-0.0047	-0.0127	-0.0439	33.1484	-9.2627	5.5326	0.5060	-0.5292	0.5126	0.4486
8.15	-9.6513	-0.5406	-0.8231	-0.0061	-0.0108	-0.0536	32.6993	-9.2517	5.5328	0.5061	-0.5290	0.5127	0.4485
8.16	-9.6467	-0.5428	-0.8233	-0.0114	-0.0071	-0.0528	32.4198	-9.3251	5.3919	0.5062	-0.5290	0.5128	0.4484
8.17	-9.6483	-0.5409	-0.8183	-0.0290	-0.0133	-0.0532	32.3768	-9.3977	5.2560	0.5062	-0.5289	0.5128	0.4484
8.18	-9.6498	-0.5576	-0.8211	-0.0299	-0.0147	-0.0613	32.5329	-9.4300	5.3051	0.5062	-0.5288	0.5128	0.4483
8.19	-9.6431	-0.5719	-0.8190	-0.0362	-0.0105	-0.0660	32.4988	-9.2776	5.2870	0.5063	-0.5289	0.5128	0.4483
8.2	-9.6373	-0.5846	-0.8137	-0.0418	-0.0083	-0.0652	32.3743	-9.2287	5.4252	0.5063	-0.5289	0.5128	0.4483
8.21	-9.6300	-0.6013	-0.8130	-0.0535	-0.0080	-0.0703	32.2975	-9.2232	5.3010	0.5063	-0.5291	0.5127	0.4484
8.22	-9.6223	-0.6231	-0.8194	-0.0535	-0.0049	-0.0719	32.4559	-9.2552	5.1799	0.5062	-0.5291	0.5126	0.4483
8.23	-9.6318	-0.6420	-0.8156	-0.0480	-0.0021	-0.0674	32.4960	-9.2994	5.3294	0.5062	-0.5292	0.5126	0.4483
8.24	-9.6221	-0.6469	-0.8192	-0.0533	-0.0059	-0.0663	32.5856	-9.2250	5.2388	0.5062	-0.5293	0.5125	0.4483
8.25	-9.5903	-0.6564	-0.8179	-0.0479	-0.0059	-0.0669	32.5459	-9.1623	5.4164	0.5062	-0.5293	0.5125	0.4482
8.26	-9.5675	-0.6635	-0.8205	-0.0407	0.0048	-0.0740	32.3041	-9.0388	5.2144	0.5063	-0.5295	0.5125	0.4482
8.27	-9.5689	-0.6611	-0.8210	-0.0416	0.0072	-0.0679	32.1922	-9.3446	5.2652	0.5062	-0.5296	0.5124	0.4481
8.28	-9.5918	-0.6600	-0.8302	-0.0366	0.0102	-0.0700	32.4201	-9.5084	5.4408	0.5062	-0.5297	0.5124	0.4480
8.29	-9.5869	-0.6591	-0.8397	-0.0349	0.0067	-0.0643	32.7351	-9.3928	5.2717	0.5061	-0.5297	0.5124	0.4478
8.3	-9.6089	-0.6441	-0.8407	-0.0325	0.0205	-0.0682	32.7722	-9.5371	5.4048	0.5062	-0.5298	0.5125	0.4477
8.31	-9.6722	-0.6498	-0.8429	-0.0312	0.0243	-0.0752	32.6171	-9.4022	5.4025	0.5062	-0.5299	0.5126	0.4475
8.32	-9.6698	-0.6523	-0.8514	-0.0347	0.0200	-0.0739	32.5926	-9.2155	5.2748	0.5061	-0.5300	0.5126	0.4474
8.33	-9.6628	-0.6322	-0.8482	-0.0325	0.0317	-0.0657	32.6147	-9.1392	5.4089	0.5061	-0.5301	0.5127	0.4472
8.34	-9.6965	-0.6218	-0.8569	-0.0332	0.0249	-0.0682	32.4464	-9.4125	5.4579	0.5060	-0.5301	0.5128	0.4471
8.35	-9.6935	-0.6400	-0.8598	-0.0420	0.0240	-0.0691	32.2052	-9.3523	5.3540	0.5060	-0.5303	0.5128	0.4470
8.36	-9.6701	-0.6665	-0.8629	-0.0389	0.0160	-0.0781	32.4164	-9.3033	5.3740	0.5059	-0.5304	0.5128	0.4468
8.37	-9.6920	-0.6548	-0.8587	-0.0393	0.0151	-0.0836	32.6521	-9.2255	5.6281	0.5060	-0.5305	0.5129	0.4467
8.38	-9.7219	-0.6620	-0.8563	-0.0297	0.0180	-0.0846	32.5677	-9.0616	5.6200	0.5060	-0.5306	0.5129	0.4465
8.39	-9.7311	-0.6833	-0.8528	-0.0416	0.0053	-0.0846	32.6583	-9.0534	5.5321	0.5060	-0.5307	0.5129	0.4464
8.4	-9.7412	-0.6905	-0.8495	-0.0419	-0.0061	-0.0860	32.3689	-9.1336	5.4995	0.5061	-0.5308	0.5128	0.4463
8.41	-9.7068	-0.6991	-0.8494	-0.0532	-0.0119	-0.0867	32.2504	-8.9382	5.2754	0.5061	-0.5309	0.5126	0.4463
8.42	-9.6532	-0.7050	-0.8433	-0.0537	-0.0255	-0.0840	32.5719	-8.9669	5.3536	0.5061	-0.5310	0.5125	0.4463
8.43	-9.6043	-0.7216	-0.8440	-0.0481	-0.0232	-0.0826	32.3904	-9.0303	5.3665	0.5062	-0.5311	0.5123	0.4463
8.44	-9.6019	-0.7255	-0.8464	-0.0495	-0.0171	-0.0742	32.5591	-9.3780	5.4118	0.5063	-0.5312	0.5123	0.4463
8.45	-9.6342	-0.7353	-0.8471	-0.0484	-0.0117	-0.0728	32.5979	-9.1334	5.6151	0.5063	-0.5312	0.5122	0.4462
8.46	-9.6417	-0.7372	-0.8460	-0.0524	-0.0179	-0.0662	32.4005	-9.1581	5.5034	0.5063	-0.5313	0.5122	0.4463
8.47	-9.6489	-0.7368	-0.8454	-0.0438	-0.0175	-0.0649	32.5250	-9.1198	5.2461	0.5063	-0.5313	0.5120	0.4463
8.48	-9.6632	-0.7455	-0.8430	-0.0467	-0.0185	-0.0688	32.6254	-9.3039	5.3428	0.5064	-0.5313	0.5120	0.4463
8.49	-9.6601	-0.7478	-0.8463	-0.0423	-0.0170	-0.0669	32.7541	-9.4552	5.3472	0.5064	-0.5313	0.5120	0.4463
8.5	-9.6614	-0.7531	-0.8417	-0.0365	-0.0224	-0.0665	32.4937	-9.3168	5.2578	0.5064	-0.5313	0.5119	0.4463
8.51	-9.6576	-0.7514	-0.8433	-0.0325	-0.0243	-0.0660	32.5402	-9.2208	5.4028	0.5066	-0.5313	0.5119	0.4463
8.52	-9.6435	-0.7417	-0.8431	-0.0385	-0.0252	-0.0645	32.5998	-9.1011	5.2297	0.5066	-0.5312	0.5118	0.4463
8.53	-9.6406	-0.7356	-0.8457	-0.0367	-0.0280	-0.0628	32.6739	-9.2255	5.3715	0.5067	-0.5312	0.5118	0.4463
8.54	-9.6444	-0.7362	-0.8433	-0.0311	-0.0259	-0.0608	32.6871	-9.2340	5.3987	0.5067	-0.5311	0.5117	0.4462
8.55	-9.6579	-0.7326	-0.8389	-0.0334	-0.0306	-0.0616	32.7215	-9.1223	5.2302	0.5069	-0.5311	0.5118	0.4463
8.56	-9.6709	-0.7393	-0.8434	-0.0358	-0.0283	-0.0612	32.5949	-8.9661	5.3748	0.5069	-0.5310	0.5117	0.4463
8.57	-9.6779	-0.7469	-0.8450	-0.0410	-0.0218	-0.0669	32.4671	-8.7504	5.2822	0.5069	-0.5311	0.5116	0.4464
8.58	-9.6732	-0.7528	-0.8370	-0.0386	-0.0310	-0.0627	32.6463	-8.9228	5.2899	0.5070	-0.5310	0.5115	0.4464
8.59	-9.6858	-0.7632	-0.8411	-0.0429	-0.0369	-0.0619	32.4377	-8.9591	5.2418	0.5071	-0.5310	0.5114	0.4465
8.6	-9.6655	-0.7713	-0.8391	-0.0431	-0.0341	-0.0597	32.4296	-9.0295	5.4164	0.5072	-0.5310	0.5114	0.4465
8.61	-9.6082	-0.7678	-0.8232	-0.0468	-0.0354	-0.0605	32.4106	-9.0798	5.4982	0.5072	-0.5309	0.5112	0.4465
8.62	-9.6789	-0.7663	-0.8226	-0.0479	-0.0320	-0.0598	32.5519	-8.8272	5.3330	0.5073	-0.5309	0.5112	0.4467
8.63	-9.7303	-0.7816	-0.8158	-0.0369	-0.0371	-0.0621	32.9663	-8.5972	5.5584	0.5073	-0.5309	0.5111	0.4467
8.64	-9.6588	-0.7893	-0.8010	-0.0385	-0.0484	-0.0605	32.9045	-8.7137	5.5275	0.5075	-0.5308	0.5110	0.4468
8.65	-9.6185	-0.7856	-0.7863	-0.0364	-0.0527	-0.0599	32.8708	-8.8272	5.4596	0.5076	-0.5306	0.5109	0.4468
8.66	-9.6400	-0.8111	-0.7784	-0.0363	-0.0478	-0.0582	32.5961	-9.0881	5.2612	0.5077	-0.5306	0.5109	0.4469
8.67	-9.6506	-0.8144	-0.7771	-0.0347	-0.0484	-0.0546	32.6390	-8.9506	5.0710	0.5079	-0.5305	0.5108	0.4470
8.68	-9.6273	-0.7976	-0.7599	-0.0310	-0.0517	-0.0490	32.8397	-8.9865	5.0535	0.5079	-0.5303	0.5107	0.4471
8.69	-9.6065	-0.7977	-0.7497	-0.0347	-0.0509	-0.0484	32.7705	-9.0358	5.0862	0.5081	-0.5302	0.5107	0.4472
8.7	-9.6131	-0.7945	-0.7477	-0.0275	-0.0512	-0.0569	32.6940	-8.9882	5.3364	0.5082	-0.5300	0.5106	0.4472
8.71	-9.6133	-0.7998	-0.7399	-0.0220	-0.0418	-0.0606	32.7342	-9.0482	5.0793	0.5084	-0.5300	0.5106	0.4473
8.72	-9.6066	-0.8158	-0.7386	-0.0233	-0.0424	-0.0557	32.6077	-8.8892	5.0490	0.5085	-0.5298	0.5105	0.4473
8.73	-9.6013	-0.8249	-0.7363	-0.0241	-0.0365	-0.0569	32.6360	-8.9811	5.0824	0.5087	-0.5297	0.5105	0.4473
8.74	-9.6093	-0.8369	-0.7321	-0.0269	-0.0332	-0.0561	32.7748	-9.1588	5.2193	0.5088	-0.5296	0.5105	0.4473
8.75	-9.5985	-0.8280	-0.7245	-0.0086	-0.0356	-0.0505	32.5149	-8.9986	5.0157	0.5089	-0.5295	0.5104	0.4473
8.76	-9.5962	-0.8170	-0.7189	-0.0101	-0.0339	-0.0487	32.6482	-9.0218	5.3324	0.5091	-0.5294	0.5105	0.4473
8.77	-9.6071	-0.8076	-0.7181	-0.0057	-0.0246	-0.0468	32.5935	-8.8612	5.1119	0.5092	-0.5292	0.5105	0.4472
8.78	-9.5960	-0.8048	-0.7105	-0.0067	-0.0336	-0.0442	32.7157	-8.8290	4.8975	0.5093	-0.5291	0.5106	0.4472
8.79	-9.5885	-0.8077	-0.7097	-0.0107	-0.0172	-0.0393	32.6150	-8.8475	5.0900	0.5094	-0.5289	0.5106	0.4471
8.8	-9.5897	-0.8101	-0.7173	-0.0087	-0.0248	-0.0443	32.7533	-8.8220	5.1711	0.5095	-0.5288	0.5107	0.4471
8.81	-9.5983	-0.8192	-0.7181	-0.0087	-0.0173	-0.0479	32.8071	-8.8722	5.1109	0.5096	-0.5287	0.5108	0.4471
8.82	-9.6099	-0.8245	-0.7130	-0.0059	-0.0114	-0.0365	32.5217	-9.0283	5.0239	0.5097	-0.5286	0.5109	0.4470
8.83	-9.6121	-0.8212	-0.7191	-0.0037	-0.0165	-0.0323	32.5304	-8.9209	5.1964	0.5098	-0.5284	0.5111	0.4470
8.84	-9.6140	-0.8204	-0.7220	0.0016	-0.0132	-0.0341	32.6885	-8.7820	5.2397	0.5098	-0.5282	0.5112	0.4469
8.85	-9.6264	-0.8192	-0.7253	0.0141	-0.0036	-0.0328	32.9248	-8.9594	5.0628	0.5099	-0.5280	0.5114	0.4468
8.86	-9.6445	-0.8140	-0.7324	0.0166	-0.0063	-0.0339	32.7785	-9.1316	5.0657	0.5100	-0.5278	0.5116	0.4467
8.87	-9.6526	-0.8037	-0.7367	0.0155	-0.0034	-0.0314	32.8288	-8.8689	5.1777	0.5101	-0.5277	0.5118	0.4466
8.88	-9.6544	-0.7958	-0.7330	0.0183	-0.0060	-0.0328	32.7314	-8.9704	4.9662	0.5102	-0.5274	0.5120	0.4465
8.89	-9.6557	-0.7841	-0.7365	0.0192	-0.0096	-0.0301	32.4811	-8.8263	5.0385	0.5103	-0.5272	0.5122	0.4464
8.9	-9.6518	-0.7708	-0.7357	0.0224	-0.0005	-0.0299	32.7541	-8.9351	5.0848	0.5104	-0.5270	0.5124	0.4463
8.91	-9.6391	-0.7553	-0.7337	0.0207	-0.0009	-0.0214	32.6756	-9.0403	5.0411	0.5105	-0.5268	0.5127	0.4462
8.92	-9.6266	-0.7487	-0.7333	0.0227	-0.0000	-0.0201	32.7900	-8.9909	5.1226	0.5105	-0.5266	0.5130	0.4461
8.93	-9.6116	-0.7381	-0.7346	0.0270	0.0018	-0.0278	32.7468	-9.0421	5.2511	0.5106	-0.5263	0.5132	0.4459
8.94	-9.6230	-0.7218	-0.7358	0.0325	-0.0016	-0.0249	32.4669	-8.8683	5.2602	0.5108	-0.5261	0.5135	0.4458
8.95	-9.6299	-0.7031	-0.7426	0.0353	0.0067	-0.0307	32.4661	-9.0278	5.2106	0.5108	-0.5259	0.5137	0.4456
8.96	-9.6252	-0.6836	-0.7494	0.0356	0.0046	-0.0239	32.6273	-9.1302	5.0929	0.5110	-0.5257	0.5141	0.4455
8.97	-9.6266	-0.6767	-0.7552	0.0365	0.0068	-0.0271	32.6159	-9.0963	4.9434	0.5110	-0.5254	0.5143	0.4452
8.98	-9.6453	-0.6648	-0.7525	0.0360	0.0080	-0.0338	32.7470	-8.9731	5.0248	0.5111	-0.5252	0.5146	0.4451
8.99	-9.6598	-0.6534	-0.7510	0.0294	0.0059	-0.0295	32.6556	-8.9099	5.2246	0.5112	-0.5250	0.5149	0.4449
9	-9.6615	-0.6433	-0.7560	0.0244	0.0011	-0.0299	32.5881	-8.9233	5.0373	0.5113	-0.5248	0.5151	0.4447
9.01	-9.6727	-0.6302	-0.7575	0.0178	0.0009	-0.0318	32.7592	-9.0305	5.0817	0.5115	-0.5246	0.5154	0.4446
9.02	-9.6848	-0.6210	-0.7666	0.0260	-0.0035	-0.0322	32.7874	-9.1272	5.3507	0.5115	-0.5244	0.5156	0.4445
9.03	-9.6623	-0.5975	-0.7692	0.0172	-0.0012	-0.0277	32.6246	-9.0702	5.2849	0.5116	-0.5242	0.5158	0.4444
9.04	-9.6213	-0.5885	-0.7671	0.0155	0.0056	-0.0352	32.6034	-9.2069	5.2271	0.5117	-0.5240	0.5160	0.4442
9.05	-9.6560	-0.5904	-0.7707	0.0176	0.0021	-0.0433	32.7606	-9.1685	5.1742	0.5118	-0.5239	0.5162	0.4440
9.06	-9.6772	-0.6027	-0.7746	0.0004	-0.0004	-0.0481	32.4558	-9.4092	5.1117	0.5119	-0.5237	0.5164	0.4439
9.07	-9.6838	-0.6077	-0.7740	-0.0062	0.0047	-0.0394	32.8082	-9.4830	5.0539	0.5119	-0.5236	0.5165	0.4438
9.08	-9.7110	-0.6160	-0.7726	-0.0048	-0.0079	-0.0393	32.6748	-9.2615	5.1858	0.5120	-0.5235	0.5166	0.4438
9.09	-9.7313	-0.6281	-0.7696	-0.0133	-0.0148	-0.0467	32.5281	-8.9903	4.8778	0.5120	-0.5234	0.5167	0.4437
9.1	-9.7071	-0.6349	-0.7691	-0.0215	-0.0142	-0.0394	32.6501	-9.1434	5.3527	0.5121	-0.5234	0.5168	0.4437
9.11	-9.6502	-0.6495	-0.7672	-0.0211	-0.0206	-0.0366	32.6769	-9.2077	5.2433	0.5121	-0.5232	0.5168	0.4437
9.12	-9.6111	-0.6617	-0.7677	-0.0150	-0.0167	-0.0385	32.9448	-9.0825	5.2854	0.5122	-0.5231	0.5169	0.4437
9.13	-9.6133	-0.6726	-0.7642	-0.0102	-0.0150	-0.0381	33.3519	-9.0623	5.5018	0.5122	-0.5230	0.5170	0.4436
9.14	-9.6329	-0.6613	-0.7698	-0.0150	-0.0098	-0.0341	33.1501	-8.9707	5.3532	0.5123	-0.5228	0.5171	0.4436
9.15	-9.6208	-0.6427	-0.7625	-0.0083	-0.0028	-0.0343	32.6395	-9.0514	5.1664	0.5123	-0.5227	0.5172	0.4436
9.16	-9.6200	-0.6388	-0.7678	-0.0071	-0.0090	-0.0369	32.4209	-8.9411	5.3516	0.5123	-0.5226	0.5173	0.4436
9.17	-9.6284	-0.6270	-0.7670	-0.0065	-0.0022	-0.0432	32.4672	-9.1574	5.1125	0.5124	-0.5225	0.5175	0.4435
9.18	-9.6351	-0.6260	-0.7723	-0.0074	0.0020	-0.0515	32.6824	-9.1748	5.1906	0.5124	-0.5224	0.5175	0.4433
9.19	-9.6417	-0.6206	-0.7762	-0.0063	-0.0020	-0.0592	32.5855	-9.1668	5.1592	0.5125	-0.5224	0.5177	0.4433
9.2	-9.6458	-0.6135	-0.7756	-0.0092	0.0062	-0.0537	32.5613	-9.1658	5.1354	0.5126	-0.5223	0.5178	0.4431
9.21	-9.6397	-0.6099	-0.7757	-0.0108	0.0022	-0.0534	32.4645	-9.2059	5.1483	0.5126	-0.5224	0.5179	0.4431
9.22	-9.6401	-0.6017	-0.7723	-0.0187	-0.0085	-0.0566	32.4515	-9.4743	5.0743	0.5126	-0.5223	0.5179	0.4429
9.23	-9.6343	-0.5961	-0.7699	-0.0198	-0.0066	-0.0594	32.6685	-9.3921	5.2388	0.5127	-0.5222	0.5179	0.4429
9.24	-9.6366	-0.5890	-0.7685	-0.0288	-0.0125	-0.0584	32.6433	-9.3295	4.9717	0.5128	-0.5222	0.5179	0.4428
9.25	-9.6247	-0.5933	-0.7649	-0.0324	-0.0096	-0.0581	32.8485	-9.3563	5.1184	0.5128	-0.5222	0.5179	0.4428
9.26	-9.6167	-0.5993	-0.7609	-0.0333	-0.0055	-0.0577	32.6836	-9.2391	5.0805	0.5129	-0.5223	0.5180	0.4428
9.27	-9.6033	-0.6129	-0.7637	-0.0420	-0.0059	-0.0621	32.6271	-9.4098	5.1490	0.5129	-0.5222	0.5179	0.4427
9.28	-9.6118	-0.6274	-0.7692	-0.0548	0.0046	-0.0659	32.5992	-9.4445	5.2141	0.5129	-0.5224	0.5180	0.4426
9.29	-9.5966	-0.6456	-0.7798	-0.0536	0.0083	-0.0604	32.3929	-9.4243	5.1955	0.5127	-0.5224	0.5179	0.4425
9.3	-9.5545	-0.6568	-0.7875	-0.0574	0.0098	-0.0545	32.7575	-9.3373	5.0642	0.5127	-0.5226	0.5179	0.4425
9.31	-9.6512	-0.6698	-0.7900	-0.0570	0.0181	-0.0605	32.5781	-9.3208	5.0010	0.5126	-0.5227	0.5179	0.4425
9.32	-9.7390	-0.6950	-0.8026	-0.0514	0.0220	-0.0668	32.3185	-9.1597	5.2976	0.5125	-0.5228	0.5179	0.4424
9.33	-9.6821	-0.7042	-0.8069	-0.0601	0.0156	-0.0665	32.4827	-9.0831	5.2682	0.5124	-0.5230	0.5179	0.4424
9.34	-9.6504	-0.7181	-0.8124	-0.0454	0.0120	-0.0704	32.4504	-9.1986	5.2977	0.5124	-0.5231	0.5179	0.4423
9.35	-9.6877	-0.7485	-0.8246	-0.0369	0.0085	-0.0614	32.4412	-9.1156	5.0068	0.5124	-0.5232	0.5179	0.4422
9.36	-9.6893	-0.7667	-0.8297	-0.0324	0.0040	-0.0567	32.5512	-9.0479	5.0843	0.5123	-0.5232	0.5179	0.4421
9.37	-9.6673	-0.7502	-0.8244	-0.0330	-0.0009	-0.0561	32.5282	-9.0304	5.2061	0.5123	-0.5232	0.5180	0.4421
9.38	-9.6659	-0.7393	-0.8325	-0.0267	-0.0059	-0.0549	32.4449	-9.0455	5.0283	0.5123	-0.5232	0.5180	0.4421
9.39	-9.6655	-0.7376	-0.8301	-0.0178	-0.0145	-0.0526	32.6863	-9.0075	5.2133	0.5124	-0.5231	0.5181	0.4420
9.4	-9.6483	-0.7284	-0.8257	-0.0116	-0.0079	-0.0551	32.4860	-9.3947	5.0778	0.5125	-0.5231	0.5181	0.4419
9.41	-9.6538	-0.7240	-0.8263	-0.0075	-0.0084	-0.0560	32.7482	-9.3300	5.1331	0.5126	-0.5230	0.5182	0.4418
9.42	-9.6697	-0.7240	-0.8229	-0.0050	-0.0083	-0.0612	32.5787	-9.5394	5.2411	0.5127	-0.5229	0.5182	0.4417
9.43	-9.6662	-0.7193	-0.8217	-0.0025	-0.0077	-0.0575	32.5995	-9.4414	5.0840	0.5128	-0.5228	0.5183	0.4416
9.44	-9.6531	-0.7116	-0.8258	-0.0032	-0.0120	-0.0578	32.7466	-9.3150	5.2254	0.5130	-0.5228	0.5184	0.4415
9.45	-9.6666	-0.6983	-0.8158	-0.0037	-0.0147	-0.0511	32.5837	-9.3754	5.1613	0.5130	-0.5226	0.5185	0.4414
9.46	-9.6771	-0.6871	-0.8174	-0.0072	-0.0124	-0.0451	32.6687	-9.2626	5.2884	0.5132	-0.5226	0.5186	0.4414
9.47	-9.6612	-0.6865	-0.8071	-0.0048	-0.0153	-0.0422	32.5945	-9.2518	5.1953	0.5132	-0.5223	0.5186	0.4413
9.48	-9.6503	-0.6880	-0.8086	-0.0083	-0.0151	-0.0391	32.8037	-9.3709	5.0647	0.5133	-0.5222	0.5188	0.4413
9.49	-9.6512	-0.6885	-0.8079	-0.0110	-0.0248	-0.0408	32.7418	-9.5102	5.1693	0.5134	-0.5221	0.5188	0.4412
9.5	-9.6477	-0.6914	-0.8045	-0.0081	-0.0139	-0.0435	32.4131	-9.4789	5.2227	0.5134	-0.5219	0.5189	0.4412
9.51	-9.6449	-0.7022	-0.8000	-0.0058	-0.0107	-0.0378	32.5782	-9.0998	5.1542	0.5136	-0.5219	0.5191	0.4412
9.52	-9.6469	-0.7011	-0.7961	-0.0077	-0.0139	-0.0402	32.6606	-9.0943	5.2489	0.5136	-0.5217	0.5191	0.4411
9.53	-9.6515	-0.6951	-0.7900	-0.0060	-0.0110	-0.0383	32.5758	-9.2661	5.0257	0.5137	-0.5216	0.5193	0.4411
9.54	-9.6442	-0.6903	-0.7870	-0.0089	-0.0227	-0.0391	32.4353	-9.2520	5.0068	0.5137	-0.5214	0.5192	0.4410
9.55	-9.6391	-0.6870	-0.7833	-0.0012	-0.0132	-0.0424	32.4665	-9.1632	5.2031	0.5138	-0.5213	0.5194	0.4410
9.56	-9.6465	-0.6704	-0.7832	0.0017	-0.0163	-0.0403	32.4370	-9.3163	5.0851	0.5139	-0.5212	0.5195	0.4409
9.57	-9.6444	-0.6590	-0.7771	0.0014	-0.0137	-0.0407	32.5219	-9.1396	5.3304	0.5140	-0.5210	0.5196	0.4408
9.58	-9.6359	-0.6463	-0.7733	0.0108	-0.0191	-0.0446	32.6646	-9.2910	5.1564	0.5142	-0.5208	0.5198	0.4408
9.59	-9.6299	-0.6395	-0.7681	-0.0033	-0.0109	-0.0443	32.4613	-9.2111	5.0831	0.5142	-0.5207	0.5198	0.4407
9.6	-9.6344	-0.6325	-0.7689	-0.0044	-0.0181	-0.0475	32.5002	-9.3903	5.1252	0.5143	-0.5206	0.5199	0.4407
9.61	-9.6244	-0.6176	-0.7731	-0.0050	-0.0113	-0.0435	32.6298	-9.4686	5.0000	0.5144	-0.5204	0.5199	0.4405
9.62	-9.6276	-0.6161	-0.7711	-0.0133	-0.0046	-0.0444	32.8622	-9.1920	5.1307	0.5145	-0.5204	0.5201	0.4405
9.63	-9.6458	-0.6171	-0.7731	-0.0087	-0.0072	-0.0448	33.0719	-9.1495	5.4012	0.5145	-0.5203	0.5202	0.4404
9.64	-9.6410	-0.6133	-0.7756	-0.0204	-0.0165	-0.0458	32.7977	-9.2191	5.2704	0.5146	-0.5202	0.5203	0.4404
9.65	-9.6341	-0.6154	-0.7765	-0.0218	-0.0148	-0.0538	32.6148	-9.1669	5.0092	0.5146	-0.5201	0.5203	0.4404
9.66	-9.6336	-0.6156	-0.7733	-0.0193	-0.0101	-0.0598	32.3207	-9.1723	5.1053	0.5147	-0.5201	0.5203	0.4403
9.67	-9.6548	-0.6253	-0.7722	-0.0240	-0.0151	-0.0584	32.3675	-9.3231	4.8000	0.5147	-0.5201	0.5203	0.4403
9.68	-9.6621	-0.6282	-0.7790	-0.0272	-0.0108	-0.0659	32.5799	-9.2121	4.8870	0.5147	-0.5201	0.5202	0.4402
9.69	-9.6490	-0.6324	-0.7806	-0.0303	-0.0056	-0.0651	32.4849	-8.9961	4.9752	0.5148	-0.5202	0.5203	0.4402
9.7	-9.6347	-0.6243	-0.7873	-0.0309	-0.0114	-0.0633	32.6239	-9.1903	4.8837	0.5148	-0.5202	0.5202	0.4402
9.71	-9.6360	-0.6179	-0.7869	-0.0352	-0.0085	-0.0715	32.5158	-8.9836	5.0879	0.5149	-0.5203	0.5202	0.4402
9.72	-9.6224	-0.6255	-0.7814	-0.0321	-0.0042	-0.0743	32.2221	-9.2486	5.0691	0.5149	-0.5203	0.5201	0.4401
9.73	-9.6334	-0.6326	-0.7855	-0.0461	-0.0031	-0.0757	32.4030	-9.1463	5.0677	0.5149	-0.5204	0.5200	0.4401
9.74	-9.6660	-0.6607	-0.7893	-0.0571	-0.0014	-0.0759	32.5014	-9.1700	5.0943	0.5149	-0.5205	0.5199	0.4400
9.75	-9.6922	-0.6779	-0.7903	-0.0534	-0.0047	-0.0753	32.5614	-9.1492	4.9799	0.5148	-0.5206	0.5198	0.4400
9.76	-9.7312	-0.6965	-0.7929	-0.0567	-0.0099	-0.0723	32.4104	-9.0970	4.9900	0.5149	-0.5208	0.5198	0.4401
9.77	-9.7488	-0.7296	-0.7888	-0.0556	-0.0160	-0.0713	32.4877	-8.9909	4.9380	0.5148	-0.5209	0.5196	0.4401
9.78	-9.6926	-0.7550	-0.7918	-0.0555	-0.0275	-0.0661	32.5952	-9.1461	4.8908	0.5149	-0.5210	0.5195	0.4402
9.79	-9.6290	-0.7822	-0.7948	-0.0511	-0.0270	-0.0646	32.7323	-9.3292	5.2334	0.5149	-0.5209	0.5193	0.4401
9.8	-9.6121	-0.8103	-0.7955	-0.0358	-0.0206	-0.0536	32.6804	-9.2507	5.1017	0.5149	-0.5209	0.5194	0.4402
9.81	-9.6370	-0.8151	-0.7873	-0.0348	-0.0154	-0.0479	32.7843	-9.3672	4.9506	0.5149	-0.5209	0.5194	0.4402
9.82	-9.6514	-0.8113	-0.7837	-0.0276	-0.0195	-0.0410	32.7412	-9.3233	5.0057	0.5150	-0.5208	0.5194	0.4402
9.83	-9.6515	-0.7912	-0.7800	-0.0238	-0.0209	-0.0404	32.6005	-9.1765	4.9655	0.5150	-0.5207	0.5195	0.4403
9.84	-9.6502	-0.7780	-0.7742	-0.0079	-0.0222	-0.0452	32.6230	-9.0881	5.2713	0.5151	-0.5205	0.5195	0.4402
9.85	-9.6259	-0.7652	-0.7749	-0.0005	-0.0238	-0.0450	32.4352	-9.1793	4.9843	0.5152	-0.5204	0.5196	0.4402
9.86	-9.6246	-0.7469	-0.7717	0.0147	-0.0171	-0.0517	32.4516	-9.2274	5.0029	0.5153	-0.5202	0.5196	0.4401
9.87	-9.6264	-0.7190	-0.7621	0.0198	-0.0157	-0.0513	32.4284	-9.1788	4.9301	0.5155	-0.5202	0.5198	0.4400
9.88	-9.6100	-0.6881	-0.7569	0.0172	-0.0149	-0.0502	32.4862	-9.0977	4.7791	0.5156	-0.5200	0.5198	0.4399
9.89	-9.6125	-0.6565	-0.7485	0.0197	-0.0128	-0.0470	32.5737	-9.1380	5.0111	0.5158	-0.5198	0.5200	0.4398
9.9	-9.6283	-0.6261	-0.7473	0.0178	-0.0096	-0.0470	32.4066	-9.0110	4.9602	0.5159	-0.5197	0.5201	0.4396
9.91	-9.6393	-0.5964	-0.7505	0.0104	-0.0109	-0.0495	32.4915	-9.0468	5.1167	0.5160	-0.5196	0.5202	0.4395
9.92	-9.6508	-0.5864	-0.7559	-0.0043	-0.0102	-0.0467	32.5426	-9.1792	5.0282	0.5161	-0.5195	0.5203	0.4395
9.93	-9.6553	-0.5803	-0.7463	-0.0109	-0.0147	-0.0446	32.5429	-8.9169	5.1873	0.5161	-0.5193	0.5203	0.4394
9.94	-9.6620	-0.5886	-0.7498	-0.0326	-0.0135	-0.0401	32.4150	-8.9650	5.1261	0.5162	-0.5193	0.5204	0.4395
9.95	-9.6825	-0.5962	-0.7550	-0.0315	-0.0139	-0.0396	32.3434	-9.1858	5.0773	0.5161	-0.5192	0.5204	0.4395
9.96	-9.6964	-0.5968	-0.7580	-0.0426	-0.0185	-0.0367	32.3430	-9.0131	5.0043	0.5161	-0.5193	0.5204	0.4396
9.97	-9.6972	-0.5991	-0.7634	-0.0583	-0.0198	-0.0344	32.5344	-9.1196	4.8825	0.5160	-0.5192	0.5203	0.4397
9.98	-9.6601	-0.5945	-0.7608	-0.0571	-0.0270	-0.0269	32.6607	-9.2375	4.9898	0.5160	-0.5191	0.5204	0.4399
9.99	-9.6361	-0.5822	-0.7596	-0.0633	-0.0315	-0.0205	32.5808	-8.9905	4.8331	0.5159	-0.5191	0.5203	0.4401
10	-9.7148	-0.6080	-0.7560	-0.0782	-0.0283	-0.0291	32.7293	-9.5010	4.9994	0.5158	-0.5190	0.5202	0.4403
10.01	-9.6957	-0.6551	-0.7555	-0.0850	-0.0390	-0.0362	32.6802	-9.4152	4.9950	0.5157	-0.5191	0.5202	0.4406
10.02	-9.6072	-0.6631	-0.7399	-0.0853	-0.0394	-0.0351	32.6358	-9.3187	4.9551	0.5156	-0.5191	0.5200	0.4408
10.03	-9.6267	-0.6909	-0.7347	-0.0822	-0.0324	-0.0417	32.5097	-9.3073	4.5929	0.5156	-0.5191	0.5199	0.4410
10.04	-9.6540	-0.7322	-0.7377	-0.0697	-0.0300	-0.0459	32.3006	-9.0599	4.7018	0.5154	-0.5191	0.5197	0.4411
10.05	-9.6336	-0.7468	-0.7215	-0.0642	-0.0383	-0.0402	32.7381	-9.2696	4.9448	0.5154	-0.5191	0.5197	0.4414
10.06	-9.6152	-0.7456	-0.7096	-0.0586	-0.0324	-0.0462	32.4740	-9.3000	5.0211	0.5154	-0.5191	0.5196	0.4415
10.07	-9.6238	-0.7413	-0.7014	-0.0459	-0.0253	-0.0512	32.4363	-9.2735	4.8743	0.5154	-0.5191	0.5195	0.4416
10.08	-9.6154	-0.7294	-0.7010	-0.0287	-0.0305	-0.0542	32.4368	-9.4189	5.0171	0.5155	-0.5191	0.5195	0.4416
10.09	-9.5970	-0.7226	-0.6914	-0.0333	-0.0212	-0.0603	32.3349	-9.1886	4.9322	0.5155	-0.5191	0.5194	0.4416
10.1	-9.6041	-0.7166	-0.6876	-0.0214	-0.0151	-0.0633	32.5871	-9.3294	4.8950	0.5156	-0.5191	0.5194	0.4416
10.11	-9.6154	-0.7058	-0.6898	-0.0176	-0.0110	-0.0604	32.7203	-9.4205	4.8053	0.5156	-0.5190	0.5193	0.4415
10.12	-9.6130	-0.6936	-0.6890	-0.0210	-0.0110	-0.0580	32.8030	-9.0367	4.8032	0.5158	-0.5190	0.5194	0.4414
10.13	-9.6344	-0.6885	-0.6913	-0.0196	-0.0062	-0.0591	33.3271	-9.0115	5.1034	0.5158	-0.5190	0.5194	0.4413
10.14	-9.6611	-0.6806	-0.6963	-0.0150	-0.0009	-0.0531	33.1913	-9.0845	5.0144	0.5159	-0.5189	0.5195	0.4413
10.15	-9.6510	-0.6774	-0.6940	-0.0221	-0.0156	-0.0548	32.7878	-9.2683	4.9673	0.5159	-0.5188	0.5196	0.4412
10.16	-9.6532	-0.6782	-0.6979	-0.0284	-0.0152	-0.0468	32.7032	-9.2474	4.8423	0.5160	-0.5188	0.5196	0.4412
10.17	-9.6603	-0.6839	-0.7090	-0.0289	-0.0096	-0.0528	32.6599	-9.4684	5.0326	0.5160	-0.5188	0.5196	0.4412
10.18	-9.6594	-0.6918	-0.7143	-0.0285	-0.0154	-0.0450	32.8101	-9.5128	4.8257	0.5160	-0.5187	0.5196	0.4411
10.19	-9.6527	-0.6965	-0.7145	-0.0206	-0.0159	-0.0474	32.7909	-9.3552	4.7154	0.5161	-0.5186	0.5197	0.4412
10.2	-9.6610	-0.7105	-0.7133	-0.0208	-0.0115	-0.0479	32.7941	-9.1602	5.0051	0.5161	-0.5185	0.5198	0.4411
10.21	-9.6783	-0.7213	-0.7167	-0.0293	-0.0163	-0.0449	32.8137	-9.3566	4.7398	0.5162	-0.5185	0.5198	0.4412
10.22	-9.6649	-0.7109	-0.7204	-0.0155	-0.0161	-0.0499	32.6907	-9.5296	4.6190	0.5162	-0.5184	0.5198	0.4411
10.23	-9.6486	-0.7170	-0.7113	-0.0076	-0.0142	-0.0463	32.5985	-9.5481	4.8959	0.5163	-0.5183	0.5199	0.4411
10.24	-9.6662	-0.7112	-0.7163	-0.0044	-0.0189	-0.0429	32.6192	-9.2959	4.7122	0.5164	-0.5181	0.5200	0.4410
10.25	-9.6822	-0.7076	-0.7140	-0.0083	-0.0185	-0.0419	32.6272	-9.3279	4.8129	0.5164	-0.5180	0.5200	0.4410
10.26	-9.6705	-0.6878	-0.7067	-0.0003	-0.0153	-0.0465	32.5018	-9.2034	4.8053	0.5165	-0.5179	0.5202	0.4410
10.27	-9.6612	-0.6931	-0.7133	-0.0056	-0.0165	-0.0510	32.5707	-9.3807	4.8490	0.5166	-0.5178	0.5202	0.4409
10.28	-9.6377	-0.6783	-0.6932	-0.0021	-0.0154	-0.0493	32.6457	-9.1634	4.9446	0.5167	-0.5177	0.5203	0.4409
10.29	-9.6564	-0.6668	-0.6763	0.0039	-0.0154	-0.0486	32.5314	-9.1046	4.7904	0.5168	-0.5175	0.5203	0.4407
10.3	-9.6637	-0.6716	-0.6985	-0.0039	-0.0205	-0.0401	32.3864	-9.3973	4.8272	0.5169	-0.5174	0.5204	0.4408
10.31	-9.6242	-0.6556	-0.6847	-0.0037	-0.0220	-0.0412	32.3660	-9.3670	4.8000	0.5169	-0.5173	0.5205	0.4408
10.32	-9.6155	-0.6589	-0.6948	0.0060	-0.0080	-0.0437	32.5520	-9.2197	4.8764	0.5170	-0.5172	0.5206	0.4407
10.33	-9.5809	-0.6544	-0.6905	-0.0022	-0.0170	-0.0391	32.4248	-9.2162	5.0410	0.5171	-0.5171	0.5207	0.4407
10.34	-9.5854	-0.6534	-0.6869	-0.0006	-0.0061	-0.0356	32.4370	-9.3781	4.7940	0.5171	-0.5170	0.5207	0.4406
10.35	-9.6220	-0.6427	-0.6857	0.0059	-0.0064	-0.0426	32.4662	-9.3966	4.7238	0.5172	-0.5169	0.5209	0.4405
10.36	-9.6476	-0.6527	-0.6902	-0.0031	-0.0079	-0.0406	32.7237	-9.4751	5.0580	0.5172	-0.5167	0.5210	0.4404
10.37	-9.6453	-0.6382	-0.6920	0.0066	-0.0026	-0.0394	32.6947	-9.6056	4.7394	0.5174	-0.5166	0.5212	0.4404
10.38	-9.6459	-0.6183	-0.6924	-0.0004	-0.0055	-0.0452	32.5502	-9.5404	4.7666	0.5174	-0.5164	0.5213	0.4403
10.39	-9.6512	-0.6077	-0.7001	0.0046	0.0015	-0.0396	32.5020	-9.4011	4.8601	0.5175	-0.5163	0.5214	0.4402
10.4	-9.6240	-0.5987	-0.6981	0.0047	0.0016	-0.0518	32.6415	-9.3160	4.6814	0.5175	-0.5162	0.5216	0.4400
10.41	-9.6089	-0.5965	-0.7102	0.0047	0.0082	-0.0505	32.5851	-9.4137	4.7812	0.5176	-0.5162	0.5217	0.4399
10.42	-9.6281	-0.6051	-0.7150	-0.0029	0.0127	-0.0531	32.4914	-9.4039	5.0144	0.5177	-0.5161	0.5219	0.4397
10.43	-9.6490	-0.6141	-0.7141	-0.0056	0.0059	-0.0600	32.6144	-9.3854	4.9928	0.5177	-0.5160	0.5219	0.4395
10.44	-9.6786	-0.6220	-0.7135	-0.0122	0.0028	-0.0585	32.7320	-9.3321	5.0104	0.5178	-0.5161	0.5221	0.4395
10.45	-9.7133	-0.6356	-0.7230	-0.0098	0.0049	-0.0592	32.3680	-9.2268	4.9751	0.5178	-0.5160	0.5221	0.4393
10.46	-9.6943	-0.6527	-0.7291	-0.0053	-0.0087	-0.0588	32.4042	-9.0924	4.7898	0.5179	-0.5160	0.5222	0.4393
10.47	-9.6382	-0.6512	-0.7237	-0.0093	-0.0068	-0.0533	32.5438	-9.2497	4.9121	0.5179	-0.5159	0.5222	0.4391
10.48	-9.6066	-0.6602	-0.7334	-0.0186	-0.0025	-0.0484	32.5309	-8.9834	5.0228	0.5180	-0.5159	0.5223	0.4391
10.49	-9.6258	-0.6623	-0.7362	-0.0085	0.0016	-0.0437	32.5176	-9.1096	5.1434	0.5180	-0.5158	0.5224	0.4390
10.5	-9.6562	-0.6447	-0.7409	-0.0066	0.0035	-0.0423	32.5591	-9.2211	4.9009	0.5180	-0.5157	0.5225	0.4389
10.51	-9.6674	-0.6269	-0.7425	-0.0060	0.0040	-0.0408	32.3810	-9.2279	4.9082	0.5181	-0.5157	0.5227	0.4389
10.52	-9.6640	-0.6082	-0.7424	-0.0067	0.0039	-0.0405	32.4075	-9.3647	5.0343	0.5180	-0.5156	0.5228	0.4388
10.53	-9.6552	-0.6052	-0.7445	-0.0077	0.0054	-0.0496	32.6198	-9.2002	4.9710	0.5181	-0.5155	0.5229	0.4387
10.54	-9.6571	-0.5999	-0.7498	-0.0036	0.0011	-0.0563	32.7156	-9.3959	5.0358	0.5181	-0.5154	0.5230	0.4385
10.55	-9.6575	-0.5920	-0.7596	-0.0047	-0.0017	-0.0569	32.6693	-9.6277	4.8409	0.5182	-0.5154	0.5231	0.4385
10.56	-9.6410	-0.5931	-0.7601	-0.0102	-0.0024	-0.0584	32.6359	-9.5199	4.8692	0.5183	-0.5153	0.5232	0.4384
10.57	-9.6419	-0.5832	-0.7668	-0.0060	0.0071	-0.0566	32.7523	-9.4164	4.9279	0.5183	-0.5152	0.5233	0.4382
10.58	-9.6544	-0.5793	-0.7627	-0.0173	-0.0004	-0.0558	32.5801	-9.1973	4.8978	0.5184	-0.5152	0.5234	0.4381
10.59	-9.6715	-0.5701	-0.7630	-0.0239	-0.0054	-0.0606	32.5135	-9.3689	5.0424	0.5184	-0.5152	0.5234	0.4381
10.6	-9.6615	-0.5768	-0.7695	-0.0299	-0.0109	-0.0666	32.5673	-9.4261	4.9420	0.5185	-0.5152	0.5234	0.4380
10.61	-9.6555	-0.5871	-0.7567	-0.0331	-0.0100	-0.0651	32.7319	-9.3108	4.7941	0.5185	-0.5152	0.5233	0.4379
10.62	-9.6677	-0.5958	-0.7601	-0.0365	-0.0051	-0.0687	32.7804	-9.0983	4.9447	0.5186	-0.5153	0.5233	0.4379
10.63	-9.6609	-0.6154	-0.7634	-0.0453	-0.0079	-0.0693	33.1852	-9.1479	5.1888	0.5186	-0.5153	0.5233	0.4379
10.64	-9.6617	-0.6251	-0.7639	-0.0534	-0.0131	-0.0610	32.9359	-9.1098	5.1428	0.5186	-0.5153	0.5232	0.4379
10.65	-9.6775	-0.6413	-0.7665	-0.0522	-0.0039	-0.0648	32.6350	-9.1510	5.1317	0.5185	-0.5154	0.5232	0.4379
10.66	-9.6198	-0.6548	-0.7654	-0.0509	-0.0132	-0.0646	32.2738	-9.2630	5.1837	0.5185	-0.5154	0.5231	0.4379
10.67	-9.5990	-0.6567	-0.7601	-0.0432	-0.0070	-0.0658	32.3649	-9.0837	5.0634	0.5185	-0.5155	0.5231	0.4379
10.68	-9.7099	-0.6762	-0.7644	-0.0454	0.0022	-0.0678	32.5267	-9.3308	4.7655	0.5185	-0.5156	0.5230	0.4378
10.69	-9.7011	-0.6881	-0.7709	-0.0408	-0.0089	-0.0718	32.3136	-9.3965	4.7985	0.5185	-0.5157	0.5230	0.4379
10.7	-9.6047	-0.6901	-0.7634	-0.0385	-0.0123	-0.0735	32.5722	-9.1462	4.9547	0.5185	-0.5157	0.5229	0.4378
10.71	-9.6359	-0.7113	-0.7616	-0.0364	-0.0135	-0.0714	32.5196	-9.1052	4.9338	0.5186	-0.5158	0.5229	0.4378
10.72	-9.6852	-0.7424	-0.7686	-0.0354	-0.0112	-0.0703	32.6650	-9.3432	4.7448	0.5186	-0.5158	0.5228	0.4377
10.73	-9.6610	-0.7386	-0.7705	-0.0325	-0.0210	-0.0562	32.8423	-9.3899	4.8566	0.5187	-0.5158	0.5228	0.4378
10.74	-9.6245	-0.7254	-0.7637	-0.0288	-0.0130	-0.0539	32.8260	-9.2812	5.0402	0.5187	-0.5157	0.5228	0.4377
10.75	-9.6466	-0.7249	-0.7626	-0.0244	-0.0159	-0.0529	32.7359	-9.3259	4.8626	0.5188	-0.5156	0.5228	0.4377
10.76	-9.6499	-0.7197	-0.7652	-0.0259	-0.0139	-0.0571	32.7293	-9.3091	4.9033	0.5189	-0.5157	0.5229	0.4377
10.77	-9.6389	-0.7245	-0.7652	-0.0232	-0.0124	-0.0568	32.7160	-9.3089	5.0006	0.5189	-0.5156	0.5228	0.4376
10.78	-9.6580	-0.7249	-0.7615	-0.0080	-0.0125	-0.0562	32.5474	-9.3237	4.9589	0.5190	-0.5155	0.5229	0.4376
10.79	-9.6534	-0.7210	-0.7618	-0.0057	-0.0125	-0.0605	32.5450	-9.3023	5.0059	0.5190	-0.5154	0.5229	0.4375
10.8	-9.6488	-0.7142	-0.7629	-0.0069	-0.0191	-0.0505	32.6742	-9.1181	4.6940	0.5192	-0.5153	0.5230	0.4374
10.81	-9.6512	-0.7009	-0.7591	-0.0068	-0.0137	-0.0517	32.7677	-9.2988	4.7598	0.5193	-0.5152	0.5231	0.4374
10.82	-9.6595	-0.6910	-0.7621	-0.0063	-0.0102	-0.0563	32.6331	-9.3450	4.7996	0.5193	-0.5151	0.5231	0.4373
10.83	-9.6625	-0.6806	-0.7631	-0.0083	-0.0152	-0.0482	32.6507	-9.1772	4.7946	0.5194	-0.5150	0.5232	0.4373
10.84	-9.6622	-0.6809	-0.7625	-0.0091	-0.0131	-0.0523	32.6152	-9.1778	5.0344	0.5195	-0.5149	0.5233	0.4372
10.85	-9.6710	-0.6762	-0.7625	-0.0136	-0.0160	-0.0532	32.5078	-9.1906	4.6810	0.5196	-0.5149	0.5233	0.4372
10.86	-9.6643	-0.6758	-0.7529	-0.0166	-0.0212	-0.0530	32.6628	-9.1110	4.7822	0.5196	-0.5147	0.5233	0.4371
10.87	-9.6531	-0.6763	-0.7475	-0.0289	-0.0267	-0.0464	32.6188	-9.1525	4.9076	0.5197	-0.5147	0.5234	0.4372
10.88	-9.6446	-0.6753	-0.7449	-0.0199	-0.0263	-0.0427	32.5258	-9.1330	4.8555	0.5198	-0.5146	0.5234	0.4372
10.89	-9.6540	-0.6759	-0.7409	-0.0258	-0.0237	-0.0468	32.5814	-9.1307	4.9480	0.5199	-0.5145	0.5234	0.4372
10.9	-9.6588	-0.6770	-0.7396	-0.0319	-0.0239	-0.0474	32.4302	-9.2352	5.0901	0.5199	-0.5144	0.5233	0.4373
10.91	-9.6534	-0.6689	-0.7354	-0.0236	-0.0286	-0.0452	32.6290	-9.2144	5.0423	0.5199	-0.5143	0.5234	0.4373
10.92	-9.6527	-0.6725	-0.7304	-0.0152	-0.0242	-0.0477	32.8136	-9.2635	4.9019	0.5200	-0.5142	0.5234	0.4373
10.93	-9.6601	-0.6702	-0.7305	-0.0141	-0.0185	-0.0461	32.8419	-9.4124	4.8677	0.5200	-0.5140	0.5234	0.4373
10.94	-9.6565	-0.6594	-0.7227	-0.0154	-0.0267	-0.0469	32.5741	-9.4937	4.9187	0.5202	-0.5140	0.5235	0.4373
10.95	-9.6532	-0.6595	-0.7273	-0.0136	-0.0254	-0.0447	32.7368	-9.4896	4.9800	0.5203	-0.5138	0.5235	0.4373
10.96	-9.6526	-0.6566	-0.7276	-0.0154	-0.0250	-0.0526	32.8677	-9.2241	4.7642	0.5204	-0.5138	0.5236	0.4373
10.97	-9.6532	-0.6533	-0.7193	-0.0136	-0.0228	-0.0528	32.7084	-9.2299	4.9018	0.5204	-0.5136	0.5236	0.4372
10.98	-9.6496	-0.6495	-0.7139	-0.0240	-0.0250	-0.0469	32.6111	-9.4351	4.7473	0.5205	-0.5135	0.5236	0.4373
10.99	-9.6404	-0.6495	-0.7094	-0.0204	-0.0242	-0.0474	32.5084	-9.2215	4.6751	0.5206	-0.5134	0.5236	0.4373
11	-9.6312	-0.6469	-0.7080	-0.0253	-0.0201	-0.0564	32.6575	-9.2263	4.7139	0.5206	-0.5133	0.5236	0.4373
11.01	-9.6181	-0.6425	-0.7006	-0.0246	-0.0252	-0.0576	32.5317	-9.2380	4.7706	0.5208	-0.5134	0.5236	0.4373
11.02	-9.6083	-0.6481	-0.6870	-0.0289	-0.0232	-0.0569	32.4310	-9.0592	4.8454	0.5208	-0.5133	0.5235	0.4373
11.03	-9.6275	-0.6477	-0.6927	-0.0295	-0.0150	-0.0603	32.5278	-9.1025	4.8477	0.5208	-0.5133	0.5235	0.4373
11.04	-9.6411	-0.6559	-0.6966	-0.0331	-0.0182	-0.0604	32.6450	-9.2349	4.5803	0.5208	-0.5132	0.5234	0.4372
11.05	-9.6384	-0.6665	-0.6930	-0.0323	-0.0150	-0.0613	32.7541	-9.2424	4.8365	0.5209	-0.5133	0.5235	0.4373
11.06	-9.6253	-0.6640	-0.6842	-0.0283	-0.0145	-0.0609	32.5284	-9.3319	4.7763	0.5210	-0.5132	0.5235	0.4372
11.07	-9.6246	-0.6509	-0.6847	-0.0330	-0.0115	-0.0651	32.6454	-9.0211	4.7894	0.5210	-0.5132	0.5234	0.4372
11.08	-9.6200	-0.6557	-0.6915	-0.0327	-0.0144	-0.0609	32.6257	-9.1654	4.7880	0.5211	-0.5133	0.5235	0.4372
11.09	-9.5963	-0.6612	-0.6895	-0.0327	-0.0132	-0.0656	32.6867	-9.1035	5.0505	0.5211	-0.5133	0.5234	0.4371
11.1	-9.6268	-0.6782	-0.6916	-0.0321	-0.0025	-0.0657	32.7333	-9.0130	4.6229	0.5212	-0.5133	0.5234	0.4370
11.11	-9.6649	-0.7022	-0.7001	-0.0412	-0.0028	-0.0648	32.8057	-9.1510	4.5862	0.5211	-0.5133	0.5234	0.4370
11.12	-9.6791	-0.7150	-0.7041	-0.0392	-0.0034	-0.0632	33.0358	-9.2294	4.8362	0.5211	-0.5134	0.5234	0.4370
11.13	-9.7117	-0.7287	-0.6953	-0.0353	-0.0075	-0.0562	33.1580	-9.3958	5.1109	0.5211	-0.5134	0.5234	0.4369
11.14	-9.7341	-0.7425	-0.7022	-0.0353	-0.0153	-0.0537	33.1123	-9.3119	4.9219	0.5212	-0.5134	0.5234	0.4369
11.15	-9.6853	-0.7533	-0.7036	-0.0307	-0.0203	-0.0520	32.8080	-9.0719	4.8749	0.5212	-0.5133	0.5234	0.4369
11.16	-9.6134	-0.7695	-0.7026	-0.0348	-0.0241	-0.0435	32.6803	-9.2568	4.8364	0.5212	-0.5132	0.5234	0.4370
11.17	-9.6046	-0.7754	-0.7011	-0.0198	-0.0195	-0.0393	32.6027	-9.2373	4.7399	0.5213	-0.5131	0.5235	0.4370
11.18	-9.6356	-0.7700	-0.7040	-0.0079	-0.0161	-0.0373	32.5916	-9.2487	4.9497	0.5213	-0.5129	0.5235	0.4370
11.19	-9.6564	-0.7375	-0.7061	-0.0062	-0.0080	-0.0373	32.7042	-9.1876	4.8087	0.5214	-0.5129	0.5237	0.4370
11.2	-9.6635	-0.7071	-0.7025	0.0015	-0.0132	-0.0323	32.6681	-9.1753	4.9568	0.5214	-0.5127	0.5238	0.4369
11.21	-9.6634	-0.6831	-0.7031	0.0131	-0.0131	-0.0400	32.4655	-8.9850	4.8894	0.5216	-0.5126	0.5240	0.4369
11.22	-9.6604	-0.6636	-0.7018	0.0191	-0.0132	-0.0465	32.2056	-8.9818	4.9284	0.5216	-0.5123	0.5240	0.4367
11.23	-9.6671	-0.6408	-0.6977	0.0187	-0.0130	-0.0544	32.3880	-9.0257	4.7682	0.5218	-0.5122	0.5242	0.4367
11.24	-9.6507	-0.6197	-0.7018	0.0156	-0.0128	-0.0467	32.6175	-9.0318	4.7024	0.5219	-0.5121	0.5243	0.4365
11.25	-9.6330	-0.5945	-0.6944	0.0135	-0.0169	-0.0512	32.5155	-9.2692	4.8148	0.5220	-0.5119	0.5243	0.4364
11.26	-9.6444	-0.5711	-0.6936	0.0040	-0.0173	-0.0469	32.4027	-9.2212	4.9400	0.5221	-0.5119	0.5245	0.4364
11.27	-9.6582	-0.5539	-0.6885	-0.0048	-0.0178	-0.0505	32.4273	-9.3562	4.8979	0.5222	-0.5117	0.5245	0.4364
11.28	-9.6564	-0.5540	-0.6835	-0.0174	-0.0244	-0.0596	32.6519	-9.2972	4.9841	0.5223	-0.5116	0.5245	0.4364
11.29	-9.6536	-0.5572	-0.6828	-0.0316	-0.0227	-0.0558	32.7923	-9.3292	5.0484	0.5223	-0.5115	0.5244	0.4363
11.3	-9.6477	-0.5719	-0.6777	-0.0331	-0.0198	-0.0566	32.6510	-9.3048	4.8454	0.5224	-0.5115	0.5245	0.4363
11.31	-9.6458	-0.5916	-0.6803	-0.0384	-0.0173	-0.0586	32.5496	-9.3499	4.6905	0.5224	-0.5115	0.5244	0.4363
11.32	-9.6555	-0.6136	-0.6786	-0.0528	-0.0192	-0.0572	32.7108	-9.5192	4.8212	0.5224	-0.5115	0.5244	0.4364
11.33	-9.6747	-0.6387	-0.6854	-0.0580	-0.0118	-0.0582	32.5483	-9.3821	4.9490	0.5224	-0.5116	0.5243	0.4365
11.34	-9.6490	-0.6663	-0.6832	-0.0577	-0.0186	-0.0567	32.6859	-9.1711	4.8756	0.5224	-0.5116	0.5243	0.4365
11.35	-9.5820	-0.6744	-0.6744	-0.0584	-0.0186	-0.0625	32.7710	-9.3148	4.8076	0.5224	-0.5117	0.5242	0.4366
11.36	-9.6669	-0.6922	-0.6707	-0.0540	-0.0162	-0.0654	32.5492	-9.3128	4.8392	0.5223	-0.5117	0.5240	0.4365
11.37	-9.7301	-0.7152	-0.6704	-0.0437	-0.0138	-0.0694	32.6275	-9.4366	4.8225	0.5224	-0.5118	0.5241	0.4366
11.38	-9.6168	-0.7200	-0.6613	-0.0511	-0.0244	-0.0756	32.7170	-9.1939	4.9953	0.5224	-0.5118	0.5239	0.4366
11.39	-9.5803	-0.7280	-0.6475	-0.0418	-0.0190	-0.0694	32.6056	-9.1167	4.7281	0.5225	-0.5119	0.5239	0.4365
11.4	-9.6357	-0.7573	-0.6547	-0.0310	-0.0101	-0.0701	32.5895	-9.1618	4.7399	0.5225	-0.5119	0.5238	0.4365
11.41	-9.6291	-0.7618	-0.6581	-0.0340	-0.0149	-0.0617	32.6001	-9.2465	4.8343	0.5226	-0.5119	0.5238	0.4364
11.42	-9.5887	-0.7417	-0.6452	-0.0275	-0.0133	-0.0557	32.5969	-9.0050	4.8653	0.5227	-0.5119	0.5238	0.4364
11.43	-9.6033	-0.7359	-0.6503	-0.0230	-0.0025	-0.0522	32.5974	-8.9226	4.9490	0.5226	-0.5118	0.5238	0.4363
11.44	-9.6192	-0.7324	-0.6547	-0.0216	-0.0107	-0.0534	32.5987	-9.2174	4.7757	0.5227	-0.5118	0.5239	0.4363
11.45	-9.6247	-0.7269	-0.6570	-0.0153	-0.0006	-0.0600	32.5944	-9.1960	4.8770	0.5228	-0.5118	0.5240	0.4362
