time	acceleration_x	acceleration_y	acceleration_z	gyroscope_x	gyroscope_y	gyroscope_z	magnetometer_x	magnetometer_y	magnetometer_z	quaternion_w	quaternion_x	quaternion_y	quaternion_z
0	-9.4977	-0.0475	-1.4652	-0.0001	0.0003	0.0066	8.2259	-18.3967	21.4188	0.4586	-0.5422	0.5296	0.4639
0.01	-9.5018	-0.0464	-1.4672	0.0020	-0.0048	0.0137	8.1933	-18.3379	21.4335	0.4586	-0.5423	0.5296	0.4639
0.02	-9.4971	-0.0625	-1.4700	0.0036	-0.0099	0.0136	8.1947	-18.1075	21.3285	0.4586	-0.5422	0.5295	0.4638
0.03	-9.4858	-0.0547	-1.4563	0.0004	-0.0040	0.0130	8.3108	-18.0329	21.1165	0.4586	-0.5423	0.5296	0.4639
0.04	-9.4957	-0.0589	-1.4605	-0.0044	-0.0142	0.0103	8.2490	-18.1477	21.3111	0.4586	-0.5423	0.5295	0.4639
0.05	-9.4845	-0.0507	-1.4666	-0.0000	-0.0005	0.0118	8.1320	-18.1036	21.3325	0.4586	-0.5424	0.5296	0.4639
0.06	-9.4937	-0.0429	-1.4701	-0.0012	-0.0080	0.0115	8.0913	-18.1352	21.2970	0.4586	-0.5423	0.5295	0.4639
0.07	-9.5032	-0.0538	-1.4623	0.0009	-0.0074	0.0107	8.3845	-18.0980	21.4830	0.4586	-0.5424	0.5295	0.4639
0.08	-9.5035	-0.0566	-1.4776	-0.0011	-0.0066	0.0132	8.2446	-18.1471	21.4526	0.4586	-0.5424	0.5295	0.4639
0.09	-9.5009	-0.0607	-1.4837	0.0048	-0.0117	0.0120	8.1883	-18.0199	21.3789	0.4586	-0.5423	0.5294	0.4639
0.1	-9.4900	-0.0578	-1.4653	0.0010	-0.0022	0.0130	8.1815	-18.1507	21.5272	0.4586	-0.5424	0.5295	0.4639
0.11	-9.4964	-0.0555	-1.4526	0.0005	-0.0063	0.0199	8.1357	-18.0761	21.1864	0.4586	-0.5424	0.5294	0.4639
0.12	-9.5078	-0.0402	-1.4639	0.0029	-0.0093	0.0216	8.2384	-18.2534	21.1570	0.4586	-0.5424	0.5295	0.4639
0.13	-9.4984	-0.0582	-1.4635	0.0057	-0.0041	0.0090	8.1738	-18.2963	21.4773	0.4585	-0.5424	0.5294	0.4639
0.14	-9.4975	-0.0634	-1.4568	0.0053	-0.0006	0.0108	8.4185	-18.2826	21.3360	0.4586	-0.5424	0.5295	0.4639
0.15	-9.4981	-0.0608	-1.4766	0.0006	-0.0015	0.0076	8.4865	-18.4054	21.2774	0.4586	-0.5425	0.5294	0.4638
0.16	-9.4888	-0.0602	-1.4731	0.0008	-0.0012	0.0101	8.8409	-18.2624	21.6458	0.4585	-0.5425	0.5294	0.4638
0.17	-9.4919	-0.0637	-1.4607	0.0092	-0.0073	0.0183	8.9295	-18.2706	21.4939	0.4586	-0.5425	0.5295	0.4638
0.18	-9.5050	-0.0593	-1.4765	0.0063	-0.0029	0.0217	8.5834	-18.2471	21.3815	0.4585	-0.5425	0.5295	0.4638
0.19	-9.4957	-0.0663	-1.4702	0.0109	-0.0051	0.0199	8.4392	-18.1657	21.3237	0.4586	-0.5425	0.5295	0.4638
0.2	-9.4827	-0.0637	-1.4448	0.0042	-0.0127	0.0243	8.1515	-18.2716	21.3989	0.4585	-0.5424	0.5295	0.4638
0.21	-9.5137	-0.0682	-1.4704	0.0061	-0.0133	0.0174	8.1525	-18.3012	21.2063	0.4586	-0.5424	0.5295	0.4639
0.22	-9.5005	-0.0603	-1.4568	0.0081	-0.0078	0.0161	8.1172	-18.1945	21.3654	0.4586	-0.5424	0.5295	0.4638
0.23	-9.4837	-0.0601	-1.4462	0.0058	-0.0027	0.0178	7.9971	-18.2559	21.2451	0.4586	-0.5424	0.5296	0.4638
0.24	-9.5095	-0.0632	-1.4561	0.0002	-0.0101	0.0189	8.3590	-18.1121	21.4748	0.4585	-0.5424	0.5295	0.4638
0.25	-9.4974	-0.0681	-1.4574	0.0023	-0.0076	0.0136	8.4534	-18.1630	21.6372	0.4585	-0.5424	0.5295	0.4638
0.26	-9.4832	-0.0654	-1.4425	0.0083	-0.0060	0.0182	8.3201	-18.2602	21.4836	0.4586	-0.5424	0.5296	0.4638
0.27	-9.4909	-0.0605	-1.4522	0.0070	-0.0012	0.0123	8.1988	-18.1228	21.5681	0.4585	-0.5423	0.5295	0.4638
0.28	-9.4984	-0.0486	-1.4566	0.0063	-0.0019	0.0176	8.2491	-18.1598	21.3886	0.4586	-0.5424	0.5296	0.4638
0.29	-9.4925	-0.0494	-1.4540	0.0027	-0.0061	0.0210	8.2836	-18.2410	21.3726	0.4585	-0.5424	0.5296	0.4638
0.3	-9.4937	-0.0475	-1.4593	0.0058	-0.0084	0.0213	8.1802	-18.2097	21.5412	0.4585	-0.5424	0.5297	0.4639
0.31	-9.4972	-0.0356	-1.4509	0.0090	-0.0082	0.0228	8.3118	-18.3056	21.5297	0.4585	-0.5423	0.5296	0.4638
0.32	-9.4975	-0.0463	-1.4597	0.0048	-0.0070	0.0207	8.3035	-18.3148	21.4250	0.4585	-0.5423	0.5297	0.4638
0.33	-9.5029	-0.0480	-1.4653	0.0105	-0.0066	0.0182	8.4526	-18.2714	21.2864	0.4585	-0.5423	0.5297	0.4638
0.34	-9.5016	-0.0471	-1.4645	0.0081	-0.0077	0.0241	8.4863	-18.4009	21.2719	0.4585	-0.5422	0.5297	0.4638
0.35	-9.5053	-0.0568	-1.4700	0.0053	-0.0051	0.0175	8.3461	-18.2635	21.3696	0.4585	-0.5423	0.5298	0.4639
0.36	-9.4993	-0.0615	-1.4743	0.0075	-0.0048	0.0207	8.3154	-18.2472	21.0934	0.4585	-0.5422	0.5298	0.4638
0.37	-9.4919	-0.0568	-1.4623	0.0050	-0.0094	0.0188	8.2450	-18.2937	21.3453	0.4585	-0.5422	0.5298	0.4639
0.38	-9.4939	-0.0591	-1.4711	0.0107	-0.0056	0.0132	8.1990	-18.0907	21.3660	0.4585	-0.5422	0.5297	0.4638
0.39	-9.5009	-0.0673	-1.4810	0.0113	-0.0113	0.0196	8.4460	-18.1866	21.2317	0.4585	-0.5422	0.5298	0.4638
0.4	-9.4993	-0.0613	-1.4803	0.0091	-0.0110	0.0174	8.4616	-18.3564	21.3468	0.4585	-0.5421	0.5298	0.4638
0.41	-9.4944	-0.0498	-1.4814	-0.0030	-0.0087	0.0135	8.1945	-18.1987	21.6479	0.4585	-0.5422	0.5298	0.4638
0.42	-9.5026	-0.0460	-1.4953	-0.0006	-0.0122	0.0155	8.2455	-18.3350	21.5082	0.4585	-0.5422	0.5298	0.4639
0.43	-9.4984	-0.0498	-1.4757	-0.0027	-0.0121	0.0170	8.1589	-18.2658	21.3025	0.4585	-0.5422	0.5297	0.4639
0.44	-9.4975	-0.0412	-1.4810	0.0052	-0.0035	0.0165	8.2237	-18.2086	21.4228	0.4585	-0.5422	0.5298	0.4639
0.45	-9.4945	-0.0447	-1.4790	0.0005	-0.0077	0.0210	8.4117	-18.2230	21.5430	0.4585	-0.5421	0.5297	0.4639
0.46	-9.5060	-0.0487	-1.4740	-0.0010	-0.0091	0.0136	8.3614	-18.2220	21.4248	0.4585	-0.5422	0.5298	0.4639
0.47	-9.4972	-0.0481	-1.4746	-0.0028	-0.0106	0.0156	8.1067	-18.2053	21.1412	0.4585	-0.5422	0.5297	0.4639
0.48	-9.5042	-0.0620	-1.4675	0.0004	-0.0155	0.0177	8.3059	-18.0408	21.3195	0.4585	-0.5422	0.5297	0.4640
0.49	-9.5086	-0.0659	-1.4631	0.0003	-0.0107	0.0199	8.1237	-18.0680	21.4665	0.4585	-0.5421	0.5297	0.4640
0.5	-9.4988	-0.0557	-1.4672	-0.0011	-0.0118	0.0141	8.1670	-18.2826	21.2982	0.4585	-0.5421	0.5297	0.4640
0.51	-9.4971	-0.0585	-1.4636	-0.0068	-0.0100	0.0157	8.4216	-18.3185	21.4545	0.4585	-0.5422	0.5297	0.4641
0.52	-9.4981	-0.0563	-1.4632	-0.0039	-0.0081	0.0206	8.2866	-18.2790	21.3813	0.4584	-0.5421	0.5296	0.4641
0.53	-9.5056	-0.0555	-1.4617	0.0021	-0.0047	0.0182	8.2313	-18.3438	21.1317	0.4584	-0.5422	0.5297	0.4641
0.54	-9.4986	-0.0590	-1.4621	0.0040	-0.0090	0.0192	8.3382	-18.3569	21.2551	0.4584	-0.5422	0.5296	0.4641
0.55	-9.4923	-0.0541	-1.4556	0.0054	-0.0008	0.0219	8.2412	-18.2860	21.5027	0.4584	-0.5422	0.5297	0.4641
0.56	-9.4979	-0.0628	-1.4648	-0.0011	-0.0103	0.0185	8.1180	-18.3154	21.2221	0.4583	-0.5421	0.5296	0.4641
0.57	-9.5088	-0.0631	-1.4667	-0.0028	-0.0133	0.0158	8.2845	-18.1982	21.3265	0.4584	-0.5422	0.5296	0.4642
0.58	-9.5055	-0.0636	-1.4647	-0.0009	-0.0115	0.0230	8.0928	-18.4068	21.5027	0.4584	-0.5421	0.5296	0.4642
0.59	-9.5021	-0.0626	-1.4618	0.0009	-0.0132	0.0179	8.0942	-18.3364	21.3440	0.4583	-0.5421	0.5296	0.4642
0.6	-9.4984	-0.0551	-1.4660	-0.0046	-0.0113	0.0111	8.3571	-17.9993	21.3545	0.4584	-0.5422	0.5296	0.4643
0.61	-9.4955	-0.0396	-1.4649	0.0016	-0.0099	0.0150	8.2532	-18.1107	21.2231	0.4583	-0.5421	0.5296	0.4643
0.62	-9.5028	-0.0513	-1.4559	0.0003	-0.0105	0.0128	8.1985	-18.1459	21.3434	0.4584	-0.5422	0.5296	0.4643
0.63	-9.4959	-0.0615	-1.4655	0.0086	-0.0064	0.0138	8.3173	-18.2013	21.3682	0.4583	-0.5421	0.5295	0.4642
0.64	-9.4900	-0.0532	-1.4694	0.0025	-0.0038	0.0111	8.1832	-18.3595	21.3417	0.4584	-0.5422	0.5296	0.4643
0.65	-9.4903	-0.0546	-1.4742	0.0045	-0.0031	0.0143	8.2876	-18.2094	21.5744	0.4584	-0.5422	0.5296	0.4642
0.66	-9.4908	-0.0500	-1.4731	-0.0003	-0.0055	0.0147	8.5327	-18.0315	21.6446	0.4583	-0.5422	0.5295	0.4642
0.67	-9.4973	-0.0572	-1.4552	0.0040	-0.0020	0.0150	8.6339	-18.1378	21.5259	0.4584	-0.5422	0.5296	0.4642
0.68	-9.5135	-0.0620	-1.4597	0.0044	-0.0011	0.0157	8.5371	-18.1742	21.3401	0.4583	-0.5422	0.5296	0.4642
0.69	-9.5023	-0.0546	-1.4668	0.0076	-0.0037	0.0151	8.3527	-18.2078	21.3153	0.4583	-0.5422	0.5296	0.4642
0.7	-9.4904	-0.0621	-1.4553	0.0103	-0.0066	0.0230	8.3411	-18.2152	21.2674	0.4583	-0.5421	0.5296	0.4641
0.71	-9.5010	-0.0618	-1.4681	0.0052	-0.0053	0.0151	8.5777	-18.2581	21.2240	0.4583	-0.5422	0.5297	0.4642
0.72	-9.5065	-0.0600	-1.4732	0.0045	-0.0043	0.0151	8.2312	-18.2957	21.2857	0.4583	-0.5422	0.5296	0.4642
0.73	-9.4857	-0.0531	-1.4586	0.0081	-0.0092	0.0116	8.2142	-18.4171	21.3785	0.4584	-0.5422	0.5297	0.4642
0.74	-9.4891	-0.0530	-1.4626	0.0006	-0.0081	0.0158	8.3734	-18.5404	21.1193	0.4583	-0.5422	0.5296	0.4641
0.75	-9.5129	-0.0468	-1.4585	-0.0027	-0.0096	0.0221	8.1136	-18.3408	21.2038	0.4583	-0.5422	0.5296	0.4642
0.76	-9.4858	-0.0426	-1.4547	0.0035	-0.0063	0.0159	8.2534	-18.2686	21.4330	0.4583	-0.5422	0.5296	0.4642
0.77	-9.4895	-0.0545	-1.4548	-0.0045	-0.0032	0.0134	8.2630	-18.4781	21.4001	0.4583	-0.5422	0.5296	0.4642
0.78	-9.5017	-0.0505	-1.4596	-0.0062	0.0001	0.0097	8.2424	-18.2035	21.5427	0.4583	-0.5423	0.5296	0.4642
0.79	-9.4989	-0.0568	-1.4542	-0.0036	-0.0004	0.0119	8.1409	-17.9099	21.2757	0.4582	-0.5423	0.5296	0.4642
0.8	-9.4907	-0.0619	-1.4532	0.0039	0.0002	0.0090	8.0182	-18.0201	21.2452	0.4583	-0.5424	0.5296	0.4642
0.81	-9.4999	-0.0589	-1.4615	-0.0009	0.0005	0.0078	8.0103	-18.0167	21.5444	0.4582	-0.5424	0.5295	0.4641
0.82	-9.5036	-0.0672	-1.4585	-0.0021	-0.0066	0.0125	8.2257	-18.0404	21.3266	0.4582	-0.5424	0.5296	0.4641
0.83	-9.5015	-0.0571	-1.4674	-0.0000	-0.0040	0.0184	8.4665	-18.1180	21.1927	0.4582	-0.5424	0.5296	0.4642
0.84	-9.5044	-0.0623	-1.4584	0.0011	-0.0016	0.0115	8.2491	-18.0843	21.3360	0.4581	-0.5424	0.5295	0.4641
0.85	-9.4948	-0.0578	-1.4642	0.0000	-0.0010	0.0147	8.2003	-18.1141	21.3104	0.4582	-0.5425	0.5296	0.4642
0.86	-9.4919	-0.0600	-1.4615	0.0040	-0.0031	0.0102	8.2114	-18.0862	21.4833	0.4581	-0.5425	0.5295	0.4641
0.87	-9.5066	-0.0522	-1.4630	0.0096	-0.0055	0.0177	8.0528	-18.1464	21.2447	0.4582	-0.5425	0.5296	0.4641
0.88	-9.4964	-0.0560	-1.4610	0.0017	-0.0093	0.0221	8.5665	-18.3484	21.2545	0.4581	-0.5424	0.5295	0.4641
0.89	-9.4915	-0.0507	-1.4604	0.0012	-0.0002	0.0121	8.4587	-18.4512	21.3270	0.4581	-0.5425	0.5296	0.4641
0.9	-9.4936	-0.0608	-1.4658	0.0047	0.0010	0.0165	8.2473	-18.0702	21.4117	0.4581	-0.5425	0.5296	0.4641
0.91	-9.5016	-0.0569	-1.4642	0.0045	-0.0003	0.0177	8.2740	-18.2603	21.5632	0.4581	-0.5425	0.5296	0.4640
0.92	-9.4944	-0.0575	-1.4646	0.0016	0.0027	0.0180	8.1444	-18.2557	21.2765	0.4580	-0.5425	0.5297	0.4641
0.93	-9.5031	-0.0651	-1.4762	0.0017	-0.0008	0.0145	8.2400	-18.1908	21.3544	0.4580	-0.5426	0.5297	0.4640
0.94	-9.5053	-0.0672	-1.4821	0.0023	-0.0024	0.0140	8.3967	-18.2907	21.2907	0.4580	-0.5426	0.5297	0.4640
0.95	-9.4955	-0.0697	-1.4700	0.0061	-0.0050	0.0157	8.2362	-18.2570	21.0474	0.4580	-0.5425	0.5296	0.4640
0.96	-9.5019	-0.0693	-1.4602	0.0039	-0.0094	0.0137	8.2913	-18.1560	21.1781	0.4580	-0.5426	0.5297	0.4640
0.97	-9.5059	-0.0557	-1.4783	0.0003	-0.0065	0.0161	8.0591	-18.0852	21.2777	0.4580	-0.5426	0.5297	0.4640
0.98	-9.4979	-0.0561	-1.4638	-0.0049	-0.0014	0.0124	7.9972	-18.1071	21.4041	0.4580	-0.5426	0.5297	0.4640
0.99	-9.4880	-0.0602	-1.4628	0.0002	-0.0042	0.0098	8.0988	-18.1850	21.4084	0.4579	-0.5426	0.5296	0.4640
1	-9.4848	-0.0561	-1.4755	0.0037	-0.0041	0.0169	8.0004	-18.3081	21.5400	0.4579	-0.5427	0.5296	0.4640
1.01	-9.4975	-0.0601	-1.4648	-0.0023	-0.0002	0.0120	7.9999	-18.0265	21.4178	0.4579	-0.5427	0.5296	0.4640
1.02	-9.5035	-0.0475	-1.4753	-0.0013	-0.0007	0.0093	8.0995	-18.0798	21.4028	0.4579	-0.5427	0.5296	0.4639
1.03	-9.5038	-0.0639	-1.4666	0.0026	-0.0035	0.0195	8.1674	-18.3099	21.4108	0.4579	-0.5428	0.5297	0.4640
1.04	-9.4976	-0.0593	-1.4539	-0.0023	-0.0084	0.0144	8.2429	-18.2412	21.2871	0.4579	-0.5427	0.5296	0.4640
1.05	-9.5030	-0.0625	-1.4681	-0.0033	-0.0041	0.0142	8.4283	-18.2828	21.4102	0.4579	-0.5428	0.5296	0.4640
1.06	-9.4975	-0.0709	-1.4735	-0.0033	-0.0020	0.0253	8.4358	-18.2302	21.4400	0.4578	-0.5428	0.5296	0.4640
1.07	-9.4859	-0.0688	-1.4572	0.0061	-0.0037	0.0170	8.1554	-18.4270	21.2633	0.4578	-0.5428	0.5296	0.4640
1.08	-9.4865	-0.0603	-1.4604	0.0047	-0.0078	0.0155	8.3045	-18.3538	21.2796	0.4578	-0.5428	0.5296	0.4640
1.09	-9.4896	-0.0596	-1.4592	-0.0046	-0.0129	0.0179	8.2811	-18.1356	21.4148	0.4578	-0.5427	0.5296	0.4640
1.1	-9.4904	-0.0634	-1.4623	-0.0003	-0.0020	0.0112	8.1723	-18.3122	21.4328	0.4578	-0.5429	0.5296	0.4641
1.11	-9.4850	-0.0574	-1.4558	0.0034	-0.0089	0.0164	8.1268	-18.2219	21.3655	0.4578	-0.5428	0.5296	0.4640
1.12	-9.4952	-0.0567	-1.4613	0.0024	-0.0048	0.0172	8.1800	-18.3670	21.3271	0.4578	-0.5428	0.5296	0.4641
1.13	-9.4961	-0.0498	-1.4624	0.0007	-0.0007	0.0121	8.3890	-18.2434	21.2548	0.4577	-0.5428	0.5296	0.4640
1.14	-9.4923	-0.0537	-1.4688	-0.0041	-0.0084	0.0174	8.3101	-18.1912	21.0050	0.4577	-0.5429	0.5296	0.4641
1.15	-9.4936	-0.0530	-1.4574	-0.0070	-0.0062	0.0166	8.4064	-18.2680	21.3198	0.4577	-0.5429	0.5296	0.4641
1.16	-9.4868	-0.0527	-1.4707	-0.0087	-0.0025	0.0133	8.6769	-18.0129	21.5965	0.4576	-0.5429	0.5295	0.4641
1.17	-9.4986	-0.0608	-1.4676	0.0024	-0.0079	0.0115	8.5450	-17.8996	21.6788	0.4576	-0.5429	0.5295	0.4641
1.18	-9.4963	-0.0535	-1.4662	0.0138	-0.0064	0.0160	8.3916	-18.0660	21.6840	0.4577	-0.5429	0.5295	0.4641
1.19	-9.4980	-0.0476	-1.4623	0.0089	-0.0058	0.0181	8.2468	-18.1370	21.4734	0.4577	-0.5429	0.5296	0.4641
1.2	-9.5092	-0.0538	-1.4660	0.0061	-0.0093	0.0168	8.1427	-18.1169	21.3639	0.4576	-0.5428	0.5295	0.4640
1.21	-9.5053	-0.0608	-1.4713	0.0063	0.0009	0.0170	8.3610	-18.0079	21.3231	0.4577	-0.5429	0.5296	0.4641
1.22	-9.5019	-0.0573	-1.4706	0.0035	-0.0039	0.0124	8.2363	-18.1990	21.4330	0.4577	-0.5429	0.5296	0.4640
1.23	-9.4944	-0.0601	-1.4735	0.0101	-0.0052	0.0130	8.2257	-18.3777	21.3764	0.4577	-0.5429	0.5296	0.4640
1.24	-9.5045	-0.0546	-1.4602	0.0127	-0.0079	0.0211	8.2129	-18.1055	21.3554	0.4577	-0.5429	0.5296	0.4640
1.25	-9.5090	-0.0580	-1.4624	0.0119	-0.0057	0.0209	8.2475	-18.2715	21.4490	0.4577	-0.5428	0.5297	0.4640
1.26	-9.4997	-0.0586	-1.4697	0.0100	-0.0083	0.0224	8.1470	-18.1979	21.5036	0.4577	-0.5428	0.5297	0.4640
1.27	-9.4995	-0.0562	-1.4531	0.0135	-0.0111	0.0130	8.2035	-18.3154	21.4760	0.4577	-0.5427	0.5297	0.4639
1.28	-9.5047	-0.0452	-1.4680	0.0102	-0.0053	0.0189	8.3285	-18.3168	21.3262	0.4578	-0.5428	0.5298	0.4640
1.29	-9.4888	-0.0662	-1.4595	0.0144	-0.0075	0.0259	8.3028	-18.0075	21.2294	0.4577	-0.5427	0.5298	0.4639
1.3	-9.5004	-0.0625	-1.4637	0.0079	-0.0076	0.0201	8.2695	-18.2331	21.3657	0.4578	-0.5427	0.5299	0.4640
1.31	-9.5036	-0.0543	-1.4693	0.0028	-0.0182	0.0163	8.1025	-18.1299	21.2573	0.4578	-0.5426	0.5298	0.4639
1.32	-9.4983	-0.0554	-1.4712	0.0037	-0.0071	0.0126	8.3090	-18.0823	21.1595	0.4578	-0.5427	0.5298	0.4640
1.33	-9.5012	-0.0469	-1.4699	0.0089	-0.0097	0.0180	8.2527	-18.4728	21.2067	0.4578	-0.5427	0.5298	0.4640
1.34	-9.5095	-0.0495	-1.4716	0.0022	-0.0071	0.0216	8.2226	-18.2168	21.4662	0.4578	-0.5426	0.5298	0.4640
1.35	-9.5075	-0.0546	-1.4728	-0.0011	-0.0107	0.0135	8.2023	-18.1413	21.4062	0.4578	-0.5427	0.5298	0.4640
1.36	-9.4939	-0.0472	-1.4586	0.0047	-0.0080	0.0155	8.1522	-18.2775	21.3907	0.4578	-0.5426	0.5298	0.4640
1.37	-9.4894	-0.0562	-1.4664	-0.0057	-0.0129	0.0156	8.0570	-18.1422	21.4135	0.4578	-0.5427	0.5298	0.4641
1.38	-9.5046	-0.0448	-1.4669	0.0014	0.0001	0.0153	8.2255	-18.2259	21.2340	0.4577	-0.5426	0.5297	0.4640
1.39	-9.4882	-0.0608	-1.4556	0.0028	-0.0075	0.0178	8.3197	-18.3291	21.4014	0.4578	-0.5427	0.5298	0.4640
1.4	-9.4905	-0.0586	-1.4544	0.0014	-0.0077	0.0214	8.1551	-18.1508	21.4887	0.4577	-0.5426	0.5298	0.4641
1.41	-9.5010	-0.0593	-1.4582	0.0015	-0.0027	0.0158	8.0711	-18.4235	21.2775	0.4577	-0.5427	0.5298	0.4640
1.42	-9.4919	-0.0560	-1.4565	0.0046	-0.0083	0.0163	8.1465	-18.2786	21.2681	0.4577	-0.5427	0.5298	0.4641
1.43	-9.4964	-0.0634	-1.4559	0.0043	-0.0113	0.0221	8.1514	-18.1266	21.3796	0.4577	-0.5426	0.5298	0.4641
1.44	-9.4987	-0.0693	-1.4604	-0.0021	-0.0111	0.0262	8.3385	-18.3041	21.3494	0.4577	-0.5426	0.5298	0.4641
1.45	-9.4971	-0.0677	-1.4556	-0.0003	-0.0059	0.0195	8.4957	-18.0159	21.3592	0.4576	-0.5426	0.5298	0.4641
1.46	-9.5042	-0.0590	-1.4545	-0.0051	-0.0066	0.0155	8.3366	-18.0974	21.3558	0.4577	-0.5426	0.5298	0.4642
1.47	-9.4971	-0.0573	-1.4599	0.0024	-0.0089	0.0197	8.4479	-18.4427	21.3625	0.4576	-0.5426	0.5298	0.4642
1.48	-9.4980	-0.0607	-1.4602	-0.0002	-0.0080	0.0195	8.2089	-18.2518	21.3685	0.4576	-0.5426	0.5298	0.4642
1.49	-9.4930	-0.0667	-1.4689	0.0076	-0.0033	0.0184	8.3370	-18.1175	21.3333	0.4576	-0.5426	0.5298	0.4642
1.5	-9.4939	-0.0716	-1.4652	0.0131	-0.0055	0.0230	8.2348	-18.2884	21.4050	0.4576	-0.5426	0.5299	0.4642
1.51	-9.5005	-0.0682	-1.4676	0.0002	-0.0106	0.0207	8.1421	-18.2971	21.4225	0.4576	-0.5426	0.5299	0.4642
1.52	-9.4957	-0.0696	-1.4738	0.0060	-0.0125	0.0176	8.3385	-18.0918	21.2352	0.4576	-0.5425	0.5298	0.4642
1.53	-9.4957	-0.0689	-1.4610	0.0099	-0.0063	0.0232	8.2903	-18.3005	21.3933	0.4576	-0.5425	0.5299	0.4643
1.54	-9.4965	-0.0558	-1.4665	0.0018	-0.0114	0.0190	8.4385	-18.3777	21.3396	0.4576	-0.5425	0.5299	0.4642
1.55	-9.5046	-0.0603	-1.4683	-0.0054	-0.0105	0.0169	8.0538	-18.2758	21.4168	0.4576	-0.5425	0.5299	0.4643
1.56	-9.4958	-0.0487	-1.4675	-0.0024	-0.0095	0.0155	8.1416	-18.4165	21.5637	0.4575	-0.5425	0.5298	0.4643
1.57	-9.4892	-0.0530	-1.4634	0.0097	-0.0106	0.0183	8.2473	-18.2774	21.2650	0.4576	-0.5425	0.5299	0.4643
1.58	-9.4994	-0.0530	-1.4772	0.0052	-0.0034	0.0195	8.2234	-18.3343	21.3308	0.4576	-0.5425	0.5299	0.4643
1.59	-9.5002	-0.0574	-1.4782	0.0042	-0.0078	0.0204	8.1673	-18.2495	21.3589	0.4575	-0.5424	0.5299	0.4643
1.6	-9.4872	-0.0567	-1.4626	-0.0000	-0.0046	0.0205	8.1112	-18.0219	21.4480	0.4576	-0.5425	0.5299	0.4644
1.61	-9.4900	-0.0606	-1.4688	0.0080	-0.0046	0.0193	8.0654	-18.1227	21.5623	0.4575	-0.5424	0.5299	0.4643
1.62	-9.5039	-0.0694	-1.4597	0.0089	-0.0131	0.0243	8.4474	-18.1387	21.4685	0.4576	-0.5424	0.5300	0.4644
1.63	-9.4910	-0.0649	-1.4619	-0.0017	-0.0062	0.0181	8.4850	-18.2186	21.3523	0.4575	-0.5423	0.5299	0.4643
1.64	-9.4954	-0.0583	-1.4586	0.0010	-0.0048	0.0168	8.3360	-18.3304	21.3629	0.4575	-0.5424	0.5300	0.4644
1.65	-9.5055	-0.0581	-1.4631	0.0103	-0.0085	0.0180	8.3256	-18.2974	21.3621	0.4575	-0.5424	0.5300	0.4644
1.66	-9.4948	-0.0597	-1.4614	0.0088	-0.0101	0.0207	8.7351	-18.3054	21.3664	0.4575	-0.5423	0.5300	0.4644
1.67	-9.4893	-0.0560	-1.4531	0.0058	-0.0076	0.0159	8.7600	-18.2947	21.3763	0.4576	-0.5423	0.5300	0.4644
1.68	-9.4985	-0.0445	-1.4587	0.0011	-0.0038	0.0141	8.5141	-18.2617	21.2923	0.4575	-0.5423	0.5300	0.4644
1.69	-9.4903	-0.0473	-1.4661	-0.0027	-0.0056	0.0180	8.5634	-18.1729	21.3369	0.4575	-0.5424	0.5300	0.4644
1.7	-9.4856	-0.0620	-1.4492	-0.0060	-0.0066	0.0171	8.2056	-18.2496	21.3136	0.4574	-0.5423	0.5299	0.4644
1.71	-9.4963	-0.0619	-1.4623	-0.0028	-0.0110	0.0187	8.1520	-18.0751	21.4563	0.4575	-0.5424	0.5300	0.4645
1.72	-9.5104	-0.0579	-1.4677	-0.0023	-0.0103	0.0145	8.1195	-18.1818	21.4690	0.4574	-0.5424	0.5299	0.4645
1.73	-9.4933	-0.0544	-1.4663	-0.0054	-0.0009	0.0150	8.2274	-18.1885	21.3660	0.4574	-0.5424	0.5299	0.4645
1.74	-9.4976	-0.0570	-1.4661	-0.0066	-0.0052	0.0137	8.0634	-18.3066	21.5372	0.4574	-0.5424	0.5299	0.4645
1.75	-9.5068	-0.0625	-1.4720	-0.0013	-0.0022	0.0119	8.2568	-18.2370	21.3320	0.4574	-0.5425	0.5299	0.4645
1.76	-9.4978	-0.0606	-1.4698	-0.0033	-0.0061	0.0171	8.2335	-18.0187	21.3584	0.4574	-0.5425	0.5299	0.4645
1.77	-9.4857	-0.0566	-1.4637	-0.0034	-0.0077	0.0137	8.0675	-18.0407	21.5043	0.4573	-0.5425	0.5298	0.4645
1.78	-9.5005	-0.0511	-1.4672	-0.0038	-0.0033	0.0131	8.3150	-18.0308	21.3927	0.4573	-0.5426	0.5299	0.4646
1.79	-9.4975	-0.0590	-1.4736	-0.0017	0.0016	0.0156	8.3396	-18.3052	21.4074	0.4573	-0.5426	0.5298	0.4645
1.8	-9.4871	-0.0691	-1.4592	0.0031	-0.0076	0.0224	8.1613	-18.2037	21.2068	0.4573	-0.5426	0.5299	0.4646
1.81	-9.4878	-0.0699	-1.4742	-0.0027	-0.0083	0.0212	8.2834	-18.1958	21.3465	0.4572	-0.5425	0.5298	0.4645
1.82	-9.5095	-0.0572	-1.4767	-0.0066	-0.0041	0.0202	8.4574	-18.2904	21.3015	0.4572	-0.5426	0.5299	0.4646
1.83	-9.4947	-0.0602	-1.4619	0.0077	-0.0096	0.0227	8.2526	-18.2954	21.2080	0.4572	-0.5425	0.5299	0.4646
1.84	-9.4963	-0.0628	-1.4618	-0.0026	-0.0033	0.0189	8.3318	-18.4795	21.3254	0.4571	-0.5425	0.5298	0.4646
1.85	-9.5157	-0.0592	-1.4632	0.0061	-0.0076	0.0130	8.4610	-18.3137	21.3538	0.4572	-0.5426	0.5299	0.4647
1.86	-9.5027	-0.0525	-1.4641	0.0034	-0.0056	0.0165	8.2492	-18.2907	21.2786	0.4571	-0.5425	0.5299	0.4646
1.87	-9.4911	-0.0604	-1.4630	0.0115	-0.0049	0.0159	8.1574	-18.2182	21.2266	0.4572	-0.5426	0.5299	0.4646
1.88	-9.5079	-0.0608	-1.4799	0.0071	-0.0103	0.0155	8.2764	-18.1843	21.2220	0.4572	-0.5425	0.5299	0.4646
1.89	-9.5114	-0.0669	-1.4714	0.0033	-0.0100	0.0203	8.2742	-18.3014	21.3865	0.4572	-0.5425	0.5299	0.4646
1.9	-9.4957	-0.0683	-1.4681	0.0054	-0.0043	0.0211	8.2252	-18.2777	21.5362	0.4572	-0.5425	0.5299	0.4646
1.91	-9.4984	-0.0553	-1.4735	-0.0017	-0.0053	0.0116	8.1123	-18.2350	21.1875	0.4571	-0.5425	0.5299	0.4646
1.92	-9.5017	-0.0543	-1.4768	-0.0020	-0.0014	0.0137	8.0839	-18.0752	21.3616	0.4571	-0.5426	0.5299	0.4646
1.93	-9.5011	-0.0598	-1.4647	-0.0010	-0.0083	0.0132	8.2694	-18.1725	21.3887	0.4571	-0.5426	0.5299	0.4646
1.94	-9.4931	-0.0608	-1.4602	0.0026	-0.0065	0.0152	8.1887	-18.1678	21.2921	0.4571	-0.5426	0.5299	0.4646
1.95	-9.5053	-0.0549	-1.4668	-0.0024	-0.0092	0.0165	8.2724	-18.0068	21.3371	0.4571	-0.5425	0.5298	0.4646
1.96	-9.4989	-0.0559	-1.4663	0.0055	-0.0104	0.0112	8.2357	-18.0480	21.2970	0.4572	-0.5426	0.5299	0.4647
1.97	-9.4840	-0.0575	-1.4507	0.0032	-0.0057	0.0132	8.0621	-18.0185	21.3572	0.4571	-0.5426	0.5298	0.4646
1.98	-9.5016	-0.0560	-1.4606	0.0122	-0.0114	0.0178	8.1120	-18.0903	21.4503	0.4572	-0.5426	0.5299	0.4646
1.99	-9.5096	-0.0558	-1.4680	0.0026	-0.0084	0.0142	8.1871	-18.2959	21.1956	0.4572	-0.5425	0.5298	0.4646
2	-9.4857	-0.0607	-1.4513	0.0013	-0.0066	0.0136	8.3043	-18.5152	21.2873	0.4572	-0.5426	0.5298	0.4646
2.01	-9.5000	-0.0574	-1.4579	0.0068	-0.0062	0.0217	8.4115	-18.3078	21.3491	0.4572	-0.5426	0.5299	0.4647
2.02	-9.5053	-0.0554	-1.4593	0.0048	-0.0111	0.0110	8.4321	-18.2617	21.3101	0.4571	-0.5425	0.5298	0.4646
2.03	-9.4974	-0.0486	-1.4531	-0.0010	-0.0054	0.0144	8.4308	-18.2762	21.4471	0.4572	-0.5426	0.5299	0.4647
2.04	-9.4923	-0.0374	-1.4575	0.0036	-0.0063	0.0140	8.1271	-18.3035	21.2368	0.4572	-0.5426	0.5298	0.4646
2.05	-9.5026	-0.0449	-1.4569	0.0098	-0.0078	0.0149	8.1600	-18.4478	21.5281	0.4572	-0.5426	0.5299	0.4647
2.06	-9.5030	-0.0391	-1.4556	0.0042	-0.0109	0.0137	8.1871	-18.4609	21.3110	0.4572	-0.5425	0.5298	0.4646
2.07	-9.4833	-0.0537	-1.4481	-0.0008	-0.0074	0.0101	8.3204	-18.2977	21.2346	0.4572	-0.5426	0.5298	0.4646
2.08	-9.5038	-0.0611	-1.4574	0.0015	-0.0071	0.0218	8.4924	-18.1367	21.2115	0.4572	-0.5426	0.5298	0.4647
2.09	-9.5004	-0.0656	-1.4689	0.0074	-0.0124	0.0176	8.2785	-18.3028	21.3956	0.4572	-0.5425	0.5298	0.4646
2.1	-9.4931	-0.0585	-1.4722	0.0021	-0.0039	0.0108	8.0547	-18.1758	21.5154	0.4573	-0.5426	0.5298	0.4647
2.11	-9.4962	-0.0564	-1.4722	0.0045	-0.0094	0.0122	8.1656	-18.2271	21.3568	0.4572	-0.5426	0.5298	0.4646
2.12	-9.4986	-0.0592	-1.4654	-0.0021	-0.0106	0.0137	8.1519	-18.1282	21.2404	0.4573	-0.5426	0.5298	0.4647
2.13	-9.4922	-0.0553	-1.4817	0.0051	-0.0063	0.0132	8.0017	-18.1158	21.2887	0.4572	-0.5425	0.5297	0.4646
2.14	-9.4890	-0.0568	-1.4826	-0.0012	-0.0053	0.0132	8.1294	-18.1137	21.5762	0.4572	-0.5426	0.5298	0.4647
2.15	-9.4940	-0.0499	-1.4824	0.0027	-0.0042	0.0133	8.0854	-18.3016	21.5502	0.4572	-0.5426	0.5297	0.4646
2.16	-9.4981	-0.0572	-1.4871	0.0004	-0.0018	0.0113	8.4093	-18.1518	21.4003	0.4572	-0.5426	0.5297	0.4646
2.17	-9.5021	-0.0665	-1.4843	0.0069	-0.0045	0.0169	8.6052	-17.8990	21.5051	0.4572	-0.5426	0.5298	0.4646
2.18	-9.4974	-0.0680	-1.4816	-0.0020	-0.0052	0.0214	8.5047	-18.0167	21.4005	0.4572	-0.5426	0.5298	0.4646
2.19	-9.5054	-0.0690	-1.4798	0.0033	-0.0059	0.0220	8.4661	-18.3104	21.3485	0.4572	-0.5426	0.5298	0.4647
2.2	-9.4916	-0.0661	-1.4820	0.0118	-0.0110	0.0218	8.3040	-18.2626	21.4963	0.4571	-0.5425	0.5298	0.4646
2.21	-9.4958	-0.0666	-1.4658	0.0049	-0.0042	0.0173	8.4082	-18.0822	21.2838	0.4572	-0.5426	0.5298	0.4647
2.22	-9.5026	-0.0660	-1.4711	0.0130	-0.0049	0.0186	8.4935	-18.4695	21.2045	0.4572	-0.5426	0.5298	0.4646
2.23	-9.5056	-0.0609	-1.4693	0.0006	-0.0096	0.0223	8.3931	-18.3257	21.3330	0.4572	-0.5425	0.5299	0.4647
2.24	-9.4979	-0.0616	-1.4631	-0.0023	-0.0113	0.0165	8.2974	-18.1774	21.1441	0.4571	-0.5425	0.5298	0.4647
2.25	-9.5051	-0.0631	-1.4596	0.0013	-0.0095	0.0213	8.1814	-18.3484	21.2274	0.4571	-0.5425	0.5298	0.4647
2.26	-9.4986	-0.0574	-1.4584	-0.0012	-0.0114	0.0162	8.3128	-18.1971	21.3071	0.4572	-0.5425	0.5298	0.4647
2.27	-9.4886	-0.0493	-1.4569	0.0020	-0.0118	0.0180	8.5080	-17.9274	21.1665	0.4571	-0.5425	0.5298	0.4647
2.28	-9.4958	-0.0584	-1.4588	0.0081	-0.0022	0.0231	8.2310	-18.0774	21.2948	0.4572	-0.5425	0.5299	0.4648
2.29	-9.5048	-0.0457	-1.4602	0.0080	-0.0103	0.0107	8.1214	-18.2837	21.2450	0.4572	-0.5425	0.5298	0.4647
2.3	-9.4929	-0.0459	-1.4518	0.0069	-0.0010	0.0188	8.3540	-18.0903	21.3509	0.4572	-0.5425	0.5299	0.4648
2.31	-9.4887	-0.0497	-1.4494	0.0075	-0.0085	0.0150	8.0882	-18.2462	21.3644	0.4571	-0.5424	0.5298	0.4647
2.32	-9.5066	-0.0537	-1.4557	0.0055	-0.0067	0.0165	8.2042	-18.3759	21.2460	0.4572	-0.5425	0.5299	0.4647
2.33	-9.5021	-0.0591	-1.4522	-0.0002	-0.0015	0.0120	8.1550	-18.2678	21.4999	0.4572	-0.5425	0.5299	0.4647
2.34	-9.4893	-0.0598	-1.4484	0.0054	-0.0036	0.0140	8.1897	-18.3105	21.5602	0.4571	-0.5425	0.5298	0.4647
2.35	-9.4881	-0.0593	-1.4604	-0.0022	-0.0049	0.0191	8.3094	-18.1136	21.5141	0.4572	-0.5426	0.5299	0.4647
2.36	-9.5051	-0.0570	-1.4683	0.0090	-0.0043	0.0197	8.0581	-18.2349	21.2784	0.4571	-0.5425	0.5299	0.4647
2.37	-9.4967	-0.0636	-1.4544	0.0018	-0.0097	0.0199	8.2719	-18.2202	21.3013	0.4571	-0.5425	0.5299	0.4647
2.38	-9.4948	-0.0659	-1.4623	0.0064	-0.0058	0.0221	8.3900	-18.1067	21.5049	0.4571	-0.5424	0.5299	0.4647
2.39	-9.5180	-0.0557	-1.4805	0.0107	-0.0042	0.0212	8.4583	-18.1584	21.3655	0.4571	-0.5425	0.5300	0.4647
2.4	-9.4935	-0.0517	-1.4797	0.0079	-0.0069	0.0209	8.4860	-18.1794	21.3074	0.4571	-0.5424	0.5300	0.4647
2.41	-9.4853	-0.0510	-1.4677	0.0015	-0.0061	0.0193	8.3274	-18.0947	21.3282	0.4571	-0.5424	0.5300	0.4647
2.42	-9.5041	-0.0459	-1.4835	-0.0022	-0.0089	0.0131	8.1932	-18.1450	21.1302	0.4571	-0.5424	0.5300	0.4647
2.43	-9.5060	-0.0581	-1.4818	0.0016	-0.0059	0.0150	8.2399	-18.2394	21.4947	0.4571	-0.5424	0.5300	0.4647
2.44	-9.4897	-0.0537	-1.4763	-0.0006	-0.0064	0.0156	8.1671	-18.1481	21.3445	0.4571	-0.5425	0.5300	0.4648
2.45	-9.4932	-0.0601	-1.4738	0.0092	-0.0090	0.0195	8.0352	-18.1203	21.3916	0.4570	-0.5424	0.5299	0.4647
2.46	-9.5065	-0.0646	-1.4941	0.0024	-0.0106	0.0200	8.2727	-18.1329	21.1777	0.4571	-0.5424	0.5300	0.4648
2.47	-9.4919	-0.0674	-1.4858	0.0035	-0.0009	0.0188	8.3050	-18.1217	21.1537	0.4570	-0.5424	0.5300	0.4648
2.48	-9.4962	-0.0688	-1.4829	-0.0018	0.0005	0.0140	8.0827	-18.1337	21.3284	0.4570	-0.5424	0.5300	0.4648
2.49	-9.5063	-0.0528	-1.4860	-0.0018	-0.0082	0.0178	8.3626	-18.1189	21.2255	0.4570	-0.5424	0.5300	0.4648
2.5	-9.5010	-0.0527	-1.4764	0.0006	-0.0009	0.0165	8.3162	-18.2489	21.4482	0.4570	-0.5425	0.5300	0.4648
2.51	-9.4863	-0.0465	-1.4661	-0.0053	-0.0010	0.0148	8.0173	-18.1467	21.1998	0.4570	-0.5425	0.5300	0.4648
2.52	-9.4977	-0.0453	-1.4669	-0.0016	-0.0061	0.0118	8.1366	-18.1168	21.2200	0.4569	-0.5425	0.5299	0.4647
2.53	-9.5041	-0.0594	-1.4583	-0.0078	0.0013	0.0116	8.2478	-18.2314	21.6254	0.4569	-0.5426	0.5300	0.4648
2.54	-9.4900	-0.0534	-1.4460	-0.0020	-0.0084	0.0172	8.2809	-18.0514	21.4307	0.4569	-0.5426	0.5299	0.4648
2.55	-9.5047	-0.0620	-1.4531	0.0057	-0.0073	0.0177	8.1445	-18.0828	21.2686	0.4569	-0.5426	0.5300	0.4648
2.56	-9.4994	-0.0653	-1.4504	0.0024	-0.0100	0.0215	8.1115	-18.2602	21.2577	0.4568	-0.5425	0.5299	0.4648
2.57	-9.4866	-0.0568	-1.4548	0.0053	-0.0074	0.0200	8.3090	-18.1397	21.3015	0.4569	-0.5425	0.5300	0.4648
2.58	-9.4958	-0.0598	-1.4482	0.0044	-0.0060	0.0167	8.3551	-18.2022	21.3835	0.4569	-0.5425	0.5300	0.4648
2.59	-9.5033	-0.0518	-1.4493	0.0046	-0.0058	0.0172	8.2600	-18.4082	21.3544	0.4568	-0.5425	0.5299	0.4648
2.6	-9.5082	-0.0547	-1.4540	-0.0052	-0.0064	0.0172	8.4990	-18.2647	21.3754	0.4569	-0.5426	0.5300	0.4649
2.61	-9.4863	-0.0399	-1.4477	-0.0012	-0.0052	0.0193	8.1792	-18.2980	21.3573	0.4568	-0.5425	0.5300	0.4649
2.62	-9.5003	-0.0424	-1.4536	0.0059	-0.0023	0.0194	8.1038	-18.3077	21.3637	0.4568	-0.5426	0.5300	0.4649
2.63	-9.5103	-0.0480	-1.4520	-0.0031	-0.0013	0.0169	8.2479	-18.2101	21.3574	0.4567	-0.5425	0.5300	0.4648
2.64	-9.4888	-0.0540	-1.4678	-0.0021	-0.0053	0.0143	8.1700	-18.0036	21.3530	0.4568	-0.5426	0.5300	0.4649
2.65	-9.4907	-0.0604	-1.4631	0.0040	-0.0022	0.0232	8.3383	-18.2365	21.5392	0.4567	-0.5426	0.5300	0.4649
2.66	-9.5028	-0.0573	-1.4680	-0.0001	0.0006	0.0096	8.5839	-18.1145	21.4804	0.4567	-0.5426	0.5300	0.4648
2.67	-9.4881	-0.0642	-1.4789	0.0028	0.0009	0.0205	8.4249	-18.1344	21.3282	0.4567	-0.5426	0.5300	0.4648
2.68	-9.4890	-0.0580	-1.4626	0.0037	0.0004	0.0108	8.3928	-18.1125	21.4757	0.4567	-0.5427	0.5300	0.4648
2.69	-9.5049	-0.0519	-1.4817	0.0006	0.0006	0.0095	8.3798	-18.0004	21.4338	0.4567	-0.5427	0.5300	0.4648
2.7	-9.5039	-0.0653	-1.4774	0.0019	0.0045	0.0119	8.2978	-18.2766	21.3213	0.4566	-0.5427	0.5300	0.4647
2.71	-9.4870	-0.0620	-1.4712	0.0052	-0.0001	0.0130	8.1363	-18.1974	21.2912	0.4566	-0.5428	0.5301	0.4647
2.72	-9.4914	-0.0576	-1.4730	0.0006	0.0041	0.0164	8.0798	-18.2501	21.5137	0.4566	-0.5428	0.5301	0.4647
2.73	-9.5045	-0.0600	-1.4844	0.0051	0.0022	0.0180	8.1024	-18.1286	21.3309	0.4566	-0.5428	0.5301	0.4647
2.74	-9.5006	-0.0648	-1.4601	0.0087	-0.0057	0.0177	8.0847	-18.2335	21.2203	0.4566	-0.5428	0.5301	0.4646
2.75	-9.4808	-0.0577	-1.4637	0.0046	-0.0081	0.0195	8.3523	-18.1892	21.1851	0.4566	-0.5428	0.5301	0.4647
2.76	-9.5071	-0.0603	-1.4714	-0.0016	-0.0059	0.0130	8.4530	-18.2969	21.3729	0.4566	-0.5428	0.5301	0.4647
2.77	-9.5084	-0.0637	-1.4710	-0.0045	-0.0027	0.0122	8.3329	-18.5163	21.3462	0.4565	-0.5428	0.5301	0.4646
2.78	-9.4852	-0.0592	-1.4583	-0.0031	0.0011	0.0124	8.2460	-18.2207	21.2083	0.4565	-0.5429	0.5301	0.4647
2.79	-9.5075	-0.0702	-1.4681	0.0060	-0.0036	0.0137	8.2703	-18.1237	21.3541	0.4565	-0.5429	0.5301	0.4646
2.8	-9.5009	-0.0558	-1.4682	-0.0008	-0.0024	0.0087	8.4429	-18.3318	21.5243	0.4565	-0.5430	0.5301	0.4647
2.81	-9.4844	-0.0607	-1.4502	0.0022	-0.0029	0.0150	8.2410	-18.1857	21.2771	0.4565	-0.5429	0.5300	0.4646
2.82	-9.4964	-0.0549	-1.4650	0.0054	-0.0018	0.0156	8.1617	-18.2537	21.2522	0.4565	-0.5429	0.5301	0.4646
2.83	-9.5063	-0.0486	-1.4637	0.0026	-0.0023	0.0122	8.1788	-18.1360	21.4649	0.4565	-0.5430	0.5301	0.4646
2.84	-9.4976	-0.0516	-1.4579	0.0008	-0.0072	0.0224	8.1786	-18.2120	21.2924	0.4564	-0.5429	0.5301	0.4646
2.85	-9.4877	-0.0409	-1.4569	-0.0015	-0.0028	0.0075	8.0881	-18.2149	21.3055	0.4565	-0.5430	0.5301	0.4646
2.86	-9.5057	-0.0423	-1.4560	-0.0016	-0.0045	0.0111	7.9663	-17.9911	21.4677	0.4564	-0.5430	0.5301	0.4646
2.87	-9.4983	-0.0460	-1.4707	0.0004	-0.0113	0.0151	8.0971	-18.1441	21.4189	0.4565	-0.5431	0.5301	0.4646
2.88	-9.4849	-0.0446	-1.4473	0.0019	-0.0044	0.0176	8.0734	-18.1334	21.3862	0.4564	-0.5430	0.5300	0.4646
2.89	-9.5008	-0.0419	-1.4532	0.0056	0.0024	0.0160	8.2350	-18.1357	21.3839	0.4564	-0.5431	0.5301	0.4646
2.9	-9.5052	-0.0438	-1.4657	0.0019	0.0011	0.0190	8.2098	-18.3000	21.4538	0.4564	-0.5431	0.5301	0.4646
2.91	-9.4843	-0.0465	-1.4572	0.0007	0.0011	0.0146	8.1629	-18.2462	21.4961	0.4563	-0.5431	0.5301	0.4645
2.92	-9.4902	-0.0570	-1.4581	0.0048	0.0021	0.0091	8.1553	-18.0994	21.4867	0.4564	-0.5431	0.5301	0.4645
2.93	-9.5083	-0.0668	-1.4686	0.0066	-0.0053	0.0169	8.3489	-18.4238	21.4652	0.4563	-0.5431	0.5301	0.4645
2.94	-9.4929	-0.0667	-1.4603	0.0125	-0.0039	0.0207	8.3963	-18.4620	21.3840	0.4564	-0.5431	0.5302	0.4645
2.95	-9.4854	-0.0660	-1.4649	0.0060	0.0017	0.0200	8.2894	-18.4718	21.4287	0.4563	-0.5430	0.5302	0.4644
2.96	-9.5084	-0.0643	-1.4658	0.0081	0.0004	0.0076	8.4795	-18.5274	21.2871	0.4564	-0.5431	0.5302	0.4644
2.97	-9.5173	-0.0602	-1.4673	0.0036	-0.0024	0.0153	8.1835	-18.4597	21.5305	0.4563	-0.5431	0.5302	0.4644
2.98	-9.4868	-0.0655	-1.4635	0.0054	-0.0027	0.0174	8.2248	-18.4155	21.6198	0.4563	-0.5431	0.5302	0.4644
2.99	-9.4918	-0.0630	-1.4711	0.0043	-0.0035	0.0152	8.3453	-18.1998	21.3776	0.4563	-0.5431	0.5302	0.4643
3	-9.5067	-0.0636	-1.4745	0.0049	-0.0061	0.0118	8.2397	-18.3070	21.2757	0.4563	-0.5431	0.5302	0.4643
3.01	-9.4929	-0.0543	-1.4776	0.0039	-0.0037	0.0191	8.4365	-18.3455	21.2150	0.4563	-0.5432	0.5303	0.4643
3.02	-9.4846	-0.0579	-1.4713	0.0043	-0.0032	0.0168	8.3493	-18.3481	21.6244	0.4563	-0.5431	0.5302	0.4643
3.03	-9.5086	-0.0521	-1.4886	0.0065	-0.0055	0.0106	8.1183	-17.9639	21.3248	0.4563	-0.5432	0.5303	0.4643
3.04	-9.5003	-0.0433	-1.4827	0.0002	-0.0058	0.0181	8.1106	-18.1590	21.3271	0.4563	-0.5432	0.5303	0.4643
3.05	-9.4887	-0.0457	-1.4657	-0.0022	-0.0075	0.0048	8.0287	-18.2589	21.2198	0.4564	-0.5432	0.5303	0.4643
3.06	-9.5074	-0.0396	-1.4717	0.0094	-0.0030	0.0139	8.0146	-18.1179	21.3102	0.4563	-0.5432	0.5302	0.4642
3.07	-9.5000	-0.0571	-1.4633	0.0015	-0.0023	0.0088	8.1023	-18.0401	21.3989	0.4563	-0.5432	0.5302	0.4642
3.08	-9.4871	-0.0587	-1.4457	-0.0045	-0.0056	0.0095	8.1289	-18.0680	21.2420	0.4563	-0.5433	0.5302	0.4642
3.09	-9.4879	-0.0616	-1.4554	0.0016	-0.0044	0.0142	8.2177	-17.9889	21.4665	0.4563	-0.5433	0.5302	0.4642
3.1	-9.5087	-0.0668	-1.4564	0.0081	0.0032	0.0160	7.9429	-17.8548	21.5987	0.4563	-0.5434	0.5303	0.4642
3.11	-9.4957	-0.0626	-1.4453	0.0054	-0.0078	0.0162	8.0929	-18.2139	21.3646	0.4563	-0.5433	0.5302	0.4642
3.12	-9.4881	-0.0666	-1.4452	0.0086	-0.0099	0.0176	8.2515	-18.1310	21.3011	0.4563	-0.5433	0.5303	0.4642
3.13	-9.5042	-0.0649	-1.4472	0.0108	-0.0045	0.0156	8.3366	-18.2876	21.2949	0.4563	-0.5432	0.5302	0.4641
3.14	-9.4991	-0.0577	-1.4435	0.0092	-0.0075	0.0099	8.4359	-18.5064	21.4871	0.4564	-0.5433	0.5303	0.4642
3.15	-9.4860	-0.0437	-1.4384	0.0034	-0.0053	0.0102	8.4021	-18.2712	21.5831	0.4564	-0.5433	0.5302	0.4641
3.16	-9.4981	-0.0411	-1.4493	0.0062	-0.0021	0.0189	8.7127	-18.3561	21.3799	0.4564	-0.5433	0.5302	0.4641
3.17	-9.5082	-0.0446	-1.4550	0.0050	-0.0032	0.0199	8.9395	-18.4747	21.5318	0.4564	-0.5433	0.5303	0.4641
3.18	-9.4808	-0.0492	-1.4501	0.0027	-0.0020	0.0174	8.5579	-18.2324	21.2658	0.4563	-0.5433	0.5303	0.4641
3.19	-9.4975	-0.0594	-1.4520	0.0052	-0.0053	0.0195	8.3573	-18.1692	21.3077	0.4563	-0.5433	0.5303	0.4641
3.2	-9.5083	-0.0633	-1.4678	0.0051	-0.0087	0.0255	8.3624	-18.1678	21.2133	0.4563	-0.5432	0.5303	0.4641
3.21	-9.5019	-0.0744	-1.4751	0.0053	-0.0040	0.0227	8.3045	-18.2425	21.1919	0.4563	-0.5433	0.5304	0.4641
3.22	-9.4833	-0.0711	-1.4783	0.0061	-0.0008	0.0145	8.1730	-18.1747	21.5488	0.4563	-0.5432	0.5304	0.4641
3.23	-9.5031	-0.0816	-1.4905	0.0001	-0.0012	0.0179	7.8811	-18.1290	21.4678	0.4563	-0.5433	0.5304	0.4641
3.24	-9.5029	-0.0846	-1.4986	-0.0003	-0.0041	0.0193	8.0198	-18.1535	21.3853	0.4562	-0.5433	0.5304	0.4641
3.25	-9.4829	-0.0701	-1.4826	0.0005	-0.0036	0.0150	8.1806	-18.1265	21.3055	0.4562	-0.5433	0.5304	0.4641
3.26	-9.4991	-0.0598	-1.4904	0.0044	-0.0006	0.0166	8.1805	-18.1714	21.1868	0.4562	-0.5433	0.5304	0.4641
3.27	-9.5073	-0.0570	-1.4944	-0.0029	-0.0042	0.0125	8.3369	-18.3337	21.4936	0.4562	-0.5433	0.5304	0.4640
3.28	-9.4894	-0.0547	-1.4831	-0.0004	-0.0066	0.0159	8.2917	-18.1658	21.4717	0.4562	-0.5434	0.5304	0.4641
3.29	-9.4864	-0.0439	-1.4657	-0.0017	-0.0098	0.0190	8.4770	-18.1634	21.4183	0.4562	-0.5433	0.5304	0.4641
3.3	-9.5065	-0.0433	-1.4668	-0.0004	-0.0078	0.0240	8.1876	-18.2480	21.1511	0.4562	-0.5434	0.5304	0.4642
3.31	-9.4912	-0.0537	-1.4660	0.0006	-0.0131	0.0171	8.1344	-18.1360	21.3270	0.4561	-0.5433	0.5303	0.4642
3.32	-9.4879	-0.0572	-1.4550	0.0052	-0.0035	0.0119	8.2805	-18.1121	21.2360	0.4562	-0.5433	0.5304	0.4642
3.33	-9.5024	-0.0473	-1.4585	0.0098	-0.0072	0.0213	8.3528	-18.2204	21.2295	0.4562	-0.5433	0.5304	0.4642
3.34	-9.5080	-0.0535	-1.4621	0.0043	-0.0060	0.0209	8.2127	-18.4180	21.3973	0.4561	-0.5432	0.5304	0.4641
3.35	-9.4847	-0.0519	-1.4506	0.0033	-0.0099	0.0198	8.3552	-18.2773	21.3809	0.4562	-0.5433	0.5305	0.4642
3.36	-9.4931	-0.0594	-1.4541	-0.0003	-0.0113	0.0172	8.3737	-18.1719	21.3679	0.4561	-0.5432	0.5304	0.4642
3.37	-9.5159	-0.0571	-1.4517	0.0033	-0.0088	0.0157	8.2895	-18.1160	21.1842	0.4562	-0.5433	0.5304	0.4642
3.38	-9.5000	-0.0598	-1.4452	0.0031	-0.0063	0.0209	8.4034	-18.1540	21.2945	0.4561	-0.5432	0.5304	0.4642
3.39	-9.4888	-0.0643	-1.4422	0.0109	-0.0048	0.0189	8.3106	-18.0044	21.2867	0.4562	-0.5432	0.5304	0.4642
3.4	-9.5157	-0.0636	-1.4592	0.0098	-0.0045	0.0209	8.4362	-18.1250	21.4665	0.4562	-0.5432	0.5305	0.4642
3.41	-9.4957	-0.0650	-1.4545	-0.0040	0.0050	0.0181	8.3099	-18.1167	21.3990	0.4561	-0.5432	0.5305	0.4642
3.42	-9.4829	-0.0563	-1.4479	-0.0012	-0.0010	0.0163	8.3157	-18.2560	21.3573	0.4561	-0.5433	0.5305	0.4642
3.43	-9.5061	-0.0601	-1.4641	0.0028	0.0016	0.0090	8.0854	-18.2763	21.2822	0.4561	-0.5433	0.5305	0.4641
3.44	-9.5055	-0.0637	-1.4631	0.0077	0.0006	0.0085	8.2563	-18.0199	21.4843	0.4561	-0.5433	0.5305	0.4641
3.45	-9.4816	-0.0543	-1.4595	0.0092	-0.0066	0.0191	8.1322	-18.1378	21.3607	0.4560	-0.5433	0.5305	0.4640
3.46	-9.4945	-0.0553	-1.4613	0.0041	-0.0018	0.0147	8.1894	-18.2590	21.3926	0.4561	-0.5433	0.5305	0.4641
3.47	-9.5062	-0.0528	-1.4739	-0.0021	-0.0043	0.0170	8.2278	-18.1400	21.1803	0.4560	-0.5433	0.5305	0.4641
3.48	-9.5042	-0.0613	-1.4703	0.0089	-0.0018	0.0131	8.3189	-17.9828	21.3241	0.4561	-0.5434	0.5305	0.4641
3.49	-9.4985	-0.0700	-1.4637	0.0078	-0.0119	0.0223	8.2791	-18.2806	21.5950	0.4561	-0.5433	0.5305	0.4640
3.5	-9.5105	-0.0562	-1.4698	0.0097	-0.0046	0.0201	8.3970	-18.2653	21.2878	0.4561	-0.5433	0.5306	0.4640
3.51	-9.5195	-0.0600	-1.4761	0.0117	-0.0050	0.0156	8.4572	-18.2030	21.1150	0.4561	-0.5433	0.5306	0.4640
3.52	-9.4910	-0.0521	-1.4659	0.0067	-0.0015	0.0208	8.3897	-18.2098	21.1816	0.4560	-0.5432	0.5306	0.4640
3.53	-9.4993	-0.0513	-1.4724	0.0052	-0.0001	0.0186	8.2832	-18.2406	21.4301	0.4561	-0.5433	0.5307	0.4640
3.54	-9.5077	-0.0591	-1.4860	0.0037	-0.0066	0.0188	8.3970	-18.2929	21.1912	0.4560	-0.5433	0.5307	0.4640
3.55	-9.4931	-0.0580	-1.4597	0.0029	-0.0015	0.0135	8.2805	-18.1621	21.2711	0.4561	-0.5433	0.5307	0.4640
3.56	-9.5017	-0.0575	-1.4648	0.0067	-0.0002	0.0210	8.2130	-18.3522	21.3827	0.4560	-0.5432	0.5307	0.4639
3.57	-9.5119	-0.0573	-1.4884	0.0039	-0.0003	0.0206	8.3386	-18.2364	21.3978	0.4560	-0.5433	0.5307	0.4640
3.58	-9.4874	-0.0621	-1.4766	0.0105	-0.0058	0.0220	8.1674	-18.2744	21.3194	0.4560	-0.5433	0.5308	0.4639
3.59	-9.4952	-0.0618	-1.4702	0.0093	-0.0047	0.0204	8.3614	-18.2612	21.2823	0.4560	-0.5432	0.5308	0.4639
3.6	-9.5078	-0.0449	-1.4800	-0.0003	-0.0064	0.0177	8.1846	-17.9977	21.2820	0.4560	-0.5433	0.5308	0.4640
3.61	-9.4930	-0.0505	-1.4762	-0.0010	-0.0034	0.0148	8.0558	-18.3767	21.3152	0.4560	-0.5432	0.5308	0.4639
3.62	-9.4860	-0.0552	-1.4688	0.0040	-0.0088	0.0151	8.0678	-18.1349	21.4199	0.4560	-0.5433	0.5308	0.4640
3.63	-9.4905	-0.0513	-1.4525	0.0040	-0.0060	0.0203	8.1535	-18.2350	21.2551	0.4559	-0.5432	0.5308	0.4639
3.64	-9.5066	-0.0558	-1.4595	0.0020	-0.0025	0.0143	8.3581	-18.2815	21.3284	0.4560	-0.5433	0.5308	0.4639
3.65	-9.4988	-0.0612	-1.4577	0.0063	-0.0046	0.0186	8.3008	-18.0710	21.4019	0.4559	-0.5432	0.5308	0.4639
3.66	-9.4828	-0.0613	-1.4493	0.0098	-0.0078	0.0122	8.5650	-18.2174	21.6376	0.4560	-0.5432	0.5308	0.4639
3.67	-9.4951	-0.0621	-1.4486	0.0054	-0.0045	0.0111	8.6117	-18.3054	21.7517	0.4560	-0.5433	0.5308	0.4639
3.68	-9.5124	-0.0652	-1.4499	0.0063	-0.0032	0.0174	8.5562	-18.3827	21.4413	0.4560	-0.5432	0.5308	0.4639
3.69	-9.4895	-0.0575	-1.4341	-0.0008	-0.0042	0.0187	8.3254	-18.3498	21.3436	0.4560	-0.5433	0.5309	0.4639
3.7	-9.4947	-0.0686	-1.4400	-0.0009	-0.0055	0.0195	8.3609	-18.2101	21.2062	0.4559	-0.5432	0.5308	0.4639
3.71	-9.5044	-0.0664	-1.4585	0.0065	-0.0022	0.0163	8.5028	-18.2111	21.4628	0.4560	-0.5433	0.5309	0.4639
3.72	-9.4836	-0.0549	-1.4462	0.0068	-0.0007	0.0149	8.2532	-18.2902	21.1799	0.4559	-0.5433	0.5309	0.4638
3.73	-9.4926	-0.0547	-1.4524	0.0054	-0.0004	0.0107	8.4508	-18.2770	21.3886	0.4559	-0.5433	0.5309	0.4638
3.74	-9.5040	-0.0652	-1.4710	0.0011	-0.0012	0.0110	8.2984	-18.2577	21.4832	0.4559	-0.5433	0.5309	0.4638
3.75	-9.5001	-0.0613	-1.4593	0.0036	-0.0036	0.0103	8.2473	-18.3218	21.5367	0.4559	-0.5433	0.5309	0.4638
3.76	-9.4979	-0.0618	-1.4664	0.0021	-0.0036	0.0177	8.2159	-18.1534	21.5142	0.4559	-0.5434	0.5309	0.4638
3.77	-9.5073	-0.0631	-1.4734	0.0120	-0.0005	0.0199	8.0692	-18.1074	21.1632	0.4559	-0.5433	0.5309	0.4637
3.78	-9.5045	-0.0618	-1.4815	0.0063	0.0003	0.0081	8.2080	-18.0958	21.3530	0.4559	-0.5434	0.5309	0.4637
3.79	-9.4850	-0.0607	-1.4697	0.0047	0.0020	0.0181	8.1191	-17.9100	21.4047	0.4559	-0.5434	0.5309	0.4637
3.8	-9.4902	-0.0618	-1.4675	0.0078	-0.0048	0.0142	8.0790	-18.1759	21.3396	0.4559	-0.5434	0.5310	0.4637
3.81	-9.5086	-0.0582	-1.4880	0.0047	-0.0002	0.0095	8.1025	-17.9818	21.1915	0.4559	-0.5434	0.5309	0.4636
3.82	-9.4923	-0.0557	-1.4904	-0.0083	-0.0012	0.0104	8.0933	-18.0992	21.1175	0.4559	-0.5435	0.5309	0.4636
3.83	-9.4863	-0.0398	-1.4723	0.0002	0.0002	0.0113	8.2609	-18.2272	21.3372	0.4559	-0.5435	0.5309	0.4636
3.84	-9.5017	-0.0472	-1.4869	-0.0007	0.0015	0.0110	8.2266	-18.1861	21.5229	0.4558	-0.5435	0.5309	0.4635
3.85	-9.4990	-0.0505	-1.4844	0.0013	0.0019	0.0170	8.2904	-18.1082	21.2536	0.4559	-0.5436	0.5310	0.4636
3.86	-9.4957	-0.0569	-1.4756	0.0036	0.0033	0.0126	8.3022	-17.9891	21.3747	0.4558	-0.5436	0.5309	0.4635
3.87	-9.5130	-0.0618	-1.4912	0.0036	-0.0066	0.0187	8.2419	-18.3201	21.3525	0.4558	-0.5436	0.5310	0.4635
3.88	-9.5135	-0.0534	-1.4848	0.0070	-0.0045	0.0157	8.2436	-18.5412	21.2922	0.4558	-0.5436	0.5309	0.4635
3.89	-9.5005	-0.0616	-1.4698	0.0069	-0.0042	0.0137	8.2954	-18.3212	21.3422	0.4558	-0.5436	0.5310	0.4635
3.9	-9.4984	-0.0628	-1.4857	-0.0005	-0.0003	0.0166	8.5967	-18.2003	21.4418	0.4558	-0.5436	0.5310	0.4635
3.91	-9.4926	-0.0634	-1.4791	-0.0003	0.0023	0.0128	8.3048	-18.2428	21.3093	0.4557	-0.5436	0.5310	0.4635
3.92	-9.4883	-0.0610	-1.4648	0.0037	-0.0042	0.0116	8.3572	-18.3934	21.3209	0.4558	-0.5437	0.5310	0.4635
3.93	-9.4841	-0.0576	-1.4646	0.0007	0.0010	0.0126	8.4110	-18.0813	21.4343	0.4557	-0.5437	0.5310	0.4634
3.94	-9.5025	-0.0602	-1.4751	-0.0026	0.0031	0.0140	8.2478	-18.3811	21.3405	0.4557	-0.5438	0.5310	0.4634
3.95	-9.4995	-0.0607	-1.4614	0.0067	-0.0054	0.0161	8.2535	-18.2471	21.2780	0.4557	-0.5437	0.5309	0.4634
3.96	-9.4837	-0.0630	-1.4504	0.0005	-0.0080	0.0196	8.3469	-18.3365	21.4689	0.4557	-0.5438	0.5310	0.4634
3.97	-9.4885	-0.0586	-1.4638	-0.0023	-0.0048	0.0177	8.3084	-18.2630	21.4482	0.4557	-0.5437	0.5310	0.4634
3.98	-9.4996	-0.0592	-1.4706	-0.0013	-0.0071	0.0130	8.1509	-17.9802	21.3712	0.4557	-0.5438	0.5310	0.4634
3.99	-9.4883	-0.0598	-1.4538	0.0020	-0.0091	0.0137	8.1938	-18.0568	21.3966	0.4557	-0.5438	0.5309	0.4634
4	-9.4895	-0.0504	-1.4520	-0.0002	-0.0047	0.0102	8.2346	-18.1348	21.4075	0.4557	-0.5438	0.5309	0.4634
4.01	-9.5018	-0.0617	-1.4599	-0.0036	-0.0041	0.0110	8.1421	-18.0546	21.5329	0.4557	-0.5438	0.5309	0.4634
4.02	-9.4761	-0.0578	-1.4426	0.0037	-0.0042	0.0142	8.1850	-18.0730	21.3605	0.4556	-0.5438	0.5309	0.4634
4.03	-9.4938	-0.0629	-1.4550	0.0139	0.0022	0.0152	8.0738	-18.2628	21.4362	0.4557	-0.5439	0.5310	0.4634
4.04	-9.5048	-0.0615	-1.4630	0.0039	0.0016	0.0177	8.0929	-17.9621	21.1563	0.4556	-0.5439	0.5310	0.4633
4.05	-9.4893	-0.0496	-1.4638	0.0048	-0.0052	0.0136	8.1420	-18.0508	21.1904	0.4557	-0.5439	0.5310	0.4634
4.06	-9.4892	-0.0510	-1.4571	0.0051	-0.0036	0.0121	8.2788	-18.3073	21.2331	0.4556	-0.5439	0.5309	0.4633
4.07	-9.5114	-0.0580	-1.4634	0.0053	-0.0059	0.0214	8.2424	-18.2765	21.1260	0.4557	-0.5439	0.5310	0.4633
4.08	-9.5048	-0.0566	-1.4600	0.0105	-0.0029	0.0121	8.2772	-18.4119	21.2990	0.4557	-0.5439	0.5310	0.4633
4.09	-9.4880	-0.0618	-1.4650	0.0001	-0.0056	0.0121	8.1769	-18.2575	21.4051	0.4556	-0.5439	0.5309	0.4632
4.1	-9.4976	-0.0584	-1.4619	0.0092	0.0009	0.0117	8.0773	-18.3041	21.2880	0.4557	-0.5440	0.5310	0.4633
4.11	-9.5104	-0.0600	-1.4678	0.0130	0.0003	0.0214	8.3633	-18.2350	21.2193	0.4557	-0.5439	0.5310	0.4632
4.12	-9.5044	-0.0648	-1.4744	0.0093	-0.0019	0.0142	8.2542	-18.1684	21.4182	0.4557	-0.5439	0.5311	0.4632
4.13	-9.4891	-0.0600	-1.4753	0.0023	-0.0047	0.0148	8.2644	-18.2891	21.3810	0.4556	-0.5439	0.5310	0.4631
4.14	-9.4994	-0.0642	-1.4917	0.0020	-0.0007	0.0166	8.1161	-18.1739	21.4198	0.4557	-0.5439	0.5311	0.4631
4.15	-9.5052	-0.0520	-1.4834	0.0078	-0.0001	0.0225	8.2899	-18.0491	21.3469	0.4556	-0.5439	0.5311	0.4631
4.16	-9.4855	-0.0478	-1.4779	0.0099	0.0061	0.0096	8.5887	-18.0086	21.5626	0.4556	-0.5439	0.5311	0.4630
4.17	-9.5019	-0.0505	-1.4830	0.0068	-0.0033	0.0174	8.5657	-18.1124	21.6743	0.4556	-0.5440	0.5312	0.4630
4.18	-9.5111	-0.0516	-1.4760	0.0060	0.0005	0.0148	8.3559	-18.2142	21.3966	0.4556	-0.5439	0.5312	0.4630
4.19	-9.5026	-0.0598	-1.4695	0.0082	0.0042	0.0191	8.1978	-18.2466	21.3882	0.4556	-0.5440	0.5312	0.4630
4.2	-9.5066	-0.0642	-1.4650	0.0111	-0.0003	0.0156	8.1894	-18.2413	21.3148	0.4556	-0.5439	0.5312	0.4629
4.21	-9.5109	-0.0597	-1.4698	0.0083	0.0006	0.0201	8.1519	-18.2088	21.1556	0.4556	-0.5440	0.5313	0.4629
4.22	-9.4947	-0.0575	-1.4559	0.0078	0.0019	0.0183	8.4416	-18.2202	21.4723	0.4556	-0.5440	0.5313	0.4629
4.23	-9.4847	-0.0566	-1.4532	0.0080	0.0027	0.0195	8.2330	-18.1466	21.3291	0.4556	-0.5440	0.5314	0.4629
4.24	-9.5146	-0.0593	-1.4574	0.0122	-0.0093	0.0189	8.3149	-18.1079	21.2801	0.4556	-0.5439	0.5314	0.4628
4.25	-9.5052	-0.0603	-1.4510	0.0152	-0.0057	0.0247	8.4229	-18.1514	21.4088	0.4556	-0.5439	0.5314	0.4628
4.26	-9.4869	-0.0544	-1.4483	0.0136	-0.0024	0.0212	8.3545	-18.2490	21.2032	0.4556	-0.5439	0.5315	0.4628
4.27	-9.4925	-0.0545	-1.4463	0.0089	-0.0011	0.0135	8.2058	-18.0960	21.1929	0.4556	-0.5438	0.5315	0.4627
4.28	-9.5133	-0.0550	-1.4602	0.0177	-0.0052	0.0213	8.4525	-18.3502	21.4375	0.4557	-0.5439	0.5316	0.4628
4.29	-9.4954	-0.0620	-1.4481	0.0084	-0.0052	0.0154	8.3042	-18.3425	21.3334	0.4556	-0.5438	0.5316	0.4627
4.3	-9.4864	-0.0593	-1.4448	0.0127	-0.0080	0.0143	8.1944	-18.0294	21.2879	0.4557	-0.5438	0.5316	0.4627
4.31	-9.5125	-0.0592	-1.4635	0.0144	-0.0020	0.0200	8.3386	-18.0511	21.2085	0.4557	-0.5437	0.5316	0.4626
4.32	-9.5097	-0.0575	-1.4782	0.0155	-0.0007	0.0158	8.2012	-18.2517	21.2039	0.4557	-0.5438	0.5317	0.4626
4.33	-9.4851	-0.0599	-1.4641	0.0139	-0.0040	0.0138	8.2633	-18.1813	21.4003	0.4557	-0.5437	0.5317	0.4626
4.34	-9.5014	-0.0644	-1.4649	0.0098	-0.0058	0.0195	8.1473	-18.2940	21.2966	0.4557	-0.5437	0.5317	0.4625
4.35	-9.5143	-0.0618	-1.4824	0.0120	-0.0006	0.0166	8.1590	-18.3047	21.2990	0.4558	-0.5438	0.5318	0.4625
4.36	-9.4880	-0.0569	-1.4658	0.0168	-0.0009	0.0172	8.2649	-18.1503	21.5621	0.4558	-0.5437	0.5318	0.4625
4.37	-9.4907	-0.0548	-1.4715	0.0129	0.0002	0.0100	8.1631	-18.3329	21.3062	0.4558	-0.5437	0.5318	0.4624
4.38	-9.5046	-0.0566	-1.4691	0.0095	-0.0009	0.0117	8.1417	-18.1040	21.2939	0.4558	-0.5437	0.5318	0.4623
4.39	-9.5022	-0.0500	-1.4648	0.0155	-0.0030	0.0152	8.2684	-18.0624	21.2718	0.4558	-0.5437	0.5319	0.4623
4.4	-9.4863	-0.0415	-1.4636	0.0078	-0.0046	0.0134	8.1858	-18.1326	21.1911	0.4559	-0.5437	0.5319	0.4623
4.41	-9.5078	-0.0573	-1.4733	0.0065	-0.0038	0.0139	8.1216	-18.2049	21.4939	0.4559	-0.5437	0.5319	0.4623
4.42	-9.5058	-0.0612	-1.4763	0.0137	-0.0019	0.0214	8.2589	-18.2031	21.3696	0.4559	-0.5437	0.5319	0.4623
4.43	-9.4906	-0.0646	-1.4587	0.0108	-0.0092	0.0229	8.3305	-18.1305	21.1293	0.4559	-0.5436	0.5319	0.4622
4.44	-9.5084	-0.0603	-1.4701	0.0132	-0.0044	0.0151	8.3093	-18.4450	21.3583	0.4559	-0.5436	0.5320	0.4622
4.45	-9.5076	-0.0567	-1.4713	0.0099	-0.0042	0.0151	8.3157	-18.1816	21.4827	0.4559	-0.5436	0.5319	0.4621
4.46	-9.5036	-0.0634	-1.4743	0.0067	-0.0021	0.0197	8.2104	-18.1340	21.2664	0.4559	-0.5436	0.5320	0.4622
4.47	-9.4930	-0.0514	-1.4675	0.0161	-0.0037	0.0167	8.2694	-18.2499	21.2941	0.4559	-0.5436	0.5320	0.4621
4.48	-9.5121	-0.0487	-1.4688	0.0073	-0.0064	0.0162	8.3598	-18.1288	21.3263	0.4560	-0.5436	0.5321	0.4621
4.49	-9.4955	-0.0546	-1.4662	0.0031	-0.0048	0.0228	8.1838	-18.1253	21.1589	0.4559	-0.5436	0.5321	0.4621
4.5	-9.4958	-0.0544	-1.4529	0.0094	-0.0054	0.0179	8.2105	-18.0205	21.1639	0.4559	-0.5435	0.5321	0.4621
4.51	-9.5016	-0.0487	-1.4679	0.0016	-0.0070	0.0171	8.5345	-18.2654	21.3535	0.4559	-0.5436	0.5321	0.4621
4.52	-9.5064	-0.0507	-1.4649	0.0111	-0.0074	0.0168	8.3125	-18.3012	21.2699	0.4559	-0.5435	0.5321	0.4621
4.53	-9.5030	-0.0570	-1.4490	0.0145	-0.0049	0.0149	8.2927	-18.2893	21.4150	0.4560	-0.5435	0.5322	0.4621
4.54	-9.4969	-0.0595	-1.4551	0.0147	-0.0055	0.0194	8.3563	-18.1466	21.3799	0.4560	-0.5435	0.5322	0.4620
4.55	-9.5202	-0.0516	-1.4698	0.0041	-0.0029	0.0143	8.1684	-18.1266	21.3393	0.4560	-0.5435	0.5322	0.4621
4.56	-9.4950	-0.0595	-1.4735	0.0011	0.0016	0.0132	8.1559	-18.1219	21.1666	0.4560	-0.5435	0.5321	0.4620
4.57	-9.4924	-0.0527	-1.4674	0.0054	-0.0044	0.0175	8.2357	-18.2582	21.2496	0.4560	-0.5435	0.5322	0.4620
4.58	-9.5057	-0.0569	-1.4746	0.0068	0.0020	0.0128	8.1384	-18.3010	21.3142	0.4560	-0.5435	0.5322	0.4620
4.59	-9.4917	-0.0597	-1.4585	0.0091	-0.0010	0.0168	8.3774	-18.3028	21.2843	0.4560	-0.5435	0.5322	0.4619
4.6	-9.4973	-0.0578	-1.4686	0.0078	-0.0009	0.0145	8.1546	-18.1813	21.4067	0.4560	-0.5436	0.5323	0.4619
4.61	-9.5078	-0.0631	-1.4554	0.0130	-0.0002	0.0203	8.3570	-18.1393	21.2224	0.4560	-0.5435	0.5323	0.4619
4.62	-9.5091	-0.0626	-1.4514	0.0110	-0.0081	0.0195	8.3419	-18.4825	21.2231	0.4560	-0.5435	0.5324	0.4619
4.63	-9.4882	-0.0542	-1.4564	0.0097	-0.0058	0.0187	8.3296	-18.3713	21.1980	0.4560	-0.5434	0.5323	0.4618
4.64	-9.4962	-0.0467	-1.4679	0.0081	-0.0036	0.0155	8.2582	-18.1601	21.3498	0.4560	-0.5435	0.5324	0.4618
4.65	-9.5071	-0.0581	-1.4681	0.0161	-0.0020	0.0171	8.3198	-18.2735	21.5488	0.4561	-0.5434	0.5324	0.4618
4.66	-9.4967	-0.0499	-1.4648	0.0102	-0.0061	0.0216	8.6565	-18.2931	21.6330	0.4560	-0.5434	0.5324	0.4618
4.67	-9.4884	-0.0548	-1.4506	0.0121	-0.0012	0.0137	8.6284	-18.2827	21.7791	0.4561	-0.5434	0.5325	0.4617
4.68	-9.5019	-0.0590	-1.4640	0.0017	-0.0001	0.0103	8.5009	-18.2496	21.4560	0.4561	-0.5434	0.5324	0.4617
4.69	-9.5045	-0.0575	-1.4657	0.0107	-0.0056	0.0139	8.4134	-18.2511	21.3264	0.4561	-0.5435	0.5325	0.4617
4.7	-9.5024	-0.0663	-1.4634	0.0127	-0.0018	0.0162	8.2765	-18.4236	21.6187	0.4561	-0.5434	0.5324	0.4616
4.71	-9.4992	-0.0621	-1.4744	0.0077	-0.0073	0.0199	8.0678	-18.2248	21.5204	0.4561	-0.5434	0.5325	0.4616
4.72	-9.5103	-0.0642	-1.4836	-0.0031	0.0044	0.0104	8.1910	-18.0615	21.3106	0.4561	-0.5434	0.5325	0.4616
4.73	-9.5031	-0.0500	-1.4826	0.0032	-0.0011	0.0069	7.9714	-18.2010	21.2571	0.4561	-0.5435	0.5325	0.4616
4.74	-9.4915	-0.0454	-1.4684	0.0078	-0.0005	0.0102	8.1174	-18.2026	21.5207	0.4561	-0.5435	0.5325	0.4615
4.75	-9.4983	-0.0558	-1.4719	0.0031	0.0070	0.0109	8.0604	-18.0655	21.4001	0.4561	-0.5436	0.5325	0.4615
4.76	-9.5036	-0.0572	-1.4831	0.0075	0.0005	0.0099	8.1532	-18.0105	21.2437	0.4561	-0.5436	0.5325	0.4614
4.77	-9.4975	-0.0548	-1.4701	0.0067	0.0012	0.0117	8.1867	-18.0996	21.3830	0.4561	-0.5436	0.5325	0.4614
4.78	-9.5038	-0.0428	-1.4779	0.0118	0.0009	0.0075	8.0576	-18.1424	21.5034	0.4561	-0.5437	0.5326	0.4614
4.79	-9.5098	-0.0506	-1.4619	0.0085	0.0017	0.0161	8.2577	-18.0499	21.4133	0.4561	-0.5436	0.5326	0.4613
4.8	-9.4929	-0.0598	-1.4563	0.0048	-0.0037	0.0092	8.1863	-18.0637	21.3846	0.4562	-0.5437	0.5326	0.4613
4.81	-9.4969	-0.0412	-1.4577	0.0069	-0.0027	0.0091	8.1570	-18.3003	21.3701	0.4561	-0.5436	0.5325	0.4612
4.82	-9.5038	-0.0449	-1.4508	0.0052	-0.0036	0.0109	8.2919	-18.1662	21.3233	0.4562	-0.5437	0.5326	0.4612
4.83	-9.4919	-0.0410	-1.4590	0.0037	-0.0034	0.0172	8.1882	-18.3759	21.5651	0.4562	-0.5437	0.5326	0.4612
4.84	-9.5001	-0.0451	-1.4396	0.0053	-0.0090	0.0171	8.1456	-18.2931	21.2897	0.4561	-0.5436	0.5325	0.4612
4.85	-9.5033	-0.0570	-1.4483	0.0019	-0.0040	0.0073	8.3763	-18.1583	21.2988	0.4562	-0.5437	0.5326	0.4612
4.86	-9.4961	-0.0558	-1.4483	0.0041	0.0027	0.0098	8.2922	-18.2343	21.1820	0.4562	-0.5437	0.5325	0.4611
4.87	-9.4986	-0.0638	-1.4445	0.0018	0.0024	0.0198	8.2358	-18.3138	21.2752	0.4562	-0.5438	0.5326	0.4612
4.88	-9.5008	-0.0538	-1.4579	0.0029	-0.0013	0.0119	8.2728	-18.5596	21.4111	0.4561	-0.5437	0.5325	0.4611
4.89	-9.5060	-0.0612	-1.4606	0.0007	-0.0065	0.0075	8.1157	-18.3711	21.5956	0.4562	-0.5438	0.5325	0.4611
4.9	-9.5028	-0.0661	-1.4557	0.0021	-0.0045	0.0098	8.2502	-18.2568	21.3927	0.4562	-0.5438	0.5325	0.4611
4.91	-9.5025	-0.0611	-1.4640	0.0080	-0.0046	0.0071	8.1791	-18.2292	21.6807	0.4562	-0.5438	0.5325	0.4610
4.92	-9.5057	-0.0581	-1.4769	0.0074	-0.0018	0.0147	8.0773	-18.0854	21.4362	0.4562	-0.5439	0.5325	0.4610
4.93	-9.5098	-0.0609	-1.4702	0.0111	-0.0034	0.0157	8.2017	-18.1274	21.2421	0.4562	-0.5438	0.5325	0.4610
4.94	-9.4916	-0.0567	-1.4604	0.0053	0.0003	0.0178	8.1563	-18.0983	21.3743	0.4562	-0.5439	0.5326	0.4610
4.95	-9.5020	-0.0526	-1.4695	0.0034	-0.0002	0.0133	8.1814	-18.1305	21.4007	0.4561	-0.5438	0.5325	0.4609
4.96	-9.5045	-0.0572	-1.4686	0.0123	0.0022	0.0099	8.0677	-17.9869	21.2464	0.4562	-0.5439	0.5326	0.4609
4.97	-9.4935	-0.0510	-1.4753	0.0115	0.0019	0.0097	8.1078	-18.1027	21.3772	0.4562	-0.5439	0.5326	0.4608
4.98	-9.4984	-0.0583	-1.4659	0.0071	-0.0064	0.0125	8.0600	-18.0594	21.5638	0.4562	-0.5439	0.5326	0.4608
4.99	-9.5096	-0.0691	-1.4637	0.0084	-0.0041	0.0129	8.1989	-17.9989	21.0256	0.4562	-0.5439	0.5326	0.4608
5	-9.5032	-0.0714	-1.4671	0.0035	0.0032	0.0170	8.3784	-18.2941	21.3553	0.4562	-0.5439	0.5326	0.4608
5.01	-9.4878	-0.0699	-1.4582	0.0060	-0.0034	0.0179	8.2661	-18.3871	21.5292	0.4562	-0.5439	0.5327	0.4608
5.02	-9.5014	-0.0836	-1.4745	0.0029	-0.0069	0.0131	8.2287	-18.2797	21.4487	0.4562	-0.5439	0.5326	0.4607
5.03	-9.5160	-0.0774	-1.4801	0.0058	-0.0033	0.0112	8.2757	-18.1652	21.4984	0.4563	-0.5440	0.5327	0.4607
5.04	-9.5007	-0.0753	-1.4659	-0.0021	-0.0068	0.0177	8.4574	-18.2308	21.4483	0.4562	-0.5439	0.5326	0.4607
5.05	-9.5025	-0.0606	-1.4718	0.0049	-0.0058	0.0174	8.1313	-18.3015	21.3042	0.4563	-0.5440	0.5327	0.4608
5.06	-9.5082	-0.0601	-1.4657	0.0077	-0.0052	0.0102	8.3620	-18.2493	21.2980	0.4562	-0.5439	0.5326	0.4607
5.07	-9.5090	-0.0507	-1.4658	-0.0024	-0.0107	0.0132	8.4058	-18.3039	21.4283	0.4563	-0.5440	0.5326	0.4607
5.08	-9.4913	-0.0469	-1.4410	0.0066	-0.0039	0.0143	8.2760	-18.1892	21.3526	0.4563	-0.5440	0.5326	0.4607
5.09	-9.5026	-0.0422	-1.4552	0.0093	0.0015	0.0138	8.1644	-17.9803	21.4858	0.4563	-0.5439	0.5326	0.4606
5.1	-9.5061	-0.0332	-1.4736	0.0049	-0.0014	0.0067	8.0955	-18.2574	21.3546	0.4563	-0.5441	0.5327	0.4607
5.11	-9.4884	-0.0393	-1.4654	0.0043	-0.0043	0.0109	8.0533	-18.1278	21.4372	0.4563	-0.5440	0.5326	0.4606
5.12	-9.5008	-0.0383	-1.4571	0.0011	0.0039	0.0105	8.2155	-18.1532	21.4463	0.4563	-0.5441	0.5326	0.4606
5.13	-9.5043	-0.0425	-1.4704	0.0071	-0.0053	0.0063	8.2789	-18.2954	21.2606	0.4563	-0.5441	0.5325	0.4605
5.14	-9.4907	-0.0476	-1.4581	0.0017	-0.0067	0.0109	8.0309	-18.1640	21.4469	0.4563	-0.5441	0.5326	0.4605
5.15	-9.4921	-0.0464	-1.4616	-0.0025	-0.0025	0.0086	8.1513	-18.2263	21.4630	0.4563	-0.5441	0.5325	0.4605
5.16	-9.5046	-0.0536	-1.4663	-0.0037	0.0043	0.0116	8.4807	-18.1035	21.5457	0.4563	-0.5442	0.5325	0.4605
5.17	-9.5106	-0.0582	-1.4640	0.0060	0.0011	0.0151	8.5717	-18.1027	21.6795	0.4563	-0.5442	0.5326	0.4605
5.18	-9.4994	-0.0616	-1.4639	-0.0013	-0.0031	0.0176	8.4893	-18.1739	21.3915	0.4563	-0.5442	0.5325	0.4605
5.19	-9.4937	-0.0642	-1.4580	0.0076	-0.0109	0.0225	8.4676	-18.2399	21.3804	0.4563	-0.5442	0.5326	0.4605
5.2	-9.5050	-0.0527	-1.4603	0.0131	-0.0083	0.0176	8.3907	-18.1297	21.4208	0.4563	-0.5441	0.5325	0.4604
5.21	-9.5008	-0.0584	-1.4619	0.0079	-0.0011	0.0219	8.4776	-18.3794	21.2490	0.4563	-0.5442	0.5326	0.4605
5.22	-9.4829	-0.0521	-1.4592	0.0041	-0.0065	0.0199	8.2994	-18.2997	21.3901	0.4563	-0.5441	0.5326	0.4604
5.23	-9.4905	-0.0501	-1.4530	0.0031	-0.0061	0.0189	8.2994	-18.1746	21.3017	0.4563	-0.5441	0.5326	0.4605
5.24	-9.5029	-0.0578	-1.4674	0.0035	-0.0032	0.0106	8.2936	-18.2485	21.3156	0.4563	-0.5441	0.5326	0.4604
5.25	-9.5050	-0.0656	-1.4602	0.0073	-0.0078	0.0224	8.1907	-18.0686	21.2302	0.4563	-0.5441	0.5326	0.4604
5.26	-9.4938	-0.0659	-1.4569	0.0047	-0.0052	0.0134	8.2692	-18.0505	21.0896	0.4563	-0.5441	0.5327	0.4604
5.27	-9.5069	-0.0666	-1.4559	0.0112	-0.0070	0.0185	8.3341	-18.0955	21.4290	0.4563	-0.5441	0.5326	0.4604
5.28	-9.5041	-0.0645	-1.4629	0.0007	-0.0075	0.0184	8.1458	-18.2943	21.3469	0.4563	-0.5441	0.5327	0.4605
5.29	-9.4951	-0.0625	-1.4628	0.0072	0.0028	0.0137	8.0679	-18.2273	21.2945	0.4563	-0.5441	0.5327	0.4604
5.3	-9.5036	-0.0628	-1.4624	0.0099	0.0026	0.0137	8.1671	-18.0968	21.5060	0.4564	-0.5442	0.5327	0.4604
5.31	-9.4938	-0.0575	-1.4645	0.0055	-0.0053	0.0177	8.0406	-18.2357	21.2681	0.4563	-0.5441	0.5327	0.4603
5.32	-9.4910	-0.0598	-1.4695	-0.0003	-0.0096	0.0154	8.1596	-18.1254	21.3092	0.4563	-0.5441	0.5327	0.4604
5.33	-9.4997	-0.0599	-1.4723	-0.0011	-0.0117	0.0132	8.2969	-18.2708	21.4494	0.4563	-0.5441	0.5327	0.4604
5.34	-9.4995	-0.0645	-1.4744	0.0000	-0.0095	0.0203	8.2109	-18.1195	21.5474	0.4563	-0.5441	0.5326	0.4604
5.35	-9.4923	-0.0595	-1.4644	-0.0029	-0.0100	0.0093	8.2209	-18.1432	21.5712	0.4564	-0.5442	0.5327	0.4605
5.36	-9.5144	-0.0576	-1.4743	-0.0036	-0.0109	0.0175	8.1724	-18.3959	21.5345	0.4563	-0.5441	0.5326	0.4604
5.37	-9.5118	-0.0691	-1.4725	0.0039	-0.0089	0.0221	8.3481	-18.1108	21.3925	0.4564	-0.5442	0.5326	0.4605
5.38	-9.4902	-0.0644	-1.4580	-0.0022	-0.0095	0.0211	8.3783	-18.3147	21.3732	0.4563	-0.5441	0.5325	0.4605
5.39	-9.5059	-0.0558	-1.4610	0.0012	-0.0054	0.0154	8.3978	-18.2629	21.4138	0.4563	-0.5441	0.5326	0.4605
5.4	-9.5043	-0.0592	-1.4595	0.0047	-0.0071	0.0189	8.4482	-18.2348	21.3298	0.4563	-0.5441	0.5326	0.4605
5.41	-9.4969	-0.0573	-1.4498	0.0012	-0.0068	0.0221	8.2892	-18.3376	21.2853	0.4563	-0.5441	0.5326	0.4605
5.42	-9.4949	-0.0606	-1.4573	0.0049	-0.0061	0.0194	8.2074	-18.1899	21.3861	0.4563	-0.5441	0.5326	0.4606
5.43	-9.5097	-0.0578	-1.4571	0.0014	-0.0030	0.0201	8.1119	-18.2364	21.4079	0.4563	-0.5441	0.5326	0.4605
5.44	-9.4944	-0.0428	-1.4592	0.0098	0.0005	0.0167	8.3305	-18.2045	21.5074	0.4563	-0.5441	0.5327	0.4605
5.45	-9.4919	-0.0488	-1.4537	0.0104	0.0016	0.0200	8.1780	-18.2401	21.3825	0.4562	-0.5440	0.5326	0.4604
5.46	-9.5026	-0.0437	-1.4498	0.0014	-0.0051	0.0210	8.3648	-17.9879	21.2548	0.4563	-0.5441	0.5327	0.4605
5.47	-9.5010	-0.0493	-1.4562	0.0003	-0.0078	0.0215	8.3145	-18.1426	21.2098	0.4562	-0.5440	0.5327	0.4605
5.48	-9.4932	-0.0598	-1.4578	-0.0018	-0.0103	0.0146	8.1152	-18.2778	21.4211	0.4563	-0.5441	0.5327	0.4605
5.49	-9.4938	-0.0608	-1.4615	-0.0042	-0.0054	0.0180	8.1340	-18.0767	21.2500	0.4562	-0.5441	0.5326	0.4606
5.5	-9.4999	-0.0568	-1.4655	0.0047	-0.0067	0.0148	8.1586	-18.3362	21.4735	0.4562	-0.5441	0.5327	0.4606
5.51	-9.4924	-0.0658	-1.4610	-0.0051	-0.0037	0.0150	8.2314	-18.1600	21.3973	0.4562	-0.5441	0.5326	0.4606
5.52	-9.4967	-0.0711	-1.4620	0.0014	-0.0042	0.0120	8.2095	-18.2047	21.4525	0.4562	-0.5441	0.5326	0.4605
5.53	-9.5018	-0.0702	-1.4732	0.0027	-0.0028	0.0168	8.2003	-18.3024	21.4825	0.4562	-0.5442	0.5327	0.4606
5.54	-9.4997	-0.0609	-1.4687	0.0038	-0.0052	0.0187	8.2569	-18.0766	21.3239	0.4562	-0.5441	0.5326	0.4606
5.55	-9.4953	-0.0595	-1.4621	0.0076	-0.0019	0.0169	8.3050	-18.1668	21.4797	0.4562	-0.5442	0.5327	0.4606
5.56	-9.4981	-0.0687	-1.4618	0.0084	-0.0075	0.0190	8.2878	-18.1095	21.4625	0.4562	-0.5441	0.5326	0.4605
5.57	-9.4988	-0.0602	-1.4655	0.0023	-0.0074	0.0141	8.3933	-18.2657	21.3693	0.4562	-0.5441	0.5327	0.4605
5.58	-9.5024	-0.0539	-1.4639	0.0075	-0.0072	0.0137	8.2072	-18.3161	21.2108	0.4563	-0.5441	0.5327	0.4605
5.59	-9.4966	-0.0526	-1.4642	0.0061	-0.0036	0.0230	8.2837	-18.2738	21.2697	0.4562	-0.5440	0.5326	0.4605
5.6	-9.5037	-0.0522	-1.4660	0.0027	-0.0020	0.0218	8.3183	-18.4274	21.5208	0.4563	-0.5441	0.5327	0.4606
5.61	-9.5021	-0.0540	-1.4592	0.0064	-0.0050	0.0200	8.2395	-18.1774	21.4403	0.4562	-0.5440	0.5327	0.4605
5.62	-9.5021	-0.0533	-1.4701	0.0066	-0.0100	0.0178	8.2468	-18.1711	21.2947	0.4563	-0.5441	0.5328	0.4606
5.63	-9.4867	-0.0471	-1.4631	0.0046	-0.0074	0.0190	8.4163	-18.3081	21.3003	0.4562	-0.5440	0.5327	0.4605
5.64	-9.4979	-0.0419	-1.4660	0.0121	0.0051	0.0159	8.1296	-18.3170	21.5083	0.4562	-0.5440	0.5328	0.4605
5.65	-9.5074	-0.0540	-1.4652	0.0137	-0.0028	0.0195	8.3420	-18.3967	21.6404	0.4562	-0.5440	0.5328	0.4605
5.66	-9.5002	-0.0550	-1.4668	0.0019	-0.0052	0.0185	8.5840	-18.1084	21.6028	0.4562	-0.5440	0.5328	0.4605
5.67	-9.5055	-0.0528	-1.4568	-0.0092	0.0018	0.0126	8.3996	-18.1489	21.3431	0.4562	-0.5440	0.5328	0.4605
5.68	-9.5058	-0.0523	-1.4667	-0.0045	0.0025	0.0133	8.4460	-17.9080	21.5587	0.4562	-0.5441	0.5328	0.4605
5.69	-9.4855	-0.0582	-1.4546	0.0051	-0.0018	0.0128	8.2768	-17.9569	21.4805	0.4562	-0.5441	0.5328	0.4605
5.7	-9.4977	-0.0640	-1.4507	-0.0019	0.0004	0.0113	8.1887	-18.0174	21.4763	0.4561	-0.5441	0.5327	0.4604
5.71	-9.5100	-0.0591	-1.4628	-0.0026	-0.0025	0.0152	8.3757	-18.0629	21.3330	0.4561	-0.5442	0.5328	0.4604
5.72	-9.4977	-0.0575	-1.4608	-0.0023	0.0050	0.0072	8.0577	-18.0412	21.4378	0.4561	-0.5442	0.5327	0.4604
5.73	-9.4929	-0.0641	-1.4611	-0.0059	-0.0018	0.0130	8.1854	-18.1200	21.4131	0.4561	-0.5443	0.5327	0.4604
5.74	-9.4974	-0.0658	-1.4563	0.0074	-0.0056	0.0103	8.2577	-18.2244	21.2588	0.4561	-0.5443	0.5327	0.4604
5.75	-9.5071	-0.0674	-1.4573	0.0005	-0.0056	0.0159	8.4153	-18.3445	21.3172	0.4561	-0.5443	0.5327	0.4604
5.76	-9.4923	-0.0694	-1.4639	-0.0027	-0.0069	0.0148	8.3839	-18.3873	21.2705	0.4561	-0.5443	0.5327	0.4604
5.77	-9.4955	-0.0765	-1.4640	0.0008	-0.0021	0.0103	8.3275	-18.3919	21.3888	0.4561	-0.5443	0.5326	0.4603
5.78	-9.5073	-0.0813	-1.4719	0.0005	-0.0039	0.0136	8.3567	-18.2641	21.3763	0.4561	-0.5444	0.5327	0.4604
5.79	-9.4952	-0.0717	-1.4635	0.0032	-0.0034	0.0106	8.2108	-18.2260	21.2419	0.4561	-0.5443	0.5326	0.4604
5.8	-9.5017	-0.0761	-1.4651	0.0032	0.0006	0.0160	8.3731	-18.3923	21.3877	0.4561	-0.5444	0.5327	0.4604
5.81	-9.5154	-0.0634	-1.4662	0.0028	-0.0019	0.0172	8.2395	-18.3857	21.3745	0.4561	-0.5443	0.5326	0.4603
5.82	-9.4933	-0.0517	-1.4638	-0.0062	-0.0003	0.0065	8.2013	-18.2640	21.3933	0.4561	-0.5444	0.5326	0.4603
5.83	-9.4914	-0.0486	-1.4601	0.0013	-0.0044	0.0162	8.2728	-18.1902	21.1339	0.4561	-0.5444	0.5326	0.4603
5.84	-9.5092	-0.0462	-1.4687	0.0011	-0.0081	0.0196	8.0639	-18.3055	21.2175	0.4560	-0.5444	0.5326	0.4603
5.85	-9.5075	-0.0409	-1.4708	-0.0046	-0.0027	0.0171	8.2321	-18.2239	21.5599	0.4561	-0.5445	0.5327	0.4604
5.86	-9.4932	-0.0540	-1.4644	0.0054	-0.0037	0.0164	8.1043	-18.1918	21.4726	0.4560	-0.5444	0.5326	0.4603
5.87	-9.5008	-0.0526	-1.4692	0.0027	0.0030	0.0058	7.9748	-18.1080	21.3028	0.4560	-0.5445	0.5326	0.4603
5.88	-9.5006	-0.0476	-1.4669	0.0018	-0.0035	0.0107	8.1375	-18.2436	21.5826	0.4560	-0.5445	0.5326	0.4603
5.89	-9.4971	-0.0528	-1.4575	-0.0036	-0.0066	0.0133	7.9557	-18.1022	21.4096	0.4560	-0.5446	0.5326	0.4603
5.9	-9.5008	-0.0624	-1.4662	-0.0004	-0.0019	0.0095	8.1506	-18.1987	21.5232	0.4560	-0.5446	0.5326	0.4603
5.91	-9.5016	-0.0582	-1.4687	0.0081	0.0015	0.0146	8.3988	-18.2331	21.5760	0.4560	-0.5446	0.5326	0.4602
5.92	-9.5006	-0.0633	-1.4625	0.0062	-0.0009	0.0134	8.1282	-18.1189	21.4377	0.4560	-0.5446	0.5326	0.4602
5.93	-9.5037	-0.0661	-1.4627	0.0096	-0.0042	0.0174	8.1212	-18.4043	21.4841	0.4560	-0.5446	0.5326	0.4602
5.94	-9.4952	-0.0557	-1.4587	0.0093	-0.0053	0.0215	8.4385	-18.3168	21.4269	0.4561	-0.5446	0.5326	0.4602
5.95	-9.4988	-0.0462	-1.4661	0.0114	0.0021	0.0126	8.3530	-18.2866	21.2576	0.4560	-0.5445	0.5326	0.4601
5.96	-9.5040	-0.0559	-1.4728	0.0044	-0.0039	0.0078	8.2382	-18.3102	21.5414	0.4561	-0.5446	0.5327	0.4601
5.97	-9.5070	-0.0579	-1.4761	0.0035	-0.0003	0.0131	8.2917	-18.2897	21.3531	0.4561	-0.5446	0.5326	0.4601
5.98	-9.5071	-0.0611	-1.4666	0.0047	-0.0046	0.0118	8.4514	-18.3447	21.3010	0.4561	-0.5446	0.5326	0.4601
5.99	-9.5011	-0.0587	-1.4613	0.0012	-0.0045	0.0161	8.3156	-18.5119	21.6463	0.4561	-0.5446	0.5326	0.4601
6	-9.4956	-0.0605	-1.4668	-0.0015	-0.0082	0.0137	8.2705	-18.2762	21.3252	0.4561	-0.5446	0.5326	0.4601
6.01	-9.5036	-0.0615	-1.4714	-0.0024	-0.0011	0.0125	8.3959	-18.2570	21.3634	0.4561	-0.5447	0.5326	0.4601
6.02	-9.4915	-0.0666	-1.4609	-0.0008	0.0009	0.0161	8.2397	-18.6231	21.3048	0.4560	-0.5447	0.5326	0.4601
6.03	-9.5021	-0.0610	-1.4531	0.0011	-0.0045	0.0154	8.3887	-18.1964	21.3110	0.4561	-0.5447	0.5326	0.4601
6.04	-9.5038	-0.0553	-1.4694	0.0045	0.0000	0.0091	8.1540	-18.0027	21.3570	0.4560	-0.5447	0.5326	0.4601
6.05	-9.4945	-0.0451	-1.4567	0.0035	0.0000	0.0115	8.2991	-18.1340	21.2511	0.4561	-0.5448	0.5326	0.4601
6.06	-9.4916	-0.0500	-1.4646	0.0066	0.0019	0.0117	8.0682	-18.1478	21.3019	0.4560	-0.5447	0.5326	0.4600
6.07	-9.5070	-0.0532	-1.4658	0.0089	0.0006	0.0067	8.0616	-18.1228	21.3894	0.4561	-0.5448	0.5326	0.4600
6.08	-9.4990	-0.0422	-1.4504	0.0035	-0.0012	0.0114	8.2198	-18.0134	21.5110	0.4561	-0.5448	0.5326	0.4599
6.09	-9.5029	-0.0521	-1.4594	0.0071	-0.0069	0.0154	8.1746	-18.1507	21.3365	0.4561	-0.5448	0.5326	0.4599
6.1	-9.5023	-0.0565	-1.4601	0.0016	-0.0006	0.0149	8.1726	-18.1234	21.5129	0.4561	-0.5449	0.5326	0.4599
6.11	-9.4957	-0.0475	-1.4559	0.0013	-0.0011	0.0160	7.9688	-18.1849	21.5058	0.4561	-0.5448	0.5326	0.4599
6.12	-9.5010	-0.0669	-1.4526	0.0055	-0.0114	0.0168	8.3044	-18.4429	21.2520	0.4561	-0.5449	0.5326	0.4599
6.13	-9.4993	-0.0668	-1.4496	0.0107	-0.0104	0.0135	8.5324	-18.1665	21.4048	0.4561	-0.5448	0.5325	0.4599
6.14	-9.5086	-0.0583	-1.4634	0.0042	-0.0048	0.0107	8.5758	-18.3691	21.3676	0.4561	-0.5448	0.5326	0.4599
6.15	-9.4940	-0.0631	-1.4653	0.0060	-0.0041	0.0095	8.4916	-18.4729	21.4318	0.4562	-0.5448	0.5326	0.4599
6.16	-9.5008	-0.0715	-1.4607	0.0062	-0.0031	0.0170	8.7574	-18.2053	21.5532	0.4561	-0.5448	0.5326	0.4598
6.17	-9.4975	-0.0654	-1.4652	0.0121	-0.0103	0.0206	8.7340	-18.1147	21.6709	0.4562	-0.5448	0.5326	0.4599
6.18	-9.4904	-0.0590	-1.4635	0.0048	-0.0048	0.0105	8.5366	-17.9907	21.3796	0.4562	-0.5448	0.5326	0.4598
6.19	-9.4968	-0.0594	-1.4680	0.0117	-0.0036	0.0126	8.4236	-17.8947	21.4178	0.4562	-0.5448	0.5326	0.4598
6.2	-9.4913	-0.0574	-1.4531	0.0101	-0.0083	0.0141	8.1425	-18.0005	21.3017	0.4562	-0.5447	0.5325	0.4597
6.21	-9.5066	-0.0662	-1.4713	0.0098	-0.0103	0.0106	8.2825	-18.2605	21.3285	0.4563	-0.5448	0.5326	0.4598
6.22	-9.5060	-0.0588	-1.4773	0.0033	-0.0076	0.0124	8.2849	-18.1930	21.2637	0.4563	-0.5448	0.5326	0.4598
6.23	-9.4913	-0.0608	-1.4682	0.0017	-0.0065	0.0160	8.1906	-18.2364	21.4765	0.4563	-0.5448	0.5326	0.4598
6.24	-9.5027	-0.0600	-1.4746	0.0033	-0.0124	0.0177	8.3345	-18.1121	21.4724	0.4563	-0.5447	0.5325	0.4598
6.25	-9.4958	-0.0655	-1.4630	-0.0008	-0.0059	0.0164	8.1694	-18.2674	21.4097	0.4563	-0.5447	0.5325	0.4598
6.26	-9.5080	-0.0583	-1.4659	0.0018	-0.0085	0.0146	8.1361	-18.3033	21.6986	0.4564	-0.5448	0.5325	0.4598
6.27	-9.5006	-0.0575	-1.4664	0.0068	-0.0058	0.0121	8.1362	-18.0020	21.5674	0.4563	-0.5447	0.5325	0.4598
6.28	-9.4983	-0.0611	-1.4631	0.0056	0.0007	0.0139	8.2460	-18.2049	21.4456	0.4564	-0.5448	0.5325	0.4598
6.29	-9.4997	-0.0521	-1.4627	0.0152	-0.0037	0.0098	8.2053	-18.2867	21.5559	0.4564	-0.5447	0.5325	0.4597
6.3	-9.4864	-0.0550	-1.4539	0.0034	-0.0106	0.0173	8.2861	-18.1861	21.5210	0.4565	-0.5448	0.5326	0.4598
6.31	-9.4995	-0.0477	-1.4633	0.0017	-0.0018	0.0205	8.3333	-18.2286	21.3902	0.4564	-0.5447	0.5325	0.4597
6.32	-9.5033	-0.0499	-1.4573	0.0119	-0.0097	0.0184	8.1661	-18.0986	21.3669	0.4564	-0.5447	0.5325	0.4597
6.33	-9.5027	-0.0510	-1.4547	0.0032	-0.0115	0.0168	8.3492	-18.1730	21.3120	0.4565	-0.5447	0.5325	0.4598
6.34	-9.5038	-0.0570	-1.4564	0.0063	-0.0058	0.0215	8.4081	-18.3075	21.5366	0.4564	-0.5446	0.5325	0.4597
6.35	-9.5086	-0.0595	-1.4526	0.0039	-0.0129	0.0176	8.2968	-18.2783	21.3484	0.4565	-0.5447	0.5326	0.4598
6.36	-9.4961	-0.0556	-1.4524	0.0101	-0.0069	0.0175	8.1665	-18.2116	21.4665	0.4565	-0.5446	0.5325	0.4598
6.37	-9.5030	-0.0615	-1.4467	0.0053	-0.0050	0.0149	8.1811	-18.1695	21.4360	0.4565	-0.5446	0.5326	0.4598
6.38	-9.5048	-0.0527	-1.4541	0.0116	-0.0059	0.0197	8.3347	-18.0968	21.2935	0.4565	-0.5445	0.5325	0.4597
6.39	-9.4985	-0.0384	-1.4472	0.0151	-0.0035	0.0223	8.2979	-18.2713	21.3044	0.4566	-0.5445	0.5326	0.4597
6.4	-9.4953	-0.0428	-1.4561	0.0042	-0.0100	0.0214	8.3217	-18.2917	21.3580	0.4566	-0.5445	0.5326	0.4598
6.41	-9.4940	-0.0377	-1.4551	-0.0046	-0.0052	0.0138	8.2953	-18.3101	21.4257	0.4565	-0.5445	0.5326	0.4598
6.42	-9.5031	-0.0385	-1.4604	0.0052	-0.0096	0.0123	8.3276	-18.2733	21.3779	0.4566	-0.5445	0.5326	0.4598
6.43	-9.5064	-0.0423	-1.4732	0.0047	-0.0053	0.0143	8.2756	-18.0973	21.4325	0.4566	-0.5445	0.5326	0.4598
6.44	-9.5002	-0.0458	-1.4598	0.0018	-0.0077	0.0111	8.3803	-18.1408	21.7219	0.4566	-0.5445	0.5326	0.4598
6.45	-9.4990	-0.0549	-1.4649	-0.0003	-0.0075	0.0100	8.3166	-18.1329	21.4519	0.4566	-0.5445	0.5325	0.4597
6.46	-9.5044	-0.0487	-1.4689	-0.0002	-0.0044	0.0101	8.1107	-18.1193	21.4136	0.4566	-0.5446	0.5325	0.4598
6.47	-9.4885	-0.0541	-1.4644	0.0044	-0.0073	0.0124	8.0119	-18.0317	21.6232	0.4566	-0.5446	0.5325	0.4598
6.48	-9.4944	-0.0608	-1.4658	0.0017	-0.0075	0.0223	8.2255	-18.0987	21.4864	0.4566	-0.5446	0.5325	0.4598
6.49	-9.5040	-0.0697	-1.4768	0.0031	-0.0072	0.0180	8.1395	-18.2743	21.3785	0.4566	-0.5445	0.5325	0.4598
6.5	-9.5081	-0.0634	-1.4862	0.0016	-0.0084	0.0192	8.0645	-18.0055	21.4163	0.4566	-0.5445	0.5325	0.4598
6.51	-9.4981	-0.0688	-1.4728	0.0033	-0.0053	0.0206	8.3672	-18.2615	21.5131	0.4566	-0.5445	0.5325	0.4598
6.52	-9.4904	-0.0688	-1.4640	0.0067	-0.0104	0.0170	8.1845	-18.5098	21.4808	0.4566	-0.5445	0.5325	0.4598
6.53	-9.5060	-0.0662	-1.4685	-0.0008	-0.0110	0.0145	8.2830	-18.3579	21.3975	0.4567	-0.5445	0.5325	0.4599
6.54	-9.5024	-0.0641	-1.4671	0.0025	-0.0051	0.0204	8.5267	-18.4815	21.4081	0.4566	-0.5445	0.5325	0.4599
6.55	-9.5039	-0.0584	-1.4799	0.0109	-0.0020	0.0102	8.1977	-18.2627	21.4049	0.4567	-0.5445	0.5325	0.4599
6.56	-9.5034	-0.0589	-1.4681	0.0015	-0.0097	0.0202	8.3317	-18.3273	21.3857	0.4567	-0.5444	0.5324	0.4598
6.57	-9.5017	-0.0438	-1.4634	-0.0004	-0.0103	0.0224	8.1758	-18.2542	21.5424	0.4567	-0.5444	0.5325	0.4599
6.58	-9.4947	-0.0388	-1.4621	0.0121	-0.0116	0.0210	8.3051	-18.2291	21.5526	0.4567	-0.5444	0.5325	0.4599
6.59	-9.5019	-0.0378	-1.4617	0.0042	-0.0069	0.0193	8.2397	-18.4195	21.3697	0.4567	-0.5443	0.5325	0.4599
6.6	-9.4963	-0.0334	-1.4669	0.0016	-0.0107	0.0121	8.2228	-18.1650	21.5208	0.4568	-0.5444	0.5325	0.4600
6.61	-9.5058	-0.0403	-1.4643	0.0087	-0.0099	0.0186	8.0916	-18.2749	21.4299	0.4568	-0.5443	0.5325	0.4599
6.62	-9.5082	-0.0445	-1.4623	-0.0072	-0.0029	0.0139	8.2981	-18.3001	21.1708	0.4568	-0.5444	0.5325	0.4600
6.63	-9.5041	-0.0346	-1.4627	-0.0031	-0.0103	0.0123	8.2596	-18.3030	21.4273	0.4567	-0.5443	0.5324	0.4599
6.64	-9.5029	-0.0294	-1.4604	-0.0014	-0.0095	0.0119	7.8812	-18.2852	21.4715	0.4568	-0.5444	0.5324	0.4600
6.65	-9.4973	-0.0338	-1.4490	-0.0005	-0.0097	0.0149	8.1446	-18.1948	21.5324	0.4568	-0.5444	0.5323	0.4600
6.66	-9.4992	-0.0405	-1.4581	0.0055	-0.0101	0.0151	8.5765	-18.2265	21.5917	0.4568	-0.5444	0.5323	0.4600
6.67	-9.4973	-0.0501	-1.4540	0.0027	-0.0096	0.0155	8.5994	-18.1076	21.5748	0.4568	-0.5444	0.5323	0.4601
6.68	-9.4944	-0.0644	-1.4589	0.0098	-0.0056	0.0186	8.5304	-18.1907	21.6665	0.4568	-0.5443	0.5323	0.4600
6.69	-9.5100	-0.0699	-1.4594	0.0007	-0.0066	0.0116	8.4190	-18.2852	21.3558	0.4568	-0.5444	0.5323	0.4601
6.7	-9.5064	-0.0810	-1.4552	0.0028	-0.0127	0.0143	8.2709	-18.3183	21.2863	0.4568	-0.5443	0.5322	0.4600
6.71	-9.4980	-0.0869	-1.4600	-0.0018	-0.0093	0.0135	8.4295	-18.2595	21.3115	0.4569	-0.5444	0.5323	0.4601
6.72	-9.5023	-0.0856	-1.4682	0.0070	-0.0026	0.0148	8.4446	-18.2814	21.2705	0.4569	-0.5443	0.5323	0.4601
6.73	-9.5049	-0.0741	-1.4770	0.0021	-0.0073	0.0160	8.2743	-18.2532	21.3760	0.4569	-0.5444	0.5323	0.4601
6.74	-9.4906	-0.0699	-1.4627	0.0018	-0.0067	0.0189	8.1704	-18.3879	21.3821	0.4569	-0.5443	0.5322	0.4601
6.75	-9.4919	-0.0577	-1.4652	0.0082	-0.0057	0.0132	8.2461	-18.1998	21.2628	0.4569	-0.5443	0.5323	0.4601
6.76	-9.5069	-0.0600	-1.4747	0.0079	-0.0027	0.0130	8.1731	-18.2458	21.3079	0.4569	-0.5443	0.5323	0.4601
6.77	-9.5151	-0.0636	-1.4765	0.0074	-0.0066	0.0200	8.3848	-18.2817	21.2715	0.4569	-0.5443	0.5322	0.4600
6.78	-9.4938	-0.0616	-1.4680	0.0005	-0.0067	0.0140	8.1050	-18.2842	21.4173	0.4569	-0.5443	0.5323	0.4601
6.79	-9.4983	-0.0626	-1.4748	0.0062	-0.0057	0.0150	8.2404	-17.9609	21.4608	0.4569	-0.5443	0.5322	0.4601
6.8	-9.5163	-0.0619	-1.4894	-0.0002	-0.0029	0.0154	8.2110	-18.0370	21.2212	0.4570	-0.5444	0.5323	0.4601
6.81	-9.5005	-0.0535	-1.4787	0.0110	-0.0027	0.0109	8.0787	-18.3274	21.0857	0.4569	-0.5443	0.5322	0.4600
6.82	-9.4928	-0.0474	-1.4661	-0.0003	-0.0022	0.0096	7.9984	-18.1356	21.3762	0.4570	-0.5443	0.5322	0.4600
6.83	-9.5049	-0.0497	-1.4839	0.0025	0.0033	0.0059	8.0154	-18.1112	21.4993	0.4570	-0.5444	0.5322	0.4600
6.84	-9.4988	-0.0470	-1.4721	0.0029	-0.0018	0.0110	7.9883	-18.1199	21.3682	0.4569	-0.5444	0.5322	0.4599
6.85	-9.4786	-0.0606	-1.4631	0.0039	-0.0049	0.0167	8.2131	-18.1034	21.2735	0.4570	-0.5444	0.5323	0.4600
6.86	-9.5128	-0.0415	-1.4813	0.0036	-0.0018	0.0082	8.2506	-18.1292	21.4377	0.4570	-0.5444	0.5322	0.4599
6.87	-9.5157	-0.0397	-1.4681	0.0041	-0.0087	0.0165	8.0906	-18.3002	21.2363	0.4570	-0.5444	0.5322	0.4600
6.88	-9.4820	-0.0428	-1.4544	0.0042	-0.0091	0.0134	8.4750	-18.5669	21.1842	0.4570	-0.5444	0.5321	0.4599
6.89	-9.5007	-0.0324	-1.4605	0.0031	-0.0022	0.0121	8.4486	-18.3501	21.3600	0.4570	-0.5444	0.5322	0.4599
6.9	-9.5148	-0.0412	-1.4530	0.0009	-0.0029	0.0168	8.3019	-18.2718	21.3768	0.4570	-0.5444	0.5322	0.4599
6.91	-9.4857	-0.0540	-1.4542	0.0046	-0.0040	0.0196	8.3312	-18.1960	21.3949	0.4570	-0.5444	0.5322	0.4599
6.92	-9.4917	-0.0601	-1.4530	0.0028	-0.0057	0.0134	8.3584	-18.2018	21.3515	0.4570	-0.5444	0.5322	0.4600
6.93	-9.5059	-0.0589	-1.4598	0.0012	0.0012	0.0146	8.2594	-18.2691	21.3120	0.4570	-0.5444	0.5322	0.4599
6.94	-9.5010	-0.0685	-1.4662	-0.0049	0.0003	0.0136	8.1719	-18.1530	21.4006	0.4570	-0.5445	0.5322	0.4599
6.95	-9.5026	-0.0666	-1.4539	0.0030	-0.0013	0.0120	8.3800	-18.2790	21.3668	0.4569	-0.5444	0.5321	0.4599
6.96	-9.5026	-0.0676	-1.4646	-0.0016	-0.0039	0.0123	8.1031	-18.2911	21.4865	0.4570	-0.5445	0.5321	0.4599
6.97	-9.5055	-0.0696	-1.4804	0.0008	-0.0037	0.0068	8.2248	-18.2303	21.4605	0.4570	-0.5445	0.5321	0.4599
6.98	-9.4950	-0.0728	-1.4708	0.0051	0.0019	0.0086	8.0561	-18.1839	21.4556	0.4570	-0.5446	0.5321	0.4599
6.99	-9.4928	-0.0611	-1.4698	0.0026	-0.0021	0.0111	8.2114	-18.1935	21.4805	0.4570	-0.5446	0.5321	0.4598
7	-9.5125	-0.0585	-1.4696	0.0041	-0.0016	0.0135	8.0952	-18.2128	21.4220	0.4570	-0.5446	0.5321	0.4598
7.01	-9.5055	-0.0609	-1.4782	0.0014	-0.0020	0.0106	8.0117	-18.3226	21.3741	0.4570	-0.5446	0.5321	0.4598
7.02	-9.4994	-0.0554	-1.4678	-0.0025	-0.0080	0.0094	8.2136	-18.1821	21.3037	0.4570	-0.5446	0.5320	0.4598
7.03	-9.5097	-0.0578	-1.4737	-0.0016	-0.0074	0.0113	8.0546	-18.1094	21.1716	0.4570	-0.5447	0.5320	0.4599
7.04	-9.5031	-0.0415	-1.4741	0.0001	-0.0052	0.0105	8.2700	-18.1016	21.3643	0.4570	-0.5447	0.5320	0.4598
7.05	-9.4988	-0.0414	-1.4584	0.0036	-0.0067	0.0185	8.1781	-18.1545	21.3875	0.4571	-0.5447	0.5320	0.4599
7.06	-9.5104	-0.0358	-1.4716	0.0085	-0.0108	0.0119	8.1676	-18.3788	21.2905	0.4570	-0.5446	0.5319	0.4598
7.07	-9.5116	-0.0376	-1.4743	0.0085	-0.0156	0.0104	8.3908	-18.4565	21.2928	0.4571	-0.5446	0.5319	0.4599
7.08	-9.4974	-0.0369	-1.4564	0.0013	-0.0098	0.0171	8.4382	-18.4151	21.3206	0.4571	-0.5446	0.5319	0.4599
7.09	-9.4963	-0.0343	-1.4546	0.0007	-0.0058	0.0110	8.3389	-18.4700	21.2148	0.4571	-0.5446	0.5319	0.4599
7.1	-9.5125	-0.0453	-1.4621	0.0020	-0.0055	0.0137	8.2565	-18.3020	21.2027	0.4572	-0.5447	0.5319	0.4599
7.11	-9.4940	-0.0566	-1.4624	0.0060	-0.0080	0.0074	8.2245	-18.3223	21.3450	0.4572	-0.5446	0.5318	0.4599
7.12	-9.4930	-0.0496	-1.4536	0.0113	-0.0070	0.0114	8.1468	-18.3172	21.2025	0.4573	-0.5447	0.5319	0.4599
7.13	-9.5051	-0.0595	-1.4623	0.0082	-0.0031	0.0145	8.2641	-18.2435	21.2045	0.4572	-0.5446	0.5318	0.4598
7.14	-9.5002	-0.0548	-1.4678	0.0050	0.0034	0.0100	8.2594	-18.5040	21.4199	0.4573	-0.5447	0.5319	0.4598
7.15	-9.4884	-0.0614	-1.4678	0.0079	0.0006	0.0119	8.3863	-18.3638	21.3876	0.4573	-0.5447	0.5319	0.4598
7.16	-9.5021	-0.0510	-1.4652	0.0069	0.0016	0.0062	8.4728	-18.0402	21.6422	0.4573	-0.5447	0.5319	0.4597
7.17	-9.5226	-0.0587	-1.4751	0.0042	0.0041	0.0094	8.5766	-17.9067	21.6486	0.4573	-0.5447	0.5319	0.4597
7.18	-9.4909	-0.0540	-1.4626	0.0057	-0.0027	0.0139	8.5258	-18.1199	21.5919	0.4573	-0.5447	0.5319	0.4597
7.19	-9.4943	-0.0642	-1.4627	0.0051	-0.0062	0.0161	8.2786	-18.0724	21.4492	0.4573	-0.5447	0.5319	0.4597
7.2	-9.5178	-0.0697	-1.4895	0.0033	0.0038	0.0138	8.2575	-18.1573	21.3564	0.4572	-0.5447	0.5318	0.4596
7.21	-9.4968	-0.0730	-1.4735	0.0118	-0.0021	0.0111	8.2025	-18.1438	21.5382	0.4573	-0.5448	0.5319	0.4596
7.22	-9.4856	-0.0630	-1.4700	0.0099	-0.0061	0.0122	7.9850	-18.2823	21.5051	0.4573	-0.5447	0.5319	0.4596
7.23	-9.4988	-0.0563	-1.4883	0.0074	-0.0083	0.0157	8.2173	-18.3063	21.4820	0.4574	-0.5447	0.5319	0.4596
7.24	-9.5102	-0.0633	-1.4677	0.0158	-0.0053	0.0140	8.3142	-18.3709	21.3643	0.4574	-0.5447	0.5319	0.4595
7.25	-9.4869	-0.0564	-1.4545	0.0108	-0.0094	0.0181	8.3164	-18.2892	21.3239	0.4574	-0.5446	0.5319	0.4595
7.26	-9.4893	-0.0527	-1.4677	0.0079	-0.0068	0.0193	8.2610	-18.4544	21.5914	0.4575	-0.5446	0.5319	0.4596
7.27	-9.5197	-0.0653	-1.4673	0.0055	-0.0052	0.0106	8.1796	-18.1828	21.5535	0.4574	-0.5446	0.5319	0.4595
7.28	-9.5052	-0.0608	-1.4624	0.0115	-0.0086	0.0179	8.3700	-18.2532	21.4563	0.4575	-0.5446	0.5320	0.4596
7.29	-9.4843	-0.0676	-1.4501	0.0190	-0.0069	0.0224	8.1993	-18.4180	21.3637	0.4575	-0.5445	0.5320	0.4595
7.3	-9.5012	-0.0669	-1.4588	0.0090	-0.0105	0.0138	8.1664	-18.3458	21.4073	0.4576	-0.5445	0.5320	0.4595
7.31	-9.5069	-0.0593	-1.4514	0.0107	-0.0066	0.0131	8.4229	-18.0746	21.3647	0.4576	-0.5445	0.5319	0.4595
7.32	-9.4897	-0.0604	-1.4493	0.0116	-0.0095	0.0136	8.1585	-18.2181	21.4113	0.4577	-0.5445	0.5320	0.4595
7.33	-9.4886	-0.0598	-1.4481	0.0088	-0.0071	0.0119	8.2963	-18.2721	21.5087	0.4577	-0.5445	0.5320	0.4595
7.34	-9.5068	-0.0572	-1.4555	0.0063	-0.0085	0.0167	8.3166	-18.1965	21.3865	0.4577	-0.5444	0.5319	0.4594
7.35	-9.4989	-0.0623	-1.4437	0.0053	-0.0031	0.0147	8.2117	-18.2075	21.3745	0.4578	-0.5445	0.5320	0.4595
7.36	-9.5005	-0.0556	-1.4514	0.0065	-0.0034	0.0142	8.1045	-18.1372	21.4061	0.4577	-0.5444	0.5320	0.4594
7.37	-9.5038	-0.0553	-1.4574	-0.0005	-0.0049	0.0096	8.0194	-18.0645	21.5427	0.4578	-0.5445	0.5320	0.4595
7.38	-9.4953	-0.0539	-1.4594	0.0073	0.0022	0.0125	8.2310	-18.1347	21.5725	0.4577	-0.5444	0.5319	0.4594
7.39	-9.4857	-0.0624	-1.4465	0.0031	0.0032	0.0160	8.4234	-18.2109	21.5339	0.4577	-0.5445	0.5320	0.4594
7.4	-9.5012	-0.0647	-1.4582	0.0031	0.0016	0.0124	8.3396	-18.1083	21.4548	0.4577	-0.5445	0.5320	0.4594
7.41	-9.5022	-0.0604	-1.4657	0.0069	-0.0039	0.0154	8.2286	-18.1258	21.4791	0.4577	-0.5445	0.5320	0.4594
7.42	-9.4939	-0.0616	-1.4543	0.0135	0.0000	0.0108	8.1381	-18.2496	21.3827	0.4578	-0.5445	0.5320	0.4593
7.43	-9.4951	-0.0674	-1.4610	0.0087	-0.0059	0.0160	8.1424	-18.1574	21.3576	0.4578	-0.5445	0.5320	0.4593
7.44	-9.4989	-0.0676	-1.4647	0.0063	-0.0088	0.0211	8.1788	-18.1910	21.4639	0.4578	-0.5445	0.5320	0.4593
7.45	-9.4972	-0.0592	-1.4666	0.0057	-0.0110	0.0087	8.3329	-18.2050	21.4053	0.4578	-0.5444	0.5319	0.4593
7.46	-9.4898	-0.0583	-1.4650	0.0082	-0.0029	0.0180	8.2835	-18.3522	21.1630	0.4579	-0.5444	0.5320	0.4593
7.47	-9.5052	-0.0581	-1.4802	0.0086	-0.0042	0.0121	8.3687	-18.3193	21.4179	0.4579	-0.5444	0.5320	0.4593
7.48	-9.5021	-0.0601	-1.4774	0.0040	-0.0064	0.0134	8.3531	-18.1063	21.2984	0.4579	-0.5444	0.5320	0.4593
7.49	-9.4907	-0.0641	-1.4659	0.0082	-0.0066	0.0162	8.1130	-18.1401	21.2924	0.4579	-0.5444	0.5320	0.4593
7.5	-9.5100	-0.0570	-1.4831	0.0005	-0.0114	0.0135	8.2786	-18.0338	21.4094	0.4579	-0.5444	0.5320	0.4593
7.51	-9.5094	-0.0590	-1.4864	0.0068	-0.0061	0.0095	8.3299	-18.2220	21.3471	0.4580	-0.5444	0.5320	0.4593
7.52	-9.4877	-0.0585	-1.4674	0.0019	-0.0097	0.0198	8.2293	-18.2110	21.1675	0.4579	-0.5443	0.5319	0.4593
7.53	-9.4969	-0.0591	-1.4591	-0.0021	-0.0113	0.0190	8.2258	-18.2167	21.4610	0.4580	-0.5444	0.5320	0.4594
7.54	-9.5114	-0.0591	-1.4815	-0.0011	-0.0071	0.0127	8.3477	-18.0833	21.5662	0.4579	-0.5444	0.5319	0.4594
7.55	-9.4993	-0.0572	-1.4735	0.0067	-0.0067	0.0159	8.2210	-18.2242	21.3659	0.4580	-0.5444	0.5319	0.4594
7.56	-9.4819	-0.0500	-1.4684	0.0027	-0.0116	0.0162	8.2345	-18.2050	21.3900	0.4580	-0.5443	0.5318	0.4594
7.57	-9.5049	-0.0542	-1.4710	0.0061	-0.0077	0.0162	8.3091	-18.1301	21.5014	0.4580	-0.5443	0.5319	0.4594
7.58	-9.5056	-0.0583	-1.4692	0.0023	-0.0032	0.0166	8.3177	-18.2677	21.6051	0.4580	-0.5443	0.5319	0.4594
7.59	-9.4829	-0.0584	-1.4615	-0.0018	-0.0078	0.0159	8.2188	-18.0995	21.4577	0.4580	-0.5443	0.5318	0.4594
7.6	-9.5050	-0.0605	-1.4666	0.0038	-0.0104	0.0178	8.2411	-18.3482	21.3986	0.4581	-0.5443	0.5319	0.4595
7.61	-9.5200	-0.0607	-1.4730	0.0007	-0.0113	0.0227	8.3155	-18.2363	21.3467	0.4580	-0.5442	0.5318	0.4595
7.62	-9.4992	-0.0738	-1.4661	0.0034	-0.0077	0.0132	8.3544	-18.0169	21.2723	0.4581	-0.5443	0.5319	0.4596
7.63	-9.4943	-0.0621	-1.4575	0.0067	-0.0098	0.0220	8.4228	-18.1310	21.3833	0.4580	-0.5442	0.5318	0.4595
7.64	-9.5087	-0.0612	-1.4769	-0.0032	-0.0063	0.0110	8.1444	-18.4515	21.3074	0.4581	-0.5442	0.5318	0.4596
7.65	-9.4895	-0.0623	-1.4583	0.0063	-0.0030	0.0124	8.3568	-18.3056	21.5956	0.4581	-0.5442	0.5318	0.4595
7.66	-9.4885	-0.0545	-1.4440	0.0026	-0.0156	0.0109	8.6374	-18.2888	21.4850	0.4581	-0.5442	0.5317	0.4596
7.67	-9.5117	-0.0524	-1.4419	0.0055	-0.0071	0.0133	8.6305	-18.2864	21.5609	0.4581	-0.5442	0.5318	0.4596
7.68	-9.5089	-0.0558	-1.4509	0.0062	-0.0095	0.0164	8.5114	-18.1810	21.4220	0.4581	-0.5442	0.5317	0.4596
7.69	-9.4919	-0.0517	-1.4400	0.0056	-0.0127	0.0147	8.4601	-18.3200	21.3626	0.4582	-0.5442	0.5317	0.4596
7.7	-9.4877	-0.0527	-1.4266	0.0043	-0.0123	0.0163	8.3648	-18.4011	21.2246	0.4582	-0.5441	0.5317	0.4596
7.71	-9.5073	-0.0638	-1.4311	-0.0025	-0.0126	0.0122	8.2326	-18.3368	21.1854	0.4582	-0.5442	0.5317	0.4597
7.72	-9.5014	-0.0581	-1.4428	-0.0032	-0.0051	0.0140	8.0869	-18.2337	21.2874	0.4582	-0.5441	0.5316	0.4597
7.73	-9.4976	-0.0537	-1.4458	0.0025	-0.0083	0.0074	7.9306	-18.1081	21.4777	0.4582	-0.5442	0.5316	0.4597
7.74	-9.5049	-0.0629	-1.4604	0.0040	-0.0043	0.0142	8.2310	-18.1914	21.4767	0.4582	-0.5442	0.5316	0.4597
7.75	-9.5015	-0.0581	-1.4622	-0.0057	-0.0080	0.0154	8.0787	-18.3169	21.3180	0.4582	-0.5442	0.5316	0.4597
7.76	-9.4814	-0.0639	-1.4557	-0.0051	0.0008	0.0114	8.0094	-18.2096	21.5285	0.4582	-0.5442	0.5316	0.4597
7.77	-9.4970	-0.0516	-1.4696	0.0017	0.0013	0.0112	8.1930	-18.1796	21.4927	0.4582	-0.5442	0.5315	0.4597
7.78	-9.5055	-0.0490	-1.4667	-0.0012	-0.0028	0.0111	8.0552	-18.2960	21.3579	0.4582	-0.5443	0.5315	0.4597
7.79	-9.4934	-0.0475	-1.4470	0.0011	-0.0019	0.0150	8.2322	-18.2585	21.5377	0.4582	-0.5443	0.5315	0.4597
7.8	-9.5036	-0.0578	-1.4598	0.0106	-0.0058	0.0135	8.0297	-18.0787	21.5986	0.4583	-0.5443	0.5316	0.4597
7.81	-9.5144	-0.0561	-1.4714	0.0090	-0.0027	0.0091	8.2939	-18.2885	21.2630	0.4582	-0.5442	0.5315	0.4596
7.82	-9.4910	-0.0483	-1.4675	0.0025	-0.0052	0.0145	8.2903	-18.5821	21.3429	0.4583	-0.5443	0.5315	0.4597
7.83	-9.4937	-0.0493	-1.4726	-0.0022	0.0001	0.0145	8.2831	-18.2877	21.3997	0.4582	-0.5443	0.5315	0.4597
7.84	-9.4939	-0.0421	-1.4845	0.0096	0.0014	0.0110	8.3321	-18.2530	21.4017	0.4582	-0.5443	0.5315	0.4596
7.85	-9.4869	-0.0514	-1.4825	0.0026	-0.0081	0.0149	8.3525	-18.3786	21.1725	0.4583	-0.5443	0.5315	0.4597
7.86	-9.4933	-0.0431	-1.4712	0.0028	-0.0009	0.0164	8.2576	-18.3215	21.2718	0.4582	-0.5443	0.5315	0.4596
7.87	-9.5057	-0.0444	-1.4758	0.0025	-0.0089	0.0181	8.1357	-18.2346	21.2850	0.4583	-0.5443	0.5315	0.4597
7.88	-9.4979	-0.0587	-1.4756	0.0028	-0.0108	0.0169	8.1674	-18.3924	21.4045	0.4582	-0.5442	0.5314	0.4596
7.89	-9.4856	-0.0700	-1.4624	0.0027	-0.0085	0.0104	8.2889	-18.2014	21.3433	0.4583	-0.5443	0.5315	0.4597
7.9	-9.4978	-0.0617	-1.4651	-0.0007	-0.0062	0.0120	8.1444	-18.2459	21.3379	0.4583	-0.5443	0.5314	0.4597
7.91	-9.5262	-0.0587	-1.4838	-0.0016	-0.0017	0.0130	8.0539	-18.2357	21.6424	0.4583	-0.5443	0.5314	0.4597
7.92	-9.5069	-0.0566	-1.4763	0.0018	-0.0020	0.0146	8.0916	-18.0741	21.1992	0.4583	-0.5443	0.5314	0.4597
7.93	-9.4772	-0.0613	-1.4648	-0.0029	-0.0052	0.0109	8.1104	-18.1444	21.2614	0.4583	-0.5443	0.5314	0.4597
7.94	-9.5054	-0.0663	-1.4739	0.0020	0.0002	0.0102	8.1878	-18.2394	21.4813	0.4583	-0.5444	0.5314	0.4597
7.95	-9.5082	-0.0647	-1.4780	-0.0046	-0.0032	0.0121	8.1448	-18.0089	21.4698	0.4582	-0.5443	0.5313	0.4597
7.96	-9.4917	-0.0599	-1.4505	-0.0011	-0.0071	0.0066	8.1768	-18.0432	21.3399	0.4583	-0.5444	0.5313	0.4597
7.97	-9.4841	-0.0583	-1.4534	-0.0037	-0.0003	0.0129	8.0050	-18.1391	21.2782	0.4583	-0.5444	0.5313	0.4597
7.98	-9.5127	-0.0600	-1.4629	0.0066	-0.0015	0.0117	8.0510	-18.0949	21.2863	0.4583	-0.5445	0.5313	0.4597
7.99	-9.4998	-0.0598	-1.4506	0.0073	-0.0043	0.0164	8.2712	-18.1189	21.3086	0.4583	-0.5444	0.5313	0.4597
8	-9.4777	-0.0519	-1.4320	0.0047	-0.0050	0.0149	8.3535	-18.2075	21.2649	0.4583	-0.5444	0.5313	0.4597
8.01	-9.5084	-0.0554	-1.4547	0.0014	-0.0075	0.0111	8.2710	-18.3524	21.3865	0.4583	-0.5444	0.5313	0.4597
8.02	-9.5074	-0.0611	-1.4452	-0.0010	-0.0080	0.0132	8.2267	-18.3510	21.3590	0.4583	-0.5444	0.5312	0.4597
8.03	-9.4796	-0.0617	-1.4275	0.0089	-0.0006	0.0087	8.2636	-18.2783	21.4519	0.4584	-0.5445	0.5312	0.4597
8.04	-9.4957	-0.0572	-1.4409	0.0087	-0.0032	0.0162	8.3482	-18.3630	21.3806	0.4583	-0.5444	0.5312	0.4597
8.05	-9.5096	-0.0511	-1.4530	-0.0012	-0.0039	0.0163	8.3018	-18.1562	21.3366	0.4584	-0.5445	0.5313	0.4597
8.06	-9.4832	-0.0453	-1.4404	0.0026	-0.0086	0.0127	8.4288	-18.2866	21.4071	0.4583	-0.5444	0.5312	0.4597
8.07	-9.4862	-0.0354	-1.4437	0.0062	-0.0055	0.0101	8.2747	-18.3646	21.1731	0.4584	-0.5444	0.5312	0.4597
8.08	-9.5172	-0.0416	-1.4610	0.0039	-0.0047	0.0126	8.0859	-18.1811	21.3770	0.4584	-0.5445	0.5312	0.4597
8.09	-9.5050	-0.0409	-1.4633	-0.0044	-0.0113	0.0118	8.0710	-18.2678	21.4638	0.4584	-0.5444	0.5311	0.4597
8.1	-9.4749	-0.0423	-1.4573	0.0003	-0.0063	0.0085	8.1886	-18.2850	21.3793	0.4585	-0.5445	0.5311	0.4598
8.11	-9.5050	-0.0549	-1.4663	-0.0040	-0.0014	0.0081	8.1397	-18.2597	21.1119	0.4584	-0.5445	0.5311	0.4597
8.12	-9.5168	-0.0528	-1.4774	-0.0013	-0.0033	0.0080	8.0537	-18.0732	21.1533	0.4584	-0.5446	0.5311	0.4597
8.13	-9.4865	-0.0620	-1.4584	-0.0020	-0.0027	0.0066	8.1912	-17.9033	21.3963	0.4584	-0.5445	0.5309	0.4597
8.14	-9.5055	-0.0578	-1.4774	-0.0040	-0.0025	0.0092	8.0277	-18.0996	21.3574	0.4584	-0.5446	0.5310	0.4597
8.15	-9.5091	-0.0529	-1.4881	0.0024	0.0067	0.0104	8.1980	-18.0652	21.4200	0.4584	-0.5447	0.5310	0.4597
8.16	-9.4984	-0.0550	-1.4683	0.0034	-0.0011	0.0065	8.5059	-17.9973	21.5472	0.4584	-0.5447	0.5309	0.4597
8.17	-9.4986	-0.0631	-1.4690	0.0118	-0.0062	0.0114	8.5464	-18.1112	21.6776	0.4584	-0.5447	0.5309	0.4597
8.18	-9.5029	-0.0588	-1.4724	0.0080	-0.0091	0.0144	8.3892	-18.2095	21.4678	0.4585	-0.5447	0.5309	0.4596
8.19	-9.5045	-0.0636	-1.4801	0.0082	-0.0088	0.0157	8.2616	-18.0646	21.3279	0.4585	-0.5447	0.5309	0.4597
8.2	-9.4796	-0.0699	-1.4630	0.0117	-0.0091	0.0205	8.4225	-18.1851	21.4197	0.4585	-0.5445	0.5309	0.4596
8.21	-9.5032	-0.0619	-1.4604	0.0050	-0.0121	0.0175	8.5870	-18.2077	21.4097	0.4586	-0.5446	0.5310	0.4597
8.22	-9.5176	-0.0563	-1.4897	0.0018	-0.0065	0.0189	8.2382	-18.1560	21.5410	0.4585	-0.5445	0.5309	0.4597
8.23	-9.4885	-0.0590	-1.4568	0.0092	-0.0072	0.0145	8.2436	-18.2794	21.3808	0.4586	-0.5445	0.5309	0.4597
8.24	-9.5011	-0.0607	-1.4686	0.0018	-0.0087	0.0152	8.2089	-18.1086	21.5051	0.4586	-0.5445	0.5309	0.4597
8.25	-9.5129	-0.0626	-1.4676	0.0098	-0.0045	0.0127	8.2762	-18.1842	21.5849	0.4586	-0.5445	0.5309	0.4597
8.26	-9.4868	-0.0663	-1.4514	0.0057	-0.0079	0.0163	8.2754	-18.2595	21.5893	0.4586	-0.5445	0.5309	0.4597
8.27	-9.4878	-0.0723	-1.4540	0.0148	-0.0042	0.0167	8.1963	-18.1344	21.4913	0.4586	-0.5444	0.5309	0.4597
8.28	-9.5182	-0.0712	-1.4611	0.0065	-0.0062	0.0151	8.3563	-18.2494	21.3876	0.4587	-0.5445	0.5310	0.4597
8.29	-9.5112	-0.0542	-1.4644	0.0037	-0.0069	0.0121	8.2615	-18.2050	21.5488	0.4587	-0.5444	0.5309	0.4597
8.3	-9.4808	-0.0503	-1.4502	0.0104	-0.0059	0.0138	8.2082	-18.3078	21.3831	0.4587	-0.5445	0.5310	0.4597
8.31	-9.4979	-0.0503	-1.4523	0.0052	-0.0065	0.0129	8.3406	-18.2430	21.5092	0.4587	-0.5444	0.5309	0.4597
8.32	-9.5123	-0.0538	-1.4782	0.0033	-0.0142	0.0127	8.0587	-18.0906	21.4543	0.4588	-0.5444	0.5309	0.4597
8.33	-9.4894	-0.0546	-1.4586	-0.0002	-0.0053	0.0183	8.1540	-18.0903	21.3688	0.4588	-0.5444	0.5309	0.4597
8.34	-9.4908	-0.0582	-1.4491	-0.0033	-0.0029	0.0132	8.3520	-18.2519	21.4227	0.4587	-0.5444	0.5308	0.4597
8.35	-9.5153	-0.0511	-1.4790	0.0032	0.0002	0.0125	8.1972	-18.1206	21.3771	0.4588	-0.5445	0.5309	0.4598
8.36	-9.4994	-0.0526	-1.4624	-0.0003	-0.0004	0.0204	8.2709	-18.1729	21.4389	0.4587	-0.5444	0.5309	0.4597
8.37	-9.4821	-0.0683	-1.4563	0.0023	-0.0085	0.0182	8.1421	-18.1021	21.5178	0.4587	-0.5445	0.5309	0.4598
8.38	-9.4929	-0.0708	-1.4648	0.0021	-0.0089	0.0202	8.2363	-18.3482	21.3858	0.4587	-0.5444	0.5308	0.4598
8.39	-9.5171	-0.0688	-1.4729	0.0044	-0.0072	0.0184	8.3302	-18.2601	21.4162	0.4587	-0.5444	0.5309	0.4598
8.4	-9.4896	-0.0776	-1.4661	0.0033	0.0000	0.0181	8.3133	-18.2592	21.3884	0.4587	-0.5444	0.5309	0.4598
8.41	-9.4920	-0.0743	-1.4784	0.0019	-0.0093	0.0151	8.2982	-18.0574	21.4258	0.4587	-0.5444	0.5308	0.4598
8.42	-9.5213	-0.0708	-1.4879	0.0068	-0.0047	0.0126	8.4265	-18.1680	21.2738	0.4587	-0.5444	0.5309	0.4598
8.43	-9.4981	-0.0709	-1.4693	0.0026	-0.0121	0.0157	8.3473	-18.3261	21.2608	0.4587	-0.5443	0.5308	0.4599
8.44	-9.4867	-0.0643	-1.4566	0.0043	-0.0091	0.0117	8.1537	-18.1806	21.5308	0.4588	-0.5444	0.5308	0.4599
8.45	-9.5062	-0.0563	-1.4603	0.0059	-0.0066	0.0164	8.4331	-18.2659	21.3855	0.4587	-0.5443	0.5308	0.4598
8.46	-9.5137	-0.0581	-1.4602	0.0043	-0.0101	0.0200	8.3575	-18.0839	21.4142	0.4588	-0.5443	0.5308	0.4599
8.47	-9.5003	-0.0528	-1.4520	0.0021	-0.0029	0.0146	8.3118	-18.2310	21.5366	0.4588	-0.5443	0.5308	0.4599
8.48	-9.4988	-0.0506	-1.4591	0.0003	-0.0125	0.0138	8.2603	-18.1582	21.3827	0.4588	-0.5443	0.5308	0.4600
8.49	-9.5100	-0.0521	-1.4674	0.0057	-0.0102	0.0160	8.1301	-18.1455	21.5078	0.4588	-0.5443	0.5307	0.4600
8.5	-9.4830	-0.0491	-1.4585	0.0056	-0.0078	0.0109	8.2782	-18.2495	21.3320	0.4588	-0.5443	0.5307	0.4600
8.51	-9.4907	-0.0543	-1.4416	0.0058	-0.0083	0.0088	8.1676	-18.0484	21.5449	0.4589	-0.5443	0.5307	0.4600
8.52	-9.5094	-0.0507	-1.4569	0.0031	-0.0103	0.0132	8.1251	-18.0822	21.5133	0.4589	-0.5442	0.5306	0.4599
8.53	-9.5012	-0.0444	-1.4454	0.0018	-0.0037	0.0149	8.2804	-18.1296	21.2659	0.4589	-0.5443	0.5307	0.4600
8.54	-9.4847	-0.0365	-1.4490	0.0085	-0.0029	0.0153	8.3060	-18.3404	21.3415	0.4589	-0.5442	0.5307	0.4600
8.55	-9.4980	-0.0321	-1.4472	0.0036	-0.0114	0.0150	8.1444	-18.1598	21.2902	0.4590	-0.5443	0.5307	0.4600
8.56	-9.5061	-0.0376	-1.4382	0.0076	-0.0080	0.0187	8.2207	-18.2289	21.4071	0.4589	-0.5442	0.5306	0.4600
8.57	-9.4881	-0.0277	-1.4464	0.0102	-0.0118	0.0206	8.4869	-18.4196	21.4187	0.4590	-0.5442	0.5307	0.4600
8.58	-9.4931	-0.0416	-1.4511	0.0088	-0.0056	0.0108	8.3897	-18.2466	21.3818	0.4590	-0.5441	0.5307	0.4600
8.59	-9.5157	-0.0473	-1.4689	0.0036	-0.0025	0.0164	8.2093	-18.3758	21.5026	0.4590	-0.5441	0.5307	0.4600
8.6	-9.4948	-0.0593	-1.4665	0.0067	-0.0091	0.0198	8.2406	-18.0620	21.3731	0.4590	-0.5441	0.5307	0.4601
8.61	-9.4941	-0.0634	-1.4641	-0.0024	-0.0054	0.0159	8.2439	-18.1373	21.3033	0.4590	-0.5441	0.5307	0.4601
8.62	-9.5122	-0.0649	-1.4776	0.0013	-0.0099	0.0218	8.1799	-18.2719	21.5124	0.4590	-0.5441	0.5307	0.4601
8.63	-9.4919	-0.0735	-1.4766	0.0066	-0.0045	0.0179	8.1266	-18.2046	21.4647	0.4590	-0.5440	0.5306	0.4601
8.64	-9.4852	-0.0699	-1.4640	0.0004	-0.0041	0.0133	8.1824	-18.2556	21.4090	0.4590	-0.5441	0.5307	0.4601
8.65	-9.5036	-0.0629	-1.4872	0.0062	-0.0065	0.0201	8.4216	-18.1834	21.5356	0.4590	-0.5440	0.5307	0.4601
8.66	-9.5018	-0.0630	-1.4900	-0.0021	-0.0105	0.0167	8.5487	-18.0524	21.7193	0.4590	-0.5440	0.5306	0.4602
8.67	-9.4819	-0.0698	-1.4699	-0.0017	-0.0128	0.0108	8.6217	-18.1393	21.9761	0.4590	-0.5440	0.5306	0.4602
8.68	-9.4980	-0.0637	-1.4743	-0.0066	-0.0020	0.0095	8.4135	-18.1412	21.6235	0.4590	-0.5441	0.5306	0.4602
8.69	-9.5060	-0.0565	-1.4854	0.0001	-0.0041	0.0146	8.3475	-18.1882	21.5353	0.4590	-0.5441	0.5306	0.4602
8.7	-9.4901	-0.0625	-1.4677	-0.0022	-0.0031	0.0116	8.1043	-18.2407	21.4691	0.4589	-0.5441	0.5305	0.4602
8.71	-9.4867	-0.0605	-1.4604	-0.0005	-0.0088	0.0096	8.1970	-18.2739	21.4758	0.4590	-0.5441	0.5305	0.4603
8.72	-9.5060	-0.0654	-1.4672	-0.0045	-0.0047	0.0098	8.2950	-18.4496	21.4646	0.4590	-0.5441	0.5305	0.4603
8.73	-9.5001	-0.0587	-1.4643	-0.0089	-0.0102	0.0138	8.1685	-18.1005	21.4908	0.4590	-0.5442	0.5304	0.4603
8.74	-9.4828	-0.0653	-1.4510	0.0017	-0.0114	0.0188	8.1800	-18.2247	21.3464	0.4590	-0.5441	0.5304	0.4603
8.75	-9.4990	-0.0608	-1.4555	0.0043	-0.0071	0.0157	8.3990	-18.3497	21.3185	0.4590	-0.5441	0.5304	0.4604
8.76	-9.5048	-0.0537	-1.4515	-0.0004	-0.0068	0.0237	8.4393	-18.2897	21.4138	0.4590	-0.5441	0.5304	0.4604
8.77	-9.4915	-0.0569	-1.4497	0.0059	-0.0112	0.0205	8.3371	-18.3876	21.3766	0.4589	-0.5440	0.5304	0.4604
8.78	-9.5013	-0.0518	-1.4485	0.0026	-0.0079	0.0183	8.2493	-18.3452	21.3856	0.4590	-0.5441	0.5304	0.4605
8.79	-9.5108	-0.0561	-1.4559	0.0050	-0.0065	0.0117	8.3829	-18.3541	21.4037	0.4590	-0.5440	0.5304	0.4605
8.8	-9.4937	-0.0523	-1.4532	0.0034	-0.0030	0.0118	8.2609	-18.3874	21.3190	0.4590	-0.5441	0.5304	0.4605
8.81	-9.4845	-0.0582	-1.4441	-0.0005	-0.0051	0.0127	8.2623	-18.1646	21.2755	0.4590	-0.5440	0.5303	0.4605
8.82	-9.5006	-0.0508	-1.4612	-0.0008	-0.0052	0.0125	8.1441	-18.2317	21.4247	0.4590	-0.5441	0.5303	0.4605
8.83	-9.5028	-0.0473	-1.4602	0.0023	0.0001	0.0161	8.3975	-18.2784	21.5055	0.4590	-0.5441	0.5303	0.4605
8.84	-9.4871	-0.0398	-1.4409	0.0041	-0.0072	0.0076	8.3695	-18.2933	21.3795	0.4590	-0.5441	0.5303	0.4605
8.85	-9.4987	-0.0471	-1.4587	-0.0023	-0.0036	0.0085	8.2209	-18.1469	21.3885	0.4591	-0.5442	0.5303	0.4605
8.86	-9.4941	-0.0561	-1.4614	-0.0045	-0.0020	0.0158	8.1646	-18.0263	21.3525	0.4590	-0.5441	0.5303	0.4605
8.87	-9.4942	-0.0468	-1.4447	-0.0080	-0.0026	0.0131	8.1907	-18.1642	21.4572	0.4590	-0.5442	0.5303	0.4606
8.88	-9.4915	-0.0582	-1.4565	0.0006	-0.0080	0.0164	8.0892	-18.0027	21.3912	0.4589	-0.5441	0.5302	0.4605
8.89	-9.5056	-0.0546	-1.4609	-0.0010	-0.0062	0.0142	8.1018	-18.1532	21.2367	0.4590	-0.5442	0.5302	0.4606
8.9	-9.5015	-0.0568	-1.4674	0.0027	-0.0099	0.0145	8.0849	-18.2333	21.7148	0.4590	-0.5442	0.5302	0.4606
8.91	-9.4926	-0.0598	-1.4697	0.0016	-0.0031	0.0106	8.0936	-18.0982	21.6475	0.4590	-0.5442	0.5301	0.4606
8.92	-9.5044	-0.0529	-1.4682	-0.0037	-0.0071	0.0137	8.0780	-18.2245	21.5727	0.4590	-0.5442	0.5301	0.4606
8.93	-9.5084	-0.0465	-1.4633	0.0042	-0.0080	0.0138	8.2496	-18.2756	21.3389	0.4590	-0.5442	0.5301	0.4606
8.94	-9.4891	-0.0409	-1.4625	0.0019	-0.0055	0.0078	8.4277	-18.3226	21.1765	0.4590	-0.5442	0.5301	0.4607
8.95	-9.4878	-0.0566	-1.4586	0.0011	-0.0083	0.0125	8.4266	-18.3766	21.2066	0.4590	-0.5442	0.5300	0.4606
8.96	-9.5010	-0.0532	-1.4637	-0.0038	-0.0037	0.0200	8.4077	-18.2371	21.3625	0.4590	-0.5442	0.5301	0.4607
8.97	-9.5008	-0.0617	-1.4684	0.0045	-0.0049	0.0097	8.4463	-18.1587	21.3120	0.4590	-0.5442	0.5300	0.4607
8.98	-9.4938	-0.0658	-1.4712	0.0027	-0.0078	0.0136	8.3048	-18.2732	21.4240	0.4590	-0.5442	0.5300	0.4607
8.99	-9.4921	-0.0568	-1.4793	0.0022	-0.0025	0.0109	8.0446	-18.2773	21.5746	0.4590	-0.5442	0.5300	0.4607
9	-9.4898	-0.0667	-1.4718	-0.0009	-0.0070	0.0158	8.2537	-18.2932	21.3334	0.4590	-0.5442	0.5300	0.4607
9.01	-9.4921	-0.0603	-1.4719	-0.0055	-0.0063	0.0123	8.2354	-18.4084	21.3934	0.4590	-0.5442	0.5300	0.4608
9.02	-9.5024	-0.0596	-1.4668	-0.0006	-0.0047	0.0117	8.3486	-18.1961	21.4560	0.4589	-0.5442	0.5299	0.4607
9.03	-9.5085	-0.0491	-1.4652	0.0087	-0.0049	0.0186	8.3096	-18.0764	21.5670	0.4590	-0.5443	0.5300	0.4608
9.04	-9.4867	-0.0419	-1.4549	-0.0029	-0.0003	0.0127	8.1107	-18.3061	21.4264	0.4590	-0.5442	0.5299	0.4608
9.05	-9.4970	-0.0433	-1.4457	-0.0032	-0.0112	0.0117	8.0555	-18.1551	21.5249	0.4590	-0.5443	0.5299	0.4608
9.06	-9.4984	-0.0560	-1.4619	-0.0024	-0.0005	0.0054	8.2853	-18.0050	21.6772	0.4590	-0.5443	0.5298	0.4608
9.07	-9.4855	-0.0527	-1.4382	-0.0027	-0.0036	0.0116	8.2002	-18.2524	21.4612	0.4590	-0.5443	0.5298	0.4608
9.08	-9.4904	-0.0592	-1.4474	0.0003	-0.0008	0.0133	8.2277	-18.1504	21.3882	0.4590	-0.5443	0.5298	0.4608
9.09	-9.5050	-0.0534	-1.4624	0.0053	0.0012	0.0137	8.2015	-18.2972	21.5892	0.4589	-0.5443	0.5298	0.4608
9.1	-9.4928	-0.0612	-1.4363	-0.0027	-0.0011	0.0070	8.0736	-18.1748	21.3535	0.4590	-0.5444	0.5299	0.4608
9.11	-9.4849	-0.0528	-1.4384	0.0050	-0.0095	0.0156	8.2229	-18.0923	21.3593	0.4590	-0.5444	0.5298	0.4608
9.12	-9.5032	-0.0581	-1.4506	0.0060	-0.0057	0.0193	8.1410	-18.3574	21.2447	0.4590	-0.5444	0.5298	0.4608
9.13	-9.5008	-0.0629	-1.4529	0.0096	-0.0041	0.0085	8.2803	-18.3636	21.4838	0.4590	-0.5443	0.5298	0.4607
9.14	-9.4856	-0.0446	-1.4557	0.0013	-0.0041	0.0073	8.3222	-18.1504	21.5918	0.4590	-0.5444	0.5298	0.4608
9.15	-9.4978	-0.0525	-1.4604	0.0017	-0.0050	0.0137	8.3841	-18.2207	21.6646	0.4590	-0.5444	0.5298	0.4608
9.16	-9.5020	-0.0476	-1.4559	-0.0028	-0.0091	0.0094	8.6802	-18.1084	21.6387	0.4590	-0.5444	0.5297	0.4608
9.17	-9.4865	-0.0636	-1.4552	0.0002	-0.0104	0.0206	8.5467	-18.0896	21.6580	0.4590	-0.5444	0.5297	0.4608
9.18	-9.4874	-0.0570	-1.4648	-0.0012	-0.0107	0.0229	8.5522	-18.1792	21.4821	0.4590	-0.5443	0.5297	0.4609
9.19	-9.5035	-0.0650	-1.4680	-0.0042	-0.0108	0.0174	8.4440	-17.9941	21.4551	0.4590	-0.5444	0.5297	0.4610
9.2	-9.5096	-0.0672	-1.4785	-0.0004	-0.0088	0.0204	8.4090	-17.9868	21.3055	0.4589	-0.5443	0.5296	0.4609
9.21	-9.5023	-0.0685	-1.4619	-0.0004	-0.0104	0.0230	8.3756	-18.2824	21.3009	0.4590	-0.5443	0.5297	0.4610
9.22	-9.5053	-0.0671	-1.4743	0.0023	-0.0100	0.0146	8.2519	-18.1799	21.3021	0.4590	-0.5443	0.5296	0.4610
9.23	-9.5009	-0.0636	-1.4858	-0.0005	-0.0085	0.0155	8.1501	-18.0621	21.3263	0.4590	-0.5443	0.5296	0.4611
9.24	-9.4964	-0.0564	-1.4834	0.0003	-0.0075	0.0171	8.1233	-18.0677	21.6194	0.4590	-0.5443	0.5296	0.4611
9.25	-9.4979	-0.0558	-1.4720	0.0048	-0.0071	0.0135	8.0342	-18.1650	21.4717	0.4590	-0.5443	0.5296	0.4611
9.26	-9.5074	-0.0599	-1.4770	0.0012	-0.0036	0.0182	8.0975	-18.1653	21.3827	0.4590	-0.5443	0.5296	0.4611
9.27	-9.5023	-0.0448	-1.4778	-0.0019	-0.0059	0.0139	8.2347	-18.3510	21.6177	0.4589	-0.5442	0.5296	0.4611
9.28	-9.4917	-0.0490	-1.4648	-0.0028	-0.0104	0.0118	8.1936	-18.1701	21.4156	0.4590	-0.5443	0.5296	0.4612
9.29	-9.5051	-0.0421	-1.4664	-0.0056	-0.0105	0.0159	8.2724	-18.1681	21.4030	0.4590	-0.5443	0.5295	0.4612
9.3	-9.5033	-0.0474	-1.4693	-0.0061	-0.0093	0.0213	8.2953	-18.0471	21.3135	0.4590	-0.5443	0.5295	0.4613
9.31	-9.4859	-0.0464	-1.4611	0.0017	-0.0113	0.0226	8.3981	-18.1630	21.2908	0.4589	-0.5442	0.5295	0.4613
9.32	-9.4942	-0.0397	-1.4545	-0.0020	-0.0088	0.0159	8.3483	-18.1984	21.4256	0.4589	-0.5442	0.5295	0.4614
9.33	-9.5115	-0.0462	-1.4668	-0.0037	-0.0095	0.0194	8.2974	-18.1665	21.3540	0.4589	-0.5442	0.5295	0.4614
9.34	-9.5115	-0.0454	-1.4583	0.0015	-0.0117	0.0195	8.2304	-18.2593	21.4837	0.4589	-0.5442	0.5294	0.4614
9.35	-9.4896	-0.0517	-1.4555	0.0051	-0.0078	0.0192	8.2091	-18.1197	21.4700	0.4590	-0.5442	0.5295	0.4615
9.36	-9.5012	-0.0537	-1.4574	0.0056	-0.0033	0.0179	8.3532	-18.2766	21.2072	0.4589	-0.5441	0.5295	0.4615
9.37	-9.5020	-0.0584	-1.4535	0.0082	-0.0080	0.0193	8.2249	-18.1449	21.2652	0.4590	-0.5442	0.5295	0.4615
9.38	-9.4887	-0.0589	-1.4529	0.0058	-0.0100	0.0172	8.2185	-18.1405	21.4021	0.4589	-0.5440	0.5294	0.4615
9.39	-9.5139	-0.0639	-1.4550	0.0053	-0.0097	0.0189	8.2186	-18.1485	21.3759	0.4590	-0.5441	0.5295	0.4615
9.4	-9.4918	-0.0647	-1.4464	0.0045	-0.0065	0.0235	8.3720	-18.2954	21.5723	0.4589	-0.5440	0.5295	0.4616
9.41	-9.4898	-0.0557	-1.4586	-0.0005	0.0004	0.0124	8.0705	-18.3143	21.2095	0.4589	-0.5440	0.5295	0.4616
9.42	-9.4889	-0.0489	-1.4619	-0.0038	-0.0087	0.0156	8.0610	-18.3136	21.2203	0.4589	-0.5441	0.5295	0.4616
9.43	-9.4990	-0.0590	-1.4689	-0.0029	-0.0056	0.0103	8.1677	-18.3039	21.4435	0.4589	-0.5441	0.5294	0.4616
9.44	-9.5016	-0.0568	-1.4578	-0.0014	-0.0065	0.0163	8.1249	-18.3286	21.3535	0.4589	-0.5441	0.5294	0.4617
9.45	-9.4775	-0.0417	-1.4493	-0.0018	-0.0079	0.0161	8.1484	-18.2265	21.4760	0.4589	-0.5440	0.5293	0.4616
9.46	-9.5003	-0.0518	-1.4693	-0.0013	-0.0065	0.0188	8.1231	-18.1316	21.5894	0.4589	-0.5441	0.5294	0.4617
9.47	-9.5038	-0.0572	-1.4815	-0.0040	-0.0081	0.0147	8.0154	-18.1509	21.1879	0.4589	-0.5441	0.5294	0.4617
9.48	-9.4930	-0.0585	-1.4569	-0.0058	-0.0027	0.0188	8.1959	-18.1557	21.3590	0.4588	-0.5441	0.5294	0.4618
9.49	-9.4945	-0.0669	-1.4571	0.0006	-0.0091	0.0189	8.3182	-18.0403	21.4756	0.4588	-0.5441	0.5293	0.4618
9.5	-9.5040	-0.0569	-1.4633	-0.0035	-0.0089	0.0178	8.2845	-18.2037	21.3915	0.4588	-0.5441	0.5293	0.4619
9.51	-9.5019	-0.0654	-1.4585	-0.0000	-0.0075	0.0222	8.3369	-18.1968	21.3132	0.4588	-0.5441	0.5293	0.4619
9.52	-9.4957	-0.0599	-1.4559	-0.0023	-0.0104	0.0180	8.4899	-18.0315	21.3872	0.4588	-0.5440	0.5293	0.4619
9.53	-9.5025	-0.0583	-1.4547	0.0051	-0.0102	0.0190	8.3312	-18.0737	21.3626	0.4588	-0.5440	0.5293	0.4620
9.54	-9.5053	-0.0539	-1.4634	0.0031	-0.0039	0.0197	8.4679	-18.3109	21.1790	0.4588	-0.5440	0.5293	0.4620
9.55	-9.4886	-0.0571	-1.4547	-0.0041	-0.0064	0.0180	8.3649	-18.0377	21.2139	0.4588	-0.5440	0.5293	0.4621
9.56	-9.4962	-0.0609	-1.4700	-0.0041	-0.0092	0.0173	8.1120	-18.1727	21.3142	0.4587	-0.5439	0.5292	0.4620
9.57	-9.5120	-0.0525	-1.4845	-0.0095	-0.0061	0.0156	8.1475	-18.2006	21.1381	0.4587	-0.5440	0.5292	0.4621
9.58	-9.4897	-0.0468	-1.4654	0.0008	-0.0104	0.0202	8.1790	-18.1699	21.2022	0.4587	-0.5440	0.5292	0.4622
9.59	-9.4966	-0.0428	-1.4764	-0.0026	-0.0123	0.0192	8.2962	-18.2570	21.4236	0.4587	-0.5439	0.5292	0.4622
9.6	-9.4997	-0.0417	-1.4728	-0.0018	-0.0081	0.0157	8.4069	-18.1147	21.3786	0.4587	-0.5440	0.5292	0.4623
9.61	-9.4995	-0.0481	-1.4809	-0.0031	-0.0122	0.0157	8.3381	-18.2774	21.2517	0.4587	-0.5439	0.5291	0.4623
9.62	-9.5087	-0.0613	-1.4719	-0.0065	-0.0045	0.0132	8.2995	-18.1437	21.4442	0.4587	-0.5440	0.5292	0.4623
9.63	-9.4899	-0.0624	-1.4673	-0.0093	-0.0043	0.0140	8.2128	-18.1360	21.4946	0.4586	-0.5440	0.5291	0.4623
9.64	-9.5015	-0.0551	-1.4830	-0.0085	-0.0053	0.0185	8.2306	-18.2610	21.3512	0.4586	-0.5440	0.5291	0.4624
9.65	-9.4858	-0.0582	-1.4719	-0.0085	-0.0070	0.0142	8.3451	-18.3235	21.6141	0.4586	-0.5440	0.5290	0.4624
9.66	-9.4915	-0.0579	-1.4655	-0.0032	-0.0118	0.0203	8.4526	-17.9885	21.6844	0.4586	-0.5440	0.5290	0.4625
9.67	-9.5013	-0.0620	-1.4570	-0.0118	-0.0121	0.0186	8.4485	-17.7806	21.5141	0.4586	-0.5440	0.5290	0.4626
9.68	-9.4867	-0.0598	-1.4528	-0.0001	-0.0108	0.0176	8.4569	-18.0798	21.5844	0.4585	-0.5440	0.5289	0.4626
9.69	-9.4911	-0.0573	-1.4537	-0.0052	-0.0052	0.0172	8.3908	-18.1516	21.3970	0.4585	-0.5440	0.5290	0.4627
9.7	-9.4985	-0.0591	-1.4490	-0.0030	-0.0076	0.0129	8.4265	-18.3757	21.2159	0.4585	-0.5440	0.5289	0.4626
9.71	-9.4970	-0.0447	-1.4491	-0.0018	-0.0057	0.0119	8.6231	-18.4284	21.3183	0.4585	-0.5441	0.5289	0.4627
9.72	-9.4949	-0.0540	-1.4608	-0.0082	-0.0075	0.0155	8.3751	-18.2374	21.1991	0.4585	-0.5440	0.5288	0.4627
9.73	-9.4982	-0.0577	-1.4533	-0.0020	-0.0075	0.0189	8.2998	-18.0699	21.4453	0.4585	-0.5441	0.5288	0.4628
9.74	-9.5074	-0.0524	-1.4549	-0.0027	-0.0098	0.0164	8.4424	-18.1740	21.1664	0.4585	-0.5440	0.5288	0.4628
9.75	-9.4968	-0.0570	-1.4575	-0.0050	-0.0060	0.0188	8.2798	-18.2943	21.1487	0.4584	-0.5440	0.5288	0.4628
9.76	-9.4903	-0.0599	-1.4580	-0.0044	-0.0102	0.0126	8.2401	-18.3646	21.2525	0.4584	-0.5441	0.5288	0.4629
9.77	-9.5091	-0.0637	-1.4707	-0.0037	-0.0099	0.0103	7.9696	-18.2626	21.1733	0.4584	-0.5440	0.5287	0.4629
9.78	-9.4915	-0.0585	-1.4647	-0.0089	-0.0147	0.0124	8.2523	-18.1519	21.3552	0.4585	-0.5441	0.5287	0.4630
9.79	-9.4994	-0.0588	-1.4633	-0.0091	-0.0106	0.0101	8.3032	-18.1934	21.3653	0.4584	-0.5441	0.5286	0.4630
9.8	-9.5070	-0.0628	-1.4646	-0.0075	-0.0064	0.0113	8.0425	-18.1102	21.2432	0.4584	-0.5442	0.5286	0.4631
9.81	-9.4823	-0.0577	-1.4667	-0.0022	-0.0086	0.0157	8.1925	-18.0815	21.4983	0.4584	-0.5441	0.5285	0.4631
9.82	-9.4925	-0.0515	-1.4615	-0.0045	-0.0047	0.0126	8.2497	-17.9890	21.5689	0.4584	-0.5441	0.5285	0.4631
9.83	-9.5031	-0.0492	-1.4826	-0.0026	-0.0048	0.0098	8.0870	-18.0319	21.1767	0.4584	-0.5442	0.5285	0.4631
9.84	-9.4987	-0.0493	-1.4621	-0.0058	-0.0019	0.0101	8.1144	-17.9260	21.3688	0.4583	-0.5442	0.5284	0.4631
9.85	-9.4915	-0.0523	-1.4598	-0.0057	-0.0106	0.0104	7.9560	-18.0161	21.3787	0.4584	-0.5443	0.5284	0.4632
9.86	-9.5057	-0.0601	-1.4770	-0.0047	-0.0108	0.0155	8.1057	-18.1646	21.4019	0.4584	-0.5442	0.5284	0.4632
9.87	-9.5010	-0.0636	-1.4704	-0.0010	-0.0104	0.0209	8.1676	-18.3641	21.3196	0.4584	-0.5442	0.5284	0.4633
9.88	-9.4935	-0.0577	-1.4680	-0.0062	-0.0088	0.0127	8.3329	-18.2475	21.3058	0.4583	-0.5442	0.5283	0.4633
9.89	-9.5052	-0.0544	-1.4783	-0.0039	-0.0042	0.0192	8.5228	-18.1404	21.2800	0.4583	-0.5442	0.5283	0.4633
9.9	-9.5033	-0.0579	-1.4683	0.0007	-0.0120	0.0132	8.3468	-18.2058	21.2179	0.4583	-0.5442	0.5283	0.4634
9.91	-9.4996	-0.0523	-1.4633	-0.0040	-0.0126	0.0148	8.2572	-18.3508	21.4301	0.4583	-0.5442	0.5282	0.4634
9.92	-9.4958	-0.0508	-1.4665	0.0030	-0.0056	0.0172	8.2557	-18.2457	21.2704	0.4583	-0.5442	0.5283	0.4634
9.93	-9.5052	-0.0593	-1.4632	0.0059	-0.0068	0.0114	8.2292	-18.1297	21.3330	0.4583	-0.5442	0.5282	0.4634
9.94	-9.5058	-0.0508	-1.4697	0.0060	-0.0073	0.0156	8.1312	-18.0558	21.4246	0.4584	-0.5442	0.5283	0.4634
9.95	-9.4921	-0.0485	-1.4644	-0.0014	-0.0089	0.0167	8.2655	-18.2547	21.2684	0.4583	-0.5441	0.5282	0.4634
9.96	-9.5035	-0.0610	-1.4597	0.0002	-0.0106	0.0164	8.2458	-18.2695	21.4514	0.4584	-0.5442	0.5282	0.4635
9.97	-9.4954	-0.0569	-1.4642	0.0015	-0.0103	0.0145	8.2516	-18.0654	21.2758	0.4583	-0.5441	0.5282	0.4635
9.98	-9.5032	-0.0615	-1.4787	-0.0013	-0.0071	0.0124	8.2577	-17.9582	21.1736	0.4584	-0.5442	0.5282	0.4636
9.99	-9.4919	-0.0601	-1.4695	-0.0001	-0.0095	0.0121	8.2489	-18.2116	21.3093	0.4583	-0.5441	0.5281	0.4635
10	-9.4962	-0.0602	-1.4664	-0.0044	-0.0004	0.0161	8.1402	-18.1419	21.4423	0.4583	-0.5442	0.5281	0.4636
10.01	-9.5030	-0.0608	-1.4662	0.0004	-0.0060	0.0098	8.0230	-18.0483	21.2367	0.4583	-0.5442	0.5281	0.4636
10.02	-9.4879	-0.0536	-1.4663	0.0018	-0.0074	0.0065	8.0031	-17.8988	21.2519	0.4583	-0.5442	0.5280	0.4636
10.03	-9.4897	-0.0492	-1.4610	-0.0044	-0.0046	0.0091	8.1014	-18.1553	21.4210	0.4584	-0.5443	0.5281	0.4636
10.04	-9.5014	-0.0509	-1.4658	-0.0018	-0.0088	0.0181	8.0904	-18.0083	21.3607	0.4583	-0.5442	0.5280	0.4636
10.05	-9.5030	-0.0470	-1.4608	0.0045	-0.0037	0.0108	8.0753	-18.1204	21.3877	0.4584	-0.5443	0.5281	0.4637
10.06	-9.4955	-0.0557	-1.4612	0.0001	-0.0094	0.0176	8.1732	-18.2999	21.4745	0.4583	-0.5442	0.5280	0.4636
10.07	-9.5083	-0.0488	-1.4704	-0.0022	-0.0064	0.0138	8.3813	-18.1005	21.2505	0.4583	-0.5442	0.5280	0.4637
10.08	-9.4996	-0.0576	-1.4638	0.0047	-0.0070	0.0102	8.4579	-18.1118	21.3713	0.4583	-0.5442	0.5280	0.4637
10.09	-9.5035	-0.0619	-1.4633	0.0053	-0.0075	0.0097	8.5281	-18.2634	21.3670	0.4583	-0.5442	0.5279	0.4637
10.1	-9.5080	-0.0534	-1.4643	0.0032	-0.0045	0.0126	8.2923	-18.3273	21.0408	0.4584	-0.5443	0.5280	0.4637
10.11	-9.5003	-0.0644	-1.4596	0.0011	-0.0074	0.0136	8.2523	-18.2391	21.1244	0.4584	-0.5442	0.5279	0.4637
10.12	-9.4904	-0.0524	-1.4544	0.0046	-0.0107	0.0109	8.0535	-18.2589	21.2408	0.4584	-0.5443	0.5279	0.4637
10.13	-9.5074	-0.0491	-1.4752	0.0059	-0.0037	0.0056	8.2788	-18.2608	21.2139	0.4584	-0.5442	0.5278	0.4636
10.14	-9.4987	-0.0549	-1.4795	0.0004	-0.0083	0.0142	8.4216	-18.3293	21.1934	0.4584	-0.5443	0.5279	0.4637
10.15	-9.5036	-0.0632	-1.4681	0.0003	-0.0062	0.0153	8.3195	-17.8960	21.3157	0.4584	-0.5442	0.5279	0.4637
10.16	-9.4922	-0.0535	-1.4762	-0.0042	0.0022	0.0112	8.5225	-17.9993	21.6938	0.4584	-0.5443	0.5278	0.4637
10.17	-9.4967	-0.0492	-1.4611	-0.0013	-0.0079	0.0134	8.3684	-18.0845	21.6293	0.4584	-0.5443	0.5278	0.4637
10.18	-9.5155	-0.0508	-1.4712	-0.0100	-0.0111	0.0115	8.3615	-18.1892	21.4016	0.4584	-0.5443	0.5278	0.4638
10.19	-9.4987	-0.0509	-1.4704	-0.0029	-0.0105	0.0136	8.2166	-18.1803	21.3519	0.4584	-0.5443	0.5277	0.4638
10.2	-9.4879	-0.0573	-1.4634	0.0007	-0.0104	0.0047	8.1366	-18.0992	21.2841	0.4583	-0.5443	0.5276	0.4638
10.21	-9.5073	-0.0689	-1.4804	-0.0049	-0.0095	0.0109	8.3768	-18.1598	21.5534	0.4584	-0.5444	0.5277	0.4639
10.22	-9.4914	-0.0579	-1.4628	-0.0015	-0.0092	0.0068	8.1842	-18.1862	21.5230	0.4584	-0.5444	0.5276	0.4639
10.23	-9.4904	-0.0556	-1.4655	0.0069	-0.0075	0.0129	8.1440	-18.2819	21.1868	0.4584	-0.5444	0.5276	0.4639
10.24	-9.5105	-0.0710	-1.4623	-0.0019	-0.0087	0.0150	8.1247	-18.1166	21.3142	0.4584	-0.5443	0.5276	0.4639
10.25	-9.4980	-0.0653	-1.4599	0.0038	-0.0064	0.0143	8.3158	-18.3195	21.5529	0.4584	-0.5444	0.5276	0.4639
10.26	-9.4904	-0.0555	-1.4553	0.0031	-0.0100	0.0127	8.5359	-18.2580	21.3713	0.4584	-0.5444	0.5276	0.4639
10.27	-9.5095	-0.0447	-1.4625	0.0035	-0.0062	0.0150	8.3665	-18.2187	21.1966	0.4584	-0.5443	0.5275	0.4639
10.28	-9.5040	-0.0614	-1.4523	0.0059	-0.0104	0.0158	8.3098	-18.3363	21.2414	0.4585	-0.5443	0.5276	0.4640
10.29	-9.5054	-0.0459	-1.4647	-0.0016	-0.0082	0.0099	8.3066	-18.1744	21.1946	0.4585	-0.5443	0.5275	0.4640
10.3	-9.4929	-0.0501	-1.4540	0.0105	-0.0063	0.0175	8.3110	-18.1276	21.2921	0.4585	-0.5444	0.5276	0.4640
10.31	-9.4994	-0.0401	-1.4593	-0.0009	-0.0134	0.0157	8.2989	-18.2659	21.3231	0.4585	-0.5443	0.5275	0.4640
10.32	-9.4887	-0.0539	-1.4620	-0.0002	-0.0036	0.0142	8.4280	-18.1858	21.1745	0.4585	-0.5443	0.5275	0.4640
10.33	-9.4886	-0.0617	-1.4523	0.0044	-0.0087	0.0155	8.3275	-18.1859	21.2938	0.4585	-0.5443	0.5275	0.4640
10.34	-9.5047	-0.0632	-1.4596	0.0042	-0.0090	0.0132	8.2907	-18.2687	21.3012	0.4585	-0.5442	0.5274	0.4640
10.35	-9.5024	-0.0691	-1.4615	0.0024	-0.0074	0.0145	8.4032	-18.1247	21.4197	0.4585	-0.5443	0.5275	0.4641
10.36	-9.4868	-0.0656	-1.4750	0.0035	-0.0002	0.0151	8.3678	-18.0397	21.3511	0.4585	-0.5443	0.5275	0.4640
10.37	-9.5005	-0.0590	-1.4807	0.0008	-0.0037	0.0131	8.2167	-18.1467	21.2806	0.4585	-0.5443	0.5275	0.4641
10.38	-9.4984	-0.0637	-1.4732	0.0014	-0.0079	0.0142	8.2411	-18.1548	21.3173	0.4584	-0.5442	0.5274	0.4640
10.39	-9.4989	-0.0580	-1.4750	0.0001	-0.0034	0.0169	8.2911	-18.1658	21.3988	0.4585	-0.5443	0.5275	0.4641
10.4	-9.5026	-0.0590	-1.4675	-0.0000	-0.0107	0.0112	8.3749	-18.1109	21.2382	0.4585	-0.5443	0.5274	0.4641
10.41	-9.4918	-0.0550	-1.4701	0.0038	-0.0068	0.0089	8.3158	-18.0318	21.4785	0.4585	-0.5443	0.5274	0.4641
10.42	-9.4961	-0.0414	-1.4763	0.0044	-0.0055	0.0161	8.3029	-18.2809	21.4870	0.4585	-0.5443	0.5274	0.4641
10.43	-9.5102	-0.0505	-1.4665	-0.0019	-0.0107	0.0204	8.3978	-18.0693	21.2204	0.4585	-0.5443	0.5274	0.4641
10.44	-9.4894	-0.0419	-1.4656	-0.0008	-0.0134	0.0218	8.2471	-18.1248	21.2207	0.4585	-0.5443	0.5274	0.4642
10.45	-9.4885	-0.0516	-1.4587	-0.0002	-0.0098	0.0186	8.4312	-18.1677	21.2140	0.4584	-0.5442	0.5273	0.4642
10.46	-9.4901	-0.0613	-1.4479	-0.0055	-0.0112	0.0113	8.3411	-18.2309	21.2310	0.4585	-0.5443	0.5273	0.4643
10.47	-9.4872	-0.0477	-1.4571	-0.0052	-0.0054	0.0174	8.1978	-18.2709	21.0395	0.4584	-0.5442	0.5273	0.4643
10.48	-9.5000	-0.0587	-1.4581	-0.0011	-0.0122	0.0176	8.2613	-18.3745	21.1128	0.4584	-0.5442	0.5273	0.4644
10.49	-9.5051	-0.0522	-1.4651	-0.0102	-0.0122	0.0186	8.1238	-18.0308	21.2266	0.4584	-0.5442	0.5272	0.4644
10.5	-9.4843	-0.0512	-1.4426	0.0011	-0.0071	0.0191	8.2837	-17.9885	21.0875	0.4584	-0.5442	0.5272	0.4644
10.51	-9.4937	-0.0464	-1.4546	0.0080	-0.0081	0.0162	8.1443	-18.1620	21.1779	0.4584	-0.5442	0.5273	0.4645
10.52	-9.5099	-0.0467	-1.4601	0.0004	-0.0099	0.0170	8.2201	-18.1462	21.3188	0.4584	-0.5441	0.5272	0.4644
10.53	-9.4959	-0.0513	-1.4513	-0.0012	-0.0156	0.0196	8.2297	-18.1724	21.2852	0.4584	-0.5442	0.5273	0.4646
10.54	-9.4948	-0.0407	-1.4661	-0.0049	-0.0080	0.0157	8.3686	-18.1132	21.2003	0.4584	-0.5442	0.5272	0.4646
10.55	-9.4966	-0.0503	-1.4631	0.0026	-0.0065	0.0125	8.1530	-18.0444	21.2171	0.4584	-0.5442	0.5272	0.4646
10.56	-9.4891	-0.0576	-1.4689	0.0067	-0.0070	0.0182	8.2274	-18.1824	21.2217	0.4584	-0.5441	0.5272	0.4646
10.57	-9.4949	-0.0578	-1.4647	-0.0029	-0.0110	0.0169	8.2219	-17.9084	21.1906	0.4584	-0.5441	0.5272	0.4646
10.58	-9.5077	-0.0579	-1.4645	-0.0049	-0.0095	0.0168	8.0864	-18.1234	21.2693	0.4584	-0.5441	0.5272	0.4647
10.59	-9.4998	-0.0575	-1.4741	-0.0045	-0.0088	0.0143	7.9830	-18.1746	21.3183	0.4583	-0.5441	0.5271	0.4647
10.6	-9.4897	-0.0631	-1.4674	-0.0066	-0.0104	0.0123	8.0752	-18.1593	21.2000	0.4584	-0.5442	0.5271	0.4648
10.61	-9.4984	-0.0582	-1.4617	-0.0015	-0.0119	0.0209	8.2028	-18.0135	21.0640	0.4583	-0.5441	0.5271	0.4648
10.62	-9.5034	-0.0605	-1.4634	-0.0040	-0.0208	0.0168	8.2788	-18.2172	21.0511	0.4584	-0.5441	0.5271	0.4649
10.63	-9.4905	-0.0572	-1.4659	0.0055	-0.0124	0.0114	8.4350	-18.2376	20.9504	0.4583	-0.5441	0.5270	0.4649
10.64	-9.4874	-0.0546	-1.4583	0.0010	-0.0116	0.0125	8.2369	-18.1463	21.0815	0.4584	-0.5441	0.5270	0.4649
10.65	-9.5018	-0.0633	-1.4660	-0.0031	-0.0117	0.0085	8.3112	-18.1185	21.3257	0.4584	-0.5441	0.5269	0.4649
10.66	-9.4959	-0.0570	-1.4696	-0.0041	-0.0058	0.0101	8.7162	-18.0303	21.5660	0.4584	-0.5441	0.5269	0.4649
10.67	-9.4953	-0.0686	-1.4594	-0.0070	-0.0096	0.0167	8.7896	-18.1685	21.5969	0.4584	-0.5441	0.5269	0.4650
10.68	-9.4973	-0.0559	-1.4607	-0.0004	-0.0068	0.0107	8.6446	-18.1622	21.3263	0.4584	-0.5441	0.5268	0.4650
10.69	-9.5032	-0.0640	-1.4724	-0.0063	-0.0051	0.0143	8.3976	-18.0362	20.9808	0.4584	-0.5442	0.5268	0.4651
10.7	-9.5034	-0.0702	-1.4658	-0.0040	-0.0105	0.0144	8.0163	-18.0371	21.0454	0.4583	-0.5441	0.5267	0.4650
10.71	-9.4978	-0.0651	-1.4531	0.0007	-0.0076	0.0079	8.1788	-18.2357	21.0177	0.4584	-0.5442	0.5268	0.4651
10.72	-9.5082	-0.0566	-1.4740	0.0018	-0.0088	0.0120	7.9982	-17.9883	20.9122	0.4583	-0.5442	0.5267	0.4651
10.73	-9.4875	-0.0528	-1.4717	0.0005	-0.0091	0.0135	7.9994	-18.1300	20.9584	0.4584	-0.5442	0.5267	0.4651
10.74	-9.4937	-0.0577	-1.4746	-0.0025	-0.0029	0.0144	8.1224	-17.9862	20.9251	0.4583	-0.5442	0.5267	0.4651
10.75	-9.4846	-0.0486	-1.4679	-0.0048	-0.0097	0.0075	8.2669	-17.8504	20.9572	0.4583	-0.5442	0.5267	0.4652
10.76	-9.4913	-0.0507	-1.4675	0.0068	-0.0042	0.0084	8.3706	-18.1458	20.9192	0.4584	-0.5443	0.5267	0.4651
10.77	-9.5018	-0.0550	-1.4712	-0.0017	-0.0086	0.0137	8.0870	-18.0060	21.0439	0.4583	-0.5442	0.5266	0.4651
10.78	-9.4904	-0.0482	-1.4714	-0.0079	-0.0020	0.0120	8.1189	-18.0269	21.0017	0.4583	-0.5443	0.5266	0.4652
10.79	-9.4974	-0.0610	-1.4641	0.0003	-0.0020	0.0092	8.1265	-17.8827	20.9385	0.4583	-0.5443	0.5266	0.4652
10.8	-9.4982	-0.0630	-1.4566	-0.0002	-0.0095	0.0163	8.0827	-18.0643	20.8759	0.4583	-0.5443	0.5266	0.4652
10.81	-9.4865	-0.0598	-1.4613	0.0007	-0.0058	0.0061	8.3192	-18.2919	20.8551	0.4583	-0.5443	0.5265	0.4652
10.82	-9.4999	-0.0579	-1.4574	0.0027	-0.0083	0.0170	8.2236	-18.1378	20.9726	0.4583	-0.5443	0.5265	0.4652
10.83	-9.4887	-0.0625	-1.4600	0.0014	-0.0061	0.0223	8.4133	-18.2460	20.9456	0.4583	-0.5443	0.5266	0.4652
10.84	-9.4844	-0.0442	-1.4509	0.0052	-0.0039	0.0131	8.3687	-18.2674	20.9518	0.4583	-0.5443	0.5265	0.4652
10.85	-9.5031	-0.0429	-1.4476	0.0050	-0.0052	0.0097	8.3789	-18.2631	20.9663	0.4583	-0.5444	0.5266	0.4653
10.86	-9.5037	-0.0366	-1.4689	0.0071	-0.0045	0.0101	8.1535	-18.2631	20.9221	0.4583	-0.5443	0.5265	0.4652
10.87	-9.4885	-0.0378	-1.4580	-0.0018	-0.0059	0.0174	8.2145	-18.2815	21.0328	0.4583	-0.5443	0.5266	0.4653
10.88	-9.4896	-0.0427	-1.4633	0.0058	-0.0069	0.0116	8.3124	-18.1799	21.0302	0.4583	-0.5443	0.5265	0.4652
10.89	-9.5093	-0.0533	-1.4589	0.0101	-0.0053	0.0148	8.0594	-18.0782	20.9465	0.4583	-0.5443	0.5266	0.4652
10.9	-9.4965	-0.0629	-1.4616	0.0046	-0.0042	0.0138	8.3037	-17.9727	21.0583	0.4583	-0.5443	0.5265	0.4652
10.91	-9.4977	-0.0629	-1.4670	0.0018	-0.0050	0.0130	8.2038	-18.1332	21.0244	0.4583	-0.5443	0.5265	0.4652
10.92	-9.5003	-0.0655	-1.4749	-0.0033	-0.0036	0.0139	8.0936	-17.8972	21.0238	0.4583	-0.5443	0.5265	0.4652
10.93	-9.5069	-0.0718	-1.4795	-0.0009	-0.0045	0.0142	8.2589	-17.7457	20.9088	0.4583	-0.5443	0.5265	0.4652
10.94	-9.4905	-0.0682	-1.4719	0.0020	-0.0013	0.0117	8.0630	-17.9636	20.9538	0.4583	-0.5444	0.5265	0.4653
10.95	-9.4822	-0.0686	-1.4749	-0.0007	-0.0061	0.0136	8.0195	-17.9114	20.9190	0.4582	-0.5443	0.5265	0.4652
10.96	-9.5053	-0.0660	-1.4810	-0.0014	-0.0031	0.0109	8.1348	-18.0763	21.0634	0.4583	-0.5444	0.5265	0.4653
10.97	-9.5027	-0.0567	-1.4839	-0.0052	-0.0010	0.0094	8.1100	-17.9245	20.9918	0.4582	-0.5444	0.5265	0.4653
10.98	-9.4891	-0.0508	-1.4660	0.0042	-0.0070	0.0191	8.1008	-17.8082	21.1155	0.4582	-0.5444	0.5265	0.4653
10.99	-9.5083	-0.0482	-1.4706	0.0110	-0.0087	0.0178	8.2020	-18.0457	21.0329	0.4582	-0.5444	0.5265	0.4653
11	-9.5051	-0.0535	-1.4815	0.0062	-0.0105	0.0088	8.4209	-18.2406	20.7809	0.4583	-0.5444	0.5265	0.4653
11.01	-9.4880	-0.0598	-1.4638	0.0030	-0.0055	0.0193	8.2867	-18.0732	20.8097	0.4583	-0.5444	0.5265	0.4653
11.02	-9.4930	-0.0618	-1.4668	-0.0045	-0.0017	0.0187	8.2708	-18.2653	20.9708	0.4582	-0.5443	0.5264	0.4653
11.03	-9.5063	-0.0560	-1.4710	-0.0049	-0.0004	0.0110	8.3734	-18.2547	20.9372	0.4582	-0.5444	0.5265	0.4653
11.04	-9.5006	-0.0582	-1.4696	0.0042	-0.0006	0.0118	8.3566	-18.0228	20.8266	0.4582	-0.5444	0.5265	0.4653
11.05	-9.4905	-0.0566	-1.4662	0.0074	-0.0041	0.0146	8.3593	-18.2026	20.9339	0.4582	-0.5445	0.5265	0.4653
11.06	-9.5001	-0.0604	-1.4604	-0.0002	-0.0058	0.0111	8.3594	-18.1609	20.9815	0.4581	-0.5444	0.5264	0.4653
11.07	-9.5067	-0.0521	-1.4512	0.0090	-0.0047	0.0152	8.3551	-18.1003	20.7772	0.4582	-0.5444	0.5265	0.4653
11.08	-9.5025	-0.0404	-1.4455	0.0090	-0.0035	0.0114	8.3789	-18.0530	20.8446	0.4582	-0.5444	0.5265	0.4653
11.09	-9.5000	-0.0534	-1.4521	0.0056	-0.0011	0.0097	8.2814	-17.9847	20.7824	0.4582	-0.5444	0.5264	0.4652
11.1	-9.5065	-0.0409	-1.4704	0.0043	0.0048	0.0113	8.2885	-18.1368	20.7738	0.4582	-0.5445	0.5265	0.4653
11.11	-9.5001	-0.0428	-1.4587	-0.0022	0.0005	0.0098	8.1285	-18.0564	20.8847	0.4582	-0.5445	0.5265	0.4652
11.12	-9.5046	-0.0437	-1.4520	-0.0029	0.0014	0.0147	8.1664	-17.7670	20.8370	0.4582	-0.5446	0.5265	0.4652
11.13	-9.5051	-0.0481	-1.4622	-0.0043	0.0005	0.0147	8.2227	-17.8402	20.8355	0.4580	-0.5445	0.5264	0.4652
11.14	-9.5014	-0.0510	-1.4603	0.0019	0.0018	0.0067	8.1619	-17.9819	21.2157	0.4581	-0.5446	0.5265	0.4652
11.15	-9.4964	-0.0484	-1.4727	-0.0058	-0.0030	0.0093	8.2509	-17.8673	21.1362	0.4581	-0.5446	0.5264	0.4652
11.16	-9.4960	-0.0463	-1.4713	-0.0091	0.0005	0.0066	8.5409	-17.8821	21.1677	0.4580	-0.5447	0.5264	0.4652
11.17	-9.5078	-0.0627	-1.4695	-0.0063	-0.0011	0.0186	8.3977	-18.1550	21.3417	0.4580	-0.5447	0.5264	0.4652
11.18	-9.5041	-0.0560	-1.4631	-0.0071	-0.0107	0.0223	8.3742	-17.9680	21.1301	0.4579	-0.5447	0.5264	0.4653
11.19	-9.4971	-0.0538	-1.4563	-0.0076	-0.0054	0.0157	8.3515	-18.0547	20.9475	0.4579	-0.5448	0.5264	0.4653
11.2	-9.5047	-0.0548	-1.4605	0.0013	-0.0113	0.0194	8.2436	-18.1035	20.8405	0.4579	-0.5447	0.5263	0.4653
11.21	-9.5099	-0.0581	-1.4686	0.0007	-0.0084	0.0186	8.3006	-17.9632	21.0009	0.4579	-0.5447	0.5264	0.4654
11.22	-9.4976	-0.0455	-1.4571	-0.0062	-0.0067	0.0129	8.3193	-17.9698	20.8602	0.4579	-0.5447	0.5263	0.4654
11.23	-9.5020	-0.0429	-1.4652	-0.0024	-0.0049	0.0201	8.2148	-18.2696	20.9450	0.4578	-0.5448	0.5263	0.4654
11.24	-9.5064	-0.0499	-1.4739	-0.0040	-0.0075	0.0139	8.3123	-18.0031	20.9365	0.4578	-0.5447	0.5263	0.4655
11.25	-9.4984	-0.0561	-1.4644	0.0073	-0.0065	0.0193	8.2626	-17.8069	20.9854	0.4578	-0.5447	0.5263	0.4655
11.26	-9.4999	-0.0495	-1.4554	0.0027	-0.0113	0.0156	8.0455	-18.0916	20.9992	0.4578	-0.5447	0.5263	0.4655
11.27	-9.5096	-0.0615	-1.4642	-0.0001	-0.0115	0.0159	8.3463	-18.0596	20.9126	0.4578	-0.5447	0.5263	0.4655
11.28	-9.4914	-0.0581	-1.4556	0.0008	-0.0080	0.0201	8.2418	-18.0307	21.0730	0.4578	-0.5447	0.5263	0.4656
11.29	-9.5039	-0.0586	-1.4694	0.0037	-0.0028	0.0124	7.9869	-18.0105	21.1470	0.4578	-0.5447	0.5263	0.4655
11.3	-9.4948	-0.0650	-1.4617	-0.0029	-0.0061	0.0219	8.1266	-17.8296	21.0329	0.4578	-0.5447	0.5263	0.4656
11.31	-9.4892	-0.0660	-1.4637	-0.0026	-0.0044	0.0165	8.2246	-17.8972	21.0345	0.4577	-0.5447	0.5263	0.4656
11.32	-9.5026	-0.0633	-1.4707	-0.0012	-0.0023	0.0129	8.3058	-18.0825	21.0158	0.4577	-0.5447	0.5263	0.4656
11.33	-9.4911	-0.0549	-1.4706	-0.0057	-0.0016	0.0153	8.3107	-17.9310	20.9124	0.4577	-0.5448	0.5263	0.4656
11.34	-9.4993	-0.0611	-1.4656	-0.0019	-0.0052	0.0151	8.2218	-18.0016	21.0255	0.4576	-0.5447	0.5262	0.4656
11.35	-9.5070	-0.0562	-1.4627	0.0022	-0.0072	0.0157	8.1284	-17.9708	21.0543	0.4577	-0.5448	0.5263	0.4657
11.36	-9.4956	-0.0635	-1.4613	0.0034	-0.0089	0.0211	8.2408	-17.8500	21.1148	0.4576	-0.5447	0.5263	0.4657
11.37	-9.5058	-0.0669	-1.4673	0.0071	-0.0107	0.0228	8.1969	-18.0172	20.9398	0.4577	-0.5447	0.5263	0.4657
11.38	-9.5049	-0.0666	-1.4577	-0.0012	-0.0139	0.0229	8.3043	-18.1677	20.9546	0.4576	-0.5446	0.5263	0.4657
11.39	-9.4981	-0.0573	-1.4575	-0.0002	-0.0045	0.0172	8.2071	-18.0206	20.8383	0.4576	-0.5447	0.5263	0.4658
11.4	-9.5019	-0.0601	-1.4610	0.0079	-0.0013	0.0125	8.2131	-18.1139	21.0480	0.4576	-0.5447	0.5263	0.4658
11.41	-9.5035	-0.0602	-1.4547	0.0098	-0.0064	0.0129	8.2364	-18.1736	20.9670	0.4576	-0.5446	0.5263	0.4657
11.42	-9.4992	-0.0520	-1.4631	0.0050	-0.0074	0.0158	8.1074	-18.0259	20.9225	0.4576	-0.5447	0.5263	0.4658
11.43	-9.4985	-0.0470	-1.4444	0.0081	-0.0119	0.0173	8.0664	-17.9967	21.1056	0.4576	-0.5446	0.5263	0.4658
11.44	-9.5058	-0.0542	-1.4485	0.0023	-0.0081	0.0176	8.3827	-18.1000	20.8852	0.4577	-0.5446	0.5263	0.4658
11.45	-9.4978	-0.0437	-1.4505	-0.0019	-0.0090	0.0200	8.3873	-17.9539	20.8513	0.4576	-0.5446	0.5263	0.4658
11.46	-9.4945	-0.0444	-1.4562	0.0066	-0.0087	0.0212	8.2681	-17.9918	21.0562	0.4576	-0.5446	0.5264	0.4659
11.47	-9.5025	-0.0370	-1.4578	0.0021	-0.0069	0.0144	8.1865	-18.1050	20.9032	0.4576	-0.5446	0.5263	0.4659
11.48	-9.4982	-0.0536	-1.4529	-0.0021	-0.0001	0.0155	8.2985	-17.9617	21.0122	0.4576	-0.5446	0.5263	0.4659
