time	acceleration_x	acceleration_y	acceleration_z	gyroscope_x	gyroscope_y	gyroscope_z	magnetometer_x	magnetometer_y	magnetometer_z	quaternion_w	quaternion_x	quaternion_y	quaternion_z
0	-9.3843	-0.0232	1.7999	-0.0230	-0.0128	-0.0579	1.0467	31.2171	-0.0233	-0.7620	-0.0793	-0.6359	0.0943
0.01	-9.4030	-0.0351	1.7669	-0.0279	0.0005	-0.0605	0.8529	31.4670	0.0416	-0.7619	-0.0792	-0.6358	0.0942
0.02	-9.3979	-0.0325	1.7569	-0.0201	0.0025	-0.0570	0.9274	31.4316	-0.1406	-0.7619	-0.0792	-0.6359	0.0942
0.03	-9.4229	-0.0133	1.7824	-0.0059	0.0074	-0.0556	1.0141	31.4620	-0.1745	-0.7618	-0.0792	-0.6360	0.0942
0.04	-9.4553	0.0098	1.7479	-0.0058	0.0111	-0.0581	0.8910	31.3700	0.1260	-0.7617	-0.0793	-0.6361	0.0942
0.05	-9.4352	0.0129	1.7502	-0.0196	0.0002	-0.0620	0.9843	31.3380	-0.0086	-0.7617	-0.0792	-0.6362	0.0942
0.06	-9.3914	-0.0003	1.7671	-0.0170	-0.0127	-0.0662	0.8589	31.5151	-0.2416	-0.7617	-0.0792	-0.6361	0.0942
0.07	-9.4275	-0.0005	1.7854	-0.0226	-0.0016	-0.0578	0.9490	31.2921	-0.0833	-0.7617	-0.0791	-0.6362	0.0941
0.08	-9.4894	-0.0009	1.7556	-0.0142	0.0016	-0.0568	1.0831	31.2651	-0.0737	-0.7616	-0.0791	-0.6362	0.0941
0.09	-9.4820	-0.0006	1.7646	-0.0251	-0.0158	-0.0597	1.0620	31.2521	-0.0817	-0.7617	-0.0791	-0.6363	0.0941
0.1	-9.4253	-0.0222	1.7805	-0.0156	-0.0216	-0.0592	1.0811	31.0134	-0.0653	-0.7617	-0.0790	-0.6362	0.0941
0.11	-9.3963	-0.0477	1.7665	-0.0085	-0.0182	-0.0489	1.0367	31.2196	-0.0862	-0.7617	-0.0791	-0.6362	0.0941
0.12	-9.3687	-0.0475	1.7615	-0.0065	-0.0164	-0.0333	1.2833	31.0572	-0.0552	-0.7617	-0.0792	-0.6361	0.0940
0.13	-9.3496	-0.0153	1.7735	-0.0024	-0.0130	-0.0301	1.2097	31.1443	-0.1060	-0.7617	-0.0793	-0.6361	0.0939
0.14	-9.3623	0.0291	1.7857	-0.0048	-0.0024	-0.0362	1.1240	31.1758	-0.2012	-0.7617	-0.0794	-0.6362	0.0939
0.15	-9.3956	0.0505	1.7574	-0.0009	-0.0081	-0.0355	0.8660	31.2640	-0.0794	-0.7616	-0.0795	-0.6361	0.0938
0.16	-9.4012	0.0363	1.7460	-0.0033	-0.0080	-0.0490	1.0279	31.2655	-0.0625	-0.7617	-0.0795	-0.6362	0.0938
0.17	-9.3862	0.0237	1.7550	-0.0060	-0.0159	-0.0559	1.0451	31.1427	-0.1168	-0.7617	-0.0796	-0.6361	0.0938
0.18	-9.4082	0.0242	1.7542	-0.0009	0.0050	-0.0508	0.9489	31.2462	-0.2061	-0.7617	-0.0796	-0.6362	0.0938
0.19	-9.4262	0.0490	1.7187	-0.0020	0.0061	-0.0545	1.0020	31.3802	-0.0541	-0.7616	-0.0797	-0.6362	0.0938
0.2	-9.4190	0.0802	1.7389	-0.0012	-0.0044	-0.0654	0.9678	31.3222	-0.2245	-0.7616	-0.0797	-0.6363	0.0939
0.21	-9.4291	0.0972	1.7625	-0.0006	-0.0012	-0.0681	0.9829	31.4370	-0.0953	-0.7615	-0.0797	-0.6363	0.0939
0.22	-9.4534	0.1080	1.7268	-0.0020	0.0054	-0.0596	0.6742	31.3783	-0.0839	-0.7614	-0.0797	-0.6363	0.0940
0.23	-9.4379	0.0990	1.7426	-0.0114	-0.0055	-0.0586	0.8548	31.1507	-0.0666	-0.7615	-0.0797	-0.6365	0.0940
0.24	-9.4324	0.0835	1.7625	-0.0224	-0.0030	-0.0667	0.8558	31.4598	0.0419	-0.7614	-0.0797	-0.6364	0.0940
0.25	-9.4539	0.0763	1.7398	-0.0276	-0.0005	-0.0706	0.8232	31.1827	0.2158	-0.7614	-0.0796	-0.6365	0.0940
0.26	-9.4494	0.0668	1.7488	-0.0275	-0.0071	-0.0548	1.0283	31.2475	0.0951	-0.7613	-0.0795	-0.6365	0.0939
0.27	-9.4610	0.0490	1.7629	-0.0424	-0.0110	-0.0552	0.8262	31.5251	0.0079	-0.7614	-0.0794	-0.6366	0.0938
0.28	-9.4620	0.0222	1.7295	-0.0537	-0.0146	-0.0591	0.8267	31.3214	-0.0413	-0.7614	-0.0792	-0.6366	0.0937
0.29	-9.4376	-0.0117	1.7527	-0.0496	-0.0231	-0.0577	1.0013	31.2042	-0.0792	-0.7614	-0.0791	-0.6365	0.0936
0.3	-9.4170	-0.0301	1.7389	-0.0475	-0.0168	-0.0520	0.9552	30.9503	-0.1855	-0.7615	-0.0790	-0.6365	0.0934
0.31	-9.4021	-0.0224	1.7709	-0.0529	-0.0262	-0.0510	1.0307	31.0958	0.0231	-0.7615	-0.0788	-0.6365	0.0933
0.32	-9.4785	-0.0041	1.7997	-0.0389	-0.0128	-0.0489	1.5115	31.4094	0.1375	-0.7616	-0.0787	-0.6365	0.0932
0.33	-9.4705	-0.0131	1.7190	-0.0340	-0.0352	-0.0553	1.5254	31.3248	0.1061	-0.7616	-0.0786	-0.6364	0.0931
0.34	-9.3603	-0.0415	1.8302	-0.0456	-0.0511	-0.0625	1.4210	31.4011	-0.1118	-0.7618	-0.0785	-0.6363	0.0930
0.35	-9.3483	-0.0898	1.8077	-0.0306	-0.0118	-0.0689	1.0707	31.3297	-0.1525	-0.7618	-0.0783	-0.6363	0.0930
0.36	-9.3917	-0.0914	1.7603	-0.0281	-0.0146	-0.0604	0.8102	31.0858	-0.2563	-0.7618	-0.0783	-0.6363	0.0929
0.37	-9.3508	-0.0570	1.8026	-0.0275	-0.0328	-0.0442	1.0421	31.2901	0.0132	-0.7619	-0.0782	-0.6362	0.0928
0.38	-9.3531	-0.0076	1.8526	-0.0229	-0.0178	-0.0487	1.1327	31.2681	0.0293	-0.7619	-0.0782	-0.6362	0.0928
0.39	-9.4219	0.0222	1.8011	-0.0220	-0.0005	-0.0541	0.8533	31.4619	-0.0430	-0.7619	-0.0782	-0.6363	0.0927
0.4	-9.4316	0.0248	1.7888	-0.0258	-0.0197	-0.0457	0.8389	31.3444	-0.1265	-0.7619	-0.0781	-0.6362	0.0926
0.41	-9.4057	0.0213	1.8297	-0.0270	-0.0180	-0.0510	0.9141	31.4693	-0.1212	-0.7620	-0.0781	-0.6362	0.0926
0.42	-9.4112	0.0046	1.8126	-0.0261	-0.0027	-0.0558	1.0062	31.2611	0.1485	-0.7619	-0.0781	-0.6362	0.0925
0.43	-9.4137	0.0053	1.7882	-0.0243	-0.0148	-0.0567	1.1595	31.3563	0.1656	-0.7620	-0.0780	-0.6363	0.0925
0.44	-9.3998	0.0090	1.8218	-0.0200	-0.0164	-0.0553	0.9896	31.2721	0.0427	-0.7619	-0.0780	-0.6362	0.0924
0.45	-9.4018	0.0034	1.8087	-0.0235	-0.0115	-0.0551	1.0174	31.1524	-0.0414	-0.7620	-0.0779	-0.6362	0.0924
0.46	-9.3868	-0.0032	1.8003	-0.0286	-0.0162	-0.0564	0.8569	31.3809	-0.2433	-0.7620	-0.0779	-0.6362	0.0923
0.47	-9.3626	-0.0108	1.8272	-0.0227	-0.0138	-0.0569	1.1084	31.2690	-0.1063	-0.7620	-0.0778	-0.6362	0.0923
0.48	-9.3630	-0.0253	1.8252	-0.0251	-0.0097	-0.0545	1.2032	31.1757	-0.1706	-0.7621	-0.0778	-0.6363	0.0922
0.49	-9.3809	-0.0260	1.8036	-0.0257	-0.0060	-0.0531	1.0572	31.3112	-0.1559	-0.7620	-0.0777	-0.6362	0.0922
0.5	-9.3663	-0.0338	1.8123	-0.0236	-0.0121	-0.0505	1.1791	31.1952	-0.2396	-0.7621	-0.0777	-0.6363	0.0921
0.51	-9.3734	-0.0418	1.8240	-0.0207	-0.0094	-0.0464	1.2840	31.1627	-0.3515	-0.7620	-0.0777	-0.6362	0.0920
0.52	-9.4084	-0.0307	1.7927	-0.0197	-0.0046	-0.0450	1.1816	31.2056	-0.0499	-0.7620	-0.0777	-0.6363	0.0920
0.53	-9.4196	-0.0174	1.8105	-0.0206	-0.0064	-0.0396	1.0093	31.1352	-0.1869	-0.7620	-0.0777	-0.6363	0.0919
0.54	-9.4359	-0.0136	1.8032	-0.0147	-0.0053	-0.0470	1.0892	31.3393	-0.3154	-0.7620	-0.0777	-0.6363	0.0918
0.55	-9.4486	-0.0088	1.7870	-0.0035	-0.0066	-0.0503	1.2040	31.4571	-0.2159	-0.7620	-0.0778	-0.6364	0.0918
0.56	-9.4240	-0.0071	1.7858	-0.0018	-0.0086	-0.0400	1.0798	31.3260	-0.0882	-0.7620	-0.0779	-0.6363	0.0918
0.57	-9.4247	0.0059	1.7972	-0.0019	-0.0058	-0.0466	1.1090	31.3720	-0.1715	-0.7620	-0.0779	-0.6364	0.0918
0.58	-9.4481	0.0169	1.7770	-0.0035	-0.0032	-0.0428	1.1274	31.3427	-0.0037	-0.7619	-0.0780	-0.6363	0.0917
0.59	-9.4468	0.0332	1.7716	0.0006	-0.0220	-0.0496	0.8493	31.4713	-0.0844	-0.7620	-0.0781	-0.6364	0.0917
0.6	-9.4262	0.0487	1.8023	-0.0108	-0.0216	-0.0513	0.8900	31.2562	-0.0996	-0.7620	-0.0781	-0.6363	0.0917
0.61	-9.4326	0.0562	1.7948	-0.0058	-0.0148	-0.0521	0.9200	31.3398	0.0040	-0.7620	-0.0781	-0.6363	0.0917
0.62	-9.4302	0.0577	1.7817	-0.0109	-0.0210	-0.0541	1.0458	31.3726	-0.1542	-0.7620	-0.0781	-0.6362	0.0917
0.63	-9.3833	0.0595	1.8057	-0.0184	-0.0316	-0.0552	0.9557	31.3294	-0.1149	-0.7621	-0.0781	-0.6362	0.0917
0.64	-9.3647	0.0623	1.8316	-0.0237	-0.0257	-0.0528	0.9816	31.2259	0.0714	-0.7622	-0.0780	-0.6361	0.0916
0.65	-9.4012	0.0582	1.8088	-0.0233	-0.0077	-0.0508	1.0088	31.3763	-0.0325	-0.7621	-0.0780	-0.6361	0.0916
0.66	-9.4124	0.0523	1.7938	-0.0275	-0.0154	-0.0546	1.1585	31.3335	-0.1367	-0.7622	-0.0780	-0.6362	0.0915
0.67	-9.3769	0.0520	1.8304	-0.0273	-0.0267	-0.0519	1.1391	31.1118	-0.1349	-0.7622	-0.0779	-0.6361	0.0914
0.68	-9.3866	0.0465	1.8344	-0.0268	-0.0113	-0.0540	1.1726	31.2946	-0.0861	-0.7623	-0.0779	-0.6361	0.0914
0.69	-9.4183	0.0264	1.8051	-0.0272	-0.0056	-0.0566	1.1032	31.1594	-0.2743	-0.7622	-0.0778	-0.6361	0.0913
0.7	-9.4178	0.0107	1.8008	-0.0268	-0.0200	-0.0514	1.1320	31.3153	-0.1117	-0.7623	-0.0777	-0.6361	0.0913
0.71	-9.3961	0.0035	1.8234	-0.0279	-0.0123	-0.0561	1.1850	31.2100	0.0860	-0.7623	-0.0777	-0.6361	0.0912
0.72	-9.3971	0.0029	1.8142	-0.0270	-0.0182	-0.0512	0.9964	31.4617	-0.1829	-0.7623	-0.0776	-0.6360	0.0911
0.73	-9.3975	-0.0036	1.7942	-0.0274	-0.0129	-0.0545	0.9226	31.4119	0.0003	-0.7624	-0.0776	-0.6361	0.0911
0.74	-9.3738	-0.0045	1.8078	-0.0270	-0.0188	-0.0517	1.0835	31.3896	-0.2075	-0.7623	-0.0775	-0.6360	0.0910
0.75	-9.3767	-0.0041	1.8185	-0.0272	-0.0120	-0.0521	1.0776	31.4196	-0.2368	-0.7624	-0.0775	-0.6361	0.0909
0.76	-9.3845	0.0001	1.7854	-0.0271	-0.0075	-0.0577	0.8744	31.2328	-0.1277	-0.7623	-0.0774	-0.6360	0.0909
0.77	-9.3745	0.0168	1.8037	-0.0251	-0.0083	-0.0547	1.1004	31.3929	-0.0060	-0.7624	-0.0774	-0.6361	0.0908
0.78	-9.3922	0.0235	1.8176	-0.0277	-0.0007	-0.0548	0.8675	31.3394	-0.0682	-0.7623	-0.0773	-0.6361	0.0908
0.79	-9.4315	0.0258	1.7756	-0.0264	0.0047	-0.0580	0.8913	31.3568	0.0535	-0.7623	-0.0773	-0.6362	0.0907
0.8	-9.3989	0.0179	1.7733	-0.0248	-0.0004	-0.0565	1.1211	31.4556	0.0584	-0.7623	-0.0772	-0.6362	0.0907
0.81	-9.3715	0.0166	1.8157	-0.0285	-0.0029	-0.0562	1.1534	31.3019	-0.0820	-0.7622	-0.0771	-0.6363	0.0906
0.82	-9.4412	0.0391	1.7953	-0.0215	0.0148	-0.0563	1.5907	31.2661	0.0509	-0.7622	-0.0771	-0.6364	0.0906
0.83	-9.4639	0.0476	1.7396	-0.0228	0.0043	-0.0548	1.4521	31.2118	0.0689	-0.7620	-0.0771	-0.6364	0.0905
0.84	-9.3846	0.0395	1.8048	-0.0281	-0.0306	-0.0608	1.4468	31.0976	0.0313	-0.7622	-0.0770	-0.6364	0.0905
0.85	-9.3618	0.0150	1.8310	-0.0248	-0.0076	-0.0575	1.2006	31.1630	-0.0263	-0.7622	-0.0769	-0.6364	0.0904
0.86	-9.4427	0.0059	1.7809	-0.0271	0.0096	-0.0572	1.1456	31.0699	-0.0818	-0.7621	-0.0769	-0.6365	0.0904
0.87	-9.4765	0.0117	1.7839	-0.0263	-0.0099	-0.0571	1.1404	30.9981	-0.0784	-0.7621	-0.0768	-0.6365	0.0903
0.88	-9.4481	0.0072	1.8083	-0.0284	-0.0136	-0.0561	1.1196	31.3959	-0.2124	-0.7621	-0.0768	-0.6365	0.0903
0.89	-9.4193	-0.0326	1.7905	-0.0260	-0.0136	-0.0552	0.9647	31.3155	0.0615	-0.7622	-0.0767	-0.6365	0.0902
0.9	-9.4094	-0.0685	1.7734	-0.0282	-0.0139	-0.0461	0.9484	31.1709	-0.2070	-0.7621	-0.0767	-0.6364	0.0901
0.91	-9.3885	-0.0648	1.7706	-0.0179	-0.0211	-0.0338	0.9602	31.3111	-0.0305	-0.7622	-0.0767	-0.6365	0.0900
0.92	-9.3564	-0.0369	1.7849	-0.0176	-0.0148	-0.0382	1.1061	31.2349	-0.0337	-0.7622	-0.0767	-0.6364	0.0899
0.93	-9.3719	0.0076	1.7829	-0.0113	-0.0034	-0.0363	1.1559	31.1721	-0.0812	-0.7623	-0.0768	-0.6365	0.0899
0.94	-9.3986	0.0300	1.7653	-0.0071	-0.0054	-0.0384	1.0365	31.2047	-0.2026	-0.7622	-0.0769	-0.6364	0.0898
0.95	-9.4068	0.0270	1.7503	-0.0043	-0.0049	-0.0460	0.9209	31.2912	0.0039	-0.7622	-0.0769	-0.6365	0.0898
0.96	-9.4125	0.0182	1.7600	-0.0006	-0.0029	-0.0519	0.8284	31.4626	-0.1225	-0.7622	-0.0770	-0.6365	0.0898
0.97	-9.4205	0.0354	1.7511	0.0008	-0.0028	-0.0574	0.9747	31.3725	-0.5114	-0.7621	-0.0770	-0.6365	0.0898
0.98	-9.4268	0.0588	1.7428	0.0050	-0.0023	-0.0586	0.8367	31.2691	-0.3334	-0.7622	-0.0771	-0.6366	0.0899
0.99	-9.4281	0.0788	1.7478	0.0056	-0.0067	-0.0565	0.9095	31.2620	-0.2175	-0.7621	-0.0771	-0.6366	0.0899
1	-9.4283	0.0885	1.7469	0.0009	-0.0081	-0.0565	0.9786	31.3506	-0.1680	-0.7621	-0.0772	-0.6366	0.0900
1.01	-9.4498	0.0990	1.7500	-0.0002	-0.0065	-0.0578	0.9399	31.3667	-0.1848	-0.7620	-0.0772	-0.6365	0.0900
1.02	-9.4614	0.1082	1.7410	-0.0038	-0.0129	-0.0608	0.9733	31.3795	-0.0735	-0.7621	-0.0772	-0.6366	0.0900
1.03	-9.4491	0.1138	1.7510	-0.0129	-0.0226	-0.0566	1.1068	31.1466	-0.2576	-0.7621	-0.0772	-0.6365	0.0900
1.04	-9.4434	0.1071	1.7604	-0.0254	-0.0182	-0.0566	1.1612	31.0848	-0.2823	-0.7621	-0.0772	-0.6365	0.0900
1.05	-9.4413	0.0804	1.7466	-0.0272	-0.0248	-0.0579	1.0109	31.1924	-0.1538	-0.7622	-0.0771	-0.6365	0.0900
1.06	-9.4331	0.0639	1.7776	-0.0311	-0.0340	-0.0550	0.9531	31.0951	-0.0624	-0.7622	-0.0770	-0.6364	0.0899
1.07	-9.4370	0.0479	1.7680	-0.0293	-0.0239	-0.0568	1.1462	31.0712	-0.0905	-0.7623	-0.0769	-0.6364	0.0898
1.08	-9.4204	0.0354	1.7680	-0.0401	-0.0255	-0.0574	1.0653	31.2943	-0.0795	-0.7623	-0.0768	-0.6363	0.0898
1.09	-9.3940	0.0211	1.7802	-0.0351	-0.0314	-0.0531	0.7937	31.3493	-0.0942	-0.7624	-0.0767	-0.6363	0.0897
1.1	-9.3691	0.0226	1.7926	-0.0380	-0.0273	-0.0531	0.8209	31.2882	-0.0887	-0.7625	-0.0766	-0.6362	0.0896
1.11	-9.4503	0.0371	1.8210	-0.0351	-0.0116	-0.0587	1.1686	31.1364	-0.3707	-0.7625	-0.0765	-0.6362	0.0895
1.12	-9.4580	0.0219	1.7278	-0.0264	-0.0192	-0.0597	1.0171	31.0847	-0.2614	-0.7625	-0.0764	-0.6362	0.0895
1.13	-9.3687	0.0139	1.8399	-0.0314	-0.0404	-0.0656	0.9481	31.2226	-0.0127	-0.7626	-0.0763	-0.6361	0.0895
1.14	-9.3687	-0.0316	1.8220	-0.0284	-0.0108	-0.0706	0.9265	31.1974	-0.1800	-0.7626	-0.0762	-0.6361	0.0895
1.15	-9.4175	-0.0623	1.7699	-0.0267	-0.0164	-0.0614	0.7412	31.4670	-0.1715	-0.7626	-0.0761	-0.6360	0.0894
1.16	-9.3684	-0.0421	1.8230	-0.0271	-0.0378	-0.0509	0.9188	31.5533	-0.2119	-0.7628	-0.0761	-0.6360	0.0894
1.17	-9.3476	-0.0008	1.8802	-0.0269	-0.0265	-0.0528	0.9514	31.3805	-0.2724	-0.7628	-0.0760	-0.6359	0.0893
1.18	-9.3959	0.0281	1.8364	-0.0281	-0.0103	-0.0533	0.9916	31.3678	-0.0696	-0.7629	-0.0760	-0.6360	0.0892
1.19	-9.3927	0.0298	1.8399	-0.0258	-0.0199	-0.0561	0.7480	31.3572	-0.1036	-0.7628	-0.0759	-0.6359	0.0892
1.2	-9.3640	0.0116	1.8783	-0.0270	-0.0239	-0.0562	0.6976	31.3848	-0.0730	-0.7629	-0.0758	-0.6359	0.0891
1.21	-9.3775	-0.0111	1.8536	-0.0269	-0.0139	-0.0494	1.0177	31.4837	-0.1336	-0.7629	-0.0758	-0.6359	0.0891
1.22	-9.3915	0.0024	1.8260	-0.0200	-0.0124	-0.0555	1.1270	31.0746	-0.2825	-0.7629	-0.0757	-0.6358	0.0890
1.23	-9.3962	0.0286	1.8437	-0.0230	-0.0082	-0.0561	1.2328	31.1316	-0.1550	-0.7630	-0.0757	-0.6359	0.0890
1.24	-9.4086	0.0389	1.8285	-0.0219	-0.0032	-0.0566	1.2283	31.0566	-0.1818	-0.7629	-0.0757	-0.6359	0.0890
1.25	-9.4175	0.0399	1.8231	-0.0206	-0.0057	-0.0558	1.1743	31.2550	-0.1589	-0.7629	-0.0756	-0.6360	0.0889
1.26	-9.4321	0.0324	1.8315	-0.0221	-0.0057	-0.0575	1.0228	31.2794	-0.2813	-0.7628	-0.0756	-0.6359	0.0889
1.27	-9.4411	0.0222	1.8134	-0.0249	-0.0139	-0.0577	1.0594	31.3010	-0.1468	-0.7629	-0.0755	-0.6360	0.0889
1.28	-9.4147	0.0179	1.8226	-0.0238	-0.0273	-0.0589	1.0279	31.1953	-0.0390	-0.7629	-0.0755	-0.6359	0.0888
1.29	-9.3932	0.0152	1.8385	-0.0251	-0.0302	-0.0558	1.0707	30.9937	-0.1914	-0.7630	-0.0754	-0.6358	0.0888
1.3	-9.3987	0.0099	1.8239	-0.0270	-0.0253	-0.0540	0.9171	31.0078	-0.0513	-0.7631	-0.0753	-0.6358	0.0887
1.31	-9.3993	-0.0042	1.8303	-0.0267	-0.0240	-0.0526	0.7462	31.3237	-0.1306	-0.7631	-0.0753	-0.6357	0.0887
1.32	-9.3980	-0.0045	1.8320	-0.0264	-0.0172	-0.0543	1.2433	31.5287	0.0391	-0.7632	-0.0752	-0.6357	0.0886
1.33	-9.3948	-0.0029	1.8337	-0.0273	-0.0181	-0.0456	1.5332	31.3292	0.1486	-0.7631	-0.0752	-0.6356	0.0885
1.34	-9.4043	-0.0056	1.8307	-0.0207	-0.0144	-0.0476	1.2792	31.4894	-0.1384	-0.7632	-0.0752	-0.6357	0.0885
1.35	-9.4128	-0.0043	1.8249	-0.0179	-0.0206	-0.0525	1.2621	31.2844	-0.0845	-0.7632	-0.0751	-0.6356	0.0884
1.36	-9.4084	0.0132	1.8320	-0.0272	-0.0251	-0.0455	1.0902	31.2734	-0.1123	-0.7633	-0.0751	-0.6356	0.0883
1.37	-9.4045	0.0261	1.8393	-0.0156	-0.0166	-0.0492	0.8760	31.2593	-0.1169	-0.7633	-0.0751	-0.6355	0.0883
1.38	-9.4061	0.0324	1.8339	-0.0040	-0.0164	-0.0528	1.1269	31.4032	-0.0016	-0.7633	-0.0751	-0.6355	0.0883
1.39	-9.3919	0.0351	1.8400	-0.0133	-0.0224	-0.0560	1.0004	31.6105	-0.2531	-0.7634	-0.0751	-0.6355	0.0883
1.4	-9.3915	0.0555	1.8527	-0.0075	-0.0141	-0.0558	0.8671	31.3124	-0.0914	-0.7633	-0.0751	-0.6354	0.0883
1.41	-9.4001	0.0594	1.8395	-0.0054	-0.0101	-0.0442	1.2989	31.1897	-0.2550	-0.7634	-0.0752	-0.6355	0.0883
1.42	-9.3829	0.0598	1.8451	-0.0066	-0.0298	-0.0538	1.2255	31.2309	-0.2752	-0.7634	-0.0752	-0.6354	0.0883
1.43	-9.3800	0.0696	1.8549	-0.0037	-0.0210	-0.0544	0.9596	30.9283	-0.1547	-0.7635	-0.0752	-0.6354	0.0883
1.44	-9.3788	0.0649	1.8537	-0.0085	-0.0227	-0.0490	1.2399	31.2096	-0.3277	-0.7635	-0.0753	-0.6353	0.0883
1.45	-9.3758	0.0681	1.8603	-0.0148	-0.0233	-0.0497	1.1478	31.2608	-0.2776	-0.7635	-0.0753	-0.6353	0.0883
1.46	-9.3754	0.0724	1.8615	-0.0174	-0.0233	-0.0502	0.9465	31.2634	-0.3325	-0.7636	-0.0753	-0.6352	0.0882
1.47	-9.3652	0.0735	1.8635	-0.0265	-0.0174	-0.0564	1.1522	31.2465	-0.1994	-0.7636	-0.0752	-0.6351	0.0882
1.48	-9.3661	0.0650	1.8754	-0.0262	-0.0114	-0.0540	0.9599	31.2784	-0.2215	-0.7637	-0.0751	-0.6352	0.0881
1.49	-9.3805	0.0544	1.8621	-0.0275	-0.0105	-0.0548	1.2601	31.3630	-0.1809	-0.7636	-0.0751	-0.6352	0.0881
1.5	-9.3763	0.0430	1.8525	-0.0247	-0.0113	-0.0588	1.1896	31.3551	-0.3017	-0.7637	-0.0750	-0.6352	0.0880
1.51	-9.3693	0.0416	1.8617	-0.0270	-0.0017	-0.0629	0.9694	31.2546	-0.2081	-0.7636	-0.0749	-0.6352	0.0880
1.52	-9.3887	0.0415	1.8424	-0.0266	0.0036	-0.0533	1.1682	31.2636	-0.2161	-0.7636	-0.0749	-0.6353	0.0879
1.53	-9.3962	0.0275	1.8294	-0.0269	0.0003	-0.0553	0.8614	31.4063	-0.1701	-0.7635	-0.0748	-0.6353	0.0879
1.54	-9.3972	0.0241	1.8397	-0.0270	-0.0065	-0.0556	0.8374	31.2204	-0.0755	-0.7635	-0.0748	-0.6354	0.0878
1.55	-9.4022	0.0233	1.8315	-0.0269	-0.0041	-0.0616	0.9224	31.3923	-0.2574	-0.7635	-0.0747	-0.6354	0.0878
1.56	-9.3938	0.0147	1.8201	-0.0275	-0.0066	-0.0571	0.8446	31.5353	-0.0233	-0.7635	-0.0746	-0.6354	0.0877
1.57	-9.3704	0.0118	1.8253	-0.0278	-0.0069	-0.0544	1.0135	31.3444	-0.1011	-0.7635	-0.0746	-0.6355	0.0877
1.58	-9.3745	0.0231	1.8398	-0.0258	-0.0002	-0.0546	1.0429	31.3399	-0.1089	-0.7634	-0.0745	-0.6354	0.0876
1.59	-9.4207	0.0214	1.8326	-0.0268	0.0031	-0.0561	0.9711	31.2632	-0.2576	-0.7635	-0.0745	-0.6356	0.0876
1.6	-9.4162	0.0156	1.7894	-0.0264	-0.0078	-0.0568	1.1405	31.2122	-0.1144	-0.7634	-0.0744	-0.6356	0.0875
1.61	-9.3699	0.0100	1.8289	-0.0275	-0.0100	-0.0588	1.1602	31.1551	-0.2098	-0.7635	-0.0743	-0.6356	0.0875
1.62	-9.4076	0.0112	1.8241	-0.0236	0.0087	-0.0615	0.9894	31.2562	-0.0843	-0.7634	-0.0743	-0.6356	0.0874
1.63	-9.4600	0.0315	1.7742	-0.0241	0.0010	-0.0642	1.1476	31.1770	-0.1897	-0.7634	-0.0742	-0.6357	0.0874
1.64	-9.4356	0.0377	1.8040	-0.0274	-0.0181	-0.0642	1.0883	31.2934	-0.3041	-0.7634	-0.0741	-0.6357	0.0874
1.65	-9.4137	0.0185	1.8313	-0.0270	-0.0073	-0.0641	1.1212	31.2331	-0.0704	-0.7633	-0.0740	-0.6357	0.0874
1.66	-9.4433	-0.0038	1.7976	-0.0262	0.0015	-0.0645	1.1013	31.3797	-0.2480	-0.7634	-0.0739	-0.6358	0.0874
1.67	-9.4563	-0.0053	1.8018	-0.0276	-0.0099	-0.0581	1.1156	31.3171	-0.1861	-0.7633	-0.0739	-0.6358	0.0873
1.68	-9.4331	-0.0096	1.8251	-0.0309	-0.0130	-0.0562	1.1013	31.1579	-0.2578	-0.7634	-0.0738	-0.6358	0.0873
1.69	-9.4184	-0.0327	1.8120	-0.0285	-0.0115	-0.0558	1.1208	31.2733	-0.4435	-0.7633	-0.0737	-0.6358	0.0872
1.7	-9.4328	-0.0598	1.7798	-0.0283	-0.0138	-0.0565	0.9686	31.1163	-0.1866	-0.7634	-0.0736	-0.6358	0.0871
1.71	-9.3929	-0.0657	1.7763	-0.0269	-0.0273	-0.0482	1.1057	31.2866	-0.1473	-0.7634	-0.0736	-0.6357	0.0871
1.72	-9.3444	-0.0363	1.8175	-0.0223	-0.0275	-0.0447	1.0418	31.3908	-0.2441	-0.7635	-0.0736	-0.6356	0.0870
1.73	-9.3556	0.0104	1.8093	-0.0082	-0.0055	-0.0369	0.9061	31.2070	-0.0954	-0.7636	-0.0736	-0.6357	0.0869
1.74	-9.3860	0.0378	1.7818	-0.0073	-0.0082	-0.0422	0.9414	31.4730	-0.1128	-0.7635	-0.0737	-0.6357	0.0869
1.75	-9.3906	0.0457	1.7873	-0.0089	-0.0112	-0.0496	0.9312	31.5083	-0.1904	-0.7636	-0.0737	-0.6357	0.0869
1.76	-9.3959	0.0478	1.7837	-0.0026	-0.0060	-0.0561	0.9146	31.2188	-0.2190	-0.7634	-0.0738	-0.6356	0.0869
1.77	-9.4128	0.0522	1.7825	-0.0015	-0.0094	-0.0541	1.1842	31.2854	-0.2085	-0.7635	-0.0738	-0.6357	0.0869
1.78	-9.4135	0.0645	1.7699	-0.0073	-0.0088	-0.0566	0.9874	31.3868	-0.1941	-0.7635	-0.0738	-0.6357	0.0869
1.79	-9.4127	0.0737	1.7805	-0.0135	-0.0123	-0.0617	0.8978	31.2487	-0.2932	-0.7635	-0.0738	-0.6357	0.0869
1.8	-9.4370	0.0917	1.7927	-0.0034	-0.0100	-0.0595	1.0355	31.2675	-0.3120	-0.7635	-0.0738	-0.6357	0.0870
1.81	-9.4677	0.1024	1.7626	-0.0176	-0.0142	-0.0594	1.1710	31.3719	0.1239	-0.7635	-0.0738	-0.6357	0.0870
1.82	-9.4364	0.0956	1.7840	-0.0274	-0.0316	-0.0670	1.6316	31.3427	-0.0720	-0.7636	-0.0737	-0.6356	0.0870
1.83	-9.3952	0.0821	1.8079	-0.0269	-0.0307	-0.0631	1.6677	31.3603	-0.1450	-0.7636	-0.0736	-0.6355	0.0869
1.84	-9.4106	0.0660	1.8026	-0.0296	-0.0222	-0.0630	1.4246	31.2292	-0.1300	-0.7637	-0.0735	-0.6355	0.0869
1.85	-9.4367	0.0556	1.7956	-0.0404	-0.0287	-0.0590	1.1304	31.1150	-0.1092	-0.7637	-0.0734	-0.6354	0.0869
1.86	-9.4265	0.0422	1.8141	-0.0452	-0.0367	-0.0566	1.0716	31.1601	-0.2334	-0.7638	-0.0732	-0.6354	0.0868
1.87	-9.4108	0.0195	1.8263	-0.0507	-0.0369	-0.0493	1.1499	31.0939	-0.3332	-0.7639	-0.0731	-0.6353	0.0866
1.88	-9.3906	-0.0053	1.8103	-0.0522	-0.0319	-0.0552	1.1705	31.2986	-0.1615	-0.7640	-0.0729	-0.6352	0.0865
1.89	-9.3812	-0.0309	1.8303	-0.0473	-0.0288	-0.0553	1.0939	31.4085	-0.3475	-0.7641	-0.0728	-0.6352	0.0864
1.9	-9.3584	-0.0346	1.8047	-0.0446	-0.0182	-0.0518	0.9910	31.3824	-0.2710	-0.7641	-0.0726	-0.6351	0.0863
1.91	-9.4097	-0.0142	1.8638	-0.0289	-0.0123	-0.0457	0.8273	31.2587	-0.2300	-0.7642	-0.0726	-0.6352	0.0862
1.92	-9.4798	-0.0148	1.8004	-0.0283	-0.0062	-0.0506	0.8380	31.5247	-0.3254	-0.7641	-0.0725	-0.6351	0.0861
1.93	-9.4026	-0.0121	1.8162	-0.0325	-0.0382	-0.0561	0.8872	31.7275	-0.1856	-0.7643	-0.0725	-0.6351	0.0860
1.94	-9.3520	-0.0344	1.9040	-0.0326	-0.0274	-0.0601	0.9867	31.4248	-0.4366	-0.7643	-0.0723	-0.6350	0.0860
1.95	-9.4183	-0.0555	1.8257	-0.0289	-0.0111	-0.0608	1.0544	31.2648	-0.0784	-0.7643	-0.0723	-0.6350	0.0859
1.96	-9.3946	-0.0306	1.8232	-0.0246	-0.0327	-0.0477	0.7698	31.3245	-0.1097	-0.7644	-0.0722	-0.6349	0.0859
1.97	-9.3137	0.0045	1.9203	-0.0271	-0.0429	-0.0377	1.1613	31.2024	-0.0688	-0.7645	-0.0722	-0.6348	0.0858
1.98	-9.3514	0.0424	1.9071	-0.0277	-0.0122	-0.0385	1.2497	31.2210	-0.2017	-0.7646	-0.0722	-0.6348	0.0857
1.99	-9.3818	0.0543	1.8592	-0.0251	-0.0124	-0.0446	1.2384	31.1785	-0.3164	-0.7645	-0.0722	-0.6348	0.0856
2	-9.3416	0.0315	1.8971	-0.0252	-0.0259	-0.0408	1.2349	31.0771	-0.4258	-0.7646	-0.0722	-0.6348	0.0855
2.01	-9.3361	0.0126	1.9091	-0.0322	-0.0147	-0.0449	1.2533	31.2337	-0.5679	-0.7646	-0.0721	-0.6347	0.0854
2.02	-9.3607	0.0070	1.8736	-0.0282	-0.0052	-0.0405	1.1031	31.1737	-0.5282	-0.7646	-0.0721	-0.6347	0.0853
2.03	-9.3607	0.0126	1.8770	-0.0270	-0.0122	-0.0404	1.0532	31.2738	-0.2265	-0.7646	-0.0721	-0.6347	0.0851
2.04	-9.3837	0.0276	1.8915	-0.0272	-0.0105	-0.0461	1.0602	31.2942	-0.0944	-0.7646	-0.0720	-0.6347	0.0851
2.05	-9.4098	0.0266	1.8524	-0.0270	-0.0069	-0.0482	1.0726	31.3169	-0.0742	-0.7647	-0.0720	-0.6348	0.0850
2.06	-9.3943	0.0205	1.8607	-0.0260	-0.0172	-0.0562	1.1684	31.2430	-0.2643	-0.7647	-0.0719	-0.6347	0.0849
2.07	-9.3933	0.0130	1.8684	-0.0217	-0.0085	-0.0578	1.1549	31.2442	-0.2166	-0.7647	-0.0719	-0.6347	0.0849
2.08	-9.4046	0.0051	1.8371	-0.0237	-0.0027	-0.0567	1.0760	31.3885	-0.1639	-0.7646	-0.0718	-0.6347	0.0849
2.09	-9.4017	0.0064	1.8583	-0.0264	-0.0180	-0.0537	0.9399	31.5079	-0.2041	-0.7647	-0.0718	-0.6348	0.0848
2.1	-9.4003	0.0073	1.8643	-0.0197	-0.0172	-0.0555	0.8530	31.5485	-0.1771	-0.7647	-0.0718	-0.6347	0.0848
2.11	-9.4061	0.0089	1.8638	-0.0207	-0.0152	-0.0513	0.9705	31.3748	-0.1990	-0.7648	-0.0717	-0.6347	0.0847
2.12	-9.4014	0.0131	1.8639	-0.0205	-0.0171	-0.0533	0.9677	31.2969	-0.1691	-0.7648	-0.0717	-0.6347	0.0847
2.13	-9.3987	0.0079	1.8708	-0.0225	-0.0176	-0.0580	1.1203	31.2896	-0.0772	-0.7648	-0.0716	-0.6347	0.0847
2.14	-9.4042	0.0114	1.8785	-0.0211	-0.0162	-0.0509	1.1329	31.3057	-0.0837	-0.7648	-0.0716	-0.6346	0.0846
2.15	-9.4268	0.0136	1.8606	-0.0190	-0.0110	-0.0458	0.9287	31.2875	-0.1662	-0.7648	-0.0716	-0.6346	0.0846
2.16	-9.4250	0.0176	1.8566	-0.0199	-0.0172	-0.0385	1.1172	31.2088	-0.3069	-0.7649	-0.0716	-0.6346	0.0845
2.17	-9.4117	0.0215	1.8839	-0.0050	-0.0255	-0.0404	1.4325	31.1804	-0.2370	-0.7649	-0.0717	-0.6345	0.0844
2.18	-9.4169	0.0251	1.8777	-0.0004	-0.0205	-0.0438	1.1418	31.0691	-0.3315	-0.7650	-0.0718	-0.6345	0.0844
2.19	-9.4217	0.0371	1.8732	-0.0015	-0.0205	-0.0447	1.1717	31.3314	0.0475	-0.7649	-0.0718	-0.6344	0.0844
2.2	-9.4000	0.0473	1.8932	-0.0010	-0.0345	-0.0467	0.9902	31.2710	0.0745	-0.7651	-0.0719	-0.6343	0.0844
2.21	-9.3811	0.0631	1.9008	-0.0016	-0.0322	-0.0432	1.0245	31.1482	-0.2089	-0.7651	-0.0720	-0.6343	0.0844
2.22	-9.3644	0.0671	1.9063	-0.0105	-0.0319	-0.0522	1.0620	31.0801	-0.1529	-0.7652	-0.0720	-0.6341	0.0844
2.23	-9.3529	0.0642	1.9177	-0.0117	-0.0258	-0.0553	1.1787	31.2702	-0.2100	-0.7653	-0.0720	-0.6342	0.0844
2.24	-9.3388	0.0772	1.9226	-0.0104	-0.0263	-0.0548	1.0863	31.2505	-0.2757	-0.7653	-0.0720	-0.6340	0.0844
2.25	-9.3402	0.0842	1.9340	-0.0032	-0.0154	-0.0529	0.8985	31.2329	-0.0647	-0.7654	-0.0720	-0.6340	0.0844
2.26	-9.3502	0.0899	1.9263	-0.0123	-0.0126	-0.0575	1.1141	31.4912	-0.1981	-0.7653	-0.0720	-0.6340	0.0844
2.27	-9.3557	0.0965	1.9279	-0.0227	-0.0156	-0.0556	1.1191	31.3722	-0.1784	-0.7654	-0.0719	-0.6340	0.0844
2.28	-9.3588	0.0875	1.9254	-0.0272	-0.0121	-0.0544	1.0654	31.5258	-0.0143	-0.7654	-0.0719	-0.6340	0.0843
2.29	-9.3704	0.0954	1.9162	-0.0270	-0.0035	-0.0523	0.9962	31.3764	-0.0301	-0.7653	-0.0718	-0.6340	0.0843
2.3	-9.3782	0.0911	1.9092	-0.0268	-0.0075	-0.0513	0.8623	31.3756	-0.4563	-0.7654	-0.0718	-0.6340	0.0842
2.31	-9.3854	0.0756	1.9031	-0.0280	-0.0088	-0.0556	1.1636	31.5334	-0.1292	-0.7654	-0.0717	-0.6340	0.0841
2.32	-9.3975	0.0698	1.9052	-0.0295	-0.0055	-0.0547	1.3631	31.5659	0.0565	-0.7654	-0.0717	-0.6341	0.0841
2.33	-9.3976	0.0577	1.8931	-0.0337	-0.0123	-0.0626	1.5643	31.5832	-0.1116	-0.7653	-0.0715	-0.6340	0.0840
2.34	-9.3801	0.0331	1.9053	-0.0381	-0.0140	-0.0546	1.1852	31.3110	-0.1707	-0.7654	-0.0714	-0.6341	0.0840
2.35	-9.3844	0.0216	1.9138	-0.0342	-0.0115	-0.0563	1.1106	31.0596	-0.2430	-0.7654	-0.0714	-0.6341	0.0839
2.36	-9.3912	0.0174	1.8833	-0.0290	-0.0109	-0.0578	1.1513	31.3014	-0.2884	-0.7654	-0.0713	-0.6341	0.0838
2.37	-9.3829	0.0110	1.8821	-0.0264	-0.0109	-0.0522	1.0841	31.3536	-0.3029	-0.7654	-0.0712	-0.6341	0.0838
2.38	-9.3630	0.0098	1.8828	-0.0279	-0.0089	-0.0544	1.2541	31.1192	-0.1508	-0.7654	-0.0712	-0.6341	0.0837
2.39	-9.3687	0.0075	1.8763	-0.0268	-0.0072	-0.0584	1.0770	31.2568	-0.2742	-0.7654	-0.0711	-0.6341	0.0837
2.4	-9.3740	0.0105	1.8609	-0.0280	-0.0014	-0.0526	0.8947	31.2612	-0.3122	-0.7653	-0.0710	-0.6341	0.0836
2.41	-9.3612	0.0119	1.8708	-0.0275	-0.0094	-0.0530	1.0549	31.3702	-0.1742	-0.7654	-0.0710	-0.6342	0.0835
2.42	-9.3528	0.0207	1.8764	-0.0275	-0.0057	-0.0474	0.9754	31.3376	-0.0763	-0.7654	-0.0709	-0.6342	0.0834
2.43	-9.3625	0.0273	1.8783	-0.0270	-0.0024	-0.0480	1.1163	31.1521	-0.1792	-0.7654	-0.0709	-0.6342	0.0834
2.44	-9.4018	0.0360	1.8614	-0.0278	-0.0016	-0.0532	1.0047	31.2935	-0.3092	-0.7653	-0.0709	-0.6342	0.0833
2.45	-9.3842	0.0309	1.8291	-0.0227	-0.0040	-0.0508	0.9138	31.2202	-0.0415	-0.7654	-0.0708	-0.6343	0.0832
2.46	-9.3546	0.0291	1.8860	-0.0223	-0.0030	-0.0503	0.9159	31.3877	-0.1999	-0.7653	-0.0708	-0.6343	0.0832
2.47	-9.4065	0.0385	1.8545	-0.0268	0.0223	-0.0500	1.0117	31.4589	-0.1437	-0.7652	-0.0708	-0.6344	0.0831
2.48	-9.4630	0.0474	1.8173	-0.0228	0.0169	-0.0535	1.0171	31.4477	-0.0705	-0.7652	-0.0708	-0.6346	0.0830
2.49	-9.4359	0.0420	1.8341	-0.0268	-0.0041	-0.0564	1.0305	31.4069	-0.1905	-0.7651	-0.0707	-0.6345	0.0830
2.5	-9.4054	0.0294	1.8527	-0.0272	-0.0075	-0.0590	0.9526	31.3335	-0.1374	-0.7652	-0.0706	-0.6346	0.0830
2.51	-9.4239	0.0206	1.8334	-0.0271	0.0041	-0.0562	0.9042	31.3630	-0.1025	-0.7651	-0.0706	-0.6346	0.0829
2.52	-9.4580	0.0255	1.8347	-0.0274	-0.0043	-0.0554	1.0613	31.2439	-0.2132	-0.7651	-0.0705	-0.6347	0.0828
2.53	-9.4757	0.0186	1.8450	-0.0274	-0.0187	-0.0525	0.9615	31.2581	-0.2371	-0.7651	-0.0704	-0.6346	0.0828
2.54	-9.4411	0.0001	1.8351	-0.0266	-0.0338	-0.0500	1.1784	31.0369	-0.3217	-0.7652	-0.0704	-0.6345	0.0827
2.55	-9.3899	-0.0271	1.8548	-0.0276	-0.0314	-0.0531	1.3003	31.3313	-0.2653	-0.7653	-0.0703	-0.6345	0.0827
2.56	-9.3491	-0.0590	1.8314	-0.0275	-0.0330	-0.0452	1.1459	31.1829	-0.1881	-0.7654	-0.0703	-0.6344	0.0826
2.57	-9.3010	-0.0555	1.8542	-0.0259	-0.0326	-0.0348	1.0317	31.0475	-0.1978	-0.7655	-0.0703	-0.6343	0.0825
2.58	-9.2887	-0.0260	1.8668	-0.0070	-0.0122	-0.0359	1.0030	31.1768	-0.1939	-0.7654	-0.0703	-0.6342	0.0824
2.59	-9.3264	0.0107	1.8353	0.0010	-0.0024	-0.0350	1.0228	31.3030	-0.3181	-0.7655	-0.0705	-0.6343	0.0824
2.6	-9.3513	0.0308	1.8308	0.0034	0.0050	-0.0365	1.1816	31.3607	-0.2647	-0.7654	-0.0706	-0.6343	0.0823
2.61	-9.3598	0.0446	1.8286	0.0061	0.0054	-0.0451	1.1544	31.3731	-0.0952	-0.7654	-0.0707	-0.6344	0.0823
2.62	-9.3722	0.0592	1.8206	0.0199	0.0063	-0.0482	0.9648	31.2371	-0.1268	-0.7653	-0.0708	-0.6344	0.0824
2.63	-9.3973	0.0806	1.8215	0.0186	0.0085	-0.0557	1.0816	31.1949	-0.1990	-0.7652	-0.0710	-0.6345	0.0825
2.64	-9.4231	0.1122	1.8109	0.0179	0.0121	-0.0580	1.0583	31.4869	-0.2588	-0.7652	-0.0711	-0.6346	0.0826
2.65	-9.4347	0.1446	1.8119	0.0125	0.0040	-0.0560	0.9955	31.3351	-0.3314	-0.7651	-0.0712	-0.6346	0.0826
2.66	-9.4474	0.1735	1.8266	-0.0035	0.0013	-0.0652	1.0274	31.3639	-0.0508	-0.7651	-0.0712	-0.6347	0.0827
2.67	-9.4492	0.1715	1.8131	0.0002	-0.0082	-0.0587	1.0127	31.4970	-0.3397	-0.7650	-0.0712	-0.6346	0.0827
2.68	-9.4204	0.1555	1.8265	-0.0160	-0.0121	-0.0573	1.0176	31.5588	-0.3965	-0.7651	-0.0712	-0.6347	0.0827
2.69	-9.4032	0.1527	1.8593	-0.0273	-0.0101	-0.0577	1.0238	31.4193	0.0609	-0.7650	-0.0711	-0.6346	0.0827
2.7	-9.4084	0.1297	1.8248	-0.0277	-0.0031	-0.0563	0.9998	31.4644	-0.2346	-0.7651	-0.0710	-0.6347	0.0826
2.71	-9.3662	0.1129	1.8419	-0.0264	-0.0189	-0.0561	0.8766	31.3887	-0.0653	-0.7651	-0.0710	-0.6347	0.0826
2.72	-9.3714	0.1004	1.8728	-0.0352	-0.0149	-0.0526	1.0850	31.2820	-0.0728	-0.7651	-0.0709	-0.6346	0.0825
2.73	-9.4088	0.0712	1.8199	-0.0473	0.0017	-0.0495	1.2370	31.1373	-0.2169	-0.7652	-0.0708	-0.6347	0.0824
2.74	-9.4140	0.0471	1.8256	-0.0447	-0.0108	-0.0545	1.1297	31.2534	-0.2233	-0.7651	-0.0707	-0.6347	0.0823
2.75	-9.3685	0.0323	1.8316	-0.0515	-0.0163	-0.0532	1.1168	31.2021	-0.3243	-0.7652	-0.0705	-0.6347	0.0821
2.76	-9.4178	0.0456	1.8789	-0.0438	0.0028	-0.0552	1.0018	31.1675	-0.2715	-0.7651	-0.0704	-0.6347	0.0820
2.77	-9.4695	0.0330	1.7815	-0.0440	0.0058	-0.0631	0.9314	31.3807	-0.3095	-0.7651	-0.0702	-0.6348	0.0819
2.78	-9.3773	0.0417	1.8477	-0.0384	-0.0309	-0.0654	1.0484	31.3812	-0.2868	-0.7651	-0.0701	-0.6348	0.0819
2.79	-9.3567	-0.0035	1.8906	-0.0358	-0.0094	-0.0690	0.9959	31.4863	-0.3056	-0.7651	-0.0700	-0.6348	0.0819
2.8	-9.4058	-0.0281	1.7926	-0.0323	0.0060	-0.0628	1.1173	31.2265	-0.2888	-0.7651	-0.0699	-0.6349	0.0818
2.81	-9.3510	-0.0254	1.8378	-0.0298	-0.0213	-0.0570	1.1181	31.2881	-0.1556	-0.7651	-0.0698	-0.6348	0.0818
2.82	-9.3343	-0.0029	1.8887	-0.0262	-0.0060	-0.0564	1.5065	31.4725	-0.0512	-0.7652	-0.0697	-0.6349	0.0817
2.83	-9.3999	0.0360	1.8300	-0.0275	0.0210	-0.0489	1.6837	31.7335	0.0905	-0.7650	-0.0697	-0.6349	0.0816
2.84	-9.4122	0.0372	1.8303	-0.0256	-0.0022	-0.0510	1.3752	31.5736	-0.0984	-0.7651	-0.0696	-0.6350	0.0816
2.85	-9.4020	0.0199	1.8721	-0.0273	-0.0029	-0.0559	1.1444	31.4844	-0.0777	-0.7650	-0.0696	-0.6350	0.0815
2.86	-9.4345	0.0045	1.8359	-0.0261	0.0123	-0.0555	1.0100	31.2938	-0.0643	-0.7650	-0.0695	-0.6351	0.0814
2.87	-9.4429	0.0088	1.8149	-0.0280	-0.0026	-0.0536	0.9531	31.3727	-0.2032	-0.7649	-0.0695	-0.6351	0.0814
2.88	-9.4107	0.0109	1.8307	-0.0240	-0.0121	-0.0545	1.1321	31.3727	-0.3050	-0.7649	-0.0694	-0.6351	0.0813
2.89	-9.3979	0.0291	1.8305	-0.0254	-0.0107	-0.0566	0.9272	31.5462	-0.2285	-0.7650	-0.0694	-0.6352	0.0813
2.9	-9.4050	0.0237	1.8182	-0.0188	-0.0082	-0.0558	0.8602	31.4871	-0.0949	-0.7649	-0.0693	-0.6351	0.0813
2.91	-9.4010	0.0232	1.8210	-0.0196	-0.0094	-0.0562	0.9987	31.1133	0.0300	-0.7650	-0.0693	-0.6352	0.0812
2.92	-9.3940	0.0042	1.8257	-0.0224	-0.0175	-0.0565	1.1159	30.9799	-0.1896	-0.7650	-0.0692	-0.6351	0.0812
2.93	-9.4023	-0.0010	1.8100	-0.0161	-0.0104	-0.0626	1.1658	31.0813	-0.3261	-0.7651	-0.0692	-0.6352	0.0812
2.94	-9.4043	0.0097	1.8153	-0.0198	-0.0081	-0.0571	1.1339	31.2221	-0.1343	-0.7649	-0.0692	-0.6351	0.0812
2.95	-9.4103	0.0010	1.8163	-0.0136	-0.0047	-0.0551	1.4049	30.9189	-0.1073	-0.7650	-0.0692	-0.6352	0.0812
2.96	-9.4297	0.0099	1.8239	-0.0092	-0.0061	-0.0519	1.0226	31.2014	-0.1890	-0.7650	-0.0692	-0.6352	0.0812
2.97	-9.4554	0.0118	1.8201	-0.0142	-0.0099	-0.0424	0.9509	31.3209	-0.2470	-0.7649	-0.0692	-0.6351	0.0811
2.98	-9.4539	-0.0002	1.8087	-0.0133	-0.0142	-0.0448	0.9839	31.2434	-0.4035	-0.7650	-0.0692	-0.6352	0.0811
2.99	-9.4288	-0.0044	1.8255	-0.0065	-0.0208	-0.0356	0.9769	31.3228	-0.1861	-0.7650	-0.0693	-0.6351	0.0810
3	-9.4213	0.0038	1.8370	-0.0034	-0.0230	-0.0395	1.1818	31.4327	-0.1988	-0.7651	-0.0694	-0.6351	0.0810
3.01	-9.4151	0.0139	1.8160	-0.0010	-0.0164	-0.0432	1.0459	31.4826	-0.1721	-0.7650	-0.0694	-0.6350	0.0810
3.02	-9.3918	0.0282	1.8352	-0.0031	-0.0240	-0.0418	1.0877	31.5190	0.0139	-0.7652	-0.0695	-0.6350	0.0809
3.03	-9.3842	0.0366	1.8520	-0.0027	-0.0243	-0.0442	1.0056	31.1052	0.0183	-0.7652	-0.0696	-0.6349	0.0809
3.04	-9.3941	0.0518	1.8455	0.0012	-0.0154	-0.0403	0.9568	31.1364	-0.3822	-0.7652	-0.0697	-0.6348	0.0809
3.05	-9.3989	0.0754	1.8502	0.0019	-0.0175	-0.0432	0.9822	31.4435	-0.3346	-0.7653	-0.0697	-0.6348	0.0809
3.06	-9.3767	0.0870	1.8617	0.0001	-0.0225	-0.0470	0.9716	31.2494	-0.1896	-0.7653	-0.0698	-0.6348	0.0809
3.07	-9.3590	0.1005	1.8693	-0.0047	-0.0199	-0.0508	0.9652	31.2618	-0.2537	-0.7653	-0.0698	-0.6347	0.0809
3.08	-9.3539	0.1069	1.8686	-0.0005	-0.0234	-0.0474	1.0455	31.5229	-0.1484	-0.7653	-0.0699	-0.6346	0.0809
3.09	-9.3481	0.1057	1.8765	-0.0007	-0.0226	-0.0484	1.3073	31.1854	-0.2006	-0.7654	-0.0700	-0.6346	0.0809
3.1	-9.3418	0.1118	1.8765	-0.0036	-0.0118	-0.0458	0.9875	31.0793	-0.1793	-0.7654	-0.0700	-0.6346	0.0809
3.11	-9.3372	0.1130	1.8846	-0.0035	-0.0168	-0.0448	1.0388	31.1274	-0.4017	-0.7654	-0.0701	-0.6346	0.0809
3.12	-9.3348	0.1130	1.8803	-0.0155	-0.0067	-0.0519	1.0676	30.9840	-0.3165	-0.7654	-0.0701	-0.6345	0.0809
3.13	-9.3504	0.1059	1.8740	-0.0245	-0.0052	-0.0504	1.0719	31.1791	-0.3100	-0.7654	-0.0700	-0.6346	0.0808
3.14	-9.3734	0.1031	1.8564	-0.0205	0.0040	-0.0503	1.0016	31.1422	-0.3400	-0.7654	-0.0700	-0.6346	0.0808
3.15	-9.3813	0.1069	1.8532	-0.0224	0.0062	-0.0532	1.0122	31.0702	-0.1525	-0.7653	-0.0700	-0.6346	0.0807
3.16	-9.3922	0.1065	1.8564	-0.0241	0.0127	-0.0549	1.2231	31.2341	-0.2892	-0.7653	-0.0700	-0.6348	0.0807
3.17	-9.4074	0.1012	1.8360	-0.0242	0.0090	-0.0607	1.3460	31.1423	-0.2810	-0.7652	-0.0699	-0.6349	0.0806
3.18	-9.4129	0.0905	1.8326	-0.0293	0.0093	-0.0553	1.0705	31.0763	-0.1954	-0.7652	-0.0698	-0.6350	0.0806
3.19	-9.4068	0.0774	1.8295	-0.0274	0.0087	-0.0643	1.0468	31.2076	-0.1696	-0.7651	-0.0698	-0.6350	0.0805
3.2	-9.4134	0.0754	1.8125	-0.0268	0.0122	-0.0602	0.9701	31.2900	-0.3061	-0.7651	-0.0697	-0.6351	0.0805
3.21	-9.4045	0.0591	1.8067	-0.0265	0.0006	-0.0611	0.9517	31.2880	-0.2555	-0.7650	-0.0696	-0.6352	0.0805
3.22	-9.4049	0.0429	1.8173	-0.0335	0.0065	-0.0605	1.0782	31.5618	-0.3118	-0.7649	-0.0695	-0.6352	0.0804
3.23	-9.4276	0.0388	1.7964	-0.0286	0.0091	-0.0565	0.9457	31.4347	-0.0455	-0.7650	-0.0695	-0.6354	0.0803
3.24	-9.4304	0.0205	1.7793	-0.0255	-0.0045	-0.0526	0.8793	31.3455	-0.1448	-0.7649	-0.0694	-0.6353	0.0803
3.25	-9.4300	0.0186	1.7928	-0.0282	-0.0009	-0.0556	0.8592	31.6019	-0.2105	-0.7649	-0.0694	-0.6354	0.0802
3.26	-9.4325	0.0229	1.7878	-0.0261	-0.0015	-0.0523	1.0805	31.3189	-0.1718	-0.7648	-0.0693	-0.6354	0.0802
3.27	-9.4235	0.0227	1.7864	-0.0258	-0.0100	-0.0452	1.0410	31.4322	-0.0854	-0.7649	-0.0693	-0.6354	0.0801
3.28	-9.4139	0.0129	1.7977	-0.0253	-0.0083	-0.0498	1.1306	31.2029	-0.4337	-0.7649	-0.0692	-0.6354	0.0800
3.29	-9.4087	0.0160	1.7927	-0.0251	-0.0045	-0.0514	1.0907	31.0504	-0.1617	-0.7648	-0.0692	-0.6354	0.0799
3.3	-9.4013	0.0286	1.7942	-0.0114	-0.0052	-0.0528	1.0409	31.2207	-0.2110	-0.7649	-0.0692	-0.6355	0.0799
3.31	-9.3898	0.0259	1.7997	-0.0068	-0.0083	-0.0503	1.0824	31.1962	-0.2363	-0.7648	-0.0692	-0.6355	0.0799
3.32	-9.4026	0.0213	1.8133	-0.0070	-0.0040	-0.0456	1.5034	31.3445	0.0058	-0.7649	-0.0693	-0.6355	0.0799
3.33	-9.4385	0.0306	1.7932	-0.0059	-0.0066	-0.0429	1.7788	31.1500	-0.3142	-0.7648	-0.0693	-0.6354	0.0799
3.34	-9.4459	0.0429	1.7855	-0.0078	-0.0143	-0.0455	1.1672	31.3453	-0.1148	-0.7649	-0.0694	-0.6355	0.0798
3.35	-9.4208	0.0463	1.8141	-0.0065	-0.0180	-0.0414	0.9647	31.4309	-0.2138	-0.7649	-0.0694	-0.6354	0.0798
3.36	-9.4121	0.0527	1.8057	-0.0066	-0.0092	-0.0423	0.9346	31.1977	-0.3491	-0.7649	-0.0695	-0.6354	0.0798
3.37	-9.3984	0.0538	1.7987	-0.0048	-0.0233	-0.0417	0.7163	31.1447	-0.1820	-0.7649	-0.0696	-0.6354	0.0797
3.38	-9.3756	0.0526	1.8141	-0.0069	-0.0221	-0.0455	0.9488	31.3229	-0.2638	-0.7650	-0.0696	-0.6353	0.0797
3.39	-9.3818	0.0581	1.8127	-0.0001	-0.0019	-0.0454	0.8892	31.3205	-0.1230	-0.7650	-0.0697	-0.6353	0.0797
3.4	-9.3737	0.0578	1.7907	-0.0042	-0.0087	-0.0485	0.8354	31.4429	-0.2295	-0.7649	-0.0697	-0.6353	0.0797
3.41	-9.3784	0.0587	1.8279	-0.0004	-0.0099	-0.0512	0.9802	31.3964	-0.2004	-0.7650	-0.0698	-0.6354	0.0797
3.42	-9.4219	0.0650	1.8127	-0.0024	0.0042	-0.0547	0.9160	31.2134	-0.1322	-0.7649	-0.0698	-0.6354	0.0797
3.43	-9.4110	0.0571	1.7766	0.0014	-0.0094	-0.0543	1.0246	31.2686	-0.2875	-0.7649	-0.0699	-0.6354	0.0798
3.44	-9.3847	0.0606	1.8372	-0.0030	-0.0132	-0.0565	1.0452	31.2488	0.0098	-0.7649	-0.0699	-0.6353	0.0798
3.45	-9.4287	0.0644	1.8032	0.0022	0.0016	-0.0523	1.0291	31.4791	-0.0712	-0.7649	-0.0700	-0.6354	0.0798
3.46	-9.4488	0.0662	1.7798	0.0009	-0.0094	-0.0496	1.0468	31.3924	0.0111	-0.7649	-0.0700	-0.6354	0.0798
3.47	-9.4142	0.0719	1.8200	-0.0040	-0.0221	-0.0454	1.0282	31.1724	-0.2148	-0.7649	-0.0701	-0.6353	0.0798
3.48	-9.4021	0.0726	1.8279	-0.0073	-0.0134	-0.0439	0.9515	31.0607	-0.2185	-0.7650	-0.0701	-0.6354	0.0798
3.49	-9.4199	0.0767	1.8157	-0.0057	-0.0132	-0.0426	1.0557	31.3656	-0.0797	-0.7649	-0.0702	-0.6353	0.0797
3.5	-9.4454	0.0861	1.8231	-0.0093	-0.0202	-0.0426	1.0342	31.2815	-0.2050	-0.7650	-0.0702	-0.6353	0.0797
3.51	-9.4305	0.0838	1.8334	-0.0179	-0.0250	-0.0443	1.0254	31.1485	-0.3115	-0.7650	-0.0702	-0.6351	0.0796
3.52	-9.4027	0.0606	1.8344	-0.0116	-0.0303	-0.0440	1.0616	31.2835	-0.2037	-0.7651	-0.0703	-0.6351	0.0796
3.53	-9.3914	0.0462	1.8361	-0.0116	-0.0222	-0.0424	0.9648	31.2263	-0.2200	-0.7651	-0.0703	-0.6351	0.0796
3.54	-9.3472	0.0336	1.8199	0.0008	-0.0255	-0.0359	1.0014	31.3347	-0.2256	-0.7652	-0.0704	-0.6350	0.0795
3.55	-9.3065	0.0558	1.8408	-0.0041	-0.0242	-0.0322	1.1552	31.3508	-0.2113	-0.7653	-0.0705	-0.6349	0.0795
3.56	-9.3197	0.1069	1.8349	-0.0007	-0.0067	-0.0324	1.1060	31.3339	-0.1042	-0.7652	-0.0706	-0.6349	0.0794
3.57	-9.3473	0.1381	1.8056	-0.0029	-0.0039	-0.0398	0.9337	31.3538	-0.1428	-0.7653	-0.0707	-0.6349	0.0794
3.58	-9.3600	0.1642	1.7987	-0.0001	0.0044	-0.0442	1.0435	31.3231	-0.1121	-0.7651	-0.0708	-0.6349	0.0793
3.59	-9.3665	0.1764	1.8012	0.0012	0.0061	-0.0547	1.0214	31.3716	-0.2589	-0.7652	-0.0708	-0.6350	0.0794
3.6	-9.3888	0.1833	1.7883	0.0038	0.0039	-0.0587	0.9200	31.2724	-0.1670	-0.7651	-0.0709	-0.6351	0.0794
3.61	-9.4087	0.2049	1.7820	0.0029	0.0032	-0.0602	0.9619	31.3033	-0.0949	-0.7651	-0.0709	-0.6351	0.0795
3.62	-9.4255	0.2181	1.7841	-0.0013	0.0026	-0.0666	0.9350	31.4586	-0.2510	-0.7650	-0.0709	-0.6351	0.0796
3.63	-9.4498	0.2214	1.7734	-0.0083	0.0075	-0.0655	1.0872	31.2850	-0.3231	-0.7649	-0.0709	-0.6352	0.0796
3.64	-9.4609	0.2130	1.7598	-0.0211	-0.0068	-0.0702	0.9508	31.4214	-0.3137	-0.7649	-0.0709	-0.6353	0.0796
3.65	-9.4424	0.1848	1.7729	-0.0271	-0.0094	-0.0716	1.0063	31.4316	-0.3118	-0.7649	-0.0707	-0.6352	0.0796
3.66	-9.4502	0.1613	1.7786	-0.0312	-0.0097	-0.0723	1.2775	31.3345	-0.3214	-0.7650	-0.0706	-0.6353	0.0796
3.67	-9.4607	0.1268	1.7590	-0.0447	-0.0135	-0.0726	1.1404	31.0343	-0.2820	-0.7649	-0.0704	-0.6353	0.0796
3.68	-9.4528	0.0983	1.7689	-0.0496	-0.0224	-0.0678	1.1359	31.2359	-0.3880	-0.7650	-0.0702	-0.6353	0.0795
3.69	-9.4443	0.0789	1.7827	-0.0523	-0.0214	-0.0605	1.0213	31.2596	-0.4154	-0.7650	-0.0701	-0.6352	0.0794
3.7	-9.4528	0.0536	1.7661	-0.0530	-0.0193	-0.0615	1.0549	31.0313	-0.2652	-0.7651	-0.0699	-0.6352	0.0793
3.71	-9.4284	0.0264	1.7736	-0.0527	-0.0313	-0.0607	0.9746	31.0911	-0.1650	-0.7652	-0.0697	-0.6352	0.0792
3.72	-9.4159	0.0121	1.7887	-0.0496	-0.0290	-0.0557	0.9331	31.1256	-0.3973	-0.7652	-0.0695	-0.6351	0.0791
3.73	-9.3909	0.0202	1.7818	-0.0430	-0.0244	-0.0573	0.9495	31.2999	-0.4118	-0.7653	-0.0694	-0.6351	0.0790
3.74	-9.4485	0.0443	1.8470	-0.0290	-0.0257	-0.0566	0.8186	31.1998	-0.2527	-0.7653	-0.0693	-0.6350	0.0789
3.75	-9.4668	0.0327	1.7584	-0.0302	-0.0244	-0.0571	1.1440	31.3879	-0.1553	-0.7654	-0.0692	-0.6350	0.0789
3.76	-9.3713	0.0360	1.8462	-0.0325	-0.0485	-0.0556	1.0324	31.5526	-0.1034	-0.7655	-0.0691	-0.6348	0.0788
3.77	-9.3765	0.0189	1.8709	-0.0268	-0.0222	-0.0629	0.9308	31.1542	-0.1712	-0.7656	-0.0690	-0.6348	0.0788
3.78	-9.4196	0.0164	1.7891	-0.0273	-0.0190	-0.0629	0.7680	31.5409	-0.3897	-0.7656	-0.0690	-0.6347	0.0788
3.79	-9.3411	0.0404	1.8561	-0.0267	-0.0433	-0.0476	0.8480	31.3505	-0.1883	-0.7657	-0.0689	-0.6346	0.0787
3.8	-9.3405	0.0639	1.9089	-0.0277	-0.0173	-0.0489	0.8536	31.3441	-0.3555	-0.7658	-0.0689	-0.6346	0.0787
3.81	-9.4207	0.1008	1.8371	-0.0226	-0.0023	-0.0428	0.8969	31.3092	-0.1146	-0.7657	-0.0688	-0.6346	0.0786
3.82	-9.3998	0.1096	1.8415	-0.0255	-0.0291	-0.0518	1.3908	31.4702	-0.0025	-0.7658	-0.0688	-0.6346	0.0785
3.83	-9.3558	0.0933	1.9004	-0.0301	-0.0299	-0.0506	1.4684	31.5589	-0.1203	-0.7658	-0.0687	-0.6344	0.0784
3.84	-9.3759	0.0759	1.8561	-0.0272	-0.0192	-0.0411	1.4613	31.3201	-0.3176	-0.7659	-0.0687	-0.6345	0.0783
3.85	-9.3799	0.0697	1.8545	-0.0270	-0.0271	-0.0393	1.3787	31.1511	-0.3486	-0.7660	-0.0687	-0.6344	0.0782
3.86	-9.3641	0.0846	1.8802	-0.0271	-0.0248	-0.0461	1.0997	31.1701	-0.0478	-0.7661	-0.0687	-0.6343	0.0781
3.87	-9.3576	0.0942	1.8746	-0.0186	-0.0161	-0.0431	1.2300	31.1029	-0.1881	-0.7661	-0.0687	-0.6343	0.0781
3.88	-9.3616	0.0964	1.8647	-0.0210	-0.0128	-0.0450	1.1949	31.1909	-0.3011	-0.7661	-0.0687	-0.6343	0.0780
3.89	-9.3538	0.0951	1.8667	-0.0211	-0.0147	-0.0574	1.2157	31.3503	-0.4286	-0.7661	-0.0686	-0.6343	0.0780
3.9	-9.3526	0.0968	1.8655	-0.0253	-0.0133	-0.0554	1.2062	31.2715	-0.4882	-0.7661	-0.0686	-0.6342	0.0779
3.91	-9.3801	0.0977	1.8529	-0.0235	-0.0060	-0.0563	1.1070	31.3310	-0.2982	-0.7662	-0.0685	-0.6343	0.0779
3.92	-9.3999	0.1024	1.8395	-0.0205	-0.0065	-0.0556	1.2701	31.2645	-0.3127	-0.7661	-0.0685	-0.6343	0.0778
3.93	-9.3947	0.1002	1.8529	-0.0239	-0.0114	-0.0522	1.0608	31.1627	-0.3389	-0.7662	-0.0684	-0.6343	0.0778
3.94	-9.3956	0.0878	1.8503	-0.0242	-0.0107	-0.0474	0.9139	31.5057	-0.0413	-0.7661	-0.0684	-0.6342	0.0777
3.95	-9.4023	0.0875	1.8387	-0.0257	-0.0055	-0.0516	1.0861	31.5862	-0.2520	-0.7661	-0.0684	-0.6343	0.0777
3.96	-9.3904	0.0889	1.8452	-0.0274	-0.0192	-0.0532	0.9318	31.3645	-0.2738	-0.7662	-0.0683	-0.6343	0.0776
3.97	-9.3941	0.0774	1.8572	-0.0272	-0.0061	-0.0474	0.7101	31.4854	-0.2856	-0.7661	-0.0683	-0.6343	0.0775
3.98	-9.3953	0.0743	1.8319	-0.0278	-0.0142	-0.0498	1.0084	31.4621	-0.1634	-0.7662	-0.0682	-0.6343	0.0774
3.99	-9.3736	0.0749	1.8490	-0.0267	-0.0200	-0.0525	1.1385	31.3940	-0.0483	-0.7662	-0.0682	-0.6342	0.0774
4	-9.3934	0.0819	1.8559	-0.0237	-0.0117	-0.0518	0.9055	31.5743	-0.1641	-0.7663	-0.0681	-0.6343	0.0773
4.01	-9.4173	0.0882	1.8185	-0.0200	-0.0043	-0.0479	1.0498	31.5695	-0.2830	-0.7662	-0.0681	-0.6342	0.0773
4.02	-9.4090	0.0907	1.8312	-0.0194	-0.0124	-0.0501	1.1243	31.5526	-0.1651	-0.7662	-0.0681	-0.6343	0.0772
4.03	-9.4054	0.0930	1.8449	-0.0181	-0.0163	-0.0494	1.1457	31.2587	-0.1802	-0.7663	-0.0681	-0.6342	0.0772
4.04	-9.4203	0.1065	1.8273	-0.0147	-0.0098	-0.0595	1.3094	31.1360	-0.1681	-0.7662	-0.0681	-0.6342	0.0772
4.05	-9.4195	0.1090	1.8305	-0.0101	-0.0128	-0.0546	1.2863	31.0294	-0.2551	-0.7663	-0.0681	-0.6342	0.0772
4.06	-9.4023	0.1080	1.8393	-0.0100	-0.0238	-0.0539	1.3043	31.1737	-0.4414	-0.7663	-0.0681	-0.6342	0.0772
4.07	-9.3969	0.1158	1.8447	-0.0144	-0.0123	-0.0575	1.2816	31.0721	-0.3821	-0.7664	-0.0681	-0.6342	0.0772
4.08	-9.3894	0.1177	1.8358	-0.0252	-0.0213	-0.0566	1.3283	31.3342	-0.3562	-0.7663	-0.0680	-0.6341	0.0771
4.09	-9.3720	0.1172	1.8424	-0.0235	-0.0259	-0.0508	1.0337	31.2623	-0.3464	-0.7664	-0.0680	-0.6341	0.0771
4.1	-9.3632	0.1279	1.8567	-0.0256	-0.0246	-0.0548	1.2526	31.2451	-0.2426	-0.7665	-0.0679	-0.6340	0.0770
4.11	-9.3593	0.1319	1.8586	-0.0268	-0.0182	-0.0524	1.2549	31.3333	-0.2758	-0.7665	-0.0679	-0.6340	0.0770
4.12	-9.3581	0.1192	1.8633	-0.0279	-0.0141	-0.0570	1.0938	31.2848	-0.2794	-0.7665	-0.0678	-0.6340	0.0769
4.13	-9.3496	0.1174	1.8661	-0.0273	-0.0134	-0.0594	1.1145	31.4440	-0.1086	-0.7665	-0.0677	-0.6340	0.0769
4.14	-9.3561	0.1083	1.8653	-0.0275	-0.0049	-0.0570	0.9738	31.5135	-0.1380	-0.7666	-0.0677	-0.6340	0.0768
4.15	-9.3632	0.0991	1.8472	-0.0271	-0.0005	-0.0573	1.1537	31.3673	-0.2102	-0.7665	-0.0676	-0.6340	0.0768
4.16	-9.3537	0.0865	1.8484	-0.0282	-0.0044	-0.0630	0.9843	31.5275	-0.0519	-0.7665	-0.0675	-0.6341	0.0768
4.17	-9.3655	0.0881	1.8558	-0.0273	-0.0023	-0.0684	0.8016	31.4000	-0.2854	-0.7665	-0.0674	-0.6341	0.0767
4.18	-9.3780	0.0992	1.8359	-0.0268	0.0030	-0.0669	1.1642	31.4620	-0.2004	-0.7665	-0.0673	-0.6342	0.0767
4.19	-9.3896	0.1057	1.8527	-0.0277	-0.0027	-0.0686	0.9759	31.4825	-0.1617	-0.7664	-0.0672	-0.6342	0.0767
4.2	-9.3946	0.1154	1.8328	-0.0264	0.0059	-0.0750	1.2384	31.3800	-0.3247	-0.7664	-0.0671	-0.6343	0.0767
4.21	-9.3786	0.1076	1.8381	-0.0299	-0.0043	-0.0706	1.0493	31.3603	-0.1873	-0.7663	-0.0670	-0.6343	0.0767
4.22	-9.3851	0.1004	1.8365	-0.0263	0.0009	-0.0698	1.1804	31.2089	-0.1834	-0.7663	-0.0669	-0.6343	0.0767
4.23	-9.4112	0.1026	1.8177	-0.0267	0.0096	-0.0707	1.2951	31.2102	-0.1494	-0.7663	-0.0668	-0.6345	0.0768
4.24	-9.4251	0.1044	1.8070	-0.0273	0.0095	-0.0685	1.2310	31.1121	-0.0848	-0.7662	-0.0667	-0.6345	0.0767
4.25	-9.4255	0.0917	1.8109	-0.0287	-0.0011	-0.0650	1.2350	31.1321	-0.2646	-0.7662	-0.0666	-0.6346	0.0767
4.26	-9.4179	0.0781	1.8021	-0.0322	-0.0062	-0.0679	0.8717	31.1313	-0.2811	-0.7661	-0.0665	-0.6345	0.0767
4.27	-9.4316	0.0698	1.8070	-0.0305	-0.0032	-0.0614	0.9855	31.2139	-0.2346	-0.7661	-0.0664	-0.6346	0.0767
4.28	-9.4427	0.0593	1.7921	-0.0288	-0.0055	-0.0625	1.0533	31.2647	-0.3522	-0.7661	-0.0663	-0.6347	0.0766
4.29	-9.4342	0.0519	1.8065	-0.0267	-0.0079	-0.0623	0.9490	31.3143	-0.2898	-0.7661	-0.0662	-0.6347	0.0766
4.3	-9.4364	0.0530	1.8026	-0.0279	-0.0086	-0.0622	0.9265	31.3073	-0.1798	-0.7661	-0.0662	-0.6347	0.0766
4.31	-9.4326	0.0465	1.7966	-0.0288	-0.0156	-0.0636	1.0963	31.2794	-0.1215	-0.7661	-0.0661	-0.6347	0.0766
4.32	-9.4351	0.0471	1.8146	-0.0285	-0.0196	-0.0682	1.3487	31.4134	0.0800	-0.7662	-0.0660	-0.6347	0.0765
4.33	-9.4366	0.0599	1.8141	-0.0278	-0.0213	-0.0745	1.5094	31.6174	-0.1375	-0.7661	-0.0658	-0.6346	0.0766
4.34	-9.4400	0.0625	1.8052	-0.0301	-0.0165	-0.0732	1.2578	31.3653	0.0988	-0.7662	-0.0657	-0.6346	0.0766
4.35	-9.4184	0.0680	1.8087	-0.0276	-0.0180	-0.0698	1.1584	31.3365	-0.0393	-0.7662	-0.0656	-0.6346	0.0766
4.36	-9.4187	0.0687	1.8291	-0.0304	-0.0166	-0.0696	1.1991	31.3952	-0.1524	-0.7663	-0.0655	-0.6346	0.0766
4.37	-9.4141	0.0515	1.8038	-0.0272	-0.0106	-0.0703	1.0177	31.3048	-0.1198	-0.7662	-0.0654	-0.6346	0.0766
4.38	-9.4022	0.0488	1.8236	-0.0301	-0.0294	-0.0645	0.8337	31.2541	-0.2760	-0.7663	-0.0653	-0.6345	0.0766
4.39	-9.4065	0.0547	1.8319	-0.0317	-0.0197	-0.0614	1.0923	31.4030	-0.1460	-0.7664	-0.0652	-0.6345	0.0765
4.4	-9.3904	0.0540	1.8290	-0.0277	-0.0297	-0.0547	0.9195	31.4588	-0.1302	-0.7664	-0.0651	-0.6344	0.0765
4.41	-9.3933	0.0625	1.8526	-0.0279	-0.0261	-0.0575	1.2192	31.2624	-0.2362	-0.7665	-0.0650	-0.6344	0.0764
4.42	-9.3921	0.0693	1.8415	-0.0323	-0.0291	-0.0555	1.1616	31.0298	-0.0692	-0.7665	-0.0650	-0.6343	0.0764
4.43	-9.4075	0.0689	1.8774	-0.0260	-0.0319	-0.0558	1.1999	31.3038	-0.2322	-0.7667	-0.0649	-0.6343	0.0763
4.44	-9.4340	0.0712	1.8511	-0.0305	-0.0143	-0.0586	1.2233	31.1146	-0.1969	-0.7666	-0.0648	-0.6342	0.0763
4.45	-9.4001	0.0554	1.8275	-0.0307	-0.0348	-0.0662	1.3799	31.3253	-0.5122	-0.7667	-0.0647	-0.6341	0.0763
4.46	-9.3619	0.0335	1.8860	-0.0249	-0.0323	-0.0693	1.1504	31.2861	-0.2122	-0.7668	-0.0646	-0.6341	0.0763
4.47	-9.3930	0.0482	1.8591	-0.0262	-0.0134	-0.0648	0.9725	31.2245	-0.0762	-0.7668	-0.0645	-0.6340	0.0763
4.48	-9.4140	0.0631	1.8402	-0.0196	-0.0215	-0.0670	1.3071	31.2609	-0.3695	-0.7669	-0.0644	-0.6341	0.0763
4.49	-9.3709	0.0693	1.8803	-0.0216	-0.0371	-0.0671	1.1470	31.3835	-0.2802	-0.7669	-0.0644	-0.6339	0.0763
4.5	-9.3477	0.0458	1.8933	-0.0282	-0.0321	-0.0662	1.1613	31.4484	-0.1383	-0.7670	-0.0643	-0.6339	0.0763
4.51	-9.3587	0.0326	1.8818	-0.0263	-0.0149	-0.0691	1.0272	31.4012	-0.1418	-0.7670	-0.0641	-0.6338	0.0763
4.52	-9.3895	0.0492	1.9089	-0.0273	-0.0270	-0.0656	1.0833	31.3406	-0.1128	-0.7671	-0.0641	-0.6338	0.0763
4.53	-9.4161	0.0629	1.9107	-0.0270	-0.0195	-0.0574	0.9669	31.4661	-0.1895	-0.7671	-0.0640	-0.6338	0.0763
4.54	-9.3833	0.0558	1.9038	-0.0270	-0.0260	-0.0641	1.0394	31.3319	0.0614	-0.7671	-0.0639	-0.6337	0.0763
4.55	-9.3401	0.0227	1.9156	-0.0273	-0.0282	-0.0635	1.0410	31.3340	-0.0661	-0.7672	-0.0638	-0.6337	0.0763
4.56	-9.3113	-0.0114	1.8749	-0.0252	-0.0146	-0.0544	0.9561	31.3414	-0.2624	-0.7672	-0.0638	-0.6336	0.0762
4.57	-9.2850	-0.0064	1.8897	-0.0195	-0.0145	-0.0496	0.8947	31.5271	-0.0194	-0.7673	-0.0637	-0.6336	0.0762
4.58	-9.3133	0.0383	1.8903	-0.0148	0.0068	-0.0471	0.9348	31.4222	-0.0598	-0.7671	-0.0637	-0.6336	0.0761
4.59	-9.3313	0.0706	1.8399	-0.0079	0.0045	-0.0549	1.0871	31.3170	-0.1348	-0.7672	-0.0638	-0.6337	0.0761
4.6	-9.3418	0.0858	1.8731	-0.0099	0.0049	-0.0636	1.0206	31.3328	0.0177	-0.7671	-0.0638	-0.6338	0.0761
4.61	-9.3968	0.0803	1.8438	-0.0095	0.0220	-0.0704	1.1062	31.1075	-0.1885	-0.7670	-0.0638	-0.6339	0.0762
4.62	-9.4031	0.0695	1.7925	-0.0067	0.0030	-0.0807	1.3516	31.3870	-0.3545	-0.7669	-0.0637	-0.6340	0.0763
4.63	-9.3657	0.0801	1.8396	-0.0133	-0.0072	-0.0834	1.1584	31.3887	-0.1462	-0.7669	-0.0636	-0.6340	0.0764
4.64	-9.4127	0.0747	1.8286	-0.0145	0.0229	-0.0896	1.1478	31.1564	-0.1684	-0.7668	-0.0635	-0.6341	0.0765
4.65	-9.4329	0.0601	1.7662	-0.0220	0.0080	-0.0865	1.0577	31.4552	-0.3353	-0.7667	-0.0634	-0.6342	0.0766
4.66	-9.3981	0.0540	1.8248	-0.0236	-0.0141	-0.0830	0.9425	31.3909	-0.3189	-0.7668	-0.0633	-0.6342	0.0766
4.67	-9.3943	0.0753	1.8308	-0.0267	-0.0075	-0.0798	0.9686	31.3247	-0.3020	-0.7667	-0.0631	-0.6342	0.0767
4.68	-9.4446	0.0727	1.8342	-0.0297	-0.0034	-0.0811	1.2173	31.3229	-0.1160	-0.7668	-0.0630	-0.6343	0.0767
4.69	-9.4399	0.0510	1.8072	-0.0364	-0.0087	-0.0819	1.2383	31.4515	-0.1550	-0.7667	-0.0628	-0.6343	0.0767
4.7	-9.3921	0.0051	1.8413	-0.0523	-0.0099	-0.0820	0.9895	31.1396	-0.0928	-0.7667	-0.0626	-0.6343	0.0767
4.71	-9.4081	-0.0360	1.8530	-0.0526	0.0017	-0.0819	1.0926	31.0843	-0.0260	-0.7667	-0.0623	-0.6344	0.0767
4.72	-9.4426	-0.0570	1.7995	-0.0534	0.0045	-0.0818	0.9431	31.2633	0.0169	-0.7666	-0.0621	-0.6344	0.0766
4.73	-9.4357	-0.0675	1.8452	-0.0495	-0.0160	-0.0767	0.9776	31.3404	0.1927	-0.7667	-0.0619	-0.6345	0.0766
4.74	-9.4251	-0.0943	1.8228	-0.0479	-0.0003	-0.0725	0.9239	31.4701	-0.0778	-0.7666	-0.0617	-0.6345	0.0766
4.75	-9.4010	-0.0808	1.8398	-0.0499	-0.0099	-0.0694	0.8319	31.0923	-0.1494	-0.7667	-0.0615	-0.6346	0.0765
4.76	-9.4910	-0.0649	1.8731	-0.0345	-0.0041	-0.0738	0.9806	31.0425	-0.1144	-0.7666	-0.0614	-0.6345	0.0765
4.77	-9.4731	-0.0795	1.7717	-0.0405	-0.0228	-0.0692	0.8274	31.4251	-0.2587	-0.7667	-0.0612	-0.6346	0.0764
4.78	-9.3611	-0.0921	1.9046	-0.0383	-0.0542	-0.0708	1.1130	31.2231	-0.2044	-0.7668	-0.0610	-0.6344	0.0764
4.79	-9.3734	-0.1282	1.8877	-0.0317	-0.0107	-0.0631	1.0891	31.0542	-0.2349	-0.7668	-0.0609	-0.6344	0.0764
4.8	-9.4163	-0.1361	1.8292	-0.0263	-0.0241	-0.0543	0.9138	31.0804	-0.2073	-0.7669	-0.0609	-0.6344	0.0763
4.81	-9.3362	-0.1116	1.8903	-0.0285	-0.0483	-0.0514	1.0123	31.1910	0.0364	-0.7670	-0.0608	-0.6342	0.0763
4.82	-9.3025	-0.0755	1.9611	-0.0182	-0.0287	-0.0401	1.5215	31.3392	0.0646	-0.7671	-0.0608	-0.6342	0.0762
4.83	-9.3610	-0.0452	1.9001	-0.0051	-0.0079	-0.0377	1.7241	31.3250	0.0412	-0.7670	-0.0609	-0.6341	0.0761
4.84	-9.3720	-0.0338	1.8880	-0.0134	-0.0121	-0.0440	1.4377	31.4602	0.0583	-0.7671	-0.0609	-0.6342	0.0761
4.85	-9.3330	-0.0446	1.9291	-0.0188	-0.0208	-0.0458	1.1936	31.4981	0.0823	-0.7671	-0.0609	-0.6341	0.0760
4.86	-9.3526	-0.0498	1.9188	-0.0079	0.0080	-0.0511	1.1477	31.2276	-0.0215	-0.7671	-0.0610	-0.6342	0.0760
4.87	-9.3713	-0.0416	1.8712	0.0004	-0.0023	-0.0443	1.1217	31.2080	0.1245	-0.7670	-0.0611	-0.6342	0.0760
4.88	-9.3688	-0.0195	1.9022	-0.0026	-0.0095	-0.0492	0.9933	31.2074	-0.1875	-0.7670	-0.0611	-0.6342	0.0760
4.89	-9.3766	0.0026	1.8833	0.0014	0.0076	-0.0478	1.0831	31.1961	-0.1212	-0.7670	-0.0612	-0.6343	0.0760
4.9	-9.3554	0.0065	1.8634	-0.0020	-0.0058	-0.0477	0.8460	31.2661	-0.0562	-0.7669	-0.0613	-0.6342	0.0760
4.91	-9.3500	0.0094	1.8857	-0.0004	0.0030	-0.0489	0.7644	31.5257	-0.2368	-0.7669	-0.0613	-0.6343	0.0760
4.92	-9.3544	0.0110	1.8426	-0.0036	0.0185	-0.0512	0.8888	31.3985	-0.1179	-0.7668	-0.0614	-0.6344	0.0760
4.93	-9.3444	0.0054	1.8432	-0.0013	0.0159	-0.0516	0.8275	31.3931	-0.0908	-0.7668	-0.0615	-0.6345	0.0760
4.94	-9.3689	0.0048	1.8485	-0.0047	0.0242	-0.0472	0.9600	31.2748	-0.0791	-0.7666	-0.0615	-0.6346	0.0760
4.95	-9.4274	0.0005	1.8204	-0.0017	0.0248	-0.0455	0.8195	31.3196	0.0015	-0.7665	-0.0616	-0.6347	0.0760
4.96	-9.4566	0.0120	1.7954	-0.0047	0.0170	-0.0398	0.8837	31.4062	-0.3411	-0.7664	-0.0617	-0.6348	0.0759
4.97	-9.4443	0.0290	1.8187	-0.0010	-0.0089	-0.0396	0.8073	31.3115	-0.0778	-0.7664	-0.0618	-0.6348	0.0759
4.98	-9.4584	0.0280	1.8129	-0.0064	-0.0067	-0.0374	1.1062	31.1596	-0.1932	-0.7665	-0.0619	-0.6349	0.0759
4.99	-9.4679	0.0268	1.7800	-0.0019	-0.0073	-0.0434	1.2065	31.1477	-0.1596	-0.7664	-0.0620	-0.6349	0.0758
5	-9.4561	0.0473	1.8121	-0.0065	-0.0127	-0.0443	1.0672	31.2328	-0.2406	-0.7665	-0.0620	-0.6349	0.0758
5.01	-9.4547	0.0477	1.8159	-0.0060	-0.0110	-0.0446	1.2449	31.1183	-0.2988	-0.7664	-0.0621	-0.6348	0.0758
5.02	-9.4647	0.0404	1.8116	-0.0052	-0.0110	-0.0532	1.0648	31.1915	-0.2238	-0.7664	-0.0621	-0.6348	0.0758
5.03	-9.4469	0.0365	1.8089	-0.0073	-0.0194	-0.0538	0.8585	31.1216	-0.0237	-0.7664	-0.0621	-0.6348	0.0758
5.04	-9.4185	0.0402	1.8354	-0.0155	-0.0214	-0.0581	1.1483	31.3106	-0.5023	-0.7665	-0.0621	-0.6347	0.0758
5.05	-9.4126	0.0322	1.8314	-0.0062	-0.0186	-0.0574	0.9963	31.2848	-0.3156	-0.7665	-0.0621	-0.6347	0.0758
5.06	-9.4311	0.0157	1.8425	-0.0056	-0.0169	-0.0609	0.9573	31.4201	-0.3085	-0.7665	-0.0621	-0.6347	0.0759
5.07	-9.4200	0.0090	1.8303	-0.0179	-0.0303	-0.0568	0.8659	31.3141	-0.1354	-0.7666	-0.0621	-0.6347	0.0759
5.08	-9.3857	0.0078	1.8636	-0.0211	-0.0316	-0.0536	0.8714	31.2597	-0.0696	-0.7666	-0.0621	-0.6345	0.0758
5.09	-9.3853	0.0003	1.8842	-0.0152	-0.0254	-0.0572	0.7993	31.4408	-0.1966	-0.7667	-0.0620	-0.6345	0.0758
5.1	-9.3915	-0.0043	1.8661	-0.0208	-0.0276	-0.0543	1.0099	31.4445	-0.0640	-0.7667	-0.0620	-0.6344	0.0758
5.11	-9.3537	0.0086	1.8780	-0.0200	-0.0364	-0.0469	1.1725	31.5722	-0.3746	-0.7669	-0.0620	-0.6343	0.0757
5.12	-9.3286	0.0138	1.9217	-0.0185	-0.0288	-0.0552	1.0260	31.4367	-0.4755	-0.7669	-0.0620	-0.6342	0.0757
5.13	-9.3530	0.0148	1.9036	-0.0185	-0.0163	-0.0470	0.9866	31.2830	-0.1727	-0.7669	-0.0620	-0.6342	0.0757
5.14	-9.3506	0.0182	1.8770	-0.0189	-0.0229	-0.0516	0.9948	31.6168	-0.0483	-0.7670	-0.0620	-0.6342	0.0756
5.15	-9.3157	0.0233	1.9262	-0.0174	-0.0235	-0.0550	1.0297	31.4446	-0.1957	-0.7670	-0.0619	-0.6341	0.0756
5.16	-9.3504	0.0331	1.9186	-0.0086	-0.0049	-0.0487	1.1738	31.3910	-0.2808	-0.7671	-0.0620	-0.6342	0.0756
5.17	-9.3645	0.0467	1.8795	-0.0187	-0.0100	-0.0539	1.3058	31.1912	-0.1232	-0.7670	-0.0620	-0.6342	0.0755
5.18	-9.3404	0.0394	1.8955	-0.0185	-0.0134	-0.0576	1.1517	31.0728	-0.2722	-0.7671	-0.0619	-0.6342	0.0755
5.19	-9.3538	0.0367	1.8992	-0.0200	0.0037	-0.0552	1.3358	31.2382	-0.2589	-0.7669	-0.0619	-0.6342	0.0755
5.2	-9.3918	0.0565	1.8651	-0.0162	0.0082	-0.0523	1.1582	31.1735	-0.2931	-0.7669	-0.0619	-0.6343	0.0755
5.21	-9.3813	0.0626	1.8496	-0.0166	-0.0012	-0.0559	1.0745	31.2581	-0.2062	-0.7669	-0.0619	-0.6343	0.0754
5.22	-9.3548	0.0632	1.8652	-0.0270	-0.0034	-0.0567	0.9700	31.0165	-0.1679	-0.7668	-0.0618	-0.6343	0.0754
5.23	-9.3980	0.0629	1.8514	-0.0269	0.0146	-0.0563	1.3928	31.0508	-0.1659	-0.7669	-0.0618	-0.6345	0.0753
5.24	-9.4498	0.0554	1.8141	-0.0273	0.0170	-0.0563	1.1744	31.2630	-0.0662	-0.7667	-0.0617	-0.6345	0.0753
5.25	-9.4338	0.0463	1.8382	-0.0331	-0.0072	-0.0564	0.9153	31.1618	-0.3218	-0.7668	-0.0617	-0.6346	0.0752
5.26	-9.4392	0.0388	1.8481	-0.0352	0.0022	-0.0574	0.9407	31.3058	-0.0694	-0.7666	-0.0616	-0.6346	0.0751
5.27	-9.4633	0.0242	1.8124	-0.0307	0.0040	-0.0602	1.1918	31.5094	0.0108	-0.7667	-0.0615	-0.6347	0.0751
5.28	-9.4460	0.0098	1.8156	-0.0341	-0.0123	-0.0571	1.0045	31.4363	-0.1788	-0.7666	-0.0614	-0.6347	0.0750
5.29	-9.4223	-0.0104	1.8317	-0.0488	-0.0178	-0.0553	0.9173	31.5549	-0.1953	-0.7667	-0.0613	-0.6347	0.0749
5.3	-9.4396	-0.0284	1.8336	-0.0408	-0.0110	-0.0650	0.9563	31.5583	-0.0898	-0.7667	-0.0611	-0.6347	0.0748
5.31	-9.4491	-0.0439	1.8274	-0.0339	-0.0191	-0.0522	1.0856	31.4280	-0.0779	-0.7667	-0.0610	-0.6347	0.0748
5.32	-9.4165	-0.0706	1.8519	-0.0356	-0.0300	-0.0503	1.3643	31.5453	0.0911	-0.7668	-0.0610	-0.6346	0.0747
5.33	-9.3996	-0.0772	1.8707	-0.0273	-0.0305	-0.0529	1.5016	31.5792	0.0959	-0.7668	-0.0609	-0.6345	0.0746
5.34	-9.4162	-0.0734	1.8736	-0.0264	-0.0195	-0.0396	1.2960	31.4509	0.0159	-0.7669	-0.0609	-0.6345	0.0745
5.35	-9.4133	-0.0597	1.8521	-0.0206	-0.0290	-0.0356	1.3073	31.3386	-0.0965	-0.7670	-0.0609	-0.6344	0.0744
5.36	-9.3795	-0.0350	1.8943	-0.0227	-0.0380	-0.0392	1.1673	31.3789	-0.0611	-0.7671	-0.0609	-0.6343	0.0743
5.37	-9.3753	-0.0132	1.9164	-0.0105	-0.0251	-0.0355	1.1208	31.3296	0.0744	-0.7671	-0.0610	-0.6342	0.0742
5.38	-9.3838	0.0108	1.8809	-0.0055	-0.0250	-0.0362	1.1345	31.0934	-0.0843	-0.7672	-0.0611	-0.6342	0.0742
5.39	-9.3472	0.0218	1.8993	-0.0106	-0.0325	-0.0328	1.1239	31.0547	-0.1545	-0.7673	-0.0611	-0.6341	0.0741
5.4	-9.3185	0.0359	1.9198	-0.0063	-0.0169	-0.0354	1.1383	31.1382	-0.0244	-0.7672	-0.0612	-0.6340	0.0740
5.41	-9.3446	0.0519	1.9192	0.0005	-0.0081	-0.0353	1.0197	31.3890	-0.0465	-0.7673	-0.0613	-0.6341	0.0740
5.42	-9.3542	0.0598	1.8984	-0.0055	-0.0114	-0.0446	1.0679	31.4192	-0.1827	-0.7673	-0.0614	-0.6341	0.0740
5.43	-9.3228	0.0600	1.9188	-0.0067	-0.0159	-0.0514	1.2279	31.2049	-0.3080	-0.7674	-0.0614	-0.6341	0.0740
5.44	-9.3250	0.0524	1.9255	-0.0016	-0.0074	-0.0560	1.2112	31.4543	-0.2426	-0.7673	-0.0615	-0.6340	0.0740
5.45	-9.3168	0.0396	1.8859	-0.0039	-0.0077	-0.0545	1.1231	31.3864	-0.0614	-0.7673	-0.0615	-0.6341	0.0740
5.46	-9.3298	0.0631	1.9488	-0.0009	-0.0034	-0.0510	1.1024	31.3236	-0.0690	-0.7673	-0.0616	-0.6341	0.0740
5.47	-9.4081	0.1015	1.9126	-0.0016	0.0162	-0.0587	0.9252	31.3206	-0.2439	-0.7671	-0.0616	-0.6341	0.0740
5.48	-9.4155	0.1119	1.8838	-0.0062	0.0016	-0.0660	1.0686	31.4544	-0.1161	-0.7672	-0.0616	-0.6343	0.0741
5.49	-9.3527	0.0991	1.9323	-0.0172	-0.0132	-0.0736	1.1641	31.5155	-0.1370	-0.7671	-0.0615	-0.6342	0.0741
5.5	-9.3345	0.0553	1.9226	-0.0231	0.0019	-0.0747	1.0619	31.5387	-0.1383	-0.7671	-0.0614	-0.6343	0.0742
5.51	-9.3577	0.0386	1.9090	-0.0245	0.0067	-0.0725	1.0185	31.3208	-0.1255	-0.7670	-0.0613	-0.6343	0.0742
5.52	-9.3800	0.0566	1.9369	-0.0270	-0.0064	-0.0607	1.1823	31.2385	-0.0247	-0.7670	-0.0613	-0.6344	0.0742
5.53	-9.3818	0.0510	1.9244	-0.0283	0.0118	-0.0611	1.0497	31.2305	-0.2095	-0.7670	-0.0612	-0.6345	0.0741
5.54	-9.3449	0.0245	1.9208	-0.0360	0.0045	-0.0584	1.0624	31.3304	-0.2258	-0.7669	-0.0611	-0.6345	0.0741
5.55	-9.3207	-0.0138	1.9001	-0.0355	0.0181	-0.0542	0.8983	31.3226	-0.3082	-0.7669	-0.0610	-0.6346	0.0740
5.56	-9.3216	-0.0384	1.8724	-0.0350	0.0174	-0.0435	1.3263	31.3657	-0.3397	-0.7668	-0.0610	-0.6347	0.0738
5.57	-9.3360	-0.0413	1.8496	-0.0315	0.0259	-0.0386	1.3003	31.2432	-0.0176	-0.7667	-0.0610	-0.6349	0.0737
5.58	-9.3538	-0.0339	1.8110	-0.0269	0.0346	-0.0358	0.7814	31.3442	-0.1561	-0.7665	-0.0610	-0.6350	0.0736
5.59	-9.3797	-0.0450	1.7993	-0.0276	0.0354	-0.0386	0.9210	31.2937	-0.1816	-0.7664	-0.0610	-0.6353	0.0734
5.6	-9.4092	-0.0565	1.7668	-0.0180	0.0383	-0.0406	1.1000	31.2878	-0.0322	-0.7662	-0.0611	-0.6354	0.0733
5.61	-9.4130	-0.0558	1.7465	-0.0085	0.0316	-0.0382	0.9268	31.2985	-0.1836	-0.7661	-0.0611	-0.6356	0.0732
5.62	-9.3955	-0.0462	1.7380	-0.0035	0.0221	-0.0344	1.0711	31.1200	0.0008	-0.7660	-0.0613	-0.6357	0.0732
5.63	-9.3976	-0.0274	1.7384	0.0090	0.0167	-0.0326	0.9908	31.4268	-0.3103	-0.7659	-0.0614	-0.6358	0.0731
5.64	-9.4194	0.0161	1.7220	0.0219	0.0347	-0.0361	0.9788	31.2070	-0.1212	-0.7658	-0.0616	-0.6359	0.0732
5.65	-9.4344	0.0677	1.7208	0.0201	0.0266	-0.0308	1.1477	31.4224	-0.1403	-0.7656	-0.0618	-0.6360	0.0731
5.66	-9.4438	0.1126	1.7360	0.0255	0.0218	-0.0294	1.1350	31.4275	-0.1225	-0.7656	-0.0621	-0.6362	0.0732
5.67	-9.4685	0.1583	1.7201	0.0256	0.0275	-0.0413	0.9532	31.2695	0.0167	-0.7654	-0.0623	-0.6363	0.0732
5.68	-9.4755	0.1898	1.7088	0.0181	0.0193	-0.0420	1.0133	31.2277	0.1034	-0.7654	-0.0625	-0.6364	0.0732
5.69	-9.4789	0.1946	1.7223	0.0195	0.0145	-0.0491	1.1373	31.3503	-0.1621	-0.7652	-0.0626	-0.6364	0.0733
5.7	-9.5015	0.2036	1.6983	0.0076	0.0186	-0.0587	1.0331	31.3135	-0.2202	-0.7652	-0.0627	-0.6366	0.0733
5.71	-9.5129	0.2104	1.6984	0.0001	0.0067	-0.0569	1.0083	31.2021	-0.0706	-0.7651	-0.0628	-0.6367	0.0734
5.72	-9.5147	0.2054	1.6824	-0.0062	-0.0075	-0.0568	1.2088	31.3468	-0.2446	-0.7650	-0.0628	-0.6366	0.0734
5.73	-9.4499	0.1917	1.6670	-0.0201	-0.0187	-0.0621	1.3168	31.3262	-0.1945	-0.7652	-0.0627	-0.6367	0.0734
5.74	-9.4802	0.2063	1.7650	-0.0238	-0.0139	-0.0688	1.1960	31.2131	-0.4100	-0.7651	-0.0627	-0.6366	0.0734
5.75	-9.5867	0.1928	1.6646	-0.0333	-0.0053	-0.0770	1.1872	31.3121	-0.0713	-0.7651	-0.0625	-0.6367	0.0734
5.76	-9.5093	0.1513	1.6826	-0.0463	-0.0545	-0.0837	1.0078	31.3660	-0.0205	-0.7652	-0.0623	-0.6365	0.0734
5.77	-9.4082	0.1032	1.7889	-0.0523	-0.0500	-0.0882	1.0688	31.2781	-0.2646	-0.7654	-0.0620	-0.6364	0.0734
5.78	-9.4448	0.0408	1.7200	-0.0524	-0.0240	-0.0906	1.1679	31.2909	-0.2164	-0.7654	-0.0618	-0.6364	0.0734
5.79	-9.4571	0.0374	1.7164	-0.0515	-0.0437	-0.0802	1.0384	31.3435	-0.1656	-0.7655	-0.0615	-0.6363	0.0734
5.8	-9.3882	0.0505	1.8007	-0.0532	-0.0577	-0.0818	1.0432	31.3482	0.0845	-0.7657	-0.0613	-0.6361	0.0734
5.81	-9.3868	0.0391	1.8204	-0.0511	-0.0373	-0.0828	1.1702	31.2934	-0.0804	-0.7657	-0.0610	-0.6360	0.0734
5.82	-9.4176	0.0198	1.7974	-0.0538	-0.0325	-0.0815	1.2968	31.4780	-0.0040	-0.7658	-0.0608	-0.6360	0.0733
5.83	-9.3993	-0.0071	1.8265	-0.0590	-0.0412	-0.0836	1.3237	31.5131	-0.1503	-0.7658	-0.0605	-0.6358	0.0733
5.84	-9.3696	-0.0406	1.8642	-0.0521	-0.0401	-0.0811	1.2170	31.5615	-0.0430	-0.7660	-0.0602	-0.6358	0.0733
5.85	-9.3776	-0.0565	1.8605	-0.0535	-0.0258	-0.0810	1.2690	31.7002	0.1677	-0.7661	-0.0600	-0.6357	0.0732
5.86	-9.3709	-0.0767	1.8479	-0.0577	-0.0284	-0.0807	0.8830	31.4788	-0.0522	-0.7661	-0.0597	-0.6357	0.0732
5.87	-9.3452	-0.0978	1.8854	-0.0531	-0.0311	-0.0830	0.8411	31.4379	-0.3332	-0.7662	-0.0595	-0.6356	0.0732
5.88	-9.3475	-0.1195	1.8825	-0.0597	-0.0195	-0.0825	0.9831	31.3623	0.0178	-0.7662	-0.0592	-0.6356	0.0731
5.89	-9.3434	-0.1389	1.8844	-0.0515	-0.0266	-0.0707	0.8768	31.1175	-0.2777	-0.7663	-0.0590	-0.6356	0.0731
5.9	-9.3253	-0.1484	1.9018	-0.0529	-0.0286	-0.0693	0.8010	31.1736	-0.1748	-0.7663	-0.0588	-0.6355	0.0730
5.91	-9.3161	-0.1560	1.8939	-0.0450	-0.0188	-0.0654	1.2205	31.1857	-0.3192	-0.7664	-0.0586	-0.6356	0.0729
5.92	-9.3146	-0.1592	1.9157	-0.0350	-0.0180	-0.0625	1.1232	31.2261	-0.3380	-0.7664	-0.0585	-0.6355	0.0729
5.93	-9.3407	-0.1453	1.9152	-0.0319	-0.0094	-0.0584	0.9731	31.0369	0.0172	-0.7665	-0.0584	-0.6356	0.0728
5.94	-9.3656	-0.1315	1.8917	-0.0274	-0.0127	-0.0475	1.1484	31.0831	0.0156	-0.7664	-0.0584	-0.6355	0.0727
5.95	-9.3667	-0.1300	1.9065	-0.0292	-0.0132	-0.0407	1.0982	31.3502	-0.2821	-0.7665	-0.0584	-0.6355	0.0726
5.96	-9.3669	-0.1202	1.9006	-0.0267	-0.0098	-0.0366	0.9536	31.1923	-0.2144	-0.7665	-0.0584	-0.6355	0.0725
5.97	-9.3773	-0.1120	1.8936	-0.0218	-0.0045	-0.0337	0.9341	31.1869	-0.1815	-0.7664	-0.0584	-0.6355	0.0724
5.98	-9.4035	-0.0961	1.8833	-0.0147	-0.0003	-0.0340	0.9360	31.1893	-0.1673	-0.7665	-0.0585	-0.6356	0.0723
5.99	-9.4083	-0.0742	1.8722	-0.0040	-0.0060	-0.0292	1.0944	31.1983	-0.2352	-0.7664	-0.0586	-0.6356	0.0722
6	-9.3910	-0.0519	1.8774	-0.0026	-0.0089	-0.0333	0.8736	31.3923	-0.0216	-0.7665	-0.0587	-0.6356	0.0721
6.01	-9.3990	-0.0330	1.8830	0.0005	0.0003	-0.0384	0.8409	31.2593	-0.0822	-0.7663	-0.0588	-0.6356	0.0721
6.02	-9.4273	-0.0256	1.8559	0.0056	0.0050	-0.0341	0.9552	31.1855	-0.3212	-0.7664	-0.0590	-0.6357	0.0720
6.03	-9.4119	-0.0152	1.8534	0.0090	-0.0056	-0.0411	0.7818	31.3416	-0.0905	-0.7663	-0.0591	-0.6357	0.0720
6.04	-9.3750	-0.0028	1.8653	0.0009	-0.0057	-0.0314	1.0236	31.4013	-0.0970	-0.7663	-0.0592	-0.6357	0.0720
6.05	-9.3702	0.0081	1.8578	0.0171	-0.0054	-0.0338	1.0505	31.2205	-0.0997	-0.7663	-0.0594	-0.6357	0.0720
6.06	-9.3880	0.0237	1.8556	0.0235	-0.0026	-0.0383	0.8545	31.3808	-0.2150	-0.7663	-0.0596	-0.6357	0.0720
6.07	-9.3789	0.0380	1.8602	0.0199	-0.0063	-0.0352	0.9155	31.6291	-0.1772	-0.7663	-0.0598	-0.6357	0.0721
6.08	-9.3587	0.0328	1.8801	0.0170	-0.0152	-0.0399	0.9561	31.3379	-0.2710	-0.7662	-0.0599	-0.6356	0.0721
6.09	-9.3589	0.0452	1.8862	0.0210	-0.0127	-0.0347	0.8287	31.2557	-0.3100	-0.7663	-0.0601	-0.6357	0.0721
6.1	-9.3864	0.0623	1.8799	0.0243	0.0021	-0.0359	1.1715	31.1592	-0.3638	-0.7662	-0.0604	-0.6356	0.0721
6.11	-9.3974	0.0752	1.8565	0.0202	-0.0023	-0.0446	1.0031	31.2137	-0.1527	-0.7662	-0.0605	-0.6357	0.0722
6.12	-9.3920	0.0864	1.8698	0.0241	-0.0039	-0.0402	1.0677	31.1562	-0.2985	-0.7661	-0.0607	-0.6357	0.0722
6.13	-9.3852	0.1015	1.8496	0.0190	0.0067	-0.0400	1.0750	31.3701	-0.2641	-0.7661	-0.0609	-0.6357	0.0723
6.14	-9.3845	0.1147	1.8439	0.0090	0.0064	-0.0423	1.0776	31.4650	-0.3081	-0.7661	-0.0610	-0.6358	0.0723
6.15	-9.3916	0.1233	1.8442	0.0025	0.0019	-0.0435	1.1300	31.1411	-0.1828	-0.7660	-0.0611	-0.6358	0.0723
6.16	-9.3907	0.1302	1.8291	-0.0057	-0.0010	-0.0424	1.0316	31.3338	-0.0845	-0.7660	-0.0612	-0.6359	0.0722
6.17	-9.3867	0.1280	1.8283	-0.0018	-0.0001	-0.0482	1.2751	31.2026	-0.0815	-0.7659	-0.0613	-0.6359	0.0722
6.18	-9.3811	0.1247	1.8387	-0.0131	-0.0045	-0.0481	1.1304	31.2461	-0.1571	-0.7660	-0.0613	-0.6360	0.0722
6.19	-9.3813	0.1089	1.8297	-0.0118	-0.0024	-0.0495	1.0070	31.3757	-0.2207	-0.7659	-0.0613	-0.6359	0.0721
6.2	-9.3885	0.0947	1.8236	-0.0238	0.0080	-0.0544	1.0731	31.3772	-0.0218	-0.7659	-0.0613	-0.6360	0.0721
6.21	-9.3955	0.0911	1.8172	-0.0275	0.0033	-0.0580	1.0996	31.5025	-0.0418	-0.7658	-0.0612	-0.6361	0.0721
6.22	-9.4005	0.0854	1.8037	-0.0278	0.0071	-0.0523	0.9262	31.3485	-0.2066	-0.7657	-0.0612	-0.6361	0.0720
6.23	-9.4250	0.0821	1.8197	-0.0292	0.0096	-0.0473	0.9342	31.3772	-0.0841	-0.7658	-0.0612	-0.6363	0.0719
6.24	-9.4493	0.0932	1.7957	-0.0271	0.0077	-0.0568	0.9809	31.3533	-0.0939	-0.7656	-0.0611	-0.6363	0.0718
6.25	-9.4557	0.0871	1.8027	-0.0274	-0.0008	-0.0561	1.2727	31.3857	-0.1082	-0.7657	-0.0611	-0.6364	0.0718
6.26	-9.4689	0.0852	1.8010	-0.0309	-0.0027	-0.0599	0.9982	31.3364	-0.0656	-0.7655	-0.0610	-0.6363	0.0717
6.27	-9.4735	0.0782	1.7846	-0.0366	-0.0110	-0.0532	0.9438	31.4141	-0.2711	-0.7656	-0.0609	-0.6364	0.0716
6.28	-9.4441	0.0611	1.7956	-0.0454	-0.0244	-0.0563	0.9155	31.2324	-0.2071	-0.7657	-0.0608	-0.6364	0.0715
6.29	-9.4304	0.0567	1.7926	-0.0503	-0.0106	-0.0574	1.0242	30.9067	-0.2507	-0.7657	-0.0606	-0.6364	0.0714
6.3	-9.4255	0.0447	1.7695	-0.0548	-0.0075	-0.0574	1.1017	30.9103	-0.2766	-0.7657	-0.0605	-0.6364	0.0713
6.31	-9.4278	0.0269	1.7842	-0.0479	-0.0150	-0.0533	1.1856	31.1219	0.1284	-0.7657	-0.0603	-0.6364	0.0711
6.32	-9.4316	0.0177	1.7793	-0.0483	-0.0199	-0.0518	1.5605	31.4051	0.0335	-0.7658	-0.0602	-0.6364	0.0710
6.33	-9.4030	0.0096	1.7866	-0.0481	-0.0353	-0.0507	1.2544	31.3426	-0.1202	-0.7658	-0.0601	-0.6362	0.0709
6.34	-9.3723	-0.0112	1.8222	-0.0330	-0.0317	-0.0557	1.4447	31.4747	-0.0222	-0.7659	-0.0600	-0.6362	0.0708
6.35	-9.3935	-0.0101	1.8032	-0.0269	-0.0167	-0.0478	1.1888	31.4334	-0.1140	-0.7659	-0.0599	-0.6362	0.0707
6.36	-9.4239	0.0141	1.7788	-0.0292	-0.0167	-0.0493	1.2100	31.2890	-0.2221	-0.7660	-0.0599	-0.6362	0.0707
6.37	-9.4136	0.0310	1.8071	-0.0278	-0.0259	-0.0520	1.2147	31.2438	-0.2115	-0.7660	-0.0598	-0.6361	0.0706
6.38	-9.3925	0.0286	1.8021	-0.0249	-0.0195	-0.0543	1.0881	31.2586	-0.3071	-0.7660	-0.0598	-0.6361	0.0705
6.39	-9.3552	0.0185	1.8134	-0.0284	-0.0264	-0.0534	1.1341	31.4205	0.0822	-0.7661	-0.0597	-0.6361	0.0705
6.4	-9.3905	0.0248	1.8682	-0.0264	-0.0149	-0.0477	1.1089	31.1028	-0.0145	-0.7661	-0.0597	-0.6360	0.0704
6.41	-9.4579	0.0377	1.8144	-0.0273	-0.0124	-0.0527	1.1238	31.4471	-0.0387	-0.7662	-0.0597	-0.6361	0.0703
6.42	-9.4259	0.0443	1.8090	-0.0276	-0.0316	-0.0535	1.1159	31.4539	-0.1650	-0.7662	-0.0596	-0.6360	0.0703
6.43	-9.3538	0.0226	1.8372	-0.0257	-0.0310	-0.0474	1.1466	31.2846	-0.0268	-0.7663	-0.0596	-0.6359	0.0702
6.44	-9.3426	0.0059	1.8108	-0.0271	-0.0176	-0.0456	1.4469	31.4587	-0.0228	-0.7663	-0.0595	-0.6358	0.0701
6.45	-9.3511	0.0175	1.8047	-0.0215	-0.0162	-0.0432	1.3036	31.1918	-0.1450	-0.7663	-0.0596	-0.6358	0.0700
6.46	-9.3457	0.0492	1.8174	-0.0167	-0.0142	-0.0465	1.0179	31.2855	-0.0695	-0.7664	-0.0596	-0.6358	0.0700
6.47	-9.3548	0.0802	1.8106	-0.0099	-0.0113	-0.0370	1.3263	31.2249	0.0400	-0.7663	-0.0596	-0.6358	0.0699
6.48	-9.3674	0.0772	1.7985	-0.0018	-0.0126	-0.0519	1.1853	31.2834	-0.3033	-0.7664	-0.0597	-0.6358	0.0699
6.49	-9.3857	0.0686	1.7812	-0.0053	0.0046	-0.0591	1.0774	31.1982	-0.3517	-0.7663	-0.0597	-0.6358	0.0699
6.5	-9.4050	0.0721	1.7697	-0.0039	-0.0071	-0.0550	1.2006	31.1478	-0.0874	-0.7663	-0.0597	-0.6359	0.0700
6.51	-9.3992	0.0802	1.7767	-0.0007	-0.0121	-0.0618	1.2074	31.2466	-0.1055	-0.7662	-0.0598	-0.6358	0.0700
6.52	-9.4107	0.1065	1.7875	-0.0075	-0.0048	-0.0694	1.1067	31.1657	-0.3843	-0.7663	-0.0598	-0.6359	0.0701
6.53	-9.4269	0.1296	1.7762	-0.0011	-0.0063	-0.0677	1.2695	31.4621	0.0496	-0.7663	-0.0598	-0.6359	0.0701
6.54	-9.4253	0.1360	1.7730	-0.0164	-0.0055	-0.0692	1.0899	31.3457	0.1741	-0.7662	-0.0597	-0.6359	0.0702
6.55	-9.4252	0.1363	1.7821	-0.0291	-0.0110	-0.0645	1.2423	31.3255	-0.3125	-0.7663	-0.0596	-0.6359	0.0702
6.56	-9.4298	0.1242	1.7822	-0.0267	-0.0088	-0.0668	1.1569	31.3696	-0.1133	-0.7662	-0.0595	-0.6359	0.0701
6.57	-9.4297	0.1039	1.7926	-0.0347	-0.0110	-0.0649	1.1395	31.4669	-0.1892	-0.7663	-0.0594	-0.6360	0.0701
6.58	-9.4302	0.0897	1.7976	-0.0450	-0.0147	-0.0570	1.3460	31.3204	-0.2292	-0.7662	-0.0593	-0.6359	0.0700
6.59	-9.4425	0.0690	1.7961	-0.0505	-0.0116	-0.0589	1.1370	31.3542	0.0275	-0.7663	-0.0591	-0.6360	0.0699
6.6	-9.4248	0.0447	1.7901	-0.0529	-0.0177	-0.0595	1.1592	31.3225	-0.0787	-0.7663	-0.0590	-0.6359	0.0698
6.61	-9.4012	0.0608	1.8224	-0.0532	-0.0203	-0.0615	1.2447	31.3729	-0.1599	-0.7664	-0.0588	-0.6359	0.0697
6.62	-9.4091	0.0766	1.8279	-0.0515	-0.0159	-0.0570	1.0061	31.2064	0.0294	-0.7664	-0.0586	-0.6359	0.0695
6.63	-9.4270	0.0517	1.7964	-0.0599	-0.0172	-0.0573	1.1536	31.3253	-0.1103	-0.7664	-0.0585	-0.6359	0.0694
6.64	-9.3427	0.0031	1.8130	-0.0583	-0.0398	-0.0580	1.2907	31.4615	-0.2150	-0.7665	-0.0583	-0.6358	0.0693
6.65	-9.3465	0.0117	1.9045	-0.0522	-0.0283	-0.0572	1.2952	31.4230	0.0276	-0.7665	-0.0581	-0.6357	0.0691
6.66	-9.4421	-0.0046	1.8112	-0.0540	-0.0004	-0.0668	1.2155	31.3176	-0.1777	-0.7666	-0.0579	-0.6359	0.0690
6.67	-9.3753	-0.0226	1.8126	-0.0506	-0.0319	-0.0748	1.3059	31.0905	-0.0302	-0.7666	-0.0577	-0.6358	0.0690
6.68	-9.2908	-0.0614	1.9032	-0.0467	-0.0311	-0.0729	1.3270	31.2780	-0.0665	-0.7668	-0.0575	-0.6358	0.0690
6.69	-9.3578	-0.0976	1.8407	-0.0348	0.0096	-0.0671	1.0800	31.2207	-0.3260	-0.7666	-0.0574	-0.6357	0.0689
6.7	-9.4059	-0.0733	1.8027	-0.0262	-0.0053	-0.0579	1.1775	31.2977	-0.1705	-0.7666	-0.0573	-0.6358	0.0689
6.71	-9.3733	-0.0395	1.8462	-0.0276	-0.0187	-0.0541	1.3379	31.3312	-0.0635	-0.7667	-0.0573	-0.6358	0.0688
6.72	-9.3961	-0.0063	1.8594	-0.0272	-0.0017	-0.0464	1.2881	31.4342	-0.2564	-0.7666	-0.0572	-0.6358	0.0687
6.73	-9.4599	0.0041	1.8170	-0.0275	0.0083	-0.0529	1.1965	31.3178	-0.0395	-0.7666	-0.0572	-0.6360	0.0687
6.74	-9.4674	-0.0145	1.8095	-0.0268	-0.0105	-0.0514	1.0854	30.9661	-0.1104	-0.7666	-0.0572	-0.6359	0.0686
6.75	-9.4438	-0.0456	1.8334	-0.0268	-0.0192	-0.0570	1.1382	31.2496	-0.1793	-0.7667	-0.0571	-0.6359	0.0685
6.76	-9.4383	-0.0435	1.8292	-0.0195	-0.0160	-0.0522	1.0990	31.2506	-0.0814	-0.7666	-0.0571	-0.6358	0.0685
6.77	-9.4261	-0.0288	1.8102	-0.0097	-0.0172	-0.0511	1.1419	31.2530	-0.2434	-0.7667	-0.0571	-0.6359	0.0685
6.78	-9.3969	-0.0265	1.8410	-0.0148	-0.0211	-0.0520	1.0768	31.4184	-0.0216	-0.7667	-0.0571	-0.6358	0.0685
6.79	-9.3870	-0.0192	1.8327	-0.0067	-0.0158	-0.0496	1.2484	31.4280	-0.0220	-0.7667	-0.0571	-0.6358	0.0684
6.8	-9.3922	-0.0164	1.8161	-0.0019	-0.0145	-0.0568	0.9654	31.4361	-0.1369	-0.7667	-0.0572	-0.6358	0.0685
6.81	-9.3814	-0.0166	1.8259	-0.0038	-0.0067	-0.0620	1.1330	31.2692	0.0428	-0.7667	-0.0572	-0.6358	0.0685
6.82	-9.3839	-0.0144	1.8373	-0.0078	-0.0125	-0.0604	1.4262	31.2987	0.0698	-0.7667	-0.0572	-0.6358	0.0685
6.83	-9.4053	-0.0125	1.8372	-0.0019	-0.0117	-0.0561	1.7267	31.3853	0.0959	-0.7666	-0.0572	-0.6357	0.0686
6.84	-9.4106	-0.0038	1.8236	-0.0008	-0.0132	-0.0482	1.0775	31.2121	-0.2378	-0.7667	-0.0573	-0.6358	0.0686
6.85	-9.3942	-0.0045	1.8370	-0.0046	-0.0221	-0.0435	0.8751	31.2144	-0.0886	-0.7667	-0.0574	-0.6357	0.0686
6.86	-9.3695	-0.0093	1.8483	-0.0052	-0.0198	-0.0395	0.7091	31.3651	-0.3416	-0.7668	-0.0574	-0.6357	0.0685
6.87	-9.3802	-0.0040	1.8522	-0.0011	-0.0100	-0.0430	0.7445	31.1666	-0.3479	-0.7668	-0.0575	-0.6356	0.0685
6.88	-9.3866	0.0047	1.8416	-0.0070	-0.0161	-0.0446	0.8318	31.3734	-0.2627	-0.7668	-0.0576	-0.6356	0.0685
6.89	-9.3799	-0.0113	1.8500	-0.0055	-0.0215	-0.0429	0.7285	31.3415	0.0135	-0.7668	-0.0576	-0.6356	0.0684
6.9	-9.3811	-0.0126	1.8463	-0.0053	-0.0122	-0.0410	0.6613	31.2031	-0.1510	-0.7668	-0.0577	-0.6355	0.0684
6.91	-9.3922	-0.0104	1.8425	-0.0019	-0.0047	-0.0377	0.7690	31.0924	-0.3658	-0.7669	-0.0578	-0.6356	0.0684
6.92	-9.4004	-0.0037	1.8519	-0.0005	-0.0084	-0.0446	0.8325	31.1567	-0.2610	-0.7668	-0.0579	-0.6356	0.0683
6.93	-9.4279	0.0124	1.8271	0.0091	-0.0053	-0.0421	0.6468	31.0097	-0.3671	-0.7669	-0.0580	-0.6356	0.0683
6.94	-9.4164	0.0218	1.8287	0.0004	-0.0193	-0.0428	0.5746	31.2168	0.0867	-0.7668	-0.0581	-0.6355	0.0683
6.95	-9.3980	0.0328	1.8389	0.0082	-0.0101	-0.0468	0.4354	31.4278	-0.0454	-0.7668	-0.0582	-0.6355	0.0684
6.96	-9.4059	0.0463	1.8254	0.0107	-0.0071	-0.0469	0.5448	31.3522	-0.2867	-0.7668	-0.0583	-0.6356	0.0684
6.97	-9.4060	0.0652	1.8308	0.0161	-0.0148	-0.0495	0.5887	31.4094	-0.1841	-0.7668	-0.0585	-0.6355	0.0684
6.98	-9.4064	0.0784	1.8449	0.0057	-0.0175	-0.0482	0.4510	31.2528	-0.0578	-0.7669	-0.0586	-0.6355	0.0685
6.99	-9.4020	0.0795	1.8451	0.0053	-0.0180	-0.0511	0.5004	31.4864	-0.3937	-0.7668	-0.0586	-0.6354	0.0685
7	-9.3774	0.0867	1.8478	0.0036	-0.0241	-0.0493	0.4467	31.3727	-0.2468	-0.7669	-0.0587	-0.6354	0.0685
7.01	-9.3594	0.1004	1.8731	0.0017	-0.0153	-0.0516	0.5924	31.4924	0.0503	-0.7668	-0.0588	-0.6353	0.0685
7.02	-9.3683	0.0981	1.8663	0.0004	-0.0052	-0.0519	0.6446	31.3102	-0.0237	-0.7669	-0.0588	-0.6354	0.0686
7.03	-9.3749	0.1005	1.8574	-0.0027	-0.0138	-0.0387	0.5546	31.5418	-0.2769	-0.7669	-0.0589	-0.6354	0.0685
7.04	-9.3746	0.1012	1.8612	-0.0040	-0.0090	-0.0472	0.8527	31.3754	0.0581	-0.7669	-0.0590	-0.6354	0.0685
7.05	-9.3764	0.1014	1.8464	-0.0005	-0.0038	-0.0497	0.8224	31.0481	-0.2170	-0.7669	-0.0591	-0.6354	0.0685
7.06	-9.3780	0.0885	1.8435	-0.0067	-0.0079	-0.0544	0.9820	31.3006	-0.5091	-0.7669	-0.0591	-0.6354	0.0685
7.07	-9.3873	0.0801	1.8377	-0.0140	-0.0037	-0.0516	0.7987	31.2798	-0.1711	-0.7669	-0.0591	-0.6354	0.0685
7.08	-9.3829	0.0770	1.8314	-0.0162	-0.0109	-0.0539	0.6320	31.3112	-0.1600	-0.7668	-0.0591	-0.6354	0.0685
7.09	-9.3935	0.0725	1.8475	-0.0106	-0.0012	-0.0550	0.6724	31.2641	-0.2981	-0.7668	-0.0591	-0.6355	0.0685
7.1	-9.3984	0.0755	1.8124	-0.0163	-0.0005	-0.0549	0.6335	31.1969	-0.2172	-0.7668	-0.0591	-0.6355	0.0685
7.11	-9.3777	0.0730	1.8247	-0.0259	-0.0072	-0.0583	0.7287	31.1614	-0.3759	-0.7668	-0.0591	-0.6355	0.0684
7.12	-9.3810	0.0695	1.8419	-0.0121	-0.0062	-0.0538	0.7666	30.9788	-0.2191	-0.7667	-0.0591	-0.6355	0.0684
7.13	-9.4047	0.0658	1.8070	-0.0245	0.0015	-0.0534	0.5777	31.3495	-0.2006	-0.7667	-0.0590	-0.6356	0.0684
7.14	-9.4012	0.0642	1.8138	-0.0228	-0.0058	-0.0574	0.4153	31.5179	-0.2568	-0.7667	-0.0590	-0.6356	0.0683
7.15	-9.3868	0.0700	1.8169	-0.0215	0.0009	-0.0544	0.6668	31.4234	-0.0453	-0.7666	-0.0589	-0.6356	0.0683
7.16	-9.3853	0.0676	1.8122	-0.0139	0.0060	-0.0553	0.6639	31.6253	-0.2110	-0.7667	-0.0590	-0.6358	0.0683
7.17	-9.4045	0.0704	1.8029	-0.0234	0.0089	-0.0559	0.4955	31.3014	-0.3153	-0.7666	-0.0589	-0.6358	0.0682
7.18	-9.4144	0.0635	1.7870	-0.0246	0.0128	-0.0566	0.7372	31.4052	-0.3880	-0.7666	-0.0589	-0.6359	0.0682
7.19	-9.3980	0.0483	1.7949	-0.0167	-0.0014	-0.0554	0.7502	31.6787	-0.2610	-0.7664	-0.0589	-0.6359	0.0681
7.2	-9.4057	0.0509	1.8102	-0.0243	0.0025	-0.0592	0.6419	31.4118	-0.1373	-0.7665	-0.0588	-0.6360	0.0681
7.21	-9.4287	0.0576	1.7987	-0.0109	0.0012	-0.0567	0.4559	31.4861	-0.0615	-0.7664	-0.0588	-0.6360	0.0681
7.22	-9.4258	0.0402	1.7889	-0.0167	-0.0068	-0.0509	0.6462	31.1629	-0.4672	-0.7664	-0.0588	-0.6360	0.0681
7.23	-9.4135	0.0408	1.8017	-0.0154	-0.0049	-0.0537	0.6544	31.2460	-0.4315	-0.7664	-0.0588	-0.6361	0.0680
7.24	-9.4435	0.0516	1.7990	-0.0185	-0.0049	-0.0553	0.4043	31.1328	-0.1818	-0.7664	-0.0588	-0.6361	0.0680
7.25	-9.4647	0.0622	1.7878	-0.0135	-0.0050	-0.0564	0.8082	31.1726	-0.1382	-0.7664	-0.0588	-0.6361	0.0680
7.26	-9.4223	0.0629	1.8032	-0.0257	-0.0199	-0.0523	0.9525	31.2991	-0.3558	-0.7663	-0.0588	-0.6360	0.0679
7.27	-9.3841	0.0443	1.8302	-0.0281	-0.0181	-0.0444	0.5540	31.2032	-0.4803	-0.7664	-0.0587	-0.6361	0.0678
7.28	-9.4077	0.0311	1.8413	-0.0253	-0.0167	-0.0421	0.7975	31.3233	-0.4007	-0.7664	-0.0587	-0.6360	0.0677
7.29	-9.4388	0.0320	1.8369	-0.0270	-0.0163	-0.0415	0.7991	31.2823	-0.2585	-0.7665	-0.0587	-0.6360	0.0676
7.3	-9.4166	0.0221	1.8532	-0.0249	-0.0189	-0.0452	0.6003	31.2943	-0.2658	-0.7665	-0.0587	-0.6360	0.0675
7.31	-9.3824	-0.0268	1.8416	-0.0267	-0.0180	-0.0429	0.5991	31.1781	-0.2498	-0.7665	-0.0587	-0.6359	0.0675
7.32	-9.3481	-0.0661	1.8278	-0.0206	-0.0212	-0.0384	1.1241	31.4484	-0.0738	-0.7666	-0.0587	-0.6359	0.0674
7.33	-9.3011	-0.0691	1.8493	-0.0053	-0.0170	-0.0321	0.9956	31.5671	-0.0899	-0.7665	-0.0588	-0.6358	0.0673
7.34	-9.3268	-0.0257	1.8533	0.0086	0.0050	-0.0347	1.2188	31.5191	-0.1503	-0.7666	-0.0589	-0.6359	0.0672
7.35	-9.3630	0.0253	1.8064	0.0258	0.0163	-0.0322	1.4291	31.2869	-0.0139	-0.7665	-0.0592	-0.6360	0.0673
7.36	-9.3593	0.0683	1.8232	0.0225	0.0040	-0.0374	1.1463	31.2474	-0.2515	-0.7664	-0.0594	-0.6360	0.0673
7.37	-9.3752	0.0916	1.8265	0.0290	0.0181	-0.0526	1.0066	31.3493	-0.1083	-0.7663	-0.0595	-0.6361	0.0674
7.38	-9.4020	0.1072	1.7934	0.0268	0.0111	-0.0576	1.1712	31.3249	-0.1614	-0.7662	-0.0597	-0.6362	0.0675
7.39	-9.4026	0.1345	1.8061	0.0312	-0.0029	-0.0624	1.2173	31.3326	-0.0556	-0.7662	-0.0598	-0.6362	0.0677
7.4	-9.3950	0.1806	1.8115	0.0284	-0.0033	-0.0621	1.1949	31.3885	-0.0860	-0.7661	-0.0600	-0.6362	0.0678
7.41	-9.3902	0.2093	1.8098	0.0243	0.0017	-0.0596	1.2157	31.5673	-0.5072	-0.7662	-0.0601	-0.6363	0.0679
7.42	-9.4021	0.2207	1.8121	0.0158	0.0052	-0.0615	1.3375	31.4060	-0.3090	-0.7661	-0.0602	-0.6363	0.0680
7.43	-9.4109	0.2316	1.7882	-0.0026	0.0023	-0.0602	1.2044	31.2951	-0.3951	-0.7661	-0.0603	-0.6364	0.0681
7.44	-9.4105	0.2112	1.8037	-0.0075	-0.0051	-0.0641	1.2081	31.4339	-0.4134	-0.7660	-0.0603	-0.6363	0.0681
7.45	-9.4360	0.1857	1.7956	-0.0209	0.0168	-0.0663	1.1885	31.3039	-0.2977	-0.7659	-0.0602	-0.6365	0.0681
7.46	-9.4631	0.1512	1.7773	-0.0261	0.0045	-0.0590	1.0623	31.1541	-0.3104	-0.7659	-0.0602	-0.6366	0.0681
7.47	-9.4740	0.1145	1.7831	-0.0294	-0.0041	-0.0623	1.2296	31.2331	-0.3387	-0.7658	-0.0601	-0.6366	0.0680
7.48	-9.4796	0.0906	1.7795	-0.0309	-0.0083	-0.0620	1.0792	31.2434	-0.1689	-0.7659	-0.0600	-0.6367	0.0680
7.49	-9.4808	0.0771	1.7866	-0.0320	-0.0192	-0.0602	1.0168	31.2694	-0.3236	-0.7659	-0.0599	-0.6366	0.0680
7.5	-9.4565	0.0542	1.7630	-0.0325	-0.0244	-0.0645	1.0127	31.3710	-0.4339	-0.7660	-0.0598	-0.6366	0.0679
7.51	-9.4184	0.0197	1.7955	-0.0323	-0.0270	-0.0679	1.1223	31.2202	-0.4131	-0.7659	-0.0597	-0.6364	0.0679
7.52	-9.3835	0.0198	1.7850	-0.0282	-0.0191	-0.0658	1.0993	31.2534	-0.3664	-0.7660	-0.0596	-0.6365	0.0679
7.53	-9.3868	0.0567	1.8192	-0.0294	-0.0204	-0.0594	0.9835	31.4057	-0.1721	-0.7660	-0.0595	-0.6364	0.0678
7.54	-9.4541	0.0642	1.8268	-0.0350	-0.0056	-0.0626	1.1095	31.4203	-0.2652	-0.7660	-0.0594	-0.6364	0.0678
7.55	-9.4116	0.0468	1.7826	-0.0353	-0.0288	-0.0626	1.2217	31.4239	-0.1040	-0.7661	-0.0593	-0.6364	0.0677
7.56	-9.3397	0.0368	1.8946	-0.0423	-0.0314	-0.0563	1.0534	31.5386	-0.1543	-0.7662	-0.0592	-0.6363	0.0677
7.57	-9.3622	-0.0218	1.8255	-0.0446	-0.0077	-0.0556	1.0198	31.4653	-0.1240	-0.7662	-0.0590	-0.6364	0.0676
7.58	-9.3829	-0.0383	1.8151	-0.0283	-0.0283	-0.0405	1.0191	31.2250	-0.1431	-0.7662	-0.0590	-0.6362	0.0674
7.59	-9.3240	-0.0198	1.8621	-0.0264	-0.0401	-0.0344	1.1443	31.3596	-0.1138	-0.7664	-0.0590	-0.6362	0.0673
7.6	-9.3324	0.0184	1.8871	-0.0290	-0.0106	-0.0353	1.0766	31.1388	-0.3461	-0.7663	-0.0590	-0.6362	0.0672
7.61	-9.3813	0.0454	1.8506	-0.0120	-0.0022	-0.0363	1.2172	31.2449	-0.4359	-0.7664	-0.0591	-0.6362	0.0671
7.62	-9.3848	0.0650	1.8476	-0.0079	-0.0047	-0.0485	1.0894	31.1442	-0.3787	-0.7663	-0.0591	-0.6362	0.0671
7.63	-9.3598	0.0535	1.8671	-0.0115	-0.0139	-0.0558	1.1531	31.1710	-0.5658	-0.7663	-0.0591	-0.6362	0.0671
7.64	-9.3693	0.0462	1.8627	-0.0026	-0.0047	-0.0572	1.2052	31.3072	-0.3706	-0.7663	-0.0592	-0.6362	0.0671
7.65	-9.3951	0.0711	1.8286	-0.0015	0.0004	-0.0543	1.2917	31.4252	-0.2134	-0.7662	-0.0592	-0.6362	0.0671
7.66	-9.3896	0.1009	1.8321	-0.0014	-0.0052	-0.0511	1.1870	31.4114	-0.2221	-0.7663	-0.0593	-0.6363	0.0671
7.67	-9.3856	0.1146	1.8304	0.0013	0.0099	-0.0571	1.0831	31.2989	-0.2537	-0.7662	-0.0593	-0.6363	0.0672
7.68	-9.3955	0.1080	1.8116	-0.0054	0.0075	-0.0551	1.1384	31.3578	-0.3688	-0.7662	-0.0594	-0.6365	0.0672
7.69	-9.3858	0.0938	1.8060	-0.0063	0.0025	-0.0574	1.0920	31.2958	-0.1824	-0.7660	-0.0594	-0.6364	0.0672
7.7	-9.3784	0.0788	1.8060	-0.0154	0.0086	-0.0572	1.0328	31.5049	-0.1569	-0.7660	-0.0594	-0.6365	0.0672
7.71	-9.3854	0.0744	1.7907	-0.0170	0.0043	-0.0554	1.1652	31.4235	-0.2707	-0.7660	-0.0594	-0.6366	0.0671
7.72	-9.4082	0.0748	1.7897	-0.0221	-0.0007	-0.0484	1.0009	31.1980	-0.4479	-0.7659	-0.0594	-0.6366	0.0671
7.73	-9.4221	0.0727	1.7796	-0.0135	0.0027	-0.0473	1.1443	31.3681	-0.2461	-0.7660	-0.0594	-0.6367	0.0670
7.74	-9.4232	0.0632	1.8002	-0.0219	-0.0048	-0.0474	1.0764	31.4381	-0.3038	-0.7659	-0.0594	-0.6367	0.0670
7.75	-9.4327	0.0631	1.7992	-0.0144	-0.0031	-0.0525	0.9866	31.1473	-0.1854	-0.7659	-0.0594	-0.6368	0.0669
7.76	-9.4344	0.0635	1.7839	-0.0064	-0.0015	-0.0545	1.1315	31.2472	-0.1058	-0.7658	-0.0594	-0.6367	0.0669
7.77	-9.4198	0.0691	1.7990	-0.0134	-0.0120	-0.0568	1.2108	31.3389	-0.2414	-0.7659	-0.0594	-0.6368	0.0669
7.78	-9.4337	0.0821	1.8001	-0.0010	-0.0042	-0.0561	1.2240	31.3670	-0.4509	-0.7658	-0.0594	-0.6368	0.0670
7.79	-9.4405	0.1006	1.7820	-0.0019	-0.0018	-0.0573	1.4161	31.4617	-0.4612	-0.7658	-0.0595	-0.6368	0.0670
7.8	-9.4290	0.1166	1.7992	-0.0003	-0.0066	-0.0545	1.2569	31.2096	-0.2768	-0.7658	-0.0595	-0.6368	0.0670
7.81	-9.4355	0.1162	1.7963	-0.0082	-0.0045	-0.0551	1.2084	31.1228	-0.4574	-0.7658	-0.0596	-0.6368	0.0670
7.82	-9.4355	0.1197	1.7808	-0.0068	-0.0132	-0.0572	1.6031	31.2517	-0.1200	-0.7658	-0.0596	-0.6369	0.0670
7.83	-9.4162	0.1188	1.7951	-0.0117	-0.0182	-0.0541	1.7896	31.5666	-0.1539	-0.7657	-0.0596	-0.6368	0.0670
7.84	-9.4126	0.1094	1.8140	-0.0135	-0.0133	-0.0563	1.3322	31.2011	-0.0285	-0.7658	-0.0596	-0.6368	0.0670
7.85	-9.4123	0.1131	1.7964	-0.0171	-0.0115	-0.0490	1.0524	31.2742	-0.2499	-0.7658	-0.0596	-0.6368	0.0670
7.86	-9.3991	0.1134	1.8082	-0.0203	-0.0152	-0.0488	1.0224	31.2723	-0.3889	-0.7658	-0.0596	-0.6368	0.0669
7.87	-9.3686	0.1050	1.8319	-0.0218	-0.0265	-0.0545	0.9863	31.1953	-0.3582	-0.7659	-0.0595	-0.6367	0.0669
7.88	-9.3638	0.1157	1.8335	-0.0277	-0.0212	-0.0542	0.8735	31.3573	-0.4813	-0.7659	-0.0595	-0.6367	0.0668
7.89	-9.3796	0.1147	1.8256	-0.0206	-0.0041	-0.0575	1.1364	31.4113	-0.2427	-0.7659	-0.0595	-0.6367	0.0668
7.9	-9.3663	0.0975	1.8203	-0.0267	-0.0150	-0.0536	0.8775	31.3712	0.0149	-0.7659	-0.0594	-0.6366	0.0667
7.91	-9.3571	0.0859	1.8322	-0.0252	-0.0105	-0.0592	0.9465	31.4248	-0.0100	-0.7660	-0.0594	-0.6367	0.0667
7.92	-9.3855	0.0835	1.8196	-0.0265	0.0053	-0.0607	0.9508	31.6343	-0.1414	-0.7659	-0.0593	-0.6367	0.0667
7.93	-9.3972	0.0743	1.7911	-0.0274	-0.0050	-0.0562	0.9533	31.7280	-0.2946	-0.7659	-0.0592	-0.6368	0.0666
7.94	-9.3889	0.0754	1.8190	-0.0275	-0.0002	-0.0556	1.0155	31.7673	-0.1805	-0.7658	-0.0592	-0.6368	0.0666
7.95	-9.4000	0.0722	1.8125	-0.0280	0.0035	-0.0579	0.9898	31.3653	-0.2065	-0.7658	-0.0591	-0.6369	0.0665
7.96	-9.4074	0.0690	1.7901	-0.0242	-0.0051	-0.0590	0.9755	31.4439	-0.4913	-0.7658	-0.0591	-0.6369	0.0665
7.97	-9.3883	0.0688	1.7983	-0.0237	-0.0106	-0.0621	1.0779	31.2137	-0.0508	-0.7657	-0.0590	-0.6369	0.0665
7.98	-9.3817	0.0651	1.8049	-0.0229	-0.0095	-0.0601	1.1641	31.1376	-0.1173	-0.7658	-0.0590	-0.6370	0.0664
7.99	-9.3890	0.0630	1.7946	-0.0271	-0.0056	-0.0591	1.2197	31.2186	-0.5980	-0.7658	-0.0589	-0.6369	0.0664
8	-9.4105	0.0628	1.7919	-0.0269	0.0053	-0.0578	1.2246	31.0675	-0.2413	-0.7658	-0.0588	-0.6371	0.0664
8.01	-9.4156	0.0578	1.7719	-0.0283	-0.0060	-0.0570	1.0512	31.2631	-0.3733	-0.7657	-0.0588	-0.6370	0.0663
8.02	-9.4156	0.0571	1.7878	-0.0249	-0.0070	-0.0546	1.2030	31.1581	-0.4682	-0.7657	-0.0587	-0.6371	0.0662
8.03	-9.4405	0.0588	1.7816	-0.0215	0.0036	-0.0561	0.9779	31.3412	-0.2749	-0.7657	-0.0587	-0.6371	0.0662
8.04	-9.4718	0.0527	1.7674	-0.0168	0.0002	-0.0557	1.0143	31.4024	-0.2888	-0.7656	-0.0587	-0.6371	0.0662
8.05	-9.4881	0.0471	1.7689	-0.0122	-0.0098	-0.0559	0.9617	31.4049	-0.1632	-0.7657	-0.0587	-0.6372	0.0662
8.06	-9.4807	0.0378	1.7432	-0.0096	-0.0210	-0.0565	0.9228	31.4733	-0.2113	-0.7657	-0.0587	-0.6371	0.0662
8.07	-9.4506	0.0286	1.7464	-0.0031	-0.0380	-0.0594	1.0231	31.3563	-0.3469	-0.7658	-0.0587	-0.6371	0.0662
8.08	-9.3942	0.0420	1.7659	-0.0008	-0.0367	-0.0636	0.9680	31.4042	-0.4683	-0.7658	-0.0587	-0.6369	0.0663
8.09	-9.3601	0.0657	1.7805	-0.0024	-0.0316	-0.0581	1.1221	31.4895	-0.3495	-0.7659	-0.0587	-0.6369	0.0663
8.1	-9.3449	0.0907	1.8050	-0.0067	-0.0218	-0.0571	0.8782	31.4733	-0.2117	-0.7659	-0.0587	-0.6368	0.0664
8.11	-9.3328	0.0828	1.8022	-0.0086	-0.0179	-0.0534	0.9981	31.4988	-0.1644	-0.7660	-0.0588	-0.6368	0.0664
8.12	-9.3331	0.0805	1.7959	-0.0141	-0.0053	-0.0483	0.9728	31.3692	-0.2902	-0.7659	-0.0588	-0.6368	0.0663
8.13	-9.3622	0.0920	1.7875	-0.0234	0.0094	-0.0494	1.0437	31.4244	-0.2714	-0.7659	-0.0588	-0.6368	0.0663
8.14	-9.4270	0.0901	1.7666	-0.0238	0.0094	-0.0422	1.0460	31.4961	-0.2739	-0.7658	-0.0588	-0.6369	0.0662
8.15	-9.4754	0.0831	1.7528	-0.0166	0.0086	-0.0442	0.9482	31.1053	-0.3314	-0.7657	-0.0588	-0.6369	0.0661
8.16	-9.4670	0.0800	1.7384	-0.0232	-0.0120	-0.0443	1.2263	31.0359	-0.5110	-0.7658	-0.0588	-0.6370	0.0660
8.17	-9.4347	0.0509	1.7645	-0.0265	-0.0152	-0.0565	1.1151	31.1893	-0.3498	-0.7658	-0.0588	-0.6370	0.0659
8.18	-9.4642	0.0451	1.7748	-0.0184	-0.0048	-0.0560	1.0446	31.2498	-0.2287	-0.7659	-0.0587	-0.6371	0.0659
8.19	-9.5045	0.0612	1.7522	-0.0166	-0.0102	-0.0564	1.2094	31.0985	-0.3818	-0.7657	-0.0587	-0.6370	0.0659
8.2	-9.4738	0.0566	1.7851	-0.0094	-0.0281	-0.0621	0.9908	31.1691	-0.2354	-0.7658	-0.0587	-0.6370	0.0659
8.21	-9.4207	0.0442	1.7867	-0.0118	-0.0330	-0.0624	1.0698	31.2180	-0.2928	-0.7659	-0.0587	-0.6369	0.0660
8.22	-9.4001	0.0214	1.7749	-0.0087	-0.0294	-0.0529	0.9964	31.2884	-0.2473	-0.7659	-0.0587	-0.6368	0.0660
8.23	-9.3675	0.0442	1.7850	-0.0075	-0.0293	-0.0425	1.0095	31.3152	-0.3996	-0.7661	-0.0587	-0.6368	0.0659
8.24	-9.3491	0.0918	1.8186	-0.0083	-0.0321	-0.0406	1.0681	31.2998	-0.4754	-0.7661	-0.0588	-0.6366	0.0659
8.25	-9.3553	0.1329	1.8029	-0.0103	-0.0156	-0.0297	0.9587	31.2962	-0.4208	-0.7662	-0.0589	-0.6366	0.0658
8.26	-9.3702	0.1497	1.7880	-0.0204	-0.0117	-0.0344	1.0072	31.3844	-0.1527	-0.7661	-0.0589	-0.6365	0.0657
8.27	-9.3784	0.1275	1.7923	-0.0290	-0.0125	-0.0410	0.9929	31.5204	-0.1009	-0.7662	-0.0589	-0.6366	0.0656
8.28	-9.3865	0.1093	1.7789	-0.0239	-0.0149	-0.0413	0.9660	31.4191	-0.4090	-0.7662	-0.0589	-0.6366	0.0655
8.29	-9.3797	0.1010	1.7753	-0.0223	-0.0140	-0.0482	0.8009	31.3733	-0.2615	-0.7662	-0.0589	-0.6365	0.0654
8.3	-9.3795	0.1143	1.7870	-0.0266	-0.0070	-0.0518	0.8142	31.4037	-0.3905	-0.7662	-0.0589	-0.6366	0.0653
8.31	-9.3934	0.1246	1.7716	-0.0176	-0.0054	-0.0530	0.9668	31.5078	-0.2060	-0.7662	-0.0588	-0.6366	0.0653
8.32	-9.3854	0.1186	1.7693	-0.0072	-0.0160	-0.0552	1.4358	31.6763	-0.1989	-0.7662	-0.0589	-0.6366	0.0653
8.33	-9.3834	0.1152	1.7995	-0.0082	-0.0104	-0.0665	1.4446	31.9700	-0.0999	-0.7661	-0.0589	-0.6365	0.0653
8.34	-9.4044	0.1152	1.7903	-0.0184	-0.0125	-0.0607	1.3466	31.5839	-0.0758	-0.7662	-0.0588	-0.6366	0.0653
8.35	-9.4177	0.1173	1.7932	-0.0190	-0.0122	-0.0657	1.2792	31.2440	-0.0380	-0.7662	-0.0588	-0.6365	0.0654
8.36	-9.4150	0.1154	1.7999	-0.0249	-0.0119	-0.0637	1.1557	31.0962	-0.2349	-0.7662	-0.0587	-0.6366	0.0653
8.37	-9.4108	0.1072	1.7995	-0.0270	-0.0135	-0.0639	1.2662	31.2873	-0.1757	-0.7662	-0.0586	-0.6365	0.0653
8.38	-9.4045	0.1049	1.8019	-0.0271	-0.0147	-0.0600	1.2598	31.1265	-0.4453	-0.7662	-0.0585	-0.6365	0.0653
8.39	-9.4124	0.1089	1.8075	-0.0294	-0.0099	-0.0586	1.2017	31.2793	-0.3925	-0.7663	-0.0585	-0.6366	0.0652
8.4	-9.4153	0.0941	1.7860	-0.0373	-0.0114	-0.0539	1.1376	31.4790	-0.2874	-0.7662	-0.0584	-0.6365	0.0652
8.41	-9.4225	0.0804	1.7849	-0.0397	-0.0069	-0.0461	1.1950	31.4005	-0.3118	-0.7663	-0.0583	-0.6366	0.0650
8.42	-9.3990	0.0690	1.7614	-0.0379	-0.0092	-0.0435	1.1109	31.2153	-0.2033	-0.7663	-0.0582	-0.6366	0.0649
8.43	-9.4229	0.0759	1.8175	-0.0305	-0.0136	-0.0427	1.0531	31.3382	-0.1705	-0.7663	-0.0582	-0.6366	0.0648
8.44	-9.5000	0.0529	1.7683	-0.0370	0.0001	-0.0538	1.1703	31.4537	-0.0227	-0.7662	-0.0581	-0.6366	0.0647
8.45	-9.4355	0.0437	1.7344	-0.0298	-0.0317	-0.0539	1.1781	31.5429	-0.1559	-0.7663	-0.0581	-0.6366	0.0646
8.46	-9.3611	0.0315	1.8638	-0.0274	-0.0266	-0.0546	1.1325	31.3480	-0.1325	-0.7664	-0.0580	-0.6365	0.0646
8.47	-9.4161	-0.0143	1.7778	-0.0273	0.0005	-0.0559	1.2787	31.3648	-0.1134	-0.7663	-0.0580	-0.6365	0.0645
8.48	-9.4178	-0.0013	1.7442	-0.0276	-0.0197	-0.0486	1.1175	31.3327	-0.0698	-0.7664	-0.0579	-0.6366	0.0644
8.49	-9.3421	0.0302	1.8550	-0.0124	-0.0362	-0.0506	1.1096	31.5486	-0.2329	-0.7665	-0.0579	-0.6364	0.0644
8.5	-9.3917	0.0713	1.8415	-0.0100	-0.0052	-0.0514	1.1730	31.6259	-0.0867	-0.7665	-0.0579	-0.6364	0.0644
8.51	-9.4302	0.0987	1.7765	-0.0076	0.0002	-0.0560	1.2558	31.2197	-0.2293	-0.7664	-0.0580	-0.6364	0.0644
8.52	-9.3967	0.0939	1.8410	-0.0091	-0.0228	-0.0506	1.2330	31.2886	-0.2386	-0.7665	-0.0580	-0.6364	0.0644
8.53	-9.3939	0.0825	1.8353	-0.0125	-0.0089	-0.0528	1.1566	31.2392	-0.1476	-0.7665	-0.0580	-0.6364	0.0644
8.54	-9.4040	0.0914	1.7986	-0.0093	-0.0094	-0.0554	1.3944	31.3501	-0.1874	-0.7664	-0.0580	-0.6364	0.0644
8.55	-9.3924	0.1020	1.8177	-0.0045	-0.0240	-0.0491	1.2000	31.3611	-0.3379	-0.7665	-0.0581	-0.6364	0.0644
8.56	-9.3991	0.1137	1.8220	-0.0185	-0.0143	-0.0523	1.3201	31.2099	-0.1692	-0.7665	-0.0581	-0.6363	0.0643
8.57	-9.4127	0.1181	1.7877	-0.0230	-0.0084	-0.0469	1.0902	31.1559	-0.2869	-0.7665	-0.0580	-0.6364	0.0643
8.58	-9.4006	0.1049	1.7895	-0.0213	-0.0138	-0.0531	1.0901	31.2562	-0.3501	-0.7665	-0.0580	-0.6363	0.0642
8.59	-9.4063	0.0885	1.7949	-0.0230	-0.0113	-0.0548	1.0202	31.3852	-0.1442	-0.7666	-0.0580	-0.6364	0.0642
8.6	-9.4183	0.0776	1.7880	-0.0250	-0.0165	-0.0554	1.0668	31.3157	-0.1990	-0.7666	-0.0579	-0.6363	0.0641
8.61	-9.4240	0.0686	1.7940	-0.0239	-0.0155	-0.0542	1.2017	31.4486	-0.1516	-0.7666	-0.0579	-0.6363	0.0641
8.62	-9.4088	0.0658	1.8048	-0.0077	-0.0248	-0.0521	1.1586	31.4269	-0.1355	-0.7666	-0.0579	-0.6362	0.0641
8.63	-9.3983	0.0734	1.8149	-0.0143	-0.0213	-0.0544	1.2596	31.3559	-0.2153	-0.7667	-0.0579	-0.6362	0.0641
8.64	-9.3986	0.0758	1.8165	-0.0224	-0.0225	-0.0560	1.1220	31.4949	0.1034	-0.7667	-0.0579	-0.6362	0.0640
8.65	-9.3979	0.0787	1.8159	-0.0128	-0.0181	-0.0566	1.1921	31.3338	-0.0477	-0.7667	-0.0579	-0.6361	0.0640
8.66	-9.4113	0.0818	1.8251	-0.0126	-0.0236	-0.0474	1.1439	31.3669	-0.1427	-0.7668	-0.0579	-0.6361	0.0640
8.67	-9.4168	0.0854	1.8196	-0.0118	-0.0215	-0.0501	1.0386	31.3408	0.0347	-0.7668	-0.0579	-0.6360	0.0640
8.68	-9.4049	0.0961	1.8199	-0.0066	-0.0173	-0.0563	1.1593	31.3809	-0.2108	-0.7669	-0.0579	-0.6361	0.0640
8.69	-9.3900	0.1055	1.8311	-0.0116	-0.0202	-0.0503	1.1635	31.2298	-0.2186	-0.7668	-0.0579	-0.6359	0.0640
8.7	-9.3999	0.1092	1.8306	-0.0102	-0.0161	-0.0563	1.1742	31.5487	-0.2444	-0.7669	-0.0579	-0.6360	0.0640
8.71	-9.3933	0.1151	1.8230	-0.0117	-0.0264	-0.0465	1.1419	31.4228	-0.1612	-0.7669	-0.0580	-0.6359	0.0639
8.72	-9.3743	0.1209	1.8444	-0.0148	-0.0286	-0.0504	1.2577	31.3125	-0.1208	-0.7669	-0.0580	-0.6358	0.0639
8.73	-9.3847	0.1248	1.8466	-0.0073	-0.0237	-0.0542	1.2443	31.3891	-0.1170	-0.7671	-0.0580	-0.6358	0.0639
8.74	-9.3992	0.1254	1.8398	-0.0218	-0.0211	-0.0573	1.1403	31.3110	-0.3285	-0.7671	-0.0580	-0.6357	0.0639
8.75	-9.4012	0.1351	1.8642	-0.0147	-0.0204	-0.0556	1.1722	31.1982	-0.4058	-0.7671	-0.0579	-0.6357	0.0639
8.76	-9.4138	0.1333	1.8600	-0.0169	-0.0170	-0.0590	1.1664	31.1429	-0.0679	-0.7671	-0.0579	-0.6356	0.0639
8.77	-9.4085	0.1271	1.8480	-0.0241	-0.0176	-0.0600	1.0387	31.3408	-0.1783	-0.7672	-0.0579	-0.6357	0.0638
8.78	-9.3693	0.1241	1.8585	-0.0259	-0.0274	-0.0614	1.1376	31.2968	-0.2277	-0.7672	-0.0578	-0.6356	0.0638
8.79	-9.3547	0.1059	1.8706	-0.0277	-0.0227	-0.0561	1.1737	31.2717	-0.2235	-0.7672	-0.0577	-0.6355	0.0638
8.8	-9.3800	0.0899	1.8492	-0.0267	-0.0111	-0.0576	1.1560	31.1435	-0.2062	-0.7673	-0.0577	-0.6356	0.0637
8.81	-9.3802	0.0900	1.8367	-0.0275	-0.0193	-0.0568	1.4348	31.2559	-0.1083	-0.7673	-0.0576	-0.6355	0.0637
8.82	-9.3653	0.0886	1.8688	-0.0269	-0.0185	-0.0629	1.4115	31.6167	-0.1108	-0.7673	-0.0575	-0.6355	0.0637
8.83	-9.3727	0.0855	1.8525	-0.0279	-0.0084	-0.0640	1.5485	31.7172	0.1042	-0.7672	-0.0574	-0.6355	0.0636
8.84	-9.3710	0.0754	1.8431	-0.0262	-0.0130	-0.0622	1.2452	31.5464	-0.1607	-0.7673	-0.0574	-0.6355	0.0636
8.85	-9.3489	0.0689	1.8754	-0.0277	-0.0189	-0.0625	1.0611	31.4660	-0.1601	-0.7673	-0.0573	-0.6355	0.0636
8.86	-9.3610	0.0606	1.8534	-0.0268	-0.0072	-0.0631	0.8350	31.3896	-0.1921	-0.7674	-0.0572	-0.6355	0.0636
8.87	-9.3565	0.0528	1.8326	-0.0281	-0.0093	-0.0555	1.0619	31.4554	-0.0488	-0.7673	-0.0571	-0.6355	0.0635
8.88	-9.3324	0.0487	1.8561	-0.0251	-0.0094	-0.0622	1.1149	31.4375	-0.0266	-0.7673	-0.0571	-0.6355	0.0635
8.89	-9.3495	0.0501	1.8495	-0.0267	0.0018	-0.0588	0.9499	31.4971	-0.2725	-0.7673	-0.0570	-0.6356	0.0635
8.9	-9.3820	0.0604	1.8236	-0.0164	0.0067	-0.0546	0.9057	31.5728	-0.3611	-0.7672	-0.0570	-0.6356	0.0634
8.91	-9.3921	0.0629	1.8274	-0.0189	0.0055	-0.0594	1.1914	31.2940	-0.3458	-0.7672	-0.0570	-0.6357	0.0634
8.92	-9.4014	0.0593	1.8248	-0.0278	0.0028	-0.0569	1.2996	31.1459	-0.2402	-0.7672	-0.0569	-0.6358	0.0634
8.93	-9.4209	0.0563	1.8053	-0.0249	-0.0003	-0.0516	1.0967	31.2281	-0.2270	-0.7672	-0.0569	-0.6359	0.0633
8.94	-9.4347	0.0601	1.7996	-0.0249	0.0060	-0.0441	1.1211	31.0562	-0.0210	-0.7670	-0.0569	-0.6358	0.0632
8.95	-9.4573	0.0610	1.8019	-0.0204	-0.0062	-0.0414	1.1120	31.1548	-0.3822	-0.7671	-0.0569	-0.6359	0.0631
8.96	-9.4656	0.0640	1.7924	-0.0179	-0.0061	-0.0465	1.1143	31.3268	-0.2631	-0.7671	-0.0569	-0.6359	0.0631
8.97	-9.4534	0.0695	1.7810	-0.0265	-0.0082	-0.0490	1.1204	31.1739	-0.3541	-0.7670	-0.0569	-0.6359	0.0630
8.98	-9.4241	0.0553	1.7840	-0.0270	-0.0254	-0.0457	1.1040	31.1778	-0.3380	-0.7672	-0.0569	-0.6359	0.0629
8.99	-9.4077	0.0410	1.7948	-0.0162	-0.0180	-0.0446	0.9985	31.3545	-0.1180	-0.7671	-0.0569	-0.6358	0.0628
9	-9.4117	0.0433	1.7776	-0.0054	-0.0141	-0.0461	1.0548	31.3023	-0.2122	-0.7672	-0.0569	-0.6359	0.0628
9.01	-9.4005	0.0538	1.7817	-0.0070	-0.0199	-0.0458	0.9170	31.2512	-0.0643	-0.7671	-0.0570	-0.6357	0.0628
9.02	-9.4216	0.0671	1.8079	-0.0012	-0.0175	-0.0494	1.0694	31.3966	-0.0846	-0.7672	-0.0570	-0.6358	0.0628
9.03	-9.4542	0.0813	1.7779	-0.0017	-0.0151	-0.0499	0.9621	31.3303	-0.2742	-0.7672	-0.0571	-0.6357	0.0628
9.04	-9.4130	0.0831	1.7937	-0.0014	-0.0296	-0.0531	0.9284	31.4326	-0.1854	-0.7673	-0.0571	-0.6357	0.0628
9.05	-9.4061	0.0912	1.8325	-0.0035	-0.0237	-0.0531	0.9420	31.5594	-0.1796	-0.7673	-0.0572	-0.6356	0.0629
9.06	-9.4345	0.1209	1.7907	-0.0077	-0.0055	-0.0568	0.9449	31.5002	-0.2975	-0.7673	-0.0572	-0.6356	0.0629
9.07	-9.4346	0.1387	1.8010	-0.0049	-0.0214	-0.0510	0.8988	31.2036	-0.2584	-0.7674	-0.0572	-0.6356	0.0629
9.08	-9.4144	0.1246	1.8163	-0.0071	-0.0279	-0.0582	0.7173	31.4866	-0.1996	-0.7673	-0.0573	-0.6355	0.0629
9.09	-9.4014	0.1103	1.8345	-0.0174	-0.0252	-0.0519	1.0209	31.3930	-0.1431	-0.7675	-0.0572	-0.6355	0.0629
9.1	-9.4297	0.1161	1.8504	-0.0166	-0.0199	-0.0524	1.1446	31.0887	-0.0665	-0.7675	-0.0572	-0.6354	0.0628
9.11	-9.4529	0.1168	1.8391	-0.0205	-0.0314	-0.0512	1.0953	31.0777	-0.3618	-0.7675	-0.0572	-0.6354	0.0628
9.12	-9.4176	0.1154	1.8673	-0.0297	-0.0447	-0.0484	1.1273	31.2160	-0.2619	-0.7676	-0.0572	-0.6352	0.0627
9.13	-9.3696	0.0886	1.8744	-0.0251	-0.0394	-0.0497	1.2283	31.3705	-0.2525	-0.7677	-0.0571	-0.6351	0.0627
9.14	-9.3351	0.0442	1.8608	-0.0319	-0.0441	-0.0428	1.1652	31.2327	-0.0791	-0.7679	-0.0571	-0.6350	0.0626
9.15	-9.2919	0.0295	1.8659	-0.0344	-0.0471	-0.0385	0.9988	31.2999	-0.1349	-0.7679	-0.0570	-0.6348	0.0624
9.16	-9.2600	0.0492	1.8950	-0.0262	-0.0308	-0.0330	1.0589	31.1521	-0.4346	-0.7681	-0.0571	-0.6348	0.0623
9.17	-9.2871	0.0794	1.8935	-0.0255	-0.0146	-0.0312	0.9620	31.0558	-0.2347	-0.7681	-0.0571	-0.6348	0.0622
9.18	-9.3143	0.1093	1.8677	-0.0092	-0.0126	-0.0348	1.2105	31.2278	-0.1471	-0.7682	-0.0572	-0.6348	0.0621
9.19	-9.3119	0.1123	1.8702	-0.0121	-0.0077	-0.0420	1.1004	31.3989	-0.1829	-0.7681	-0.0572	-0.6347	0.0620
9.2	-9.3092	0.1147	1.8686	-0.0071	0.0023	-0.0518	0.9242	31.3201	-0.0603	-0.7681	-0.0572	-0.6348	0.0620
9.21	-9.3364	0.1319	1.8527	-0.0057	0.0167	-0.0553	1.0632	31.4488	-0.2760	-0.7680	-0.0573	-0.6349	0.0620
9.22	-9.3792	0.1545	1.8330	-0.0007	0.0241	-0.0574	1.0210	31.7248	-0.2675	-0.7678	-0.0573	-0.6350	0.0621
9.23	-9.4006	0.1744	1.8228	-0.0011	0.0175	-0.0639	1.0208	31.6249	-0.2836	-0.7678	-0.0574	-0.6352	0.0621
9.24	-9.4118	0.1912	1.8323	-0.0038	0.0142	-0.0705	0.7832	31.4443	-0.2474	-0.7677	-0.0574	-0.6352	0.0622
9.25	-9.4394	0.1974	1.8175	-0.0171	0.0084	-0.0740	0.9255	31.3018	-0.0813	-0.7677	-0.0573	-0.6353	0.0622
9.26	-9.4456	0.1900	1.8046	-0.0293	0.0012	-0.0713	1.0367	31.5587	-0.0806	-0.7675	-0.0572	-0.6353	0.0622
9.27	-9.4350	0.1666	1.8174	-0.0253	-0.0101	-0.0691	1.0175	31.5292	-0.2119	-0.7676	-0.0571	-0.6354	0.0622
9.28	-9.4365	0.1383	1.8208	-0.0353	-0.0096	-0.0660	1.0639	31.3644	-0.3066	-0.7676	-0.0570	-0.6354	0.0622
9.29	-9.4215	0.1187	1.8033	-0.0492	-0.0065	-0.0629	1.2011	31.3783	-0.1740	-0.7675	-0.0568	-0.6354	0.0621
9.3	-9.4030	0.0936	1.8227	-0.0522	-0.0131	-0.0612	1.3172	31.2437	-0.0742	-0.7676	-0.0566	-0.6355	0.0620
9.31	-9.4173	0.0671	1.8129	-0.0530	-0.0079	-0.0592	0.9955	31.1976	-0.3340	-0.7676	-0.0565	-0.6355	0.0619
9.32	-9.4152	0.0490	1.7938	-0.0502	-0.0187	-0.0559	1.3740	31.5441	0.0661	-0.7676	-0.0563	-0.6355	0.0618
9.33	-9.4050	0.0317	1.8206	-0.0495	-0.0107	-0.0555	1.6991	31.5462	0.1331	-0.7676	-0.0562	-0.6354	0.0616
9.34	-9.3765	0.0273	1.8042	-0.0419	-0.0113	-0.0553	1.4884	31.4687	-0.0109	-0.7677	-0.0561	-0.6355	0.0615
9.35	-9.4209	0.0360	1.8578	-0.0397	-0.0146	-0.0590	1.2906	31.4471	-0.2136	-0.7676	-0.0560	-0.6354	0.0615
9.36	-9.4815	0.0316	1.7947	-0.0335	-0.0012	-0.0602	1.0481	31.3790	-0.1233	-0.7676	-0.0559	-0.6355	0.0614
9.37	-9.4116	0.0340	1.8279	-0.0268	-0.0403	-0.0653	1.1528	31.4347	-0.1301	-0.7677	-0.0558	-0.6354	0.0614
9.38	-9.3672	0.0006	1.9024	-0.0267	-0.0247	-0.0704	1.0207	31.4448	-0.1120	-0.7678	-0.0557	-0.6354	0.0614
9.39	-9.4179	-0.0262	1.8163	-0.0223	-0.0119	-0.0641	1.2895	31.4258	-0.1707	-0.7678	-0.0556	-0.6354	0.0614
9.4	-9.3593	-0.0029	1.8310	-0.0171	-0.0337	-0.0571	1.3567	31.4538	-0.3190	-0.7678	-0.0556	-0.6352	0.0614
9.41	-9.3049	0.0313	1.9268	-0.0153	-0.0328	-0.0534	1.0724	31.4036	-0.3119	-0.7680	-0.0556	-0.6352	0.0614
9.42	-9.3696	0.0666	1.8813	-0.0061	0.0093	-0.0559	0.9209	31.5114	-0.1368	-0.7678	-0.0556	-0.6352	0.0614
9.43	-9.4064	0.0739	1.8347	-0.0200	-0.0070	-0.0521	1.0294	31.4247	-0.1746	-0.7679	-0.0556	-0.6353	0.0614
9.44	-9.3759	0.0725	1.8841	-0.0181	-0.0181	-0.0575	1.1627	31.1902	-0.3369	-0.7678	-0.0555	-0.6352	0.0613
9.45	-9.3736	0.0637	1.8777	-0.0163	-0.0041	-0.0516	0.9941	31.5708	-0.1607	-0.7679	-0.0555	-0.6353	0.0613
9.46	-9.4080	0.0638	1.8446	-0.0180	-0.0056	-0.0509	1.1511	31.3929	-0.1147	-0.7678	-0.0555	-0.6353	0.0613
9.47	-9.4080	0.0831	1.8417	-0.0076	-0.0127	-0.0493	1.0379	31.3310	-0.1293	-0.7678	-0.0556	-0.6353	0.0612
9.48	-9.3852	0.1066	1.8610	-0.0144	-0.0124	-0.0490	1.1780	31.4417	-0.1157	-0.7679	-0.0556	-0.6353	0.0612
9.49	-9.3961	0.1157	1.8524	-0.0058	-0.0004	-0.0553	1.2075	31.3292	-0.2871	-0.7678	-0.0556	-0.6353	0.0612
9.5	-9.4047	0.1086	1.8347	-0.0084	-0.0103	-0.0557	1.1100	31.0924	-0.3009	-0.7678	-0.0556	-0.6354	0.0612
9.51	-9.3981	0.1033	1.8565	-0.0072	-0.0084	-0.0548	1.1473	31.1650	-0.3134	-0.7677	-0.0557	-0.6353	0.0612
9.52	-9.4018	0.0956	1.8545	-0.0134	-0.0031	-0.0614	1.1453	31.3795	-0.2841	-0.7678	-0.0556	-0.6354	0.0613
9.53	-9.3987	0.0943	1.8490	-0.0154	-0.0137	-0.0561	1.1034	31.1971	-0.3567	-0.7678	-0.0556	-0.6353	0.0612
9.54	-9.3772	0.0942	1.8631	-0.0161	-0.0199	-0.0590	0.9599	31.3583	-0.1211	-0.7678	-0.0556	-0.6353	0.0612
9.55	-9.3694	0.0912	1.8614	-0.0195	-0.0088	-0.0552	0.9468	31.3497	-0.1390	-0.7678	-0.0556	-0.6353	0.0612
9.56	-9.3725	0.0849	1.8644	-0.0186	-0.0117	-0.0578	1.0001	31.3324	-0.3462	-0.7678	-0.0555	-0.6353	0.0612
9.57	-9.3775	0.0882	1.8521	-0.0192	-0.0135	-0.0501	1.0683	31.4013	-0.0905	-0.7679	-0.0555	-0.6353	0.0612
9.58	-9.3940	0.0819	1.8541	-0.0205	-0.0063	-0.0538	1.0421	31.5285	-0.2178	-0.7678	-0.0555	-0.6353	0.0611
9.59	-9.4160	0.0931	1.8481	-0.0266	-0.0037	-0.0456	1.1588	31.5337	-0.3524	-0.7678	-0.0555	-0.6354	0.0610
9.6	-9.4363	0.0972	1.8333	-0.0270	-0.0023	-0.0492	1.1424	31.3228	-0.2269	-0.7678	-0.0555	-0.6354	0.0610
9.61	-9.4290	0.0909	1.8379	-0.0277	-0.0110	-0.0492	1.0851	31.2224	0.0206	-0.7678	-0.0554	-0.6354	0.0609
9.62	-9.4135	0.0966	1.8506	-0.0256	-0.0219	-0.0503	0.9279	31.3751	-0.2504	-0.7678	-0.0554	-0.6353	0.0608
9.63	-9.4146	0.1051	1.8445	-0.0255	-0.0149	-0.0558	0.9968	31.3264	-0.1984	-0.7678	-0.0553	-0.6353	0.0608
9.64	-9.3979	0.1027	1.8388	-0.0233	-0.0163	-0.0500	1.0868	31.3775	-0.2389	-0.7679	-0.0553	-0.6353	0.0607
9.65	-9.3676	0.1037	1.8549	-0.0190	-0.0194	-0.0559	0.9451	31.2461	-0.1206	-0.7678	-0.0553	-0.6353	0.0607
9.66	-9.3598	0.1043	1.8637	-0.0259	-0.0192	-0.0549	1.0706	31.2780	-0.1194	-0.7680	-0.0552	-0.6353	0.0606
9.67	-9.3654	0.1075	1.8632	-0.0198	-0.0104	-0.0496	1.3416	31.2228	-0.1200	-0.7679	-0.0552	-0.6353	0.0606
9.68	-9.3824	0.1201	1.8636	-0.0237	-0.0071	-0.0497	1.2034	31.1428	-0.1173	-0.7680	-0.0552	-0.6353	0.0605
9.69	-9.3821	0.1240	1.8611	-0.0271	-0.0126	-0.0576	0.9087	31.2772	-0.1213	-0.7679	-0.0551	-0.6352	0.0605
9.7	-9.3756	0.1154	1.8691	-0.0272	-0.0134	-0.0595	1.1298	31.2512	-0.1246	-0.7679	-0.0551	-0.6353	0.0604
9.71	-9.3714	0.1167	1.8714	-0.0271	-0.0107	-0.0609	1.2840	31.2723	-0.1080	-0.7679	-0.0550	-0.6353	0.0604
9.72	-9.3712	0.1037	1.8562	-0.0271	-0.0129	-0.0555	1.1090	31.2411	-0.1897	-0.7679	-0.0549	-0.6352	0.0604
9.73	-9.3649	0.0915	1.8679	-0.0274	-0.0072	-0.0568	1.2723	31.3807	-0.3463	-0.7680	-0.0549	-0.6353	0.0603
9.74	-9.3805	0.0874	1.8599	-0.0270	-0.0039	-0.0585	1.0182	31.3104	-0.2558	-0.7679	-0.0548	-0.6353	0.0603
9.75	-9.3913	0.0715	1.8411	-0.0275	-0.0083	-0.0558	0.9574	31.4590	-0.1930	-0.7680	-0.0548	-0.6354	0.0602
9.76	-9.3775	0.0614	1.8579	-0.0312	-0.0059	-0.0619	0.8737	31.7305	-0.3325	-0.7679	-0.0547	-0.6353	0.0602
9.77	-9.3762	0.0553	1.8517	-0.0316	0.0008	-0.0576	0.8871	31.5679	-0.0773	-0.7679	-0.0546	-0.6354	0.0601
9.78	-9.3912	0.0340	1.8339	-0.0307	-0.0014	-0.0569	0.9964	31.4835	0.0004	-0.7679	-0.0545	-0.6355	0.0601
9.79	-9.3963	0.0320	1.8362	-0.0267	0.0018	-0.0563	0.9370	31.3404	-0.1250	-0.7678	-0.0545	-0.6355	0.0600
9.8	-9.3931	0.0242	1.8324	-0.0279	-0.0044	-0.0562	0.9861	31.3489	-0.2118	-0.7678	-0.0544	-0.6356	0.0600
9.81	-9.3872	0.0248	1.8302	-0.0270	0.0019	-0.0569	0.9280	31.4816	0.0194	-0.7678	-0.0544	-0.6356	0.0599
9.82	-9.3950	0.0425	1.8380	-0.0249	0.0009	-0.0543	1.2918	31.5819	-0.0744	-0.7678	-0.0543	-0.6357	0.0599
9.83	-9.4034	0.0369	1.8268	-0.0175	0.0053	-0.0534	1.7342	31.7331	0.0749	-0.7676	-0.0543	-0.6356	0.0598
9.84	-9.4006	0.0372	1.8214	-0.0115	-0.0123	-0.0478	1.4360	31.4474	-0.0942	-0.7677	-0.0544	-0.6357	0.0598
9.85	-9.4047	0.0410	1.8179	-0.0186	-0.0098	-0.0538	1.4362	31.2837	-0.1101	-0.7677	-0.0543	-0.6357	0.0598
9.86	-9.4274	0.0532	1.8047	-0.0246	0.0030	-0.0491	1.1551	31.3361	-0.4555	-0.7677	-0.0543	-0.6358	0.0597
9.87	-9.4330	0.0772	1.7994	-0.0231	0.0011	-0.0519	1.1057	31.2829	-0.3414	-0.7676	-0.0543	-0.6358	0.0597
9.88	-9.4533	0.0897	1.8118	-0.0168	0.0003	-0.0501	1.2684	31.1880	-0.3485	-0.7676	-0.0543	-0.6358	0.0596
9.89	-9.4711	0.1005	1.7866	-0.0252	-0.0037	-0.0503	1.0978	31.2157	-0.3327	-0.7676	-0.0543	-0.6359	0.0596
9.9	-9.4390	0.1075	1.7941	-0.0224	-0.0213	-0.0516	0.8998	31.1953	-0.4389	-0.7675	-0.0543	-0.6358	0.0595
9.91	-9.4106	0.1113	1.8109	-0.0267	-0.0137	-0.0517	1.1876	31.2148	-0.3403	-0.7677	-0.0542	-0.6359	0.0595
9.92	-9.4090	0.0965	1.7918	-0.0269	-0.0194	-0.0561	1.0410	31.1945	-0.1802	-0.7676	-0.0542	-0.6358	0.0594
9.93	-9.4143	0.0840	1.7934	-0.0233	-0.0093	-0.0546	1.0924	31.2610	-0.1640	-0.7677	-0.0541	-0.6359	0.0594
9.94	-9.3941	0.0781	1.7925	-0.0263	-0.0156	-0.0553	1.1445	31.4140	-0.1558	-0.7676	-0.0541	-0.6358	0.0593
9.95	-9.3773	0.0718	1.7996	-0.0258	-0.0199	-0.0520	1.1023	31.3460	-0.1953	-0.7677	-0.0541	-0.6358	0.0593
9.96	-9.3863	0.0679	1.7971	-0.0261	-0.0078	-0.0508	1.1531	31.4638	-0.4778	-0.7677	-0.0540	-0.6358	0.0592
9.97	-9.3735	0.0664	1.7814	-0.0247	-0.0184	-0.0511	1.0271	31.3988	-0.3558	-0.7677	-0.0540	-0.6357	0.0592
9.98	-9.3770	0.0743	1.8126	-0.0175	-0.0124	-0.0532	1.0405	31.2779	-0.2418	-0.7678	-0.0540	-0.6358	0.0591
9.99	-9.4201	0.0767	1.7963	-0.0033	-0.0007	-0.0539	1.1574	31.4309	-0.2644	-0.7677	-0.0540	-0.6358	0.0592
10	-9.4005	0.0744	1.7774	-0.0134	-0.0196	-0.0481	1.0661	31.3296	-0.2556	-0.7678	-0.0541	-0.6358	0.0591
10.01	-9.3813	0.0873	1.8340	-0.0036	-0.0188	-0.0510	0.9100	31.5862	-0.2653	-0.7677	-0.0541	-0.6357	0.0591
10.02	-9.4364	0.1148	1.7879	-0.0084	-0.0073	-0.0485	1.2190	31.5283	-0.2614	-0.7678	-0.0541	-0.6357	0.0591
10.03	-9.4517	0.1350	1.7843	-0.0028	-0.0158	-0.0530	1.1431	31.2822	-0.0746	-0.7677	-0.0542	-0.6357	0.0591
10.04	-9.4243	0.1434	1.8287	-0.0079	-0.0180	-0.0544	1.1769	31.3109	-0.0845	-0.7677	-0.0542	-0.6357	0.0592
10.05	-9.4115	0.1282	1.8129	-0.0189	-0.0143	-0.0588	1.3338	31.2826	-0.0374	-0.7678	-0.0542	-0.6357	0.0592
10.06	-9.4113	0.1118	1.8221	-0.0268	-0.0243	-0.0560	1.0067	31.0643	-0.2804	-0.7678	-0.0541	-0.6356	0.0591
10.07	-9.4310	0.1151	1.8468	-0.0273	-0.0227	-0.0484	1.1041	31.3972	-0.3218	-0.7679	-0.0541	-0.6356	0.0591
10.08	-9.4350	0.1005	1.8460	-0.0265	-0.0279	-0.0495	1.1362	31.2933	-0.1493	-0.7679	-0.0541	-0.6355	0.0590
10.09	-9.3938	0.0833	1.8475	-0.0277	-0.0311	-0.0482	1.1049	31.1957	-0.1461	-0.7680	-0.0540	-0.6355	0.0589
10.1	-9.3567	0.0540	1.8601	-0.0270	-0.0323	-0.0477	1.0017	31.1974	-0.2268	-0.7681	-0.0540	-0.6354	0.0589
10.11	-9.3276	0.0218	1.8413	-0.0265	-0.0290	-0.0429	1.3505	31.2717	-0.2060	-0.7681	-0.0540	-0.6353	0.0588
10.12	-9.2968	0.0338	1.8641	-0.0166	-0.0307	-0.0344	1.0698	31.3998	-0.0452	-0.7682	-0.0540	-0.6352	0.0587
10.13	-9.3084	0.0646	1.8728	-0.0077	-0.0091	-0.0310	1.0742	31.3821	-0.2140	-0.7682	-0.0541	-0.6352	0.0586
10.14	-9.3358	0.0906	1.8351	-0.0022	0.0017	-0.0393	1.0870	31.5718	-0.1289	-0.7682	-0.0542	-0.6353	0.0586
10.15	-9.3412	0.1038	1.8423	-0.0020	0.0045	-0.0427	1.0132	31.4768	-0.2792	-0.7681	-0.0543	-0.6353	0.0585
10.16	-9.3557	0.1193	1.8460	-0.0001	0.0058	-0.0542	1.0351	31.4539	-0.2419	-0.7681	-0.0544	-0.6354	0.0586
10.17	-9.3690	0.1283	1.8292	-0.0005	-0.0004	-0.0603	1.0657	31.4985	-0.4502	-0.7680	-0.0544	-0.6354	0.0586
10.18	-9.3862	0.1329	1.8307	-0.0018	0.0060	-0.0571	1.1626	31.3893	-0.0977	-0.7680	-0.0545	-0.6355	0.0587
10.19	-9.3877	0.1637	1.8187	0.0016	0.0025	-0.0619	1.0121	31.3862	-0.0660	-0.7679	-0.0545	-0.6355	0.0587
10.2	-9.3883	0.1943	1.8193	-0.0034	0.0044	-0.0651	1.0465	31.4781	-0.1837	-0.7679	-0.0545	-0.6356	0.0588
10.21	-9.3947	0.1909	1.8031	-0.0118	-0.0020	-0.0564	1.2095	31.3121	-0.2047	-0.7678	-0.0545	-0.6356	0.0588
10.22	-9.3885	0.1784	1.8064	-0.0079	-0.0100	-0.0631	1.1913	31.2127	-0.2838	-0.7678	-0.0545	-0.6356	0.0588
10.23	-9.3978	0.1754	1.8178	-0.0193	-0.0042	-0.0604	1.3449	31.2032	-0.2316	-0.7679	-0.0545	-0.6357	0.0588
10.24	-9.4273	0.1462	1.8170	-0.0247	0.0048	-0.0638	1.2151	31.2151	-0.2734	-0.7678	-0.0544	-0.6357	0.0588
10.25	-9.4489	0.1211	1.7925	-0.0329	-0.0001	-0.0629	1.0791	31.1943	-0.2262	-0.7678	-0.0543	-0.6358	0.0588
10.26	-9.4388	0.0990	1.7992	-0.0312	-0.0118	-0.0564	1.1498	31.2869	-0.3663	-0.7677	-0.0543	-0.6357	0.0587
10.27	-9.4472	0.0713	1.8039	-0.0386	-0.0082	-0.0602	1.0973	31.4223	-0.3326	-0.7677	-0.0542	-0.6358	0.0587
10.28	-9.4483	0.0664	1.7774	-0.0359	-0.0095	-0.0538	0.8134	31.3155	-0.3914	-0.7677	-0.0541	-0.6358	0.0586
10.29	-9.4563	0.0587	1.7987	-0.0273	-0.0062	-0.0574	1.0116	31.2778	-0.1825	-0.7677	-0.0540	-0.6358	0.0585
10.3	-9.4127	0.0632	1.7719	-0.0289	-0.0132	-0.0533	1.1413	31.3961	-0.1502	-0.7677	-0.0540	-0.6358	0.0585
10.31	-9.4380	0.0854	1.8630	-0.0266	-0.0176	-0.0534	1.1297	31.2605	-0.1744	-0.7677	-0.0539	-0.6358	0.0584
10.32	-9.5126	0.0872	1.7703	-0.0287	-0.0023	-0.0626	1.5294	31.5566	-0.1664	-0.7678	-0.0539	-0.6359	0.0584
10.33	-9.4098	0.0943	1.7861	-0.0267	-0.0478	-0.0624	1.6931	31.5591	-0.0991	-0.7678	-0.0538	-0.6357	0.0584
10.34	-9.3530	0.0677	1.9038	-0.0271	-0.0292	-0.0649	1.3903	31.5938	-0.0183	-0.7679	-0.0537	-0.6357	0.0584
10.35	-9.4299	0.0509	1.8000	-0.0289	0.0016	-0.0578	1.1270	31.3398	-0.1640	-0.7679	-0.0536	-0.6357	0.0584
10.36	-9.3969	0.0617	1.7944	-0.0318	-0.0367	-0.0574	1.0868	31.2593	-0.1772	-0.7680	-0.0535	-0.6356	0.0583
10.37	-9.3254	0.0732	1.9135	-0.0271	-0.0327	-0.0489	1.0471	31.3531	-0.0255	-0.7680	-0.0535	-0.6355	0.0582
10.38	-9.3878	0.0960	1.8684	-0.0276	0.0059	-0.0505	1.0894	31.3614	-0.1816	-0.7680	-0.0535	-0.6356	0.0582
10.39	-9.4150	0.1055	1.8166	-0.0273	-0.0242	-0.0480	1.1783	31.4728	-0.3214	-0.7680	-0.0534	-0.6356	0.0581
10.4	-9.3734	0.0945	1.8781	-0.0274	-0.0351	-0.0548	1.1267	31.3390	-0.2485	-0.7680	-0.0534	-0.6354	0.0580
10.41	-9.3613	0.0653	1.8658	-0.0277	-0.0093	-0.0577	1.1731	31.2364	-0.2176	-0.7682	-0.0533	-0.6355	0.0580
10.42	-9.3823	0.0617	1.8393	-0.0253	-0.0123	-0.0568	1.2547	31.1401	-0.0689	-0.7681	-0.0533	-0.6354	0.0580
10.43	-9.3903	0.0882	1.8459	-0.0206	-0.0102	-0.0574	1.2272	31.2062	-0.0641	-0.7682	-0.0532	-0.6355	0.0580
10.44	-9.3835	0.1018	1.8454	-0.0205	-0.0140	-0.0513	1.2523	31.0461	-0.3696	-0.7681	-0.0532	-0.6354	0.0579
10.45	-9.3833	0.1116	1.8533	-0.0257	-0.0153	-0.0595	0.9731	31.1242	-0.3853	-0.7681	-0.0532	-0.6354	0.0579
10.46	-9.3906	0.1187	1.8392	-0.0226	-0.0121	-0.0634	1.0085	31.3305	-0.1170	-0.7682	-0.0531	-0.6354	0.0579
10.47	-9.3815	0.1048	1.8405	-0.0247	-0.0145	-0.0617	1.1506	31.1206	-0.1490	-0.7681	-0.0530	-0.6354	0.0579
10.48	-9.3874	0.0899	1.8426	-0.0279	-0.0134	-0.0620	1.2497	31.3183	-0.2172	-0.7682	-0.0530	-0.6355	0.0579
10.49	-9.4035	0.0837	1.8308	-0.0269	-0.0108	-0.0612	1.3646	31.3097	-0.2706	-0.7682	-0.0529	-0.6354	0.0578
10.5	-9.3862	0.0718	1.8342	-0.0299	-0.0173	-0.0581	1.0337	31.4867	-0.1253	-0.7682	-0.0528	-0.6355	0.0578
10.51	-9.3862	0.0593	1.8514	-0.0292	-0.0145	-0.0618	1.1837	31.5389	-0.2620	-0.7681	-0.0527	-0.6354	0.0578
10.52	-9.4169	0.0587	1.8269	-0.0280	-0.0014	-0.0575	1.0869	31.2928	-0.2908	-0.7682	-0.0527	-0.6355	0.0577
10.53	-9.4179	0.0490	1.8206	-0.0260	-0.0201	-0.0516	0.9639	31.5467	0.0748	-0.7682	-0.0526	-0.6354	0.0577
10.54	-9.4068	0.0463	1.8452	-0.0286	-0.0179	-0.0495	1.1769	31.4380	-0.2702	-0.7682	-0.0526	-0.6354	0.0576
10.55	-9.4235	0.0453	1.8327	-0.0236	-0.0079	-0.0455	1.1431	31.4194	-0.2073	-0.7683	-0.0526	-0.6354	0.0575
10.56	-9.4314	0.0410	1.8061	-0.0233	-0.0189	-0.0510	1.1380	31.4548	-0.1352	-0.7683	-0.0526	-0.6354	0.0575
10.57	-9.4118	0.0518	1.8272	-0.0162	-0.0264	-0.0478	0.9769	31.3718	-0.1266	-0.7683	-0.0526	-0.6353	0.0574
10.58	-9.4152	0.0661	1.8453	-0.0184	-0.0149	-0.0488	0.9502	31.2565	-0.2417	-0.7683	-0.0526	-0.6352	0.0574
10.59	-9.4234	0.0753	1.8227	-0.0195	-0.0224	-0.0475	1.1083	31.2290	-0.1035	-0.7684	-0.0526	-0.6353	0.0573
10.6	-9.4035	0.0822	1.8380	-0.0198	-0.0356	-0.0441	1.3079	31.0254	-0.1887	-0.7684	-0.0526	-0.6352	0.0573
10.61	-9.3789	0.0846	1.8705	-0.0145	-0.0255	-0.0522	1.3586	31.4028	-0.2389	-0.7685	-0.0526	-0.6351	0.0573
10.62	-9.3825	0.0897	1.8724	-0.0234	-0.0183	-0.0511	1.1969	31.1941	-0.3178	-0.7685	-0.0525	-0.6351	0.0572
10.63	-9.3812	0.0963	1.8651	-0.0217	-0.0250	-0.0464	1.1775	31.2288	-0.3312	-0.7686	-0.0525	-0.6350	0.0572
10.64	-9.3436	0.0941	1.8796	-0.0240	-0.0316	-0.0426	1.2248	31.3791	-0.2920	-0.7687	-0.0525	-0.6350	0.0571
10.65	-9.3225	0.0957	1.9047	-0.0226	-0.0197	-0.0440	1.0230	31.3314	-0.0892	-0.7686	-0.0525	-0.6349	0.0570
10.66	-9.3573	0.0960	1.8795	-0.0176	-0.0061	-0.0519	1.1874	31.4316	-0.4174	-0.7687	-0.0525	-0.6350	0.0570
10.67	-9.3594	0.0964	1.8766	-0.0108	-0.0132	-0.0466	1.1072	31.1819	-0.3317	-0.7687	-0.0526	-0.6349	0.0569
10.68	-9.3517	0.1055	1.9066	-0.0129	-0.0185	-0.0541	1.0048	31.3523	-0.1733	-0.7688	-0.0526	-0.6349	0.0569
10.69	-9.3573	0.1088	1.8839	-0.0117	-0.0055	-0.0549	1.2822	31.3433	-0.3638	-0.7686	-0.0526	-0.6349	0.0569
10.7	-9.3590	0.1155	1.8843	-0.0227	-0.0080	-0.0527	1.3071	31.4508	-0.1700	-0.7687	-0.0526	-0.6349	0.0569
10.71	-9.3528	0.1157	1.8905	-0.0217	-0.0091	-0.0513	1.3992	31.4339	-0.1309	-0.7687	-0.0525	-0.6349	0.0569
10.72	-9.3482	0.1067	1.8739	-0.0243	-0.0041	-0.0472	1.0384	31.4195	-0.1579	-0.7686	-0.0525	-0.6349	0.0568
10.73	-9.3462	0.1048	1.8750	-0.0134	-0.0074	-0.0527	1.2008	31.4589	-0.0223	-0.7687	-0.0525	-0.6350	0.0568
10.74	-9.3475	0.1102	1.8711	-0.0233	-0.0016	-0.0506	1.1848	31.5181	-0.0896	-0.7686	-0.0525	-0.6350	0.0567
10.75	-9.3562	0.1113	1.8577	-0.0187	0.0078	-0.0459	1.2292	31.3408	-0.1811	-0.7686	-0.0525	-0.6351	0.0567
10.76	-9.3736	0.1100	1.8508	-0.0187	0.0046	-0.0510	1.0633	31.3433	-0.0200	-0.7685	-0.0525	-0.6351	0.0566
10.77	-9.3975	0.1106	1.8439	-0.0194	-0.0001	-0.0479	0.9625	31.2403	-0.0775	-0.7685	-0.0525	-0.6352	0.0566
10.78	-9.4022	0.1075	1.8472	-0.0077	-0.0009	-0.0464	1.1050	31.2567	-0.3425	-0.7685	-0.0526	-0.6352	0.0565
10.79	-9.4034	0.1183	1.8565	-0.0120	-0.0057	-0.0477	1.3171	31.2626	-0.2578	-0.7684	-0.0526	-0.6352	0.0565
10.8	-9.4048	0.1217	1.8398	-0.0119	-0.0082	-0.0468	1.4080	31.2463	-0.0055	-0.7685	-0.0527	-0.6353	0.0565
10.81	-9.3923	0.1190	1.8380	-0.0182	-0.0045	-0.0509	1.3536	31.1636	-0.0718	-0.7684	-0.0527	-0.6353	0.0564
10.82	-9.3729	0.1192	1.8365	-0.0056	-0.0058	-0.0525	1.8271	31.3621	0.0241	-0.7684	-0.0527	-0.6353	0.0565
10.83	-9.3840	0.1210	1.8427	-0.0020	0.0051	-0.0540	1.6713	31.3439	0.0794	-0.7683	-0.0527	-0.6353	0.0565
10.84	-9.4094	0.1391	1.8209	-0.0004	0.0088	-0.0565	1.5093	31.2824	-0.2245	-0.7683	-0.0528	-0.6354	0.0565
10.85	-9.4132	0.1511	1.8165	-0.0057	0.0016	-0.0598	1.2837	31.4038	-0.1108	-0.7682	-0.0528	-0.6355	0.0565
10.86	-9.4095	0.1550	1.8322	-0.0095	-0.0016	-0.0660	1.2647	31.2400	0.0235	-0.7682	-0.0528	-0.6355	0.0566
10.87	-9.4408	0.1602	1.8265	-0.0220	0.0084	-0.0642	1.0806	31.1729	0.0228	-0.7681	-0.0528	-0.6356	0.0566
10.88	-9.4460	0.1561	1.7962	-0.0267	-0.0007	-0.0623	0.8042	31.3434	-0.1380	-0.7681	-0.0527	-0.6356	0.0566
10.89	-9.4178	0.1379	1.8178	-0.0269	-0.0034	-0.0608	1.0652	31.5608	-0.1844	-0.7681	-0.0526	-0.6357	0.0566
10.9	-9.4177	0.1181	1.8248	-0.0331	-0.0056	-0.0632	0.9367	31.4700	-0.1857	-0.7680	-0.0525	-0.6356	0.0565
10.91	-9.4327	0.0940	1.8001	-0.0341	-0.0083	-0.0587	1.0354	31.2301	-0.0392	-0.7681	-0.0524	-0.6357	0.0565
10.92	-9.4297	0.0594	1.8118	-0.0416	-0.0151	-0.0557	0.8992	31.4858	-0.1591	-0.7681	-0.0523	-0.6357	0.0564
10.93	-9.4200	0.0407	1.8125	-0.0388	-0.0092	-0.0538	1.0190	31.3142	-0.3531	-0.7682	-0.0522	-0.6358	0.0563
10.94	-9.4106	0.0131	1.8091	-0.0322	-0.0124	-0.0557	1.0493	31.2538	-0.0005	-0.7681	-0.0522	-0.6357	0.0562
10.95	-9.4055	-0.0118	1.8077	-0.0279	-0.0152	-0.0581	0.9942	31.3036	-0.1754	-0.7681	-0.0521	-0.6357	0.0562
10.96	-9.3985	-0.0218	1.8048	-0.0204	-0.0122	-0.0571	0.9409	31.4195	-0.2462	-0.7681	-0.0521	-0.6357	0.0562
10.97	-9.3915	-0.0252	1.8109	-0.0169	-0.0175	-0.0526	1.2272	31.1899	-0.1204	-0.7681	-0.0520	-0.6356	0.0561
10.98	-9.4105	-0.0163	1.8316	-0.0040	-0.0192	-0.0537	1.1985	31.1988	-0.3059	-0.7682	-0.0521	-0.6357	0.0562
10.99	-9.3951	-0.0045	1.8056	-0.0029	-0.0153	-0.0518	1.2186	31.0309	-0.0607	-0.7682	-0.0521	-0.6356	0.0562
11	-9.3661	0.0119	1.8536	0.0044	-0.0176	-0.0535	1.1816	31.0631	-0.1411	-0.7682	-0.0522	-0.6356	0.0562
11.01	-9.3702	0.0263	1.8438	0.0110	-0.0039	-0.0571	1.3226	31.2088	-0.1839	-0.7681	-0.0523	-0.6356	0.0563
11.02	-9.3886	0.0481	1.8278	0.0201	-0.0104	-0.0531	1.1500	31.1915	-0.1490	-0.7682	-0.0524	-0.6356	0.0564
11.03	-9.3838	0.0678	1.8508	0.0048	-0.0134	-0.0522	1.1352	31.3540	-0.2099	-0.7682	-0.0525	-0.6356	0.0564
11.04	-9.3825	0.0723	1.8411	-0.0009	-0.0073	-0.0472	1.0237	31.3841	-0.3722	-0.7681	-0.0526	-0.6356	0.0564
11.05	-9.3787	0.0596	1.8382	0.0008	-0.0085	-0.0398	1.1407	31.2501	-0.2506	-0.7682	-0.0527	-0.6356	0.0564
11.06	-9.3906	0.0711	1.8633	0.0023	-0.0128	-0.0405	1.2130	31.4529	-0.2607	-0.7681	-0.0528	-0.6356	0.0564
11.07	-9.4356	0.0862	1.8560	0.0038	-0.0047	-0.0393	1.0304	31.3959	-0.0611	-0.7682	-0.0529	-0.6356	0.0564
11.08	-9.4147	0.0937	1.8324	0.0051	-0.0152	-0.0416	1.0145	31.3550	-0.1734	-0.7681	-0.0530	-0.6355	0.0564
11.09	-9.3587	0.0702	1.8721	-0.0016	-0.0255	-0.0425	1.1703	31.3643	-0.2808	-0.7682	-0.0531	-0.6355	0.0564
11.1	-9.3507	0.0674	1.8498	-0.0016	-0.0144	-0.0331	1.1911	31.5548	-0.0953	-0.7682	-0.0532	-0.6355	0.0564
11.11	-9.3395	0.0892	1.8316	0.0018	-0.0053	-0.0304	1.0353	31.4514	-0.0690	-0.7682	-0.0534	-0.6355	0.0563
11.12	-9.3214	0.1371	1.8614	0.0082	-0.0057	-0.0306	0.9281	31.5633	-0.1830	-0.7682	-0.0535	-0.6355	0.0563
11.13	-9.3489	0.1911	1.8322	0.0079	0.0163	-0.0286	0.9691	31.4940	-0.3125	-0.7681	-0.0537	-0.6356	0.0562
11.14	-9.3699	0.2189	1.8145	0.0081	0.0166	-0.0374	1.0647	31.4755	-0.1886	-0.7680	-0.0539	-0.6357	0.0562
11.15	-9.3711	0.2365	1.8225	0.0013	0.0039	-0.0365	1.0021	31.2769	-0.1625	-0.7679	-0.0540	-0.6357	0.0562
11.16	-9.3766	0.2420	1.8174	-0.0016	0.0006	-0.0402	1.0620	31.2940	-0.2759	-0.7680	-0.0541	-0.6358	0.0562
11.17	-9.3790	0.2426	1.8137	-0.0048	-0.0046	-0.0566	1.2831	31.3732	-0.1069	-0.7679	-0.0541	-0.6358	0.0562
11.18	-9.3847	0.2495	1.8231	-0.0067	0.0030	-0.0614	1.3245	31.1816	-0.0393	-0.7679	-0.0541	-0.6359	0.0562
11.19	-9.3969	0.2557	1.8040	-0.0118	0.0068	-0.0640	1.1738	31.1877	-0.2047	-0.7678	-0.0541	-0.6359	0.0562
11.2	-9.4128	0.2416	1.8077	-0.0213	0.0074	-0.0662	1.3809	31.3310	-0.1135	-0.7677	-0.0541	-0.6360	0.0563
11.21	-9.4265	0.2172	1.7869	-0.0287	0.0059	-0.0762	1.3041	31.1716	-0.3094	-0.7677	-0.0540	-0.6361	0.0563
11.22	-9.4248	0.1933	1.7723	-0.0330	-0.0050	-0.0807	1.0790	31.0432	-0.3027	-0.7676	-0.0538	-0.6361	0.0563
11.23	-9.4242	0.1657	1.7802	-0.0465	-0.0027	-0.0807	1.1463	31.3524	-0.0332	-0.7677	-0.0536	-0.6362	0.0563
11.24	-9.4344	0.1348	1.7672	-0.0545	-0.0020	-0.0801	1.0875	31.3461	-0.2383	-0.7676	-0.0534	-0.6362	0.0563
11.25	-9.4314	0.1173	1.7646	-0.0531	-0.0047	-0.0791	0.9501	31.4405	-0.0798	-0.7676	-0.0531	-0.6363	0.0562
11.26	-9.4429	0.0918	1.7763	-0.0562	-0.0020	-0.0789	0.9345	31.4641	-0.0832	-0.7675	-0.0529	-0.6363	0.0562
11.27	-9.4505	0.0645	1.7485	-0.0569	-0.0030	-0.0737	0.9501	31.3394	-0.0820	-0.7676	-0.0527	-0.6364	0.0561
11.28	-9.4553	0.0537	1.7738	-0.0541	-0.0135	-0.0700	0.9314	31.3860	-0.0770	-0.7676	-0.0525	-0.6364	0.0560
11.29	-9.4319	0.0401	1.7376	-0.0515	-0.0020	-0.0688	0.9570	31.3412	-0.0880	-0.7675	-0.0523	-0.6364	0.0560
11.3	-9.4083	0.0434	1.7913	-0.0539	-0.0205	-0.0597	0.9158	31.4885	-0.0717	-0.7676	-0.0521	-0.6364	0.0559
11.31	-9.4940	0.0421	1.7793	-0.0459	0.0027	-0.0699	1.0056	31.4115	0.0292	-0.7675	-0.0520	-0.6364	0.0558
11.32	-9.4488	0.0244	1.6828	-0.0509	-0.0164	-0.0733	1.4250	31.3594	0.0267	-0.7676	-0.0518	-0.6365	0.0557
11.33	-9.3555	0.0050	1.8397	-0.0537	-0.0387	-0.0686	1.2840	31.3631	0.3476	-0.7676	-0.0515	-0.6363	0.0557
11.34	-9.4213	-0.0413	1.7720	-0.0368	0.0045	-0.0618	1.2974	31.5912	-0.0664	-0.7676	-0.0514	-0.6364	0.0556
11.35	-9.4667	-0.0380	1.7067	-0.0289	-0.0210	-0.0601	1.4735	31.5482	-0.2700	-0.7676	-0.0514	-0.6364	0.0556
11.36	-9.3814	-0.0136	1.8172	-0.0257	-0.0452	-0.0510	1.2933	31.4635	-0.0619	-0.7678	-0.0513	-0.6363	0.0555
11.37	-9.3924	0.0147	1.8367	-0.0230	-0.0278	-0.0506	0.9571	31.3096	-0.2650	-0.7678	-0.0513	-0.6362	0.0555
11.38	-9.4381	0.0375	1.7680	-0.0269	-0.0126	-0.0540	1.1218	31.3564	-0.1236	-0.7678	-0.0512	-0.6362	0.0554
11.39	-9.4025	0.0341	1.7935	-0.0246	-0.0419	-0.0563	1.4069	31.2681	-0.1911	-0.7679	-0.0512	-0.6361	0.0554
11.4	-9.3602	0.0229	1.8292	-0.0249	-0.0348	-0.0534	1.0006	31.2289	-0.1202	-0.7679	-0.0511	-0.6359	0.0554
11.41	-9.3824	0.0324	1.7891	-0.0151	-0.0103	-0.0459	1.0361	31.3450	-0.0243	-0.7681	-0.0512	-0.6360	0.0553
