time	acceleration_x	acceleration_y	acceleration_z	gyroscope_x	gyroscope_y	gyroscope_z	magnetometer_x	magnetometer_y	magnetometer_z	quaternion_w	quaternion_x	quaternion_y	quaternion_z
0	-9.7503	0.1260	-1.5283	-0.0292	-0.0181	-0.0141	28.3632	-4.7645	16.1698	0.6319	-0.2061	0.7264	0.1751
0.01	-9.7580	0.1222	-1.5293	-0.0303	-0.0204	-0.0129	28.2227	-4.6138	16.0373	0.6318	-0.2060	0.7263	0.1753
0.02	-9.7316	0.1340	-1.5073	-0.0369	-0.0220	-0.0249	28.3744	-4.6889	16.1661	0.6319	-0.2061	0.7264	0.1755
0.03	-9.7321	0.1411	-1.5092	-0.0330	-0.0196	-0.0186	28.2793	-4.6342	16.1828	0.6318	-0.2060	0.7263	0.1757
0.04	-9.7297	0.1504	-1.5131	-0.0330	-0.0147	-0.0312	28.0176	-4.4585	16.2709	0.6318	-0.2060	0.7263	0.1758
0.05	-9.7146	0.1487	-1.5040	-0.0318	-0.0130	-0.0314	28.4116	-4.8590	16.0780	0.6317	-0.2061	0.7263	0.1759
0.06	-9.7196	0.1688	-1.5049	-0.0280	-0.0014	-0.0178	28.4187	-4.6766	16.1544	0.6316	-0.2060	0.7263	0.1761
0.07	-9.7750	0.1690	-1.5181	-0.0360	0.0085	-0.0265	28.0243	-4.6344	16.2045	0.6316	-0.2061	0.7265	0.1762
0.08	-9.7406	0.1638	-1.5545	-0.0352	-0.0063	-0.0285	28.1526	-4.6954	15.9697	0.6314	-0.2061	0.7264	0.1764
0.09	-9.7094	0.1508	-1.4969	-0.0375	0.0064	-0.0334	28.2149	-4.5694	16.0918	0.6314	-0.2062	0.7265	0.1765
0.1	-9.7780	0.1503	-1.5543	-0.0369	0.0194	-0.0280	28.0696	-4.6532	15.9529	0.6311	-0.2062	0.7265	0.1766
0.11	-9.7598	0.1533	-1.5641	-0.0384	0.0045	-0.0300	28.2362	-4.7782	16.1799	0.6311	-0.2063	0.7266	0.1768
0.12	-9.7614	0.1393	-1.5358	-0.0365	0.0016	-0.0328	28.2679	-4.8917	16.2260	0.6309	-0.2063	0.7267	0.1769
0.13	-9.8484	0.1177	-1.5791	-0.0371	0.0092	-0.0324	28.3413	-4.9425	15.9349	0.6308	-0.2064	0.7267	0.1770
0.14	-9.8352	0.1024	-1.5639	-0.0301	-0.0093	-0.0362	28.3776	-4.9029	16.1315	0.6308	-0.2065	0.7267	0.1771
0.15	-9.8116	0.1044	-1.5539	-0.0271	-0.0109	-0.0358	28.3401	-4.8178	16.0537	0.6308	-0.2065	0.7267	0.1772
0.16	-9.8267	0.1086	-1.5859	-0.0160	-0.0130	-0.0324	28.1856	-4.8420	16.1442	0.6308	-0.2065	0.7267	0.1772
0.17	-9.7623	0.1065	-1.5811	-0.0160	-0.0252	-0.0276	28.1845	-4.8224	16.2827	0.6307	-0.2064	0.7266	0.1773
0.18	-9.7207	0.1173	-1.5898	-0.0088	-0.0184	-0.0207	28.1714	-4.9521	16.2580	0.6308	-0.2064	0.7267	0.1774
0.19	-9.7323	0.1528	-1.6007	-0.0076	-0.0066	-0.0206	28.0512	-4.8794	16.1386	0.6307	-0.2063	0.7267	0.1775
0.2	-9.7396	0.1839	-1.5908	0.0069	-0.0167	-0.0351	28.1808	-4.7920	16.2204	0.6307	-0.2062	0.7268	0.1775
0.21	-9.7663	0.2105	-1.5928	0.0122	-0.0049	-0.0296	28.1880	-4.9693	16.0404	0.6307	-0.2061	0.7268	0.1774
0.22	-9.7789	0.2255	-1.6032	0.0025	-0.0090	-0.0368	28.1713	-4.8572	16.0227	0.6307	-0.2060	0.7269	0.1774
0.23	-9.7886	0.2237	-1.5831	0.0103	-0.0057	-0.0355	28.2041	-4.8874	15.8888	0.6306	-0.2059	0.7270	0.1774
0.24	-9.8368	0.2331	-1.6092	0.0081	-0.0104	-0.0432	28.0923	-4.9401	16.0696	0.6306	-0.2059	0.7269	0.1773
0.25	-9.8327	0.2520	-1.5978	0.0103	-0.0199	-0.0482	27.9921	-4.8242	16.2965	0.6307	-0.2058	0.7270	0.1772
0.26	-9.7835	0.2468	-1.5824	-0.0046	-0.0283	-0.0530	28.1519	-4.8064	16.1351	0.6307	-0.2058	0.7269	0.1772
0.27	-9.7850	0.2433	-1.5843	-0.0044	-0.0250	-0.0576	27.9888	-4.7083	16.1914	0.6308	-0.2059	0.7269	0.1772
0.28	-9.7758	0.2324	-1.5733	-0.0110	-0.0214	-0.0523	28.1080	-4.8569	16.1689	0.6308	-0.2059	0.7268	0.1771
0.29	-9.7559	0.2210	-1.5857	-0.0160	-0.0265	-0.0538	28.0723	-4.8230	16.2944	0.6308	-0.2059	0.7268	0.1772
0.3	-9.7413	0.2112	-1.5829	-0.0271	-0.0273	-0.0508	27.9642	-4.8439	16.0505	0.6309	-0.2060	0.7268	0.1772
0.31	-9.7247	0.1926	-1.5794	-0.0280	-0.0233	-0.0477	28.0910	-4.8316	15.8655	0.6308	-0.2060	0.7267	0.1773
0.32	-9.7375	0.1884	-1.5942	-0.0331	-0.0227	-0.0452	28.1955	-4.8402	16.0414	0.6309	-0.2061	0.7267	0.1774
0.33	-9.7325	0.1695	-1.5700	-0.0341	-0.0227	-0.0433	28.3263	-4.8318	16.0634	0.6308	-0.2062	0.7266	0.1775
0.34	-9.7635	0.1551	-1.5703	-0.0340	-0.0199	-0.0389	28.3853	-5.0795	15.9648	0.6309	-0.2062	0.7267	0.1777
0.35	-9.7921	0.1580	-1.5855	-0.0330	-0.0240	-0.0468	28.2643	-5.1259	16.0277	0.6308	-0.2063	0.7265	0.1777
0.36	-9.7802	0.1522	-1.5711	-0.0300	-0.0340	-0.0477	28.1521	-4.7374	15.9566	0.6309	-0.2063	0.7265	0.1778
0.37	-9.7584	0.1454	-1.5513	-0.0282	-0.0245	-0.0429	28.0546	-4.9517	16.0625	0.6309	-0.2064	0.7265	0.1779
0.38	-9.7588	0.1076	-1.5485	-0.0203	-0.0292	-0.0362	28.1930	-4.8125	16.0896	0.6309	-0.2064	0.7264	0.1780
0.39	-9.7538	0.1093	-1.5465	-0.0090	-0.0296	-0.0384	28.0800	-4.9652	16.0909	0.6309	-0.2063	0.7264	0.1781
0.4	-9.7540	0.1444	-1.5598	-0.0112	-0.0268	-0.0347	28.1070	-4.9734	16.2093	0.6309	-0.2063	0.7264	0.1781
0.41	-9.7553	0.1755	-1.5613	-0.0111	-0.0319	-0.0396	28.2723	-4.7229	16.1528	0.6310	-0.2062	0.7264	0.1782
0.42	-9.7533	0.1894	-1.5531	-0.0125	-0.0273	-0.0444	28.3238	-4.7549	16.2524	0.6309	-0.2062	0.7263	0.1782
0.43	-9.7568	0.1903	-1.5615	-0.0085	-0.0192	-0.0484	28.6434	-4.6372	16.5239	0.6310	-0.2062	0.7263	0.1783
0.44	-9.7533	0.1850	-1.5412	-0.0085	-0.0232	-0.0414	28.6879	-4.6424	16.5022	0.6310	-0.2062	0.7263	0.1783
0.45	-9.7687	0.1938	-1.5532	-0.0137	-0.0276	-0.0481	28.2527	-4.7004	16.1151	0.6310	-0.2062	0.7263	0.1783
0.46	-9.7691	0.2070	-1.5449	-0.0108	-0.0266	-0.0432	28.0514	-4.7409	16.1490	0.6310	-0.2062	0.7262	0.1783
0.47	-9.7583	0.2027	-1.5310	-0.0123	-0.0308	-0.0364	27.8608	-4.7774	16.2187	0.6311	-0.2062	0.7262	0.1784
0.48	-9.7790	0.2067	-1.5425	-0.0159	-0.0326	-0.0425	27.9980	-4.6277	16.0214	0.6311	-0.2061	0.7262	0.1785
0.49	-9.7784	0.2016	-1.5198	-0.0116	-0.0323	-0.0362	27.9519	-4.7814	16.0264	0.6311	-0.2061	0.7261	0.1785
0.5	-9.7597	0.2130	-1.5251	-0.0178	-0.0402	-0.0363	28.2532	-5.0464	15.9294	0.6312	-0.2061	0.7262	0.1786
0.51	-9.7538	0.1975	-1.5213	-0.0222	-0.0370	-0.0355	28.3304	-4.9377	16.0984	0.6312	-0.2060	0.7260	0.1787
0.52	-9.7564	0.1920	-1.5205	-0.0189	-0.0303	-0.0380	28.2270	-5.0811	16.1545	0.6313	-0.2060	0.7261	0.1788
0.53	-9.7538	0.1776	-1.5212	-0.0160	-0.0321	-0.0362	28.2656	-5.0646	16.0094	0.6312	-0.2060	0.7259	0.1789
0.54	-9.7518	0.1925	-1.5195	-0.0115	-0.0259	-0.0377	28.2585	-4.9815	16.0620	0.6313	-0.2060	0.7260	0.1790
0.55	-9.7549	0.1895	-1.5220	-0.0187	-0.0289	-0.0386	28.2339	-4.9525	16.1479	0.6313	-0.2059	0.7260	0.1791
0.56	-9.7574	0.1882	-1.5146	-0.0142	-0.0286	-0.0365	28.3611	-4.8006	16.1087	0.6313	-0.2059	0.7259	0.1791
0.57	-9.7582	0.1913	-1.5138	-0.0143	-0.0225	-0.0461	28.2242	-4.8036	16.0350	0.6313	-0.2059	0.7260	0.1792
0.58	-9.7541	0.1811	-1.5083	-0.0197	-0.0215	-0.0403	28.1831	-4.9885	15.8535	0.6313	-0.2059	0.7259	0.1792
0.59	-9.7577	0.1989	-1.5114	-0.0111	-0.0282	-0.0406	28.2909	-5.1393	15.9058	0.6313	-0.2059	0.7259	0.1793
0.6	-9.7564	0.2093	-1.5153	-0.0179	-0.0304	-0.0454	28.2418	-4.8785	16.0397	0.6313	-0.2059	0.7258	0.1793
0.61	-9.7532	0.2237	-1.5122	-0.0185	-0.0267	-0.0465	28.0403	-4.6815	16.0318	0.6313	-0.2059	0.7259	0.1794
0.62	-9.7512	0.2261	-1.5269	-0.0255	-0.0151	-0.0446	28.1331	-4.7800	16.1675	0.6313	-0.2059	0.7258	0.1795
0.63	-9.7548	0.2255	-1.5334	-0.0213	-0.0218	-0.0480	28.1950	-4.8413	16.0197	0.6312	-0.2060	0.7258	0.1795
0.64	-9.7462	0.2212	-1.5272	-0.0154	-0.0269	-0.0487	28.1438	-4.6897	16.0253	0.6313	-0.2060	0.7258	0.1796
0.65	-9.7376	0.2059	-1.5113	-0.0300	-0.0233	-0.0462	27.9467	-4.7687	16.1668	0.6313	-0.2060	0.7258	0.1797
0.66	-9.7913	0.2149	-1.5181	-0.0326	-0.0165	-0.0556	28.2595	-4.8276	16.2471	0.6312	-0.2061	0.7258	0.1798
0.67	-9.7836	0.2191	-1.5414	-0.0349	-0.0220	-0.0498	28.1886	-4.7947	16.1066	0.6311	-0.2062	0.7257	0.1798
0.68	-9.7093	0.1925	-1.5068	-0.0311	-0.0298	-0.0478	28.0243	-4.9329	16.0234	0.6312	-0.2063	0.7257	0.1799
0.69	-9.7709	0.2235	-1.5359	-0.0214	-0.0194	-0.0478	28.3403	-4.8670	16.0093	0.6312	-0.2063	0.7257	0.1800
0.7	-9.7613	0.2265	-1.5284	-0.0315	-0.0241	-0.0487	28.5042	-4.9827	15.8201	0.6312	-0.2064	0.7257	0.1801
0.71	-9.7485	0.2097	-1.4832	-0.0363	-0.0212	-0.0584	28.1965	-4.9894	16.0428	0.6311	-0.2065	0.7257	0.1801
0.72	-9.8179	0.2033	-1.5214	-0.0371	-0.0188	-0.0566	28.4378	-4.9863	16.1784	0.6311	-0.2066	0.7256	0.1802
0.73	-9.8377	0.1882	-1.5245	-0.0364	-0.0209	-0.0601	28.3813	-4.9749	16.0056	0.6311	-0.2067	0.7256	0.1802
0.74	-9.7719	0.1564	-1.5121	-0.0371	-0.0371	-0.0581	28.2609	-5.0600	15.8195	0.6311	-0.2068	0.7255	0.1803
0.75	-9.7960	0.1572	-1.5268	-0.0326	-0.0328	-0.0498	28.2250	-5.2020	15.9732	0.6312	-0.2069	0.7255	0.1804
0.76	-9.7443	0.1463	-1.5466	-0.0345	-0.0301	-0.0466	28.0347	-4.8126	16.0720	0.6311	-0.2069	0.7254	0.1805
0.77	-9.6498	0.1365	-1.5093	-0.0290	-0.0307	-0.0395	28.3712	-4.8920	15.9235	0.6312	-0.2070	0.7255	0.1806
0.78	-9.6922	0.1626	-1.5287	-0.0277	-0.0136	-0.0379	28.2474	-4.8818	16.0411	0.6311	-0.2069	0.7254	0.1807
0.79	-9.7477	0.1968	-1.5552	-0.0201	-0.0081	-0.0402	28.2538	-4.9514	16.2506	0.6310	-0.2070	0.7255	0.1808
0.8	-9.7376	0.1965	-1.5333	-0.0262	-0.0203	-0.0453	28.0812	-4.9199	15.8212	0.6310	-0.2070	0.7255	0.1808
0.81	-9.7499	0.1848	-1.5368	-0.0245	-0.0155	-0.0499	28.0770	-4.6843	15.9328	0.6309	-0.2070	0.7255	0.1809
0.82	-9.7654	0.1908	-1.5495	-0.0167	-0.0167	-0.0473	28.1737	-4.7471	15.9288	0.6309	-0.2071	0.7256	0.1809
0.83	-9.7528	0.1820	-1.5328	-0.0119	-0.0126	-0.0498	28.0447	-4.7130	15.9525	0.6308	-0.2071	0.7255	0.1809
0.84	-9.7713	0.1927	-1.5541	-0.0103	-0.0193	-0.0483	28.1416	-4.7249	16.1158	0.6309	-0.2071	0.7256	0.1809
0.85	-9.7698	0.1962	-1.5472	-0.0107	-0.0162	-0.0544	28.2151	-4.7960	16.1353	0.6308	-0.2070	0.7255	0.1809
0.86	-9.7457	0.2032	-1.5396	-0.0102	-0.0172	-0.0552	27.9720	-4.8436	15.8585	0.6308	-0.2071	0.7256	0.1809
0.87	-9.7727	0.1969	-1.5423	-0.0122	-0.0184	-0.0433	28.1323	-4.9212	16.0496	0.6308	-0.2071	0.7256	0.1809
0.88	-9.7830	0.1967	-1.5573	-0.0143	-0.0218	-0.0496	28.3742	-4.8790	15.8716	0.6307	-0.2071	0.7256	0.1809
0.89	-9.7518	0.1971	-1.5462	-0.0269	-0.0173	-0.0546	28.3537	-5.0083	15.8296	0.6307	-0.2071	0.7257	0.1810
0.9	-9.7720	0.1850	-1.5513	-0.0304	-0.0181	-0.0529	28.2934	-4.9735	15.8572	0.6307	-0.2072	0.7256	0.1810
0.91	-9.7836	0.1706	-1.5776	-0.0326	-0.0171	-0.0518	28.3000	-5.0095	15.8660	0.6306	-0.2073	0.7257	0.1811
0.92	-9.7450	0.1682	-1.5505	-0.0318	-0.0212	-0.0518	28.4157	-4.8959	16.1530	0.6305	-0.2073	0.7256	0.1812
0.93	-9.7647	0.1512	-1.5331	-0.0349	-0.0116	-0.0462	28.7170	-4.7855	16.2059	0.6305	-0.2074	0.7257	0.1813
0.94	-9.8437	0.1600	-1.5660	-0.0344	-0.0133	-0.0456	28.7361	-4.8283	16.0834	0.6304	-0.2075	0.7256	0.1814
0.95	-9.8414	0.1423	-1.5465	-0.0372	-0.0321	-0.0515	28.4053	-4.8924	16.0101	0.6305	-0.2076	0.7256	0.1814
0.96	-9.8102	0.1069	-1.5306	-0.0354	-0.0291	-0.0449	28.2301	-4.7633	16.0200	0.6305	-0.2077	0.7255	0.1816
0.97	-9.8136	0.1079	-1.5429	-0.0352	-0.0323	-0.0485	28.0861	-4.7145	15.9729	0.6305	-0.2077	0.7255	0.1817
0.98	-9.7751	0.1027	-1.5365	-0.0348	-0.0391	-0.0470	28.0852	-4.8028	16.0627	0.6305	-0.2078	0.7254	0.1818
0.99	-9.7370	0.1063	-1.5118	-0.0306	-0.0398	-0.0425	28.1759	-4.7145	16.0917	0.6305	-0.2078	0.7253	0.1819
1	-9.7480	0.1365	-1.5206	-0.0238	-0.0306	-0.0409	28.1722	-5.1345	15.9994	0.6306	-0.2078	0.7254	0.1820
1.01	-9.7435	0.1548	-1.5145	-0.0200	-0.0314	-0.0449	28.0575	-4.8881	15.9565	0.6305	-0.2078	0.7253	0.1821
1.02	-9.7352	0.1203	-1.5144	-0.0251	-0.0211	-0.0531	28.1150	-4.6640	15.8699	0.6306	-0.2078	0.7254	0.1821
1.03	-9.7368	0.1231	-1.5239	-0.0136	-0.0204	-0.0515	28.0657	-4.6700	15.9931	0.6305	-0.2078	0.7253	0.1821
1.04	-9.7624	0.1149	-1.5175	-0.0109	-0.0289	-0.0472	28.2442	-4.8329	16.0197	0.6305	-0.2078	0.7253	0.1822
1.05	-9.8055	0.1357	-1.5150	-0.0040	-0.0246	-0.0425	28.2461	-4.8206	15.9031	0.6305	-0.2078	0.7253	0.1822
1.06	-9.7951	0.1440	-1.5133	-0.0111	-0.0261	-0.0414	28.0480	-5.0407	15.6696	0.6305	-0.2077	0.7253	0.1822
1.07	-9.8034	0.1509	-1.5070	-0.0090	-0.0229	-0.0396	28.3163	-5.0064	15.9662	0.6305	-0.2077	0.7254	0.1822
1.08	-9.8242	0.1906	-1.5126	-0.0117	-0.0225	-0.0349	28.3743	-4.8283	15.8490	0.6305	-0.2076	0.7254	0.1823
1.09	-9.7752	0.1865	-1.4868	-0.0109	-0.0362	-0.0380	28.5665	-5.0497	15.7919	0.6305	-0.2076	0.7254	0.1824
1.1	-9.7647	0.1986	-1.4815	-0.0098	-0.0236	-0.0355	28.3475	-5.0233	15.9064	0.6304	-0.2075	0.7253	0.1824
1.11	-9.7890	0.2099	-1.4922	-0.0170	-0.0311	-0.0354	28.2439	-5.1327	16.1547	0.6305	-0.2075	0.7254	0.1825
1.12	-9.7630	0.1917	-1.4596	-0.0344	-0.0350	-0.0368	28.1082	-5.1291	15.8354	0.6305	-0.2075	0.7253	0.1826
1.13	-9.7738	0.2171	-1.4753	-0.0286	-0.0308	-0.0301	28.4213	-5.0564	15.8345	0.6304	-0.2074	0.7253	0.1827
1.14	-9.7865	0.2178	-1.4541	-0.0334	-0.0347	-0.0280	28.4748	-4.8312	15.6752	0.6305	-0.2074	0.7253	0.1829
1.15	-9.7568	0.2115	-1.4678	-0.0353	-0.0359	-0.0322	28.2806	-4.9850	15.8081	0.6304	-0.2074	0.7253	0.1831
1.16	-9.7444	0.2189	-1.4470	-0.0383	-0.0294	-0.0319	28.2704	-4.8895	15.9361	0.6304	-0.2074	0.7253	0.1833
1.17	-9.7597	0.2010	-1.4636	-0.0343	-0.0261	-0.0373	28.2719	-4.7431	15.8914	0.6303	-0.2074	0.7252	0.1834
1.18	-9.7584	0.1951	-1.4743	-0.0311	-0.0290	-0.0341	28.0537	-4.8022	15.9945	0.6304	-0.2075	0.7252	0.1835
1.19	-9.7449	0.2137	-1.4466	-0.0283	-0.0209	-0.0350	28.2790	-5.0102	15.8846	0.6303	-0.2074	0.7252	0.1836
1.2	-9.7541	0.2155	-1.4609	-0.0212	-0.0208	-0.0362	28.1979	-4.8343	15.8666	0.6303	-0.2074	0.7253	0.1837
1.21	-9.7549	0.2124	-1.4524	-0.0288	-0.0185	-0.0391	28.1628	-4.9613	15.5835	0.6302	-0.2074	0.7253	0.1838
1.22	-9.7512	0.2118	-1.4502	-0.0264	-0.0269	-0.0361	28.0708	-4.9344	15.7871	0.6302	-0.2074	0.7253	0.1839
1.23	-9.7595	0.2110	-1.4291	-0.0254	-0.0272	-0.0385	28.3236	-4.7689	15.8218	0.6302	-0.2074	0.7253	0.1840
1.24	-9.7400	0.2115	-1.4466	-0.0148	-0.0227	-0.0401	28.3912	-4.7618	15.7943	0.6301	-0.2074	0.7252	0.1841
1.25	-9.6929	0.2023	-1.4324	-0.0154	-0.0256	-0.0404	28.2143	-4.9633	15.8383	0.6302	-0.2074	0.7253	0.1842
1.26	-9.7284	0.2172	-1.4351	-0.0126	-0.0097	-0.0469	28.3553	-5.1115	15.7647	0.6300	-0.2074	0.7253	0.1842
1.27	-9.7444	0.2198	-1.4580	-0.0151	-0.0131	-0.0496	28.5077	-5.0536	15.7139	0.6301	-0.2074	0.7254	0.1842
1.28	-9.7082	0.2080	-1.3993	-0.0223	-0.0156	-0.0560	28.3086	-5.0256	15.7265	0.6299	-0.2074	0.7253	0.1842
1.29	-9.8097	0.1820	-1.4340	-0.0211	0.0007	-0.0513	28.2898	-5.0197	15.6101	0.6299	-0.2075	0.7254	0.1842
1.3	-9.8804	0.1781	-1.4680	-0.0245	-0.0012	-0.0467	28.1980	-4.7219	15.8175	0.6298	-0.2076	0.7255	0.1842
1.31	-9.7913	0.1521	-1.4324	-0.0193	-0.0259	-0.0513	28.1793	-4.8726	15.7964	0.6298	-0.2076	0.7254	0.1842
1.32	-9.7875	0.1451	-1.4532	-0.0199	-0.0099	-0.0463	28.2523	-4.9267	15.8371	0.6298	-0.2077	0.7255	0.1843
1.33	-9.7623	0.1365	-1.4838	-0.0163	-0.0180	-0.0391	28.1988	-5.0047	15.7637	0.6297	-0.2076	0.7255	0.1843
1.34	-9.6889	0.1322	-1.4524	-0.0147	-0.0136	-0.0349	28.2890	-4.9899	15.7356	0.6297	-0.2076	0.7256	0.1844
1.35	-9.7159	0.1754	-1.4868	-0.0118	0.0098	-0.0347	28.2612	-4.8424	16.0468	0.6295	-0.2076	0.7256	0.1844
1.36	-9.7581	0.1888	-1.4969	-0.0111	0.0057	-0.0377	28.4744	-4.8401	15.8313	0.6294	-0.2076	0.7258	0.1844
1.37	-9.7528	0.1830	-1.4934	-0.0109	0.0060	-0.0475	28.1221	-4.9126	16.0213	0.6293	-0.2076	0.7259	0.1844
1.38	-9.7746	0.1663	-1.5067	-0.0104	0.0021	-0.0462	28.2986	-4.9473	15.8302	0.6292	-0.2076	0.7260	0.1844
1.39	-9.7940	0.1837	-1.5136	-0.0113	0.0024	-0.0524	28.0557	-4.9603	15.8067	0.6291	-0.2076	0.7261	0.1844
1.4	-9.7884	0.1883	-1.5103	-0.0102	0.0018	-0.0520	28.1150	-5.0292	15.9386	0.6290	-0.2076	0.7261	0.1843
1.41	-9.7664	0.2012	-1.5118	-0.0109	-0.0044	-0.0529	28.2531	-5.1022	15.8964	0.6289	-0.2077	0.7262	0.1843
1.42	-9.7575	0.2026	-1.5113	-0.0107	-0.0010	-0.0520	28.3398	-5.0609	15.9056	0.6288	-0.2077	0.7262	0.1843
1.43	-9.7560	0.2048	-1.5128	-0.0114	-0.0074	-0.0539	28.4967	-4.6868	16.0247	0.6288	-0.2077	0.7264	0.1843
1.44	-9.7542	0.2048	-1.5109	-0.0153	-0.0019	-0.0484	28.5392	-4.6745	15.9425	0.6287	-0.2077	0.7264	0.1843
1.45	-9.7795	0.1931	-1.5316	-0.0180	0.0027	-0.0497	28.5955	-4.8451	16.0039	0.6286	-0.2078	0.7265	0.1843
1.46	-9.7834	0.1916	-1.5372	-0.0229	0.0033	-0.0602	28.3733	-4.8698	15.8035	0.6285	-0.2079	0.7265	0.1843
1.47	-9.7946	0.1688	-1.5395	-0.0328	0.0024	-0.0550	28.3470	-5.2153	15.7634	0.6284	-0.2080	0.7266	0.1843
1.48	-9.7976	0.1497	-1.5582	-0.0367	0.0014	-0.0529	28.2208	-5.1203	15.9165	0.6283	-0.2081	0.7267	0.1844
1.49	-9.7486	0.1209	-1.5423	-0.0356	-0.0038	-0.0454	28.3147	-5.0080	16.0283	0.6281	-0.2082	0.7266	0.1844
1.5	-9.7596	0.1173	-1.5329	-0.0384	-0.0038	-0.0468	28.1767	-5.0714	15.9170	0.6281	-0.2083	0.7268	0.1846
1.51	-9.8149	0.1202	-1.5522	-0.0318	0.0032	-0.0465	28.3104	-4.8894	15.9448	0.6279	-0.2083	0.7268	0.1846
1.52	-9.7914	0.0996	-1.5372	-0.0254	-0.0208	-0.0449	28.1733	-5.0747	15.8791	0.6279	-0.2084	0.7269	0.1847
1.53	-9.7540	0.0814	-1.5259	-0.0262	-0.0132	-0.0438	28.1181	-5.0206	15.7066	0.6278	-0.2084	0.7268	0.1847
1.54	-9.7955	0.0908	-1.5421	-0.0133	-0.0048	-0.0387	27.9867	-4.8725	16.0346	0.6277	-0.2084	0.7269	0.1848
1.55	-9.7563	0.0734	-1.5425	-0.0148	-0.0189	-0.0339	28.0115	-4.7907	15.9445	0.6277	-0.2084	0.7269	0.1848
1.56	-9.7394	0.1152	-1.5312	-0.0059	-0.0112	-0.0345	28.2918	-4.5700	15.9339	0.6276	-0.2083	0.7269	0.1849
1.57	-9.7616	0.1665	-1.5525	0.0038	-0.0091	-0.0353	28.0589	-4.7237	15.7880	0.6276	-0.2082	0.7271	0.1849
1.58	-9.7511	0.1698	-1.5327	0.0061	-0.0054	-0.0385	28.2343	-4.8342	15.9252	0.6275	-0.2081	0.7271	0.1848
1.59	-9.7524	0.1683	-1.5476	-0.0008	-0.0031	-0.0428	28.0985	-4.6361	16.0515	0.6275	-0.2081	0.7272	0.1848
1.6	-9.7549	0.1721	-1.5457	0.0060	-0.0092	-0.0362	27.9319	-4.6654	15.9990	0.6274	-0.2080	0.7272	0.1847
1.61	-9.7749	0.1859	-1.5462	0.0129	-0.0034	-0.0370	28.0588	-4.8446	16.0148	0.6274	-0.2079	0.7274	0.1847
1.62	-9.8012	0.2162	-1.5475	0.0119	-0.0143	-0.0347	28.0714	-4.7160	15.8740	0.6273	-0.2078	0.7274	0.1846
1.63	-9.8029	0.2157	-1.5438	0.0101	-0.0221	-0.0353	28.2144	-4.9693	16.0205	0.6273	-0.2077	0.7275	0.1846
1.64	-9.7930	0.2206	-1.5304	-0.0022	-0.0236	-0.0357	28.3325	-5.0232	16.1323	0.6274	-0.2076	0.7275	0.1846
1.65	-9.7881	0.2370	-1.5242	-0.0034	-0.0185	-0.0350	28.3994	-4.9936	15.9621	0.6273	-0.2075	0.7275	0.1846
1.66	-9.7962	0.2538	-1.5304	-0.0080	-0.0240	-0.0361	28.2175	-4.9939	15.9203	0.6273	-0.2075	0.7276	0.1847
1.67	-9.7934	0.2326	-1.5246	-0.0117	-0.0199	-0.0368	28.2138	-4.6111	15.9286	0.6272	-0.2074	0.7275	0.1847
1.68	-9.7833	0.2323	-1.5227	-0.0125	-0.0276	-0.0371	28.2363	-5.1969	15.9285	0.6273	-0.2074	0.7276	0.1848
1.69	-9.7605	0.2262	-1.5028	-0.0194	-0.0334	-0.0398	28.1703	-5.0213	15.9546	0.6273	-0.2074	0.7275	0.1848
1.7	-9.7634	0.2229	-1.4878	-0.0165	-0.0300	-0.0343	28.1046	-4.9249	16.1415	0.6273	-0.2073	0.7275	0.1849
1.71	-9.7605	0.2176	-1.4937	-0.0191	-0.0346	-0.0405	28.2365	-5.0751	15.9996	0.6273	-0.2073	0.7275	0.1850
1.72	-9.7547	0.2258	-1.4814	-0.0103	-0.0264	-0.0417	28.0883	-4.7778	15.9238	0.6274	-0.2073	0.7275	0.1850
1.73	-9.7562	0.2250	-1.4766	-0.0165	-0.0236	-0.0519	28.1986	-4.8348	16.0938	0.6274	-0.2073	0.7275	0.1850
1.74	-9.7667	0.2329	-1.4697	-0.0131	-0.0228	-0.0464	28.2395	-4.9049	15.8060	0.6273	-0.2073	0.7274	0.1850
1.75	-9.7697	0.2438	-1.4538	-0.0108	-0.0163	-0.0527	28.1908	-4.8291	15.9681	0.6274	-0.2073	0.7275	0.1850
1.76	-9.7493	0.2392	-1.4560	-0.0114	-0.0260	-0.0623	28.2848	-4.9579	16.0230	0.6274	-0.2074	0.7274	0.1850
1.77	-9.7415	0.2373	-1.4423	-0.0175	-0.0196	-0.0608	28.2680	-4.8460	15.8104	0.6274	-0.2075	0.7275	0.1850
1.78	-9.7447	0.2273	-1.4585	-0.0138	-0.0185	-0.0604	28.1097	-4.6519	15.8553	0.6273	-0.2075	0.7274	0.1849
1.79	-9.7330	0.2239	-1.4402	-0.0197	-0.0254	-0.0640	28.0161	-4.9661	15.9148	0.6274	-0.2076	0.7274	0.1849
1.8	-9.7378	0.2217	-1.4420	-0.0159	-0.0142	-0.0687	28.0987	-4.7688	15.8048	0.6274	-0.2077	0.7274	0.1849
1.81	-9.7578	0.2165	-1.4346	-0.0161	-0.0168	-0.0653	28.1431	-5.1811	15.8568	0.6273	-0.2077	0.7273	0.1848
1.82	-9.7899	0.2165	-1.4549	-0.0203	-0.0116	-0.0607	28.2090	-4.9830	15.8315	0.6274	-0.2079	0.7274	0.1848
1.83	-9.7620	0.2144	-1.4547	-0.0148	-0.0139	-0.0670	28.3996	-4.8911	15.8431	0.6273	-0.2079	0.7274	0.1848
1.84	-9.7470	0.2220	-1.4417	-0.0226	-0.0167	-0.0627	28.3307	-4.9623	15.8367	0.6273	-0.2080	0.7274	0.1848
1.85	-9.7803	0.2341	-1.4642	-0.0276	-0.0123	-0.0639	28.2948	-5.0682	15.8369	0.6272	-0.2081	0.7273	0.1847
1.86	-9.7669	0.2174	-1.4637	-0.0314	-0.0203	-0.0730	28.4217	-4.9903	15.9646	0.6273	-0.2083	0.7273	0.1847
1.87	-9.7483	0.1993	-1.4288	-0.0361	-0.0137	-0.0754	28.3831	-4.8549	15.8793	0.6272	-0.2085	0.7273	0.1847
1.88	-9.8507	0.1581	-1.4751	-0.0365	-0.0065	-0.0754	28.1115	-4.7965	15.7845	0.6272	-0.2087	0.7273	0.1847
1.89	-9.8208	0.1611	-1.4829	-0.0359	-0.0245	-0.0785	28.2518	-4.7971	16.0757	0.6272	-0.2089	0.7272	0.1847
1.9	-9.7518	0.1384	-1.4261	-0.0387	-0.0251	-0.0694	28.2959	-5.1064	16.1019	0.6272	-0.2090	0.7271	0.1847
1.91	-9.7685	0.1255	-1.5247	-0.0410	-0.0126	-0.0485	28.1818	-4.6275	15.9380	0.6272	-0.2092	0.7272	0.1849
1.92	-9.6915	0.1444	-1.4737	-0.0353	-0.0234	-0.0534	28.3031	-4.8478	15.8933	0.6271	-0.2092	0.7270	0.1849
1.93	-9.6471	0.1624	-1.5010	-0.0395	-0.0056	-0.0507	28.5542	-4.4870	16.0900	0.6271	-0.2094	0.7271	0.1850
1.94	-9.6756	0.1711	-1.5020	-0.0378	0.0044	-0.0524	28.5611	-4.4892	16.0369	0.6270	-0.2095	0.7271	0.1851
1.95	-9.7123	0.1581	-1.5059	-0.0358	0.0106	-0.0576	28.4932	-4.8234	15.9581	0.6269	-0.2096	0.7272	0.1851
1.96	-9.7458	0.1592	-1.5098	-0.0326	0.0109	-0.0609	28.1933	-4.8467	15.9724	0.6267	-0.2098	0.7273	0.1851
1.97	-9.7535	0.1726	-1.5221	-0.0365	0.0114	-0.0612	28.2552	-4.8563	15.7984	0.6266	-0.2099	0.7273	0.1851
1.98	-9.7750	0.1522	-1.5214	-0.0352	0.0141	-0.0634	28.2381	-4.8855	16.0129	0.6265	-0.2101	0.7274	0.1851
1.99	-9.8015	0.1542	-1.5313	-0.0349	0.0149	-0.0656	28.1377	-4.9654	16.0110	0.6263	-0.2103	0.7274	0.1851
2	-9.8260	0.1826	-1.5226	-0.0350	-0.0001	-0.0624	28.4275	-4.6963	15.8824	0.6263	-0.2104	0.7275	0.1851
2.01	-9.7964	0.1396	-1.5371	-0.0378	-0.0061	-0.0610	28.4581	-4.8025	15.7903	0.6262	-0.2106	0.7275	0.1852
2.02	-9.7779	0.1528	-1.5285	-0.0378	-0.0013	-0.0621	28.4477	-4.9035	15.8819	0.6262	-0.2108	0.7276	0.1852
2.03	-9.7740	0.1755	-1.5279	-0.0366	-0.0091	-0.0530	28.4615	-5.0382	16.0428	0.6260	-0.2108	0.7275	0.1852
2.04	-9.7461	0.1570	-1.5321	-0.0444	-0.0090	-0.0563	28.4234	-4.8716	15.9580	0.6260	-0.2110	0.7275	0.1853
2.05	-9.7355	0.1431	-1.5084	-0.0487	-0.0093	-0.0577	28.3556	-5.0220	15.9201	0.6259	-0.2112	0.7275	0.1854
2.06	-9.7131	0.1186	-1.5103	-0.0468	-0.0141	-0.0566	28.6132	-4.9211	15.8369	0.6259	-0.2113	0.7274	0.1855
2.07	-9.6944	0.1227	-1.4950	-0.0425	-0.0070	-0.0448	28.2623	-5.0466	15.7157	0.6259	-0.2114	0.7275	0.1857
2.08	-9.6471	0.0932	-1.4918	-0.0436	-0.0010	-0.0489	28.2352	-4.8177	16.0162	0.6257	-0.2115	0.7275	0.1857
2.09	-9.6775	0.1264	-1.4474	-0.0376	0.0089	-0.0425	28.4403	-4.7407	15.9842	0.6256	-0.2117	0.7276	0.1858
2.1	-9.7516	0.1427	-1.4999	-0.0398	0.0219	-0.0446	28.1601	-4.6624	16.0265	0.6254	-0.2118	0.7276	0.1859
2.11	-9.7422	0.1553	-1.4847	-0.0371	0.0152	-0.0607	28.1779	-4.7921	15.8380	0.6253	-0.2119	0.7277	0.1859
2.12	-9.7823	0.1374	-1.5037	-0.0345	0.0301	-0.0703	28.2340	-4.6759	15.8691	0.6251	-0.2121	0.7278	0.1859
2.13	-9.8614	0.1278	-1.5799	-0.0250	0.0305	-0.0633	28.3003	-4.7312	16.2229	0.6249	-0.2123	0.7279	0.1858
2.14	-9.8610	0.1254	-1.5478	-0.0123	0.0179	-0.0671	28.1736	-4.7600	16.0679	0.6249	-0.2124	0.7280	0.1857
2.15	-9.8514	0.1510	-1.5767	-0.0104	0.0107	-0.0762	28.0419	-4.6321	15.9673	0.6248	-0.2126	0.7280	0.1856
2.16	-9.8617	0.1670	-1.5854	-0.0118	0.0092	-0.0720	28.2360	-4.6852	16.0637	0.6248	-0.2127	0.7281	0.1854
2.17	-9.8660	0.1761	-1.5871	-0.0188	0.0019	-0.0746	28.3119	-4.6444	16.1234	0.6247	-0.2129	0.7280	0.1853
2.18	-9.8521	0.1649	-1.5761	-0.0162	-0.0211	-0.0765	27.9225	-4.6880	15.9349	0.6248	-0.2130	0.7280	0.1852
2.19	-9.8062	0.1510	-1.5636	-0.0288	-0.0250	-0.0820	28.4229	-4.9476	16.1089	0.6248	-0.2132	0.7279	0.1852
2.2	-9.7877	0.1266	-1.5383	-0.0373	-0.0271	-0.0731	28.3993	-4.8496	15.9689	0.6249	-0.2134	0.7278	0.1852
2.21	-9.7801	0.1246	-1.5525	-0.0366	-0.0245	-0.0692	28.3338	-4.8265	15.6768	0.6249	-0.2135	0.7277	0.1852
2.22	-9.7725	0.1315	-1.5167	-0.0401	-0.0263	-0.0705	28.3917	-5.1037	16.1569	0.6249	-0.2137	0.7277	0.1853
2.23	-9.7778	0.0978	-1.5296	-0.0575	-0.0217	-0.0628	28.3174	-4.8639	15.9812	0.6249	-0.2139	0.7276	0.1854
2.24	-9.7882	0.0776	-1.5161	-0.0582	-0.0257	-0.0621	28.4941	-4.8418	15.7763	0.6248	-0.2141	0.7274	0.1855
2.25	-9.7702	0.0562	-1.5181	-0.0593	-0.0283	-0.0605	28.2898	-4.7203	15.9687	0.6249	-0.2143	0.7274	0.1857
2.26	-9.7850	0.0356	-1.5305	-0.0599	-0.0222	-0.0587	28.2003	-4.8157	15.8190	0.6249	-0.2145	0.7273	0.1858
2.27	-9.7735	0.0170	-1.5254	-0.0506	-0.0317	-0.0550	28.3032	-4.8008	15.9078	0.6249	-0.2147	0.7273	0.1859
2.28	-9.7536	-0.0003	-1.5223	-0.0376	-0.0243	-0.0595	28.2671	-4.6378	15.8022	0.6249	-0.2148	0.7271	0.1860
2.29	-9.7527	0.0032	-1.5161	-0.0382	-0.0295	-0.0472	28.3768	-4.6780	15.8507	0.6249	-0.2149	0.7271	0.1861
2.3	-9.7602	0.0028	-1.5162	-0.0307	-0.0264	-0.0505	28.2192	-4.6563	16.0843	0.6250	-0.2149	0.7270	0.1862
2.31	-9.7301	0.0163	-1.5057	-0.0326	-0.0247	-0.0502	28.3374	-4.6691	15.8599	0.6249	-0.2150	0.7269	0.1862
2.32	-9.7194	0.0196	-1.4963	-0.0169	-0.0185	-0.0493	28.0094	-4.6632	15.9574	0.6250	-0.2151	0.7270	0.1863
2.33	-9.7431	0.0320	-1.5153	-0.0101	-0.0158	-0.0469	28.2160	-4.6744	15.9616	0.6250	-0.2151	0.7270	0.1862
2.34	-9.7110	0.0368	-1.5080	-0.0079	-0.0164	-0.0417	28.0297	-4.8695	15.8981	0.6250	-0.2151	0.7270	0.1863
2.35	-9.6690	0.0318	-1.5011	-0.0090	-0.0112	-0.0479	28.0058	-4.7319	15.8979	0.6249	-0.2150	0.7269	0.1862
2.36	-9.7007	0.0637	-1.5265	0.0055	0.0007	-0.0351	28.3014	-4.7874	15.9422	0.6249	-0.2150	0.7271	0.1862
2.37	-9.7170	0.0822	-1.5292	0.0133	-0.0013	-0.0345	28.1771	-4.6656	15.8136	0.6249	-0.2149	0.7271	0.1861
2.38	-9.7055	0.1128	-1.5297	0.0098	0.0016	-0.0344	28.3845	-4.7947	15.9587	0.6248	-0.2148	0.7272	0.1861
2.39	-9.7305	0.1295	-1.5543	0.0135	0.0054	-0.0364	28.3656	-4.9679	16.1393	0.6248	-0.2147	0.7273	0.1860
2.4	-9.7361	0.1516	-1.5524	0.0118	0.0094	-0.0435	28.5922	-4.7657	15.7938	0.6247	-0.2147	0.7274	0.1859
2.41	-9.7346	0.1579	-1.5666	0.0113	0.0092	-0.0421	28.3070	-4.9528	15.8840	0.6247	-0.2146	0.7275	0.1858
2.42	-9.7364	0.1632	-1.5695	0.0043	0.0165	-0.0496	28.5431	-4.8313	16.0063	0.6245	-0.2146	0.7276	0.1856
2.43	-9.7495	0.1687	-1.5703	-0.0011	0.0202	-0.0455	28.7723	-4.6387	16.1165	0.6244	-0.2146	0.7278	0.1856
2.44	-9.7790	0.1646	-1.5820	-0.0110	0.0118	-0.0519	28.6590	-4.6429	16.2409	0.6243	-0.2147	0.7278	0.1855
2.45	-9.7639	0.1515	-1.6159	-0.0136	0.0087	-0.0602	28.4190	-4.6412	16.2456	0.6243	-0.2147	0.7279	0.1855
2.46	-9.7506	0.1401	-1.5768	-0.0144	0.0054	-0.0597	28.3230	-4.5910	16.2474	0.6242	-0.2148	0.7279	0.1854
2.47	-9.7932	0.1622	-1.6247	-0.0107	0.0230	-0.0526	28.2427	-4.7176	16.1219	0.6241	-0.2149	0.7280	0.1853
2.48	-9.7619	0.1471	-1.6075	-0.0228	0.0080	-0.0629	28.2639	-4.6397	15.8957	0.6240	-0.2150	0.7281	0.1853
2.49	-9.7696	0.1221	-1.5964	-0.0311	0.0130	-0.0603	28.1580	-4.3909	16.2035	0.6238	-0.2151	0.7281	0.1853
2.5	-9.8435	0.1172	-1.6344	-0.0349	0.0165	-0.0581	28.0464	-4.6171	16.1267	0.6238	-0.2153	0.7282	0.1853
2.51	-9.8436	0.0856	-1.6176	-0.0367	-0.0025	-0.0616	27.9211	-4.5843	16.0991	0.6237	-0.2155	0.7281	0.1853
2.52	-9.8342	0.0792	-1.6202	-0.0371	-0.0028	-0.0611	28.1262	-4.5343	16.2183	0.6237	-0.2157	0.7282	0.1853
2.53	-9.8308	0.0704	-1.6228	-0.0367	-0.0074	-0.0572	28.1828	-4.5326	15.9594	0.6236	-0.2158	0.7281	0.1853
2.54	-9.7642	0.0547	-1.6056	-0.0368	-0.0196	-0.0504	27.9958	-4.5770	16.1029	0.6236	-0.2159	0.7281	0.1854
2.55	-9.7213	0.0609	-1.6145	-0.0363	-0.0112	-0.0418	27.9943	-4.6343	16.0673	0.6236	-0.2160	0.7281	0.1855
2.56	-9.7108	0.0668	-1.6088	-0.0378	-0.0163	-0.0505	28.2322	-4.7056	16.0873	0.6235	-0.2161	0.7280	0.1856
2.57	-9.6988	0.0666	-1.6065	-0.0293	-0.0108	-0.0461	28.3631	-4.7159	15.9805	0.6236	-0.2162	0.7281	0.1856
2.58	-9.7037	0.0565	-1.6145	-0.0340	-0.0027	-0.0486	28.2836	-4.8873	16.1283	0.6235	-0.2163	0.7280	0.1857
2.59	-9.7433	0.0546	-1.6280	-0.0262	0.0067	-0.0483	28.2171	-5.0483	16.0233	0.6234	-0.2164	0.7281	0.1857
2.6	-9.7686	0.0628	-1.6287	-0.0162	0.0041	-0.0530	28.2621	-4.7803	15.8694	0.6233	-0.2164	0.7280	0.1857
2.61	-9.8135	0.0632	-1.6410	-0.0184	0.0052	-0.0499	28.0989	-4.7050	16.1608	0.6233	-0.2165	0.7282	0.1857
2.62	-9.8274	0.0670	-1.6463	-0.0146	-0.0028	-0.0496	28.2403	-4.5604	16.1303	0.6232	-0.2166	0.7282	0.1856
2.63	-9.8279	0.0652	-1.6222	-0.0135	-0.0063	-0.0554	28.1664	-4.8594	16.0372	0.6232	-0.2166	0.7281	0.1856
2.64	-9.8429	0.0644	-1.6304	-0.0133	-0.0154	-0.0472	28.1380	-5.0265	16.2350	0.6233	-0.2167	0.7282	0.1855
2.65	-9.8351	0.0682	-1.6324	-0.0151	-0.0267	-0.0443	28.2894	-4.9239	15.9611	0.6233	-0.2167	0.7281	0.1856
2.66	-9.7979	0.0709	-1.6337	-0.0093	-0.0189	-0.0493	28.1620	-4.6674	15.9103	0.6234	-0.2167	0.7281	0.1855
2.67	-9.7948	0.0837	-1.6118	-0.0229	-0.0189	-0.0504	28.1401	-4.5197	16.1837	0.6233	-0.2167	0.7280	0.1855
2.68	-9.7887	0.0783	-1.6242	-0.0126	-0.0273	-0.0495	28.2736	-4.5642	16.1808	0.6234	-0.2168	0.7280	0.1856
2.69	-9.7735	0.0622	-1.6000	-0.0177	-0.0288	-0.0470	28.2031	-4.6526	16.1237	0.6234	-0.2168	0.7279	0.1856
2.7	-9.7560	0.0657	-1.5967	-0.0149	-0.0332	-0.0400	28.0638	-4.6159	16.0483	0.6235	-0.2168	0.7279	0.1856
2.71	-9.7438	0.0760	-1.5800	-0.0161	-0.0339	-0.0382	28.0548	-4.6444	16.1885	0.6236	-0.2168	0.7278	0.1857
2.72	-9.7464	0.0711	-1.5709	-0.0122	-0.0295	-0.0350	28.2057	-4.6115	16.0359	0.6236	-0.2167	0.7278	0.1857
2.73	-9.7728	0.0726	-1.5752	-0.0129	-0.0319	-0.0355	28.2589	-4.6627	16.1344	0.6237	-0.2167	0.7277	0.1858
2.74	-9.7711	0.0720	-1.5437	-0.0139	-0.0347	-0.0401	28.2201	-4.5130	16.2786	0.6237	-0.2167	0.7276	0.1858
2.75	-9.7773	0.0770	-1.5553	-0.0116	-0.0303	-0.0372	28.3716	-4.6763	16.1417	0.6238	-0.2167	0.7276	0.1859
2.76	-9.7624	0.0722	-1.5413	-0.0074	-0.0322	-0.0353	28.2708	-4.9994	15.9040	0.6238	-0.2166	0.7276	0.1859
2.77	-9.7358	0.0778	-1.5406	-0.0061	-0.0315	-0.0356	28.2311	-4.9781	15.9099	0.6240	-0.2165	0.7276	0.1859
2.78	-9.7223	0.1115	-1.5184	0.0092	-0.0314	-0.0352	28.2331	-4.9142	15.8842	0.6240	-0.2164	0.7275	0.1859
2.79	-9.7290	0.1268	-1.5340	0.0101	-0.0288	-0.0359	28.3768	-4.6199	16.0479	0.6241	-0.2163	0.7275	0.1858
2.8	-9.7225	0.1181	-1.5357	0.0034	-0.0245	-0.0412	28.2500	-4.6920	16.0593	0.6241	-0.2163	0.7275	0.1858
2.81	-9.7169	0.1201	-1.5365	0.0081	-0.0204	-0.0417	28.2605	-4.7299	15.8605	0.6241	-0.2162	0.7274	0.1857
2.82	-9.7270	0.1208	-1.5386	-0.0020	-0.0192	-0.0444	28.1021	-4.6287	16.0258	0.6242	-0.2162	0.7275	0.1857
2.83	-9.7146	0.1289	-1.5336	-0.0129	-0.0189	-0.0430	28.1156	-4.5995	15.9386	0.6242	-0.2162	0.7274	0.1857
2.84	-9.7331	0.1263	-1.5400	-0.0114	-0.0059	-0.0456	28.3250	-4.5097	16.1153	0.6242	-0.2162	0.7275	0.1857
2.85	-9.7454	0.1143	-1.5420	-0.0117	-0.0094	-0.0500	28.0247	-4.6338	16.2966	0.6241	-0.2162	0.7274	0.1857
2.86	-9.7537	0.1224	-1.5487	-0.0128	-0.0030	-0.0487	28.0803	-4.6473	16.1170	0.6241	-0.2162	0.7275	0.1856
2.87	-9.7623	0.1152	-1.5520	-0.0137	-0.0034	-0.0508	28.2278	-4.5733	16.0476	0.6241	-0.2163	0.7275	0.1856
2.88	-9.7847	0.1107	-1.5600	-0.0141	-0.0073	-0.0497	28.2415	-4.5351	15.8553	0.6241	-0.2163	0.7275	0.1856
2.89	-9.7646	0.1054	-1.5584	-0.0140	-0.0059	-0.0454	28.2569	-4.5348	16.0301	0.6241	-0.2164	0.7276	0.1856
2.9	-9.7702	0.0977	-1.5637	-0.0145	-0.0050	-0.0486	28.2015	-4.5743	16.0544	0.6240	-0.2164	0.7276	0.1856
2.91	-9.7707	0.0894	-1.5783	-0.0185	-0.0094	-0.0477	27.9216	-4.6544	16.1862	0.6240	-0.2165	0.7276	0.1856
2.92	-9.7393	0.0799	-1.5635	-0.0296	-0.0156	-0.0401	28.2063	-4.6142	16.4571	0.6239	-0.2165	0.7275	0.1856
2.93	-9.7567	0.0759	-1.5721	-0.0187	-0.0068	-0.0389	28.7450	-4.6287	16.4766	0.6240	-0.2165	0.7276	0.1857
2.94	-9.7535	0.0773	-1.5776	-0.0205	-0.0089	-0.0389	28.7130	-4.6277	16.3624	0.6239	-0.2165	0.7276	0.1857
2.95	-9.7583	0.0773	-1.5763	-0.0124	-0.0048	-0.0376	28.4749	-4.7473	16.2056	0.6239	-0.2165	0.7276	0.1857
2.96	-9.7560	0.0904	-1.5644	-0.0129	-0.0167	-0.0377	28.3699	-4.7019	16.0689	0.6238	-0.2165	0.7276	0.1857
2.97	-9.7525	0.1012	-1.5707	-0.0130	-0.0106	-0.0411	28.1725	-5.0881	15.8335	0.6238	-0.2165	0.7276	0.1858
2.98	-9.7526	0.1042	-1.5661	-0.0083	0.0007	-0.0353	28.2256	-4.6168	16.2674	0.6238	-0.2165	0.7277	0.1858
2.99	-9.7556	0.1177	-1.5657	-0.0059	0.0003	-0.0370	28.1748	-4.6178	16.1175	0.6237	-0.2165	0.7277	0.1857
3	-9.7594	0.1284	-1.5751	-0.0152	0.0022	-0.0395	28.2297	-4.7691	16.0557	0.6237	-0.2165	0.7278	0.1858
3.01	-9.7514	0.1223	-1.5757	-0.0061	0.0050	-0.0418	28.1379	-4.7530	16.0009	0.6236	-0.2165	0.7278	0.1857
3.02	-9.7593	0.1325	-1.5798	-0.0099	-0.0001	-0.0452	28.1384	-4.6587	16.2021	0.6236	-0.2165	0.7279	0.1857
3.03	-9.7423	0.1378	-1.5759	-0.0118	0.0002	-0.0493	28.4226	-4.7469	16.2432	0.6235	-0.2165	0.7279	0.1856
3.04	-9.7428	0.1211	-1.5859	-0.0114	0.0073	-0.0506	28.2144	-4.7156	16.1101	0.6235	-0.2166	0.7280	0.1856
3.05	-9.7383	0.1194	-1.5815	-0.0136	0.0097	-0.0477	28.0451	-4.6447	16.1315	0.6234	-0.2167	0.7280	0.1856
3.06	-9.7395	0.1128	-1.5888	-0.0097	0.0038	-0.0446	28.2428	-4.5932	16.2169	0.6233	-0.2167	0.7281	0.1855
3.07	-9.7218	0.1100	-1.5934	-0.0148	0.0070	-0.0502	28.0504	-4.4481	16.1271	0.6233	-0.2167	0.7282	0.1855
3.08	-9.7308	0.0935	-1.5960	-0.0189	0.0102	-0.0462	28.0784	-4.6447	16.1401	0.6231	-0.2168	0.7282	0.1855
3.09	-9.7893	0.1018	-1.6111	-0.0173	0.0124	-0.0467	28.3018	-4.6513	16.3495	0.6231	-0.2169	0.7283	0.1855
3.1	-9.7601	0.0934	-1.6361	-0.0151	0.0041	-0.0494	28.3005	-4.6571	16.2106	0.6229	-0.2169	0.7283	0.1854
3.11	-9.7495	0.0893	-1.5987	-0.0102	0.0098	-0.0476	28.2446	-4.6442	16.1333	0.6229	-0.2169	0.7284	0.1854
3.12	-9.7761	0.1062	-1.6498	-0.0148	0.0105	-0.0518	27.8941	-4.5103	16.2739	0.6228	-0.2170	0.7285	0.1854
3.13	-9.7496	0.0917	-1.6154	-0.0131	0.0015	-0.0469	28.2914	-4.7245	16.1346	0.6227	-0.2170	0.7285	0.1853
3.14	-9.7695	0.0830	-1.6241	-0.0158	0.0116	-0.0443	28.3820	-4.8558	16.0426	0.6227	-0.2171	0.7286	0.1853
3.15	-9.8377	0.0858	-1.6505	-0.0137	0.0065	-0.0476	28.5191	-4.6697	16.1840	0.6226	-0.2171	0.7286	0.1853
3.16	-9.8151	0.0863	-1.6325	-0.0138	-0.0133	-0.0416	28.3455	-4.6527	16.2719	0.6226	-0.2172	0.7287	0.1853
3.17	-9.7763	0.0726	-1.6250	-0.0140	-0.0128	-0.0401	28.1779	-4.6405	16.1007	0.6225	-0.2171	0.7286	0.1853
3.18	-9.7891	0.0780	-1.6478	-0.0147	-0.0131	-0.0354	28.0988	-4.7861	16.1827	0.6226	-0.2171	0.7287	0.1853
3.19	-9.7465	0.0826	-1.6490	-0.0102	-0.0082	-0.0356	28.2890	-4.8227	16.2141	0.6225	-0.2171	0.7287	0.1853
3.2	-9.7136	0.0894	-1.6476	-0.0109	-0.0189	-0.0294	28.2221	-4.6191	16.3330	0.6225	-0.2171	0.7287	0.1854
3.21	-9.7050	0.1179	-1.6497	-0.0145	-0.0226	-0.0270	28.1847	-4.7719	16.1910	0.6225	-0.2170	0.7287	0.1854
3.22	-9.7001	0.1395	-1.6445	-0.0088	-0.0081	-0.0336	28.0842	-4.7043	16.3101	0.6225	-0.2170	0.7287	0.1855
3.23	-9.7184	0.1384	-1.6508	-0.0083	0.0047	-0.0316	28.1446	-4.6320	16.4049	0.6224	-0.2169	0.7288	0.1855
3.24	-9.7260	0.1337	-1.6570	0.0005	-0.0001	-0.0389	27.9936	-4.6683	16.2056	0.6223	-0.2169	0.7288	0.1854
3.25	-9.7309	0.1517	-1.6526	0.0063	0.0073	-0.0379	28.1617	-4.6432	16.1115	0.6224	-0.2168	0.7290	0.1854
3.26	-9.7576	0.1795	-1.6587	-0.0046	0.0105	-0.0440	28.0225	-4.5250	16.1961	0.6222	-0.2168	0.7290	0.1853
3.27	-9.7840	0.1896	-1.6579	0.0012	0.0023	-0.0490	28.1406	-4.6531	16.4443	0.6222	-0.2169	0.7291	0.1852
3.28	-9.7860	0.1954	-1.6609	0.0035	0.0036	-0.0515	28.3341	-4.6389	16.3905	0.6221	-0.2168	0.7291	0.1851
3.29	-9.7694	0.2051	-1.6578	-0.0114	-0.0012	-0.0575	28.0124	-4.8002	16.4316	0.6221	-0.2169	0.7292	0.1851
3.3	-9.7574	0.1929	-1.6447	-0.0151	-0.0085	-0.0608	28.0605	-4.8037	16.1965	0.6221	-0.2170	0.7292	0.1850
3.31	-9.7557	0.1835	-1.6595	-0.0202	-0.0136	-0.0592	28.2127	-4.6457	16.3485	0.6221	-0.2170	0.7291	0.1850
3.32	-9.7561	0.1737	-1.6674	-0.0248	-0.0028	-0.0617	28.1872	-4.5471	16.1659	0.6221	-0.2172	0.7292	0.1850
3.33	-9.7547	0.1566	-1.6661	-0.0384	-0.0048	-0.0593	28.2324	-4.8813	16.3463	0.6220	-0.2173	0.7291	0.1850
3.34	-9.7568	0.1248	-1.6558	-0.0438	-0.0111	-0.0554	28.3266	-4.8791	16.3876	0.6220	-0.2175	0.7292	0.1851
3.35	-9.7508	0.1144	-1.6702	-0.0431	-0.0168	-0.0574	28.1712	-4.7227	16.2138	0.6219	-0.2176	0.7290	0.1851
3.36	-9.7419	0.0910	-1.6538	-0.0492	-0.0182	-0.0580	28.3360	-4.6312	16.2013	0.6219	-0.2178	0.7290	0.1852
3.37	-9.7574	0.0694	-1.6540	-0.0473	-0.0117	-0.0528	28.2199	-4.6957	16.1487	0.6219	-0.2179	0.7290	0.1853
3.38	-9.7878	0.0695	-1.6726	-0.0368	-0.0142	-0.0618	28.1925	-4.8256	16.3333	0.6219	-0.2181	0.7289	0.1854
3.39	-9.7708	0.0548	-1.6355	-0.0376	-0.0221	-0.0646	28.1940	-4.8494	16.3347	0.6219	-0.2182	0.7289	0.1854
3.4	-9.7737	0.0337	-1.6400	-0.0366	-0.0208	-0.0590	28.2189	-4.6434	16.5470	0.6219	-0.2183	0.7288	0.1855
3.41	-9.7727	0.0279	-1.6536	-0.0368	-0.0173	-0.0578	28.1327	-4.5363	16.0305	0.6219	-0.2185	0.7288	0.1855
3.42	-9.7220	0.0317	-1.6347	-0.0373	-0.0152	-0.0562	28.1426	-4.5895	16.1121	0.6218	-0.2186	0.7287	0.1856
3.43	-9.7300	0.0638	-1.6487	-0.0229	-0.0145	-0.0569	28.7036	-4.4382	16.3833	0.6219	-0.2187	0.7287	0.1856
3.44	-9.7401	0.0722	-1.6480	-0.0185	-0.0173	-0.0538	28.6878	-4.5038	16.4063	0.6219	-0.2187	0.7287	0.1856
3.45	-9.7463	0.0550	-1.6415	-0.0141	-0.0147	-0.0542	28.3451	-4.4913	16.3273	0.6219	-0.2188	0.7287	0.1856
3.46	-9.7615	0.0583	-1.6490	-0.0117	-0.0171	-0.0477	28.1584	-4.6380	16.2830	0.6219	-0.2188	0.7286	0.1856
3.47	-9.7542	0.0458	-1.6461	-0.0121	-0.0167	-0.0546	28.0655	-4.5137	16.2275	0.6219	-0.2188	0.7286	0.1855
3.48	-9.7648	0.0429	-1.6430	-0.0081	-0.0125	-0.0530	28.0655	-4.4474	16.2705	0.6219	-0.2189	0.7287	0.1855
3.49	-9.7481	0.0742	-1.6335	-0.0090	-0.0248	-0.0455	28.0562	-4.4328	16.4525	0.6219	-0.2189	0.7286	0.1855
3.5	-9.7661	0.0671	-1.5988	-0.0123	-0.0252	-0.0409	28.1590	-4.6973	16.2830	0.6220	-0.2189	0.7286	0.1855
3.51	-9.7510	0.0623	-1.6478	-0.0142	-0.0246	-0.0405	28.1560	-4.6761	16.0920	0.6220	-0.2188	0.7286	0.1855
3.52	-9.7463	0.1003	-1.5835	-0.0110	-0.0176	-0.0387	28.1240	-4.6601	16.2382	0.6220	-0.2188	0.7286	0.1856
3.53	-9.7392	0.0892	-1.6276	-0.0162	-0.0189	-0.0369	28.2641	-4.8458	16.2519	0.6219	-0.2188	0.7285	0.1856
3.54	-9.7311	0.0626	-1.5929	-0.0131	-0.0252	-0.0320	28.3063	-4.7753	16.2274	0.6220	-0.2188	0.7286	0.1857
3.55	-9.7451	0.1158	-1.6174	-0.0085	-0.0186	-0.0306	28.2266	-4.8453	16.2919	0.6220	-0.2187	0.7286	0.1857
3.56	-9.6840	0.1147	-1.5925	-0.0126	-0.0245	-0.0377	28.1645	-4.6973	16.3889	0.6220	-0.2186	0.7285	0.1857
3.57	-9.7374	0.0947	-1.6304	-0.0127	-0.0052	-0.0338	28.1429	-4.7552	15.9693	0.6220	-0.2186	0.7286	0.1858
3.58	-9.7244	0.1177	-1.6400	-0.0102	-0.0199	-0.0363	27.9965	-4.6407	16.3062	0.6220	-0.2186	0.7286	0.1858
3.59	-9.7453	0.1136	-1.6152	-0.0113	-0.0070	-0.0350	27.9780	-4.4940	16.2526	0.6220	-0.2186	0.7287	0.1858
3.6	-9.7736	0.1340	-1.6829	-0.0117	-0.0030	-0.0357	27.8735	-4.6520	16.3233	0.6218	-0.2185	0.7286	0.1858
3.61	-9.7530	0.1573	-1.6363	-0.0125	-0.0108	-0.0356	27.8942	-4.6312	16.3195	0.6219	-0.2185	0.7287	0.1859
3.62	-9.7807	0.1510	-1.6768	-0.0120	-0.0062	-0.0443	28.0170	-4.4442	16.1981	0.6218	-0.2185	0.7287	0.1858
3.63	-9.7880	0.1615	-1.6570	-0.0120	-0.0174	-0.0509	27.8708	-4.5487	16.2586	0.6218	-0.2185	0.7287	0.1858
3.64	-9.7859	0.1672	-1.6538	-0.0117	-0.0122	-0.0485	27.9732	-4.5205	16.2098	0.6218	-0.2186	0.7288	0.1858
3.65	-9.7935	0.1531	-1.6502	-0.0170	-0.0184	-0.0508	28.1216	-4.6079	16.4196	0.6218	-0.2186	0.7287	0.1858
3.66	-9.7947	0.1409	-1.6561	-0.0183	-0.0146	-0.0527	27.9196	-4.5671	16.5837	0.6218	-0.2187	0.7287	0.1858
3.67	-9.7803	0.1327	-1.6529	-0.0264	-0.0215	-0.0533	27.8483	-4.5505	16.2946	0.6218	-0.2187	0.7286	0.1858
3.68	-9.7833	0.1115	-1.6396	-0.0335	-0.0295	-0.0433	28.1195	-4.6016	16.3604	0.6218	-0.2188	0.7286	0.1860
3.69	-9.7872	0.0964	-1.6550	-0.0387	-0.0307	-0.0437	28.3336	-4.9189	16.2755	0.6218	-0.2188	0.7285	0.1861
3.7	-9.7488	0.0680	-1.6442	-0.0345	-0.0407	-0.0453	28.2489	-4.8845	16.2512	0.6219	-0.2189	0.7285	0.1862
3.71	-9.7371	0.0701	-1.6125	-0.0318	-0.0349	-0.0425	28.2364	-4.5901	16.1269	0.6219	-0.2189	0.7284	0.1863
3.72	-9.7407	0.0702	-1.6088	-0.0358	-0.0319	-0.0472	28.2189	-4.8667	16.1875	0.6220	-0.2190	0.7283	0.1864
3.73	-9.7579	0.0597	-1.6028	-0.0164	-0.0317	-0.0482	28.1016	-4.7946	16.2628	0.6220	-0.2190	0.7283	0.1864
3.74	-9.7091	0.0552	-1.6049	-0.0103	-0.0379	-0.0423	28.2457	-4.7380	16.2349	0.6220	-0.2190	0.7281	0.1864
3.75	-9.6735	0.0580	-1.5732	-0.0089	-0.0385	-0.0451	28.3381	-4.6075	16.2351	0.6222	-0.2190	0.7282	0.1865
3.76	-9.7094	0.0787	-1.6005	-0.0126	-0.0158	-0.0425	28.1674	-4.7846	16.2652	0.6222	-0.2189	0.7281	0.1865
3.77	-9.6757	0.0905	-1.5731	-0.0067	-0.0294	-0.0425	28.1453	-4.8460	16.1568	0.6223	-0.2189	0.7282	0.1865
3.78	-9.6929	0.0862	-1.5626	0.0016	-0.0107	-0.0421	28.0721	-4.6060	16.2250	0.6222	-0.2189	0.7281	0.1865
3.79	-9.7546	0.1153	-1.5885	-0.0066	-0.0005	-0.0383	28.0279	-4.4262	16.4942	0.6222	-0.2188	0.7282	0.1865
3.8	-9.7474	0.1169	-1.5867	-0.0062	-0.0117	-0.0467	28.1442	-4.6373	16.3280	0.6221	-0.2188	0.7282	0.1864
3.81	-9.7214	0.1168	-1.5852	-0.0135	-0.0073	-0.0474	28.0688	-4.6335	16.3472	0.6221	-0.2188	0.7282	0.1864
3.82	-9.7447	0.1455	-1.6073	-0.0101	-0.0004	-0.0353	28.0612	-4.5322	16.2964	0.6221	-0.2189	0.7284	0.1864
3.83	-9.7184	0.1404	-1.6078	-0.0180	-0.0100	-0.0355	28.1856	-4.5489	16.2564	0.6220	-0.2188	0.7283	0.1865
3.84	-9.6883	0.1551	-1.6160	-0.0172	-0.0002	-0.0355	28.1043	-4.5292	16.3694	0.6219	-0.2188	0.7284	0.1865
3.85	-9.6857	0.1757	-1.6248	-0.0135	0.0135	-0.0350	27.8437	-4.6401	16.2249	0.6217	-0.2188	0.7284	0.1865
3.86	-9.6878	0.1712	-1.6354	-0.0257	0.0103	-0.0425	28.1467	-4.5180	16.2259	0.6217	-0.2189	0.7286	0.1866
3.87	-9.7182	0.1374	-1.6553	-0.0198	0.0120	-0.0402	28.1066	-4.7551	16.2893	0.6215	-0.2189	0.7287	0.1866
3.88	-9.7406	0.1124	-1.6758	-0.0170	0.0148	-0.0493	28.3196	-4.8477	16.3694	0.6214	-0.2189	0.7287	0.1866
3.89	-9.7393	0.1081	-1.6678	-0.0126	0.0164	-0.0584	28.3206	-4.6692	16.2133	0.6213	-0.2190	0.7289	0.1865
3.9	-9.7793	0.1160	-1.6876	-0.0107	0.0231	-0.0531	28.2294	-4.7845	16.2608	0.6212	-0.2191	0.7290	0.1864
3.91	-9.7905	0.1171	-1.6950	-0.0116	0.0072	-0.0550	28.1785	-4.7658	16.2202	0.6211	-0.2192	0.7291	0.1864
3.92	-9.7724	0.1142	-1.6890	-0.0115	0.0055	-0.0568	28.1918	-4.6197	16.3238	0.6210	-0.2192	0.7290	0.1863
3.93	-9.7868	0.1138	-1.7006	-0.0117	0.0021	-0.0487	28.5038	-4.6155	16.5656	0.6210	-0.2193	0.7292	0.1863
3.94	-9.7771	0.1129	-1.6995	-0.0105	-0.0002	-0.0499	28.3112	-4.6669	16.6418	0.6209	-0.2193	0.7292	0.1863
3.95	-9.7723	0.1269	-1.6984	-0.0148	0.0026	-0.0453	28.3145	-4.6132	16.6115	0.6208	-0.2193	0.7293	0.1863
3.96	-9.7927	0.1177	-1.7037	-0.0250	0.0010	-0.0389	28.1696	-4.4800	16.3248	0.6207	-0.2193	0.7293	0.1863
3.97	-9.7884	0.1160	-1.7088	-0.0241	0.0005	-0.0463	28.0246	-4.6710	16.3228	0.6206	-0.2194	0.7294	0.1863
3.98	-9.7985	0.1105	-1.7130	-0.0249	-0.0095	-0.0464	28.0917	-4.8605	16.5113	0.6206	-0.2194	0.7294	0.1864
3.99	-9.7959	0.1110	-1.7027	-0.0351	-0.0143	-0.0445	27.8509	-4.7553	16.4713	0.6205	-0.2195	0.7293	0.1865
4	-9.7933	0.1142	-1.6916	-0.0223	-0.0166	-0.0509	28.1674	-4.6655	16.5489	0.6206	-0.2196	0.7294	0.1865
4.01	-9.8293	0.1145	-1.6951	-0.0173	-0.0191	-0.0532	28.1560	-4.7734	16.3796	0.6206	-0.2196	0.7293	0.1865
4.02	-9.8178	0.1185	-1.6686	-0.0163	-0.0255	-0.0586	27.9915	-4.5371	16.3451	0.6207	-0.2197	0.7293	0.1865
4.03	-9.7788	0.1113	-1.6590	-0.0137	-0.0415	-0.0621	28.0910	-4.6989	16.5211	0.6207	-0.2197	0.7291	0.1864
4.04	-9.7670	0.1059	-1.6459	-0.0212	-0.0388	-0.0680	28.0984	-4.7491	16.3834	0.6208	-0.2198	0.7291	0.1864
4.05	-9.7388	0.0915	-1.6199	-0.0207	-0.0389	-0.0664	28.2597	-4.7867	16.3965	0.6209	-0.2199	0.7290	0.1864
4.06	-9.7115	0.1061	-1.6205	-0.0182	-0.0423	-0.0659	28.2708	-4.6430	16.4997	0.6209	-0.2200	0.7288	0.1864
4.07	-9.6977	0.1093	-1.5958	-0.0154	-0.0337	-0.0666	28.2713	-4.7072	16.4800	0.6211	-0.2201	0.7288	0.1864
4.08	-9.6854	0.1116	-1.6010	-0.0304	-0.0226	-0.0659	28.2648	-4.8485	16.4194	0.6211	-0.2202	0.7287	0.1864
4.09	-9.6792	0.0868	-1.5981	-0.0373	-0.0197	-0.0666	28.2751	-4.7016	16.5488	0.6211	-0.2203	0.7287	0.1865
4.1	-9.6969	0.0554	-1.6223	-0.0363	-0.0148	-0.0665	28.2612	-4.8609	16.3886	0.6210	-0.2205	0.7286	0.1865
4.11	-9.7163	0.0372	-1.6296	-0.0366	-0.0100	-0.0632	28.1675	-4.8474	16.4118	0.6210	-0.2206	0.7286	0.1865
4.12	-9.7073	0.0105	-1.6378	-0.0372	-0.0045	-0.0612	28.1617	-4.6252	16.2479	0.6209	-0.2208	0.7286	0.1866
4.13	-9.7411	0.0061	-1.6405	-0.0370	-0.0006	-0.0565	27.9680	-4.6120	16.4329	0.6209	-0.2209	0.7286	0.1866
4.14	-9.7567	-0.0060	-1.6560	-0.0382	0.0006	-0.0454	28.1238	-4.8119	16.3680	0.6208	-0.2210	0.7287	0.1867
4.15	-9.7741	-0.0060	-1.6578	-0.0294	-0.0084	-0.0509	28.1788	-4.6890	16.3512	0.6207	-0.2211	0.7287	0.1867
4.16	-9.7850	0.0099	-1.6711	-0.0202	-0.0061	-0.0475	27.9955	-4.6981	16.6223	0.6207	-0.2211	0.7287	0.1868
4.17	-9.7699	0.0086	-1.6726	-0.0132	-0.0134	-0.0451	28.0032	-4.8905	16.5057	0.6206	-0.2211	0.7287	0.1868
4.18	-9.7864	0.0182	-1.6607	-0.0127	-0.0082	-0.0459	27.9943	-4.4773	16.4591	0.6206	-0.2212	0.7288	0.1868
4.19	-9.7871	0.0358	-1.6668	-0.0093	-0.0165	-0.0413	28.0269	-4.7161	16.4231	0.6206	-0.2211	0.7288	0.1868
4.2	-9.7799	0.0466	-1.6429	-0.0096	-0.0219	-0.0372	28.1997	-4.7252	16.5514	0.6206	-0.2211	0.7288	0.1868
4.21	-9.7598	0.0618	-1.6540	-0.0130	-0.0188	-0.0362	28.0801	-4.4445	16.3555	0.6206	-0.2210	0.7287	0.1869
4.22	-9.7437	0.0811	-1.6406	-0.0069	-0.0186	-0.0397	27.9733	-4.6519	16.4501	0.6206	-0.2210	0.7288	0.1869
4.23	-9.7168	0.0780	-1.6175	-0.0098	-0.0190	-0.0389	28.2475	-4.6660	16.5138	0.6206	-0.2210	0.7288	0.1869
4.24	-9.7327	0.0932	-1.6182	0.0013	-0.0208	-0.0349	28.2830	-4.6697	16.4936	0.6205	-0.2209	0.7287	0.1869
4.25	-9.7431	0.1097	-1.6098	-0.0112	-0.0224	-0.0357	28.1603	-4.6569	16.3948	0.6206	-0.2209	0.7288	0.1869
4.26	-9.7358	0.1055	-1.6001	-0.0030	-0.0245	-0.0355	28.3328	-4.8417	16.4135	0.6206	-0.2208	0.7288	0.1870
4.27	-9.7523	0.1338	-1.6009	-0.0019	-0.0130	-0.0367	28.1526	-4.7794	16.4011	0.6207	-0.2207	0.7289	0.1870
4.28	-9.7452	0.1590	-1.5991	-0.0011	-0.0192	-0.0378	28.2985	-4.7335	16.4893	0.6206	-0.2206	0.7288	0.1869
4.29	-9.7308	0.1439	-1.5933	-0.0070	-0.0101	-0.0423	28.2166	-4.8866	16.6578	0.6206	-0.2206	0.7289	0.1869
4.3	-9.7097	0.1441	-1.6011	-0.0114	-0.0192	-0.0471	28.0256	-4.7809	16.6567	0.6206	-0.2206	0.7289	0.1869
4.31	-9.7086	0.1533	-1.5956	-0.0183	-0.0066	-0.0481	28.1998	-4.6772	16.4842	0.6205	-0.2206	0.7289	0.1869
4.32	-9.7192	0.1519	-1.6010	-0.0251	-0.0087	-0.0488	28.1679	-4.6417	16.4007	0.6205	-0.2207	0.7290	0.1870
4.33	-9.7040	0.1244	-1.5978	-0.0263	-0.0074	-0.0449	28.1976	-4.7230	16.5484	0.6204	-0.2208	0.7289	0.1870
4.34	-9.7148	0.1105	-1.6262	-0.0232	0.0037	-0.0453	28.1262	-4.7230	16.4088	0.6204	-0.2208	0.7290	0.1871
4.35	-9.7370	0.0959	-1.6163	-0.0337	0.0080	-0.0531	27.9805	-4.5447	16.4014	0.6202	-0.2209	0.7290	0.1871
4.36	-9.7776	0.0771	-1.6509	-0.0323	0.0091	-0.0553	28.0170	-4.7207	16.5096	0.6201	-0.2210	0.7291	0.1871
4.37	-9.7365	0.0645	-1.6633	-0.0278	0.0050	-0.0565	28.1566	-4.5878	16.6907	0.6200	-0.2211	0.7291	0.1871
4.38	-9.7260	0.0584	-1.6324	-0.0386	0.0083	-0.0549	28.2067	-4.6254	16.5791	0.6199	-0.2213	0.7292	0.1872
4.39	-9.7579	0.0646	-1.6964	-0.0303	0.0063	-0.0483	28.0604	-4.8040	16.7136	0.6198	-0.2214	0.7293	0.1872
4.4	-9.6991	0.0430	-1.6465	-0.0219	0.0020	-0.0517	27.9939	-4.5562	16.7555	0.6197	-0.2214	0.7293	0.1872
4.41	-9.7085	0.0312	-1.6668	-0.0148	0.0213	-0.0506	27.9894	-4.6772	16.6492	0.6196	-0.2215	0.7294	0.1872
4.42	-9.7517	0.0245	-1.6916	-0.0129	0.0081	-0.0465	28.1398	-4.5607	16.6924	0.6194	-0.2215	0.7294	0.1872
4.43	-9.7261	0.0104	-1.6722	-0.0094	0.0053	-0.0419	28.5679	-4.5130	16.6775	0.6194	-0.2216	0.7296	0.1872
4.44	-9.7257	0.0062	-1.6693	-0.0062	0.0056	-0.0381	28.4444	-4.7028	16.5044	0.6193	-0.2215	0.7296	0.1872
4.45	-9.7493	0.0251	-1.6987	0.0028	0.0136	-0.0240	28.2712	-4.6736	16.4674	0.6192	-0.2214	0.7298	0.1871
4.46	-9.7034	0.0351	-1.6944	0.0100	0.0007	-0.0125	27.9156	-4.6015	16.2489	0.6191	-0.2213	0.7299	0.1872
4.47	-9.6835	0.0595	-1.7201	0.0146	0.0169	-0.0090	28.0069	-4.5834	16.3452	0.6190	-0.2211	0.7300	0.1871
4.48	-9.7149	0.1106	-1.7464	0.0125	0.0232	-0.0095	28.0175	-4.8201	16.6738	0.6188	-0.2209	0.7303	0.1871
4.49	-9.7495	0.1408	-1.7529	0.0109	0.0162	-0.0084	27.7400	-4.7784	16.6166	0.6186	-0.2207	0.7304	0.1871
4.5	-9.7703	0.1492	-1.7801	0.0202	0.0264	-0.0119	27.9499	-4.9206	16.5396	0.6186	-0.2206	0.7307	0.1871
4.51	-9.8075	0.1680	-1.7675	0.0213	0.0179	-0.0193	28.0009	-4.6988	16.3903	0.6184	-0.2204	0.7308	0.1870
4.52	-9.8528	0.1943	-1.7748	0.0238	0.0081	-0.0210	27.9215	-4.7923	16.5566	0.6184	-0.2203	0.7310	0.1869
4.53	-9.8417	0.2364	-1.7638	0.0252	0.0044	-0.0264	27.8706	-4.7246	16.5176	0.6183	-0.2201	0.7310	0.1868
4.54	-9.8099	0.2504	-1.7484	0.0161	-0.0116	-0.0312	27.9263	-4.5722	16.4583	0.6183	-0.2200	0.7311	0.1867
4.55	-9.7896	0.2569	-1.7407	0.0146	-0.0184	-0.0357	28.0260	-4.3280	16.5568	0.6184	-0.2199	0.7311	0.1867
4.56	-9.7578	0.2576	-1.7232	0.0162	-0.0161	-0.0419	27.8830	-4.5167	16.5198	0.6183	-0.2197	0.7311	0.1866
4.57	-9.7364	0.2655	-1.7265	-0.0042	-0.0186	-0.0435	28.0057	-4.5578	16.6370	0.6184	-0.2197	0.7312	0.1866
4.58	-9.7173	0.2611	-1.7144	-0.0128	-0.0247	-0.0476	27.9735	-4.6451	16.6525	0.6184	-0.2197	0.7311	0.1866
4.59	-9.7227	0.2458	-1.7182	-0.0123	-0.0189	-0.0538	28.0089	-4.5667	16.5404	0.6184	-0.2197	0.7311	0.1866
4.6	-9.7112	0.2382	-1.7012	-0.0331	-0.0195	-0.0493	27.8834	-4.4912	16.6147	0.6184	-0.2198	0.7310	0.1866
4.61	-9.7314	0.2242	-1.7093	-0.0379	-0.0172	-0.0554	27.9080	-4.7128	16.8691	0.6184	-0.2199	0.7310	0.1867
4.62	-9.7284	0.1897	-1.7016	-0.0392	-0.0191	-0.0532	28.0520	-4.7812	16.7779	0.6184	-0.2200	0.7310	0.1868
4.63	-9.7395	0.1731	-1.7063	-0.0484	-0.0155	-0.0562	28.0945	-4.6604	16.5557	0.6183	-0.2202	0.7309	0.1869
4.64	-9.7793	0.1594	-1.7208	-0.0525	-0.0211	-0.0660	28.0468	-4.8422	16.5269	0.6183	-0.2204	0.7309	0.1870
4.65	-9.7645	0.1280	-1.7096	-0.0586	-0.0205	-0.0764	27.9941	-4.7566	16.4200	0.6183	-0.2206	0.7308	0.1871
4.66	-9.7522	0.0970	-1.7114	-0.0558	-0.0163	-0.0776	28.1250	-4.8893	16.5164	0.6183	-0.2209	0.7307	0.1872
4.67	-9.7656	0.0685	-1.7052	-0.0545	-0.0172	-0.0718	27.9490	-4.8079	16.5689	0.6182	-0.2211	0.7306	0.1872
4.68	-9.7554	0.0432	-1.7197	-0.0561	-0.0212	-0.0691	28.1255	-4.6837	16.5020	0.6182	-0.2213	0.7306	0.1873
4.69	-9.7314	0.0479	-1.7025	-0.0492	-0.0195	-0.0699	28.0026	-4.7267	16.6204	0.6182	-0.2215	0.7305	0.1874
4.7	-9.7179	0.0414	-1.6915	-0.0386	-0.0241	-0.0699	27.9900	-4.6947	16.5638	0.6182	-0.2217	0.7304	0.1875
4.71	-9.7275	0.0282	-1.7017	-0.0409	-0.0222	-0.0759	27.9670	-4.7356	16.5248	0.6182	-0.2219	0.7303	0.1875
4.72	-9.7252	-0.0029	-1.7010	-0.0374	-0.0197	-0.0789	27.9006	-4.5399	16.6711	0.6182	-0.2221	0.7303	0.1875
4.73	-9.7085	-0.0353	-1.6984	-0.0378	-0.0200	-0.0795	27.8537	-4.4001	16.5651	0.6183	-0.2223	0.7302	0.1875
4.74	-9.7145	-0.0351	-1.6940	-0.0351	-0.0179	-0.0724	28.0976	-4.5425	16.4346	0.6182	-0.2224	0.7301	0.1875
4.75	-9.7221	-0.0329	-1.6926	-0.0336	-0.0184	-0.0607	28.0299	-4.6379	16.4532	0.6183	-0.2226	0.7302	0.1876
4.76	-9.7290	-0.0449	-1.6925	-0.0340	-0.0148	-0.0544	27.8923	-4.6037	16.4382	0.6182	-0.2226	0.7301	0.1876
4.77	-9.7335	-0.0341	-1.6951	-0.0143	-0.0131	-0.0484	28.0396	-4.4314	16.7309	0.6182	-0.2227	0.7302	0.1876
4.78	-9.7488	-0.0241	-1.6941	-0.0107	-0.0171	-0.0376	27.8784	-4.4677	16.6182	0.6181	-0.2226	0.7301	0.1876
4.79	-9.7505	-0.0147	-1.6922	-0.0123	-0.0209	-0.0352	27.8866	-4.4080	16.3964	0.6182	-0.2226	0.7301	0.1877
4.8	-9.7415	-0.0009	-1.6936	-0.0088	-0.0181	-0.0351	27.9714	-4.3820	16.6475	0.6182	-0.2226	0.7301	0.1877
4.81	-9.7399	0.0198	-1.6906	-0.0110	-0.0244	-0.0271	28.2730	-4.8936	16.6105	0.6181	-0.2225	0.7301	0.1878
4.82	-9.7405	0.0329	-1.6928	-0.0046	-0.0236	-0.0193	28.2511	-4.9937	16.6819	0.6182	-0.2224	0.7302	0.1879
4.83	-9.7391	0.0586	-1.6909	0.0122	-0.0113	-0.0204	28.0918	-4.8039	16.5513	0.6182	-0.2222	0.7302	0.1879
4.84	-9.7533	0.0692	-1.7038	0.0082	-0.0180	-0.0170	28.1077	-4.8221	16.3878	0.6182	-0.2220	0.7303	0.1879
4.85	-9.7569	0.0822	-1.7047	0.0098	-0.0111	-0.0183	28.3046	-4.6808	16.6526	0.6181	-0.2219	0.7303	0.1879
4.86	-9.7635	0.1242	-1.6940	0.0134	-0.0193	-0.0172	27.8529	-4.7568	16.6384	0.6181	-0.2217	0.7304	0.1879
4.87	-9.7532	0.1393	-1.7008	0.0108	-0.0213	-0.0225	28.0109	-4.7642	16.5981	0.6181	-0.2215	0.7304	0.1879
4.88	-9.7384	0.1577	-1.6938	0.0111	-0.0192	-0.0246	28.1076	-4.6873	16.4362	0.6181	-0.2214	0.7304	0.1879
4.89	-9.7293	0.1723	-1.6892	0.0159	-0.0232	-0.0334	27.9692	-4.7183	16.5387	0.6182	-0.2212	0.7305	0.1879
4.9	-9.7282	0.1801	-1.6932	0.0137	-0.0207	-0.0353	27.8398	-4.7208	16.5714	0.6182	-0.2211	0.7305	0.1878
4.91	-9.6852	0.1688	-1.6816	0.0020	-0.0181	-0.0355	27.8194	-4.6550	16.6648	0.6183	-0.2210	0.7306	0.1878
4.92	-9.6918	0.1804	-1.6823	0.0103	-0.0125	-0.0341	28.1572	-4.5997	16.5271	0.6182	-0.2209	0.7305	0.1877
4.93	-9.7198	0.1709	-1.6941	-0.0067	-0.0063	-0.0371	28.4229	-4.6376	16.6451	0.6182	-0.2209	0.7306	0.1877
4.94	-9.7770	0.1693	-1.6843	-0.0078	-0.0015	-0.0372	28.3666	-4.5912	16.6482	0.6181	-0.2209	0.7307	0.1877
4.95	-9.7711	0.1743	-1.7307	-0.0112	-0.0038	-0.0395	28.1118	-4.5545	16.6414	0.6181	-0.2208	0.7307	0.1877
4.96	-9.7425	0.1534	-1.6915	-0.0115	-0.0068	-0.0463	27.9751	-4.5703	16.3965	0.6180	-0.2208	0.7307	0.1877
4.97	-9.7838	0.1589	-1.7199	-0.0140	0.0048	-0.0475	27.8191	-4.5306	16.6908	0.6180	-0.2209	0.7308	0.1877
4.98	-9.7739	0.1505	-1.7340	-0.0267	-0.0172	-0.0519	28.0220	-4.6688	16.7722	0.6179	-0.2210	0.7308	0.1878
4.99	-9.7478	0.1102	-1.6875	-0.0239	-0.0217	-0.0470	27.9751	-4.6781	16.7627	0.6179	-0.2210	0.7307	0.1878
5	-9.8026	0.1044	-1.7138	-0.0352	-0.0173	-0.0550	28.1394	-4.7803	16.6372	0.6180	-0.2211	0.7308	0.1879
5.01	-9.8071	0.0845	-1.7141	-0.0362	-0.0243	-0.0530	28.1659	-4.7477	16.5597	0.6179	-0.2212	0.7307	0.1879
5.02	-9.7497	0.0570	-1.6963	-0.0343	-0.0330	-0.0574	28.0259	-4.5940	16.5742	0.6180	-0.2213	0.7307	0.1880
5.03	-9.7519	0.0542	-1.7030	-0.0353	-0.0289	-0.0447	28.3276	-5.0155	16.5896	0.6180	-0.2213	0.7305	0.1881
5.04	-9.7258	0.0426	-1.7057	-0.0324	-0.0329	-0.0359	28.0709	-4.9614	16.5580	0.6180	-0.2214	0.7305	0.1882
5.05	-9.6982	0.0341	-1.7003	-0.0299	-0.0316	-0.0323	27.8371	-4.6673	16.6361	0.6180	-0.2214	0.7304	0.1884
5.06	-9.7143	0.0831	-1.7194	-0.0160	-0.0193	-0.0282	28.0339	-4.6051	16.6691	0.6180	-0.2213	0.7304	0.1884
5.07	-9.7196	0.1037	-1.7093	-0.0177	-0.0204	-0.0266	27.9765	-4.5882	16.6741	0.6181	-0.2213	0.7305	0.1886
5.08	-9.7169	0.1048	-1.7061	-0.0197	-0.0216	-0.0355	28.0510	-4.8510	16.6222	0.6180	-0.2212	0.7304	0.1886
5.09	-9.7498	0.1008	-1.7267	-0.0120	-0.0192	-0.0364	28.1051	-4.6483	16.3391	0.6180	-0.2212	0.7305	0.1887
5.1	-9.7477	0.1054	-1.7234	-0.0037	-0.0200	-0.0423	28.0918	-4.7957	16.5051	0.6180	-0.2212	0.7304	0.1886
5.11	-9.7360	0.1405	-1.7081	0.0085	-0.0203	-0.0370	27.9667	-4.6183	16.6904	0.6181	-0.2211	0.7305	0.1886
5.12	-9.7439	0.1683	-1.7105	-0.0003	-0.0293	-0.0475	28.0683	-4.6159	16.8433	0.6181	-0.2210	0.7304	0.1886
5.13	-9.7251	0.1742	-1.6955	0.0077	-0.0218	-0.0482	28.0891	-4.7636	16.7867	0.6181	-0.2210	0.7304	0.1885
5.14	-9.7102	0.1859	-1.6921	0.0026	-0.0164	-0.0451	28.1967	-4.8741	16.6499	0.6182	-0.2209	0.7305	0.1885
5.15	-9.6965	0.1822	-1.6956	-0.0036	-0.0208	-0.0483	28.1472	-4.6868	16.6651	0.6182	-0.2209	0.7304	0.1884
5.16	-9.7060	0.1897	-1.7114	-0.0103	-0.0141	-0.0477	27.8499	-4.7338	16.4695	0.6182	-0.2209	0.7305	0.1884
5.17	-9.7071	0.1952	-1.7094	-0.0113	-0.0208	-0.0441	28.1191	-4.7985	16.4973	0.6181	-0.2209	0.7304	0.1884
5.18	-9.7453	0.1734	-1.7011	-0.0158	-0.0138	-0.0390	28.0611	-4.5288	16.4539	0.6182	-0.2209	0.7305	0.1885
5.19	-9.7544	0.1715	-1.7280	-0.0314	-0.0134	-0.0430	28.1633	-4.8219	16.5403	0.6181	-0.2209	0.7304	0.1885
5.2	-9.7232	0.1559	-1.7208	-0.0349	-0.0184	-0.0378	28.1245	-4.8635	16.5923	0.6181	-0.2210	0.7304	0.1887
5.21	-9.7501	0.1421	-1.7130	-0.0319	-0.0095	-0.0378	27.9811	-4.8520	16.5725	0.6180	-0.2210	0.7304	0.1888
5.22	-9.7960	0.1379	-1.7438	-0.0342	-0.0156	-0.0403	28.1223	-4.9725	16.5724	0.6180	-0.2211	0.7304	0.1889
5.23	-9.7833	0.1392	-1.7275	-0.0372	-0.0220	-0.0452	28.0747	-4.7048	16.3939	0.6180	-0.2212	0.7304	0.1890
5.24	-9.7633	0.1333	-1.7154	-0.0282	-0.0232	-0.0512	28.1061	-4.6570	16.3764	0.6180	-0.2212	0.7303	0.1890
5.25	-9.7915	0.1280	-1.7248	-0.0186	-0.0220	-0.0463	27.9780	-4.8024	16.5087	0.6180	-0.2213	0.7304	0.1891
5.26	-9.7579	0.1170	-1.7147	-0.0204	-0.0279	-0.0506	28.0156	-4.8789	16.6165	0.6180	-0.2213	0.7303	0.1891
5.27	-9.7206	0.1430	-1.7043	-0.0112	-0.0294	-0.0444	27.9895	-4.7990	16.4930	0.6181	-0.2213	0.7303	0.1891
5.28	-9.7317	0.1793	-1.7093	-0.0128	-0.0254	-0.0512	28.0197	-4.6526	16.4624	0.6181	-0.2213	0.7302	0.1891
5.29	-9.7253	0.1844	-1.7137	-0.0230	-0.0282	-0.0635	27.9698	-4.7101	16.7515	0.6182	-0.2214	0.7301	0.1891
5.3	-9.7257	0.1728	-1.7148	-0.0330	-0.0189	-0.0648	27.8941	-4.7951	16.9213	0.6182	-0.2215	0.7301	0.1891
5.31	-9.7457	0.1446	-1.7218	-0.0357	-0.0184	-0.0689	27.9198	-4.6866	16.6522	0.6181	-0.2216	0.7300	0.1892
5.32	-9.7546	0.1227	-1.7009	-0.0364	-0.0198	-0.0713	27.9122	-4.6579	16.6770	0.6182	-0.2218	0.7300	0.1892
5.33	-9.7549	0.0979	-1.7082	-0.0356	-0.0224	-0.0732	28.0514	-4.7287	16.6376	0.6182	-0.2220	0.7299	0.1892
5.34	-9.7652	0.0795	-1.7124	-0.0359	-0.0310	-0.0676	27.9155	-4.7517	16.7602	0.6183	-0.2221	0.7299	0.1892
5.35	-9.7634	0.0591	-1.7087	-0.0371	-0.0253	-0.0685	27.9183	-4.4596	16.6598	0.6182	-0.2223	0.7297	0.1893
5.36	-9.7548	0.0435	-1.7065	-0.0375	-0.0323	-0.0617	27.8975	-4.6505	16.5529	0.6183	-0.2224	0.7297	0.1893
5.37	-9.7523	0.0387	-1.7007	-0.0369	-0.0323	-0.0600	27.9740	-4.6829	16.5711	0.6183	-0.2225	0.7296	0.1894
5.38	-9.7527	0.0298	-1.7134	-0.0396	-0.0322	-0.0532	28.2982	-4.6819	16.5976	0.6183	-0.2226	0.7295	0.1895
5.39	-9.7526	-0.0003	-1.7162	-0.0373	-0.0346	-0.0484	28.2543	-4.6657	16.4377	0.6184	-0.2227	0.7294	0.1896
5.4	-9.7758	0.0149	-1.6965	-0.0333	-0.0313	-0.0476	28.0247	-4.7111	16.5573	0.6184	-0.2228	0.7293	0.1897
5.41	-9.7921	0.0057	-1.7072	-0.0366	-0.0389	-0.0440	27.9736	-4.8026	16.5007	0.6185	-0.2228	0.7293	0.1898
5.42	-9.7872	-0.0050	-1.7003	-0.0152	-0.0363	-0.0374	28.1545	-4.6754	16.5613	0.6185	-0.2228	0.7291	0.1899
5.43	-9.7949	0.0147	-1.6884	-0.0108	-0.0470	-0.0360	28.5483	-4.5593	16.6741	0.6186	-0.2227	0.7291	0.1900
5.44	-9.7583	0.0225	-1.6679	-0.0011	-0.0480	-0.0316	28.4915	-4.4719	16.5451	0.6187	-0.2226	0.7290	0.1900
5.45	-9.7689	0.0365	-1.6545	0.0078	-0.0431	-0.0239	28.3754	-4.5892	16.7008	0.6188	-0.2225	0.7290	0.1900
5.46	-9.7376	0.0710	-1.6317	0.0132	-0.0558	-0.0255	27.9029	-4.6597	16.3358	0.6190	-0.2223	0.7289	0.1901
5.47	-9.7048	0.0964	-1.6039	0.0152	-0.0541	-0.0249	28.1257	-4.7684	16.4414	0.6191	-0.2221	0.7289	0.1901
5.48	-9.7073	0.1371	-1.6032	0.0151	-0.0454	-0.0240	28.0674	-4.5588	16.3718	0.6192	-0.2219	0.7288	0.1901
5.49	-9.6920	0.1714	-1.5921	0.0137	-0.0460	-0.0196	27.9380	-4.4905	16.4297	0.6193	-0.2217	0.7287	0.1901
5.5	-9.6999	0.1787	-1.5703	0.0144	-0.0381	-0.0299	28.0012	-4.6377	16.4449	0.6195	-0.2216	0.7288	0.1901
5.51	-9.6768	0.1958	-1.5956	0.0149	-0.0334	-0.0315	27.8359	-4.4385	16.4792	0.6195	-0.2214	0.7287	0.1901
5.52	-9.6306	0.2205	-1.5593	0.0141	-0.0258	-0.0357	27.9705	-4.6871	16.5660	0.6196	-0.2213	0.7288	0.1900
5.53	-9.6871	0.2444	-1.5941	0.0135	-0.0099	-0.0341	28.1541	-4.6951	16.5350	0.6195	-0.2211	0.7288	0.1899
5.54	-9.6800	0.2580	-1.5985	0.0092	-0.0125	-0.0398	28.1850	-4.5815	16.4102	0.6195	-0.2211	0.7289	0.1899
5.55	-9.6765	0.2360	-1.5839	-0.0089	-0.0111	-0.0506	28.0953	-4.6108	16.5189	0.6195	-0.2211	0.7289	0.1899
5.56	-9.7529	0.2259	-1.6248	-0.0110	0.0044	-0.0510	28.0541	-4.6463	16.5401	0.6194	-0.2211	0.7289	0.1898
5.57	-9.7862	0.2182	-1.6223	-0.0197	-0.0035	-0.0580	28.1684	-4.9403	16.5671	0.6195	-0.2212	0.7290	0.1898
5.58	-9.7556	0.1839	-1.6215	-0.0310	-0.0040	-0.0678	28.1793	-4.7757	16.4867	0.6194	-0.2213	0.7289	0.1898
5.59	-9.7596	0.1614	-1.6506	-0.0384	0.0015	-0.0642	28.2976	-4.8606	16.2366	0.6193	-0.2215	0.7290	0.1898
5.6	-9.7474	0.1183	-1.6559	-0.0359	-0.0107	-0.0599	28.1206	-4.8555	16.3578	0.6192	-0.2216	0.7289	0.1898
5.61	-9.7194	0.0991	-1.6621	-0.0464	-0.0050	-0.0556	28.1963	-4.8016	16.6182	0.6192	-0.2218	0.7290	0.1899
5.62	-9.7254	0.1108	-1.6882	-0.0427	0.0019	-0.0516	28.2583	-4.6797	16.4199	0.6191	-0.2219	0.7290	0.1900
5.63	-9.7463	0.1073	-1.6929	-0.0462	0.0003	-0.0542	28.2547	-4.8598	16.3229	0.6190	-0.2221	0.7290	0.1901
5.64	-9.7640	0.0574	-1.6967	-0.0411	0.0004	-0.0606	28.1400	-4.8496	16.4804	0.6189	-0.2223	0.7290	0.1901
5.65	-9.7903	0.0377	-1.6958	-0.0383	-0.0048	-0.0612	28.0497	-4.5539	16.5736	0.6188	-0.2224	0.7290	0.1902
5.66	-9.7840	0.0267	-1.6942	-0.0374	-0.0101	-0.0611	28.0791	-4.7734	16.4571	0.6188	-0.2226	0.7290	0.1902
5.67	-9.7866	0.0258	-1.6938	-0.0380	-0.0161	-0.0600	28.0696	-4.5608	16.5290	0.6187	-0.2227	0.7289	0.1903
5.68	-9.7838	0.0391	-1.6894	-0.0314	-0.0139	-0.0572	27.9576	-4.6393	16.4379	0.6188	-0.2228	0.7289	0.1903
5.69	-9.7586	0.0374	-1.6904	-0.0239	-0.0182	-0.0528	27.8533	-4.5605	16.4515	0.6187	-0.2229	0.7289	0.1903
5.7	-9.7369	0.0458	-1.6740	-0.0224	-0.0187	-0.0483	27.9669	-4.4346	16.4182	0.6187	-0.2229	0.7289	0.1904
5.71	-9.7354	0.0460	-1.6707	-0.0085	-0.0204	-0.0493	28.1706	-4.4921	16.6554	0.6187	-0.2229	0.7288	0.1904
5.72	-9.7160	0.0433	-1.6803	-0.0109	-0.0179	-0.0410	28.0477	-4.6993	16.4827	0.6188	-0.2229	0.7288	0.1904
5.73	-9.7121	0.0555	-1.6687	-0.0080	-0.0175	-0.0408	28.0773	-4.5861	16.4331	0.6188	-0.2229	0.7289	0.1904
5.74	-9.7418	0.0650	-1.6825	-0.0087	-0.0152	-0.0349	28.0594	-4.4577	16.4584	0.6187	-0.2228	0.7288	0.1904
5.75	-9.7458	0.0775	-1.6938	-0.0080	-0.0147	-0.0337	28.2757	-4.8669	16.3352	0.6188	-0.2228	0.7289	0.1904
5.76	-9.7378	0.0843	-1.6621	0.0012	-0.0176	-0.0316	28.0955	-4.8576	16.2326	0.6187	-0.2227	0.7289	0.1904
5.77	-9.7625	0.1035	-1.6755	0.0048	-0.0097	-0.0305	28.2660	-4.8822	16.3538	0.6188	-0.2226	0.7290	0.1904
5.78	-9.7615	0.1205	-1.6869	0.0132	-0.0157	-0.0360	28.1445	-4.8501	16.3740	0.6187	-0.2225	0.7290	0.1904
5.79	-9.7439	0.1457	-1.6723	0.0142	-0.0195	-0.0345	28.1673	-4.9004	16.2249	0.6187	-0.2224	0.7290	0.1903
5.8	-9.7507	0.1556	-1.6655	0.0069	-0.0103	-0.0353	28.1224	-4.7909	16.3336	0.6187	-0.2223	0.7291	0.1903
5.81	-9.7520	0.1543	-1.6705	0.0091	-0.0179	-0.0344	27.9666	-4.8569	16.4264	0.6187	-0.2222	0.7291	0.1902
5.82	-9.7401	0.1688	-1.6625	0.0092	-0.0206	-0.0355	27.8910	-4.7816	16.6051	0.6188	-0.2221	0.7292	0.1902
5.83	-9.7507	0.2096	-1.6798	0.0094	-0.0185	-0.0351	28.0189	-4.7832	16.1333	0.6188	-0.2220	0.7292	0.1901
5.84	-9.7562	0.2334	-1.6747	0.0021	-0.0189	-0.0359	27.9058	-4.7508	16.2074	0.6188	-0.2219	0.7292	0.1901
5.85	-9.7516	0.2236	-1.6711	-0.0149	-0.0147	-0.0497	27.8800	-4.5628	16.7106	0.6187	-0.2219	0.7291	0.1901
5.86	-9.7640	0.2007	-1.6912	-0.0200	-0.0183	-0.0535	27.7942	-4.5479	16.5713	0.6188	-0.2220	0.7292	0.1901
5.87	-9.7548	0.1754	-1.6862	-0.0271	-0.0178	-0.0613	27.9742	-4.6019	16.5322	0.6188	-0.2221	0.7291	0.1902
5.88	-9.7534	0.1658	-1.6850	-0.0316	-0.0175	-0.0527	27.9808	-4.6847	16.5499	0.6188	-0.2222	0.7291	0.1902
5.89	-9.7569	0.1495	-1.6816	-0.0372	-0.0181	-0.0552	27.9854	-4.6898	16.4382	0.6188	-0.2223	0.7291	0.1903
5.9	-9.7557	0.1263	-1.6702	-0.0368	-0.0161	-0.0566	27.8369	-4.5905	16.4476	0.6187	-0.2224	0.7290	0.1903
5.91	-9.7569	0.1155	-1.6885	-0.0365	-0.0204	-0.0525	28.0103	-4.5768	16.4472	0.6188	-0.2225	0.7290	0.1904
5.92	-9.7295	0.0920	-1.6714	-0.0372	-0.0293	-0.0509	28.2527	-4.3856	16.4338	0.6187	-0.2226	0.7289	0.1905
5.93	-9.7227	0.0732	-1.6684	-0.0357	-0.0228	-0.0489	28.3804	-4.6748	16.5735	0.6188	-0.2227	0.7289	0.1906
5.94	-9.7396	0.0686	-1.6782	-0.0385	-0.0281	-0.0519	28.4134	-4.8346	16.6721	0.6188	-0.2228	0.7288	0.1907
5.95	-9.7359	0.0614	-1.6754	-0.0359	-0.0241	-0.0479	28.2322	-4.7650	16.5419	0.6188	-0.2228	0.7288	0.1908
5.96	-9.7414	0.0568	-1.6653	-0.0277	-0.0191	-0.0494	28.2413	-4.6770	16.5708	0.6187	-0.2229	0.7287	0.1908
5.97	-9.7545	0.0580	-1.6723	-0.0321	-0.0151	-0.0456	28.1686	-5.0010	16.4211	0.6187	-0.2230	0.7287	0.1909
5.98	-9.7530	0.0672	-1.6670	-0.0319	-0.0171	-0.0415	28.2292	-4.8378	16.4394	0.6187	-0.2230	0.7287	0.1910
5.99	-9.7525	0.0667	-1.6690	-0.0181	-0.0235	-0.0426	28.3090	-4.6636	16.5033	0.6187	-0.2230	0.7286	0.1910
6	-9.7534	0.0769	-1.6631	-0.0115	-0.0228	-0.0456	28.0083	-4.6979	16.3595	0.6188	-0.2230	0.7287	0.1911
6.01	-9.7455	0.0819	-1.6705	-0.0169	-0.0273	-0.0473	28.0357	-4.8334	16.5501	0.6188	-0.2230	0.7286	0.1911
6.02	-9.7235	0.0742	-1.6608	-0.0125	-0.0258	-0.0445	27.8820	-4.6252	16.3571	0.6188	-0.2231	0.7286	0.1911
6.03	-9.7382	0.0892	-1.6605	-0.0132	-0.0222	-0.0440	28.0497	-4.5806	16.4939	0.6188	-0.2230	0.7285	0.1911
6.04	-9.7530	0.0932	-1.6529	-0.0131	-0.0164	-0.0499	27.8938	-4.7323	16.5752	0.6188	-0.2230	0.7286	0.1911
6.05	-9.7618	0.0844	-1.6660	-0.0106	-0.0147	-0.0494	27.9011	-4.6333	16.3911	0.6188	-0.2231	0.7286	0.1911
6.06	-9.7169	0.0896	-1.6616	-0.0077	-0.0230	-0.0455	28.0359	-4.5159	16.3626	0.6188	-0.2230	0.7285	0.1911
6.07	-9.7211	0.0944	-1.6463	-0.0067	-0.0155	-0.0501	27.9973	-4.4995	16.5076	0.6189	-0.2231	0.7286	0.1911
6.08	-9.7291	0.1119	-1.6767	-0.0101	-0.0162	-0.0458	28.1003	-4.6822	16.4241	0.6188	-0.2231	0.7286	0.1910
6.09	-9.6964	0.1014	-1.6274	-0.0123	-0.0171	-0.0490	28.1517	-4.6329	16.4054	0.6189	-0.2231	0.7286	0.1911
6.1	-9.7274	0.0936	-1.6472	-0.0265	-0.0052	-0.0463	28.1169	-4.5683	16.6284	0.6187	-0.2231	0.7285	0.1911
6.11	-9.7757	0.0779	-1.6663	-0.0208	-0.0101	-0.0453	27.8299	-4.7469	16.3765	0.6187	-0.2232	0.7286	0.1911
6.12	-9.7556	0.0627	-1.6594	-0.0279	-0.0235	-0.0433	28.0124	-4.6051	16.3025	0.6187	-0.2232	0.7286	0.1912
6.13	-9.7776	0.0659	-1.6634	-0.0161	-0.0252	-0.0389	28.2122	-4.6539	16.4912	0.6187	-0.2232	0.7285	0.1912
6.14	-9.7696	0.0570	-1.6914	-0.0265	-0.0241	-0.0352	28.0423	-4.8973	16.4883	0.6188	-0.2232	0.7285	0.1913
6.15	-9.7182	0.0466	-1.6921	-0.0284	-0.0208	-0.0296	28.1518	-4.7197	16.4487	0.6187	-0.2232	0.7285	0.1914
6.16	-9.7190	0.0683	-1.7001	-0.0113	-0.0188	-0.0212	28.1270	-4.8586	16.3592	0.6187	-0.2231	0.7285	0.1915
6.17	-9.7331	0.1036	-1.7082	-0.0129	-0.0184	-0.0246	28.0548	-4.8713	16.4187	0.6186	-0.2230	0.7285	0.1916
6.18	-9.7406	0.1072	-1.7147	-0.0098	-0.0185	-0.0320	28.2150	-4.7538	16.2419	0.6187	-0.2230	0.7286	0.1916
6.19	-9.7653	0.1115	-1.7092	-0.0057	-0.0165	-0.0348	28.2999	-4.7895	16.5506	0.6187	-0.2229	0.7286	0.1917
6.2	-9.7856	0.1202	-1.7204	0.0046	-0.0211	-0.0361	28.1659	-4.7496	16.5082	0.6187	-0.2228	0.7286	0.1916
6.21	-9.7845	0.1415	-1.7012	0.0021	-0.0277	-0.0392	28.2839	-4.8918	16.4729	0.6187	-0.2228	0.7286	0.1916
6.22	-9.7934	0.1766	-1.6923	0.0122	-0.0188	-0.0421	28.0996	-4.8207	16.3465	0.6188	-0.2227	0.7286	0.1915
6.23	-9.7838	0.1920	-1.6873	0.0091	-0.0322	-0.0506	27.9423	-4.5711	16.4883	0.6189	-0.2226	0.7286	0.1915
6.24	-9.7500	0.2035	-1.6644	0.0077	-0.0315	-0.0465	28.1019	-4.6885	16.7053	0.6189	-0.2225	0.7285	0.1914
6.25	-9.7425	0.2065	-1.6738	-0.0035	-0.0321	-0.0545	28.1790	-4.6902	16.5217	0.6190	-0.2226	0.7285	0.1914
6.26	-9.7376	0.2112	-1.6703	-0.0120	-0.0332	-0.0522	28.1893	-4.6810	16.4713	0.6191	-0.2226	0.7284	0.1914
6.27	-9.7359	0.1925	-1.6664	-0.0240	-0.0281	-0.0547	28.1216	-4.6975	16.4789	0.6192	-0.2226	0.7284	0.1914
6.28	-9.7267	0.1749	-1.6708	-0.0361	-0.0252	-0.0519	27.9690	-4.6718	16.4851	0.6191	-0.2227	0.7283	0.1915
6.29	-9.7260	0.1525	-1.6752	-0.0365	-0.0267	-0.0470	28.1416	-4.7203	16.3391	0.6191	-0.2228	0.7283	0.1916
6.3	-9.7102	0.1148	-1.6701	-0.0374	-0.0273	-0.0446	27.9982	-4.7938	16.6680	0.6191	-0.2229	0.7282	0.1917
6.31	-9.7451	0.1007	-1.6600	-0.0378	-0.0272	-0.0423	28.0632	-4.7611	16.5216	0.6191	-0.2229	0.7281	0.1918
6.32	-9.7939	0.1044	-1.6909	-0.0363	-0.0230	-0.0406	28.2013	-4.8765	16.2435	0.6192	-0.2230	0.7282	0.1919
6.33	-9.7664	0.0847	-1.6728	-0.0358	-0.0314	-0.0488	28.1656	-5.0086	16.4914	0.6191	-0.2230	0.7280	0.1920
6.34	-9.7785	0.0782	-1.6672	-0.0325	-0.0321	-0.0478	28.4024	-4.8006	16.4425	0.6192	-0.2231	0.7280	0.1921
6.35	-9.8071	0.0717	-1.6752	-0.0244	-0.0316	-0.0481	28.1495	-4.7661	16.1731	0.6192	-0.2231	0.7279	0.1921
6.36	-9.7604	0.0613	-1.6610	-0.0222	-0.0419	-0.0466	28.0882	-4.7729	16.3424	0.6193	-0.2232	0.7278	0.1922
6.37	-9.7536	0.0808	-1.6576	-0.0123	-0.0360	-0.0407	28.0444	-4.6379	16.4031	0.6194	-0.2232	0.7278	0.1922
6.38	-9.7535	0.1220	-1.6611	-0.0108	-0.0360	-0.0486	27.9627	-4.7890	16.3651	0.6194	-0.2231	0.7277	0.1922
6.39	-9.7442	0.1114	-1.6361	-0.0113	-0.0378	-0.0446	28.1158	-4.7657	16.5049	0.6195	-0.2231	0.7277	0.1923
6.4	-9.7543	0.1055	-1.6293	-0.0123	-0.0340	-0.0485	28.0665	-4.7916	16.4555	0.6196	-0.2231	0.7276	0.1923
6.41	-9.7511	0.1193	-1.6551	-0.0108	-0.0344	-0.0525	28.1105	-4.7237	16.5447	0.6197	-0.2231	0.7276	0.1923
6.42	-9.7304	0.1242	-1.6150	-0.0124	-0.0326	-0.0536	28.0376	-4.5977	16.5942	0.6196	-0.2231	0.7274	0.1923
6.43	-9.7535	0.1315	-1.6170	-0.0084	-0.0333	-0.0518	28.4829	-4.3765	16.4222	0.6198	-0.2232	0.7274	0.1923
6.44	-9.7547	0.1383	-1.6079	-0.0116	-0.0337	-0.0429	28.4878	-4.3154	16.3759	0.6198	-0.2231	0.7274	0.1923
6.45	-9.7556	0.1317	-1.6163	-0.0178	-0.0408	-0.0403	28.1397	-4.3908	16.4026	0.6199	-0.2231	0.7273	0.1924
6.46	-9.7487	0.1136	-1.6010	-0.0140	-0.0459	-0.0485	27.8762	-4.4518	16.2990	0.6200	-0.2231	0.7272	0.1924
6.47	-9.7469	0.1216	-1.5977	-0.0225	-0.0359	-0.0427	27.9888	-4.7549	16.3937	0.6200	-0.2231	0.7271	0.1925
6.48	-9.7484	0.1259	-1.6072	-0.0138	-0.0332	-0.0367	27.9423	-4.5601	16.6803	0.6201	-0.2231	0.7271	0.1925
6.49	-9.7433	0.1096	-1.5884	-0.0181	-0.0424	-0.0367	27.9451	-4.5595	16.4244	0.6201	-0.2230	0.7270	0.1926
6.5	-9.7544	0.1150	-1.5931	-0.0130	-0.0371	-0.0361	28.2434	-4.9620	16.2642	0.6203	-0.2230	0.7270	0.1927
6.51	-9.7552	0.1045	-1.5951	-0.0146	-0.0331	-0.0384	28.2523	-4.9490	16.1921	0.6203	-0.2230	0.7269	0.1927
6.52	-9.7584	0.1095	-1.6005	-0.0115	-0.0294	-0.0422	28.2734	-4.9898	16.0069	0.6204	-0.2230	0.7270	0.1927
6.53	-9.7609	0.1178	-1.5868	-0.0080	-0.0329	-0.0444	28.2407	-4.8592	16.3024	0.6203	-0.2229	0.7268	0.1927
6.54	-9.7602	0.1208	-1.5871	-0.0064	-0.0399	-0.0400	28.2947	-4.7738	16.2399	0.6204	-0.2229	0.7268	0.1928
6.55	-9.7556	0.1352	-1.5832	-0.0120	-0.0378	-0.0397	28.1669	-4.7936	16.0788	0.6205	-0.2228	0.7267	0.1928
6.56	-9.7419	0.1352	-1.5839	-0.0073	-0.0367	-0.0453	27.9523	-4.7928	16.1365	0.6205	-0.2228	0.7266	0.1928
6.57	-9.7321	0.1398	-1.5823	-0.0136	-0.0344	-0.0480	28.1211	-4.7810	16.2983	0.6207	-0.2228	0.7267	0.1928
6.58	-9.7307	0.1421	-1.5671	-0.0032	-0.0336	-0.0484	28.1928	-4.8070	16.2161	0.6207	-0.2228	0.7266	0.1928
6.59	-9.7430	0.1425	-1.5607	-0.0078	-0.0328	-0.0494	28.1220	-4.7286	16.1265	0.6208	-0.2228	0.7266	0.1928
6.6	-9.7473	0.1392	-1.5729	-0.0118	-0.0287	-0.0494	27.9676	-4.6156	16.2825	0.6208	-0.2228	0.7264	0.1928
6.61	-9.7324	0.1274	-1.5501	-0.0120	-0.0300	-0.0526	28.0223	-4.4796	16.2152	0.6209	-0.2228	0.7265	0.1928
6.62	-9.7613	0.1516	-1.5784	-0.0110	-0.0267	-0.0531	27.9475	-4.6146	16.1501	0.6209	-0.2228	0.7264	0.1928
6.63	-9.7161	0.1385	-1.5606	-0.0161	-0.0344	-0.0515	28.1655	-4.5322	16.1566	0.6209	-0.2228	0.7263	0.1928
6.64	-9.7279	0.1112	-1.5391	-0.0285	-0.0224	-0.0520	28.1823	-4.5352	16.1806	0.6210	-0.2229	0.7263	0.1928
6.65	-9.8012	0.1141	-1.5718	-0.0238	-0.0171	-0.0404	27.9058	-4.6149	16.1161	0.6209	-0.2229	0.7263	0.1929
6.66	-9.7899	0.0903	-1.5809	-0.0383	-0.0194	-0.0455	27.9137	-4.4748	16.3008	0.6210	-0.2230	0.7263	0.1930
6.67	-9.7599	0.0826	-1.5566	-0.0326	-0.0223	-0.0404	27.8932	-4.6299	16.3672	0.6209	-0.2230	0.7262	0.1931
6.68	-9.7575	0.0689	-1.5786	-0.0368	-0.0248	-0.0357	28.0219	-4.7133	16.2365	0.6209	-0.2231	0.7262	0.1932
6.69	-9.6877	0.0558	-1.5710	-0.0320	-0.0248	-0.0227	28.3016	-4.8545	16.2446	0.6209	-0.2231	0.7262	0.1934
6.7	-9.6886	0.0611	-1.5904	-0.0154	-0.0149	-0.0105	28.3861	-4.8882	16.0680	0.6209	-0.2230	0.7262	0.1935
6.71	-9.7320	0.0967	-1.6074	-0.0101	-0.0046	-0.0163	28.2249	-4.8644	16.0766	0.6208	-0.2229	0.7263	0.1936
6.72	-9.7448	0.1074	-1.5971	-0.0066	-0.0071	-0.0219	28.4265	-4.8952	16.0889	0.6207	-0.2228	0.7264	0.1936
6.73	-9.7633	0.1003	-1.6156	0.0072	-0.0051	-0.0332	28.4002	-4.8272	16.0515	0.6207	-0.2227	0.7264	0.1936
6.74	-9.7743	0.1141	-1.6194	0.0159	-0.0141	-0.0353	28.2547	-4.6830	16.1785	0.6206	-0.2226	0.7264	0.1935
6.75	-9.7807	0.1290	-1.6164	0.0139	-0.0202	-0.0360	28.1525	-4.9096	16.1456	0.6207	-0.2225	0.7265	0.1935
6.76	-9.7757	0.1669	-1.6027	0.0199	-0.0156	-0.0445	28.1952	-4.7123	16.0760	0.6207	-0.2224	0.7265	0.1934
6.77	-9.7607	0.2004	-1.6158	0.0349	-0.0219	-0.0413	28.1262	-4.7020	16.2722	0.6208	-0.2222	0.7266	0.1932
6.78	-9.7508	0.2106	-1.5866	0.0196	-0.0129	-0.0497	28.4062	-4.6260	16.2527	0.6208	-0.2221	0.7266	0.1931
6.79	-9.7423	0.2231	-1.6041	0.0154	-0.0175	-0.0485	28.1525	-4.4581	16.2497	0.6209	-0.2221	0.7266	0.1930
6.8	-9.7176	0.2266	-1.5832	0.0141	-0.0114	-0.0494	27.9344	-4.6602	16.2610	0.6209	-0.2220	0.7267	0.1929
6.81	-9.7336	0.2348	-1.6057	0.0026	-0.0052	-0.0503	28.0740	-4.7172	16.2504	0.6208	-0.2220	0.7267	0.1928
6.82	-9.7396	0.2274	-1.6185	-0.0106	-0.0083	-0.0505	28.2261	-4.6112	16.1746	0.6209	-0.2220	0.7268	0.1928
6.83	-9.7489	0.1758	-1.6331	-0.0151	0.0003	-0.0599	27.9209	-4.7110	16.2591	0.6208	-0.2221	0.7268	0.1927
6.84	-9.7511	0.1806	-1.6519	-0.0152	-0.0071	-0.0553	27.8157	-4.5192	16.0731	0.6208	-0.2222	0.7268	0.1927
6.85	-9.7621	0.1647	-1.6304	-0.0342	-0.0073	-0.0516	28.1181	-4.5146	16.4838	0.6206	-0.2222	0.7267	0.1927
6.86	-9.7935	0.1267	-1.6655	-0.0367	-0.0083	-0.0542	28.0850	-4.6612	16.2871	0.6206	-0.2224	0.7268	0.1928
6.87	-9.8224	0.1167	-1.6422	-0.0377	-0.0149	-0.0558	28.0510	-4.6985	16.0781	0.6206	-0.2225	0.7268	0.1928
6.88	-9.8290	0.1041	-1.6512	-0.0372	-0.0204	-0.0509	28.2310	-4.7768	16.0613	0.6206	-0.2226	0.7267	0.1929
6.89	-9.8146	0.0719	-1.6386	-0.0365	-0.0248	-0.0530	28.4604	-4.7877	16.1858	0.6206	-0.2227	0.7266	0.1930
6.9	-9.7809	0.0642	-1.6268	-0.0296	-0.0218	-0.0497	28.4618	-4.9345	16.2956	0.6206	-0.2228	0.7266	0.1930
6.91	-9.8038	0.0695	-1.6557	-0.0243	-0.0292	-0.0364	28.3214	-4.9426	16.2295	0.6207	-0.2228	0.7266	0.1931
6.92	-9.7282	0.0970	-1.6299	-0.0182	-0.0428	-0.0434	28.2028	-4.6860	16.3701	0.6207	-0.2228	0.7264	0.1931
6.93	-9.7279	0.0971	-1.6036	-0.0197	-0.0292	-0.0345	28.6397	-4.5825	16.3219	0.6208	-0.2228	0.7265	0.1932
6.94	-9.7571	0.0795	-1.6578	-0.0190	-0.0333	-0.0419	28.5710	-4.6597	16.2480	0.6208	-0.2228	0.7264	0.1933
6.95	-9.7472	0.0861	-1.5896	-0.0121	-0.0299	-0.0446	28.4701	-4.7810	16.3343	0.6209	-0.2228	0.7263	0.1933
6.96	-9.7659	0.1011	-1.6166	-0.0096	-0.0259	-0.0417	28.1425	-4.6996	16.2449	0.6209	-0.2227	0.7263	0.1933
6.97	-9.7605	0.1001	-1.6051	-0.0108	-0.0314	-0.0482	28.2528	-4.7247	16.3258	0.6209	-0.2227	0.7263	0.1933
6.98	-9.7788	0.0964	-1.6037	-0.0109	-0.0303	-0.0350	28.1747	-4.6124	16.2299	0.6210	-0.2227	0.7262	0.1934
6.99	-9.7927	0.1261	-1.5964	-0.0086	-0.0301	-0.0395	27.9183	-4.5770	16.1494	0.6210	-0.2226	0.7261	0.1934
7	-9.7789	0.1311	-1.5847	-0.0054	-0.0317	-0.0428	28.2465	-4.7067	16.3614	0.6211	-0.2226	0.7262	0.1934
7.01	-9.7859	0.1178	-1.5961	-0.0121	-0.0364	-0.0381	28.3724	-4.6542	16.3297	0.6211	-0.2226	0.7261	0.1935
7.02	-9.7654	0.1218	-1.5852	-0.0104	-0.0411	-0.0403	28.2915	-4.7405	16.3009	0.6212	-0.2225	0.7261	0.1935
7.03	-9.7533	0.1355	-1.5828	-0.0115	-0.0436	-0.0354	28.0488	-4.8814	16.1784	0.6212	-0.2225	0.7259	0.1935
7.04	-9.7719	0.1202	-1.5763	-0.0103	-0.0385	-0.0361	27.9642	-4.7191	16.1216	0.6214	-0.2224	0.7259	0.1936
7.05	-9.7726	0.1336	-1.5711	-0.0115	-0.0506	-0.0356	28.0136	-4.8496	16.2087	0.6215	-0.2223	0.7258	0.1937
7.06	-9.7458	0.1362	-1.5551	-0.0102	-0.0469	-0.0386	28.2348	-4.8450	16.2802	0.6215	-0.2223	0.7257	0.1937
7.07	-9.7479	0.1161	-1.5524	-0.0114	-0.0335	-0.0375	28.4684	-4.8850	16.2978	0.6217	-0.2223	0.7258	0.1938
7.08	-9.7456	0.1347	-1.5621	-0.0108	-0.0407	-0.0374	28.4010	-4.6431	16.0206	0.6217	-0.2222	0.7256	0.1938
7.09	-9.7257	0.1127	-1.5305	-0.0112	-0.0407	-0.0371	28.2514	-4.8715	16.2295	0.6218	-0.2222	0.7256	0.1939
7.1	-9.7409	0.1254	-1.5462	-0.0098	-0.0307	-0.0364	28.2534	-5.0744	16.1003	0.6218	-0.2221	0.7255	0.1939
7.11	-9.7275	0.1223	-1.5381	-0.0105	-0.0368	-0.0437	28.2352	-4.6861	16.1155	0.6219	-0.2221	0.7255	0.1939
7.12	-9.7125	0.1243	-1.5305	-0.0091	-0.0293	-0.0491	28.1243	-4.6451	16.0831	0.6219	-0.2221	0.7254	0.1939
7.13	-9.7283	0.1209	-1.5445	-0.0085	-0.0241	-0.0475	28.2492	-4.5563	16.1847	0.6219	-0.2220	0.7254	0.1939
7.14	-9.7549	0.1123	-1.5224	-0.0101	-0.0252	-0.0429	28.2690	-4.7063	16.2071	0.6220	-0.2220	0.7254	0.1939
7.15	-9.7567	0.1161	-1.5476	-0.0105	-0.0261	-0.0435	28.0836	-4.7996	16.1909	0.6220	-0.2220	0.7254	0.1940
7.16	-9.7282	0.1141	-1.5253	-0.0093	-0.0206	-0.0510	28.1187	-4.6997	16.2112	0.6221	-0.2220	0.7254	0.1939
7.17	-9.7527	0.1367	-1.5489	-0.0131	-0.0144	-0.0491	28.2673	-4.6654	16.1179	0.6220	-0.2220	0.7253	0.1939
7.18	-9.7418	0.1519	-1.5423	-0.0110	-0.0167	-0.0430	28.1451	-4.7974	15.9658	0.6220	-0.2220	0.7254	0.1939
7.19	-9.7237	0.1161	-1.5162	-0.0198	-0.0126	-0.0474	28.1480	-4.7507	16.1037	0.6220	-0.2221	0.7254	0.1940
7.2	-9.8148	0.1102	-1.5544	-0.0180	-0.0078	-0.0477	27.9648	-4.8020	16.3206	0.6220	-0.2221	0.7254	0.1940
7.21	-9.8355	0.1036	-1.5524	-0.0299	-0.0193	-0.0507	27.9983	-4.5639	16.1772	0.6220	-0.2222	0.7253	0.1940
7.22	-9.7600	0.0801	-1.5408	-0.0344	-0.0296	-0.0454	28.0941	-4.6189	16.1996	0.6220	-0.2223	0.7253	0.1941
7.23	-9.7548	0.0818	-1.5532	-0.0245	-0.0233	-0.0374	28.2614	-4.7411	16.4054	0.6220	-0.2223	0.7253	0.1942
7.24	-9.7234	0.0714	-1.5765	-0.0302	-0.0214	-0.0330	28.1684	-4.8581	16.2783	0.6219	-0.2223	0.7252	0.1943
7.25	-9.6762	0.0826	-1.5552	-0.0183	-0.0208	-0.0284	28.0543	-4.8572	16.3245	0.6220	-0.2223	0.7253	0.1944
7.26	-9.7045	0.1117	-1.5693	-0.0139	-0.0076	-0.0311	28.3785	-5.0003	16.2109	0.6219	-0.2222	0.7253	0.1944
7.27	-9.7432	0.1207	-1.5815	-0.0124	-0.0069	-0.0317	28.2478	-4.8217	16.0546	0.6219	-0.2222	0.7254	0.1945
7.28	-9.7563	0.1089	-1.5852	-0.0079	-0.0047	-0.0364	28.2632	-5.0662	16.2358	0.6218	-0.2221	0.7254	0.1944
7.29	-9.7869	0.1189	-1.5909	-0.0011	-0.0072	-0.0344	28.2146	-4.9782	16.1920	0.6218	-0.2221	0.7255	0.1944
7.3	-9.7971	0.1389	-1.5894	0.0047	-0.0131	-0.0437	28.1529	-4.6184	16.3959	0.6218	-0.2220	0.7255	0.1944
7.31	-9.7722	0.1487	-1.5814	0.0046	-0.0176	-0.0493	28.1549	-4.7864	16.3049	0.6217	-0.2220	0.7255	0.1943
7.32	-9.7633	0.1698	-1.5745	0.0056	-0.0165	-0.0455	28.1862	-4.8476	16.1788	0.6218	-0.2220	0.7256	0.1943
7.33	-9.7523	0.1805	-1.5540	-0.0020	-0.0238	-0.0425	28.2429	-4.7486	16.2151	0.6218	-0.2219	0.7255	0.1942
7.34	-9.7510	0.1801	-1.5710	-0.0074	-0.0200	-0.0443	28.1091	-4.7760	16.1757	0.6219	-0.2219	0.7256	0.1942
7.35	-9.7353	0.1760	-1.5757	-0.0086	-0.0066	-0.0483	28.2930	-4.7662	16.2995	0.6218	-0.2219	0.7255	0.1942
7.36	-9.7380	0.1731	-1.5791	-0.0122	-0.0106	-0.0444	27.9845	-4.7611	16.3991	0.6218	-0.2219	0.7256	0.1942
7.37	-9.7674	0.1648	-1.5848	-0.0099	-0.0063	-0.0417	28.1924	-4.6266	16.1950	0.6217	-0.2219	0.7256	0.1942
7.38	-9.7699	0.1543	-1.5890	-0.0176	-0.0156	-0.0394	28.0408	-4.7913	16.2001	0.6217	-0.2219	0.7256	0.1942
7.39	-9.7526	0.1362	-1.5878	-0.0233	-0.0150	-0.0432	28.2292	-4.7367	16.2847	0.6217	-0.2219	0.7256	0.1943
7.4	-9.7516	0.1265	-1.5840	-0.0156	-0.0054	-0.0438	28.0264	-4.8311	16.1873	0.6216	-0.2219	0.7256	0.1943
7.41	-9.7508	0.1280	-1.5813	-0.0166	-0.0129	-0.0405	27.9092	-4.8137	16.1848	0.6216	-0.2220	0.7257	0.1943
7.42	-9.7975	0.1176	-1.5954	-0.0154	-0.0116	-0.0378	28.4654	-4.6895	16.2870	0.6215	-0.2219	0.7256	0.1943
7.43	-9.7881	0.1108	-1.5839	-0.0106	-0.0210	-0.0458	28.6664	-4.4153	16.5051	0.6216	-0.2220	0.7257	0.1943
7.44	-9.7704	0.0984	-1.5633	-0.0103	-0.0182	-0.0448	28.6693	-4.3440	16.2848	0.6216	-0.2219	0.7257	0.1943
7.45	-9.8073	0.1009	-1.5889	-0.0090	-0.0182	-0.0347	28.5876	-4.7655	16.1323	0.6216	-0.2219	0.7257	0.1944
7.46	-9.7589	0.1053	-1.5610	-0.0031	-0.0288	-0.0362	28.3123	-4.6704	16.2998	0.6216	-0.2218	0.7257	0.1944
7.47	-9.7362	0.1494	-1.5686	0.0081	-0.0246	-0.0341	28.3132	-4.8799	16.1309	0.6217	-0.2217	0.7257	0.1943
7.48	-9.7528	0.1906	-1.5627	0.0062	-0.0220	-0.0387	28.1216	-4.7894	16.1609	0.6217	-0.2216	0.7257	0.1943
7.49	-9.7695	0.1821	-1.5706	-0.0030	-0.0244	-0.0436	28.1313	-4.8250	16.2110	0.6217	-0.2216	0.7256	0.1943
7.5	-9.7658	0.1742	-1.5819	-0.0078	-0.0239	-0.0427	28.2909	-5.0008	16.1046	0.6218	-0.2216	0.7257	0.1943
7.51	-9.7555	0.1700	-1.5686	-0.0059	-0.0198	-0.0457	28.2512	-4.8731	16.3872	0.6218	-0.2216	0.7257	0.1943
7.52	-9.7826	0.1727	-1.5842	-0.0059	-0.0239	-0.0440	28.2168	-4.8744	16.1221	0.6218	-0.2216	0.7257	0.1943
7.53	-9.7664	0.1730	-1.5701	-0.0121	-0.0205	-0.0470	28.0453	-4.7652	16.0755	0.6218	-0.2215	0.7256	0.1942
7.54	-9.7646	0.1782	-1.5557	-0.0050	-0.0156	-0.0390	28.1104	-4.4353	16.2663	0.6218	-0.2215	0.7257	0.1942
7.55	-9.7901	0.1745	-1.5664	-0.0134	-0.0252	-0.0394	28.0434	-4.5764	16.2311	0.6218	-0.2215	0.7256	0.1943
7.56	-9.7621	0.1653	-1.5490	-0.0143	-0.0321	-0.0493	28.1957	-4.6751	16.1789	0.6218	-0.2215	0.7256	0.1943
7.57	-9.7638	0.1679	-1.5480	-0.0252	-0.0248	-0.0463	28.0376	-4.7009	16.1971	0.6219	-0.2215	0.7256	0.1944
7.58	-9.7615	0.1735	-1.5482	-0.0325	-0.0294	-0.0413	28.0188	-4.5181	16.0665	0.6219	-0.2216	0.7255	0.1944
7.59	-9.7548	0.1579	-1.5476	-0.0208	-0.0252	-0.0407	28.1075	-4.5438	16.3515	0.6219	-0.2216	0.7255	0.1945
7.6	-9.7599	0.1396	-1.5488	-0.0187	-0.0225	-0.0422	28.0766	-4.7961	16.0524	0.6219	-0.2216	0.7254	0.1945
7.61	-9.7522	0.1409	-1.5398	-0.0204	-0.0294	-0.0436	27.9523	-4.6552	16.1695	0.6219	-0.2216	0.7254	0.1946
7.62	-9.7482	0.1269	-1.5458	-0.0105	-0.0239	-0.0368	28.0813	-4.7202	16.2970	0.6220	-0.2216	0.7254	0.1946
7.63	-9.7440	0.1248	-1.5370	-0.0119	-0.0254	-0.0379	28.2843	-4.8689	16.0738	0.6220	-0.2215	0.7254	0.1947
7.64	-9.7542	0.1318	-1.5388	-0.0108	-0.0235	-0.0380	28.2424	-4.9352	16.1296	0.6220	-0.2215	0.7254	0.1947
7.65	-9.7534	0.1391	-1.5469	-0.0082	-0.0184	-0.0407	28.2702	-4.8638	16.0899	0.6220	-0.2215	0.7254	0.1947
7.66	-9.7422	0.1494	-1.5458	-0.0042	-0.0188	-0.0345	28.2443	-5.0070	16.1369	0.6220	-0.2214	0.7254	0.1947
7.67	-9.7480	0.1670	-1.5460	-0.0096	-0.0177	-0.0398	28.2741	-4.7538	16.0026	0.6219	-0.2214	0.7253	0.1947
7.68	-9.7701	0.1731	-1.5374	-0.0110	-0.0215	-0.0395	28.2305	-4.8800	16.0228	0.6220	-0.2214	0.7254	0.1947
7.69	-9.7807	0.1730	-1.5431	-0.0074	-0.0200	-0.0459	28.4790	-4.6873	15.9974	0.6220	-0.2213	0.7254	0.1947
7.7	-9.7797	0.1698	-1.5297	-0.0045	-0.0210	-0.0471	28.2628	-4.7252	16.0755	0.6220	-0.2213	0.7254	0.1947
7.71	-9.7708	0.1640	-1.5521	-0.0124	-0.0210	-0.0443	28.2828	-4.9148	16.2325	0.6220	-0.2213	0.7254	0.1947
7.72	-9.7483	0.1564	-1.5291	-0.0092	-0.0232	-0.0486	28.1776	-4.7738	16.0283	0.6221	-0.2213	0.7254	0.1947
7.73	-9.7615	0.1846	-1.5464	-0.0093	-0.0193	-0.0499	28.1025	-4.4729	15.8331	0.6221	-0.2213	0.7254	0.1947
7.74	-9.7442	0.1804	-1.5439	-0.0127	-0.0193	-0.0469	28.1993	-4.5882	16.1331	0.6220	-0.2213	0.7253	0.1947
7.75	-9.7340	0.1615	-1.5033	-0.0161	-0.0160	-0.0509	28.1641	-4.7260	16.0646	0.6221	-0.2214	0.7254	0.1947
7.76	-9.8147	0.1560	-1.5323	-0.0219	-0.0071	-0.0517	28.3028	-4.6103	16.1868	0.6220	-0.2214	0.7253	0.1947
7.77	-9.8608	0.1410	-1.5442	-0.0263	-0.0142	-0.0505	28.1993	-4.6558	16.1065	0.6221	-0.2215	0.7254	0.1947
7.78	-9.8004	0.1067	-1.5201	-0.0256	-0.0251	-0.0564	28.0391	-4.7060	16.2069	0.6220	-0.2216	0.7252	0.1947
7.79	-9.7801	0.1029	-1.5337	-0.0239	-0.0191	-0.0408	28.2684	-4.4376	16.2713	0.6221	-0.2216	0.7253	0.1948
7.8	-9.7313	0.0906	-1.5399	-0.0200	-0.0315	-0.0354	28.1503	-4.7707	15.9798	0.6221	-0.2216	0.7252	0.1948
7.81	-9.6764	0.1006	-1.5199	-0.0141	-0.0275	-0.0360	28.0368	-4.7589	16.0875	0.6221	-0.2216	0.7251	0.1949
7.82	-9.6852	0.1376	-1.5528	-0.0118	-0.0161	-0.0355	28.2923	-4.8026	16.1533	0.6221	-0.2216	0.7253	0.1949
7.83	-9.7140	0.1496	-1.5503	-0.0087	-0.0080	-0.0359	28.2738	-4.8413	15.8535	0.6220	-0.2215	0.7252	0.1949
7.84	-9.7291	0.1420	-1.5602	-0.0104	-0.0004	-0.0441	28.3949	-4.7373	15.9575	0.6220	-0.2215	0.7253	0.1949
7.85	-9.7595	0.1463	-1.5581	-0.0078	-0.0051	-0.0484	28.2354	-4.8640	16.0418	0.6219	-0.2215	0.7253	0.1949
7.86	-9.7887	0.1561	-1.5594	-0.0009	-0.0020	-0.0472	28.2650	-4.8838	15.7862	0.6219	-0.2215	0.7254	0.1948
7.87	-9.7885	0.1602	-1.5667	0.0036	-0.0038	-0.0494	28.2560	-4.9644	16.0141	0.6219	-0.2215	0.7254	0.1948
7.88	-9.7791	0.1696	-1.5561	0.0012	-0.0062	-0.0534	28.2514	-4.9624	16.0819	0.6218	-0.2215	0.7255	0.1947
7.89	-9.7726	0.1675	-1.5601	0.0004	-0.0047	-0.0536	28.2725	-4.7377	16.2241	0.6218	-0.2215	0.7255	0.1946
7.9	-9.7570	0.1646	-1.5626	-0.0078	-0.0180	-0.0504	28.2277	-4.8129	16.0466	0.6218	-0.2215	0.7255	0.1945
7.91	-9.7566	0.1817	-1.5772	-0.0093	-0.0022	-0.0519	28.1281	-4.6461	16.1942	0.6218	-0.2216	0.7256	0.1945
7.92	-9.7561	0.1702	-1.5792	-0.0211	-0.0080	-0.0535	28.3336	-4.5620	16.1794	0.6217	-0.2216	0.7255	0.1945
7.93	-9.7721	0.1685	-1.5897	-0.0291	-0.0100	-0.0550	28.6051	-4.6187	16.3291	0.6218	-0.2217	0.7256	0.1945
7.94	-9.7826	0.1484	-1.5853	-0.0313	-0.0081	-0.0475	28.5703	-4.5600	16.2271	0.6217	-0.2218	0.7256	0.1946
7.95	-9.7951	0.1318	-1.5859	-0.0338	-0.0096	-0.0453	28.3469	-4.6823	16.3147	0.6216	-0.2219	0.7256	0.1947
7.96	-9.7726	0.1081	-1.5997	-0.0336	-0.0174	-0.0487	28.1330	-4.6561	16.3090	0.6216	-0.2219	0.7255	0.1947
7.97	-9.7415	0.0984	-1.5776	-0.0373	-0.0176	-0.0464	28.1189	-4.6442	16.0467	0.6216	-0.2220	0.7255	0.1948
7.98	-9.7646	0.1022	-1.5784	-0.0376	-0.0167	-0.0363	28.3958	-4.7160	16.1129	0.6216	-0.2221	0.7255	0.1949
7.99	-9.8118	0.1022	-1.5775	-0.0292	-0.0225	-0.0399	28.2197	-4.6599	16.0866	0.6215	-0.2221	0.7254	0.1950
8	-9.7771	0.0856	-1.5671	-0.0193	-0.0249	-0.0451	28.3989	-4.8260	16.0917	0.6216	-0.2221	0.7255	0.1951
8.01	-9.7567	0.0757	-1.5473	-0.0122	-0.0262	-0.0398	28.4112	-4.7042	15.9655	0.6216	-0.2221	0.7254	0.1951
8.02	-9.7874	0.0964	-1.5538	-0.0138	-0.0179	-0.0381	28.5683	-4.7370	16.0407	0.6216	-0.2221	0.7255	0.1951
8.03	-9.7445	0.1053	-1.5507	-0.0058	-0.0314	-0.0379	28.6580	-4.8844	15.8867	0.6216	-0.2220	0.7254	0.1951
8.04	-9.7355	0.1479	-1.5456	0.0035	-0.0263	-0.0349	28.3102	-4.8599	15.9431	0.6217	-0.2219	0.7254	0.1951
8.05	-9.7567	0.1784	-1.5554	0.0041	-0.0132	-0.0373	28.2689	-4.8655	16.0538	0.6217	-0.2219	0.7254	0.1951
8.06	-9.7623	0.1587	-1.5491	-0.0110	-0.0219	-0.0432	28.4697	-4.8692	16.2165	0.6216	-0.2218	0.7254	0.1951
8.07	-9.7947	0.1528	-1.5569	0.0025	-0.0138	-0.0456	28.3027	-4.8491	16.0570	0.6217	-0.2218	0.7255	0.1951
8.08	-9.7832	0.1558	-1.5663	-0.0066	-0.0219	-0.0467	28.2599	-4.9102	16.0158	0.6217	-0.2218	0.7254	0.1950
8.09	-9.7830	0.1450	-1.5459	-0.0037	-0.0208	-0.0455	28.4468	-4.9448	15.9300	0.6218	-0.2218	0.7255	0.1950
8.1	-9.7968	0.1554	-1.5487	-0.0069	-0.0200	-0.0432	28.3602	-4.6410	15.9767	0.6217	-0.2217	0.7254	0.1950
8.11	-9.7963	0.1539	-1.5421	-0.0088	-0.0290	-0.0380	28.0815	-4.7347	16.2583	0.6218	-0.2217	0.7254	0.1951
8.12	-9.7918	0.1481	-1.5416	-0.0116	-0.0277	-0.0391	28.1282	-4.7822	16.1058	0.6218	-0.2217	0.7254	0.1951
8.13	-9.7799	0.1451	-1.5254	-0.0110	-0.0316	-0.0382	28.1786	-4.7897	16.0791	0.6218	-0.2216	0.7253	0.1951
8.14	-9.7833	0.1415	-1.5144	-0.0047	-0.0293	-0.0425	28.1689	-4.7510	16.2963	0.6219	-0.2216	0.7253	0.1951
8.15	-9.7796	0.1393	-1.5234	-0.0128	-0.0313	-0.0353	28.0107	-4.7082	16.1396	0.6219	-0.2215	0.7253	0.1952
8.16	-9.7562	0.1366	-1.5122	-0.0102	-0.0262	-0.0360	28.0203	-4.8076	16.0414	0.6220	-0.2215	0.7253	0.1952
8.17	-9.7542	0.1384	-1.5151	-0.0129	-0.0253	-0.0357	28.1908	-4.7648	16.2433	0.6219	-0.2214	0.7252	0.1952
8.18	-9.7560	0.1454	-1.5064	-0.0073	-0.0280	-0.0356	28.1480	-4.7801	15.9875	0.6220	-0.2214	0.7252	0.1953
8.19	-9.7520	0.1465	-1.4984	-0.0092	-0.0267	-0.0359	28.3521	-4.7934	15.8108	0.6221	-0.2213	0.7252	0.1953
8.2	-9.7536	0.1648	-1.5101	-0.0118	-0.0240	-0.0351	28.3036	-4.7061	15.9584	0.6221	-0.2213	0.7252	0.1953
8.21	-9.7509	0.1756	-1.4999	-0.0114	-0.0251	-0.0339	28.5821	-4.6737	15.8827	0.6221	-0.2212	0.7252	0.1954
8.22	-9.7506	0.1890	-1.4865	-0.0118	-0.0184	-0.0362	28.3085	-4.8317	15.9258	0.6221	-0.2212	0.7252	0.1954
8.23	-9.7607	0.1983	-1.4990	-0.0109	-0.0199	-0.0340	28.3081	-4.8914	15.9311	0.6221	-0.2212	0.7252	0.1955
8.24	-9.7436	0.2055	-1.4913	-0.0208	-0.0195	-0.0382	28.2825	-4.7757	16.1506	0.6220	-0.2211	0.7251	0.1955
8.25	-9.7349	0.2018	-1.4995	-0.0182	-0.0206	-0.0355	28.1413	-4.7753	15.9221	0.6221	-0.2212	0.7252	0.1956
8.26	-9.7370	0.2070	-1.5135	-0.0278	-0.0172	-0.0367	28.4586	-4.9356	15.9863	0.6220	-0.2212	0.7251	0.1957
8.27	-9.7483	0.2009	-1.5247	-0.0152	-0.0093	-0.0388	28.1394	-4.9653	15.9293	0.6221	-0.2212	0.7252	0.1957
8.28	-9.7519	0.1943	-1.5147	-0.0213	-0.0058	-0.0453	28.2770	-4.8777	16.0100	0.6219	-0.2212	0.7252	0.1957
8.29	-9.8033	0.1840	-1.5218	-0.0206	-0.0093	-0.0470	28.2205	-4.7103	15.9731	0.6219	-0.2212	0.7252	0.1957
8.3	-9.8235	0.1808	-1.5475	-0.0213	-0.0076	-0.0465	28.1540	-4.7385	15.9019	0.6219	-0.2213	0.7252	0.1958
8.31	-9.7749	0.1657	-1.5355	-0.0200	-0.0199	-0.0495	28.1470	-4.7984	15.8328	0.6219	-0.2213	0.7252	0.1958
8.32	-9.7709	0.1798	-1.5208	-0.0225	-0.0134	-0.0458	28.3901	-4.7719	15.8182	0.6219	-0.2214	0.7253	0.1958
8.33	-9.7818	0.1937	-1.5372	-0.0137	-0.0132	-0.0509	28.4245	-4.9079	15.8022	0.6219	-0.2214	0.7252	0.1958
8.34	-9.7411	0.1712	-1.5059	-0.0172	-0.0200	-0.0504	28.2601	-4.5816	15.9245	0.6219	-0.2214	0.7252	0.1958
8.35	-9.7898	0.1484	-1.5042	-0.0192	-0.0030	-0.0524	28.1700	-4.6973	16.1511	0.6218	-0.2215	0.7252	0.1958
8.36	-9.8686	0.1453	-1.5360	-0.0145	-0.0095	-0.0523	28.1520	-4.9002	15.9177	0.6218	-0.2215	0.7252	0.1958
8.37	-9.7963	0.1107	-1.5043	-0.0124	-0.0301	-0.0541	28.3726	-4.8606	15.7860	0.6219	-0.2216	0.7252	0.1958
8.38	-9.7657	0.1018	-1.5148	-0.0148	-0.0258	-0.0391	28.5256	-4.8518	15.8972	0.6219	-0.2216	0.7251	0.1958
8.39	-9.7273	0.1005	-1.5392	-0.0164	-0.0283	-0.0360	28.5338	-4.9749	15.9522	0.6219	-0.2215	0.7251	0.1959
8.4	-9.6679	0.1088	-1.5106	-0.0115	-0.0155	-0.0355	28.3523	-5.1828	15.9851	0.6219	-0.2215	0.7251	0.1959
8.41	-9.6874	0.1623	-1.5228	-0.0073	-0.0065	-0.0351	28.3900	-5.0638	15.9242	0.6219	-0.2215	0.7252	0.1959
8.42	-9.7160	0.1742	-1.5231	-0.0036	-0.0109	-0.0374	28.5184	-4.9469	16.2230	0.6218	-0.2214	0.7251	0.1959
8.43	-9.7388	0.1640	-1.5323	-0.0031	0.0019	-0.0432	28.6567	-4.8469	16.1808	0.6218	-0.2214	0.7253	0.1959
8.44	-9.7720	0.1601	-1.5490	-0.0010	-0.0021	-0.0486	28.6796	-4.8652	16.1992	0.6218	-0.2214	0.7253	0.1958
8.45	-9.7576	0.1617	-1.5374	0.0017	0.0012	-0.0542	28.3840	-4.9527	16.1504	0.6217	-0.2214	0.7254	0.1957
8.46	-9.7702	0.1840	-1.5369	-0.0061	-0.0110	-0.0546	28.1977	-4.7928	15.8076	0.6217	-0.2215	0.7254	0.1956
8.47	-9.7742	0.1810	-1.5493	-0.0090	-0.0128	-0.0526	28.1986	-4.7047	15.9182	0.6217	-0.2215	0.7254	0.1956
8.48	-9.7546	0.1874	-1.5429	-0.0135	-0.0109	-0.0582	28.3505	-4.6503	16.2463	0.6217	-0.2215	0.7254	0.1956
8.49	-9.7532	0.2149	-1.5321	-0.0104	-0.0012	-0.0495	28.3445	-4.4919	16.1003	0.6216	-0.2216	0.7254	0.1955
8.5	-9.7574	0.1624	-1.5736	-0.0281	0.0019	-0.0503	28.3638	-4.5287	15.9823	0.6216	-0.2217	0.7255	0.1956
8.51	-9.7526	0.1666	-1.5430	-0.0380	-0.0094	-0.0479	28.1704	-4.7848	16.0669	0.6215	-0.2218	0.7254	0.1956
8.52	-9.7640	0.1562	-1.5619	-0.0369	-0.0033	-0.0518	28.2147	-4.4971	16.1211	0.6215	-0.2219	0.7255	0.1957
8.53	-9.7736	0.1145	-1.5727	-0.0378	-0.0015	-0.0478	27.9410	-4.6228	16.0880	0.6213	-0.2220	0.7254	0.1957
8.54	-9.7820	0.1128	-1.5648	-0.0346	0.0025	-0.0440	28.1908	-4.6786	16.2417	0.6213	-0.2221	0.7255	0.1958
8.55	-9.7890	0.0987	-1.5904	-0.0330	-0.0046	-0.0397	28.4094	-4.5875	16.1298	0.6212	-0.2222	0.7255	0.1959
8.56	-9.7336	0.0855	-1.5836	-0.0351	-0.0048	-0.0413	28.3091	-4.8818	16.0990	0.6211	-0.2222	0.7255	0.1960
8.57	-9.7635	0.0993	-1.5710	-0.0239	-0.0088	-0.0423	28.4719	-4.9561	16.0314	0.6211	-0.2223	0.7256	0.1961
8.58	-9.8445	0.1072	-1.5967	-0.0242	-0.0125	-0.0397	28.2769	-4.9479	15.9906	0.6210	-0.2223	0.7255	0.1961
8.59	-9.8219	0.1002	-1.5802	-0.0161	-0.0217	-0.0493	28.4660	-4.7437	16.1038	0.6211	-0.2224	0.7256	0.1961
8.6	-9.7912	0.0855	-1.5656	-0.0101	-0.0235	-0.0470	28.3237	-4.8943	16.1107	0.6211	-0.2223	0.7254	0.1961
8.61	-9.8001	0.0967	-1.5685	-0.0126	-0.0240	-0.0391	28.3806	-4.8186	15.8961	0.6211	-0.2223	0.7255	0.1961
8.62	-9.7589	0.1081	-1.5677	-0.0095	-0.0367	-0.0397	28.4509	-4.6319	16.0997	0.6212	-0.2223	0.7254	0.1962
8.63	-9.7634	0.1569	-1.5541	0.0041	-0.0250	-0.0340	28.4500	-4.7782	16.1251	0.6212	-0.2222	0.7254	0.1962
8.64	-9.7609	0.1820	-1.5443	-0.0032	-0.0312	-0.0412	28.3219	-4.7913	16.0778	0.6213	-0.2221	0.7254	0.1962
8.65	-9.7882	0.1688	-1.5513	-0.0118	-0.0210	-0.0426	28.2610	-4.7352	16.1769	0.6213	-0.2221	0.7254	0.1962
8.66	-9.7779	0.1473	-1.5571	-0.0149	-0.0253	-0.0546	28.2047	-4.6846	16.1367	0.6214	-0.2222	0.7254	0.1962
8.67	-9.7533	0.1526	-1.5446	-0.0139	-0.0288	-0.0527	28.1415	-4.6158	16.1037	0.6213	-0.2222	0.7252	0.1962
8.68	-9.7844	0.1588	-1.5451	-0.0111	-0.0242	-0.0519	28.4086	-4.4831	16.0712	0.6214	-0.2222	0.7253	0.1962
8.69	-9.7901	0.1630	-1.5440	-0.0109	-0.0276	-0.0508	28.2983	-4.6962	16.0410	0.6215	-0.2222	0.7252	0.1962
8.7	-9.8024	0.1567	-1.5388	-0.0126	-0.0343	-0.0470	28.1780	-4.6649	16.1253	0.6215	-0.2222	0.7252	0.1962
8.71	-9.8283	0.1528	-1.5541	-0.0185	-0.0377	-0.0509	28.1622	-4.8075	16.2001	0.6216	-0.2222	0.7250	0.1962
8.72	-9.7989	0.1477	-1.5404	-0.0203	-0.0405	-0.0553	28.1764	-4.8493	16.0643	0.6217	-0.2223	0.7250	0.1962
8.73	-9.7708	0.1330	-1.5159	-0.0193	-0.0476	-0.0526	28.1693	-4.3533	16.1971	0.6218	-0.2223	0.7249	0.1963
8.74	-9.7750	0.1468	-1.5338	-0.0136	-0.0471	-0.0470	28.1640	-4.6749	16.0497	0.6219	-0.2223	0.7247	0.1963
8.75	-9.7478	0.1533	-1.5092	-0.0124	-0.0433	-0.0451	28.3732	-5.1162	15.7725	0.6221	-0.2223	0.7247	0.1963
8.76	-9.7197	0.1464	-1.4898	-0.0130	-0.0457	-0.0422	28.3439	-4.6971	16.0581	0.6221	-0.2223	0.7246	0.1964
8.77	-9.7261	0.1599	-1.4958	-0.0127	-0.0447	-0.0446	28.3470	-4.9652	15.8748	0.6223	-0.2223	0.7245	0.1964
8.78	-9.7273	0.1722	-1.4781	-0.0061	-0.0370	-0.0429	28.3511	-4.8535	15.7200	0.6223	-0.2222	0.7244	0.1964
8.79	-9.7377	0.1826	-1.4720	-0.0084	-0.0304	-0.0393	28.4526	-4.7774	15.8698	0.6224	-0.2222	0.7244	0.1965
8.8	-9.7345	0.1818	-1.4678	-0.0079	-0.0311	-0.0495	28.4431	-4.9122	16.0033	0.6224	-0.2222	0.7243	0.1965
8.81	-9.7343	0.1884	-1.4588	-0.0019	-0.0225	-0.0469	28.3694	-4.7696	16.0183	0.6224	-0.2221	0.7243	0.1964
8.82	-9.7454	0.2034	-1.4680	-0.0118	-0.0232	-0.0416	28.2296	-4.7731	16.0274	0.6225	-0.2221	0.7243	0.1964
8.83	-9.7476	0.1931	-1.4724	-0.0162	-0.0197	-0.0346	28.2959	-4.7938	16.1249	0.6225	-0.2221	0.7243	0.1965
8.84	-9.7547	0.2007	-1.4814	-0.0229	-0.0196	-0.0425	28.4036	-4.7183	15.8872	0.6225	-0.2221	0.7243	0.1965
8.85	-9.7536	0.1954	-1.4782	-0.0284	-0.0166	-0.0420	28.1344	-4.5979	16.0296	0.6224	-0.2222	0.7242	0.1966
8.86	-9.7533	0.1810	-1.4795	-0.0302	-0.0092	-0.0450	28.3213	-4.5849	16.1075	0.6224	-0.2222	0.7243	0.1967
8.87	-9.7563	0.1855	-1.4877	-0.0327	-0.0096	-0.0481	28.1585	-4.6573	15.9543	0.6224	-0.2223	0.7242	0.1967
8.88	-9.7555	0.1729	-1.4915	-0.0393	-0.0156	-0.0488	28.3123	-4.7015	16.1348	0.6223	-0.2224	0.7242	0.1968
8.89	-9.7614	0.1658	-1.5078	-0.0396	-0.0172	-0.0510	28.4732	-4.6834	15.9844	0.6223	-0.2225	0.7242	0.1969
8.9	-9.7535	0.1489	-1.4957	-0.0408	-0.0143	-0.0485	28.2817	-4.8176	15.9243	0.6223	-0.2226	0.7241	0.1970
8.91	-9.7539	0.1435	-1.5093	-0.0358	-0.0130	-0.0462	28.2338	-4.7195	16.1150	0.6223	-0.2227	0.7241	0.1971
8.92	-9.7545	0.1383	-1.4883	-0.0381	-0.0091	-0.0443	28.4178	-4.5803	16.0986	0.6221	-0.2228	0.7241	0.1972
8.93	-9.7596	0.1250	-1.5152	-0.0367	-0.0072	-0.0447	28.6909	-4.7238	16.1160	0.6222	-0.2229	0.7241	0.1973
8.94	-9.7512	0.1147	-1.4949	-0.0384	-0.0118	-0.0460	28.5216	-4.7968	16.1015	0.6221	-0.2230	0.7241	0.1973
8.95	-9.7530	0.1083	-1.4882	-0.0322	-0.0057	-0.0391	28.5253	-4.9246	16.0144	0.6220	-0.2231	0.7241	0.1974
8.96	-9.7592	0.1028	-1.5118	-0.0309	-0.0022	-0.0386	28.3609	-4.9654	15.8479	0.6219	-0.2231	0.7241	0.1975
8.97	-9.7997	0.1073	-1.5182	-0.0250	0.0086	-0.0412	28.1595	-4.9838	15.7460	0.6218	-0.2232	0.7242	0.1975
8.98	-9.7937	0.1056	-1.5278	-0.0096	-0.0044	-0.0478	28.3155	-4.9108	16.1199	0.6218	-0.2232	0.7243	0.1975
8.99	-9.7853	0.1030	-1.5195	-0.0119	-0.0126	-0.0412	28.1262	-5.0670	16.0358	0.6217	-0.2232	0.7242	0.1975
9	-9.8317	0.1404	-1.5557	-0.0102	-0.0028	-0.0404	28.2896	-4.7931	15.8844	0.6218	-0.2232	0.7243	0.1975
9.01	-9.8115	0.1513	-1.5300	-0.0049	-0.0220	-0.0531	28.3697	-4.6624	15.9707	0.6218	-0.2232	0.7243	0.1975
9.02	-9.8120	0.1477	-1.5060	-0.0047	-0.0269	-0.0554	28.2795	-4.9034	16.0482	0.6219	-0.2232	0.7243	0.1975
9.03	-9.8858	0.1725	-1.5397	-0.0089	-0.0210	-0.0548	28.1356	-4.7405	15.8998	0.6218	-0.2233	0.7241	0.1974
9.04	-9.7994	0.1514	-1.5332	-0.0136	-0.0344	-0.0525	28.4273	-4.6921	15.9344	0.6220	-0.2233	0.7241	0.1974
9.05	-9.7500	0.1363	-1.5143	-0.0128	-0.0318	-0.0462	28.2079	-4.8148	16.0934	0.6220	-0.2233	0.7241	0.1974
9.06	-9.7390	0.1397	-1.5390	-0.0120	-0.0200	-0.0368	28.1321	-4.6750	16.1156	0.6220	-0.2232	0.7240	0.1974
9.07	-9.6901	0.1513	-1.5275	-0.0177	-0.0192	-0.0358	28.2868	-4.6834	15.9936	0.6221	-0.2233	0.7241	0.1975
9.08	-9.7194	0.1814	-1.5462	-0.0159	-0.0058	-0.0360	28.2262	-4.8242	16.0221	0.6220	-0.2232	0.7241	0.1975
9.09	-9.7641	0.2055	-1.5491	-0.0130	-0.0021	-0.0385	28.3197	-4.6663	16.0117	0.6220	-0.2233	0.7242	0.1976
9.1	-9.7607	0.1779	-1.5403	-0.0120	-0.0153	-0.0455	28.3732	-4.7874	15.9452	0.6219	-0.2232	0.7241	0.1975
9.11	-9.8167	0.1691	-1.5470	-0.0128	-0.0140	-0.0490	28.1767	-4.7415	15.7528	0.6219	-0.2233	0.7241	0.1975
9.12	-9.7964	0.1727	-1.5361	-0.0097	-0.0260	-0.0486	28.2296	-4.8714	15.6201	0.6219	-0.2233	0.7241	0.1975
9.13	-9.7697	0.1615	-1.5075	-0.0113	-0.0286	-0.0532	28.4883	-4.9989	15.9631	0.6220	-0.2233	0.7240	0.1975
9.14	-9.7627	0.1746	-1.5145	-0.0107	-0.0265	-0.0484	28.1983	-4.8122	15.8011	0.6221	-0.2233	0.7240	0.1975
9.15	-9.7399	0.1769	-1.5087	-0.0151	-0.0256	-0.0494	28.1686	-4.9147	15.7244	0.6221	-0.2233	0.7240	0.1975
9.16	-9.7380	0.1822	-1.5243	-0.0141	-0.0174	-0.0453	28.3523	-4.9628	15.9912	0.6221	-0.2233	0.7240	0.1975
9.17	-9.7428	0.1885	-1.5224	-0.0175	-0.0162	-0.0553	28.2634	-4.8749	16.0407	0.6220	-0.2234	0.7239	0.1975
9.18	-9.7596	0.1992	-1.5138	-0.0148	-0.0118	-0.0512	28.1217	-4.7181	15.9786	0.6221	-0.2234	0.7240	0.1975
9.19	-9.7707	0.1920	-1.5228	-0.0314	-0.0176	-0.0451	28.0685	-4.8647	15.9084	0.6221	-0.2235	0.7239	0.1976
9.2	-9.7962	0.1631	-1.5331	-0.0363	-0.0222	-0.0451	28.3448	-4.7725	15.9228	0.6221	-0.2236	0.7239	0.1977
9.21	-9.8203	0.1526	-1.5497	-0.0362	-0.0206	-0.0447	28.3417	-4.7968	15.9306	0.6220	-0.2236	0.7238	0.1978
9.22	-9.8014	0.1364	-1.5414	-0.0381	-0.0220	-0.0469	28.3437	-4.6954	15.8939	0.6221	-0.2237	0.7238	0.1979
9.23	-9.7695	0.1268	-1.5344	-0.0353	-0.0265	-0.0371	28.3379	-4.5994	15.7861	0.6221	-0.2238	0.7237	0.1980
9.24	-9.7512	0.1168	-1.5124	-0.0341	-0.0221	-0.0410	28.3564	-4.8039	15.9218	0.6220	-0.2238	0.7236	0.1981
9.25	-9.7890	0.1224	-1.5153	-0.0312	-0.0120	-0.0441	28.2163	-4.6624	16.0344	0.6221	-0.2239	0.7237	0.1982
9.26	-9.8377	0.1341	-1.5488	-0.0251	-0.0152	-0.0552	28.1659	-4.8232	15.9819	0.6220	-0.2240	0.7236	0.1982
9.27	-9.7747	0.1051	-1.5212	-0.0213	-0.0325	-0.0500	28.3652	-4.6917	15.8292	0.6221	-0.2240	0.7236	0.1983
9.28	-9.7817	0.0968	-1.5052	-0.0123	-0.0271	-0.0417	28.3208	-4.6604	15.8211	0.6221	-0.2240	0.7235	0.1983
9.29	-9.8023	0.1198	-1.5336	-0.0094	-0.0330	-0.0417	28.3735	-4.8479	15.8396	0.6222	-0.2240	0.7235	0.1983
9.3	-9.7662	0.1416	-1.4996	-0.0048	-0.0351	-0.0378	28.2639	-4.7987	15.8120	0.6222	-0.2239	0.7234	0.1983
9.31	-9.7855	0.1858	-1.5041	-0.0082	-0.0297	-0.0426	28.3052	-4.8237	15.9064	0.6222	-0.2239	0.7234	0.1983
9.32	-9.7997	0.1924	-1.5037	-0.0106	-0.0333	-0.0481	28.5664	-4.9793	16.0501	0.6224	-0.2239	0.7234	0.1983
9.33	-9.7861	0.1684	-1.4872	-0.0090	-0.0339	-0.0486	28.4818	-4.9244	15.8389	0.6224	-0.2239	0.7233	0.1983
9.34	-9.7874	0.1705	-1.5058	-0.0109	-0.0296	-0.0519	28.3693	-4.9658	15.8799	0.6225	-0.2239	0.7233	0.1983
9.35	-9.7833	0.1728	-1.4879	-0.0119	-0.0362	-0.0487	28.6600	-4.9267	16.0535	0.6225	-0.2239	0.7231	0.1983
9.36	-9.7711	0.1848	-1.4697	-0.0111	-0.0447	-0.0480	28.4216	-4.8607	15.8645	0.6227	-0.2239	0.7231	0.1984
9.37	-9.7822	0.1789	-1.4640	-0.0139	-0.0432	-0.0435	28.3758	-4.6572	15.8276	0.6228	-0.2238	0.7230	0.1984
9.38	-9.7525	0.1837	-1.4517	-0.0119	-0.0344	-0.0497	28.3980	-4.8369	15.8099	0.6228	-0.2238	0.7229	0.1984
9.39	-9.7489	0.1835	-1.4301	-0.0246	-0.0356	-0.0444	28.2048	-4.9618	15.9636	0.6229	-0.2239	0.7229	0.1985
9.4	-9.7367	0.1741	-1.4184	-0.0219	-0.0300	-0.0483	28.2870	-4.8337	15.8613	0.6229	-0.2239	0.7228	0.1985
9.41	-9.7241	0.1686	-1.4078	-0.0239	-0.0276	-0.0522	28.2062	-4.8383	15.8683	0.6230	-0.2240	0.7227	0.1986
9.42	-9.7070	0.1714	-1.3955	-0.0322	-0.0266	-0.0511	28.4262	-4.6413	16.0250	0.6229	-0.2240	0.7226	0.1986
9.43	-9.7119	0.1693	-1.3962	-0.0317	-0.0129	-0.0507	28.7690	-4.7198	16.0229	0.6230	-0.2241	0.7227	0.1987
9.44	-9.7097	0.1553	-1.4057	-0.0361	-0.0165	-0.0550	28.6265	-4.6026	15.9704	0.6229	-0.2242	0.7226	0.1987
9.45	-9.7117	0.1394	-1.4101	-0.0270	-0.0078	-0.0572	28.3382	-4.4714	15.9358	0.6229	-0.2244	0.7226	0.1988
9.46	-9.7196	0.1281	-1.4206	-0.0336	-0.0008	-0.0474	28.0517	-4.5444	16.2687	0.6228	-0.2244	0.7226	0.1988
9.47	-9.7357	0.1158	-1.4232	-0.0268	0.0046	-0.0545	28.0283	-4.6134	16.1235	0.6228	-0.2246	0.7226	0.1988
9.48	-9.7510	0.1162	-1.4471	-0.0170	0.0111	-0.0498	27.9826	-4.6255	16.0393	0.6227	-0.2246	0.7227	0.1988
9.49	-9.7513	0.1048	-1.4578	-0.0173	0.0026	-0.0423	28.1410	-4.7176	15.8593	0.6225	-0.2246	0.7227	0.1988
9.5	-9.7881	0.0980	-1.4857	-0.0097	0.0074	-0.0412	28.4437	-4.8140	15.9596	0.6225	-0.2247	0.7229	0.1988
9.51	-9.7932	0.1119	-1.4944	-0.0129	0.0038	-0.0445	28.5401	-4.9845	15.7824	0.6224	-0.2247	0.7229	0.1988
9.52	-9.7855	0.1077	-1.4996	-0.0087	0.0043	-0.0525	28.3313	-4.9017	15.7615	0.6224	-0.2248	0.7230	0.1987
9.53	-9.7974	0.1061	-1.5153	0.0059	0.0109	-0.0427	28.4638	-4.9940	15.9161	0.6223	-0.2247	0.7230	0.1986
9.54	-9.8056	0.1146	-1.5163	0.0037	0.0049	-0.0522	28.3131	-4.9491	15.9413	0.6222	-0.2247	0.7231	0.1985
9.55	-9.7974	0.1246	-1.5256	0.0053	0.0065	-0.0548	28.2390	-4.7322	15.9557	0.6222	-0.2247	0.7232	0.1984
9.56	-9.7871	0.1491	-1.5119	0.0118	0.0085	-0.0528	28.3585	-4.9320	15.9256	0.6221	-0.2247	0.7232	0.1983
9.57	-9.7998	0.1519	-1.5293	-0.0068	0.0058	-0.0536	28.3642	-4.8610	16.2647	0.6221	-0.2248	0.7234	0.1982
9.58	-9.8140	0.1563	-1.5455	0.0015	0.0055	-0.0486	28.2101	-4.8095	16.0819	0.6220	-0.2247	0.7234	0.1981
9.59	-9.8049	0.1547	-1.5451	-0.0088	-0.0010	-0.0531	28.1574	-4.7613	15.9013	0.6220	-0.2248	0.7235	0.1981
9.6	-9.8020	0.1483	-1.5317	-0.0099	0.0060	-0.0564	28.2807	-4.6166	15.8784	0.6219	-0.2248	0.7234	0.1980
9.61	-9.8406	0.1558	-1.5512	-0.0013	-0.0020	-0.0481	28.2636	-4.6353	16.0461	0.6219	-0.2249	0.7236	0.1980
9.62	-9.8335	0.1504	-1.5472	-0.0144	-0.0130	-0.0530	28.1170	-4.6507	16.0613	0.6219	-0.2249	0.7235	0.1979
9.63	-9.8141	0.1426	-1.5464	-0.0136	-0.0163	-0.0535	28.3585	-4.8524	15.8834	0.6219	-0.2249	0.7235	0.1979
9.64	-9.8154	0.1486	-1.5470	-0.0092	-0.0246	-0.0580	28.3612	-4.5824	15.9082	0.6220	-0.2250	0.7235	0.1979
9.65	-9.7919	0.1484	-1.5340	-0.0128	-0.0247	-0.0557	28.2388	-4.5689	15.8816	0.6220	-0.2250	0.7234	0.1979
9.66	-9.7925	0.1512	-1.5152	-0.0150	-0.0307	-0.0526	28.2992	-4.8703	15.9397	0.6221	-0.2250	0.7234	0.1979
9.67	-9.7768	0.1470	-1.5040	-0.0112	-0.0344	-0.0554	28.1770	-4.6697	16.1938	0.6221	-0.2250	0.7232	0.1978
9.68	-9.7755	0.1453	-1.4892	-0.0150	-0.0333	-0.0517	28.0676	-4.7918	16.0538	0.6222	-0.2251	0.7233	0.1979
9.69	-9.7880	0.1398	-1.4647	-0.0122	-0.0421	-0.0533	28.4501	-4.8865	15.9616	0.6223	-0.2251	0.7231	0.1979
9.7	-9.7733	0.1337	-1.4745	-0.0122	-0.0398	-0.0559	28.3596	-4.7553	16.0313	0.6224	-0.2251	0.7231	0.1979
9.71	-9.7280	0.1340	-1.4450	-0.0158	-0.0328	-0.0580	28.4612	-5.0154	15.9424	0.6224	-0.2252	0.7230	0.1979
9.72	-9.7188	0.1366	-1.4501	-0.0159	-0.0290	-0.0597	28.4125	-4.8522	16.1019	0.6225	-0.2252	0.7229	0.1979
9.73	-9.7091	0.1713	-1.4361	-0.0109	-0.0294	-0.0636	28.3551	-4.7315	16.1370	0.6226	-0.2253	0.7229	0.1978
9.74	-9.7106	0.1597	-1.4115	-0.0283	-0.0229	-0.0608	28.2744	-4.7302	16.0664	0.6226	-0.2254	0.7227	0.1978
9.75	-9.7599	0.1499	-1.4262	-0.0376	-0.0189	-0.0646	28.3746	-4.5874	16.1709	0.6227	-0.2255	0.7228	0.1979
9.76	-9.8277	0.1253	-1.4415	-0.0381	-0.0168	-0.0642	28.4921	-4.7250	15.9298	0.6226	-0.2257	0.7227	0.1979
9.77	-9.7711	0.0739	-1.4781	-0.0268	-0.0276	-0.0608	28.3724	-4.8153	16.0348	0.6227	-0.2258	0.7227	0.1979
9.78	-9.7332	0.1254	-1.3971	-0.0291	-0.0259	-0.0581	28.2741	-4.4774	15.8730	0.6227	-0.2259	0.7225	0.1979
9.79	-9.7492	0.0855	-1.4729	-0.0385	-0.0167	-0.0435	28.1323	-4.4974	16.0137	0.6227	-0.2260	0.7225	0.1981
9.8	-9.6735	0.0719	-1.4820	-0.0296	-0.0185	-0.0489	28.0986	-4.5452	15.9760	0.6227	-0.2260	0.7225	0.1981
9.81	-9.6439	0.1210	-1.4520	-0.0222	-0.0023	-0.0386	28.3746	-4.6131	15.9884	0.6226	-0.2261	0.7224	0.1982
9.82	-9.6941	0.1007	-1.5110	-0.0293	0.0145	-0.0421	28.3572	-4.7461	16.0035	0.6225	-0.2262	0.7226	0.1982
9.83	-9.7252	0.1087	-1.4936	-0.0215	0.0164	-0.0495	28.2234	-4.4241	15.9560	0.6223	-0.2262	0.7226	0.1982
9.84	-9.7758	0.0971	-1.5017	-0.0154	0.0245	-0.0501	28.1174	-4.5434	16.0769	0.6222	-0.2263	0.7228	0.1982
9.85	-9.7986	0.0922	-1.5425	-0.0135	0.0147	-0.0520	28.0534	-4.5427	15.9922	0.6221	-0.2263	0.7228	0.1981
9.86	-9.8444	0.1231	-1.5153	-0.0090	0.0083	-0.0482	28.3784	-4.4513	15.8619	0.6220	-0.2264	0.7229	0.1981
9.87	-9.8455	0.1229	-1.5241	-0.0085	-0.0035	-0.0525	28.2695	-4.7869	15.9362	0.6220	-0.2264	0.7229	0.1980
9.88	-9.8188	0.1159	-1.5148	-0.0133	-0.0067	-0.0596	28.4050	-4.8228	16.1154	0.6220	-0.2265	0.7229	0.1979
9.89	-9.7970	0.1283	-1.5081	-0.0034	-0.0123	-0.0530	28.5757	-4.7821	15.9564	0.6220	-0.2265	0.7230	0.1979
9.9	-9.7588	0.1572	-1.4944	-0.0049	-0.0182	-0.0554	28.3819	-4.9880	15.9188	0.6220	-0.2266	0.7229	0.1978
9.91	-9.7126	0.1581	-1.4639	-0.0117	-0.0137	-0.0582	28.5369	-4.8897	15.8241	0.6221	-0.2266	0.7229	0.1978
9.92	-9.6804	0.1475	-1.4522	-0.0116	-0.0077	-0.0638	28.5922	-4.6128	15.8768	0.6220	-0.2267	0.7228	0.1977
9.93	-9.6690	0.1435	-1.4381	-0.0099	-0.0004	-0.0629	28.7998	-4.5143	16.1293	0.6220	-0.2268	0.7230	0.1977
9.94	-9.6758	0.1152	-1.4641	-0.0110	0.0118	-0.0721	28.7334	-4.4291	16.0623	0.6219	-0.2269	0.7230	0.1975
9.95	-9.6887	0.0800	-1.4771	-0.0136	0.0251	-0.0748	28.5430	-4.4739	16.1278	0.6218	-0.2270	0.7231	0.1974
9.96	-9.7179	0.0656	-1.5032	-0.0014	0.0262	-0.0740	28.3078	-4.6916	16.0201	0.6217	-0.2272	0.7231	0.1973
9.97	-9.7384	0.0644	-1.5110	0.0072	0.0273	-0.0810	28.3521	-4.5257	16.0483	0.6216	-0.2273	0.7233	0.1970
9.98	-9.8136	0.0663	-1.5527	0.0006	0.0419	-0.0796	28.2203	-4.7032	16.3275	0.6215	-0.2274	0.7234	0.1968
9.99	-9.8182	0.0572	-1.5564	0.0111	0.0346	-0.0867	28.2230	-4.3900	16.1706	0.6213	-0.2275	0.7235	0.1965
10	-9.8221	0.0415	-1.5583	0.0146	0.0334	-0.0834	28.4669	-4.3201	16.1023	0.6213	-0.2277	0.7237	0.1963
10.01	-9.8629	0.0496	-1.5929	0.0139	0.0298	-0.0806	28.1828	-4.6721	16.2168	0.6211	-0.2278	0.7238	0.1960
10.02	-9.8420	0.0426	-1.5884	0.0112	0.0156	-0.0664	28.5699	-4.4602	16.1763	0.6211	-0.2279	0.7239	0.1958
10.03	-9.8041	0.0525	-1.5877	0.0131	0.0107	-0.0652	28.4237	-4.4823	16.2849	0.6210	-0.2279	0.7239	0.1956
10.04	-9.8029	0.0958	-1.5934	0.0130	0.0061	-0.0616	28.1934	-4.6210	16.0568	0.6210	-0.2279	0.7240	0.1955
10.05	-9.8042	0.0845	-1.5931	0.0115	0.0023	-0.0665	28.1773	-4.6488	16.1182	0.6210	-0.2279	0.7241	0.1953
10.06	-9.7938	0.0814	-1.5982	0.0035	0.0031	-0.0630	28.4505	-4.4431	16.0820	0.6209	-0.2279	0.7241	0.1952
10.07	-9.7895	0.0691	-1.6001	0.0064	-0.0041	-0.0676	28.4333	-4.6128	16.2079	0.6210	-0.2280	0.7242	0.1950
10.08	-9.7868	0.0662	-1.5955	-0.0049	-0.0015	-0.0611	28.4370	-4.6603	16.2035	0.6209	-0.2280	0.7242	0.1949
10.09	-9.7923	0.0763	-1.6034	-0.0044	-0.0048	-0.0629	28.2076	-4.6734	16.3962	0.6210	-0.2281	0.7242	0.1949
10.1	-9.7964	0.0865	-1.5942	-0.0112	-0.0070	-0.0575	28.4835	-4.5690	16.2875	0.6209	-0.2281	0.7241	0.1948
10.11	-9.7949	0.0893	-1.5916	-0.0114	-0.0145	-0.0578	28.2524	-4.3492	16.1448	0.6209	-0.2282	0.7242	0.1948
10.12	-9.8020	0.0888	-1.5839	-0.0106	-0.0169	-0.0617	28.2141	-4.4415	16.2539	0.6209	-0.2283	0.7242	0.1947
10.13	-9.8065	0.0937	-1.5830	-0.0150	-0.0195	-0.0509	28.5051	-4.5829	16.2944	0.6209	-0.2283	0.7241	0.1947
10.14	-9.7899	0.0767	-1.5779	-0.0266	-0.0240	-0.0535	28.2008	-4.4653	16.2822	0.6210	-0.2284	0.7241	0.1947
10.15	-9.7845	0.0725	-1.5722	-0.0297	-0.0205	-0.0515	28.4375	-4.5055	16.1318	0.6210	-0.2284	0.7240	0.1948
10.16	-9.7599	0.0618	-1.5586	-0.0360	-0.0193	-0.0547	28.1806	-4.4111	16.3260	0.6210	-0.2286	0.7240	0.1949
10.17	-9.7542	0.0601	-1.5631	-0.0356	-0.0174	-0.0591	28.2437	-4.4499	16.4100	0.6209	-0.2287	0.7239	0.1949
10.18	-9.7501	0.0640	-1.5513	-0.0385	-0.0198	-0.0539	28.2711	-4.6335	16.2284	0.6210	-0.2288	0.7239	0.1950
10.19	-9.7399	0.0429	-1.5481	-0.0419	-0.0156	-0.0526	28.2499	-4.4691	16.0226	0.6209	-0.2289	0.7238	0.1951
10.2	-9.7298	0.0307	-1.5532	-0.0375	-0.0184	-0.0510	28.2609	-4.3404	16.2697	0.6210	-0.2290	0.7238	0.1951
10.21	-9.6913	0.0201	-1.5579	-0.0356	-0.0137	-0.0600	28.3456	-4.6127	16.2903	0.6209	-0.2291	0.7238	0.1952
10.22	-9.6788	-0.0020	-1.5604	-0.0381	-0.0077	-0.0522	28.2364	-4.5393	16.2857	0.6209	-0.2293	0.7238	0.1953
10.23	-9.7026	-0.0113	-1.5788	-0.0355	-0.0048	-0.0521	28.2747	-4.4203	16.2440	0.6208	-0.2294	0.7238	0.1953
10.24	-9.7019	-0.0364	-1.5744	-0.0304	-0.0008	-0.0552	28.2303	-4.3571	16.0727	0.6207	-0.2295	0.7237	0.1953
10.25	-9.7072	-0.0428	-1.5863	-0.0208	0.0036	-0.0600	28.5000	-4.6493	16.0151	0.6207	-0.2296	0.7238	0.1953
10.26	-9.7265	-0.0351	-1.5807	-0.0126	0.0076	-0.0502	28.1999	-4.6049	16.1355	0.6206	-0.2297	0.7238	0.1953
10.27	-9.7394	-0.0288	-1.5940	-0.0103	0.0076	-0.0472	28.2181	-4.3477	16.0497	0.6206	-0.2297	0.7240	0.1953
10.28	-9.7491	-0.0270	-1.5950	-0.0119	0.0068	-0.0499	28.3654	-4.5926	16.3137	0.6204	-0.2297	0.7239	0.1952
10.29	-9.7536	-0.0273	-1.5914	-0.0151	0.0076	-0.0480	28.3493	-4.5680	16.2594	0.6204	-0.2298	0.7241	0.1952
10.3	-9.7818	-0.0086	-1.6204	-0.0120	0.0077	-0.0474	28.3255	-4.5539	16.1337	0.6203	-0.2298	0.7241	0.1952
10.31	-9.7756	-0.0141	-1.6165	-0.0134	0.0074	-0.0462	28.4449	-4.3021	15.9867	0.6202	-0.2298	0.7241	0.1951
10.32	-9.7667	-0.0285	-1.6219	-0.0107	0.0087	-0.0362	28.4234	-4.3020	16.1161	0.6202	-0.2299	0.7243	0.1951
10.33	-9.7997	-0.0108	-1.6269	-0.0089	0.0091	-0.0357	28.3400	-4.4590	16.0724	0.6200	-0.2298	0.7243	0.1951
10.34	-9.7963	-0.0050	-1.6287	-0.0112	0.0060	-0.0407	28.3275	-4.2575	16.1659	0.6200	-0.2299	0.7245	0.1951
10.35	-9.7819	0.0041	-1.6306	-0.0133	0.0044	-0.0349	28.4785	-4.1070	16.1857	0.6198	-0.2298	0.7244	0.1951
10.36	-9.8066	0.0117	-1.6488	-0.0091	0.0063	-0.0353	28.2515	-4.3645	16.3049	0.6198	-0.2298	0.7246	0.1951
10.37	-9.8189	0.0265	-1.6461	-0.0078	-0.0066	-0.0349	28.2257	-4.2557	16.4124	0.6197	-0.2298	0.7246	0.1951
10.38	-9.8103	0.0330	-1.6317	-0.0112	-0.0198	-0.0350	28.4469	-4.4583	16.2722	0.6197	-0.2298	0.7246	0.1952
10.39	-9.8255	0.0430	-1.6227	0.0040	-0.0177	-0.0351	27.9808	-4.6072	16.2902	0.6198	-0.2297	0.7246	0.1951
10.4	-9.8015	0.0619	-1.6136	-0.0024	-0.0180	-0.0352	28.3171	-4.5249	16.4071	0.6198	-0.2296	0.7246	0.1951
10.41	-9.7881	0.0729	-1.5924	-0.0004	-0.0174	-0.0345	28.2947	-4.4676	16.5627	0.6198	-0.2296	0.7247	0.1951
10.42	-9.8020	0.0863	-1.5770	-0.0039	-0.0276	-0.0390	28.2919	-4.4337	16.4748	0.6198	-0.2295	0.7246	0.1951
10.43	-9.7855	0.0869	-1.5958	0.0010	-0.0266	-0.0381	28.7412	-4.1195	16.3363	0.6199	-0.2295	0.7246	0.1951
10.44	-9.7211	0.0968	-1.5638	-0.0035	-0.0300	-0.0381	28.6234	-4.2089	16.3970	0.6199	-0.2294	0.7246	0.1951
10.45	-9.7316	0.1106	-1.5624	-0.0116	-0.0273	-0.0431	28.5512	-4.3537	16.3064	0.6200	-0.2294	0.7246	0.1951
10.46	-9.7403	0.1059	-1.5822	-0.0107	-0.0229	-0.0452	28.1559	-4.3868	16.1133	0.6200	-0.2294	0.7245	0.1951
10.47	-9.7391	0.0951	-1.5468	-0.0241	-0.0242	-0.0481	28.1706	-4.5061	15.9793	0.6200	-0.2294	0.7245	0.1952
10.48	-9.8034	0.0765	-1.5739	-0.0340	-0.0192	-0.0439	28.2657	-4.4333	16.2453	0.6200	-0.2295	0.7245	0.1953
10.49	-9.8417	0.0737	-1.5641	-0.0362	-0.0261	-0.0426	28.1040	-4.4706	16.3051	0.6200	-0.2295	0.7243	0.1954
10.5	-9.8280	0.0562	-1.5587	-0.0359	-0.0369	-0.0486	28.4501	-4.3400	16.1381	0.6201	-0.2296	0.7243	0.1955
10.51	-9.8228	0.0393	-1.5717	-0.0353	-0.0341	-0.0411	28.2396	-4.3896	16.2447	0.6201	-0.2297	0.7242	0.1956
10.52	-9.7779	0.0234	-1.5694	-0.0353	-0.0400	-0.0343	28.1417	-4.5629	16.2877	0.6202	-0.2297	0.7242	0.1957
10.53	-9.7223	0.0013	-1.5505	-0.0369	-0.0370	-0.0345	28.2884	-4.4411	16.2783	0.6202	-0.2297	0.7240	0.1959
10.54	-9.7213	0.0378	-1.5742	-0.0330	-0.0285	-0.0361	28.1313	-4.2369	16.2573	0.6202	-0.2298	0.7240	0.1960
10.55	-9.7130	0.0416	-1.5769	-0.0321	-0.0295	-0.0347	28.2458	-4.3021	16.1096	0.6202	-0.2298	0.7239	0.1961
10.56	-9.7043	0.0222	-1.5657	-0.0314	-0.0234	-0.0379	28.2910	-4.2542	16.0552	0.6202	-0.2298	0.7238	0.1962
10.57	-9.7365	0.0224	-1.5824	-0.0123	-0.0140	-0.0367	28.0550	-4.3993	16.2350	0.6203	-0.2298	0.7240	0.1963
10.58	-9.7469	0.0375	-1.5723	-0.0086	-0.0171	-0.0408	27.9665	-4.4730	16.2459	0.6202	-0.2298	0.7239	0.1963
10.59	-9.7602	0.0647	-1.5854	-0.0028	-0.0153	-0.0410	28.0671	-4.4359	16.1593	0.6202	-0.2297	0.7239	0.1963
10.6	-9.7751	0.0735	-1.5768	0.0072	-0.0147	-0.0432	28.1742	-4.5531	16.1945	0.6202	-0.2297	0.7239	0.1962
10.61	-9.7896	0.0886	-1.5726	0.0117	-0.0202	-0.0449	28.1959	-4.4247	16.1872	0.6203	-0.2296	0.7240	0.1961
10.62	-9.7607	0.0981	-1.5593	-0.0014	-0.0307	-0.0446	28.2955	-4.4942	16.3370	0.6203	-0.2296	0.7239	0.1961
10.63	-9.7519	0.1008	-1.5549	-0.0007	-0.0274	-0.0496	28.2350	-4.6272	16.1582	0.6204	-0.2295	0.7239	0.1960
10.64	-9.7526	0.1091	-1.5718	-0.0116	-0.0205	-0.0457	28.3816	-4.7271	16.3224	0.6204	-0.2295	0.7239	0.1961
10.65	-9.7465	0.1159	-1.5598	-0.0140	-0.0165	-0.0483	28.4576	-4.5739	16.2259	0.6204	-0.2296	0.7238	0.1960
10.66	-9.7569	0.1176	-1.5751	-0.0212	-0.0176	-0.0435	28.2051	-4.2899	16.1865	0.6204	-0.2296	0.7239	0.1961
10.67	-9.7560	0.1041	-1.5590	-0.0338	-0.0177	-0.0415	28.1477	-4.2715	16.0823	0.6203	-0.2296	0.7238	0.1962
10.68	-9.7767	0.0770	-1.5718	-0.0359	-0.0163	-0.0421	28.3175	-4.3838	16.1036	0.6204	-0.2297	0.7238	0.1963
10.69	-9.7529	0.0658	-1.5848	-0.0364	-0.0229	-0.0406	28.3594	-4.5240	16.3946	0.6203	-0.2298	0.7237	0.1964
10.7	-9.7360	0.0500	-1.5684	-0.0357	-0.0213	-0.0419	28.3595	-4.5336	16.3045	0.6203	-0.2299	0.7237	0.1965
10.71	-9.7634	0.0340	-1.5780	-0.0370	-0.0227	-0.0433	28.3443	-4.5700	16.1626	0.6203	-0.2299	0.7237	0.1966
10.72	-9.7676	0.0314	-1.5848	-0.0342	-0.0211	-0.0490	28.2507	-4.3498	16.0830	0.6203	-0.2300	0.7236	0.1967
10.73	-9.7480	0.0211	-1.5598	-0.0264	-0.0174	-0.0525	28.2673	-4.3042	16.2820	0.6203	-0.2301	0.7236	0.1967
10.74	-9.7542	0.0004	-1.5672	-0.0199	-0.0172	-0.0450	28.2805	-4.4029	16.2563	0.6203	-0.2301	0.7235	0.1967
10.75	-9.7570	0.0021	-1.5655	-0.0122	-0.0216	-0.0340	28.1401	-4.2393	16.4040	0.6203	-0.2301	0.7236	0.1968
10.76	-9.7450	0.0083	-1.5568	-0.0057	-0.0186	-0.0397	27.9375	-4.4569	16.3053	0.6203	-0.2301	0.7236	0.1968
10.77	-9.7521	0.0542	-1.5507	-0.0051	-0.0160	-0.0359	28.0942	-4.4446	16.2803	0.6204	-0.2300	0.7236	0.1968
10.78	-9.7517	0.0768	-1.5530	0.0014	-0.0146	-0.0381	28.0799	-4.4714	16.1700	0.6203	-0.2299	0.7236	0.1967
10.79	-9.7536	0.0735	-1.5527	0.0044	-0.0162	-0.0445	28.2123	-4.4229	16.3304	0.6203	-0.2299	0.7236	0.1967
10.8	-9.7521	0.0677	-1.5551	0.0070	-0.0089	-0.0511	28.1364	-4.5425	16.1584	0.6203	-0.2299	0.7237	0.1966
10.81	-9.7517	0.0699	-1.5606	0.0031	-0.0056	-0.0472	28.2809	-4.7727	16.0603	0.6203	-0.2299	0.7237	0.1965
10.82	-9.7682	0.0905	-1.5623	0.0066	-0.0090	-0.0399	28.2331	-4.4727	16.1267	0.6204	-0.2298	0.7238	0.1965
10.83	-9.7719	0.0987	-1.5592	-0.0001	-0.0091	-0.0445	28.4845	-4.7683	16.0619	0.6203	-0.2298	0.7238	0.1964
10.84	-9.7890	0.0960	-1.5698	-0.0080	-0.0143	-0.0471	28.4804	-4.7640	16.1910	0.6203	-0.2298	0.7238	0.1964
10.85	-9.7900	0.1004	-1.5736	-0.0073	-0.0178	-0.0442	28.4330	-4.6113	16.1850	0.6202	-0.2298	0.7237	0.1964
10.86	-9.7915	0.1009	-1.5573	-0.0154	-0.0204	-0.0462	28.4212	-4.6260	16.0927	0.6203	-0.2298	0.7238	0.1964
10.87	-9.7840	0.0828	-1.5497	-0.0129	-0.0215	-0.0475	28.1844	-4.4777	16.2359	0.6203	-0.2298	0.7238	0.1964
10.88	-9.7649	0.0856	-1.5486	-0.0129	-0.0263	-0.0457	28.3867	-4.4116	16.1160	0.6203	-0.2298	0.7237	0.1964
10.89	-9.7556	0.0800	-1.5448	-0.0172	-0.0267	-0.0408	28.3280	-4.6826	16.5572	0.6204	-0.2298	0.7237	0.1965
10.9	-9.7508	0.0750	-1.5435	-0.0156	-0.0247	-0.0392	28.2527	-4.8119	16.2165	0.6204	-0.2298	0.7237	0.1965
10.91	-9.7547	0.0778	-1.5454	-0.0227	-0.0130	-0.0436	28.0442	-4.4170	16.0732	0.6204	-0.2298	0.7237	0.1965
10.92	-9.7543	0.0703	-1.5440	-0.0317	-0.0191	-0.0456	28.3423	-4.1691	16.4124	0.6203	-0.2299	0.7236	0.1966
10.93	-9.7534	0.0672	-1.5504	-0.0281	-0.0134	-0.0455	28.7025	-4.2000	16.3287	0.6204	-0.2300	0.7237	0.1967
10.94	-9.7585	0.0664	-1.5417	-0.0359	-0.0137	-0.0454	28.5473	-4.3209	16.2596	0.6203	-0.2300	0.7236	0.1967
10.95	-9.7621	0.0627	-1.5402	-0.0261	-0.0083	-0.0429	28.3099	-4.4146	16.3076	0.6203	-0.2301	0.7236	0.1968
10.96	-9.7556	0.0725	-1.5474	-0.0154	-0.0164	-0.0437	28.2563	-4.3901	16.2014	0.6202	-0.2301	0.7236	0.1968
10.97	-9.7515	0.0717	-1.5459	-0.0227	-0.0171	-0.0493	28.1414	-4.3162	16.2168	0.6202	-0.2302	0.7236	0.1968
10.98	-9.7607	0.0745	-1.5523	-0.0131	-0.0147	-0.0488	28.2696	-4.2994	16.2942	0.6202	-0.2302	0.7236	0.1968
10.99	-9.7806	0.0806	-1.5508	-0.0179	-0.0189	-0.0444	28.1518	-4.3648	16.2011	0.6202	-0.2302	0.7235	0.1968
11	-9.7688	0.0791	-1.5415	-0.0185	-0.0152	-0.0450	28.2004	-4.6406	16.0311	0.6202	-0.2303	0.7236	0.1969
11.01	-9.7693	0.0851	-1.5381	-0.0131	-0.0222	-0.0588	28.6844	-4.6235	16.0610	0.6202	-0.2303	0.7235	0.1969
11.02	-9.7804	0.0766	-1.5397	-0.0129	-0.0125	-0.0557	28.5109	-4.5303	16.3173	0.6203	-0.2304	0.7236	0.1968
11.03	-9.7693	0.0784	-1.5446	-0.0130	-0.0139	-0.0495	28.5355	-4.6791	16.1721	0.6202	-0.2304	0.7235	0.1968
11.04	-9.7520	0.0695	-1.5381	-0.0207	-0.0230	-0.0524	28.3850	-4.6407	16.3042	0.6202	-0.2304	0.7235	0.1968
11.05	-9.7551	0.0650	-1.5351	-0.0300	-0.0182	-0.0466	28.3088	-4.6817	16.0772	0.6202	-0.2305	0.7235	0.1969
11.06	-9.7529	0.0622	-1.5427	-0.0255	-0.0198	-0.0504	28.1221	-4.5733	16.1721	0.6202	-0.2306	0.7234	0.1969
11.07	-9.7488	0.0527	-1.5406	-0.0347	-0.0155	-0.0492	28.4106	-4.5671	16.2055	0.6203	-0.2307	0.7235	0.1970
11.08	-9.7372	0.0407	-1.5481	-0.0326	-0.0159	-0.0490	28.5430	-4.5610	16.1540	0.6202	-0.2307	0.7234	0.1971
11.09	-9.7450	0.0307	-1.5497	-0.0337	-0.0109	-0.0507	28.2906	-4.3757	16.2657	0.6202	-0.2309	0.7234	0.1971
11.1	-9.7615	0.0310	-1.5694	-0.0307	0.0009	-0.0466	28.1275	-4.4165	16.2693	0.6200	-0.2309	0.7234	0.1971
11.11	-9.7707	0.0209	-1.5780	-0.0318	-0.0127	-0.0462	28.3384	-4.4638	16.1779	0.6200	-0.2310	0.7234	0.1972
11.12	-9.7874	0.0265	-1.5686	-0.0133	-0.0021	-0.0508	28.2595	-4.5596	16.1438	0.6200	-0.2311	0.7234	0.1972
11.13	-9.8309	0.0325	-1.5784	-0.0127	-0.0033	-0.0486	28.0960	-4.4960	16.0443	0.6199	-0.2311	0.7234	0.1972
11.14	-9.7915	0.0280	-1.5870	-0.0105	-0.0099	-0.0446	28.4142	-4.4889	16.3219	0.6199	-0.2311	0.7235	0.1972
11.15	-9.7470	0.0327	-1.5491	-0.0124	-0.0093	-0.0465	28.1443	-4.5654	16.1004	0.6199	-0.2311	0.7235	0.1972
11.16	-9.7695	0.0603	-1.5828	-0.0074	-0.0028	-0.0509	28.2587	-4.2363	16.1203	0.6199	-0.2312	0.7236	0.1971
11.17	-9.7321	0.0692	-1.5602	-0.0068	-0.0123	-0.0492	28.1721	-4.4992	16.3097	0.6198	-0.2311	0.7235	0.1971
11.18	-9.7298	0.0513	-1.5366	-0.0112	-0.0153	-0.0431	28.0561	-4.6891	16.2362	0.6199	-0.2312	0.7236	0.1971
11.19	-9.8033	0.0565	-1.5681	-0.0140	-0.0072	-0.0408	28.4116	-4.4735	16.3617	0.6198	-0.2312	0.7236	0.1971
11.2	-9.8097	0.0624	-1.5501	-0.0102	-0.0080	-0.0454	28.4510	-4.5374	16.2909	0.6198	-0.2312	0.7236	0.1971
11.21	-9.7787	0.0519	-1.5499	-0.0151	-0.0175	-0.0430	28.3338	-4.6852	16.2802	0.6197	-0.2312	0.7236	0.1971
11.22	-9.7790	0.0509	-1.5602	-0.0207	-0.0191	-0.0349	28.3437	-4.6263	16.5075	0.6197	-0.2312	0.7236	0.1972
11.23	-9.7480	0.0370	-1.5541	-0.0222	-0.0189	-0.0361	28.3491	-4.5123	16.0345	0.6197	-0.2312	0.7236	0.1972
11.24	-9.7136	0.0392	-1.5613	-0.0218	-0.0161	-0.0335	28.3431	-4.3857	16.2874	0.6197	-0.2312	0.7235	0.1973
11.25	-9.7104	0.0711	-1.5837	-0.0202	-0.0088	-0.0328	28.2536	-4.3988	16.2578	0.6197	-0.2312	0.7237	0.1974
11.26	-9.7164	0.0784	-1.5853	-0.0133	-0.0012	-0.0330	28.2388	-4.5364	16.1574	0.6196	-0.2312	0.7237	0.1974
11.27	-9.7271	0.0774	-1.5961	-0.0142	0.0057	-0.0369	28.3301	-4.6396	16.2027	0.6196	-0.2312	0.7238	0.1974
11.28	-9.7585	0.0638	-1.5904	-0.0117	0.0105	-0.0350	28.3553	-4.6857	16.1754	0.6194	-0.2311	0.7238	0.1974
11.29	-9.7805	0.0767	-1.5989	-0.0105	0.0069	-0.0363	28.2166	-4.4950	16.1963	0.6193	-0.2312	0.7239	0.1974
11.3	-9.7928	0.0883	-1.5986	-0.0122	0.0029	-0.0505	28.3115	-4.5303	16.3577	0.6192	-0.2312	0.7240	0.1974
11.31	-9.7827	0.1159	-1.6029	-0.0075	-0.0102	-0.0501	28.3960	-4.5907	16.3659	0.6192	-0.2312	0.7239	0.1973
11.32	-9.7873	0.1187	-1.6008	-0.0067	-0.0105	-0.0524	27.9892	-4.4618	16.4753	0.6193	-0.2312	0.7241	0.1973
11.33	-9.7833	0.1175	-1.5967	-0.0138	-0.0052	-0.0562	28.3411	-4.6223	16.4336	0.6192	-0.2313	0.7240	0.1973
11.34	-9.7787	0.1127	-1.6126	-0.0106	-0.0119	-0.0584	28.4352	-4.4826	16.0587	0.6192	-0.2314	0.7241	0.1972
11.35	-9.7625	0.1061	-1.6056	-0.0108	-0.0119	-0.0545	28.1312	-4.4850	16.2061	0.6191	-0.2314	0.7240	0.1972
11.36	-9.7512	0.1161	-1.5938	-0.0233	-0.0176	-0.0525	28.0575	-4.4784	16.2559	0.6192	-0.2315	0.7240	0.1972
11.37	-9.7570	0.0967	-1.5984	-0.0344	-0.0152	-0.0531	28.1431	-4.6689	16.3590	0.6191	-0.2316	0.7240	0.1972
11.38	-9.7503	0.0741	-1.5870	-0.0382	-0.0110	-0.0498	28.4108	-4.5752	16.2873	0.6191	-0.2317	0.7239	0.1973
11.39	-9.7759	0.0624	-1.5891	-0.0361	-0.0071	-0.0491	28.1786	-4.5682	16.2896	0.6191	-0.2318	0.7240	0.1974
11.4	-9.7584	0.0463	-1.6048	-0.0368	-0.0134	-0.0470	28.3752	-4.6902	16.3618	0.6190	-0.2319	0.7239	0.1975
11.41	-9.7455	0.0327	-1.5806	-0.0356	-0.0187	-0.0491	28.3805	-4.6127	16.2484	0.6190	-0.2320	0.7239	0.1976
11.42	-9.7837	0.0381	-1.5854	-0.0363	-0.0182	-0.0485	28.3961	-4.3807	16.2794	0.6189	-0.2320	0.7238	0.1976
