time	acceleration_x	acceleration_y	acceleration_z	gyroscope_x	gyroscope_y	gyroscope_z	magnetometer_x	magnetometer_y	magnetometer_z	quaternion_w	quaternion_x	quaternion_y	quaternion_z
0	0.1460	-9.9575	1.3786	-0.0020	-0.0073	-0.0245	10.6737	25.5312	-4.5384	-0.7300	0.6334	-0.1462	0.2110
0.01	0.1622	-9.9707	1.3611	-0.0038	0.0019	-0.0197	10.8619	25.5194	-4.4987	-0.7300	0.6334	-0.1462	0.2110
0.02	0.1124	-9.9103	1.3240	-0.0065	0.0053	-0.0116	10.8615	25.5562	-4.5222	-0.7299	0.6334	-0.1462	0.2110
0.03	0.0634	-9.9095	1.3140	0.0135	0.0095	-0.0176	10.8563	25.6976	-4.6113	-0.7300	0.6335	-0.1463	0.2110
0.04	0.0808	-9.9118	1.3422	0.0123	-0.0017	-0.0237	10.8812	25.5382	-4.4683	-0.7299	0.6334	-0.1463	0.2110
0.05	0.1066	-9.9056	1.3929	0.0034	-0.0011	-0.0249	10.7917	25.4729	-4.5994	-0.7300	0.6335	-0.1463	0.2111
0.06	0.1159	-9.9029	1.3946	-0.0097	0.0060	-0.0257	10.7506	25.3546	-4.6122	-0.7298	0.6335	-0.1463	0.2111
0.07	0.1139	-9.9205	1.3691	-0.0337	-0.0013	-0.0255	10.9081	25.4598	-4.4575	-0.7297	0.6337	-0.1463	0.2111
0.08	0.1331	-9.9485	1.3523	-0.0489	-0.0070	-0.0256	10.6046	25.3644	-4.4007	-0.7295	0.6339	-0.1463	0.2111
0.09	0.1611	-9.9815	1.3052	-0.0424	-0.0027	-0.0227	10.6392	25.3202	-4.4280	-0.7293	0.6340	-0.1463	0.2111
0.1	0.1625	-10.0062	1.2703	-0.0270	0.0018	-0.0138	10.9138	25.6144	-4.4127	-0.7293	0.6343	-0.1464	0.2111
0.11	0.1595	-9.9902	1.2592	0.0019	-0.0026	-0.0140	10.8084	25.4185	-4.5844	-0.7292	0.6342	-0.1464	0.2110
0.12	0.1691	-9.9690	1.2825	0.0346	-0.0028	-0.0102	10.7147	25.7556	-4.3528	-0.7293	0.6342	-0.1464	0.2110
0.13	0.1646	-9.9342	1.3369	0.0408	-0.0030	-0.0070	10.5790	25.7278	-4.3241	-0.7294	0.6340	-0.1464	0.2110
0.14	0.1512	-9.9036	1.3841	0.0374	0.0079	-0.0033	10.4989	25.6379	-4.4358	-0.7295	0.6339	-0.1465	0.2110
0.15	0.1452	-9.8930	1.4133	0.0206	0.0063	-0.0092	10.8533	25.6366	-4.2721	-0.7296	0.6338	-0.1465	0.2110
0.16	0.1479	-9.8908	1.4069	-0.0107	0.0085	-0.0033	10.8094	25.7188	-4.4448	-0.7295	0.6339	-0.1466	0.2110
0.17	0.1402	-9.9122	1.3728	-0.0232	0.0158	-0.0028	10.5537	25.8404	-4.3179	-0.7294	0.6340	-0.1467	0.2110
0.18	0.1340	-9.9448	1.3225	-0.0366	0.0245	-0.0042	10.6266	25.6764	-4.4933	-0.7293	0.6341	-0.1469	0.2110
0.19	0.1206	-9.9721	1.2885	-0.0191	0.0220	-0.0006	10.5531	25.5957	-4.5218	-0.7292	0.6342	-0.1471	0.2110
0.2	0.1022	-9.9774	1.2816	-0.0005	0.0156	-0.0026	10.7648	25.4527	-4.5223	-0.7291	0.6341	-0.1472	0.2110
0.21	0.0968	-9.9625	1.2950	0.0201	0.0135	-0.0027	11.0056	25.4906	-4.2682	-0.7292	0.6341	-0.1473	0.2110
0.22	0.0763	-9.9667	1.3446	0.0209	0.0106	-0.0009	10.7384	25.4371	-4.4010	-0.7292	0.6340	-0.1474	0.2110
0.23	0.0830	-9.9400	1.3580	0.0179	0.0083	-0.0080	10.9136	25.3370	-4.4087	-0.7293	0.6340	-0.1475	0.2110
0.24	0.0778	-9.9209	1.3560	0.0043	0.0101	-0.0056	11.0678	25.6136	-4.5321	-0.7292	0.6339	-0.1475	0.2110
0.25	0.0646	-9.9330	1.3422	-0.0122	0.0110	-0.0105	11.0158	25.4926	-4.6183	-0.7292	0.6340	-0.1476	0.2110
0.26	0.0794	-9.9249	1.3014	-0.0101	0.0051	-0.0143	10.8684	25.3242	-4.4028	-0.7292	0.6341	-0.1477	0.2110
0.27	0.0790	-9.9163	1.2903	-0.0051	0.0129	-0.0148	10.8571	25.4979	-4.4441	-0.7290	0.6340	-0.1477	0.2110
0.28	0.0668	-9.9147	1.3083	0.0213	0.0115	-0.0170	10.8595	25.4441	-4.2875	-0.7291	0.6341	-0.1478	0.2111
0.29	0.0642	-9.9027	1.3282	0.0247	0.0051	-0.0145	10.7288	25.6834	-4.5631	-0.7291	0.6340	-0.1478	0.2111
0.3	0.0653	-9.9046	1.3805	0.0203	0.0030	-0.0127	10.8548	25.7585	-4.5857	-0.7293	0.6340	-0.1478	0.2111
0.31	0.0734	-9.9347	1.4007	0.0032	0.0033	-0.0155	10.8702	25.7373	-4.2944	-0.7291	0.6339	-0.1478	0.2111
0.32	0.0877	-9.9370	1.3690	-0.0311	0.0016	-0.0241	10.7233	25.7118	-4.2297	-0.7291	0.6341	-0.1479	0.2111
0.33	0.1009	-9.9335	1.3090	-0.0411	0.0002	-0.0254	10.8625	25.6574	-4.2684	-0.7289	0.6342	-0.1479	0.2111
0.34	0.1212	-10.0013	1.2820	-0.0366	-0.0017	-0.0222	11.1642	26.1332	-4.4668	-0.7287	0.6344	-0.1479	0.2111
0.35	0.1323	-10.0247	1.2554	-0.0199	0.0022	-0.0239	11.6403	25.6584	-4.1933	-0.7287	0.6346	-0.1480	0.2112
0.36	0.1331	-9.9788	1.2443	0.0051	-0.0067	-0.0160	11.1435	25.8487	-4.4651	-0.7286	0.6345	-0.1480	0.2111
0.37	0.1566	-9.9533	1.2650	0.0393	0.0000	-0.0164	10.6493	26.0191	-4.4559	-0.7287	0.6345	-0.1479	0.2112
0.38	0.1791	-9.9631	1.3447	0.0448	-0.0038	-0.0069	10.6872	25.3828	-4.4409	-0.7288	0.6343	-0.1479	0.2111
0.39	0.1657	-9.9469	1.3969	0.0402	0.0025	0.0006	10.7949	25.6234	-4.2761	-0.7290	0.6342	-0.1479	0.2111
0.4	0.1347	-9.9117	1.3903	0.0189	0.0077	-0.0045	10.8895	25.5123	-4.2920	-0.7290	0.6341	-0.1480	0.2111
0.41	0.1240	-9.8983	1.3660	0.0015	0.0037	-0.0021	10.8190	25.3775	-4.3340	-0.7290	0.6341	-0.1481	0.2111
0.42	0.1484	-9.9231	1.3608	-0.0054	-0.0000	-0.0009	10.9895	25.4945	-4.4596	-0.7290	0.6341	-0.1482	0.2110
0.43	0.1588	-9.9491	1.3684	-0.0064	0.0062	-0.0010	10.8788	25.5846	-4.4947	-0.7289	0.6342	-0.1482	0.2110
0.44	0.1131	-9.9115	1.3434	0.0025	0.0249	0.0009	10.7096	25.7732	-4.4593	-0.7289	0.6342	-0.1484	0.2110
0.45	0.0459	-9.8494	1.3260	0.0134	0.0260	0.0021	10.9038	25.5605	-4.5809	-0.7289	0.6340	-0.1485	0.2110
0.46	-0.0007	-9.8489	1.3453	0.0060	0.0248	0.0021	10.6939	25.3639	-4.3487	-0.7289	0.6341	-0.1487	0.2110
0.47	0.0016	-9.8761	1.3738	-0.0045	0.0178	-0.0066	11.0448	25.5295	-4.3776	-0.7289	0.6341	-0.1488	0.2111
0.48	0.0066	-9.9024	1.3728	-0.0284	0.0105	-0.0173	10.8526	25.4268	-4.4708	-0.7288	0.6342	-0.1489	0.2111
0.49	-0.0000	-9.9243	1.3355	-0.0469	0.0204	-0.0174	10.4366	25.6979	-4.2178	-0.7286	0.6343	-0.1490	0.2111
0.5	-0.0064	-9.9427	1.2802	-0.0432	0.0168	-0.0220	10.7947	25.6093	-4.3898	-0.7284	0.6345	-0.1491	0.2112
0.51	-0.0060	-9.9646	1.2471	-0.0319	0.0110	-0.0235	10.7296	25.5472	-4.2581	-0.7283	0.6347	-0.1492	0.2112
0.52	0.0046	-9.9779	1.2501	-0.0122	0.0028	-0.0250	10.8828	25.5738	-4.2387	-0.7281	0.6347	-0.1492	0.2112
0.53	0.0167	-9.9540	1.2630	0.0082	-0.0060	-0.0244	10.7277	25.6645	-4.2507	-0.7282	0.6348	-0.1492	0.2113
0.54	0.0308	-9.9404	1.3084	0.0098	-0.0139	-0.0229	10.8295	25.4950	-4.0729	-0.7281	0.6348	-0.1491	0.2112
0.55	0.0591	-9.9431	1.3343	0.0038	-0.0096	-0.0245	10.8297	25.5061	-4.0896	-0.7282	0.6348	-0.1491	0.2113
0.56	0.0778	-9.9478	1.3341	-0.0183	-0.0194	-0.0262	10.6210	25.7104	-4.3925	-0.7280	0.6349	-0.1490	0.2112
0.57	0.0864	-9.9610	1.3073	-0.0397	-0.0219	-0.0226	10.9841	25.6840	-4.4105	-0.7279	0.6351	-0.1490	0.2111
0.58	0.1129	-9.9852	1.2551	-0.0374	-0.0183	-0.0127	11.0058	25.3711	-4.3033	-0.7278	0.6353	-0.1490	0.2110
0.59	0.1367	-10.0109	1.2251	-0.0349	-0.0237	-0.0153	10.8570	25.6916	-4.3610	-0.7276	0.6354	-0.1489	0.2109
0.6	0.1555	-10.0231	1.2203	-0.0113	-0.0179	-0.0149	10.7411	25.5315	-4.2172	-0.7277	0.6356	-0.1489	0.2109
0.61	0.1616	-9.9854	1.2107	0.0141	-0.0144	-0.0149	10.6814	25.4561	-4.4185	-0.7276	0.6356	-0.1488	0.2108
0.62	0.1294	-9.9858	1.2667	0.0343	-0.0097	-0.0087	10.8727	25.5269	-4.4270	-0.7278	0.6355	-0.1488	0.2108
0.63	0.0971	-9.9853	1.3075	0.0319	-0.0069	-0.0046	10.8503	25.6889	-4.4392	-0.7278	0.6353	-0.1488	0.2107
0.64	0.1098	-9.9053	1.2904	0.0207	-0.0069	-0.0181	10.8681	25.4865	-4.5286	-0.7279	0.6353	-0.1488	0.2108
0.65	0.1272	-9.9242	1.3212	0.0165	-0.0116	-0.0193	10.8341	25.5400	-4.3561	-0.7279	0.6353	-0.1487	0.2107
0.66	0.1472	-9.9905	1.3394	0.0169	-0.0010	-0.0249	10.6498	25.5055	-4.3203	-0.7279	0.6353	-0.1487	0.2108
0.67	0.1357	-9.9507	1.3023	0.0077	0.0081	-0.0226	10.8025	25.4471	-4.3671	-0.7279	0.6353	-0.1487	0.2108
0.68	0.0646	-9.9215	1.2792	0.0113	0.0140	-0.0204	10.8494	25.7742	-4.2721	-0.7279	0.6353	-0.1487	0.2109
0.69	0.0581	-9.9327	1.2670	0.0182	0.0024	-0.0243	10.7227	25.6325	-4.1014	-0.7280	0.6352	-0.1487	0.2110
0.7	0.0855	-9.9262	1.3063	0.0226	-0.0118	-0.0239	10.8978	25.4434	-4.2528	-0.7279	0.6351	-0.1486	0.2110
0.71	0.1102	-9.9254	1.3433	0.0217	-0.0084	-0.0246	10.5995	25.5067	-4.3628	-0.7280	0.6352	-0.1486	0.2110
0.72	0.1245	-9.9320	1.3357	0.0125	-0.0066	-0.0237	10.7922	25.5831	-4.1339	-0.7280	0.6351	-0.1485	0.2110
0.73	0.1335	-9.9246	1.3378	0.0038	-0.0089	-0.0248	10.9009	25.5488	-4.2911	-0.7280	0.6352	-0.1485	0.2110
0.74	0.1624	-9.9466	1.3259	-0.0097	-0.0106	-0.0211	10.7447	25.7434	-4.4768	-0.7279	0.6352	-0.1484	0.2110
0.75	0.1837	-9.9685	1.3008	-0.0095	-0.0092	-0.0201	10.7858	25.7684	-4.4116	-0.7279	0.6353	-0.1484	0.2110
0.76	0.1807	-9.9631	1.2870	-0.0025	-0.0086	-0.0135	10.5507	25.6313	-4.4674	-0.7279	0.6354	-0.1484	0.2110
0.77	0.1833	-9.9538	1.2828	0.0249	-0.0029	-0.0119	10.7530	25.4447	-4.3235	-0.7279	0.6353	-0.1484	0.2109
0.78	0.1798	-9.9323	1.2999	0.0392	0.0029	-0.0079	10.9921	25.5994	-4.3568	-0.7281	0.6352	-0.1484	0.2110
0.79	0.1648	-9.9166	1.3375	0.0411	0.0022	-0.0043	10.7736	25.3789	-4.2986	-0.7281	0.6350	-0.1484	0.2110
0.8	0.1528	-9.9037	1.3684	0.0367	0.0013	-0.0040	11.0126	25.4457	-4.4686	-0.7283	0.6350	-0.1484	0.2110
0.81	0.1439	-9.8955	1.3826	0.0179	0.0095	-0.0047	10.6291	25.5813	-4.6609	-0.7282	0.6348	-0.1485	0.2109
0.82	0.1400	-9.9163	1.3681	-0.0088	0.0050	-0.0097	10.7417	25.4259	-4.3154	-0.7282	0.6349	-0.1485	0.2110
0.83	0.1269	-9.9348	1.3481	-0.0132	0.0113	-0.0083	11.1184	25.5994	-4.2155	-0.7282	0.6350	-0.1486	0.2110
0.84	0.1088	-9.9402	1.3046	-0.0145	0.0099	-0.0035	11.5361	26.0194	-4.2798	-0.7281	0.6350	-0.1487	0.2109
0.85	0.0944	-9.9589	1.2878	-0.0061	0.0136	-0.0060	11.8432	25.7256	-4.1081	-0.7281	0.6351	-0.1488	0.2110
0.86	0.0928	-9.9711	1.2918	0.0059	0.0190	-0.0101	11.0756	25.8880	-4.3716	-0.7280	0.6350	-0.1489	0.2110
0.87	0.0877	-9.9595	1.3070	0.0142	0.0145	-0.0127	10.5996	26.0071	-4.3623	-0.7281	0.6350	-0.1490	0.2110
0.88	0.0790	-9.9537	1.3255	0.0218	0.0139	-0.0140	10.7412	25.6732	-4.3455	-0.7280	0.6349	-0.1490	0.2111
0.89	0.0732	-9.9433	1.3356	0.0169	0.0104	-0.0185	10.9287	25.8595	-4.3049	-0.7281	0.6349	-0.1491	0.2111
0.9	0.0708	-9.9175	1.3282	0.0161	0.0140	-0.0094	10.7239	25.7831	-4.4411	-0.7281	0.6348	-0.1491	0.2112
0.91	0.0547	-9.9412	1.3306	0.0127	0.0084	-0.0123	10.7156	25.5386	-4.3146	-0.7281	0.6348	-0.1492	0.2112
0.92	0.0371	-9.9291	1.3171	0.0129	0.0065	-0.0130	10.7251	25.6520	-4.4943	-0.7282	0.6348	-0.1492	0.2112
0.93	0.0222	-9.8754	1.3202	0.0212	0.0028	-0.0079	10.5781	25.7321	-4.5689	-0.7282	0.6347	-0.1492	0.2112
0.94	0.0131	-9.8978	1.3555	0.0289	-0.0031	-0.0134	10.5160	25.7477	-4.2126	-0.7283	0.6347	-0.1492	0.2112
0.95	0.0424	-9.8820	1.3808	0.0247	-0.0177	-0.0223	10.6241	25.5499	-4.5867	-0.7283	0.6345	-0.1491	0.2112
0.96	0.0749	-9.8762	1.4145	0.0154	-0.0147	-0.0232	10.7573	25.4314	-4.4754	-0.7284	0.6346	-0.1490	0.2112
0.97	0.0940	-9.9206	1.4274	-0.0062	-0.0104	-0.0245	10.8242	25.6435	-4.5728	-0.7283	0.6346	-0.1490	0.2112
0.98	0.1166	-9.9465	1.4051	-0.0291	-0.0162	-0.0255	10.7896	25.5657	-4.4051	-0.7282	0.6348	-0.1489	0.2112
0.99	0.1354	-9.9432	1.3485	-0.0380	-0.0098	-0.0242	10.9167	25.4401	-4.4588	-0.7280	0.6349	-0.1489	0.2112
1	0.1631	-9.9573	1.3020	-0.0263	-0.0152	-0.0250	10.7562	25.5905	-4.6202	-0.7279	0.6351	-0.1489	0.2111
1.01	0.1678	-9.9943	1.3090	-0.0077	-0.0079	-0.0247	10.6953	25.4777	-4.2855	-0.7279	0.6352	-0.1488	0.2111
1.02	0.1673	-9.9720	1.3197	0.0164	-0.0032	-0.0225	10.7969	25.4417	-4.4343	-0.7278	0.6351	-0.1488	0.2112
1.03	0.1632	-9.9338	1.3361	0.0332	-0.0118	-0.0241	10.9342	25.5727	-4.5460	-0.7280	0.6351	-0.1487	0.2112
1.04	0.1664	-9.8939	1.3651	0.0368	-0.0046	-0.0207	10.8577	25.5205	-4.4852	-0.7281	0.6350	-0.1486	0.2112
1.05	0.1837	-9.9079	1.4079	0.0248	0.0044	-0.0138	10.7452	25.6238	-4.3934	-0.7282	0.6350	-0.1486	0.2113
1.06	0.1757	-9.9454	1.4310	0.0007	0.0113	-0.0153	10.6035	25.7229	-4.5670	-0.7281	0.6349	-0.1487	0.2113
1.07	0.1415	-9.9229	1.3872	-0.0088	0.0084	-0.0136	10.6708	25.8615	-4.3653	-0.7280	0.6350	-0.1487	0.2113
1.08	0.1257	-9.9218	1.3486	-0.0122	0.0063	-0.0107	10.7363	25.8957	-4.5624	-0.7280	0.6350	-0.1488	0.2113
1.09	0.1697	-9.9698	1.3484	-0.0064	0.0026	-0.0155	10.7150	25.6176	-4.3385	-0.7279	0.6350	-0.1488	0.2113
1.1	0.1898	-9.9793	1.3637	0.0114	0.0091	-0.0024	10.7043	25.6472	-4.3541	-0.7280	0.6351	-0.1489	0.2113
1.11	0.1374	-9.9241	1.3413	0.0166	0.0305	-0.0017	10.7539	25.7750	-4.4443	-0.7279	0.6350	-0.1490	0.2114
1.12	0.0562	-9.8610	1.3271	0.0189	0.0362	0.0024	10.6228	26.0610	-4.5066	-0.7280	0.6349	-0.1492	0.2115
1.13	0.0189	-9.8323	1.3574	0.0194	0.0195	0.0011	10.7279	25.6784	-4.5308	-0.7280	0.6347	-0.1493	0.2115
1.14	0.0344	-9.8619	1.3983	-0.0058	0.0014	-0.0005	10.9148	25.5482	-4.5399	-0.7280	0.6348	-0.1494	0.2114
1.15	0.0540	-9.8939	1.4062	-0.0296	0.0098	-0.0083	10.9337	25.4842	-4.4544	-0.7279	0.6349	-0.1495	0.2114
1.16	0.0429	-9.9031	1.3444	-0.0476	0.0159	-0.0199	11.0202	25.5343	-4.4922	-0.7277	0.6351	-0.1496	0.2114
1.17	0.0218	-9.9360	1.2876	-0.0514	0.0128	-0.0225	10.8896	25.4463	-4.5371	-0.7275	0.6353	-0.1497	0.2115
1.18	0.0473	-9.9662	1.2585	-0.0304	0.0057	-0.0247	10.7374	25.4962	-4.3792	-0.7273	0.6354	-0.1497	0.2115
1.19	0.0768	-9.9684	1.2708	-0.0012	0.0070	-0.0223	10.7674	25.5530	-4.5126	-0.7273	0.6355	-0.1498	0.2116
1.2	0.0576	-9.9618	1.2964	0.0170	0.0094	-0.0181	10.8289	25.6265	-4.5383	-0.7273	0.6354	-0.1498	0.2116
1.21	0.0438	-9.9380	1.3279	0.0234	0.0080	-0.0160	10.7893	25.5228	-4.5065	-0.7274	0.6354	-0.1498	0.2117
1.22	0.0456	-9.9080	1.3634	0.0212	0.0049	-0.0194	10.6617	25.5989	-4.5486	-0.7274	0.6353	-0.1498	0.2117
1.23	0.0601	-9.9267	1.3806	-0.0085	-0.0023	-0.0216	10.8893	25.6380	-4.4470	-0.7274	0.6354	-0.1498	0.2117
1.24	0.0656	-9.9256	1.3498	-0.0301	-0.0022	-0.0192	10.8194	25.7237	-4.3436	-0.7272	0.6355	-0.1498	0.2117
1.25	0.0615	-9.9348	1.3150	-0.0356	-0.0073	-0.0223	10.6758	25.8463	-4.3171	-0.7271	0.6357	-0.1498	0.2117
1.26	0.0846	-9.9541	1.2934	-0.0324	-0.0117	-0.0159	10.9921	25.7630	-4.4260	-0.7270	0.6358	-0.1498	0.2117
1.27	0.0983	-9.9623	1.2847	-0.0176	-0.0087	-0.0189	10.9042	25.6164	-4.3543	-0.7268	0.6359	-0.1498	0.2116
1.28	0.1034	-9.9363	1.2779	-0.0121	-0.0052	-0.0233	10.7983	25.7573	-4.2303	-0.7269	0.6361	-0.1498	0.2116
1.29	0.0928	-9.9461	1.3096	0.0058	-0.0049	-0.0167	10.8044	25.6921	-4.2296	-0.7268	0.6360	-0.1497	0.2116
1.3	0.0841	-9.9573	1.3402	-0.0018	-0.0083	-0.0146	10.8546	25.8197	-4.1059	-0.7268	0.6361	-0.1497	0.2116
1.31	0.1181	-9.9119	1.3110	-0.0116	-0.0113	-0.0218	10.5862	25.7205	-4.2998	-0.7267	0.6361	-0.1497	0.2116
1.32	0.1563	-9.9322	1.3194	-0.0100	-0.0118	-0.0249	10.6852	25.4909	-4.0608	-0.7267	0.6362	-0.1496	0.2116
1.33	0.1752	-9.9926	1.3375	-0.0106	0.0004	-0.0251	11.0935	25.4472	-4.1335	-0.7266	0.6363	-0.1496	0.2116
1.34	0.1580	-9.9608	1.2981	-0.0111	0.0076	-0.0211	11.6799	25.4900	-4.4565	-0.7265	0.6363	-0.1496	0.2116
1.35	0.1035	-9.9075	1.2709	0.0052	0.0110	-0.0124	11.2512	25.5729	-4.2243	-0.7266	0.6364	-0.1497	0.2117
1.36	0.0965	-9.9322	1.2976	0.0149	-0.0015	-0.0229	10.6891	25.6985	-4.2778	-0.7265	0.6363	-0.1497	0.2117
1.37	0.1260	-9.9181	1.3452	0.0171	-0.0007	-0.0250	10.6552	25.9135	-4.3595	-0.7266	0.6363	-0.1496	0.2118
1.38	0.1336	-9.8947	1.3678	-0.0015	0.0027	-0.0250	10.5679	25.4988	-4.3260	-0.7265	0.6363	-0.1496	0.2118
1.39	0.1388	-9.9227	1.3558	-0.0139	0.0075	-0.0271	10.7290	25.6964	-4.2604	-0.7264	0.6364	-0.1496	0.2119
1.4	0.1556	-9.9302	1.3339	-0.0383	-0.0022	-0.0298	10.5117	25.5670	-4.2033	-0.7263	0.6366	-0.1496	0.2119
1.41	0.1876	-9.9614	1.3084	-0.0416	-0.0001	-0.0279	10.8037	25.5569	-4.1413	-0.7261	0.6367	-0.1496	0.2119
1.42	0.1941	-9.9939	1.2735	-0.0329	0.0062	-0.0250	10.7591	25.5354	-4.2592	-0.7260	0.6369	-0.1497	0.2120
1.43	0.1859	-9.9871	1.2509	-0.0142	0.0098	-0.0224	10.5520	25.7208	-4.2768	-0.7259	0.6370	-0.1497	0.2120
1.44	0.1936	-9.9949	1.2561	-0.0031	0.0115	-0.0240	10.6368	25.6635	-4.1854	-0.7258	0.6370	-0.1497	0.2121
1.45	0.2015	-9.9703	1.2772	0.0155	0.0094	-0.0144	10.4923	25.6368	-4.1653	-0.7258	0.6369	-0.1497	0.2121
1.46	0.1849	-9.9291	1.3012	0.0194	0.0115	-0.0132	10.6245	25.6130	-4.1355	-0.7259	0.6369	-0.1498	0.2122
1.47	0.1772	-9.9351	1.3246	0.0105	0.0129	-0.0180	10.5794	25.7221	-4.2541	-0.7259	0.6369	-0.1498	0.2123
1.48	0.1852	-9.9367	1.3340	-0.0065	0.0110	-0.0099	10.6766	25.8733	-4.4262	-0.7258	0.6369	-0.1499	0.2123
1.49	0.1820	-9.9176	1.3225	-0.0112	0.0147	-0.0121	10.7207	25.6797	-4.1119	-0.7257	0.6369	-0.1500	0.2123
1.5	0.1716	-9.9413	1.3028	-0.0106	0.0162	-0.0107	10.6406	25.7741	-4.0750	-0.7257	0.6370	-0.1501	0.2123
1.51	0.1662	-9.9449	1.2812	-0.0108	0.0154	-0.0059	10.6176	25.8170	-4.2734	-0.7256	0.6371	-0.1502	0.2124
1.52	0.1638	-9.9286	1.2849	-0.0096	0.0206	-0.0103	10.8624	25.4466	-4.1762	-0.7255	0.6370	-0.1503	0.2124
1.53	0.1535	-9.9371	1.3037	0.0072	0.0304	-0.0188	10.9956	25.4735	-3.9254	-0.7256	0.6371	-0.1504	0.2125
1.54	0.1278	-9.9309	1.3180	0.0012	0.0208	-0.0133	10.7425	25.4617	-4.0126	-0.7255	0.6370	-0.1504	0.2126
1.55	0.1205	-9.8875	1.3162	-0.0064	0.0238	-0.0171	10.9481	25.4739	-4.1578	-0.7255	0.6371	-0.1506	0.2127
1.56	0.1153	-9.9040	1.3299	-0.0121	0.0276	-0.0141	10.8686	25.4406	-4.1492	-0.7253	0.6371	-0.1507	0.2127
1.57	0.1142	-9.9383	1.3320	-0.0146	0.0283	-0.0121	10.6528	25.7319	-4.1890	-0.7253	0.6371	-0.1508	0.2128
1.58	0.1168	-9.9240	1.3072	-0.0306	0.0185	-0.0130	10.8716	25.6674	-4.2964	-0.7251	0.6372	-0.1509	0.2129
1.59	0.1068	-9.9137	1.2794	-0.0319	0.0194	-0.0162	10.8903	25.6354	-4.2081	-0.7250	0.6373	-0.1510	0.2129
1.6	0.0991	-9.9399	1.2764	-0.0141	0.0204	-0.0119	10.6440	25.6315	-4.4139	-0.7250	0.6375	-0.1511	0.2130
1.61	0.1018	-9.9496	1.2875	-0.0132	0.0075	-0.0199	10.6184	25.5416	-4.3867	-0.7248	0.6375	-0.1512	0.2130
1.62	0.1139	-9.9222	1.2774	-0.0097	0.0151	-0.0175	10.7439	25.7609	-4.1387	-0.7248	0.6376	-0.1512	0.2131
1.63	0.1075	-9.9498	1.2953	-0.0116	0.0191	-0.0183	10.5762	25.6309	-4.1769	-0.7246	0.6375	-0.1513	0.2131
1.64	0.1052	-9.9770	1.2947	-0.0107	0.0136	-0.0228	10.5061	25.5178	-4.0330	-0.7246	0.6376	-0.1513	0.2132
1.65	0.1150	-9.9514	1.2753	-0.0205	0.0075	-0.0203	10.6821	25.5965	-4.1254	-0.7245	0.6377	-0.1514	0.2132
1.66	0.1301	-9.9256	1.2475	-0.0180	0.0053	-0.0253	10.7019	25.7287	-4.2103	-0.7244	0.6378	-0.1514	0.2133
1.67	0.1406	-9.9700	1.2573	-0.0109	0.0110	-0.0204	10.6020	25.7338	-3.9198	-0.7244	0.6379	-0.1514	0.2133
1.68	0.1684	-9.9695	1.2695	-0.0131	-0.0010	-0.0237	10.4555	25.7063	-4.3413	-0.7243	0.6379	-0.1514	0.2134
1.69	0.1754	-9.9575	1.2586	-0.0097	0.0025	-0.0210	10.6405	25.7767	-4.2348	-0.7242	0.6380	-0.1514	0.2134
1.7	0.1625	-9.9533	1.2563	-0.0101	0.0036	-0.0170	10.7951	25.4625	-4.1120	-0.7241	0.6380	-0.1514	0.2134
1.71	0.1716	-9.9578	1.2633	-0.0101	0.0026	-0.0122	10.6702	25.4488	-4.3137	-0.7241	0.6381	-0.1515	0.2134
1.72	0.1792	-9.9701	1.2793	-0.0101	0.0106	-0.0045	10.8569	25.6299	-4.0259	-0.7240	0.6382	-0.1516	0.2134
1.73	0.1486	-9.9792	1.2786	-0.0132	0.0165	0.0017	10.8884	25.4060	-4.1876	-0.7240	0.6382	-0.1517	0.2134
1.74	0.1148	-9.9844	1.2491	-0.0200	0.0086	0.0003	10.7487	25.6244	-4.0254	-0.7239	0.6383	-0.1518	0.2134
1.75	0.1242	-9.9535	1.2183	-0.0117	0.0095	-0.0006	10.6984	25.7981	-3.9022	-0.7238	0.6383	-0.1519	0.2133
1.76	0.1402	-9.9973	1.2474	0.0009	0.0065	0.0018	10.6493	25.5865	-4.1940	-0.7238	0.6383	-0.1520	0.2133
1.77	0.1446	-9.9902	1.2642	0.0050	0.0094	0.0012	10.4964	25.6435	-4.1472	-0.7238	0.6383	-0.1521	0.2133
1.78	0.1041	-9.9003	1.2383	0.0072	0.0256	0.0022	10.6061	25.6708	-4.1725	-0.7239	0.6383	-0.1522	0.2133
1.79	0.0318	-9.8870	1.2591	0.0060	0.0230	0.0016	10.9406	25.6929	-4.0071	-0.7238	0.6382	-0.1523	0.2134
1.8	0.0324	-9.8768	1.2576	-0.0127	0.0100	0.0010	10.8596	25.6865	-3.9379	-0.7238	0.6383	-0.1525	0.2134
1.81	0.0529	-9.8674	1.2623	-0.0290	0.0073	0.0011	10.5526	25.8280	-4.2047	-0.7236	0.6383	-0.1526	0.2133
1.82	0.0254	-9.9123	1.2482	-0.0461	0.0153	-0.0004	10.8538	25.7245	-4.1200	-0.7235	0.6385	-0.1527	0.2133
1.83	-0.0031	-9.9293	1.1940	-0.0612	0.0145	-0.0033	10.9220	25.8654	-3.8828	-0.7233	0.6387	-0.1529	0.2132
1.84	-0.0085	-9.9369	1.1747	-0.0574	0.0012	-0.0058	11.6425	25.7475	-3.8863	-0.7231	0.6389	-0.1530	0.2131
1.85	0.0139	-9.9567	1.1614	-0.0401	-0.0026	-0.0173	11.4254	25.7984	-3.8289	-0.7230	0.6392	-0.1530	0.2132
1.86	0.0302	-9.9780	1.1650	-0.0285	-0.0089	-0.0135	10.9383	25.7849	-3.9141	-0.7228	0.6393	-0.1530	0.2131
1.87	0.0316	-9.9765	1.1846	-0.0187	-0.0027	-0.0175	10.8571	26.0823	-3.9336	-0.7228	0.6394	-0.1530	0.2131
1.88	0.0443	-9.9716	1.1878	-0.0159	-0.0065	-0.0182	10.6714	25.7043	-3.9794	-0.7226	0.6394	-0.1530	0.2131
1.89	0.0578	-9.9780	1.1860	-0.0249	-0.0169	-0.0225	10.9558	25.6211	-3.7983	-0.7226	0.6396	-0.1530	0.2130
1.9	0.0639	-9.9889	1.1815	-0.0264	-0.0183	-0.0241	10.7911	25.6693	-3.9583	-0.7225	0.6397	-0.1529	0.2130
1.91	0.0763	-9.9951	1.1533	-0.0343	-0.0144	-0.0254	10.8520	25.5545	-3.8700	-0.7223	0.6399	-0.1529	0.2130
1.92	0.0871	-10.0221	1.1463	-0.0362	-0.0232	-0.0213	11.0022	25.4639	-3.7597	-0.7222	0.6401	-0.1528	0.2129
1.93	0.1140	-10.0276	1.1363	-0.0290	-0.0213	-0.0220	10.9329	25.5866	-3.9963	-0.7221	0.6402	-0.1527	0.2128
1.94	0.1280	-10.0307	1.1273	-0.0202	-0.0196	-0.0227	10.6261	25.7384	-3.9422	-0.7221	0.6404	-0.1527	0.2128
1.95	0.1281	-9.9803	1.1082	-0.0058	-0.0133	-0.0173	10.5879	25.6383	-3.9558	-0.7219	0.6404	-0.1526	0.2128
1.96	0.0881	-9.9709	1.1374	0.0132	-0.0070	-0.0164	10.8590	25.5392	-3.8484	-0.7220	0.6404	-0.1526	0.2128
1.97	0.0523	-10.0062	1.1726	0.0157	-0.0196	-0.0218	10.7156	25.5468	-4.1550	-0.7220	0.6404	-0.1525	0.2128
1.98	0.0870	-9.9420	1.1584	0.0100	-0.0267	-0.0249	10.7117	25.6147	-3.8318	-0.7221	0.6404	-0.1524	0.2127
1.99	0.1176	-9.9351	1.1950	0.0147	-0.0239	-0.0252	10.5925	25.7466	-3.9858	-0.7221	0.6404	-0.1522	0.2127
2	0.1233	-9.9784	1.2164	0.0076	-0.0042	-0.0223	10.6460	25.7228	-3.9145	-0.7221	0.6404	-0.1522	0.2127
2.01	0.0887	-9.9405	1.2063	-0.0012	-0.0112	-0.0200	10.7425	25.7246	-3.8392	-0.7221	0.6405	-0.1521	0.2127
2.02	0.0566	-9.9102	1.1917	-0.0058	-0.0165	-0.0229	10.6153	25.7852	-3.8706	-0.7220	0.6405	-0.1520	0.2127
2.03	0.0719	-9.9147	1.1734	-0.0089	-0.0234	-0.0255	10.5977	26.0637	-3.8686	-0.7220	0.6407	-0.1519	0.2127
2.04	0.1047	-9.9130	1.1869	-0.0107	-0.0302	-0.0270	10.8140	25.7530	-3.8536	-0.7219	0.6407	-0.1518	0.2126
2.05	0.1351	-9.9281	1.1868	-0.0159	-0.0222	-0.0307	10.6562	25.7912	-3.9225	-0.7219	0.6409	-0.1517	0.2126
2.06	0.1626	-9.9440	1.1849	-0.0214	-0.0294	-0.0323	10.5156	25.8241	-4.0749	-0.7218	0.6409	-0.1515	0.2126
2.07	0.1881	-9.9713	1.1856	-0.0144	-0.0309	-0.0311	10.6260	25.5742	-3.8948	-0.7217	0.6411	-0.1514	0.2125
2.08	0.2199	-9.9788	1.1591	-0.0329	-0.0259	-0.0288	10.6578	25.5201	-3.8348	-0.7216	0.6413	-0.1513	0.2125
2.09	0.2189	-10.0254	1.1684	-0.0273	-0.0221	-0.0238	10.7103	25.6648	-3.9331	-0.7215	0.6414	-0.1512	0.2124
2.1	0.2141	-10.0221	1.1457	-0.0108	-0.0140	-0.0254	10.8022	25.4087	-4.0715	-0.7215	0.6416	-0.1512	0.2124
2.11	0.2159	-9.9696	1.1285	-0.0087	-0.0154	-0.0227	10.7642	25.2811	-3.8465	-0.7214	0.6416	-0.1511	0.2124
2.12	0.2016	-9.9895	1.1631	0.0116	-0.0073	-0.0225	10.6347	25.6842	-3.9298	-0.7215	0.6416	-0.1510	0.2124
2.13	0.1990	-9.9837	1.1842	0.0111	-0.0137	-0.0189	10.5006	25.5895	-3.9777	-0.7214	0.6415	-0.1509	0.2124
2.14	0.2014	-9.9585	1.1899	-0.0055	-0.0168	-0.0227	10.6661	25.7171	-3.6965	-0.7214	0.6417	-0.1509	0.2124
2.15	0.1976	-9.9772	1.1814	-0.0182	-0.0057	-0.0203	10.7068	25.6428	-3.8441	-0.7213	0.6417	-0.1508	0.2124
2.16	0.2002	-9.9967	1.1496	-0.0339	-0.0029	-0.0142	10.7399	25.4934	-3.8520	-0.7212	0.6419	-0.1509	0.2124
2.17	0.1903	-10.0220	1.1346	-0.0289	0.0000	-0.0132	10.4725	25.8664	-3.8763	-0.7211	0.6420	-0.1509	0.2123
2.18	0.1901	-10.0193	1.0972	-0.0242	-0.0014	-0.0149	10.4861	25.6729	-3.6965	-0.7210	0.6421	-0.1509	0.2123
2.19	0.1742	-9.9981	1.0908	0.0028	0.0025	-0.0052	10.7028	25.7866	-3.7173	-0.7210	0.6421	-0.1510	0.2123
2.2	0.1533	-9.9731	1.1092	0.0315	0.0080	-0.0067	10.3959	25.9185	-3.8892	-0.7210	0.6420	-0.1510	0.2123
2.21	0.1501	-9.9472	1.1469	0.0424	0.0022	-0.0125	10.5717	25.8720	-3.8544	-0.7212	0.6419	-0.1510	0.2124
2.22	0.1405	-9.9385	1.1985	0.0299	0.0036	-0.0141	10.6399	25.7982	-3.8744	-0.7212	0.6418	-0.1510	0.2124
2.23	0.1326	-9.9275	1.2177	0.0156	0.0082	-0.0143	10.5938	25.5341	-3.8458	-0.7213	0.6418	-0.1510	0.2125
2.24	0.1226	-9.9042	1.1945	0.0002	0.0108	-0.0208	10.6418	25.6665	-3.8706	-0.7212	0.6417	-0.1510	0.2125
2.25	0.1072	-9.9158	1.1809	-0.0109	0.0004	-0.0187	10.6994	25.9610	-3.8466	-0.7212	0.6418	-0.1510	0.2126
2.26	0.1171	-9.9358	1.1637	-0.0084	0.0010	-0.0192	10.7650	25.6962	-3.9290	-0.7211	0.6419	-0.1510	0.2126
2.27	0.1253	-9.9223	1.1510	-0.0119	-0.0033	-0.0220	10.8124	25.7513	-3.9745	-0.7210	0.6419	-0.1510	0.2126
2.28	0.1202	-9.9597	1.1778	-0.0024	-0.0060	-0.0197	10.6854	25.6117	-3.8227	-0.7211	0.6420	-0.1509	0.2126
2.29	0.1369	-9.9960	1.2047	-0.0071	-0.0055	-0.0235	10.8574	25.6765	-4.0512	-0.7210	0.6420	-0.1509	0.2126
2.3	0.1538	-9.9771	1.2003	-0.0088	-0.0076	-0.0232	10.9154	25.5630	-3.9763	-0.7210	0.6421	-0.1509	0.2127
2.31	0.1649	-9.9599	1.1586	-0.0126	-0.0044	-0.0254	10.7599	25.5551	-3.8393	-0.7208	0.6421	-0.1508	0.2126
2.32	0.1741	-10.0041	1.1577	-0.0126	-0.0071	-0.0249	10.7189	25.5430	-3.8612	-0.7208	0.6423	-0.1508	0.2127
2.33	0.1832	-10.0230	1.1624	-0.0096	-0.0088	-0.0249	10.8295	25.7952	-3.8616	-0.7207	0.6423	-0.1507	0.2127
2.34	0.2005	-9.9752	1.1386	0.0084	0.0001	-0.0233	11.0811	26.0728	-3.8673	-0.7207	0.6423	-0.1507	0.2127
2.35	0.2094	-9.9362	1.1362	0.0218	-0.0023	-0.0237	10.8685	25.8589	-3.7287	-0.7208	0.6423	-0.1506	0.2128
2.36	0.1885	-9.9678	1.1985	0.0250	0.0074	-0.0234	10.8968	25.8273	-3.8735	-0.7208	0.6422	-0.1506	0.2129
2.37	0.1877	-9.9590	1.2285	0.0190	0.0044	-0.0253	10.4910	26.0692	-3.8187	-0.7209	0.6422	-0.1506	0.2130
2.38	0.1693	-9.9600	1.2432	0.0013	0.0049	-0.0191	10.5579	25.8061	-3.8083	-0.7208	0.6421	-0.1505	0.2130
2.39	0.1728	-9.9791	1.2356	-0.0088	0.0065	-0.0234	10.7702	25.8382	-3.6926	-0.7208	0.6422	-0.1506	0.2130
2.4	0.2031	-9.9859	1.1937	-0.0158	0.0050	-0.0226	10.6141	25.8053	-3.7254	-0.7207	0.6423	-0.1506	0.2131
2.41	0.1909	-9.9879	1.1615	-0.0161	0.0107	-0.0197	10.5981	25.6316	-3.6823	-0.7206	0.6424	-0.1506	0.2131
2.42	0.1646	-9.9436	1.1247	-0.0026	0.0135	-0.0181	10.8041	25.6817	-3.8325	-0.7206	0.6424	-0.1507	0.2132
2.43	0.1220	-9.9258	1.1593	0.0220	0.0132	-0.0099	10.5154	25.7270	-3.7512	-0.7206	0.6423	-0.1507	0.2133
2.44	0.1136	-9.8919	1.1929	0.0268	0.0007	-0.0121	10.5346	25.8237	-3.7355	-0.7207	0.6423	-0.1507	0.2133
2.45	0.1079	-9.8890	1.2433	0.0129	-0.0039	-0.0134	10.4946	25.7549	-3.9408	-0.7206	0.6422	-0.1506	0.2133
2.46	0.1037	-9.8925	1.2541	-0.0172	-0.0067	-0.0195	10.7789	25.5311	-3.7291	-0.7206	0.6423	-0.1506	0.2133
2.47	0.1255	-9.9057	1.2145	-0.0453	-0.0121	-0.0256	10.7401	25.7378	-3.9058	-0.7204	0.6425	-0.1506	0.2133
2.48	0.1386	-9.9740	1.1803	-0.0613	-0.0073	-0.0257	10.6922	25.7546	-3.7542	-0.7203	0.6427	-0.1506	0.2132
2.49	0.1572	-9.9898	1.1111	-0.0576	-0.0079	-0.0256	10.6168	25.6430	-3.5784	-0.7200	0.6430	-0.1506	0.2132
2.5	0.1550	-10.0142	1.0783	-0.0403	-0.0157	-0.0253	10.4805	25.5458	-3.7688	-0.7199	0.6432	-0.1506	0.2132
2.51	0.1772	-10.0209	1.0875	-0.0163	-0.0132	-0.0251	10.7616	25.4026	-3.8345	-0.7198	0.6433	-0.1505	0.2132
2.52	0.2025	-10.0050	1.1074	0.0094	-0.0169	-0.0245	10.4975	25.7626	-4.0289	-0.7197	0.6433	-0.1504	0.2132
2.53	0.1936	-10.0084	1.1532	0.0157	-0.0072	-0.0237	10.4615	25.7045	-3.8396	-0.7199	0.6433	-0.1503	0.2132
2.54	0.1791	-9.9862	1.1545	0.0053	-0.0107	-0.0273	10.6414	25.6948	-3.6597	-0.7198	0.6433	-0.1502	0.2132
2.55	0.1808	-9.9791	1.1568	0.0069	-0.0183	-0.0297	10.3848	25.7001	-3.7495	-0.7199	0.6434	-0.1501	0.2133
2.56	0.2053	-10.0014	1.1536	-0.0155	-0.0161	-0.0253	10.5514	25.6189	-3.5916	-0.7197	0.6434	-0.1500	0.2132
2.57	0.2108	-10.0052	1.1310	-0.0124	-0.0071	-0.0243	10.3757	25.9248	-3.5310	-0.7197	0.6435	-0.1500	0.2133
2.58	0.2013	-9.9697	1.0892	-0.0118	-0.0087	-0.0248	10.3176	25.8977	-3.7190	-0.7196	0.6436	-0.1499	0.2133
2.59	0.1875	-9.9061	1.0623	-0.0006	-0.0114	-0.0252	10.4120	25.9421	-3.7103	-0.7195	0.6436	-0.1499	0.2133
2.6	0.1522	-9.9912	1.1389	0.0170	-0.0102	-0.0235	10.5577	25.7878	-3.8253	-0.7197	0.6437	-0.1498	0.2133
2.61	0.1799	-10.0123	1.1647	-0.0046	-0.0175	-0.0276	10.3368	25.7531	-3.6504	-0.7196	0.6436	-0.1497	0.2133
2.62	0.2316	-9.9135	1.1307	-0.0067	-0.0237	-0.0278	10.4170	25.9101	-3.8391	-0.7196	0.6438	-0.1496	0.2133
2.63	0.2365	-9.9896	1.1672	-0.0023	-0.0155	-0.0283	10.4311	25.9392	-3.5965	-0.7195	0.6437	-0.1495	0.2133
2.64	0.2697	-10.0263	1.1491	-0.0119	-0.0120	-0.0324	10.4510	25.7674	-3.8906	-0.7195	0.6439	-0.1494	0.2133
2.65	0.2547	-9.9598	1.1171	-0.0117	-0.0112	-0.0264	10.5440	25.7710	-3.8363	-0.7194	0.6440	-0.1493	0.2133
2.66	0.2125	-9.9976	1.1211	-0.0059	0.0007	-0.0271	10.5120	25.5864	-3.8530	-0.7193	0.6440	-0.1493	0.2134
2.67	0.2332	-9.9629	1.0924	0.0071	-0.0058	-0.0281	10.5128	25.4649	-3.9309	-0.7193	0.6440	-0.1492	0.2134
2.68	0.2292	-9.9349	1.1365	0.0105	-0.0181	-0.0227	10.4013	25.7243	-3.8528	-0.7193	0.6440	-0.1491	0.2134
2.69	0.2531	-9.9665	1.1485	0.0053	-0.0001	-0.0322	10.4617	25.8045	-4.0001	-0.7194	0.6441	-0.1490	0.2135
2.7	0.2734	-9.9453	1.1417	-0.0078	-0.0061	-0.0271	10.3356	25.8423	-3.9163	-0.7192	0.6440	-0.1490	0.2135
2.71	0.2521	-9.9424	1.1364	-0.0183	-0.0011	-0.0264	10.3257	25.7205	-3.5521	-0.7192	0.6442	-0.1490	0.2136
2.72	0.2664	-9.9750	1.0916	-0.0160	0.0055	-0.0302	10.3770	25.7479	-3.6703	-0.7191	0.6443	-0.1489	0.2136
2.73	0.2698	-9.9948	1.0858	-0.0086	-0.0006	-0.0234	10.4766	25.7488	-3.5330	-0.7191	0.6443	-0.1489	0.2137
2.74	0.2699	-9.9946	1.0792	-0.0101	0.0005	-0.0253	10.2957	25.7255	-3.5197	-0.7190	0.6444	-0.1489	0.2137
2.75	0.2581	-10.0273	1.0821	0.0070	0.0084	-0.0238	10.5295	25.7808	-3.6815	-0.7189	0.6444	-0.1489	0.2138
2.76	0.2519	-9.9810	1.1088	0.0093	-0.0041	-0.0248	10.4169	25.8460	-3.7282	-0.7190	0.6444	-0.1488	0.2138
2.77	0.2645	-9.9358	1.1100	0.0161	0.0008	-0.0226	10.2287	25.8205	-3.7125	-0.7189	0.6443	-0.1488	0.2139
2.78	0.2549	-9.9757	1.1248	0.0124	-0.0020	-0.0239	10.2523	25.8206	-3.7152	-0.7190	0.6444	-0.1487	0.2139
2.79	0.2690	-9.9501	1.1267	0.0014	-0.0077	-0.0180	10.4323	25.8608	-3.7298	-0.7190	0.6443	-0.1487	0.2139
2.8	0.2680	-9.9868	1.1305	-0.0023	-0.0005	-0.0241	10.3265	25.9540	-3.9293	-0.7190	0.6444	-0.1487	0.2140
2.81	0.2715	-9.9831	1.1097	-0.0117	0.0000	-0.0256	10.1092	25.7997	-3.8016	-0.7188	0.6444	-0.1486	0.2140
2.82	0.2650	-9.9691	1.1049	-0.0029	-0.0017	-0.0198	10.3423	25.7251	-3.6940	-0.7188	0.6445	-0.1486	0.2140
2.83	0.2629	-9.9844	1.1028	0.0108	-0.0012	-0.0151	10.7054	25.7791	-3.5207	-0.7189	0.6445	-0.1486	0.2141
2.84	0.2686	-9.9739	1.1099	0.0098	-0.0002	-0.0060	11.2964	25.9602	-3.2802	-0.7188	0.6444	-0.1486	0.2140
2.85	0.2551	-9.9614	1.1180	0.0054	0.0061	-0.0137	11.0235	25.9699	-3.5932	-0.7189	0.6445	-0.1486	0.2141
2.86	0.2524	-9.9449	1.0887	0.0052	0.0074	-0.0172	10.5429	26.0880	-3.6333	-0.7189	0.6444	-0.1486	0.2141
2.87	0.2376	-9.9770	1.1138	0.0101	-0.0004	-0.0113	10.4651	25.9827	-3.6842	-0.7189	0.6445	-0.1486	0.2142
2.88	0.2436	-9.9722	1.1121	0.0024	0.0048	-0.0078	10.4395	25.6713	-3.8865	-0.7188	0.6444	-0.1486	0.2141
2.89	0.2422	-9.9712	1.1179	0.0095	-0.0009	-0.0157	10.4041	25.6178	-3.6779	-0.7189	0.6444	-0.1486	0.2142
2.9	0.2376	-9.9780	1.1149	0.0156	0.0053	-0.0164	10.3584	25.4825	-3.6635	-0.7189	0.6444	-0.1486	0.2142
2.91	0.2413	-9.9927	1.1237	0.0141	-0.0033	-0.0202	10.2424	25.6417	-3.6254	-0.7189	0.6443	-0.1486	0.2142
2.92	0.2650	-9.9617	1.1199	0.0088	0.0043	-0.0243	10.4016	25.6806	-3.8046	-0.7189	0.6443	-0.1486	0.2143
2.93	0.2812	-9.8866	1.0816	0.0087	0.0014	-0.0205	10.2408	25.7812	-3.6563	-0.7189	0.6443	-0.1485	0.2144
2.94	0.2469	-10.0039	1.1519	0.0217	0.0077	-0.0205	10.0369	25.9007	-3.5844	-0.7190	0.6443	-0.1485	0.2144
2.95	0.2875	-9.9957	1.1377	0.0124	0.0062	-0.0204	10.4231	25.5538	-3.7844	-0.7189	0.6442	-0.1485	0.2145
2.96	0.2971	-9.9255	1.1333	0.0143	-0.0069	-0.0139	10.1858	25.9989	-3.6296	-0.7190	0.6442	-0.1485	0.2145
2.97	0.2634	-9.9990	1.1667	0.0174	0.0161	-0.0167	10.2030	25.9076	-3.7000	-0.7190	0.6441	-0.1485	0.2146
2.98	0.2550	-10.0086	1.1605	0.0147	0.0037	-0.0059	10.0749	25.9020	-3.8754	-0.7191	0.6441	-0.1485	0.2146
2.99	0.2443	-9.9745	1.1836	0.0152	0.0008	-0.0021	10.0954	25.6768	-3.7165	-0.7191	0.6440	-0.1485	0.2146
3	0.2404	-10.0149	1.1801	0.0135	0.0079	-0.0051	10.2967	25.8623	-3.6825	-0.7191	0.6440	-0.1486	0.2146
3.01	0.2456	-10.0181	1.1615	0.0156	0.0007	0.0007	10.2698	25.6546	-3.5751	-0.7192	0.6440	-0.1486	0.2146
3.02	0.2352	-9.9988	1.1718	0.0143	0.0017	-0.0000	10.4922	25.6197	-3.6442	-0.7192	0.6438	-0.1486	0.2145
3.03	0.2326	-10.0042	1.1493	0.0174	0.0073	0.0000	10.1746	25.4884	-3.7544	-0.7193	0.6439	-0.1487	0.2145
3.04	0.2060	-9.9487	1.1382	0.0280	0.0115	0.0045	10.5215	25.7771	-3.6481	-0.7193	0.6437	-0.1488	0.2145
3.05	0.1711	-9.9216	1.1611	0.0396	0.0068	-0.0010	10.4083	25.6811	-3.8728	-0.7195	0.6436	-0.1488	0.2146
3.06	0.1744	-9.9449	1.1829	0.0242	0.0094	-0.0028	10.2201	25.5830	-3.8121	-0.7195	0.6435	-0.1488	0.2146
3.07	0.1789	-9.9058	1.1789	0.0068	-0.0001	-0.0053	10.5204	25.7487	-3.8806	-0.7196	0.6435	-0.1489	0.2146
3.08	0.1765	-9.8978	1.1631	-0.0090	0.0005	-0.0033	10.3528	25.5054	-3.7714	-0.7195	0.6435	-0.1489	0.2145
3.09	0.1776	-9.9623	1.1477	-0.0122	0.0118	-0.0122	10.6629	25.5634	-3.7383	-0.7194	0.6435	-0.1490	0.2145
3.1	0.1776	-9.9744	1.1313	-0.0149	-0.0030	-0.0136	10.3730	25.5855	-3.8520	-0.7195	0.6437	-0.1490	0.2146
3.11	0.1811	-9.9402	1.0936	-0.0065	0.0078	-0.0120	10.2566	25.5850	-3.7127	-0.7193	0.6436	-0.1490	0.2146
3.12	0.1653	-9.9639	1.0922	0.0133	0.0070	-0.0162	10.4127	26.0213	-4.0447	-0.7194	0.6437	-0.1490	0.2146
3.13	0.1739	-9.9710	1.1229	0.0229	-0.0039	-0.0181	10.2187	25.8414	-3.9473	-0.7194	0.6435	-0.1490	0.2146
3.14	0.2004	-9.9555	1.1591	0.0304	-0.0061	-0.0208	10.3130	26.0343	-3.8036	-0.7195	0.6435	-0.1489	0.2147
3.15	0.2019	-9.9600	1.1837	0.0170	-0.0046	-0.0179	10.3287	25.7030	-3.7319	-0.7195	0.6434	-0.1488	0.2147
3.16	0.1893	-9.9513	1.1682	0.0030	0.0011	-0.0194	10.1577	25.7975	-3.7750	-0.7195	0.6434	-0.1488	0.2147
3.17	0.2008	-9.9574	1.1582	-0.0094	-0.0050	-0.0224	10.1728	25.7681	-3.7279	-0.7195	0.6435	-0.1488	0.2148
3.18	0.2308	-9.9807	1.1433	-0.0104	-0.0062	-0.0234	10.4449	25.8834	-3.9433	-0.7194	0.6436	-0.1487	0.2148
3.19	0.2428	-10.0033	1.1253	-0.0094	-0.0135	-0.0153	10.3832	25.9224	-3.8711	-0.7194	0.6437	-0.1487	0.2148
3.2	0.2388	-9.9807	1.1001	-0.0036	-0.0011	-0.0108	10.3290	25.5540	-3.8493	-0.7193	0.6436	-0.1487	0.2147
3.21	0.2192	-9.9347	1.0917	0.0162	-0.0049	-0.0103	10.3674	25.6682	-3.8161	-0.7194	0.6437	-0.1487	0.2148
3.22	0.1966	-9.9974	1.1524	0.0138	-0.0155	-0.0198	10.6411	25.4062	-3.7611	-0.7194	0.6436	-0.1486	0.2147
3.23	0.2431	-9.9822	1.1435	0.0028	-0.0155	-0.0237	10.5265	25.6019	-3.8848	-0.7194	0.6437	-0.1485	0.2147
3.24	0.2788	-9.9263	1.1305	-0.0013	-0.0203	-0.0250	10.5405	25.7080	-3.7279	-0.7194	0.6437	-0.1484	0.2147
3.25	0.2715	-9.9705	1.1357	-0.0104	-0.0082	-0.0246	10.4921	25.7464	-3.6306	-0.7193	0.6438	-0.1483	0.2147
3.26	0.2749	-9.9809	1.1120	-0.0069	-0.0020	-0.0246	10.4556	25.7793	-3.7170	-0.7193	0.6438	-0.1483	0.2148
3.27	0.2618	-9.9747	1.1154	-0.0033	0.0009	-0.0244	10.6677	25.5945	-3.8332	-0.7192	0.6438	-0.1483	0.2148
3.28	0.2667	-9.9840	1.1002	0.0010	0.0129	-0.0242	10.3730	25.6331	-3.9750	-0.7192	0.6439	-0.1483	0.2149
3.29	0.2457	-9.9597	1.0937	0.0186	0.0058	-0.0174	10.3661	25.7614	-4.0196	-0.7192	0.6438	-0.1483	0.2150
3.3	0.2226	-9.9643	1.1256	0.0165	0.0058	-0.0213	10.2807	25.8143	-3.8506	-0.7193	0.6438	-0.1483	0.2151
3.31	0.2590	-9.9602	1.1298	0.0134	0.0058	-0.0245	10.2465	25.7776	-3.7552	-0.7192	0.6437	-0.1482	0.2151
3.32	0.2667	-9.9668	1.1572	0.0051	0.0078	-0.0241	10.2802	25.6920	-3.7537	-0.7193	0.6437	-0.1482	0.2152
3.33	0.2543	-10.0246	1.1606	-0.0100	0.0156	-0.0246	10.6328	25.7344	-3.5428	-0.7192	0.6438	-0.1482	0.2153
3.34	0.2659	-10.0017	1.1005	-0.0114	0.0117	-0.0242	11.1260	25.6368	-3.3782	-0.7191	0.6438	-0.1482	0.2154
3.35	0.2648	-9.9729	1.0702	-0.0089	0.0007	-0.0203	10.7702	25.8123	-3.8358	-0.7191	0.6439	-0.1483	0.2154
3.36	0.2699	-10.0764	1.0947	0.0116	0.0100	-0.0238	10.2591	26.1023	-3.7149	-0.7190	0.6439	-0.1482	0.2155
3.37	0.2993	-10.0416	1.0881	0.0225	0.0021	-0.0155	10.1942	26.2273	-3.7815	-0.7191	0.6438	-0.1482	0.2155
3.38	0.2755	-9.9943	1.1177	0.0440	0.0024	-0.0077	10.1491	25.6621	-3.7343	-0.7192	0.6436	-0.1482	0.2155
3.39	0.2559	-10.0204	1.1474	0.0479	0.0113	-0.0125	10.2808	25.7765	-3.7194	-0.7194	0.6435	-0.1482	0.2156
3.4	0.2556	-9.9469	1.1606	0.0462	-0.0002	-0.0017	10.4243	25.8327	-3.8650	-0.7195	0.6433	-0.1482	0.2156
3.41	0.2215	-9.9748	1.2236	0.0443	0.0074	-0.0109	10.4280	25.8127	-4.0202	-0.7196	0.6432	-0.1481	0.2157
3.42	0.2345	-10.0018	1.2098	0.0294	0.0135	-0.0141	10.4598	25.8249	-3.7592	-0.7197	0.6431	-0.1482	0.2158
3.43	0.2283	-9.9257	1.1724	0.0169	0.0068	-0.0068	10.2248	25.6931	-4.0224	-0.7197	0.6430	-0.1482	0.2158
3.44	0.2020	-9.9691	1.1805	0.0204	0.0136	-0.0133	10.2046	25.7665	-4.0606	-0.7198	0.6430	-0.1482	0.2159
3.45	0.2238	-9.9849	1.1502	0.0134	0.0088	-0.0152	10.2794	25.6101	-3.8744	-0.7197	0.6428	-0.1482	0.2159
3.46	0.2198	-9.9368	1.1627	0.0200	0.0035	-0.0100	10.2509	25.7912	-3.9004	-0.7199	0.6428	-0.1482	0.2160
3.47	0.2051	-9.9716	1.1691	0.0357	0.0106	-0.0163	10.4015	25.6169	-3.7522	-0.7199	0.6427	-0.1482	0.2160
3.48	0.2098	-9.9857	1.1704	0.0335	0.0023	-0.0205	10.2368	25.5712	-3.6025	-0.7200	0.6426	-0.1482	0.2161
3.49	0.2230	-9.9390	1.1819	0.0263	-0.0008	-0.0155	10.2659	25.8764	-3.7431	-0.7201	0.6425	-0.1481	0.2161
3.5	0.2370	-9.9748	1.1765	0.0270	0.0088	-0.0193	10.3593	25.6437	-3.8087	-0.7201	0.6424	-0.1481	0.2162
3.51	0.2371	-10.0045	1.1891	0.0299	0.0066	-0.0132	10.3368	25.6938	-3.8529	-0.7202	0.6424	-0.1481	0.2163
3.52	0.2451	-9.9313	1.1664	0.0336	0.0047	-0.0142	10.3475	25.8210	-3.9315	-0.7202	0.6422	-0.1481	0.2163
3.53	0.2327	-9.9297	1.1604	0.0416	0.0101	-0.0194	10.3471	25.9294	-3.7770	-0.7204	0.6421	-0.1481	0.2164
3.54	0.2359	-9.9389	1.1808	0.0407	0.0099	-0.0196	10.3377	25.8832	-4.0041	-0.7205	0.6419	-0.1480	0.2165
3.55	0.2474	-9.9498	1.2260	0.0403	0.0015	-0.0219	10.3596	25.7172	-3.9236	-0.7207	0.6419	-0.1480	0.2166
3.56	0.2828	-9.9393	1.2231	0.0419	0.0067	-0.0246	10.2383	25.7489	-3.8681	-0.7207	0.6417	-0.1479	0.2167
3.57	0.2822	-9.9174	1.2291	0.0399	0.0061	-0.0205	10.2724	25.6946	-4.0666	-0.7208	0.6416	-0.1479	0.2168
3.58	0.2550	-9.9294	1.2314	0.0276	0.0163	-0.0176	10.6004	25.8133	-4.0591	-0.7209	0.6415	-0.1479	0.2169
3.59	0.2635	-9.9376	1.2187	0.0166	0.0078	-0.0219	10.6232	25.7445	-4.1831	-0.7208	0.6414	-0.1478	0.2169
3.6	0.2661	-9.9447	1.2235	0.0166	0.0135	-0.0189	10.5153	25.6337	-4.1569	-0.7210	0.6414	-0.1479	0.2170
3.61	0.2609	-9.9712	1.2265	0.0298	0.0216	-0.0236	10.3600	25.7636	-4.0774	-0.7209	0.6412	-0.1479	0.2172
3.62	0.2582	-9.9728	1.2191	0.0286	0.0240	-0.0121	10.3674	25.9610	-4.0369	-0.7210	0.6412	-0.1479	0.2173
3.63	0.2386	-9.9290	1.2252	0.0385	0.0279	-0.0143	10.2366	26.0251	-3.9645	-0.7210	0.6409	-0.1480	0.2174
3.64	0.2201	-9.9040	1.2195	0.0391	0.0266	-0.0102	10.1859	25.7524	-4.2614	-0.7212	0.6408	-0.1480	0.2175
3.65	0.1994	-9.9209	1.2399	0.0129	0.0245	-0.0045	10.2547	25.8680	-4.0680	-0.7212	0.6407	-0.1481	0.2176
3.66	0.1854	-9.9098	1.2401	0.0063	0.0181	-0.0053	10.3422	25.4195	-4.1739	-0.7212	0.6407	-0.1482	0.2176
3.67	0.1662	-9.9307	1.2241	-0.0039	0.0142	-0.0113	10.2287	25.6995	-4.1601	-0.7212	0.6407	-0.1483	0.2177
3.68	0.1779	-9.9496	1.2020	-0.0110	0.0115	-0.0190	10.1812	25.8228	-3.9512	-0.7211	0.6408	-0.1483	0.2177
3.69	0.2042	-9.9207	1.1637	-0.0128	0.0049	-0.0241	10.2745	25.8908	-4.0151	-0.7211	0.6409	-0.1483	0.2178
3.7	0.1891	-9.9542	1.1692	0.0030	0.0101	-0.0215	10.3326	25.8296	-3.9808	-0.7209	0.6408	-0.1483	0.2179
3.71	0.1904	-9.9273	1.1482	0.0180	0.0048	-0.0227	10.2399	25.8176	-3.9922	-0.7211	0.6408	-0.1483	0.2180
3.72	0.1961	-9.8823	1.1635	0.0157	-0.0047	-0.0232	10.1181	25.7852	-3.8467	-0.7211	0.6408	-0.1482	0.2180
3.73	0.2180	-9.9401	1.2226	0.0200	-0.0099	-0.0220	10.2602	25.6924	-4.0071	-0.7211	0.6407	-0.1482	0.2180
3.74	0.2547	-9.9279	1.2309	0.0065	-0.0095	-0.0264	10.2485	25.7497	-3.9730	-0.7211	0.6407	-0.1481	0.2180
3.75	0.2288	-9.9072	1.2225	-0.0086	-0.0022	-0.0104	10.2686	25.8331	-4.0335	-0.7211	0.6408	-0.1481	0.2180
3.76	0.2081	-9.9852	1.2102	-0.0204	-0.0008	-0.0158	10.4239	25.8104	-4.0736	-0.7210	0.6409	-0.1481	0.2180
3.77	0.2342	-9.9967	1.1667	-0.0361	-0.0127	-0.0192	10.4470	25.8329	-3.8503	-0.7208	0.6410	-0.1481	0.2180
3.78	0.2487	-9.9895	1.1557	-0.0219	-0.0116	-0.0122	10.3145	25.7080	-4.0578	-0.7208	0.6412	-0.1481	0.2180
3.79	0.2528	-10.0511	1.1573	-0.0061	-0.0020	-0.0212	10.2295	25.7637	-4.0537	-0.7207	0.6412	-0.1480	0.2180
3.8	0.2644	-10.0313	1.1592	0.0125	-0.0132	-0.0131	10.2751	25.6513	-3.9507	-0.7208	0.6412	-0.1480	0.2180
3.81	0.2400	-9.9439	1.1583	0.0192	-0.0105	-0.0141	10.2364	25.6355	-4.1090	-0.7208	0.6411	-0.1479	0.2179
3.82	0.2063	-9.9780	1.1846	0.0305	0.0020	-0.0214	10.2887	25.7574	-3.9368	-0.7209	0.6410	-0.1479	0.2180
3.83	0.2063	-10.0236	1.2244	0.0109	-0.0144	-0.0245	10.5817	25.7158	-3.8851	-0.7209	0.6410	-0.1478	0.2180
3.84	0.2748	-9.9494	1.1899	-0.0058	-0.0246	-0.0239	10.9494	25.7461	-3.9041	-0.7208	0.6411	-0.1476	0.2180
3.85	0.3164	-9.9837	1.1884	0.0008	-0.0124	-0.0268	10.6043	25.7991	-3.8267	-0.7209	0.6412	-0.1476	0.2180
3.86	0.3270	-9.9760	1.1583	0.0067	0.0059	-0.0250	10.3638	26.0488	-3.8562	-0.7208	0.6411	-0.1475	0.2181
3.87	0.2787	-9.9488	1.1617	0.0175	0.0044	-0.0190	10.2018	26.0729	-4.0201	-0.7209	0.6411	-0.1475	0.2182
3.88	0.2327	-10.0164	1.2158	0.0292	0.0075	-0.0150	9.9576	25.7427	-4.1856	-0.7209	0.6409	-0.1475	0.2182
3.89	0.2477	-9.9582	1.1948	0.0350	-0.0013	-0.0191	10.2572	25.8593	-4.0916	-0.7210	0.6409	-0.1474	0.2183
3.9	0.2413	-9.9014	1.2133	0.0363	-0.0064	-0.0209	10.1617	25.6959	-4.1126	-0.7211	0.6408	-0.1473	0.2183
3.91	0.2548	-9.9494	1.2386	0.0290	0.0006	-0.0235	10.1995	25.8474	-4.4142	-0.7212	0.6407	-0.1473	0.2184
3.92	0.2832	-9.9327	1.2368	0.0138	-0.0070	-0.0243	10.2904	26.1010	-3.9920	-0.7212	0.6407	-0.1472	0.2184
3.93	0.2761	-9.8913	1.2241	0.0168	0.0085	-0.0220	10.1359	25.6767	-3.9624	-0.7212	0.6406	-0.1472	0.2185
3.94	0.2694	-9.9363	1.2093	0.0111	0.0095	-0.0244	10.0871	25.7524	-3.9706	-0.7213	0.6406	-0.1472	0.2186
3.95	0.2873	-9.9515	1.2210	0.0111	-0.0118	-0.0260	10.1028	25.6006	-4.3648	-0.7212	0.6405	-0.1471	0.2186
3.96	0.3072	-9.9218	1.2252	0.0143	0.0023	-0.0210	10.2112	25.6462	-4.2891	-0.7213	0.6406	-0.1470	0.2187
3.97	0.2966	-9.9477	1.2209	0.0152	0.0109	-0.0192	10.3408	25.5792	-4.2434	-0.7213	0.6405	-0.1470	0.2188
3.98	0.2750	-9.9778	1.2393	0.0054	-0.0000	-0.0231	10.3888	25.4988	-4.1477	-0.7213	0.6405	-0.1470	0.2188
3.99	0.2936	-9.9565	1.2264	-0.0012	0.0037	-0.0148	10.3478	25.7505	-4.2433	-0.7213	0.6405	-0.1470	0.2188
4	0.2885	-9.9898	1.2156	-0.0097	0.0107	-0.0089	10.4125	25.6822	-4.3516	-0.7212	0.6405	-0.1471	0.2189
4.01	0.2744	-10.0245	1.2193	0.0066	0.0064	-0.0143	10.4609	25.5864	-4.3295	-0.7212	0.6406	-0.1471	0.2189
4.02	0.2939	-9.9802	1.1917	0.0193	0.0002	-0.0086	10.1455	25.7245	-4.2724	-0.7212	0.6404	-0.1471	0.2189
4.03	0.2949	-9.9718	1.2004	0.0366	0.0070	-0.0095	10.4418	25.6993	-3.9861	-0.7214	0.6404	-0.1471	0.2190
4.04	0.2895	-9.9670	1.2226	0.0448	0.0067	-0.0087	10.4272	25.7555	-4.1241	-0.7215	0.6402	-0.1471	0.2190
4.05	0.2772	-9.9255	1.2452	0.0443	0.0127	-0.0058	10.0771	25.8291	-4.1394	-0.7217	0.6401	-0.1471	0.2191
4.06	0.2699	-9.8876	1.2577	0.0327	0.0083	-0.0183	10.2093	25.7849	-4.2515	-0.7217	0.6399	-0.1471	0.2191
4.07	0.2672	-9.9107	1.2701	0.0188	0.0191	-0.0155	10.2906	25.6992	-4.0991	-0.7217	0.6399	-0.1471	0.2192
4.08	0.2591	-9.9206	1.2709	0.0041	0.0183	-0.0187	10.0995	25.7391	-4.2226	-0.7217	0.6398	-0.1472	0.2193
4.09	0.2488	-9.9228	1.2470	-0.0133	0.0222	-0.0219	10.0967	25.9303	-4.2441	-0.7216	0.6398	-0.1472	0.2194
4.1	0.2442	-9.9636	1.2231	-0.0086	0.0224	-0.0187	10.2057	25.7389	-4.2651	-0.7216	0.6399	-0.1473	0.2195
4.11	0.2669	-9.9759	1.2106	0.0049	0.0125	-0.0247	10.1895	25.7748	-4.1729	-0.7215	0.6399	-0.1473	0.2196
4.12	0.2705	-9.9458	1.2047	0.0211	0.0134	-0.0236	10.1964	25.9535	-3.9827	-0.7216	0.6399	-0.1473	0.2197
4.13	0.2457	-9.9383	1.2245	0.0424	0.0160	-0.0214	10.1948	25.7794	-4.2847	-0.7216	0.6396	-0.1473	0.2198
4.14	0.2544	-9.9629	1.2795	0.0421	0.0067	-0.0172	10.1794	25.5827	-4.2148	-0.7218	0.6396	-0.1473	0.2199
4.15	0.3025	-9.9261	1.2916	0.0243	-0.0008	-0.0239	10.3999	25.6905	-4.4587	-0.7218	0.6395	-0.1472	0.2200
4.16	0.3192	-9.9205	1.3012	0.0140	0.0064	-0.0183	10.5036	25.6742	-4.2601	-0.7218	0.6394	-0.1472	0.2201
4.17	0.2853	-9.9273	1.2677	-0.0066	0.0123	-0.0144	10.3188	25.4841	-4.1118	-0.7218	0.6395	-0.1472	0.2201
4.18	0.2709	-9.9301	1.2424	-0.0011	0.0064	-0.0130	10.2818	25.4851	-4.1534	-0.7218	0.6395	-0.1472	0.2201
4.19	0.2822	-9.9929	1.2702	0.0061	-0.0020	-0.0106	10.2490	25.7528	-4.1581	-0.7218	0.6395	-0.1472	0.2201
4.2	0.3024	-10.0106	1.2666	0.0146	0.0019	-0.0099	10.3965	25.6018	-4.0515	-0.7217	0.6394	-0.1472	0.2201
4.21	0.2862	-9.9797	1.2690	0.0191	0.0083	0.0005	10.3237	25.6520	-4.1577	-0.7219	0.6394	-0.1473	0.2202
4.22	0.2608	-9.9360	1.2708	0.0299	0.0195	0.0012	10.1450	25.7394	-4.2938	-0.7219	0.6392	-0.1474	0.2202
4.23	0.2276	-9.9049	1.2782	0.0289	0.0074	-0.0033	10.2063	25.6760	-4.0886	-0.7220	0.6391	-0.1474	0.2202
4.24	0.1976	-9.9183	1.3136	0.0122	0.0132	-0.0092	10.1969	25.9182	-3.9287	-0.7220	0.6390	-0.1474	0.2203
4.25	0.1896	-9.9283	1.3120	-0.0070	0.0141	-0.0118	10.0512	25.9948	-4.2728	-0.7220	0.6391	-0.1475	0.2203
4.26	0.1809	-9.9137	1.2803	-0.0254	0.0008	-0.0164	10.2317	25.9329	-4.1634	-0.7219	0.6392	-0.1475	0.2203
4.27	0.1887	-9.9071	1.2293	-0.0135	0.0011	-0.0241	10.3082	25.7698	-4.1725	-0.7218	0.6392	-0.1475	0.2203
4.28	0.2094	-9.9297	1.2084	-0.0082	-0.0039	-0.0246	10.1718	25.9287	-3.9963	-0.7218	0.6393	-0.1475	0.2204
4.29	0.2292	-9.9472	1.2324	-0.0053	-0.0065	-0.0244	10.1968	25.9753	-4.1958	-0.7217	0.6393	-0.1474	0.2204
4.3	0.2416	-9.9164	1.2234	0.0156	-0.0071	-0.0239	10.2023	25.7678	-4.4070	-0.7218	0.6394	-0.1474	0.2205
4.31	0.2409	-9.9101	1.2496	0.0155	-0.0145	-0.0239	10.1641	25.9135	-4.2046	-0.7218	0.6393	-0.1472	0.2205
4.32	0.2684	-9.9383	1.2914	0.0151	-0.0206	-0.0246	10.2470	25.8546	-4.2657	-0.7218	0.6393	-0.1471	0.2205
4.33	0.2980	-9.9378	1.3060	-0.0066	-0.0126	-0.0226	10.6309	25.6057	-4.1975	-0.7218	0.6394	-0.1471	0.2205
4.34	0.2868	-9.9385	1.2994	-0.0115	-0.0202	-0.0182	10.9596	25.6482	-4.0106	-0.7217	0.6394	-0.1470	0.2204
4.35	0.2771	-9.9533	1.2625	-0.0195	-0.0165	-0.0164	10.6123	25.6447	-4.0907	-0.7217	0.6396	-0.1469	0.2204
4.36	0.2977	-9.9582	1.2394	-0.0277	-0.0212	-0.0123	10.2603	25.7014	-3.9526	-0.7216	0.6397	-0.1469	0.2203
4.37	0.3255	-9.9716	1.2385	-0.0185	-0.0208	-0.0116	10.3079	25.9960	-4.0567	-0.7216	0.6398	-0.1468	0.2202
4.38	0.3317	-9.9750	1.2266	-0.0078	-0.0122	-0.0097	10.1264	25.6196	-4.0622	-0.7215	0.6398	-0.1468	0.2202
4.39	0.3147	-9.9817	1.2325	-0.0116	-0.0128	-0.0113	10.0333	25.6534	-4.0146	-0.7215	0.6399	-0.1468	0.2201
4.4	0.3222	-9.9376	1.2133	-0.0081	-0.0032	-0.0070	10.1215	25.8198	-4.0372	-0.7214	0.6399	-0.1468	0.2201
4.41	0.2964	-9.9282	1.2213	-0.0051	-0.0043	-0.0069	10.1090	25.8158	-4.0391	-0.7214	0.6400	-0.1468	0.2201
4.42	0.2631	-10.0220	1.2628	-0.0112	0.0052	-0.0176	9.9246	25.8388	-4.1981	-0.7214	0.6400	-0.1468	0.2201
4.43	0.3155	-9.9623	1.2019	-0.0175	0.0012	-0.0247	10.1608	25.9081	-4.0534	-0.7213	0.6401	-0.1468	0.2202
4.44	0.3347	-9.9489	1.1971	-0.0090	-0.0039	-0.0249	10.0778	25.7698	-4.0574	-0.7212	0.6402	-0.1468	0.2202
4.45	0.3323	-9.9856	1.1953	0.0017	0.0146	-0.0227	10.0491	25.9469	-3.8445	-0.7211	0.6401	-0.1468	0.2203
4.46	0.3048	-9.9546	1.1990	0.0149	0.0120	-0.0137	10.1750	25.7641	-4.1650	-0.7212	0.6402	-0.1468	0.2203
4.47	0.2551	-9.9222	1.2283	0.0146	0.0117	-0.0083	10.1413	25.6034	-3.9675	-0.7212	0.6401	-0.1469	0.2204
4.48	0.2606	-9.9219	1.2306	0.0180	0.0108	-0.0161	10.1468	25.9640	-4.0906	-0.7213	0.6400	-0.1469	0.2204
4.49	0.2688	-9.9176	1.2576	0.0014	0.0096	-0.0194	10.1564	25.6798	-3.9653	-0.7212	0.6400	-0.1469	0.2205
4.5	0.2806	-9.9288	1.2700	-0.0123	0.0042	-0.0205	10.2494	25.6896	-4.0251	-0.7212	0.6401	-0.1469	0.2206
4.51	0.3072	-9.9628	1.2406	-0.0215	0.0037	-0.0136	10.2430	25.8929	-4.0829	-0.7211	0.6402	-0.1469	0.2206
4.52	0.2916	-9.9601	1.2085	-0.0402	0.0051	-0.0110	10.2146	25.6993	-4.1560	-0.7209	0.6402	-0.1470	0.2205
4.53	0.2830	-9.9668	1.1695	-0.0286	0.0116	-0.0092	10.2827	25.7629	-4.3891	-0.7209	0.6404	-0.1471	0.2206
4.54	0.2833	-9.9843	1.1506	-0.0107	0.0089	-0.0110	10.1398	25.6876	-4.0353	-0.7208	0.6404	-0.1471	0.2206
4.55	0.2719	-9.9968	1.1758	-0.0033	0.0073	-0.0077	10.2823	25.6260	-4.1676	-0.7208	0.6405	-0.1472	0.2206
4.56	0.2725	-9.9807	1.1819	0.0099	0.0096	-0.0053	10.4360	25.7470	-4.0866	-0.7207	0.6404	-0.1472	0.2206
4.57	0.2569	-9.9578	1.1984	0.0096	0.0044	-0.0100	10.1980	25.7317	-4.0468	-0.7208	0.6404	-0.1472	0.2206
4.58	0.2474	-9.9372	1.2088	0.0090	0.0041	-0.0106	10.2122	25.7364	-3.9511	-0.7208	0.6404	-0.1473	0.2207
4.59	0.2633	-9.9249	1.2097	-0.0026	0.0054	-0.0071	10.1003	25.7402	-4.0696	-0.7207	0.6403	-0.1473	0.2207
4.6	0.2644	-9.9642	1.2256	-0.0102	0.0007	-0.0101	10.3872	25.6310	-4.1047	-0.7208	0.6405	-0.1473	0.2207
4.61	0.2676	-9.9747	1.2016	-0.0096	0.0066	-0.0081	10.2742	25.6636	-4.0086	-0.7207	0.6405	-0.1474	0.2207
4.62	0.2639	-9.9598	1.1701	-0.0095	0.0107	-0.0060	10.1878	25.6187	-3.7888	-0.7207	0.6405	-0.1474	0.2207
4.63	0.2543	-9.9592	1.1551	-0.0099	0.0122	-0.0098	10.0302	25.8289	-3.8059	-0.7205	0.6405	-0.1475	0.2207
4.64	0.2455	-9.9710	1.1633	-0.0031	0.0123	-0.0114	10.1003	25.9413	-3.9433	-0.7206	0.6406	-0.1476	0.2207
4.65	0.2231	-9.9762	1.1854	0.0193	0.0132	-0.0173	10.1632	25.8709	-4.0139	-0.7206	0.6405	-0.1476	0.2208
4.66	0.2141	-9.9479	1.1901	0.0116	0.0107	-0.0171	10.1522	25.7119	-3.9674	-0.7206	0.6404	-0.1476	0.2209
4.67	0.2186	-9.9658	1.2049	0.0106	0.0103	-0.0213	10.1369	25.8438	-4.0123	-0.7206	0.6404	-0.1476	0.2210
4.68	0.2209	-9.9998	1.2175	-0.0036	0.0102	-0.0227	10.0601	25.7979	-3.9593	-0.7206	0.6404	-0.1476	0.2210
4.69	0.2429	-9.9783	1.1952	-0.0086	0.0064	-0.0212	10.2474	25.9088	-4.0642	-0.7205	0.6405	-0.1476	0.2211
4.7	0.2302	-9.9572	1.1653	-0.0005	0.0019	-0.0249	10.2358	25.8415	-4.0836	-0.7204	0.6404	-0.1476	0.2211
4.71	0.2349	-9.9668	1.1553	0.0119	0.0081	-0.0219	10.3413	25.6996	-4.0798	-0.7205	0.6405	-0.1476	0.2212
4.72	0.2565	-10.0015	1.1766	0.0202	0.0020	-0.0234	10.1819	25.6207	-4.0605	-0.7205	0.6404	-0.1475	0.2213
4.73	0.2904	-9.9891	1.1979	0.0176	-0.0035	-0.0225	10.3454	25.7274	-4.1478	-0.7206	0.6404	-0.1475	0.2213
4.74	0.3249	-9.9565	1.1955	0.0299	0.0047	-0.0240	10.3110	25.7428	-4.2813	-0.7206	0.6403	-0.1474	0.2214
4.75	0.3012	-9.9795	1.2241	0.0332	0.0018	-0.0203	10.2352	25.7280	-4.2652	-0.7207	0.6402	-0.1474	0.2215
4.76	0.3039	-9.9856	1.2178	0.0143	0.0059	-0.0194	10.1980	25.7390	-4.2272	-0.7207	0.6401	-0.1474	0.2216
4.77	0.3280	-9.9884	1.2287	0.0176	0.0017	-0.0219	10.0430	25.7378	-4.0639	-0.7207	0.6400	-0.1473	0.2216
4.78	0.3446	-10.0121	1.2405	0.0227	0.0113	-0.0228	10.1642	25.6318	-3.9884	-0.7208	0.6401	-0.1473	0.2217
4.79	0.3340	-10.0187	1.2280	0.0239	0.0087	-0.0109	10.0037	25.6701	-4.1245	-0.7208	0.6399	-0.1473	0.2218
4.8	0.3093	-9.9285	1.2091	0.0382	0.0248	-0.0085	10.1627	25.8332	-3.9954	-0.7210	0.6398	-0.1474	0.2219
4.81	0.2607	-9.8833	1.2190	0.0432	0.0223	-0.0087	10.1363	25.8121	-3.9752	-0.7210	0.6396	-0.1474	0.2219
4.82	0.2259	-9.9246	1.2753	0.0360	0.0220	-0.0062	10.1708	25.7217	-4.1292	-0.7211	0.6395	-0.1475	0.2220
4.83	0.2352	-9.8892	1.2815	0.0156	0.0034	-0.0065	10.3156	25.9115	-3.7895	-0.7212	0.6394	-0.1475	0.2221
4.84	0.2181	-9.8929	1.2863	0.0012	0.0080	-0.0106	10.7008	25.9096	-3.6453	-0.7211	0.6394	-0.1475	0.2221
4.85	0.2192	-9.9311	1.2515	-0.0305	0.0114	-0.0134	10.6018	26.0435	-3.9202	-0.7211	0.6396	-0.1476	0.2221
4.86	0.2374	-9.9326	1.2011	-0.0259	-0.0020	-0.0166	10.2644	26.1175	-4.1614	-0.7209	0.6396	-0.1476	0.2221
4.87	0.2476	-9.9540	1.1766	-0.0119	0.0024	-0.0127	10.1944	26.2649	-4.2114	-0.7209	0.6397	-0.1477	0.2221
4.88	0.2469	-9.9708	1.1509	-0.0092	-0.0009	-0.0137	10.1563	25.7652	-4.2089	-0.7208	0.6397	-0.1476	0.2221
4.89	0.2437	-9.9565	1.1601	0.0232	-0.0100	-0.0153	10.2911	25.4808	-4.3198	-0.7209	0.6397	-0.1476	0.2221
4.9	0.2629	-9.9612	1.2054	0.0368	-0.0062	-0.0191	10.2218	25.5903	-4.0925	-0.7210	0.6396	-0.1475	0.2221
4.91	0.2876	-9.9508	1.2305	0.0245	-0.0117	-0.0147	10.3605	25.7136	-4.2139	-0.7211	0.6395	-0.1474	0.2221
4.92	0.2710	-9.9397	1.2524	0.0154	-0.0162	-0.0071	10.2502	25.7126	-4.2002	-0.7211	0.6395	-0.1474	0.2221
4.93	0.2711	-9.9471	1.2411	0.0004	-0.0128	-0.0164	10.1338	25.5888	-4.3928	-0.7211	0.6395	-0.1473	0.2221
4.94	0.2957	-9.9470	1.2196	-0.0127	-0.0126	-0.0164	10.0314	25.6768	-4.2994	-0.7211	0.6396	-0.1473	0.2220
4.95	0.3077	-9.9507	1.2092	-0.0107	-0.0097	-0.0193	10.2903	25.8322	-4.0709	-0.7210	0.6396	-0.1472	0.2220
4.96	0.3102	-9.9852	1.1948	-0.0115	-0.0037	-0.0102	10.2326	25.5420	-4.2631	-0.7210	0.6397	-0.1473	0.2220
4.97	0.3134	-9.9780	1.1843	-0.0029	-0.0046	-0.0090	10.1655	25.6024	-4.1492	-0.7210	0.6397	-0.1473	0.2220
4.98	0.3041	-9.9489	1.1787	0.0079	-0.0026	-0.0061	10.1215	25.8679	-4.3414	-0.7210	0.6397	-0.1473	0.2220
4.99	0.2834	-9.9088	1.1725	0.0149	0.0015	-0.0051	9.9681	26.1040	-4.1821	-0.7210	0.6397	-0.1473	0.2220
5	0.2342	-10.0014	1.2413	0.0124	0.0031	-0.0119	10.0040	25.8897	-4.0271	-0.7210	0.6396	-0.1473	0.2220
5.01	0.2946	-9.9998	1.2148	-0.0084	-0.0082	-0.0209	9.9922	25.7724	-4.1687	-0.7210	0.6397	-0.1473	0.2220
5.02	0.3453	-9.9315	1.1905	-0.0070	-0.0079	-0.0237	9.9929	25.8085	-4.0923	-0.7209	0.6397	-0.1472	0.2220
5.03	0.3260	-9.9819	1.2024	0.0127	0.0109	-0.0214	9.9938	25.9073	-4.2627	-0.7210	0.6398	-0.1472	0.2221
5.04	0.3128	-9.9724	1.1943	0.0150	0.0128	-0.0161	10.1529	25.8565	-4.1788	-0.7210	0.6397	-0.1472	0.2222
5.05	0.2726	-9.9247	1.2165	0.0234	0.0113	-0.0102	10.1899	25.7299	-4.2680	-0.7211	0.6396	-0.1472	0.2222
5.06	0.2676	-9.9249	1.2213	0.0347	0.0081	-0.0135	10.1589	25.6110	-3.9702	-0.7211	0.6394	-0.1472	0.2223
5.07	0.2906	-9.9086	1.2431	0.0199	0.0030	-0.0203	10.0729	25.7663	-4.1124	-0.7212	0.6394	-0.1472	0.2223
5.08	0.3059	-9.9254	1.2848	0.0135	0.0007	-0.0229	10.2734	25.6196	-4.3989	-0.7212	0.6394	-0.1472	0.2224
5.09	0.3129	-9.9621	1.2696	-0.0087	0.0109	-0.0239	10.1818	25.7121	-4.1675	-0.7211	0.6394	-0.1472	0.2224
5.1	0.3181	-9.9475	1.2366	-0.0089	0.0048	-0.0188	10.1622	25.6992	-4.2615	-0.7211	0.6395	-0.1472	0.2225
5.11	0.3106	-9.9513	1.2166	-0.0101	0.0106	-0.0077	10.0435	25.6200	-4.1270	-0.7210	0.6395	-0.1472	0.2225
5.12	0.3180	-9.9984	1.1971	-0.0062	0.0122	-0.0178	10.1645	25.8088	-4.1893	-0.7210	0.6395	-0.1473	0.2226
5.13	0.3259	-9.9890	1.2079	0.0118	0.0034	-0.0116	10.1756	25.8166	-4.2192	-0.7209	0.6394	-0.1473	0.2226
5.14	0.3309	-9.9727	1.2142	0.0171	0.0105	-0.0097	10.1749	25.7683	-4.1115	-0.7210	0.6394	-0.1473	0.2226
5.15	0.3106	-9.9959	1.2334	0.0301	0.0105	-0.0032	10.1687	25.5506	-4.2792	-0.7211	0.6393	-0.1474	0.2227
5.16	0.2912	-9.9675	1.2379	0.0266	0.0101	-0.0023	10.1873	25.7864	-4.3579	-0.7212	0.6392	-0.1474	0.2227
5.17	0.2792	-9.9532	1.2421	0.0183	0.0094	-0.0010	10.0601	25.9189	-4.0398	-0.7212	0.6392	-0.1475	0.2227
5.18	0.2799	-9.9636	1.2351	0.0155	0.0113	0.0007	10.1183	25.9821	-4.2680	-0.7213	0.6391	-0.1475	0.2227
5.19	0.2810	-9.9620	1.2355	0.0164	0.0102	-0.0054	10.2019	25.9847	-4.4156	-0.7213	0.6390	-0.1476	0.2227
5.2	0.2753	-9.9593	1.2344	0.0164	0.0175	-0.0085	10.1423	25.8999	-4.1012	-0.7213	0.6389	-0.1476	0.2228
5.21	0.2727	-9.9499	1.2309	0.0167	0.0097	-0.0062	10.2093	25.7797	-3.9847	-0.7214	0.6389	-0.1477	0.2228
5.22	0.2617	-9.9268	1.2461	0.0249	0.0129	-0.0060	10.2627	25.8378	-4.1445	-0.7214	0.6388	-0.1477	0.2229
5.23	0.2454	-9.9253	1.2632	0.0211	0.0145	-0.0065	10.0503	25.9896	-4.1894	-0.7215	0.6387	-0.1478	0.2229
5.24	0.2407	-9.9189	1.2802	0.0155	0.0093	-0.0080	10.2124	25.8799	-3.9951	-0.7215	0.6386	-0.1478	0.2229
5.25	0.2345	-9.9095	1.2709	0.0083	0.0065	-0.0058	9.9981	25.8928	-3.9174	-0.7215	0.6386	-0.1479	0.2229
5.26	0.2266	-9.9660	1.2680	-0.0033	0.0006	-0.0099	10.0492	25.6638	-4.0184	-0.7215	0.6386	-0.1479	0.2229
5.27	0.2453	-9.9896	1.2522	-0.0111	0.0054	-0.0137	10.1392	25.5943	-4.3362	-0.7214	0.6386	-0.1479	0.2229
5.28	0.2701	-9.9716	1.2182	-0.0039	-0.0006	-0.0152	10.4356	25.6562	-4.3846	-0.7215	0.6387	-0.1479	0.2230
5.29	0.2739	-9.9556	1.2039	0.0067	0.0073	-0.0196	10.3494	25.5883	-4.2584	-0.7214	0.6387	-0.1479	0.2230
5.3	0.2659	-9.9770	1.2248	0.0329	0.0042	-0.0218	10.2366	25.7229	-4.1187	-0.7215	0.6387	-0.1479	0.2231
5.31	0.2861	-9.9895	1.2679	0.0343	-0.0069	-0.0252	10.2556	25.6928	-4.1246	-0.7215	0.6385	-0.1478	0.2232
5.32	0.3311	-9.9223	1.2689	0.0218	-0.0094	-0.0138	10.1823	25.7729	-4.0940	-0.7216	0.6385	-0.1477	0.2232
5.33	0.3226	-9.9373	1.2925	0.0283	0.0000	-0.0076	10.4772	25.9485	-3.9851	-0.7217	0.6384	-0.1477	0.2232
5.34	0.2887	-9.9501	1.2908	0.0219	0.0078	-0.0085	10.7153	25.7903	-3.7900	-0.7217	0.6382	-0.1477	0.2232
5.35	0.2890	-9.9316	1.2737	0.0112	-0.0002	-0.0100	10.5301	25.9823	-4.1099	-0.7219	0.6383	-0.1477	0.2232
5.36	0.3055	-9.9849	1.2903	0.0131	-0.0024	-0.0085	10.2028	25.9953	-4.2478	-0.7218	0.6382	-0.1477	0.2232
5.37	0.3365	-9.9914	1.2765	0.0168	0.0003	-0.0125	10.2441	26.1909	-4.2557	-0.7219	0.6382	-0.1477	0.2232
5.38	0.3308	-9.9322	1.2587	0.0242	0.0080	-0.0007	10.0150	25.6780	-4.1783	-0.7219	0.6380	-0.1477	0.2232
5.39	0.2812	-9.9029	1.2625	0.0408	0.0141	0.0047	10.1506	25.8468	-4.0420	-0.7221	0.6379	-0.1478	0.2233
5.4	0.2431	-9.8816	1.2792	0.0432	0.0126	0.0021	10.2715	25.7935	-4.2814	-0.7222	0.6378	-0.1479	0.2233
5.41	0.2309	-9.8466	1.3075	0.0257	-0.0028	0.0027	10.2802	25.8320	-4.1765	-0.7223	0.6376	-0.1479	0.2232
5.42	0.2340	-9.8546	1.3210	0.0092	0.0028	-0.0021	10.1169	25.7973	-4.0673	-0.7223	0.6376	-0.1479	0.2232
5.43	0.2391	-9.8906	1.3270	-0.0131	0.0013	-0.0063	10.1257	25.7064	-4.0609	-0.7223	0.6377	-0.1480	0.2232
5.44	0.2436	-9.9036	1.2908	-0.0366	0.0049	-0.0150	10.3337	25.7426	-4.1407	-0.7222	0.6378	-0.1480	0.2232
5.45	0.2458	-9.9361	1.2485	-0.0329	0.0035	-0.0054	10.4670	25.6407	-4.1834	-0.7220	0.6379	-0.1481	0.2232
5.46	0.2474	-9.9683	1.2091	-0.0308	0.0012	-0.0129	10.1442	25.7234	-4.0395	-0.7219	0.6381	-0.1481	0.2232
5.47	0.2517	-9.9787	1.2011	-0.0183	0.0036	-0.0169	10.1359	25.7632	-4.2713	-0.7218	0.6381	-0.1482	0.2232
5.48	0.2559	-9.9777	1.1973	-0.0004	-0.0001	-0.0188	10.3090	25.5766	-4.1885	-0.7218	0.6382	-0.1482	0.2232
5.49	0.2620	-9.9486	1.2190	0.0150	-0.0006	-0.0168	10.1297	25.4383	-4.0444	-0.7218	0.6381	-0.1481	0.2232
5.5	0.2482	-9.9585	1.2613	0.0110	0.0045	-0.0144	10.2913	25.7083	-4.2180	-0.7218	0.6381	-0.1481	0.2233
5.51	0.2503	-9.9662	1.2674	-0.0107	-0.0015	-0.0183	10.0390	25.5710	-4.0940	-0.7218	0.6382	-0.1481	0.2233
5.52	0.2589	-9.9411	1.2510	-0.0151	-0.0116	-0.0177	10.1741	25.8276	-4.4010	-0.7217	0.6382	-0.1481	0.2232
5.53	0.2623	-9.9677	1.2284	-0.0303	-0.0100	-0.0162	10.1530	25.9024	-4.0821	-0.7217	0.6384	-0.1481	0.2232
5.54	0.2854	-9.9904	1.1957	-0.0321	-0.0119	-0.0153	10.1980	25.6236	-3.9921	-0.7215	0.6385	-0.1481	0.2232
5.55	0.2963	-9.9846	1.1766	-0.0227	-0.0130	-0.0118	10.3039	25.7016	-4.1120	-0.7215	0.6387	-0.1481	0.2231
5.56	0.2918	-10.0137	1.1890	-0.0072	0.0018	-0.0148	10.0415	25.8433	-4.0522	-0.7213	0.6386	-0.1481	0.2231
5.57	0.2926	-9.9805	1.1765	-0.0028	-0.0066	-0.0085	9.9803	25.7793	-4.1048	-0.7214	0.6387	-0.1481	0.2231
5.58	0.2622	-9.9458	1.1958	0.0118	0.0010	-0.0107	10.1636	25.8842	-4.2357	-0.7214	0.6387	-0.1481	0.2231
5.59	0.2537	-10.0302	1.2346	0.0149	-0.0011	-0.0200	10.1518	25.8400	-4.2863	-0.7214	0.6386	-0.1480	0.2231
5.6	0.3225	-9.9874	1.2069	-0.0060	-0.0150	-0.0243	10.2861	25.6968	-4.2362	-0.7214	0.6387	-0.1480	0.2232
5.61	0.3358	-9.9542	1.2077	0.0034	-0.0001	-0.0172	10.0710	25.8873	-4.1530	-0.7214	0.6387	-0.1479	0.2232
5.62	0.3169	-9.9966	1.2029	0.0167	0.0087	-0.0215	10.1481	25.8974	-4.1870	-0.7214	0.6387	-0.1479	0.2233
5.63	0.2919	-9.9495	1.1975	0.0271	0.0031	-0.0130	10.1603	25.9193	-4.0755	-0.7214	0.6385	-0.1479	0.2233
5.64	0.2676	-9.9095	1.2326	0.0410	0.0013	-0.0148	10.3044	25.7588	-4.1778	-0.7216	0.6385	-0.1479	0.2233
5.65	0.2724	-9.9274	1.2530	0.0294	0.0029	-0.0193	10.4980	25.7498	-4.1685	-0.7216	0.6383	-0.1478	0.2234
5.66	0.2677	-9.9139	1.2724	0.0023	-0.0055	-0.0197	10.3185	25.8840	-4.1492	-0.7216	0.6383	-0.1478	0.2234
5.67	0.2805	-9.9082	1.2576	-0.0081	-0.0003	-0.0252	10.3687	25.4650	-4.2794	-0.7216	0.6384	-0.1478	0.2234
5.68	0.2963	-9.9652	1.2353	-0.0170	-0.0003	-0.0208	10.1652	25.6419	-4.4878	-0.7215	0.6385	-0.1478	0.2235
5.69	0.2990	-9.9732	1.2088	-0.0290	-0.0013	-0.0244	10.2278	25.7468	-4.1827	-0.7214	0.6386	-0.1478	0.2235
5.7	0.3027	-9.9675	1.1665	-0.0079	0.0070	-0.0186	10.2715	25.7179	-4.0717	-0.7213	0.6386	-0.1478	0.2235
5.71	0.3149	-9.9914	1.1616	0.0069	-0.0021	-0.0174	10.1413	25.7117	-4.0602	-0.7213	0.6387	-0.1478	0.2236
5.72	0.3301	-9.9738	1.2002	0.0292	-0.0103	-0.0114	10.1556	25.7677	-4.1217	-0.7214	0.6386	-0.1477	0.2235
5.73	0.3215	-9.9740	1.2422	0.0340	0.0008	-0.0021	9.9469	25.6045	-4.2004	-0.7215	0.6385	-0.1477	0.2235
5.74	0.3091	-9.9364	1.2437	0.0222	-0.0011	-0.0097	10.1101	25.7791	-4.0482	-0.7216	0.6384	-0.1477	0.2235
5.75	0.3022	-9.9117	1.2542	0.0040	-0.0016	-0.0100	10.0329	25.7412	-4.0979	-0.7216	0.6384	-0.1477	0.2235
5.76	0.3070	-9.9296	1.2381	-0.0105	0.0071	-0.0109	9.9783	25.6617	-4.0185	-0.7215	0.6384	-0.1477	0.2236
5.77	0.3012	-9.9502	1.2194	-0.0111	0.0118	-0.0112	9.9721	25.7512	-3.9450	-0.7214	0.6384	-0.1478	0.2236
5.78	0.2961	-9.9622	1.1989	-0.0082	0.0124	-0.0004	10.1141	25.6273	-4.2364	-0.7215	0.6385	-0.1479	0.2236
5.79	0.2922	-9.9728	1.1887	-0.0071	0.0099	-0.0074	10.1698	25.7451	-4.0776	-0.7214	0.6385	-0.1480	0.2236
5.8	0.2905	-9.9812	1.2097	0.0022	0.0100	-0.0099	10.1883	25.7841	-4.1530	-0.7214	0.6386	-0.1480	0.2236
5.81	0.2835	-9.9663	1.2210	0.0147	0.0144	-0.0100	10.0505	25.8216	-4.1721	-0.7214	0.6384	-0.1481	0.2237
5.82	0.2690	-9.9582	1.2312	0.0156	0.0070	-0.0071	10.0027	25.8138	-4.0579	-0.7214	0.6384	-0.1481	0.2237
5.83	0.2583	-9.9366	1.2233	0.0132	0.0101	-0.0080	10.5149	25.7952	-4.0347	-0.7215	0.6384	-0.1481	0.2237
5.84	0.2568	-9.9108	1.2030	0.0056	0.0131	-0.0079	11.1380	25.9153	-3.5954	-0.7214	0.6383	-0.1482	0.2237
5.85	0.2431	-9.9292	1.2113	0.0051	0.0171	-0.0116	10.6193	25.9514	-4.1652	-0.7215	0.6384	-0.1483	0.2238
5.86	0.2547	-9.9588	1.2219	0.0028	0.0098	-0.0184	10.3865	26.0066	-4.3815	-0.7214	0.6383	-0.1483	0.2239
5.87	0.2753	-9.9824	1.2313	0.0110	0.0109	-0.0188	10.3720	26.1282	-4.3798	-0.7215	0.6383	-0.1483	0.2239
5.88	0.2747	-9.9540	1.2118	0.0095	0.0187	-0.0232	10.1181	25.5602	-4.2164	-0.7214	0.6382	-0.1483	0.2240
5.89	0.2649	-9.9207	1.1969	0.0105	0.0179	-0.0240	10.3388	25.6764	-4.0521	-0.7214	0.6382	-0.1484	0.2242
5.9	0.2560	-9.9840	1.2320	0.0081	0.0125	-0.0239	10.3694	25.7382	-4.1723	-0.7214	0.6382	-0.1484	0.2242
5.91	0.2911	-9.9885	1.2314	-0.0099	0.0060	-0.0237	10.2995	25.7073	-4.2300	-0.7213	0.6382	-0.1484	0.2243
5.92	0.3084	-9.9487	1.2136	-0.0077	0.0043	-0.0172	10.0517	25.8313	-3.9748	-0.7213	0.6383	-0.1484	0.2243
5.93	0.2880	-9.9760	1.2087	0.0040	0.0159	-0.0098	10.1259	25.5297	-4.0459	-0.7213	0.6382	-0.1485	0.2244
5.94	0.2741	-10.0016	1.2039	-0.0048	0.0093	-0.0149	10.0132	25.8146	-3.9403	-0.7213	0.6383	-0.1485	0.2244
5.95	0.2855	-9.9883	1.2089	0.0056	0.0009	-0.0160	10.0603	25.7020	-3.9105	-0.7212	0.6382	-0.1485	0.2244
5.96	0.3171	-10.0152	1.2199	0.0156	-0.0024	-0.0160	10.2354	25.8579	-4.1439	-0.7213	0.6383	-0.1485	0.2245
5.97	0.3426	-10.0224	1.2275	0.0150	0.0000	-0.0123	10.2649	25.8521	-4.2791	-0.7213	0.6382	-0.1485	0.2245
5.98	0.3569	-9.9914	1.2231	0.0263	0.0080	-0.0113	10.2860	25.8387	-4.2343	-0.7214	0.6381	-0.1485	0.2245
5.99	0.3325	-9.9622	1.2236	0.0416	0.0185	-0.0022	10.2419	26.0323	-4.0967	-0.7215	0.6379	-0.1485	0.2246
6	0.2872	-9.9037	1.2253	0.0414	0.0201	0.0035	10.2005	25.9344	-3.9742	-0.7216	0.6378	-0.1486	0.2246
6.01	0.2474	-9.8673	1.2358	0.0411	0.0173	0.0050	10.2772	25.6662	-4.1316	-0.7217	0.6376	-0.1487	0.2246
6.02	0.2337	-9.9067	1.2899	0.0356	0.0157	0.0045	10.3263	25.5338	-4.2460	-0.7218	0.6374	-0.1488	0.2246
6.03	0.2352	-9.8811	1.2955	0.0186	0.0110	0.0017	10.5905	25.5455	-4.0358	-0.7219	0.6374	-0.1488	0.2247
6.04	0.2082	-9.8690	1.2671	-0.0050	0.0219	-0.0000	10.3318	25.7113	-4.0378	-0.7218	0.6374	-0.1490	0.2247
6.05	0.1932	-9.9649	1.2695	-0.0159	0.0162	-0.0105	10.1864	25.7128	-4.2019	-0.7218	0.6375	-0.1491	0.2247
6.06	0.2259	-9.9631	1.2108	-0.0350	0.0063	-0.0169	10.1573	25.7496	-4.2126	-0.7216	0.6375	-0.1491	0.2247
6.07	0.2397	-9.9475	1.1727	-0.0230	0.0166	-0.0142	10.3354	25.4192	-4.0381	-0.7215	0.6376	-0.1492	0.2248
6.08	0.2286	-9.9835	1.1607	0.0067	0.0267	-0.0157	10.3155	25.4332	-4.0214	-0.7215	0.6376	-0.1493	0.2249
6.09	0.2191	-9.9925	1.1900	0.0209	0.0110	-0.0165	10.1802	25.6696	-4.2309	-0.7215	0.6375	-0.1493	0.2249
6.1	0.2083	-9.9859	1.2443	0.0358	0.0138	-0.0143	10.0546	25.7066	-4.1633	-0.7217	0.6375	-0.1493	0.2250
6.11	0.1936	-9.9621	1.2416	0.0253	0.0148	-0.0149	10.2955	26.0314	-4.2607	-0.7217	0.6373	-0.1493	0.2251
6.12	0.1753	-9.9422	1.2536	0.0079	0.0052	-0.0141	10.3579	25.8414	-4.0345	-0.7217	0.6373	-0.1494	0.2252
6.13	0.2026	-9.9409	1.2399	-0.0030	-0.0004	-0.0236	10.0458	25.7795	-4.0038	-0.7216	0.6373	-0.1493	0.2252
6.14	0.2363	-9.9521	1.2126	-0.0067	-0.0023	-0.0236	10.1250	25.9405	-4.2450	-0.7216	0.6374	-0.1493	0.2252
6.15	0.2447	-9.9595	1.1982	-0.0089	-0.0021	-0.0248	10.2284	25.8396	-4.0311	-0.7216	0.6374	-0.1493	0.2252
6.16	0.2562	-9.9855	1.1919	-0.0020	-0.0023	-0.0235	10.3748	25.7243	-4.2326	-0.7215	0.6375	-0.1492	0.2253
6.17	0.2707	-9.9552	1.1756	0.0081	-0.0119	-0.0177	10.2583	25.7870	-4.0726	-0.7215	0.6375	-0.1492	0.2253
6.18	0.2702	-9.9573	1.2060	0.0162	-0.0105	-0.0155	10.1391	25.9973	-4.0130	-0.7216	0.6374	-0.1491	0.2253
6.19	0.2647	-9.9989	1.2289	0.0180	-0.0001	-0.0157	10.2626	25.8746	-4.0358	-0.7216	0.6374	-0.1491	0.2253
6.2	0.2827	-9.9707	1.2172	0.0139	-0.0174	-0.0098	10.2653	25.6975	-4.3354	-0.7216	0.6373	-0.1490	0.2252
6.21	0.2880	-9.9663	1.2238	0.0057	-0.0128	-0.0108	10.3904	25.7230	-4.2203	-0.7217	0.6374	-0.1490	0.2252
6.22	0.2905	-9.9624	1.2016	0.0112	-0.0011	-0.0194	10.3040	25.5879	-3.9257	-0.7217	0.6374	-0.1490	0.2252
6.23	0.2587	-9.9375	1.1941	0.0256	0.0024	-0.0139	10.2450	25.4433	-4.1196	-0.7218	0.6373	-0.1490	0.2253
6.24	0.2322	-9.9144	1.2097	0.0296	0.0033	-0.0208	10.2770	25.5707	-4.1015	-0.7218	0.6372	-0.1489	0.2253
6.25	0.2602	-9.8852	1.2136	0.0384	-0.0082	-0.0234	10.2555	25.6296	-4.0857	-0.7219	0.6371	-0.1488	0.2254
6.26	0.2700	-9.9165	1.2733	0.0252	-0.0141	-0.0236	10.2922	25.6827	-4.1921	-0.7220	0.6371	-0.1487	0.2254
6.27	0.3086	-9.9447	1.2799	-0.0021	-0.0043	-0.0254	10.1706	25.7395	-4.4444	-0.7219	0.6370	-0.1487	0.2254
6.28	0.3393	-9.9443	1.2529	-0.0204	-0.0041	-0.0246	10.2816	25.6175	-4.2092	-0.7219	0.6372	-0.1487	0.2255
6.29	0.3123	-9.9720	1.2181	-0.0375	0.0002	-0.0209	10.2452	25.7802	-4.2503	-0.7217	0.6373	-0.1487	0.2255
6.3	0.3028	-9.9628	1.1318	-0.0293	0.0095	-0.0111	10.0739	25.6242	-4.0164	-0.7217	0.6375	-0.1488	0.2255
6.31	0.2678	-10.0267	1.1486	-0.0047	-0.0027	-0.0142	10.1868	25.7279	-4.0377	-0.7215	0.6375	-0.1488	0.2254
6.32	0.2780	-10.0326	1.1527	0.0072	-0.0072	-0.0120	10.2911	25.7286	-3.9418	-0.7216	0.6375	-0.1487	0.2254
6.33	0.2829	-9.9687	1.1472	0.0297	-0.0058	-0.0005	10.4712	25.9013	-3.8394	-0.7217	0.6374	-0.1487	0.2254
6.34	0.2451	-9.9849	1.2047	0.0446	-0.0011	-0.0074	10.9484	25.8250	-4.0133	-0.7217	0.6372	-0.1487	0.2254
6.35	0.2596	-9.9639	1.2287	0.0415	-0.0031	-0.0121	10.6295	25.8572	-4.0657	-0.7220	0.6372	-0.1487	0.2255
6.36	0.2595	-9.9317	1.2481	0.0294	-0.0141	-0.0102	10.3830	25.9137	-4.3267	-0.7220	0.6370	-0.1486	0.2254
6.37	0.2617	-9.9397	1.2540	0.0154	-0.0026	-0.0115	10.3699	25.9594	-4.3776	-0.7221	0.6370	-0.1486	0.2254
6.38	0.2725	-9.9521	1.2322	0.0135	-0.0091	-0.0063	10.2907	25.7443	-4.2704	-0.7220	0.6369	-0.1485	0.2254
6.39	0.2747	-9.9501	1.2215	0.0109	-0.0156	-0.0071	10.3624	25.8034	-4.3076	-0.7221	0.6370	-0.1485	0.2253
6.4	0.2808	-9.9634	1.2198	0.0214	-0.0030	-0.0050	10.2620	25.7362	-4.2010	-0.7222	0.6369	-0.1485	0.2253
6.41	0.2758	-9.9626	1.2256	0.0295	-0.0017	-0.0094	10.2103	25.6688	-4.2639	-0.7222	0.6368	-0.1485	0.2253
6.42	0.2788	-9.9377	1.2480	0.0352	-0.0041	-0.0081	10.3408	25.5473	-4.2800	-0.7224	0.6367	-0.1485	0.2253
6.43	0.2826	-9.9372	1.2617	0.0328	0.0037	-0.0114	10.3044	25.8216	-4.1611	-0.7224	0.6366	-0.1484	0.2253
6.44	0.2752	-9.9415	1.2751	0.0171	-0.0022	-0.0094	10.1439	25.8769	-4.2005	-0.7225	0.6366	-0.1484	0.2253
6.45	0.2739	-9.9100	1.2533	0.0126	-0.0007	-0.0092	10.1555	25.9534	-4.2015	-0.7225	0.6365	-0.1484	0.2253
6.46	0.2634	-9.8991	1.2319	0.0163	0.0039	-0.0138	10.1255	25.6516	-4.1635	-0.7226	0.6365	-0.1484	0.2254
6.47	0.2585	-9.9226	1.2492	0.0168	0.0044	-0.0139	10.1976	25.7017	-4.2630	-0.7226	0.6364	-0.1484	0.2254
6.48	0.2705	-9.9447	1.2716	0.0178	0.0088	-0.0174	10.2639	25.7505	-4.2152	-0.7226	0.6364	-0.1485	0.2255
6.49	0.2754	-9.9443	1.2810	0.0200	0.0116	-0.0198	10.1312	25.7468	-4.1823	-0.7226	0.6363	-0.1485	0.2255
6.5	0.2856	-9.9237	1.2729	0.0140	0.0131	-0.0201	10.1467	25.5794	-4.1780	-0.7227	0.6363	-0.1485	0.2256
6.51	0.2810	-9.9487	1.2764	0.0033	0.0197	-0.0238	10.3572	25.6113	-4.2413	-0.7226	0.6363	-0.1485	0.2257
6.52	0.2964	-9.9865	1.2659	-0.0017	0.0113	-0.0231	10.1401	25.6692	-4.3055	-0.7225	0.6362	-0.1485	0.2258
6.53	0.3091	-9.9950	1.2501	-0.0029	0.0097	-0.0235	10.0565	25.6467	-4.1612	-0.7226	0.6363	-0.1486	0.2259
6.54	0.3159	-9.9837	1.2111	-0.0004	0.0120	-0.0248	10.3325	25.7967	-4.0675	-0.7225	0.6363	-0.1486	0.2259
6.55	0.3200	-9.9881	1.2175	0.0295	0.0137	-0.0198	10.3369	25.8987	-4.4589	-0.7226	0.6363	-0.1486	0.2261
6.56	0.2827	-10.0239	1.2703	0.0410	0.0206	-0.0106	10.2311	25.9365	-4.4902	-0.7226	0.6360	-0.1486	0.2261
6.57	0.2823	-10.0003	1.2700	0.0438	0.0191	-0.0142	10.0050	25.6427	-4.0904	-0.7228	0.6359	-0.1486	0.2262
6.58	0.2899	-9.9655	1.2948	0.0423	0.0073	-0.0168	10.1235	25.7211	-4.0992	-0.7229	0.6357	-0.1486	0.2263
6.59	0.3058	-9.9868	1.3272	0.0425	0.0120	-0.0148	10.1712	25.6865	-4.1486	-0.7229	0.6356	-0.1486	0.2264
6.6	0.3208	-9.9730	1.3210	0.0329	0.0148	-0.0098	10.1070	25.5110	-4.4355	-0.7231	0.6355	-0.1486	0.2265
6.61	0.2806	-9.9070	1.3011	0.0332	0.0248	0.0046	10.2131	25.6229	-4.4357	-0.7231	0.6353	-0.1487	0.2265
6.62	0.2390	-9.8585	1.2570	0.0380	0.0293	0.0028	10.1712	25.6609	-4.3297	-0.7233	0.6352	-0.1489	0.2266
6.63	0.2227	-9.8542	1.2768	0.0395	0.0170	0.0026	10.1367	25.6456	-4.5019	-0.7233	0.6350	-0.1489	0.2266
6.64	0.2209	-9.8584	1.3136	0.0407	0.0100	-0.0009	10.1316	25.7515	-4.3109	-0.7235	0.6349	-0.1490	0.2266
6.65	0.2235	-9.8691	1.3310	0.0257	0.0116	-0.0016	10.0301	25.5632	-4.2909	-0.7235	0.6347	-0.1490	0.2266
6.66	0.2118	-9.8612	1.3243	0.0126	0.0048	0.0026	10.0636	25.5671	-4.1891	-0.7236	0.6347	-0.1491	0.2266
6.67	0.2103	-9.8984	1.3151	-0.0045	0.0079	-0.0123	10.1475	25.5591	-4.1883	-0.7236	0.6347	-0.1492	0.2266
6.68	0.2378	-9.9430	1.3016	-0.0115	0.0131	-0.0156	10.1519	25.7180	-4.3102	-0.7235	0.6348	-0.1492	0.2267
6.69	0.2503	-9.9347	1.2692	-0.0113	0.0123	-0.0125	10.1459	25.9416	-4.0631	-0.7235	0.6348	-0.1493	0.2267
6.7	0.2322	-9.9370	1.2578	-0.0001	0.0141	-0.0180	10.1458	25.8278	-4.2194	-0.7233	0.6348	-0.1493	0.2267
6.71	0.2220	-9.9133	1.2543	0.0160	0.0103	-0.0184	10.2547	25.5000	-4.1455	-0.7234	0.6348	-0.1494	0.2268
6.72	0.2226	-9.9001	1.2973	0.0257	0.0104	-0.0164	10.2180	25.7973	-4.1082	-0.7234	0.6347	-0.1494	0.2269
6.73	0.2219	-9.9123	1.3334	0.0154	0.0104	-0.0226	10.3045	25.8292	-4.2947	-0.7235	0.6347	-0.1494	0.2270
6.74	0.2205	-9.8831	1.3242	-0.0044	0.0120	-0.0148	10.3615	25.9315	-4.2888	-0.7234	0.6346	-0.1494	0.2270
6.75	0.2039	-9.8968	1.3166	-0.0292	0.0029	-0.0115	10.1291	25.5172	-4.1298	-0.7233	0.6348	-0.1495	0.2270
6.76	0.2176	-9.9361	1.2700	-0.0456	0.0010	-0.0236	10.0619	25.4955	-4.3143	-0.7232	0.6350	-0.1495	0.2270
6.77	0.2483	-9.9678	1.2472	-0.0429	-0.0110	-0.0219	10.3400	25.6719	-4.4220	-0.7229	0.6351	-0.1495	0.2270
6.78	0.2693	-9.9972	1.2250	-0.0411	-0.0067	-0.0241	10.3318	25.7379	-4.2242	-0.7229	0.6354	-0.1495	0.2270
6.79	0.2681	-9.9633	1.1775	-0.0220	0.0031	-0.0154	10.1385	25.6069	-4.1868	-0.7227	0.6354	-0.1495	0.2270
6.8	0.2371	-10.0048	1.2247	-0.0007	-0.0020	-0.0206	10.2228	25.7447	-4.1827	-0.7228	0.6355	-0.1495	0.2270
6.81	0.2751	-10.0241	1.2409	0.0034	-0.0057	-0.0250	10.2318	25.7364	-4.2146	-0.7227	0.6354	-0.1494	0.2270
6.82	0.3252	-9.9747	1.2442	0.0016	-0.0189	-0.0229	10.1370	25.7586	-4.1488	-0.7227	0.6355	-0.1494	0.2270
6.83	0.3317	-10.0088	1.2736	0.0034	-0.0021	-0.0269	10.5272	25.8973	-3.9133	-0.7227	0.6355	-0.1493	0.2271
6.84	0.3242	-10.0125	1.2497	0.0110	0.0043	-0.0233	11.0805	25.9489	-3.8664	-0.7226	0.6355	-0.1493	0.2271
6.85	0.2815	-9.9475	1.2218	0.0157	0.0014	-0.0109	10.8241	25.8492	-4.1810	-0.7228	0.6355	-0.1493	0.2272
6.86	0.2595	-9.9465	1.2338	0.0181	0.0088	-0.0200	10.3082	26.1008	-4.2854	-0.7227	0.6354	-0.1493	0.2272
6.87	0.2954	-9.9499	1.2599	0.0365	-0.0018	-0.0240	10.4031	26.1496	-4.0336	-0.7228	0.6354	-0.1492	0.2273
6.88	0.3089	-9.9104	1.3052	0.0298	-0.0009	-0.0229	10.2617	25.5289	-4.3590	-0.7228	0.6352	-0.1492	0.2273
6.89	0.3091	-9.9132	1.3138	0.0106	0.0126	-0.0235	10.0330	25.9326	-4.3329	-0.7229	0.6352	-0.1492	0.2274
6.9	0.3152	-9.9175	1.3035	-0.0082	0.0043	-0.0245	10.1757	25.7771	-4.2161	-0.7228	0.6352	-0.1492	0.2275
6.91	0.3116	-9.9238	1.2993	-0.0265	-0.0021	-0.0244	10.1127	25.6789	-4.3550	-0.7227	0.6353	-0.1492	0.2275
6.92	0.3125	-9.9659	1.2553	-0.0379	0.0016	-0.0249	9.9793	25.8232	-4.0729	-0.7226	0.6355	-0.1492	0.2275
6.93	0.3192	-9.9607	1.2118	-0.0296	0.0073	-0.0244	10.1519	25.9398	-4.1356	-0.7224	0.6356	-0.1492	0.2276
6.94	0.3234	-9.9604	1.2150	-0.0042	0.0048	-0.0228	10.0009	25.7680	-4.1063	-0.7224	0.6357	-0.1492	0.2276
6.95	0.3221	-9.9696	1.2220	0.0141	0.0039	-0.0141	10.0709	25.6074	-4.1777	-0.7223	0.6356	-0.1492	0.2276
6.96	0.3121	-9.9334	1.2544	0.0215	0.0021	-0.0154	10.2229	25.6298	-4.3801	-0.7225	0.6356	-0.1492	0.2277
6.97	0.2984	-9.9229	1.2890	0.0242	0.0025	-0.0225	10.2911	25.6488	-4.3023	-0.7225	0.6355	-0.1492	0.2277
6.98	0.3065	-9.9366	1.3096	0.0011	0.0098	-0.0170	10.2132	25.5494	-4.1439	-0.7225	0.6356	-0.1492	0.2278
6.99	0.3038	-9.9229	1.2919	-0.0150	0.0058	-0.0151	10.0414	25.5326	-4.4241	-0.7224	0.6356	-0.1492	0.2278
7	0.2992	-9.9469	1.2708	-0.0182	0.0110	-0.0098	10.1578	25.7841	-4.2666	-0.7223	0.6357	-0.1493	0.2278
7.01	0.2921	-9.9774	1.2393	-0.0109	0.0109	-0.0159	10.1277	25.6232	-4.3130	-0.7223	0.6357	-0.1494	0.2278
7.02	0.2854	-9.9522	1.2178	-0.0118	0.0061	-0.0080	10.0725	25.6338	-4.3006	-0.7221	0.6357	-0.1494	0.2278
7.03	0.2841	-9.9558	1.2222	0.0049	0.0061	-0.0087	10.1868	25.6164	-4.1771	-0.7222	0.6358	-0.1495	0.2279
7.04	0.2953	-9.9632	1.2447	0.0150	0.0028	-0.0099	10.1923	25.6621	-4.4110	-0.7222	0.6357	-0.1495	0.2279
7.05	0.2876	-9.9234	1.2585	-0.0037	0.0060	-0.0169	10.0956	25.7591	-4.2552	-0.7222	0.6358	-0.1495	0.2279
7.06	0.2749	-9.9394	1.2594	-0.0128	0.0102	-0.0170	10.1012	25.5862	-4.1655	-0.7221	0.6358	-0.1496	0.2279
7.07	0.2903	-9.9552	1.2432	-0.0197	0.0020	-0.0212	10.1689	25.7892	-4.3793	-0.7220	0.6359	-0.1496	0.2280
7.08	0.3002	-9.9337	1.2141	-0.0322	0.0048	-0.0146	10.0740	25.9450	-4.1675	-0.7219	0.6360	-0.1496	0.2280
7.09	0.2873	-9.9586	1.1924	-0.0156	0.0163	-0.0190	10.0802	25.7820	-4.0899	-0.7218	0.6360	-0.1497	0.2280
7.1	0.2700	-9.9503	1.1791	-0.0085	0.0104	-0.0102	10.1355	25.9104	-4.1437	-0.7218	0.6362	-0.1498	0.2281
7.11	0.2608	-9.9257	1.1918	0.0005	0.0098	-0.0170	10.1291	25.7399	-4.0906	-0.7217	0.6361	-0.1498	0.2281
7.12	0.2609	-9.9688	1.2282	0.0094	0.0101	-0.0197	9.9355	25.9212	-4.1614	-0.7218	0.6361	-0.1498	0.2282
7.13	0.2656	-9.9742	1.2523	-0.0073	0.0059	-0.0139	10.1926	25.7109	-3.9865	-0.7216	0.6361	-0.1499	0.2281
7.14	0.2748	-9.9507	1.2297	-0.0251	-0.0003	-0.0163	10.3187	25.6070	-4.0775	-0.7216	0.6363	-0.1499	0.2282
7.15	0.2736	-9.9785	1.1948	-0.0317	0.0071	-0.0195	10.3340	25.6373	-4.4289	-0.7214	0.6364	-0.1499	0.2282
7.16	0.2819	-10.0273	1.1738	-0.0340	0.0009	-0.0206	10.1816	25.6208	-4.3221	-0.7213	0.6365	-0.1500	0.2282
7.17	0.2925	-10.0334	1.1498	-0.0264	-0.0025	-0.0216	10.1412	25.6374	-4.0790	-0.7212	0.6367	-0.1500	0.2282
7.18	0.2909	-10.0267	1.1374	-0.0003	0.0063	-0.0122	10.3951	25.4949	-4.0126	-0.7212	0.6367	-0.1500	0.2282
7.19	0.2930	-10.0081	1.1503	0.0205	-0.0015	-0.0110	10.3634	25.6174	-4.2084	-0.7212	0.6366	-0.1500	0.2282
7.2	0.2797	-9.9972	1.2025	0.0400	-0.0010	-0.0072	10.0593	25.6337	-4.2783	-0.7213	0.6364	-0.1500	0.2282
7.21	0.2552	-9.9590	1.2267	0.0429	0.0034	-0.0074	10.0718	25.5132	-4.3366	-0.7215	0.6364	-0.1500	0.2283
7.22	0.2543	-9.9197	1.2367	0.0367	-0.0011	-0.0137	10.0190	25.7156	-4.3829	-0.7215	0.6362	-0.1500	0.2283
7.23	0.2916	-9.9553	1.2795	0.0222	-0.0102	-0.0196	10.4133	25.6899	-4.1842	-0.7216	0.6362	-0.1499	0.2283
7.24	0.3498	-9.9611	1.2734	0.0040	-0.0033	-0.0166	10.1451	25.8432	-4.3156	-0.7216	0.6362	-0.1499	0.2283
7.25	0.3260	-9.9247	1.2367	-0.0050	0.0154	-0.0089	9.9358	25.7288	-4.0520	-0.7215	0.6362	-0.1499	0.2283
7.26	0.2536	-9.9015	1.2123	0.0096	0.0212	-0.0007	9.8902	25.6089	-4.1721	-0.7216	0.6362	-0.1501	0.2284
7.27	0.2240	-9.8666	1.1861	0.0059	0.0174	-0.0038	9.9848	25.9327	-3.9850	-0.7215	0.6361	-0.1501	0.2284
7.28	0.2170	-9.8611	1.2289	0.0106	0.0109	-0.0054	10.1311	25.7619	-4.1837	-0.7216	0.6361	-0.1502	0.2284
7.29	0.2133	-9.8850	1.2546	-0.0080	0.0113	-0.0109	10.1833	25.8434	-4.3127	-0.7215	0.6361	-0.1503	0.2284
7.3	0.2002	-9.8947	1.2406	-0.0284	0.0092	-0.0127	10.1894	25.9424	-4.3729	-0.7215	0.6363	-0.1504	0.2284
7.31	0.1949	-9.9038	1.2014	-0.0605	0.0061	-0.0178	10.1660	25.6744	-4.4046	-0.7212	0.6364	-0.1504	0.2284
7.32	0.2179	-9.9621	1.1623	-0.0620	-0.0006	-0.0229	10.0924	25.6323	-4.1383	-0.7210	0.6367	-0.1505	0.2284
7.33	0.2536	-10.0003	1.1241	-0.0602	-0.0080	-0.0257	10.6205	25.7948	-4.0633	-0.7208	0.6369	-0.1505	0.2284
7.34	0.2641	-9.9969	1.0944	-0.0253	-0.0005	-0.0245	10.9148	25.8293	-3.9716	-0.7206	0.6370	-0.1505	0.2284
7.35	0.2605	-10.0248	1.1093	-0.0006	0.0057	-0.0242	10.6791	25.8446	-4.0521	-0.7206	0.6372	-0.1505	0.2285
7.36	0.2702	-10.0268	1.1460	0.0158	0.0021	-0.0240	10.3650	25.9691	-4.1756	-0.7206	0.6371	-0.1505	0.2285
7.37	0.2831	-10.0087	1.1765	0.0072	-0.0061	-0.0241	10.2741	26.2046	-4.0895	-0.7206	0.6371	-0.1504	0.2286
7.38	0.2885	-10.0335	1.1878	-0.0094	0.0020	-0.0245	10.2460	25.6933	-4.1096	-0.7205	0.6371	-0.1504	0.2286
7.39	0.2916	-10.0433	1.1623	-0.0115	-0.0044	-0.0239	10.0207	25.6076	-4.0661	-0.7205	0.6372	-0.1504	0.2286
7.4	0.2972	-10.0424	1.1193	-0.0167	-0.0056	-0.0197	9.7865	25.7145	-4.1848	-0.7204	0.6373	-0.1504	0.2286
7.41	0.2976	-10.0619	1.0998	-0.0013	-0.0023	-0.0244	9.8841	25.6536	-4.1202	-0.7203	0.6373	-0.1504	0.2286
7.42	0.3105	-10.0430	1.1014	0.0210	-0.0161	-0.0174	9.9873	25.6340	-3.9988	-0.7204	0.6373	-0.1503	0.2286
7.43	0.3080	-9.9739	1.1175	0.0489	-0.0116	-0.0197	10.0071	25.8906	-3.9797	-0.7205	0.6372	-0.1502	0.2286
7.44	0.2753	-9.9582	1.1866	0.0693	0.0007	-0.0166	10.1222	25.9278	-4.1394	-0.7207	0.6370	-0.1501	0.2287
7.45	0.2682	-9.9275	1.2340	0.0607	0.0008	-0.0210	9.9671	25.8021	-4.2325	-0.7208	0.6367	-0.1500	0.2288
7.46	0.3022	-9.8523	1.2475	0.0395	-0.0134	-0.0220	9.9939	25.8429	-4.0600	-0.7210	0.6367	-0.1499	0.2288
7.47	0.3270	-9.8871	1.2798	0.0225	-0.0029	-0.0226	9.9653	25.5860	-4.3027	-0.7210	0.6366	-0.1498	0.2288
7.48	0.3449	-9.9240	1.2537	-0.0058	0.0019	-0.0246	10.0481	25.5985	-4.2061	-0.7210	0.6367	-0.1498	0.2289
7.49	0.3110	-9.8950	1.1968	-0.0137	0.0090	-0.0225	10.1891	25.7546	-4.0970	-0.7209	0.6367	-0.1499	0.2289
7.5	0.2764	-9.8972	1.1624	-0.0112	0.0050	-0.0248	10.1282	25.6158	-3.9471	-0.7209	0.6368	-0.1499	0.2290
7.51	0.2931	-9.9122	1.1590	-0.0013	-0.0071	-0.0243	10.0346	25.8488	-4.1371	-0.7208	0.6368	-0.1498	0.2290
7.52	0.3095	-9.9422	1.2072	0.0102	-0.0084	-0.0241	10.1779	25.7190	-4.2206	-0.7208	0.6368	-0.1497	0.2290
7.53	0.3181	-9.9800	1.2271	-0.0019	0.0010	-0.0261	10.1524	25.7389	-4.1661	-0.7208	0.6369	-0.1497	0.2291
7.54	0.3218	-9.9817	1.2083	-0.0205	0.0016	-0.0237	10.1944	25.7098	-4.0679	-0.7207	0.6369	-0.1497	0.2291
7.55	0.3313	-10.0022	1.1834	-0.0317	-0.0011	-0.0253	10.3347	25.5344	-4.1629	-0.7206	0.6371	-0.1498	0.2291
7.56	0.3568	-10.0570	1.1515	-0.0203	0.0054	-0.0260	10.3656	25.6522	-4.2048	-0.7204	0.6371	-0.1497	0.2291
7.57	0.3711	-10.0738	1.1246	-0.0079	0.0016	-0.0236	10.0644	25.8723	-4.1635	-0.7204	0.6372	-0.1498	0.2292
7.58	0.3773	-10.0614	1.1171	0.0179	0.0038	-0.0205	9.9703	25.9302	-4.0704	-0.7204	0.6372	-0.1497	0.2292
7.59	0.3830	-10.0546	1.1364	0.0494	0.0026	-0.0221	9.9852	25.8170	-4.1897	-0.7205	0.6370	-0.1497	0.2293
7.6	0.3830	-10.0206	1.1832	0.0717	0.0022	-0.0093	9.9965	25.7184	-4.2993	-0.7208	0.6369	-0.1496	0.2294
7.61	0.3749	-9.9767	1.2370	0.0699	0.0113	-0.0058	10.0987	25.8546	-4.2609	-0.7209	0.6366	-0.1496	0.2294
7.62	0.3569	-9.9455	1.2659	0.0633	0.0097	-0.0116	10.0675	25.7490	-4.0966	-0.7211	0.6364	-0.1496	0.2295
7.63	0.3578	-9.9199	1.2806	0.0450	0.0133	-0.0137	10.0849	25.6985	-4.0983	-0.7212	0.6361	-0.1496	0.2296
7.64	0.3610	-9.9077	1.2656	0.0393	0.0125	-0.0137	9.8473	25.7782	-4.2148	-0.7213	0.6361	-0.1496	0.2297
7.65	0.3496	-9.9074	1.2491	0.0305	0.0141	-0.0086	9.7730	25.9570	-4.3528	-0.7214	0.6359	-0.1496	0.2297
7.66	0.3345	-9.8990	1.2372	0.0326	0.0232	-0.0123	9.9442	25.8130	-4.0995	-0.7214	0.6358	-0.1497	0.2298
7.67	0.3240	-9.8937	1.2476	0.0400	0.0175	-0.0036	10.2153	25.8085	-4.0155	-0.7216	0.6357	-0.1498	0.2299
7.68	0.3234	-9.8842	1.2666	0.0390	0.0131	0.0002	10.1140	25.7155	-4.2331	-0.7217	0.6355	-0.1498	0.2299
7.69	0.3138	-9.8887	1.2926	0.0319	0.0229	-0.0049	10.0452	25.9275	-4.1884	-0.7218	0.6354	-0.1499	0.2299
7.7	0.2996	-9.9091	1.2952	0.0031	0.0199	-0.0036	10.1691	25.8211	-4.1765	-0.7217	0.6353	-0.1500	0.2300
7.71	0.3024	-9.9371	1.2726	-0.0111	0.0187	-0.0043	10.1627	25.5881	-4.3375	-0.7217	0.6354	-0.1501	0.2300
7.72	0.3078	-9.9611	1.2278	-0.0161	0.0292	-0.0107	10.1588	25.6957	-4.3336	-0.7216	0.6354	-0.1503	0.2301
7.73	0.2906	-9.9797	1.1888	-0.0155	0.0285	-0.0077	10.1703	25.7462	-4.2666	-0.7215	0.6355	-0.1504	0.2301
7.74	0.2705	-9.9844	1.1699	0.0024	0.0237	-0.0088	10.0689	25.7060	-4.2822	-0.7215	0.6354	-0.1505	0.2302
7.75	0.2680	-9.9839	1.1860	0.0300	0.0231	-0.0124	9.9498	26.0121	-4.1840	-0.7215	0.6354	-0.1506	0.2303
7.76	0.2562	-9.9637	1.2297	0.0435	0.0138	-0.0128	10.0471	25.8905	-4.1711	-0.7216	0.6352	-0.1506	0.2304
7.77	0.2503	-9.9527	1.2581	0.0414	0.0152	-0.0194	10.1062	25.6986	-4.2922	-0.7217	0.6350	-0.1506	0.2304
7.78	0.2474	-9.9680	1.2850	0.0228	0.0146	-0.0210	9.8254	25.7402	-4.2513	-0.7218	0.6350	-0.1507	0.2306
7.79	0.2648	-9.9685	1.2785	0.0011	0.0036	-0.0237	10.1371	25.7357	-4.2213	-0.7217	0.6350	-0.1506	0.2306
7.8	0.2975	-9.9473	1.2255	-0.0042	0.0059	-0.0245	10.1079	25.9390	-4.5419	-0.7217	0.6351	-0.1507	0.2307
7.81	0.3111	-9.9664	1.2107	0.0133	0.0106	-0.0241	10.0542	25.7871	-4.2539	-0.7216	0.6350	-0.1506	0.2307
7.82	0.3290	-9.9888	1.2070	0.0302	0.0091	-0.0236	10.2020	25.7436	-4.0413	-0.7217	0.6349	-0.1506	0.2308
7.83	0.3383	-9.9668	1.2294	0.0433	-0.0003	-0.0232	10.3179	26.0322	-3.9869	-0.7218	0.6348	-0.1506	0.2309
7.84	0.3583	-9.9519	1.2620	0.0462	0.0010	-0.0212	10.7065	25.8957	-4.0674	-0.7219	0.6346	-0.1505	0.2309
7.85	0.3955	-9.9440	1.2908	0.0450	-0.0011	-0.0179	10.5743	26.0088	-4.0607	-0.7221	0.6346	-0.1504	0.2310
7.86	0.3779	-9.9445	1.3267	0.0393	0.0084	-0.0047	10.1457	26.1158	-4.1024	-0.7222	0.6344	-0.1504	0.2310
7.87	0.3466	-9.9480	1.2989	0.0273	0.0133	-0.0002	9.9768	26.2620	-4.3297	-0.7223	0.6343	-0.1505	0.2311
7.88	0.3426	-9.9372	1.2800	0.0154	0.0002	-0.0046	10.0759	25.7530	-4.2000	-0.7222	0.6342	-0.1505	0.2310
7.89	0.3689	-9.9468	1.2802	0.0214	0.0021	-0.0051	9.9879	25.6005	-4.2464	-0.7224	0.6342	-0.1506	0.2310
7.9	0.3863	-9.9659	1.2886	0.0285	0.0198	0.0020	10.1352	25.6285	-4.3064	-0.7224	0.6341	-0.1507	0.2311
7.91	0.3333	-9.9295	1.2979	0.0403	0.0332	0.0044	10.2658	25.6460	-4.3933	-0.7225	0.6339	-0.1508	0.2311
7.92	0.2579	-9.8683	1.2974	0.0411	0.0369	0.0096	10.2380	25.4930	-4.2960	-0.7226	0.6337	-0.1510	0.2312
7.93	0.2169	-9.8586	1.3167	0.0334	0.0270	0.0029	10.3078	25.6110	-4.3265	-0.7227	0.6336	-0.1511	0.2312
7.94	0.2150	-9.8763	1.3433	0.0109	0.0169	-0.0040	10.3381	25.7659	-4.4443	-0.7228	0.6335	-0.1512	0.2313
7.95	0.2150	-9.8806	1.3305	-0.0103	0.0317	-0.0054	10.0532	25.6103	-4.2938	-0.7226	0.6335	-0.1513	0.2313
7.96	0.1999	-9.9090	1.2881	-0.0290	0.0270	-0.0108	10.1924	25.7267	-4.2007	-0.7226	0.6336	-0.1515	0.2314
7.97	0.1968	-9.9402	1.2489	-0.0289	0.0127	-0.0195	9.9958	25.7326	-4.2438	-0.7224	0.6337	-0.1516	0.2314
7.98	0.2080	-9.9507	1.2217	-0.0137	0.0085	-0.0169	9.9961	25.6252	-4.4117	-0.7223	0.6338	-0.1516	0.2315
7.99	0.2181	-9.9505	1.2259	0.0019	0.0147	-0.0189	9.8897	25.6317	-4.3867	-0.7223	0.6338	-0.1517	0.2315
8	0.2248	-9.9516	1.2461	0.0211	0.0064	-0.0194	10.1556	25.8243	-4.2884	-0.7223	0.6337	-0.1517	0.2316
8.01	0.2466	-9.9355	1.2820	0.0249	0.0019	-0.0234	10.1778	25.6430	-4.3196	-0.7224	0.6337	-0.1516	0.2316
8.02	0.2715	-9.9272	1.3060	0.0153	0.0008	-0.0227	10.1689	25.8329	-4.2965	-0.7223	0.6336	-0.1516	0.2317
8.03	0.2918	-9.9450	1.3115	-0.0016	-0.0051	-0.0246	10.0698	25.7657	-4.4273	-0.7224	0.6337	-0.1516	0.2317
8.04	0.3075	-9.9489	1.2817	-0.0104	-0.0030	-0.0211	9.9240	25.8467	-4.3777	-0.7223	0.6337	-0.1516	0.2317
8.05	0.3148	-9.9606	1.2491	-0.0147	-0.0120	-0.0232	9.8898	25.9129	-4.2012	-0.7223	0.6339	-0.1515	0.2317
8.06	0.3207	-9.9753	1.2292	-0.0091	-0.0050	-0.0202	9.9858	25.7898	-4.3206	-0.7221	0.6339	-0.1515	0.2317
8.07	0.3316	-9.9955	1.2388	-0.0073	-0.0054	-0.0077	10.0145	25.7882	-4.5393	-0.7221	0.6340	-0.1515	0.2317
8.08	0.3409	-9.9729	1.2390	0.0068	-0.0010	-0.0021	10.1217	25.6604	-4.2664	-0.7221	0.6340	-0.1516	0.2316
8.09	0.3281	-9.9426	1.2410	0.0142	-0.0032	-0.0068	10.3016	25.8270	-4.4105	-0.7221	0.6339	-0.1516	0.2316
8.1	0.2762	-9.9802	1.2737	0.0118	0.0010	-0.0063	9.9954	25.6675	-4.3785	-0.7222	0.6340	-0.1516	0.2316
8.11	0.2972	-9.9645	1.2418	-0.0024	-0.0052	-0.0128	10.2213	25.6361	-4.1351	-0.7222	0.6339	-0.1516	0.2316
8.12	0.3374	-9.9532	1.2287	-0.0079	-0.0154	-0.0204	10.3529	25.5523	-4.3516	-0.7222	0.6340	-0.1515	0.2316
8.13	0.3583	-10.0338	1.2461	0.0133	0.0050	-0.0211	10.1076	25.5960	-4.4460	-0.7221	0.6339	-0.1515	0.2316
8.14	0.3492	-10.0072	1.2203	0.0202	0.0098	-0.0102	10.3368	25.8751	-4.3260	-0.7222	0.6339	-0.1516	0.2316
8.15	0.2761	-9.9273	1.2057	0.0357	0.0119	-0.0070	10.1445	25.7021	-4.4024	-0.7222	0.6338	-0.1516	0.2317
8.16	0.2532	-9.9383	1.2419	0.0515	0.0086	-0.0096	9.9809	25.7712	-4.5574	-0.7224	0.6336	-0.1516	0.2317
8.17	0.2713	-9.9233	1.3010	0.0511	-0.0031	-0.0136	9.9958	26.0045	-4.2741	-0.7225	0.6335	-0.1515	0.2318
8.18	0.2785	-9.8928	1.3398	0.0405	0.0026	-0.0214	9.8585	25.9633	-4.3211	-0.7226	0.6333	-0.1515	0.2318
8.19	0.2940	-9.9010	1.3202	0.0080	0.0067	-0.0215	9.9826	25.9757	-4.3587	-0.7226	0.6334	-0.1515	0.2319
8.2	0.2939	-9.9267	1.3103	-0.0153	0.0010	-0.0181	9.9964	25.9741	-4.4566	-0.7225	0.6334	-0.1515	0.2319
8.21	0.3194	-9.9618	1.2809	-0.0311	-0.0023	-0.0287	9.9926	25.9672	-4.2338	-0.7224	0.6336	-0.1515	0.2319
8.22	0.3580	-9.9834	1.2262	-0.0230	0.0009	-0.0226	9.9930	25.6807	-4.4469	-0.7223	0.6337	-0.1515	0.2319
8.23	0.3548	-9.9866	1.2169	-0.0044	-0.0027	-0.0149	9.9991	25.7965	-4.4484	-0.7223	0.6337	-0.1515	0.2319
8.24	0.3613	-9.9804	1.2218	0.0269	0.0079	-0.0189	9.9028	25.7955	-4.2810	-0.7223	0.6336	-0.1515	0.2320
8.25	0.3653	-9.9527	1.2547	0.0413	0.0013	-0.0109	9.8883	25.8080	-4.4435	-0.7224	0.6335	-0.1515	0.2320
8.26	0.3526	-9.9173	1.2900	0.0407	0.0031	-0.0062	10.1571	25.7601	-4.3656	-0.7225	0.6334	-0.1515	0.2320
8.27	0.3455	-9.9032	1.3106	0.0394	0.0097	-0.0174	10.4863	25.5994	-4.4312	-0.7226	0.6332	-0.1515	0.2321
8.28	0.3471	-9.9030	1.3221	0.0183	0.0106	-0.0062	10.2047	25.8463	-4.2461	-0.7227	0.6332	-0.1515	0.2321
8.29	0.3519	-9.9230	1.3144	-0.0022	0.0083	-0.0115	10.0220	25.6054	-4.0864	-0.7226	0.6332	-0.1516	0.2321
8.3	0.3508	-9.9407	1.2802	-0.0041	0.0193	-0.0045	10.2018	25.7088	-4.4047	-0.7226	0.6333	-0.1517	0.2322
8.31	0.3301	-9.9406	1.2563	0.0028	0.0197	-0.0044	10.0514	25.6218	-4.4003	-0.7225	0.6332	-0.1518	0.2322
8.32	0.3200	-9.9360	1.2558	0.0119	0.0197	-0.0078	10.1291	25.6172	-4.3884	-0.7226	0.6332	-0.1519	0.2323
8.33	0.3142	-9.9389	1.2651	0.0193	0.0182	-0.0036	10.3538	25.6497	-4.2221	-0.7226	0.6331	-0.1520	0.2323
8.34	0.2945	-9.9458	1.2983	0.0201	0.0242	0.0004	10.7221	25.8384	-4.1928	-0.7226	0.6330	-0.1521	0.2323
8.35	0.2868	-9.9593	1.3121	0.0081	0.0228	-0.0037	10.4613	25.7076	-4.2297	-0.7227	0.6330	-0.1522	0.2324
8.36	0.2899	-9.9690	1.2885	-0.0103	0.0123	-0.0008	10.3018	26.0263	-4.3200	-0.7226	0.6330	-0.1523	0.2324
8.37	0.2830	-9.9731	1.2529	-0.0101	0.0160	-0.0019	10.0211	26.0508	-4.3099	-0.7226	0.6331	-0.1524	0.2324
8.38	0.2766	-9.9930	1.2240	-0.0065	0.0211	-0.0061	10.0694	25.6362	-4.2723	-0.7224	0.6330	-0.1525	0.2324
8.39	0.2675	-9.9860	1.2067	0.0127	0.0167	-0.0012	9.8422	26.1470	-4.4053	-0.7225	0.6330	-0.1527	0.2324
8.4	0.2539	-9.9655	1.2254	0.0365	0.0177	-0.0036	10.1891	25.7813	-4.3803	-0.7226	0.6329	-0.1527	0.2325
8.41	0.2473	-9.9544	1.2614	0.0440	0.0188	-0.0112	10.2152	25.7164	-4.3154	-0.7227	0.6327	-0.1528	0.2325
8.42	0.2444	-9.9287	1.3012	0.0478	0.0140	-0.0110	10.1371	25.8045	-4.1581	-0.7228	0.6326	-0.1528	0.2326
8.43	0.2474	-9.9250	1.3326	0.0405	0.0067	-0.0223	10.0486	25.7619	-4.2359	-0.7229	0.6324	-0.1528	0.2327
8.44	0.2534	-9.9555	1.3429	0.0176	0.0102	-0.0155	10.1410	25.7991	-4.5294	-0.7230	0.6324	-0.1528	0.2328
8.45	0.2632	-9.9511	1.3191	0.0113	0.0041	-0.0193	10.1826	25.6201	-4.3065	-0.7229	0.6323	-0.1528	0.2328
8.46	0.2802	-9.9257	1.2744	0.0094	0.0059	-0.0241	10.0332	25.7406	-4.6959	-0.7229	0.6323	-0.1528	0.2329
8.47	0.2941	-9.9364	1.2770	0.0290	0.0112	-0.0213	10.1261	25.5998	-4.8107	-0.7230	0.6322	-0.1528	0.2329
8.48	0.3068	-9.9409	1.3034	0.0417	0.0082	-0.0226	10.2051	25.6646	-4.4951	-0.7231	0.6321	-0.1527	0.2330
8.49	0.3124	-9.8925	1.3365	0.0445	0.0053	-0.0209	10.0363	25.6177	-4.6946	-0.7231	0.6320	-0.1527	0.2331
8.5	0.3367	-9.8691	1.3593	0.0393	0.0083	-0.0238	9.8666	25.7870	-4.3552	-0.7232	0.6319	-0.1526	0.2332
8.51	0.3592	-9.8697	1.3806	0.0175	0.0076	-0.0150	10.1061	25.8349	-4.4464	-0.7233	0.6318	-0.1527	0.2333
8.52	0.3375	-9.8712	1.3843	0.0094	0.0115	-0.0057	9.9972	25.7376	-4.4863	-0.7232	0.6317	-0.1527	0.2333
8.53	0.3092	-9.8705	1.3384	-0.0178	0.0095	-0.0030	9.7666	25.6961	-4.4631	-0.7233	0.6319	-0.1528	0.2333
8.54	0.3108	-9.8809	1.3056	-0.0289	0.0025	-0.0054	10.1523	25.7925	-4.3207	-0.7231	0.6319	-0.1529	0.2332
8.55	0.3516	-9.9149	1.3063	-0.0135	0.0042	-0.0118	10.1090	25.8184	-4.2546	-0.7231	0.6321	-0.1530	0.2332
8.56	0.3591	-9.9551	1.3103	-0.0150	0.0144	-0.0021	10.0554	25.8325	-4.4008	-0.7229	0.6320	-0.1531	0.2332
8.57	0.3082	-9.9487	1.2941	-0.0127	0.0168	0.0015	10.1046	25.9988	-4.4856	-0.7229	0.6321	-0.1532	0.2332
8.58	0.2518	-9.9218	1.2660	-0.0168	0.0224	0.0001	10.0166	25.6936	-4.4667	-0.7228	0.6322	-0.1534	0.2332
8.59	0.2262	-9.9582	1.2682	-0.0269	0.0179	0.0017	9.9672	25.8043	-4.1382	-0.7227	0.6322	-0.1535	0.2332
8.6	0.2219	-10.0022	1.2724	-0.0370	0.0174	-0.0033	10.0175	25.8582	-4.4798	-0.7226	0.6324	-0.1537	0.2332
8.61	0.2142	-10.0267	1.2395	-0.0319	0.0155	-0.0071	9.9332	25.7268	-4.5093	-0.7224	0.6325	-0.1538	0.2332
8.62	0.2068	-10.0341	1.2032	-0.0164	0.0070	-0.0065	9.8805	25.6146	-4.3221	-0.7224	0.6326	-0.1539	0.2332
8.63	0.2090	-10.0352	1.1932	0.0096	0.0089	-0.0122	9.9707	25.6373	-4.3977	-0.7223	0.6325	-0.1539	0.2332
8.64	0.2159	-10.0196	1.2108	0.0402	0.0031	-0.0251	10.1473	25.7907	-4.3728	-0.7225	0.6325	-0.1539	0.2333
8.65	0.2138	-9.9754	1.2352	0.0516	0.0082	-0.0228	10.2709	25.5968	-4.3560	-0.7226	0.6323	-0.1538	0.2333
8.66	0.2196	-9.9284	1.2826	0.0648	0.0006	-0.0234	9.9838	25.6088	-4.4754	-0.7227	0.6321	-0.1538	0.2334
8.67	0.2410	-9.8870	1.3290	0.0470	-0.0069	-0.0239	9.8649	25.6580	-4.3572	-0.7229	0.6320	-0.1537	0.2335
8.68	0.2608	-9.8606	1.3465	0.0346	-0.0015	-0.0230	10.3522	25.2605	-4.4182	-0.7229	0.6318	-0.1536	0.2335
8.69	0.2616	-9.8542	1.3397	0.0043	-0.0060	-0.0237	10.4061	25.5565	-4.6689	-0.7230	0.6319	-0.1535	0.2336
8.7	0.2827	-9.8628	1.3126	-0.0132	-0.0151	-0.0242	10.2346	25.5315	-4.6392	-0.7228	0.6319	-0.1535	0.2335
8.71	0.3071	-9.8988	1.2840	-0.0282	-0.0170	-0.0265	10.1318	25.7900	-4.5475	-0.7228	0.6321	-0.1534	0.2335
8.72	0.3299	-9.9333	1.2556	-0.0343	-0.0183	-0.0220	10.4042	25.8108	-4.4049	-0.7226	0.6323	-0.1534	0.2335
8.73	0.3501	-9.9815	1.2446	-0.0214	-0.0069	-0.0227	10.3441	25.6275	-4.3154	-0.7225	0.6324	-0.1534	0.2335
8.74	0.3608	-9.9714	1.2205	-0.0119	-0.0090	-0.0130	9.9165	25.6484	-4.1472	-0.7224	0.6325	-0.1534	0.2334
8.75	0.3431	-9.9834	1.2332	-0.0058	-0.0040	-0.0074	10.0337	25.8784	-4.2691	-0.7224	0.6325	-0.1534	0.2334
8.76	0.3099	-10.0296	1.2588	0.0107	-0.0004	-0.0104	10.1144	25.7409	-4.4318	-0.7225	0.6325	-0.1534	0.2334
8.77	0.3373	-9.9603	1.2215	0.0118	-0.0077	-0.0201	9.9559	25.7310	-4.2799	-0.7224	0.6325	-0.1533	0.2334
8.78	0.3688	-9.9709	1.2490	0.0145	-0.0061	-0.0229	10.1221	25.7206	-4.1626	-0.7225	0.6325	-0.1533	0.2334
8.79	0.3898	-10.0321	1.2864	0.0180	0.0090	-0.0200	10.1571	25.7701	-4.2554	-0.7225	0.6325	-0.1533	0.2335
8.8	0.3512	-9.9512	1.2583	0.0227	0.0168	-0.0093	10.2193	25.8583	-4.5157	-0.7226	0.6324	-0.1534	0.2335
8.81	0.2742	-9.9043	1.2575	0.0327	0.0199	-0.0122	9.9214	25.6983	-4.3413	-0.7225	0.6322	-0.1534	0.2336
8.82	0.2796	-9.9255	1.2732	0.0387	0.0087	-0.0251	9.9632	25.8651	-4.4280	-0.7227	0.6322	-0.1534	0.2337
8.83	0.3051	-9.9035	1.3097	0.0158	-0.0016	-0.0210	10.4621	25.7436	-4.4686	-0.7227	0.6321	-0.1533	0.2337
8.84	0.3066	-9.9077	1.3249	0.0056	0.0090	-0.0241	10.7237	25.7301	-4.2108	-0.7226	0.6321	-0.1533	0.2338
8.85	0.3136	-9.9387	1.3058	-0.0101	0.0089	-0.0244	10.4516	25.7558	-4.4088	-0.7227	0.6322	-0.1534	0.2339
8.86	0.3291	-9.9414	1.2814	-0.0274	0.0040	-0.0246	10.2627	25.7805	-4.3472	-0.7225	0.6323	-0.1534	0.2339
8.87	0.3494	-9.9881	1.2393	-0.0227	0.0009	-0.0254	10.2437	25.8769	-4.4553	-0.7224	0.6324	-0.1534	0.2339
8.88	0.3650	-10.0099	1.2041	-0.0103	0.0006	-0.0197	10.0485	25.6824	-4.5083	-0.7222	0.6324	-0.1534	0.2339
8.89	0.3669	-9.9943	1.1993	0.0071	0.0097	-0.0067	10.0592	25.8774	-4.3757	-0.7223	0.6325	-0.1535	0.2340
8.9	0.3675	-9.9985	1.2156	0.0295	0.0088	-0.0113	9.9989	25.7158	-4.5679	-0.7223	0.6324	-0.1535	0.2340
8.91	0.3593	-9.9810	1.2481	0.0422	0.0084	0.0014	10.1257	25.8132	-4.3545	-0.7224	0.6322	-0.1535	0.2340
8.92	0.3507	-9.9322	1.2901	0.0445	0.0063	-0.0039	9.9512	25.7972	-4.5540	-0.7226	0.6321	-0.1536	0.2340
8.93	0.3427	-9.9331	1.3097	0.0409	0.0085	-0.0085	9.7383	25.7370	-4.2597	-0.7227	0.6319	-0.1536	0.2341
8.94	0.3409	-9.9349	1.3267	0.0173	0.0123	-0.0081	9.9581	25.8500	-4.5064	-0.7227	0.6319	-0.1536	0.2341
8.95	0.3398	-9.9218	1.3197	0.0090	0.0144	-0.0071	9.9941	25.7863	-4.2864	-0.7227	0.6318	-0.1537	0.2341
8.96	0.3276	-9.9429	1.2926	0.0116	0.0187	-0.0013	10.1008	25.8349	-4.3845	-0.7228	0.6318	-0.1538	0.2342
8.97	0.3117	-9.9525	1.2804	0.0137	0.0235	-0.0060	10.0308	25.7843	-4.5972	-0.7227	0.6317	-0.1539	0.2342
8.98	0.3095	-9.9477	1.2865	0.0169	0.0209	-0.0091	9.9646	25.8823	-4.1981	-0.7228	0.6317	-0.1540	0.2343
8.99	0.3078	-9.9446	1.3021	0.0229	0.0196	-0.0077	10.0102	26.0126	-4.6633	-0.7228	0.6316	-0.1541	0.2343
9	0.2843	-9.9247	1.3213	0.0375	0.0208	-0.0053	9.9618	25.7102	-4.6662	-0.7229	0.6315	-0.1541	0.2344
9.01	0.2658	-9.9176	1.3317	0.0282	0.0153	-0.0038	10.0468	25.7734	-4.4911	-0.7230	0.6314	-0.1542	0.2344
9.02	0.2716	-9.9139	1.3454	0.0128	0.0098	-0.0094	10.1508	25.5363	-4.5006	-0.7229	0.6313	-0.1542	0.2344
9.03	0.2733	-9.9070	1.3362	0.0080	0.0092	-0.0125	10.2980	25.5699	-4.4473	-0.7230	0.6313	-0.1543	0.2345
9.04	0.2682	-9.9019	1.3155	0.0051	0.0169	-0.0104	10.1715	25.6555	-4.4069	-0.7229	0.6313	-0.1544	0.2345
9.05	0.2696	-9.8919	1.3058	0.0144	0.0112	-0.0070	9.9774	25.6598	-4.3032	-0.7230	0.6313	-0.1544	0.2346
9.06	0.2718	-9.8898	1.3140	0.0065	0.0091	-0.0109	9.9744	25.5199	-4.4106	-0.7229	0.6312	-0.1545	0.2346
9.07	0.2733	-9.8852	1.3229	0.0130	0.0104	-0.0151	10.1372	25.6034	-4.6057	-0.7230	0.6312	-0.1545	0.2346
9.08	0.2650	-9.8794	1.3343	0.0029	0.0095	-0.0084	10.1389	25.7797	-4.4405	-0.7229	0.6312	-0.1546	0.2346
9.09	0.2652	-9.8884	1.3382	-0.0095	0.0086	-0.0105	9.9792	25.6292	-4.5382	-0.7228	0.6312	-0.1546	0.2346
9.1	0.2715	-9.9273	1.3259	-0.0232	0.0045	-0.0108	9.9700	25.6269	-4.3489	-0.7228	0.6314	-0.1547	0.2347
9.11	0.2738	-9.9667	1.3029	-0.0365	0.0039	-0.0141	10.0467	25.8203	-4.4682	-0.7226	0.6315	-0.1548	0.2346
9.12	0.2898	-9.9662	1.2490	-0.0345	0.0080	-0.0195	10.0392	25.7262	-4.4994	-0.7225	0.6317	-0.1548	0.2347
9.13	0.3009	-9.9687	1.2261	-0.0300	0.0033	-0.0121	9.8667	25.8239	-4.4331	-0.7223	0.6317	-0.1549	0.2346
9.14	0.3052	-10.0159	1.2468	-0.0068	0.0088	-0.0187	10.0249	25.8947	-4.2151	-0.7223	0.6318	-0.1549	0.2347
9.15	0.3212	-10.0108	1.2510	0.0046	0.0003	-0.0237	9.9683	25.6424	-4.5131	-0.7223	0.6318	-0.1549	0.2347
9.16	0.3352	-9.9883	1.2613	0.0138	-0.0020	-0.0241	9.9997	25.8457	-4.5485	-0.7223	0.6318	-0.1549	0.2347
9.17	0.3643	-10.0033	1.2624	0.0124	0.0045	-0.0164	9.9707	25.7725	-4.2786	-0.7223	0.6318	-0.1549	0.2348
9.18	0.3645	-10.0027	1.2764	0.0141	0.0074	-0.0118	10.0089	26.0166	-4.4198	-0.7223	0.6318	-0.1549	0.2348
9.19	0.3258	-9.9877	1.2644	0.0171	0.0150	-0.0018	9.9422	26.0490	-4.2540	-0.7224	0.6317	-0.1550	0.2348
9.2	0.3083	-9.9738	1.2520	0.0276	0.0022	0.0020	10.1788	25.4866	-4.4139	-0.7223	0.6316	-0.1550	0.2348
9.21	0.3274	-9.9657	1.2851	0.0342	0.0010	-0.0047	10.2530	25.5981	-4.3894	-0.7225	0.6316	-0.1551	0.2348
9.22	0.3526	-9.9510	1.3235	0.0408	0.0107	-0.0096	10.1234	25.7843	-4.5738	-0.7226	0.6314	-0.1551	0.2348
9.23	0.3262	-9.9212	1.3469	0.0427	0.0248	-0.0009	10.1852	25.6253	-4.5852	-0.7227	0.6312	-0.1551	0.2349
9.24	0.2514	-9.8532	1.3378	0.0320	0.0284	0.0044	10.1447	25.6507	-4.5805	-0.7228	0.6311	-0.1553	0.2349
9.25	0.2022	-9.8218	1.3318	0.0141	0.0245	-0.0032	10.0647	25.7398	-4.3239	-0.7228	0.6310	-0.1554	0.2350
9.26	0.1970	-9.8399	1.3480	0.0010	0.0196	-0.0059	10.0727	25.7254	-4.5225	-0.7228	0.6310	-0.1555	0.2350
9.27	0.2037	-9.8592	1.3487	-0.0188	0.0101	-0.0129	10.0730	25.7283	-4.6969	-0.7226	0.6310	-0.1556	0.2350
9.28	0.2063	-9.8826	1.3219	-0.0329	0.0117	-0.0187	10.1746	25.6285	-4.6574	-0.7226	0.6312	-0.1557	0.2351
9.29	0.2066	-9.9118	1.2877	-0.0356	0.0089	-0.0189	10.1723	25.7727	-4.5401	-0.7224	0.6313	-0.1557	0.2351
9.3	0.2111	-9.9344	1.2625	-0.0301	0.0067	-0.0222	10.1123	25.6335	-4.4014	-0.7223	0.6315	-0.1558	0.2351
9.31	0.2211	-9.9455	1.2471	-0.0161	-0.0011	-0.0227	9.9616	25.7119	-4.3881	-0.7221	0.6316	-0.1558	0.2351
9.32	0.2390	-9.9647	1.2556	-0.0152	-0.0046	-0.0246	9.8952	25.9918	-4.4240	-0.7221	0.6317	-0.1558	0.2352
9.33	0.2632	-9.9577	1.2611	-0.0084	-0.0064	-0.0234	10.1194	25.9473	-4.3422	-0.7220	0.6318	-0.1557	0.2352
9.34	0.2702	-9.9504	1.2730	-0.0088	-0.0110	-0.0248	10.5547	25.8216	-3.9483	-0.7219	0.6318	-0.1557	0.2352
9.35	0.2825	-9.9661	1.2730	-0.0108	-0.0060	-0.0218	10.4158	25.7733	-4.2111	-0.7220	0.6320	-0.1557	0.2352
9.36	0.3071	-9.9586	1.2663	-0.0099	-0.0186	-0.0187	10.1175	25.8917	-4.3417	-0.7218	0.6320	-0.1556	0.2351
9.37	0.3209	-9.9611	1.2632	-0.0163	-0.0198	-0.0158	10.1024	26.1360	-4.3397	-0.7218	0.6321	-0.1556	0.2351
9.38	0.3390	-9.9754	1.2476	-0.0183	-0.0200	-0.0108	10.0543	25.5841	-4.3557	-0.7217	0.6322	-0.1555	0.2350
9.39	0.3533	-9.9906	1.2512	-0.0202	-0.0210	-0.0078	10.3104	25.7002	-4.2566	-0.7217	0.6324	-0.1555	0.2349
9.4	0.3602	-9.9777	1.2395	-0.0127	-0.0128	-0.0002	10.0338	25.9192	-4.2192	-0.7216	0.6324	-0.1555	0.2348
9.41	0.3516	-9.9420	1.2214	-0.0046	-0.0032	-0.0047	10.2205	25.8624	-4.1922	-0.7216	0.6325	-0.1556	0.2347
9.42	0.2995	-9.9985	1.2551	0.0059	0.0041	0.0006	10.3912	25.5968	-4.6190	-0.7216	0.6325	-0.1556	0.2347
9.43	0.2972	-9.9654	1.2295	-0.0077	0.0044	-0.0136	10.1282	25.7046	-4.5981	-0.7215	0.6325	-0.1557	0.2347
9.44	0.3177	-9.9215	1.2182	-0.0024	-0.0033	-0.0209	9.8763	25.7170	-4.4825	-0.7215	0.6326	-0.1557	0.2347
9.45	0.3364	-9.9882	1.2645	0.0133	0.0041	-0.0232	10.3030	25.8304	-4.3471	-0.7214	0.6325	-0.1556	0.2347
9.46	0.3503	-9.9885	1.2670	0.0131	0.0080	-0.0165	10.0973	25.8018	-4.2615	-0.7215	0.6325	-0.1557	0.2348
9.47	0.2898	-9.9218	1.2562	0.0170	0.0142	-0.0129	10.2789	25.5723	-4.4134	-0.7215	0.6325	-0.1557	0.2349
9.48	0.2574	-9.9326	1.2525	0.0171	0.0280	-0.0194	10.0493	25.8034	-4.4843	-0.7215	0.6324	-0.1558	0.2350
9.49	0.2730	-9.9343	1.2668	0.0130	0.0071	-0.0200	9.8475	25.9508	-4.3231	-0.7215	0.6324	-0.1558	0.2350
9.5	0.2944	-9.9182	1.2848	-0.0011	0.0049	-0.0242	9.9311	25.6051	-4.2870	-0.7215	0.6324	-0.1558	0.2351
9.51	0.3094	-9.9468	1.2781	-0.0105	0.0082	-0.0251	10.0535	25.8081	-4.5726	-0.7214	0.6325	-0.1558	0.2352
9.52	0.3193	-9.9576	1.2659	-0.0100	-0.0007	-0.0247	10.0933	26.0513	-4.4639	-0.7213	0.6325	-0.1558	0.2352
9.53	0.3396	-9.9760	1.2612	-0.0132	0.0042	-0.0245	10.0567	25.8619	-4.3229	-0.7213	0.6326	-0.1558	0.2352
9.54	0.3651	-10.0081	1.2369	-0.0135	0.0104	-0.0259	9.9438	25.7958	-4.2784	-0.7211	0.6327	-0.1558	0.2353
9.55	0.3649	-9.9988	1.2184	-0.0091	0.0087	-0.0186	9.8003	25.6780	-4.4608	-0.7211	0.6328	-0.1559	0.2353
9.56	0.3659	-9.9959	1.2215	-0.0006	0.0054	-0.0187	9.8961	25.8804	-4.4548	-0.7210	0.6327	-0.1559	0.2353
9.57	0.3707	-10.0038	1.2386	0.0257	0.0073	-0.0116	9.8976	25.8424	-4.3175	-0.7211	0.6327	-0.1559	0.2354
9.58	0.3533	-9.9681	1.2543	0.0341	0.0146	-0.0136	10.1018	25.5605	-4.2261	-0.7212	0.6326	-0.1559	0.2355
9.59	0.3200	-9.9374	1.2604	0.0376	0.0224	-0.0116	10.2220	25.7675	-4.3431	-0.7212	0.6324	-0.1560	0.2355
9.6	0.2871	-9.9397	1.2725	0.0329	0.0294	-0.0234	10.0008	25.6248	-4.4790	-0.7213	0.6324	-0.1560	0.2357
9.61	0.2677	-9.9292	1.2857	0.0304	0.0272	-0.0180	10.0503	25.6528	-4.4044	-0.7213	0.6322	-0.1561	0.2358
9.62	0.2363	-9.9502	1.2985	0.0323	0.0277	-0.0193	10.2101	25.6845	-4.3143	-0.7214	0.6322	-0.1562	0.2360
9.63	0.1828	-9.9729	1.2959	0.0320	0.0188	-0.0219	9.6274	25.8531	-4.4866	-0.7214	0.6320	-0.1562	0.2361
9.64	0.1875	-9.9649	1.2847	0.0169	-0.0056	-0.0167	10.0224	25.7816	-4.3010	-0.7215	0.6320	-0.1562	0.2361
9.65	0.2431	-9.9202	1.2883	0.0255	-0.0181	-0.0237	10.0607	25.5725	-4.2798	-0.7215	0.6319	-0.1560	0.2361
9.66	0.2513	-9.8880	1.2991	0.0361	-0.0062	-0.0163	10.1818	25.8219	-4.4800	-0.7216	0.6318	-0.1560	0.2361
9.67	0.2256	-9.8807	1.3224	0.0415	-0.0174	-0.0167	9.9498	25.8301	-4.4388	-0.7217	0.6318	-0.1559	0.2361
9.68	0.2458	-9.8816	1.3580	0.0229	-0.0209	-0.0236	9.9120	25.8132	-4.1985	-0.7218	0.6317	-0.1557	0.2361
9.69	0.3142	-9.8941	1.3816	0.0068	-0.0290	-0.0236	10.0132	25.8456	-4.3935	-0.7218	0.6318	-0.1556	0.2361
9.7	0.3667	-9.9016	1.3741	-0.0248	-0.0225	-0.0248	9.9744	25.7209	-4.5943	-0.7216	0.6318	-0.1555	0.2360
9.71	0.3502	-9.9118	1.3255	-0.0419	-0.0153	-0.0239	9.8780	25.6417	-4.3708	-0.7216	0.6321	-0.1555	0.2360
9.72	0.3590	-9.9115	1.2724	-0.0507	-0.0208	-0.0274	9.9218	25.7953	-4.2376	-0.7213	0.6323	-0.1555	0.2359
9.73	0.4113	-9.9132	1.2490	-0.0429	-0.0190	-0.0301	9.8110	25.8924	-4.2789	-0.7212	0.6326	-0.1554	0.2359
9.74	0.4325	-9.9446	1.2684	-0.0337	-0.0094	-0.0261	9.8101	25.9351	-4.2833	-0.7210	0.6327	-0.1554	0.2358
9.75	0.4372	-9.9740	1.2733	-0.0326	0.0027	-0.0282	10.0469	25.7485	-4.2411	-0.7209	0.6329	-0.1554	0.2359
9.76	0.4129	-10.0669	1.3130	-0.0284	0.0041	-0.0260	10.1084	25.7604	-4.3456	-0.7208	0.6330	-0.1554	0.2359
9.77	0.4234	-10.1786	1.3359	-0.0497	0.0059	-0.0259	9.9639	25.6147	-4.3503	-0.7205	0.6332	-0.1555	0.2359
9.78	0.4896	-10.1926	1.2394	-0.0850	0.0108	-0.0266	9.9246	25.7985	-4.3946	-0.7203	0.6336	-0.1556	0.2360
9.79	0.5164	-10.1442	1.1115	-0.0837	0.0187	-0.0181	9.8019	25.7625	-4.2689	-0.7199	0.6339	-0.1557	0.2360
9.8	0.4387	-10.1639	1.0295	-0.0417	0.0582	-0.0106	9.9391	25.5648	-4.3942	-0.7198	0.6340	-0.1560	0.2361
9.81	0.3223	-10.0933	0.9537	0.0104	0.0697	-0.0056	10.0858	25.8818	-4.4945	-0.7196	0.6339	-0.1563	0.2363
9.82	0.2318	-10.0075	0.9996	0.0792	0.0397	-0.0094	9.8686	25.7760	-4.0462	-0.7198	0.6336	-0.1564	0.2365
9.83	0.2409	-10.0197	1.1482	0.1022	0.0194	-0.0152	10.4290	25.7575	-4.1464	-0.7201	0.6333	-0.1564	0.2366
9.84	0.2702	-10.0000	1.2820	0.0959	0.0000	-0.0033	10.7282	25.9523	-4.2333	-0.7204	0.6329	-0.1563	0.2366
9.85	0.2343	-9.9390	1.3120	0.0631	0.0129	-0.0057	10.4300	25.8485	-4.3425	-0.7206	0.6328	-0.1563	0.2367
9.86	0.2117	-9.9235	1.2632	0.0322	0.0130	-0.0087	9.9089	25.9410	-4.2518	-0.7206	0.6326	-0.1563	0.2368
9.87	0.2376	-9.9868	1.2349	0.0145	-0.0137	-0.0175	9.9851	26.2505	-4.3525	-0.7207	0.6326	-0.1563	0.2368
9.88	0.3053	-10.0071	1.2077	0.0279	-0.0157	-0.0119	9.6879	25.8358	-4.1365	-0.7207	0.6325	-0.1562	0.2367
9.89	0.3323	-9.9615	1.1741	0.0725	0.0000	-0.0079	9.8787	25.9084	-4.0136	-0.7210	0.6323	-0.1561	0.2367
9.9	0.3196	-9.8954	1.1873	0.1100	-0.0073	-0.0048	9.9134	25.8413	-4.4312	-0.7213	0.6319	-0.1560	0.2368
9.91	0.3236	-9.8236	1.2674	0.1421	-0.0124	-0.0053	9.9558	25.9900	-4.3049	-0.7217	0.6315	-0.1559	0.2368
9.92	0.3364	-9.7770	1.3788	0.1361	-0.0090	-0.0026	10.1566	25.8430	-4.4494	-0.7221	0.6310	-0.1557	0.2369
9.93	0.3261	-9.7575	1.4662	0.0962	-0.0059	0.0039	9.7169	25.8114	-4.4777	-0.7224	0.6307	-0.1556	0.2369
9.94	0.3276	-9.7115	1.4820	0.0450	-0.0066	-0.0080	9.6794	25.8624	-4.4148	-0.7226	0.6305	-0.1556	0.2369
9.95	0.3332	-9.7152	1.4541	-0.0109	-0.0052	-0.0067	9.8097	25.6496	-4.7187	-0.7225	0.6305	-0.1556	0.2368
9.96	0.3305	-9.7848	1.4002	-0.0532	-0.0034	-0.0072	10.0937	25.8580	-4.6752	-0.7224	0.6308	-0.1557	0.2367
9.97	0.3289	-9.8357	1.3120	-0.0665	0.0052	-0.0111	10.1402	25.7031	-4.5169	-0.7221	0.6310	-0.1558	0.2367
9.98	0.3225	-9.8729	1.2718	-0.0455	0.0095	-0.0132	9.8584	25.7794	-4.5031	-0.7220	0.6312	-0.1559	0.2367
9.99	0.3172	-9.9159	1.2842	-0.0122	0.0114	-0.0227	10.0245	25.7930	-4.4938	-0.7219	0.6313	-0.1560	0.2367
10	0.3327	-9.9061	1.3022	0.0090	0.0051	-0.0235	9.9939	25.6753	-4.2767	-0.7219	0.6313	-0.1560	0.2368
10.01	0.3351	-9.8742	1.3586	0.0158	0.0049	-0.0237	9.9543	25.7103	-4.5338	-0.7219	0.6313	-0.1559	0.2368
10.02	0.3375	-9.8846	1.3873	0.0003	0.0112	-0.0236	9.8743	25.7012	-4.3934	-0.7218	0.6312	-0.1559	0.2369
10.03	0.3400	-9.9026	1.3818	-0.0275	-0.0011	-0.0245	10.0506	25.5946	-4.4104	-0.7217	0.6314	-0.1560	0.2370
10.04	0.3515	-9.8905	1.3433	-0.0550	-0.0055	-0.0134	9.9298	25.6400	-4.5443	-0.7215	0.6316	-0.1560	0.2369
10.05	0.3583	-9.8660	1.2617	-0.0624	0.0005	-0.0117	9.9081	25.8313	-4.4099	-0.7214	0.6319	-0.1561	0.2368
10.06	0.3469	-9.8660	1.2147	-0.0572	-0.0000	-0.0052	9.9032	26.1043	-4.4178	-0.7210	0.6321	-0.1562	0.2367
10.07	0.3288	-9.9503	1.2703	-0.0342	-0.0012	-0.0095	9.8320	25.8746	-4.5283	-0.7210	0.6323	-0.1563	0.2367
10.08	0.3465	-9.9623	1.2861	-0.0398	-0.0045	-0.0123	10.1339	25.9552	-4.6753	-0.7208	0.6324	-0.1563	0.2367
10.09	0.3654	-9.9120	1.2760	-0.0470	-0.0089	-0.0142	9.9939	25.8894	-4.3379	-0.7206	0.6326	-0.1564	0.2366
10.1	0.3865	-9.9746	1.2940	-0.0488	-0.0021	-0.0229	9.9150	25.8943	-4.1034	-0.7205	0.6329	-0.1564	0.2366
10.11	0.4018	-10.0182	1.2786	-0.0588	0.0042	-0.0161	10.0390	26.1160	-4.2918	-0.7202	0.6331	-0.1565	0.2366
10.12	0.3845	-9.9888	1.2435	-0.0613	0.0060	-0.0114	9.9295	25.7745	-4.4055	-0.7201	0.6334	-0.1566	0.2365
10.13	0.3570	-9.9908	1.2018	-0.0503	0.0085	-0.0114	9.8841	25.8137	-4.3302	-0.7198	0.6335	-0.1567	0.2365
10.14	0.3659	-9.9475	1.1733	-0.0289	0.0012	-0.0095	9.9482	25.5240	-4.2884	-0.7197	0.6337	-0.1568	0.2365
10.15	0.3609	-9.9372	1.2234	-0.0106	0.0055	-0.0133	10.1672	25.5985	-4.1559	-0.7196	0.6337	-0.1568	0.2365
10.16	0.3793	-9.9313	1.2574	-0.0120	0.0121	-0.0237	10.1987	25.5713	-4.1066	-0.7195	0.6338	-0.1569	0.2365
10.17	0.3948	-9.8786	1.2910	-0.0262	0.0057	-0.0234	10.0437	25.3950	-4.1396	-0.7194	0.6339	-0.1569	0.2366
10.18	0.3944	-9.9114	1.3077	-0.0565	0.0158	-0.0287	10.0181	25.7457	-4.2351	-0.7192	0.6341	-0.1570	0.2366
10.19	0.4081	-9.9902	1.2862	-0.0815	0.0209	-0.0299	9.9026	25.5907	-4.2308	-0.7189	0.6345	-0.1571	0.2367
10.2	0.3849	-10.0010	1.2216	-0.0901	0.0203	-0.0246	10.0054	25.8047	-4.1376	-0.7185	0.6347	-0.1572	0.2367
10.21	0.3652	-10.0427	1.1411	-0.0798	0.0368	-0.0248	10.0721	25.7714	-4.1265	-0.7182	0.6351	-0.1575	0.2368
10.22	0.3713	-10.0708	1.0928	-0.0485	0.0267	-0.0247	9.8530	25.7022	-4.1342	-0.7180	0.6352	-0.1576	0.2369
10.23	0.3869	-10.0790	1.1194	-0.0076	0.0099	-0.0235	9.9503	25.9035	-4.1369	-0.7179	0.6353	-0.1576	0.2370
10.24	0.3957	-10.0919	1.1584	0.0309	0.0293	-0.0222	9.7967	25.8855	-4.0433	-0.7179	0.6352	-0.1577	0.2371
10.25	0.3584	-10.0294	1.1689	0.0422	0.0332	-0.0145	9.9571	25.6207	-4.0223	-0.7180	0.6351	-0.1578	0.2372
10.26	0.3436	-9.9662	1.1927	0.0409	0.0104	-0.0168	10.0588	25.8617	-4.0793	-0.7181	0.6349	-0.1578	0.2373
10.27	0.3832	-9.9907	1.2211	0.0287	0.0190	-0.0229	10.1214	25.8116	-4.2496	-0.7181	0.6348	-0.1578	0.2374
10.28	0.4058	-9.9617	1.1984	0.0143	0.0157	-0.0028	9.8495	25.7776	-4.2059	-0.7182	0.6348	-0.1579	0.2375
10.29	0.3499	-9.9247	1.1702	0.0189	0.0226	0.0004	9.9933	26.0902	-4.2650	-0.7182	0.6347	-0.1580	0.2375
10.3	0.3296	-9.9453	1.1581	0.0304	0.0231	-0.0069	9.9442	25.9747	-4.1395	-0.7183	0.6346	-0.1581	0.2376
10.31	0.3533	-9.9133	1.1844	0.0389	0.0128	0.0027	9.8918	25.8988	-4.1453	-0.7183	0.6344	-0.1581	0.2376
10.32	0.3468	-9.8862	1.2305	0.0431	0.0280	0.0004	9.9318	25.7073	-4.2101	-0.7185	0.6343	-0.1582	0.2377
10.33	0.3137	-9.8910	1.2549	0.0382	0.0346	0.0039	10.2846	25.6317	-3.9108	-0.7185	0.6341	-0.1584	0.2377
10.34	0.2813	-9.8904	1.2801	0.0126	0.0137	0.0006	10.7637	25.7970	-3.9945	-0.7185	0.6340	-0.1584	0.2377
10.35	0.2791	-9.9037	1.2720	-0.0200	0.0108	-0.0021	10.4599	26.0879	-4.1710	-0.7185	0.6342	-0.1586	0.2377
10.36	0.2906	-9.9108	1.2169	-0.0380	0.0118	-0.0099	10.0697	26.2020	-4.4144	-0.7183	0.6343	-0.1587	0.2377
10.37	0.2784	-9.9299	1.1827	-0.0306	0.0096	-0.0086	10.2330	26.1703	-4.3830	-0.7183	0.6344	-0.1588	0.2377
10.38	0.2593	-9.9614	1.1715	-0.0110	0.0090	-0.0135	9.9600	25.6815	-4.2440	-0.7181	0.6344	-0.1588	0.2377
10.39	0.2571	-9.9665	1.1732	-0.0073	-0.0007	-0.0054	9.8970	25.8371	-4.2752	-0.7181	0.6345	-0.1589	0.2377
10.4	0.2753	-9.9382	1.2017	-0.0019	-0.0067	-0.0158	9.8867	25.7830	-4.0565	-0.7181	0.6346	-0.1589	0.2377
10.41	0.3022	-9.9267	1.2189	-0.0050	-0.0092	-0.0174	9.9356	25.8834	-4.1751	-0.7180	0.6346	-0.1588	0.2377
10.42	0.3050	-9.9461	1.2336	-0.0118	-0.0031	-0.0100	9.6657	26.0012	-4.1546	-0.7180	0.6347	-0.1589	0.2376
10.43	0.3076	-9.9600	1.2109	-0.0378	-0.0101	-0.0218	9.7992	25.8372	-4.0856	-0.7178	0.6348	-0.1589	0.2376
10.44	0.3426	-9.9681	1.1556	-0.0471	-0.0110	-0.0231	9.9482	25.8024	-4.2186	-0.7177	0.6351	-0.1589	0.2376
10.45	0.3741	-9.9682	1.1119	-0.0348	-0.0105	-0.0178	9.7995	25.8051	-4.0605	-0.7174	0.6352	-0.1588	0.2375
10.46	0.3677	-9.9777	1.1041	-0.0120	-0.0079	-0.0131	9.7901	26.0308	-4.0876	-0.7175	0.6354	-0.1589	0.2375
10.47	0.3391	-9.9869	1.1280	0.0133	-0.0025	-0.0079	9.8633	25.7809	-3.9041	-0.7174	0.6353	-0.1589	0.2375
10.48	0.3402	-9.9925	1.1827	0.0213	-0.0054	-0.0042	9.8989	25.6849	-3.8901	-0.7175	0.6353	-0.1589	0.2374
10.49	0.3784	-10.0079	1.2473	0.0094	-0.0103	-0.0146	9.9209	25.8475	-3.8853	-0.7175	0.6353	-0.1588	0.2374
10.5	0.4072	-10.0084	1.2421	-0.0197	-0.0015	-0.0051	9.8420	25.7553	-4.1715	-0.7175	0.6354	-0.1589	0.2374
10.51	0.3781	-10.0110	1.1924	-0.0345	0.0031	0.0015	10.0859	25.7291	-4.1128	-0.7173	0.6355	-0.1590	0.2373
10.52	0.3542	-9.9813	1.1193	-0.0246	0.0089	0.0008	10.2054	25.6433	-4.0408	-0.7172	0.6355	-0.1591	0.2372
10.53	0.3423	-9.9360	1.0922	-0.0002	0.0138	0.0016	10.0429	25.6303	-4.2114	-0.7172	0.6356	-0.1592	0.2372
10.54	0.3057	-9.9120	1.1186	0.0276	0.0288	0.0026	9.9263	25.9156	-4.1084	-0.7172	0.6355	-0.1593	0.2373
10.55	0.2709	-9.9051	1.1987	0.0421	0.0275	0.0001	10.1628	25.3605	-4.0531	-0.7174	0.6354	-0.1595	0.2374
10.56	0.2672	-9.8946	1.2707	0.0142	0.0191	-0.0057	9.9832	25.4750	-4.0690	-0.7173	0.6352	-0.1595	0.2374
10.57	0.2597	-9.8884	1.2745	-0.0244	0.0216	-0.0108	9.7573	25.8915	-4.0863	-0.7173	0.6353	-0.1597	0.2374
10.58	0.2439	-9.8984	1.2232	-0.0594	0.0296	-0.0206	10.0368	25.7814	-4.0628	-0.7170	0.6355	-0.1598	0.2375
10.59	0.2328	-9.9437	1.1375	-0.0737	0.0278	-0.0230	10.1745	25.8181	-4.0927	-0.7167	0.6358	-0.1600	0.2375
10.6	0.2353	-10.0613	1.1170	-0.0569	0.0158	-0.0247	10.0658	25.8233	-4.0406	-0.7166	0.6361	-0.1601	0.2376
10.61	0.2660	-10.1160	1.0873	-0.0316	0.0091	-0.0242	9.9528	25.9222	-4.1469	-0.7163	0.6362	-0.1601	0.2376
10.62	0.2690	-10.1031	1.0677	0.0013	0.0119	-0.0236	10.0456	25.9095	-3.8732	-0.7163	0.6363	-0.1602	0.2377
10.63	0.2450	-10.0651	1.0656	0.0399	0.0153	-0.0233	9.7751	25.8068	-3.6644	-0.7163	0.6361	-0.1602	0.2378
10.64	0.2536	-10.0658	1.1110	0.0570	0.0002	-0.0234	9.8531	25.8293	-4.0781	-0.7165	0.6360	-0.1601	0.2379
10.65	0.3038	-9.9946	1.1376	0.0676	-0.0071	-0.0229	10.0452	25.7551	-4.0902	-0.7167	0.6357	-0.1600	0.2380
10.66	0.3737	-9.8197	1.1098	0.0623	-0.0146	-0.0242	9.9369	25.7545	-4.0044	-0.7168	0.6356	-0.1598	0.2380
10.67	0.3471	-9.9888	1.2617	0.0562	0.0029	-0.0219	10.1475	26.0561	-3.8838	-0.7170	0.6354	-0.1597	0.2381
10.68	0.3597	-10.0307	1.2421	0.0097	0.0137	-0.0265	9.8501	25.9233	-3.8893	-0.7170	0.6354	-0.1597	0.2382
10.69	0.3158	-9.8341	1.1227	-0.0169	0.0026	-0.0050	9.8682	25.7102	-4.1670	-0.7169	0.6355	-0.1598	0.2382
10.7	0.2288	-9.9395	1.1130	-0.0100	0.0089	-0.0095	9.8887	25.7388	-4.0871	-0.7168	0.6354	-0.1599	0.2382
10.71	0.2987	-10.0772	1.1198	-0.0041	-0.0053	-0.0281	10.0482	25.6045	-3.8492	-0.7168	0.6356	-0.1598	0.2382
10.72	0.3580	-10.0092	1.1438	0.0160	-0.0255	-0.0113	10.1867	25.8523	-4.2446	-0.7168	0.6356	-0.1597	0.2382
10.73	0.3464	-9.9491	1.1229	0.0358	0.0039	-0.0129	9.9472	25.6522	-4.2663	-0.7169	0.6355	-0.1597	0.2382
10.74	0.2963	-9.9795	1.1491	0.0445	0.0039	-0.0121	10.0922	25.6207	-4.2527	-0.7170	0.6353	-0.1597	0.2382
10.75	0.3080	-9.9622	1.2051	0.0383	-0.0184	-0.0135	10.0709	25.8857	-4.2698	-0.7171	0.6352	-0.1596	0.2382
10.76	0.3608	-9.9699	1.2289	0.0265	-0.0078	-0.0162	9.8790	25.9133	-4.0212	-0.7172	0.6352	-0.1595	0.2382
10.77	0.3577	-10.0062	1.2103	0.0028	-0.0008	-0.0066	9.9990	25.8187	-3.9644	-0.7171	0.6351	-0.1595	0.2382
10.78	0.3278	-9.9769	1.1574	-0.0045	0.0001	-0.0074	10.0507	25.7039	-4.0012	-0.7172	0.6353	-0.1596	0.2382
10.79	0.3169	-9.9914	1.1340	0.0144	-0.0059	-0.0097	10.0167	25.7258	-3.9598	-0.7171	0.6352	-0.1596	0.2381
10.8	0.3453	-10.0141	1.1425	0.0308	-0.0164	-0.0137	10.0509	25.7354	-4.0458	-0.7173	0.6352	-0.1595	0.2381
10.81	0.3661	-9.9884	1.1748	0.0494	-0.0082	-0.0126	9.8662	25.6911	-4.2017	-0.7173	0.6350	-0.1594	0.2381
10.82	0.3630	-9.9877	1.2125	0.0606	-0.0062	-0.0182	9.9147	26.0093	-4.0170	-0.7175	0.6349	-0.1593	0.2382
10.83	0.3673	-9.9847	1.2288	0.0486	-0.0038	-0.0137	10.1103	26.0628	-3.8012	-0.7177	0.6347	-0.1593	0.2382
10.84	0.3609	-9.9637	1.2501	0.0368	-0.0015	-0.0060	10.5486	25.8763	-3.8285	-0.7177	0.6346	-0.1592	0.2382
10.85	0.3612	-9.9956	1.2391	0.0254	0.0086	-0.0039	10.4584	25.9835	-4.1855	-0.7179	0.6346	-0.1593	0.2382
10.86	0.3516	-10.0132	1.2163	0.0322	0.0071	-0.0062	10.2409	26.0170	-4.2672	-0.7179	0.6344	-0.1593	0.2382
10.87	0.3342	-9.9904	1.2008	0.0461	0.0069	-0.0046	9.9818	26.2059	-4.0972	-0.7181	0.6343	-0.1593	0.2383
10.88	0.3256	-9.9817	1.1948	0.0651	0.0021	-0.0002	10.0912	25.6791	-4.1677	-0.7181	0.6340	-0.1593	0.2382
10.89	0.3207	-9.9580	1.2427	0.0837	0.0068	-0.0043	10.1624	25.5257	-4.1765	-0.7185	0.6338	-0.1593	0.2383
10.9	0.3193	-9.9156	1.2947	0.0910	0.0058	0.0005	10.0503	25.5591	-4.1593	-0.7187	0.6335	-0.1592	0.2384
10.91	0.3081	-9.9125	1.3496	0.0728	0.0070	-0.0072	10.3829	25.5355	-4.2375	-0.7189	0.6332	-0.1592	0.2384
10.92	0.3096	-9.9051	1.3715	0.0615	0.0060	-0.0074	10.2319	25.6466	-4.2027	-0.7191	0.6330	-0.1592	0.2385
10.93	0.3041	-9.8736	1.3534	0.0416	0.0103	-0.0090	10.1400	25.6444	-4.4997	-0.7192	0.6328	-0.1592	0.2385
10.94	0.2886	-9.8975	1.3230	0.0269	0.0165	-0.0107	9.9963	25.8140	-4.2763	-0.7193	0.6328	-0.1592	0.2386
10.95	0.2924	-9.9102	1.2802	0.0147	0.0177	-0.0072	9.9863	25.8075	-4.4318	-0.7192	0.6327	-0.1593	0.2386
10.96	0.2833	-9.8977	1.2579	0.0291	0.0111	-0.0043	10.0923	25.7074	-4.4725	-0.7194	0.6326	-0.1594	0.2387
10.97	0.2781	-9.8831	1.2641	0.0444	0.0095	-0.0077	10.0770	25.7270	-4.4259	-0.7194	0.6325	-0.1594	0.2387
10.98	0.2714	-9.8629	1.2985	0.0524	0.0076	-0.0105	10.0715	25.7126	-4.5436	-0.7196	0.6323	-0.1594	0.2388
10.99	0.2456	-9.8275	1.3326	0.0465	0.0136	-0.0173	10.0980	25.8197	-4.3773	-0.7197	0.6321	-0.1594	0.2388
11	0.2381	-9.8540	1.3736	0.0324	0.0151	-0.0236	10.1691	25.8104	-4.4236	-0.7197	0.6320	-0.1594	0.2390
11.01	0.2510	-9.8811	1.3889	0.0048	0.0028	-0.0237	10.0198	25.8110	-4.3939	-0.7197	0.6321	-0.1593	0.2390
11.02	0.2624	-9.8765	1.3508	-0.0272	0.0083	-0.0231	10.2100	25.8193	-4.4169	-0.7195	0.6321	-0.1594	0.2390
11.03	0.2624	-9.9397	1.3088	-0.0359	0.0020	-0.0221	9.9151	25.8009	-4.3971	-0.7195	0.6324	-0.1594	0.2391
11.04	0.2879	-9.9918	1.2693	-0.0353	-0.0035	-0.0242	9.9379	25.8345	-4.5784	-0.7193	0.6325	-0.1594	0.2391
11.05	0.3093	-9.9905	1.2319	-0.0241	-0.0043	-0.0265	10.0172	25.7337	-4.3201	-0.7192	0.6327	-0.1594	0.2391
11.06	0.3143	-9.9945	1.2164	0.0005	-0.0050	-0.0270	9.9727	25.7128	-4.3164	-0.7191	0.6326	-0.1594	0.2391
11.07	0.3442	-9.9896	1.2325	0.0258	-0.0145	-0.0227	10.0119	25.8299	-4.2928	-0.7192	0.6327	-0.1593	0.2391
11.08	0.3639	-9.9802	1.2942	0.0431	-0.0110	-0.0231	10.1403	25.4378	-4.5838	-0.7193	0.6326	-0.1592	0.2392
11.09	0.3794	-9.9735	1.3262	0.0379	0.0002	-0.0173	10.1940	25.5513	-4.4309	-0.7193	0.6324	-0.1591	0.2392
11.1	0.3654	-9.9465	1.3297	0.0311	-0.0078	-0.0062	10.0425	25.5277	-4.2824	-0.7195	0.6324	-0.1591	0.2392
11.11	0.3616	-9.9375	1.3321	0.0180	-0.0037	-0.0007	10.1260	25.6018	-4.4582	-0.7195	0.6323	-0.1591	0.2391
11.12	0.3836	-9.9714	1.3402	0.0020	-0.0079	-0.0035	10.1744	25.5921	-4.5874	-0.7195	0.6324	-0.1591	0.2391
11.13	0.3935	-9.9543	1.3317	0.0136	-0.0048	0.0012	10.1741	25.5061	-4.4981	-0.7195	0.6323	-0.1591	0.2390
11.14	0.3501	-9.8871	1.2968	0.0167	0.0147	0.0034	10.0288	25.7022	-4.3808	-0.7196	0.6323	-0.1592	0.2390
11.15	0.2728	-9.8708	1.3008	0.0196	0.0129	0.0067	9.9863	25.6982	-4.5906	-0.7196	0.6322	-0.1593	0.2390
11.16	0.2449	-9.8484	1.3212	0.0252	0.0043	0.0021	9.9219	25.5026	-4.5977	-0.7197	0.6321	-0.1594	0.2390
11.17	0.2341	-9.8558	1.3548	0.0056	0.0082	-0.0046	9.7857	25.7536	-4.4958	-0.7197	0.6321	-0.1594	0.2390
11.18	0.2337	-9.8686	1.3558	-0.0094	0.0097	-0.0086	9.8253	25.8266	-4.3624	-0.7196	0.6321	-0.1595	0.2390
11.19	0.2233	-9.8407	1.3169	-0.0330	0.0063	-0.0136	10.0106	26.0048	-4.4995	-0.7195	0.6323	-0.1596	0.2390
11.2	0.2003	-9.8844	1.3032	-0.0287	0.0042	-0.0181	9.8808	25.8801	-4.5034	-0.7193	0.6323	-0.1596	0.2390
11.21	0.2071	-9.9420	1.2906	-0.0291	-0.0030	-0.0203	10.0436	25.8194	-4.3929	-0.7193	0.6325	-0.1596	0.2390
11.22	0.2300	-9.9211	1.2769	-0.0249	-0.0118	-0.0253	10.0509	25.7523	-4.2324	-0.7191	0.6327	-0.1596	0.2390
11.23	0.2395	-9.9294	1.2871	-0.0098	-0.0062	-0.0241	9.9571	25.7648	-4.5385	-0.7191	0.6328	-0.1596	0.2390
11.24	0.2396	-9.9573	1.3038	-0.0117	-0.0130	-0.0248	10.0230	25.9244	-4.2715	-0.7190	0.6328	-0.1595	0.2390
11.25	0.2589	-9.9227	1.2978	-0.0087	-0.0261	-0.0253	9.9561	25.7702	-4.1390	-0.7189	0.6329	-0.1594	0.2389
11.26	0.2839	-9.9685	1.3130	-0.0188	-0.0241	-0.0244	10.0592	25.6433	-4.6356	-0.7189	0.6331	-0.1593	0.2389
11.27	0.3188	-10.0084	1.2952	-0.0294	-0.0300	-0.0218	10.0786	25.6939	-4.4942	-0.7187	0.6332	-0.1592	0.2388
11.28	0.3459	-9.9952	1.2705	-0.0327	-0.0312	-0.0194	10.0870	25.7481	-4.3811	-0.7187	0.6335	-0.1591	0.2387
11.29	0.3683	-9.9960	1.2350	-0.0248	-0.0270	-0.0243	10.2150	25.3808	-4.5989	-0.7185	0.6336	-0.1590	0.2386
11.3	0.3965	-9.9758	1.2221	-0.0050	-0.0282	-0.0203	10.3152	25.6854	-4.4948	-0.7186	0.6337	-0.1590	0.2386
11.31	0.3740	-10.0087	1.2872	0.0122	-0.0233	-0.0089	10.0293	25.8366	-4.5287	-0.7185	0.6337	-0.1589	0.2385
11.32	0.3703	-9.9670	1.2803	0.0075	-0.0201	-0.0228	10.0250	25.5761	-4.2917	-0.7186	0.6337	-0.1588	0.2385
11.33	0.3800	-9.8803	1.2627	0.0127	-0.0253	-0.0197	10.4536	25.7030	-4.0643	-0.7186	0.6338	-0.1587	0.2384
11.34	0.3945	-9.9399	1.3198	0.0075	-0.0231	-0.0201	10.7222	25.8127	-4.1879	-0.7185	0.6337	-0.1585	0.2384
11.35	0.4285	-9.9807	1.3306	-0.0019	-0.0155	-0.0233	10.5432	25.8648	-4.2657	-0.7186	0.6339	-0.1585	0.2384
11.36	0.3982	-9.9407	1.3131	-0.0093	-0.0073	-0.0115	10.0726	26.0492	-4.3479	-0.7185	0.6339	-0.1585	0.2383
11.37	0.3519	-9.9465	1.2757	-0.0086	0.0115	-0.0133	10.0280	26.1009	-4.3692	-0.7185	0.6340	-0.1585	0.2384
11.38	0.3561	-9.9708	1.2716	-0.0051	0.0027	-0.0234	9.9784	25.6668	-4.2601	-0.7183	0.6340	-0.1585	0.2384
11.39	0.3808	-9.9228	1.2817	0.0066	-0.0130	-0.0131	10.0189	25.7534	-4.1978	-0.7184	0.6340	-0.1585	0.2384
11.4	0.3690	-9.9135	1.2963	0.0196	0.0100	-0.0138	9.7975	25.8439	-4.2800	-0.7184	0.6340	-0.1585	0.2384
11.41	0.3577	-9.8961	1.3066	0.0043	0.0090	-0.0188	9.9112	25.7050	-4.3659	-0.7184	0.6340	-0.1585	0.2385
11.42	0.3557	-9.8898	1.3273	-0.0081	-0.0088	-0.0145	9.9901	25.8217	-4.3579	-0.7184	0.6341	-0.1585	0.2385
11.43	0.3693	-9.9384	1.3292	-0.0249	0.0000	-0.0172	9.7874	25.9160	-4.1520	-0.7182	0.6341	-0.1585	0.2384
11.44	0.3693	-9.9255	1.2880	-0.0371	0.0051	-0.0093	10.0259	25.6606	-4.4098	-0.7181	0.6343	-0.1586	0.2384
11.45	0.3448	-9.9403	1.2640	-0.0335	0.0021	-0.0028	9.8977	25.5218	-4.6084	-0.7179	0.6344	-0.1587	0.2383
11.46	0.3538	-9.9736	1.2551	-0.0165	-0.0035	-0.0136	10.0034	25.6561	-4.2368	-0.7179	0.6346	-0.1587	0.2383
11.47	0.3673	-9.9508	1.2695	-0.0070	-0.0038	-0.0038	9.8477	25.6144	-4.1134	-0.7178	0.6346	-0.1588	0.2383
11.48	0.3553	-9.9293	1.2976	0.0008	0.0082	-0.0060	9.7669	25.7017	-4.4357	-0.7178	0.6346	-0.1588	0.2383
11.49	0.3416	-9.9047	1.2998	-0.0087	0.0071	-0.0082	10.0469	25.7457	-4.2285	-0.7178	0.6346	-0.1589	0.2383
11.5	0.3259	-9.9124	1.3122	-0.0159	0.0029	-0.0090	10.1689	25.6691	-4.2972	-0.7177	0.6347	-0.1589	0.2383
11.51	0.3403	-9.9230	1.2880	-0.0388	0.0027	-0.0115	9.8517	25.4581	-4.2477	-0.7176	0.6349	-0.1590	0.2382
11.52	0.3449	-9.9581	1.2602	-0.0464	-0.0022	-0.0144	10.0257	25.8094	-4.3077	-0.7173	0.6350	-0.1591	0.2382
11.53	0.3511	-9.9934	1.2394	-0.0417	-0.0058	-0.0105	9.9713	25.9259	-4.1322	-0.7173	0.6353	-0.1591	0.2382
11.54	0.3675	-9.9551	1.1931	-0.0241	-0.0026	0.0005	10.0461	26.0144	-4.1265	-0.7171	0.6354	-0.1592	0.2381
