time	acceleration_x	acceleration_y	acceleration_z	gyroscope_x	gyroscope_y	gyroscope_z	magnetometer_x	magnetometer_y	magnetometer_z	quaternion_w	quaternion_x	quaternion_y	quaternion_z
0	-9.6366	0.0155	-1.2852	-0.0120	-0.0150	0.0086	33.5940	-1.3662	9.8421	0.6569	-0.0625	0.7494	0.0549
0.01	-9.6516	0.0155	-1.2871	-0.0157	-0.0183	0.0062	33.3242	-1.4595	9.7186	0.6569	-0.0625	0.7493	0.0549
0.02	-9.6523	0.0156	-1.2804	-0.0137	-0.0187	0.0050	33.3810	-1.4850	9.6256	0.6570	-0.0625	0.7494	0.0549
0.03	-9.6479	0.0014	-1.2796	-0.0083	-0.0179	0.0085	33.3245	-1.7135	9.7934	0.6569	-0.0625	0.7493	0.0549
0.04	-9.6597	0.0090	-1.2899	-0.0198	-0.0203	0.0050	33.4352	-1.4717	9.8383	0.6570	-0.0625	0.7494	0.0549
0.05	-9.6449	0.0079	-1.2776	-0.0173	-0.0210	0.0098	33.4223	-1.4726	9.7064	0.6569	-0.0625	0.7493	0.0550
0.06	-9.6456	0.0031	-1.2770	-0.0112	-0.0188	0.0029	33.4705	-1.3323	9.6257	0.6570	-0.0625	0.7493	0.0550
0.07	-9.6481	0.0011	-1.2723	-0.0117	-0.0155	0.0059	33.3319	-1.3224	9.8046	0.6570	-0.0625	0.7493	0.0549
0.08	-9.6373	0.0093	-1.2640	-0.0144	-0.0136	0.0041	33.2334	-1.4947	9.8073	0.6569	-0.0625	0.7493	0.0549
0.09	-9.6470	0.0045	-1.2754	-0.0146	-0.0134	0.0028	33.3868	-1.4493	9.8136	0.6570	-0.0625	0.7494	0.0549
0.1	-9.6445	0.0094	-1.2778	-0.0150	-0.0097	0.0063	33.3400	-1.5000	9.8007	0.6569	-0.0625	0.7493	0.0549
0.11	-9.6422	0.0196	-1.2744	-0.0124	-0.0109	0.0110	33.5707	-1.5946	9.6203	0.6570	-0.0625	0.7494	0.0550
0.12	-9.6419	0.0127	-1.2756	-0.0140	-0.0117	0.0086	33.3173	-1.3557	9.7360	0.6569	-0.0625	0.7493	0.0550
0.13	-9.6478	0.0150	-1.2783	-0.0140	-0.0130	0.0151	33.4013	-1.5202	9.6998	0.6569	-0.0625	0.7494	0.0550
0.14	-9.6471	0.0178	-1.2729	-0.0096	-0.0121	0.0124	33.7212	-1.5223	9.8002	0.6569	-0.0624	0.7494	0.0550
0.15	-9.6479	0.0066	-1.2802	-0.0182	-0.0181	0.0076	33.5898	-1.4008	9.7633	0.6569	-0.0624	0.7494	0.0550
0.16	-9.6426	0.0131	-1.2757	-0.0126	-0.0088	0.0066	33.5194	-1.7019	9.6118	0.6569	-0.0624	0.7494	0.0550
0.17	-9.6356	0.0046	-1.2687	-0.0083	-0.0166	0.0043	33.6225	-1.6518	9.6767	0.6569	-0.0624	0.7494	0.0550
0.18	-9.6489	0.0004	-1.2735	-0.0095	-0.0148	0.0100	33.3847	-1.4924	9.8011	0.6569	-0.0624	0.7494	0.0550
0.19	-9.6368	0.0062	-1.2719	-0.0182	-0.0158	0.0111	33.6208	-1.6604	9.8347	0.6568	-0.0624	0.7493	0.0550
0.2	-9.6430	-0.0059	-1.2705	-0.0112	-0.0171	0.0077	33.5567	-1.5036	9.6956	0.6569	-0.0624	0.7494	0.0550
0.21	-9.6459	-0.0058	-1.2721	-0.0130	-0.0152	0.0086	33.4038	-1.4512	9.9310	0.6569	-0.0624	0.7494	0.0550
0.22	-9.6452	0.0056	-1.2825	-0.0192	-0.0211	0.0051	33.6437	-1.5078	10.0331	0.6569	-0.0624	0.7494	0.0550
0.23	-9.6461	0.0106	-1.2752	-0.0213	-0.0160	0.0003	33.3937	-1.7576	9.8740	0.6569	-0.0624	0.7494	0.0551
0.24	-9.6469	0.0131	-1.2809	-0.0189	-0.0189	-0.0004	33.2402	-1.5561	9.8117	0.6569	-0.0625	0.7494	0.0551
0.25	-9.6475	0.0128	-1.2838	-0.0107	-0.0160	0.0028	33.6827	-1.3991	9.9889	0.6569	-0.0625	0.7494	0.0550
0.26	-9.6454	0.0080	-1.2926	-0.0164	-0.0132	0.0017	33.8617	-1.2855	9.9898	0.6569	-0.0625	0.7493	0.0550
0.27	-9.6440	-0.0014	-1.2892	-0.0121	-0.0155	0.0051	33.6712	-1.2898	10.0078	0.6569	-0.0625	0.7494	0.0550
0.28	-9.6455	0.0044	-1.2901	-0.0104	-0.0091	0.0055	33.4745	-1.4064	9.9238	0.6569	-0.0625	0.7494	0.0550
0.29	-9.6488	0.0059	-1.2830	-0.0180	-0.0086	0.0050	33.3413	-1.3082	9.8567	0.6569	-0.0625	0.7495	0.0550
0.3	-9.6585	0.0045	-1.2901	-0.0145	-0.0120	0.0059	33.4325	-1.3018	9.8980	0.6568	-0.0625	0.7494	0.0550
0.31	-9.6537	0.0070	-1.2953	-0.0111	-0.0159	0.0085	33.3948	-1.4184	9.7213	0.6569	-0.0625	0.7494	0.0550
0.32	-9.6398	0.0154	-1.2835	-0.0172	-0.0120	0.0116	33.6237	-1.5082	9.7473	0.6568	-0.0625	0.7494	0.0551
0.33	-9.6531	0.0186	-1.2982	-0.0148	-0.0167	0.0093	33.6730	-1.6491	9.8836	0.6568	-0.0625	0.7494	0.0551
0.34	-9.6467	0.0194	-1.2960	-0.0125	-0.0164	0.0066	33.4633	-1.4302	9.9990	0.6569	-0.0625	0.7495	0.0551
0.35	-9.6467	0.0189	-1.2790	-0.0108	-0.0171	0.0058	33.4826	-1.5057	10.0519	0.6568	-0.0625	0.7494	0.0551
0.36	-9.6520	0.0198	-1.2887	-0.0070	-0.0145	0.0099	33.5353	-1.5808	9.8811	0.6569	-0.0625	0.7494	0.0551
0.37	-9.6554	0.0071	-1.2938	-0.0075	-0.0136	0.0135	33.6692	-1.4436	9.8782	0.6568	-0.0624	0.7494	0.0551
0.38	-9.6501	0.0069	-1.2981	-0.0085	-0.0204	0.0074	33.5372	-1.4806	9.8968	0.6569	-0.0624	0.7494	0.0551
0.39	-9.6398	0.0106	-1.2834	-0.0205	-0.0180	0.0062	33.5996	-1.4370	9.8495	0.6569	-0.0624	0.7494	0.0551
0.4	-9.6504	0.0144	-1.2939	-0.0120	-0.0148	0.0066	33.4922	-1.5584	9.9918	0.6569	-0.0624	0.7494	0.0551
0.41	-9.6453	0.0178	-1.2859	-0.0109	-0.0125	0.0049	33.4077	-1.4532	9.8442	0.6569	-0.0624	0.7494	0.0551
0.42	-9.6524	0.0194	-1.2830	-0.0116	-0.0120	0.0077	33.2764	-1.3671	9.6767	0.6569	-0.0624	0.7494	0.0551
0.43	-9.6573	0.0242	-1.2918	-0.0069	-0.0073	0.0036	33.2758	-1.4005	9.8801	0.6569	-0.0624	0.7495	0.0551
0.44	-9.6465	0.0274	-1.2813	-0.0132	-0.0168	0.0028	33.4345	-1.3765	9.9487	0.6568	-0.0624	0.7494	0.0550
0.45	-9.6495	0.0242	-1.2798	-0.0149	-0.0091	0.0074	33.3774	-1.3946	9.9842	0.6568	-0.0624	0.7495	0.0550
0.46	-9.6471	0.0024	-1.2705	-0.0171	-0.0184	0.0046	33.4657	-1.5216	9.9313	0.6568	-0.0624	0.7494	0.0551
0.47	-9.6479	0.0057	-1.2746	-0.0189	-0.0157	-0.0013	33.4654	-1.3156	9.7903	0.6569	-0.0625	0.7494	0.0551
0.48	-9.6408	0.0090	-1.2601	-0.0236	-0.0095	0.0055	33.1985	-1.2953	9.7748	0.6568	-0.0625	0.7494	0.0551
0.49	-9.6453	-0.0033	-1.2612	-0.0184	-0.0154	0.0030	33.4171	-1.3128	9.7990	0.6568	-0.0625	0.7494	0.0551
0.5	-9.6544	-0.0038	-1.2652	-0.0117	-0.0135	0.0079	33.5443	-1.4890	9.7701	0.6568	-0.0625	0.7494	0.0551
0.51	-9.6453	-0.0055	-1.2654	-0.0103	-0.0160	0.0080	33.6740	-1.6620	9.9060	0.6568	-0.0625	0.7494	0.0551
0.52	-9.6490	0.0069	-1.2691	-0.0163	-0.0128	0.0084	33.5258	-1.5015	9.7615	0.6568	-0.0625	0.7495	0.0551
0.53	-9.6474	0.0124	-1.2713	-0.0144	-0.0141	0.0046	33.3940	-1.3426	9.6982	0.6568	-0.0625	0.7494	0.0551
0.54	-9.6430	0.0112	-1.2602	-0.0097	-0.0139	0.0074	33.6102	-1.6645	9.9226	0.6569	-0.0625	0.7495	0.0551
0.55	-9.6443	0.0167	-1.2638	-0.0123	-0.0185	0.0045	33.4665	-1.5095	9.7699	0.6568	-0.0625	0.7494	0.0551
0.56	-9.6570	0.0173	-1.2740	-0.0124	-0.0185	0.0094	33.5160	-1.6149	9.8224	0.6568	-0.0625	0.7494	0.0551
0.57	-9.6437	0.0176	-1.2710	-0.0172	-0.0127	0.0080	33.6128	-1.7151	9.7571	0.6568	-0.0625	0.7494	0.0551
0.58	-9.6389	0.0144	-1.2657	-0.0121	-0.0148	0.0063	33.4731	-1.5159	9.9726	0.6568	-0.0625	0.7494	0.0551
0.59	-9.6537	-0.0008	-1.2739	-0.0122	-0.0145	0.0053	33.5084	-1.5736	9.9613	0.6569	-0.0625	0.7495	0.0551
0.6	-9.6529	-0.0007	-1.2715	-0.0222	-0.0119	0.0045	33.3182	-1.2599	9.9935	0.6568	-0.0625	0.7494	0.0551
0.61	-9.6476	-0.0008	-1.2825	-0.0219	-0.0107	-0.0003	33.4087	-1.4400	9.8388	0.6568	-0.0626	0.7495	0.0552
0.62	-9.6566	0.0029	-1.2905	-0.0223	-0.0136	0.0035	33.3289	-1.4897	9.6882	0.6567	-0.0626	0.7494	0.0552
0.63	-9.6593	0.0032	-1.2946	-0.0192	-0.0134	-0.0039	33.3511	-1.3498	9.6871	0.6568	-0.0627	0.7495	0.0552
0.64	-9.6542	0.0109	-1.2902	-0.0135	-0.0151	0.0043	33.4300	-1.4197	9.9363	0.6568	-0.0627	0.7494	0.0552
0.65	-9.6381	0.0118	-1.2897	-0.0127	-0.0099	0.0044	33.3984	-1.2992	9.8988	0.6568	-0.0627	0.7494	0.0552
0.66	-9.6489	0.0142	-1.2920	-0.0167	-0.0158	-0.0016	33.4082	-1.3078	9.8654	0.6568	-0.0627	0.7495	0.0552
0.67	-9.6510	0.0209	-1.2963	-0.0195	-0.0102	0.0078	33.4206	-1.2949	9.9914	0.6568	-0.0627	0.7494	0.0552
0.68	-9.6468	0.0178	-1.2952	-0.0074	-0.0136	0.0076	33.3458	-1.5423	9.9621	0.6568	-0.0627	0.7495	0.0552
0.69	-9.6549	0.0197	-1.2891	-0.0086	-0.0140	0.0123	33.3652	-1.4849	9.8985	0.6567	-0.0627	0.7494	0.0552
0.7	-9.6507	0.0212	-1.2840	-0.0139	-0.0138	0.0091	33.7560	-1.4427	9.7568	0.6568	-0.0627	0.7495	0.0552
0.71	-9.6472	0.0210	-1.2844	-0.0181	-0.0109	0.0092	33.6637	-1.6329	9.6865	0.6567	-0.0627	0.7495	0.0552
0.72	-9.6534	0.0144	-1.2939	-0.0213	-0.0072	0.0027	33.4702	-1.6010	9.5048	0.6567	-0.0627	0.7495	0.0552
0.73	-9.6515	0.0195	-1.2848	-0.0198	-0.0105	-0.0019	33.6039	-1.7617	9.7362	0.6567	-0.0628	0.7495	0.0552
0.74	-9.6558	0.0194	-1.2855	-0.0243	-0.0074	0.0033	33.3122	-1.3949	9.9419	0.6567	-0.0628	0.7495	0.0553
0.75	-9.6524	0.0178	-1.2901	-0.0226	-0.0076	-0.0033	33.5735	-1.1279	10.1828	0.6567	-0.0629	0.7496	0.0553
0.76	-9.6511	0.0158	-1.2853	-0.0206	-0.0063	0.0035	33.7412	-1.0353	10.2698	0.6566	-0.0629	0.7495	0.0553
0.77	-9.6502	0.0180	-1.2822	-0.0190	-0.0164	0.0091	33.6432	-1.3387	9.9333	0.6566	-0.0629	0.7496	0.0553
0.78	-9.6494	0.0119	-1.2833	-0.0206	-0.0124	0.0079	33.5168	-1.4739	9.7950	0.6566	-0.0629	0.7496	0.0553
0.79	-9.6377	0.0118	-1.2671	-0.0145	-0.0155	0.0049	33.2689	-1.6101	9.7069	0.6566	-0.0630	0.7496	0.0554
0.8	-9.6597	0.0027	-1.2796	-0.0116	-0.0105	0.0051	33.4605	-1.5249	9.9603	0.6565	-0.0629	0.7495	0.0553
0.81	-9.6639	0.0111	-1.2828	-0.0103	-0.0126	0.0072	33.4002	-1.4144	9.9924	0.6566	-0.0629	0.7496	0.0553
0.82	-9.6622	0.0110	-1.2744	-0.0084	-0.0216	0.0100	33.4819	-1.4458	9.8985	0.6566	-0.0629	0.7496	0.0553
0.83	-9.6511	0.0167	-1.2765	-0.0065	-0.0185	0.0099	33.5204	-1.4427	9.9375	0.6566	-0.0629	0.7495	0.0553
0.84	-9.6553	0.0082	-1.2743	-0.0095	-0.0167	0.0047	33.5023	-1.3317	9.8262	0.6567	-0.0629	0.7496	0.0553
0.85	-9.6462	-0.0116	-1.2798	-0.0138	-0.0164	0.0056	33.3925	-1.3912	9.8097	0.6566	-0.0629	0.7495	0.0553
0.86	-9.6628	0.0121	-1.2810	-0.0091	-0.0171	0.0052	33.5101	-1.4851	9.9477	0.6567	-0.0628	0.7496	0.0553
0.87	-9.6496	0.0092	-1.2806	-0.0092	-0.0187	0.0102	33.4249	-1.7072	10.1526	0.6566	-0.0628	0.7495	0.0553
0.88	-9.6569	0.0032	-1.2766	-0.0092	-0.0174	0.0086	33.4188	-1.6636	9.9443	0.6567	-0.0628	0.7495	0.0553
0.89	-9.6520	0.0064	-1.2853	-0.0097	-0.0165	0.0077	33.4487	-1.4193	9.9524	0.6567	-0.0628	0.7495	0.0553
0.9	-9.6461	0.0075	-1.2776	-0.0081	-0.0150	0.0088	33.6196	-1.4562	10.1133	0.6567	-0.0627	0.7495	0.0553
0.91	-9.6475	0.0095	-1.2729	-0.0099	-0.0189	0.0052	33.3730	-1.4058	10.0076	0.6567	-0.0627	0.7495	0.0553
0.92	-9.6427	0.0095	-1.2758	-0.0125	-0.0138	0.0069	33.6180	-1.6260	9.8653	0.6567	-0.0627	0.7495	0.0553
0.93	-9.6559	0.0133	-1.2789	-0.0111	-0.0127	0.0062	33.4556	-1.6619	10.0806	0.6567	-0.0627	0.7495	0.0553
0.94	-9.6499	0.0265	-1.2807	-0.0149	-0.0160	0.0037	33.4277	-1.5023	10.0964	0.6566	-0.0627	0.7494	0.0553
0.95	-9.6476	0.0239	-1.2811	-0.0058	-0.0176	0.0066	33.2820	-1.5245	10.1253	0.6567	-0.0627	0.7495	0.0552
0.96	-9.6511	0.0192	-1.2785	-0.0014	-0.0172	0.0117	33.4965	-1.5388	9.8529	0.6567	-0.0626	0.7495	0.0552
0.97	-9.6474	0.0233	-1.2699	-0.0085	-0.0172	0.0119	33.5866	-1.4375	9.9667	0.6568	-0.0626	0.7495	0.0552
0.98	-9.6518	0.0141	-1.2683	-0.0131	-0.0153	0.0057	33.2916	-1.4535	10.1117	0.6567	-0.0626	0.7495	0.0552
0.99	-9.6534	0.0097	-1.2745	-0.0107	-0.0180	0.0048	33.3616	-1.4046	9.9949	0.6568	-0.0626	0.7495	0.0552
1	-9.6464	-0.0024	-1.2774	-0.0091	-0.0140	0.0068	33.3657	-1.5555	9.9579	0.6568	-0.0626	0.7495	0.0552
1.01	-9.6522	-0.0066	-1.2795	-0.0136	-0.0156	0.0038	33.5425	-1.6284	9.9260	0.6567	-0.0626	0.7494	0.0552
1.02	-9.6437	-0.0010	-1.2757	-0.0141	-0.0199	0.0051	33.3864	-1.5011	9.8978	0.6568	-0.0626	0.7495	0.0552
1.03	-9.6545	-0.0028	-1.2909	-0.0085	-0.0173	0.0047	33.3464	-1.5086	9.8640	0.6568	-0.0626	0.7494	0.0552
1.04	-9.6496	0.0027	-1.2877	-0.0128	-0.0130	0.0025	33.3296	-1.3873	10.1608	0.6568	-0.0626	0.7495	0.0552
1.05	-9.6640	0.0069	-1.2832	-0.0182	-0.0119	0.0051	33.4365	-1.5697	9.8918	0.6567	-0.0626	0.7494	0.0552
1.06	-9.6538	0.0101	-1.2821	-0.0082	-0.0178	0.0137	33.5232	-1.4532	9.8216	0.6568	-0.0626	0.7494	0.0552
1.07	-9.6535	0.0189	-1.2893	-0.0046	-0.0184	0.0121	33.3557	-1.3235	9.8635	0.6568	-0.0625	0.7494	0.0552
1.08	-9.6576	0.0197	-1.2703	-0.0104	-0.0145	0.0065	33.6055	-1.3698	10.0366	0.6568	-0.0625	0.7494	0.0552
1.09	-9.6550	0.0245	-1.2932	-0.0136	-0.0147	0.0097	33.5654	-1.3366	9.8912	0.6569	-0.0625	0.7495	0.0552
1.1	-9.6513	0.0265	-1.2884	-0.0111	-0.0192	0.0073	33.3948	-1.6470	9.8266	0.6568	-0.0625	0.7494	0.0552
1.11	-9.6432	0.0145	-1.2761	-0.0159	-0.0210	0.0133	33.6498	-1.6715	9.8435	0.6569	-0.0624	0.7494	0.0552
1.12	-9.6531	0.0143	-1.2855	-0.0183	-0.0158	0.0099	33.3906	-1.3852	9.9122	0.6568	-0.0624	0.7493	0.0552
1.13	-9.6484	0.0072	-1.2735	-0.0140	-0.0170	0.0110	33.4630	-1.6017	9.9426	0.6569	-0.0624	0.7494	0.0553
1.14	-9.6512	0.0026	-1.2757	-0.0103	-0.0212	0.0059	33.5180	-1.3707	9.7207	0.6569	-0.0624	0.7494	0.0553
1.15	-9.6485	-0.0068	-1.2717	-0.0098	-0.0117	0.0078	33.5301	-1.4379	9.8861	0.6569	-0.0624	0.7494	0.0552
1.16	-9.6458	-0.0044	-1.2795	-0.0118	-0.0184	0.0068	33.3021	-1.3269	10.1321	0.6569	-0.0624	0.7494	0.0552
1.17	-9.6495	-0.0038	-1.2747	-0.0127	-0.0146	0.0037	33.2795	-1.3184	9.9365	0.6569	-0.0624	0.7493	0.0552
1.18	-9.6498	-0.0001	-1.2598	-0.0147	-0.0127	0.0056	33.3767	-1.4952	10.1129	0.6569	-0.0624	0.7494	0.0552
1.19	-9.6406	-0.0016	-1.2754	-0.0215	-0.0153	0.0044	33.3106	-1.4089	10.0053	0.6568	-0.0624	0.7493	0.0553
1.2	-9.6488	0.0106	-1.2673	-0.0109	-0.0154	0.0048	33.4804	-1.4612	9.9075	0.6569	-0.0624	0.7494	0.0553
1.21	-9.6465	0.0099	-1.2675	-0.0138	-0.0132	0.0064	33.4926	-1.5567	9.9293	0.6569	-0.0624	0.7493	0.0553
1.22	-9.6491	0.0041	-1.2658	-0.0153	-0.0172	0.0032	33.3330	-1.4328	9.9323	0.6569	-0.0624	0.7494	0.0553
1.23	-9.6484	0.0097	-1.2726	-0.0145	-0.0153	0.0035	33.3589	-1.4616	9.8092	0.6569	-0.0624	0.7493	0.0553
1.24	-9.6452	0.0013	-1.2772	-0.0124	-0.0191	0.0025	33.4415	-1.3827	10.1167	0.6569	-0.0624	0.7493	0.0552
1.25	-9.6559	0.0037	-1.2746	-0.0089	-0.0112	0.0103	33.5932	-1.2314	10.2009	0.6569	-0.0624	0.7493	0.0553
1.26	-9.6480	0.0028	-1.2769	-0.0179	-0.0183	0.0084	33.8348	-1.6442	10.1997	0.6569	-0.0625	0.7493	0.0553
1.27	-9.6504	0.0120	-1.2827	-0.0148	-0.0189	0.0061	33.7826	-1.4201	10.0843	0.6570	-0.0625	0.7493	0.0553
1.28	-9.6451	0.0025	-1.2840	-0.0044	-0.0137	0.0098	33.7143	-1.3462	9.8917	0.6570	-0.0624	0.7493	0.0553
1.29	-9.6476	0.0147	-1.2808	-0.0127	-0.0136	0.0089	33.4238	-1.4951	10.0786	0.6570	-0.0624	0.7494	0.0553
1.3	-9.6535	0.0160	-1.2870	-0.0134	-0.0179	0.0067	33.4042	-1.5983	9.9185	0.6569	-0.0624	0.7492	0.0553
1.31	-9.6497	0.0096	-1.2786	-0.0131	-0.0174	0.0003	33.3742	-1.5729	10.0128	0.6570	-0.0624	0.7493	0.0553
1.32	-9.6455	0.0125	-1.2814	-0.0082	-0.0142	0.0053	33.4335	-1.6044	10.1867	0.6570	-0.0624	0.7493	0.0553
1.33	-9.6449	0.0144	-1.3003	-0.0149	-0.0185	0.0094	33.4957	-1.5065	10.0341	0.6570	-0.0624	0.7492	0.0553
1.34	-9.6628	0.0119	-1.2920	-0.0198	-0.0198	0.0064	33.3582	-1.4082	10.0352	0.6571	-0.0624	0.7493	0.0554
1.35	-9.6467	0.0126	-1.2864	-0.0179	-0.0131	0.0076	33.4261	-1.4169	9.9128	0.6570	-0.0624	0.7492	0.0554
1.36	-9.6470	0.0125	-1.2889	-0.0220	-0.0083	0.0039	33.3206	-1.4364	9.7716	0.6570	-0.0625	0.7493	0.0554
1.37	-9.6563	0.0106	-1.2887	-0.0248	-0.0168	0.0045	33.3191	-1.3256	9.8478	0.6569	-0.0625	0.7492	0.0554
1.38	-9.6454	0.0048	-1.2821	-0.0162	-0.0160	0.0052	33.2833	-1.3599	10.0933	0.6570	-0.0625	0.7493	0.0554
1.39	-9.6357	0.0051	-1.2896	-0.0213	-0.0114	0.0026	33.2219	-1.5998	9.8126	0.6570	-0.0626	0.7492	0.0555
1.4	-9.6531	0.0042	-1.2829	-0.0207	-0.0117	-0.0007	33.2196	-1.3081	10.0262	0.6570	-0.0626	0.7492	0.0555
1.41	-9.6583	0.0083	-1.2918	-0.0192	-0.0140	0.0081	33.3274	-1.3845	10.1252	0.6570	-0.0626	0.7493	0.0555
1.42	-9.6382	0.0093	-1.2855	-0.0180	-0.0145	0.0053	33.3929	-1.2400	9.8903	0.6570	-0.0626	0.7492	0.0555
1.43	-9.6481	0.0105	-1.2729	-0.0134	-0.0145	0.0025	33.2462	-1.2193	9.9808	0.6570	-0.0627	0.7493	0.0555
1.44	-9.6493	0.0083	-1.2770	-0.0119	-0.0144	0.0051	33.4961	-1.6262	9.8592	0.6569	-0.0627	0.7492	0.0555
1.45	-9.6552	0.0063	-1.2732	-0.0080	-0.0186	0.0103	33.5526	-1.4683	9.8702	0.6570	-0.0626	0.7493	0.0555
1.46	-9.6390	0.0078	-1.2773	-0.0207	-0.0154	0.0036	33.4448	-1.6605	9.8779	0.6570	-0.0627	0.7492	0.0555
1.47	-9.6465	0.0095	-1.2785	-0.0153	-0.0183	0.0065	33.7596	-1.6630	9.8600	0.6570	-0.0627	0.7492	0.0555
1.48	-9.6448	0.0098	-1.2775	-0.0190	-0.0123	0.0014	33.5147	-1.6590	9.9824	0.6570	-0.0627	0.7492	0.0555
1.49	-9.6478	0.0105	-1.2760	-0.0154	-0.0135	0.0033	33.3684	-1.4484	10.0438	0.6570	-0.0627	0.7492	0.0555
1.5	-9.6479	-0.0008	-1.2735	-0.0137	-0.0130	0.0078	33.5646	-1.5660	9.8702	0.6570	-0.0627	0.7492	0.0555
1.51	-9.6562	-0.0050	-1.2799	-0.0043	-0.0181	0.0064	33.5488	-1.5948	9.8720	0.6570	-0.0627	0.7492	0.0555
1.52	-9.6439	0.0008	-1.2706	-0.0166	-0.0227	0.0081	33.5591	-1.5575	9.8722	0.6571	-0.0627	0.7492	0.0555
1.53	-9.6426	-0.0060	-1.2696	-0.0154	-0.0214	0.0088	33.4147	-1.7688	9.8787	0.6571	-0.0627	0.7492	0.0555
1.54	-9.6604	-0.0076	-1.2851	-0.0198	-0.0190	0.0040	33.3784	-1.6330	10.1210	0.6571	-0.0627	0.7492	0.0556
1.55	-9.6445	0.0113	-1.2803	-0.0282	-0.0176	0.0038	33.4016	-1.4046	10.1431	0.6571	-0.0627	0.7491	0.0556
1.56	-9.6377	0.0106	-1.2764	-0.0225	-0.0134	0.0054	33.2563	-1.3979	9.8715	0.6571	-0.0628	0.7491	0.0556
1.57	-9.6425	0.0146	-1.2785	-0.0165	-0.0133	0.0060	33.2517	-1.3456	10.0473	0.6571	-0.0628	0.7491	0.0556
1.58	-9.6401	0.0219	-1.2847	-0.0240	-0.0192	0.0041	33.4066	-1.5380	9.9611	0.6571	-0.0628	0.7491	0.0557
1.59	-9.6435	0.0201	-1.2765	-0.0190	-0.0201	0.0079	33.3885	-1.3863	9.8564	0.6572	-0.0628	0.7492	0.0557
1.6	-9.6418	0.0244	-1.2717	-0.0200	-0.0192	0.0033	33.2709	-1.3186	9.9786	0.6571	-0.0629	0.7491	0.0557
1.61	-9.6529	0.0213	-1.2808	-0.0202	-0.0213	0.0047	33.3902	-1.3876	9.9234	0.6572	-0.0629	0.7491	0.0558
1.62	-9.6482	0.0147	-1.2747	-0.0180	-0.0172	0.0037	33.3773	-1.5160	10.0542	0.6571	-0.0629	0.7490	0.0558
1.63	-9.6439	0.0064	-1.2723	-0.0248	-0.0129	0.0079	33.5183	-1.5939	9.9320	0.6572	-0.0629	0.7491	0.0558
1.64	-9.6498	-0.0004	-1.2938	-0.0196	-0.0208	0.0058	33.7000	-1.5698	9.9857	0.6572	-0.0630	0.7490	0.0558
1.65	-9.6333	-0.0040	-1.2871	-0.0272	-0.0241	0.0074	33.4801	-1.5943	9.8815	0.6572	-0.0630	0.7490	0.0559
1.66	-9.6416	0.0014	-1.2900	-0.0243	-0.0168	0.0049	33.3808	-1.4871	9.8482	0.6572	-0.0630	0.7490	0.0559
1.67	-9.6498	0.0052	-1.2977	-0.0184	-0.0252	0.0061	33.4017	-1.5106	9.8953	0.6572	-0.0631	0.7489	0.0559
1.68	-9.6479	0.0134	-1.2966	-0.0247	-0.0207	0.0068	33.3893	-1.4851	9.7923	0.6573	-0.0631	0.7489	0.0560
1.69	-9.6515	0.0199	-1.2988	-0.0209	-0.0109	0.0041	33.4060	-1.5838	9.7754	0.6572	-0.0631	0.7489	0.0560
1.7	-9.6450	0.0124	-1.2873	-0.0148	-0.0100	0.0051	33.3765	-1.5887	9.8777	0.6573	-0.0631	0.7490	0.0560
1.71	-9.6403	0.0188	-1.2894	-0.0127	-0.0210	0.0092	33.4392	-1.7223	9.9026	0.6573	-0.0631	0.7489	0.0560
1.72	-9.6462	0.0165	-1.2798	-0.0153	-0.0141	0.0079	33.4947	-1.5172	10.0038	0.6573	-0.0632	0.7489	0.0561
1.73	-9.6504	0.0241	-1.2903	-0.0119	-0.0170	0.0034	33.3814	-1.4054	9.8137	0.6573	-0.0631	0.7489	0.0561
1.74	-9.6452	0.0134	-1.2865	-0.0166	-0.0160	0.0021	33.3881	-1.5321	10.0577	0.6573	-0.0632	0.7489	0.0561
1.75	-9.6488	0.0018	-1.2862	-0.0217	-0.0105	0.0029	33.5985	-1.2755	10.3369	0.6573	-0.0632	0.7489	0.0561
1.76	-9.6443	-0.0039	-1.2815	-0.0117	-0.0158	0.0053	33.9299	-1.2181	10.2207	0.6572	-0.0632	0.7489	0.0561
1.77	-9.6465	0.0020	-1.2728	-0.0199	-0.0166	0.0033	33.4760	-1.3317	10.0767	0.6573	-0.0633	0.7489	0.0561
1.78	-9.6374	-0.0046	-1.2760	-0.0165	-0.0129	0.0056	33.2397	-1.3646	9.8218	0.6572	-0.0633	0.7489	0.0561
1.79	-9.6483	-0.0082	-1.2768	-0.0155	-0.0166	0.0067	33.1707	-1.5377	9.9282	0.6573	-0.0633	0.7490	0.0561
1.8	-9.6454	-0.0059	-1.2610	-0.0060	-0.0182	0.0066	33.3007	-1.4079	9.9140	0.6572	-0.0633	0.7488	0.0561
1.81	-9.6440	-0.0038	-1.2603	-0.0067	-0.0175	0.0116	33.5395	-1.3481	9.9595	0.6573	-0.0632	0.7489	0.0561
1.82	-9.6424	0.0054	-1.2697	-0.0065	-0.0167	0.0114	33.6881	-1.6109	9.8593	0.6573	-0.0632	0.7489	0.0561
1.83	-9.6432	0.0116	-1.2695	-0.0124	-0.0153	0.0128	33.7369	-1.5575	9.9241	0.6573	-0.0632	0.7488	0.0561
1.84	-9.6506	0.0143	-1.2793	-0.0173	-0.0178	0.0067	33.4870	-1.6120	10.0308	0.6574	-0.0632	0.7489	0.0561
1.85	-9.6375	0.0049	-1.2594	-0.0116	-0.0208	0.0132	33.4860	-1.6755	10.0540	0.6573	-0.0632	0.7488	0.0562
1.86	-9.6517	0.0034	-1.2769	-0.0133	-0.0171	0.0115	33.3500	-1.4565	9.8928	0.6574	-0.0632	0.7489	0.0562
1.87	-9.6459	0.0003	-1.2800	-0.0202	-0.0169	0.0072	33.2626	-1.3206	9.7254	0.6573	-0.0632	0.7488	0.0562
1.88	-9.6405	-0.0005	-1.2781	-0.0162	-0.0181	0.0093	33.5526	-1.3638	9.8606	0.6574	-0.0632	0.7488	0.0563
1.89	-9.6478	-0.0005	-1.2861	-0.0187	-0.0193	0.0113	33.5003	-1.4433	9.8731	0.6574	-0.0632	0.7488	0.0563
1.9	-9.6551	0.0077	-1.2748	-0.0168	-0.0185	0.0122	33.3925	-1.4095	9.9735	0.6573	-0.0632	0.7488	0.0563
1.91	-9.6517	0.0136	-1.2806	-0.0085	-0.0168	0.0068	33.3576	-1.4362	9.7953	0.6574	-0.0632	0.7488	0.0563
1.92	-9.6478	0.0030	-1.2922	-0.0212	-0.0152	0.0070	33.4476	-1.5307	9.8990	0.6574	-0.0632	0.7488	0.0563
1.93	-9.6555	0.0127	-1.2903	-0.0148	-0.0141	0.0162	33.6017	-1.4563	9.9422	0.6574	-0.0631	0.7488	0.0564
1.94	-9.6352	0.0187	-1.2903	-0.0186	-0.0118	0.0028	33.3664	-1.3152	9.9207	0.6573	-0.0632	0.7488	0.0564
1.95	-9.6405	0.0082	-1.2948	-0.0194	-0.0143	0.0059	33.4649	-1.4696	10.0325	0.6574	-0.0632	0.7488	0.0564
1.96	-9.6500	0.0028	-1.2919	-0.0189	-0.0139	0.0028	33.4995	-1.4974	9.8618	0.6573	-0.0632	0.7488	0.0564
1.97	-9.6470	0.0076	-1.2781	-0.0154	-0.0167	0.0040	33.5841	-1.5734	9.8278	0.6574	-0.0633	0.7488	0.0564
1.98	-9.6529	0.0060	-1.2875	-0.0115	-0.0160	0.0078	33.3541	-1.5214	9.9562	0.6573	-0.0632	0.7488	0.0564
1.99	-9.6514	0.0104	-1.2822	-0.0152	-0.0164	0.0070	33.6188	-1.3568	9.8957	0.6573	-0.0632	0.7488	0.0564
2	-9.6482	0.0143	-1.2792	-0.0178	-0.0170	0.0127	33.6258	-1.3524	9.8248	0.6574	-0.0632	0.7488	0.0565
2.01	-9.6363	0.0085	-1.2721	-0.0109	-0.0139	0.0109	33.6286	-1.5987	9.8603	0.6573	-0.0632	0.7487	0.0565
2.02	-9.6553	0.0056	-1.2799	-0.0058	-0.0188	0.0125	33.5342	-1.5800	9.8449	0.6574	-0.0632	0.7488	0.0565
2.03	-9.6432	0.0049	-1.2770	-0.0100	-0.0194	0.0058	33.5493	-1.5840	9.8503	0.6574	-0.0631	0.7488	0.0564
2.04	-9.6468	0.0120	-1.2830	-0.0089	-0.0175	0.0080	33.5539	-1.3688	9.8454	0.6574	-0.0631	0.7488	0.0564
2.05	-9.6473	0.0126	-1.2775	-0.0188	-0.0160	0.0068	33.4653	-1.6394	9.8434	0.6574	-0.0631	0.7487	0.0564
2.06	-9.6409	0.0157	-1.2808	-0.0201	-0.0132	0.0082	33.4566	-1.5125	9.8561	0.6574	-0.0632	0.7488	0.0565
2.07	-9.6458	0.0178	-1.2786	-0.0136	-0.0173	0.0084	33.4825	-1.5916	9.8238	0.6574	-0.0631	0.7488	0.0565
2.08	-9.6553	0.0087	-1.2810	-0.0201	-0.0137	0.0052	33.4307	-1.4275	9.9338	0.6573	-0.0632	0.7487	0.0565
2.09	-9.6553	0.0107	-1.2845	-0.0142	-0.0172	0.0082	33.5978	-1.4402	9.9246	0.6574	-0.0632	0.7488	0.0565
2.1	-9.6439	0.0053	-1.2769	-0.0139	-0.0182	0.0035	33.5822	-1.7316	9.8301	0.6574	-0.0632	0.7488	0.0565
2.11	-9.6515	0.0106	-1.2770	-0.0182	-0.0134	0.0061	33.3662	-1.4264	9.8539	0.6574	-0.0632	0.7488	0.0565
2.12	-9.6454	0.0121	-1.2812	-0.0122	-0.0159	0.0051	33.3868	-1.3324	9.8245	0.6573	-0.0632	0.7487	0.0565
2.13	-9.6432	0.0019	-1.2779	-0.0171	-0.0106	0.0047	33.3898	-1.3635	9.9641	0.6574	-0.0632	0.7488	0.0565
2.14	-9.6444	0.0186	-1.2799	-0.0191	-0.0178	0.0051	33.5041	-1.4379	10.0513	0.6574	-0.0632	0.7488	0.0565
2.15	-9.6462	0.0073	-1.2740	-0.0199	-0.0180	0.0038	33.3597	-1.4322	9.9350	0.6574	-0.0633	0.7487	0.0565
2.16	-9.6476	-0.0019	-1.2816	-0.0163	-0.0225	0.0061	33.5677	-1.3135	9.8275	0.6574	-0.0633	0.7488	0.0566
2.17	-9.6476	-0.0084	-1.2839	-0.0144	-0.0127	0.0070	33.5298	-1.3795	10.1124	0.6574	-0.0633	0.7487	0.0566
2.18	-9.6471	-0.0048	-1.2755	-0.0054	-0.0132	0.0141	33.5516	-1.4315	10.0623	0.6574	-0.0632	0.7488	0.0566
2.19	-9.6470	-0.0068	-1.2813	-0.0059	-0.0196	0.0124	33.4640	-1.4227	9.9130	0.6573	-0.0632	0.7487	0.0565
2.2	-9.6478	0.0013	-1.2759	-0.0112	-0.0162	0.0129	33.5468	-1.5007	9.8445	0.6574	-0.0632	0.7488	0.0566
2.21	-9.6520	0.0190	-1.2678	-0.0215	-0.0163	0.0058	33.4311	-1.4067	9.9808	0.6574	-0.0632	0.7487	0.0566
2.22	-9.6455	0.0202	-1.2718	-0.0229	-0.0130	0.0084	33.7493	-1.6432	9.8382	0.6574	-0.0632	0.7488	0.0566
2.23	-9.6422	0.0251	-1.2761	-0.0200	-0.0175	0.0072	33.5093	-1.2850	9.9441	0.6574	-0.0632	0.7487	0.0567
2.24	-9.6452	0.0271	-1.2891	-0.0201	-0.0161	0.0080	33.2424	-1.3951	9.9017	0.6574	-0.0632	0.7487	0.0567
2.25	-9.6504	0.0214	-1.2804	-0.0069	-0.0187	0.0090	33.7305	-1.3998	10.0175	0.6574	-0.0632	0.7488	0.0567
2.26	-9.6429	0.0051	-1.2878	-0.0068	-0.0168	0.0082	33.8764	-1.2079	10.2693	0.6574	-0.0632	0.7487	0.0566
2.27	-9.6445	0.0083	-1.2717	-0.0111	-0.0104	0.0057	33.6981	-1.3864	9.9039	0.6574	-0.0632	0.7488	0.0566
2.28	-9.6519	-0.0004	-1.2765	-0.0105	-0.0153	0.0100	33.4624	-1.3403	9.7832	0.6574	-0.0632	0.7488	0.0566
2.29	-9.6473	-0.0068	-1.2871	-0.0141	-0.0124	0.0066	33.1769	-1.3158	9.7282	0.6574	-0.0632	0.7488	0.0566
2.3	-9.6335	-0.0054	-1.2838	-0.0136	-0.0048	0.0045	33.2594	-1.4211	9.5907	0.6573	-0.0632	0.7488	0.0566
2.31	-9.6408	-0.0031	-1.2836	-0.0148	-0.0080	0.0038	33.3441	-1.4215	9.7070	0.6573	-0.0632	0.7488	0.0566
2.32	-9.6463	-0.0081	-1.2915	-0.0130	-0.0118	0.0038	33.4819	-1.3612	9.7369	0.6573	-0.0632	0.7488	0.0566
2.33	-9.6435	0.0016	-1.2901	-0.0163	-0.0078	0.0064	33.7062	-1.2912	9.8099	0.6572	-0.0632	0.7488	0.0566
2.34	-9.6486	0.0092	-1.2865	-0.0146	-0.0125	0.0052	33.3059	-1.4476	9.7663	0.6573	-0.0632	0.7489	0.0566
2.35	-9.6506	0.0113	-1.2987	-0.0235	-0.0148	0.0012	33.2705	-1.2425	9.9229	0.6572	-0.0633	0.7489	0.0566
2.36	-9.6549	0.0191	-1.2835	-0.0140	-0.0168	0.0066	33.3068	-1.3040	9.7663	0.6573	-0.0633	0.7489	0.0566
2.37	-9.6497	0.0138	-1.2712	-0.0095	-0.0160	0.0059	33.4879	-1.3991	9.8014	0.6572	-0.0633	0.7488	0.0566
2.38	-9.6608	0.0123	-1.2799	-0.0158	-0.0157	0.0064	33.6560	-1.6464	9.8685	0.6573	-0.0633	0.7489	0.0566
2.39	-9.6384	0.0106	-1.2809	-0.0117	-0.0144	0.0080	33.5284	-1.6033	9.7742	0.6572	-0.0633	0.7489	0.0566
2.4	-9.6412	0.0017	-1.2799	-0.0104	-0.0135	0.0091	33.5725	-1.5676	9.7872	0.6572	-0.0632	0.7489	0.0566
2.41	-9.6508	0.0131	-1.2849	-0.0170	-0.0058	0.0040	33.5670	-1.5531	9.8114	0.6572	-0.0633	0.7489	0.0566
2.42	-9.6462	0.0061	-1.2687	-0.0172	-0.0072	0.0070	33.5292	-1.6264	9.8708	0.6572	-0.0633	0.7490	0.0566
2.43	-9.6483	-0.0008	-1.2744	-0.0224	-0.0078	0.0067	33.4603	-1.6106	9.9564	0.6571	-0.0633	0.7490	0.0566
2.44	-9.6414	0.0015	-1.2644	-0.0191	-0.0150	0.0057	33.4843	-1.5515	9.8880	0.6571	-0.0633	0.7489	0.0566
2.45	-9.6482	0.0039	-1.2623	-0.0107	-0.0103	0.0087	33.3946	-1.7754	9.6755	0.6571	-0.0633	0.7490	0.0566
2.46	-9.6516	0.0068	-1.2737	-0.0185	-0.0133	0.0099	33.5359	-1.7358	9.6959	0.6571	-0.0633	0.7490	0.0567
2.47	-9.6486	0.0123	-1.2727	-0.0141	-0.0128	0.0122	33.3920	-1.6822	9.8203	0.6571	-0.0633	0.7490	0.0567
2.48	-9.6494	0.0194	-1.2804	-0.0180	-0.0072	0.0019	33.4015	-1.5780	10.0945	0.6570	-0.0633	0.7490	0.0567
2.49	-9.6379	0.0097	-1.2853	-0.0166	-0.0086	0.0035	33.3736	-1.1867	10.0079	0.6570	-0.0634	0.7491	0.0567
2.5	-9.6421	0.0126	-1.2806	-0.0168	-0.0088	0.0034	33.2730	-1.2460	9.6813	0.6570	-0.0634	0.7491	0.0567
2.51	-9.6487	-0.0074	-1.2829	-0.0217	-0.0091	0.0036	33.4837	-1.4406	9.7821	0.6569	-0.0634	0.7491	0.0567
2.52	-9.6557	-0.0099	-1.2886	-0.0193	-0.0109	0.0071	33.4843	-1.3951	9.8735	0.6570	-0.0634	0.7492	0.0567
2.53	-9.6434	-0.0156	-1.2812	-0.0237	-0.0160	0.0045	33.4665	-1.2717	9.7560	0.6569	-0.0635	0.7491	0.0567
2.54	-9.6446	-0.0091	-1.2875	-0.0206	-0.0111	0.0003	33.2913	-1.4784	9.7855	0.6570	-0.0635	0.7492	0.0567
2.55	-9.6548	-0.0092	-1.2895	-0.0121	-0.0161	0.0074	33.5048	-1.4971	9.8022	0.6569	-0.0635	0.7491	0.0567
2.56	-9.6483	-0.0086	-1.2876	-0.0128	-0.0189	0.0108	33.3482	-1.3927	9.7384	0.6569	-0.0635	0.7492	0.0567
2.57	-9.6430	0.0057	-1.2839	-0.0147	-0.0121	0.0075	33.5122	-1.5752	9.7332	0.6569	-0.0635	0.7492	0.0567
2.58	-9.6423	0.0153	-1.2994	-0.0153	-0.0128	0.0062	33.5882	-1.5703	9.8235	0.6568	-0.0635	0.7491	0.0567
2.59	-9.6512	0.0164	-1.2869	-0.0094	-0.0149	0.0102	33.5451	-1.5699	9.7654	0.6569	-0.0635	0.7492	0.0567
2.6	-9.6454	0.0109	-1.2786	-0.0117	-0.0107	0.0067	33.4486	-1.4509	9.9500	0.6568	-0.0635	0.7492	0.0567
2.61	-9.6446	0.0122	-1.2754	-0.0180	-0.0102	0.0048	33.5486	-1.5638	9.7237	0.6569	-0.0635	0.7493	0.0567
2.62	-9.6455	0.0236	-1.2720	-0.0086	-0.0120	0.0087	33.5790	-1.5801	9.6203	0.6568	-0.0635	0.7492	0.0567
2.63	-9.6458	0.0116	-1.2761	-0.0173	-0.0108	0.0080	33.5476	-1.4557	9.6884	0.6568	-0.0635	0.7493	0.0567
2.64	-9.6481	0.0073	-1.2814	-0.0152	-0.0059	0.0028	33.5957	-1.5368	9.7857	0.6567	-0.0635	0.7493	0.0567
2.65	-9.6484	0.0146	-1.2760	-0.0223	-0.0130	0.0093	33.7319	-1.6007	9.9987	0.6567	-0.0635	0.7493	0.0568
2.66	-9.6473	0.0090	-1.2723	-0.0057	-0.0108	0.0086	33.5542	-1.4522	9.8638	0.6567	-0.0635	0.7493	0.0567
2.67	-9.6413	0.0087	-1.2691	-0.0114	-0.0051	0.0039	33.2856	-1.4175	9.9812	0.6567	-0.0635	0.7493	0.0567
2.68	-9.6496	0.0108	-1.2730	-0.0189	-0.0047	0.0031	33.2371	-1.3874	9.9461	0.6567	-0.0636	0.7494	0.0567
2.69	-9.6496	0.0008	-1.2767	-0.0180	-0.0061	0.0013	33.5778	-1.5098	9.9701	0.6565	-0.0636	0.7494	0.0567
2.7	-9.6509	0.0156	-1.2714	-0.0183	-0.0066	0.0052	33.3747	-1.5530	9.7564	0.6566	-0.0636	0.7495	0.0567
2.71	-9.6485	0.0031	-1.2797	-0.0134	-0.0101	0.0041	33.1017	-1.3662	9.9407	0.6565	-0.0636	0.7495	0.0567
2.72	-9.6515	0.0145	-1.2757	-0.0131	-0.0080	0.0015	33.3661	-1.4527	9.9690	0.6565	-0.0636	0.7495	0.0567
2.73	-9.6537	0.0139	-1.2866	-0.0234	-0.0057	0.0051	33.4887	-1.2160	9.9411	0.6564	-0.0637	0.7495	0.0567
2.74	-9.6534	0.0071	-1.2862	-0.0176	-0.0144	0.0044	33.2773	-1.3649	9.7380	0.6564	-0.0637	0.7495	0.0567
2.75	-9.6434	0.0068	-1.2844	-0.0172	-0.0118	0.0077	33.7057	-1.3134	10.0025	0.6564	-0.0637	0.7496	0.0567
2.76	-9.6483	-0.0097	-1.2884	-0.0196	-0.0118	0.0056	34.0750	-1.6125	9.8637	0.6564	-0.0637	0.7495	0.0567
2.77	-9.6447	-0.0016	-1.2809	-0.0130	-0.0163	0.0093	33.8437	-1.4188	9.9579	0.6564	-0.0637	0.7496	0.0567
2.78	-9.6432	-0.0065	-1.2833	-0.0086	-0.0130	0.0069	33.7442	-1.4987	9.9625	0.6564	-0.0637	0.7496	0.0567
2.79	-9.6450	0.0003	-1.2786	-0.0097	-0.0112	0.0045	33.5158	-1.6624	9.8982	0.6564	-0.0637	0.7497	0.0567
2.8	-9.6504	-0.0020	-1.2844	-0.0160	-0.0149	0.0054	33.4311	-1.5194	9.8841	0.6563	-0.0637	0.7496	0.0567
2.81	-9.6493	-0.0000	-1.2899	-0.0167	-0.0082	0.0049	33.5619	-1.3891	9.9356	0.6563	-0.0638	0.7496	0.0567
2.82	-9.6408	-0.0003	-1.2847	-0.0093	-0.0105	0.0062	33.4920	-1.5740	9.9672	0.6563	-0.0638	0.7496	0.0567
2.83	-9.6446	-0.0034	-1.2798	-0.0050	-0.0178	0.0091	33.6090	-1.5427	9.8075	0.6563	-0.0637	0.7496	0.0566
2.84	-9.6576	-0.0006	-1.2827	-0.0096	-0.0191	0.0086	33.7049	-1.6078	9.7092	0.6564	-0.0637	0.7497	0.0566
2.85	-9.6429	0.0027	-1.2812	-0.0123	-0.0077	0.0044	33.4360	-1.5772	9.7752	0.6563	-0.0637	0.7497	0.0566
2.86	-9.6521	0.0098	-1.2796	-0.0155	-0.0068	0.0067	33.4732	-1.3040	10.0212	0.6563	-0.0637	0.7497	0.0566
2.87	-9.6484	0.0147	-1.2753	-0.0139	-0.0058	0.0035	33.3343	-1.4892	9.8750	0.6562	-0.0637	0.7497	0.0566
2.88	-9.6410	0.0093	-1.2844	-0.0096	-0.0149	0.0048	33.4145	-1.4941	9.8022	0.6562	-0.0637	0.7497	0.0566
2.89	-9.6427	0.0087	-1.2740	-0.0097	-0.0116	0.0058	33.4123	-1.6247	9.9661	0.6562	-0.0637	0.7497	0.0565
2.9	-9.6523	0.0141	-1.2740	-0.0128	-0.0113	0.0050	33.3419	-1.4525	9.7543	0.6562	-0.0637	0.7497	0.0565
2.91	-9.6512	0.0123	-1.2860	-0.0248	-0.0073	0.0046	33.4605	-1.5418	10.0593	0.6562	-0.0638	0.7498	0.0566
2.92	-9.6478	0.0122	-1.2862	-0.0191	-0.0125	0.0031	33.3245	-1.6068	9.8730	0.6561	-0.0638	0.7498	0.0566
2.93	-9.6345	0.0155	-1.2698	-0.0086	-0.0075	0.0061	33.2321	-1.5029	9.8547	0.6561	-0.0638	0.7499	0.0565
2.94	-9.6457	0.0107	-1.2709	-0.0189	-0.0152	0.0102	33.5389	-1.4742	9.8333	0.6561	-0.0638	0.7498	0.0566
2.95	-9.6481	0.0053	-1.2722	-0.0184	-0.0146	0.0140	33.6123	-1.4018	9.8041	0.6561	-0.0638	0.7499	0.0566
2.96	-9.6413	0.0072	-1.2684	-0.0065	-0.0132	0.0091	33.4920	-1.5066	9.9443	0.6561	-0.0638	0.7498	0.0566
2.97	-9.6481	-0.0001	-1.2831	-0.0129	-0.0128	0.0080	33.5469	-1.5308	9.8640	0.6561	-0.0638	0.7499	0.0566
2.98	-9.6464	-0.0049	-1.2780	-0.0121	-0.0105	0.0090	33.5169	-1.4496	9.9336	0.6561	-0.0637	0.7499	0.0566
2.99	-9.6396	-0.0066	-1.2856	-0.0045	-0.0089	0.0041	33.3034	-1.5264	9.9597	0.6560	-0.0637	0.7499	0.0565
3	-9.6390	0.0030	-1.2856	-0.0056	-0.0179	0.0077	33.4604	-1.4000	9.8715	0.6561	-0.0637	0.7499	0.0565
3.01	-9.6479	0.0109	-1.2905	-0.0091	-0.0129	0.0071	33.3511	-1.5448	9.9057	0.6560	-0.0637	0.7498	0.0565
3.02	-9.6507	0.0184	-1.2885	-0.0065	-0.0119	0.0115	33.4815	-1.4264	9.8942	0.6561	-0.0637	0.7500	0.0565
3.03	-9.6529	0.0159	-1.2807	-0.0052	-0.0108	0.0060	33.6536	-1.5846	9.8891	0.6560	-0.0636	0.7499	0.0564
3.04	-9.6486	0.0173	-1.2851	-0.0123	-0.0057	0.0080	33.3352	-1.6401	9.7107	0.6560	-0.0636	0.7500	0.0564
3.05	-9.6384	0.0214	-1.2866	-0.0102	-0.0076	0.0047	33.5509	-1.4304	9.7329	0.6559	-0.0636	0.7500	0.0564
3.06	-9.6470	0.0202	-1.2875	-0.0031	-0.0077	0.0060	33.6171	-1.3252	9.8169	0.6559	-0.0636	0.7500	0.0564
3.07	-9.6469	0.0107	-1.2812	-0.0177	-0.0081	0.0089	33.4353	-1.4275	9.8325	0.6559	-0.0636	0.7501	0.0564
3.08	-9.6473	0.0212	-1.2753	-0.0163	-0.0171	0.0047	33.1831	-1.7560	10.0106	0.6559	-0.0636	0.7500	0.0564
3.09	-9.6472	0.0081	-1.2723	-0.0130	-0.0171	0.0067	33.3064	-1.3665	9.9566	0.6560	-0.0636	0.7501	0.0564
3.1	-9.6494	0.0022	-1.2693	-0.0085	-0.0087	0.0049	33.3939	-1.4197	9.8772	0.6559	-0.0636	0.7501	0.0563
3.11	-9.6428	0.0085	-1.2712	-0.0159	-0.0152	0.0075	33.5395	-1.6152	9.9097	0.6559	-0.0636	0.7501	0.0564
3.12	-9.6418	0.0055	-1.2679	-0.0154	-0.0142	0.0089	33.4373	-1.6899	9.8945	0.6558	-0.0636	0.7500	0.0564
3.13	-9.6510	0.0076	-1.2720	-0.0171	-0.0083	0.0048	33.4566	-1.5867	10.0159	0.6559	-0.0636	0.7501	0.0564
3.14	-9.6463	0.0108	-1.2709	-0.0140	-0.0092	0.0072	33.4141	-1.4868	9.7846	0.6558	-0.0636	0.7501	0.0564
3.15	-9.6410	0.0135	-1.2829	-0.0111	-0.0072	0.0104	33.5931	-1.6074	9.9072	0.6558	-0.0636	0.7501	0.0564
3.16	-9.6577	0.0154	-1.2751	-0.0045	-0.0111	0.0056	33.6188	-1.6922	9.8952	0.6558	-0.0636	0.7502	0.0563
3.17	-9.6500	0.0019	-1.2785	-0.0038	-0.0077	0.0064	33.4845	-1.4511	9.7965	0.6557	-0.0636	0.7502	0.0563
3.18	-9.6548	-0.0008	-1.2839	-0.0067	-0.0093	0.0051	33.3892	-1.4417	9.7944	0.6558	-0.0636	0.7502	0.0562
3.19	-9.6391	-0.0093	-1.2830	-0.0063	-0.0152	0.0095	33.3431	-1.4524	9.8958	0.6557	-0.0635	0.7502	0.0562
3.2	-9.6510	-0.0061	-1.2705	-0.0082	-0.0141	0.0122	33.4806	-1.4333	9.9884	0.6558	-0.0635	0.7502	0.0562
3.21	-9.6576	-0.0040	-1.2754	-0.0121	-0.0178	0.0064	33.5501	-1.6169	9.8629	0.6557	-0.0635	0.7502	0.0562
3.22	-9.6473	0.0020	-1.2881	-0.0131	-0.0186	0.0090	33.4683	-1.5326	9.9347	0.6558	-0.0635	0.7502	0.0562
3.23	-9.6453	0.0086	-1.2763	-0.0104	-0.0107	0.0034	33.3411	-1.5333	9.7717	0.6557	-0.0635	0.7502	0.0562
3.24	-9.6533	0.0118	-1.2964	-0.0128	-0.0080	0.0043	33.5128	-1.6130	9.9818	0.6557	-0.0635	0.7502	0.0562
3.25	-9.6410	0.0163	-1.2836	-0.0146	-0.0080	0.0052	33.6758	-1.2670	10.1478	0.6557	-0.0635	0.7503	0.0562
3.26	-9.6483	0.0090	-1.2844	-0.0172	-0.0126	0.0053	33.6923	-1.2848	10.1856	0.6556	-0.0635	0.7502	0.0562
3.27	-9.6578	0.0114	-1.2903	-0.0141	-0.0069	0.0040	33.5148	-1.2545	9.9492	0.6557	-0.0635	0.7503	0.0562
3.28	-9.6463	0.0119	-1.2798	-0.0192	-0.0134	0.0053	33.3505	-1.3759	9.7593	0.6556	-0.0636	0.7503	0.0562
3.29	-9.6472	0.0142	-1.2791	-0.0153	-0.0140	0.0071	33.2879	-1.1697	9.9033	0.6557	-0.0636	0.7504	0.0562
3.3	-9.6593	0.0120	-1.2777	-0.0125	-0.0127	0.0095	33.2283	-1.2616	9.8825	0.6556	-0.0635	0.7503	0.0562
3.31	-9.6548	0.0050	-1.2750	-0.0127	-0.0153	0.0120	33.1397	-1.5601	9.9101	0.6556	-0.0635	0.7503	0.0562
3.32	-9.6400	0.0118	-1.2747	-0.0190	-0.0105	0.0115	33.5142	-1.4702	9.8717	0.6556	-0.0635	0.7503	0.0562
3.33	-9.6465	0.0005	-1.2798	-0.0088	-0.0143	0.0109	33.5911	-1.5002	9.7022	0.6556	-0.0635	0.7503	0.0562
3.34	-9.6471	0.0141	-1.2758	-0.0116	-0.0156	0.0029	33.4447	-1.4926	9.8543	0.6557	-0.0635	0.7504	0.0562
3.35	-9.6463	0.0097	-1.2735	-0.0162	-0.0101	0.0085	33.5163	-1.7512	9.9082	0.6556	-0.0635	0.7503	0.0562
3.36	-9.6491	0.0117	-1.2692	-0.0078	-0.0169	0.0134	33.5948	-1.7013	9.7283	0.6556	-0.0635	0.7504	0.0562
3.37	-9.6456	0.0138	-1.2757	-0.0143	-0.0138	0.0071	33.4628	-1.4729	9.7348	0.6556	-0.0635	0.7503	0.0562
3.38	-9.6526	0.0091	-1.2750	-0.0175	-0.0087	0.0046	33.3943	-1.5100	9.7176	0.6556	-0.0635	0.7504	0.0562
3.39	-9.6448	0.0008	-1.2721	-0.0122	-0.0200	0.0065	33.5513	-1.4681	9.7594	0.6556	-0.0635	0.7503	0.0562
3.4	-9.6497	0.0103	-1.2799	-0.0257	-0.0199	0.0064	33.5599	-1.5824	9.9318	0.6556	-0.0635	0.7503	0.0563
3.41	-9.6462	0.0096	-1.2886	-0.0124	-0.0119	0.0039	33.5572	-1.4783	9.7917	0.6556	-0.0635	0.7503	0.0562
3.42	-9.6398	0.0005	-1.2808	-0.0197	-0.0116	0.0011	33.4358	-1.5135	9.8512	0.6556	-0.0636	0.7503	0.0562
3.43	-9.6501	0.0023	-1.2920	-0.0177	-0.0130	0.0068	33.3607	-1.4382	9.9290	0.6556	-0.0636	0.7503	0.0563
3.44	-9.6464	0.0059	-1.2923	-0.0170	-0.0094	0.0031	33.4954	-1.3970	9.8732	0.6555	-0.0636	0.7503	0.0563
3.45	-9.6420	0.0058	-1.2874	-0.0139	-0.0089	0.0041	33.4459	-1.4241	9.9399	0.6556	-0.0636	0.7504	0.0563
3.46	-9.6452	-0.0004	-1.2878	-0.0136	-0.0181	0.0020	33.2465	-1.1084	9.9640	0.6556	-0.0636	0.7503	0.0562
3.47	-9.6484	-0.0020	-1.2866	-0.0175	-0.0171	0.0045	33.4237	-1.3382	9.7887	0.6556	-0.0637	0.7503	0.0562
3.48	-9.6475	-0.0003	-1.2896	-0.0074	-0.0176	0.0041	33.2907	-1.3142	9.9053	0.6556	-0.0637	0.7503	0.0562
3.49	-9.6515	0.0026	-1.2804	-0.0121	-0.0203	0.0082	33.3392	-1.1551	9.8898	0.6556	-0.0636	0.7503	0.0562
3.5	-9.6532	-0.0011	-1.2799	-0.0185	-0.0129	0.0100	33.4487	-1.5068	9.7051	0.6556	-0.0636	0.7503	0.0562
3.51	-9.6602	-0.0057	-1.2904	-0.0150	-0.0188	0.0077	33.6174	-1.7864	9.8394	0.6556	-0.0636	0.7502	0.0562
3.52	-9.6507	0.0022	-1.2935	-0.0179	-0.0211	0.0102	33.8553	-1.5691	9.9008	0.6557	-0.0637	0.7503	0.0563
3.53	-9.6481	0.0035	-1.2891	-0.0118	-0.0151	0.0058	33.5953	-1.6780	9.6778	0.6557	-0.0636	0.7502	0.0563
3.54	-9.6477	0.0056	-1.2895	-0.0157	-0.0148	0.0065	33.5688	-1.6643	9.8142	0.6557	-0.0637	0.7503	0.0563
3.55	-9.6502	0.0068	-1.2825	-0.0166	-0.0151	0.0050	33.4577	-1.3602	9.8424	0.6557	-0.0637	0.7502	0.0563
3.56	-9.6465	0.0152	-1.2764	-0.0113	-0.0189	0.0056	33.5138	-1.6520	9.7563	0.6557	-0.0637	0.7502	0.0563
3.57	-9.6464	0.0133	-1.2741	-0.0170	-0.0181	0.0049	33.5592	-1.6740	9.8179	0.6557	-0.0637	0.7502	0.0563
3.58	-9.6506	0.0158	-1.2745	-0.0204	-0.0140	0.0071	33.6293	-1.5759	10.0273	0.6557	-0.0637	0.7502	0.0563
3.59	-9.6518	0.0103	-1.2727	-0.0164	-0.0131	0.0062	33.5471	-1.4993	9.8956	0.6558	-0.0637	0.7503	0.0563
3.6	-9.6493	0.0175	-1.2685	-0.0117	-0.0106	0.0032	33.3197	-1.4481	10.0056	0.6557	-0.0637	0.7502	0.0563
3.61	-9.6482	0.0184	-1.2730	-0.0192	-0.0176	0.0040	33.5065	-1.4539	9.7848	0.6558	-0.0637	0.7502	0.0563
3.62	-9.6451	0.0187	-1.2712	-0.0146	-0.0100	0.0044	33.3773	-1.5272	9.9132	0.6557	-0.0638	0.7501	0.0563
3.63	-9.6483	0.0194	-1.2641	-0.0188	-0.0162	0.0027	33.3138	-1.2667	9.8939	0.6557	-0.0638	0.7502	0.0563
3.64	-9.6674	0.0151	-1.2746	-0.0184	-0.0177	0.0040	33.4452	-1.5684	9.7248	0.6557	-0.0638	0.7502	0.0563
3.65	-9.6568	0.0129	-1.2713	-0.0176	-0.0115	0.0036	33.3162	-1.5277	9.7950	0.6557	-0.0638	0.7502	0.0563
3.66	-9.6421	0.0076	-1.2743	-0.0210	-0.0110	0.0073	33.2288	-1.3935	9.9117	0.6557	-0.0639	0.7502	0.0563
3.67	-9.6381	-0.0076	-1.2765	-0.0219	-0.0164	0.0067	33.3530	-1.1823	9.7647	0.6557	-0.0639	0.7502	0.0564
3.68	-9.6519	-0.0203	-1.2850	-0.0163	-0.0186	0.0098	33.2657	-1.4029	9.8467	0.6558	-0.0639	0.7502	0.0564
3.69	-9.6520	-0.0212	-1.2767	-0.0128	-0.0167	0.0124	33.5604	-1.7141	9.7162	0.6557	-0.0639	0.7501	0.0564
3.7	-9.6509	-0.0027	-1.2851	-0.0113	-0.0149	0.0099	33.6716	-1.5959	9.7592	0.6558	-0.0638	0.7502	0.0564
3.71	-9.6437	-0.0058	-1.2871	-0.0131	-0.0155	0.0075	33.6007	-1.6175	9.8473	0.6558	-0.0638	0.7501	0.0564
3.72	-9.6445	0.0005	-1.2843	-0.0131	-0.0114	0.0129	33.4746	-1.6662	9.7985	0.6558	-0.0638	0.7501	0.0564
3.73	-9.6544	0.0179	-1.2855	-0.0151	-0.0125	0.0077	33.5598	-1.6721	9.9302	0.6558	-0.0638	0.7501	0.0564
3.74	-9.6485	0.0197	-1.2867	-0.0142	-0.0077	0.0069	33.3398	-1.6148	9.8889	0.6558	-0.0638	0.7501	0.0564
3.75	-9.6463	0.0233	-1.2795	-0.0118	-0.0130	0.0066	33.8397	-1.4233	9.9504	0.6558	-0.0638	0.7502	0.0564
3.76	-9.6484	0.0239	-1.2837	-0.0064	-0.0156	0.0079	33.8895	-1.6003	10.1151	0.6557	-0.0638	0.7501	0.0564
3.77	-9.6481	0.0207	-1.2785	-0.0063	-0.0192	0.0099	33.7091	-1.4477	9.9804	0.6558	-0.0637	0.7502	0.0564
3.78	-9.6533	0.0191	-1.2714	-0.0113	-0.0205	0.0120	33.5222	-1.3761	9.9914	0.6558	-0.0637	0.7501	0.0564
3.79	-9.6470	0.0052	-1.2832	-0.0062	-0.0159	0.0085	33.2129	-1.3474	9.9139	0.6559	-0.0637	0.7502	0.0564
3.8	-9.6475	0.0124	-1.2820	-0.0141	-0.0163	0.0030	33.3826	-1.5584	9.7676	0.6558	-0.0637	0.7500	0.0564
3.81	-9.6473	0.0104	-1.2791	-0.0071	-0.0146	0.0044	33.2884	-1.5171	9.9375	0.6559	-0.0637	0.7501	0.0563
3.82	-9.6502	0.0070	-1.2683	-0.0123	-0.0165	0.0020	33.4022	-1.2315	9.7894	0.6559	-0.0637	0.7501	0.0563
3.83	-9.6479	0.0160	-1.2711	-0.0088	-0.0148	0.0076	33.3437	-1.4650	9.8585	0.6559	-0.0637	0.7500	0.0563
3.84	-9.6458	0.0126	-1.2782	-0.0090	-0.0149	0.0073	33.4732	-1.4307	10.0036	0.6560	-0.0637	0.7501	0.0563
3.85	-9.6473	0.0155	-1.2827	-0.0164	-0.0148	0.0006	33.4290	-1.3741	9.7953	0.6559	-0.0637	0.7500	0.0563
3.86	-9.6507	0.0238	-1.2874	-0.0142	-0.0176	0.0077	33.2800	-1.5053	9.8386	0.6560	-0.0637	0.7501	0.0563
3.87	-9.6495	0.0183	-1.2769	-0.0114	-0.0181	0.0137	33.3621	-1.3382	10.0031	0.6559	-0.0636	0.7499	0.0563
3.88	-9.6464	0.0184	-1.2823	-0.0135	-0.0197	0.0150	33.4765	-1.3970	9.7067	0.6560	-0.0636	0.7500	0.0563
3.89	-9.6488	0.0071	-1.2797	-0.0227	-0.0160	0.0085	33.5954	-1.6342	9.7691	0.6560	-0.0636	0.7500	0.0564
3.9	-9.6495	-0.0011	-1.2808	-0.0109	-0.0169	0.0107	33.6225	-1.5311	9.8171	0.6560	-0.0636	0.7499	0.0564
3.91	-9.6469	-0.0044	-1.2781	-0.0085	-0.0152	0.0074	33.5320	-1.5341	9.7942	0.6560	-0.0636	0.7500	0.0564
3.92	-9.6524	-0.0049	-1.2754	-0.0170	-0.0123	0.0049	33.3845	-1.3982	9.7972	0.6560	-0.0636	0.7499	0.0564
3.93	-9.6452	-0.0064	-1.2742	-0.0166	-0.0189	0.0054	33.4148	-1.5609	10.0088	0.6561	-0.0636	0.7500	0.0564
3.94	-9.6442	-0.0054	-1.2894	-0.0143	-0.0178	0.0108	33.4610	-1.3567	9.7858	0.6560	-0.0636	0.7498	0.0564
3.95	-9.6476	0.0025	-1.2822	-0.0129	-0.0165	0.0084	33.5476	-1.3831	9.7034	0.6561	-0.0636	0.7499	0.0564
3.96	-9.6502	-0.0034	-1.2751	-0.0130	-0.0148	0.0089	33.5098	-1.3189	9.8345	0.6561	-0.0636	0.7499	0.0564
3.97	-9.6553	0.0061	-1.2810	-0.0085	-0.0164	0.0119	33.6175	-1.5346	9.7661	0.6561	-0.0635	0.7499	0.0564
3.98	-9.6536	0.0044	-1.2761	-0.0099	-0.0174	0.0039	33.4478	-1.4263	9.9158	0.6561	-0.0635	0.7498	0.0564
3.99	-9.6489	0.0027	-1.2798	-0.0176	-0.0175	0.0039	33.4312	-1.3987	9.8447	0.6561	-0.0636	0.7498	0.0564
4	-9.6483	0.0087	-1.2827	-0.0177	-0.0183	0.0023	33.5006	-1.5777	9.7724	0.6562	-0.0636	0.7498	0.0564
4.01	-9.6450	-0.0016	-1.2804	-0.0181	-0.0171	0.0029	33.6136	-1.2084	9.8721	0.6561	-0.0636	0.7497	0.0564
4.02	-9.6426	0.0168	-1.2739	-0.0178	-0.0180	0.0067	33.5219	-1.4506	10.0051	0.6562	-0.0636	0.7498	0.0564
4.03	-9.6499	0.0095	-1.2837	-0.0094	-0.0192	0.0096	33.3713	-1.3803	9.9179	0.6562	-0.0636	0.7498	0.0564
4.04	-9.6556	0.0142	-1.2848	-0.0106	-0.0199	0.0051	33.4309	-1.4642	9.8655	0.6563	-0.0636	0.7498	0.0564
4.05	-9.6465	0.0115	-1.2757	-0.0043	-0.0201	0.0063	33.4580	-1.7484	9.9107	0.6562	-0.0636	0.7497	0.0564
4.06	-9.6517	0.0116	-1.2762	-0.0056	-0.0197	0.0083	33.4528	-1.3333	9.7393	0.6563	-0.0635	0.7497	0.0563
4.07	-9.6523	0.0085	-1.2794	-0.0096	-0.0207	0.0078	33.6091	-1.4243	9.7127	0.6564	-0.0635	0.7497	0.0563
4.08	-9.6549	0.0155	-1.2724	-0.0133	-0.0128	0.0063	33.6148	-1.5018	10.0068	0.6563	-0.0635	0.7496	0.0563
4.09	-9.6523	0.0052	-1.2760	-0.0091	-0.0143	0.0131	33.5150	-1.7513	9.8577	0.6564	-0.0635	0.7497	0.0563
4.1	-9.6460	0.0114	-1.2756	-0.0142	-0.0188	0.0046	33.5515	-1.7515	9.8073	0.6564	-0.0635	0.7496	0.0563
4.11	-9.6540	0.0048	-1.2853	-0.0086	-0.0182	0.0119	33.4825	-1.4330	9.7480	0.6564	-0.0634	0.7497	0.0563
4.12	-9.6549	0.0093	-1.2799	-0.0178	-0.0201	0.0106	33.3627	-1.5285	9.6115	0.6564	-0.0634	0.7495	0.0564
4.13	-9.6474	0.0099	-1.2828	-0.0153	-0.0093	0.0082	33.3842	-1.6553	9.5063	0.6564	-0.0634	0.7496	0.0564
4.14	-9.6451	0.0090	-1.2798	-0.0146	-0.0134	0.0076	33.3726	-1.3886	9.7771	0.6564	-0.0634	0.7496	0.0564
4.15	-9.6471	0.0157	-1.2795	-0.0104	-0.0164	0.0102	33.3535	-1.4151	10.0126	0.6564	-0.0634	0.7496	0.0564
4.16	-9.6483	-0.0010	-1.2864	-0.0170	-0.0111	0.0113	33.4678	-1.6468	9.8485	0.6565	-0.0634	0.7496	0.0564
4.17	-9.6465	0.0084	-1.2837	-0.0185	-0.0169	0.0043	33.4229	-1.6075	10.0662	0.6564	-0.0634	0.7496	0.0564
4.18	-9.6454	0.0089	-1.2730	-0.0130	-0.0182	0.0055	33.3185	-1.4005	9.9740	0.6565	-0.0634	0.7496	0.0564
4.19	-9.6470	0.0110	-1.2777	-0.0091	-0.0147	0.0072	33.4889	-1.3455	9.6497	0.6564	-0.0634	0.7495	0.0564
4.2	-9.6404	0.0037	-1.2736	-0.0126	-0.0156	0.0067	33.4015	-1.4794	9.8685	0.6565	-0.0634	0.7496	0.0564
4.21	-9.6463	0.0002	-1.2716	-0.0113	-0.0162	0.0062	33.2571	-1.4400	9.9962	0.6565	-0.0634	0.7495	0.0564
4.22	-9.6499	-0.0030	-1.2810	-0.0105	-0.0150	0.0036	33.2859	-1.4659	9.9542	0.6565	-0.0634	0.7495	0.0564
4.23	-9.6495	0.0034	-1.2880	-0.0154	-0.0131	0.0055	33.3718	-1.4405	9.9800	0.6565	-0.0634	0.7495	0.0564
4.24	-9.6426	-0.0047	-1.2883	-0.0119	-0.0155	0.0106	33.5847	-1.4642	9.8446	0.6565	-0.0634	0.7495	0.0564
4.25	-9.6552	-0.0052	-1.2850	-0.0046	-0.0141	0.0064	33.8467	-1.3981	10.1491	0.6566	-0.0633	0.7495	0.0564
4.26	-9.6591	0.0045	-1.2818	-0.0107	-0.0155	0.0078	34.0464	-1.2596	10.1328	0.6565	-0.0633	0.7494	0.0563
4.27	-9.6496	-0.0045	-1.2782	-0.0086	-0.0153	0.0103	33.8313	-1.3487	10.2455	0.6566	-0.0633	0.7495	0.0563
4.28	-9.6497	-0.0033	-1.2757	-0.0050	-0.0137	0.0116	33.6976	-1.6803	9.8953	0.6566	-0.0632	0.7495	0.0563
4.29	-9.6493	0.0018	-1.2846	-0.0095	-0.0134	0.0055	33.5953	-1.6554	9.6859	0.6566	-0.0632	0.7495	0.0563
4.3	-9.6495	0.0062	-1.2749	-0.0153	-0.0147	0.0039	33.4847	-1.6387	9.8452	0.6566	-0.0632	0.7494	0.0563
4.31	-9.6424	0.0068	-1.2791	-0.0089	-0.0112	0.0062	33.2080	-1.6090	9.8417	0.6566	-0.0632	0.7495	0.0563
4.32	-9.6511	0.0158	-1.2829	-0.0099	-0.0142	0.0064	33.4807	-1.5622	9.9118	0.6566	-0.0632	0.7495	0.0563
4.33	-9.6456	0.0233	-1.2828	-0.0139	-0.0150	0.0050	33.5821	-1.7367	9.7018	0.6566	-0.0632	0.7494	0.0563
4.34	-9.6584	0.0190	-1.2774	-0.0134	-0.0155	0.0069	33.3605	-1.7157	9.8680	0.6567	-0.0632	0.7495	0.0563
4.35	-9.6542	0.0240	-1.2891	-0.0144	-0.0098	0.0071	33.4846	-1.1790	9.9147	0.6566	-0.0632	0.7494	0.0563
4.36	-9.6486	0.0279	-1.2921	-0.0222	-0.0115	0.0051	33.2673	-1.3873	9.8858	0.6567	-0.0632	0.7495	0.0563
4.37	-9.6469	0.0256	-1.2837	-0.0205	-0.0129	0.0070	33.3880	-1.2903	9.9949	0.6566	-0.0633	0.7494	0.0563
4.38	-9.6439	0.0228	-1.2870	-0.0204	-0.0134	0.0056	33.4739	-1.3545	9.9943	0.6566	-0.0633	0.7495	0.0563
4.39	-9.6483	0.0188	-1.2866	-0.0144	-0.0205	0.0046	33.4516	-1.4783	9.8204	0.6566	-0.0633	0.7494	0.0563
4.4	-9.6487	0.0178	-1.2944	-0.0207	-0.0150	0.0025	33.4816	-1.2823	9.8761	0.6566	-0.0633	0.7494	0.0564
4.41	-9.6434	0.0145	-1.2884	-0.0194	-0.0161	0.0066	33.3492	-1.3001	10.0246	0.6567	-0.0633	0.7494	0.0564
4.42	-9.6454	0.0179	-1.2867	-0.0120	-0.0159	0.0050	33.3040	-1.4712	9.8210	0.6567	-0.0633	0.7494	0.0564
4.43	-9.6511	0.0065	-1.2882	-0.0166	-0.0107	0.0063	33.4753	-1.3835	9.6460	0.6567	-0.0634	0.7494	0.0564
4.44	-9.6423	0.0146	-1.2809	-0.0095	-0.0080	0.0072	33.4530	-1.5471	9.6377	0.6566	-0.0633	0.7493	0.0564
4.45	-9.6530	0.0130	-1.2893	-0.0112	-0.0103	0.0093	33.6761	-1.5357	9.7772	0.6567	-0.0633	0.7494	0.0564
4.46	-9.6625	0.0039	-1.2897	-0.0116	-0.0110	0.0046	33.5631	-1.6049	10.0025	0.6566	-0.0633	0.7494	0.0564
4.47	-9.6500	-0.0006	-1.2901	-0.0089	-0.0144	0.0068	33.5304	-1.5828	9.7284	0.6567	-0.0633	0.7494	0.0563
4.48	-9.6483	-0.0097	-1.2807	-0.0088	-0.0153	0.0068	33.6398	-1.5278	9.7588	0.6566	-0.0633	0.7494	0.0563
4.49	-9.6540	-0.0091	-1.2750	-0.0100	-0.0126	0.0092	33.5022	-1.5590	9.8129	0.6567	-0.0633	0.7494	0.0563
4.5	-9.6541	-0.0070	-1.2746	-0.0074	-0.0163	0.0051	33.4418	-1.5646	9.7262	0.6567	-0.0633	0.7494	0.0563
4.51	-9.6490	-0.0041	-1.2805	-0.0062	-0.0144	0.0012	33.4898	-1.8251	10.0447	0.6566	-0.0632	0.7493	0.0562
4.52	-9.6522	0.0098	-1.2761	-0.0114	-0.0144	0.0106	33.4099	-1.6912	9.9784	0.6567	-0.0633	0.7494	0.0563
4.53	-9.6450	0.0086	-1.2699	-0.0151	-0.0194	0.0130	33.4425	-1.4598	9.7321	0.6567	-0.0632	0.7494	0.0563
4.54	-9.6423	0.0027	-1.2754	-0.0118	-0.0129	0.0044	33.3812	-1.5232	9.7536	0.6568	-0.0632	0.7494	0.0563
4.55	-9.6499	0.0193	-1.2843	-0.0120	-0.0138	0.0065	33.1089	-1.6709	9.6244	0.6567	-0.0632	0.7493	0.0563
4.56	-9.6501	0.0259	-1.2826	-0.0072	-0.0143	0.0021	33.1548	-1.3882	9.7845	0.6567	-0.0632	0.7494	0.0563
4.57	-9.6515	0.0221	-1.2830	-0.0052	-0.0175	0.0062	33.3278	-1.2665	9.9889	0.6567	-0.0632	0.7494	0.0562
4.58	-9.6448	0.0241	-1.2733	-0.0229	-0.0105	0.0026	33.4056	-1.3918	10.0089	0.6567	-0.0632	0.7493	0.0562
4.59	-9.6504	0.0228	-1.2821	-0.0221	-0.0111	0.0044	33.3642	-1.4781	9.7864	0.6568	-0.0633	0.7494	0.0563
4.6	-9.6459	0.0197	-1.2814	-0.0211	-0.0069	0.0057	33.4051	-1.3449	9.8526	0.6567	-0.0633	0.7494	0.0563
4.61	-9.6443	0.0112	-1.2759	-0.0189	-0.0164	0.0038	33.3465	-1.4658	9.9517	0.6567	-0.0633	0.7494	0.0563
4.62	-9.6522	0.0059	-1.2797	-0.0207	-0.0121	0.0068	33.4964	-1.4669	9.7871	0.6567	-0.0634	0.7493	0.0563
4.63	-9.6415	0.0064	-1.2724	-0.0105	-0.0132	0.0117	33.4125	-1.5798	9.8716	0.6567	-0.0633	0.7494	0.0563
4.64	-9.6482	0.0098	-1.2804	-0.0160	-0.0096	0.0101	33.4310	-1.6724	9.7121	0.6567	-0.0633	0.7494	0.0563
4.65	-9.6506	0.0081	-1.2760	-0.0126	-0.0099	0.0060	33.4657	-1.5429	9.6628	0.6567	-0.0633	0.7494	0.0563
4.66	-9.6462	0.0098	-1.2765	-0.0142	-0.0202	0.0049	33.5687	-1.5605	9.9952	0.6567	-0.0633	0.7494	0.0563
4.67	-9.6486	0.0034	-1.2879	-0.0240	-0.0150	0.0052	33.4882	-1.5275	9.6879	0.6567	-0.0634	0.7494	0.0564
4.68	-9.6458	0.0126	-1.2865	-0.0168	-0.0143	0.0056	33.5312	-1.6166	9.6922	0.6567	-0.0634	0.7494	0.0564
4.69	-9.6586	0.0070	-1.2908	-0.0150	-0.0172	0.0066	33.4735	-1.6401	9.8366	0.6567	-0.0634	0.7493	0.0564
4.7	-9.6489	0.0172	-1.2992	-0.0190	-0.0183	0.0066	33.3750	-1.5431	9.8342	0.6568	-0.0634	0.7494	0.0564
4.71	-9.6379	0.0204	-1.2915	-0.0159	-0.0121	0.0097	33.6373	-1.6784	9.9579	0.6567	-0.0634	0.7493	0.0564
4.72	-9.6575	0.0209	-1.2964	-0.0131	-0.0171	0.0078	33.3564	-1.5576	10.1186	0.6568	-0.0634	0.7493	0.0564
4.73	-9.6482	0.0187	-1.2886	-0.0234	-0.0189	0.0027	33.4739	-1.4663	9.8693	0.6567	-0.0634	0.7493	0.0565
4.74	-9.6445	0.0145	-1.2799	-0.0179	-0.0151	0.0018	33.4575	-1.4602	9.8446	0.6568	-0.0635	0.7493	0.0565
4.75	-9.6450	0.0114	-1.2840	-0.0199	-0.0153	0.0040	33.6582	-1.2963	10.1326	0.6568	-0.0635	0.7493	0.0565
4.76	-9.6505	0.0240	-1.2827	-0.0218	-0.0143	0.0076	33.7255	-1.3639	10.3099	0.6567	-0.0635	0.7492	0.0565
4.77	-9.6505	0.0153	-1.2842	-0.0099	-0.0107	0.0089	33.5109	-1.4413	9.9114	0.6568	-0.0635	0.7493	0.0565
4.78	-9.6484	0.0104	-1.2893	-0.0116	-0.0162	0.0038	33.4097	-1.5115	9.8190	0.6568	-0.0635	0.7493	0.0565
4.79	-9.6485	0.0121	-1.2803	-0.0189	-0.0187	0.0046	33.2545	-1.5361	9.9449	0.6568	-0.0635	0.7493	0.0565
4.8	-9.6454	0.0084	-1.2739	-0.0239	-0.0234	0.0043	33.3286	-1.6196	9.7773	0.6568	-0.0636	0.7492	0.0565
4.81	-9.6490	0.0161	-1.2800	-0.0208	-0.0214	0.0095	33.3990	-1.5217	9.8154	0.6568	-0.0636	0.7492	0.0566
4.82	-9.6470	0.0157	-1.2751	-0.0114	-0.0217	0.0118	33.5868	-1.5190	9.8071	0.6569	-0.0636	0.7492	0.0566
4.83	-9.6473	0.0146	-1.2777	-0.0172	-0.0207	0.0112	33.6605	-1.5978	9.8053	0.6569	-0.0635	0.7491	0.0566
4.84	-9.6495	0.0143	-1.2795	-0.0147	-0.0140	0.0055	33.5297	-1.7114	9.8328	0.6569	-0.0636	0.7492	0.0566
4.85	-9.6557	0.0115	-1.2814	-0.0140	-0.0174	0.0060	33.5593	-1.6901	9.7646	0.6569	-0.0636	0.7491	0.0566
4.86	-9.6493	0.0033	-1.2720	-0.0088	-0.0202	0.0075	33.3623	-1.4676	9.7306	0.6570	-0.0635	0.7492	0.0566
4.87	-9.6521	-0.0021	-1.2819	-0.0108	-0.0167	0.0043	33.4851	-1.4417	10.0205	0.6569	-0.0635	0.7491	0.0566
4.88	-9.6510	-0.0049	-1.2797	-0.0153	-0.0119	0.0036	33.5416	-1.5472	9.8409	0.6569	-0.0636	0.7491	0.0566
4.89	-9.6456	-0.0120	-1.2827	-0.0071	-0.0116	0.0043	33.4466	-1.3823	9.7945	0.6569	-0.0635	0.7491	0.0566
4.9	-9.6500	-0.0094	-1.2782	-0.0140	-0.0175	0.0072	33.4894	-1.6139	9.8102	0.6569	-0.0635	0.7491	0.0566
4.91	-9.6492	-0.0023	-1.2839	-0.0173	-0.0140	0.0037	33.3774	-1.6235	9.8102	0.6569	-0.0636	0.7491	0.0566
4.92	-9.6481	-0.0043	-1.2951	-0.0210	-0.0177	0.0051	33.5146	-1.6004	9.8031	0.6569	-0.0636	0.7491	0.0566
4.93	-9.6544	0.0052	-1.2740	-0.0166	-0.0164	0.0050	33.4056	-1.4429	9.8147	0.6570	-0.0636	0.7491	0.0566
4.94	-9.6455	0.0047	-1.2829	-0.0162	-0.0167	0.0035	33.3696	-1.5165	9.7778	0.6569	-0.0636	0.7490	0.0566
4.95	-9.6500	0.0143	-1.2813	-0.0107	-0.0189	0.0073	33.5143	-1.7573	9.9619	0.6570	-0.0636	0.7491	0.0566
4.96	-9.6562	0.0223	-1.2954	-0.0160	-0.0192	0.0099	33.6848	-1.6079	9.7968	0.6570	-0.0636	0.7491	0.0566
4.97	-9.6506	0.0210	-1.2873	-0.0223	-0.0127	0.0032	33.2849	-1.4255	9.9428	0.6570	-0.0636	0.7491	0.0566
4.98	-9.6426	0.0209	-1.2793	-0.0208	-0.0216	0.0038	33.4050	-1.5567	10.0804	0.6570	-0.0637	0.7490	0.0567
4.99	-9.6419	0.0167	-1.2667	-0.0153	-0.0223	0.0055	33.4632	-1.5111	9.8476	0.6570	-0.0637	0.7490	0.0567
5	-9.6501	0.0129	-1.2715	-0.0111	-0.0160	0.0118	33.3714	-1.5887	9.8849	0.6571	-0.0637	0.7490	0.0567
5.01	-9.6503	0.0179	-1.2762	-0.0092	-0.0171	0.0133	33.6775	-1.6366	9.6737	0.6570	-0.0636	0.7490	0.0567
5.02	-9.6484	0.0121	-1.2759	-0.0130	-0.0180	0.0098	33.6778	-1.4846	9.9693	0.6571	-0.0636	0.7490	0.0567
5.03	-9.6477	0.0025	-1.2796	-0.0146	-0.0137	0.0108	33.5106	-1.5937	9.9604	0.6571	-0.0636	0.7490	0.0567
5.04	-9.6523	-0.0064	-1.2749	-0.0118	-0.0136	0.0117	33.5779	-1.5832	9.8094	0.6571	-0.0636	0.7491	0.0567
5.05	-9.6443	-0.0034	-1.2674	-0.0130	-0.0153	0.0096	33.4601	-1.3377	9.7932	0.6570	-0.0635	0.7490	0.0567
5.06	-9.6451	-0.0024	-1.2738	-0.0185	-0.0160	0.0058	33.5660	-1.2716	9.9290	0.6571	-0.0636	0.7490	0.0567
5.07	-9.6446	0.0011	-1.2731	-0.0157	-0.0116	0.0062	33.5529	-1.4678	9.8263	0.6571	-0.0636	0.7490	0.0567
5.08	-9.6500	0.0007	-1.2713	-0.0134	-0.0127	0.0059	33.4927	-1.3548	9.7934	0.6570	-0.0636	0.7490	0.0567
5.09	-9.6475	-0.0044	-1.2687	-0.0146	-0.0136	0.0079	33.3618	-1.4764	9.8047	0.6571	-0.0636	0.7491	0.0568
5.1	-9.6498	-0.0087	-1.2707	-0.0168	-0.0144	0.0069	33.4275	-1.6725	9.6839	0.6570	-0.0636	0.7490	0.0568
5.11	-9.6482	-0.0013	-1.2782	-0.0175	-0.0183	0.0053	33.3150	-1.5443	10.0014	0.6571	-0.0636	0.7491	0.0568
5.12	-9.6396	-0.0038	-1.2767	-0.0115	-0.0110	0.0048	33.3025	-1.4569	9.8657	0.6570	-0.0636	0.7490	0.0568
5.13	-9.6508	-0.0070	-1.2907	-0.0230	-0.0137	0.0052	33.4042	-1.4367	9.9277	0.6570	-0.0636	0.7490	0.0568
5.14	-9.6562	-0.0053	-1.3064	-0.0133	-0.0129	0.0091	33.4039	-1.4928	9.7861	0.6570	-0.0636	0.7490	0.0568
5.15	-9.6505	-0.0004	-1.2861	-0.0148	-0.0135	0.0063	33.5828	-1.5656	9.6844	0.6570	-0.0636	0.7490	0.0568
5.16	-9.6590	0.0065	-1.3010	-0.0208	-0.0193	0.0044	33.5259	-1.4089	9.8186	0.6570	-0.0636	0.7490	0.0568
5.17	-9.6467	0.0067	-1.2983	-0.0110	-0.0114	0.0056	33.3443	-1.3814	10.0840	0.6570	-0.0636	0.7490	0.0568
5.18	-9.6460	0.0184	-1.2981	-0.0130	-0.0162	0.0091	33.4290	-1.5276	10.1516	0.6570	-0.0636	0.7491	0.0568
5.19	-9.6553	0.0230	-1.2988	-0.0107	-0.0147	0.0143	33.5652	-1.5394	9.8653	0.6570	-0.0636	0.7490	0.0568
5.2	-9.6502	0.0201	-1.2978	-0.0053	-0.0198	0.0127	33.7151	-1.6057	9.9120	0.6570	-0.0636	0.7491	0.0568
5.21	-9.6460	0.0283	-1.3102	-0.0224	-0.0215	0.0100	33.4590	-1.3534	9.8852	0.6570	-0.0636	0.7490	0.0569
5.22	-9.6492	0.0293	-1.2935	-0.0098	-0.0211	0.0045	33.4633	-1.6721	9.8972	0.6571	-0.0636	0.7490	0.0569
5.23	-9.6517	0.0284	-1.2891	-0.0116	-0.0154	0.0055	33.5645	-1.8065	9.9063	0.6571	-0.0636	0.7490	0.0568
5.24	-9.6511	0.0339	-1.2928	-0.0118	-0.0146	0.0097	33.5263	-1.7473	10.0148	0.6571	-0.0636	0.7490	0.0569
5.25	-9.6500	0.0305	-1.2802	-0.0029	-0.0166	0.0083	33.8063	-1.4563	9.9683	0.6571	-0.0635	0.7490	0.0568
5.26	-9.6494	0.0252	-1.2891	-0.0094	-0.0172	0.0104	33.9143	-1.4312	10.0112	0.6570	-0.0635	0.7489	0.0568
5.27	-9.6490	0.0257	-1.2791	-0.0141	-0.0093	0.0058	33.6738	-1.4780	9.8747	0.6571	-0.0635	0.7491	0.0568
5.28	-9.6429	0.0178	-1.2718	-0.0114	-0.0129	0.0036	33.5312	-1.4901	9.9323	0.6570	-0.0635	0.7490	0.0568
5.29	-9.6472	0.0124	-1.2732	-0.0119	-0.0137	0.0017	33.4232	-1.3786	10.0074	0.6571	-0.0635	0.7491	0.0568
5.3	-9.6459	-0.0072	-1.2728	-0.0180	-0.0086	0.0051	33.3859	-1.4260	9.8495	0.6570	-0.0636	0.7490	0.0568
5.31	-9.6443	-0.0116	-1.2785	-0.0102	-0.0128	0.0058	33.3819	-1.4338	9.8995	0.6570	-0.0635	0.7491	0.0568
5.32	-9.6504	-0.0085	-1.2770	-0.0165	-0.0149	0.0025	33.3847	-1.4388	9.8461	0.6570	-0.0636	0.7491	0.0568
5.33	-9.6440	-0.0130	-1.2781	-0.0139	-0.0094	0.0061	33.3766	-1.4380	9.9832	0.6569	-0.0636	0.7490	0.0568
5.34	-9.6616	-0.0159	-1.2910	-0.0116	-0.0053	0.0040	33.3855	-1.0903	9.8356	0.6570	-0.0636	0.7492	0.0568
5.35	-9.6592	-0.0109	-1.3048	-0.0107	-0.0109	-0.0011	33.5057	-1.4245	9.9282	0.6569	-0.0636	0.7491	0.0567
5.36	-9.6379	-0.0025	-1.2801	-0.0115	-0.0069	0.0065	33.3821	-1.3231	9.7307	0.6569	-0.0636	0.7492	0.0567
5.37	-9.6385	0.0117	-1.2541	-0.0112	-0.0131	0.0134	33.4549	-1.2781	9.6826	0.6568	-0.0636	0.7491	0.0567
5.38	-9.6423	0.0236	-1.2705	-0.0150	-0.0144	0.0097	33.6866	-1.5563	9.8253	0.6569	-0.0636	0.7492	0.0567
5.39	-9.6477	0.0322	-1.2762	-0.0185	-0.0121	0.0066	33.5341	-1.6514	9.9713	0.6569	-0.0636	0.7492	0.0567
5.4	-9.6574	0.0619	-1.2674	-0.0171	-0.0066	0.0069	33.3556	-1.6448	9.9034	0.6568	-0.0636	0.7492	0.0568
5.41	-9.6485	0.0661	-1.2709	-0.0123	-0.0092	-0.0000	33.4104	-1.6139	9.7905	0.6568	-0.0636	0.7492	0.0567
5.42	-9.6342	0.0720	-1.2479	-0.0055	-0.0168	0.0071	33.5878	-1.7003	9.7728	0.6568	-0.0636	0.7492	0.0567
5.43	-9.6411	0.0487	-1.2595	-0.0163	-0.0125	0.0026	33.5207	-1.8296	9.7000	0.6568	-0.0636	0.7493	0.0567
5.44	-9.6463	0.0294	-1.2708	-0.0117	-0.0139	0.0018	33.6424	-1.4274	9.7032	0.6567	-0.0636	0.7492	0.0567
5.45	-9.6419	-0.0023	-1.2668	-0.0180	-0.0149	0.0062	33.5176	-1.3948	9.8319	0.6568	-0.0636	0.7493	0.0567
5.46	-9.6484	-0.0295	-1.2744	-0.0215	-0.0150	0.0046	33.4288	-1.5186	9.8806	0.6568	-0.0637	0.7492	0.0567
5.47	-9.6485	-0.0447	-1.2793	-0.0147	-0.0143	0.0085	33.5473	-1.3738	9.9463	0.6568	-0.0637	0.7493	0.0567
5.48	-9.6494	-0.0516	-1.2800	-0.0158	-0.0163	0.0069	33.4631	-1.4809	9.9844	0.6568	-0.0637	0.7492	0.0567
5.49	-9.6483	-0.0355	-1.2879	-0.0161	-0.0081	0.0007	33.2229	-1.7051	9.8374	0.6567	-0.0637	0.7493	0.0567
5.5	-9.6457	-0.0303	-1.2764	-0.0143	-0.0133	0.0044	33.2623	-1.5441	9.9270	0.6567	-0.0637	0.7493	0.0567
5.51	-9.6494	-0.0101	-1.2763	-0.0118	-0.0115	0.0027	33.3977	-1.2914	9.7466	0.6567	-0.0637	0.7492	0.0567
5.52	-9.6485	-0.0123	-1.2901	-0.0152	-0.0141	0.0040	33.2858	-1.3196	9.9375	0.6567	-0.0637	0.7493	0.0567
5.53	-9.6441	-0.0013	-1.2892	-0.0141	-0.0162	0.0070	33.3026	-1.4371	10.0585	0.6567	-0.0637	0.7493	0.0567
5.54	-9.6500	-0.0010	-1.2882	-0.0051	-0.0062	0.0021	33.2991	-1.3115	9.8593	0.6567	-0.0637	0.7494	0.0566
5.55	-9.6476	-0.0023	-1.2861	-0.0069	-0.0130	0.0061	33.3683	-1.3007	9.8672	0.6566	-0.0637	0.7493	0.0566
5.56	-9.6499	-0.0070	-1.2836	-0.0124	-0.0141	0.0116	33.5238	-1.6439	10.0278	0.6567	-0.0637	0.7494	0.0566
5.57	-9.6431	-0.0024	-1.2887	-0.0109	-0.0155	0.0077	33.6760	-1.6167	9.8606	0.6567	-0.0637	0.7494	0.0566
5.58	-9.6491	-0.0076	-1.2957	-0.0060	-0.0156	0.0043	33.4945	-1.6633	9.7603	0.6566	-0.0636	0.7493	0.0566
5.59	-9.6432	-0.0043	-1.2841	-0.0062	-0.0123	0.0082	33.2340	-1.5140	9.9139	0.6567	-0.0636	0.7494	0.0565
5.6	-9.6492	0.0015	-1.2841	-0.0166	-0.0199	0.0089	33.6704	-1.6249	9.8638	0.6567	-0.0636	0.7494	0.0565
5.61	-9.6576	-0.0038	-1.2927	-0.0109	-0.0176	0.0113	33.6053	-1.5492	9.9207	0.6567	-0.0636	0.7494	0.0566
5.62	-9.6491	0.0113	-1.2876	-0.0039	-0.0101	0.0056	33.4522	-1.2534	9.7535	0.6566	-0.0636	0.7493	0.0565
5.63	-9.6453	0.0235	-1.2803	-0.0124	-0.0176	0.0078	33.4285	-1.6627	9.9511	0.6567	-0.0636	0.7494	0.0565
5.64	-9.6460	0.0209	-1.2861	-0.0125	-0.0145	0.0091	33.2823	-1.7506	9.7707	0.6566	-0.0635	0.7494	0.0565
5.65	-9.6538	0.0258	-1.2743	-0.0031	-0.0150	0.0105	33.5098	-1.6560	9.9755	0.6566	-0.0635	0.7494	0.0565
5.66	-9.6521	0.0261	-1.2801	-0.0015	-0.0109	0.0097	33.3453	-1.4508	9.8542	0.6566	-0.0634	0.7494	0.0564
5.67	-9.6481	0.0200	-1.2846	-0.0140	-0.0062	0.0032	33.4185	-1.4805	9.8115	0.6566	-0.0635	0.7494	0.0564
5.68	-9.6491	0.0212	-1.2816	-0.0116	-0.0139	0.0025	33.3097	-1.4740	10.0995	0.6566	-0.0635	0.7495	0.0564
5.69	-9.6457	0.0229	-1.2950	-0.0074	-0.0132	0.0056	33.2869	-1.4816	9.9558	0.6565	-0.0634	0.7494	0.0564
5.7	-9.6368	0.0138	-1.2810	-0.0083	-0.0146	0.0057	33.4087	-1.3720	9.8493	0.6566	-0.0634	0.7495	0.0563
5.71	-9.6483	0.0169	-1.2793	-0.0076	-0.0122	0.0059	33.3629	-1.4029	9.9286	0.6566	-0.0634	0.7495	0.0563
5.72	-9.6448	0.0040	-1.2684	-0.0108	-0.0135	-0.0018	33.4068	-1.3811	9.9789	0.6566	-0.0634	0.7495	0.0563
5.73	-9.6429	0.0057	-1.2799	-0.0143	-0.0166	0.0019	33.2682	-1.4137	9.9610	0.6565	-0.0635	0.7495	0.0563
5.74	-9.6487	0.0114	-1.2785	-0.0089	-0.0128	0.0046	33.3500	-1.2381	9.8258	0.6565	-0.0635	0.7495	0.0562
5.75	-9.6602	0.0098	-1.2848	-0.0062	-0.0141	0.0044	33.7432	-1.2807	9.9714	0.6566	-0.0634	0.7495	0.0562
5.76	-9.6484	0.0133	-1.2786	0.0004	-0.0084	0.0058	33.8867	-1.5973	9.8935	0.6565	-0.0634	0.7495	0.0561
5.77	-9.6509	0.0138	-1.2743	-0.0086	-0.0156	0.0085	33.6910	-1.3864	9.9340	0.6566	-0.0634	0.7496	0.0561
5.78	-9.6498	0.0189	-1.2826	-0.0065	-0.0163	0.0076	33.6569	-1.5625	9.8541	0.6565	-0.0633	0.7495	0.0561
5.79	-9.6492	0.0231	-1.2795	-0.0102	-0.0146	0.0066	33.4250	-1.7863	9.8799	0.6566	-0.0633	0.7496	0.0561
5.8	-9.6480	0.0262	-1.2748	-0.0023	-0.0201	0.0043	33.3817	-1.4928	9.9174	0.6565	-0.0633	0.7495	0.0560
5.81	-9.6499	0.0262	-1.2809	-0.0065	-0.0137	0.0064	33.4678	-1.5842	9.8888	0.6565	-0.0633	0.7496	0.0560
5.82	-9.6475	0.0142	-1.2833	-0.0142	-0.0116	0.0029	33.3008	-1.4437	9.7238	0.6565	-0.0633	0.7496	0.0560
5.83	-9.6420	0.0135	-1.2713	-0.0080	-0.0107	0.0094	33.3385	-1.2719	9.7748	0.6565	-0.0633	0.7495	0.0560
5.84	-9.6495	0.0083	-1.2713	-0.0030	-0.0104	0.0117	33.5234	-1.3836	9.9361	0.6565	-0.0632	0.7497	0.0559
5.85	-9.6378	-0.0009	-1.2762	-0.0101	-0.0129	0.0074	33.5914	-1.5250	10.0036	0.6565	-0.0632	0.7496	0.0559
5.86	-9.6353	0.0091	-1.2813	-0.0134	-0.0136	0.0078	33.3332	-1.7042	9.9847	0.6565	-0.0632	0.7497	0.0559
5.87	-9.6463	-0.0015	-1.2737	-0.0147	-0.0135	0.0043	33.4723	-1.3360	9.9907	0.6564	-0.0632	0.7496	0.0559
5.88	-9.6480	-0.0024	-1.2684	-0.0129	-0.0173	0.0065	33.3431	-1.4030	9.9713	0.6565	-0.0632	0.7496	0.0559
5.89	-9.6493	-0.0038	-1.2795	-0.0089	-0.0144	0.0055	33.4133	-1.4853	9.8346	0.6564	-0.0632	0.7496	0.0559
5.9	-9.6466	0.0002	-1.2778	-0.0114	-0.0126	0.0095	33.5587	-1.4272	9.7862	0.6564	-0.0632	0.7496	0.0559
5.91	-9.6498	-0.0009	-1.2866	-0.0103	-0.0072	0.0062	33.4301	-1.4969	9.9318	0.6564	-0.0632	0.7497	0.0559
5.92	-9.6479	-0.0032	-1.2727	-0.0131	-0.0147	0.0055	33.4947	-1.2619	9.9865	0.6564	-0.0632	0.7497	0.0559
5.93	-9.6483	0.0055	-1.2721	-0.0075	-0.0201	0.0119	33.5217	-1.4294	10.0038	0.6564	-0.0631	0.7497	0.0559
5.94	-9.6432	-0.0088	-1.2771	-0.0048	-0.0174	0.0076	33.3189	-1.4440	9.8866	0.6564	-0.0631	0.7496	0.0558
5.95	-9.6583	-0.0027	-1.2787	-0.0104	-0.0190	0.0122	33.6339	-1.6095	9.9240	0.6565	-0.0631	0.7497	0.0558
5.96	-9.6490	0.0068	-1.2841	-0.0035	-0.0167	0.0092	33.3909	-1.6677	9.8564	0.6564	-0.0630	0.7497	0.0558
5.97	-9.6403	0.0079	-1.2856	-0.0068	-0.0135	0.0116	33.4948	-1.4221	9.7948	0.6565	-0.0630	0.7497	0.0558
5.98	-9.6556	0.0167	-1.2900	-0.0118	-0.0112	0.0059	33.6445	-1.4590	9.8223	0.6564	-0.0630	0.7497	0.0558
5.99	-9.6308	0.0300	-1.2845	-0.0117	-0.0160	0.0053	33.5059	-1.3650	9.8147	0.6564	-0.0630	0.7497	0.0558
6	-9.6435	0.0211	-1.2860	-0.0110	-0.0168	0.0102	33.3508	-1.6975	9.9927	0.6564	-0.0630	0.7497	0.0558
6.01	-9.6546	0.0235	-1.2999	-0.0013	-0.0179	0.0092	33.2472	-1.4340	9.9775	0.6564	-0.0629	0.7496	0.0557
6.02	-9.6478	0.0219	-1.2894	-0.0035	-0.0151	0.0044	33.4262	-1.4821	9.9947	0.6565	-0.0629	0.7497	0.0557
6.03	-9.6495	0.0118	-1.2886	-0.0050	-0.0147	0.0113	33.5887	-1.6884	9.9753	0.6564	-0.0628	0.7497	0.0556
6.04	-9.6476	0.0170	-1.2949	-0.0107	-0.0107	0.0069	33.4184	-1.4862	9.7982	0.6565	-0.0628	0.7498	0.0556
6.05	-9.6477	0.0074	-1.2917	-0.0084	-0.0098	0.0016	33.2633	-1.3522	9.8862	0.6564	-0.0628	0.7497	0.0556
6.06	-9.6474	0.0153	-1.2887	-0.0097	-0.0039	0.0077	33.3215	-1.4095	10.1501	0.6564	-0.0628	0.7498	0.0556
6.07	-9.6495	0.0265	-1.2791	-0.0036	-0.0102	0.0040	33.3904	-1.4780	10.1251	0.6563	-0.0628	0.7498	0.0555
6.08	-9.6515	0.0195	-1.2849	-0.0042	-0.0066	0.0068	33.3507	-1.4544	9.9742	0.6563	-0.0628	0.7498	0.0555
6.09	-9.6495	0.0204	-1.2813	-0.0136	-0.0117	0.0067	33.4864	-1.3685	9.9831	0.6563	-0.0628	0.7499	0.0555
6.1	-9.6368	0.0170	-1.2747	-0.0110	-0.0157	0.0021	33.4166	-1.5103	10.1375	0.6563	-0.0628	0.7498	0.0555
6.11	-9.6446	0.0077	-1.2765	-0.0115	-0.0148	0.0067	33.5371	-1.5599	9.9301	0.6563	-0.0628	0.7499	0.0555
6.12	-9.6447	0.0146	-1.2731	-0.0039	-0.0150	0.0066	33.5229	-1.5107	9.8838	0.6562	-0.0627	0.7498	0.0554
6.13	-9.6490	0.0050	-1.2717	-0.0074	-0.0183	0.0105	33.5673	-1.5804	10.0262	0.6563	-0.0627	0.7499	0.0554
6.14	-9.6507	0.0127	-1.2695	-0.0054	-0.0139	0.0131	33.6034	-1.6045	9.9596	0.6563	-0.0626	0.7498	0.0554
6.15	-9.6528	0.0171	-1.2772	-0.0078	-0.0128	0.0075	33.4411	-1.7161	9.7848	0.6563	-0.0626	0.7498	0.0554
6.16	-9.6393	0.0012	-1.2715	-0.0078	-0.0091	0.0057	33.5400	-1.5884	10.0371	0.6563	-0.0626	0.7499	0.0553
6.17	-9.6483	-0.0067	-1.2675	-0.0073	-0.0122	0.0082	33.5521	-1.6789	10.0702	0.6563	-0.0626	0.7499	0.0553
6.18	-9.6418	-0.0026	-1.2741	-0.0079	-0.0109	0.0051	33.4632	-1.4525	9.9208	0.6563	-0.0626	0.7499	0.0553
6.19	-9.6428	0.0038	-1.2840	-0.0109	-0.0081	0.0065	33.5317	-1.6282	9.7959	0.6562	-0.0626	0.7499	0.0553
6.2	-9.6549	0.0090	-1.2842	-0.0055	-0.0142	0.0053	33.5366	-1.5840	9.9579	0.6562	-0.0626	0.7500	0.0553
6.21	-9.6417	-0.0070	-1.2669	-0.0124	-0.0199	0.0091	33.2606	-1.2912	9.9492	0.6562	-0.0626	0.7499	0.0553
6.22	-9.6586	0.0014	-1.2833	-0.0092	-0.0154	0.0137	33.3741	-1.4782	9.8608	0.6563	-0.0625	0.7499	0.0553
6.23	-9.6454	0.0104	-1.2743	-0.0025	-0.0100	0.0042	33.4523	-1.4569	10.0067	0.6562	-0.0625	0.7499	0.0552
6.24	-9.6311	-0.0007	-1.2786	-0.0088	-0.0041	0.0041	33.3598	-1.4392	10.1043	0.6562	-0.0625	0.7500	0.0552
6.25	-9.6516	0.0047	-1.2936	-0.0115	-0.0064	0.0052	33.7244	-1.3343	10.2154	0.6562	-0.0625	0.7500	0.0552
6.26	-9.6449	0.0067	-1.2779	-0.0125	-0.0068	0.0001	33.8712	-1.4525	10.3787	0.6561	-0.0625	0.7500	0.0552
6.27	-9.6474	0.0084	-1.2877	-0.0130	-0.0071	0.0055	33.6022	-1.4170	10.0332	0.6561	-0.0625	0.7501	0.0552
6.28	-9.6478	0.0177	-1.2831	-0.0160	-0.0129	0.0015	33.2214	-1.2847	9.6781	0.6561	-0.0625	0.7501	0.0551
6.29	-9.6431	0.0156	-1.2867	-0.0102	-0.0100	0.0013	33.2604	-1.3880	9.8485	0.6561	-0.0626	0.7501	0.0551
6.3	-9.6420	0.0100	-1.2848	-0.0176	-0.0124	0.0049	33.3015	-1.4868	10.1176	0.6560	-0.0626	0.7500	0.0551
6.31	-9.6399	0.0114	-1.2706	-0.0189	-0.0125	0.0121	33.3662	-1.4013	9.6728	0.6561	-0.0626	0.7501	0.0551
6.32	-9.6464	0.0094	-1.2735	-0.0112	-0.0138	0.0113	33.6895	-1.6786	9.8602	0.6561	-0.0625	0.7501	0.0552
6.33	-9.6539	0.0069	-1.2726	-0.0139	-0.0176	0.0081	33.5362	-1.5558	9.9254	0.6560	-0.0625	0.7500	0.0552
6.34	-9.6503	-0.0034	-1.2725	-0.0095	-0.0124	0.0051	33.5671	-1.5558	9.8980	0.6561	-0.0625	0.7502	0.0551
6.35	-9.6490	-0.0100	-1.2778	-0.0102	-0.0137	0.0063	33.5386	-1.4481	9.8978	0.6560	-0.0625	0.7501	0.0551
6.36	-9.6463	-0.0029	-1.2730	-0.0051	-0.0137	0.0112	33.3810	-1.7403	9.9209	0.6561	-0.0625	0.7501	0.0551
6.37	-9.6504	0.0092	-1.2811	-0.0109	-0.0104	0.0033	33.4760	-1.6486	9.8703	0.6560	-0.0625	0.7501	0.0551
6.38	-9.6491	0.0032	-1.2868	-0.0144	-0.0085	0.0080	33.5694	-1.4289	10.0779	0.6560	-0.0625	0.7502	0.0551
6.39	-9.6517	-0.0077	-1.2816	-0.0105	-0.0100	0.0100	33.5386	-1.6845	9.8058	0.6560	-0.0625	0.7502	0.0551
6.4	-9.6438	0.0105	-1.2940	-0.0165	-0.0114	0.0072	33.3184	-1.4925	9.7423	0.6560	-0.0625	0.7502	0.0551
6.41	-9.6410	-0.0014	-1.2752	-0.0138	-0.0103	0.0042	33.3036	-1.4775	10.1221	0.6560	-0.0625	0.7502	0.0551
6.42	-9.6548	0.0169	-1.3070	-0.0138	-0.0041	0.0077	33.4342	-1.3577	9.8112	0.6559	-0.0625	0.7502	0.0551
6.43	-9.6416	0.0177	-1.2843	-0.0164	-0.0109	0.0034	33.3330	-1.4835	9.9889	0.6559	-0.0625	0.7503	0.0551
6.44	-9.6636	0.0193	-1.2893	-0.0159	-0.0063	0.0030	33.2210	-1.4138	9.9864	0.6558	-0.0625	0.7502	0.0551
6.45	-9.6587	0.0216	-1.2923	-0.0190	-0.0110	0.0045	33.3267	-1.2908	9.9582	0.6559	-0.0625	0.7503	0.0551
6.46	-9.6449	0.0301	-1.2733	-0.0151	-0.0024	0.0057	33.3021	-1.4940	10.0457	0.6558	-0.0625	0.7503	0.0551
6.47	-9.6497	0.0224	-1.2870	-0.0067	-0.0112	0.0076	33.3272	-1.4193	10.0302	0.6558	-0.0625	0.7503	0.0551
6.48	-9.6346	0.0195	-1.2789	-0.0071	-0.0105	0.0048	33.1448	-1.3827	9.8493	0.6558	-0.0625	0.7503	0.0550
6.49	-9.6636	0.0261	-1.2959	-0.0028	-0.0097	0.0071	33.1352	-1.4406	10.0543	0.6558	-0.0625	0.7503	0.0550
6.5	-9.6426	0.0174	-1.2816	-0.0057	-0.0132	0.0126	33.3886	-1.7027	10.0693	0.6558	-0.0624	0.7504	0.0550
6.51	-9.6474	0.0209	-1.2894	-0.0066	-0.0158	0.0102	33.6523	-1.7636	10.1222	0.6557	-0.0624	0.7503	0.0550
6.52	-9.6576	0.0184	-1.2935	-0.0066	-0.0180	0.0051	33.5415	-1.4861	9.8226	0.6558	-0.0624	0.7504	0.0549
6.53	-9.6481	0.0267	-1.2864	-0.0079	-0.0145	0.0120	33.6843	-1.3771	9.8840	0.6558	-0.0623	0.7503	0.0549
6.54	-9.6457	0.0201	-1.2884	-0.0122	-0.0144	0.0059	33.5464	-1.3837	10.0588	0.6559	-0.0623	0.7504	0.0549
6.55	-9.6432	0.0103	-1.2748	-0.0131	-0.0185	0.0028	33.5669	-1.4927	9.7770	0.6558	-0.0623	0.7503	0.0549
6.56	-9.6644	0.0123	-1.2917	-0.0125	-0.0162	0.0071	33.4332	-1.5619	9.7160	0.6558	-0.0623	0.7503	0.0549
6.57	-9.6453	-0.0021	-1.2781	-0.0113	-0.0114	0.0067	33.3920	-1.5988	9.7568	0.6558	-0.0623	0.7503	0.0549
6.58	-9.6492	-0.0059	-1.2798	-0.0067	-0.0177	0.0041	33.3830	-1.3954	9.9285	0.6558	-0.0623	0.7503	0.0549
6.59	-9.6474	0.0016	-1.2804	-0.0118	-0.0172	0.0080	33.5001	-1.4156	9.7681	0.6559	-0.0623	0.7504	0.0549
6.6	-9.6527	-0.0032	-1.2857	-0.0145	-0.0168	0.0023	33.5716	-1.3267	9.8802	0.6559	-0.0623	0.7503	0.0548
6.61	-9.6392	0.0008	-1.2792	-0.0110	-0.0199	0.0072	33.3146	-1.1921	10.0787	0.6559	-0.0623	0.7503	0.0548
6.62	-9.6371	0.0016	-1.2854	-0.0156	-0.0191	0.0020	33.3055	-1.2585	10.0598	0.6559	-0.0623	0.7502	0.0548
6.63	-9.6549	0.0045	-1.2867	-0.0187	-0.0148	0.0007	33.2019	-1.3287	10.0632	0.6559	-0.0623	0.7503	0.0548
6.64	-9.6551	0.0161	-1.2814	-0.0164	-0.0192	0.0054	33.4220	-1.3060	10.0819	0.6559	-0.0623	0.7502	0.0548
6.65	-9.6486	0.0093	-1.2809	-0.0119	-0.0106	-0.0013	33.2304	-1.3778	10.0010	0.6559	-0.0624	0.7502	0.0548
6.66	-9.6576	0.0126	-1.2818	-0.0147	-0.0146	0.0018	33.3242	-1.5128	9.8719	0.6559	-0.0624	0.7503	0.0548
6.67	-9.6500	0.0095	-1.2818	-0.0090	-0.0178	0.0015	33.2900	-1.4533	10.0503	0.6559	-0.0624	0.7502	0.0548
6.68	-9.6411	0.0082	-1.2791	-0.0129	-0.0183	0.0099	33.3819	-1.5522	9.8515	0.6560	-0.0624	0.7502	0.0548
6.69	-9.6427	0.0129	-1.2809	-0.0098	-0.0185	0.0112	33.3876	-1.5637	9.7736	0.6559	-0.0623	0.7501	0.0548
6.7	-9.6514	0.0016	-1.2780	-0.0057	-0.0171	0.0110	33.5137	-1.5728	10.0697	0.6560	-0.0623	0.7502	0.0548
6.71	-9.6349	0.0108	-1.2819	-0.0094	-0.0094	0.0068	33.6829	-1.6636	9.8999	0.6560	-0.0623	0.7502	0.0547
6.72	-9.6454	0.0123	-1.2883	-0.0143	-0.0173	0.0069	33.5644	-1.3670	9.9833	0.6560	-0.0623	0.7502	0.0547
6.73	-9.6512	0.0177	-1.2787	-0.0127	-0.0201	0.0062	33.4459	-1.5042	9.9764	0.6560	-0.0623	0.7502	0.0547
6.74	-9.6439	0.0214	-1.2809	-0.0115	-0.0141	0.0071	33.5192	-1.5624	9.9119	0.6560	-0.0623	0.7502	0.0547
6.75	-9.6477	0.0121	-1.2774	-0.0078	-0.0159	0.0045	33.9063	-1.3921	10.2225	0.6561	-0.0622	0.7502	0.0547
6.76	-9.6525	0.0055	-1.2788	-0.0092	-0.0146	0.0092	34.0633	-1.3672	10.0563	0.6560	-0.0622	0.7501	0.0547
6.77	-9.6561	0.0072	-1.2810	-0.0094	-0.0195	0.0065	33.7501	-1.5332	10.1323	0.6561	-0.0622	0.7502	0.0547
6.78	-9.6422	0.0028	-1.2845	-0.0051	-0.0115	0.0072	33.6062	-1.4437	10.0981	0.6561	-0.0622	0.7501	0.0547
6.79	-9.6512	0.0109	-1.2903	-0.0077	-0.0130	0.0037	33.2341	-1.4698	9.8108	0.6561	-0.0622	0.7502	0.0546
6.8	-9.6414	0.0148	-1.2784	-0.0137	-0.0161	0.0048	33.3717	-1.3584	10.0926	0.6560	-0.0621	0.7501	0.0546
6.81	-9.6457	0.0019	-1.2822	-0.0074	-0.0108	0.0072	33.5697	-1.3864	9.8708	0.6561	-0.0621	0.7502	0.0546
6.82	-9.6483	0.0044	-1.2818	-0.0033	-0.0152	0.0041	33.5087	-1.4715	9.7841	0.6561	-0.0621	0.7502	0.0546
6.83	-9.6487	0.0123	-1.2908	-0.0054	-0.0174	0.0054	33.5367	-1.4341	10.0054	0.6561	-0.0621	0.7501	0.0545
6.84	-9.6389	0.0148	-1.2844	-0.0156	-0.0172	0.0008	33.5196	-1.4615	9.9209	0.6562	-0.0621	0.7502	0.0545
6.85	-9.6388	0.0158	-1.2789	-0.0089	-0.0190	0.0074	33.4032	-1.1682	9.8809	0.6561	-0.0621	0.7501	0.0545
6.86	-9.6517	0.0065	-1.2811	-0.0087	-0.0220	0.0080	33.3302	-1.3244	10.0302	0.6562	-0.0621	0.7501	0.0545
6.87	-9.6398	0.0149	-1.2763	-0.0069	-0.0201	0.0052	33.4592	-1.4685	10.0803	0.6562	-0.0620	0.7500	0.0545
6.88	-9.6481	0.0097	-1.2791	-0.0118	-0.0185	0.0092	33.5273	-1.5469	9.8800	0.6562	-0.0620	0.7501	0.0545
6.89	-9.6474	0.0132	-1.2875	-0.0101	-0.0142	0.0059	33.5558	-1.6580	9.8038	0.6562	-0.0620	0.7500	0.0545
6.9	-9.6543	0.0085	-1.2803	-0.0016	-0.0193	0.0119	33.4299	-1.5154	9.9344	0.6562	-0.0619	0.7500	0.0544
6.91	-9.6461	0.0015	-1.2809	-0.0126	-0.0169	0.0101	33.5686	-1.5520	9.6439	0.6563	-0.0619	0.7500	0.0544
6.92	-9.6422	0.0160	-1.2777	-0.0084	-0.0139	0.0065	33.4667	-1.4838	9.8918	0.6563	-0.0619	0.7500	0.0544
6.93	-9.6471	0.0050	-1.2808	0.0002	-0.0182	0.0068	33.5054	-1.4554	9.9973	0.6563	-0.0619	0.7500	0.0544
6.94	-9.6298	-0.0053	-1.2676	-0.0150	-0.0121	0.0061	33.4554	-1.3584	9.9169	0.6562	-0.0618	0.7499	0.0544
6.95	-9.6424	0.0031	-1.2792	-0.0099	-0.0141	0.0070	33.4414	-1.3901	10.1195	0.6563	-0.0618	0.7500	0.0544
6.96	-9.6525	-0.0041	-1.2840	-0.0092	-0.0156	0.0064	33.7160	-1.7406	9.9328	0.6563	-0.0618	0.7500	0.0543
6.97	-9.6373	0.0053	-1.2776	-0.0082	-0.0164	0.0099	33.6292	-1.3465	9.8831	0.6563	-0.0618	0.7500	0.0543
6.98	-9.6474	0.0036	-1.3051	-0.0047	-0.0084	0.0053	33.4308	-1.3840	9.7465	0.6563	-0.0618	0.7500	0.0543
6.99	-9.6517	0.0098	-1.3010	-0.0108	-0.0038	0.0029	33.4620	-1.4469	9.7457	0.6563	-0.0618	0.7500	0.0543
7	-9.6453	0.0281	-1.2989	-0.0059	-0.0100	0.0038	33.6026	-1.6845	10.1230	0.6563	-0.0617	0.7500	0.0542
7.01	-9.6515	0.0250	-1.3014	-0.0039	-0.0073	0.0053	33.6089	-1.6112	9.9460	0.6562	-0.0617	0.7500	0.0542
7.02	-9.6459	0.0098	-1.2899	-0.0070	-0.0101	0.0103	33.4272	-1.6394	9.9724	0.6563	-0.0617	0.7501	0.0542
7.03	-9.6858	0.0187	-1.3373	-0.0077	-0.0089	0.0001	33.7091	-1.5255	9.9740	0.6562	-0.0617	0.7501	0.0541
7.04	-9.5715	0.0126	-1.2516	-0.0110	-0.0084	0.0018	33.3898	-1.4239	9.9097	0.6563	-0.0617	0.7502	0.0541
7.05	-9.6630	-0.0120	-1.2874	-0.0065	-0.0134	0.0066	33.3495	-1.4414	9.7499	0.6562	-0.0617	0.7501	0.0541
7.06	-9.7021	0.0020	-1.3224	-0.0078	-0.0156	0.0133	33.3891	-1.7212	9.9402	0.6562	-0.0616	0.7501	0.0541
7.07	-9.5788	-0.0049	-1.2197	-0.0104	-0.0173	0.0089	33.5051	-1.7255	9.7857	0.6562	-0.0616	0.7501	0.0541
7.08	-9.6908	0.0026	-1.3129	-0.0093	-0.0136	0.0075	33.6032	-1.4771	9.8767	0.6562	-0.0616	0.7500	0.0541
7.09	-9.6295	0.0229	-1.2625	-0.0036	-0.0197	0.0130	33.6248	-1.5643	9.8694	0.6563	-0.0615	0.7501	0.0541
7.1	-9.6464	0.0239	-1.2595	-0.0032	-0.0183	0.0068	33.4581	-1.6169	9.7815	0.6563	-0.0615	0.7500	0.0540
7.11	-9.6419	0.0444	-1.2742	-0.0042	-0.0107	0.0077	33.4624	-1.3885	9.9773	0.6563	-0.0614	0.7501	0.0540
7.12	-9.6496	0.0498	-1.2690	-0.0089	-0.0092	0.0041	33.4061	-1.3475	9.9427	0.6562	-0.0614	0.7500	0.0540
7.13	-9.6548	0.0563	-1.2783	-0.0103	-0.0138	0.0093	33.5181	-1.3892	9.9730	0.6563	-0.0614	0.7501	0.0540
7.14	-9.6200	0.0422	-1.2643	-0.0079	-0.0193	0.0079	33.4273	-1.4913	9.7699	0.6563	-0.0614	0.7500	0.0540
7.15	-9.6550	0.0211	-1.2777	-0.0089	-0.0166	0.0112	33.4010	-1.6310	9.8694	0.6563	-0.0613	0.7500	0.0540
7.16	-9.6443	0.0160	-1.2839	-0.0147	-0.0110	0.0104	33.6327	-1.5127	9.9633	0.6563	-0.0613	0.7501	0.0540
7.17	-9.6540	-0.0046	-1.2886	-0.0142	-0.0098	0.0039	33.3872	-1.3040	9.9953	0.6563	-0.0613	0.7500	0.0540
7.18	-9.6491	-0.0090	-1.2908	-0.0174	-0.0123	0.0062	33.4659	-1.4582	10.0312	0.6563	-0.0613	0.7501	0.0540
7.19	-9.6557	-0.0080	-1.2916	-0.0080	-0.0121	0.0063	33.4490	-1.4312	9.8219	0.6563	-0.0613	0.7500	0.0540
7.2	-9.6535	-0.0145	-1.2942	-0.0021	-0.0107	0.0062	33.3212	-1.4871	10.1276	0.6563	-0.0613	0.7501	0.0539
7.21	-9.6424	-0.0046	-1.2946	-0.0080	-0.0150	0.0067	33.4560	-1.5180	9.9498	0.6563	-0.0613	0.7501	0.0539
7.22	-9.6458	-0.0030	-1.3031	-0.0073	-0.0104	0.0017	33.5548	-1.3592	10.0450	0.6563	-0.0612	0.7501	0.0539
7.23	-9.6566	0.0118	-1.2954	-0.0116	-0.0100	0.0056	33.5091	-1.3596	10.0394	0.6563	-0.0612	0.7501	0.0538
7.24	-9.6463	0.0155	-1.2861	-0.0126	-0.0105	0.0073	33.4179	-1.2758	9.8241	0.6563	-0.0612	0.7501	0.0538
7.25	-9.6589	0.0101	-1.2935	-0.0071	-0.0138	0.0087	33.6976	-1.4487	10.1099	0.6563	-0.0612	0.7501	0.0538
7.26	-9.6636	0.0105	-1.2793	-0.0095	-0.0118	0.0104	33.8667	-1.4319	10.1956	0.6562	-0.0612	0.7500	0.0538
7.27	-9.6427	0.0023	-1.2802	-0.0117	-0.0173	0.0042	33.7127	-1.5827	9.8301	0.6563	-0.0612	0.7501	0.0538
7.28	-9.6366	-0.0089	-1.2816	-0.0146	-0.0193	0.0057	33.4744	-1.4727	9.7916	0.6563	-0.0612	0.7501	0.0538
7.29	-9.6546	-0.0028	-1.2751	-0.0186	-0.0113	0.0086	33.3996	-1.4776	10.0762	0.6564	-0.0612	0.7501	0.0539
7.3	-9.6503	-0.0053	-1.2835	-0.0140	-0.0093	0.0052	33.5086	-1.4821	9.8017	0.6563	-0.0612	0.7500	0.0538
7.31	-9.6451	-0.0087	-1.2787	-0.0129	-0.0133	0.0066	33.3696	-1.5730	9.8488	0.6563	-0.0612	0.7501	0.0538
7.32	-9.6458	0.0007	-1.2765	-0.0104	-0.0115	0.0069	33.5936	-1.5511	9.8335	0.6563	-0.0612	0.7501	0.0538
7.33	-9.6461	0.0055	-1.2734	-0.0104	-0.0136	0.0073	33.4674	-1.5544	9.8474	0.6563	-0.0611	0.7500	0.0538
7.34	-9.6502	0.0106	-1.2823	-0.0138	-0.0143	0.0092	33.5109	-1.5654	9.7344	0.6564	-0.0611	0.7501	0.0538
7.35	-9.6433	0.0217	-1.2688	-0.0146	-0.0110	0.0063	33.4212	-1.5279	9.9021	0.6563	-0.0611	0.7501	0.0538
7.36	-9.6463	0.0297	-1.2756	-0.0116	-0.0120	0.0024	33.2466	-1.2123	9.9200	0.6563	-0.0611	0.7501	0.0538
7.37	-9.6582	0.0320	-1.2735	-0.0196	-0.0099	0.0037	33.5153	-1.3186	9.9106	0.6562	-0.0612	0.7500	0.0538
7.38	-9.6381	0.0229	-1.2771	-0.0195	-0.0167	0.0032	33.5474	-1.2959	9.9294	0.6563	-0.0612	0.7501	0.0539
7.39	-9.6469	0.0216	-1.2737	-0.0105	-0.0037	-0.0010	33.4294	-1.1848	10.0595	0.6563	-0.0612	0.7501	0.0538
7.4	-9.6531	0.0056	-1.2888	-0.0178	-0.0116	-0.0008	33.3105	-1.3238	9.8398	0.6563	-0.0612	0.7501	0.0538
7.41	-9.6500	0.0036	-1.2795	-0.0133	-0.0037	0.0025	33.3413	-1.2971	9.7207	0.6563	-0.0613	0.7502	0.0538
7.42	-9.6429	-0.0082	-1.2711	-0.0117	-0.0087	0.0013	33.2823	-1.4680	9.8921	0.6562	-0.0613	0.7501	0.0538
7.43	-9.6564	-0.0107	-1.2858	-0.0114	-0.0142	0.0074	33.4336	-1.4474	10.1466	0.6563	-0.0613	0.7502	0.0538
7.44	-9.6639	-0.0146	-1.2837	-0.0155	-0.0077	0.0056	33.4998	-1.6500	9.9065	0.6562	-0.0613	0.7501	0.0538
7.45	-9.6551	-0.0117	-1.2795	-0.0131	-0.0126	0.0086	33.4739	-1.6225	9.8548	0.6562	-0.0613	0.7502	0.0538
7.46	-9.6556	0.0096	-1.2776	-0.0007	-0.0124	0.0099	33.4817	-1.5377	9.7631	0.6562	-0.0612	0.7502	0.0537
7.47	-9.6625	0.0173	-1.2845	-0.0054	-0.0149	0.0114	33.5299	-1.5514	9.8654	0.6562	-0.0611	0.7502	0.0537
7.48	-9.6415	0.0180	-1.2787	-0.0160	-0.0218	0.0055	33.6668	-1.6531	10.0654	0.6562	-0.0611	0.7501	0.0537
7.49	-9.6418	0.0321	-1.2883	-0.0067	-0.0157	0.0087	33.6072	-1.4889	9.9799	0.6563	-0.0611	0.7501	0.0537
7.5	-9.6476	0.0228	-1.2821	-0.0092	-0.0159	0.0088	33.5110	-1.5156	10.0517	0.6563	-0.0611	0.7501	0.0537
7.51	-9.6367	0.0177	-1.2783	-0.0037	-0.0127	0.0040	33.3748	-1.5902	9.9014	0.6562	-0.0611	0.7501	0.0537
7.52	-9.6408	0.0161	-1.2968	-0.0081	-0.0144	0.0093	33.5232	-1.4374	9.9536	0.6563	-0.0610	0.7502	0.0537
7.53	-9.6331	-0.0032	-1.2729	-0.0090	-0.0168	0.0067	33.4038	-1.3715	9.8521	0.6563	-0.0610	0.7501	0.0537
7.54	-9.6498	0.0004	-1.2925	-0.0107	-0.0077	0.0037	33.2611	-1.4534	9.8781	0.6563	-0.0610	0.7502	0.0536
7.55	-9.6607	-0.0038	-1.2917	-0.0097	-0.0100	0.0034	33.5160	-1.5785	10.0304	0.6562	-0.0610	0.7501	0.0536
7.56	-9.6510	-0.0142	-1.2761	-0.0034	-0.0091	0.0041	33.4413	-1.4310	10.0129	0.6563	-0.0610	0.7502	0.0536
7.57	-9.6531	-0.0078	-1.2893	-0.0032	-0.0164	0.0067	33.2107	-1.5364	9.9787	0.6563	-0.0609	0.7502	0.0535
7.58	-9.6335	-0.0119	-1.2720	-0.0078	-0.0127	0.0027	33.3111	-1.3061	10.1125	0.6562	-0.0609	0.7501	0.0535
7.59	-9.6550	0.0067	-1.3133	-0.0037	-0.0052	0.0014	33.4032	-1.2390	9.9525	0.6563	-0.0609	0.7502	0.0534
7.6	-9.6351	0.0198	-1.2891	0.0002	-0.0178	0.0053	33.2888	-1.3088	9.9577	0.6563	-0.0609	0.7502	0.0534
7.61	-9.6558	0.0384	-1.2956	-0.0021	-0.0153	0.0071	33.3376	-1.1780	9.9536	0.6563	-0.0608	0.7502	0.0534
7.62	-9.6450	0.0416	-1.2943	-0.0038	-0.0087	0.0006	33.2847	-1.4056	9.9089	0.6562	-0.0608	0.7501	0.0533
7.63	-9.6430	0.0427	-1.2767	-0.0121	-0.0097	0.0069	33.6746	-1.5090	9.6897	0.6563	-0.0608	0.7502	0.0533
7.64	-9.6611	0.0365	-1.2930	-0.0070	-0.0152	0.0115	33.5652	-1.5582	9.8758	0.6563	-0.0608	0.7502	0.0533
7.65	-9.6425	0.0319	-1.2754	-0.0124	-0.0142	0.0097	33.6305	-1.5790	9.8989	0.6563	-0.0607	0.7502	0.0533
7.66	-9.6469	0.0250	-1.2841	-0.0124	-0.0121	0.0061	33.6456	-1.3427	9.6936	0.6563	-0.0607	0.7502	0.0533
7.67	-9.6480	0.0191	-1.2730	-0.0133	-0.0126	0.0052	33.5367	-1.3362	9.9323	0.6563	-0.0607	0.7502	0.0533
7.68	-9.6513	0.0045	-1.2880	-0.0141	-0.0141	0.0063	33.3583	-1.5963	9.8553	0.6563	-0.0607	0.7502	0.0533
7.69	-9.6487	0.0041	-1.2733	-0.0096	-0.0157	0.0065	33.2953	-1.5240	9.8265	0.6562	-0.0607	0.7501	0.0533
7.7	-9.6487	0.0063	-1.2800	-0.0127	-0.0179	0.0040	33.4364	-1.7050	9.8368	0.6563	-0.0607	0.7502	0.0533
7.71	-9.6593	0.0079	-1.2979	-0.0011	-0.0137	0.0057	33.2287	-1.5341	9.8630	0.6563	-0.0607	0.7502	0.0532
7.72	-9.6385	0.0077	-1.2742	-0.0038	-0.0141	0.0064	33.2950	-1.4628	9.9700	0.6563	-0.0606	0.7502	0.0532
7.73	-9.6469	0.0193	-1.2884	-0.0120	-0.0104	0.0020	33.4285	-1.4758	9.7716	0.6563	-0.0606	0.7502	0.0532
7.74	-9.6492	0.0196	-1.2859	-0.0083	-0.0136	0.0032	33.2532	-1.3840	10.1694	0.6563	-0.0606	0.7502	0.0531
7.75	-9.6454	0.0186	-1.2796	-0.0088	-0.0149	-0.0003	33.6125	-1.3625	10.2620	0.6563	-0.0606	0.7502	0.0531
7.76	-9.6385	0.0145	-1.2781	-0.0140	-0.0077	0.0038	33.9159	-1.1944	10.0742	0.6562	-0.0607	0.7501	0.0531
7.77	-9.6527	0.0211	-1.2807	-0.0102	-0.0181	0.0024	33.6446	-1.2912	10.0988	0.6563	-0.0607	0.7502	0.0531
7.78	-9.6521	-0.0033	-1.2868	-0.0063	-0.0160	0.0044	33.4368	-1.2860	10.0018	0.6563	-0.0606	0.7502	0.0530
7.79	-9.6469	-0.0123	-1.2793	-0.0068	-0.0112	0.0059	33.1889	-1.2856	10.0576	0.6564	-0.0606	0.7502	0.0530
7.8	-9.6472	-0.0097	-1.2717	-0.0075	-0.0175	0.0071	33.3946	-1.3942	9.9161	0.6563	-0.0606	0.7501	0.0530
7.81	-9.6520	-0.0138	-1.2818	-0.0041	-0.0197	0.0124	33.4503	-1.4596	9.9640	0.6564	-0.0605	0.7502	0.0530
7.82	-9.6547	-0.0112	-1.2839	-0.0069	-0.0186	0.0115	33.6105	-1.2930	9.7289	0.6564	-0.0605	0.7501	0.0530
7.83	-9.6452	-0.0014	-1.2897	-0.0024	-0.0194	0.0110	33.5829	-1.3129	9.9369	0.6564	-0.0604	0.7501	0.0529
7.84	-9.6567	0.0133	-1.3048	0.0002	-0.0115	0.0051	33.6386	-1.7164	10.0519	0.6565	-0.0604	0.7502	0.0529
7.85	-9.6372	0.0243	-1.3045	-0.0099	-0.0141	0.0076	33.6577	-1.7392	9.7908	0.6564	-0.0604	0.7501	0.0529
7.86	-9.6456	0.0151	-1.2919	-0.0091	-0.0207	0.0057	33.6029	-1.5165	9.9706	0.6565	-0.0604	0.7501	0.0529
7.87	-9.6560	0.0188	-1.2971	-0.0077	-0.0172	0.0080	33.5207	-1.5383	9.8613	0.6564	-0.0603	0.7500	0.0528
7.88	-9.6481	0.0200	-1.2968	-0.0143	-0.0205	0.0073	33.3462	-1.4556	9.7313	0.6565	-0.0603	0.7501	0.0529
7.89	-9.6455	0.0129	-1.2883	-0.0106	-0.0140	0.0088	33.4933	-1.4111	9.8288	0.6565	-0.0603	0.7501	0.0529
7.9	-9.6511	0.0027	-1.2862	-0.0098	-0.0156	0.0070	33.3762	-1.3629	9.8735	0.6565	-0.0603	0.7500	0.0528
7.91	-9.6514	0.0066	-1.2872	-0.0054	-0.0179	0.0019	33.1708	-1.3703	9.7407	0.6565	-0.0603	0.7501	0.0528
7.92	-9.6443	0.0107	-1.2841	-0.0053	-0.0161	0.0028	33.3751	-1.6608	9.9200	0.6565	-0.0602	0.7500	0.0528
7.93	-9.6464	0.0130	-1.2884	-0.0095	-0.0177	0.0054	33.4659	-1.4687	9.9694	0.6566	-0.0602	0.7501	0.0528
7.94	-9.6423	0.0088	-1.2890	-0.0026	-0.0157	0.0073	33.4404	-1.6049	9.8548	0.6565	-0.0602	0.7500	0.0527
7.95	-9.6479	0.0199	-1.2846	-0.0056	-0.0132	0.0126	33.3395	-1.6291	9.8630	0.6566	-0.0601	0.7501	0.0527
7.96	-9.6379	0.0265	-1.2778	-0.0031	-0.0193	0.0063	33.4130	-1.4956	9.8431	0.6566	-0.0601	0.7500	0.0527
7.97	-9.6478	0.0256	-1.2805	-0.0058	-0.0135	0.0043	33.4705	-1.5780	9.6443	0.6566	-0.0601	0.7500	0.0526
7.98	-9.6474	0.0304	-1.2798	-0.0047	-0.0101	0.0036	33.3592	-1.4227	9.8977	0.6566	-0.0601	0.7500	0.0526
7.99	-9.6493	0.0223	-1.2811	-0.0055	-0.0159	0.0077	33.3414	-1.3845	9.7984	0.6566	-0.0600	0.7500	0.0526
8	-9.6571	0.0190	-1.2676	-0.0078	-0.0241	0.0115	33.2778	-1.5245	9.8036	0.6566	-0.0600	0.7500	0.0526
8.01	-9.6644	0.0172	-1.2830	-0.0001	-0.0155	0.0086	33.5674	-1.6175	9.8989	0.6566	-0.0599	0.7499	0.0525
8.02	-9.6398	0.0120	-1.2804	-0.0090	-0.0217	0.0137	33.3911	-1.6282	9.8289	0.6567	-0.0599	0.7500	0.0525
8.03	-9.6453	0.0050	-1.2816	-0.0071	-0.0201	0.0136	33.5404	-1.4664	9.7599	0.6567	-0.0598	0.7499	0.0525
8.04	-9.6494	0.0020	-1.2923	-0.0060	-0.0160	0.0062	33.6430	-1.4585	9.7794	0.6568	-0.0598	0.7500	0.0525
8.05	-9.6472	0.0030	-1.2919	-0.0074	-0.0172	0.0068	33.5205	-1.3673	9.7613	0.6567	-0.0598	0.7499	0.0525
8.06	-9.6396	-0.0022	-1.2838	-0.0043	-0.0194	0.0056	33.3969	-1.3772	9.8922	0.6567	-0.0597	0.7499	0.0525
8.07	-9.6450	0.0018	-1.3027	-0.0093	-0.0197	0.0056	33.5440	-1.5363	9.7986	0.6568	-0.0597	0.7499	0.0525
8.08	-9.6532	-0.0012	-1.2937	-0.0079	-0.0125	0.0113	33.3801	-1.5374	9.7546	0.6567	-0.0597	0.7499	0.0524
8.09	-9.6434	0.0012	-1.2842	-0.0120	-0.0225	0.0075	33.2798	-1.4639	9.7816	0.6568	-0.0597	0.7499	0.0525
8.1	-9.6483	0.0132	-1.2829	-0.0083	-0.0135	0.0058	33.5163	-1.5554	9.7581	0.6568	-0.0596	0.7499	0.0524
8.11	-9.6527	0.0161	-1.2904	-0.0103	-0.0133	0.0079	33.3575	-1.5373	10.0431	0.6568	-0.0596	0.7499	0.0524
8.12	-9.6438	0.0151	-1.2934	-0.0107	-0.0204	0.0061	33.3597	-1.5443	9.9372	0.6568	-0.0596	0.7498	0.0524
8.13	-9.6467	0.0120	-1.2857	-0.0063	-0.0153	0.0021	33.2712	-1.3401	9.8477	0.6568	-0.0596	0.7499	0.0524
8.14	-9.6462	0.0153	-1.2884	-0.0077	-0.0151	0.0074	33.4450	-1.3917	9.8102	0.6568	-0.0596	0.7498	0.0524
8.15	-9.6446	0.0160	-1.2904	-0.0043	-0.0163	0.0048	33.4048	-1.3562	9.7488	0.6568	-0.0595	0.7498	0.0523
8.16	-9.6379	0.0082	-1.2813	-0.0103	-0.0125	0.0045	33.2299	-1.4790	9.7618	0.6569	-0.0595	0.7499	0.0523
8.17	-9.6509	0.0115	-1.2860	-0.0063	-0.0094	0.0065	33.3765	-1.4474	10.0577	0.6568	-0.0595	0.7499	0.0523
8.18	-9.6648	0.0043	-1.2841	-0.0094	-0.0196	0.0091	33.6066	-1.4709	9.9081	0.6569	-0.0595	0.7499	0.0523
8.19	-9.6470	0.0015	-1.2870	-0.0084	-0.0182	0.0128	33.3309	-1.3690	9.8239	0.6568	-0.0594	0.7498	0.0523
8.2	-9.6433	0.0080	-1.2993	-0.0015	-0.0188	0.0119	33.3765	-1.4768	9.9741	0.6569	-0.0594	0.7498	0.0523
8.21	-9.6419	0.0134	-1.2968	-0.0144	-0.0169	0.0087	33.5047	-1.4475	9.7714	0.6569	-0.0594	0.7498	0.0523
8.22	-9.6550	0.0230	-1.2981	-0.0077	-0.0186	0.0044	33.5400	-1.7283	9.7820	0.6569	-0.0593	0.7498	0.0523
8.23	-9.6383	0.0256	-1.2905	-0.0073	-0.0173	0.0100	33.5274	-1.5126	9.7690	0.6569	-0.0593	0.7498	0.0522
8.24	-9.6429	0.0326	-1.2888	-0.0055	-0.0179	0.0101	33.2913	-1.4518	9.8920	0.6570	-0.0593	0.7498	0.0522
8.25	-9.6482	0.0264	-1.2981	-0.0065	-0.0193	0.0063	33.6804	-1.4233	10.0280	0.6570	-0.0592	0.7498	0.0522
8.26	-9.6377	0.0239	-1.2887	-0.0083	-0.0163	0.0063	33.8739	-1.2606	10.3530	0.6569	-0.0592	0.7497	0.0522
8.27	-9.6493	0.0186	-1.2837	-0.0104	-0.0138	0.0108	33.6165	-1.2922	10.1153	0.6570	-0.0592	0.7498	0.0522
8.28	-9.6523	0.0139	-1.2819	-0.0078	-0.0151	0.0044	33.4359	-1.3047	9.7346	0.6570	-0.0592	0.7497	0.0522
8.29	-9.6473	0.0070	-1.2859	-0.0121	-0.0092	0.0043	33.3795	-1.2980	9.8401	0.6570	-0.0592	0.7498	0.0522
8.3	-9.6466	0.0055	-1.2738	-0.0170	-0.0122	0.0012	33.3004	-1.4083	9.9450	0.6569	-0.0592	0.7497	0.0522
8.31	-9.6466	0.0158	-1.2749	-0.0153	-0.0094	0.0051	33.3723	-1.3806	10.1645	0.6570	-0.0592	0.7498	0.0522
8.32	-9.6515	0.0049	-1.2787	-0.0130	-0.0105	0.0021	33.3489	-1.2391	9.8918	0.6569	-0.0592	0.7498	0.0522
8.33	-9.6441	0.0121	-1.2742	-0.0145	-0.0073	0.0046	33.3733	-1.2134	10.0505	0.6569	-0.0592	0.7498	0.0522
8.34	-9.6491	0.0224	-1.2768	-0.0020	-0.0082	0.0061	33.5014	-1.3271	9.9867	0.6570	-0.0592	0.7499	0.0521
8.35	-9.6513	0.0189	-1.2771	-0.0124	-0.0144	0.0038	33.2435	-1.2952	9.9787	0.6569	-0.0592	0.7498	0.0521
8.36	-9.6402	0.0097	-1.2738	-0.0099	-0.0134	0.0060	33.4220	-1.3585	9.9861	0.6569	-0.0592	0.7499	0.0521
8.37	-9.6440	0.0134	-1.2797	-0.0067	-0.0159	0.0060	33.3839	-1.4896	9.9170	0.6569	-0.0592	0.7498	0.0521
8.38	-9.6567	0.0131	-1.2749	-0.0092	-0.0167	0.0080	33.4292	-1.5643	10.0694	0.6569	-0.0592	0.7498	0.0521
8.39	-9.6488	-0.0024	-1.2777	-0.0101	-0.0132	0.0110	33.5057	-1.5674	9.8470	0.6569	-0.0591	0.7498	0.0521
8.4	-9.6463	0.0040	-1.2784	-0.0110	-0.0131	0.0110	33.4714	-1.7637	9.8931	0.6569	-0.0591	0.7498	0.0521
8.41	-9.6461	-0.0107	-1.2864	-0.0064	-0.0134	0.0029	33.5848	-1.4991	9.7380	0.6569	-0.0591	0.7499	0.0520
8.42	-9.6504	-0.0053	-1.2814	-0.0112	-0.0198	0.0072	33.5651	-1.4952	9.8240	0.6569	-0.0591	0.7498	0.0520
8.43	-9.6417	-0.0040	-1.2885	-0.0110	-0.0160	0.0057	33.5671	-1.5740	9.8612	0.6570	-0.0590	0.7499	0.0520
8.44	-9.6482	0.0080	-1.2831	-0.0151	-0.0183	0.0057	33.5687	-1.5430	9.9523	0.6569	-0.0590	0.7498	0.0520
8.45	-9.6522	0.0040	-1.2972	-0.0140	-0.0157	0.0069	33.5551	-1.5551	9.8354	0.6570	-0.0590	0.7498	0.0520
8.46	-9.6411	0.0087	-1.2843	-0.0140	-0.0152	0.0070	33.6026	-1.5487	9.7575	0.6570	-0.0590	0.7498	0.0520
8.47	-9.6476	0.0213	-1.2837	-0.0088	-0.0146	0.0135	33.4396	-1.2923	10.0440	0.6570	-0.0590	0.7498	0.0520
8.48	-9.6485	0.0149	-1.3071	-0.0115	-0.0189	0.0055	33.2135	-1.4125	10.0072	0.6570	-0.0590	0.7498	0.0520
8.49	-9.6474	0.0268	-1.2937	-0.0119	-0.0136	0.0027	33.2464	-1.5959	10.0656	0.6570	-0.0590	0.7498	0.0520
8.5	-9.6449	0.0152	-1.3036	-0.0070	-0.0063	0.0024	33.2503	-1.3641	9.9363	0.6570	-0.0590	0.7498	0.0520
8.51	-9.6504	0.0196	-1.3016	-0.0172	-0.0117	0.0036	33.2106	-1.4844	10.0281	0.6569	-0.0590	0.7498	0.0520
8.52	-9.6454	0.0056	-1.2942	-0.0111	-0.0168	0.0058	33.4731	-1.4732	10.0187	0.6570	-0.0590	0.7499	0.0520
8.53	-9.6461	0.0029	-1.2764	-0.0167	-0.0123	0.0018	33.2925	-1.3301	9.9235	0.6569	-0.0590	0.7498	0.0520
8.54	-9.6504	0.0093	-1.2783	-0.0123	-0.0087	0.0032	33.2780	-1.3008	9.9213	0.6570	-0.0590	0.7499	0.0520
8.55	-9.6546	0.0029	-1.2867	-0.0100	-0.0135	0.0083	33.4130	-1.3817	10.0572	0.6569	-0.0590	0.7498	0.0520
8.56	-9.6542	0.0067	-1.2760	-0.0124	-0.0177	0.0130	33.5286	-1.5355	9.9798	0.6569	-0.0590	0.7499	0.0520
8.57	-9.6537	0.0059	-1.2880	-0.0122	-0.0124	0.0075	33.7151	-1.8548	9.8342	0.6569	-0.0590	0.7499	0.0520
8.58	-9.6486	0.0203	-1.2737	-0.0054	-0.0134	0.0049	33.5311	-1.6384	9.8741	0.6569	-0.0589	0.7498	0.0519
8.59	-9.6520	0.0186	-1.2814	-0.0069	-0.0198	0.0060	33.6859	-1.5340	9.9627	0.6570	-0.0589	0.7499	0.0519
8.6	-9.6437	0.0137	-1.2830	-0.0117	-0.0176	0.0062	33.7175	-1.5572	10.0689	0.6569	-0.0589	0.7498	0.0519
8.61	-9.6496	0.0017	-1.2781	-0.0144	-0.0178	0.0062	33.5604	-1.5467	9.7760	0.6570	-0.0589	0.7499	0.0519
8.62	-9.6413	-0.0012	-1.2831	-0.0142	-0.0110	0.0059	33.5795	-1.5529	9.7719	0.6569	-0.0589	0.7498	0.0519
8.63	-9.6533	0.0116	-1.2865	-0.0097	-0.0150	0.0058	33.5493	-1.6561	9.8874	0.6570	-0.0589	0.7499	0.0519
8.64	-9.6415	0.0010	-1.2775	-0.0095	-0.0142	0.0042	33.6054	-1.4389	9.8451	0.6569	-0.0589	0.7498	0.0519
8.65	-9.6418	-0.0021	-1.2750	-0.0068	-0.0169	0.0111	33.4217	-1.3436	9.9020	0.6569	-0.0588	0.7498	0.0519
8.66	-9.6502	0.0114	-1.2806	-0.0104	-0.0174	0.0077	33.3002	-1.5333	10.1792	0.6570	-0.0588	0.7498	0.0519
8.67	-9.6432	0.0081	-1.2730	-0.0124	-0.0160	-0.0016	33.4452	-1.3920	9.8998	0.6570	-0.0588	0.7498	0.0518
8.68	-9.6493	0.0056	-1.2744	-0.0111	-0.0173	0.0014	33.3727	-1.4689	9.6917	0.6570	-0.0588	0.7498	0.0518
8.69	-9.6439	0.0089	-1.2878	-0.0078	-0.0186	0.0006	33.5118	-1.3915	9.9678	0.6570	-0.0588	0.7497	0.0518
8.7	-9.6458	0.0099	-1.2702	-0.0078	-0.0105	0.0047	33.3502	-1.2142	9.9305	0.6570	-0.0588	0.7498	0.0518
8.71	-9.6393	0.0133	-1.2844	-0.0119	-0.0124	0.0070	33.3429	-1.3240	9.9342	0.6570	-0.0588	0.7498	0.0518
8.72	-9.6517	0.0155	-1.2927	-0.0149	-0.0135	0.0031	33.2257	-1.1131	9.9480	0.6570	-0.0588	0.7498	0.0517
8.73	-9.6435	0.0114	-1.2814	-0.0073	-0.0062	0.0039	33.4288	-1.2430	9.8259	0.6569	-0.0588	0.7498	0.0517
8.74	-9.6460	0.0070	-1.2877	-0.0092	-0.0172	0.0059	33.4865	-1.2251	9.8885	0.6570	-0.0588	0.7498	0.0517
8.75	-9.6544	0.0056	-1.2850	-0.0074	-0.0162	0.0040	33.7156	-1.3870	10.1731	0.6570	-0.0588	0.7499	0.0517
8.76	-9.6472	0.0131	-1.2898	-0.0039	-0.0140	0.0066	33.9180	-1.3750	10.3322	0.6569	-0.0588	0.7498	0.0517
8.77	-9.6520	0.0099	-1.2923	-0.0019	-0.0193	0.0108	33.6998	-1.4314	10.0501	0.6570	-0.0587	0.7499	0.0517
8.78	-9.6482	-0.0001	-1.2975	-0.0061	-0.0129	0.0106	33.5821	-1.5792	9.7638	0.6570	-0.0587	0.7498	0.0516
8.79	-9.6410	0.0058	-1.2872	-0.0101	-0.0141	0.0097	33.4652	-1.6298	9.6414	0.6570	-0.0587	0.7499	0.0516
8.8	-9.6380	-0.0077	-1.2868	-0.0060	-0.0174	0.0116	33.5323	-1.6127	9.9898	0.6569	-0.0586	0.7498	0.0516
8.81	-9.6483	-0.0050	-1.2882	-0.0059	-0.0157	0.0130	33.3970	-1.6155	10.0494	0.6570	-0.0586	0.7499	0.0516
8.82	-9.6457	-0.0066	-1.3049	-0.0006	-0.0161	0.0096	33.4865	-1.4431	9.8541	0.6570	-0.0585	0.7499	0.0516
8.83	-9.6461	-0.0087	-1.2826	-0.0018	-0.0105	0.0088	33.5952	-1.5093	9.5800	0.6569	-0.0585	0.7498	0.0515
8.84	-9.6445	-0.0007	-1.2782	-0.0058	-0.0192	0.0126	33.7102	-1.6381	9.7348	0.6570	-0.0584	0.7499	0.0515
8.85	-9.6442	0.0142	-1.2884	-0.0129	-0.0146	0.0032	33.6398	-1.4494	9.7822	0.6570	-0.0584	0.7498	0.0515
8.86	-9.6507	0.0160	-1.2996	-0.0052	-0.0138	0.0109	33.3500	-1.4727	9.8237	0.6570	-0.0584	0.7499	0.0515
8.87	-9.6490	0.0165	-1.2889	-0.0124	-0.0154	0.0049	33.4262	-1.3486	9.9562	0.6569	-0.0583	0.7498	0.0515
8.88	-9.6456	0.0313	-1.2862	-0.0119	-0.0168	0.0078	33.4440	-1.4011	10.0708	0.6570	-0.0583	0.7499	0.0515
8.89	-9.6468	0.0263	-1.2922	-0.0096	-0.0089	0.0036	33.4124	-1.7697	9.9742	0.6570	-0.0583	0.7499	0.0515
8.9	-9.6482	0.0218	-1.2757	-0.0043	-0.0076	0.0045	33.5139	-1.5280	9.6818	0.6569	-0.0583	0.7499	0.0514
8.91	-9.6437	0.0168	-1.2749	-0.0085	-0.0163	0.0098	33.6113	-1.4496	9.6859	0.6570	-0.0583	0.7499	0.0514
8.92	-9.6471	0.0143	-1.2811	-0.0074	-0.0082	0.0045	33.4827	-1.4197	9.8373	0.6569	-0.0583	0.7499	0.0514
8.93	-9.6492	0.0035	-1.2810	-0.0003	-0.0112	0.0055	33.3649	-1.5563	9.6583	0.6570	-0.0582	0.7500	0.0514
8.94	-9.6494	0.0113	-1.2750	-0.0029	-0.0120	0.0052	33.4147	-1.7363	9.8832	0.6569	-0.0582	0.7499	0.0513
8.95	-9.6503	0.0137	-1.2727	-0.0091	-0.0166	0.0124	33.6527	-1.4672	9.9504	0.6569	-0.0582	0.7500	0.0513
8.96	-9.6518	0.0134	-1.2730	-0.0021	-0.0124	0.0073	33.5376	-1.4473	9.6873	0.6569	-0.0581	0.7500	0.0513
8.97	-9.6374	0.0020	-1.2740	-0.0008	-0.0121	0.0071	33.5204	-1.7082	9.6740	0.6569	-0.0581	0.7500	0.0512
8.98	-9.6497	0.0062	-1.2733	-0.0090	-0.0185	0.0072	33.5185	-1.6064	9.9012	0.6569	-0.0580	0.7500	0.0512
8.99	-9.6527	0.0089	-1.2696	-0.0058	-0.0172	0.0065	33.4001	-1.3922	9.9390	0.6569	-0.0580	0.7500	0.0512
9	-9.6447	0.0070	-1.2769	-0.0098	-0.0200	0.0057	33.3041	-1.3381	9.6195	0.6570	-0.0580	0.7500	0.0512
9.01	-9.6358	-0.0026	-1.2690	-0.0009	-0.0165	0.0108	33.2392	-1.5322	9.8698	0.6569	-0.0579	0.7499	0.0511
9.02	-9.6475	-0.0021	-1.2724	-0.0004	-0.0080	0.0098	33.5885	-1.5406	9.9718	0.6570	-0.0579	0.7500	0.0511
9.03	-9.6465	-0.0151	-1.2734	-0.0025	-0.0130	0.0040	33.5787	-1.5188	9.6497	0.6569	-0.0578	0.7500	0.0511
9.04	-9.6537	-0.0101	-1.2888	-0.0023	-0.0137	0.0029	33.4487	-1.5425	9.8311	0.6570	-0.0578	0.7501	0.0510
9.05	-9.6555	-0.0103	-1.2823	-0.0044	-0.0147	0.0095	33.3464	-1.5276	9.9719	0.6569	-0.0578	0.7500	0.0510
9.06	-9.6567	-0.0105	-1.2890	-0.0037	-0.0147	0.0039	33.3542	-1.4366	9.9407	0.6569	-0.0578	0.7500	0.0509
9.07	-9.6371	-0.0127	-1.2848	-0.0022	-0.0136	0.0084	33.3551	-1.2858	9.9486	0.6569	-0.0577	0.7500	0.0509
9.08	-9.6415	-0.0018	-1.2839	-0.0075	-0.0184	0.0013	33.3441	-1.3455	9.9376	0.6569	-0.0577	0.7500	0.0509
9.09	-9.6567	-0.0040	-1.2982	-0.0002	-0.0103	0.0069	33.4470	-1.5702	10.0551	0.6570	-0.0577	0.7501	0.0508
9.1	-9.6476	0.0106	-1.2937	-0.0045	-0.0074	0.0062	33.5519	-1.3814	10.0350	0.6569	-0.0576	0.7500	0.0508
9.11	-9.6503	0.0142	-1.2837	-0.0069	-0.0129	0.0031	33.4411	-1.5669	9.7998	0.6569	-0.0576	0.7501	0.0507
9.12	-9.6540	0.0154	-1.2906	-0.0003	-0.0117	0.0069	33.4422	-1.3442	9.7511	0.6568	-0.0576	0.7500	0.0507
9.13	-9.6548	0.0219	-1.2792	-0.0023	-0.0172	0.0063	33.5152	-1.4969	10.0191	0.6569	-0.0575	0.7501	0.0506
9.14	-9.6498	0.0204	-1.2892	-0.0064	-0.0164	0.0102	33.5556	-1.5246	9.7058	0.6569	-0.0575	0.7501	0.0506
9.15	-9.6498	0.0281	-1.2864	-0.0122	-0.0131	0.0072	33.6741	-1.6042	9.7526	0.6569	-0.0575	0.7501	0.0506
9.16	-9.6530	0.0251	-1.2857	-0.0063	-0.0149	0.0047	33.7058	-1.5205	9.9032	0.6569	-0.0575	0.7501	0.0506
9.17	-9.6417	0.0231	-1.2869	-0.0049	-0.0213	0.0051	33.6064	-1.6663	9.8490	0.6569	-0.0574	0.7501	0.0506
9.18	-9.6437	0.0282	-1.2801	-0.0065	-0.0179	0.0097	33.2954	-1.6888	9.9016	0.6570	-0.0574	0.7501	0.0505
9.19	-9.6500	0.0206	-1.2837	-0.0039	-0.0098	0.0074	33.5327	-1.4234	9.7583	0.6569	-0.0573	0.7500	0.0505
9.2	-9.6535	0.0253	-1.2880	-0.0074	-0.0184	0.0094	33.5261	-1.3629	9.6973	0.6570	-0.0573	0.7501	0.0505
9.21	-9.6442	0.0164	-1.2806	-0.0055	-0.0151	0.0097	33.4936	-1.5116	9.8021	0.6569	-0.0573	0.7501	0.0505
9.22	-9.6448	0.0134	-1.2863	-0.0078	-0.0195	0.0083	33.3553	-1.5569	9.7719	0.6570	-0.0573	0.7501	0.0505
9.23	-9.6308	0.0124	-1.2764	-0.0080	-0.0153	0.0038	33.3564	-1.4298	9.7678	0.6569	-0.0572	0.7500	0.0504
9.24	-9.6328	0.0088	-1.2886	-0.0061	-0.0144	0.0052	33.3684	-1.4748	9.8002	0.6570	-0.0572	0.7501	0.0504
9.25	-9.6421	0.0084	-1.2870	-0.0010	-0.0113	0.0049	33.6986	-1.3925	10.1142	0.6570	-0.0572	0.7501	0.0504
9.26	-9.6491	0.0035	-1.2753	-0.0136	-0.0081	0.0034	33.8534	-1.2811	10.1481	0.6569	-0.0572	0.7500	0.0503
9.27	-9.6525	0.0129	-1.2846	-0.0167	-0.0122	0.0024	33.6902	-1.2787	10.0651	0.6570	-0.0572	0.7501	0.0503
9.28	-9.6437	0.0056	-1.2768	-0.0102	-0.0114	0.0039	33.4954	-1.5623	9.8430	0.6569	-0.0572	0.7501	0.0503
9.29	-9.6347	0.0086	-1.2825	-0.0118	-0.0064	0.0049	33.3309	-1.5657	9.8941	0.6569	-0.0572	0.7502	0.0503
9.3	-9.6449	0.0035	-1.2815	-0.0120	-0.0122	0.0035	33.4357	-1.2365	9.9431	0.6568	-0.0572	0.7501	0.0503
9.31	-9.6449	0.0111	-1.2717	-0.0166	-0.0160	0.0130	33.2504	-1.6973	9.9864	0.6569	-0.0572	0.7502	0.0503
9.32	-9.6448	0.0101	-1.2715	-0.0110	-0.0143	0.0101	33.3004	-1.6859	9.9085	0.6569	-0.0572	0.7502	0.0503
9.33	-9.6491	0.0062	-1.2766	-0.0079	-0.0182	0.0111	33.5915	-1.5378	9.9243	0.6568	-0.0571	0.7501	0.0503
9.34	-9.6456	0.0088	-1.2765	-0.0085	-0.0138	0.0043	33.5479	-1.5476	9.8500	0.6569	-0.0571	0.7502	0.0503
9.35	-9.6305	0.0093	-1.2760	0.0034	-0.0110	0.0107	33.4597	-1.5542	9.9072	0.6569	-0.0571	0.7502	0.0503
9.36	-9.6423	0.0147	-1.2767	-0.0078	-0.0185	0.0079	33.5321	-1.5383	9.8282	0.6569	-0.0570	0.7502	0.0502
9.37	-9.6399	0.0113	-1.2753	-0.0106	-0.0110	0.0034	33.6613	-1.5681	10.1726	0.6568	-0.0571	0.7501	0.0502
9.38	-9.6404	0.0094	-1.2802	-0.0090	-0.0163	0.0094	33.6102	-1.4016	9.8001	0.6569	-0.0570	0.7502	0.0502
9.39	-9.6531	-0.0087	-1.2749	-0.0129	-0.0155	0.0078	33.4051	-1.4253	9.7729	0.6569	-0.0570	0.7502	0.0502
9.4	-9.6513	-0.0063	-1.2695	-0.0116	-0.0143	0.0040	33.3978	-1.4920	9.8634	0.6568	-0.0570	0.7502	0.0502
9.41	-9.6409	-0.0045	-1.2685	-0.0069	-0.0083	0.0050	33.4141	-1.3772	9.8024	0.6569	-0.0570	0.7502	0.0502
9.42	-9.6460	-0.0042	-1.2735	-0.0119	-0.0095	0.0006	33.5029	-1.2425	9.8606	0.6568	-0.0570	0.7502	0.0502
9.43	-9.6560	-0.0014	-1.2745	-0.0078	-0.0148	0.0068	33.4530	-1.4498	9.9849	0.6568	-0.0570	0.7502	0.0502
9.44	-9.6527	0.0165	-1.2748	-0.0053	-0.0137	0.0039	33.2068	-1.4076	10.0271	0.6568	-0.0570	0.7502	0.0501
9.45	-9.6439	0.0193	-1.2843	-0.0058	-0.0112	0.0058	33.2748	-1.2855	9.9558	0.6568	-0.0570	0.7503	0.0501
9.46	-9.6588	0.0144	-1.2800	-0.0143	-0.0113	0.0023	33.4490	-1.4440	9.9324	0.6568	-0.0570	0.7502	0.0501
9.47	-9.6497	0.0107	-1.2729	-0.0135	-0.0079	0.0018	33.3705	-1.2901	9.8205	0.6568	-0.0570	0.7503	0.0501
9.48	-9.6451	0.0161	-1.2826	-0.0095	-0.0103	0.0085	33.4385	-1.3117	9.9271	0.6567	-0.0570	0.7503	0.0500
9.49	-9.6468	0.0118	-1.2822	-0.0080	-0.0152	0.0115	33.2185	-1.4148	10.1277	0.6568	-0.0569	0.7503	0.0500
9.5	-9.6596	0.0153	-1.2954	-0.0026	-0.0127	0.0091	33.3649	-1.5476	9.8921	0.6568	-0.0569	0.7503	0.0500
9.51	-9.6524	0.0198	-1.2913	-0.0021	-0.0150	0.0125	33.7020	-1.5382	9.9600	0.6567	-0.0568	0.7502	0.0500
9.52	-9.6451	0.0202	-1.2838	-0.0121	-0.0102	0.0105	33.4129	-1.5675	9.7796	0.6568	-0.0568	0.7504	0.0500
9.53	-9.6505	0.0318	-1.2993	-0.0135	-0.0108	0.0055	33.4431	-1.6476	9.7773	0.6567	-0.0568	0.7503	0.0500
9.54	-9.6471	0.0277	-1.3001	-0.0122	-0.0218	0.0064	33.5099	-1.6370	9.8802	0.6568	-0.0568	0.7504	0.0500
9.55	-9.6513	0.0400	-1.2965	-0.0095	-0.0164	0.0078	33.4656	-1.5458	9.7147	0.6567	-0.0568	0.7503	0.0500
9.56	-9.6498	0.0392	-1.2881	-0.0035	-0.0215	0.0068	33.5106	-1.4416	9.8932	0.6568	-0.0567	0.7503	0.0499
9.57	-9.6385	0.0260	-1.2879	-0.0094	-0.0138	0.0050	33.4228	-1.4979	9.9223	0.6568	-0.0567	0.7503	0.0499
9.58	-9.6412	0.0199	-1.2840	-0.0066	-0.0165	0.0102	33.3774	-1.6838	9.9294	0.6567	-0.0567	0.7502	0.0499
9.59	-9.6483	0.0101	-1.2860	-0.0081	-0.0155	0.0114	33.6784	-1.2989	9.9067	0.6568	-0.0567	0.7503	0.0499
9.6	-9.6578	0.0144	-1.2958	-0.0166	-0.0160	0.0039	33.5098	-1.2320	9.9408	0.6568	-0.0567	0.7503	0.0499
9.61	-9.6409	0.0083	-1.2815	-0.0142	-0.0118	0.0083	33.4183	-1.5615	9.8432	0.6568	-0.0567	0.7503	0.0499
9.62	-9.6443	0.0001	-1.2775	-0.0135	-0.0163	0.0047	33.3887	-1.5516	9.8343	0.6567	-0.0567	0.7502	0.0499
9.63	-9.6486	0.0022	-1.2785	-0.0154	-0.0100	0.0053	33.6136	-1.5379	9.9273	0.6568	-0.0567	0.7503	0.0499
9.64	-9.6466	-0.0035	-1.2704	-0.0136	-0.0183	0.0059	33.3489	-1.4086	9.9652	0.6568	-0.0567	0.7503	0.0499
9.65	-9.6375	-0.0046	-1.2692	-0.0142	-0.0235	0.0049	33.2950	-1.3606	9.9753	0.6568	-0.0567	0.7502	0.0499
9.66	-9.6475	-0.0071	-1.2770	-0.0134	-0.0154	0.0055	33.4334	-1.5081	9.6786	0.6568	-0.0567	0.7503	0.0499
9.67	-9.6510	0.0064	-1.2766	-0.0128	-0.0159	0.0071	33.3791	-1.4040	9.8153	0.6568	-0.0567	0.7502	0.0499
9.68	-9.6475	0.0003	-1.2712	-0.0067	-0.0231	0.0086	33.2623	-1.4598	10.0092	0.6569	-0.0567	0.7503	0.0499
9.69	-9.6475	-0.0096	-1.2739	-0.0142	-0.0224	0.0103	33.5612	-1.7620	10.0107	0.6568	-0.0566	0.7501	0.0499
9.7	-9.6451	-0.0055	-1.2682	-0.0109	-0.0159	0.0111	33.6691	-1.5746	10.1271	0.6569	-0.0567	0.7502	0.0500
9.71	-9.6438	-0.0040	-1.2727	-0.0127	-0.0133	0.0082	33.4504	-1.5484	9.9036	0.6569	-0.0566	0.7502	0.0500
9.72	-9.6405	-0.0095	-1.2692	-0.0116	-0.0199	0.0051	33.3616	-1.5459	9.7349	0.6569	-0.0566	0.7502	0.0500
9.73	-9.6475	-0.0029	-1.2844	-0.0034	-0.0164	0.0117	33.6821	-1.5567	9.7501	0.6569	-0.0566	0.7502	0.0499
9.74	-9.6475	0.0126	-1.2942	-0.0021	-0.0125	0.0103	33.5166	-1.5212	10.0025	0.6569	-0.0565	0.7502	0.0499
9.75	-9.6383	0.0081	-1.2865	-0.0116	-0.0178	0.0059	33.8021	-1.4287	9.9959	0.6569	-0.0565	0.7502	0.0499
9.76	-9.6441	0.0093	-1.2849	-0.0059	-0.0163	0.0083	33.7255	-1.5423	10.1157	0.6569	-0.0565	0.7501	0.0499
9.77	-9.6496	0.0003	-1.2892	-0.0007	-0.0188	0.0067	33.6639	-1.5913	9.8869	0.6570	-0.0565	0.7502	0.0499
9.78	-9.6477	0.0112	-1.2842	-0.0066	-0.0174	0.0068	33.5940	-1.5499	9.8804	0.6570	-0.0565	0.7501	0.0499
9.79	-9.6501	0.0158	-1.2999	-0.0046	-0.0175	0.0079	33.4170	-1.4809	9.8705	0.6570	-0.0564	0.7502	0.0498
9.8	-9.6501	0.0222	-1.2921	-0.0107	-0.0206	0.0050	33.2650	-1.4347	9.9430	0.6570	-0.0564	0.7501	0.0498
9.81	-9.6511	0.0178	-1.2901	-0.0091	-0.0129	0.0042	33.2964	-1.5138	9.8477	0.6570	-0.0564	0.7501	0.0498
9.82	-9.6489	0.0184	-1.2788	-0.0019	-0.0167	0.0084	33.4177	-1.4958	9.7072	0.6570	-0.0564	0.7501	0.0498
9.83	-9.6440	0.0175	-1.2769	-0.0068	-0.0219	0.0055	33.5157	-1.4411	9.9839	0.6570	-0.0563	0.7501	0.0497
9.84	-9.6428	0.0126	-1.2890	-0.0066	-0.0183	0.0054	33.5249	-1.5373	9.9145	0.6571	-0.0563	0.7502	0.0497
9.85	-9.6403	0.0248	-1.2853	-0.0186	-0.0225	0.0036	33.2607	-1.4611	9.7731	0.6571	-0.0563	0.7501	0.0497
9.86	-9.6518	0.0227	-1.2897	-0.0072	-0.0193	0.0045	33.3503	-1.5948	9.9066	0.6571	-0.0563	0.7501	0.0497
9.87	-9.6531	0.0175	-1.2915	-0.0060	-0.0213	0.0141	33.3581	-1.4231	9.8457	0.6571	-0.0563	0.7500	0.0497
9.88	-9.6554	0.0212	-1.2930	-0.0055	-0.0167	0.0128	33.3674	-1.5968	9.8701	0.6572	-0.0562	0.7500	0.0497
9.89	-9.6444	0.0175	-1.2793	-0.0103	-0.0179	0.0032	33.3462	-1.6135	9.9004	0.6572	-0.0562	0.7500	0.0497
9.9	-9.6397	0.0114	-1.2802	-0.0040	-0.0189	0.0080	33.6844	-1.4070	10.0058	0.6572	-0.0562	0.7500	0.0496
9.91	-9.6431	-0.0011	-1.2805	-0.0030	-0.0158	0.0111	33.6658	-1.6663	9.8258	0.6572	-0.0561	0.7500	0.0496
9.92	-9.6430	-0.0054	-1.2817	-0.0047	-0.0175	0.0129	33.6130	-1.8041	9.8163	0.6572	-0.0561	0.7500	0.0496
9.93	-9.6496	0.0116	-1.2847	-0.0031	-0.0146	0.0096	33.5027	-1.5814	9.9269	0.6572	-0.0560	0.7500	0.0496
9.94	-9.6528	0.0132	-1.2823	-0.0033	-0.0144	0.0088	33.3284	-1.3643	10.0642	0.6571	-0.0560	0.7499	0.0496
9.95	-9.6482	0.0169	-1.2850	-0.0040	-0.0189	0.0104	33.3538	-1.3840	9.9907	0.6572	-0.0559	0.7500	0.0495
9.96	-9.6477	0.0120	-1.2887	-0.0030	-0.0191	0.0108	33.3971	-1.5158	9.8299	0.6572	-0.0559	0.7500	0.0495
9.97	-9.6453	0.0111	-1.2816	-0.0030	-0.0184	0.0123	33.4664	-1.5744	9.8811	0.6573	-0.0558	0.7500	0.0495
9.98	-9.6457	0.0091	-1.2861	-0.0109	-0.0162	0.0066	33.3471	-1.3373	9.8635	0.6573	-0.0558	0.7499	0.0495
9.99	-9.6489	0.0169	-1.2798	-0.0127	-0.0145	0.0057	33.3471	-1.5391	9.9644	0.6573	-0.0558	0.7500	0.0495
10	-9.6572	0.0131	-1.2905	-0.0132	-0.0219	0.0036	33.4068	-1.4789	9.7788	0.6573	-0.0558	0.7499	0.0495
10.01	-9.6518	0.0041	-1.2812	-0.0063	-0.0219	0.0068	33.5196	-1.5062	9.7670	0.6573	-0.0558	0.7499	0.0495
10.02	-9.6443	0.0103	-1.2769	-0.0063	-0.0170	0.0070	33.5421	-1.6630	9.9109	0.6574	-0.0558	0.7499	0.0495
10.03	-9.6430	0.0088	-1.2718	-0.0048	-0.0122	0.0052	33.4551	-1.5695	10.1085	0.6573	-0.0558	0.7499	0.0494
10.04	-9.6467	-0.0004	-1.2946	-0.0059	-0.0151	0.0042	33.4865	-1.5239	9.9453	0.6574	-0.0558	0.7500	0.0494
10.05	-9.6480	0.0060	-1.2947	-0.0056	-0.0145	0.0069	33.5454	-1.5520	9.9725	0.6573	-0.0557	0.7499	0.0494
10.06	-9.6512	0.0072	-1.2805	-0.0049	-0.0207	0.0108	33.2755	-1.5223	9.9253	0.6574	-0.0557	0.7499	0.0494
10.07	-9.6412	0.0073	-1.2786	-0.0038	-0.0130	0.0082	33.4796	-1.5915	9.8393	0.6574	-0.0556	0.7499	0.0493
10.08	-9.6450	0.0051	-1.2809	-0.0045	-0.0167	0.0050	33.6000	-1.6488	9.9556	0.6573	-0.0556	0.7498	0.0493
10.09	-9.6450	0.0099	-1.2748	-0.0111	-0.0196	0.0059	33.5231	-1.4116	9.9756	0.6575	-0.0556	0.7499	0.0493
10.1	-9.6388	0.0101	-1.2752	-0.0130	-0.0175	0.0066	33.7368	-1.7501	9.9211	0.6574	-0.0556	0.7498	0.0493
10.11	-9.6418	0.0030	-1.2792	-0.0063	-0.0112	0.0054	33.3834	-1.5688	9.8587	0.6574	-0.0556	0.7499	0.0493
10.12	-9.6447	0.0163	-1.2800	-0.0061	-0.0144	0.0045	33.3372	-1.4588	9.8585	0.6574	-0.0556	0.7498	0.0492
10.13	-9.6451	0.0145	-1.2834	-0.0115	-0.0140	0.0072	33.2843	-1.5343	9.8872	0.6574	-0.0556	0.7499	0.0492
10.14	-9.6489	0.0121	-1.2734	-0.0109	-0.0186	0.0085	33.5734	-1.4513	9.8017	0.6574	-0.0555	0.7499	0.0492
10.15	-9.6429	0.0092	-1.2743	-0.0095	-0.0138	0.0107	33.6222	-1.6596	9.8389	0.6574	-0.0555	0.7498	0.0492
10.16	-9.6395	0.0173	-1.2807	-0.0055	-0.0178	0.0082	33.5729	-1.4205	9.9892	0.6575	-0.0555	0.7499	0.0492
10.17	-9.6481	0.0152	-1.2844	-0.0038	-0.0116	0.0033	33.5231	-1.4705	9.8019	0.6574	-0.0554	0.7499	0.0492
10.18	-9.6541	0.0166	-1.2867	-0.0076	-0.0112	0.0048	33.4693	-1.4402	9.9730	0.6574	-0.0554	0.7499	0.0491
10.19	-9.6460	0.0230	-1.2823	-0.0088	-0.0141	0.0019	33.4040	-1.5366	9.8557	0.6574	-0.0554	0.7498	0.0491
10.2	-9.6467	0.0222	-1.2719	-0.0062	-0.0157	0.0056	33.6697	-1.5512	9.8919	0.6575	-0.0554	0.7499	0.0491
10.21	-9.6475	0.0195	-1.2841	-0.0050	-0.0088	0.0059	33.5028	-1.4950	9.9810	0.6574	-0.0554	0.7499	0.0490
10.22	-9.6487	0.0296	-1.2856	-0.0071	-0.0110	0.0029	33.3526	-1.4303	9.9367	0.6574	-0.0554	0.7499	0.0490
10.23	-9.6467	0.0115	-1.2956	-0.0149	-0.0129	0.0061	33.3486	-1.5687	9.9650	0.6574	-0.0554	0.7499	0.0490
10.24	-9.6414	0.0078	-1.2836	-0.0137	-0.0145	0.0055	33.3821	-1.3963	9.9412	0.6574	-0.0554	0.7499	0.0490
10.25	-9.6388	0.0140	-1.2840	-0.0087	-0.0202	0.0045	33.8521	-1.1834	9.9648	0.6574	-0.0554	0.7499	0.0490
10.26	-9.6342	0.0104	-1.2923	-0.0094	-0.0167	0.0061	34.0438	-1.2679	9.9422	0.6574	-0.0554	0.7498	0.0490
10.27	-9.6395	0.0154	-1.2929	-0.0031	-0.0117	0.0049	33.7453	-1.4145	10.0487	0.6575	-0.0553	0.7499	0.0489
10.28	-9.6472	0.0206	-1.2939	-0.0188	-0.0133	0.0068	33.5611	-1.5271	9.7903	0.6574	-0.0553	0.7499	0.0490
10.29	-9.6460	0.0262	-1.2863	-0.0165	-0.0177	0.0086	33.4429	-1.4937	9.8365	0.6575	-0.0554	0.7499	0.0490
10.3	-9.6482	0.0261	-1.2764	-0.0140	-0.0123	0.0046	33.4884	-1.3711	10.1513	0.6574	-0.0554	0.7498	0.0490
10.31	-9.6534	0.0248	-1.2854	-0.0078	-0.0117	0.0059	33.4725	-1.4910	9.9201	0.6574	-0.0554	0.7499	0.0490
10.32	-9.6437	0.0129	-1.2795	-0.0108	-0.0143	0.0048	33.5305	-1.4377	9.7848	0.6574	-0.0554	0.7499	0.0490
10.33	-9.6420	0.0128	-1.2800	-0.0162	-0.0137	0.0049	33.6032	-1.5396	9.9357	0.6574	-0.0554	0.7499	0.0490
10.34	-9.6523	0.0076	-1.2773	-0.0093	-0.0139	0.0087	33.3548	-1.5606	9.9062	0.6575	-0.0554	0.7500	0.0490
10.35	-9.6490	0.0097	-1.2780	-0.0068	-0.0137	0.0064	33.3320	-1.3937	9.9368	0.6574	-0.0553	0.7499	0.0489
10.36	-9.6473	-0.0001	-1.2729	-0.0118	-0.0129	0.0015	33.2743	-1.4242	9.8408	0.6574	-0.0553	0.7499	0.0489
10.37	-9.6494	0.0119	-1.2749	-0.0121	-0.0081	0.0026	33.2159	-1.5873	9.8127	0.6573	-0.0553	0.7499	0.0489
10.38	-9.6511	0.0109	-1.2733	-0.0077	-0.0083	0.0082	33.3797	-1.3056	10.0562	0.6574	-0.0553	0.7500	0.0489
10.39	-9.6466	0.0096	-1.2709	-0.0028	-0.0085	0.0007	33.3760	-1.3261	9.9348	0.6573	-0.0553	0.7500	0.0488
10.4	-9.6495	0.0152	-1.2776	-0.0098	-0.0077	0.0037	33.2388	-1.2096	9.8867	0.6573	-0.0553	0.7500	0.0488
10.41	-9.6382	0.0097	-1.2707	-0.0114	-0.0101	0.0030	33.2323	-1.3259	9.9338	0.6573	-0.0553	0.7500	0.0488
10.42	-9.6453	0.0105	-1.2800	-0.0195	-0.0096	0.0036	33.3924	-1.3895	9.8657	0.6573	-0.0553	0.7500	0.0488
10.43	-9.6474	0.0018	-1.2776	-0.0140	-0.0118	0.0053	33.3878	-1.4188	9.8411	0.6573	-0.0554	0.7501	0.0488
10.44	-9.6471	-0.0034	-1.2758	-0.0090	-0.0117	0.0085	33.4933	-1.5657	10.1267	0.6572	-0.0554	0.7500	0.0488
10.45	-9.6473	-0.0037	-1.2779	-0.0118	-0.0153	0.0128	33.5451	-1.5342	9.9776	0.6573	-0.0553	0.7501	0.0488
10.46	-9.6403	-0.0101	-1.2762	-0.0112	-0.0161	0.0078	33.6519	-1.7051	9.7152	0.6573	-0.0553	0.7500	0.0488
10.47	-9.6555	-0.0030	-1.2896	-0.0104	-0.0163	0.0046	33.5329	-1.6684	9.6294	0.6573	-0.0553	0.7500	0.0488
10.48	-9.6518	-0.0062	-1.2928	-0.0070	-0.0152	0.0077	33.3903	-1.4262	9.7665	0.6573	-0.0553	0.7500	0.0488
10.49	-9.6376	0.0027	-1.2831	-0.0028	-0.0176	0.0049	33.6163	-1.4970	9.7253	0.6573	-0.0553	0.7500	0.0488
10.5	-9.6399	0.0164	-1.2819	-0.0018	-0.0086	0.0074	33.3831	-1.5694	9.7916	0.6573	-0.0552	0.7501	0.0487
10.51	-9.6512	0.0136	-1.2925	-0.0060	-0.0099	0.0096	33.4212	-1.5288	9.9357	0.6572	-0.0552	0.7500	0.0487
10.52	-9.6528	0.0237	-1.2829	-0.0085	-0.0147	0.0087	33.3935	-1.5713	9.8070	0.6573	-0.0552	0.7501	0.0487
10.53	-9.6467	0.0245	-1.2871	-0.0127	-0.0129	0.0055	33.2872	-1.6420	9.8627	0.6572	-0.0552	0.7501	0.0487
10.54	-9.6499	0.0169	-1.2958	-0.0166	-0.0083	0.0009	33.1940	-1.3974	9.9918	0.6573	-0.0552	0.7501	0.0487
10.55	-9.6483	0.0325	-1.2857	-0.0132	-0.0137	0.0092	33.4423	-1.3675	10.0910	0.6572	-0.0552	0.7500	0.0487
10.56	-9.6472	0.0164	-1.2832	-0.0117	-0.0145	0.0018	33.3414	-1.4056	9.9820	0.6572	-0.0552	0.7501	0.0487
10.57	-9.6457	0.0163	-1.2852	-0.0121	-0.0143	0.0053	33.0496	-1.3529	9.9995	0.6572	-0.0552	0.7501	0.0487
10.58	-9.6505	0.0100	-1.2888	-0.0152	-0.0156	0.0049	33.4164	-1.5038	10.0032	0.6572	-0.0552	0.7500	0.0487
10.59	-9.6394	0.0099	-1.2885	-0.0179	-0.0152	0.0044	33.4855	-1.2310	10.0016	0.6573	-0.0552	0.7501	0.0487
10.6	-9.6461	0.0100	-1.2833	-0.0147	-0.0085	0.0051	33.3684	-1.1481	9.7186	0.6572	-0.0552	0.7501	0.0487
10.61	-9.6555	0.0127	-1.2781	-0.0112	-0.0112	0.0025	33.2505	-1.4697	10.0162	0.6572	-0.0552	0.7502	0.0487
10.62	-9.6455	0.0193	-1.2784	-0.0128	-0.0116	0.0065	33.2359	-1.5489	9.8934	0.6571	-0.0552	0.7501	0.0487
10.63	-9.6509	0.0217	-1.2904	-0.0098	-0.0117	0.0042	33.3473	-1.6530	9.9655	0.6572	-0.0552	0.7501	0.0487
10.64	-9.6411	0.0196	-1.2781	-0.0046	-0.0161	0.0113	33.4747	-1.4574	9.9687	0.6572	-0.0552	0.7501	0.0486
10.65	-9.6547	0.0070	-1.2807	-0.0014	-0.0121	0.0088	33.7424	-1.4772	9.9077	0.6572	-0.0551	0.7501	0.0486
10.66	-9.6512	0.0111	-1.2796	-0.0105	-0.0092	0.0043	33.6379	-1.3454	9.9148	0.6572	-0.0551	0.7502	0.0486
10.67	-9.6475	0.0099	-1.2810	-0.0058	-0.0150	0.0083	33.5230	-1.5497	9.8194	0.6572	-0.0551	0.7502	0.0486
10.68	-9.6419	0.0110	-1.2756	-0.0093	-0.0095	0.0103	33.6586	-1.4679	9.8191	0.6572	-0.0551	0.7502	0.0486
10.69	-9.6340	-0.0010	-1.2838	-0.0136	-0.0110	0.0029	33.5561	-1.5335	9.9339	0.6571	-0.0551	0.7501	0.0486
10.7	-9.6322	0.0032	-1.2895	-0.0110	-0.0082	0.0035	33.5805	-1.6442	9.9971	0.6571	-0.0551	0.7502	0.0486
10.71	-9.6383	0.0049	-1.2861	-0.0102	-0.0157	0.0048	33.5155	-1.6340	9.9378	0.6571	-0.0551	0.7502	0.0485
10.72	-9.6460	0.0036	-1.2848	-0.0122	-0.0124	0.0090	33.4882	-1.5673	10.0545	0.6571	-0.0551	0.7502	0.0485
10.73	-9.6456	0.0105	-1.2836	-0.0118	-0.0122	0.0017	33.3143	-1.4706	9.8858	0.6571	-0.0551	0.7502	0.0485
10.74	-9.6431	0.0135	-1.2829	-0.0103	-0.0105	-0.0001	33.2179	-1.0818	9.9163	0.6571	-0.0551	0.7502	0.0485
10.75	-9.6406	0.0091	-1.2713	-0.0185	-0.0128	0.0018	33.6382	-1.1201	10.1106	0.6571	-0.0551	0.7503	0.0485
10.76	-9.6365	0.0187	-1.2740	-0.0107	-0.0145	-0.0000	33.9061	-1.3865	10.3144	0.6570	-0.0552	0.7502	0.0485
10.77	-9.6418	0.0133	-1.2740	-0.0181	-0.0150	0.0048	33.6755	-1.4733	10.0500	0.6571	-0.0552	0.7503	0.0485
10.78	-9.6477	0.0125	-1.2851	-0.0123	-0.0166	0.0070	33.4657	-1.6387	9.9277	0.6571	-0.0552	0.7502	0.0485
10.79	-9.6507	0.0128	-1.2889	-0.0076	-0.0143	0.0047	33.3144	-1.2698	10.0447	0.6571	-0.0552	0.7503	0.0485
10.8	-9.6434	0.0165	-1.2795	-0.0129	-0.0145	0.0076	33.3507	-1.3944	10.0346	0.6570	-0.0552	0.7502	0.0485
10.81	-9.6514	0.0147	-1.2876	-0.0069	-0.0139	0.0094	33.3991	-1.4533	9.9405	0.6571	-0.0552	0.7502	0.0485
10.82	-9.6492	0.0155	-1.2935	-0.0105	-0.0172	0.0090	33.6138	-1.6624	9.8014	0.6571	-0.0551	0.7502	0.0485
10.83	-9.6467	0.0104	-1.2843	-0.0056	-0.0198	0.0084	33.6007	-1.6699	10.1119	0.6571	-0.0551	0.7502	0.0485
10.84	-9.6483	0.0042	-1.2747	-0.0088	-0.0197	0.0082	33.5990	-1.2876	9.7719	0.6572	-0.0551	0.7503	0.0485
10.85	-9.6475	0.0092	-1.2794	-0.0026	-0.0166	0.0077	33.5079	-1.7094	9.7740	0.6571	-0.0551	0.7502	0.0485
10.86	-9.6468	0.0039	-1.2873	-0.0042	-0.0160	0.0110	33.5368	-1.5854	9.8675	0.6572	-0.0550	0.7502	0.0484
10.87	-9.6525	0.0132	-1.2859	-0.0073	-0.0199	0.0084	33.5234	-1.4249	9.6653	0.6571	-0.0550	0.7501	0.0484
10.88	-9.6512	0.0141	-1.2872	-0.0051	-0.0188	0.0051	33.5269	-1.4599	9.8015	0.6572	-0.0550	0.7502	0.0484
10.89	-9.6493	0.0140	-1.2840	-0.0032	-0.0123	0.0058	33.5429	-1.4471	9.8277	0.6572	-0.0549	0.7502	0.0484
10.9	-9.6376	0.0226	-1.2858	-0.0022	-0.0151	0.0081	33.7177	-1.4440	9.8816	0.6572	-0.0549	0.7502	0.0483
10.91	-9.6466	0.0246	-1.2870	-0.0025	-0.0199	0.0042	33.5645	-1.4540	9.9783	0.6572	-0.0549	0.7502	0.0483
10.92	-9.6564	0.0213	-1.2781	-0.0017	-0.0135	0.0049	33.5296	-1.5671	10.0483	0.6572	-0.0549	0.7502	0.0483
10.93	-9.6435	0.0284	-1.2855	-0.0102	-0.0200	0.0068	33.2710	-1.6790	9.9154	0.6572	-0.0549	0.7502	0.0483
10.94	-9.6411	0.0261	-1.2876	-0.0073	-0.0170	0.0020	33.4405	-1.4155	9.9942	0.6572	-0.0548	0.7501	0.0482
10.95	-9.6479	0.0193	-1.3002	-0.0034	-0.0116	0.0084	33.5219	-1.5029	9.9169	0.6572	-0.0548	0.7502	0.0482
10.96	-9.6509	0.0158	-1.2857	-0.0109	-0.0178	0.0037	33.4354	-1.6265	9.8855	0.6572	-0.0548	0.7501	0.0482
10.97	-9.6551	0.0011	-1.2828	-0.0155	-0.0153	0.0054	33.3781	-1.4403	9.7937	0.6572	-0.0548	0.7502	0.0482
10.98	-9.6484	0.0047	-1.2853	-0.0083	-0.0148	0.0071	33.4496	-1.3729	9.7749	0.6572	-0.0548	0.7501	0.0482
10.99	-9.6498	-0.0058	-1.2818	-0.0130	-0.0197	0.0073	33.4232	-1.2534	9.8950	0.6572	-0.0548	0.7501	0.0482
11	-9.6440	-0.0011	-1.2813	-0.0015	-0.0170	0.0079	33.3338	-1.5223	9.8521	0.6573	-0.0548	0.7501	0.0482
11.01	-9.6544	0.0069	-1.2898	-0.0057	-0.0198	0.0136	33.4279	-1.5463	9.8832	0.6572	-0.0547	0.7501	0.0481
11.02	-9.6461	0.0199	-1.2964	-0.0070	-0.0166	0.0067	33.6619	-1.4287	9.9600	0.6573	-0.0547	0.7502	0.0481
11.03	-9.6406	0.0248	-1.2924	-0.0075	-0.0170	0.0075	33.5095	-1.4679	9.9829	0.6573	-0.0546	0.7501	0.0481
11.04	-9.6483	0.0321	-1.2932	-0.0079	-0.0201	0.0045	33.4183	-1.6464	9.8835	0.6574	-0.0546	0.7502	0.0481
11.05	-9.6422	0.0220	-1.2884	-0.0028	-0.0182	0.0069	33.4613	-1.5012	9.8847	0.6573	-0.0546	0.7500	0.0481
11.06	-9.6559	0.0225	-1.2861	-0.0064	-0.0130	0.0103	33.3352	-1.5926	9.6071	0.6573	-0.0546	0.7501	0.0480
11.07	-9.6445	0.0157	-1.2719	-0.0091	-0.0146	0.0040	33.3973	-1.5531	9.8628	0.6573	-0.0546	0.7501	0.0480
11.08	-9.6376	0.0062	-1.2713	-0.0116	-0.0145	0.0059	33.3153	-1.3247	9.7618	0.6573	-0.0545	0.7501	0.0480
11.09	-9.6584	-0.0036	-1.2660	-0.0113	-0.0137	0.0072	33.6031	-1.4874	10.0218	0.6574	-0.0545	0.7502	0.0480
11.1	-9.6500	0.0008	-1.2730	-0.0023	-0.0170	0.0029	33.5208	-1.5582	9.9917	0.6573	-0.0545	0.7501	0.0480
11.11	-9.6515	0.0112	-1.2712	-0.0048	-0.0170	0.0067	33.2330	-1.6818	9.8148	0.6574	-0.0545	0.7501	0.0479
11.12	-9.6391	0.0079	-1.2711	-0.0045	-0.0147	0.0086	33.3867	-1.4168	9.9750	0.6573	-0.0544	0.7500	0.0479
11.13	-9.6431	0.0186	-1.2639	-0.0067	-0.0165	0.0018	33.3440	-1.3932	9.9620	0.6574	-0.0544	0.7501	0.0479
11.14	-9.6441	0.0114	-1.2698	-0.0055	-0.0179	0.0054	33.3808	-1.4600	9.9080	0.6574	-0.0544	0.7501	0.0479
11.15	-9.6389	0.0131	-1.2553	-0.0069	-0.0165	0.0059	33.3368	-1.5165	9.8489	0.6574	-0.0544	0.7501	0.0478
11.16	-9.6458	0.0099	-1.2719	-0.0080	-0.0185	0.0062	33.4789	-1.5547	9.9750	0.6574	-0.0544	0.7501	0.0478
11.17	-9.6492	0.0130	-1.2786	-0.0077	-0.0180	0.0024	33.5135	-1.2635	9.7053	0.6574	-0.0544	0.7500	0.0478
11.18	-9.6433	0.0158	-1.2690	-0.0029	-0.0144	0.0073	33.4060	-1.3510	9.8739	0.6574	-0.0543	0.7501	0.0478
11.19	-9.6459	0.0050	-1.2703	-0.0025	-0.0153	0.0127	33.5306	-1.4358	9.8514	0.6574	-0.0543	0.7500	0.0477
11.2	-9.6545	0.0010	-1.2823	-0.0043	-0.0161	0.0101	33.6187	-1.5848	10.1172	0.6574	-0.0543	0.7501	0.0478
11.21	-9.6476	-0.0007	-1.2846	-0.0072	-0.0178	0.0088	33.7138	-1.4323	9.9581	0.6574	-0.0542	0.7500	0.0477
11.22	-9.6504	-0.0083	-1.2846	-0.0073	-0.0153	0.0088	33.3691	-1.5933	9.7707	0.6574	-0.0542	0.7501	0.0477
11.23	-9.6509	-0.0047	-1.2897	-0.0036	-0.0133	0.0077	33.3644	-1.6287	9.7873	0.6574	-0.0542	0.7500	0.0477
11.24	-9.6579	0.0029	-1.2883	-0.0009	-0.0149	0.0110	33.4727	-1.5148	9.9200	0.6574	-0.0541	0.7501	0.0477
11.25	-9.6545	0.0102	-1.2891	-0.0003	-0.0118	0.0071	33.7937	-1.4967	9.9845	0.6574	-0.0541	0.7501	0.0476
11.26	-9.6495	0.0163	-1.2869	-0.0037	-0.0131	0.0088	33.8796	-1.3973	9.9554	0.6574	-0.0540	0.7500	0.0476
11.27	-9.6512	0.0208	-1.2885	-0.0091	-0.0130	0.0064	33.6664	-1.5786	9.9316	0.6575	-0.0540	0.7501	0.0476
11.28	-9.6452	0.0218	-1.2820	-0.0063	-0.0144	0.0133	33.5116	-1.4206	10.0456	0.6574	-0.0540	0.7501	0.0476
11.29	-9.6516	0.0287	-1.2890	-0.0083	-0.0153	0.0073	33.3225	-1.2851	9.9208	0.6575	-0.0539	0.7501	0.0476
11.3	-9.6524	0.0335	-1.2880	-0.0061	-0.0036	0.0039	33.4330	-1.4132	9.8898	0.6573	-0.0539	0.7501	0.0476
11.31	-9.6453	0.0292	-1.2908	-0.0081	-0.0062	0.0058	33.3511	-1.2665	9.9285	0.6574	-0.0539	0.7502	0.0475
11.32	-9.6451	0.0246	-1.2855	-0.0076	-0.0103	0.0038	33.1620	-1.3789	10.0286	0.6573	-0.0539	0.7502	0.0475
11.33	-9.6510	0.0206	-1.2815	-0.0035	-0.0052	0.0059	33.4070	-1.3953	9.8920	0.6573	-0.0539	0.7502	0.0475
11.34	-9.6508	0.0105	-1.2865	-0.0120	-0.0089	0.0049	33.3937	-1.4762	10.0221	0.6573	-0.0539	0.7503	0.0475
11.35	-9.6472	0.0160	-1.2854	-0.0081	-0.0119	0.0060	33.4023	-1.4849	9.8266	0.6573	-0.0539	0.7502	0.0475
11.36	-9.6552	0.0168	-1.2920	-0.0055	-0.0139	0.0123	33.3969	-1.4271	9.8775	0.6573	-0.0538	0.7503	0.0475
11.37	-9.6508	0.0201	-1.2868	-0.0061	-0.0171	0.0118	33.3891	-1.2776	9.9270	0.6572	-0.0538	0.7502	0.0474
11.38	-9.6497	0.0144	-1.2718	-0.0065	-0.0184	0.0068	33.6051	-1.5438	9.8908	0.6573	-0.0537	0.7502	0.0474
11.39	-9.6460	0.0208	-1.2789	-0.0064	-0.0124	0.0042	33.5166	-1.5328	9.7905	0.6573	-0.0537	0.7502	0.0474
11.4	-9.6541	0.0124	-1.2916	-0.0068	-0.0055	0.0062	33.7040	-1.6256	9.9222	0.6572	-0.0537	0.7502	0.0474
11.41	-9.6477	0.0129	-1.2860	-0.0176	-0.0130	0.0062	33.7406	-1.7108	9.9201	0.6573	-0.0537	0.7503	0.0474
11.42	-9.6469	0.0116	-1.2818	-0.0112	-0.0102	0.0094	33.6799	-1.7465	10.0667	0.6572	-0.0537	0.7503	0.0474
11.43	-9.6463	0.0036	-1.2795	-0.0115	-0.0125	0.0107	33.4072	-1.6093	9.8775	0.6572	-0.0537	0.7503	0.0475
11.44	-9.6530	0.0071	-1.2817	-0.0134	-0.0096	0.0029	33.3964	-1.4583	9.7152	0.6571	-0.0537	0.7502	0.0474
11.45	-9.6418	-0.0044	-1.2734	-0.0109	-0.0108	0.0001	33.4025	-1.4628	9.7381	0.6572	-0.0538	0.7503	0.0474
11.46	-9.6415	0.0028	-1.2742	-0.0096	-0.0177	0.0049	33.5597	-1.5205	9.7582	0.6572	-0.0537	0.7503	0.0474
11.47	-9.6489	0.0115	-1.2760	-0.0103	-0.0097	0.0083	33.5071	-1.5201	9.9326	0.6572	-0.0537	0.7503	0.0474
11.48	-9.6442	0.0118	-1.2773	-0.0128	-0.0131	0.0051	33.3781	-1.3514	9.8857	0.6572	-0.0537	0.7503	0.0474
11.49	-9.6455	0.0174	-1.2836	-0.0141	-0.0151	-0.0007	33.2893	-1.4322	9.9406	0.6572	-0.0538	0.7503	0.0474
11.5	-9.6525	0.0049	-1.2882	-0.0132	-0.0145	-0.0041	33.3711	-1.5035	10.0246	0.6572	-0.0538	0.7503	0.0474
11.51	-9.6438	0.0111	-1.2739	-0.0082	-0.0130	-0.0013	33.4102	-1.3850	9.9207	0.6571	-0.0538	0.7503	0.0473
11.52	-9.6439	0.0134	-1.2759	-0.0050	-0.0183	0.0061	33.3880	-1.3931	9.7741	0.6572	-0.0538	0.7504	0.0473
11.53	-9.6483	0.0048	-1.2873	-0.0106	-0.0141	0.0057	33.4141	-1.3871	9.9059	0.6572	-0.0538	0.7503	0.0473
11.54	-9.6476	0.0142	-1.2898	-0.0091	-0.0060	0.0019	33.3665	-1.4000	10.0584	0.6572	-0.0538	0.7504	0.0473
11.55	-9.6452	0.0104	-1.2803	-0.0058	-0.0164	0.0065	33.5061	-1.3664	9.7847	0.6571	-0.0537	0.7503	0.0472
11.56	-9.6429	0.0094	-1.2831	-0.0074	-0.0154	0.0112	33.5481	-1.6485	9.8511	0.6572	-0.0537	0.7503	0.0472
11.57	-9.6554	0.0100	-1.2954	-0.0043	-0.0200	0.0058	33.6267	-1.5410	9.8037	0.6572	-0.0537	0.7503	0.0472
