time	acceleration_x	acceleration_y	acceleration_z	gyroscope_x	gyroscope_y	gyroscope_z	magnetometer_x	magnetometer_y	magnetometer_z	quaternion_w	quaternion_x	quaternion_y	quaternion_z
0	-0.5246	-9.4069	-2.0478	0.0197	-0.0067	0.0111	-20.3576	26.0376	19.9583	0.1931	-0.1966	0.7526	-0.5980
0.01	-0.5246	-9.4083	-2.0468	0.0187	-0.0037	0.0096	-20.2222	26.2792	20.2115	0.1931	-0.1966	0.7526	-0.5980
0.02	-0.5246	-9.3979	-2.0396	0.0199	-0.0030	0.0127	-20.2694	26.3774	20.0891	0.1931	-0.1966	0.7526	-0.5980
0.03	-0.5311	-9.3992	-2.0418	0.0199	-0.0033	0.0064	-20.0624	26.2655	20.0451	0.1931	-0.1966	0.7526	-0.5980
0.04	-0.5325	-9.4057	-2.0413	0.0166	-0.0049	0.0061	-20.1983	26.3165	20.1458	0.1931	-0.1966	0.7526	-0.5980
0.05	-0.5322	-9.4019	-2.0391	0.0156	-0.0073	0.0125	-20.1913	26.2467	20.0954	0.1931	-0.1966	0.7526	-0.5979
0.06	-0.5396	-9.4049	-2.0384	0.0188	-0.0078	0.0120	-20.0413	26.5381	20.1146	0.1931	-0.1967	0.7527	-0.5980
0.07	-0.5426	-9.4036	-2.0480	0.0195	-0.0053	0.0109	-20.3799	26.8971	20.2616	0.1931	-0.1967	0.7526	-0.5979
0.08	-0.5486	-9.3990	-2.0484	0.0196	-0.0082	0.0129	-20.4557	26.8055	20.2251	0.1932	-0.1967	0.7527	-0.5980
0.09	-0.5489	-9.3979	-2.0516	0.0195	-0.0045	0.0137	-20.5848	26.6639	20.0727	0.1932	-0.1967	0.7526	-0.5979
0.1	-0.5519	-9.4052	-2.0525	0.0198	-0.0087	0.0101	-20.6367	26.8494	19.9714	0.1932	-0.1967	0.7527	-0.5979
0.11	-0.5587	-9.4074	-2.0548	0.0197	-0.0136	0.0116	-20.4936	26.9616	20.0670	0.1932	-0.1968	0.7526	-0.5979
0.12	-0.5601	-9.4035	-2.0519	0.0193	-0.0148	0.0097	-20.4799	26.6593	20.1117	0.1933	-0.1968	0.7526	-0.5978
0.13	-0.5640	-9.4078	-2.0524	0.0225	-0.0139	0.0110	-20.4068	26.7219	20.0906	0.1933	-0.1969	0.7527	-0.5979
0.14	-0.5654	-9.3996	-2.0462	0.0209	-0.0096	0.0094	-20.3747	26.7893	20.0984	0.1933	-0.1969	0.7526	-0.5979
0.15	-0.5613	-9.4032	-2.0399	0.0286	-0.0017	0.0093	-20.2859	26.5629	20.1040	0.1934	-0.1969	0.7526	-0.5979
0.16	-0.5550	-9.4012	-2.0441	0.0228	-0.0004	0.0097	-20.4125	26.4325	20.1015	0.1933	-0.1968	0.7525	-0.5979
0.17	-0.5504	-9.3976	-2.0400	0.0180	-0.0041	0.0120	-20.2929	26.4554	20.1146	0.1934	-0.1969	0.7526	-0.5979
0.18	-0.5462	-9.4045	-2.0432	0.0200	-0.0009	0.0136	-20.0206	26.3083	20.2924	0.1933	-0.1969	0.7526	-0.5979
0.19	-0.5419	-9.4024	-2.0383	0.0213	0.0021	0.0107	-19.7699	26.5341	20.5458	0.1933	-0.1968	0.7526	-0.5979
0.2	-0.5394	-9.3996	-2.0391	0.0194	-0.0050	0.0086	-19.8667	26.5025	20.2804	0.1933	-0.1969	0.7526	-0.5979
0.21	-0.5336	-9.3990	-2.0350	0.0201	-0.0002	0.0134	-20.0582	26.7121	19.9439	0.1933	-0.1969	0.7526	-0.5979
0.22	-0.5320	-9.4063	-2.0352	0.0226	0.0057	0.0090	-20.0914	26.8694	19.8771	0.1933	-0.1968	0.7526	-0.5979
0.23	-0.5293	-9.4033	-2.0354	0.0220	-0.0019	0.0089	-19.9147	26.2526	20.0348	0.1933	-0.1968	0.7525	-0.5978
0.24	-0.5308	-9.4073	-2.0398	0.0180	0.0011	0.0111	-20.0601	26.3210	20.1038	0.1933	-0.1968	0.7526	-0.5979
0.25	-0.5354	-9.4096	-2.0373	0.0200	-0.0009	0.0131	-20.2567	26.6288	19.9771	0.1933	-0.1968	0.7526	-0.5979
0.26	-0.5323	-9.4011	-2.0246	0.0211	-0.0025	0.0076	-20.5093	26.7951	20.0226	0.1933	-0.1968	0.7526	-0.5979
0.27	-0.5324	-9.4057	-2.0318	0.0196	-0.0042	0.0117	-20.4055	26.8972	19.8897	0.1933	-0.1968	0.7526	-0.5979
0.28	-0.5300	-9.4038	-2.0308	0.0167	-0.0081	0.0099	-20.4454	26.8354	20.1630	0.1933	-0.1969	0.7526	-0.5979
0.29	-0.5263	-9.4055	-2.0330	0.0189	-0.0108	0.0077	-20.5367	26.8166	19.9810	0.1933	-0.1969	0.7526	-0.5979
0.3	-0.5321	-9.4065	-2.0268	0.0197	-0.0079	0.0121	-20.4194	26.9129	20.0901	0.1933	-0.1969	0.7526	-0.5978
0.31	-0.5317	-9.4092	-2.0350	0.0241	0.0021	0.0130	-20.4193	26.7450	19.9816	0.1933	-0.1969	0.7527	-0.5979
0.32	-0.5331	-9.4035	-2.0384	0.0208	0.0008	0.0114	-20.4274	26.5681	20.0332	0.1933	-0.1969	0.7526	-0.5978
0.33	-0.5349	-9.4009	-2.0372	0.0201	-0.0025	0.0127	-20.4007	26.7723	20.1367	0.1933	-0.1969	0.7527	-0.5979
0.34	-0.5389	-9.4050	-2.0476	0.0182	0.0018	0.0097	-20.4587	26.7560	19.9591	0.1933	-0.1969	0.7526	-0.5978
0.35	-0.5399	-9.4020	-2.0463	0.0242	0.0086	0.0055	-20.2323	26.3041	19.9618	0.1932	-0.1969	0.7526	-0.5979
0.36	-0.5346	-9.4026	-2.0549	0.0234	0.0064	0.0081	-20.0469	26.2320	19.8450	0.1932	-0.1968	0.7526	-0.5979
0.37	-0.5346	-9.4049	-2.0515	0.0181	-0.0003	0.0109	-20.1038	26.1189	19.9454	0.1932	-0.1968	0.7526	-0.5978
0.38	-0.5331	-9.4049	-2.0483	0.0202	0.0059	0.0147	-20.1073	26.2805	19.9022	0.1932	-0.1968	0.7527	-0.5979
0.39	-0.5330	-9.4054	-2.0476	0.0199	0.0000	0.0130	-20.0434	26.2423	19.9081	0.1931	-0.1968	0.7527	-0.5979
0.4	-0.5324	-9.4116	-2.0554	0.0200	0.0054	0.0108	-20.0511	26.1376	20.0869	0.1931	-0.1968	0.7527	-0.5979
0.41	-0.5301	-9.4038	-2.0526	0.0189	-0.0008	0.0092	-20.1880	26.3500	19.9125	0.1931	-0.1968	0.7526	-0.5978
0.42	-0.5375	-9.4011	-2.0499	0.0208	-0.0009	0.0092	-20.0786	26.2676	19.9235	0.1931	-0.1968	0.7527	-0.5979
0.43	-0.5441	-9.4044	-2.0577	0.0232	-0.0027	0.0059	-20.2365	26.2156	19.8382	0.1931	-0.1968	0.7527	-0.5979
0.44	-0.5482	-9.4061	-2.0536	0.0244	0.0040	0.0099	-20.3170	26.7967	20.0962	0.1930	-0.1968	0.7527	-0.5979
0.45	-0.5487	-9.3997	-2.0452	0.0228	-0.0005	0.0130	-20.5241	26.8791	20.0854	0.1930	-0.1968	0.7527	-0.5979
0.46	-0.5519	-9.4051	-2.0513	0.0219	-0.0004	0.0087	-20.5112	26.9054	20.1827	0.1930	-0.1968	0.7527	-0.5979
0.47	-0.5506	-9.4081	-2.0492	0.0227	0.0003	0.0120	-20.4551	26.9626	19.9602	0.1930	-0.1968	0.7527	-0.5980
0.48	-0.5565	-9.3982	-2.0377	0.0193	-0.0068	0.0080	-20.3316	27.0398	20.1003	0.1930	-0.1968	0.7526	-0.5979
0.49	-0.5556	-9.4097	-2.0411	0.0312	-0.0027	0.0129	-20.3374	26.9311	20.0621	0.1931	-0.1968	0.7527	-0.5980
0.5	-0.5584	-9.4050	-2.0356	0.0198	-0.0102	0.0113	-20.3678	26.7124	19.9857	0.1931	-0.1968	0.7526	-0.5979
0.51	-0.5570	-9.4028	-2.0321	0.0205	-0.0039	0.0091	-20.4962	26.6989	20.0113	0.1931	-0.1968	0.7527	-0.5980
0.52	-0.5522	-9.4008	-2.0265	0.0193	0.0027	0.0111	-20.5242	26.8127	20.0022	0.1931	-0.1968	0.7526	-0.5979
0.53	-0.5481	-9.4057	-2.0296	0.0213	0.0029	0.0121	-20.2194	26.6474	19.9952	0.1930	-0.1968	0.7526	-0.5979
0.54	-0.5453	-9.4031	-2.0309	0.0208	-0.0001	0.0069	-20.0202	26.3006	19.8849	0.1930	-0.1968	0.7527	-0.5980
0.55	-0.5427	-9.4042	-2.0348	0.0169	-0.0036	0.0105	-20.2648	26.3153	20.0442	0.1930	-0.1968	0.7526	-0.5979
0.56	-0.5355	-9.4078	-2.0394	0.0206	-0.0001	0.0078	-20.3583	26.1878	19.9848	0.1930	-0.1968	0.7527	-0.5980
0.57	-0.5325	-9.4059	-2.0337	0.0180	-0.0055	0.0098	-19.8909	26.2797	19.9528	0.1930	-0.1968	0.7527	-0.5979
0.58	-0.5281	-9.4067	-2.0354	0.0217	-0.0024	0.0105	-20.1067	26.3068	20.0865	0.1930	-0.1968	0.7527	-0.5980
0.59	-0.5267	-9.4030	-2.0377	0.0201	0.0018	0.0079	-19.9843	26.3988	19.7943	0.1930	-0.1968	0.7526	-0.5979
0.6	-0.5251	-9.4017	-2.0367	0.0197	0.0023	0.0147	-19.9785	26.2648	19.9034	0.1930	-0.1968	0.7527	-0.5979
0.61	-0.5266	-9.4024	-2.0338	0.0194	-0.0065	0.0116	-20.2643	26.0501	20.1207	0.1930	-0.1968	0.7527	-0.5979
0.62	-0.5317	-9.4039	-2.0392	0.0202	0.0003	0.0132	-20.1033	26.3643	20.1085	0.1930	-0.1968	0.7526	-0.5979
0.63	-0.5341	-9.4035	-2.0386	0.0202	0.0023	0.0052	-20.5232	26.7695	19.9840	0.1930	-0.1968	0.7528	-0.5980
0.64	-0.5366	-9.4034	-2.0399	0.0194	0.0045	0.0076	-20.3054	26.8101	19.8671	0.1929	-0.1968	0.7527	-0.5979
0.65	-0.5423	-9.4059	-2.0381	0.0200	-0.0024	0.0142	-20.4957	26.7314	19.9995	0.1929	-0.1968	0.7528	-0.5979
0.66	-0.5412	-9.4017	-2.0355	0.0193	-0.0031	0.0107	-20.7946	26.6752	19.9797	0.1929	-0.1968	0.7527	-0.5979
0.67	-0.5399	-9.4070	-2.0424	0.0244	0.0055	0.0122	-20.4933	26.8369	20.0243	0.1929	-0.1968	0.7527	-0.5979
0.68	-0.5414	-9.4066	-2.0402	0.0216	-0.0035	0.0116	-20.2105	26.7503	20.2732	0.1929	-0.1968	0.7527	-0.5979
0.69	-0.5328	-9.4063	-2.0493	0.0172	-0.0043	0.0114	-19.9349	26.8908	20.2902	0.1929	-0.1968	0.7527	-0.5979
0.7	-0.5252	-9.4077	-2.0570	0.0203	-0.0143	0.0130	-20.1044	26.8303	20.3218	0.1929	-0.1968	0.7527	-0.5979
0.71	-0.5230	-9.4059	-2.0594	0.0211	0.0032	0.0095	-20.3709	27.1082	20.0902	0.1929	-0.1968	0.7527	-0.5979
0.72	-0.5201	-9.4063	-2.0554	0.0202	-0.0080	0.0106	-20.4059	27.2601	19.8722	0.1929	-0.1968	0.7527	-0.5979
0.73	-0.5211	-9.4049	-2.0580	0.0194	-0.0020	0.0098	-20.1817	26.3918	19.9186	0.1929	-0.1968	0.7527	-0.5978
0.74	-0.5190	-9.4101	-2.0614	0.0216	-0.0027	0.0128	-20.2049	26.3701	19.9296	0.1929	-0.1968	0.7527	-0.5979
0.75	-0.5217	-9.4048	-2.0541	0.0203	-0.0008	0.0124	-20.1279	26.2871	19.9166	0.1929	-0.1968	0.7527	-0.5979
0.76	-0.5258	-9.4012	-2.0488	0.0198	-0.0027	0.0145	-20.1046	26.2881	19.9869	0.1929	-0.1968	0.7527	-0.5979
0.77	-0.5317	-9.4059	-2.0520	0.0195	-0.0047	0.0131	-20.2387	26.4072	20.1251	0.1930	-0.1968	0.7527	-0.5978
0.78	-0.5348	-9.4030	-2.0443	0.0199	0.0057	0.0125	-20.0457	26.3181	20.0671	0.1929	-0.1968	0.7527	-0.5979
0.79	-0.5396	-9.3999	-2.0357	0.0186	-0.0030	0.0127	-20.1836	26.3626	19.9605	0.1929	-0.1968	0.7528	-0.5979
0.8	-0.5465	-9.4033	-2.0310	0.0203	-0.0038	0.0128	-20.1799	26.2972	19.8224	0.1929	-0.1967	0.7527	-0.5978
0.81	-0.5539	-9.4058	-2.0336	0.0191	-0.0022	0.0124	-20.3420	26.4092	19.7542	0.1930	-0.1968	0.7528	-0.5979
0.82	-0.5587	-9.3910	-2.0234	0.0249	-0.0004	0.0170	-20.5481	26.7366	19.9952	0.1930	-0.1967	0.7528	-0.5978
0.83	-0.5667	-9.3974	-2.0238	0.0205	-0.0063	0.0128	-20.5047	26.6710	19.9977	0.1930	-0.1967	0.7528	-0.5979
0.84	-0.5752	-9.4053	-2.0278	0.0200	-0.0033	0.0111	-20.4425	26.8016	19.9871	0.1930	-0.1967	0.7527	-0.5978
0.85	-0.5790	-9.3975	-2.0166	0.0190	-0.0009	0.0131	-20.5066	26.9950	19.8824	0.1930	-0.1967	0.7528	-0.5978
0.86	-0.5740	-9.3974	-2.0236	0.0240	-0.0016	0.0127	-20.3852	26.7140	19.9007	0.1930	-0.1967	0.7528	-0.5978
0.87	-0.5706	-9.4078	-2.0197	0.0215	0.0049	0.0104	-20.4592	26.7544	19.9729	0.1929	-0.1967	0.7527	-0.5978
0.88	-0.5608	-9.4043	-2.0225	0.0194	0.0061	0.0134	-20.4730	26.9110	20.1005	0.1929	-0.1967	0.7529	-0.5979
0.89	-0.5528	-9.3972	-2.0297	0.0200	-0.0041	0.0153	-20.3619	26.6915	19.9186	0.1929	-0.1966	0.7528	-0.5978
0.9	-0.5495	-9.4051	-2.0421	0.0203	-0.0018	0.0136	-20.3876	26.7468	19.9079	0.1930	-0.1966	0.7528	-0.5979
0.91	-0.5420	-9.4028	-2.0482	0.0214	0.0017	0.0106	-20.0876	26.5285	19.9846	0.1929	-0.1966	0.7528	-0.5978
0.92	-0.5315	-9.3989	-2.0482	0.0226	-0.0057	0.0134	-20.2198	26.1569	20.0578	0.1930	-0.1966	0.7528	-0.5978
0.93	-0.5261	-9.4025	-2.0582	0.0223	-0.0026	0.0110	-20.1388	26.3889	20.0781	0.1930	-0.1966	0.7528	-0.5978
0.94	-0.5251	-9.4062	-2.0545	0.0190	0.0074	0.0119	-20.0747	26.4245	19.9151	0.1929	-0.1966	0.7528	-0.5978
0.95	-0.5271	-9.4038	-2.0559	0.0202	-0.0040	0.0070	-20.3775	26.6661	19.9861	0.1929	-0.1966	0.7528	-0.5978
0.96	-0.5243	-9.4009	-2.0503	0.0193	-0.0051	0.0124	-20.3738	26.5873	20.0507	0.1929	-0.1966	0.7528	-0.5978
0.97	-0.5237	-9.4039	-2.0486	0.0201	0.0090	0.0126	-20.4463	26.8828	20.0334	0.1929	-0.1966	0.7529	-0.5978
0.98	-0.5218	-9.4050	-2.0525	0.0230	0.0008	0.0125	-20.5581	26.7606	19.9580	0.1929	-0.1965	0.7528	-0.5978
0.99	-0.5196	-9.4027	-2.0491	0.0225	-0.0064	0.0126	-20.4574	26.8313	20.1115	0.1929	-0.1966	0.7529	-0.5979
1	-0.5224	-9.4034	-2.0470	0.0229	-0.0063	0.0122	-20.4741	26.9769	19.8980	0.1929	-0.1966	0.7528	-0.5978
1.01	-0.5231	-9.4089	-2.0476	0.0206	-0.0025	0.0132	-20.4679	26.7360	19.9157	0.1929	-0.1966	0.7528	-0.5978
1.02	-0.5250	-9.4030	-2.0471	0.0218	-0.0014	0.0143	-20.4559	26.9083	19.8951	0.1929	-0.1965	0.7528	-0.5978
1.03	-0.5307	-9.3963	-2.0400	0.0180	0.0015	0.0124	-20.6103	26.8288	19.7908	0.1929	-0.1965	0.7528	-0.5978
1.04	-0.5378	-9.4051	-2.0428	0.0215	-0.0022	0.0129	-20.7758	26.9454	19.8310	0.1929	-0.1965	0.7529	-0.5978
1.05	-0.5370	-9.4084	-2.0477	0.0250	-0.0028	0.0126	-20.5513	26.8650	20.0899	0.1929	-0.1965	0.7528	-0.5978
1.06	-0.5373	-9.3986	-2.0422	0.0244	-0.0033	0.0106	-20.3711	26.8812	20.1609	0.1930	-0.1965	0.7529	-0.5979
1.07	-0.5381	-9.4033	-2.0384	0.0256	-0.0025	0.0126	-20.4043	26.8235	20.2059	0.1930	-0.1965	0.7528	-0.5978
1.08	-0.5374	-9.4109	-2.0408	0.0210	-0.0065	0.0134	-20.3763	26.5689	20.0305	0.1930	-0.1965	0.7529	-0.5979
1.09	-0.5383	-9.4012	-2.0345	0.0207	-0.0036	0.0143	-20.4754	26.7548	19.9780	0.1930	-0.1965	0.7528	-0.5978
1.1	-0.5377	-9.3976	-2.0343	0.0190	-0.0045	0.0111	-20.4762	26.6338	19.9896	0.1930	-0.1965	0.7528	-0.5978
1.11	-0.5427	-9.4098	-2.0387	0.0247	-0.0060	0.0131	-20.2810	26.7122	19.6796	0.1930	-0.1965	0.7528	-0.5978
1.12	-0.5459	-9.4059	-2.0353	0.0279	-0.0089	0.0138	-20.3908	26.8895	19.9047	0.1930	-0.1965	0.7527	-0.5978
1.13	-0.5452	-9.3952	-2.0287	0.0215	-0.0013	0.0144	-20.4676	26.7987	19.9931	0.1931	-0.1965	0.7528	-0.5979
1.14	-0.5518	-9.4053	-2.0444	0.0204	-0.0056	0.0079	-20.5008	26.5940	20.0264	0.1931	-0.1965	0.7528	-0.5978
1.15	-0.5563	-9.4030	-2.0444	0.0232	-0.0066	0.0078	-20.3767	26.8069	20.0893	0.1931	-0.1966	0.7528	-0.5979
1.16	-0.5543	-9.3921	-2.0408	0.0251	-0.0124	0.0136	-20.5063	26.9721	19.7272	0.1931	-0.1966	0.7527	-0.5978
1.17	-0.5579	-9.4006	-2.0476	0.0203	-0.0025	0.0101	-20.3970	26.8621	20.1357	0.1931	-0.1966	0.7528	-0.5979
1.18	-0.5512	-9.4050	-2.0559	0.0216	-0.0016	0.0118	-20.0597	26.8397	20.4421	0.1931	-0.1966	0.7527	-0.5979
1.19	-0.5460	-9.3951	-2.0492	0.0186	0.0025	0.0127	-20.2880	27.0216	20.4820	0.1931	-0.1966	0.7527	-0.5978
1.2	-0.5418	-9.3988	-2.0440	0.0205	0.0062	0.0070	-20.2928	26.9551	20.2596	0.1931	-0.1966	0.7528	-0.5979
1.21	-0.5400	-9.4056	-2.0429	0.0191	0.0043	0.0093	-20.4219	27.0136	20.0663	0.1930	-0.1965	0.7528	-0.5978
1.22	-0.5355	-9.4013	-2.0404	0.0207	0.0005	0.0064	-20.3135	27.4681	20.0157	0.1930	-0.1966	0.7528	-0.5979
1.23	-0.5301	-9.4007	-2.0352	0.0179	-0.0053	0.0098	-20.6265	26.8198	19.9548	0.1930	-0.1966	0.7527	-0.5978
1.24	-0.5323	-9.4086	-2.0409	0.0241	0.0004	0.0118	-20.5777	26.9783	20.2396	0.1930	-0.1966	0.7528	-0.5979
1.25	-0.5335	-9.4051	-2.0372	0.0212	-0.0026	0.0112	-20.4680	26.9871	19.7537	0.1930	-0.1966	0.7528	-0.5979
1.26	-0.5302	-9.3950	-2.0303	0.0177	-0.0045	0.0090	-20.3250	27.0917	19.7864	0.1930	-0.1966	0.7528	-0.5979
1.27	-0.5352	-9.4003	-2.0426	0.0208	-0.0016	0.0095	-20.4468	26.8560	19.9089	0.1930	-0.1966	0.7528	-0.5978
1.28	-0.5368	-9.4093	-2.0374	0.0213	-0.0027	0.0116	-20.4114	26.7511	20.1979	0.1930	-0.1966	0.7528	-0.5978
1.29	-0.5413	-9.4035	-2.0347	0.0196	-0.0048	0.0118	-20.5112	26.7290	20.0562	0.1930	-0.1966	0.7528	-0.5978
1.3	-0.5459	-9.4003	-2.0412	0.0194	-0.0017	0.0153	-20.4303	26.9082	19.9686	0.1930	-0.1966	0.7527	-0.5978
1.31	-0.5459	-9.4054	-2.0473	0.0144	-0.0101	0.0101	-20.4510	26.7596	20.1042	0.1931	-0.1966	0.7529	-0.5978
1.32	-0.5407	-9.4039	-2.0532	0.0191	-0.0078	0.0121	-20.3847	26.8554	20.0991	0.1931	-0.1966	0.7528	-0.5978
1.33	-0.5395	-9.3966	-2.0453	0.0189	-0.0066	0.0086	-20.3849	26.8590	19.9916	0.1931	-0.1967	0.7529	-0.5978
1.34	-0.5350	-9.3982	-2.0488	0.0204	-0.0026	0.0080	-20.5336	26.5845	20.1005	0.1931	-0.1966	0.7528	-0.5977
1.35	-0.5369	-9.4085	-2.0507	0.0206	-0.0002	0.0125	-20.6152	26.6748	20.1632	0.1931	-0.1966	0.7528	-0.5978
1.36	-0.5321	-9.3990	-2.0467	0.0191	-0.0067	0.0125	-20.5397	26.7301	19.8898	0.1931	-0.1967	0.7528	-0.5978
1.37	-0.5272	-9.4004	-2.0480	0.0199	0.0023	0.0077	-20.4848	26.9952	19.9105	0.1930	-0.1966	0.7528	-0.5977
1.38	-0.5316	-9.4074	-2.0525	0.0193	-0.0051	0.0107	-20.5236	26.8209	19.9978	0.1931	-0.1967	0.7529	-0.5978
1.39	-0.5334	-9.4006	-2.0506	0.0178	-0.0070	0.0083	-20.7542	26.7118	20.1462	0.1931	-0.1967	0.7528	-0.5977
1.4	-0.5318	-9.3976	-2.0450	0.0203	-0.0049	0.0121	-20.5090	26.8282	19.9403	0.1931	-0.1967	0.7529	-0.5978
1.41	-0.5334	-9.4057	-2.0464	0.0187	0.0005	0.0105	-20.5801	26.7910	19.8766	0.1931	-0.1967	0.7528	-0.5977
1.42	-0.5347	-9.4057	-2.0472	0.0197	-0.0061	0.0087	-20.5953	26.6692	20.2781	0.1931	-0.1967	0.7529	-0.5977
1.43	-0.5373	-9.3934	-2.0450	0.0194	-0.0074	0.0083	-20.4435	26.6412	20.0402	0.1931	-0.1967	0.7528	-0.5977
1.44	-0.5343	-9.3980	-2.0371	0.0205	-0.0006	0.0151	-20.3633	26.5441	19.9901	0.1931	-0.1967	0.7528	-0.5977
1.45	-0.5367	-9.4084	-2.0470	0.0214	-0.0003	0.0106	-20.3257	26.6559	20.1077	0.1931	-0.1967	0.7529	-0.5977
1.46	-0.5433	-9.4049	-2.0447	0.0191	-0.0101	0.0089	-20.5143	26.7118	19.9619	0.1931	-0.1967	0.7528	-0.5977
1.47	-0.5482	-9.3953	-2.0320	0.0216	0.0033	0.0109	-20.4427	26.7745	20.0276	0.1931	-0.1967	0.7529	-0.5977
1.48	-0.5471	-9.4057	-2.0337	0.0208	0.0000	0.0068	-20.4954	26.7977	19.8937	0.1930	-0.1967	0.7528	-0.5976
1.49	-0.5479	-9.4046	-2.0369	0.0173	-0.0082	0.0102	-20.6128	26.8012	19.9204	0.1931	-0.1968	0.7529	-0.5977
1.5	-0.5495	-9.3919	-2.0311	0.0180	-0.0075	0.0111	-20.4411	26.9092	19.8839	0.1931	-0.1968	0.7529	-0.5977
1.51	-0.5448	-9.4007	-2.0340	0.0199	-0.0046	0.0069	-20.6250	26.8509	19.9703	0.1931	-0.1968	0.7529	-0.5977
1.52	-0.5432	-9.4086	-2.0333	0.0258	-0.0041	0.0087	-20.4822	26.8930	20.0976	0.1931	-0.1968	0.7528	-0.5977
1.53	-0.5433	-9.3994	-2.0233	0.0218	-0.0077	0.0095	-20.4494	26.8565	20.2065	0.1931	-0.1968	0.7528	-0.5977
1.54	-0.5441	-9.4025	-2.0246	0.0173	0.0013	0.0087	-20.5377	26.7444	19.9151	0.1931	-0.1968	0.7529	-0.5977
1.55	-0.5395	-9.4067	-2.0353	0.0199	0.0022	0.0115	-20.4911	26.9682	19.9853	0.1930	-0.1968	0.7528	-0.5976
1.56	-0.5386	-9.3996	-2.0347	0.0196	0.0025	0.0118	-20.6181	26.9610	19.9767	0.1931	-0.1968	0.7529	-0.5977
1.57	-0.5331	-9.3968	-2.0371	0.0196	-0.0061	0.0052	-20.5705	26.9484	20.0339	0.1930	-0.1968	0.7528	-0.5976
1.58	-0.5414	-9.4056	-2.0417	0.0189	-0.0046	0.0012	-20.6189	26.7613	20.1025	0.1930	-0.1969	0.7529	-0.5977
1.59	-0.5408	-9.4012	-2.0331	0.0198	-0.0055	0.0116	-20.4839	26.9202	20.0778	0.1930	-0.1969	0.7528	-0.5976
1.6	-0.5406	-9.4031	-2.0347	0.0197	-0.0047	0.0049	-20.5555	26.8030	20.0755	0.1930	-0.1969	0.7529	-0.5976
1.61	-0.5419	-9.4008	-2.0364	0.0175	-0.0046	0.0068	-20.5807	26.7261	20.1312	0.1930	-0.1970	0.7529	-0.5976
1.62	-0.5403	-9.4064	-2.0389	0.0187	-0.0034	0.0080	-20.3996	26.8351	20.2158	0.1930	-0.1970	0.7528	-0.5976
1.63	-0.5399	-9.3995	-2.0401	0.0250	-0.0019	0.0093	-20.6385	26.6802	19.9363	0.1930	-0.1970	0.7529	-0.5977
1.64	-0.5380	-9.3963	-2.0422	0.0227	0.0037	0.0066	-20.5511	26.7209	20.2068	0.1930	-0.1970	0.7528	-0.5976
1.65	-0.5368	-9.4070	-2.0426	0.0190	-0.0048	0.0094	-20.4949	26.7156	20.0426	0.1930	-0.1970	0.7529	-0.5977
1.66	-0.5369	-9.4009	-2.0445	0.0186	-0.0067	0.0076	-20.5327	26.7032	19.9704	0.1930	-0.1970	0.7528	-0.5976
1.67	-0.5318	-9.3993	-2.0498	0.0214	-0.0025	0.0107	-20.4869	26.8354	20.1268	0.1930	-0.1970	0.7529	-0.5976
1.68	-0.5317	-9.4017	-2.0513	0.0204	0.0006	0.0083	-20.2466	26.8931	20.2315	0.1930	-0.1970	0.7528	-0.5976
1.69	-0.5339	-9.4078	-2.0538	0.0196	-0.0012	0.0109	-20.1110	26.8565	20.5547	0.1929	-0.1970	0.7528	-0.5976
1.7	-0.5341	-9.4048	-2.0532	0.0200	-0.0091	0.0138	-20.3316	26.9592	20.1193	0.1930	-0.1971	0.7529	-0.5976
1.71	-0.5279	-9.4067	-2.0588	0.0195	-0.0126	0.0087	-20.4348	27.2777	20.0504	0.1930	-0.1971	0.7528	-0.5976
1.72	-0.5287	-9.4061	-2.0624	0.0201	-0.0078	0.0117	-20.5486	27.5858	20.1720	0.1930	-0.1971	0.7529	-0.5976
1.73	-0.5287	-9.4045	-2.0611	0.0221	-0.0012	0.0132	-20.6220	26.8476	20.1453	0.1930	-0.1971	0.7528	-0.5975
1.74	-0.5274	-9.4013	-2.0586	0.0218	-0.0078	0.0124	-20.6351	26.9151	20.1521	0.1931	-0.1971	0.7529	-0.5976
1.75	-0.5305	-9.4030	-2.0575	0.0191	-0.0021	0.0127	-20.7100	26.7783	20.0356	0.1931	-0.1971	0.7528	-0.5976
1.76	-0.5306	-9.4043	-2.0567	0.0209	0.0004	0.0133	-20.6982	27.1720	20.0836	0.1931	-0.1971	0.7529	-0.5976
1.77	-0.5340	-9.3982	-2.0433	0.0212	-0.0015	0.0106	-20.6865	27.0627	20.0450	0.1931	-0.1971	0.7528	-0.5976
1.78	-0.5384	-9.4009	-2.0392	0.0218	0.0041	0.0101	-20.6090	26.8487	20.0940	0.1930	-0.1971	0.7529	-0.5976
1.79	-0.5428	-9.4058	-2.0456	0.0293	-0.0071	0.0136	-20.5695	26.9757	20.0176	0.1931	-0.1971	0.7528	-0.5976
1.8	-0.5446	-9.4015	-2.0359	0.0205	-0.0081	0.0124	-20.5132	26.7287	19.8910	0.1931	-0.1971	0.7528	-0.5976
1.81	-0.5464	-9.4005	-2.0311	0.0260	-0.0073	0.0131	-20.5317	26.6766	20.0052	0.1931	-0.1971	0.7529	-0.5976
1.82	-0.5460	-9.4045	-2.0312	0.0198	-0.0008	0.0151	-20.4052	26.7623	19.9928	0.1931	-0.1971	0.7528	-0.5976
1.83	-0.5479	-9.4049	-2.0299	0.0257	0.0022	0.0146	-20.4950	26.5462	19.9906	0.1931	-0.1970	0.7529	-0.5977
1.84	-0.5408	-9.3993	-2.0254	0.0249	-0.0005	0.0115	-20.3341	26.7574	20.0061	0.1931	-0.1970	0.7528	-0.5976
1.85	-0.5414	-9.4042	-2.0354	0.0253	0.0063	0.0125	-20.3189	27.0948	19.9545	0.1931	-0.1970	0.7528	-0.5977
1.86	-0.5375	-9.4055	-2.0441	0.0267	0.0044	0.0145	-20.3695	26.6818	19.9156	0.1931	-0.1969	0.7528	-0.5977
1.87	-0.5324	-9.3988	-2.0305	0.0207	-0.0022	0.0132	-20.4347	26.7392	20.1227	0.1931	-0.1969	0.7528	-0.5977
1.88	-0.5409	-9.4045	-2.0339	0.0229	-0.0007	0.0126	-20.5450	26.7317	19.9449	0.1931	-0.1969	0.7529	-0.5977
1.89	-0.5405	-9.4088	-2.0285	0.0223	-0.0040	0.0129	-20.4137	26.5450	19.9182	0.1931	-0.1969	0.7528	-0.5977
1.9	-0.5433	-9.4000	-2.0239	0.0192	-0.0037	0.0123	-20.4985	26.8180	20.0841	0.1931	-0.1969	0.7528	-0.5977
1.91	-0.5449	-9.4001	-2.0333	0.0200	0.0073	0.0134	-20.7198	26.9215	20.0648	0.1931	-0.1969	0.7528	-0.5976
1.92	-0.5427	-9.4044	-2.0458	0.0199	0.0065	0.0134	-20.5592	26.7786	20.0740	0.1931	-0.1968	0.7528	-0.5977
1.93	-0.5459	-9.4002	-2.0496	0.0192	0.0043	0.0158	-20.5507	26.7629	19.9172	0.1931	-0.1968	0.7528	-0.5977
1.94	-0.5417	-9.4038	-2.0442	0.0198	-0.0031	0.0131	-20.7094	26.9165	20.1774	0.1931	-0.1968	0.7528	-0.5977
1.95	-0.5392	-9.4041	-2.0473	0.0201	0.0016	0.0120	-20.6967	26.9123	20.0422	0.1931	-0.1968	0.7529	-0.5977
1.96	-0.5372	-9.3974	-2.0501	0.0215	-0.0044	0.0134	-20.6814	26.8891	19.9921	0.1931	-0.1968	0.7529	-0.5977
1.97	-0.5358	-9.3961	-2.0558	0.0202	-0.0039	0.0120	-20.7253	26.7782	20.1259	0.1931	-0.1968	0.7529	-0.5977
1.98	-0.5361	-9.3984	-2.0614	0.0284	-0.0061	0.0140	-20.5867	26.9342	19.9631	0.1931	-0.1968	0.7528	-0.5976
1.99	-0.5401	-9.4043	-2.0609	0.0258	0.0018	0.0144	-20.6537	26.7824	19.8940	0.1931	-0.1967	0.7529	-0.5977
2	-0.5417	-9.4006	-2.0572	0.0229	-0.0057	0.0147	-20.4944	26.2916	20.0774	0.1931	-0.1967	0.7528	-0.5977
2.01	-0.5428	-9.4070	-2.0665	0.0185	-0.0061	0.0152	-20.2665	26.7388	20.0938	0.1932	-0.1967	0.7529	-0.5977
2.02	-0.5440	-9.4036	-2.0653	0.0210	-0.0023	0.0097	-20.2903	26.7589	20.0812	0.1931	-0.1967	0.7528	-0.5977
2.03	-0.5461	-9.4015	-2.0638	0.0206	-0.0022	0.0126	-20.4415	26.6449	19.9461	0.1931	-0.1967	0.7528	-0.5977
2.04	-0.5481	-9.4053	-2.0623	0.0192	-0.0028	0.0129	-20.5493	26.8403	19.8745	0.1932	-0.1967	0.7529	-0.5977
2.05	-0.5451	-9.4025	-2.0561	0.0214	-0.0085	0.0118	-20.2440	26.8277	19.9862	0.1932	-0.1967	0.7528	-0.5976
2.06	-0.5440	-9.3999	-2.0431	0.0210	-0.0072	0.0107	-20.4125	26.7326	20.0095	0.1932	-0.1968	0.7529	-0.5977
2.07	-0.5385	-9.4030	-2.0322	0.0195	-0.0104	0.0118	-20.4625	26.9064	19.8032	0.1932	-0.1968	0.7528	-0.5976
2.08	-0.5328	-9.4052	-2.0260	0.0219	-0.0029	0.0147	-20.4416	26.8682	19.8864	0.1933	-0.1968	0.7529	-0.5977
2.09	-0.5360	-9.4055	-2.0183	0.0193	-0.0035	0.0080	-20.4571	26.7039	19.9806	0.1932	-0.1968	0.7528	-0.5976
2.1	-0.5338	-9.4030	-2.0167	0.0202	-0.0032	0.0128	-20.4341	27.0095	20.0372	0.1932	-0.1968	0.7528	-0.5976
2.11	-0.5280	-9.3995	-2.0144	0.0184	-0.0044	0.0106	-20.5194	26.9331	20.0165	0.1933	-0.1968	0.7529	-0.5976
2.12	-0.5334	-9.4035	-2.0194	0.0208	0.0025	0.0090	-20.8165	26.8969	20.0364	0.1932	-0.1968	0.7528	-0.5976
2.13	-0.5344	-9.4034	-2.0256	0.0208	-0.0046	0.0133	-20.5654	26.9057	20.1729	0.1933	-0.1968	0.7529	-0.5977
2.14	-0.5356	-9.4025	-2.0306	0.0225	-0.0060	0.0126	-20.5607	26.9375	20.1826	0.1933	-0.1968	0.7528	-0.5976
2.15	-0.5385	-9.4087	-2.0386	0.0206	0.0045	0.0108	-20.6427	27.0319	20.0219	0.1932	-0.1968	0.7529	-0.5977
2.16	-0.5382	-9.4007	-2.0355	0.0198	0.0009	0.0058	-20.5872	26.8835	19.9626	0.1932	-0.1968	0.7528	-0.5976
2.17	-0.5314	-9.3961	-2.0329	0.0187	0.0002	0.0132	-20.6528	26.8173	19.9935	0.1932	-0.1968	0.7529	-0.5976
2.18	-0.5300	-9.4051	-2.0428	0.0204	-0.0005	0.0127	-20.4982	26.6936	20.1918	0.1932	-0.1968	0.7529	-0.5976
2.19	-0.5258	-9.4066	-2.0420	0.0174	-0.0123	0.0107	-19.6754	26.8551	20.3161	0.1932	-0.1968	0.7529	-0.5976
2.2	-0.5239	-9.4051	-2.0444	0.0209	-0.0074	0.0110	-20.0733	26.7088	20.3039	0.1932	-0.1968	0.7529	-0.5976
2.21	-0.5235	-9.4024	-2.0451	0.0204	-0.0070	0.0127	-20.2772	27.0190	20.1013	0.1933	-0.1968	0.7529	-0.5976
2.22	-0.5256	-9.4052	-2.0527	0.0168	-0.0053	0.0140	-20.3160	27.4516	19.8807	0.1933	-0.1968	0.7529	-0.5976
2.23	-0.5243	-9.4029	-2.0630	0.0200	-0.0024	0.0079	-20.4602	26.6584	19.8956	0.1933	-0.1968	0.7528	-0.5975
2.24	-0.5293	-9.4036	-2.0655	0.0198	-0.0082	0.0110	-20.1966	26.8720	19.9391	0.1933	-0.1968	0.7529	-0.5976
2.25	-0.5365	-9.4050	-2.0647	0.0176	-0.0097	0.0101	-20.4621	26.7951	20.1482	0.1933	-0.1969	0.7529	-0.5975
2.26	-0.5446	-9.4058	-2.0655	0.0221	0.0002	0.0119	-20.3156	26.8403	19.9710	0.1933	-0.1969	0.7529	-0.5975
2.27	-0.5560	-9.3947	-2.0702	0.0199	0.0020	0.0119	-20.5253	26.8069	20.1781	0.1933	-0.1968	0.7529	-0.5975
2.28	-0.5618	-9.4018	-2.0749	0.0209	0.0001	0.0132	-20.6075	26.9415	20.1656	0.1933	-0.1968	0.7529	-0.5975
2.29	-0.5644	-9.4038	-2.0745	0.0185	-0.0014	0.0110	-20.3934	26.8367	19.9378	0.1933	-0.1968	0.7529	-0.5975
2.3	-0.5632	-9.3981	-2.0659	0.0210	-0.0013	0.0109	-20.5046	26.8073	19.8837	0.1933	-0.1968	0.7529	-0.5975
2.31	-0.5621	-9.3956	-2.0627	0.0224	-0.0083	0.0046	-20.5812	26.8182	20.0088	0.1933	-0.1969	0.7529	-0.5975
2.32	-0.5608	-9.4020	-2.0427	0.0211	-0.0041	0.0121	-20.4764	26.8218	19.8466	0.1933	-0.1969	0.7529	-0.5975
2.33	-0.5600	-9.4019	-2.0330	0.0191	-0.0016	0.0091	-20.5139	26.8076	20.0048	0.1933	-0.1969	0.7530	-0.5976
2.34	-0.5524	-9.3988	-2.0260	0.0257	-0.0088	0.0117	-20.4888	26.9111	19.9637	0.1933	-0.1969	0.7528	-0.5975
2.35	-0.5473	-9.4032	-2.0291	0.0208	-0.0033	0.0138	-20.5155	26.8919	20.1541	0.1933	-0.1969	0.7529	-0.5975
2.36	-0.5462	-9.4022	-2.0289	0.0194	-0.0079	0.0110	-20.4960	26.9265	20.1113	0.1933	-0.1969	0.7529	-0.5975
2.37	-0.5432	-9.4017	-2.0283	0.0200	-0.0075	0.0098	-20.5186	26.7643	20.0769	0.1933	-0.1969	0.7528	-0.5975
2.38	-0.5374	-9.4027	-2.0293	0.0198	-0.0035	0.0072	-20.3947	26.6053	19.9801	0.1934	-0.1969	0.7529	-0.5975
2.39	-0.5316	-9.4069	-2.0265	0.0198	-0.0024	0.0097	-20.4471	26.7354	20.0437	0.1933	-0.1969	0.7529	-0.5975
2.4	-0.5283	-9.4028	-2.0270	0.0199	0.0011	0.0116	-20.3618	26.8720	20.0561	0.1933	-0.1969	0.7529	-0.5975
2.41	-0.5213	-9.3958	-2.0201	0.0185	-0.0055	0.0104	-20.3235	26.7023	19.8678	0.1933	-0.1969	0.7528	-0.5974
2.42	-0.5138	-9.4037	-2.0257	0.0195	-0.0019	0.0110	-20.4534	26.8713	20.0539	0.1933	-0.1969	0.7529	-0.5975
2.43	-0.5120	-9.4000	-2.0271	0.0206	-0.0019	0.0128	-20.5295	26.9083	20.0571	0.1933	-0.1969	0.7529	-0.5975
2.44	-0.5100	-9.4005	-2.0220	0.0192	-0.0073	0.0119	-20.4503	26.8969	19.8617	0.1934	-0.1969	0.7529	-0.5974
2.45	-0.5133	-9.4071	-2.0232	0.0199	-0.0023	0.0135	-20.6507	26.9882	20.0306	0.1934	-0.1969	0.7529	-0.5975
2.46	-0.5217	-9.4051	-2.0220	0.0193	-0.0018	0.0119	-20.4640	26.8698	20.0598	0.1934	-0.1969	0.7529	-0.5974
2.47	-0.5252	-9.4004	-2.0159	0.0219	-0.0014	0.0121	-20.3222	26.7508	19.9627	0.1934	-0.1969	0.7530	-0.5975
2.48	-0.5306	-9.4007	-2.0226	0.0192	0.0005	0.0053	-20.6149	26.7288	20.0907	0.1933	-0.1969	0.7529	-0.5974
2.49	-0.5352	-9.4018	-2.0250	0.0172	-0.0045	0.0095	-20.4822	26.8187	19.9831	0.1933	-0.1970	0.7530	-0.5974
2.5	-0.5366	-9.3955	-2.0292	0.0205	-0.0033	0.0117	-20.6283	26.8547	19.9680	0.1933	-0.1970	0.7529	-0.5974
2.51	-0.5426	-9.4011	-2.0322	0.0179	-0.0052	0.0106	-20.5162	26.9222	20.0693	0.1933	-0.1970	0.7530	-0.5974
2.52	-0.5432	-9.3996	-2.0360	0.0194	-0.0055	0.0122	-20.4027	26.8861	20.0761	0.1934	-0.1970	0.7529	-0.5974
2.53	-0.5439	-9.4046	-2.0412	0.0194	-0.0008	0.0086	-20.5668	27.0285	19.8367	0.1933	-0.1970	0.7530	-0.5974
2.54	-0.5463	-9.4043	-2.0485	0.0177	-0.0063	0.0094	-20.5386	26.9213	19.9584	0.1933	-0.1970	0.7530	-0.5974
2.55	-0.5466	-9.4024	-2.0538	0.0210	-0.0112	0.0103	-20.4907	26.8822	20.0828	0.1934	-0.1970	0.7529	-0.5973
2.56	-0.5463	-9.4086	-2.0571	0.0196	-0.0005	0.0082	-20.4178	27.0183	20.0660	0.1934	-0.1970	0.7530	-0.5974
2.57	-0.5469	-9.4045	-2.0501	0.0199	0.0008	0.0130	-20.4270	26.8107	19.8000	0.1934	-0.1970	0.7530	-0.5974
2.58	-0.5446	-9.4019	-2.0458	0.0185	0.0039	0.0139	-20.3709	26.8779	19.8744	0.1934	-0.1970	0.7530	-0.5974
2.59	-0.5436	-9.4052	-2.0500	0.0186	-0.0052	0.0101	-20.3059	26.5997	20.0250	0.1933	-0.1970	0.7529	-0.5973
2.6	-0.5449	-9.4024	-2.0568	0.0195	-0.0023	0.0126	-20.4966	26.7512	19.9707	0.1933	-0.1970	0.7530	-0.5973
2.61	-0.5408	-9.3985	-2.0649	0.0216	0.0030	0.0132	-20.4485	26.9322	19.8658	0.1933	-0.1970	0.7530	-0.5973
2.62	-0.5427	-9.4028	-2.0681	0.0197	0.0022	0.0129	-20.4009	26.6818	19.9971	0.1933	-0.1969	0.7530	-0.5973
2.63	-0.5457	-9.4049	-2.0654	0.0198	-0.0087	0.0126	-20.5133	26.8690	20.0871	0.1934	-0.1970	0.7531	-0.5974
2.64	-0.5451	-9.4002	-2.0588	0.0186	-0.0058	0.0103	-20.3916	26.9080	19.8079	0.1934	-0.1970	0.7530	-0.5973
2.65	-0.5469	-9.4057	-2.0655	0.0204	-0.0043	0.0085	-20.6356	26.8921	20.0708	0.1934	-0.1970	0.7531	-0.5973
2.66	-0.5485	-9.4020	-2.0627	0.0224	0.0028	0.0065	-20.3951	26.9795	20.0668	0.1933	-0.1970	0.7529	-0.5973
2.67	-0.5458	-9.3956	-2.0439	0.0199	-0.0001	0.0052	-20.4543	26.9988	20.1057	0.1933	-0.1970	0.7530	-0.5973
2.68	-0.5479	-9.3995	-2.0457	0.0245	0.0036	0.0078	-20.3445	26.8068	20.3408	0.1933	-0.1970	0.7530	-0.5974
2.69	-0.5463	-9.4064	-2.0343	0.0195	0.0014	0.0145	-19.9011	26.8688	20.0985	0.1933	-0.1970	0.7530	-0.5973
2.7	-0.5490	-9.3933	-2.0159	0.0205	-0.0055	0.0121	-20.1889	27.0550	20.2300	0.1933	-0.1970	0.7530	-0.5974
2.71	-0.5450	-9.3972	-2.0103	0.0201	-0.0003	0.0142	-20.4585	27.2325	20.2871	0.1933	-0.1970	0.7530	-0.5973
2.72	-0.5443	-9.4037	-2.0135	0.0178	-0.0028	0.0121	-20.6872	27.6300	20.1286	0.1933	-0.1970	0.7531	-0.5973
2.73	-0.5423	-9.4029	-2.0156	0.0220	-0.0013	0.0136	-20.5333	26.9516	20.1451	0.1933	-0.1970	0.7530	-0.5973
2.74	-0.5383	-9.3994	-2.0166	0.0198	-0.0046	0.0142	-20.5706	26.7404	20.1583	0.1933	-0.1970	0.7531	-0.5973
2.75	-0.5387	-9.4055	-2.0260	0.0196	0.0033	0.0121	-20.3315	26.6567	20.0162	0.1933	-0.1969	0.7530	-0.5973
2.76	-0.5358	-9.4074	-2.0391	0.0203	0.0004	0.0155	-20.3597	26.7796	20.1939	0.1933	-0.1969	0.7531	-0.5973
2.77	-0.5337	-9.3977	-2.0514	0.0199	-0.0027	0.0108	-20.3833	26.6117	20.0428	0.1933	-0.1969	0.7530	-0.5973
2.78	-0.5285	-9.4091	-2.0586	0.0197	-0.0048	0.0119	-20.2856	26.6779	19.8800	0.1933	-0.1969	0.7531	-0.5973
2.79	-0.5251	-9.4108	-2.0765	0.0184	-0.0112	0.0120	-20.4366	26.6109	20.0782	0.1933	-0.1969	0.7531	-0.5973
2.8	-0.5225	-9.3990	-2.0776	0.0156	-0.0086	0.0122	-20.2725	26.8203	20.0872	0.1933	-0.1969	0.7530	-0.5972
2.81	-0.5239	-9.4011	-2.0858	0.0189	-0.0081	0.0108	-20.4187	26.8215	19.9477	0.1934	-0.1970	0.7531	-0.5973
2.82	-0.5244	-9.4086	-2.1034	0.0217	-0.0120	0.0068	-20.6150	26.8069	20.1998	0.1934	-0.1970	0.7530	-0.5972
2.83	-0.5254	-9.4047	-2.0965	0.0186	-0.0100	0.0158	-20.6313	26.8009	20.2076	0.1934	-0.1971	0.7531	-0.5973
2.84	-0.5360	-9.3991	-2.0927	0.0159	-0.0043	0.0168	-20.6203	26.8866	20.0292	0.1934	-0.1970	0.7530	-0.5972
2.85	-0.5442	-9.4056	-2.0919	0.0197	-0.0051	0.0108	-20.7469	27.0085	20.3158	0.1935	-0.1970	0.7531	-0.5972
2.86	-0.5458	-9.4055	-2.0846	0.0207	-0.0093	0.0107	-20.6532	26.9132	20.1296	0.1935	-0.1971	0.7531	-0.5972
2.87	-0.5489	-9.4035	-2.0706	0.0190	-0.0061	0.0107	-20.6045	26.8789	19.9466	0.1935	-0.1971	0.7530	-0.5971
2.88	-0.5485	-9.4059	-2.0590	0.0210	-0.0066	0.0092	-20.6445	26.9019	20.0063	0.1935	-0.1971	0.7531	-0.5972
2.89	-0.5385	-9.4010	-2.0450	0.0212	-0.0065	0.0122	-20.5919	27.0130	20.0556	0.1935	-0.1971	0.7531	-0.5971
2.9	-0.5350	-9.4022	-2.0263	0.0222	-0.0091	0.0136	-20.5034	26.9002	20.1316	0.1936	-0.1971	0.7531	-0.5972
2.91	-0.5201	-9.4021	-2.0173	0.0199	-0.0096	0.0138	-20.7166	26.8968	20.1579	0.1936	-0.1971	0.7530	-0.5971
2.92	-0.5167	-9.4044	-2.0081	0.0204	-0.0097	0.0115	-20.8125	26.7648	20.1512	0.1936	-0.1971	0.7531	-0.5971
2.93	-0.5205	-9.4058	-1.9985	0.0279	-0.0133	0.0158	-20.4352	26.7312	20.1477	0.1937	-0.1971	0.7530	-0.5971
2.94	-0.5270	-9.3948	-1.9906	0.0224	-0.0060	0.0109	-20.3702	26.9425	20.2438	0.1937	-0.1972	0.7530	-0.5971
2.95	-0.5340	-9.4016	-1.9835	0.0205	-0.0064	0.0110	-20.3946	26.6858	20.1622	0.1937	-0.1972	0.7530	-0.5971
2.96	-0.5437	-9.4020	-1.9832	0.0168	-0.0046	0.0128	-20.2622	26.5372	20.0375	0.1937	-0.1972	0.7530	-0.5971
2.97	-0.5543	-9.3951	-1.9756	0.0190	-0.0064	0.0111	-20.5473	26.5968	20.1249	0.1937	-0.1972	0.7531	-0.5971
2.98	-0.5573	-9.3975	-1.9788	0.0203	-0.0040	0.0113	-20.5371	26.8396	19.9371	0.1937	-0.1972	0.7530	-0.5970
2.99	-0.5562	-9.4089	-1.9878	0.0236	-0.0054	0.0140	-20.4647	26.6780	20.0523	0.1938	-0.1972	0.7531	-0.5971
3	-0.5517	-9.3977	-1.9973	0.0202	-0.0047	0.0123	-20.4233	26.5179	20.1623	0.1938	-0.1972	0.7530	-0.5971
3.01	-0.5464	-9.3932	-2.0016	0.0185	-0.0070	0.0131	-20.3616	26.6423	20.0159	0.1938	-0.1972	0.7530	-0.5971
3.02	-0.5375	-9.4040	-2.0246	0.0205	-0.0063	0.0085	-20.4669	26.7407	20.2926	0.1938	-0.1972	0.7530	-0.5971
3.03	-0.5337	-9.4020	-2.0332	0.0174	-0.0013	0.0104	-20.6188	26.8325	20.0843	0.1938	-0.1972	0.7530	-0.5971
3.04	-0.5327	-9.3990	-2.0340	0.0197	-0.0024	0.0142	-20.7355	26.9702	20.0557	0.1938	-0.1972	0.7531	-0.5971
3.05	-0.5357	-9.4051	-2.0571	0.0192	0.0040	0.0156	-20.6846	26.8996	20.0719	0.1938	-0.1972	0.7530	-0.5970
3.06	-0.5400	-9.4089	-2.0657	0.0197	0.0004	0.0126	-20.7113	26.7808	20.0509	0.1938	-0.1972	0.7531	-0.5971
3.07	-0.5451	-9.3992	-2.0625	0.0191	-0.0033	0.0124	-20.5694	26.8279	20.0951	0.1938	-0.1972	0.7531	-0.5970
3.08	-0.5491	-9.3989	-2.0640	0.0214	-0.0020	0.0051	-20.5155	26.7831	20.2565	0.1938	-0.1972	0.7531	-0.5971
3.09	-0.5484	-9.4079	-2.0724	0.0160	-0.0062	0.0146	-20.7282	26.9126	20.1610	0.1938	-0.1972	0.7530	-0.5970
3.1	-0.5455	-9.4042	-2.0694	0.0229	-0.0109	0.0127	-20.5748	26.8592	20.1282	0.1938	-0.1972	0.7531	-0.5970
3.11	-0.5419	-9.3918	-2.0636	0.0226	-0.0045	0.0107	-20.5466	26.8042	20.2372	0.1938	-0.1972	0.7531	-0.5970
3.12	-0.5366	-9.4013	-2.0743	0.0220	-0.0123	0.0144	-20.4929	26.7557	20.1876	0.1939	-0.1972	0.7530	-0.5970
3.13	-0.5301	-9.4102	-2.0732	0.0220	-0.0111	0.0122	-20.3462	26.5280	19.9660	0.1939	-0.1973	0.7531	-0.5971
3.14	-0.5247	-9.3998	-2.0609	0.0188	-0.0068	0.0112	-20.4211	26.5988	20.1324	0.1939	-0.1972	0.7530	-0.5970
3.15	-0.5240	-9.4080	-2.0566	0.0202	-0.0043	0.0108	-20.2911	26.7259	20.0041	0.1939	-0.1973	0.7531	-0.5970
3.16	-0.5252	-9.4103	-2.0535	0.0194	-0.0105	0.0121	-20.3788	26.8114	19.9528	0.1940	-0.1973	0.7530	-0.5969
3.17	-0.5293	-9.3992	-2.0424	0.0200	-0.0053	0.0129	-20.5881	26.7153	20.2603	0.1940	-0.1973	0.7531	-0.5970
3.18	-0.5253	-9.3980	-2.0433	0.0195	-0.0045	0.0089	-20.1936	26.7384	20.3342	0.1940	-0.1973	0.7530	-0.5970
3.19	-0.5323	-9.4113	-2.0384	0.0199	-0.0045	0.0098	-19.8416	26.9822	20.1182	0.1940	-0.1973	0.7530	-0.5969
3.2	-0.5321	-9.4040	-2.0367	0.0192	0.0016	0.0076	-20.2247	26.8231	20.0262	0.1940	-0.1973	0.7531	-0.5970
3.21	-0.5318	-9.3953	-2.0331	0.0214	0.0033	0.0097	-20.4310	27.0479	19.9525	0.1939	-0.1973	0.7530	-0.5970
3.22	-0.5338	-9.4065	-2.0339	0.0200	-0.0068	0.0134	-20.3181	27.6966	20.0399	0.1940	-0.1973	0.7531	-0.5970
3.23	-0.5390	-9.4029	-2.0330	0.0197	-0.0019	0.0101	-20.5252	26.8642	20.2054	0.1939	-0.1973	0.7530	-0.5969
3.24	-0.5413	-9.3945	-2.0243	0.0195	0.0070	0.0075	-20.6108	26.6942	20.1569	0.1939	-0.1973	0.7531	-0.5970
3.25	-0.5457	-9.3976	-2.0172	0.0198	-0.0006	0.0071	-20.5427	26.8514	20.1064	0.1939	-0.1973	0.7531	-0.5970
3.26	-0.5510	-9.4075	-2.0209	0.0188	0.0029	0.0077	-20.4911	26.9289	20.0111	0.1939	-0.1973	0.7531	-0.5970
3.27	-0.5554	-9.4024	-2.0240	0.0205	-0.0001	0.0075	-20.5091	26.9273	20.1133	0.1938	-0.1973	0.7531	-0.5970
3.28	-0.5509	-9.3974	-2.0252	0.0167	-0.0022	0.0042	-20.5215	26.7479	20.1843	0.1938	-0.1973	0.7531	-0.5970
3.29	-0.5532	-9.4025	-2.0309	0.0142	-0.0060	0.0059	-20.4681	26.8512	20.0634	0.1938	-0.1974	0.7531	-0.5969
3.3	-0.5500	-9.4008	-2.0294	0.0175	-0.0084	0.0098	-20.3374	26.9458	20.1240	0.1938	-0.1974	0.7530	-0.5969
3.31	-0.5471	-9.3951	-2.0280	0.0185	-0.0021	0.0122	-20.3411	26.8184	20.0861	0.1938	-0.1974	0.7532	-0.5969
3.32	-0.5434	-9.4003	-2.0353	0.0175	-0.0029	0.0055	-20.3777	26.8128	19.9759	0.1938	-0.1974	0.7531	-0.5969
3.33	-0.5428	-9.4075	-2.0420	0.0159	-0.0056	0.0093	-20.4600	26.7056	20.1108	0.1938	-0.1974	0.7532	-0.5969
3.34	-0.5405	-9.4003	-2.0425	0.0183	-0.0091	0.0122	-20.3181	26.8605	20.0225	0.1938	-0.1974	0.7531	-0.5968
3.35	-0.5374	-9.4011	-2.0534	0.0212	-0.0089	0.0052	-20.4710	26.8151	19.8832	0.1938	-0.1975	0.7531	-0.5969
3.36	-0.5370	-9.4108	-2.0682	0.0193	-0.0061	0.0078	-20.5139	26.6961	19.8166	0.1938	-0.1975	0.7531	-0.5969
3.37	-0.5374	-9.4046	-2.0738	0.0201	-0.0021	0.0137	-20.4928	26.9104	19.9205	0.1938	-0.1975	0.7531	-0.5968
3.38	-0.5348	-9.3969	-2.0656	0.0196	-0.0069	0.0102	-20.5184	26.9165	19.9391	0.1939	-0.1975	0.7532	-0.5969
3.39	-0.5347	-9.4045	-2.0589	0.0196	-0.0092	0.0133	-20.4654	26.6515	19.9169	0.1939	-0.1975	0.7531	-0.5968
3.4	-0.5285	-9.4091	-2.0633	0.0197	-0.0051	0.0101	-20.3888	26.7225	20.2029	0.1939	-0.1976	0.7532	-0.5969
3.41	-0.5274	-9.3948	-2.0515	0.0180	-0.0040	0.0119	-20.5885	26.8420	20.0922	0.1939	-0.1975	0.7531	-0.5968
3.42	-0.5304	-9.3993	-2.0477	0.0192	-0.0010	0.0075	-20.7034	26.8229	20.0090	0.1939	-0.1976	0.7531	-0.5968
3.43	-0.5344	-9.4090	-2.0521	0.0219	-0.0035	0.0106	-20.7720	26.9906	20.1265	0.1939	-0.1976	0.7531	-0.5968
3.44	-0.5373	-9.3974	-2.0361	0.0198	-0.0034	0.0075	-20.6866	26.9204	20.0606	0.1939	-0.1976	0.7531	-0.5968
3.45	-0.5408	-9.3988	-2.0428	0.0200	0.0018	0.0073	-20.5587	26.8983	20.2204	0.1938	-0.1976	0.7531	-0.5968
3.46	-0.5436	-9.4095	-2.0547	0.0195	-0.0032	0.0117	-20.6384	26.7995	20.1522	0.1938	-0.1976	0.7531	-0.5968
3.47	-0.5469	-9.4034	-2.0552	0.0209	0.0013	0.0068	-20.4618	26.8696	20.2718	0.1938	-0.1976	0.7532	-0.5968
3.48	-0.5447	-9.3949	-2.0558	0.0190	-0.0059	0.0097	-20.4184	26.6403	20.2281	0.1938	-0.1976	0.7531	-0.5968
3.49	-0.5461	-9.4056	-2.0549	0.0214	0.0011	0.0089	-20.5075	26.7815	19.8307	0.1938	-0.1976	0.7532	-0.5968
3.5	-0.5421	-9.4072	-2.0550	0.0203	-0.0056	0.0080	-20.3882	26.9906	20.0489	0.1938	-0.1976	0.7531	-0.5968
3.51	-0.5410	-9.3954	-2.0484	0.0194	-0.0073	0.0076	-20.4683	26.7519	20.1223	0.1938	-0.1977	0.7531	-0.5968
3.52	-0.5394	-9.4012	-2.0400	0.0200	0.0003	0.0111	-20.2364	26.7436	20.1023	0.1938	-0.1976	0.7531	-0.5968
3.53	-0.5378	-9.4095	-2.0462	0.0198	-0.0075	0.0132	-20.2850	26.6468	20.2299	0.1938	-0.1976	0.7531	-0.5968
3.54	-0.5397	-9.3985	-2.0389	0.0202	0.0026	0.0142	-20.4539	26.8967	20.1414	0.1938	-0.1976	0.7532	-0.5968
3.55	-0.5390	-9.3961	-2.0330	0.0195	-0.0035	0.0083	-20.6136	26.8574	19.9859	0.1938	-0.1976	0.7531	-0.5968
3.56	-0.5415	-9.4068	-2.0322	0.0188	-0.0112	0.0100	-20.4691	26.7009	20.0539	0.1938	-0.1977	0.7532	-0.5968
3.57	-0.5364	-9.3999	-2.0275	0.0192	-0.0028	0.0139	-20.5488	26.8160	19.9411	0.1938	-0.1977	0.7531	-0.5968
3.58	-0.5290	-9.3953	-2.0187	0.0197	-0.0119	0.0097	-20.6128	27.0294	19.9854	0.1939	-0.1977	0.7532	-0.5968
3.59	-0.5219	-9.4007	-2.0248	0.0198	-0.0102	0.0095	-20.4993	26.8826	20.0194	0.1939	-0.1977	0.7531	-0.5967
3.6	-0.5155	-9.4069	-2.0198	0.0197	-0.0041	0.0130	-20.5023	26.9431	20.0237	0.1939	-0.1977	0.7531	-0.5967
3.61	-0.5090	-9.4059	-2.0099	0.0204	-0.0009	0.0059	-20.5452	26.8425	20.1265	0.1939	-0.1977	0.7531	-0.5967
3.62	-0.5139	-9.3987	-1.9909	0.0163	0.0014	0.0119	-20.6328	26.8388	20.0845	0.1938	-0.1977	0.7531	-0.5967
3.63	-0.5427	-9.3960	-1.9706	0.0171	-0.0001	0.0081	-20.4480	26.8060	20.1171	0.1938	-0.1977	0.7532	-0.5968
3.64	-0.5483	-9.4074	-1.9746	0.0196	-0.0037	0.0084	-20.4810	26.7801	19.9665	0.1938	-0.1977	0.7532	-0.5967
3.65	-0.5592	-9.3778	-1.9611	0.0147	-0.0050	0.0117	-20.6864	27.0092	20.1002	0.1938	-0.1978	0.7532	-0.5967
3.66	-0.5755	-9.3901	-1.9814	0.0171	-0.0009	0.0116	-20.6008	26.6004	20.0908	0.1938	-0.1977	0.7531	-0.5966
3.67	-0.5835	-9.4002	-2.0101	0.0107	-0.0068	0.0094	-20.5499	26.8156	20.1236	0.1938	-0.1978	0.7532	-0.5967
3.68	-0.5759	-9.3918	-2.0317	0.0120	-0.0032	0.0133	-20.2206	26.8169	20.4118	0.1938	-0.1978	0.7532	-0.5966
3.69	-0.5489	-9.3920	-2.0339	0.0163	-0.0052	0.0079	-20.1088	26.8877	20.5385	0.1938	-0.1978	0.7532	-0.5966
3.7	-0.5095	-9.4231	-2.0644	0.0209	-0.0029	0.0102	-20.3061	26.8212	20.2634	0.1938	-0.1978	0.7533	-0.5966
3.71	-0.4589	-9.4078	-2.0488	0.0190	-0.0103	0.0147	-20.2929	26.9637	19.7613	0.1939	-0.1978	0.7532	-0.5966
3.72	-0.4132	-9.4002	-2.0327	0.0195	-0.0038	0.0090	-20.1936	27.4428	19.9187	0.1939	-0.1978	0.7533	-0.5966
3.73	-0.3877	-9.4266	-2.0300	0.0152	0.0046	0.0140	-20.4254	26.6639	20.0285	0.1938	-0.1978	0.7532	-0.5965
3.74	-0.3862	-9.4130	-1.9842	0.0209	-0.0127	0.0154	-20.3499	26.6923	19.7208	0.1939	-0.1978	0.7533	-0.5966
3.75	-0.4285	-9.3846	-1.9389	0.0167	-0.0049	0.0117	-20.4466	26.6055	20.1224	0.1939	-0.1978	0.7533	-0.5965
3.76	-0.4843	-9.3986	-1.9612	0.0168	-0.0003	0.0116	-20.4725	26.8248	20.0535	0.1939	-0.1978	0.7533	-0.5965
3.77	-0.5546	-9.4266	-1.9771	0.0215	-0.0078	0.0203	-20.5377	26.8153	19.8430	0.1939	-0.1978	0.7533	-0.5965
3.78	-0.6121	-9.3745	-1.9464	0.0144	-0.0078	0.0120	-20.6905	26.5085	20.3204	0.1940	-0.1978	0.7533	-0.5965
3.79	-0.6232	-9.3755	-1.9594	0.0128	-0.0065	0.0091	-20.7084	26.7998	20.1151	0.1940	-0.1979	0.7533	-0.5964
3.8	-0.6355	-9.4090	-1.9973	0.0109	-0.0067	0.0150	-20.4445	26.9185	19.9642	0.1940	-0.1978	0.7533	-0.5963
3.81	-0.5873	-9.4109	-1.9952	0.0223	-0.0077	0.0123	-20.5052	26.7976	20.0811	0.1940	-0.1979	0.7534	-0.5964
3.82	-0.7085	-9.2776	-1.9777	0.0095	-0.0057	0.0140	-20.6948	26.7213	20.0819	0.1940	-0.1979	0.7534	-0.5963
3.83	-0.6251	-9.5783	-2.3295	0.0114	0.0005	0.0099	-20.5504	26.9814	20.2676	0.1940	-0.1979	0.7535	-0.5964
3.84	-0.4775	-9.3248	-1.9008	0.0173	-0.0072	0.0095	-20.6435	27.0019	20.1355	0.1940	-0.1979	0.7534	-0.5963
3.85	-0.4324	-9.3426	-2.0133	0.0150	-0.0055	0.0110	-20.5339	26.7498	20.0447	0.1940	-0.1979	0.7534	-0.5963
3.86	-0.4346	-9.4787	-2.1842	0.0126	-0.0108	0.0113	-20.7334	26.9256	19.9204	0.1940	-0.1979	0.7535	-0.5962
3.87	-0.4019	-9.4161	-2.1176	0.0098	-0.0057	0.0154	-20.5896	26.7605	20.1175	0.1940	-0.1979	0.7534	-0.5962
3.88	-0.4328	-9.3663	-2.1088	0.0200	-0.0050	0.0151	-20.3388	26.5541	19.8323	0.1941	-0.1980	0.7535	-0.5962
3.89	-0.4312	-9.4355	-2.1328	0.0129	-0.0009	0.0130	-20.1786	26.7207	20.0405	0.1940	-0.1979	0.7535	-0.5961
3.9	-0.5104	-9.4306	-2.1565	0.0203	-0.0004	0.0143	-20.3493	26.5719	20.2276	0.1941	-0.1979	0.7536	-0.5962
3.91	-0.5261	-9.3596	-2.0723	0.0219	-0.0016	0.0146	-20.5105	26.6406	20.0678	0.1940	-0.1979	0.7535	-0.5961
3.92	-0.7185	-9.3477	-2.1149	0.0166	0.0001	0.0174	-20.4163	26.7925	19.9314	0.1941	-0.1979	0.7536	-0.5961
3.93	-0.6419	-9.5321	-2.2937	0.0182	-0.0029	0.0119	-20.4300	26.6525	20.1207	0.1941	-0.1979	0.7535	-0.5961
3.94	-0.5615	-9.3188	-1.8941	0.0257	-0.0029	0.0178	-20.5406	26.7424	20.1143	0.1941	-0.1978	0.7535	-0.5961
3.95	-0.5522	-9.3503	-1.9371	0.0091	-0.0078	0.0129	-20.6712	26.7212	19.9540	0.1941	-0.1979	0.7536	-0.5961
3.96	-0.5406	-9.4265	-2.0280	0.0173	-0.0101	0.0128	-20.6722	26.6695	20.1107	0.1941	-0.1979	0.7536	-0.5961
3.97	-0.5167	-9.4175	-2.0295	0.0192	-0.0087	0.0127	-20.4951	26.7614	20.2516	0.1942	-0.1979	0.7536	-0.5961
3.98	-0.4897	-9.3564	-1.9891	0.0161	-0.0106	0.0131	-20.6627	26.7857	20.1594	0.1942	-0.1979	0.7535	-0.5960
3.99	-0.6148	-9.3667	-2.0581	0.0148	-0.0086	0.0127	-20.6134	27.0568	20.0543	0.1942	-0.1979	0.7536	-0.5960
4	-0.5941	-9.5276	-2.2677	0.0110	-0.0092	0.0149	-20.5269	26.9117	20.2027	0.1942	-0.1979	0.7536	-0.5959
4.01	-0.5294	-9.3550	-1.9596	0.0194	-0.0036	0.0120	-20.6320	26.9204	20.0760	0.1942	-0.1979	0.7536	-0.5960
4.02	-0.4846	-9.3857	-1.9751	0.0125	-0.0013	0.0133	-20.6355	26.7978	19.9499	0.1942	-0.1979	0.7536	-0.5959
4.03	-0.5206	-9.3979	-2.0570	0.0099	-0.0090	0.0111	-20.6377	26.8455	20.1422	0.1942	-0.1980	0.7537	-0.5959
4.04	-0.5186	-9.4189	-2.1512	0.0132	-0.0078	0.0099	-20.6340	26.9368	20.2941	0.1942	-0.1980	0.7537	-0.5958
4.05	-0.5659	-9.3457	-2.1506	0.0180	-0.0133	0.0125	-20.6641	26.8267	20.1345	0.1943	-0.1980	0.7536	-0.5958
4.06	-0.5726	-9.4215	-2.2541	0.0190	-0.0110	0.0127	-20.4119	26.6227	20.0798	0.1943	-0.1981	0.7537	-0.5958
4.07	-0.6043	-9.4360	-2.2920	0.0204	-0.0085	0.0162	-20.1442	26.7118	20.0558	0.1944	-0.1980	0.7537	-0.5958
4.08	-0.6011	-9.3970	-2.2615	0.0194	-0.0075	0.0116	-20.3896	26.7702	20.1511	0.1944	-0.1981	0.7537	-0.5958
4.09	-0.5968	-9.4032	-2.2462	0.0207	-0.0091	0.0113	-20.4755	26.6507	20.1682	0.1944	-0.1981	0.7536	-0.5957
4.1	-0.7324	-9.3589	-2.2739	0.0210	-0.0079	0.0147	-20.4840	26.6568	20.0449	0.1944	-0.1981	0.7537	-0.5958
4.11	-0.6211	-9.4977	-2.3994	0.0282	-0.0092	0.0075	-20.4308	26.6872	19.9245	0.1944	-0.1981	0.7537	-0.5958
4.12	-0.4326	-9.3506	-2.0691	0.0322	-0.0084	0.0117	-20.6378	26.8447	20.1692	0.1945	-0.1981	0.7536	-0.5958
4.13	-0.3047	-9.4081	-2.0946	0.0347	-0.0103	0.0133	-20.5441	26.7076	20.1344	0.1945	-0.1981	0.7536	-0.5959
4.14	-0.2652	-9.4719	-2.1735	0.0319	-0.0114	0.0136	-20.4537	26.7928	19.9497	0.1946	-0.1981	0.7535	-0.5959
4.15	-0.2020	-9.4152	-2.1306	0.0405	-0.0082	0.0150	-20.6798	26.8298	20.2036	0.1946	-0.1981	0.7535	-0.5960
4.16	-0.2086	-9.4105	-2.1285	0.0329	-0.0026	0.0123	-20.5295	26.8116	20.0422	0.1946	-0.1981	0.7534	-0.5960
4.17	-0.2096	-9.4423	-2.1228	0.0268	-0.0009	0.0143	-20.3872	27.0379	20.0846	0.1947	-0.1981	0.7534	-0.5961
4.18	-0.2946	-9.4192	-2.0788	0.0343	0.0002	0.0184	-20.3556	26.8118	20.2369	0.1947	-0.1980	0.7534	-0.5961
4.19	-0.3753	-9.4039	-2.0257	0.0297	0.0083	0.0179	-20.0552	27.1394	20.5244	0.1947	-0.1979	0.7533	-0.5961
4.2	-0.4992	-9.3963	-1.9984	0.0315	0.0093	0.0195	-20.1948	26.9827	20.1497	0.1947	-0.1979	0.7534	-0.5962
4.21	-0.6181	-9.3847	-1.9715	0.0289	0.0177	0.0178	-20.4055	27.2869	20.0539	0.1946	-0.1978	0.7533	-0.5962
4.22	-0.7530	-9.3723	-1.9663	0.0242	0.0104	0.0162	-20.6799	27.6213	20.0425	0.1946	-0.1977	0.7534	-0.5963
4.23	-0.8346	-9.3817	-1.9791	0.0208	0.0137	0.0201	-20.6911	26.8337	20.2690	0.1945	-0.1976	0.7533	-0.5962
4.24	-0.8751	-9.3607	-1.9646	0.0259	0.0066	0.0151	-20.4531	26.9632	20.2403	0.1945	-0.1976	0.7534	-0.5963
4.25	-0.8537	-9.3768	-1.9728	0.0223	-0.0018	0.0219	-20.2589	26.8734	20.1891	0.1946	-0.1975	0.7534	-0.5963
4.26	-0.7777	-9.3982	-1.9801	0.0190	-0.0177	0.0119	-20.3179	26.8237	20.0940	0.1946	-0.1976	0.7534	-0.5963
4.27	-0.7071	-9.3864	-1.9399	0.0200	-0.0076	0.0103	-20.3502	26.9462	20.2096	0.1946	-0.1976	0.7533	-0.5962
4.28	-0.6610	-9.3642	-1.9064	0.0191	-0.0024	0.0104	-20.3347	26.8988	20.1148	0.1946	-0.1976	0.7534	-0.5962
4.29	-0.6525	-9.3833	-1.9245	0.0181	-0.0034	0.0161	-20.5124	26.7937	20.0079	0.1946	-0.1976	0.7534	-0.5962
4.3	-0.6678	-9.3963	-1.9431	0.0213	0.0063	0.0136	-20.4282	26.9309	20.2321	0.1946	-0.1975	0.7533	-0.5962
4.31	-0.7264	-9.3747	-1.9370	0.0209	-0.0009	0.0154	-20.4049	27.0064	19.9516	0.1946	-0.1975	0.7534	-0.5963
4.32	-0.8146	-9.3678	-1.9219	0.0202	0.0052	0.0131	-20.5647	27.0244	20.0401	0.1946	-0.1975	0.7534	-0.5962
4.33	-0.8403	-9.3634	-1.9221	0.0172	0.0077	0.0097	-20.3467	26.6797	19.9805	0.1946	-0.1975	0.7535	-0.5963
4.34	-0.8379	-9.3544	-1.9241	0.0194	0.0002	0.0114	-20.3321	26.7628	20.2175	0.1945	-0.1974	0.7534	-0.5962
4.35	-0.8035	-9.3758	-1.9767	0.0120	-0.0028	0.0075	-20.4513	26.9546	20.2861	0.1945	-0.1975	0.7535	-0.5962
4.36	-0.7431	-9.3925	-2.0192	0.0164	0.0016	0.0102	-20.4105	26.7477	20.2638	0.1945	-0.1975	0.7535	-0.5962
4.37	-0.6748	-9.3627	-2.0451	0.0173	-0.0024	0.0014	-20.4253	26.7443	20.2972	0.1944	-0.1975	0.7534	-0.5962
4.38	-0.6347	-9.3778	-2.1087	0.0121	-0.0060	0.0074	-20.5086	26.8661	20.1585	0.1945	-0.1975	0.7535	-0.5962
4.39	-0.6371	-9.3778	-2.1797	0.0109	0.0022	0.0039	-20.4979	26.7902	20.0764	0.1944	-0.1976	0.7535	-0.5962
4.4	-0.6586	-9.3923	-2.2537	0.0159	0.0027	-0.0005	-20.5029	26.7449	20.1222	0.1944	-0.1976	0.7536	-0.5962
4.41	-0.6761	-9.4236	-2.3115	0.0176	-0.0039	0.0047	-20.4909	26.8140	20.0710	0.1943	-0.1976	0.7535	-0.5961
4.42	-0.6589	-9.4198	-2.2693	0.0201	-0.0095	0.0015	-20.6169	27.0058	20.2399	0.1943	-0.1977	0.7535	-0.5962
4.43	-0.6271	-9.4284	-2.2347	0.0186	-0.0157	0.0045	-20.5117	27.0609	19.8764	0.1943	-0.1977	0.7535	-0.5961
4.44	-0.5780	-9.3950	-2.1652	0.0191	-0.0093	0.0035	-20.2243	27.0016	19.8810	0.1943	-0.1978	0.7535	-0.5961
4.45	-0.5388	-9.3845	-2.1026	0.0187	-0.0073	0.0010	-20.2759	26.9126	20.0317	0.1943	-0.1978	0.7535	-0.5962
4.46	-0.4975	-9.4139	-2.0951	0.0191	-0.0018	-0.0001	-20.4693	26.5856	20.0347	0.1943	-0.1979	0.7535	-0.5961
4.47	-0.4630	-9.4145	-2.0586	0.0238	-0.0060	0.0017	-20.5516	26.5749	20.1517	0.1943	-0.1979	0.7535	-0.5962
4.48	-0.4190	-9.3959	-1.9844	0.0215	-0.0083	0.0011	-20.3068	26.7463	20.0011	0.1942	-0.1980	0.7534	-0.5961
4.49	-0.3768	-9.4095	-1.9439	0.0195	-0.0099	0.0002	-20.3715	26.7768	19.9119	0.1943	-0.1980	0.7534	-0.5962
4.5	-0.3450	-9.4224	-1.9236	0.0196	-0.0049	-0.0002	-20.5364	26.8918	19.9435	0.1942	-0.1981	0.7534	-0.5962
4.51	-0.3335	-9.4055	-1.8819	0.0219	-0.0007	0.0063	-20.4917	26.8968	20.1130	0.1942	-0.1981	0.7534	-0.5962
4.52	-0.3179	-9.4051	-1.8780	0.0193	-0.0023	0.0043	-20.4170	26.6863	20.0896	0.1942	-0.1981	0.7534	-0.5962
4.53	-0.3283	-9.3915	-1.8990	0.0201	-0.0009	0.0033	-20.4389	26.8602	20.1326	0.1942	-0.1981	0.7534	-0.5962
4.54	-0.3778	-9.3950	-1.9747	0.0154	-0.0018	0.0056	-20.5329	26.8542	20.2117	0.1941	-0.1982	0.7534	-0.5962
4.55	-0.4515	-9.4007	-2.0599	0.0172	-0.0043	0.0084	-20.4567	26.6039	20.1138	0.1941	-0.1982	0.7533	-0.5961
4.56	-0.5091	-9.4204	-2.1208	0.0163	0.0033	0.0051	-20.6432	27.1050	20.0587	0.1941	-0.1982	0.7534	-0.5962
4.57	-0.5130	-9.4145	-2.1091	0.0185	-0.0047	0.0083	-20.4718	26.7749	20.1653	0.1941	-0.1982	0.7534	-0.5962
4.58	-0.5587	-9.3928	-2.0626	0.0179	-0.0066	0.0084	-20.2453	27.0156	20.1364	0.1941	-0.1982	0.7535	-0.5962
4.59	-0.5696	-9.4113	-2.0551	0.0147	-0.0053	0.0073	-20.6461	26.9083	19.9853	0.1941	-0.1983	0.7534	-0.5961
4.6	-0.5763	-9.3802	-1.9874	0.0203	-0.0048	0.0076	-20.6148	26.8287	20.1177	0.1941	-0.1983	0.7534	-0.5961
4.61	-0.5798	-9.4061	-1.9919	0.0193	-0.0069	0.0058	-20.2737	26.9909	20.2838	0.1941	-0.1983	0.7534	-0.5961
4.62	-0.5398	-9.3835	-1.9580	0.0205	0.0043	0.0058	-20.5272	26.7510	20.1320	0.1940	-0.1983	0.7534	-0.5961
4.63	-0.4620	-9.4036	-1.9791	0.0197	-0.0032	0.0074	-20.3817	26.7529	19.8811	0.1940	-0.1983	0.7535	-0.5962
4.64	-0.5064	-9.4342	-2.0072	0.0184	-0.0025	0.0101	-20.3352	26.9182	20.0879	0.1940	-0.1983	0.7534	-0.5961
4.65	-0.4328	-9.3651	-1.9347	0.0171	-0.0071	0.0099	-20.3161	26.8878	20.1070	0.1940	-0.1984	0.7535	-0.5962
4.66	-0.4172	-9.3992	-1.9604	0.0116	-0.0053	0.0091	-20.4453	26.7231	20.0786	0.1940	-0.1984	0.7534	-0.5961
4.67	-0.3495	-9.4429	-2.0043	0.0178	-0.0032	0.0057	-20.3778	26.8837	20.2432	0.1940	-0.1984	0.7535	-0.5961
4.68	-0.4081	-9.3880	-1.9953	0.0148	-0.0005	0.0063	-20.0720	26.9852	20.2506	0.1940	-0.1984	0.7534	-0.5961
4.69	-0.3213	-9.3785	-2.0602	0.0123	0.0039	0.0100	-20.1238	27.2647	20.1053	0.1939	-0.1984	0.7535	-0.5960
4.7	-0.4944	-9.4988	-2.2225	0.0167	-0.0013	0.0142	-20.0854	27.0162	20.2331	0.1939	-0.1984	0.7535	-0.5961
4.71	-0.5940	-9.3613	-2.1395	0.0246	-0.0018	0.0178	-20.2327	27.2589	20.1264	0.1939	-0.1984	0.7535	-0.5960
4.72	-0.7111	-9.3282	-2.1507	0.0155	0.0049	0.0112	-20.4799	27.5797	19.9398	0.1939	-0.1984	0.7535	-0.5961
4.73	-0.7644	-9.4593	-2.2746	0.0142	0.0037	0.0130	-20.5848	26.6277	19.9680	0.1939	-0.1983	0.7535	-0.5960
4.74	-0.7215	-9.3372	-2.2052	0.0221	0.0019	0.0112	-20.5436	26.9053	20.0737	0.1939	-0.1983	0.7536	-0.5961
4.75	-0.8059	-9.4359	-2.2784	0.0237	0.0016	0.0138	-20.5938	27.0031	20.0461	0.1939	-0.1983	0.7535	-0.5960
4.76	-0.8135	-9.3713	-2.1525	0.0243	-0.0049	0.0096	-20.4747	26.7231	20.0626	0.1939	-0.1983	0.7535	-0.5961
4.77	-0.7553	-9.3336	-2.0809	0.0251	-0.0089	0.0059	-20.5736	26.8369	20.0561	0.1939	-0.1983	0.7535	-0.5961
4.78	-0.6173	-9.4431	-2.1228	0.0258	-0.0052	0.0116	-20.6705	26.9197	20.1706	0.1939	-0.1983	0.7535	-0.5961
4.79	-0.5681	-9.4046	-2.0723	0.0206	-0.0083	0.0089	-20.6402	26.8942	20.0933	0.1939	-0.1983	0.7535	-0.5961
4.8	-0.4274	-9.3268	-1.9747	0.0187	-0.0115	0.0121	-20.5878	26.8544	19.9402	0.1939	-0.1983	0.7534	-0.5960
4.81	-0.3737	-9.4681	-2.0858	0.0278	-0.0096	0.0109	-20.5206	26.5887	20.0020	0.1940	-0.1984	0.7535	-0.5961
4.82	-0.4309	-9.4662	-2.0589	0.0306	-0.0069	0.0112	-20.5208	26.7661	20.2121	0.1940	-0.1984	0.7534	-0.5961
4.83	-0.4237	-9.3056	-1.8966	0.0235	-0.0026	0.0091	-20.5497	26.8487	20.0437	0.1940	-0.1984	0.7535	-0.5962
4.84	-0.4654	-9.4520	-2.0179	0.0202	0.0015	0.0124	-20.2631	26.7420	20.0808	0.1940	-0.1984	0.7534	-0.5961
4.85	-0.4640	-9.4168	-2.0053	0.0205	0.0013	0.0112	-20.4851	26.7109	20.0353	0.1940	-0.1984	0.7534	-0.5962
4.86	-0.4240	-9.3263	-1.9725	0.0186	-0.0078	0.0109	-20.4157	26.6684	19.9475	0.1940	-0.1984	0.7534	-0.5962
4.87	-0.5042	-9.5106	-2.1367	0.0227	-0.0054	0.0114	-20.4494	26.8649	20.0426	0.1940	-0.1984	0.7534	-0.5961
4.88	-0.4886	-9.3230	-1.9424	0.0216	-0.0090	0.0098	-20.6116	26.6085	20.1907	0.1940	-0.1984	0.7534	-0.5962
4.89	-0.4962	-9.3519	-1.9918	0.0182	-0.0031	0.0098	-20.3888	26.7009	20.0889	0.1940	-0.1984	0.7534	-0.5962
4.9	-0.4567	-9.4815	-2.1165	0.0184	-0.0078	0.0133	-20.4659	26.8091	20.0687	0.1940	-0.1984	0.7534	-0.5962
4.91	-0.4720	-9.3597	-2.0418	0.0199	-0.0011	0.0121	-20.5466	26.9085	19.9549	0.1940	-0.1984	0.7533	-0.5961
4.92	-0.4532	-9.3725	-2.0660	0.0192	-0.0020	0.0125	-20.5971	26.9060	19.8865	0.1940	-0.1984	0.7534	-0.5962
4.93	-0.4692	-9.4623	-2.1543	0.0199	-0.0029	0.0127	-20.6218	26.8936	20.1613	0.1940	-0.1984	0.7534	-0.5961
4.94	-0.4766	-9.3754	-2.0898	0.0185	-0.0002	0.0126	-20.5316	26.9249	20.1288	0.1940	-0.1984	0.7534	-0.5961
4.95	-0.5039	-9.3906	-2.1068	0.0209	0.0009	0.0099	-20.6673	26.7896	20.1532	0.1940	-0.1984	0.7534	-0.5962
4.96	-0.5388	-9.4347	-2.1495	0.0196	0.0018	0.0144	-20.6388	26.7330	20.1411	0.1940	-0.1983	0.7534	-0.5961
4.97	-0.5724	-9.3702	-2.0945	0.0200	-0.0027	0.0170	-20.6433	26.9094	20.1458	0.1940	-0.1983	0.7535	-0.5962
4.98	-0.6004	-9.3935	-2.1230	0.0193	-0.0086	0.0127	-20.6677	26.8957	20.1263	0.1940	-0.1983	0.7534	-0.5961
4.99	-0.6100	-9.4031	-2.1373	0.0209	-0.0034	0.0151	-20.4997	26.9063	20.1549	0.1941	-0.1983	0.7535	-0.5961
5	-0.5927	-9.3605	-2.1062	0.0206	0.0006	0.0142	-20.5407	26.7487	20.1186	0.1941	-0.1983	0.7534	-0.5961
5.01	-0.5842	-9.3913	-2.1270	0.0178	-0.0029	0.0144	-20.5035	26.7532	19.9651	0.1941	-0.1983	0.7535	-0.5961
5.02	-0.5690	-9.4010	-2.1406	0.0214	0.0001	0.0123	-20.4044	26.6394	19.9729	0.1941	-0.1983	0.7534	-0.5961
5.03	-0.5757	-9.3877	-2.1384	0.0206	-0.0059	0.0072	-20.3533	26.7971	20.2297	0.1941	-0.1983	0.7534	-0.5961
5.04	-0.5949	-9.3949	-2.1523	0.0274	-0.0026	0.0167	-20.3929	26.8273	20.0170	0.1941	-0.1983	0.7534	-0.5961
5.05	-0.6231	-9.4053	-2.1569	0.0206	-0.0048	0.0170	-20.5993	26.8960	19.9328	0.1941	-0.1982	0.7534	-0.5961
5.06	-0.6407	-9.3942	-2.1396	0.0225	-0.0050	0.0127	-20.4628	26.8190	20.1084	0.1941	-0.1982	0.7535	-0.5962
5.07	-0.6466	-9.3967	-2.1174	0.0251	-0.0074	0.0127	-20.4696	26.8307	19.9979	0.1941	-0.1982	0.7534	-0.5961
5.08	-0.6424	-9.4039	-2.1147	0.0213	-0.0108	0.0112	-20.3431	26.8192	19.9742	0.1942	-0.1983	0.7535	-0.5962
5.09	-0.6123	-9.3837	-2.0816	0.0194	-0.0112	0.0144	-20.6025	26.9052	19.9505	0.1942	-0.1983	0.7533	-0.5961
5.1	-0.5816	-9.4005	-2.0819	0.0291	-0.0012	0.0150	-20.5235	27.0217	19.9957	0.1942	-0.1982	0.7534	-0.5962
5.11	-0.5341	-9.4135	-2.0740	0.0225	-0.0031	0.0082	-20.6423	27.0988	20.0561	0.1942	-0.1982	0.7534	-0.5962
5.12	-0.4824	-9.3741	-2.0244	0.0191	-0.0026	0.0134	-20.6195	26.9768	20.0567	0.1942	-0.1982	0.7533	-0.5961
5.13	-0.4622	-9.3707	-2.0268	0.0202	-0.0053	0.0146	-20.7829	26.9952	19.9339	0.1943	-0.1982	0.7534	-0.5962
5.14	-0.4783	-9.4072	-2.0854	0.0205	-0.0053	0.0118	-20.7375	27.0980	19.8709	0.1943	-0.1982	0.7534	-0.5962
5.15	-0.5151	-9.3940	-2.0933	0.0270	0.0007	0.0111	-20.6068	27.0123	20.0522	0.1943	-0.1982	0.7534	-0.5962
5.16	-0.5501	-9.4002	-2.1015	0.0283	-0.0012	0.0127	-20.6621	26.8745	20.1154	0.1942	-0.1982	0.7533	-0.5962
5.17	-0.5562	-9.4432	-2.0930	0.0255	-0.0055	0.0128	-20.5643	26.9247	20.2914	0.1943	-0.1982	0.7533	-0.5962
5.18	-0.5276	-9.4052	-2.0265	0.0302	-0.0113	0.0126	-20.3584	26.8628	20.2971	0.1943	-0.1982	0.7533	-0.5963
5.19	-0.4961	-9.3869	-1.9921	0.0262	-0.0058	0.0121	-19.8630	26.7619	20.1242	0.1943	-0.1982	0.7532	-0.5963
5.2	-0.4851	-9.4288	-2.0235	0.0390	-0.0017	0.0134	-20.1299	26.8740	20.0166	0.1944	-0.1982	0.7532	-0.5964
5.21	-0.4681	-9.4372	-2.0324	0.0266	0.0026	0.0122	-20.4201	27.0487	20.1002	0.1943	-0.1981	0.7532	-0.5964
5.22	-0.4497	-9.3866	-1.9922	0.0218	0.0116	0.0147	-20.1885	27.4033	20.0330	0.1943	-0.1981	0.7532	-0.5964
5.23	-0.4904	-9.2947	-1.9417	0.0237	0.0134	0.0064	-20.3296	26.6913	19.9967	0.1942	-0.1980	0.7531	-0.5964
5.24	-0.5358	-9.3966	-2.0664	0.0193	0.0117	0.0125	-20.5268	26.7682	20.1415	0.1942	-0.1980	0.7532	-0.5965
5.25	-0.5825	-9.4235	-2.1362	0.0198	-0.0018	0.0095	-20.4839	27.0052	20.0732	0.1942	-0.1980	0.7532	-0.5964
5.26	-0.5875	-9.3768	-2.0904	0.0198	-0.0068	0.0097	-20.5008	26.9339	20.1257	0.1942	-0.1980	0.7532	-0.5965
5.27	-0.5482	-9.4118	-2.0710	0.0243	-0.0146	0.0095	-20.5005	26.7273	20.0851	0.1942	-0.1980	0.7532	-0.5964
5.28	-0.4914	-9.4260	-2.0426	0.0193	-0.0103	0.0079	-20.4793	26.8535	20.1507	0.1942	-0.1981	0.7532	-0.5964
5.29	-0.4465	-9.3836	-1.9987	0.0193	-0.0063	0.0139	-20.5513	26.7907	20.2004	0.1943	-0.1981	0.7532	-0.5964
5.3	-0.4369	-9.4173	-2.0301	0.0218	-0.0048	0.0123	-20.5956	26.9243	20.1955	0.1943	-0.1981	0.7531	-0.5964
5.31	-0.4689	-9.4280	-2.0416	0.0248	0.0090	0.0151	-20.5637	26.7102	20.1690	0.1943	-0.1981	0.7532	-0.5965
5.32	-0.5221	-9.3897	-2.0205	0.0269	0.0135	0.0098	-20.5857	26.7642	20.1129	0.1942	-0.1980	0.7532	-0.5965
5.33	-0.5498	-9.4248	-2.0431	0.0219	0.0123	0.0136	-20.5380	26.7054	20.2554	0.1942	-0.1980	0.7533	-0.5966
5.34	-0.5503	-9.4102	-2.0192	0.0199	0.0162	0.0118	-20.2917	26.8750	19.9858	0.1941	-0.1979	0.7532	-0.5965
5.35	-0.5606	-9.3246	-1.9819	0.0240	0.0168	0.0145	-20.4650	26.7600	19.9303	0.1940	-0.1978	0.7532	-0.5966
5.36	-0.5915	-9.3350	-2.0667	0.0199	0.0082	0.0127	-20.4648	26.8268	20.1078	0.1940	-0.1978	0.7532	-0.5966
5.37	-0.6504	-9.4053	-2.2149	0.0179	-0.0003	0.0112	-20.3136	27.0212	20.0355	0.1939	-0.1977	0.7532	-0.5965
5.38	-0.6893	-9.4157	-2.2591	0.0248	-0.0108	0.0114	-20.3395	26.9103	19.8902	0.1940	-0.1978	0.7533	-0.5966
5.39	-0.6618	-9.4024	-2.2100	0.0357	-0.0087	0.0094	-20.4549	26.8615	19.9738	0.1940	-0.1978	0.7532	-0.5966
5.4	-0.5981	-9.4354	-2.1730	0.0260	-0.0123	0.0095	-20.3154	26.6434	20.0488	0.1941	-0.1978	0.7532	-0.5967
5.41	-0.5191	-9.4221	-2.1022	0.0275	-0.0099	0.0081	-20.4138	26.6666	19.9355	0.1941	-0.1978	0.7531	-0.5966
5.42	-0.4649	-9.3947	-2.0498	0.0299	-0.0089	0.0126	-20.3887	26.7736	19.8020	0.1941	-0.1978	0.7531	-0.5967
5.43	-0.4670	-9.4138	-2.0482	0.0290	0.0016	0.0087	-20.4646	27.0177	19.9268	0.1941	-0.1978	0.7531	-0.5967
5.44	-0.5135	-9.4064	-2.0335	0.0274	0.0086	0.0115	-20.5007	26.9004	20.1348	0.1941	-0.1978	0.7530	-0.5968
5.45	-0.5657	-9.3980	-2.0206	0.0351	0.0137	0.0136	-20.4977	26.9186	20.0715	0.1940	-0.1977	0.7530	-0.5968
5.46	-0.6080	-9.3897	-1.9987	0.0258	0.0103	0.0115	-20.4702	26.8873	20.1433	0.1940	-0.1977	0.7530	-0.5969
5.47	-0.6155	-9.3870	-1.9881	0.0217	0.0101	0.0124	-20.3888	26.7856	20.0208	0.1939	-0.1976	0.7531	-0.5969
5.48	-0.6117	-9.3673	-1.9821	0.0248	0.0090	0.0097	-20.4290	26.9268	20.1021	0.1939	-0.1976	0.7530	-0.5969
5.49	-0.5973	-9.3815	-2.0192	0.0237	0.0038	0.0102	-20.3100	26.8934	20.2038	0.1939	-0.1976	0.7531	-0.5970
5.5	-0.5535	-9.4007	-2.0636	0.0195	0.0006	0.0058	-20.5066	26.8058	20.0466	0.1938	-0.1976	0.7530	-0.5969
5.51	-0.4962	-9.4116	-2.0870	0.0201	-0.0062	0.0038	-20.6743	26.8401	19.9241	0.1938	-0.1976	0.7530	-0.5970
5.52	-0.4430	-9.4133	-2.0938	0.0265	-0.0052	0.0050	-20.5440	26.8059	20.0168	0.1938	-0.1976	0.7530	-0.5970
5.53	-0.4050	-9.4195	-2.1058	0.0269	-0.0055	0.0124	-20.5950	26.8525	20.0097	0.1938	-0.1976	0.7530	-0.5970
5.54	-0.3881	-9.4201	-2.0964	0.0314	-0.0019	0.0108	-20.5023	26.9273	20.0495	0.1939	-0.1976	0.7530	-0.5970
5.55	-0.4094	-9.4062	-2.0780	0.0274	-0.0012	0.0087	-20.5161	26.8857	20.2023	0.1938	-0.1976	0.7529	-0.5970
5.56	-0.4626	-9.4051	-2.0704	0.0261	0.0107	0.0109	-20.2824	27.0318	20.2863	0.1938	-0.1976	0.7530	-0.5971
5.57	-0.5187	-9.4050	-2.0613	0.0289	0.0083	0.0117	-20.2826	26.8166	19.9904	0.1938	-0.1975	0.7529	-0.5971
5.58	-0.5754	-9.3925	-2.0337	0.0311	0.0124	0.0102	-20.3522	26.6752	20.1212	0.1937	-0.1975	0.7529	-0.5972
5.59	-0.6157	-9.3927	-2.0155	0.0253	0.0097	0.0126	-20.3258	26.5598	20.0274	0.1937	-0.1974	0.7528	-0.5972
5.6	-0.6235	-9.3904	-1.9932	0.0238	-0.0002	0.0113	-20.3134	26.7198	19.9080	0.1937	-0.1974	0.7529	-0.5973
5.61	-0.6053	-9.3946	-1.9710	0.0295	-0.0038	0.0133	-20.4012	26.9195	19.9606	0.1937	-0.1974	0.7529	-0.5973
5.62	-0.5750	-9.4018	-1.9708	0.0339	0.0032	0.0126	-20.6775	26.8948	20.1325	0.1937	-0.1974	0.7528	-0.5973
5.63	-0.5347	-9.4028	-1.9701	0.0293	-0.0061	0.0128	-20.6487	26.9131	19.9654	0.1937	-0.1974	0.7528	-0.5974
5.64	-0.5047	-9.3957	-1.9652	0.0268	-0.0078	0.0102	-20.5077	26.8972	19.9687	0.1937	-0.1974	0.7527	-0.5974
5.65	-0.4860	-9.4047	-1.9798	0.0188	-0.0002	0.0100	-20.5147	26.9317	20.2399	0.1937	-0.1974	0.7528	-0.5974
5.66	-0.4886	-9.3992	-1.9908	0.0261	0.0123	0.0100	-20.3942	26.8108	20.0821	0.1937	-0.1973	0.7527	-0.5974
5.67	-0.5056	-9.3983	-2.0003	0.0212	0.0063	0.0067	-20.5569	26.8409	20.1197	0.1936	-0.1973	0.7528	-0.5974
5.68	-0.5332	-9.3996	-2.0186	0.0181	0.0039	0.0129	-20.3585	26.9662	20.2690	0.1936	-0.1973	0.7528	-0.5974
5.69	-0.5681	-9.3971	-2.0212	0.0237	0.0045	0.0106	-19.9009	27.0314	20.5578	0.1936	-0.1973	0.7528	-0.5974
5.7	-0.5930	-9.3912	-2.0203	0.0258	0.0034	0.0138	-20.1147	27.0482	20.2812	0.1936	-0.1973	0.7528	-0.5975
5.71	-0.6032	-9.3951	-2.0279	0.0225	0.0012	0.0142	-20.4341	27.2863	20.0585	0.1936	-0.1972	0.7528	-0.5975
5.72	-0.5984	-9.3959	-2.0317	0.0235	0.0029	0.0134	-20.4971	27.4301	20.0440	0.1936	-0.1972	0.7528	-0.5975
5.73	-0.5822	-9.3916	-2.0287	0.0311	-0.0017	0.0126	-20.5714	26.6705	20.0824	0.1935	-0.1972	0.7527	-0.5975
5.74	-0.5638	-9.4021	-2.0424	0.0297	-0.0071	0.0157	-20.5241	26.7697	20.0448	0.1936	-0.1972	0.7527	-0.5976
5.75	-0.5413	-9.4087	-2.0446	0.0210	-0.0043	0.0162	-20.3171	26.7215	19.9964	0.1936	-0.1971	0.7527	-0.5976
5.76	-0.5295	-9.4000	-2.0361	0.0255	-0.0020	0.0125	-20.2950	26.5633	20.1542	0.1936	-0.1971	0.7527	-0.5976
5.77	-0.5247	-9.4046	-2.0427	0.0239	0.0028	0.0130	-20.4119	26.6898	19.7488	0.1936	-0.1971	0.7527	-0.5976
5.78	-0.5273	-9.4113	-2.0494	0.0244	-0.0010	0.0126	-20.3426	26.6175	20.0012	0.1936	-0.1971	0.7527	-0.5976
5.79	-0.5346	-9.3986	-2.0470	0.0202	0.0040	0.0135	-20.3455	26.6114	20.1219	0.1936	-0.1971	0.7527	-0.5976
5.8	-0.5421	-9.3971	-2.0530	0.0261	0.0001	0.0117	-20.4759	26.7599	19.9663	0.1936	-0.1970	0.7526	-0.5976
5.81	-0.5485	-9.4106	-2.0614	0.0237	0.0033	0.0117	-20.5788	26.7446	19.9866	0.1936	-0.1970	0.7527	-0.5977
5.82	-0.5456	-9.3992	-2.0615	0.0252	0.0030	0.0127	-20.4900	26.7362	20.1269	0.1936	-0.1970	0.7527	-0.5977
5.83	-0.5408	-9.4016	-2.0654	0.0192	-0.0005	0.0132	-20.3255	26.8031	20.2035	0.1936	-0.1970	0.7527	-0.5977
5.84	-0.5326	-9.4075	-2.0779	0.0200	-0.0057	0.0102	-20.6055	26.9214	19.9496	0.1936	-0.1970	0.7526	-0.5976
5.85	-0.5233	-9.4059	-2.0767	0.0198	0.0006	0.0143	-20.6087	26.8983	19.9973	0.1936	-0.1970	0.7527	-0.5977
5.86	-0.5184	-9.4041	-2.0741	0.0198	-0.0036	0.0105	-20.3842	26.9176	19.9536	0.1936	-0.1970	0.7527	-0.5977
5.87	-0.5185	-9.4026	-2.0715	0.0201	0.0025	0.0112	-20.6773	26.8966	20.0771	0.1935	-0.1970	0.7526	-0.5976
5.88	-0.5239	-9.4049	-2.0713	0.0218	-0.0012	0.0116	-20.5039	26.9187	19.9510	0.1936	-0.1970	0.7527	-0.5977
5.89	-0.5319	-9.4012	-2.0609	0.0188	0.0017	0.0126	-20.6372	26.8997	19.7485	0.1935	-0.1969	0.7527	-0.5977
5.9	-0.5356	-9.4017	-2.0534	0.0240	0.0053	0.0125	-20.7141	26.9114	20.0904	0.1935	-0.1969	0.7527	-0.5977
5.91	-0.5390	-9.3999	-2.0498	0.0216	0.0044	0.0082	-20.4992	26.9042	19.9533	0.1935	-0.1969	0.7526	-0.5977
5.92	-0.5447	-9.3996	-2.0438	0.0200	0.0019	0.0133	-20.7031	26.8179	20.1291	0.1935	-0.1969	0.7527	-0.5977
5.93	-0.5506	-9.4038	-2.0470	0.0193	-0.0001	0.0162	-20.5278	26.6539	20.1256	0.1935	-0.1968	0.7527	-0.5977
5.94	-0.5547	-9.4037	-2.0473	0.0232	-0.0029	0.0135	-20.4019	26.7518	20.0526	0.1935	-0.1968	0.7527	-0.5977
5.95	-0.5546	-9.4022	-2.0475	0.0289	0.0044	0.0075	-20.3699	26.7366	20.0819	0.1934	-0.1968	0.7527	-0.5978
5.96	-0.5463	-9.4022	-2.0547	0.0196	0.0013	0.0127	-20.2106	26.6776	20.0964	0.1934	-0.1968	0.7527	-0.5977
5.97	-0.5338	-9.4019	-2.0644	0.0202	-0.0035	0.0094	-20.4189	26.7773	20.2118	0.1934	-0.1968	0.7527	-0.5978
5.98	-0.5198	-9.4003	-2.0664	0.0211	-0.0062	0.0124	-20.3735	26.7361	20.0373	0.1934	-0.1968	0.7526	-0.5977
5.99	-0.5183	-9.4069	-2.0809	0.0192	-0.0081	0.0131	-20.5100	26.6462	20.1178	0.1935	-0.1968	0.7527	-0.5978
6	-0.5107	-9.3965	-2.0803	0.0224	-0.0050	0.0121	-20.4413	26.5538	19.9753	0.1935	-0.1968	0.7527	-0.5977
6.01	-0.5011	-9.3943	-2.0640	0.0277	-0.0088	0.0130	-20.5552	26.8593	19.8501	0.1935	-0.1968	0.7527	-0.5978
6.02	-0.5035	-9.4049	-2.0589	0.0227	-0.0067	0.0131	-20.4637	26.7167	20.0938	0.1935	-0.1968	0.7526	-0.5978
6.03	-0.5088	-9.4029	-2.0394	0.0244	0.0001	0.0119	-20.4823	26.6676	20.2120	0.1935	-0.1968	0.7526	-0.5978
6.04	-0.5170	-9.3986	-2.0025	0.0231	-0.0036	0.0157	-20.4575	26.8060	20.0267	0.1935	-0.1968	0.7527	-0.5978
6.05	-0.5260	-9.4040	-1.9754	0.0193	-0.0066	0.0172	-20.5919	26.9130	19.9640	0.1936	-0.1968	0.7526	-0.5977
6.06	-0.5362	-9.4035	-1.9620	0.0187	-0.0040	0.0116	-20.8797	26.8881	19.9573	0.1936	-0.1968	0.7527	-0.5978
6.07	-0.5454	-9.3994	-1.9519	0.0191	-0.0059	0.0099	-20.7989	26.8069	19.8875	0.1936	-0.1968	0.7526	-0.5978
6.08	-0.5523	-9.3946	-1.9391	0.0211	-0.0037	0.0135	-20.4341	27.0429	20.0694	0.1936	-0.1968	0.7527	-0.5978
6.09	-0.5559	-9.3935	-1.9450	0.0216	-0.0013	0.0125	-20.5881	26.8573	20.1572	0.1936	-0.1968	0.7526	-0.5977
6.1	-0.5584	-9.3888	-1.9563	0.0199	-0.0014	0.0126	-20.5255	27.0956	20.0151	0.1936	-0.1968	0.7527	-0.5978
6.11	-0.5639	-9.3953	-1.9800	0.0191	-0.0055	0.0121	-20.6181	26.9547	19.9632	0.1936	-0.1968	0.7527	-0.5978
6.12	-0.5656	-9.4008	-2.0087	0.0200	-0.0040	0.0128	-20.5949	26.9081	19.9735	0.1936	-0.1968	0.7526	-0.5977
6.13	-0.5677	-9.3989	-2.0352	0.0171	-0.0051	0.0123	-20.3468	26.8003	20.0907	0.1936	-0.1968	0.7527	-0.5978
6.14	-0.5718	-9.4002	-2.0702	0.0203	-0.0128	0.0128	-20.3202	26.3816	20.0607	0.1937	-0.1968	0.7526	-0.5977
6.15	-0.5767	-9.4032	-2.1008	0.0167	-0.0082	0.0112	-20.4874	26.6449	19.9112	0.1937	-0.1968	0.7527	-0.5977
6.16	-0.5865	-9.3995	-2.1223	0.0205	-0.0059	0.0139	-20.3745	26.8293	19.8711	0.1937	-0.1968	0.7526	-0.5976
6.17	-0.5952	-9.4007	-2.1369	0.0224	-0.0039	0.0120	-20.5212	26.8308	20.2714	0.1937	-0.1968	0.7527	-0.5977
6.18	-0.5949	-9.3995	-2.1439	0.0190	-0.0042	0.0128	-20.3982	26.8328	20.1520	0.1937	-0.1968	0.7527	-0.5977
6.19	-0.5902	-9.4012	-2.1445	0.0199	-0.0084	0.0124	-20.2087	26.7793	20.2839	0.1937	-0.1968	0.7526	-0.5977
6.2	-0.5810	-9.4024	-2.1404	0.0190	-0.0080	0.0093	-20.4569	26.8568	20.2302	0.1938	-0.1969	0.7527	-0.5977
6.21	-0.5680	-9.4061	-2.1306	0.0197	-0.0071	0.0107	-20.5526	27.1978	20.1780	0.1938	-0.1969	0.7526	-0.5977
6.22	-0.5501	-9.4058	-2.1181	0.0203	-0.0003	0.0093	-20.5934	27.5147	20.0939	0.1938	-0.1969	0.7527	-0.5977
6.23	-0.5434	-9.4035	-2.1042	0.0194	0.0008	0.0072	-20.5856	26.6526	19.9562	0.1937	-0.1969	0.7526	-0.5976
6.24	-0.5253	-9.4131	-2.1022	0.0197	-0.0071	0.0109	-20.5150	26.8772	20.1178	0.1937	-0.1969	0.7527	-0.5977
6.25	-0.5167	-9.4076	-2.0819	0.0193	-0.0066	0.0020	-20.3828	27.0319	20.0267	0.1937	-0.1969	0.7526	-0.5977
6.26	-0.5099	-9.4004	-2.0632	0.0218	-0.0022	0.0118	-20.6118	26.8812	20.1979	0.1937	-0.1970	0.7527	-0.5977
6.27	-0.5075	-9.4020	-2.0517	0.0212	0.0045	0.0114	-20.4405	26.9131	19.9316	0.1937	-0.1969	0.7526	-0.5977
6.28	-0.5094	-9.4013	-2.0434	0.0238	-0.0048	0.0073	-20.4128	26.8704	20.1910	0.1937	-0.1969	0.7526	-0.5977
6.29	-0.5091	-9.3987	-2.0261	0.0266	0.0052	0.0097	-20.5592	26.7834	20.2186	0.1937	-0.1969	0.7526	-0.5977
6.3	-0.5137	-9.4056	-2.0103	0.0269	0.0048	0.0137	-20.5844	26.8413	20.1407	0.1936	-0.1969	0.7526	-0.5977
6.31	-0.5113	-9.4089	-2.0001	0.0207	0.0051	0.0112	-20.4438	26.6896	20.1617	0.1936	-0.1969	0.7527	-0.5978
6.32	-0.5103	-9.3996	-1.9906	0.0279	0.0029	0.0128	-20.4062	26.6661	19.9140	0.1936	-0.1968	0.7526	-0.5978
6.33	-0.5113	-9.4012	-1.9889	0.0231	-0.0005	0.0118	-20.3335	27.0362	20.1058	0.1936	-0.1968	0.7527	-0.5979
6.34	-0.5090	-9.4038	-1.9791	0.0199	-0.0004	0.0137	-20.3918	26.7747	19.9694	0.1936	-0.1968	0.7526	-0.5978
6.35	-0.5101	-9.3929	-1.9704	0.0204	0.0020	0.0149	-20.5212	26.7530	20.0047	0.1936	-0.1968	0.7526	-0.5978
6.36	-0.5076	-9.3968	-1.9769	0.0242	-0.0035	0.0099	-20.4502	26.8222	20.1376	0.1936	-0.1968	0.7526	-0.5978
6.37	-0.5117	-9.4047	-1.9862	0.0196	-0.0064	0.0080	-20.5700	26.8773	19.8983	0.1936	-0.1968	0.7526	-0.5978
6.38	-0.5089	-9.3919	-1.9828	0.0198	0.0025	0.0123	-20.5395	26.9135	19.7989	0.1936	-0.1968	0.7527	-0.5979
6.39	-0.5108	-9.3944	-1.9877	0.0194	-0.0044	0.0149	-20.3433	26.7608	19.9760	0.1936	-0.1968	0.7526	-0.5978
6.4	-0.5139	-9.4085	-2.0057	0.0196	0.0011	0.0136	-20.4824	26.7053	20.2210	0.1936	-0.1968	0.7527	-0.5978
6.41	-0.5140	-9.3980	-2.0200	0.0194	0.0009	0.0115	-20.4869	26.8270	19.9367	0.1936	-0.1967	0.7526	-0.5978
6.42	-0.5212	-9.3984	-2.0334	0.0196	0.0038	0.0076	-20.3746	26.8010	20.1694	0.1935	-0.1967	0.7527	-0.5978
6.43	-0.5235	-9.4055	-2.0556	0.0191	-0.0022	0.0119	-20.4634	26.8729	20.2102	0.1935	-0.1967	0.7526	-0.5978
6.44	-0.5343	-9.4035	-2.0686	0.0180	-0.0035	0.0127	-20.4950	26.9095	19.9145	0.1935	-0.1967	0.7526	-0.5978
6.45	-0.5364	-9.3958	-2.0733	0.0172	-0.0045	0.0122	-20.4693	26.8938	20.1348	0.1936	-0.1967	0.7527	-0.5978
6.46	-0.5468	-9.4038	-2.0850	0.0179	-0.0053	0.0129	-20.3930	27.0063	20.1405	0.1936	-0.1967	0.7527	-0.5978
6.47	-0.5533	-9.4078	-2.0974	0.0196	-0.0020	0.0112	-20.6185	26.7401	20.2312	0.1936	-0.1967	0.7527	-0.5978
6.48	-0.5567	-9.4031	-2.0963	0.0202	-0.0053	0.0115	-20.6911	26.7091	20.2688	0.1936	-0.1967	0.7526	-0.5977
6.49	-0.5663	-9.4053	-2.0980	0.0211	-0.0059	0.0150	-20.3917	26.8483	19.9257	0.1936	-0.1967	0.7527	-0.5978
6.5	-0.5777	-9.3998	-2.0946	0.0192	-0.0043	0.0112	-20.3145	26.9273	20.1933	0.1936	-0.1967	0.7527	-0.5977
6.51	-0.5806	-9.4013	-2.0971	0.0197	-0.0043	0.0120	-20.2985	26.8377	20.0936	0.1936	-0.1968	0.7527	-0.5978
6.52	-0.5865	-9.3945	-2.0979	0.0197	-0.0024	0.0101	-20.5281	26.8015	20.0654	0.1936	-0.1968	0.7527	-0.5977
6.53	-0.5898	-9.3965	-2.0771	0.0193	-0.0040	0.0113	-20.4138	26.7206	20.2114	0.1936	-0.1968	0.7527	-0.5977
6.54	-0.5915	-9.3985	-2.0721	0.0220	-0.0006	0.0138	-20.3122	26.7421	19.9000	0.1936	-0.1967	0.7527	-0.5977
6.55	-0.5934	-9.4003	-2.0625	0.0206	-0.0081	0.0043	-20.5227	26.7251	19.9961	0.1936	-0.1968	0.7526	-0.5977
6.56	-0.5910	-9.3953	-2.0548	0.0244	-0.0094	0.0097	-20.4397	26.8240	19.9638	0.1936	-0.1968	0.7527	-0.5978
6.57	-0.5787	-9.4009	-2.0466	0.0228	-0.0090	0.0128	-20.4073	26.8182	19.9138	0.1937	-0.1968	0.7526	-0.5977
6.58	-0.5653	-9.4061	-2.0494	0.0187	-0.0083	0.0060	-20.3474	26.8114	20.0786	0.1937	-0.1969	0.7527	-0.5978
6.59	-0.5537	-9.3975	-2.0306	0.0187	-0.0121	0.0107	-20.2240	26.8414	20.1070	0.1937	-0.1969	0.7526	-0.5977
6.6	-0.5395	-9.4029	-2.0290	0.0216	-0.0069	0.0073	-20.4644	26.6642	20.0241	0.1937	-0.1969	0.7526	-0.5977
6.61	-0.5299	-9.4043	-2.0300	0.0184	0.0008	0.0133	-20.6595	26.7171	20.0476	0.1937	-0.1969	0.7526	-0.5977
6.62	-0.5145	-9.3965	-2.0154	0.0181	-0.0045	0.0099	-20.5700	26.9480	20.0580	0.1937	-0.1969	0.7526	-0.5977
6.63	-0.5115	-9.3984	-2.0204	0.0213	-0.0000	0.0081	-20.4761	26.7695	20.1270	0.1937	-0.1969	0.7527	-0.5978
6.64	-0.5037	-9.4075	-2.0194	0.0220	0.0012	0.0013	-20.4792	26.8812	20.2304	0.1936	-0.1969	0.7526	-0.5977
6.65	-0.5022	-9.4012	-2.0166	0.0201	0.0043	0.0072	-20.5404	26.8792	19.9611	0.1936	-0.1969	0.7527	-0.5978
6.66	-0.5013	-9.3938	-2.0197	0.0202	0.0046	0.0092	-20.5643	27.0001	19.9702	0.1935	-0.1969	0.7526	-0.5977
6.67	-0.5099	-9.4056	-2.0260	0.0192	0.0038	0.0054	-20.5728	26.9360	20.1507	0.1935	-0.1969	0.7527	-0.5978
6.68	-0.5110	-9.4098	-2.0381	0.0199	0.0044	0.0099	-20.1997	26.7963	20.2556	0.1935	-0.1969	0.7526	-0.5978
6.69	-0.5150	-9.3956	-2.0298	0.0182	0.0033	0.0094	-19.6835	27.0484	20.1084	0.1934	-0.1969	0.7526	-0.5978
6.7	-0.5223	-9.4010	-2.0370	0.0217	-0.0027	0.0191	-20.0119	27.0950	20.1355	0.1935	-0.1969	0.7527	-0.5978
6.71	-0.5234	-9.4060	-2.0508	0.0208	0.0023	0.0168	-20.3819	27.0731	19.9655	0.1935	-0.1968	0.7527	-0.5978
6.72	-0.5270	-9.3975	-2.0439	0.0218	-0.0044	0.0121	-20.4312	27.2400	20.0056	0.1935	-0.1968	0.7527	-0.5978
6.73	-0.5393	-9.4017	-2.0429	0.0214	-0.0030	0.0123	-20.4128	26.6111	19.8993	0.1935	-0.1968	0.7526	-0.5977
6.74	-0.5453	-9.4116	-2.0483	0.0242	0.0056	0.0173	-20.2824	26.8300	19.9192	0.1935	-0.1968	0.7527	-0.5978
6.75	-0.5478	-9.4017	-2.0430	0.0246	0.0016	0.0184	-20.5188	26.6420	19.9006	0.1935	-0.1967	0.7527	-0.5978
6.76	-0.5581	-9.3988	-2.0394	0.0236	-0.0040	0.0104	-20.5668	26.5685	19.6903	0.1935	-0.1967	0.7527	-0.5978
6.77	-0.5653	-9.4099	-2.0587	0.0241	-0.0016	0.0146	-20.5395	26.6634	19.9556	0.1935	-0.1967	0.7526	-0.5978
6.78	-0.5685	-9.4061	-2.0629	0.0235	-0.0004	0.0130	-20.8228	26.8368	20.0815	0.1935	-0.1967	0.7526	-0.5978
6.79	-0.5630	-9.3958	-2.0633	0.0212	0.0041	0.0130	-20.7139	26.9009	19.9360	0.1935	-0.1967	0.7527	-0.5978
6.8	-0.5571	-9.4005	-2.0799	0.0173	-0.0009	0.0108	-20.5230	26.7862	20.0788	0.1934	-0.1967	0.7526	-0.5978
6.81	-0.5475	-9.4073	-2.0788	0.0175	-0.0042	0.0146	-20.6930	26.9705	20.1898	0.1935	-0.1967	0.7527	-0.5978
6.82	-0.5337	-9.4038	-2.0725	0.0223	-0.0019	0.0096	-20.4434	26.8690	20.1147	0.1935	-0.1967	0.7527	-0.5978
6.83	-0.5208	-9.4045	-2.0702	0.0208	-0.0003	0.0085	-20.4371	26.8273	20.0779	0.1935	-0.1967	0.7527	-0.5979
6.84	-0.5112	-9.4037	-2.0611	0.0210	-0.0002	0.0111	-20.5997	26.9202	20.0676	0.1934	-0.1966	0.7526	-0.5978
6.85	-0.5103	-9.4055	-2.0484	0.0196	0.0094	0.0129	-20.4271	26.9434	20.1126	0.1934	-0.1966	0.7527	-0.5978
6.86	-0.5121	-9.4053	-2.0389	0.0198	0.0071	0.0113	-20.5750	26.8738	19.9819	0.1934	-0.1966	0.7527	-0.5978
6.87	-0.5162	-9.4041	-2.0368	0.0199	-0.0007	0.0145	-20.4805	26.7677	19.7880	0.1933	-0.1966	0.7527	-0.5978
6.88	-0.5205	-9.4089	-2.0370	0.0208	-0.0043	0.0182	-20.3970	26.6549	19.9349	0.1934	-0.1966	0.7528	-0.5979
6.89	-0.5290	-9.3994	-2.0221	0.0252	-0.0018	0.0120	-20.4920	26.5936	19.9067	0.1934	-0.1965	0.7527	-0.5978
6.9	-0.5413	-9.3967	-2.0233	0.0209	-0.0004	0.0128	-20.2923	26.7759	19.9037	0.1934	-0.1965	0.7527	-0.5979
6.91	-0.5495	-9.4018	-2.0316	0.0197	-0.0040	0.0081	-20.4116	26.7563	20.0073	0.1934	-0.1965	0.7526	-0.5978
6.92	-0.5545	-9.3996	-2.0328	0.0191	-0.0006	0.0120	-20.3927	26.7653	19.9795	0.1934	-0.1965	0.7527	-0.5978
6.93	-0.5628	-9.3948	-2.0363	0.0195	0.0008	0.0134	-20.2621	26.7559	19.8850	0.1934	-0.1965	0.7527	-0.5978
6.94	-0.5621	-9.4062	-2.0454	0.0216	-0.0032	0.0138	-20.4857	26.7661	20.2262	0.1934	-0.1965	0.7527	-0.5978
6.95	-0.5684	-9.4061	-2.0487	0.0190	0.0048	0.0115	-20.4724	26.7528	19.9319	0.1933	-0.1965	0.7528	-0.5978
6.96	-0.5654	-9.3977	-2.0495	0.0202	-0.0009	0.0135	-20.3874	26.7743	19.9623	0.1933	-0.1965	0.7527	-0.5978
6.97	-0.5584	-9.3994	-2.0622	0.0179	-0.0033	0.0114	-20.7690	26.7233	20.1479	0.1933	-0.1965	0.7528	-0.5978
6.98	-0.5608	-9.4094	-2.0621	0.0215	0.0008	0.0079	-20.5421	26.8473	19.9503	0.1933	-0.1965	0.7527	-0.5978
6.99	-0.5537	-9.4009	-2.0492	0.0203	0.0030	0.0101	-20.4841	26.9128	20.0288	0.1933	-0.1965	0.7528	-0.5979
7	-0.5475	-9.3930	-2.0443	0.0169	-0.0047	0.0128	-20.5852	26.8340	20.0881	0.1933	-0.1965	0.7528	-0.5978
7.01	-0.5401	-9.4054	-2.0472	0.0191	0.0004	0.0125	-20.5988	27.0377	20.0770	0.1933	-0.1965	0.7528	-0.5978
7.02	-0.5313	-9.4035	-2.0400	0.0215	-0.0032	0.0098	-20.7684	26.8889	20.0691	0.1933	-0.1965	0.7528	-0.5978
7.03	-0.5251	-9.3966	-2.0380	0.0214	-0.0004	0.0116	-20.6578	27.0652	20.0819	0.1933	-0.1965	0.7528	-0.5978
7.04	-0.5164	-9.4016	-2.0375	0.0213	0.0042	0.0069	-20.5116	27.0664	20.0277	0.1932	-0.1965	0.7528	-0.5978
7.05	-0.5131	-9.4099	-2.0408	0.0248	0.0007	0.0111	-20.6711	26.8368	19.8941	0.1932	-0.1964	0.7527	-0.5978
7.06	-0.5183	-9.3979	-2.0364	0.0206	-0.0061	0.0079	-20.4217	26.7317	19.9157	0.1932	-0.1965	0.7528	-0.5979
7.07	-0.5228	-9.3976	-2.0342	0.0219	-0.0087	0.0122	-20.4032	26.8029	19.7592	0.1933	-0.1965	0.7527	-0.5978
7.08	-0.5266	-9.4077	-2.0373	0.0246	-0.0017	0.0126	-20.3270	26.8767	19.9657	0.1933	-0.1965	0.7528	-0.5979
7.09	-0.5270	-9.3964	-2.0329	0.0216	0.0025	0.0129	-20.3876	26.7540	20.1110	0.1932	-0.1964	0.7527	-0.5978
7.1	-0.5362	-9.3964	-2.0304	0.0229	-0.0027	0.0125	-20.4200	26.6381	19.9428	0.1933	-0.1964	0.7527	-0.5979
7.11	-0.5436	-9.4023	-2.0349	0.0220	-0.0097	0.0157	-20.3458	26.5966	20.0998	0.1933	-0.1964	0.7527	-0.5979
7.12	-0.5443	-9.4054	-2.0345	0.0172	-0.0017	0.0157	-20.2960	26.8630	20.0086	0.1933	-0.1964	0.7527	-0.5978
7.13	-0.5418	-9.3949	-2.0351	0.0203	-0.0022	0.0127	-20.5117	26.9177	19.9907	0.1933	-0.1964	0.7528	-0.5979
7.14	-0.5397	-9.4033	-2.0386	0.0198	-0.0120	0.0110	-20.7216	26.6877	19.9901	0.1933	-0.1964	0.7527	-0.5978
7.15	-0.5386	-9.4096	-2.0426	0.0186	-0.0035	0.0136	-20.4768	26.8482	20.0105	0.1934	-0.1964	0.7528	-0.5979
7.16	-0.5426	-9.3979	-2.0418	0.0188	-0.0016	0.0121	-20.5620	26.8319	19.8799	0.1933	-0.1964	0.7527	-0.5978
7.17	-0.5489	-9.4006	-2.0418	0.0203	-0.0030	0.0125	-20.6483	26.9378	20.0428	0.1933	-0.1964	0.7528	-0.5978
7.18	-0.5539	-9.4020	-2.0466	0.0196	-0.0051	0.0147	-20.3568	26.9284	20.2458	0.1934	-0.1964	0.7528	-0.5978
7.19	-0.5610	-9.4001	-2.0463	0.0199	-0.0076	0.0135	-20.0271	27.1452	20.2970	0.1934	-0.1964	0.7527	-0.5978
7.2	-0.5674	-9.3933	-2.0603	0.0195	-0.0019	0.0113	-20.3465	27.0534	20.3219	0.1934	-0.1964	0.7528	-0.5978
7.21	-0.5683	-9.4009	-2.0690	0.0198	-0.0022	0.0107	-20.4231	27.2183	20.1116	0.1934	-0.1964	0.7528	-0.5978
7.22	-0.5635	-9.4055	-2.0688	0.0200	-0.0019	0.0112	-20.3605	27.5594	20.0262	0.1934	-0.1965	0.7528	-0.5978
7.23	-0.5619	-9.3940	-2.0765	0.0219	-0.0061	0.0085	-20.6141	26.9415	20.0854	0.1934	-0.1964	0.7527	-0.5977
7.24	-0.5566	-9.4023	-2.0820	0.0180	-0.0107	0.0080	-20.5751	26.9980	19.9304	0.1934	-0.1965	0.7528	-0.5978
7.25	-0.5502	-9.4018	-2.0893	0.0186	-0.0012	0.0104	-20.3980	26.8610	19.9275	0.1934	-0.1965	0.7528	-0.5978
7.26	-0.5458	-9.4032	-2.0826	0.0170	-0.0026	0.0107	-20.3252	27.0128	20.3124	0.1934	-0.1965	0.7528	-0.5978
7.27	-0.5435	-9.4053	-2.0787	0.0153	-0.0085	0.0094	-20.3401	26.8203	20.0265	0.1934	-0.1965	0.7528	-0.5977
7.28	-0.5403	-9.4041	-2.0744	0.0201	-0.0101	0.0133	-20.4689	26.5771	19.9034	0.1934	-0.1966	0.7528	-0.5977
7.29	-0.5445	-9.4034	-2.0591	0.0198	-0.0033	0.0098	-20.4563	26.8032	20.0417	0.1934	-0.1966	0.7528	-0.5977
7.3	-0.5422	-9.4027	-2.0466	0.0201	-0.0078	0.0101	-20.3838	26.8171	19.8858	0.1934	-0.1966	0.7527	-0.5977
7.31	-0.5365	-9.4047	-2.0397	0.0191	-0.0089	0.0070	-20.5229	26.8661	19.9011	0.1935	-0.1966	0.7528	-0.5977
7.32	-0.5325	-9.4046	-2.0356	0.0189	-0.0044	0.0051	-20.6267	26.9943	20.0528	0.1934	-0.1966	0.7528	-0.5977
7.33	-0.5243	-9.3990	-2.0195	0.0186	-0.0070	0.0106	-20.4421	26.6151	20.0459	0.1935	-0.1967	0.7528	-0.5977
7.34	-0.5217	-9.3986	-2.0150	0.0191	-0.0013	0.0122	-20.3914	26.7656	19.8481	0.1934	-0.1967	0.7527	-0.5976
7.35	-0.5180	-9.4065	-2.0166	0.0202	-0.0053	0.0117	-20.5479	26.8359	20.2014	0.1935	-0.1967	0.7528	-0.5977
7.36	-0.5093	-9.4013	-2.0224	0.0191	-0.0061	0.0130	-20.6091	26.8172	20.1944	0.1935	-0.1967	0.7528	-0.5977
7.37	-0.5120	-9.3961	-2.0146	0.0206	-0.0065	0.0121	-20.4914	26.8244	19.8611	0.1935	-0.1967	0.7527	-0.5976
7.38	-0.5150	-9.4113	-2.0280	0.0169	-0.0059	0.0133	-20.4943	26.8224	19.9123	0.1935	-0.1967	0.7529	-0.5977
7.39	-0.5125	-9.4071	-2.0296	0.0140	-0.0069	0.0104	-20.6159	26.8418	20.0331	0.1935	-0.1967	0.7528	-0.5976
7.4	-0.5191	-9.4000	-2.0243	0.0204	0.0006	0.0149	-20.5101	26.9989	20.1008	0.1935	-0.1967	0.7529	-0.5976
7.41	-0.5262	-9.4039	-2.0347	0.0192	0.0022	0.0114	-20.4801	26.9249	19.9622	0.1935	-0.1967	0.7528	-0.5976
7.42	-0.5254	-9.4088	-2.0413	0.0179	-0.0033	0.0097	-20.5069	26.6645	19.9027	0.1935	-0.1967	0.7528	-0.5976
7.43	-0.5288	-9.4001	-2.0437	0.0198	-0.0086	0.0113	-20.4586	26.7120	20.0547	0.1935	-0.1967	0.7528	-0.5976
7.44	-0.5330	-9.3965	-2.0489	0.0196	-0.0043	0.0124	-20.3316	26.7656	19.8612	0.1935	-0.1967	0.7528	-0.5976
7.45	-0.5343	-9.4062	-2.0542	0.0201	-0.0073	0.0127	-20.3305	26.7406	20.1292	0.1935	-0.1967	0.7529	-0.5976
7.46	-0.5389	-9.3990	-2.0510	0.0188	-0.0066	0.0082	-20.4901	26.8677	20.1340	0.1935	-0.1967	0.7528	-0.5976
7.47	-0.5475	-9.3979	-2.0564	0.0190	-0.0018	0.0119	-20.2712	26.7572	20.0540	0.1935	-0.1967	0.7529	-0.5976
7.48	-0.5605	-9.4043	-2.0727	0.0187	-0.0084	0.0143	-20.3280	26.7314	20.0931	0.1935	-0.1967	0.7528	-0.5975
7.49	-0.5662	-9.4011	-2.0705	0.0196	0.0008	0.0102	-20.4333	26.8518	20.0722	0.1936	-0.1967	0.7529	-0.5976
7.5	-0.5686	-9.3966	-2.0697	0.0199	0.0065	0.0143	-20.4439	26.7942	20.2264	0.1935	-0.1967	0.7529	-0.5975
7.51	-0.5712	-9.4052	-2.0694	0.0193	-0.0037	0.0129	-20.5394	26.8678	20.0077	0.1935	-0.1967	0.7529	-0.5975
7.52	-0.5694	-9.4045	-2.0754	0.0196	-0.0136	0.0087	-20.3705	26.6051	19.8869	0.1936	-0.1967	0.7528	-0.5975
7.53	-0.5650	-9.3971	-2.0676	0.0191	-0.0008	0.0077	-20.4624	26.7457	19.9183	0.1935	-0.1967	0.7529	-0.5975
7.54	-0.5634	-9.4042	-2.0620	0.0210	0.0033	0.0055	-20.5040	26.8325	20.0707	0.1935	-0.1968	0.7529	-0.5975
7.55	-0.5611	-9.4026	-2.0613	0.0206	-0.0008	0.0132	-20.5198	26.9124	20.0045	0.1935	-0.1967	0.7528	-0.5975
7.56	-0.5584	-9.3961	-2.0554	0.0193	0.0020	0.0127	-20.3665	26.7929	19.8559	0.1935	-0.1967	0.7529	-0.5976
7.57	-0.5521	-9.3944	-2.0520	0.0196	0.0028	0.0117	-20.3577	26.9063	19.9632	0.1935	-0.1967	0.7529	-0.5975
7.58	-0.5497	-9.4027	-2.0476	0.0197	0.0048	0.0105	-20.4771	26.7786	19.9953	0.1934	-0.1967	0.7530	-0.5976
7.59	-0.5479	-9.4028	-2.0452	0.0205	0.0011	0.0116	-20.6174	26.7963	19.9854	0.1934	-0.1967	0.7529	-0.5975
7.6	-0.5408	-9.4042	-2.0492	0.0186	-0.0044	0.0115	-20.3974	26.9558	20.2073	0.1934	-0.1967	0.7529	-0.5975
7.61	-0.5405	-9.4034	-2.0476	0.0190	-0.0093	0.0105	-20.5771	26.8522	20.1038	0.1934	-0.1967	0.7529	-0.5975
7.62	-0.5400	-9.3982	-2.0473	0.0187	-0.0008	0.0118	-20.6544	26.7203	19.9869	0.1934	-0.1967	0.7529	-0.5975
7.63	-0.5405	-9.3991	-2.0421	0.0206	-0.0099	0.0109	-20.2608	26.8610	19.8991	0.1935	-0.1967	0.7530	-0.5975
7.64	-0.5353	-9.4039	-2.0397	0.0193	0.0034	0.0115	-20.3825	26.6418	19.8772	0.1934	-0.1967	0.7529	-0.5975
7.65	-0.5372	-9.4032	-2.0283	0.0199	0.0038	0.0116	-20.4697	26.5592	19.7747	0.1934	-0.1967	0.7530	-0.5975
7.66	-0.5344	-9.4020	-2.0219	0.0191	0.0062	0.0055	-20.5132	26.6341	19.9981	0.1933	-0.1967	0.7529	-0.5975
7.67	-0.5313	-9.4018	-2.0270	0.0211	0.0059	0.0103	-20.4835	26.9306	20.1045	0.1933	-0.1967	0.7530	-0.5975
7.68	-0.5341	-9.3990	-2.0271	0.0205	0.0035	0.0141	-20.2074	27.1219	20.1956	0.1933	-0.1966	0.7529	-0.5975
7.69	-0.5296	-9.4043	-2.0316	0.0189	-0.0019	0.0096	-19.9176	27.0239	20.3625	0.1933	-0.1966	0.7529	-0.5975
7.7	-0.5270	-9.3957	-2.0254	0.0248	0.0043	0.0142	-20.0786	26.9513	19.9773	0.1933	-0.1966	0.7530	-0.5975
7.71	-0.5159	-9.4017	-2.0194	0.0221	0.0029	0.0117	-20.4236	27.1475	19.9890	0.1933	-0.1966	0.7529	-0.5975
7.72	-0.5122	-9.4095	-2.0268	0.0190	0.0015	0.0107	-20.4926	27.6206	19.8957	0.1933	-0.1966	0.7530	-0.5976
7.73	-0.5148	-9.4042	-2.0247	0.0197	-0.0036	0.0129	-20.5669	26.8291	20.0811	0.1932	-0.1966	0.7529	-0.5975
7.74	-0.5141	-9.4002	-2.0260	0.0193	-0.0009	0.0122	-20.5288	26.8617	20.0988	0.1933	-0.1966	0.7530	-0.5976
7.75	-0.5116	-9.4050	-2.0352	0.0198	0.0036	0.0126	-20.6178	26.9140	20.1308	0.1932	-0.1965	0.7530	-0.5975
7.76	-0.5145	-9.4099	-2.0411	0.0203	-0.0024	0.0126	-20.6137	26.9161	20.1591	0.1932	-0.1965	0.7530	-0.5975
7.77	-0.5184	-9.4009	-2.0470	0.0196	-0.0014	0.0127	-20.7472	26.8877	19.9513	0.1932	-0.1965	0.7530	-0.5975
7.78	-0.5275	-9.4026	-2.0504	0.0196	-0.0060	0.0105	-20.6232	26.9491	19.9406	0.1932	-0.1965	0.7530	-0.5975
7.79	-0.5330	-9.4071	-2.0655	0.0199	0.0005	0.0133	-20.3970	26.9778	20.0320	0.1932	-0.1965	0.7530	-0.5975
7.8	-0.5395	-9.4026	-2.0620	0.0218	-0.0055	0.0125	-20.5842	26.8127	19.9778	0.1932	-0.1965	0.7529	-0.5975
7.81	-0.5501	-9.4021	-2.0652	0.0194	-0.0059	0.0136	-20.4449	26.7364	20.1464	0.1933	-0.1965	0.7530	-0.5975
7.82	-0.5571	-9.4074	-2.0789	0.0197	-0.0056	0.0124	-20.3468	26.7619	20.0313	0.1933	-0.1965	0.7530	-0.5975
7.83	-0.5650	-9.4012	-2.0726	0.0191	-0.0038	0.0120	-20.4907	26.7193	20.0255	0.1933	-0.1966	0.7531	-0.5975
7.84	-0.5712	-9.4003	-2.0640	0.0198	-0.0021	0.0154	-20.3623	26.8732	19.9041	0.1933	-0.1965	0.7530	-0.5974
7.85	-0.5737	-9.4063	-2.0661	0.0193	-0.0060	0.0106	-20.3236	26.7622	19.9667	0.1933	-0.1965	0.7530	-0.5975
7.86	-0.5760	-9.3979	-2.0624	0.0204	0.0017	0.0120	-20.3905	26.4935	19.8418	0.1933	-0.1965	0.7530	-0.5975
7.87	-0.5740	-9.3946	-2.0560	0.0186	-0.0069	0.0118	-20.4444	26.7598	19.9948	0.1933	-0.1965	0.7530	-0.5974
7.88	-0.5680	-9.4027	-2.0549	0.0273	-0.0030	0.0097	-20.5710	26.8461	20.0244	0.1933	-0.1966	0.7531	-0.5975
7.89	-0.5691	-9.3970	-2.0512	0.0278	-0.0015	0.0130	-20.5482	26.8087	19.8850	0.1933	-0.1965	0.7530	-0.5975
7.9	-0.5593	-9.4017	-2.0478	0.0199	-0.0048	0.0121	-20.3239	26.8998	19.9507	0.1933	-0.1965	0.7530	-0.5975
7.91	-0.5532	-9.4032	-2.0490	0.0205	-0.0074	0.0106	-20.7533	26.9262	19.8946	0.1933	-0.1965	0.7529	-0.5975
7.92	-0.5484	-9.4046	-2.0384	0.0180	0.0003	0.0115	-20.6459	26.6796	19.9440	0.1933	-0.1965	0.7530	-0.5975
7.93	-0.5458	-9.4023	-2.0403	0.0233	0.0043	0.0130	-20.4209	26.8422	19.8933	0.1933	-0.1965	0.7530	-0.5975
7.94	-0.5404	-9.3980	-2.0345	0.0206	0.0002	0.0112	-20.7041	27.0157	20.0216	0.1933	-0.1965	0.7530	-0.5975
7.95	-0.5332	-9.4028	-2.0275	0.0236	0.0001	0.0085	-20.4818	26.9747	19.8821	0.1933	-0.1965	0.7530	-0.5975
7.96	-0.5288	-9.4011	-2.0302	0.0213	-0.0025	0.0117	-20.6437	26.8991	19.9856	0.1933	-0.1965	0.7530	-0.5975
7.97	-0.5234	-9.4021	-2.0297	0.0197	0.0017	0.0127	-20.7138	26.9019	20.1462	0.1933	-0.1965	0.7530	-0.5975
7.98	-0.5223	-9.4045	-2.0343	0.0199	0.0030	0.0132	-20.4390	26.9291	19.9874	0.1932	-0.1964	0.7530	-0.5975
7.99	-0.5224	-9.4032	-2.0301	0.0207	-0.0101	0.0120	-20.4691	26.7785	19.9138	0.1933	-0.1965	0.7530	-0.5975
8	-0.5239	-9.3992	-2.0320	0.0204	-0.0073	0.0130	-20.3387	26.9386	20.0983	0.1933	-0.1965	0.7530	-0.5975
8.01	-0.5268	-9.4073	-2.0356	0.0193	-0.0041	0.0104	-20.5313	26.9935	20.0373	0.1933	-0.1965	0.7530	-0.5975
8.02	-0.5309	-9.4000	-2.0338	0.0259	0.0038	0.0099	-20.6445	26.5995	19.9025	0.1933	-0.1965	0.7530	-0.5975
8.03	-0.5310	-9.4064	-2.0426	0.0200	-0.0031	0.0096	-20.6167	26.7099	19.9312	0.1933	-0.1965	0.7530	-0.5975
8.04	-0.5311	-9.4071	-2.0407	0.0193	-0.0063	0.0134	-20.6516	26.5724	19.9291	0.1933	-0.1965	0.7530	-0.5975
8.05	-0.5315	-9.3991	-2.0408	0.0218	-0.0029	0.0141	-20.5410	26.6512	19.9201	0.1933	-0.1965	0.7529	-0.5975
8.06	-0.5304	-9.4010	-2.0420	0.0240	0.0019	0.0127	-20.5610	26.7714	20.0385	0.1933	-0.1965	0.7530	-0.5976
8.07	-0.5287	-9.4054	-2.0424	0.0181	-0.0062	0.0110	-20.3913	26.7366	19.9928	0.1933	-0.1965	0.7530	-0.5975
8.08	-0.5293	-9.3987	-2.0487	0.0228	-0.0009	0.0096	-20.4540	26.7954	20.0854	0.1933	-0.1965	0.7531	-0.5976
8.09	-0.5254	-9.4025	-2.0522	0.0243	0.0009	0.0153	-20.4780	27.0195	20.0970	0.1933	-0.1964	0.7530	-0.5975
8.1	-0.5257	-9.4090	-2.0549	0.0200	-0.0003	0.0148	-20.3727	27.1974	20.0860	0.1933	-0.1964	0.7530	-0.5975
8.11	-0.5327	-9.4020	-2.0508	0.0191	0.0008	0.0082	-20.5803	26.9551	20.0839	0.1933	-0.1964	0.7530	-0.5975
8.12	-0.5343	-9.4024	-2.0527	0.0204	-0.0025	0.0136	-20.7311	27.0935	19.8072	0.1932	-0.1964	0.7530	-0.5975
8.13	-0.5392	-9.4062	-2.0588	0.0180	-0.0002	0.0126	-20.6824	26.9542	19.8425	0.1933	-0.1964	0.7531	-0.5976
8.14	-0.5386	-9.4002	-2.0507	0.0255	-0.0062	0.0105	-20.6503	26.9240	20.0830	0.1933	-0.1964	0.7530	-0.5975
8.15	-0.5419	-9.3958	-2.0509	0.0217	-0.0058	0.0127	-20.7630	27.0302	20.0891	0.1933	-0.1964	0.7530	-0.5976
8.16	-0.5468	-9.3991	-2.0604	0.0199	-0.0023	0.0115	-20.5976	26.8881	20.0903	0.1933	-0.1964	0.7530	-0.5975
8.17	-0.5478	-9.4010	-2.0614	0.0189	-0.0059	0.0134	-20.7611	26.9101	20.0944	0.1933	-0.1964	0.7530	-0.5975
8.18	-0.5503	-9.4015	-2.0462	0.0256	-0.0104	0.0163	-20.4630	26.9284	20.0784	0.1933	-0.1964	0.7530	-0.5975
8.19	-0.5472	-9.4022	-2.0497	0.0254	-0.0002	0.0125	-20.0446	27.1141	20.1585	0.1933	-0.1964	0.7530	-0.5975
8.2	-0.5564	-9.4024	-2.0442	0.0194	-0.0016	0.0151	-20.1245	27.1225	20.0492	0.1934	-0.1964	0.7530	-0.5975
8.21	-0.5604	-9.4024	-2.0311	0.0223	0.0036	0.0116	-20.2900	27.2042	19.9888	0.1933	-0.1964	0.7530	-0.5975
8.22	-0.5600	-9.4088	-2.0405	0.0190	-0.0017	0.0109	-20.3737	27.4124	19.9555	0.1933	-0.1964	0.7530	-0.5976
8.23	-0.5698	-9.3974	-2.0380	0.0222	-0.0013	0.0128	-20.4377	26.6672	19.9949	0.1933	-0.1963	0.7529	-0.5975
8.24	-0.5617	-9.3976	-2.0457	0.0210	0.0012	0.0117	-20.4104	26.7923	19.8620	0.1933	-0.1963	0.7530	-0.5976
8.25	-0.5643	-9.4057	-2.0503	0.0205	-0.0051	0.0071	-20.4687	26.7963	19.9473	0.1933	-0.1964	0.7530	-0.5975
8.26	-0.5582	-9.3976	-2.0479	0.0219	-0.0082	0.0113	-20.5334	26.6905	20.0053	0.1933	-0.1964	0.7530	-0.5976
8.27	-0.5491	-9.4002	-2.0462	0.0227	-0.0085	0.0096	-20.4896	26.9335	19.9468	0.1933	-0.1964	0.7530	-0.5975
8.28	-0.5425	-9.4091	-2.0473	0.0202	-0.0070	0.0094	-20.5448	26.8796	20.2647	0.1934	-0.1964	0.7530	-0.5975
8.29	-0.5355	-9.4030	-2.0408	0.0195	-0.0062	0.0102	-20.8004	26.9128	20.1318	0.1934	-0.1964	0.7530	-0.5975
8.3	-0.5295	-9.4018	-2.0343	0.0195	-0.0025	0.0069	-20.5811	26.8142	19.9425	0.1933	-0.1964	0.7529	-0.5975
8.31	-0.5273	-9.4116	-2.0421	0.0195	-0.0006	0.0102	-20.5109	26.8110	20.2080	0.1933	-0.1965	0.7530	-0.5976
8.32	-0.5253	-9.4087	-2.0474	0.0199	-0.0024	0.0117	-20.6246	26.9687	19.9506	0.1933	-0.1964	0.7530	-0.5975
8.33	-0.5195	-9.3935	-2.0425	0.0196	0.0045	0.0133	-20.5427	26.7368	20.0632	0.1933	-0.1964	0.7531	-0.5976
8.34	-0.5228	-9.4007	-2.0518	0.0188	0.0018	0.0123	-20.3241	26.8238	20.0675	0.1933	-0.1964	0.7530	-0.5975
8.35	-0.5227	-9.4115	-2.0529	0.0192	0.0031	0.0140	-20.4787	26.9211	20.0843	0.1933	-0.1964	0.7530	-0.5975
8.36	-0.5261	-9.4001	-2.0483	0.0190	0.0026	0.0124	-20.5175	26.9024	20.0085	0.1933	-0.1964	0.7530	-0.5975
8.37	-0.5341	-9.4009	-2.0540	0.0190	0.0001	0.0099	-20.5179	26.8332	19.9680	0.1932	-0.1963	0.7530	-0.5975
8.38	-0.5331	-9.4064	-2.0573	0.0187	-0.0009	0.0086	-20.3157	26.8159	19.9959	0.1932	-0.1964	0.7531	-0.5976
8.39	-0.5336	-9.4003	-2.0480	0.0191	-0.0019	0.0092	-20.5085	26.8348	19.8377	0.1932	-0.1964	0.7530	-0.5975
8.4	-0.5385	-9.3997	-2.0507	0.0187	-0.0007	0.0055	-20.4434	26.7741	19.9919	0.1932	-0.1964	0.7531	-0.5975
8.41	-0.5414	-9.4036	-2.0446	0.0189	-0.0077	0.0052	-20.4153	26.6316	19.9839	0.1932	-0.1964	0.7530	-0.5975
8.42	-0.5465	-9.3998	-2.0426	0.0190	-0.0010	0.0127	-20.5245	26.6835	19.8893	0.1932	-0.1964	0.7531	-0.5975
8.43	-0.5451	-9.3977	-2.0340	0.0202	-0.0048	0.0128	-20.5272	26.6062	20.2258	0.1932	-0.1964	0.7531	-0.5975
8.44	-0.5452	-9.4035	-2.0389	0.0193	0.0011	0.0127	-20.4367	26.8206	19.9784	0.1932	-0.1964	0.7531	-0.5975
8.45	-0.5448	-9.4033	-2.0412	0.0205	-0.0038	0.0109	-20.4269	26.8937	19.9910	0.1932	-0.1964	0.7531	-0.5975
8.46	-0.5477	-9.3988	-2.0394	0.0178	-0.0063	0.0097	-20.4102	26.8422	19.9483	0.1932	-0.1964	0.7531	-0.5975
8.47	-0.5463	-9.4004	-2.0459	0.0195	-0.0022	0.0102	-20.3006	27.0850	19.8867	0.1932	-0.1964	0.7531	-0.5975
8.48	-0.5424	-9.4044	-2.0537	0.0178	-0.0078	0.0130	-20.4607	26.7613	20.2117	0.1932	-0.1964	0.7530	-0.5974
8.49	-0.5417	-9.4041	-2.0467	0.0193	-0.0098	0.0106	-20.5051	26.8725	20.1014	0.1932	-0.1965	0.7531	-0.5974
8.5	-0.5439	-9.4014	-2.0445	0.0187	-0.0063	0.0086	-20.5555	26.8631	19.9452	0.1932	-0.1965	0.7531	-0.5974
8.51	-0.5464	-9.4023	-2.0478	0.0179	-0.0015	0.0138	-20.5980	26.7871	19.9924	0.1932	-0.1965	0.7531	-0.5974
8.52	-0.5430	-9.4040	-2.0443	0.0208	-0.0072	0.0126	-20.5848	26.9145	19.9768	0.1932	-0.1965	0.7531	-0.5974
8.53	-0.5419	-9.4003	-2.0421	0.0195	-0.0072	0.0108	-20.6954	26.8968	20.0867	0.1933	-0.1965	0.7531	-0.5974
8.54	-0.5391	-9.3960	-2.0406	0.0149	-0.0061	0.0134	-20.6412	26.8808	20.0534	0.1933	-0.1965	0.7531	-0.5974
8.55	-0.5446	-9.3996	-2.0408	0.0190	-0.0098	0.0126	-20.4124	26.9938	20.0656	0.1933	-0.1965	0.7531	-0.5973
8.56	-0.5473	-9.4027	-2.0419	0.0200	-0.0015	0.0135	-20.4588	26.9705	20.0691	0.1933	-0.1965	0.7532	-0.5974
8.57	-0.5459	-9.3959	-2.0441	0.0196	-0.0019	0.0100	-20.3770	26.7441	20.2196	0.1933	-0.1965	0.7531	-0.5973
8.58	-0.5494	-9.4061	-2.0518	0.0197	-0.0046	0.0091	-20.4020	26.9423	20.0199	0.1933	-0.1966	0.7532	-0.5974
8.59	-0.5513	-9.4035	-2.0521	0.0200	-0.0054	0.0133	-20.4509	26.7191	19.8631	0.1933	-0.1965	0.7531	-0.5973
8.6	-0.5467	-9.3961	-2.0489	0.0187	-0.0103	0.0062	-20.1902	26.6369	19.9447	0.1933	-0.1966	0.7531	-0.5973
8.61	-0.5445	-9.3985	-2.0493	0.0148	-0.0098	0.0091	-20.3723	26.6957	19.8181	0.1933	-0.1966	0.7531	-0.5973
8.62	-0.5396	-9.4047	-2.0591	0.0198	-0.0041	0.0119	-20.5122	26.8736	19.8641	0.1933	-0.1966	0.7531	-0.5972
8.63	-0.5367	-9.4008	-2.0544	0.0192	-0.0122	0.0134	-20.5241	27.1236	20.1005	0.1934	-0.1967	0.7532	-0.5973
8.64	-0.5326	-9.3962	-2.0502	0.0201	-0.0058	0.0130	-20.3604	26.8668	20.0580	0.1934	-0.1967	0.7531	-0.5972
8.65	-0.5293	-9.4102	-2.0575	0.0151	-0.0060	0.0072	-20.3925	26.8245	20.2818	0.1934	-0.1967	0.7532	-0.5973
8.66	-0.5270	-9.4017	-2.0583	0.0191	-0.0006	0.0077	-20.5328	26.7260	20.1352	0.1934	-0.1967	0.7531	-0.5972
8.67	-0.5277	-9.3984	-2.0536	0.0180	0.0030	0.0104	-20.5063	26.7514	20.0804	0.1934	-0.1967	0.7532	-0.5972
8.68	-0.5312	-9.4026	-2.0549	0.0198	-0.0029	0.0108	-20.3477	26.7055	20.3622	0.1933	-0.1967	0.7532	-0.5972
8.69	-0.5285	-9.4027	-2.0564	0.0198	0.0011	0.0116	-19.8969	26.8410	20.2925	0.1933	-0.1967	0.7532	-0.5972
8.7	-0.5353	-9.3994	-2.0479	0.0197	-0.0054	0.0162	-20.1681	26.8684	20.4443	0.1934	-0.1967	0.7532	-0.5972
8.71	-0.5370	-9.4031	-2.0456	0.0196	0.0028	0.0071	-20.6883	27.1551	20.3091	0.1933	-0.1967	0.7532	-0.5972
8.72	-0.5378	-9.4064	-2.0476	0.0197	0.0029	0.0137	-20.6566	27.5985	19.9589	0.1933	-0.1967	0.7532	-0.5972
8.73	-0.5376	-9.3968	-2.0425	0.0196	-0.0024	0.0157	-20.5993	26.8377	19.9832	0.1933	-0.1966	0.7531	-0.5972
8.74	-0.5399	-9.3983	-2.0331	0.0203	-0.0138	0.0149	-20.7091	26.8437	20.0885	0.1934	-0.1967	0.7532	-0.5972
8.75	-0.5469	-9.4093	-2.0379	0.0240	-0.0078	0.0124	-20.2228	26.6575	20.0935	0.1934	-0.1967	0.7532	-0.5972
8.76	-0.5462	-9.4034	-2.0344	0.0218	-0.0030	0.0103	-20.2669	26.4928	20.0697	0.1934	-0.1967	0.7532	-0.5972
8.77	-0.5478	-9.3963	-2.0253	0.0204	-0.0063	0.0141	-20.2939	26.5843	20.2203	0.1934	-0.1967	0.7532	-0.5972
8.78	-0.5506	-9.4048	-2.0301	0.0176	-0.0092	0.0114	-20.3042	26.6104	20.1022	0.1934	-0.1967	0.7532	-0.5972
8.79	-0.5542	-9.4045	-2.0319	0.0189	-0.0083	0.0109	-20.4205	26.7204	20.1534	0.1935	-0.1967	0.7532	-0.5972
8.8	-0.5583	-9.3925	-2.0354	0.0209	-0.0063	0.0129	-20.5549	26.8398	20.0825	0.1935	-0.1967	0.7531	-0.5971
8.81	-0.5560	-9.4006	-2.0439	0.0212	-0.0069	0.0124	-20.3886	26.9124	20.0918	0.1935	-0.1967	0.7532	-0.5972
8.82	-0.5511	-9.4061	-2.0478	0.0176	-0.0120	0.0127	-20.4240	26.6676	20.1723	0.1935	-0.1967	0.7532	-0.5971
8.83	-0.5433	-9.4043	-2.0484	0.0184	-0.0085	0.0126	-20.6278	26.8928	20.2367	0.1936	-0.1968	0.7532	-0.5972
8.84	-0.5408	-9.4010	-2.0473	0.0201	-0.0044	0.0150	-20.7027	26.9970	20.1526	0.1936	-0.1967	0.7531	-0.5971
8.85	-0.5341	-9.4044	-2.0507	0.0192	-0.0060	0.0125	-20.5554	27.1050	20.1736	0.1936	-0.1968	0.7532	-0.5971
8.86	-0.5317	-9.4043	-2.0463	0.0218	-0.0041	0.0128	-20.5663	27.0370	20.2744	0.1936	-0.1968	0.7532	-0.5971
8.87	-0.5292	-9.4017	-2.0452	0.0201	-0.0020	0.0174	-20.6410	26.8854	20.2400	0.1936	-0.1967	0.7532	-0.5970
8.88	-0.5279	-9.4022	-2.0459	0.0198	-0.0080	0.0106	-20.5929	27.1113	20.2464	0.1936	-0.1968	0.7533	-0.5971
8.89	-0.5301	-9.4051	-2.0481	0.0197	-0.0053	0.0108	-20.6390	26.9115	19.9731	0.1936	-0.1968	0.7532	-0.5971
8.9	-0.5276	-9.4043	-2.0548	0.0206	-0.0031	0.0135	-20.5401	26.9569	20.0385	0.1936	-0.1968	0.7532	-0.5971
8.91	-0.5300	-9.3996	-2.0515	0.0196	0.0022	0.0147	-20.5170	27.0276	20.1802	0.1936	-0.1967	0.7532	-0.5970
8.92	-0.5316	-9.4081	-2.0534	0.0208	-0.0003	0.0116	-20.7522	26.8401	20.1389	0.1936	-0.1967	0.7532	-0.5971
8.93	-0.5357	-9.4023	-2.0607	0.0274	-0.0024	0.0105	-20.6147	26.7143	20.2001	0.1936	-0.1967	0.7532	-0.5971
8.94	-0.5422	-9.3936	-2.0576	0.0209	-0.0077	0.0153	-20.3633	26.7763	20.0504	0.1936	-0.1967	0.7532	-0.5971
8.95	-0.5391	-9.3975	-2.0530	0.0219	-0.0011	0.0117	-20.2840	26.6462	20.3114	0.1936	-0.1967	0.7532	-0.5971
8.96	-0.5466	-9.4061	-2.0602	0.0256	-0.0008	0.0134	-20.4073	26.6859	20.1895	0.1936	-0.1967	0.7532	-0.5971
8.97	-0.5540	-9.3972	-2.0491	0.0207	-0.0065	0.0097	-20.3342	26.6294	20.2392	0.1937	-0.1967	0.7532	-0.5971
8.98	-0.5520	-9.3970	-2.0469	0.0195	-0.0054	0.0101	-20.4727	26.8350	20.1908	0.1936	-0.1967	0.7531	-0.5970
8.99	-0.5574	-9.4066	-2.0445	0.0200	-0.0027	0.0123	-20.5167	26.9329	20.0338	0.1937	-0.1967	0.7532	-0.5971
9	-0.5507	-9.4013	-2.0373	0.0194	-0.0077	0.0070	-20.2784	26.7574	20.2760	0.1937	-0.1967	0.7532	-0.5971
9.01	-0.5472	-9.4033	-2.0382	0.0251	-0.0005	0.0115	-20.3348	26.7491	20.1820	0.1937	-0.1967	0.7532	-0.5971
9.02	-0.5448	-9.4098	-2.0413	0.0247	-0.0017	0.0122	-20.4939	26.8113	20.1477	0.1937	-0.1967	0.7531	-0.5971
9.03	-0.5437	-9.4060	-2.0426	0.0212	-0.0042	0.0129	-20.3856	27.1053	20.3156	0.1937	-0.1967	0.7532	-0.5971
9.04	-0.5399	-9.3971	-2.0412	0.0198	-0.0024	0.0129	-20.6431	26.9588	20.3148	0.1937	-0.1967	0.7532	-0.5971
9.05	-0.5359	-9.3987	-2.0473	0.0196	-0.0011	0.0112	-20.6603	26.8711	20.0657	0.1937	-0.1967	0.7531	-0.5971
9.06	-0.5377	-9.4076	-2.0449	0.0212	-0.0051	0.0094	-20.3779	27.1257	20.0638	0.1937	-0.1967	0.7532	-0.5971
9.07	-0.5364	-9.3972	-2.0364	0.0210	0.0010	0.0131	-20.6435	26.9205	20.1098	0.1937	-0.1967	0.7532	-0.5971
9.08	-0.5389	-9.3977	-2.0365	0.0198	-0.0014	0.0127	-20.5252	27.1064	20.1975	0.1937	-0.1967	0.7532	-0.5972
9.09	-0.5377	-9.4060	-2.0366	0.0192	-0.0064	0.0144	-20.5443	26.9695	19.9581	0.1937	-0.1967	0.7531	-0.5971
9.1	-0.5340	-9.3998	-2.0355	0.0192	-0.0048	0.0132	-20.4864	26.9133	20.1211	0.1937	-0.1967	0.7532	-0.5971
9.11	-0.5301	-9.3945	-2.0354	0.0218	-0.0023	0.0107	-20.6487	26.8582	20.1958	0.1937	-0.1967	0.7532	-0.5971
9.12	-0.5364	-9.4070	-2.0420	0.0199	-0.0033	0.0139	-20.6584	26.8055	20.0737	0.1937	-0.1967	0.7531	-0.5970
9.13	-0.5396	-9.4050	-2.0467	0.0200	0.0027	0.0132	-20.3057	26.8571	19.9928	0.1937	-0.1967	0.7533	-0.5971
9.14	-0.5351	-9.3913	-2.0408	0.0198	-0.0043	0.0097	-20.3840	26.6742	19.9803	0.1937	-0.1967	0.7532	-0.5971
9.15	-0.5427	-9.4081	-2.0518	0.0196	-0.0048	0.0149	-20.1523	26.6851	20.0691	0.1937	-0.1967	0.7532	-0.5971
9.16	-0.5456	-9.4072	-2.0571	0.0190	-0.0073	0.0162	-20.3911	26.6459	20.0904	0.1937	-0.1967	0.7531	-0.5970
9.17	-0.5456	-9.3932	-2.0498	0.0212	0.0036	0.0139	-20.5509	26.7027	20.0884	0.1937	-0.1967	0.7532	-0.5971
9.18	-0.5410	-9.3990	-2.0564	0.0260	-0.0047	0.0133	-20.2085	26.7349	20.2399	0.1937	-0.1966	0.7532	-0.5971
9.19	-0.5370	-9.4030	-2.0569	0.0261	-0.0020	0.0091	-19.9981	26.5601	20.3314	0.1937	-0.1966	0.7532	-0.5971
9.2	-0.5335	-9.3995	-2.0557	0.0212	0.0044	0.0124	-20.3572	26.8888	20.2415	0.1937	-0.1966	0.7532	-0.5971
9.21	-0.5326	-9.4015	-2.0505	0.0204	-0.0066	0.0110	-20.5955	27.1717	20.0538	0.1937	-0.1966	0.7532	-0.5971
9.22	-0.5306	-9.4021	-2.0517	0.0193	-0.0026	0.0091	-20.5773	27.4303	20.1147	0.1937	-0.1967	0.7532	-0.5971
9.23	-0.5310	-9.4024	-2.0509	0.0192	0.0007	0.0110	-20.4258	26.8730	20.2000	0.1937	-0.1966	0.7531	-0.5970
9.24	-0.5367	-9.4024	-2.0492	0.0202	0.0045	0.0110	-20.6191	26.9697	19.9073	0.1937	-0.1966	0.7532	-0.5971
9.25	-0.5375	-9.3987	-2.0570	0.0192	0.0028	0.0070	-20.5645	26.9027	20.1063	0.1936	-0.1966	0.7532	-0.5971
9.26	-0.5432	-9.4055	-2.0533	0.0199	0.0014	0.0107	-20.4297	27.0329	20.2014	0.1936	-0.1966	0.7532	-0.5971
9.27	-0.5424	-9.4044	-2.0553	0.0180	-0.0029	0.0141	-20.4418	26.7750	20.0723	0.1936	-0.1966	0.7532	-0.5971
9.28	-0.5444	-9.3921	-2.0472	0.0198	-0.0015	0.0115	-20.5222	26.7144	19.9552	0.1936	-0.1966	0.7532	-0.5971
9.29	-0.5392	-9.4042	-2.0437	0.0194	-0.0014	0.0112	-20.5157	26.7726	20.0776	0.1936	-0.1966	0.7533	-0.5971
9.3	-0.5430	-9.4016	-2.0446	0.0187	-0.0019	0.0124	-20.5044	26.9084	20.0517	0.1936	-0.1966	0.7532	-0.5970
9.31	-0.5463	-9.3981	-2.0369	0.0203	-0.0058	0.0100	-20.5299	26.8881	20.2305	0.1936	-0.1966	0.7533	-0.5971
9.32	-0.5448	-9.4028	-2.0380	0.0193	0.0009	0.0111	-20.6060	26.7596	20.1859	0.1936	-0.1966	0.7532	-0.5971
9.33	-0.5493	-9.4076	-2.0422	0.0220	0.0058	0.0066	-20.3617	26.9134	20.0248	0.1936	-0.1966	0.7533	-0.5971
9.34	-0.5512	-9.3994	-2.0316	0.0199	-0.0015	0.0137	-20.3370	26.8056	20.2058	0.1935	-0.1966	0.7532	-0.5970
9.35	-0.5510	-9.3918	-2.0356	0.0174	0.0035	0.0114	-20.3772	26.7291	20.0429	0.1935	-0.1966	0.7533	-0.5971
9.36	-0.5567	-9.4043	-2.0405	0.0214	0.0014	0.0102	-20.4460	26.8676	20.0915	0.1935	-0.1966	0.7533	-0.5971
9.37	-0.5541	-9.4010	-2.0389	0.0194	-0.0009	0.0124	-20.4149	26.7112	19.7719	0.1935	-0.1965	0.7532	-0.5970
9.38	-0.5503	-9.3957	-2.0406	0.0191	0.0042	0.0123	-20.4225	26.7647	19.9734	0.1935	-0.1965	0.7534	-0.5971
9.39	-0.5482	-9.4028	-2.0469	0.0264	0.0044	0.0132	-20.4516	26.8166	19.9480	0.1934	-0.1965	0.7533	-0.5971
9.4	-0.5432	-9.4007	-2.0477	0.0214	0.0043	0.0146	-20.5748	26.8529	19.9538	0.1934	-0.1965	0.7533	-0.5971
9.41	-0.5319	-9.3987	-2.0448	0.0192	0.0029	0.0092	-20.6921	26.9944	20.0141	0.1934	-0.1964	0.7533	-0.5971
9.42	-0.5294	-9.3999	-2.0473	0.0199	0.0012	0.0089	-20.5420	26.9712	19.8633	0.1934	-0.1965	0.7533	-0.5971
9.43	-0.5251	-9.4014	-2.0495	0.0191	0.0046	0.0102	-20.5170	26.8244	20.1157	0.1933	-0.1964	0.7533	-0.5971
9.44	-0.5190	-9.4010	-2.0461	0.0200	0.0002	0.0092	-20.7110	26.8049	19.9897	0.1933	-0.1964	0.7533	-0.5971
9.45	-0.5216	-9.4060	-2.0428	0.0187	-0.0020	0.0124	-20.4559	26.8095	19.9162	0.1933	-0.1964	0.7534	-0.5971
9.46	-0.5224	-9.4064	-2.0472	0.0193	-0.0067	0.0124	-20.4408	26.8352	20.1413	0.1933	-0.1964	0.7533	-0.5971
9.47	-0.5257	-9.4026	-2.0512	0.0208	0.0015	0.0126	-20.4030	26.9393	20.2339	0.1933	-0.1964	0.7534	-0.5971
9.48	-0.5247	-9.3966	-2.0555	0.0193	-0.0017	0.0131	-20.6136	26.7874	20.2886	0.1933	-0.1964	0.7533	-0.5970
9.49	-0.5342	-9.4056	-2.0594	0.0199	-0.0051	0.0109	-20.5647	26.9275	19.9097	0.1933	-0.1964	0.7534	-0.5971
9.5	-0.5352	-9.4071	-2.0597	0.0192	-0.0044	0.0079	-20.5015	26.8452	19.9120	0.1933	-0.1964	0.7533	-0.5971
9.51	-0.5445	-9.3994	-2.0550	0.0217	-0.0020	0.0126	-20.4604	26.7946	19.8989	0.1933	-0.1964	0.7534	-0.5971
9.52	-0.5482	-9.4027	-2.0556	0.0191	0.0004	0.0124	-20.3305	26.8464	20.0043	0.1933	-0.1964	0.7533	-0.5971
9.53	-0.5537	-9.4052	-2.0537	0.0209	0.0012	0.0124	-20.3571	26.6479	20.0107	0.1933	-0.1964	0.7534	-0.5971
9.54	-0.5574	-9.4001	-2.0449	0.0193	0.0030	0.0139	-20.3782	26.7380	20.1747	0.1933	-0.1964	0.7534	-0.5971
9.55	-0.5605	-9.3959	-2.0386	0.0177	-0.0037	0.0166	-20.5476	26.9330	20.1575	0.1933	-0.1964	0.7533	-0.5970
9.56	-0.5599	-9.4036	-2.0392	0.0199	0.0007	0.0100	-20.4740	26.7774	20.1822	0.1933	-0.1964	0.7534	-0.5971
9.57	-0.5508	-9.4062	-2.0395	0.0193	-0.0046	0.0128	-20.5874	26.8433	19.9964	0.1933	-0.1964	0.7534	-0.5970
9.58	-0.5479	-9.3997	-2.0360	0.0197	-0.0019	0.0116	-20.5154	26.7372	20.0173	0.1933	-0.1964	0.7535	-0.5971
9.59	-0.5446	-9.4049	-2.0352	0.0194	-0.0016	0.0123	-20.5345	26.7255	19.8790	0.1933	-0.1963	0.7534	-0.5970
9.6	-0.5360	-9.4023	-2.0431	0.0197	0.0039	0.0096	-20.4295	26.7239	19.8467	0.1933	-0.1963	0.7534	-0.5970
9.61	-0.5320	-9.3971	-2.0461	0.0195	-0.0004	0.0146	-20.3973	26.7662	20.0892	0.1933	-0.1963	0.7534	-0.5970
9.62	-0.5334	-9.4000	-2.0441	0.0176	-0.0054	0.0087	-20.6439	26.8991	20.1333	0.1932	-0.1963	0.7534	-0.5970
9.63	-0.5351	-9.4007	-2.0421	0.0200	0.0038	0.0126	-20.4863	26.8937	20.2959	0.1932	-0.1963	0.7535	-0.5971
9.64	-0.5345	-9.4007	-2.0437	0.0194	0.0030	0.0093	-20.4050	26.7733	20.0790	0.1932	-0.1963	0.7534	-0.5970
9.65	-0.5393	-9.4011	-2.0393	0.0197	-0.0017	0.0120	-20.5085	26.8985	19.8985	0.1932	-0.1963	0.7535	-0.5971
9.66	-0.5360	-9.4002	-2.0361	0.0196	0.0028	0.0093	-20.4275	26.8862	19.9624	0.1932	-0.1963	0.7534	-0.5970
9.67	-0.5305	-9.4058	-2.0372	0.0200	0.0009	0.0103	-20.4555	26.8087	20.3931	0.1932	-0.1963	0.7535	-0.5970
9.68	-0.5345	-9.3985	-2.0366	0.0194	0.0072	0.0125	-20.3876	26.8036	20.3973	0.1931	-0.1963	0.7535	-0.5970
9.69	-0.5387	-9.4035	-2.0425	0.0225	0.0080	0.0096	-20.1003	26.8455	20.3193	0.1931	-0.1962	0.7535	-0.5970
9.7	-0.5455	-9.4098	-2.0482	0.0179	-0.0047	0.0101	-20.0291	26.8198	20.2170	0.1931	-0.1963	0.7535	-0.5971
9.71	-0.5446	-9.4065	-2.0517	0.0198	-0.0087	0.0124	-20.2863	27.1860	19.9249	0.1931	-0.1963	0.7535	-0.5970
9.72	-0.5395	-9.3996	-2.0574	0.0197	-0.0027	0.0151	-20.2815	27.3816	20.0483	0.1931	-0.1963	0.7535	-0.5970
9.73	-0.5406	-9.4041	-2.0570	0.0200	-0.0069	0.0131	-20.3075	26.6211	20.0980	0.1931	-0.1962	0.7534	-0.5970
9.74	-0.5415	-9.4010	-2.0565	0.0200	0.0021	0.0103	-20.5263	26.6678	19.9480	0.1931	-0.1963	0.7535	-0.5970
9.75	-0.5412	-9.3965	-2.0492	0.0195	-0.0032	0.0133	-20.4265	26.6098	19.8933	0.1931	-0.1962	0.7535	-0.5970
9.76	-0.5362	-9.4021	-2.0484	0.0221	0.0008	0.0135	-20.5857	26.7456	19.8840	0.1931	-0.1962	0.7535	-0.5970
9.77	-0.5378	-9.4036	-2.0418	0.0191	0.0030	0.0107	-20.3610	26.9680	19.9988	0.1931	-0.1962	0.7535	-0.5970
9.78	-0.5344	-9.4042	-2.0408	0.0216	0.0015	0.0127	-20.5765	26.9903	20.0830	0.1931	-0.1962	0.7535	-0.5970
9.79	-0.5317	-9.3980	-2.0400	0.0201	0.0008	0.0118	-20.8133	27.0913	20.0613	0.1931	-0.1962	0.7535	-0.5970
9.8	-0.5343	-9.4057	-2.0405	0.0186	0.0073	0.0095	-20.5169	26.9377	19.9880	0.1930	-0.1962	0.7535	-0.5970
9.81	-0.5325	-9.4012	-2.0347	0.0214	-0.0017	0.0118	-20.6071	26.8397	19.9702	0.1930	-0.1962	0.7536	-0.5971
9.82	-0.5332	-9.4014	-2.0439	0.0215	0.0024	0.0093	-20.6101	26.9386	20.0018	0.1930	-0.1962	0.7535	-0.5970
9.83	-0.5341	-9.4062	-2.0517	0.0215	-0.0009	0.0115	-20.5451	26.9777	20.1749	0.1930	-0.1962	0.7536	-0.5971
9.84	-0.5318	-9.4028	-2.0466	0.0215	-0.0005	0.0134	-20.5698	27.0243	20.0565	0.1930	-0.1961	0.7535	-0.5970
9.85	-0.5353	-9.3993	-2.0403	0.0212	0.0025	0.0126	-20.5724	26.8885	20.0676	0.1930	-0.1961	0.7536	-0.5971
9.86	-0.5361	-9.4091	-2.0482	0.0224	-0.0049	0.0128	-20.6854	26.7717	19.8832	0.1930	-0.1961	0.7536	-0.5971
9.87	-0.5404	-9.4015	-2.0479	0.0205	0.0080	0.0180	-20.5414	26.7701	19.9928	0.1929	-0.1961	0.7535	-0.5970
9.88	-0.5421	-9.4007	-2.0422	0.0190	-0.0046	0.0106	-20.4902	26.6491	19.8912	0.1930	-0.1961	0.7536	-0.5971
9.89	-0.5486	-9.4000	-2.0480	0.0202	-0.0031	0.0125	-20.2881	26.6133	19.9196	0.1930	-0.1961	0.7536	-0.5970
9.9	-0.5538	-9.4021	-2.0458	0.0177	-0.0041	0.0123	-20.2440	26.7635	19.6498	0.1930	-0.1961	0.7536	-0.5971
9.91	-0.5551	-9.4034	-2.0448	0.0190	-0.0044	0.0125	-20.4968	26.7757	20.1269	0.1930	-0.1961	0.7535	-0.5970
9.92	-0.5603	-9.4022	-2.0427	0.0197	0.0008	0.0126	-20.5939	26.7200	20.0050	0.1930	-0.1961	0.7536	-0.5970
9.93	-0.5606	-9.4046	-2.0390	0.0199	-0.0035	0.0125	-20.4676	26.6873	19.9283	0.1930	-0.1961	0.7536	-0.5970
9.94	-0.5569	-9.4035	-2.0449	0.0189	-0.0033	0.0125	-20.3441	26.5966	20.2515	0.1930	-0.1961	0.7536	-0.5970
9.95	-0.5600	-9.3963	-2.0476	0.0230	-0.0005	0.0077	-20.6112	26.6194	19.9166	0.1930	-0.1961	0.7536	-0.5970
9.96	-0.5497	-9.4027	-2.0456	0.0223	0.0009	0.0114	-20.6161	26.7721	20.0598	0.1929	-0.1961	0.7536	-0.5970
9.97	-0.5415	-9.4053	-2.0515	0.0189	0.0075	0.0151	-20.5128	26.8458	19.8288	0.1929	-0.1960	0.7536	-0.5970
9.98	-0.5348	-9.3999	-2.0478	0.0196	0.0030	0.0181	-20.6602	27.0626	19.8615	0.1929	-0.1960	0.7536	-0.5970
9.99	-0.5307	-9.4065	-2.0481	0.0208	0.0010	0.0132	-20.6142	26.7593	20.1345	0.1929	-0.1960	0.7537	-0.5970
10	-0.5255	-9.4049	-2.0453	0.0206	0.0001	0.0127	-20.6787	26.9313	19.6918	0.1929	-0.1959	0.7536	-0.5970
10.01	-0.5241	-9.4075	-2.0447	0.0191	-0.0003	0.0116	-20.4810	26.8491	19.8523	0.1929	-0.1959	0.7537	-0.5970
10.02	-0.5239	-9.4023	-2.0438	0.0199	-0.0026	0.0080	-20.4873	26.8439	20.0991	0.1929	-0.1959	0.7536	-0.5970
10.03	-0.5186	-9.4030	-2.0422	0.0217	-0.0014	0.0095	-20.6774	26.9433	20.0556	0.1929	-0.1960	0.7536	-0.5970
10.04	-0.5198	-9.4051	-2.0460	0.0196	0.0003	0.0120	-20.4723	26.9283	20.2656	0.1929	-0.1959	0.7537	-0.5970
10.05	-0.5211	-9.4044	-2.0430	0.0199	-0.0174	0.0147	-20.4984	26.8588	20.1606	0.1929	-0.1960	0.7536	-0.5970
10.06	-0.5217	-9.4055	-2.0478	0.0198	-0.0003	0.0099	-20.4735	26.7296	20.0573	0.1929	-0.1960	0.7537	-0.5970
10.07	-0.5264	-9.4075	-2.0517	0.0225	0.0052	0.0132	-20.3456	26.8119	20.0808	0.1929	-0.1959	0.7536	-0.5970
10.08	-0.5308	-9.4057	-2.0529	0.0215	-0.0074	0.0123	-20.2999	26.8847	20.0699	0.1929	-0.1960	0.7537	-0.5971
10.09	-0.5428	-9.3984	-2.0491	0.0197	-0.0049	0.0150	-20.4101	26.6587	20.0896	0.1929	-0.1959	0.7536	-0.5970
10.1	-0.5526	-9.4027	-2.0480	0.0195	0.0035	0.0109	-20.5052	26.6915	19.9532	0.1929	-0.1959	0.7537	-0.5970
10.11	-0.5552	-9.4025	-2.0492	0.0200	-0.0023	0.0143	-20.6198	26.6580	20.0564	0.1929	-0.1959	0.7537	-0.5970
10.12	-0.5585	-9.4029	-2.0449	0.0193	0.0038	0.0136	-20.6728	26.7557	20.0773	0.1929	-0.1959	0.7536	-0.5970
10.13	-0.5585	-9.4033	-2.0413	0.0210	-0.0022	0.0122	-20.5235	26.6804	20.0798	0.1929	-0.1959	0.7537	-0.5970
10.14	-0.5579	-9.4019	-2.0417	0.0208	-0.0078	0.0132	-20.4880	26.6646	19.7833	0.1929	-0.1959	0.7537	-0.5970
10.15	-0.5490	-9.4006	-2.0361	0.0193	-0.0027	0.0114	-20.6361	26.7216	19.9383	0.1929	-0.1959	0.7537	-0.5970
10.16	-0.5474	-9.3981	-2.0374	0.0201	0.0026	0.0136	-20.6648	26.9201	20.0953	0.1929	-0.1959	0.7536	-0.5969
10.17	-0.5411	-9.4006	-2.0404	0.0196	-0.0005	0.0119	-20.4899	27.0537	19.9366	0.1929	-0.1959	0.7537	-0.5970
10.18	-0.5449	-9.3984	-2.0466	0.0197	-0.0021	0.0149	-20.2072	26.9383	20.2059	0.1929	-0.1959	0.7537	-0.5970
10.19	-0.5424	-9.4013	-2.0489	0.0194	0.0016	0.0131	-20.0534	26.9465	20.3115	0.1929	-0.1958	0.7537	-0.5970
10.2	-0.5447	-9.4030	-2.0493	0.0188	0.0046	0.0117	-20.2651	27.0087	20.3281	0.1929	-0.1958	0.7537	-0.5970
10.21	-0.5439	-9.4029	-2.0462	0.0196	-0.0018	0.0094	-20.5093	27.3129	20.2521	0.1928	-0.1958	0.7537	-0.5970
10.22	-0.5375	-9.3987	-2.0465	0.0203	-0.0014	0.0092	-20.7027	27.4995	20.1906	0.1928	-0.1959	0.7537	-0.5970
10.23	-0.5436	-9.4025	-2.0477	0.0193	0.0037	0.0130	-20.5792	26.7453	19.9283	0.1928	-0.1958	0.7537	-0.5969
10.24	-0.5406	-9.4062	-2.0434	0.0200	0.0035	0.0119	-20.5734	26.7832	20.2631	0.1928	-0.1958	0.7538	-0.5970
10.25	-0.5330	-9.4056	-2.0466	0.0192	-0.0004	0.0108	-20.4091	26.7461	20.1427	0.1928	-0.1958	0.7537	-0.5970
10.26	-0.5341	-9.4044	-2.0481	0.0232	0.0052	0.0132	-20.0249	26.5671	20.1259	0.1928	-0.1958	0.7538	-0.5970
10.27	-0.5359	-9.4005	-2.0434	0.0202	-0.0048	0.0145	-20.3228	26.7373	20.2087	0.1928	-0.1958	0.7537	-0.5970
10.28	-0.5394	-9.4003	-2.0455	0.0168	0.0031	0.0088	-20.3845	26.9170	20.0009	0.1927	-0.1958	0.7538	-0.5970
10.29	-0.5385	-9.4000	-2.0476	0.0186	-0.0043	0.0112	-20.3697	26.7281	20.1769	0.1928	-0.1958	0.7538	-0.5970
10.3	-0.5430	-9.4038	-2.0506	0.0197	0.0001	0.0087	-20.4383	26.6281	20.1392	0.1927	-0.1958	0.7537	-0.5969
10.31	-0.5465	-9.4050	-2.0496	0.0194	-0.0033	0.0076	-20.3243	26.8569	20.2166	0.1927	-0.1958	0.7538	-0.5970
10.32	-0.5454	-9.4037	-2.0531	0.0200	0.0007	0.0108	-20.4446	26.8698	20.0406	0.1927	-0.1958	0.7538	-0.5970
10.33	-0.5437	-9.4059	-2.0508	0.0185	-0.0008	0.0102	-20.3913	26.7353	20.0286	0.1927	-0.1958	0.7538	-0.5970
10.34	-0.5332	-9.3959	-2.0488	0.0210	-0.0000	0.0117	-20.4997	26.6125	20.1862	0.1927	-0.1958	0.7537	-0.5969
10.35	-0.5298	-9.4027	-2.0578	0.0192	0.0015	0.0060	-20.5064	26.7836	19.9506	0.1927	-0.1958	0.7538	-0.5970
10.36	-0.5250	-9.4046	-2.0416	0.0204	0.0050	0.0148	-20.6238	26.7685	20.3245	0.1926	-0.1958	0.7538	-0.5970
10.37	-0.5257	-9.3994	-2.0438	0.0188	0.0032	0.0106	-20.4874	26.6750	20.0638	0.1926	-0.1957	0.7538	-0.5969
10.38	-0.5268	-9.4036	-2.0527	0.0222	-0.0034	0.0101	-20.4985	26.9425	20.0727	0.1926	-0.1958	0.7539	-0.5970
10.39	-0.5302	-9.3990	-2.0514	0.0196	0.0066	0.0069	-20.4970	26.9628	20.2087	0.1926	-0.1957	0.7538	-0.5970
10.4	-0.5324	-9.4021	-2.0502	0.0166	-0.0040	0.0113	-20.4980	26.7825	20.0706	0.1926	-0.1958	0.7539	-0.5970
10.41	-0.5365	-9.4027	-2.0510	0.0207	-0.0036	0.0114	-20.4870	26.8972	20.0752	0.1925	-0.1957	0.7538	-0.5969
10.42	-0.5421	-9.4043	-2.0457	0.0188	0.0054	0.0101	-20.6151	27.0805	20.1520	0.1925	-0.1957	0.7538	-0.5970
10.43	-0.5373	-9.4002	-2.0479	0.0217	-0.0009	0.0115	-20.5147	26.8803	20.0357	0.1925	-0.1957	0.7538	-0.5970
10.44	-0.5401	-9.4064	-2.0466	0.0208	0.0016	0.0095	-20.4882	26.9066	20.1081	0.1925	-0.1957	0.7538	-0.5970
10.45	-0.5388	-9.4015	-2.0387	0.0211	-0.0031	0.0131	-20.4856	26.7873	19.8638	0.1925	-0.1957	0.7538	-0.5970
10.46	-0.5435	-9.3996	-2.0381	0.0208	-0.0026	0.0075	-20.5004	26.6877	19.9188	0.1925	-0.1957	0.7538	-0.5970
10.47	-0.5475	-9.4026	-2.0398	0.0224	0.0007	0.0106	-20.4652	26.5787	19.8812	0.1925	-0.1957	0.7538	-0.5970
10.48	-0.5466	-9.4018	-2.0365	0.0226	0.0033	0.0126	-20.5908	26.8984	19.9802	0.1925	-0.1957	0.7538	-0.5970
10.49	-0.5575	-9.4042	-2.0356	0.0191	0.0024	0.0133	-20.5428	26.9716	20.0842	0.1925	-0.1957	0.7539	-0.5970
10.5	-0.5594	-9.4036	-2.0354	0.0223	0.0004	0.0121	-20.3545	26.8521	19.9095	0.1924	-0.1957	0.7538	-0.5970
10.51	-0.5612	-9.3976	-2.0333	0.0225	0.0027	0.0083	-20.4927	26.9250	19.8888	0.1924	-0.1957	0.7538	-0.5970
10.52	-0.5600	-9.3992	-2.0388	0.0182	-0.0008	0.0114	-20.4982	26.7595	19.9859	0.1924	-0.1957	0.7538	-0.5970
10.53	-0.5539	-9.4022	-2.0529	0.0200	-0.0036	0.0095	-20.4751	26.8651	20.0171	0.1924	-0.1957	0.7538	-0.5970
10.54	-0.5510	-9.3985	-2.0507	0.0173	0.0036	0.0081	-20.5530	26.8443	20.0900	0.1924	-0.1957	0.7539	-0.5970
10.55	-0.5405	-9.4005	-2.0559	0.0179	0.0034	0.0085	-20.5818	26.7849	20.0479	0.1923	-0.1957	0.7538	-0.5970
10.56	-0.5374	-9.4072	-2.0582	0.0177	0.0057	0.0075	-20.4875	26.8053	20.2977	0.1923	-0.1957	0.7539	-0.5971
10.57	-0.5283	-9.4026	-2.0592	0.0197	0.0074	0.0068	-20.4845	26.9583	20.0378	0.1922	-0.1957	0.7539	-0.5970
10.58	-0.5264	-9.3997	-2.0574	0.0196	0.0039	0.0146	-20.5493	26.7132	19.9436	0.1922	-0.1956	0.7539	-0.5971
10.59	-0.5278	-9.4033	-2.0530	0.0195	0.0036	0.0012	-20.5927	26.8166	20.1062	0.1922	-0.1956	0.7538	-0.5970
10.6	-0.5227	-9.4068	-2.0534	0.0188	0.0099	0.0049	-20.4435	26.8669	20.0244	0.1921	-0.1956	0.7539	-0.5971
10.61	-0.5229	-9.3993	-2.0528	0.0240	0.0047	0.0081	-20.5754	26.6471	20.1972	0.1921	-0.1956	0.7539	-0.5971
10.62	-0.5275	-9.4041	-2.0502	0.0277	0.0094	0.0078	-20.5255	26.8189	20.2843	0.1920	-0.1956	0.7538	-0.5971
10.63	-0.5259	-9.4065	-2.0511	0.0228	0.0003	0.0084	-20.2937	26.8902	20.0368	0.1920	-0.1956	0.7539	-0.5972
10.64	-0.5272	-9.4009	-2.0510	0.0190	-0.0057	0.0034	-20.4990	26.8860	19.9385	0.1920	-0.1956	0.7538	-0.5971
10.65	-0.5324	-9.4046	-2.0506	0.0198	0.0019	0.0078	-20.4328	26.6942	19.8839	0.1920	-0.1957	0.7539	-0.5972
10.66	-0.5391	-9.4044	-2.0567	0.0195	-0.0001	0.0095	-20.3153	26.8258	19.9183	0.1919	-0.1956	0.7538	-0.5971
10.67	-0.5446	-9.4007	-2.0466	0.0197	0.0020	0.0103	-20.4182	26.8686	19.7725	0.1919	-0.1956	0.7539	-0.5971
10.68	-0.5459	-9.3949	-2.0391	0.0198	-0.0026	0.0095	-20.2443	26.6545	20.0382	0.1919	-0.1956	0.7539	-0.5971
10.69	-0.5510	-9.4038	-2.0424	0.0175	-0.0131	0.0101	-20.0277	26.8334	20.1399	0.1919	-0.1957	0.7538	-0.5971
10.7	-0.5552	-9.4032	-2.0417	0.0218	-0.0105	0.0144	-20.3497	26.9503	20.1432	0.1920	-0.1957	0.7539	-0.5971
10.71	-0.5532	-9.3981	-2.0398	0.0212	-0.0090	0.0137	-20.4929	27.2363	20.0193	0.1920	-0.1957	0.7538	-0.5971
10.72	-0.5478	-9.4001	-2.0400	0.0194	-0.0035	0.0129	-20.5366	27.6001	19.7803	0.1920	-0.1957	0.7539	-0.5971
10.73	-0.5499	-9.4013	-2.0419	0.0187	-0.0034	0.0119	-20.6679	26.8399	19.8254	0.1920	-0.1957	0.7538	-0.5970
10.74	-0.5447	-9.4002	-2.0482	0.0211	-0.0041	0.0121	-20.6196	26.9768	19.8147	0.1920	-0.1957	0.7539	-0.5971
10.75	-0.5455	-9.3997	-2.0464	0.0213	0.0033	0.0134	-20.5215	26.8172	19.9823	0.1920	-0.1957	0.7539	-0.5971
10.76	-0.5429	-9.3989	-2.0411	0.0210	-0.0006	0.0123	-20.6532	26.9835	20.0106	0.1920	-0.1957	0.7539	-0.5971
10.77	-0.5381	-9.4052	-2.0459	0.0199	-0.0013	0.0107	-20.5381	27.0001	19.8883	0.1920	-0.1957	0.7538	-0.5971
10.78	-0.5371	-9.3994	-2.0508	0.0240	-0.0010	0.0124	-20.5923	26.8112	19.9259	0.1920	-0.1957	0.7539	-0.5971
10.79	-0.5365	-9.3975	-2.0401	0.0223	-0.0043	0.0118	-20.4777	26.9789	20.0549	0.1920	-0.1957	0.7539	-0.5971
10.8	-0.5345	-9.4017	-2.0362	0.0207	-0.0086	0.0091	-20.5708	26.8208	19.8581	0.1920	-0.1957	0.7538	-0.5971
10.81	-0.5354	-9.4050	-2.0347	0.0212	0.0008	0.0091	-20.4435	26.7533	20.1918	0.1920	-0.1957	0.7539	-0.5972
10.82	-0.5369	-9.3984	-2.0359	0.0234	0.0022	0.0126	-20.4401	26.7569	20.0683	0.1920	-0.1957	0.7538	-0.5971
10.83	-0.5350	-9.4049	-2.0412	0.0178	0.0058	0.0123	-20.4429	26.7497	20.0368	0.1920	-0.1957	0.7539	-0.5972
10.84	-0.5361	-9.4037	-2.0441	0.0182	-0.0022	0.0126	-20.3836	26.7646	20.2037	0.1920	-0.1956	0.7538	-0.5971
10.85	-0.5392	-9.4026	-2.0501	0.0210	0.0013	0.0079	-20.5144	26.8454	19.9452	0.1920	-0.1957	0.7539	-0.5971
10.86	-0.5439	-9.4055	-2.0530	0.0192	0.0015	0.0115	-20.2888	26.6943	20.0069	0.1919	-0.1956	0.7539	-0.5971
10.87	-0.5437	-9.4035	-2.0507	0.0200	-0.0041	0.0130	-20.3957	26.9272	19.7648	0.1919	-0.1956	0.7538	-0.5971
10.88	-0.5469	-9.3988	-2.0577	0.0191	-0.0033	0.0155	-20.4866	26.9294	20.0638	0.1920	-0.1956	0.7539	-0.5972
10.89	-0.5451	-9.3999	-2.0624	0.0203	0.0012	0.0165	-20.4929	26.7805	20.0585	0.1920	-0.1956	0.7539	-0.5971
10.9	-0.5467	-9.4077	-2.0601	0.0233	-0.0010	0.0115	-20.4564	26.7409	19.9694	0.1920	-0.1956	0.7539	-0.5972
10.91	-0.5416	-9.4027	-2.0564	0.0222	-0.0023	0.0143	-20.5885	26.8290	20.1147	0.1920	-0.1956	0.7538	-0.5971
10.92	-0.5316	-9.3960	-2.0553	0.0234	-0.0014	0.0111	-20.6206	27.0695	19.9392	0.1920	-0.1956	0.7539	-0.5971
10.93	-0.5320	-9.3977	-2.0558	0.0200	-0.0001	0.0035	-20.4275	27.0525	20.2428	0.1920	-0.1956	0.7539	-0.5971
10.94	-0.5350	-9.4023	-2.0535	0.0194	-0.0027	0.0106	-20.5693	26.6847	19.9206	0.1919	-0.1956	0.7539	-0.5971
10.95	-0.5322	-9.3998	-2.0501	0.0214	-0.0055	0.0145	-20.5594	27.0874	19.9095	0.1920	-0.1956	0.7539	-0.5972
10.96	-0.5325	-9.3974	-2.0519	0.0195	0.0006	0.0082	-20.6847	27.0112	20.1279	0.1919	-0.1956	0.7539	-0.5971
10.97	-0.5366	-9.4054	-2.0590	0.0192	-0.0065	0.0086	-20.5922	26.8880	20.0666	0.1920	-0.1956	0.7539	-0.5972
10.98	-0.5411	-9.4015	-2.0494	0.0201	-0.0059	0.0166	-20.4624	26.9274	20.0895	0.1920	-0.1956	0.7538	-0.5971
10.99	-0.5471	-9.4005	-2.0493	0.0225	-0.0022	0.0098	-20.6055	26.9316	20.0940	0.1920	-0.1956	0.7539	-0.5972
11	-0.5434	-9.4008	-2.0507	0.0234	-0.0067	0.0092	-20.5003	26.8544	20.0553	0.1920	-0.1956	0.7538	-0.5971
11.01	-0.5418	-9.4009	-2.0434	0.0234	-0.0098	0.0115	-20.4907	26.6490	20.1997	0.1920	-0.1957	0.7538	-0.5972
11.02	-0.5411	-9.3978	-2.0363	0.0203	-0.0026	0.0068	-20.3844	26.6896	20.0668	0.1920	-0.1957	0.7538	-0.5971
11.03	-0.5423	-9.3998	-2.0389	0.0203	0.0011	0.0052	-20.4230	26.6756	19.8963	0.1920	-0.1957	0.7538	-0.5972
11.04	-0.5410	-9.4017	-2.0375	0.0260	-0.0028	0.0113	-20.5012	26.6710	20.0654	0.1920	-0.1957	0.7538	-0.5972
11.05	-0.5456	-9.3943	-2.0252	0.0243	-0.0009	0.0090	-20.4671	26.7385	19.8968	0.1920	-0.1957	0.7537	-0.5971
11.06	-0.5502	-9.4016	-2.0291	0.0223	-0.0090	0.0072	-20.4807	26.8813	19.9209	0.1920	-0.1957	0.7538	-0.5972
11.07	-0.5514	-9.4045	-2.0353	0.0205	0.0020	0.0120	-20.4801	26.7793	19.9150	0.1920	-0.1957	0.7538	-0.5972
11.08	-0.5578	-9.3997	-2.0355	0.0215	-0.0045	0.0121	-20.4591	26.7837	19.9033	0.1920	-0.1957	0.7538	-0.5973
11.09	-0.5584	-9.3973	-2.0345	0.0215	-0.0007	0.0128	-20.5779	27.0357	20.0059	0.1920	-0.1957	0.7537	-0.5972
11.1	-0.5542	-9.4017	-2.0435	0.0194	-0.0002	0.0099	-20.5394	27.0813	19.9723	0.1920	-0.1957	0.7538	-0.5972
11.11	-0.5510	-9.4025	-2.0483	0.0244	-0.0025	0.0151	-20.6277	26.9280	20.0463	0.1920	-0.1957	0.7538	-0.5972
11.12	-0.5439	-9.3969	-2.0508	0.0194	-0.0037	0.0127	-20.5882	26.9126	20.1213	0.1920	-0.1957	0.7537	-0.5972
11.13	-0.5381	-9.4010	-2.0545	0.0178	0.0004	0.0113	-20.4542	26.9311	19.8563	0.1920	-0.1957	0.7538	-0.5973
11.14	-0.5331	-9.4011	-2.0548	0.0184	-0.0063	0.0127	-20.4854	27.0418	19.8386	0.1920	-0.1957	0.7538	-0.5972
11.15	-0.5276	-9.4035	-2.0520	0.0199	-0.0037	0.0084	-20.4996	26.9328	20.2121	0.1920	-0.1957	0.7538	-0.5972
11.16	-0.5210	-9.4034	-2.0580	0.0182	0.0031	0.0130	-20.7731	26.9019	20.0377	0.1920	-0.1957	0.7537	-0.5971
11.17	-0.5196	-9.4078	-2.0579	0.0224	-0.0052	0.0124	-20.6729	26.9229	20.1374	0.1920	-0.1957	0.7538	-0.5972
11.18	-0.5226	-9.4048	-2.0602	0.0206	-0.0052	0.0100	-20.2115	26.7636	20.2917	0.1920	-0.1957	0.7538	-0.5972
11.19	-0.5227	-9.4032	-2.0590	0.0224	0.0032	0.0132	-20.0732	26.7624	20.3229	0.1920	-0.1957	0.7538	-0.5972
11.2	-0.5206	-9.3996	-2.0553	0.0233	0.0011	0.0084	-20.1229	26.8620	20.2228	0.1920	-0.1957	0.7538	-0.5972
11.21	-0.5243	-9.4063	-2.0621	0.0170	0.0003	0.0121	-20.2921	27.1838	20.1525	0.1920	-0.1957	0.7538	-0.5972
11.22	-0.5261	-9.4052	-2.0641	0.0187	-0.0034	0.0062	-20.5369	27.3953	19.8736	0.1919	-0.1957	0.7538	-0.5972
11.23	-0.5298	-9.3980	-2.0575	0.0198	-0.0023	0.0084	-20.4619	26.6611	19.9589	0.1919	-0.1957	0.7537	-0.5972
11.24	-0.5428	-9.4047	-2.0532	0.0211	0.0013	0.0079	-20.7272	26.8543	20.1992	0.1919	-0.1957	0.7538	-0.5972
11.25	-0.5492	-9.4066	-2.0534	0.0203	0.0006	0.0070	-20.6662	26.7393	20.1322	0.1919	-0.1957	0.7538	-0.5972
11.26	-0.5532	-9.4041	-2.0510	0.0196	-0.0057	0.0073	-20.4791	26.7806	20.1812	0.1919	-0.1958	0.7538	-0.5972
11.27	-0.5647	-9.4030	-2.0438	0.0190	-0.0040	0.0121	-20.4148	26.8416	20.0610	0.1919	-0.1958	0.7538	-0.5972
11.28	-0.5601	-9.4043	-2.0420	0.0189	0.0060	0.0078	-20.2932	26.8859	19.9302	0.1918	-0.1957	0.7538	-0.5972
11.29	-0.5585	-9.3977	-2.0388	0.0218	0.0044	0.0102	-20.5260	26.7662	19.9102	0.1918	-0.1957	0.7538	-0.5972
11.3	-0.5560	-9.3993	-2.0320	0.0196	-0.0010	0.0095	-20.3762	26.9143	20.1230	0.1918	-0.1957	0.7537	-0.5972
11.31	-0.5521	-9.4053	-2.0400	0.0194	-0.0074	0.0078	-20.5481	26.7755	19.7980	0.1918	-0.1958	0.7538	-0.5973
11.32	-0.5475	-9.4000	-2.0384	0.0193	0.0016	0.0061	-20.4900	26.8568	20.0407	0.1918	-0.1958	0.7538	-0.5972
