time	acceleration_x	acceleration_y	acceleration_z	gyroscope_x	gyroscope_y	gyroscope_z	magnetometer_x	magnetometer_y	magnetometer_z	quaternion_w	quaternion_x	quaternion_y	quaternion_z
0	-0.4955	-9.1443	-2.3463	0.0256	-0.0092	0.0142	-13.7060	35.1925	20.4338	0.2006	-0.2197	0.7599	-0.5778
0.01	-0.4947	-9.1478	-2.3396	0.0266	-0.0068	0.0150	-13.5795	35.0633	20.1932	0.2007	-0.2197	0.7600	-0.5779
0.02	-0.4961	-9.1544	-2.3513	0.0239	-0.0015	0.0127	-13.4964	34.9908	20.3044	0.2006	-0.2197	0.7600	-0.5779
0.03	-0.4962	-9.1489	-2.3479	0.0220	-0.0048	0.0082	-13.3530	35.0362	20.3359	0.2006	-0.2197	0.7600	-0.5779
0.04	-0.4957	-9.1387	-2.3446	0.0252	-0.0024	0.0100	-13.4506	34.9120	20.3401	0.2006	-0.2197	0.7599	-0.5778
0.05	-0.4959	-9.1507	-2.3491	0.0270	-0.0029	0.0104	-13.5431	35.0548	20.4211	0.2006	-0.2197	0.7600	-0.5779
0.06	-0.4933	-9.1471	-2.3459	0.0248	-0.0083	0.0106	-13.5442	35.1003	20.2868	0.2006	-0.2197	0.7599	-0.5779
0.07	-0.4951	-9.1428	-2.3439	0.0229	-0.0019	0.0085	-13.6748	35.0969	20.4109	0.2006	-0.2197	0.7599	-0.5779
0.08	-0.4980	-9.1450	-2.3437	0.0273	-0.0014	0.0070	-13.3679	34.9904	20.4404	0.2006	-0.2197	0.7599	-0.5780
0.09	-0.4937	-9.1414	-2.3522	0.0253	-0.0039	0.0128	-13.5607	35.0443	20.2486	0.2006	-0.2196	0.7599	-0.5780
0.1	-0.4874	-9.1429	-2.3545	0.0251	-0.0072	0.0084	-13.5571	35.3283	20.3038	0.2006	-0.2197	0.7599	-0.5780
0.11	-0.4776	-9.1422	-2.3547	0.0235	-0.0056	0.0124	-13.5293	35.3558	20.3128	0.2006	-0.2196	0.7598	-0.5780
0.12	-0.4626	-9.1448	-2.3545	0.0207	-0.0057	0.0087	-13.6842	35.3072	20.4587	0.2006	-0.2197	0.7599	-0.5780
0.13	-0.4644	-9.1435	-2.3532	0.0205	-0.0011	0.0133	-13.6381	35.0839	20.4746	0.2006	-0.2196	0.7599	-0.5780
0.14	-0.4623	-9.1482	-2.3550	0.0276	-0.0030	0.0174	-13.6654	35.1433	20.3750	0.2006	-0.2196	0.7599	-0.5780
0.15	-0.4616	-9.1493	-2.3609	0.0257	-0.0045	0.0123	-13.3524	35.2205	20.5247	0.2006	-0.2196	0.7599	-0.5780
0.16	-0.4694	-9.1510	-2.3725	0.0245	-0.0044	0.0143	-13.3302	35.3403	20.5090	0.2006	-0.2196	0.7599	-0.5780
0.17	-0.4701	-9.1419	-2.3633	0.0201	-0.0024	0.0063	-13.2802	35.4374	20.4457	0.2006	-0.2196	0.7599	-0.5781
0.18	-0.4722	-9.1429	-2.3718	0.0237	-0.0059	0.0122	-13.5897	35.6707	20.2169	0.2006	-0.2196	0.7598	-0.5780
0.19	-0.4708	-9.1493	-2.3783	0.0231	-0.0079	0.0119	-13.5562	36.2984	20.3023	0.2007	-0.2196	0.7599	-0.5781
0.2	-0.4708	-9.1457	-2.3704	0.0237	-0.0054	0.0073	-13.4730	35.4105	20.2578	0.2006	-0.2196	0.7598	-0.5781
0.21	-0.4652	-9.1482	-2.3768	0.0208	-0.0038	0.0139	-13.5055	35.0057	20.4864	0.2007	-0.2196	0.7599	-0.5781
0.22	-0.4626	-9.1541	-2.3787	0.0214	-0.0034	0.0112	-13.5506	35.1614	20.5036	0.2006	-0.2195	0.7598	-0.5780
0.23	-0.4619	-9.1510	-2.3718	0.0201	-0.0075	0.0111	-13.5152	35.2279	20.1546	0.2007	-0.2196	0.7599	-0.5781
0.24	-0.4610	-9.1441	-2.3658	0.0242	-0.0080	0.0056	-13.5308	35.2592	20.2962	0.2007	-0.2196	0.7598	-0.5781
0.25	-0.4683	-9.1475	-2.3624	0.0231	-0.0061	0.0124	-13.5368	35.1722	20.1106	0.2007	-0.2196	0.7598	-0.5781
0.26	-0.4714	-9.1478	-2.3565	0.0198	-0.0070	0.0084	-13.4211	35.2058	20.2785	0.2007	-0.2196	0.7599	-0.5781
0.27	-0.4757	-9.1443	-2.3508	0.0250	-0.0095	0.0147	-13.6231	35.3563	20.4380	0.2007	-0.2196	0.7598	-0.5781
0.28	-0.4893	-9.1418	-2.3438	0.0205	-0.0131	0.0166	-13.5326	35.2948	20.1695	0.2008	-0.2196	0.7599	-0.5781
0.29	-0.4942	-9.1538	-2.3506	0.0208	-0.0083	0.0071	-13.6124	35.2931	20.4429	0.2007	-0.2196	0.7598	-0.5780
0.3	-0.4796	-9.1361	-2.3392	0.0211	-0.0059	0.0073	-13.7015	35.2255	20.4555	0.2007	-0.2196	0.7598	-0.5781
0.31	-0.4774	-9.1438	-2.3413	0.0228	-0.0040	0.0091	-13.5783	35.1260	20.4321	0.2007	-0.2196	0.7598	-0.5781
0.32	-0.4813	-9.1551	-2.3479	0.0196	-0.0024	0.0084	-13.6454	35.5072	20.5228	0.2007	-0.2196	0.7598	-0.5781
0.33	-0.4779	-9.1504	-2.3383	0.0233	-0.0084	0.0142	-13.5869	35.2400	20.3771	0.2007	-0.2196	0.7598	-0.5781
0.34	-0.4722	-9.1435	-2.3460	0.0226	-0.0043	0.0054	-13.7813	35.1838	20.4190	0.2007	-0.2196	0.7598	-0.5781
0.35	-0.4730	-9.1512	-2.3629	0.0217	-0.0042	0.0048	-13.7119	35.2211	20.3986	0.2007	-0.2197	0.7598	-0.5781
0.36	-0.4694	-9.1420	-2.3631	0.0214	-0.0038	0.0117	-13.7017	35.0978	20.4049	0.2007	-0.2196	0.7597	-0.5781
0.37	-0.4750	-9.1426	-2.3620	0.0247	-0.0056	0.0144	-13.5652	35.1321	20.5183	0.2007	-0.2196	0.7598	-0.5781
0.38	-0.4840	-9.1459	-2.3712	0.0239	-0.0092	0.0085	-13.5573	35.2213	20.3114	0.2007	-0.2196	0.7598	-0.5781
0.39	-0.4941	-9.1480	-2.3722	0.0225	-0.0052	0.0081	-13.3813	35.1925	20.4130	0.2007	-0.2196	0.7598	-0.5781
0.4	-0.5024	-9.1423	-2.3607	0.0252	-0.0011	0.0099	-13.4504	35.2106	20.3230	0.2007	-0.2196	0.7597	-0.5781
0.41	-0.5033	-9.1513	-2.3669	0.0210	-0.0058	0.0100	-13.6602	35.1813	20.3228	0.2007	-0.2196	0.7597	-0.5781
0.42	-0.4989	-9.1534	-2.3644	0.0196	-0.0060	0.0119	-13.5772	35.0597	20.3155	0.2007	-0.2196	0.7598	-0.5782
0.43	-0.4953	-9.1397	-2.3574	0.0241	-0.0065	0.0077	-13.6430	35.3038	20.4023	0.2007	-0.2196	0.7597	-0.5781
0.44	-0.4943	-9.1467	-2.3558	0.0250	-0.0057	0.0117	-13.5729	35.1630	20.3036	0.2007	-0.2197	0.7598	-0.5782
0.45	-0.4833	-9.1470	-2.3564	0.0240	-0.0080	0.0071	-13.5387	35.1292	20.3389	0.2007	-0.2197	0.7597	-0.5782
0.46	-0.4803	-9.1498	-2.3533	0.0205	-0.0091	0.0125	-13.7139	35.2769	20.2451	0.2008	-0.2197	0.7598	-0.5782
0.47	-0.4703	-9.1479	-2.3535	0.0230	-0.0103	0.0136	-13.5208	35.3856	20.2917	0.2008	-0.2196	0.7597	-0.5781
0.48	-0.4627	-9.1428	-2.3454	0.0169	-0.0043	0.0116	-13.6257	35.1182	20.4865	0.2008	-0.2197	0.7597	-0.5782
0.49	-0.4593	-9.1467	-2.3528	0.0156	-0.0044	0.0104	-13.7957	35.3323	20.6134	0.2008	-0.2197	0.7597	-0.5781
0.5	-0.4630	-9.1492	-2.3532	0.0233	-0.0057	0.0085	-13.6765	35.2993	20.4902	0.2008	-0.2197	0.7597	-0.5781
0.51	-0.4663	-9.1478	-2.3511	0.0209	-0.0008	0.0073	-13.7304	35.2751	20.4803	0.2008	-0.2197	0.7598	-0.5782
0.52	-0.4723	-9.1466	-2.3546	0.0278	-0.0071	0.0078	-13.7264	35.1323	20.3803	0.2007	-0.2197	0.7597	-0.5782
0.53	-0.4769	-9.1501	-2.3613	0.0206	-0.0047	0.0057	-13.5502	35.3672	20.4170	0.2007	-0.2197	0.7597	-0.5782
0.54	-0.4777	-9.1432	-2.3646	0.0175	-0.0038	0.0061	-13.7244	35.2054	20.3888	0.2007	-0.2197	0.7597	-0.5781
0.55	-0.4726	-9.1410	-2.3674	0.0233	-0.0087	0.0092	-13.6633	34.9708	20.3139	0.2007	-0.2197	0.7597	-0.5782
0.56	-0.4697	-9.1439	-2.3694	0.0202	-0.0057	0.0159	-13.7130	35.2490	20.3110	0.2007	-0.2197	0.7597	-0.5782
0.57	-0.4654	-9.1437	-2.3700	0.0277	-0.0075	0.0122	-13.6209	35.3017	20.3241	0.2007	-0.2197	0.7597	-0.5782
0.58	-0.4565	-9.1476	-2.3592	0.0238	-0.0072	0.0079	-13.5991	35.1790	20.3141	0.2008	-0.2197	0.7597	-0.5782
0.59	-0.4638	-9.1494	-2.3631	0.0167	-0.0061	0.0083	-13.4947	35.2111	20.0813	0.2008	-0.2197	0.7597	-0.5782
0.6	-0.4689	-9.1549	-2.3535	0.0170	-0.0076	0.0086	-13.5505	34.9859	20.2408	0.2008	-0.2198	0.7597	-0.5782
0.61	-0.4776	-9.1443	-2.3518	0.0238	-0.0062	0.0122	-13.4315	35.2360	20.2272	0.2007	-0.2197	0.7596	-0.5781
0.62	-0.4820	-9.1492	-2.3550	0.0153	-0.0062	0.0083	-13.4598	35.1505	20.2518	0.2008	-0.2198	0.7597	-0.5782
0.63	-0.4858	-9.1505	-2.3446	0.0152	-0.0071	0.0110	-13.5669	35.1672	20.3769	0.2008	-0.2198	0.7597	-0.5781
0.64	-0.4912	-9.1457	-2.3471	0.0099	-0.0091	0.0052	-13.7239	35.1695	20.4824	0.2007	-0.2198	0.7598	-0.5781
0.65	-0.4913	-9.1455	-2.3424	0.0159	-0.0070	0.0137	-13.4466	35.3433	20.5898	0.2007	-0.2198	0.7597	-0.5780
0.66	-0.4884	-9.1431	-2.3413	0.0242	-0.0070	0.0138	-12.9837	35.1554	20.4801	0.2008	-0.2198	0.7597	-0.5781
0.67	-0.4808	-9.1445	-2.3411	0.0214	-0.0053	0.0087	-13.1256	35.1282	20.5382	0.2008	-0.2198	0.7598	-0.5781
0.68	-0.4807	-9.1428	-2.3404	0.0225	-0.0038	0.0074	-13.5945	35.7496	20.5785	0.2007	-0.2198	0.7597	-0.5780
0.69	-0.4779	-9.1462	-2.3451	0.0218	-0.0073	0.0066	-13.6366	36.4177	20.1526	0.2008	-0.2198	0.7598	-0.5781
0.7	-0.4763	-9.1524	-2.3501	0.0232	-0.0041	0.0115	-13.6744	35.3979	20.1856	0.2007	-0.2198	0.7597	-0.5781
0.71	-0.4810	-9.1518	-2.3533	0.0240	-0.0056	0.0131	-13.6975	35.1695	20.4560	0.2008	-0.2198	0.7598	-0.5781
0.72	-0.4894	-9.1476	-2.3528	0.0258	-0.0027	0.0096	-13.5736	35.4884	20.3019	0.2007	-0.2198	0.7597	-0.5781
0.73	-0.4970	-9.1481	-2.3585	0.0220	-0.0029	0.0142	-13.7390	35.1520	20.2011	0.2008	-0.2198	0.7597	-0.5781
0.74	-0.4959	-9.1421	-2.3640	0.0236	-0.0060	0.0063	-13.5529	35.2963	20.3319	0.2007	-0.2198	0.7597	-0.5781
0.75	-0.4946	-9.1450	-2.3589	0.0185	-0.0053	0.0127	-13.5288	35.1569	20.5424	0.2007	-0.2198	0.7597	-0.5781
0.76	-0.4887	-9.1479	-2.3640	0.0253	-0.0131	0.0165	-13.3906	35.0518	20.3907	0.2008	-0.2198	0.7598	-0.5782
0.77	-0.4805	-9.1488	-2.3720	0.0247	-0.0130	0.0149	-13.4025	35.0144	20.4417	0.2008	-0.2198	0.7597	-0.5781
0.78	-0.4683	-9.1418	-2.3713	0.0173	-0.0052	0.0109	-13.6034	35.3255	20.1440	0.2009	-0.2198	0.7597	-0.5782
0.79	-0.4622	-9.1449	-2.3656	0.0148	-0.0040	0.0128	-13.6092	34.9485	20.2396	0.2008	-0.2198	0.7597	-0.5780
0.8	-0.4641	-9.1519	-2.3711	0.0217	-0.0073	0.0172	-13.5449	34.9232	20.4786	0.2009	-0.2198	0.7597	-0.5781
0.81	-0.4650	-9.1458	-2.3686	0.0190	-0.0069	0.0104	-13.4303	35.1883	20.3696	0.2009	-0.2198	0.7597	-0.5781
0.82	-0.4717	-9.1455	-2.3732	0.0246	-0.0116	0.0151	-13.6092	35.0875	20.2320	0.2009	-0.2198	0.7597	-0.5781
0.83	-0.4756	-9.1512	-2.3819	0.0192	-0.0090	0.0068	-13.6083	34.9793	20.3517	0.2009	-0.2198	0.7597	-0.5781
0.84	-0.4818	-9.1464	-2.3734	0.0225	-0.0091	0.0133	-13.5476	34.9971	20.4428	0.2009	-0.2198	0.7597	-0.5781
0.85	-0.4756	-9.1424	-2.3688	0.0216	-0.0088	0.0189	-13.3650	35.0156	20.4109	0.2010	-0.2198	0.7597	-0.5781
0.86	-0.4761	-9.1442	-2.3681	0.0257	-0.0051	0.0093	-13.6191	35.2735	20.4340	0.2010	-0.2198	0.7596	-0.5780
0.87	-0.4755	-9.1444	-2.3634	0.0224	-0.0056	0.0092	-13.6033	35.2076	20.2794	0.2010	-0.2198	0.7597	-0.5781
0.88	-0.4731	-9.1455	-2.3617	0.0236	-0.0088	0.0134	-13.5769	35.3384	20.3960	0.2010	-0.2198	0.7597	-0.5781
0.89	-0.4718	-9.1520	-2.3623	0.0212	-0.0039	0.0074	-13.6681	35.4440	20.3475	0.2010	-0.2198	0.7597	-0.5781
0.9	-0.4687	-9.1520	-2.3582	0.0227	-0.0050	0.0119	-13.7565	35.3073	20.2157	0.2010	-0.2198	0.7597	-0.5781
0.91	-0.4712	-9.1434	-2.3532	0.0258	-0.0044	0.0112	-13.5461	35.0825	20.2343	0.2010	-0.2198	0.7597	-0.5781
0.92	-0.4678	-9.1455	-2.3517	0.0247	-0.0060	0.0115	-13.7847	35.1482	20.0874	0.2010	-0.2198	0.7597	-0.5781
0.93	-0.4710	-9.1525	-2.3526	0.0235	-0.0069	0.0113	-13.6559	35.3873	20.3275	0.2010	-0.2197	0.7596	-0.5781
0.94	-0.4764	-9.1487	-2.3458	0.0239	-0.0121	0.0127	-13.7016	35.0704	20.4335	0.2011	-0.2198	0.7597	-0.5782
0.95	-0.4730	-9.1442	-2.3469	0.0245	-0.0141	0.0165	-13.4798	34.9980	20.2592	0.2011	-0.2198	0.7596	-0.5781
0.96	-0.4765	-9.1536	-2.3560	0.0220	-0.0073	0.0163	-13.4312	34.9412	20.2533	0.2011	-0.2198	0.7597	-0.5782
0.97	-0.4747	-9.1442	-2.3482	0.0216	-0.0055	0.0149	-13.4156	34.8963	20.2480	0.2011	-0.2197	0.7596	-0.5781
0.98	-0.4737	-9.1452	-2.3427	0.0235	-0.0112	0.0101	-13.4820	35.1425	20.1353	0.2012	-0.2198	0.7596	-0.5781
0.99	-0.4712	-9.1440	-2.3446	0.0208	-0.0050	0.0129	-13.6276	35.0002	20.1851	0.2012	-0.2197	0.7596	-0.5781
1	-0.4754	-9.1457	-2.3502	0.0205	-0.0089	0.0153	-13.5833	34.9910	20.3727	0.2012	-0.2197	0.7596	-0.5781
1.01	-0.4760	-9.1472	-2.3535	0.0251	-0.0042	0.0181	-13.5898	34.9984	20.1813	0.2012	-0.2197	0.7597	-0.5782
1.02	-0.4824	-9.1443	-2.3478	0.0192	-0.0083	0.0156	-13.6110	34.9988	20.2322	0.2012	-0.2197	0.7596	-0.5781
1.03	-0.4855	-9.1469	-2.3556	0.0240	-0.0082	0.0136	-13.5110	34.9879	20.3776	0.2013	-0.2197	0.7597	-0.5781
1.04	-0.4871	-9.1416	-2.3587	0.0221	-0.0062	0.0084	-13.6693	35.0623	20.3103	0.2012	-0.2197	0.7596	-0.5781
1.05	-0.4934	-9.1420	-2.3512	0.0179	-0.0048	0.0119	-13.7966	35.3053	20.4389	0.2013	-0.2197	0.7596	-0.5781
1.06	-0.4976	-9.1488	-2.3576	0.0246	-0.0068	0.0094	-13.7197	35.3196	20.3883	0.2013	-0.2197	0.7596	-0.5781
1.07	-0.4982	-9.1511	-2.3611	0.0190	-0.0084	0.0089	-13.5625	35.3433	20.1349	0.2013	-0.2197	0.7596	-0.5781
1.08	-0.4976	-9.1471	-2.3543	0.0210	-0.0034	0.0060	-13.7870	35.2040	20.2574	0.2013	-0.2197	0.7596	-0.5781
1.09	-0.4936	-9.1505	-2.3606	0.0240	-0.0050	0.0093	-13.7248	35.4212	20.3218	0.2012	-0.2197	0.7596	-0.5781
1.1	-0.4879	-9.1520	-2.3630	0.0215	-0.0054	0.0058	-13.6595	35.2803	20.3750	0.2012	-0.2198	0.7596	-0.5781
1.11	-0.4813	-9.1423	-2.3520	0.0209	-0.0083	0.0073	-13.7026	35.2283	20.4268	0.2012	-0.2198	0.7595	-0.5781
1.12	-0.4732	-9.1456	-2.3589	0.0225	-0.0074	0.0105	-13.5610	35.2309	20.4036	0.2012	-0.2198	0.7596	-0.5782
1.13	-0.4667	-9.1476	-2.3653	0.0202	-0.0113	0.0097	-13.6362	35.1332	20.2613	0.2013	-0.2198	0.7596	-0.5781
1.14	-0.4611	-9.1437	-2.3632	0.0225	-0.0091	0.0133	-13.4744	34.9495	20.5136	0.2013	-0.2198	0.7596	-0.5781
1.15	-0.4608	-9.1436	-2.3625	0.0239	-0.0056	0.0144	-13.1877	35.1629	20.4899	0.2013	-0.2198	0.7596	-0.5781
1.16	-0.4678	-9.1498	-2.3673	0.0241	-0.0032	0.0162	-12.9390	34.9326	20.5830	0.2013	-0.2198	0.7596	-0.5781
1.17	-0.4713	-9.1474	-2.3695	0.0256	0.0030	0.0116	-13.0277	34.9860	20.7446	0.2013	-0.2197	0.7596	-0.5782
1.18	-0.4769	-9.1464	-2.3708	0.0255	-0.0079	0.0129	-13.5458	35.7151	20.4365	0.2013	-0.2197	0.7595	-0.5781
1.19	-0.4808	-9.1458	-2.3820	0.0229	-0.0040	0.0101	-13.5296	36.2344	20.2288	0.2013	-0.2197	0.7596	-0.5782
1.2	-0.4801	-9.1460	-2.3741	0.0244	-0.0029	0.0130	-13.6373	35.6250	20.0916	0.2013	-0.2197	0.7595	-0.5782
1.21	-0.4747	-9.1463	-2.3722	0.0245	-0.0058	0.0166	-13.5360	35.1953	20.2301	0.2013	-0.2197	0.7596	-0.5782
1.22	-0.4687	-9.1412	-2.3693	0.0271	-0.0059	0.0110	-13.4300	35.2435	20.3465	0.2013	-0.2196	0.7595	-0.5782
1.23	-0.4679	-9.1508	-2.3707	0.0240	-0.0069	0.0090	-13.6696	35.1481	20.4234	0.2013	-0.2197	0.7595	-0.5782
1.24	-0.4658	-9.1460	-2.3633	0.0211	-0.0035	0.0088	-13.6846	35.2343	20.4343	0.2013	-0.2197	0.7595	-0.5782
1.25	-0.4703	-9.1433	-2.3590	0.0225	-0.0036	0.0098	-13.6922	35.3675	20.3139	0.2013	-0.2197	0.7595	-0.5782
1.26	-0.4752	-9.1493	-2.3607	0.0248	0.0042	0.0069	-13.5809	35.2518	20.3525	0.2013	-0.2197	0.7596	-0.5783
1.27	-0.4838	-9.1515	-2.3564	0.0235	-0.0017	0.0068	-13.7608	35.1658	20.2802	0.2012	-0.2196	0.7595	-0.5783
1.28	-0.4910	-9.1448	-2.3464	0.0194	-0.0086	0.0143	-13.7033	34.9932	20.4970	0.2013	-0.2197	0.7595	-0.5783
1.29	-0.4908	-9.1415	-2.3395	0.0220	-0.0075	0.0151	-13.6777	35.1976	20.4215	0.2013	-0.2196	0.7594	-0.5782
1.3	-0.4916	-9.1492	-2.3461	0.0206	-0.0017	0.0074	-13.6804	35.2772	20.3213	0.2013	-0.2196	0.7595	-0.5783
1.31	-0.4920	-9.1413	-2.3398	0.0243	-0.0053	0.0133	-13.7119	35.1472	20.4625	0.2013	-0.2196	0.7595	-0.5783
1.32	-0.4875	-9.1463	-2.3387	0.0250	-0.0115	0.0123	-13.5555	35.2250	20.3478	0.2013	-0.2196	0.7595	-0.5783
1.33	-0.4795	-9.1523	-2.3447	0.0181	-0.0126	0.0086	-13.3888	35.0781	20.1260	0.2013	-0.2197	0.7595	-0.5783
1.34	-0.4759	-9.1507	-2.3431	0.0183	-0.0038	0.0078	-13.6197	35.0287	20.2174	0.2013	-0.2197	0.7595	-0.5783
1.35	-0.4742	-9.1448	-2.3418	0.0250	-0.0044	0.0096	-13.6940	35.1926	20.2253	0.2013	-0.2197	0.7595	-0.5783
1.36	-0.4810	-9.1454	-2.3445	0.0206	-0.0081	0.0089	-13.6696	35.1861	20.4103	0.2013	-0.2197	0.7594	-0.5782
1.37	-0.4859	-9.1490	-2.3492	0.0218	-0.0061	0.0077	-13.7897	35.1895	20.5139	0.2013	-0.2197	0.7595	-0.5783
1.38	-0.4942	-9.1454	-2.3521	0.0213	-0.0087	0.0121	-13.6050	35.1828	20.3640	0.2013	-0.2197	0.7595	-0.5783
1.39	-0.4970	-9.1400	-2.3571	0.0223	-0.0088	0.0087	-13.6182	35.1948	20.4734	0.2013	-0.2197	0.7595	-0.5783
1.4	-0.4963	-9.1451	-2.3699	0.0131	-0.0084	0.0102	-13.5787	35.1822	20.1891	0.2013	-0.2197	0.7595	-0.5782
1.41	-0.4875	-9.1500	-2.3701	0.0177	-0.0073	0.0060	-13.6331	35.0823	20.1952	0.2013	-0.2198	0.7595	-0.5782
1.42	-0.4769	-9.1434	-2.3730	0.0241	-0.0075	0.0088	-13.6798	35.1201	20.4360	0.2013	-0.2198	0.7595	-0.5783
1.43	-0.4714	-9.1493	-2.3737	0.0183	-0.0048	0.0108	-13.4215	35.0842	20.4125	0.2013	-0.2198	0.7594	-0.5782
1.44	-0.4620	-9.1492	-2.3740	0.0177	-0.0032	0.0053	-13.4470	35.2369	20.4344	0.2013	-0.2198	0.7595	-0.5783
1.45	-0.4614	-9.1482	-2.3761	0.0215	0.0012	0.0083	-13.7305	35.2617	20.3934	0.2013	-0.2198	0.7595	-0.5782
1.46	-0.4626	-9.1462	-2.3795	0.0185	-0.0064	0.0077	-13.7362	35.0929	20.2252	0.2013	-0.2198	0.7596	-0.5783
1.47	-0.4658	-9.1470	-2.3829	0.0166	-0.0068	0.0076	-13.4881	35.1893	20.3332	0.2012	-0.2198	0.7595	-0.5782
1.48	-0.4688	-9.1473	-2.3777	0.0173	-0.0024	0.0063	-13.5467	35.3212	20.5638	0.2012	-0.2198	0.7595	-0.5782
1.49	-0.4696	-9.1445	-2.3745	0.0161	-0.0042	0.0056	-13.6798	35.1896	20.4230	0.2012	-0.2199	0.7595	-0.5782
1.5	-0.4773	-9.1483	-2.3767	0.0197	-0.0041	0.0117	-13.9584	35.2498	20.4015	0.2012	-0.2199	0.7595	-0.5782
1.51	-0.4722	-9.1491	-2.3665	0.0269	-0.0011	0.0133	-13.8053	35.2702	20.4205	0.2012	-0.2199	0.7596	-0.5783
1.52	-0.4755	-9.1474	-2.3610	0.0181	-0.0111	0.0138	-13.4942	35.0316	20.1461	0.2012	-0.2198	0.7595	-0.5782
1.53	-0.4769	-9.1434	-2.3540	0.0226	-0.0015	0.0065	-13.5719	35.2296	20.4684	0.2012	-0.2199	0.7596	-0.5782
1.54	-0.4720	-9.1452	-2.3486	0.0216	-0.0070	0.0110	-13.7227	35.0625	20.5313	0.2012	-0.2198	0.7595	-0.5782
1.55	-0.4725	-9.1462	-2.3473	0.0198	-0.0157	0.0108	-13.5264	35.1625	20.3765	0.2012	-0.2199	0.7595	-0.5782
1.56	-0.4722	-9.1492	-2.3468	0.0206	-0.0089	0.0144	-13.4413	35.3064	20.4663	0.2012	-0.2199	0.7595	-0.5782
1.57	-0.4763	-9.1535	-2.3482	0.0167	-0.0064	0.0113	-13.6426	35.2763	20.3079	0.2012	-0.2199	0.7595	-0.5782
1.58	-0.4749	-9.1507	-2.3451	0.0181	-0.0053	0.0138	-13.4843	35.1658	20.3594	0.2013	-0.2199	0.7596	-0.5782
1.59	-0.4793	-9.1474	-2.3449	0.0241	-0.0061	0.0128	-13.6804	35.1133	20.2781	0.2013	-0.2199	0.7595	-0.5782
1.6	-0.4797	-9.1489	-2.3410	0.0169	-0.0066	0.0068	-13.6256	35.2175	20.2857	0.2013	-0.2199	0.7596	-0.5782
1.61	-0.4825	-9.1429	-2.3409	0.0216	-0.0050	0.0085	-13.5842	35.1631	20.3718	0.2012	-0.2199	0.7595	-0.5781
1.62	-0.4812	-9.1441	-2.3486	0.0155	-0.0083	0.0054	-13.7047	35.3032	20.0765	0.2012	-0.2199	0.7596	-0.5782
1.63	-0.4769	-9.1510	-2.3553	0.0117	-0.0020	0.0054	-13.6399	35.2358	20.1042	0.2012	-0.2199	0.7596	-0.5781
1.64	-0.4755	-9.1475	-2.3530	0.0105	-0.0038	0.0044	-13.7761	35.1401	20.5013	0.2012	-0.2200	0.7596	-0.5781
1.65	-0.4744	-9.1417	-2.3565	0.0118	-0.0006	0.0073	-13.6101	35.3387	20.5811	0.2011	-0.2200	0.7596	-0.5780
1.66	-0.4761	-9.1451	-2.3646	0.0146	-0.0047	0.0063	-13.2373	35.2913	20.6331	0.2011	-0.2200	0.7596	-0.5780
1.67	-0.4823	-9.1513	-2.3649	0.0194	-0.0067	0.0147	-13.1723	35.2306	20.6751	0.2011	-0.2200	0.7597	-0.5780
1.68	-0.4859	-9.1453	-2.3656	0.0266	-0.0072	0.0111	-13.5449	35.7619	20.3134	0.2011	-0.2200	0.7596	-0.5780
1.69	-0.4862	-9.1497	-2.3684	0.0221	-0.0087	0.0140	-13.7747	36.0947	20.3770	0.2012	-0.2200	0.7597	-0.5781
1.7	-0.4935	-9.1518	-2.3683	0.0179	-0.0045	0.0093	-13.5044	35.1912	20.5128	0.2011	-0.2200	0.7596	-0.5780
1.71	-0.4950	-9.1450	-2.3608	0.0226	-0.0097	0.0118	-13.6922	35.0175	20.2322	0.2012	-0.2200	0.7597	-0.5781
1.72	-0.4940	-9.1406	-2.3588	0.0185	-0.0098	0.0115	-13.6270	35.1393	20.2385	0.2012	-0.2200	0.7596	-0.5780
1.73	-0.4921	-9.1450	-2.3564	0.0254	-0.0138	0.0152	-13.3962	35.0989	20.0994	0.2012	-0.2200	0.7596	-0.5780
1.74	-0.4824	-9.1458	-2.3569	0.0249	-0.0092	0.0111	-13.5236	35.2338	20.2375	0.2012	-0.2200	0.7596	-0.5780
1.75	-0.4819	-9.1439	-2.3581	0.0219	-0.0072	0.0127	-13.6067	35.1552	20.1370	0.2012	-0.2200	0.7596	-0.5780
1.76	-0.4780	-9.1509	-2.3607	0.0206	-0.0105	0.0157	-13.6361	35.2172	20.2569	0.2013	-0.2200	0.7597	-0.5780
1.77	-0.4730	-9.1531	-2.3584	0.0168	-0.0088	0.0166	-13.5936	35.0067	20.4577	0.2013	-0.2200	0.7596	-0.5780
1.78	-0.4708	-9.1459	-2.3540	0.0183	-0.0130	0.0132	-13.4982	35.1018	20.1575	0.2013	-0.2200	0.7597	-0.5780
1.79	-0.4652	-9.1466	-2.3525	0.0215	-0.0085	0.0111	-13.7077	35.0843	20.4650	0.2013	-0.2200	0.7596	-0.5779
1.8	-0.4622	-9.1466	-2.3583	0.0149	-0.0021	0.0092	-13.9195	35.1379	20.3239	0.2013	-0.2200	0.7596	-0.5779
1.81	-0.4614	-9.1428	-2.3546	0.0193	-0.0063	0.0072	-13.7820	35.3013	20.3981	0.2013	-0.2201	0.7596	-0.5779
1.82	-0.4664	-9.1526	-2.3541	0.0220	-0.0034	0.0110	-13.6028	35.2514	20.5386	0.2013	-0.2201	0.7596	-0.5779
1.83	-0.4745	-9.1498	-2.3562	0.0216	-0.0068	0.0152	-13.6528	35.2696	20.3725	0.2013	-0.2200	0.7597	-0.5779
1.84	-0.4793	-9.1449	-2.3658	0.0180	-0.0065	0.0148	-13.7075	35.1567	20.4148	0.2013	-0.2200	0.7596	-0.5779
1.85	-0.4847	-9.1466	-2.3676	0.0243	-0.0033	0.0152	-13.7394	35.3873	20.4031	0.2014	-0.2200	0.7597	-0.5779
1.86	-0.4805	-9.1444	-2.3708	0.0142	-0.0090	0.0114	-13.8954	35.2287	20.3100	0.2013	-0.2200	0.7596	-0.5778
1.87	-0.4772	-9.1491	-2.3774	0.0215	-0.0098	0.0167	-13.6413	35.3204	20.4305	0.2014	-0.2200	0.7597	-0.5779
1.88	-0.4707	-9.1517	-2.3757	0.0226	-0.0095	0.0158	-13.6359	35.2999	20.3664	0.2014	-0.2200	0.7597	-0.5779
1.89	-0.4617	-9.1470	-2.3739	0.0201	-0.0109	0.0144	-13.5587	35.0636	20.5190	0.2014	-0.2200	0.7597	-0.5779
1.9	-0.4658	-9.1460	-2.3708	0.0223	-0.0112	0.0157	-13.5294	35.2119	20.2986	0.2015	-0.2200	0.7596	-0.5778
1.91	-0.4670	-9.1455	-2.3628	0.0247	-0.0060	0.0111	-13.6714	35.1602	20.2154	0.2015	-0.2200	0.7597	-0.5779
1.92	-0.4764	-9.1435	-2.3587	0.0200	-0.0068	0.0152	-13.7048	35.2099	20.2340	0.2015	-0.2200	0.7597	-0.5779
1.93	-0.4874	-9.1478	-2.3629	0.0196	-0.0068	0.0112	-13.7024	35.0954	20.2359	0.2015	-0.2200	0.7596	-0.5778
1.94	-0.4922	-9.1462	-2.3502	0.0242	-0.0069	0.0148	-13.6064	35.1118	20.2115	0.2015	-0.2200	0.7597	-0.5779
1.95	-0.5015	-9.1499	-2.3508	0.0216	-0.0063	0.0099	-13.6356	35.2212	20.4422	0.2015	-0.2200	0.7596	-0.5778
1.96	-0.4995	-9.1539	-2.3514	0.0212	-0.0089	0.0106	-13.5736	34.9026	20.4772	0.2016	-0.2200	0.7597	-0.5779
1.97	-0.4942	-9.1436	-2.3464	0.0208	-0.0119	0.0136	-13.4997	35.1261	20.2741	0.2016	-0.2200	0.7596	-0.5778
1.98	-0.4907	-9.1435	-2.3397	0.0217	-0.0079	0.0108	-13.8337	35.3921	20.4643	0.2016	-0.2200	0.7597	-0.5778
1.99	-0.4810	-9.1508	-2.3421	0.0220	-0.0063	0.0135	-13.9652	35.1699	20.2945	0.2016	-0.2200	0.7596	-0.5778
2	-0.4763	-9.1560	-2.3434	0.0209	-0.0057	0.0069	-13.6792	35.4623	20.3876	0.2016	-0.2200	0.7596	-0.5778
2.01	-0.4714	-9.1531	-2.3390	0.0211	-0.0069	0.0071	-13.7126	35.4028	20.4881	0.2016	-0.2201	0.7597	-0.5779
2.02	-0.4779	-9.1431	-2.3315	0.0195	-0.0057	0.0090	-13.8482	35.3547	20.3778	0.2016	-0.2200	0.7596	-0.5778
2.03	-0.4880	-9.1506	-2.3421	0.0219	-0.0045	0.0071	-13.8400	35.2991	20.3585	0.2016	-0.2201	0.7597	-0.5779
2.04	-0.4942	-9.1460	-2.3447	0.0249	-0.0040	0.0111	-13.6516	35.5603	20.1862	0.2015	-0.2200	0.7596	-0.5778
2.05	-0.4970	-9.1412	-2.3508	0.0238	-0.0070	0.0107	-13.8551	35.4243	20.1272	0.2016	-0.2201	0.7596	-0.5779
2.06	-0.4956	-9.1473	-2.3553	0.0235	-0.0122	0.0130	-13.9598	35.0600	20.3143	0.2016	-0.2201	0.7596	-0.5779
2.07	-0.4871	-9.1518	-2.3656	0.0265	-0.0043	0.0106	-13.6515	35.0968	20.2964	0.2016	-0.2200	0.7596	-0.5779
2.08	-0.4761	-9.1485	-2.3684	0.0180	-0.0097	0.0074	-13.4109	35.2233	20.5280	0.2016	-0.2201	0.7596	-0.5779
2.09	-0.4641	-9.1421	-2.3696	0.0155	-0.0099	0.0139	-13.5460	35.1000	20.4633	0.2016	-0.2201	0.7596	-0.5778
2.1	-0.4596	-9.1446	-2.3778	0.0221	-0.0059	0.0155	-13.6499	35.0364	20.3833	0.2016	-0.2201	0.7596	-0.5779
2.11	-0.4592	-9.1502	-2.3803	0.0222	-0.0082	0.0145	-13.6246	35.1296	20.4404	0.2016	-0.2200	0.7595	-0.5778
2.12	-0.4570	-9.1426	-2.3789	0.0214	-0.0058	0.0121	-13.5963	35.0902	20.2621	0.2017	-0.2201	0.7596	-0.5779
2.13	-0.4587	-9.1438	-2.3831	0.0219	-0.0083	0.0063	-13.5369	35.2527	20.0973	0.2017	-0.2201	0.7596	-0.5778
2.14	-0.4630	-9.1538	-2.3837	0.0252	-0.0070	0.0141	-13.7230	35.0668	20.2176	0.2017	-0.2201	0.7596	-0.5779
2.15	-0.4681	-9.1471	-2.3810	0.0204	-0.0097	0.0129	-13.5416	35.1443	20.3329	0.2017	-0.2201	0.7596	-0.5778
2.16	-0.4669	-9.1435	-2.3763	0.0258	-0.0053	0.0118	-13.2790	35.2638	20.4337	0.2017	-0.2201	0.7596	-0.5779
2.17	-0.4703	-9.1554	-2.3774	0.0208	-0.0053	0.0038	-13.3468	35.1973	20.5744	0.2017	-0.2201	0.7596	-0.5779
2.18	-0.4749	-9.1504	-2.3751	0.0180	-0.0021	0.0071	-13.7075	35.7256	20.3254	0.2016	-0.2201	0.7595	-0.5778
2.19	-0.4738	-9.1494	-2.3656	0.0205	-0.0047	0.0088	-13.6188	36.2075	20.1471	0.2017	-0.2201	0.7596	-0.5779
2.2	-0.4680	-9.1528	-2.3602	0.0173	0.0004	0.0059	-13.6526	35.5750	20.2319	0.2016	-0.2201	0.7596	-0.5779
2.21	-0.4684	-9.1495	-2.3566	0.0200	-0.0011	0.0069	-13.5572	35.1847	20.2166	0.2016	-0.2201	0.7597	-0.5779
2.22	-0.4685	-9.1425	-2.3553	0.0164	-0.0060	0.0088	-13.6769	35.4370	20.3193	0.2015	-0.2201	0.7596	-0.5778
2.23	-0.4686	-9.1482	-2.3471	0.0180	-0.0040	0.0052	-13.6892	35.2531	20.3180	0.2015	-0.2201	0.7596	-0.5779
2.24	-0.4706	-9.1527	-2.3535	0.0172	-0.0059	0.0146	-13.5980	35.0757	20.3198	0.2015	-0.2201	0.7596	-0.5778
2.25	-0.4750	-9.1464	-2.3472	0.0228	-0.0074	0.0145	-13.6652	35.4006	20.3034	0.2015	-0.2201	0.7596	-0.5778
2.26	-0.4819	-9.1483	-2.3445	0.0207	-0.0072	0.0137	-13.6711	35.3293	20.4110	0.2016	-0.2201	0.7597	-0.5779
2.27	-0.4833	-9.1512	-2.3409	0.0200	-0.0047	0.0134	-13.8343	35.4114	20.2692	0.2016	-0.2201	0.7596	-0.5778
2.28	-0.4836	-9.1527	-2.3358	0.0209	0.0007	0.0110	-13.7289	35.4169	20.3609	0.2016	-0.2201	0.7597	-0.5779
2.29	-0.4814	-9.1461	-2.3374	0.0183	0.0016	0.0053	-13.5637	35.1739	20.1247	0.2015	-0.2201	0.7596	-0.5778
2.3	-0.4827	-9.1484	-2.3410	0.0275	-0.0053	0.0076	-13.5801	35.1994	20.0600	0.2015	-0.2201	0.7596	-0.5779
2.31	-0.4812	-9.1460	-2.3389	0.0190	-0.0041	0.0102	-13.6357	35.3691	20.2023	0.2015	-0.2201	0.7596	-0.5778
2.32	-0.4735	-9.1489	-2.3462	0.0228	-0.0019	0.0129	-13.6889	35.2870	20.3102	0.2015	-0.2201	0.7596	-0.5778
2.33	-0.4740	-9.1516	-2.3475	0.0215	0.0013	0.0077	-13.5924	35.2832	20.3253	0.2015	-0.2201	0.7597	-0.5779
2.34	-0.4747	-9.1494	-2.3491	0.0223	-0.0100	0.0139	-13.7976	35.2554	20.1762	0.2015	-0.2201	0.7596	-0.5779
2.35	-0.4731	-9.1471	-2.3580	0.0258	0.0002	0.0077	-13.5411	35.3548	20.3156	0.2015	-0.2201	0.7597	-0.5779
2.36	-0.4797	-9.1466	-2.3632	0.0256	0.0027	0.0088	-13.7697	35.2850	20.3089	0.2014	-0.2200	0.7596	-0.5779
2.37	-0.4873	-9.1518	-2.3690	0.0234	-0.0004	0.0083	-13.7301	35.1638	20.2347	0.2014	-0.2201	0.7596	-0.5779
2.38	-0.4909	-9.1481	-2.3675	0.0229	-0.0011	0.0063	-13.7882	35.2143	20.2006	0.2014	-0.2200	0.7596	-0.5779
2.39	-0.4908	-9.1472	-2.3706	0.0255	0.0013	0.0061	-13.8690	35.1672	20.3197	0.2013	-0.2200	0.7596	-0.5780
2.4	-0.4965	-9.1484	-2.3694	0.0247	0.0030	0.0057	-13.6440	35.3037	20.2882	0.2013	-0.2200	0.7596	-0.5780
2.41	-0.4960	-9.1465	-2.3744	0.0198	-0.0014	0.0059	-13.5700	35.3692	20.3884	0.2013	-0.2200	0.7596	-0.5780
2.42	-0.4931	-9.1399	-2.3664	0.0244	0.0014	0.0068	-13.6367	35.1828	20.3048	0.2012	-0.2200	0.7596	-0.5780
2.43	-0.4916	-9.1420	-2.3561	0.0253	-0.0042	0.0064	-13.7578	35.2624	20.1797	0.2012	-0.2200	0.7595	-0.5780
2.44	-0.4899	-9.1476	-2.3604	0.0198	-0.0050	0.0145	-13.7537	35.3928	20.4399	0.2012	-0.2200	0.7596	-0.5781
2.45	-0.4843	-9.1476	-2.3676	0.0242	-0.0093	0.0131	-13.6050	35.1640	20.3901	0.2012	-0.2200	0.7596	-0.5780
2.46	-0.4774	-9.1480	-2.3681	0.0260	-0.0095	0.0136	-13.3948	35.0956	20.1497	0.2013	-0.2200	0.7596	-0.5781
2.47	-0.4688	-9.1520	-2.3586	0.0262	-0.0061	0.0088	-13.5376	35.2007	20.2443	0.2012	-0.2200	0.7595	-0.5780
2.48	-0.4670	-9.1532	-2.3610	0.0242	-0.0035	0.0109	-13.5791	35.2062	20.3222	0.2013	-0.2200	0.7595	-0.5781
2.49	-0.4639	-9.1533	-2.3621	0.0235	-0.0045	0.0102	-13.6428	35.3375	20.1886	0.2012	-0.2200	0.7595	-0.5781
2.5	-0.4656	-9.1556	-2.3590	0.0242	-0.0066	0.0078	-13.6753	35.3952	20.2495	0.2012	-0.2200	0.7595	-0.5781
2.51	-0.4735	-9.1563	-2.3600	0.0244	-0.0084	0.0065	-13.6774	35.1264	20.2167	0.2013	-0.2201	0.7596	-0.5782
2.52	-0.4760	-9.1434	-2.3566	0.0222	-0.0056	0.0108	-13.7659	35.4310	20.3829	0.2012	-0.2201	0.7595	-0.5781
2.53	-0.4817	-9.1442	-2.3568	0.0242	-0.0046	0.0087	-13.5727	35.2994	20.1567	0.2013	-0.2201	0.7595	-0.5782
2.54	-0.4822	-9.1458	-2.3640	0.0233	-0.0045	0.0090	-13.6010	35.0444	20.1395	0.2012	-0.2200	0.7594	-0.5781
2.55	-0.4822	-9.1424	-2.3690	0.0228	-0.0019	0.0112	-13.5690	35.2695	20.1391	0.2012	-0.2201	0.7595	-0.5782
2.56	-0.4752	-9.1431	-2.3654	0.0199	-0.0076	0.0067	-13.4605	35.2681	20.1833	0.2012	-0.2201	0.7595	-0.5782
2.57	-0.4639	-9.1487	-2.3616	0.0193	-0.0052	0.0074	-13.6511	35.2878	20.2614	0.2012	-0.2201	0.7595	-0.5781
2.58	-0.4590	-9.1526	-2.3621	0.0189	-0.0024	0.0052	-13.7749	35.3421	20.1976	0.2012	-0.2201	0.7595	-0.5782
2.59	-0.4601	-9.1474	-2.3581	0.0267	-0.0017	0.0119	-13.6108	35.2780	20.1431	0.2012	-0.2201	0.7595	-0.5782
2.6	-0.4611	-9.1418	-2.3549	0.0229	-0.0028	0.0086	-13.7737	35.2148	20.3309	0.2012	-0.2201	0.7595	-0.5782
2.61	-0.4685	-9.1479	-2.3574	0.0216	-0.0073	0.0070	-13.6619	35.1831	20.2433	0.2011	-0.2201	0.7594	-0.5781
2.62	-0.4791	-9.1511	-2.3542	0.0230	-0.0056	0.0072	-13.5907	35.2849	20.1012	0.2011	-0.2201	0.7595	-0.5782
2.63	-0.4856	-9.1485	-2.3507	0.0250	-0.0091	0.0110	-13.6868	35.2963	20.0440	0.2011	-0.2201	0.7594	-0.5782
2.64	-0.4904	-9.1505	-2.3522	0.0232	-0.0061	0.0109	-13.6689	35.1893	20.0364	0.2012	-0.2201	0.7595	-0.5782
2.65	-0.4924	-9.1524	-2.3443	0.0194	-0.0019	0.0072	-13.5228	35.2318	20.2390	0.2011	-0.2201	0.7594	-0.5782
2.66	-0.4916	-9.1495	-2.3404	0.0239	-0.0061	0.0120	-13.0333	35.1220	20.6348	0.2011	-0.2201	0.7594	-0.5782
2.67	-0.4919	-9.1481	-2.3356	0.0233	-0.0092	0.0101	-13.0374	35.0723	20.6716	0.2012	-0.2201	0.7594	-0.5782
2.68	-0.4887	-9.1540	-2.3401	0.0240	-0.0027	0.0171	-13.3553	35.4373	20.1602	0.2011	-0.2201	0.7594	-0.5782
2.69	-0.4803	-9.1494	-2.3395	0.0213	-0.0066	0.0074	-13.6221	36.0742	20.1218	0.2012	-0.2201	0.7595	-0.5783
2.7	-0.4824	-9.1439	-2.3437	0.0239	-0.0070	0.0088	-13.5353	35.2838	20.1471	0.2012	-0.2201	0.7594	-0.5782
2.71	-0.4809	-9.1446	-2.3440	0.0258	-0.0054	0.0105	-13.4115	34.8909	20.2521	0.2012	-0.2201	0.7595	-0.5783
2.72	-0.4901	-9.1441	-2.3455	0.0195	-0.0034	0.0076	-13.5567	35.1649	20.2631	0.2011	-0.2201	0.7594	-0.5782
2.73	-0.4951	-9.1468	-2.3545	0.0227	-0.0024	0.0125	-13.6506	35.2657	20.2456	0.2011	-0.2201	0.7594	-0.5783
2.74	-0.4963	-9.1495	-2.3661	0.0240	-0.0011	0.0107	-13.7047	35.4278	20.2566	0.2011	-0.2201	0.7594	-0.5783
2.75	-0.4915	-9.1492	-2.3783	0.0196	-0.0045	0.0112	-13.4653	35.4217	20.2312	0.2011	-0.2201	0.7594	-0.5783
2.76	-0.4863	-9.1519	-2.3832	0.0217	-0.0047	0.0120	-13.7900	35.4250	20.3607	0.2011	-0.2201	0.7595	-0.5783
2.77	-0.4725	-9.1527	-2.3902	0.0229	-0.0036	0.0111	-13.6829	35.2830	20.1657	0.2011	-0.2201	0.7594	-0.5783
2.78	-0.4680	-9.1465	-2.3851	0.0195	-0.0017	0.0151	-13.6352	35.2601	20.1989	0.2011	-0.2201	0.7595	-0.5783
2.79	-0.4573	-9.1462	-2.3815	0.0199	-0.0063	0.0127	-13.7931	35.1877	19.9590	0.2011	-0.2200	0.7594	-0.5782
2.8	-0.4552	-9.1450	-2.3864	0.0241	-0.0022	0.0137	-13.6680	35.0417	20.1459	0.2011	-0.2200	0.7594	-0.5783
2.81	-0.4580	-9.1479	-2.3821	0.0208	-0.0095	0.0131	-13.6847	35.0315	20.3001	0.2011	-0.2200	0.7594	-0.5783
2.82	-0.4693	-9.1483	-2.3821	0.0260	-0.0097	0.0129	-13.4891	35.1917	20.2289	0.2011	-0.2200	0.7594	-0.5783
2.83	-0.4745	-9.1444	-2.3712	0.0249	-0.0088	0.0121	-13.2322	35.1899	20.2890	0.2012	-0.2200	0.7594	-0.5783
2.84	-0.4744	-9.1461	-2.3706	0.0256	-0.0068	0.0134	-13.3854	35.0461	20.0935	0.2012	-0.2200	0.7594	-0.5783
2.85	-0.4810	-9.1483	-2.3605	0.0244	-0.0058	0.0137	-13.4269	35.0095	20.3450	0.2012	-0.2200	0.7594	-0.5783
2.86	-0.4793	-9.1485	-2.3477	0.0258	-0.0070	0.0104	-13.3438	35.0019	20.2739	0.2012	-0.2200	0.7593	-0.5783
2.87	-0.4801	-9.1481	-2.3411	0.0252	-0.0068	0.0141	-13.4746	35.2481	20.1536	0.2012	-0.2200	0.7594	-0.5784
2.88	-0.4815	-9.1512	-2.3409	0.0243	-0.0094	0.0085	-13.6109	34.9294	20.3170	0.2012	-0.2200	0.7593	-0.5783
2.89	-0.4762	-9.1512	-2.3348	0.0231	-0.0050	0.0072	-13.5505	35.0690	20.1681	0.2012	-0.2200	0.7593	-0.5784
2.9	-0.4702	-9.1529	-2.3317	0.0261	-0.0037	0.0132	-13.5253	35.1102	20.0764	0.2012	-0.2200	0.7593	-0.5784
2.91	-0.4713	-9.1492	-2.3311	0.0269	-0.0067	0.0152	-13.6449	35.1105	20.1957	0.2013	-0.2200	0.7593	-0.5784
2.92	-0.4771	-9.1528	-2.3284	0.0263	-0.0014	0.0111	-13.7686	35.2084	20.1299	0.2013	-0.2200	0.7593	-0.5784
2.93	-0.4734	-9.1359	-2.3190	0.0215	-0.0066	0.0069	-13.7064	35.1470	20.2655	0.2012	-0.2200	0.7592	-0.5784
2.94	-0.4748	-9.1578	-2.3298	0.0205	-0.0060	0.0056	-13.6014	35.2878	20.2350	0.2012	-0.2200	0.7593	-0.5785
2.95	-0.4756	-9.1630	-2.3420	0.0191	-0.0071	0.0077	-13.6073	35.3783	20.1318	0.2012	-0.2200	0.7593	-0.5784
2.96	-0.4796	-9.1370	-2.3290	0.0161	-0.0031	0.0124	-13.6689	35.2626	19.9699	0.2012	-0.2201	0.7594	-0.5784
2.97	-0.4856	-9.1439	-2.3403	0.0197	-0.0052	0.0109	-13.7145	35.2688	20.0989	0.2012	-0.2200	0.7593	-0.5784
2.98	-0.4883	-9.1591	-2.3611	0.0216	-0.0053	0.0066	-13.6812	35.3375	20.2707	0.2012	-0.2201	0.7593	-0.5784
2.99	-0.4887	-9.1399	-2.3513	0.0211	-0.0067	0.0120	-13.7196	35.3739	20.2854	0.2012	-0.2201	0.7593	-0.5784
3	-0.4850	-9.1439	-2.3604	0.0231	-0.0082	0.0161	-13.6162	35.1895	20.3862	0.2012	-0.2200	0.7593	-0.5784
3.01	-0.4788	-9.1490	-2.3686	0.0266	-0.0106	0.0178	-13.5305	34.9985	20.1233	0.2013	-0.2200	0.7594	-0.5784
3.02	-0.4726	-9.1389	-2.3674	0.0195	-0.0076	0.0205	-13.3856	35.1339	20.2060	0.2013	-0.2200	0.7593	-0.5784
3.03	-0.4688	-9.1444	-2.3715	0.0238	-0.0058	0.0131	-13.4246	35.0862	20.1010	0.2013	-0.2200	0.7594	-0.5784
3.04	-0.4631	-9.1457	-2.3680	0.0208	-0.0080	0.0123	-13.4649	35.0957	20.0699	0.2013	-0.2200	0.7592	-0.5783
3.05	-0.4702	-9.1577	-2.3804	0.0243	-0.0015	0.0186	-13.4517	35.1111	20.2122	0.2013	-0.2200	0.7593	-0.5784
3.06	-0.4759	-9.1473	-2.3756	0.0250	0.0004	0.0109	-13.6016	35.0528	20.2753	0.2013	-0.2199	0.7593	-0.5784
3.07	-0.4790	-9.1451	-2.3744	0.0240	-0.0067	0.0127	-13.6234	34.9694	20.2373	0.2013	-0.2199	0.7593	-0.5784
3.08	-0.4846	-9.1480	-2.3821	0.0242	-0.0053	0.0164	-13.5231	35.2123	20.2819	0.2013	-0.2199	0.7593	-0.5784
3.09	-0.4922	-9.1460	-2.3817	0.0264	-0.0082	0.0135	-13.6774	35.2714	20.3393	0.2014	-0.2199	0.7593	-0.5784
3.1	-0.4965	-9.1451	-2.3735	0.0208	-0.0061	0.0148	-13.5079	35.2485	20.1693	0.2014	-0.2199	0.7593	-0.5784
3.11	-0.4941	-9.1444	-2.3698	0.0250	-0.0031	0.0192	-13.7003	35.2856	20.1528	0.2014	-0.2198	0.7592	-0.5784
3.12	-0.4871	-9.1491	-2.3696	0.0234	-0.0035	0.0084	-13.6835	35.2179	20.0739	0.2014	-0.2199	0.7593	-0.5785
3.13	-0.4858	-9.1472	-2.3614	0.0213	-0.0024	0.0152	-13.7283	35.1993	20.2138	0.2014	-0.2198	0.7593	-0.5784
3.14	-0.4770	-9.1473	-2.3580	0.0215	-0.0030	0.0092	-13.5660	35.3209	20.3385	0.2014	-0.2198	0.7593	-0.5785
3.15	-0.4724	-9.1514	-2.3574	0.0211	0.0011	0.0121	-13.4550	35.4008	20.4083	0.2013	-0.2198	0.7593	-0.5784
3.16	-0.4650	-9.1502	-2.3510	0.0240	-0.0046	0.0121	-13.2098	35.2323	20.4957	0.2013	-0.2198	0.7593	-0.5785
3.17	-0.4669	-9.1423	-2.3462	0.0238	-0.0049	0.0080	-13.0507	35.2996	20.4233	0.2013	-0.2198	0.7593	-0.5785
3.18	-0.4656	-9.1477	-2.3418	0.0248	-0.0019	0.0096	-13.2752	35.7188	19.8213	0.2013	-0.2198	0.7592	-0.5784
3.19	-0.4645	-9.1490	-2.3373	0.0264	0.0009	0.0133	-13.4140	36.3887	19.8257	0.2013	-0.2198	0.7593	-0.5785
3.2	-0.4699	-9.1518	-2.3349	0.0239	-0.0105	0.0132	-13.4529	35.6172	20.1908	0.2013	-0.2197	0.7593	-0.5785
3.21	-0.4701	-9.1526	-2.3334	0.0248	-0.0051	0.0144	-13.4772	35.0766	20.1942	0.2014	-0.2198	0.7593	-0.5786
3.22	-0.4721	-9.1457	-2.3323	0.0246	-0.0047	0.0150	-13.3418	35.2568	20.0427	0.2013	-0.2197	0.7592	-0.5785
3.23	-0.4781	-9.1531	-2.3350	0.0241	-0.0014	0.0131	-13.4163	35.2877	19.9276	0.2014	-0.2197	0.7593	-0.5786
3.24	-0.4787	-9.1494	-2.3430	0.0195	-0.0087	0.0168	-13.5673	35.3798	19.8719	0.2014	-0.2197	0.7593	-0.5785
3.25	-0.4790	-9.1503	-2.3506	0.0165	-0.0076	0.0103	-13.4912	35.0978	19.8758	0.2014	-0.2197	0.7592	-0.5785
3.26	-0.4721	-9.1503	-2.3591	0.0186	-0.0058	0.0132	-13.6451	35.0243	20.0103	0.2014	-0.2197	0.7594	-0.5785
3.27	-0.4639	-9.1499	-2.3605	0.0229	-0.0060	0.0177	-13.4438	35.3239	20.0410	0.2014	-0.2197	0.7593	-0.5785
3.28	-0.4596	-9.1473	-2.3634	0.0204	-0.0105	0.0126	-13.4947	35.1423	19.9318	0.2014	-0.2197	0.7593	-0.5785
3.29	-0.4574	-9.1514	-2.3656	0.0193	-0.0033	0.0128	-13.6251	35.1035	20.0805	0.2014	-0.2196	0.7592	-0.5784
3.3	-0.4588	-9.1475	-2.3650	0.0164	-0.0048	0.0130	-13.6117	35.0955	20.0352	0.2014	-0.2197	0.7593	-0.5785
3.31	-0.4628	-9.1475	-2.3702	0.0135	-0.0072	0.0076	-13.7502	35.3272	19.9197	0.2014	-0.2197	0.7593	-0.5784
3.32	-0.4698	-9.1485	-2.3658	0.0175	-0.0082	0.0014	-13.5239	35.3074	20.0636	0.2014	-0.2197	0.7593	-0.5784
3.33	-0.4781	-9.1436	-2.3543	0.0241	-0.0045	0.0108	-13.5425	35.1795	20.0490	0.2014	-0.2197	0.7594	-0.5784
3.34	-0.4825	-9.1495	-2.3570	0.0212	-0.0036	0.0114	-13.5028	35.3097	19.8095	0.2014	-0.2197	0.7593	-0.5784
3.35	-0.4947	-9.1533	-2.3593	0.0190	-0.0043	0.0049	-13.5942	35.2738	19.9815	0.2014	-0.2198	0.7594	-0.5784
3.36	-0.5026	-9.1481	-2.3522	0.0225	-0.0025	0.0087	-13.6026	35.2677	19.8711	0.2013	-0.2197	0.7593	-0.5784
3.37	-0.5008	-9.1459	-2.3512	0.0258	-0.0093	0.0133	-13.6205	35.3136	19.9881	0.2014	-0.2198	0.7594	-0.5785
3.38	-0.4930	-9.1504	-2.3475	0.0195	-0.0041	0.0107	-13.7028	35.3337	19.9380	0.2013	-0.2197	0.7593	-0.5784
3.39	-0.4844	-9.1503	-2.3464	0.0204	-0.0065	0.0073	-13.4411	35.2596	20.0479	0.2013	-0.2198	0.7593	-0.5784
3.4	-0.4771	-9.1424	-2.3399	0.0244	-0.0045	0.0111	-13.4493	35.2977	20.0665	0.2013	-0.2198	0.7593	-0.5784
3.41	-0.4753	-9.1456	-2.3412	0.0250	-0.0032	0.0098	-13.4614	35.1496	20.0543	0.2013	-0.2198	0.7593	-0.5785
3.42	-0.4816	-9.1481	-2.3379	0.0242	-0.0051	0.0148	-13.4244	35.0828	20.0699	0.2013	-0.2197	0.7593	-0.5785
3.43	-0.4913	-9.1517	-2.3481	0.0236	-0.0012	0.0109	-13.5471	35.2676	20.0539	0.2013	-0.2197	0.7592	-0.5784
3.44	-0.4969	-9.1479	-2.3541	0.0166	0.0016	0.0146	-13.5064	35.3940	19.9500	0.2013	-0.2197	0.7594	-0.5785
3.45	-0.4997	-9.1453	-2.3634	0.0222	-0.0005	0.0148	-13.4412	35.1928	19.9769	0.2013	-0.2197	0.7593	-0.5785
3.46	-0.4921	-9.1495	-2.3696	0.0206	-0.0010	0.0116	-13.4273	35.2612	19.9688	0.2013	-0.2197	0.7594	-0.5785
3.47	-0.4809	-9.1425	-2.3684	0.0154	-0.0013	0.0147	-13.5526	35.3671	19.9673	0.2013	-0.2196	0.7593	-0.5784
3.48	-0.4726	-9.1447	-2.3695	0.0215	-0.0056	0.0076	-13.5914	35.3739	19.9540	0.2013	-0.2196	0.7594	-0.5785
3.49	-0.4628	-9.1475	-2.3757	0.0206	0.0006	0.0086	-13.5382	35.3168	19.9739	0.2012	-0.2196	0.7594	-0.5785
3.5	-0.4563	-9.1468	-2.3734	0.0210	-0.0010	0.0035	-13.7051	35.1948	19.9468	0.2012	-0.2196	0.7593	-0.5784
3.51	-0.4573	-9.1497	-2.3778	0.0195	0.0030	0.0059	-13.6888	35.1710	19.9991	0.2012	-0.2197	0.7594	-0.5785
3.52	-0.4659	-9.1469	-2.3773	0.0241	-0.0003	0.0102	-13.6709	35.2534	20.0326	0.2011	-0.2196	0.7594	-0.5785
3.53	-0.4727	-9.1487	-2.3837	0.0184	0.0034	0.0110	-13.5607	35.2687	19.9256	0.2011	-0.2196	0.7594	-0.5785
3.54	-0.4798	-9.1391	-2.3761	0.0231	0.0029	0.0074	-13.7258	35.3815	20.0687	0.2010	-0.2196	0.7593	-0.5785
3.55	-0.4820	-9.1425	-2.3665	0.0200	-0.0024	0.0079	-13.6497	35.3069	20.0449	0.2010	-0.2196	0.7594	-0.5785
3.56	-0.4813	-9.1545	-2.3755	0.0241	-0.0047	0.0146	-13.7746	35.0208	20.0537	0.2010	-0.2196	0.7594	-0.5785
3.57	-0.4818	-9.1507	-2.3674	0.0220	-0.0063	0.0163	-13.6492	35.2240	19.7845	0.2010	-0.2196	0.7594	-0.5785
3.58	-0.4760	-9.1478	-2.3605	0.0240	-0.0088	0.0125	-13.3959	35.1739	19.7998	0.2011	-0.2196	0.7594	-0.5785
3.59	-0.4771	-9.1505	-2.3662	0.0247	-0.0038	0.0120	-13.6057	35.3583	20.0517	0.2011	-0.2196	0.7594	-0.5785
3.6	-0.4755	-9.1469	-2.3657	0.0183	-0.0083	0.0107	-13.3905	35.1214	20.0258	0.2011	-0.2196	0.7594	-0.5785
3.61	-0.4720	-9.1405	-2.3549	0.0237	-0.0046	0.0121	-13.3349	35.1901	19.8502	0.2010	-0.2196	0.7593	-0.5785
3.62	-0.4683	-9.1476	-2.3522	0.0165	-0.0052	0.0081	-13.5922	35.3966	20.0200	0.2011	-0.2196	0.7594	-0.5785
3.63	-0.4587	-9.1513	-2.3464	0.0211	-0.0069	0.0089	-13.7470	35.1885	20.0315	0.2010	-0.2196	0.7594	-0.5785
3.64	-0.4547	-9.1517	-2.3420	0.0216	-0.0078	0.0108	-13.8070	35.2213	19.8966	0.2011	-0.2196	0.7594	-0.5785
3.65	-0.4528	-9.1550	-2.3379	0.0252	-0.0045	0.0057	-13.5254	35.4465	20.2767	0.2010	-0.2196	0.7594	-0.5785
3.66	-0.4630	-9.1527	-2.3391	0.0185	0.0026	0.0100	-13.0641	35.1136	20.2020	0.2010	-0.2196	0.7594	-0.5785
3.67	-0.4762	-9.1535	-2.3390	0.0184	-0.0045	0.0167	-13.0423	35.1681	20.1066	0.2010	-0.2196	0.7594	-0.5785
3.68	-0.4804	-9.1472	-2.3370	0.0222	0.0027	0.0080	-13.3567	35.5802	19.9528	0.2010	-0.2196	0.7594	-0.5785
3.69	-0.4839	-9.1483	-2.3366	0.0234	-0.0043	0.0165	-13.5678	36.1744	19.9425	0.2010	-0.2196	0.7595	-0.5786
3.7	-0.4874	-9.1476	-2.3458	0.0206	-0.0049	0.0083	-13.7066	35.4653	20.0746	0.2010	-0.2195	0.7594	-0.5785
3.71	-0.4873	-9.1460	-2.3492	0.0158	-0.0029	0.0048	-13.8296	35.0544	20.0528	0.2009	-0.2196	0.7595	-0.5786
3.72	-0.4829	-9.1428	-2.3503	0.0186	-0.0080	0.0118	-13.7467	35.2382	20.1466	0.2009	-0.2196	0.7594	-0.5785
3.73	-0.4806	-9.1464	-2.3500	0.0245	-0.0035	0.0073	-13.5263	35.3687	20.0569	0.2009	-0.2196	0.7594	-0.5785
3.74	-0.4774	-9.1421	-2.3581	0.0173	-0.0083	0.0093	-13.6483	35.2803	19.8591	0.2009	-0.2196	0.7594	-0.5785
3.75	-0.4752	-9.1443	-2.3544	0.0247	-0.0057	0.0186	-13.6740	35.3350	20.0595	0.2009	-0.2196	0.7594	-0.5785
3.76	-0.4767	-9.1500	-2.3622	0.0220	-0.0114	0.0123	-13.5679	35.1618	20.0499	0.2010	-0.2196	0.7595	-0.5785
3.77	-0.4786	-9.1514	-2.3662	0.0228	-0.0137	0.0186	-13.5828	34.9548	19.8535	0.2010	-0.2196	0.7594	-0.5785
3.78	-0.4834	-9.1450	-2.3672	0.0218	-0.0116	0.0188	-13.3601	35.0784	19.9200	0.2011	-0.2196	0.7595	-0.5785
3.79	-0.4871	-9.1451	-2.3663	0.0187	-0.0064	0.0132	-13.3231	34.8818	19.9038	0.2011	-0.2196	0.7594	-0.5784
3.8	-0.4930	-9.1493	-2.3648	0.0241	-0.0101	0.0135	-13.4588	35.1186	19.8694	0.2011	-0.2196	0.7594	-0.5785
3.81	-0.4978	-9.1501	-2.3689	0.0218	-0.0115	0.0157	-13.5233	35.1393	19.9683	0.2011	-0.2196	0.7594	-0.5784
3.82	-0.4993	-9.1499	-2.3601	0.0234	-0.0079	0.0146	-13.4630	34.8852	19.9214	0.2012	-0.2196	0.7594	-0.5784
3.83	-0.4959	-9.1466	-2.3642	0.0171	-0.0083	0.0155	-13.7064	35.0478	19.8842	0.2012	-0.2196	0.7595	-0.5784
3.84	-0.4952	-9.1459	-2.3603	0.0189	-0.0092	0.0158	-13.4809	35.2398	20.1547	0.2012	-0.2196	0.7594	-0.5784
3.85	-0.5007	-9.1470	-2.3687	0.0244	-0.0119	0.0160	-13.6407	35.2633	20.1593	0.2013	-0.2196	0.7595	-0.5784
3.86	-0.4942	-9.1499	-2.3733	0.0204	-0.0061	0.0134	-13.6168	35.3236	20.0575	0.2012	-0.2195	0.7594	-0.5783
3.87	-0.4906	-9.1429	-2.3642	0.0223	-0.0051	0.0087	-13.4675	35.3781	20.1658	0.2013	-0.2196	0.7595	-0.5784
3.88	-0.4816	-9.1415	-2.3669	0.0216	-0.0067	0.0134	-13.6923	35.4462	19.9709	0.2013	-0.2195	0.7594	-0.5784
3.89	-0.4723	-9.1461	-2.3707	0.0233	-0.0023	0.0113	-13.8325	35.3712	20.0330	0.2013	-0.2195	0.7595	-0.5784
3.9	-0.4670	-9.1516	-2.3727	0.0256	-0.0035	0.0132	-13.8292	35.2230	20.0933	0.2013	-0.2195	0.7594	-0.5784
3.91	-0.4668	-9.1466	-2.3723	0.0196	-0.0044	0.0122	-13.8168	34.9605	19.9007	0.2013	-0.2195	0.7594	-0.5784
3.92	-0.4708	-9.1538	-2.3737	0.0250	-0.0062	0.0171	-13.4756	35.4328	19.9553	0.2013	-0.2195	0.7595	-0.5784
3.93	-0.4787	-9.1494	-2.3764	0.0233	-0.0058	0.0136	-13.6839	35.3600	20.2909	0.2013	-0.2195	0.7594	-0.5784
3.94	-0.4838	-9.1455	-2.3794	0.0195	-0.0084	0.0136	-13.6359	35.3303	19.9902	0.2013	-0.2195	0.7595	-0.5784
3.95	-0.4921	-9.1463	-2.3883	0.0283	-0.0130	0.0188	-13.4586	35.0894	20.0057	0.2014	-0.2195	0.7594	-0.5784
3.96	-0.4882	-9.1528	-2.3871	0.0266	-0.0112	0.0167	-13.5234	35.1618	19.8911	0.2014	-0.2195	0.7595	-0.5785
3.97	-0.4765	-9.1496	-2.3835	0.0254	-0.0061	0.0153	-13.4945	35.1942	19.9784	0.2014	-0.2194	0.7594	-0.5784
3.98	-0.4718	-9.1511	-2.3769	0.0261	-0.0078	0.0083	-13.5049	35.2764	20.0917	0.2014	-0.2195	0.7594	-0.5784
3.99	-0.4653	-9.1512	-2.3744	0.0253	-0.0132	0.0124	-13.5348	35.2536	20.0394	0.2015	-0.2195	0.7594	-0.5785
4	-0.4647	-9.1485	-2.3686	0.0272	-0.0108	0.0144	-13.6684	35.2739	19.7834	0.2015	-0.2195	0.7593	-0.5784
4.01	-0.4716	-9.1434	-2.3623	0.0260	-0.0083	0.0173	-13.6647	35.1657	19.9242	0.2015	-0.2195	0.7594	-0.5785
4.02	-0.4796	-9.1422	-2.3528	0.0255	-0.0064	0.0104	-13.5225	35.1839	20.1219	0.2015	-0.2194	0.7593	-0.5785
4.03	-0.4797	-9.1497	-2.3486	0.0267	-0.0077	0.0162	-13.5352	34.9731	20.0379	0.2016	-0.2194	0.7594	-0.5785
4.04	-0.4872	-9.1490	-2.3402	0.0254	-0.0038	0.0131	-13.6980	35.1971	20.1765	0.2016	-0.2194	0.7593	-0.5785
4.05	-0.4935	-9.1474	-2.3327	0.0256	-0.0036	0.0123	-13.7485	35.3483	20.2352	0.2016	-0.2194	0.7593	-0.5785
4.06	-0.4913	-9.1504	-2.3294	0.0238	-0.0052	0.0158	-13.6270	35.2270	20.1000	0.2016	-0.2194	0.7593	-0.5785
4.07	-0.4893	-9.1516	-2.3289	0.0273	-0.0010	0.0120	-13.7696	35.2767	20.2577	0.2016	-0.2194	0.7593	-0.5785
4.08	-0.4897	-9.1491	-2.3306	0.0240	-0.0029	0.0125	-13.6541	35.1628	20.1230	0.2016	-0.2194	0.7593	-0.5786
4.09	-0.4765	-9.1472	-2.3328	0.0251	-0.0062	0.0151	-13.5502	35.1820	20.2008	0.2016	-0.2193	0.7593	-0.5786
4.1	-0.4703	-9.1457	-2.3347	0.0204	-0.0042	0.0131	-13.6565	35.4106	20.0120	0.2016	-0.2193	0.7593	-0.5786
4.11	-0.4674	-9.1479	-2.3306	0.0241	-0.0067	0.0093	-13.6611	35.3740	19.9317	0.2016	-0.2193	0.7592	-0.5785
4.12	-0.4689	-9.1488	-2.3328	0.0180	-0.0050	0.0105	-13.7698	35.1045	20.2146	0.2016	-0.2193	0.7593	-0.5786
4.13	-0.4768	-9.1499	-2.3321	0.0191	-0.0078	0.0141	-13.5670	35.2442	19.9317	0.2016	-0.2193	0.7593	-0.5785
4.14	-0.4830	-9.1527	-2.3440	0.0271	-0.0084	0.0169	-13.4277	35.0670	19.8772	0.2016	-0.2193	0.7593	-0.5786
4.15	-0.4919	-9.1454	-2.3519	0.0239	-0.0076	0.0105	-13.2611	35.1737	19.9995	0.2016	-0.2193	0.7593	-0.5786
4.16	-0.4855	-9.1423	-2.3539	0.0251	-0.0081	0.0110	-13.0000	34.9618	20.1169	0.2016	-0.2193	0.7593	-0.5786
4.17	-0.4825	-9.1469	-2.3593	0.0256	-0.0093	0.0185	-12.8978	34.9737	20.2034	0.2017	-0.2193	0.7593	-0.5786
4.18	-0.4755	-9.1500	-2.3622	0.0242	-0.0051	0.0120	-13.6466	35.7645	20.0236	0.2017	-0.2193	0.7592	-0.5785
4.19	-0.4664	-9.1465	-2.3671	0.0226	-0.0091	0.0118	-13.5650	36.2988	20.0014	0.2017	-0.2193	0.7593	-0.5786
4.2	-0.4666	-9.1407	-2.3587	0.0211	-0.0080	0.0126	-13.4295	35.4258	20.0301	0.2017	-0.2193	0.7592	-0.5786
4.21	-0.4620	-9.1537	-2.3687	0.0233	-0.0086	0.0097	-13.5738	35.2771	19.8553	0.2017	-0.2193	0.7593	-0.5786
4.22	-0.4551	-9.1518	-2.3668	0.0213	-0.0069	0.0091	-13.3889	35.2025	19.9859	0.2017	-0.2193	0.7592	-0.5786
4.23	-0.4608	-9.1509	-2.3675	0.0151	-0.0055	0.0114	-13.5936	34.9606	20.0657	0.2017	-0.2193	0.7593	-0.5786
4.24	-0.4644	-9.1461	-2.3681	0.0161	-0.0085	0.0095	-13.5727	35.3658	19.8795	0.2017	-0.2194	0.7593	-0.5785
4.25	-0.4731	-9.1409	-2.3554	0.0222	-0.0008	0.0080	-13.6869	35.3211	19.8754	0.2017	-0.2193	0.7592	-0.5785
4.26	-0.4782	-9.1423	-2.3612	0.0208	0.0010	0.0113	-13.6527	35.3452	19.8718	0.2017	-0.2194	0.7593	-0.5786
4.27	-0.4840	-9.1508	-2.3568	0.0201	0.0044	0.0086	-13.6061	35.3348	20.0289	0.2016	-0.2193	0.7593	-0.5785
4.28	-0.4840	-9.1492	-2.3625	0.0189	0.0014	0.0057	-13.5351	35.3414	20.2707	0.2016	-0.2193	0.7593	-0.5786
4.29	-0.4823	-9.1450	-2.3575	0.0173	-0.0073	0.0081	-13.5961	35.3495	20.1070	0.2015	-0.2193	0.7592	-0.5785
4.3	-0.4798	-9.1534	-2.3620	0.0216	-0.0003	0.0068	-13.6895	35.3135	20.0594	0.2015	-0.2194	0.7593	-0.5786
4.31	-0.4729	-9.1505	-2.3607	0.0259	-0.0093	0.0102	-13.5596	35.2356	19.9971	0.2015	-0.2194	0.7593	-0.5786
4.32	-0.4798	-9.1472	-2.3531	0.0253	-0.0067	0.0137	-13.6363	35.2746	19.9598	0.2016	-0.2193	0.7593	-0.5786
4.33	-0.4788	-9.1527	-2.3577	0.0184	-0.0076	0.0072	-13.4763	35.1617	19.9613	0.2016	-0.2194	0.7593	-0.5786
4.34	-0.4779	-9.1525	-2.3637	0.0210	-0.0072	0.0101	-13.4454	35.1897	19.7435	0.2016	-0.2194	0.7593	-0.5786
4.35	-0.4809	-9.1526	-2.3647	0.0217	-0.0067	0.0110	-13.5874	35.1689	19.8246	0.2016	-0.2194	0.7593	-0.5786
4.36	-0.4848	-9.1530	-2.3682	0.0182	-0.0057	0.0065	-13.6114	35.1847	19.7584	0.2015	-0.2194	0.7592	-0.5785
4.37	-0.4844	-9.1495	-2.3739	0.0205	-0.0068	0.0098	-13.4778	35.1568	20.0498	0.2015	-0.2194	0.7593	-0.5786
4.38	-0.4878	-9.1414	-2.3727	0.0246	-0.0062	0.0116	-13.5961	35.2168	19.8743	0.2015	-0.2194	0.7593	-0.5785
4.39	-0.4921	-9.1438	-2.3705	0.0237	-0.0091	0.0118	-13.7326	35.2764	19.9507	0.2016	-0.2194	0.7593	-0.5786
4.4	-0.4872	-9.1446	-2.3744	0.0248	-0.0059	0.0090	-13.4710	35.1592	19.9616	0.2016	-0.2194	0.7592	-0.5786
4.41	-0.4865	-9.1481	-2.3691	0.0232	-0.0049	0.0076	-13.4479	35.1890	20.1224	0.2016	-0.2194	0.7593	-0.5786
4.42	-0.4855	-9.1493	-2.3667	0.0220	-0.0037	0.0093	-13.5850	35.1748	19.9115	0.2015	-0.2195	0.7593	-0.5786
4.43	-0.4780	-9.1480	-2.3570	0.0242	-0.0072	0.0063	-13.6073	35.1657	19.9361	0.2015	-0.2195	0.7592	-0.5786
4.44	-0.4757	-9.1476	-2.3476	0.0195	-0.0048	0.0158	-13.4948	35.3748	20.0866	0.2015	-0.2195	0.7593	-0.5786
4.45	-0.4726	-9.1433	-2.3489	0.0264	-0.0039	0.0131	-13.5425	35.3082	19.8911	0.2015	-0.2194	0.7592	-0.5786
4.46	-0.4719	-9.1428	-2.3419	0.0252	0.0026	0.0025	-13.4699	35.1764	20.0885	0.2015	-0.2195	0.7593	-0.5787
4.47	-0.4738	-9.1474	-2.3407	0.0264	-0.0006	0.0091	-13.7324	35.1618	19.9367	0.2015	-0.2194	0.7592	-0.5786
4.48	-0.4800	-9.1500	-2.3323	0.0260	-0.0046	0.0080	-13.5988	35.4011	19.9934	0.2015	-0.2194	0.7592	-0.5787
4.49	-0.4815	-9.1452	-2.3234	0.0214	-0.0022	0.0084	-13.5381	35.4425	20.0675	0.2014	-0.2194	0.7592	-0.5787
4.5	-0.4810	-9.1475	-2.3222	0.0218	-0.0126	0.0172	-13.6417	35.3529	20.0354	0.2015	-0.2194	0.7592	-0.5786
4.51	-0.4846	-9.1503	-2.3316	0.0249	-0.0105	0.0095	-13.3991	35.2280	20.0616	0.2015	-0.2195	0.7593	-0.5787
4.52	-0.4846	-9.1537	-2.3272	0.0231	-0.0052	0.0121	-13.7087	35.3020	19.9021	0.2015	-0.2195	0.7592	-0.5787
4.53	-0.4814	-9.1463	-2.3307	0.0169	-0.0077	0.0114	-13.4167	35.3363	19.8583	0.2015	-0.2195	0.7592	-0.5787
4.54	-0.4764	-9.1510	-2.3362	0.0187	-0.0025	0.0068	-13.5290	35.0434	19.9814	0.2015	-0.2195	0.7591	-0.5786
4.55	-0.4727	-9.1533	-2.3366	0.0198	-0.0019	0.0143	-13.5976	35.2435	20.0662	0.2015	-0.2195	0.7592	-0.5787
4.56	-0.4661	-9.1466	-2.3474	0.0203	-0.0082	0.0085	-13.4906	35.3753	20.0433	0.2015	-0.2195	0.7592	-0.5786
4.57	-0.4618	-9.1491	-2.3502	0.0259	-0.0058	0.0088	-13.5492	35.3212	20.0533	0.2015	-0.2195	0.7592	-0.5786
4.58	-0.4600	-9.1468	-2.3591	0.0216	-0.0067	0.0140	-13.4144	35.3599	20.0666	0.2015	-0.2195	0.7592	-0.5787
4.59	-0.4550	-9.1472	-2.3661	0.0244	-0.0042	0.0126	-13.4588	35.1942	19.8986	0.2015	-0.2195	0.7592	-0.5787
4.6	-0.4511	-9.1501	-2.3725	0.0193	-0.0012	0.0149	-13.4090	35.2064	19.9222	0.2015	-0.2194	0.7592	-0.5787
4.61	-0.4460	-9.1502	-2.3840	0.0181	-0.0008	0.0124	-13.5354	35.3780	20.0557	0.2014	-0.2194	0.7592	-0.5786
4.62	-0.4483	-9.1425	-2.3784	0.0236	-0.0082	0.0125	-13.5941	35.2051	20.1674	0.2015	-0.2194	0.7593	-0.5787
4.63	-0.4556	-9.1426	-2.3825	0.0227	-0.0027	0.0094	-13.6417	35.1811	19.9423	0.2015	-0.2194	0.7592	-0.5787
4.64	-0.4623	-9.1466	-2.3884	0.0214	-0.0044	0.0111	-13.6724	35.1357	20.1057	0.2015	-0.2194	0.7592	-0.5787
4.65	-0.4676	-9.1424	-2.3940	0.0212	0.0011	0.0113	-13.2402	35.3228	20.2505	0.2014	-0.2194	0.7592	-0.5786
4.66	-0.4781	-9.1421	-2.3925	0.0261	0.0024	0.0132	-13.0561	35.2794	20.2469	0.2014	-0.2194	0.7592	-0.5787
4.67	-0.4836	-9.1457	-2.3961	0.0255	-0.0047	0.0094	-13.0096	35.2418	20.3664	0.2014	-0.2194	0.7592	-0.5787
4.68	-0.4785	-9.1467	-2.3943	0.0260	-0.0038	0.0113	-13.3653	35.8337	20.2465	0.2014	-0.2193	0.7592	-0.5787
4.69	-0.4738	-9.1425	-2.3855	0.0254	-0.0039	0.0185	-13.4849	36.3166	20.0504	0.2014	-0.2193	0.7593	-0.5788
4.7	-0.4725	-9.1464	-2.3755	0.0236	-0.0096	0.0129	-13.4106	35.2434	19.9331	0.2014	-0.2193	0.7592	-0.5787
4.71	-0.4795	-9.1476	-2.3714	0.0232	-0.0048	0.0169	-13.5308	35.0270	20.0498	0.2015	-0.2193	0.7593	-0.5788
4.72	-0.4828	-9.1459	-2.3701	0.0186	-0.0003	0.0116	-13.4562	35.1978	20.1844	0.2014	-0.2193	0.7592	-0.5787
4.73	-0.4890	-9.1449	-2.3590	0.0267	-0.0107	0.0146	-13.3411	35.1919	20.1279	0.2015	-0.2193	0.7592	-0.5787
4.74	-0.4975	-9.1458	-2.3475	0.0275	-0.0102	0.0149	-13.4190	35.2604	20.2427	0.2015	-0.2193	0.7592	-0.5787
4.75	-0.5018	-9.1454	-2.3413	0.0247	-0.0083	0.0169	-13.5344	35.1231	20.1212	0.2015	-0.2193	0.7591	-0.5787
4.76	-0.5080	-9.1481	-2.3312	0.0286	-0.0053	0.0126	-13.5217	35.0699	19.7334	0.2016	-0.2193	0.7592	-0.5788
4.77	-0.5100	-9.1430	-2.3300	0.0284	-0.0102	0.0085	-13.6671	35.0025	20.1503	0.2016	-0.2193	0.7591	-0.5788
4.78	-0.5075	-9.1443	-2.3241	0.0199	-0.0122	0.0153	-13.6880	34.9812	19.8738	0.2016	-0.2193	0.7592	-0.5788
4.79	-0.4990	-9.1497	-2.3274	0.0172	-0.0098	0.0135	-13.6943	35.3120	20.0758	0.2016	-0.2193	0.7591	-0.5787
4.8	-0.4921	-9.1454	-2.3252	0.0190	-0.0056	0.0061	-13.5817	35.3075	20.1400	0.2016	-0.2193	0.7592	-0.5788
4.81	-0.4858	-9.1447	-2.3324	0.0262	-0.0068	0.0089	-13.4996	35.2706	20.0768	0.2016	-0.2193	0.7591	-0.5788
4.82	-0.4811	-9.1465	-2.3316	0.0226	-0.0012	0.0099	-13.5714	35.3877	20.1978	0.2016	-0.2193	0.7591	-0.5788
4.83	-0.4874	-9.1473	-2.3321	0.0224	-0.0041	0.0135	-13.3997	35.3613	20.0241	0.2016	-0.2193	0.7592	-0.5788
4.84	-0.4922	-9.1485	-2.3460	0.0210	-0.0078	0.0157	-13.5322	35.2047	20.1103	0.2016	-0.2193	0.7591	-0.5788
4.85	-0.4907	-9.1423	-2.3505	0.0127	-0.0035	0.0128	-13.6316	35.3637	20.1733	0.2016	-0.2193	0.7592	-0.5787
4.86	-0.4919	-9.1416	-2.3672	0.0213	-0.0074	0.0119	-13.6108	35.4762	20.0495	0.2016	-0.2193	0.7591	-0.5787
4.87	-0.4829	-9.1445	-2.3743	0.0235	-0.0084	0.0134	-13.5855	35.3252	20.0754	0.2016	-0.2193	0.7592	-0.5787
4.88	-0.4777	-9.1470	-2.3808	0.0170	-0.0072	0.0111	-13.3984	35.1911	20.0525	0.2016	-0.2193	0.7592	-0.5787
4.89	-0.4646	-9.1491	-2.3857	0.0207	-0.0066	0.0079	-13.4799	35.1759	19.8652	0.2016	-0.2193	0.7592	-0.5787
4.9	-0.4578	-9.1498	-2.3913	0.0242	-0.0065	0.0150	-13.3316	35.0242	20.0927	0.2016	-0.2193	0.7592	-0.5787
4.91	-0.4511	-9.1484	-2.3977	0.0201	-0.0094	0.0098	-13.5211	35.1891	20.3210	0.2016	-0.2193	0.7592	-0.5787
4.92	-0.4508	-9.1454	-2.3930	0.0259	-0.0123	0.0090	-13.4959	35.2383	19.9222	0.2017	-0.2193	0.7592	-0.5787
4.93	-0.4540	-9.1435	-2.3960	0.0199	-0.0074	0.0116	-13.3312	35.1400	19.8809	0.2016	-0.2193	0.7591	-0.5787
4.94	-0.4597	-9.1466	-2.3990	0.0196	-0.0066	0.0146	-13.4939	35.1241	20.0910	0.2017	-0.2194	0.7592	-0.5787
4.95	-0.4652	-9.1429	-2.3884	0.0261	-0.0076	0.0160	-13.5246	35.4423	19.9558	0.2017	-0.2193	0.7592	-0.5787
4.96	-0.4721	-9.1437	-2.3784	0.0252	-0.0107	0.0154	-13.3515	35.4318	20.1903	0.2017	-0.2193	0.7592	-0.5787
4.97	-0.4785	-9.1471	-2.3750	0.0251	-0.0131	0.0138	-13.4560	35.2019	20.0517	0.2018	-0.2193	0.7591	-0.5787
4.98	-0.4839	-9.1480	-2.3775	0.0232	-0.0043	0.0071	-13.5483	35.0817	20.0703	0.2018	-0.2193	0.7591	-0.5787
4.99	-0.4843	-9.1388	-2.3600	0.0245	-0.0064	0.0084	-13.5052	35.2514	19.9098	0.2017	-0.2194	0.7591	-0.5787
5	-0.4802	-9.1462	-2.3598	0.0234	-0.0065	0.0075	-13.5628	35.3089	20.1739	0.2017	-0.2194	0.7591	-0.5787
5.01	-0.4799	-9.1566	-2.3675	0.0253	-0.0058	0.0056	-13.4095	35.3038	20.1314	0.2017	-0.2194	0.7592	-0.5788
5.02	-0.4742	-9.1483	-2.3592	0.0253	-0.0071	0.0118	-13.3962	35.2678	20.0859	0.2017	-0.2194	0.7591	-0.5787
5.03	-0.4711	-9.1474	-2.3618	0.0229	-0.0082	0.0102	-13.6901	35.4194	20.1881	0.2018	-0.2194	0.7591	-0.5788
5.04	-0.4710	-9.1502	-2.3608	0.0232	-0.0084	0.0074	-13.7057	35.4776	20.1108	0.2017	-0.2194	0.7590	-0.5787
5.05	-0.4701	-9.1458	-2.3546	0.0237	-0.0050	0.0123	-13.6703	35.4445	20.1804	0.2018	-0.2194	0.7591	-0.5788
5.06	-0.4712	-9.1437	-2.3510	0.0243	-0.0140	0.0117	-13.4336	35.2923	20.0932	0.2018	-0.2194	0.7591	-0.5788
5.07	-0.4701	-9.1480	-2.3515	0.0253	-0.0081	0.0117	-13.4760	35.1170	20.0530	0.2018	-0.2194	0.7590	-0.5788
5.08	-0.4729	-9.1493	-2.3541	0.0281	-0.0071	0.0094	-13.2508	35.0672	20.1826	0.2018	-0.2194	0.7590	-0.5788
5.09	-0.4785	-9.1518	-2.3508	0.0229	-0.0049	0.0124	-13.2052	35.1636	20.0279	0.2018	-0.2194	0.7590	-0.5788
5.1	-0.4813	-9.1499	-2.3593	0.0215	-0.0064	0.0120	-13.3807	35.3125	19.9242	0.2018	-0.2194	0.7590	-0.5788
5.11	-0.4827	-9.1476	-2.3537	0.0261	-0.0085	0.0058	-13.2840	35.2269	19.8497	0.2018	-0.2194	0.7589	-0.5788
5.12	-0.4860	-9.1452	-2.3542	0.0257	-0.0086	0.0099	-13.2849	35.0182	20.1713	0.2018	-0.2195	0.7590	-0.5788
5.13	-0.4846	-9.1409	-2.3449	0.0236	-0.0104	0.0131	-13.4543	35.3699	20.0756	0.2018	-0.2195	0.7590	-0.5788
5.14	-0.4851	-9.1467	-2.3493	0.0211	-0.0042	0.0137	-13.4035	35.1171	20.1358	0.2019	-0.2195	0.7590	-0.5788
5.15	-0.4801	-9.1449	-2.3577	0.0233	-0.0043	0.0085	-13.1321	35.1701	20.2442	0.2018	-0.2195	0.7590	-0.5788
5.16	-0.4790	-9.1463	-2.3495	0.0207	-0.0072	0.0123	-12.8568	35.3161	20.3077	0.2018	-0.2195	0.7590	-0.5788
5.17	-0.4837	-9.1465	-2.3551	0.0245	0.0015	0.0084	-12.8176	35.2374	20.2647	0.2018	-0.2195	0.7590	-0.5788
5.18	-0.4843	-9.1463	-2.3526	0.0247	-0.0042	0.0038	-13.3112	35.6774	20.0029	0.2018	-0.2195	0.7589	-0.5788
5.19	-0.4798	-9.1450	-2.3544	0.0215	-0.0080	0.0079	-13.3607	36.2293	20.3253	0.2018	-0.2195	0.7590	-0.5789
5.2	-0.4849	-9.1439	-2.3638	0.0227	-0.0057	0.0049	-13.4811	35.4814	19.9826	0.2018	-0.2195	0.7589	-0.5789
5.21	-0.4918	-9.1474	-2.3687	0.0234	-0.0045	0.0101	-13.3461	35.1689	20.1986	0.2018	-0.2196	0.7590	-0.5789
5.22	-0.4924	-9.1431	-2.3642	0.0194	-0.0040	0.0068	-13.3718	35.3229	19.9281	0.2017	-0.2195	0.7589	-0.5788
5.23	-0.4983	-9.1443	-2.3575	0.0195	-0.0066	0.0059	-13.2996	35.0943	20.1536	0.2017	-0.2196	0.7590	-0.5789
5.24	-0.4920	-9.1411	-2.3555	0.0205	-0.0065	0.0101	-13.3416	35.1203	20.0538	0.2017	-0.2196	0.7590	-0.5789
5.25	-0.4939	-9.1449	-2.3584	0.0203	-0.0087	0.0148	-13.5506	35.3405	19.9193	0.2017	-0.2196	0.7589	-0.5788
5.26	-0.4915	-9.1474	-2.3527	0.0273	-0.0086	0.0147	-13.4072	35.2512	20.1020	0.2018	-0.2196	0.7590	-0.5789
5.27	-0.4850	-9.1474	-2.3540	0.0245	-0.0141	0.0129	-13.3101	35.1345	20.1679	0.2018	-0.2196	0.7589	-0.5789
5.28	-0.4760	-9.1509	-2.3613	0.0251	-0.0042	0.0092	-13.2514	35.2718	19.8917	0.2018	-0.2196	0.7590	-0.5789
5.29	-0.4749	-9.1483	-2.3603	0.0125	-0.0057	0.0055	-13.2792	35.2463	19.9726	0.2018	-0.2196	0.7589	-0.5788
5.3	-0.4689	-9.1443	-2.3505	0.0163	-0.0056	0.0082	-13.2684	35.2883	19.9623	0.2018	-0.2196	0.7590	-0.5788
5.31	-0.4678	-9.1485	-2.3582	0.0236	-0.0043	0.0124	-13.2705	35.1903	20.0299	0.2018	-0.2196	0.7590	-0.5788
5.32	-0.4629	-9.1468	-2.3630	0.0208	-0.0096	0.0060	-13.2717	35.2435	20.0437	0.2018	-0.2197	0.7589	-0.5788
5.33	-0.4678	-9.1470	-2.3661	0.0151	-0.0080	0.0070	-13.2502	35.2755	19.7235	0.2018	-0.2197	0.7590	-0.5788
5.34	-0.4784	-9.1478	-2.3656	0.0212	-0.0040	0.0134	-13.1671	35.1393	19.9060	0.2017	-0.2197	0.7590	-0.5788
5.35	-0.4809	-9.1484	-2.3694	0.0262	-0.0008	0.0122	-13.4064	35.2352	19.9955	0.2017	-0.2197	0.7590	-0.5788
5.36	-0.4815	-9.1462	-2.3667	0.0214	-0.0014	0.0033	-13.4615	35.3444	19.9779	0.2017	-0.2197	0.7589	-0.5788
5.37	-0.4817	-9.1476	-2.3710	0.0191	0.0030	0.0125	-13.2897	35.3397	19.8370	0.2017	-0.2197	0.7590	-0.5788
5.38	-0.4709	-9.1505	-2.3819	0.0207	-0.0061	0.0077	-13.3014	35.0558	19.9979	0.2016	-0.2197	0.7590	-0.5788
5.39	-0.4622	-9.1452	-2.3822	0.0224	-0.0017	0.0078	-13.3856	35.2445	20.0911	0.2016	-0.2197	0.7590	-0.5788
5.4	-0.4559	-9.1463	-2.3753	0.0206	-0.0006	0.0091	-13.2435	35.2787	20.0561	0.2016	-0.2197	0.7590	-0.5788
5.41	-0.4560	-9.1508	-2.3774	0.0198	-0.0048	0.0063	-13.4108	35.2466	20.0445	0.2016	-0.2197	0.7590	-0.5788
5.42	-0.4590	-9.1467	-2.3719	0.0257	-0.0041	0.0086	-13.2366	35.4606	19.9233	0.2016	-0.2197	0.7590	-0.5789
5.43	-0.4662	-9.1412	-2.3597	0.0203	-0.0041	0.0089	-13.1444	35.3326	20.0696	0.2015	-0.2197	0.7589	-0.5788
5.44	-0.4753	-9.1445	-2.3605	0.0219	-0.0067	0.0122	-13.4292	35.2812	20.0601	0.2016	-0.2197	0.7590	-0.5789
5.45	-0.4815	-9.1452	-2.3537	0.0222	-0.0064	0.0147	-13.2324	35.1877	19.7503	0.2016	-0.2197	0.7590	-0.5788
5.46	-0.4912	-9.1482	-2.3514	0.0216	-0.0059	0.0114	-13.2047	35.0586	20.0029	0.2016	-0.2197	0.7590	-0.5789
5.47	-0.4918	-9.1455	-2.3413	0.0227	-0.0050	0.0091	-13.4836	35.1895	20.2716	0.2016	-0.2197	0.7589	-0.5788
5.48	-0.4916	-9.1516	-2.3444	0.0219	-0.0073	0.0157	-13.1820	35.1885	20.2287	0.2016	-0.2197	0.7590	-0.5788
5.49	-0.4863	-9.1501	-2.3428	0.0261	-0.0108	0.0092	-13.4038	35.3034	20.2226	0.2016	-0.2197	0.7590	-0.5789
5.5	-0.4804	-9.1469	-2.3405	0.0251	-0.0048	0.0139	-13.4341	35.1660	19.9533	0.2016	-0.2197	0.7589	-0.5788
5.51	-0.4781	-9.1512	-2.3367	0.0263	-0.0054	0.0118	-13.4332	35.1748	19.9808	0.2016	-0.2197	0.7590	-0.5789
5.52	-0.4737	-9.1488	-2.3415	0.0201	-0.0084	0.0107	-13.2777	35.3316	19.9670	0.2016	-0.2197	0.7589	-0.5789
5.53	-0.4801	-9.1488	-2.3332	0.0236	-0.0099	0.0175	-13.1335	35.3105	20.2351	0.2017	-0.2197	0.7590	-0.5789
5.54	-0.4892	-9.1450	-2.3375	0.0249	-0.0052	0.0147	-13.3197	35.1395	20.1620	0.2017	-0.2196	0.7589	-0.5788
5.55	-0.4938	-9.1501	-2.3422	0.0194	-0.0020	0.0054	-13.2093	35.4275	20.1334	0.2016	-0.2197	0.7590	-0.5789
5.56	-0.4947	-9.1429	-2.3431	0.0122	-0.0079	0.0073	-13.1000	35.3905	20.1657	0.2016	-0.2197	0.7590	-0.5788
5.57	-0.4933	-9.1445	-2.3593	0.0204	-0.0051	0.0066	-13.3606	35.2696	20.1322	0.2016	-0.2197	0.7590	-0.5788
5.58	-0.4884	-9.1459	-2.3634	0.0209	0.0006	0.0072	-13.3686	35.1610	20.0902	0.2016	-0.2197	0.7590	-0.5788
5.59	-0.4774	-9.1531	-2.3684	0.0146	0.0016	0.0086	-13.3079	35.2032	19.9923	0.2015	-0.2197	0.7590	-0.5788
5.6	-0.4710	-9.1473	-2.3690	0.0230	-0.0005	0.0129	-13.2538	35.1084	19.8341	0.2015	-0.2197	0.7590	-0.5788
5.61	-0.4588	-9.1449	-2.3692	0.0205	-0.0042	0.0121	-13.2435	35.1033	20.0612	0.2015	-0.2197	0.7589	-0.5788
5.62	-0.4663	-9.1532	-2.3823	0.0209	-0.0062	0.0038	-13.5094	35.0706	20.2101	0.2015	-0.2197	0.7590	-0.5788
5.63	-0.4694	-9.1447	-2.3759	0.0239	-0.0106	0.0148	-13.4354	35.1471	20.0238	0.2015	-0.2197	0.7590	-0.5788
5.64	-0.4716	-9.1472	-2.3790	0.0260	-0.0091	0.0103	-13.2785	35.1749	20.0161	0.2015	-0.2197	0.7590	-0.5788
5.65	-0.4755	-9.1528	-2.3791	0.0243	-0.0049	0.0105	-13.0261	35.2169	20.2543	0.2015	-0.2197	0.7590	-0.5788
5.66	-0.4775	-9.1479	-2.3789	0.0244	-0.0100	0.0129	-12.8116	35.1111	20.2899	0.2015	-0.2197	0.7590	-0.5788
5.67	-0.4814	-9.1450	-2.3717	0.0257	-0.0105	0.0107	-12.9188	35.0776	20.2708	0.2016	-0.2198	0.7590	-0.5789
5.68	-0.4765	-9.1439	-2.3673	0.0257	-0.0068	0.0104	-13.3330	35.4737	19.9658	0.2016	-0.2197	0.7589	-0.5788
5.69	-0.4758	-9.1482	-2.3666	0.0260	-0.0068	0.0123	-13.4578	36.0779	19.8203	0.2016	-0.2198	0.7590	-0.5789
5.7	-0.4719	-9.1472	-2.3550	0.0209	-0.0094	0.0151	-13.2733	35.4847	19.9788	0.2016	-0.2197	0.7589	-0.5789
5.71	-0.4673	-9.1452	-2.3489	0.0245	-0.0052	0.0170	-13.0947	35.2122	19.8880	0.2016	-0.2197	0.7590	-0.5789
5.72	-0.4699	-9.1564	-2.3445	0.0212	-0.0092	0.0118	-13.2072	35.2548	19.7690	0.2016	-0.2197	0.7589	-0.5788
5.73	-0.4650	-9.1518	-2.3516	0.0166	-0.0030	0.0072	-13.4036	35.2591	20.2248	0.2016	-0.2197	0.7589	-0.5789
5.74	-0.4654	-9.1486	-2.3392	0.0251	-0.0061	0.0135	-13.5218	35.3181	20.2185	0.2016	-0.2197	0.7589	-0.5789
5.75	-0.4684	-9.1485	-2.3455	0.0246	-0.0064	0.0118	-13.4611	35.4723	20.0607	0.2016	-0.2197	0.7589	-0.5788
5.76	-0.4793	-9.1443	-2.3408	0.0207	-0.0058	0.0124	-13.4275	35.2324	20.0889	0.2016	-0.2197	0.7590	-0.5789
5.77	-0.4808	-9.1472	-2.3384	0.0215	-0.0093	0.0146	-13.4415	35.2075	20.0748	0.2017	-0.2197	0.7589	-0.5788
5.78	-0.4833	-9.1490	-2.3414	0.0252	-0.0055	0.0181	-13.2445	35.3728	20.0916	0.2017	-0.2197	0.7590	-0.5789
5.79	-0.4885	-9.1512	-2.3400	0.0187	-0.0021	0.0130	-13.3866	35.3740	20.0572	0.2017	-0.2197	0.7589	-0.5788
5.8	-0.4885	-9.1415	-2.3426	0.0192	-0.0058	0.0158	-13.5275	35.3450	20.2199	0.2017	-0.2197	0.7590	-0.5788
5.81	-0.4849	-9.1432	-2.3404	0.0219	-0.0131	0.0152	-13.2612	35.3894	20.0513	0.2017	-0.2197	0.7590	-0.5788
5.82	-0.4829	-9.1527	-2.3501	0.0219	-0.0123	0.0110	-13.3042	35.0521	19.9683	0.2017	-0.2197	0.7589	-0.5788
5.83	-0.4832	-9.1512	-2.3622	0.0118	-0.0063	0.0095	-13.0985	35.3868	20.0210	0.2017	-0.2197	0.7590	-0.5788
5.84	-0.4748	-9.1455	-2.3491	0.0220	-0.0090	0.0089	-13.1198	35.2322	19.8526	0.2017	-0.2197	0.7590	-0.5788
5.85	-0.4739	-9.1476	-2.3593	0.0212	-0.0053	0.0097	-13.1418	34.9997	20.0137	0.2017	-0.2198	0.7590	-0.5788
5.86	-0.4774	-9.1446	-2.3617	0.0228	-0.0083	0.0108	-13.3768	35.3286	19.9814	0.2017	-0.2197	0.7589	-0.5787
5.87	-0.4762	-9.1472	-2.3617	0.0213	-0.0028	0.0081	-13.3472	35.1757	19.9204	0.2017	-0.2198	0.7590	-0.5788
5.88	-0.4820	-9.1483	-2.3674	0.0205	-0.0013	0.0119	-13.3688	35.1787	19.8548	0.2017	-0.2197	0.7590	-0.5788
5.89	-0.4868	-9.1513	-2.3748	0.0219	-0.0086	0.0121	-13.3045	35.0863	19.8603	0.2017	-0.2198	0.7590	-0.5788
5.9	-0.4910	-9.1460	-2.3682	0.0221	-0.0062	0.0069	-13.1696	35.2212	20.1197	0.2017	-0.2198	0.7590	-0.5787
5.91	-0.4926	-9.1503	-2.3794	0.0227	-0.0077	0.0072	-13.3548	35.0875	20.0927	0.2017	-0.2198	0.7590	-0.5788
5.92	-0.4900	-9.1467	-2.3706	0.0211	-0.0081	0.0121	-13.5212	35.1399	20.2272	0.2017	-0.2198	0.7590	-0.5788
5.93	-0.4837	-9.1411	-2.3693	0.0159	-0.0022	0.0168	-13.5320	35.3768	20.0414	0.2017	-0.2198	0.7589	-0.5787
5.94	-0.4817	-9.1448	-2.3636	0.0146	-0.0023	0.0121	-13.4126	35.4338	20.1142	0.2017	-0.2198	0.7591	-0.5787
5.95	-0.4828	-9.1484	-2.3679	0.0184	-0.0041	0.0117	-13.3518	35.3563	20.1482	0.2017	-0.2198	0.7590	-0.5787
5.96	-0.4823	-9.1530	-2.3671	0.0131	-0.0084	0.0109	-13.3607	35.3471	19.9944	0.2017	-0.2198	0.7591	-0.5787
5.97	-0.4813	-9.1474	-2.3666	0.0240	-0.0074	0.0094	-13.3594	35.4940	19.9767	0.2017	-0.2198	0.7590	-0.5786
5.98	-0.4795	-9.1439	-2.3656	0.0239	-0.0043	0.0132	-13.4541	35.2399	19.9070	0.2017	-0.2198	0.7591	-0.5787
5.99	-0.4742	-9.1475	-2.3700	0.0227	-0.0050	0.0096	-13.4402	35.2932	20.2238	0.2017	-0.2198	0.7591	-0.5787
6	-0.4686	-9.1533	-2.3657	0.0243	-0.0072	0.0162	-13.4589	35.3400	19.9961	0.2017	-0.2198	0.7590	-0.5786
6.01	-0.4693	-9.1527	-2.3639	0.0194	-0.0116	0.0128	-13.2444	34.9978	19.9005	0.2017	-0.2198	0.7591	-0.5787
6.02	-0.4678	-9.1518	-2.3648	0.0201	-0.0062	0.0121	-13.2884	35.0240	20.0714	0.2017	-0.2198	0.7590	-0.5786
6.03	-0.4713	-9.1532	-2.3613	0.0272	-0.0087	0.0161	-13.2664	35.1583	20.0960	0.2018	-0.2198	0.7591	-0.5787
6.04	-0.4719	-9.1452	-2.3567	0.0246	-0.0056	0.0122	-13.3598	35.2208	20.0751	0.2017	-0.2198	0.7590	-0.5786
6.05	-0.4775	-9.1451	-2.3579	0.0264	-0.0021	0.0111	-13.3720	35.0931	20.0900	0.2017	-0.2198	0.7590	-0.5787
6.06	-0.4762	-9.1518	-2.3664	0.0215	-0.0095	0.0174	-13.4857	35.2591	19.7222	0.2018	-0.2197	0.7590	-0.5787
6.07	-0.4730	-9.1495	-2.3668	0.0232	-0.0063	0.0092	-13.2844	35.0972	19.8581	0.2018	-0.2197	0.7590	-0.5787
6.08	-0.4681	-9.1487	-2.3651	0.0216	-0.0052	0.0152	-13.1820	35.1350	20.1473	0.2018	-0.2197	0.7591	-0.5787
6.09	-0.4639	-9.1511	-2.3658	0.0190	-0.0043	0.0204	-13.2169	35.0921	20.0316	0.2018	-0.2197	0.7590	-0.5786
6.1	-0.4610	-9.1510	-2.3581	0.0242	-0.0084	0.0106	-13.3531	35.0173	19.7862	0.2018	-0.2197	0.7591	-0.5787
6.11	-0.4656	-9.1441	-2.3586	0.0235	-0.0072	0.0136	-13.3478	35.4253	19.9995	0.2018	-0.2197	0.7590	-0.5786
6.12	-0.4715	-9.1469	-2.3615	0.0258	-0.0070	0.0160	-13.4793	35.2935	19.9869	0.2018	-0.2197	0.7591	-0.5787
6.13	-0.4786	-9.1447	-2.3492	0.0212	-0.0028	0.0158	-13.3702	35.2173	20.1762	0.2018	-0.2197	0.7590	-0.5787
6.14	-0.4894	-9.1451	-2.3525	0.0156	-0.0039	0.0093	-13.4383	35.5596	20.0687	0.2018	-0.2197	0.7591	-0.5787
6.15	-0.4912	-9.1517	-2.3507	0.0232	-0.0024	0.0091	-13.2878	35.4375	20.2500	0.2018	-0.2197	0.7590	-0.5786
6.16	-0.4922	-9.1492	-2.3507	0.0202	-0.0060	0.0149	-13.0620	35.4422	20.4043	0.2018	-0.2197	0.7591	-0.5786
6.17	-0.4939	-9.1435	-2.3495	0.0221	-0.0058	0.0100	-13.1434	35.3246	20.2269	0.2018	-0.2197	0.7591	-0.5787
6.18	-0.4947	-9.1430	-2.3405	0.0221	-0.0045	0.0119	-13.2429	35.4926	19.9514	0.2018	-0.2196	0.7590	-0.5786
6.19	-0.4893	-9.1544	-2.3441	0.0251	-0.0040	0.0110	-13.5573	36.4236	19.8643	0.2018	-0.2197	0.7591	-0.5787
6.2	-0.4879	-9.1497	-2.3475	0.0216	-0.0025	0.0106	-13.2330	35.3618	20.0540	0.2018	-0.2196	0.7591	-0.5787
6.21	-0.4861	-9.1480	-2.3435	0.0134	-0.0072	0.0136	-13.1836	35.1009	20.2030	0.2018	-0.2197	0.7592	-0.5787
6.22	-0.4887	-9.1516	-2.3538	0.0224	-0.0019	0.0101	-13.4974	35.1866	19.9483	0.2018	-0.2196	0.7591	-0.5786
6.23	-0.4943	-9.1462	-2.3498	0.0238	-0.0035	0.0095	-13.2958	34.9683	19.8349	0.2018	-0.2196	0.7591	-0.5786
6.24	-0.4990	-9.1439	-2.3479	0.0184	-0.0093	0.0107	-13.2281	35.2975	20.0012	0.2018	-0.2197	0.7591	-0.5786
6.25	-0.4961	-9.1447	-2.3566	0.0206	-0.0022	0.0135	-13.2353	35.2694	20.0949	0.2017	-0.2196	0.7591	-0.5786
6.26	-0.4946	-9.1465	-2.3644	0.0200	-0.0021	0.0123	-13.4140	35.3345	19.8402	0.2018	-0.2196	0.7592	-0.5787
6.27	-0.4870	-9.1431	-2.3666	0.0273	-0.0068	0.0111	-13.4069	35.1928	20.1603	0.2017	-0.2196	0.7591	-0.5786
6.28	-0.4797	-9.1494	-2.3685	0.0219	-0.0138	0.0158	-13.1488	35.1377	19.8920	0.2018	-0.2196	0.7592	-0.5786
6.29	-0.4743	-9.1495	-2.3689	0.0233	-0.0060	0.0093	-13.3739	35.3380	19.9340	0.2018	-0.2196	0.7590	-0.5786
6.3	-0.4636	-9.1469	-2.3682	0.0225	-0.0060	0.0075	-13.5632	35.1271	20.2335	0.2018	-0.2197	0.7591	-0.5786
6.31	-0.4608	-9.1492	-2.3687	0.0211	-0.0048	0.0085	-13.3377	35.1798	20.1768	0.2018	-0.2197	0.7591	-0.5786
6.32	-0.4594	-9.1510	-2.3710	0.0274	-0.0059	0.0066	-13.4529	35.4893	20.1296	0.2018	-0.2197	0.7591	-0.5786
6.33	-0.4601	-9.1492	-2.3772	0.0240	-0.0017	0.0072	-13.4186	35.2491	20.0381	0.2017	-0.2197	0.7591	-0.5787
6.34	-0.4594	-9.1483	-2.3766	0.0268	0.0020	0.0154	-13.3681	35.1979	19.9461	0.2017	-0.2196	0.7591	-0.5787
6.35	-0.4628	-9.1471	-2.3763	0.0240	0.0017	0.0109	-13.6737	35.1945	20.1749	0.2017	-0.2196	0.7591	-0.5787
6.36	-0.4657	-9.1490	-2.3767	0.0220	0.0037	0.0108	-13.3623	35.2745	20.0334	0.2016	-0.2196	0.7590	-0.5787
6.37	-0.4726	-9.1503	-2.3675	0.0248	-0.0005	0.0145	-13.1412	35.4080	19.9768	0.2017	-0.2196	0.7591	-0.5787
6.38	-0.4698	-9.1504	-2.3722	0.0228	-0.0015	0.0120	-13.4372	35.3290	20.0808	0.2016	-0.2196	0.7591	-0.5787
6.39	-0.4713	-9.1494	-2.3649	0.0182	-0.0024	0.0079	-13.3399	35.2243	20.0324	0.2016	-0.2196	0.7591	-0.5787
6.4	-0.4644	-9.1490	-2.3626	0.0216	-0.0018	0.0079	-13.0745	35.1099	20.0852	0.2016	-0.2196	0.7591	-0.5787
6.41	-0.4688	-9.1436	-2.3628	0.0261	-0.0061	0.0141	-13.1476	35.0411	19.9109	0.2016	-0.2196	0.7591	-0.5787
6.42	-0.4773	-9.1447	-2.3505	0.0256	-0.0063	0.0113	-13.2750	35.2240	20.0830	0.2016	-0.2196	0.7591	-0.5788
6.43	-0.4771	-9.1530	-2.3464	0.0261	-0.0072	0.0125	-13.2834	35.1779	19.9324	0.2016	-0.2195	0.7590	-0.5787
6.44	-0.4807	-9.1495	-2.3473	0.0250	-0.0025	0.0151	-13.2915	35.3470	20.1345	0.2016	-0.2195	0.7591	-0.5788
6.45	-0.4883	-9.1487	-2.3424	0.0206	-0.0045	0.0065	-13.4008	35.3338	19.8883	0.2016	-0.2195	0.7591	-0.5788
6.46	-0.4921	-9.1480	-2.3418	0.0200	0.0031	0.0156	-13.4740	35.0708	19.8133	0.2016	-0.2195	0.7591	-0.5788
6.47	-0.4937	-9.1489	-2.3453	0.0234	-0.0006	0.0130	-13.3105	35.2396	19.9905	0.2016	-0.2195	0.7590	-0.5787
6.48	-0.4967	-9.1479	-2.3493	0.0222	-0.0042	0.0062	-13.4399	35.3920	19.9829	0.2015	-0.2195	0.7591	-0.5788
6.49	-0.4947	-9.1447	-2.3479	0.0230	0.0038	0.0084	-13.3477	35.2037	20.2482	0.2015	-0.2195	0.7591	-0.5788
6.5	-0.4903	-9.1486	-2.3531	0.0240	-0.0034	0.0088	-13.2558	35.2654	20.2370	0.2015	-0.2195	0.7590	-0.5788
6.51	-0.4908	-9.1468	-2.3549	0.0265	-0.0050	0.0097	-13.4644	35.3282	20.1124	0.2015	-0.2195	0.7591	-0.5789
6.52	-0.4881	-9.1459	-2.3531	0.0195	-0.0068	0.0114	-13.3528	35.3387	19.9186	0.2015	-0.2195	0.7591	-0.5788
6.53	-0.4827	-9.1464	-2.3586	0.0216	-0.0030	0.0055	-13.5006	35.0750	20.2286	0.2015	-0.2195	0.7591	-0.5789
6.54	-0.4812	-9.1411	-2.3586	0.0166	-0.0031	0.0089	-13.3281	35.2379	19.8275	0.2014	-0.2195	0.7590	-0.5788
6.55	-0.4824	-9.1418	-2.3615	0.0209	-0.0050	0.0097	-13.4675	35.1786	19.9364	0.2014	-0.2195	0.7591	-0.5788
6.56	-0.4870	-9.1499	-2.3612	0.0211	-0.0115	0.0134	-13.2602	35.2644	19.9156	0.2014	-0.2195	0.7591	-0.5788
6.57	-0.4885	-9.1502	-2.3707	0.0165	-0.0069	0.0089	-13.3534	35.3042	19.9303	0.2014	-0.2195	0.7591	-0.5788
6.58	-0.4866	-9.1464	-2.3675	0.0234	-0.0046	0.0067	-13.3718	35.2056	20.0783	0.2014	-0.2196	0.7591	-0.5788
6.59	-0.4902	-9.1459	-2.3662	0.0198	-0.0079	0.0068	-13.2189	35.1934	20.0653	0.2014	-0.2196	0.7591	-0.5788
6.6	-0.4857	-9.1511	-2.3680	0.0215	-0.0015	0.0104	-13.2129	35.0923	20.0040	0.2014	-0.2196	0.7591	-0.5788
6.61	-0.4912	-9.1456	-2.3636	0.0251	-0.0009	0.0101	-13.4811	35.2159	19.9458	0.2014	-0.2195	0.7590	-0.5787
6.62	-0.4851	-9.1467	-2.3638	0.0269	-0.0041	0.0091	-13.3054	35.3092	19.9675	0.2014	-0.2196	0.7591	-0.5788
6.63	-0.4821	-9.1459	-2.3663	0.0246	-0.0065	0.0096	-13.3043	35.2611	19.8274	0.2014	-0.2196	0.7591	-0.5788
6.64	-0.4784	-9.1518	-2.3619	0.0203	-0.0049	0.0055	-13.4043	35.1535	19.9674	0.2014	-0.2196	0.7591	-0.5788
6.65	-0.4733	-9.1469	-2.3582	0.0196	-0.0067	0.0112	-13.1080	35.2877	20.1110	0.2013	-0.2196	0.7591	-0.5788
6.66	-0.4680	-9.1472	-2.3587	0.0216	-0.0068	0.0027	-12.7632	34.9574	20.6217	0.2013	-0.2196	0.7591	-0.5788
6.67	-0.4606	-9.1494	-2.3555	0.0241	-0.0061	0.0061	-12.7591	35.0384	20.5621	0.2013	-0.2197	0.7591	-0.5788
6.68	-0.4573	-9.1490	-2.3550	0.0218	-0.0041	0.0090	-13.3170	35.6513	19.9661	0.2013	-0.2196	0.7590	-0.5788
6.69	-0.4574	-9.1545	-2.3572	0.0223	-0.0092	0.0109	-13.3235	36.3101	19.9670	0.2013	-0.2197	0.7591	-0.5789
6.7	-0.4604	-9.1562	-2.3623	0.0230	-0.0037	0.0087	-13.4704	35.6255	20.0187	0.2013	-0.2197	0.7590	-0.5788
6.71	-0.4666	-9.1552	-2.3637	0.0229	0.0014	0.0083	-13.2793	35.1198	20.1653	0.2013	-0.2197	0.7591	-0.5789
6.72	-0.4702	-9.1477	-2.3557	0.0259	-0.0040	0.0101	-13.2295	35.3208	19.9765	0.2012	-0.2196	0.7590	-0.5788
6.73	-0.4789	-9.1474	-2.3572	0.0256	-0.0009	0.0094	-13.3864	35.2793	19.9410	0.2012	-0.2197	0.7590	-0.5789
6.74	-0.4819	-9.1425	-2.3713	0.0238	-0.0044	0.0085	-13.2733	35.4059	20.0645	0.2012	-0.2197	0.7590	-0.5789
6.75	-0.4785	-9.1464	-2.3694	0.0268	-0.0116	0.0113	-13.5277	35.3523	20.1973	0.2012	-0.2197	0.7590	-0.5789
6.76	-0.4720	-9.1504	-2.3705	0.0257	-0.0106	0.0181	-13.4620	35.0236	20.1758	0.2013	-0.2197	0.7591	-0.5790
6.77	-0.4647	-9.1513	-2.3756	0.0239	-0.0090	0.0130	-12.9305	34.8607	20.1082	0.2013	-0.2197	0.7590	-0.5789
6.78	-0.4668	-9.1475	-2.3664	0.0220	-0.0110	0.0138	-13.1446	35.0418	19.8753	0.2014	-0.2197	0.7590	-0.5789
6.79	-0.4665	-9.1433	-2.3689	0.0226	-0.0061	0.0112	-13.2719	35.1887	19.8337	0.2013	-0.2196	0.7589	-0.5789
6.8	-0.4772	-9.1464	-2.3670	0.0238	-0.0042	0.0108	-13.2213	35.0340	20.0625	0.2013	-0.2197	0.7590	-0.5789
6.81	-0.4847	-9.1432	-2.3610	0.0232	-0.0058	0.0111	-13.0249	35.1347	20.0196	0.2013	-0.2197	0.7590	-0.5789
6.82	-0.4940	-9.1454	-2.3567	0.0263	-0.0079	0.0076	-13.2496	35.2311	20.0044	0.2013	-0.2197	0.7590	-0.5789
6.83	-0.5016	-9.1498	-2.3550	0.0254	-0.0044	0.0141	-13.3581	35.2666	20.0499	0.2014	-0.2197	0.7590	-0.5790
6.84	-0.5060	-9.1483	-2.3541	0.0263	-0.0073	0.0111	-13.1903	35.1968	20.0752	0.2014	-0.2197	0.7590	-0.5789
6.85	-0.5075	-9.1505	-2.3445	0.0259	-0.0093	0.0104	-13.1964	35.1701	20.0496	0.2014	-0.2197	0.7590	-0.5790
6.86	-0.4977	-9.1447	-2.3439	0.0253	-0.0014	0.0122	-13.4420	35.4370	20.2105	0.2014	-0.2196	0.7589	-0.5789
6.87	-0.4933	-9.1517	-2.3504	0.0241	-0.0034	0.0118	-13.4164	35.1816	20.0876	0.2014	-0.2197	0.7590	-0.5790
6.88	-0.4856	-9.1486	-2.3429	0.0275	-0.0083	0.0153	-13.4206	35.3021	20.0925	0.2014	-0.2196	0.7589	-0.5790
6.89	-0.4798	-9.1478	-2.3415	0.0221	-0.0035	0.0130	-13.4157	35.3235	20.1808	0.2014	-0.2196	0.7589	-0.5790
6.9	-0.4753	-9.1533	-2.3484	0.0224	-0.0040	0.0089	-13.5118	35.3338	20.1806	0.2014	-0.2196	0.7589	-0.5790
6.91	-0.4760	-9.1501	-2.3441	0.0262	-0.0073	0.0122	-13.3819	35.1783	20.2193	0.2014	-0.2196	0.7589	-0.5790
6.92	-0.4842	-9.1471	-2.3446	0.0248	-0.0081	0.0095	-13.3066	35.1999	20.3155	0.2014	-0.2196	0.7589	-0.5790
6.93	-0.4898	-9.1452	-2.3422	0.0254	-0.0081	0.0105	-13.4488	35.2633	20.2082	0.2014	-0.2196	0.7588	-0.5790
6.94	-0.4942	-9.1488	-2.3493	0.0226	-0.0068	0.0164	-13.3741	35.1184	19.9520	0.2014	-0.2196	0.7589	-0.5791
6.95	-0.4971	-9.1491	-2.3602	0.0245	-0.0094	0.0184	-13.0805	35.0782	20.1236	0.2015	-0.2196	0.7589	-0.5790
6.96	-0.4910	-9.1504	-2.3637	0.0241	-0.0083	0.0153	-13.1016	35.3340	19.9726	0.2015	-0.2196	0.7589	-0.5791
6.97	-0.4772	-9.1489	-2.3646	0.0225	-0.0026	0.0120	-13.0887	35.2546	19.9137	0.2015	-0.2196	0.7588	-0.5790
6.98	-0.4668	-9.1511	-2.3713	0.0217	-0.0049	0.0137	-13.3061	35.0012	20.0507	0.2015	-0.2196	0.7589	-0.5790
6.99	-0.4608	-9.1467	-2.3709	0.0233	-0.0069	0.0174	-13.3612	35.1769	20.0166	0.2015	-0.2196	0.7589	-0.5790
7	-0.4574	-9.1481	-2.3758	0.0222	-0.0025	0.0140	-13.2357	35.0676	19.9595	0.2015	-0.2195	0.7589	-0.5790
7.01	-0.4607	-9.1459	-2.3723	0.0225	-0.0005	0.0108	-13.3681	35.1037	19.9086	0.2015	-0.2195	0.7590	-0.5791
7.02	-0.4616	-9.1457	-2.3764	0.0239	-0.0103	0.0172	-13.4016	35.2731	20.1077	0.2015	-0.2195	0.7589	-0.5790
7.03	-0.4608	-9.1450	-2.3752	0.0243	-0.0024	0.0190	-13.3009	35.0268	20.0437	0.2015	-0.2195	0.7590	-0.5791
7.04	-0.4648	-9.1459	-2.3859	0.0238	-0.0021	0.0123	-13.3661	35.2554	20.0015	0.2015	-0.2194	0.7589	-0.5790
7.05	-0.4680	-9.1478	-2.3771	0.0244	0.0042	0.0089	-13.2995	35.2473	20.1407	0.2015	-0.2194	0.7589	-0.5791
7.06	-0.4698	-9.1524	-2.3832	0.0218	0.0015	0.0128	-13.2638	35.2384	20.0640	0.2014	-0.2194	0.7589	-0.5791
7.07	-0.4704	-9.1495	-2.3769	0.0269	-0.0027	0.0113	-13.4456	35.2443	19.9162	0.2014	-0.2194	0.7589	-0.5791
7.08	-0.4700	-9.1483	-2.3692	0.0253	0.0012	0.0054	-13.2987	35.3052	19.9420	0.2014	-0.2194	0.7589	-0.5791
7.09	-0.4679	-9.1464	-2.3672	0.0249	-0.0027	0.0096	-13.5168	35.3781	20.1649	0.2014	-0.2194	0.7589	-0.5791
7.1	-0.4729	-9.1480	-2.3649	0.0202	0.0032	0.0120	-13.5746	35.3585	20.0029	0.2014	-0.2194	0.7589	-0.5791
7.11	-0.4729	-9.1473	-2.3660	0.0222	-0.0041	0.0144	-13.2951	35.2530	20.0969	0.2013	-0.2193	0.7589	-0.5791
7.12	-0.4776	-9.1458	-2.3514	0.0234	-0.0085	0.0105	-13.4708	35.0911	20.1242	0.2014	-0.2194	0.7589	-0.5791
7.13	-0.4799	-9.1448	-2.3499	0.0246	-0.0046	0.0080	-13.3394	34.9978	20.0802	0.2014	-0.2194	0.7589	-0.5791
7.14	-0.4806	-9.1484	-2.3513	0.0250	-0.0021	0.0135	-13.1570	35.1600	20.2004	0.2014	-0.2194	0.7589	-0.5792
7.15	-0.4852	-9.1479	-2.3477	0.0246	-0.0011	0.0132	-13.1325	35.1954	20.1880	0.2013	-0.2193	0.7589	-0.5791
7.16	-0.4883	-9.1485	-2.3519	0.0246	-0.0053	0.0130	-12.7921	35.0793	20.1167	0.2013	-0.2193	0.7589	-0.5792
7.17	-0.4859	-9.1450	-2.3510	0.0206	-0.0133	0.0119	-12.8060	35.0917	20.2578	0.2014	-0.2193	0.7589	-0.5792
7.18	-0.4836	-9.1438	-2.3479	0.0215	-0.0065	0.0128	-13.1776	35.6126	19.9079	0.2014	-0.2193	0.7588	-0.5791
7.19	-0.4814	-9.1500	-2.3530	0.0167	-0.0069	0.0119	-13.1917	36.4015	19.8995	0.2014	-0.2194	0.7590	-0.5791
7.2	-0.4771	-9.1489	-2.3554	0.0201	-0.0080	0.0131	-13.4521	35.6496	20.0481	0.2014	-0.2193	0.7589	-0.5791
7.21	-0.4724	-9.1473	-2.3552	0.0228	-0.0047	0.0148	-13.4373	35.2251	19.9980	0.2014	-0.2194	0.7590	-0.5791
7.22	-0.4724	-9.1467	-2.3538	0.0217	-0.0070	0.0096	-13.3791	35.1529	20.1480	0.2014	-0.2193	0.7589	-0.5791
7.23	-0.4774	-9.1517	-2.3599	0.0132	-0.0030	0.0080	-13.2244	35.1218	20.2040	0.2014	-0.2194	0.7590	-0.5791
7.24	-0.4808	-9.1501	-2.3654	0.0103	-0.0083	0.0100	-13.3950	35.2533	19.8995	0.2014	-0.2194	0.7590	-0.5790
7.25	-0.4783	-9.1429	-2.3635	0.0230	-0.0043	0.0060	-13.4682	35.1658	20.0464	0.2013	-0.2194	0.7589	-0.5790
7.26	-0.4892	-9.1502	-2.3667	0.0177	-0.0061	0.0088	-13.2443	35.3362	20.0135	0.2013	-0.2194	0.7591	-0.5791
7.27	-0.4887	-9.1470	-2.3698	0.0201	-0.0048	0.0107	-13.4254	35.2346	20.0670	0.2013	-0.2194	0.7590	-0.5790
7.28	-0.4920	-9.1432	-2.3679	0.0168	-0.0055	0.0110	-13.4608	35.2199	19.9393	0.2013	-0.2194	0.7591	-0.5790
7.29	-0.4952	-9.1391	-2.3628	0.0149	-0.0080	0.0140	-13.3364	35.5055	20.0290	0.2013	-0.2194	0.7590	-0.5789
7.3	-0.4963	-9.1454	-2.3583	0.0165	0.0020	0.0092	-13.4039	35.2948	20.2267	0.2013	-0.2194	0.7591	-0.5790
7.31	-0.4947	-9.1470	-2.3600	0.0219	-0.0108	0.0103	-13.4296	35.1813	20.0728	0.2013	-0.2194	0.7591	-0.5789
7.32	-0.4848	-9.1492	-2.3534	0.0240	-0.0087	0.0157	-13.2737	35.2034	20.1734	0.2013	-0.2194	0.7590	-0.5789
7.33	-0.4842	-9.1514	-2.3613	0.0239	-0.0105	0.0124	-13.1949	35.3199	19.9004	0.2014	-0.2194	0.7591	-0.5789
7.34	-0.4809	-9.1522	-2.3601	0.0250	-0.0070	0.0088	-13.1929	35.2666	19.8656	0.2013	-0.2195	0.7590	-0.5789
7.35	-0.4773	-9.1457	-2.3550	0.0180	-0.0019	0.0081	-13.3857	35.1939	20.0458	0.2013	-0.2195	0.7591	-0.5790
7.36	-0.4696	-9.1418	-2.3545	0.0183	-0.0035	0.0125	-13.2554	35.2119	20.0182	0.2013	-0.2194	0.7590	-0.5789
7.37	-0.4616	-9.1497	-2.3568	0.0237	-0.0110	0.0064	-13.3145	35.3195	20.0645	0.2013	-0.2195	0.7591	-0.5789
7.38	-0.4600	-9.1511	-2.3634	0.0206	-0.0052	0.0099	-13.3438	35.4054	19.9539	0.2013	-0.2195	0.7590	-0.5789
7.39	-0.4626	-9.1503	-2.3634	0.0208	-0.0057	0.0086	-13.4494	35.3055	20.0001	0.2013	-0.2195	0.7591	-0.5789
7.4	-0.4671	-9.1482	-2.3687	0.0225	-0.0100	0.0097	-13.3297	35.1886	20.1374	0.2013	-0.2195	0.7590	-0.5789
7.41	-0.4764	-9.1496	-2.3655	0.0217	-0.0047	0.0113	-13.3119	35.2285	20.0061	0.2013	-0.2195	0.7590	-0.5789
7.42	-0.4828	-9.1459	-2.3728	0.0127	-0.0078	0.0103	-13.3298	35.3549	20.2374	0.2013	-0.2195	0.7591	-0.5789
7.43	-0.4804	-9.1444	-2.3703	0.0148	-0.0043	0.0058	-13.2588	35.3991	20.1145	0.2013	-0.2196	0.7590	-0.5788
7.44	-0.4773	-9.1498	-2.3759	0.0212	0.0002	0.0030	-13.4622	35.2456	20.0167	0.2012	-0.2196	0.7591	-0.5789
7.45	-0.4709	-9.1460	-2.3757	0.0199	-0.0057	0.0087	-13.3405	35.2379	20.0445	0.2012	-0.2196	0.7591	-0.5788
7.46	-0.4676	-9.1445	-2.3708	0.0183	-0.0012	0.0061	-13.3222	35.3237	20.0132	0.2012	-0.2196	0.7592	-0.5789
7.47	-0.4685	-9.1456	-2.3670	0.0184	-0.0058	0.0089	-13.1776	35.2712	20.1320	0.2012	-0.2196	0.7591	-0.5788
7.48	-0.4707	-9.1400	-2.3623	0.0222	0.0034	0.0098	-13.3220	35.3215	20.1029	0.2011	-0.2196	0.7591	-0.5788
7.49	-0.4729	-9.1391	-2.3606	0.0238	-0.0056	0.0075	-13.3930	35.2506	19.7943	0.2011	-0.2196	0.7591	-0.5789
7.5	-0.4809	-9.1443	-2.3586	0.0195	-0.0106	0.0147	-13.2020	35.4094	20.0399	0.2011	-0.2196	0.7591	-0.5788
7.51	-0.4851	-9.1499	-2.3523	0.0249	-0.0103	0.0131	-13.1211	35.2451	20.1123	0.2012	-0.2196	0.7592	-0.5789
7.52	-0.4902	-9.1457	-2.3540	0.0215	-0.0093	0.0135	-13.0977	35.2719	20.0564	0.2012	-0.2196	0.7591	-0.5788
7.53	-0.4949	-9.1481	-2.3495	0.0232	-0.0003	0.0064	-13.2320	35.2092	20.1297	0.2012	-0.2197	0.7591	-0.5789
7.54	-0.4925	-9.1464	-2.3473	0.0228	-0.0043	0.0080	-13.3796	34.9817	19.8098	0.2011	-0.2196	0.7590	-0.5788
7.55	-0.4920	-9.1458	-2.3394	0.0209	-0.0093	0.0070	-13.2531	35.3167	20.0123	0.2012	-0.2197	0.7591	-0.5789
7.56	-0.4849	-9.1481	-2.3371	0.0229	-0.0076	0.0115	-13.4425	35.2330	20.0190	0.2012	-0.2197	0.7591	-0.5788
7.57	-0.4839	-9.1512	-2.3401	0.0258	-0.0033	0.0100	-13.4334	35.2028	20.1089	0.2011	-0.2197	0.7591	-0.5788
7.58	-0.4843	-9.1473	-2.3416	0.0256	0.0099	0.0127	-13.4600	35.2018	20.1215	0.2011	-0.2196	0.7591	-0.5789
7.59	-0.4851	-9.1468	-2.3369	0.0215	-0.0039	0.0098	-13.4100	35.3483	19.9828	0.2011	-0.2196	0.7591	-0.5789
7.6	-0.4872	-9.1450	-2.3388	0.0229	-0.0017	0.0080	-13.3356	35.1824	20.1060	0.2011	-0.2196	0.7591	-0.5789
7.61	-0.4909	-9.1429	-2.3397	0.0205	-0.0017	0.0139	-13.3908	35.3814	20.1350	0.2010	-0.2196	0.7590	-0.5788
7.62	-0.4937	-9.1463	-2.3497	0.0232	-0.0079	0.0080	-13.2178	35.4508	19.8746	0.2011	-0.2196	0.7591	-0.5789
7.63	-0.4923	-9.1449	-2.3549	0.0182	0.0015	0.0035	-13.3756	35.2067	20.0347	0.2010	-0.2196	0.7591	-0.5789
7.64	-0.4888	-9.1429	-2.3648	0.0216	-0.0015	0.0094	-13.4972	35.1833	20.2311	0.2010	-0.2196	0.7591	-0.5789
7.65	-0.4768	-9.1421	-2.3685	0.0210	0.0008	0.0084	-13.1815	35.3386	20.1817	0.2009	-0.2196	0.7591	-0.5789
7.66	-0.4692	-9.1465	-2.3715	0.0126	0.0008	0.0048	-12.9582	35.3290	20.3746	0.2009	-0.2196	0.7591	-0.5789
7.67	-0.4666	-9.1463	-2.3698	0.0280	-0.0058	0.0070	-12.8121	35.2115	20.5346	0.2009	-0.2197	0.7591	-0.5789
7.68	-0.4606	-9.1457	-2.3731	0.0228	-0.0088	0.0101	-13.2206	35.6564	20.1850	0.2009	-0.2197	0.7591	-0.5789
7.69	-0.4620	-9.1488	-2.3739	0.0224	-0.0072	0.0167	-13.4893	36.4349	20.0098	0.2009	-0.2197	0.7592	-0.5789
7.7	-0.4667	-9.1450	-2.3771	0.0191	-0.0087	0.0108	-13.2180	35.4299	20.2612	0.2009	-0.2197	0.7591	-0.5789
7.71	-0.4637	-9.1453	-2.3754	0.0210	-0.0087	0.0137	-13.2535	34.8677	20.2393	0.2009	-0.2197	0.7592	-0.5789
7.72	-0.4675	-9.1472	-2.3752	0.0207	-0.0036	0.0149	-13.2861	35.1837	20.0725	0.2009	-0.2196	0.7591	-0.5788
7.73	-0.4691	-9.1442	-2.3719	0.0173	-0.0099	0.0143	-13.1701	35.0080	20.0136	0.2010	-0.2197	0.7592	-0.5788
7.74	-0.4747	-9.1488	-2.3728	0.0208	-0.0023	0.0085	-13.1951	35.0681	20.1947	0.2009	-0.2197	0.7592	-0.5788
7.75	-0.4777	-9.1485	-2.3627	0.0269	-0.0096	0.0170	-13.2540	35.1055	20.1241	0.2010	-0.2196	0.7591	-0.5788
7.76	-0.4741	-9.1507	-2.3678	0.0233	-0.0067	0.0121	-13.3791	34.9948	20.0618	0.2010	-0.2197	0.7592	-0.5789
7.77	-0.4743	-9.1455	-2.3592	0.0250	-0.0077	0.0111	-13.2014	35.0095	20.1777	0.2010	-0.2196	0.7591	-0.5788
7.78	-0.4746	-9.1427	-2.3568	0.0257	-0.0106	0.0142	-13.2320	35.0423	20.3811	0.2010	-0.2197	0.7592	-0.5789
7.79	-0.4735	-9.1440	-2.3513	0.0202	-0.0078	0.0131	-13.4616	35.2691	20.2826	0.2010	-0.2196	0.7591	-0.5788
7.8	-0.4756	-9.1427	-2.3474	0.0182	-0.0055	0.0097	-13.5189	35.3486	20.0962	0.2010	-0.2197	0.7592	-0.5788
7.81	-0.4792	-9.1482	-2.3522	0.0212	-0.0077	0.0125	-13.3644	35.3315	20.0099	0.2010	-0.2197	0.7591	-0.5788
7.82	-0.4797	-9.1514	-2.3504	0.0234	-0.0037	0.0090	-13.3540	35.3428	20.1968	0.2010	-0.2197	0.7591	-0.5788
7.83	-0.4834	-9.1507	-2.3501	0.0271	-0.0077	0.0080	-13.3618	35.3278	20.1737	0.2010	-0.2197	0.7591	-0.5789
7.84	-0.4841	-9.1462	-2.3480	0.0250	-0.0030	0.0103	-13.3519	35.3524	20.1628	0.2010	-0.2197	0.7591	-0.5788
7.85	-0.4861	-9.1470	-2.3557	0.0237	-0.0035	0.0111	-13.5791	35.2970	20.2445	0.2010	-0.2197	0.7591	-0.5789
7.86	-0.4853	-9.1461	-2.3489	0.0250	-0.0059	0.0111	-13.6267	35.4440	20.2022	0.2010	-0.2196	0.7590	-0.5788
7.87	-0.4879	-9.1482	-2.3512	0.0259	-0.0088	0.0121	-13.3680	35.2693	20.0292	0.2010	-0.2197	0.7591	-0.5789
7.88	-0.4819	-9.1468	-2.3531	0.0255	-0.0060	0.0141	-13.5072	35.0286	20.2048	0.2010	-0.2197	0.7591	-0.5789
7.89	-0.4802	-9.1421	-2.3596	0.0255	-0.0072	0.0070	-13.2397	35.1324	20.3213	0.2010	-0.2197	0.7591	-0.5789
7.9	-0.4752	-9.1412	-2.3601	0.0246	-0.0047	0.0079	-12.9946	34.9777	20.0801	0.2010	-0.2197	0.7590	-0.5789
7.91	-0.4766	-9.1385	-2.3614	0.0251	-0.0009	0.0137	-13.1629	35.0433	20.1004	0.2010	-0.2197	0.7591	-0.5789
7.92	-0.4794	-9.1448	-2.3641	0.0249	0.0003	0.0070	-13.0535	35.1376	19.9483	0.2010	-0.2197	0.7591	-0.5790
7.93	-0.4809	-9.1506	-2.3652	0.0245	-0.0004	0.0100	-13.2796	34.9243	20.2198	0.2010	-0.2196	0.7590	-0.5789
7.94	-0.4851	-9.1464	-2.3659	0.0249	-0.0105	0.0148	-13.3627	34.9122	20.1670	0.2010	-0.2196	0.7591	-0.5790
7.95	-0.4840	-9.1451	-2.3659	0.0268	-0.0056	0.0081	-13.3609	35.2318	20.1012	0.2010	-0.2196	0.7590	-0.5790
7.96	-0.4905	-9.1448	-2.3647	0.0248	-0.0093	0.0109	-13.2959	35.2154	20.2547	0.2010	-0.2197	0.7591	-0.5790
7.97	-0.4938	-9.1437	-2.3613	0.0262	-0.0125	0.0140	-13.2474	35.0569	19.9555	0.2010	-0.2196	0.7590	-0.5790
7.98	-0.4943	-9.1464	-2.3652	0.0226	-0.0069	0.0123	-13.3991	35.3309	20.1867	0.2011	-0.2197	0.7590	-0.5790
7.99	-0.4886	-9.1473	-2.3585	0.0204	-0.0039	0.0096	-13.4633	35.3285	20.1037	0.2011	-0.2197	0.7590	-0.5790
8	-0.4823	-9.1453	-2.3585	0.0249	-0.0047	0.0083	-13.3575	35.3490	20.1615	0.2010	-0.2197	0.7590	-0.5790
8.01	-0.4792	-9.1476	-2.3621	0.0232	-0.0056	0.0104	-13.3595	35.3184	20.1847	0.2011	-0.2197	0.7591	-0.5791
8.02	-0.4757	-9.1484	-2.3615	0.0259	-0.0051	0.0082	-13.3408	35.1165	20.0675	0.2010	-0.2197	0.7590	-0.5790
8.03	-0.4725	-9.1463	-2.3600	0.0251	-0.0050	0.0074	-13.4020	35.2503	20.1161	0.2010	-0.2197	0.7590	-0.5791
8.04	-0.4686	-9.1415	-2.3549	0.0209	-0.0085	0.0052	-13.5247	35.2532	20.0686	0.2010	-0.2197	0.7589	-0.5790
8.05	-0.4580	-9.1466	-2.3519	0.0252	-0.0037	0.0119	-13.5017	35.3485	20.1151	0.2010	-0.2197	0.7590	-0.5791
8.06	-0.4599	-9.1494	-2.3591	0.0252	-0.0086	0.0117	-13.3788	35.3357	20.2141	0.2010	-0.2197	0.7590	-0.5791
8.07	-0.4567	-9.1496	-2.3676	0.0254	-0.0044	0.0147	-13.3363	35.3042	20.1003	0.2010	-0.2197	0.7589	-0.5790
8.08	-0.4594	-9.1456	-2.3606	0.0254	-0.0055	0.0150	-13.3679	34.9486	20.1037	0.2011	-0.2197	0.7590	-0.5791
8.09	-0.4655	-9.1472	-2.3610	0.0253	-0.0077	0.0140	-13.3222	35.0638	19.9765	0.2011	-0.2197	0.7589	-0.5791
8.1	-0.4792	-9.1470	-2.3688	0.0255	-0.0003	0.0142	-13.2112	35.0891	20.0819	0.2011	-0.2197	0.7590	-0.5791
8.11	-0.4808	-9.1498	-2.3729	0.0255	-0.0045	0.0102	-13.1603	35.1820	20.1125	0.2010	-0.2196	0.7589	-0.5791
8.12	-0.4826	-9.1472	-2.3746	0.0270	0.0043	0.0110	-13.3371	35.0685	20.0859	0.2010	-0.2196	0.7590	-0.5791
8.13	-0.4799	-9.1433	-2.3723	0.0210	-0.0044	0.0157	-13.4397	34.9621	19.9681	0.2010	-0.2196	0.7589	-0.5791
8.14	-0.4736	-9.1460	-2.3729	0.0238	-0.0034	0.0142	-13.2447	34.8712	20.1075	0.2010	-0.2196	0.7590	-0.5791
8.15	-0.4683	-9.1418	-2.3694	0.0263	-0.0001	0.0136	-13.2254	35.1401	20.1647	0.2010	-0.2195	0.7589	-0.5791
8.16	-0.4687	-9.1427	-2.3623	0.0185	-0.0078	0.0078	-12.7889	35.3759	20.5076	0.2010	-0.2196	0.7589	-0.5791
8.17	-0.4717	-9.1440	-2.3622	0.0238	0.0042	0.0086	-12.8648	35.3744	20.4348	0.2010	-0.2196	0.7590	-0.5792
8.18	-0.4846	-9.1415	-2.3612	0.0185	-0.0036	0.0080	-13.3652	35.5209	19.9144	0.2009	-0.2195	0.7589	-0.5791
8.19	-0.4917	-9.1429	-2.3586	0.0216	-0.0057	0.0091	-13.3443	36.1474	20.0333	0.2010	-0.2196	0.7590	-0.5792
8.2	-0.4984	-9.1446	-2.3554	0.0234	-0.0032	0.0111	-13.4987	35.4473	20.1757	0.2009	-0.2196	0.7589	-0.5791
8.21	-0.5002	-9.1445	-2.3509	0.0224	-0.0026	0.0085	-13.5602	35.1800	20.2427	0.2009	-0.2196	0.7590	-0.5792
8.22	-0.5036	-9.1482	-2.3475	0.0234	-0.0034	0.0070	-13.3412	35.4660	20.2091	0.2009	-0.2196	0.7589	-0.5791
8.23	-0.5026	-9.1488	-2.3426	0.0253	-0.0028	0.0107	-13.3874	35.3438	20.1178	0.2009	-0.2196	0.7589	-0.5792
8.24	-0.4904	-9.1450	-2.3417	0.0265	-0.0084	0.0117	-13.4656	35.4300	20.1381	0.2009	-0.2196	0.7589	-0.5792
8.25	-0.4889	-9.1479	-2.3362	0.0255	0.0005	0.0114	-13.4089	35.3048	19.8214	0.2009	-0.2195	0.7589	-0.5792
8.26	-0.4813	-9.1538	-2.3440	0.0255	-0.0004	0.0105	-13.4655	35.2164	20.0299	0.2009	-0.2196	0.7590	-0.5793
8.27	-0.4794	-9.1432	-2.3330	0.0233	-0.0099	0.0140	-13.2507	35.2571	19.9848	0.2009	-0.2195	0.7589	-0.5792
8.28	-0.4827	-9.1481	-2.3433	0.0238	-0.0049	0.0121	-13.1759	35.3748	19.8217	0.2009	-0.2195	0.7590	-0.5793
8.29	-0.4860	-9.1482	-2.3348	0.0226	-0.0049	0.0098	-13.1891	35.1062	19.9714	0.2009	-0.2195	0.7589	-0.5792
8.3	-0.4904	-9.1473	-2.3414	0.0227	-0.0005	0.0085	-13.2149	35.2948	20.0997	0.2009	-0.2195	0.7589	-0.5792
8.31	-0.4944	-9.1461	-2.3507	0.0240	-0.0023	0.0100	-13.3084	35.4277	20.0996	0.2008	-0.2195	0.7589	-0.5792
8.32	-0.4885	-9.1470	-2.3551	0.0254	-0.0041	0.0130	-13.4783	35.3746	20.0164	0.2008	-0.2195	0.7589	-0.5792
8.33	-0.4761	-9.1467	-2.3634	0.0229	-0.0055	0.0063	-13.2145	35.4174	20.0546	0.2008	-0.2195	0.7589	-0.5793
8.34	-0.4672	-9.1448	-2.3722	0.0215	-0.0105	0.0115	-13.2548	35.3748	20.0680	0.2009	-0.2195	0.7589	-0.5792
8.35	-0.4594	-9.1468	-2.3741	0.0211	-0.0079	0.0112	-13.3815	35.2323	20.1886	0.2009	-0.2196	0.7589	-0.5793
8.36	-0.4554	-9.1484	-2.3777	0.0263	0.0004	0.0088	-13.4242	35.2261	20.0159	0.2008	-0.2195	0.7588	-0.5792
8.37	-0.4554	-9.1552	-2.3786	0.0174	0.0013	0.0028	-13.4306	35.2149	20.1849	0.2008	-0.2196	0.7589	-0.5793
8.38	-0.4578	-9.1527	-2.3849	0.0233	-0.0013	0.0132	-13.3397	35.2642	20.2169	0.2008	-0.2195	0.7589	-0.5793
8.39	-0.4614	-9.1437	-2.3937	0.0228	-0.0002	0.0064	-13.3572	35.3829	20.0232	0.2008	-0.2195	0.7589	-0.5793
8.4	-0.4619	-9.1488	-2.3842	0.0205	-0.0061	0.0054	-13.4459	35.4236	20.0666	0.2007	-0.2196	0.7589	-0.5793
8.41	-0.4656	-9.1480	-2.3804	0.0240	-0.0036	0.0098	-13.3025	35.2154	20.0021	0.2007	-0.2196	0.7589	-0.5793
8.42	-0.4686	-9.1477	-2.3787	0.0237	-0.0040	0.0054	-13.4818	35.3421	20.1698	0.2007	-0.2196	0.7589	-0.5793
8.43	-0.4663	-9.1474	-2.3733	0.0231	-0.0069	0.0077	-13.5459	35.4021	20.2554	0.2007	-0.2196	0.7588	-0.5793
8.44	-0.4716	-9.1498	-2.3644	0.0256	-0.0073	0.0135	-13.4091	35.3064	19.8945	0.2007	-0.2196	0.7589	-0.5793
8.45	-0.4686	-9.1473	-2.3605	0.0241	-0.0135	0.0119	-13.4348	35.2719	20.0125	0.2007	-0.2196	0.7589	-0.5793
8.46	-0.4674	-9.1477	-2.3609	0.0273	-0.0053	0.0103	-13.2466	35.2364	20.0922	0.2008	-0.2196	0.7589	-0.5794
8.47	-0.4733	-9.1487	-2.3542	0.0213	0.0003	0.0066	-13.3658	35.1246	19.9270	0.2007	-0.2196	0.7588	-0.5793
8.48	-0.4740	-9.1431	-2.3525	0.0238	-0.0099	0.0073	-13.4466	35.1887	20.0294	0.2007	-0.2196	0.7589	-0.5793
8.49	-0.4773	-9.1469	-2.3472	0.0257	-0.0039	0.0113	-13.4480	35.1943	20.3360	0.2007	-0.2196	0.7588	-0.5794
8.5	-0.4840	-9.1459	-2.3505	0.0252	-0.0073	0.0054	-13.3672	35.1192	20.0050	0.2007	-0.2196	0.7588	-0.5793
8.51	-0.4830	-9.1480	-2.3502	0.0228	-0.0058	0.0095	-13.3391	35.2457	20.0909	0.2007	-0.2197	0.7589	-0.5794
8.52	-0.4860	-9.1470	-2.3467	0.0260	-0.0075	0.0093	-13.3811	35.1101	20.1205	0.2007	-0.2197	0.7588	-0.5794
8.53	-0.4925	-9.1481	-2.3458	0.0194	-0.0106	0.0117	-13.2956	35.2031	20.0115	0.2007	-0.2197	0.7588	-0.5794
8.54	-0.4939	-9.1491	-2.3473	0.0209	-0.0072	0.0085	-13.1857	35.3280	20.1642	0.2007	-0.2197	0.7588	-0.5793
8.55	-0.4933	-9.1464	-2.3487	0.0261	-0.0048	0.0052	-13.3967	35.4874	19.9997	0.2007	-0.2197	0.7588	-0.5794
8.56	-0.4915	-9.1470	-2.3492	0.0211	-0.0051	0.0086	-13.3448	35.5153	20.1082	0.2007	-0.2197	0.7588	-0.5794
8.57	-0.4862	-9.1481	-2.3474	0.0241	-0.0061	0.0094	-13.3796	35.5778	20.1392	0.2007	-0.2197	0.7588	-0.5794
8.58	-0.4843	-9.1445	-2.3480	0.0261	-0.0005	0.0029	-13.2554	35.4687	20.0372	0.2007	-0.2198	0.7588	-0.5794
8.59	-0.4813	-9.1414	-2.3522	0.0232	-0.0012	0.0093	-13.4177	35.3221	20.0487	0.2006	-0.2197	0.7588	-0.5794
8.6	-0.4824	-9.1409	-2.3519	0.0195	-0.0060	0.0046	-13.2333	35.1817	20.2627	0.2006	-0.2198	0.7588	-0.5794
8.61	-0.4831	-9.1469	-2.3557	0.0249	-0.0033	0.0063	-13.1551	35.3360	20.1111	0.2006	-0.2198	0.7587	-0.5794
8.62	-0.4823	-9.1528	-2.3611	0.0239	0.0007	0.0098	-13.5366	35.3923	20.1797	0.2006	-0.2198	0.7588	-0.5795
8.63	-0.4891	-9.1513	-2.3646	0.0248	-0.0027	0.0094	-13.1791	35.4006	20.1588	0.2006	-0.2198	0.7588	-0.5794
8.64	-0.4881	-9.1490	-2.3614	0.0253	-0.0046	0.0129	-13.3466	35.3950	19.9727	0.2006	-0.2198	0.7588	-0.5795
8.65	-0.4912	-9.1421	-2.3713	0.0260	0.0005	0.0085	-13.2207	35.3267	20.2803	0.2005	-0.2197	0.7587	-0.5795
8.66	-0.4922	-9.1425	-2.3626	0.0260	-0.0021	0.0108	-12.7015	35.2786	20.2021	0.2005	-0.2197	0.7587	-0.5795
8.67	-0.4930	-9.1495	-2.3623	0.0252	-0.0036	0.0183	-12.7428	35.2656	20.4633	0.2005	-0.2197	0.7588	-0.5795
8.68	-0.4841	-9.1474	-2.3662	0.0279	-0.0058	0.0148	-13.2694	35.4057	20.1835	0.2005	-0.2197	0.7587	-0.5795
8.69	-0.4756	-9.1435	-2.3589	0.0248	-0.0089	0.0056	-13.2581	36.1987	19.7911	0.2006	-0.2197	0.7588	-0.5796
8.7	-0.4661	-9.1508	-2.3597	0.0241	-0.0102	0.0127	-13.2634	35.2807	19.9609	0.2006	-0.2197	0.7587	-0.5795
8.71	-0.4626	-9.1528	-2.3615	0.0233	-0.0051	0.0117	-13.2811	34.8810	20.0644	0.2006	-0.2197	0.7588	-0.5796
8.72	-0.4607	-9.1446	-2.3565	0.0221	-0.0061	0.0128	-13.2559	35.1337	20.2041	0.2006	-0.2197	0.7587	-0.5795
8.73	-0.4617	-9.1543	-2.3589	0.0202	-0.0088	0.0133	-13.2030	35.3111	20.0062	0.2006	-0.2197	0.7587	-0.5795
8.74	-0.4616	-9.1496	-2.3624	0.0261	-0.0075	0.0114	-13.4538	35.2742	19.8460	0.2006	-0.2197	0.7587	-0.5795
8.75	-0.4715	-9.1490	-2.3639	0.0201	-0.0047	0.0055	-13.3497	35.3023	20.0102	0.2006	-0.2197	0.7587	-0.5795
8.76	-0.4732	-9.1434	-2.3541	0.0252	-0.0063	0.0053	-13.2501	35.4235	19.9670	0.2006	-0.2198	0.7588	-0.5796
8.77	-0.4779	-9.1419	-2.3522	0.0173	-0.0090	0.0078	-13.2878	35.3308	20.0285	0.2006	-0.2198	0.7587	-0.5795
8.78	-0.4837	-9.1423	-2.3498	0.0204	-0.0058	0.0082	-13.2450	35.4627	20.0973	0.2006	-0.2198	0.7587	-0.5795
8.79	-0.4836	-9.1425	-2.3533	0.0216	-0.0058	0.0130	-13.4444	35.3176	20.0424	0.2006	-0.2198	0.7586	-0.5795
8.8	-0.4832	-9.1457	-2.3558	0.0143	-0.0040	0.0076	-13.5308	35.2037	20.2235	0.2006	-0.2198	0.7587	-0.5795
8.81	-0.4734	-9.1510	-2.3604	0.0206	-0.0110	0.0111	-13.3481	35.1592	20.0498	0.2006	-0.2198	0.7587	-0.5795
8.82	-0.4686	-9.1465	-2.3557	0.0225	-0.0108	0.0168	-13.3661	35.1074	19.9560	0.2006	-0.2198	0.7587	-0.5794
8.83	-0.4665	-9.1466	-2.3613	0.0219	-0.0150	0.0114	-13.2405	34.9725	20.1212	0.2007	-0.2198	0.7587	-0.5795
8.84	-0.4598	-9.1490	-2.3612	0.0255	-0.0092	0.0130	-13.3080	35.0191	20.0648	0.2007	-0.2198	0.7587	-0.5794
8.85	-0.4736	-9.1478	-2.3623	0.0242	-0.0067	0.0070	-13.3699	35.1710	20.1105	0.2007	-0.2199	0.7587	-0.5795
8.86	-0.4746	-9.1494	-2.3649	0.0217	-0.0077	0.0123	-13.3459	35.0891	19.9787	0.2007	-0.2198	0.7586	-0.5794
8.87	-0.4878	-9.1496	-2.3590	0.0256	-0.0067	0.0138	-13.3479	34.9682	20.0125	0.2007	-0.2199	0.7587	-0.5795
8.88	-0.4906	-9.1482	-2.3583	0.0243	-0.0087	0.0115	-13.3568	35.0364	19.9702	0.2007	-0.2199	0.7587	-0.5794
8.89	-0.4942	-9.1494	-2.3594	0.0216	-0.0065	0.0138	-13.2811	35.1613	20.0784	0.2007	-0.2199	0.7587	-0.5795
8.9	-0.4875	-9.1398	-2.3442	0.0227	-0.0060	0.0076	-13.2576	35.1757	20.0868	0.2007	-0.2199	0.7587	-0.5794
8.91	-0.4942	-9.1465	-2.3501	0.0224	-0.0102	0.0172	-13.4022	35.2675	19.9547	0.2008	-0.2199	0.7587	-0.5794
8.92	-0.4953	-9.1537	-2.3592	0.0260	-0.0128	0.0057	-13.4394	35.2268	20.0292	0.2008	-0.2199	0.7587	-0.5795
8.93	-0.4913	-9.1488	-2.3597	0.0247	-0.0061	0.0149	-13.4172	35.3243	20.1832	0.2008	-0.2199	0.7586	-0.5794
8.94	-0.4876	-9.1448	-2.3607	0.0253	-0.0049	0.0065	-13.5421	35.3334	20.1262	0.2008	-0.2199	0.7587	-0.5795
8.95	-0.4868	-9.1425	-2.3626	0.0248	-0.0044	0.0121	-13.4750	35.1669	20.0936	0.2008	-0.2199	0.7586	-0.5795
8.96	-0.4907	-9.1461	-2.3593	0.0213	-0.0098	0.0107	-13.3659	35.4275	20.2003	0.2008	-0.2199	0.7587	-0.5795
8.97	-0.4903	-9.1497	-2.3583	0.0255	-0.0072	0.0104	-13.3380	35.3079	20.0479	0.2008	-0.2199	0.7586	-0.5794
8.98	-0.4877	-9.1425	-2.3590	0.0243	-0.0061	0.0097	-13.3805	35.2628	20.0964	0.2008	-0.2199	0.7586	-0.5795
8.99	-0.4844	-9.1434	-2.3642	0.0209	-0.0046	0.0086	-13.4463	35.3185	20.0423	0.2008	-0.2199	0.7586	-0.5795
9	-0.4766	-9.1464	-2.3776	0.0258	-0.0089	0.0139	-13.4158	35.1457	19.8822	0.2008	-0.2199	0.7586	-0.5795
9.01	-0.4699	-9.1502	-2.3783	0.0261	-0.0126	0.0156	-13.4394	35.0772	19.9381	0.2009	-0.2199	0.7587	-0.5795
9.02	-0.4673	-9.1467	-2.3786	0.0251	-0.0072	0.0105	-13.1563	35.1046	19.9946	0.2009	-0.2199	0.7586	-0.5795
9.03	-0.4611	-9.1461	-2.3741	0.0273	-0.0034	0.0102	-13.2790	35.0238	20.0594	0.2009	-0.2199	0.7586	-0.5795
9.04	-0.4635	-9.1476	-2.3790	0.0230	-0.0078	0.0084	-13.1748	34.9868	20.1046	0.2008	-0.2199	0.7585	-0.5795
9.05	-0.4599	-9.1484	-2.3785	0.0250	-0.0062	0.0100	-13.2125	35.1145	19.9690	0.2009	-0.2199	0.7586	-0.5795
9.06	-0.4653	-9.1454	-2.3740	0.0228	-0.0079	0.0118	-13.4165	35.0530	19.8529	0.2009	-0.2199	0.7586	-0.5795
9.07	-0.4644	-9.1375	-2.3660	0.0196	-0.0077	0.0104	-13.2349	35.1641	20.0821	0.2009	-0.2199	0.7586	-0.5795
9.08	-0.4757	-9.1481	-2.3716	0.0210	-0.0063	0.0152	-13.3151	35.1770	19.9797	0.2009	-0.2199	0.7586	-0.5795
9.09	-0.4726	-9.1401	-2.3606	0.0193	-0.0095	0.0143	-13.3111	35.1480	20.0057	0.2009	-0.2199	0.7586	-0.5795
9.1	-0.4787	-9.1463	-2.3595	0.0227	-0.0085	0.0189	-13.2971	35.2082	19.9487	0.2010	-0.2199	0.7586	-0.5795
9.11	-0.4718	-9.1524	-2.3588	0.0228	-0.0064	0.0109	-13.4586	35.3442	20.1846	0.2009	-0.2199	0.7585	-0.5794
9.12	-0.4765	-9.1439	-2.3529	0.0194	-0.0075	0.0084	-13.3313	35.3120	20.0166	0.2010	-0.2199	0.7586	-0.5795
9.13	-0.4707	-9.1428	-2.3498	0.0246	-0.0071	0.0118	-13.3384	35.0551	19.8955	0.2010	-0.2199	0.7586	-0.5795
9.14	-0.4689	-9.1432	-2.3386	0.0229	-0.0009	0.0073	-13.4204	35.2027	20.1063	0.2009	-0.2199	0.7586	-0.5795
9.15	-0.4724	-9.1400	-2.3405	0.0179	-0.0059	0.0109	-13.3044	35.3007	20.1383	0.2009	-0.2199	0.7586	-0.5794
9.16	-0.4746	-9.1465	-2.3388	0.0218	-0.0084	0.0122	-12.7504	35.1814	20.3639	0.2009	-0.2199	0.7586	-0.5794
9.17	-0.4811	-9.1493	-2.3381	0.0176	-0.0070	0.0106	-12.8883	35.2730	20.2157	0.2009	-0.2200	0.7586	-0.5794
9.18	-0.4843	-9.1477	-2.3362	0.0182	-0.0092	0.0100	-13.3374	35.5447	19.7171	0.2009	-0.2200	0.7586	-0.5794
9.19	-0.4866	-9.1431	-2.3250	0.0173	-0.0112	0.0147	-13.4885	36.3571	20.0941	0.2010	-0.2200	0.7587	-0.5794
9.2	-0.4906	-9.1508	-2.3347	0.0183	-0.0057	0.0116	-13.4467	35.5591	20.0866	0.2010	-0.2200	0.7587	-0.5793
9.21	-0.4920	-9.1478	-2.3415	0.0192	-0.0131	0.0152	-13.0930	35.0257	20.0523	0.2010	-0.2200	0.7587	-0.5794
9.22	-0.4845	-9.1479	-2.3438	0.0184	-0.0105	0.0100	-13.1087	35.2261	20.0878	0.2010	-0.2200	0.7586	-0.5793
9.23	-0.4842	-9.1515	-2.3502	0.0207	-0.0128	0.0142	-13.2484	35.3146	19.9023	0.2010	-0.2200	0.7587	-0.5793
9.24	-0.4811	-9.1496	-2.3542	0.0167	-0.0088	0.0097	-13.4093	35.3180	19.9170	0.2011	-0.2200	0.7587	-0.5793
9.25	-0.4746	-9.1472	-2.3627	0.0224	-0.0055	0.0082	-13.5440	35.3073	20.0498	0.2010	-0.2200	0.7586	-0.5792
9.26	-0.4749	-9.1468	-2.3652	0.0203	-0.0059	0.0128	-13.3017	35.2174	20.1828	0.2011	-0.2201	0.7588	-0.5793
9.27	-0.4772	-9.1455	-2.3760	0.0156	-0.0096	0.0149	-13.2058	35.2459	20.0901	0.2011	-0.2201	0.7587	-0.5792
9.28	-0.4712	-9.1435	-2.3690	0.0128	-0.0127	0.0138	-13.2911	35.2006	19.8466	0.2011	-0.2201	0.7588	-0.5792
9.29	-0.4750	-9.1441	-2.3771	0.0200	-0.0082	0.0108	-13.3372	35.4133	19.9737	0.2011	-0.2201	0.7587	-0.5791
9.3	-0.4804	-9.1516	-2.3879	0.0235	-0.0032	0.0045	-13.4747	35.3708	20.3069	0.2011	-0.2201	0.7588	-0.5792
9.31	-0.4830	-9.1496	-2.3874	0.0200	-0.0057	0.0143	-13.2549	35.1377	20.1390	0.2011	-0.2201	0.7587	-0.5792
9.32	-0.4865	-9.1424	-2.3860	0.0166	0.0004	0.0119	-13.3417	35.4184	19.9385	0.2011	-0.2201	0.7588	-0.5791
9.33	-0.4904	-9.1453	-2.3812	0.0185	-0.0085	0.0068	-13.4452	35.3574	19.9980	0.2010	-0.2201	0.7588	-0.5791
9.34	-0.4809	-9.1511	-2.3837	0.0221	-0.0052	0.0069	-13.3124	35.3416	19.9256	0.2010	-0.2201	0.7588	-0.5791
9.35	-0.4813	-9.1426	-2.3817	0.0165	-0.0061	0.0041	-13.5853	35.3724	20.0951	0.2010	-0.2202	0.7588	-0.5791
9.36	-0.4687	-9.1413	-2.3695	0.0166	-0.0069	0.0059	-13.2535	35.1948	20.1856	0.2010	-0.2202	0.7587	-0.5790
9.37	-0.4674	-9.1495	-2.3718	0.0202	-0.0111	0.0115	-13.2025	35.2612	20.0182	0.2010	-0.2202	0.7588	-0.5791
9.38	-0.4665	-9.1505	-2.3655	0.0266	-0.0099	0.0110	-13.4294	35.1831	19.9367	0.2010	-0.2202	0.7588	-0.5791
9.39	-0.4621	-9.1460	-2.3607	0.0255	-0.0051	0.0153	-13.4456	35.1033	19.8327	0.2010	-0.2202	0.7588	-0.5791
9.4	-0.4629	-9.1434	-2.3542	0.0259	-0.0020	0.0085	-13.2566	35.2815	20.1273	0.2010	-0.2202	0.7588	-0.5791
9.41	-0.4638	-9.1489	-2.3570	0.0256	-0.0020	0.0102	-13.0695	35.1618	19.9837	0.2010	-0.2202	0.7588	-0.5791
9.42	-0.4643	-9.1490	-2.3486	0.0225	-0.0074	0.0149	-13.3357	35.0556	20.0571	0.2010	-0.2202	0.7588	-0.5791
9.43	-0.4699	-9.1507	-2.3380	0.0190	-0.0078	0.0118	-13.4313	35.3388	19.9475	0.2010	-0.2202	0.7587	-0.5791
9.44	-0.4757	-9.1517	-2.3390	0.0190	-0.0082	0.0087	-13.3590	35.3017	20.2231	0.2011	-0.2202	0.7588	-0.5791
9.45	-0.4811	-9.1450	-2.3372	0.0199	-0.0078	0.0126	-13.3324	35.3154	20.2958	0.2010	-0.2202	0.7588	-0.5791
9.46	-0.4827	-9.1437	-2.3382	0.0226	-0.0105	0.0153	-13.2093	35.3185	20.0201	0.2011	-0.2202	0.7589	-0.5791
9.47	-0.4826	-9.1435	-2.3421	0.0254	-0.0057	0.0128	-13.0971	35.3103	20.0893	0.2011	-0.2202	0.7587	-0.5790
9.48	-0.4797	-9.1459	-2.3467	0.0168	-0.0051	0.0099	-13.2585	35.4394	20.0458	0.2011	-0.2202	0.7588	-0.5791
9.49	-0.4708	-9.1494	-2.3510	0.0223	-0.0014	0.0046	-13.4047	35.4911	20.2267	0.2011	-0.2202	0.7588	-0.5791
9.5	-0.4701	-9.1468	-2.3500	0.0256	-0.0043	0.0114	-13.3124	35.4186	19.9215	0.2010	-0.2202	0.7587	-0.5790
9.51	-0.4712	-9.1470	-2.3491	0.0173	-0.0035	0.0080	-13.4058	35.2624	20.1349	0.2010	-0.2202	0.7589	-0.5791
9.52	-0.4748	-9.1438	-2.3532	0.0233	-0.0040	0.0052	-13.2634	35.3861	20.0652	0.2010	-0.2202	0.7588	-0.5791
9.53	-0.4789	-9.1434	-2.3468	0.0157	-0.0028	0.0124	-13.3942	35.3296	19.9713	0.2010	-0.2202	0.7589	-0.5791
9.54	-0.4839	-9.1489	-2.3500	0.0139	-0.0034	0.0123	-13.4616	35.3159	20.1977	0.2010	-0.2202	0.7588	-0.5790
9.55	-0.4895	-9.1490	-2.3566	0.0265	-0.0070	0.0093	-13.2293	35.2739	19.9990	0.2010	-0.2202	0.7589	-0.5790
9.56	-0.4932	-9.1440	-2.3531	0.0266	-0.0119	0.0123	-13.4420	35.2831	20.1339	0.2010	-0.2202	0.7588	-0.5790
9.57	-0.4971	-9.1461	-2.3522	0.0197	-0.0096	0.0135	-13.1864	35.4755	20.1513	0.2010	-0.2202	0.7588	-0.5790
9.58	-0.4948	-9.1527	-2.3533	0.0203	-0.0061	0.0144	-13.1217	35.1514	20.0619	0.2010	-0.2202	0.7589	-0.5790
9.59	-0.4904	-9.1477	-2.3596	0.0154	-0.0063	0.0072	-13.2057	35.3275	20.0451	0.2010	-0.2202	0.7588	-0.5790
9.6	-0.4876	-9.1470	-2.3629	0.0151	-0.0077	0.0127	-13.2265	35.2095	20.1259	0.2010	-0.2203	0.7589	-0.5790
9.61	-0.4848	-9.1486	-2.3624	0.0229	-0.0078	0.0124	-13.4457	35.0199	20.1755	0.2010	-0.2202	0.7588	-0.5789
9.62	-0.4811	-9.1502	-2.3599	0.0221	-0.0091	0.0157	-13.4429	35.3802	19.9122	0.2011	-0.2203	0.7589	-0.5790
9.63	-0.4839	-9.1488	-2.3548	0.0195	-0.0059	0.0126	-13.3901	35.2411	20.0286	0.2011	-0.2202	0.7589	-0.5789
9.64	-0.4882	-9.1483	-2.3586	0.0132	-0.0075	0.0051	-13.3378	35.2471	20.0798	0.2011	-0.2203	0.7589	-0.5789
9.65	-0.4936	-9.1432	-2.3612	0.0163	-0.0056	0.0096	-13.3059	35.5532	20.0177	0.2010	-0.2203	0.7589	-0.5789
9.66	-0.4962	-9.1434	-2.3618	0.0249	-0.0069	0.0074	-12.7607	35.3667	20.2498	0.2010	-0.2203	0.7589	-0.5789
9.67	-0.4929	-9.1452	-2.3694	0.0248	-0.0061	0.0109	-12.6867	35.2465	20.3156	0.2011	-0.2203	0.7589	-0.5789
9.68	-0.4835	-9.1518	-2.3713	0.0224	-0.0047	0.0076	-13.0164	35.5604	20.1620	0.2010	-0.2203	0.7588	-0.5788
9.69	-0.4757	-9.1457	-2.3667	0.0227	-0.0082	0.0082	-13.2605	36.3600	20.0980	0.2010	-0.2203	0.7589	-0.5789
9.7	-0.4674	-9.1510	-2.3634	0.0220	-0.0047	0.0062	-13.2677	35.5809	20.0326	0.2010	-0.2203	0.7589	-0.5789
9.71	-0.4626	-9.1514	-2.3675	0.0204	-0.0035	0.0118	-13.4089	35.0160	20.0917	0.2010	-0.2204	0.7590	-0.5789
9.72	-0.4612	-9.1500	-2.3640	0.0228	-0.0030	0.0096	-13.5560	35.3192	20.0590	0.2010	-0.2203	0.7589	-0.5789
9.73	-0.4683	-9.1474	-2.3625	0.0227	-0.0066	0.0068	-13.5194	35.2697	20.0616	0.2010	-0.2204	0.7589	-0.5789
9.74	-0.4679	-9.1518	-2.3708	0.0247	-0.0086	0.0090	-13.3571	35.0564	20.2642	0.2010	-0.2204	0.7589	-0.5789
9.75	-0.4731	-9.1510	-2.3751	0.0254	-0.0100	0.0107	-13.4679	35.1558	20.1708	0.2010	-0.2204	0.7588	-0.5789
9.76	-0.4718	-9.1427	-2.3694	0.0175	-0.0120	0.0133	-13.2363	35.0567	19.9801	0.2011	-0.2204	0.7589	-0.5789
9.77	-0.4711	-9.1445	-2.3600	0.0221	-0.0133	0.0141	-13.1185	35.1024	20.1049	0.2011	-0.2204	0.7589	-0.5789
9.78	-0.4756	-9.1502	-2.3657	0.0260	-0.0120	0.0144	-13.2728	34.9998	20.0790	0.2011	-0.2204	0.7589	-0.5789
9.79	-0.4698	-9.1440	-2.3622	0.0204	-0.0094	0.0116	-13.0727	35.0097	20.0619	0.2011	-0.2204	0.7588	-0.5788
9.8	-0.4657	-9.1476	-2.3615	0.0252	-0.0064	0.0157	-13.1888	34.8542	20.1302	0.2012	-0.2204	0.7589	-0.5789
9.81	-0.4668	-9.1459	-2.3605	0.0256	-0.0065	0.0088	-13.3222	35.1868	20.1272	0.2012	-0.2204	0.7589	-0.5789
9.82	-0.4651	-9.1458	-2.3608	0.0247	-0.0071	0.0071	-13.2644	35.1891	20.0618	0.2011	-0.2204	0.7588	-0.5789
9.83	-0.4696	-9.1449	-2.3564	0.0220	-0.0055	0.0123	-13.3815	35.0622	19.9826	0.2012	-0.2204	0.7589	-0.5789
9.84	-0.4749	-9.1455	-2.3483	0.0276	-0.0100	0.0115	-13.3606	35.1631	20.0064	0.2012	-0.2204	0.7588	-0.5789
9.85	-0.4734	-9.1491	-2.3563	0.0197	-0.0081	0.0095	-13.3754	35.0247	20.1436	0.2012	-0.2204	0.7589	-0.5789
9.86	-0.4783	-9.1459	-2.3512	0.0202	-0.0053	0.0117	-13.3712	35.1687	20.2711	0.2012	-0.2204	0.7588	-0.5788
9.87	-0.4806	-9.1494	-2.3492	0.0261	-0.0065	0.0155	-13.3621	35.1493	20.0013	0.2012	-0.2204	0.7589	-0.5789
9.88	-0.4820	-9.1493	-2.3519	0.0199	-0.0090	0.0067	-13.3924	35.2959	20.0245	0.2012	-0.2204	0.7588	-0.5789
9.89	-0.4805	-9.1473	-2.3550	0.0268	-0.0037	0.0097	-13.5410	35.1213	20.0731	0.2012	-0.2204	0.7588	-0.5789
9.9	-0.4797	-9.1417	-2.3550	0.0116	-0.0046	0.0120	-13.5303	35.2678	20.1688	0.2012	-0.2204	0.7588	-0.5788
9.91	-0.4777	-9.1471	-2.3480	0.0211	-0.0067	0.0079	-13.4163	35.1885	20.0080	0.2012	-0.2205	0.7589	-0.5788
9.92	-0.4800	-9.1492	-2.3531	0.0274	-0.0067	0.0080	-13.4994	35.1767	20.0162	0.2012	-0.2205	0.7589	-0.5789
9.93	-0.4771	-9.1492	-2.3550	0.0231	-0.0059	0.0046	-13.5640	35.3272	20.1627	0.2011	-0.2205	0.7588	-0.5788
9.94	-0.4795	-9.1443	-2.3533	0.0225	-0.0076	0.0139	-13.4073	35.3261	20.1613	0.2012	-0.2205	0.7589	-0.5789
9.95	-0.4805	-9.1480	-2.3561	0.0203	-0.0145	0.0172	-13.1078	35.1563	19.8421	0.2012	-0.2205	0.7588	-0.5788
9.96	-0.4810	-9.1437	-2.3583	0.0259	-0.0123	0.0162	-13.3768	35.0133	20.1171	0.2013	-0.2205	0.7589	-0.5789
9.97	-0.4883	-9.1392	-2.3604	0.0231	-0.0080	0.0119	-13.3658	35.2808	20.2696	0.2013	-0.2205	0.7588	-0.5788
9.98	-0.4945	-9.1433	-2.3554	0.0216	-0.0068	0.0128	-13.3897	35.0801	19.9083	0.2013	-0.2205	0.7588	-0.5788
9.99	-0.5005	-9.1504	-2.3555	0.0265	-0.0070	0.0136	-13.3100	34.9446	20.2128	0.2013	-0.2205	0.7588	-0.5788
10	-0.4985	-9.1491	-2.3559	0.0215	-0.0063	0.0095	-13.2925	35.0750	20.0572	0.2013	-0.2205	0.7588	-0.5788
10.01	-0.4902	-9.1426	-2.3519	0.0210	-0.0073	0.0111	-13.2585	35.2588	20.0918	0.2013	-0.2205	0.7589	-0.5789
10.02	-0.4916	-9.1408	-2.3545	0.0208	-0.0051	0.0160	-13.3657	35.2400	20.0328	0.2013	-0.2205	0.7588	-0.5788
10.03	-0.4865	-9.1510	-2.3524	0.0161	-0.0092	0.0129	-13.4715	35.1896	19.9432	0.2013	-0.2205	0.7589	-0.5788
10.04	-0.4804	-9.1507	-2.3563	0.0193	-0.0073	0.0117	-13.4534	35.0451	20.0950	0.2013	-0.2205	0.7588	-0.5787
10.05	-0.4745	-9.1422	-2.3543	0.0242	-0.0000	0.0137	-13.4120	35.1975	20.0563	0.2013	-0.2205	0.7589	-0.5788
10.06	-0.4688	-9.1440	-2.3528	0.0264	-0.0043	0.0056	-13.5645	35.0961	20.2639	0.2013	-0.2205	0.7588	-0.5788
10.07	-0.4592	-9.1461	-2.3589	0.0246	-0.0043	0.0063	-13.5778	35.3051	20.1466	0.2013	-0.2205	0.7588	-0.5788
10.08	-0.4640	-9.1495	-2.3634	0.0232	-0.0009	0.0107	-13.3473	35.4098	20.1770	0.2013	-0.2205	0.7589	-0.5788
10.09	-0.4639	-9.1488	-2.3682	0.0157	-0.0058	0.0124	-13.3707	35.2814	20.2276	0.2013	-0.2205	0.7588	-0.5788
10.1	-0.4678	-9.1463	-2.3620	0.0168	-0.0027	0.0131	-13.4267	35.1517	19.9216	0.2013	-0.2205	0.7589	-0.5788
10.11	-0.4744	-9.1499	-2.3669	0.0211	-0.0088	0.0107	-13.4414	35.2328	20.1620	0.2013	-0.2204	0.7588	-0.5787
10.12	-0.4787	-9.1452	-2.3735	0.0233	-0.0095	0.0118	-13.4947	35.2316	20.2673	0.2013	-0.2205	0.7589	-0.5788
10.13	-0.4772	-9.1429	-2.3701	0.0248	-0.0092	0.0123	-13.2035	35.1074	20.0630	0.2013	-0.2205	0.7589	-0.5788
10.14	-0.4699	-9.1463	-2.3773	0.0270	-0.0122	0.0158	-13.3755	35.0322	20.1463	0.2014	-0.2205	0.7589	-0.5788
10.15	-0.4655	-9.1457	-2.3787	0.0197	-0.0056	0.0083	-13.1126	35.2182	20.2465	0.2013	-0.2205	0.7588	-0.5788
10.16	-0.4609	-9.1437	-2.3706	0.0228	-0.0087	0.0111	-12.8406	35.0601	20.3049	0.2014	-0.2205	0.7589	-0.5788
10.17	-0.4619	-9.1447	-2.3653	0.0254	-0.0125	0.0127	-13.0005	35.1088	20.2735	0.2014	-0.2205	0.7589	-0.5788
10.18	-0.4706	-9.1464	-2.3632	0.0165	-0.0089	0.0081	-13.3451	35.8361	19.8415	0.2014	-0.2205	0.7588	-0.5787
10.19	-0.4728	-9.1449	-2.3562	0.0172	-0.0065	0.0073	-13.3155	36.3298	19.8507	0.2014	-0.2205	0.7589	-0.5788
10.2	-0.4787	-9.1395	-2.3515	0.0249	-0.0106	0.0120	-13.2345	35.3834	19.9018	0.2014	-0.2205	0.7588	-0.5787
10.21	-0.4861	-9.1438	-2.3522	0.0235	-0.0081	0.0085	-13.2253	35.2285	19.8794	0.2014	-0.2206	0.7589	-0.5788
10.22	-0.4937	-9.1469	-2.3483	0.0250	-0.0061	0.0062	-13.0606	35.2728	20.0117	0.2014	-0.2206	0.7588	-0.5787
10.23	-0.4960	-9.1484	-2.3423	0.0188	-0.0030	0.0075	-13.2373	35.1893	19.9495	0.2014	-0.2206	0.7588	-0.5787
10.24	-0.4928	-9.1441	-2.3341	0.0203	-0.0057	0.0034	-13.4212	35.2677	20.0894	0.2014	-0.2206	0.7589	-0.5787
10.25	-0.4905	-9.1432	-2.3398	0.0258	-0.0011	0.0043	-13.4317	35.3957	20.1932	0.2013	-0.2206	0.7588	-0.5787
10.26	-0.4808	-9.1411	-2.3436	0.0176	0.0028	0.0073	-13.4242	35.2688	20.0311	0.2013	-0.2206	0.7589	-0.5788
10.27	-0.4755	-9.1426	-2.3411	0.0191	-0.0013	0.0055	-13.2925	35.3627	20.1091	0.2012	-0.2206	0.7589	-0.5787
10.28	-0.4747	-9.1520	-2.3453	0.0191	-0.0019	0.0101	-13.2463	35.3556	19.9953	0.2012	-0.2206	0.7589	-0.5788
10.29	-0.4769	-9.1510	-2.3470	0.0256	-0.0041	0.0081	-13.2626	35.1915	19.9858	0.2012	-0.2206	0.7588	-0.5787
10.3	-0.4797	-9.1470	-2.3445	0.0207	-0.0010	0.0107	-13.3559	35.2387	20.0953	0.2012	-0.2206	0.7589	-0.5788
10.31	-0.4867	-9.1471	-2.3412	0.0240	-0.0052	0.0098	-13.4840	35.2010	19.8886	0.2012	-0.2206	0.7589	-0.5788
10.32	-0.4906	-9.1444	-2.3526	0.0263	-0.0094	0.0140	-13.2499	35.2390	19.9189	0.2012	-0.2206	0.7588	-0.5788
10.33	-0.4936	-9.1441	-2.3606	0.0215	-0.0021	0.0113	-13.1933	35.1981	19.7858	0.2012	-0.2206	0.7589	-0.5788
10.34	-0.4926	-9.1458	-2.3647	0.0209	-0.0008	0.0087	-13.2182	35.4006	19.7318	0.2012	-0.2206	0.7589	-0.5788
10.35	-0.4828	-9.1477	-2.3647	0.0146	0.0042	0.0058	-13.2129	35.0928	20.0744	0.2011	-0.2206	0.7589	-0.5788
10.36	-0.4772	-9.1480	-2.3692	0.0216	0.0018	0.0105	-13.2825	35.0992	19.7645	0.2011	-0.2206	0.7588	-0.5787
10.37	-0.4642	-9.1432	-2.3679	0.0250	0.0059	0.0081	-13.1443	35.5662	19.8786	0.2010	-0.2206	0.7589	-0.5788
10.38	-0.4573	-9.1409	-2.3673	0.0217	-0.0099	0.0065	-13.3429	35.2590	19.9680	0.2010	-0.2206	0.7589	-0.5788
10.39	-0.4610	-9.1451	-2.3726	0.0210	-0.0026	0.0085	-13.3359	35.3936	19.8693	0.2010	-0.2206	0.7589	-0.5788
10.4	-0.4596	-9.1487	-2.3791	0.0206	-0.0043	0.0101	-13.2669	35.3869	19.8872	0.2010	-0.2206	0.7589	-0.5788
10.41	-0.4661	-9.1451	-2.3675	0.0190	-0.0012	0.0130	-13.2298	35.2776	19.9393	0.2010	-0.2206	0.7589	-0.5788
10.42	-0.4745	-9.1481	-2.3740	0.0236	-0.0046	0.0049	-13.3315	35.3393	20.1458	0.2010	-0.2206	0.7589	-0.5788
10.43	-0.4758	-9.1449	-2.3734	0.0236	-0.0037	0.0098	-13.3228	35.2015	19.9478	0.2010	-0.2206	0.7589	-0.5787
10.44	-0.4766	-9.1433	-2.3782	0.0191	0.0015	0.0050	-13.4685	35.2415	20.0229	0.2009	-0.2206	0.7590	-0.5788
10.45	-0.4774	-9.1425	-2.3688	0.0228	-0.0031	0.0061	-13.4575	35.1774	20.0771	0.2009	-0.2206	0.7589	-0.5788
10.46	-0.4721	-9.1426	-2.3671	0.0210	-0.0033	0.0073	-13.2343	35.3195	20.0848	0.2009	-0.2206	0.7590	-0.5788
10.47	-0.4682	-9.1478	-2.3645	0.0223	-0.0072	0.0086	-13.2736	35.2617	19.9839	0.2009	-0.2206	0.7589	-0.5788
10.48	-0.4687	-9.1484	-2.3657	0.0226	-0.0010	0.0068	-13.2427	35.5107	19.8639	0.2008	-0.2206	0.7589	-0.5788
10.49	-0.4690	-9.1461	-2.3567	0.0182	-0.0010	0.0113	-13.2740	35.2697	20.1090	0.2008	-0.2206	0.7589	-0.5788
10.5	-0.4749	-9.1450	-2.3594	0.0152	-0.0094	0.0175	-13.2404	35.0612	19.9298	0.2008	-0.2206	0.7589	-0.5787
10.51	-0.4767	-9.1445	-2.3574	0.0282	-0.0056	0.0118	-13.2718	35.3742	19.6717	0.2009	-0.2206	0.7590	-0.5788
10.52	-0.4797	-9.1432	-2.3475	0.0172	-0.0067	0.0070	-13.2195	35.0084	19.9210	0.2008	-0.2206	0.7590	-0.5788
10.53	-0.4837	-9.1458	-2.3525	0.0172	-0.0036	0.0091	-13.1487	35.3622	20.0488	0.2008	-0.2206	0.7590	-0.5788
10.54	-0.4818	-9.1471	-2.3490	0.0190	0.0012	0.0109	-13.2605	35.1012	19.7844	0.2008	-0.2206	0.7589	-0.5787
10.55	-0.4795	-9.1470	-2.3524	0.0261	0.0050	0.0123	-13.2542	35.0869	19.8492	0.2008	-0.2206	0.7590	-0.5788
10.56	-0.4803	-9.1417	-2.3506	0.0227	-0.0064	0.0100	-13.4047	35.2734	19.9261	0.2008	-0.2206	0.7590	-0.5788
10.57	-0.4742	-9.1457	-2.3482	0.0196	-0.0026	0.0103	-13.1702	35.1827	20.1257	0.2008	-0.2206	0.7590	-0.5787
10.58	-0.4698	-9.1511	-2.3475	0.0228	-0.0050	0.0095	-13.1861	35.2617	19.8409	0.2008	-0.2206	0.7590	-0.5788
10.59	-0.4686	-9.1447	-2.3519	0.0200	-0.0069	0.0165	-13.3807	35.2924	19.7390	0.2008	-0.2205	0.7590	-0.5787
10.6	-0.4779	-9.1473	-2.3474	0.0233	0.0013	0.0123	-13.3044	35.1325	20.0181	0.2008	-0.2205	0.7591	-0.5788
10.61	-0.4762	-9.1430	-2.3538	0.0194	-0.0025	0.0054	-13.4350	35.1986	19.9591	0.2007	-0.2205	0.7590	-0.5787
10.62	-0.4819	-9.1429	-2.3597	0.0149	-0.0068	0.0089	-13.4188	35.3546	20.1045	0.2007	-0.2206	0.7591	-0.5787
10.63	-0.4880	-9.1385	-2.3598	0.0192	-0.0024	0.0115	-13.4209	35.3613	19.8837	0.2007	-0.2205	0.7591	-0.5787
10.64	-0.4897	-9.1413	-2.3647	0.0146	-0.0036	0.0069	-13.4300	35.2564	19.9491	0.2007	-0.2206	0.7591	-0.5787
10.65	-0.4907	-9.1452	-2.3603	0.0235	-0.0015	0.0063	-13.2773	35.4298	20.1875	0.2006	-0.2206	0.7591	-0.5787
10.66	-0.4913	-9.1517	-2.3592	0.0238	-0.0070	0.0066	-12.8722	35.4557	20.2731	0.2006	-0.2206	0.7591	-0.5787
10.67	-0.4909	-9.1466	-2.3624	0.0250	-0.0055	0.0057	-12.8873	35.3629	20.3758	0.2006	-0.2206	0.7591	-0.5787
10.68	-0.4874	-9.1430	-2.3616	0.0228	-0.0096	0.0112	-13.2362	35.5666	20.0701	0.2006	-0.2206	0.7590	-0.5787
10.69	-0.4824	-9.1513	-2.3613	0.0192	-0.0115	0.0135	-13.4114	36.0732	19.7926	0.2007	-0.2206	0.7591	-0.5787
10.7	-0.4780	-9.1493	-2.3651	0.0215	-0.0086	0.0134	-13.2720	35.2082	19.8008	0.2007	-0.2206	0.7591	-0.5787
10.71	-0.4749	-9.1479	-2.3611	0.0206	-0.0157	0.0160	-13.1920	35.0093	19.8079	0.2008	-0.2206	0.7591	-0.5787
10.72	-0.4678	-9.1455	-2.3666	0.0182	-0.0108	0.0114	-13.1355	35.1780	19.8131	0.2007	-0.2206	0.7590	-0.5786
10.73	-0.4626	-9.1449	-2.3659	0.0185	-0.0099	0.0181	-13.0290	35.0606	20.0377	0.2008	-0.2206	0.7591	-0.5786
10.74	-0.4586	-9.1470	-2.3683	0.0226	-0.0051	0.0110	-13.2205	35.1693	19.9459	0.2008	-0.2206	0.7591	-0.5786
10.75	-0.4602	-9.1493	-2.3676	0.0201	-0.0137	0.0142	-13.1977	34.9892	20.0789	0.2008	-0.2206	0.7590	-0.5786
10.76	-0.4690	-9.1478	-2.3678	0.0219	-0.0099	0.0148	-13.3172	34.9983	20.0743	0.2009	-0.2207	0.7592	-0.5786
10.77	-0.4757	-9.1491	-2.3691	0.0227	-0.0096	0.0111	-13.2662	35.0871	19.9317	0.2009	-0.2206	0.7591	-0.5786
10.78	-0.4851	-9.1502	-2.3681	0.0224	-0.0118	0.0161	-13.3583	35.0594	20.0811	0.2009	-0.2207	0.7591	-0.5786
10.79	-0.4879	-9.1470	-2.3712	0.0194	-0.0044	0.0128	-13.3821	35.1899	20.0336	0.2009	-0.2206	0.7590	-0.5785
10.8	-0.4852	-9.1430	-2.3780	0.0189	-0.0018	0.0120	-13.3687	35.2335	20.2344	0.2009	-0.2206	0.7591	-0.5786
10.81	-0.4813	-9.1446	-2.3767	0.0109	-0.0086	0.0157	-13.3835	35.3884	20.1650	0.2009	-0.2206	0.7591	-0.5785
10.82	-0.4733	-9.1498	-2.3732	0.0161	-0.0064	0.0059	-13.3730	35.3677	20.2251	0.2009	-0.2206	0.7591	-0.5785
10.83	-0.4711	-9.1473	-2.3698	0.0273	-0.0078	0.0086	-13.3847	35.2232	20.2387	0.2009	-0.2207	0.7592	-0.5785
10.84	-0.4730	-9.1441	-2.3643	0.0207	-0.0046	0.0088	-13.5998	35.3661	19.8754	0.2009	-0.2207	0.7591	-0.5785
10.85	-0.4703	-9.1473	-2.3601	0.0236	-0.0041	0.0101	-13.4059	35.3875	20.0753	0.2009	-0.2207	0.7592	-0.5785
10.86	-0.4835	-9.1445	-2.3569	0.0212	-0.0055	0.0088	-13.3425	35.4216	20.0583	0.2009	-0.2206	0.7591	-0.5784
10.87	-0.4852	-9.1459	-2.3520	0.0246	-0.0088	0.0131	-13.4998	35.4137	19.9407	0.2009	-0.2207	0.7592	-0.5785
10.88	-0.4902	-9.1441	-2.3468	0.0252	-0.0089	0.0147	-13.3793	35.0813	20.0353	0.2009	-0.2207	0.7591	-0.5785
10.89	-0.4921	-9.1453	-2.3480	0.0204	-0.0071	0.0052	-13.1508	35.3370	20.0854	0.2009	-0.2207	0.7592	-0.5785
10.9	-0.4927	-9.1496	-2.3418	0.0175	-0.0135	0.0134	-13.0123	35.1485	20.0716	0.2009	-0.2207	0.7591	-0.5784
10.91	-0.4863	-9.1494	-2.3443	0.0167	-0.0068	0.0134	-13.2220	35.1475	19.9471	0.2010	-0.2207	0.7592	-0.5784
10.92	-0.4789	-9.1480	-2.3449	0.0202	-0.0104	0.0166	-13.1250	35.0142	19.8687	0.2010	-0.2207	0.7592	-0.5784
10.93	-0.4798	-9.1429	-2.3417	0.0202	-0.0145	0.0141	-13.2654	35.2009	19.9958	0.2010	-0.2207	0.7591	-0.5783
10.94	-0.4735	-9.1443	-2.3403	0.0187	-0.0064	0.0115	-13.5787	35.0743	19.9717	0.2011	-0.2207	0.7592	-0.5784
10.95	-0.4744	-9.1497	-2.3420	0.0228	-0.0064	0.0170	-13.3948	35.0592	20.0171	0.2011	-0.2207	0.7592	-0.5784
10.96	-0.4871	-9.1538	-2.3415	0.0266	-0.0083	0.0124	-13.5108	35.3222	20.1363	0.2011	-0.2207	0.7592	-0.5784
10.97	-0.4888	-9.1515	-2.3489	0.0208	-0.0092	0.0152	-13.2553	35.2251	20.2466	0.2011	-0.2207	0.7591	-0.5783
10.98	-0.4932	-9.1495	-2.3592	0.0212	-0.0055	0.0095	-13.3434	35.3352	20.2354	0.2011	-0.2207	0.7592	-0.5784
10.99	-0.4882	-9.1435	-2.3538	0.0217	-0.0022	0.0101	-13.3854	35.3121	20.0448	0.2011	-0.2207	0.7592	-0.5784
11	-0.4825	-9.1399	-2.3615	0.0242	-0.0044	0.0139	-13.3710	35.2566	19.8480	0.2011	-0.2206	0.7591	-0.5783
11.01	-0.4750	-9.1468	-2.3703	0.0263	-0.0050	0.0107	-13.2800	35.3709	20.1243	0.2011	-0.2207	0.7592	-0.5784
11.02	-0.4641	-9.1452	-2.3765	0.0226	-0.0042	0.0119	-13.4566	35.2363	20.1220	0.2011	-0.2206	0.7592	-0.5784
11.03	-0.4569	-9.1437	-2.3673	0.0189	-0.0030	0.0115	-13.4003	35.2989	20.0296	0.2011	-0.2207	0.7592	-0.5784
11.04	-0.4598	-9.1463	-2.3711	0.0202	-0.0039	0.0129	-13.3524	35.2559	20.1701	0.2011	-0.2206	0.7591	-0.5783
11.05	-0.4606	-9.1469	-2.3742	0.0221	-0.0042	0.0068	-13.4980	35.2912	20.1413	0.2011	-0.2206	0.7592	-0.5784
11.06	-0.4599	-9.1439	-2.3764	0.0298	-0.0039	0.0165	-13.4025	35.2284	19.9848	0.2011	-0.2206	0.7592	-0.5784
11.07	-0.4650	-9.1466	-2.3814	0.0207	-0.0080	0.0128	-13.3122	35.1075	19.9913	0.2011	-0.2206	0.7592	-0.5784
11.08	-0.4684	-9.1462	-2.3781	0.0221	-0.0062	0.0094	-13.1035	35.1046	19.9715	0.2011	-0.2206	0.7592	-0.5784
11.09	-0.4705	-9.1441	-2.3751	0.0217	-0.0054	0.0131	-13.0385	35.0189	20.0426	0.2011	-0.2206	0.7592	-0.5784
11.1	-0.4735	-9.1513	-2.3778	0.0180	-0.0065	0.0121	-13.2435	35.0224	20.0495	0.2011	-0.2206	0.7592	-0.5784
11.11	-0.4761	-9.1453	-2.3763	0.0258	-0.0065	0.0101	-13.0977	35.1000	19.8661	0.2011	-0.2206	0.7591	-0.5783
11.12	-0.4766	-9.1422	-2.3705	0.0261	-0.0064	0.0057	-13.1701	35.2379	20.0210	0.2011	-0.2206	0.7592	-0.5784
11.13	-0.4751	-9.1436	-2.3655	0.0243	-0.0070	0.0121	-13.3285	35.4340	20.0925	0.2011	-0.2206	0.7592	-0.5784
11.14	-0.4743	-9.1479	-2.3660	0.0254	-0.0063	0.0132	-13.2813	35.1808	19.9771	0.2011	-0.2206	0.7592	-0.5784
11.15	-0.4734	-9.1458	-2.3574	0.0259	-0.0067	0.0125	-13.2292	35.2146	20.0647	0.2011	-0.2206	0.7591	-0.5784
11.16	-0.4809	-9.1518	-2.3472	0.0245	-0.0065	0.0126	-12.8566	35.2659	20.4662	0.2012	-0.2206	0.7591	-0.5784
11.17	-0.4861	-9.1485	-2.3536	0.0207	-0.0051	0.0077	-12.7436	35.2272	20.5015	0.2011	-0.2206	0.7592	-0.5784
11.18	-0.4873	-9.1427	-2.3458	0.0244	0.0011	0.0091	-13.1300	35.7075	20.2676	0.2011	-0.2206	0.7591	-0.5784
11.19	-0.4895	-9.1478	-2.3477	0.0212	-0.0065	0.0104	-13.2993	36.3494	19.9568	0.2011	-0.2206	0.7592	-0.5785
11.2	-0.4909	-9.1434	-2.3479	0.0200	-0.0064	0.0080	-13.2498	35.5786	20.2748	0.2011	-0.2206	0.7591	-0.5784
11.21	-0.4853	-9.1447	-2.3508	0.0264	-0.0043	0.0073	-13.3495	35.2240	20.0310	0.2011	-0.2206	0.7592	-0.5785
11.22	-0.4834	-9.1502	-2.3534	0.0198	-0.0057	0.0065	-13.3497	35.2133	19.9302	0.2011	-0.2206	0.7591	-0.5784
11.23	-0.4817	-9.1467	-2.3506	0.0225	-0.0041	0.0057	-13.2562	35.1926	20.0243	0.2011	-0.2206	0.7591	-0.5784
11.24	-0.4738	-9.1415	-2.3556	0.0217	-0.0073	0.0096	-13.2903	35.3343	20.1047	0.2011	-0.2207	0.7591	-0.5784
11.25	-0.4760	-9.1454	-2.3584	0.0200	-0.0054	0.0141	-13.5550	35.1733	20.2599	0.2011	-0.2206	0.7591	-0.5784
11.26	-0.4797	-9.1503	-2.3665	0.0240	-0.0063	0.0128	-13.3007	35.2053	20.2159	0.2011	-0.2206	0.7592	-0.5785
11.27	-0.4828	-9.1495	-2.3708	0.0263	-0.0070	0.0110	-13.1916	35.0596	19.8672	0.2011	-0.2206	0.7591	-0.5784
11.28	-0.4859	-9.1485	-2.3654	0.0206	-0.0095	0.0142	-13.3011	35.2195	19.9562	0.2011	-0.2206	0.7592	-0.5785
11.29	-0.4879	-9.1482	-2.3718	0.0247	-0.0010	0.0069	-13.2668	35.0911	20.0948	0.2011	-0.2206	0.7591	-0.5784
11.3	-0.4935	-9.1415	-2.3698	0.0247	-0.0077	0.0098	-13.1667	35.1458	19.9324	0.2011	-0.2206	0.7591	-0.5785
