time	acceleration_x	acceleration_y	acceleration_z	gyroscope_x	gyroscope_y	gyroscope_z	magnetometer_x	magnetometer_y	magnetometer_z	quaternion_w	quaternion_x	quaternion_y	quaternion_z
0	-0.2931	-9.1929	-2.4255	0.0279	-0.0037	0.0065	12.9421	24.3399	17.9851	0.5766	-0.7249	0.3077	-0.2171
0.01	-0.2740	-9.1661	-2.4089	0.0261	0.0004	0.0051	13.1501	24.6081	17.9027	0.5767	-0.7250	0.3078	-0.2171
0.02	-0.2615	-9.1875	-2.4359	0.0248	0.0002	0.0043	13.5263	24.4008	18.1540	0.5767	-0.7250	0.3077	-0.2172
0.03	-0.2691	-9.1929	-2.4416	0.0266	-0.0080	0.0085	13.5221	24.4803	18.0223	0.5767	-0.7250	0.3077	-0.2172
0.04	-0.2687	-9.1835	-2.4304	0.0263	-0.0106	0.0104	13.1199	24.9423	17.8952	0.5767	-0.7250	0.3077	-0.2171
0.05	-0.2755	-9.1875	-2.4035	0.0263	-0.0115	0.0149	12.9556	25.0818	18.0629	0.5767	-0.7250	0.3077	-0.2171
0.06	-0.2828	-9.1953	-2.3828	0.0270	-0.0038	0.0108	12.9696	24.5324	17.7799	0.5767	-0.7250	0.3077	-0.2171
0.07	-0.2784	-9.1960	-2.3415	0.0355	-0.0133	0.0129	13.1176	24.2467	17.9930	0.5767	-0.7249	0.3076	-0.2171
0.08	-0.2749	-9.1901	-2.2934	0.0343	-0.0054	0.0119	13.0956	24.1833	17.7782	0.5769	-0.7250	0.3076	-0.2171
0.09	-0.2678	-9.1924	-2.2640	0.0431	-0.0042	0.0142	13.1051	24.3458	17.8427	0.5769	-0.7249	0.3076	-0.2171
0.1	-0.2704	-9.2058	-2.2278	0.0269	-0.0077	0.0102	13.1007	24.3142	17.9812	0.5770	-0.7249	0.3076	-0.2171
0.11	-0.2794	-9.1998	-2.1930	0.0320	-0.0089	0.0123	13.1018	24.1558	17.9132	0.5769	-0.7248	0.3076	-0.2171
0.12	-0.3018	-9.1943	-2.1648	0.0256	-0.0083	0.0144	13.0869	24.3339	18.1882	0.5770	-0.7248	0.3076	-0.2170
0.13	-0.3236	-9.1841	-2.1340	0.0269	-0.0071	0.0111	12.9306	24.3528	17.8444	0.5770	-0.7248	0.3076	-0.2170
0.14	-0.3484	-9.1881	-2.1173	0.0359	-0.0038	0.0162	13.0084	24.3506	17.9182	0.5770	-0.7248	0.3076	-0.2170
0.15	-0.3798	-9.1826	-2.1031	0.0259	-0.0008	0.0097	13.0254	24.4361	18.0470	0.5771	-0.7248	0.3076	-0.2171
0.16	-0.3846	-9.1913	-2.1090	0.0267	-0.0039	0.0065	12.8777	24.5906	17.8490	0.5770	-0.7248	0.3076	-0.2171
0.17	-0.4001	-9.1628	-2.0741	0.0285	-0.0044	0.0105	12.8470	24.5392	17.8444	0.5771	-0.7248	0.3076	-0.2171
0.18	-0.3793	-9.2665	-2.1890	0.0239	-0.0043	0.0091	12.9545	24.5020	17.8162	0.5770	-0.7247	0.3075	-0.2170
0.19	-0.3382	-9.2885	-2.2562	0.0239	-0.0072	0.0071	12.8348	24.6116	17.9909	0.5771	-0.7248	0.3075	-0.2171
0.2	-0.3108	-8.9464	-1.9298	0.0285	-0.0051	0.0154	12.8718	24.2922	17.9752	0.5771	-0.7248	0.3075	-0.2170
0.21	-0.3588	-9.2779	-2.2851	0.0153	0.0011	0.0153	12.8421	24.5175	17.9148	0.5770	-0.7248	0.3076	-0.2170
0.22	-0.3494	-9.3475	-2.3949	0.0219	-0.0042	0.0184	12.9659	24.5100	17.8454	0.5771	-0.7248	0.3076	-0.2170
0.23	-0.3739	-8.9722	-2.0430	0.0275	-0.0055	0.0150	13.0316	24.5456	17.8456	0.5771	-0.7248	0.3076	-0.2170
0.24	-0.4792	-9.0844	-2.1521	0.0168	-0.0011	0.0154	12.8439	24.6189	17.8242	0.5771	-0.7248	0.3076	-0.2170
0.25	-0.5265	-9.3510	-2.3824	0.0176	-0.0076	0.0153	12.9446	24.2228	17.9371	0.5770	-0.7247	0.3076	-0.2169
0.26	-0.5266	-9.1954	-2.2778	0.0187	-0.0038	0.0106	12.9506	24.2107	17.8313	0.5770	-0.7248	0.3077	-0.2169
0.27	-0.4750	-9.1056	-2.2376	0.0283	-0.0054	0.0073	12.9541	24.4133	17.7006	0.5770	-0.7248	0.3076	-0.2169
0.28	-0.4369	-9.2115	-2.3600	0.0178	-0.0066	0.0080	13.1887	24.2679	17.6403	0.5770	-0.7249	0.3076	-0.2169
0.29	-0.3811	-9.2131	-2.3692	0.0217	-0.0057	0.0070	13.2715	24.1943	17.8906	0.5770	-0.7248	0.3076	-0.2169
0.3	-0.3507	-9.1605	-2.3219	0.0228	-0.0085	0.0065	13.1596	24.2919	17.9498	0.5770	-0.7249	0.3076	-0.2169
0.31	-0.3371	-9.1786	-2.3429	0.0252	-0.0054	0.0111	13.0124	24.4373	17.9293	0.5770	-0.7249	0.3076	-0.2169
0.32	-0.3360	-9.2039	-2.3736	0.0240	-0.0122	0.0139	13.0957	24.4264	17.9243	0.5770	-0.7248	0.3075	-0.2168
0.33	-0.3417	-9.1848	-2.3605	0.0220	-0.0117	0.0094	13.2833	24.3698	18.0670	0.5770	-0.7249	0.3075	-0.2168
0.34	-0.3516	-9.1729	-2.3560	0.0190	-0.0059	0.0089	12.8644	24.5790	17.8105	0.5770	-0.7249	0.3075	-0.2168
0.35	-0.3660	-9.1849	-2.3655	0.0220	-0.0013	0.0046	12.8676	24.4334	17.9909	0.5770	-0.7250	0.3075	-0.2168
0.36	-0.3823	-9.1917	-2.3572	0.0270	-0.0041	0.0097	12.8514	24.4260	18.0384	0.5769	-0.7249	0.3075	-0.2168
0.37	-0.3937	-9.1870	-2.3293	0.0281	-0.0054	0.0094	12.8715	24.3328	17.8978	0.5770	-0.7249	0.3075	-0.2168
0.38	-0.3995	-9.1809	-2.3128	0.0237	-0.0075	0.0079	12.6778	24.5110	17.9448	0.5770	-0.7249	0.3075	-0.2168
0.39	-0.3961	-9.1812	-2.3065	0.0259	-0.0022	0.0079	12.7810	24.5022	17.9065	0.5770	-0.7249	0.3074	-0.2168
0.4	-0.3947	-9.1896	-2.2932	0.0261	-0.0044	0.0066	12.8461	24.6211	17.9396	0.5770	-0.7250	0.3075	-0.2169
0.41	-0.3876	-9.1822	-2.2671	0.0269	-0.0046	0.0085	12.7934	24.5780	17.8945	0.5770	-0.7249	0.3074	-0.2169
0.42	-0.3868	-9.1830	-2.2544	0.0280	-0.0067	0.0125	12.8771	24.4283	18.0002	0.5771	-0.7250	0.3074	-0.2169
0.43	-0.3849	-9.1874	-2.2448	0.0266	0.0004	0.0102	12.9005	24.4404	18.0363	0.5770	-0.7249	0.3074	-0.2168
0.44	-0.3860	-9.1693	-2.2097	0.0272	0.0018	0.0094	13.1831	24.3173	17.7824	0.5770	-0.7249	0.3074	-0.2169
0.45	-0.3842	-9.1870	-2.2012	0.0277	-0.0046	0.0117	13.1766	24.2652	17.6079	0.5770	-0.7249	0.3074	-0.2169
0.46	-0.3824	-9.2053	-2.2043	0.0316	-0.0049	0.0098	13.2192	24.2773	17.8593	0.5771	-0.7249	0.3074	-0.2169
0.47	-0.3711	-9.1893	-2.1828	0.0255	-0.0068	0.0141	13.0566	24.2791	17.8440	0.5771	-0.7249	0.3074	-0.2169
0.48	-0.3708	-9.1735	-2.1667	0.0271	-0.0055	0.0069	12.9499	24.2419	17.7358	0.5771	-0.7249	0.3074	-0.2169
0.49	-0.3569	-9.1809	-2.1735	0.0237	-0.0093	0.0073	13.0603	24.3407	17.7887	0.5771	-0.7249	0.3074	-0.2169
0.5	-0.3454	-9.1918	-2.1751	0.0269	-0.0067	0.0066	12.9240	24.3396	18.0515	0.5771	-0.7248	0.3073	-0.2169
0.51	-0.3256	-9.1910	-2.1725	0.0262	-0.0082	0.0106	13.0204	24.3836	17.9801	0.5771	-0.7249	0.3073	-0.2169
0.52	-0.3084	-9.1883	-2.1832	0.0255	-0.0050	0.0150	13.5054	24.4204	17.9743	0.5771	-0.7249	0.3073	-0.2168
0.53	-0.3026	-9.1866	-2.1903	0.0246	-0.0050	0.0049	13.4629	24.3447	18.0575	0.5771	-0.7249	0.3073	-0.2169
0.54	-0.2982	-9.1941	-2.2052	0.0259	-0.0023	0.0114	12.8305	24.6752	17.8873	0.5771	-0.7249	0.3073	-0.2169
0.55	-0.2905	-9.1924	-2.2106	0.0208	-0.0114	0.0131	13.0084	25.2279	17.9753	0.5771	-0.7249	0.3073	-0.2168
0.56	-0.2929	-9.1921	-2.2122	0.0155	-0.0040	0.0076	12.8956	24.6754	18.2204	0.5771	-0.7249	0.3073	-0.2168
0.57	-0.2962	-9.1941	-2.2246	0.0191	-0.0031	0.0088	12.7808	24.2688	18.0209	0.5770	-0.7249	0.3073	-0.2168
0.58	-0.3076	-9.1943	-2.2367	0.0217	-0.0042	0.0105	12.8185	24.5347	17.8231	0.5771	-0.7250	0.3073	-0.2168
0.59	-0.3133	-9.1897	-2.2434	0.0141	-0.0052	0.0130	13.0151	24.5885	18.1040	0.5770	-0.7250	0.3073	-0.2168
0.6	-0.3189	-9.1918	-2.2655	0.0238	-0.0097	0.0110	12.8695	24.5041	17.8982	0.5771	-0.7250	0.3073	-0.2168
0.61	-0.3183	-9.1967	-2.2830	0.0227	-0.0082	0.0169	12.8811	24.5360	18.0392	0.5770	-0.7249	0.3073	-0.2167
0.62	-0.3147	-9.1935	-2.2969	0.0192	-0.0099	0.0136	12.9778	24.5305	17.8858	0.5771	-0.7250	0.3073	-0.2167
0.63	-0.3134	-9.1923	-2.3127	0.0247	-0.0109	0.0146	12.9727	24.5159	18.0032	0.5771	-0.7250	0.3073	-0.2166
0.64	-0.3074	-9.1902	-2.3329	0.0231	-0.0078	0.0143	13.1703	24.5640	18.0274	0.5770	-0.7250	0.3073	-0.2166
0.65	-0.3094	-9.1931	-2.3522	0.0210	-0.0026	0.0174	12.7944	24.2884	18.0241	0.5771	-0.7251	0.3073	-0.2166
0.66	-0.3113	-9.1877	-2.3674	0.0237	-0.0062	0.0142	12.8518	24.4790	18.1440	0.5771	-0.7250	0.3073	-0.2166
0.67	-0.3164	-9.1945	-2.3773	0.0213	-0.0077	0.0140	12.8181	24.6774	18.0199	0.5771	-0.7251	0.3074	-0.2166
0.68	-0.3341	-9.1923	-2.3815	0.0244	-0.0067	0.0098	12.8689	24.4134	18.0105	0.5770	-0.7250	0.3073	-0.2165
0.69	-0.3488	-9.1847	-2.3762	0.0233	-0.0085	0.0131	12.8824	24.4341	18.0215	0.5771	-0.7250	0.3073	-0.2165
0.7	-0.3626	-9.1822	-2.3625	0.0248	-0.0017	0.0174	12.9044	24.3397	18.0140	0.5771	-0.7250	0.3073	-0.2165
0.71	-0.3735	-9.1840	-2.3575	0.0273	0.0034	0.0084	13.0444	24.6503	18.0275	0.5771	-0.7250	0.3074	-0.2165
0.72	-0.3798	-9.1820	-2.3396	0.0261	-0.0005	0.0129	13.1206	24.5010	17.9082	0.5771	-0.7250	0.3074	-0.2165
0.73	-0.3880	-9.1829	-2.3232	0.0265	0.0012	0.0115	13.0082	24.3211	17.9725	0.5771	-0.7250	0.3074	-0.2165
0.74	-0.3962	-9.1897	-2.3115	0.0231	-0.0051	0.0141	13.0682	24.4228	18.0588	0.5771	-0.7250	0.3074	-0.2165
0.75	-0.3990	-9.1849	-2.2958	0.0256	-0.0005	0.0113	12.9424	24.5438	17.9082	0.5770	-0.7249	0.3074	-0.2165
0.76	-0.3976	-9.1780	-2.2807	0.0269	-0.0030	0.0130	12.9841	24.5050	17.9472	0.5771	-0.7250	0.3074	-0.2166
0.77	-0.3998	-9.1858	-2.2668	0.0253	-0.0031	0.0124	12.8973	24.4415	18.0538	0.5771	-0.7249	0.3074	-0.2165
0.78	-0.3985	-9.1869	-2.2525	0.0273	-0.0005	0.0070	12.8931	24.6492	17.9308	0.5771	-0.7250	0.3074	-0.2166
0.79	-0.3968	-9.1857	-2.2430	0.0248	-0.0096	0.0094	12.7687	24.4988	17.9265	0.5771	-0.7249	0.3074	-0.2165
0.8	-0.4012	-9.1830	-2.2305	0.0305	-0.0114	0.0140	12.7563	24.3110	17.8046	0.5771	-0.7249	0.3074	-0.2165
0.81	-0.4032	-9.1900	-2.2232	0.0319	-0.0087	0.0155	12.9624	24.2393	17.9233	0.5772	-0.7249	0.3074	-0.2165
0.82	-0.4027	-9.1851	-2.2109	0.0273	-0.0001	0.0142	13.0283	24.3876	17.9355	0.5772	-0.7248	0.3074	-0.2165
0.83	-0.4051	-9.1853	-2.2042	0.0279	-0.0019	0.0092	13.1311	24.3288	18.0471	0.5772	-0.7249	0.3074	-0.2165
0.84	-0.4083	-9.1836	-2.2009	0.0256	-0.0102	0.0127	13.1345	24.3147	17.9979	0.5772	-0.7249	0.3074	-0.2165
0.85	-0.4007	-9.1853	-2.1967	0.0281	-0.0030	0.0126	13.0315	24.3750	17.8439	0.5773	-0.7249	0.3074	-0.2165
0.86	-0.3932	-9.1829	-2.2002	0.0234	-0.0075	0.0119	12.7498	24.4470	17.8308	0.5772	-0.7248	0.3073	-0.2165
0.87	-0.3793	-9.1835	-2.2040	0.0231	-0.0056	0.0105	12.9523	24.4166	17.9786	0.5773	-0.7249	0.3074	-0.2165
0.88	-0.3686	-9.1860	-2.2127	0.0272	-0.0082	0.0117	12.9336	24.3687	18.0472	0.5773	-0.7249	0.3073	-0.2165
0.89	-0.3611	-9.1834	-2.2195	0.0205	-0.0126	0.0114	13.0520	24.5642	17.9736	0.5772	-0.7249	0.3073	-0.2164
0.9	-0.3485	-9.1846	-2.2312	0.0237	-0.0040	0.0087	13.0089	24.5059	18.2600	0.5773	-0.7250	0.3073	-0.2164
0.91	-0.3423	-9.1898	-2.2417	0.0278	-0.0035	0.0105	12.9559	24.5589	18.0918	0.5773	-0.7249	0.3073	-0.2164
0.92	-0.3325	-9.1939	-2.2440	0.0236	-0.0075	0.0112	12.6859	24.4388	17.7680	0.5773	-0.7249	0.3073	-0.2164
0.93	-0.3256	-9.1884	-2.2451	0.0264	-0.0069	0.0136	12.6107	24.5090	18.0404	0.5772	-0.7248	0.3073	-0.2164
0.94	-0.3228	-9.1887	-2.2533	0.0246	-0.0033	0.0104	12.8503	24.7361	18.0867	0.5773	-0.7249	0.3073	-0.2164
0.95	-0.3225	-9.1895	-2.2591	0.0223	-0.0047	0.0090	12.9309	24.6461	17.7965	0.5773	-0.7249	0.3073	-0.2164
0.96	-0.3209	-9.1873	-2.2524	0.0282	-0.0043	0.0091	12.9813	24.5343	17.9406	0.5773	-0.7249	0.3073	-0.2164
0.97	-0.3203	-9.1891	-2.2556	0.0223	-0.0014	0.0122	12.8688	24.4412	17.9103	0.5773	-0.7249	0.3073	-0.2164
0.98	-0.3216	-9.1920	-2.2604	0.0257	-0.0057	0.0128	12.8697	24.5586	17.9701	0.5773	-0.7249	0.3073	-0.2164
0.99	-0.3210	-9.1948	-2.2627	0.0225	0.0006	0.0133	12.7476	24.4810	18.0057	0.5773	-0.7249	0.3073	-0.2164
1	-0.3299	-9.1862	-2.2695	0.0233	-0.0034	0.0126	12.9527	24.3264	18.1089	0.5772	-0.7248	0.3073	-0.2164
1.01	-0.3321	-9.1899	-2.2696	0.0259	-0.0041	0.0099	13.2605	24.4213	18.2043	0.5773	-0.7249	0.3073	-0.2164
1.02	-0.3365	-9.1860	-2.2758	0.0228	-0.0058	0.0127	13.2754	24.4056	18.0789	0.5773	-0.7249	0.3073	-0.2164
1.03	-0.3506	-9.1841	-2.2737	0.0281	-0.0111	0.0161	13.2120	24.4049	18.1294	0.5773	-0.7249	0.3073	-0.2164
1.04	-0.3543	-9.1873	-2.2765	0.0262	-0.0034	0.0088	13.1895	24.7274	17.9965	0.5773	-0.7249	0.3073	-0.2163
1.05	-0.3603	-9.1925	-2.2853	0.0266	-0.0078	0.0103	13.1276	24.9653	17.7067	0.5773	-0.7249	0.3073	-0.2163
1.06	-0.3620	-9.1827	-2.2780	0.0245	-0.0055	0.0100	12.9186	24.4855	17.7030	0.5774	-0.7249	0.3073	-0.2163
1.07	-0.3606	-9.1802	-2.2792	0.0250	-0.0070	0.0093	12.9215	24.4231	17.9022	0.5773	-0.7248	0.3072	-0.2163
1.08	-0.3584	-9.1882	-2.2845	0.0262	-0.0067	0.0115	12.9331	24.5313	17.8245	0.5774	-0.7249	0.3073	-0.2163
1.09	-0.3528	-9.1870	-2.2820	0.0261	-0.0050	0.0093	12.8927	24.5730	17.9246	0.5774	-0.7249	0.3072	-0.2163
1.1	-0.3497	-9.1879	-2.2796	0.0257	-0.0065	0.0069	12.8086	24.5682	17.8888	0.5774	-0.7249	0.3072	-0.2163
1.11	-0.3507	-9.1893	-2.2783	0.0234	-0.0038	0.0090	12.9544	24.4208	17.8375	0.5773	-0.7249	0.3072	-0.2163
1.12	-0.3560	-9.1873	-2.2742	0.0257	-0.0043	0.0139	12.7832	24.6505	18.0025	0.5774	-0.7249	0.3072	-0.2163
1.13	-0.3613	-9.1840	-2.2669	0.0218	-0.0043	0.0075	13.1021	24.5745	17.8650	0.5774	-0.7249	0.3072	-0.2163
1.14	-0.3680	-9.1816	-2.2600	0.0261	-0.0054	0.0122	12.9401	24.3446	17.8795	0.5773	-0.7249	0.3072	-0.2163
1.15	-0.3747	-9.1887	-2.2623	0.0268	-0.0030	0.0105	12.8426	24.4659	17.8304	0.5774	-0.7249	0.3072	-0.2163
1.16	-0.3779	-9.1857	-2.2621	0.0265	-0.0023	0.0088	12.9304	24.6627	17.9242	0.5774	-0.7249	0.3072	-0.2163
1.17	-0.3812	-9.1857	-2.2564	0.0269	-0.0096	0.0116	12.9653	24.5313	17.8861	0.5774	-0.7249	0.3072	-0.2163
1.18	-0.3765	-9.1810	-2.2533	0.0244	-0.0095	0.0122	13.1082	24.4539	17.8615	0.5774	-0.7248	0.3071	-0.2163
1.19	-0.3822	-9.1848	-2.2579	0.0244	-0.0068	0.0145	12.9797	24.4285	17.9575	0.5774	-0.7249	0.3072	-0.2163
1.2	-0.3797	-9.1813	-2.2523	0.0251	0.0059	0.0184	13.0218	24.3294	17.6638	0.5774	-0.7249	0.3072	-0.2163
1.21	-0.3785	-9.1842	-2.2494	0.0246	-0.0022	0.0082	13.0174	24.4424	17.7671	0.5774	-0.7248	0.3072	-0.2163
1.22	-0.3862	-9.1847	-2.2489	0.0271	-0.0057	0.0092	12.9950	24.4446	17.8016	0.5774	-0.7249	0.3072	-0.2163
1.23	-0.3857	-9.1870	-2.2474	0.0248	-0.0045	0.0136	12.9290	24.4357	17.8556	0.5774	-0.7248	0.3072	-0.2163
1.24	-0.3867	-9.1844	-2.2531	0.0238	-0.0077	0.0052	13.0583	24.2395	17.7358	0.5775	-0.7249	0.3072	-0.2163
1.25	-0.3829	-9.1844	-2.2549	0.0236	-0.0065	0.0125	12.8905	24.0825	17.8985	0.5774	-0.7248	0.3072	-0.2163
1.26	-0.3758	-9.1852	-2.2520	0.0229	-0.0103	0.0123	13.0614	24.2355	17.7409	0.5775	-0.7249	0.3072	-0.2163
1.27	-0.3668	-9.1837	-2.2536	0.0258	-0.0020	0.0109	12.9190	24.4489	17.8264	0.5774	-0.7249	0.3072	-0.2162
1.28	-0.3559	-9.1905	-2.2558	0.0246	-0.0055	0.0149	12.7509	24.4200	17.9164	0.5775	-0.7249	0.3072	-0.2162
1.29	-0.3513	-9.1898	-2.2615	0.0239	-0.0063	0.0074	12.7569	24.5319	18.0771	0.5774	-0.7249	0.3072	-0.2162
1.3	-0.3541	-9.1878	-2.2600	0.0219	0.0002	0.0083	12.7799	24.7401	17.9495	0.5774	-0.7249	0.3072	-0.2163
1.31	-0.3490	-9.1849	-2.2634	0.0241	-0.0056	0.0089	12.7149	24.6256	17.8257	0.5774	-0.7249	0.3072	-0.2163
1.32	-0.3494	-9.1840	-2.2697	0.0260	-0.0054	0.0058	12.6574	24.5243	17.8617	0.5774	-0.7248	0.3071	-0.2162
1.33	-0.3511	-9.1851	-2.2671	0.0273	-0.0010	0.0106	12.8878	24.4114	17.8738	0.5775	-0.7249	0.3072	-0.2163
1.34	-0.3491	-9.1826	-2.2713	0.0266	0.0052	0.0081	12.8121	24.4798	17.9481	0.5774	-0.7249	0.3071	-0.2163
1.35	-0.3515	-9.1879	-2.2855	0.0256	-0.0041	0.0092	12.9093	24.5572	17.7525	0.5775	-0.7249	0.3072	-0.2163
1.36	-0.3493	-9.1878	-2.2765	0.0228	0.0004	0.0127	13.0238	24.4156	17.7834	0.5774	-0.7248	0.3071	-0.2163
1.37	-0.3403	-9.1918	-2.2741	0.0271	-0.0084	0.0125	13.1054	24.4711	17.7767	0.5774	-0.7249	0.3072	-0.2163
1.38	-0.3405	-9.1912	-2.2755	0.0275	-0.0029	0.0133	13.0760	24.3864	17.9623	0.5775	-0.7249	0.3072	-0.2163
1.39	-0.3390	-9.1906	-2.2748	0.0265	-0.0031	0.0084	13.0950	24.3472	17.8920	0.5774	-0.7248	0.3071	-0.2163
1.4	-0.3387	-9.1877	-2.2754	0.0270	-0.0041	0.0121	13.0003	24.4589	17.6390	0.5775	-0.7249	0.3072	-0.2163
1.41	-0.3398	-9.1896	-2.2797	0.0241	-0.0048	0.0079	13.0082	24.4369	18.0254	0.5775	-0.7248	0.3071	-0.2163
1.42	-0.3526	-9.1884	-2.2800	0.0272	-0.0064	0.0098	12.9931	24.4387	17.9820	0.5775	-0.7249	0.3071	-0.2163
1.43	-0.3544	-9.1843	-2.2763	0.0246	-0.0023	0.0137	13.0803	24.4551	17.9431	0.5774	-0.7248	0.3071	-0.2163
1.44	-0.3560	-9.1862	-2.2729	0.0265	-0.0018	0.0109	13.0951	24.3099	17.8419	0.5775	-0.7248	0.3071	-0.2163
1.45	-0.3613	-9.1888	-2.2776	0.0259	-0.0051	0.0078	12.9145	24.4678	17.7592	0.5775	-0.7248	0.3071	-0.2163
1.46	-0.3629	-9.1863	-2.2755	0.0243	-0.0031	0.0083	12.9944	24.5479	18.0620	0.5775	-0.7248	0.3071	-0.2163
1.47	-0.3655	-9.1860	-2.2672	0.0288	-0.0055	0.0126	13.0056	24.5193	18.0094	0.5775	-0.7248	0.3071	-0.2164
1.48	-0.3627	-9.1878	-2.2659	0.0264	-0.0065	0.0121	12.7801	24.5154	17.8176	0.5775	-0.7248	0.3071	-0.2163
1.49	-0.3663	-9.1880	-2.2710	0.0209	-0.0002	0.0098	12.9390	24.5496	17.8716	0.5775	-0.7248	0.3071	-0.2164
1.5	-0.3623	-9.1787	-2.2572	0.0252	-0.0018	0.0091	12.8375	24.4118	17.8520	0.5775	-0.7248	0.3071	-0.2163
1.51	-0.3633	-9.1856	-2.2547	0.0217	0.0011	0.0112	12.9329	24.5850	17.9599	0.5775	-0.7248	0.3071	-0.2164
1.52	-0.3672	-9.1914	-2.2551	0.0256	0.0004	0.0082	13.6638	24.4129	18.3165	0.5775	-0.7248	0.3071	-0.2164
1.53	-0.3692	-9.1860	-2.2646	0.0253	-0.0021	0.0108	13.5487	24.4325	18.4557	0.5775	-0.7248	0.3071	-0.2164
1.54	-0.3775	-9.1858	-2.2599	0.0286	-0.0062	0.0128	12.9568	24.6472	18.0128	0.5775	-0.7248	0.3071	-0.2164
1.55	-0.3824	-9.1844	-2.2640	0.0262	-0.0042	0.0119	12.8785	25.0423	17.9141	0.5775	-0.7248	0.3071	-0.2164
1.56	-0.3842	-9.1870	-2.2674	0.0249	-0.0104	0.0128	12.9706	24.5353	17.8945	0.5775	-0.7248	0.3071	-0.2164
1.57	-0.3883	-9.1868	-2.2702	0.0274	-0.0097	0.0148	12.9639	24.4155	17.9965	0.5775	-0.7247	0.3071	-0.2163
1.58	-0.3844	-9.1827	-2.2692	0.0264	-0.0103	0.0137	13.1058	24.3587	18.0284	0.5776	-0.7248	0.3071	-0.2163
1.59	-0.3747	-9.1836	-2.2668	0.0270	-0.0100	0.0156	13.1084	24.1460	17.9837	0.5776	-0.7248	0.3071	-0.2163
1.6	-0.3641	-9.1886	-2.2677	0.0261	-0.0067	0.0111	13.0471	24.4930	18.1145	0.5777	-0.7248	0.3071	-0.2163
1.61	-0.3586	-9.1845	-2.2613	0.0267	-0.0051	0.0069	13.0439	24.3304	17.9998	0.5776	-0.7247	0.3070	-0.2163
1.62	-0.3521	-9.1856	-2.2609	0.0260	-0.0057	0.0095	12.9928	24.5336	17.7986	0.5776	-0.7248	0.3070	-0.2163
1.63	-0.3488	-9.1941	-2.2622	0.0252	-0.0102	0.0126	13.0565	24.6525	17.8289	0.5776	-0.7248	0.3070	-0.2163
1.64	-0.3485	-9.1889	-2.2666	0.0252	-0.0122	0.0162	12.8691	24.5897	17.8965	0.5776	-0.7247	0.3070	-0.2162
1.65	-0.3445	-9.1903	-2.2803	0.0249	-0.0062	0.0121	12.9964	24.6377	18.0203	0.5777	-0.7248	0.3070	-0.2162
1.66	-0.3421	-9.1911	-2.2760	0.0264	-0.0004	0.0026	12.8430	24.4530	18.0091	0.5777	-0.7248	0.3070	-0.2162
1.67	-0.3504	-9.1867	-2.2721	0.0266	-0.0042	0.0097	12.7530	24.4981	17.9443	0.5777	-0.7248	0.3070	-0.2163
1.68	-0.3551	-9.1893	-2.2755	0.0263	-0.0031	0.0072	12.7189	24.6291	17.8783	0.5776	-0.7247	0.3070	-0.2162
1.69	-0.3577	-9.1814	-2.2799	0.0277	-0.0073	0.0092	12.8481	24.5003	18.1732	0.5777	-0.7248	0.3070	-0.2163
1.7	-0.3596	-9.1839	-2.2852	0.0253	-0.0039	0.0069	12.6158	24.5659	18.1414	0.5777	-0.7248	0.3069	-0.2163
1.71	-0.3569	-9.1826	-2.2850	0.0224	-0.0046	0.0079	12.7941	24.7053	17.9744	0.5777	-0.7248	0.3069	-0.2163
1.72	-0.3543	-9.1859	-2.2791	0.0254	-0.0023	0.0071	12.9955	24.6922	18.1105	0.5777	-0.7248	0.3069	-0.2163
1.73	-0.3563	-9.1858	-2.2721	0.0205	-0.0100	0.0113	12.8631	24.5931	18.1955	0.5777	-0.7248	0.3069	-0.2163
1.74	-0.3576	-9.1870	-2.2645	0.0284	-0.0089	0.0128	12.9097	24.6029	17.9299	0.5777	-0.7248	0.3069	-0.2163
1.75	-0.3627	-9.1881	-2.2601	0.0215	-0.0066	0.0116	12.8939	24.3288	17.9215	0.5776	-0.7247	0.3069	-0.2162
1.76	-0.3643	-9.1844	-2.2594	0.0253	-0.0057	0.0132	12.9900	24.4086	17.9145	0.5777	-0.7248	0.3069	-0.2162
1.77	-0.3708	-9.1837	-2.2442	0.0265	-0.0059	0.0077	13.0014	24.5941	17.9407	0.5777	-0.7248	0.3069	-0.2162
1.78	-0.3742	-9.1903	-2.2453	0.0269	-0.0057	0.0079	13.1100	24.4290	17.8338	0.5777	-0.7248	0.3069	-0.2162
1.79	-0.3749	-9.1870	-2.2384	0.0245	-0.0083	0.0073	12.8604	24.5561	17.9285	0.5777	-0.7248	0.3068	-0.2162
1.8	-0.3725	-9.1865	-2.2303	0.0224	-0.0098	0.0079	12.8136	24.3749	18.0211	0.5777	-0.7248	0.3068	-0.2162
1.81	-0.3674	-9.1877	-2.2359	0.0262	-0.0058	0.0073	12.8217	24.2113	18.0358	0.5777	-0.7248	0.3068	-0.2162
1.82	-0.3622	-9.1870	-2.2325	0.0259	-0.0130	0.0136	12.8074	24.4665	18.2150	0.5777	-0.7248	0.3067	-0.2162
1.83	-0.3554	-9.1879	-2.2413	0.0262	-0.0102	0.0166	12.8143	24.4228	18.0504	0.5778	-0.7249	0.3068	-0.2162
1.84	-0.3515	-9.1892	-2.2443	0.0266	-0.0040	0.0070	12.8217	24.3595	18.0126	0.5778	-0.7248	0.3067	-0.2161
1.85	-0.3505	-9.1909	-2.2440	0.0264	-0.0017	0.0034	12.7959	24.5703	17.9468	0.5778	-0.7249	0.3067	-0.2162
1.86	-0.3528	-9.1869	-2.2447	0.0258	-0.0038	0.0072	12.9191	24.4186	17.8092	0.5777	-0.7248	0.3067	-0.2162
1.87	-0.3578	-9.1823	-2.2414	0.0269	-0.0060	0.0114	12.8746	24.4811	17.8373	0.5778	-0.7248	0.3067	-0.2162
1.88	-0.3669	-9.1881	-2.2487	0.0215	-0.0069	0.0103	12.8063	24.5394	17.8139	0.5778	-0.7248	0.3067	-0.2162
1.89	-0.3642	-9.1880	-2.2642	0.0199	-0.0053	0.0083	12.8189	24.5341	17.8369	0.5777	-0.7248	0.3067	-0.2162
1.9	-0.3581	-9.1860	-2.2619	0.0212	-0.0055	0.0099	12.9211	24.4247	17.8143	0.5778	-0.7249	0.3067	-0.2162
1.91	-0.3511	-9.1839	-2.2651	0.0253	-0.0055	0.0072	13.0116	24.4950	18.0028	0.5777	-0.7249	0.3066	-0.2162
1.92	-0.3418	-9.1913	-2.2691	0.0259	-0.0031	0.0137	12.9095	24.5444	17.9425	0.5778	-0.7249	0.3067	-0.2162
1.93	-0.3372	-9.1915	-2.2678	0.0223	-0.0081	0.0100	12.8828	24.5271	17.9049	0.5777	-0.7248	0.3066	-0.2161
1.94	-0.3307	-9.1901	-2.2710	0.0283	-0.0053	0.0122	13.0191	24.5141	17.9168	0.5778	-0.7249	0.3066	-0.2162
1.95	-0.3288	-9.1910	-2.2676	0.0285	-0.0035	0.0144	13.0791	24.2786	17.9425	0.5778	-0.7248	0.3066	-0.2162
1.96	-0.3262	-9.1915	-2.2761	0.0261	-0.0071	0.0096	13.0065	24.5731	17.8360	0.5778	-0.7248	0.3066	-0.2161
1.97	-0.3292	-9.1894	-2.2750	0.0267	-0.0052	0.0096	12.7841	24.4003	17.8263	0.5778	-0.7249	0.3066	-0.2162
1.98	-0.3358	-9.1877	-2.2727	0.0264	-0.0026	0.0109	12.4939	24.3969	17.9472	0.5778	-0.7248	0.3066	-0.2162
1.99	-0.3397	-9.1915	-2.2803	0.0262	-0.0018	0.0074	12.9044	24.6116	17.8849	0.5778	-0.7249	0.3066	-0.2162
2	-0.3486	-9.1856	-2.2697	0.0268	0.0001	0.0106	12.8006	24.3984	18.0185	0.5778	-0.7248	0.3066	-0.2162
2.01	-0.3484	-9.1837	-2.2683	0.0262	-0.0045	0.0117	13.0402	24.5070	18.1007	0.5778	-0.7248	0.3066	-0.2162
2.02	-0.3503	-9.1908	-2.2748	0.0240	-0.0082	0.0066	13.6072	24.3598	18.2840	0.5778	-0.7248	0.3066	-0.2162
2.03	-0.3527	-9.1911	-2.2746	0.0261	-0.0030	0.0080	13.4837	24.5388	18.2324	0.5778	-0.7248	0.3066	-0.2162
2.04	-0.3530	-9.1837	-2.2695	0.0254	0.0026	0.0076	13.0865	24.7481	17.9914	0.5778	-0.7248	0.3066	-0.2162
2.05	-0.3565	-9.1882	-2.2677	0.0200	-0.0027	0.0089	12.9391	25.1132	18.1953	0.5778	-0.7248	0.3066	-0.2162
2.06	-0.3569	-9.1889	-2.2679	0.0253	-0.0015	0.0072	12.7383	24.6112	17.9615	0.5778	-0.7249	0.3066	-0.2163
2.07	-0.3640	-9.1878	-2.2690	0.0259	-0.0024	0.0091	12.8304	24.4660	17.9044	0.5777	-0.7248	0.3066	-0.2163
2.08	-0.3646	-9.1847	-2.2630	0.0221	-0.0042	0.0063	12.9427	24.5527	18.0790	0.5778	-0.7249	0.3066	-0.2163
2.09	-0.3645	-9.1840	-2.2658	0.0241	-0.0033	0.0051	12.7481	24.6526	17.9398	0.5778	-0.7248	0.3065	-0.2163
2.1	-0.3722	-9.1879	-2.2694	0.0277	-0.0035	0.0156	12.8282	24.6759	18.0085	0.5778	-0.7249	0.3066	-0.2163
2.11	-0.3710	-9.1832	-2.2630	0.0263	-0.0059	0.0112	12.8271	24.3135	18.0240	0.5778	-0.7248	0.3065	-0.2163
2.12	-0.3729	-9.1816	-2.2622	0.0263	-0.0040	0.0103	12.8553	24.3741	18.1829	0.5778	-0.7248	0.3066	-0.2163
2.13	-0.3686	-9.1829	-2.2692	0.0269	-0.0077	0.0131	13.0891	24.3518	18.1677	0.5778	-0.7248	0.3066	-0.2163
2.14	-0.3653	-9.1811	-2.2624	0.0259	-0.0032	0.0085	13.0593	24.3771	18.1094	0.5778	-0.7248	0.3065	-0.2163
2.15	-0.3666	-9.1868	-2.2638	0.0250	0.0003	0.0094	13.0975	24.2553	18.0329	0.5779	-0.7249	0.3066	-0.2163
2.16	-0.3696	-9.1934	-2.2665	0.0245	-0.0071	0.0060	12.9193	24.1760	17.9195	0.5778	-0.7248	0.3065	-0.2163
2.17	-0.3731	-9.1841	-2.2586	0.0223	-0.0048	0.0073	12.9410	24.4510	17.9658	0.5778	-0.7249	0.3065	-0.2163
2.18	-0.3790	-9.1799	-2.2633	0.0270	-0.0084	0.0073	12.8032	24.3547	17.9281	0.5778	-0.7248	0.3065	-0.2163
2.19	-0.3763	-9.1891	-2.2636	0.0262	-0.0015	0.0113	12.8948	24.3586	17.9669	0.5778	-0.7249	0.3065	-0.2163
2.2	-0.3736	-9.1890	-2.2582	0.0276	-0.0061	0.0130	13.1636	24.3581	18.0796	0.5778	-0.7248	0.3065	-0.2163
2.21	-0.3736	-9.1813	-2.2596	0.0265	-0.0056	0.0097	12.9142	24.4152	17.9364	0.5778	-0.7248	0.3065	-0.2163
2.22	-0.3709	-9.1830	-2.2685	0.0239	-0.0006	0.0092	12.8240	24.5456	18.0369	0.5778	-0.7248	0.3065	-0.2164
2.23	-0.3685	-9.1812	-2.2669	0.0184	-0.0006	0.0068	12.7400	24.4805	18.0230	0.5778	-0.7248	0.3065	-0.2164
2.24	-0.3603	-9.1878	-2.2604	0.0258	-0.0032	0.0091	12.9489	24.4020	18.0390	0.5778	-0.7249	0.3065	-0.2164
2.25	-0.3530	-9.1860	-2.2582	0.0233	-0.0023	0.0055	12.8060	24.5427	17.9501	0.5777	-0.7248	0.3064	-0.2164
2.26	-0.3443	-9.1880	-2.2665	0.0245	0.0032	0.0055	12.8821	24.3854	17.9192	0.5778	-0.7249	0.3065	-0.2164
2.27	-0.3378	-9.1880	-2.2604	0.0258	0.0050	0.0112	12.8828	24.6815	17.8415	0.5778	-0.7248	0.3065	-0.2165
2.28	-0.3414	-9.1866	-2.2618	0.0244	-0.0048	0.0148	12.6148	24.5538	18.1051	0.5778	-0.7249	0.3065	-0.2165
2.29	-0.3451	-9.1884	-2.2769	0.0219	-0.0051	0.0087	12.8871	24.5038	18.1274	0.5777	-0.7248	0.3065	-0.2165
2.3	-0.3542	-9.1889	-2.2732	0.0263	-0.0036	0.0095	12.7845	24.5258	17.9598	0.5778	-0.7248	0.3065	-0.2165
2.31	-0.3616	-9.1854	-2.2706	0.0270	-0.0089	0.0150	12.9552	24.3572	17.9590	0.5778	-0.7249	0.3065	-0.2164
2.32	-0.3639	-9.1851	-2.2797	0.0260	-0.0071	0.0076	13.0240	24.3415	17.8605	0.5777	-0.7248	0.3064	-0.2164
2.33	-0.3697	-9.1883	-2.2812	0.0267	0.0018	0.0094	12.9925	24.5779	17.8556	0.5778	-0.7249	0.3065	-0.2165
2.34	-0.3684	-9.1822	-2.2796	0.0258	-0.0072	0.0137	13.0019	24.3168	18.0023	0.5778	-0.7248	0.3064	-0.2165
2.35	-0.3561	-9.1872	-2.2829	0.0265	-0.0074	0.0119	12.9935	24.3129	18.0753	0.5779	-0.7249	0.3065	-0.2165
2.36	-0.3530	-9.1847	-2.2877	0.0259	-0.0079	0.0094	12.9964	24.4704	17.8273	0.5778	-0.7248	0.3064	-0.2164
2.37	-0.3480	-9.1841	-2.2805	0.0272	-0.0037	0.0149	13.1258	24.4175	17.8942	0.5778	-0.7248	0.3064	-0.2164
2.38	-0.3520	-9.1854	-2.2759	0.0249	-0.0017	0.0119	12.9814	24.3225	18.1477	0.5778	-0.7248	0.3064	-0.2164
2.39	-0.3657	-9.1891	-2.2790	0.0255	0.0011	0.0122	12.8040	24.4493	18.0692	0.5778	-0.7248	0.3064	-0.2164
2.4	-0.3705	-9.1870	-2.2776	0.0266	-0.0003	0.0064	12.9351	24.4243	18.3673	0.5779	-0.7249	0.3065	-0.2165
2.41	-0.3761	-9.1784	-2.2672	0.0262	-0.0016	0.0097	12.8913	24.4786	18.0440	0.5778	-0.7248	0.3064	-0.2165
2.42	-0.3814	-9.1803	-2.2600	0.0261	-0.0055	0.0085	12.9661	24.5345	17.9101	0.5779	-0.7248	0.3065	-0.2165
2.43	-0.3851	-9.1864	-2.2614	0.0266	-0.0017	0.0070	12.7333	24.5137	17.9519	0.5778	-0.7247	0.3064	-0.2165
2.44	-0.3852	-9.1848	-2.2546	0.0246	0.0010	0.0058	12.6905	24.6216	17.8233	0.5778	-0.7248	0.3064	-0.2166
2.45	-0.3821	-9.1809	-2.2500	0.0255	0.0016	0.0061	12.9322	24.4442	18.0165	0.5778	-0.7248	0.3064	-0.2166
2.46	-0.3739	-9.1922	-2.2548	0.0267	-0.0029	0.0049	12.9088	24.4417	18.0958	0.5778	-0.7248	0.3064	-0.2166
2.47	-0.3712	-9.1877	-2.2547	0.0279	-0.0048	0.0100	12.8385	24.4406	18.2336	0.5778	-0.7248	0.3064	-0.2166
2.48	-0.3646	-9.1873	-2.2552	0.0262	-0.0062	0.0131	12.6883	24.3124	18.0401	0.5778	-0.7248	0.3064	-0.2166
2.49	-0.3645	-9.1908	-2.2559	0.0251	-0.0088	0.0135	12.7445	24.4342	17.8280	0.5779	-0.7248	0.3064	-0.2166
2.5	-0.3611	-9.1851	-2.2596	0.0250	-0.0020	0.0119	13.1161	24.4351	17.9398	0.5778	-0.7247	0.3064	-0.2166
2.51	-0.3631	-9.1866	-2.2561	0.0229	-0.0023	0.0088	13.2442	24.4662	18.1795	0.5779	-0.7248	0.3064	-0.2166
2.52	-0.3712	-9.1816	-2.2627	0.0254	0.0057	0.0076	13.6995	24.4025	18.0783	0.5778	-0.7248	0.3064	-0.2166
2.53	-0.3612	-9.1895	-2.2620	0.0249	-0.0079	0.0112	13.5034	24.4251	17.9968	0.5779	-0.7248	0.3064	-0.2166
2.54	-0.3570	-9.1881	-2.2652	0.0232	-0.0054	0.0113	12.9325	24.8463	17.8652	0.5778	-0.7248	0.3064	-0.2166
2.55	-0.3521	-9.1846	-2.2674	0.0259	-0.0075	0.0073	12.9151	25.2536	17.8280	0.5778	-0.7248	0.3064	-0.2166
2.56	-0.3409	-9.1884	-2.2693	0.0260	-0.0060	0.0130	12.7998	24.4744	17.8130	0.5779	-0.7248	0.3064	-0.2166
2.57	-0.3381	-9.1897	-2.2726	0.0246	0.0016	0.0092	12.9347	24.4922	17.9028	0.5778	-0.7247	0.3063	-0.2166
2.58	-0.3334	-9.1875	-2.2733	0.0255	-0.0091	0.0086	12.9933	24.6079	18.1455	0.5779	-0.7248	0.3064	-0.2166
2.59	-0.3359	-9.1858	-2.2750	0.0262	-0.0042	0.0148	12.8805	24.4908	17.8806	0.5779	-0.7248	0.3063	-0.2166
2.6	-0.3395	-9.1871	-2.2777	0.0249	-0.0030	0.0070	12.9985	24.5005	17.8237	0.5779	-0.7248	0.3064	-0.2166
2.61	-0.3471	-9.1866	-2.2693	0.0268	0.0002	0.0073	13.0754	24.6362	17.8361	0.5778	-0.7247	0.3063	-0.2166
2.62	-0.3454	-9.1809	-2.2727	0.0225	-0.0003	0.0107	12.9987	24.6418	17.9659	0.5779	-0.7248	0.3063	-0.2167
2.63	-0.3469	-9.1882	-2.2660	0.0242	0.0020	0.0090	12.9625	24.4727	17.9987	0.5778	-0.7248	0.3064	-0.2167
2.64	-0.3522	-9.1873	-2.2611	0.0265	-0.0074	0.0057	12.8363	24.5194	17.7763	0.5778	-0.7247	0.3063	-0.2167
2.65	-0.3502	-9.1885	-2.2551	0.0263	-0.0053	0.0094	12.9174	24.5388	18.0763	0.5779	-0.7248	0.3063	-0.2167
2.66	-0.3521	-9.1876	-2.2541	0.0260	-0.0007	0.0078	12.5654	24.5570	18.0596	0.5778	-0.7248	0.3063	-0.2167
2.67	-0.3549	-9.1868	-2.2510	0.0263	-0.0036	0.0167	12.8795	24.3385	17.9837	0.5779	-0.7248	0.3064	-0.2167
2.68	-0.3550	-9.1875	-2.2474	0.0244	-0.0086	0.0171	13.0146	24.6599	18.0388	0.5778	-0.7247	0.3063	-0.2167
2.69	-0.3555	-9.1863	-2.2437	0.0258	-0.0058	0.0102	13.0893	24.5518	17.8618	0.5779	-0.7248	0.3063	-0.2167
2.7	-0.3645	-9.1875	-2.2477	0.0262	0.0027	0.0124	13.0752	24.5376	18.0180	0.5779	-0.7247	0.3064	-0.2167
2.71	-0.3643	-9.1868	-2.2456	0.0285	-0.0041	0.0164	13.0940	24.4258	17.9329	0.5779	-0.7247	0.3064	-0.2167
2.72	-0.3649	-9.1894	-2.2501	0.0309	-0.0077	0.0141	12.9949	24.4642	17.9371	0.5779	-0.7247	0.3064	-0.2167
2.73	-0.3706	-9.1878	-2.2509	0.0235	-0.0074	0.0137	12.9953	24.4915	18.0085	0.5779	-0.7247	0.3064	-0.2167
2.74	-0.3683	-9.1856	-2.2524	0.0226	-0.0078	0.0110	13.0114	24.4553	17.8709	0.5779	-0.7247	0.3064	-0.2166
2.75	-0.3659	-9.1795	-2.2550	0.0265	-0.0053	0.0081	12.9754	24.6233	18.0458	0.5779	-0.7247	0.3063	-0.2166
2.76	-0.3665	-9.1892	-2.2656	0.0267	-0.0061	0.0079	13.0361	24.6015	17.7546	0.5780	-0.7247	0.3063	-0.2167
2.77	-0.3620	-9.1894	-2.2681	0.0173	-0.0068	0.0144	13.0900	24.5875	17.7929	0.5779	-0.7247	0.3063	-0.2166
2.78	-0.3638	-9.1836	-2.2710	0.0255	-0.0071	0.0097	13.0959	24.6728	18.1367	0.5779	-0.7248	0.3063	-0.2166
2.79	-0.3638	-9.1866	-2.2772	0.0205	-0.0070	0.0110	12.9776	24.6983	17.9726	0.5779	-0.7247	0.3063	-0.2166
2.8	-0.3651	-9.1817	-2.2756	0.0221	-0.0023	0.0089	12.6889	24.4291	18.0577	0.5779	-0.7248	0.3063	-0.2166
2.81	-0.3707	-9.1853	-2.2802	0.0275	-0.0030	0.0095	12.8261	24.4445	17.8722	0.5779	-0.7248	0.3063	-0.2166
2.82	-0.3726	-9.1793	-2.2785	0.0261	-0.0035	0.0099	12.8716	24.4104	17.8746	0.5779	-0.7247	0.3063	-0.2166
2.83	-0.3721	-9.1856	-2.2810	0.0268	-0.0017	0.0111	12.7014	24.5532	18.1577	0.5780	-0.7248	0.3063	-0.2166
2.84	-0.3717	-9.1861	-2.2747	0.0256	-0.0070	0.0078	12.7317	24.5911	17.8691	0.5779	-0.7247	0.3063	-0.2166
2.85	-0.3662	-9.1811	-2.2736	0.0248	-0.0074	0.0058	12.9537	24.6280	17.8162	0.5780	-0.7248	0.3063	-0.2166
2.86	-0.3610	-9.1868	-2.2731	0.0274	-0.0091	0.0127	12.9074	24.4750	17.8424	0.5779	-0.7247	0.3062	-0.2166
2.87	-0.3567	-9.1886	-2.2721	0.0263	-0.0019	0.0118	13.1522	24.5923	17.9525	0.5780	-0.7248	0.3062	-0.2166
2.88	-0.3483	-9.1870	-2.2678	0.0235	-0.0051	0.0098	12.9774	24.5019	17.8974	0.5780	-0.7248	0.3062	-0.2166
2.89	-0.3420	-9.1868	-2.2689	0.0252	0.0012	0.0080	12.8114	24.3948	18.0042	0.5779	-0.7247	0.3062	-0.2166
2.9	-0.3388	-9.1928	-2.2691	0.0265	-0.0081	0.0080	12.9497	24.5328	18.0127	0.5780	-0.7248	0.3062	-0.2167
2.91	-0.3398	-9.1869	-2.2692	0.0269	-0.0089	0.0080	12.8796	24.5450	17.8609	0.5780	-0.7248	0.3062	-0.2166
2.92	-0.3397	-9.1909	-2.2623	0.0250	-0.0047	0.0147	12.8155	24.5782	18.0201	0.5780	-0.7248	0.3062	-0.2166
2.93	-0.3517	-9.1902	-2.2675	0.0253	-0.0051	0.0099	12.8527	24.3808	17.9148	0.5779	-0.7247	0.3062	-0.2166
2.94	-0.3546	-9.1811	-2.2626	0.0262	-0.0055	0.0115	12.9239	24.5883	17.8268	0.5780	-0.7248	0.3062	-0.2166
2.95	-0.3630	-9.1848	-2.2592	0.0252	-0.0055	0.0085	12.9559	24.5572	17.8056	0.5780	-0.7248	0.3062	-0.2166
2.96	-0.3645	-9.1830	-2.2704	0.0263	-0.0046	0.0094	13.1004	24.4855	17.6523	0.5780	-0.7247	0.3062	-0.2166
2.97	-0.3568	-9.1817	-2.2732	0.0269	-0.0021	0.0134	12.9973	24.6414	17.7364	0.5780	-0.7248	0.3062	-0.2166
2.98	-0.3507	-9.1822	-2.2666	0.0241	-0.0057	0.0087	12.8626	24.4311	18.0587	0.5780	-0.7247	0.3062	-0.2166
2.99	-0.3473	-9.1878	-2.2719	0.0231	0.0006	0.0051	12.8628	24.4982	17.8500	0.5780	-0.7248	0.3062	-0.2167
3	-0.3460	-9.1895	-2.2719	0.0257	0.0010	0.0073	13.0337	24.5168	17.9142	0.5779	-0.7247	0.3061	-0.2167
3.01	-0.3482	-9.1879	-2.2721	0.0258	0.0015	0.0051	13.0584	24.5319	18.1106	0.5780	-0.7248	0.3062	-0.2167
3.02	-0.3568	-9.1844	-2.2616	0.0284	0.0006	0.0070	13.4334	24.7727	18.1738	0.5780	-0.7247	0.3061	-0.2168
3.03	-0.3604	-9.1843	-2.2569	0.0258	-0.0011	0.0076	13.3176	24.5512	18.2951	0.5780	-0.7248	0.3061	-0.2168
3.04	-0.3733	-9.1861	-2.2588	0.0258	-0.0058	0.0133	12.9796	24.9123	17.7151	0.5780	-0.7247	0.3061	-0.2168
3.05	-0.3783	-9.1855	-2.2495	0.0262	-0.0089	0.0113	12.8293	25.1189	17.7679	0.5780	-0.7247	0.3061	-0.2168
3.06	-0.3801	-9.1880	-2.2454	0.0268	-0.0078	0.0080	12.9200	24.5927	17.6856	0.5780	-0.7248	0.3061	-0.2168
3.07	-0.3805	-9.1880	-2.2478	0.0262	-0.0057	0.0144	13.0116	24.1260	17.8023	0.5780	-0.7247	0.3061	-0.2167
3.08	-0.3717	-9.1867	-2.2463	0.0294	-0.0023	0.0119	12.9746	24.5111	17.8561	0.5780	-0.7248	0.3061	-0.2168
3.09	-0.3656	-9.1836	-2.2424	0.0307	-0.0081	0.0141	12.9633	24.4350	17.8171	0.5780	-0.7247	0.3061	-0.2167
3.1	-0.3569	-9.1884	-2.2485	0.0204	-0.0062	0.0082	12.8724	24.2332	17.8572	0.5781	-0.7248	0.3061	-0.2167
3.11	-0.3547	-9.1874	-2.2478	0.0203	-0.0063	0.0082	12.9305	24.3896	17.6623	0.5780	-0.7247	0.3061	-0.2167
3.12	-0.3547	-9.1838	-2.2440	0.0245	-0.0056	0.0072	12.8743	24.2988	17.8333	0.5780	-0.7248	0.3061	-0.2167
3.13	-0.3613	-9.1938	-2.2491	0.0274	-0.0087	0.0132	12.9630	24.3927	17.7475	0.5780	-0.7247	0.3060	-0.2167
3.14	-0.3664	-9.1852	-2.2543	0.0210	-0.0128	0.0129	13.0028	24.4454	17.8876	0.5780	-0.7247	0.3060	-0.2167
3.15	-0.3692	-9.1806	-2.2549	0.0249	-0.0067	0.0094	12.7971	24.5433	17.8636	0.5781	-0.7248	0.3060	-0.2167
3.16	-0.3708	-9.1861	-2.2668	0.0272	-0.0072	0.0135	12.8399	24.4614	17.7366	0.5780	-0.7248	0.3060	-0.2166
3.17	-0.3594	-9.1866	-2.2726	0.0222	-0.0054	0.0087	12.8096	24.5864	17.6418	0.5781	-0.7248	0.3060	-0.2166
3.18	-0.3510	-9.1820	-2.2700	0.0247	-0.0019	0.0062	12.9082	24.4379	17.9040	0.5780	-0.7247	0.3060	-0.2166
3.19	-0.3415	-9.1898	-2.2774	0.0276	-0.0061	0.0092	12.7947	24.5615	17.8293	0.5781	-0.7248	0.3060	-0.2167
3.2	-0.3356	-9.1942	-2.2803	0.0226	-0.0042	0.0052	12.8537	24.3778	17.7916	0.5780	-0.7248	0.3059	-0.2167
3.21	-0.3349	-9.1910	-2.2822	0.0213	-0.0023	0.0054	12.7426	24.6371	17.9841	0.5780	-0.7248	0.3059	-0.2167
3.22	-0.3372	-9.1843	-2.2806	0.0254	-0.0032	0.0088	12.7378	24.6092	17.8416	0.5780	-0.7248	0.3059	-0.2167
3.23	-0.3406	-9.1907	-2.2854	0.0246	-0.0105	0.0153	12.6232	24.5266	17.7481	0.5780	-0.7248	0.3059	-0.2167
3.24	-0.3482	-9.1916	-2.2896	0.0212	-0.0077	0.0098	13.1393	24.5155	17.8374	0.5780	-0.7248	0.3059	-0.2167
3.25	-0.3550	-9.1807	-2.2823	0.0214	-0.0066	0.0090	13.0493	24.3560	17.9864	0.5780	-0.7248	0.3059	-0.2166
3.26	-0.3570	-9.1899	-2.2867	0.0272	-0.0084	0.0112	13.2007	24.6066	17.8394	0.5780	-0.7249	0.3059	-0.2166
3.27	-0.3577	-9.1909	-2.2839	0.0259	-0.0056	0.0067	13.3109	24.4936	17.7557	0.5780	-0.7248	0.3059	-0.2166
3.28	-0.3585	-9.1853	-2.2751	0.0266	-0.0058	0.0084	13.1592	24.1885	17.6055	0.5781	-0.7249	0.3059	-0.2166
3.29	-0.3538	-9.1863	-2.2728	0.0270	-0.0079	0.0074	12.9612	24.3226	17.7153	0.5780	-0.7248	0.3058	-0.2166
3.3	-0.3562	-9.1870	-2.2757	0.0262	-0.0102	0.0111	13.0261	24.3699	17.6799	0.5781	-0.7248	0.3058	-0.2166
3.31	-0.3562	-9.1857	-2.2645	0.0262	-0.0052	0.0125	13.0523	24.4614	17.5668	0.5781	-0.7249	0.3058	-0.2166
3.32	-0.3550	-9.1819	-2.2560	0.0263	-0.0115	0.0132	12.8855	24.3737	17.7127	0.5780	-0.7248	0.3058	-0.2166
3.33	-0.3600	-9.1905	-2.2606	0.0256	-0.0135	0.0129	12.9071	24.4930	17.7784	0.5781	-0.7249	0.3058	-0.2166
3.34	-0.3615	-9.1933	-2.2598	0.0244	-0.0062	0.0040	12.7843	24.5300	17.8064	0.5781	-0.7249	0.3057	-0.2165
3.35	-0.3657	-9.1795	-2.2510	0.0259	-0.0046	0.0120	12.8576	24.4109	17.9421	0.5782	-0.7249	0.3058	-0.2166
3.36	-0.3659	-9.1830	-2.2560	0.0263	-0.0003	0.0088	12.6968	24.5636	18.0618	0.5781	-0.7248	0.3057	-0.2166
3.37	-0.3694	-9.1892	-2.2647	0.0243	-0.0022	0.0077	12.8895	24.5200	18.0072	0.5781	-0.7249	0.3057	-0.2166
3.38	-0.3662	-9.1878	-2.2551	0.0257	-0.0042	0.0082	12.8568	24.4208	17.7695	0.5781	-0.7249	0.3057	-0.2166
3.39	-0.3671	-9.1821	-2.2564	0.0242	-0.0016	0.0079	12.8192	24.5534	17.7949	0.5781	-0.7248	0.3057	-0.2166
3.4	-0.3670	-9.1903	-2.2633	0.0276	0.0028	0.0116	12.8132	24.5275	17.7616	0.5781	-0.7249	0.3058	-0.2167
3.41	-0.3643	-9.1867	-2.2656	0.0255	-0.0008	0.0128	12.7417	24.4414	17.8239	0.5781	-0.7248	0.3057	-0.2166
3.42	-0.3657	-9.1809	-2.2581	0.0247	-0.0111	0.0141	13.1014	24.4335	17.9115	0.5781	-0.7249	0.3058	-0.2166
3.43	-0.3646	-9.1831	-2.2641	0.0271	0.0006	0.0072	12.9598	24.2600	17.7734	0.5781	-0.7248	0.3057	-0.2166
3.44	-0.3667	-9.1849	-2.2662	0.0248	-0.0075	0.0095	13.0172	24.3438	17.8008	0.5781	-0.7249	0.3057	-0.2166
3.45	-0.3657	-9.1858	-2.2629	0.0265	-0.0045	0.0068	13.0704	24.3679	17.7823	0.5781	-0.7248	0.3057	-0.2166
3.46	-0.3649	-9.1845	-2.2571	0.0261	-0.0056	0.0103	13.0861	24.1783	17.8073	0.5781	-0.7248	0.3057	-0.2166
3.47	-0.3652	-9.1863	-2.2610	0.0261	-0.0052	0.0104	12.9480	24.4090	17.7673	0.5781	-0.7249	0.3057	-0.2166
3.48	-0.3554	-9.1856	-2.2609	0.0240	-0.0046	0.0087	12.9245	24.3597	17.8381	0.5781	-0.7248	0.3057	-0.2166
3.49	-0.3480	-9.1850	-2.2541	0.0270	-0.0052	0.0094	13.0074	24.4142	17.6542	0.5781	-0.7249	0.3057	-0.2167
3.5	-0.3482	-9.1890	-2.2589	0.0232	-0.0043	0.0133	12.9737	24.2770	17.5699	0.5781	-0.7248	0.3056	-0.2166
3.51	-0.3442	-9.1910	-2.2613	0.0290	-0.0088	0.0065	13.2603	24.4343	18.0745	0.5782	-0.7249	0.3057	-0.2167
3.52	-0.3387	-9.1923	-2.2625	0.0253	-0.0067	0.0098	13.5201	24.6047	18.0379	0.5781	-0.7248	0.3056	-0.2166
3.53	-0.3369	-9.1851	-2.2647	0.0211	-0.0056	0.0070	13.3398	24.5192	18.0718	0.5781	-0.7249	0.3056	-0.2166
3.54	-0.3398	-9.1888	-2.2711	0.0269	-0.0002	0.0059	12.8918	24.7149	18.0525	0.5781	-0.7249	0.3056	-0.2167
3.55	-0.3480	-9.1863	-2.2728	0.0273	0.0017	0.0103	12.7899	25.1388	17.7131	0.5781	-0.7249	0.3056	-0.2167
3.56	-0.3522	-9.1808	-2.2648	0.0259	-0.0021	0.0052	13.0015	24.4545	17.7856	0.5781	-0.7249	0.3056	-0.2167
3.57	-0.3533	-9.1907	-2.2744	0.0266	0.0011	0.0062	12.8545	24.4833	17.8270	0.5781	-0.7248	0.3056	-0.2167
3.58	-0.3595	-9.1878	-2.2762	0.0266	0.0006	0.0092	12.8511	24.4266	17.8274	0.5781	-0.7249	0.3056	-0.2168
3.59	-0.3573	-9.1780	-2.2741	0.0262	-0.0055	0.0109	12.9430	24.4204	17.7796	0.5781	-0.7248	0.3056	-0.2168
3.6	-0.3546	-9.1869	-2.2826	0.0258	-0.0058	0.0069	12.9521	24.4247	17.7206	0.5782	-0.7249	0.3056	-0.2168
3.61	-0.3479	-9.1893	-2.2819	0.0269	-0.0054	0.0108	12.7271	24.4321	17.7313	0.5781	-0.7248	0.3055	-0.2168
3.62	-0.3400	-9.1804	-2.2736	0.0245	-0.0111	0.0151	12.9410	24.3984	17.7349	0.5781	-0.7249	0.3056	-0.2167
3.63	-0.3418	-9.1887	-2.2763	0.0250	-0.0013	0.0101	13.3076	24.3161	17.5410	0.5781	-0.7249	0.3056	-0.2168
3.64	-0.3454	-9.1909	-2.2790	0.0228	0.0018	0.0094	13.1698	24.4181	17.7195	0.5781	-0.7248	0.3056	-0.2168
3.65	-0.3600	-9.1818	-2.2693	0.0228	-0.0050	0.0092	13.0550	24.4473	17.8366	0.5782	-0.7249	0.3056	-0.2168
3.66	-0.3705	-9.1843	-2.2629	0.0277	-0.0036	0.0110	13.1407	24.5179	17.7094	0.5781	-0.7248	0.3056	-0.2168
3.67	-0.3801	-9.1865	-2.2619	0.0270	-0.0014	0.0086	12.9277	24.3167	17.9500	0.5782	-0.7249	0.3056	-0.2168
3.68	-0.3879	-9.1851	-2.2561	0.0263	-0.0045	0.0067	13.0042	24.4283	17.7916	0.5781	-0.7248	0.3055	-0.2168
3.69	-0.3863	-9.1819	-2.2508	0.0257	-0.0095	0.0097	13.0780	24.4269	17.8540	0.5781	-0.7249	0.3055	-0.2168
3.7	-0.3853	-9.1846	-2.2498	0.0263	-0.0088	0.0112	12.9899	24.4265	17.9261	0.5781	-0.7249	0.3055	-0.2168
3.71	-0.3743	-9.1871	-2.2512	0.0259	-0.0018	0.0125	12.9534	24.4324	17.8998	0.5781	-0.7248	0.3055	-0.2168
3.72	-0.3623	-9.1834	-2.2486	0.0260	-0.0047	0.0078	12.8225	24.4099	17.9161	0.5782	-0.7249	0.3055	-0.2168
3.73	-0.3588	-9.1810	-2.2448	0.0219	-0.0036	0.0077	12.9687	24.5745	17.6258	0.5781	-0.7249	0.3055	-0.2168
3.74	-0.3553	-9.1891	-2.2491	0.0246	-0.0062	0.0081	12.7128	24.5466	17.7029	0.5782	-0.7249	0.3055	-0.2168
3.75	-0.3622	-9.1833	-2.2468	0.0240	-0.0037	0.0077	12.9593	24.4108	17.7499	0.5781	-0.7248	0.3054	-0.2168
3.76	-0.3656	-9.1841	-2.2402	0.0238	0.0009	0.0113	12.8808	24.4190	17.7169	0.5781	-0.7249	0.3055	-0.2168
3.77	-0.3722	-9.1905	-2.2548	0.0253	0.0009	0.0082	13.0353	24.4545	17.9298	0.5781	-0.7249	0.3055	-0.2168
3.78	-0.3755	-9.1890	-2.2607	0.0217	-0.0041	0.0095	13.0416	24.6000	18.0946	0.5781	-0.7249	0.3055	-0.2169
3.79	-0.3666	-9.1807	-2.2653	0.0212	-0.0042	0.0085	12.8957	24.5117	18.0033	0.5781	-0.7249	0.3055	-0.2168
3.8	-0.3608	-9.1819	-2.2679	0.0265	-0.0029	0.0107	12.9174	24.3553	17.8297	0.5781	-0.7249	0.3055	-0.2169
3.81	-0.3538	-9.1914	-2.2759	0.0266	-0.0050	0.0149	13.1767	24.3944	17.6921	0.5781	-0.7249	0.3055	-0.2169
3.82	-0.3397	-9.1845	-2.2811	0.0252	0.0014	0.0132	13.3028	24.4537	17.8451	0.5781	-0.7248	0.3055	-0.2168
3.83	-0.3358	-9.1879	-2.2763	0.0253	0.0024	0.0118	13.0130	24.3218	17.7239	0.5781	-0.7249	0.3055	-0.2169
3.84	-0.3373	-9.1907	-2.2874	0.0243	-0.0037	0.0089	13.0433	24.3645	17.7353	0.5781	-0.7249	0.3055	-0.2169
3.85	-0.3390	-9.1870	-2.2889	0.0223	-0.0020	0.0080	13.1302	24.5716	17.7551	0.5781	-0.7249	0.3056	-0.2169
3.86	-0.3400	-9.1819	-2.2855	0.0253	-0.0018	0.0118	12.8956	24.6179	17.6268	0.5780	-0.7248	0.3055	-0.2169
3.87	-0.3460	-9.1834	-2.2896	0.0248	0.0021	0.0063	12.9642	24.3323	17.5552	0.5781	-0.7249	0.3055	-0.2169
3.88	-0.3469	-9.1932	-2.2900	0.0216	-0.0047	0.0088	13.2029	24.4036	17.5409	0.5780	-0.7249	0.3055	-0.2169
3.89	-0.3505	-9.1843	-2.2831	0.0263	-0.0054	0.0101	13.0832	24.4350	17.7018	0.5780	-0.7248	0.3055	-0.2169
3.9	-0.3455	-9.1818	-2.2773	0.0232	0.0008	0.0117	13.0937	24.5115	17.9592	0.5781	-0.7249	0.3056	-0.2170
3.91	-0.3433	-9.1937	-2.2846	0.0264	-0.0058	0.0047	13.0556	24.6489	17.8608	0.5780	-0.7249	0.3055	-0.2170
3.92	-0.3456	-9.1844	-2.2754	0.0257	0.0033	0.0087	12.9377	24.6965	17.7512	0.5781	-0.7249	0.3055	-0.2170
3.93	-0.3427	-9.1869	-2.2629	0.0258	-0.0095	0.0096	12.8374	24.5807	17.6285	0.5780	-0.7248	0.3055	-0.2170
3.94	-0.3455	-9.1934	-2.2635	0.0264	0.0008	0.0069	12.8594	24.5869	17.6336	0.5780	-0.7249	0.3055	-0.2170
3.95	-0.3511	-9.1907	-2.2568	0.0257	-0.0012	0.0079	12.9717	24.4099	17.8308	0.5780	-0.7249	0.3055	-0.2170
3.96	-0.3562	-9.1817	-2.2497	0.0247	-0.0035	0.0079	13.0860	24.2352	17.7372	0.5780	-0.7249	0.3055	-0.2170
3.97	-0.3612	-9.1863	-2.2460	0.0269	-0.0058	0.0070	13.0953	24.3748	17.8373	0.5780	-0.7249	0.3055	-0.2171
3.98	-0.3610	-9.1802	-2.2326	0.0239	-0.0063	0.0097	12.9442	24.4318	18.0677	0.5780	-0.7249	0.3055	-0.2170
3.99	-0.3626	-9.1902	-2.2321	0.0267	-0.0019	0.0161	12.9372	24.4280	17.8938	0.5780	-0.7249	0.3055	-0.2170
4	-0.3584	-9.1884	-2.2375	0.0247	-0.0012	0.0127	13.1866	24.4178	17.9292	0.5780	-0.7248	0.3055	-0.2170
4.01	-0.3589	-9.1868	-2.2369	0.0232	-0.0063	0.0103	13.2375	24.4474	17.9849	0.5780	-0.7249	0.3055	-0.2170
4.02	-0.3623	-9.1891	-2.2410	0.0256	-0.0073	0.0084	13.5804	24.5497	17.9039	0.5780	-0.7249	0.3055	-0.2170
4.03	-0.3612	-9.1912	-2.2490	0.0275	-0.0049	0.0135	13.5786	24.4638	17.8446	0.5781	-0.7249	0.3055	-0.2170
4.04	-0.3656	-9.1891	-2.2508	0.0218	-0.0071	0.0077	13.2151	24.5411	17.7356	0.5780	-0.7249	0.3054	-0.2170
4.05	-0.3686	-9.1904	-2.2534	0.0242	-0.0036	0.0075	13.0860	24.9907	17.7284	0.5780	-0.7249	0.3054	-0.2170
4.06	-0.3721	-9.1867	-2.2631	0.0238	-0.0031	0.0077	13.0515	24.4698	17.8745	0.5780	-0.7249	0.3054	-0.2170
4.07	-0.3788	-9.1849	-2.2739	0.0259	-0.0048	0.0077	12.9589	24.3349	17.8339	0.5780	-0.7249	0.3054	-0.2170
4.08	-0.3861	-9.1881	-2.2767	0.0221	-0.0041	0.0104	12.9933	24.5035	17.6598	0.5780	-0.7250	0.3054	-0.2170
4.09	-0.3816	-9.1845	-2.2819	0.0260	-0.0016	0.0063	12.8958	24.4420	17.7887	0.5780	-0.7249	0.3054	-0.2171
4.1	-0.3706	-9.1811	-2.2786	0.0301	0.0008	0.0112	12.7635	24.2660	17.7476	0.5781	-0.7250	0.3054	-0.2171
4.11	-0.3676	-9.1870	-2.2900	0.0261	-0.0018	0.0092	12.9251	24.4941	17.6083	0.5780	-0.7249	0.3054	-0.2171
4.12	-0.3626	-9.1869	-2.2891	0.0269	0.0024	0.0082	12.7647	24.6395	17.6052	0.5780	-0.7249	0.3054	-0.2171
4.13	-0.3525	-9.1804	-2.2840	0.0223	-0.0034	0.0056	13.0504	24.5116	17.6802	0.5780	-0.7249	0.3054	-0.2171
4.14	-0.3455	-9.1875	-2.2873	0.0258	0.0021	0.0086	12.9948	24.5738	17.7212	0.5779	-0.7249	0.3054	-0.2172
4.15	-0.3473	-9.1838	-2.2858	0.0269	-0.0016	0.0111	12.8667	24.5321	17.6974	0.5780	-0.7250	0.3054	-0.2172
4.16	-0.3474	-9.1856	-2.2821	0.0260	0.0005	0.0084	12.9110	24.5721	17.7020	0.5780	-0.7249	0.3054	-0.2172
4.17	-0.3510	-9.1915	-2.2810	0.0251	-0.0066	0.0120	12.8692	24.4871	17.7271	0.5780	-0.7249	0.3054	-0.2172
4.18	-0.3594	-9.1927	-2.2786	0.0243	-0.0020	0.0135	12.9743	24.3665	17.6091	0.5779	-0.7248	0.3054	-0.2172
4.19	-0.3656	-9.1836	-2.2630	0.0285	-0.0018	0.0129	13.1821	24.6132	17.7631	0.5780	-0.7249	0.3055	-0.2172
4.2	-0.3609	-9.1847	-2.2944	0.0244	0.0023	0.0091	13.0633	24.3175	17.7861	0.5780	-0.7249	0.3055	-0.2172
4.21	-0.3653	-9.1861	-2.3006	0.0311	-0.0041	0.0082	13.0546	24.3541	17.6088	0.5780	-0.7249	0.3054	-0.2172
4.22	-0.2666	-9.3134	-2.4589	0.0497	-0.0089	0.0157	13.0494	24.5110	17.6439	0.5781	-0.7248	0.3054	-0.2173
4.23	-0.1412	-9.4964	-2.6137	0.1998	0.0054	0.0638	12.9480	24.1823	17.6160	0.5787	-0.7243	0.3054	-0.2174
4.24	-0.4244	-9.2531	-2.3591	0.3752	0.0149	0.1099	12.8176	24.5321	17.6439	0.5800	-0.7232	0.3055	-0.2177
4.25	-0.5136	-9.1593	-2.1866	0.3908	-0.0210	0.0834	12.8143	24.4723	17.5243	0.5813	-0.7219	0.3053	-0.2180
4.26	-0.4881	-9.0720	-2.0186	0.3587	-0.0564	0.0430	13.0029	24.3650	17.4551	0.5828	-0.7210	0.3050	-0.2182
4.27	-0.4245	-8.9642	-1.8163	0.2240	-0.0560	0.0049	13.1491	24.8367	17.2361	0.5836	-0.7204	0.3045	-0.2183
4.28	-0.4217	-9.0631	-1.9069	0.0562	-0.0214	-0.0158	13.2849	24.9666	17.1813	0.5838	-0.7204	0.3043	-0.2184
4.29	-0.4908	-9.0558	-1.9106	-0.0545	-0.0240	-0.0371	12.9219	24.8988	17.5922	0.5835	-0.7206	0.3042	-0.2184
4.3	-0.4284	-9.0848	-1.9075	-0.1806	0.0054	-0.0548	13.1195	24.8355	17.5978	0.5827	-0.7213	0.3042	-0.2183
4.31	-0.4615	-9.2274	-2.2275	-0.2287	-0.0144	-0.0852	12.9375	24.6475	17.4368	0.5817	-0.7222	0.3041	-0.2182
4.32	0.0273	-9.2980	-1.9664	-0.2380	0.0172	-0.0433	12.8704	24.9031	17.1788	0.5807	-0.7229	0.3042	-0.2180
4.33	-0.4175	-9.3793	-2.4840	-0.2031	0.1063	0.0453	13.0228	24.7786	17.6654	0.5797	-0.7236	0.3049	-0.2179
4.34	-0.4248	-9.2547	-2.3731	-0.0464	0.0339	0.0319	13.0431	24.6805	17.7633	0.5793	-0.7237	0.3052	-0.2179
4.35	-0.3644	-9.2096	-2.2535	-0.0073	0.0179	0.0187	12.8522	24.8082	17.4870	0.5793	-0.7238	0.3053	-0.2179
4.36	-0.3342	-9.2034	-2.1956	0.0272	0.0019	0.0175	12.6899	24.7073	17.5409	0.5792	-0.7237	0.3053	-0.2179
4.37	-0.3532	-9.1874	-2.1863	0.0212	0.0068	0.0124	12.8956	24.4921	17.5385	0.5792	-0.7237	0.3054	-0.2179
4.38	-0.3688	-9.2097	-2.2067	0.0220	0.0013	0.0100	12.9905	24.4310	17.6839	0.5792	-0.7238	0.3054	-0.2179
4.39	-0.3856	-9.1911	-2.2015	0.0208	0.0050	0.0094	12.9781	24.2795	17.5114	0.5791	-0.7237	0.3054	-0.2179
4.4	-0.3865	-9.1825	-2.2128	0.0219	-0.0009	0.0068	12.9601	24.4212	17.5706	0.5791	-0.7238	0.3055	-0.2180
4.41	-0.3794	-9.1937	-2.2276	0.0257	-0.0058	0.0118	13.0257	24.3346	17.6256	0.5791	-0.7238	0.3054	-0.2180
4.42	-0.3626	-9.1948	-2.2330	0.0266	-0.0020	0.0085	13.0212	24.3106	17.6873	0.5791	-0.7238	0.3055	-0.2180
4.43	-0.3489	-9.1866	-2.2338	0.0260	0.0002	0.0107	12.8734	24.5998	17.7297	0.5791	-0.7237	0.3054	-0.2180
4.44	-0.3328	-9.1968	-2.2488	0.0249	-0.0048	0.0125	12.8954	24.4952	17.5753	0.5791	-0.7238	0.3055	-0.2180
4.45	-0.3194	-9.2021	-2.2542	0.0262	-0.0058	0.0101	12.9298	24.3204	17.6958	0.5791	-0.7238	0.3054	-0.2180
4.46	-0.3183	-9.1954	-2.2531	0.0265	0.0037	0.0104	13.0029	24.2536	17.7372	0.5791	-0.7237	0.3055	-0.2180
4.47	-0.3214	-9.1937	-2.2521	0.0281	0.0009	0.0064	12.8778	24.5322	17.6011	0.5791	-0.7238	0.3055	-0.2181
4.48	-0.3329	-9.1993	-2.2530	0.0237	0.0002	0.0100	12.7760	24.6100	17.7561	0.5791	-0.7237	0.3055	-0.2181
4.49	-0.3455	-9.1932	-2.2579	0.0263	-0.0028	0.0036	12.6985	24.5614	17.8141	0.5791	-0.7238	0.3055	-0.2181
4.5	-0.3528	-9.1901	-2.2575	0.0258	-0.0033	0.0104	12.8105	24.7356	17.6915	0.5790	-0.7237	0.3054	-0.2181
4.51	-0.3571	-9.1921	-2.2592	0.0265	0.0029	0.0051	13.1016	24.6162	17.7182	0.5791	-0.7238	0.3055	-0.2181
4.52	-0.3583	-9.1928	-2.2573	0.0259	0.0083	0.0059	13.1547	24.9215	17.8638	0.5790	-0.7237	0.3055	-0.2182
4.53	-0.3582	-9.1882	-2.2459	0.0260	0.0032	0.0069	13.1928	24.7746	17.8441	0.5790	-0.7237	0.3055	-0.2182
4.54	-0.3585	-9.1950	-2.2494	0.0296	-0.0037	0.0134	13.1067	24.8704	17.5112	0.5790	-0.7237	0.3055	-0.2182
4.55	-0.3627	-9.1949	-2.2459	0.0299	-0.0003	0.0116	13.0531	25.1399	17.5189	0.5791	-0.7237	0.3055	-0.2182
4.56	-0.3654	-9.1932	-2.2459	0.0259	0.0015	0.0101	12.9559	24.5203	17.7088	0.5791	-0.7237	0.3055	-0.2183
4.57	-0.3718	-9.1980	-2.2455	0.0254	-0.0005	0.0144	13.0908	24.3253	17.4783	0.5790	-0.7236	0.3055	-0.2183
4.58	-0.3779	-9.1992	-2.2465	0.0265	-0.0036	0.0106	13.1676	24.5022	17.4610	0.5791	-0.7237	0.3055	-0.2183
4.59	-0.3813	-9.1935	-2.2448	0.0225	-0.0018	0.0173	13.0377	24.3811	17.3746	0.5790	-0.7237	0.3055	-0.2183
4.6	-0.3857	-9.1833	-2.2366	0.0253	-0.0018	0.0101	12.9280	24.4041	17.6465	0.5791	-0.7237	0.3056	-0.2183
4.61	-0.3704	-9.2069	-2.2562	0.0254	-0.0054	0.0127	12.9051	24.5485	17.6461	0.5790	-0.7236	0.3055	-0.2183
4.62	-0.3630	-9.1871	-2.2381	0.0256	-0.0072	0.0116	13.0255	24.6285	17.6412	0.5791	-0.7237	0.3055	-0.2182
4.63	-0.3627	-9.1809	-2.2283	0.0258	-0.0069	0.0129	12.7906	24.4241	17.6726	0.5791	-0.7237	0.3055	-0.2182
4.64	-0.3675	-9.2051	-2.2495	0.0247	-0.0095	0.0128	12.9912	24.5230	17.8607	0.5790	-0.7236	0.3055	-0.2182
4.65	-0.3680	-9.1935	-2.2317	0.0269	-0.0036	0.0127	13.0715	24.6198	17.5919	0.5791	-0.7237	0.3056	-0.2182
4.66	-0.3658	-9.1852	-2.2339	0.0259	-0.0009	0.0075	12.9996	24.5073	17.4387	0.5791	-0.7237	0.3055	-0.2182
4.67	-0.3724	-9.1939	-2.2326	0.0268	0.0051	0.0103	12.9465	24.5434	17.5182	0.5791	-0.7237	0.3056	-0.2183
4.68	-0.3765	-9.1951	-2.2326	0.0259	-0.0024	0.0115	12.8991	24.5138	17.7511	0.5790	-0.7236	0.3055	-0.2182
4.69	-0.3842	-9.1917	-2.2338	0.0255	0.0028	0.0108	13.0086	24.6472	17.7041	0.5791	-0.7237	0.3056	-0.2183
4.7	-0.3896	-9.1909	-2.2325	0.0256	0.0009	0.0089	13.1698	24.5783	17.6248	0.5791	-0.7236	0.3056	-0.2183
4.71	-0.3888	-9.1844	-2.2236	0.0266	0.0048	0.0063	13.0261	24.4329	17.6615	0.5790	-0.7236	0.3056	-0.2183
4.72	-0.3867	-9.1886	-2.2216	0.0264	0.0049	0.0070	12.9018	24.5378	17.6407	0.5790	-0.7236	0.3056	-0.2184
4.73	-0.3798	-9.1997	-2.2262	0.0267	0.0014	0.0135	12.9016	24.6607	17.6361	0.5790	-0.7236	0.3056	-0.2184
4.74	-0.3638	-9.1904	-2.2254	0.0263	0.0016	0.0135	13.0017	24.7213	17.6561	0.5790	-0.7236	0.3057	-0.2184
4.75	-0.3519	-9.1988	-2.2289	0.0246	-0.0053	0.0078	13.2026	24.6071	17.5679	0.5790	-0.7235	0.3056	-0.2184
4.76	-0.3397	-9.1953	-2.2217	0.0248	0.0019	0.0075	13.1172	24.6189	17.4488	0.5790	-0.7236	0.3057	-0.2185
4.77	-0.3324	-9.1924	-2.2202	0.0291	-0.0046	0.0076	13.0830	24.6031	17.5060	0.5790	-0.7236	0.3056	-0.2185
4.78	-0.3262	-9.1983	-2.2230	0.0242	-0.0083	0.0094	13.0212	24.6296	17.6608	0.5790	-0.7236	0.3056	-0.2185
4.79	-0.3297	-9.2006	-2.2226	0.0265	-0.0090	0.0148	12.9046	24.5060	17.5516	0.5790	-0.7236	0.3056	-0.2184
4.8	-0.3389	-9.1945	-2.2261	0.0298	-0.0027	0.0119	12.9278	24.5565	17.4372	0.5791	-0.7236	0.3056	-0.2184
4.81	-0.3521	-9.1982	-2.2278	0.0223	-0.0061	0.0114	12.9161	24.4536	17.5251	0.5791	-0.7236	0.3056	-0.2184
4.82	-0.3653	-9.1935	-2.2315	0.0238	-0.0044	0.0131	12.9161	24.5130	17.6532	0.5790	-0.7236	0.3056	-0.2184
4.83	-0.3697	-9.1873	-2.2354	0.0271	-0.0047	0.0128	13.0194	24.5426	17.6453	0.5791	-0.7236	0.3056	-0.2184
4.84	-0.3658	-9.1909	-2.2349	0.0229	-0.0065	0.0082	12.8374	24.5236	17.6403	0.5790	-0.7236	0.3056	-0.2184
4.85	-0.3574	-9.1946	-2.2458	0.0229	-0.0023	0.0069	12.8882	24.5195	17.6480	0.5791	-0.7237	0.3056	-0.2184
4.86	-0.3483	-9.1896	-2.2478	0.0260	0.0026	0.0063	13.0128	24.6110	17.6349	0.5790	-0.7236	0.3056	-0.2184
4.87	-0.3383	-9.1938	-2.2491	0.0268	0.0018	0.0086	13.1004	24.7304	17.6575	0.5790	-0.7236	0.3056	-0.2185
4.88	-0.3390	-9.2022	-2.2492	0.0267	0.0005	0.0138	13.0300	24.4826	17.6215	0.5790	-0.7236	0.3056	-0.2185
4.89	-0.3485	-9.1925	-2.2460	0.0268	-0.0004	0.0060	12.9644	24.7069	17.7460	0.5790	-0.7236	0.3056	-0.2185
4.9	-0.3553	-9.1909	-2.2418	0.0251	0.0009	0.0117	13.0277	24.5826	17.6183	0.5790	-0.7237	0.3057	-0.2185
4.91	-0.3687	-9.1940	-2.2453	0.0261	-0.0064	0.0119	13.0798	24.4082	17.7005	0.5790	-0.7236	0.3056	-0.2185
4.92	-0.3777	-9.1979	-2.2364	0.0268	-0.0075	0.0165	12.8861	24.4639	17.5262	0.5791	-0.7236	0.3057	-0.2185
4.93	-0.3801	-9.1869	-2.2334	0.0261	-0.0027	0.0106	13.0679	24.4369	17.7746	0.5790	-0.7235	0.3056	-0.2185
4.94	-0.3851	-9.1973	-2.2281	0.0273	-0.0086	0.0117	13.2014	24.5651	17.6798	0.5791	-0.7236	0.3056	-0.2185
4.95	-0.3760	-9.1990	-2.2331	0.0245	-0.0038	0.0075	13.2364	24.3519	17.5575	0.5790	-0.7236	0.3056	-0.2185
4.96	-0.3762	-9.1942	-2.2333	0.0259	-0.0002	0.0087	12.9964	24.4504	17.4878	0.5790	-0.7236	0.3056	-0.2185
4.97	-0.3750	-9.1877	-2.2267	0.0296	-0.0044	0.0079	12.9957	24.3592	17.4873	0.5791	-0.7236	0.3056	-0.2185
4.98	-0.3660	-9.1948	-2.2295	0.0261	-0.0095	0.0129	13.1302	24.3736	17.8282	0.5790	-0.7236	0.3056	-0.2185
4.99	-0.3675	-9.1968	-2.2290	0.0272	-0.0061	0.0085	12.9616	24.5284	17.6564	0.5791	-0.7236	0.3056	-0.2185
5	-0.3658	-9.1908	-2.2255	0.0263	-0.0015	0.0081	12.8194	24.5826	17.5376	0.5790	-0.7235	0.3056	-0.2185
5.01	-0.3693	-9.1952	-2.2248	0.0269	-0.0016	0.0112	13.0337	24.7626	17.7984	0.5791	-0.7236	0.3056	-0.2185
5.02	-0.3781	-9.1923	-2.2326	0.0260	-0.0040	0.0147	13.5717	24.5812	17.7915	0.5791	-0.7236	0.3056	-0.2185
5.03	-0.3755	-9.1902	-2.2378	0.0230	-0.0018	0.0090	13.5144	24.6069	17.6977	0.5791	-0.7236	0.3056	-0.2185
5.04	-0.3673	-9.1910	-2.2336	0.0249	-0.0036	0.0049	13.0533	24.8460	17.6079	0.5790	-0.7236	0.3056	-0.2185
5.05	-0.3543	-9.1988	-2.2402	0.0261	0.0004	0.0099	12.8236	25.1485	17.7745	0.5790	-0.7236	0.3056	-0.2185
5.06	-0.3410	-9.2016	-2.2388	0.0267	0.0005	0.0086	12.7693	24.5887	17.6593	0.5790	-0.7236	0.3056	-0.2186
5.07	-0.3262	-9.1920	-2.2332	0.0250	0.0057	0.0119	12.9584	24.4754	17.4897	0.5790	-0.7235	0.3056	-0.2186
5.08	-0.3206	-9.1961	-2.2328	0.0267	0.0019	0.0109	12.9053	24.5428	17.6209	0.5791	-0.7236	0.3057	-0.2186
5.09	-0.3205	-9.2004	-2.2409	0.0265	-0.0024	0.0083	12.8041	24.5066	17.4650	0.5790	-0.7235	0.3056	-0.2186
5.1	-0.3279	-9.1934	-2.2423	0.0267	0.0028	0.0095	12.7368	24.7426	17.5680	0.5791	-0.7236	0.3057	-0.2187
5.11	-0.3272	-9.1896	-2.2318	0.0217	-0.0060	0.0085	12.8570	24.4055	17.7155	0.5790	-0.7235	0.3056	-0.2186
5.12	-0.3360	-9.2042	-2.2415	0.0256	-0.0059	0.0122	13.0523	24.1162	17.5438	0.5790	-0.7236	0.3056	-0.2186
5.13	-0.3502	-9.2010	-2.2467	0.0248	-0.0080	0.0123	13.1396	24.4541	17.5609	0.5790	-0.7236	0.3056	-0.2186
5.14	-0.3567	-9.1825	-2.2303	0.0246	-0.0008	0.0155	13.1899	24.3575	17.6409	0.5790	-0.7235	0.3056	-0.2186
5.15	-0.3614	-9.1948	-2.2406	0.0271	-0.0041	0.0123	13.0516	24.3775	17.5928	0.5791	-0.7236	0.3057	-0.2186
5.16	-0.3617	-9.2003	-2.2458	0.0282	-0.0059	0.0132	12.9958	24.4529	17.6228	0.5790	-0.7235	0.3057	-0.2186
5.17	-0.3577	-9.1881	-2.2371	0.0263	-0.0074	0.0104	13.0024	24.6850	17.5740	0.5791	-0.7236	0.3057	-0.2186
5.18	-0.3522	-9.1908	-2.2405	0.0261	-0.0007	0.0132	13.0115	24.6094	17.7054	0.5790	-0.7235	0.3057	-0.2186
5.19	-0.3548	-9.1982	-2.2440	0.0261	-0.0004	0.0148	12.9766	24.3016	17.6782	0.5791	-0.7235	0.3057	-0.2186
5.2	-0.3567	-9.1937	-2.2341	0.0269	-0.0094	0.0161	12.8995	24.5401	17.7172	0.5791	-0.7235	0.3057	-0.2186
5.21	-0.3580	-9.1922	-2.2363	0.0270	-0.0012	0.0144	12.6687	24.4928	17.5833	0.5791	-0.7235	0.3057	-0.2186
5.22	-0.3637	-9.1984	-2.2425	0.0269	-0.0031	0.0084	12.7803	24.6165	17.7143	0.5791	-0.7235	0.3057	-0.2186
5.23	-0.3658	-9.1931	-2.2318	0.0257	0.0028	0.0099	12.9609	24.5918	17.7633	0.5791	-0.7235	0.3057	-0.2186
5.24	-0.3716	-9.1932	-2.2312	0.0266	-0.0073	0.0112	12.9012	24.8109	17.6466	0.5791	-0.7235	0.3057	-0.2186
5.25	-0.3755	-9.1915	-2.2354	0.0227	-0.0046	0.0030	12.8645	24.5854	17.7039	0.5790	-0.7234	0.3057	-0.2186
5.26	-0.3807	-9.1929	-2.2310	0.0217	-0.0032	0.0109	12.8019	24.5200	17.6738	0.5791	-0.7235	0.3057	-0.2186
5.27	-0.3769	-9.1914	-2.2270	0.0273	-0.0019	0.0112	12.7755	24.4634	17.7024	0.5790	-0.7235	0.3057	-0.2186
5.28	-0.3770	-9.1905	-2.2325	0.0270	-0.0056	0.0077	12.9462	24.4725	17.6741	0.5791	-0.7235	0.3057	-0.2186
5.29	-0.3779	-9.1902	-2.2382	0.0252	-0.0072	0.0065	12.8247	24.6398	17.7069	0.5790	-0.7235	0.3057	-0.2186
5.3	-0.3761	-9.1938	-2.2384	0.0259	-0.0055	0.0100	12.8479	24.4434	17.7743	0.5790	-0.7235	0.3057	-0.2186
5.31	-0.3771	-9.1896	-2.2421	0.0165	-0.0095	0.0145	13.1923	24.2763	17.6361	0.5790	-0.7236	0.3057	-0.2186
5.32	-0.3742	-9.1891	-2.2450	0.0202	-0.0005	0.0102	12.9976	24.2780	17.5188	0.5790	-0.7235	0.3057	-0.2185
5.33	-0.3728	-9.1929	-2.2432	0.0270	-0.0076	0.0109	13.1186	24.2620	17.4324	0.5791	-0.7236	0.3057	-0.2186
5.34	-0.3730	-9.1924	-2.2308	0.0227	-0.0066	0.0087	13.1623	24.1728	17.7327	0.5790	-0.7236	0.3057	-0.2185
5.35	-0.3692	-9.1919	-2.2345	0.0259	-0.0062	0.0079	12.9956	24.4574	17.6148	0.5791	-0.7236	0.3057	-0.2185
5.36	-0.3630	-9.1956	-2.2283	0.0244	-0.0029	0.0128	12.9322	24.3391	17.5970	0.5790	-0.7235	0.3056	-0.2185
5.37	-0.3540	-9.1951	-2.2299	0.0266	-0.0007	0.0108	12.9095	24.4784	17.4923	0.5790	-0.7236	0.3057	-0.2185
5.38	-0.3474	-9.1944	-2.2291	0.0258	-0.0046	0.0132	12.9674	24.5422	17.7357	0.5790	-0.7236	0.3057	-0.2185
5.39	-0.3425	-9.1926	-2.2272	0.0261	-0.0020	0.0131	13.0320	24.5065	17.8150	0.5790	-0.7235	0.3057	-0.2185
5.4	-0.3368	-9.1981	-2.2292	0.0264	0.0041	0.0077	12.7947	24.5300	17.6433	0.5791	-0.7236	0.3057	-0.2186
5.41	-0.3362	-9.2008	-2.2293	0.0244	0.0037	0.0085	12.8874	24.7585	17.7460	0.5790	-0.7235	0.3057	-0.2186
5.42	-0.3367	-9.1992	-2.2358	0.0236	-0.0026	0.0066	12.9298	24.5377	17.7459	0.5790	-0.7236	0.3057	-0.2186
5.43	-0.3391	-9.1926	-2.2369	0.0244	-0.0048	0.0079	12.9213	24.5011	17.5627	0.5789	-0.7235	0.3057	-0.2186
5.44	-0.3507	-9.1921	-2.2380	0.0219	0.0029	0.0089	12.9233	24.6386	17.6420	0.5790	-0.7236	0.3057	-0.2186
5.45	-0.3616	-9.1894	-2.2433	0.0247	-0.0039	0.0099	12.9217	24.5525	17.6857	0.5789	-0.7236	0.3057	-0.2186
5.46	-0.3690	-9.1920	-2.2545	0.0277	-0.0031	0.0060	12.9191	24.4419	17.7035	0.5789	-0.7236	0.3057	-0.2186
5.47	-0.3693	-9.1865	-2.2480	0.0238	-0.0055	0.0105	12.9278	24.4233	17.6643	0.5790	-0.7236	0.3057	-0.2186
5.48	-0.3620	-9.1910	-2.2561	0.0282	0.0013	0.0079	12.7893	24.7172	17.4691	0.5789	-0.7236	0.3057	-0.2187
5.49	-0.3549	-9.1967	-2.2536	0.0283	-0.0052	0.0120	12.9776	24.5457	17.5225	0.5790	-0.7236	0.3057	-0.2187
5.5	-0.3519	-9.1943	-2.2530	0.0266	-0.0059	0.0120	13.0167	24.2051	17.5312	0.5789	-0.7235	0.3057	-0.2186
5.51	-0.3555	-9.1879	-2.2422	0.0260	0.0006	0.0118	13.2050	24.4419	17.5984	0.5790	-0.7236	0.3057	-0.2187
5.52	-0.3599	-9.1941	-2.2394	0.0276	-0.0070	0.0133	13.5500	24.5424	18.0148	0.5790	-0.7236	0.3057	-0.2186
5.53	-0.3651	-9.1967	-2.2401	0.0258	-0.0076	0.0171	13.4151	24.5525	17.9121	0.5790	-0.7236	0.3057	-0.2186
5.54	-0.3724	-9.1871	-2.2330	0.0270	-0.0070	0.0121	12.9823	24.8835	17.4305	0.5790	-0.7235	0.3057	-0.2186
5.55	-0.3776	-9.1927	-2.2312	0.0225	-0.0032	0.0111	13.1293	25.2754	17.6979	0.5790	-0.7236	0.3057	-0.2186
5.56	-0.3770	-9.1962	-2.2296	0.0254	-0.0081	0.0134	12.9943	24.6837	17.5776	0.5790	-0.7236	0.3057	-0.2186
5.57	-0.3779	-9.1909	-2.2213	0.0293	-0.0038	0.0088	13.0076	24.5704	17.5958	0.5790	-0.7235	0.3057	-0.2186
5.58	-0.3708	-9.1926	-2.2223	0.0267	-0.0010	0.0102	12.9669	24.6366	17.6484	0.5790	-0.7236	0.3057	-0.2186
5.59	-0.3612	-9.1974	-2.2240	0.0249	0.0025	0.0091	12.9255	24.5906	17.7358	0.5790	-0.7235	0.3057	-0.2186
5.6	-0.3562	-9.1949	-2.2208	0.0238	0.0014	0.0111	13.0432	24.6337	17.7306	0.5790	-0.7236	0.3058	-0.2186
5.61	-0.3526	-9.1877	-2.2206	0.0238	0.0000	0.0118	12.7971	24.5928	17.8958	0.5789	-0.7235	0.3057	-0.2186
5.62	-0.3523	-9.1931	-2.2240	0.0246	-0.0052	0.0113	12.8384	24.6374	17.7370	0.5790	-0.7236	0.3057	-0.2186
5.63	-0.3618	-9.1957	-2.2212	0.0269	0.0046	0.0058	12.8439	24.5491	17.7577	0.5790	-0.7235	0.3058	-0.2187
5.64	-0.3735	-9.1916	-2.2200	0.0259	0.0065	0.0078	13.0795	24.5275	17.8742	0.5789	-0.7235	0.3058	-0.2187
5.65	-0.3836	-9.1947	-2.2271	0.0266	-0.0026	0.0093	13.0800	24.5263	17.7745	0.5790	-0.7236	0.3058	-0.2187
5.66	-0.3872	-9.1894	-2.2307	0.0244	-0.0002	0.0054	12.9316	24.5529	17.7959	0.5789	-0.7235	0.3058	-0.2187
5.67	-0.3806	-9.1922	-2.2423	0.0260	-0.0002	0.0137	12.8984	24.4471	17.6267	0.5790	-0.7236	0.3058	-0.2188
5.68	-0.3673	-9.1928	-2.2455	0.0268	-0.0028	0.0133	13.0595	24.5321	17.6873	0.5789	-0.7235	0.3058	-0.2187
5.69	-0.3588	-9.1944	-2.2463	0.0257	-0.0026	0.0128	13.2176	24.5192	17.7057	0.5789	-0.7235	0.3058	-0.2187
5.7	-0.3393	-9.1908	-2.2482	0.0271	0.0021	0.0078	13.0263	24.4218	17.7478	0.5789	-0.7235	0.3058	-0.2188
5.71	-0.3370	-9.1960	-2.2499	0.0227	0.0025	0.0104	13.0014	24.4629	17.6430	0.5789	-0.7235	0.3058	-0.2188
5.72	-0.3309	-9.1992	-2.2557	0.0240	-0.0030	0.0087	12.9595	24.5238	17.6921	0.5789	-0.7235	0.3058	-0.2188
5.73	-0.3326	-9.1947	-2.2578	0.0247	0.0051	0.0137	12.9827	24.5633	17.6632	0.5789	-0.7235	0.3059	-0.2188
5.74	-0.3384	-9.1960	-2.2570	0.0264	-0.0005	0.0057	13.0560	24.6563	17.6762	0.5789	-0.7235	0.3059	-0.2188
5.75	-0.3512	-9.1913	-2.2567	0.0273	0.0013	0.0141	12.9685	24.4453	17.6803	0.5788	-0.7234	0.3059	-0.2188
5.76	-0.3565	-9.1904	-2.2562	0.0243	-0.0016	0.0098	12.9986	24.4350	17.6662	0.5789	-0.7235	0.3059	-0.2189
5.77	-0.3611	-9.1904	-2.2546	0.0269	-0.0073	0.0138	12.8834	24.4755	17.8599	0.5789	-0.7235	0.3059	-0.2188
5.78	-0.3660	-9.1937	-2.2505	0.0262	-0.0000	0.0131	12.9160	24.3497	17.7607	0.5789	-0.7235	0.3059	-0.2188
5.79	-0.3632	-9.1927	-2.2486	0.0253	-0.0036	0.0055	12.9994	24.4608	17.8654	0.5789	-0.7235	0.3059	-0.2189
5.8	-0.3606	-9.1944	-2.2441	0.0290	0.0009	0.0079	12.9720	24.6524	17.9289	0.5789	-0.7235	0.3059	-0.2189
5.81	-0.3544	-9.1932	-2.2356	0.0293	-0.0043	0.0066	12.8729	24.5856	17.7729	0.5789	-0.7235	0.3059	-0.2189
5.82	-0.3547	-9.1943	-2.2361	0.0268	0.0007	0.0119	13.0091	24.6250	17.6557	0.5788	-0.7234	0.3059	-0.2189
5.83	-0.3528	-9.1951	-2.2429	0.0237	0.0003	0.0080	12.9926	24.6045	17.7950	0.5789	-0.7235	0.3059	-0.2189
5.84	-0.3536	-9.1898	-2.2297	0.0234	-0.0033	0.0081	12.8560	24.4698	17.7032	0.5789	-0.7235	0.3059	-0.2189
5.85	-0.3557	-9.1963	-2.2273	0.0271	-0.0010	0.0091	12.8201	24.4600	17.9324	0.5789	-0.7235	0.3059	-0.2190
5.86	-0.3635	-9.1945	-2.2258	0.0242	0.0011	0.0128	12.8234	24.7510	17.8422	0.5788	-0.7234	0.3059	-0.2189
5.87	-0.3659	-9.1931	-2.2208	0.0284	-0.0071	0.0163	13.0635	24.6215	17.6282	0.5789	-0.7235	0.3059	-0.2189
5.88	-0.3662	-9.1906	-2.2160	0.0271	-0.0034	0.0094	13.2178	24.5201	17.6968	0.5789	-0.7235	0.3059	-0.2189
5.89	-0.3682	-9.1917	-2.2158	0.0220	-0.0066	0.0070	12.9913	24.4754	17.7235	0.5788	-0.7234	0.3059	-0.2189
5.9	-0.3641	-9.1921	-2.2166	0.0242	-0.0010	0.0132	12.9051	24.3382	17.9055	0.5789	-0.7235	0.3059	-0.2190
5.91	-0.3664	-9.1920	-2.2157	0.0279	-0.0064	0.0064	12.8937	24.6389	17.7798	0.5789	-0.7235	0.3059	-0.2189
5.92	-0.3662	-9.1941	-2.2243	0.0253	-0.0056	0.0106	12.9676	24.5377	17.9759	0.5789	-0.7235	0.3059	-0.2189
5.93	-0.3660	-9.1972	-2.2289	0.0288	0.0052	0.0103	12.9898	24.5169	17.7217	0.5788	-0.7234	0.3059	-0.2189
5.94	-0.3671	-9.1898	-2.2303	0.0264	0.0025	0.0076	13.1113	24.6512	17.7126	0.5789	-0.7235	0.3059	-0.2190
5.95	-0.3697	-9.1925	-2.2410	0.0270	-0.0058	0.0102	13.0105	24.3948	17.8644	0.5789	-0.7234	0.3059	-0.2190
5.96	-0.3687	-9.1948	-2.2416	0.0266	-0.0051	0.0116	13.0087	24.3903	17.6969	0.5789	-0.7234	0.3059	-0.2190
5.97	-0.3684	-9.1887	-2.2448	0.0273	-0.0017	0.0088	12.8727	24.6742	17.8986	0.5789	-0.7235	0.3059	-0.2190
5.98	-0.3728	-9.1927	-2.2472	0.0267	-0.0017	0.0117	12.9810	24.4208	17.9132	0.5789	-0.7234	0.3059	-0.2190
5.99	-0.3702	-9.1937	-2.2460	0.0260	0.0018	0.0114	13.1064	24.5532	17.8060	0.5789	-0.7235	0.3060	-0.2190
6	-0.3619	-9.1915	-2.2436	0.0270	-0.0010	0.0070	13.0413	24.4156	17.9634	0.5788	-0.7234	0.3059	-0.2190
6.01	-0.3553	-9.1885	-2.2370	0.0265	-0.0032	0.0095	13.3803	24.5266	17.8112	0.5789	-0.7235	0.3059	-0.2191
6.02	-0.3519	-9.1939	-2.2438	0.0269	0.0029	0.0061	13.4122	24.4236	18.1000	0.5788	-0.7234	0.3059	-0.2191
6.03	-0.3522	-9.1971	-2.2434	0.0247	0.0031	0.0126	13.4386	24.4830	18.0410	0.5789	-0.7234	0.3060	-0.2191
6.04	-0.3461	-9.1918	-2.2344	0.0267	-0.0041	0.0151	12.9881	24.8450	17.7664	0.5788	-0.7234	0.3060	-0.2191
6.05	-0.3426	-9.1929	-2.2364	0.0267	-0.0038	0.0137	13.0027	25.0577	17.6507	0.5789	-0.7234	0.3060	-0.2191
6.06	-0.3485	-9.2023	-2.2465	0.0263	-0.0060	0.0143	13.1364	24.5170	17.7329	0.5789	-0.7234	0.3060	-0.2191
6.07	-0.3519	-9.1927	-2.2380	0.0267	-0.0080	0.0101	13.1550	24.4251	17.7900	0.5788	-0.7233	0.3060	-0.2190
6.08	-0.3572	-9.1942	-2.2381	0.0265	-0.0042	0.0117	13.0457	24.2216	17.6601	0.5789	-0.7234	0.3060	-0.2190
6.09	-0.3609	-9.1985	-2.2437	0.0259	-0.0088	0.0162	12.9514	24.1120	17.6970	0.5789	-0.7234	0.3060	-0.2190
6.1	-0.3629	-9.1922	-2.2370	0.0226	-0.0035	0.0081	13.0620	24.4346	17.6750	0.5789	-0.7235	0.3060	-0.2190
6.11	-0.3632	-9.1875	-2.2375	0.0258	-0.0030	0.0097	13.0741	24.1507	17.6890	0.5789	-0.7234	0.3060	-0.2190
6.12	-0.3538	-9.1909	-2.2440	0.0274	0.0058	0.0153	12.9495	24.2297	17.5744	0.5789	-0.7234	0.3060	-0.2190
6.13	-0.3515	-9.1993	-2.2503	0.0281	-0.0037	0.0121	12.8735	24.3175	17.7929	0.5789	-0.7234	0.3060	-0.2190
6.14	-0.3465	-9.1934	-2.2453	0.0263	0.0014	0.0146	12.9924	24.4487	17.6779	0.5789	-0.7233	0.3060	-0.2190
6.15	-0.3406	-9.1906	-2.2407	0.0262	0.0042	0.0099	12.9845	24.4342	17.5897	0.5789	-0.7234	0.3061	-0.2191
6.16	-0.3455	-9.1931	-2.2419	0.0265	-0.0021	0.0075	12.9990	24.4626	17.5699	0.5789	-0.7233	0.3061	-0.2191
6.17	-0.3564	-9.1929	-2.2368	0.0262	-0.0011	0.0155	12.7387	24.5989	17.6601	0.5789	-0.7234	0.3061	-0.2191
6.18	-0.3672	-9.1869	-2.2311	0.0239	0.0026	0.0081	12.8426	24.6009	17.6666	0.5788	-0.7233	0.3061	-0.2191
6.19	-0.3753	-9.1901	-2.2329	0.0237	-0.0009	0.0086	12.6787	24.6979	17.6866	0.5789	-0.7234	0.3061	-0.2191
6.2	-0.3836	-9.1915	-2.2344	0.0265	0.0029	0.0086	12.7201	24.6741	17.7714	0.5788	-0.7233	0.3061	-0.2191
6.21	-0.3854	-9.1921	-2.2311	0.0261	0.0032	0.0098	12.9347	24.6995	17.7560	0.5788	-0.7233	0.3061	-0.2191
6.22	-0.3844	-9.1914	-2.2247	0.0268	-0.0004	0.0148	12.8013	24.5899	17.7374	0.5788	-0.7233	0.3062	-0.2192
6.23	-0.3857	-9.1980	-2.2287	0.0250	0.0011	0.0169	12.9396	24.6072	17.8194	0.5788	-0.7233	0.3062	-0.2191
6.24	-0.3745	-9.1943	-2.2269	0.0241	-0.0036	0.0132	12.8728	24.3934	17.7848	0.5789	-0.7233	0.3062	-0.2191
6.25	-0.3659	-9.1882	-2.2249	0.0239	-0.0051	0.0107	13.0548	24.2632	17.4435	0.5788	-0.7233	0.3062	-0.2191
6.26	-0.3653	-9.1938	-2.2244	0.0273	-0.0081	0.0073	13.3060	24.2843	17.7762	0.5789	-0.7233	0.3062	-0.2191
6.27	-0.3676	-9.1923	-2.2237	0.0256	-0.0070	0.0092	13.0849	24.4411	17.5774	0.5788	-0.7233	0.3062	-0.2191
6.28	-0.3728	-9.1938	-2.2262	0.0233	-0.0076	0.0110	12.9321	24.3847	17.6880	0.5788	-0.7233	0.3062	-0.2191
6.29	-0.3778	-9.1932	-2.2221	0.0243	-0.0054	0.0070	13.1040	24.3337	17.6620	0.5788	-0.7233	0.3061	-0.2191
6.3	-0.3848	-9.1903	-2.2286	0.0246	0.0005	0.0106	13.0426	24.5132	17.6244	0.5788	-0.7233	0.3062	-0.2191
6.31	-0.3765	-9.1861	-2.2357	0.0269	-0.0041	0.0144	13.0905	24.4939	17.8402	0.5788	-0.7233	0.3062	-0.2191
6.32	-0.3617	-9.1913	-2.2407	0.0259	-0.0125	0.0125	12.9774	24.3305	17.6436	0.5788	-0.7233	0.3061	-0.2190
6.33	-0.3541	-9.1943	-2.2509	0.0263	-0.0073	0.0146	12.9840	24.4774	17.9042	0.5789	-0.7234	0.3062	-0.2190
6.34	-0.3395	-9.1912	-2.2555	0.0243	-0.0052	0.0127	12.9641	24.5433	17.8001	0.5788	-0.7233	0.3062	-0.2190
6.35	-0.3299	-9.1931	-2.2594	0.0263	0.0050	0.0105	12.8173	24.7029	17.7201	0.5789	-0.7234	0.3062	-0.2191
6.36	-0.3300	-9.1937	-2.2620	0.0265	0.0007	0.0110	12.8173	24.6480	17.8891	0.5788	-0.7233	0.3062	-0.2190
6.37	-0.3289	-9.1961	-2.2646	0.0242	-0.0025	0.0079	12.9332	24.7475	17.7864	0.5788	-0.7233	0.3062	-0.2191
6.38	-0.3352	-9.1919	-2.2580	0.0268	-0.0024	0.0101	12.8587	24.6869	17.8140	0.5788	-0.7233	0.3062	-0.2191
6.39	-0.3403	-9.1894	-2.2598	0.0261	0.0022	0.0091	12.7316	24.4835	17.7974	0.5788	-0.7233	0.3062	-0.2191
6.4	-0.3499	-9.1921	-2.2619	0.0200	-0.0019	0.0064	12.8302	24.6237	17.5440	0.5788	-0.7234	0.3062	-0.2191
6.41	-0.3529	-9.1955	-2.2543	0.0278	-0.0011	0.0079	12.9724	24.4867	17.6182	0.5788	-0.7233	0.3062	-0.2191
6.42	-0.3521	-9.1960	-2.2515	0.0258	-0.0121	0.0162	12.9464	24.5437	17.7901	0.5788	-0.7234	0.3062	-0.2191
6.43	-0.3514	-9.1944	-2.2419	0.0271	-0.0046	0.0096	12.8032	24.4438	17.5694	0.5788	-0.7233	0.3062	-0.2190
6.44	-0.3566	-9.1948	-2.2334	0.0241	-0.0016	0.0073	12.9480	24.3015	17.5051	0.5788	-0.7234	0.3062	-0.2191
6.45	-0.3547	-9.1934	-2.2329	0.0280	-0.0035	0.0122	13.0164	24.1355	17.6501	0.5788	-0.7233	0.3062	-0.2191
6.46	-0.3551	-9.1973	-2.2291	0.0242	-0.0057	0.0102	12.9095	24.3231	17.5134	0.5788	-0.7233	0.3062	-0.2191
6.47	-0.3506	-9.1959	-2.2258	0.0269	-0.0054	0.0118	12.9071	24.5870	17.3928	0.5788	-0.7234	0.3062	-0.2191
6.48	-0.3543	-9.1872	-2.2204	0.0250	-0.0049	0.0128	13.1539	24.4372	17.5860	0.5788	-0.7233	0.3062	-0.2190
6.49	-0.3556	-9.1916	-2.2227	0.0224	-0.0073	0.0145	12.9235	24.3359	17.7773	0.5788	-0.7234	0.3062	-0.2190
6.5	-0.3619	-9.1978	-2.2188	0.0278	-0.0067	0.0139	12.8819	24.3423	17.7538	0.5788	-0.7233	0.3062	-0.2190
6.51	-0.3696	-9.1951	-2.2169	0.0261	-0.0047	0.0134	13.2038	24.3996	17.8824	0.5789	-0.7234	0.3062	-0.2190
6.52	-0.3688	-9.1927	-2.2195	0.0271	-0.0032	0.0151	13.5248	24.5679	18.0082	0.5789	-0.7233	0.3062	-0.2190
6.53	-0.3746	-9.1942	-2.2250	0.0265	-0.0025	0.0088	13.3783	24.5386	18.0365	0.5789	-0.7233	0.3062	-0.2190
6.54	-0.3709	-9.1938	-2.2233	0.0266	-0.0025	0.0072	13.0677	24.8925	17.7572	0.5788	-0.7233	0.3062	-0.2190
6.55	-0.3676	-9.1897	-2.2300	0.0222	-0.0051	0.0103	13.0665	25.2673	17.6798	0.5788	-0.7233	0.3062	-0.2190
6.56	-0.3624	-9.1939	-2.2291	0.0244	0.0015	0.0083	12.9751	24.6790	17.7893	0.5788	-0.7234	0.3062	-0.2190
6.57	-0.3569	-9.1932	-2.2332	0.0185	-0.0003	0.0095	13.0151	24.5858	17.6474	0.5788	-0.7233	0.3062	-0.2190
6.58	-0.3566	-9.1908	-2.2430	0.0257	0.0043	0.0078	13.0010	24.5239	17.7906	0.5788	-0.7234	0.3063	-0.2190
6.59	-0.3576	-9.1934	-2.2382	0.0258	-0.0017	0.0146	12.9834	24.5505	17.7247	0.5788	-0.7233	0.3063	-0.2190
6.6	-0.3586	-9.1955	-2.2422	0.0240	0.0005	0.0081	12.8427	24.4366	17.8547	0.5788	-0.7234	0.3063	-0.2191
6.61	-0.3661	-9.1975	-2.2495	0.0235	-0.0012	0.0152	12.8238	24.5358	17.7467	0.5787	-0.7233	0.3063	-0.2190
6.62	-0.3678	-9.1920	-2.2520	0.0267	-0.0055	0.0148	12.9841	24.4906	17.6591	0.5788	-0.7233	0.3063	-0.2190
6.63	-0.3713	-9.1919	-2.2450	0.0257	-0.0108	0.0114	12.9929	24.2832	17.6630	0.5788	-0.7234	0.3063	-0.2190
6.64	-0.3703	-9.1962	-2.2500	0.0247	-0.0081	0.0080	13.0886	24.5448	17.7581	0.5788	-0.7233	0.3063	-0.2190
6.65	-0.3693	-9.1937	-2.2463	0.0254	-0.0084	0.0110	13.0573	24.5280	17.7560	0.5788	-0.7234	0.3063	-0.2190
6.66	-0.3700	-9.1939	-2.2408	0.0261	-0.0058	0.0159	13.0157	24.6566	17.7831	0.5788	-0.7234	0.3063	-0.2189
6.67	-0.3635	-9.1967	-2.2438	0.0253	-0.0055	0.0073	13.1093	24.5217	17.8883	0.5788	-0.7234	0.3063	-0.2189
6.68	-0.3578	-9.1966	-2.2416	0.0274	-0.0055	0.0157	12.9946	24.6077	17.7405	0.5788	-0.7233	0.3063	-0.2189
6.69	-0.3552	-9.1919	-2.2407	0.0254	-0.0093	0.0087	12.8873	24.6100	17.6419	0.5788	-0.7234	0.3063	-0.2189
6.7	-0.3505	-9.1925	-2.2370	0.0266	-0.0078	0.0141	13.0018	24.4458	17.7107	0.5788	-0.7234	0.3063	-0.2189
6.71	-0.3483	-9.1959	-2.2401	0.0267	-0.0049	0.0122	12.9172	24.4880	17.8523	0.5788	-0.7233	0.3063	-0.2188
6.72	-0.3458	-9.1932	-2.2361	0.0238	-0.0003	0.0102	12.9368	24.7387	17.8374	0.5788	-0.7234	0.3063	-0.2189
6.73	-0.3442	-9.1961	-2.2349	0.0233	0.0052	0.0101	12.9768	24.6358	17.8417	0.5788	-0.7234	0.3063	-0.2189
6.74	-0.3494	-9.2001	-2.2335	0.0229	-0.0039	0.0105	12.7481	24.4132	17.8465	0.5788	-0.7234	0.3063	-0.2189
6.75	-0.3585	-9.1903	-2.2362	0.0240	-0.0005	0.0065	13.0467	24.5236	17.8405	0.5787	-0.7233	0.3063	-0.2189
6.76	-0.3643	-9.1903	-2.2395	0.0270	0.0020	0.0069	12.9524	24.6308	17.8536	0.5788	-0.7234	0.3063	-0.2189
6.77	-0.3673	-9.1924	-2.2463	0.0256	-0.0029	0.0140	12.9214	24.5776	17.9728	0.5788	-0.7234	0.3063	-0.2189
6.78	-0.3651	-9.1915	-2.2474	0.0265	-0.0009	0.0142	12.8946	24.4387	17.8456	0.5788	-0.7234	0.3063	-0.2189
6.79	-0.3559	-9.1927	-2.2503	0.0267	-0.0009	0.0118	13.0410	24.4413	17.8508	0.5788	-0.7233	0.3063	-0.2189
6.8	-0.3448	-9.1958	-2.2476	0.0267	-0.0068	0.0091	13.0339	24.5654	17.8364	0.5788	-0.7234	0.3063	-0.2189
6.81	-0.3444	-9.1974	-2.2411	0.0250	0.0003	0.0156	13.0738	24.6472	17.6655	0.5788	-0.7234	0.3064	-0.2189
6.82	-0.3458	-9.1955	-2.2401	0.0265	0.0026	0.0126	13.2921	24.5154	17.6862	0.5787	-0.7233	0.3064	-0.2189
6.83	-0.3510	-9.1918	-2.2337	0.0293	0.0036	0.0103	13.1265	24.5608	17.6549	0.5788	-0.7234	0.3064	-0.2190
6.84	-0.3644	-9.1935	-2.2311	0.0263	-0.0016	0.0121	13.1972	24.4695	17.7271	0.5788	-0.7233	0.3064	-0.2190
6.85	-0.3745	-9.1965	-2.2281	0.0249	-0.0065	0.0128	13.0911	24.5032	17.9989	0.5788	-0.7234	0.3064	-0.2190
6.86	-0.3781	-9.1920	-2.2206	0.0254	0.0000	0.0123	12.9970	24.5483	17.7167	0.5787	-0.7233	0.3064	-0.2189
6.87	-0.3817	-9.1938	-2.2141	0.0241	0.0013	0.0160	12.9897	24.4111	17.8132	0.5788	-0.7233	0.3065	-0.2189
6.88	-0.3805	-9.1922	-2.2130	0.0221	-0.0100	0.0145	13.0244	24.4899	18.0198	0.5788	-0.7233	0.3065	-0.2189
6.89	-0.3737	-9.1920	-2.2131	0.0219	-0.0064	0.0125	13.1900	24.6382	17.7372	0.5787	-0.7233	0.3065	-0.2189
6.9	-0.3722	-9.1921	-2.2227	0.0261	-0.0014	0.0102	13.0504	24.4027	17.7799	0.5788	-0.7234	0.3065	-0.2189
6.91	-0.3675	-9.1953	-2.2236	0.0209	-0.0003	0.0084	12.9911	24.5074	17.7286	0.5787	-0.7233	0.3065	-0.2189
6.92	-0.3645	-9.1944	-2.2273	0.0224	0.0005	0.0070	13.0029	24.4780	17.8514	0.5788	-0.7234	0.3065	-0.2189
6.93	-0.3667	-9.1929	-2.2265	0.0225	-0.0036	0.0078	13.0033	24.4972	17.7526	0.5787	-0.7233	0.3065	-0.2189
6.94	-0.3686	-9.1981	-2.2275	0.0231	0.0001	0.0059	13.0033	24.6736	17.7686	0.5787	-0.7234	0.3065	-0.2189
6.95	-0.3786	-9.1932	-2.2308	0.0258	0.0024	0.0063	12.9967	24.5107	17.8919	0.5787	-0.7234	0.3065	-0.2190
6.96	-0.3820	-9.1895	-2.2306	0.0215	0.0011	0.0075	12.9989	24.6115	17.7644	0.5786	-0.7234	0.3065	-0.2190
6.97	-0.3844	-9.1913	-2.2415	0.0240	-0.0036	0.0095	13.0130	24.6873	17.6501	0.5786	-0.7234	0.3065	-0.2190
6.98	-0.3806	-9.1938	-2.2460	0.0267	-0.0029	0.0101	12.9730	24.5089	17.8207	0.5786	-0.7234	0.3065	-0.2190
6.99	-0.3669	-9.1930	-2.2483	0.0263	-0.0018	0.0108	12.8969	24.6677	17.8410	0.5787	-0.7234	0.3065	-0.2190
7	-0.3519	-9.1933	-2.2469	0.0257	-0.0025	0.0113	13.2765	24.5114	17.8662	0.5786	-0.7233	0.3065	-0.2190
7.01	-0.3445	-9.1966	-2.2505	0.0197	0.0054	0.0098	13.3939	24.5516	17.8261	0.5786	-0.7234	0.3066	-0.2190
7.02	-0.3354	-9.1981	-2.2476	0.0220	-0.0080	0.0107	13.4526	24.5200	17.9228	0.5786	-0.7234	0.3065	-0.2190
7.03	-0.3329	-9.2005	-2.2512	0.0240	0.0009	0.0134	13.3249	24.5670	17.8533	0.5786	-0.7234	0.3066	-0.2190
7.04	-0.3335	-9.1976	-2.2571	0.0239	0.0002	0.0087	12.8689	24.7432	17.6898	0.5786	-0.7234	0.3066	-0.2190
7.05	-0.3400	-9.1960	-2.2543	0.0256	-0.0008	0.0081	12.8023	25.1026	17.6922	0.5786	-0.7234	0.3066	-0.2190
7.06	-0.3450	-9.1921	-2.2539	0.0242	0.0008	0.0135	12.9239	24.5145	17.8350	0.5786	-0.7234	0.3066	-0.2190
7.07	-0.3496	-9.1965	-2.2564	0.0276	-0.0048	0.0152	13.0925	24.4247	17.8177	0.5785	-0.7233	0.3066	-0.2190
7.08	-0.3526	-9.1946	-2.2460	0.0241	0.0013	0.0146	13.0722	24.4553	17.6246	0.5786	-0.7234	0.3067	-0.2190
7.09	-0.3544	-9.1947	-2.2477	0.0271	0.0049	0.0141	13.0677	24.7669	17.4654	0.5785	-0.7234	0.3067	-0.2190
7.1	-0.3537	-9.2018	-2.2466	0.0271	-0.0035	0.0079	12.8813	24.6770	17.5477	0.5786	-0.7234	0.3067	-0.2190
7.11	-0.3587	-9.1953	-2.2379	0.0249	-0.0000	0.0049	12.6304	24.4916	17.7112	0.5785	-0.7233	0.3066	-0.2190
7.12	-0.3524	-9.1949	-2.2378	0.0254	0.0003	0.0056	12.8457	24.5393	17.6116	0.5785	-0.7234	0.3067	-0.2191
7.13	-0.3497	-9.1951	-2.2396	0.0269	0.0007	0.0088	13.0796	24.5765	17.6481	0.5785	-0.7234	0.3067	-0.2191
7.14	-0.3538	-9.1907	-2.2295	0.0264	0.0000	0.0064	12.8111	24.6366	17.6696	0.5785	-0.7233	0.3066	-0.2191
7.15	-0.3588	-9.1977	-2.2303	0.0268	0.0057	0.0130	12.8505	24.5855	17.7015	0.5786	-0.7234	0.3067	-0.2192
7.16	-0.3636	-9.1940	-2.2264	0.0265	-0.0016	0.0129	13.0665	24.5169	17.7331	0.5785	-0.7233	0.3067	-0.2191
7.17	-0.3717	-9.1948	-2.2248	0.0264	-0.0008	0.0150	12.8755	24.5557	17.7125	0.5785	-0.7234	0.3068	-0.2192
7.18	-0.3789	-9.1909	-2.2239	0.0264	-0.0079	0.0138	13.0866	24.4460	17.8139	0.5785	-0.7233	0.3067	-0.2191
7.19	-0.3824	-9.1891	-2.2191	0.0268	-0.0042	0.0123	13.1521	24.3453	17.5222	0.5785	-0.7233	0.3067	-0.2191
7.2	-0.3820	-9.1925	-2.2225	0.0272	-0.0009	0.0089	13.0525	24.4092	17.6796	0.5785	-0.7233	0.3067	-0.2191
7.21	-0.3793	-9.1934	-2.2182	0.0251	0.0009	0.0111	13.0771	24.5336	17.6760	0.5785	-0.7233	0.3067	-0.2191
7.22	-0.3826	-9.1893	-2.2236	0.0227	-0.0063	0.0132	13.1566	24.5477	17.6946	0.5785	-0.7233	0.3068	-0.2191
7.23	-0.3847	-9.1910	-2.2280	0.0235	-0.0054	0.0104	13.0218	24.5265	17.7909	0.5785	-0.7233	0.3068	-0.2191
7.24	-0.3881	-9.1969	-2.2251	0.0238	-0.0085	0.0148	12.9897	24.5414	17.7541	0.5785	-0.7234	0.3068	-0.2191
7.25	-0.3820	-9.1955	-2.2299	0.0280	0.0036	0.0111	12.9205	24.5231	17.7776	0.5785	-0.7233	0.3068	-0.2191
7.26	-0.3749	-9.1902	-2.2229	0.0235	-0.0036	0.0148	12.9972	24.4550	17.6430	0.5785	-0.7233	0.3068	-0.2191
7.27	-0.3677	-9.1948	-2.2277	0.0281	0.0062	0.0102	13.1648	24.5671	17.7359	0.5785	-0.7233	0.3068	-0.2191
7.28	-0.3553	-9.2040	-2.2411	0.0244	-0.0004	0.0075	13.0515	24.5108	17.8023	0.5785	-0.7233	0.3068	-0.2191
7.29	-0.3535	-9.1892	-2.2415	0.0254	-0.0016	0.0080	12.7052	24.6298	17.6451	0.5785	-0.7233	0.3068	-0.2191
7.3	-0.3589	-9.1935	-2.2504	0.0263	0.0020	0.0047	12.7904	24.4807	17.5759	0.5785	-0.7233	0.3068	-0.2192
7.31	-0.3638	-9.1945	-2.2578	0.0216	-0.0017	0.0076	12.8969	24.5996	17.7848	0.5785	-0.7233	0.3068	-0.2192
7.32	-0.3716	-9.1835	-2.2561	0.0250	0.0020	0.0064	12.9335	24.6114	17.6725	0.5784	-0.7233	0.3068	-0.2192
7.33	-0.3773	-9.1897	-2.2558	0.0279	0.0004	0.0077	12.8004	24.6169	17.6851	0.5785	-0.7234	0.3068	-0.2192
7.34	-0.3770	-9.1921	-2.2543	0.0284	-0.0035	0.0089	12.7431	24.5847	17.6464	0.5784	-0.7233	0.3068	-0.2192
7.35	-0.3714	-9.1902	-2.2622	0.0274	-0.0057	0.0076	12.9916	24.7037	17.7689	0.5785	-0.7234	0.3068	-0.2193
7.36	-0.3577	-9.1933	-2.2476	0.0256	-0.0111	0.0145	12.9888	24.6156	17.6630	0.5784	-0.7233	0.3068	-0.2192
7.37	-0.3462	-9.1993	-2.2548	0.0294	-0.0064	0.0113	13.0013	24.5065	17.7001	0.5785	-0.7233	0.3068	-0.2192
7.38	-0.3365	-9.2003	-2.2542	0.0251	-0.0064	0.0077	13.1388	24.5639	17.8065	0.5785	-0.7233	0.3068	-0.2192
7.39	-0.3290	-9.1942	-2.2423	0.0274	-0.0035	0.0078	13.1753	24.4717	17.6927	0.5785	-0.7233	0.3067	-0.2192
7.4	-0.3225	-9.1983	-2.2384	0.0222	-0.0059	0.0101	12.9590	24.2494	17.6690	0.5785	-0.7234	0.3068	-0.2192
7.41	-0.3182	-9.2016	-2.2431	0.0231	-0.0001	0.0114	12.9106	24.3213	17.5826	0.5785	-0.7233	0.3068	-0.2192
7.42	-0.3206	-9.2052	-2.2435	0.0255	-0.0001	0.0065	12.9120	24.4410	17.5959	0.5785	-0.7234	0.3068	-0.2192
7.43	-0.3247	-9.1938	-2.2298	0.0268	-0.0011	0.0153	12.9809	24.4658	17.5830	0.5784	-0.7233	0.3068	-0.2192
7.44	-0.3314	-9.1984	-2.2441	0.0278	0.0008	0.0101	13.1151	24.4238	17.9276	0.5785	-0.7233	0.3068	-0.2192
7.45	-0.3403	-9.1957	-2.2439	0.0275	-0.0023	0.0079	12.9920	24.3659	17.6411	0.5785	-0.7233	0.3068	-0.2192
7.46	-0.3422	-9.1923	-2.2467	0.0290	0.0010	0.0112	12.7948	24.6133	17.7869	0.5785	-0.7233	0.3068	-0.2192
7.47	-0.3401	-9.1915	-2.2442	0.0263	0.0007	0.0089	12.9534	24.6300	17.6398	0.5785	-0.7233	0.3068	-0.2193
7.48	-0.3443	-9.1919	-2.2406	0.0263	-0.0033	0.0111	12.7570	24.5863	17.5969	0.5785	-0.7233	0.3068	-0.2193
7.49	-0.3398	-9.1911	-2.2324	0.0266	0.0062	0.0090	12.9946	24.6847	17.7464	0.5785	-0.7233	0.3068	-0.2193
7.5	-0.3439	-9.1894	-2.2299	0.0303	-0.0017	0.0080	12.8240	24.7006	17.8524	0.5784	-0.7232	0.3068	-0.2193
7.51	-0.3487	-9.1928	-2.2276	0.0252	0.0035	0.0072	12.9385	24.6049	17.9460	0.5785	-0.7233	0.3069	-0.2194
7.52	-0.3537	-9.1935	-2.2234	0.0259	-0.0023	0.0093	13.4278	24.6036	17.9902	0.5784	-0.7233	0.3068	-0.2193
7.53	-0.3670	-9.1891	-2.2224	0.0279	0.0022	0.0081	13.2070	24.4641	18.0431	0.5785	-0.7233	0.3069	-0.2194
7.54	-0.3751	-9.1974	-2.2194	0.0240	0.0016	0.0154	13.1901	24.5914	17.7471	0.5784	-0.7232	0.3069	-0.2194
7.55	-0.3760	-9.1967	-2.2168	0.0268	-0.0119	0.0122	13.0519	25.1593	17.6729	0.5785	-0.7233	0.3069	-0.2193
7.56	-0.3808	-9.1948	-2.2202	0.0258	-0.0064	0.0124	12.8955	24.6227	17.7787	0.5785	-0.7233	0.3069	-0.2193
7.57	-0.3788	-9.1947	-2.2249	0.0269	-0.0033	0.0141	13.1087	24.4152	17.6535	0.5784	-0.7232	0.3068	-0.2193
7.58	-0.3864	-9.1931	-2.2311	0.0239	0.0018	0.0169	12.9612	24.3763	17.6822	0.5785	-0.7233	0.3069	-0.2193
7.59	-0.3819	-9.1926	-2.2312	0.0244	-0.0103	0.0175	13.1357	24.4957	17.6417	0.5785	-0.7232	0.3069	-0.2193
7.6	-0.3752	-9.1916	-2.2317	0.0231	0.0016	0.0087	12.9743	24.6027	17.7387	0.5785	-0.7233	0.3070	-0.2193
7.61	-0.3738	-9.1915	-2.2362	0.0199	-0.0017	0.0091	13.0144	24.6311	17.7388	0.5784	-0.7232	0.3069	-0.2193
7.62	-0.3773	-9.1947	-2.2408	0.0239	-0.0016	0.0103	12.8460	24.5881	17.7709	0.5784	-0.7233	0.3069	-0.2193
7.63	-0.3801	-9.1938	-2.2382	0.0258	0.0052	0.0126	13.0385	24.6702	17.6753	0.5784	-0.7233	0.3070	-0.2193
7.64	-0.3858	-9.1921	-2.2348	0.0265	-0.0036	0.0110	13.0829	24.4776	17.7311	0.5784	-0.7232	0.3070	-0.2193
7.65	-0.3788	-9.1925	-2.2436	0.0212	0.0004	0.0082	13.0801	24.8121	17.7516	0.5784	-0.7233	0.3070	-0.2193
7.66	-0.3802	-9.1903	-2.2432	0.0261	-0.0000	0.0056	13.0244	24.7525	17.7498	0.5784	-0.7233	0.3070	-0.2193
7.67	-0.3723	-9.1902	-2.2486	0.0258	-0.0056	0.0087	12.9873	24.3846	17.6981	0.5784	-0.7233	0.3070	-0.2193
7.68	-0.3602	-9.1946	-2.2551	0.0246	-0.0044	0.0101	12.9704	24.5362	17.6362	0.5783	-0.7232	0.3069	-0.2193
7.69	-0.3447	-9.1927	-2.2491	0.0202	-0.0085	0.0109	13.0406	24.6773	17.6826	0.5784	-0.7233	0.3070	-0.2193
7.7	-0.3364	-9.1972	-2.2481	0.0224	-0.0037	0.0092	13.1635	24.6189	17.7746	0.5784	-0.7233	0.3070	-0.2193
7.71	-0.3275	-9.1974	-2.2566	0.0204	0.0041	0.0083	12.9553	24.4963	17.7045	0.5783	-0.7233	0.3070	-0.2193
7.72	-0.3192	-9.1990	-2.2546	0.0254	-0.0000	0.0075	13.0942	24.5421	17.9819	0.5783	-0.7234	0.3070	-0.2193
7.73	-0.3222	-9.1967	-2.2551	0.0272	-0.0027	0.0152	12.9247	24.5602	17.8503	0.5783	-0.7233	0.3070	-0.2193
7.74	-0.3291	-9.2009	-2.2588	0.0248	0.0027	0.0108	12.8928	24.6040	17.6538	0.5783	-0.7233	0.3070	-0.2193
7.75	-0.3383	-9.1930	-2.2576	0.0245	0.0035	0.0094	12.9984	24.3963	17.6494	0.5782	-0.7233	0.3070	-0.2193
7.76	-0.3445	-9.1893	-2.2484	0.0280	0.0021	0.0093	12.9893	24.6023	17.6912	0.5783	-0.7233	0.3071	-0.2194
7.77	-0.3567	-9.2031	-2.2617	0.0263	-0.0004	0.0113	13.1519	24.2875	17.7425	0.5783	-0.7233	0.3071	-0.2194
7.78	-0.3575	-9.1936	-2.2548	0.0280	-0.0061	0.0116	13.1042	24.4061	17.6052	0.5783	-0.7233	0.3071	-0.2194
7.79	-0.3524	-9.1826	-2.2402	0.0250	-0.0039	0.0096	12.9637	24.6426	17.8871	0.5783	-0.7233	0.3070	-0.2194
7.8	-0.3584	-9.2068	-2.2685	0.0267	-0.0077	0.0115	13.1139	24.5016	17.7750	0.5783	-0.7233	0.3070	-0.2194
7.81	-0.3565	-9.1810	-2.2341	0.0250	-0.0053	0.0099	13.1838	24.3923	17.5751	0.5783	-0.7233	0.3070	-0.2193
7.82	-0.3599	-9.2008	-2.2447	0.0248	-0.0056	0.0172	13.0674	24.6641	17.6154	0.5783	-0.7232	0.3070	-0.2193
7.83	-0.3590	-9.1939	-2.2430	0.0273	-0.0079	0.0128	12.9859	24.5450	17.9263	0.5784	-0.7233	0.3071	-0.2193
7.84	-0.3585	-9.1903	-2.2384	0.0222	0.0022	0.0063	12.9556	24.3687	17.8415	0.5783	-0.7233	0.3071	-0.2193
7.85	-0.3690	-9.2022	-2.2417	0.0238	-0.0004	0.0101	12.8676	24.6727	17.6930	0.5783	-0.7234	0.3071	-0.2193
7.86	-0.3616	-9.1900	-2.2303	0.0265	0.0048	0.0078	13.0880	24.5206	17.8594	0.5783	-0.7233	0.3071	-0.2193
7.87	-0.3726	-9.1938	-2.2297	0.0261	0.0016	0.0075	12.9597	24.5067	17.7159	0.5783	-0.7233	0.3071	-0.2194
7.88	-0.3780	-9.1983	-2.2340	0.0258	0.0032	0.0108	13.0328	24.4568	17.9559	0.5783	-0.7233	0.3071	-0.2194
7.89	-0.3747	-9.1884	-2.2371	0.0218	0.0069	0.0074	13.1023	24.6461	17.8220	0.5782	-0.7233	0.3071	-0.2194
7.9	-0.3785	-9.1891	-2.2372	0.0246	-0.0043	0.0067	13.0064	24.6062	17.9505	0.5783	-0.7234	0.3071	-0.2195
7.91	-0.3870	-9.1915	-2.2320	0.0262	0.0038	0.0107	13.0485	24.7515	17.8823	0.5782	-0.7233	0.3071	-0.2195
7.92	-0.3922	-9.1890	-2.2349	0.0256	-0.0071	0.0117	12.9676	24.6069	18.0074	0.5783	-0.7233	0.3072	-0.2195
7.93	-0.3833	-9.1895	-2.2341	0.0265	-0.0040	0.0120	12.7918	24.6252	17.9297	0.5782	-0.7232	0.3071	-0.2194
7.94	-0.3827	-9.1934	-2.2316	0.0254	0.0013	0.0095	13.0317	24.5817	17.6895	0.5782	-0.7233	0.3072	-0.2195
7.95	-0.3894	-9.2015	-2.2443	0.0256	-0.0013	0.0069	13.1552	24.3680	17.8185	0.5782	-0.7233	0.3071	-0.2195
7.96	-0.3848	-9.1908	-2.2424	0.0254	0.0006	0.0093	13.2913	24.3645	17.5752	0.5782	-0.7233	0.3071	-0.2195
7.97	-0.3863	-9.1885	-2.2424	0.0260	-0.0025	0.0117	13.0163	24.3871	17.6719	0.5782	-0.7233	0.3072	-0.2195
7.98	-0.3808	-9.1935	-2.2460	0.0263	-0.0013	0.0134	13.1175	24.4607	17.7945	0.5782	-0.7233	0.3072	-0.2195
7.99	-0.3754	-9.1945	-2.2472	0.0263	-0.0071	0.0149	13.1766	24.5008	17.7069	0.5782	-0.7233	0.3072	-0.2195
8	-0.3676	-9.1900	-2.2385	0.0256	-0.0040	0.0099	13.0540	24.6090	17.8620	0.5782	-0.7232	0.3072	-0.2194
8.01	-0.3627	-9.1947	-2.2382	0.0242	-0.0015	0.0100	13.2573	24.7481	17.9019	0.5782	-0.7233	0.3072	-0.2195
8.02	-0.3546	-9.2023	-2.2436	0.0267	-0.0017	0.0079	13.4886	24.6093	18.0237	0.5782	-0.7233	0.3072	-0.2195
8.03	-0.3501	-9.1954	-2.2371	0.0242	0.0077	0.0111	13.2673	24.5355	18.1308	0.5782	-0.7233	0.3072	-0.2195
8.04	-0.3527	-9.1965	-2.2329	0.0299	0.0114	0.0117	12.9727	24.9336	17.8702	0.5782	-0.7232	0.3073	-0.2195
8.05	-0.3596	-9.1903	-2.2351	0.0292	0.0053	0.0050	12.9772	25.3387	17.7388	0.5782	-0.7232	0.3073	-0.2196
8.06	-0.3664	-9.1888	-2.2340	0.0253	0.0019	0.0068	12.9203	24.7923	17.6239	0.5782	-0.7233	0.3073	-0.2196
8.07	-0.3704	-9.1878	-2.2254	0.0281	0.0021	0.0071	12.8432	24.5247	17.7996	0.5781	-0.7232	0.3072	-0.2196
8.08	-0.3708	-9.1911	-2.2230	0.0288	-0.0023	0.0089	12.8551	24.7842	17.7463	0.5782	-0.7233	0.3073	-0.2197
8.09	-0.3651	-9.1918	-2.2187	0.0235	0.0025	0.0096	12.9419	24.7924	17.8087	0.5781	-0.7232	0.3073	-0.2197
8.1	-0.3529	-9.1957	-2.2207	0.0232	0.0004	0.0059	12.9233	24.5958	17.8946	0.5782	-0.7233	0.3073	-0.2197
8.11	-0.3456	-9.1965	-2.2173	0.0267	0.0004	0.0089	12.8917	24.5151	17.7486	0.5781	-0.7232	0.3073	-0.2197
8.12	-0.3288	-9.1994	-2.2193	0.0252	-0.0016	0.0139	13.2017	24.4351	17.9261	0.5781	-0.7232	0.3073	-0.2197
8.13	-0.3286	-9.1998	-2.2163	0.0302	-0.0033	0.0139	13.3370	24.2349	17.7991	0.5781	-0.7232	0.3073	-0.2197
8.14	-0.3146	-9.1988	-2.2161	0.0282	0.0012	0.0100	13.1194	24.2261	17.8107	0.5781	-0.7232	0.3073	-0.2197
8.15	-0.3147	-9.2005	-2.2210	0.0258	-0.0038	0.0152	13.3763	24.5021	17.6470	0.5782	-0.7233	0.3074	-0.2197
8.16	-0.3178	-9.1998	-2.2222	0.0247	0.0037	0.0151	13.1630	24.2660	17.7950	0.5781	-0.7232	0.3074	-0.2197
8.17	-0.3260	-9.1920	-2.2278	0.0269	0.0033	0.0065	12.9859	24.5236	17.8860	0.5782	-0.7232	0.3074	-0.2198
8.18	-0.3346	-9.1987	-2.2303	0.0262	0.0048	0.0102	13.0245	24.5113	17.8799	0.5781	-0.7231	0.3074	-0.2198
8.19	-0.3462	-9.1988	-2.2425	0.0265	0.0062	0.0121	13.0630	24.4495	17.7070	0.5781	-0.7232	0.3074	-0.2198
8.2	-0.3540	-9.1944	-2.2467	0.0267	0.0047	0.0158	12.8621	24.5334	17.7676	0.5781	-0.7231	0.3075	-0.2198
8.21	-0.3593	-9.1902	-2.2557	0.0263	0.0089	0.0145	13.0050	24.5587	17.9139	0.5781	-0.7231	0.3075	-0.2198
8.22	-0.3621	-9.1906	-2.2668	0.0260	0.0030	0.0158	13.0138	24.8109	17.7451	0.5781	-0.7231	0.3076	-0.2199
8.23	-0.3667	-9.1902	-2.2684	0.0265	0.0018	0.0075	12.8392	24.6139	17.6368	0.5781	-0.7231	0.3076	-0.2199
8.24	-0.3575	-9.1834	-2.2529	0.0247	-0.0007	0.0080	12.7526	24.5906	17.8099	0.5781	-0.7231	0.3076	-0.2199
8.25	-0.3542	-9.1951	-2.2636	0.0259	0.0040	0.0068	13.0427	24.6149	17.8906	0.5780	-0.7230	0.3075	-0.2199
8.26	-0.3729	-9.2179	-2.2899	0.0273	-0.0032	0.0119	13.0676	24.4843	17.7397	0.5781	-0.7231	0.3076	-0.2199
8.27	-0.3881	-9.1806	-2.2584	0.0263	-0.0036	0.0143	12.8449	24.5756	17.8116	0.5781	-0.7231	0.3076	-0.2199
8.28	-0.4037	-9.1736	-2.2482	0.0272	-0.0038	0.0109	12.8312	24.5983	17.9561	0.5781	-0.7231	0.3076	-0.2199
8.29	-0.4018	-9.2088	-2.2680	0.0261	-0.0045	0.0128	12.8439	24.6150	17.8462	0.5781	-0.7231	0.3076	-0.2199
8.3	-0.4058	-9.1888	-2.2368	0.0263	-0.0044	0.0100	13.0548	24.4381	17.8784	0.5781	-0.7231	0.3076	-0.2199
8.31	-0.4049	-9.1834	-2.2338	0.0268	0.0024	0.0122	13.1075	24.3324	17.8364	0.5781	-0.7231	0.3076	-0.2199
8.32	-0.4033	-9.1964	-2.2378	0.0218	0.0051	0.0060	12.9968	24.3669	17.6689	0.5780	-0.7230	0.3076	-0.2199
8.33	-0.4032	-9.1877	-2.2230	0.0249	0.0087	0.0082	13.1137	24.3703	17.7189	0.5781	-0.7231	0.3077	-0.2200
8.34	-0.4024	-9.1897	-2.2131	0.0271	0.0002	0.0096	13.1782	24.3231	17.5117	0.5780	-0.7231	0.3077	-0.2200
8.35	-0.3951	-9.2001	-2.2187	0.0266	0.0017	0.0084	12.9718	24.2568	17.6470	0.5781	-0.7231	0.3077	-0.2200
8.36	-0.3802	-9.1898	-2.2091	0.0265	0.0011	0.0075	13.1252	24.2777	17.8152	0.5780	-0.7230	0.3077	-0.2200
8.37	-0.3663	-9.1909	-2.2026	0.0265	-0.0017	0.0123	12.9178	24.3926	17.8786	0.5780	-0.7231	0.3077	-0.2200
8.38	-0.3609	-9.1964	-2.2035	0.0267	-0.0000	0.0097	13.0158	24.4570	17.8404	0.5780	-0.7231	0.3077	-0.2201
8.39	-0.3649	-9.1941	-2.1954	0.0259	0.0071	0.0097	13.1254	24.4152	17.9648	0.5780	-0.7230	0.3077	-0.2201
8.4	-0.3585	-9.1916	-2.1953	0.0266	0.0017	0.0084	12.9653	24.5505	17.8447	0.5780	-0.7231	0.3077	-0.2201
8.41	-0.3502	-9.1917	-2.2082	0.0227	0.0001	0.0115	12.9105	24.6322	17.7457	0.5780	-0.7230	0.3077	-0.2201
8.42	-0.3387	-9.1989	-2.2163	0.0226	0.0013	0.0106	12.9447	24.7436	17.7858	0.5780	-0.7231	0.3078	-0.2201
8.43	-0.3232	-9.1974	-2.2290	0.0262	0.0034	0.0108	12.8287	24.4698	17.7620	0.5779	-0.7230	0.3078	-0.2201
8.44	-0.3107	-9.1995	-2.2377	0.0216	-0.0009	0.0080	12.7538	24.6786	17.7825	0.5779	-0.7231	0.3078	-0.2202
8.45	-0.2996	-9.1996	-2.2429	0.0233	-0.0041	0.0111	12.9015	24.6017	17.7613	0.5779	-0.7231	0.3078	-0.2201
8.46	-0.2913	-9.1981	-2.2419	0.0222	-0.0015	0.0061	12.9945	24.4798	17.7943	0.5779	-0.7231	0.3078	-0.2201
8.47	-0.2914	-9.1979	-2.2516	0.0260	-0.0011	0.0083	13.1010	24.5597	17.7482	0.5779	-0.7231	0.3078	-0.2202
8.48	-0.2937	-9.1964	-2.2553	0.0260	0.0068	0.0128	12.8221	24.3572	17.9654	0.5779	-0.7231	0.3078	-0.2202
8.49	-0.3059	-9.1989	-2.2617	0.0250	0.0058	0.0150	13.1016	24.3801	17.8510	0.5779	-0.7231	0.3079	-0.2202
8.5	-0.3134	-9.1943	-2.2609	0.0270	0.0026	0.0122	13.2773	24.3230	17.6758	0.5778	-0.7230	0.3079	-0.2202
8.51	-0.3252	-9.1923	-2.2609	0.0261	0.0005	0.0121	13.3089	24.5368	17.9060	0.5779	-0.7230	0.3079	-0.2202
8.52	-0.3391	-9.1930	-2.2682	0.0271	0.0008	0.0106	13.6463	24.4211	18.0460	0.5779	-0.7230	0.3079	-0.2202
8.53	-0.3445	-9.1944	-2.2684	0.0237	-0.0100	0.0129	13.6708	24.4697	17.9577	0.5779	-0.7230	0.3079	-0.2202
8.54	-0.3575	-9.1912	-2.2601	0.0266	-0.0036	0.0093	13.1834	24.9850	17.6647	0.5779	-0.7230	0.3079	-0.2202
8.55	-0.3650	-9.1902	-2.2615	0.0244	-0.0026	0.0134	13.2859	25.1847	17.6770	0.5779	-0.7230	0.3079	-0.2202
8.56	-0.3720	-9.1901	-2.2482	0.0233	-0.0015	0.0143	13.1064	24.6087	17.6671	0.5779	-0.7230	0.3079	-0.2202
8.57	-0.3756	-9.1930	-2.2418	0.0258	-0.0037	0.0100	12.9606	24.3888	17.9574	0.5778	-0.7230	0.3079	-0.2201
8.58	-0.3757	-9.1957	-2.2533	0.0250	-0.0041	0.0107	12.9760	24.4752	17.8182	0.5779	-0.7231	0.3079	-0.2202
8.59	-0.3839	-9.1938	-2.2396	0.0212	0.0007	0.0104	12.8539	24.5247	17.6967	0.5779	-0.7230	0.3079	-0.2202
8.6	-0.3836	-9.1915	-2.2405	0.0268	0.0034	0.0101	12.7764	24.5206	17.6282	0.5779	-0.7231	0.3080	-0.2202
8.61	-0.3915	-9.1888	-2.2410	0.0234	0.0011	0.0121	13.0112	24.4246	17.8669	0.5778	-0.7230	0.3079	-0.2202
8.62	-0.3981	-9.1939	-2.2372	0.0241	0.0056	0.0084	13.0331	24.4323	17.7183	0.5778	-0.7230	0.3080	-0.2202
8.63	-0.3983	-9.1864	-2.2344	0.0234	0.0045	0.0127	12.8250	24.4354	17.6278	0.5778	-0.7230	0.3080	-0.2202
8.64	-0.3980	-9.1858	-2.2299	0.0244	-0.0013	0.0141	13.0662	24.4274	17.7654	0.5778	-0.7230	0.3080	-0.2202
8.65	-0.4016	-9.1948	-2.2411	0.0274	-0.0026	0.0070	13.1556	24.5380	17.8449	0.5778	-0.7231	0.3080	-0.2203
8.66	-0.4024	-9.1937	-2.2408	0.0259	0.0031	0.0134	12.9898	24.6473	17.8690	0.5778	-0.7230	0.3080	-0.2202
8.67	-0.3914	-9.1848	-2.2323	0.0251	-0.0051	0.0148	12.9796	24.7171	17.7217	0.5778	-0.7231	0.3081	-0.2202
8.68	-0.3807	-9.1895	-2.2364	0.0271	0.0012	0.0161	12.9640	24.5113	17.5365	0.5778	-0.7229	0.3081	-0.2202
8.69	-0.3746	-9.1999	-2.2519	0.0245	-0.0023	0.0101	13.1172	24.5117	17.8394	0.5778	-0.7230	0.3081	-0.2202
8.7	-0.3675	-9.1884	-2.2432	0.0271	0.0012	0.0108	13.1084	24.5474	17.4877	0.5778	-0.7230	0.3081	-0.2202
8.71	-0.3631	-9.1870	-2.2463	0.0242	-0.0012	0.0125	13.0500	24.4312	17.5841	0.5778	-0.7230	0.3081	-0.2202
8.72	-0.3620	-9.1894	-2.2556	0.0223	-0.0062	0.0113	13.0693	24.4451	17.5565	0.5778	-0.7230	0.3081	-0.2202
8.73	-0.3598	-9.1881	-2.2489	0.0264	0.0028	0.0102	12.9477	24.5291	17.7887	0.5778	-0.7230	0.3081	-0.2202
8.74	-0.3605	-9.1856	-2.2424	0.0262	0.0004	0.0118	13.1868	24.5602	17.7679	0.5778	-0.7230	0.3082	-0.2203
8.75	-0.3616	-9.1892	-2.2402	0.0265	0.0004	0.0088	12.9732	24.6401	17.5222	0.5777	-0.7229	0.3081	-0.2202
8.76	-0.3638	-9.1942	-2.2453	0.0241	-0.0018	0.0135	12.8894	24.4445	17.7202	0.5778	-0.7230	0.3082	-0.2203
8.77	-0.3562	-9.2001	-2.2514	0.0268	0.0009	0.0110	13.0294	24.4844	17.6342	0.5778	-0.7230	0.3082	-0.2203
8.78	-0.3568	-9.1878	-2.2341	0.0215	0.0047	0.0086	12.8920	24.5161	17.7419	0.5778	-0.7230	0.3082	-0.2203
8.79	-0.3573	-9.1880	-2.2337	0.0202	0.0021	0.0086	12.9005	24.5285	17.8487	0.5777	-0.7230	0.3082	-0.2203
8.8	-0.3623	-9.1986	-2.2442	0.0216	-0.0035	0.0100	12.9960	24.4735	17.8413	0.5777	-0.7230	0.3082	-0.2203
8.81	-0.3590	-9.1899	-2.2424	0.0241	0.0009	0.0105	12.9750	24.6460	17.8410	0.5777	-0.7230	0.3082	-0.2203
8.82	-0.3560	-9.1909	-2.2439	0.0223	0.0011	0.0080	12.9659	24.6351	17.8314	0.5776	-0.7230	0.3082	-0.2203
8.83	-0.3566	-9.2060	-2.2474	0.0260	0.0021	0.0078	13.1833	24.2984	17.8728	0.5777	-0.7231	0.3083	-0.2204
8.84	-0.3487	-9.2009	-2.2434	0.0277	0.0033	0.0071	12.9576	24.5275	17.7955	0.5776	-0.7230	0.3082	-0.2204
8.85	-0.3425	-9.1993	-2.2470	0.0260	0.0081	0.0076	13.0666	24.5115	17.7217	0.5777	-0.7231	0.3083	-0.2204
8.86	-0.3419	-9.2000	-2.2479	0.0266	-0.0059	0.0135	12.9522	24.5962	17.8676	0.5776	-0.7230	0.3083	-0.2204
8.87	-0.3387	-9.1912	-2.2491	0.0232	-0.0108	0.0109	13.1366	24.6194	17.5719	0.5776	-0.7230	0.3083	-0.2204
8.88	-0.3411	-9.1914	-2.2503	0.0239	0.0033	0.0114	13.2316	24.5554	17.6483	0.5776	-0.7230	0.3083	-0.2204
8.89	-0.3435	-9.1961	-2.2497	0.0265	0.0040	0.0157	12.9588	24.4994	17.6710	0.5776	-0.7230	0.3083	-0.2204
8.9	-0.3523	-9.1925	-2.2466	0.0261	0.0052	0.0145	13.0655	24.6250	17.7661	0.5777	-0.7230	0.3084	-0.2204
8.91	-0.3599	-9.1879	-2.2466	0.0248	0.0066	0.0190	13.0734	24.4647	17.7388	0.5776	-0.7229	0.3084	-0.2204
8.92	-0.3641	-9.1973	-2.2518	0.0262	0.0033	0.0088	12.9972	24.4144	17.8278	0.5776	-0.7230	0.3085	-0.2204
8.93	-0.3693	-9.1897	-2.2467	0.0263	-0.0003	0.0128	12.9083	24.5286	17.8591	0.5776	-0.7229	0.3084	-0.2204
8.94	-0.3742	-9.1920	-2.2361	0.0179	0.0011	0.0121	12.8556	24.4982	17.7109	0.5776	-0.7230	0.3085	-0.2204
8.95	-0.3715	-9.2037	-2.2418	0.0261	-0.0055	0.0095	13.1695	24.4123	17.9867	0.5776	-0.7230	0.3085	-0.2204
8.96	-0.3662	-9.1935	-2.2309	0.0240	0.0023	0.0166	13.1216	24.7256	17.7476	0.5776	-0.7229	0.3085	-0.2204
8.97	-0.3599	-9.1910	-2.2335	0.0258	-0.0001	0.0087	12.8459	24.5506	17.8661	0.5776	-0.7230	0.3085	-0.2204
8.98	-0.3599	-9.1988	-2.2417	0.0226	-0.0019	0.0080	13.0227	24.5444	17.6528	0.5775	-0.7230	0.3085	-0.2204
8.99	-0.3577	-9.1926	-2.2336	0.0189	0.0036	0.0069	12.7814	24.6070	17.5884	0.5775	-0.7230	0.3085	-0.2205
9	-0.3573	-9.1909	-2.2307	0.0267	-0.0014	0.0040	12.8986	24.6663	17.7803	0.5775	-0.7229	0.3085	-0.2205
9.01	-0.3588	-9.1903	-2.2316	0.0269	-0.0008	0.0104	13.2797	24.7042	17.9504	0.5775	-0.7230	0.3085	-0.2205
9.02	-0.3575	-9.1917	-2.2391	0.0241	0.0056	0.0089	13.6082	24.5290	17.9438	0.5775	-0.7230	0.3085	-0.2205
9.03	-0.3624	-9.2008	-2.2446	0.0197	0.0036	0.0072	13.4403	24.5549	17.9037	0.5775	-0.7230	0.3085	-0.2206
9.04	-0.3642	-9.1938	-2.2395	0.0213	0.0008	0.0154	12.8912	24.8920	17.7799	0.5774	-0.7230	0.3086	-0.2205
9.05	-0.3673	-9.1930	-2.2410	0.0271	-0.0080	0.0136	12.9403	25.2711	17.6398	0.5774	-0.7230	0.3086	-0.2205
9.06	-0.3730	-9.1994	-2.2540	0.0269	-0.0037	0.0078	12.9617	24.3576	17.6966	0.5775	-0.7230	0.3086	-0.2205
9.07	-0.3672	-9.1902	-2.2490	0.0268	-0.0037	0.0133	13.1051	24.3460	17.5967	0.5774	-0.7229	0.3085	-0.2205
9.08	-0.3638	-9.1860	-2.2545	0.0283	-0.0005	0.0137	13.1725	24.3106	17.5996	0.5775	-0.7230	0.3086	-0.2205
9.09	-0.3540	-9.1984	-2.2634	0.0187	-0.0016	0.0154	13.1836	24.3106	17.5905	0.5774	-0.7230	0.3086	-0.2205
9.1	-0.3496	-9.1972	-2.2561	0.0219	-0.0021	0.0118	13.1294	24.4780	17.6498	0.5775	-0.7231	0.3086	-0.2205
9.11	-0.3504	-9.1927	-2.2504	0.0276	0.0029	0.0114	12.9035	24.5310	17.7848	0.5774	-0.7229	0.3086	-0.2205
9.12	-0.3542	-9.1968	-2.2488	0.0215	-0.0055	0.0069	12.9394	24.4602	17.7474	0.5774	-0.7230	0.3086	-0.2205
9.13	-0.3635	-9.1952	-2.2535	0.0266	0.0019	0.0136	12.8925	24.4401	17.6030	0.5774	-0.7230	0.3086	-0.2205
9.14	-0.3711	-9.1900	-2.2413	0.0252	-0.0070	0.0141	12.8057	24.5439	17.5723	0.5774	-0.7230	0.3086	-0.2204
9.15	-0.3775	-9.1891	-2.2431	0.0276	-0.0057	0.0132	13.0019	24.5373	17.5920	0.5775	-0.7230	0.3087	-0.2205
9.16	-0.3787	-9.1924	-2.2356	0.0243	-0.0011	0.0084	12.8125	24.5832	17.8499	0.5774	-0.7230	0.3086	-0.2204
9.17	-0.3771	-9.1905	-2.2292	0.0280	-0.0015	0.0087	12.8050	24.6339	17.5645	0.5775	-0.7230	0.3087	-0.2205
9.18	-0.3742	-9.1880	-2.2230	0.0228	-0.0003	0.0066	12.9330	24.6351	17.7572	0.5774	-0.7229	0.3086	-0.2205
9.19	-0.3715	-9.1988	-2.2285	0.0273	0.0020	0.0092	12.8562	24.4795	17.8735	0.5774	-0.7230	0.3087	-0.2205
9.2	-0.3629	-9.1933	-2.2210	0.0214	-0.0014	0.0075	13.0761	24.5103	17.6979	0.5774	-0.7230	0.3086	-0.2205
9.21	-0.3532	-9.1952	-2.2256	0.0205	-0.0007	0.0081	12.9018	24.5517	17.8883	0.5774	-0.7230	0.3086	-0.2205
9.22	-0.3477	-9.1938	-2.2293	0.0235	-0.0020	0.0111	12.9440	24.5522	17.7072	0.5774	-0.7230	0.3087	-0.2205
9.23	-0.3478	-9.1933	-2.2267	0.0266	0.0008	0.0127	12.6704	24.7463	17.7041	0.5774	-0.7230	0.3087	-0.2205
9.24	-0.3550	-9.1961	-2.2217	0.0246	-0.0026	0.0123	12.7739	24.4820	17.7297	0.5774	-0.7230	0.3087	-0.2205
9.25	-0.3632	-9.1902	-2.2238	0.0226	-0.0064	0.0080	13.0508	24.3702	17.5659	0.5773	-0.7230	0.3086	-0.2205
9.26	-0.3742	-9.1965	-2.2315	0.0220	-0.0026	0.0135	12.9695	24.3940	17.6986	0.5774	-0.7231	0.3087	-0.2205
9.27	-0.3797	-9.1913	-2.2376	0.0220	-0.0000	0.0100	12.9484	24.5049	17.6791	0.5773	-0.7230	0.3087	-0.2205
9.28	-0.3756	-9.1877	-2.2412	0.0280	-0.0019	0.0073	13.0966	24.3824	17.6707	0.5773	-0.7231	0.3087	-0.2205
9.29	-0.3685	-9.1916	-2.2524	0.0213	-0.0010	0.0119	13.1016	24.3797	17.7204	0.5773	-0.7230	0.3087	-0.2205
9.3	-0.3559	-9.1944	-2.2550	0.0241	-0.0027	0.0122	13.0718	24.5074	17.4625	0.5773	-0.7230	0.3087	-0.2205
9.31	-0.3434	-9.1925	-2.2506	0.0209	0.0037	0.0141	12.9837	24.5838	17.5216	0.5773	-0.7231	0.3087	-0.2205
9.32	-0.3389	-9.1951	-2.2535	0.0248	0.0050	0.0136	13.0256	24.4274	17.9261	0.5772	-0.7230	0.3088	-0.2205
9.33	-0.3327	-9.1983	-2.2573	0.0195	0.0008	0.0130	12.8861	24.6908	17.6890	0.5773	-0.7231	0.3088	-0.2205
9.34	-0.3386	-9.1937	-2.2607	0.0152	-0.0024	0.0063	12.8479	24.8081	17.5273	0.5772	-0.7231	0.3088	-0.2205
9.35	-0.3438	-9.1907	-2.2610	0.0214	0.0036	0.0111	13.0606	24.5643	17.7135	0.5772	-0.7232	0.3089	-0.2205
9.36	-0.3520	-9.1954	-2.2612	0.0281	0.0042	0.0072	12.7337	24.4303	17.8959	0.5771	-0.7230	0.3088	-0.2205
9.37	-0.3567	-9.1974	-2.2586	0.0253	0.0026	0.0064	12.6767	24.7117	17.7768	0.5772	-0.7231	0.3088	-0.2206
9.38	-0.3583	-9.1891	-2.2594	0.0244	0.0017	0.0089	12.8526	24.6376	17.6157	0.5772	-0.7231	0.3089	-0.2206
9.39	-0.3641	-9.1875	-2.2500	0.0279	0.0024	0.0070	12.8411	24.6876	17.7678	0.5771	-0.7230	0.3088	-0.2206
9.4	-0.3671	-9.1955	-2.2532	0.0266	0.0001	0.0073	12.7589	24.7186	17.7527	0.5772	-0.7231	0.3089	-0.2206
9.41	-0.3639	-9.1877	-2.2457	0.0271	-0.0008	0.0079	13.0056	24.8435	17.7512	0.5771	-0.7231	0.3088	-0.2206
9.42	-0.3629	-9.1917	-2.2342	0.0242	-0.0032	0.0125	12.7682	24.6698	17.7710	0.5772	-0.7231	0.3089	-0.2206
9.43	-0.3635	-9.1968	-2.2346	0.0231	0.0014	0.0090	12.8357	24.5238	17.6705	0.5771	-0.7230	0.3088	-0.2206
9.44	-0.3610	-9.1965	-2.2357	0.0273	0.0048	0.0076	13.0771	24.4405	17.5649	0.5771	-0.7231	0.3089	-0.2207
9.45	-0.3608	-9.1921	-2.2252	0.0250	0.0047	0.0111	13.0905	24.5119	17.6150	0.5771	-0.7231	0.3089	-0.2207
9.46	-0.3608	-9.1903	-2.2229	0.0270	0.0014	0.0098	13.0977	24.5716	17.5114	0.5771	-0.7230	0.3089	-0.2207
9.47	-0.3595	-9.1953	-2.2254	0.0232	0.0022	0.0142	13.0935	24.4423	17.3958	0.5771	-0.7231	0.3089	-0.2207
9.48	-0.3628	-9.1908	-2.2196	0.0299	0.0057	0.0115	13.0949	24.6108	17.5608	0.5771	-0.7230	0.3089	-0.2207
9.49	-0.3642	-9.1918	-2.2189	0.0219	0.0053	0.0079	12.8985	24.6108	17.5993	0.5771	-0.7231	0.3090	-0.2208
9.5	-0.3673	-9.1938	-2.2244	0.0208	0.0042	0.0090	13.0404	24.4007	17.5597	0.5770	-0.7230	0.3090	-0.2208
9.51	-0.3684	-9.1913	-2.2234	0.0255	0.0079	0.0098	13.0489	24.7507	17.9439	0.5770	-0.7231	0.3090	-0.2208
9.52	-0.3664	-9.1899	-2.2271	0.0209	-0.0010	0.0122	13.4952	24.7334	17.8848	0.5770	-0.7230	0.3090	-0.2208
9.53	-0.3668	-9.1933	-2.2264	0.0229	0.0052	0.0098	13.4027	24.8325	17.8552	0.5770	-0.7231	0.3091	-0.2209
9.54	-0.3635	-9.1925	-2.2319	0.0213	0.0047	0.0041	13.1140	25.0493	17.8785	0.5769	-0.7230	0.3091	-0.2209
9.55	-0.3575	-9.1948	-2.2317	0.0221	0.0074	0.0096	13.0891	25.1102	17.8069	0.5769	-0.7231	0.3091	-0.2209
9.56	-0.3573	-9.1944	-2.2392	0.0234	0.0064	0.0062	12.9355	24.8193	17.8253	0.5769	-0.7231	0.3091	-0.2210
9.57	-0.3561	-9.1912	-2.2420	0.0239	-0.0035	0.0099	12.9160	24.7453	17.7454	0.5769	-0.7230	0.3091	-0.2209
9.58	-0.3546	-9.1927	-2.2459	0.0256	0.0050	0.0110	12.8817	24.6529	17.6112	0.5769	-0.7231	0.3091	-0.2210
9.59	-0.3562	-9.1905	-2.2452	0.0187	0.0041	0.0090	13.0138	24.6070	17.8503	0.5768	-0.7231	0.3091	-0.2210
9.6	-0.3570	-9.1960	-2.2500	0.0216	0.0047	0.0069	12.8999	24.7218	17.9476	0.5769	-0.7231	0.3092	-0.2210
9.61	-0.3630	-9.1916	-2.2454	0.0256	-0.0009	0.0131	12.7880	24.5634	17.7936	0.5768	-0.7230	0.3092	-0.2210
9.62	-0.3649	-9.1913	-2.2472	0.0196	-0.0085	0.0148	13.0594	24.6081	17.7369	0.5768	-0.7231	0.3092	-0.2210
9.63	-0.3624	-9.1971	-2.2525	0.0288	-0.0034	0.0159	12.9939	24.5909	17.7269	0.5768	-0.7231	0.3092	-0.2210
9.64	-0.3626	-9.1949	-2.2510	0.0245	0.0014	0.0124	13.0020	24.6022	17.7502	0.5768	-0.7230	0.3092	-0.2209
9.65	-0.3624	-9.1924	-2.2491	0.0239	0.0011	0.0076	13.2821	24.5132	17.7150	0.5769	-0.7231	0.3092	-0.2210
9.66	-0.3603	-9.1919	-2.2471	0.0211	-0.0003	0.0133	12.8674	24.5059	17.8133	0.5768	-0.7231	0.3092	-0.2210
9.67	-0.3601	-9.1923	-2.2457	0.0223	0.0009	0.0173	12.8398	24.5259	17.7265	0.5768	-0.7231	0.3093	-0.2210
9.68	-0.3618	-9.1921	-2.2480	0.0240	-0.0098	0.0156	13.0062	24.4880	17.5017	0.5768	-0.7230	0.3093	-0.2209
9.69	-0.3588	-9.1928	-2.2416	0.0199	-0.0026	0.0155	12.9552	24.5668	17.9602	0.5768	-0.7231	0.3093	-0.2209
9.7	-0.3577	-9.2007	-2.2448	0.0259	-0.0070	0.0168	12.9776	24.8811	17.6500	0.5768	-0.7231	0.3093	-0.2208
9.71	-0.3577	-9.1930	-2.2417	0.0250	-0.0015	0.0113	12.9631	24.7711	18.0147	0.5768	-0.7231	0.3093	-0.2208
9.72	-0.3620	-9.1899	-2.2411	0.0269	0.0019	0.0067	12.9659	24.6458	17.8705	0.5768	-0.7231	0.3093	-0.2209
9.73	-0.3603	-9.1960	-2.2416	0.0235	-0.0011	0.0143	12.8587	24.5932	17.6070	0.5768	-0.7231	0.3093	-0.2209
9.74	-0.3601	-9.1956	-2.2392	0.0245	-0.0046	0.0103	12.9498	24.5484	17.8333	0.5768	-0.7231	0.3093	-0.2208
9.75	-0.3602	-9.1912	-2.2442	0.0246	-0.0022	0.0068	12.9932	24.4769	17.9167	0.5767	-0.7230	0.3093	-0.2208
9.76	-0.3565	-9.1948	-2.2408	0.0250	0.0016	0.0094	12.8255	24.7441	17.8880	0.5768	-0.7231	0.3093	-0.2209
9.77	-0.3596	-9.1972	-2.2402	0.0269	0.0047	0.0052	12.8479	24.5895	17.8010	0.5768	-0.7231	0.3093	-0.2209
9.78	-0.3632	-9.1912	-2.2356	0.0247	-0.0027	0.0087	12.9091	24.6563	17.8268	0.5768	-0.7231	0.3093	-0.2209
9.79	-0.3613	-9.1895	-2.2332	0.0251	0.0008	0.0104	12.7992	24.7634	17.8324	0.5767	-0.7231	0.3093	-0.2209
9.8	-0.3666	-9.1971	-2.2351	0.0269	0.0004	0.0125	12.9079	24.7735	17.7783	0.5767	-0.7231	0.3093	-0.2209
9.81	-0.3667	-9.1972	-2.2412	0.0268	-0.0077	0.0164	13.2445	24.5172	17.7541	0.5768	-0.7231	0.3094	-0.2209
9.82	-0.3674	-9.1899	-2.2429	0.0270	-0.0002	0.0074	13.0383	24.5988	17.6486	0.5767	-0.7230	0.3093	-0.2209
9.83	-0.3686	-9.1936	-2.2489	0.0263	0.0029	0.0107	13.0993	24.5762	17.5660	0.5768	-0.7231	0.3094	-0.2209
9.84	-0.3686	-9.1918	-2.2440	0.0277	-0.0050	0.0107	13.0600	24.3860	17.8250	0.5768	-0.7231	0.3093	-0.2209
9.85	-0.3709	-9.1896	-2.2430	0.0217	-0.0047	0.0083	12.9603	24.4741	17.6360	0.5768	-0.7231	0.3094	-0.2209
9.86	-0.3681	-9.1938	-2.2336	0.0229	-0.0052	0.0093	12.8840	24.7963	17.6576	0.5767	-0.7231	0.3093	-0.2209
9.87	-0.3630	-9.1976	-2.2298	0.0246	-0.0031	0.0098	12.9381	24.8276	17.6208	0.5768	-0.7231	0.3093	-0.2209
9.88	-0.3627	-9.1973	-2.2352	0.0266	-0.0016	0.0130	12.9225	24.5753	17.8764	0.5768	-0.7231	0.3093	-0.2209
9.89	-0.3626	-9.1915	-2.2345	0.0266	-0.0001	0.0143	12.9360	24.5900	17.9270	0.5767	-0.7230	0.3093	-0.2209
9.9	-0.3568	-9.1910	-2.2310	0.0256	0.0040	0.0086	13.0769	24.7048	17.8141	0.5768	-0.7231	0.3094	-0.2209
9.91	-0.3506	-9.1938	-2.2304	0.0290	0.0034	0.0093	12.8038	24.6339	17.8017	0.5768	-0.7231	0.3094	-0.2209
9.92	-0.3480	-9.1971	-2.2337	0.0270	-0.0081	0.0111	13.0294	24.5724	17.6804	0.5768	-0.7231	0.3094	-0.2209
9.93	-0.3487	-9.1948	-2.2392	0.0268	-0.0034	0.0093	13.1469	24.6118	17.9494	0.5767	-0.7230	0.3093	-0.2209
9.94	-0.3467	-9.1984	-2.2448	0.0240	-0.0025	0.0086	13.0081	24.5758	17.8833	0.5768	-0.7231	0.3094	-0.2209
9.95	-0.3505	-9.1984	-2.2529	0.0212	-0.0042	0.0075	12.9571	24.7887	17.6136	0.5768	-0.7231	0.3093	-0.2209
9.96	-0.3562	-9.1957	-2.2468	0.0252	-0.0035	0.0068	12.9898	24.6147	17.7258	0.5767	-0.7231	0.3093	-0.2209
9.97	-0.3561	-9.1916	-2.2536	0.0279	-0.0012	0.0139	12.7921	24.4899	17.8322	0.5768	-0.7231	0.3093	-0.2209
9.98	-0.3542	-9.1930	-2.2540	0.0264	-0.0007	0.0146	12.6796	24.7576	17.6893	0.5768	-0.7231	0.3094	-0.2209
9.99	-0.3526	-9.1976	-2.2534	0.0275	0.0000	0.0112	12.8686	24.5326	17.7693	0.5768	-0.7231	0.3094	-0.2209
10	-0.3490	-9.1977	-2.2571	0.0218	-0.0031	0.0100	13.2580	24.4973	17.6250	0.5767	-0.7230	0.3093	-0.2209
10.01	-0.3483	-9.1923	-2.2544	0.0253	-0.0016	0.0099	13.2816	24.6490	18.0058	0.5768	-0.7231	0.3094	-0.2209
10.02	-0.3547	-9.1888	-2.2513	0.0265	-0.0013	0.0117	13.5953	24.5446	18.1354	0.5768	-0.7231	0.3094	-0.2209
10.03	-0.3608	-9.1922	-2.2521	0.0269	-0.0021	0.0107	13.4678	24.5508	18.0085	0.5768	-0.7231	0.3094	-0.2209
10.04	-0.3658	-9.1914	-2.2408	0.0268	0.0037	0.0107	13.3535	24.8867	17.8118	0.5768	-0.7230	0.3094	-0.2209
10.05	-0.3668	-9.1827	-2.2378	0.0268	0.0011	0.0089	13.0250	25.2948	17.6669	0.5768	-0.7230	0.3094	-0.2209
10.06	-0.3783	-9.1934	-2.2404	0.0255	0.0044	0.0125	13.0248	24.4767	17.7172	0.5768	-0.7231	0.3094	-0.2210
10.07	-0.3796	-9.1969	-2.2350	0.0260	-0.0031	0.0081	13.0725	24.3058	17.6322	0.5767	-0.7230	0.3094	-0.2210
10.08	-0.3783	-9.1957	-2.2295	0.0252	0.0026	0.0105	12.9046	24.6112	17.5953	0.5768	-0.7231	0.3094	-0.2210
10.09	-0.3790	-9.1862	-2.2225	0.0196	0.0005	0.0088	13.0764	24.4821	17.5055	0.5767	-0.7230	0.3094	-0.2210
10.1	-0.3683	-9.1899	-2.2199	0.0269	-0.0013	0.0095	12.7427	24.4304	17.8081	0.5768	-0.7231	0.3095	-0.2210
10.11	-0.3697	-9.1959	-2.2269	0.0251	0.0030	0.0096	12.8070	24.5547	17.6722	0.5767	-0.7230	0.3094	-0.2210
10.12	-0.3648	-9.1910	-2.2276	0.0284	0.0062	0.0097	12.9350	24.6312	17.8463	0.5767	-0.7230	0.3095	-0.2211
10.13	-0.3612	-9.1884	-2.2332	0.0267	0.0027	0.0067	13.0018	24.6329	17.6487	0.5767	-0.7230	0.3095	-0.2211
10.14	-0.3619	-9.1927	-2.2356	0.0265	0.0062	0.0077	12.9719	24.5849	17.6567	0.5767	-0.7230	0.3095	-0.2211
10.15	-0.3667	-9.1898	-2.2315	0.0250	-0.0009	0.0102	12.7390	24.8591	17.8160	0.5767	-0.7231	0.3095	-0.2211
10.16	-0.3759	-9.1887	-2.2328	0.0264	-0.0041	0.0064	12.7673	24.7929	17.8851	0.5767	-0.7230	0.3095	-0.2211
10.17	-0.3859	-9.1975	-2.2371	0.0265	0.0015	0.0124	12.8239	24.6417	17.8025	0.5767	-0.7231	0.3095	-0.2212
10.18	-0.3904	-9.1917	-2.2457	0.0260	-0.0013	0.0124	12.9324	24.4298	17.7755	0.5767	-0.7229	0.3095	-0.2211
10.19	-0.3864	-9.1883	-2.2557	0.0252	-0.0041	0.0086	13.0639	24.3987	17.8055	0.5767	-0.7230	0.3095	-0.2211
10.2	-0.3838	-9.1934	-2.2612	0.0231	0.0026	0.0073	13.0598	24.5943	17.7592	0.5767	-0.7230	0.3095	-0.2212
10.21	-0.3687	-9.1911	-2.2690	0.0233	0.0003	0.0102	12.9939	24.4731	17.5786	0.5767	-0.7230	0.3095	-0.2212
10.22	-0.3565	-9.1884	-2.2565	0.0272	-0.0045	0.0160	13.1124	24.3308	17.7576	0.5767	-0.7230	0.3095	-0.2212
10.23	-0.3411	-9.1927	-2.2594	0.0259	-0.0071	0.0102	13.1153	24.4759	17.4913	0.5767	-0.7230	0.3095	-0.2211
10.24	-0.3377	-9.2020	-2.2615	0.0245	-0.0078	0.0070	13.0501	24.5182	17.4946	0.5767	-0.7230	0.3095	-0.2211
10.25	-0.3267	-9.1942	-2.2585	0.0276	-0.0044	0.0070	13.0005	24.4321	17.5347	0.5767	-0.7230	0.3094	-0.2211
10.26	-0.3346	-9.1964	-2.2558	0.0272	-0.0007	0.0074	13.1316	24.5647	17.5465	0.5767	-0.7230	0.3095	-0.2211
10.27	-0.3349	-9.1986	-2.2627	0.0264	0.0049	0.0085	13.0578	24.4290	17.7728	0.5767	-0.7230	0.3094	-0.2212
10.28	-0.3380	-9.1971	-2.2532	0.0260	0.0008	0.0098	12.9452	24.7305	17.5971	0.5767	-0.7230	0.3095	-0.2212
10.29	-0.3463	-9.1901	-2.2492	0.0260	-0.0027	0.0079	12.8613	24.6835	17.5942	0.5767	-0.7230	0.3094	-0.2212
10.3	-0.3519	-9.1932	-2.2563	0.0274	0.0007	0.0073	12.7219	24.7331	17.8858	0.5767	-0.7230	0.3094	-0.2212
10.31	-0.3545	-9.1940	-2.2520	0.0248	-0.0010	0.0075	12.8871	24.6152	17.7644	0.5767	-0.7230	0.3094	-0.2212
10.32	-0.3612	-9.1955	-2.2509	0.0267	-0.0043	0.0093	12.9816	24.7054	17.6405	0.5766	-0.7230	0.3094	-0.2212
10.33	-0.3599	-9.1915	-2.2388	0.0259	-0.0058	0.0149	12.7011	24.6902	17.9425	0.5767	-0.7230	0.3095	-0.2212
10.34	-0.3554	-9.1945	-2.2491	0.0248	0.0024	0.0090	12.9922	24.6051	17.7851	0.5767	-0.7230	0.3094	-0.2212
10.35	-0.3526	-9.1943	-2.2361	0.0260	-0.0004	0.0067	12.9649	24.8404	17.8143	0.5767	-0.7231	0.3095	-0.2212
10.36	-0.3504	-9.1877	-2.2230	0.0262	-0.0128	0.0136	12.9106	24.5976	17.5721	0.5767	-0.7230	0.3094	-0.2212
10.37	-0.3520	-9.1970	-2.2336	0.0270	-0.0064	0.0166	13.1809	24.3076	17.6780	0.5767	-0.7230	0.3094	-0.2212
10.38	-0.3604	-9.1963	-2.2286	0.0245	-0.0068	0.0102	13.1494	24.1391	17.6812	0.5767	-0.7230	0.3094	-0.2211
10.39	-0.3678	-9.1921	-2.2217	0.0270	-0.0020	0.0150	13.0047	24.4562	17.5965	0.5767	-0.7230	0.3094	-0.2211
10.4	-0.3699	-9.1914	-2.2259	0.0267	-0.0005	0.0138	13.1253	24.5532	17.6260	0.5768	-0.7230	0.3095	-0.2211
10.41	-0.3709	-9.1927	-2.2291	0.0263	-0.0017	0.0094	12.9366	24.4335	17.6387	0.5767	-0.7230	0.3094	-0.2211
10.42	-0.3695	-9.1919	-2.2271	0.0219	0.0045	0.0083	12.9863	24.6647	17.7456	0.5768	-0.7230	0.3095	-0.2212
10.43	-0.3686	-9.1887	-2.2314	0.0208	-0.0042	0.0151	13.1002	24.5136	17.5847	0.5767	-0.7229	0.3095	-0.2211
10.44	-0.3669	-9.1975	-2.2357	0.0225	-0.0048	0.0129	13.1141	24.5745	17.7604	0.5767	-0.7230	0.3095	-0.2211
10.45	-0.3699	-9.1932	-2.2369	0.0224	0.0003	0.0104	13.0382	24.3120	17.7773	0.5767	-0.7230	0.3095	-0.2211
10.46	-0.3664	-9.1908	-2.2314	0.0237	0.0009	0.0154	13.0189	24.6275	17.5859	0.5767	-0.7230	0.3095	-0.2211
10.47	-0.3680	-9.1898	-2.2421	0.0240	0.0002	0.0114	12.9918	24.5951	17.7165	0.5767	-0.7230	0.3095	-0.2211
10.48	-0.3738	-9.1910	-2.2397	0.0249	0.0028	0.0129	12.9543	24.7118	17.8158	0.5767	-0.7230	0.3096	-0.2211
10.49	-0.3718	-9.1908	-2.2448	0.0253	-0.0012	0.0124	13.0299	24.7454	17.7492	0.5767	-0.7230	0.3096	-0.2211
10.5	-0.3684	-9.1909	-2.2487	0.0259	-0.0007	0.0118	13.0057	24.7718	17.8961	0.5766	-0.7229	0.3096	-0.2211
10.51	-0.3679	-9.1891	-2.2542	0.0266	0.0030	0.0097	13.1726	24.7835	17.9346	0.5767	-0.7230	0.3096	-0.2211
10.52	-0.3639	-9.1872	-2.2451	0.0260	-0.0012	0.0123	13.5151	24.7087	18.2206	0.5767	-0.7230	0.3096	-0.2211
10.53	-0.3637	-9.1911	-2.2434	0.0268	-0.0047	0.0094	13.4096	24.6317	18.0692	0.5767	-0.7230	0.3096	-0.2211
10.54	-0.3651	-9.1971	-2.2491	0.0265	-0.0013	0.0124	13.0369	24.7700	17.5601	0.5767	-0.7230	0.3096	-0.2211
10.55	-0.3579	-9.1991	-2.2469	0.0266	-0.0099	0.0111	13.1311	25.3203	17.5663	0.5767	-0.7230	0.3096	-0.2211
10.56	-0.3618	-9.1908	-2.2464	0.0259	-0.0030	0.0140	12.8667	24.4645	17.6664	0.5767	-0.7230	0.3096	-0.2211
10.57	-0.3614	-9.1952	-2.2488	0.0286	-0.0007	0.0150	12.9417	24.5762	17.8933	0.5767	-0.7229	0.3096	-0.2210
10.58	-0.3599	-9.1921	-2.2471	0.0244	-0.0017	0.0112	13.3125	24.7492	17.6222	0.5768	-0.7230	0.3096	-0.2211
10.59	-0.3630	-9.1863	-2.2404	0.0250	-0.0026	0.0171	13.3241	24.3976	17.5527	0.5767	-0.7229	0.3096	-0.2210
10.6	-0.3645	-9.1929	-2.2419	0.0273	-0.0035	0.0109	12.9318	24.5997	17.4546	0.5768	-0.7230	0.3096	-0.2210
10.61	-0.3674	-9.1955	-2.2486	0.0267	0.0013	0.0086	13.0804	24.6943	17.5918	0.5767	-0.7229	0.3096	-0.2210
10.62	-0.3554	-9.1919	-2.2441	0.0268	-0.0001	0.0068	13.0329	24.6149	17.6955	0.5768	-0.7229	0.3096	-0.2211
10.63	-0.3580	-9.1943	-2.2452	0.0221	-0.0061	0.0116	12.9160	24.5701	17.7946	0.5767	-0.7229	0.3096	-0.2211
10.64	-0.3567	-9.1950	-2.2434	0.0263	-0.0047	0.0130	13.1429	24.5024	17.6576	0.5767	-0.7229	0.3096	-0.2210
10.65	-0.3619	-9.1967	-2.2556	0.0217	-0.0027	0.0087	13.2041	24.7362	17.7748	0.5768	-0.7230	0.3096	-0.2210
10.66	-0.3556	-9.1812	-2.2416	0.0245	-0.0004	0.0040	12.9944	24.6789	17.8763	0.5767	-0.7230	0.3096	-0.2210
10.67	-0.3550	-9.1892	-2.2453	0.0265	-0.0012	0.0091	12.8863	24.7109	17.7714	0.5768	-0.7230	0.3096	-0.2211
10.68	-0.3538	-9.2022	-2.2558	0.0252	-0.0046	0.0093	12.9778	24.6207	17.6635	0.5767	-0.7229	0.3096	-0.2210
10.69	-0.3539	-9.1900	-2.2400	0.0270	-0.0072	0.0072	13.0685	24.5931	17.6519	0.5767	-0.7230	0.3096	-0.2211
10.7	-0.3628	-9.1864	-2.2404	0.0249	-0.0014	0.0075	12.7709	24.5330	17.5422	0.5767	-0.7230	0.3095	-0.2211
10.71	-0.3689	-9.1960	-2.2471	0.0245	-0.0019	0.0061	12.9521	24.7424	17.6609	0.5767	-0.7230	0.3095	-0.2211
10.72	-0.3763	-9.1937	-2.2416	0.0253	-0.0020	0.0052	13.1784	24.4875	17.6823	0.5767	-0.7230	0.3095	-0.2211
10.73	-0.3721	-9.1842	-2.2296	0.0241	-0.0073	0.0143	12.9822	24.4548	17.6684	0.5767	-0.7230	0.3095	-0.2211
10.74	-0.3696	-9.1929	-2.2339	0.0271	-0.0068	0.0132	13.0152	24.4234	17.8956	0.5768	-0.7230	0.3095	-0.2210
10.75	-0.3642	-9.2011	-2.2358	0.0218	-0.0016	0.0100	13.1515	24.6215	17.6417	0.5767	-0.7229	0.3095	-0.2210
10.76	-0.3613	-9.1971	-2.2275	0.0234	-0.0033	0.0115	13.1372	24.7247	17.6089	0.5767	-0.7230	0.3095	-0.2210
10.77	-0.3562	-9.1933	-2.2325	0.0273	0.0062	0.0069	13.1363	24.5272	17.4796	0.5767	-0.7230	0.3095	-0.2211
10.78	-0.3494	-9.1975	-2.2356	0.0263	-0.0042	0.0106	13.1658	24.3329	17.4422	0.5767	-0.7230	0.3095	-0.2211
10.79	-0.3510	-9.1935	-2.2336	0.0268	0.0030	0.0111	13.0392	24.5627	17.6290	0.5767	-0.7230	0.3095	-0.2211
10.8	-0.3488	-9.1927	-2.2398	0.0236	-0.0027	0.0129	12.8531	24.6129	17.4251	0.5767	-0.7230	0.3096	-0.2211
10.81	-0.3547	-9.1972	-2.2498	0.0249	0.0049	0.0074	12.9450	24.4718	17.7826	0.5767	-0.7230	0.3096	-0.2211
10.82	-0.3599	-9.1937	-2.2489	0.0264	0.0073	0.0130	13.0573	24.6619	17.6495	0.5767	-0.7229	0.3096	-0.2211
10.83	-0.3672	-9.1937	-2.2470	0.0222	-0.0057	0.0108	13.1512	24.3746	17.6104	0.5767	-0.7230	0.3096	-0.2211
10.84	-0.3757	-9.1905	-2.2514	0.0210	-0.0034	0.0071	12.9940	24.4330	17.8141	0.5767	-0.7230	0.3096	-0.2211
10.85	-0.3746	-9.1910	-2.2546	0.0252	0.0015	0.0034	12.9531	24.6355	17.7214	0.5767	-0.7231	0.3096	-0.2211
10.86	-0.3711	-9.1925	-2.2603	0.0237	0.0003	0.0099	13.0650	24.6174	17.8521	0.5766	-0.7230	0.3096	-0.2211
10.87	-0.3636	-9.1907	-2.2643	0.0271	0.0009	0.0105	13.0299	24.5992	17.8569	0.5767	-0.7230	0.3096	-0.2212
10.88	-0.3593	-9.1914	-2.2622	0.0275	-0.0011	0.0095	13.0992	24.5035	17.7839	0.5767	-0.7230	0.3096	-0.2212
10.89	-0.3554	-9.1901	-2.2551	0.0255	0.0038	0.0054	12.8869	24.5916	17.4462	0.5766	-0.7229	0.3096	-0.2212
10.9	-0.3595	-9.1945	-2.2588	0.0240	0.0024	0.0083	13.0038	24.7475	17.6246	0.5767	-0.7230	0.3096	-0.2212
10.91	-0.3681	-9.1974	-2.2579	0.0253	0.0004	0.0079	13.3139	24.6214	17.6695	0.5766	-0.7230	0.3096	-0.2212
10.92	-0.3794	-9.1929	-2.2584	0.0270	-0.0053	0.0145	13.0631	24.4914	17.7206	0.5767	-0.7230	0.3096	-0.2212
10.93	-0.3922	-9.1813	-2.2496	0.0260	-0.0060	0.0120	12.9649	24.6329	17.8674	0.5766	-0.7229	0.3096	-0.2212
10.94	-0.3865	-9.2027	-2.2764	0.0287	-0.0046	0.0077	13.0683	24.5128	17.5986	0.5767	-0.7230	0.3096	-0.2212
10.95	-0.3884	-9.1721	-2.2369	0.0256	-0.0062	0.0095	13.0656	24.3762	17.5879	0.5767	-0.7230	0.3096	-0.2212
10.96	-0.3597	-9.1866	-2.2314	0.0260	-0.0108	0.0067	13.0438	24.4127	17.5761	0.5767	-0.7230	0.3095	-0.2212
10.97	-0.3487	-9.2157	-2.2354	0.0260	-0.0071	0.0084	13.1672	24.6528	17.6889	0.5767	-0.7230	0.3095	-0.2212
10.98	-0.3437	-9.1856	-2.2043	0.0262	-0.0067	0.0073	13.2087	24.4841	17.7971	0.5767	-0.7230	0.3095	-0.2211
10.99	-0.3282	-9.2115	-2.2235	0.0261	-0.0069	0.0086	13.0687	24.6132	17.7193	0.5767	-0.7230	0.3095	-0.2211
11	-0.3427	-9.2146	-2.2319	0.0282	-0.0068	0.0085	12.9457	24.6122	17.8760	0.5767	-0.7229	0.3094	-0.2211
11.01	-0.3527	-9.1886	-2.2266	0.0248	0.0037	0.0083	13.2944	24.5313	17.6956	0.5767	-0.7230	0.3095	-0.2212
11.02	-0.3978	-9.1772	-2.2340	0.0266	0.0089	0.0093	13.5563	24.5356	18.0639	0.5767	-0.7230	0.3095	-0.2212
11.03	-0.4368	-9.1729	-2.2302	0.0245	0.0063	0.0081	13.5860	24.5849	18.0427	0.5767	-0.7230	0.3095	-0.2212
11.04	-0.4343	-9.1660	-2.2119	0.0257	-0.0023	0.0063	13.1403	24.7324	17.9044	0.5767	-0.7230	0.3095	-0.2212
11.05	-0.4088	-9.2000	-2.2321	0.0262	-0.0080	0.0093	13.1070	25.2449	17.7992	0.5767	-0.7230	0.3095	-0.2212
11.06	-0.3182	-9.1628	-2.1538	0.0250	-0.0001	0.0068	12.9916	24.6025	17.8022	0.5767	-0.7230	0.3094	-0.2212
11.07	-0.2215	-9.1858	-2.1250	0.0220	0.0012	0.0030	12.8194	24.5327	17.8000	0.5766	-0.7230	0.3094	-0.2212
11.08	-0.2390	-9.3805	-2.3599	0.0256	-0.0005	0.0096	12.9482	24.7378	17.6375	0.5767	-0.7231	0.3094	-0.2213
11.09	-0.3054	-9.1073	-2.1672	0.0244	0.0139	0.0120	12.9401	24.5042	17.6773	0.5766	-0.7230	0.3095	-0.2213
11.1	-0.3671	-9.1581	-2.2267	0.0271	0.0110	0.0097	13.1063	24.5359	17.4914	0.5767	-0.7230	0.3095	-0.2214
11.11	-0.4262	-9.2618	-2.3259	0.0266	0.0027	0.0149	13.0874	24.5095	17.5167	0.5766	-0.7229	0.3095	-0.2214
11.12	-0.4691	-9.1378	-2.2096	0.0266	-0.0018	0.0149	13.0966	24.4340	17.7372	0.5766	-0.7230	0.3096	-0.2214
11.13	-0.4503	-9.1742	-2.2671	0.0254	-0.0097	0.0092	13.2448	24.5915	17.6109	0.5766	-0.7230	0.3095	-0.2214
11.14	-0.4533	-9.1717	-2.2609	0.0222	-0.0103	0.0096	13.2455	24.3496	17.5888	0.5766	-0.7229	0.3095	-0.2213
11.15	-0.4057	-9.2010	-2.2960	0.0232	-0.0060	0.0066	13.2753	24.2764	17.7034	0.5767	-0.7231	0.3095	-0.2213
11.16	-0.3525	-9.1849	-2.2878	0.0231	-0.0104	0.0090	13.0659	24.3948	17.6872	0.5766	-0.7230	0.3095	-0.2213
11.17	-0.3106	-9.1945	-2.3008	0.0286	-0.0050	0.0088	12.9977	24.5255	17.6663	0.5767	-0.7231	0.3095	-0.2213
11.18	-0.2921	-9.1900	-2.2845	0.0273	-0.0085	0.0064	12.9884	24.4363	17.7100	0.5766	-0.7230	0.3094	-0.2213
11.19	-0.3010	-9.2173	-2.3029	0.0255	-0.0070	0.0119	13.1643	24.3337	17.5259	0.5767	-0.7230	0.3094	-0.2213
11.2	-0.2807	-9.1996	-2.2695	0.0270	-0.0089	0.0146	12.9410	24.5170	17.7620	0.5767	-0.7230	0.3094	-0.2212
11.21	-0.3078	-9.1835	-2.2391	0.0253	-0.0003	0.0120	13.0570	24.5122	17.8961	0.5767	-0.7230	0.3094	-0.2212
11.22	-0.3235	-9.2074	-2.2499	0.0276	0.0055	0.0085	13.0939	24.5244	17.8408	0.5767	-0.7230	0.3094	-0.2213
11.23	-0.3480	-9.1997	-2.2208	0.0266	-0.0032	0.0081	12.8716	24.6293	17.7032	0.5767	-0.7230	0.3094	-0.2213
11.24	-0.3749	-9.1891	-2.2076	0.0260	-0.0022	0.0082	12.9542	24.5668	17.7203	0.5767	-0.7230	0.3094	-0.2213
11.25	-0.3769	-9.2010	-2.2211	0.0248	0.0081	0.0080	12.9026	24.7128	17.7945	0.5766	-0.7229	0.3094	-0.2213
11.26	-0.3825	-9.1984	-2.2167	0.0275	0.0010	0.0126	13.0420	24.5403	17.7304	0.5767	-0.7230	0.3095	-0.2213
11.27	-0.3824	-9.1719	-2.1902	0.0268	-0.0022	0.0052	12.9689	24.5584	17.8329	0.5767	-0.7230	0.3094	-0.2213
11.28	-0.3874	-9.2014	-2.2217	0.0274	-0.0031	0.0086	12.8287	24.5702	17.8137	0.5767	-0.7230	0.3094	-0.2213
11.29	-0.3821	-9.1984	-2.2276	0.0268	-0.0071	0.0114	12.9435	24.2992	17.5465	0.5767	-0.7230	0.3094	-0.2213
11.3	-0.3742	-9.1787	-2.2151	0.0273	-0.0072	0.0105	12.9149	24.5141	17.7619	0.5767	-0.7230	0.3094	-0.2213
11.31	-0.3645	-9.1958	-2.2511	0.0268	-0.0074	0.0148	13.1430	24.4834	17.9398	0.5767	-0.7230	0.3094	-0.2213
11.32	-0.3540	-9.1949	-2.2527	0.0273	-0.0044	0.0139	13.1055	24.3411	17.9714	0.5767	-0.7229	0.3094	-0.2212
11.33	-0.3547	-9.1918	-2.2540	0.0254	-0.0004	0.0147	13.0708	24.3565	17.7222	0.5768	-0.7230	0.3094	-0.2213
11.34	-0.3631	-9.1886	-2.2426	0.0260	-0.0053	0.0135	13.1146	24.4900	17.5299	0.5768	-0.7229	0.3094	-0.2212
11.35	-0.3748	-9.1980	-2.2436	0.0268	0.0023	0.0108	13.0333	24.3328	17.7057	0.5768	-0.7230	0.3095	-0.2213
11.36	-0.3864	-9.1893	-2.2377	0.0216	0.0035	0.0151	12.9130	24.4702	17.6434	0.5767	-0.7229	0.3095	-0.2212
11.37	-0.3990	-9.1857	-2.2297	0.0239	0.0021	0.0111	13.0421	24.3732	17.7491	0.5767	-0.7229	0.3095	-0.2213
11.38	-0.3977	-9.1885	-2.2346	0.0272	0.0038	0.0131	13.1310	24.2743	17.8879	0.5767	-0.7229	0.3095	-0.2213
11.39	-0.3867	-9.1906	-2.2329	0.0248	-0.0092	0.0110	13.2138	24.4480	17.5656	0.5767	-0.7229	0.3095	-0.2212
11.4	-0.3618	-9.1914	-2.2464	0.0226	0.0045	0.0087	12.9444	24.6257	17.6968	0.5768	-0.7230	0.3095	-0.2213
11.41	-0.3389	-9.1917	-2.2450	0.0271	-0.0006	0.0045	12.8458	24.6979	17.6596	0.5767	-0.7229	0.3095	-0.2213
11.42	-0.3213	-9.1943	-2.2514	0.0240	-0.0051	0.0055	12.9807	24.6740	17.6833	0.5768	-0.7230	0.3095	-0.2213
11.43	-0.3094	-9.1936	-2.2588	0.0253	-0.0047	0.0078	12.8157	24.6779	17.6652	0.5767	-0.7229	0.3094	-0.2213
