time	acceleration_x	acceleration_y	acceleration_z	gyroscope_x	gyroscope_y	gyroscope_z	magnetometer_x	magnetometer_y	magnetometer_z	quaternion_w	quaternion_x	quaternion_y	quaternion_z
0	0.9433	-9.5269	1.9603	0.1316	-0.0528	0.0196	-14.5038	-16.1966	0.8092	0.5786	-0.5265	0.3755	-0.4970
0.01	0.9342	-9.5384	1.9840	0.1052	-0.0560	0.0185	-14.5166	-16.2759	0.8235	0.5790	-0.5263	0.3751	-0.4970
0.02	0.9284	-9.5974	2.0010	0.1008	-0.0633	0.0222	-14.2556	-16.1132	0.9186	0.5795	-0.5260	0.3747	-0.4969
0.03	0.9155	-9.6384	2.0045	0.0880	-0.0721	0.0183	-14.0632	-16.1800	1.0384	0.5800	-0.5259	0.3744	-0.4969
0.04	0.9254	-9.6674	2.0152	0.0838	-0.0785	0.0102	-14.0760	-16.1869	0.8840	0.5804	-0.5258	0.3740	-0.4968
0.05	0.9416	-9.6668	2.0293	0.0798	-0.0841	0.0079	-14.3522	-16.1710	0.9776	0.5809	-0.5257	0.3736	-0.4967
0.06	0.9630	-9.6485	2.0302	0.0755	-0.0908	0.0073	-14.2658	-16.3253	0.7266	0.5812	-0.5256	0.3731	-0.4965
0.07	0.9735	-9.6259	2.0305	0.0732	-0.0846	0.0032	-13.9241	-16.4438	0.6473	0.5817	-0.5256	0.3727	-0.4964
0.08	0.9875	-9.6180	2.0281	0.0613	-0.0736	-0.0014	-14.0548	-16.4726	0.6629	0.5820	-0.5256	0.3724	-0.4963
0.09	1.0098	-9.6027	2.0254	0.0523	-0.0704	-0.0073	-14.1768	-16.3008	0.6589	0.5823	-0.5256	0.3720	-0.4962
0.1	1.0216	-9.5709	2.0202	0.0509	-0.0596	-0.0105	-14.1620	-16.3159	0.6485	0.5826	-0.5256	0.3717	-0.4962
0.11	1.0216	-9.5559	2.0161	0.0423	-0.0473	-0.0135	-14.0748	-16.4667	0.8209	0.5828	-0.5255	0.3714	-0.4962
0.12	1.0259	-9.5720	2.0148	0.0306	-0.0419	-0.0292	-14.2718	-16.2565	0.8445	0.5830	-0.5256	0.3711	-0.4962
0.13	1.0234	-9.5787	2.0100	0.0222	-0.0375	-0.0294	-14.2542	-16.2209	0.8369	0.5830	-0.5256	0.3709	-0.4962
0.14	1.0191	-9.6162	2.0134	0.0137	-0.0261	-0.0299	-14.3722	-16.2116	0.9427	0.5831	-0.5257	0.3707	-0.4962
0.15	0.9985	-9.6386	1.9904	-0.0014	-0.0202	-0.0405	-14.1698	-16.2944	0.7699	0.5831	-0.5258	0.3705	-0.4963
0.16	0.9919	-9.6557	1.9768	-0.0005	-0.0158	-0.0451	-14.2274	-16.2616	0.9987	0.5831	-0.5259	0.3704	-0.4964
0.17	0.9961	-9.6547	1.9576	-0.0146	-0.0190	-0.0408	-14.3807	-16.1244	1.1443	0.5830	-0.5260	0.3702	-0.4964
0.18	1.0088	-9.6508	1.9402	-0.0174	-0.0286	-0.0438	-14.3224	-16.1092	1.0819	0.5829	-0.5261	0.3701	-0.4964
0.19	1.0267	-9.6708	1.9365	-0.0264	-0.0271	-0.0459	-14.4226	-16.0600	0.9724	0.5828	-0.5263	0.3699	-0.4964
0.2	1.0340	-9.6465	1.9068	-0.0267	-0.0321	-0.0364	-14.3949	-16.2813	1.1416	0.5827	-0.5265	0.3698	-0.4963
0.21	1.0537	-9.6547	1.9090	-0.0265	-0.0413	-0.0308	-14.0902	-16.0731	1.0889	0.5828	-0.5268	0.3697	-0.4963
0.22	1.0573	-9.6820	1.9006	-0.0274	-0.0382	-0.0302	-14.2853	-16.0792	1.0047	0.5827	-0.5269	0.3695	-0.4962
0.23	1.0670	-9.6984	1.8892	-0.0253	-0.0365	-0.0197	-14.3790	-16.2497	1.0102	0.5827	-0.5272	0.3695	-0.4962
0.24	1.0722	-9.6975	1.8914	-0.0236	-0.0403	-0.0141	-14.2109	-16.4828	1.1271	0.5827	-0.5272	0.3693	-0.4960
0.25	1.0715	-9.6930	1.8796	-0.0140	-0.0448	-0.0080	-13.4589	-16.3830	1.2365	0.5828	-0.5274	0.3692	-0.4959
0.26	1.0675	-9.6988	1.8832	-0.0142	-0.0419	-0.0036	-13.2035	-16.3163	1.1904	0.5828	-0.5275	0.3691	-0.4958
0.27	1.0467	-9.6996	1.8671	-0.0205	-0.0413	0.0116	-13.9456	-16.6095	0.9519	0.5829	-0.5276	0.3690	-0.4956
0.28	1.0354	-9.6965	1.8618	-0.0069	-0.0469	0.0148	-13.8678	-17.4033	1.0174	0.5831	-0.5278	0.3690	-0.4954
0.29	1.0202	-9.6914	1.8626	-0.0009	-0.0468	0.0207	-14.1266	-16.6290	0.9601	0.5832	-0.5278	0.3689	-0.4952
0.3	1.0203	-9.7104	1.8642	-0.0017	-0.0423	0.0222	-14.0846	-16.0756	0.9128	0.5834	-0.5279	0.3688	-0.4951
0.31	1.0368	-9.7159	1.8751	0.0001	-0.0535	0.0212	-14.3420	-16.7215	1.1558	0.5835	-0.5279	0.3687	-0.4948
0.32	1.0578	-9.7002	1.8881	0.0014	-0.0540	0.0169	-14.2479	-16.4808	0.8999	0.5837	-0.5280	0.3686	-0.4946
0.33	1.0739	-9.6881	1.8983	-0.0011	-0.0479	0.0203	-14.2834	-16.3818	0.9967	0.5839	-0.5280	0.3685	-0.4944
0.34	1.0788	-9.6827	1.9035	0.0043	-0.0416	0.0198	-14.1936	-16.4402	1.1986	0.5841	-0.5280	0.3684	-0.4943
0.35	1.0888	-9.6667	1.9059	-0.0014	-0.0287	0.0207	-13.9808	-16.1835	1.1804	0.5842	-0.5281	0.3683	-0.4941
0.36	1.0813	-9.6508	1.9156	0.0000	-0.0247	0.0204	-14.3535	-16.1568	1.1343	0.5843	-0.5281	0.3683	-0.4940
0.37	1.0733	-9.6502	1.9091	-0.0022	-0.0091	0.0229	-14.2030	-16.2813	0.8162	0.5845	-0.5281	0.3683	-0.4939
0.38	1.0535	-9.6475	1.9038	0.0006	0.0049	0.0259	-14.3125	-16.1146	0.7695	0.5845	-0.5279	0.3683	-0.4938
0.39	1.0218	-9.6326	1.9035	-0.0173	0.0095	0.0260	-14.3994	-16.2681	1.0786	0.5846	-0.5279	0.3685	-0.4938
0.4	1.0100	-9.6204	1.8924	-0.0274	0.0163	0.0228	-14.1023	-16.3489	1.1809	0.5846	-0.5279	0.3686	-0.4937
0.41	0.9989	-9.6363	1.8942	-0.0228	0.0259	0.0191	-14.4322	-16.2434	0.9523	0.5846	-0.5278	0.3688	-0.4937
0.42	0.9867	-9.6557	1.8826	-0.0356	0.0361	0.0173	-14.2698	-16.2227	1.1131	0.5844	-0.5278	0.3690	-0.4936
0.43	0.9795	-9.6696	1.8801	-0.0332	0.0326	0.0134	-14.1008	-16.2560	0.7927	0.5844	-0.5278	0.3692	-0.4936
0.44	0.9756	-9.6970	1.8789	-0.0392	0.0409	0.0106	-14.1274	-16.3783	1.0748	0.5843	-0.5277	0.3695	-0.4936
0.45	0.9740	-9.7182	1.8646	-0.0512	0.0455	0.0027	-14.1937	-16.1252	0.9998	0.5840	-0.5277	0.3697	-0.4936
0.46	0.9684	-9.7263	1.8561	-0.0513	0.0455	0.0018	-14.4360	-16.2513	0.9848	0.5839	-0.5278	0.3700	-0.4937
0.47	0.9609	-9.7418	1.8523	-0.0525	0.0487	-0.0001	-14.2235	-16.5244	1.1451	0.5837	-0.5278	0.3703	-0.4936
0.48	0.9470	-9.7521	1.8268	-0.0541	0.0565	0.0010	-14.2231	-16.4111	0.9989	0.5835	-0.5278	0.3706	-0.4937
0.49	0.9352	-9.7478	1.8275	-0.0501	0.0530	0.0088	-14.2165	-16.4283	0.9032	0.5832	-0.5278	0.3709	-0.4936
0.5	0.9152	-9.7721	1.8162	-0.0509	0.0638	0.0081	-14.4594	-16.1293	1.0058	0.5830	-0.5278	0.3713	-0.4936
0.51	0.8966	-9.8088	1.8154	-0.0461	0.0634	0.0111	-14.1325	-16.2374	0.9853	0.5828	-0.5278	0.3717	-0.4936
0.52	0.8745	-9.8241	1.8137	-0.0369	0.0550	0.0170	-14.1928	-16.0684	0.9887	0.5826	-0.5277	0.3720	-0.4936
0.53	0.8414	-9.8140	1.8007	-0.0334	0.0570	0.0195	-14.3300	-16.0545	0.8828	0.5826	-0.5277	0.3724	-0.4936
0.54	0.8112	-9.8011	1.7916	-0.0219	0.0555	0.0185	-14.1569	-16.3164	0.8849	0.5824	-0.5275	0.3727	-0.4936
0.55	0.7885	-9.8004	1.7988	-0.0081	0.0460	0.0182	-14.3106	-16.1259	0.9449	0.5824	-0.5274	0.3729	-0.4936
0.56	0.7841	-9.8134	1.8169	0.0031	0.0445	0.0114	-14.2903	-16.1696	1.1105	0.5823	-0.5272	0.3731	-0.4936
0.57	0.7825	-9.8321	1.8327	0.0154	0.0370	0.0019	-14.4424	-15.9881	0.8168	0.5823	-0.5271	0.3732	-0.4937
0.58	0.7929	-9.8279	1.8434	0.0256	0.0209	0.0007	-14.3140	-16.1896	0.9898	0.5824	-0.5270	0.3733	-0.4937
0.59	0.7997	-9.7998	1.8534	0.0271	0.0199	0.0009	-14.3758	-16.1989	0.9202	0.5824	-0.5269	0.3733	-0.4938
0.6	0.8099	-9.7544	1.8475	0.0358	0.0105	-0.0011	-14.3987	-16.0094	0.8633	0.5825	-0.5268	0.3733	-0.4938
0.61	0.8272	-9.6940	1.8713	0.0437	-0.0033	-0.0028	-14.5297	-16.2350	1.0762	0.5826	-0.5266	0.3732	-0.4939
0.62	0.8466	-9.6881	1.8811	0.0359	-0.0111	-0.0064	-14.3567	-16.1864	1.0293	0.5828	-0.5266	0.3731	-0.4939
0.63	0.8604	-9.6642	1.8716	0.0251	-0.0056	-0.0005	-14.1985	-16.0305	0.8813	0.5828	-0.5265	0.3730	-0.4938
0.64	0.8725	-9.6546	1.9006	0.0251	-0.0037	-0.0005	-14.1078	-16.2837	0.8901	0.5829	-0.5265	0.3731	-0.4939
0.65	0.8643	-9.6861	1.8995	0.0255	-0.0016	-0.0040	-14.1561	-16.1847	0.7631	0.5830	-0.5264	0.3730	-0.4939
0.66	0.8605	-9.7285	1.9180	0.0249	0.0108	-0.0034	-14.0718	-16.0676	0.8516	0.5830	-0.5263	0.3730	-0.4939
0.67	0.8593	-9.7444	1.9235	0.0249	0.0062	-0.0065	-14.3740	-16.0348	0.5773	0.5831	-0.5262	0.3730	-0.4939
0.68	0.8580	-9.7324	1.9204	0.0260	0.0043	-0.0068	-14.3251	-16.2233	0.5260	0.5831	-0.5262	0.3729	-0.4940
0.69	0.8568	-9.7054	1.9219	0.0317	0.0061	-0.0060	-14.4199	-16.1860	0.9249	0.5832	-0.5261	0.3729	-0.4940
0.7	0.8528	-9.6924	1.9031	0.0257	0.0089	-0.0090	-14.4671	-16.0657	1.1119	0.5832	-0.5260	0.3728	-0.4940
0.71	0.8414	-9.6841	1.8974	0.0244	0.0108	-0.0083	-14.0283	-16.0186	0.9416	0.5834	-0.5259	0.3728	-0.4942
0.72	0.8314	-9.6673	1.8883	0.0253	0.0020	-0.0133	-14.3683	-16.1571	0.8899	0.5834	-0.5258	0.3727	-0.4943
0.73	0.8354	-9.6715	1.8771	0.0241	0.0023	-0.0198	-14.4041	-16.2371	0.8820	0.5835	-0.5258	0.3726	-0.4944
0.74	0.8528	-9.6847	1.8785	0.0236	0.0029	-0.0209	-14.2454	-15.8321	0.9851	0.5834	-0.5257	0.3724	-0.4945
0.75	0.8739	-9.6973	1.8835	0.0231	-0.0021	-0.0295	-13.7572	-16.0136	1.1009	0.5835	-0.5257	0.3723	-0.4946
0.76	0.8977	-9.7064	1.8874	0.0096	-0.0051	-0.0323	-13.6644	-15.8378	1.0508	0.5835	-0.5257	0.3721	-0.4947
0.77	0.9243	-9.7144	1.8755	0.0016	-0.0053	-0.0306	-14.2822	-16.1125	0.8961	0.5834	-0.5257	0.3720	-0.4948
0.78	0.9403	-9.7024	1.8654	0.0098	-0.0058	-0.0380	-14.3210	-17.0263	0.8183	0.5834	-0.5258	0.3719	-0.4950
0.79	0.9454	-9.7019	1.8645	0.0050	-0.0022	-0.0357	-14.2806	-16.2369	0.8977	0.5833	-0.5258	0.3717	-0.4950
0.8	0.9454	-9.7214	1.8622	0.0089	-0.0002	-0.0417	-14.2454	-15.8468	0.9578	0.5833	-0.5259	0.3716	-0.4952
0.81	0.9663	-9.7323	1.8677	0.0208	-0.0003	-0.0400	-14.2430	-16.2031	0.8346	0.5832	-0.5258	0.3714	-0.4953
0.82	0.9890	-9.7299	1.8773	0.0191	-0.0069	-0.0400	-14.2730	-16.3550	0.7271	0.5833	-0.5259	0.3713	-0.4954
0.83	0.9944	-9.6920	1.8597	0.0201	-0.0045	-0.0355	-14.3622	-16.0920	0.9548	0.5832	-0.5259	0.3711	-0.4955
0.84	1.0057	-9.6561	1.8621	0.0191	-0.0081	-0.0323	-14.3335	-16.1040	0.8364	0.5832	-0.5259	0.3709	-0.4956
0.85	1.0155	-9.6857	1.8684	0.0086	-0.0030	-0.0351	-14.3472	-16.2788	0.8659	0.5832	-0.5259	0.3708	-0.4958
0.86	1.0367	-9.7164	1.8621	0.0061	-0.0087	-0.0324	-14.0737	-16.0757	0.9217	0.5832	-0.5260	0.3707	-0.4958
0.87	1.0512	-9.7340	1.8816	0.0067	-0.0068	-0.0365	-14.2977	-16.2848	0.7918	0.5832	-0.5261	0.3706	-0.4959
0.88	1.0711	-9.7298	1.8772	0.0054	-0.0095	-0.0329	-14.4483	-16.4479	0.9667	0.5831	-0.5261	0.3704	-0.4959
0.89	1.0909	-9.7127	1.8865	0.0160	-0.0080	-0.0275	-14.3132	-16.1777	0.7987	0.5831	-0.5262	0.3704	-0.4960
0.9	1.0927	-9.7271	1.8841	0.0129	-0.0049	-0.0162	-14.3602	-16.2927	1.0592	0.5831	-0.5262	0.3703	-0.4959
0.91	1.0856	-9.7218	1.8792	0.0179	0.0043	-0.0171	-14.3020	-16.0705	0.9185	0.5831	-0.5262	0.3703	-0.4960
0.92	1.0717	-9.7025	1.8820	0.0248	0.0049	-0.0052	-14.5608	-16.0576	1.0530	0.5832	-0.5260	0.3702	-0.4961
0.93	1.0550	-9.6952	1.8818	0.0225	0.0053	-0.0032	-14.3344	-16.1838	0.9695	0.5833	-0.5260	0.3701	-0.4961
0.94	1.0598	-9.6856	1.8957	0.0189	0.0027	-0.0043	-14.4417	-16.3288	0.9852	0.5833	-0.5259	0.3701	-0.4962
0.95	1.0611	-9.6789	1.8960	0.0167	0.0077	-0.0037	-14.5961	-16.2576	1.0453	0.5833	-0.5258	0.3700	-0.4962
0.96	1.0552	-9.6677	1.9028	0.0222	0.0110	-0.0038	-14.1262	-16.1285	1.0331	0.5835	-0.5257	0.3700	-0.4964
0.97	1.0435	-9.6619	1.8986	0.0122	0.0166	-0.0076	-14.1098	-16.0046	0.9838	0.5834	-0.5256	0.3700	-0.4964
0.98	1.0325	-9.6371	1.8892	0.0030	0.0164	-0.0055	-14.4326	-15.9648	0.9051	0.5835	-0.5256	0.3700	-0.4965
0.99	1.0271	-9.6369	1.8941	-0.0012	0.0096	-0.0040	-14.4490	-15.9664	1.0243	0.5834	-0.5255	0.3699	-0.4965
1	1.0155	-9.6374	1.8748	-0.0109	0.0168	-0.0046	-14.1462	-16.3436	1.0581	0.5834	-0.5255	0.3700	-0.4966
1.01	1.0174	-9.6509	1.8693	-0.0237	0.0154	-0.0046	-14.0799	-16.2428	1.1521	0.5833	-0.5255	0.3701	-0.4966
1.02	1.0129	-9.6758	1.8569	-0.0280	0.0182	-0.0044	-14.2899	-16.3143	1.0563	0.5832	-0.5255	0.3702	-0.4966
1.03	1.0121	-9.6927	1.8493	-0.0339	0.0142	-0.0039	-14.1165	-16.2340	0.8807	0.5832	-0.5257	0.3703	-0.4966
1.04	1.0149	-9.7140	1.8401	-0.0331	0.0177	-0.0038	-14.2231	-16.2521	0.7361	0.5830	-0.5257	0.3704	-0.4966
1.05	1.0013	-9.7369	1.8347	-0.0288	0.0177	-0.0049	-14.4629	-16.3963	0.9239	0.5830	-0.5257	0.3705	-0.4966
1.06	0.9936	-9.7551	1.8239	-0.0266	0.0153	-0.0039	-14.3316	-16.1006	0.6008	0.5828	-0.5257	0.3706	-0.4965
1.07	0.9883	-9.7707	1.8279	-0.0234	0.0129	-0.0048	-14.1148	-16.2133	0.8207	0.5827	-0.5258	0.3708	-0.4965
1.08	0.9821	-9.7822	1.8280	-0.0214	0.0111	0.0068	-14.0539	-16.5090	1.0234	0.5827	-0.5258	0.3709	-0.4964
1.09	0.9745	-9.7622	1.8290	-0.0119	0.0104	0.0048	-14.4425	-16.2236	1.0573	0.5826	-0.5258	0.3710	-0.4963
1.1	0.9756	-9.7582	1.8326	-0.0120	0.0061	-0.0002	-14.4133	-16.1515	0.8939	0.5826	-0.5259	0.3711	-0.4963
1.11	0.9766	-9.7501	1.8165	-0.0030	0.0035	-0.0028	-14.3414	-16.1388	0.8587	0.5826	-0.5259	0.3712	-0.4962
1.12	0.9773	-9.7343	1.8202	-0.0009	0.0027	-0.0061	-14.4744	-15.9633	0.9757	0.5826	-0.5259	0.3712	-0.4962
1.13	0.9792	-9.7305	1.8190	-0.0046	-0.0061	0.0003	-14.3214	-16.0547	0.8088	0.5826	-0.5259	0.3712	-0.4961
1.14	0.9680	-9.7274	1.8150	-0.0002	0.0039	0.0019	-14.3414	-16.0757	0.9780	0.5826	-0.5260	0.3713	-0.4961
1.15	0.9594	-9.7299	1.8073	-0.0049	0.0054	0.0049	-14.3416	-16.1897	0.8754	0.5826	-0.5259	0.3714	-0.4960
1.16	0.9637	-9.7426	1.8198	-0.0035	-0.0049	0.0129	-14.3193	-16.0630	0.8163	0.5827	-0.5259	0.3715	-0.4959
1.17	0.9617	-9.7705	1.8309	-0.0009	0.0000	0.0174	-14.3742	-16.1512	0.8534	0.5827	-0.5259	0.3715	-0.4958
1.18	0.9609	-9.7741	1.8237	0.0023	0.0024	0.0215	-14.2718	-16.1602	0.9520	0.5828	-0.5259	0.3716	-0.4957
1.19	0.9483	-9.7505	1.8253	0.0065	-0.0067	0.0207	-14.1164	-16.3210	0.9364	0.5829	-0.5258	0.3717	-0.4956
1.2	0.9526	-9.7478	1.8396	0.0064	0.0047	0.0190	-14.1911	-16.2653	0.9444	0.5829	-0.5257	0.3718	-0.4955
1.21	0.9374	-9.7374	1.8327	0.0175	0.0116	0.0178	-14.0311	-16.0810	0.9351	0.5830	-0.5257	0.3719	-0.4955
1.22	0.9141	-9.7153	1.8420	0.0190	0.0116	0.0216	-14.2719	-16.4037	0.7721	0.5831	-0.5255	0.3719	-0.4954
1.23	0.8937	-9.7145	1.8398	0.0209	0.0123	0.0237	-14.4188	-16.3360	0.7837	0.5832	-0.5255	0.3721	-0.4954
1.24	0.8783	-9.7055	1.8355	0.0213	0.0114	0.0198	-13.9509	-16.2832	1.0814	0.5833	-0.5253	0.3721	-0.4953
1.25	0.8564	-9.6841	1.8391	0.0126	0.0043	0.0159	-13.7367	-15.9834	1.1032	0.5834	-0.5252	0.3721	-0.4953
1.26	0.8524	-9.6590	1.8308	0.0016	0.0031	0.0114	-13.8129	-15.7378	0.9690	0.5834	-0.5252	0.3721	-0.4953
1.27	0.8503	-9.6644	1.8455	-0.0012	0.0013	0.0093	-14.3037	-16.2584	1.0631	0.5834	-0.5251	0.3721	-0.4952
1.28	0.8400	-9.7071	1.8426	-0.0044	0.0014	0.0038	-14.2792	-17.1133	0.8438	0.5836	-0.5251	0.3722	-0.4953
1.29	0.8417	-9.7348	1.8478	-0.0052	-0.0053	-0.0002	-14.1332	-16.3769	0.6724	0.5835	-0.5251	0.3722	-0.4952
1.3	0.8473	-9.7643	1.8568	-0.0058	-0.0083	-0.0010	-14.3806	-15.7190	0.7539	0.5836	-0.5252	0.3722	-0.4952
1.31	0.8397	-9.7709	1.8448	0.0018	-0.0099	-0.0009	-14.4053	-16.0430	0.9811	0.5835	-0.5252	0.3722	-0.4950
1.32	0.8562	-9.7566	1.8551	0.0020	-0.0236	0.0033	-14.1697	-15.9120	0.9903	0.5836	-0.5253	0.3722	-0.4950
1.33	0.8677	-9.7534	1.8550	-0.0002	-0.0192	0.0039	-14.4316	-15.9846	0.9370	0.5837	-0.5253	0.3722	-0.4948
1.34	0.8577	-9.7437	1.8402	-0.0017	-0.0180	0.0071	-14.2992	-15.9461	0.7794	0.5837	-0.5253	0.3722	-0.4947
1.35	0.8466	-9.7304	1.8306	0.0005	-0.0250	0.0128	-14.4120	-15.9703	0.8971	0.5839	-0.5254	0.3721	-0.4947
1.36	0.8163	-9.7128	1.8255	-0.0014	-0.0197	0.0213	-14.2495	-15.8250	0.8907	0.5839	-0.5253	0.3721	-0.4945
1.37	0.7927	-9.7531	1.8206	0.0017	-0.0311	0.0197	-14.4264	-15.9502	0.8462	0.5841	-0.5254	0.3721	-0.4944
1.38	0.7831	-9.7890	1.8163	0.0058	-0.0343	0.0202	-14.2151	-15.9736	0.6736	0.5842	-0.5254	0.3720	-0.4941
1.39	0.7883	-9.8366	1.8262	0.0206	-0.0401	0.0205	-14.2285	-15.9467	0.7326	0.5844	-0.5255	0.3720	-0.4940
1.4	0.8027	-9.9017	1.8285	0.0228	-0.0431	0.0174	-14.3714	-16.1465	0.6577	0.5846	-0.5254	0.3719	-0.4938
1.41	0.8031	-9.8999	1.8191	0.0392	-0.0502	0.0151	-14.4529	-16.0698	0.8747	0.5848	-0.5255	0.3718	-0.4937
1.42	0.8213	-9.9033	1.8431	0.0504	-0.0587	0.0128	-14.0628	-15.9525	0.8898	0.5851	-0.5254	0.3715	-0.4935
1.43	0.8271	-9.8996	1.8416	0.0602	-0.0555	0.0149	-14.2169	-15.9399	0.7816	0.5854	-0.5254	0.3713	-0.4934
1.44	0.8145	-9.8399	1.8246	0.0783	-0.0587	0.0138	-14.5190	-16.0232	0.9571	0.5858	-0.5253	0.3710	-0.4933
1.45	0.8242	-9.8146	1.8534	0.0744	-0.0631	0.0174	-14.4660	-16.0586	0.7360	0.5861	-0.5251	0.3707	-0.4931
1.46	0.8584	-9.8149	1.8205	0.0781	-0.0611	0.0128	-14.4963	-16.0545	0.9671	0.5865	-0.5251	0.3705	-0.4931
1.47	0.8585	-9.7155	1.8862	0.0830	-0.0655	0.0089	-14.6400	-16.0150	1.0629	0.5869	-0.5250	0.3701	-0.4929
1.48	0.8687	-9.9592	1.9125	0.0728	-0.0549	0.0091	-14.4149	-15.6604	0.9103	0.5872	-0.5249	0.3699	-0.4929
1.49	0.8221	-9.7747	1.7794	0.1098	-0.0540	0.0091	-14.3774	-15.8011	1.1086	0.5876	-0.5247	0.3695	-0.4928
1.5	0.8368	-9.4870	1.9244	0.1286	-0.0860	0.0079	-14.5281	-16.0028	0.9077	0.5881	-0.5245	0.3690	-0.4928
1.51	0.8498	-9.6038	1.9629	0.0754	-0.0661	0.0055	-14.2510	-15.9129	0.8910	0.5885	-0.5245	0.3686	-0.4927
1.52	0.8563	-9.8634	1.9421	0.0557	-0.0701	-0.0009	-14.1879	-15.7567	0.8594	0.5887	-0.5244	0.3683	-0.4925
1.53	0.8640	-9.6386	1.9090	0.1018	-0.0771	0.0147	-14.3401	-16.0027	1.0167	0.5893	-0.5244	0.3680	-0.4925
1.54	0.9231	-9.4925	1.9997	0.0787	-0.0918	0.0160	-14.4153	-15.8933	1.2133	0.5896	-0.5243	0.3676	-0.4922
1.55	0.9077	-9.3482	1.9360	0.0553	-0.0825	0.0192	-14.3700	-15.6612	1.1142	0.5900	-0.5244	0.3673	-0.4921
1.56	0.9115	-9.3965	2.0140	0.0260	-0.0775	0.0226	-14.4949	-15.7959	1.2755	0.5902	-0.5244	0.3670	-0.4917
1.57	0.8443	-9.4252	1.8704	-0.0089	-0.0551	0.0263	-14.3672	-15.8884	1.2169	0.5905	-0.5245	0.3670	-0.4915
1.58	0.8387	-9.3400	1.9437	-0.0373	-0.0743	0.0279	-14.4319	-16.0385	1.1364	0.5906	-0.5247	0.3670	-0.4911
1.59	0.8656	-9.5012	1.9279	-0.0759	-0.0604	0.0168	-14.3050	-16.2733	1.2093	0.5905	-0.5251	0.3671	-0.4907
1.6	0.8550	-9.6170	1.9050	-0.0799	-0.0579	0.0173	-14.3211	-16.0827	0.9355	0.5905	-0.5255	0.3672	-0.4903
1.61	0.8662	-9.7033	1.9085	-0.0800	-0.0441	0.0178	-14.2841	-15.8106	1.0262	0.5904	-0.5258	0.3673	-0.4899
1.62	0.8499	-9.7213	1.8950	-0.0776	-0.0414	0.0148	-14.3858	-15.6917	1.2953	0.5904	-0.5261	0.3675	-0.4896
1.63	0.8390	-9.7485	1.8827	-0.0667	-0.0353	0.0145	-14.3876	-15.7784	1.1280	0.5902	-0.5263	0.3676	-0.4892
1.64	0.8118	-9.7259	1.8601	-0.0527	-0.0315	0.0172	-14.5449	-15.9761	1.2119	0.5903	-0.5266	0.3678	-0.4890
1.65	0.8021	-9.7401	1.8684	-0.0468	-0.0187	0.0174	-14.3635	-15.9922	1.0616	0.5902	-0.5267	0.3679	-0.4887
1.66	0.7933	-9.7737	1.8628	-0.0407	-0.0156	0.0150	-14.3369	-15.8012	1.2051	0.5902	-0.5269	0.3681	-0.4885
1.67	0.7763	-9.7956	1.8769	-0.0291	-0.0161	0.0190	-14.5294	-15.7810	1.3618	0.5902	-0.5270	0.3682	-0.4883
1.68	0.7445	-9.8159	1.8691	-0.0247	-0.0060	0.0149	-14.4629	-15.8737	1.2376	0.5902	-0.5270	0.3683	-0.4881
1.69	0.7377	-9.8408	1.8681	-0.0238	-0.0137	0.0077	-14.5037	-15.7358	1.4056	0.5902	-0.5271	0.3684	-0.4880
1.7	0.7395	-9.8569	1.8661	-0.0072	-0.0187	0.0084	-14.4545	-15.8169	1.2244	0.5902	-0.5272	0.3684	-0.4878
1.71	0.7372	-9.8357	1.8623	0.0045	-0.0178	0.0012	-14.6322	-15.6454	1.1534	0.5903	-0.5273	0.3684	-0.4878
1.72	0.7479	-9.8448	1.8743	0.0094	-0.0168	0.0017	-14.4852	-15.6014	1.1425	0.5903	-0.5273	0.3684	-0.4876
1.73	0.7452	-9.8498	1.8596	0.0210	-0.0162	-0.0030	-14.5734	-15.6513	1.1738	0.5905	-0.5273	0.3683	-0.4876
1.74	0.7341	-9.7732	1.8777	0.0363	-0.0194	0.0028	-14.4143	-15.7570	1.1224	0.5905	-0.5272	0.3682	-0.4875
1.75	0.7278	-9.7387	1.8943	0.0356	-0.0197	0.0078	-13.8807	-15.5779	1.2168	0.5907	-0.5271	0.3681	-0.4875
1.76	0.7189	-9.7418	1.8972	0.0409	-0.0286	0.0082	-13.7804	-15.7282	1.1901	0.5909	-0.5271	0.3680	-0.4874
1.77	0.7091	-9.7199	1.9011	0.0526	-0.0299	0.0058	-14.0754	-16.3002	1.1832	0.5911	-0.5270	0.3679	-0.4873
1.78	0.6937	-9.7088	1.9206	0.0386	-0.0328	0.0028	-14.1407	-16.7347	1.4291	0.5914	-0.5270	0.3678	-0.4873
1.79	0.6891	-9.7066	1.9198	0.0303	-0.0395	-0.0021	-14.3207	-16.3499	1.2551	0.5915	-0.5270	0.3676	-0.4872
1.8	0.7077	-9.6862	1.9347	0.0290	-0.0435	0.0004	-14.5522	-15.8093	1.3557	0.5917	-0.5270	0.3674	-0.4871
1.81	0.7052	-9.6741	1.9446	0.0278	-0.0424	-0.0007	-14.5177	-15.7113	1.4950	0.5917	-0.5270	0.3672	-0.4869
1.82	0.7063	-9.6602	1.9453	0.0229	-0.0405	-0.0014	-14.4247	-15.7719	1.4484	0.5919	-0.5271	0.3671	-0.4869
1.83	0.7165	-9.6050	1.9373	0.0243	-0.0558	-0.0049	-14.2783	-15.9347	1.3653	0.5921	-0.5271	0.3669	-0.4868
1.84	0.7489	-9.5845	1.9400	0.0145	-0.0577	-0.0035	-14.2370	-15.9772	1.3877	0.5923	-0.5272	0.3667	-0.4866
1.85	0.7806	-9.5970	1.9302	-0.0014	-0.0558	-0.0059	-14.5560	-15.6442	1.3865	0.5924	-0.5274	0.3665	-0.4865
1.86	0.7926	-9.5993	1.9171	-0.0167	-0.0531	-0.0058	-14.5325	-15.4436	1.3451	0.5924	-0.5275	0.3663	-0.4863
1.87	0.8136	-9.6367	1.9105	-0.0246	-0.0500	-0.0063	-14.4656	-15.6264	1.2460	0.5925	-0.5277	0.3663	-0.4862
1.88	0.8125	-9.6757	1.8986	-0.0371	-0.0435	-0.0075	-14.4152	-15.8048	1.3900	0.5924	-0.5279	0.3662	-0.4859
1.89	0.7948	-9.6793	1.8709	-0.0462	-0.0416	-0.0097	-14.6751	-15.7357	1.4863	0.5925	-0.5282	0.3662	-0.4858
1.9	0.7839	-9.6719	1.8487	-0.0508	-0.0434	-0.0061	-14.5487	-15.5383	1.2784	0.5924	-0.5284	0.3661	-0.4856
1.91	0.7816	-9.6728	1.8177	-0.0580	-0.0445	-0.0088	-14.5035	-15.7099	1.3568	0.5923	-0.5287	0.3661	-0.4854
1.92	0.7847	-9.6863	1.8025	-0.0584	-0.0463	-0.0150	-14.6447	-15.5644	1.3952	0.5922	-0.5290	0.3661	-0.4852
1.93	0.7950	-9.7431	1.7980	-0.0527	-0.0442	-0.0120	-14.5910	-15.8827	1.3579	0.5922	-0.5293	0.3661	-0.4850
1.94	0.8104	-9.8026	1.8248	-0.0583	-0.0488	-0.0166	-14.4741	-15.9677	1.2331	0.5921	-0.5296	0.3661	-0.4847
1.95	0.8342	-10.0082	1.8704	-0.0575	-0.0469	-0.0175	-14.3431	-15.9422	1.4905	0.5919	-0.5299	0.3660	-0.4845
1.96	0.8579	-10.0125	1.7674	-0.0198	-0.0451	-0.0152	-14.2585	-15.8382	1.4585	0.5920	-0.5302	0.3660	-0.4843
1.97	0.8735	-9.7754	1.8400	0.0296	-0.0481	-0.0130	-14.3988	-15.7382	1.3453	0.5921	-0.5302	0.3658	-0.4842
1.98	0.9003	-9.8023	1.8438	0.0053	-0.0356	-0.0142	-14.2659	-15.8120	1.4222	0.5922	-0.5304	0.3657	-0.4842
1.99	0.9084	-9.8387	1.8118	0.0192	-0.0285	-0.0133	-14.2469	-15.6465	1.2502	0.5922	-0.5304	0.3656	-0.4840
2	0.9166	-9.7664	1.8439	0.0247	-0.0247	-0.0113	-14.3938	-15.6249	1.3259	0.5923	-0.5304	0.3655	-0.4840
2.01	0.8926	-9.7309	1.8395	0.0246	-0.0057	-0.0118	-14.4556	-15.8786	1.3973	0.5924	-0.5304	0.3654	-0.4840
2.02	0.8770	-9.7257	1.8212	0.0194	-0.0036	-0.0125	-14.4164	-15.8020	1.3761	0.5924	-0.5303	0.3653	-0.4840
2.03	0.8724	-9.7087	1.8219	0.0220	0.0101	-0.0159	-14.5588	-15.5207	1.3688	0.5925	-0.5304	0.3653	-0.4841
2.04	0.8542	-9.6941	1.8107	0.0037	0.0103	-0.0260	-14.6343	-15.7084	1.5382	0.5924	-0.5303	0.3653	-0.4841
2.05	0.8432	-9.6835	1.7977	-0.0023	0.0083	-0.0298	-14.6091	-15.7351	1.2960	0.5923	-0.5304	0.3653	-0.4842
2.06	0.8395	-9.6921	1.7899	-0.0042	0.0072	-0.0301	-14.6193	-15.6613	1.3552	0.5922	-0.5304	0.3653	-0.4842
2.07	0.8357	-9.7528	1.7878	-0.0152	0.0033	-0.0303	-14.6107	-15.6947	1.6178	0.5921	-0.5305	0.3653	-0.4843
2.08	0.8250	-9.7941	1.7743	-0.0157	-0.0043	-0.0299	-14.6206	-15.6954	1.3419	0.5920	-0.5306	0.3653	-0.4842
2.09	0.8254	-9.8153	1.7754	0.0004	-0.0034	-0.0245	-14.6076	-15.6064	1.4694	0.5919	-0.5307	0.3653	-0.4842
2.1	0.8389	-9.8585	1.7778	-0.0026	-0.0069	-0.0173	-14.6286	-15.5956	1.5481	0.5919	-0.5308	0.3653	-0.4842
2.11	0.8370	-9.8822	1.7730	0.0045	-0.0150	-0.0042	-14.5975	-15.5958	1.6050	0.5920	-0.5308	0.3653	-0.4841
2.12	0.8115	-9.8527	1.7550	0.0231	-0.0261	-0.0026	-14.6894	-15.6286	1.6307	0.5921	-0.5308	0.3652	-0.4841
2.13	0.8028	-9.8361	1.7565	0.0224	-0.0275	-0.0006	-14.6580	-15.8779	1.3759	0.5921	-0.5308	0.3651	-0.4839
2.14	0.7953	-9.8427	1.7698	0.0238	-0.0271	-0.0024	-14.2372	-15.8645	1.2515	0.5923	-0.5309	0.3650	-0.4839
2.15	0.7979	-9.8239	1.7610	0.0315	-0.0291	-0.0049	-14.1745	-15.8523	1.3687	0.5924	-0.5308	0.3649	-0.4838
2.16	0.7907	-9.7698	1.7631	0.0463	-0.0380	-0.0043	-14.4267	-15.8824	1.3090	0.5926	-0.5308	0.3647	-0.4838
2.17	0.7824	-9.7485	1.7712	0.0507	-0.0311	-0.0045	-14.5510	-15.7476	1.2769	0.5928	-0.5307	0.3645	-0.4837
2.18	0.7847	-9.7282	1.7744	0.0498	-0.0332	-0.0042	-14.6256	-15.8058	1.4019	0.5930	-0.5307	0.3643	-0.4837
2.19	0.7877	-9.7160	1.8023	0.0506	-0.0297	-0.0042	-14.4286	-15.6598	1.3924	0.5932	-0.5306	0.3642	-0.4837
2.2	0.7871	-9.7270	1.8114	0.0499	-0.0335	-0.0040	-14.4467	-15.5364	1.6076	0.5933	-0.5305	0.3639	-0.4836
2.21	0.7885	-9.7299	1.8172	0.0506	-0.0422	-0.0049	-14.4299	-15.7553	1.2971	0.5936	-0.5306	0.3638	-0.4836
2.22	0.7777	-9.6966	1.8327	0.0494	-0.0370	-0.0022	-14.4707	-15.7151	1.3290	0.5938	-0.5305	0.3636	-0.4835
2.23	0.7727	-9.6912	1.8544	0.0489	-0.0392	-0.0041	-14.6180	-15.4713	1.6566	0.5941	-0.5305	0.3634	-0.4835
2.24	0.7822	-9.7321	1.8582	0.0508	-0.0370	-0.0044	-14.5562	-15.5434	1.7185	0.5942	-0.5304	0.3632	-0.4834
2.25	0.7893	-9.7253	1.8709	0.0527	-0.0427	-0.0046	-14.0852	-15.4466	1.9154	0.5944	-0.5304	0.3630	-0.4833
2.26	0.8043	-9.6758	1.8908	0.0616	-0.0473	-0.0039	-13.8954	-15.4045	1.8489	0.5947	-0.5303	0.3627	-0.4833
2.27	0.8349	-9.6441	1.9013	0.0586	-0.0527	-0.0075	-14.2266	-16.0349	1.6764	0.5949	-0.5303	0.3624	-0.4832
2.28	0.8675	-9.6454	1.9073	0.0520	-0.0532	-0.0114	-14.1802	-16.6626	1.7488	0.5952	-0.5303	0.3622	-0.4832
2.29	0.8817	-9.5982	1.9123	0.0498	-0.0485	-0.0038	-14.3651	-15.7784	1.5476	0.5954	-0.5302	0.3619	-0.4831
2.3	0.8806	-9.5666	1.9134	0.0278	-0.0451	-0.0048	-14.4596	-15.6212	1.5270	0.5956	-0.5303	0.3617	-0.4831
2.31	0.8826	-9.6088	1.8980	0.0071	-0.0466	-0.0038	-14.6301	-15.7453	1.5096	0.5956	-0.5303	0.3615	-0.4829
2.32	0.8903	-9.6452	1.8814	-0.0203	-0.0421	0.0008	-14.2892	-15.8020	1.6857	0.5958	-0.5305	0.3614	-0.4828
2.33	0.8978	-9.6408	1.8606	-0.0461	-0.0417	-0.0005	-14.2701	-15.9283	1.6992	0.5957	-0.5307	0.3614	-0.4826
2.34	0.9291	-9.6374	1.8430	-0.0468	-0.0420	-0.0014	-14.3151	-15.7839	1.5171	0.5957	-0.5309	0.3614	-0.4823
2.35	0.9699	-9.6553	1.8368	-0.0495	-0.0439	0.0021	-14.5251	-15.7941	1.5277	0.5957	-0.5312	0.3614	-0.4821
2.36	0.9984	-9.6811	1.8237	-0.0532	-0.0295	0.0090	-14.5833	-15.7959	1.6840	0.5956	-0.5314	0.3615	-0.4819
2.37	1.0069	-9.6932	1.8242	-0.0523	-0.0149	0.0182	-14.4148	-15.7898	1.7267	0.5956	-0.5315	0.3617	-0.4817
2.38	0.9905	-9.7194	1.8197	-0.0504	-0.0025	0.0198	-14.3067	-15.7971	1.6317	0.5955	-0.5316	0.3618	-0.4814
2.39	0.9582	-9.7522	1.8147	-0.0300	0.0130	0.0297	-14.4356	-15.7751	1.6950	0.5955	-0.5317	0.3621	-0.4813
2.4	0.9311	-9.7613	1.8153	-0.0259	0.0297	0.0428	-14.3553	-15.6760	1.7933	0.5955	-0.5316	0.3624	-0.4811
2.41	0.9175	-9.7605	1.8146	-0.0201	0.0475	0.0468	-14.2995	-15.7326	1.7338	0.5955	-0.5315	0.3627	-0.4810
2.42	0.9096	-9.7329	1.8258	-0.0060	0.0558	0.0491	-14.3188	-15.5830	1.6210	0.5955	-0.5313	0.3631	-0.4809
2.43	0.8963	-9.7202	1.8421	-0.0011	0.0615	0.0489	-14.4411	-15.6459	1.8398	0.5955	-0.5310	0.3634	-0.4809
2.44	0.8758	-9.7195	1.8405	0.0058	0.0731	0.0589	-14.5483	-15.7398	1.6290	0.5956	-0.5307	0.3638	-0.4809
2.45	0.8739	-9.7211	1.8624	0.0058	0.0840	0.0594	-14.6897	-15.6182	1.5287	0.5956	-0.5303	0.3642	-0.4809
2.46	0.8702	-9.7190	1.8814	0.0139	0.0854	0.0606	-14.5441	-15.5106	1.5336	0.5957	-0.5300	0.3646	-0.4810
2.47	0.8461	-9.7204	1.9056	0.0198	0.1018	0.0694	-14.4798	-15.5502	1.6376	0.5957	-0.5296	0.3650	-0.4810
2.48	0.8142	-9.7334	1.9190	0.0224	0.1071	0.0761	-14.4932	-15.7296	1.6186	0.5958	-0.5292	0.3656	-0.4811
2.49	0.7657	-9.7322	1.9328	0.0235	0.1211	0.0785	-14.4943	-15.6010	1.5173	0.5958	-0.5286	0.3661	-0.4811
2.5	0.7255	-9.7375	1.9486	0.0288	0.1182	0.0961	-14.6010	-15.6499	1.6611	0.5959	-0.5281	0.3667	-0.4812
2.51	0.6748	-9.7375	1.9543	0.0350	0.1236	0.0965	-14.4054	-15.8898	1.7248	0.5960	-0.5275	0.3673	-0.4812
2.52	0.6144	-9.6869	1.9570	0.0439	0.1261	0.1021	-14.4107	-15.5724	1.4007	0.5961	-0.5269	0.3678	-0.4813
2.53	0.5710	-9.6663	1.9737	0.0448	0.1168	0.1001	-14.2907	-15.6824	1.4681	0.5964	-0.5263	0.3684	-0.4814
2.54	0.5138	-9.6551	1.9660	0.0429	0.1147	0.1056	-14.3487	-15.6124	1.5104	0.5965	-0.5257	0.3689	-0.4814
2.55	0.4676	-9.6329	1.9634	0.0395	0.0999	0.1080	-14.6970	-15.3438	1.1174	0.5968	-0.5251	0.3694	-0.4814
2.56	0.4499	-9.6489	1.9605	0.0245	0.0899	0.1032	-14.6394	-15.6923	1.2572	0.5969	-0.5245	0.3699	-0.4813
2.57	0.4596	-9.7026	1.9808	0.0234	0.0740	0.1042	-14.6211	-15.3278	1.3525	0.5971	-0.5241	0.3704	-0.4812
2.58	0.4804	-9.7634	1.9990	0.0139	0.0561	0.0979	-14.4420	-15.2994	1.3265	0.5973	-0.5238	0.3708	-0.4811
2.59	0.4873	-9.7962	2.0059	0.0190	0.0569	0.1024	-14.4446	-15.6939	1.3461	0.5975	-0.5234	0.3713	-0.4809
2.6	0.5041	-9.8018	1.9959	0.0171	0.0492	0.0999	-14.7864	-15.3668	1.4347	0.5977	-0.5230	0.3717	-0.4807
2.61	0.5094	-9.7521	1.9962	0.0215	0.0462	0.0982	-14.6697	-15.4186	1.4400	0.5979	-0.5227	0.3721	-0.4805
2.62	0.4954	-9.7018	1.9899	0.0095	0.0520	0.1075	-14.5493	-15.3839	1.4088	0.5981	-0.5223	0.3725	-0.4803
2.63	0.4748	-9.6919	1.9757	-0.0029	0.0548	0.1057	-14.4586	-15.3706	1.5265	0.5982	-0.5219	0.3730	-0.4800
2.64	0.4506	-9.7080	1.9577	-0.0123	0.0559	0.1049	-14.7148	-15.3022	1.6168	0.5985	-0.5217	0.3735	-0.4798
2.65	0.4231	-9.7089	1.9468	-0.0169	0.0625	0.1018	-14.5134	-15.1935	1.4475	0.5985	-0.5214	0.3740	-0.4796
2.66	0.3875	-9.7046	1.9338	-0.0156	0.0687	0.0968	-14.6795	-15.2673	1.3572	0.5987	-0.5211	0.3745	-0.4794
2.67	0.3484	-9.7361	1.9212	-0.0305	0.0604	0.0982	-14.6627	-14.9449	1.2108	0.5987	-0.5208	0.3750	-0.4792
2.68	0.3160	-9.7554	1.9033	-0.0275	0.0593	0.0970	-14.6644	-15.1780	1.2620	0.5988	-0.5205	0.3756	-0.4790
2.69	0.2844	-9.7693	1.8961	-0.0288	0.0551	0.0979	-14.6815	-15.1650	1.2085	0.5989	-0.5203	0.3761	-0.4787
2.7	0.2511	-9.7680	1.8747	-0.0281	0.0579	0.0983	-14.5941	-15.2013	1.3402	0.5989	-0.5200	0.3766	-0.4784
2.71	0.2213	-9.7724	1.8700	-0.0273	0.0583	0.0986	-14.4516	-15.1539	1.3198	0.5991	-0.5198	0.3772	-0.4783
2.72	0.2041	-9.8029	1.8590	-0.0165	0.0525	0.0980	-14.6967	-15.2381	1.2114	0.5991	-0.5196	0.3777	-0.4780
2.73	0.2011	-9.8229	1.8699	-0.0048	0.0437	0.0975	-14.8105	-15.0259	1.2428	0.5993	-0.5193	0.3782	-0.4778
2.74	0.1986	-9.8179	1.8734	0.0058	0.0459	0.0981	-14.4871	-14.9472	1.3034	0.5994	-0.5190	0.3785	-0.4775
2.75	0.1797	-9.7869	1.8671	0.0176	0.0393	0.0972	-14.0677	-14.5695	1.4847	0.5997	-0.5187	0.3790	-0.4773
2.76	0.1774	-9.7685	1.8578	0.0126	0.0374	0.0946	-14.0014	-14.3181	1.2657	0.5999	-0.5184	0.3793	-0.4771
2.77	0.1817	-9.7307	1.8582	0.0216	0.0460	0.0906	-14.5636	-15.0672	1.1729	0.6000	-0.5180	0.3797	-0.4768
2.78	0.1760	-9.7113	1.8610	0.0227	0.0548	0.0821	-14.8037	-15.7366	1.2554	0.6003	-0.5177	0.3801	-0.4768
2.79	0.1503	-9.7085	1.8539	0.0084	0.0493	0.0794	-14.6374	-14.8674	1.3291	0.6004	-0.5173	0.3804	-0.4766
2.8	0.1290	-9.6923	1.8626	0.0061	0.0584	0.0799	-14.5876	-14.3580	1.2751	0.6006	-0.5170	0.3808	-0.4765
2.81	0.1013	-9.6761	1.8483	-0.0018	0.0566	0.0782	-14.8894	-14.6246	1.2538	0.6006	-0.5167	0.3812	-0.4763
2.82	0.0754	-9.6861	1.8609	-0.0020	0.0588	0.0736	-14.7062	-14.6242	1.2130	0.6007	-0.5164	0.3816	-0.4763
2.83	0.0591	-9.7451	1.8843	-0.0016	0.0698	0.0735	-14.8381	-14.5285	1.0083	0.6008	-0.5161	0.3821	-0.4762
2.84	0.0431	-9.7951	1.8872	0.0086	0.0643	0.0627	-14.8364	-14.6458	1.1440	0.6008	-0.5158	0.3824	-0.4761
2.85	0.0252	-9.7842	1.9024	0.0212	0.0717	0.0594	-14.9596	-14.6504	1.3908	0.6009	-0.5155	0.3828	-0.4761
2.86	0.0113	-9.7715	1.9192	0.0300	0.0635	0.0498	-15.0350	-14.5229	1.2711	0.6010	-0.5151	0.3831	-0.4761
2.87	0.0010	-9.7767	1.9323	0.0375	0.0596	0.0409	-14.8000	-14.6211	1.3141	0.6011	-0.5148	0.3834	-0.4761
2.88	-0.0175	-9.7567	1.9373	0.0447	0.0646	0.0337	-14.6445	-14.8073	1.2885	0.6012	-0.5144	0.3836	-0.4761
2.89	-0.0362	-9.7395	1.9586	0.0486	0.0669	0.0306	-14.7021	-14.9726	1.1247	0.6013	-0.5141	0.3838	-0.4763
2.9	-0.0730	-9.7160	1.9438	0.0465	0.0668	0.0278	-14.6215	-14.7991	1.2246	0.6014	-0.5137	0.3840	-0.4764
2.91	-0.1308	-9.6584	1.9563	0.0407	0.0635	0.0239	-14.8527	-14.7078	1.2905	0.6015	-0.5133	0.3842	-0.4766
2.92	-0.1820	-9.6679	1.9414	0.0260	0.0635	0.0172	-14.7435	-14.8346	1.1285	0.6015	-0.5130	0.3844	-0.4767
2.93	-0.2240	-9.6618	1.9473	0.0234	0.0573	0.0027	-14.7948	-14.7282	1.0953	0.6015	-0.5128	0.3846	-0.4768
2.94	-0.2630	-9.6905	1.9474	0.0085	0.0477	-0.0066	-14.8268	-14.7051	1.1912	0.6015	-0.5126	0.3847	-0.4769
2.95	-0.2988	-9.6916	1.9250	0.0079	0.0364	-0.0219	-14.6463	-14.5455	1.0776	0.6014	-0.5125	0.3848	-0.4770
2.96	-0.3137	-9.6790	1.9315	0.0011	0.0207	-0.0373	-14.5744	-14.5658	1.0275	0.6014	-0.5125	0.3848	-0.4772
2.97	-0.2969	-9.6794	1.9141	-0.0076	-0.0052	-0.0565	-14.5923	-14.7199	1.1601	0.6012	-0.5126	0.3847	-0.4772
2.98	-0.2678	-9.6735	1.9113	-0.0137	-0.0192	-0.0756	-14.7758	-14.4741	1.0221	0.6011	-0.5129	0.3846	-0.4774
2.99	-0.2275	-9.7030	1.9029	-0.0246	-0.0429	-0.0867	-14.7332	-14.5630	0.9398	0.6009	-0.5131	0.3843	-0.4774
3	-0.1518	-9.7491	1.8892	-0.0272	-0.0641	-0.0961	-14.8001	-14.6612	1.2380	0.6008	-0.5135	0.3840	-0.4774
3.01	-0.0537	-9.7485	1.8771	-0.0257	-0.0756	-0.0976	-14.8378	-14.4900	1.0941	0.6007	-0.5139	0.3836	-0.4774
3.02	0.0487	-9.7232	1.8651	-0.0260	-0.0901	-0.1021	-14.6192	-14.3885	1.2849	0.6006	-0.5143	0.3832	-0.4773
3.03	0.1711	-9.7478	1.8609	-0.0335	-0.1023	-0.1058	-14.8994	-14.4836	1.2121	0.6005	-0.5149	0.3828	-0.4773
3.04	0.2681	-9.7568	1.8442	-0.0446	-0.1067	-0.1061	-14.7923	-14.6184	1.0383	0.6004	-0.5154	0.3823	-0.4772
3.05	0.3177	-9.7411	1.8263	-0.0487	-0.0908	-0.0872	-14.7280	-14.7102	1.3131	0.6003	-0.5160	0.3820	-0.4771
3.06	0.3447	-9.7430	1.7929	-0.0460	-0.0814	-0.0836	-14.4520	-14.8381	1.0481	0.6001	-0.5163	0.3816	-0.4769
3.07	0.3831	-9.7670	1.7974	-0.0462	-0.0746	-0.0706	-14.4245	-15.0327	1.2180	0.6001	-0.5168	0.3814	-0.4768
3.08	0.4042	-9.8084	1.7882	-0.0530	-0.0563	-0.0599	-14.5032	-14.9815	1.1150	0.5999	-0.5172	0.3813	-0.4767
3.09	0.3969	-9.8186	1.7774	-0.0386	-0.0407	-0.0467	-14.5612	-15.0178	1.3600	0.5998	-0.5175	0.3812	-0.4766
3.1	0.3904	-9.8259	1.7734	-0.0298	-0.0341	-0.0380	-14.6846	-14.8887	1.2506	0.5997	-0.5178	0.3811	-0.4765
3.11	0.3775	-9.8269	1.7705	-0.0241	-0.0208	-0.0331	-14.6901	-14.8133	1.1359	0.5996	-0.5180	0.3811	-0.4764
3.12	0.3582	-9.8373	1.7735	-0.0155	-0.0122	-0.0260	-14.7978	-15.0413	1.1904	0.5996	-0.5181	0.3811	-0.4764
3.13	0.3254	-9.8336	1.7740	-0.0029	0.0014	-0.0166	-14.6573	-14.8760	1.1575	0.5995	-0.5181	0.3811	-0.4763
3.14	0.3024	-9.8385	1.7882	-0.0014	0.0081	-0.0090	-14.6706	-15.0741	1.0701	0.5995	-0.5182	0.3812	-0.4763
3.15	0.2769	-9.8300	1.7842	0.0045	0.0172	-0.0038	-14.6994	-15.0124	1.2429	0.5995	-0.5181	0.3812	-0.4763
3.16	0.2551	-9.8122	1.7876	0.0200	0.0307	-0.0039	-14.8592	-14.8233	1.2673	0.5995	-0.5180	0.3814	-0.4763
3.17	0.2268	-9.7902	1.7906	0.0252	0.0329	-0.0010	-14.7609	-14.7128	1.2385	0.5995	-0.5178	0.3814	-0.4764
3.18	0.2023	-9.7555	1.7943	0.0231	0.0415	0.0058	-14.7342	-14.7888	1.4217	0.5995	-0.5177	0.3816	-0.4765
3.19	0.1713	-9.7560	1.7993	0.0246	0.0446	0.0060	-14.8252	-14.7768	1.2080	0.5995	-0.5175	0.3817	-0.4765
3.2	0.1333	-9.7651	1.8016	0.0241	0.0507	0.0117	-14.8745	-14.7276	1.1359	0.5995	-0.5172	0.3819	-0.4766
3.21	0.1059	-9.7645	1.8113	0.0239	0.0493	0.0089	-14.6239	-14.7135	1.1736	0.5996	-0.5171	0.3821	-0.4767
3.22	0.0829	-9.7726	1.8223	0.0222	0.0434	0.0049	-14.8518	-14.6453	1.4724	0.5995	-0.5168	0.3823	-0.4767
3.23	0.0530	-9.7583	1.8196	0.0249	0.0458	0.0020	-14.8117	-14.6213	1.2845	0.5996	-0.5167	0.3824	-0.4769
3.24	0.0302	-9.7425	1.8296	0.0281	0.0386	0.0016	-14.4757	-14.7104	1.2363	0.5996	-0.5164	0.3825	-0.4769
3.25	0.0318	-9.7573	1.8398	0.0298	0.0262	-0.0024	-14.1123	-14.6197	1.2630	0.5997	-0.5162	0.3826	-0.4770
3.26	0.0325	-9.7334	1.8467	0.0366	0.0187	-0.0013	-14.1097	-14.6471	1.0851	0.5998	-0.5160	0.3826	-0.4770
3.27	0.0600	-9.7184	1.8557	0.0274	0.0100	-0.0060	-14.6538	-15.2803	1.1068	0.5999	-0.5159	0.3826	-0.4770
3.28	0.0862	-9.7348	1.8513	0.0243	-0.0020	-0.0084	-14.7714	-15.8630	0.8938	0.6000	-0.5158	0.3827	-0.4771
3.29	0.1196	-9.7385	1.8537	0.0250	0.0048	-0.0129	-14.6765	-15.1112	0.9790	0.6001	-0.5157	0.3826	-0.4771
3.3	0.1504	-9.7368	1.8493	0.0249	-0.0023	-0.0178	-14.6632	-14.5554	1.0752	0.6002	-0.5156	0.3826	-0.4771
3.31	0.1701	-9.7245	1.8522	0.0240	-0.0034	-0.0154	-14.6396	-14.9053	1.0733	0.6002	-0.5155	0.3825	-0.4771
3.32	0.1941	-9.7515	1.8534	0.0211	0.0019	-0.0188	-14.8144	-14.7708	1.1249	0.6003	-0.5154	0.3825	-0.4771
3.33	0.2079	-9.7552	1.8385	0.0232	0.0015	-0.0142	-14.7932	-14.8545	0.7512	0.6004	-0.5153	0.3825	-0.4771
3.34	0.2140	-9.7311	1.8575	0.0165	-0.0017	-0.0094	-14.7379	-14.7987	1.0751	0.6005	-0.5153	0.3825	-0.4771
3.35	0.2228	-9.7399	1.8531	0.0222	0.0064	-0.0117	-14.7530	-14.8220	1.1533	0.6006	-0.5152	0.3825	-0.4771
3.36	0.2199	-9.7213	1.8560	0.0217	0.0108	-0.0071	-14.6422	-14.8134	1.0198	0.6006	-0.5150	0.3825	-0.4771
3.37	0.2247	-9.7363	1.8662	0.0168	0.0103	-0.0043	-14.8771	-14.8080	1.1437	0.6007	-0.5149	0.3826	-0.4771
3.38	0.2260	-9.7596	1.8704	0.0150	0.0119	-0.0034	-14.7358	-14.8312	1.0776	0.6007	-0.5148	0.3826	-0.4771
3.39	0.2333	-9.7627	1.8898	0.0160	0.0054	-0.0068	-14.6596	-14.7902	1.0300	0.6009	-0.5147	0.3827	-0.4771
3.4	0.2352	-9.7640	1.8926	0.0176	0.0215	-0.0068	-14.6421	-14.7323	1.2826	0.6009	-0.5146	0.3828	-0.4771
3.41	0.2448	-9.7787	1.8870	0.0236	0.0265	-0.0031	-14.7744	-14.9371	1.0909	0.6009	-0.5145	0.3829	-0.4772
3.42	0.2259	-9.7353	1.8763	0.0246	0.0211	-0.0033	-15.0966	-14.8026	0.9458	0.6010	-0.5143	0.3829	-0.4772
3.43	0.2041	-9.6943	1.8660	0.0185	0.0249	0.0033	-14.6637	-14.6963	1.2211	0.6010	-0.5141	0.3830	-0.4772
3.44	0.1839	-9.7103	1.8449	0.0031	0.0341	0.0020	-14.5745	-14.7827	1.0771	0.6011	-0.5140	0.3832	-0.4772
3.45	0.1625	-9.7232	1.8367	-0.0003	0.0307	0.0051	-14.7915	-14.9177	1.0382	0.6010	-0.5138	0.3834	-0.4771
3.46	0.1488	-9.7578	1.8229	-0.0103	0.0275	-0.0008	-14.6174	-14.8050	1.2099	0.6011	-0.5138	0.3836	-0.4772
3.47	0.1349	-9.7692	1.8125	-0.0032	0.0247	-0.0009	-14.8641	-15.1102	1.2221	0.6011	-0.5136	0.3837	-0.4771
3.48	0.1342	-9.7774	1.8171	-0.0002	0.0169	-0.0041	-14.7573	-14.7379	1.1259	0.6011	-0.5136	0.3839	-0.4771
3.49	0.1332	-9.7975	1.8246	-0.0019	0.0142	-0.0046	-14.7579	-14.8125	1.1652	0.6010	-0.5135	0.3840	-0.4770
3.5	0.1243	-9.8320	1.8324	0.0128	0.0146	-0.0036	-14.6061	-14.9312	1.0300	0.6011	-0.5134	0.3841	-0.4770
3.51	0.1047	-9.8274	1.8228	0.0238	0.0102	-0.0044	-14.5908	-14.7312	0.8780	0.6011	-0.5133	0.3841	-0.4770
3.52	0.0924	-9.8222	1.8304	0.0241	0.0059	0.0026	-14.7672	-15.0413	0.9473	0.6012	-0.5132	0.3841	-0.4770
3.53	0.0902	-9.8240	1.8349	0.0294	-0.0049	-0.0037	-14.8389	-14.7513	1.0891	0.6014	-0.5132	0.3842	-0.4770
3.54	0.0940	-9.7958	1.8448	0.0474	-0.0052	-0.0039	-14.9887	-14.7794	1.1879	0.6015	-0.5130	0.3841	-0.4770
3.55	0.1006	-9.7594	1.8503	0.0504	-0.0064	-0.0042	-14.7809	-14.7778	1.0722	0.6016	-0.5129	0.3840	-0.4770
3.56	0.0894	-9.7154	1.8646	0.0499	-0.0149	-0.0046	-14.7149	-14.7034	1.0571	0.6017	-0.5127	0.3839	-0.4770
3.57	0.0993	-9.7378	1.8879	0.0503	-0.0116	-0.0037	-15.0175	-14.7610	1.0545	0.6020	-0.5126	0.3838	-0.4770
3.58	0.1212	-9.7560	1.9081	0.0500	-0.0122	-0.0038	-14.7996	-14.8559	1.0987	0.6022	-0.5124	0.3837	-0.4770
3.59	0.1458	-9.7419	1.9291	0.0502	-0.0154	-0.0059	-14.7208	-14.7200	1.2474	0.6024	-0.5123	0.3836	-0.4769
3.6	0.1774	-9.7084	1.9442	0.0502	-0.0142	-0.0085	-14.7650	-14.7486	1.2511	0.6026	-0.5121	0.3835	-0.4770
3.61	0.1998	-9.6916	1.9656	0.0502	-0.0139	-0.0028	-14.7415	-14.8295	1.0826	0.6028	-0.5120	0.3835	-0.4769
3.62	0.2079	-9.6945	1.9803	0.0506	-0.0088	-0.0055	-14.7672	-14.8454	1.0745	0.6030	-0.5118	0.3834	-0.4769
3.63	0.2009	-9.6890	1.9880	0.0479	-0.0038	-0.0007	-14.7308	-14.7056	0.9543	0.6032	-0.5115	0.3833	-0.4769
3.64	0.1880	-9.6785	1.9938	0.0387	-0.0000	0.0063	-14.6766	-14.7687	1.0971	0.6034	-0.5114	0.3834	-0.4769
3.65	0.1761	-9.6682	1.9920	0.0308	0.0092	0.0038	-14.7593	-14.9637	1.1607	0.6035	-0.5112	0.3834	-0.4769
3.66	0.1664	-9.6599	1.9918	0.0273	0.0133	0.0037	-14.5228	-15.1152	0.9464	0.6037	-0.5111	0.3835	-0.4768
3.67	0.1562	-9.6543	1.9923	0.0200	0.0118	0.0034	-14.7858	-14.7813	0.9907	0.6038	-0.5109	0.3835	-0.4768
3.68	0.1454	-9.6535	1.9816	0.0119	0.0237	-0.0019	-14.8510	-14.6234	1.0537	0.6038	-0.5107	0.3837	-0.4768
3.69	0.1285	-9.6637	1.9739	0.0023	0.0151	-0.0041	-14.8489	-15.0004	1.0951	0.6039	-0.5107	0.3838	-0.4768
3.7	0.1226	-9.6706	1.9702	-0.0098	0.0122	-0.0042	-14.7640	-14.6891	0.9332	0.6038	-0.5105	0.3839	-0.4766
3.71	0.1113	-9.6889	1.9554	-0.0146	0.0138	-0.0023	-14.7190	-14.7840	1.1345	0.6039	-0.5106	0.3841	-0.4766
3.72	0.1112	-9.7066	1.9566	-0.0217	0.0148	-0.0044	-14.8013	-14.7703	1.2196	0.6038	-0.5105	0.3843	-0.4765
3.73	0.1113	-9.7508	1.9532	-0.0250	0.0241	-0.0053	-14.8688	-14.7894	0.9281	0.6038	-0.5106	0.3845	-0.4765
3.74	0.0991	-9.7706	1.9400	-0.0140	0.0207	-0.0027	-14.6776	-14.7668	1.5239	0.6037	-0.5105	0.3846	-0.4764
3.75	0.1020	-9.7677	1.9474	-0.0082	0.0067	0.0001	-14.3458	-14.4390	1.3350	0.6037	-0.5105	0.3848	-0.4763
3.76	0.1012	-9.7618	1.9404	-0.0081	0.0087	-0.0014	-14.0632	-14.3231	1.2064	0.6037	-0.5105	0.3849	-0.4763
3.77	0.0923	-9.7505	1.9414	0.0047	0.0139	-0.0042	-14.5534	-14.7779	1.1595	0.6037	-0.5104	0.3850	-0.4762
3.78	0.0976	-9.7508	1.9347	0.0044	0.0121	-0.0036	-14.7023	-15.7211	1.1658	0.6038	-0.5103	0.3851	-0.4762
3.79	0.1035	-9.7466	1.9308	-0.0005	0.0152	-0.0045	-14.7771	-14.7307	1.2705	0.6038	-0.5102	0.3852	-0.4761
3.8	0.1084	-9.7443	1.9378	0.0139	0.0165	-0.0003	-14.7793	-14.6515	1.2265	0.6039	-0.5101	0.3854	-0.4761
3.81	0.1015	-9.7365	1.9303	0.0146	0.0069	0.0009	-14.7850	-14.7116	1.2520	0.6039	-0.5099	0.3854	-0.4760
3.82	0.1091	-9.7270	1.9409	0.0191	0.0053	-0.0033	-14.6484	-14.7514	1.0144	0.6041	-0.5098	0.3855	-0.4760
3.83	0.1089	-9.7158	1.9410	0.0169	0.0161	-0.0016	-14.5701	-14.8811	1.0916	0.6041	-0.5097	0.3856	-0.4760
3.84	0.1009	-9.7245	1.9452	0.0048	0.0146	0.0045	-14.6743	-14.8064	1.0294	0.6042	-0.5096	0.3857	-0.4759
3.85	0.0891	-9.7388	1.9474	0.0117	0.0162	0.0093	-14.8010	-14.8684	1.1841	0.6043	-0.5094	0.3859	-0.4759
3.86	0.0800	-9.7379	1.9539	0.0124	0.0175	0.0106	-14.8979	-14.6629	1.1100	0.6044	-0.5093	0.3860	-0.4758
3.87	0.0739	-9.7377	1.9514	0.0142	0.0288	0.0048	-14.8183	-14.7209	1.2327	0.6045	-0.5091	0.3862	-0.4758
3.88	0.0644	-9.7231	1.9501	0.0204	0.0225	0.0033	-14.6640	-14.7661	1.2488	0.6045	-0.5089	0.3863	-0.4757
3.89	0.0528	-9.7143	1.9538	0.0161	0.0171	0.0011	-14.7179	-14.7366	1.1379	0.6046	-0.5088	0.3864	-0.4757
3.9	0.0362	-9.6969	1.9516	0.0208	0.0196	0.0013	-14.6207	-14.7671	1.3010	0.6047	-0.5086	0.3865	-0.4757
3.91	0.0277	-9.6832	1.9584	0.0077	0.0267	-0.0014	-14.6452	-14.6927	1.1443	0.6047	-0.5085	0.3867	-0.4757
3.92	0.0214	-9.6741	1.9543	0.0091	0.0296	-0.0037	-14.8095	-14.4559	1.1409	0.6047	-0.5083	0.3868	-0.4757
3.93	0.0122	-9.6557	1.9590	-0.0028	0.0269	-0.0041	-15.0045	-14.3886	1.1372	0.6048	-0.5082	0.3870	-0.4757
3.94	0.0044	-9.6695	1.9557	-0.0004	0.0237	-0.0036	-14.8737	-14.8024	1.1502	0.6048	-0.5081	0.3871	-0.4757
3.95	-0.0013	-9.6705	1.9566	0.0011	0.0270	-0.0055	-14.9464	-14.5529	1.1542	0.6047	-0.5079	0.3873	-0.4756
3.96	-0.0112	-9.6555	1.9505	-0.0021	0.0244	-0.0043	-14.8628	-14.5112	1.0243	0.6048	-0.5079	0.3875	-0.4756
3.97	-0.0174	-9.6532	1.9424	-0.0158	0.0187	-0.0043	-14.8627	-14.6819	1.2374	0.6048	-0.5078	0.3876	-0.4755
3.98	-0.0254	-9.6551	1.9331	-0.0228	0.0185	-0.0043	-14.8757	-14.4588	1.1834	0.6048	-0.5078	0.3879	-0.4755
3.99	-0.0273	-9.6765	1.9247	-0.0271	0.0038	-0.0068	-14.8610	-14.5555	1.0284	0.6047	-0.5078	0.3880	-0.4753
4	-0.0290	-9.7042	1.9103	-0.0266	0.0076	-0.0046	-14.7605	-14.8763	0.9507	0.6047	-0.5078	0.3881	-0.4752
4.01	-0.0239	-9.7313	1.9005	-0.0287	0.0064	-0.0057	-14.5948	-14.8633	0.9852	0.6046	-0.5078	0.3883	-0.4751
4.02	-0.0175	-9.7483	1.8860	-0.0387	-0.0045	-0.0133	-14.6748	-14.9080	0.9447	0.6046	-0.5079	0.3884	-0.4749
4.03	-0.0110	-9.7681	1.8842	-0.0370	-0.0091	-0.0079	-14.7950	-14.9129	1.1059	0.6046	-0.5081	0.3886	-0.4748
4.04	-0.0096	-9.7912	1.8658	-0.0384	-0.0058	-0.0087	-14.7873	-14.8443	0.9959	0.6045	-0.5082	0.3887	-0.4747
4.05	-0.0135	-9.7661	1.8597	-0.0348	-0.0071	-0.0056	-14.7282	-14.7122	0.9781	0.6045	-0.5083	0.3889	-0.4745
4.06	-0.0037	-9.7517	1.8455	-0.0275	-0.0146	-0.0069	-14.5793	-14.6332	0.8452	0.6044	-0.5083	0.3889	-0.4743
4.07	-0.0080	-9.7358	1.8431	-0.0275	-0.0165	-0.0053	-14.7189	-14.6711	0.9236	0.6045	-0.5084	0.3890	-0.4742
4.08	-0.0114	-9.7605	1.8449	-0.0234	-0.0155	-0.0074	-14.8454	-14.8530	1.1134	0.6045	-0.5085	0.3891	-0.4740
4.09	-0.0118	-9.7699	1.8371	-0.0245	-0.0088	-0.0093	-14.8881	-14.7073	1.0161	0.6045	-0.5085	0.3892	-0.4738
4.1	-0.0004	-9.7928	1.8497	-0.0249	-0.0181	-0.0095	-14.7601	-14.4516	1.1722	0.6045	-0.5087	0.3893	-0.4737
4.11	0.0076	-9.8253	1.8401	-0.0178	-0.0165	-0.0164	-14.7815	-14.3604	1.2615	0.6044	-0.5088	0.3893	-0.4736
4.12	0.0282	-9.8191	1.8478	-0.0044	-0.0176	-0.0168	-14.8002	-14.5159	1.1724	0.6044	-0.5089	0.3893	-0.4735
4.13	0.0410	-9.7882	1.8414	-0.0002	-0.0162	-0.0211	-15.0782	-14.6919	1.1305	0.6044	-0.5089	0.3892	-0.4734
4.14	0.0351	-9.7573	1.8293	0.0003	-0.0118	-0.0179	-15.0208	-14.5420	1.1651	0.6045	-0.5089	0.3893	-0.4734
4.15	0.0300	-9.7479	1.8318	0.0033	-0.0034	-0.0094	-14.9256	-14.4318	1.1073	0.6045	-0.5089	0.3893	-0.4733
4.16	0.0160	-9.7606	1.8253	-0.0014	0.0075	-0.0180	-14.7477	-14.3864	1.2279	0.6046	-0.5089	0.3894	-0.4733
4.17	-0.0013	-9.7593	1.8229	0.0002	-0.0023	-0.0188	-14.9031	-14.3850	1.2399	0.6045	-0.5088	0.3894	-0.4732
4.18	-0.0024	-9.7526	1.8177	-0.0024	-0.0045	-0.0161	-14.9232	-14.6881	0.9848	0.6046	-0.5088	0.3895	-0.4731
4.19	0.0048	-9.7537	1.8195	-0.0001	-0.0060	-0.0229	-14.6915	-14.9505	1.1578	0.6046	-0.5088	0.3895	-0.4731
4.2	0.0114	-9.7610	1.8186	-0.0020	-0.0135	-0.0304	-14.6257	-14.8492	1.1384	0.6046	-0.5088	0.3894	-0.4730
4.21	0.0243	-9.7599	1.8212	0.0037	-0.0107	-0.0321	-14.3841	-14.5954	1.2742	0.6047	-0.5089	0.3895	-0.4731
4.22	0.0334	-9.7567	1.8239	0.0046	-0.0173	-0.0297	-14.5877	-14.9004	1.1958	0.6047	-0.5089	0.3894	-0.4730
4.23	0.0458	-9.7608	1.8240	0.0038	-0.0200	-0.0298	-14.6569	-14.8720	1.1302	0.6048	-0.5090	0.3894	-0.4730
4.24	0.0676	-9.7774	1.8282	0.0059	-0.0297	-0.0304	-14.7411	-14.6737	1.2384	0.6047	-0.5090	0.3892	-0.4729
4.25	0.0926	-9.7793	1.8299	0.0126	-0.0338	-0.0298	-14.3566	-14.4608	1.5195	0.6048	-0.5091	0.3891	-0.4728
4.26	0.1110	-9.7727	1.8345	0.0226	-0.0377	-0.0307	-14.2891	-14.4312	1.4195	0.6050	-0.5091	0.3890	-0.4728
4.27	0.1179	-9.7265	1.8289	0.0217	-0.0340	-0.0258	-14.6016	-15.0081	1.1459	0.6050	-0.5091	0.3888	-0.4727
4.28	0.1242	-9.7123	1.8411	0.0193	-0.0260	-0.0223	-14.6632	-15.6283	1.1943	0.6052	-0.5092	0.3888	-0.4727
4.29	0.1241	-9.7493	1.8431	0.0044	-0.0329	-0.0183	-14.9805	-14.8853	1.0057	0.6053	-0.5092	0.3887	-0.4725
4.3	0.1391	-9.7656	1.8564	0.0121	-0.0333	-0.0126	-14.8257	-14.5408	1.2085	0.6054	-0.5092	0.3886	-0.4724
4.31	0.1578	-9.7701	1.8630	0.0179	-0.0343	-0.0238	-14.7477	-14.6016	1.3757	0.6055	-0.5092	0.3885	-0.4723
4.32	0.1703	-9.7602	1.8645	0.0175	-0.0339	-0.0236	-14.5920	-14.4919	1.0913	0.6057	-0.5093	0.3884	-0.4723
4.33	0.1849	-9.7396	1.8748	0.0173	-0.0419	-0.0168	-14.9190	-14.6211	1.2320	0.6058	-0.5093	0.3883	-0.4722
4.34	0.1834	-9.7430	1.8728	0.0126	-0.0229	-0.0079	-15.0687	-14.6374	1.2670	0.6059	-0.5092	0.3882	-0.4720
4.35	0.1721	-9.7350	1.8726	0.0162	-0.0203	-0.0083	-14.7620	-14.6364	1.1416	0.6060	-0.5092	0.3882	-0.4720
4.36	0.1640	-9.7368	1.8786	0.0090	-0.0206	-0.0058	-14.8872	-14.6304	1.3181	0.6061	-0.5092	0.3882	-0.4718
4.37	0.1526	-9.7494	1.8740	0.0045	-0.0238	-0.0079	-14.6887	-14.6440	1.1236	0.6063	-0.5092	0.3882	-0.4717
4.38	0.1497	-9.7285	1.8729	0.0034	-0.0160	-0.0092	-14.5444	-14.6102	1.0242	0.6063	-0.5092	0.3881	-0.4716
4.39	0.1501	-9.7173	1.8767	0.0040	-0.0068	-0.0078	-14.6601	-14.8827	1.2462	0.6064	-0.5092	0.3882	-0.4716
4.4	0.1531	-9.7089	1.8754	0.0008	-0.0064	-0.0103	-14.6601	-14.6969	1.1892	0.6064	-0.5092	0.3882	-0.4715
4.41	0.1577	-9.7150	1.8785	0.0069	-0.0071	-0.0135	-14.5494	-14.6117	0.9289	0.6065	-0.5092	0.3883	-0.4714
4.42	0.1648	-9.7302	1.8786	0.0030	-0.0034	-0.0130	-14.6422	-14.6392	1.1863	0.6065	-0.5091	0.3883	-0.4713
4.43	0.1705	-9.7327	1.8808	0.0018	0.0082	-0.0061	-15.1479	-14.6444	1.2928	0.6065	-0.5091	0.3884	-0.4713
4.44	0.1758	-9.7384	1.8754	0.0022	-0.0009	-0.0131	-14.8080	-14.7745	1.1814	0.6066	-0.5091	0.3884	-0.4713
4.45	0.1736	-9.7490	1.8698	-0.0021	0.0023	-0.0123	-14.9299	-14.6026	1.1482	0.6065	-0.5090	0.3884	-0.4712
4.46	0.1733	-9.7595	1.8736	-0.0001	0.0078	-0.0117	-14.8791	-14.7737	1.2650	0.6066	-0.5090	0.3886	-0.4712
4.47	0.1767	-9.7607	1.8703	-0.0016	0.0199	-0.0088	-14.7023	-14.9337	1.1171	0.6066	-0.5089	0.3887	-0.4711
4.48	0.1740	-9.7541	1.8760	0.0001	0.0239	-0.0028	-14.9595	-14.6041	1.2453	0.6066	-0.5089	0.3888	-0.4712
4.49	0.1629	-9.7545	1.8633	0.0013	0.0243	-0.0042	-14.7922	-14.7360	1.2695	0.6065	-0.5087	0.3889	-0.4711
4.5	0.1500	-9.7476	1.8620	0.0055	0.0268	-0.0035	-14.7404	-14.8164	1.2354	0.6066	-0.5086	0.3891	-0.4711
4.51	0.1343	-9.7464	1.8553	0.0013	0.0297	-0.0023	-15.0767	-14.6453	1.1233	0.6066	-0.5085	0.3892	-0.4711
4.52	0.1198	-9.7498	1.8515	0.0075	0.0235	0.0068	-14.7429	-14.5653	1.2562	0.6066	-0.5084	0.3894	-0.4711
4.53	0.1098	-9.7711	1.8568	0.0008	0.0227	0.0085	-14.6313	-14.4114	1.2587	0.6067	-0.5083	0.3896	-0.4711
4.54	0.0889	-9.7871	1.8524	0.0082	0.0345	0.0014	-14.7732	-14.5216	1.2284	0.6066	-0.5082	0.3897	-0.4710
4.55	0.0794	-9.7910	1.8570	0.0047	0.0197	0.0006	-14.6984	-14.7209	1.0758	0.6066	-0.5082	0.3899	-0.4711
4.56	0.0776	-9.7966	1.8564	0.0145	0.0183	0.0037	-14.8567	-14.3894	1.0617	0.6066	-0.5080	0.3899	-0.4710
4.57	0.0728	-9.7962	1.8556	0.0227	0.0165	0.0087	-14.5624	-14.6494	1.0690	0.6067	-0.5079	0.3900	-0.4710
4.58	0.0627	-9.7805	1.8587	0.0186	0.0253	0.0026	-14.6067	-14.6906	0.8968	0.6067	-0.5078	0.3901	-0.4710
4.59	0.0543	-9.7763	1.8601	0.0231	0.0210	-0.0003	-14.6680	-14.6147	1.1846	0.6067	-0.5077	0.3902	-0.4710
4.6	0.0516	-9.7682	1.8595	0.0245	0.0250	0.0007	-14.6216	-14.6183	1.1324	0.6068	-0.5075	0.3903	-0.4711
4.61	0.0361	-9.7469	1.8624	0.0249	0.0205	0.0048	-14.6846	-14.6808	1.1070	0.6069	-0.5073	0.3904	-0.4710
4.62	0.0240	-9.7376	1.8647	0.0243	0.0219	0.0024	-14.9700	-14.6951	1.1307	0.6070	-0.5072	0.3905	-0.4711
4.63	0.0210	-9.7230	1.8750	0.0249	0.0247	-0.0001	-14.7047	-14.5299	0.9624	0.6070	-0.5070	0.3905	-0.4710
4.64	0.0141	-9.7243	1.8836	0.0237	0.0185	-0.0021	-14.7752	-14.5236	0.9535	0.6071	-0.5069	0.3907	-0.4711
4.65	0.0157	-9.7239	1.8866	0.0276	0.0201	-0.0041	-14.8102	-14.6270	1.0501	0.6071	-0.5067	0.3907	-0.4711
4.66	0.0125	-9.7101	1.8900	0.0274	0.0264	-0.0048	-14.9105	-14.8009	1.0030	0.6072	-0.5066	0.3908	-0.4712
4.67	0.0079	-9.7003	1.8923	0.0245	0.0212	-0.0129	-14.8945	-14.3962	0.9687	0.6072	-0.5064	0.3908	-0.4712
4.68	0.0147	-9.7166	1.8969	0.0247	0.0233	-0.0073	-14.9758	-14.5030	1.2117	0.6073	-0.5063	0.3909	-0.4713
4.69	0.0156	-9.7216	1.8992	0.0253	0.0226	-0.0114	-14.9251	-14.7826	1.3397	0.6073	-0.5061	0.3909	-0.4714
4.7	0.0218	-9.7256	1.9179	0.0242	0.0223	-0.0175	-14.6902	-14.8252	1.2691	0.6073	-0.5060	0.3909	-0.4714
4.71	0.0164	-9.7414	1.9207	0.0290	0.0204	-0.0130	-14.8608	-14.6868	1.1536	0.6074	-0.5059	0.3910	-0.4715
4.72	0.0186	-9.7551	1.9284	0.0278	0.0213	-0.0127	-14.7929	-14.5892	1.2944	0.6074	-0.5057	0.3910	-0.4716
4.73	0.0183	-9.7600	1.9299	0.0298	0.0172	-0.0083	-14.8721	-14.5000	1.2282	0.6075	-0.5056	0.3911	-0.4717
4.74	0.0061	-9.7394	1.9270	0.0321	0.0091	-0.0079	-14.5571	-14.6124	1.2636	0.6075	-0.5054	0.3910	-0.4716
4.75	-0.0045	-9.7064	1.9224	0.0267	0.0062	-0.0130	-14.0339	-14.3051	1.3714	0.6076	-0.5054	0.3911	-0.4717
4.76	-0.0101	-9.6733	1.9264	0.0269	-0.0031	-0.0098	-13.9714	-14.1943	1.4748	0.6077	-0.5053	0.3910	-0.4717
4.77	-0.0051	-9.6982	1.9323	0.0185	-0.0103	-0.0074	-14.6234	-15.0239	1.2355	0.6077	-0.5052	0.3910	-0.4716
4.78	0.0022	-9.7279	1.9363	0.0149	-0.0127	-0.0076	-14.5804	-15.8506	1.2698	0.6079	-0.5053	0.3910	-0.4716
4.79	0.0226	-9.7575	1.9478	0.0189	-0.0154	-0.0074	-14.7359	-15.0442	1.1829	0.6079	-0.5052	0.3909	-0.4715
4.8	0.0446	-9.7662	1.9552	0.0231	-0.0129	-0.0158	-14.7990	-14.5435	0.9172	0.6080	-0.5052	0.3909	-0.4715
4.81	0.0720	-9.7483	1.9569	0.0243	-0.0112	-0.0156	-14.7825	-14.6940	1.0411	0.6080	-0.5051	0.3908	-0.4715
4.82	0.0891	-9.7262	1.9505	0.0250	-0.0168	-0.0126	-14.6589	-14.8402	1.3157	0.6082	-0.5052	0.3907	-0.4715
4.83	0.1016	-9.7069	1.9504	0.0243	-0.0095	-0.0045	-14.7530	-14.6030	1.1101	0.6083	-0.5051	0.3907	-0.4714
4.84	0.0897	-9.6830	1.9469	0.0238	-0.0088	-0.0045	-14.7877	-14.5410	1.2993	0.6084	-0.5050	0.3906	-0.4714
4.85	0.0673	-9.6684	1.9375	0.0094	-0.0018	-0.0059	-14.8755	-14.4648	1.4129	0.6085	-0.5050	0.3906	-0.4714
4.86	0.0493	-9.6586	1.9301	0.0012	0.0064	-0.0036	-14.9991	-14.4768	1.1699	0.6084	-0.5050	0.3907	-0.4713
4.87	0.0307	-9.6611	1.9200	-0.0024	0.0016	-0.0084	-14.6885	-14.4461	1.2525	0.6085	-0.5050	0.3908	-0.4713
4.88	0.0207	-9.6713	1.9251	-0.0038	0.0011	-0.0084	-14.7173	-14.5677	1.2200	0.6084	-0.5049	0.3908	-0.4712
4.89	0.0170	-9.6983	1.9228	-0.0071	-0.0018	-0.0154	-14.6437	-14.5345	1.3429	0.6085	-0.5050	0.3908	-0.4712
4.9	0.0179	-9.7248	1.9144	-0.0148	-0.0046	-0.0132	-14.8246	-14.4470	1.1491	0.6084	-0.5051	0.3909	-0.4711
4.91	0.0211	-9.7430	1.9151	-0.0172	-0.0030	-0.0175	-15.0546	-14.4937	1.1156	0.6084	-0.5052	0.3909	-0.4711
4.92	0.0189	-9.7657	1.9076	-0.0162	-0.0025	-0.0140	-14.7101	-14.3704	1.1572	0.6083	-0.5052	0.3910	-0.4710
4.93	0.0246	-9.7817	1.9047	-0.0063	-0.0143	-0.0161	-14.8541	-14.6260	1.0877	0.6083	-0.5053	0.3910	-0.4709
4.94	0.0386	-9.7815	1.9040	-0.0011	-0.0151	-0.0248	-14.8390	-14.6731	1.0691	0.6083	-0.5054	0.3909	-0.4709
4.95	0.0503	-9.7867	1.9030	-0.0012	-0.0148	-0.0256	-14.6683	-14.9109	1.2666	0.6082	-0.5055	0.3908	-0.4708
4.96	0.0536	-9.7437	1.8892	0.0034	-0.0170	-0.0206	-14.7091	-14.9193	1.1170	0.6083	-0.5056	0.3908	-0.4708
4.97	0.0596	-9.7078	1.9001	0.0050	-0.0173	-0.0143	-14.6679	-14.7272	1.3031	0.6083	-0.5056	0.3908	-0.4707
4.98	0.0703	-9.7532	1.9026	0.0009	-0.0247	-0.0164	-14.7649	-14.8060	1.1078	0.6084	-0.5057	0.3907	-0.4707
4.99	0.0938	-9.7772	1.9162	0.0160	-0.0303	-0.0151	-14.8861	-14.8235	1.2718	0.6084	-0.5057	0.3906	-0.4706
5	0.1184	-9.7691	1.9296	0.0109	-0.0290	-0.0198	-14.7426	-14.8367	1.1725	0.6085	-0.5058	0.3905	-0.4705
5.01	0.1364	-9.7412	1.9304	0.0212	-0.0241	-0.0107	-14.6450	-14.9408	1.0173	0.6086	-0.5058	0.3904	-0.4705
5.02	0.1582	-9.7139	1.9446	0.0265	-0.0339	-0.0119	-14.8713	-14.5492	1.3789	0.6087	-0.5058	0.3902	-0.4704
5.03	0.1674	-9.7082	1.9437	0.0186	-0.0243	-0.0086	-14.8809	-14.3637	1.1623	0.6089	-0.5059	0.3902	-0.4704
5.04	0.1692	-9.7021	1.9403	0.0106	-0.0138	-0.0036	-14.7272	-14.5200	1.3124	0.6089	-0.5058	0.3901	-0.4703
5.05	0.1568	-9.7009	1.9480	0.0035	-0.0129	-0.0045	-14.8742	-14.5929	1.2526	0.6090	-0.5059	0.3901	-0.4703
5.06	0.1461	-9.7166	1.9446	0.0008	-0.0062	-0.0053	-14.8644	-14.4343	1.2272	0.6089	-0.5058	0.3901	-0.4701
5.07	0.1406	-9.7193	1.9468	0.0002	-0.0009	-0.0061	-14.7751	-14.5190	1.2031	0.6090	-0.5059	0.3902	-0.4701
5.08	0.1312	-9.7265	1.9453	-0.0046	0.0047	-0.0066	-14.9266	-14.5216	1.1355	0.6090	-0.5059	0.3902	-0.4701
5.09	0.1169	-9.7245	1.9380	0.0006	0.0089	-0.0128	-14.7595	-14.4415	1.3594	0.6089	-0.5059	0.3902	-0.4701
5.1	0.1064	-9.7157	1.9357	0.0000	0.0163	-0.0084	-14.7994	-14.5663	1.1968	0.6089	-0.5059	0.3903	-0.4701
5.11	0.0941	-9.7143	1.9324	-0.0012	0.0138	-0.0087	-14.7489	-14.5791	1.3947	0.6089	-0.5058	0.3904	-0.4701
5.12	0.0828	-9.7140	1.9264	-0.0014	0.0163	-0.0044	-14.8676	-14.9031	1.1799	0.6089	-0.5058	0.3905	-0.4701
5.13	0.0740	-9.7101	1.9257	-0.0014	0.0175	-0.0090	-14.8138	-14.9327	1.1296	0.6088	-0.5057	0.3905	-0.4700
5.14	0.0641	-9.7218	1.9276	-0.0010	0.0180	-0.0135	-14.4332	-14.6562	1.1495	0.6088	-0.5058	0.3906	-0.4701
5.15	0.0677	-9.7302	1.9212	-0.0022	0.0220	-0.0136	-14.6154	-14.8358	1.1517	0.6087	-0.5057	0.3907	-0.4701
5.16	0.0687	-9.7323	1.9213	-0.0028	0.0118	-0.0144	-14.8180	-14.6753	1.3679	0.6087	-0.5057	0.3908	-0.4702
5.17	0.0719	-9.7305	1.9183	0.0001	0.0078	-0.0180	-14.5751	-14.6223	1.0969	0.6086	-0.5057	0.3908	-0.4702
5.18	0.0746	-9.7373	1.9110	-0.0049	0.0038	-0.0121	-14.6301	-14.9008	1.0670	0.6086	-0.5058	0.3908	-0.4702
5.19	0.0832	-9.7407	1.9088	-0.0045	0.0061	-0.0112	-14.7516	-14.7163	1.3779	0.6086	-0.5058	0.3908	-0.4702
5.2	0.0900	-9.7638	1.9126	-0.0008	0.0062	-0.0064	-14.8930	-14.7629	1.1995	0.6085	-0.5058	0.3909	-0.4701
5.21	0.0913	-9.7766	1.9082	-0.0016	0.0004	-0.0044	-14.7518	-14.5903	1.2734	0.6086	-0.5059	0.3910	-0.4701
5.22	0.0985	-9.7674	1.9161	0.0058	0.0055	-0.0044	-14.8305	-14.4292	1.2811	0.6086	-0.5058	0.3910	-0.4700
5.23	0.0979	-9.7625	1.9167	0.0034	0.0048	-0.0035	-14.9045	-14.5275	1.2376	0.6086	-0.5058	0.3911	-0.4700
5.24	0.0945	-9.7413	1.9231	0.0036	0.0069	-0.0045	-14.7053	-14.6110	1.5767	0.6085	-0.5058	0.3910	-0.4700
5.25	0.0897	-9.7334	1.9289	0.0144	0.0112	-0.0040	-14.4008	-14.3201	1.1933	0.6086	-0.5057	0.3911	-0.4700
5.26	0.0869	-9.7216	1.9314	0.0085	0.0081	-0.0040	-14.2346	-14.2168	1.1239	0.6086	-0.5057	0.3911	-0.4700
5.27	0.0770	-9.7132	1.9256	0.0167	0.0214	-0.0055	-14.6716	-14.8563	1.0352	0.6086	-0.5056	0.3911	-0.4700
5.28	0.0698	-9.7064	1.9320	0.0076	0.0153	-0.0043	-14.8575	-15.4533	1.3057	0.6087	-0.5056	0.3912	-0.4701
5.29	0.0677	-9.6992	1.9323	0.0102	0.0199	-0.0038	-14.9016	-14.9178	1.3059	0.6086	-0.5055	0.3913	-0.4701
5.3	0.0556	-9.6991	1.9329	0.0035	0.0198	-0.0048	-14.7289	-14.4857	0.9986	0.6086	-0.5055	0.3914	-0.4701
5.31	0.0444	-9.6899	1.9373	-0.0014	0.0174	-0.0040	-14.7628	-14.6076	1.1815	0.6085	-0.5054	0.3914	-0.4701
5.32	0.0364	-9.6920	1.9306	-0.0033	0.0159	-0.0042	-14.5902	-14.8694	1.2364	0.6085	-0.5054	0.3915	-0.4701
5.33	0.0317	-9.6920	1.9335	-0.0011	0.0075	-0.0055	-14.5938	-14.7970	0.9332	0.6085	-0.5054	0.3915	-0.4701
5.34	0.0200	-9.7001	1.9295	-0.0035	0.0052	-0.0057	-14.7397	-14.6499	1.3658	0.6085	-0.5054	0.3916	-0.4701
5.35	0.0229	-9.7085	1.9283	-0.0024	0.0082	-0.0034	-14.8454	-14.5855	1.1986	0.6085	-0.5054	0.3916	-0.4701
5.36	0.0345	-9.7108	1.9290	-0.0117	0.0069	-0.0049	-15.0820	-14.5317	1.0403	0.6084	-0.5054	0.3917	-0.4700
5.37	0.0424	-9.7158	1.9303	-0.0097	0.0036	-0.0044	-14.8787	-14.6977	1.4179	0.6084	-0.5055	0.3918	-0.4700
5.38	0.0471	-9.7320	1.9275	-0.0077	0.0052	-0.0046	-14.7171	-14.8498	1.1143	0.6083	-0.5054	0.3918	-0.4699
5.39	0.0587	-9.7404	1.9319	-0.0032	-0.0005	-0.0041	-14.6636	-14.7414	1.0830	0.6084	-0.5055	0.3918	-0.4699
5.4	0.0605	-9.7454	1.9301	-0.0069	0.0061	-0.0055	-14.7707	-14.7005	1.1592	0.6084	-0.5055	0.3918	-0.4699
5.41	0.0514	-9.7480	1.9060	-0.0246	0.0115	-0.0058	-14.7190	-14.6452	1.1602	0.6083	-0.5056	0.3919	-0.4698
5.42	0.0543	-9.7297	1.8977	-0.0175	-0.0047	-0.0072	-14.8509	-14.6617	1.1084	0.6082	-0.5057	0.3920	-0.4697
5.43	0.0613	-9.7182	1.8833	-0.0137	0.0009	-0.0079	-14.6871	-14.4297	1.2297	0.6082	-0.5058	0.3920	-0.4697
5.44	0.0641	-9.7265	1.8882	-0.0240	0.0036	-0.0035	-14.8262	-14.5255	1.3303	0.6082	-0.5059	0.3920	-0.4697
5.45	0.0635	-9.7723	1.8930	-0.0252	0.0051	-0.0046	-14.8191	-14.7458	1.1109	0.6080	-0.5059	0.3921	-0.4695
5.46	0.0672	-9.8180	1.8947	-0.0228	-0.0005	-0.0045	-14.9616	-14.8499	1.2749	0.6081	-0.5061	0.3922	-0.4695
5.47	0.0761	-9.8240	1.9030	-0.0045	0.0041	-0.0053	-14.9988	-14.5342	1.3963	0.6080	-0.5061	0.3922	-0.4694
5.48	0.0834	-9.7965	1.9011	-0.0009	0.0054	-0.0057	-14.8248	-14.4282	1.3774	0.6081	-0.5061	0.3923	-0.4694
5.49	0.0908	-9.7656	1.9001	-0.0019	0.0108	-0.0034	-14.8300	-14.7823	1.2071	0.6080	-0.5061	0.3923	-0.4694
5.5	0.0808	-9.7338	1.8982	0.0008	0.0187	-0.0062	-14.8461	-14.8394	1.1491	0.6080	-0.5061	0.3923	-0.4694
5.51	0.0620	-9.7116	1.8886	0.0036	0.0211	-0.0035	-14.5976	-14.6764	1.1496	0.6079	-0.5060	0.3924	-0.4694
5.52	0.0400	-9.7026	1.8865	-0.0057	0.0238	-0.0044	-14.5466	-14.5722	1.1594	0.6079	-0.5060	0.3924	-0.4695
5.53	0.0147	-9.6976	1.8811	-0.0028	0.0253	-0.0040	-14.6557	-14.6673	1.1402	0.6079	-0.5060	0.3925	-0.4695
5.54	-0.0062	-9.6893	1.8764	-0.0025	0.0269	-0.0038	-14.8335	-14.6606	1.0215	0.6078	-0.5059	0.3926	-0.4695
5.55	-0.0203	-9.6916	1.8655	-0.0111	0.0200	-0.0053	-14.7542	-14.4389	1.1167	0.6078	-0.5060	0.3927	-0.4696
5.56	-0.0272	-9.7089	1.8630	-0.0204	0.0174	-0.0121	-14.7624	-14.6228	1.2603	0.6076	-0.5059	0.3927	-0.4695
5.57	-0.0227	-9.7362	1.8624	-0.0167	0.0163	-0.0151	-14.6846	-14.4881	1.2201	0.6076	-0.5061	0.3928	-0.4696
5.58	-0.0239	-9.7586	1.8642	-0.0085	0.0082	-0.0136	-14.7247	-14.6117	1.0994	0.6075	-0.5061	0.3928	-0.4696
5.59	-0.0172	-9.7766	1.8665	-0.0146	0.0079	-0.0158	-14.9328	-14.8327	0.9629	0.6074	-0.5061	0.3928	-0.4696
5.6	-0.0121	-9.7768	1.8625	-0.0026	-0.0021	-0.0223	-14.9408	-14.5086	0.9712	0.6074	-0.5062	0.3928	-0.4696
5.61	-0.0070	-9.7739	1.8632	-0.0014	-0.0085	-0.0270	-14.9728	-14.7462	1.0789	0.6074	-0.5063	0.3927	-0.4696
5.62	0.0084	-9.7606	1.8638	-0.0007	-0.0127	-0.0230	-14.7528	-14.5406	1.0478	0.6074	-0.5064	0.3926	-0.4697
5.63	0.0210	-9.7387	1.8555	-0.0024	-0.0230	-0.0209	-14.9666	-14.6889	1.0450	0.6073	-0.5065	0.3924	-0.4696
5.64	0.0299	-9.6971	1.8551	0.0008	-0.0234	-0.0162	-14.7787	-14.6118	1.1905	0.6074	-0.5066	0.3923	-0.4696
5.65	0.0475	-9.7161	1.8590	-0.0105	-0.0263	-0.0264	-14.8767	-14.4603	1.2525	0.6074	-0.5067	0.3922	-0.4695
5.66	0.0706	-9.7668	1.8636	-0.0143	-0.0261	-0.0193	-14.7314	-14.7051	1.2383	0.6074	-0.5069	0.3921	-0.4695
5.67	0.1082	-9.7888	1.8800	-0.0013	-0.0414	-0.0210	-14.7545	-14.5273	1.2353	0.6074	-0.5071	0.3919	-0.4694
5.68	0.1398	-9.7740	1.8793	0.0018	-0.0332	-0.0198	-14.8234	-14.6073	1.2432	0.6075	-0.5072	0.3918	-0.4693
5.69	0.1747	-9.7430	1.8908	0.0024	-0.0321	-0.0124	-14.6839	-14.7074	1.2371	0.6075	-0.5073	0.3916	-0.4693
5.7	0.1914	-9.7338	1.8882	-0.0022	-0.0132	-0.0106	-14.5400	-14.8460	1.2752	0.6075	-0.5073	0.3915	-0.4692
5.71	0.1910	-9.7292	1.8923	-0.0003	-0.0144	-0.0056	-14.7040	-14.9185	1.1048	0.6076	-0.5075	0.3915	-0.4692
5.72	0.1801	-9.7246	1.9030	-0.0013	-0.0042	-0.0046	-14.8474	-14.8160	1.0898	0.6076	-0.5075	0.3915	-0.4691
5.73	0.1612	-9.7275	1.9007	-0.0011	0.0049	-0.0051	-14.4065	-14.8538	1.2142	0.6076	-0.5075	0.3915	-0.4692
5.74	0.1328	-9.7230	1.8964	-0.0034	0.0089	-0.0088	-14.6332	-14.6771	1.4645	0.6075	-0.5075	0.3914	-0.4691
5.75	0.1156	-9.7104	1.8949	-0.0043	0.0177	-0.0067	-14.3316	-14.4544	1.5046	0.6075	-0.5075	0.3915	-0.4692
5.76	0.0973	-9.6952	1.8870	-0.0029	0.0179	-0.0032	-14.0961	-14.4216	1.3737	0.6075	-0.5075	0.3915	-0.4692
5.77	0.0786	-9.6960	1.8803	-0.0045	0.0336	-0.0044	-14.6468	-14.8881	1.0690	0.6074	-0.5074	0.3916	-0.4692
5.78	0.0658	-9.7123	1.8741	-0.0192	0.0274	-0.0122	-14.6813	-15.3276	1.0580	0.6074	-0.5075	0.3917	-0.4693
5.79	0.0579	-9.7224	1.8679	-0.0213	0.0280	-0.0169	-14.6670	-14.6838	1.4775	0.6072	-0.5075	0.3918	-0.4693
5.8	0.0526	-9.7463	1.8663	-0.0266	0.0264	-0.0125	-14.9975	-14.3801	1.3261	0.6071	-0.5076	0.3919	-0.4694
5.81	0.0436	-9.7435	1.8503	-0.0263	0.0286	-0.0140	-15.1897	-14.5192	1.3241	0.6069	-0.5076	0.3919	-0.4694
5.82	0.0223	-9.7218	1.8401	-0.0263	0.0174	-0.0142	-14.7396	-14.4234	1.3240	0.6068	-0.5077	0.3921	-0.4694
5.83	0.0453	-9.7578	1.8437	-0.0261	0.0172	-0.0099	-14.7084	-14.5164	1.3271	0.6067	-0.5078	0.3921	-0.4694
5.84	0.0420	-9.7577	1.8397	-0.0115	0.0175	-0.0100	-14.8893	-14.3505	1.3178	0.6066	-0.5078	0.3922	-0.4694
5.85	0.0527	-9.7780	1.8321	-0.0188	0.0033	-0.0044	-14.8646	-14.5058	1.3345	0.6066	-0.5079	0.3922	-0.4694
5.86	0.0570	-9.7712	1.8383	-0.0212	-0.0042	-0.0056	-14.7550	-14.4212	1.1718	0.6065	-0.5079	0.3922	-0.4693
5.87	0.0574	-9.8006	1.8380	-0.0129	0.0006	-0.0062	-15.0283	-14.6088	1.1359	0.6065	-0.5080	0.3922	-0.4693
5.88	0.0603	-9.8159	1.8235	-0.0152	-0.0101	-0.0044	-14.6718	-14.7064	1.1602	0.6064	-0.5081	0.3922	-0.4692
5.89	0.0705	-9.8133	1.8271	-0.0096	-0.0019	-0.0047	-14.6175	-15.0062	1.0433	0.6065	-0.5082	0.3923	-0.4691
5.9	0.0715	-9.8063	1.8143	-0.0062	0.0030	-0.0043	-14.7049	-14.8760	1.0877	0.6064	-0.5082	0.3923	-0.4691
5.91	0.0791	-9.7999	1.8155	-0.0023	0.0009	-0.0045	-14.7551	-14.8791	1.2770	0.6065	-0.5083	0.3923	-0.4690
5.92	0.0772	-9.8046	1.8049	-0.0007	0.0052	-0.0056	-14.8044	-14.9020	1.1212	0.6064	-0.5083	0.3923	-0.4690
5.93	0.0780	-9.7959	1.8044	0.0009	0.0121	-0.0077	-14.7764	-14.8425	1.0693	0.6064	-0.5083	0.3924	-0.4690
5.94	0.0747	-9.8016	1.8135	0.0155	0.0068	-0.0056	-14.7865	-14.6890	1.1824	0.6064	-0.5082	0.3924	-0.4690
5.95	0.0678	-9.7987	1.8101	0.0139	0.0106	-0.0034	-14.7901	-14.7034	1.1277	0.6064	-0.5082	0.3924	-0.4690
5.96	0.0578	-9.7744	1.8108	0.0194	0.0220	-0.0038	-14.7655	-14.8344	1.1665	0.6065	-0.5081	0.3924	-0.4691
5.97	0.0435	-9.7612	1.8123	0.0235	0.0207	-0.0036	-14.8296	-14.5634	1.1308	0.6065	-0.5080	0.3924	-0.4691
5.98	0.0414	-9.7624	1.8219	0.0232	0.0178	-0.0036	-14.8953	-14.4612	1.1725	0.6066	-0.5080	0.3925	-0.4692
5.99	0.0310	-9.7578	1.8303	0.0215	0.0122	-0.0049	-14.7744	-14.2156	1.0193	0.6065	-0.5078	0.3924	-0.4692
6	0.0327	-9.7482	1.8362	0.0247	0.0204	-0.0055	-14.8886	-14.6198	1.0824	0.6066	-0.5078	0.3924	-0.4693
6.01	0.0228	-9.7374	1.8434	0.0241	0.0086	-0.0031	-14.9015	-14.5582	1.1944	0.6067	-0.5077	0.3923	-0.4694
6.02	0.0178	-9.7432	1.8567	0.0270	0.0072	-0.0049	-15.0726	-14.3447	1.3479	0.6067	-0.5076	0.3922	-0.4694
6.03	0.0256	-9.7475	1.8596	0.0232	0.0103	-0.0024	-14.9406	-14.4898	1.1917	0.6068	-0.5076	0.3922	-0.4695
6.04	0.0264	-9.7357	1.8707	0.0256	0.0165	-0.0084	-15.1112	-14.4750	1.1556	0.6068	-0.5074	0.3921	-0.4696
6.05	0.0323	-9.7283	1.8728	0.0257	0.0094	-0.0080	-14.9147	-14.4341	1.0565	0.6069	-0.5074	0.3921	-0.4697
6.06	0.0332	-9.7282	1.8813	0.0240	0.0070	-0.0024	-14.7546	-14.7421	1.1403	0.6069	-0.5072	0.3920	-0.4697
6.07	0.0256	-9.7308	1.8878	0.0245	0.0096	-0.0093	-14.8161	-14.8406	1.3846	0.6070	-0.5072	0.3920	-0.4698
6.08	0.0178	-9.7080	1.8789	0.0207	0.0087	-0.0085	-14.7232	-14.6310	1.1140	0.6070	-0.5072	0.3919	-0.4699
6.09	0.0186	-9.6879	1.8819	0.0192	0.0086	-0.0078	-14.6715	-14.6584	0.9250	0.6070	-0.5071	0.3918	-0.4699
6.1	0.0166	-9.6773	1.8838	0.0146	-0.0044	-0.0039	-14.7990	-14.6236	1.1963	0.6071	-0.5071	0.3918	-0.4699
6.11	0.0128	-9.6922	1.8935	0.0033	0.0048	-0.0058	-14.7778	-14.5502	1.3569	0.6071	-0.5071	0.3918	-0.4699
6.12	0.0082	-9.7302	1.8955	0.0092	0.0100	-0.0054	-14.7678	-14.5244	1.1158	0.6071	-0.5071	0.3918	-0.4700
6.13	0.0119	-9.7541	1.9033	0.0079	-0.0012	-0.0085	-14.8662	-14.7255	1.2317	0.6071	-0.5070	0.3917	-0.4699
6.14	0.0258	-9.7645	1.8998	0.0107	0.0011	-0.0136	-14.8802	-14.8342	1.3766	0.6071	-0.5071	0.3916	-0.4700
6.15	0.0428	-9.7427	1.8959	0.0131	0.0019	-0.0152	-14.8615	-14.6483	1.2652	0.6071	-0.5071	0.3915	-0.4701
6.16	0.0477	-9.7160	1.9035	0.0067	0.0131	-0.0123	-14.8929	-14.6378	1.2495	0.6071	-0.5071	0.3915	-0.4701
6.17	0.0327	-9.7109	1.8959	-0.0008	0.0089	-0.0071	-14.7610	-14.6579	1.1207	0.6071	-0.5070	0.3915	-0.4701
6.18	0.0121	-9.7122	1.8828	0.0006	0.0139	-0.0048	-14.8047	-14.4923	1.1859	0.6071	-0.5070	0.3915	-0.4702
6.19	-0.0183	-9.7027	1.8765	-0.0064	0.0234	-0.0065	-14.9321	-14.6838	1.0146	0.6071	-0.5070	0.3916	-0.4702
6.2	-0.0444	-9.7005	1.8538	-0.0096	0.0124	-0.0053	-15.0707	-14.7666	1.0021	0.6070	-0.5070	0.3916	-0.4702
6.21	-0.0612	-9.7019	1.8494	-0.0065	0.0058	-0.0089	-14.9274	-14.5035	1.2018	0.6070	-0.5071	0.3916	-0.4702
6.22	-0.0700	-9.7032	1.8441	-0.0253	0.0052	-0.0150	-14.7020	-14.5902	1.2304	0.6069	-0.5072	0.3916	-0.4702
6.23	-0.0653	-9.7219	1.8433	-0.0237	-0.0030	-0.0140	-14.9506	-14.5176	1.2682	0.6069	-0.5073	0.3917	-0.4702
6.24	-0.0526	-9.7396	1.8419	-0.0083	-0.0127	-0.0189	-14.8368	-14.6054	1.6441	0.6068	-0.5074	0.3916	-0.4701
6.25	-0.0426	-9.7681	1.8425	-0.0016	-0.0177	-0.0140	-14.0622	-14.4539	1.4628	0.6068	-0.5075	0.3915	-0.4701
6.26	-0.0306	-9.7792	1.8457	-0.0079	-0.0289	-0.0168	-13.9509	-14.3756	1.1853	0.6068	-0.5076	0.3914	-0.4700
6.27	-0.0150	-9.7890	1.8394	-0.0087	-0.0301	-0.0214	-14.5451	-14.9139	0.9490	0.6068	-0.5077	0.3913	-0.4699
6.28	0.0089	-9.7969	1.8425	-0.0086	-0.0405	-0.0243	-14.6568	-15.7908	1.1220	0.6069	-0.5080	0.3912	-0.4699
6.29	0.0283	-9.7882	1.8460	-0.0016	-0.0380	-0.0200	-14.7002	-14.9282	0.9195	0.6069	-0.5081	0.3910	-0.4697
6.3	0.0398	-9.7541	1.8337	0.0001	-0.0371	-0.0236	-14.8188	-14.3304	1.1385	0.6070	-0.5083	0.3908	-0.4697
6.31	0.0540	-9.7356	1.8435	0.0040	-0.0388	-0.0089	-14.7323	-14.6348	1.1726	0.6070	-0.5083	0.3906	-0.4696
6.32	0.0666	-9.7806	1.8435	-0.0010	-0.0403	-0.0119	-14.6300	-14.7313	1.1834	0.6071	-0.5085	0.3905	-0.4695
6.33	0.0864	-9.8088	1.8561	0.0065	-0.0437	-0.0126	-14.8089	-14.7550	1.2924	0.6072	-0.5086	0.3903	-0.4694
6.34	0.1074	-9.8044	1.8674	0.0232	-0.0348	-0.0165	-14.8884	-14.6812	1.2437	0.6072	-0.5086	0.3902	-0.4693
6.35	0.1293	-9.7789	1.8747	0.0249	-0.0338	-0.0175	-15.0235	-14.4176	1.2705	0.6074	-0.5087	0.3900	-0.4693
6.36	0.1402	-9.7525	1.8843	0.0243	-0.0279	-0.0117	-14.7141	-14.8076	1.2429	0.6075	-0.5087	0.3898	-0.4693
6.37	0.1479	-9.7631	1.8913	0.0245	-0.0236	-0.0083	-14.7873	-14.7212	1.2979	0.6076	-0.5088	0.3897	-0.4693
6.38	0.1324	-9.7519	1.8999	0.0243	-0.0170	-0.0056	-14.5172	-14.5383	1.1465	0.6076	-0.5087	0.3895	-0.4692
6.39	0.1150	-9.7276	1.8999	0.0244	-0.0070	-0.0035	-14.6996	-14.4527	1.1887	0.6078	-0.5087	0.3894	-0.4693
6.4	0.1014	-9.7163	1.9070	0.0183	0.0042	-0.0062	-14.8550	-14.6966	1.1171	0.6078	-0.5086	0.3893	-0.4693
6.41	0.0863	-9.7010	1.9076	0.0084	0.0074	-0.0055	-14.8237	-14.7058	1.3522	0.6079	-0.5086	0.3893	-0.4693
6.42	0.0830	-9.6941	1.9065	0.0057	0.0151	-0.0093	-14.7245	-14.5173	1.2468	0.6078	-0.5086	0.3893	-0.4693
6.43	0.0709	-9.6997	1.9061	0.0094	0.0127	-0.0104	-14.7553	-14.5879	1.0287	0.6078	-0.5085	0.3893	-0.4694
6.44	0.0660	-9.6960	1.9006	-0.0018	0.0117	-0.0141	-14.6576	-14.7167	1.2950	0.6078	-0.5086	0.3893	-0.4694
6.45	0.0555	-9.6951	1.8992	0.0020	0.0196	-0.0173	-14.7133	-14.7364	1.2331	0.6077	-0.5085	0.3893	-0.4695
6.46	0.0516	-9.7141	1.8938	-0.0018	0.0208	-0.0152	-14.7416	-14.8388	1.3050	0.6077	-0.5086	0.3894	-0.4696
6.47	0.0360	-9.7262	1.8938	-0.0002	0.0195	-0.0157	-14.7324	-14.6658	1.1912	0.6077	-0.5085	0.3894	-0.4696
6.48	0.0260	-9.7375	1.8890	-0.0017	0.0202	-0.0156	-14.7214	-14.6483	1.1757	0.6077	-0.5086	0.3894	-0.4697
6.49	0.0234	-9.7393	1.8863	0.0005	0.0207	-0.0131	-14.8371	-14.6323	1.1349	0.6075	-0.5085	0.3894	-0.4697
6.5	0.0199	-9.7396	1.8871	-0.0011	0.0110	-0.0091	-14.8014	-14.7992	1.1260	0.6075	-0.5085	0.3894	-0.4698
6.51	0.0166	-9.7387	1.8764	-0.0024	0.0110	-0.0101	-14.8556	-14.6128	1.3116	0.6075	-0.5085	0.3894	-0.4698
6.52	0.0228	-9.7416	1.8817	-0.0003	-0.0010	-0.0115	-14.7105	-14.5185	1.2348	0.6075	-0.5085	0.3894	-0.4698
6.53	0.0283	-9.7445	1.8705	-0.0028	-0.0061	-0.0103	-14.7716	-14.7850	1.3733	0.6076	-0.5086	0.3894	-0.4698
6.54	0.0408	-9.7390	1.8719	-0.0021	-0.0045	-0.0161	-14.9381	-14.5677	1.2201	0.6075	-0.5086	0.3893	-0.4698
6.55	0.0540	-9.7413	1.8695	-0.0009	-0.0020	-0.0054	-14.7120	-14.5647	1.2525	0.6076	-0.5087	0.3893	-0.4698
6.56	0.0624	-9.7538	1.8711	-0.0014	-0.0061	-0.0150	-14.7388	-14.5524	0.9086	0.6075	-0.5086	0.3892	-0.4697
6.57	0.0675	-9.7462	1.8673	-0.0008	-0.0067	-0.0137	-14.7360	-14.5782	1.2982	0.6075	-0.5087	0.3892	-0.4697
6.58	0.0716	-9.7435	1.8737	-0.0013	-0.0061	-0.0050	-14.7173	-14.6920	1.4939	0.6075	-0.5088	0.3891	-0.4697
6.59	0.0731	-9.7478	1.8688	-0.0018	-0.0040	-0.0065	-14.8045	-14.5448	1.4152	0.6075	-0.5088	0.3891	-0.4697
6.6	0.0720	-9.7500	1.8690	-0.0008	-0.0036	-0.0073	-14.9320	-14.5744	1.3791	0.6076	-0.5088	0.3891	-0.4697
6.61	0.0710	-9.7413	1.8808	-0.0016	-0.0083	-0.0048	-14.8972	-14.5341	1.0150	0.6076	-0.5089	0.3891	-0.4696
6.62	0.0675	-9.7337	1.8682	-0.0010	-0.0098	-0.0069	-14.7214	-14.6438	1.0232	0.6077	-0.5089	0.3890	-0.4696
6.63	0.0631	-9.7298	1.8699	-0.0002	-0.0045	-0.0056	-14.7675	-14.6279	1.1819	0.6076	-0.5089	0.3890	-0.4695
6.64	0.0593	-9.7254	1.8693	0.0005	-0.0031	-0.0071	-14.4552	-14.7913	1.0708	0.6077	-0.5090	0.3890	-0.4695
6.65	0.0554	-9.7256	1.8729	-0.0027	0.0027	-0.0075	-14.5869	-14.7854	1.2189	0.6077	-0.5090	0.3889	-0.4695
6.66	0.0486	-9.7155	1.8735	0.0070	0.0033	-0.0060	-14.8656	-14.9973	1.1374	0.6077	-0.5090	0.3889	-0.4695
6.67	0.0514	-9.7195	1.8803	0.0030	0.0118	-0.0076	-14.8897	-14.9088	1.3040	0.6077	-0.5089	0.3889	-0.4695
6.68	0.0465	-9.7354	1.8740	0.0003	0.0062	-0.0074	-14.8130	-14.5606	0.9465	0.6077	-0.5089	0.3889	-0.4695
6.69	0.0483	-9.7499	1.8803	-0.0002	0.0086	-0.0101	-14.8338	-14.5216	1.1055	0.6077	-0.5089	0.3890	-0.4695
6.7	0.0430	-9.7481	1.8770	0.0015	0.0074	-0.0070	-14.7459	-14.4278	1.2017	0.6076	-0.5089	0.3889	-0.4695
6.71	0.0367	-9.7464	1.8717	0.0013	0.0045	-0.0079	-14.7003	-14.7142	1.0278	0.6077	-0.5089	0.3890	-0.4695
6.72	0.0367	-9.7581	1.8610	-0.0035	0.0063	-0.0138	-14.8062	-14.5687	1.3041	0.6077	-0.5089	0.3889	-0.4695
6.73	0.0281	-9.7361	1.8540	-0.0008	0.0046	-0.0177	-15.0352	-14.6215	1.3729	0.6077	-0.5090	0.3889	-0.4696
6.74	0.0377	-9.7288	1.8522	-0.0012	0.0093	-0.0133	-14.8315	-14.6132	1.2460	0.6076	-0.5089	0.3889	-0.4695
6.75	0.0446	-9.7202	1.8475	-0.0006	-0.0019	-0.0198	-14.4064	-14.2250	1.3683	0.6076	-0.5090	0.3889	-0.4696
6.76	0.0543	-9.7179	1.8509	-0.0036	0.0057	-0.0192	-14.3184	-14.2949	1.5215	0.6076	-0.5090	0.3889	-0.4696
6.77	0.0587	-9.7451	1.8479	-0.0061	0.0030	-0.0178	-14.7339	-14.8984	1.3611	0.6075	-0.5090	0.3888	-0.4696
6.78	0.0626	-9.7806	1.8492	-0.0033	-0.0024	-0.0156	-14.8044	-15.3380	1.1959	0.6076	-0.5092	0.3888	-0.4697
6.79	0.0714	-9.7990	1.8480	-0.0034	0.0031	-0.0131	-14.8797	-14.6793	1.2495	0.6075	-0.5092	0.3888	-0.4696
6.8	0.0815	-9.7874	1.8500	0.0027	0.0010	-0.0144	-14.8971	-14.4347	1.4367	0.6075	-0.5092	0.3888	-0.4696
6.81	0.0892	-9.7624	1.8462	0.0076	0.0016	-0.0109	-14.7845	-14.7297	1.1322	0.6075	-0.5092	0.3887	-0.4696
6.82	0.0777	-9.7520	1.8372	-0.0083	0.0064	-0.0046	-14.6795	-14.6971	0.9980	0.6075	-0.5092	0.3888	-0.4696
6.83	0.0639	-9.7528	1.8346	-0.0086	0.0080	-0.0045	-14.5577	-14.8277	0.9120	0.6075	-0.5092	0.3888	-0.4695
6.84	0.0338	-9.7436	1.8150	-0.0142	0.0071	-0.0041	-14.7946	-14.7680	1.1052	0.6074	-0.5092	0.3889	-0.4695
6.85	0.0144	-9.7410	1.8050	-0.0100	0.0058	-0.0068	-14.8832	-14.5400	1.1655	0.6075	-0.5093	0.3889	-0.4695
6.86	0.0070	-9.7389	1.8057	-0.0133	-0.0023	-0.0112	-14.7887	-14.5662	1.0653	0.6074	-0.5093	0.3889	-0.4694
6.87	0.0099	-9.7587	1.8017	-0.0177	-0.0049	-0.0058	-14.9577	-14.8076	1.0711	0.6074	-0.5094	0.3890	-0.4694
6.88	0.0187	-9.7639	1.8015	-0.0065	-0.0072	-0.0097	-14.6792	-14.8404	1.2534	0.6074	-0.5094	0.3889	-0.4693
6.89	0.0309	-9.7727	1.8004	-0.0038	-0.0097	-0.0140	-14.7141	-14.7255	1.2131	0.6075	-0.5095	0.3889	-0.4693
6.9	0.0480	-9.7869	1.8023	-0.0026	-0.0049	-0.0201	-14.8636	-14.7227	1.2375	0.6074	-0.5095	0.3888	-0.4693
6.91	0.0549	-9.7795	1.7991	0.0007	-0.0070	-0.0136	-14.8963	-14.5562	1.2036	0.6075	-0.5096	0.3888	-0.4693
6.92	0.0606	-9.7733	1.8015	0.0039	-0.0001	-0.0089	-14.7736	-14.5532	1.2398	0.6075	-0.5095	0.3887	-0.4693
6.93	0.0674	-9.7736	1.8063	0.0053	-0.0033	-0.0200	-15.0580	-14.5908	1.1763	0.6075	-0.5096	0.3887	-0.4693
6.94	0.0745	-9.7649	1.8016	0.0050	-0.0229	-0.0153	-14.8335	-14.4922	1.1383	0.6076	-0.5096	0.3886	-0.4693
6.95	0.0778	-9.7274	1.7992	0.0094	-0.0133	-0.0160	-14.7588	-14.4667	1.3602	0.6075	-0.5096	0.3884	-0.4692
6.96	0.0777	-9.7102	1.8096	0.0009	-0.0196	-0.0061	-14.9323	-14.5684	1.2603	0.6077	-0.5097	0.3884	-0.4692
6.97	0.0886	-9.7536	1.8183	-0.0004	-0.0134	-0.0119	-14.9710	-14.7365	1.2530	0.6077	-0.5097	0.3883	-0.4691
6.98	0.1076	-9.7959	1.8216	-0.0023	-0.0039	-0.0095	-14.9867	-14.4026	1.3406	0.6078	-0.5098	0.3883	-0.4692
6.99	0.1269	-9.7985	1.8337	0.0114	-0.0096	-0.0098	-14.8717	-14.4674	1.1962	0.6077	-0.5097	0.3882	-0.4691
7	0.1419	-9.7806	1.8258	0.0108	-0.0089	-0.0104	-14.7746	-14.8255	1.3535	0.6078	-0.5097	0.3882	-0.4691
7.01	0.1589	-9.7655	1.8357	0.0075	-0.0128	-0.0082	-14.7990	-14.8665	1.1016	0.6079	-0.5097	0.3881	-0.4691
7.02	0.1529	-9.7639	1.8405	0.0151	-0.0036	-0.0054	-14.7988	-14.9536	1.2428	0.6079	-0.5096	0.3880	-0.4690
7.03	0.1323	-9.7597	1.8345	0.0151	0.0058	-0.0033	-14.7966	-14.7809	1.2130	0.6081	-0.5096	0.3881	-0.4691
7.04	0.1104	-9.7434	1.8386	0.0145	0.0234	-0.0035	-14.6748	-14.7375	1.1154	0.6081	-0.5095	0.3881	-0.4691
7.05	0.0828	-9.7378	1.8315	0.0180	0.0252	-0.0027	-14.9870	-14.7403	1.1312	0.6081	-0.5094	0.3881	-0.4692
7.06	0.0687	-9.7323	1.8346	0.0211	0.0283	-0.0037	-14.8750	-14.7519	1.1436	0.6081	-0.5092	0.3881	-0.4693
7.07	0.0556	-9.7243	1.8375	0.0182	0.0306	-0.0037	-14.7818	-14.7273	0.9772	0.6082	-0.5091	0.3882	-0.4694
7.08	0.0391	-9.7173	1.8381	0.0135	0.0295	-0.0029	-14.7861	-14.7754	0.9962	0.6082	-0.5089	0.3883	-0.4695
7.09	0.0248	-9.7132	1.8323	0.0094	0.0330	-0.0099	-14.8620	-14.5865	1.3598	0.6081	-0.5088	0.3883	-0.4695
7.1	0.0148	-9.7131	1.8233	0.0007	0.0388	-0.0163	-14.9918	-14.4452	1.1727	0.6081	-0.5087	0.3884	-0.4697
7.11	0.0039	-9.7282	1.8160	-0.0026	0.0325	-0.0130	-14.9645	-14.6268	1.2792	0.6080	-0.5086	0.3885	-0.4697
7.12	-0.0012	-9.7509	1.8127	0.0003	0.0323	-0.0136	-14.7626	-14.6685	1.2906	0.6080	-0.5086	0.3886	-0.4699
7.13	-0.0056	-9.7644	1.8090	-0.0002	0.0265	-0.0167	-14.9676	-14.5707	1.0882	0.6079	-0.5085	0.3886	-0.4699
7.14	-0.0063	-9.7694	1.8027	-0.0017	0.0253	-0.0165	-15.0750	-14.4406	1.2745	0.6079	-0.5085	0.3887	-0.4700
7.15	0.0065	-9.7748	1.8051	0.0014	0.0149	-0.0074	-14.7307	-14.5256	1.2980	0.6079	-0.5084	0.3887	-0.4700
7.16	0.0062	-9.7797	1.8047	0.0039	0.0105	-0.0058	-14.6729	-14.6001	1.1045	0.6079	-0.5084	0.3887	-0.4701
7.17	0.0121	-9.7811	1.8062	0.0121	0.0156	-0.0063	-14.9018	-14.4421	1.2449	0.6079	-0.5083	0.3887	-0.4701
7.18	0.0191	-9.7929	1.8171	0.0120	0.0069	-0.0040	-14.9917	-14.5122	1.0577	0.6079	-0.5082	0.3888	-0.4701
7.19	0.0185	-9.7952	1.8245	0.0209	0.0047	-0.0041	-14.7358	-14.6071	1.0584	0.6080	-0.5082	0.3887	-0.4701
7.2	0.0262	-9.7930	1.8315	0.0249	-0.0042	-0.0045	-14.6315	-14.8383	1.2690	0.6080	-0.5080	0.3887	-0.4701
7.21	0.0278	-9.7914	1.8357	0.0209	0.0041	-0.0034	-14.4739	-14.7187	1.1854	0.6082	-0.5080	0.3887	-0.4702
7.22	0.0244	-9.7803	1.8358	0.0232	0.0102	-0.0031	-14.6185	-14.6018	1.1384	0.6082	-0.5079	0.3886	-0.4702
7.23	0.0204	-9.7742	1.8382	0.0213	0.0067	-0.0031	-14.7528	-14.5264	1.0567	0.6084	-0.5078	0.3887	-0.4702
7.24	0.0181	-9.7701	1.8344	0.0214	0.0062	-0.0040	-14.5297	-14.6883	1.0285	0.6083	-0.5077	0.3886	-0.4702
7.25	0.0170	-9.7756	1.8398	0.0199	0.0165	-0.0037	-14.2239	-14.5838	1.2929	0.6084	-0.5076	0.3886	-0.4703
7.26	0.0081	-9.7711	1.8414	0.0241	0.0104	-0.0045	-14.1154	-14.5743	1.3501	0.6085	-0.5075	0.3886	-0.4703
7.27	0.0021	-9.7692	1.8399	0.0246	0.0177	-0.0027	-14.7110	-15.0016	1.5098	0.6085	-0.5073	0.3886	-0.4704
7.28	0.0002	-9.7573	1.8487	0.0249	0.0101	-0.0095	-14.7118	-15.5527	1.1841	0.6087	-0.5073	0.3886	-0.4705
7.29	-0.0099	-9.7424	1.8519	0.0245	0.0104	-0.0088	-14.7154	-14.6783	1.1947	0.6087	-0.5071	0.3885	-0.4705
7.3	-0.0176	-9.7240	1.8567	0.0263	0.0112	-0.0059	-14.7380	-14.4718	1.2687	0.6088	-0.5070	0.3885	-0.4706
7.31	-0.0176	-9.7057	1.8742	0.0260	0.0066	-0.0074	-14.7222	-14.5289	1.2332	0.6088	-0.5068	0.3884	-0.4706
7.32	-0.0184	-9.7043	1.8803	0.0259	0.0071	-0.0086	-14.8488	-14.5548	1.2547	0.6089	-0.5068	0.3884	-0.4707
7.33	-0.0137	-9.6904	1.8879	0.0262	0.0042	-0.0106	-14.9410	-14.3860	1.2318	0.6090	-0.5067	0.3884	-0.4707
7.34	-0.0025	-9.6917	1.8927	0.0252	0.0015	-0.0044	-14.8031	-14.5314	1.2518	0.6091	-0.5066	0.3883	-0.4707
7.35	0.0026	-9.6938	1.8959	0.0191	0.0000	-0.0120	-14.9332	-14.5934	1.2403	0.6092	-0.5065	0.3883	-0.4708
7.36	0.0010	-9.7013	1.9012	0.0198	0.0096	-0.0140	-14.8844	-14.5450	1.1141	0.6092	-0.5064	0.3882	-0.4708
7.37	-0.0045	-9.7139	1.8962	0.0170	0.0020	-0.0081	-14.7527	-14.6205	1.2243	0.6093	-0.5064	0.3882	-0.4709
7.38	0.0077	-9.7163	1.8967	0.0115	-0.0058	-0.0119	-14.6331	-14.7689	1.2776	0.6093	-0.5063	0.3881	-0.4708
7.39	0.0134	-9.7023	1.8965	0.0089	-0.0020	-0.0113	-14.6507	-14.5994	1.1021	0.6094	-0.5063	0.3881	-0.4709
7.4	0.0181	-9.7038	1.8954	0.0054	-0.0008	-0.0053	-14.6188	-14.5989	1.0660	0.6094	-0.5063	0.3881	-0.4708
7.41	0.0183	-9.7373	1.8967	0.0010	0.0002	-0.0071	-14.7192	-14.7063	1.0397	0.6094	-0.5063	0.3881	-0.4708
7.42	0.0262	-9.7748	1.9034	0.0027	-0.0046	-0.0057	-14.7376	-14.4433	1.1902	0.6094	-0.5063	0.3881	-0.4708
7.43	0.0366	-9.7915	1.9079	0.0021	-0.0060	-0.0099	-14.7215	-14.5053	0.9552	0.6095	-0.5063	0.3881	-0.4708
7.44	0.0480	-9.7830	1.8986	0.0158	-0.0034	-0.0034	-14.7370	-14.6169	0.8843	0.6095	-0.5063	0.3881	-0.4707
7.45	0.0572	-9.7559	1.9044	0.0137	0.0017	-0.0060	-14.7263	-14.4359	1.0901	0.6095	-0.5062	0.3880	-0.4707
7.46	0.0543	-9.7267	1.8982	0.0102	0.0002	-0.0085	-14.6279	-14.6426	1.0413	0.6097	-0.5062	0.3880	-0.4708
7.47	0.0372	-9.7115	1.8879	0.0124	0.0171	-0.0049	-14.6567	-14.5769	1.2590	0.6097	-0.5061	0.3880	-0.4708
7.48	0.0126	-9.7107	1.8851	0.0033	0.0194	-0.0034	-14.8807	-14.4281	1.4381	0.6097	-0.5060	0.3881	-0.4708
7.49	-0.0165	-9.7097	1.8794	0.0084	0.0212	-0.0054	-14.9377	-14.5894	1.3490	0.6096	-0.5059	0.3881	-0.4708
7.5	-0.0409	-9.7015	1.8772	0.0029	0.0198	-0.0064	-14.8565	-14.4459	1.0532	0.6097	-0.5059	0.3882	-0.4709
7.51	-0.0519	-9.6928	1.8798	-0.0022	0.0104	-0.0059	-14.8182	-14.4980	1.3081	0.6097	-0.5058	0.3883	-0.4709
7.52	-0.0634	-9.6902	1.8726	-0.0010	-0.0019	-0.0187	-14.8049	-14.4589	1.3218	0.6096	-0.5058	0.3882	-0.4708
7.53	-0.0567	-9.7119	1.8723	-0.0077	-0.0048	-0.0221	-14.8568	-14.5840	1.3838	0.6097	-0.5059	0.3883	-0.4709
7.54	-0.0476	-9.7288	1.8684	-0.0112	-0.0054	-0.0181	-14.8810	-14.5550	1.2136	0.6096	-0.5059	0.3882	-0.4708
7.55	-0.0433	-9.7499	1.8703	-0.0095	-0.0130	-0.0213	-14.8067	-14.6001	0.9831	0.6096	-0.5061	0.3882	-0.4708
7.56	-0.0352	-9.7689	1.8631	-0.0141	-0.0144	-0.0193	-14.7493	-14.8749	1.1939	0.6095	-0.5061	0.3881	-0.4707
7.57	-0.0196	-9.7835	1.8603	-0.0029	-0.0196	-0.0190	-14.6078	-14.6589	1.0360	0.6096	-0.5062	0.3881	-0.4707
7.58	0.0049	-9.7920	1.8637	-0.0060	-0.0250	-0.0208	-14.6655	-14.7217	1.2567	0.6096	-0.5063	0.3880	-0.4706
7.59	0.0240	-9.7668	1.8519	-0.0037	-0.0299	-0.0231	-14.6134	-14.6776	1.2421	0.6096	-0.5064	0.3879	-0.4706
7.6	0.0356	-9.7242	1.8510	0.0071	-0.0309	-0.0245	-14.7568	-14.5496	1.2613	0.6097	-0.5065	0.3878	-0.4705
7.61	0.0519	-9.7521	1.8600	-0.0014	-0.0401	-0.0229	-14.8289	-14.5487	1.0781	0.6097	-0.5066	0.3876	-0.4704
7.62	0.0788	-9.7934	1.8680	0.0013	-0.0353	-0.0228	-14.8180	-14.6531	1.0834	0.6098	-0.5068	0.3875	-0.4704
7.63	0.1155	-9.7895	1.8840	0.0144	-0.0367	-0.0184	-14.8193	-14.5677	1.3716	0.6098	-0.5068	0.3873	-0.4703
7.64	0.1341	-9.7618	1.8801	0.0217	-0.0335	-0.0176	-14.7117	-14.4780	1.2000	0.6100	-0.5069	0.3872	-0.4703
7.65	0.1545	-9.7193	1.8954	0.0216	-0.0277	-0.0163	-14.8990	-14.6001	1.1379	0.6101	-0.5069	0.3870	-0.4702
7.66	0.1572	-9.7155	1.8958	0.0191	-0.0129	-0.0122	-14.9158	-14.5550	1.1591	0.6102	-0.5069	0.3869	-0.4702
7.67	0.1446	-9.7218	1.8986	0.0106	-0.0092	-0.0063	-14.9080	-14.5592	1.2293	0.6102	-0.5068	0.3868	-0.4702
7.68	0.1264	-9.7168	1.8983	0.0091	0.0064	-0.0038	-14.7740	-14.5895	1.2896	0.6103	-0.5068	0.3869	-0.4702
7.69	0.1003	-9.7198	1.8972	0.0026	0.0093	-0.0044	-14.6888	-14.4898	1.3447	0.6103	-0.5067	0.3869	-0.4702
7.7	0.0771	-9.7068	1.8899	-0.0041	0.0107	-0.0020	-14.8407	-14.4881	1.3522	0.6103	-0.5067	0.3869	-0.4701
7.71	0.0630	-9.7028	1.8895	-0.0018	0.0194	-0.0073	-14.6833	-14.4406	1.1929	0.6103	-0.5067	0.3871	-0.4702
7.72	0.0500	-9.7106	1.8845	-0.0088	0.0156	-0.0083	-14.6462	-14.5708	1.1874	0.6102	-0.5066	0.3871	-0.4702
7.73	0.0335	-9.7226	1.8730	-0.0051	0.0192	-0.0128	-14.8424	-14.6875	1.2635	0.6102	-0.5066	0.3872	-0.4702
7.74	0.0256	-9.7330	1.8745	-0.0066	0.0215	-0.0099	-14.6563	-14.4985	1.3313	0.6101	-0.5065	0.3873	-0.4702
7.75	0.0185	-9.7374	1.8775	-0.0105	0.0171	-0.0066	-14.2129	-14.2606	1.3335	0.6101	-0.5066	0.3874	-0.4702
7.76	0.0082	-9.7398	1.8699	-0.0045	0.0137	-0.0107	-14.1780	-14.3045	1.1433	0.6101	-0.5065	0.3874	-0.4702
7.77	0.0068	-9.7435	1.8695	-0.0055	0.0129	-0.0106	-14.5532	-14.9746	1.0490	0.6100	-0.5065	0.3875	-0.4702
7.78	0.0089	-9.7519	1.8637	-0.0141	0.0106	-0.0105	-14.6040	-15.6651	1.1926	0.6101	-0.5066	0.3876	-0.4702
7.79	0.0100	-9.7502	1.8578	-0.0087	0.0113	-0.0117	-14.6736	-14.7928	0.9798	0.6100	-0.5065	0.3876	-0.4702
7.8	0.0152	-9.7486	1.8548	-0.0125	0.0017	-0.0139	-14.7635	-14.3598	0.7912	0.6100	-0.5066	0.3877	-0.4702
7.81	0.0203	-9.7580	1.8458	-0.0145	0.0003	-0.0131	-14.7772	-14.8144	1.1150	0.6099	-0.5066	0.3877	-0.4701
7.82	0.0298	-9.7656	1.8377	-0.0004	0.0032	-0.0072	-14.9073	-14.6766	1.1220	0.6099	-0.5066	0.3877	-0.4701
7.83	0.0350	-9.7643	1.8376	-0.0018	-0.0029	-0.0062	-14.9647	-14.5575	0.8831	0.6099	-0.5066	0.3877	-0.4701
7.84	0.0368	-9.7784	1.8402	-0.0073	-0.0032	-0.0039	-14.7135	-14.3420	1.1377	0.6099	-0.5067	0.3877	-0.4700
7.85	0.0402	-9.7817	1.8384	-0.0007	0.0000	-0.0070	-15.0278	-14.3781	1.1709	0.6100	-0.5067	0.3878	-0.4700
7.86	0.0404	-9.7845	1.8368	-0.0011	0.0083	-0.0052	-14.8562	-14.5107	1.2430	0.6099	-0.5067	0.3878	-0.4699
7.87	0.0397	-9.7792	1.8430	0.0014	0.0046	-0.0053	-15.0129	-14.5374	1.2810	0.6100	-0.5067	0.3879	-0.4699
7.88	0.0331	-9.7788	1.8418	0.0023	0.0085	-0.0032	-14.9804	-14.2439	1.0396	0.6099	-0.5066	0.3879	-0.4699
7.89	0.0266	-9.7760	1.8349	0.0022	0.0133	-0.0040	-14.8301	-14.4217	0.8520	0.6100	-0.5066	0.3880	-0.4699
7.9	0.0214	-9.7664	1.8338	-0.0009	0.0158	-0.0034	-15.0319	-14.2884	1.1748	0.6100	-0.5065	0.3880	-0.4699
7.91	0.0087	-9.7628	1.8335	0.0032	0.0196	-0.0037	-14.8347	-14.0712	1.1142	0.6100	-0.5065	0.3881	-0.4699
7.92	0.0039	-9.7583	1.8342	0.0153	0.0135	-0.0031	-14.8975	-14.2180	1.1654	0.6100	-0.5064	0.3881	-0.4699
7.93	-0.0129	-9.7491	1.8402	0.0167	0.0155	-0.0016	-14.9326	-14.4258	1.1116	0.6100	-0.5063	0.3882	-0.4700
7.94	-0.0221	-9.7417	1.8518	0.0255	0.0111	-0.0041	-14.8530	-14.6942	1.0116	0.6101	-0.5062	0.3882	-0.4700
7.95	-0.0287	-9.7279	1.8470	0.0243	0.0077	-0.0034	-14.8799	-14.7323	0.8481	0.6101	-0.5060	0.3881	-0.4700
7.96	-0.0280	-9.7213	1.8563	0.0243	0.0077	-0.0041	-14.7679	-14.7247	0.8102	0.6103	-0.5060	0.3882	-0.4701
7.97	-0.0258	-9.7151	1.8800	0.0242	0.0083	-0.0038	-14.9211	-14.7125	1.0238	0.6103	-0.5058	0.3881	-0.4701
7.98	-0.0243	-9.7093	1.8858	0.0254	0.0148	-0.0121	-14.7933	-14.5126	1.1984	0.6104	-0.5058	0.3882	-0.4702
7.99	-0.0217	-9.7085	1.8904	0.0237	0.0100	-0.0056	-14.6769	-14.6593	1.3655	0.6104	-0.5056	0.3881	-0.4701
8	-0.0330	-9.7186	1.8973	0.0194	0.0051	-0.0068	-14.7050	-14.6019	0.9573	0.6105	-0.5056	0.3881	-0.4702
8.01	-0.0407	-9.7050	1.8854	0.0140	0.0070	-0.0115	-14.6629	-14.5369	1.1706	0.6105	-0.5055	0.3881	-0.4702
8.02	-0.0372	-9.6914	1.8782	0.0010	-0.0052	-0.0073	-14.7846	-14.5021	1.0779	0.6105	-0.5055	0.3881	-0.4702
8.03	-0.0276	-9.6841	1.8745	0.0006	-0.0031	-0.0163	-14.7561	-14.2194	0.9262	0.6106	-0.5056	0.3881	-0.4702
8.04	-0.0162	-9.7082	1.8771	-0.0113	-0.0018	-0.0148	-14.9725	-14.5070	1.0088	0.6105	-0.5056	0.3881	-0.4701
8.05	-0.0119	-9.7626	1.8758	-0.0239	-0.0041	-0.0092	-15.0885	-14.5174	1.0909	0.6105	-0.5057	0.3882	-0.4701
8.06	0.0014	-9.8036	1.8716	-0.0109	-0.0063	-0.0137	-14.9549	-14.3296	0.9330	0.6104	-0.5057	0.3882	-0.4700
8.07	0.0141	-9.7933	1.8697	-0.0004	-0.0047	-0.0122	-14.9368	-14.5156	1.1069	0.6105	-0.5058	0.3882	-0.4700
8.08	0.0321	-9.7693	1.8651	-0.0009	-0.0053	-0.0072	-14.8490	-14.5543	0.9819	0.6105	-0.5058	0.3882	-0.4699
8.09	0.0421	-9.7498	1.8650	-0.0008	-0.0008	-0.0115	-14.8758	-14.5548	1.0286	0.6105	-0.5058	0.3882	-0.4699
8.1	0.0366	-9.7306	1.8645	0.0014	0.0020	-0.0084	-14.8719	-14.4473	1.0728	0.6105	-0.5058	0.3882	-0.4699
8.11	0.0215	-9.7198	1.8549	-0.0033	0.0091	-0.0036	-14.9737	-14.3302	1.1650	0.6105	-0.5058	0.3883	-0.4698
8.12	-0.0070	-9.7089	1.8511	0.0017	0.0132	-0.0035	-14.9566	-14.4744	1.1222	0.6105	-0.5058	0.3883	-0.4699
8.13	-0.0288	-9.7078	1.8389	-0.0088	0.0133	-0.0045	-14.8853	-14.7474	1.2643	0.6104	-0.5057	0.3884	-0.4698
8.14	-0.0521	-9.7208	1.8326	-0.0072	0.0105	-0.0045	-14.7411	-14.7037	1.1186	0.6105	-0.5057	0.3885	-0.4698
8.15	-0.0579	-9.7384	1.8328	-0.0154	0.0054	-0.0099	-14.6637	-14.7439	1.0458	0.6104	-0.5058	0.3885	-0.4697
8.16	-0.0578	-9.7684	1.8293	-0.0218	0.0002	-0.0106	-14.7693	-14.6486	1.0807	0.6104	-0.5058	0.3886	-0.4697
8.17	-0.0500	-9.7907	1.8239	-0.0124	-0.0064	-0.0150	-14.7915	-14.6157	0.9610	0.6103	-0.5059	0.3886	-0.4696
8.18	-0.0447	-9.8027	1.8247	-0.0055	-0.0107	-0.0153	-14.8936	-14.9021	0.9692	0.6103	-0.5060	0.3886	-0.4696
8.19	-0.0372	-9.7964	1.8218	-0.0003	-0.0213	-0.0170	-14.8519	-14.6572	1.0073	0.6103	-0.5061	0.3885	-0.4695
8.2	-0.0269	-9.7981	1.8216	0.0021	-0.0139	-0.0198	-14.8904	-14.6326	1.1683	0.6103	-0.5061	0.3884	-0.4695
8.21	-0.0135	-9.7979	1.8255	0.0047	-0.0241	-0.0087	-14.7286	-14.6219	1.1481	0.6104	-0.5062	0.3884	-0.4695
8.22	0.0064	-9.7849	1.8332	0.0105	-0.0284	-0.0163	-14.8698	-14.3693	0.9997	0.6105	-0.5062	0.3883	-0.4694
8.23	0.0167	-9.7508	1.8268	0.0026	-0.0229	-0.0211	-15.0224	-14.3723	1.1916	0.6105	-0.5063	0.3882	-0.4694
8.24	0.0300	-9.7340	1.8455	0.0133	-0.0199	-0.0196	-14.6697	-14.2998	1.3687	0.6105	-0.5063	0.3881	-0.4693
8.25	0.0465	-9.7899	1.8476	0.0157	-0.0255	-0.0226	-14.4160	-14.2194	1.1607	0.6106	-0.5064	0.3880	-0.4693
8.26	0.0719	-9.8018	1.8634	0.0169	-0.0279	-0.0176	-14.1823	-14.2243	1.1980	0.6107	-0.5064	0.3878	-0.4692
8.27	0.0947	-9.7686	1.8758	0.0283	-0.0215	-0.0201	-14.6193	-14.7929	1.4938	0.6108	-0.5064	0.3877	-0.4692
8.28	0.1169	-9.7280	1.8781	0.0226	-0.0253	-0.0208	-14.6314	-15.2757	1.1573	0.6109	-0.5065	0.3876	-0.4693
8.29	0.1382	-9.7100	1.8970	0.0302	-0.0147	-0.0136	-14.8118	-14.6072	1.0409	0.6110	-0.5064	0.3874	-0.4692
8.3	0.1325	-9.7120	1.8995	0.0287	-0.0082	-0.0057	-15.0093	-14.3664	1.2305	0.6111	-0.5064	0.3874	-0.4693
8.31	0.1254	-9.7077	1.9145	0.0242	-0.0032	-0.0050	-14.7025	-14.7325	1.2389	0.6111	-0.5062	0.3873	-0.4692
8.32	0.1096	-9.7046	1.9122	0.0238	0.0059	-0.0024	-14.6831	-14.7491	1.1151	0.6112	-0.5062	0.3873	-0.4692
8.33	0.0879	-9.7035	1.9172	0.0061	0.0116	-0.0052	-14.7679	-14.7630	1.1807	0.6113	-0.5061	0.3873	-0.4692
8.34	0.0666	-9.7012	1.9119	0.0028	0.0171	-0.0054	-14.7433	-14.7697	1.0270	0.6112	-0.5061	0.3874	-0.4692
8.35	0.0480	-9.6940	1.9084	0.0025	0.0191	-0.0037	-14.7413	-14.6664	1.1903	0.6112	-0.5060	0.3875	-0.4693
8.36	0.0263	-9.6937	1.9088	-0.0015	0.0248	-0.0044	-14.7757	-14.5556	0.9111	0.6112	-0.5060	0.3876	-0.4693
8.37	0.0065	-9.6922	1.9008	-0.0067	0.0216	-0.0055	-14.8726	-14.6198	0.9088	0.6112	-0.5059	0.3877	-0.4693
8.38	-0.0151	-9.6984	1.8901	-0.0124	0.0197	-0.0030	-14.7369	-14.4749	0.9671	0.6111	-0.5059	0.3878	-0.4692
8.39	-0.0339	-9.7150	1.8806	-0.0081	0.0197	-0.0039	-14.6366	-14.5276	0.9634	0.6111	-0.5059	0.3879	-0.4693
8.4	-0.0462	-9.7317	1.8722	-0.0134	0.0206	-0.0077	-14.6931	-14.5816	1.0659	0.6110	-0.5059	0.3880	-0.4692
8.41	-0.0474	-9.7344	1.8663	-0.0141	0.0209	-0.0086	-14.8357	-14.3764	1.0910	0.6109	-0.5059	0.3881	-0.4692
8.42	-0.0488	-9.7350	1.8623	-0.0182	0.0071	-0.0114	-14.8310	-14.5169	1.2481	0.6109	-0.5059	0.3882	-0.4692
8.43	-0.0440	-9.7415	1.8525	-0.0215	0.0130	-0.0083	-14.9649	-14.6061	1.3633	0.6108	-0.5060	0.3883	-0.4692
8.44	-0.0304	-9.7522	1.8522	-0.0144	0.0023	-0.0118	-14.8620	-14.5390	1.4170	0.6108	-0.5060	0.3884	-0.4691
8.45	-0.0169	-9.7612	1.8475	-0.0140	-0.0010	-0.0110	-14.8048	-14.3890	1.0859	0.6107	-0.5061	0.3884	-0.4690
8.46	-0.0011	-9.7643	1.8497	-0.0065	-0.0010	-0.0064	-14.9698	-14.5276	1.1808	0.6108	-0.5062	0.3885	-0.4690
8.47	0.0158	-9.7684	1.8490	0.0004	-0.0008	-0.0086	-15.0005	-14.6258	1.2062	0.6107	-0.5061	0.3885	-0.4690
8.48	0.0198	-9.7801	1.8490	-0.0027	-0.0031	-0.0098	-14.8304	-14.5080	1.0942	0.6108	-0.5062	0.3885	-0.4690
8.49	0.0228	-9.7871	1.8432	0.0007	-0.0063	-0.0054	-14.8452	-14.4894	1.2592	0.6107	-0.5062	0.3884	-0.4689
8.5	0.0263	-9.7831	1.8420	0.0003	-0.0054	-0.0057	-14.7097	-14.6277	1.0957	0.6108	-0.5062	0.3885	-0.4688
8.51	0.0217	-9.7868	1.8413	0.0007	0.0018	-0.0053	-14.7895	-14.7332	1.1925	0.6108	-0.5062	0.3885	-0.4688
8.52	0.0175	-9.7766	1.8415	0.0013	0.0062	-0.0036	-14.6294	-14.7941	1.0098	0.6108	-0.5062	0.3885	-0.4688
8.53	0.0096	-9.7663	1.8420	0.0072	0.0093	-0.0100	-14.7928	-14.6293	1.1999	0.6108	-0.5062	0.3886	-0.4688
8.54	-0.0015	-9.7509	1.8364	0.0043	0.0041	-0.0065	-14.6652	-14.4514	1.0193	0.6108	-0.5061	0.3886	-0.4688
8.55	-0.0078	-9.7367	1.8441	0.0113	0.0064	-0.0038	-14.7343	-14.7904	0.9897	0.6109	-0.5061	0.3886	-0.4688
8.56	-0.0165	-9.7299	1.8508	0.0130	0.0015	-0.0065	-14.7287	-14.5722	1.1651	0.6108	-0.5060	0.3886	-0.4687
8.57	-0.0272	-9.7281	1.8523	0.0099	0.0046	-0.0029	-14.8024	-14.7100	1.0319	0.6109	-0.5060	0.3886	-0.4688
8.58	-0.0316	-9.7157	1.8589	0.0181	0.0001	-0.0051	-14.7603	-14.6183	1.2027	0.6110	-0.5060	0.3886	-0.4687
8.59	-0.0320	-9.7088	1.8571	0.0060	0.0026	-0.0087	-14.5875	-14.5663	1.3422	0.6110	-0.5059	0.3886	-0.4687
8.6	-0.0248	-9.7153	1.8605	0.0037	0.0040	-0.0118	-14.8771	-14.5056	1.1967	0.6110	-0.5059	0.3886	-0.4687
8.61	-0.0166	-9.7202	1.8612	0.0071	-0.0014	-0.0094	-14.9647	-14.6101	1.1466	0.6110	-0.5059	0.3886	-0.4687
8.62	-0.0140	-9.7222	1.8678	0.0054	0.0043	-0.0174	-15.0156	-14.7534	1.2704	0.6110	-0.5059	0.3886	-0.4688
8.63	-0.0123	-9.7377	1.8694	0.0025	0.0003	-0.0124	-14.6968	-14.3569	1.2059	0.6109	-0.5059	0.3886	-0.4687
8.64	-0.0180	-9.7500	1.8637	-0.0004	0.0012	-0.0151	-14.7862	-14.5816	1.1347	0.6110	-0.5060	0.3886	-0.4687
8.65	-0.0195	-9.7313	1.8573	-0.0022	0.0008	-0.0152	-14.8403	-14.6552	1.1349	0.6110	-0.5060	0.3886	-0.4687
8.66	-0.0122	-9.7110	1.8549	-0.0053	0.0017	-0.0132	-14.8481	-14.5634	1.1432	0.6110	-0.5060	0.3886	-0.4687
8.67	-0.0009	-9.7035	1.8463	-0.0079	-0.0047	-0.0042	-14.7228	-14.5844	1.1349	0.6109	-0.5060	0.3886	-0.4686
8.68	0.0078	-9.7302	1.8481	-0.0123	-0.0041	-0.0063	-14.7801	-14.6233	1.0189	0.6109	-0.5061	0.3887	-0.4686
8.69	0.0179	-9.7885	1.8531	-0.0138	-0.0114	-0.0096	-14.6609	-14.8470	1.2804	0.6109	-0.5062	0.3887	-0.4685
8.7	0.0237	-9.8116	1.8455	-0.0078	-0.0034	-0.0071	-14.7460	-14.5608	1.0397	0.6109	-0.5062	0.3887	-0.4684
8.71	0.0389	-9.8024	1.8481	-0.0031	-0.0050	-0.0163	-14.7317	-14.5932	1.0603	0.6109	-0.5063	0.3887	-0.4684
8.72	0.0517	-9.7754	1.8384	-0.0018	0.0023	-0.0162	-14.8018	-14.8755	1.1729	0.6109	-0.5063	0.3887	-0.4684
8.73	0.0597	-9.7604	1.8355	0.0009	0.0090	-0.0095	-14.8131	-14.7702	1.1203	0.6109	-0.5063	0.3888	-0.4684
8.74	0.0502	-9.7430	1.8296	0.0015	0.0125	-0.0067	-14.4639	-14.6946	1.1506	0.6108	-0.5063	0.3888	-0.4684
8.75	0.0244	-9.7378	1.8276	-0.0003	0.0192	-0.0036	-14.3220	-14.4725	1.2534	0.6108	-0.5062	0.3889	-0.4684
8.76	-0.0033	-9.7396	1.8143	0.0057	0.0165	-0.0088	-14.4224	-14.4312	1.1807	0.6108	-0.5062	0.3889	-0.4684
8.77	-0.0374	-9.7356	1.8093	0.0016	0.0190	-0.0035	-14.6602	-14.8677	0.9438	0.6108	-0.5061	0.3890	-0.4684
8.78	-0.0581	-9.7351	1.8095	-0.0010	0.0209	-0.0134	-14.7160	-15.3220	1.2236	0.6108	-0.5062	0.3891	-0.4685
8.79	-0.0661	-9.7415	1.8076	0.0002	0.0073	-0.0144	-14.9757	-14.6662	1.0985	0.6107	-0.5061	0.3891	-0.4685
8.8	-0.0648	-9.7518	1.8052	-0.0060	-0.0027	-0.0156	-14.7521	-14.3825	1.1202	0.6107	-0.5062	0.3891	-0.4685
8.81	-0.0489	-9.7645	1.8083	-0.0036	-0.0034	-0.0208	-14.7657	-14.4885	1.1972	0.6106	-0.5062	0.3891	-0.4684
8.82	-0.0393	-9.7825	1.8024	-0.0002	-0.0045	-0.0207	-14.9071	-14.4551	1.0132	0.6107	-0.5063	0.3891	-0.4685
8.83	-0.0314	-9.7817	1.8027	-0.0010	-0.0087	-0.0174	-14.7626	-14.4058	1.3277	0.6106	-0.5063	0.3890	-0.4684
8.84	-0.0102	-9.7854	1.8111	-0.0008	-0.0258	-0.0150	-14.8996	-14.3415	1.2889	0.6107	-0.5064	0.3889	-0.4683
8.85	0.0081	-9.7814	1.8044	-0.0003	-0.0154	-0.0184	-15.0745	-14.4651	1.1224	0.6107	-0.5065	0.3889	-0.4683
8.86	0.0248	-9.7735	1.8078	0.0031	-0.0203	-0.0163	-14.8690	-14.3547	1.3314	0.6107	-0.5065	0.3888	-0.4683
8.87	0.0323	-9.7317	1.7962	0.0107	-0.0214	-0.0121	-14.8394	-14.5467	1.1013	0.6108	-0.5066	0.3887	-0.4682
8.88	0.0527	-9.7467	1.8137	-0.0018	-0.0240	-0.0137	-14.5670	-14.6040	1.0621	0.6108	-0.5066	0.3886	-0.4681
8.89	0.0742	-9.8067	1.8244	0.0067	-0.0224	-0.0153	-14.5153	-14.8744	1.1979	0.6109	-0.5067	0.3886	-0.4681
8.9	0.1032	-9.8152	1.8447	0.0224	-0.0250	-0.0108	-14.7836	-14.8697	1.1610	0.6110	-0.5067	0.3884	-0.4681
8.91	0.1282	-9.7681	1.8474	0.0242	-0.0200	-0.0112	-14.7752	-14.7136	1.1756	0.6111	-0.5067	0.3883	-0.4681
8.92	0.1456	-9.7170	1.8615	0.0251	-0.0088	-0.0102	-14.6875	-14.7217	1.1712	0.6111	-0.5066	0.3882	-0.4680
8.93	0.1516	-9.7072	1.8685	0.0254	-0.0032	-0.0048	-14.6526	-14.7154	1.0175	0.6112	-0.5066	0.3882	-0.4681
8.94	0.1361	-9.7126	1.8733	0.0212	0.0095	-0.0051	-14.5446	-14.7244	0.9935	0.6113	-0.5065	0.3882	-0.4681
8.95	0.1102	-9.7179	1.8806	0.0171	0.0165	-0.0029	-14.7588	-14.7159	1.2833	0.6113	-0.5064	0.3882	-0.4681
8.96	0.0851	-9.7343	1.8705	0.0040	0.0219	-0.0044	-14.9101	-14.6252	1.2466	0.6113	-0.5064	0.3883	-0.4682
8.97	0.0497	-9.7330	1.8727	0.0003	0.0342	-0.0024	-15.0912	-14.4628	1.1195	0.6112	-0.5063	0.3884	-0.4682
8.98	0.0238	-9.7346	1.8583	-0.0015	0.0298	-0.0043	-14.9548	-14.2477	1.2283	0.6112	-0.5063	0.3886	-0.4683
8.99	0.0027	-9.7357	1.8542	-0.0012	0.0333	-0.0038	-14.8585	-14.3896	1.3632	0.6111	-0.5061	0.3886	-0.4682
9	-0.0162	-9.7307	1.8485	-0.0013	0.0355	-0.0034	-14.8543	-14.3485	1.0874	0.6111	-0.5061	0.3888	-0.4683
9.01	-0.0367	-9.7285	1.8389	-0.0011	0.0301	-0.0050	-14.8645	-14.4030	1.0654	0.6110	-0.5060	0.3889	-0.4683
9.02	-0.0488	-9.7336	1.8347	-0.0086	0.0270	-0.0079	-14.8418	-14.2646	1.0557	0.6109	-0.5059	0.3890	-0.4683
9.03	-0.0623	-9.7432	1.8246	-0.0059	0.0182	-0.0071	-14.8795	-14.3050	1.1815	0.6110	-0.5060	0.3891	-0.4684
9.04	-0.0668	-9.7500	1.8246	-0.0064	0.0225	-0.0107	-15.0968	-14.5143	1.0004	0.6108	-0.5059	0.3892	-0.4684
9.05	-0.0605	-9.7641	1.8171	-0.0026	0.0117	-0.0105	-14.9579	-14.4025	1.2175	0.6109	-0.5060	0.3893	-0.4684
9.06	-0.0437	-9.7622	1.8107	0.0009	0.0063	-0.0102	-14.8807	-14.6417	1.2864	0.6108	-0.5059	0.3893	-0.4684
9.07	-0.0184	-9.7638	1.8104	0.0004	0.0022	-0.0099	-14.5929	-14.7516	0.9973	0.6108	-0.5059	0.3893	-0.4684
9.08	0.0003	-9.7756	1.8131	0.0029	-0.0013	-0.0134	-14.6425	-14.8455	0.9998	0.6108	-0.5060	0.3893	-0.4684
9.09	0.0221	-9.7807	1.8130	-0.0027	-0.0041	-0.0073	-14.6996	-14.7149	0.9584	0.6108	-0.5060	0.3893	-0.4683
9.1	0.0387	-9.7837	1.8155	-0.0004	-0.0073	-0.0073	-14.6755	-14.7259	1.1149	0.6108	-0.5060	0.3893	-0.4683
9.11	0.0460	-9.7962	1.8231	-0.0033	-0.0061	-0.0061	-14.8155	-14.5770	1.1544	0.6108	-0.5060	0.3893	-0.4683
9.12	0.0394	-9.7906	1.8251	0.0128	0.0044	-0.0043	-14.9464	-14.7424	1.0240	0.6109	-0.5060	0.3893	-0.4683
9.13	0.0274	-9.7917	1.8332	0.0147	0.0174	-0.0031	-14.8808	-14.6072	1.1880	0.6108	-0.5059	0.3893	-0.4682
9.14	0.0173	-9.7928	1.8346	0.0215	0.0170	-0.0056	-14.8271	-14.6716	1.1494	0.6109	-0.5058	0.3894	-0.4683
9.15	0.0056	-9.7874	1.8372	0.0217	0.0166	-0.0045	-14.7777	-14.5221	1.1975	0.6109	-0.5057	0.3894	-0.4684
9.16	-0.0148	-9.7702	1.8409	0.0223	0.0253	-0.0087	-14.9864	-14.4461	1.0711	0.6110	-0.5056	0.3894	-0.4685
9.17	-0.0298	-9.7529	1.8472	0.0232	0.0185	-0.0074	-14.7393	-14.4381	1.0803	0.6110	-0.5055	0.3894	-0.4685
9.18	-0.0392	-9.7386	1.8492	0.0177	0.0190	-0.0085	-14.7880	-14.3977	1.1772	0.6110	-0.5054	0.3894	-0.4686
9.19	-0.0473	-9.7237	1.8542	0.0225	0.0119	-0.0080	-14.7400	-14.6110	1.1761	0.6110	-0.5054	0.3894	-0.4687
9.2	-0.0506	-9.7077	1.8595	0.0240	0.0141	-0.0097	-14.8700	-14.4445	1.0653	0.6110	-0.5052	0.3894	-0.4687
9.21	-0.0590	-9.7007	1.8689	0.0244	0.0112	-0.0059	-14.8338	-14.3383	1.0730	0.6111	-0.5052	0.3894	-0.4688
9.22	-0.0562	-9.6811	1.8734	0.0246	0.0064	-0.0042	-14.7686	-14.4351	1.0381	0.6111	-0.5051	0.3894	-0.4688
9.23	-0.0568	-9.6795	1.8866	0.0249	0.0020	-0.0114	-14.9916	-14.4391	1.1978	0.6113	-0.5051	0.3894	-0.4689
9.24	-0.0487	-9.6861	1.8974	0.0225	-0.0041	-0.0072	-14.6945	-14.5727	1.4720	0.6112	-0.5049	0.3893	-0.4688
9.25	-0.0347	-9.6848	1.9105	0.0176	-0.0008	-0.0094	-14.1383	-14.5882	1.4447	0.6113	-0.5049	0.3893	-0.4688
9.26	-0.0322	-9.6911	1.9067	0.0230	-0.0077	-0.0152	-14.1703	-14.5461	1.2205	0.6114	-0.5049	0.3892	-0.4689
9.27	-0.0309	-9.6902	1.9086	0.0057	-0.0038	-0.0083	-14.7420	-14.8190	1.2366	0.6114	-0.5049	0.3891	-0.4688
9.28	-0.0324	-9.7078	1.8990	-0.0051	-0.0038	-0.0154	-14.8478	-15.6502	1.0947	0.6114	-0.5050	0.3892	-0.4689
9.29	-0.0333	-9.7100	1.8874	-0.0016	-0.0055	-0.0144	-14.7167	-15.0044	1.0877	0.6114	-0.5050	0.3891	-0.4688
9.3	-0.0289	-9.7143	1.8743	-0.0207	-0.0083	-0.0094	-14.8670	-14.5369	1.0911	0.6114	-0.5051	0.3892	-0.4688
9.31	-0.0207	-9.7100	1.8717	-0.0268	-0.0055	-0.0157	-14.9248	-14.7533	0.9992	0.6112	-0.5052	0.3892	-0.4686
9.32	-0.0133	-9.7250	1.8666	-0.0263	-0.0067	-0.0141	-14.9181	-14.5140	1.1920	0.6112	-0.5053	0.3892	-0.4686
9.33	-0.0084	-9.7673	1.8616	-0.0275	-0.0076	-0.0119	-15.0228	-14.6385	1.0306	0.6111	-0.5055	0.3893	-0.4685
9.34	0.0068	-9.8047	1.8675	-0.0243	-0.0105	-0.0116	-14.6993	-14.4906	1.1077	0.6111	-0.5056	0.3893	-0.4684
9.35	0.0252	-9.8112	1.8632	-0.0137	-0.0046	-0.0105	-14.7450	-14.3944	1.2374	0.6111	-0.5057	0.3893	-0.4684
9.36	0.0519	-9.7968	1.8608	-0.0068	-0.0050	-0.0206	-14.9741	-14.5530	1.2148	0.6110	-0.5057	0.3893	-0.4683
9.37	0.0616	-9.7709	1.8540	-0.0001	-0.0034	-0.0127	-14.8181	-14.5936	1.2226	0.6110	-0.5058	0.3893	-0.4683
9.38	0.0620	-9.7552	1.8462	-0.0009	0.0052	-0.0097	-14.8262	-14.5790	1.2314	0.6109	-0.5057	0.3893	-0.4683
9.39	0.0386	-9.7413	1.8424	-0.0026	0.0139	-0.0039	-14.8034	-14.4674	1.0853	0.6110	-0.5058	0.3894	-0.4683
9.4	-0.0035	-9.7290	1.8290	-0.0034	0.0203	-0.0091	-14.8632	-14.3738	1.1941	0.6109	-0.5057	0.3894	-0.4683
9.41	-0.0376	-9.7233	1.8185	-0.0052	0.0225	-0.0075	-14.9375	-14.4806	1.1708	0.6109	-0.5057	0.3895	-0.4684
9.42	-0.0605	-9.7259	1.8156	-0.0069	0.0067	-0.0057	-14.7949	-14.5995	0.9917	0.6108	-0.5057	0.3896	-0.4683
9.43	-0.0739	-9.7309	1.8126	-0.0090	0.0040	-0.0088	-14.8186	-14.5822	1.0857	0.6108	-0.5057	0.3896	-0.4683
9.44	-0.0704	-9.7418	1.8154	-0.0079	-0.0045	-0.0133	-14.4265	-14.5810	1.1449	0.6108	-0.5058	0.3896	-0.4683
9.45	-0.0622	-9.7601	1.8099	-0.0165	-0.0096	-0.0210	-14.6351	-14.5732	1.1226	0.6107	-0.5059	0.3896	-0.4682
9.46	-0.0460	-9.7773	1.8114	-0.0228	-0.0175	-0.0231	-14.8462	-14.5923	1.1263	0.6107	-0.5061	0.3896	-0.4682
9.47	-0.0360	-9.7786	1.8133	-0.0032	-0.0132	-0.0153	-14.6783	-14.7100	0.9910	0.6107	-0.5061	0.3896	-0.4681
9.48	-0.0203	-9.7900	1.8148	-0.0040	-0.0209	-0.0211	-14.8150	-14.5831	1.1366	0.6107	-0.5063	0.3895	-0.4681
9.49	0.0077	-9.7891	1.8120	-0.0091	-0.0285	-0.0168	-14.8258	-14.5829	1.1131	0.6107	-0.5063	0.3894	-0.4680
9.5	0.0265	-9.7806	1.8137	-0.0043	-0.0303	-0.0185	-14.9107	-14.6995	1.0377	0.6107	-0.5065	0.3893	-0.4679
9.51	0.0333	-9.7438	1.8061	0.0002	-0.0298	-0.0150	-14.7435	-14.4686	1.1884	0.6108	-0.5066	0.3892	-0.4678
9.52	0.0403	-9.7231	1.8090	-0.0016	-0.0300	-0.0120	-14.7094	-14.5850	1.0104	0.6108	-0.5066	0.3891	-0.4677
9.53	0.0494	-9.7782	1.8169	-0.0003	-0.0278	-0.0102	-14.7626	-14.5730	1.0591	0.6109	-0.5068	0.3891	-0.4677
9.54	0.0731	-9.8032	1.8351	-0.0024	-0.0195	-0.0115	-14.8054	-14.4647	1.1428	0.6109	-0.5068	0.3890	-0.4676
9.55	0.0900	-9.7861	1.8371	0.0061	-0.0210	-0.0189	-14.6824	-14.5146	1.3359	0.6109	-0.5069	0.3889	-0.4676
9.56	0.1065	-9.7517	1.8338	0.0164	-0.0122	-0.0181	-14.8419	-14.4652	1.1888	0.6109	-0.5069	0.3888	-0.4675
9.57	0.1267	-9.7266	1.8476	0.0126	-0.0137	-0.0125	-14.7921	-14.7584	1.1573	0.6110	-0.5069	0.3887	-0.4676
9.58	0.1191	-9.7408	1.8472	0.0092	-0.0081	-0.0080	-14.8615	-14.5222	1.2027	0.6110	-0.5069	0.3887	-0.4675
9.59	0.0884	-9.7429	1.8474	-0.0011	0.0088	-0.0052	-14.9507	-14.5536	1.0801	0.6110	-0.5069	0.3887	-0.4675
9.6	0.0680	-9.7332	1.8487	-0.0012	0.0186	-0.0039	-14.6792	-14.5928	1.2643	0.6110	-0.5069	0.3888	-0.4675
9.61	0.0442	-9.7299	1.8379	-0.0017	0.0162	-0.0048	-14.7892	-14.4471	1.0494	0.6110	-0.5069	0.3888	-0.4675
9.62	0.0261	-9.7262	1.8367	-0.0011	0.0191	-0.0038	-14.8114	-14.5588	1.0307	0.6110	-0.5068	0.3889	-0.4676
9.63	0.0165	-9.7291	1.8365	-0.0018	0.0167	-0.0063	-14.9166	-14.6766	1.0329	0.6109	-0.5068	0.3890	-0.4675
9.64	0.0022	-9.7320	1.8250	-0.0007	0.0151	-0.0050	-14.8960	-14.5534	1.0395	0.6109	-0.5068	0.3891	-0.4676
9.65	-0.0149	-9.7343	1.8189	-0.0039	0.0259	-0.0095	-14.6263	-14.6357	1.0223	0.6108	-0.5067	0.3891	-0.4676
9.66	-0.0291	-9.7395	1.8166	-0.0078	0.0186	-0.0096	-14.7038	-14.9746	1.1085	0.6108	-0.5068	0.3892	-0.4676
9.67	-0.0454	-9.7420	1.8114	-0.0055	0.0192	-0.0094	-14.8574	-14.7278	1.2547	0.6107	-0.5067	0.3893	-0.4676
9.68	-0.0577	-9.7434	1.8058	-0.0093	0.0172	-0.0083	-14.7592	-14.4070	1.0440	0.6107	-0.5067	0.3894	-0.4676
9.69	-0.0593	-9.7510	1.8022	-0.0019	0.0159	-0.0151	-14.7510	-14.4101	1.0711	0.6106	-0.5067	0.3894	-0.4677
9.7	-0.0496	-9.7561	1.8031	-0.0063	-0.0009	-0.0179	-14.9333	-14.3954	1.2381	0.6105	-0.5067	0.3894	-0.4676
9.71	-0.0390	-9.7640	1.8084	-0.0125	-0.0146	-0.0094	-14.7945	-14.5048	1.1029	0.6106	-0.5069	0.3894	-0.4676
9.72	-0.0169	-9.7663	1.8053	-0.0101	-0.0053	-0.0165	-14.8320	-14.6380	1.1546	0.6105	-0.5069	0.3894	-0.4676
9.73	0.0002	-9.7754	1.7988	-0.0038	0.0017	-0.0133	-14.8116	-14.6890	1.3364	0.6106	-0.5070	0.3894	-0.4676
9.74	0.0158	-9.7799	1.7947	-0.0040	-0.0006	-0.0178	-14.7596	-14.4945	1.2839	0.6104	-0.5070	0.3894	-0.4675
9.75	0.0342	-9.7725	1.7995	-0.0022	-0.0044	-0.0153	-14.2987	-14.4523	1.3780	0.6105	-0.5071	0.3894	-0.4675
9.76	0.0342	-9.7817	1.7964	-0.0011	-0.0049	-0.0044	-14.0700	-14.3652	1.3221	0.6105	-0.5071	0.3894	-0.4675
9.77	0.0360	-9.7840	1.7950	-0.0004	-0.0010	-0.0050	-14.6457	-14.4496	1.0279	0.6104	-0.5071	0.3894	-0.4674
9.78	0.0287	-9.7862	1.7956	-0.0018	-0.0010	-0.0040	-14.5541	-15.1353	1.2002	0.6105	-0.5072	0.3894	-0.4675
9.79	0.0209	-9.7967	1.8017	-0.0007	-0.0031	-0.0055	-14.6927	-14.7494	1.1770	0.6105	-0.5071	0.3894	-0.4674
9.8	0.0118	-9.7898	1.8028	-0.0019	-0.0013	-0.0042	-15.0710	-14.3325	1.1288	0.6105	-0.5072	0.3895	-0.4674
9.81	0.0041	-9.7793	1.8018	0.0083	0.0057	-0.0043	-14.6736	-14.7269	0.9406	0.6105	-0.5071	0.3894	-0.4673
9.82	-0.0051	-9.7688	1.8081	0.0088	0.0016	-0.0050	-14.6152	-14.7182	1.0484	0.6106	-0.5071	0.3895	-0.4673
9.83	-0.0176	-9.7554	1.8146	0.0117	-0.0022	-0.0062	-14.6276	-14.7680	1.2185	0.6106	-0.5071	0.3894	-0.4673
9.84	-0.0200	-9.7416	1.8093	0.0212	0.0038	-0.0025	-14.6097	-14.6617	0.8397	0.6106	-0.5070	0.3894	-0.4673
9.85	-0.0245	-9.7406	1.8103	0.0205	0.0034	-0.0084	-14.7238	-14.5471	1.1410	0.6107	-0.5070	0.3894	-0.4674
9.86	-0.0249	-9.7365	1.8109	0.0210	-0.0046	-0.0045	-14.8402	-14.5704	1.2792	0.6108	-0.5069	0.3893	-0.4674
9.87	-0.0251	-9.7258	1.8139	0.0128	0.0115	-0.0042	-14.9204	-14.5462	1.0591	0.6108	-0.5069	0.3894	-0.4674
9.88	-0.0259	-9.7225	1.8184	0.0171	0.0082	-0.0076	-14.7673	-14.6512	1.0979	0.6108	-0.5068	0.3893	-0.4674
9.89	-0.0250	-9.7334	1.8224	0.0197	-0.0002	-0.0090	-14.9434	-14.6539	0.8289	0.6109	-0.5068	0.3893	-0.4674
9.9	-0.0206	-9.7476	1.8305	0.0082	0.0067	-0.0092	-14.7826	-14.7967	0.9858	0.6109	-0.5067	0.3893	-0.4674
9.91	-0.0166	-9.7483	1.8274	0.0026	0.0033	-0.0120	-14.6573	-14.3116	1.2011	0.6109	-0.5068	0.3893	-0.4675
9.92	-0.0240	-9.7339	1.8227	0.0120	0.0065	-0.0094	-14.8334	-14.2798	1.0479	0.6109	-0.5067	0.3893	-0.4675
9.93	-0.0286	-9.7542	1.8207	0.0001	0.0137	-0.0144	-14.7603	-14.5552	0.9709	0.6108	-0.5067	0.3893	-0.4675
9.94	-0.0277	-9.7509	1.8075	-0.0010	0.0051	-0.0158	-14.8726	-14.5725	1.1888	0.6108	-0.5067	0.3893	-0.4675
9.95	-0.0241	-9.7323	1.8107	-0.0011	-0.0002	-0.0179	-14.8860	-14.4895	1.0678	0.6107	-0.5067	0.3893	-0.4675
9.96	-0.0192	-9.7354	1.7983	-0.0006	0.0025	-0.0214	-14.9924	-14.3624	1.0743	0.6108	-0.5068	0.3893	-0.4676
9.97	-0.0109	-9.7312	1.8051	-0.0005	-0.0002	-0.0180	-15.1066	-14.2622	1.0487	0.6107	-0.5068	0.3893	-0.4676
9.98	-0.0056	-9.7639	1.8112	-0.0020	-0.0043	-0.0150	-14.9537	-14.3902	1.1136	0.6107	-0.5069	0.3893	-0.4676
9.99	-0.0001	-9.8011	1.8159	0.0046	-0.0040	-0.0145	-14.5691	-14.3776	0.8469	0.6107	-0.5069	0.3892	-0.4675
10	0.0178	-9.8259	1.8163	0.0015	-0.0014	-0.0215	-14.7782	-14.5295	1.0684	0.6107	-0.5069	0.3892	-0.4676
10.01	0.0339	-9.8094	1.8188	0.0169	-0.0089	-0.0101	-14.7744	-14.7355	1.0136	0.6107	-0.5069	0.3891	-0.4676
10.02	0.0494	-9.7773	1.8107	0.0126	-0.0010	-0.0174	-14.5971	-14.7638	1.0656	0.6107	-0.5069	0.3891	-0.4675
10.03	0.0470	-9.7419	1.8112	0.0104	0.0080	-0.0104	-14.6422	-14.6066	1.0894	0.6108	-0.5069	0.3891	-0.4676
10.04	0.0347	-9.7356	1.8111	0.0148	0.0149	-0.0042	-14.5941	-14.5856	0.7878	0.6108	-0.5068	0.3891	-0.4676
10.05	-0.0029	-9.7262	1.8071	0.0035	0.0150	-0.0040	-14.6904	-14.6900	0.8438	0.6108	-0.5068	0.3892	-0.4677
10.06	-0.0508	-9.7059	1.7979	0.0060	0.0084	-0.0040	-14.7820	-14.5553	1.1052	0.6107	-0.5067	0.3892	-0.4676
10.07	-0.0565	-9.7398	1.7925	-0.0012	-0.0023	-0.0047	-14.8336	-14.4346	1.0474	0.6108	-0.5068	0.3892	-0.4676
10.08	-0.0747	-9.7559	1.7904	-0.0008	-0.0050	-0.0046	-14.8685	-14.7384	1.1450	0.6108	-0.5068	0.3892	-0.4676
10.09	-0.0652	-9.7682	1.7844	-0.0014	-0.0105	-0.0142	-14.7028	-14.6139	1.1293	0.6108	-0.5068	0.3892	-0.4675
10.1	-0.0492	-9.7537	1.7875	-0.0012	-0.0150	-0.0165	-14.6909	-14.3521	0.9334	0.6108	-0.5069	0.3891	-0.4675
10.11	-0.0265	-9.7716	1.7910	-0.0009	-0.0186	-0.0195	-14.9011	-14.2609	1.0419	0.6108	-0.5070	0.3890	-0.4675
10.12	-0.0161	-9.7824	1.7846	-0.0012	-0.0149	-0.0263	-15.1903	-14.3999	1.2819	0.6108	-0.5071	0.3890	-0.4675
10.13	0.0089	-9.7855	1.7940	0.0058	-0.0204	-0.0189	-15.1328	-14.2730	1.1593	0.6108	-0.5071	0.3888	-0.4674
10.14	0.0293	-9.7960	1.7960	0.0084	-0.0156	-0.0241	-15.0643	-14.4618	1.1568	0.6108	-0.5072	0.3888	-0.4674
10.15	0.0496	-9.7900	1.8011	0.0159	-0.0226	-0.0213	-15.0378	-14.5476	1.1739	0.6109	-0.5072	0.3886	-0.4674
10.16	0.0664	-9.7510	1.7932	0.0259	-0.0167	-0.0198	-14.8743	-14.4533	1.1548	0.6110	-0.5073	0.3885	-0.4675
10.17	0.0677	-9.7056	1.7923	0.0215	-0.0188	-0.0129	-14.8888	-14.4729	1.1931	0.6110	-0.5072	0.3884	-0.4674
10.18	0.0683	-9.7442	1.8089	0.0115	-0.0183	-0.0115	-14.8754	-14.5134	0.9841	0.6111	-0.5073	0.3883	-0.4674
10.19	0.0853	-9.7946	1.8186	0.0097	-0.0164	-0.0104	-14.9123	-14.7419	1.0674	0.6111	-0.5073	0.3882	-0.4674
10.2	0.1033	-9.7994	1.8337	0.0214	-0.0123	-0.0091	-14.8109	-14.8074	0.9961	0.6112	-0.5073	0.3881	-0.4673
10.21	0.1091	-9.7837	1.8295	0.0202	-0.0151	-0.0141	-14.5944	-14.9401	1.0057	0.6113	-0.5073	0.3881	-0.4674
10.22	0.1240	-9.7434	1.8440	0.0225	-0.0066	-0.0053	-14.6231	-14.5829	1.1161	0.6113	-0.5072	0.3880	-0.4673
10.23	0.1213	-9.7538	1.8482	0.0209	-0.0004	-0.0058	-14.6667	-14.5975	1.3312	0.6115	-0.5072	0.3880	-0.4674
10.24	0.0937	-9.7532	1.8295	0.0234	0.0150	-0.0029	-14.7677	-14.7259	1.3628	0.6114	-0.5071	0.3879	-0.4674
10.25	0.0723	-9.7377	1.8380	0.0256	0.0119	-0.0047	-14.3769	-14.2858	1.3539	0.6115	-0.5070	0.3880	-0.4674
10.26	0.0372	-9.7393	1.8359	0.0294	0.0106	-0.0031	-14.3126	-14.2619	1.2889	0.6116	-0.5069	0.3879	-0.4675
10.27	0.0175	-9.7270	1.8380	0.0398	0.0161	-0.0046	-14.6330	-14.7825	1.0468	0.6116	-0.5067	0.3879	-0.4675
10.28	0.0016	-9.7169	1.8467	0.0325	0.0129	-0.0021	-14.7552	-15.6238	1.0440	0.6118	-0.5067	0.3879	-0.4677
10.29	-0.0168	-9.7179	1.8400	0.0243	0.0220	-0.0090	-14.9208	-14.8266	1.1075	0.6117	-0.5065	0.3879	-0.4677
10.3	-0.0296	-9.7189	1.8400	0.0240	0.0188	-0.0127	-14.6950	-14.3185	1.4014	0.6118	-0.5065	0.3879	-0.4678
10.31	-0.0394	-9.7175	1.8494	0.0239	0.0254	-0.0058	-14.8349	-14.5467	1.4570	0.6117	-0.5063	0.3879	-0.4678
10.32	-0.0464	-9.7262	1.8426	0.0228	0.0295	-0.0070	-14.7995	-14.4193	1.2417	0.6118	-0.5062	0.3880	-0.4680
10.33	-0.0540	-9.7363	1.8449	0.0134	0.0129	-0.0056	-14.8605	-14.6801	1.1376	0.6118	-0.5061	0.3880	-0.4680
10.34	-0.0558	-9.7446	1.8517	0.0095	0.0144	-0.0137	-14.9408	-14.5527	1.3769	0.6117	-0.5061	0.3880	-0.4680
10.35	-0.0541	-9.7473	1.8382	0.0073	0.0094	-0.0089	-14.8705	-14.4623	1.1020	0.6118	-0.5061	0.3880	-0.4681
10.36	-0.0399	-9.7542	1.8331	0.0011	0.0001	-0.0120	-14.9753	-14.6047	1.0316	0.6117	-0.5061	0.3880	-0.4681
10.37	-0.0212	-9.7609	1.8374	0.0004	-0.0099	-0.0080	-14.9251	-14.6922	1.1013	0.6118	-0.5061	0.3880	-0.4681
10.38	-0.0009	-9.7619	1.8350	0.0003	-0.0110	-0.0112	-14.5827	-14.4521	1.2587	0.6117	-0.5061	0.3879	-0.4680
10.39	0.0164	-9.7618	1.8311	-0.0021	-0.0043	-0.0072	-14.6836	-14.4750	1.2105	0.6118	-0.5062	0.3880	-0.4680
10.4	0.0331	-9.7723	1.8386	0.0025	-0.0072	-0.0042	-14.7389	-14.9376	1.2761	0.6118	-0.5062	0.3880	-0.4679
10.41	0.0474	-9.7791	1.8378	0.0123	-0.0077	-0.0049	-14.7372	-14.7729	1.1472	0.6119	-0.5062	0.3879	-0.4679
10.42	0.0582	-9.7777	1.8459	0.0208	0.0011	-0.0045	-14.7191	-14.5312	1.1631	0.6119	-0.5061	0.3879	-0.4679
10.43	0.0570	-9.7679	1.8513	0.0207	0.0065	-0.0036	-14.7608	-14.5554	1.2367	0.6120	-0.5061	0.3879	-0.4679
10.44	0.0505	-9.7523	1.8489	0.0229	0.0172	-0.0035	-14.8711	-14.5857	1.0997	0.6120	-0.5060	0.3879	-0.4680
10.45	0.0370	-9.7423	1.8561	0.0245	0.0204	0.0009	-15.0192	-14.4451	1.2409	0.6120	-0.5058	0.3879	-0.4680
10.46	0.0198	-9.7423	1.8528	0.0242	0.0237	-0.0035	-14.9500	-14.6106	1.3543	0.6121	-0.5058	0.3880	-0.4681
10.47	0.0011	-9.7301	1.8463	0.0242	0.0350	-0.0037	-14.9525	-14.6030	1.2849	0.6121	-0.5056	0.3880	-0.4682
10.48	-0.0186	-9.7310	1.8510	0.0244	0.0329	-0.0037	-14.9675	-14.5547	1.1945	0.6121	-0.5055	0.3881	-0.4683
10.49	-0.0339	-9.7291	1.8525	0.0235	0.0309	-0.0060	-14.6961	-14.4509	1.3630	0.6120	-0.5053	0.3881	-0.4683
10.5	-0.0446	-9.7309	1.8506	0.0191	0.0223	-0.0025	-14.8394	-14.3897	1.1500	0.6121	-0.5052	0.3882	-0.4684
10.51	-0.0553	-9.7310	1.8600	0.0240	0.0226	-0.0056	-14.8256	-14.6723	1.1974	0.6121	-0.5051	0.3882	-0.4685
10.52	-0.0617	-9.7231	1.8590	0.0245	0.0235	-0.0046	-14.7422	-14.5790	1.2608	0.6121	-0.5049	0.3882	-0.4685
10.53	-0.0611	-9.7134	1.8574	0.0237	0.0182	-0.0038	-14.7254	-14.4182	1.2219	0.6122	-0.5049	0.3883	-0.4687
10.54	-0.0640	-9.7059	1.8620	0.0254	0.0221	-0.0036	-14.8709	-14.5688	1.2447	0.6122	-0.5047	0.3883	-0.4687
10.55	-0.0616	-9.7101	1.8705	0.0180	0.0152	-0.0054	-14.9914	-14.6307	1.2265	0.6123	-0.5047	0.3883	-0.4688
10.56	-0.0547	-9.7005	1.8731	0.0156	0.0064	-0.0070	-14.9267	-14.4159	1.2425	0.6122	-0.5046	0.3883	-0.4687
10.57	-0.0488	-9.6980	1.8739	0.0187	0.0055	-0.0064	-14.6403	-14.7326	1.2239	0.6123	-0.5046	0.3883	-0.4688
10.58	-0.0448	-9.7132	1.8732	-0.0003	0.0047	-0.0067	-14.6920	-14.7021	0.9134	0.6123	-0.5045	0.3883	-0.4688
10.59	-0.0528	-9.7294	1.8727	-0.0019	0.0080	-0.0095	-14.7573	-14.5296	1.1279	0.6122	-0.5045	0.3883	-0.4688
10.6	-0.0586	-9.7317	1.8637	-0.0015	-0.0032	-0.0086	-14.6093	-14.6682	1.2547	0.6123	-0.5046	0.3884	-0.4688
10.61	-0.0470	-9.7171	1.8549	-0.0061	-0.0015	-0.0117	-14.8051	-14.6103	1.3902	0.6122	-0.5046	0.3884	-0.4687
10.62	-0.0413	-9.7106	1.8350	-0.0116	-0.0039	-0.0084	-14.7848	-14.5017	1.1781	0.6122	-0.5047	0.3884	-0.4687
10.63	-0.0259	-9.7392	1.8342	-0.0202	-0.0061	-0.0165	-14.5953	-14.3416	1.1228	0.6121	-0.5047	0.3884	-0.4686
10.64	-0.0163	-9.8000	1.8407	-0.0210	-0.0070	-0.0131	-14.7919	-14.5297	1.2511	0.6121	-0.5049	0.3884	-0.4686
10.65	-0.0019	-9.8487	1.8431	-0.0121	-0.0025	-0.0112	-14.7804	-14.6661	1.2457	0.6121	-0.5050	0.3884	-0.4685
10.66	0.0133	-9.8538	1.8378	-0.0041	-0.0019	-0.0180	-14.6946	-14.3694	1.1522	0.6121	-0.5050	0.3885	-0.4685
10.67	0.0327	-9.8262	1.8286	0.0084	-0.0036	-0.0105	-14.8312	-14.3764	1.1388	0.6120	-0.5050	0.3884	-0.4685
10.68	0.0466	-9.7907	1.8310	0.0127	0.0004	-0.0124	-14.9391	-14.3926	1.2469	0.6121	-0.5050	0.3884	-0.4685
10.69	0.0459	-9.7678	1.8265	0.0161	0.0001	-0.0073	-14.8362	-14.3540	1.0587	0.6121	-0.5050	0.3884	-0.4685
10.7	0.0340	-9.7567	1.8289	0.0217	0.0153	-0.0034	-14.8239	-14.4729	1.3491	0.6121	-0.5048	0.3883	-0.4685
10.71	0.0056	-9.7424	1.8194	0.0165	0.0241	-0.0046	-14.6924	-14.4433	1.3080	0.6122	-0.5048	0.3884	-0.4686
10.72	-0.0137	-9.7303	1.8271	0.0206	0.0197	-0.0029	-14.7885	-14.8165	1.2045	0.6122	-0.5047	0.3885	-0.4686
10.73	-0.0387	-9.7248	1.8256	0.0110	0.0214	-0.0045	-14.8239	-14.7017	1.0374	0.6122	-0.5046	0.3885	-0.4687
10.74	-0.0537	-9.7223	1.8227	0.0172	0.0149	-0.0041	-14.7698	-14.4560	1.1407	0.6122	-0.5045	0.3885	-0.4687
10.75	-0.0571	-9.7320	1.8316	0.0211	0.0038	-0.0044	-14.2615	-14.5404	1.5169	0.6123	-0.5045	0.3885	-0.4687
10.76	-0.0561	-9.7369	1.8392	0.0129	0.0015	-0.0058	-14.1701	-14.6278	1.6782	0.6123	-0.5044	0.3885	-0.4687
10.77	-0.0555	-9.7563	1.8468	0.0134	-0.0111	-0.0133	-14.6254	-15.2407	1.0613	0.6123	-0.5044	0.3884	-0.4687
10.78	-0.0546	-9.7592	1.8455	0.0198	-0.0094	-0.0125	-14.6159	-15.6084	1.1249	0.6124	-0.5045	0.3884	-0.4688
10.79	-0.0525	-9.7559	1.8533	0.0079	-0.0050	-0.0121	-14.6660	-14.9344	1.4071	0.6124	-0.5044	0.3883	-0.4687
10.8	-0.0418	-9.7500	1.8498	0.0109	-0.0050	-0.0136	-14.6289	-14.4534	1.1258	0.6125	-0.5045	0.3883	-0.4687
10.81	-0.0240	-9.7390	1.8501	0.0202	-0.0116	-0.0160	-14.9122	-14.6912	1.1713	0.6124	-0.5044	0.3882	-0.4687
10.82	-0.0223	-9.7042	1.8483	0.0145	-0.0066	-0.0183	-14.8756	-14.7362	1.1808	0.6125	-0.5044	0.3881	-0.4688
10.83	-0.0205	-9.6885	1.8583	0.0018	-0.0208	-0.0107	-14.7076	-14.5455	1.1041	0.6125	-0.5045	0.3881	-0.4687
10.84	-0.0006	-9.7421	1.8601	-0.0008	-0.0240	-0.0137	-14.7074	-14.3617	1.0426	0.6126	-0.5046	0.3880	-0.4686
10.85	0.0263	-9.7606	1.8655	0.0019	-0.0256	-0.0178	-14.7688	-14.3900	1.1513	0.6126	-0.5047	0.3879	-0.4686
10.86	0.0493	-9.7355	1.8696	0.0027	-0.0184	-0.0209	-14.8703	-14.3912	1.3443	0.6126	-0.5047	0.3878	-0.4685
10.87	0.0733	-9.6977	1.8680	0.0086	-0.0207	-0.0143	-14.9638	-14.5673	1.4366	0.6127	-0.5048	0.3877	-0.4685
10.88	0.0989	-9.6911	1.8777	-0.0030	-0.0216	-0.0125	-14.7454	-14.5542	1.1232	0.6126	-0.5048	0.3876	-0.4684
10.89	0.0996	-9.7038	1.8748	0.0005	-0.0128	-0.0062	-14.9292	-14.4626	1.1698	0.6127	-0.5050	0.3877	-0.4684
10.9	0.0856	-9.7161	1.8771	-0.0095	-0.0015	-0.0040	-14.8290	-14.4687	1.3190	0.6127	-0.5050	0.3877	-0.4683
10.91	0.0700	-9.7313	1.8715	-0.0142	0.0066	-0.0057	-14.9828	-14.4830	1.3530	0.6127	-0.5050	0.3877	-0.4683
10.92	0.0460	-9.7336	1.8619	-0.0073	0.0097	-0.0035	-14.9535	-14.4467	1.3323	0.6126	-0.5050	0.3878	-0.4682
10.93	0.0270	-9.7256	1.8542	-0.0214	0.0145	-0.0066	-15.0012	-14.3985	1.3350	0.6126	-0.5051	0.3879	-0.4682
10.94	0.0107	-9.7319	1.8408	-0.0100	0.0200	-0.0062	-14.6556	-14.5012	1.1499	0.6125	-0.5051	0.3880	-0.4682
10.95	-0.0001	-9.7371	1.8352	-0.0220	0.0191	-0.0148	-14.6602	-14.4407	1.1671	0.6123	-0.5051	0.3881	-0.4682
10.96	-0.0182	-9.7482	1.8287	-0.0153	0.0182	-0.0093	-14.8381	-14.6983	1.2441	0.6123	-0.5052	0.3882	-0.4682
10.97	-0.0304	-9.7628	1.8209	-0.0132	0.0180	-0.0062	-14.7511	-14.7481	1.1406	0.6122	-0.5052	0.3883	-0.4682
10.98	-0.0382	-9.7738	1.8141	-0.0248	0.0185	-0.0082	-14.6092	-14.4619	1.1747	0.6122	-0.5052	0.3885	-0.4682
10.99	-0.0440	-9.7769	1.8081	-0.0190	0.0034	-0.0064	-14.6928	-14.4873	1.0730	0.6120	-0.5052	0.3885	-0.4681
11	-0.0508	-9.7837	1.7979	-0.0125	0.0038	-0.0087	-14.9547	-14.5436	1.1618	0.6120	-0.5053	0.3886	-0.4681
11.01	-0.0428	-9.7889	1.7982	-0.0062	0.0080	-0.0121	-14.9547	-14.4767	1.2068	0.6120	-0.5053	0.3886	-0.4681
11.02	-0.0307	-9.7828	1.7938	-0.0050	-0.0069	-0.0111	-14.6866	-14.6899	1.2871	0.6119	-0.5054	0.3886	-0.4680
11.03	-0.0173	-9.7889	1.7879	-0.0004	-0.0110	-0.0101	-14.7204	-14.4277	1.1182	0.6120	-0.5055	0.3886	-0.4680
11.04	-0.0072	-9.7949	1.7904	-0.0012	-0.0029	-0.0089	-14.9652	-14.3648	1.3355	0.6120	-0.5055	0.3886	-0.4679
11.05	0.0101	-9.8056	1.7992	-0.0019	-0.0088	-0.0063	-14.9768	-14.4060	1.2953	0.6120	-0.5055	0.3886	-0.4679
11.06	0.0262	-9.8056	1.7962	0.0074	-0.0058	-0.0094	-14.9551	-14.3400	1.1159	0.6120	-0.5055	0.3885	-0.4678
11.07	0.0349	-9.8035	1.8016	0.0121	-0.0044	-0.0061	-14.9923	-14.5776	1.3269	0.6121	-0.5055	0.3885	-0.4678
11.08	0.0527	-9.7983	1.8092	0.0157	-0.0070	-0.0072	-14.7556	-14.5856	1.4876	0.6121	-0.5055	0.3885	-0.4678
11.09	0.0581	-9.7928	1.8169	0.0183	-0.0000	-0.0075	-14.9583	-14.3457	1.3326	0.6122	-0.5054	0.3885	-0.4678
11.1	0.0565	-9.7858	1.8262	0.0236	0.0083	-0.0108	-15.0544	-14.3975	1.3423	0.6122	-0.5054	0.3884	-0.4679
11.11	0.0485	-9.7797	1.8357	0.0247	0.0130	-0.0053	-14.8383	-14.3889	1.2023	0.6123	-0.5053	0.3884	-0.4679
11.12	0.0331	-9.7658	1.8419	0.0243	0.0129	-0.0049	-14.8561	-14.7492	1.3174	0.6123	-0.5052	0.3885	-0.4680
11.13	0.0173	-9.7455	1.8416	0.0237	0.0190	-0.0055	-14.6832	-14.7081	1.0426	0.6123	-0.5050	0.3884	-0.4680
11.14	0.0011	-9.7336	1.8447	0.0238	0.0153	-0.0064	-14.7017	-14.7812	1.1171	0.6124	-0.5050	0.3885	-0.4681
11.15	-0.0124	-9.7277	1.8490	0.0244	0.0194	-0.0061	-14.5675	-14.7777	1.1414	0.6124	-0.5049	0.3885	-0.4681
11.16	-0.0324	-9.7130	1.8479	0.0240	0.0201	-0.0052	-14.6915	-14.4945	1.0256	0.6124	-0.5048	0.3885	-0.4682
11.17	-0.0479	-9.7005	1.8538	0.0245	0.0196	-0.0058	-14.8977	-14.6938	1.1948	0.6124	-0.5047	0.3885	-0.4682
11.18	-0.0543	-9.6921	1.8566	0.0232	0.0178	-0.0048	-14.8878	-14.7137	1.1522	0.6125	-0.5046	0.3886	-0.4683
11.19	-0.0565	-9.6891	1.8602	0.0160	0.0084	-0.0092	-14.8736	-14.6063	1.1752	0.6125	-0.5045	0.3886	-0.4684
11.2	-0.0517	-9.6940	1.8601	0.0026	0.0077	-0.0035	-14.9021	-14.7464	1.1428	0.6124	-0.5045	0.3886	-0.4683
11.21	-0.0391	-9.6925	1.8630	0.0055	0.0020	-0.0097	-14.8386	-14.6350	1.2923	0.6125	-0.5045	0.3886	-0.4684
11.22	-0.0272	-9.6951	1.8602	0.0012	-0.0011	-0.0129	-15.1283	-14.4849	1.3613	0.6125	-0.5045	0.3886	-0.4683
11.23	-0.0107	-9.6992	1.8677	-0.0025	-0.0065	-0.0153	-15.0408	-14.2635	1.3115	0.6125	-0.5046	0.3886	-0.4683
11.24	-0.0006	-9.7093	1.8736	-0.0014	0.0035	-0.0167	-14.6964	-14.3342	1.4407	0.6124	-0.5046	0.3885	-0.4683
11.25	-0.0052	-9.7316	1.8612	-0.0132	0.0036	-0.0138	-14.3832	-14.2237	1.5552	0.6124	-0.5047	0.3886	-0.4683
11.26	-0.0089	-9.7285	1.8579	-0.0236	0.0031	-0.0173	-14.3305	-14.2382	1.4560	0.6123	-0.5048	0.3887	-0.4682
11.27	0.0002	-9.7067	1.8399	-0.0193	0.0037	-0.0135	-14.8287	-14.7642	1.3489	0.6122	-0.5048	0.3887	-0.4682
11.28	-0.0017	-9.6991	1.8297	-0.0230	-0.0017	-0.0088	-14.7225	-15.4735	1.3221	0.6122	-0.5050	0.3888	-0.4682
11.29	-0.0045	-9.7295	1.8330	-0.0265	0.0059	-0.0115	-14.7907	-14.7166	1.3400	0.6121	-0.5050	0.3889	-0.4681
11.3	-0.0006	-9.7908	1.8240	-0.0263	-0.0031	-0.0057	-15.1657	-14.3684	1.2668	0.6120	-0.5052	0.3890	-0.4680
11.31	0.0069	-9.8271	1.8274	-0.0268	-0.0019	-0.0044	-15.0011	-14.5387	1.1035	0.6119	-0.5052	0.3890	-0.4679
11.32	0.0074	-9.8140	1.8145	-0.0190	-0.0059	-0.0106	-14.7741	-14.4142	1.1621	0.6119	-0.5053	0.3891	-0.4678
11.33	0.0189	-9.7765	1.8049	-0.0027	-0.0060	-0.0085	-14.6170	-14.3827	1.0700	0.6119	-0.5054	0.3890	-0.4678
11.34	0.0306	-9.7543	1.8007	-0.0044	0.0040	-0.0039	-14.5526	-14.4121	1.3358	0.6119	-0.5054	0.3891	-0.4677
11.35	0.0226	-9.7490	1.7927	-0.0069	0.0142	-0.0052	-14.8992	-14.8110	1.2036	0.6119	-0.5054	0.3892	-0.4677
11.36	0.0010	-9.7582	1.7904	-0.0139	0.0218	-0.0043	-14.8693	-14.6540	1.0140	0.6118	-0.5054	0.3893	-0.4677
11.37	-0.0232	-9.7610	1.7728	-0.0179	0.0182	-0.0048	-15.0001	-14.5284	1.2427	0.6117	-0.5054	0.3894	-0.4677
11.38	-0.0490	-9.7592	1.7665	-0.0145	0.0181	-0.0057	-14.9104	-14.5929	1.2257	0.6116	-0.5054	0.3895	-0.4676
11.39	-0.0710	-9.7680	1.7592	-0.0207	0.0142	-0.0066	-14.8005	-14.3189	1.1033	0.6116	-0.5055	0.3896	-0.4676
11.4	-0.0695	-9.7742	1.7612	-0.0187	-0.0005	-0.0130	-14.8061	-14.4682	1.1857	0.6115	-0.5056	0.3897	-0.4676
