time	acceleration_x	acceleration_y	acceleration_z	gyroscope_x	gyroscope_y	gyroscope_z	magnetometer_x	magnetometer_y	magnetometer_z	quaternion_w	quaternion_x	quaternion_y	quaternion_z
0	-5.2164	-0.6826	0.0570	0.0682	0.0978	-0.0185	18.0967	13.2012	0.2134	0.2239	0.2857	0.2728	-0.3103
0.01	-10.3140	-1.3024	0.1329	0.1353	0.1887	-0.0411	35.5129	26.0979	0.4597	0.4418	0.5652	0.5390	-0.6132
0.02	-9.1219	-1.1225	0.1251	0.1003	0.1628	-0.0289	31.2873	22.9404	0.6806	0.3879	0.4982	0.4744	-0.5396
0.03	-9.7826	-1.1661	0.1513	0.1024	0.1604	-0.0311	34.4748	24.6579	0.7972	0.4159	0.5354	0.5094	-0.5792
0.04	-9.3480	-1.0860	0.1607	0.0899	0.1574	-0.0273	33.2850	23.5739	0.7883	0.3975	0.5133	0.4878	-0.5544
0.05	-9.5673	-1.1003	0.1474	0.0699	0.1642	-0.0287	33.3582	24.1203	0.7246	0.4083	0.5284	0.5018	-0.5700
0.06	-9.3558	-1.0507	0.1478	0.0590	0.1645	-0.0277	32.6261	23.9421	0.6485	0.4005	0.5198	0.4931	-0.5598
0.07	-9.4365	-1.0690	0.1325	0.0465	0.1668	-0.0327	33.0483	24.1296	0.6882	0.4043	0.5260	0.4987	-0.5656
0.08	-9.3111	-1.0619	0.1161	0.0288	0.1767	-0.0386	32.7909	23.6593	0.6725	0.4012	0.5233	0.4959	-0.5618
0.09	-9.3044	-1.0761	0.1048	0.0241	0.1839	-0.0335	32.8227	23.9149	0.6898	0.4019	0.5255	0.4977	-0.5633
0.1	-9.2813	-1.0916	0.0715	0.0164	0.1952	-0.0412	33.0498	23.8073	0.6602	0.4007	0.5253	0.4974	-0.5621
0.11	-9.2821	-1.0842	0.0466	-0.0019	0.2153	-0.0481	32.9346	23.7939	0.8861	0.4001	0.5259	0.4979	-0.5617
0.12	-9.2906	-1.1073	0.0148	-0.0204	0.2340	-0.0563	32.8878	23.8735	0.9970	0.3995	0.5264	0.4984	-0.5611
0.13	-9.3233	-1.1278	-0.0155	-0.0286	0.2427	-0.0599	32.9194	23.8357	0.8415	0.3988	0.5270	0.4990	-0.5605
0.14	-9.3439	-1.1523	-0.0573	-0.0366	0.2505	-0.0716	32.8831	24.0891	0.8692	0.3981	0.5275	0.4997	-0.5599
0.15	-9.3448	-1.2060	-0.1010	-0.0573	0.2575	-0.0791	32.9632	23.9581	1.0412	0.3974	0.5280	0.5005	-0.5593
0.16	-9.3855	-1.2433	-0.1663	-0.0549	0.2609	-0.0887	33.0119	23.9181	1.0316	0.3967	0.5285	0.5013	-0.5586
0.17	-9.3891	-1.2991	-0.2097	-0.0565	0.2691	-0.0906	32.9854	24.0662	1.1658	0.3960	0.5289	0.5021	-0.5580
0.18	-9.4256	-1.3838	-0.2854	-0.0603	0.2812	-0.0940	32.8578	23.9736	1.3854	0.3952	0.5294	0.5030	-0.5573
0.19	-9.3755	-1.5246	-0.4035	-0.0571	0.2808	-0.1048	32.7876	23.9718	1.4777	0.3944	0.5299	0.5039	-0.5566
0.2	-9.4268	-1.7338	-0.5095	-0.0465	0.2857	-0.1098	32.8581	24.1566	1.5968	0.3935	0.5304	0.5048	-0.5559
0.21	-9.5780	-1.9841	-0.6584	-0.0022	0.2894	-0.1154	32.6432	24.0836	1.6118	0.3925	0.5310	0.5055	-0.5554
0.22	-9.7584	-2.0733	-0.7602	0.0389	0.2680	-0.1149	32.7288	24.1846	1.7241	0.3914	0.5316	0.5062	-0.5550
0.23	-9.9597	-2.1385	-0.8553	0.0761	0.2354	-0.1162	32.8776	24.2152	1.9483	0.3904	0.5321	0.5067	-0.5547
0.24	-10.0100	-2.1282	-0.8931	0.1268	0.1846	-0.1099	32.6812	24.2135	1.9760	0.3893	0.5327	0.5069	-0.5548
0.25	-9.9928	-2.0735	-0.9127	0.1602	0.1460	-0.1034	32.7765	24.3198	1.8063	0.3882	0.5332	0.5069	-0.5550
0.26	-9.9274	-1.9978	-0.9182	0.1983	0.1031	-0.0994	32.6422	24.2856	1.7444	0.3872	0.5337	0.5068	-0.5554
0.27	-9.8082	-1.8836	-0.9004	0.2269	0.0600	-0.0850	32.6557	24.2937	1.8910	0.3862	0.5342	0.5064	-0.5559
0.28	-9.7314	-1.7744	-0.8488	0.2298	0.0371	-0.0813	32.6075	24.4085	1.6157	0.3853	0.5346	0.5059	-0.5566
0.29	-9.6460	-1.6716	-0.8180	0.2473	0.0267	-0.0669	32.7356	24.3381	1.5897	0.3844	0.5350	0.5054	-0.5573
0.3	-9.5099	-1.5520	-0.7547	0.2358	0.0106	-0.0627	32.8688	24.2603	1.5752	0.3836	0.5354	0.5048	-0.5580
0.31	-9.4377	-1.4537	-0.7297	0.2286	0.0128	-0.0547	32.7019	24.4075	1.6280	0.3829	0.5358	0.5042	-0.5586
0.32	-9.4249	-1.3818	-0.6739	0.2102	0.0174	-0.0449	32.7460	24.4801	1.2416	0.3821	0.5362	0.5037	-0.5592
0.33	-9.4765	-1.2987	-0.6426	0.1803	0.0177	-0.0479	32.7244	24.4633	1.3259	0.3815	0.5366	0.5032	-0.5597
0.34	-9.4221	-1.2354	-0.6083	0.1632	0.0179	-0.0402	32.7350	24.4642	1.4362	0.3809	0.5369	0.5028	-0.5602
0.35	-9.4845	-1.1865	-0.5787	0.1310	0.0223	-0.0357	32.7326	24.5730	1.2867	0.3805	0.5372	0.5025	-0.5605
0.36	-9.4790	-1.1708	-0.5644	0.0954	0.0209	-0.0320	32.7330	24.6790	1.4246	0.3801	0.5375	0.5022	-0.5608
0.37	-9.3839	-1.1476	-0.5379	0.0522	0.0158	-0.0337	32.7149	24.3441	1.1687	0.3798	0.5376	0.5021	-0.5609
0.38	-9.3673	-1.1819	-0.5441	0.0200	0.0250	-0.0368	32.3157	24.5035	1.3325	0.3796	0.5377	0.5020	-0.5610
0.39	-9.3695	-1.2686	-0.5510	-0.0207	0.0269	-0.0429	32.4422	24.5133	1.5225	0.3795	0.5377	0.5021	-0.5610
0.4	-9.3132	-1.3496	-0.5561	-0.0597	0.0269	-0.0477	32.5941	24.7159	1.4678	0.3795	0.5376	0.5024	-0.5609
0.41	-9.2790	-1.4273	-0.5687	-0.0765	0.0408	-0.0530	32.5398	24.8858	1.5105	0.3795	0.5375	0.5027	-0.5607
0.42	-9.1501	-1.4806	-0.5989	-0.0987	0.0459	-0.0476	32.5596	24.5826	1.2612	0.3795	0.5374	0.5031	-0.5604
0.43	-9.1563	-1.5446	-0.5850	-0.1235	0.0546	-0.0533	32.5607	24.8101	1.1946	0.3796	0.5373	0.5036	-0.5601
0.44	-9.2504	-1.6528	-0.6308	-0.1334	0.0801	-0.0595	32.5174	24.6100	1.4714	0.3796	0.5371	0.5041	-0.5596
0.45	-9.2133	-1.7240	-0.6226	-0.1335	0.0907	-0.0535	32.2715	24.7607	1.5005	0.3797	0.5371	0.5047	-0.5592
0.46	-9.2524	-1.7833	-0.6596	-0.1360	0.1065	-0.0433	32.2812	24.5753	1.3537	0.3797	0.5371	0.5053	-0.5586
0.47	-9.2803	-1.8579	-0.6891	-0.1332	0.1231	-0.0547	32.6681	24.7587	1.6304	0.3796	0.5371	0.5059	-0.5581
0.48	-9.2873	-1.8920	-0.7166	-0.1281	0.1340	-0.0554	32.7792	24.5611	1.6925	0.3795	0.5371	0.5066	-0.5575
0.49	-9.3466	-1.9287	-0.7464	-0.1053	0.1393	-0.0462	32.5189	24.6631	1.6610	0.3793	0.5373	0.5072	-0.5570
0.5	-9.3967	-1.9577	-0.7679	-0.0889	0.1400	-0.0523	32.7026	24.7217	1.6793	0.3791	0.5374	0.5077	-0.5565
0.51	-9.4064	-1.9524	-0.7603	-0.0646	0.1354	-0.0468	32.5522	24.6441	1.8982	0.3788	0.5376	0.5082	-0.5560
0.52	-9.4156	-1.9482	-0.7819	-0.0467	0.1394	-0.0487	32.6775	24.8808	2.0527	0.3785	0.5379	0.5086	-0.5556
0.53	-9.3673	-1.9341	-0.7782	-0.0243	0.1331	-0.0542	33.1539	24.7719	2.1429	0.3781	0.5381	0.5090	-0.5553
0.54	-9.3369	-1.9276	-0.7855	0.0107	0.1310	-0.0627	33.2502	24.9131	2.1118	0.3777	0.5384	0.5093	-0.5551
0.55	-9.3687	-1.9107	-0.7791	0.0364	0.1295	-0.0635	32.4708	25.0678	1.8901	0.3771	0.5387	0.5095	-0.5549
0.56	-9.4129	-1.8717	-0.7731	0.0447	0.1286	-0.0705	32.5123	25.3640	1.9587	0.3765	0.5391	0.5097	-0.5548
0.57	-9.3943	-1.8411	-0.7819	0.0627	0.1314	-0.0784	32.4175	24.8978	2.0620	0.3758	0.5394	0.5099	-0.5548
0.58	-9.2824	-1.8060	-0.8316	0.0760	0.1322	-0.0788	32.3534	24.7727	2.2469	0.3751	0.5398	0.5101	-0.5548
0.59	-9.2531	-1.7657	-0.8392	0.0750	0.1326	-0.0906	32.5069	24.8752	2.1355	0.3743	0.5401	0.5103	-0.5548
0.6	-9.3420	-1.7619	-0.8579	0.0927	0.1429	-0.1004	32.3388	24.9511	2.0505	0.3735	0.5405	0.5104	-0.5548
0.61	-9.3753	-1.7489	-0.8556	0.1007	0.1391	-0.1014	32.3342	25.0386	2.1317	0.3726	0.5409	0.5106	-0.5549
0.62	-9.4348	-1.7648	-0.8652	0.0976	0.1394	-0.1077	32.4099	25.0686	1.9698	0.3717	0.5413	0.5108	-0.5550
0.63	-9.4578	-1.7847	-0.8627	0.0928	0.1246	-0.1139	32.4030	25.2217	2.2687	0.3709	0.5416	0.5109	-0.5551
0.64	-9.4066	-1.7925	-0.8720	0.1012	0.1162	-0.1142	32.1202	25.1989	2.0613	0.3700	0.5418	0.5111	-0.5552
0.65	-9.3018	-1.7895	-0.8912	0.0915	0.1128	-0.1176	32.2135	25.1663	2.2282	0.3692	0.5421	0.5112	-0.5554
0.66	-9.2397	-1.7778	-0.9240	0.0778	0.1217	-0.1246	32.4192	25.0222	2.1470	0.3683	0.5423	0.5115	-0.5555
0.67	-9.2234	-1.8019	-0.9737	0.0712	0.1316	-0.1169	32.3821	24.9177	2.0303	0.3675	0.5426	0.5117	-0.5556
0.68	-9.1579	-1.7991	-1.0316	0.0625	0.1415	-0.1136	32.3868	25.1057	2.1743	0.3667	0.5429	0.5120	-0.5556
0.69	-9.2092	-1.8086	-1.0459	0.0513	0.1532	-0.1068	32.4232	25.0537	2.0880	0.3659	0.5432	0.5123	-0.5555
0.7	-9.3303	-1.8496	-1.1124	0.0413	0.1722	-0.1065	32.2046	25.0689	2.3153	0.3651	0.5435	0.5127	-0.5553
0.71	-9.2839	-1.8584	-1.1580	0.0346	0.1759	-0.1014	32.1120	25.2895	2.5675	0.3643	0.5439	0.5131	-0.5551
0.72	-9.3701	-1.8696	-1.1943	0.0189	0.1818	-0.0871	32.2970	25.3797	2.3590	0.3636	0.5443	0.5135	-0.5549
0.73	-9.5137	-1.9272	-1.2812	0.0041	0.1781	-0.0799	32.3192	25.1469	2.0324	0.3629	0.5447	0.5139	-0.5546
0.74	-9.5718	-1.9377	-1.3099	0.0008	0.1550	-0.0665	32.2006	25.5135	2.5021	0.3623	0.5450	0.5143	-0.5543
0.75	-9.5998	-1.9586	-1.3497	-0.0142	0.1370	-0.0504	32.0934	25.4374	2.3998	0.3619	0.5453	0.5146	-0.5539
0.76	-9.6338	-1.9848	-1.3627	-0.0256	0.1076	-0.0381	31.7540	25.5129	2.3286	0.3616	0.5455	0.5149	-0.5537
0.77	-9.7378	-2.0137	-1.4000	-0.0294	0.0786	-0.0250	31.8723	25.6564	2.8429	0.3614	0.5457	0.5151	-0.5534
0.78	-9.7251	-1.9907	-1.4139	-0.0301	0.0442	-0.0072	31.9393	25.6292	2.5814	0.3614	0.5458	0.5152	-0.5532
0.79	-9.6716	-1.9996	-1.4010	-0.0305	0.0137	0.0002	32.0218	25.6613	2.6352	0.3614	0.5459	0.5152	-0.5531
0.8	-9.6571	-1.9720	-1.4068	-0.0297	-0.0122	0.0150	31.9620	25.5660	2.6720	0.3616	0.5459	0.5151	-0.5530
0.81	-9.6128	-1.9287	-1.3919	-0.0303	-0.0325	0.0196	32.0447	25.5470	2.6900	0.3619	0.5459	0.5150	-0.5530
0.82	-9.5570	-1.9178	-1.3810	-0.0345	-0.0534	0.0303	32.1355	25.4374	2.7509	0.3622	0.5458	0.5148	-0.5530
0.83	-9.4652	-1.8682	-1.3546	-0.0426	-0.0667	0.0421	31.9817	25.5058	2.4469	0.3626	0.5458	0.5146	-0.5530
0.84	-9.4480	-1.8736	-1.3287	-0.0582	-0.0695	0.0416	32.1409	25.2892	2.5897	0.3631	0.5456	0.5144	-0.5530
0.85	-9.4357	-1.8835	-1.3053	-0.0605	-0.0735	0.0411	32.2221	25.2916	2.6037	0.3636	0.5455	0.5142	-0.5530
0.86	-9.4280	-1.8540	-1.2859	-0.0824	-0.0753	0.0394	32.2143	25.1245	2.2313	0.3642	0.5453	0.5141	-0.5529
0.87	-9.4648	-1.8745	-1.2693	-0.0826	-0.0743	0.0447	32.2136	25.1574	2.3326	0.3647	0.5451	0.5140	-0.5528
0.88	-9.4768	-1.8981	-1.2316	-0.0887	-0.0765	0.0544	32.2166	25.3128	2.6133	0.3653	0.5450	0.5138	-0.5527
0.89	-9.4548	-1.9115	-1.2310	-0.0931	-0.0751	0.0554	32.2182	25.3959	2.7181	0.3660	0.5448	0.5137	-0.5527
0.9	-9.3647	-1.9035	-1.2193	-0.0916	-0.0902	0.0674	32.3952	25.1682	2.5704	0.3667	0.5446	0.5134	-0.5526
0.91	-9.3290	-1.9210	-1.2102	-0.0981	-0.0910	0.0643	32.3769	25.0232	2.4532	0.3674	0.5444	0.5133	-0.5525
0.92	-9.3429	-1.9027	-1.1774	-0.0922	-0.0906	0.0736	32.4245	25.0113	2.6407	0.3681	0.5442	0.5131	-0.5524
0.93	-9.4055	-1.8786	-1.1453	-0.0841	-0.0800	0.0861	32.3169	25.3562	2.5445	0.3688	0.5441	0.5128	-0.5522
0.94	-9.3871	-1.8325	-1.1120	-0.0833	-0.0735	0.0906	32.1562	25.2934	2.6718	0.3695	0.5441	0.5126	-0.5520
0.95	-9.3649	-1.7606	-1.0715	-0.0832	-0.0824	0.0958	32.3962	24.9832	2.6933	0.3702	0.5440	0.5123	-0.5519
0.96	-9.3609	-1.7070	-1.0810	-0.0843	-0.0717	0.1130	32.5355	25.1657	2.5693	0.3710	0.5440	0.5120	-0.5517
0.97	-9.3373	-1.6664	-1.0594	-0.0836	-0.0757	0.1147	32.5379	25.0654	2.6052	0.3718	0.5440	0.5116	-0.5514
0.98	-9.3283	-1.6269	-1.0583	-0.0848	-0.0703	0.1151	32.4441	24.9470	2.5901	0.3725	0.5440	0.5113	-0.5512
0.99	-9.3360	-1.6130	-1.0440	-0.1033	-0.0711	0.1158	32.5957	24.9391	2.5993	0.3733	0.5440	0.5111	-0.5509
1	-9.3229	-1.6005	-1.0722	-0.1022	-0.0569	0.1164	32.5582	24.6853	2.7420	0.3741	0.5440	0.5108	-0.5506
1.01	-9.3128	-1.5590	-1.0445	-0.1033	-0.0549	0.1182	32.5571	24.9275	2.5990	0.3749	0.5440	0.5106	-0.5503
1.02	-9.3774	-1.5585	-1.0442	-0.1139	-0.0500	0.1168	32.7549	24.8260	2.6805	0.3757	0.5441	0.5104	-0.5499
1.03	-9.3775	-1.5250	-1.0104	-0.1201	-0.0515	0.1134	33.4964	24.4840	2.7266	0.3765	0.5440	0.5102	-0.5495
1.04	-9.4087	-1.5056	-0.9902	-0.1178	-0.0493	0.1124	33.6176	24.5903	2.4752	0.3773	0.5440	0.5101	-0.5491
1.05	-9.4574	-1.4880	-0.9577	-0.1294	-0.0522	0.1112	33.0692	24.5597	2.3173	0.3781	0.5440	0.5099	-0.5487
1.06	-9.4337	-1.4632	-0.9264	-0.1350	-0.0520	0.1059	32.8068	24.5102	2.5587	0.3789	0.5439	0.5098	-0.5483
1.07	-9.4277	-1.4492	-0.8914	-0.1306	-0.0589	0.1035	32.9909	24.5306	2.6050	0.3797	0.5438	0.5097	-0.5480
1.08	-9.4216	-1.4656	-0.8939	-0.1303	-0.0647	0.0924	33.0194	24.4064	2.6385	0.3805	0.5437	0.5095	-0.5476
1.09	-9.3703	-1.4759	-0.8721	-0.1332	-0.0657	0.0906	32.8252	24.3523	2.8455	0.3814	0.5436	0.5094	-0.5473
1.1	-9.3851	-1.4989	-0.8758	-0.1213	-0.0631	0.0770	33.2735	24.2466	2.4278	0.3821	0.5435	0.5093	-0.5470
1.11	-9.3654	-1.5366	-0.8810	-0.1134	-0.0697	0.0633	32.9342	24.3500	2.6356	0.3828	0.5433	0.5092	-0.5468
1.12	-9.3489	-1.5814	-0.9136	-0.1013	-0.0561	0.0674	32.9038	24.3954	2.7224	0.3834	0.5432	0.5091	-0.5466
1.13	-9.3308	-1.5833	-0.9323	-0.0839	-0.0499	0.0608	32.8989	24.4500	2.6969	0.3840	0.5431	0.5090	-0.5464
1.14	-9.3078	-1.5705	-0.9508	-0.0617	-0.0427	0.0646	33.0392	24.0640	2.6937	0.3845	0.5431	0.5088	-0.5462
1.15	-9.2938	-1.5321	-0.9447	-0.0311	-0.0366	0.0660	33.1115	24.0886	2.7694	0.3849	0.5432	0.5086	-0.5461
1.16	-9.3195	-1.5113	-0.9490	-0.0123	-0.0292	0.0696	33.3571	24.0620	2.8143	0.3852	0.5433	0.5083	-0.5460
1.17	-9.3243	-1.4563	-0.9346	0.0101	-0.0242	0.0637	33.3447	24.1895	2.8065	0.3854	0.5435	0.5079	-0.5460
1.18	-9.3746	-1.4156	-0.9247	0.0192	-0.0270	0.0455	33.2347	24.0042	2.7711	0.3856	0.5436	0.5076	-0.5460
1.19	-9.4011	-1.4003	-0.8947	0.0269	-0.0395	0.0207	33.2725	23.9903	2.6822	0.3857	0.5437	0.5073	-0.5461
1.2	-9.4907	-1.4023	-0.8683	0.0293	-0.0383	-0.0027	33.2617	23.9734	2.7470	0.3858	0.5437	0.5070	-0.5463
1.21	-9.5116	-1.4192	-0.8441	0.0389	-0.0510	-0.0224	33.1403	24.1274	2.4382	0.3858	0.5437	0.5068	-0.5466
1.22	-9.5195	-1.4308	-0.8240	0.0470	-0.0539	-0.0328	33.3997	23.9668	2.2937	0.3857	0.5436	0.5066	-0.5469
1.23	-9.4919	-1.4206	-0.8134	0.0470	-0.0657	-0.0484	33.4489	23.8567	2.4585	0.3857	0.5435	0.5064	-0.5473
1.24	-9.4892	-1.4352	-0.7764	0.0412	-0.0759	-0.0520	33.4486	24.0232	2.3274	0.3856	0.5433	0.5061	-0.5477
1.25	-9.4083	-1.4446	-0.7731	0.0414	-0.0869	-0.0420	33.2703	23.9520	2.2218	0.3856	0.5431	0.5059	-0.5481
1.26	-9.3040	-1.4687	-0.7578	0.0415	-0.0869	-0.0421	33.3175	23.8454	2.3070	0.3857	0.5429	0.5056	-0.5485
1.27	-9.2636	-1.4856	-0.7747	0.0453	-0.0764	-0.0309	33.3647	24.0953	2.4618	0.3857	0.5428	0.5053	-0.5489
1.28	-9.3081	-1.4682	-0.7523	0.0456	-0.0680	-0.0145	33.2478	24.0543	2.2929	0.3857	0.5427	0.5050	-0.5492
1.29	-9.3477	-1.4301	-0.7288	0.0444	-0.0647	0.0032	33.2412	23.9644	2.4204	0.3858	0.5427	0.5047	-0.5495
1.3	-9.3370	-1.3916	-0.7119	0.0451	-0.0701	0.0195	33.3537	23.9895	2.3926	0.3859	0.5427	0.5043	-0.5498
1.31	-9.2992	-1.3284	-0.7093	0.0462	-0.0623	0.0292	33.2551	24.0758	2.1246	0.3860	0.5428	0.5038	-0.5500
1.32	-9.3534	-1.3068	-0.7043	0.0311	-0.0548	0.0357	32.9027	23.9479	2.2944	0.3862	0.5428	0.5034	-0.5502
1.33	-9.2882	-1.3133	-0.7649	0.0286	-0.0502	0.0400	33.3055	24.0487	2.2133	0.3864	0.5429	0.5031	-0.5503
1.34	-9.2605	-1.3290	-0.8176	0.0287	-0.0470	0.0470	33.3942	24.0931	2.3536	0.3866	0.5430	0.5027	-0.5504
1.35	-9.3405	-1.3653	-0.9124	0.0424	-0.0404	0.0490	33.1960	24.0595	2.3331	0.3868	0.5432	0.5022	-0.5506
1.36	-9.5132	-1.3025	-0.8983	0.0453	-0.0413	0.0528	33.2054	23.6528	2.3689	0.3869	0.5434	0.5018	-0.5507
1.37	-9.6728	-1.2930	-0.9089	0.0396	-0.0660	0.0545	33.3102	23.9013	2.2864	0.3871	0.5435	0.5013	-0.5509
1.38	-9.7131	-1.2588	-0.8414	0.0456	-0.0884	0.0511	33.4953	23.7990	2.1457	0.3874	0.5435	0.5008	-0.5511
1.39	-9.7780	-1.2585	-0.8266	0.0459	-0.1173	0.0537	33.3315	23.8426	2.1767	0.3877	0.5435	0.5002	-0.5514
1.4	-9.7118	-1.2000	-0.7433	0.0503	-0.1519	0.0476	33.1517	23.8680	1.9423	0.3881	0.5434	0.4996	-0.5519
1.41	-9.7146	-1.1326	-0.6968	0.0497	-0.1697	0.0396	33.3683	23.4585	1.7940	0.3885	0.5432	0.4989	-0.5524
1.42	-9.5442	-1.0785	-0.6420	0.0598	-0.2040	0.0290	33.4475	23.8239	1.7968	0.3890	0.5429	0.4982	-0.5530
1.43	-9.4794	-1.0087	-0.5542	0.0586	-0.2164	0.0127	33.3993	23.5611	1.8057	0.3894	0.5425	0.4974	-0.5537
1.44	-9.5103	-1.0245	-0.5206	0.0620	-0.2139	-0.0039	33.5757	23.4660	1.7962	0.3899	0.5421	0.4968	-0.5544
1.45	-9.4325	-1.0323	-0.4026	0.0533	-0.2229	-0.0201	33.5574	23.6606	1.8229	0.3903	0.5416	0.4962	-0.5551
1.46	-9.4902	-1.0979	-0.3931	0.0469	-0.2135	-0.0532	33.4916	23.7410	1.6424	0.3905	0.5410	0.4957	-0.5559
1.47	-9.3822	-1.1462	-0.3197	0.0501	-0.2153	-0.0745	33.5655	23.6571	1.4731	0.3908	0.5404	0.4952	-0.5568
1.48	-9.4725	-1.2049	-0.2637	0.0516	-0.1956	-0.0858	33.4223	23.6653	1.5768	0.3910	0.5398	0.4949	-0.5576
1.49	-9.4670	-1.2647	-0.2675	0.0581	-0.1900	-0.0904	33.4562	23.9398	1.2766	0.3910	0.5392	0.4945	-0.5584
1.5	-9.4175	-1.2608	-0.2020	0.0623	-0.1728	-0.1046	33.5240	23.8550	1.2587	0.3910	0.5387	0.4941	-0.5592
1.51	-9.5296	-1.3022	-0.2053	0.0599	-0.1555	-0.1059	33.3707	23.7547	1.4093	0.3910	0.5382	0.4938	-0.5600
1.52	-9.4911	-1.3337	-0.1870	0.0648	-0.1534	-0.1109	33.6290	23.9823	1.5221	0.3909	0.5377	0.4936	-0.5608
1.53	-9.5058	-1.3476	-0.1609	0.0529	-0.1389	-0.1109	33.7286	24.3002	1.5073	0.3908	0.5372	0.4933	-0.5615
1.54	-9.5221	-1.3778	-0.1878	0.0488	-0.1247	-0.1052	33.8541	24.3546	1.3538	0.3907	0.5367	0.4931	-0.5622
1.55	-9.5626	-1.4122	-0.1651	0.0454	-0.1176	-0.1070	33.2402	24.2373	1.1700	0.3906	0.5363	0.4930	-0.5628
1.56	-9.6171	-1.4336	-0.1848	0.0399	-0.1090	-0.0906	33.1833	24.2829	1.0256	0.3906	0.5359	0.4928	-0.5634
1.57	-9.6152	-1.4482	-0.1722	0.0322	-0.1158	-0.0878	32.8390	24.2359	0.9393	0.3905	0.5355	0.4926	-0.5640
1.58	-9.6368	-1.4807	-0.1714	0.0317	-0.1116	-0.0714	32.9608	23.8584	0.7890	0.3905	0.5351	0.4924	-0.5645
1.59	-9.5822	-1.4914	-0.1686	0.0185	-0.1121	-0.0671	33.3227	23.8792	0.7921	0.3906	0.5347	0.4922	-0.5649
1.6	-9.5814	-1.5370	-0.1491	0.0113	-0.1142	-0.0540	33.2598	23.8537	0.7707	0.3908	0.5344	0.4921	-0.5654
1.61	-9.5802	-1.5459	-0.1571	0.0075	-0.1053	-0.0371	33.4194	23.9043	0.8225	0.3910	0.5340	0.4919	-0.5657
1.62	-9.5521	-1.5608	-0.1426	0.0135	-0.1010	-0.0306	33.0209	24.0230	0.6727	0.3911	0.5338	0.4916	-0.5661
1.63	-9.5605	-1.5745	-0.1317	0.0085	-0.1005	-0.0116	32.9953	24.1534	0.8114	0.3913	0.5335	0.4913	-0.5664
1.64	-9.6017	-1.5905	-0.1485	0.0084	-0.0923	0.0011	33.1454	23.9846	0.5950	0.3915	0.5334	0.4910	-0.5667
1.65	-9.5862	-1.5915	-0.1360	0.0050	-0.0872	0.0094	33.0311	24.1426	0.5200	0.3918	0.5332	0.4907	-0.5669
1.66	-9.6123	-1.5966	-0.1313	0.0050	-0.0904	0.0189	32.9942	23.9894	0.6431	0.3921	0.5330	0.4904	-0.5671
1.67	-9.6053	-1.5859	-0.1129	0.0173	-0.0974	0.0358	33.1143	23.7320	0.4768	0.3924	0.5329	0.4899	-0.5674
1.68	-9.5797	-1.5685	-0.0954	0.0231	-0.0875	0.0419	33.0911	23.9450	0.5256	0.3927	0.5328	0.4895	-0.5677
1.69	-9.5612	-1.5534	-0.0856	0.0261	-0.0907	0.0458	33.1064	24.2040	0.4898	0.3930	0.5328	0.4890	-0.5680
1.7	-9.5380	-1.5304	-0.0632	0.0429	-0.0928	0.0487	33.0945	24.1632	0.5104	0.3933	0.5328	0.4885	-0.5682
1.71	-9.4875	-1.5018	-0.0553	0.0453	-0.1030	0.0562	33.1052	23.8613	0.5028	0.3936	0.5328	0.4879	-0.5685
1.72	-9.4202	-1.4688	-0.0423	0.0610	-0.0985	0.0571	33.0877	24.0942	0.5097	0.3939	0.5328	0.4873	-0.5688
1.73	-9.4105	-1.4353	-0.0392	0.0717	-0.0881	0.0621	33.1256	24.0962	0.5039	0.3941	0.5329	0.4867	-0.5691
1.74	-9.4283	-1.4212	-0.0596	0.0764	-0.0814	0.0641	32.9669	23.8074	0.4226	0.3943	0.5331	0.4860	-0.5693
1.75	-9.4445	-1.3838	-0.0463	0.0865	-0.0841	0.0678	33.2084	24.1751	0.3824	0.3945	0.5332	0.4853	-0.5696
1.76	-9.4933	-1.3496	-0.0466	0.0974	-0.0815	0.0688	33.0564	24.0049	0.2597	0.3947	0.5334	0.4846	-0.5699
1.77	-9.5091	-1.3124	-0.0245	0.0975	-0.0940	0.0745	33.0386	23.7977	0.1269	0.3949	0.5336	0.4839	-0.5703
1.78	-9.5358	-1.2719	-0.0005	0.1031	-0.0968	0.0725	33.4696	23.4017	0.0713	0.3951	0.5338	0.4831	-0.5706
1.79	-9.4872	-1.2408	0.0024	0.1098	-0.0970	0.0777	33.5631	23.3771	-0.0032	0.3953	0.5339	0.4823	-0.5709
1.8	-9.4966	-1.2123	0.0351	0.1110	-0.0995	0.0734	33.4775	23.3841	-0.2615	0.3956	0.5341	0.4816	-0.5713
1.81	-9.5474	-1.2056	0.0250	0.1053	-0.1053	0.0691	33.3356	23.2957	-0.0865	0.3958	0.5342	0.4808	-0.5717
1.82	-9.5113	-1.1714	0.0390	0.1018	-0.1182	0.0732	33.2625	23.4989	-0.1577	0.3960	0.5343	0.4800	-0.5721
1.83	-9.5356	-1.1582	0.0313	0.1020	-0.1192	0.0738	33.4706	23.5006	-0.2763	0.3963	0.5344	0.4792	-0.5725
1.84	-9.4970	-1.1521	0.0110	0.0975	-0.1152	0.0738	33.3599	23.5284	-0.4104	0.3965	0.5345	0.4784	-0.5729
1.85	-9.4607	-1.1207	-0.0071	0.0988	-0.1154	0.0686	33.3617	23.4755	-0.3973	0.3968	0.5346	0.4776	-0.5733
1.86	-9.4264	-1.1146	-0.0630	0.1024	-0.1167	0.0694	33.5099	23.4413	-0.2573	0.3970	0.5347	0.4768	-0.5737
1.87	-9.4191	-1.0996	-0.1098	0.1091	-0.0958	0.0720	33.5702	23.5573	-0.3989	0.3972	0.5349	0.4760	-0.5741
1.88	-9.4572	-1.0724	-0.1889	0.0948	-0.0861	0.0699	33.4235	23.3916	-0.4697	0.3974	0.5351	0.4753	-0.5744
1.89	-9.5953	-1.0579	-0.1764	0.1065	-0.1001	0.0691	33.4816	23.4472	-0.6682	0.3975	0.5352	0.4745	-0.5747
1.9	-9.8498	-1.0547	-0.1597	0.1002	-0.1165	0.0612	33.3727	23.3657	-0.6010	0.3977	0.5353	0.4737	-0.5752
1.91	-9.9238	-1.0521	-0.1172	0.0966	-0.1431	0.0555	33.4132	23.3008	-0.6517	0.3980	0.5353	0.4729	-0.5756
1.92	-9.8647	-1.0284	-0.0915	0.0954	-0.1629	0.0544	33.6674	23.4646	-0.7729	0.3983	0.5352	0.4721	-0.5762
1.93	-9.7776	-1.0376	-0.0804	0.0942	-0.1866	0.0418	33.6180	23.3521	-0.8132	0.3986	0.5351	0.4712	-0.5768
1.94	-9.7029	-1.0460	-0.0483	0.0863	-0.2131	0.0443	33.8372	23.1597	-1.0657	0.3991	0.5348	0.4704	-0.5775
1.95	-9.6114	-1.0456	-0.0427	0.0932	-0.2213	0.0426	33.7055	23.4884	-1.0296	0.3995	0.5345	0.4694	-0.5782
1.96	-9.5000	-1.0617	-0.0271	0.0982	-0.2285	0.0462	33.5013	23.1139	-1.0437	0.3999	0.5342	0.4685	-0.5789
1.97	-9.4970	-1.0445	0.0098	0.0953	-0.2306	0.0443	33.7336	22.7788	-1.0374	0.4004	0.5339	0.4676	-0.5796
1.98	-9.4935	-1.0259	0.0459	0.0989	-0.2330	0.0399	33.9207	22.8097	-1.2897	0.4009	0.5335	0.4667	-0.5804
1.99	-9.5288	-1.0450	0.0701	0.1043	-0.2197	0.0352	33.7692	22.8065	-1.5096	0.4013	0.5332	0.4658	-0.5811
2	-9.5545	-1.0376	0.1124	0.1094	-0.2317	0.0358	33.5823	22.9065	-1.4892	0.4017	0.5329	0.4648	-0.5819
2.01	-9.5801	-1.0385	0.1467	0.1093	-0.2403	0.0280	33.6326	22.8880	-1.4921	0.4020	0.5326	0.4639	-0.5827
2.02	-9.5384	-1.0250	0.1932	0.1155	-0.2432	0.0284	33.7327	22.8644	-1.4352	0.4025	0.5322	0.4629	-0.5835
2.03	-9.5407	-1.0067	0.2269	0.1188	-0.2493	0.0312	34.2281	23.1490	-1.2195	0.4029	0.5319	0.4619	-0.5844
2.04	-9.4682	-0.9967	0.2460	0.1226	-0.2549	0.0308	34.3291	23.2375	-1.2745	0.4033	0.5315	0.4609	-0.5852
2.05	-9.4112	-0.9462	0.2989	0.1184	-0.2525	0.0300	33.7514	23.2106	-1.9772	0.4036	0.5311	0.4598	-0.5861
2.06	-9.4442	-0.9364	0.3211	0.1090	-0.2493	0.0265	33.7221	23.3553	-1.8913	0.4040	0.5307	0.4589	-0.5870
2.07	-9.4121	-0.9096	0.3693	0.1101	-0.2482	0.0232	33.5057	22.9598	-1.9609	0.4044	0.5304	0.4579	-0.5878
2.08	-9.4414	-0.8772	0.4108	0.0990	-0.2511	0.0190	33.5214	22.8725	-1.9376	0.4048	0.5299	0.4569	-0.5887
2.09	-9.4796	-0.8731	0.4405	0.1000	-0.2491	0.0176	33.5551	22.9055	-2.0001	0.4052	0.5295	0.4560	-0.5895
2.1	-9.5298	-0.8556	0.4991	0.0926	-0.2464	0.0171	33.7802	22.8813	-2.3049	0.4056	0.5291	0.4551	-0.5903
2.11	-9.5115	-0.8576	0.5019	0.0733	-0.2516	0.0165	33.5273	22.9089	-2.2611	0.4060	0.5286	0.4542	-0.5911
2.12	-9.4061	-0.8202	0.5879	0.0725	-0.2564	0.0132	33.4251	22.8307	-2.5022	0.4065	0.5281	0.4533	-0.5919
2.13	-9.4981	-0.8493	0.5823	0.0573	-0.2532	0.0175	33.7311	22.6900	-2.3739	0.4070	0.5276	0.4525	-0.5927
2.14	-9.4454	-0.8528	0.6168	0.0527	-0.2519	0.0198	33.5723	22.8575	-2.4761	0.4075	0.5270	0.4517	-0.5934
2.15	-9.4186	-0.8371	0.6551	0.0474	-0.2446	0.0182	33.9542	22.8782	-2.7907	0.4080	0.5265	0.4509	-0.5941
2.16	-9.3478	-0.8695	0.6515	0.0424	-0.2480	0.0221	33.6602	22.6700	-2.8298	0.4085	0.5260	0.4501	-0.5948
2.17	-9.3592	-0.8657	0.6938	0.0324	-0.2340	0.0263	33.7236	22.7634	-3.0743	0.4091	0.5255	0.4494	-0.5955
2.18	-9.3703	-0.8538	0.6887	0.0281	-0.2259	0.0296	33.7562	22.6028	-3.0696	0.4097	0.5250	0.4487	-0.5960
2.19	-9.3987	-0.8540	0.7409	0.0207	-0.2204	0.0378	33.6576	22.3131	-3.1576	0.4103	0.5245	0.4480	-0.5965
2.2	-9.4289	-0.8332	0.7582	0.0213	-0.2166	0.0370	33.7008	22.5173	-3.1201	0.4109	0.5240	0.4473	-0.5971
2.21	-9.4162	-0.8282	0.7859	0.0222	-0.2112	0.0387	33.6863	22.7103	-3.2544	0.4114	0.5236	0.4466	-0.5976
2.22	-9.4194	-0.8371	0.7821	0.0175	-0.1967	0.0363	33.8420	22.7597	-3.2453	0.4120	0.5232	0.4460	-0.5980
2.23	-9.4330	-0.8432	0.7946	0.0226	-0.1900	0.0335	33.6494	22.4253	-3.4305	0.4125	0.5228	0.4453	-0.5985
2.24	-9.4376	-0.8403	0.7800	0.0242	-0.1865	0.0395	33.8247	22.4295	-3.4854	0.4130	0.5224	0.4447	-0.5990
2.25	-9.4893	-0.8307	0.7891	0.0186	-0.1860	0.0402	33.6944	22.5041	-3.2731	0.4135	0.5220	0.4441	-0.5994
2.26	-9.5149	-0.8269	0.7872	0.0227	-0.1760	0.0418	33.5649	22.6785	-3.5891	0.4140	0.5217	0.4435	-0.5998
2.27	-9.5220	-0.8034	0.8175	0.0341	-0.1801	0.0511	33.6038	22.5066	-3.5990	0.4145	0.5214	0.4428	-0.6002
2.28	-9.5229	-0.8045	0.8109	0.0296	-0.1793	0.0492	33.7130	22.5396	-3.7022	0.4150	0.5211	0.4421	-0.6006
2.29	-9.4294	-0.7849	0.8278	0.0278	-0.1770	0.0455	33.7968	22.3666	-3.6786	0.4155	0.5208	0.4414	-0.6010
2.3	-9.3963	-0.7530	0.8359	0.0329	-0.1724	0.0472	33.7632	22.3498	-3.6802	0.4160	0.5206	0.4407	-0.6014
2.31	-9.4026	-0.7311	0.8570	0.0375	-0.1603	0.0439	33.7792	22.3625	-3.7616	0.4164	0.5203	0.4401	-0.6018
2.32	-9.3894	-0.7178	0.8531	0.0392	-0.1611	0.0421	33.7743	22.2162	-4.0723	0.4168	0.5201	0.4394	-0.6023
2.33	-9.4339	-0.7111	0.8626	0.0303	-0.1567	0.0388	33.7610	22.3495	-4.1436	0.4172	0.5198	0.4388	-0.6026
2.34	-9.5038	-0.7059	0.8624	0.0384	-0.1528	0.0372	33.8489	22.2799	-3.8412	0.4176	0.5196	0.4382	-0.6030
2.35	-9.4801	-0.6784	0.8861	0.0342	-0.1591	0.0344	33.9834	22.2541	-3.8682	0.4180	0.5193	0.4376	-0.6034
2.36	-9.4700	-0.6556	0.9068	0.0370	-0.1584	0.0406	33.7653	22.2708	-4.1854	0.4184	0.5191	0.4369	-0.6038
2.37	-9.4306	-0.6482	0.9156	0.0349	-0.1635	0.0362	33.8403	22.0013	-4.2478	0.4188	0.5188	0.4363	-0.6042
2.38	-9.3866	-0.6184	0.9639	0.0252	-0.1666	0.0379	33.8752	21.9949	-4.2103	0.4193	0.5184	0.4358	-0.6046
2.39	-9.3544	-0.6109	0.9605	0.0234	-0.1605	0.0324	33.7341	22.2277	-4.3695	0.4198	0.5182	0.4352	-0.6049
2.4	-9.2733	-0.5879	1.0176	0.0191	-0.1635	0.0322	34.0001	22.3046	-4.2735	0.4202	0.5178	0.4346	-0.6053
2.41	-9.3249	-0.5884	1.0427	0.0087	-0.1536	0.0214	33.7690	22.1011	-4.4960	0.4206	0.5175	0.4341	-0.6057
2.42	-9.3664	-0.5792	1.0805	-0.0011	-0.1470	0.0181	33.7741	21.9725	-4.6179	0.4210	0.5172	0.4336	-0.6060
2.43	-9.3792	-0.5647	1.1410	-0.0037	-0.1455	0.0154	34.0263	22.0166	-4.4345	0.4215	0.5168	0.4332	-0.6063
2.44	-9.3861	-0.5547	1.1426	-0.0040	-0.1409	0.0054	33.8450	22.1966	-4.3962	0.4218	0.5164	0.4328	-0.6066
2.45	-9.3907	-0.5630	1.1714	-0.0222	-0.1336	-0.0075	33.8826	22.0688	-4.5046	0.4222	0.5160	0.4325	-0.6069
2.46	-9.3745	-0.5797	1.1725	-0.0310	-0.1248	-0.0106	33.8188	22.0063	-4.6278	0.4226	0.5156	0.4323	-0.6072
2.47	-9.3489	-0.5954	1.1929	-0.0352	-0.1213	-0.0101	33.7837	21.9307	-4.5595	0.4230	0.5152	0.4321	-0.6074
2.48	-9.3660	-0.6215	1.1962	-0.0421	-0.1172	-0.0130	33.9711	21.9656	-4.6904	0.4234	0.5147	0.4320	-0.6076
2.49	-9.3320	-0.6329	1.2092	-0.0517	-0.1130	-0.0111	33.8562	22.0999	-4.6848	0.4238	0.5143	0.4319	-0.6078
2.5	-9.2824	-0.6582	1.2142	-0.0573	-0.1002	-0.0234	33.5746	22.0972	-4.5702	0.4241	0.5139	0.4318	-0.6079
2.51	-9.2574	-0.6572	1.2174	-0.0585	-0.0888	-0.0204	33.6897	22.0080	-4.6397	0.4244	0.5136	0.4317	-0.6081
2.52	-9.2357	-0.6812	1.2282	-0.0630	-0.0868	-0.0153	34.0157	22.0657	-4.8329	0.4248	0.5132	0.4317	-0.6082
2.53	-9.2682	-0.6790	1.2373	-0.0704	-0.0748	-0.0151	34.4334	22.2079	-4.4883	0.4252	0.5128	0.4318	-0.6082
2.54	-9.3076	-0.7120	1.2434	-0.0751	-0.0701	-0.0132	34.7706	22.1402	-4.3467	0.4256	0.5124	0.4319	-0.6081
2.55	-9.3709	-0.7326	1.2612	-0.0760	-0.0552	-0.0200	34.1661	22.0962	-4.9702	0.4259	0.5120	0.4320	-0.6081
2.56	-9.4478	-0.7650	1.2637	-0.0699	-0.0500	-0.0195	33.9633	22.3224	-4.9370	0.4262	0.5118	0.4320	-0.6081
2.57	-9.4586	-0.7842	1.2812	-0.0620	-0.0516	-0.0187	33.7758	22.0552	-4.8489	0.4265	0.5115	0.4321	-0.6081
2.58	-9.4345	-0.7986	1.2749	-0.0590	-0.0581	-0.0208	33.7692	21.8417	-4.9091	0.4268	0.5112	0.4322	-0.6081
2.59	-9.3789	-0.8148	1.2806	-0.0588	-0.0513	-0.0216	33.7706	22.0145	-4.7609	0.4270	0.5109	0.4322	-0.6081
2.6	-9.3251	-0.8415	1.2743	-0.0526	-0.0462	-0.0181	33.7702	21.9975	-4.9232	0.4272	0.5107	0.4322	-0.6082
2.61	-9.3840	-0.8548	1.2990	-0.0323	-0.0440	-0.0135	33.7727	21.9694	-4.7994	0.4274	0.5105	0.4322	-0.6082
2.62	-9.4214	-0.8629	1.2935	-0.0281	-0.0360	-0.0093	33.7574	21.8554	-4.8470	0.4276	0.5103	0.4322	-0.6082
2.63	-9.3932	-0.8397	1.3208	-0.0096	-0.0280	-0.0078	33.8675	22.1098	-4.8824	0.4278	0.5102	0.4321	-0.6082
2.64	-9.4182	-0.8348	1.3055	0.0069	-0.0135	-0.0075	33.7411	22.1892	-5.0201	0.4278	0.5103	0.4320	-0.6083
2.65	-9.4158	-0.8067	1.3037	0.0189	-0.0177	-0.0072	33.6221	22.1363	-4.8797	0.4278	0.5103	0.4318	-0.6084
2.66	-9.4553	-0.7882	1.3014	0.0147	-0.0053	-0.0076	33.5053	21.9662	-4.9693	0.4278	0.5104	0.4317	-0.6084
2.67	-9.4571	-0.7785	1.2926	0.0362	-0.0009	-0.0068	33.5790	22.1158	-4.9564	0.4277	0.5105	0.4315	-0.6085
2.68	-9.4439	-0.7545	1.2982	0.0438	0.0002	-0.0105	33.6521	22.1721	-4.7434	0.4276	0.5106	0.4313	-0.6086
2.69	-9.4680	-0.7368	1.2997	0.0483	0.0160	-0.0084	33.8667	21.9818	-5.0534	0.4275	0.5108	0.4311	-0.6087
2.7	-9.4768	-0.7119	1.2825	0.0539	0.0093	-0.0053	33.4475	22.0053	-5.0852	0.4273	0.5110	0.4309	-0.6088
2.71	-9.4340	-0.6573	1.2829	0.0614	0.0061	-0.0063	33.6614	21.9741	-5.0172	0.4272	0.5112	0.4306	-0.6089
2.72	-9.4637	-0.6424	1.2728	0.0485	0.0120	-0.0064	33.9941	21.8718	-5.0011	0.4271	0.5114	0.4305	-0.6089
2.73	-9.4170	-0.6274	1.2613	0.0487	-0.0022	-0.0067	33.8387	21.9888	-5.3965	0.4270	0.5115	0.4303	-0.6090
2.74	-9.4150	-0.5815	1.3081	0.0489	-0.0060	-0.0074	33.9763	22.0097	-5.1035	0.4269	0.5117	0.4301	-0.6091
2.75	-9.4986	-0.5919	1.2929	0.0489	-0.0120	-0.0085	33.9071	21.8364	-5.0541	0.4269	0.5117	0.4299	-0.6092
2.76	-9.4410	-0.5662	1.3318	0.0402	-0.0145	-0.0108	33.8407	21.8525	-5.0501	0.4268	0.5118	0.4297	-0.6093
2.77	-9.4421	-0.5523	1.3324	0.0436	-0.0135	-0.0125	33.8615	22.0275	-5.0782	0.4267	0.5119	0.4294	-0.6094
2.78	-9.4126	-0.5786	1.3165	0.0330	-0.0146	-0.0137	33.9716	21.8659	-5.0264	0.4267	0.5120	0.4293	-0.6095
2.79	-9.3424	-0.5779	1.3362	0.0222	-0.0137	-0.0252	33.7513	21.4839	-4.9496	0.4266	0.5120	0.4291	-0.6097
2.8	-9.4063	-0.6205	1.3464	0.0223	-0.0123	-0.0316	33.8534	21.7800	-4.9429	0.4266	0.5120	0.4291	-0.6098
2.81	-9.4222	-0.6621	1.3524	0.0172	-0.0030	-0.0326	33.8495	21.9379	-5.0919	0.4265	0.5120	0.4290	-0.6099
2.82	-9.3991	-0.6820	1.3551	0.0214	-0.0081	-0.0322	33.7721	21.8897	-5.1270	0.4264	0.5120	0.4289	-0.6100
2.83	-9.4045	-0.7301	1.3497	0.0186	-0.0028	-0.0305	33.9027	21.9192	-5.0667	0.4264	0.5120	0.4289	-0.6100
2.84	-9.3982	-0.7556	1.3510	0.0195	0.0007	-0.0211	33.7717	21.8948	-5.2857	0.4263	0.5121	0.4288	-0.6101
2.85	-9.4399	-0.7543	1.3574	0.0209	0.0000	-0.0200	33.6468	21.9154	-5.1095	0.4262	0.5122	0.4287	-0.6102
2.86	-9.4485	-0.7803	1.3341	0.0196	0.0023	-0.0174	33.7389	22.1791	-5.1987	0.4261	0.5122	0.4286	-0.6102
2.87	-9.3626	-0.7470	1.3672	0.0262	0.0012	-0.0100	33.7727	21.8876	-5.0537	0.4261	0.5123	0.4284	-0.6103
2.88	-9.4415	-0.7650	1.3567	0.0232	0.0116	-0.0093	33.7858	22.0176	-5.1490	0.4260	0.5125	0.4283	-0.6103
2.89	-9.4070	-0.7705	1.3609	0.0261	0.0005	-0.0062	33.7244	22.0593	-5.2881	0.4259	0.5126	0.4281	-0.6104
2.9	-9.3978	-0.7526	1.3676	0.0325	0.0043	-0.0107	33.7239	21.6309	-5.1907	0.4259	0.5127	0.4280	-0.6104
2.91	-9.3898	-0.7471	1.3492	0.0431	0.0107	-0.0096	34.0856	21.6356	-5.3597	0.4258	0.5128	0.4279	-0.6104
2.92	-9.4070	-0.7428	1.3608	0.0411	0.0152	-0.0060	33.8980	21.8419	-5.1904	0.4257	0.5130	0.4278	-0.6104
2.93	-9.4068	-0.7447	1.3477	0.0376	0.0161	-0.0092	34.1479	21.8101	-5.1805	0.4257	0.5131	0.4277	-0.6104
2.94	-9.3977	-0.7306	1.3504	0.0453	0.0211	-0.0052	34.0063	21.8372	-5.2485	0.4256	0.5133	0.4275	-0.6104
2.95	-9.3866	-0.7157	1.3304	0.0463	0.0190	-0.0074	33.8206	21.7219	-5.3275	0.4255	0.5135	0.4274	-0.6104
2.96	-9.3699	-0.6974	1.3279	0.0466	0.0249	-0.0040	33.9958	21.7346	-5.3252	0.4254	0.5137	0.4273	-0.6104
2.97	-9.3637	-0.6956	1.3136	0.0475	0.0195	-0.0059	34.0449	21.7234	-5.3605	0.4253	0.5138	0.4271	-0.6104
2.98	-9.3646	-0.6678	1.3308	0.0466	0.0194	-0.0055	33.7324	21.7429	-5.1756	0.4252	0.5140	0.4270	-0.6105
2.99	-9.4013	-0.6709	1.3142	0.0369	0.0238	-0.0060	33.9069	21.7079	-5.1205	0.4251	0.5142	0.4269	-0.6104
3	-9.3723	-0.6663	1.3269	0.0382	0.0279	-0.0052	33.7676	21.7833	-5.1709	0.4250	0.5144	0.4268	-0.6104
3.01	-9.3851	-0.6592	1.3175	0.0290	0.0381	-0.0018	33.6773	22.0101	-5.1299	0.4249	0.5147	0.4267	-0.6104
3.02	-9.3827	-0.6526	1.3043	0.0251	0.0345	-0.0065	34.0253	21.9882	-5.1848	0.4248	0.5149	0.4266	-0.6103
3.03	-9.4051	-0.6430	1.2937	0.0212	0.0468	0.0014	34.3184	22.0018	-5.0965	0.4247	0.5151	0.4265	-0.6102
3.04	-9.4079	-0.6398	1.2639	0.0206	0.0480	-0.0014	34.5327	21.9802	-4.9716	0.4246	0.5153	0.4265	-0.6101
3.05	-9.4418	-0.6279	1.2501	0.0203	0.0571	-0.0071	33.9260	21.9793	-5.2794	0.4245	0.5156	0.4265	-0.6100
3.06	-9.4690	-0.6254	1.2177	0.0189	0.0536	-0.0044	33.7408	22.1104	-4.9405	0.4243	0.5159	0.4265	-0.6099
3.07	-9.4682	-0.6098	1.2115	0.0176	0.0504	-0.0019	33.9212	21.8159	-5.0255	0.4242	0.5161	0.4265	-0.6097
3.08	-9.4952	-0.6156	1.1785	0.0062	0.0525	-0.0076	33.8577	21.6966	-4.9673	0.4242	0.5163	0.4265	-0.6096
3.09	-9.5093	-0.6115	1.1737	0.0010	0.0493	-0.0066	34.0181	21.8388	-5.1635	0.4241	0.5165	0.4265	-0.6095
3.1	-9.5247	-0.6106	1.1529	-0.0043	0.0384	-0.0069	34.1284	21.8204	-5.3351	0.4240	0.5167	0.4265	-0.6094
3.11	-9.5133	-0.5933	1.1469	-0.0043	0.0328	-0.0069	34.0223	21.6911	-5.1816	0.4240	0.5168	0.4266	-0.6092
3.12	-9.5123	-0.5851	1.1417	-0.0056	0.0324	-0.0074	33.9603	21.8310	-5.0389	0.4240	0.5170	0.4266	-0.6091
3.13	-9.4956	-0.5769	1.1381	-0.0079	0.0236	-0.0129	34.0321	21.8226	-5.2294	0.4239	0.5171	0.4266	-0.6090
3.14	-9.5044	-0.5792	1.1319	-0.0093	0.0272	-0.0180	34.0160	21.6124	-5.1352	0.4239	0.5171	0.4267	-0.6089
3.15	-9.4755	-0.5895	1.1293	-0.0115	0.0206	-0.0255	33.9180	21.8531	-4.9085	0.4239	0.5172	0.4267	-0.6089
3.16	-9.5101	-0.5895	1.1440	-0.0218	0.0073	-0.0339	33.9492	21.7403	-5.2771	0.4238	0.5172	0.4268	-0.6089
3.17	-9.5419	-0.6301	1.1321	-0.0263	0.0101	-0.0375	34.0427	21.7319	-5.2925	0.4238	0.5171	0.4269	-0.6089
3.18	-9.4745	-0.6317	1.1473	-0.0258	-0.0110	-0.0459	34.1570	21.7499	-5.1087	0.4238	0.5170	0.4270	-0.6089
3.19	-9.5022	-0.6543	1.1347	-0.0280	-0.0050	-0.0477	33.8439	21.9665	-5.1022	0.4238	0.5169	0.4271	-0.6089
3.2	-9.4266	-0.6782	1.1396	-0.0313	-0.0145	-0.0515	33.9435	22.0468	-5.0889	0.4238	0.5168	0.4272	-0.6090
3.21	-9.4067	-0.6793	1.1664	-0.0299	-0.0095	-0.0602	34.1712	21.8290	-5.1229	0.4238	0.5166	0.4273	-0.6090
3.22	-9.4251	-0.7033	1.1525	-0.0298	-0.0057	-0.0584	33.9002	21.5766	-5.1840	0.4238	0.5164	0.4275	-0.6091
3.23	-9.3900	-0.6982	1.1825	-0.0304	-0.0092	-0.0568	33.8059	22.0571	-4.9680	0.4237	0.5163	0.4276	-0.6091
3.24	-9.4733	-0.7166	1.1744	-0.0322	0.0092	-0.0592	34.1012	21.7696	-5.0453	0.4237	0.5162	0.4278	-0.6091
3.25	-9.4837	-0.7457	1.1829	-0.0291	0.0126	-0.0584	33.8123	21.9069	-5.0665	0.4236	0.5161	0.4280	-0.6091
3.26	-9.4633	-0.7542	1.1825	-0.0323	0.0055	-0.0527	33.8173	22.0389	-4.9952	0.4236	0.5160	0.4282	-0.6091
3.27	-9.4541	-0.7727	1.1650	-0.0291	0.0028	-0.0434	33.8676	21.9848	-5.0074	0.4236	0.5159	0.4283	-0.6091
3.28	-9.4248	-0.7798	1.1572	-0.0288	0.0064	-0.0347	33.8717	22.0108	-4.9185	0.4236	0.5159	0.4284	-0.6091
3.29	-9.4186	-0.7746	1.1565	-0.0310	-0.0054	-0.0392	33.9591	22.0067	-5.0399	0.4236	0.5158	0.4285	-0.6091
3.3	-9.4233	-0.7773	1.1665	-0.0288	-0.0048	-0.0413	34.0025	21.9519	-5.2815	0.4236	0.5157	0.4285	-0.6091
3.31	-9.4484	-0.7913	1.1626	-0.0262	0.0072	-0.0396	34.0628	21.7855	-5.1849	0.4236	0.5156	0.4287	-0.6091
3.32	-9.4288	-0.8000	1.1632	-0.0239	0.0122	-0.0394	33.8801	22.0001	-4.9497	0.4235	0.5156	0.4288	-0.6091
3.33	-9.4181	-0.7925	1.1713	-0.0160	0.0133	-0.0354	33.8552	21.9458	-5.0438	0.4235	0.5156	0.4288	-0.6091
3.34	-9.4356	-0.7940	1.1607	-0.0081	0.0131	-0.0372	33.8470	21.8951	-4.9725	0.4234	0.5156	0.4289	-0.6091
3.35	-9.4233	-0.7940	1.1694	-0.0063	0.0130	-0.0320	33.9720	22.0232	-5.0494	0.4233	0.5156	0.4289	-0.6091
3.36	-9.4378	-0.7939	1.1655	-0.0008	0.0194	-0.0332	34.0595	22.0008	-5.0843	0.4232	0.5157	0.4290	-0.6091
3.37	-9.4507	-0.7833	1.1585	-0.0041	0.0191	-0.0320	33.7579	21.9890	-4.9164	0.4231	0.5157	0.4290	-0.6091
3.38	-9.4437	-0.7887	1.1653	-0.0044	0.0186	-0.0335	33.7832	22.0988	-4.9057	0.4230	0.5158	0.4290	-0.6090
3.39	-9.4654	-0.7883	1.1703	0.0000	0.0237	-0.0304	33.8527	22.1961	-4.9519	0.4229	0.5159	0.4291	-0.6090
3.4	-9.4470	-0.7777	1.1653	0.0083	0.0238	-0.0316	33.9241	22.1757	-5.0311	0.4228	0.5159	0.4291	-0.6090
3.41	-9.4298	-0.7614	1.1848	0.0130	0.0173	-0.0295	33.8953	22.1661	-5.0074	0.4227	0.5160	0.4290	-0.6091
3.42	-9.4542	-0.7728	1.1675	0.0140	0.0236	-0.0295	33.7349	22.2942	-5.0122	0.4226	0.5161	0.4290	-0.6091
3.43	-9.3817	-0.7659	1.1708	0.0102	0.0253	-0.0317	33.7943	22.2195	-4.8889	0.4224	0.5163	0.4290	-0.6091
3.44	-9.3791	-0.7390	1.1602	0.0095	0.0178	-0.0269	33.7404	22.1714	-4.9521	0.4223	0.5163	0.4290	-0.6091
3.45	-9.4157	-0.7316	1.1586	0.0093	0.0213	-0.0219	33.8759	22.1084	-4.8118	0.4222	0.5165	0.4290	-0.6091
3.46	-9.4644	-0.6875	1.1762	0.0052	0.0111	-0.0283	33.8385	21.9575	-4.8320	0.4221	0.5165	0.4290	-0.6091
3.47	-9.5107	-0.6550	1.1948	-0.0045	0.0068	-0.0212	33.9027	21.9052	-5.1737	0.4221	0.5166	0.4289	-0.6091
3.48	-9.5116	-0.6191	1.2091	-0.0179	0.0027	-0.0165	33.9849	22.2075	-5.1399	0.4221	0.5166	0.4289	-0.6091
3.49	-9.4906	-0.5987	1.2174	-0.0346	-0.0123	-0.0182	33.8233	22.0560	-5.0697	0.4222	0.5165	0.4290	-0.6091
3.5	-9.4705	-0.5878	1.2269	-0.0304	-0.0123	-0.0131	33.7642	22.0073	-5.0071	0.4223	0.5164	0.4290	-0.6090
3.51	-9.4628	-0.6044	1.2176	-0.0504	-0.0098	-0.0127	33.7489	21.9569	-5.0018	0.4225	0.5164	0.4290	-0.6090
3.52	-9.4278	-0.6223	1.2135	-0.0583	-0.0125	-0.0099	33.9200	22.2097	-4.9700	0.4226	0.5163	0.4291	-0.6089
3.53	-9.4106	-0.6519	1.2145	-0.0570	-0.0121	-0.0122	34.2097	22.1306	-4.7194	0.4228	0.5161	0.4292	-0.6088
3.54	-9.4145	-0.6623	1.2189	-0.0567	-0.0177	-0.0135	34.3536	21.9809	-4.5826	0.4231	0.5160	0.4293	-0.6087
3.55	-9.4128	-0.6607	1.2318	-0.0572	-0.0177	-0.0100	33.9141	22.1221	-4.7398	0.4233	0.5158	0.4294	-0.6086
3.56	-9.4027	-0.6506	1.2378	-0.0547	-0.0131	-0.0151	33.8008	22.4596	-4.8479	0.4235	0.5157	0.4295	-0.6085
3.57	-9.4102	-0.6589	1.2511	-0.0530	-0.0113	-0.0213	33.6002	22.6013	-4.9480	0.4236	0.5156	0.4296	-0.6084
3.58	-9.4289	-0.6764	1.2550	-0.0504	-0.0099	-0.0222	33.6568	22.2021	-4.6255	0.4237	0.5155	0.4297	-0.6084
3.59	-9.4202	-0.6656	1.2728	-0.0333	-0.0077	-0.0211	33.7828	21.9384	-4.7628	0.4238	0.5154	0.4297	-0.6083
3.6	-9.4240	-0.6573	1.2888	-0.0344	-0.0051	-0.0293	33.8077	22.1936	-4.7738	0.4239	0.5153	0.4298	-0.6083
3.61	-9.4246	-0.6716	1.2898	-0.0312	-0.0103	-0.0347	33.5797	22.0717	-4.7233	0.4239	0.5153	0.4298	-0.6083
3.62	-9.4068	-0.6733	1.2901	-0.0305	-0.0122	-0.0336	33.7563	22.1048	-4.6232	0.4240	0.5151	0.4299	-0.6084
3.63	-9.4096	-0.6638	1.2899	-0.0279	-0.0060	-0.0440	33.7940	22.1694	-4.8775	0.4239	0.5150	0.4300	-0.6084
3.64	-9.4030	-0.6743	1.2828	-0.0228	-0.0106	-0.0437	33.6845	22.1105	-4.7279	0.4239	0.5150	0.4300	-0.6084
3.65	-9.4202	-0.6796	1.2858	-0.0306	-0.0041	-0.0486	33.8500	22.0073	-4.7999	0.4239	0.5149	0.4301	-0.6085
3.66	-9.4393	-0.6948	1.2669	-0.0268	0.0067	-0.0543	33.9765	21.8588	-4.9577	0.4239	0.5147	0.4303	-0.6085
3.67	-9.4289	-0.7003	1.2677	-0.0267	0.0104	-0.0541	33.8370	21.9891	-4.9192	0.4238	0.5147	0.4304	-0.6085
3.68	-9.4440	-0.7169	1.2519	-0.0279	0.0124	-0.0564	33.8041	22.0739	-4.8481	0.4237	0.5146	0.4306	-0.6085
3.69	-9.4284	-0.7351	1.2385	-0.0296	0.0242	-0.0578	33.8894	22.0401	-4.7981	0.4236	0.5146	0.4308	-0.6085
3.7	-9.3918	-0.7546	1.2337	-0.0300	0.0223	-0.0582	33.4594	22.0660	-4.7185	0.4235	0.5145	0.4309	-0.6084
3.71	-9.4054	-0.7838	1.2215	-0.0309	0.0328	-0.0560	33.6725	22.0285	-5.0451	0.4234	0.5145	0.4311	-0.6084
3.72	-9.4206	-0.7994	1.2173	-0.0298	0.0401	-0.0541	33.8440	22.1061	-4.7807	0.4233	0.5145	0.4314	-0.6083
3.73	-9.4434	-0.8214	1.2196	-0.0311	0.0365	-0.0601	33.6829	22.1630	-4.5343	0.4231	0.5145	0.4316	-0.6083
3.74	-9.4879	-0.8414	1.2071	-0.0249	0.0336	-0.0600	33.6246	22.1222	-4.7025	0.4230	0.5145	0.4318	-0.6082
3.75	-9.4941	-0.8578	1.2042	-0.0291	0.0399	-0.0673	33.6833	22.1712	-4.6431	0.4228	0.5145	0.4320	-0.6082
3.76	-9.5006	-0.8754	1.1822	-0.0274	0.0380	-0.0697	33.5673	22.2733	-4.4988	0.4226	0.5145	0.4323	-0.6081
3.77	-9.4481	-0.8844	1.1740	-0.0269	0.0261	-0.0669	33.7079	22.1172	-4.4790	0.4225	0.5144	0.4325	-0.6081
3.78	-9.4528	-0.8971	1.1616	-0.0212	0.0288	-0.0670	33.5966	22.1721	-4.4866	0.4223	0.5144	0.4327	-0.6081
3.79	-9.4440	-0.9085	1.1500	-0.0088	0.0272	-0.0619	33.5949	22.5542	-4.6844	0.4221	0.5144	0.4328	-0.6082
3.8	-9.4255	-0.9087	1.1506	-0.0083	0.0205	-0.0702	33.6873	22.3318	-4.8580	0.4219	0.5144	0.4330	-0.6082
3.81	-9.4477	-0.9211	1.1395	-0.0075	0.0264	-0.0646	33.6978	22.2965	-4.4005	0.4218	0.5144	0.4331	-0.6083
3.82	-9.4629	-0.9188	1.1484	-0.0092	0.0205	-0.0608	33.7141	22.4750	-4.6012	0.4216	0.5144	0.4332	-0.6083
3.83	-9.5062	-0.9240	1.1444	-0.0041	0.0103	-0.0559	33.6552	22.4632	-4.6483	0.4214	0.5143	0.4333	-0.6083
3.84	-9.4830	-0.9235	1.1418	-0.0061	0.0119	-0.0556	33.8889	22.2943	-4.5459	0.4213	0.5143	0.4334	-0.6084
3.85	-9.4549	-0.9176	1.1396	-0.0053	0.0061	-0.0553	33.8538	22.3417	-4.7005	0.4212	0.5143	0.4335	-0.6085
3.86	-9.4168	-0.9193	1.1198	-0.0054	0.0108	-0.0524	33.7923	22.2729	-4.6808	0.4211	0.5143	0.4335	-0.6085
3.87	-9.3982	-0.9157	1.1285	-0.0096	0.0125	-0.0529	33.9661	22.2013	-4.8482	0.4210	0.5142	0.4337	-0.6085
3.88	-9.4202	-0.9202	1.1220	-0.0205	0.0087	-0.0440	33.9948	22.3289	-4.4275	0.4210	0.5141	0.4338	-0.6085
3.89	-9.4315	-0.9182	1.1369	-0.0300	0.0143	-0.0451	33.6652	22.4396	-4.5533	0.4210	0.5141	0.4340	-0.6084
3.9	-9.4991	-0.9341	1.1256	-0.0258	0.0165	-0.0463	33.4829	22.3414	-4.7410	0.4209	0.5141	0.4341	-0.6084
3.91	-9.5042	-0.9449	1.1311	-0.0308	0.0075	-0.0465	33.8319	22.2991	-4.5575	0.4209	0.5140	0.4342	-0.6084
3.92	-9.5092	-0.9636	1.1268	-0.0309	-0.0026	-0.0420	33.6623	22.4206	-4.6052	0.4209	0.5139	0.4343	-0.6084
3.93	-9.4923	-0.9782	1.1078	-0.0312	0.0011	-0.0325	33.7291	22.5532	-4.6926	0.4209	0.5138	0.4344	-0.6084
3.94	-9.4603	-0.9735	1.1080	-0.0294	-0.0051	-0.0337	33.3854	22.7983	-4.4655	0.4209	0.5138	0.4344	-0.6084
3.95	-9.4736	-0.9706	1.0951	-0.0325	-0.0006	-0.0335	33.3054	22.6279	-4.6178	0.4209	0.5137	0.4345	-0.6084
3.96	-9.4677	-0.9630	1.0915	-0.0291	-0.0129	-0.0248	33.4962	22.8294	-4.6723	0.4210	0.5136	0.4345	-0.6084
3.97	-9.4700	-0.9663	1.0844	-0.0308	-0.0125	-0.0294	33.5206	22.7752	-4.5889	0.4211	0.5135	0.4346	-0.6084
3.98	-9.4614	-0.9751	1.0724	-0.0252	-0.0105	-0.0258	33.5335	22.5327	-4.8266	0.4211	0.5135	0.4346	-0.6084
3.99	-9.4363	-0.9753	1.0709	-0.0169	-0.0129	-0.0250	33.4980	22.7041	-4.5411	0.4211	0.5134	0.4346	-0.6084
4	-9.4436	-0.9692	1.0724	-0.0103	-0.0116	-0.0285	33.5785	22.6315	-4.6360	0.4212	0.5134	0.4346	-0.6085
4.01	-9.4219	-0.9582	1.0779	-0.0064	-0.0162	-0.0265	33.5616	22.5396	-4.4948	0.4212	0.5133	0.4345	-0.6085
4.02	-9.4317	-0.9391	1.0869	0.0101	-0.0210	-0.0253	33.6014	22.7004	-4.5280	0.4212	0.5133	0.4344	-0.6086
4.03	-9.4562	-0.9306	1.0860	0.0192	-0.0156	-0.0284	34.3705	22.5302	-4.3228	0.4211	0.5133	0.4343	-0.6087
4.04	-9.4476	-0.9112	1.1040	0.0193	-0.0210	-0.0329	34.4880	22.5095	-4.2763	0.4211	0.5133	0.4342	-0.6088
4.05	-9.4693	-0.8896	1.1101	0.0295	-0.0223	-0.0327	33.7028	22.7924	-4.8176	0.4210	0.5133	0.4340	-0.6090
4.06	-9.4596	-0.8617	1.1191	0.0239	-0.0235	-0.0330	33.6131	22.7572	-4.7058	0.4210	0.5132	0.4339	-0.6092
4.07	-9.4518	-0.8375	1.1316	0.0288	-0.0194	-0.0370	33.4908	22.7181	-4.8551	0.4209	0.5132	0.4338	-0.6094
4.08	-9.4339	-0.8338	1.1409	0.0489	-0.0147	-0.0487	33.7329	22.5317	-4.8268	0.4207	0.5133	0.4336	-0.6096
4.09	-9.3806	-0.8146	1.1402	0.0432	-0.0112	-0.0485	33.6296	22.6146	-4.8257	0.4205	0.5133	0.4335	-0.6098
4.1	-9.3854	-0.7961	1.1521	0.0450	-0.0012	-0.0560	33.5967	22.7490	-4.7528	0.4203	0.5133	0.4334	-0.6100
4.11	-9.4085	-0.7855	1.1487	0.0430	0.0035	-0.0639	33.6745	22.8341	-4.8381	0.4200	0.5134	0.4333	-0.6102
4.12	-9.4231	-0.7646	1.1621	0.0421	0.0089	-0.0709	33.4612	22.7375	-4.6377	0.4197	0.5134	0.4332	-0.6104
4.13	-9.4383	-0.7649	1.1455	0.0311	0.0192	-0.0847	33.4312	22.6953	-4.6507	0.4194	0.5134	0.4333	-0.6105
4.14	-9.4260	-0.7737	1.1661	0.0235	0.0174	-0.0835	33.7876	22.7519	-4.6572	0.4190	0.5134	0.4334	-0.6107
4.15	-9.4417	-0.7867	1.1361	0.0178	0.0225	-0.0842	33.4615	22.6607	-4.6262	0.4187	0.5134	0.4335	-0.6109
4.16	-9.4279	-0.7885	1.1420	0.0015	0.0167	-0.0865	33.4211	22.9113	-4.7422	0.4185	0.5134	0.4336	-0.6110
4.17	-9.4503	-0.8047	1.1345	-0.0156	0.0236	-0.0960	33.5682	22.8576	-4.8414	0.4182	0.5133	0.4338	-0.6111
4.18	-9.4479	-0.8180	1.1197	-0.0334	0.0209	-0.0880	33.6237	22.8427	-4.8586	0.4180	0.5132	0.4341	-0.6111
4.19	-9.4171	-0.8534	1.1107	-0.0507	0.0199	-0.0890	33.4069	22.8734	-4.7589	0.4179	0.5130	0.4344	-0.6111
4.2	-9.4522	-0.8964	1.1089	-0.0567	0.0174	-0.0885	33.1470	23.0973	-4.7550	0.4178	0.5129	0.4347	-0.6111
4.21	-9.4449	-0.9385	1.0858	-0.0747	0.0123	-0.0848	33.2089	22.8939	-4.8384	0.4177	0.5126	0.4351	-0.6111
4.22	-9.4464	-0.9912	1.0907	-0.0881	0.0117	-0.0827	33.4527	22.8293	-4.7281	0.4177	0.5124	0.4355	-0.6110
4.23	-9.4781	-1.0362	1.0653	-0.0871	0.0175	-0.0825	33.4378	22.8990	-4.9985	0.4177	0.5122	0.4359	-0.6109
4.24	-9.5158	-1.0700	1.0627	-0.0956	0.0157	-0.0753	33.4522	23.0082	-4.6854	0.4177	0.5119	0.4363	-0.6108
4.25	-9.5364	-1.0980	1.0438	-0.1000	0.0128	-0.0586	33.4362	22.9122	-4.5481	0.4178	0.5117	0.4367	-0.6107
4.26	-9.5311	-1.1155	1.0372	-0.1004	0.0135	-0.0426	33.4628	22.9969	-4.7682	0.4179	0.5115	0.4370	-0.6105
4.27	-9.5108	-1.1229	1.0047	-0.0901	-0.0022	-0.0323	33.3629	23.1110	-4.6745	0.4181	0.5113	0.4373	-0.6104
4.28	-9.4638	-1.1042	0.9973	-0.0887	0.0044	-0.0340	33.2383	22.9413	-4.5162	0.4183	0.5111	0.4376	-0.6102
4.29	-9.4379	-1.1034	0.9683	-0.0825	0.0100	-0.0248	33.4619	23.3126	-4.4923	0.4184	0.5110	0.4378	-0.6100
4.3	-9.4223	-1.0854	0.9576	-0.0829	0.0131	-0.0124	33.3756	23.1112	-4.6772	0.4186	0.5109	0.4380	-0.6098
4.31	-9.4630	-1.0509	0.9508	-0.0807	0.0221	-0.0149	33.2654	23.3095	-4.6583	0.4188	0.5109	0.4382	-0.6096
4.32	-9.5117	-1.0157	0.9446	-0.0836	0.0164	-0.0178	33.2493	23.0045	-4.5384	0.4189	0.5108	0.4384	-0.6094
4.33	-9.5580	-0.9810	0.9573	-0.0822	0.0160	-0.0209	33.3309	22.9376	-4.5947	0.4191	0.5107	0.4387	-0.6092
4.34	-9.6254	-0.9605	0.9509	-0.0824	0.0011	-0.0231	33.3655	23.2289	-4.4693	0.4193	0.5106	0.4389	-0.6090
4.35	-9.6471	-0.9243	0.9704	-0.0879	-0.0134	-0.0197	33.3633	23.0041	-4.4866	0.4195	0.5104	0.4391	-0.6089
4.36	-9.6485	-0.8832	0.9933	-0.1015	-0.0269	-0.0241	33.4750	23.0007	-4.4372	0.4198	0.5101	0.4393	-0.6088
4.37	-9.6477	-0.8578	1.0171	-0.1066	-0.0406	-0.0277	33.4392	23.1800	-4.3345	0.4201	0.5098	0.4395	-0.6087
4.38	-9.6108	-0.8314	1.0451	-0.1304	-0.0561	-0.0303	33.3721	23.0461	-4.5941	0.4205	0.5094	0.4397	-0.6086
4.39	-9.5768	-0.8313	1.0751	-0.1359	-0.0811	-0.0375	33.3304	23.2220	-4.5571	0.4210	0.5089	0.4400	-0.6085
4.4	-9.5097	-0.8358	1.1010	-0.1569	-0.0900	-0.0363	33.4234	23.3791	-4.4021	0.4215	0.5083	0.4402	-0.6085
4.41	-9.4349	-0.8624	1.1296	-0.1607	-0.0998	-0.0444	33.4700	22.9513	-4.3679	0.4220	0.5076	0.4405	-0.6084
4.42	-9.3870	-0.8955	1.1497	-0.1774	-0.1060	-0.0576	33.2382	23.0057	-4.4879	0.4226	0.5069	0.4408	-0.6084
4.43	-9.3629	-0.9489	1.1738	-0.1873	-0.1004	-0.0702	33.4065	23.0723	-4.4716	0.4231	0.5061	0.4413	-0.6084
4.44	-9.3294	-1.0178	1.2001	-0.1942	-0.1048	-0.0829	33.0635	23.1231	-4.2242	0.4236	0.5053	0.4417	-0.6084
4.45	-9.3303	-1.0788	1.2270	-0.2086	-0.0965	-0.0909	33.2052	23.1886	-4.1781	0.4241	0.5044	0.4423	-0.6083
4.46	-9.3280	-1.1391	1.2486	-0.2090	-0.0931	-0.1006	33.1368	23.0144	-4.4509	0.4246	0.5035	0.4429	-0.6083
4.47	-9.3102	-1.2024	1.2803	-0.2171	-0.0916	-0.0999	33.1053	23.3147	-4.3135	0.4251	0.5027	0.4435	-0.6082
4.48	-9.3061	-1.2737	1.2896	-0.2147	-0.0895	-0.1124	32.9901	23.3137	-4.2946	0.4255	0.5018	0.4441	-0.6082
4.49	-9.3256	-1.3238	1.3164	-0.2125	-0.0883	-0.1137	33.1317	23.4577	-4.3014	0.4260	0.5009	0.4447	-0.6082
4.5	-9.3210	-1.3784	1.3253	-0.2180	-0.0782	-0.1129	33.0186	23.6092	-4.3118	0.4264	0.5000	0.4454	-0.6081
4.51	-9.3269	-1.4303	1.3563	-0.2075	-0.0734	-0.1134	33.0909	23.4490	-4.2705	0.4268	0.4991	0.4461	-0.6081
4.52	-9.3323	-1.4741	1.3638	-0.1933	-0.0669	-0.1116	32.9724	23.6201	-4.0180	0.4271	0.4984	0.4467	-0.6080
4.53	-9.2856	-1.5149	1.3624	-0.1840	-0.0549	-0.1086	33.2970	23.6919	-3.9206	0.4274	0.4976	0.4473	-0.6079
4.54	-9.2484	-1.5477	1.3690	-0.1641	-0.0597	-0.1008	33.7962	23.8209	-3.8439	0.4277	0.4969	0.4478	-0.6079
4.55	-9.2209	-1.5618	1.3635	-0.1520	-0.0408	-0.0896	33.2185	23.7529	-3.9898	0.4280	0.4964	0.4483	-0.6079
4.56	-9.2069	-1.5825	1.3584	-0.1332	-0.0303	-0.0880	32.8061	23.8647	-4.1705	0.4281	0.4959	0.4488	-0.6078
4.57	-9.2236	-1.5832	1.3747	-0.1184	-0.0234	-0.0756	32.4863	23.6852	-4.0275	0.4283	0.4954	0.4492	-0.6077
4.58	-9.2800	-1.5909	1.3829	-0.1069	-0.0172	-0.0760	32.5781	23.6536	-3.9788	0.4284	0.4951	0.4495	-0.6077
4.59	-9.3665	-1.5971	1.4034	-0.0888	-0.0169	-0.0710	32.7584	23.4788	-4.0043	0.4285	0.4947	0.4499	-0.6076
4.6	-9.4411	-1.6000	1.4072	-0.0729	-0.0183	-0.0578	33.0464	23.3600	-3.8551	0.4286	0.4945	0.4501	-0.6076
4.61	-9.4592	-1.5881	1.3972	-0.0576	-0.0256	-0.0413	33.0013	23.3686	-4.0994	0.4287	0.4943	0.4502	-0.6076
4.62	-9.4661	-1.5570	1.3852	-0.0385	-0.0322	-0.0330	32.7477	23.4430	-4.2132	0.4288	0.4941	0.4502	-0.6077
4.63	-9.4097	-1.5188	1.3742	-0.0270	-0.0391	-0.0184	32.9048	23.4588	-4.0571	0.4290	0.4939	0.4502	-0.6077
4.64	-9.3077	-1.4764	1.3839	-0.0287	-0.0433	-0.0079	32.8618	23.7249	-3.9763	0.4292	0.4938	0.4501	-0.6078
4.65	-9.2675	-1.4533	1.3787	-0.0265	-0.0391	-0.0069	32.7369	23.6505	-4.0027	0.4294	0.4937	0.4500	-0.6078
4.66	-9.1790	-1.4384	1.3604	-0.0196	-0.0244	0.0025	32.9665	23.4221	-3.9710	0.4295	0.4936	0.4499	-0.6078
4.67	-9.1514	-1.4088	1.3585	-0.0121	-0.0202	0.0058	32.9798	23.4942	-4.0081	0.4297	0.4936	0.4498	-0.6078
4.68	-9.2029	-1.3833	1.3379	-0.0118	0.0004	0.0156	32.8172	23.7083	-3.9456	0.4298	0.4937	0.4497	-0.6077
4.69	-9.2158	-1.3631	1.3335	-0.0181	0.0244	0.0157	32.7754	23.7417	-3.8867	0.4299	0.4939	0.4496	-0.6076
4.7	-9.2565	-1.3490	1.3238	-0.0200	0.0288	0.0151	32.8882	23.7177	-3.9013	0.4299	0.4940	0.4496	-0.6074
4.71	-9.3065	-1.3486	1.3197	-0.0251	0.0338	0.0183	32.7740	23.6383	-3.9101	0.4300	0.4942	0.4496	-0.6072
4.72	-9.3192	-1.3316	1.3011	-0.0307	0.0461	0.0190	32.8006	23.7796	-4.0391	0.4301	0.4944	0.4496	-0.6070
4.73	-9.3201	-1.3150	1.2986	-0.0313	0.0449	0.0209	32.7884	23.6204	-3.9040	0.4302	0.4946	0.4497	-0.6067
4.74	-9.3721	-1.3101	1.2847	-0.0351	0.0499	0.0207	32.7972	23.7503	-3.7941	0.4303	0.4948	0.4497	-0.6065
4.75	-9.3385	-1.3061	1.2658	-0.0334	0.0520	0.0243	32.7898	23.7032	-3.9553	0.4304	0.4950	0.4498	-0.6062
4.76	-9.3397	-1.2876	1.2668	-0.0318	0.0540	0.0179	32.7901	23.5712	-3.7974	0.4304	0.4952	0.4498	-0.6059
4.77	-9.3628	-1.2983	1.2402	-0.0389	0.0563	0.0243	32.8517	23.4712	-3.8932	0.4305	0.4955	0.4499	-0.6056
4.78	-9.3469	-1.2852	1.2413	-0.0376	0.0557	0.0215	33.0357	23.3486	-3.8872	0.4306	0.4957	0.4500	-0.6053
4.79	-9.3808	-1.2915	1.2285	-0.0411	0.0509	0.0252	33.0117	23.4109	-3.9093	0.4307	0.4959	0.4501	-0.6050
4.8	-9.3820	-1.2975	1.2272	-0.0395	0.0579	0.0220	32.9600	23.2909	-3.8104	0.4308	0.4961	0.4501	-0.6047
4.81	-9.3851	-1.2901	1.2244	-0.0412	0.0607	0.0237	32.9540	23.2978	-3.7946	0.4309	0.4963	0.4502	-0.6044
4.82	-9.3757	-1.3005	1.2084	-0.0327	0.0589	0.0245	33.0159	23.2690	-3.6593	0.4309	0.4966	0.4503	-0.6041
4.83	-9.3573	-1.2978	1.2050	-0.0324	0.0511	0.0213	33.0221	23.3794	-3.7958	0.4310	0.4968	0.4503	-0.6039
4.84	-9.3799	-1.3013	1.1946	-0.0340	0.0537	0.0175	32.9364	23.6096	-3.7254	0.4311	0.4970	0.4504	-0.6036
4.85	-9.3785	-1.3104	1.1937	-0.0305	0.0541	0.0119	33.0912	23.4029	-3.6975	0.4311	0.4972	0.4505	-0.6033
4.86	-9.3948	-1.3197	1.1934	-0.0118	0.0577	0.0117	33.1884	23.4107	-3.7165	0.4311	0.4974	0.4505	-0.6031
4.87	-9.4008	-1.3301	1.1891	-0.0043	0.0581	0.0004	33.0417	23.2761	-3.9433	0.4310	0.4977	0.4505	-0.6029
4.88	-9.3824	-1.3246	1.1879	0.0042	0.0636	0.0061	33.1767	23.4058	-3.5818	0.4309	0.4980	0.4506	-0.6028
4.89	-9.3854	-1.3310	1.1660	0.0176	0.0638	-0.0022	32.9751	23.4468	-3.4081	0.4308	0.4983	0.4505	-0.6026
4.9	-9.3549	-1.3168	1.1620	0.0222	0.0644	-0.0054	32.8729	23.4004	-3.7899	0.4306	0.4986	0.4505	-0.6025
4.91	-9.3533	-1.2982	1.1551	0.0324	0.0691	-0.0063	33.1471	23.5070	-3.4882	0.4304	0.4989	0.4505	-0.6024
4.92	-9.3730	-1.2993	1.1434	0.0421	0.0774	-0.0056	33.2765	23.4439	-3.7577	0.4302	0.4993	0.4504	-0.6023
4.93	-9.3739	-1.2808	1.1368	0.0473	0.0766	-0.0051	33.0247	23.4970	-3.7843	0.4299	0.4997	0.4504	-0.6022
4.94	-9.3715	-1.2724	1.1179	0.0467	0.0787	-0.0052	33.2227	23.6303	-3.4134	0.4297	0.5001	0.4503	-0.6021
4.95	-9.3910	-1.2762	1.1143	0.0468	0.0847	-0.0050	33.1572	23.2507	-3.4454	0.4294	0.5005	0.4502	-0.6020
4.96	-9.4223	-1.2714	1.0957	0.0453	0.0816	-0.0057	32.8281	23.4535	-3.5129	0.4291	0.5009	0.4502	-0.6019
4.97	-9.4305	-1.2699	1.0911	0.0453	0.0828	-0.0036	33.2198	23.2262	-3.5841	0.4288	0.5014	0.4501	-0.6018
4.98	-9.4401	-1.2736	1.0819	0.0452	0.0801	-0.0009	33.3100	23.0535	-3.5546	0.4286	0.5018	0.4501	-0.6016
4.99	-9.4388	-1.2661	1.0791	0.0451	0.0765	0.0060	33.3335	23.2605	-3.3899	0.4284	0.5022	0.4500	-0.6015
5	-9.4296	-1.2727	1.0698	0.0451	0.0763	0.0148	33.3284	23.2886	-3.4498	0.4282	0.5026	0.4499	-0.6014
5.01	-9.4052	-1.2523	1.0656	0.0453	0.0673	0.0213	33.2754	23.1096	-3.3970	0.4280	0.5031	0.4497	-0.6012
5.02	-9.4195	-1.2540	1.0565	0.0453	0.0649	0.0280	33.2499	23.1982	-3.4626	0.4279	0.5035	0.4496	-0.6011
5.03	-9.4009	-1.2421	1.0434	0.0468	0.0678	0.0402	33.6468	23.3308	-3.2578	0.4278	0.5040	0.4494	-0.6009
5.04	-9.3834	-1.2248	1.0431	0.0453	0.0689	0.0464	33.7868	23.3934	-3.2059	0.4277	0.5044	0.4491	-0.6007
5.05	-9.4053	-1.2328	1.0466	0.0467	0.0721	0.0559	33.4146	23.3320	-3.4776	0.4276	0.5050	0.4489	-0.6005
5.06	-9.4575	-1.2176	1.0564	0.0544	0.0707	0.0613	33.1814	23.6580	-3.5450	0.4275	0.5055	0.4486	-0.6003
5.07	-9.4911	-1.2143	1.0470	0.0687	0.0707	0.0563	33.2207	23.4674	-3.2448	0.4274	0.5061	0.4483	-0.6002
5.08	-9.4791	-1.1983	1.0441	0.0711	0.0691	0.0576	33.3480	23.2831	-3.4284	0.4273	0.5066	0.4480	-0.6000
5.09	-9.4979	-1.1856	1.0349	0.0883	0.0659	0.0658	33.2220	23.3999	-3.3890	0.4272	0.5072	0.4476	-0.5999
5.1	-9.4919	-1.1618	1.0197	0.0974	0.0692	0.0678	33.3797	23.1777	-3.2713	0.4270	0.5079	0.4472	-0.5997
5.11	-9.4663	-1.1320	1.0335	0.1177	0.0640	0.0606	33.3621	23.0902	-3.5177	0.4268	0.5085	0.4468	-0.5997
5.12	-9.4872	-1.1151	1.0268	0.1238	0.0624	0.0555	33.2672	23.2130	-3.4275	0.4266	0.5092	0.4463	-0.5997
5.13	-9.4691	-1.0771	1.0233	0.1309	0.0596	0.0487	33.3557	23.0530	-3.4745	0.4263	0.5098	0.4458	-0.5997
5.14	-9.4796	-1.0481	1.0203	0.1467	0.0545	0.0449	33.4450	23.0997	-3.3191	0.4260	0.5105	0.4452	-0.5998
5.15	-9.5060	-1.0200	1.0283	0.1485	0.0493	0.0460	33.3191	23.2285	-3.2245	0.4257	0.5111	0.4447	-0.5998
5.16	-9.5220	-0.9769	1.0362	0.1498	0.0460	0.0375	33.7169	22.9926	-3.4476	0.4254	0.5117	0.4441	-0.5999
5.17	-9.5180	-0.9435	1.0458	0.1525	0.0384	0.0322	33.8165	22.9092	-3.4466	0.4250	0.5123	0.4436	-0.6001
5.18	-9.5153	-0.9002	1.0423	0.1558	0.0384	0.0351	33.4911	22.8664	-3.4692	0.4247	0.5129	0.4430	-0.6003
5.19	-9.4761	-0.8702	1.0350	0.1630	0.0354	0.0238	33.6350	22.8025	-3.6184	0.4243	0.5135	0.4424	-0.6005
5.2	-9.4537	-0.8400	1.0372	0.1569	0.0358	0.0206	33.4997	22.8119	-3.7220	0.4239	0.5141	0.4418	-0.6006
5.21	-9.4840	-0.8171	1.0281	0.1489	0.0329	0.0204	33.5839	22.8363	-3.8481	0.4236	0.5146	0.4413	-0.6008
5.22	-9.4700	-0.8007	1.0323	0.1435	0.0284	0.0152	33.5549	22.7461	-3.7667	0.4232	0.5151	0.4408	-0.6010
5.23	-9.5037	-0.7732	1.0511	0.1331	0.0249	0.0149	33.5996	22.7896	-3.6750	0.4229	0.5156	0.4403	-0.6012
5.24	-9.5696	-0.7679	1.0551	0.1277	0.0203	0.0086	33.6046	22.8291	-3.8798	0.4226	0.5160	0.4398	-0.6014
5.25	-9.5580	-0.7615	1.0590	0.1149	0.0038	0.0069	33.6714	22.8185	-3.7117	0.4224	0.5164	0.4393	-0.6016
5.26	-9.5336	-0.7484	1.0567	0.1018	-0.0015	0.0026	33.4406	22.9805	-3.6528	0.4222	0.5167	0.4389	-0.6018
5.27	-9.5076	-0.7458	1.0679	0.0955	-0.0047	0.0009	33.6155	22.6831	-3.8402	0.4220	0.5169	0.4385	-0.6020
5.28	-9.5269	-0.7561	1.0643	0.0764	-0.0085	0.0024	33.6891	22.7800	-3.8082	0.4218	0.5172	0.4381	-0.6022
5.29	-9.4924	-0.7512	1.0544	0.0644	-0.0066	0.0014	33.6545	22.9366	-3.6415	0.4217	0.5174	0.4378	-0.6023
5.3	-9.4537	-0.7258	1.0549	0.0487	-0.0022	0.0103	33.6557	22.9022	-3.9863	0.4217	0.5176	0.4375	-0.6024
5.31	-9.4407	-0.7273	1.0475	0.0415	-0.0086	0.0023	33.6027	22.8105	-3.9205	0.4217	0.5177	0.4373	-0.6025
5.32	-9.4462	-0.7358	1.0418	0.0265	-0.0056	0.0011	33.8427	22.5825	-3.6403	0.4216	0.5178	0.4371	-0.6025
5.33	-9.4474	-0.7610	1.0326	0.0185	-0.0103	-0.0025	33.5898	22.7099	-4.0069	0.4216	0.5179	0.4369	-0.6026
5.34	-9.4699	-0.7721	1.0424	0.0139	-0.0127	-0.0083	33.6326	22.7513	-3.9740	0.4217	0.5180	0.4367	-0.6027
5.35	-9.5153	-0.7909	1.0501	-0.0001	-0.0139	-0.0074	33.6001	22.5926	-4.0378	0.4217	0.5180	0.4366	-0.6027
5.36	-9.5183	-0.8237	1.0503	-0.0122	-0.0202	-0.0083	33.6374	22.4118	-4.1993	0.4218	0.5180	0.4365	-0.6027
5.37	-9.4760	-0.8318	1.0545	-0.0227	-0.0319	-0.0076	33.8010	22.5359	-3.9518	0.4219	0.5179	0.4364	-0.6027
5.38	-9.4462	-0.8511	1.0678	-0.0291	-0.0389	-0.0092	33.7807	22.6428	-4.1082	0.4221	0.5177	0.4364	-0.6028
5.39	-9.4153	-0.8699	1.0742	-0.0312	-0.0399	-0.0087	33.8202	22.8736	-4.0815	0.4223	0.5176	0.4363	-0.6028
5.4	-9.4104	-0.8847	1.0727	-0.0326	-0.0343	-0.0049	33.7324	22.9094	-4.2975	0.4225	0.5175	0.4362	-0.6028
5.41	-9.3913	-0.8898	1.0711	-0.0330	-0.0362	-0.0070	33.6897	22.5476	-4.1765	0.4227	0.5174	0.4362	-0.6028
5.42	-9.4128	-0.8929	1.0780	-0.0312	-0.0305	-0.0084	33.7994	22.4505	-4.1821	0.4228	0.5173	0.4361	-0.6029
5.43	-9.4389	-0.9115	1.0803	-0.0307	-0.0243	-0.0074	33.6720	22.7307	-4.1543	0.4230	0.5172	0.4360	-0.6029
5.44	-9.4203	-0.8960	1.0859	-0.0318	-0.0243	-0.0088	33.7270	22.4778	-4.0130	0.4231	0.5171	0.4360	-0.6029
5.45	-9.4112	-0.9069	1.0851	-0.0274	-0.0181	-0.0142	33.6111	22.4481	-3.8798	0.4233	0.5170	0.4360	-0.6028
5.46	-9.4127	-0.9054	1.0871	-0.0219	-0.0213	-0.0121	33.5984	22.5874	-3.9304	0.4234	0.5170	0.4359	-0.6029
5.47	-9.4116	-0.8874	1.0936	-0.0076	-0.0085	-0.0135	33.4869	22.6718	-4.0145	0.4234	0.5170	0.4359	-0.6029
5.48	-9.3990	-0.8746	1.0994	-0.0086	-0.0116	-0.0199	33.6091	22.5482	-3.9921	0.4235	0.5170	0.4358	-0.6029
5.49	-9.3945	-0.8627	1.1051	-0.0092	-0.0044	-0.0234	33.6278	22.5525	-3.9804	0.4235	0.5170	0.4358	-0.6029
5.5	-9.4029	-0.8467	1.0932	-0.0143	0.0008	-0.0273	33.5907	22.6734	-4.0330	0.4235	0.5169	0.4358	-0.6029
5.51	-9.4091	-0.8404	1.0905	-0.0090	-0.0027	-0.0326	33.6757	22.8041	-4.1159	0.4234	0.5169	0.4358	-0.6030
5.52	-9.4172	-0.8471	1.0911	-0.0114	0.0036	-0.0325	33.8378	22.8221	-4.0235	0.4234	0.5169	0.4358	-0.6030
5.53	-9.4121	-0.8536	1.0749	-0.0132	0.0072	-0.0332	34.2949	22.7192	-3.7185	0.4234	0.5169	0.4358	-0.6030
5.54	-9.3891	-0.8673	1.0709	-0.0206	0.0070	-0.0359	34.5992	22.7022	-3.6709	0.4233	0.5169	0.4359	-0.6030
5.55	-9.4138	-0.8821	1.0715	-0.0251	0.0115	-0.0377	34.0802	22.8212	-3.8284	0.4233	0.5168	0.4360	-0.6030
5.56	-9.4343	-0.9063	1.0617	-0.0233	0.0132	-0.0408	33.8452	22.9272	-3.8541	0.4233	0.5168	0.4361	-0.6030
5.57	-9.4289	-0.9125	1.0632	-0.0212	0.0188	-0.0391	33.5849	22.4861	-4.1319	0.4232	0.5168	0.4362	-0.6029
5.58	-9.4462	-0.9252	1.0487	-0.0235	0.0185	-0.0346	33.7651	22.5719	-4.0114	0.4232	0.5168	0.4363	-0.6029
5.59	-9.4641	-0.9414	1.0291	-0.0241	0.0171	-0.0372	33.7771	22.6157	-3.8733	0.4231	0.5168	0.4364	-0.6029
5.6	-9.4702	-0.9503	1.0206	-0.0275	0.0074	-0.0349	33.6485	22.6806	-3.9117	0.4231	0.5168	0.4365	-0.6028
5.61	-9.4897	-0.9621	1.0070	-0.0145	0.0091	-0.0349	33.7163	22.4161	-4.1400	0.4231	0.5168	0.4365	-0.6028
5.62	-9.5042	-0.9853	1.0024	-0.0217	0.0072	-0.0328	33.8261	22.4592	-3.9645	0.4230	0.5168	0.4366	-0.6028
5.63	-9.5032	-1.0033	0.9887	-0.0154	0.0053	-0.0335	33.9864	22.7261	-3.9973	0.4230	0.5167	0.4366	-0.6028
5.64	-9.4865	-1.0050	0.9957	-0.0010	0.0021	-0.0317	33.6491	22.7622	-3.8386	0.4230	0.5167	0.4366	-0.6029
5.65	-9.5185	-1.0165	0.9998	-0.0041	-0.0053	-0.0324	33.6001	22.6556	-3.7897	0.4229	0.5167	0.4366	-0.6029
5.66	-9.5056	-1.0216	0.9833	-0.0014	-0.0109	-0.0318	33.4801	22.7094	-3.7919	0.4229	0.5167	0.4365	-0.6030
5.67	-9.4670	-1.0250	0.9945	0.0045	-0.0089	-0.0333	33.6389	22.6577	-3.9125	0.4229	0.5167	0.4365	-0.6031
5.68	-9.4653	-1.0163	0.9941	0.0145	-0.0147	-0.0333	33.6208	22.8819	-3.8613	0.4228	0.5167	0.4364	-0.6032
5.69	-9.4695	-1.0140	1.0058	0.0187	-0.0113	-0.0335	33.4491	22.9621	-3.7620	0.4227	0.5167	0.4363	-0.6033
5.7	-9.4897	-1.0129	0.9941	0.0232	-0.0100	-0.0276	33.5310	22.5464	-3.9158	0.4226	0.5167	0.4362	-0.6034
5.71	-9.4755	-0.9834	1.0190	0.0250	-0.0179	-0.0184	33.3631	22.6390	-3.8611	0.4226	0.5167	0.4360	-0.6036
5.72	-9.5648	-0.9847	1.0080	0.0194	-0.0112	-0.0195	33.8094	22.6809	-3.9527	0.4226	0.5168	0.4359	-0.6037
5.73	-9.4740	-0.9644	1.0050	0.0340	-0.0205	-0.0143	33.8822	22.4736	-3.9837	0.4225	0.5168	0.4357	-0.6038
5.74	-9.4534	-0.9548	1.0117	0.0240	-0.0242	-0.0079	33.7454	22.6362	-3.9869	0.4225	0.5168	0.4355	-0.6039
5.75	-9.4826	-0.9469	1.0193	0.0257	-0.0263	-0.0079	33.7758	22.6831	-3.9546	0.4225	0.5169	0.4353	-0.6040
5.76	-9.4547	-0.9307	1.0490	0.0295	-0.0326	-0.0076	33.7607	22.7240	-3.8507	0.4225	0.5169	0.4350	-0.6042
5.77	-9.4685	-0.9173	1.0402	0.0303	-0.0380	-0.0085	33.7773	22.4931	-3.9831	0.4226	0.5169	0.4348	-0.6044
5.78	-9.4563	-0.9019	1.0725	0.0297	-0.0379	-0.0072	33.6453	22.6373	-4.0967	0.4226	0.5169	0.4345	-0.6045
5.79	-9.4866	-0.8900	1.0815	0.0234	-0.0380	-0.0083	33.7219	22.6846	-4.0476	0.4226	0.5169	0.4343	-0.6047
5.8	-9.5163	-0.8755	1.0964	0.0213	-0.0410	-0.0083	33.8145	22.7601	-4.1592	0.4227	0.5169	0.4340	-0.6048
5.81	-9.4962	-0.8797	1.0809	0.0188	-0.0454	-0.0086	33.5500	22.6934	-4.1761	0.4227	0.5168	0.4338	-0.6050
5.82	-9.4563	-0.8723	1.0734	0.0198	-0.0466	-0.0086	33.4989	22.6745	-4.0362	0.4228	0.5168	0.4336	-0.6051
5.83	-9.3955	-0.8547	1.0827	0.0187	-0.0510	-0.0126	33.6776	22.8896	-4.1212	0.4229	0.5167	0.4333	-0.6053
5.84	-9.3953	-0.8370	1.0905	0.0217	-0.0455	-0.0093	33.6783	22.7581	-3.9561	0.4229	0.5167	0.4331	-0.6055
5.85	-9.3902	-0.8227	1.0882	0.0140	-0.0354	-0.0084	33.6813	22.8005	-4.1259	0.4230	0.5167	0.4329	-0.6056
5.86	-9.3760	-0.7910	1.1142	0.0118	-0.0319	-0.0138	33.3719	22.8529	-4.0015	0.4230	0.5166	0.4327	-0.6057
5.87	-9.4078	-0.8078	1.1208	0.0075	-0.0266	-0.0193	33.5285	22.6804	-4.0501	0.4230	0.5166	0.4326	-0.6059
5.88	-9.3981	-0.8222	1.1361	-0.0071	-0.0251	-0.0296	33.2830	22.6717	-4.0818	0.4231	0.5165	0.4325	-0.6059
5.89	-9.3917	-0.8289	1.1442	-0.0034	-0.0181	-0.0334	33.4959	22.7116	-4.0944	0.4231	0.5164	0.4324	-0.6060
5.9	-9.4021	-0.8358	1.1419	-0.0066	-0.0101	-0.0336	33.7846	22.4279	-4.3832	0.4231	0.5164	0.4324	-0.6061
5.91	-9.4329	-0.8437	1.1469	-0.0068	-0.0080	-0.0313	33.7697	22.5024	-4.2569	0.4230	0.5164	0.4324	-0.6062
5.92	-9.4545	-0.8489	1.1535	-0.0034	0.0015	-0.0326	33.6504	22.5853	-4.1473	0.4230	0.5164	0.4324	-0.6062
5.93	-9.4887	-0.8398	1.1471	-0.0070	0.0033	-0.0324	33.5825	22.3863	-4.3230	0.4229	0.5164	0.4324	-0.6062
5.94	-9.5318	-0.8707	1.1227	-0.0152	-0.0055	-0.0385	33.7742	22.3986	-4.3500	0.4229	0.5163	0.4324	-0.6063
5.95	-9.4858	-0.8806	1.1063	-0.0131	-0.0102	-0.0455	33.7678	22.6098	-4.3489	0.4229	0.5162	0.4325	-0.6064
5.96	-9.4624	-0.8682	1.1118	-0.0179	-0.0118	-0.0494	33.6463	22.7785	-4.3491	0.4228	0.5161	0.4325	-0.6064
5.97	-9.4899	-0.8925	1.0951	-0.0250	-0.0096	-0.0505	33.7189	22.5055	-4.3620	0.4228	0.5160	0.4326	-0.6065
5.98	-9.4377	-0.8925	1.0931	-0.0251	-0.0146	-0.0594	33.5238	22.7230	-4.2835	0.4228	0.5158	0.4327	-0.6066
5.99	-9.4626	-0.8870	1.1126	-0.0286	-0.0192	-0.0570	33.3811	22.5586	-4.1461	0.4228	0.5157	0.4328	-0.6067
6	-9.5728	-0.9081	1.1078	-0.0307	-0.0199	-0.0515	33.5619	22.7643	-4.0375	0.4228	0.5155	0.4328	-0.6068
6.01	-9.5113	-0.9204	1.0940	-0.0358	-0.0310	-0.0530	33.3864	22.7469	-3.9432	0.4228	0.5153	0.4329	-0.6069
6.02	-9.4930	-0.9182	1.1242	-0.0421	-0.0345	-0.0547	33.6291	22.9382	-4.1058	0.4229	0.5151	0.4330	-0.6070
6.03	-9.5586	-0.9561	1.0981	-0.0412	-0.0418	-0.0514	34.0857	23.0784	-4.0505	0.4229	0.5148	0.4331	-0.6071
6.04	-9.4345	-0.9548	1.1113	-0.0482	-0.0562	-0.0460	34.0980	22.9563	-3.8730	0.4231	0.5145	0.4331	-0.6072
6.05	-9.4774	-0.9716	1.1306	-0.0547	-0.0540	-0.0431	33.4362	22.8149	-4.3419	0.4232	0.5142	0.4332	-0.6073
6.06	-9.4808	-0.9998	1.1218	-0.0556	-0.0665	-0.0367	33.4174	23.1869	-4.1800	0.4235	0.5139	0.4332	-0.6074
6.07	-9.4331	-1.0143	1.1735	-0.0559	-0.0796	-0.0379	33.4538	23.0300	-4.0825	0.4237	0.5135	0.4332	-0.6076
6.08	-9.4870	-1.0513	1.1720	-0.0553	-0.0798	-0.0363	33.5707	22.9882	-4.1973	0.4239	0.5131	0.4332	-0.6077
6.09	-9.4255	-1.0693	1.1947	-0.0565	-0.0832	-0.0347	33.5033	22.9041	-4.1535	0.4242	0.5128	0.4332	-0.6078
6.1	-9.3896	-1.0777	1.2300	-0.0505	-0.0892	-0.0356	33.7672	22.9022	-4.2643	0.4245	0.5124	0.4331	-0.6080
6.11	-9.3928	-1.0735	1.2250	-0.0372	-0.0801	-0.0336	33.8102	22.7300	-4.2785	0.4247	0.5121	0.4331	-0.6082
6.12	-9.3075	-1.0648	1.2470	-0.0411	-0.0791	-0.0354	33.5371	22.7774	-4.1546	0.4249	0.5117	0.4330	-0.6084
6.13	-9.3246	-1.0775	1.2685	-0.0386	-0.0725	-0.0340	33.5414	22.9055	-4.2718	0.4251	0.5114	0.4329	-0.6085
6.14	-9.3015	-1.0852	1.2492	-0.0327	-0.0710	-0.0316	33.5135	22.9135	-4.4650	0.4253	0.5111	0.4329	-0.6087
6.15	-9.2801	-1.0563	1.2909	-0.0304	-0.0639	-0.0287	33.4185	22.8303	-4.0989	0.4254	0.5109	0.4328	-0.6089
6.16	-9.3479	-1.0650	1.2625	-0.0302	-0.0469	-0.0277	33.4711	22.8548	-4.3379	0.4256	0.5107	0.4328	-0.6090
6.17	-9.3077	-1.0671	1.2920	-0.0224	-0.0398	-0.0274	33.3285	23.1209	-4.4864	0.4257	0.5105	0.4327	-0.6090
6.18	-9.3377	-1.0697	1.2750	-0.0174	-0.0270	-0.0219	33.5259	22.8873	-4.3813	0.4258	0.5104	0.4327	-0.6091
6.19	-9.2904	-1.0572	1.2812	-0.0156	-0.0156	-0.0269	33.2750	22.7311	-4.1266	0.4258	0.5103	0.4326	-0.6092
6.2	-9.3255	-1.0658	1.2813	-0.0136	-0.0087	-0.0308	33.3445	23.1143	-4.2822	0.4258	0.5103	0.4326	-0.6092
6.21	-9.3013	-1.0766	1.2635	-0.0086	0.0014	-0.0255	33.4849	23.0293	-4.2475	0.4258	0.5103	0.4326	-0.6092
6.22	-9.3347	-1.0539	1.2645	-0.0096	0.0144	-0.0290	33.4020	22.8335	-4.2921	0.4257	0.5103	0.4327	-0.6092
6.23	-9.3931	-1.0674	1.2412	-0.0062	0.0243	-0.0279	33.2639	22.9951	-4.4567	0.4257	0.5104	0.4327	-0.6092
6.24	-9.4385	-1.0701	1.2531	-0.0041	0.0260	-0.0282	33.2682	22.9765	-4.4412	0.4256	0.5104	0.4327	-0.6092
6.25	-9.4866	-1.1146	1.2036	-0.0095	0.0114	-0.0297	33.5339	22.9869	-4.4492	0.4255	0.5105	0.4328	-0.6092
6.26	-9.4686	-1.0741	1.2201	0.0086	0.0128	-0.0296	33.5047	22.9812	-4.1993	0.4254	0.5105	0.4327	-0.6092
6.27	-9.5056	-1.0662	1.2099	0.0149	0.0043	-0.0226	33.3117	23.0009	-4.1419	0.4253	0.5106	0.4327	-0.6092
6.28	-9.4641	-1.0998	1.1990	0.0184	0.0016	-0.0310	33.5232	22.7557	-4.2977	0.4252	0.5106	0.4326	-0.6093
6.29	-9.3977	-1.0872	1.2028	0.0237	-0.0059	-0.0330	33.6262	22.8706	-4.3814	0.4251	0.5107	0.4325	-0.6094
6.3	-9.4039	-1.0938	1.1999	0.0204	-0.0010	-0.0323	33.4315	22.9125	-4.5501	0.4250	0.5107	0.4324	-0.6095
6.31	-9.3962	-1.0716	1.2061	0.0227	0.0004	-0.0329	33.4403	22.7999	-4.5201	0.4249	0.5108	0.4323	-0.6097
6.32	-9.4180	-1.0521	1.2273	0.0193	-0.0014	-0.0326	33.5947	22.7994	-4.3042	0.4248	0.5108	0.4322	-0.6098
6.33	-9.4724	-1.0588	1.2272	0.0271	-0.0019	-0.0332	33.4036	22.8506	-4.3723	0.4247	0.5108	0.4321	-0.6099
6.34	-9.4893	-1.0670	1.2206	0.0447	-0.0085	-0.0364	33.3315	22.9922	-4.3313	0.4245	0.5109	0.4320	-0.6100
6.35	-9.4097	-1.0624	1.2156	0.0422	-0.0119	-0.0319	33.4682	22.9863	-4.4809	0.4244	0.5110	0.4318	-0.6102
6.36	-9.3658	-1.0209	1.2412	0.0416	-0.0184	-0.0334	33.6069	22.9608	-4.5486	0.4243	0.5110	0.4316	-0.6104
6.37	-9.3975	-0.9954	1.2426	0.0388	-0.0168	-0.0336	33.5807	22.8318	-4.2858	0.4241	0.5110	0.4314	-0.6106
6.38	-9.3590	-0.9858	1.2723	0.0302	-0.0171	-0.0320	33.4240	23.1252	-4.6017	0.4240	0.5110	0.4313	-0.6108
6.39	-9.3511	-0.9749	1.2966	0.0218	-0.0097	-0.0328	33.4565	23.0023	-4.4500	0.4239	0.5110	0.4312	-0.6109
6.4	-9.3597	-0.9790	1.3010	0.0207	-0.0070	-0.0324	33.4507	22.8597	-4.3690	0.4238	0.5111	0.4311	-0.6110
6.41	-9.3338	-0.9824	1.3230	0.0120	-0.0061	-0.0327	33.3803	22.9497	-4.4858	0.4238	0.5111	0.4310	-0.6111
6.42	-9.3340	-0.9943	1.3182	-0.0032	-0.0049	-0.0321	33.3347	23.2361	-4.3293	0.4237	0.5111	0.4310	-0.6112
6.43	-9.3032	-0.9909	1.3168	-0.0037	0.0098	-0.0218	33.1150	23.0302	-4.5140	0.4237	0.5111	0.4310	-0.6112
6.44	-9.3676	-1.0159	1.3082	-0.0118	0.0162	-0.0146	33.3111	23.0421	-4.5806	0.4237	0.5112	0.4310	-0.6111
6.45	-9.2551	-1.0234	1.2793	-0.0099	0.0160	-0.0147	33.4139	23.0477	-4.3379	0.4237	0.5112	0.4310	-0.6111
6.46	-9.2891	-1.0299	1.3144	-0.0181	0.0269	-0.0126	33.2760	23.2641	-4.2654	0.4236	0.5113	0.4310	-0.6110
6.47	-9.4169	-1.0783	1.2695	-0.0226	0.0340	-0.0096	33.3751	23.2254	-4.5905	0.4236	0.5114	0.4311	-0.6109
6.48	-9.3985	-1.0641	1.2957	-0.0260	0.0347	-0.0141	33.4725	22.6508	-4.4179	0.4236	0.5115	0.4312	-0.6108
6.49	-9.4228	-1.0959	1.2541	-0.0137	0.0415	-0.0127	33.3589	22.8376	-4.5540	0.4236	0.5116	0.4312	-0.6106
6.5	-9.3777	-1.1064	1.2585	-0.0041	0.0399	-0.0080	33.4319	22.8065	-4.6490	0.4235	0.5118	0.4312	-0.6105
6.51	-9.4127	-1.1115	1.2298	-0.0032	0.0409	-0.0060	33.3542	22.9814	-4.6000	0.4235	0.5120	0.4313	-0.6104
6.52	-9.4190	-1.1068	1.2099	-0.0014	0.0414	-0.0072	33.7083	22.9906	-4.2692	0.4234	0.5121	0.4313	-0.6103
6.53	-9.4159	-1.0881	1.1882	0.0066	0.0437	-0.0067	33.9887	23.0776	-4.0080	0.4233	0.5123	0.4313	-0.6102
6.54	-9.4465	-1.0657	1.1777	0.0203	0.0528	-0.0045	34.2353	23.0819	-4.0370	0.4232	0.5126	0.4312	-0.6101
6.55	-9.4795	-1.0541	1.1553	0.0206	0.0506	-0.0040	33.5251	23.1341	-4.4140	0.4230	0.5128	0.4312	-0.6100
6.56	-9.4879	-1.0441	1.1427	0.0215	0.0459	-0.0122	33.3790	23.3149	-4.5246	0.4229	0.5131	0.4311	-0.6099
6.57	-9.5199	-1.0330	1.1285	0.0223	0.0463	-0.0189	33.2483	23.0399	-4.5198	0.4227	0.5133	0.4311	-0.6099
6.58	-9.5280	-1.0194	1.1207	0.0215	0.0427	-0.0163	33.2060	23.1140	-4.3705	0.4226	0.5135	0.4311	-0.6099
6.59	-9.5319	-1.0086	1.1282	0.0218	0.0280	-0.0140	33.3116	22.9803	-4.3306	0.4224	0.5137	0.4310	-0.6098
6.6	-9.5337	-1.0034	1.1287	0.0223	0.0159	-0.0166	33.4253	22.8138	-4.4783	0.4223	0.5138	0.4309	-0.6099
6.61	-9.5609	-0.9909	1.1441	0.0206	0.0019	-0.0165	33.2395	23.1980	-4.5450	0.4223	0.5139	0.4308	-0.6099
6.62	-9.5655	-0.9947	1.1406	0.0236	-0.0069	-0.0120	33.2391	23.1589	-4.3196	0.4222	0.5140	0.4307	-0.6100
6.63	-9.5654	-0.9876	1.1598	0.0258	-0.0206	-0.0178	33.1273	23.0136	-4.4742	0.4222	0.5140	0.4305	-0.6101
6.64	-9.6079	-0.9969	1.1562	0.0233	-0.0333	-0.0144	33.2655	22.9247	-4.5273	0.4222	0.5140	0.4303	-0.6103
6.65	-9.5284	-0.9992	1.1626	0.0210	-0.0450	-0.0153	33.3597	22.7855	-4.3949	0.4222	0.5139	0.4301	-0.6105
6.66	-9.4680	-0.9899	1.1724	0.0213	-0.0563	-0.0189	33.5238	22.7562	-4.5310	0.4223	0.5138	0.4298	-0.6107
6.67	-9.4290	-0.9937	1.1771	0.0203	-0.0558	-0.0243	33.2638	22.8756	-4.5460	0.4223	0.5137	0.4296	-0.6109
6.68	-9.3996	-0.9685	1.2019	0.0235	-0.0603	-0.0291	33.5264	22.7109	-4.4960	0.4223	0.5136	0.4294	-0.6112
6.69	-9.4000	-0.9761	1.2135	0.0225	-0.0616	-0.0229	33.5643	22.8787	-4.3920	0.4224	0.5135	0.4291	-0.6114
6.7	-9.3934	-0.9703	1.2444	0.0214	-0.0588	-0.0278	33.3618	22.7568	-4.6282	0.4224	0.5133	0.4289	-0.6116
6.71	-9.4005	-0.9617	1.2559	0.0234	-0.0583	-0.0328	33.4410	22.6810	-4.7553	0.4224	0.5132	0.4287	-0.6119
6.72	-9.4023	-0.9630	1.2787	0.0193	-0.0598	-0.0290	33.3373	22.8041	-4.8125	0.4224	0.5131	0.4285	-0.6121
6.73	-9.4005	-0.9598	1.2884	0.0186	-0.0619	-0.0320	33.3111	22.7372	-4.5216	0.4224	0.5129	0.4283	-0.6124
6.74	-9.3953	-0.9634	1.3051	0.0073	-0.0650	-0.0267	33.3092	22.8886	-4.5293	0.4225	0.5127	0.4281	-0.6126
6.75	-9.3654	-0.9634	1.3118	0.0025	-0.0550	-0.0225	33.3365	22.8241	-4.8178	0.4226	0.5126	0.4279	-0.6128
6.76	-9.3096	-0.9577	1.3236	-0.0010	-0.0532	-0.0339	33.2465	22.9246	-4.7513	0.4226	0.5124	0.4278	-0.6130
6.77	-9.3069	-0.9472	1.3358	-0.0069	-0.0439	-0.0314	33.2220	22.9590	-4.6968	0.4227	0.5123	0.4277	-0.6132
6.78	-9.3059	-0.9630	1.3378	-0.0207	-0.0416	-0.0358	33.2166	22.8238	-4.7454	0.4228	0.5121	0.4277	-0.6133
6.79	-9.3074	-0.9848	1.3463	-0.0238	-0.0233	-0.0325	33.4244	23.0464	-4.6680	0.4228	0.5120	0.4277	-0.6134
6.8	-9.3057	-0.9970	1.3414	-0.0282	-0.0217	-0.0241	33.2692	22.9625	-4.6014	0.4229	0.5119	0.4277	-0.6134
6.81	-9.3006	-1.0102	1.3466	-0.0318	-0.0095	-0.0320	33.1091	22.8470	-4.7399	0.4230	0.5118	0.4277	-0.6134
6.82	-9.3072	-1.0200	1.3381	-0.0313	-0.0101	-0.0301	33.2683	22.8460	-4.5751	0.4230	0.5117	0.4278	-0.6134
6.83	-9.3172	-1.0374	1.3357	-0.0302	0.0009	-0.0229	33.1938	22.8856	-4.7207	0.4230	0.5116	0.4278	-0.6134
6.84	-9.3215	-1.0548	1.3335	-0.0315	0.0087	-0.0299	33.3103	22.7361	-5.0247	0.4230	0.5116	0.4279	-0.6134
6.85	-9.3281	-1.0706	1.3218	-0.0293	0.0148	-0.0238	33.4289	22.9143	-4.9688	0.4231	0.5116	0.4280	-0.6133
6.86	-9.3410	-1.0842	1.3153	-0.0308	0.0219	-0.0320	33.5281	22.8833	-4.7269	0.4230	0.5116	0.4281	-0.6132
6.87	-9.3611	-1.0980	1.3157	-0.0309	0.0292	-0.0307	33.4183	22.7002	-4.7016	0.4230	0.5116	0.4283	-0.6131
6.88	-9.3758	-1.1198	1.3146	-0.0228	0.0304	-0.0292	33.3923	22.9050	-4.7439	0.4229	0.5116	0.4284	-0.6131
6.89	-9.3932	-1.1322	1.3165	-0.0151	0.0281	-0.0260	33.3039	22.6943	-4.5458	0.4229	0.5117	0.4284	-0.6130
6.9	-9.3961	-1.1384	1.2989	-0.0041	0.0315	-0.0251	33.3159	22.8935	-4.7807	0.4228	0.5118	0.4285	-0.6130
6.91	-9.3853	-1.1364	1.3047	-0.0052	0.0325	-0.0230	33.3166	22.9851	-4.7515	0.4227	0.5119	0.4285	-0.6129
6.92	-9.3989	-1.1411	1.2914	0.0018	0.0319	-0.0222	33.4030	22.7159	-4.5996	0.4226	0.5120	0.4286	-0.6129
6.93	-9.3880	-1.1352	1.2887	0.0183	0.0299	-0.0132	33.2937	22.9603	-4.9089	0.4225	0.5122	0.4285	-0.6128
6.94	-9.3676	-1.1236	1.2820	0.0212	0.0297	-0.0217	33.3012	23.0922	-4.6650	0.4223	0.5123	0.4285	-0.6128
6.95	-9.3532	-1.1138	1.2771	0.0227	0.0402	-0.0350	33.0088	23.3051	-4.5166	0.4221	0.5125	0.4285	-0.6128
6.96	-9.3495	-1.1024	1.2737	0.0311	0.0392	-0.0260	33.0898	23.1838	-4.6951	0.4219	0.5127	0.4284	-0.6128
6.97	-9.3636	-1.0863	1.2793	0.0417	0.0427	-0.0295	33.1425	23.0426	-4.7007	0.4217	0.5129	0.4284	-0.6129
6.98	-9.4081	-1.0797	1.2766	0.0458	0.0406	-0.0243	33.1904	22.7374	-4.5194	0.4214	0.5131	0.4283	-0.6129
6.99	-9.4031	-1.0708	1.2644	0.0481	0.0428	-0.0251	33.3559	22.9678	-4.5370	0.4212	0.5134	0.4282	-0.6129
7	-9.4119	-1.0526	1.2602	0.0462	0.0545	-0.0270	33.1465	23.1969	-4.5433	0.4209	0.5136	0.4281	-0.6130
7.01	-9.4380	-1.0318	1.2494	0.0470	0.0485	-0.0236	33.1550	23.1910	-4.3233	0.4206	0.5139	0.4280	-0.6130
7.02	-9.4200	-1.0198	1.2394	0.0474	0.0471	-0.0276	33.1466	22.8601	-4.4758	0.4204	0.5142	0.4280	-0.6130
7.03	-9.4191	-1.0072	1.2356	0.0480	0.0489	-0.0296	33.7826	22.6241	-4.3741	0.4201	0.5144	0.4279	-0.6130
7.04	-9.4279	-0.9919	1.2216	0.0463	0.0418	-0.0168	34.2423	22.7520	-4.2675	0.4199	0.5147	0.4278	-0.6130
7.05	-9.4188	-0.9756	1.2188	0.0445	0.0433	-0.0127	33.5845	23.1246	-4.4620	0.4197	0.5149	0.4277	-0.6130
7.06	-9.4338	-0.9638	1.2197	0.0325	0.0512	-0.0174	33.6729	23.1216	-4.6441	0.4195	0.5152	0.4276	-0.6130
7.07	-9.4501	-0.9568	1.2152	0.0300	0.0466	-0.0162	33.3524	23.0335	-4.5856	0.4193	0.5154	0.4276	-0.6130
7.08	-9.4528	-0.9479	1.2178	0.0252	0.0421	-0.0118	33.2674	22.9135	-4.4156	0.4191	0.5156	0.4275	-0.6129
7.09	-9.4581	-0.9573	1.2146	0.0168	0.0447	-0.0196	33.4840	23.0732	-4.4836	0.4189	0.5158	0.4275	-0.6129
7.1	-9.4314	-0.9624	1.2064	-0.0020	0.0427	-0.0099	33.2078	23.0237	-4.4578	0.4188	0.5160	0.4275	-0.6128
7.11	-9.4345	-0.9584	1.2022	-0.0017	0.0344	-0.0066	33.3029	22.9483	-4.6140	0.4188	0.5162	0.4275	-0.6127
7.12	-9.4544	-0.9485	1.1944	-0.0014	0.0388	-0.0074	33.4388	22.9578	-4.6922	0.4187	0.5163	0.4275	-0.6126
7.13	-9.4433	-0.9438	1.1873	-0.0106	0.0426	-0.0087	33.3632	22.9739	-4.4318	0.4187	0.5165	0.4276	-0.6125
7.14	-9.4455	-0.9515	1.1787	-0.0228	0.0404	-0.0072	33.2066	23.0469	-4.2583	0.4187	0.5166	0.4277	-0.6123
7.15	-9.4571	-0.9625	1.1679	-0.0311	0.0404	-0.0071	33.5355	22.7366	-4.4445	0.4187	0.5167	0.4278	-0.6122
7.16	-9.4530	-0.9708	1.1565	-0.0304	0.0363	-0.0096	33.3862	22.9444	-4.5401	0.4187	0.5168	0.4278	-0.6120
7.17	-9.4448	-0.9742	1.1587	-0.0317	0.0307	-0.0151	33.1253	23.0809	-4.5729	0.4187	0.5169	0.4279	-0.6119
7.18	-9.4591	-0.9836	1.1575	-0.0311	0.0286	-0.0097	33.4788	23.1458	-4.5414	0.4187	0.5169	0.4280	-0.6118
7.19	-9.4505	-0.9958	1.1609	-0.0351	0.0294	-0.0144	33.3567	23.1452	-4.5844	0.4187	0.5170	0.4281	-0.6116
7.2	-9.4536	-1.0046	1.1611	-0.0351	0.0236	-0.0159	33.3556	23.0608	-4.4587	0.4187	0.5170	0.4282	-0.6115
7.21	-9.4519	-1.0219	1.1625	-0.0332	0.0212	-0.0166	33.2236	22.8110	-4.2319	0.4188	0.5170	0.4283	-0.6114
7.22	-9.4241	-1.0327	1.1505	-0.0298	0.0198	-0.0179	33.4980	22.9581	-4.3161	0.4188	0.5171	0.4284	-0.6113
7.23	-9.4387	-1.0357	1.1596	-0.0313	0.0198	-0.0299	33.4807	22.9157	-4.4837	0.4188	0.5171	0.4285	-0.6113
7.24	-9.4295	-1.0557	1.1432	-0.0307	0.0280	-0.0311	33.3882	22.6570	-4.3335	0.4187	0.5171	0.4287	-0.6112
7.25	-9.3810	-1.0425	1.1426	-0.0198	0.0222	-0.0273	33.7765	22.7377	-4.2681	0.4187	0.5171	0.4287	-0.6111
7.26	-9.4393	-1.0491	1.1311	-0.0272	0.0302	-0.0293	33.7082	22.8508	-4.4596	0.4186	0.5171	0.4289	-0.6110
7.27	-9.4343	-1.0533	1.1299	-0.0179	0.0226	-0.0299	33.4108	22.9640	-4.4658	0.4186	0.5172	0.4290	-0.6110
7.28	-9.4228	-1.0609	1.1278	-0.0069	0.0214	-0.0345	33.4426	23.0703	-4.4519	0.4185	0.5172	0.4290	-0.6110
7.29	-9.4314	-1.0791	1.1212	-0.0026	0.0100	-0.0335	33.4659	23.0337	-4.3314	0.4184	0.5172	0.4290	-0.6110
7.3	-9.4113	-1.0676	1.1303	-0.0035	0.0129	-0.0325	33.5913	23.1089	-4.4229	0.4183	0.5173	0.4291	-0.6110
7.31	-9.4219	-1.0687	1.1294	-0.0070	0.0138	-0.0329	33.2990	23.2676	-4.1416	0.4183	0.5173	0.4291	-0.6110
7.32	-9.4479	-1.0697	1.1399	-0.0010	0.0261	-0.0325	33.2855	22.9308	-4.2491	0.4181	0.5173	0.4291	-0.6110
7.33	-9.4377	-1.0594	1.1414	-0.0013	0.0146	-0.0323	33.3740	23.0652	-4.4399	0.4180	0.5174	0.4292	-0.6110
7.34	-9.4356	-1.0530	1.1488	-0.0009	0.0207	-0.0322	33.3376	22.9275	-4.2372	0.4179	0.5174	0.4292	-0.6110
7.35	-9.4455	-1.0634	1.1496	-0.0021	0.0222	-0.0357	33.3585	23.2295	-4.4271	0.4178	0.5175	0.4292	-0.6110
7.36	-9.4130	-1.0564	1.1499	0.0043	0.0233	-0.0347	33.3492	23.2627	-4.4570	0.4177	0.5176	0.4293	-0.6111
7.37	-9.4154	-1.0583	1.1374	0.0079	0.0219	-0.0331	33.3499	23.0763	-4.2717	0.4176	0.5176	0.4293	-0.6111
7.38	-9.3814	-1.0658	1.1351	-0.0003	0.0241	-0.0334	33.3668	23.2509	-4.2832	0.4174	0.5177	0.4293	-0.6111
7.39	-9.4013	-1.0697	1.1414	-0.0020	0.0199	-0.0319	33.0876	23.2310	-4.4112	0.4173	0.5177	0.4294	-0.6111
7.4	-9.4267	-1.0878	1.1335	-0.0061	0.0191	-0.0331	33.3337	23.1698	-4.3361	0.4173	0.5178	0.4294	-0.6111
7.41	-9.4149	-1.0863	1.1510	-0.0028	0.0225	-0.0322	33.5849	23.1406	-4.4892	0.4171	0.5178	0.4294	-0.6111
7.42	-9.4301	-1.1045	1.1404	-0.0044	0.0153	-0.0291	33.3847	23.0219	-4.3289	0.4171	0.5179	0.4295	-0.6111
7.43	-9.4126	-1.1071	1.1486	-0.0009	0.0213	-0.0253	33.5097	23.1058	-4.4428	0.4170	0.5179	0.4295	-0.6111
7.44	-9.4183	-1.1004	1.1407	0.0016	0.0277	-0.0198	33.4887	22.8785	-4.4086	0.4169	0.5181	0.4295	-0.6110
7.45	-9.3969	-1.0963	1.1405	-0.0020	0.0316	-0.0147	33.3188	23.0413	-4.2783	0.4168	0.5182	0.4295	-0.6110
7.46	-9.4108	-1.0881	1.1350	0.0052	0.0319	-0.0118	33.4879	23.1614	-4.2476	0.4167	0.5183	0.4295	-0.6109
7.47	-9.4032	-1.0936	1.1232	0.0066	0.0373	-0.0164	33.2107	22.9852	-4.2083	0.4166	0.5185	0.4295	-0.6109
7.48	-9.4074	-1.0825	1.1182	-0.0052	0.0336	-0.0095	33.4427	23.1608	-4.3368	0.4166	0.5186	0.4295	-0.6108
7.49	-9.4415	-1.0874	1.1064	-0.0013	0.0334	-0.0079	33.4270	23.1226	-4.0510	0.4165	0.5187	0.4295	-0.6107
7.5	-9.4533	-1.0860	1.1005	0.0001	0.0385	-0.0104	33.3567	23.1623	-4.1247	0.4164	0.5189	0.4295	-0.6106
7.51	-9.4692	-1.0833	1.0956	0.0100	0.0436	-0.0084	33.2630	22.8888	-4.2875	0.4163	0.5191	0.4295	-0.6105
7.52	-9.5066	-1.0763	1.0917	0.0170	0.0356	-0.0057	33.4638	23.2718	-4.1358	0.4162	0.5193	0.4295	-0.6105
7.53	-9.5035	-1.0651	1.0850	0.0168	0.0280	-0.0071	34.0463	23.1716	-3.8200	0.4161	0.5195	0.4294	-0.6104
7.54	-9.4748	-1.0508	1.0774	0.0172	0.0264	-0.0064	34.1976	23.0550	-3.9006	0.4160	0.5196	0.4293	-0.6104
7.55	-9.4765	-1.0486	1.0773	0.0172	0.0279	-0.0066	33.6345	23.3380	-3.9976	0.4159	0.5198	0.4292	-0.6104
7.56	-9.4672	-1.0438	1.0747	0.0193	0.0176	-0.0052	33.1261	23.3765	-4.2687	0.4159	0.5199	0.4291	-0.6104
7.57	-9.4674	-1.0440	1.0898	0.0214	0.0170	-0.0121	33.2743	23.1206	-4.3291	0.4158	0.5201	0.4290	-0.6104
7.58	-9.4823	-1.0524	1.0870	0.0214	0.0123	-0.0100	33.2832	23.0263	-3.8369	0.4157	0.5202	0.4289	-0.6104
7.59	-9.4679	-1.0334	1.0971	0.0214	0.0034	-0.0056	33.1911	22.8895	-3.9897	0.4156	0.5203	0.4288	-0.6105
7.6	-9.4683	-1.0322	1.0935	0.0212	0.0010	-0.0064	33.3512	22.6269	-4.1560	0.4156	0.5204	0.4287	-0.6105
7.61	-9.4337	-1.0277	1.0935	0.0217	-0.0028	-0.0096	33.5994	22.8573	-4.0532	0.4156	0.5205	0.4285	-0.6106
7.62	-9.4165	-1.0140	1.0993	0.0192	0.0028	-0.0071	33.7373	22.8541	-4.2827	0.4155	0.5206	0.4284	-0.6106
7.63	-9.4229	-1.0094	1.1011	0.0216	-0.0009	-0.0089	33.4594	22.8473	-4.1400	0.4155	0.5206	0.4282	-0.6107
7.64	-9.4071	-0.9923	1.1194	0.0158	-0.0123	-0.0167	33.2897	22.9843	-4.1734	0.4154	0.5207	0.4281	-0.6108
7.65	-9.4317	-1.0009	1.1179	0.0130	-0.0054	-0.0161	33.1431	22.8651	-4.1425	0.4154	0.5207	0.4280	-0.6108
7.66	-9.4561	-1.0100	1.1275	0.0112	-0.0044	-0.0155	33.1898	22.8649	-4.2402	0.4154	0.5207	0.4279	-0.6109
7.67	-9.4574	-1.0201	1.1241	0.0020	-0.0149	-0.0151	33.5465	22.7279	-4.2681	0.4154	0.5207	0.4278	-0.6110
7.68	-9.4242	-1.0237	1.1402	-0.0004	-0.0108	-0.0130	33.4664	22.8403	-4.0709	0.4154	0.5207	0.4277	-0.6110
7.69	-9.4215	-1.0225	1.1341	-0.0013	-0.0039	-0.0113	33.3095	23.0224	-4.3533	0.4154	0.5208	0.4277	-0.6110
7.7	-9.4070	-1.0207	1.1321	-0.0003	-0.0024	-0.0052	33.3491	23.1279	-4.2465	0.4154	0.5208	0.4276	-0.6110
7.71	-9.3979	-1.0175	1.1249	0.0001	0.0059	-0.0069	33.1455	23.0917	-4.1789	0.4154	0.5208	0.4275	-0.6110
7.72	-9.3903	-1.0273	1.1170	-0.0015	0.0085	-0.0090	33.2334	22.8390	-4.0648	0.4154	0.5209	0.4275	-0.6110
7.73	-9.4004	-1.0307	1.1094	0.0043	0.0160	-0.0058	33.3600	22.9018	-3.9145	0.4154	0.5210	0.4274	-0.6110
7.74	-9.4037	-1.0352	1.1059	-0.0005	0.0152	-0.0114	33.2121	23.1795	-4.2115	0.4154	0.5211	0.4274	-0.6110
7.75	-9.4347	-1.0413	1.1112	-0.0065	0.0101	-0.0120	33.2138	23.0255	-4.1475	0.4153	0.5211	0.4273	-0.6110
7.76	-9.4615	-1.0457	1.1030	-0.0040	0.0140	-0.0122	33.3109	22.9252	-4.1666	0.4153	0.5212	0.4273	-0.6109
7.77	-9.4484	-1.0410	1.1088	0.0021	0.0068	-0.0141	33.2184	22.8704	-4.1505	0.4153	0.5213	0.4273	-0.6109
7.78	-9.4546	-1.0393	1.1058	0.0158	0.0077	-0.0143	33.4663	22.7405	-4.3756	0.4152	0.5214	0.4272	-0.6110
7.79	-9.4561	-1.0371	1.1026	0.0139	0.0061	-0.0101	33.7817	22.9243	-4.1631	0.4152	0.5214	0.4271	-0.6110
7.8	-9.4466	-1.0347	1.0990	0.0025	0.0036	-0.0208	33.4896	22.7433	-4.1453	0.4151	0.5215	0.4270	-0.6110
7.81	-9.4383	-1.0272	1.1010	0.0148	0.0060	-0.0163	33.4074	22.7914	-4.2505	0.4151	0.5215	0.4270	-0.6111
7.82	-9.4651	-1.0307	1.0932	0.0098	0.0014	-0.0211	33.6317	22.8451	-4.3875	0.4150	0.5216	0.4269	-0.6111
7.83	-9.4138	-1.0239	1.0918	0.0187	0.0007	-0.0169	33.1570	22.9013	-4.0559	0.4149	0.5216	0.4268	-0.6112
7.84	-9.4328	-1.0133	1.0995	0.0037	0.0047	-0.0164	33.5028	22.6487	-4.2163	0.4149	0.5217	0.4267	-0.6112
7.85	-9.4647	-1.0273	1.0894	0.0029	-0.0092	-0.0195	33.5831	22.8265	-4.4873	0.4149	0.5217	0.4267	-0.6113
7.86	-9.4525	-1.0187	1.0983	0.0091	-0.0088	-0.0214	33.3244	22.9326	-4.0832	0.4149	0.5217	0.4266	-0.6114
7.87	-9.4691	-1.0343	1.0973	-0.0003	-0.0067	-0.0249	33.2820	22.8597	-4.1028	0.4148	0.5217	0.4265	-0.6114
7.88	-9.4424	-1.0466	1.1124	0.0009	-0.0090	-0.0181	33.5362	23.0922	-4.3845	0.4148	0.5217	0.4265	-0.6115
7.89	-9.4383	-1.0430	1.1170	0.0114	-0.0112	-0.0155	33.3203	22.8488	-4.3140	0.4148	0.5217	0.4264	-0.6116
7.9	-9.4304	-1.0280	1.1278	0.0116	-0.0096	-0.0099	33.2144	22.9129	-4.2020	0.4148	0.5217	0.4262	-0.6116
7.91	-9.4080	-1.0290	1.1299	0.0062	-0.0071	-0.0139	33.1498	22.9497	-4.0562	0.4148	0.5217	0.4261	-0.6117
7.92	-9.4354	-1.0310	1.1299	0.0147	-0.0032	-0.0155	33.2327	22.9390	-4.0863	0.4147	0.5218	0.4260	-0.6117
7.93	-9.4076	-1.0267	1.1309	0.0054	-0.0085	-0.0142	33.4972	23.2106	-4.1852	0.4147	0.5218	0.4259	-0.6118
7.94	-9.4287	-1.0477	1.1303	0.0106	-0.0051	-0.0161	33.2574	22.9514	-4.1367	0.4147	0.5218	0.4259	-0.6119
7.95	-9.3857	-1.0318	1.1223	0.0066	-0.0093	-0.0191	33.1227	22.9421	-3.8228	0.4147	0.5218	0.4258	-0.6119
7.96	-9.4369	-1.0557	1.1373	0.0121	-0.0041	-0.0152	33.2581	22.9305	-4.0882	0.4146	0.5219	0.4257	-0.6120
7.97	-9.3940	-1.0364	1.1117	0.0187	-0.0017	-0.0094	33.7251	22.4674	-4.2760	0.4146	0.5219	0.4255	-0.6121
7.98	-9.4022	-1.0346	1.1303	0.0176	-0.0016	-0.0193	33.7184	22.6507	-4.2653	0.4145	0.5220	0.4254	-0.6121
7.99	-9.4069	-1.0353	1.1128	0.0125	-0.0039	-0.0159	33.5423	22.8852	-4.0052	0.4145	0.5220	0.4253	-0.6122
8	-9.4311	-1.0456	1.1364	0.0098	0.0034	-0.0147	33.7564	22.7195	-4.1701	0.4144	0.5221	0.4253	-0.6122
8.01	-9.3912	-1.0210	1.1031	0.0178	0.0087	-0.0174	33.5052	22.6295	-4.1978	0.4144	0.5222	0.4252	-0.6123
8.02	-9.4061	-1.0320	1.1278	0.0169	0.0072	-0.0130	33.6153	22.8671	-4.1729	0.4143	0.5223	0.4251	-0.6123
8.03	-9.4305	-1.0308	1.1037	0.0171	0.0092	-0.0111	34.0798	23.0546	-3.8740	0.4142	0.5223	0.4250	-0.6123
8.04	-9.4274	-1.0267	1.1245	0.0097	0.0087	-0.0152	34.0937	23.0208	-3.7259	0.4142	0.5224	0.4249	-0.6124
8.05	-9.4621	-1.0334	1.0966	0.0127	0.0112	-0.0105	33.4670	22.8288	-4.2291	0.4141	0.5225	0.4248	-0.6124
8.06	-9.4536	-1.0235	1.1063	0.0110	0.0119	-0.0101	33.3103	23.1042	-4.2428	0.4140	0.5226	0.4248	-0.6124
8.07	-9.4620	-1.0329	1.0910	0.0132	0.0103	-0.0080	33.2363	23.0127	-4.2184	0.4140	0.5227	0.4247	-0.6124
8.08	-9.4459	-1.0222	1.0989	0.0109	0.0092	-0.0068	33.4876	22.7219	-3.9791	0.4140	0.5228	0.4246	-0.6124
8.09	-9.4409	-1.0145	1.0985	0.0101	0.0076	-0.0099	33.6628	22.9345	-3.9547	0.4139	0.5229	0.4245	-0.6124
8.1	-9.4059	-1.0119	1.1118	0.0105	0.0094	-0.0087	33.4864	22.9891	-4.1489	0.4139	0.5230	0.4244	-0.6124
8.11	-9.3841	-1.0085	1.1181	0.0185	0.0119	-0.0088	33.3244	22.9843	-4.2514	0.4138	0.5231	0.4243	-0.6125
8.12	-9.3672	-1.0146	1.1196	0.0178	0.0175	-0.0065	33.3781	23.0044	-4.1504	0.4137	0.5232	0.4242	-0.6125
8.13	-9.3513	-1.0155	1.1187	0.0132	0.0283	-0.0069	33.3413	22.8884	-4.0948	0.4137	0.5234	0.4242	-0.6124
8.14	-9.3393	-1.0243	1.1078	0.0157	0.0341	-0.0065	33.6137	22.8056	-3.8181	0.4136	0.5235	0.4241	-0.6124
8.15	-9.3389	-1.0366	1.1041	0.0115	0.0335	-0.0069	33.6255	22.8060	-3.9626	0.4135	0.5237	0.4241	-0.6123
8.16	-9.3821	-1.0387	1.1073	0.0179	0.0484	-0.0059	33.6336	22.8863	-4.0589	0.4133	0.5239	0.4240	-0.6122
8.17	-9.3923	-1.0421	1.1074	0.0223	0.0518	-0.0068	33.6212	23.0133	-4.1026	0.4132	0.5242	0.4240	-0.6122
8.18	-9.3978	-1.0351	1.1151	0.0203	0.0484	-0.0045	33.5016	22.8339	-4.1794	0.4131	0.5244	0.4240	-0.6121
8.19	-9.4321	-1.0329	1.1058	0.0223	0.0524	-0.0016	33.6070	22.7967	-4.1664	0.4129	0.5247	0.4239	-0.6120
8.2	-9.4154	-1.0180	1.0982	0.0215	0.0477	-0.0005	33.6565	22.9042	-4.1631	0.4128	0.5249	0.4239	-0.6119
8.21	-9.4129	-0.9933	1.0838	0.0298	0.0543	0.0014	33.4744	22.9075	-4.0716	0.4126	0.5252	0.4238	-0.6118
8.22	-9.4510	-0.9795	1.0666	0.0228	0.0525	0.0065	33.4794	22.8897	-4.2242	0.4125	0.5254	0.4237	-0.6117
8.23	-9.4842	-0.9665	1.0633	0.0206	0.0548	0.0071	33.6282	22.9263	-4.0580	0.4124	0.5257	0.4237	-0.6116
8.24	-9.5137	-0.9647	1.0552	0.0240	0.0430	0.0000	33.6468	22.7804	-4.1814	0.4123	0.5260	0.4236	-0.6115
8.25	-9.5419	-0.9570	1.0500	0.0193	0.0358	-0.0016	33.5724	22.8645	-4.1535	0.4122	0.5262	0.4235	-0.6115
8.26	-9.5494	-0.9608	1.0314	0.0221	0.0412	-0.0073	33.3647	22.8974	-3.9807	0.4120	0.5264	0.4235	-0.6114
8.27	-9.5215	-0.9471	1.0306	0.0224	0.0274	-0.0022	33.6728	22.9881	-3.9907	0.4119	0.5266	0.4234	-0.6114
8.28	-9.5174	-0.9361	1.0136	0.0194	0.0302	-0.0045	33.4839	23.0920	-4.0827	0.4118	0.5267	0.4233	-0.6113
8.29	-9.5139	-0.9194	1.0068	0.0216	0.0228	-0.0065	33.6217	22.7611	-4.0982	0.4118	0.5269	0.4232	-0.6113
8.3	-9.5126	-0.9023	0.9986	0.0193	0.0187	-0.0075	33.5558	22.7019	-3.9764	0.4117	0.5270	0.4231	-0.6113
8.31	-9.5247	-0.8997	0.9909	0.0208	0.0209	-0.0060	33.5319	22.7610	-3.9988	0.4116	0.5272	0.4230	-0.6113
8.32	-9.5303	-0.9067	0.9895	0.0208	0.0143	-0.0102	33.5263	22.6673	-4.0518	0.4115	0.5273	0.4229	-0.6113
8.33	-9.5143	-0.9123	0.9946	0.0185	-0.0067	-0.0137	33.5939	22.8821	-3.7776	0.4115	0.5273	0.4228	-0.6114
8.34	-9.5096	-0.9097	0.9947	0.0162	-0.0173	-0.0125	33.6396	22.8296	-4.1904	0.4114	0.5273	0.4227	-0.6115
8.35	-9.5004	-0.9200	1.0086	0.0192	-0.0176	-0.0204	33.7251	22.7270	-4.1577	0.4114	0.5274	0.4226	-0.6116
8.36	-9.5079	-0.9203	1.0230	0.0060	-0.0230	-0.0191	33.5490	22.6617	-4.0145	0.4114	0.5273	0.4224	-0.6118
8.37	-9.4805	-0.9244	1.0400	-0.0018	-0.0269	-0.0257	33.5766	22.4853	-4.1799	0.4114	0.5272	0.4224	-0.6119
8.38	-9.4655	-0.9293	1.0564	0.0069	-0.0370	-0.0204	33.7465	22.6754	-4.0486	0.4114	0.5271	0.4222	-0.6120
8.39	-9.4510	-0.9388	1.0537	0.0006	-0.0367	-0.0275	33.8013	22.7341	-3.9868	0.4115	0.5270	0.4221	-0.6122
8.4	-9.4331	-0.9411	1.0724	-0.0005	-0.0365	-0.0315	33.4700	22.7215	-4.2981	0.4115	0.5269	0.4221	-0.6123
8.41	-9.4268	-0.9566	1.0644	-0.0031	-0.0322	-0.0272	33.7418	22.7333	-4.1646	0.4115	0.5268	0.4220	-0.6124
8.42	-9.3618	-0.9589	1.0800	-0.0051	-0.0369	-0.0352	33.5824	22.7133	-4.0588	0.4115	0.5266	0.4219	-0.6126
8.43	-9.3963	-0.9587	1.0875	0.0042	-0.0287	-0.0301	33.5686	22.7600	-4.0774	0.4115	0.5265	0.4219	-0.6127
8.44	-9.4038	-0.9694	1.0843	0.0004	-0.0224	-0.0331	33.6110	22.8531	-4.0716	0.4115	0.5265	0.4218	-0.6129
8.45	-9.4033	-0.9655	1.1017	-0.0062	-0.0158	-0.0327	33.3985	22.7052	-4.0764	0.4115	0.5264	0.4218	-0.6130
8.46	-9.4078	-0.9834	1.0888	0.0049	-0.0138	-0.0327	33.6034	22.7429	-4.0658	0.4114	0.5263	0.4217	-0.6131
8.47	-9.4019	-0.9766	1.1072	0.0026	-0.0122	-0.0328	33.6079	22.8752	-4.0862	0.4114	0.5263	0.4217	-0.6132
8.48	-9.4356	-0.9772	1.1009	0.0143	-0.0032	-0.0217	33.4188	22.9348	-4.0540	0.4113	0.5263	0.4216	-0.6132
8.49	-9.4126	-0.9569	1.1122	0.0133	-0.0091	-0.0185	33.5711	22.7708	-4.1967	0.4113	0.5263	0.4215	-0.6133
8.5	-9.4124	-0.9504	1.1029	0.0077	-0.0046	-0.0267	33.4983	22.8736	-4.2589	0.4112	0.5263	0.4215	-0.6134
8.51	-9.4054	-0.9513	1.1064	0.0127	0.0019	-0.0183	33.6257	22.8841	-4.0742	0.4111	0.5263	0.4214	-0.6135
8.52	-9.4080	-0.9534	1.0884	0.0076	0.0053	-0.0233	33.6544	23.0154	-4.0736	0.4111	0.5264	0.4214	-0.6135
8.53	-9.4191	-0.9576	1.0838	0.0107	0.0066	-0.0175	34.1570	22.9453	-4.0865	0.4110	0.5264	0.4213	-0.6135
8.54	-9.4595	-0.9603	1.0725	0.0093	0.0100	-0.0076	34.3436	22.9236	-3.9006	0.4110	0.5265	0.4212	-0.6135
8.55	-9.4681	-0.9483	1.0699	0.0037	0.0081	-0.0123	33.6615	22.8011	-4.1562	0.4109	0.5266	0.4212	-0.6136
8.56	-9.4904	-0.9477	1.0646	0.0003	0.0087	-0.0106	33.6931	22.8380	-4.4717	0.4109	0.5266	0.4211	-0.6136
8.57	-9.4968	-0.9516	1.0565	-0.0025	0.0084	-0.0142	33.5044	22.7344	-4.2582	0.4109	0.5267	0.4211	-0.6135
8.58	-9.4975	-0.9521	1.0608	-0.0005	0.0024	-0.0130	33.6731	22.5494	-4.1035	0.4109	0.5267	0.4211	-0.6136
8.59	-9.4862	-0.9631	1.0478	-0.0029	-0.0041	-0.0099	33.6845	22.6216	-4.3484	0.4109	0.5267	0.4210	-0.6136
8.6	-9.4647	-0.9624	1.0572	-0.0027	-0.0072	-0.0076	33.5671	22.7918	-4.3692	0.4109	0.5267	0.4209	-0.6136
8.61	-9.4733	-0.9660	1.0541	0.0014	-0.0149	-0.0095	33.3055	22.7600	-4.1637	0.4110	0.5267	0.4208	-0.6137
8.62	-9.4663	-0.9631	1.0570	0.0116	-0.0105	-0.0076	33.3828	22.6114	-4.2392	0.4110	0.5268	0.4207	-0.6137
8.63	-9.4674	-0.9559	1.0596	0.0082	-0.0093	-0.0101	33.4964	22.9355	-4.2742	0.4110	0.5268	0.4206	-0.6138
8.64	-9.4742	-0.9393	1.0706	0.0081	-0.0142	-0.0164	33.7641	22.8853	-4.1421	0.4109	0.5268	0.4205	-0.6139
8.65	-9.4726	-0.9306	1.0727	0.0164	-0.0241	-0.0180	33.6959	22.7930	-4.3740	0.4109	0.5267	0.4204	-0.6140
8.66	-9.4613	-0.9218	1.0803	0.0205	-0.0170	-0.0104	33.3942	22.9031	-4.2697	0.4109	0.5268	0.4202	-0.6141
8.67	-9.4661	-0.9152	1.0912	0.0174	-0.0218	-0.0214	33.3119	22.7546	-4.2512	0.4109	0.5267	0.4201	-0.6142
8.68	-9.4562	-0.9040	1.1016	0.0200	-0.0258	-0.0216	33.3261	22.7654	-4.2802	0.4108	0.5267	0.4199	-0.6144
8.69	-9.4666	-0.8939	1.1163	0.0180	-0.0269	-0.0243	33.3033	22.8518	-4.4619	0.4108	0.5267	0.4198	-0.6145
8.7	-9.4654	-0.8857	1.1169	0.0207	-0.0310	-0.0244	33.4168	22.7837	-4.3473	0.4108	0.5266	0.4197	-0.6147
8.71	-9.4429	-0.8755	1.1332	0.0152	-0.0387	-0.0284	33.4005	22.7766	-4.4726	0.4108	0.5265	0.4195	-0.6149
8.72	-9.4499	-0.8780	1.1341	0.0059	-0.0294	-0.0314	33.7778	22.5734	-4.5780	0.4107	0.5264	0.4194	-0.6150
8.73	-9.4295	-0.8793	1.1388	0.0038	-0.0395	-0.0310	33.6177	22.4738	-4.4227	0.4107	0.5263	0.4193	-0.6152
8.74	-9.4162	-0.8790	1.1445	0.0019	-0.0347	-0.0342	33.4736	22.6313	-4.4645	0.4107	0.5262	0.4192	-0.6154
8.75	-9.3876	-0.8771	1.1379	-0.0017	-0.0365	-0.0323	33.6282	22.5770	-4.3883	0.4107	0.5260	0.4192	-0.6155
8.76	-9.3615	-0.8726	1.1469	-0.0067	-0.0241	-0.0347	33.5337	22.4246	-4.3695	0.4107	0.5259	0.4191	-0.6156
8.77	-9.3756	-0.8770	1.1550	-0.0051	-0.0230	-0.0325	33.3642	22.4833	-4.5623	0.4107	0.5258	0.4191	-0.6157
8.78	-9.3899	-0.8883	1.1551	-0.0118	-0.0241	-0.0329	33.6836	22.7616	-4.5157	0.4107	0.5257	0.4191	-0.6158
8.79	-9.3811	-0.8996	1.1652	-0.0183	-0.0178	-0.0341	33.4175	22.5837	-4.3853	0.4108	0.5256	0.4191	-0.6159
8.8	-9.3989	-0.9058	1.1621	-0.0253	-0.0150	-0.0323	33.2802	22.4564	-4.3090	0.4108	0.5255	0.4192	-0.6160
8.81	-9.3795	-0.9224	1.1445	-0.0300	-0.0076	-0.0376	33.3291	22.7239	-4.4832	0.4108	0.5254	0.4192	-0.6160
8.82	-9.3673	-0.9342	1.1529	-0.0298	0.0011	-0.0405	33.2160	22.7876	-4.3974	0.4108	0.5253	0.4194	-0.6160
8.83	-9.4005	-0.9575	1.1415	-0.0294	0.0139	-0.0309	33.3874	22.9579	-4.3546	0.4108	0.5252	0.4195	-0.6160
8.84	-9.3979	-0.9713	1.1406	-0.0319	0.0053	-0.0332	33.1913	22.8853	-4.3355	0.4108	0.5252	0.4196	-0.6160
8.85	-9.4219	-0.9878	1.1434	-0.0308	0.0065	-0.0331	33.3690	22.6377	-4.4974	0.4108	0.5251	0.4197	-0.6159
8.86	-9.4597	-1.0079	1.1379	-0.0303	0.0200	-0.0329	33.2557	22.8792	-4.5017	0.4107	0.5251	0.4198	-0.6159
8.87	-9.4667	-1.0231	1.1313	-0.0306	0.0067	-0.0334	33.4972	22.7868	-4.4424	0.4107	0.5250	0.4199	-0.6159
8.88	-9.4445	-1.0393	1.1266	-0.0314	-0.0077	-0.0290	33.4049	22.7758	-4.3456	0.4108	0.5250	0.4200	-0.6159
8.89	-9.4191	-1.0375	1.1327	-0.0268	-0.0074	-0.0307	33.3098	22.7611	-4.2599	0.4108	0.5249	0.4201	-0.6159
8.9	-9.4206	-1.0245	1.1416	-0.0185	0.0002	-0.0219	33.2889	22.4639	-4.3887	0.4108	0.5248	0.4201	-0.6159
8.91	-9.4061	-1.0105	1.1284	-0.0184	0.0041	-0.0167	33.4856	22.6269	-4.3149	0.4108	0.5248	0.4201	-0.6159
8.92	-9.3861	-0.9963	1.1210	-0.0052	0.0142	-0.0263	33.4988	22.5610	-4.4757	0.4108	0.5248	0.4201	-0.6159
8.93	-9.4082	-0.9968	1.1250	-0.0061	0.0156	-0.0260	33.5147	22.6788	-4.5472	0.4107	0.5249	0.4202	-0.6159
8.94	-9.4151	-0.9954	1.1182	-0.0037	0.0166	-0.0267	33.4155	22.6059	-4.2938	0.4106	0.5249	0.4202	-0.6159
8.95	-9.4043	-0.9866	1.1189	-0.0031	0.0207	-0.0329	33.4913	22.6934	-4.5822	0.4105	0.5249	0.4203	-0.6159
8.96	-9.4260	-0.9795	1.1107	-0.0053	0.0102	-0.0328	33.4942	22.7632	-4.3557	0.4104	0.5249	0.4203	-0.6159
8.97	-9.4418	-0.9735	1.1190	-0.0049	0.0144	-0.0317	33.3615	22.7027	-4.0900	0.4103	0.5250	0.4203	-0.6159
8.98	-9.4612	-0.9671	1.1091	-0.0037	0.0153	-0.0330	33.4604	22.8241	-4.2684	0.4103	0.5250	0.4204	-0.6159
8.99	-9.4573	-0.9652	1.1110	-0.0030	0.0119	-0.0318	33.2572	22.6513	-4.3662	0.4102	0.5250	0.4204	-0.6159
9	-9.4474	-0.9667	1.0989	-0.0055	0.0159	-0.0357	33.2839	22.8378	-4.1900	0.4101	0.5250	0.4205	-0.6160
9.01	-9.4493	-0.9687	1.0921	-0.0060	0.0254	-0.0389	33.2611	22.6999	-4.2100	0.4099	0.5251	0.4206	-0.6160
9.02	-9.4731	-0.9797	1.0738	-0.0064	0.0212	-0.0407	33.3311	23.0548	-4.3201	0.4098	0.5251	0.4206	-0.6160
9.03	-9.4430	-0.9799	1.0644	-0.0079	0.0180	-0.0417	34.0451	23.2467	-3.9905	0.4097	0.5251	0.4207	-0.6160
9.04	-9.4612	-0.9765	1.0719	-0.0127	0.0250	-0.0334	34.1297	23.1930	-3.9058	0.4096	0.5251	0.4208	-0.6160
9.05	-9.4992	-1.0001	1.0529	-0.0240	0.0248	-0.0371	33.5138	23.1939	-4.3369	0.4095	0.5251	0.4209	-0.6159
9.06	-9.4908	-1.0095	1.0596	-0.0305	0.0146	-0.0360	33.4093	23.1595	-4.3294	0.4095	0.5251	0.4211	-0.6159
9.07	-9.5047	-1.0245	1.0574	-0.0301	0.0065	-0.0361	33.3098	23.0373	-4.3580	0.4095	0.5250	0.4212	-0.6159
9.08	-9.4988	-1.0457	1.0606	-0.0308	-0.0012	-0.0335	33.4110	22.9846	-4.3632	0.4095	0.5249	0.4213	-0.6159
9.09	-9.4939	-1.0440	1.0731	-0.0263	-0.0111	-0.0314	33.5523	22.9045	-4.3561	0.4095	0.5248	0.4213	-0.6159
9.1	-9.4896	-1.0391	1.0766	-0.0296	-0.0173	-0.0318	33.5166	22.8054	-4.2517	0.4096	0.5247	0.4214	-0.6159
9.11	-9.4702	-1.0312	1.0883	-0.0254	-0.0158	-0.0299	33.5847	23.0605	-4.4232	0.4096	0.5246	0.4214	-0.6160
9.12	-9.4490	-1.0280	1.0959	-0.0264	-0.0173	-0.0304	33.6410	22.6486	-4.4727	0.4096	0.5245	0.4215	-0.6160
9.13	-9.4271	-1.0335	1.1049	-0.0217	-0.0177	-0.0269	33.6153	23.0355	-4.3363	0.4097	0.5244	0.4215	-0.6161
9.14	-9.4038	-1.0404	1.1049	-0.0257	-0.0221	-0.0299	33.7515	23.0450	-4.2644	0.4097	0.5242	0.4215	-0.6161
9.15	-9.3812	-1.0439	1.1176	-0.0267	-0.0176	-0.0336	33.2938	22.8179	-4.4330	0.4098	0.5241	0.4216	-0.6162
9.16	-9.3759	-1.0413	1.1277	-0.0260	-0.0136	-0.0344	33.3200	23.0156	-4.4788	0.4098	0.5240	0.4216	-0.6162
9.17	-9.3731	-1.0384	1.1349	-0.0133	-0.0145	-0.0305	33.4920	22.9537	-4.3177	0.4098	0.5239	0.4216	-0.6163
9.18	-9.3733	-1.0345	1.1435	-0.0049	-0.0034	-0.0260	33.3984	22.9034	-4.1241	0.4098	0.5239	0.4216	-0.6164
9.19	-9.3766	-1.0285	1.1462	-0.0042	-0.0050	-0.0272	33.3305	23.0563	-4.2388	0.4097	0.5238	0.4216	-0.6164
9.2	-9.3623	-1.0292	1.1426	-0.0042	0.0006	-0.0306	33.4650	22.7601	-4.3798	0.4097	0.5238	0.4216	-0.6165
9.21	-9.3606	-1.0228	1.1409	-0.0035	0.0128	-0.0324	33.3169	22.8640	-4.3165	0.4096	0.5238	0.4217	-0.6165
9.22	-9.3707	-1.0217	1.1322	-0.0053	0.0169	-0.0325	33.4213	22.8641	-4.2778	0.4095	0.5238	0.4217	-0.6165
9.23	-9.3851	-1.0212	1.1324	-0.0054	0.0195	-0.0316	33.4574	23.0574	-4.4688	0.4094	0.5239	0.4218	-0.6165
9.24	-9.3953	-1.0226	1.1207	-0.0109	0.0174	-0.0300	33.4540	23.1558	-4.4560	0.4093	0.5239	0.4218	-0.6165
9.25	-9.4069	-1.0151	1.1281	-0.0083	0.0174	-0.0316	33.2989	23.0774	-4.3003	0.4092	0.5239	0.4219	-0.6165
9.26	-9.4299	-1.0217	1.1102	-0.0087	0.0270	-0.0296	33.2634	22.9853	-4.2724	0.4092	0.5240	0.4220	-0.6164
9.27	-9.4258	-1.0193	1.1094	-0.0092	0.0257	-0.0335	33.3119	23.0873	-4.1698	0.4090	0.5240	0.4220	-0.6164
9.28	-9.4345	-1.0212	1.0995	-0.0204	0.0247	-0.0309	33.7677	23.0249	-4.4036	0.4090	0.5240	0.4221	-0.6164
9.29	-9.4254	-1.0266	1.0858	-0.0264	0.0225	-0.0328	33.3837	22.8939	-4.6294	0.4089	0.5240	0.4223	-0.6163
9.3	-9.4329	-1.0277	1.0843	-0.0278	0.0292	-0.0322	33.2826	23.0274	-4.3620	0.4089	0.5240	0.4224	-0.6162
9.31	-9.4428	-1.0319	1.0705	-0.0264	0.0291	-0.0328	33.4872	22.8798	-4.2728	0.4088	0.5241	0.4226	-0.6162
9.32	-9.4508	-1.0268	1.0649	-0.0273	0.0278	-0.0326	33.3240	23.0019	-4.3511	0.4087	0.5241	0.4227	-0.6161
9.33	-9.4576	-1.0314	1.0608	-0.0307	0.0324	-0.0366	33.3373	23.0145	-4.2354	0.4087	0.5241	0.4229	-0.6160
9.34	-9.4623	-1.0333	1.0579	-0.0276	0.0307	-0.0357	33.2185	23.1768	-4.2884	0.4086	0.5241	0.4230	-0.6160
9.35	-9.4774	-1.0365	1.0587	-0.0287	0.0249	-0.0347	33.3271	23.0635	-4.2630	0.4085	0.5241	0.4232	-0.6159
9.36	-9.4618	-1.0377	1.0594	-0.0275	0.0212	-0.0383	33.3331	23.0420	-4.2593	0.4085	0.5241	0.4233	-0.6159
9.37	-9.4640	-1.0292	1.0608	-0.0296	0.0186	-0.0371	33.4520	22.9489	-4.0517	0.4084	0.5241	0.4235	-0.6158
9.38	-9.4546	-1.0300	1.0668	-0.0307	0.0183	-0.0374	33.4359	23.0930	-4.1993	0.4084	0.5240	0.4236	-0.6158
9.39	-9.4359	-1.0326	1.0679	-0.0300	0.0212	-0.0384	33.1416	23.0596	-4.1519	0.4083	0.5240	0.4237	-0.6157
9.4	-9.4329	-1.0324	1.0676	-0.0298	0.0184	-0.0426	33.3363	23.0993	-4.2417	0.4083	0.5240	0.4239	-0.6157
9.41	-9.4268	-1.0456	1.0712	-0.0349	0.0172	-0.0425	33.1629	23.2846	-4.2854	0.4082	0.5239	0.4241	-0.6157
9.42	-9.4250	-1.0561	1.0730	-0.0383	0.0262	-0.0436	33.2783	23.1018	-4.2753	0.4082	0.5239	0.4243	-0.6156
9.43	-9.4136	-1.0694	1.0713	-0.0488	0.0184	-0.0481	33.2991	23.2597	-4.1032	0.4081	0.5238	0.4245	-0.6155
9.44	-9.4042	-1.0832	1.0560	-0.0532	0.0196	-0.0411	33.4016	23.3336	-4.1389	0.4081	0.5237	0.4247	-0.6155
9.45	-9.4072	-1.0997	1.0541	-0.0456	0.0256	-0.0414	33.2553	23.0255	-4.2823	0.4081	0.5236	0.4249	-0.6154
9.46	-9.4401	-1.1158	1.0609	-0.0448	0.0184	-0.0386	33.2748	23.3153	-4.2860	0.4081	0.5236	0.4251	-0.6153
9.47	-9.4445	-1.1373	1.0547	-0.0524	0.0219	-0.0429	33.4485	23.0118	-4.2102	0.4081	0.5235	0.4254	-0.6152
9.48	-9.4567	-1.1432	1.0537	-0.0424	0.0291	-0.0409	33.4255	23.3010	-3.8682	0.4080	0.5235	0.4256	-0.6151
9.49	-9.4617	-1.1600	1.0366	-0.0357	0.0310	-0.0402	33.5960	23.4757	-4.0254	0.4080	0.5234	0.4258	-0.6151
9.5	-9.4333	-1.1605	1.0360	-0.0339	0.0142	-0.0408	33.3113	23.2318	-4.2499	0.4079	0.5234	0.4259	-0.6150
9.51	-9.4445	-1.1677	1.0334	-0.0311	0.0165	-0.0332	33.1294	23.1220	-4.0590	0.4079	0.5233	0.4261	-0.6150
9.52	-9.4522	-1.1704	1.0346	-0.0289	0.0164	-0.0381	33.3204	23.2602	-3.8045	0.4078	0.5233	0.4262	-0.6149
9.53	-9.4717	-1.1695	1.0441	-0.0247	0.0212	-0.0395	33.7848	23.2553	-3.6887	0.4078	0.5233	0.4263	-0.6149
9.54	-9.4931	-1.1706	1.0475	-0.0263	0.0122	-0.0397	34.0164	23.2233	-3.6303	0.4077	0.5232	0.4265	-0.6149
9.55	-9.4813	-1.1752	1.0531	-0.0198	0.0030	-0.0380	33.3804	23.3682	-3.9457	0.4077	0.5232	0.4266	-0.6149
9.56	-9.4646	-1.1846	1.0514	-0.0165	-0.0012	-0.0349	33.1810	23.5835	-3.8578	0.4076	0.5231	0.4266	-0.6150
9.57	-9.4376	-1.1825	1.0564	-0.0233	-0.0052	-0.0360	32.8617	23.3449	-3.9728	0.4076	0.5230	0.4267	-0.6150
9.58	-9.4267	-1.1655	1.0615	-0.0111	0.0049	-0.0322	33.0653	23.4218	-3.9922	0.4076	0.5230	0.4267	-0.6150
9.59	-9.4136	-1.1445	1.0619	-0.0168	0.0050	-0.0328	33.0590	23.2566	-3.7988	0.4075	0.5230	0.4268	-0.6150
9.6	-9.4053	-1.1300	1.0590	-0.0196	0.0084	-0.0330	33.0523	23.5407	-3.8494	0.4075	0.5229	0.4269	-0.6150
9.61	-9.3982	-1.1328	1.0548	-0.0198	0.0026	-0.0310	32.7849	23.5031	-3.9671	0.4075	0.5229	0.4269	-0.6150
9.62	-9.4007	-1.1356	1.0479	-0.0297	0.0104	-0.0342	33.0861	23.2486	-3.8360	0.4075	0.5228	0.4270	-0.6150
9.63	-9.4038	-1.1396	1.0495	-0.0252	0.0113	-0.0318	33.3754	23.4164	-3.7506	0.4074	0.5228	0.4271	-0.6150
9.64	-9.4068	-1.1495	1.0542	-0.0262	0.0064	-0.0323	33.1623	23.2384	-3.5638	0.4074	0.5228	0.4272	-0.6150
9.65	-9.4207	-1.1563	1.0523	-0.0275	0.0049	-0.0335	33.1791	23.2016	-3.8124	0.4074	0.5227	0.4273	-0.6150
9.66	-9.4252	-1.1581	1.0604	-0.0326	0.0102	-0.0323	33.3364	23.2045	-4.0433	0.4074	0.5227	0.4275	-0.6149
9.67	-9.4232	-1.1677	1.0618	-0.0288	0.0062	-0.0340	33.3288	23.2134	-3.9015	0.4074	0.5226	0.4276	-0.6149
9.68	-9.4118	-1.1757	1.0553	-0.0316	0.0091	-0.0315	33.0272	23.1914	-3.8964	0.4074	0.5225	0.4277	-0.6149
9.69	-9.3972	-1.1809	1.0629	-0.0297	0.0136	-0.0316	33.1791	23.2353	-4.0093	0.4073	0.5225	0.4278	-0.6149
9.7	-9.4048	-1.1974	1.0562	-0.0302	0.0113	-0.0307	33.3641	23.0844	-3.9097	0.4073	0.5225	0.4279	-0.6148
9.71	-9.3704	-1.2050	1.0409	-0.0260	0.0112	-0.0326	33.0715	23.2834	-3.8250	0.4073	0.5224	0.4280	-0.6148
9.72	-9.3683	-1.1931	1.0504	-0.0275	0.0182	-0.0278	33.0624	23.3834	-3.9561	0.4073	0.5224	0.4281	-0.6147
9.73	-9.4086	-1.2067	1.0478	-0.0301	0.0135	-0.0267	33.0438	23.1804	-3.9014	0.4073	0.5224	0.4282	-0.6147
9.74	-9.4112	-1.2040	1.0421	-0.0177	0.0078	-0.0256	33.1635	23.2115	-3.9244	0.4073	0.5224	0.4283	-0.6147
9.75	-9.4107	-1.2019	1.0350	-0.0286	0.0186	-0.0267	33.1305	23.3459	-3.7830	0.4072	0.5224	0.4284	-0.6146
9.76	-9.4113	-1.2136	1.0391	-0.0306	0.0193	-0.0264	32.9711	23.3945	-3.6636	0.4072	0.5224	0.4285	-0.6146
9.77	-9.4231	-1.2111	1.0410	-0.0236	0.0222	-0.0199	32.9662	23.3803	-3.6282	0.4072	0.5224	0.4286	-0.6145
9.78	-9.4261	-1.2022	1.0386	-0.0254	0.0231	-0.0170	33.0750	23.3748	-3.7689	0.4072	0.5224	0.4287	-0.6144
9.79	-9.4184	-1.2010	1.0340	-0.0279	0.0204	-0.0190	33.0560	23.5662	-3.7112	0.4072	0.5224	0.4288	-0.6143
9.8	-9.4017	-1.1931	1.0244	-0.0193	0.0207	-0.0145	33.0591	23.4768	-3.8216	0.4072	0.5225	0.4288	-0.6142
9.81	-9.4008	-1.1949	1.0169	-0.0305	0.0247	-0.0164	33.0644	23.4828	-3.8464	0.4072	0.5225	0.4289	-0.6142
9.82	-9.3984	-1.1989	1.0203	-0.0218	0.0280	-0.0164	33.0464	23.3073	-3.6769	0.4072	0.5226	0.4290	-0.6141
9.83	-9.4121	-1.1993	1.0133	-0.0138	0.0276	-0.0128	33.1023	23.5545	-3.6375	0.4071	0.5227	0.4291	-0.6140
9.84	-9.4260	-1.1933	1.0133	-0.0145	0.0274	-0.0073	33.2525	23.4103	-3.6510	0.4071	0.5228	0.4291	-0.6139
9.85	-9.4381	-1.1837	1.0088	-0.0097	0.0275	-0.0076	33.2277	23.1837	-3.6337	0.4071	0.5229	0.4291	-0.6138
9.86	-9.4468	-1.1714	0.9987	-0.0072	0.0348	-0.0089	33.2448	23.0200	-3.6425	0.4070	0.5230	0.4292	-0.6137
9.87	-9.4517	-1.1637	0.9926	-0.0116	0.0323	-0.0065	33.2125	22.9539	-3.6176	0.4070	0.5231	0.4292	-0.6136
9.88	-9.4554	-1.1500	0.9886	-0.0080	0.0312	-0.0073	33.3477	23.2406	-3.7359	0.4069	0.5232	0.4292	-0.6135
9.89	-9.4576	-1.1328	0.9754	-0.0100	0.0308	-0.0071	33.1812	23.3261	-3.8608	0.4069	0.5233	0.4292	-0.6135
9.9	-9.4662	-1.1258	0.9651	-0.0125	0.0279	-0.0075	33.1460	23.2020	-3.7745	0.4069	0.5234	0.4293	-0.6134
9.91	-9.4693	-1.1212	0.9684	-0.0177	0.0305	-0.0075	33.1186	23.0060	-3.6314	0.4069	0.5235	0.4293	-0.6133
9.92	-9.4719	-1.1209	0.9580	-0.0094	0.0216	-0.0102	33.3795	23.0397	-3.6330	0.4068	0.5236	0.4293	-0.6132
9.93	-9.4736	-1.1211	0.9515	-0.0095	0.0213	-0.0086	33.2408	23.1883	-3.6400	0.4068	0.5237	0.4293	-0.6132
9.94	-9.4623	-1.1239	0.9462	-0.0097	0.0237	-0.0109	33.1021	23.4104	-3.3907	0.4068	0.5237	0.4293	-0.6131
9.95	-9.4674	-1.1373	0.9397	-0.0180	0.0211	-0.0199	33.1895	23.3619	-3.3451	0.4068	0.5238	0.4294	-0.6130
9.96	-9.4786	-1.1502	0.9340	-0.0173	0.0161	-0.0217	32.9887	23.4197	-3.5052	0.4067	0.5238	0.4294	-0.6130
9.97	-9.4907	-1.1643	0.9395	-0.0093	0.0145	-0.0182	33.1727	23.3063	-3.4123	0.4067	0.5238	0.4295	-0.6130
9.98	-9.4914	-1.1653	0.9440	-0.0047	0.0113	-0.0186	33.3311	23.3619	-3.5679	0.4067	0.5239	0.4295	-0.6130
9.99	-9.4790	-1.1716	0.9469	-0.0047	0.0158	-0.0203	33.2612	23.4876	-3.5269	0.4066	0.5239	0.4295	-0.6130
10	-9.4812	-1.1782	0.9422	-0.0032	0.0103	-0.0209	33.0340	23.3497	-3.4753	0.4066	0.5239	0.4295	-0.6130
10.01	-9.4766	-1.1780	0.9428	0.0004	0.0042	-0.0210	33.2185	23.1983	-3.5858	0.4065	0.5240	0.4294	-0.6130
10.02	-9.4705	-1.1830	0.9499	0.0119	-0.0024	-0.0204	33.5911	23.3126	-3.4561	0.4065	0.5240	0.4294	-0.6131
10.03	-9.4723	-1.1862	0.9564	0.0121	-0.0124	-0.0170	33.7718	23.2720	-3.4258	0.4064	0.5240	0.4293	-0.6132
10.04	-9.4705	-1.1806	0.9602	0.0096	-0.0170	-0.0120	33.9697	23.1996	-3.4181	0.4064	0.5240	0.4291	-0.6133
10.05	-9.4572	-1.1821	0.9709	0.0214	-0.0146	-0.0153	33.1385	23.3168	-3.9165	0.4064	0.5240	0.4290	-0.6134
10.06	-9.4499	-1.1777	0.9718	0.0196	-0.0162	-0.0114	33.4025	23.5564	-3.6287	0.4064	0.5240	0.4289	-0.6135
10.07	-9.4378	-1.1684	0.9705	0.0213	-0.0099	-0.0139	33.0091	23.3629	-3.4966	0.4063	0.5240	0.4287	-0.6136
10.08	-9.4318	-1.1583	0.9862	0.0191	-0.0175	-0.0132	33.1104	23.4027	-3.7756	0.4063	0.5240	0.4286	-0.6137
10.09	-9.4137	-1.1425	0.9995	0.0194	-0.0154	-0.0146	33.3139	23.3400	-3.8412	0.4062	0.5240	0.4284	-0.6138
10.1	-9.4004	-1.1289	1.0099	0.0207	-0.0189	-0.0082	33.1627	23.3618	-3.5553	0.4062	0.5241	0.4283	-0.6140
10.11	-9.3929	-1.1199	1.0110	0.0187	-0.0190	-0.0112	33.0525	23.2421	-3.5445	0.4062	0.5241	0.4281	-0.6141
10.12	-9.3875	-1.1171	1.0231	0.0096	-0.0108	-0.0115	33.2375	23.1728	-3.7128	0.4062	0.5241	0.4280	-0.6141
10.13	-9.3949	-1.1216	1.0248	0.0014	-0.0087	-0.0145	33.3934	23.3841	-3.7129	0.4062	0.5241	0.4279	-0.6142
10.14	-9.3993	-1.1261	1.0279	-0.0014	-0.0029	-0.0178	33.2428	23.1885	-3.7042	0.4062	0.5241	0.4279	-0.6143
10.15	-9.4029	-1.1274	1.0324	-0.0066	-0.0054	-0.0180	33.2994	23.3221	-3.7191	0.4062	0.5241	0.4278	-0.6143
10.16	-9.4141	-1.1343	1.0266	-0.0028	-0.0028	-0.0179	33.2634	23.3524	-3.6919	0.4062	0.5240	0.4278	-0.6143
10.17	-9.4335	-1.1409	1.0179	-0.0042	-0.0008	-0.0210	33.2971	23.2190	-3.8390	0.4061	0.5240	0.4278	-0.6144
10.18	-9.4541	-1.1455	1.0098	-0.0053	-0.0073	-0.0213	33.2439	23.4238	-3.6018	0.4061	0.5240	0.4277	-0.6144
10.19	-9.4575	-1.1540	1.0051	-0.0037	-0.0042	-0.0223	33.1521	23.3632	-3.7533	0.4061	0.5240	0.4277	-0.6145
10.2	-9.4435	-1.1535	0.9959	-0.0079	-0.0092	-0.0180	33.3060	23.3120	-3.8412	0.4061	0.5240	0.4277	-0.6145
10.21	-9.4399	-1.1544	0.9903	-0.0025	-0.0102	-0.0212	33.1407	23.4668	-3.6612	0.4061	0.5239	0.4276	-0.6146
10.22	-9.4359	-1.1546	0.9899	-0.0034	-0.0159	-0.0197	33.6224	23.5393	-3.7697	0.4061	0.5239	0.4276	-0.6147
10.23	-9.4533	-1.1547	0.9858	0.0015	-0.0116	-0.0240	33.5182	23.4433	-3.5860	0.4061	0.5238	0.4275	-0.6148
10.24	-9.4633	-1.1573	0.9895	-0.0007	-0.0113	-0.0287	33.2289	23.3186	-3.7546	0.4061	0.5238	0.4275	-0.6148
10.25	-9.4763	-1.1545	1.0003	-0.0040	-0.0124	-0.0293	33.4379	23.2150	-3.9100	0.4060	0.5237	0.4274	-0.6149
10.26	-9.4872	-1.1585	0.9927	-0.0001	-0.0140	-0.0319	33.4796	23.3095	-3.7031	0.4060	0.5237	0.4274	-0.6150
10.27	-9.4473	-1.1569	1.0029	-0.0047	-0.0166	-0.0310	33.3605	23.4307	-3.7061	0.4060	0.5236	0.4274	-0.6151
10.28	-9.4541	-1.1608	1.0063	-0.0040	-0.0164	-0.0336	33.3830	23.3282	-3.7322	0.4060	0.5235	0.4274	-0.6152
10.29	-9.4617	-1.1688	1.0072	-0.0034	-0.0127	-0.0308	33.3367	23.4755	-3.8250	0.4059	0.5234	0.4273	-0.6153
10.3	-9.4580	-1.1747	1.0224	-0.0036	-0.0261	-0.0348	33.4758	23.3231	-3.8008	0.4059	0.5233	0.4273	-0.6154
10.31	-9.4749	-1.1803	1.0369	-0.0058	-0.0223	-0.0318	33.3348	23.4282	-3.7967	0.4059	0.5232	0.4273	-0.6156
10.32	-9.4830	-1.1864	1.0374	-0.0079	-0.0212	-0.0329	33.4383	23.5505	-3.7064	0.4059	0.5231	0.4272	-0.6157
10.33	-9.4537	-1.1995	1.0513	-0.0046	-0.0309	-0.0320	33.3706	23.2525	-3.6883	0.4059	0.5230	0.4272	-0.6158
10.34	-9.4306	-1.2037	1.0576	-0.0055	-0.0390	-0.0228	33.1581	23.3183	-3.8168	0.4059	0.5229	0.4271	-0.6159
10.35	-9.4021	-1.1948	1.0656	-0.0081	-0.0348	-0.0217	33.1992	23.4435	-3.7768	0.4060	0.5228	0.4270	-0.6161
10.36	-9.3899	-1.1828	1.0688	-0.0059	-0.0302	-0.0231	33.0555	23.4181	-3.8826	0.4060	0.5227	0.4269	-0.6162
10.37	-9.3846	-1.1796	1.0680	-0.0049	-0.0325	-0.0178	33.1708	23.4076	-3.8258	0.4061	0.5225	0.4268	-0.6163
10.38	-9.3624	-1.1797	1.0687	-0.0146	-0.0188	-0.0114	33.3055	23.5265	-3.8182	0.4062	0.5225	0.4268	-0.6163
10.39	-9.3713	-1.1862	1.0660	-0.0094	-0.0250	-0.0132	33.1280	23.4848	-3.7567	0.4062	0.5224	0.4267	-0.6164
10.4	-9.3809	-1.1942	1.0717	-0.0047	-0.0153	-0.0125	33.1281	23.2131	-3.7771	0.4063	0.5224	0.4266	-0.6165
10.41	-9.3879	-1.2001	1.0725	-0.0034	-0.0113	-0.0171	33.2905	23.3305	-4.0402	0.4063	0.5223	0.4266	-0.6165
10.42	-9.4040	-1.1998	1.0723	-0.0051	-0.0150	-0.0141	33.2829	23.4347	-3.8589	0.4063	0.5223	0.4265	-0.6166
10.43	-9.4160	-1.2027	1.0766	-0.0041	-0.0106	-0.0144	33.2602	23.4115	-3.9269	0.4063	0.5223	0.4265	-0.6167
10.44	-9.4057	-1.2018	1.0845	-0.0049	-0.0127	-0.0145	33.0994	22.9694	-4.0845	0.4063	0.5223	0.4264	-0.6167
10.45	-9.4096	-1.1932	1.0903	0.0051	-0.0105	-0.0136	33.0918	23.1415	-3.9779	0.4063	0.5222	0.4263	-0.6168
10.46	-9.3998	-1.1870	1.0890	0.0027	-0.0125	-0.0135	33.1144	23.3962	-4.0041	0.4063	0.5222	0.4262	-0.6168
10.47	-9.4011	-1.1753	1.0906	-0.0051	-0.0101	-0.0148	33.2376	23.4396	-3.9438	0.4064	0.5222	0.4262	-0.6169
10.48	-9.3952	-1.1840	1.0831	0.0025	-0.0097	-0.0157	33.0915	23.3382	-3.8631	0.4064	0.5222	0.4261	-0.6170
10.49	-9.3609	-1.1712	1.0930	0.0067	-0.0032	-0.0186	33.1088	23.4173	-4.0212	0.4063	0.5222	0.4260	-0.6170
10.5	-9.4020	-1.1782	1.0789	-0.0044	-0.0011	-0.0164	33.2212	23.4287	-3.9658	0.4063	0.5222	0.4260	-0.6170
10.51	-9.4087	-1.1774	1.0865	-0.0041	0.0044	-0.0127	33.1306	23.2021	-4.0291	0.4063	0.5222	0.4260	-0.6171
10.52	-9.4209	-1.1731	1.0891	-0.0036	-0.0046	-0.0167	33.1038	23.4277	-3.7959	0.4063	0.5222	0.4259	-0.6171
10.53	-9.4075	-1.1921	1.0833	-0.0052	-0.0035	-0.0225	33.7525	23.6267	-3.8146	0.4063	0.5222	0.4259	-0.6171
10.54	-9.3758	-1.1886	1.0953	-0.0012	-0.0009	-0.0105	34.0410	23.5852	-3.8219	0.4063	0.5222	0.4258	-0.6172
10.55	-9.3889	-1.1849	1.0971	0.0056	-0.0017	-0.0089	33.1187	23.5476	-3.8570	0.4063	0.5223	0.4258	-0.6172
10.56	-9.3877	-1.1740	1.0970	-0.0003	0.0014	-0.0059	33.1210	23.6929	-3.6681	0.4063	0.5223	0.4257	-0.6172
10.57	-9.3873	-1.1691	1.0931	-0.0020	-0.0004	-0.0078	33.0176	23.5302	-3.9438	0.4063	0.5223	0.4256	-0.6172
10.58	-9.3929	-1.1658	1.0963	0.0052	0.0059	-0.0098	33.1190	23.2952	-3.8434	0.4062	0.5224	0.4255	-0.6172
10.59	-9.3923	-1.1627	1.0943	0.0047	0.0093	-0.0127	33.2547	23.2367	-3.9204	0.4062	0.5224	0.4255	-0.6172
10.6	-9.4016	-1.1706	1.0876	0.0017	0.0048	-0.0139	33.4276	23.1940	-4.0122	0.4062	0.5225	0.4255	-0.6173
10.61	-9.4050	-1.1692	1.0844	0.0034	0.0118	-0.0095	33.3215	23.1011	-3.9279	0.4061	0.5226	0.4254	-0.6173
10.62	-9.4198	-1.1649	1.0744	-0.0007	0.0146	-0.0112	33.2785	23.1852	-4.0735	0.4061	0.5226	0.4254	-0.6173
10.63	-9.4337	-1.1629	1.0671	0.0001	0.0187	-0.0086	33.2193	23.3273	-3.8871	0.4061	0.5227	0.4253	-0.6172
10.64	-9.4335	-1.1613	1.0599	-0.0017	0.0187	-0.0108	33.3888	23.2757	-4.2076	0.4060	0.5228	0.4253	-0.6172
10.65	-9.4406	-1.1652	1.0507	-0.0053	0.0172	-0.0160	33.2605	23.1787	-3.9670	0.4060	0.5229	0.4253	-0.6172
10.66	-9.4428	-1.1637	1.0429	-0.0049	0.0163	-0.0145	33.2276	23.3054	-3.9080	0.4059	0.5229	0.4253	-0.6172
10.67	-9.4471	-1.1697	1.0369	-0.0033	0.0098	-0.0084	33.4573	23.3128	-3.9427	0.4059	0.5230	0.4253	-0.6171
10.68	-9.4612	-1.1765	1.0325	-0.0044	0.0153	-0.0080	33.1173	23.0137	-3.9022	0.4059	0.5230	0.4253	-0.6171
10.69	-9.4697	-1.1781	1.0232	-0.0053	0.0194	-0.0090	33.0325	23.3658	-3.7322	0.4059	0.5231	0.4253	-0.6171
10.7	-9.4821	-1.1879	1.0227	-0.0004	0.0107	-0.0066	33.1788	23.3997	-3.8442	0.4059	0.5232	0.4252	-0.6171
10.71	-9.4807	-1.1953	1.0224	-0.0030	0.0065	-0.0078	33.1343	23.3002	-3.8304	0.4058	0.5232	0.4252	-0.6170
10.72	-9.4715	-1.1965	1.0268	-0.0003	0.0089	-0.0063	33.0383	23.4105	-3.8601	0.4058	0.5233	0.4251	-0.6170
10.73	-9.4627	-1.1931	1.0329	0.0014	0.0020	-0.0079	33.0925	23.1495	-3.7484	0.4058	0.5233	0.4251	-0.6171
10.74	-9.4519	-1.1862	1.0305	0.0146	-0.0048	-0.0067	33.0364	23.4588	-3.7433	0.4058	0.5234	0.4249	-0.6171
10.75	-9.4429	-1.1808	1.0399	0.0138	-0.0108	-0.0077	33.1275	23.4425	-3.8887	0.4058	0.5234	0.4248	-0.6172
10.76	-9.4379	-1.1767	1.0487	0.0191	-0.0104	-0.0070	33.1258	23.3632	-3.9745	0.4058	0.5235	0.4247	-0.6173
10.77	-9.4329	-1.1622	1.0481	0.0197	-0.0183	-0.0058	32.9380	23.0295	-3.7907	0.4058	0.5235	0.4245	-0.6174
10.78	-9.4299	-1.1516	1.0590	0.0206	-0.0155	-0.0059	33.3167	22.8411	-3.9936	0.4058	0.5235	0.4243	-0.6175
10.79	-9.4211	-1.1346	1.0593	0.0224	-0.0148	-0.0063	33.5080	22.8529	-3.9417	0.4057	0.5235	0.4241	-0.6176
10.8	-9.4136	-1.1224	1.0656	0.0245	-0.0099	-0.0097	33.4549	22.9486	-3.9806	0.4057	0.5236	0.4240	-0.6177
10.81	-9.4174	-1.1156	1.0733	0.0232	-0.0118	-0.0079	33.3012	22.9348	-4.1051	0.4057	0.5236	0.4238	-0.6178
10.82	-9.4128	-1.1062	1.0678	0.0278	-0.0054	-0.0109	33.6094	23.0076	-4.0206	0.4056	0.5237	0.4237	-0.6179
10.83	-9.4046	-1.0937	1.0793	0.0272	-0.0090	-0.0130	33.3392	23.1868	-3.9077	0.4055	0.5237	0.4235	-0.6180
10.84	-9.4034	-1.0828	1.0780	0.0201	-0.0070	-0.0072	33.0868	23.0276	-3.7782	0.4055	0.5238	0.4234	-0.6180
10.85	-9.3891	-1.0777	1.0833	0.0222	-0.0141	-0.0130	33.4318	23.0295	-4.0705	0.4055	0.5238	0.4232	-0.6181
10.86	-9.3875	-1.0666	1.0822	0.0242	-0.0061	-0.0099	33.1853	23.0916	-3.9935	0.4054	0.5239	0.4231	-0.6182
10.87	-9.3960	-1.0630	1.0907	0.0187	-0.0025	-0.0110	32.9953	23.3424	-4.2748	0.4054	0.5239	0.4229	-0.6183
10.88	-9.4063	-1.0603	1.0931	0.0176	0.0073	-0.0137	33.2844	23.2559	-3.9615	0.4053	0.5240	0.4228	-0.6184
10.89	-9.3985	-1.0584	1.0884	0.0086	0.0078	-0.0151	33.1152	23.4897	-4.1000	0.4052	0.5241	0.4228	-0.6184
10.9	-9.4014	-1.0593	1.0900	-0.0006	0.0110	-0.0109	33.3794	23.1865	-4.0362	0.4052	0.5241	0.4227	-0.6184
10.91	-9.4089	-1.0665	1.0766	-0.0060	0.0140	-0.0086	33.1671	23.1557	-4.1062	0.4052	0.5242	0.4227	-0.6184
10.92	-9.4092	-1.0723	1.0735	-0.0030	0.0169	-0.0133	33.0524	23.5309	-4.0003	0.4051	0.5243	0.4227	-0.6183
10.93	-9.4130	-1.0784	1.0660	-0.0062	0.0235	-0.0138	32.9352	23.4728	-3.9503	0.4051	0.5243	0.4227	-0.6183
10.94	-9.4232	-1.0876	1.0604	-0.0033	0.0166	-0.0100	33.3241	23.4187	-4.0476	0.4051	0.5244	0.4227	-0.6183
10.95	-9.4390	-1.0959	1.0575	-0.0070	0.0251	-0.0068	33.2593	23.3923	-4.0929	0.4050	0.5245	0.4227	-0.6182
10.96	-9.4472	-1.1047	1.0519	-0.0028	0.0174	-0.0115	33.1306	23.1439	-4.1332	0.4050	0.5246	0.4227	-0.6182
10.97	-9.4500	-1.1122	1.0477	-0.0027	0.0197	-0.0134	33.5017	22.9968	-4.2490	0.4049	0.5247	0.4227	-0.6181
10.98	-9.4510	-1.1174	1.0356	-0.0025	0.0245	-0.0174	33.5193	23.0768	-4.0289	0.4049	0.5247	0.4227	-0.6181
10.99	-9.4520	-1.1240	1.0337	-0.0017	0.0175	-0.0170	33.4172	22.9123	-3.9955	0.4048	0.5248	0.4227	-0.6181
11	-9.4623	-1.1293	1.0308	-0.0054	0.0157	-0.0143	33.4132	23.2603	-4.0278	0.4048	0.5249	0.4227	-0.6181
11.01	-9.4622	-1.1289	1.0348	0.0023	0.0076	-0.0123	33.2324	23.0775	-4.0317	0.4047	0.5249	0.4227	-0.6181
11.02	-9.4622	-1.1321	1.0408	0.0087	0.0095	-0.0127	33.3728	23.0166	-4.2805	0.4047	0.5250	0.4226	-0.6181
11.03	-9.4598	-1.1343	1.0392	-0.0026	0.0084	-0.0083	33.8248	23.1564	-3.7581	0.4047	0.5250	0.4226	-0.6181
11.04	-9.4544	-1.1329	1.0446	0.0126	-0.0035	-0.0149	33.9983	23.2689	-3.5618	0.4046	0.5251	0.4225	-0.6181
11.05	-9.4403	-1.1273	1.0459	0.0135	-0.0017	-0.0194	33.4176	23.3572	-3.9369	0.4046	0.5251	0.4224	-0.6182
11.06	-9.4349	-1.1204	1.0457	0.0087	-0.0036	-0.0139	33.4199	23.5248	-3.8198	0.4045	0.5251	0.4223	-0.6183
11.07	-9.4305	-1.1158	1.0387	0.0179	0.0005	-0.0138	33.2525	23.2143	-4.0406	0.4045	0.5252	0.4222	-0.6183
11.08	-9.4314	-1.1122	1.0475	0.0154	0.0105	-0.0171	33.2636	23.1649	-3.6906	0.4044	0.5252	0.4221	-0.6184
11.09	-9.4232	-1.1065	1.0454	0.0175	0.0077	-0.0128	33.2304	23.2638	-3.7933	0.4043	0.5253	0.4220	-0.6184
11.1	-9.4106	-1.0903	1.0480	0.0117	-0.0027	-0.0186	33.2906	23.1041	-3.8871	0.4042	0.5254	0.4220	-0.6185
11.11	-9.4294	-1.0884	1.0585	0.0155	0.0000	-0.0181	33.3157	23.3034	-3.9268	0.4042	0.5254	0.4219	-0.6186
11.12	-9.4251	-1.0795	1.0578	0.0165	-0.0031	-0.0163	33.2176	23.0652	-4.0001	0.4041	0.5254	0.4218	-0.6186
11.13	-9.4231	-1.0659	1.0700	0.0218	0.0043	-0.0161	33.3501	23.0288	-3.9627	0.4040	0.5255	0.4217	-0.6187
11.14	-9.4275	-1.0608	1.0645	0.0197	0.0064	-0.0154	33.2357	23.1932	-3.9831	0.4039	0.5256	0.4216	-0.6188
11.15	-9.4002	-1.0530	1.0664	0.0231	0.0032	-0.0205	33.0501	23.0429	-3.9826	0.4038	0.5257	0.4215	-0.6189
11.16	-9.3993	-1.0460	1.0721	0.0155	0.0106	-0.0128	33.2333	23.1318	-3.9491	0.4038	0.5257	0.4214	-0.6189
11.17	-9.4271	-1.0494	1.0643	0.0029	0.0071	-0.0156	33.3521	23.1313	-4.2179	0.4037	0.5258	0.4213	-0.6189
11.18	-9.4409	-1.0495	1.0671	0.0105	0.0120	-0.0119	33.2290	23.1596	-4.0829	0.4036	0.5259	0.4213	-0.6189
11.19	-9.4653	-1.0579	1.0739	-0.0023	0.0117	-0.0128	33.4625	23.0546	-3.9019	0.4036	0.5259	0.4212	-0.6189
11.2	-9.4694	-1.0638	1.0714	-0.0060	0.0058	-0.0084	33.3399	23.1347	-4.1949	0.4036	0.5260	0.4212	-0.6189
11.21	-9.4489	-1.0735	1.0715	-0.0052	0.0051	-0.0093	33.1019	23.1279	-4.1453	0.4036	0.5260	0.4212	-0.6189
11.22	-9.4275	-1.0776	1.0667	-0.0079	0.0030	-0.0067	33.0793	23.0020	-3.8173	0.4036	0.5260	0.4211	-0.6189
11.23	-9.4212	-1.0695	1.0629	-0.0022	0.0072	-0.0079	33.3261	23.1447	-3.8241	0.4036	0.5261	0.4211	-0.6189
11.24	-9.4292	-1.0624	1.0636	-0.0073	0.0088	-0.0055	33.5487	23.1385	-4.1410	0.4036	0.5261	0.4211	-0.6189
11.25	-9.4202	-1.0610	1.0502	-0.0044	0.0106	-0.0067	33.3612	23.1367	-3.8439	0.4036	0.5262	0.4210	-0.6188
11.26	-9.4270	-1.0638	1.0421	-0.0085	0.0196	-0.0067	33.1315	23.1414	-3.8236	0.4036	0.5263	0.4210	-0.6188
11.27	-9.4328	-1.0738	1.0308	-0.0123	0.0212	-0.0103	33.2638	23.1364	-4.0048	0.4036	0.5263	0.4210	-0.6187
11.28	-9.4471	-1.0769	1.0235	-0.0063	0.0188	-0.0143	33.3357	23.0388	-3.8547	0.4036	0.5264	0.4210	-0.6187
11.29	-9.4583	-1.0814	1.0227	-0.0048	0.0194	-0.0171	33.3918	23.2124	-3.8978	0.4035	0.5264	0.4211	-0.6187
11.3	-9.4595	-1.0796	1.0273	0.0100	0.0138	-0.0259	33.4031	23.2353	-3.8825	0.4034	0.5265	0.4210	-0.6187
11.31	-9.4625	-1.0783	1.0362	-0.0004	0.0032	-0.0261	33.1918	23.2208	-3.8865	0.4033	0.5265	0.4210	-0.6187
11.32	-9.4515	-1.0777	1.0428	0.0003	-0.0007	-0.0303	33.4502	23.1122	-3.8968	0.4033	0.5265	0.4210	-0.6188
11.33	-9.4328	-1.0671	1.0514	0.0123	-0.0041	-0.0255	33.3196	23.1670	-4.0399	0.4032	0.5265	0.4209	-0.6189
11.34	-9.4148	-1.0678	1.0440	0.0112	0.0012	-0.0288	33.1413	23.0353	-3.8297	0.4031	0.5265	0.4209	-0.6190
11.35	-9.4209	-1.0638	1.0633	0.0010	0.0090	-0.0304	33.2576	23.1623	-4.1640	0.4030	0.5265	0.4209	-0.6190
11.36	-9.4327	-1.0722	1.0451	-0.0047	0.0148	-0.0297	33.2879	23.1013	-4.0746	0.4029	0.5266	0.4209	-0.6190
11.37	-9.3927	-1.0697	1.0507	-0.0040	0.0101	-0.0259	33.3608	22.9812	-3.9325	0.4029	0.5266	0.4210	-0.6190
11.38	-9.4332	-1.0764	1.0428	-0.0066	0.0129	-0.0205	33.3260	22.8505	-3.9938	0.4028	0.5266	0.4210	-0.6190
11.39	-9.4512	-1.0840	1.0482	-0.0101	0.0155	-0.0172	33.4592	23.0268	-3.8418	0.4028	0.5267	0.4210	-0.6190
11.4	-9.4538	-1.0903	1.0405	-0.0065	0.0138	-0.0156	33.4133	23.2042	-3.9140	0.4027	0.5267	0.4210	-0.6190
11.41	-9.4416	-1.1105	1.0238	-0.0080	0.0149	-0.0141	33.4488	23.0147	-3.8474	0.4027	0.5267	0.4210	-0.6190
11.42	-9.4293	-1.1151	1.0377	-0.0139	0.0100	-0.0146	33.3151	23.1866	-4.0245	0.4027	0.5268	0.4210	-0.6189
11.43	-9.4505	-1.1200	1.0335	-0.0057	0.0062	-0.0103	33.3646	23.0602	-4.0550	0.4027	0.5268	0.4210	-0.6189
11.44	-9.4499	-1.1077	1.0360	-0.0030	0.0092	-0.0058	33.2729	23.1434	-3.8885	0.4027	0.5269	0.4209	-0.6189
11.45	-9.4468	-1.0952	1.0341	-0.0050	0.0077	-0.0131	33.2360	23.3810	-3.8739	0.4027	0.5269	0.4209	-0.6189
11.46	-9.4484	-1.0822	1.0340	0.0015	0.0051	-0.0101	33.2684	23.0205	-4.0297	0.4027	0.5269	0.4209	-0.6189
11.47	-9.4361	-1.0766	1.0392	-0.0018	0.0179	-0.0091	33.3968	22.9816	-3.8786	0.4026	0.5270	0.4208	-0.6189
11.48	-9.4387	-1.0748	1.0432	-0.0028	0.0117	-0.0170	33.4744	23.1501	-3.9726	0.4026	0.5271	0.4208	-0.6189
11.49	-9.4395	-1.0624	1.0465	-0.0022	0.0104	-0.0179	33.1978	23.1423	-3.9598	0.4025	0.5271	0.4208	-0.6189
11.5	-9.4503	-1.0636	1.0481	-0.0053	0.0114	-0.0242	33.1894	22.9841	-4.0396	0.4025	0.5271	0.4208	-0.6189
11.51	-9.4314	-1.0469	1.0414	-0.0038	0.0068	-0.0269	33.4740	22.9897	-4.1981	0.4024	0.5271	0.4208	-0.6189
11.52	-9.4419	-1.0428	1.0489	-0.0030	0.0119	-0.0253	33.3703	23.1674	-3.7374	0.4024	0.5272	0.4208	-0.6189
