time	acceleration_x	acceleration_y	acceleration_z	gyroscope_x	gyroscope_y	gyroscope_z	magnetometer_x	magnetometer_y	magnetometer_z	quaternion_w	quaternion_x	quaternion_y	quaternion_z
0	-9.8345	-0.1742	-0.5901	-0.0137	-0.0147	-0.0479	24.0640	-4.7818	17.9995	0.6296	-0.3004	0.6639	0.2694
0.01	-9.8274	-0.1527	-0.5796	-0.0062	-0.0062	-0.0432	24.0535	-4.8905	18.2855	0.6296	-0.3004	0.6639	0.2694
0.02	-9.8460	-0.1564	-0.6007	-0.0199	-0.0078	-0.0483	24.1162	-4.9551	18.2196	0.6296	-0.3005	0.6639	0.2694
0.03	-9.8288	-0.1381	-0.5784	-0.0077	-0.0066	-0.0440	23.8473	-4.8416	18.2717	0.6295	-0.3005	0.6640	0.2694
0.04	-9.8538	-0.1363	-0.5756	-0.0112	-0.0132	-0.0475	23.8504	-4.8861	18.1382	0.6295	-0.3005	0.6639	0.2694
0.05	-9.8545	-0.1371	-0.5653	-0.0076	-0.0083	-0.0460	24.1106	-4.9770	18.1613	0.6295	-0.3006	0.6640	0.2694
0.06	-9.8691	-0.1670	-0.5920	-0.0127	-0.0055	-0.0440	24.0849	-4.7748	18.4501	0.6295	-0.3006	0.6639	0.2694
0.07	-9.8233	-0.1858	-0.5802	-0.0105	-0.0097	-0.0433	23.8339	-4.6433	18.3314	0.6295	-0.3006	0.6640	0.2695
0.08	-9.8525	-0.1671	-0.5728	-0.0054	0.0091	-0.0467	23.8925	-4.8228	18.4170	0.6293	-0.3006	0.6640	0.2694
0.09	-9.8334	-0.1853	-0.6010	-0.0109	0.0060	-0.0370	23.8378	-4.9805	18.4441	0.6293	-0.3007	0.6641	0.2695
0.1	-9.7896	-0.1855	-0.6080	-0.0069	0.0052	-0.0329	23.7348	-4.7680	18.3845	0.6292	-0.3007	0.6641	0.2695
0.11	-9.8007	-0.1696	-0.6331	-0.0071	0.0117	-0.0338	23.9345	-4.5539	18.2012	0.6291	-0.3007	0.6642	0.2695
0.12	-9.8175	-0.1313	-0.6338	-0.0007	0.0162	-0.0302	24.0961	-4.8732	18.4752	0.6290	-0.3007	0.6644	0.2695
0.13	-9.8349	-0.1142	-0.6389	0.0016	0.0135	-0.0391	23.8304	-4.7775	18.3747	0.6289	-0.3007	0.6644	0.2694
0.14	-9.8541	-0.1368	-0.6622	-0.0070	0.0125	-0.0425	23.7845	-4.5070	18.2932	0.6288	-0.3007	0.6646	0.2694
0.15	-9.8621	-0.1423	-0.6641	0.0016	0.0158	-0.0479	23.6722	-4.8548	18.4418	0.6286	-0.3007	0.6646	0.2693
0.16	-9.8618	-0.1457	-0.6603	0.0159	0.0140	-0.0523	23.8384	-4.6120	18.2895	0.6286	-0.3008	0.6648	0.2692
0.17	-9.8736	-0.1544	-0.6770	0.0121	0.0153	-0.0551	24.0069	-4.6701	18.2001	0.6286	-0.3008	0.6648	0.2691
0.18	-9.8851	-0.1455	-0.6851	0.0126	0.0098	-0.0540	23.9235	-4.6952	18.3256	0.6285	-0.3008	0.6649	0.2690
0.19	-9.8993	-0.1259	-0.6817	0.0040	0.0131	-0.0479	23.9925	-4.7987	18.4331	0.6284	-0.3008	0.6650	0.2689
0.2	-9.9240	-0.1361	-0.6901	-0.0095	0.0076	-0.0521	23.8970	-5.0310	18.1626	0.6283	-0.3009	0.6651	0.2688
0.21	-9.8925	-0.1467	-0.6901	-0.0081	0.0012	-0.0517	23.6635	-4.8473	18.3768	0.6283	-0.3010	0.6652	0.2688
0.22	-9.9120	-0.1614	-0.6973	-0.0126	-0.0023	-0.0478	23.7694	-4.6447	18.5355	0.6282	-0.3010	0.6651	0.2688
0.23	-9.9048	-0.1521	-0.6930	-0.0141	-0.0088	-0.0422	24.0149	-4.8732	18.4970	0.6282	-0.3011	0.6652	0.2689
0.24	-9.8946	-0.1581	-0.6854	-0.0117	-0.0176	-0.0348	23.8833	-4.7760	18.5522	0.6282	-0.3011	0.6652	0.2689
0.25	-9.9042	-0.1734	-0.6826	-0.0331	-0.0145	-0.0411	23.9082	-4.6710	18.4059	0.6281	-0.3011	0.6652	0.2690
0.26	-9.8906	-0.1715	-0.6818	-0.0339	-0.0193	-0.0351	24.1747	-4.7014	18.5378	0.6280	-0.3012	0.6651	0.2691
0.27	-9.8610	-0.1728	-0.6701	-0.0342	-0.0180	-0.0365	24.2398	-4.4641	18.6000	0.6280	-0.3013	0.6651	0.2693
0.28	-9.8566	-0.1539	-0.6591	-0.0216	-0.0208	-0.0349	24.2153	-4.5557	18.4557	0.6280	-0.3013	0.6651	0.2694
0.29	-9.8688	-0.1396	-0.6552	-0.0190	-0.0154	-0.0390	24.2286	-4.6507	18.5530	0.6279	-0.3013	0.6650	0.2694
0.3	-9.8383	-0.1388	-0.6447	-0.0142	-0.0191	-0.0452	23.9321	-4.6979	18.4228	0.6280	-0.3014	0.6651	0.2695
0.31	-9.8474	-0.1369	-0.6223	-0.0048	-0.0151	-0.0520	24.0836	-4.6496	18.5989	0.6279	-0.3014	0.6650	0.2695
0.32	-9.8613	-0.1396	-0.6249	-0.0124	-0.0203	-0.0524	24.2201	-4.8049	18.5354	0.6280	-0.3014	0.6650	0.2695
0.33	-9.8491	-0.1339	-0.6099	-0.0097	-0.0260	-0.0463	24.0272	-4.8054	18.4064	0.6279	-0.3014	0.6649	0.2695
0.34	-9.8293	-0.1195	-0.6120	-0.0062	-0.0177	-0.0417	23.9942	-4.6758	18.2644	0.6280	-0.3014	0.6649	0.2696
0.35	-9.8291	-0.0808	-0.6041	-0.0080	-0.0188	-0.0412	23.9393	-4.7824	18.2416	0.6280	-0.3014	0.6649	0.2696
0.36	-9.8575	-0.0653	-0.6022	-0.0142	-0.0138	-0.0460	24.1502	-4.8100	18.4511	0.6279	-0.3015	0.6649	0.2696
0.37	-9.8646	-0.0802	-0.6218	-0.0252	-0.0210	-0.0539	24.2593	-4.7943	18.2792	0.6280	-0.3016	0.6649	0.2697
0.38	-9.8694	-0.0782	-0.6121	-0.0330	-0.0235	-0.0566	24.1309	-4.9501	18.3725	0.6279	-0.3017	0.6648	0.2697
0.39	-9.8798	-0.0939	-0.6164	-0.0331	-0.0225	-0.0623	24.3840	-4.9975	18.2084	0.6280	-0.3018	0.6647	0.2698
0.4	-9.8780	-0.0899	-0.6327	-0.0316	-0.0182	-0.0655	24.2085	-4.8864	18.4305	0.6279	-0.3019	0.6646	0.2698
0.41	-9.8881	-0.0876	-0.6248	-0.0362	-0.0176	-0.0679	24.2987	-4.7686	18.3882	0.6279	-0.3021	0.6645	0.2699
0.42	-9.8939	-0.1208	-0.6379	-0.0388	-0.0265	-0.0709	24.3049	-4.8467	18.1241	0.6279	-0.3023	0.6644	0.2699
0.43	-9.8582	-0.1596	-0.6278	-0.0343	-0.0253	-0.0758	24.2118	-4.9825	18.1344	0.6279	-0.3025	0.6643	0.2699
0.44	-9.8733	-0.1859	-0.6278	-0.0361	-0.0233	-0.0823	24.2831	-4.8962	18.3387	0.6280	-0.3027	0.6642	0.2700
0.45	-9.8671	-0.1707	-0.6299	-0.0364	-0.0300	-0.0760	23.9326	-4.7195	18.1817	0.6280	-0.3029	0.6640	0.2700
0.46	-9.8243	-0.1728	-0.6155	-0.0334	-0.0297	-0.0717	24.1230	-4.5669	18.2970	0.6281	-0.3031	0.6639	0.2700
0.47	-9.8560	-0.1719	-0.6236	-0.0400	-0.0271	-0.0682	24.2393	-4.8169	18.3351	0.6280	-0.3032	0.6637	0.2701
0.48	-9.8463	-0.1746	-0.6193	-0.0356	-0.0335	-0.0658	24.2933	-4.6971	18.3022	0.6281	-0.3034	0.6637	0.2702
0.49	-9.8406	-0.1747	-0.6261	-0.0378	-0.0226	-0.0644	24.1277	-4.7124	18.3450	0.6281	-0.3036	0.6636	0.2702
0.5	-9.8504	-0.1645	-0.6111	-0.0362	-0.0211	-0.0604	24.1101	-4.7236	18.2384	0.6281	-0.3037	0.6635	0.2703
0.51	-9.8558	-0.1711	-0.6167	-0.0407	-0.0222	-0.0577	24.2674	-4.7018	18.1338	0.6281	-0.3039	0.6634	0.2704
0.52	-9.8514	-0.1751	-0.6226	-0.0396	-0.0203	-0.0496	24.2734	-4.4941	18.1031	0.6280	-0.3040	0.6633	0.2705
0.53	-9.8408	-0.1797	-0.6070	-0.0310	-0.0242	-0.0411	24.3367	-4.5792	18.2172	0.6280	-0.3041	0.6633	0.2706
0.54	-9.8443	-0.1896	-0.6151	-0.0333	-0.0209	-0.0460	24.1062	-4.7968	18.1441	0.6279	-0.3041	0.6631	0.2707
0.55	-9.8562	-0.1883	-0.6131	-0.0359	-0.0264	-0.0533	24.3044	-5.0102	18.1436	0.6280	-0.3043	0.6631	0.2708
0.56	-9.8351	-0.1915	-0.6061	-0.0323	-0.0201	-0.0476	24.1798	-4.9672	18.1192	0.6280	-0.3044	0.6630	0.2709
0.57	-9.8260	-0.2034	-0.6224	-0.0352	-0.0195	-0.0489	24.4198	-4.9781	18.2348	0.6280	-0.3045	0.6630	0.2710
0.58	-9.8398	-0.2153	-0.6214	-0.0380	-0.0119	-0.0489	24.4169	-4.9814	18.1309	0.6278	-0.3046	0.6629	0.2711
0.59	-9.8301	-0.2213	-0.6217	-0.0333	-0.0168	-0.0523	24.3411	-4.9600	18.2884	0.6278	-0.3047	0.6629	0.2712
0.6	-9.8192	-0.2283	-0.6347	-0.0320	-0.0131	-0.0532	24.4452	-4.8293	18.3034	0.6278	-0.3048	0.6629	0.2713
0.61	-9.8188	-0.2337	-0.6117	-0.0347	-0.0079	-0.0514	24.1207	-4.7040	18.1084	0.6277	-0.3049	0.6628	0.2713
0.62	-9.8726	-0.2547	-0.6326	-0.0257	-0.0073	-0.0500	24.2826	-4.8236	18.1496	0.6277	-0.3051	0.6629	0.2714
0.63	-9.8615	-0.2593	-0.6336	-0.0284	-0.0102	-0.0487	24.2184	-4.7680	18.2797	0.6276	-0.3052	0.6628	0.2714
0.64	-9.8375	-0.2629	-0.6242	-0.0341	-0.0049	-0.0533	24.3237	-4.6775	18.3528	0.6276	-0.3053	0.6628	0.2715
0.65	-9.8669	-0.2687	-0.6523	-0.0337	0.0009	-0.0498	24.3481	-4.7442	18.2072	0.6274	-0.3054	0.6627	0.2715
0.66	-9.8563	-0.2581	-0.6345	-0.0262	-0.0062	-0.0482	24.3258	-4.7756	18.2481	0.6274	-0.3055	0.6628	0.2716
0.67	-9.8791	-0.2746	-0.6309	-0.0128	-0.0038	-0.0488	24.1774	-4.7087	18.3624	0.6273	-0.3056	0.6628	0.2716
0.68	-9.8966	-0.2796	-0.6309	-0.0124	-0.0138	-0.0467	24.1492	-4.6581	18.2245	0.6273	-0.3056	0.6627	0.2716
0.69	-9.9036	-0.2745	-0.6351	-0.0085	-0.0111	-0.0445	24.1704	-4.4221	18.1267	0.6273	-0.3057	0.6628	0.2717
0.7	-9.8993	-0.2716	-0.6232	-0.0039	-0.0168	-0.0486	24.1514	-4.5890	18.1107	0.6273	-0.3057	0.6628	0.2717
0.71	-9.8774	-0.2741	-0.6055	-0.0064	-0.0196	-0.0415	24.1785	-4.6931	18.2029	0.6273	-0.3057	0.6628	0.2717
0.72	-9.8627	-0.2750	-0.6205	-0.0023	-0.0219	-0.0335	24.0659	-4.7864	18.2434	0.6273	-0.3056	0.6627	0.2717
0.73	-9.8463	-0.2834	-0.6083	0.0055	-0.0137	-0.0342	24.0649	-4.9519	18.1091	0.6273	-0.3056	0.6628	0.2717
0.74	-9.8466	-0.2726	-0.6335	0.0067	-0.0172	-0.0251	24.4062	-4.9320	18.1724	0.6273	-0.3055	0.6628	0.2718
0.75	-9.8381	-0.2417	-0.6414	0.0167	-0.0185	-0.0292	24.4067	-4.8858	18.3490	0.6273	-0.3053	0.6629	0.2718
0.76	-9.8400	-0.2213	-0.6476	0.0116	-0.0146	-0.0305	24.6255	-4.7841	18.2004	0.6273	-0.3052	0.6629	0.2717
0.77	-9.8566	-0.2115	-0.6294	0.0195	-0.0168	-0.0327	24.8352	-4.7092	18.2766	0.6274	-0.3051	0.6629	0.2717
0.78	-9.8604	-0.2142	-0.6262	0.0172	-0.0210	-0.0338	24.5259	-4.8431	18.3171	0.6274	-0.3050	0.6630	0.2717
0.79	-9.8569	-0.2028	-0.6223	0.0219	-0.0168	-0.0376	24.3326	-4.6893	18.3069	0.6274	-0.3049	0.6630	0.2716
0.8	-9.8480	-0.1937	-0.6356	0.0224	-0.0131	-0.0376	24.0338	-4.7562	18.2661	0.6275	-0.3048	0.6631	0.2716
0.81	-9.8471	-0.1867	-0.6292	0.0189	-0.0159	-0.0349	24.1933	-4.7095	18.2613	0.6275	-0.3047	0.6631	0.2715
0.82	-9.8684	-0.1874	-0.6300	0.0187	-0.0177	-0.0377	24.0181	-4.7848	18.1723	0.6276	-0.3046	0.6632	0.2715
0.83	-9.8750	-0.1721	-0.6338	0.0162	-0.0146	-0.0381	23.9854	-4.8202	18.1367	0.6275	-0.3045	0.6631	0.2714
0.84	-9.8899	-0.1556	-0.6105	0.0131	-0.0155	-0.0383	23.9508	-4.6755	18.1574	0.6275	-0.3045	0.6632	0.2714
0.85	-9.8905	-0.1674	-0.6121	0.0155	-0.0153	-0.0473	23.9288	-4.7602	18.1542	0.6276	-0.3044	0.6632	0.2713
0.86	-9.8907	-0.1732	-0.6237	0.0052	-0.0143	-0.0426	24.0202	-4.5986	18.4570	0.6276	-0.3044	0.6632	0.2713
0.87	-9.8762	-0.1688	-0.6108	0.0089	-0.0237	-0.0454	23.8752	-4.7585	18.2935	0.6277	-0.3044	0.6633	0.2713
0.88	-9.8661	-0.1851	-0.6068	0.0032	-0.0176	-0.0425	24.1784	-4.7851	18.1042	0.6276	-0.3043	0.6632	0.2712
0.89	-9.8777	-0.1931	-0.6209	0.0011	-0.0213	-0.0419	23.9064	-4.6790	18.2023	0.6277	-0.3043	0.6633	0.2713
0.9	-9.8452	-0.1882	-0.6033	0.0061	-0.0258	-0.0455	23.8944	-4.7472	18.4518	0.6277	-0.3042	0.6631	0.2712
0.91	-9.8400	-0.1990	-0.6023	0.0102	-0.0276	-0.0389	23.8957	-4.6759	18.2784	0.6278	-0.3042	0.6632	0.2712
0.92	-9.8475	-0.1864	-0.6099	0.0157	-0.0255	-0.0408	24.0976	-4.7928	18.2485	0.6278	-0.3041	0.6632	0.2712
0.93	-9.8370	-0.1843	-0.5960	0.0163	-0.0240	-0.0451	24.2666	-4.7795	18.1677	0.6279	-0.3040	0.6632	0.2711
0.94	-9.8320	-0.1879	-0.6032	0.0190	-0.0162	-0.0483	24.2555	-4.9370	18.1442	0.6280	-0.3040	0.6632	0.2711
0.95	-9.8545	-0.1882	-0.5813	0.0161	-0.0151	-0.0472	24.1101	-4.9326	18.3000	0.6280	-0.3039	0.6632	0.2710
0.96	-9.8717	-0.1922	-0.6028	0.0190	-0.0193	-0.0469	24.2717	-4.7137	18.1587	0.6281	-0.3038	0.6632	0.2709
0.97	-9.8642	-0.1878	-0.5966	0.0173	-0.0165	-0.0409	24.1542	-4.6163	18.1378	0.6280	-0.3037	0.6632	0.2708
0.98	-9.8516	-0.1537	-0.5965	0.0166	-0.0237	-0.0374	24.0889	-4.7630	18.2704	0.6281	-0.3037	0.6633	0.2708
0.99	-9.8792	-0.1353	-0.6056	0.0190	-0.0185	-0.0445	24.1641	-4.7745	18.0431	0.6282	-0.3036	0.6633	0.2707
1	-9.8850	-0.1421	-0.5972	0.0157	-0.0275	-0.0427	23.9724	-4.6913	18.1785	0.6283	-0.3035	0.6633	0.2707
1.01	-9.8575	-0.1373	-0.6045	0.0150	-0.0255	-0.0490	23.9858	-4.7205	18.4083	0.6283	-0.3034	0.6632	0.2706
1.02	-9.8625	-0.1299	-0.5995	0.0068	-0.0258	-0.0522	24.0103	-4.8472	18.0949	0.6284	-0.3034	0.6632	0.2706
1.03	-9.8504	-0.1477	-0.6021	0.0048	-0.0183	-0.0594	24.3146	-4.5160	17.9453	0.6284	-0.3035	0.6632	0.2705
1.04	-9.8520	-0.1622	-0.6070	0.0130	-0.0111	-0.0599	24.0705	-4.7304	18.2711	0.6284	-0.3034	0.6631	0.2704
1.05	-9.8602	-0.1655	-0.5867	-0.0001	-0.0185	-0.0593	23.9740	-4.5767	18.2325	0.6285	-0.3035	0.6632	0.2704
1.06	-9.8601	-0.1565	-0.5852	-0.0072	-0.0228	-0.0571	24.1500	-4.5900	18.2327	0.6285	-0.3035	0.6631	0.2703
1.07	-9.8613	-0.1570	-0.5882	-0.0075	-0.0154	-0.0546	24.1863	-4.5626	18.2665	0.6286	-0.3036	0.6631	0.2703
1.08	-9.8790	-0.1760	-0.5871	-0.0076	-0.0212	-0.0486	24.0639	-4.6213	18.1029	0.6286	-0.3036	0.6630	0.2703
1.09	-9.8650	-0.1814	-0.5780	-0.0072	-0.0228	-0.0473	24.2044	-4.7278	18.4706	0.6286	-0.3036	0.6630	0.2703
1.1	-9.8811	-0.1844	-0.5715	-0.0077	-0.0221	-0.0439	24.1057	-4.7534	18.2410	0.6287	-0.3037	0.6630	0.2704
1.11	-9.8850	-0.1852	-0.5727	-0.0078	-0.0268	-0.0421	24.0473	-4.8327	17.7883	0.6287	-0.3036	0.6629	0.2704
1.12	-9.8900	-0.1874	-0.5699	-0.0154	-0.0247	-0.0370	24.1981	-4.7886	18.1385	0.6288	-0.3037	0.6629	0.2705
1.13	-9.8800	-0.1810	-0.5583	-0.0175	-0.0281	-0.0355	24.4170	-4.8075	18.2847	0.6287	-0.3037	0.6628	0.2706
1.14	-9.8649	-0.1735	-0.5648	-0.0061	-0.0239	-0.0443	24.2020	-4.8009	18.1699	0.6288	-0.3037	0.6628	0.2706
1.15	-9.8574	-0.1722	-0.5483	-0.0103	-0.0246	-0.0440	24.0533	-4.8010	18.1358	0.6287	-0.3037	0.6626	0.2706
1.16	-9.8494	-0.1571	-0.5471	-0.0139	-0.0239	-0.0417	24.2016	-4.8113	18.1682	0.6288	-0.3037	0.6626	0.2707
1.17	-9.8326	-0.1575	-0.5452	-0.0063	-0.0251	-0.0443	24.2976	-4.6103	18.1239	0.6288	-0.3037	0.6626	0.2707
1.18	-9.8336	-0.1674	-0.5394	-0.0105	-0.0177	-0.0430	24.1502	-4.7111	18.2360	0.6289	-0.3037	0.6625	0.2707
1.19	-9.8536	-0.1613	-0.5365	-0.0112	-0.0199	-0.0435	24.1918	-4.7927	18.2508	0.6289	-0.3038	0.6625	0.2708
1.2	-9.8582	-0.1580	-0.5418	-0.0105	-0.0223	-0.0474	24.2350	-4.7251	18.1099	0.6289	-0.3038	0.6625	0.2708
1.21	-9.8316	-0.1560	-0.5418	-0.0210	-0.0199	-0.0522	23.9277	-4.8396	18.4123	0.6289	-0.3039	0.6624	0.2709
1.22	-9.8012	-0.1557	-0.5341	-0.0168	-0.0199	-0.0448	24.1717	-4.7230	18.0897	0.6289	-0.3039	0.6623	0.2709
1.23	-9.8324	-0.1612	-0.5251	-0.0147	-0.0160	-0.0522	24.2867	-4.5702	18.2377	0.6290	-0.3040	0.6623	0.2709
1.24	-9.8666	-0.1529	-0.5353	-0.0326	-0.0091	-0.0558	24.2083	-4.5796	18.4403	0.6289	-0.3041	0.6622	0.2710
1.25	-9.7974	-0.1778	-0.5350	-0.0299	-0.0118	-0.0556	24.1287	-4.6044	18.2717	0.6289	-0.3042	0.6622	0.2710
1.26	-9.8126	-0.2011	-0.5404	-0.0322	-0.0002	-0.0586	24.3693	-4.3028	18.4541	0.6288	-0.3044	0.6621	0.2711
1.27	-9.8599	-0.2111	-0.5561	-0.0245	0.0071	-0.0587	24.5977	-4.6562	18.2849	0.6288	-0.3045	0.6621	0.2711
1.28	-9.8452	-0.2003	-0.5427	-0.0279	-0.0023	-0.0556	24.6052	-4.7408	18.3848	0.6287	-0.3047	0.6621	0.2711
1.29	-9.8673	-0.2106	-0.5486	-0.0337	-0.0069	-0.0508	24.7176	-4.7527	18.2698	0.6286	-0.3048	0.6620	0.2711
1.3	-9.8929	-0.2175	-0.5501	-0.0322	-0.0098	-0.0418	24.4511	-4.7746	18.2668	0.6286	-0.3049	0.6621	0.2713
1.31	-9.8819	-0.2356	-0.5587	-0.0339	-0.0091	-0.0455	24.4100	-4.8441	18.2190	0.6286	-0.3050	0.6620	0.2713
1.32	-9.8753	-0.2420	-0.5508	-0.0303	-0.0138	-0.0415	24.5129	-4.8665	18.2481	0.6286	-0.3051	0.6620	0.2715
1.33	-9.8685	-0.2207	-0.5532	-0.0256	-0.0010	-0.0405	24.4329	-4.8606	18.1191	0.6284	-0.3052	0.6619	0.2715
1.34	-9.8606	-0.2326	-0.5714	-0.0328	-0.0037	-0.0343	24.5158	-4.9677	18.1531	0.6284	-0.3053	0.6620	0.2716
1.35	-9.8474	-0.2296	-0.5722	-0.0337	-0.0039	-0.0375	24.5539	-4.7739	18.2981	0.6283	-0.3054	0.6619	0.2717
1.36	-9.8399	-0.2281	-0.5886	-0.0267	-0.0130	-0.0358	24.2696	-5.0772	18.3575	0.6282	-0.3054	0.6619	0.2718
1.37	-9.8220	-0.1927	-0.5964	-0.0179	0.0004	-0.0449	24.3966	-4.8977	18.0764	0.6283	-0.3055	0.6620	0.2719
1.38	-9.8665	-0.1745	-0.6001	-0.0215	-0.0078	-0.0436	24.3759	-4.7511	18.2094	0.6282	-0.3056	0.6619	0.2719
1.39	-9.8465	-0.1653	-0.6304	-0.0175	-0.0041	-0.0465	24.3956	-4.5168	18.1591	0.6282	-0.3056	0.6619	0.2720
1.4	-9.8405	-0.1469	-0.6043	-0.0158	0.0103	-0.0533	24.2916	-4.5968	18.1112	0.6280	-0.3057	0.6619	0.2719
1.41	-9.8761	-0.1779	-0.6339	-0.0321	0.0083	-0.0616	24.3926	-4.8024	18.1372	0.6280	-0.3059	0.6619	0.2719
1.42	-9.8497	-0.1706	-0.6234	-0.0295	0.0042	-0.0556	24.2118	-4.6204	18.3185	0.6279	-0.3061	0.6619	0.2719
1.43	-9.8796	-0.1687	-0.6184	-0.0308	0.0096	-0.0611	24.2008	-4.4984	18.2317	0.6278	-0.3062	0.6619	0.2719
1.44	-9.9044	-0.1779	-0.6362	-0.0339	-0.0022	-0.0562	24.2048	-4.6353	18.1223	0.6278	-0.3064	0.6619	0.2720
1.45	-9.8930	-0.1806	-0.6316	-0.0330	-0.0029	-0.0549	24.3386	-4.5228	18.2385	0.6277	-0.3065	0.6618	0.2720
1.46	-9.9000	-0.1897	-0.6418	-0.0367	-0.0030	-0.0602	24.2165	-4.4075	18.2258	0.6277	-0.3067	0.6618	0.2721
1.47	-9.9121	-0.2102	-0.6449	-0.0450	-0.0149	-0.0533	24.1943	-4.7306	18.1208	0.6276	-0.3069	0.6616	0.2722
1.48	-9.9043	-0.2168	-0.6457	-0.0373	-0.0205	-0.0489	24.3096	-4.7639	18.1536	0.6276	-0.3070	0.6616	0.2723
1.49	-9.8966	-0.2184	-0.6443	-0.0366	-0.0170	-0.0511	24.4561	-4.9611	18.2344	0.6276	-0.3071	0.6615	0.2724
1.5	-9.8892	-0.2377	-0.6422	-0.0419	-0.0184	-0.0470	24.4469	-4.8689	18.0100	0.6276	-0.3073	0.6614	0.2725
1.51	-9.8780	-0.2261	-0.6359	-0.0389	-0.0230	-0.0424	24.6809	-4.8700	18.0711	0.6275	-0.3074	0.6613	0.2727
1.52	-9.8783	-0.2225	-0.6278	-0.0327	-0.0227	-0.0417	24.6019	-4.7034	18.1314	0.6275	-0.3074	0.6612	0.2728
1.53	-9.8850	-0.2116	-0.6253	-0.0285	-0.0241	-0.0456	24.3721	-4.7355	18.1583	0.6276	-0.3075	0.6612	0.2729
1.54	-9.9137	-0.1919	-0.6109	-0.0327	-0.0286	-0.0446	24.3246	-4.7866	18.0151	0.6275	-0.3076	0.6610	0.2730
1.55	-9.8929	-0.2160	-0.6113	-0.0325	-0.0363	-0.0472	24.1426	-4.8816	18.1857	0.6276	-0.3077	0.6610	0.2732
1.56	-9.8956	-0.2107	-0.6036	-0.0340	-0.0350	-0.0459	24.3014	-4.8147	18.1948	0.6276	-0.3077	0.6608	0.2733
1.57	-9.8815	-0.2203	-0.5926	-0.0326	-0.0326	-0.0465	24.4318	-4.5359	18.1030	0.6277	-0.3078	0.6607	0.2734
1.58	-9.8570	-0.2214	-0.5891	-0.0341	-0.0354	-0.0381	24.2627	-4.7496	18.1386	0.6277	-0.3079	0.6605	0.2735
1.59	-9.8572	-0.1852	-0.5876	-0.0319	-0.0374	-0.0364	24.3140	-4.5928	18.1350	0.6278	-0.3079	0.6605	0.2737
1.6	-9.8530	-0.1687	-0.5909	-0.0330	-0.0349	-0.0340	24.4548	-4.5561	18.0826	0.6278	-0.3080	0.6604	0.2739
1.61	-9.8498	-0.1669	-0.5779	-0.0332	-0.0289	-0.0401	24.4867	-4.8534	17.9949	0.6278	-0.3080	0.6602	0.2740
1.62	-9.8571	-0.1687	-0.5752	-0.0325	-0.0363	-0.0473	24.3604	-4.5133	18.2806	0.6279	-0.3081	0.6602	0.2742
1.63	-9.8637	-0.1694	-0.5710	-0.0335	-0.0325	-0.0466	24.4049	-4.5545	18.2994	0.6279	-0.3082	0.6600	0.2743
1.64	-9.8707	-0.1687	-0.5565	-0.0324	-0.0266	-0.0472	24.3281	-4.6207	18.1201	0.6279	-0.3083	0.6599	0.2744
1.65	-9.8763	-0.1941	-0.5653	-0.0317	-0.0381	-0.0438	24.1794	-4.5110	18.1399	0.6279	-0.3083	0.6597	0.2745
1.66	-9.8711	-0.1966	-0.5492	-0.0259	-0.0439	-0.0391	24.3406	-4.6037	17.9835	0.6280	-0.3083	0.6596	0.2746
1.67	-9.8811	-0.1889	-0.5375	-0.0325	-0.0442	-0.0343	24.5702	-4.8114	17.9596	0.6281	-0.3084	0.6595	0.2748
1.68	-9.8784	-0.1903	-0.5386	-0.0333	-0.0434	-0.0376	24.5389	-4.8806	18.1836	0.6281	-0.3084	0.6593	0.2750
1.69	-9.8512	-0.1918	-0.5332	-0.0328	-0.0387	-0.0392	24.5898	-4.8525	17.9021	0.6282	-0.3084	0.6592	0.2751
1.7	-9.8464	-0.1925	-0.5166	-0.0330	-0.0438	-0.0395	24.6258	-5.1233	17.8677	0.6282	-0.3085	0.6591	0.2753
1.71	-9.8655	-0.2068	-0.5263	-0.0331	-0.0417	-0.0368	24.5312	-4.9022	17.8368	0.6283	-0.3085	0.6590	0.2755
1.72	-9.8490	-0.2041	-0.5213	-0.0336	-0.0428	-0.0367	24.5763	-4.7574	17.9710	0.6283	-0.3085	0.6588	0.2756
1.73	-9.8528	-0.2131	-0.5056	-0.0335	-0.0297	-0.0363	24.4439	-4.7873	17.8003	0.6284	-0.3086	0.6587	0.2758
1.74	-9.8482	-0.2075	-0.5197	-0.0333	-0.0442	-0.0357	24.4733	-4.9242	17.9724	0.6284	-0.3086	0.6586	0.2760
1.75	-9.8175	-0.2093	-0.5008	-0.0345	-0.0443	-0.0379	24.2233	-4.9778	18.0665	0.6285	-0.3087	0.6585	0.2761
1.76	-9.8330	-0.2055	-0.5083	-0.0329	-0.0334	-0.0356	24.6186	-4.8433	18.1253	0.6285	-0.3087	0.6583	0.2763
1.77	-9.8155	-0.2093	-0.5158	-0.0339	-0.0364	-0.0396	24.7508	-4.6196	18.2642	0.6285	-0.3087	0.6582	0.2765
1.78	-9.8131	-0.2150	-0.5085	-0.0324	-0.0272	-0.0346	24.5543	-4.5908	17.9734	0.6285	-0.3088	0.6581	0.2766
1.79	-9.8481	-0.2154	-0.5241	-0.0329	-0.0260	-0.0349	24.2220	-4.7657	18.0190	0.6285	-0.3088	0.6580	0.2767
1.8	-9.8321	-0.2074	-0.5153	-0.0334	-0.0306	-0.0349	24.0285	-4.6461	18.0575	0.6285	-0.3089	0.6580	0.2769
1.81	-9.8518	-0.2061	-0.5139	-0.0343	-0.0234	-0.0348	24.1650	-4.7408	17.8616	0.6285	-0.3089	0.6579	0.2771
1.82	-9.8719	-0.2021	-0.5300	-0.0314	-0.0208	-0.0368	24.0924	-4.8363	18.1398	0.6285	-0.3090	0.6579	0.2772
1.83	-9.8172	-0.2102	-0.5247	-0.0289	-0.0219	-0.0368	24.2194	-4.7987	17.8507	0.6284	-0.3090	0.6577	0.2773
1.84	-9.8359	-0.2230	-0.5239	-0.0315	-0.0162	-0.0351	24.0860	-4.8027	17.9305	0.6284	-0.3091	0.6577	0.2775
1.85	-9.8868	-0.2157	-0.5219	-0.0303	-0.0195	-0.0383	24.1509	-4.8553	18.0070	0.6284	-0.3092	0.6576	0.2776
1.86	-9.8861	-0.2069	-0.5153	-0.0339	-0.0218	-0.0387	24.3731	-4.9141	17.9735	0.6284	-0.3092	0.6575	0.2777
1.87	-9.8831	-0.2254	-0.5280	-0.0332	-0.0354	-0.0351	24.4990	-4.9703	18.0108	0.6285	-0.3093	0.6575	0.2779
1.88	-9.9009	-0.2122	-0.4966	-0.0195	-0.0248	-0.0416	24.3121	-5.0178	17.8035	0.6284	-0.3093	0.6573	0.2780
1.89	-9.9429	-0.2210	-0.5031	-0.0246	-0.0275	-0.0392	24.5118	-5.1199	17.6488	0.6285	-0.3093	0.6573	0.2781
1.9	-9.8801	-0.2428	-0.4969	-0.0236	-0.0391	-0.0415	24.2653	-4.8757	17.9364	0.6285	-0.3093	0.6571	0.2782
1.91	-9.8725	-0.2411	-0.4952	-0.0104	-0.0316	-0.0353	24.3344	-4.9043	17.8541	0.6286	-0.3093	0.6571	0.2783
1.92	-9.8652	-0.2394	-0.4976	-0.0122	-0.0338	-0.0346	24.3613	-5.0577	17.9887	0.6286	-0.3093	0.6570	0.2784
1.93	-9.8007	-0.2352	-0.4958	-0.0116	-0.0282	-0.0320	24.2424	-5.0749	17.9088	0.6287	-0.3092	0.6569	0.2785
1.94	-9.7894	-0.2098	-0.4964	-0.0049	-0.0333	-0.0272	24.4306	-5.0752	17.9111	0.6287	-0.3092	0.6569	0.2786
1.95	-9.8214	-0.1865	-0.5089	-0.0047	-0.0228	-0.0354	24.3329	-4.9237	17.8517	0.6288	-0.3091	0.6569	0.2786
1.96	-9.8046	-0.1917	-0.5171	-0.0083	-0.0188	-0.0347	24.2556	-4.8907	17.8264	0.6288	-0.3091	0.6569	0.2787
1.97	-9.8281	-0.1933	-0.5074	-0.0051	-0.0107	-0.0344	24.0638	-4.8932	18.0233	0.6287	-0.3090	0.6568	0.2787
1.98	-9.8462	-0.1974	-0.5156	-0.0056	-0.0147	-0.0351	24.2987	-4.9076	17.8530	0.6288	-0.3091	0.6569	0.2788
1.99	-9.8404	-0.1878	-0.5119	-0.0067	-0.0138	-0.0345	24.1858	-4.8709	17.7721	0.6288	-0.3090	0.6568	0.2788
2	-9.8580	-0.1878	-0.5222	-0.0043	-0.0098	-0.0360	24.1469	-4.9850	17.8844	0.6288	-0.3090	0.6569	0.2788
2.01	-9.8656	-0.1774	-0.5320	-0.0066	-0.0116	-0.0389	24.3264	-4.9728	17.9937	0.6287	-0.3090	0.6568	0.2789
2.02	-9.8869	-0.1671	-0.5170	-0.0021	-0.0120	-0.0381	24.1680	-4.8953	18.0025	0.6288	-0.3090	0.6568	0.2789
2.03	-9.8946	-0.1758	-0.5142	-0.0070	-0.0121	-0.0374	24.4184	-5.0310	17.9530	0.6288	-0.3090	0.6568	0.2789
2.04	-9.8918	-0.1756	-0.5193	-0.0068	-0.0178	-0.0374	24.2894	-4.9263	18.1212	0.6287	-0.3089	0.6568	0.2789
2.05	-9.8922	-0.1794	-0.5125	-0.0074	-0.0143	-0.0385	24.1883	-5.2527	17.9169	0.6288	-0.3089	0.6568	0.2790
2.06	-9.8836	-0.1719	-0.5105	-0.0053	-0.0208	-0.0402	24.3672	-5.0232	17.8336	0.6288	-0.3089	0.6567	0.2790
2.07	-9.8677	-0.1732	-0.5193	-0.0046	-0.0271	-0.0384	24.3948	-5.0374	17.8734	0.6289	-0.3089	0.6568	0.2791
2.08	-9.8569	-0.1735	-0.5144	-0.0004	-0.0140	-0.0389	24.2977	-5.0913	17.6842	0.6288	-0.3088	0.6567	0.2791
2.09	-9.8509	-0.1495	-0.4972	-0.0038	-0.0166	-0.0386	24.2646	-4.8406	17.7127	0.6289	-0.3088	0.6567	0.2791
2.1	-9.8795	-0.1449	-0.4954	-0.0066	-0.0130	-0.0387	23.9960	-5.1175	17.7577	0.6289	-0.3088	0.6567	0.2792
2.11	-9.8913	-0.1404	-0.4993	-0.0080	-0.0154	-0.0435	24.1066	-4.9732	17.8365	0.6289	-0.3088	0.6566	0.2792
2.12	-9.8640	-0.1562	-0.4986	0.0002	-0.0252	-0.0400	24.2243	-4.9087	17.7714	0.6290	-0.3088	0.6567	0.2792
2.13	-9.8691	-0.1726	-0.4749	0.0036	-0.0160	-0.0429	24.3359	-4.8496	18.0005	0.6290	-0.3087	0.6566	0.2792
2.14	-9.8971	-0.1686	-0.5073	-0.0079	-0.0193	-0.0450	24.2136	-4.7985	17.8970	0.6290	-0.3088	0.6566	0.2792
2.15	-9.8930	-0.1775	-0.4919	-0.0042	-0.0273	-0.0349	24.2013	-4.8016	17.9782	0.6290	-0.3087	0.6564	0.2793
2.16	-9.9489	-0.1571	-0.4997	-0.0054	-0.0160	-0.0339	24.3146	-4.8316	18.1030	0.6291	-0.3087	0.6565	0.2793
2.17	-9.9750	-0.1266	-0.5106	-0.0052	-0.0372	-0.0356	24.2901	-4.9065	17.8923	0.6291	-0.3086	0.6564	0.2794
2.18	-9.9615	-0.1308	-0.5260	-0.0056	-0.0461	-0.0401	24.2895	-4.9484	17.9037	0.6292	-0.3086	0.6563	0.2795
2.19	-10.0029	-0.1515	-0.5356	0.0003	-0.0497	-0.0457	24.3067	-5.1052	17.8952	0.6294	-0.3085	0.6562	0.2795
2.2	-10.0588	-0.1392	-0.5390	-0.0029	-0.0617	-0.0502	24.2594	-5.0424	17.7705	0.6295	-0.3085	0.6560	0.2795
2.21	-10.0724	-0.1418	-0.5474	-0.0078	-0.0905	-0.0456	24.1752	-4.9076	17.8715	0.6298	-0.3084	0.6558	0.2797
2.22	-10.0396	-0.1329	-0.5371	-0.0075	-0.1053	-0.0413	24.2884	-4.8873	17.9249	0.6300	-0.3083	0.6554	0.2798
2.23	-10.0155	-0.1175	-0.5162	-0.0067	-0.1247	-0.0394	24.4255	-4.9036	17.7458	0.6305	-0.3082	0.6551	0.2800
2.24	-9.9537	-0.1305	-0.4863	-0.0184	-0.1301	-0.0356	24.6353	-4.8809	17.8993	0.6308	-0.3080	0.6547	0.2802
2.25	-9.9061	-0.1196	-0.4645	-0.0106	-0.1278	-0.0377	24.4318	-4.9489	17.8143	0.6312	-0.3079	0.6544	0.2805
2.26	-9.8516	-0.1047	-0.4312	-0.0119	-0.1314	-0.0371	24.6807	-5.1165	17.8203	0.6315	-0.3077	0.6540	0.2807
2.27	-9.7824	-0.0959	-0.3906	-0.0196	-0.1254	-0.0352	24.8776	-4.7502	17.8920	0.6319	-0.3076	0.6536	0.2809
2.28	-9.7677	-0.0862	-0.3662	-0.0259	-0.1175	-0.0365	24.7802	-4.7756	17.7559	0.6322	-0.3075	0.6533	0.2812
2.29	-9.7636	-0.0851	-0.3603	-0.0346	-0.1120	-0.0362	24.7044	-4.9176	17.6579	0.6324	-0.3074	0.6528	0.2814
2.3	-9.7084	-0.0923	-0.3373	-0.0320	-0.0933	-0.0382	24.5447	-4.9349	17.5898	0.6327	-0.3074	0.6526	0.2817
2.31	-9.6988	-0.1013	-0.3223	-0.0323	-0.0814	-0.0419	24.4128	-4.9743	17.5776	0.6329	-0.3073	0.6523	0.2819
2.32	-9.7208	-0.1093	-0.3220	-0.0309	-0.0650	-0.0479	24.3250	-4.9463	17.3835	0.6331	-0.3074	0.6522	0.2821
2.33	-9.7169	-0.1224	-0.3108	-0.0343	-0.0405	-0.0582	24.5693	-4.8548	17.4109	0.6331	-0.3074	0.6519	0.2822
2.34	-9.7260	-0.1363	-0.2952	-0.0280	-0.0334	-0.0601	24.5246	-4.8596	17.3792	0.6332	-0.3075	0.6518	0.2823
2.35	-9.7502	-0.1375	-0.2979	-0.0313	-0.0275	-0.0600	24.7823	-4.8391	17.4460	0.6332	-0.3076	0.6517	0.2823
2.36	-9.7553	-0.1462	-0.3034	-0.0276	-0.0130	-0.0589	24.7725	-4.9409	17.5876	0.6332	-0.3077	0.6516	0.2824
2.37	-9.7901	-0.1559	-0.3065	-0.0176	-0.0056	-0.0566	24.4765	-4.8509	17.5956	0.6333	-0.3079	0.6516	0.2824
2.38	-9.7968	-0.1648	-0.3243	-0.0121	0.0015	-0.0662	24.6214	-4.7169	17.4000	0.6332	-0.3080	0.6515	0.2823
2.39	-9.7689	-0.1445	-0.3314	-0.0195	0.0066	-0.0696	24.5895	-4.8637	17.4558	0.6332	-0.3081	0.6516	0.2823
2.4	-9.8048	-0.1072	-0.3222	-0.0138	0.0111	-0.0683	24.4313	-4.8360	17.5860	0.6331	-0.3082	0.6515	0.2822
2.41	-9.8759	-0.0521	-0.3427	-0.0161	0.0083	-0.0722	24.4651	-4.8971	17.6022	0.6331	-0.3084	0.6516	0.2821
2.42	-9.9397	0.0179	-0.3527	-0.0301	0.0043	-0.0847	24.4548	-5.1080	17.5260	0.6330	-0.3086	0.6515	0.2821
2.43	-9.9817	0.0304	-0.3524	-0.0360	-0.0054	-0.0957	24.7350	-5.1593	17.4957	0.6330	-0.3089	0.6514	0.2820
2.44	-9.9992	0.0413	-0.3579	-0.0548	-0.0122	-0.1082	24.7030	-4.8794	17.4760	0.6331	-0.3093	0.6512	0.2819
2.45	-9.9868	0.0075	-0.3576	-0.0788	-0.0123	-0.1203	24.7689	-4.7772	17.4093	0.6330	-0.3098	0.6510	0.2819
2.46	-9.9595	-0.0423	-0.3512	-0.0845	-0.0119	-0.1336	24.7926	-4.8700	17.7506	0.6331	-0.3103	0.6508	0.2819
2.47	-9.9279	-0.0850	-0.3462	-0.0871	-0.0121	-0.1378	24.5904	-4.9254	17.4601	0.6330	-0.3109	0.6504	0.2819
2.48	-9.8640	-0.1603	-0.3637	-0.0879	-0.0191	-0.1382	24.6696	-5.0575	17.5222	0.6331	-0.3115	0.6502	0.2819
2.49	-9.8386	-0.2091	-0.3548	-0.0891	-0.0217	-0.1411	24.4105	-4.8662	17.4363	0.6331	-0.3120	0.6499	0.2819
2.5	-9.8441	-0.2271	-0.3558	-0.0814	-0.0141	-0.1367	24.6209	-4.8091	17.3791	0.6332	-0.3126	0.6496	0.2818
2.51	-9.8559	-0.2425	-0.3554	-0.0837	-0.0113	-0.1338	24.7133	-4.6339	17.4061	0.6332	-0.3131	0.6493	0.2818
2.52	-9.8713	-0.2767	-0.3575	-0.0802	-0.0208	-0.1221	24.6595	-4.7421	17.3840	0.6332	-0.3136	0.6491	0.2818
2.53	-9.8694	-0.2918	-0.3484	-0.0744	-0.0245	-0.1107	24.6944	-4.7311	17.4158	0.6332	-0.3140	0.6488	0.2819
2.54	-9.8617	-0.3076	-0.3548	-0.0667	-0.0257	-0.1127	24.5988	-4.5868	17.3090	0.6332	-0.3144	0.6485	0.2819
2.55	-9.8690	-0.3169	-0.3440	-0.0579	-0.0256	-0.1024	24.7546	-4.5801	17.1777	0.6334	-0.3148	0.6484	0.2819
2.56	-9.8363	-0.3177	-0.3540	-0.0594	-0.0263	-0.0967	24.7189	-4.4876	17.2499	0.6334	-0.3151	0.6481	0.2819
2.57	-9.8058	-0.3288	-0.3447	-0.0555	-0.0232	-0.0981	24.7105	-4.4982	17.3410	0.6334	-0.3154	0.6480	0.2820
2.58	-9.8120	-0.3310	-0.3481	-0.0537	-0.0192	-0.0955	24.8409	-4.6046	17.1678	0.6334	-0.3157	0.6477	0.2820
2.59	-9.8100	-0.3551	-0.3597	-0.0572	-0.0094	-0.0980	24.6437	-4.5696	17.3836	0.6334	-0.3160	0.6476	0.2820
2.6	-9.7877	-0.3761	-0.3415	-0.0514	-0.0049	-0.0863	24.7191	-4.6767	17.3360	0.6334	-0.3163	0.6475	0.2820
2.61	-9.8083	-0.3892	-0.3528	-0.0520	0.0032	-0.0852	24.9305	-4.8971	17.3024	0.6333	-0.3166	0.6473	0.2820
2.62	-9.8292	-0.4150	-0.3668	-0.0545	0.0079	-0.0844	24.8881	-4.8235	17.2967	0.6333	-0.3170	0.6474	0.2821
2.63	-9.8302	-0.4304	-0.3796	-0.0504	0.0136	-0.0795	25.0488	-4.4776	17.1947	0.6331	-0.3172	0.6472	0.2820
2.64	-9.8399	-0.4418	-0.3827	-0.0361	0.0128	-0.0733	24.9018	-4.5731	17.1837	0.6331	-0.3175	0.6473	0.2820
2.65	-9.8347	-0.4507	-0.3879	-0.0313	0.0111	-0.0642	24.9029	-4.6097	17.4150	0.6329	-0.3176	0.6472	0.2820
2.66	-9.8552	-0.4408	-0.3831	-0.0327	0.0126	-0.0602	25.0080	-4.5654	17.2474	0.6329	-0.3178	0.6472	0.2820
2.67	-9.8734	-0.4394	-0.3943	-0.0319	0.0140	-0.0626	24.8135	-4.6500	17.2244	0.6328	-0.3180	0.6472	0.2820
2.68	-9.8628	-0.4433	-0.3835	-0.0305	0.0101	-0.0615	24.8234	-4.7014	17.1026	0.6327	-0.3182	0.6472	0.2820
2.69	-9.8548	-0.4632	-0.3917	-0.0226	0.0099	-0.0597	24.7105	-4.5828	17.3375	0.6326	-0.3183	0.6473	0.2820
2.7	-9.8541	-0.4695	-0.3917	-0.0173	0.0163	-0.0520	24.6031	-4.4501	17.3787	0.6325	-0.3184	0.6473	0.2820
2.71	-9.8533	-0.4777	-0.3982	-0.0167	0.0222	-0.0406	24.6965	-4.4111	17.2464	0.6324	-0.3185	0.6474	0.2820
2.72	-9.8707	-0.4710	-0.3934	-0.0072	0.0133	-0.0328	24.8211	-4.4105	17.4067	0.6323	-0.3185	0.6474	0.2820
2.73	-9.8891	-0.4420	-0.3916	-0.0074	0.0121	-0.0341	24.8179	-4.4335	17.3844	0.6322	-0.3185	0.6476	0.2820
2.74	-9.8643	-0.4392	-0.3945	-0.0035	0.0090	-0.0330	24.7974	-4.5284	17.3884	0.6321	-0.3185	0.6476	0.2820
2.75	-9.8523	-0.4216	-0.3937	0.0039	0.0134	-0.0298	24.5977	-4.4905	17.4330	0.6321	-0.3185	0.6477	0.2820
2.76	-9.8449	-0.4109	-0.3923	0.0150	0.0079	-0.0314	24.8436	-4.5195	17.7167	0.6320	-0.3184	0.6478	0.2820
2.77	-9.8173	-0.4198	-0.3975	0.0164	0.0083	-0.0329	25.0448	-4.2258	17.6116	0.6320	-0.3183	0.6479	0.2819
2.78	-9.8425	-0.4057	-0.3884	0.0191	0.0098	-0.0315	24.9356	-4.2989	17.5757	0.6319	-0.3182	0.6481	0.2819
2.79	-9.8547	-0.3990	-0.3913	0.0294	0.0036	-0.0296	24.8284	-4.5081	17.6694	0.6319	-0.3181	0.6481	0.2818
2.8	-9.8546	-0.3943	-0.3913	0.0243	0.0054	-0.0311	24.6111	-4.6014	17.4720	0.6319	-0.3180	0.6483	0.2817
2.81	-9.8567	-0.3913	-0.3948	0.0214	0.0121	-0.0330	24.7438	-4.5154	17.4360	0.6318	-0.3179	0.6484	0.2816
2.82	-9.8556	-0.3850	-0.3914	0.0228	0.0110	-0.0255	24.7368	-4.6668	17.3961	0.6318	-0.3178	0.6486	0.2816
2.83	-9.8554	-0.3658	-0.3916	0.0322	0.0140	-0.0331	24.4231	-4.8413	17.5604	0.6317	-0.3176	0.6486	0.2815
2.84	-9.8573	-0.3621	-0.3973	0.0253	0.0139	-0.0216	24.5592	-4.5417	17.4467	0.6317	-0.3175	0.6488	0.2814
2.85	-9.8563	-0.3534	-0.4004	0.0188	0.0104	-0.0195	24.7042	-4.7370	17.3122	0.6316	-0.3174	0.6490	0.2814
2.86	-9.8502	-0.3399	-0.3980	0.0268	0.0186	-0.0202	24.6006	-4.6182	17.6375	0.6315	-0.3172	0.6491	0.2813
2.87	-9.8442	-0.3248	-0.3988	0.0195	0.0128	-0.0169	24.3283	-4.6451	17.5992	0.6315	-0.3172	0.6493	0.2813
2.88	-9.8459	-0.3205	-0.4041	0.0266	0.0123	-0.0149	24.6562	-4.7201	17.4673	0.6314	-0.3170	0.6494	0.2812
2.89	-9.8518	-0.3204	-0.4127	0.0199	0.0160	-0.0179	24.7539	-4.5219	17.6488	0.6314	-0.3169	0.6496	0.2812
2.9	-9.8532	-0.3171	-0.4154	0.0175	0.0230	-0.0170	24.4615	-4.5468	17.8199	0.6312	-0.3167	0.6497	0.2811
2.91	-9.8579	-0.3019	-0.4281	0.0196	0.0226	-0.0207	24.3592	-4.5299	17.7682	0.6311	-0.3166	0.6499	0.2811
2.92	-9.8863	-0.2627	-0.4209	0.0228	0.0163	-0.0253	24.6814	-4.7253	17.6392	0.6310	-0.3165	0.6501	0.2810
2.93	-9.8975	-0.2628	-0.4266	0.0184	0.0150	-0.0201	24.7381	-4.6331	17.5885	0.6310	-0.3164	0.6502	0.2810
2.94	-9.8719	-0.2438	-0.4285	0.0189	0.0110	-0.0202	24.4222	-4.6223	17.6268	0.6309	-0.3163	0.6504	0.2810
2.95	-9.8661	-0.2285	-0.4308	0.0178	0.0149	-0.0292	24.6669	-4.7509	17.8631	0.6308	-0.3162	0.6505	0.2809
2.96	-9.8651	-0.2271	-0.4242	0.0185	0.0107	-0.0338	24.4162	-4.6719	17.9144	0.6308	-0.3162	0.6506	0.2808
2.97	-9.8572	-0.2278	-0.4180	0.0121	0.0082	-0.0329	24.3839	-4.8298	17.7971	0.6307	-0.3161	0.6507	0.2808
2.98	-9.8578	-0.2339	-0.4287	0.0037	0.0053	-0.0332	24.5039	-4.7663	17.4649	0.6307	-0.3161	0.6508	0.2808
2.99	-9.8794	-0.2458	-0.4267	-0.0021	0.0087	-0.0344	24.4963	-4.7280	17.5556	0.6306	-0.3160	0.6509	0.2808
3	-9.9093	-0.2421	-0.4320	-0.0053	0.0112	-0.0373	24.6955	-4.8977	17.7354	0.6306	-0.3160	0.6509	0.2808
3.01	-9.8852	-0.2555	-0.4162	-0.0075	0.0073	-0.0344	24.5522	-4.8972	17.5800	0.6305	-0.3160	0.6510	0.2808
3.02	-9.8946	-0.2658	-0.4236	-0.0067	0.0072	-0.0319	24.3421	-4.7443	17.5394	0.6304	-0.3160	0.6511	0.2808
3.03	-9.8451	-0.2813	-0.4257	-0.0073	0.0074	-0.0348	24.4712	-4.7226	17.6287	0.6303	-0.3161	0.6511	0.2808
3.04	-9.7861	-0.2796	-0.4407	-0.0059	0.0045	-0.0295	24.5034	-4.6345	17.6205	0.6302	-0.3160	0.6511	0.2808
3.05	-9.7814	-0.2542	-0.4552	-0.0071	0.0158	-0.0225	24.3656	-4.5233	17.4610	0.6302	-0.3160	0.6513	0.2809
3.06	-9.7765	-0.2553	-0.4465	-0.0062	0.0235	-0.0292	24.4435	-4.8471	17.6280	0.6300	-0.3160	0.6514	0.2809
3.07	-9.7877	-0.2596	-0.4746	-0.0061	0.0233	-0.0308	24.5091	-4.9325	17.7297	0.6299	-0.3161	0.6516	0.2809
3.08	-9.8112	-0.2572	-0.4871	0.0006	0.0309	-0.0310	24.4730	-4.6886	17.7166	0.6297	-0.3160	0.6517	0.2808
3.09	-9.8230	-0.2622	-0.4947	0.0026	0.0421	-0.0323	24.2628	-4.6197	17.5184	0.6296	-0.3161	0.6519	0.2808
3.1	-9.8434	-0.2532	-0.5043	0.0132	0.0493	-0.0377	24.3650	-4.8041	17.8387	0.6294	-0.3161	0.6521	0.2806
3.11	-9.8780	-0.2603	-0.5236	0.0167	0.0508	-0.0318	24.4272	-4.7980	18.1315	0.6292	-0.3160	0.6523	0.2805
3.12	-9.8890	-0.2496	-0.5383	0.0126	0.0441	-0.0330	24.3560	-4.7131	17.9500	0.6291	-0.3161	0.6526	0.2804
3.13	-9.9105	-0.2412	-0.5338	0.0174	0.0449	-0.0316	24.3396	-4.6929	17.8133	0.6289	-0.3160	0.6528	0.2803
3.14	-9.9246	-0.2380	-0.5549	0.0180	0.0419	-0.0343	24.4135	-4.7889	17.6243	0.6288	-0.3160	0.6530	0.2802
3.15	-9.9017	-0.2295	-0.5570	0.0131	0.0347	-0.0307	24.3987	-4.8076	17.9307	0.6285	-0.3159	0.6531	0.2800
3.16	-9.9248	-0.2410	-0.5639	0.0199	0.0332	-0.0314	24.3724	-4.6950	17.8542	0.6285	-0.3159	0.6534	0.2799
3.17	-9.9083	-0.2257	-0.5735	0.0134	0.0230	-0.0364	24.4737	-4.7092	17.9448	0.6284	-0.3159	0.6535	0.2798
3.18	-9.9007	-0.2333	-0.5795	0.0078	0.0225	-0.0315	24.4133	-4.7711	18.0079	0.6283	-0.3158	0.6536	0.2798
3.19	-9.8946	-0.2304	-0.5787	0.0143	0.0178	-0.0336	24.3911	-4.9205	17.8621	0.6282	-0.3158	0.6538	0.2797
3.2	-9.8977	-0.2322	-0.5727	0.0050	0.0125	-0.0325	24.6426	-4.8565	17.9241	0.6281	-0.3157	0.6539	0.2797
3.21	-9.9013	-0.2323	-0.5758	0.0061	0.0087	-0.0341	24.2844	-4.7266	18.0329	0.6281	-0.3157	0.6540	0.2797
3.22	-9.8904	-0.2164	-0.5675	0.0065	0.0044	-0.0291	24.4075	-4.6991	17.7753	0.6279	-0.3156	0.6540	0.2796
3.23	-9.9115	-0.2226	-0.5717	-0.0030	0.0115	-0.0316	24.3823	-4.7339	17.8052	0.6279	-0.3156	0.6542	0.2796
3.24	-9.8984	-0.2136	-0.5723	0.0009	0.0035	-0.0315	24.4306	-4.8315	18.1101	0.6279	-0.3156	0.6542	0.2796
3.25	-9.8865	-0.2133	-0.5569	-0.0016	0.0032	-0.0351	24.2841	-4.7329	17.9730	0.6278	-0.3156	0.6543	0.2796
3.26	-9.9066	-0.2113	-0.5529	-0.0040	0.0016	-0.0351	24.5176	-4.6044	17.9848	0.6277	-0.3156	0.6543	0.2796
3.27	-9.9118	-0.2252	-0.5740	-0.0054	-0.0002	-0.0330	24.5701	-4.5154	18.2083	0.6277	-0.3156	0.6544	0.2796
3.28	-9.8984	-0.2270	-0.5622	-0.0082	-0.0040	-0.0338	24.4505	-4.5567	18.1304	0.6277	-0.3156	0.6544	0.2797
3.29	-9.8888	-0.2170	-0.5512	-0.0053	-0.0145	-0.0318	24.4811	-4.6409	18.1701	0.6276	-0.3155	0.6544	0.2797
3.3	-9.8691	-0.2037	-0.5620	-0.0049	-0.0124	-0.0337	24.1382	-4.5230	18.0102	0.6277	-0.3155	0.6545	0.2798
3.31	-9.8563	-0.1970	-0.5478	-0.0061	-0.0100	-0.0341	24.2916	-4.6269	17.9495	0.6276	-0.3154	0.6544	0.2798
3.32	-9.8557	-0.2128	-0.5639	-0.0063	-0.0058	-0.0401	24.3952	-4.5357	17.9450	0.6277	-0.3155	0.6545	0.2798
3.33	-9.8414	-0.2094	-0.5592	-0.0070	-0.0076	-0.0396	24.2560	-4.6172	17.9561	0.6275	-0.3154	0.6544	0.2798
3.34	-9.8593	-0.2187	-0.5503	-0.0071	-0.0097	-0.0421	24.2470	-4.7256	18.0577	0.6276	-0.3155	0.6545	0.2798
3.35	-9.8572	-0.2265	-0.5669	-0.0097	-0.0058	-0.0417	24.3447	-4.7223	18.0519	0.6275	-0.3155	0.6545	0.2799
3.36	-9.8633	-0.2295	-0.5627	-0.0078	-0.0122	-0.0461	24.6349	-4.9098	17.9869	0.6275	-0.3155	0.6544	0.2798
3.37	-9.8936	-0.2385	-0.5517	-0.0180	-0.0169	-0.0450	24.6326	-4.8508	17.7288	0.6276	-0.3155	0.6545	0.2799
3.38	-9.8915	-0.2441	-0.5463	-0.0083	-0.0177	-0.0429	24.4420	-4.9379	17.8122	0.6275	-0.3155	0.6544	0.2799
3.39	-9.8980	-0.2490	-0.5379	-0.0099	-0.0197	-0.0371	24.5142	-4.9409	17.9484	0.6276	-0.3155	0.6544	0.2800
3.4	-9.8956	-0.2556	-0.5340	-0.0150	-0.0210	-0.0439	24.5331	-4.7493	17.9719	0.6275	-0.3155	0.6543	0.2800
3.41	-9.8712	-0.2726	-0.5384	-0.0062	-0.0191	-0.0436	24.4410	-4.8392	17.8145	0.6276	-0.3155	0.6543	0.2801
3.42	-9.8587	-0.2781	-0.5373	-0.0068	-0.0218	-0.0401	24.3912	-4.8836	17.7562	0.6276	-0.3155	0.6543	0.2801
3.43	-9.8535	-0.2876	-0.5342	-0.0083	-0.0210	-0.0446	24.3496	-4.9032	17.8282	0.6276	-0.3155	0.6542	0.2801
3.44	-9.8475	-0.2689	-0.5266	-0.0070	-0.0195	-0.0467	24.2528	-4.7612	18.0112	0.6277	-0.3155	0.6542	0.2801
3.45	-9.8426	-0.2689	-0.5179	-0.0064	-0.0136	-0.0460	24.0309	-4.5817	17.8571	0.6277	-0.3155	0.6542	0.2801
3.46	-9.8278	-0.2403	-0.5100	-0.0067	-0.0086	-0.0380	24.3638	-4.4242	17.9464	0.6277	-0.3155	0.6542	0.2802
3.47	-9.8130	-0.2454	-0.5236	-0.0068	-0.0107	-0.0391	24.3479	-4.6137	17.8427	0.6276	-0.3155	0.6542	0.2802
3.48	-9.8046	-0.2705	-0.5348	-0.0025	-0.0083	-0.0403	24.2621	-4.7250	17.7996	0.6277	-0.3155	0.6543	0.2802
3.49	-9.8180	-0.2720	-0.5185	-0.0004	-0.0027	-0.0457	24.2463	-4.7148	17.9778	0.6276	-0.3155	0.6543	0.2802
3.5	-9.8393	-0.2892	-0.5205	0.0033	-0.0004	-0.0491	24.3422	-4.6312	18.0276	0.6276	-0.3155	0.6543	0.2801
3.51	-9.8554	-0.2879	-0.5157	0.0152	0.0074	-0.0425	24.4468	-4.6159	17.9481	0.6275	-0.3155	0.6544	0.2800
3.52	-9.8346	-0.3119	-0.5269	0.0171	0.0067	-0.0551	24.3438	-4.5995	17.7128	0.6275	-0.3155	0.6545	0.2799
3.53	-9.8499	-0.2862	-0.5292	0.0196	0.0022	-0.0510	24.3229	-4.5075	17.8002	0.6276	-0.3154	0.6545	0.2798
3.54	-9.8587	-0.2885	-0.5197	0.0179	0.0074	-0.0450	24.1463	-4.9161	18.0801	0.6275	-0.3154	0.6546	0.2797
3.55	-9.8770	-0.2881	-0.5401	0.0230	0.0069	-0.0436	24.3880	-4.8567	17.8906	0.6275	-0.3154	0.6548	0.2796
3.56	-9.8716	-0.2698	-0.5218	0.0303	0.0062	-0.0382	24.5123	-4.7844	17.9369	0.6275	-0.3152	0.6548	0.2794
3.57	-9.9110	-0.2815	-0.5319	0.0207	0.0019	-0.0342	24.7575	-5.0067	18.1055	0.6275	-0.3152	0.6550	0.2794
3.58	-9.9083	-0.2598	-0.5242	0.0187	-0.0025	-0.0341	24.5125	-4.8414	18.0167	0.6274	-0.3150	0.6550	0.2793
3.59	-9.8755	-0.2617	-0.5310	0.0191	0.0008	-0.0307	24.4127	-4.9308	18.1944	0.6274	-0.3149	0.6551	0.2793
3.6	-9.8737	-0.2682	-0.5430	0.0182	-0.0069	-0.0298	24.2942	-4.7535	18.0753	0.6274	-0.3148	0.6552	0.2792
3.61	-9.8385	-0.2590	-0.5324	0.0161	-0.0053	-0.0196	24.2288	-4.6931	17.9539	0.6274	-0.3147	0.6552	0.2792
3.62	-9.8438	-0.2344	-0.5543	0.0155	-0.0015	-0.0116	24.4078	-4.6971	17.9425	0.6274	-0.3146	0.6554	0.2793
3.63	-9.8169	-0.2120	-0.5717	0.0194	0.0043	-0.0139	24.5600	-4.6089	18.1200	0.6273	-0.3144	0.6555	0.2792
3.64	-9.8249	-0.1912	-0.5701	0.0187	0.0066	-0.0200	24.2913	-4.8021	18.1287	0.6273	-0.3143	0.6557	0.2792
3.65	-9.8392	-0.1941	-0.5794	0.0191	0.0135	-0.0270	24.1477	-4.8015	18.2298	0.6271	-0.3141	0.6557	0.2791
3.66	-9.8435	-0.1882	-0.5810	0.0185	0.0116	-0.0307	24.3253	-4.6544	18.3428	0.6271	-0.3141	0.6559	0.2791
3.67	-9.8595	-0.1776	-0.5960	0.0193	0.0197	-0.0335	24.3334	-4.4465	17.9376	0.6270	-0.3140	0.6560	0.2790
3.68	-9.8915	-0.1736	-0.6005	0.0169	0.0100	-0.0326	24.1737	-4.4260	18.0218	0.6270	-0.3139	0.6561	0.2789
3.69	-9.8944	-0.1762	-0.6017	0.0197	0.0100	-0.0372	24.0780	-4.5570	18.1344	0.6270	-0.3139	0.6563	0.2788
3.7	-9.9205	-0.1751	-0.6143	0.0133	0.0048	-0.0470	24.2331	-4.6218	18.3011	0.6269	-0.3138	0.6563	0.2787
3.71	-9.9363	-0.1803	-0.6077	0.0029	0.0036	-0.0435	24.0685	-4.6542	18.2703	0.6269	-0.3139	0.6564	0.2787
3.72	-9.9303	-0.1783	-0.6019	-0.0019	-0.0070	-0.0406	24.2541	-4.8179	18.1407	0.6268	-0.3138	0.6564	0.2786
3.73	-9.9350	-0.1844	-0.6121	-0.0098	-0.0170	-0.0452	24.3852	-4.7731	17.9946	0.6269	-0.3139	0.6564	0.2787
3.74	-9.9218	-0.1881	-0.5857	-0.0053	-0.0185	-0.0408	24.3346	-4.6671	17.9858	0.6269	-0.3138	0.6564	0.2787
3.75	-9.9115	-0.1890	-0.5967	-0.0212	-0.0235	-0.0466	24.3920	-4.7912	18.0653	0.6269	-0.3139	0.6563	0.2788
3.76	-9.8968	-0.2171	-0.5903	-0.0273	-0.0285	-0.0448	24.8467	-4.7881	18.1214	0.6269	-0.3139	0.6562	0.2789
3.77	-9.8797	-0.2258	-0.5807	-0.0232	-0.0349	-0.0410	24.7720	-4.7915	18.5630	0.6269	-0.3139	0.6562	0.2790
3.78	-9.8655	-0.2233	-0.5723	-0.0298	-0.0352	-0.0373	24.4524	-4.7625	18.3789	0.6270	-0.3140	0.6561	0.2791
3.79	-9.8429	-0.2327	-0.5689	-0.0337	-0.0301	-0.0394	24.3488	-4.6114	18.1100	0.6269	-0.3140	0.6559	0.2792
3.8	-9.8605	-0.2348	-0.5559	-0.0309	-0.0192	-0.0370	24.0959	-4.7178	18.2084	0.6270	-0.3141	0.6560	0.2794
3.81	-9.8878	-0.2491	-0.5520	-0.0271	-0.0265	-0.0365	23.9997	-4.7695	18.1656	0.6269	-0.3141	0.6558	0.2795
3.82	-9.8697	-0.2447	-0.5502	-0.0222	-0.0222	-0.0402	24.0881	-4.6392	18.1703	0.6270	-0.3141	0.6559	0.2796
3.83	-9.8637	-0.2442	-0.5328	-0.0125	-0.0223	-0.0412	24.1342	-4.6297	18.1645	0.6269	-0.3141	0.6557	0.2796
3.84	-9.8659	-0.2475	-0.5321	-0.0081	-0.0246	-0.0453	24.4078	-4.6336	18.1637	0.6270	-0.3141	0.6557	0.2797
3.85	-9.8416	-0.2357	-0.5382	-0.0037	-0.0265	-0.0362	24.2442	-4.6354	17.9978	0.6270	-0.3141	0.6557	0.2797
3.86	-9.8404	-0.2317	-0.5212	-0.0046	-0.0269	-0.0389	24.2415	-4.6221	18.2900	0.6270	-0.3140	0.6556	0.2798
3.87	-9.8426	-0.2144	-0.5145	-0.0058	-0.0199	-0.0411	24.3339	-4.7401	18.1252	0.6271	-0.3140	0.6557	0.2798
3.88	-9.8159	-0.1933	-0.5271	0.0029	-0.0171	-0.0450	24.3475	-4.7043	17.9587	0.6271	-0.3140	0.6556	0.2798
3.89	-9.8150	-0.1908	-0.5147	-0.0000	-0.0100	-0.0443	24.0248	-4.7590	18.1977	0.6272	-0.3140	0.6557	0.2798
3.9	-9.8208	-0.1942	-0.5307	-0.0015	-0.0123	-0.0438	23.8537	-4.5296	18.1444	0.6271	-0.3139	0.6556	0.2798
3.91	-9.8247	-0.1910	-0.5243	-0.0053	-0.0123	-0.0371	24.1292	-4.5627	18.0659	0.6271	-0.3139	0.6557	0.2798
3.92	-9.8381	-0.1893	-0.5278	-0.0016	-0.0066	-0.0407	24.3547	-4.6842	18.0720	0.6271	-0.3139	0.6557	0.2798
3.93	-9.8403	-0.1892	-0.5271	-0.0063	-0.0109	-0.0402	24.2223	-4.8226	18.0897	0.6271	-0.3139	0.6557	0.2798
3.94	-9.8540	-0.1914	-0.5315	-0.0085	-0.0057	-0.0412	24.3734	-4.6970	18.0596	0.6271	-0.3139	0.6557	0.2798
3.95	-9.8600	-0.1917	-0.5386	-0.0089	-0.0007	-0.0469	24.3767	-4.8881	17.9844	0.6270	-0.3140	0.6557	0.2798
3.96	-9.8546	-0.2061	-0.5356	-0.0114	-0.0061	-0.0470	24.1657	-4.8489	18.1807	0.6270	-0.3140	0.6558	0.2798
3.97	-9.8553	-0.2047	-0.5412	-0.0109	0.0076	-0.0457	24.3759	-4.7225	18.1634	0.6269	-0.3140	0.6557	0.2798
3.98	-9.8780	-0.2180	-0.5600	-0.0146	0.0041	-0.0465	24.1871	-4.5845	18.1720	0.6269	-0.3141	0.6559	0.2798
3.99	-9.8935	-0.2296	-0.5633	-0.0108	0.0007	-0.0445	24.1525	-4.7398	18.1493	0.6268	-0.3141	0.6559	0.2798
4	-9.8777	-0.2336	-0.5628	-0.0178	-0.0065	-0.0431	24.1374	-4.8142	17.9536	0.6268	-0.3142	0.6559	0.2799
4.01	-9.8843	-0.2444	-0.5708	-0.0253	-0.0052	-0.0436	24.2676	-4.3786	18.1060	0.6267	-0.3142	0.6558	0.2799
4.02	-9.8858	-0.2388	-0.5741	-0.0156	-0.0037	-0.0438	24.0851	-4.6566	18.0190	0.6266	-0.3143	0.6559	0.2800
4.03	-9.8814	-0.2486	-0.5767	-0.0080	-0.0015	-0.0449	24.0955	-4.7418	18.2268	0.6266	-0.3143	0.6559	0.2800
4.04	-9.8944	-0.2626	-0.5750	-0.0127	-0.0129	-0.0446	24.2556	-4.7167	18.2024	0.6265	-0.3143	0.6558	0.2800
4.05	-9.8752	-0.2637	-0.5761	-0.0101	-0.0097	-0.0417	24.3406	-4.6187	18.0382	0.6266	-0.3144	0.6559	0.2800
4.06	-9.8589	-0.2567	-0.5677	-0.0051	-0.0089	-0.0414	24.3295	-4.6521	18.2526	0.6265	-0.3144	0.6559	0.2800
4.07	-9.8417	-0.2498	-0.5534	-0.0035	-0.0116	-0.0444	24.3411	-4.8224	17.9991	0.6266	-0.3144	0.6560	0.2801
4.08	-9.8179	-0.2467	-0.5511	0.0017	-0.0125	-0.0427	24.2459	-4.7981	17.9718	0.6265	-0.3143	0.6559	0.2800
4.09	-9.8341	-0.2467	-0.5411	-0.0002	-0.0132	-0.0466	24.1000	-4.7160	18.1221	0.6266	-0.3143	0.6559	0.2800
4.1	-9.8689	-0.2592	-0.5420	0.0043	-0.0128	-0.0454	24.0688	-4.8930	18.0115	0.6266	-0.3143	0.6559	0.2800
4.11	-9.8455	-0.2552	-0.5394	0.0112	-0.0052	-0.0437	24.3430	-4.9046	17.9543	0.6265	-0.3142	0.6559	0.2799
4.12	-9.8433	-0.2501	-0.5523	0.0148	-0.0018	-0.0391	24.3256	-4.8847	18.3224	0.6266	-0.3142	0.6561	0.2799
4.13	-9.8533	-0.2319	-0.5545	0.0115	0.0014	-0.0400	24.3427	-4.7770	18.2174	0.6265	-0.3141	0.6561	0.2798
4.14	-9.8570	-0.2122	-0.5571	0.0056	0.0020	-0.0370	24.2823	-4.8495	17.8749	0.6265	-0.3141	0.6562	0.2798
4.15	-9.8572	-0.2130	-0.5611	0.0046	-0.0015	-0.0391	24.1311	-4.6182	17.9937	0.6264	-0.3140	0.6562	0.2797
4.16	-9.8677	-0.2141	-0.5451	-0.0044	-0.0058	-0.0341	24.0585	-4.7507	18.0751	0.6264	-0.3140	0.6563	0.2798
4.17	-9.8975	-0.2109	-0.5669	-0.0019	-0.0047	-0.0326	24.0541	-4.6943	18.1274	0.6264	-0.3140	0.6563	0.2798
4.18	-9.8773	-0.2103	-0.5471	-0.0053	-0.0074	-0.0356	24.1183	-4.8209	18.1747	0.6263	-0.3140	0.6563	0.2798
4.19	-9.8886	-0.2182	-0.5525	-0.0017	-0.0122	-0.0350	24.3729	-4.6160	18.2755	0.6263	-0.3139	0.6564	0.2799
4.2	-9.8553	-0.2101	-0.5740	-0.0088	-0.0095	-0.0320	24.3001	-4.6361	18.2255	0.6263	-0.3139	0.6564	0.2799
4.21	-9.8182	-0.1978	-0.5795	-0.0070	0.0005	-0.0337	24.1682	-4.8359	18.1462	0.6263	-0.3139	0.6565	0.2799
4.22	-9.8256	-0.1761	-0.5952	-0.0083	-0.0021	-0.0336	24.1281	-4.7119	18.1820	0.6261	-0.3139	0.6564	0.2799
4.23	-9.8018	-0.1706	-0.5968	-0.0067	-0.0014	-0.0331	24.2950	-4.5287	18.1541	0.6262	-0.3139	0.6566	0.2800
4.24	-9.8045	-0.1541	-0.5989	-0.0027	0.0113	-0.0384	24.1622	-4.6878	17.8520	0.6260	-0.3139	0.6566	0.2800
4.25	-9.8423	-0.1574	-0.6135	-0.0079	0.0149	-0.0516	24.2126	-4.8222	18.3313	0.6260	-0.3139	0.6567	0.2799
4.26	-9.8169	-0.1535	-0.6124	-0.0074	0.0151	-0.0558	24.3372	-4.7035	18.4520	0.6259	-0.3140	0.6568	0.2799
4.27	-9.8363	-0.1790	-0.6294	-0.0088	0.0248	-0.0566	24.6150	-4.3651	18.4761	0.6258	-0.3141	0.6569	0.2798
4.28	-9.8562	-0.1894	-0.6217	-0.0069	0.0169	-0.0651	24.7096	-4.3653	18.5052	0.6257	-0.3142	0.6569	0.2797
4.29	-9.8563	-0.1869	-0.6169	-0.0084	0.0120	-0.0623	24.5367	-4.6476	18.2288	0.6256	-0.3143	0.6569	0.2796
4.3	-9.8651	-0.2086	-0.6422	-0.0088	0.0150	-0.0643	24.2978	-4.6763	18.1852	0.6256	-0.3145	0.6570	0.2796
4.31	-9.8574	-0.2213	-0.6358	-0.0143	0.0141	-0.0607	24.2426	-4.5347	18.1650	0.6255	-0.3145	0.6570	0.2795
4.32	-9.8596	-0.2266	-0.6289	-0.0240	0.0085	-0.0613	24.2088	-4.8986	18.3468	0.6255	-0.3147	0.6571	0.2795
4.33	-9.8445	-0.2482	-0.6388	-0.0300	0.0126	-0.0606	24.4296	-4.7624	18.3332	0.6253	-0.3148	0.6570	0.2794
4.34	-9.8268	-0.2783	-0.6430	-0.0239	0.0212	-0.0542	24.5110	-4.8882	18.3378	0.6252	-0.3150	0.6571	0.2794
4.35	-9.7739	-0.3103	-0.6515	-0.0113	0.0270	-0.0486	24.3153	-4.6658	18.3375	0.6251	-0.3151	0.6572	0.2794
4.36	-9.7478	-0.2869	-0.6429	-0.0055	0.0376	-0.0436	24.0154	-4.7854	18.3240	0.6249	-0.3151	0.6574	0.2793
4.37	-9.7654	-0.2748	-0.6556	0.0035	0.0475	-0.0409	24.2946	-4.6777	18.3492	0.6248	-0.3152	0.6576	0.2793
4.38	-9.7360	-0.2535	-0.6430	0.0151	0.0598	-0.0312	24.2946	-4.5585	18.3021	0.6245	-0.3152	0.6578	0.2791
4.39	-9.7527	-0.2557	-0.6502	0.0158	0.0728	-0.0281	24.2185	-4.6825	18.4083	0.6242	-0.3152	0.6582	0.2790
4.4	-9.8100	-0.2508	-0.6473	0.0201	0.0819	-0.0287	24.1673	-4.7015	18.5019	0.6239	-0.3152	0.6585	0.2788
4.41	-9.8373	-0.2022	-0.6425	0.0352	0.0852	-0.0174	24.0043	-4.4545	18.5610	0.6236	-0.3151	0.6589	0.2786
4.42	-9.8523	-0.1854	-0.6362	0.0262	0.0857	-0.0289	24.1367	-4.4059	18.7283	0.6233	-0.3151	0.6593	0.2784
4.43	-9.9303	-0.1712	-0.6518	0.0228	0.0829	-0.0307	24.1399	-4.4971	18.3920	0.6230	-0.3151	0.6596	0.2782
4.44	-10.0137	-0.1514	-0.6807	0.0233	0.0698	-0.0346	24.1716	-4.5384	18.4283	0.6228	-0.3151	0.6600	0.2780
4.45	-10.0158	-0.1364	-0.6800	0.0179	0.0505	-0.0466	23.9560	-4.4743	18.6977	0.6226	-0.3151	0.6602	0.2778
4.46	-10.0059	-0.1232	-0.6883	0.0185	0.0423	-0.0498	24.0935	-4.6026	18.6403	0.6225	-0.3152	0.6604	0.2776
4.47	-10.0100	-0.1235	-0.6995	0.0179	0.0242	-0.0608	24.1700	-4.5755	18.5862	0.6224	-0.3152	0.6605	0.2774
4.48	-9.9604	-0.1423	-0.6957	0.0043	0.0021	-0.0617	24.1394	-4.6582	18.5163	0.6224	-0.3153	0.6606	0.2773
4.49	-9.9310	-0.1443	-0.7059	-0.0038	0.0001	-0.0673	24.1310	-4.6208	18.4991	0.6224	-0.3154	0.6606	0.2772
4.5	-9.8903	-0.1593	-0.7022	-0.0077	-0.0101	-0.0734	24.2327	-4.7189	18.5833	0.6224	-0.3155	0.6605	0.2771
4.51	-9.8560	-0.1809	-0.6888	-0.0130	-0.0125	-0.0660	24.1384	-4.9051	18.7344	0.6224	-0.3156	0.6605	0.2771
4.52	-9.8581	-0.1852	-0.6902	-0.0230	-0.0093	-0.0648	24.1563	-4.4685	18.5363	0.6224	-0.3157	0.6604	0.2771
4.53	-9.8485	-0.1915	-0.6891	-0.0330	-0.0162	-0.0649	24.1202	-4.3864	18.5073	0.6224	-0.3158	0.6604	0.2771
4.54	-9.8614	-0.2060	-0.6990	-0.0313	-0.0059	-0.0576	24.2661	-4.5883	18.5012	0.6223	-0.3160	0.6602	0.2771
4.55	-9.8959	-0.2271	-0.6972	-0.0339	-0.0118	-0.0557	23.9807	-4.8168	18.6453	0.6224	-0.3161	0.6603	0.2772
4.56	-9.8965	-0.2374	-0.6960	-0.0351	-0.0126	-0.0592	24.0351	-4.5985	18.5616	0.6223	-0.3162	0.6602	0.2773
4.57	-9.8934	-0.2606	-0.6935	-0.0402	-0.0205	-0.0554	24.2187	-4.3586	18.7226	0.6223	-0.3164	0.6601	0.2774
4.58	-9.8774	-0.2881	-0.6907	-0.0392	-0.0243	-0.0567	24.0150	-4.2378	18.4792	0.6223	-0.3165	0.6600	0.2775
4.59	-9.8600	-0.3047	-0.6843	-0.0334	-0.0227	-0.0565	23.9797	-4.2513	18.4205	0.6223	-0.3166	0.6599	0.2775
4.6	-9.8191	-0.3143	-0.6879	-0.0326	-0.0336	-0.0492	23.9438	-4.4620	18.7340	0.6223	-0.3167	0.6598	0.2777
4.61	-9.8101	-0.3241	-0.6821	-0.0313	-0.0275	-0.0494	24.0555	-4.5546	18.6530	0.6223	-0.3168	0.6597	0.2777
4.62	-9.8248	-0.3216	-0.6807	-0.0195	-0.0170	-0.0435	24.1538	-4.3690	18.8453	0.6224	-0.3168	0.6597	0.2779
4.63	-9.8131	-0.3075	-0.6811	-0.0100	-0.0205	-0.0428	24.0274	-4.6411	18.8499	0.6223	-0.3168	0.6596	0.2779
4.64	-9.8040	-0.3119	-0.6835	-0.0061	-0.0115	-0.0424	24.0730	-4.6667	18.7696	0.6224	-0.3168	0.6597	0.2779
4.65	-9.8265	-0.2901	-0.6818	-0.0080	-0.0149	-0.0354	24.0476	-4.3929	18.7999	0.6223	-0.3168	0.6596	0.2779
4.66	-9.8520	-0.2710	-0.6817	-0.0052	-0.0189	-0.0398	24.0662	-4.5467	18.6648	0.6223	-0.3168	0.6596	0.2780
4.67	-9.8374	-0.2717	-0.6801	0.0045	-0.0166	-0.0369	24.2230	-4.6480	18.7145	0.6223	-0.3167	0.6596	0.2780
4.68	-9.8563	-0.2569	-0.6880	0.0091	-0.0117	-0.0440	24.2358	-4.4784	18.3709	0.6224	-0.3167	0.6596	0.2779
4.69	-9.8581	-0.2417	-0.6932	0.0030	-0.0128	-0.0424	24.2485	-4.6531	18.6679	0.6224	-0.3166	0.6597	0.2779
4.7	-9.8461	-0.2418	-0.6817	0.0044	-0.0141	-0.0388	24.0661	-4.7661	18.6635	0.6224	-0.3166	0.6597	0.2779
4.71	-9.8437	-0.2222	-0.6808	0.0019	-0.0174	-0.0407	24.1117	-4.6774	18.3952	0.6224	-0.3166	0.6597	0.2779
4.72	-9.8335	-0.2304	-0.6811	-0.0097	-0.0203	-0.0442	24.1688	-4.6102	18.4275	0.6224	-0.3165	0.6596	0.2779
4.73	-9.8404	-0.2262	-0.6813	-0.0034	-0.0137	-0.0362	24.0220	-4.5041	18.6398	0.6224	-0.3165	0.6597	0.2780
4.74	-9.8677	-0.2360	-0.6897	-0.0138	-0.0134	-0.0369	24.0995	-4.4827	18.4009	0.6224	-0.3165	0.6596	0.2780
4.75	-9.8535	-0.2552	-0.6842	-0.0129	-0.0132	-0.0344	24.2315	-4.6726	18.5381	0.6224	-0.3165	0.6597	0.2781
4.76	-9.8182	-0.2350	-0.6854	-0.0162	-0.0036	-0.0390	24.3137	-4.6108	18.9424	0.6223	-0.3165	0.6597	0.2781
4.77	-9.8317	-0.2492	-0.6979	-0.0169	-0.0015	-0.0485	24.6230	-4.2102	18.9647	0.6223	-0.3166	0.6597	0.2782
4.78	-9.8186	-0.2548	-0.6978	-0.0304	-0.0013	-0.0456	24.4549	-4.2920	18.7753	0.6222	-0.3167	0.6597	0.2782
4.79	-9.8251	-0.2723	-0.6966	-0.0277	-0.0049	-0.0440	23.9344	-4.2305	18.6864	0.6221	-0.3167	0.6596	0.2783
4.8	-9.8428	-0.2848	-0.6801	-0.0256	-0.0049	-0.0462	23.8962	-4.2477	18.7262	0.6221	-0.3169	0.6597	0.2784
4.81	-9.8638	-0.2750	-0.6934	-0.0094	0.0072	-0.0440	23.6677	-4.6098	18.8563	0.6220	-0.3169	0.6597	0.2783
4.82	-9.8552	-0.2868	-0.6989	-0.0193	-0.0006	-0.0436	23.9659	-4.4172	18.8296	0.6220	-0.3170	0.6598	0.2784
4.83	-9.8549	-0.3002	-0.6960	-0.0189	-0.0011	-0.0410	24.2256	-4.6434	18.5692	0.6218	-0.3170	0.6597	0.2784
4.84	-9.8612	-0.3009	-0.7126	-0.0103	-0.0010	-0.0304	24.1757	-4.7325	18.6037	0.6218	-0.3170	0.6598	0.2785
4.85	-9.8495	-0.2883	-0.7195	-0.0102	-0.0021	-0.0220	23.8275	-4.7082	18.4076	0.6217	-0.3170	0.6599	0.2785
4.86	-9.8464	-0.2735	-0.7328	-0.0059	-0.0025	-0.0249	23.9770	-4.7233	18.4741	0.6216	-0.3169	0.6599	0.2786
4.87	-9.8466	-0.2388	-0.7450	-0.0037	-0.0001	-0.0262	24.1476	-4.7071	18.6496	0.6217	-0.3169	0.6600	0.2786
4.88	-9.8344	-0.2056	-0.7388	-0.0064	0.0037	-0.0304	24.0725	-4.7275	18.5276	0.6215	-0.3168	0.6600	0.2786
4.89	-9.8612	-0.1984	-0.7605	-0.0067	0.0048	-0.0330	24.3910	-4.6671	18.5275	0.6215	-0.3169	0.6601	0.2787
4.9	-9.8577	-0.1924	-0.7539	0.0019	0.0006	-0.0352	24.2748	-4.5077	18.3854	0.6214	-0.3168	0.6601	0.2786
4.91	-9.8714	-0.1814	-0.7632	-0.0058	0.0018	-0.0377	24.0773	-4.5779	18.3399	0.6214	-0.3168	0.6602	0.2787
4.92	-9.8931	-0.1711	-0.7824	-0.0045	0.0061	-0.0443	24.0817	-4.6354	18.7766	0.6213	-0.3168	0.6603	0.2786
4.93	-9.8973	-0.1563	-0.7750	-0.0043	-0.0023	-0.0414	23.9602	-4.6308	18.7972	0.6212	-0.3168	0.6603	0.2786
4.94	-9.9002	-0.1656	-0.7771	-0.0069	-0.0112	-0.0432	24.1623	-4.6047	18.6613	0.6213	-0.3168	0.6603	0.2786
4.95	-9.9248	-0.1520	-0.7676	-0.0060	-0.0128	-0.0478	24.1598	-4.8063	18.4651	0.6212	-0.3169	0.6603	0.2786
4.96	-9.9183	-0.1496	-0.7775	-0.0086	-0.0164	-0.0522	24.0849	-4.4875	18.7390	0.6213	-0.3169	0.6603	0.2786
4.97	-9.8985	-0.1757	-0.7672	-0.0236	-0.0263	-0.0466	24.1251	-4.5106	18.5565	0.6212	-0.3169	0.6602	0.2787
4.98	-9.8758	-0.1702	-0.7568	-0.0316	-0.0277	-0.0518	23.8716	-4.6559	18.5372	0.6213	-0.3170	0.6601	0.2788
4.99	-9.8644	-0.1856	-0.7355	-0.0332	-0.0300	-0.0427	24.1415	-4.6426	18.5682	0.6213	-0.3171	0.6600	0.2789
5	-9.8604	-0.1972	-0.7388	-0.0325	-0.0292	-0.0344	23.9591	-4.7731	18.4752	0.6213	-0.3171	0.6600	0.2791
5.01	-9.8334	-0.2223	-0.7384	-0.0328	-0.0339	-0.0364	23.8054	-4.5792	18.6008	0.6213	-0.3171	0.6598	0.2792
5.02	-9.8186	-0.2209	-0.7253	-0.0301	-0.0276	-0.0349	23.9870	-4.5642	18.6213	0.6213	-0.3172	0.6598	0.2793
5.03	-9.8334	-0.2193	-0.7144	-0.0289	-0.0257	-0.0327	23.8313	-4.6544	18.7080	0.6213	-0.3172	0.6597	0.2795
5.04	-9.8452	-0.2179	-0.7165	-0.0307	-0.0264	-0.0378	23.9043	-4.6034	18.6898	0.6213	-0.3172	0.6596	0.2796
5.05	-9.8588	-0.2156	-0.7080	-0.0310	-0.0232	-0.0451	24.1505	-4.7506	18.5657	0.6213	-0.3173	0.6596	0.2797
5.06	-9.8498	-0.2125	-0.6991	-0.0259	-0.0219	-0.0457	24.0686	-4.6753	18.6630	0.6213	-0.3174	0.6595	0.2798
5.07	-9.8508	-0.2153	-0.7057	-0.0227	-0.0180	-0.0501	24.1845	-4.8114	18.6511	0.6214	-0.3175	0.6595	0.2799
5.08	-9.8585	-0.2154	-0.7011	-0.0144	-0.0175	-0.0454	24.2057	-4.7080	18.4798	0.6213	-0.3175	0.6594	0.2799
5.09	-9.8597	-0.2018	-0.7015	-0.0175	-0.0213	-0.0531	24.0535	-4.6101	18.5102	0.6213	-0.3175	0.6594	0.2799
5.1	-9.8600	-0.1793	-0.6984	-0.0184	-0.0201	-0.0472	23.8104	-4.8127	18.5300	0.6213	-0.3176	0.6593	0.2800
5.11	-9.8609	-0.1788	-0.6988	-0.0234	-0.0216	-0.0556	23.9262	-4.7972	18.7236	0.6213	-0.3176	0.6592	0.2800
5.12	-9.8574	-0.1876	-0.6920	-0.0306	-0.0186	-0.0612	23.9167	-4.7218	18.6532	0.6214	-0.3178	0.6592	0.2801
5.13	-9.8597	-0.1925	-0.6993	-0.0315	-0.0167	-0.0578	24.1058	-4.6772	18.7639	0.6213	-0.3179	0.6591	0.2801
5.14	-9.8531	-0.2118	-0.7064	-0.0318	-0.0125	-0.0622	24.2497	-4.5925	18.6982	0.6214	-0.3181	0.6591	0.2802
5.15	-9.8624	-0.2152	-0.7088	-0.0320	-0.0134	-0.0615	24.0773	-4.7322	18.3391	0.6213	-0.3182	0.6589	0.2802
5.16	-9.8700	-0.2273	-0.7104	-0.0344	-0.0121	-0.0601	23.8989	-4.5996	18.7175	0.6213	-0.3183	0.6589	0.2802
5.17	-9.8578	-0.2428	-0.6944	-0.0320	-0.0114	-0.0592	23.9366	-4.8215	18.7683	0.6213	-0.3185	0.6588	0.2803
5.18	-9.8567	-0.2478	-0.6991	-0.0330	-0.0146	-0.0610	23.9084	-4.7203	18.5717	0.6212	-0.3186	0.6587	0.2803
5.19	-9.8625	-0.2533	-0.6994	-0.0350	-0.0139	-0.0577	24.0355	-4.7142	18.7085	0.6212	-0.3188	0.6587	0.2804
5.2	-9.8568	-0.2561	-0.6881	-0.0359	-0.0194	-0.0567	23.8653	-4.7052	18.6783	0.6212	-0.3189	0.6586	0.2805
5.21	-9.8593	-0.2677	-0.6830	-0.0324	-0.0209	-0.0554	24.0344	-4.5311	18.4792	0.6212	-0.3190	0.6585	0.2805
5.22	-9.8577	-0.2899	-0.6829	-0.0304	-0.0194	-0.0431	23.9033	-4.6112	18.6100	0.6211	-0.3191	0.6584	0.2806
5.23	-9.8575	-0.2838	-0.6827	-0.0306	-0.0203	-0.0491	24.0703	-4.7640	18.5706	0.6212	-0.3192	0.6584	0.2807
5.24	-9.8553	-0.2887	-0.6789	-0.0318	-0.0225	-0.0431	24.2237	-4.7924	18.3436	0.6212	-0.3192	0.6583	0.2808
5.25	-9.8392	-0.2801	-0.6787	-0.0225	-0.0171	-0.0438	23.9366	-4.6003	18.5212	0.6212	-0.3193	0.6583	0.2809
5.26	-9.8324	-0.2683	-0.6827	-0.0263	-0.0151	-0.0435	24.3464	-4.7401	18.4888	0.6211	-0.3193	0.6582	0.2810
5.27	-9.8485	-0.2550	-0.6844	-0.0181	-0.0249	-0.0470	24.4708	-4.5579	18.6654	0.6211	-0.3194	0.6582	0.2810
5.28	-9.8476	-0.2585	-0.6725	-0.0077	-0.0194	-0.0465	24.2935	-4.5447	18.6728	0.6212	-0.3194	0.6582	0.2810
5.29	-9.8413	-0.2529	-0.6618	-0.0169	-0.0177	-0.0462	24.2332	-4.5901	18.6676	0.6211	-0.3194	0.6581	0.2811
5.3	-9.8304	-0.2477	-0.6727	-0.0097	-0.0181	-0.0459	23.9592	-4.7887	18.7585	0.6212	-0.3195	0.6581	0.2811
5.31	-9.8305	-0.2433	-0.6517	-0.0066	-0.0191	-0.0458	24.0040	-4.7644	18.5059	0.6212	-0.3195	0.6581	0.2811
5.32	-9.8383	-0.2526	-0.6576	-0.0179	-0.0147	-0.0556	24.0611	-4.6099	18.3130	0.6212	-0.3196	0.6581	0.2812
5.33	-9.8359	-0.2618	-0.6608	-0.0159	-0.0077	-0.0563	24.0317	-4.4935	18.4161	0.6211	-0.3196	0.6580	0.2811
5.34	-9.8262	-0.2671	-0.6644	-0.0112	-0.0120	-0.0470	23.9247	-4.4252	18.4284	0.6212	-0.3197	0.6580	0.2811
5.35	-9.8295	-0.2631	-0.6721	-0.0086	-0.0105	-0.0496	23.9966	-4.5578	18.3872	0.6212	-0.3197	0.6580	0.2811
5.36	-9.8339	-0.2663	-0.6706	-0.0088	-0.0104	-0.0528	24.1346	-4.4151	18.5271	0.6211	-0.3197	0.6579	0.2811
5.37	-9.8441	-0.2775	-0.6674	-0.0152	-0.0020	-0.0512	24.1361	-4.4128	18.3748	0.6212	-0.3198	0.6580	0.2811
5.38	-9.8577	-0.2872	-0.6749	-0.0066	-0.0016	-0.0480	24.1125	-4.5948	18.5008	0.6211	-0.3198	0.6580	0.2811
5.39	-9.8161	-0.2972	-0.6797	-0.0086	-0.0079	-0.0491	23.9365	-4.7763	18.6585	0.6211	-0.3199	0.6580	0.2811
5.4	-9.8291	-0.2933	-0.6741	-0.0073	-0.0041	-0.0479	24.0361	-4.7862	18.5795	0.6210	-0.3199	0.6580	0.2810
5.41	-9.8522	-0.3040	-0.6866	-0.0051	-0.0013	-0.0396	24.0477	-4.6321	18.3990	0.6210	-0.3199	0.6581	0.2811
5.42	-9.8472	-0.2985	-0.6801	-0.0068	-0.0069	-0.0363	24.3817	-4.6177	18.4253	0.6210	-0.3199	0.6581	0.2811
5.43	-9.8841	-0.2905	-0.6838	0.0003	-0.0030	-0.0359	24.3432	-4.7758	18.4270	0.6209	-0.3199	0.6581	0.2811
5.44	-9.8958	-0.2841	-0.6885	-0.0050	0.0006	-0.0363	24.1793	-4.8706	18.4244	0.6209	-0.3199	0.6582	0.2811
5.45	-9.9147	-0.2684	-0.6913	0.0002	-0.0133	-0.0349	24.1211	-4.8480	18.2954	0.6209	-0.3199	0.6582	0.2811
5.46	-9.9022	-0.2700	-0.6839	0.0030	-0.0125	-0.0351	24.3415	-4.6845	18.3948	0.6209	-0.3198	0.6582	0.2811
5.47	-9.8916	-0.2632	-0.6816	-0.0020	-0.0141	-0.0329	24.1295	-4.6738	18.5143	0.6208	-0.3197	0.6582	0.2811
5.48	-9.8671	-0.2603	-0.6904	-0.0006	-0.0145	-0.0335	24.0086	-4.9070	18.6371	0.6209	-0.3197	0.6583	0.2811
5.49	-9.8343	-0.2583	-0.6887	-0.0045	-0.0230	-0.0262	23.9080	-4.8134	18.5777	0.6209	-0.3196	0.6582	0.2812
5.5	-9.8718	-0.2462	-0.7038	0.0104	-0.0153	-0.0192	24.0467	-4.7003	18.7077	0.6209	-0.3195	0.6583	0.2812
5.51	-9.8796	-0.2072	-0.6996	0.0076	-0.0239	-0.0226	24.0246	-4.5764	18.5125	0.6209	-0.3194	0.6583	0.2813
5.52	-9.8825	-0.1886	-0.6915	-0.0066	-0.0229	-0.0191	23.9529	-4.6245	18.3559	0.6209	-0.3193	0.6583	0.2814
5.53	-9.8869	-0.1758	-0.6908	-0.0027	-0.0272	-0.0168	24.0892	-4.7356	18.5505	0.6209	-0.3192	0.6583	0.2815
5.54	-9.8414	-0.1740	-0.6785	-0.0169	-0.0330	-0.0200	23.9332	-4.5065	18.7234	0.6209	-0.3191	0.6582	0.2816
5.55	-9.7930	-0.1549	-0.6767	-0.0337	-0.0240	-0.0228	23.9612	-4.5016	18.3626	0.6209	-0.3191	0.6583	0.2818
5.56	-9.7904	-0.1547	-0.6695	-0.0306	-0.0265	-0.0192	23.7925	-4.6716	18.6017	0.6208	-0.3191	0.6582	0.2819
5.57	-9.7918	-0.1921	-0.6832	-0.0399	-0.0131	-0.0269	24.0187	-4.4539	18.6008	0.6208	-0.3192	0.6582	0.2821
5.58	-9.7778	-0.1970	-0.6798	-0.0582	-0.0135	-0.0262	24.1396	-4.7450	18.6111	0.6206	-0.3192	0.6581	0.2823
5.59	-9.8005	-0.2179	-0.6810	-0.0493	-0.0082	-0.0307	24.0121	-4.7013	18.4788	0.6206	-0.3194	0.6581	0.2825
5.6	-9.8386	-0.2528	-0.6848	-0.0504	-0.0006	-0.0318	24.0637	-4.6404	18.3545	0.6205	-0.3195	0.6581	0.2827
5.61	-9.8519	-0.2729	-0.6889	-0.0450	0.0001	-0.0373	24.3161	-4.9250	18.3145	0.6203	-0.3196	0.6580	0.2828
5.62	-9.8592	-0.3068	-0.7042	-0.0347	-0.0051	-0.0368	24.2939	-4.7194	18.3554	0.6203	-0.3197	0.6581	0.2830
5.63	-9.8611	-0.3208	-0.7194	-0.0309	0.0019	-0.0352	24.0582	-4.9625	18.4519	0.6201	-0.3198	0.6581	0.2830
5.64	-9.8637	-0.3199	-0.7076	-0.0213	0.0043	-0.0400	24.2178	-4.8873	18.6374	0.6201	-0.3199	0.6581	0.2831
5.65	-9.8557	-0.3261	-0.7263	-0.0002	0.0040	-0.0346	24.2249	-4.7621	18.4993	0.6199	-0.3198	0.6581	0.2830
5.66	-9.8378	-0.2983	-0.7090	0.0113	0.0003	-0.0361	24.0853	-4.7724	18.3142	0.6200	-0.3198	0.6583	0.2830
5.67	-9.8733	-0.2590	-0.7088	0.0126	-0.0023	-0.0347	24.0219	-4.7955	18.4851	0.6199	-0.3197	0.6583	0.2830
5.68	-9.8974	-0.2354	-0.7155	0.0199	-0.0020	-0.0373	24.0441	-4.9806	18.6316	0.6199	-0.3196	0.6584	0.2829
5.69	-9.8682	-0.2193	-0.6972	0.0184	-0.0033	-0.0371	24.0321	-4.8252	18.4799	0.6200	-0.3196	0.6585	0.2828
5.7	-9.8741	-0.2010	-0.7072	0.0191	-0.0024	-0.0399	24.0461	-4.7779	18.4527	0.6199	-0.3195	0.6585	0.2827
5.71	-9.9011	-0.1817	-0.6976	0.0175	-0.0065	-0.0334	24.0053	-4.7199	18.7406	0.6200	-0.3194	0.6586	0.2827
5.72	-9.8723	-0.1739	-0.6839	0.0168	-0.0146	-0.0344	23.8062	-4.6068	18.6063	0.6199	-0.3193	0.6586	0.2826
5.73	-9.8576	-0.1379	-0.6835	0.0193	-0.0137	-0.0314	24.1477	-4.3537	18.3510	0.6200	-0.3192	0.6587	0.2826
5.74	-9.8574	-0.1011	-0.6804	0.0172	-0.0118	-0.0301	24.0284	-4.5372	18.3480	0.6200	-0.3191	0.6587	0.2826
5.75	-9.8438	-0.0874	-0.6815	0.0136	-0.0087	-0.0330	23.9179	-4.6190	18.5115	0.6200	-0.3190	0.6588	0.2825
5.76	-9.8365	-0.0953	-0.6808	0.0002	-0.0034	-0.0442	24.0286	-4.6014	18.6066	0.6200	-0.3190	0.6588	0.2825
5.77	-9.8294	-0.1036	-0.6828	-0.0042	-0.0118	-0.0486	24.4880	-4.4341	18.7331	0.6200	-0.3190	0.6588	0.2825
5.78	-9.8218	-0.1318	-0.6917	-0.0058	-0.0088	-0.0461	24.5315	-4.4794	18.6427	0.6200	-0.3190	0.6588	0.2825
5.79	-9.8451	-0.1436	-0.6851	-0.0115	-0.0032	-0.0477	24.2607	-4.7335	18.6023	0.6199	-0.3191	0.6588	0.2824
5.8	-9.8600	-0.1449	-0.6879	-0.0134	-0.0026	-0.0398	24.1343	-4.4915	18.2711	0.6200	-0.3191	0.6589	0.2825
5.81	-9.8683	-0.1564	-0.6926	-0.0070	-0.0018	-0.0514	24.1066	-4.7523	18.4797	0.6199	-0.3192	0.6589	0.2824
5.82	-9.8942	-0.1726	-0.6880	-0.0153	-0.0096	-0.0406	24.0197	-4.8062	18.4628	0.6199	-0.3192	0.6589	0.2825
5.83	-9.8945	-0.1765	-0.6978	-0.0153	-0.0002	-0.0419	23.9953	-4.7610	18.5071	0.6198	-0.3192	0.6588	0.2825
5.84	-9.8938	-0.1800	-0.6928	-0.0185	-0.0136	-0.0445	23.9798	-4.8232	18.5296	0.6198	-0.3193	0.6589	0.2825
5.85	-9.8876	-0.1839	-0.6942	-0.0336	-0.0122	-0.0425	23.8921	-4.8835	18.5405	0.6197	-0.3194	0.6588	0.2826
5.86	-9.8814	-0.1982	-0.6959	-0.0277	-0.0159	-0.0426	24.2193	-4.8761	18.4214	0.6197	-0.3194	0.6587	0.2827
5.87	-9.8688	-0.2063	-0.6885	-0.0316	-0.0199	-0.0450	24.0409	-4.8527	18.6551	0.6197	-0.3195	0.6588	0.2828
5.88	-9.8577	-0.2020	-0.6809	-0.0259	-0.0172	-0.0438	24.1562	-4.7842	18.5702	0.6197	-0.3196	0.6587	0.2829
5.89	-9.8592	-0.2060	-0.6797	-0.0246	-0.0170	-0.0455	24.1401	-4.9426	18.5081	0.6197	-0.3197	0.6587	0.2830
5.9	-9.8474	-0.1915	-0.6821	-0.0100	-0.0168	-0.0464	23.9083	-4.6539	18.5355	0.6196	-0.3196	0.6585	0.2829
5.91	-9.8443	-0.1929	-0.6735	-0.0062	-0.0159	-0.0457	23.7584	-4.7424	18.3885	0.6197	-0.3197	0.6586	0.2830
5.92	-9.8548	-0.1972	-0.6774	-0.0057	-0.0129	-0.0465	23.7914	-4.9524	18.4911	0.6197	-0.3197	0.6586	0.2830
5.93	-9.8566	-0.1868	-0.6769	-0.0084	-0.0088	-0.0497	24.0613	-4.6914	18.5568	0.6197	-0.3197	0.6585	0.2829
5.94	-9.8598	-0.1809	-0.6666	-0.0066	-0.0109	-0.0532	23.7663	-4.7026	18.3791	0.6197	-0.3198	0.6586	0.2829
5.95	-9.8475	-0.1869	-0.6765	-0.0097	-0.0135	-0.0558	23.8727	-4.5552	18.6386	0.6197	-0.3198	0.6585	0.2829
5.96	-9.8399	-0.1757	-0.6708	-0.0173	-0.0095	-0.0548	23.9343	-4.7365	18.6849	0.6197	-0.3199	0.6585	0.2829
5.97	-9.8548	-0.1836	-0.6738	-0.0142	-0.0162	-0.0561	23.8667	-4.8240	18.4953	0.6197	-0.3200	0.6584	0.2829
5.98	-9.8472	-0.1896	-0.6810	-0.0227	-0.0165	-0.0599	24.2888	-4.7386	18.4279	0.6198	-0.3201	0.6584	0.2829
5.99	-9.8277	-0.1895	-0.6780	-0.0288	-0.0141	-0.0586	24.1801	-4.8665	18.2645	0.6197	-0.3202	0.6583	0.2829
6	-9.8427	-0.1994	-0.6702	-0.0332	-0.0137	-0.0599	23.9848	-4.8124	18.2373	0.6197	-0.3203	0.6582	0.2830
6.01	-9.8609	-0.2106	-0.6730	-0.0321	-0.0129	-0.0596	23.9910	-4.6877	18.3371	0.6197	-0.3205	0.6581	0.2830
6.02	-9.8237	-0.2255	-0.6832	-0.0333	-0.0168	-0.0592	24.1576	-4.8023	18.3554	0.6197	-0.3206	0.6581	0.2831
6.03	-9.8084	-0.2244	-0.6779	-0.0328	-0.0116	-0.0547	24.1336	-4.8185	18.3075	0.6197	-0.3207	0.6580	0.2831
6.04	-9.8366	-0.2376	-0.6835	-0.0325	-0.0089	-0.0559	24.0458	-4.9232	18.4513	0.6196	-0.3208	0.6579	0.2832
6.05	-9.8162	-0.2484	-0.6773	-0.0339	-0.0115	-0.0601	24.3308	-4.7101	18.5008	0.6196	-0.3210	0.6579	0.2832
6.06	-9.8367	-0.2596	-0.6833	-0.0326	-0.0008	-0.0584	24.0474	-4.7564	18.6092	0.6195	-0.3212	0.6579	0.2833
6.07	-9.8674	-0.2756	-0.6809	-0.0322	0.0007	-0.0532	23.9774	-4.9702	18.4945	0.6195	-0.3213	0.6579	0.2833
6.08	-9.8969	-0.2736	-0.6868	-0.0328	-0.0077	-0.0574	24.0180	-4.5326	18.3011	0.6194	-0.3214	0.6578	0.2833
6.09	-9.8798	-0.2797	-0.6811	-0.0320	-0.0109	-0.0565	23.9738	-4.8089	18.5843	0.6194	-0.3216	0.6577	0.2834
6.1	-9.8574	-0.2904	-0.6846	-0.0322	-0.0058	-0.0471	23.8720	-4.6583	18.4908	0.6193	-0.3217	0.6577	0.2835
6.11	-9.8740	-0.2789	-0.7008	-0.0286	-0.0042	-0.0411	24.0002	-4.6512	18.5347	0.6192	-0.3217	0.6577	0.2835
6.12	-9.8592	-0.2748	-0.7132	-0.0323	-0.0129	-0.0355	24.0992	-4.8250	18.5207	0.6193	-0.3219	0.6577	0.2837
6.13	-9.8553	-0.2823	-0.7269	-0.0216	-0.0120	-0.0342	23.9509	-4.6226	18.3660	0.6192	-0.3219	0.6577	0.2837
6.14	-9.8516	-0.2451	-0.7241	-0.0065	-0.0111	-0.0348	24.0921	-4.8172	18.3286	0.6192	-0.3219	0.6577	0.2838
6.15	-9.8369	-0.2200	-0.7246	-0.0056	-0.0145	-0.0336	24.0081	-4.6735	18.3455	0.6191	-0.3218	0.6576	0.2838
6.16	-9.8457	-0.2244	-0.7284	-0.0069	-0.0175	-0.0372	23.9782	-4.6257	18.2115	0.6192	-0.3218	0.6577	0.2838
6.17	-9.8514	-0.2179	-0.7221	-0.0051	-0.0199	-0.0389	24.0511	-4.8877	18.4595	0.6192	-0.3218	0.6576	0.2839
6.18	-9.8438	-0.2161	-0.7185	0.0088	-0.0126	-0.0467	24.1157	-4.8707	18.3358	0.6192	-0.3217	0.6576	0.2838
6.19	-9.8498	-0.2138	-0.7291	0.0107	-0.0062	-0.0529	23.9708	-4.7839	18.3528	0.6192	-0.3217	0.6577	0.2838
6.2	-9.8633	-0.2000	-0.7371	0.0050	-0.0126	-0.0490	24.0278	-4.7794	18.4409	0.6193	-0.3217	0.6577	0.2837
6.21	-9.8883	-0.1896	-0.7333	-0.0074	-0.0162	-0.0517	24.1647	-4.7916	18.4525	0.6193	-0.3217	0.6577	0.2837
6.22	-9.8922	-0.1946	-0.7479	-0.0045	-0.0138	-0.0503	24.1971	-4.7791	18.3194	0.6193	-0.3217	0.6576	0.2836
6.23	-9.8953	-0.1906	-0.7404	-0.0074	-0.0140	-0.0467	24.0431	-4.6898	18.3744	0.6193	-0.3218	0.6576	0.2837
6.24	-9.8951	-0.1890	-0.7335	-0.0075	-0.0147	-0.0477	23.9950	-4.8530	18.4167	0.6193	-0.3218	0.6576	0.2837
6.25	-9.8751	-0.2073	-0.7266	-0.0179	-0.0156	-0.0432	23.9773	-4.8977	18.5767	0.6193	-0.3218	0.6576	0.2837
6.26	-9.8585	-0.1983	-0.7192	-0.0191	-0.0158	-0.0454	24.1941	-4.7519	18.7207	0.6193	-0.3219	0.6575	0.2838
6.27	-9.8612	-0.2146	-0.7167	-0.0256	-0.0168	-0.0479	24.4223	-4.8201	19.0005	0.6193	-0.3219	0.6575	0.2838
6.28	-9.8621	-0.2338	-0.7124	-0.0283	-0.0298	-0.0432	24.2615	-4.8543	19.0716	0.6193	-0.3220	0.6574	0.2839
6.29	-9.8419	-0.2427	-0.7109	-0.0253	-0.0157	-0.0453	24.2063	-4.5725	18.6647	0.6193	-0.3220	0.6573	0.2840
6.3	-9.8504	-0.2519	-0.7080	-0.0237	-0.0227	-0.0380	23.8830	-4.6814	18.6924	0.6193	-0.3221	0.6573	0.2841
6.31	-9.8859	-0.2362	-0.7078	-0.0123	-0.0193	-0.0407	23.9116	-4.8074	18.5569	0.6193	-0.3221	0.6572	0.2841
6.32	-9.8817	-0.2256	-0.6990	-0.0053	-0.0210	-0.0447	23.9636	-4.8817	18.5145	0.6194	-0.3221	0.6573	0.2842
6.33	-9.8586	-0.2377	-0.6865	-0.0073	-0.0276	-0.0483	24.0288	-4.5977	18.5286	0.6194	-0.3221	0.6571	0.2842
6.34	-9.8735	-0.2322	-0.6800	-0.0037	-0.0266	-0.0399	24.0505	-4.7363	18.3873	0.6195	-0.3220	0.6571	0.2842
6.35	-9.8593	-0.2396	-0.6892	0.0080	-0.0321	-0.0352	23.8496	-4.8301	18.3020	0.6195	-0.3220	0.6571	0.2842
6.36	-9.8193	-0.2218	-0.6791	0.0121	-0.0371	-0.0359	24.2395	-4.9783	18.4464	0.6196	-0.3218	0.6570	0.2842
6.37	-9.8333	-0.1776	-0.6821	0.0057	-0.0250	-0.0336	24.1842	-5.1094	18.4281	0.6197	-0.3218	0.6571	0.2843
6.38	-9.8384	-0.1525	-0.6807	0.0142	-0.0284	-0.0380	24.0106	-4.9747	18.3210	0.6197	-0.3217	0.6570	0.2842
6.39	-9.8252	-0.1558	-0.6809	0.0164	-0.0218	-0.0360	24.2393	-5.0124	18.3476	0.6198	-0.3216	0.6570	0.2842
6.4	-9.8413	-0.1526	-0.6879	0.0078	-0.0213	-0.0514	24.2032	-5.0146	18.4259	0.6198	-0.3215	0.6569	0.2842
6.41	-9.8438	-0.1551	-0.6827	0.0033	-0.0139	-0.0523	24.2188	-4.9700	18.4572	0.6199	-0.3215	0.6570	0.2841
6.42	-9.8599	-0.1760	-0.6907	-0.0018	-0.0104	-0.0579	24.0449	-4.9248	18.2063	0.6199	-0.3215	0.6570	0.2841
6.43	-9.8751	-0.1780	-0.6936	-0.0079	-0.0221	-0.0544	24.0343	-4.8351	18.1162	0.6200	-0.3216	0.6569	0.2841
6.44	-9.8967	-0.1908	-0.6946	-0.0106	-0.0205	-0.0484	24.0419	-4.8462	18.3752	0.6200	-0.3216	0.6569	0.2841
6.45	-9.8965	-0.1890	-0.6842	-0.0064	-0.0117	-0.0521	24.0284	-4.9034	18.3293	0.6200	-0.3216	0.6568	0.2841
6.46	-9.8893	-0.1967	-0.6958	-0.0157	-0.0224	-0.0567	23.8455	-4.6006	18.3393	0.6201	-0.3217	0.6568	0.2841
6.47	-9.8725	-0.2103	-0.6840	-0.0271	-0.0272	-0.0553	23.9468	-4.7789	18.3348	0.6200	-0.3218	0.6566	0.2841
6.48	-9.8663	-0.2279	-0.6903	-0.0281	-0.0312	-0.0579	24.0582	-4.6015	18.3344	0.6201	-0.3219	0.6566	0.2842
6.49	-9.8547	-0.2456	-0.6812	-0.0195	-0.0326	-0.0518	23.8773	-4.7357	18.3406	0.6202	-0.3219	0.6565	0.2843
6.5	-9.8473	-0.2638	-0.6855	-0.0235	-0.0296	-0.0532	24.1212	-4.6864	18.3295	0.6202	-0.3220	0.6564	0.2843
6.51	-9.8571	-0.2710	-0.6705	-0.0214	-0.0294	-0.0578	24.1421	-4.5453	18.3479	0.6203	-0.3220	0.6562	0.2844
6.52	-9.8579	-0.2717	-0.6565	-0.0140	-0.0337	-0.0502	23.9895	-4.5758	18.3041	0.6203	-0.3221	0.6562	0.2844
6.53	-9.8670	-0.2697	-0.6500	-0.0098	-0.0327	-0.0427	24.1222	-4.7753	18.4218	0.6204	-0.3221	0.6561	0.2845
6.54	-9.8706	-0.2675	-0.6479	-0.0060	-0.0385	-0.0447	24.1129	-4.9398	18.3662	0.6204	-0.3220	0.6560	0.2845
6.55	-9.8559	-0.2622	-0.6308	-0.0090	-0.0463	-0.0430	24.2541	-4.8078	18.2138	0.6206	-0.3220	0.6559	0.2846
6.56	-9.8598	-0.2487	-0.6202	-0.0129	-0.0415	-0.0440	24.3104	-4.9816	18.2886	0.6207	-0.3220	0.6558	0.2847
6.57	-9.8578	-0.2420	-0.6123	-0.0073	-0.0345	-0.0451	24.3315	-4.7996	18.4437	0.6208	-0.3220	0.6558	0.2847
6.58	-9.8320	-0.2477	-0.6119	-0.0126	-0.0367	-0.0478	24.1115	-4.9531	18.3454	0.6208	-0.3219	0.6556	0.2847
6.59	-9.7993	-0.2267	-0.5996	-0.0129	-0.0421	-0.0399	24.0173	-4.7459	18.2030	0.6209	-0.3219	0.6555	0.2848
6.6	-9.8065	-0.2313	-0.6040	-0.0126	-0.0403	-0.0466	24.0621	-4.8360	18.3173	0.6210	-0.3219	0.6554	0.2849
6.61	-9.7867	-0.2219	-0.5723	-0.0128	-0.0296	-0.0449	24.3159	-4.9804	18.3590	0.6210	-0.3219	0.6553	0.2850
6.62	-9.8334	-0.2310	-0.5968	-0.0171	-0.0236	-0.0443	24.2944	-4.6685	18.3238	0.6211	-0.3220	0.6553	0.2851
6.63	-9.7918	-0.2470	-0.5905	-0.0103	-0.0231	-0.0425	24.1971	-4.8193	18.3704	0.6211	-0.3219	0.6552	0.2851
6.64	-9.7960	-0.2456	-0.5877	-0.0236	-0.0108	-0.0506	23.9721	-4.7849	18.4897	0.6211	-0.3220	0.6552	0.2851
6.65	-9.8232	-0.2458	-0.6047	-0.0215	-0.0103	-0.0493	23.9450	-4.6337	18.2179	0.6210	-0.3221	0.6551	0.2851
6.66	-9.8349	-0.2549	-0.6075	-0.0254	-0.0078	-0.0425	23.9333	-4.6752	18.0292	0.6210	-0.3222	0.6552	0.2852
6.67	-9.8479	-0.2647	-0.6113	-0.0267	-0.0117	-0.0451	24.1897	-4.7923	18.4376	0.6210	-0.3222	0.6551	0.2853
6.68	-9.8607	-0.2746	-0.5986	-0.0253	-0.0116	-0.0439	24.1504	-4.6167	18.3582	0.6209	-0.3223	0.6551	0.2853
6.69	-9.9148	-0.2903	-0.6198	-0.0263	-0.0069	-0.0484	24.1287	-4.8848	18.2275	0.6209	-0.3224	0.6551	0.2854
6.7	-9.8676	-0.2879	-0.6252	-0.0207	-0.0128	-0.0446	24.0901	-4.7532	18.2590	0.6209	-0.3224	0.6550	0.2855
6.71	-9.8459	-0.3164	-0.6208	-0.0133	-0.0137	-0.0379	24.0593	-4.6095	18.2261	0.6209	-0.3225	0.6550	0.2855
6.72	-9.8623	-0.3117	-0.6471	-0.0064	-0.0154	-0.0318	24.2503	-4.7377	18.3344	0.6208	-0.3224	0.6550	0.2855
6.73	-9.8204	-0.2918	-0.6512	-0.0094	-0.0104	-0.0298	24.1922	-4.9812	18.3574	0.6208	-0.3224	0.6551	0.2856
6.74	-9.8268	-0.2641	-0.6550	-0.0011	-0.0053	-0.0273	24.2522	-4.9708	18.4948	0.6208	-0.3223	0.6551	0.2857
6.75	-9.8410	-0.2412	-0.6816	0.0026	-0.0065	-0.0292	24.3949	-4.8773	18.5684	0.6208	-0.3223	0.6551	0.2857
6.76	-9.8291	-0.2233	-0.6694	-0.0007	-0.0088	-0.0349	24.4682	-5.0307	18.3908	0.6207	-0.3222	0.6551	0.2857
6.77	-9.8797	-0.2221	-0.6595	0.0019	-0.0009	-0.0368	24.7816	-4.8549	18.5100	0.6207	-0.3222	0.6552	0.2857
6.78	-9.8732	-0.2077	-0.6774	0.0146	-0.0094	-0.0397	24.6168	-4.7955	18.4644	0.6207	-0.3221	0.6553	0.2856
6.79	-9.8557	-0.2092	-0.6718	0.0080	-0.0148	-0.0411	24.1982	-4.7555	18.4297	0.6207	-0.3220	0.6552	0.2856
6.8	-9.8866	-0.1955	-0.6791	0.0124	-0.0131	-0.0417	24.0700	-4.7732	18.4216	0.6208	-0.3220	0.6553	0.2856
6.81	-9.8914	-0.1924	-0.6726	-0.0000	-0.0166	-0.0441	24.0797	-4.6741	18.0314	0.6208	-0.3220	0.6553	0.2855
6.82	-9.8927	-0.1893	-0.6591	-0.0074	-0.0163	-0.0426	24.1366	-4.7601	18.3335	0.6209	-0.3220	0.6553	0.2856
6.83	-9.8967	-0.1862	-0.6595	-0.0071	-0.0165	-0.0390	24.1253	-4.7896	18.3375	0.6208	-0.3219	0.6552	0.2856
6.84	-9.8911	-0.1780	-0.6448	-0.0082	-0.0169	-0.0381	24.0869	-4.6420	18.3119	0.6208	-0.3219	0.6552	0.2856
6.85	-9.8885	-0.1792	-0.6552	-0.0122	-0.0205	-0.0358	24.0343	-4.5713	18.1731	0.6208	-0.3219	0.6552	0.2857
6.86	-9.8626	-0.1828	-0.6486	-0.0247	-0.0277	-0.0354	23.9381	-4.6902	18.4245	0.6208	-0.3219	0.6551	0.2858
6.87	-9.8589	-0.1995	-0.6430	-0.0255	-0.0248	-0.0364	24.0550	-4.6875	18.3287	0.6209	-0.3220	0.6551	0.2859
6.88	-9.8668	-0.2118	-0.6535	-0.0229	-0.0257	-0.0390	24.2729	-4.5537	18.1616	0.6209	-0.3220	0.6550	0.2860
6.89	-9.8382	-0.2020	-0.6486	-0.0169	-0.0243	-0.0371	24.1336	-4.6840	18.1611	0.6209	-0.3220	0.6550	0.2861
6.9	-9.8324	-0.2090	-0.6275	-0.0166	-0.0274	-0.0420	24.0252	-4.6867	18.5593	0.6209	-0.3220	0.6549	0.2862
6.91	-9.8885	-0.2132	-0.6229	-0.0045	-0.0272	-0.0424	24.0343	-4.6932	18.1279	0.6210	-0.3220	0.6549	0.2862
6.92	-9.8697	-0.2112	-0.6165	-0.0223	-0.0236	-0.0400	24.3778	-4.8496	18.2060	0.6210	-0.3220	0.6548	0.2863
6.93	-9.8616	-0.2286	-0.6001	-0.0185	-0.0293	-0.0440	24.3296	-4.8687	18.2613	0.6210	-0.3220	0.6547	0.2864
6.94	-9.8954	-0.2287	-0.5983	-0.0122	-0.0238	-0.0508	24.1756	-4.8563	18.2322	0.6211	-0.3220	0.6547	0.2864
6.95	-9.8765	-0.2342	-0.5900	-0.0165	-0.0241	-0.0426	24.2383	-4.8772	17.9783	0.6211	-0.3220	0.6546	0.2865
6.96	-9.8302	-0.2396	-0.5829	-0.0130	-0.0278	-0.0356	24.1409	-4.8185	18.4218	0.6211	-0.3220	0.6546	0.2865
6.97	-9.8404	-0.2196	-0.6001	-0.0102	-0.0209	-0.0381	24.0980	-4.6631	18.3299	0.6211	-0.3220	0.6545	0.2866
6.98	-9.8042	-0.1963	-0.5892	-0.0077	-0.0248	-0.0380	24.2522	-4.7113	18.2360	0.6212	-0.3220	0.6545	0.2867
6.99	-9.7941	-0.2031	-0.5897	-0.0197	-0.0166	-0.0393	24.1502	-4.7994	18.3598	0.6211	-0.3220	0.6545	0.2867
7	-9.8077	-0.2137	-0.5911	-0.0267	-0.0160	-0.0399	24.0990	-4.7491	18.3343	0.6211	-0.3221	0.6544	0.2868
7.01	-9.8068	-0.2193	-0.6064	-0.0279	-0.0112	-0.0463	24.2195	-4.8918	18.2199	0.6211	-0.3221	0.6544	0.2869
7.02	-9.8481	-0.2247	-0.6028	-0.0253	-0.0016	-0.0409	24.2132	-4.6996	18.4109	0.6210	-0.3222	0.6544	0.2869
7.03	-9.8614	-0.2300	-0.6007	-0.0297	-0.0098	-0.0324	24.1782	-4.5271	18.3510	0.6210	-0.3222	0.6544	0.2871
7.04	-9.8699	-0.2248	-0.6001	-0.0329	0.0021	-0.0354	24.0005	-4.7978	18.3907	0.6208	-0.3223	0.6543	0.2871
7.05	-9.8881	-0.2186	-0.6258	-0.0326	-0.0098	-0.0220	24.0612	-4.7549	18.5534	0.6208	-0.3224	0.6544	0.2873
7.06	-9.8626	-0.1963	-0.6156	-0.0338	-0.0166	-0.0211	24.1319	-4.6647	18.3280	0.6207	-0.3223	0.6544	0.2875
7.07	-9.8664	-0.1938	-0.6106	-0.0330	-0.0145	-0.0198	24.1254	-4.6998	18.3398	0.6207	-0.3224	0.6544	0.2877
7.08	-9.8421	-0.2063	-0.6075	-0.0335	-0.0148	-0.0183	24.1096	-4.6774	18.3137	0.6205	-0.3223	0.6543	0.2878
7.09	-9.8442	-0.2076	-0.6038	-0.0319	-0.0119	-0.0202	24.0275	-4.7010	18.3520	0.6205	-0.3224	0.6543	0.2880
7.1	-9.8446	-0.2239	-0.6099	-0.0341	-0.0150	-0.0173	24.1933	-5.0377	18.0825	0.6204	-0.3224	0.6543	0.2882
7.11	-9.8419	-0.2230	-0.6052	-0.0257	-0.0162	-0.0229	24.2281	-4.9739	18.1121	0.6203	-0.3223	0.6543	0.2883
7.12	-9.8600	-0.2054	-0.6144	-0.0111	-0.0078	-0.0315	24.1728	-4.8333	18.3814	0.6204	-0.3224	0.6544	0.2884
7.13	-9.8473	-0.1940	-0.6048	-0.0134	-0.0111	-0.0253	24.1449	-5.0284	18.1680	0.6203	-0.3223	0.6543	0.2885
7.14	-9.8568	-0.1934	-0.6035	-0.0080	-0.0118	-0.0331	24.2335	-5.0359	18.3684	0.6203	-0.3223	0.6544	0.2885
7.15	-9.8646	-0.1826	-0.6291	-0.0067	-0.0090	-0.0336	24.1277	-5.0502	18.2196	0.6202	-0.3222	0.6543	0.2885
7.16	-9.8604	-0.1742	-0.6233	-0.0091	-0.0040	-0.0353	24.0681	-4.9101	18.2771	0.6202	-0.3223	0.6544	0.2886
7.17	-9.8525	-0.1635	-0.6080	0.0013	-0.0141	-0.0365	23.9027	-5.0121	18.1596	0.6202	-0.3222	0.6544	0.2886
7.18	-9.8869	-0.1598	-0.6158	0.0107	-0.0126	-0.0376	23.9410	-4.7644	18.2228	0.6202	-0.3221	0.6544	0.2886
7.19	-9.8878	-0.1601	-0.6075	0.0148	-0.0158	-0.0424	24.0508	-4.8891	18.2374	0.6203	-0.3221	0.6545	0.2885
7.2	-9.8762	-0.1653	-0.6110	0.0163	-0.0109	-0.0445	24.1152	-4.9444	18.2804	0.6203	-0.3220	0.6545	0.2885
7.21	-9.8390	-0.1457	-0.6092	0.0128	-0.0089	-0.0573	23.9815	-4.8202	18.3199	0.6204	-0.3220	0.6545	0.2884
7.22	-9.8264	-0.1336	-0.6142	0.0125	-0.0108	-0.0556	24.0768	-4.9057	18.0933	0.6203	-0.3220	0.6544	0.2882
7.23	-9.8347	-0.1337	-0.6100	0.0069	-0.0152	-0.0543	23.8623	-4.7121	18.3103	0.6204	-0.3220	0.6545	0.2882
7.24	-9.8515	-0.1397	-0.5999	-0.0059	-0.0051	-0.0602	24.0766	-4.8722	18.2928	0.6204	-0.3220	0.6545	0.2881
7.25	-9.8558	-0.1580	-0.6037	-0.0051	-0.0038	-0.0574	24.1020	-4.7756	18.2037	0.6204	-0.3221	0.6545	0.2881
7.26	-9.8610	-0.1673	-0.5958	-0.0137	-0.0002	-0.0605	24.3334	-4.8012	18.3590	0.6204	-0.3222	0.6545	0.2880
7.27	-9.9092	-0.1734	-0.6150	-0.0079	-0.0081	-0.0569	24.4890	-4.5708	18.3084	0.6204	-0.3222	0.6545	0.2880
7.28	-9.8744	-0.2165	-0.6154	-0.0146	-0.0145	-0.0579	24.3536	-4.5839	18.3654	0.6204	-0.3223	0.6544	0.2880
7.29	-9.8537	-0.2281	-0.6112	-0.0167	-0.0146	-0.0506	24.4287	-4.9613	18.4008	0.6204	-0.3223	0.6543	0.2880
7.3	-9.8443	-0.2316	-0.6233	-0.0169	-0.0064	-0.0411	24.0637	-4.7983	18.2060	0.6204	-0.3224	0.6544	0.2881
7.31	-9.7976	-0.2287	-0.6424	-0.0268	0.0013	-0.0392	24.3106	-5.0138	18.1334	0.6203	-0.3225	0.6544	0.2881
7.32	-9.7959	-0.2335	-0.6404	-0.0189	-0.0054	-0.0365	24.0981	-5.0755	18.1942	0.6203	-0.3225	0.6544	0.2882
7.33	-9.8227	-0.2175	-0.6616	-0.0116	-0.0029	-0.0418	24.0841	-4.9553	18.4566	0.6202	-0.3225	0.6544	0.2882
7.34	-9.8346	-0.2178	-0.6604	-0.0128	-0.0110	-0.0387	24.1650	-4.9513	18.3865	0.6202	-0.3225	0.6544	0.2883
7.35	-9.8320	-0.2226	-0.6516	-0.0199	-0.0020	-0.0425	24.0560	-4.8253	18.1068	0.6201	-0.3226	0.6544	0.2883
7.36	-9.8513	-0.2228	-0.6615	-0.0111	-0.0003	-0.0462	24.0875	-4.9882	18.2457	0.6201	-0.3226	0.6544	0.2883
7.37	-9.8595	-0.2309	-0.6484	-0.0153	-0.0031	-0.0507	23.9982	-4.9334	18.2243	0.6201	-0.3227	0.6545	0.2883
7.38	-9.8578	-0.2206	-0.6766	-0.0071	-0.0013	-0.0465	24.2214	-5.0270	18.2759	0.6200	-0.3227	0.6544	0.2883
7.39	-9.8596	-0.2144	-0.6789	-0.0040	-0.0040	-0.0455	23.8938	-5.0065	18.3599	0.6200	-0.3228	0.6545	0.2883
7.4	-9.8596	-0.1940	-0.6743	-0.0058	-0.0060	-0.0464	23.9701	-4.8724	18.3050	0.6199	-0.3227	0.6544	0.2882
7.41	-9.8649	-0.1823	-0.6789	-0.0064	0.0044	-0.0504	24.1556	-4.7381	18.2333	0.6200	-0.3228	0.6545	0.2882
7.42	-9.8604	-0.1885	-0.6832	-0.0112	-0.0054	-0.0447	23.9414	-4.7297	18.2082	0.6199	-0.3229	0.6545	0.2882
7.43	-9.8778	-0.1956	-0.6858	-0.0101	-0.0020	-0.0516	23.9497	-4.8299	18.3237	0.6199	-0.3229	0.6545	0.2882
7.44	-9.8654	-0.2081	-0.6852	-0.0195	-0.0091	-0.0432	24.2011	-4.6660	18.3163	0.6199	-0.3230	0.6545	0.2883
7.45	-9.8737	-0.2036	-0.6792	-0.0247	-0.0016	-0.0461	24.0571	-4.5936	18.3478	0.6198	-0.3230	0.6545	0.2883
7.46	-9.8795	-0.2284	-0.6930	-0.0254	-0.0106	-0.0397	24.0592	-4.6513	18.4547	0.6198	-0.3231	0.6545	0.2884
7.47	-9.8536	-0.2313	-0.6982	-0.0155	-0.0172	-0.0376	23.8634	-4.8719	18.3236	0.6197	-0.3231	0.6544	0.2884
7.48	-9.8691	-0.2137	-0.6877	-0.0117	-0.0170	-0.0371	24.0397	-5.1140	18.0994	0.6198	-0.3231	0.6545	0.2885
7.49	-9.9014	-0.2146	-0.6867	-0.0160	-0.0208	-0.0333	24.0923	-5.2783	18.2143	0.6197	-0.3231	0.6544	0.2886
7.5	-9.8754	-0.2188	-0.6845	-0.0059	-0.0144	-0.0367	24.0624	-4.8628	18.2571	0.6198	-0.3231	0.6544	0.2886
7.51	-9.8744	-0.2278	-0.6754	-0.0090	-0.0189	-0.0393	24.1918	-4.8922	18.1276	0.6197	-0.3230	0.6544	0.2887
7.52	-9.8948	-0.2364	-0.6652	-0.0059	-0.0216	-0.0371	24.1434	-4.9598	18.2831	0.6198	-0.3230	0.6544	0.2887
7.53	-9.8675	-0.2255	-0.6708	0.0036	-0.0277	-0.0335	24.0376	-5.0238	18.3747	0.6198	-0.3229	0.6544	0.2888
7.54	-9.8665	-0.2266	-0.6636	0.0045	-0.0253	-0.0321	24.1925	-5.0595	18.2041	0.6198	-0.3228	0.6543	0.2888
7.55	-9.8914	-0.1969	-0.6542	0.0194	-0.0217	-0.0342	24.0438	-4.9644	18.3944	0.6200	-0.3227	0.6544	0.2888
7.56	-9.8648	-0.1794	-0.6603	0.0169	-0.0250	-0.0327	23.9908	-4.9166	18.2077	0.6200	-0.3226	0.6543	0.2887
7.57	-9.8506	-0.1816	-0.6473	0.0055	-0.0273	-0.0412	24.2076	-4.8814	18.1741	0.6201	-0.3226	0.6544	0.2888
7.58	-9.8546	-0.1772	-0.6469	0.0104	-0.0232	-0.0440	24.0567	-4.7649	18.3564	0.6201	-0.3225	0.6543	0.2887
7.59	-9.8313	-0.1743	-0.6386	0.0124	-0.0244	-0.0457	23.9958	-4.8385	18.3168	0.6202	-0.3224	0.6543	0.2887
7.6	-9.8389	-0.1693	-0.6456	0.0008	-0.0237	-0.0497	24.1365	-4.8261	18.3029	0.6202	-0.3224	0.6543	0.2887
7.61	-9.8622	-0.1702	-0.6308	0.0107	-0.0259	-0.0453	23.9640	-4.8361	18.1127	0.6203	-0.3223	0.6542	0.2886
7.62	-9.8532	-0.1736	-0.6079	0.0064	-0.0189	-0.0404	24.1186	-5.0034	18.1721	0.6204	-0.3223	0.6543	0.2886
7.63	-9.8586	-0.1758	-0.6260	0.0064	-0.0156	-0.0366	24.0321	-4.8021	18.1056	0.6204	-0.3222	0.6542	0.2886
7.64	-9.8617	-0.1759	-0.6144	0.0033	-0.0129	-0.0376	23.9798	-5.0041	18.2343	0.6204	-0.3222	0.6543	0.2886
7.65	-9.8589	-0.1913	-0.6199	-0.0026	-0.0170	-0.0371	23.9897	-4.7670	18.2250	0.6204	-0.3221	0.6542	0.2886
7.66	-9.8502	-0.1799	-0.6058	-0.0049	-0.0191	-0.0336	24.1196	-4.8112	18.1436	0.6204	-0.3221	0.6543	0.2887
7.67	-9.8550	-0.1913	-0.6072	-0.0065	-0.0194	-0.0357	24.1919	-4.9021	18.2709	0.6204	-0.3220	0.6542	0.2887
7.68	-9.8609	-0.1904	-0.6062	-0.0070	-0.0154	-0.0368	24.1563	-4.8580	18.2153	0.6204	-0.3220	0.6542	0.2887
7.69	-9.8694	-0.1920	-0.6132	-0.0064	-0.0138	-0.0348	24.1822	-4.8883	18.2529	0.6204	-0.3220	0.6542	0.2888
7.7	-9.8560	-0.1995	-0.6153	0.0022	-0.0171	-0.0349	24.2900	-4.9919	18.0800	0.6204	-0.3219	0.6542	0.2888
7.71	-9.8587	-0.1910	-0.6092	-0.0034	-0.0228	-0.0336	24.2035	-4.9132	18.0446	0.6205	-0.3219	0.6542	0.2889
7.72	-9.8567	-0.1882	-0.6145	-0.0013	-0.0205	-0.0368	24.0809	-4.7672	18.0523	0.6204	-0.3218	0.6542	0.2888
7.73	-9.8592	-0.1892	-0.6141	-0.0023	-0.0210	-0.0397	23.8587	-4.9172	18.0445	0.6205	-0.3218	0.6542	0.2889
7.74	-9.8478	-0.1831	-0.6059	0.0006	-0.0233	-0.0394	23.9522	-4.9854	18.2333	0.6205	-0.3218	0.6542	0.2889
7.75	-9.8634	-0.1701	-0.5916	0.0079	-0.0204	-0.0422	24.0563	-4.9454	18.2175	0.6206	-0.3217	0.6542	0.2889
7.76	-9.8675	-0.1737	-0.6009	0.0080	-0.0168	-0.0459	24.2810	-4.9939	18.3541	0.6206	-0.3217	0.6541	0.2888
7.77	-9.8180	-0.1739	-0.5968	0.0002	-0.0140	-0.0531	24.3777	-4.6519	18.5491	0.6206	-0.3217	0.6542	0.2888
7.78	-9.8162	-0.1705	-0.5890	0.0105	-0.0218	-0.0494	24.3144	-4.6490	18.4852	0.6207	-0.3216	0.6541	0.2888
7.79	-9.8328	-0.1740	-0.5801	0.0072	-0.0148	-0.0508	24.2475	-4.8079	18.4266	0.6207	-0.3216	0.6541	0.2887
7.8	-9.8606	-0.1681	-0.5764	-0.0021	-0.0170	-0.0473	24.1014	-4.7674	18.2408	0.6208	-0.3216	0.6541	0.2887
7.81	-9.8464	-0.1826	-0.5692	-0.0060	-0.0088	-0.0552	24.0671	-4.8386	18.1440	0.6208	-0.3217	0.6541	0.2887
7.82	-9.8871	-0.1786	-0.5603	-0.0068	-0.0105	-0.0551	24.2593	-4.7624	18.2189	0.6208	-0.3217	0.6541	0.2887
7.83	-9.9282	-0.1906	-0.5723	-0.0120	-0.0156	-0.0516	24.1194	-4.9049	17.9360	0.6208	-0.3217	0.6540	0.2886
7.84	-9.8926	-0.2288	-0.5695	-0.0118	-0.0204	-0.0503	24.1574	-4.7503	18.0527	0.6208	-0.3218	0.6540	0.2886
7.85	-9.8856	-0.2343	-0.5727	-0.0141	-0.0242	-0.0402	24.1038	-4.8670	18.1983	0.6208	-0.3218	0.6540	0.2887
7.86	-9.8502	-0.2302	-0.5757	-0.0127	-0.0217	-0.0365	24.3035	-4.8315	18.2260	0.6208	-0.3218	0.6539	0.2888
7.87	-9.8179	-0.2444	-0.5752	-0.0052	-0.0219	-0.0337	24.3372	-4.7331	18.2985	0.6209	-0.3218	0.6540	0.2888
7.88	-9.8028	-0.2124	-0.5788	-0.0063	-0.0134	-0.0344	24.4388	-5.0493	17.9187	0.6208	-0.3217	0.6539	0.2889
7.89	-9.8200	-0.1942	-0.5925	-0.0058	-0.0166	-0.0329	24.3307	-5.1517	17.9536	0.6209	-0.3217	0.6540	0.2889
7.9	-9.8205	-0.1867	-0.5967	-0.0079	-0.0145	-0.0369	24.3169	-4.7631	18.0912	0.6208	-0.3216	0.6539	0.2889
7.91	-9.8210	-0.1890	-0.5905	-0.0054	-0.0161	-0.0392	24.0867	-4.8920	17.9645	0.6209	-0.3216	0.6539	0.2890
7.92	-9.8262	-0.1865	-0.5997	-0.0037	-0.0121	-0.0472	24.3855	-4.9321	18.1700	0.6209	-0.3216	0.6539	0.2890
7.93	-9.8374	-0.1900	-0.6155	0.0029	-0.0028	-0.0490	24.3612	-4.9351	18.1817	0.6208	-0.3216	0.6539	0.2889
7.94	-9.8587	-0.1767	-0.6176	0.0019	-0.0009	-0.0423	24.1013	-4.6568	18.0569	0.6208	-0.3216	0.6540	0.2889
7.95	-9.8611	-0.1704	-0.6262	-0.0090	-0.0020	-0.0510	24.1553	-4.7420	18.2244	0.6208	-0.3217	0.6540	0.2889
7.96	-9.8602	-0.1764	-0.6290	-0.0060	0.0041	-0.0476	23.9181	-4.8715	18.0617	0.6208	-0.3217	0.6540	0.2888
7.97	-9.8711	-0.1693	-0.6412	-0.0096	0.0002	-0.0470	24.1445	-4.8898	18.1933	0.6207	-0.3217	0.6540	0.2888
7.98	-9.8761	-0.1732	-0.6441	-0.0109	0.0053	-0.0458	24.2431	-4.8784	17.9089	0.6207	-0.3218	0.6541	0.2888
7.99	-9.8797	-0.1752	-0.6586	-0.0217	-0.0019	-0.0452	24.2333	-4.7221	18.1110	0.6206	-0.3219	0.6541	0.2888
8	-9.8899	-0.1817	-0.6624	-0.0152	-0.0013	-0.0468	24.1781	-4.7031	18.1678	0.6206	-0.3220	0.6541	0.2889
8.01	-9.8804	-0.1931	-0.6798	-0.0180	-0.0093	-0.0391	24.0110	-4.7009	18.2822	0.6205	-0.3220	0.6540	0.2889
8.02	-9.8999	-0.1973	-0.6713	-0.0164	-0.0092	-0.0384	24.2287	-4.7252	18.1995	0.6205	-0.3220	0.6540	0.2890
8.03	-9.9023	-0.2149	-0.6640	-0.0220	-0.0196	-0.0361	24.3697	-4.8404	18.2326	0.6205	-0.3220	0.6540	0.2891
8.04	-9.8679	-0.2223	-0.6599	-0.0072	-0.0206	-0.0382	24.2019	-4.6699	18.1849	0.6205	-0.3220	0.6539	0.2891
8.05	-9.8733	-0.2165	-0.6651	-0.0067	-0.0156	-0.0370	24.3552	-4.9428	18.1722	0.6205	-0.3220	0.6540	0.2892
8.06	-9.8795	-0.2015	-0.6641	-0.0073	-0.0241	-0.0385	24.4222	-4.9532	18.1391	0.6205	-0.3220	0.6539	0.2892
8.07	-9.8575	-0.2151	-0.6445	-0.0042	-0.0204	-0.0422	24.3962	-5.0486	18.0579	0.6206	-0.3220	0.6540	0.2892
8.08	-9.8547	-0.2185	-0.6508	0.0009	-0.0190	-0.0407	24.4253	-4.9812	18.0909	0.6206	-0.3219	0.6539	0.2892
8.09	-9.8682	-0.2098	-0.6389	-0.0008	-0.0224	-0.0375	24.1368	-4.8330	18.2011	0.6206	-0.3219	0.6539	0.2893
8.1	-9.8762	-0.2058	-0.6424	-0.0056	-0.0224	-0.0383	24.1950	-4.9538	18.1100	0.6207	-0.3218	0.6538	0.2893
8.11	-9.8668	-0.1930	-0.6366	0.0128	-0.0219	-0.0331	24.2407	-4.9889	18.0572	0.6207	-0.3217	0.6538	0.2893
8.12	-9.8666	-0.1794	-0.6375	0.0169	-0.0278	-0.0342	24.2267	-4.7638	18.1954	0.6208	-0.3216	0.6539	0.2893
8.13	-9.8634	-0.1834	-0.6231	0.0020	-0.0306	-0.0346	24.2194	-4.9439	18.0089	0.6208	-0.3215	0.6538	0.2893
8.14	-9.8378	-0.1564	-0.6336	0.0064	-0.0275	-0.0412	24.0309	-4.7776	18.2204	0.6210	-0.3215	0.6538	0.2893
8.15	-9.8152	-0.1493	-0.6132	-0.0043	-0.0224	-0.0457	24.1368	-4.8913	18.3840	0.6209	-0.3214	0.6537	0.2893
8.16	-9.8670	-0.1936	-0.6407	-0.0015	-0.0210	-0.0500	24.3730	-4.8664	18.0977	0.6210	-0.3215	0.6537	0.2893
8.17	-9.8409	-0.1799	-0.6060	0.0010	-0.0230	-0.0423	24.2499	-4.9124	18.2653	0.6211	-0.3214	0.6537	0.2893
8.18	-9.8677	-0.2062	-0.6311	-0.0048	-0.0244	-0.0397	24.2156	-4.7730	18.1875	0.6211	-0.3214	0.6536	0.2893
8.19	-9.8585	-0.1912	-0.5960	-0.0035	-0.0217	-0.0383	24.2436	-4.9185	18.1518	0.6211	-0.3214	0.6536	0.2894
8.2	-9.8937	-0.1858	-0.6319	-0.0094	-0.0250	-0.0438	24.0736	-4.9419	18.2018	0.6212	-0.3213	0.6535	0.2894
8.21	-9.8617	-0.1906	-0.5990	-0.0084	-0.0328	-0.0354	24.2652	-4.6638	18.3134	0.6212	-0.3213	0.6535	0.2895
8.22	-9.8995	-0.1764	-0.6092	-0.0062	-0.0307	-0.0320	24.0379	-4.7984	18.0562	0.6212	-0.3212	0.6534	0.2895
8.23	-9.8607	-0.1617	-0.5858	-0.0080	-0.0322	-0.0334	23.9621	-4.9165	18.0904	0.6213	-0.3212	0.6534	0.2897
8.24	-9.8542	-0.1878	-0.6000	-0.0092	-0.0361	-0.0375	24.4122	-4.8221	18.2142	0.6214	-0.3212	0.6533	0.2897
8.25	-9.8617	-0.1716	-0.5919	-0.0067	-0.0355	-0.0335	24.3866	-4.7839	18.1114	0.6214	-0.3211	0.6533	0.2898
8.26	-9.8478	-0.1863	-0.5862	-0.0078	-0.0358	-0.0348	24.5875	-4.7892	18.4198	0.6215	-0.3210	0.6532	0.2899
8.27	-9.8476	-0.1749	-0.5805	-0.0068	-0.0322	-0.0346	24.9978	-4.6743	18.2669	0.6215	-0.3210	0.6531	0.2899
8.28	-9.8540	-0.1863	-0.5781	-0.0070	-0.0357	-0.0378	24.7771	-4.7214	18.1481	0.6216	-0.3210	0.6531	0.2900
8.29	-9.8401	-0.1722	-0.5791	-0.0069	-0.0332	-0.0353	24.3546	-4.9020	18.0826	0.6216	-0.3209	0.6529	0.2901
8.3	-9.8304	-0.1639	-0.5688	-0.0089	-0.0330	-0.0355	24.0355	-4.9093	18.0850	0.6218	-0.3209	0.6530	0.2902
8.31	-9.8778	-0.1720	-0.5700	-0.0005	-0.0243	-0.0434	23.9286	-4.9361	17.9979	0.6218	-0.3208	0.6529	0.2902
8.32	-9.8624	-0.1553	-0.5727	-0.0005	-0.0298	-0.0409	24.1317	-4.9843	17.9719	0.6219	-0.3208	0.6529	0.2902
8.33	-9.8138	-0.1642	-0.5640	-0.0080	-0.0316	-0.0461	24.0866	-4.9572	18.2799	0.6219	-0.3208	0.6527	0.2902
8.34	-9.8312	-0.1377	-0.5576	-0.0064	-0.0198	-0.0468	24.1283	-4.8503	18.1854	0.6219	-0.3208	0.6527	0.2902
8.35	-9.8394	-0.1436	-0.5541	-0.0071	-0.0260	-0.0451	24.0549	-4.7270	18.1085	0.6220	-0.3208	0.6527	0.2903
8.36	-9.8142	-0.1666	-0.5446	-0.0087	-0.0182	-0.0453	23.9825	-4.6599	18.1565	0.6220	-0.3208	0.6526	0.2903
8.37	-9.8161	-0.1739	-0.5387	-0.0126	-0.0134	-0.0420	24.1534	-5.0391	18.0087	0.6220	-0.3208	0.6527	0.2903
8.38	-9.8836	-0.1773	-0.5461	-0.0262	-0.0139	-0.0430	24.0437	-4.8835	17.9497	0.6220	-0.3209	0.6526	0.2904
8.39	-9.8763	-0.1866	-0.5323	-0.0233	-0.0146	-0.0441	24.2757	-4.7087	17.9208	0.6220	-0.3209	0.6526	0.2905
8.4	-9.8563	-0.2052	-0.5412	-0.0236	-0.0137	-0.0382	24.2121	-4.5977	18.1349	0.6219	-0.3209	0.6525	0.2905
8.41	-9.8621	-0.2159	-0.5395	-0.0294	-0.0167	-0.0355	23.9616	-4.8581	18.2490	0.6219	-0.3210	0.6525	0.2907
8.42	-9.8411	-0.2168	-0.5420	-0.0251	-0.0184	-0.0288	24.4190	-5.0397	18.0418	0.6218	-0.3210	0.6525	0.2908
8.43	-9.8164	-0.2053	-0.5475	-0.0255	-0.0214	-0.0203	24.4971	-5.0720	18.0724	0.6218	-0.3210	0.6524	0.2909
8.44	-9.8071	-0.1879	-0.5700	-0.0147	-0.0124	-0.0275	24.2517	-4.9371	17.9202	0.6218	-0.3210	0.6525	0.2910
8.45	-9.7846	-0.1904	-0.5702	-0.0181	-0.0148	-0.0313	24.1667	-4.8758	18.0007	0.6217	-0.3210	0.6524	0.2911
8.46	-9.8074	-0.1913	-0.5680	-0.0086	0.0003	-0.0337	24.2594	-5.0682	18.0531	0.6217	-0.3210	0.6525	0.2912
8.47	-9.8214	-0.1867	-0.5693	-0.0069	0.0046	-0.0337	24.3090	-4.9720	18.1268	0.6216	-0.3209	0.6525	0.2911
8.48	-9.8191	-0.1805	-0.5716	-0.0038	0.0095	-0.0348	24.1462	-4.9408	18.1507	0.6216	-0.3210	0.6526	0.2912
8.49	-9.8510	-0.1725	-0.5764	0.0012	0.0124	-0.0403	24.1013	-4.8718	17.9513	0.6215	-0.3210	0.6527	0.2911
8.5	-9.8536	-0.1553	-0.5735	0.0079	0.0047	-0.0338	24.0999	-5.1090	17.9786	0.6214	-0.3209	0.6528	0.2911
8.51	-9.8614	-0.1435	-0.5903	0.0023	0.0097	-0.0374	24.1155	-4.8346	17.8272	0.6213	-0.3209	0.6528	0.2910
8.52	-9.8846	-0.1246	-0.6012	0.0023	0.0086	-0.0403	24.2108	-4.6794	17.9034	0.6213	-0.3209	0.6529	0.2910
8.53	-9.8857	-0.1257	-0.5873	-0.0058	0.0034	-0.0445	24.2051	-4.6966	18.1503	0.6213	-0.3210	0.6530	0.2910
8.54	-9.8860	-0.1171	-0.5948	-0.0083	0.0071	-0.0375	24.1188	-4.7763	18.1197	0.6211	-0.3210	0.6530	0.2909
8.55	-9.8838	-0.1152	-0.5988	-0.0081	0.0044	-0.0432	23.9936	-4.9029	18.1507	0.6211	-0.3210	0.6531	0.2910
8.56	-9.8825	-0.1344	-0.5849	-0.0119	0.0003	-0.0395	23.8805	-4.7162	17.9469	0.6210	-0.3210	0.6531	0.2910
8.57	-9.8743	-0.1480	-0.5877	-0.0167	0.0003	-0.0377	24.0753	-4.6928	18.0040	0.6210	-0.3211	0.6532	0.2910
8.58	-9.8663	-0.1543	-0.5843	-0.0281	-0.0002	-0.0381	24.1431	-4.7891	18.1542	0.6209	-0.3211	0.6531	0.2911
8.59	-9.8579	-0.1697	-0.5882	-0.0223	-0.0020	-0.0346	23.9375	-4.8061	18.1216	0.6208	-0.3212	0.6532	0.2912
8.6	-9.8480	-0.1787	-0.5736	-0.0227	0.0003	-0.0346	23.9875	-5.1293	17.9540	0.6208	-0.3212	0.6532	0.2912
8.61	-9.8704	-0.1855	-0.5852	-0.0305	0.0026	-0.0335	24.3291	-5.1415	18.0332	0.6206	-0.3213	0.6532	0.2913
8.62	-9.9019	-0.2052	-0.6017	-0.0257	0.0008	-0.0371	24.1448	-5.1520	18.0710	0.6206	-0.3214	0.6533	0.2914
8.63	-9.8743	-0.2178	-0.6132	-0.0265	0.0040	-0.0367	24.1218	-4.9711	18.0152	0.6205	-0.3214	0.6532	0.2915
8.64	-9.9015	-0.2195	-0.6170	-0.0168	0.0112	-0.0335	24.2762	-5.0271	17.8875	0.6204	-0.3215	0.6534	0.2915
8.65	-9.9337	-0.2221	-0.6149	-0.0253	0.0052	-0.0206	24.3093	-5.0681	18.2655	0.6202	-0.3215	0.6533	0.2916
8.66	-9.9281	-0.2102	-0.6157	-0.0203	-0.0114	-0.0099	24.1184	-4.9329	18.2045	0.6202	-0.3215	0.6534	0.2918
8.67	-9.9199	-0.1819	-0.6140	-0.0244	-0.0146	-0.0089	24.0042	-5.1655	17.9272	0.6201	-0.3214	0.6534	0.2919
8.68	-9.9158	-0.1683	-0.6094	-0.0201	-0.0189	-0.0015	24.2396	-5.0563	18.0384	0.6200	-0.3213	0.6534	0.2921
8.69	-9.8875	-0.1544	-0.5990	-0.0170	-0.0255	0.0065	24.0660	-5.0523	18.1552	0.6200	-0.3212	0.6535	0.2923
8.7	-9.8524	-0.1391	-0.5974	-0.0205	-0.0319	0.0022	24.0122	-5.0510	17.9958	0.6200	-0.3210	0.6534	0.2926
8.71	-9.8040	-0.1529	-0.5931	-0.0119	-0.0327	-0.0007	24.0005	-5.0712	18.1343	0.6200	-0.3209	0.6535	0.2928
8.72	-9.7840	-0.1576	-0.5730	-0.0095	-0.0269	-0.0061	24.1183	-4.9546	18.1282	0.6199	-0.3207	0.6534	0.2929
8.73	-9.8001	-0.1456	-0.5715	-0.0068	-0.0225	-0.0030	23.8744	-5.0828	18.2691	0.6199	-0.3206	0.6535	0.2931
8.74	-9.8183	-0.1302	-0.5778	-0.0020	-0.0217	-0.0064	23.9934	-5.1734	18.1744	0.6199	-0.3205	0.6535	0.2932
8.75	-9.8290	-0.1021	-0.5736	0.0018	-0.0177	-0.0016	23.9975	-5.0733	18.1235	0.6199	-0.3203	0.6536	0.2933
8.76	-9.8678	-0.0796	-0.5860	-0.0022	-0.0138	-0.0048	24.2960	-4.9368	18.2213	0.6198	-0.3202	0.6536	0.2934
8.77	-9.8799	-0.0617	-0.5834	-0.0057	-0.0154	-0.0002	24.4215	-5.1164	18.5405	0.6198	-0.3200	0.6537	0.2936
8.78	-9.8908	-0.0483	-0.5796	-0.0035	-0.0192	-0.0035	24.2814	-5.1134	18.3753	0.6197	-0.3199	0.6537	0.2937
8.79	-9.9003	-0.0372	-0.5761	-0.0015	-0.0235	-0.0076	24.2556	-4.9479	18.1097	0.6197	-0.3197	0.6537	0.2938
8.8	-9.8775	-0.0392	-0.5862	-0.0042	-0.0189	0.0002	24.0240	-5.0422	18.0851	0.6197	-0.3196	0.6538	0.2940
8.81	-9.8687	-0.0359	-0.5859	-0.0080	-0.0217	-0.0085	23.9479	-5.1580	18.0165	0.6197	-0.3195	0.6538	0.2941
8.82	-9.8599	-0.0367	-0.5809	-0.0027	-0.0238	-0.0067	23.9087	-5.3467	18.1305	0.6197	-0.3194	0.6539	0.2943
8.83	-9.8499	-0.0338	-0.5723	0.0050	-0.0280	-0.0089	24.1517	-5.3048	18.0692	0.6196	-0.3192	0.6538	0.2943
8.84	-9.8309	-0.0363	-0.5711	0.0025	-0.0266	-0.0092	24.1847	-5.4756	18.1150	0.6197	-0.3190	0.6539	0.2944
8.85	-9.8250	-0.0225	-0.5771	0.0032	-0.0215	-0.0081	24.1120	-5.4800	18.0811	0.6197	-0.3189	0.6539	0.2945
8.86	-9.8138	-0.0129	-0.5788	0.0106	-0.0126	-0.0163	24.0420	-5.2883	18.1096	0.6196	-0.3187	0.6539	0.2946
8.87	-9.7955	-0.0071	-0.5662	0.0131	-0.0168	-0.0307	23.9383	-5.5548	18.0750	0.6197	-0.3187	0.6540	0.2946
8.88	-9.8726	0.0070	-0.5631	0.0196	-0.0047	-0.0294	23.8908	-5.3125	17.9897	0.6197	-0.3185	0.6540	0.2945
8.89	-9.8719	0.0054	-0.5679	0.0157	-0.0056	-0.0359	23.8920	-5.4137	17.9904	0.6197	-0.3185	0.6541	0.2945
8.9	-9.8289	0.0184	-0.5638	0.0131	-0.0021	-0.0407	23.9725	-5.3335	18.0905	0.6196	-0.3184	0.6541	0.2944
8.91	-9.8429	0.0309	-0.5703	0.0153	0.0012	-0.0491	23.8001	-5.2133	18.3229	0.6197	-0.3184	0.6542	0.2943
8.92	-9.8407	0.0361	-0.5707	0.0016	-0.0054	-0.0501	24.0963	-5.2497	18.2284	0.6197	-0.3184	0.6542	0.2943
8.93	-9.8472	0.0265	-0.5642	0.0019	-0.0023	-0.0562	24.0897	-5.2326	18.0818	0.6197	-0.3184	0.6542	0.2942
8.94	-9.8405	0.0206	-0.5631	-0.0015	-0.0007	-0.0490	23.6903	-5.2426	18.0975	0.6197	-0.3184	0.6543	0.2942
8.95	-9.8729	0.0157	-0.5622	-0.0037	0.0028	-0.0574	23.9646	-5.2449	18.3429	0.6196	-0.3185	0.6543	0.2941
8.96	-9.8919	0.0053	-0.5694	-0.0081	0.0028	-0.0552	23.8418	-5.4312	18.1948	0.6196	-0.3186	0.6544	0.2940
8.97	-9.8568	-0.0268	-0.5653	-0.0209	-0.0047	-0.0453	23.9959	-5.3260	18.1135	0.6195	-0.3186	0.6543	0.2940
8.98	-9.8704	-0.0477	-0.5730	-0.0213	-0.0021	-0.0407	24.4951	-5.3208	17.9421	0.6195	-0.3187	0.6544	0.2941
8.99	-9.8584	-0.0517	-0.5885	-0.0296	-0.0067	-0.0437	24.1133	-5.4923	18.1194	0.6194	-0.3188	0.6543	0.2942
9	-9.8315	-0.0711	-0.5995	-0.0279	0.0010	-0.0467	24.2011	-5.4971	18.2282	0.6194	-0.3189	0.6543	0.2943
9.01	-9.8260	-0.0557	-0.6162	-0.0225	-0.0027	-0.0408	24.1245	-5.5143	18.0780	0.6193	-0.3189	0.6543	0.2943
9.02	-9.8290	-0.0448	-0.6207	-0.0173	-0.0073	-0.0452	23.8497	-5.4694	18.2185	0.6193	-0.3190	0.6543	0.2943
9.03	-9.8384	-0.0497	-0.6169	-0.0080	0.0093	-0.0491	23.8705	-5.2016	17.9636	0.6192	-0.3191	0.6544	0.2943
9.04	-9.8412	-0.0563	-0.6154	-0.0125	0.0070	-0.0581	23.8071	-5.3395	18.0965	0.6191	-0.3191	0.6543	0.2942
9.05	-9.8545	-0.0639	-0.6171	-0.0064	0.0053	-0.0630	24.1167	-5.4128	18.1931	0.6192	-0.3193	0.6544	0.2942
9.06	-9.8666	-0.0689	-0.6274	-0.0067	0.0055	-0.0609	24.0482	-5.2909	18.2109	0.6191	-0.3193	0.6544	0.2941
9.07	-9.8828	-0.0745	-0.6393	-0.0043	0.0118	-0.0631	24.1059	-5.3649	18.3336	0.6191	-0.3194	0.6545	0.2940
9.08	-9.8901	-0.0698	-0.6301	-0.0069	0.0152	-0.0684	24.0404	-5.1229	18.1351	0.6190	-0.3195	0.6545	0.2939
9.09	-9.8976	-0.0787	-0.6446	-0.0018	0.0040	-0.0708	23.6745	-5.2900	18.1158	0.6190	-0.3197	0.6545	0.2938
9.1	-9.8991	-0.0757	-0.6433	-0.0058	-0.0035	-0.0617	24.0300	-5.3457	18.2039	0.6190	-0.3197	0.6545	0.2937
9.11	-9.8933	-0.0805	-0.6458	-0.0134	-0.0080	-0.0584	24.0178	-5.3056	18.1766	0.6189	-0.3198	0.6544	0.2937
9.12	-9.8837	-0.0897	-0.6435	-0.0082	-0.0048	-0.0566	24.0503	-5.3549	18.2778	0.6190	-0.3199	0.6545	0.2937
9.13	-9.8840	-0.1064	-0.6402	-0.0254	-0.0119	-0.0513	23.9879	-5.2672	18.3202	0.6189	-0.3200	0.6544	0.2937
9.14	-9.8748	-0.1124	-0.6391	-0.0204	-0.0109	-0.0511	23.9141	-5.2507	18.3474	0.6190	-0.3200	0.6544	0.2938
9.15	-9.8538	-0.1157	-0.6326	-0.0133	-0.0125	-0.0482	24.0333	-5.1249	18.1300	0.6189	-0.3201	0.6543	0.2937
9.16	-9.8255	-0.1190	-0.6161	-0.0139	-0.0214	-0.0385	24.0453	-5.3090	18.2340	0.6189	-0.3201	0.6543	0.2938
9.17	-9.8249	-0.1164	-0.6100	-0.0093	-0.0152	-0.0383	24.1527	-5.2618	18.2792	0.6189	-0.3201	0.6543	0.2939
9.18	-9.8289	-0.1118	-0.6109	-0.0026	-0.0118	-0.0389	24.0843	-5.3029	18.2876	0.6189	-0.3200	0.6543	0.2939
9.19	-9.8590	-0.1051	-0.6108	0.0100	0.0050	-0.0399	24.2483	-5.3246	18.2566	0.6189	-0.3200	0.6544	0.2938
9.2	-9.8718	-0.0829	-0.6103	0.0149	-0.0004	-0.0393	24.1550	-5.3545	18.1898	0.6189	-0.3200	0.6545	0.2938
9.21	-9.8900	-0.0709	-0.6065	0.0173	-0.0018	-0.0431	24.1202	-5.2020	18.1192	0.6189	-0.3199	0.6546	0.2937
9.22	-9.8828	-0.0556	-0.6014	0.0178	-0.0050	-0.0411	24.0422	-5.1236	18.0721	0.6188	-0.3198	0.6545	0.2936
9.23	-9.8605	-0.0464	-0.6072	0.0189	-0.0101	-0.0372	23.9092	-5.1625	18.1993	0.6189	-0.3197	0.6547	0.2936
9.24	-9.8594	-0.0321	-0.5956	0.0148	-0.0093	-0.0417	24.1377	-5.1644	18.0255	0.6189	-0.3197	0.6547	0.2935
9.25	-9.8578	-0.0070	-0.5853	0.0171	-0.0124	-0.0385	24.0391	-5.3458	18.2297	0.6190	-0.3196	0.6547	0.2935
9.26	-9.8368	0.0054	-0.5924	0.0134	-0.0008	-0.0377	24.0135	-5.3089	18.5991	0.6189	-0.3195	0.6548	0.2934
9.27	-9.8353	0.0039	-0.5988	0.0020	0.0036	-0.0445	24.4277	-5.2165	18.6483	0.6189	-0.3195	0.6548	0.2934
9.28	-9.8379	0.0079	-0.5971	0.0039	0.0037	-0.0485	24.2892	-5.2239	18.4452	0.6189	-0.3195	0.6549	0.2933
9.29	-9.8258	-0.0063	-0.6051	-0.0019	0.0109	-0.0443	24.0777	-4.9641	18.2998	0.6188	-0.3195	0.6549	0.2932
9.3	-9.8264	-0.0152	-0.6019	-0.0033	0.0115	-0.0459	23.8024	-4.9981	18.2296	0.6188	-0.3196	0.6551	0.2932
9.31	-9.8376	-0.0130	-0.6138	-0.0121	0.0144	-0.0514	23.7640	-5.1336	18.2534	0.6186	-0.3197	0.6551	0.2932
9.32	-9.8580	-0.0318	-0.6120	-0.0074	0.0132	-0.0478	23.9397	-5.1860	18.1533	0.6186	-0.3197	0.6552	0.2932
9.33	-9.8699	-0.0372	-0.6152	-0.0061	0.0113	-0.0515	23.9087	-5.0079	18.1174	0.6185	-0.3198	0.6552	0.2931
9.34	-9.8948	-0.0394	-0.6239	-0.0088	0.0097	-0.0452	24.0580	-5.2650	18.1529	0.6184	-0.3198	0.6553	0.2931
9.35	-9.8881	-0.0625	-0.6418	-0.0091	0.0147	-0.0416	23.9486	-5.2674	18.1164	0.6183	-0.3199	0.6554	0.2931
9.36	-9.8591	-0.0522	-0.6380	-0.0123	0.0127	-0.0425	24.2137	-5.3011	18.2205	0.6182	-0.3199	0.6554	0.2930
9.37	-9.8901	-0.0453	-0.6518	-0.0287	0.0184	-0.0358	24.0607	-5.4104	18.3516	0.6181	-0.3200	0.6555	0.2931
9.38	-9.8897	-0.0549	-0.6521	-0.0273	0.0171	-0.0363	23.8863	-5.1882	18.1512	0.6179	-0.3201	0.6555	0.2932
9.39	-9.8753	-0.0607	-0.6430	-0.0318	0.0109	-0.0303	23.9323	-5.2428	18.1381	0.6178	-0.3202	0.6556	0.2933
9.4	-9.8772	-0.0663	-0.6501	-0.0321	0.0184	-0.0324	23.9340	-5.3182	18.1308	0.6176	-0.3202	0.6556	0.2933
9.41	-9.8323	-0.0568	-0.6455	-0.0338	0.0091	-0.0267	23.7686	-5.5377	18.1618	0.6175	-0.3203	0.6557	0.2935
9.42	-9.8199	-0.0623	-0.6433	-0.0319	0.0245	-0.0271	23.7864	-5.5129	18.2771	0.6173	-0.3204	0.6558	0.2936
9.43	-9.8142	-0.0703	-0.6270	-0.0290	0.0268	-0.0235	23.8345	-5.6656	18.1468	0.6171	-0.3204	0.6559	0.2936
9.44	-9.7823	-0.0691	-0.6375	-0.0310	0.0238	-0.0225	23.9367	-5.2390	18.1284	0.6169	-0.3205	0.6561	0.2938
9.45	-9.7866	-0.0664	-0.6426	-0.0329	0.0259	-0.0249	24.0207	-5.2850	18.2942	0.6167	-0.3206	0.6561	0.2938
9.46	-9.7940	-0.0514	-0.6622	-0.0282	0.0292	-0.0282	23.8268	-5.2962	18.1081	0.6165	-0.3207	0.6563	0.2939
9.47	-9.8258	-0.0479	-0.6832	-0.0275	0.0325	-0.0275	23.7779	-5.1288	18.3278	0.6163	-0.3207	0.6563	0.2940
9.48	-9.8695	-0.0537	-0.6813	-0.0234	0.0374	-0.0315	23.4782	-5.0497	18.2963	0.6161	-0.3208	0.6566	0.2940
9.49	-9.9126	-0.0633	-0.6900	-0.0181	0.0375	-0.0314	23.7045	-5.2436	18.3727	0.6159	-0.3209	0.6567	0.2940
9.5	-9.8836	-0.0611	-0.7019	-0.0193	0.0257	-0.0322	23.7009	-5.1566	18.1228	0.6157	-0.3210	0.6568	0.2941
9.51	-9.8946	-0.0492	-0.7009	-0.0038	0.0243	-0.0335	23.5351	-5.2376	18.3426	0.6156	-0.3210	0.6569	0.2940
9.52	-9.8891	-0.0449	-0.6999	-0.0085	0.0151	-0.0333	23.7057	-5.2365	18.4102	0.6155	-0.3210	0.6570	0.2940
9.53	-9.8730	-0.0408	-0.6979	-0.0054	0.0070	-0.0319	23.7992	-5.4528	18.4894	0.6154	-0.3210	0.6571	0.2941
9.54	-9.8820	-0.0503	-0.6918	-0.0038	0.0102	-0.0332	23.9095	-5.5833	18.4462	0.6153	-0.3209	0.6572	0.2941
9.55	-9.9322	-0.0399	-0.6846	-0.0008	0.0095	-0.0334	24.0499	-5.7113	18.3107	0.6153	-0.3210	0.6573	0.2941
9.56	-9.9393	-0.0429	-0.6901	0.0005	-0.0093	-0.0341	23.9290	-5.4524	18.1723	0.6152	-0.3209	0.6573	0.2941
9.57	-9.9042	-0.0419	-0.6878	0.0007	-0.0153	-0.0383	23.7572	-5.4510	18.4104	0.6153	-0.3209	0.6574	0.2941
9.58	-9.8883	-0.0470	-0.6946	0.0073	-0.0123	-0.0338	24.0727	-5.6106	18.4118	0.6152	-0.3208	0.6573	0.2941
9.59	-9.8321	-0.0399	-0.6886	0.0075	-0.0151	-0.0337	23.7014	-5.4648	18.3434	0.6152	-0.3207	0.6574	0.2941
9.6	-9.8003	-0.0387	-0.6799	0.0133	-0.0102	-0.0239	23.8731	-5.3331	18.2098	0.6152	-0.3206	0.6575	0.2941
9.61	-9.8016	-0.0134	-0.6872	0.0140	-0.0127	-0.0241	23.9313	-5.3836	18.1071	0.6152	-0.3204	0.6575	0.2941
9.62	-9.7969	-0.0068	-0.7018	0.0157	-0.0111	-0.0310	23.9342	-5.5358	18.2475	0.6153	-0.3204	0.6576	0.2941
9.63	-9.8027	0.0028	-0.6922	0.0194	-0.0066	-0.0327	24.0117	-5.1871	18.2790	0.6152	-0.3202	0.6576	0.2941
9.64	-9.8202	0.0180	-0.7118	0.0114	0.0018	-0.0387	23.8394	-5.3461	18.5116	0.6152	-0.3202	0.6577	0.2940
9.65	-9.8294	0.0237	-0.7078	0.0183	0.0131	-0.0396	23.7391	-5.2059	18.1682	0.6151	-0.3201	0.6578	0.2939
9.66	-9.8494	0.0326	-0.7189	0.0177	0.0080	-0.0514	23.6411	-5.2958	18.2848	0.6151	-0.3201	0.6579	0.2938
9.67	-9.8701	0.0338	-0.7237	0.0138	0.0048	-0.0458	23.8236	-5.2481	18.4804	0.6151	-0.3201	0.6580	0.2937
9.68	-9.8832	0.0374	-0.7252	0.0184	0.0078	-0.0464	23.8471	-5.0752	18.2849	0.6151	-0.3200	0.6581	0.2936
9.69	-9.8975	0.0431	-0.7183	0.0025	0.0007	-0.0538	23.8084	-5.3868	18.4516	0.6151	-0.3200	0.6581	0.2936
9.7	-9.8853	0.0361	-0.7214	-0.0061	-0.0003	-0.0580	23.8861	-5.2708	18.5048	0.6150	-0.3201	0.6581	0.2935
9.71	-9.8829	0.0364	-0.7267	-0.0088	-0.0109	-0.0536	23.8939	-5.4128	18.3235	0.6151	-0.3201	0.6581	0.2935
9.72	-9.8978	0.0213	-0.7198	-0.0134	-0.0128	-0.0448	23.7076	-5.3985	18.3158	0.6150	-0.3201	0.6580	0.2935
9.73	-9.8922	0.0071	-0.7084	-0.0164	-0.0153	-0.0475	23.8719	-5.4394	18.4506	0.6150	-0.3202	0.6581	0.2936
9.74	-9.8988	-0.0224	-0.7151	-0.0309	-0.0205	-0.0545	23.9622	-5.5002	18.3718	0.6150	-0.3203	0.6580	0.2936
9.75	-9.8663	-0.0332	-0.7143	-0.0310	-0.0266	-0.0445	24.0840	-5.5617	18.2943	0.6150	-0.3203	0.6579	0.2938
9.76	-9.8384	-0.0492	-0.6903	-0.0313	-0.0235	-0.0454	24.2821	-5.6059	18.4551	0.6150	-0.3204	0.6578	0.2939
9.77	-9.8304	-0.0673	-0.6894	-0.0304	-0.0194	-0.0463	24.4239	-5.3098	18.5153	0.6150	-0.3205	0.6578	0.2940
9.78	-9.8114	-0.0774	-0.6817	-0.0287	-0.0184	-0.0439	24.2454	-5.3462	18.5426	0.6150	-0.3205	0.6577	0.2941
9.79	-9.8285	-0.0782	-0.6869	-0.0192	-0.0170	-0.0513	23.9520	-5.2692	18.6445	0.6149	-0.3206	0.6576	0.2941
9.8	-9.8508	-0.0686	-0.6810	-0.0061	-0.0117	-0.0485	23.8883	-5.2989	18.5017	0.6150	-0.3206	0.6577	0.2941
9.81	-9.8487	-0.0795	-0.6738	-0.0026	-0.0080	-0.0564	23.7402	-5.4908	18.4600	0.6150	-0.3206	0.6576	0.2941
9.82	-9.8461	-0.0727	-0.6732	0.0103	-0.0045	-0.0553	23.8014	-5.3120	18.1224	0.6150	-0.3207	0.6577	0.2940
9.83	-9.8174	-0.0675	-0.6635	0.0070	-0.0059	-0.0469	23.6616	-5.3288	18.3948	0.6150	-0.3206	0.6577	0.2939
9.84	-9.8025	-0.0562	-0.6474	-0.0003	-0.0059	-0.0444	23.6866	-5.3168	18.5086	0.6150	-0.3206	0.6577	0.2939
9.85	-9.8029	-0.0302	-0.6325	0.0186	0.0015	-0.0431	23.6758	-5.3266	18.2950	0.6150	-0.3205	0.6578	0.2939
9.86	-9.7821	-0.0096	-0.6481	0.0040	0.0026	-0.0414	23.6878	-5.3262	18.3548	0.6149	-0.3205	0.6578	0.2938
9.87	-9.8080	-0.0130	-0.6584	0.0022	0.0198	-0.0411	23.5745	-5.2221	18.4675	0.6149	-0.3205	0.6580	0.2938
9.88	-9.8055	-0.0210	-0.6641	0.0014	0.0187	-0.0424	23.7498	-5.3873	18.3747	0.6147	-0.3205	0.6581	0.2937
9.89	-9.8125	-0.0173	-0.6780	-0.0044	0.0199	-0.0429	23.7653	-5.3962	18.4140	0.6147	-0.3206	0.6582	0.2937
9.9	-9.8337	-0.0163	-0.6849	-0.0008	0.0179	-0.0476	23.8593	-5.0955	18.4326	0.6145	-0.3206	0.6582	0.2936
9.91	-9.8457	-0.0096	-0.6891	-0.0054	0.0222	-0.0383	23.7512	-5.0943	18.4743	0.6144	-0.3206	0.6584	0.2936
9.92	-9.8775	-0.0212	-0.6972	0.0051	0.0146	-0.0386	23.7994	-5.2886	18.6690	0.6143	-0.3206	0.6585	0.2936
9.93	-9.8975	-0.0111	-0.7167	0.0055	0.0084	-0.0362	23.9687	-5.1808	18.3016	0.6142	-0.3206	0.6586	0.2935
9.94	-9.9020	-0.0107	-0.7143	-0.0014	0.0139	-0.0365	23.9344	-5.4568	18.4796	0.6142	-0.3206	0.6587	0.2935
9.95	-9.9123	-0.0115	-0.7322	-0.0042	0.0078	-0.0416	23.4320	-5.6324	18.4156	0.6141	-0.3206	0.6588	0.2935
9.96	-9.9210	-0.0065	-0.7300	-0.0030	0.0040	-0.0389	23.6353	-5.2830	18.5105	0.6141	-0.3206	0.6589	0.2935
9.97	-9.9145	-0.0147	-0.7226	-0.0035	-0.0041	-0.0337	23.7821	-5.1843	18.5493	0.6139	-0.3205	0.6588	0.2935
9.98	-9.9026	-0.0002	-0.7372	-0.0026	-0.0106	-0.0390	23.8740	-5.3963	18.4024	0.6140	-0.3205	0.6589	0.2935
9.99	-9.9014	0.0038	-0.7221	0.0030	-0.0144	-0.0347	23.8318	-5.5138	18.6659	0.6140	-0.3205	0.6589	0.2935
10	-9.8922	0.0126	-0.7138	0.0042	-0.0172	-0.0391	23.6633	-5.2272	18.4711	0.6140	-0.3204	0.6589	0.2936
10.01	-9.8607	0.0292	-0.7177	-0.0057	-0.0169	-0.0402	23.7002	-5.2342	18.3198	0.6140	-0.3204	0.6589	0.2936
10.02	-9.8315	0.0380	-0.7050	-0.0041	-0.0159	-0.0367	23.7650	-5.2388	18.4901	0.6140	-0.3203	0.6589	0.2936
10.03	-9.8335	0.0261	-0.6945	-0.0018	-0.0188	-0.0472	23.6259	-5.4219	18.5797	0.6140	-0.3203	0.6589	0.2936
10.04	-9.8236	0.0311	-0.7058	-0.0041	-0.0157	-0.0381	23.8028	-5.3257	18.3511	0.6140	-0.3203	0.6588	0.2936
10.05	-9.8254	0.0404	-0.7053	-0.0064	-0.0123	-0.0442	23.5326	-5.3203	18.2346	0.6141	-0.3203	0.6589	0.2937
10.06	-9.8325	0.0394	-0.7055	-0.0079	-0.0105	-0.0501	23.5115	-5.3238	18.5748	0.6140	-0.3203	0.6589	0.2937
10.07	-9.8444	0.0375	-0.7136	-0.0025	-0.0136	-0.0499	23.7019	-5.3304	18.4339	0.6141	-0.3203	0.6589	0.2937
10.08	-9.8467	0.0360	-0.7146	-0.0080	-0.0074	-0.0500	23.6504	-5.2373	18.4531	0.6140	-0.3203	0.6588	0.2937
10.09	-9.8594	0.0384	-0.7156	-0.0058	-0.0160	-0.0500	23.8507	-5.1026	18.5206	0.6140	-0.3203	0.6589	0.2937
10.1	-9.8616	0.0303	-0.7172	-0.0090	-0.0106	-0.0477	23.8019	-5.4007	18.6019	0.6140	-0.3203	0.6588	0.2937
10.11	-9.8430	0.0246	-0.7155	-0.0044	-0.0144	-0.0447	23.7498	-5.3333	18.5834	0.6140	-0.3203	0.6588	0.2937
10.12	-9.8475	0.0307	-0.7204	-0.0217	-0.0134	-0.0492	23.9593	-5.3182	18.1892	0.6141	-0.3204	0.6589	0.2938
10.13	-9.8585	0.0186	-0.7172	-0.0226	-0.0135	-0.0499	23.9911	-5.4457	18.4585	0.6140	-0.3205	0.6588	0.2938
10.14	-9.8711	-0.0108	-0.7306	-0.0238	-0.0108	-0.0479	24.0135	-5.3786	18.3807	0.6140	-0.3205	0.6588	0.2939
10.15	-9.8498	-0.0309	-0.7329	-0.0264	-0.0139	-0.0544	23.7511	-5.4482	18.3152	0.6139	-0.3206	0.6586	0.2939
10.16	-9.8509	-0.0441	-0.7338	-0.0191	-0.0112	-0.0593	23.7456	-5.2395	18.5147	0.6140	-0.3207	0.6587	0.2940
10.17	-9.8597	-0.0357	-0.7318	-0.0219	-0.0127	-0.0568	23.5129	-5.3155	18.4802	0.6139	-0.3208	0.6586	0.2940
10.18	-9.8561	-0.0406	-0.7265	-0.0097	-0.0142	-0.0499	23.7071	-5.4946	18.4315	0.6139	-0.3208	0.6585	0.2940
10.19	-9.8650	-0.0557	-0.7265	-0.0149	-0.0106	-0.0503	23.6540	-5.0533	18.4263	0.6140	-0.3208	0.6586	0.2940
10.2	-9.8681	-0.0640	-0.7279	-0.0089	-0.0123	-0.0555	23.7300	-5.3801	18.6138	0.6139	-0.3209	0.6585	0.2940
10.21	-9.9021	-0.0661	-0.7215	-0.0111	-0.0078	-0.0488	23.7517	-5.3488	18.5681	0.6140	-0.3209	0.6585	0.2940
10.22	-9.8777	-0.0630	-0.7162	-0.0082	-0.0162	-0.0537	23.5298	-5.3223	18.5109	0.6139	-0.3209	0.6584	0.2940
10.23	-9.8596	-0.0677	-0.7163	-0.0109	-0.0145	-0.0464	23.8746	-5.2926	18.6496	0.6140	-0.3210	0.6585	0.2941
10.24	-9.8565	-0.0674	-0.7184	-0.0071	-0.0109	-0.0499	23.7681	-5.2473	18.6200	0.6139	-0.3210	0.6584	0.2941
10.25	-9.8070	-0.0585	-0.7265	-0.0093	-0.0128	-0.0389	23.6137	-5.3708	18.6106	0.6140	-0.3210	0.6585	0.2941
10.26	-9.8042	-0.0398	-0.7502	-0.0061	-0.0058	-0.0302	23.9828	-5.1888	18.7317	0.6139	-0.3209	0.6585	0.2942
10.27	-9.8011	-0.0061	-0.7449	-0.0071	-0.0136	-0.0368	24.2070	-5.3888	18.9579	0.6139	-0.3209	0.6585	0.2942
10.28	-9.7979	-0.0056	-0.7363	-0.0058	-0.0065	-0.0370	24.1590	-5.3895	18.8503	0.6139	-0.3209	0.6585	0.2943
10.29	-9.8174	0.0002	-0.7385	0.0013	-0.0092	-0.0385	23.9533	-5.4139	18.5553	0.6138	-0.3208	0.6585	0.2942
10.3	-9.8227	-0.0033	-0.7491	0.0011	-0.0083	-0.0475	23.7281	-5.3924	18.4817	0.6139	-0.3208	0.6586	0.2943
10.31	-9.8266	-0.0018	-0.7478	-0.0049	0.0008	-0.0551	23.8027	-5.3368	18.5906	0.6138	-0.3209	0.6586	0.2942
10.32	-9.8421	-0.0017	-0.7453	-0.0035	0.0026	-0.0503	24.0314	-5.4897	18.4291	0.6138	-0.3209	0.6587	0.2942
10.33	-9.8673	-0.0015	-0.7630	-0.0020	-0.0045	-0.0540	23.8977	-5.4952	18.5540	0.6137	-0.3209	0.6586	0.2941
10.34	-9.8703	0.0155	-0.7658	-0.0096	-0.0125	-0.0515	23.7720	-5.2352	18.5049	0.6138	-0.3209	0.6586	0.2941
10.35	-9.8863	0.0096	-0.7707	-0.0066	-0.0142	-0.0486	23.7199	-5.4237	18.4128	0.6138	-0.3210	0.6586	0.2941
10.36	-9.9012	0.0032	-0.7757	-0.0184	-0.0180	-0.0572	23.7145	-5.2788	18.4606	0.6138	-0.3210	0.6585	0.2942
10.37	-9.8972	-0.0177	-0.7818	-0.0256	-0.0141	-0.0570	23.8525	-5.5606	18.4229	0.6138	-0.3211	0.6585	0.2942
10.38	-9.8968	-0.0352	-0.7715	-0.0178	-0.0199	-0.0531	23.7564	-5.3568	18.4866	0.6138	-0.3212	0.6584	0.2943
10.39	-9.8879	-0.0371	-0.7648	-0.0300	-0.0214	-0.0461	23.7523	-5.1680	18.5521	0.6138	-0.3212	0.6584	0.2944
10.4	-9.8812	-0.0579	-0.7663	-0.0312	-0.0224	-0.0442	23.5332	-5.2569	18.5112	0.6137	-0.3212	0.6582	0.2945
10.41	-9.8809	-0.0661	-0.7611	-0.0278	-0.0233	-0.0446	23.5768	-5.0965	18.5449	0.6138	-0.3213	0.6582	0.2946
10.42	-9.8645	-0.0657	-0.7504	-0.0289	-0.0239	-0.0416	23.6586	-5.1609	18.5015	0.6138	-0.3214	0.6581	0.2947
10.43	-9.8592	-0.0645	-0.7287	-0.0116	-0.0237	-0.0354	23.6414	-5.1158	18.5796	0.6138	-0.3213	0.6581	0.2948
10.44	-9.8629	-0.0592	-0.7326	-0.0061	-0.0288	-0.0447	23.6222	-5.1570	18.2621	0.6139	-0.3213	0.6581	0.2948
10.45	-9.8634	-0.0429	-0.7209	-0.0079	-0.0309	-0.0479	23.6896	-5.2415	18.4772	0.6139	-0.3213	0.6580	0.2949
10.46	-9.8405	-0.0473	-0.7081	-0.0066	-0.0343	-0.0482	23.7220	-5.2074	18.6566	0.6140	-0.3213	0.6579	0.2949
10.47	-9.8513	-0.0465	-0.6877	-0.0015	-0.0266	-0.0462	23.8195	-5.3038	18.2725	0.6140	-0.3212	0.6578	0.2949
10.48	-9.8361	-0.0428	-0.6892	0.0052	-0.0300	-0.0443	24.0086	-5.3322	18.6348	0.6141	-0.3212	0.6578	0.2950
10.49	-9.8177	-0.0327	-0.6843	0.0013	-0.0375	-0.0442	23.7230	-5.4180	18.4015	0.6142	-0.3211	0.6577	0.2950
10.5	-9.8251	0.0045	-0.6873	0.0056	-0.0286	-0.0391	23.9810	-5.3937	18.3333	0.6143	-0.3210	0.6577	0.2950
10.51	-9.8205	0.0236	-0.6816	0.0068	-0.0247	-0.0421	24.1170	-5.3951	18.3579	0.6143	-0.3209	0.6577	0.2950
10.52	-9.8352	0.0099	-0.6873	-0.0059	-0.0123	-0.0437	23.9073	-5.4104	18.3539	0.6143	-0.3209	0.6577	0.2950
10.53	-9.8304	0.0185	-0.6887	-0.0069	-0.0167	-0.0475	23.9813	-5.3692	18.3346	0.6143	-0.3209	0.6577	0.2951
10.54	-9.8447	0.0033	-0.6893	-0.0064	-0.0159	-0.0456	23.9161	-5.5177	18.4383	0.6143	-0.3209	0.6576	0.2950
10.55	-9.8695	-0.0148	-0.6920	-0.0088	-0.0162	-0.0467	23.9115	-5.2384	18.5504	0.6144	-0.3210	0.6577	0.2951
10.56	-9.8585	-0.0092	-0.6840	-0.0113	-0.0165	-0.0432	23.7234	-5.2750	18.3771	0.6143	-0.3209	0.6576	0.2951
10.57	-9.8819	-0.0136	-0.6921	-0.0089	-0.0145	-0.0445	23.8461	-5.2736	18.5465	0.6144	-0.3210	0.6577	0.2952
10.58	-9.8759	-0.0186	-0.6987	-0.0089	-0.0143	-0.0463	24.0489	-5.1067	18.5077	0.6143	-0.3209	0.6575	0.2952
10.59	-9.8610	-0.0288	-0.6859	-0.0119	-0.0230	-0.0471	23.7135	-5.1422	18.5702	0.6144	-0.3210	0.6575	0.2952
10.6	-9.8662	-0.0340	-0.6847	-0.0099	-0.0249	-0.0503	23.7742	-5.1451	18.6057	0.6144	-0.3210	0.6575	0.2953
10.61	-9.8580	-0.0304	-0.6780	-0.0097	-0.0221	-0.0476	23.6025	-5.0588	18.4041	0.6144	-0.3210	0.6574	0.2953
10.62	-9.8516	-0.0442	-0.6825	-0.0062	-0.0228	-0.0408	23.7969	-5.0380	18.4526	0.6145	-0.3210	0.6575	0.2954
10.63	-9.8444	-0.0447	-0.6797	-0.0103	-0.0207	-0.0415	23.7517	-5.1987	18.5647	0.6145	-0.3209	0.6574	0.2954
10.64	-9.8430	-0.0437	-0.6816	-0.0118	-0.0218	-0.0489	23.5887	-5.2446	18.4545	0.6145	-0.3210	0.6574	0.2954
10.65	-9.8493	-0.0414	-0.6724	-0.0054	-0.0242	-0.0448	23.7346	-5.1370	18.4262	0.6145	-0.3209	0.6572	0.2954
10.66	-9.8566	-0.0277	-0.6774	-0.0053	-0.0243	-0.0368	23.8727	-5.0110	18.3251	0.6146	-0.3209	0.6573	0.2955
10.67	-9.8548	-0.0267	-0.6776	-0.0024	-0.0233	-0.0392	24.0492	-5.2958	18.3588	0.6146	-0.3208	0.6572	0.2956
10.68	-9.8501	-0.0092	-0.6775	-0.0071	-0.0182	-0.0439	23.9208	-5.5276	18.3437	0.6146	-0.3208	0.6572	0.2956
10.69	-9.8450	0.0006	-0.6820	-0.0051	-0.0216	-0.0468	23.6849	-5.4540	18.3662	0.6147	-0.3208	0.6572	0.2956
10.7	-9.8449	0.0020	-0.6782	-0.0044	-0.0177	-0.0465	23.9172	-5.4119	18.3239	0.6147	-0.3208	0.6572	0.2956
10.71	-9.8409	0.0046	-0.6769	-0.0057	-0.0164	-0.0472	23.8142	-5.5389	18.4309	0.6147	-0.3208	0.6572	0.2956
10.72	-9.8332	0.0152	-0.6657	-0.0084	-0.0142	-0.0468	23.9247	-5.3609	18.4422	0.6147	-0.3208	0.6571	0.2956
10.73	-9.8296	0.0090	-0.6752	-0.0072	-0.0153	-0.0469	23.7479	-5.5480	18.4596	0.6147	-0.3208	0.6571	0.2957
10.74	-9.8261	0.0040	-0.6789	-0.0041	-0.0123	-0.0552	23.8110	-5.2278	18.5627	0.6147	-0.3208	0.6571	0.2956
10.75	-9.8367	0.0019	-0.6820	-0.0121	-0.0139	-0.0495	23.9450	-5.3173	18.5050	0.6147	-0.3209	0.6571	0.2957
10.76	-9.8255	-0.0107	-0.6830	-0.0114	-0.0087	-0.0480	23.9657	-5.1874	18.6469	0.6147	-0.3209	0.6570	0.2957
10.77	-9.8296	-0.0174	-0.6861	-0.0262	-0.0083	-0.0543	24.4143	-5.1742	18.6010	0.6147	-0.3210	0.6570	0.2957
10.78	-9.8780	-0.0299	-0.6914	-0.0268	-0.0103	-0.0514	24.2204	-5.3416	18.4790	0.6147	-0.3211	0.6570	0.2958
10.79	-9.8950	-0.0516	-0.6915	-0.0195	-0.0084	-0.0526	23.8979	-5.1376	18.5570	0.6146	-0.3211	0.6569	0.2958
10.8	-9.8549	-0.0618	-0.7002	-0.0233	-0.0162	-0.0519	23.5990	-5.2840	18.5426	0.6147	-0.3212	0.6569	0.2959
10.81	-9.8682	-0.0545	-0.7028	-0.0271	-0.0115	-0.0534	23.6834	-5.1062	18.2810	0.6146	-0.3213	0.6568	0.2959
10.82	-9.8646	-0.0597	-0.6997	-0.0280	-0.0122	-0.0558	23.6598	-5.3078	18.4383	0.6146	-0.3214	0.6569	0.2960
10.83	-9.8582	-0.0659	-0.7010	-0.0139	-0.0132	-0.0551	23.9109	-5.3530	18.4556	0.6145	-0.3215	0.6567	0.2960
10.84	-9.8623	-0.0833	-0.6855	-0.0101	-0.0199	-0.0472	24.0335	-5.1843	18.4074	0.6146	-0.3215	0.6567	0.2960
10.85	-9.8922	-0.0801	-0.6788	-0.0078	-0.0186	-0.0455	23.8009	-5.3328	18.3278	0.6146	-0.3215	0.6567	0.2960
10.86	-9.8853	-0.0795	-0.6819	-0.0078	-0.0214	-0.0472	23.9650	-5.2616	18.3624	0.6146	-0.3215	0.6566	0.2960
10.87	-9.8510	-0.0900	-0.6742	-0.0078	-0.0309	-0.0427	23.9887	-5.1257	18.2372	0.6148	-0.3215	0.6567	0.2961
10.88	-9.8558	-0.0842	-0.6788	-0.0080	-0.0168	-0.0462	23.8797	-5.4584	18.4082	0.6147	-0.3214	0.6566	0.2961
10.89	-9.8351	-0.0744	-0.6805	-0.0091	-0.0187	-0.0351	23.9826	-5.3199	18.2506	0.6148	-0.3214	0.6566	0.2962
10.9	-9.8177	-0.0795	-0.6813	-0.0076	-0.0153	-0.0335	24.1641	-5.3602	18.3467	0.6147	-0.3213	0.6565	0.2962
10.91	-9.8174	-0.0521	-0.6749	-0.0085	-0.0140	-0.0349	24.0311	-5.2602	18.3603	0.6147	-0.3213	0.6566	0.2963
10.92	-9.8054	-0.0289	-0.6770	-0.0079	-0.0177	-0.0338	24.0156	-5.1583	18.3228	0.6147	-0.3213	0.6566	0.2964
10.93	-9.8119	-0.0147	-0.6820	-0.0016	-0.0137	-0.0362	23.9289	-5.3364	18.4417	0.6147	-0.3212	0.6566	0.2964
10.94	-9.8169	-0.0235	-0.6786	-0.0054	-0.0118	-0.0382	23.9802	-5.3551	18.3486	0.6147	-0.3212	0.6566	0.2964
10.95	-9.8217	-0.0178	-0.6786	0.0017	-0.0037	-0.0490	23.9380	-5.2532	18.3465	0.6147	-0.3212	0.6566	0.2964
10.96	-9.8394	-0.0075	-0.6856	0.0002	-0.0013	-0.0597	23.7774	-5.1248	18.5596	0.6147	-0.3213	0.6566	0.2963
10.97	-9.8557	-0.0113	-0.6952	0.0048	-0.0041	-0.0527	23.8625	-5.1509	18.4278	0.6146	-0.3212	0.6566	0.2962
10.98	-9.8709	-0.0154	-0.6999	-0.0020	0.0006	-0.0577	23.8821	-5.1922	18.1274	0.6147	-0.3213	0.6567	0.2962
10.99	-9.8721	-0.0038	-0.7089	0.0010	-0.0109	-0.0586	23.6990	-5.3633	18.3157	0.6147	-0.3213	0.6566	0.2961
11	-9.8589	-0.0002	-0.7035	-0.0029	-0.0087	-0.0594	23.9816	-5.0915	18.4855	0.6147	-0.3214	0.6567	0.2961
11.01	-9.8797	-0.0193	-0.7135	-0.0092	-0.0101	-0.0592	23.8421	-5.3780	18.6671	0.6147	-0.3214	0.6566	0.2961
11.02	-9.8748	-0.0307	-0.7053	-0.0064	-0.0145	-0.0509	23.7965	-5.1616	18.4542	0.6147	-0.3215	0.6566	0.2961
11.03	-9.8893	-0.0527	-0.7140	-0.0122	-0.0118	-0.0430	23.8993	-5.1937	18.4412	0.6147	-0.3215	0.6566	0.2961
11.04	-9.8616	-0.0628	-0.7088	-0.0091	-0.0133	-0.0445	23.8540	-5.3370	18.4312	0.6147	-0.3215	0.6565	0.2961
11.05	-9.8709	-0.0816	-0.7030	-0.0143	-0.0157	-0.0437	23.9718	-5.4319	18.4610	0.6148	-0.3215	0.6566	0.2962
11.06	-9.8699	-0.0809	-0.7240	-0.0096	-0.0194	-0.0363	23.9778	-5.3940	18.5682	0.6147	-0.3215	0.6565	0.2962
11.07	-9.8298	-0.0710	-0.6927	-0.0030	-0.0168	-0.0331	24.1480	-5.2281	18.4725	0.6148	-0.3214	0.6566	0.2963
11.08	-9.8938	-0.0711	-0.7136	-0.0048	-0.0204	-0.0373	24.0651	-5.2562	18.3165	0.6147	-0.3214	0.6565	0.2963
11.09	-9.8705	-0.0573	-0.7094	-0.0023	-0.0219	-0.0465	23.9967	-5.2143	18.3891	0.6148	-0.3214	0.6565	0.2963
11.1	-9.8790	-0.0639	-0.7098	0.0091	-0.0218	-0.0451	23.8122	-5.3099	18.4497	0.6149	-0.3213	0.6565	0.2963
11.11	-9.8887	-0.0648	-0.7055	0.0085	-0.0260	-0.0464	23.9750	-5.3278	18.4501	0.6149	-0.3212	0.6564	0.2962
11.12	-9.8929	-0.0639	-0.7001	0.0126	-0.0260	-0.0441	23.8634	-5.3471	18.4165	0.6150	-0.3212	0.6565	0.2963
11.13	-9.8653	-0.0629	-0.6921	0.0094	-0.0278	-0.0407	23.8503	-5.4198	18.3653	0.6151	-0.3211	0.6564	0.2962
11.14	-9.8655	-0.0185	-0.6959	0.0123	-0.0244	-0.0400	23.6982	-5.2350	18.4847	0.6152	-0.3210	0.6564	0.2962
11.15	-9.8621	0.0192	-0.6866	-0.0012	-0.0275	-0.0401	23.6758	-5.2410	18.3319	0.6151	-0.3209	0.6563	0.2962
11.16	-9.8618	0.0046	-0.6908	-0.0028	-0.0251	-0.0430	23.7234	-5.2587	18.2246	0.6152	-0.3209	0.6563	0.2963
11.17	-9.8477	0.0178	-0.6893	-0.0011	-0.0251	-0.0493	23.9591	-5.1972	18.3127	0.6153	-0.3209	0.6563	0.2963
11.18	-9.8329	-0.0066	-0.6809	-0.0063	-0.0284	-0.0474	23.6793	-5.1152	18.3584	0.6153	-0.3209	0.6562	0.2963
11.19	-9.8444	-0.0262	-0.6811	-0.0054	-0.0285	-0.0518	23.7003	-5.3754	18.3420	0.6154	-0.3209	0.6562	0.2963
11.2	-9.8538	-0.0189	-0.6812	-0.0080	-0.0243	-0.0516	23.8093	-5.1681	18.3428	0.6155	-0.3209	0.6561	0.2963
11.21	-9.8617	-0.0389	-0.6674	-0.0111	-0.0266	-0.0445	23.9898	-5.3725	18.1436	0.6155	-0.3209	0.6561	0.2964
11.22	-9.8635	-0.0387	-0.6569	-0.0146	-0.0247	-0.0412	24.1819	-5.1225	18.2627	0.6155	-0.3208	0.6559	0.2964
11.23	-9.8665	-0.0459	-0.6551	-0.0164	-0.0266	-0.0473	23.8813	-5.3072	18.2443	0.6156	-0.3209	0.6559	0.2965
11.24	-9.8643	-0.0467	-0.6500	-0.0169	-0.0268	-0.0413	23.9011	-5.4326	18.1272	0.6156	-0.3209	0.6558	0.2965
11.25	-9.8561	-0.0499	-0.6438	-0.0198	-0.0254	-0.0410	24.0375	-5.2128	18.2351	0.6156	-0.3209	0.6558	0.2966
11.26	-9.8427	-0.0495	-0.6449	-0.0122	-0.0261	-0.0410	24.2272	-5.2605	18.4502	0.6156	-0.3209	0.6557	0.2967
11.27	-9.8495	-0.0697	-0.6447	-0.0064	-0.0328	-0.0365	24.6350	-5.0855	18.7180	0.6157	-0.3208	0.6557	0.2968
11.28	-9.8337	-0.0632	-0.6339	-0.0127	-0.0284	-0.0408	24.4512	-5.0545	18.6578	0.6157	-0.3208	0.6556	0.2968
11.29	-9.8201	-0.0494	-0.6338	-0.0109	-0.0215	-0.0390	24.0989	-5.1655	18.4509	0.6157	-0.3208	0.6555	0.2969
11.3	-9.8229	-0.0499	-0.6369	-0.0025	-0.0166	-0.0429	23.8766	-5.2024	18.3796	0.6158	-0.3208	0.6556	0.2969
11.31	-9.8198	-0.0399	-0.6344	-0.0064	-0.0156	-0.0439	23.7367	-5.2984	18.3879	0.6158	-0.3208	0.6556	0.2969
11.32	-9.8397	-0.0335	-0.6375	-0.0054	-0.0161	-0.0418	23.6831	-5.2760	18.4861	0.6158	-0.3208	0.6556	0.2969
11.33	-9.8417	-0.0178	-0.6402	-0.0059	-0.0104	-0.0472	23.6301	-5.0025	18.3172	0.6158	-0.3208	0.6555	0.2969
11.34	-9.8455	-0.0160	-0.6401	0.0003	-0.0136	-0.0483	24.0189	-5.0801	18.2456	0.6158	-0.3208	0.6555	0.2969
