time	acceleration_x	acceleration_y	acceleration_z	gyroscope_x	gyroscope_y	gyroscope_z	magnetometer_x	magnetometer_y	magnetometer_z	quaternion_w	quaternion_x	quaternion_y	quaternion_z
0	-5.2980	-0.2700	-0.8384	0.0081	-0.0063	0.0030	16.1542	-14.9619	15.6574	0.3269	-0.1880	0.3738	0.1438
0.01	-10.4986	-0.5425	-1.6715	0.0196	-0.0087	0.0098	32.1708	-29.7528	30.6605	0.6458	-0.3714	0.7385	0.2842
0.02	-9.2484	-0.4835	-1.4847	0.0167	-0.0038	0.0118	28.1830	-26.3369	27.0457	0.5684	-0.3269	0.6499	0.2501
0.03	-9.8614	-0.5135	-1.5691	0.0109	-0.0088	0.0116	30.2505	-28.1786	29.1735	0.6102	-0.3509	0.6978	0.2686
0.04	-9.4820	-0.4916	-1.5222	0.0177	-0.0086	0.0121	28.9920	-26.9206	28.0370	0.5843	-0.3360	0.6682	0.2572
0.05	-9.7873	-0.5019	-1.5880	0.0121	-0.0087	0.0121	29.6203	-27.8241	29.0336	0.6009	-0.3456	0.6871	0.2645
0.06	-9.5765	-0.4831	-1.5288	0.0143	-0.0050	0.0118	29.3093	-27.2835	28.0971	0.5903	-0.3395	0.6751	0.2599
0.07	-9.6768	-0.4813	-1.5418	0.0120	-0.0062	0.0118	29.6111	-27.4998	28.5042	0.5968	-0.3432	0.6825	0.2628
0.08	-9.6445	-0.4766	-1.5537	0.0160	-0.0043	0.0082	29.5450	-27.3779	28.3729	0.5931	-0.3411	0.6782	0.2611
0.09	-9.6583	-0.4741	-1.5421	0.0200	0.0016	0.0090	29.5189	-27.3280	28.3265	0.5949	-0.3422	0.6804	0.2620
0.1	-9.6279	-0.4734	-1.5219	0.0185	-0.0091	0.0109	29.4389	-27.2274	28.0568	0.5942	-0.3418	0.6795	0.2616
0.11	-9.6430	-0.4775	-1.5378	0.0085	-0.0015	0.0092	29.5622	-27.2509	28.2835	0.5941	-0.3418	0.6795	0.2616
0.12	-9.6379	-0.4790	-1.5262	0.0109	0.0008	0.0087	29.3889	-27.1617	28.3926	0.5941	-0.3418	0.6795	0.2616
0.13	-9.6366	-0.4787	-1.5212	0.0127	-0.0058	0.0083	29.3571	-27.2472	28.5240	0.5941	-0.3418	0.6795	0.2616
0.14	-9.6420	-0.4804	-1.5226	0.0080	-0.0021	0.0082	29.4525	-27.1061	28.7576	0.5941	-0.3419	0.6795	0.2617
0.15	-9.6389	-0.4821	-1.5174	0.0196	-0.0050	0.0061	29.8515	-26.9784	28.9675	0.5941	-0.3419	0.6795	0.2617
0.16	-9.6421	-0.4800	-1.5198	0.0173	-0.0043	0.0134	29.7037	-27.3146	28.7245	0.5940	-0.3419	0.6795	0.2617
0.17	-9.6470	-0.4805	-1.5223	0.0184	-0.0068	0.0161	29.4719	-27.8888	28.2590	0.5940	-0.3419	0.6795	0.2617
0.18	-9.6466	-0.4829	-1.5234	0.0181	-0.0121	0.0125	29.5591	-28.2534	28.4694	0.5941	-0.3418	0.6795	0.2617
0.19	-9.6395	-0.4834	-1.5154	0.0150	-0.0156	0.0145	29.4691	-27.1447	28.2160	0.5941	-0.3418	0.6795	0.2617
0.2	-9.6443	-0.4859	-1.5172	0.0182	-0.0137	0.0129	29.5939	-27.2885	28.2169	0.5941	-0.3418	0.6795	0.2617
0.21	-9.6453	-0.4913	-1.5232	0.0153	-0.0126	0.0092	29.4384	-27.3961	28.2750	0.5941	-0.3418	0.6795	0.2618
0.22	-9.6380	-0.4984	-1.5164	0.0174	-0.0145	0.0129	29.5771	-27.2596	28.3382	0.5941	-0.3418	0.6794	0.2618
0.23	-9.6437	-0.5037	-1.5304	0.0190	-0.0151	0.0120	29.5701	-27.4297	28.3062	0.5942	-0.3418	0.6794	0.2618
0.24	-9.6438	-0.5083	-1.5435	0.0188	-0.0166	0.0117	29.5677	-27.2518	28.3270	0.5942	-0.3417	0.6794	0.2618
0.25	-9.6392	-0.5114	-1.5368	0.0159	-0.0122	0.0133	29.3991	-27.4037	28.3242	0.5942	-0.3417	0.6794	0.2618
0.26	-9.6435	-0.5078	-1.5459	0.0177	-0.0113	0.0142	29.4783	-27.3212	28.5687	0.5942	-0.3417	0.6794	0.2619
0.27	-9.6490	-0.5058	-1.5524	0.0134	-0.0071	0.0183	29.4997	-27.3038	28.1857	0.5942	-0.3417	0.6794	0.2619
0.28	-9.6439	-0.5065	-1.5579	0.0173	-0.0132	0.0111	29.4858	-27.1778	28.3943	0.5942	-0.3417	0.6794	0.2619
0.29	-9.6423	-0.4997	-1.5445	0.0171	-0.0136	0.0131	29.4789	-27.1288	28.4118	0.5942	-0.3417	0.6794	0.2619
0.3	-9.6448	-0.4988	-1.5490	0.0195	-0.0055	0.0115	29.5810	-27.1559	28.0960	0.5942	-0.3416	0.6794	0.2619
0.31	-9.6435	-0.4930	-1.5518	0.0170	-0.0025	0.0115	29.4674	-27.3498	28.2457	0.5942	-0.3416	0.6794	0.2619
0.32	-9.6426	-0.4943	-1.5520	0.0153	-0.0042	0.0115	29.3491	-27.2767	28.2939	0.5942	-0.3417	0.6794	0.2619
0.33	-9.6393	-0.4946	-1.5441	0.0160	-0.0096	0.0122	29.3039	-27.1351	28.5277	0.5942	-0.3416	0.6794	0.2620
0.34	-9.6395	-0.4967	-1.5414	0.0162	-0.0054	0.0135	29.4327	-27.1691	28.3694	0.5942	-0.3416	0.6794	0.2620
0.35	-9.6421	-0.4949	-1.5389	0.0153	-0.0072	0.0135	29.3859	-27.2392	28.2687	0.5942	-0.3416	0.6794	0.2620
0.36	-9.6446	-0.4887	-1.5396	0.0157	-0.0072	0.0120	29.4721	-27.2486	28.4252	0.5942	-0.3416	0.6794	0.2620
0.37	-9.6408	-0.4870	-1.5282	0.0197	-0.0087	0.0150	29.5068	-27.1260	28.2068	0.5942	-0.3416	0.6794	0.2620
0.38	-9.6481	-0.4837	-1.5342	0.0142	-0.0106	0.0132	29.3774	-27.1884	28.2531	0.5942	-0.3416	0.6794	0.2620
0.39	-9.6399	-0.4822	-1.5211	0.0195	-0.0057	0.0115	29.6088	-27.3597	28.4791	0.5942	-0.3416	0.6794	0.2620
0.4	-9.6417	-0.4785	-1.5288	0.0186	-0.0040	0.0120	29.6784	-27.2762	28.2975	0.5942	-0.3416	0.6794	0.2620
0.41	-9.6236	-0.4924	-1.4994	0.0197	-0.0092	0.0137	29.5478	-27.3384	28.3353	0.5942	-0.3416	0.6794	0.2620
0.42	-9.6488	-0.4918	-1.5068	0.0179	-0.0154	0.0113	29.5870	-27.3932	28.2962	0.5942	-0.3415	0.6794	0.2621
0.43	-9.6925	-0.4615	-1.5655	0.0216	-0.0102	0.0107	29.5520	-27.2134	28.3811	0.5943	-0.3415	0.6794	0.2621
0.44	-9.5771	-0.4401	-1.4563	0.0225	-0.0095	0.0119	29.5920	-27.3146	28.4125	0.5943	-0.3415	0.6794	0.2621
0.45	-9.6842	-0.4425	-1.5534	0.0184	-0.0095	0.0115	29.5260	-27.2126	28.5053	0.5943	-0.3415	0.6794	0.2621
0.46	-9.6653	-0.4667	-1.5491	0.0192	-0.0083	0.0145	29.5193	-27.3951	28.1564	0.5943	-0.3415	0.6794	0.2621
0.47	-9.6010	-0.4764	-1.5049	0.0180	-0.0129	0.0135	29.6156	-27.3399	28.2029	0.5943	-0.3414	0.6794	0.2621
0.48	-9.6826	-0.5040	-1.5733	0.0192	-0.0083	0.0117	29.3919	-27.2067	28.3099	0.5943	-0.3414	0.6794	0.2621
0.49	-9.6195	-0.4978	-1.5303	0.0169	-0.0041	0.0115	29.2758	-27.2600	28.7133	0.5943	-0.3414	0.6794	0.2621
0.5	-9.6480	-0.5074	-1.5573	0.0178	-0.0081	0.0118	29.4329	-27.3651	28.4966	0.5943	-0.3414	0.6794	0.2621
0.51	-9.6440	-0.5100	-1.5416	0.0145	-0.0055	0.0074	29.5349	-27.1390	28.2703	0.5943	-0.3414	0.6794	0.2621
0.52	-9.6246	-0.5055	-1.5270	0.0201	-0.0072	0.0130	29.2632	-27.1548	28.5191	0.5943	-0.3414	0.6794	0.2621
0.53	-9.6664	-0.5078	-1.5650	0.0216	-0.0089	0.0122	29.3864	-27.2793	28.3440	0.5943	-0.3414	0.6794	0.2621
0.54	-9.6326	-0.4956	-1.5327	0.0195	-0.0111	0.0086	29.1827	-27.1521	28.4744	0.5943	-0.3414	0.6794	0.2621
0.55	-9.6331	-0.4979	-1.5322	0.0172	-0.0080	0.0121	29.1375	-27.1590	28.4970	0.5943	-0.3414	0.6794	0.2621
0.56	-9.6483	-0.4983	-1.5403	0.0189	-0.0135	0.0110	29.5106	-27.2483	28.4489	0.5944	-0.3414	0.6793	0.2621
0.57	-9.6497	-0.4939	-1.5345	0.0192	-0.0094	0.0112	29.2656	-27.3968	28.2361	0.5944	-0.3414	0.6793	0.2621
0.58	-9.6327	-0.4941	-1.5168	0.0190	-0.0131	0.0140	29.3004	-27.3787	28.4895	0.5944	-0.3413	0.6793	0.2621
0.59	-9.6447	-0.4845	-1.5329	0.0185	-0.0151	0.0126	29.4250	-27.5311	28.6047	0.5944	-0.3413	0.6793	0.2621
0.6	-9.6526	-0.4863	-1.5340	0.0206	-0.0079	0.0162	29.5302	-27.2438	28.4090	0.5944	-0.3413	0.6793	0.2621
0.61	-9.6375	-0.4810	-1.5209	0.0212	-0.0087	0.0105	29.5929	-27.1477	28.2048	0.5944	-0.3413	0.6793	0.2621
0.62	-9.6447	-0.4913	-1.5250	0.0187	-0.0073	0.0115	29.5564	-27.3609	28.3231	0.5944	-0.3413	0.6793	0.2621
0.63	-9.6446	-0.5020	-1.5229	0.0190	-0.0079	0.0119	29.5832	-27.0677	28.3148	0.5944	-0.3413	0.6793	0.2621
0.64	-9.6481	-0.4914	-1.5280	0.0223	-0.0127	0.0121	29.5624	-27.0707	28.4733	0.5945	-0.3412	0.6793	0.2621
0.65	-9.6446	-0.4890	-1.5279	0.0183	-0.0115	0.0099	30.1011	-26.7193	28.4824	0.5945	-0.3412	0.6793	0.2621
0.66	-9.6417	-0.4690	-1.5346	0.0198	-0.0108	0.0115	29.8091	-27.0989	28.5039	0.5945	-0.3412	0.6793	0.2621
0.67	-9.6500	-0.4700	-1.5437	0.0109	-0.0046	0.0101	29.3485	-28.0277	28.3960	0.5945	-0.3412	0.6793	0.2622
0.68	-9.6674	-0.4667	-1.5816	0.0089	0.0062	0.0070	29.4944	-28.1716	28.1284	0.5944	-0.3413	0.6793	0.2622
0.69	-9.6430	-0.4819	-1.5728	0.0141	-0.0046	0.0116	29.4401	-27.1799	28.2219	0.5944	-0.3413	0.6793	0.2622
0.7	-9.6248	-0.4948	-1.5668	0.0130	-0.0051	0.0055	29.3452	-27.3200	28.2220	0.5944	-0.3413	0.6793	0.2622
0.71	-9.6769	-0.4941	-1.6158	0.0136	-0.0024	0.0103	29.3831	-27.2479	28.3928	0.5944	-0.3413	0.6793	0.2622
0.72	-9.6494	-0.4980	-1.5843	0.0125	-0.0061	0.0087	29.2852	-27.3752	28.3372	0.5944	-0.3414	0.6793	0.2622
0.73	-9.6120	-0.4772	-1.5427	0.0169	0.0016	0.0066	29.2818	-27.1342	28.2809	0.5943	-0.3414	0.6793	0.2622
0.74	-9.6478	-0.4808	-1.5545	0.0186	-0.0045	0.0052	29.3770	-27.0362	28.3317	0.5943	-0.3414	0.6793	0.2621
0.75	-9.6662	-0.4475	-1.5698	0.0196	-0.0050	0.0069	29.3742	-27.1764	28.4371	0.5943	-0.3414	0.6793	0.2621
0.76	-9.6339	-0.4564	-1.5282	0.0183	-0.0143	0.0082	29.5589	-27.3307	28.2878	0.5944	-0.3414	0.6793	0.2621
0.77	-9.6203	-0.4521	-1.5048	0.0107	-0.0087	0.0037	29.4779	-27.4131	28.4487	0.5944	-0.3415	0.6793	0.2621
0.78	-9.6549	-0.5017	-1.5024	0.0068	-0.0059	0.0072	29.5949	-27.5282	28.4831	0.5944	-0.3415	0.6793	0.2621
0.79	-9.6412	-0.5289	-1.4781	0.0137	-0.0102	0.0036	29.5340	-27.6131	28.3237	0.5944	-0.3415	0.6792	0.2621
0.8	-9.6009	-0.5544	-1.4358	0.0178	-0.0046	0.0109	29.5375	-27.3582	28.2960	0.5944	-0.3415	0.6792	0.2621
0.81	-9.6424	-0.5785	-1.4502	0.0106	-0.0046	0.0108	29.4673	-27.4600	28.4757	0.5943	-0.3416	0.6792	0.2621
0.82	-9.6515	-0.5794	-1.4383	0.0169	-0.0022	0.0072	29.3444	-27.4255	28.4276	0.5943	-0.3416	0.6793	0.2621
0.83	-9.6158	-0.5775	-1.3934	0.0177	0.0043	0.0036	29.5692	-27.1822	28.1023	0.5943	-0.3416	0.6793	0.2621
0.84	-9.6323	-0.5611	-1.4169	0.0179	-0.0026	0.0054	29.4931	-27.3690	28.2470	0.5943	-0.3416	0.6793	0.2621
0.85	-9.6579	-0.5295	-1.4466	0.0212	0.0030	0.0094	29.5578	-27.2532	28.3651	0.5943	-0.3416	0.6793	0.2620
0.86	-9.6411	-0.4854	-1.4728	0.0193	-0.0019	0.0089	29.4377	-27.0449	28.4069	0.5943	-0.3417	0.6793	0.2620
0.87	-9.6328	-0.4552	-1.4850	0.0183	-0.0009	0.0130	29.4465	-27.1735	28.3824	0.5942	-0.3416	0.6793	0.2620
0.88	-9.6600	-0.4451	-1.5455	0.0177	-0.0003	0.0080	29.5131	-27.0305	28.5140	0.5942	-0.3417	0.6794	0.2620
0.89	-9.6493	-0.4550	-1.5662	0.0155	-0.0007	0.0055	29.3977	-26.9855	28.2686	0.5942	-0.3417	0.6794	0.2620
0.9	-9.6417	-0.4698	-1.5899	0.0090	-0.0005	0.0121	29.2547	-27.2559	28.4526	0.5942	-0.3417	0.6794	0.2620
0.91	-9.6739	-0.4745	-1.6527	-0.0000	-0.0061	0.0077	29.3915	-27.2275	28.6033	0.5941	-0.3418	0.6794	0.2620
0.92	-9.6406	-0.4845	-1.6477	0.0067	-0.0074	0.0126	29.4010	-27.2634	28.4143	0.5941	-0.3418	0.6793	0.2621
0.93	-9.6272	-0.4838	-1.6430	0.0206	-0.0047	0.0046	29.2118	-27.1684	28.3887	0.5941	-0.3418	0.6793	0.2621
0.94	-9.6816	-0.4680	-1.6930	0.0179	-0.0037	0.0098	29.3871	-27.2209	28.3940	0.5941	-0.3418	0.6794	0.2620
0.95	-9.6279	-0.4514	-1.6323	0.0192	-0.0140	0.0135	29.4345	-27.3546	28.4058	0.5941	-0.3418	0.6793	0.2621
0.96	-9.6762	-0.4287	-1.6656	0.0188	-0.0071	0.0125	29.6042	-27.4312	28.3972	0.5941	-0.3418	0.6793	0.2621
0.97	-9.6704	-0.4172	-1.6443	0.0173	-0.0119	0.0051	29.5433	-27.3137	28.4237	0.5942	-0.3418	0.6793	0.2620
0.98	-9.5848	-0.4259	-1.5391	0.0152	-0.0066	0.0059	29.4260	-27.4015	28.2881	0.5942	-0.3418	0.6793	0.2620
0.99	-9.6705	-0.4808	-1.5673	0.0169	-0.0121	0.0079	29.5595	-27.6380	28.3649	0.5942	-0.3418	0.6793	0.2620
1	-9.6678	-0.5022	-1.5341	0.0168	-0.0117	0.0067	29.4795	-27.4517	28.6078	0.5942	-0.3418	0.6793	0.2620
1.01	-9.5952	-0.5219	-1.4493	0.0149	-0.0076	0.0062	29.6125	-27.3021	28.4977	0.5942	-0.3419	0.6793	0.2620
1.02	-9.6448	-0.5221	-1.4656	0.0199	-0.0095	0.0081	29.5861	-27.3240	28.3736	0.5942	-0.3419	0.6792	0.2620
1.03	-9.6538	-0.5017	-1.4510	0.0215	-0.0074	0.0061	29.3581	-27.3170	28.4423	0.5942	-0.3419	0.6792	0.2620
1.04	-9.6191	-0.4918	-1.4122	0.0204	-0.0101	0.0071	29.3585	-27.3351	28.5175	0.5943	-0.3419	0.6792	0.2620
1.05	-9.6427	-0.4869	-1.4249	0.0198	-0.0014	0.0095	29.3565	-27.2365	28.3808	0.5942	-0.3419	0.6792	0.2620
1.06	-9.6416	-0.4953	-1.4274	0.0186	0.0008	0.0059	29.3638	-27.2337	28.2892	0.5942	-0.3419	0.6793	0.2619
1.07	-9.6397	-0.5173	-1.4379	0.0180	-0.0107	0.0074	29.1849	-27.0813	28.4990	0.5942	-0.3419	0.6793	0.2619
1.08	-9.6365	-0.5346	-1.4439	0.0086	-0.0021	0.0086	29.2645	-27.1262	28.3817	0.5942	-0.3419	0.6792	0.2619
1.09	-9.6315	-0.5528	-1.4765	0.0125	-0.0038	0.0110	29.3742	-27.2861	28.4166	0.5942	-0.3420	0.6792	0.2619
1.1	-9.6240	-0.5624	-1.4832	0.0168	-0.0011	0.0081	29.3616	-27.3018	28.4838	0.5942	-0.3420	0.6793	0.2619
1.11	-9.6399	-0.5527	-1.5203	0.0179	0.0019	0.0101	29.5145	-27.1765	28.3083	0.5942	-0.3420	0.6793	0.2619
1.12	-9.6515	-0.5346	-1.5572	0.0174	-0.0029	0.0114	29.2292	-27.0484	28.2883	0.5941	-0.3420	0.6793	0.2619
1.13	-9.6257	-0.5083	-1.5561	0.0120	-0.0036	0.0086	29.2434	-27.2249	28.3320	0.5941	-0.3420	0.6793	0.2619
1.14	-9.6600	-0.4874	-1.5934	0.0138	-0.0102	0.0104	29.7203	-27.5040	28.6083	0.5941	-0.3420	0.6793	0.2619
1.15	-9.6516	-0.4739	-1.5997	0.0160	-0.0066	0.0109	30.0658	-27.1385	28.8061	0.5941	-0.3420	0.6793	0.2619
1.16	-9.6417	-0.4617	-1.5986	0.0201	-0.0084	0.0120	29.7157	-27.4054	28.4502	0.5941	-0.3420	0.6793	0.2619
1.17	-9.6529	-0.4461	-1.6110	0.0171	-0.0094	0.0114	29.5639	-28.1936	28.3747	0.5941	-0.3420	0.6793	0.2619
1.18	-9.6512	-0.4481	-1.6051	0.0200	-0.0096	0.0110	29.5629	-28.1943	28.2744	0.5941	-0.3420	0.6793	0.2619
1.19	-9.6600	-0.4517	-1.6073	0.0144	-0.0115	0.0125	29.2676	-27.2411	28.2636	0.5942	-0.3420	0.6793	0.2619
1.2	-9.6470	-0.4532	-1.5867	0.0143	-0.0085	0.0127	29.3706	-27.4798	28.5729	0.5942	-0.3420	0.6793	0.2620
1.21	-9.6472	-0.4576	-1.5691	0.0198	-0.0058	0.0121	29.2871	-27.3452	28.2465	0.5942	-0.3420	0.6793	0.2620
1.22	-9.6574	-0.4647	-1.5694	0.0187	-0.0082	0.0086	29.4220	-27.3380	28.5084	0.5942	-0.3420	0.6793	0.2619
1.23	-9.6413	-0.4657	-1.5384	0.0184	-0.0140	0.0115	29.3877	-27.3162	28.3687	0.5942	-0.3420	0.6792	0.2620
1.24	-9.6427	-0.4681	-1.5297	0.0185	-0.0073	0.0138	29.3499	-27.2567	28.3446	0.5942	-0.3420	0.6792	0.2620
1.25	-9.6533	-0.4707	-1.5304	0.0196	-0.0041	0.0116	29.5793	-27.3693	28.5716	0.5942	-0.3420	0.6793	0.2620
1.26	-9.6443	-0.4673	-1.5140	0.0150	-0.0105	0.0121	29.2794	-27.2450	28.3112	0.5942	-0.3420	0.6792	0.2620
1.27	-9.6412	-0.4700	-1.5002	0.0181	-0.0068	0.0119	29.4809	-27.2417	28.1830	0.5942	-0.3420	0.6793	0.2620
1.28	-9.6545	-0.4730	-1.5044	0.0195	-0.0041	0.0169	29.5770	-27.1243	28.1699	0.5942	-0.3419	0.6793	0.2620
1.29	-9.6446	-0.4788	-1.5065	0.0188	-0.0095	0.0132	29.4007	-27.2389	28.4949	0.5942	-0.3419	0.6793	0.2620
1.3	-9.6329	-0.4817	-1.4946	0.0190	-0.0062	0.0099	29.3960	-27.2610	28.4965	0.5942	-0.3419	0.6793	0.2620
1.31	-9.6432	-0.4912	-1.5056	0.0183	-0.0074	0.0107	29.4371	-27.3394	28.4627	0.5942	-0.3419	0.6793	0.2620
1.32	-9.6438	-0.4995	-1.5077	0.0192	-0.0139	0.0116	29.5070	-27.3346	28.2027	0.5942	-0.3419	0.6793	0.2620
1.33	-9.6395	-0.5123	-1.5114	0.0170	-0.0104	0.0114	29.4985	-27.3139	28.3039	0.5942	-0.3419	0.6792	0.2620
1.34	-9.6405	-0.5247	-1.5145	0.0183	-0.0122	0.0111	29.4642	-27.3560	28.4335	0.5942	-0.3419	0.6792	0.2620
1.35	-9.6402	-0.5289	-1.5198	0.0194	-0.0075	0.0128	29.5611	-27.5294	28.2348	0.5942	-0.3419	0.6792	0.2620
1.36	-9.6322	-0.5265	-1.5225	0.0190	-0.0096	0.0123	29.4859	-27.2543	28.2898	0.5943	-0.3418	0.6792	0.2620
1.37	-9.6497	-0.5183	-1.5350	0.0224	-0.0086	0.0109	29.2798	-27.2327	28.3272	0.5943	-0.3418	0.6792	0.2620
1.38	-9.6415	-0.5026	-1.5453	0.0212	-0.0076	0.0118	29.5782	-27.3816	28.1975	0.5943	-0.3418	0.6792	0.2620
1.39	-9.6424	-0.4864	-1.5460	0.0205	-0.0081	0.0111	29.3946	-27.3869	28.2706	0.5943	-0.3418	0.6792	0.2620
1.4	-9.6487	-0.4751	-1.5478	0.0181	-0.0068	0.0147	29.4938	-27.2868	28.4101	0.5943	-0.3418	0.6793	0.2620
1.41	-9.6402	-0.4804	-1.5363	0.0201	-0.0105	0.0118	29.4798	-27.4579	28.3987	0.5943	-0.3418	0.6792	0.2620
1.42	-9.6532	-0.4855	-1.5534	0.0187	-0.0075	0.0137	29.2831	-27.3550	28.4247	0.5943	-0.3417	0.6792	0.2620
1.43	-9.6428	-0.4904	-1.5450	0.0191	-0.0074	0.0105	29.3569	-27.1776	28.5288	0.5943	-0.3417	0.6793	0.2620
1.44	-9.6429	-0.4960	-1.5450	0.0171	-0.0061	0.0126	29.2431	-27.4572	28.3793	0.5943	-0.3417	0.6793	0.2620
1.45	-9.6449	-0.4979	-1.5477	0.0184	-0.0039	0.0128	29.2420	-27.2827	28.4228	0.5943	-0.3417	0.6793	0.2620
1.46	-9.6426	-0.4911	-1.5441	0.0191	-0.0061	0.0103	29.4269	-27.2621	28.3475	0.5943	-0.3417	0.6793	0.2620
1.47	-9.6377	-0.4896	-1.5374	0.0177	-0.0029	0.0098	29.5383	-27.1698	28.3013	0.5943	-0.3417	0.6793	0.2620
1.48	-9.6478	-0.4847	-1.5400	0.0207	-0.0026	0.0099	29.3662	-27.1711	28.3062	0.5943	-0.3417	0.6793	0.2619
1.49	-9.6442	-0.4860	-1.5423	0.0200	-0.0069	0.0149	29.5766	-27.2551	28.4589	0.5943	-0.3417	0.6793	0.2619
1.5	-9.6362	-0.4868	-1.5320	0.0190	-0.0067	0.0119	29.4802	-27.2814	28.4704	0.5943	-0.3417	0.6793	0.2619
1.51	-9.6427	-0.4894	-1.5329	0.0186	-0.0125	0.0113	29.2987	-27.4200	28.2876	0.5943	-0.3417	0.6793	0.2619
1.52	-9.6442	-0.4864	-1.5301	0.0192	-0.0023	0.0114	29.4453	-27.5193	28.2468	0.5943	-0.3417	0.6793	0.2619
1.53	-9.6476	-0.4746	-1.5351	0.0170	-0.0038	0.0112	29.5318	-27.4531	28.3457	0.5943	-0.3417	0.6793	0.2619
1.54	-9.6392	-0.4810	-1.5274	0.0186	-0.0076	0.0118	29.6083	-27.3649	28.2735	0.5943	-0.3417	0.6793	0.2619
1.55	-9.6381	-0.4785	-1.5296	0.0189	-0.0077	0.0110	29.4750	-27.1251	28.0835	0.5943	-0.3417	0.6793	0.2619
1.56	-9.6492	-0.4848	-1.5330	0.0196	-0.0088	0.0133	29.4077	-27.2220	28.3322	0.5943	-0.3417	0.6793	0.2619
1.57	-9.6429	-0.4921	-1.5213	0.0191	-0.0064	0.0120	29.3978	-27.3728	28.3634	0.5943	-0.3417	0.6793	0.2619
1.58	-9.6373	-0.4963	-1.5256	0.0152	-0.0097	0.0115	29.4785	-27.3019	28.3479	0.5943	-0.3417	0.6793	0.2619
1.59	-9.6398	-0.4979	-1.5316	0.0202	-0.0058	0.0106	29.5800	-27.4388	28.6459	0.5943	-0.3416	0.6793	0.2619
1.6	-9.6372	-0.4997	-1.5267	0.0198	-0.0107	0.0117	29.5719	-27.2572	28.2479	0.5943	-0.3416	0.6793	0.2619
1.61	-9.6425	-0.4945	-1.5202	0.0178	-0.0102	0.0157	29.5424	-27.2445	28.2591	0.5943	-0.3416	0.6793	0.2620
1.62	-9.6478	-0.4862	-1.5300	0.0194	-0.0075	0.0121	29.3737	-27.2486	28.5090	0.5943	-0.3416	0.6793	0.2620
1.63	-9.6476	-0.4862	-1.5353	0.0167	-0.0046	0.0115	29.3411	-27.2538	28.4758	0.5943	-0.3416	0.6793	0.2620
1.64	-9.6361	-0.4822	-1.5332	0.0192	-0.0050	0.0120	29.6072	-27.2383	28.5160	0.5943	-0.3416	0.6793	0.2619
1.65	-9.6462	-0.4871	-1.5432	0.0141	-0.0033	0.0083	29.9536	-26.9369	28.6884	0.5943	-0.3416	0.6794	0.2620
1.66	-9.6465	-0.4903	-1.5458	0.0172	0.0028	0.0049	29.6339	-27.0614	28.5642	0.5943	-0.3416	0.6794	0.2619
1.67	-9.6379	-0.4931	-1.5494	0.0144	-0.0046	0.0098	29.3489	-27.9007	28.3954	0.5942	-0.3417	0.6794	0.2619
1.68	-9.6435	-0.4953	-1.5502	0.0143	-0.0034	0.0057	29.3799	-28.0969	28.2708	0.5942	-0.3417	0.6794	0.2619
1.69	-9.6465	-0.4959	-1.5505	0.0203	-0.0110	0.0117	29.2082	-27.1367	28.4796	0.5942	-0.3417	0.6794	0.2619
1.7	-9.6439	-0.4888	-1.5474	0.0173	-0.0079	0.0117	29.5230	-27.4787	28.5759	0.5942	-0.3417	0.6794	0.2619
1.71	-9.6453	-0.4841	-1.5515	0.0196	-0.0051	0.0127	29.4631	-27.4510	28.2951	0.5942	-0.3417	0.6794	0.2619
1.72	-9.6443	-0.4819	-1.5528	0.0181	-0.0051	0.0067	29.4351	-27.3045	28.3078	0.5942	-0.3417	0.6794	0.2619
1.73	-9.6458	-0.4780	-1.5461	0.0174	-0.0098	0.0055	29.4256	-27.3244	28.3845	0.5943	-0.3417	0.6794	0.2619
1.74	-9.6461	-0.4782	-1.5415	0.0140	-0.0034	0.0094	29.4574	-27.2928	28.5366	0.5942	-0.3417	0.6794	0.2619
1.75	-9.6438	-0.4816	-1.5415	0.0125	0.0005	0.0083	29.3535	-27.3763	28.5793	0.5942	-0.3417	0.6794	0.2619
1.76	-9.6380	-0.4845	-1.5370	0.0191	-0.0026	0.0023	29.4264	-27.4039	28.5171	0.5942	-0.3418	0.6794	0.2618
1.77	-9.6401	-0.4871	-1.5267	0.0188	-0.0005	0.0060	29.4347	-27.4002	28.2306	0.5942	-0.3418	0.6794	0.2618
1.78	-9.6453	-0.4855	-1.5296	0.0191	-0.0050	0.0046	29.3359	-27.2356	28.2682	0.5942	-0.3418	0.6794	0.2618
1.79	-9.6452	-0.4850	-1.5285	0.0186	-0.0055	0.0080	29.3572	-27.2930	28.2827	0.5942	-0.3418	0.6794	0.2618
1.8	-9.6415	-0.4878	-1.5184	0.0142	0.0001	0.0041	29.4381	-27.3232	28.5040	0.5942	-0.3418	0.6794	0.2618
1.81	-9.6395	-0.4907	-1.5248	0.0190	-0.0025	0.0066	29.3134	-27.3188	28.5518	0.5942	-0.3419	0.6794	0.2617
1.82	-9.6477	-0.4892	-1.5266	0.0192	0.0025	0.0089	29.4288	-27.2832	28.2855	0.5942	-0.3419	0.6794	0.2617
1.83	-9.6435	-0.4894	-1.5191	0.0164	-0.0006	0.0066	29.3770	-27.1421	28.2912	0.5941	-0.3419	0.6794	0.2617
1.84	-9.6385	-0.4871	-1.5166	0.0125	-0.0022	0.0090	29.3327	-27.0621	28.5019	0.5941	-0.3419	0.6794	0.2617
1.85	-9.6421	-0.4859	-1.5206	0.0106	-0.0034	0.0055	29.3712	-27.0747	28.4337	0.5941	-0.3420	0.6794	0.2617
1.86	-9.6449	-0.4912	-1.5299	0.0089	-0.0001	0.0049	29.3073	-27.2547	28.3610	0.5941	-0.3420	0.6794	0.2617
1.87	-9.6393	-0.4947	-1.5245	0.0098	-0.0029	0.0099	29.1735	-27.1993	28.4081	0.5940	-0.3420	0.6794	0.2617
1.88	-9.6419	-0.4952	-1.5381	0.0130	-0.0096	0.0104	29.2140	-27.4060	28.3593	0.5940	-0.3421	0.6794	0.2617
1.89	-9.6490	-0.4978	-1.5486	0.0185	-0.0058	0.0088	29.4820	-27.4537	28.2947	0.5940	-0.3421	0.6794	0.2617
1.9	-9.6434	-0.4973	-1.5526	0.0164	-0.0026	0.0018	29.5539	-27.3669	28.3091	0.5940	-0.3421	0.6794	0.2617
1.91	-9.6437	-0.4921	-1.5497	0.0144	-0.0045	0.0073	29.3919	-27.4813	28.4053	0.5940	-0.3421	0.6794	0.2617
1.92	-9.6519	-0.4931	-1.5598	0.0136	-0.0005	0.0089	29.5073	-27.5236	28.2667	0.5940	-0.3421	0.6794	0.2617
1.93	-9.6457	-0.4938	-1.5547	0.0086	0.0001	0.0080	29.6464	-27.6942	28.4093	0.5940	-0.3422	0.6794	0.2617
1.94	-9.6390	-0.4919	-1.5535	0.0133	-0.0055	0.0087	29.5032	-27.1713	28.3118	0.5940	-0.3422	0.6794	0.2617
1.95	-9.6457	-0.4927	-1.5579	0.0091	-0.0086	0.0108	29.4278	-27.3702	28.2964	0.5939	-0.3422	0.6794	0.2617
1.96	-9.6436	-0.4920	-1.5458	0.0124	-0.0056	0.0117	29.4414	-27.3841	28.4795	0.5939	-0.3422	0.6794	0.2618
1.97	-9.6429	-0.4939	-1.5410	0.0168	-0.0013	0.0125	29.4159	-27.4725	28.4441	0.5939	-0.3422	0.6794	0.2618
1.98	-9.6415	-0.4950	-1.5273	0.0129	-0.0055	0.0081	29.5514	-27.4022	28.1825	0.5939	-0.3423	0.6794	0.2618
1.99	-9.6455	-0.4944	-1.5309	0.0153	-0.0048	0.0027	29.2503	-27.2651	28.2455	0.5939	-0.3423	0.6794	0.2617
2	-9.6395	-0.4956	-1.5257	0.0191	-0.0031	0.0069	29.2097	-27.2233	28.3679	0.5939	-0.3423	0.6794	0.2617
2.01	-9.6389	-0.4954	-1.5173	0.0176	0.0019	0.0058	29.3695	-27.2511	28.7373	0.5939	-0.3423	0.6794	0.2617
2.02	-9.6479	-0.4960	-1.5189	0.0152	-0.0053	0.0079	29.3430	-27.1167	28.2399	0.5939	-0.3424	0.6794	0.2617
2.03	-9.6401	-0.4947	-1.5185	0.0168	-0.0014	0.0050	29.3665	-27.1912	28.3342	0.5939	-0.3424	0.6795	0.2617
2.04	-9.6395	-0.4919	-1.5166	0.0154	0.0020	0.0059	29.0999	-27.0539	28.4904	0.5938	-0.3424	0.6795	0.2616
2.05	-9.6400	-0.4908	-1.5194	0.0111	-0.0081	0.0095	29.1997	-27.1796	28.1306	0.5938	-0.3424	0.6795	0.2617
2.06	-9.6448	-0.4877	-1.5247	0.0163	-0.0079	0.0109	29.4009	-27.2087	28.6215	0.5938	-0.3424	0.6794	0.2617
2.07	-9.6389	-0.4894	-1.5210	0.0198	-0.0103	0.0117	29.4599	-27.3367	28.4577	0.5938	-0.3424	0.6794	0.2617
2.08	-9.6450	-0.4876	-1.5239	0.0086	-0.0041	0.0069	29.3450	-27.4229	28.2890	0.5938	-0.3425	0.6794	0.2617
2.09	-9.6491	-0.4889	-1.5272	0.0128	-0.0018	0.0054	29.4617	-27.3089	28.3137	0.5938	-0.3425	0.6794	0.2617
2.1	-9.6435	-0.4858	-1.5277	0.0187	0.0010	0.0059	29.5205	-27.2673	28.5692	0.5938	-0.3425	0.6795	0.2617
2.11	-9.6417	-0.4867	-1.5290	0.0160	-0.0090	0.0037	29.5230	-27.2635	28.3085	0.5938	-0.3425	0.6794	0.2616
2.12	-9.6468	-0.4894	-1.5349	0.0157	-0.0053	0.0059	29.4973	-27.4085	28.3923	0.5938	-0.3426	0.6794	0.2616
2.13	-9.6423	-0.4905	-1.5393	0.0192	-0.0072	0.0048	29.5539	-27.3070	28.3941	0.5938	-0.3426	0.6794	0.2616
2.14	-9.6372	-0.4902	-1.5366	0.0085	-0.0013	0.0072	29.7477	-27.4088	28.4287	0.5938	-0.3426	0.6794	0.2616
2.15	-9.6409	-0.4921	-1.5431	0.0165	-0.0119	0.0077	30.0458	-26.8020	28.5715	0.5938	-0.3426	0.6794	0.2616
2.16	-9.6489	-0.4938	-1.5495	0.0194	-0.0132	0.0148	29.7639	-27.0699	28.6051	0.5938	-0.3426	0.6794	0.2617
2.17	-9.6442	-0.4923	-1.5508	0.0188	-0.0069	0.0175	29.4218	-27.7580	28.6494	0.5938	-0.3426	0.6794	0.2617
2.18	-9.6463	-0.4926	-1.5490	0.0189	-0.0060	0.0122	29.4151	-28.1633	28.5323	0.5938	-0.3425	0.6794	0.2617
2.19	-9.6446	-0.4890	-1.5433	0.0170	-0.0085	0.0116	29.2946	-27.1842	28.3654	0.5938	-0.3425	0.6794	0.2617
2.2	-9.6485	-0.4865	-1.5387	0.0196	-0.0033	0.0141	29.4448	-27.2435	28.4096	0.5938	-0.3425	0.6794	0.2617
2.21	-9.6458	-0.4860	-1.5339	0.0191	-0.0035	0.0155	29.3915	-27.2633	28.5179	0.5938	-0.3425	0.6794	0.2617
2.22	-9.6390	-0.4876	-1.5289	0.0192	-0.0003	0.0115	29.4117	-27.4209	28.3978	0.5938	-0.3425	0.6795	0.2617
2.23	-9.6449	-0.4866	-1.5294	0.0190	-0.0059	0.0107	29.4929	-27.3152	28.3959	0.5938	-0.3425	0.6795	0.2617
2.24	-9.6476	-0.4833	-1.5312	0.0191	-0.0075	0.0140	29.4913	-27.3155	28.3849	0.5938	-0.3425	0.6795	0.2617
2.25	-9.6453	-0.4819	-1.5268	0.0191	-0.0060	0.0109	29.3215	-27.1548	28.2325	0.5938	-0.3425	0.6795	0.2617
2.26	-9.6498	-0.4811	-1.5291	0.0188	-0.0050	0.0128	29.3928	-27.2195	28.4980	0.5937	-0.3425	0.6795	0.2617
2.27	-9.6439	-0.4750	-1.5280	0.0194	-0.0127	0.0129	29.6062	-27.3581	28.4670	0.5938	-0.3424	0.6795	0.2617
2.28	-9.6411	-0.4796	-1.5289	0.0184	-0.0072	0.0125	29.5454	-27.4074	28.3734	0.5938	-0.3424	0.6795	0.2617
2.29	-9.6499	-0.4779	-1.5297	0.0220	-0.0077	0.0124	29.4041	-27.4150	28.1833	0.5938	-0.3424	0.6795	0.2617
2.3	-9.6434	-0.4811	-1.5347	0.0222	-0.0090	0.0099	29.5018	-27.3192	28.4251	0.5938	-0.3424	0.6795	0.2617
2.31	-9.6417	-0.4836	-1.5280	0.0187	-0.0066	0.0106	29.4696	-27.2097	28.5758	0.5938	-0.3424	0.6795	0.2617
2.32	-9.6457	-0.4882	-1.5359	0.0189	-0.0100	0.0128	29.5441	-27.1079	28.2564	0.5938	-0.3424	0.6795	0.2617
2.33	-9.6469	-0.4926	-1.5360	0.0192	-0.0082	0.0126	29.5870	-27.3091	28.4034	0.5938	-0.3423	0.6795	0.2617
2.34	-9.6417	-0.4930	-1.5301	0.0195	-0.0034	0.0107	29.5651	-27.4204	28.4040	0.5938	-0.3423	0.6795	0.2617
2.35	-9.6458	-0.4935	-1.5384	0.0217	0.0025	0.0072	29.4491	-27.2692	28.3759	0.5938	-0.3423	0.6795	0.2616
2.36	-9.6471	-0.4933	-1.5348	0.0245	-0.0028	0.0087	29.5791	-27.4094	28.4634	0.5938	-0.3423	0.6796	0.2616
2.37	-9.6420	-0.4962	-1.5277	0.0206	-0.0015	0.0107	29.4865	-27.3355	28.5052	0.5938	-0.3423	0.6796	0.2616
2.38	-9.6429	-0.4962	-1.5329	0.0208	-0.0071	0.0102	29.3987	-27.0931	28.3413	0.5938	-0.3423	0.6796	0.2616
2.39	-9.6422	-0.4944	-1.5373	0.0196	-0.0011	0.0089	29.3997	-27.2412	28.4525	0.5938	-0.3423	0.6796	0.2616
2.4	-9.6434	-0.4961	-1.5373	0.0189	-0.0057	0.0124	29.4773	-27.2136	28.5060	0.5938	-0.3423	0.6796	0.2616
2.41	-9.6410	-0.4992	-1.5326	0.0191	-0.0065	0.0174	29.4978	-27.3660	28.2869	0.5938	-0.3423	0.6796	0.2616
2.42	-9.6457	-0.5033	-1.5416	0.0187	-0.0094	0.0119	29.5086	-27.3628	28.3072	0.5938	-0.3422	0.6796	0.2616
2.43	-9.6439	-0.5045	-1.5491	0.0188	-0.0105	0.0154	29.6056	-27.3567	28.3488	0.5938	-0.3422	0.6796	0.2616
2.44	-9.6435	-0.5062	-1.5421	0.0187	-0.0079	0.0134	29.1828	-27.4351	28.5061	0.5938	-0.3422	0.6796	0.2616
2.45	-9.6432	-0.5068	-1.5498	0.0178	-0.0157	0.0137	29.3248	-27.3046	28.4529	0.5938	-0.3422	0.6796	0.2616
2.46	-9.6426	-0.5024	-1.5442	0.0181	-0.0098	0.0130	29.6688	-27.4454	28.3800	0.5938	-0.3422	0.6796	0.2617
2.47	-9.6485	-0.4940	-1.5460	0.0177	-0.0145	0.0108	29.4539	-27.1098	28.4112	0.5939	-0.3421	0.6796	0.2617
2.48	-9.6441	-0.4889	-1.5430	0.0184	-0.0139	0.0105	29.5961	-27.2850	28.2848	0.5939	-0.3421	0.6795	0.2617
2.49	-9.6453	-0.4847	-1.5371	0.0190	-0.0110	0.0133	29.5567	-27.2771	28.4575	0.5939	-0.3421	0.6795	0.2617
2.5	-9.6488	-0.4824	-1.5320	0.0187	-0.0084	0.0120	29.4087	-27.2819	28.4666	0.5939	-0.3421	0.6795	0.2617
2.51	-9.6430	-0.4858	-1.5282	0.0191	-0.0091	0.0113	29.4294	-27.3390	28.1965	0.5939	-0.3421	0.6795	0.2617
2.52	-9.6423	-0.4812	-1.5237	0.0186	-0.0096	0.0116	29.3832	-27.2343	28.3231	0.5939	-0.3421	0.6795	0.2617
2.53	-9.6492	-0.4867	-1.5239	0.0201	-0.0103	0.0119	29.3510	-27.3489	28.5913	0.5940	-0.3420	0.6795	0.2617
2.54	-9.6463	-0.4930	-1.5243	0.0205	-0.0088	0.0118	29.6371	-27.3238	28.7487	0.5940	-0.3420	0.6795	0.2617
2.55	-9.6404	-0.4875	-1.5261	0.0185	-0.0035	0.0118	29.2704	-27.2359	28.6796	0.5940	-0.3420	0.6795	0.2617
2.56	-9.6401	-0.4894	-1.5228	0.0195	0.0022	0.0111	29.4830	-27.1537	28.3560	0.5939	-0.3420	0.6796	0.2617
2.57	-9.6414	-0.4874	-1.5223	0.0189	-0.0094	0.0103	29.4487	-27.2816	28.3453	0.5939	-0.3420	0.6796	0.2617
2.58	-9.6392	-0.4829	-1.5213	0.0192	-0.0054	0.0122	29.3911	-27.2021	28.4099	0.5939	-0.3420	0.6796	0.2617
2.59	-9.6406	-0.4808	-1.5267	0.0187	-0.0033	0.0116	29.4268	-27.3679	28.3010	0.5939	-0.3420	0.6796	0.2617
2.6	-9.6441	-0.4803	-1.5287	0.0172	-0.0062	0.0116	29.3923	-27.3965	28.5437	0.5939	-0.3420	0.6796	0.2617
2.61	-9.6456	-0.4833	-1.5258	0.0195	-0.0104	0.0128	29.2333	-27.4488	28.2186	0.5939	-0.3420	0.6796	0.2617
2.62	-9.6394	-0.4801	-1.5285	0.0187	-0.0113	0.0118	29.4080	-27.2159	28.6116	0.5940	-0.3419	0.6796	0.2617
2.63	-9.6393	-0.4880	-1.5327	0.0190	-0.0082	0.0097	29.4034	-27.1753	28.6243	0.5940	-0.3419	0.6795	0.2617
2.64	-9.6448	-0.4933	-1.5413	0.0188	-0.0061	0.0133	29.5961	-27.3919	28.4216	0.5940	-0.3419	0.6796	0.2617
2.65	-9.6401	-0.4998	-1.5430	0.0188	-0.0073	0.0106	29.9430	-26.8825	28.8748	0.5940	-0.3419	0.6796	0.2617
2.66	-9.6368	-0.4975	-1.5408	0.0184	-0.0036	0.0082	29.7120	-27.1989	28.5706	0.5940	-0.3419	0.6796	0.2617
2.67	-9.6436	-0.4963	-1.5439	0.0154	-0.0044	0.0084	29.4890	-27.8292	28.2744	0.5940	-0.3419	0.6796	0.2617
2.68	-9.6443	-0.4938	-1.5464	0.0153	-0.0023	0.0093	29.5981	-28.1160	28.3087	0.5939	-0.3419	0.6796	0.2617
2.69	-9.6405	-0.4916	-1.5489	0.0146	-0.0069	0.0124	29.3695	-27.3434	28.4063	0.5939	-0.3419	0.6796	0.2617
2.7	-9.6436	-0.4870	-1.5422	0.0199	-0.0043	0.0113	29.5716	-27.5303	28.4381	0.5939	-0.3419	0.6796	0.2617
2.71	-9.6488	-0.4807	-1.5446	0.0128	-0.0044	0.0119	29.5273	-27.4333	28.3697	0.5939	-0.3419	0.6796	0.2618
2.72	-9.6443	-0.4797	-1.5434	0.0143	-0.0080	0.0112	29.5235	-27.3581	28.2966	0.5939	-0.3419	0.6796	0.2618
2.73	-9.6460	-0.4820	-1.5413	0.0164	-0.0075	0.0107	29.3029	-27.1149	28.4175	0.5939	-0.3419	0.6796	0.2618
2.74	-9.6448	-0.4852	-1.5431	0.0175	-0.0006	0.0083	29.2793	-27.2242	28.5241	0.5939	-0.3419	0.6796	0.2618
2.75	-9.6434	-0.4886	-1.5360	0.0136	-0.0015	0.0047	29.3170	-27.1877	28.6215	0.5939	-0.3420	0.6796	0.2618
2.76	-9.6405	-0.4932	-1.5276	0.0120	-0.0076	0.0087	29.1574	-27.2167	28.4675	0.5939	-0.3420	0.6796	0.2618
2.77	-9.6448	-0.4945	-1.5336	0.0109	-0.0019	0.0109	29.1712	-27.3615	28.5204	0.5939	-0.3420	0.6796	0.2618
2.78	-9.6446	-0.4945	-1.5310	0.0179	-0.0013	0.0057	29.3416	-27.3082	28.4403	0.5939	-0.3420	0.6796	0.2618
2.79	-9.6466	-0.4941	-1.5257	0.0185	-0.0018	0.0091	29.2651	-27.3373	28.4052	0.5938	-0.3420	0.6796	0.2618
2.8	-9.6436	-0.4906	-1.5296	0.0188	-0.0029	0.0038	29.2773	-27.3190	28.3932	0.5938	-0.3420	0.6796	0.2617
2.81	-9.6418	-0.4924	-1.5263	0.0174	-0.0075	0.0077	29.2026	-27.3360	28.3344	0.5939	-0.3421	0.6796	0.2617
2.82	-9.6429	-0.4952	-1.5259	0.0180	-0.0028	0.0096	29.2684	-27.4876	28.5938	0.5939	-0.3421	0.6796	0.2617
2.83	-9.6427	-0.4911	-1.5299	0.0158	-0.0010	0.0103	29.6393	-27.4782	28.3033	0.5938	-0.3421	0.6796	0.2617
2.84	-9.6453	-0.4926	-1.5307	0.0163	-0.0055	0.0066	29.4606	-27.5050	28.4419	0.5938	-0.3421	0.6796	0.2617
2.85	-9.6422	-0.4938	-1.5305	0.0178	-0.0015	0.0061	29.5259	-27.3153	28.3893	0.5938	-0.3421	0.6796	0.2617
2.86	-9.6464	-0.4951	-1.5343	0.0176	-0.0031	0.0110	29.4673	-27.4013	28.4768	0.5938	-0.3421	0.6796	0.2617
2.87	-9.6410	-0.4941	-1.5423	0.0191	-0.0016	0.0063	29.6033	-27.3209	28.5305	0.5938	-0.3421	0.6796	0.2617
2.88	-9.6423	-0.4950	-1.5367	0.0202	-0.0039	0.0057	29.4466	-27.2310	28.3464	0.5938	-0.3421	0.6796	0.2617
2.89	-9.6442	-0.4963	-1.5353	0.0201	-0.0041	0.0004	29.4486	-27.3757	28.3504	0.5938	-0.3421	0.6796	0.2616
2.9	-9.6435	-0.4964	-1.5417	0.0185	-0.0029	0.0057	29.5334	-27.5121	28.5146	0.5938	-0.3422	0.6796	0.2616
2.91	-9.6438	-0.4963	-1.5430	0.0193	-0.0115	0.0079	29.4630	-27.2065	28.4965	0.5938	-0.3422	0.6796	0.2616
2.92	-9.6430	-0.4962	-1.5432	0.0189	-0.0068	0.0043	29.4249	-27.0284	28.4811	0.5938	-0.3422	0.6796	0.2616
2.93	-9.6444	-0.4938	-1.5498	0.0192	-0.0058	0.0010	29.3655	-27.3250	28.5166	0.5939	-0.3422	0.6796	0.2616
2.94	-9.6478	-0.4921	-1.5409	0.0184	-0.0045	0.0048	29.2556	-27.3367	28.4046	0.5939	-0.3422	0.6796	0.2615
2.95	-9.6420	-0.4921	-1.5438	0.0107	-0.0025	0.0100	29.3393	-27.0262	28.3017	0.5939	-0.3422	0.6796	0.2615
2.96	-9.6419	-0.4950	-1.5438	0.0160	-0.0035	0.0074	29.2351	-27.2651	28.3073	0.5938	-0.3422	0.6796	0.2615
2.97	-9.6471	-0.4939	-1.5409	0.0173	-0.0030	0.0075	29.2715	-27.4305	28.3832	0.5938	-0.3422	0.6796	0.2615
2.98	-9.6368	-0.4901	-1.5402	0.0185	-0.0061	0.0098	29.2476	-27.3136	28.5163	0.5938	-0.3422	0.6796	0.2615
2.99	-9.6408	-0.4875	-1.5321	0.0182	-0.0053	0.0013	29.3731	-27.1120	28.3528	0.5939	-0.3423	0.6796	0.2615
3	-9.6487	-0.4907	-1.5320	0.0171	-0.0140	0.0072	29.3095	-27.3972	28.2922	0.5939	-0.3423	0.6795	0.2615
3.01	-9.6439	-0.4899	-1.5201	0.0192	-0.0091	0.0094	29.4270	-27.4074	28.4224	0.5939	-0.3423	0.6795	0.2615
3.02	-9.6382	-0.4877	-1.5222	0.0168	-0.0077	0.0066	29.5000	-27.4092	28.4010	0.5939	-0.3423	0.6795	0.2615
3.03	-9.6426	-0.4858	-1.5292	0.0149	-0.0039	0.0044	29.5208	-27.5181	28.4568	0.5939	-0.3423	0.6795	0.2615
3.04	-9.6482	-0.4905	-1.5303	0.0141	-0.0058	0.0042	29.4208	-27.2175	28.5206	0.5939	-0.3423	0.6795	0.2615
3.05	-9.6407	-0.4885	-1.5278	0.0182	-0.0032	0.0095	29.4214	-27.3374	28.4807	0.5939	-0.3423	0.6795	0.2615
3.06	-9.6426	-0.4874	-1.5254	0.0188	-0.0025	0.0106	29.5029	-27.5198	28.4088	0.5939	-0.3423	0.6795	0.2615
3.07	-9.6487	-0.4870	-1.5364	0.0193	-0.0116	0.0086	29.5493	-27.4639	28.2344	0.5939	-0.3423	0.6795	0.2615
3.08	-9.6384	-0.4814	-1.5320	0.0184	-0.0033	0.0067	29.6024	-27.2126	28.3039	0.5939	-0.3423	0.6795	0.2615
3.09	-9.6393	-0.4812	-1.5329	0.0167	-0.0070	0.0073	29.4869	-27.3625	28.5239	0.5939	-0.3423	0.6795	0.2615
3.1	-9.6446	-0.4831	-1.5431	0.0164	-0.0053	0.0106	29.3511	-27.3737	28.5057	0.5939	-0.3423	0.6795	0.2615
3.11	-9.6478	-0.4807	-1.5357	0.0151	-0.0104	0.0071	29.3795	-27.1270	28.4289	0.5939	-0.3423	0.6795	0.2615
3.12	-9.6355	-0.4830	-1.5337	0.0179	-0.0043	0.0113	29.5129	-27.1762	28.3946	0.5939	-0.3423	0.6795	0.2615
3.13	-9.6400	-0.4842	-1.5342	0.0156	0.0004	0.0088	29.4024	-27.1391	28.4079	0.5939	-0.3424	0.6795	0.2615
3.14	-9.6426	-0.4890	-1.5388	0.0158	-0.0030	0.0064	29.5704	-27.1899	28.5972	0.5939	-0.3424	0.6795	0.2615
3.15	-9.6424	-0.4947	-1.5314	0.0163	-0.0010	0.0088	29.8389	-27.0076	28.7796	0.5939	-0.3424	0.6795	0.2615
3.16	-9.6407	-0.4975	-1.5350	0.0194	-0.0053	0.0122	29.6903	-27.1550	28.6850	0.5939	-0.3424	0.6795	0.2615
3.17	-9.6435	-0.4973	-1.5331	0.0188	-0.0069	0.0161	29.3942	-27.8593	28.4200	0.5939	-0.3423	0.6795	0.2615
3.18	-9.6461	-0.4939	-1.5289	0.0183	-0.0101	0.0124	29.5158	-28.2046	28.4687	0.5939	-0.3423	0.6795	0.2615
3.19	-9.6459	-0.4963	-1.5304	0.0193	-0.0142	0.0119	29.1986	-27.0528	28.4328	0.5939	-0.3423	0.6795	0.2615
3.2	-9.6455	-0.4946	-1.5348	0.0185	-0.0081	0.0143	29.3953	-27.4144	28.5115	0.5939	-0.3423	0.6795	0.2615
3.21	-9.6465	-0.4953	-1.5265	0.0212	-0.0124	0.0144	29.5070	-27.4765	28.3511	0.5939	-0.3422	0.6795	0.2615
3.22	-9.6503	-0.4985	-1.5368	0.0193	-0.0139	0.0120	29.5443	-27.3054	28.3275	0.5940	-0.3422	0.6795	0.2615
3.23	-9.6451	-0.4972	-1.5439	0.0189	-0.0117	0.0103	29.5864	-27.2331	28.4852	0.5940	-0.3422	0.6795	0.2616
3.24	-9.6417	-0.5005	-1.5451	0.0193	-0.0093	0.0100	29.6646	-27.3370	28.4799	0.5940	-0.3422	0.6794	0.2616
3.25	-9.6468	-0.5018	-1.5520	0.0190	-0.0074	0.0124	29.4414	-27.2884	28.3956	0.5940	-0.3422	0.6794	0.2616
3.26	-9.6408	-0.4952	-1.5459	0.0195	-0.0067	0.0114	29.3862	-27.4224	28.3979	0.5940	-0.3422	0.6794	0.2616
3.27	-9.6419	-0.4926	-1.5450	0.0184	-0.0079	0.0110	29.5311	-27.1844	28.1230	0.5940	-0.3422	0.6794	0.2616
3.28	-9.6430	-0.4885	-1.5415	0.0215	-0.0150	0.0135	29.3222	-27.1605	28.3437	0.5941	-0.3421	0.6794	0.2616
3.29	-9.6422	-0.4885	-1.5367	0.0220	-0.0078	0.0120	29.3838	-27.3345	28.7263	0.5941	-0.3421	0.6794	0.2616
3.3	-9.6397	-0.4884	-1.5347	0.0184	-0.0004	0.0116	29.4225	-27.3073	28.4177	0.5941	-0.3421	0.6794	0.2616
3.31	-9.6390	-0.4886	-1.5338	0.0183	-0.0063	0.0119	29.3977	-27.2239	28.3699	0.5941	-0.3421	0.6794	0.2616
3.32	-9.6440	-0.4885	-1.5323	0.0220	-0.0033	0.0111	29.2681	-27.2388	28.5550	0.5941	-0.3421	0.6795	0.2616
3.33	-9.6448	-0.4899	-1.5305	0.0214	-0.0092	0.0148	29.4973	-27.2401	28.4755	0.5941	-0.3420	0.6795	0.2616
3.34	-9.6455	-0.4918	-1.5302	0.0187	-0.0115	0.0149	29.4816	-27.2187	28.3616	0.5941	-0.3420	0.6795	0.2616
3.35	-9.6427	-0.4928	-1.5298	0.0194	-0.0058	0.0110	29.2683	-27.2686	28.3621	0.5941	-0.3420	0.6795	0.2616
3.36	-9.6352	-0.4908	-1.5263	0.0189	-0.0084	0.0134	29.4123	-27.1487	28.4228	0.5941	-0.3420	0.6795	0.2616
3.37	-9.6413	-0.4929	-1.5235	0.0190	-0.0085	0.0099	29.4141	-27.2336	28.5634	0.5941	-0.3420	0.6795	0.2616
3.38	-9.6445	-0.4936	-1.5197	0.0192	-0.0143	0.0158	29.1943	-27.4381	28.4403	0.5941	-0.3419	0.6794	0.2616
3.39	-9.6418	-0.4908	-1.5293	0.0190	-0.0133	0.0163	29.3315	-27.2458	28.4551	0.5942	-0.3419	0.6794	0.2616
3.4	-9.6403	-0.4908	-1.5270	0.0193	-0.0094	0.0150	29.5256	-27.4804	28.2055	0.5942	-0.3419	0.6794	0.2617
3.41	-9.6413	-0.4876	-1.5316	0.0184	-0.0072	0.0139	29.4730	-27.4881	28.1971	0.5942	-0.3418	0.6794	0.2617
3.42	-9.6502	-0.4858	-1.5361	0.0140	-0.0134	0.0131	29.4147	-27.4693	28.3547	0.5942	-0.3418	0.6794	0.2617
3.43	-9.6453	-0.4924	-1.5341	0.0196	-0.0174	0.0079	29.3628	-27.2953	28.3751	0.5942	-0.3418	0.6794	0.2617
3.44	-9.6402	-0.4934	-1.5388	0.0153	-0.0070	0.0137	29.3018	-27.1055	28.3864	0.5942	-0.3418	0.6794	0.2617
3.45	-9.6464	-0.4933	-1.5391	0.0214	-0.0084	0.0156	29.4631	-27.3113	28.1331	0.5942	-0.3418	0.6794	0.2618
3.46	-9.6441	-0.4935	-1.5432	0.0200	-0.0139	0.0132	29.3458	-27.4010	28.4623	0.5943	-0.3417	0.6794	0.2618
3.47	-9.6455	-0.4884	-1.5459	0.0191	-0.0162	0.0141	29.3628	-27.4824	28.3306	0.5943	-0.3417	0.6793	0.2618
3.48	-9.6450	-0.4861	-1.5480	0.0179	-0.0094	0.0114	29.6194	-27.3867	28.2703	0.5943	-0.3417	0.6793	0.2618
3.49	-9.6488	-0.4839	-1.5509	0.0187	-0.0053	0.0122	29.5276	-27.1959	28.4207	0.5943	-0.3417	0.6793	0.2618
3.5	-9.6432	-0.4853	-1.5502	0.0200	-0.0066	0.0113	29.4768	-27.4065	28.5327	0.5943	-0.3417	0.6793	0.2618
3.51	-9.6440	-0.4850	-1.5465	0.0161	-0.0097	0.0150	29.4866	-27.1026	28.5535	0.5943	-0.3416	0.6793	0.2618
3.52	-9.6461	-0.4827	-1.5423	0.0191	-0.0091	0.0143	29.4938	-27.2970	28.5558	0.5943	-0.3416	0.6793	0.2618
3.53	-9.6393	-0.4818	-1.5365	0.0191	-0.0043	0.0098	29.3288	-27.2747	28.5195	0.5943	-0.3416	0.6794	0.2618
3.54	-9.6460	-0.4871	-1.5364	0.0175	-0.0050	0.0064	29.3876	-27.2434	28.4071	0.5943	-0.3416	0.6793	0.2618
3.55	-9.6411	-0.4932	-1.5362	0.0155	-0.0091	0.0128	29.4149	-27.1297	28.6641	0.5943	-0.3416	0.6793	0.2618
3.56	-9.6402	-0.4967	-1.5291	0.0201	-0.0147	0.0114	29.3953	-27.2051	28.6107	0.5944	-0.3416	0.6793	0.2619
3.57	-9.6426	-0.4951	-1.5214	0.0187	-0.0132	0.0125	29.4286	-27.3546	28.3127	0.5944	-0.3416	0.6793	0.2619
3.58	-9.6478	-0.4968	-1.5332	0.0212	-0.0127	0.0118	29.6728	-27.2996	28.2748	0.5944	-0.3415	0.6793	0.2619
3.59	-9.6411	-0.4956	-1.5315	0.0187	-0.0092	0.0118	29.5515	-27.3052	28.3972	0.5944	-0.3415	0.6793	0.2619
3.6	-9.6363	-0.4911	-1.5192	0.0199	-0.0077	0.0155	29.2236	-27.3647	28.3643	0.5944	-0.3415	0.6793	0.2619
3.61	-9.6449	-0.4870	-1.5236	0.0227	-0.0038	0.0132	29.5039	-27.3745	28.3851	0.5944	-0.3415	0.6793	0.2619
3.62	-9.6460	-0.4867	-1.5237	0.0241	-0.0065	0.0112	29.4692	-27.2014	28.3623	0.5944	-0.3415	0.6793	0.2619
3.63	-9.6410	-0.4844	-1.5167	0.0206	-0.0091	0.0116	29.4337	-27.2574	28.4973	0.5944	-0.3414	0.6793	0.2619
3.64	-9.6436	-0.4837	-1.5159	0.0191	-0.0046	0.0127	29.6432	-27.3551	28.4220	0.5944	-0.3414	0.6793	0.2619
3.65	-9.6427	-0.4890	-1.5157	0.0184	-0.0126	0.0096	29.9481	-26.8759	28.6204	0.5945	-0.3414	0.6793	0.2619
3.66	-9.6405	-0.4869	-1.5108	0.0196	-0.0103	0.0092	29.5889	-27.2955	28.6129	0.5945	-0.3414	0.6793	0.2619
3.67	-9.6429	-0.4867	-1.5182	0.0136	-0.0010	0.0056	29.4924	-27.9115	28.3711	0.5945	-0.3414	0.6793	0.2619
3.68	-9.6442	-0.4906	-1.5206	0.0157	0.0061	0.0082	29.4964	-28.0602	28.4070	0.5944	-0.3415	0.6793	0.2619
3.69	-9.6452	-0.4937	-1.5266	0.0191	0.0010	0.0098	29.2290	-27.1960	28.4033	0.5944	-0.3415	0.6794	0.2618
3.7	-9.6428	-0.4959	-1.5299	0.0162	-0.0009	0.0075	29.2836	-27.2779	28.4167	0.5944	-0.3415	0.6794	0.2618
3.71	-9.6384	-0.5015	-1.5368	0.0174	0.0063	0.0067	29.3080	-27.0689	28.5418	0.5944	-0.3415	0.6794	0.2618
3.72	-9.6440	-0.5054	-1.5478	0.0216	0.0009	0.0011	29.3440	-27.2056	28.6381	0.5943	-0.3415	0.6794	0.2618
3.73	-9.6372	-0.5090	-1.5548	0.0192	-0.0033	0.0080	29.5453	-27.4473	28.2786	0.5943	-0.3415	0.6794	0.2617
3.74	-9.6379	-0.5074	-1.5562	0.0191	-0.0010	0.0098	29.3617	-27.2867	28.2582	0.5943	-0.3415	0.6794	0.2617
3.75	-9.6481	-0.5055	-1.5598	0.0170	-0.0105	0.0081	29.0850	-27.2179	28.5287	0.5943	-0.3415	0.6794	0.2617
3.76	-9.6497	-0.5070	-1.5617	0.0167	0.0068	0.0119	29.4585	-27.4127	28.4113	0.5943	-0.3415	0.6794	0.2617
3.77	-9.6506	-0.4966	-1.5610	0.0178	-0.0012	0.0062	29.5250	-27.5083	28.3195	0.5943	-0.3416	0.6795	0.2617
3.78	-9.6435	-0.4979	-1.5551	0.0122	-0.0102	0.0086	29.2544	-27.3720	28.3303	0.5943	-0.3416	0.6794	0.2617
3.79	-9.6424	-0.4991	-1.5529	0.0137	-0.0026	0.0104	29.3465	-27.4961	28.3133	0.5943	-0.3416	0.6794	0.2617
3.8	-9.6488	-0.5019	-1.5607	0.0151	-0.0056	0.0080	29.4359	-27.5064	28.4249	0.5943	-0.3416	0.6794	0.2617
3.81	-9.6442	-0.4991	-1.5549	0.0165	-0.0096	0.0075	29.3556	-27.4852	28.4140	0.5943	-0.3416	0.6794	0.2617
3.82	-9.6397	-0.4962	-1.5489	0.0159	-0.0086	0.0073	29.4800	-27.3532	28.4170	0.5943	-0.3416	0.6794	0.2617
3.83	-9.6431	-0.4973	-1.5479	0.0147	-0.0052	0.0098	29.3548	-27.3053	28.3993	0.5943	-0.3416	0.6794	0.2617
3.84	-9.6446	-0.4942	-1.5533	0.0128	-0.0110	0.0097	29.2622	-27.4689	28.5240	0.5943	-0.3416	0.6794	0.2618
3.85	-9.6458	-0.4869	-1.5466	0.0133	-0.0101	0.0121	29.2890	-27.2074	28.1958	0.5943	-0.3417	0.6794	0.2618
3.86	-9.6499	-0.4729	-1.5578	0.0189	-0.0075	0.0100	29.2541	-27.2227	28.5729	0.5943	-0.3416	0.6794	0.2618
3.87	-9.6462	-0.4721	-1.5551	0.0145	-0.0039	0.0019	29.3615	-27.2592	28.4975	0.5943	-0.3417	0.6794	0.2618
3.88	-9.6465	-0.4672	-1.5545	0.0141	-0.0107	0.0057	29.3464	-27.2694	28.4076	0.5943	-0.3417	0.6793	0.2618
3.89	-9.6535	-0.4643	-1.5566	0.0150	-0.0072	0.0059	29.2223	-27.3431	28.5234	0.5943	-0.3417	0.6793	0.2618
3.9	-9.6444	-0.4661	-1.5475	0.0160	-0.0042	0.0025	29.4106	-27.1221	28.4962	0.5943	-0.3418	0.6793	0.2618
3.91	-9.6351	-0.4660	-1.5406	0.0169	-0.0069	0.0073	29.5537	-27.3685	28.3976	0.5943	-0.3418	0.6793	0.2617
3.92	-9.6455	-0.4635	-1.5392	0.0122	-0.0041	0.0059	29.2371	-27.4350	28.3202	0.5943	-0.3418	0.6793	0.2617
3.93	-9.6497	-0.4601	-1.5392	0.0157	-0.0103	0.0065	29.3869	-27.3786	28.5006	0.5943	-0.3418	0.6793	0.2617
3.94	-9.6428	-0.4568	-1.5207	0.0136	-0.0119	0.0086	29.1603	-27.2244	28.5083	0.5943	-0.3418	0.6793	0.2618
3.95	-9.6486	-0.4570	-1.5228	0.0185	-0.0121	0.0118	29.3499	-27.3895	28.3624	0.5944	-0.3418	0.6792	0.2618
3.96	-9.6527	-0.4513	-1.5268	0.0154	-0.0108	0.0071	29.5586	-27.3856	28.3532	0.5944	-0.3418	0.6792	0.2618
3.97	-9.6455	-0.4470	-1.5176	0.0167	-0.0097	0.0077	29.5552	-27.2843	28.4655	0.5944	-0.3418	0.6792	0.2618
3.98	-9.6502	-0.4388	-1.5164	0.0168	-0.0129	0.0082	29.6309	-27.5284	28.2110	0.5944	-0.3418	0.6792	0.2618
3.99	-9.6507	-0.4391	-1.5243	0.0171	-0.0101	0.0050	29.4691	-27.3574	28.2633	0.5944	-0.3418	0.6792	0.2618
4	-9.6497	-0.4461	-1.5260	0.0137	-0.0089	0.0081	29.4110	-27.3225	28.3969	0.5944	-0.3418	0.6792	0.2618
4.01	-9.6492	-0.4587	-1.5289	0.0148	-0.0130	0.0110	29.5272	-27.3419	28.4385	0.5944	-0.3418	0.6791	0.2618
4.02	-9.6485	-0.4771	-1.5401	0.0182	-0.0104	0.0087	29.5036	-27.3124	28.1905	0.5945	-0.3418	0.6791	0.2618
4.03	-9.6438	-0.5031	-1.5489	0.0124	-0.0087	0.0076	29.4345	-27.5110	28.2997	0.5945	-0.3419	0.6791	0.2618
4.04	-9.6435	-0.5279	-1.5578	0.0113	-0.0115	0.0068	29.3878	-27.3941	28.5940	0.5945	-0.3419	0.6791	0.2619
4.05	-9.6426	-0.5465	-1.5690	0.0082	-0.0019	0.0061	29.2449	-27.1420	28.5754	0.5945	-0.3419	0.6791	0.2619
4.06	-9.6408	-0.5616	-1.5706	0.0128	-0.0039	0.0095	29.3937	-27.1790	28.4758	0.5944	-0.3419	0.6791	0.2619
4.07	-9.6402	-0.5733	-1.5676	0.0199	-0.0080	0.0042	29.3017	-27.3427	28.5034	0.5945	-0.3420	0.6791	0.2619
4.08	-9.6315	-0.5810	-1.5600	0.0182	-0.0033	0.0045	29.1965	-27.2671	28.4994	0.5944	-0.3420	0.6791	0.2618
4.09	-9.6351	-0.5841	-1.5578	0.0142	-0.0063	0.0054	29.1827	-27.1652	28.3882	0.5944	-0.3420	0.6790	0.2618
4.1	-9.6445	-0.5781	-1.5576	0.0135	-0.0117	0.0076	29.2248	-27.2821	28.2819	0.5945	-0.3420	0.6790	0.2618
4.11	-9.6353	-0.5636	-1.5361	0.0178	-0.0164	0.0040	29.3386	-27.2424	28.3890	0.5945	-0.3420	0.6790	0.2618
4.12	-9.6400	-0.5507	-1.5297	0.0099	-0.0139	0.0081	29.4496	-27.2511	28.4938	0.5945	-0.3420	0.6790	0.2619
4.13	-9.6432	-0.5299	-1.5168	0.0082	-0.0128	0.0090	29.3044	-27.2616	28.6236	0.5945	-0.3421	0.6789	0.2619
4.14	-9.6371	-0.5133	-1.4985	0.0143	-0.0156	0.0102	29.6256	-27.3836	28.5325	0.5945	-0.3421	0.6789	0.2619
4.15	-9.6337	-0.5014	-1.4788	0.0191	-0.0062	0.0110	30.4188	-27.1506	28.7952	0.5945	-0.3421	0.6789	0.2619
4.16	-9.6355	-0.4941	-1.4728	0.0189	-0.0097	0.0115	29.9782	-27.3865	28.5729	0.5945	-0.3420	0.6789	0.2619
4.17	-9.6408	-0.4848	-1.4680	0.0183	-0.0140	0.0103	29.5942	-28.2044	28.2717	0.5946	-0.3420	0.6789	0.2620
4.18	-9.6294	-0.4803	-1.4466	0.0214	-0.0152	0.0207	29.6038	-28.3152	28.2407	0.5946	-0.3420	0.6789	0.2620
4.19	-9.6415	-0.4777	-1.4501	0.0229	-0.0111	0.0169	29.3690	-27.1268	28.2720	0.5946	-0.3419	0.6789	0.2620
4.2	-9.6471	-0.4687	-1.4548	0.0185	-0.0083	0.0201	29.5322	-27.3902	28.4420	0.5946	-0.3419	0.6789	0.2620
4.21	-9.6351	-0.4657	-1.4475	0.0192	-0.0119	0.0147	29.4472	-27.2265	28.4933	0.5946	-0.3419	0.6789	0.2620
4.22	-9.6400	-0.4623	-1.4662	0.0187	-0.0068	0.0136	29.5793	-27.3108	28.4281	0.5946	-0.3418	0.6789	0.2620
4.23	-9.6537	-0.4645	-1.4885	0.0191	-0.0097	0.0165	29.4895	-27.3095	28.2646	0.5946	-0.3418	0.6789	0.2621
4.24	-9.6502	-0.4682	-1.5070	0.0189	-0.0079	0.0134	29.3683	-27.1223	28.4712	0.5946	-0.3418	0.6789	0.2621
4.25	-9.6466	-0.4733	-1.5242	0.0181	-0.0052	0.0108	29.3016	-27.3345	28.2152	0.5946	-0.3418	0.6789	0.2621
4.26	-9.6520	-0.4803	-1.5494	0.0180	-0.0022	0.0085	29.4227	-27.3099	28.3623	0.5946	-0.3418	0.6789	0.2621
4.27	-9.6513	-0.4833	-1.5719	0.0183	-0.0007	0.0127	29.3859	-27.3243	28.6090	0.5946	-0.3418	0.6790	0.2621
4.28	-9.6392	-0.4840	-1.5778	0.0176	-0.0084	0.0058	29.4545	-27.1803	28.2491	0.5946	-0.3418	0.6790	0.2620
4.29	-9.6487	-0.4835	-1.5873	0.0195	-0.0083	0.0112	29.5163	-27.3352	28.1848	0.5946	-0.3418	0.6789	0.2620
4.3	-9.6568	-0.4844	-1.6118	0.0193	-0.0055	0.0132	29.4111	-27.2201	28.3281	0.5946	-0.3418	0.6790	0.2620
4.31	-9.6503	-0.4836	-1.6153	0.0187	-0.0105	0.0169	29.3822	-27.1521	28.4893	0.5946	-0.3418	0.6790	0.2621
4.32	-9.6529	-0.4813	-1.6179	0.0187	-0.0145	0.0137	29.3041	-27.3015	28.4992	0.5946	-0.3417	0.6790	0.2621
4.33	-9.6565	-0.4829	-1.6193	0.0197	-0.0089	0.0100	29.3832	-27.3997	28.3736	0.5946	-0.3417	0.6789	0.2621
4.34	-9.6540	-0.4800	-1.6180	0.0204	-0.0114	0.0131	29.5451	-27.3969	28.4440	0.5946	-0.3417	0.6789	0.2621
4.35	-9.6478	-0.4798	-1.6019	0.0190	-0.0099	0.0144	29.5118	-27.4095	28.4084	0.5946	-0.3417	0.6789	0.2621
4.36	-9.6511	-0.4815	-1.5924	0.0188	-0.0122	0.0127	29.3677	-27.3535	28.0930	0.5947	-0.3417	0.6789	0.2621
4.37	-9.6424	-0.4790	-1.5760	0.0192	-0.0088	0.0135	29.5066	-27.2190	28.5445	0.5947	-0.3416	0.6789	0.2621
4.38	-9.6365	-0.4746	-1.5542	0.0180	-0.0089	0.0116	29.3886	-27.2418	28.3181	0.5947	-0.3416	0.6789	0.2621
4.39	-9.6433	-0.4699	-1.5326	0.0198	-0.0099	0.0093	29.5707	-27.2301	28.3197	0.5947	-0.3416	0.6789	0.2621
4.4	-9.6427	-0.4704	-1.5130	0.0178	-0.0107	0.0124	29.5751	-27.2319	28.2288	0.5947	-0.3416	0.6789	0.2621
4.41	-9.6405	-0.4674	-1.4966	0.0224	-0.0127	0.0116	29.5771	-27.2307	28.2038	0.5947	-0.3416	0.6789	0.2621
4.42	-9.6385	-0.4692	-1.4796	0.0240	-0.0117	0.0116	29.3345	-27.3592	28.3647	0.5947	-0.3415	0.6789	0.2621
4.43	-9.6423	-0.4725	-1.4712	0.0180	-0.0090	0.0131	29.5267	-27.2467	28.4002	0.5947	-0.3415	0.6789	0.2621
4.44	-9.6421	-0.4778	-1.4632	0.0189	-0.0038	0.0122	29.3121	-27.2299	28.3817	0.5947	-0.3415	0.6789	0.2621
4.45	-9.6307	-0.4805	-1.4535	0.0158	-0.0078	0.0111	29.3538	-27.2439	28.3931	0.5947	-0.3415	0.6789	0.2621
4.46	-9.6395	-0.4865	-1.4550	0.0175	-0.0062	0.0114	29.4140	-27.2292	28.2284	0.5947	-0.3415	0.6789	0.2621
4.47	-9.6360	-0.4949	-1.4516	0.0197	-0.0040	0.0161	29.4707	-27.2426	28.4816	0.5947	-0.3415	0.6790	0.2621
4.48	-9.6289	-0.5039	-1.4458	0.0203	-0.0101	0.0165	29.4929	-27.2191	28.4594	0.5947	-0.3415	0.6790	0.2621
4.49	-9.6313	-0.5129	-1.4509	0.0187	-0.0047	0.0138	29.3826	-27.3821	28.5301	0.5947	-0.3415	0.6790	0.2621
4.5	-9.6355	-0.5199	-1.4560	0.0191	-0.0061	0.0163	29.2371	-27.3754	28.3169	0.5947	-0.3414	0.6790	0.2622
4.51	-9.6268	-0.5402	-1.4656	0.0205	-0.0100	0.0135	29.3941	-27.2237	28.0709	0.5947	-0.3414	0.6790	0.2622
4.52	-9.6343	-0.5648	-1.4806	0.0196	-0.0064	0.0101	29.6129	-27.1396	28.3586	0.5947	-0.3414	0.6790	0.2622
4.53	-9.6285	-0.5839	-1.4830	0.0190	-0.0031	0.0154	29.5394	-27.1651	28.4121	0.5947	-0.3414	0.6790	0.2622
4.54	-9.6296	-0.6107	-1.5011	0.0248	-0.0042	0.0099	29.3953	-27.3351	28.3228	0.5947	-0.3414	0.6790	0.2621
4.55	-9.6243	-0.6103	-1.4875	0.0181	-0.0113	0.0148	29.5099	-27.3011	28.2167	0.5947	-0.3413	0.6790	0.2621
4.56	-9.6440	-0.6242	-1.5066	0.0248	-0.0051	0.0165	29.5677	-27.1264	28.3028	0.5947	-0.3413	0.6791	0.2621
4.57	-9.5986	-0.5883	-1.4673	0.0229	-0.0014	0.0270	29.4579	-27.3179	28.3565	0.5947	-0.3412	0.6791	0.2622
4.58	-9.6989	-0.5970	-1.5518	0.0181	0.0039	0.0248	29.5155	-27.3139	28.4047	0.5946	-0.3412	0.6792	0.2622
4.59	-9.6688	-0.5705	-1.5286	0.0222	-0.0003	0.0148	29.3841	-27.4042	28.3958	0.5946	-0.3412	0.6792	0.2622
4.6	-9.4715	-0.4705	-1.3886	0.0226	-0.0097	0.0244	29.3018	-27.2916	28.5022	0.5946	-0.3411	0.6792	0.2622
4.61	-9.6942	-0.4885	-1.5869	0.0192	0.0081	0.0187	29.3621	-27.3468	28.4675	0.5945	-0.3411	0.6793	0.2622
4.62	-9.7192	-0.4277	-1.5738	0.0195	0.0062	0.0159	29.2043	-27.2252	28.4750	0.5945	-0.3411	0.6794	0.2622
4.63	-9.6314	-0.3986	-1.5418	0.0178	0.0018	0.0204	29.5067	-27.3466	28.4849	0.5944	-0.3411	0.6794	0.2622
4.64	-9.5928	-0.3495	-1.5028	0.0171	0.0013	0.0131	29.5543	-27.2849	28.6397	0.5944	-0.3411	0.6794	0.2622
4.65	-9.6879	-0.3355	-1.6101	0.0160	0.0132	0.0118	29.9233	-27.0754	28.6694	0.5943	-0.3411	0.6795	0.2622
4.66	-9.6721	-0.3154	-1.6147	0.0079	0.0027	0.0117	29.6010	-27.2600	28.5890	0.5943	-0.3411	0.6795	0.2622
4.67	-9.6603	-0.3225	-1.6162	0.0111	0.0092	0.0117	29.4343	-27.9953	28.5453	0.5942	-0.3412	0.6795	0.2622
4.68	-9.6440	-0.3227	-1.6207	0.0088	0.0073	0.0075	29.4191	-28.2215	28.4969	0.5941	-0.3412	0.6796	0.2622
4.69	-9.6602	-0.3517	-1.6303	0.0057	0.0013	0.0115	29.1304	-27.1455	28.4867	0.5941	-0.3413	0.6796	0.2622
4.7	-9.6832	-0.3777	-1.6558	0.0027	-0.0068	0.0089	29.3468	-27.5072	28.3593	0.5941	-0.3413	0.6796	0.2622
4.71	-9.6452	-0.3884	-1.6454	0.0150	-0.0062	0.0076	29.5060	-27.4458	28.3273	0.5941	-0.3413	0.6796	0.2622
4.72	-9.6503	-0.4174	-1.6821	0.0125	-0.0048	0.0070	29.5283	-27.3922	28.5031	0.5940	-0.3414	0.6796	0.2622
4.73	-9.6538	-0.4342	-1.7046	0.0113	-0.0137	0.0063	29.5121	-27.4283	28.4910	0.5941	-0.3414	0.6795	0.2623
4.74	-9.6768	-0.4524	-1.7322	0.0144	-0.0066	0.0023	29.6373	-27.2692	28.3593	0.5941	-0.3414	0.6795	0.2623
4.75	-9.6341	-0.4468	-1.7146	0.0186	-0.0096	0.0021	29.3712	-27.2380	28.4714	0.5941	-0.3414	0.6795	0.2622
4.76	-9.7306	-0.4871	-1.7797	0.0117	-0.0063	0.0041	29.3601	-27.3030	28.4720	0.5941	-0.3415	0.6795	0.2622
4.77	-9.6178	-0.4738	-1.6901	0.0086	-0.0127	0.0055	29.3399	-27.4747	28.6180	0.5941	-0.3415	0.6794	0.2622
4.78	-9.5884	-0.4720	-1.6658	0.0144	-0.0173	0.0057	29.4067	-27.4434	28.4934	0.5941	-0.3415	0.6794	0.2623
4.79	-9.7154	-0.4681	-1.7317	0.0127	-0.0139	0.0085	29.4209	-27.2130	28.3400	0.5941	-0.3415	0.6794	0.2623
4.8	-9.6639	-0.4865	-1.6717	0.0097	-0.0106	-0.0003	29.1692	-27.3510	28.5119	0.5942	-0.3416	0.6793	0.2623
4.81	-9.6356	-0.4885	-1.6366	0.0069	-0.0207	-0.0025	29.0946	-27.2290	28.5691	0.5942	-0.3417	0.6793	0.2623
4.82	-9.6187	-0.5158	-1.6105	0.0121	-0.0199	0.0028	29.1770	-27.0942	28.3763	0.5942	-0.3417	0.6792	0.2623
4.83	-9.6486	-0.5310	-1.6314	0.0102	-0.0175	0.0021	29.4820	-27.1311	28.4785	0.5943	-0.3417	0.6791	0.2623
4.84	-9.6459	-0.5606	-1.5818	0.0014	-0.0197	-0.0018	29.3119	-27.3724	28.3924	0.5943	-0.3418	0.6791	0.2624
4.85	-9.6607	-0.5768	-1.5616	0.0093	-0.0214	0.0012	29.3095	-27.3088	28.3968	0.5943	-0.3418	0.6790	0.2624
4.86	-9.6194	-0.5893	-1.5145	0.0047	-0.0130	0.0009	29.3740	-27.3594	28.3893	0.5944	-0.3419	0.6790	0.2624
4.87	-9.6163	-0.6051	-1.4628	0.0104	-0.0156	0.0037	29.4199	-27.2239	28.4776	0.5944	-0.3419	0.6789	0.2624
4.88	-9.6445	-0.6100	-1.4645	0.0142	-0.0212	0.0087	29.5605	-27.3766	28.5086	0.5944	-0.3419	0.6789	0.2625
4.89	-9.6291	-0.6145	-1.4108	0.0167	-0.0131	0.0039	29.4759	-27.5567	28.4369	0.5944	-0.3420	0.6788	0.2625
4.9	-9.6286	-0.5960	-1.3904	0.0176	-0.0157	0.0069	29.6404	-27.3800	28.1045	0.5945	-0.3420	0.6788	0.2625
4.91	-9.6050	-0.5580	-1.3538	0.0188	-0.0130	0.0086	29.4854	-27.4411	28.2616	0.5945	-0.3420	0.6788	0.2625
4.92	-9.6247	-0.5341	-1.3562	0.0234	-0.0101	0.0084	29.4705	-27.4784	28.4439	0.5945	-0.3419	0.6788	0.2624
4.93	-9.6414	-0.5011	-1.3585	0.0192	-0.0153	0.0103	29.5235	-27.5713	28.3844	0.5945	-0.3419	0.6788	0.2624
4.94	-9.6150	-0.4807	-1.3336	0.0190	-0.0082	0.0070	29.6074	-27.4956	28.4346	0.5946	-0.3419	0.6788	0.2624
4.95	-9.6293	-0.4803	-1.3475	0.0166	-0.0080	0.0070	29.5833	-27.4037	28.2658	0.5946	-0.3420	0.6788	0.2624
4.96	-9.6274	-0.4868	-1.3475	0.0195	-0.0108	0.0058	29.3865	-27.3702	28.3954	0.5946	-0.3420	0.6787	0.2624
4.97	-9.6269	-0.5039	-1.3594	0.0158	-0.0074	0.0069	29.4791	-27.3552	28.6123	0.5946	-0.3420	0.6787	0.2624
4.98	-9.6291	-0.5177	-1.3881	0.0136	-0.0074	0.0092	29.3246	-27.5469	28.3803	0.5946	-0.3420	0.6787	0.2624
4.99	-9.6272	-0.5280	-1.4127	0.0147	-0.0040	0.0042	29.4018	-27.3289	28.5243	0.5946	-0.3420	0.6787	0.2624
5	-9.6389	-0.5342	-1.4669	0.0178	0.0071	0.0086	29.4345	-27.3686	28.4344	0.5945	-0.3421	0.6788	0.2623
5.01	-9.6282	-0.5415	-1.4867	0.0188	0.0064	0.0088	29.1747	-27.1669	28.2990	0.5945	-0.3421	0.6788	0.2623
5.02	-9.6421	-0.5388	-1.5246	0.0198	0.0056	0.0082	29.3150	-27.0823	28.2010	0.5944	-0.3421	0.6788	0.2623
5.03	-9.6487	-0.5295	-1.5554	0.0187	0.0074	0.0131	29.3798	-27.1888	28.3639	0.5944	-0.3421	0.6789	0.2622
5.04	-9.6359	-0.5094	-1.5617	0.0193	-0.0006	0.0097	29.3504	-27.1849	28.2038	0.5943	-0.3421	0.6789	0.2622
5.05	-9.6506	-0.4922	-1.5929	0.0168	-0.0029	0.0075	29.3845	-27.4599	28.2521	0.5943	-0.3421	0.6789	0.2622
5.06	-9.6519	-0.4837	-1.6126	0.0195	-0.0011	0.0086	29.3337	-27.2611	28.1669	0.5943	-0.3422	0.6790	0.2622
5.07	-9.6491	-0.4756	-1.6125	0.0163	0.0012	0.0086	29.2823	-27.2816	28.3699	0.5943	-0.3422	0.6790	0.2622
5.08	-9.6450	-0.4672	-1.6151	0.0121	0.0015	0.0111	29.5263	-27.4195	28.6249	0.5942	-0.3422	0.6790	0.2622
5.09	-9.6584	-0.4553	-1.6231	0.0194	0.0020	0.0074	29.5211	-27.4110	28.4633	0.5942	-0.3422	0.6790	0.2621
5.1	-9.6646	-0.4482	-1.6236	0.0187	-0.0000	0.0070	29.5184	-27.3967	28.3506	0.5942	-0.3423	0.6790	0.2621
5.11	-9.6502	-0.4515	-1.6174	0.0191	-0.0017	0.0111	29.5315	-27.2325	28.3249	0.5942	-0.3423	0.6791	0.2621
5.12	-9.6575	-0.4595	-1.6239	0.0191	-0.0039	0.0093	29.5076	-27.3251	28.6135	0.5942	-0.3423	0.6791	0.2621
5.13	-9.6547	-0.4628	-1.6254	0.0168	-0.0114	0.0118	29.4306	-27.3426	28.5445	0.5942	-0.3423	0.6791	0.2621
5.14	-9.6514	-0.4516	-1.6332	0.0195	-0.0085	0.0106	29.7612	-27.4603	28.4791	0.5942	-0.3423	0.6791	0.2621
5.15	-9.6420	-0.4401	-1.6172	0.0183	-0.0140	0.0092	30.2183	-27.1911	28.7995	0.5942	-0.3423	0.6790	0.2621
5.16	-9.6451	-0.4305	-1.6134	0.0280	-0.0117	0.0150	29.9274	-27.2325	28.5726	0.5942	-0.3422	0.6790	0.2620
5.17	-9.6494	-0.4249	-1.6020	0.0217	-0.0079	0.0110	29.3304	-28.0385	28.4576	0.5942	-0.3422	0.6791	0.2620
5.18	-9.6466	-0.4208	-1.5836	0.0207	-0.0058	0.0133	29.6471	-28.1452	28.3831	0.5942	-0.3422	0.6791	0.2620
5.19	-9.6378	-0.4401	-1.5529	0.0218	-0.0096	0.0130	29.4087	-27.3659	28.2768	0.5943	-0.3422	0.6791	0.2620
5.2	-9.6500	-0.4473	-1.5519	0.0216	-0.0080	0.0142	29.2096	-27.3778	28.5703	0.5943	-0.3421	0.6791	0.2620
5.21	-9.6527	-0.4462	-1.5516	0.0215	-0.0051	0.0119	29.4109	-27.1056	28.5641	0.5943	-0.3421	0.6791	0.2620
5.22	-9.6426	-0.4443	-1.5356	0.0235	-0.0070	0.0109	29.3774	-27.3923	28.6123	0.5943	-0.3421	0.6791	0.2620
5.23	-9.6492	-0.4460	-1.5395	0.0199	-0.0048	0.0103	29.5257	-27.1924	28.4656	0.5943	-0.3421	0.6791	0.2619
5.24	-9.6508	-0.4509	-1.5503	0.0182	-0.0148	0.0102	29.3126	-27.2971	28.4141	0.5943	-0.3421	0.6791	0.2619
5.25	-9.6504	-0.4628	-1.5440	0.0195	-0.0156	0.0094	29.2603	-27.3341	28.5416	0.5943	-0.3421	0.6791	0.2619
5.26	-9.6404	-0.4792	-1.5424	0.0182	-0.0152	0.0111	29.4205	-27.3314	28.3929	0.5943	-0.3421	0.6791	0.2619
5.27	-9.6403	-0.4906	-1.5469	0.0192	-0.0073	0.0131	29.5094	-27.3107	28.4215	0.5943	-0.3421	0.6791	0.2619
5.28	-9.6423	-0.5046	-1.5434	0.0185	-0.0116	0.0148	29.3119	-27.0934	28.3887	0.5943	-0.3421	0.6791	0.2620
5.29	-9.6409	-0.5209	-1.5297	0.0196	-0.0123	0.0102	29.4512	-27.5077	28.4327	0.5944	-0.3420	0.6791	0.2620
5.3	-9.6388	-0.5255	-1.5163	0.0165	-0.0123	0.0133	29.5180	-27.4034	28.3766	0.5944	-0.3420	0.6790	0.2620
5.31	-9.6449	-0.5246	-1.5180	0.0175	-0.0134	0.0165	29.3543	-27.0904	28.6985	0.5944	-0.3420	0.6790	0.2620
5.32	-9.6361	-0.5412	-1.5148	0.0142	-0.0120	0.0165	29.2804	-27.2511	28.5175	0.5944	-0.3420	0.6790	0.2620
5.33	-9.6387	-0.5364	-1.5127	0.0150	-0.0153	0.0107	29.2171	-27.5179	28.2780	0.5944	-0.3420	0.6790	0.2620
5.34	-9.6321	-0.5275	-1.4893	0.0208	-0.0112	0.0164	29.3740	-27.4696	28.4398	0.5944	-0.3420	0.6790	0.2621
5.35	-9.6383	-0.5265	-1.4824	0.0124	-0.0165	0.0157	29.3918	-27.2821	28.4036	0.5944	-0.3420	0.6790	0.2621
5.36	-9.6372	-0.5170	-1.4712	0.0162	-0.0140	0.0110	29.2602	-27.3624	28.3894	0.5945	-0.3420	0.6790	0.2621
5.37	-9.6324	-0.5070	-1.4492	0.0193	-0.0058	0.0112	29.2166	-27.2329	28.5085	0.5944	-0.3419	0.6790	0.2621
5.38	-9.6393	-0.4882	-1.4463	0.0184	-0.0106	0.0114	29.3975	-27.3524	28.4612	0.5944	-0.3419	0.6790	0.2621
5.39	-9.6317	-0.4696	-1.4331	0.0191	-0.0057	0.0111	29.3476	-27.3117	28.4260	0.5944	-0.3419	0.6790	0.2621
5.4	-9.6378	-0.4580	-1.4455	0.0177	0.0008	0.0130	29.3815	-27.3502	28.5538	0.5944	-0.3419	0.6790	0.2621
5.41	-9.6442	-0.4656	-1.4666	0.0183	-0.0024	0.0088	29.4977	-27.2140	28.2663	0.5944	-0.3420	0.6790	0.2621
5.42	-9.6357	-0.4707	-1.4786	0.0175	-0.0023	0.0077	29.4096	-27.2766	28.3704	0.5944	-0.3420	0.6790	0.2621
5.43	-9.6315	-0.4856	-1.4902	0.0192	-0.0065	0.0106	29.5097	-27.1613	28.4222	0.5944	-0.3420	0.6790	0.2620
5.44	-9.6505	-0.4912	-1.5218	0.0191	-0.0055	0.0122	29.1801	-27.2322	28.3837	0.5944	-0.3420	0.6791	0.2620
5.45	-9.6455	-0.5089	-1.5433	0.0186	-0.0075	0.0145	29.5074	-27.4532	28.5411	0.5944	-0.3420	0.6791	0.2620
5.46	-9.6264	-0.5225	-1.5438	0.0187	-0.0025	0.0149	29.5431	-27.5180	28.4484	0.5943	-0.3419	0.6791	0.2620
5.47	-9.6489	-0.5177	-1.5685	0.0189	-0.0068	0.0158	29.4676	-27.4064	28.3998	0.5943	-0.3419	0.6791	0.2620
5.48	-9.6524	-0.5068	-1.5739	0.0212	-0.0048	0.0078	29.4953	-27.4169	28.4164	0.5943	-0.3419	0.6791	0.2620
5.49	-9.6451	-0.4990	-1.5731	0.0204	-0.0025	0.0134	29.6058	-27.4871	28.5457	0.5943	-0.3419	0.6791	0.2620
5.5	-9.6433	-0.5046	-1.5836	0.0180	-0.0079	0.0145	29.4680	-27.1636	28.6134	0.5943	-0.3419	0.6791	0.2620
5.51	-9.6530	-0.5016	-1.5977	0.0193	-0.0093	0.0078	29.2983	-27.1603	28.4881	0.5943	-0.3419	0.6791	0.2620
5.52	-9.6401	-0.4871	-1.5907	0.0186	-0.0115	0.0130	29.3433	-27.1704	28.3892	0.5943	-0.3419	0.6791	0.2620
5.53	-9.6399	-0.4772	-1.5765	0.0193	-0.0080	0.0166	29.4542	-27.1442	28.4104	0.5943	-0.3419	0.6792	0.2620
5.54	-9.6636	-0.4824	-1.6053	0.0207	-0.0062	0.0127	29.5188	-27.2217	28.4053	0.5943	-0.3419	0.6792	0.2620
5.55	-9.6501	-0.4943	-1.5934	0.0171	-0.0007	0.0114	29.3847	-27.2625	28.4044	0.5943	-0.3419	0.6792	0.2620
5.56	-9.6318	-0.4972	-1.5707	0.0192	-0.0081	0.0089	29.4330	-27.2219	28.5267	0.5943	-0.3419	0.6792	0.2620
5.57	-9.6532	-0.5027	-1.5747	0.0174	-0.0076	0.0121	29.4999	-27.2879	28.4435	0.5943	-0.3419	0.6792	0.2620
5.58	-9.6524	-0.5154	-1.5779	0.0177	-0.0040	0.0104	29.2045	-27.4095	28.3731	0.5943	-0.3419	0.6792	0.2620
5.59	-9.6256	-0.5071	-1.5405	0.0194	-0.0096	0.0129	29.4658	-27.4263	28.5466	0.5943	-0.3419	0.6792	0.2620
5.6	-9.6441	-0.5255	-1.5382	0.0186	-0.0045	0.0081	29.3232	-27.3675	28.4323	0.5943	-0.3419	0.6792	0.2620
5.61	-9.6453	-0.5250	-1.5283	0.0189	-0.0072	0.0122	29.2187	-27.3220	28.4214	0.5943	-0.3419	0.6792	0.2620
5.62	-9.6335	-0.5163	-1.5054	0.0178	-0.0069	0.0112	29.2715	-27.3241	28.2907	0.5943	-0.3419	0.6792	0.2620
5.63	-9.6342	-0.4998	-1.4948	0.0182	-0.0118	0.0159	29.1280	-27.3545	28.4770	0.5943	-0.3418	0.6792	0.2620
5.64	-9.6475	-0.4833	-1.5048	0.0187	-0.0082	0.0146	29.5524	-27.4242	28.6046	0.5943	-0.3418	0.6792	0.2620
5.65	-9.6385	-0.4752	-1.4952	0.0187	-0.0086	0.0099	30.2813	-27.0657	28.6639	0.5943	-0.3418	0.6792	0.2620
5.66	-9.6465	-0.4696	-1.5070	0.0184	-0.0011	0.0117	29.9442	-27.2904	28.6143	0.5943	-0.3418	0.6792	0.2620
5.67	-9.6438	-0.4697	-1.5026	0.0193	-0.0104	0.0110	29.6554	-28.0376	28.3404	0.5943	-0.3418	0.6792	0.2620
5.68	-9.6522	-0.4751	-1.5170	0.0164	-0.0016	0.0100	29.6023	-28.5328	28.1937	0.5943	-0.3418	0.6792	0.2620
5.69	-9.6417	-0.4836	-1.5228	0.0134	-0.0066	0.0101	29.2056	-27.3550	28.3971	0.5943	-0.3418	0.6793	0.2620
5.7	-9.6290	-0.4831	-1.5131	0.0165	-0.0071	0.0074	29.3594	-27.2669	28.3770	0.5943	-0.3419	0.6792	0.2620
5.71	-9.6456	-0.4971	-1.5382	0.0174	-0.0032	0.0050	29.4215	-27.2897	28.4265	0.5942	-0.3419	0.6792	0.2619
5.72	-9.6464	-0.4919	-1.5415	0.0171	-0.0077	0.0107	29.3272	-27.5225	28.5197	0.5942	-0.3419	0.6792	0.2619
5.73	-9.6390	-0.4940	-1.5463	0.0178	-0.0104	0.0143	29.4565	-27.3087	28.3556	0.5943	-0.3419	0.6792	0.2620
5.74	-9.6356	-0.4890	-1.5466	0.0158	-0.0015	0.0080	29.3316	-27.1655	28.5441	0.5942	-0.3419	0.6793	0.2619
5.75	-9.6488	-0.4767	-1.5586	0.0170	-0.0044	0.0129	29.3624	-27.0280	28.5216	0.5942	-0.3419	0.6793	0.2619
5.76	-9.6453	-0.4820	-1.5633	0.0194	-0.0007	0.0049	29.3637	-27.1549	28.3648	0.5942	-0.3419	0.6793	0.2619
5.77	-9.6478	-0.4790	-1.5575	0.0187	-0.0030	0.0129	29.3456	-27.0789	28.3947	0.5942	-0.3419	0.6793	0.2619
5.78	-9.6463	-0.4733	-1.5531	0.0192	0.0014	0.0113	29.3949	-27.1480	28.3643	0.5942	-0.3419	0.6793	0.2619
5.79	-9.6444	-0.4731	-1.5487	0.0168	-0.0001	0.0133	29.2590	-27.0040	28.4470	0.5941	-0.3419	0.6793	0.2619
5.8	-9.6433	-0.4708	-1.5404	0.0165	-0.0011	0.0117	29.3883	-27.3492	28.4844	0.5941	-0.3419	0.6794	0.2619
5.81	-9.6402	-0.4624	-1.5282	0.0190	-0.0078	0.0109	29.3960	-27.3117	28.7022	0.5941	-0.3419	0.6794	0.2619
5.82	-9.6415	-0.4591	-1.5171	0.0183	-0.0051	0.0121	29.2529	-27.4847	28.4037	0.5941	-0.3419	0.6794	0.2619
5.83	-9.6545	-0.4444	-1.5131	0.0156	-0.0076	0.0071	29.5456	-27.4729	28.4609	0.5941	-0.3419	0.6794	0.2619
5.84	-9.6521	-0.4350	-1.5084	0.0117	-0.0076	0.0088	29.5186	-27.4922	28.5052	0.5941	-0.3420	0.6794	0.2619
5.85	-9.6511	-0.4594	-1.5189	0.0143	-0.0100	0.0082	29.3682	-27.3221	28.5857	0.5941	-0.3420	0.6794	0.2619
5.86	-9.6394	-0.4818	-1.5102	0.0159	-0.0076	0.0043	29.4135	-27.3713	28.2996	0.5941	-0.3420	0.6793	0.2619
5.87	-9.6432	-0.4850	-1.5311	0.0034	-0.0045	0.0060	29.4599	-27.4168	28.3897	0.5941	-0.3420	0.6793	0.2619
5.88	-9.6419	-0.4874	-1.5502	0.0098	-0.0017	-0.0002	29.4283	-27.2836	28.4984	0.5941	-0.3421	0.6793	0.2619
5.89	-9.6418	-0.4865	-1.5703	0.0186	-0.0024	0.0062	29.4471	-27.1744	28.2977	0.5940	-0.3421	0.6793	0.2619
5.9	-9.6520	-0.4856	-1.5748	0.0145	-0.0055	0.0069	29.4500	-27.1704	28.3044	0.5940	-0.3422	0.6793	0.2619
5.91	-9.6329	-0.4982	-1.5575	0.0037	-0.0079	0.0113	29.3522	-27.4759	28.2940	0.5940	-0.3422	0.6793	0.2619
5.92	-9.6307	-0.5054	-1.5476	0.0028	-0.0054	0.0118	29.4840	-27.2907	28.4578	0.5940	-0.3422	0.6793	0.2620
5.93	-9.6385	-0.5206	-1.5546	0.0143	-0.0089	0.0052	29.1690	-27.0744	28.4368	0.5940	-0.3423	0.6793	0.2620
5.94	-9.6499	-0.5124	-1.5546	0.0195	-0.0078	0.0119	29.3800	-27.3519	28.2623	0.5940	-0.3423	0.6793	0.2620
5.95	-9.6382	-0.4986	-1.5292	0.0188	-0.0071	0.0109	29.3294	-27.1972	28.4442	0.5940	-0.3423	0.6793	0.2620
5.96	-9.6310	-0.5061	-1.5186	0.0189	-0.0057	0.0090	29.3003	-27.2818	28.4496	0.5940	-0.3423	0.6793	0.2619
5.97	-9.6578	-0.5040	-1.5301	0.0192	-0.0054	0.0081	29.3889	-27.3568	28.3032	0.5940	-0.3423	0.6793	0.2619
5.98	-9.6570	-0.4895	-1.5289	0.0157	-0.0082	0.0066	29.3556	-27.1183	28.2819	0.5940	-0.3423	0.6793	0.2619
5.99	-9.6431	-0.4750	-1.5251	0.0145	-0.0050	0.0040	29.3496	-27.0697	28.3245	0.5940	-0.3423	0.6793	0.2619
6	-9.6350	-0.4725	-1.5232	0.0161	-0.0111	0.0084	29.2565	-27.2337	28.2134	0.5940	-0.3423	0.6793	0.2619
6.01	-9.6532	-0.4694	-1.5372	0.0136	-0.0050	0.0081	29.6415	-27.2323	28.2912	0.5940	-0.3423	0.6792	0.2619
6.02	-9.6448	-0.4925	-1.5296	0.0200	-0.0078	0.0073	29.5701	-27.2192	28.4041	0.5940	-0.3423	0.6792	0.2619
6.03	-9.6350	-0.5077	-1.5266	0.0162	-0.0063	0.0088	29.5258	-27.5274	28.4119	0.5940	-0.3424	0.6792	0.2619
6.04	-9.6439	-0.5225	-1.5314	0.0138	-0.0083	0.0079	29.4638	-27.3334	28.3176	0.5940	-0.3424	0.6792	0.2619
6.05	-9.6584	-0.5144	-1.5665	0.0187	-0.0096	0.0124	29.4302	-27.2404	28.3019	0.5940	-0.3424	0.6792	0.2619
6.06	-9.6331	-0.5111	-1.5524	0.0191	-0.0011	0.0130	29.5546	-27.2901	28.2812	0.5940	-0.3424	0.6793	0.2619
6.07	-9.6387	-0.5083	-1.5607	0.0173	-0.0045	0.0101	29.5082	-27.4287	28.2103	0.5940	-0.3424	0.6793	0.2619
6.08	-9.6433	-0.5040	-1.5604	0.0139	-0.0012	0.0122	29.5417	-27.4424	28.5131	0.5939	-0.3424	0.6793	0.2619
6.09	-9.6401	-0.5126	-1.5439	0.0169	-0.0075	0.0054	29.4142	-27.1953	28.3594	0.5939	-0.3424	0.6793	0.2619
6.1	-9.6611	-0.4970	-1.5579	0.0201	-0.0089	0.0088	29.2172	-27.3592	28.5475	0.5940	-0.3424	0.6793	0.2619
6.11	-9.6504	-0.4965	-1.5408	0.0137	-0.0008	0.0060	29.3743	-27.1007	28.3094	0.5939	-0.3424	0.6793	0.2619
6.12	-9.6408	-0.4867	-1.5476	0.0181	-0.0011	0.0044	29.3349	-27.2738	28.3644	0.5939	-0.3424	0.6793	0.2619
6.13	-9.6339	-0.4800	-1.5458	0.0158	-0.0037	0.0059	29.5048	-27.1826	28.5229	0.5939	-0.3425	0.6793	0.2618
6.14	-9.6432	-0.4750	-1.5478	0.0164	-0.0059	0.0063	29.6231	-27.1727	28.5956	0.5939	-0.3425	0.6793	0.2618
6.15	-9.6525	-0.4693	-1.5454	0.0174	-0.0013	0.0088	29.8511	-26.9847	28.7607	0.5939	-0.3425	0.6793	0.2618
6.16	-9.6431	-0.4754	-1.5401	0.0173	-0.0058	0.0125	29.6814	-27.2019	28.6851	0.5939	-0.3425	0.6793	0.2618
6.17	-9.6415	-0.4874	-1.5385	0.0143	-0.0063	0.0078	29.3510	-27.8283	28.5139	0.5939	-0.3425	0.6793	0.2618
6.18	-9.6443	-0.4872	-1.5308	0.0190	-0.0102	0.0133	29.3449	-28.2006	28.5394	0.5939	-0.3425	0.6793	0.2618
6.19	-9.6403	-0.4851	-1.5225	0.0183	-0.0165	0.0188	29.3874	-27.3621	28.3819	0.5939	-0.3425	0.6793	0.2619
6.2	-9.6407	-0.4790	-1.5165	0.0185	-0.0079	0.0172	29.3941	-27.3395	28.5312	0.5939	-0.3424	0.6793	0.2619
6.21	-9.6406	-0.4703	-1.5099	0.0213	-0.0086	0.0173	29.4127	-27.4166	28.4444	0.5939	-0.3424	0.6793	0.2619
6.22	-9.6489	-0.4619	-1.5142	0.0154	-0.0099	0.0111	29.5675	-27.2087	28.3737	0.5939	-0.3424	0.6793	0.2619
6.23	-9.6498	-0.4649	-1.5275	0.0184	-0.0118	0.0126	29.5465	-27.3392	28.5284	0.5939	-0.3424	0.6793	0.2619
6.24	-9.6447	-0.4602	-1.5272	0.0187	-0.0088	0.0106	29.5620	-27.4363	28.3396	0.5939	-0.3424	0.6793	0.2619
6.25	-9.6426	-0.4592	-1.5328	0.0188	-0.0073	0.0144	29.3765	-27.3551	28.3396	0.5939	-0.3423	0.6793	0.2619
6.26	-9.6492	-0.4648	-1.5452	0.0184	-0.0110	0.0136	29.4912	-27.2492	28.2040	0.5939	-0.3423	0.6793	0.2620
6.27	-9.6475	-0.4769	-1.5490	0.0160	-0.0086	0.0110	29.4539	-27.2155	28.4665	0.5939	-0.3423	0.6793	0.2620
6.28	-9.6439	-0.4906	-1.5367	0.0140	-0.0129	0.0115	29.3940	-27.3181	28.3081	0.5940	-0.3423	0.6793	0.2620
6.29	-9.6375	-0.5050	-1.5291	0.0134	-0.0123	0.0116	29.3410	-27.4747	28.4612	0.5940	-0.3423	0.6792	0.2620
6.3	-9.6446	-0.5120	-1.5289	0.0141	-0.0045	0.0105	29.2960	-27.2121	28.4309	0.5939	-0.3423	0.6792	0.2620
6.31	-9.6405	-0.5300	-1.5379	0.0176	-0.0071	0.0141	29.3347	-27.2628	28.1435	0.5939	-0.3423	0.6793	0.2620
6.32	-9.6354	-0.5284	-1.5358	0.0187	-0.0045	0.0119	29.3026	-27.2425	28.5055	0.5939	-0.3423	0.6793	0.2621
6.33	-9.6297	-0.5109	-1.5201	0.0132	-0.0071	0.0089	29.3190	-27.5349	28.4071	0.5939	-0.3423	0.6793	0.2621
6.34	-9.6590	-0.5188	-1.5405	0.0159	-0.0072	0.0087	29.3985	-27.3578	28.3274	0.5939	-0.3423	0.6793	0.2621
6.35	-9.6491	-0.5117	-1.5233	0.0151	-0.0086	0.0120	29.4026	-27.1111	28.5308	0.5939	-0.3423	0.6793	0.2621
6.36	-9.6316	-0.4808	-1.5111	0.0129	-0.0100	0.0078	29.3735	-27.3896	28.2588	0.5939	-0.3423	0.6792	0.2621
6.37	-9.6401	-0.4668	-1.5208	0.0152	-0.0104	0.0085	29.4927	-27.1279	28.5198	0.5939	-0.3423	0.6792	0.2621
6.38	-9.6483	-0.4669	-1.5331	0.0171	-0.0140	0.0075	29.5378	-27.1868	28.4655	0.5940	-0.3423	0.6792	0.2621
6.39	-9.6546	-0.4665	-1.5458	0.0183	-0.0063	0.0110	29.4773	-27.2648	28.3741	0.5940	-0.3423	0.6792	0.2621
6.4	-9.6314	-0.4772	-1.5209	0.0190	-0.0104	0.0124	29.6648	-27.2165	28.4776	0.5940	-0.3423	0.6792	0.2621
6.41	-9.6553	-0.4786	-1.5347	0.0185	-0.0152	0.0076	29.5286	-27.3458	28.6110	0.5940	-0.3423	0.6792	0.2621
6.42	-9.6172	-0.4629	-1.5095	0.0194	-0.0067	0.0154	29.5614	-27.4288	28.5517	0.5940	-0.3423	0.6792	0.2621
6.43	-9.6586	-0.4800	-1.5367	0.0178	-0.0111	0.0154	29.3475	-27.3678	28.4404	0.5940	-0.3423	0.6792	0.2622
6.44	-9.6708	-0.4711	-1.5549	0.0137	-0.0110	0.0146	29.2226	-27.2262	28.2834	0.5940	-0.3423	0.6792	0.2622
6.45	-9.6195	-0.4873	-1.5221	0.0132	-0.0085	0.0139	29.3400	-27.2710	28.3573	0.5940	-0.3422	0.6792	0.2622
6.46	-9.6441	-0.4898	-1.5507	0.0180	-0.0077	0.0108	29.4362	-27.1977	28.3728	0.5940	-0.3422	0.6792	0.2622
6.47	-9.6437	-0.4869	-1.5306	0.0185	-0.0086	0.0150	29.3036	-27.3992	28.2874	0.5940	-0.3422	0.6792	0.2622
6.48	-9.6549	-0.4729	-1.5466	0.0199	-0.0103	0.0134	29.4099	-27.4137	28.4125	0.5940	-0.3422	0.6792	0.2623
6.49	-9.6369	-0.4713	-1.5344	0.0205	-0.0042	0.0131	29.5891	-27.3040	28.5590	0.5940	-0.3422	0.6792	0.2623
6.5	-9.6430	-0.4722	-1.5327	0.0233	-0.0042	0.0181	29.3606	-27.3218	28.5363	0.5940	-0.3421	0.6792	0.2622
6.51	-9.6517	-0.4674	-1.5377	0.0201	-0.0055	0.0158	29.4421	-27.4109	28.4668	0.5940	-0.3421	0.6792	0.2623
6.52	-9.6463	-0.4812	-1.5268	0.0179	-0.0104	0.0102	29.1387	-27.3151	28.6031	0.5940	-0.3421	0.6792	0.2623
6.53	-9.6459	-0.4773	-1.5340	0.0161	-0.0067	0.0106	29.3799	-27.2282	28.5644	0.5940	-0.3421	0.6792	0.2623
6.54	-9.6395	-0.5125	-1.5384	0.0064	-0.0052	0.0070	29.4708	-27.4649	28.5725	0.5940	-0.3421	0.6792	0.2623
6.55	-9.6455	-0.5202	-1.5558	0.0112	-0.0055	0.0068	29.1946	-27.2061	28.1705	0.5940	-0.3422	0.6792	0.2623
6.56	-9.6345	-0.5323	-1.5492	0.0152	-0.0104	0.0186	29.4681	-27.1858	28.2740	0.5940	-0.3421	0.6792	0.2623
6.57	-9.6521	-0.5481	-1.5736	0.0149	-0.0105	0.0103	29.1632	-27.2532	28.4935	0.5940	-0.3421	0.6792	0.2624
6.58	-9.6358	-0.5393	-1.5573	0.0198	-0.0079	0.0110	29.4626	-27.3096	28.4875	0.5940	-0.3421	0.6792	0.2624
6.59	-9.6273	-0.5610	-1.5427	0.0185	-0.0082	0.0104	29.5747	-27.4180	28.5075	0.5940	-0.3421	0.6792	0.2624
6.6	-9.6455	-0.5418	-1.5433	0.0194	-0.0078	0.0106	29.5456	-27.2897	28.3404	0.5940	-0.3421	0.6792	0.2624
6.61	-9.6370	-0.5316	-1.5201	0.0182	-0.0072	0.0125	29.5678	-27.3476	28.3208	0.5940	-0.3421	0.6792	0.2624
6.62	-9.6453	-0.5047	-1.5204	0.0239	-0.0093	0.0187	29.5555	-27.2441	28.3016	0.5940	-0.3421	0.6792	0.2624
6.63	-9.6441	-0.4773	-1.5106	0.0220	-0.0066	0.0152	29.4495	-27.1143	28.5613	0.5940	-0.3420	0.6792	0.2624
6.64	-9.6489	-0.4593	-1.5090	0.0183	-0.0088	0.0118	29.5209	-27.2671	28.5542	0.5940	-0.3420	0.6792	0.2624
6.65	-9.6571	-0.4493	-1.5194	0.0188	-0.0129	0.0099	30.1004	-27.2871	28.7097	0.5940	-0.3420	0.6792	0.2624
6.66	-9.6402	-0.4476	-1.5235	0.0180	-0.0064	0.0108	29.7636	-27.3215	28.4012	0.5940	-0.3420	0.6792	0.2624
6.67	-9.6429	-0.4469	-1.5314	0.0194	0.0010	0.0116	29.3620	-27.7602	28.3741	0.5940	-0.3420	0.6792	0.2624
6.68	-9.6512	-0.4559	-1.5394	0.0124	-0.0007	0.0081	29.4380	-28.4041	28.4549	0.5940	-0.3420	0.6792	0.2624
6.69	-9.6443	-0.4739	-1.5432	0.0162	-0.0045	0.0068	29.3384	-27.0916	28.3610	0.5940	-0.3420	0.6792	0.2624
6.7	-9.6433	-0.4780	-1.5479	0.0160	0.0017	0.0057	29.4859	-26.9869	28.3112	0.5940	-0.3421	0.6793	0.2624
6.71	-9.6383	-0.4969	-1.5553	0.0156	-0.0035	0.0011	29.1219	-27.2891	28.5891	0.5939	-0.3421	0.6792	0.2623
6.72	-9.6433	-0.4932	-1.5632	0.0177	0.0010	0.0070	29.4326	-27.1653	28.4791	0.5939	-0.3421	0.6793	0.2623
6.73	-9.6442	-0.4937	-1.5613	0.0175	-0.0020	0.0050	29.4436	-27.1573	28.5735	0.5939	-0.3421	0.6793	0.2623
6.74	-9.6493	-0.4991	-1.5540	0.0188	-0.0071	0.0084	29.4630	-27.2856	28.4404	0.5939	-0.3421	0.6793	0.2623
6.75	-9.6524	-0.4920	-1.5626	0.0190	-0.0081	0.0081	29.2044	-27.1969	28.3663	0.5939	-0.3421	0.6793	0.2623
6.76	-9.6488	-0.4848	-1.5554	0.0172	-0.0050	0.0077	29.3504	-27.4320	28.4183	0.5939	-0.3421	0.6793	0.2623
6.77	-9.6460	-0.4747	-1.5562	0.0180	-0.0087	0.0061	29.4620	-27.3831	28.3748	0.5939	-0.3422	0.6793	0.2623
6.78	-9.6483	-0.4648	-1.5607	0.0192	-0.0110	0.0017	29.4764	-27.3345	28.4442	0.5940	-0.3422	0.6792	0.2622
6.79	-9.6477	-0.4689	-1.5578	0.0145	-0.0102	-0.0018	29.5498	-27.2451	28.2515	0.5940	-0.3422	0.6792	0.2622
6.8	-9.6482	-0.4779	-1.5597	0.0176	-0.0032	0.0095	29.5403	-27.3346	28.1972	0.5940	-0.3422	0.6792	0.2622
6.81	-9.6381	-0.4904	-1.5547	0.0163	-0.0031	0.0128	29.3899	-27.3008	28.4766	0.5940	-0.3422	0.6792	0.2622
6.82	-9.6410	-0.4996	-1.5517	0.0170	-0.0092	0.0053	29.4107	-27.2566	28.2919	0.5940	-0.3422	0.6792	0.2622
6.83	-9.6338	-0.5073	-1.5479	0.0173	0.0004	0.0007	29.4644	-27.4265	28.3943	0.5940	-0.3423	0.6792	0.2622
6.84	-9.6362	-0.5103	-1.5408	0.0165	-0.0063	0.0047	29.4452	-27.4959	28.4954	0.5940	-0.3423	0.6792	0.2622
6.85	-9.6448	-0.5082	-1.5319	0.0190	-0.0072	0.0060	29.5547	-27.4867	28.5106	0.5940	-0.3423	0.6792	0.2621
6.86	-9.6416	-0.5067	-1.5278	0.0194	0.0030	0.0103	29.5115	-27.2801	28.4126	0.5940	-0.3423	0.6792	0.2621
6.87	-9.6433	-0.4999	-1.5179	0.0196	0.0025	0.0054	29.5447	-27.1318	28.3948	0.5939	-0.3423	0.6792	0.2621
6.88	-9.6445	-0.4900	-1.5066	0.0156	-0.0035	0.0035	29.4100	-27.2993	28.3768	0.5939	-0.3424	0.6792	0.2621
6.89	-9.6410	-0.4852	-1.5005	0.0133	-0.0012	0.0078	29.3342	-27.1520	28.4546	0.5939	-0.3424	0.6792	0.2621
6.9	-9.6374	-0.4859	-1.4913	0.0173	-0.0006	0.0061	29.1825	-27.0282	28.4228	0.5939	-0.3424	0.6793	0.2621
6.91	-9.6447	-0.4918	-1.4943	0.0170	0.0043	0.0050	29.3168	-27.3059	28.2741	0.5939	-0.3424	0.6793	0.2620
6.92	-9.6454	-0.4925	-1.4903	0.0141	0.0046	0.0013	29.3748	-27.3080	28.3365	0.5938	-0.3425	0.6793	0.2620
6.93	-9.6354	-0.5003	-1.4911	0.0113	0.0034	0.0050	29.3764	-27.1864	28.6790	0.5938	-0.3425	0.6793	0.2620
6.94	-9.6363	-0.5070	-1.4985	0.0148	0.0025	0.0074	29.2664	-27.1284	28.4851	0.5938	-0.3426	0.6793	0.2620
6.95	-9.6401	-0.5090	-1.5120	0.0161	-0.0007	0.0096	29.4160	-27.3248	28.2689	0.5937	-0.3426	0.6793	0.2620
6.96	-9.6399	-0.5135	-1.5219	0.0149	-0.0016	0.0057	29.7172	-27.3919	28.4931	0.5937	-0.3426	0.6793	0.2619
6.97	-9.6398	-0.5061	-1.5380	0.0152	-0.0078	0.0058	29.6593	-27.5437	28.5021	0.5937	-0.3426	0.6793	0.2619
6.98	-9.6397	-0.5086	-1.5406	0.0143	-0.0012	0.0032	29.7293	-27.5790	28.4083	0.5937	-0.3427	0.6793	0.2619
6.99	-9.6397	-0.5025	-1.5472	0.0126	-0.0036	0.0115	29.5090	-27.4737	28.3989	0.5937	-0.3427	0.6793	0.2619
7	-9.6391	-0.5026	-1.5465	0.0172	-0.0068	0.0109	29.2914	-27.2804	28.4009	0.5937	-0.3427	0.6793	0.2619
7.01	-9.6563	-0.5031	-1.5651	0.0104	0.0016	0.0106	29.5449	-27.2992	28.3865	0.5936	-0.3427	0.6793	0.2619
7.02	-9.6463	-0.4974	-1.5586	0.0155	0.0027	0.0129	29.5305	-27.3397	28.4216	0.5936	-0.3427	0.6794	0.2620
7.03	-9.6412	-0.4964	-1.5557	0.0197	0.0007	0.0109	29.3784	-27.4744	28.3519	0.5936	-0.3427	0.6794	0.2619
7.04	-9.6480	-0.4866	-1.5632	0.0189	0.0004	0.0085	29.4146	-27.4578	28.3020	0.5936	-0.3427	0.6794	0.2619
7.05	-9.6489	-0.4778	-1.5581	0.0166	0.0045	0.0053	29.5570	-27.2989	28.3054	0.5935	-0.3428	0.6794	0.2619
7.06	-9.6496	-0.4797	-1.5628	0.0192	0.0040	0.0023	29.3999	-27.2363	28.4443	0.5935	-0.3428	0.6795	0.2618
7.07	-9.6511	-0.4795	-1.5620	0.0172	0.0004	0.0050	29.3475	-27.2615	28.4829	0.5935	-0.3428	0.6795	0.2618
7.08	-9.6535	-0.4662	-1.5682	0.0120	-0.0047	0.0078	29.3892	-27.1777	28.5007	0.5935	-0.3428	0.6795	0.2618
7.09	-9.6468	-0.4651	-1.5632	0.0152	-0.0060	0.0073	29.2494	-27.1468	28.3444	0.5935	-0.3429	0.6795	0.2618
7.1	-9.6496	-0.4695	-1.5592	0.0152	-0.0068	0.0089	29.2292	-27.2044	28.1943	0.5935	-0.3429	0.6795	0.2618
7.11	-9.6469	-0.4708	-1.5469	0.0185	-0.0037	0.0061	29.3225	-27.2797	28.4134	0.5935	-0.3429	0.6795	0.2618
7.12	-9.6511	-0.4776	-1.5514	0.0186	-0.0017	0.0114	29.2572	-27.1494	28.3741	0.5935	-0.3429	0.6795	0.2618
7.13	-9.6437	-0.4727	-1.5452	0.0160	-0.0130	0.0138	29.3192	-27.2805	28.5137	0.5935	-0.3429	0.6795	0.2618
7.14	-9.6374	-0.4675	-1.5385	0.0173	-0.0093	0.0069	29.7098	-27.3672	28.4598	0.5935	-0.3429	0.6795	0.2618
7.15	-9.6481	-0.4753	-1.5344	0.0174	-0.0120	0.0114	30.0832	-27.1533	28.5856	0.5935	-0.3429	0.6794	0.2618
7.16	-9.6478	-0.4784	-1.5295	0.0197	-0.0081	0.0111	29.7256	-27.3749	28.5193	0.5935	-0.3429	0.6794	0.2618
7.17	-9.6334	-0.4808	-1.5167	0.0175	-0.0110	0.0124	29.4253	-27.9555	28.3779	0.5935	-0.3428	0.6794	0.2618
7.18	-9.6444	-0.4889	-1.5228	0.0195	-0.0130	0.0114	29.6098	-28.1803	28.3207	0.5935	-0.3428	0.6794	0.2619
7.19	-9.6393	-0.4930	-1.5148	0.0187	-0.0090	0.0135	29.2865	-27.1817	28.2822	0.5936	-0.3428	0.6794	0.2619
7.2	-9.6460	-0.4950	-1.5149	0.0218	-0.0101	0.0141	29.2509	-27.2783	28.3228	0.5936	-0.3428	0.6794	0.2619
7.21	-9.6439	-0.4908	-1.5177	0.0230	-0.0089	0.0093	29.5203	-27.2215	28.4075	0.5936	-0.3427	0.6794	0.2619
7.22	-9.6406	-0.4829	-1.5179	0.0196	-0.0104	0.0103	29.5946	-27.3226	28.3876	0.5936	-0.3427	0.6794	0.2619
7.23	-9.6438	-0.4838	-1.5174	0.0163	-0.0104	0.0120	29.4640	-27.3353	28.3937	0.5936	-0.3427	0.6794	0.2619
7.24	-9.6297	-0.4841	-1.5132	0.0198	-0.0088	0.0148	29.2694	-27.2242	28.3855	0.5936	-0.3427	0.6794	0.2619
7.25	-9.6444	-0.4862	-1.5192	0.0199	-0.0116	0.0134	29.2246	-27.2756	28.1813	0.5936	-0.3427	0.6794	0.2619
7.26	-9.6490	-0.4822	-1.5260	0.0190	-0.0048	0.0125	29.3178	-27.2213	28.3725	0.5936	-0.3427	0.6794	0.2619
7.27	-9.6466	-0.4803	-1.5284	0.0193	-0.0046	0.0103	29.4191	-27.3851	28.5067	0.5936	-0.3427	0.6794	0.2619
7.28	-9.6424	-0.4810	-1.5339	0.0197	-0.0069	0.0124	29.2534	-27.2542	28.1655	0.5936	-0.3426	0.6794	0.2619
7.29	-9.6440	-0.4819	-1.5315	0.0205	-0.0115	0.0089	29.2824	-27.3253	28.3127	0.5936	-0.3426	0.6794	0.2619
7.3	-9.6442	-0.4821	-1.5401	0.0183	-0.0116	0.0102	29.4414	-27.3217	28.2760	0.5937	-0.3426	0.6794	0.2619
7.31	-9.6383	-0.4826	-1.5355	0.0192	-0.0087	0.0092	29.3593	-27.2656	28.3582	0.5937	-0.3426	0.6794	0.2619
7.32	-9.6508	-0.4879	-1.5391	0.0178	-0.0167	0.0138	29.3402	-27.3394	28.3342	0.5937	-0.3426	0.6794	0.2619
7.33	-9.6415	-0.4963	-1.5470	0.0191	-0.0142	0.0122	29.5122	-27.4008	28.3530	0.5937	-0.3426	0.6793	0.2619
7.34	-9.6351	-0.4951	-1.5484	0.0188	-0.0070	0.0110	29.3703	-27.5000	28.6140	0.5937	-0.3425	0.6793	0.2619
7.35	-9.6418	-0.4875	-1.5565	0.0181	-0.0086	0.0116	29.4276	-27.2793	28.2686	0.5938	-0.3425	0.6793	0.2619
7.36	-9.6461	-0.4845	-1.5571	0.0175	-0.0072	0.0116	29.3705	-27.3651	28.3777	0.5938	-0.3425	0.6793	0.2620
7.37	-9.6373	-0.4877	-1.5479	0.0196	-0.0092	0.0117	29.5135	-27.2443	28.4046	0.5938	-0.3425	0.6793	0.2620
7.38	-9.6457	-0.4905	-1.5411	0.0183	-0.0095	0.0114	29.4351	-27.2307	28.3656	0.5938	-0.3425	0.6793	0.2620
7.39	-9.6520	-0.4909	-1.5289	0.0194	-0.0110	0.0148	29.4382	-27.3067	28.4440	0.5938	-0.3425	0.6793	0.2620
7.4	-9.6474	-0.4899	-1.5378	0.0174	-0.0026	0.0089	29.4970	-27.3305	28.5031	0.5938	-0.3425	0.6793	0.2620
7.41	-9.6335	-0.5184	-1.5342	0.0191	-0.0107	0.0122	29.4108	-27.3552	28.3757	0.5938	-0.3425	0.6793	0.2620
7.42	-9.6300	-0.5034	-1.5181	0.0184	-0.0129	0.0142	29.2316	-27.2705	28.3856	0.5938	-0.3424	0.6793	0.2620
7.43	-9.6715	-0.5079	-1.5828	0.0195	-0.0082	0.0125	29.3588	-27.1461	28.4095	0.5938	-0.3424	0.6793	0.2620
7.44	-9.6195	-0.5087	-1.5384	0.0174	-0.0124	0.0110	29.4053	-27.4804	28.6776	0.5938	-0.3424	0.6793	0.2620
7.45	-9.6350	-0.4892	-1.5499	0.0187	-0.0078	0.0135	29.3232	-27.1633	28.6378	0.5938	-0.3424	0.6793	0.2620
7.46	-9.6697	-0.4784	-1.5572	0.0209	-0.0112	0.0111	29.3817	-27.2226	28.4998	0.5939	-0.3424	0.6793	0.2620
7.47	-9.6316	-0.4685	-1.5215	0.0182	-0.0099	0.0119	29.2984	-27.2561	28.4409	0.5939	-0.3424	0.6793	0.2620
7.48	-9.6354	-0.4749	-1.5265	0.0204	-0.0083	0.0136	29.3145	-27.2619	28.6780	0.5939	-0.3423	0.6793	0.2620
7.49	-9.6564	-0.4894	-1.5361	0.0167	-0.0067	0.0102	29.2328	-27.3413	28.5023	0.5939	-0.3423	0.6793	0.2621
7.5	-9.6358	-0.5098	-1.5323	0.0187	-0.0124	0.0130	29.2070	-27.3799	28.2810	0.5939	-0.3423	0.6793	0.2621
7.51	-9.6306	-0.5235	-1.5284	0.0186	-0.0133	0.0141	29.4677	-27.4494	28.3342	0.5939	-0.3423	0.6793	0.2621
7.52	-9.6462	-0.5317	-1.5454	0.0183	-0.0087	0.0141	29.6778	-27.1894	28.2620	0.5939	-0.3423	0.6793	0.2621
7.53	-9.6490	-0.5225	-1.5403	0.0211	-0.0089	0.0106	29.7846	-27.4292	28.2607	0.5939	-0.3422	0.6793	0.2621
7.54	-9.6305	-0.5078	-1.5291	0.0190	-0.0077	0.0101	29.5355	-27.3316	28.3136	0.5939	-0.3422	0.6793	0.2621
7.55	-9.6419	-0.4941	-1.5396	0.0210	-0.0079	0.0090	29.3750	-27.3442	28.3827	0.5940	-0.3422	0.6793	0.2621
7.56	-9.6499	-0.4912	-1.5462	0.0290	-0.0078	0.0076	29.5059	-27.3005	28.6242	0.5940	-0.3422	0.6793	0.2620
7.57	-9.6398	-0.4797	-1.5425	0.0206	-0.0087	0.0143	29.4689	-27.2406	28.5060	0.5940	-0.3422	0.6793	0.2620
7.58	-9.6373	-0.4703	-1.5305	0.0178	-0.0124	0.0135	29.4862	-27.2309	28.3884	0.5940	-0.3421	0.6793	0.2621
7.59	-9.6446	-0.4676	-1.5310	0.0166	-0.0075	0.0163	29.4046	-27.3747	28.3925	0.5940	-0.3421	0.6793	0.2621
7.6	-9.6482	-0.4720	-1.5316	0.0206	-0.0138	0.0150	29.4987	-27.3809	28.3891	0.5940	-0.3421	0.6793	0.2621
7.61	-9.6399	-0.4726	-1.5188	0.0198	-0.0136	0.0100	29.4864	-27.3316	28.4045	0.5941	-0.3421	0.6792	0.2621
7.62	-9.6535	-0.4742	-1.5269	0.0188	-0.0042	0.0093	29.4672	-27.2303	28.3667	0.5941	-0.3421	0.6792	0.2621
7.63	-9.6450	-0.4767	-1.5196	0.0192	-0.0064	0.0057	29.4202	-27.3971	28.4344	0.5941	-0.3421	0.6792	0.2621
7.64	-9.6436	-0.4872	-1.5283	0.0177	-0.0067	0.0115	29.6245	-27.3368	28.8136	0.5941	-0.3421	0.6792	0.2621
7.65	-9.6374	-0.4892	-1.5271	0.0158	-0.0101	0.0126	29.6932	-26.8701	28.8504	0.5941	-0.3421	0.6792	0.2621
7.66	-9.6435	-0.4927	-1.5342	0.0168	-0.0015	0.0076	29.7921	-27.2125	28.6837	0.5941	-0.3421	0.6792	0.2621
7.67	-9.6460	-0.4888	-1.5461	0.0153	-0.0045	0.0069	29.4234	-27.9719	28.3825	0.5941	-0.3421	0.6792	0.2621
7.68	-9.6316	-0.4811	-1.5285	0.0140	-0.0075	0.0058	29.3816	-28.2574	28.3684	0.5941	-0.3421	0.6792	0.2621
7.69	-9.6555	-0.4808	-1.5495	0.0165	-0.0063	0.0102	29.3167	-27.2333	28.5488	0.5941	-0.3421	0.6792	0.2621
7.7	-9.6438	-0.4684	-1.5461	0.0143	-0.0092	0.0084	29.5662	-27.3311	28.2161	0.5941	-0.3421	0.6792	0.2621
7.71	-9.6451	-0.4656	-1.5403	0.0190	-0.0089	0.0072	29.5866	-27.4349	28.2239	0.5941	-0.3421	0.6792	0.2621
7.72	-9.6469	-0.4594	-1.5459	0.0165	-0.0134	0.0154	29.5968	-27.5054	28.6643	0.5941	-0.3421	0.6792	0.2621
7.73	-9.6508	-0.4652	-1.5400	0.0180	-0.0100	0.0116	29.4789	-27.3526	28.3731	0.5941	-0.3421	0.6792	0.2622
7.74	-9.6488	-0.4672	-1.5439	0.0198	-0.0069	0.0110	29.5429	-27.4402	28.4389	0.5941	-0.3421	0.6792	0.2622
7.75	-9.6374	-0.4700	-1.5363	0.0178	-0.0084	0.0087	29.3948	-27.4593	28.3911	0.5941	-0.3421	0.6792	0.2622
7.76	-9.6465	-0.4796	-1.5536	0.0137	-0.0040	0.0108	29.3037	-27.5787	28.5043	0.5941	-0.3421	0.6792	0.2622
7.77	-9.6405	-0.4894	-1.5490	0.0168	-0.0097	0.0050	29.5479	-27.4226	28.5102	0.5941	-0.3421	0.6792	0.2622
7.78	-9.6421	-0.4956	-1.5487	0.0137	-0.0119	0.0091	29.4779	-27.4239	28.4950	0.5941	-0.3421	0.6791	0.2622
7.79	-9.6499	-0.4964	-1.5594	0.0121	-0.0121	0.0099	29.5013	-27.2345	28.5168	0.5941	-0.3421	0.6791	0.2622
7.8	-9.6453	-0.4944	-1.5567	0.0157	-0.0042	-0.0008	29.1154	-27.3180	28.4001	0.5942	-0.3422	0.6791	0.2622
7.81	-9.6375	-0.4954	-1.5485	0.0174	-0.0063	0.0075	29.2690	-27.5007	28.1839	0.5942	-0.3422	0.6791	0.2622
7.82	-9.6433	-0.4979	-1.5472	0.0173	-0.0020	0.0028	29.3273	-27.3354	28.4905	0.5942	-0.3422	0.6791	0.2622
7.83	-9.6496	-0.5060	-1.5571	0.0119	-0.0081	0.0053	29.2231	-27.1672	28.4217	0.5942	-0.3422	0.6791	0.2622
7.84	-9.6361	-0.5078	-1.5498	0.0162	-0.0087	0.0084	29.2897	-27.0457	28.3861	0.5942	-0.3422	0.6791	0.2622
7.85	-9.6325	-0.5143	-1.5363	0.0181	-0.0030	0.0064	29.3562	-27.1896	28.4183	0.5942	-0.3422	0.6791	0.2621
7.86	-9.6480	-0.5119	-1.5439	0.0170	-0.0092	0.0038	29.3253	-27.3137	28.3978	0.5942	-0.3423	0.6790	0.2621
7.87	-9.6420	-0.5067	-1.5304	0.0211	-0.0013	0.0039	29.4309	-27.2234	28.4245	0.5942	-0.3423	0.6791	0.2621
7.88	-9.6431	-0.5054	-1.5371	0.0196	-0.0027	0.0033	29.4154	-27.2374	28.3825	0.5942	-0.3423	0.6791	0.2621
7.89	-9.6428	-0.5025	-1.5322	0.0187	-0.0102	0.0094	29.6063	-27.5008	28.1513	0.5942	-0.3423	0.6790	0.2621
7.9	-9.6403	-0.5026	-1.5279	0.0204	-0.0043	0.0076	29.5020	-27.3884	28.4486	0.5942	-0.3423	0.6791	0.2620
7.91	-9.6446	-0.4988	-1.5271	0.0201	-0.0056	0.0102	29.5245	-27.3897	28.2911	0.5942	-0.3423	0.6791	0.2620
7.92	-9.6406	-0.4996	-1.5174	0.0189	-0.0030	0.0051	29.4632	-27.3845	28.1304	0.5942	-0.3423	0.6791	0.2620
7.93	-9.6485	-0.5002	-1.5210	0.0187	-0.0067	0.0064	29.4648	-27.4052	28.3403	0.5942	-0.3423	0.6791	0.2620
7.94	-9.6426	-0.4958	-1.5246	0.0184	-0.0077	0.0070	29.5330	-27.3109	28.3230	0.5942	-0.3423	0.6791	0.2620
7.95	-9.6387	-0.4999	-1.5193	0.0187	-0.0064	0.0048	29.3947	-27.2011	28.3159	0.5942	-0.3423	0.6790	0.2620
7.96	-9.6484	-0.4952	-1.5253	0.0192	-0.0001	0.0091	29.2994	-27.4163	28.5015	0.5942	-0.3423	0.6791	0.2620
7.97	-9.6419	-0.4967	-1.5181	0.0170	-0.0014	0.0092	29.4740	-27.5234	28.4365	0.5942	-0.3423	0.6791	0.2619
7.98	-9.6361	-0.4918	-1.5120	0.0166	-0.0079	0.0059	29.6160	-27.3325	28.4057	0.5942	-0.3424	0.6791	0.2619
7.99	-9.6442	-0.4910	-1.5197	0.0165	-0.0033	0.0075	29.2174	-27.4729	28.5334	0.5942	-0.3424	0.6791	0.2619
8	-9.6509	-0.4884	-1.5254	0.0170	-0.0076	0.0112	29.1706	-27.2060	28.2684	0.5942	-0.3424	0.6791	0.2619
8.01	-9.6409	-0.4759	-1.5216	0.0159	-0.0007	0.0058	29.2341	-27.1286	28.4903	0.5942	-0.3424	0.6791	0.2619
8.02	-9.6381	-0.4705	-1.5294	0.0160	-0.0048	0.0098	29.4807	-27.2253	28.5986	0.5941	-0.3424	0.6791	0.2619
8.03	-9.6520	-0.4625	-1.5354	0.0154	-0.0058	0.0057	29.1944	-27.0125	28.4243	0.5941	-0.3424	0.6791	0.2619
8.04	-9.6435	-0.4626	-1.5345	0.0181	-0.0044	0.0062	29.2816	-27.0901	28.3690	0.5941	-0.3424	0.6791	0.2619
8.05	-9.6373	-0.4681	-1.5361	0.0158	-0.0028	0.0034	29.4591	-27.0410	28.5266	0.5941	-0.3425	0.6791	0.2619
8.06	-9.6484	-0.4765	-1.5416	0.0160	-0.0019	0.0030	29.2849	-27.2944	28.4408	0.5941	-0.3425	0.6791	0.2619
8.07	-9.6521	-0.4853	-1.5526	0.0181	-0.0029	0.0070	29.2665	-27.5122	28.2716	0.5941	-0.3425	0.6791	0.2618
8.08	-9.6438	-0.4891	-1.5454	0.0175	-0.0082	0.0058	29.5774	-27.5959	28.4363	0.5941	-0.3425	0.6791	0.2618
8.09	-9.6444	-0.4944	-1.5491	0.0195	-0.0044	0.0044	29.6881	-27.3353	28.3287	0.5941	-0.3425	0.6791	0.2618
8.1	-9.6496	-0.4926	-1.5583	0.0183	-0.0035	0.0094	29.5267	-27.3006	28.3004	0.5941	-0.3425	0.6791	0.2618
8.11	-9.6361	-0.4978	-1.5461	0.0191	-0.0075	0.0082	29.4665	-27.3103	28.4088	0.5941	-0.3425	0.6791	0.2618
8.12	-9.6519	-0.4948	-1.5683	0.0187	-0.0006	0.0079	29.3032	-27.3107	28.3957	0.5941	-0.3426	0.6791	0.2618
8.13	-9.6336	-0.4837	-1.5515	0.0197	0.0042	0.0066	29.4956	-27.3046	28.3455	0.5941	-0.3426	0.6791	0.2617
8.14	-9.6464	-0.4905	-1.5617	0.0207	0.0067	0.0077	29.6181	-27.3212	28.7525	0.5941	-0.3426	0.6792	0.2617
8.15	-9.6503	-0.4733	-1.5651	0.0186	0.0002	0.0094	30.0236	-27.1827	28.8061	0.5940	-0.3426	0.6792	0.2617
8.16	-9.6371	-0.4809	-1.5478	0.0256	-0.0053	0.0131	29.7552	-27.1211	28.5768	0.5940	-0.3426	0.6792	0.2617
8.17	-9.6607	-0.4712	-1.5642	0.0191	-0.0097	0.0100	29.3301	-27.7432	28.1564	0.5940	-0.3425	0.6792	0.2617
8.18	-9.6405	-0.4788	-1.5453	0.0192	-0.0057	0.0121	29.4251	-28.2271	28.2199	0.5940	-0.3425	0.6792	0.2617
8.19	-9.6466	-0.4789	-1.5516	0.0185	-0.0086	0.0113	29.3224	-27.1767	28.3188	0.5941	-0.3425	0.6792	0.2617
8.2	-9.6553	-0.4792	-1.5477	0.0207	-0.0068	0.0124	29.3498	-27.3136	28.4101	0.5941	-0.3425	0.6792	0.2617
8.21	-9.6377	-0.4931	-1.5317	0.0198	-0.0104	0.0097	29.2151	-27.2138	28.4319	0.5941	-0.3425	0.6792	0.2617
8.22	-9.6377	-0.4920	-1.5305	0.0190	-0.0061	0.0116	29.3363	-27.4327	28.5436	0.5941	-0.3425	0.6792	0.2617
8.23	-9.6361	-0.5055	-1.5233	0.0187	-0.0054	0.0116	29.4321	-27.4149	28.2900	0.5941	-0.3425	0.6792	0.2617
8.24	-9.6319	-0.5096	-1.5066	0.0184	-0.0113	0.0125	29.4301	-27.4825	28.3436	0.5941	-0.3425	0.6792	0.2617
8.25	-9.6513	-0.5129	-1.5176	0.0221	-0.0075	0.0118	29.4170	-27.4475	28.2860	0.5941	-0.3424	0.6792	0.2617
8.26	-9.6391	-0.5118	-1.5051	0.0198	-0.0145	0.0116	29.4956	-27.2081	28.1109	0.5941	-0.3424	0.6792	0.2617
8.27	-9.6410	-0.5031	-1.5075	0.0216	-0.0117	0.0107	29.6246	-27.3990	28.2875	0.5941	-0.3424	0.6792	0.2617
8.28	-9.6393	-0.5002	-1.5136	0.0200	-0.0113	0.0145	29.5334	-27.4152	28.4518	0.5941	-0.3424	0.6792	0.2617
8.29	-9.6375	-0.4990	-1.5061	0.0163	-0.0093	0.0117	29.5020	-27.2504	28.1243	0.5941	-0.3423	0.6792	0.2617
8.3	-9.6480	-0.4936	-1.5140	0.0149	-0.0071	0.0118	29.5161	-27.2803	28.2389	0.5941	-0.3424	0.6792	0.2617
8.31	-9.6434	-0.4942	-1.5140	0.0175	-0.0118	0.0118	29.3949	-27.2351	28.3418	0.5942	-0.3423	0.6792	0.2617
8.32	-9.6383	-0.4940	-1.5293	0.0190	-0.0076	0.0115	29.4783	-27.3419	28.1214	0.5942	-0.3423	0.6792	0.2617
8.33	-9.6357	-0.4893	-1.5286	0.0189	-0.0117	0.0118	29.5553	-27.2779	28.2294	0.5942	-0.3423	0.6792	0.2618
8.34	-9.6545	-0.4932	-1.5508	0.0190	-0.0074	0.0143	29.2733	-27.1746	28.4083	0.5942	-0.3423	0.6792	0.2618
8.35	-9.6397	-0.4918	-1.5441	0.0191	-0.0155	0.0107	29.3250	-27.4342	28.3023	0.5942	-0.3423	0.6792	0.2618
8.36	-9.6488	-0.4955	-1.5551	0.0185	-0.0112	0.0095	29.4858	-27.4384	28.3209	0.5942	-0.3423	0.6791	0.2618
8.37	-9.6504	-0.4988	-1.5665	0.0170	-0.0029	0.0133	29.3131	-27.3504	28.3375	0.5942	-0.3423	0.6792	0.2618
8.38	-9.6281	-0.4941	-1.5596	0.0191	-0.0134	0.0153	29.3698	-27.3488	28.3816	0.5942	-0.3422	0.6791	0.2618
8.39	-9.6456	-0.4877	-1.5648	0.0188	-0.0077	0.0120	29.3127	-27.5078	28.3468	0.5942	-0.3422	0.6791	0.2618
8.4	-9.6463	-0.4794	-1.5593	0.0192	-0.0034	0.0104	29.4343	-27.5214	28.4570	0.5942	-0.3422	0.6792	0.2618
8.41	-9.6408	-0.4696	-1.5655	0.0190	-0.0054	0.0100	29.4158	-27.4295	28.2072	0.5942	-0.3422	0.6792	0.2618
8.42	-9.6435	-0.4615	-1.5615	0.0190	-0.0016	0.0080	29.2237	-27.3004	28.3505	0.5942	-0.3422	0.6792	0.2618
8.43	-9.6492	-0.4603	-1.5533	0.0216	-0.0065	0.0137	29.2904	-27.4524	28.3048	0.5942	-0.3422	0.6792	0.2618
8.44	-9.6571	-0.4602	-1.5589	0.0230	-0.0107	0.0153	29.2331	-27.3373	28.3292	0.5942	-0.3421	0.6792	0.2618
8.45	-9.6486	-0.4628	-1.5471	0.0199	-0.0150	0.0125	29.5920	-27.2843	28.2127	0.5942	-0.3421	0.6792	0.2618
8.46	-9.6491	-0.4636	-1.5496	0.0163	-0.0125	0.0126	29.5518	-27.3167	28.2454	0.5943	-0.3421	0.6792	0.2618
8.47	-9.6474	-0.4720	-1.5441	0.0200	-0.0118	0.0151	29.4859	-27.2802	28.2265	0.5943	-0.3421	0.6792	0.2618
8.48	-9.6443	-0.4811	-1.5413	0.0192	-0.0082	0.0137	29.4632	-27.5600	28.2461	0.5943	-0.3420	0.6792	0.2619
8.49	-9.6377	-0.4896	-1.5349	0.0186	-0.0077	0.0108	29.3637	-27.3720	28.2236	0.5943	-0.3420	0.6792	0.2619
8.5	-9.6445	-0.4976	-1.5361	0.0214	-0.0107	0.0102	29.4152	-27.3143	28.0672	0.5943	-0.3420	0.6792	0.2619
8.51	-9.6425	-0.5038	-1.5301	0.0223	-0.0125	0.0085	29.4032	-27.1540	28.4072	0.5943	-0.3420	0.6792	0.2618
8.52	-9.6360	-0.5066	-1.5163	0.0194	-0.0093	0.0129	29.5651	-27.3060	28.5098	0.5943	-0.3420	0.6792	0.2619
8.53	-9.6489	-0.5089	-1.5321	0.0171	-0.0100	0.0134	29.6373	-27.3313	28.3562	0.5943	-0.3420	0.6792	0.2619
8.54	-9.6438	-0.5141	-1.5217	0.0241	-0.0088	0.0116	29.4050	-27.2090	28.2498	0.5943	-0.3419	0.6792	0.2619
8.55	-9.6344	-0.5088	-1.5203	0.0244	-0.0041	0.0136	29.3584	-27.4036	28.1402	0.5943	-0.3419	0.6792	0.2618
8.56	-9.6418	-0.5059	-1.5207	0.0200	-0.0060	0.0112	29.3571	-27.2728	28.1319	0.5943	-0.3419	0.6792	0.2618
8.57	-9.6472	-0.5042	-1.5213	0.0269	-0.0082	0.0120	29.4704	-27.1849	28.3669	0.5944	-0.3419	0.6792	0.2618
8.58	-9.6301	-0.5011	-1.5140	0.0211	-0.0055	0.0118	29.3323	-27.3808	28.4260	0.5944	-0.3418	0.6792	0.2618
8.59	-9.6320	-0.5014	-1.5190	0.0195	-0.0081	0.0095	29.3477	-27.2461	28.3082	0.5944	-0.3418	0.6792	0.2618
8.6	-9.6483	-0.5039	-1.5254	0.0187	-0.0099	0.0120	29.4820	-27.3965	28.3017	0.5944	-0.3418	0.6792	0.2618
8.61	-9.6521	-0.5006	-1.5284	0.0193	-0.0035	0.0113	29.4947	-27.2693	28.4082	0.5944	-0.3418	0.6792	0.2618
8.62	-9.6430	-0.4969	-1.5246	0.0205	-0.0095	0.0115	29.2177	-27.2661	28.3080	0.5944	-0.3418	0.6792	0.2618
8.63	-9.6455	-0.4937	-1.5364	0.0224	-0.0079	0.0110	29.3194	-27.2716	28.3383	0.5944	-0.3418	0.6792	0.2618
8.64	-9.6472	-0.4930	-1.5444	0.0213	-0.0069	0.0117	29.6268	-27.4290	28.4260	0.5944	-0.3418	0.6792	0.2618
8.65	-9.6417	-0.4933	-1.5364	0.0197	-0.0128	0.0121	29.7573	-27.3157	28.4759	0.5944	-0.3417	0.6792	0.2618
8.66	-9.6418	-0.4922	-1.5536	0.0182	-0.0083	0.0107	29.7412	-27.2425	28.5436	0.5944	-0.3417	0.6792	0.2618
8.67	-9.6449	-0.4905	-1.5581	0.0197	-0.0082	0.0099	29.6808	-27.9663	28.3308	0.5944	-0.3417	0.6792	0.2618
8.68	-9.6481	-0.4889	-1.5583	0.0164	-0.0102	0.0078	29.4770	-28.4016	28.3822	0.5944	-0.3417	0.6792	0.2618
8.69	-9.6416	-0.4889	-1.5569	0.0174	-0.0049	0.0070	29.3909	-27.2010	28.3603	0.5944	-0.3417	0.6792	0.2618
8.7	-9.6499	-0.4873	-1.5593	0.0161	-0.0089	0.0040	29.3958	-27.4723	28.2976	0.5944	-0.3418	0.6792	0.2618
8.71	-9.6458	-0.4859	-1.5561	0.0150	-0.0077	0.0053	29.4652	-27.2892	28.2253	0.5944	-0.3418	0.6792	0.2618
8.72	-9.6396	-0.4814	-1.5434	0.0192	-0.0121	0.0077	29.4416	-27.1905	28.2290	0.5944	-0.3418	0.6792	0.2618
8.73	-9.6497	-0.4838	-1.5412	0.0178	-0.0129	0.0113	29.3105	-27.3470	28.4909	0.5945	-0.3418	0.6792	0.2618
8.74	-9.6489	-0.4838	-1.5471	0.0175	-0.0131	0.0130	29.3035	-27.1726	28.3221	0.5945	-0.3417	0.6792	0.2618
8.75	-9.6376	-0.4866	-1.5346	0.0146	-0.0073	0.0084	29.2244	-27.3318	28.4162	0.5945	-0.3417	0.6791	0.2618
8.76	-9.6361	-0.4831	-1.5313	0.0155	-0.0044	0.0085	29.2375	-27.2262	28.5662	0.5945	-0.3418	0.6791	0.2618
8.77	-9.6490	-0.4896	-1.5355	0.0153	-0.0064	0.0087	29.2594	-27.2532	28.4061	0.5945	-0.3418	0.6792	0.2618
8.78	-9.6454	-0.4887	-1.5267	0.0203	-0.0028	0.0014	29.3259	-27.3220	28.3949	0.5945	-0.3418	0.6792	0.2618
8.79	-9.6374	-0.4884	-1.5230	0.0156	-0.0113	0.0135	29.1402	-27.3464	28.4839	0.5945	-0.3418	0.6791	0.2618
8.8	-9.6462	-0.4929	-1.5321	0.0148	-0.0011	0.0067	29.2426	-27.1234	28.4291	0.5944	-0.3418	0.6791	0.2618
8.81	-9.6494	-0.4928	-1.5376	0.0198	-0.0094	0.0071	29.2571	-27.1951	28.4706	0.5945	-0.3418	0.6791	0.2618
8.82	-9.6383	-0.4947	-1.5279	0.0170	-0.0134	0.0115	29.3779	-27.5554	28.2430	0.5945	-0.3418	0.6791	0.2618
8.83	-9.6453	-0.4942	-1.5405	0.0212	-0.0053	0.0068	29.4974	-27.5884	28.1749	0.5945	-0.3418	0.6791	0.2618
8.84	-9.6472	-0.4950	-1.5485	0.0188	-0.0021	0.0084	29.5600	-27.2543	28.3204	0.5945	-0.3418	0.6791	0.2618
8.85	-9.6380	-0.4931	-1.5443	0.0192	-0.0015	0.0088	29.4807	-27.1067	28.2428	0.5944	-0.3418	0.6792	0.2618
8.86	-9.6406	-0.4918	-1.5476	0.0144	-0.0057	0.0090	29.4365	-27.1977	28.3621	0.5944	-0.3418	0.6792	0.2618
8.87	-9.6559	-0.4920	-1.5588	0.0131	-0.0112	0.0020	29.3838	-27.4018	28.3737	0.5944	-0.3419	0.6791	0.2618
8.88	-9.6390	-0.4873	-1.5486	0.0194	-0.0085	0.0049	29.4277	-27.5028	28.2780	0.5945	-0.3419	0.6791	0.2618
8.89	-9.6361	-0.4835	-1.5476	0.0172	-0.0120	0.0064	29.3752	-27.4430	28.2732	0.5945	-0.3419	0.6791	0.2618
8.9	-9.6504	-0.4806	-1.5520	0.0107	-0.0084	0.0044	29.2292	-27.3079	28.3647	0.5945	-0.3419	0.6791	0.2618
8.91	-9.6481	-0.4829	-1.5439	0.0151	-0.0102	0.0080	29.3430	-27.3266	28.2780	0.5945	-0.3419	0.6791	0.2618
8.92	-9.6402	-0.4811	-1.5372	0.0172	-0.0110	0.0060	29.3088	-27.1714	28.2880	0.5945	-0.3419	0.6791	0.2618
8.93	-9.6401	-0.4782	-1.5322	0.0168	-0.0062	0.0053	29.1659	-27.3540	28.4326	0.5945	-0.3420	0.6790	0.2618
8.94	-9.6454	-0.4779	-1.5425	0.0067	-0.0095	0.0093	29.1640	-27.1247	28.2120	0.5945	-0.3420	0.6790	0.2618
8.95	-9.6420	-0.4797	-1.5319	0.0094	-0.0055	0.0035	29.1648	-27.3017	28.4670	0.5945	-0.3420	0.6790	0.2618
8.96	-9.6421	-0.4813	-1.5313	0.0115	-0.0071	0.0097	29.1577	-27.3841	28.3328	0.5945	-0.3420	0.6790	0.2618
8.97	-9.6467	-0.4854	-1.5351	0.0174	-0.0062	0.0075	29.2012	-27.0787	28.3335	0.5945	-0.3421	0.6790	0.2618
8.98	-9.6455	-0.4907	-1.5336	0.0186	-0.0085	0.0056	29.4513	-27.2944	28.3598	0.5945	-0.3421	0.6790	0.2618
8.99	-9.6369	-0.4933	-1.5246	0.0161	-0.0076	0.0049	29.2391	-27.1510	28.3100	0.5945	-0.3421	0.6790	0.2618
9	-9.6450	-0.4951	-1.5300	0.0197	-0.0135	0.0058	29.3273	-27.2449	28.4903	0.5945	-0.3421	0.6790	0.2618
9.01	-9.6493	-0.4907	-1.5299	0.0178	-0.0122	0.0046	29.5144	-27.4041	28.1529	0.5945	-0.3421	0.6789	0.2618
9.02	-9.6359	-0.4841	-1.5229	0.0190	-0.0107	0.0107	29.5710	-27.4943	28.3262	0.5945	-0.3421	0.6789	0.2618
9.03	-9.6391	-0.4832	-1.5197	0.0179	-0.0102	0.0094	29.4233	-27.5766	28.4216	0.5946	-0.3421	0.6789	0.2618
9.04	-9.6534	-0.4805	-1.5286	0.0115	-0.0093	0.0083	29.4131	-27.5652	28.2654	0.5945	-0.3421	0.6789	0.2618
9.05	-9.6435	-0.4857	-1.5254	0.0179	-0.0100	0.0082	29.3146	-27.4776	28.4831	0.5946	-0.3421	0.6789	0.2618
9.06	-9.6399	-0.4862	-1.5315	0.0105	-0.0102	0.0052	29.4354	-27.3757	28.5412	0.5946	-0.3421	0.6789	0.2618
9.07	-9.6498	-0.4890	-1.5367	0.0133	-0.0086	0.0039	29.3471	-27.4043	28.2469	0.5946	-0.3422	0.6789	0.2618
9.08	-9.6479	-0.4928	-1.5333	0.0155	-0.0106	0.0046	29.3266	-27.3902	28.3665	0.5946	-0.3422	0.6788	0.2618
9.09	-9.6364	-0.4968	-1.5231	0.0182	-0.0034	0.0055	29.2239	-27.4910	28.4790	0.5946	-0.3422	0.6788	0.2618
9.1	-9.6432	-0.4995	-1.5280	0.0171	-0.0074	0.0044	29.2736	-27.3548	28.4389	0.5946	-0.3422	0.6788	0.2618
9.11	-9.6495	-0.5058	-1.5432	0.0125	-0.0064	0.0060	29.3487	-27.2498	28.4873	0.5946	-0.3423	0.6788	0.2618
9.12	-9.6408	-0.5101	-1.5409	0.0192	-0.0033	0.0056	29.2996	-27.1533	28.3336	0.5946	-0.3423	0.6788	0.2618
9.13	-9.6357	-0.5075	-1.5385	0.0079	-0.0054	0.0062	29.3519	-27.1255	28.4122	0.5945	-0.3423	0.6788	0.2618
9.14	-9.6446	-0.5043	-1.5495	0.0122	-0.0047	0.0049	29.4318	-27.2162	28.5896	0.5945	-0.3423	0.6788	0.2618
9.15	-9.6484	-0.5045	-1.5523	0.0199	-0.0094	0.0072	29.8514	-27.1548	28.5213	0.5945	-0.3423	0.6788	0.2618
9.16	-9.6363	-0.4962	-1.5424	0.0176	-0.0054	0.0125	29.5863	-27.2828	28.6402	0.5945	-0.3423	0.6788	0.2618
9.17	-9.6479	-0.4922	-1.5520	0.0189	-0.0040	0.0072	29.3958	-27.9766	28.4880	0.5945	-0.3423	0.6788	0.2618
9.18	-9.6498	-0.4920	-1.5537	0.0207	-0.0080	0.0136	29.4998	-28.1793	28.4413	0.5945	-0.3423	0.6788	0.2618
9.19	-9.6359	-0.4884	-1.5450	0.0191	-0.0139	0.0140	29.4152	-27.1813	28.3147	0.5945	-0.3423	0.6788	0.2618
9.2	-9.6410	-0.4874	-1.5473	0.0187	-0.0129	0.0120	29.3332	-27.1897	28.2215	0.5945	-0.3423	0.6788	0.2618
9.21	-9.6532	-0.4874	-1.5560	0.0190	-0.0155	0.0165	29.3992	-27.4199	28.2297	0.5946	-0.3422	0.6788	0.2619
9.22	-9.6448	-0.4872	-1.5474	0.0189	-0.0149	0.0122	29.4366	-27.4252	28.2979	0.5946	-0.3422	0.6788	0.2619
9.23	-9.6409	-0.4866	-1.5403	0.0191	-0.0150	0.0158	29.5077	-27.3220	28.4396	0.5946	-0.3422	0.6788	0.2619
9.24	-9.6508	-0.4853	-1.5420	0.0180	-0.0080	0.0142	29.6192	-27.3416	28.2746	0.5946	-0.3422	0.6788	0.2619
9.25	-9.6482	-0.4850	-1.5335	0.0190	-0.0095	0.0144	29.3794	-27.2964	28.4042	0.5946	-0.3421	0.6788	0.2619
9.26	-9.6374	-0.4825	-1.5273	0.0192	-0.0099	0.0153	29.2643	-27.1606	28.3959	0.5946	-0.3421	0.6788	0.2619
9.27	-9.6485	-0.4793	-1.5239	0.0184	-0.0105	0.0134	29.2543	-27.1763	28.4236	0.5946	-0.3421	0.6788	0.2620
9.28	-9.6502	-0.4767	-1.5245	0.0197	-0.0150	0.0115	29.5695	-27.3088	28.5072	0.5946	-0.3421	0.6788	0.2620
9.29	-9.6371	-0.4728	-1.5199	0.0148	-0.0111	0.0124	29.5162	-27.3478	28.2957	0.5946	-0.3421	0.6788	0.2620
9.3	-9.6386	-0.4778	-1.5189	0.0166	-0.0062	0.0111	29.1349	-27.2539	28.4220	0.5946	-0.3421	0.6788	0.2620
9.31	-9.6488	-0.4776	-1.5323	0.0191	-0.0075	0.0114	29.2205	-27.3567	28.3919	0.5946	-0.3421	0.6788	0.2620
9.32	-9.6411	-0.4797	-1.5277	0.0188	-0.0038	0.0120	29.4832	-27.3278	28.2679	0.5946	-0.3420	0.6788	0.2620
9.33	-9.6320	-0.4841	-1.5224	0.0175	-0.0053	0.0116	29.5287	-27.3365	28.5025	0.5946	-0.3420	0.6788	0.2620
9.34	-9.6467	-0.4811	-1.5379	0.0180	-0.0088	0.0109	29.4025	-27.2527	28.4981	0.5946	-0.3420	0.6788	0.2620
9.35	-9.6492	-0.4812	-1.5414	0.0193	-0.0046	0.0122	29.3092	-27.0979	28.4949	0.5946	-0.3420	0.6788	0.2620
9.36	-9.6337	-0.4817	-1.5255	0.0187	-0.0070	0.0088	29.4446	-27.1416	28.4523	0.5946	-0.3420	0.6789	0.2620
9.37	-9.6403	-0.4814	-1.5320	0.0191	-0.0115	0.0123	29.6502	-27.1823	28.3035	0.5946	-0.3420	0.6788	0.2620
9.38	-9.6493	-0.4919	-1.5374	0.0185	-0.0135	0.0119	29.3183	-27.0564	28.1136	0.5946	-0.3420	0.6788	0.2620
9.39	-9.6377	-0.4951	-1.5302	0.0191	-0.0103	0.0103	29.3248	-27.1201	28.3298	0.5946	-0.3420	0.6788	0.2620
9.4	-9.6384	-0.4963	-1.5325	0.0171	-0.0116	0.0111	29.5454	-27.3095	28.5422	0.5946	-0.3420	0.6788	0.2620
9.41	-9.6506	-0.5001	-1.5430	0.0182	-0.0068	0.0115	29.4040	-27.4437	28.3621	0.5946	-0.3420	0.6788	0.2620
9.42	-9.6445	-0.5025	-1.5306	0.0191	-0.0089	0.0117	29.4383	-27.5145	28.5016	0.5946	-0.3419	0.6788	0.2620
9.43	-9.6389	-0.4983	-1.5318	0.0176	-0.0135	0.0104	29.4199	-27.2677	28.3850	0.5946	-0.3419	0.6788	0.2621
9.44	-9.6457	-0.4967	-1.5456	0.0194	-0.0132	0.0101	29.4436	-27.2997	28.2855	0.5947	-0.3419	0.6788	0.2621
9.45	-9.6441	-0.4940	-1.5493	0.0180	-0.0136	0.0106	29.3173	-27.4830	28.4528	0.5947	-0.3419	0.6788	0.2621
9.46	-9.6360	-0.4953	-1.5380	0.0206	-0.0131	0.0122	29.2515	-27.4672	28.3904	0.5947	-0.3419	0.6788	0.2621
9.47	-9.6458	-0.4952	-1.5459	0.0188	-0.0146	0.0118	29.5273	-27.3849	28.4314	0.5947	-0.3419	0.6788	0.2621
9.48	-9.6561	-0.4910	-1.5561	0.0183	-0.0130	0.0112	29.4822	-27.5244	28.3997	0.5947	-0.3419	0.6788	0.2621
9.49	-9.6388	-0.4910	-1.5374	0.0189	-0.0089	0.0118	29.4530	-27.2458	28.5619	0.5947	-0.3418	0.6788	0.2621
9.5	-9.6367	-0.4859	-1.5399	0.0184	-0.0056	0.0121	29.4642	-27.2970	28.5634	0.5947	-0.3418	0.6788	0.2621
9.51	-9.6501	-0.4788	-1.5443	0.0182	-0.0095	0.0088	29.1164	-27.3853	28.3669	0.5947	-0.3418	0.6788	0.2621
9.52	-9.6448	-0.4811	-1.5405	0.0189	-0.0116	0.0146	29.5173	-27.0926	28.5470	0.5948	-0.3418	0.6788	0.2621
9.53	-9.6348	-0.4796	-1.5281	0.0190	-0.0045	0.0106	29.5801	-27.1386	28.5639	0.5947	-0.3418	0.6788	0.2621
9.54	-9.6448	-0.4815	-1.5332	0.0170	-0.0118	0.0042	29.4128	-27.3703	28.4250	0.5948	-0.3418	0.6788	0.2621
9.55	-9.6527	-0.4832	-1.5379	0.0181	-0.0088	0.0115	29.4431	-27.2338	28.3014	0.5948	-0.3418	0.6788	0.2621
9.56	-9.6386	-0.4876	-1.5253	0.0192	-0.0128	0.0112	29.4046	-27.2615	28.4687	0.5948	-0.3418	0.6788	0.2621
9.57	-9.6401	-0.4876	-1.5264	0.0190	-0.0108	0.0139	29.3114	-27.4168	28.4700	0.5948	-0.3418	0.6788	0.2622
9.58	-9.6538	-0.4878	-1.5335	0.0185	-0.0074	0.0121	29.4335	-27.4011	28.3634	0.5948	-0.3417	0.6788	0.2622
9.59	-9.6448	-0.4926	-1.5296	0.0184	-0.0145	0.0067	29.4191	-27.5357	28.5673	0.5948	-0.3417	0.6787	0.2622
9.6	-9.6410	-0.4897	-1.5299	0.0191	-0.0144	0.0107	29.6951	-27.4276	28.4151	0.5948	-0.3417	0.6787	0.2622
9.61	-9.6490	-0.4905	-1.5469	0.0188	-0.0094	0.0131	29.5629	-27.2495	28.2843	0.5948	-0.3417	0.6787	0.2622
9.62	-9.6444	-0.4955	-1.5454	0.0211	-0.0071	0.0093	29.4098	-27.1581	28.4169	0.5948	-0.3417	0.6787	0.2622
9.63	-9.6327	-0.4979	-1.5396	0.0174	-0.0095	0.0124	29.2262	-27.4006	28.4171	0.5948	-0.3417	0.6787	0.2622
9.64	-9.6435	-0.4977	-1.5432	0.0154	-0.0099	0.0107	29.6643	-27.2349	28.5551	0.5948	-0.3417	0.6787	0.2622
9.65	-9.6507	-0.4948	-1.5524	0.0135	-0.0137	0.0082	30.3096	-27.0441	28.6940	0.5948	-0.3417	0.6787	0.2622
9.66	-9.6426	-0.4926	-1.5460	0.0143	-0.0051	0.0058	29.9479	-27.2808	28.6148	0.5948	-0.3417	0.6787	0.2622
9.67	-9.6408	-0.4869	-1.5453	0.0152	-0.0016	0.0048	29.3643	-27.8513	28.4753	0.5948	-0.3418	0.6787	0.2622
9.68	-9.6502	-0.4856	-1.5485	0.0142	-0.0026	0.0029	29.4436	-28.1019	28.5208	0.5948	-0.3418	0.6787	0.2622
9.69	-9.6422	-0.4837	-1.5401	0.0148	-0.0027	0.0063	29.4253	-27.0921	28.3252	0.5948	-0.3418	0.6787	0.2622
9.7	-9.6345	-0.4844	-1.5343	0.0162	0.0016	0.0088	29.3110	-27.1838	28.4261	0.5947	-0.3418	0.6788	0.2622
9.71	-9.6453	-0.4834	-1.5392	0.0177	-0.0035	0.0012	29.3580	-27.1586	28.7090	0.5947	-0.3419	0.6788	0.2621
9.72	-9.6470	-0.4866	-1.5282	0.0123	0.0005	0.0030	29.2530	-27.1713	28.2519	0.5947	-0.3419	0.6788	0.2621
9.73	-9.6379	-0.4901	-1.5304	0.0134	-0.0039	0.0060	29.3495	-27.1616	28.3850	0.5947	-0.3420	0.6788	0.2621
9.74	-9.6357	-0.4853	-1.5232	0.0190	-0.0087	0.0105	29.3176	-27.1675	28.3536	0.5947	-0.3420	0.6788	0.2621
9.75	-9.6474	-0.4894	-1.5282	0.0181	-0.0066	0.0036	29.2225	-27.1801	28.3925	0.5947	-0.3420	0.6788	0.2621
9.76	-9.6436	-0.4903	-1.5148	0.0183	-0.0081	0.0089	29.3296	-27.4394	28.2767	0.5947	-0.3420	0.6788	0.2621
9.77	-9.6381	-0.4933	-1.5102	0.0189	-0.0078	0.0078	29.6344	-27.3748	28.3115	0.5947	-0.3420	0.6788	0.2621
9.78	-9.6460	-0.4854	-1.5222	0.0191	-0.0045	0.0059	29.6616	-27.3374	28.3969	0.5947	-0.3420	0.6788	0.2621
9.79	-9.6456	-0.4833	-1.5227	0.0164	-0.0107	0.0104	29.4370	-27.4561	28.3785	0.5947	-0.3420	0.6788	0.2621
9.8	-9.6405	-0.4807	-1.5236	0.0173	-0.0039	0.0064	29.3315	-27.2962	28.3579	0.5947	-0.3420	0.6788	0.2620
9.81	-9.6441	-0.4830	-1.5226	0.0146	-0.0017	0.0084	29.3319	-27.4718	28.4135	0.5946	-0.3420	0.6788	0.2620
9.82	-9.6497	-0.4922	-1.5379	0.0191	0.0027	0.0058	29.3834	-27.3211	28.4480	0.5946	-0.3420	0.6788	0.2620
9.83	-9.6426	-0.4907	-1.5418	0.0173	0.0041	0.0047	29.7276	-27.4026	28.2713	0.5946	-0.3421	0.6788	0.2620
9.84	-9.6381	-0.4877	-1.5438	0.0169	-0.0098	0.0107	29.4238	-27.4026	28.3036	0.5946	-0.3421	0.6788	0.2620
9.85	-9.6269	-0.4897	-1.5258	0.0177	-0.0092	0.0060	29.2307	-27.3129	28.2706	0.5946	-0.3421	0.6788	0.2620
9.86	-9.6752	-0.4878	-1.5781	0.0180	-0.0039	0.0037	29.2513	-27.3348	28.2993	0.5946	-0.3421	0.6788	0.2620
9.87	-9.6207	-0.4785	-1.5241	0.0139	0.0016	0.0075	29.3621	-27.3433	28.2552	0.5945	-0.3421	0.6789	0.2619
9.88	-9.6356	-0.4825	-1.5467	0.0153	-0.0019	0.0082	29.2883	-27.1958	28.5485	0.5945	-0.3422	0.6789	0.2619
9.89	-9.6757	-0.4881	-1.5791	0.0158	-0.0060	0.0076	29.3006	-27.0346	28.4671	0.5945	-0.3422	0.6789	0.2619
9.9	-9.6390	-0.4822	-1.5490	0.0199	-0.0030	0.0057	29.2818	-27.1614	28.5218	0.5945	-0.3422	0.6789	0.2619
9.91	-9.6366	-0.4753	-1.5518	0.0178	-0.0055	0.0074	29.2416	-27.2713	28.5512	0.5945	-0.3422	0.6789	0.2619
9.92	-9.6494	-0.4801	-1.5695	0.0180	0.0021	0.0028	29.3657	-27.2086	28.4268	0.5945	-0.3422	0.6789	0.2619
9.93	-9.6412	-0.4832	-1.5631	0.0191	-0.0058	0.0055	29.3241	-26.9725	28.4629	0.5944	-0.3422	0.6789	0.2618
9.94	-9.6381	-0.4910	-1.5572	0.0191	-0.0068	0.0051	29.3299	-27.4428	28.4643	0.5945	-0.3423	0.6789	0.2618
9.95	-9.6476	-0.4951	-1.5659	0.0182	-0.0133	0.0063	29.4565	-27.5871	28.3606	0.5945	-0.3423	0.6789	0.2618
9.96	-9.6461	-0.4947	-1.5655	0.0140	-0.0145	0.0048	29.5077	-27.2996	28.2419	0.5945	-0.3423	0.6789	0.2618
9.97	-9.6440	-0.4968	-1.5600	0.0167	-0.0094	0.0037	29.5241	-27.3582	28.1410	0.5945	-0.3423	0.6789	0.2618
9.98	-9.6445	-0.4956	-1.5581	0.0158	-0.0071	0.0077	29.3836	-27.2084	28.5180	0.5945	-0.3423	0.6789	0.2618
9.99	-9.6451	-0.4986	-1.5569	0.0140	-0.0068	0.0066	29.4697	-27.4139	28.5172	0.5945	-0.3423	0.6789	0.2618
10	-9.6351	-0.4989	-1.5441	0.0151	-0.0099	0.0120	29.4570	-27.3375	28.2746	0.5945	-0.3423	0.6788	0.2618
10.01	-9.6393	-0.4982	-1.5353	0.0163	-0.0081	0.0109	29.4146	-27.4019	28.2825	0.5945	-0.3423	0.6789	0.2618
10.02	-9.6422	-0.4955	-1.5301	0.0169	-0.0096	0.0132	29.4054	-27.4049	28.4075	0.5945	-0.3423	0.6789	0.2619
10.03	-9.6386	-0.4922	-1.5127	0.0189	-0.0096	0.0126	29.3410	-27.5911	28.3289	0.5945	-0.3423	0.6789	0.2619
10.04	-9.6400	-0.4906	-1.5115	0.0145	-0.0075	0.0096	29.5102	-27.4225	28.2836	0.5945	-0.3423	0.6789	0.2619
10.05	-9.6483	-0.4854	-1.5092	0.0152	-0.0053	0.0098	29.5165	-27.0856	28.2698	0.5944	-0.3423	0.6789	0.2619
10.06	-9.6448	-0.4833	-1.5085	0.0182	-0.0068	0.0070	29.2452	-27.3481	28.4344	0.5944	-0.3423	0.6789	0.2619
10.07	-9.6378	-0.4863	-1.4956	0.0159	-0.0083	0.0061	29.3498	-27.2575	28.4182	0.5945	-0.3423	0.6789	0.2619
10.08	-9.6442	-0.4941	-1.5024	0.0206	-0.0043	0.0068	29.4617	-27.2668	28.3436	0.5944	-0.3423	0.6789	0.2619
10.09	-9.6488	-0.4925	-1.5161	0.0116	-0.0074	0.0072	29.2994	-27.1133	28.4799	0.5944	-0.3424	0.6789	0.2619
10.1	-9.6373	-0.4981	-1.5179	0.0140	-0.0051	0.0069	29.2414	-27.1402	28.3046	0.5944	-0.3424	0.6789	0.2619
10.11	-9.6366	-0.4983	-1.5182	0.0188	0.0002	0.0066	29.2847	-27.3052	28.4669	0.5944	-0.3424	0.6789	0.2618
10.12	-9.6456	-0.4973	-1.5303	0.0169	-0.0004	0.0095	29.1449	-27.1444	28.4358	0.5944	-0.3424	0.6789	0.2618
10.13	-9.6457	-0.4932	-1.5338	0.0170	0.0021	0.0092	29.3188	-27.2724	28.4857	0.5943	-0.3424	0.6789	0.2618
10.14	-9.6384	-0.4923	-1.5317	0.0166	-0.0042	0.0075	29.7666	-27.2441	28.7521	0.5943	-0.3425	0.6790	0.2618
10.15	-9.6453	-0.4898	-1.5442	0.0193	-0.0077	0.0121	30.1582	-27.1478	28.9568	0.5943	-0.3424	0.6790	0.2618
10.16	-9.6495	-0.4851	-1.5445	0.0160	-0.0062	0.0145	29.9265	-27.3996	28.6694	0.5943	-0.3424	0.6790	0.2618
10.17	-9.6411	-0.4788	-1.5404	0.0215	-0.0091	0.0136	29.4122	-28.0774	28.2974	0.5943	-0.3424	0.6790	0.2618
10.18	-9.6457	-0.4753	-1.5478	0.0173	-0.0090	0.0114	29.6016	-28.2278	28.3037	0.5943	-0.3424	0.6790	0.2618
10.19	-9.6474	-0.4724	-1.5533	0.0179	-0.0054	0.0092	29.3133	-27.3503	28.2241	0.5943	-0.3424	0.6790	0.2618
10.2	-9.6364	-0.4694	-1.5418	0.0195	-0.0088	0.0091	29.2034	-27.4321	28.4086	0.5943	-0.3424	0.6790	0.2618
10.21	-9.6419	-0.4657	-1.5380	0.0170	-0.0073	0.0085	29.5145	-27.0913	28.4000	0.5943	-0.3424	0.6790	0.2618
10.22	-9.6506	-0.4684	-1.5369	0.0127	-0.0090	0.0063	29.3053	-27.3844	28.3000	0.5943	-0.3424	0.6790	0.2618
10.23	-9.6467	-0.4684	-1.5299	0.0185	-0.0098	0.0121	29.5177	-27.4296	28.5547	0.5943	-0.3424	0.6790	0.2618
10.24	-9.6377	-0.4606	-1.5280	0.0193	-0.0076	0.0090	29.6130	-27.1604	28.7594	0.5943	-0.3424	0.6790	0.2618
10.25	-9.6481	-0.4654	-1.5333	0.0180	-0.0029	0.0116	29.4804	-27.3427	28.5849	0.5943	-0.3424	0.6790	0.2618
10.26	-9.6449	-0.4662	-1.5302	0.0178	-0.0026	0.0149	29.3148	-27.2544	28.4160	0.5942	-0.3424	0.6790	0.2618
10.27	-9.6368	-0.4749	-1.5257	0.0199	-0.0076	0.0113	29.4457	-27.0456	28.3335	0.5942	-0.3424	0.6791	0.2618
10.28	-9.6406	-0.4836	-1.5256	0.0178	-0.0058	0.0100	29.5588	-27.2313	28.3602	0.5942	-0.3424	0.6791	0.2618
10.29	-9.6457	-0.4909	-1.5252	0.0199	-0.0069	0.0129	29.5621	-27.2407	28.5542	0.5942	-0.3424	0.6791	0.2618
10.3	-9.6409	-0.4980	-1.5321	0.0187	-0.0041	0.0122	29.2961	-27.2475	28.4006	0.5942	-0.3424	0.6791	0.2618
10.31	-9.6387	-0.5024	-1.5273	0.0206	-0.0098	0.0099	29.3869	-27.2414	28.4790	0.5942	-0.3423	0.6791	0.2618
10.32	-9.6478	-0.5064	-1.5412	0.0201	-0.0030	0.0111	29.4157	-27.4212	28.4971	0.5942	-0.3423	0.6791	0.2618
10.33	-9.6488	-0.5074	-1.5432	0.0177	-0.0073	0.0126	29.4907	-27.3335	28.3943	0.5942	-0.3423	0.6791	0.2618
10.34	-9.6385	-0.5116	-1.5396	0.0249	-0.0049	0.0092	29.5921	-27.2277	28.5690	0.5942	-0.3423	0.6791	0.2618
10.35	-9.6424	-0.5160	-1.5487	0.0227	-0.0050	0.0142	29.4620	-27.3693	28.4724	0.5942	-0.3423	0.6792	0.2618
10.36	-9.6457	-0.5128	-1.5510	0.0181	-0.0088	0.0123	29.5492	-27.4769	28.4286	0.5942	-0.3423	0.6792	0.2618
10.37	-9.6372	-0.5105	-1.5456	0.0196	-0.0089	0.0123	29.3175	-27.5075	28.4548	0.5942	-0.3423	0.6792	0.2618
10.38	-9.6423	-0.5095	-1.5483	0.0189	-0.0084	0.0098	29.4676	-27.2715	28.3056	0.5942	-0.3422	0.6792	0.2618
10.39	-9.6536	-0.5151	-1.5570	0.0192	-0.0110	0.0115	29.5046	-27.3827	28.4168	0.5942	-0.3422	0.6792	0.2618
10.4	-9.6440	-0.5174	-1.5519	0.0188	-0.0063	0.0193	29.2872	-27.4302	28.4357	0.5942	-0.3422	0.6792	0.2618
10.41	-9.6437	-0.5167	-1.5553	0.0180	-0.0098	0.0106	29.5670	-27.3866	28.5374	0.5942	-0.3422	0.6792	0.2618
10.42	-9.6463	-0.5176	-1.5578	0.0189	-0.0127	0.0145	29.5221	-27.1974	28.5093	0.5942	-0.3422	0.6792	0.2619
10.43	-9.6441	-0.5163	-1.5630	0.0189	-0.0087	0.0123	29.3852	-27.4918	28.3504	0.5942	-0.3421	0.6792	0.2619
10.44	-9.6356	-0.5133	-1.5543	0.0191	-0.0062	0.0146	29.4464	-27.4280	28.3519	0.5942	-0.3421	0.6792	0.2619
10.45	-9.6419	-0.5028	-1.5563	0.0191	-0.0055	0.0158	29.4106	-27.2809	28.4451	0.5941	-0.3421	0.6793	0.2619
10.46	-9.6485	-0.4956	-1.5522	0.0181	-0.0102	0.0122	29.4261	-27.2391	28.4468	0.5941	-0.3421	0.6793	0.2619
10.47	-9.6361	-0.4854	-1.5343	0.0173	-0.0182	0.0142	29.4227	-27.2375	28.6369	0.5942	-0.3421	0.6792	0.2619
10.48	-9.6464	-0.4780	-1.5374	0.0208	-0.0095	0.0107	29.3334	-27.2615	28.4965	0.5942	-0.3420	0.6792	0.2619
10.49	-9.6490	-0.4728	-1.5326	0.0202	-0.0075	0.0157	29.3465	-27.2109	28.4237	0.5942	-0.3420	0.6793	0.2619
10.5	-9.6423	-0.4680	-1.5199	0.0188	-0.0151	0.0135	29.3246	-27.3458	28.6189	0.5942	-0.3420	0.6792	0.2620
10.51	-9.6427	-0.4660	-1.5175	0.0207	-0.0138	0.0146	29.4075	-27.5181	28.5564	0.5942	-0.3419	0.6792	0.2620
10.52	-9.6478	-0.4596	-1.5088	0.0199	-0.0127	0.0145	29.5331	-27.3844	28.2912	0.5942	-0.3419	0.6792	0.2620
10.53	-9.6410	-0.4593	-1.5094	0.0168	-0.0069	0.0059	29.6152	-27.2686	28.2829	0.5942	-0.3419	0.6792	0.2620
10.54	-9.6389	-0.4648	-1.5031	0.0179	-0.0098	0.0112	29.5221	-27.4757	28.4435	0.5942	-0.3419	0.6792	0.2620
10.55	-9.6413	-0.4707	-1.5006	0.0179	-0.0084	0.0108	29.4188	-27.4175	28.4411	0.5942	-0.3419	0.6792	0.2620
10.56	-9.6380	-0.4715	-1.5096	0.0210	-0.0078	0.0139	29.3044	-27.4104	28.5401	0.5942	-0.3419	0.6792	0.2620
10.57	-9.6388	-0.4779	-1.5090	0.0190	-0.0087	0.0137	29.4085	-27.3624	28.3355	0.5942	-0.3419	0.6793	0.2620
10.58	-9.6478	-0.4802	-1.5194	0.0179	-0.0092	0.0127	29.4231	-27.0614	28.4157	0.5942	-0.3419	0.6793	0.2620
10.59	-9.6438	-0.4739	-1.5227	0.0187	-0.0078	0.0127	29.4328	-27.4604	28.4596	0.5942	-0.3418	0.6793	0.2620
10.6	-9.6437	-0.4802	-1.5220	0.0155	-0.0121	0.0098	29.4000	-27.3566	28.2637	0.5942	-0.3418	0.6793	0.2620
10.61	-9.6434	-0.4834	-1.5292	0.0190	-0.0115	0.0124	29.5043	-27.0741	28.3083	0.5942	-0.3418	0.6793	0.2621
10.62	-9.6445	-0.4825	-1.5360	0.0162	-0.0047	0.0132	29.4876	-27.2728	28.4426	0.5942	-0.3418	0.6793	0.2621
10.63	-9.6446	-0.4819	-1.5428	0.0173	-0.0045	0.0112	29.4415	-27.1463	28.4431	0.5942	-0.3418	0.6793	0.2621
10.64	-9.6389	-0.4847	-1.5485	0.0176	-0.0059	0.0114	29.6586	-27.4309	28.5787	0.5942	-0.3418	0.6793	0.2621
10.65	-9.6477	-0.4874	-1.5509	0.0156	-0.0056	0.0066	29.9433	-27.0661	28.7207	0.5942	-0.3418	0.6793	0.2621
10.66	-9.6501	-0.4897	-1.5553	0.0093	0.0002	0.0084	29.6642	-27.1758	28.6095	0.5941	-0.3419	0.6793	0.2621
10.67	-9.6409	-0.4919	-1.5540	0.0151	0.0004	0.0014	29.4092	-28.0251	28.3550	0.5941	-0.3419	0.6793	0.2621
10.68	-9.6394	-0.4957	-1.5563	0.0167	-0.0073	0.0030	29.4485	-28.0082	28.3157	0.5941	-0.3419	0.6793	0.2620
10.69	-9.6513	-0.4965	-1.5606	0.0177	-0.0096	0.0120	29.2989	-27.1752	28.5776	0.5941	-0.3419	0.6793	0.2621
10.7	-9.6431	-0.4992	-1.5585	0.0172	-0.0132	0.0080	29.4549	-27.2661	28.3981	0.5941	-0.3419	0.6793	0.2621
10.71	-9.6404	-0.5063	-1.5578	0.0195	-0.0148	0.0061	29.4361	-27.4145	28.2706	0.5942	-0.3419	0.6793	0.2621
10.72	-9.6448	-0.5063	-1.5568	0.0150	-0.0118	0.0052	29.5972	-27.5575	28.5146	0.5942	-0.3419	0.6792	0.2621
10.73	-9.6472	-0.5071	-1.5511	0.0170	-0.0113	0.0048	29.5899	-27.2741	28.3515	0.5942	-0.3419	0.6792	0.2621
10.74	-9.6415	-0.5045	-1.5460	0.0170	-0.0087	0.0051	29.4587	-27.2680	28.1455	0.5942	-0.3420	0.6792	0.2621
10.75	-9.6359	-0.5042	-1.5395	0.0192	-0.0108	0.0076	29.2717	-27.3618	28.2726	0.5942	-0.3420	0.6792	0.2620
10.76	-9.6454	-0.5068	-1.5444	0.0182	-0.0105	-0.0003	29.5510	-27.3034	28.2849	0.5942	-0.3420	0.6792	0.2620
10.77	-9.6433	-0.5047	-1.5334	0.0186	-0.0105	0.0059	29.2779	-27.3614	28.3916	0.5943	-0.3420	0.6792	0.2620
10.78	-9.6432	-0.4985	-1.5284	0.0191	-0.0123	0.0108	29.4447	-27.5523	28.5029	0.5943	-0.3420	0.6791	0.2620
10.79	-9.6460	-0.4981	-1.5241	0.0180	-0.0086	0.0031	29.4948	-27.1591	28.3911	0.5943	-0.3420	0.6791	0.2620
10.8	-9.6422	-0.4928	-1.5240	0.0112	-0.0015	0.0059	29.2320	-27.2518	28.2665	0.5943	-0.3420	0.6791	0.2620
10.81	-9.6356	-0.4926	-1.5194	0.0142	-0.0048	0.0096	29.1765	-27.2520	28.2866	0.5942	-0.3420	0.6791	0.2620
10.82	-9.6424	-0.4930	-1.5187	0.0141	-0.0044	0.0037	29.2120	-27.2667	28.4550	0.5942	-0.3421	0.6791	0.2620
10.83	-9.6447	-0.4879	-1.5184	0.0132	-0.0062	0.0066	29.3605	-27.1737	28.3976	0.5942	-0.3421	0.6791	0.2620
10.84	-9.6355	-0.4860	-1.5114	0.0153	-0.0054	0.0079	29.3366	-27.1630	28.2367	0.5942	-0.3421	0.6791	0.2620
10.85	-9.6407	-0.4876	-1.5167	0.0149	-0.0041	0.0067	29.2355	-27.0413	28.3292	0.5942	-0.3421	0.6791	0.2620
10.86	-9.6490	-0.4839	-1.5219	0.0150	-0.0060	0.0054	29.3241	-27.1747	28.3751	0.5942	-0.3422	0.6791	0.2620
10.87	-9.6397	-0.4801	-1.5202	0.0193	-0.0050	0.0062	29.3698	-27.1376	28.3592	0.5942	-0.3422	0.6791	0.2620
10.88	-9.6404	-0.4779	-1.5199	0.0158	-0.0045	0.0082	29.3005	-27.3317	28.5906	0.5942	-0.3422	0.6791	0.2620
10.89	-9.6507	-0.4777	-1.5313	0.0168	-0.0071	0.0076	29.4389	-27.5602	28.3461	0.5942	-0.3422	0.6791	0.2620
10.9	-9.6452	-0.4767	-1.5354	0.0196	-0.0087	0.0035	29.5973	-27.4035	28.1980	0.5942	-0.3422	0.6791	0.2620
10.91	-9.6372	-0.4735	-1.5290	0.0172	-0.0077	0.0112	29.6096	-27.3941	28.2060	0.5942	-0.3422	0.6791	0.2620
10.92	-9.6429	-0.4723	-1.5449	0.0178	-0.0052	0.0069	29.5385	-27.3329	28.3271	0.5942	-0.3422	0.6791	0.2620
10.93	-9.6517	-0.4768	-1.5465	0.0156	-0.0111	0.0057	29.5348	-27.4547	28.2424	0.5942	-0.3422	0.6791	0.2620
10.94	-9.6453	-0.4800	-1.5437	0.0175	-0.0069	0.0087	29.3282	-27.3186	28.4727	0.5942	-0.3422	0.6791	0.2620
10.95	-9.6462	-0.4842	-1.5499	0.0196	-0.0118	0.0056	29.3730	-27.3354	28.5514	0.5942	-0.3422	0.6791	0.2619
10.96	-9.6498	-0.4879	-1.5573	0.0170	-0.0058	0.0040	29.5475	-27.3306	28.2597	0.5942	-0.3423	0.6791	0.2619
10.97	-9.6378	-0.4931	-1.5449	0.0171	-0.0079	0.0079	29.5021	-27.3187	28.3575	0.5942	-0.3423	0.6791	0.2619
10.98	-9.6429	-0.4957	-1.5470	0.0171	-0.0103	0.0061	29.4203	-27.3475	28.4855	0.5942	-0.3423	0.6791	0.2619
10.99	-9.6492	-0.4933	-1.5507	0.0196	-0.0048	0.0019	29.2171	-27.4127	28.1924	0.5942	-0.3423	0.6791	0.2619
11	-9.6434	-0.4908	-1.5486	0.0231	-0.0048	0.0066	29.1434	-27.2904	28.4319	0.5942	-0.3423	0.6791	0.2619
11.01	-9.6386	-0.4929	-1.5364	0.0151	-0.0064	0.0084	29.3465	-27.4361	28.4601	0.5942	-0.3423	0.6791	0.2619
11.02	-9.6461	-0.4929	-1.5383	0.0176	-0.0042	0.0040	29.4244	-27.3068	28.4872	0.5942	-0.3423	0.6791	0.2618
11.03	-9.6501	-0.4907	-1.5386	0.0193	0.0018	0.0045	29.3140	-27.0808	28.3795	0.5942	-0.3423	0.6791	0.2618
11.04	-9.6403	-0.4891	-1.5290	0.0186	-0.0017	0.0012	29.1486	-27.3539	28.4371	0.5942	-0.3424	0.6791	0.2618
11.05	-9.6422	-0.4917	-1.5370	0.0191	-0.0053	0.0060	29.3795	-27.2267	28.4568	0.5942	-0.3424	0.6791	0.2618
11.06	-9.6465	-0.4933	-1.5402	0.0191	-0.0018	0.0065	29.3903	-27.1858	28.2579	0.5942	-0.3424	0.6791	0.2617
11.07	-9.6429	-0.4918	-1.5228	0.0192	-0.0075	0.0063	29.4049	-27.4209	28.4288	0.5942	-0.3424	0.6791	0.2617
11.08	-9.6399	-0.4909	-1.5192	0.0189	0.0015	0.0064	29.6274	-27.4246	28.2989	0.5942	-0.3424	0.6791	0.2617
11.09	-9.6384	-0.4899	-1.5187	0.0192	-0.0081	0.0077	29.4927	-27.2862	28.1659	0.5942	-0.3424	0.6791	0.2617
11.1	-9.6430	-0.4909	-1.5249	0.0190	-0.0033	0.0096	29.5060	-27.2746	28.1265	0.5942	-0.3424	0.6792	0.2617
11.11	-9.6424	-0.4913	-1.5226	0.0211	0.0054	0.0096	29.5457	-27.3315	28.2400	0.5941	-0.3424	0.6792	0.2616
11.12	-9.6440	-0.4893	-1.5236	0.0192	-0.0072	0.0094	29.3796	-27.4183	28.1606	0.5941	-0.3424	0.6792	0.2616
11.13	-9.6518	-0.4872	-1.5262	0.0190	-0.0038	0.0077	29.6167	-27.3852	28.4707	0.5941	-0.3424	0.6792	0.2616
11.14	-9.6405	-0.4819	-1.5179	0.0191	-0.0067	0.0100	29.8921	-27.3237	28.5863	0.5941	-0.3424	0.6792	0.2616
11.15	-9.6402	-0.4906	-1.5207	0.0187	-0.0141	0.0130	30.0206	-27.1822	28.5372	0.5941	-0.3424	0.6792	0.2616
11.16	-9.6495	-0.4938	-1.5314	0.0202	-0.0137	0.0129	29.7002	-27.3483	28.6353	0.5942	-0.3424	0.6792	0.2616
11.17	-9.6400	-0.4940	-1.5324	0.0229	-0.0076	0.0114	29.5717	-27.9608	28.3115	0.5942	-0.3424	0.6792	0.2616
11.18	-9.6369	-0.4935	-1.5318	0.0191	-0.0021	0.0084	29.5651	-28.1395	28.1361	0.5941	-0.3424	0.6792	0.2616
11.19	-9.6492	-0.4967	-1.5434	0.0193	-0.0121	0.0155	29.2903	-27.2801	28.2118	0.5942	-0.3423	0.6792	0.2616
11.2	-9.6499	-0.4982	-1.5486	0.0191	-0.0066	0.0134	29.4432	-27.3143	28.5089	0.5942	-0.3423	0.6792	0.2616
11.21	-9.6408	-0.5028	-1.5464	0.0191	-0.0064	0.0086	29.2829	-27.3745	28.5709	0.5941	-0.3423	0.6792	0.2616
11.22	-9.6445	-0.5059	-1.5551	0.0194	-0.0093	0.0130	29.3709	-27.1600	28.4680	0.5942	-0.3423	0.6792	0.2616
11.23	-9.6453	-0.5113	-1.5612	0.0186	-0.0059	0.0112	29.2222	-27.2607	28.5113	0.5942	-0.3423	0.6792	0.2616
11.24	-9.6397	-0.5082	-1.5532	0.0209	-0.0069	0.0124	29.3895	-27.3209	28.5045	0.5942	-0.3423	0.6793	0.2616
11.25	-9.6438	-0.5072	-1.5525	0.0196	-0.0068	0.0115	29.2454	-27.2168	28.4570	0.5941	-0.3422	0.6793	0.2616
11.26	-9.6508	-0.4989	-1.5494	0.0191	-0.0160	0.0145	29.3285	-27.2497	28.3720	0.5942	-0.3422	0.6792	0.2617
11.27	-9.6475	-0.4920	-1.5399	0.0172	-0.0078	0.0118	29.4309	-27.3406	28.4640	0.5942	-0.3422	0.6792	0.2617
11.28	-9.6365	-0.4862	-1.5329	0.0196	-0.0093	0.0100	29.2793	-27.4445	28.4886	0.5942	-0.3422	0.6792	0.2617
11.29	-9.6448	-0.4820	-1.5300	0.0197	-0.0082	0.0130	29.4545	-27.5926	28.5674	0.5942	-0.3422	0.6792	0.2617
11.3	-9.6526	-0.4808	-1.5270	0.0196	-0.0092	0.0109	29.6239	-27.3942	28.2782	0.5942	-0.3422	0.6792	0.2617
11.31	-9.6432	-0.4791	-1.5253	0.0170	-0.0112	0.0120	29.4178	-27.3009	28.1905	0.5942	-0.3422	0.6792	0.2617
11.32	-9.6418	-0.4806	-1.5191	0.0157	-0.0075	0.0105	29.3401	-27.1667	28.3485	0.5942	-0.3422	0.6792	0.2617
11.33	-9.6504	-0.4808	-1.5298	0.0181	-0.0090	0.0108	29.5264	-27.2196	28.4030	0.5942	-0.3421	0.6792	0.2617
11.34	-9.6452	-0.4801	-1.5160	0.0175	-0.0092	0.0116	29.4733	-27.2584	28.4023	0.5942	-0.3421	0.6792	0.2617
11.35	-9.6369	-0.4753	-1.5105	0.0210	-0.0094	0.0096	29.5351	-27.3491	28.2102	0.5942	-0.3421	0.6792	0.2617
11.36	-9.6485	-0.4786	-1.5209	0.0168	-0.0102	0.0125	29.4002	-27.2639	28.4405	0.5942	-0.3421	0.6792	0.2617
11.37	-9.6447	-0.4861	-1.5165	0.0186	-0.0078	0.0106	29.1307	-27.2237	28.3924	0.5942	-0.3421	0.6792	0.2617
11.38	-9.6340	-0.4832	-1.5144	0.0165	-0.0098	0.0116	29.4154	-27.3781	28.5311	0.5942	-0.3421	0.6792	0.2618
11.39	-9.6425	-0.4819	-1.5221	0.0178	-0.0073	0.0119	29.6777	-27.2337	28.3350	0.5942	-0.3421	0.6792	0.2618
11.4	-9.6527	-0.4896	-1.5326	0.0165	-0.0091	0.0111	29.3345	-27.3199	28.6138	0.5942	-0.3421	0.6792	0.2618
