time	acceleration_x	acceleration_y	acceleration_z	gyroscope_x	gyroscope_y	gyroscope_z	magnetometer_x	magnetometer_y	magnetometer_z	quaternion_w	quaternion_x	quaternion_y	quaternion_z
0	0.6796	-9.8080	1.1139	-0.2388	-0.0361	-0.0780	7.1354	25.3557	1.1788	0.7242	-0.6549	0.0978	-0.1925
0.01	0.7194	-9.7613	1.0366	-0.2561	-0.0414	-0.0749	7.0941	25.2586	1.3997	0.7232	-0.6559	0.0978	-0.1924
0.02	0.7188	-9.7584	0.9764	-0.2733	-0.0470	-0.0671	7.2367	25.4457	1.3354	0.7224	-0.6571	0.0978	-0.1923
0.03	0.7510	-9.8320	0.8750	-0.3037	-0.0569	-0.0661	7.1734	25.4683	1.6975	0.7213	-0.6582	0.0977	-0.1921
0.04	0.7828	-9.9347	0.8083	-0.3163	-0.0627	-0.0609	7.0391	25.5577	1.7226	0.7203	-0.6595	0.0976	-0.1919
0.05	0.8098	-10.0953	0.7493	-0.3355	-0.0704	-0.0579	6.9945	25.5717	1.8037	0.7191	-0.6607	0.0975	-0.1917
0.06	0.8286	-10.2282	0.6395	-0.3282	-0.0737	-0.0463	7.4146	25.5856	2.0723	0.7180	-0.6621	0.0975	-0.1915
0.07	0.8209	-10.2903	0.5743	-0.2899	-0.0757	-0.0350	7.2953	25.7018	2.0995	0.7170	-0.6632	0.0974	-0.1912
0.08	0.8049	-10.3209	0.5285	-0.2565	-0.0720	-0.0268	7.6138	25.6671	2.0805	0.7162	-0.6642	0.0973	-0.1909
0.09	0.7924	-10.3472	0.4713	-0.2340	-0.0778	-0.0153	7.5526	25.7766	2.0918	0.7154	-0.6652	0.0972	-0.1905
0.1	0.7900	-10.3261	0.4230	-0.1978	-0.0766	-0.0219	7.0209	25.8562	2.2479	0.7148	-0.6660	0.0971	-0.1902
0.11	0.7436	-10.2450	0.3907	-0.1599	-0.0710	-0.0145	6.8416	25.4599	2.2831	0.7143	-0.6666	0.0970	-0.1899
0.12	0.6806	-10.1660	0.3587	-0.1333	-0.0823	-0.0145	7.0381	25.6159	2.2664	0.7137	-0.6671	0.0968	-0.1896
0.13	0.6390	-10.1607	0.3112	-0.1290	-0.0823	-0.0162	7.3888	25.3217	2.2862	0.7134	-0.6678	0.0966	-0.1893
0.14	0.6202	-10.1565	0.2652	-0.1130	-0.0958	-0.0241	7.2592	25.0631	2.2908	0.7130	-0.6683	0.0963	-0.1890
0.15	0.6000	-10.1328	0.2535	-0.0851	-0.1126	-0.0234	7.1516	25.2580	2.2706	0.7128	-0.6687	0.0960	-0.1886
0.16	0.5933	-10.1528	0.2576	-0.0740	-0.1222	-0.0329	7.0355	25.2017	2.3814	0.7125	-0.6691	0.0955	-0.1883
0.17	0.5745	-10.2304	0.2872	-0.0493	-0.1263	-0.0337	7.0310	25.5233	2.5113	0.7124	-0.6694	0.0951	-0.1879
0.18	0.5717	-10.3283	0.3111	-0.0326	-0.1423	-0.0322	7.1054	25.3934	2.3803	0.7123	-0.6697	0.0945	-0.1875
0.19	0.5996	-10.4001	0.3588	0.0063	-0.1585	-0.0386	7.1616	25.5144	2.3629	0.7123	-0.6698	0.0939	-0.1871
0.2	0.6225	-10.5109	0.4222	0.0363	-0.1742	-0.0401	7.1168	25.4447	2.4665	0.7126	-0.6700	0.0931	-0.1867
0.21	0.6655	-10.3752	0.3564	0.0993	-0.1807	-0.0414	7.0056	25.3389	2.4927	0.7128	-0.6698	0.0923	-0.1862
0.22	0.6369	-10.0852	0.4554	0.1786	-0.1737	-0.0444	6.8898	25.6458	2.3587	0.7135	-0.6694	0.0914	-0.1859
0.23	0.6636	-9.9740	0.5508	0.1576	-0.2075	-0.0501	6.7585	25.4604	2.4693	0.7140	-0.6690	0.0904	-0.1854
0.24	0.7521	-10.0982	0.5986	0.1469	-0.2281	-0.0716	7.0429	25.6408	2.5553	0.7146	-0.6687	0.0892	-0.1849
0.25	0.8368	-10.1456	0.6384	0.1707	-0.2420	-0.0745	7.0235	25.5228	2.1895	0.7152	-0.6684	0.0880	-0.1844
0.26	0.8958	-10.1936	0.8206	0.2047	-0.2500	-0.0771	6.8404	25.4101	2.1844	0.7158	-0.6679	0.0867	-0.1839
0.27	0.9757	-10.2207	0.7863	0.2092	-0.2639	-0.0854	6.9992	25.3960	2.1873	0.7167	-0.6675	0.0853	-0.1834
0.28	1.0786	-9.8834	0.7621	0.2749	-0.2711	-0.0818	6.9009	25.4319	2.0331	0.7175	-0.6668	0.0838	-0.1829
0.29	1.1346	-9.6297	0.9848	0.2709	-0.2782	-0.0774	6.8680	25.5766	1.9461	0.7185	-0.6662	0.0824	-0.1824
0.3	1.2384	-9.6400	0.9841	0.2117	-0.2742	-0.0698	6.7851	25.5878	1.7767	0.7192	-0.6656	0.0810	-0.1817
0.31	1.3022	-9.7346	0.9867	0.1804	-0.2620	-0.0659	6.7767	25.5557	1.7509	0.7199	-0.6653	0.0797	-0.1812
0.32	1.3914	-9.6932	1.0508	0.1886	-0.2598	-0.0656	6.7755	25.1082	1.6235	0.7206	-0.6648	0.0784	-0.1806
0.33	1.4233	-9.6748	1.1277	0.1746	-0.2336	-0.0559	6.7933	25.2844	1.5035	0.7212	-0.6644	0.0772	-0.1800
0.34	1.4566	-9.6673	1.1201	0.1495	-0.2149	-0.0442	6.5814	25.4177	1.5667	0.7218	-0.6641	0.0762	-0.1795
0.35	1.4711	-9.6703	1.1853	0.1359	-0.2038	-0.0358	6.6118	25.5277	1.2280	0.7223	-0.6638	0.0752	-0.1790
0.36	1.4985	-9.7429	1.2291	0.1091	-0.1759	-0.0330	6.5677	25.5990	1.3342	0.7227	-0.6636	0.0744	-0.1785
0.37	1.5086	-9.7519	1.2235	0.1004	-0.1508	-0.0310	6.3843	25.5498	1.3725	0.7230	-0.6633	0.0737	-0.1781
0.38	1.5149	-9.6987	1.2492	0.1046	-0.1290	-0.0162	6.4668	25.5894	1.1000	0.7234	-0.6631	0.0731	-0.1778
0.39	1.5158	-9.6530	1.2563	0.0929	-0.1102	-0.0095	6.6591	25.5338	1.2351	0.7238	-0.6629	0.0726	-0.1774
0.4	1.5305	-9.6530	1.2510	0.0726	-0.0862	-0.0062	6.5196	25.4107	1.2817	0.7240	-0.6627	0.0722	-0.1772
0.41	1.5424	-9.6508	1.2395	0.0552	-0.0548	-0.0053	6.3990	25.2744	1.1614	0.7242	-0.6625	0.0720	-0.1770
0.42	1.5277	-9.6677	1.2564	0.0445	-0.0400	0.0023	6.5841	25.4813	1.1597	0.7244	-0.6624	0.0718	-0.1768
0.43	1.5323	-9.7850	1.2844	0.0247	-0.0063	0.0147	6.7581	25.6193	1.1862	0.7245	-0.6624	0.0718	-0.1767
0.44	1.5326	-9.9322	1.2794	0.0262	0.0080	0.0281	6.5039	25.5281	1.0611	0.7246	-0.6622	0.0719	-0.1766
0.45	1.5033	-9.9773	1.3003	0.0535	0.0491	0.0387	6.3014	25.7220	1.1892	0.7248	-0.6620	0.0722	-0.1766
0.46	1.4467	-9.9737	1.3169	0.0716	0.0840	0.0484	6.5135	25.5499	1.1151	0.7250	-0.6617	0.0726	-0.1767
0.47	1.3826	-9.9491	1.3135	0.0776	0.1128	0.0678	6.4872	25.4607	1.0524	0.7254	-0.6613	0.0732	-0.1769
0.48	1.3103	-9.9105	1.3167	0.0939	0.1412	0.0845	6.6230	25.4852	1.0821	0.7256	-0.6608	0.0739	-0.1770
0.49	1.2339	-9.8672	1.3158	0.1038	0.1723	0.0902	6.5699	25.4924	1.1932	0.7260	-0.6602	0.0748	-0.1773
0.5	1.1514	-9.8127	1.3099	0.1040	0.1900	0.0952	6.8980	25.6267	0.9203	0.7264	-0.6597	0.0757	-0.1776
0.51	1.0640	-9.7472	1.3038	0.1110	0.2176	0.1008	6.9802	25.4631	0.8827	0.7267	-0.6590	0.0767	-0.1779
0.52	0.9552	-9.7038	1.2941	0.1077	0.2389	0.0968	6.9557	25.5135	0.8856	0.7271	-0.6585	0.0779	-0.1784
0.53	0.8952	-9.7350	1.2909	0.0864	0.2440	0.0915	6.9286	25.2865	0.9253	0.7273	-0.6578	0.0790	-0.1788
0.54	0.8318	-9.7751	1.2710	0.0948	0.2474	0.0755	6.8303	25.2241	0.8089	0.7277	-0.6573	0.0801	-0.1794
0.55	0.8042	-9.7955	1.2659	0.1126	0.2307	0.0651	6.9502	25.5415	0.8953	0.7279	-0.6566	0.0811	-0.1799
0.56	0.8388	-9.8338	1.3025	0.1199	0.2102	0.0493	7.3259	25.3175	0.8900	0.7283	-0.6560	0.0820	-0.1804
0.57	0.8834	-9.8719	1.3250	0.1358	0.2045	0.0338	7.6155	25.3604	0.9534	0.7287	-0.6553	0.0827	-0.1810
0.58	0.9241	-9.8493	1.3354	0.1379	0.1936	0.0253	7.9930	25.4874	1.0281	0.7291	-0.6546	0.0834	-0.1816
0.59	0.9608	-9.7660	1.3572	0.1415	0.1894	0.0183	7.4712	25.5055	1.0019	0.7295	-0.6539	0.0841	-0.1822
0.6	0.9758	-9.7253	1.3761	0.1278	0.1870	0.0079	6.9609	25.7136	0.6870	0.7298	-0.6533	0.0847	-0.1828
0.61	0.9978	-9.7009	1.3606	0.1040	0.1812	0.0049	7.2462	25.5404	0.6202	0.7301	-0.6527	0.0853	-0.1834
0.62	0.9877	-9.6350	1.3604	0.0876	0.1819	0.0004	7.1056	25.6547	0.6242	0.7303	-0.6522	0.0860	-0.1839
0.63	0.9615	-9.5897	1.3367	0.0520	0.1798	0.0056	7.1211	25.5248	0.6539	0.7305	-0.6519	0.0867	-0.1845
0.64	0.9423	-9.5560	1.3068	0.0187	0.1730	0.0013	7.1144	25.6016	0.7466	0.7304	-0.6516	0.0874	-0.1850
0.65	0.9191	-9.5795	1.3042	-0.0013	0.1677	0.0035	7.1255	25.4077	0.7262	0.7304	-0.6515	0.0881	-0.1854
0.66	0.8978	-9.6647	1.2652	-0.0281	0.1567	-0.0059	7.1087	25.3759	0.7322	0.7302	-0.6514	0.0888	-0.1859
0.67	0.8942	-9.7091	1.2136	-0.0371	0.1402	0.0033	7.2573	25.2506	0.6221	0.7300	-0.6515	0.0894	-0.1862
0.68	0.9279	-9.7313	1.2392	-0.0384	0.1197	0.0042	7.3094	25.2060	0.8593	0.7298	-0.6515	0.0900	-0.1865
0.69	0.9354	-9.8899	1.2453	-0.0555	0.1167	0.0026	7.2736	25.1405	0.7306	0.7296	-0.6515	0.0905	-0.1868
0.7	0.9423	-10.0392	1.1476	-0.0581	0.1026	0.0156	7.4208	25.1986	0.7408	0.7294	-0.6517	0.0911	-0.1871
0.71	0.9373	-10.0823	1.1715	-0.0160	0.0872	0.0192	7.3358	25.2497	0.7218	0.7293	-0.6517	0.0915	-0.1872
0.72	0.9477	-10.1310	1.1526	-0.0033	0.0644	0.0372	7.2549	25.3248	0.7859	0.7293	-0.6517	0.0919	-0.1873
0.73	0.9628	-10.0189	1.0493	0.0340	0.0571	0.0498	7.4117	25.1973	0.9547	0.7293	-0.6514	0.0923	-0.1873
0.74	0.9071	-9.8959	1.1365	0.0598	0.0524	0.0642	7.3549	25.2167	0.8804	0.7296	-0.6512	0.0926	-0.1872
0.75	0.8740	-9.9876	1.1228	0.0302	0.0445	0.0705	7.2570	25.2135	0.8174	0.7298	-0.6510	0.0930	-0.1871
0.76	0.8814	-10.1221	1.0722	0.0360	0.0318	0.0778	7.3796	25.1440	0.8292	0.7299	-0.6508	0.0934	-0.1869
0.77	0.8740	-10.0952	1.0894	0.0747	0.0265	0.0894	7.4913	25.0925	0.8507	0.7303	-0.6505	0.0937	-0.1867
0.78	0.8485	-9.9935	1.1050	0.0872	0.0281	0.0862	7.4512	25.1848	0.6352	0.7306	-0.6501	0.0941	-0.1865
0.79	0.8463	-9.9569	1.1134	0.0975	0.0219	0.0829	7.4930	25.1957	0.7364	0.7310	-0.6497	0.0944	-0.1863
0.8	0.8552	-9.9672	1.1173	0.0849	0.0271	0.0770	7.3567	25.3899	0.6346	0.7313	-0.6493	0.0947	-0.1861
0.81	0.8453	-9.9498	1.1071	0.0797	0.0388	0.0718	7.5353	25.4885	0.5430	0.7316	-0.6490	0.0950	-0.1860
0.82	0.8272	-9.9269	1.1210	0.1001	0.0451	0.0725	7.5451	25.1430	0.6799	0.7320	-0.6485	0.0953	-0.1859
0.83	0.8119	-9.9168	1.1213	0.0961	0.0603	0.0658	7.6481	25.3886	0.6403	0.7323	-0.6481	0.0957	-0.1858
0.84	0.7974	-9.9123	1.1136	0.0980	0.0633	0.0628	7.6406	25.4723	0.5353	0.7327	-0.6477	0.0961	-0.1858
0.85	0.7935	-9.8820	1.1241	0.1008	0.0721	0.0620	7.6950	25.2444	0.4347	0.7330	-0.6472	0.0965	-0.1858
0.86	0.7714	-9.8435	1.1235	0.1039	0.0813	0.0608	7.7403	25.3318	0.6985	0.7334	-0.6467	0.0969	-0.1859
0.87	0.7434	-9.8191	1.1426	0.1013	0.0852	0.0472	7.8281	25.2186	0.4424	0.7336	-0.6462	0.0973	-0.1860
0.88	0.7312	-9.8355	1.1476	0.1010	0.0880	0.0367	7.9157	24.9766	0.4817	0.7340	-0.6458	0.0977	-0.1862
0.89	0.7153	-9.8521	1.1589	0.1064	0.0967	0.0354	8.1171	24.9710	0.4240	0.7343	-0.6453	0.0981	-0.1864
0.9	0.6839	-9.8368	1.1771	0.1032	0.1153	0.0270	7.9372	25.1291	0.3452	0.7347	-0.6448	0.0985	-0.1867
0.91	0.6573	-9.8096	1.1906	0.1142	0.1258	0.0246	7.9211	25.1283	0.3924	0.7350	-0.6442	0.0990	-0.1870
0.92	0.6234	-9.7873	1.2144	0.1097	0.1267	0.0287	8.1279	24.9854	0.6072	0.7353	-0.6437	0.0995	-0.1874
0.93	0.6108	-9.8187	1.2383	0.0931	0.1251	0.0294	7.9027	25.1310	0.2946	0.7356	-0.6432	0.1000	-0.1877
0.94	0.6126	-9.8518	1.2501	0.0966	0.1322	0.0326	7.9050	25.0287	0.2815	0.7358	-0.6427	0.1005	-0.1880
0.95	0.6021	-9.8354	1.2650	0.0973	0.1388	0.0343	8.0433	25.1598	0.2739	0.7361	-0.6423	0.1010	-0.1883
0.96	0.5850	-9.7943	1.2926	0.0977	0.1519	0.0351	8.0735	25.0709	0.1494	0.7364	-0.6417	0.1016	-0.1887
0.97	0.5767	-9.7772	1.2900	0.0782	0.1508	0.0315	7.7271	25.2901	0.2633	0.7366	-0.6413	0.1023	-0.1891
0.98	0.5660	-9.7961	1.3005	0.0703	0.1576	0.0347	8.1704	25.2106	0.3724	0.7367	-0.6408	0.1029	-0.1894
0.99	0.5399	-9.8306	1.2998	0.0527	0.1567	0.0354	8.1284	25.2374	0.5043	0.7369	-0.6405	0.1037	-0.1898
1	0.4833	-9.8712	1.2836	0.0483	0.1555	0.0276	7.9889	25.3031	0.2059	0.7370	-0.6402	0.1044	-0.1901
1.01	0.4328	-9.9427	1.2874	0.0450	0.1545	0.0336	8.3036	25.0752	0.2005	0.7370	-0.6398	0.1050	-0.1905
1.02	0.3967	-10.0705	1.2956	0.0417	0.1327	0.0315	8.1667	25.2703	0.0657	0.7372	-0.6396	0.1056	-0.1908
1.03	0.3838	-10.1800	1.2962	0.0508	0.1095	0.0333	8.1847	25.1328	0.0135	0.7373	-0.6392	0.1061	-0.1911
1.04	0.3715	-10.2300	1.3101	0.0714	0.0904	0.0484	8.2000	25.1850	0.1850	0.7376	-0.6389	0.1066	-0.1912
1.05	0.3540	-10.1928	1.3095	0.0996	0.0715	0.0591	8.1335	25.2381	0.2737	0.7378	-0.6384	0.1070	-0.1912
1.06	0.3628	-10.0946	1.3104	0.1211	0.0579	0.0675	8.6114	24.9734	0.2932	0.7383	-0.6379	0.1073	-0.1912
1.07	0.3726	-10.0152	1.3305	0.1257	0.0389	0.0800	9.2503	25.1217	0.1148	0.7387	-0.6374	0.1076	-0.1911
1.08	0.3967	-9.9750	1.3268	0.1201	0.0231	0.0866	9.5432	25.1846	0.1263	0.7391	-0.6368	0.1079	-0.1909
1.09	0.4278	-9.9343	1.3408	0.1175	0.0110	0.0948	9.2886	25.1233	-0.0861	0.7396	-0.6364	0.1082	-0.1906
1.1	0.4222	-9.8908	1.3654	0.1239	0.0134	0.0975	8.8447	25.2259	-0.0906	0.7401	-0.6358	0.1084	-0.1904
1.11	0.4048	-9.8470	1.3604	0.1221	0.0230	0.0992	8.6970	25.1807	-0.1590	0.7406	-0.6353	0.1087	-0.1901
1.12	0.3755	-9.8084	1.3705	0.1216	0.0231	0.1024	8.4925	25.0128	-0.1922	0.7410	-0.6347	0.1091	-0.1898
1.13	0.3443	-9.7919	1.3888	0.1227	0.0261	0.0974	8.7967	24.9911	-0.1935	0.7415	-0.6343	0.1094	-0.1896
1.14	0.3000	-9.7913	1.4111	0.1340	0.0323	0.0985	8.9440	25.1730	-0.2944	0.7420	-0.6337	0.1097	-0.1894
1.15	0.2333	-9.7909	1.4336	0.1511	0.0351	0.0985	8.7915	24.8960	-0.0284	0.7425	-0.6331	0.1101	-0.1892
1.16	0.1833	-9.7817	1.4686	0.1524	0.0348	0.0896	8.9029	25.1851	-0.3273	0.7431	-0.6324	0.1104	-0.1890
1.17	0.1571	-9.7775	1.5221	0.1694	0.0320	0.0735	9.1424	25.0827	-0.3473	0.7436	-0.6317	0.1106	-0.1889
1.18	0.1334	-9.7290	1.5384	0.1767	0.0291	0.0647	9.1583	25.0514	-0.2271	0.7443	-0.6310	0.1108	-0.1888
1.19	0.1179	-9.6632	1.5841	0.1773	0.0377	0.0539	8.8422	24.9629	-0.3695	0.7448	-0.6302	0.1109	-0.1888
1.2	0.1156	-9.6390	1.6280	0.1734	0.0290	0.0335	9.0552	24.9562	-0.4682	0.7454	-0.6296	0.1110	-0.1889
1.21	0.1399	-9.6212	1.6485	0.1586	0.0288	0.0254	9.1586	25.0968	-0.4623	0.7459	-0.6289	0.1111	-0.1889
1.22	0.1604	-9.5881	1.6894	0.1497	0.0267	0.0236	9.0164	24.9643	-0.7056	0.7465	-0.6284	0.1112	-0.1890
1.23	0.1854	-9.5722	1.7144	0.1331	0.0268	0.0184	9.2660	24.8755	-0.8308	0.7468	-0.6278	0.1113	-0.1890
1.24	0.2182	-9.6068	1.7507	0.1168	0.0304	0.0140	9.2606	24.9598	-0.9592	0.7472	-0.6274	0.1114	-0.1890
1.25	0.2525	-9.6444	1.7726	0.0861	0.0365	0.0064	9.3716	24.8129	-1.0129	0.7474	-0.6270	0.1116	-0.1891
1.26	0.2569	-9.6625	1.7850	0.0746	0.0382	0.0049	8.9408	24.9924	-0.6902	0.7476	-0.6267	0.1117	-0.1891
1.27	0.2652	-9.6777	1.7869	0.0614	0.0395	-0.0006	9.1981	24.7316	-0.8675	0.7479	-0.6265	0.1119	-0.1892
1.28	0.2755	-9.6846	1.8005	0.0426	0.0531	-0.0017	9.2730	24.8344	-1.1852	0.7479	-0.6262	0.1122	-0.1893
1.29	0.2603	-9.6756	1.7871	0.0470	0.0604	0.0019	9.4444	24.8766	-0.9647	0.7481	-0.6261	0.1125	-0.1895
1.3	0.2311	-9.6535	1.7914	0.0316	0.0592	-0.0016	9.3170	24.8727	-0.6944	0.7480	-0.6258	0.1127	-0.1896
1.31	0.1977	-9.6612	1.7834	0.0235	0.0595	0.0011	9.3616	24.8500	-0.8791	0.7481	-0.6258	0.1130	-0.1897
1.32	0.1766	-9.6959	1.7838	0.0108	0.0570	-0.0010	9.4297	24.9306	-1.0874	0.7481	-0.6257	0.1133	-0.1898
1.33	0.1804	-9.7439	1.7851	0.0024	0.0525	-0.0057	9.1909	24.9611	-1.1359	0.7481	-0.6256	0.1136	-0.1899
1.34	0.1813	-9.7592	1.7784	0.0098	0.0536	-0.0049	9.4968	24.9595	-0.8559	0.7481	-0.6256	0.1139	-0.1900
1.35	0.1765	-9.7351	1.7855	0.0129	0.0542	-0.0031	9.2076	25.0597	-0.9899	0.7481	-0.6255	0.1141	-0.1901
1.36	0.1787	-9.7279	1.7795	0.0057	0.0467	-0.0043	9.2035	24.8478	-0.9474	0.7481	-0.6255	0.1144	-0.1902
1.37	0.1830	-9.7082	1.7675	-0.0016	0.0379	-0.0049	9.2773	24.8882	-0.9035	0.7479	-0.6254	0.1146	-0.1903
1.38	0.1644	-9.6644	1.7608	0.0041	0.0414	-0.0045	9.2312	24.8404	-0.9041	0.7480	-0.6254	0.1149	-0.1904
1.39	0.1413	-9.6481	1.7527	-0.0113	0.0388	-0.0049	9.2721	24.9272	-0.7968	0.7479	-0.6254	0.1151	-0.1904
1.4	0.1276	-9.6652	1.7324	-0.0277	0.0247	-0.0035	9.2288	24.6813	-0.8149	0.7478	-0.6255	0.1153	-0.1904
1.41	0.1193	-9.6894	1.7325	-0.0304	0.0081	-0.0063	9.2690	24.7945	-0.9179	0.7477	-0.6256	0.1154	-0.1904
1.42	0.1357	-9.7421	1.7408	-0.0347	-0.0116	-0.0083	9.3315	25.1122	-0.9046	0.7476	-0.6258	0.1155	-0.1903
1.43	0.1596	-9.8011	1.7331	-0.0318	-0.0171	-0.0071	9.3992	24.9947	-0.7346	0.7475	-0.6260	0.1155	-0.1902
1.44	0.1838	-9.8271	1.7301	-0.0296	-0.0321	-0.0127	9.4378	24.7773	-0.7016	0.7473	-0.6260	0.1154	-0.1901
1.45	0.2161	-9.8420	1.7369	-0.0280	-0.0432	-0.0138	9.4186	24.7996	-0.9624	0.7473	-0.6263	0.1153	-0.1900
1.46	0.2437	-9.8566	1.7346	-0.0288	-0.0502	-0.0114	9.5708	24.8868	-0.8569	0.7472	-0.6264	0.1151	-0.1898
1.47	0.2730	-9.8698	1.7349	-0.0250	-0.0565	-0.0217	9.4163	24.8819	-0.8077	0.7472	-0.6266	0.1149	-0.1897
1.48	0.3146	-9.8646	1.7374	-0.0108	-0.0627	-0.0202	9.4414	24.7623	-0.8277	0.7471	-0.6267	0.1147	-0.1895
1.49	0.3438	-9.8230	1.7304	-0.0080	-0.0590	-0.0114	9.4005	24.8161	-0.8030	0.7471	-0.6268	0.1145	-0.1893
1.5	0.3615	-9.8316	1.7448	-0.0163	-0.0612	-0.0100	9.5065	24.6921	-0.6551	0.7471	-0.6269	0.1142	-0.1891
1.51	0.3985	-9.8860	1.7319	-0.0174	-0.0677	-0.0202	9.4444	24.8423	-0.9245	0.7470	-0.6270	0.1140	-0.1889
1.52	0.4451	-9.8897	1.7370	-0.0007	-0.0684	-0.0098	9.4180	24.9846	-0.8993	0.7471	-0.6272	0.1137	-0.1888
1.53	0.4671	-9.8614	1.7526	0.0032	-0.0627	-0.0121	9.2793	24.8148	-0.9585	0.7471	-0.6272	0.1135	-0.1886
1.54	0.4993	-9.8558	1.7476	0.0024	-0.0514	-0.0165	9.2415	24.9228	-0.9890	0.7472	-0.6273	0.1133	-0.1884
1.55	0.5058	-9.8491	1.7533	-0.0039	-0.0420	-0.0077	9.2307	24.7334	-0.6969	0.7471	-0.6273	0.1131	-0.1883
1.56	0.4976	-9.8489	1.7542	0.0002	-0.0286	-0.0065	9.6198	24.9695	-0.5118	0.7471	-0.6274	0.1130	-0.1882
1.57	0.4770	-9.8452	1.7609	0.0126	-0.0226	-0.0052	9.7347	25.0501	-0.4057	0.7472	-0.6274	0.1129	-0.1881
1.58	0.4384	-9.8391	1.7554	0.0227	-0.0069	-0.0045	10.2145	25.1733	-0.5366	0.7472	-0.6273	0.1129	-0.1881
1.59	0.3914	-9.8332	1.7487	0.0215	0.0072	-0.0064	9.9100	25.1058	-0.6993	0.7473	-0.6273	0.1129	-0.1881
1.6	0.3634	-9.8187	1.7501	0.0244	0.0120	-0.0049	9.2685	25.1622	-0.6878	0.7473	-0.6271	0.1130	-0.1882
1.61	0.3436	-9.8126	1.7491	0.0379	0.0103	-0.0051	9.2724	24.9796	-0.9541	0.7475	-0.6270	0.1130	-0.1882
1.62	0.3330	-9.7979	1.7472	0.0352	0.0213	-0.0069	9.3333	24.6598	-0.7892	0.7475	-0.6268	0.1130	-0.1883
1.63	0.3176	-9.7861	1.7575	0.0356	0.0302	-0.0115	9.5001	24.6035	-0.8308	0.7476	-0.6267	0.1131	-0.1884
1.64	0.3121	-9.7913	1.7659	0.0414	0.0322	-0.0128	9.5114	24.6165	-0.9295	0.7477	-0.6266	0.1132	-0.1885
1.65	0.3115	-9.8068	1.7787	0.0507	0.0367	-0.0193	9.3857	24.5888	-0.8301	0.7478	-0.6264	0.1133	-0.1887
1.66	0.3069	-9.8138	1.7878	0.0454	0.0394	-0.0124	9.6793	24.7286	-0.6854	0.7479	-0.6261	0.1134	-0.1889
1.67	0.2991	-9.8218	1.7938	0.0493	0.0410	-0.0173	9.5616	24.9035	-0.6408	0.7480	-0.6260	0.1135	-0.1891
1.68	0.2915	-9.8175	1.8017	0.0481	0.0459	-0.0208	9.3487	24.4878	-0.9590	0.7482	-0.6258	0.1136	-0.1893
1.69	0.2704	-9.7946	1.8117	0.0481	0.0508	-0.0257	9.3573	24.6831	-0.7643	0.7482	-0.6255	0.1136	-0.1895
1.7	0.2445	-9.7972	1.8246	0.0488	0.0462	-0.0249	9.3632	24.8155	-0.9719	0.7484	-0.6254	0.1137	-0.1898
1.71	0.2208	-9.8170	1.8257	0.0487	0.0421	-0.0249	9.3353	24.8900	-1.1003	0.7484	-0.6251	0.1138	-0.1900
1.72	0.2093	-9.8017	1.8237	0.0508	0.0437	-0.0292	9.1649	24.8145	-0.8874	0.7486	-0.6250	0.1139	-0.1903
1.73	0.1929	-9.7594	1.8367	0.0487	0.0439	-0.0301	9.2614	24.6594	-0.9062	0.7486	-0.6247	0.1139	-0.1905
1.74	0.1864	-9.7577	1.8439	0.0489	0.0358	-0.0297	9.4124	24.8661	-0.9073	0.7487	-0.6245	0.1140	-0.1907
1.75	0.1781	-9.7454	1.8456	0.0490	0.0233	-0.0304	9.4496	25.1819	-0.7062	0.7488	-0.6244	0.1140	-0.1909
1.76	0.1818	-9.7516	1.8687	0.0483	0.0167	-0.0302	9.1462	25.0386	-0.8956	0.7489	-0.6241	0.1139	-0.1911
1.77	0.2050	-9.7625	1.8710	0.0482	-0.0006	-0.0329	9.3096	24.9647	-0.9220	0.7491	-0.6241	0.1138	-0.1912
1.78	0.2207	-9.7398	1.8725	0.0488	-0.0053	-0.0308	9.0727	25.0751	-0.9063	0.7492	-0.6239	0.1137	-0.1913
1.79	0.2333	-9.7060	1.8825	0.0492	-0.0118	-0.0297	8.9632	25.0010	-0.9057	0.7493	-0.6238	0.1136	-0.1914
1.8	0.2538	-9.6901	1.8893	0.0466	-0.0168	-0.0278	9.0846	24.7532	-0.9864	0.7494	-0.6236	0.1135	-0.1913
1.81	0.2816	-9.7021	1.8969	0.0444	-0.0243	-0.0284	9.3488	24.7021	-1.1336	0.7495	-0.6235	0.1134	-0.1913
1.82	0.3052	-9.7187	1.9112	0.0410	-0.0273	-0.0310	9.3058	24.6486	-1.0184	0.7496	-0.6234	0.1133	-0.1913
1.83	0.3205	-9.7262	1.9227	0.0396	-0.0230	-0.0315	9.2427	24.5804	-0.9853	0.7497	-0.6233	0.1132	-0.1912
1.84	0.3244	-9.7178	1.9158	0.0308	-0.0239	-0.0281	9.3681	24.6195	-0.9987	0.7498	-0.6233	0.1131	-0.1912
1.85	0.3218	-9.6710	1.9159	0.0337	-0.0201	-0.0197	9.2435	24.7313	-1.0071	0.7499	-0.6232	0.1130	-0.1911
1.86	0.3199	-9.6371	1.9241	0.0338	-0.0214	-0.0155	9.2698	24.8192	-1.1897	0.7500	-0.6231	0.1130	-0.1911
1.87	0.3156	-9.6356	1.9088	0.0173	-0.0184	-0.0170	9.2709	24.6770	-1.1808	0.7500	-0.6230	0.1129	-0.1909
1.88	0.3134	-9.6370	1.9155	0.0090	-0.0170	-0.0215	9.2427	24.7098	-1.0800	0.7501	-0.6231	0.1129	-0.1909
1.89	0.3062	-9.6855	1.9260	-0.0078	-0.0168	-0.0206	9.3401	24.9925	-1.0974	0.7500	-0.6232	0.1129	-0.1908
1.9	0.3219	-9.7573	1.9057	-0.0186	-0.0188	-0.0319	9.3084	24.8664	-1.0919	0.7499	-0.6233	0.1128	-0.1908
1.91	0.3471	-9.7781	1.9106	-0.0245	-0.0068	-0.0306	9.1687	24.8812	-1.1743	0.7498	-0.6234	0.1127	-0.1909
1.92	0.3518	-9.7884	1.9031	-0.0281	-0.0001	-0.0319	9.0389	24.9592	-1.2360	0.7497	-0.6235	0.1127	-0.1909
1.93	0.3304	-9.7889	1.8734	-0.0302	0.0126	-0.0284	9.0204	25.0054	-1.0527	0.7496	-0.6237	0.1127	-0.1910
1.94	0.2874	-9.7517	1.8407	-0.0275	0.0179	-0.0161	9.2223	25.0724	-0.9823	0.7494	-0.6237	0.1129	-0.1910
1.95	0.2382	-9.7254	1.8153	-0.0418	0.0158	-0.0179	9.0477	24.9176	-1.1136	0.7493	-0.6240	0.1130	-0.1910
1.96	0.2140	-9.7547	1.7772	-0.0555	0.0093	-0.0156	9.1474	24.9901	-0.7965	0.7491	-0.6242	0.1132	-0.1910
1.97	0.1975	-9.7559	1.7390	-0.0528	0.0046	-0.0216	9.1949	24.9110	-0.8806	0.7489	-0.6244	0.1133	-0.1910
1.98	0.1902	-9.7434	1.7350	-0.0500	-0.0110	-0.0252	9.1769	25.1039	-1.0332	0.7487	-0.6246	0.1134	-0.1909
1.99	0.2048	-9.7710	1.7109	-0.0545	-0.0200	-0.0268	9.0581	24.8297	-1.0867	0.7485	-0.6249	0.1134	-0.1908
2	0.2332	-9.7947	1.7037	-0.0540	-0.0263	-0.0234	9.1375	24.4824	-1.1361	0.7483	-0.6251	0.1134	-0.1907
2.01	0.2525	-9.8154	1.6966	-0.0543	-0.0364	-0.0191	9.2637	24.5697	-1.2089	0.7481	-0.6253	0.1133	-0.1906
2.02	0.2669	-9.8183	1.6868	-0.0431	-0.0323	-0.0223	9.3867	24.8713	-0.9565	0.7481	-0.6256	0.1132	-0.1906
2.03	0.2863	-9.8153	1.6823	-0.0330	-0.0378	-0.0169	9.1799	24.7706	-1.1689	0.7479	-0.6258	0.1130	-0.1904
2.04	0.2997	-9.8136	1.6694	-0.0326	-0.0393	-0.0167	9.2472	24.7300	-0.9342	0.7478	-0.6260	0.1129	-0.1903
2.05	0.3070	-9.7966	1.6560	-0.0251	-0.0434	-0.0119	9.2667	24.7979	-0.7956	0.7477	-0.6261	0.1128	-0.1901
2.06	0.3112	-9.7916	1.6621	-0.0256	-0.0419	-0.0059	9.4016	24.8101	-0.8193	0.7477	-0.6263	0.1128	-0.1899
2.07	0.3180	-9.8334	1.6633	-0.0255	-0.0418	-0.0079	9.6293	25.0181	-1.0062	0.7476	-0.6264	0.1127	-0.1898
2.08	0.3416	-9.8770	1.6779	-0.0072	-0.0465	-0.0064	9.9128	25.0055	-0.8730	0.7476	-0.6265	0.1125	-0.1896
2.09	0.3644	-9.8955	1.6881	-0.0044	-0.0465	-0.0075	9.6023	25.2354	-0.8190	0.7476	-0.6266	0.1124	-0.1895
2.1	0.3929	-9.8749	1.6886	0.0104	-0.0370	-0.0077	9.2248	25.3718	-0.9225	0.7476	-0.6266	0.1122	-0.1893
2.11	0.3989	-9.8360	1.7084	0.0221	-0.0302	-0.0069	8.9017	24.7477	-0.7483	0.7477	-0.6266	0.1121	-0.1893
2.12	0.3837	-9.8328	1.7013	0.0183	-0.0275	-0.0035	8.9608	24.9283	-0.7602	0.7477	-0.6265	0.1120	-0.1891
2.13	0.3712	-9.8380	1.7001	0.0204	-0.0105	0.0024	9.2486	24.9551	-0.7336	0.7479	-0.6265	0.1120	-0.1891
2.14	0.3313	-9.8130	1.7052	0.0230	0.0004	0.0070	9.2185	24.7703	-0.9770	0.7479	-0.6264	0.1121	-0.1890
2.15	0.2975	-9.7937	1.7065	0.0222	-0.0005	0.0039	9.1215	24.7445	-0.9959	0.7480	-0.6263	0.1121	-0.1890
2.16	0.2854	-9.7937	1.7048	0.0228	0.0059	-0.0006	9.2995	24.9449	-0.7847	0.7480	-0.6262	0.1121	-0.1890
2.17	0.2809	-9.7892	1.7093	0.0195	0.0094	-0.0057	9.3301	24.9636	-1.0472	0.7481	-0.6261	0.1122	-0.1890
2.18	0.2777	-9.7866	1.7187	0.0227	0.0085	-0.0060	9.0182	24.8721	-0.9455	0.7482	-0.6261	0.1122	-0.1890
2.19	0.2814	-9.7919	1.7217	0.0200	0.0141	-0.0100	9.2724	24.8381	-0.9666	0.7481	-0.6259	0.1122	-0.1891
2.2	0.2808	-9.7943	1.7130	0.0267	0.0236	-0.0136	9.2395	24.9635	-0.7611	0.7483	-0.6259	0.1123	-0.1892
2.21	0.2687	-9.7778	1.7277	0.0306	0.0258	-0.0155	9.3005	24.6373	-1.0268	0.7483	-0.6257	0.1124	-0.1893
2.22	0.2501	-9.7789	1.7243	0.0348	0.0303	-0.0187	9.3691	24.7682	-1.3149	0.7484	-0.6257	0.1124	-0.1895
2.23	0.2420	-9.7871	1.7410	0.0385	0.0303	-0.0206	9.3447	24.8316	-0.9600	0.7484	-0.6254	0.1125	-0.1896
2.24	0.2248	-9.7850	1.7441	0.0456	0.0258	-0.0178	9.1072	24.7890	-1.1842	0.7486	-0.6253	0.1125	-0.1898
2.25	0.2148	-9.7817	1.7501	0.0471	0.0205	-0.0152	9.2659	25.0264	-1.0410	0.7487	-0.6251	0.1126	-0.1898
2.26	0.2090	-9.7800	1.7544	0.0367	0.0217	-0.0239	9.1735	24.7508	-1.0229	0.7487	-0.6250	0.1127	-0.1899
2.27	0.1977	-9.7679	1.7558	0.0492	0.0126	-0.0235	9.1745	24.8479	-1.0332	0.7489	-0.6249	0.1128	-0.1900
2.28	0.1843	-9.7485	1.7710	0.0370	0.0177	-0.0272	9.1426	24.8869	-1.0243	0.7489	-0.6247	0.1128	-0.1900
2.29	0.1811	-9.7430	1.7752	0.0289	0.0148	-0.0310	9.2623	24.9627	-1.0490	0.7490	-0.6246	0.1129	-0.1901
2.3	0.1788	-9.7324	1.7769	0.0268	0.0037	-0.0301	9.1681	24.9222	-0.9308	0.7490	-0.6245	0.1129	-0.1901
2.31	0.1816	-9.7128	1.7760	0.0241	-0.0020	-0.0308	9.0715	25.0529	-0.9539	0.7491	-0.6245	0.1130	-0.1901
2.32	0.1952	-9.6993	1.7822	0.0229	-0.0038	-0.0310	9.0433	24.8360	-0.9137	0.7491	-0.6244	0.1129	-0.1901
2.33	0.2012	-9.7054	1.7860	0.0226	-0.0111	-0.0325	8.9541	24.9356	-1.0182	0.7491	-0.6244	0.1129	-0.1901
2.34	0.2100	-9.7122	1.7836	0.0177	-0.0198	-0.0343	9.1126	24.8517	-1.1314	0.7492	-0.6244	0.1129	-0.1901
2.35	0.2167	-9.7067	1.7892	0.0089	-0.0156	-0.0336	9.1769	24.8512	-1.1328	0.7492	-0.6244	0.1128	-0.1901
2.36	0.2281	-9.7293	1.7920	0.0042	-0.0270	-0.0344	8.9611	25.0509	-1.0990	0.7492	-0.6245	0.1128	-0.1900
2.37	0.2540	-9.7600	1.7938	0.0065	-0.0265	-0.0362	9.1049	24.9376	-1.2253	0.7491	-0.6245	0.1127	-0.1899
2.38	0.2863	-9.7908	1.7971	0.0017	-0.0317	-0.0416	9.0404	24.6299	-1.4092	0.7492	-0.6246	0.1125	-0.1900
2.39	0.3100	-9.7884	1.7975	-0.0004	-0.0341	-0.0442	9.0116	24.6810	-1.0764	0.7491	-0.6246	0.1122	-0.1900
2.4	0.3175	-9.7806	1.7975	0.0022	-0.0262	-0.0425	9.1218	24.7310	-1.2044	0.7491	-0.6247	0.1121	-0.1900
2.41	0.3291	-9.7633	1.7839	0.0068	-0.0320	-0.0458	8.9708	24.8636	-1.2297	0.7490	-0.6247	0.1120	-0.1899
2.42	0.3470	-9.7494	1.7890	0.0041	-0.0330	-0.0440	8.8727	24.9789	-1.1868	0.7490	-0.6248	0.1119	-0.1899
2.43	0.3605	-9.7431	1.7807	0.0058	-0.0307	-0.0417	8.9684	25.0413	-0.8832	0.7490	-0.6249	0.1118	-0.1898
2.44	0.3764	-9.7610	1.7923	0.0124	-0.0343	-0.0453	8.9993	25.0297	-1.1345	0.7490	-0.6248	0.1116	-0.1898
2.45	0.3951	-9.8153	1.8042	0.0124	-0.0345	-0.0444	8.9977	24.9198	-1.1213	0.7491	-0.6249	0.1114	-0.1898
2.46	0.4189	-9.8731	1.8034	0.0174	-0.0340	-0.0456	8.8111	24.6636	-0.9766	0.7491	-0.6249	0.1111	-0.1898
2.47	0.4389	-9.8848	1.8109	0.0209	-0.0299	-0.0499	8.8794	24.9847	-1.1248	0.7492	-0.6249	0.1109	-0.1899
2.48	0.4454	-9.8557	1.8257	0.0265	-0.0262	-0.0477	8.9129	25.1498	-1.1160	0.7491	-0.6248	0.1107	-0.1900
2.49	0.4433	-9.8232	1.8346	0.0452	-0.0231	-0.0411	8.7837	24.9613	-1.2678	0.7493	-0.6247	0.1105	-0.1901
2.5	0.4271	-9.7825	1.8179	0.0348	-0.0202	-0.0441	8.6451	24.9382	-1.1123	0.7493	-0.6247	0.1103	-0.1901
2.51	0.4097	-9.7294	1.8145	0.0280	-0.0244	-0.0448	8.6972	24.9290	-0.9583	0.7493	-0.6246	0.1100	-0.1902
2.52	0.3976	-9.6935	1.8141	0.0292	-0.0268	-0.0421	8.8490	24.9481	-1.3089	0.7495	-0.6246	0.1099	-0.1903
2.53	0.4086	-9.6923	1.8201	0.0214	-0.0333	-0.0449	8.7798	25.0436	-1.2378	0.7495	-0.6245	0.1096	-0.1903
2.54	0.4381	-9.7093	1.8336	0.0241	-0.0444	-0.0489	8.6576	25.0164	-1.2940	0.7496	-0.6246	0.1094	-0.1903
2.55	0.4791	-9.7183	1.8361	0.0234	-0.0494	-0.0504	8.5196	25.0313	-1.2363	0.7495	-0.6245	0.1092	-0.1902
2.56	0.5138	-9.7199	1.8462	0.0226	-0.0603	-0.0453	8.8003	24.9032	-0.9786	0.7496	-0.6246	0.1089	-0.1901
2.57	0.5519	-9.7320	1.8520	0.0237	-0.0554	-0.0428	9.5141	24.9886	-1.0556	0.7497	-0.6246	0.1087	-0.1900
2.58	0.5963	-9.7389	1.8584	0.0234	-0.0571	-0.0452	9.4011	25.1391	-1.0056	0.7497	-0.6246	0.1085	-0.1898
2.59	0.6245	-9.7547	1.8686	0.0247	-0.0541	-0.0431	8.9094	25.1716	-1.2986	0.7498	-0.6246	0.1082	-0.1897
2.6	0.6452	-9.7841	1.8710	0.0247	-0.0574	-0.0432	8.8720	25.2035	-1.1014	0.7499	-0.6246	0.1079	-0.1897
2.61	0.6555	-9.7840	1.8641	0.0230	-0.0536	-0.0400	8.5593	24.9800	-1.2126	0.7499	-0.6246	0.1076	-0.1897
2.62	0.6688	-9.7497	1.8784	0.0238	-0.0474	-0.0344	8.5390	24.8609	-1.3841	0.7499	-0.6245	0.1073	-0.1896
2.63	0.6672	-9.7710	1.8984	0.0228	-0.0454	-0.0317	8.6840	24.7272	-1.1646	0.7501	-0.6245	0.1071	-0.1896
2.64	0.6707	-9.8114	1.8837	0.0219	-0.0434	-0.0307	8.7425	24.8569	-1.2640	0.7501	-0.6245	0.1069	-0.1895
2.65	0.6736	-9.8223	1.8961	0.0237	-0.0429	-0.0297	8.4601	25.0952	-1.1401	0.7502	-0.6245	0.1066	-0.1895
2.66	0.6927	-9.8138	1.9091	0.0254	-0.0394	-0.0253	8.4835	25.2712	-1.2979	0.7502	-0.6244	0.1064	-0.1894
2.67	0.7004	-9.7802	1.9127	0.0283	-0.0321	-0.0181	8.4321	25.0916	-1.2891	0.7503	-0.6244	0.1063	-0.1893
2.68	0.6931	-9.7625	1.9249	0.0239	-0.0252	-0.0073	8.1512	24.9226	-1.1997	0.7504	-0.6243	0.1062	-0.1893
2.69	0.6864	-9.7537	1.9019	0.0228	-0.0234	-0.0056	8.3768	25.1893	-1.2601	0.7504	-0.6242	0.1061	-0.1892
2.7	0.6721	-9.7254	1.9089	0.0223	-0.0174	-0.0020	8.4929	24.8662	-1.2803	0.7506	-0.6243	0.1060	-0.1891
2.71	0.6536	-9.7085	1.9009	0.0240	-0.0068	-0.0005	8.2850	25.1965	-1.4568	0.7506	-0.6241	0.1060	-0.1891
2.72	0.6522	-9.7164	1.8915	0.0103	-0.0071	0.0010	8.3499	25.1475	-1.4171	0.7507	-0.6242	0.1061	-0.1890
2.73	0.6410	-9.7020	1.8908	0.0020	-0.0037	-0.0006	8.4924	25.0314	-1.2543	0.7506	-0.6241	0.1061	-0.1890
2.74	0.6283	-9.6945	1.8918	-0.0024	0.0074	0.0010	8.3332	25.0041	-1.1671	0.7507	-0.6241	0.1062	-0.1889
2.75	0.6185	-9.6962	1.8805	0.0015	0.0172	0.0001	8.6453	24.9448	-1.6079	0.7507	-0.6241	0.1064	-0.1888
2.76	0.5969	-9.6990	1.8750	0.0035	0.0332	0.0002	8.8783	24.8581	-1.5894	0.7506	-0.6241	0.1066	-0.1888
2.77	0.5852	-9.7057	1.8758	-0.0032	0.0339	-0.0001	8.6694	24.9789	-1.4149	0.7507	-0.6242	0.1069	-0.1888
2.78	0.5634	-9.7208	1.8771	-0.0025	0.0411	0.0040	8.8506	24.8946	-1.3362	0.7506	-0.6241	0.1072	-0.1888
2.79	0.5447	-9.7272	1.8772	-0.0024	0.0439	-0.0019	8.8617	24.9059	-1.4397	0.7506	-0.6241	0.1075	-0.1888
2.8	0.5192	-9.7315	1.8796	-0.0010	0.0400	0.0058	8.3929	24.9829	-1.4073	0.7504	-0.6240	0.1078	-0.1888
2.81	0.4986	-9.7385	1.8816	-0.0025	0.0496	0.0030	8.6461	24.7991	-1.0694	0.7505	-0.6241	0.1082	-0.1888
2.82	0.4819	-9.7434	1.8666	-0.0033	0.0457	-0.0045	8.7496	24.7783	-1.3610	0.7504	-0.6240	0.1085	-0.1889
2.83	0.4656	-9.7348	1.8679	-0.0012	0.0441	-0.0049	8.4396	25.0385	-1.5204	0.7504	-0.6240	0.1088	-0.1889
2.84	0.4623	-9.7442	1.8622	-0.0157	0.0430	-0.0056	8.5826	25.0252	-1.2246	0.7503	-0.6241	0.1091	-0.1889
2.85	0.4537	-9.7558	1.8486	-0.0243	0.0443	-0.0045	8.6635	25.1997	-1.3276	0.7502	-0.6241	0.1094	-0.1890
2.86	0.4393	-9.7440	1.8473	-0.0140	0.0355	-0.0046	8.4400	25.1594	-1.4218	0.7501	-0.6242	0.1097	-0.1890
2.87	0.4463	-9.7514	1.8468	-0.0283	0.0339	-0.0060	8.5773	25.0928	-1.1815	0.7499	-0.6242	0.1099	-0.1889
2.88	0.4446	-9.7629	1.8339	-0.0262	0.0274	-0.0052	8.5335	25.1509	-1.0711	0.7499	-0.6244	0.1102	-0.1889
2.89	0.4493	-9.7600	1.8291	-0.0273	0.0223	-0.0065	8.6276	25.2370	-1.2732	0.7497	-0.6245	0.1104	-0.1889
2.9	0.4482	-9.7537	1.8200	-0.0256	0.0255	-0.0021	8.5906	25.1810	-1.2827	0.7497	-0.6246	0.1107	-0.1889
2.91	0.4424	-9.7467	1.8067	-0.0253	0.0243	-0.0040	8.5380	25.3515	-1.2129	0.7495	-0.6247	0.1109	-0.1888
2.92	0.4503	-9.7385	1.8014	-0.0286	0.0134	-0.0066	8.5710	25.0993	-1.0012	0.7494	-0.6248	0.1111	-0.1888
2.93	0.4484	-9.7333	1.8034	-0.0124	0.0166	-0.0055	8.5608	24.6801	-1.0952	0.7494	-0.6249	0.1113	-0.1887
2.94	0.4629	-9.7469	1.8030	-0.0172	0.0085	-0.0062	8.8487	24.9945	-1.3067	0.7492	-0.6249	0.1115	-0.1886
2.95	0.4762	-9.7562	1.8019	-0.0075	0.0161	-0.0055	8.9036	24.8063	-1.1397	0.7493	-0.6250	0.1117	-0.1886
2.96	0.4815	-9.7779	1.8161	-0.0070	0.0170	-0.0060	8.6612	24.8004	-1.3626	0.7492	-0.6250	0.1118	-0.1886
2.97	0.4762	-9.7799	1.8043	-0.0062	0.0167	-0.0052	8.8369	24.8882	-1.3311	0.7492	-0.6251	0.1120	-0.1886
2.98	0.4627	-9.7461	1.8055	-0.0033	0.0219	-0.0060	8.8125	24.8499	-1.0234	0.7491	-0.6250	0.1122	-0.1885
2.99	0.4557	-9.7354	1.8025	-0.0075	0.0174	-0.0041	8.5966	24.8645	-1.2919	0.7491	-0.6251	0.1124	-0.1885
3	0.4544	-9.7472	1.8087	-0.0112	0.0161	-0.0053	8.8715	24.8681	-1.3229	0.7490	-0.6251	0.1126	-0.1884
3.01	0.4566	-9.7862	1.8177	-0.0217	0.0194	-0.0060	8.6379	24.8505	-0.9318	0.7489	-0.6252	0.1127	-0.1884
3.02	0.4662	-9.8275	1.8144	-0.0179	0.0149	-0.0062	8.6520	24.9787	-1.1488	0.7489	-0.6253	0.1128	-0.1885
3.03	0.4886	-9.8204	1.8151	-0.0011	0.0206	-0.0045	8.6252	25.1962	-1.3076	0.7488	-0.6253	0.1129	-0.1885
3.04	0.4967	-9.7935	1.8219	-0.0044	0.0326	-0.0061	8.7363	25.0179	-1.0015	0.7488	-0.6253	0.1131	-0.1886
3.05	0.4793	-9.7784	1.8009	-0.0069	0.0341	-0.0045	8.6427	25.1444	-0.9977	0.7487	-0.6252	0.1132	-0.1887
3.06	0.4661	-9.7532	1.7873	-0.0146	0.0432	-0.0017	8.7792	25.1006	-0.8832	0.7487	-0.6253	0.1135	-0.1888
3.07	0.4452	-9.7249	1.7762	-0.0238	0.0442	-0.0052	8.9991	25.1833	-0.9458	0.7485	-0.6254	0.1138	-0.1888
3.08	0.4224	-9.7105	1.7586	-0.0289	0.0494	-0.0061	8.9796	24.9832	-1.0541	0.7484	-0.6254	0.1141	-0.1888
3.09	0.4111	-9.7160	1.7462	-0.0314	0.0431	-0.0057	8.7466	25.1908	-1.1796	0.7483	-0.6256	0.1144	-0.1889
3.1	0.4181	-9.7422	1.7385	-0.0379	0.0397	-0.0152	8.8023	25.4029	-1.1516	0.7481	-0.6257	0.1147	-0.1889
3.11	0.4182	-9.7671	1.7304	-0.0436	0.0348	-0.0122	8.5762	25.0447	-1.1301	0.7480	-0.6259	0.1149	-0.1890
3.12	0.4275	-9.7895	1.7287	-0.0417	0.0317	-0.0145	8.5092	24.9600	-1.1105	0.7477	-0.6260	0.1152	-0.1890
3.13	0.4331	-9.8163	1.7196	-0.0380	0.0257	-0.0129	8.7874	24.8589	-1.1479	0.7476	-0.6262	0.1153	-0.1891
3.14	0.4352	-9.8161	1.7161	-0.0288	0.0227	-0.0071	8.8246	24.8449	-1.2000	0.7475	-0.6262	0.1154	-0.1891
3.15	0.4339	-9.8288	1.7139	-0.0299	0.0177	-0.0122	9.0444	24.7295	-1.0038	0.7474	-0.6264	0.1155	-0.1892
3.16	0.4384	-9.8425	1.7030	-0.0258	0.0137	-0.0080	8.6601	25.0001	-1.0441	0.7472	-0.6264	0.1156	-0.1892
3.17	0.4515	-9.8308	1.7032	-0.0146	0.0151	-0.0121	8.6742	25.0482	-0.8908	0.7472	-0.6265	0.1157	-0.1892
3.18	0.4550	-9.7839	1.6972	-0.0101	0.0136	-0.0090	8.8871	24.8792	-1.0125	0.7472	-0.6266	0.1158	-0.1893
3.19	0.4505	-9.7893	1.7048	-0.0134	0.0042	-0.0052	8.6801	24.8643	-1.0413	0.7470	-0.6266	0.1158	-0.1892
3.2	0.4728	-9.8487	1.7023	-0.0220	-0.0101	-0.0046	8.7702	24.9767	-1.0233	0.7471	-0.6267	0.1159	-0.1892
3.21	0.4999	-9.8762	1.7094	-0.0068	-0.0154	-0.0048	8.6339	25.1022	-1.0385	0.7470	-0.6267	0.1158	-0.1891
3.22	0.5129	-9.8585	1.7127	-0.0031	-0.0059	-0.0065	8.4827	25.1666	-1.0325	0.7470	-0.6268	0.1158	-0.1891
3.23	0.5428	-9.8171	1.7284	0.0061	-0.0103	-0.0056	8.7548	25.0250	-1.0405	0.7469	-0.6268	0.1158	-0.1890
3.24	0.5542	-9.8046	1.7493	0.0139	-0.0055	-0.0000	8.8205	25.0711	-0.8880	0.7470	-0.6268	0.1158	-0.1890
3.25	0.5527	-9.8166	1.7480	0.0011	-0.0039	0.0082	8.8114	25.1814	-0.8530	0.7470	-0.6268	0.1159	-0.1889
3.26	0.5317	-9.7917	1.7471	0.0020	0.0123	0.0084	8.8093	25.0260	-1.1543	0.7470	-0.6267	0.1160	-0.1889
3.27	0.5040	-9.7785	1.7555	0.0047	0.0170	0.0107	8.8165	25.1628	-1.0976	0.7471	-0.6268	0.1161	-0.1889
3.28	0.4845	-9.7844	1.7554	0.0007	0.0170	0.0062	8.6819	25.1017	-1.0353	0.7470	-0.6267	0.1162	-0.1889
3.29	0.4693	-9.7750	1.7562	0.0089	0.0167	0.0089	9.0261	25.2261	-0.9746	0.7471	-0.6267	0.1164	-0.1889
3.3	0.4587	-9.7539	1.7562	0.0055	0.0194	0.0049	8.8002	25.1491	-0.9087	0.7470	-0.6266	0.1165	-0.1889
3.31	0.4490	-9.7435	1.7675	0.0054	0.0362	-0.0008	8.7236	24.8877	-1.1990	0.7471	-0.6266	0.1166	-0.1890
3.32	0.4440	-9.7400	1.7599	-0.0012	0.0345	-0.0049	8.8290	25.0455	-1.0344	0.7470	-0.6265	0.1168	-0.1891
3.33	0.4314	-9.7296	1.7597	-0.0029	0.0370	-0.0052	8.5621	24.9990	-1.0606	0.7470	-0.6265	0.1170	-0.1891
3.34	0.4330	-9.7319	1.7627	-0.0023	0.0411	-0.0096	8.8881	24.7345	-0.8842	0.7470	-0.6266	0.1173	-0.1892
3.35	0.4271	-9.7439	1.7567	-0.0023	0.0416	-0.0059	8.9776	24.9725	-1.0195	0.7469	-0.6265	0.1175	-0.1892
3.36	0.4239	-9.7549	1.7614	-0.0057	0.0431	-0.0048	8.8682	25.0826	-1.1599	0.7469	-0.6266	0.1178	-0.1893
3.37	0.4251	-9.7726	1.7649	-0.0053	0.0421	-0.0051	8.9280	25.0161	-1.1200	0.7467	-0.6265	0.1180	-0.1893
3.38	0.4236	-9.7817	1.7529	-0.0053	0.0414	-0.0049	8.7657	25.0841	-1.0050	0.7467	-0.6266	0.1183	-0.1894
3.39	0.4255	-9.7865	1.7523	-0.0121	0.0352	-0.0057	8.8709	25.1280	-1.0987	0.7466	-0.6266	0.1185	-0.1894
3.4	0.4264	-9.8027	1.7395	-0.0167	0.0429	-0.0048	8.9268	24.9362	-1.0834	0.7466	-0.6266	0.1187	-0.1895
3.41	0.4275	-9.8134	1.7274	-0.0222	0.0430	-0.0059	8.7815	25.0734	-0.9123	0.7464	-0.6267	0.1189	-0.1896
3.42	0.4253	-9.8224	1.7297	-0.0259	0.0400	0.0009	8.8414	24.9072	-0.6895	0.7463	-0.6267	0.1191	-0.1897
3.43	0.4191	-9.8319	1.7206	-0.0172	0.0424	-0.0018	8.9301	24.8592	-0.8677	0.7463	-0.6268	0.1193	-0.1898
3.44	0.4093	-9.8226	1.7072	-0.0141	0.0393	-0.0010	8.8027	24.9257	-1.0769	0.7461	-0.6267	0.1195	-0.1899
3.45	0.4103	-9.8112	1.7140	-0.0117	0.0387	0.0039	8.8095	25.2168	-0.7967	0.7462	-0.6268	0.1197	-0.1900
3.46	0.4027	-9.8164	1.7108	-0.0100	0.0325	0.0075	8.9720	25.1752	-0.7524	0.7461	-0.6268	0.1199	-0.1900
3.47	0.3888	-9.8226	1.7030	0.0001	0.0357	0.0118	8.7715	25.1457	-0.7606	0.7461	-0.6268	0.1202	-0.1901
3.48	0.3659	-9.8072	1.7087	0.0007	0.0353	0.0104	9.0301	25.0422	-0.7466	0.7460	-0.6267	0.1203	-0.1901
3.49	0.3443	-9.7919	1.7153	0.0013	0.0365	0.0125	9.0438	24.7185	-0.8864	0.7460	-0.6267	0.1206	-0.1901
3.5	0.3286	-9.7824	1.7120	0.0049	0.0294	0.0005	9.0181	24.8414	-0.9568	0.7460	-0.6267	0.1207	-0.1902
3.51	0.3173	-9.7625	1.7248	0.0049	0.0350	0.0030	9.1195	24.9886	-0.9171	0.7460	-0.6266	0.1209	-0.1902
3.52	0.3101	-9.7758	1.7372	0.0039	0.0317	-0.0031	8.9529	24.8301	-1.0674	0.7461	-0.6267	0.1210	-0.1903
3.53	0.3099	-9.7911	1.7410	-0.0023	0.0271	-0.0052	9.1532	24.8182	-0.9680	0.7459	-0.6266	0.1211	-0.1904
3.54	0.2975	-9.7773	1.7429	0.0125	0.0328	-0.0049	8.9707	24.8823	-0.9343	0.7460	-0.6266	0.1213	-0.1905
3.55	0.2878	-9.7432	1.7482	0.0180	0.0207	-0.0050	9.0858	24.9530	-0.8454	0.7459	-0.6264	0.1215	-0.1904
3.56	0.2800	-9.7210	1.7518	0.0030	0.0170	-0.0056	9.4131	25.0781	-0.8402	0.7460	-0.6265	0.1216	-0.1905
3.57	0.2807	-9.7381	1.7592	-0.0044	0.0122	-0.0046	9.6544	25.0471	-0.8420	0.7459	-0.6265	0.1218	-0.1904
3.58	0.3075	-9.7947	1.7675	-0.0134	0.0128	-0.0050	9.6719	25.0855	-0.7780	0.7458	-0.6265	0.1219	-0.1904
3.59	0.3272	-9.8193	1.7636	-0.0031	0.0132	-0.0046	9.0870	25.1326	-0.6710	0.7458	-0.6266	0.1220	-0.1904
3.6	0.3536	-9.8124	1.7661	-0.0059	0.0165	-0.0049	9.0427	25.5715	-0.7397	0.7458	-0.6266	0.1220	-0.1905
3.61	0.3594	-9.8007	1.7640	-0.0045	0.0213	-0.0042	8.9925	25.0545	-0.8768	0.7458	-0.6266	0.1222	-0.1905
3.62	0.3540	-9.7966	1.7470	-0.0029	0.0185	-0.0050	8.8291	25.0007	-0.7155	0.7457	-0.6265	0.1222	-0.1905
3.63	0.3334	-9.7850	1.7382	-0.0009	0.0299	-0.0050	8.9940	25.0464	-0.7423	0.7457	-0.6266	0.1224	-0.1906
3.64	0.3034	-9.7592	1.7197	-0.0014	0.0376	-0.0051	9.0448	24.9843	-0.8889	0.7456	-0.6266	0.1226	-0.1907
3.65	0.2803	-9.7404	1.7100	-0.0065	0.0334	-0.0051	9.0371	24.8889	-0.9203	0.7456	-0.6266	0.1228	-0.1907
3.66	0.2708	-9.7382	1.7069	-0.0181	0.0310	-0.0093	9.0451	25.0722	-0.9245	0.7455	-0.6267	0.1230	-0.1907
3.67	0.2611	-9.7516	1.7055	-0.0243	0.0237	-0.0118	8.7771	25.0685	-0.6450	0.7454	-0.6268	0.1232	-0.1908
3.68	0.2533	-9.7709	1.6953	-0.0215	0.0100	-0.0105	8.9848	24.8571	-0.6836	0.7453	-0.6269	0.1234	-0.1907
3.69	0.2564	-9.7887	1.6986	-0.0184	0.0115	-0.0121	9.1324	24.7031	-0.8173	0.7451	-0.6269	0.1235	-0.1907
3.7	0.2537	-9.8153	1.6937	-0.0233	0.0118	-0.0167	9.2257	24.4330	-0.8170	0.7451	-0.6271	0.1236	-0.1908
3.71	0.2615	-9.8184	1.6832	-0.0191	0.0000	-0.0227	9.0382	24.5733	-0.7865	0.7450	-0.6271	0.1235	-0.1908
3.72	0.2736	-9.8173	1.6810	-0.0143	-0.0116	-0.0274	9.0876	24.8406	-0.9158	0.7450	-0.6273	0.1235	-0.1909
3.73	0.2885	-9.8169	1.6771	-0.0196	-0.0137	-0.0268	9.2401	24.8654	-0.8114	0.7448	-0.6273	0.1234	-0.1909
3.74	0.3175	-9.8040	1.6698	-0.0108	-0.0156	-0.0263	9.0770	24.9446	-0.7157	0.7448	-0.6274	0.1233	-0.1909
3.75	0.3270	-9.7781	1.6680	-0.0054	-0.0147	-0.0274	9.1985	24.9505	-0.9135	0.7447	-0.6275	0.1233	-0.1908
3.76	0.3337	-9.8144	1.6817	-0.0141	-0.0286	-0.0197	9.2259	24.8590	-0.9281	0.7446	-0.6276	0.1232	-0.1908
3.77	0.3634	-9.8843	1.6814	-0.0080	-0.0330	-0.0206	9.1095	24.7462	-0.7775	0.7447	-0.6278	0.1230	-0.1907
3.78	0.3907	-9.8960	1.6950	0.0054	-0.0364	-0.0147	8.9889	24.9045	-0.8794	0.7446	-0.6277	0.1229	-0.1906
3.79	0.4147	-9.8599	1.7023	0.0204	-0.0346	-0.0123	8.9153	24.9865	-0.6677	0.7448	-0.6278	0.1227	-0.1906
3.8	0.4432	-9.8074	1.7214	0.0233	-0.0370	-0.0070	9.0613	25.1494	-0.6163	0.7447	-0.6276	0.1226	-0.1904
3.81	0.4511	-9.7905	1.7318	0.0213	-0.0337	-0.0059	9.0162	24.9565	-0.8794	0.7449	-0.6277	0.1224	-0.1903
3.82	0.4511	-9.7861	1.7326	0.0182	-0.0236	-0.0065	9.0722	24.8043	-0.5820	0.7449	-0.6276	0.1223	-0.1903
3.83	0.4375	-9.7680	1.7527	0.0241	-0.0154	-0.0051	8.9218	24.6420	-0.4937	0.7450	-0.6275	0.1223	-0.1902
3.84	0.4101	-9.7661	1.7508	0.0195	-0.0076	-0.0057	9.0715	24.8987	-0.7822	0.7451	-0.6275	0.1222	-0.1902
3.85	0.3952	-9.7656	1.7523	0.0140	-0.0106	-0.0092	9.1028	25.0348	-0.7920	0.7451	-0.6275	0.1222	-0.1902
3.86	0.3767	-9.7527	1.7535	0.0122	0.0012	-0.0118	8.8065	24.8490	-0.7230	0.7452	-0.6275	0.1222	-0.1902
3.87	0.3687	-9.7411	1.7540	0.0166	0.0091	-0.0187	8.9563	24.7603	-1.0522	0.7451	-0.6273	0.1222	-0.1902
3.88	0.3634	-9.7436	1.7471	0.0072	0.0112	-0.0258	9.1493	24.7588	-0.9627	0.7452	-0.6274	0.1223	-0.1903
3.89	0.3564	-9.7368	1.7462	0.0016	0.0123	-0.0291	9.1120	24.7520	-0.9054	0.7451	-0.6274	0.1223	-0.1904
3.9	0.3428	-9.7414	1.7416	-0.0008	0.0158	-0.0290	9.1316	24.7806	-0.8899	0.7450	-0.6275	0.1224	-0.1904
3.91	0.3363	-9.7539	1.7387	-0.0071	0.0172	-0.0310	9.1118	24.6378	-0.9409	0.7449	-0.6275	0.1224	-0.1905
3.92	0.3391	-9.7626	1.7320	-0.0047	0.0178	-0.0320	9.2512	24.7164	-0.9645	0.7449	-0.6276	0.1225	-0.1906
3.93	0.3421	-9.7716	1.7261	-0.0008	0.0130	-0.0308	8.9393	24.7541	-0.7105	0.7448	-0.6276	0.1226	-0.1907
3.94	0.3518	-9.7820	1.7258	-0.0089	0.0057	-0.0306	9.0357	24.8426	-0.7173	0.7447	-0.6276	0.1226	-0.1907
3.95	0.3669	-9.7817	1.7252	-0.0097	-0.0057	-0.0319	9.0192	24.9347	-0.7597	0.7447	-0.6278	0.1226	-0.1908
3.96	0.3848	-9.7775	1.7231	-0.0051	-0.0069	-0.0280	8.9333	24.8272	-0.6356	0.7446	-0.6278	0.1226	-0.1908
3.97	0.4017	-9.7902	1.7245	-0.0111	-0.0092	-0.0245	9.1577	24.8524	-0.4892	0.7446	-0.6279	0.1225	-0.1908
3.98	0.4260	-9.8050	1.7239	-0.0206	-0.0066	-0.0223	9.1086	24.9377	-0.6532	0.7444	-0.6280	0.1224	-0.1908
3.99	0.4420	-9.7983	1.7164	-0.0047	-0.0069	-0.0153	8.7930	25.1539	-0.7810	0.7444	-0.6281	0.1224	-0.1908
4	0.4447	-9.7915	1.7133	-0.0175	-0.0042	-0.0137	8.9320	24.9043	-0.8119	0.7444	-0.6281	0.1224	-0.1908
4.01	0.4440	-9.8151	1.7042	-0.0216	0.0027	-0.0047	8.9567	25.0317	-0.5803	0.7442	-0.6282	0.1225	-0.1908
4.02	0.4392	-9.8307	1.6987	-0.0234	0.0098	-0.0108	8.9465	25.0081	-0.8984	0.7442	-0.6284	0.1226	-0.1908
4.03	0.4187	-9.8264	1.6902	-0.0151	0.0041	-0.0072	8.8066	24.9146	-0.8786	0.7441	-0.6284	0.1226	-0.1908
4.04	0.4022	-9.8279	1.6759	-0.0118	0.0096	-0.0073	8.9728	25.1635	-0.8032	0.7441	-0.6285	0.1226	-0.1908
4.05	0.3859	-9.8312	1.6676	-0.0078	0.0127	-0.0069	9.2451	24.9190	-0.8379	0.7440	-0.6284	0.1227	-0.1908
4.06	0.3769	-9.8275	1.6679	-0.0039	0.0184	-0.0053	9.2973	24.7346	-0.6767	0.7440	-0.6285	0.1228	-0.1909
4.07	0.3635	-9.8213	1.6685	0.0082	0.0190	-0.0084	9.6915	24.9473	-0.4237	0.7440	-0.6284	0.1228	-0.1910
4.08	0.3469	-9.8020	1.6684	0.0199	0.0173	-0.0092	9.7289	24.9645	-0.5144	0.7440	-0.6284	0.1229	-0.1910
4.09	0.3522	-9.7880	1.6800	0.0208	0.0127	-0.0091	9.1590	25.0314	-0.8244	0.7441	-0.6283	0.1229	-0.1911
4.1	0.3585	-9.7931	1.6952	0.0174	0.0007	-0.0078	9.1790	25.2802	-1.0066	0.7441	-0.6282	0.1229	-0.1911
4.11	0.3750	-9.7925	1.7031	0.0166	0.0032	-0.0124	8.8622	25.1122	-0.9417	0.7442	-0.6282	0.1229	-0.1912
4.12	0.3714	-9.7804	1.7193	0.0193	0.0070	-0.0155	9.0043	25.2558	-0.8795	0.7441	-0.6281	0.1229	-0.1912
4.13	0.3592	-9.7697	1.7085	0.0133	0.0127	-0.0113	8.9204	24.9647	-1.0420	0.7442	-0.6281	0.1229	-0.1913
4.14	0.3623	-9.7465	1.7127	0.0036	0.0071	-0.0111	8.9614	24.8757	-0.9387	0.7442	-0.6281	0.1230	-0.1913
4.15	0.3718	-9.7345	1.7187	0.0024	-0.0048	-0.0126	9.1113	25.0634	-1.1358	0.7442	-0.6281	0.1230	-0.1913
4.16	0.3783	-9.7562	1.7212	-0.0023	-0.0097	-0.0139	8.9753	25.0537	-0.8597	0.7441	-0.6282	0.1230	-0.1912
4.17	0.4073	-9.8064	1.7270	-0.0073	-0.0110	-0.0179	8.6794	25.0353	-0.7148	0.7441	-0.6282	0.1230	-0.1912
4.18	0.4408	-9.8313	1.7270	-0.0036	-0.0041	-0.0201	8.6794	25.0929	-0.8624	0.7440	-0.6283	0.1230	-0.1912
4.19	0.4628	-9.8128	1.7303	-0.0022	-0.0020	-0.0181	9.0175	24.8712	-0.7676	0.7439	-0.6283	0.1229	-0.1912
4.2	0.4627	-9.8098	1.7230	-0.0040	0.0088	-0.0173	8.8524	24.7792	-0.9539	0.7440	-0.6284	0.1229	-0.1913
4.21	0.4515	-9.8060	1.7060	-0.0043	0.0164	-0.0121	9.0371	25.0666	-0.9977	0.7439	-0.6283	0.1230	-0.1914
4.22	0.4218	-9.7831	1.6997	-0.0024	0.0247	-0.0120	8.8638	25.0412	-0.7335	0.7439	-0.6284	0.1231	-0.1915
4.23	0.3855	-9.7515	1.6868	-0.0067	0.0252	-0.0123	8.9980	25.0616	-0.6968	0.7438	-0.6283	0.1232	-0.1915
4.24	0.3656	-9.7492	1.6734	-0.0087	0.0254	-0.0075	8.8269	25.0326	-0.9969	0.7438	-0.6284	0.1234	-0.1916
4.25	0.3540	-9.7515	1.6616	-0.0206	0.0178	-0.0146	9.1932	25.0579	-0.9520	0.7437	-0.6285	0.1235	-0.1916
4.26	0.3507	-9.7561	1.6571	-0.0155	0.0197	-0.0195	9.2061	24.7411	-0.7890	0.7435	-0.6285	0.1236	-0.1916
4.27	0.3563	-9.7770	1.6585	-0.0238	0.0112	-0.0252	8.9137	24.9461	-0.9056	0.7435	-0.6287	0.1237	-0.1917
4.28	0.3585	-9.8071	1.6606	-0.0250	0.0084	-0.0273	9.0211	25.0224	-0.9232	0.7433	-0.6288	0.1237	-0.1917
4.29	0.3613	-9.8307	1.6498	-0.0183	-0.0047	-0.0195	8.8881	24.7738	-1.0724	0.7433	-0.6289	0.1237	-0.1918
4.3	0.3624	-9.8303	1.6448	-0.0033	-0.0076	-0.0234	8.8855	25.1078	-1.1095	0.7431	-0.6289	0.1236	-0.1918
4.31	0.3799	-9.8383	1.6402	-0.0058	-0.0180	-0.0279	8.8825	24.8807	-1.0527	0.7432	-0.6290	0.1235	-0.1918
4.32	0.3992	-9.8505	1.6364	-0.0059	-0.0234	-0.0245	8.8843	25.0791	-0.8062	0.7431	-0.6291	0.1234	-0.1918
4.33	0.4151	-9.8289	1.6281	-0.0017	-0.0346	-0.0225	8.8783	24.9363	-0.8085	0.7431	-0.6291	0.1232	-0.1918
4.34	0.4270	-9.8121	1.6414	0.0067	-0.0349	-0.0118	8.8941	25.1115	-0.8166	0.7431	-0.6292	0.1230	-0.1917
4.35	0.4606	-9.8588	1.6474	-0.0004	-0.0318	-0.0180	8.8686	25.0681	-0.7984	0.7431	-0.6292	0.1229	-0.1917
4.36	0.5000	-9.8891	1.6503	-0.0011	-0.0444	-0.0126	8.7037	24.9657	-0.8587	0.7432	-0.6293	0.1227	-0.1915
4.37	0.5323	-9.8719	1.6727	0.0167	-0.0303	-0.0137	8.7739	25.1731	-1.0243	0.7431	-0.6292	0.1226	-0.1915
4.38	0.5642	-9.8366	1.6744	0.0236	-0.0308	-0.0067	8.8424	25.0232	-0.8724	0.7433	-0.6293	0.1224	-0.1914
4.39	0.5901	-9.7917	1.6963	0.0229	-0.0232	-0.0052	9.0299	25.2004	-0.7730	0.7433	-0.6292	0.1223	-0.1913
4.4	0.5980	-9.7851	1.7088	0.0235	-0.0145	-0.0006	8.8950	25.0364	-0.9177	0.7434	-0.6291	0.1223	-0.1913
4.41	0.5798	-9.7940	1.7070	0.0209	0.0110	-0.0021	8.8620	25.0629	-0.8838	0.7435	-0.6290	0.1223	-0.1913
4.42	0.5449	-9.7840	1.7067	0.0229	0.0194	0.0005	9.0585	25.0374	-0.9463	0.7435	-0.6289	0.1224	-0.1914
4.43	0.5052	-9.7762	1.7053	0.0239	0.0331	0.0068	8.9712	24.8781	-0.7817	0.7436	-0.6288	0.1225	-0.1914
4.44	0.4703	-9.7755	1.7031	0.0228	0.0421	0.0020	8.8009	24.8767	-1.0024	0.7436	-0.6287	0.1227	-0.1915
4.45	0.4383	-9.7737	1.7033	0.0158	0.0464	-0.0030	9.2827	24.7685	-0.9619	0.7437	-0.6287	0.1229	-0.1917
4.46	0.4119	-9.7751	1.6998	0.0167	0.0565	-0.0043	9.1236	24.9724	-0.9291	0.7436	-0.6285	0.1231	-0.1919
4.47	0.3729	-9.7703	1.6907	0.0194	0.0586	-0.0047	8.8276	24.8841	-0.9760	0.7437	-0.6284	0.1233	-0.1921
4.48	0.3384	-9.7613	1.6873	0.0168	0.0569	-0.0049	9.0116	24.9599	-0.7627	0.7436	-0.6283	0.1235	-0.1922
4.49	0.3170	-9.7744	1.6814	0.0141	0.0579	-0.0050	8.6892	24.9706	-0.8501	0.7437	-0.6282	0.1238	-0.1923
4.5	0.3115	-9.7854	1.6692	0.0062	0.0436	-0.0109	8.7916	24.9564	-0.7743	0.7436	-0.6282	0.1240	-0.1925
4.51	0.3026	-9.7962	1.6753	0.0125	0.0424	-0.0073	9.0714	24.9731	-0.9155	0.7436	-0.6281	0.1242	-0.1926
4.52	0.3012	-9.8033	1.6726	0.0077	0.0355	-0.0082	9.1724	24.8548	-0.8858	0.7436	-0.6281	0.1244	-0.1927
4.53	0.3153	-9.8096	1.6701	-0.0003	0.0206	-0.0115	8.9727	24.8940	-0.7928	0.7435	-0.6281	0.1244	-0.1928
4.54	0.3286	-9.8034	1.6705	0.0066	0.0188	-0.0108	8.7806	24.8399	-0.8209	0.7436	-0.6281	0.1245	-0.1928
4.55	0.3483	-9.7978	1.6744	-0.0039	0.0071	-0.0075	8.7908	25.0588	-0.8214	0.7434	-0.6280	0.1246	-0.1928
4.56	0.3746	-9.8110	1.6775	0.0001	0.0038	-0.0054	9.0355	25.0533	-0.6794	0.7435	-0.6281	0.1246	-0.1928
4.57	0.3867	-9.8140	1.6784	0.0060	0.0058	-0.0060	9.6196	25.2358	-0.4237	0.7435	-0.6281	0.1246	-0.1928
4.58	0.3946	-9.8132	1.6864	0.0080	-0.0022	-0.0052	9.6920	25.2057	-0.4604	0.7435	-0.6281	0.1246	-0.1928
4.59	0.3965	-9.8119	1.6883	0.0106	0.0025	-0.0068	9.0892	25.1378	-0.5297	0.7435	-0.6281	0.1246	-0.1929
4.6	0.3958	-9.8151	1.6902	0.0031	-0.0050	-0.0018	8.8729	25.3343	-0.8138	0.7435	-0.6280	0.1246	-0.1928
4.61	0.3911	-9.8212	1.6893	0.0155	0.0043	-0.0007	8.8339	25.0563	-0.8521	0.7436	-0.6280	0.1246	-0.1928
4.62	0.3822	-9.8291	1.6927	0.0070	0.0095	-0.0058	8.9447	24.9711	-0.8535	0.7435	-0.6279	0.1247	-0.1929
4.63	0.3723	-9.8344	1.6927	0.0125	0.0100	-0.0056	9.0544	24.6053	-0.8078	0.7436	-0.6280	0.1247	-0.1929
4.64	0.3635	-9.8182	1.6848	0.0184	0.0156	-0.0045	9.1613	24.8080	-0.7341	0.7436	-0.6279	0.1248	-0.1930
4.65	0.3525	-9.8098	1.6797	0.0151	0.0161	-0.0057	9.0334	24.9039	-0.7389	0.7437	-0.6278	0.1248	-0.1930
4.66	0.3510	-9.8105	1.6781	0.0177	0.0148	-0.0047	9.0378	24.7490	-0.7757	0.7437	-0.6277	0.1248	-0.1931
4.67	0.3376	-9.7905	1.6724	0.0178	0.0189	-0.0044	9.0181	25.0517	-0.9451	0.7437	-0.6277	0.1249	-0.1931
4.68	0.3271	-9.7830	1.6852	0.0162	0.0179	-0.0053	8.8693	25.1827	-0.7995	0.7438	-0.6276	0.1250	-0.1932
4.69	0.3237	-9.7859	1.6859	0.0229	0.0158	-0.0056	8.8260	24.9460	-0.9365	0.7438	-0.6275	0.1250	-0.1933
4.7	0.3182	-9.7843	1.6890	0.0230	0.0150	-0.0046	8.9901	24.7553	-0.9629	0.7439	-0.6274	0.1251	-0.1933
4.71	0.3237	-9.7776	1.7031	0.0228	0.0144	-0.0087	8.8679	24.7736	-0.8469	0.7439	-0.6273	0.1251	-0.1934
4.72	0.3310	-9.7848	1.7108	0.0235	0.0248	-0.0120	9.1378	24.8524	-0.6989	0.7440	-0.6273	0.1253	-0.1935
4.73	0.3315	-9.7755	1.7099	0.0223	0.0295	-0.0087	9.0059	24.8771	-0.8663	0.7439	-0.6271	0.1254	-0.1935
4.74	0.3191	-9.7478	1.7110	0.0298	0.0328	-0.0112	8.8634	24.8600	-0.8346	0.7440	-0.6271	0.1255	-0.1936
4.75	0.3095	-9.7343	1.7221	0.0244	0.0265	-0.0121	9.1007	24.8795	-0.8405	0.7440	-0.6270	0.1256	-0.1937
4.76	0.3143	-9.7300	1.7248	0.0224	0.0225	-0.0085	8.6316	25.1463	-0.8689	0.7440	-0.6269	0.1257	-0.1938
4.77	0.3094	-9.7415	1.7349	0.0165	0.0228	-0.0102	8.7997	25.1015	-0.8185	0.7441	-0.6269	0.1258	-0.1938
4.78	0.3083	-9.7833	1.7432	0.0067	0.0176	-0.0088	8.8866	25.0541	-0.7571	0.7441	-0.6268	0.1259	-0.1939
4.79	0.3327	-9.8442	1.7468	0.0052	0.0133	-0.0087	9.0312	25.1931	-0.7161	0.7441	-0.6268	0.1259	-0.1939
4.8	0.3536	-9.8670	1.7435	0.0196	0.0077	-0.0138	9.0233	24.9336	-0.9738	0.7440	-0.6267	0.1259	-0.1940
4.81	0.3769	-9.8358	1.7509	0.0245	0.0156	-0.0220	9.1531	24.9599	-0.9933	0.7442	-0.6267	0.1259	-0.1941
4.82	0.3853	-9.8197	1.7526	0.0191	0.0152	-0.0116	9.0832	24.7926	-0.7886	0.7442	-0.6266	0.1259	-0.1942
4.83	0.3860	-9.8128	1.7413	0.0211	0.0216	-0.0106	9.2287	24.7734	-0.8468	0.7442	-0.6265	0.1260	-0.1943
4.84	0.3634	-9.7973	1.7344	0.0202	0.0304	-0.0062	9.0920	24.7849	-0.9450	0.7443	-0.6264	0.1261	-0.1944
4.85	0.3328	-9.7664	1.7191	0.0189	0.0306	-0.0070	9.0260	24.8889	-1.0387	0.7443	-0.6263	0.1262	-0.1945
4.86	0.3027	-9.7363	1.7094	0.0093	0.0303	-0.0123	9.0141	24.6399	-0.8110	0.7443	-0.6263	0.1263	-0.1947
4.87	0.2892	-9.7217	1.6987	-0.0008	0.0210	-0.0162	9.1348	24.8921	-0.9272	0.7442	-0.6262	0.1263	-0.1947
4.88	0.2864	-9.7331	1.7039	0.0008	0.0152	-0.0207	9.2107	24.9294	-1.0730	0.7442	-0.6263	0.1264	-0.1948
4.89	0.2906	-9.7718	1.6966	-0.0012	0.0115	-0.0277	9.0833	24.7348	-0.9386	0.7441	-0.6263	0.1264	-0.1949
4.9	0.2939	-9.7920	1.6914	0.0098	0.0074	-0.0322	8.8737	25.0763	-0.7180	0.7441	-0.6263	0.1264	-0.1950
4.91	0.3023	-9.7875	1.7018	0.0206	-0.0050	-0.0304	8.8487	24.9366	-0.8779	0.7441	-0.6263	0.1264	-0.1950
4.92	0.3182	-9.8000	1.7063	0.0217	-0.0089	-0.0314	8.9655	24.9660	-0.9439	0.7441	-0.6263	0.1263	-0.1950
4.93	0.3305	-9.8018	1.7089	0.0185	-0.0094	-0.0311	8.9475	25.1414	-0.7417	0.7441	-0.6264	0.1262	-0.1950
4.94	0.3485	-9.7866	1.7196	0.0233	-0.0165	-0.0311	8.8696	25.0486	-0.8425	0.7441	-0.6263	0.1260	-0.1949
4.95	0.3610	-9.7685	1.7140	0.0199	-0.0267	-0.0317	8.8430	24.9345	-0.8484	0.7442	-0.6265	0.1258	-0.1949
4.96	0.3770	-9.7634	1.7221	0.0184	-0.0275	-0.0308	8.8687	25.1150	-0.8493	0.7441	-0.6265	0.1257	-0.1947
4.97	0.4052	-9.8028	1.7292	0.0043	-0.0409	-0.0317	8.8351	25.1422	-0.8519	0.7442	-0.6267	0.1254	-0.1946
4.98	0.4399	-9.8432	1.7301	0.0136	-0.0431	-0.0257	8.9600	25.1334	-0.8483	0.7441	-0.6267	0.1251	-0.1944
4.99	0.4826	-9.8502	1.7469	0.0196	-0.0453	-0.0213	8.9226	24.8873	-0.9638	0.7442	-0.6268	0.1249	-0.1942
5	0.5213	-9.8188	1.7533	0.0209	-0.0418	-0.0178	8.8221	24.8587	-0.7219	0.7442	-0.6269	0.1246	-0.1941
5.01	0.5472	-9.7830	1.7594	0.0220	-0.0352	-0.0101	9.2372	24.8709	-0.9019	0.7442	-0.6269	0.1244	-0.1939
5.02	0.5559	-9.7881	1.7643	0.0150	-0.0307	-0.0074	9.2818	24.8608	-1.1751	0.7443	-0.6270	0.1242	-0.1937
5.03	0.5417	-9.7960	1.7529	0.0029	-0.0194	-0.0054	8.9280	24.7240	-1.0543	0.7443	-0.6271	0.1241	-0.1935
5.04	0.5104	-9.7758	1.7508	0.0080	-0.0108	-0.0067	8.9457	24.6556	-1.0065	0.7443	-0.6272	0.1240	-0.1934
5.05	0.4827	-9.7608	1.7520	0.0067	0.0029	-0.0042	8.9334	24.8646	-1.0379	0.7442	-0.6272	0.1240	-0.1932
5.06	0.4611	-9.7675	1.7382	0.0049	0.0193	-0.0086	9.3971	25.1110	-0.8962	0.7442	-0.6273	0.1240	-0.1932
5.07	0.4480	-9.7629	1.7399	-0.0020	0.0138	-0.0121	9.5795	25.3112	-0.6357	0.7441	-0.6273	0.1240	-0.1932
5.08	0.4259	-9.7592	1.7340	0.0024	0.0248	-0.0143	9.4554	25.3369	-0.7422	0.7441	-0.6274	0.1241	-0.1931
5.09	0.4030	-9.7486	1.7267	0.0076	0.0332	-0.0244	8.9768	25.1743	-0.9106	0.7440	-0.6275	0.1242	-0.1931
5.1	0.3804	-9.7577	1.7187	0.0018	0.0304	-0.0297	8.8060	25.3036	-1.0943	0.7439	-0.6275	0.1242	-0.1932
5.11	0.3712	-9.7771	1.7083	0.0004	0.0317	-0.0309	8.7160	24.8576	-1.0120	0.7439	-0.6276	0.1243	-0.1932
5.12	0.3667	-9.7811	1.7034	-0.0001	0.0293	-0.0304	9.0369	24.9470	-0.9696	0.7437	-0.6277	0.1243	-0.1933
5.13	0.3711	-9.7949	1.7047	0.0009	0.0270	-0.0308	8.8514	24.8431	-0.9844	0.7437	-0.6278	0.1244	-0.1933
5.14	0.3802	-9.7996	1.7036	0.0099	0.0273	-0.0302	8.9707	25.2011	-0.9937	0.7436	-0.6278	0.1244	-0.1933
5.15	0.3987	-9.8204	1.7038	-0.0018	0.0158	-0.0314	9.0172	25.1336	-1.2540	0.7436	-0.6279	0.1243	-0.1934
5.16	0.4153	-9.8282	1.7012	-0.0016	0.0046	-0.0292	8.8952	25.1250	-1.2769	0.7435	-0.6280	0.1242	-0.1934
5.17	0.4320	-9.8265	1.7023	0.0013	0.0023	-0.0200	8.7756	25.0883	-0.9717	0.7434	-0.6281	0.1241	-0.1933
5.18	0.4483	-9.8284	1.7065	-0.0009	-0.0085	-0.0157	8.8948	25.0283	-1.0548	0.7434	-0.6282	0.1241	-0.1933
5.19	0.4614	-9.8178	1.6941	0.0038	-0.0121	-0.0119	8.9008	24.9541	-1.0905	0.7433	-0.6283	0.1239	-0.1931
5.2	0.4751	-9.8009	1.6943	0.0057	-0.0084	-0.0106	8.9255	24.8480	-0.9678	0.7434	-0.6284	0.1239	-0.1930
5.21	0.4761	-9.8038	1.7004	-0.0007	-0.0049	-0.0082	9.1530	24.8385	-1.1204	0.7433	-0.6285	0.1238	-0.1929
5.22	0.4825	-9.8124	1.6988	0.0046	-0.0053	-0.0054	8.9732	24.7162	-0.9803	0.7433	-0.6286	0.1237	-0.1928
5.23	0.4891	-9.8151	1.7126	0.0107	0.0042	-0.0056	9.0138	24.9795	-0.9716	0.7432	-0.6286	0.1237	-0.1927
5.24	0.4826	-9.8219	1.7113	0.0209	0.0034	-0.0055	8.8372	24.9195	-1.0044	0.7433	-0.6286	0.1237	-0.1926
5.25	0.4680	-9.8215	1.7062	0.0220	0.0095	-0.0051	8.6526	24.8178	-0.9293	0.7433	-0.6286	0.1236	-0.1925
5.26	0.4530	-9.8063	1.7135	0.0243	0.0197	-0.0043	8.9131	24.9436	-0.8046	0.7433	-0.6285	0.1237	-0.1925
5.27	0.4416	-9.7933	1.7203	0.0276	0.0219	-0.0051	8.8946	25.0503	-0.7742	0.7434	-0.6286	0.1237	-0.1925
5.28	0.4283	-9.7819	1.7287	0.0245	0.0198	-0.0048	8.9169	24.8889	-0.8498	0.7434	-0.6285	0.1237	-0.1924
5.29	0.4179	-9.7780	1.7294	0.0324	0.0271	-0.0044	8.8767	24.8353	-0.8756	0.7435	-0.6285	0.1237	-0.1924
5.3	0.4106	-9.7672	1.7335	0.0289	0.0264	-0.0065	9.0305	24.9547	-0.9890	0.7434	-0.6283	0.1238	-0.1924
5.31	0.4087	-9.7553	1.7464	0.0340	0.0229	-0.0052	8.7108	25.0560	-1.1977	0.7436	-0.6283	0.1238	-0.1924
5.32	0.3966	-9.7509	1.7563	0.0389	0.0228	-0.0047	8.6487	25.0140	-0.8241	0.7436	-0.6283	0.1239	-0.1923
5.33	0.3909	-9.7690	1.7599	0.0282	0.0201	-0.0047	8.8274	25.1050	-0.7568	0.7436	-0.6282	0.1239	-0.1923
5.34	0.3941	-9.7789	1.7643	0.0265	0.0186	-0.0038	8.9191	25.2423	-1.0546	0.7437	-0.6282	0.1240	-0.1922
5.35	0.4057	-9.7767	1.7853	0.0298	0.0199	-0.0044	8.8793	25.0289	-1.0402	0.7437	-0.6282	0.1240	-0.1921
5.36	0.4099	-9.7659	1.7885	0.0251	0.0124	-0.0042	8.7647	24.8738	-0.9796	0.7438	-0.6282	0.1241	-0.1920
5.37	0.3977	-9.7508	1.7881	0.0224	0.0136	-0.0048	8.9303	24.7599	-0.8745	0.7437	-0.6281	0.1241	-0.1919
5.38	0.3936	-9.7385	1.7836	0.0228	0.0176	-0.0055	8.9865	24.8899	-1.0282	0.7438	-0.6282	0.1242	-0.1919
5.39	0.3902	-9.7241	1.7782	0.0134	0.0096	-0.0051	8.8689	25.1201	-1.2225	0.7437	-0.6282	0.1242	-0.1917
5.4	0.3846	-9.7216	1.7798	0.0186	0.0162	-0.0057	8.9734	24.8564	-1.1277	0.7438	-0.6282	0.1242	-0.1917
5.41	0.3816	-9.7409	1.7886	0.0102	0.0079	-0.0046	9.1172	24.7840	-1.2005	0.7437	-0.6282	0.1243	-0.1915
5.42	0.3975	-9.7897	1.7900	0.0016	0.0128	-0.0088	8.9111	24.9637	-0.9834	0.7437	-0.6283	0.1243	-0.1915
5.43	0.4344	-9.8286	1.7987	0.0026	0.0091	-0.0156	8.7535	24.7976	-1.0333	0.7437	-0.6284	0.1243	-0.1914
5.44	0.4738	-9.8263	1.8037	0.0174	0.0098	-0.0164	8.6027	24.9649	-1.1534	0.7436	-0.6284	0.1242	-0.1914
5.45	0.4767	-9.8031	1.8016	0.0224	0.0294	-0.0138	8.8887	24.9250	-1.3193	0.7437	-0.6284	0.1243	-0.1914
5.46	0.4467	-9.7800	1.7917	0.0179	0.0376	-0.0048	9.0004	24.9791	-1.1242	0.7436	-0.6284	0.1243	-0.1914
5.47	0.4000	-9.7540	1.7677	0.0035	0.0433	-0.0051	8.8278	25.1307	-0.9003	0.7437	-0.6285	0.1245	-0.1915
5.48	0.3477	-9.7249	1.7490	0.0025	0.0435	-0.0053	9.1460	25.0371	-1.2176	0.7435	-0.6284	0.1246	-0.1914
5.49	0.3090	-9.7317	1.7398	-0.0096	0.0370	-0.0049	8.9047	25.0132	-1.0115	0.7434	-0.6286	0.1248	-0.1914
5.5	0.2968	-9.7602	1.7327	-0.0198	0.0234	-0.0145	8.7807	24.9070	-1.1607	0.7433	-0.6287	0.1249	-0.1913
5.51	0.3085	-9.7904	1.7320	-0.0122	0.0126	-0.0215	8.8490	25.0435	-1.1137	0.7432	-0.6288	0.1249	-0.1913
5.52	0.3414	-9.8057	1.7327	-0.0011	0.0002	-0.0201	8.6789	24.9359	-0.9233	0.7432	-0.6290	0.1249	-0.1913
5.53	0.3689	-9.8122	1.7350	-0.0043	-0.0051	-0.0268	9.0837	25.0862	-1.0704	0.7431	-0.6291	0.1247	-0.1912
5.54	0.3923	-9.8154	1.7327	0.0051	-0.0061	-0.0181	8.9632	24.9418	-0.9884	0.7431	-0.6292	0.1246	-0.1911
5.55	0.4123	-9.8188	1.7392	0.0117	-0.0083	-0.0153	8.7847	25.0308	-1.0808	0.7430	-0.6291	0.1245	-0.1910
5.56	0.4338	-9.8359	1.7424	0.0107	-0.0181	-0.0109	9.0562	25.0439	-1.1664	0.7431	-0.6293	0.1244	-0.1909
5.57	0.4505	-9.8314	1.7417	0.0232	-0.0166	-0.0052	9.4782	25.0330	-1.0478	0.7431	-0.6293	0.1243	-0.1907
5.58	0.4587	-9.7915	1.7450	0.0230	-0.0155	-0.0048	9.5231	25.0522	-1.3030	0.7431	-0.6293	0.1242	-0.1906
5.59	0.4570	-9.7624	1.7636	0.0223	-0.0199	-0.0065	9.2185	24.9887	-1.1078	0.7432	-0.6293	0.1240	-0.1904
5.6	0.4611	-9.7965	1.7708	0.0181	-0.0245	-0.0012	8.9538	25.3028	-0.8521	0.7432	-0.6293	0.1239	-0.1903
5.61	0.4779	-9.8458	1.7783	0.0233	-0.0233	-0.0044	8.6193	24.9912	-1.0891	0.7433	-0.6294	0.1238	-0.1901
5.62	0.5002	-9.8455	1.7924	0.0317	-0.0189	-0.0057	9.0706	24.9253	-0.9256	0.7433	-0.6293	0.1236	-0.1899
5.63	0.5164	-9.8097	1.7922	0.0411	-0.0104	-0.0057	8.9978	24.8586	-0.9946	0.7435	-0.6293	0.1235	-0.1898
5.64	0.5120	-9.7718	1.8223	0.0367	-0.0071	-0.0027	8.8693	24.8637	-1.0359	0.7435	-0.6292	0.1234	-0.1897
5.65	0.4890	-9.7845	1.8186	0.0271	0.0076	0.0023	8.8228	24.8436	-1.1327	0.7436	-0.6292	0.1234	-0.1896
5.66	0.4469	-9.7679	1.8111	0.0262	0.0194	0.0070	8.8504	25.0491	-1.1414	0.7436	-0.6292	0.1234	-0.1895
5.67	0.3942	-9.7243	1.8117	0.0286	0.0253	0.0019	8.8247	25.1639	-1.0499	0.7437	-0.6291	0.1235	-0.1895
5.68	0.3595	-9.7202	1.8136	0.0260	0.0223	-0.0060	8.6905	25.0484	-1.2037	0.7437	-0.6291	0.1235	-0.1894
5.69	0.3470	-9.7280	1.8111	0.0223	0.0263	-0.0044	8.9515	25.0291	-1.0247	0.7437	-0.6290	0.1236	-0.1894
5.7	0.3471	-9.7230	1.8189	0.0240	0.0252	-0.0126	8.9100	25.0368	-1.0682	0.7438	-0.6291	0.1237	-0.1894
5.71	0.3562	-9.7168	1.8291	0.0222	0.0238	-0.0140	8.8291	25.0403	-1.0280	0.7437	-0.6290	0.1237	-0.1894
5.72	0.3712	-9.7217	1.8379	0.0238	0.0257	-0.0150	8.8321	24.7642	-1.1227	0.7438	-0.6291	0.1238	-0.1894
5.73	0.3707	-9.7173	1.8344	0.0226	0.0304	-0.0216	8.9435	24.8798	-1.1510	0.7437	-0.6290	0.1238	-0.1894
5.74	0.3717	-9.7126	1.8425	0.0225	0.0191	-0.0144	8.7784	24.9461	-1.0090	0.7438	-0.6290	0.1238	-0.1893
5.75	0.3723	-9.7238	1.8441	0.0234	0.0240	-0.0144	9.1501	24.8043	-1.0910	0.7438	-0.6290	0.1239	-0.1893
5.76	0.3793	-9.7384	1.8340	0.0068	0.0188	-0.0164	9.1403	24.6606	-1.2276	0.7437	-0.6290	0.1239	-0.1893
5.77	0.3921	-9.7364	1.8397	0.0117	0.0149	-0.0186	8.9892	24.8256	-1.2269	0.7438	-0.6291	0.1239	-0.1893
5.78	0.3978	-9.7310	1.8450	0.0040	0.0195	-0.0104	8.8776	24.8327	-1.2302	0.7436	-0.6291	0.1240	-0.1892
5.79	0.4084	-9.7530	1.8388	-0.0026	0.0126	-0.0071	9.0544	24.9817	-1.0047	0.7436	-0.6293	0.1240	-0.1891
5.8	0.4144	-9.7513	1.8417	-0.0024	0.0050	-0.0030	8.7971	24.7255	-1.2617	0.7435	-0.6293	0.1240	-0.1889
5.81	0.4171	-9.7549	1.8345	-0.0006	0.0145	-0.0069	8.9034	24.8601	-1.1794	0.7435	-0.6294	0.1241	-0.1889
5.82	0.4190	-9.7640	1.8261	-0.0034	0.0144	-0.0037	8.8231	24.8871	-1.1924	0.7434	-0.6295	0.1242	-0.1888
5.83	0.4176	-9.7698	1.8245	-0.0048	0.0125	-0.0044	8.7652	24.7594	-1.4842	0.7434	-0.6296	0.1242	-0.1886
5.84	0.4142	-9.7872	1.8135	-0.0053	0.0142	-0.0057	9.0725	25.1266	-1.1685	0.7433	-0.6297	0.1242	-0.1886
5.85	0.4076	-9.8014	1.8029	-0.0024	0.0157	-0.0053	8.8557	24.8303	-1.0141	0.7433	-0.6297	0.1243	-0.1885
5.86	0.3956	-9.8005	1.8000	-0.0030	0.0209	-0.0054	8.7867	24.9494	-1.0626	0.7432	-0.6298	0.1243	-0.1885
5.87	0.3790	-9.7905	1.7930	-0.0023	0.0197	-0.0037	8.7007	24.9245	-1.0275	0.7431	-0.6298	0.1243	-0.1884
5.88	0.3682	-9.7906	1.7905	-0.0013	0.0190	-0.0062	9.1368	24.9953	-1.1890	0.7431	-0.6300	0.1244	-0.1884
5.89	0.3601	-9.7822	1.7882	0.0149	0.0214	-0.0048	8.8525	25.1445	-1.0797	0.7431	-0.6300	0.1244	-0.1883
5.9	0.3487	-9.7758	1.7920	0.0128	0.0188	-0.0057	8.6740	24.9037	-1.3382	0.7431	-0.6300	0.1245	-0.1882
5.91	0.3449	-9.7631	1.7943	0.0176	0.0241	-0.0107	8.9923	25.0731	-1.2061	0.7431	-0.6300	0.1245	-0.1882
5.92	0.3461	-9.7644	1.7949	0.0190	0.0156	-0.0078	8.7477	25.0047	-1.0332	0.7431	-0.6300	0.1246	-0.1881
5.93	0.3518	-9.7619	1.8004	0.0170	0.0108	-0.0073	9.0076	24.9028	-1.1919	0.7431	-0.6300	0.1246	-0.1881
5.94	0.3514	-9.7393	1.8108	0.0195	0.0113	-0.0067	8.9318	24.6999	-1.0958	0.7431	-0.6299	0.1246	-0.1879
5.95	0.3601	-9.7460	1.8266	0.0127	0.0080	-0.0142	8.9367	24.6605	-1.2753	0.7432	-0.6301	0.1246	-0.1879
5.96	0.3845	-9.7559	1.8234	0.0170	0.0062	-0.0085	9.1938	24.7404	-1.3108	0.7431	-0.6300	0.1246	-0.1878
5.97	0.4039	-9.7400	1.8370	0.0227	0.0135	-0.0157	8.9469	24.7795	-1.1035	0.7432	-0.6301	0.1246	-0.1878
5.98	0.3976	-9.7283	1.8444	0.0123	0.0096	-0.0090	8.8149	24.7700	-1.2659	0.7431	-0.6300	0.1246	-0.1877
5.99	0.3953	-9.7288	1.8282	0.0104	0.0155	-0.0108	8.9794	25.1190	-1.0701	0.7432	-0.6301	0.1247	-0.1876
6	0.3985	-9.7088	1.8362	-0.0027	0.0122	-0.0175	9.0292	24.9625	-1.2977	0.7431	-0.6302	0.1247	-0.1875
6.01	0.4025	-9.6863	1.8296	-0.0028	0.0066	-0.0140	9.0126	24.8813	-1.2595	0.7430	-0.6302	0.1247	-0.1874
6.02	0.3919	-9.6808	1.8288	-0.0047	0.0073	-0.0073	9.0239	24.8293	-1.1230	0.7430	-0.6304	0.1247	-0.1874
6.03	0.3819	-9.7294	1.8455	-0.0139	0.0152	-0.0090	9.0015	25.2220	-1.1256	0.7429	-0.6304	0.1247	-0.1872
6.04	0.4015	-9.8082	1.8295	-0.0295	0.0168	-0.0126	8.8378	25.2952	-1.0257	0.7428	-0.6307	0.1248	-0.1872
6.05	0.4205	-9.8231	1.8395	-0.0163	0.0177	-0.0187	8.8404	25.0006	-1.0828	0.7426	-0.6307	0.1248	-0.1872
6.06	0.4254	-9.7978	1.8342	-0.0124	0.0213	-0.0179	9.0608	25.0449	-0.9028	0.7426	-0.6309	0.1248	-0.1872
6.07	0.4056	-9.7675	1.8065	-0.0216	0.0227	-0.0158	9.5305	25.2484	-0.8549	0.7424	-0.6310	0.1249	-0.1872
6.08	0.3794	-9.7485	1.7977	-0.0266	0.0285	-0.0074	9.4430	25.3254	-0.8527	0.7423	-0.6311	0.1250	-0.1871
6.09	0.3364	-9.7366	1.7680	-0.0296	0.0243	-0.0065	8.9003	25.1001	-1.0111	0.7422	-0.6313	0.1251	-0.1870
6.1	0.3024	-9.7325	1.7465	-0.0294	0.0162	-0.0103	8.7418	25.3131	-1.0147	0.7420	-0.6315	0.1252	-0.1869
6.11	0.2984	-9.7428	1.7368	-0.0358	0.0088	-0.0093	8.9538	25.0338	-0.9564	0.7419	-0.6317	0.1252	-0.1868
6.12	0.3128	-9.7506	1.7246	-0.0320	-0.0052	-0.0200	9.0054	24.8596	-0.9795	0.7417	-0.6318	0.1252	-0.1867
6.13	0.3423	-9.7689	1.7253	-0.0313	-0.0131	-0.0166	8.9836	24.8823	-0.9593	0.7417	-0.6321	0.1251	-0.1866
6.14	0.3777	-9.7888	1.7236	-0.0299	-0.0174	-0.0092	9.1536	24.9189	-0.9870	0.7415	-0.6323	0.1251	-0.1864
6.15	0.3992	-9.7996	1.7328	-0.0255	-0.0187	-0.0098	9.1875	25.0160	-0.9444	0.7414	-0.6325	0.1250	-0.1862
6.16	0.4061	-9.8157	1.7337	-0.0259	-0.0213	-0.0122	9.0694	24.8438	-1.0903	0.7413	-0.6327	0.1248	-0.1860
6.17	0.4140	-9.8275	1.7296	-0.0266	-0.0229	-0.0098	8.7118	24.9083	-1.1535	0.7412	-0.6329	0.1247	-0.1859
6.18	0.4185	-9.8425	1.7285	-0.0150	-0.0158	-0.0066	8.9676	25.0358	-0.9823	0.7411	-0.6330	0.1247	-0.1857
6.19	0.4122	-9.8308	1.7166	-0.0125	-0.0178	-0.0069	9.0083	25.0894	-0.9618	0.7410	-0.6331	0.1245	-0.1855
6.2	0.4078	-9.7921	1.7226	-0.0018	-0.0200	-0.0057	8.8798	24.9093	-0.9997	0.7411	-0.6333	0.1244	-0.1854
6.21	0.4057	-9.8201	1.7294	-0.0126	-0.0200	-0.0094	8.9087	24.9164	-0.9082	0.7410	-0.6334	0.1243	-0.1852
6.22	0.4374	-9.8696	1.7157	-0.0083	-0.0207	-0.0115	8.9009	24.9841	-0.8839	0.7410	-0.6336	0.1242	-0.1851
6.23	0.4549	-9.8712	1.7321	-0.0013	-0.0197	-0.0155	8.9048	24.9704	-0.8475	0.7409	-0.6336	0.1241	-0.1849
6.24	0.4800	-9.8429	1.7305	0.0046	-0.0117	-0.0169	8.9096	24.9464	-0.9560	0.7409	-0.6337	0.1239	-0.1848
6.25	0.5006	-9.8001	1.7500	0.0153	-0.0090	-0.0107	8.7008	25.0408	-1.0667	0.7409	-0.6337	0.1238	-0.1847
6.26	0.4905	-9.7904	1.7564	0.0087	-0.0019	-0.0073	8.8796	24.9904	-0.8594	0.7408	-0.6338	0.1238	-0.1846
6.27	0.4764	-9.7990	1.7507	0.0074	0.0109	-0.0054	9.0197	24.9524	-0.8694	0.7409	-0.6339	0.1238	-0.1845
6.28	0.4406	-9.7695	1.7531	0.0143	0.0207	-0.0059	8.8344	24.9840	-0.9271	0.7409	-0.6338	0.1238	-0.1845
6.29	0.3980	-9.7512	1.7545	0.0089	0.0183	-0.0035	9.0192	24.9636	-0.9411	0.7409	-0.6339	0.1238	-0.1845
6.3	0.3827	-9.7507	1.7553	0.0142	0.0155	-0.0056	8.8756	24.9779	-0.7505	0.7408	-0.6338	0.1238	-0.1844
6.31	0.3763	-9.7539	1.7651	0.0146	0.0190	-0.0060	8.9478	24.9596	-0.9266	0.7409	-0.6339	0.1238	-0.1844
6.32	0.3690	-9.7579	1.7710	0.0136	0.0131	-0.0055	8.9626	24.9924	-1.0264	0.7409	-0.6339	0.1238	-0.1843
6.33	0.3641	-9.7609	1.7727	0.0029	0.0178	-0.0100	8.8670	24.8435	-1.1018	0.7408	-0.6339	0.1239	-0.1843
6.34	0.3670	-9.7624	1.7697	0.0025	0.0133	-0.0060	9.0194	24.5369	-0.9209	0.7409	-0.6340	0.1239	-0.1842
6.35	0.3609	-9.7463	1.7741	-0.0030	0.0191	-0.0128	9.1117	24.8661	-0.8708	0.7408	-0.6340	0.1239	-0.1841
6.36	0.3601	-9.7515	1.7744	-0.0023	0.0150	-0.0126	9.0147	24.9724	-0.8659	0.7408	-0.6341	0.1240	-0.1841
6.37	0.3687	-9.7692	1.7684	-0.0088	0.0175	-0.0138	8.9820	24.7331	-0.9667	0.7406	-0.6341	0.1240	-0.1840
6.38	0.3722	-9.7696	1.7644	-0.0101	0.0110	-0.0204	8.9934	25.0568	-1.0821	0.7406	-0.6343	0.1240	-0.1840
6.39	0.3825	-9.7764	1.7716	-0.0068	0.0017	-0.0122	8.8410	24.9934	-1.0653	0.7406	-0.6343	0.1240	-0.1839
6.4	0.4024	-9.7922	1.7671	-0.0090	-0.0077	-0.0155	9.0246	24.7264	-1.0103	0.7405	-0.6345	0.1239	-0.1838
6.41	0.4143	-9.7915	1.7660	-0.0139	-0.0046	-0.0117	8.8686	25.1160	-0.8418	0.7404	-0.6346	0.1238	-0.1836
6.42	0.4322	-9.7959	1.7648	-0.0123	-0.0072	-0.0075	8.8287	25.1202	-0.9393	0.7404	-0.6347	0.1238	-0.1835
6.43	0.4457	-9.7949	1.7665	-0.0098	-0.0062	-0.0056	8.9383	25.0288	-0.9809	0.7403	-0.6348	0.1237	-0.1834
6.44	0.4383	-9.7961	1.7558	-0.0063	-0.0107	-0.0066	8.8779	25.0703	-0.9977	0.7402	-0.6349	0.1236	-0.1832
6.45	0.4337	-9.7991	1.7571	-0.0097	-0.0048	-0.0011	9.0336	25.0443	-0.8287	0.7403	-0.6351	0.1236	-0.1831
6.46	0.4245	-9.7971	1.7527	-0.0095	-0.0009	-0.0024	8.7944	25.0774	-0.9833	0.7401	-0.6351	0.1236	-0.1830
6.47	0.4123	-9.7925	1.7452	-0.0040	0.0062	-0.0027	8.8925	24.9810	-1.1098	0.7402	-0.6353	0.1236	-0.1829
6.48	0.4059	-9.8026	1.7421	-0.0048	0.0137	-0.0013	8.9027	24.9545	-0.9603	0.7400	-0.6353	0.1236	-0.1828
6.49	0.4017	-9.8097	1.7424	-0.0024	0.0106	-0.0051	8.7960	25.0963	-0.9641	0.7400	-0.6354	0.1236	-0.1827
6.5	0.3963	-9.8082	1.7431	0.0066	0.0157	-0.0056	9.0037	25.0024	-1.0347	0.7400	-0.6354	0.1236	-0.1827
6.51	0.3957	-9.8042	1.7436	0.0075	0.0151	-0.0048	8.9820	24.8857	-1.0718	0.7400	-0.6354	0.1236	-0.1826
6.52	0.3827	-9.7917	1.7385	0.0049	0.0171	-0.0062	9.0094	24.8646	-1.0758	0.7400	-0.6355	0.1237	-0.1826
6.53	0.3744	-9.7825	1.7443	0.0154	0.0175	-0.0052	8.8130	24.9279	-1.0226	0.7400	-0.6355	0.1237	-0.1825
6.54	0.3774	-9.7682	1.7452	0.0221	0.0159	-0.0121	8.8763	24.9883	-0.9681	0.7400	-0.6355	0.1237	-0.1825
6.55	0.3900	-9.7581	1.7526	0.0217	0.0059	-0.0105	8.9068	24.9595	-0.8898	0.7400	-0.6354	0.1236	-0.1824
6.56	0.4010	-9.7447	1.7673	0.0234	0.0142	-0.0085	9.1374	25.0900	-0.6405	0.7401	-0.6354	0.1236	-0.1824
6.57	0.4064	-9.7442	1.7819	0.0187	0.0133	-0.0079	9.7040	25.0433	-0.7497	0.7401	-0.6354	0.1236	-0.1823
6.58	0.3901	-9.7348	1.7795	0.0210	0.0115	-0.0049	9.5976	25.0938	-0.8396	0.7402	-0.6353	0.1237	-0.1822
6.59	0.3789	-9.7164	1.7823	0.0040	0.0123	-0.0062	9.1419	25.0034	-1.0709	0.7402	-0.6354	0.1237	-0.1822
6.6	0.3760	-9.7074	1.7768	-0.0027	0.0078	-0.0061	8.9412	25.4414	-1.0939	0.7401	-0.6354	0.1237	-0.1820
6.61	0.3773	-9.7074	1.7801	-0.0041	0.0072	-0.0056	8.9602	24.9781	-0.9840	0.7401	-0.6355	0.1237	-0.1819
6.62	0.3848	-9.7458	1.7794	-0.0217	0.0115	-0.0072	8.7494	25.0015	-1.1832	0.7400	-0.6355	0.1237	-0.1818
6.63	0.4123	-9.8170	1.7710	-0.0306	0.0028	-0.0117	8.7717	25.1353	-0.9429	0.7399	-0.6358	0.1237	-0.1818
6.64	0.4461	-9.8447	1.7655	-0.0256	0.0077	-0.0073	8.7070	24.9947	-0.7340	0.7398	-0.6359	0.1237	-0.1817
6.65	0.4595	-9.8295	1.7660	-0.0089	0.0148	-0.0058	8.6898	25.2835	-0.9854	0.7397	-0.6360	0.1238	-0.1816
6.66	0.4570	-9.8247	1.7607	-0.0122	0.0236	-0.0056	8.9963	24.9554	-0.9363	0.7396	-0.6361	0.1238	-0.1815
6.67	0.4319	-9.8146	1.7357	-0.0077	0.0396	-0.0051	8.8714	25.0097	-0.9409	0.7396	-0.6362	0.1239	-0.1816
6.68	0.3984	-9.7838	1.7183	-0.0020	0.0393	-0.0055	9.0717	24.9242	-0.7914	0.7395	-0.6362	0.1240	-0.1816
6.69	0.3514	-9.7546	1.7028	-0.0108	0.0432	-0.0051	9.1353	24.4468	-0.9549	0.7394	-0.6362	0.1241	-0.1816
6.7	0.3174	-9.7383	1.6933	-0.0125	0.0351	-0.0061	8.9963	24.6372	-1.0110	0.7394	-0.6364	0.1243	-0.1816
6.71	0.3074	-9.7385	1.6918	-0.0150	0.0343	-0.0071	9.0300	24.5665	-1.0896	0.7393	-0.6364	0.1244	-0.1816
6.72	0.3084	-9.7549	1.6880	-0.0234	0.0309	-0.0097	9.0119	24.8736	-1.0942	0.7392	-0.6366	0.1245	-0.1816
6.73	0.3076	-9.7612	1.6889	-0.0147	0.0160	-0.0153	9.1073	24.8342	-0.8163	0.7391	-0.6366	0.1245	-0.1815
6.74	0.3119	-9.7861	1.6841	-0.0225	0.0164	-0.0174	9.1353	24.6732	-0.8557	0.7390	-0.6367	0.1246	-0.1815
6.75	0.3265	-9.8137	1.6717	-0.0231	0.0098	-0.0151	9.0436	24.9921	-0.8704	0.7389	-0.6369	0.1246	-0.1814
6.76	0.3279	-9.8216	1.6738	-0.0191	-0.0086	-0.0163	9.0089	24.8377	-1.0786	0.7388	-0.6370	0.1245	-0.1813
6.77	0.3363	-9.8312	1.6721	-0.0096	-0.0053	-0.0148	9.1168	24.9660	-0.8827	0.7388	-0.6372	0.1244	-0.1812
6.78	0.3505	-9.8326	1.6643	-0.0196	-0.0086	-0.0161	8.8447	24.9363	-0.8835	0.7386	-0.6373	0.1243	-0.1811
6.79	0.3469	-9.8042	1.6624	-0.0114	-0.0051	-0.0168	8.8240	24.9456	-0.9769	0.7386	-0.6374	0.1242	-0.1810
6.8	0.3473	-9.7974	1.6748	-0.0039	-0.0115	-0.0183	8.9431	24.9263	-0.8475	0.7385	-0.6374	0.1241	-0.1809
6.81	0.3617	-9.8432	1.6762	-0.0105	-0.0226	-0.0210	8.9114	25.0707	-0.8371	0.7385	-0.6376	0.1240	-0.1808
6.82	0.4015	-9.8605	1.6797	-0.0070	-0.0308	-0.0246	8.6589	25.1459	-0.9091	0.7385	-0.6377	0.1238	-0.1806
6.83	0.4249	-9.8382	1.7013	-0.0010	-0.0294	-0.0147	8.9726	25.0510	-0.6629	0.7384	-0.6378	0.1236	-0.1805
6.84	0.4507	-9.8001	1.7043	0.0042	-0.0323	-0.0132	8.8003	24.9125	-0.6828	0.7385	-0.6379	0.1234	-0.1803
6.85	0.4707	-9.7685	1.7251	0.0056	-0.0313	-0.0103	8.7796	25.1057	-0.8944	0.7385	-0.6380	0.1232	-0.1801
6.86	0.4669	-9.7750	1.7214	-0.0010	-0.0222	-0.0056	8.8557	24.8461	-0.8559	0.7385	-0.6381	0.1231	-0.1799
6.87	0.4596	-9.7839	1.7099	-0.0030	-0.0162	-0.0061	8.9038	24.6316	-0.7377	0.7384	-0.6381	0.1230	-0.1798
6.88	0.4359	-9.7778	1.7095	-0.0060	-0.0121	-0.0055	9.1734	24.8319	-0.8974	0.7384	-0.6383	0.1229	-0.1796
6.89	0.4149	-9.7927	1.6991	-0.0250	-0.0119	-0.0069	9.0398	24.6911	-0.8955	0.7383	-0.6384	0.1228	-0.1795
6.9	0.4132	-9.8012	1.6846	-0.0288	-0.0079	-0.0096	9.0142	24.7281	-0.5805	0.7382	-0.6386	0.1228	-0.1794
6.91	0.4113	-9.8091	1.6821	-0.0173	-0.0072	-0.0140	9.0291	24.9884	-0.9238	0.7381	-0.6387	0.1227	-0.1792
6.92	0.4101	-9.8253	1.6731	-0.0104	0.0075	-0.0092	9.0177	24.5361	-0.8932	0.7380	-0.6389	0.1227	-0.1792
6.93	0.4163	-9.8350	1.6645	-0.0007	0.0053	-0.0122	8.8360	24.7257	-0.8395	0.7380	-0.6389	0.1226	-0.1791
6.94	0.4093	-9.8348	1.6649	-0.0025	0.0180	-0.0176	8.8595	24.7879	-0.7784	0.7379	-0.6389	0.1226	-0.1791
6.95	0.4011	-9.8234	1.6721	0.0073	0.0189	-0.0144	8.8115	24.7569	-0.6303	0.7380	-0.6391	0.1226	-0.1791
6.96	0.3925	-9.8145	1.6758	0.0205	0.0159	-0.0154	9.0778	24.7784	-0.8526	0.7379	-0.6390	0.1226	-0.1791
6.97	0.3858	-9.8131	1.6782	0.0106	0.0212	-0.0152	9.0291	25.0153	-0.8234	0.7380	-0.6391	0.1226	-0.1791
6.98	0.3825	-9.8072	1.6863	0.0179	0.0192	-0.0212	8.6064	25.1238	-0.9746	0.7379	-0.6390	0.1225	-0.1791
6.99	0.3851	-9.8004	1.6967	0.0156	0.0100	-0.0170	8.9345	25.1330	-1.0312	0.7380	-0.6390	0.1225	-0.1791
7	0.3869	-9.7819	1.7009	0.0196	0.0085	-0.0087	8.7378	25.0657	-0.7247	0.7380	-0.6390	0.1224	-0.1791
7.01	0.3914	-9.7749	1.7074	0.0140	0.0067	-0.0181	8.8443	25.0139	-0.8658	0.7380	-0.6390	0.1224	-0.1790
7.02	0.3980	-9.7862	1.7072	-0.0010	-0.0023	-0.0121	8.8468	25.0429	-0.8540	0.7380	-0.6391	0.1223	-0.1790
7.03	0.4053	-9.7905	1.7072	0.0009	-0.0007	-0.0054	8.8458	24.8840	-0.6999	0.7379	-0.6391	0.1222	-0.1788
7.04	0.4053	-9.7892	1.7098	-0.0015	-0.0010	-0.0065	8.8388	25.0495	-0.6355	0.7380	-0.6392	0.1222	-0.1788
7.05	0.4026	-9.7944	1.7007	-0.0058	0.0010	-0.0059	8.8406	25.0071	-0.7809	0.7378	-0.6392	0.1221	-0.1786
7.06	0.4014	-9.7942	1.6940	-0.0028	0.0037	-0.0062	9.1802	24.9662	-0.7428	0.7379	-0.6394	0.1221	-0.1786
7.07	0.3914	-9.7892	1.6926	-0.0020	0.0049	-0.0058	9.9268	24.7132	-0.6095	0.7378	-0.6394	0.1221	-0.1785
7.08	0.3795	-9.7976	1.6826	-0.0058	0.0146	-0.0063	9.6782	25.0512	-0.7335	0.7378	-0.6394	0.1221	-0.1784
7.09	0.3740	-9.8061	1.6792	-0.0069	0.0198	-0.0085	9.1656	25.0718	-0.9145	0.7378	-0.6395	0.1222	-0.1784
7.1	0.3667	-9.8082	1.6790	0.0033	0.0133	-0.0073	9.2603	25.3780	-0.9280	0.7377	-0.6396	0.1222	-0.1783
7.11	0.3477	-9.8130	1.6760	-0.0005	0.0169	-0.0074	8.8954	24.9257	-0.8454	0.7377	-0.6396	0.1222	-0.1783
7.12	0.3416	-9.8021	1.6678	0.0017	0.0184	-0.0083	8.8232	24.6751	-0.6559	0.7376	-0.6396	0.1222	-0.1782
7.13	0.3462	-9.7989	1.6714	0.0129	0.0122	-0.0128	8.7995	25.1533	-0.8933	0.7377	-0.6397	0.1222	-0.1782
7.14	0.3516	-9.7963	1.6765	0.0184	0.0098	-0.0188	8.9934	24.7752	-0.7835	0.7377	-0.6397	0.1221	-0.1782
7.15	0.3627	-9.8124	1.6889	0.0224	0.0120	-0.0104	8.9225	24.7731	-0.6718	0.7377	-0.6396	0.1221	-0.1781
7.16	0.3685	-9.8332	1.6966	0.0176	0.0150	-0.0129	8.7918	24.8472	-0.6927	0.7377	-0.6396	0.1220	-0.1781
7.17	0.3495	-9.8314	1.6932	0.0213	0.0092	-0.0133	8.8140	25.0174	-0.8936	0.7378	-0.6396	0.1220	-0.1781
7.18	0.3424	-9.8147	1.6941	0.0230	0.0058	-0.0107	8.8156	25.0038	-0.9825	0.7378	-0.6396	0.1219	-0.1780
7.19	0.3464	-9.7949	1.6900	0.0231	-0.0025	-0.0086	8.7916	24.8380	-0.7684	0.7378	-0.6395	0.1218	-0.1780
7.2	0.3475	-9.7863	1.7033	0.0209	-0.0034	-0.0117	8.9431	24.8770	-0.6951	0.7380	-0.6396	0.1218	-0.1779
7.21	0.3606	-9.8192	1.7159	0.0235	-0.0070	-0.0126	8.8261	24.9918	-0.7392	0.7380	-0.6395	0.1216	-0.1778
7.22	0.3870	-9.8551	1.7190	0.0228	-0.0088	-0.0152	8.8781	24.8602	-0.8514	0.7381	-0.6396	0.1215	-0.1777
7.23	0.4171	-9.8368	1.7303	0.0244	-0.0103	-0.0092	8.9072	24.8670	-0.6544	0.7380	-0.6395	0.1214	-0.1776
7.24	0.4206	-9.8012	1.7425	0.0249	-0.0153	-0.0048	8.7905	24.8311	-0.9004	0.7381	-0.6395	0.1213	-0.1775
7.25	0.4120	-9.7907	1.7408	0.0262	-0.0066	-0.0053	8.8132	24.9301	-0.9819	0.7382	-0.6395	0.1212	-0.1774
7.26	0.3964	-9.7756	1.7326	0.0238	0.0032	-0.0133	8.8732	24.8873	-0.7521	0.7382	-0.6394	0.1211	-0.1773
7.27	0.3719	-9.7460	1.7332	0.0237	0.0038	-0.0092	9.0226	24.7456	-0.9295	0.7384	-0.6395	0.1210	-0.1773
7.28	0.3456	-9.7231	1.7186	0.0230	-0.0007	-0.0134	8.9540	24.9318	-0.9910	0.7384	-0.6394	0.1210	-0.1772
7.29	0.3349	-9.7181	1.7176	0.0152	-0.0095	-0.0110	9.0470	24.9493	-0.9865	0.7385	-0.6394	0.1209	-0.1771
7.3	0.3380	-9.7233	1.7240	0.0095	-0.0075	-0.0237	8.7629	24.9459	-0.9697	0.7384	-0.6393	0.1207	-0.1770
7.31	0.3539	-9.7415	1.7273	0.0103	-0.0074	-0.0271	8.8685	24.9456	-1.1175	0.7385	-0.6394	0.1206	-0.1770
7.32	0.3731	-9.7711	1.7286	0.0020	-0.0097	-0.0294	9.0148	24.9516	-0.9941	0.7385	-0.6394	0.1205	-0.1769
7.33	0.3941	-9.7765	1.7264	0.0008	-0.0182	-0.0266	9.0458	24.9414	-1.0041	0.7385	-0.6395	0.1203	-0.1768
7.34	0.4082	-9.7776	1.7291	0.0053	-0.0217	-0.0187	9.1126	25.0522	-0.7526	0.7385	-0.6395	0.1202	-0.1767
7.35	0.4264	-9.7891	1.7173	-0.0028	-0.0192	-0.0236	8.7748	25.0295	-0.8670	0.7385	-0.6396	0.1200	-0.1766
7.36	0.4442	-9.7952	1.7244	-0.0015	-0.0234	-0.0224	8.6997	25.0337	-0.8288	0.7385	-0.6397	0.1198	-0.1764
7.37	0.4575	-9.7932	1.7177	-0.0047	-0.0231	-0.0182	8.8175	25.0284	-0.8646	0.7384	-0.6397	0.1197	-0.1763
7.38	0.4602	-9.7745	1.7142	-0.0021	-0.0279	-0.0182	8.8189	25.0337	-0.9129	0.7385	-0.6398	0.1195	-0.1762
7.39	0.4621	-9.7905	1.7203	-0.0022	-0.0311	-0.0125	8.9538	25.0334	-0.8614	0.7385	-0.6399	0.1193	-0.1760
7.4	0.4828	-9.8433	1.7172	0.0014	-0.0349	-0.0083	8.7946	25.0482	-0.6791	0.7385	-0.6400	0.1191	-0.1758
7.41	0.5057	-9.8649	1.7338	-0.0004	-0.0278	-0.0092	8.9244	25.0221	-0.9170	0.7384	-0.6401	0.1190	-0.1756
7.42	0.5196	-9.8468	1.7382	0.0142	-0.0324	-0.0062	8.8687	25.0534	-1.0058	0.7385	-0.6401	0.1188	-0.1754
7.43	0.5372	-9.8061	1.7425	0.0249	-0.0250	-0.0032	8.8093	24.9745	-0.9689	0.7386	-0.6401	0.1186	-0.1752
7.44	0.5359	-9.7862	1.7551	0.0223	-0.0150	-0.0068	9.1152	24.9263	-0.9875	0.7386	-0.6401	0.1185	-0.1751
7.45	0.5336	-9.8056	1.7518	0.0233	-0.0137	-0.0035	9.0440	25.0746	-0.9725	0.7387	-0.6401	0.1184	-0.1750
7.46	0.5230	-9.7984	1.7553	0.0227	0.0045	-0.0056	8.9889	24.8326	-0.9883	0.7387	-0.6400	0.1183	-0.1749
7.47	0.4890	-9.7948	1.7626	0.0219	0.0181	-0.0018	8.9222	24.7368	-0.9682	0.7388	-0.6401	0.1184	-0.1748
7.48	0.4683	-9.8038	1.7532	0.0242	0.0151	-0.0030	8.8871	24.8889	-0.9989	0.7388	-0.6399	0.1183	-0.1748
7.49	0.4606	-9.7958	1.7570	0.0228	0.0236	-0.0059	8.7824	24.8337	-0.9527	0.7389	-0.6399	0.1184	-0.1748
7.5	0.4375	-9.7761	1.7602	0.0230	0.0396	-0.0027	8.8663	24.9100	-1.0657	0.7389	-0.6399	0.1184	-0.1748
7.51	0.4129	-9.7720	1.7601	0.0225	0.0423	-0.0051	8.9091	25.0233	-1.0165	0.7389	-0.6398	0.1185	-0.1748
7.52	0.3880	-9.7675	1.7592	0.0237	0.0400	-0.0075	8.9943	25.0704	-0.7612	0.7390	-0.6398	0.1186	-0.1749
7.53	0.3641	-9.7578	1.7613	0.0254	0.0445	-0.0043	8.7093	25.0926	-0.9734	0.7390	-0.6397	0.1187	-0.1749
7.54	0.3455	-9.7452	1.7608	0.0252	0.0436	-0.0071	8.7854	24.8042	-0.9995	0.7391	-0.6396	0.1188	-0.1750
7.55	0.3318	-9.7344	1.7560	0.0197	0.0361	-0.0077	8.8230	25.0534	-0.8790	0.7391	-0.6394	0.1189	-0.1750
7.56	0.3265	-9.7239	1.7677	0.0230	0.0312	-0.0131	9.0279	25.1469	-0.7873	0.7392	-0.6394	0.1189	-0.1751
7.57	0.3282	-9.7246	1.7704	0.0225	0.0196	-0.0115	9.6664	25.0863	-0.7843	0.7392	-0.6393	0.1189	-0.1750
7.58	0.3410	-9.7241	1.7825	0.0185	0.0209	-0.0082	9.6027	24.9737	-0.8236	0.7393	-0.6392	0.1190	-0.1750
7.59	0.3531	-9.7239	1.7927	0.0173	0.0173	-0.0090	8.9892	25.0767	-1.1027	0.7394	-0.6392	0.1190	-0.1750
7.6	0.3646	-9.7257	1.7935	0.0051	0.0042	-0.0051	8.9124	25.4170	-1.0572	0.7394	-0.6392	0.1190	-0.1749
7.61	0.3845	-9.7356	1.7955	-0.0001	0.0055	-0.0092	8.7705	25.0977	-1.0526	0.7394	-0.6392	0.1189	-0.1748
7.62	0.3967	-9.7303	1.7898	0.0014	-0.0015	-0.0100	8.7414	24.9299	-0.9349	0.7394	-0.6392	0.1189	-0.1747
7.63	0.4054	-9.7380	1.7922	-0.0144	0.0021	-0.0102	9.0094	25.0805	-0.9465	0.7394	-0.6393	0.1188	-0.1746
7.64	0.4088	-9.7549	1.7808	-0.0251	0.0054	-0.0054	9.1762	24.8731	-1.0973	0.7393	-0.6394	0.1188	-0.1745
7.65	0.4156	-9.7574	1.7733	-0.0212	0.0100	-0.0066	9.0219	24.8909	-1.1561	0.7393	-0.6395	0.1189	-0.1744
7.66	0.4186	-9.7653	1.7585	-0.0254	0.0137	-0.0049	9.0529	24.7583	-0.9989	0.7392	-0.6395	0.1189	-0.1744
7.67	0.4160	-9.7830	1.7448	-0.0266	0.0176	-0.0045	8.8595	24.9488	-0.9467	0.7391	-0.6397	0.1190	-0.1743
7.68	0.4118	-9.7994	1.7299	-0.0281	0.0188	-0.0074	8.9123	25.0890	-0.8931	0.7390	-0.6398	0.1190	-0.1742
7.69	0.4067	-9.8051	1.7240	-0.0288	0.0207	-0.0035	8.9503	24.6348	-0.8055	0.7388	-0.6399	0.1190	-0.1742
7.7	0.3937	-9.8317	1.7062	-0.0239	0.0110	-0.0060	8.9500	24.8511	-1.0946	0.7388	-0.6401	0.1191	-0.1741
7.71	0.3870	-9.8375	1.6986	-0.0096	0.0204	-0.0053	8.9066	24.9736	-0.9813	0.7387	-0.6402	0.1191	-0.1741
7.72	0.3925	-9.8273	1.6984	-0.0031	0.0263	-0.0055	8.8150	25.0048	-1.1518	0.7387	-0.6403	0.1192	-0.1741
7.73	0.3955	-9.8251	1.6947	0.0061	0.0248	-0.0045	8.9668	25.1566	-1.0279	0.7386	-0.6402	0.1192	-0.1740
7.74	0.3897	-9.8300	1.6988	0.0070	0.0295	-0.0048	9.0496	25.0094	-0.8084	0.7387	-0.6402	0.1192	-0.1740
7.75	0.3685	-9.8309	1.6976	0.0095	0.0306	-0.0051	8.8126	25.0851	-0.8697	0.7387	-0.6402	0.1193	-0.1740
7.76	0.3458	-9.8294	1.6882	0.0029	0.0292	-0.0050	8.7158	24.9583	-0.8407	0.7386	-0.6402	0.1194	-0.1740
7.77	0.3357	-9.8165	1.6788	0.0094	0.0321	-0.0052	9.0150	24.9633	-0.8582	0.7387	-0.6403	0.1194	-0.1740
7.78	0.3251	-9.7981	1.6889	0.0169	0.0271	-0.0069	8.8614	24.9666	-0.8537	0.7386	-0.6402	0.1195	-0.1740
7.79	0.3200	-9.8103	1.7035	0.0066	0.0207	-0.0043	8.9224	25.1619	-1.0697	0.7387	-0.6402	0.1195	-0.1740
7.8	0.3290	-9.8595	1.7050	-0.0030	0.0123	-0.0077	8.9376	25.0299	-0.9307	0.7386	-0.6402	0.1195	-0.1739
7.81	0.3655	-9.8730	1.7034	0.0101	0.0187	-0.0099	9.0824	24.9610	-0.8395	0.7386	-0.6403	0.1195	-0.1739
7.82	0.3828	-9.8322	1.7181	0.0248	0.0193	-0.0104	9.2722	24.9234	-0.8388	0.7386	-0.6402	0.1195	-0.1739
7.83	0.3807	-9.8045	1.7239	0.0225	0.0303	-0.0089	9.1048	24.7900	-0.9142	0.7387	-0.6401	0.1195	-0.1740
7.84	0.3703	-9.7969	1.7164	0.0236	0.0330	-0.0055	9.1358	24.7537	-1.0511	0.7387	-0.6401	0.1195	-0.1740
7.85	0.3439	-9.7871	1.7162	0.0228	0.0339	-0.0052	9.1054	24.9829	-0.8915	0.7388	-0.6400	0.1196	-0.1740
7.86	0.3182	-9.7701	1.7108	0.0239	0.0352	-0.0036	8.9480	24.8218	-1.0295	0.7388	-0.6400	0.1197	-0.1740
7.87	0.2886	-9.7473	1.7041	0.0258	0.0346	-0.0077	8.9349	24.7799	-1.0225	0.7388	-0.6398	0.1197	-0.1741
7.88	0.2762	-9.7427	1.7002	0.0179	0.0230	-0.0090	9.0572	24.8527	-1.1502	0.7389	-0.6399	0.1197	-0.1741
7.89	0.2778	-9.7495	1.7077	0.0234	0.0123	-0.0144	9.0051	24.9854	-1.0796	0.7390	-0.6398	0.1197	-0.1740
7.9	0.2891	-9.7704	1.7105	0.0209	0.0084	-0.0151	8.8363	24.9973	-1.0098	0.7391	-0.6397	0.1196	-0.1740
7.91	0.3133	-9.8005	1.7115	0.0117	-0.0004	-0.0175	8.9586	24.9520	-1.0752	0.7391	-0.6397	0.1195	-0.1740
7.92	0.3268	-9.8094	1.7224	0.0142	-0.0057	-0.0166	9.0485	25.0563	-0.8371	0.7391	-0.6397	0.1194	-0.1739
7.93	0.3458	-9.8127	1.7322	0.0173	-0.0106	-0.0101	9.0345	24.9292	-0.7500	0.7391	-0.6397	0.1193	-0.1738
7.94	0.3579	-9.8077	1.7322	0.0170	-0.0148	-0.0138	8.9702	24.9654	-1.0707	0.7391	-0.6397	0.1192	-0.1737
7.95	0.3811	-9.8042	1.7390	0.0167	-0.0135	-0.0102	8.8107	25.0679	-0.9113	0.7393	-0.6398	0.1190	-0.1736
7.96	0.3927	-9.7674	1.7302	0.0267	-0.0199	-0.0077	8.7699	25.1522	-1.1410	0.7393	-0.6397	0.1189	-0.1735
7.97	0.3978	-9.7486	1.7577	0.0298	-0.0170	-0.0069	8.9706	24.9177	-1.0660	0.7395	-0.6397	0.1188	-0.1733
7.98	0.4221	-9.7987	1.7682	0.0217	-0.0327	-0.0054	8.8316	25.0925	-0.9286	0.7395	-0.6396	0.1186	-0.1731
7.99	0.4474	-9.8217	1.7786	0.0259	-0.0342	-0.0061	8.7597	24.8590	-0.9424	0.7396	-0.6396	0.1184	-0.1729
8	0.4663	-9.7981	1.8023	0.0268	-0.0270	-0.0054	9.3014	24.7976	-1.1363	0.7397	-0.6396	0.1182	-0.1728
8.01	0.4898	-9.7531	1.8050	0.0269	-0.0218	-0.0062	9.1781	24.9317	-1.0254	0.7397	-0.6395	0.1180	-0.1726
8.02	0.5023	-9.7212	1.8315	0.0276	-0.0112	-0.0050	8.7612	24.6310	-1.1462	0.7400	-0.6395	0.1179	-0.1725
8.03	0.4936	-9.7312	1.8360	0.0183	-0.0056	-0.0066	8.8100	24.7682	-1.2183	0.7400	-0.6394	0.1178	-0.1724
8.04	0.4762	-9.7358	1.8280	0.0173	0.0115	-0.0010	8.8687	24.7741	-1.0312	0.7401	-0.6393	0.1178	-0.1723
8.05	0.4489	-9.7296	1.8333	0.0073	0.0147	0.0043	8.8382	24.8824	-0.9455	0.7401	-0.6392	0.1179	-0.1722
8.06	0.4235	-9.7410	1.8222	0.0007	0.0312	-0.0052	9.2044	24.8502	-1.0527	0.7402	-0.6393	0.1179	-0.1722
8.07	0.4024	-9.7450	1.8168	-0.0011	0.0359	-0.0012	9.9078	24.9353	-0.8366	0.7401	-0.6392	0.1180	-0.1722
8.08	0.3839	-9.7343	1.8133	-0.0032	0.0378	-0.0069	9.7635	24.9725	-0.8488	0.7401	-0.6392	0.1181	-0.1722
8.09	0.3640	-9.7367	1.7986	-0.0051	0.0429	-0.0071	8.9778	24.9952	-1.0072	0.7402	-0.6392	0.1183	-0.1723
8.1	0.3432	-9.7497	1.7846	-0.0184	0.0486	-0.0107	9.1366	25.2813	-0.9454	0.7401	-0.6392	0.1184	-0.1723
8.11	0.3143	-9.7523	1.7727	-0.0203	0.0441	-0.0134	8.9806	24.8517	-0.8112	0.7400	-0.6393	0.1185	-0.1724
8.12	0.2947	-9.7537	1.7594	-0.0160	0.0435	-0.0128	8.9984	24.9366	-0.8336	0.7399	-0.6392	0.1186	-0.1724
8.13	0.2880	-9.7731	1.7536	-0.0234	0.0333	-0.0202	8.9670	25.0567	-0.6538	0.7399	-0.6393	0.1187	-0.1725
8.14	0.2953	-9.7982	1.7435	-0.0210	0.0237	-0.0186	9.0348	24.8681	-0.8529	0.7398	-0.6394	0.1187	-0.1725
8.15	0.3128	-9.8098	1.7494	-0.0021	0.0236	-0.0236	9.0952	24.8355	-0.8311	0.7398	-0.6395	0.1187	-0.1725
8.16	0.3351	-9.8205	1.7394	-0.0055	0.0158	-0.0195	8.9792	24.9642	-0.9004	0.7397	-0.6395	0.1186	-0.1725
8.17	0.3614	-9.8304	1.7427	-0.0023	0.0121	-0.0105	8.8385	25.0358	-1.0106	0.7397	-0.6396	0.1186	-0.1725
8.18	0.3854	-9.8324	1.7417	0.0044	0.0055	-0.0044	8.8204	24.8512	-0.8331	0.7397	-0.6396	0.1186	-0.1724
8.19	0.4005	-9.8298	1.7443	-0.0029	-0.0023	-0.0060	9.0814	24.8718	-1.0183	0.7396	-0.6396	0.1185	-0.1723
8.2	0.4096	-9.8316	1.7542	0.0037	0.0013	-0.0050	9.1899	24.6356	-0.9630	0.7397	-0.6397	0.1185	-0.1723
8.21	0.4094	-9.8324	1.7491	0.0011	0.0089	-0.0046	9.1192	24.7374	-1.0258	0.7396	-0.6397	0.1185	-0.1722
8.22	0.4037	-9.8243	1.7534	0.0093	0.0130	-0.0009	9.0343	24.7755	-1.1393	0.7397	-0.6398	0.1185	-0.1721
8.23	0.3857	-9.8119	1.7523	0.0079	0.0187	-0.0003	9.1882	24.8332	-0.8628	0.7396	-0.6397	0.1185	-0.1720
8.24	0.3720	-9.8055	1.7493	0.0119	0.0160	0.0053	9.1383	25.0237	-0.8139	0.7397	-0.6397	0.1185	-0.1720
8.25	0.3568	-9.7897	1.7497	0.0233	0.0168	0.0076	9.0087	24.9814	-0.9843	0.7397	-0.6397	0.1186	-0.1719
8.26	0.3464	-9.7818	1.7524	0.0218	0.0168	0.0002	8.9560	24.9271	-1.0056	0.7397	-0.6396	0.1186	-0.1718
8.27	0.3332	-9.7798	1.7573	0.0216	0.0252	0.0023	9.1219	24.9467	-0.9788	0.7399	-0.6396	0.1186	-0.1718
8.28	0.3136	-9.7720	1.7540	0.0233	0.0206	-0.0059	9.1515	24.8165	-0.8562	0.7399	-0.6395	0.1186	-0.1718
8.29	0.3108	-9.7571	1.7657	0.0229	0.0283	-0.0050	8.9929	24.9192	-0.7225	0.7400	-0.6395	0.1187	-0.1718
8.3	0.3103	-9.7539	1.7801	0.0226	0.0206	-0.0060	8.8845	25.0461	-0.7127	0.7399	-0.6394	0.1187	-0.1718
8.31	0.3141	-9.7658	1.7878	0.0222	0.0189	-0.0054	9.0225	25.0235	-0.9553	0.7401	-0.6393	0.1187	-0.1718
8.32	0.3155	-9.7520	1.7980	0.0238	0.0246	-0.0070	9.2845	25.0567	-0.8650	0.7402	-0.6392	0.1187	-0.1718
8.33	0.3001	-9.7316	1.8049	0.0216	0.0259	-0.0044	9.1747	24.9579	-0.9928	0.7402	-0.6391	0.1187	-0.1718
8.34	0.3029	-9.7289	1.8146	0.0170	0.0241	-0.0057	8.9680	24.8457	-0.9868	0.7404	-0.6390	0.1188	-0.1718
8.35	0.3099	-9.7130	1.8091	0.0134	0.0190	-0.0050	9.1037	24.9820	-1.1310	0.7404	-0.6389	0.1188	-0.1717
8.36	0.3086	-9.6753	1.8079	0.0022	0.0173	-0.0058	9.0531	25.1161	-0.9967	0.7405	-0.6389	0.1188	-0.1717
8.37	0.3116	-9.6927	1.8220	-0.0125	0.0077	-0.0056	9.1590	25.0598	-1.0692	0.7404	-0.6388	0.1188	-0.1716
8.38	0.3326	-9.7585	1.8130	-0.0275	0.0037	-0.0066	9.1885	24.7843	-1.1025	0.7404	-0.6390	0.1188	-0.1715
8.39	0.3639	-9.8059	1.8054	-0.0236	0.0037	-0.0054	9.2557	24.9494	-1.0548	0.7403	-0.6391	0.1187	-0.1714
8.4	0.3891	-9.8047	1.8047	-0.0248	0.0087	-0.0105	9.0359	24.8788	-1.1266	0.7402	-0.6393	0.1187	-0.1713
8.41	0.3912	-9.7912	1.7968	-0.0221	0.0194	-0.0079	9.1955	24.7524	-0.9303	0.7401	-0.6394	0.1187	-0.1713
8.42	0.3726	-9.7894	1.7814	-0.0130	0.0326	-0.0049	9.2467	25.0165	-0.9610	0.7400	-0.6395	0.1188	-0.1713
8.43	0.3525	-9.7843	1.7637	-0.0112	0.0348	-0.0054	9.0828	25.0565	-0.9276	0.7400	-0.6395	0.1189	-0.1713
8.44	0.3075	-9.7573	1.7553	-0.0227	0.0404	-0.0056	9.0559	24.9434	-0.9758	0.7399	-0.6395	0.1190	-0.1713
8.45	0.2751	-9.7380	1.7425	-0.0247	0.0366	-0.0055	9.0972	24.8504	-0.9858	0.7399	-0.6396	0.1192	-0.1713
8.46	0.2480	-9.7336	1.7273	-0.0260	0.0301	-0.0102	9.1641	24.8529	-0.7255	0.7398	-0.6396	0.1192	-0.1713
8.47	0.2403	-9.7499	1.7198	-0.0280	0.0215	-0.0122	8.9689	24.9153	-0.9135	0.7398	-0.6398	0.1193	-0.1713
8.48	0.2455	-9.7806	1.7169	-0.0278	0.0203	-0.0175	8.9968	25.0535	-0.9055	0.7396	-0.6398	0.1193	-0.1713
8.49	0.2609	-9.8100	1.7213	-0.0263	-0.0029	-0.0230	9.0909	24.9018	-0.7682	0.7396	-0.6400	0.1192	-0.1713
8.5	0.2799	-9.8177	1.7232	-0.0210	-0.0075	-0.0150	9.0659	25.0087	-0.6810	0.7395	-0.6401	0.1191	-0.1712
8.51	0.2920	-9.8202	1.7126	-0.0180	-0.0049	-0.0179	9.0898	25.0636	-0.8105	0.7394	-0.6402	0.1190	-0.1711
8.52	0.3178	-9.8112	1.7148	-0.0166	-0.0148	-0.0177	8.9503	24.9035	-0.8073	0.7394	-0.6404	0.1189	-0.1710
8.53	0.3410	-9.7913	1.7166	-0.0085	-0.0234	-0.0100	9.0345	25.0096	-0.8069	0.7393	-0.6404	0.1187	-0.1708
8.54	0.3596	-9.7585	1.7081	-0.0033	-0.0240	-0.0056	9.1055	24.9937	-0.8125	0.7394	-0.6405	0.1186	-0.1707
8.55	0.3616	-9.7607	1.7247	-0.0015	-0.0233	-0.0069	8.9468	24.8347	-0.7997	0.7393	-0.6404	0.1185	-0.1705
8.56	0.3885	-9.8206	1.7250	-0.0095	-0.0321	-0.0064	9.4729	24.8702	-0.8099	0.7394	-0.6406	0.1183	-0.1703
8.57	0.4176	-9.8523	1.7442	-0.0028	-0.0268	-0.0073	9.8798	25.0515	-0.6016	0.7394	-0.6406	0.1181	-0.1701
8.58	0.4404	-9.8519	1.7610	0.0032	-0.0226	-0.0059	9.8030	24.9630	-0.7048	0.7394	-0.6407	0.1180	-0.1699
8.59	0.4645	-9.8189	1.7600	0.0085	-0.0098	-0.0057	9.3829	24.9073	-0.9630	0.7394	-0.6407	0.1179	-0.1698
8.6	0.4660	-9.7863	1.7817	0.0124	-0.0130	-0.0064	9.3823	25.0907	-0.8039	0.7394	-0.6407	0.1178	-0.1697
8.61	0.4541	-9.7923	1.7671	-0.0004	-0.0009	-0.0034	9.1671	24.7826	-0.9040	0.7395	-0.6408	0.1177	-0.1696
8.62	0.4286	-9.7873	1.7517	-0.0059	0.0155	-0.0018	9.3015	24.8810	-0.9360	0.7394	-0.6408	0.1177	-0.1695
8.63	0.3869	-9.7755	1.7510	-0.0016	0.0268	-0.0060	9.3833	24.8908	-0.8163	0.7394	-0.6409	0.1178	-0.1695
8.64	0.3567	-9.7816	1.7370	-0.0033	0.0342	-0.0048	9.2324	24.8740	-0.9963	0.7393	-0.6409	0.1179	-0.1695
8.65	0.3341	-9.7777	1.7209	-0.0019	0.0341	-0.0053	9.1262	24.8914	-0.8035	0.7393	-0.6409	0.1179	-0.1695
8.66	0.3196	-9.7650	1.7295	-0.0027	0.0396	-0.0043	9.0180	24.8639	-0.9693	0.7393	-0.6409	0.1180	-0.1695
8.67	0.3071	-9.7736	1.7168	-0.0015	0.0413	-0.0085	8.8751	24.9050	-0.9907	0.7393	-0.6409	0.1181	-0.1696
8.68	0.2790	-9.7470	1.7157	-0.0010	0.0434	-0.0126	9.0522	25.0249	-0.9428	0.7393	-0.6409	0.1182	-0.1697
8.69	0.2696	-9.7451	1.7116	-0.0032	0.0376	-0.0162	9.2072	25.1656	-1.1719	0.7392	-0.6408	0.1183	-0.1697
8.7	0.2666	-9.7778	1.7173	-0.0023	0.0357	-0.0233	9.2154	25.0139	-0.8593	0.7393	-0.6408	0.1183	-0.1698
8.71	0.2548	-9.8092	1.7156	-0.0026	0.0310	-0.0183	9.1252	25.1178	-0.8578	0.7392	-0.6408	0.1183	-0.1699
8.72	0.2595	-9.8050	1.7122	-0.0025	0.0337	-0.0219	8.6769	24.8766	-1.0036	0.7392	-0.6409	0.1184	-0.1699
8.73	0.2718	-9.8047	1.7254	-0.0025	0.0236	-0.0193	9.0626	24.9928	-0.6662	0.7391	-0.6409	0.1184	-0.1700
8.74	0.2792	-9.8189	1.7178	-0.0028	0.0138	-0.0201	9.1065	25.0283	-0.9780	0.7391	-0.6410	0.1183	-0.1700
8.75	0.3014	-9.8313	1.7187	-0.0002	0.0078	-0.0162	9.3299	24.6368	-1.1106	0.7391	-0.6410	0.1183	-0.1699
8.76	0.3128	-9.8250	1.7261	-0.0028	0.0036	-0.0141	9.4114	24.8116	-0.9003	0.7390	-0.6410	0.1182	-0.1699
8.77	0.3213	-9.8348	1.7306	-0.0016	-0.0023	-0.0125	9.2593	24.8812	-0.9278	0.7391	-0.6412	0.1181	-0.1698
8.78	0.3300	-9.8413	1.7235	-0.0036	-0.0070	-0.0116	9.3073	24.7608	-0.9578	0.7390	-0.6412	0.1180	-0.1697
8.79	0.3299	-9.8260	1.7215	0.0040	-0.0107	-0.0062	9.2347	24.8429	-1.0400	0.7391	-0.6413	0.1179	-0.1696
8.8	0.3298	-9.8032	1.7255	0.0101	-0.0076	-0.0072	9.0859	24.5770	-0.9995	0.7390	-0.6412	0.1178	-0.1695
8.81	0.3322	-9.7974	1.7246	0.0066	-0.0070	-0.0058	9.1340	24.8939	-1.0222	0.7391	-0.6413	0.1177	-0.1694
8.82	0.3280	-9.7811	1.7213	0.0050	-0.0082	-0.0053	9.2305	24.8082	-1.0323	0.7391	-0.6413	0.1177	-0.1693
8.83	0.3337	-9.7709	1.7255	0.0096	-0.0057	-0.0061	9.1707	24.8746	-0.9411	0.7391	-0.6413	0.1176	-0.1691
8.84	0.3290	-9.7667	1.7380	0.0233	0.0057	-0.0048	9.2411	24.8763	-0.8241	0.7392	-0.6413	0.1175	-0.1691
8.85	0.3221	-9.7650	1.7330	0.0169	0.0018	-0.0067	9.1222	24.9302	-0.8170	0.7392	-0.6412	0.1175	-0.1690
8.86	0.3168	-9.7582	1.7416	0.0200	-0.0036	-0.0068	8.9702	25.1604	-0.6867	0.7394	-0.6412	0.1174	-0.1689
8.87	0.3200	-9.7577	1.7501	0.0233	0.0005	-0.0048	9.1349	25.1534	-0.9509	0.7394	-0.6410	0.1173	-0.1688
8.88	0.3288	-9.7695	1.7570	0.0230	0.0031	-0.0111	9.0025	25.0140	-0.9255	0.7396	-0.6410	0.1172	-0.1688
8.89	0.3398	-9.7686	1.7652	0.0135	0.0086	-0.0065	9.1866	24.9931	-0.7803	0.7396	-0.6409	0.1172	-0.1687
8.9	0.3317	-9.7554	1.7666	0.0224	0.0131	-0.0143	9.2153	25.1436	-0.9517	0.7398	-0.6408	0.1172	-0.1687
8.91	0.3109	-9.7537	1.7584	0.0033	0.0163	-0.0125	9.1015	25.1644	-0.9047	0.7398	-0.6407	0.1171	-0.1687
8.92	0.3026	-9.7518	1.7501	-0.0038	0.0079	-0.0067	8.9892	25.0874	-0.8644	0.7398	-0.6407	0.1171	-0.1686
8.93	0.2860	-9.7538	1.7535	-0.0052	-0.0037	-0.0105	9.0866	24.8855	-1.1437	0.7399	-0.6407	0.1171	-0.1685
8.94	0.2793	-9.7599	1.7441	-0.0137	-0.0016	-0.0070	9.5137	24.8146	-1.0284	0.7398	-0.6407	0.1170	-0.1684
8.95	0.2747	-9.7809	1.7462	-0.0092	-0.0033	-0.0065	9.3177	24.5908	-0.9783	0.7399	-0.6408	0.1170	-0.1683
8.96	0.3015	-9.8346	1.7464	-0.0112	-0.0094	-0.0165	9.3093	24.7726	-0.9391	0.7398	-0.6409	0.1168	-0.1682
8.97	0.3487	-9.8661	1.7443	-0.0036	-0.0082	-0.0217	9.1754	24.6238	-1.0724	0.7398	-0.6410	0.1167	-0.1682
8.98	0.3782	-9.8377	1.7601	0.0004	-0.0064	-0.0233	9.4102	25.0403	-0.7978	0.7397	-0.6410	0.1166	-0.1681
8.99	0.3848	-9.7981	1.7574	0.0086	0.0034	-0.0187	9.2020	24.8847	-0.9808	0.7398	-0.6411	0.1165	-0.1681
9	0.3654	-9.7704	1.7443	0.0069	0.0172	-0.0126	9.1201	24.9747	-1.0484	0.7398	-0.6411	0.1165	-0.1681
9.01	0.3360	-9.7481	1.7357	-0.0006	0.0259	-0.0085	9.2510	24.7994	-0.9358	0.7397	-0.6410	0.1165	-0.1681
9.02	0.2935	-9.7421	1.7257	-0.0033	0.0154	-0.0085	9.1583	24.9095	-0.8186	0.7398	-0.6411	0.1165	-0.1680
9.03	0.2602	-9.7478	1.7081	-0.0079	0.0159	-0.0122	8.9721	25.2399	-0.7107	0.7397	-0.6411	0.1165	-0.1680
9.04	0.2488	-9.7501	1.6990	-0.0120	0.0133	-0.0244	8.8872	25.0383	-0.8442	0.7398	-0.6411	0.1165	-0.1680
9.05	0.2593	-9.7549	1.7013	-0.0160	-0.0010	-0.0300	9.0484	25.0535	-0.7636	0.7397	-0.6411	0.1163	-0.1680
9.06	0.2896	-9.7785	1.7018	-0.0130	-0.0093	-0.0325	9.3230	25.2989	-0.4948	0.7397	-0.6412	0.1162	-0.1680
9.07	0.3155	-9.7993	1.7085	-0.0019	-0.0168	-0.0309	9.5027	25.1510	-0.4659	0.7397	-0.6412	0.1160	-0.1679
9.08	0.3386	-9.8053	1.7133	-0.0031	-0.0192	-0.0265	9.4810	25.2562	-0.4388	0.7397	-0.6413	0.1158	-0.1678
9.09	0.3555	-9.8131	1.7106	-0.0025	-0.0277	-0.0199	9.0470	25.2213	-0.7521	0.7397	-0.6414	0.1156	-0.1677
9.1	0.3690	-9.8174	1.7064	-0.0020	-0.0273	-0.0165	9.3725	25.3251	-0.8868	0.7396	-0.6415	0.1154	-0.1676
9.11	0.3741	-9.8014	1.7059	-0.0010	-0.0346	-0.0127	9.2136	25.1656	-0.9413	0.7397	-0.6416	0.1152	-0.1674
9.12	0.3798	-9.7698	1.7029	-0.0025	-0.0343	-0.0139	9.0267	25.0095	-0.7780	0.7397	-0.6415	0.1150	-0.1672
9.13	0.3873	-9.7939	1.7182	-0.0056	-0.0389	-0.0090	9.2086	24.8165	-0.9751	0.7398	-0.6416	0.1148	-0.1670
9.14	0.4178	-9.8547	1.7137	-0.0059	-0.0469	-0.0145	9.0680	24.7236	-1.0859	0.7398	-0.6417	0.1146	-0.1668
9.15	0.4524	-9.8756	1.7311	-0.0011	-0.0399	-0.0146	9.1226	24.8470	-0.8784	0.7398	-0.6418	0.1144	-0.1666
9.16	0.4837	-9.8650	1.7328	-0.0009	-0.0399	-0.0107	9.2625	24.8499	-0.9088	0.7398	-0.6419	0.1141	-0.1664
9.17	0.5171	-9.8262	1.7467	0.0142	-0.0366	-0.0139	9.1095	24.8481	-0.7790	0.7398	-0.6419	0.1139	-0.1662
9.18	0.5101	-9.8060	1.7622	0.0249	-0.0184	-0.0036	9.1779	24.8543	-1.0297	0.7399	-0.6419	0.1138	-0.1661
9.19	0.4957	-9.8148	1.7502	0.0145	-0.0100	-0.0063	9.1214	24.8363	-0.8722	0.7399	-0.6418	0.1137	-0.1659
9.2	0.4600	-9.8024	1.7567	0.0231	0.0042	0.0001	9.1863	24.9605	-0.9363	0.7401	-0.6419	0.1136	-0.1658
9.21	0.4139	-9.7845	1.7550	0.0222	0.0130	-0.0040	9.2330	24.9004	-0.8222	0.7401	-0.6418	0.1136	-0.1658
9.22	0.3872	-9.7808	1.7462	0.0223	0.0191	-0.0052	9.0610	25.0173	-0.8905	0.7402	-0.6418	0.1136	-0.1658
9.23	0.3778	-9.7662	1.7482	0.0230	0.0186	-0.0049	9.0630	25.0136	-0.8187	0.7401	-0.6416	0.1136	-0.1657
9.24	0.3686	-9.7550	1.7579	0.0229	0.0218	-0.0107	8.9584	25.0368	-0.6943	0.7402	-0.6416	0.1136	-0.1657
9.25	0.3621	-9.7570	1.7567	0.0220	0.0212	-0.0138	8.9755	24.7830	-0.7195	0.7403	-0.6416	0.1136	-0.1658
9.26	0.3608	-9.7597	1.7536	0.0199	0.0204	-0.0149	8.9850	24.8100	-0.7802	0.7403	-0.6415	0.1135	-0.1658
9.27	0.3513	-9.7659	1.7581	0.0209	0.0292	-0.0158	8.8577	24.9671	-0.9311	0.7405	-0.6415	0.1136	-0.1658
9.28	0.3431	-9.7614	1.7656	0.0192	0.0232	-0.0161	9.0756	24.9237	-0.7355	0.7405	-0.6413	0.1135	-0.1658
9.29	0.3466	-9.7771	1.7688	0.0169	0.0234	-0.0112	9.1885	24.9335	-0.9379	0.7406	-0.6413	0.1136	-0.1659
9.3	0.3360	-9.7460	1.7648	0.0234	0.0203	-0.0116	9.1230	25.0229	-0.6867	0.7406	-0.6411	0.1135	-0.1658
9.31	0.3308	-9.7302	1.7748	0.0109	0.0209	-0.0100	9.1775	24.9181	-0.8777	0.7408	-0.6410	0.1136	-0.1659
9.32	0.3504	-9.7794	1.7816	0.0014	0.0111	-0.0069	9.0936	24.7779	-0.8581	0.7408	-0.6410	0.1135	-0.1658
9.33	0.3497	-9.7942	1.7750	0.0038	0.0144	-0.0055	9.0343	24.7464	-0.7711	0.7407	-0.6410	0.1135	-0.1658
9.34	0.3464	-9.7855	1.7794	0.0010	0.0072	-0.0059	9.1757	24.7751	-0.9225	0.7408	-0.6411	0.1135	-0.1657
9.35	0.3549	-9.7714	1.7760	-0.0001	0.0110	-0.0058	9.1264	24.5906	-0.8832	0.7408	-0.6410	0.1135	-0.1656
9.36	0.3526	-9.7696	1.7742	0.0031	0.0196	-0.0042	9.1794	24.6243	-0.8939	0.7409	-0.6410	0.1135	-0.1656
9.37	0.3523	-9.7750	1.7610	-0.0100	0.0080	-0.0048	9.0316	24.8402	-0.9151	0.7408	-0.6409	0.1135	-0.1655
9.38	0.3456	-9.7643	1.7585	-0.0080	0.0084	-0.0051	9.2103	24.9914	-0.8730	0.7409	-0.6410	0.1135	-0.1654
9.39	0.3414	-9.7754	1.7521	-0.0021	0.0107	-0.0038	9.2078	24.9843	-0.7957	0.7409	-0.6410	0.1135	-0.1654
9.4	0.3220	-9.7827	1.7346	-0.0036	0.0144	0.0003	9.0842	24.9055	-0.8018	0.7409	-0.6410	0.1136	-0.1653
9.41	0.3089	-9.7837	1.7421	-0.0053	0.0212	-0.0014	8.9303	25.0286	-0.8386	0.7409	-0.6409	0.1136	-0.1652
9.42	0.2940	-9.7808	1.7318	-0.0046	0.0184	-0.0021	9.1726	24.9142	-0.7569	0.7410	-0.6409	0.1136	-0.1652
9.43	0.2778	-9.7887	1.7274	0.0011	0.0211	-0.0055	9.0037	24.9176	-0.7544	0.7410	-0.6409	0.1137	-0.1651
9.44	0.2697	-9.7905	1.7315	0.0090	0.0206	-0.0050	9.0399	24.7052	-0.9091	0.7410	-0.6408	0.1137	-0.1651
9.45	0.2706	-9.8101	1.7320	0.0130	0.0210	-0.0086	9.2479	25.0118	-0.8185	0.7411	-0.6408	0.1137	-0.1651
9.46	0.2765	-9.8071	1.7378	0.0210	0.0248	-0.0066	9.1614	25.0007	-0.7447	0.7411	-0.6407	0.1137	-0.1651
9.47	0.2622	-9.7844	1.7522	0.0222	0.0114	-0.0070	9.2425	25.1228	-0.7751	0.7413	-0.6407	0.1137	-0.1651
9.48	0.2415	-9.7739	1.7488	0.0176	0.0116	-0.0069	8.9259	25.0145	-0.9055	0.7413	-0.6405	0.1137	-0.1650
9.49	0.2384	-9.7625	1.7457	0.0162	0.0144	-0.0103	8.9957	24.9231	-0.8147	0.7414	-0.6405	0.1137	-0.1650
9.5	0.2418	-9.7628	1.7551	0.0143	0.0065	-0.0058	9.1436	24.9033	-1.1082	0.7415	-0.6404	0.1136	-0.1649
9.51	0.2502	-9.7576	1.7538	0.0114	-0.0068	-0.0074	9.0898	24.7968	-1.0784	0.7415	-0.6403	0.1136	-0.1648
9.52	0.2533	-9.7651	1.7740	0.0094	-0.0080	-0.0092	9.0349	25.0045	-0.9899	0.7417	-0.6403	0.1135	-0.1647
9.53	0.2875	-9.8231	1.7790	-0.0037	-0.0124	-0.0139	9.2418	24.5616	-0.8502	0.7416	-0.6403	0.1133	-0.1646
9.54	0.3357	-9.8540	1.7783	0.0073	-0.0110	-0.0204	9.1855	24.7768	-0.9431	0.7417	-0.6404	0.1132	-0.1645
9.55	0.3671	-9.8258	1.7976	0.0212	-0.0091	-0.0159	9.0412	24.9688	-0.7642	0.7416	-0.6403	0.1130	-0.1644
9.56	0.3766	-9.7837	1.7919	0.0199	0.0123	-0.0165	9.4066	24.9377	-0.8763	0.7417	-0.6404	0.1130	-0.1644
9.57	0.3648	-9.7508	1.7843	0.0142	0.0100	-0.0081	9.9868	25.0640	-0.8347	0.7417	-0.6403	0.1130	-0.1644
9.58	0.3314	-9.7238	1.7719	0.0090	0.0152	-0.0038	9.9753	25.0259	-0.8300	0.7418	-0.6403	0.1130	-0.1643
9.59	0.2790	-9.7141	1.7558	-0.0018	0.0224	-0.0078	9.4192	25.3037	-0.9464	0.7419	-0.6403	0.1130	-0.1643
9.6	0.2421	-9.7153	1.7428	-0.0025	0.0174	-0.0097	9.2438	25.5227	-1.0321	0.7419	-0.6402	0.1130	-0.1643
9.61	0.2300	-9.7189	1.7368	-0.0053	0.0014	-0.0231	9.0164	25.0228	-1.3378	0.7419	-0.6402	0.1129	-0.1643
9.62	0.2481	-9.7288	1.7362	-0.0137	-0.0084	-0.0288	9.0470	25.1394	-0.7813	0.7418	-0.6402	0.1128	-0.1642
9.63	0.2714	-9.7386	1.7393	-0.0084	-0.0063	-0.0244	9.0289	25.2285	-0.7679	0.7419	-0.6403	0.1127	-0.1642
9.64	0.2944	-9.7637	1.7360	-0.0067	-0.0231	-0.0262	9.0325	24.9226	-1.0107	0.7419	-0.6403	0.1125	-0.1641
9.65	0.3205	-9.7868	1.7389	-0.0057	-0.0231	-0.0226	9.0331	24.7856	-1.0239	0.7419	-0.6404	0.1123	-0.1639
9.66	0.3457	-9.7934	1.7359	-0.0138	-0.0294	-0.0280	9.0349	24.7757	-0.8897	0.7419	-0.6405	0.1121	-0.1638
9.67	0.3606	-9.8043	1.7392	-0.0087	-0.0332	-0.0195	8.7742	25.0303	-0.8305	0.7418	-0.6406	0.1119	-0.1637
9.68	0.3849	-9.8148	1.7372	-0.0073	-0.0385	-0.0193	8.7902	24.8420	-1.1826	0.7418	-0.6407	0.1117	-0.1635
9.69	0.3959	-9.7805	1.7298	-0.0019	-0.0278	-0.0131	9.0378	24.6061	-0.8759	0.7418	-0.6407	0.1115	-0.1633
9.7	0.4014	-9.7928	1.7520	-0.0067	-0.0337	-0.0118	9.1225	24.5941	-0.9536	0.7419	-0.6408	0.1113	-0.1632
9.71	0.4332	-9.8510	1.7344	-0.0092	-0.0324	-0.0077	9.1436	24.7962	-0.9747	0.7418	-0.6409	0.1111	-0.1630
9.72	0.4611	-9.8727	1.7431	-0.0024	-0.0329	-0.0109	9.3161	24.7037	-0.8977	0.7419	-0.6410	0.1109	-0.1628
9.73	0.4815	-9.8597	1.7538	0.0077	-0.0282	-0.0126	9.2115	24.7104	-0.9108	0.7418	-0.6410	0.1107	-0.1626
9.74	0.5061	-9.8266	1.7555	0.0235	-0.0210	-0.0128	9.0722	24.7605	-0.9499	0.7419	-0.6410	0.1106	-0.1625
9.75	0.4962	-9.8024	1.7733	0.0190	-0.0121	-0.0065	9.0170	24.7206	-0.9908	0.7420	-0.6410	0.1105	-0.1624
9.76	0.4732	-9.8133	1.7594	0.0068	-0.0005	-0.0067	9.1056	24.8175	-0.8611	0.7420	-0.6410	0.1104	-0.1623
9.77	0.4398	-9.7968	1.7538	0.0179	0.0087	-0.0058	9.0608	24.6603	-1.0690	0.7421	-0.6410	0.1104	-0.1622
9.78	0.3919	-9.7658	1.7604	0.0243	0.0167	-0.0068	8.9560	25.1399	-0.9390	0.7421	-0.6409	0.1103	-0.1622
9.79	0.3579	-9.7692	1.7515	0.0198	0.0217	-0.0078	9.0202	24.8591	-0.9770	0.7422	-0.6409	0.1103	-0.1622
9.8	0.3512	-9.7680	1.7519	0.0190	0.0201	-0.0085	9.0192	24.9644	-1.1170	0.7421	-0.6408	0.1103	-0.1622
9.81	0.3456	-9.7446	1.7676	0.0217	0.0175	-0.0159	8.9888	25.1592	-1.0131	0.7423	-0.6408	0.1103	-0.1622
9.82	0.3464	-9.7486	1.7799	0.0187	0.0236	-0.0208	9.1417	24.9754	-0.9659	0.7423	-0.6408	0.1103	-0.1622
9.83	0.3454	-9.7520	1.7799	0.0195	0.0206	-0.0141	8.9131	24.8758	-0.9005	0.7423	-0.6407	0.1103	-0.1622
9.84	0.3403	-9.7550	1.7837	0.0218	0.0192	-0.0141	8.9502	24.8759	-0.9287	0.7424	-0.6406	0.1102	-0.1622
9.85	0.3305	-9.7524	1.7829	0.0147	0.0150	-0.0129	9.1060	24.9789	-0.7803	0.7425	-0.6405	0.1102	-0.1622
9.86	0.3304	-9.7612	1.7845	0.0080	0.0131	-0.0100	9.0621	24.9674	-0.8929	0.7426	-0.6404	0.1102	-0.1622
9.87	0.3441	-9.7627	1.7787	0.0093	0.0006	-0.0089	9.0753	24.8829	-1.0273	0.7426	-0.6403	0.1102	-0.1621
9.88	0.3323	-9.7196	1.7808	0.0110	0.0035	-0.0118	9.3824	24.7640	-0.8768	0.7427	-0.6403	0.1101	-0.1620
9.89	0.3547	-9.7511	1.7973	-0.0061	-0.0084	-0.0110	9.1938	24.6459	-0.9722	0.7427	-0.6403	0.1100	-0.1619
9.9	0.3792	-9.7853	1.7803	-0.0140	-0.0039	-0.0073	9.3072	24.8611	-1.0311	0.7427	-0.6404	0.1100	-0.1618
9.91	0.3727	-9.7869	1.7846	-0.0036	0.0006	-0.0059	9.2919	24.8761	-0.9856	0.7427	-0.6405	0.1099	-0.1617
9.92	0.3945	-9.7853	1.7796	-0.0054	-0.0040	-0.0056	9.0889	24.7516	-1.1691	0.7427	-0.6405	0.1099	-0.1616
9.93	0.3849	-9.7765	1.7726	-0.0023	0.0041	-0.0057	9.1250	24.8059	-0.9584	0.7427	-0.6405	0.1098	-0.1615
9.94	0.3875	-9.7953	1.7656	-0.0056	-0.0065	-0.0055	9.1407	24.7641	-0.8963	0.7426	-0.6405	0.1098	-0.1614
9.95	0.3853	-9.7964	1.7555	-0.0037	0.0055	-0.0060	8.9777	24.8080	-1.0309	0.7427	-0.6406	0.1097	-0.1613
9.96	0.3751	-9.7884	1.7556	-0.0006	0.0093	-0.0037	9.1522	24.8895	-1.1651	0.7426	-0.6406	0.1097	-0.1612
9.97	0.3728	-9.8055	1.7490	-0.0039	0.0111	-0.0051	9.1658	24.8579	-0.9235	0.7427	-0.6407	0.1097	-0.1612
9.98	0.3577	-9.8014	1.7412	0.0029	0.0194	-0.0055	9.1151	24.9596	-1.0152	0.7426	-0.6407	0.1097	-0.1611
9.99	0.3374	-9.7977	1.7447	0.0032	0.0159	-0.0057	8.9769	24.9751	-0.9870	0.7426	-0.6407	0.1097	-0.1611
10	0.3254	-9.8084	1.7358	-0.0016	0.0181	-0.0055	9.0131	25.1203	-0.9161	0.7426	-0.6408	0.1098	-0.1611
10.01	0.3139	-9.8086	1.7385	0.0084	0.0186	-0.0073	9.2719	25.1507	-1.1748	0.7425	-0.6407	0.1098	-0.1610
10.02	0.3190	-9.8099	1.7378	0.0142	0.0187	-0.0079	9.1703	25.1132	-0.9391	0.7427	-0.6408	0.1098	-0.1610
10.03	0.3248	-9.8055	1.7492	0.0199	0.0230	-0.0094	8.9840	25.1902	-0.8456	0.7426	-0.6407	0.1098	-0.1610
10.04	0.3147	-9.8005	1.7557	0.0204	0.0236	-0.0066	9.1352	25.2078	-0.9743	0.7427	-0.6407	0.1098	-0.1610
10.05	0.2927	-9.7842	1.7501	0.0214	0.0153	-0.0124	9.0296	24.9311	-0.8065	0.7427	-0.6406	0.1097	-0.1610
10.06	0.2798	-9.7657	1.7519	0.0148	0.0124	-0.0055	9.3700	24.8552	-0.8304	0.7428	-0.6406	0.1097	-0.1610
10.07	0.2771	-9.7516	1.7487	0.0070	0.0031	-0.0054	9.9419	24.9209	-1.0108	0.7428	-0.6406	0.1097	-0.1609
10.08	0.2722	-9.7479	1.7560	0.0122	-0.0069	-0.0059	9.7157	24.9848	-0.9347	0.7429	-0.6405	0.1096	-0.1607
10.09	0.2834	-9.7816	1.7645	0.0008	-0.0094	-0.0071	9.2243	24.8290	-1.1664	0.7430	-0.6405	0.1095	-0.1606
10.1	0.3168	-9.8436	1.7642	0.0001	-0.0114	-0.0094	9.2675	25.1752	-1.0640	0.7429	-0.6406	0.1094	-0.1605
10.11	0.3473	-9.8324	1.7629	0.0101	-0.0134	-0.0109	9.0635	24.8542	-0.8404	0.7430	-0.6406	0.1093	-0.1604
10.12	0.3704	-9.7821	1.7750	0.0182	-0.0065	-0.0102	9.0750	24.7109	-1.0321	0.7429	-0.6405	0.1092	-0.1603
10.13	0.3699	-9.7766	1.7720	0.0148	0.0044	-0.0131	9.1870	25.0077	-0.9868	0.7431	-0.6406	0.1091	-0.1603
10.14	0.3548	-9.7704	1.7614	0.0114	0.0128	-0.0133	8.9850	24.9012	-1.0255	0.7430	-0.6406	0.1091	-0.1602
10.15	0.3280	-9.7470	1.7513	0.0093	0.0136	-0.0063	9.0636	24.9732	-0.9806	0.7431	-0.6405	0.1091	-0.1602
10.16	0.2956	-9.7236	1.7449	-0.0016	0.0190	-0.0093	9.0913	24.9109	-1.1281	0.7431	-0.6405	0.1091	-0.1601
10.17	0.2775	-9.7308	1.7341	-0.0025	0.0080	-0.0122	8.9405	24.9914	-1.2015	0.7431	-0.6405	0.1091	-0.1601
10.18	0.2782	-9.7386	1.7274	-0.0031	-0.0033	-0.0232	9.0632	25.0116	-1.0025	0.7432	-0.6405	0.1090	-0.1600
10.19	0.2845	-9.7560	1.7330	-0.0019	-0.0073	-0.0232	9.0894	24.8142	-1.0144	0.7431	-0.6404	0.1088	-0.1600
10.2	0.3008	-9.7780	1.7361	-0.0022	-0.0087	-0.0207	8.9750	24.9905	-0.9969	0.7432	-0.6405	0.1087	-0.1599
10.21	0.3214	-9.7863	1.7403	-0.0028	-0.0108	-0.0257	8.8461	25.0211	-1.0397	0.7432	-0.6405	0.1086	-0.1598
10.22	0.3371	-9.7972	1.7416	-0.0024	-0.0108	-0.0172	9.0451	24.8311	-0.9206	0.7433	-0.6406	0.1085	-0.1598
10.23	0.3566	-9.8082	1.7411	0.0009	-0.0195	-0.0164	9.1896	24.9607	-0.9075	0.7432	-0.6406	0.1083	-0.1596
10.24	0.3643	-9.8167	1.7434	0.0061	-0.0274	-0.0129	9.1598	25.0474	-1.1589	0.7432	-0.6407	0.1081	-0.1595
10.25	0.3796	-9.7974	1.7380	0.0159	-0.0303	-0.0143	9.1758	25.0316	-0.8444	0.7433	-0.6407	0.1079	-0.1593
10.26	0.3820	-9.7721	1.7495	0.0146	-0.0282	-0.0132	9.1669	24.9782	-0.8179	0.7434	-0.6406	0.1078	-0.1592
10.27	0.3905	-9.8094	1.7660	0.0024	-0.0324	-0.0154	9.1530	24.8149	-0.8189	0.7435	-0.6407	0.1076	-0.1590
10.28	0.4192	-9.8518	1.7636	0.0085	-0.0370	-0.0144	9.1935	24.7824	-0.8258	0.7434	-0.6407	0.1073	-0.1588
10.29	0.4419	-9.8575	1.7857	0.0242	-0.0419	-0.0049	9.0917	24.9425	-0.8002	0.7436	-0.6408	0.1071	-0.1586
10.3	0.4637	-9.8220	1.7906	0.0218	-0.0321	-0.0088	9.0863	24.9599	-0.9176	0.7435	-0.6407	0.1069	-0.1584
10.31	0.4753	-9.7672	1.7993	0.0277	-0.0276	-0.0055	8.9401	24.9116	-1.1413	0.7437	-0.6407	0.1067	-0.1583
10.32	0.4714	-9.7466	1.8172	0.0254	-0.0180	-0.0060	8.9133	24.8381	-1.0751	0.7438	-0.6406	0.1066	-0.1581
10.33	0.4633	-9.7618	1.8046	0.0224	-0.0117	-0.0050	9.0987	24.8467	-1.1324	0.7438	-0.6406	0.1065	-0.1580
10.34	0.4469	-9.7484	1.8108	0.0256	-0.0010	-0.0038	9.0684	24.9641	-0.9715	0.7439	-0.6406	0.1064	-0.1579
10.35	0.4246	-9.7415	1.8106	0.0220	0.0040	-0.0055	8.9501	24.9057	-0.9146	0.7440	-0.6405	0.1063	-0.1578
10.36	0.4133	-9.7548	1.8027	0.0146	0.0167	-0.0061	9.0641	24.8508	-1.1202	0.7441	-0.6405	0.1064	-0.1578
10.37	0.4065	-9.7504	1.7981	0.0129	0.0209	-0.0097	9.0918	25.1752	-1.0242	0.7440	-0.6403	0.1064	-0.1578
10.38	0.3926	-9.7462	1.8007	0.0184	0.0212	-0.0088	8.9744	24.9523	-0.8817	0.7442	-0.6403	0.1064	-0.1578
10.39	0.3760	-9.7470	1.7968	0.0157	0.0277	-0.0125	8.9887	25.0133	-0.9775	0.7442	-0.6402	0.1064	-0.1578
10.4	0.3664	-9.7542	1.7985	0.0223	0.0305	-0.0167	9.0047	24.9658	-1.0182	0.7444	-0.6401	0.1064	-0.1578
10.41	0.3585	-9.7688	1.7960	0.0110	0.0299	-0.0135	8.8808	24.9382	-1.0020	0.7444	-0.6400	0.1065	-0.1578
10.42	0.3290	-9.7127	1.7850	0.0154	0.0280	-0.0158	8.9223	25.0479	-1.0133	0.7445	-0.6399	0.1065	-0.1579
10.43	0.3253	-9.7418	1.8180	0.0055	0.0159	-0.0065	9.0509	24.8562	-1.0083	0.7445	-0.6399	0.1065	-0.1578
10.44	0.3459	-9.8053	1.7988	-0.0041	0.0107	-0.0121	9.1722	24.8473	-0.9964	0.7444	-0.6399	0.1065	-0.1578
10.45	0.3379	-9.7810	1.7917	0.0143	0.0191	-0.0117	9.2644	24.8811	-1.1285	0.7445	-0.6399	0.1065	-0.1578
10.46	0.3547	-9.7669	1.8130	0.0024	0.0106	-0.0129	8.9481	24.7951	-1.2149	0.7445	-0.6399	0.1064	-0.1577
10.47	0.3686	-9.7906	1.7959	-0.0045	0.0074	-0.0156	8.8746	24.8106	-1.1609	0.7446	-0.6400	0.1064	-0.1577
10.48	0.3741	-9.8031	1.7930	-0.0029	0.0078	-0.0074	9.3669	24.9652	-1.2234	0.7445	-0.6399	0.1064	-0.1576
10.49	0.3844	-9.8021	1.7912	-0.0025	0.0058	-0.0064	9.0902	24.8195	-1.1251	0.7445	-0.6400	0.1063	-0.1576
10.5	0.3841	-9.8026	1.7901	-0.0023	0.0034	-0.0059	8.7182	25.0788	-0.9608	0.7445	-0.6401	0.1063	-0.1575
10.51	0.3829	-9.8081	1.7846	0.0009	0.0080	-0.0061	9.2018	25.1671	-1.1193	0.7444	-0.6401	0.1063	-0.1574
10.52	0.3720	-9.8019	1.7816	0.0081	0.0073	-0.0053	9.2657	24.8805	-1.0026	0.7445	-0.6402	0.1063	-0.1573
10.53	0.3618	-9.7893	1.7870	0.0073	0.0106	-0.0040	9.2199	24.8932	-0.9744	0.7444	-0.6401	0.1062	-0.1573
10.54	0.3578	-9.7915	1.7787	0.0033	0.0120	-0.0062	9.1522	24.9700	-1.1060	0.7445	-0.6402	0.1062	-0.1572
10.55	0.3451	-9.7845	1.7806	0.0121	0.0131	-0.0054	9.0896	24.9241	-1.0132	0.7444	-0.6401	0.1062	-0.1572
10.56	0.3309	-9.7756	1.7783	0.0146	0.0186	-0.0056	9.1781	25.1862	-0.7926	0.7445	-0.6401	0.1062	-0.1571
10.57	0.3226	-9.7732	1.7838	0.0145	0.0155	-0.0055	9.8652	25.0516	-0.8208	0.7445	-0.6401	0.1062	-0.1571
10.58	0.3262	-9.7778	1.7914	0.0253	0.0125	-0.0055	9.7371	25.0409	-0.8437	0.7446	-0.6400	0.1062	-0.1570
10.59	0.3353	-9.7794	1.8021	0.0220	0.0131	-0.0052	9.1815	25.2926	-1.0641	0.7446	-0.6400	0.1062	-0.1570
10.6	0.3319	-9.7818	1.8160	0.0244	0.0106	-0.0063	9.1961	25.5315	-1.2059	0.7447	-0.6399	0.1061	-0.1570
10.61	0.3147	-9.7777	1.8172	0.0273	0.0103	-0.0072	8.8698	25.1726	-1.1408	0.7448	-0.6399	0.1061	-0.1569
10.62	0.3010	-9.7658	1.8266	0.0226	0.0106	-0.0044	9.1476	24.9451	-1.0694	0.7448	-0.6397	0.1061	-0.1568
10.63	0.2908	-9.7399	1.8245	0.0241	0.0030	-0.0068	9.1968	24.6085	-1.1149	0.7450	-0.6397	0.1060	-0.1568
10.64	0.2848	-9.7098	1.8327	0.0218	0.0021	-0.0049	9.2523	24.6236	-1.0494	0.7451	-0.6396	0.1060	-0.1567
10.65	0.2888	-9.7349	1.8489	0.0140	-0.0111	-0.0078	9.3215	24.7862	-1.1956	0.7452	-0.6396	0.1059	-0.1566
10.66	0.3112	-9.7854	1.8508	0.0034	-0.0112	-0.0096	9.1823	24.7672	-1.1697	0.7452	-0.6396	0.1058	-0.1565
10.67	0.3415	-9.7942	1.8494	0.0166	-0.0118	-0.0062	9.3401	24.7784	-0.9690	0.7452	-0.6396	0.1057	-0.1563
10.68	0.3578	-9.7605	1.8578	0.0246	-0.0020	-0.0086	9.2231	24.7495	-1.1979	0.7453	-0.6395	0.1056	-0.1563
10.69	0.3580	-9.7299	1.8566	0.0172	0.0003	-0.0111	9.1911	24.8523	-1.1846	0.7453	-0.6394	0.1055	-0.1562
10.7	0.3465	-9.7294	1.8465	0.0135	0.0090	-0.0053	9.2266	24.9654	-1.0814	0.7455	-0.6394	0.1055	-0.1561
10.71	0.3266	-9.7105	1.8395	0.0091	0.0103	-0.0076	9.1663	24.9366	-1.1206	0.7455	-0.6393	0.1055	-0.1560
10.72	0.3057	-9.6899	1.8252	-0.0040	0.0227	-0.0111	9.0392	24.9599	-1.0218	0.7456	-0.6393	0.1055	-0.1560
10.73	0.2965	-9.6847	1.8185	-0.0059	0.0204	-0.0094	8.9944	24.9362	-0.9847	0.7455	-0.6393	0.1055	-0.1560
10.74	0.2970	-9.6925	1.8130	-0.0174	0.0200	-0.0177	9.1981	24.8471	-1.0182	0.7455	-0.6393	0.1056	-0.1560
10.75	0.3004	-9.7201	1.8055	-0.0291	0.0158	-0.0256	9.1241	25.0525	-1.1781	0.7454	-0.6394	0.1055	-0.1560
10.76	0.3097	-9.7581	1.8002	-0.0277	0.0022	-0.0199	8.9049	24.9529	-1.2121	0.7453	-0.6395	0.1055	-0.1559
10.77	0.3104	-9.7840	1.7938	-0.0285	0.0037	-0.0260	9.0593	24.9342	-1.0622	0.7453	-0.6397	0.1054	-0.1559
10.78	0.3121	-9.7991	1.7845	-0.0281	-0.0061	-0.0241	8.8860	25.2437	-1.1367	0.7452	-0.6398	0.1053	-0.1559
10.79	0.3153	-9.8149	1.7736	-0.0275	-0.0085	-0.0154	9.2480	25.0870	-1.0195	0.7451	-0.6400	0.1052	-0.1558
10.8	0.3249	-9.8249	1.7687	-0.0232	-0.0210	-0.0121	9.0011	24.9330	-0.9960	0.7449	-0.6401	0.1051	-0.1556
10.81	0.3306	-9.8245	1.7660	-0.0164	-0.0287	-0.0135	8.9417	24.8356	-1.0057	0.7449	-0.6403	0.1049	-0.1554
10.82	0.3330	-9.7865	1.7516	-0.0029	-0.0256	-0.0070	9.2357	24.5636	-1.1918	0.7449	-0.6403	0.1048	-0.1553
10.83	0.3472	-9.7868	1.7648	-0.0029	-0.0409	-0.0083	9.1723	24.6812	-1.0952	0.7449	-0.6404	0.1046	-0.1550
10.84	0.3792	-9.8336	1.7683	-0.0075	-0.0426	-0.0111	9.3415	24.7736	-1.0972	0.7449	-0.6405	0.1043	-0.1548
10.85	0.4141	-9.8640	1.7788	-0.0021	-0.0383	-0.0051	9.2334	24.8023	-1.1934	0.7449	-0.6406	0.1042	-0.1546
10.86	0.4471	-9.8409	1.7888	0.0074	-0.0356	-0.0102	9.0136	24.8984	-0.9937	0.7450	-0.6407	0.1040	-0.1544
10.87	0.4808	-9.7900	1.8008	0.0234	-0.0309	-0.0085	9.0353	24.7500	-0.9957	0.7449	-0.6406	0.1037	-0.1542
10.88	0.4798	-9.7594	1.8284	0.0229	-0.0207	-0.0053	9.1250	24.7844	-1.1144	0.7451	-0.6406	0.1036	-0.1541
10.89	0.4718	-9.7689	1.8233	0.0231	-0.0150	-0.0062	9.1127	24.9253	-1.0643	0.7451	-0.6406	0.1035	-0.1540
10.9	0.4533	-9.7689	1.8286	0.0221	0.0014	-0.0042	9.1380	24.9574	-1.1934	0.7452	-0.6406	0.1034	-0.1539
10.91	0.4129	-9.7544	1.8341	0.0137	0.0200	-0.0058	8.9182	24.9392	-1.1848	0.7452	-0.6405	0.1034	-0.1538
10.92	0.3876	-9.7500	1.8192	-0.0012	0.0189	-0.0047	9.0595	24.8218	-1.0729	0.7452	-0.6405	0.1034	-0.1538
10.93	0.3618	-9.7367	1.8210	-0.0008	0.0212	-0.0082	8.9875	24.9243	-1.0974	0.7452	-0.6406	0.1034	-0.1538
10.94	0.3408	-9.7350	1.8164	0.0010	0.0255	-0.0049	9.1518	24.9575	-1.1068	0.7451	-0.6405	0.1035	-0.1537
10.95	0.3260	-9.7439	1.8156	0.0020	0.0304	-0.0156	8.8590	24.9429	-0.9652	0.7453	-0.6406	0.1035	-0.1538
10.96	0.3055	-9.7406	1.8095	-0.0032	0.0274	-0.0145	8.8986	25.1018	-0.9325	0.7452	-0.6405	0.1036	-0.1538
10.97	0.2835	-9.7425	1.7985	-0.0017	0.0303	-0.0155	8.9441	25.1320	-1.0681	0.7453	-0.6405	0.1036	-0.1538
10.98	0.2679	-9.7419	1.8019	-0.0033	0.0214	-0.0167	9.0412	25.1252	-0.8584	0.7452	-0.6405	0.1036	-0.1538
10.99	0.2729	-9.7507	1.8005	-0.0038	0.0132	-0.0159	9.1254	24.8671	-1.1125	0.7452	-0.6405	0.1036	-0.1538
11	0.2836	-9.7549	1.7948	-0.0018	0.0016	-0.0215	9.1602	24.5160	-1.1821	0.7453	-0.6405	0.1035	-0.1538
11.01	0.3013	-9.7637	1.8021	-0.0065	-0.0095	-0.0153	9.2231	24.8041	-1.2684	0.7452	-0.6405	0.1034	-0.1537
11.02	0.3245	-9.7764	1.8054	-0.0041	-0.0057	-0.0182	9.1954	24.7259	-1.2679	0.7453	-0.6406	0.1033	-0.1536
11.03	0.3468	-9.7812	1.8040	-0.0058	-0.0110	-0.0179	9.3350	24.6119	-0.9987	0.7453	-0.6406	0.1032	-0.1535
11.04	0.3638	-9.7885	1.8038	-0.0016	-0.0137	-0.0105	9.0019	24.9198	-0.9892	0.7453	-0.6407	0.1031	-0.1534
11.05	0.3791	-9.7897	1.7982	-0.0160	-0.0164	-0.0103	9.1206	24.7293	-1.1077	0.7451	-0.6407	0.1030	-0.1532
11.06	0.3914	-9.7941	1.7940	-0.0110	-0.0173	-0.0078	9.5628	24.9192	-1.0677	0.7452	-0.6409	0.1029	-0.1531
11.07	0.3924	-9.7978	1.7914	-0.0106	-0.0116	-0.0070	9.9396	24.9504	-0.9730	0.7451	-0.6410	0.1028	-0.1530
11.08	0.3891	-9.8049	1.7949	-0.0161	-0.0174	-0.0076	9.6909	24.9596	-0.9641	0.7450	-0.6411	0.1027	-0.1528
11.09	0.3930	-9.8102	1.7896	-0.0040	-0.0147	-0.0055	9.2321	25.0569	-1.0563	0.7451	-0.6412	0.1026	-0.1527
11.1	0.3833	-9.8090	1.7913	0.0020	-0.0050	-0.0065	9.0697	25.2923	-1.0545	0.7450	-0.6412	0.1025	-0.1526
11.11	0.3770	-9.8007	1.7869	0.0010	-0.0085	-0.0047	8.8123	25.0660	-1.0183	0.7450	-0.6413	0.1024	-0.1524
11.12	0.3688	-9.7915	1.7915	0.0071	-0.0085	-0.0052	9.0405	25.0430	-1.0272	0.7450	-0.6412	0.1023	-0.1523
11.13	0.3606	-9.7776	1.7989	0.0114	-0.0038	-0.0045	8.9533	24.9342	-0.9231	0.7451	-0.6413	0.1022	-0.1522
11.14	0.3612	-9.7670	1.8090	0.0129	-0.0071	-0.0049	9.0517	24.8441	-0.9154	0.7451	-0.6413	0.1021	-0.1521
11.15	0.3733	-9.7582	1.8200	0.0206	-0.0040	-0.0043	9.0911	24.8851	-0.9960	0.7452	-0.6413	0.1021	-0.1520
11.16	0.3838	-9.7534	1.8398	0.0183	-0.0022	-0.0051	8.9797	24.8476	-1.1322	0.7452	-0.6412	0.1020	-0.1519
11.17	0.3736	-9.7434	1.8443	0.0181	-0.0058	-0.0056	8.9830	25.0248	-0.8582	0.7453	-0.6412	0.1019	-0.1518
11.18	0.3579	-9.7297	1.8484	0.0237	0.0029	-0.0047	9.0351	25.0165	-1.2330	0.7454	-0.6411	0.1019	-0.1517
11.19	0.3574	-9.7089	1.8494	0.0157	-0.0030	-0.0052	9.1789	24.8402	-1.0903	0.7454	-0.6410	0.1018	-0.1516
11.2	0.3549	-9.6873	1.8456	0.0061	-0.0024	-0.0070	9.1625	24.9082	-1.1404	0.7456	-0.6410	0.1018	-0.1515
11.21	0.3394	-9.6932	1.8516	-0.0026	-0.0027	-0.0074	9.1604	24.6562	-1.1881	0.7456	-0.6410	0.1017	-0.1514
11.22	0.3547	-9.7439	1.8548	-0.0238	0.0017	-0.0063	9.1709	24.6231	-1.2836	0.7456	-0.6411	0.1017	-0.1513
11.23	0.3733	-9.7861	1.8485	-0.0248	0.0031	-0.0075	9.1651	24.9161	-1.1983	0.7454	-0.6412	0.1016	-0.1512
11.24	0.4000	-9.7785	1.8476	-0.0126	0.0056	-0.0098	9.0560	24.8342	-1.1051	0.7454	-0.6413	0.1016	-0.1511
11.25	0.4006	-9.7533	1.8436	-0.0231	0.0131	-0.0107	9.0890	24.7755	-1.0619	0.7454	-0.6413	0.1016	-0.1511
11.26	0.3880	-9.7477	1.8231	-0.0228	0.0233	-0.0078	9.0642	25.0901	-1.0121	0.7452	-0.6414	0.1017	-0.1510
11.27	0.3610	-9.7371	1.8016	-0.0279	0.0291	-0.0067	9.1863	24.9082	-0.9190	0.7453	-0.6415	0.1018	-0.1510
11.28	0.3194	-9.7311	1.7857	-0.0273	0.0381	-0.0054	9.0051	24.9164	-0.7988	0.7451	-0.6415	0.1019	-0.1510
11.29	0.2862	-9.7297	1.7637	-0.0342	0.0281	-0.0076	8.9887	24.9281	-1.1189	0.7451	-0.6417	0.1020	-0.1510
11.3	0.2670	-9.7215	1.7504	-0.0347	0.0234	-0.0132	8.9825	24.7487	-1.1007	0.7449	-0.6417	0.1020	-0.1509
11.31	0.2548	-9.7369	1.7426	-0.0501	0.0261	-0.0156	9.0088	25.0213	-1.0219	0.7448	-0.6419	0.1021	-0.1510
11.32	0.2527	-9.7659	1.7270	-0.0514	0.0205	-0.0209	9.1142	25.0650	-0.9850	0.7447	-0.6421	0.1021	-0.1509
11.33	0.2608	-9.8059	1.7158	-0.0506	0.0018	-0.0221	8.9917	24.9722	-0.8852	0.7445	-0.6423	0.1020	-0.1509
11.34	0.2696	-9.8292	1.7076	-0.0433	-0.0069	-0.0224	8.9848	24.8549	-1.1619	0.7443	-0.6425	0.1020	-0.1508
11.35	0.2764	-9.8503	1.7010	-0.0335	-0.0103	-0.0153	9.0021	25.0041	-0.9288	0.7442	-0.6427	0.1018	-0.1507
11.36	0.2914	-9.8672	1.6941	-0.0349	-0.0171	-0.0118	8.9660	24.8847	-0.9859	0.7441	-0.6429	0.1017	-0.1506
11.37	0.3133	-9.8629	1.6897	-0.0270	-0.0251	-0.0098	9.0732	24.8531	-1.0504	0.7439	-0.6430	0.1016	-0.1504
11.38	0.3362	-9.8392	1.6816	-0.0263	-0.0308	-0.0083	9.2981	24.8961	-0.8785	0.7439	-0.6433	0.1015	-0.1502
11.39	0.3547	-9.8155	1.6926	-0.0164	-0.0285	-0.0157	9.0615	24.8204	-0.9954	0.7438	-0.6434	0.1013	-0.1500
11.4	0.3813	-9.8524	1.7062	-0.0133	-0.0404	-0.0103	9.1584	24.7542	-1.0191	0.7438	-0.6435	0.1011	-0.1498
11.41	0.4279	-9.8896	1.7148	-0.0048	-0.0392	-0.0121	9.1851	24.8849	-1.0286	0.7438	-0.6436	0.1009	-0.1496
11.42	0.4659	-9.8805	1.7333	0.0052	-0.0382	-0.0062	9.0238	24.9894	-0.9945	0.7438	-0.6437	0.1006	-0.1494
11.43	0.4869	-9.8271	1.7389	0.0223	-0.0298	-0.0048	8.9818	25.0914	-0.8845	0.7439	-0.6437	0.1005	-0.1492
11.44	0.5086	-9.7713	1.7635	0.0229	-0.0180	-0.0061	8.9889	24.9296	-1.0333	0.7439	-0.6436	0.1003	-0.1491
11.45	0.4921	-9.7784	1.7717	0.0181	-0.0037	-0.0006	9.0894	24.9995	-1.0126	0.7440	-0.6437	0.1003	-0.1490
11.46	0.4641	-9.7803	1.7632	0.0195	0.0126	-0.0005	9.0793	25.0309	-0.8649	0.7440	-0.6436	0.1002	-0.1489
11.47	0.4272	-9.7582	1.7755	0.0178	0.0187	0.0011	9.0784	24.9185	-0.8263	0.7441	-0.6436	0.1003	-0.1489
11.48	0.3840	-9.7608	1.7737	0.0015	0.0256	-0.0038	9.0867	25.0833	-0.8507	0.7440	-0.6435	0.1003	-0.1488
11.49	0.3540	-9.7573	1.7616	0.0046	0.0310	-0.0045	9.0600	24.8948	-0.9466	0.7441	-0.6436	0.1004	-0.1488
11.5	0.3266	-9.7403	1.7619	0.0000	0.0309	-0.0058	8.9473	25.0766	-0.9255	0.7440	-0.6436	0.1004	-0.1488
11.51	0.3052	-9.7337	1.7642	-0.0034	0.0346	-0.0110	9.0897	25.1890	-0.9505	0.7440	-0.6435	0.1005	-0.1489
11.52	0.2875	-9.7384	1.7572	-0.0033	0.0384	-0.0166	9.0722	24.8852	-0.8140	0.7441	-0.6436	0.1006	-0.1489
11.53	0.2750	-9.7377	1.7538	-0.0028	0.0355	-0.0128	9.0926	24.9174	-0.8601	0.7440	-0.6435	0.1006	-0.1490
11.54	0.2679	-9.7449	1.7510	-0.0018	0.0298	-0.0188	9.0559	24.9699	-1.0359	0.7440	-0.6436	0.1007	-0.1490
11.55	0.2717	-9.7547	1.7455	-0.0134	0.0123	-0.0237	9.1709	24.9643	-0.9323	0.7439	-0.6435	0.1006	-0.1490
11.56	0.2913	-9.7678	1.7399	-0.0190	0.0152	-0.0223	9.3928	25.0537	-0.7964	0.7439	-0.6436	0.1006	-0.1490
11.57	0.3134	-9.7759	1.7386	-0.0181	0.0033	-0.0147	9.6741	25.0768	-0.8901	0.7439	-0.6437	0.1006	-0.1489
11.58	0.3370	-9.7860	1.7411	-0.0229	-0.0082	-0.0185	9.6350	24.9293	-0.6559	0.7438	-0.6437	0.1005	-0.1489
11.59	0.3640	-9.7965	1.7380	-0.0140	-0.0097	-0.0132	9.3133	25.0165	-0.7641	0.7438	-0.6439	0.1004	-0.1488
11.6	0.3861	-9.8104	1.7390	-0.0182	-0.0133	-0.0054	9.2386	25.2202	-0.8797	0.7437	-0.6440	0.1003	-0.1486
11.61	0.4030	-9.8198	1.7288	-0.0145	-0.0080	-0.0062	9.1582	24.7919	-0.8299	0.7437	-0.6441	0.1002	-0.1485
11.62	0.4062	-9.8216	1.7297	-0.0189	-0.0081	-0.0063	9.2158	24.6708	-0.7304	0.7435	-0.6442	0.1001	-0.1483
11.63	0.4089	-9.8323	1.7156	-0.0242	-0.0025	-0.0051	8.9412	24.7018	-0.7647	0.7435	-0.6444	0.1001	-0.1482
11.64	0.4029	-9.8398	1.7146	-0.0188	-0.0036	-0.0045	8.9416	24.9541	-1.1752	0.7434	-0.6445	0.1000	-0.1481
11.65	0.3906	-9.8366	1.7064	-0.0081	0.0026	-0.0020	9.1164	24.9246	-0.9916	0.7434	-0.6446	0.1000	-0.1480
11.66	0.3739	-9.8247	1.7033	-0.0011	0.0058	-0.0051	9.0976	25.0564	-1.1467	0.7434	-0.6446	0.1000	-0.1479
