time	acceleration_x	acceleration_y	acceleration_z	gyroscope_x	gyroscope_y	gyroscope_z	magnetometer_x	magnetometer_y	magnetometer_z	quaternion_w	quaternion_x	quaternion_y	quaternion_z
0	-0.5616	-9.3273	-2.2367	0.0185	-0.0042	0.0132	-0.2043	22.8333	10.2903	0.4014	-0.4702	0.6287	-0.4718
0.01	-0.5619	-9.3341	-2.2439	0.0173	0.0010	0.0130	-0.3214	22.7845	10.2505	0.4014	-0.4702	0.6287	-0.4718
0.02	-0.5633	-9.3229	-2.2374	0.0195	-0.0003	0.0143	-0.2806	22.8949	10.0839	0.4014	-0.4702	0.6287	-0.4718
0.03	-0.5694	-9.3261	-2.2297	0.0184	-0.0011	0.0085	-0.2367	22.8115	10.1589	0.4014	-0.4701	0.6286	-0.4718
0.04	-0.5723	-9.3318	-2.2349	0.0155	-0.0007	0.0133	-0.3608	22.8268	10.3099	0.4014	-0.4702	0.6287	-0.4718
0.05	-0.5754	-9.3258	-2.2384	0.0169	-0.0015	0.0180	-0.2032	22.9135	10.1958	0.4014	-0.4702	0.6286	-0.4718
0.06	-0.5754	-9.3260	-2.2346	0.0138	-0.0013	0.0126	-0.3509	22.8997	10.1792	0.4015	-0.4702	0.6287	-0.4718
0.07	-0.5744	-9.3262	-2.2388	0.0065	-0.0024	0.0098	-0.3326	22.7935	10.1652	0.4014	-0.4702	0.6286	-0.4717
0.08	-0.5740	-9.3298	-2.2393	0.0177	-0.0044	0.0119	-0.1128	22.8499	10.2251	0.4014	-0.4702	0.6286	-0.4717
0.09	-0.5666	-9.3245	-2.2335	0.0133	-0.0030	0.0133	-0.2821	23.0917	10.2607	0.4015	-0.4703	0.6286	-0.4717
0.1	-0.5655	-9.3224	-2.2393	0.0107	0.0044	0.0073	-0.4521	22.9801	10.3411	0.4014	-0.4702	0.6286	-0.4717
0.11	-0.5683	-9.3311	-2.2425	0.0163	0.0024	0.0125	-0.2963	22.7696	10.3520	0.4014	-0.4703	0.6287	-0.4718
0.12	-0.5721	-9.3264	-2.2430	0.0145	0.0009	0.0128	-0.4074	22.7203	10.2284	0.4014	-0.4703	0.6286	-0.4717
0.13	-0.5751	-9.3235	-2.2437	0.0232	0.0056	0.0046	-0.3701	22.9752	10.2795	0.4014	-0.4703	0.6287	-0.4718
0.14	-0.5788	-9.3275	-2.2570	0.0190	0.0045	0.0081	-0.3221	22.9737	10.2452	0.4013	-0.4703	0.6286	-0.4718
0.15	-0.5753	-9.3319	-2.2702	0.0136	-0.0003	0.0084	-0.2391	22.8750	10.1698	0.4014	-0.4703	0.6286	-0.4718
0.16	-0.5688	-9.3247	-2.2696	0.0131	0.0004	0.0060	-0.1252	22.9114	10.3636	0.4013	-0.4703	0.6286	-0.4718
0.17	-0.5663	-9.3195	-2.2725	0.0109	-0.0069	0.0081	-0.3414	22.8837	10.2635	0.4013	-0.4704	0.6285	-0.4717
0.18	-0.5610	-9.3315	-2.2754	0.0141	-0.0067	0.0121	-0.4199	22.9075	10.3497	0.4014	-0.4704	0.6286	-0.4718
0.19	-0.5557	-9.3273	-2.2742	0.0131	-0.0007	0.0119	-0.4542	22.8795	10.3635	0.4013	-0.4704	0.6285	-0.4717
0.2	-0.5567	-9.3272	-2.2703	0.0156	0.0054	0.0090	-0.4921	22.9162	10.2956	0.4013	-0.4705	0.6286	-0.4718
0.21	-0.5544	-9.3236	-2.2680	0.0170	-0.0022	0.0172	-0.2182	22.7856	10.1507	0.4013	-0.4704	0.6285	-0.4717
0.22	-0.5555	-9.3256	-2.2678	0.0192	-0.0020	0.0175	-0.1844	22.9532	10.3176	0.4014	-0.4704	0.6286	-0.4717
0.23	-0.5556	-9.3254	-2.2656	0.0191	0.0001	0.0170	-0.3233	22.9442	10.3528	0.4014	-0.4704	0.6286	-0.4717
0.24	-0.5589	-9.3315	-2.2670	0.0152	-0.0018	0.0172	-0.3601	22.8579	10.3497	0.4014	-0.4704	0.6285	-0.4717
0.25	-0.5586	-9.3281	-2.2686	0.0130	0.0034	0.0166	-0.3143	22.9265	10.3483	0.4014	-0.4704	0.6286	-0.4717
0.26	-0.5634	-9.3266	-2.2645	0.0158	0.0003	0.0162	-0.2576	22.8552	10.0955	0.4014	-0.4704	0.6286	-0.4717
0.27	-0.5645	-9.3310	-2.2616	0.0169	-0.0020	0.0183	-0.4063	23.0116	10.1074	0.4014	-0.4704	0.6286	-0.4717
0.28	-0.5616	-9.3273	-2.2569	0.0179	0.0054	0.0153	-0.4339	23.1129	10.3728	0.4014	-0.4703	0.6286	-0.4717
0.29	-0.5611	-9.3266	-2.2506	0.0129	0.0043	0.0076	-0.4982	22.7961	10.2149	0.4014	-0.4703	0.6287	-0.4717
0.3	-0.5614	-9.3269	-2.2502	0.0190	0.0004	0.0127	-0.3852	22.7344	10.3378	0.4014	-0.4703	0.6286	-0.4717
0.31	-0.5542	-9.3313	-2.2521	0.0187	0.0049	0.0107	-0.4622	22.9378	10.3021	0.4014	-0.4703	0.6286	-0.4718
0.32	-0.5524	-9.3284	-2.2455	0.0191	-0.0032	0.0129	-0.2165	23.1164	10.1411	0.4014	-0.4703	0.6286	-0.4718
0.33	-0.5536	-9.3250	-2.2479	0.0150	0.0018	0.0149	-0.4059	23.0705	10.1966	0.4013	-0.4703	0.6286	-0.4718
0.34	-0.5568	-9.3264	-2.2490	0.0204	0.0042	0.0128	-0.4030	22.6149	10.3293	0.4014	-0.4703	0.6287	-0.4718
0.35	-0.5583	-9.3298	-2.2510	0.0238	0.0004	0.0122	-0.5245	23.0066	10.4186	0.4013	-0.4702	0.6286	-0.4718
0.36	-0.5608	-9.3286	-2.2412	0.0270	0.0013	0.0133	-0.3006	22.9550	10.5568	0.4014	-0.4702	0.6286	-0.4719
0.37	-0.5631	-9.3319	-2.2497	0.0099	0.0066	0.0176	-0.0017	23.0258	10.4706	0.4014	-0.4702	0.6286	-0.4718
0.38	-0.5620	-9.3293	-2.2467	0.0168	-0.0045	0.0151	-0.0890	23.1192	10.4571	0.4014	-0.4702	0.6287	-0.4719
0.39	-0.5555	-9.3247	-2.2494	0.0164	-0.0030	0.0144	-0.3514	23.0463	10.3890	0.4013	-0.4701	0.6286	-0.4718
0.4	-0.5569	-9.3224	-2.2473	0.0098	0.0002	0.0171	-0.4011	23.3941	10.1228	0.4013	-0.4701	0.6287	-0.4719
0.41	-0.5576	-9.3311	-2.2503	0.0120	-0.0028	0.0132	-0.4165	23.0118	10.1391	0.4013	-0.4701	0.6287	-0.4719
0.42	-0.5622	-9.3309	-2.2549	0.0207	-0.0021	0.0162	-0.3130	22.9305	10.3123	0.4013	-0.4701	0.6287	-0.4718
0.43	-0.5659	-9.3269	-2.2514	0.0103	-0.0013	0.0162	-0.4161	22.8590	10.1892	0.4014	-0.4701	0.6288	-0.4719
0.44	-0.5643	-9.3273	-2.2534	0.0128	-0.0005	0.0162	-0.6111	22.8758	10.0741	0.4013	-0.4701	0.6288	-0.4718
0.45	-0.5630	-9.3311	-2.2574	0.0179	-0.0053	0.0158	-0.4666	22.7916	10.2099	0.4014	-0.4701	0.6288	-0.4718
0.46	-0.5621	-9.3282	-2.2547	0.0225	-0.0008	0.0182	-0.4836	22.8431	10.1921	0.4014	-0.4700	0.6287	-0.4718
0.47	-0.5609	-9.3247	-2.2584	0.0164	0.0096	0.0154	-0.5611	22.9743	10.1210	0.4014	-0.4701	0.6288	-0.4718
0.48	-0.5633	-9.3280	-2.2557	0.0106	0.0099	0.0085	-0.5709	23.0742	10.2228	0.4013	-0.4701	0.6288	-0.4718
0.49	-0.5636	-9.3249	-2.2535	0.0140	0.0015	0.0171	-0.4918	22.8595	10.1859	0.4013	-0.4700	0.6288	-0.4718
0.5	-0.5672	-9.3261	-2.2587	0.0105	0.0057	0.0159	-0.3811	22.9535	10.3047	0.4013	-0.4701	0.6288	-0.4718
0.51	-0.5726	-9.3264	-2.2593	0.0172	0.0024	0.0098	-0.5150	23.0602	10.1625	0.4013	-0.4700	0.6288	-0.4718
0.52	-0.5776	-9.3238	-2.2574	0.0133	0.0009	0.0159	-0.4143	22.9978	10.2261	0.4013	-0.4701	0.6289	-0.4718
0.53	-0.5802	-9.3202	-2.2505	0.0186	-0.0007	0.0127	-0.3802	23.1184	10.1681	0.4013	-0.4700	0.6288	-0.4718
0.54	-0.5774	-9.3318	-2.2515	0.0181	-0.0017	0.0069	-0.4275	23.2054	10.3522	0.4013	-0.4700	0.6289	-0.4719
0.55	-0.5730	-9.3335	-2.2509	0.0100	-0.0003	0.0162	-0.4831	23.0372	10.1615	0.4012	-0.4700	0.6289	-0.4718
0.56	-0.5678	-9.3246	-2.2494	0.0176	-0.0005	0.0151	-0.2165	22.7399	9.9007	0.4013	-0.4700	0.6289	-0.4718
0.57	-0.5619	-9.3230	-2.2516	0.0147	-0.0010	0.0171	-0.2319	22.5735	10.0845	0.4013	-0.4700	0.6289	-0.4718
0.58	-0.5587	-9.3295	-2.2557	0.0170	-0.0012	0.0196	-0.3521	22.8058	10.1163	0.4013	-0.4700	0.6289	-0.4718
0.59	-0.5596	-9.3221	-2.2437	0.0096	0.0001	0.0175	-0.2527	23.0372	9.9621	0.4013	-0.4700	0.6289	-0.4718
0.6	-0.5562	-9.3244	-2.2409	0.0232	-0.0060	0.0156	-0.2161	22.7420	10.2389	0.4013	-0.4699	0.6289	-0.4717
0.61	-0.5551	-9.3274	-2.2542	0.0203	-0.0010	0.0152	-0.2512	22.9165	10.1784	0.4014	-0.4700	0.6289	-0.4718
0.62	-0.5565	-9.3272	-2.2597	0.0095	0.0008	0.0145	-0.3327	22.9314	10.1279	0.4013	-0.4699	0.6289	-0.4717
0.63	-0.5572	-9.3278	-2.2501	0.0190	0.0021	0.0129	-0.2954	22.7846	10.3217	0.4014	-0.4700	0.6289	-0.4718
0.64	-0.5612	-9.3288	-2.2547	0.0156	-0.0038	0.0212	-0.4001	22.7720	10.2135	0.4013	-0.4699	0.6289	-0.4717
0.65	-0.5648	-9.3345	-2.2636	0.0157	-0.0022	0.0138	-0.5066	22.8077	10.1692	0.4014	-0.4699	0.6289	-0.4717
0.66	-0.5671	-9.3212	-2.2609	0.0154	0.0017	0.0106	-0.4093	23.0671	9.9421	0.4014	-0.4700	0.6289	-0.4717
0.67	-0.5697	-9.3231	-2.2684	0.0113	0.0038	0.0083	-0.3720	22.9367	10.2231	0.4013	-0.4699	0.6289	-0.4717
0.68	-0.5632	-9.3300	-2.2765	0.0160	-0.0006	0.0128	-0.4968	22.9496	10.1898	0.4014	-0.4700	0.6290	-0.4718
0.69	-0.5682	-9.3255	-2.2740	0.0119	0.0030	0.0135	-0.5880	23.0639	10.2255	0.4013	-0.4700	0.6289	-0.4717
0.7	-0.5619	-9.3201	-2.2691	0.0129	0.0021	0.0083	-0.5017	22.9501	10.3372	0.4013	-0.4700	0.6290	-0.4718
0.71	-0.5550	-9.3257	-2.2699	0.0138	0.0007	0.0098	-0.3838	22.9342	10.1659	0.4013	-0.4700	0.6289	-0.4717
0.72	-0.5527	-9.3281	-2.2662	0.0104	0.0030	0.0104	-0.5062	23.0641	10.3545	0.4013	-0.4700	0.6289	-0.4717
0.73	-0.5540	-9.3232	-2.2546	0.0260	0.0004	0.0159	-0.4600	22.9485	10.1627	0.4013	-0.4700	0.6289	-0.4717
0.74	-0.5562	-9.3242	-2.2533	0.0249	-0.0012	0.0134	-0.5004	22.7338	10.1147	0.4013	-0.4700	0.6289	-0.4718
0.75	-0.5605	-9.3304	-2.2443	0.0141	0.0002	0.0159	-0.2762	22.9238	10.0144	0.4013	-0.4700	0.6289	-0.4718
0.76	-0.5639	-9.3279	-2.2433	0.0213	-0.0006	0.0159	-0.2220	22.9129	9.9445	0.4013	-0.4700	0.6289	-0.4718
0.77	-0.5630	-9.3242	-2.2324	0.0177	-0.0003	0.0128	-0.4182	22.6756	10.1172	0.4014	-0.4700	0.6289	-0.4718
0.78	-0.5678	-9.3286	-2.2305	0.0121	-0.0004	0.0166	-0.2956	22.7629	10.2084	0.4013	-0.4699	0.6288	-0.4717
0.79	-0.5726	-9.3251	-2.2317	0.0102	-0.0003	0.0189	-0.3434	23.0234	10.0988	0.4014	-0.4700	0.6289	-0.4717
0.8	-0.5712	-9.3197	-2.2202	0.0137	-0.0012	0.0111	-0.5264	22.8235	9.9791	0.4014	-0.4700	0.6289	-0.4717
0.81	-0.5696	-9.3272	-2.2342	0.0131	-0.0013	0.0146	-0.3847	22.8232	10.1365	0.4014	-0.4700	0.6289	-0.4717
0.82	-0.5745	-9.3289	-2.2386	0.0150	-0.0023	0.0202	-0.4009	22.9690	10.0908	0.4014	-0.4700	0.6289	-0.4716
0.83	-0.5702	-9.3207	-2.2306	0.0141	-0.0020	0.0180	-0.5017	22.9532	10.1614	0.4014	-0.4700	0.6289	-0.4716
0.84	-0.5652	-9.3249	-2.2406	0.0068	-0.0011	0.0163	-0.4500	23.0801	10.1873	0.4014	-0.4700	0.6290	-0.4716
0.85	-0.5628	-9.3268	-2.2465	0.0094	0.0024	0.0171	-0.5850	22.9092	10.3026	0.4014	-0.4700	0.6289	-0.4715
0.86	-0.5616	-9.3299	-2.2405	0.0128	0.0028	0.0114	-0.3549	23.0761	10.2598	0.4014	-0.4700	0.6290	-0.4716
0.87	-0.5718	-9.3260	-2.2364	0.0114	0.0018	0.0139	-0.0418	22.9687	10.3856	0.4014	-0.4700	0.6290	-0.4715
0.88	-0.5784	-9.3254	-2.2473	0.0193	0.0002	0.0141	-0.1659	22.9955	10.2520	0.4014	-0.4700	0.6291	-0.4716
0.89	-0.5823	-9.3229	-2.2521	0.0156	0.0016	0.0093	-0.3334	23.1081	10.1431	0.4013	-0.4700	0.6290	-0.4715
0.9	-0.5771	-9.3213	-2.2619	0.0143	0.0035	0.0127	-0.3983	23.6321	10.1826	0.4013	-0.4699	0.6291	-0.4716
0.91	-0.5714	-9.3302	-2.2710	0.0180	0.0070	0.0172	-0.4205	23.1017	10.2000	0.4013	-0.4699	0.6291	-0.4716
0.92	-0.5709	-9.3343	-2.2754	0.0165	-0.0045	0.0176	-0.5051	22.8264	10.0120	0.4013	-0.4699	0.6290	-0.4716
0.93	-0.5627	-9.3239	-2.2677	0.0104	-0.0067	0.0130	-0.5899	22.8982	10.1128	0.4013	-0.4699	0.6291	-0.4716
0.94	-0.5533	-9.3235	-2.2698	0.0106	-0.0064	0.0181	-0.3626	22.7552	10.0617	0.4013	-0.4699	0.6291	-0.4715
0.95	-0.5586	-9.3349	-2.2765	0.0090	-0.0001	0.0195	-0.2881	22.8614	10.2449	0.4014	-0.4700	0.6291	-0.4715
0.96	-0.5590	-9.3270	-2.2787	0.0127	-0.0009	0.0143	-0.2770	22.9857	10.1977	0.4013	-0.4699	0.6291	-0.4715
0.97	-0.5592	-9.3210	-2.2717	0.0211	-0.0023	0.0149	-0.2541	22.9284	10.1804	0.4014	-0.4699	0.6291	-0.4715
0.98	-0.5565	-9.3255	-2.2766	0.0165	0.0009	0.0177	-0.5030	22.9017	10.3330	0.4014	-0.4699	0.6291	-0.4715
0.99	-0.5545	-9.3333	-2.2772	0.0177	-0.0008	0.0154	-0.4016	23.0024	10.1004	0.4014	-0.4699	0.6291	-0.4715
1	-0.5566	-9.3229	-2.2673	0.0168	0.0034	0.0151	-0.1335	22.8480	9.9948	0.4014	-0.4699	0.6291	-0.4715
1.01	-0.5547	-9.3231	-2.2614	0.0162	-0.0011	0.0131	-0.3531	23.0465	10.2831	0.4014	-0.4699	0.6291	-0.4715
1.02	-0.5571	-9.3318	-2.2670	0.0125	-0.0020	0.0161	-0.5371	22.8081	10.2094	0.4014	-0.4699	0.6291	-0.4715
1.03	-0.5538	-9.3312	-2.2645	0.0160	-0.0024	0.0113	-0.4214	22.8588	10.1064	0.4014	-0.4699	0.6291	-0.4714
1.04	-0.5540	-9.3233	-2.2500	0.0253	0.0005	0.0085	-0.3488	23.0992	10.0637	0.4014	-0.4699	0.6291	-0.4715
1.05	-0.5504	-9.3290	-2.2535	0.0159	-0.0008	0.0099	-0.4583	22.8461	10.1655	0.4014	-0.4699	0.6291	-0.4715
1.06	-0.5487	-9.3303	-2.2539	0.0121	-0.0020	0.0118	-0.4237	22.7560	10.1327	0.4014	-0.4700	0.6291	-0.4715
1.07	-0.5504	-9.3252	-2.2465	0.0089	-0.0004	0.0131	-0.4215	23.0102	9.9871	0.4014	-0.4700	0.6291	-0.4715
1.08	-0.5507	-9.3283	-2.2361	0.0187	-0.0016	0.0132	-0.4512	22.7850	10.2640	0.4014	-0.4700	0.6291	-0.4715
1.09	-0.5508	-9.3330	-2.2449	0.0095	0.0038	0.0168	-0.3794	22.8803	10.2939	0.4014	-0.4700	0.6291	-0.4715
1.1	-0.5511	-9.3279	-2.2459	0.0133	0.0038	0.0169	-0.3340	22.8055	10.1857	0.4013	-0.4699	0.6291	-0.4714
1.11	-0.5570	-9.3228	-2.2415	0.0175	-0.0049	0.0224	-0.4508	22.7200	10.1994	0.4014	-0.4700	0.6292	-0.4714
1.12	-0.5577	-9.3284	-2.2495	0.0191	-0.0028	0.0198	-0.4354	22.8012	10.2985	0.4014	-0.4699	0.6291	-0.4714
1.13	-0.5624	-9.3331	-2.2479	0.0169	0.0002	0.0157	-0.3989	22.8579	10.2646	0.4015	-0.4700	0.6292	-0.4714
1.14	-0.5610	-9.3269	-2.2440	0.0181	-0.0006	0.0130	-0.1643	22.9660	10.2128	0.4014	-0.4699	0.6291	-0.4714
1.15	-0.5607	-9.3245	-2.2499	0.0157	0.0003	0.0129	-0.3121	22.9056	10.0200	0.4015	-0.4699	0.6291	-0.4714
1.16	-0.5664	-9.3314	-2.2524	0.0143	0.0007	0.0153	-0.3835	22.9468	10.0835	0.4015	-0.4699	0.6291	-0.4714
1.17	-0.5633	-9.3313	-2.2523	0.0249	0.0005	0.0153	-0.5406	22.8435	10.3367	0.4015	-0.4699	0.6291	-0.4714
1.18	-0.5667	-9.3266	-2.2537	0.0182	-0.0004	0.0165	-0.4779	22.9876	10.0163	0.4015	-0.4699	0.6292	-0.4714
1.19	-0.5657	-9.3287	-2.2536	0.0149	0.0014	0.0168	-0.4311	22.8380	10.0630	0.4015	-0.4699	0.6291	-0.4714
1.2	-0.5659	-9.3293	-2.2601	0.0161	-0.0014	0.0188	-0.3729	22.9252	10.3137	0.4016	-0.4699	0.6292	-0.4714
1.21	-0.5683	-9.3207	-2.2552	0.0217	0.0038	0.0140	-0.3335	22.7757	10.1624	0.4015	-0.4698	0.6291	-0.4714
1.22	-0.5654	-9.3301	-2.2578	0.0142	0.0060	0.0117	-0.5641	22.8140	10.3181	0.4015	-0.4698	0.6291	-0.4714
1.23	-0.5673	-9.3302	-2.2617	0.0118	0.0020	0.0137	-0.4681	22.9176	10.1957	0.4015	-0.4698	0.6291	-0.4714
1.24	-0.5655	-9.3235	-2.2582	0.0135	0.0106	0.0087	-0.3310	22.7959	10.1956	0.4015	-0.4698	0.6291	-0.4714
1.25	-0.5659	-9.3250	-2.2635	0.0165	0.0109	0.0134	-0.4648	22.8017	10.1666	0.4014	-0.4698	0.6292	-0.4715
1.26	-0.5671	-9.3270	-2.2619	0.0133	0.0110	0.0132	-0.2572	22.9165	10.0983	0.4014	-0.4698	0.6292	-0.4715
1.27	-0.5700	-9.3265	-2.2593	0.0126	0.0072	0.0100	-0.3717	22.8274	10.0416	0.4014	-0.4698	0.6292	-0.4715
1.28	-0.5685	-9.3276	-2.2620	0.0176	0.0061	0.0141	-0.5207	22.7062	9.9937	0.4013	-0.4697	0.6292	-0.4715
1.29	-0.5713	-9.3303	-2.2542	0.0127	-0.0008	0.0193	-0.4244	22.8185	10.1260	0.4014	-0.4698	0.6293	-0.4715
1.3	-0.5704	-9.3265	-2.2483	0.0115	0.0003	0.0208	-0.5224	22.9318	9.9280	0.4014	-0.4698	0.6292	-0.4714
1.31	-0.5670	-9.3291	-2.2485	0.0200	0.0027	0.0163	-0.2687	22.7287	10.1470	0.4014	-0.4698	0.6293	-0.4715
1.32	-0.5653	-9.3292	-2.2489	0.0214	-0.0039	0.0154	-0.2486	22.7052	9.9645	0.4014	-0.4697	0.6292	-0.4715
1.33	-0.5626	-9.3322	-2.2528	0.0099	-0.0013	0.0162	-0.1805	22.9660	9.9798	0.4014	-0.4697	0.6293	-0.4714
1.34	-0.5634	-9.3263	-2.2492	0.0123	0.0033	0.0174	-0.3534	22.7853	10.3377	0.4014	-0.4697	0.6293	-0.4714
1.35	-0.5622	-9.3267	-2.2460	0.0146	0.0044	0.0175	-0.3728	22.8745	10.1456	0.4014	-0.4697	0.6292	-0.4714
1.36	-0.5636	-9.3266	-2.2455	0.0128	0.0025	0.0143	-0.1516	23.0876	10.4056	0.4014	-0.4697	0.6294	-0.4714
1.37	-0.5544	-9.3275	-2.2468	0.0153	-0.0044	0.0196	0.0050	23.1832	10.6274	0.4014	-0.4697	0.6293	-0.4714
1.38	-0.5538	-9.3273	-2.2547	0.0142	-0.0045	0.0251	-0.1175	23.2318	10.5452	0.4014	-0.4697	0.6294	-0.4714
1.39	-0.5533	-9.3287	-2.2580	0.0142	-0.0073	0.0140	-0.1981	23.0679	10.2452	0.4014	-0.4696	0.6293	-0.4713
1.4	-0.5582	-9.3307	-2.2554	0.0143	-0.0027	0.0094	-0.2675	23.5340	10.1050	0.4014	-0.4697	0.6294	-0.4714
1.41	-0.5631	-9.3309	-2.2610	0.0160	0.0018	0.0132	-0.4811	23.0387	10.2700	0.4014	-0.4696	0.6294	-0.4714
1.42	-0.5681	-9.3282	-2.2654	0.0187	0.0029	0.0052	-0.4499	22.9213	10.2958	0.4013	-0.4696	0.6293	-0.4714
1.43	-0.5702	-9.3260	-2.2691	0.0186	0.0024	0.0113	-0.5839	22.9684	10.3719	0.4014	-0.4697	0.6294	-0.4715
1.44	-0.5691	-9.3217	-2.2667	0.0122	-0.0004	0.0111	-0.3746	22.9769	10.1162	0.4013	-0.4696	0.6294	-0.4714
1.45	-0.5617	-9.3215	-2.2704	0.0119	-0.0024	0.0180	-0.4444	22.8840	10.1188	0.4014	-0.4697	0.6294	-0.4714
1.46	-0.5621	-9.3277	-2.2717	0.0126	0.0027	0.0059	-0.5436	22.9436	10.1069	0.4013	-0.4696	0.6293	-0.4714
1.47	-0.5599	-9.3274	-2.2687	0.0127	0.0005	0.0137	-0.5814	23.1638	10.2216	0.4013	-0.4697	0.6294	-0.4714
1.48	-0.5619	-9.3249	-2.2582	0.0186	-0.0007	0.0166	-0.2964	23.0982	10.1773	0.4013	-0.4697	0.6294	-0.4714
1.49	-0.5674	-9.3272	-2.2586	0.0143	-0.0055	0.0192	-0.2026	22.8723	10.2521	0.4014	-0.4697	0.6294	-0.4714
1.5	-0.5672	-9.3242	-2.2588	0.0174	-0.0002	0.0167	-0.2155	22.9009	10.0567	0.4014	-0.4697	0.6294	-0.4714
1.51	-0.5692	-9.3251	-2.2519	0.0171	-0.0022	0.0175	-0.1455	22.7018	10.2332	0.4014	-0.4697	0.6294	-0.4713
1.52	-0.5679	-9.3264	-2.2515	0.0198	0.0026	0.0132	-0.2646	22.8356	10.2623	0.4014	-0.4697	0.6294	-0.4714
1.53	-0.5689	-9.3252	-2.2411	0.0201	-0.0031	0.0183	-0.2033	22.8909	10.1849	0.4014	-0.4696	0.6293	-0.4713
1.54	-0.5666	-9.3239	-2.2381	0.0279	-0.0034	0.0096	-0.2492	22.8933	10.3180	0.4015	-0.4697	0.6294	-0.4714
1.55	-0.5634	-9.3273	-2.2341	0.0189	-0.0001	0.0138	-0.3423	22.9584	10.1340	0.4015	-0.4696	0.6293	-0.4714
1.56	-0.5646	-9.3318	-2.2411	0.0228	-0.0001	0.0147	-0.2060	22.7856	10.0409	0.4015	-0.4696	0.6293	-0.4714
1.57	-0.5635	-9.3276	-2.2375	0.0144	0.0004	0.0110	-0.3200	22.7873	10.1051	0.4015	-0.4696	0.6293	-0.4714
1.58	-0.5669	-9.3229	-2.2314	0.0127	-0.0071	0.0128	-0.2781	22.9481	10.3934	0.4015	-0.4697	0.6293	-0.4714
1.59	-0.5611	-9.3298	-2.2350	0.0207	-0.0020	0.0109	-0.3985	22.8962	10.1273	0.4015	-0.4697	0.6293	-0.4714
1.6	-0.5620	-9.3309	-2.2384	0.0192	0.0017	0.0139	-0.5784	22.9258	10.1897	0.4015	-0.4696	0.6292	-0.4714
1.61	-0.5620	-9.3286	-2.2391	0.0176	0.0018	0.0081	-0.4410	23.0688	10.2958	0.4015	-0.4697	0.6293	-0.4715
1.62	-0.5632	-9.3250	-2.2362	0.0229	0.0048	0.0106	-0.3530	23.0286	10.1627	0.4015	-0.4697	0.6292	-0.4715
1.63	-0.5764	-9.3304	-2.2412	0.0145	0.0040	0.0137	-0.4637	23.0387	10.2343	0.4015	-0.4697	0.6293	-0.4715
1.64	-0.5798	-9.3275	-2.2459	0.0209	-0.0024	0.0149	-0.4650	23.1270	10.0895	0.4015	-0.4696	0.6292	-0.4715
1.65	-0.5820	-9.3206	-2.2514	0.0153	0.0029	0.0117	-0.3659	23.0103	10.1265	0.4015	-0.4697	0.6292	-0.4715
1.66	-0.5842	-9.3227	-2.2609	0.0184	-0.0006	0.0154	-0.3786	23.0765	10.1072	0.4015	-0.4696	0.6292	-0.4715
1.67	-0.5821	-9.3292	-2.2653	0.0143	0.0012	0.0178	-0.4481	22.8911	10.1338	0.4015	-0.4696	0.6292	-0.4715
1.68	-0.5725	-9.3283	-2.2657	0.0157	-0.0010	0.0109	-0.4860	22.7616	10.0099	0.4016	-0.4697	0.6293	-0.4715
1.69	-0.5586	-9.3278	-2.2697	0.0161	-0.0006	0.0097	-0.2949	22.8202	10.1994	0.4015	-0.4697	0.6292	-0.4715
1.7	-0.5523	-9.3270	-2.2690	0.0204	-0.0001	0.0180	-0.1760	22.7675	9.9934	0.4016	-0.4697	0.6292	-0.4715
1.71	-0.5448	-9.3260	-2.2710	0.0160	-0.0020	0.0082	-0.4024	22.9042	10.2453	0.4015	-0.4696	0.6291	-0.4715
1.72	-0.5509	-9.3249	-2.2676	0.0151	0.0028	0.0203	-0.3832	22.8356	10.2492	0.4016	-0.4697	0.6292	-0.4715
1.73	-0.5511	-9.3263	-2.2690	0.0185	0.0056	0.0159	-0.3799	22.8114	9.9407	0.4016	-0.4696	0.6292	-0.4715
1.74	-0.5513	-9.3256	-2.2726	0.0125	0.0003	0.0153	-0.3890	22.9635	10.1453	0.4015	-0.4696	0.6292	-0.4715
1.75	-0.5548	-9.3255	-2.2677	0.0171	0.0049	0.0165	-0.3744	23.0667	10.0184	0.4016	-0.4696	0.6292	-0.4715
1.76	-0.5560	-9.3246	-2.2684	0.0156	-0.0015	0.0136	-0.5221	22.8750	10.1486	0.4015	-0.4696	0.6292	-0.4715
1.77	-0.5577	-9.3253	-2.2625	0.0243	-0.0051	0.0093	-0.3579	22.7440	10.1092	0.4016	-0.4696	0.6292	-0.4715
1.78	-0.5572	-9.3309	-2.2688	0.0228	-0.0011	0.0135	-0.5567	22.8947	10.1855	0.4016	-0.4696	0.6291	-0.4715
1.79	-0.5610	-9.3309	-2.2593	0.0183	0.0018	0.0134	-0.5401	22.8522	10.2532	0.4016	-0.4696	0.6292	-0.4715
1.8	-0.5581	-9.3257	-2.2544	0.0149	0.0031	0.0135	-0.4428	22.9140	10.0894	0.4016	-0.4696	0.6292	-0.4715
1.81	-0.5539	-9.3256	-2.2434	0.0193	0.0080	0.0075	-0.4672	23.0298	10.0479	0.4016	-0.4696	0.6292	-0.4716
1.82	-0.5506	-9.3295	-2.2485	0.0241	-0.0025	0.0136	-0.5485	23.1469	10.3260	0.4015	-0.4695	0.6292	-0.4716
1.83	-0.5483	-9.3297	-2.2516	0.0128	0.0045	0.0125	-0.5534	22.9637	10.1571	0.4015	-0.4695	0.6292	-0.4716
1.84	-0.5480	-9.3263	-2.2451	0.0182	0.0029	0.0139	-0.5402	22.9971	10.2277	0.4015	-0.4695	0.6292	-0.4716
1.85	-0.5520	-9.3245	-2.2439	0.0252	0.0007	0.0106	-0.5646	23.0708	10.1694	0.4015	-0.4695	0.6291	-0.4716
1.86	-0.5507	-9.3296	-2.2497	0.0181	0.0020	0.0142	-0.3528	22.8223	10.3437	0.4016	-0.4695	0.6292	-0.4717
1.87	-0.5555	-9.3292	-2.2506	0.0184	-0.0048	0.0144	0.4073	22.8064	10.4014	0.4016	-0.4695	0.6291	-0.4717
1.88	-0.5637	-9.3262	-2.2472	0.0212	-0.0043	0.0141	0.2651	22.8136	10.4101	0.4016	-0.4696	0.6292	-0.4717
1.89	-0.5631	-9.3270	-2.2463	0.0200	0.0025	0.0142	-0.1930	22.9949	10.2275	0.4016	-0.4695	0.6291	-0.4717
1.9	-0.5675	-9.3338	-2.2500	0.0161	0.0043	0.0149	-0.1476	23.6452	10.0656	0.4016	-0.4695	0.6291	-0.4717
1.91	-0.5662	-9.3255	-2.2543	0.0111	0.0026	0.0124	-0.2404	23.0848	10.2569	0.4016	-0.4695	0.6292	-0.4717
1.92	-0.5670	-9.3278	-2.2570	0.0107	-0.0010	0.0122	-0.3423	22.7683	10.2580	0.4015	-0.4695	0.6291	-0.4717
1.93	-0.5646	-9.3267	-2.2517	0.0133	0.0010	0.0129	-0.3608	22.5814	10.3725	0.4016	-0.4695	0.6292	-0.4717
1.94	-0.5648	-9.3234	-2.2516	0.0167	0.0061	0.0126	-0.4502	22.8291	10.2094	0.4015	-0.4695	0.6292	-0.4717
1.95	-0.5653	-9.3230	-2.2534	0.0180	0.0086	0.0169	-0.4035	22.8044	10.3695	0.4015	-0.4695	0.6292	-0.4718
1.96	-0.5650	-9.3290	-2.2551	0.0119	-0.0008	0.0074	-0.5329	22.8496	10.2485	0.4015	-0.4694	0.6291	-0.4717
1.97	-0.5634	-9.3280	-2.2598	0.0088	0.0034	0.0098	-0.2787	22.9576	10.3931	0.4015	-0.4695	0.6292	-0.4717
1.98	-0.5623	-9.3192	-2.2528	0.0150	0.0072	0.0050	-0.3108	22.9967	10.2847	0.4014	-0.4695	0.6292	-0.4717
1.99	-0.5674	-9.3262	-2.2551	0.0124	0.0040	0.0082	-0.3710	22.9937	10.2623	0.4014	-0.4695	0.6292	-0.4717
2	-0.5648	-9.3297	-2.2559	0.0199	0.0015	0.0120	-0.3267	22.8318	10.1508	0.4014	-0.4695	0.6292	-0.4718
2.01	-0.5631	-9.3244	-2.2551	0.0181	0.0030	0.0052	-0.2420	22.7635	10.2235	0.4014	-0.4695	0.6292	-0.4718
2.02	-0.5602	-9.3198	-2.2539	0.0215	0.0075	0.0138	-0.3006	22.8417	10.2804	0.4014	-0.4695	0.6292	-0.4718
2.03	-0.5648	-9.3318	-2.2610	0.0181	0.0054	0.0061	-0.1497	22.8856	10.2736	0.4013	-0.4695	0.6291	-0.4718
2.04	-0.5668	-9.3296	-2.2550	0.0143	0.0005	0.0142	-0.4271	22.8589	10.1421	0.4013	-0.4696	0.6292	-0.4719
2.05	-0.5648	-9.3262	-2.2546	0.0170	0.0017	0.0192	-0.3537	22.7177	10.2478	0.4013	-0.4695	0.6292	-0.4719
2.06	-0.5627	-9.3236	-2.2596	0.0143	0.0115	0.0061	-0.1786	22.7319	10.2303	0.4013	-0.4695	0.6292	-0.4719
2.07	-0.5634	-9.3262	-2.2599	0.0147	0.0059	0.0121	-0.0830	23.0103	10.0516	0.4012	-0.4695	0.6292	-0.4719
2.08	-0.5665	-9.3219	-2.2599	0.0179	0.0035	0.0053	-0.2562	23.0038	10.2415	0.4012	-0.4695	0.6292	-0.4719
2.09	-0.5697	-9.3280	-2.2554	0.0237	0.0065	0.0136	-0.1988	22.7516	10.0830	0.4012	-0.4695	0.6292	-0.4720
2.1	-0.5653	-9.3315	-2.2563	0.0153	-0.0013	0.0134	-0.2557	22.8731	10.1815	0.4012	-0.4695	0.6291	-0.4719
2.11	-0.5631	-9.3214	-2.2473	0.0213	0.0019	0.0117	-0.2567	22.8688	10.1616	0.4013	-0.4695	0.6292	-0.4720
2.12	-0.5655	-9.3222	-2.2432	0.0208	-0.0012	0.0077	-0.4546	22.7234	10.2212	0.4012	-0.4695	0.6291	-0.4720
2.13	-0.5672	-9.3274	-2.2522	0.0097	-0.0020	0.0086	-0.4876	22.8935	10.2479	0.4012	-0.4696	0.6291	-0.4720
2.14	-0.5625	-9.3263	-2.2511	0.0185	-0.0045	0.0185	-0.3086	22.7393	9.9420	0.4012	-0.4695	0.6291	-0.4720
2.15	-0.5605	-9.3249	-2.2429	0.0191	0.0019	0.0148	-0.3715	23.0769	10.1788	0.4012	-0.4695	0.6291	-0.4720
2.16	-0.5554	-9.3252	-2.2498	0.0167	0.0023	0.0134	-0.4824	23.0332	10.2807	0.4012	-0.4695	0.6291	-0.4720
2.17	-0.5565	-9.3286	-2.2528	0.0191	0.0020	0.0056	-0.2540	22.8973	10.2575	0.4012	-0.4695	0.6291	-0.4720
2.18	-0.5541	-9.3268	-2.2542	0.0126	0.0027	0.0098	-0.2839	23.0764	10.2538	0.4012	-0.4696	0.6291	-0.4721
2.19	-0.5534	-9.3293	-2.2613	0.0167	0.0003	0.0179	-0.3511	22.8664	10.2968	0.4012	-0.4695	0.6291	-0.4720
2.2	-0.5647	-9.3309	-2.2630	0.0126	0.0046	0.0107	-0.4107	22.8818	10.3928	0.4012	-0.4695	0.6291	-0.4721
2.21	-0.5709	-9.3207	-2.2562	0.0136	0.0014	0.0124	-0.4385	22.8359	10.2320	0.4011	-0.4695	0.6291	-0.4720
2.22	-0.5742	-9.3210	-2.2567	0.0128	0.0035	0.0082	-0.2324	22.9115	10.2928	0.4011	-0.4696	0.6291	-0.4721
2.23	-0.5766	-9.3288	-2.2624	0.0176	0.0005	0.0170	-0.2883	22.9291	10.3651	0.4011	-0.4695	0.6291	-0.4721
2.24	-0.5708	-9.3294	-2.2719	0.0102	0.0027	0.0153	-0.2623	22.7845	10.0578	0.4011	-0.4695	0.6291	-0.4720
2.25	-0.5681	-9.3212	-2.2706	0.0101	0.0022	0.0177	-0.2603	22.7761	10.2178	0.4011	-0.4695	0.6292	-0.4720
2.26	-0.5612	-9.3260	-2.2705	0.0113	-0.0009	0.0120	-0.1688	22.8295	10.3890	0.4011	-0.4695	0.6292	-0.4720
2.27	-0.5575	-9.3276	-2.2779	0.0123	0.0010	0.0127	-0.1866	22.8445	10.1411	0.4011	-0.4696	0.6292	-0.4720
2.28	-0.5575	-9.3243	-2.2599	0.0101	-0.0016	0.0154	-0.2418	22.7338	10.2918	0.4011	-0.4695	0.6291	-0.4719
2.29	-0.5555	-9.3248	-2.2547	0.0105	0.0041	0.0126	-0.4988	23.0441	10.2359	0.4011	-0.4696	0.6292	-0.4720
2.3	-0.5593	-9.3309	-2.2535	0.0150	0.0004	0.0139	-0.3179	22.7933	10.1386	0.4011	-0.4696	0.6292	-0.4720
2.31	-0.5665	-9.3253	-2.2494	0.0140	0.0019	0.0135	-0.2326	22.6490	9.9985	0.4011	-0.4696	0.6292	-0.4720
2.32	-0.5702	-9.3210	-2.2420	0.0156	-0.0020	0.0112	-0.2719	22.9061	10.0184	0.4010	-0.4696	0.6292	-0.4719
2.33	-0.5730	-9.3287	-2.2433	0.0148	0.0038	0.0094	-0.2550	22.8657	10.0839	0.4010	-0.4696	0.6292	-0.4720
2.34	-0.5720	-9.3296	-2.2383	0.0151	0.0037	0.0065	-0.2737	23.0266	10.1487	0.4010	-0.4696	0.6292	-0.4720
2.35	-0.5714	-9.3188	-2.2355	0.0125	0.0070	0.0054	-0.5583	22.7412	10.1603	0.4009	-0.4696	0.6291	-0.4720
2.36	-0.5702	-9.3180	-2.2354	0.0109	0.0078	0.0102	-0.1776	22.8289	10.3104	0.4009	-0.4697	0.6292	-0.4720
2.37	-0.5673	-9.3302	-2.2348	0.0164	0.0018	0.0053	0.0005	22.9915	10.4831	0.4009	-0.4697	0.6292	-0.4720
2.38	-0.5633	-9.3240	-2.2372	0.0099	0.0047	0.0141	-0.0311	23.1536	10.4082	0.4009	-0.4697	0.6293	-0.4721
2.39	-0.5582	-9.3200	-2.2363	0.0162	0.0068	0.0142	-0.2541	23.2997	10.1625	0.4008	-0.4696	0.6292	-0.4720
2.4	-0.5575	-9.3293	-2.2441	0.0174	0.0012	0.0137	-0.4224	23.5549	10.2546	0.4008	-0.4695	0.6293	-0.4721
2.41	-0.5632	-9.3290	-2.2455	0.0158	-0.0001	0.0153	-0.4078	23.1810	10.4193	0.4007	-0.4695	0.6293	-0.4721
2.42	-0.5682	-9.3192	-2.2370	0.0197	-0.0010	0.0126	-0.3187	22.8242	10.3070	0.4007	-0.4695	0.6293	-0.4721
2.43	-0.5763	-9.3277	-2.2386	0.0164	-0.0014	0.0107	-0.3224	22.9030	10.0755	0.4008	-0.4696	0.6293	-0.4722
2.44	-0.5880	-9.3302	-2.2494	0.0152	-0.0051	0.0136	-0.1334	22.7322	10.0433	0.4008	-0.4695	0.6293	-0.4721
2.45	-0.5905	-9.3230	-2.2487	0.0185	-0.0011	0.0177	-0.2668	22.8975	10.2217	0.4008	-0.4696	0.6293	-0.4721
2.46	-0.5847	-9.3237	-2.2609	0.0136	0.0008	0.0167	-0.3402	22.7744	10.1995	0.4008	-0.4695	0.6292	-0.4721
2.47	-0.5736	-9.3327	-2.2725	0.0210	-0.0025	0.0193	-0.1978	22.8138	10.2208	0.4008	-0.4695	0.6293	-0.4721
2.48	-0.5681	-9.3305	-2.2696	0.0165	-0.0016	0.0101	-0.2723	22.7473	10.1946	0.4008	-0.4695	0.6293	-0.4721
2.49	-0.5523	-9.3200	-2.2646	0.0163	-0.0045	0.0147	-0.4172	22.6739	10.2728	0.4008	-0.4695	0.6293	-0.4721
2.5	-0.5444	-9.3280	-2.2662	0.0178	0.0009	0.0125	-0.2852	22.9124	10.4156	0.4009	-0.4695	0.6293	-0.4721
2.51	-0.5451	-9.3333	-2.2724	0.0132	-0.0019	0.0145	-0.3704	22.8551	10.2063	0.4009	-0.4695	0.6293	-0.4721
2.52	-0.5406	-9.3233	-2.2729	0.0186	-0.0007	0.0157	-0.5315	22.9154	10.2553	0.4009	-0.4696	0.6293	-0.4721
2.53	-0.5458	-9.3231	-2.2670	0.0158	0.0013	0.0148	-0.3604	23.0651	10.3760	0.4008	-0.4695	0.6292	-0.4720
2.54	-0.5489	-9.3329	-2.2740	0.0148	-0.0019	0.0188	-0.5274	23.0058	10.2980	0.4009	-0.4695	0.6293	-0.4721
2.55	-0.5550	-9.3249	-2.2704	0.0141	0.0020	0.0116	-0.5510	22.9531	10.0661	0.4009	-0.4695	0.6293	-0.4721
2.56	-0.5628	-9.3258	-2.2696	0.0209	0.0005	0.0141	-0.5648	23.1421	10.0585	0.4009	-0.4695	0.6293	-0.4721
2.57	-0.5672	-9.3296	-2.2719	0.0170	0.0011	0.0166	-0.4626	23.0990	10.2970	0.4009	-0.4695	0.6293	-0.4721
2.58	-0.5725	-9.3284	-2.2699	0.0125	0.0098	0.0122	-0.2637	23.1607	10.2046	0.4008	-0.4694	0.6293	-0.4721
2.59	-0.5640	-9.3232	-2.2620	0.0142	-0.0017	0.0170	-0.5487	23.0468	10.3163	0.4008	-0.4694	0.6294	-0.4721
2.6	-0.5616	-9.3279	-2.2571	0.0202	0.0057	0.0163	-0.5542	23.0512	10.2650	0.4008	-0.4694	0.6293	-0.4721
2.61	-0.5619	-9.3346	-2.2596	0.0261	-0.0039	0.0188	-0.5768	22.9068	10.3909	0.4009	-0.4694	0.6294	-0.4722
2.62	-0.5515	-9.3269	-2.2551	0.0191	-0.0021	0.0152	-0.2278	22.6316	10.1041	0.4009	-0.4694	0.6293	-0.4722
2.63	-0.5477	-9.3227	-2.2471	0.0134	-0.0027	0.0166	-0.1139	22.8254	10.1604	0.4009	-0.4694	0.6294	-0.4722
2.64	-0.5481	-9.3296	-2.2513	0.0217	-0.0010	0.0148	-0.2332	22.6935	10.0067	0.4009	-0.4693	0.6293	-0.4721
2.65	-0.5500	-9.3311	-2.2498	0.0141	-0.0006	0.0147	-0.4725	22.8314	10.1873	0.4009	-0.4694	0.6293	-0.4721
2.66	-0.5509	-9.3253	-2.2426	0.0144	0.0059	0.0159	-0.4041	22.9036	10.1823	0.4009	-0.4694	0.6293	-0.4721
2.67	-0.5604	-9.3270	-2.2480	0.0117	-0.0006	0.0162	-0.1884	22.7918	10.3141	0.4009	-0.4693	0.6293	-0.4721
2.68	-0.5655	-9.3288	-2.2488	0.0224	0.0020	0.0170	-0.4425	22.7109	10.2712	0.4009	-0.4694	0.6294	-0.4722
2.69	-0.5688	-9.3214	-2.2413	0.0225	-0.0011	0.0175	-0.4630	22.6871	10.0954	0.4009	-0.4693	0.6293	-0.4721
2.7	-0.5741	-9.3171	-2.2431	0.0160	-0.0031	0.0178	-0.2925	22.7807	10.3254	0.4010	-0.4693	0.6294	-0.4722
2.71	-0.5724	-9.3306	-2.2477	0.0213	0.0001	0.0146	-0.4015	22.7839	10.1921	0.4010	-0.4693	0.6293	-0.4721
2.72	-0.5706	-9.3287	-2.2509	0.0177	0.0007	0.0134	-0.5792	22.9168	10.3058	0.4010	-0.4693	0.6293	-0.4722
2.73	-0.5658	-9.3186	-2.2524	0.0123	-0.0035	0.0171	-0.5587	23.1157	10.1150	0.4010	-0.4693	0.6293	-0.4721
2.74	-0.5626	-9.3284	-2.2485	0.0133	0.0027	0.0118	-0.4901	23.1353	10.0929	0.4010	-0.4693	0.6293	-0.4721
2.75	-0.5658	-9.3278	-2.2557	0.0171	0.0029	0.0163	-0.3764	23.0117	10.2206	0.4010	-0.4693	0.6294	-0.4721
2.76	-0.5593	-9.3205	-2.2459	0.0122	0.0056	0.0131	-0.5186	22.9466	10.3105	0.4010	-0.4693	0.6293	-0.4721
2.77	-0.5626	-9.3330	-2.2541	0.0190	0.0016	0.0152	-0.4106	22.9440	10.2719	0.4010	-0.4693	0.6294	-0.4722
2.78	-0.5587	-9.3299	-2.2550	0.0175	0.0021	0.0160	-0.3741	23.0446	10.3076	0.4009	-0.4692	0.6293	-0.4721
2.79	-0.5621	-9.3252	-2.2518	0.0138	0.0037	0.0141	-0.5243	23.0179	10.2462	0.4010	-0.4693	0.6294	-0.4722
2.8	-0.5645	-9.3226	-2.2558	0.0191	-0.0054	0.0192	-0.5378	22.9180	10.3613	0.4010	-0.4693	0.6294	-0.4721
2.81	-0.5672	-9.3322	-2.2580	0.0179	-0.0024	0.0126	-0.1391	22.7665	10.0527	0.4010	-0.4693	0.6294	-0.4721
2.82	-0.5678	-9.3270	-2.2591	0.0185	-0.0012	0.0161	-0.1496	23.0114	10.0257	0.4010	-0.4693	0.6293	-0.4721
2.83	-0.5711	-9.3206	-2.2530	0.0238	0.0010	0.0147	-0.2669	22.8826	10.2445	0.4010	-0.4692	0.6293	-0.4721
2.84	-0.5744	-9.3270	-2.2625	0.0193	-0.0033	0.0187	-0.3737	22.9712	10.0310	0.4011	-0.4692	0.6293	-0.4722
2.85	-0.5658	-9.3215	-2.2603	0.0134	0.0068	0.0145	-0.3594	23.0871	10.3053	0.4010	-0.4692	0.6293	-0.4721
2.86	-0.5642	-9.3216	-2.2605	0.0198	0.0030	0.0165	0.0135	22.8317	10.3937	0.4011	-0.4692	0.6294	-0.4722
2.87	-0.5578	-9.3287	-2.2600	0.0154	-0.0068	0.0145	0.0832	22.9140	10.5515	0.4011	-0.4692	0.6293	-0.4721
2.88	-0.5534	-9.3325	-2.2691	0.0133	0.0039	0.0176	0.1026	23.0180	10.5289	0.4011	-0.4692	0.6294	-0.4722
2.89	-0.5569	-9.3227	-2.2602	0.0146	0.0004	0.0165	-0.0716	22.9941	10.3374	0.4011	-0.4692	0.6293	-0.4721
2.9	-0.5598	-9.3206	-2.2582	0.0152	0.0062	0.0165	-0.3200	23.5977	10.1469	0.4010	-0.4691	0.6294	-0.4722
2.91	-0.5651	-9.3298	-2.2615	0.0155	0.0081	0.0151	-0.2749	23.0652	10.2034	0.4010	-0.4691	0.6295	-0.4722
2.92	-0.5637	-9.3264	-2.2607	0.0158	0.0045	0.0131	-0.5331	22.6963	10.1052	0.4010	-0.4691	0.6294	-0.4722
2.93	-0.5688	-9.3199	-2.2599	0.0157	0.0119	0.0130	-0.4144	23.0319	10.0844	0.4010	-0.4691	0.6295	-0.4723
2.94	-0.5714	-9.3212	-2.2590	0.0143	0.0048	0.0166	-0.3102	22.9068	10.1230	0.4009	-0.4690	0.6295	-0.4722
2.95	-0.5800	-9.3297	-2.2599	0.0108	0.0015	0.0146	-0.4443	22.8136	10.2734	0.4009	-0.4691	0.6295	-0.4722
2.96	-0.5771	-9.3267	-2.2573	0.0143	0.0053	0.0127	-0.3581	22.7840	10.2764	0.4009	-0.4690	0.6295	-0.4722
2.97	-0.5727	-9.3249	-2.2540	0.0131	-0.0010	0.0083	-0.2602	22.9094	10.2766	0.4009	-0.4691	0.6295	-0.4722
2.98	-0.5721	-9.3311	-2.2449	0.0131	-0.0013	0.0157	-0.4333	23.0242	10.4403	0.4009	-0.4691	0.6295	-0.4722
2.99	-0.5692	-9.3247	-2.2494	0.0113	-0.0055	0.0155	-0.4636	23.0026	10.3987	0.4008	-0.4690	0.6295	-0.4722
3	-0.5692	-9.3190	-2.2421	0.0130	-0.0001	0.0076	-0.2414	22.7387	10.1444	0.4009	-0.4691	0.6296	-0.4722
3.01	-0.5680	-9.3279	-2.2461	0.0100	-0.0019	0.0153	-0.1768	22.9932	10.2459	0.4008	-0.4691	0.6295	-0.4722
3.02	-0.5589	-9.3322	-2.2500	0.0097	0.0008	0.0143	-0.2386	22.8354	10.2580	0.4008	-0.4691	0.6296	-0.4722
3.03	-0.5544	-9.3225	-2.2396	0.0122	-0.0005	0.0152	-0.3796	22.7729	10.0501	0.4008	-0.4691	0.6295	-0.4721
3.04	-0.5512	-9.3189	-2.2476	0.0174	0.0009	0.0174	-0.3183	22.9014	10.2558	0.4008	-0.4691	0.6296	-0.4721
3.05	-0.5495	-9.3307	-2.2558	0.0138	0.0091	0.0165	-0.4276	22.8765	10.2266	0.4008	-0.4691	0.6296	-0.4721
3.06	-0.5533	-9.3281	-2.2484	0.0141	0.0002	0.0124	-0.3638	22.8641	10.1698	0.4008	-0.4691	0.6296	-0.4721
3.07	-0.5589	-9.3211	-2.2539	0.0124	0.0054	0.0125	-0.3634	22.9872	10.1836	0.4008	-0.4691	0.6296	-0.4721
3.08	-0.5678	-9.3311	-2.2580	0.0146	-0.0061	0.0186	-0.3167	22.9234	10.1937	0.4008	-0.4691	0.6296	-0.4721
3.09	-0.5725	-9.3293	-2.2645	0.0170	0.0096	0.0160	-0.3165	23.0882	10.3448	0.4008	-0.4691	0.6297	-0.4721
3.1	-0.5721	-9.3213	-2.2615	0.0126	0.0079	0.0137	-0.3774	23.0989	10.3879	0.4007	-0.4690	0.6296	-0.4721
3.11	-0.5713	-9.3283	-2.2732	0.0106	-0.0004	0.0095	-0.3503	22.7012	10.1220	0.4007	-0.4691	0.6297	-0.4722
3.12	-0.5664	-9.3253	-2.2710	0.0127	0.0022	0.0090	-0.4745	22.9005	10.1324	0.4007	-0.4691	0.6297	-0.4721
3.13	-0.5596	-9.3211	-2.2604	0.0145	0.0056	0.0143	-0.3832	22.9997	10.1994	0.4007	-0.4691	0.6298	-0.4722
3.14	-0.5551	-9.3256	-2.2647	0.0127	-0.0002	0.0093	-0.2361	22.8528	10.1753	0.4006	-0.4691	0.6297	-0.4721
3.15	-0.5590	-9.3272	-2.2613	0.0152	0.0053	0.0087	-0.4411	23.0165	10.4207	0.4006	-0.4691	0.6297	-0.4722
3.16	-0.5618	-9.3238	-2.2556	0.0163	0.0002	0.0141	-0.5431	22.8776	10.4430	0.4006	-0.4691	0.6297	-0.4722
3.17	-0.5597	-9.3203	-2.2487	0.0180	-0.0052	0.0265	-0.5233	23.2303	10.1299	0.4006	-0.4690	0.6297	-0.4721
3.18	-0.5645	-9.3287	-2.2518	0.0123	0.0050	0.0110	-0.4114	23.0893	10.3289	0.4006	-0.4690	0.6298	-0.4722
3.19	-0.5617	-9.3277	-2.2487	0.0107	0.0036	0.0136	-0.1007	22.8134	10.0281	0.4005	-0.4690	0.6298	-0.4722
3.2	-0.5607	-9.3269	-2.2423	0.0142	-0.0010	0.0195	-0.3054	22.9337	10.1769	0.4006	-0.4690	0.6299	-0.4722
3.21	-0.5643	-9.3268	-2.2374	0.0209	-0.0042	0.0153	-0.1793	22.7621	10.4210	0.4006	-0.4689	0.6298	-0.4721
3.22	-0.5658	-9.3269	-2.2406	0.0190	-0.0013	0.0151	-0.3212	22.8287	10.2214	0.4006	-0.4690	0.6298	-0.4722
3.23	-0.5695	-9.3203	-2.2363	0.0144	0.0003	0.0145	-0.3633	23.0634	10.3114	0.4006	-0.4690	0.6298	-0.4722
3.24	-0.5755	-9.3250	-2.2377	0.0153	-0.0039	0.0205	-0.3530	22.9748	10.1823	0.4006	-0.4690	0.6298	-0.4721
3.25	-0.5716	-9.3222	-2.2438	0.0145	0.0020	0.0148	-0.3431	22.8655	10.0844	0.4006	-0.4690	0.6298	-0.4721
3.26	-0.5722	-9.3208	-2.2425	0.0123	-0.0027	0.0168	-0.3722	22.8856	10.2496	0.4006	-0.4690	0.6298	-0.4721
3.27	-0.5658	-9.3234	-2.2427	0.0148	0.0013	0.0159	-0.3084	22.8726	10.2863	0.4006	-0.4690	0.6298	-0.4721
3.28	-0.5650	-9.3270	-2.2508	0.0213	0.0017	0.0152	-0.5543	22.8749	10.2696	0.4006	-0.4689	0.6298	-0.4721
3.29	-0.5642	-9.3281	-2.2486	0.0140	0.0078	0.0102	-0.3740	22.8779	10.2737	0.4006	-0.4690	0.6298	-0.4722
3.3	-0.5736	-9.3233	-2.2529	0.0106	0.0099	0.0088	-0.2748	22.8831	10.2762	0.4006	-0.4690	0.6298	-0.4721
3.31	-0.5795	-9.3207	-2.2537	0.0149	0.0065	0.0119	-0.2061	22.8770	10.2685	0.4005	-0.4690	0.6299	-0.4722
3.32	-0.5808	-9.3283	-2.2582	0.0164	0.0088	0.0140	-0.2795	22.8887	10.2825	0.4005	-0.4689	0.6298	-0.4722
3.33	-0.5826	-9.3291	-2.2720	0.0167	0.0017	0.0146	-0.6012	22.8545	10.2507	0.4005	-0.4689	0.6299	-0.4722
3.34	-0.5742	-9.3246	-2.2735	0.0183	0.0080	0.0087	-0.4281	22.7360	10.3372	0.4005	-0.4689	0.6299	-0.4722
3.35	-0.5608	-9.3251	-2.2751	0.0159	0.0067	0.0149	-0.4548	22.9677	10.3689	0.4004	-0.4689	0.6298	-0.4722
3.36	-0.5547	-9.3249	-2.2704	0.0176	0.0032	0.0146	-0.3448	22.9647	10.3440	0.4005	-0.4689	0.6299	-0.4723
3.37	-0.5474	-9.3245	-2.2674	0.0253	0.0023	0.0120	0.0440	22.8338	10.5252	0.4005	-0.4689	0.6298	-0.4723
3.38	-0.5438	-9.3309	-2.2659	0.0285	0.0048	0.0196	0.1391	22.9650	10.3112	0.4005	-0.4689	0.6299	-0.4724
3.39	-0.5416	-9.3289	-2.2682	0.0241	0.0013	0.0166	-0.1469	23.2040	10.1717	0.4005	-0.4688	0.6298	-0.4723
3.4	-0.5431	-9.3222	-2.2667	0.0151	0.0085	0.0172	-0.4358	23.4531	10.1848	0.4005	-0.4687	0.6299	-0.4724
3.41	-0.5446	-9.3297	-2.2693	0.0240	0.0034	0.0161	-0.3610	22.9870	10.4135	0.4004	-0.4687	0.6299	-0.4724
3.42	-0.5541	-9.3269	-2.2631	0.0215	-0.0035	0.0154	-0.4651	22.7379	10.4239	0.4005	-0.4686	0.6299	-0.4724
3.43	-0.5499	-9.3243	-2.2672	0.0171	0.0026	0.0166	-0.4778	22.9244	10.0341	0.4005	-0.4687	0.6300	-0.4725
3.44	-0.5537	-9.3234	-2.2652	0.0187	0.0050	0.0179	-0.4211	22.9558	10.1390	0.4005	-0.4686	0.6299	-0.4724
3.45	-0.5574	-9.3262	-2.2579	0.0248	-0.0020	0.0211	-0.3540	22.9680	10.0246	0.4005	-0.4686	0.6299	-0.4725
3.46	-0.5550	-9.3238	-2.2571	0.0260	0.0029	0.0103	-0.4492	22.8706	10.0702	0.4005	-0.4685	0.6298	-0.4725
3.47	-0.5551	-9.3283	-2.2510	0.0208	0.0088	0.0083	-0.6060	22.8645	10.3922	0.4005	-0.4686	0.6299	-0.4726
3.48	-0.5547	-9.3322	-2.2516	0.0261	0.0045	0.0146	-0.5921	22.8851	10.0693	0.4005	-0.4685	0.6298	-0.4726
3.49	-0.5554	-9.3250	-2.2456	0.0140	0.0083	0.0176	-0.4618	23.1218	10.0480	0.4005	-0.4685	0.6299	-0.4726
3.5	-0.5555	-9.3209	-2.2415	0.0160	0.0020	0.0144	-0.4400	23.1245	10.3838	0.4005	-0.4685	0.6299	-0.4726
3.51	-0.5562	-9.3256	-2.2436	0.0161	0.0023	0.0117	-0.5401	22.9814	10.2797	0.4005	-0.4685	0.6299	-0.4726
3.52	-0.5582	-9.3255	-2.2414	0.0185	0.0001	0.0131	-0.6277	22.9294	10.3651	0.4005	-0.4685	0.6299	-0.4727
3.53	-0.5613	-9.3165	-2.2396	0.0156	0.0056	0.0148	-0.4069	23.0423	10.0682	0.4004	-0.4684	0.6299	-0.4726
3.54	-0.5620	-9.3256	-2.2349	0.0212	0.0054	0.0137	-0.6058	23.1321	10.1993	0.4005	-0.4685	0.6299	-0.4727
3.55	-0.5675	-9.3316	-2.2470	0.0254	-0.0010	0.0165	-0.4531	22.9549	10.2194	0.4005	-0.4684	0.6299	-0.4727
3.56	-0.5645	-9.3220	-2.2499	0.0233	-0.0010	0.0192	-0.3033	22.7090	10.3332	0.4005	-0.4684	0.6299	-0.4727
3.57	-0.5654	-9.3190	-2.2469	0.0184	0.0023	0.0184	-0.2922	22.7104	10.0782	0.4005	-0.4684	0.6299	-0.4727
3.58	-0.5668	-9.3290	-2.2591	0.0278	-0.0021	0.0145	-0.2008	22.7141	10.1280	0.4006	-0.4684	0.6298	-0.4727
3.59	-0.5650	-9.3269	-2.2596	0.0227	-0.0015	0.0164	-0.4095	22.8861	10.2894	0.4006	-0.4684	0.6298	-0.4728
3.6	-0.5646	-9.3197	-2.2534	0.0211	0.0031	0.0140	-0.2976	22.7876	10.2105	0.4006	-0.4683	0.6298	-0.4727
3.61	-0.5631	-9.3253	-2.2576	0.0182	0.0010	0.0152	-0.3073	22.8076	10.0910	0.4006	-0.4684	0.6299	-0.4728
3.62	-0.5619	-9.3248	-2.2642	0.0257	-0.0026	0.0212	-0.2899	22.9064	10.2545	0.4006	-0.4683	0.6298	-0.4728
3.63	-0.5672	-9.3234	-2.2585	0.0165	0.0049	0.0143	-0.3617	23.0653	10.0898	0.4007	-0.4683	0.6299	-0.4728
3.64	-0.5654	-9.3275	-2.2594	0.0252	-0.0031	0.0203	-0.3904	22.9293	10.1119	0.4007	-0.4682	0.6298	-0.4728
3.65	-0.5721	-9.3283	-2.2678	0.0147	-0.0030	0.0171	-0.4941	22.7845	10.3216	0.4007	-0.4683	0.6298	-0.4728
3.66	-0.5742	-9.3173	-2.2614	0.0172	0.0022	0.0165	-0.5800	23.2347	10.0643	0.4007	-0.4682	0.6298	-0.4728
3.67	-0.5727	-9.3207	-2.2527	0.0220	0.0037	0.0096	-0.4566	22.8361	10.1960	0.4007	-0.4682	0.6298	-0.4728
3.68	-0.5710	-9.3307	-2.2609	0.0107	0.0037	0.0129	-0.4767	22.9067	10.1882	0.4007	-0.4683	0.6299	-0.4728
3.69	-0.5702	-9.3321	-2.2592	0.0144	0.0059	0.0143	-0.5722	23.0697	10.1881	0.4007	-0.4682	0.6298	-0.4728
3.7	-0.5647	-9.3209	-2.2508	0.0181	0.0079	0.0133	-0.4892	23.0288	10.1809	0.4007	-0.4683	0.6299	-0.4729
3.71	-0.5630	-9.3252	-2.2509	0.0179	0.0070	0.0144	-0.3673	23.0329	10.2667	0.4006	-0.4682	0.6298	-0.4728
3.72	-0.5577	-9.3280	-2.2573	0.0146	0.0068	0.0077	-0.4149	23.1689	10.3963	0.4006	-0.4682	0.6299	-0.4729
3.73	-0.5631	-9.3245	-2.2527	0.0207	0.0044	0.0170	-0.6411	23.1698	10.2928	0.4005	-0.4681	0.6299	-0.4730
3.74	-0.5654	-9.3240	-2.2507	0.0140	-0.0004	0.0172	-0.3081	22.7857	10.2210	0.4005	-0.4681	0.6299	-0.4729
3.75	-0.5737	-9.3285	-2.2585	0.0217	0.0082	0.0177	-0.2046	22.7017	10.0612	0.4005	-0.4681	0.6299	-0.4730
3.76	-0.5728	-9.3197	-2.2559	0.0213	0.0030	0.0138	-0.2270	22.9677	10.3307	0.4005	-0.4680	0.6299	-0.4730
3.77	-0.5690	-9.3223	-2.2549	0.0139	-0.0019	0.0187	-0.2325	22.9085	10.2863	0.4006	-0.4681	0.6299	-0.4730
3.78	-0.5695	-9.3297	-2.2562	0.0185	-0.0013	0.0137	-0.1980	22.7912	10.0681	0.4005	-0.4680	0.6299	-0.4729
3.79	-0.5637	-9.3329	-2.2528	0.0156	0.0021	0.0173	-0.3586	22.7767	10.2447	0.4006	-0.4681	0.6299	-0.4730
3.8	-0.5612	-9.3225	-2.2516	0.0180	0.0075	0.0186	-0.4956	22.6725	10.1545	0.4006	-0.4680	0.6299	-0.4730
3.81	-0.5611	-9.3245	-2.2545	0.0147	0.0044	0.0125	-0.4543	22.7675	10.2820	0.4005	-0.4680	0.6300	-0.4730
3.82	-0.5612	-9.3299	-2.2589	0.0147	0.0083	0.0124	-0.3834	22.8997	10.2803	0.4005	-0.4680	0.6299	-0.4730
3.83	-0.5646	-9.3234	-2.2599	0.0239	0.0065	0.0148	-0.3867	22.8415	10.2819	0.4005	-0.4680	0.6300	-0.4730
3.84	-0.5676	-9.3199	-2.2550	0.0167	0.0095	0.0100	-0.3774	22.7841	10.2788	0.4005	-0.4680	0.6300	-0.4731
3.85	-0.5634	-9.3289	-2.2595	0.0141	0.0020	0.0117	-0.4616	22.7756	10.3413	0.4004	-0.4679	0.6299	-0.4730
3.86	-0.5634	-9.3269	-2.2649	0.0152	0.0100	0.0131	-0.4041	23.0142	10.6166	0.4004	-0.4680	0.6300	-0.4731
3.87	-0.5663	-9.3174	-2.2569	0.0192	0.0049	0.0071	-0.0820	23.0129	10.4338	0.4004	-0.4679	0.6300	-0.4731
3.88	-0.5663	-9.3337	-2.2585	0.0202	0.0042	0.0081	-0.1855	22.8925	10.3626	0.4004	-0.4680	0.6300	-0.4732
3.89	-0.5707	-9.3314	-2.2520	0.0131	0.0065	0.0084	-0.5835	23.0766	10.3438	0.4003	-0.4679	0.6299	-0.4732
3.9	-0.5675	-9.3192	-2.2460	0.0197	0.0027	0.0133	-0.3638	23.6283	10.2481	0.4003	-0.4679	0.6300	-0.4732
3.91	-0.5659	-9.3207	-2.2406	0.0151	0.0082	0.0112	-0.5797	23.0290	10.2146	0.4002	-0.4678	0.6300	-0.4733
3.92	-0.5690	-9.3304	-2.2531	0.0310	0.0121	0.0097	-0.5410	22.9672	10.1253	0.4002	-0.4678	0.6300	-0.4733
3.93	-0.5712	-9.3293	-2.2437	0.0237	0.0093	0.0185	-0.4247	22.7739	10.3262	0.4002	-0.4678	0.6301	-0.4734
3.94	-0.5653	-9.3221	-2.2440	0.0183	-0.0020	0.0184	-0.4235	23.0148	10.1773	0.4002	-0.4677	0.6300	-0.4734
3.95	-0.5552	-9.3293	-2.2450	0.0233	0.0045	0.0155	-0.3097	22.9926	10.2486	0.4003	-0.4678	0.6301	-0.4734
3.96	-0.5488	-9.3286	-2.2497	0.0138	-0.0031	0.0161	-0.4688	22.6730	10.2627	0.4002	-0.4677	0.6300	-0.4734
3.97	-0.5447	-9.3248	-2.2475	0.0110	0.0013	0.0165	-0.4022	22.7621	10.1972	0.4003	-0.4677	0.6300	-0.4734
3.98	-0.5459	-9.3274	-2.2489	0.0125	0.0051	0.0158	-0.3554	22.9997	10.4266	0.4002	-0.4677	0.6301	-0.4734
3.99	-0.5560	-9.3314	-2.2529	0.0131	0.0027	0.0162	-0.3455	22.8879	10.2419	0.4002	-0.4677	0.6301	-0.4733
4	-0.5637	-9.3255	-2.2558	0.0106	0.0054	0.0134	-0.4543	22.9981	10.2823	0.4002	-0.4677	0.6301	-0.4734
4.01	-0.5733	-9.3185	-2.2628	0.0151	-0.0009	0.0176	-0.4049	22.9407	10.1052	0.4002	-0.4677	0.6301	-0.4733
4.02	-0.5754	-9.3268	-2.2658	0.0115	0.0051	0.0168	-0.3152	22.8857	10.0992	0.4002	-0.4677	0.6301	-0.4733
4.03	-0.5747	-9.3230	-2.2728	0.0162	0.0042	0.0152	-0.4549	22.8815	10.0685	0.4001	-0.4677	0.6301	-0.4733
4.04	-0.5712	-9.3164	-2.2748	0.0173	0.0021	0.0142	-0.4224	23.0179	10.2250	0.4002	-0.4677	0.6302	-0.4734
4.05	-0.5656	-9.3292	-2.2748	0.0188	0.0080	0.0126	-0.3175	23.0303	10.4048	0.4001	-0.4676	0.6302	-0.4734
4.06	-0.5642	-9.3296	-2.2734	0.0174	0.0082	0.0120	-0.4399	22.6868	10.2781	0.4001	-0.4677	0.6302	-0.4734
4.07	-0.5573	-9.3261	-2.2695	0.0144	0.0075	0.0140	-0.4227	22.8368	10.1700	0.4001	-0.4676	0.6302	-0.4734
4.08	-0.5549	-9.3256	-2.2603	0.0125	0.0010	0.0114	-0.4604	22.8952	10.1885	0.4001	-0.4676	0.6302	-0.4734
4.09	-0.5591	-9.3301	-2.2608	0.0127	0.0033	0.0058	-0.3573	22.7394	10.1632	0.4000	-0.4677	0.6302	-0.4734
4.1	-0.5662	-9.3284	-2.2530	0.0132	0.0030	0.0119	-0.3814	23.0090	10.2670	0.4000	-0.4677	0.6301	-0.4734
4.11	-0.5676	-9.3247	-2.2480	0.0187	-0.0049	0.0116	-0.1219	22.9368	10.2621	0.4000	-0.4677	0.6302	-0.4734
4.12	-0.5723	-9.3267	-2.2441	0.0228	-0.0035	0.0175	-0.3181	23.0724	10.2822	0.4001	-0.4677	0.6301	-0.4734
4.13	-0.5737	-9.3250	-2.2417	0.0194	-0.0029	0.0136	-0.2962	22.9201	10.1982	0.4001	-0.4677	0.6302	-0.4735
4.14	-0.5702	-9.3246	-2.2356	0.0129	-0.0015	0.0096	-0.2936	22.9071	10.1716	0.4000	-0.4677	0.6301	-0.4734
4.15	-0.5643	-9.3296	-2.2354	0.0256	0.0001	0.0137	-0.2044	22.8398	10.1828	0.4001	-0.4677	0.6301	-0.4734
4.16	-0.5620	-9.3272	-2.2363	0.0162	-0.0029	0.0073	-0.1588	22.7550	10.2224	0.4001	-0.4677	0.6301	-0.4735
4.17	-0.5665	-9.3182	-2.2378	0.0107	0.0022	0.0140	-0.4127	23.1104	10.3117	0.4001	-0.4677	0.6301	-0.4734
4.18	-0.5668	-9.3250	-2.2392	0.0094	-0.0030	0.0155	-0.2391	23.0372	10.1052	0.4001	-0.4678	0.6301	-0.4734
4.19	-0.5661	-9.3333	-2.2384	0.0058	-0.0017	0.0132	-0.2790	22.8072	10.1626	0.4000	-0.4678	0.6301	-0.4734
4.2	-0.5676	-9.3254	-2.2406	0.0153	0.0033	0.0141	-0.2929	22.6685	10.3327	0.4001	-0.4678	0.6302	-0.4734
4.21	-0.5686	-9.3198	-2.2354	0.0096	-0.0002	0.0180	-0.1731	22.9257	10.1431	0.4000	-0.4678	0.6301	-0.4733
4.22	-0.5710	-9.3313	-2.2451	0.0166	0.0024	0.0104	-0.3363	23.0762	10.4243	0.4000	-0.4678	0.6302	-0.4734
4.23	-0.5747	-9.3255	-2.2429	0.0165	0.0017	0.0120	-0.4723	22.8937	10.2529	0.4000	-0.4678	0.6302	-0.4734
4.24	-0.5748	-9.3210	-2.2455	0.0100	0.0065	0.0045	-0.4169	22.8890	10.0618	0.3999	-0.4678	0.6301	-0.4734
4.25	-0.5722	-9.3272	-2.2583	0.0122	0.0004	0.0058	-0.4391	22.9028	10.2017	0.3999	-0.4679	0.6302	-0.4734
4.26	-0.5650	-9.3266	-2.2710	0.0170	0.0047	0.0091	-0.4442	22.7454	10.4180	0.3999	-0.4679	0.6301	-0.4734
4.27	-0.5585	-9.3200	-2.2689	0.0097	-0.0023	0.0143	-0.4178	22.7567	10.2523	0.3999	-0.4679	0.6302	-0.4734
4.28	-0.5526	-9.3234	-2.2684	0.0153	0.0018	0.0112	-0.5319	22.9148	10.3509	0.3998	-0.4679	0.6301	-0.4733
4.29	-0.5488	-9.3341	-2.2706	0.0107	0.0018	0.0136	-0.4075	22.7637	10.3537	0.3999	-0.4679	0.6302	-0.4734
4.3	-0.5407	-9.3282	-2.2678	0.0153	-0.0056	0.0223	-0.1909	23.0251	10.0547	0.3999	-0.4679	0.6302	-0.4733
4.31	-0.5417	-9.3208	-2.2661	0.0111	0.0006	0.0180	-0.2008	22.8199	10.1870	0.3999	-0.4679	0.6302	-0.4733
4.32	-0.5461	-9.3285	-2.2721	0.0073	0.0008	0.0080	-0.1767	22.8265	10.1694	0.3998	-0.4679	0.6302	-0.4733
4.33	-0.5478	-9.3254	-2.2727	0.0135	0.0007	0.0138	-0.4572	22.8841	10.3383	0.3998	-0.4679	0.6302	-0.4733
4.34	-0.5534	-9.3238	-2.2642	0.0134	-0.0000	0.0129	-0.3521	22.9699	10.3083	0.3998	-0.4680	0.6302	-0.4733
4.35	-0.5557	-9.3301	-2.2715	0.0193	-0.0037	0.0117	-0.4452	22.8982	10.2453	0.3998	-0.4679	0.6301	-0.4732
4.36	-0.5541	-9.3247	-2.2688	0.0136	-0.0003	0.0135	-0.3187	22.8117	10.2794	0.3999	-0.4680	0.6302	-0.4733
4.37	-0.5554	-9.3231	-2.2643	0.0091	-0.0067	0.0080	0.1321	23.0586	10.4227	0.3998	-0.4680	0.6302	-0.4732
4.38	-0.5598	-9.3273	-2.2583	0.0196	-0.0046	0.0151	0.0642	23.0873	10.4265	0.3999	-0.4681	0.6302	-0.4733
4.39	-0.5561	-9.3323	-2.2549	0.0225	-0.0045	0.0217	-0.3991	23.0845	10.2482	0.3999	-0.4680	0.6301	-0.4732
4.4	-0.5574	-9.3240	-2.2548	0.0114	-0.0037	0.0165	-0.4250	23.4006	10.2051	0.3999	-0.4680	0.6302	-0.4733
4.41	-0.5483	-9.3195	-2.2422	0.0150	0.0053	0.0112	-0.3834	23.1418	10.3519	0.3998	-0.4679	0.6302	-0.4733
4.42	-0.5475	-9.3362	-2.2556	0.0117	0.0011	0.0146	-0.5596	22.8909	10.3866	0.3998	-0.4679	0.6302	-0.4732
4.43	-0.5557	-9.3318	-2.2491	0.0116	0.0002	0.0140	-0.5160	23.0557	10.2638	0.3998	-0.4680	0.6303	-0.4733
4.44	-0.5586	-9.3235	-2.2427	0.0203	0.0013	0.0143	-0.6717	23.0102	10.1575	0.3998	-0.4679	0.6302	-0.4732
4.45	-0.5697	-9.3291	-2.2507	0.0157	-0.0004	0.0153	-0.4803	23.0280	10.2715	0.3998	-0.4680	0.6303	-0.4733
4.46	-0.5703	-9.3258	-2.2464	0.0105	-0.0006	0.0143	-0.3614	23.0327	10.3012	0.3998	-0.4679	0.6302	-0.4732
4.47	-0.5774	-9.3195	-2.2493	0.0171	0.0033	0.0111	-0.3561	23.0016	10.1619	0.3998	-0.4680	0.6303	-0.4732
4.48	-0.5763	-9.3214	-2.2503	0.0149	-0.0001	0.0193	-0.5595	23.0815	10.2507	0.3998	-0.4680	0.6303	-0.4732
4.49	-0.5705	-9.3277	-2.2447	0.0215	0.0038	0.0167	-0.3964	22.7961	10.3280	0.3998	-0.4679	0.6303	-0.4732
4.5	-0.5667	-9.3227	-2.2465	0.0165	-0.0027	0.0120	-0.1853	22.6884	10.0808	0.3998	-0.4680	0.6303	-0.4732
4.51	-0.5643	-9.3234	-2.2478	0.0214	-0.0065	0.0158	-0.3048	22.9257	10.1473	0.3999	-0.4679	0.6302	-0.4732
4.52	-0.5620	-9.3273	-2.2495	0.0169	0.0075	0.0129	-0.3077	22.8071	10.2595	0.3999	-0.4680	0.6303	-0.4733
4.53	-0.5647	-9.3252	-2.2492	0.0105	-0.0001	0.0186	-0.1813	22.9840	10.3980	0.3998	-0.4679	0.6302	-0.4732
4.54	-0.5587	-9.3191	-2.2461	0.0103	-0.0011	0.0143	-0.3640	22.8000	10.2386	0.3999	-0.4680	0.6303	-0.4732
4.55	-0.5604	-9.3259	-2.2541	0.0137	-0.0001	0.0150	-0.4218	22.7981	10.0581	0.3998	-0.4680	0.6303	-0.4732
4.56	-0.5652	-9.3309	-2.2557	0.0149	-0.0004	0.0151	-0.3720	22.6836	10.2152	0.3998	-0.4680	0.6303	-0.4732
4.57	-0.5651	-9.3201	-2.2432	0.0134	0.0007	0.0182	-0.1807	22.8007	10.1939	0.3998	-0.4679	0.6303	-0.4731
4.58	-0.5646	-9.3227	-2.2508	0.0258	-0.0022	0.0214	-0.2709	22.8611	10.2265	0.3999	-0.4679	0.6303	-0.4732
4.59	-0.5679	-9.3288	-2.2454	0.0186	-0.0008	0.0178	-0.5792	22.9151	10.3482	0.3999	-0.4679	0.6303	-0.4732
4.6	-0.5704	-9.3240	-2.2482	0.0139	0.0049	0.0138	-0.5028	22.9348	10.4030	0.3999	-0.4679	0.6302	-0.4731
4.61	-0.5742	-9.3174	-2.2452	0.0198	0.0061	0.0136	-0.5656	23.0582	10.2187	0.3999	-0.4679	0.6303	-0.4732
4.62	-0.5714	-9.3238	-2.2534	0.0164	0.0024	0.0133	-0.4802	22.9455	10.2363	0.3999	-0.4679	0.6303	-0.4732
4.63	-0.5671	-9.3319	-2.2542	0.0186	0.0035	0.0135	-0.4445	23.0607	10.2959	0.3999	-0.4679	0.6304	-0.4733
4.64	-0.5652	-9.3232	-2.2496	0.0146	-0.0027	0.0112	-0.4489	23.1399	10.2861	0.3998	-0.4678	0.6303	-0.4732
4.65	-0.5634	-9.3274	-2.2552	0.0111	0.0009	0.0132	-0.5615	22.9698	10.2515	0.3998	-0.4679	0.6303	-0.4732
4.66	-0.5616	-9.3213	-2.2544	0.0174	0.0000	0.0134	-0.4610	22.9126	10.3750	0.3998	-0.4679	0.6303	-0.4732
4.67	-0.5594	-9.3212	-2.2581	0.0229	-0.0062	0.0151	-0.4739	23.0368	10.2307	0.3998	-0.4679	0.6303	-0.4732
4.68	-0.5610	-9.3231	-2.2494	0.0192	-0.0007	0.0138	-0.1459	22.8378	10.0870	0.3999	-0.4679	0.6303	-0.4733
4.69	-0.5642	-9.3308	-2.2626	0.0165	0.0044	0.0137	-0.2836	22.7708	10.2840	0.3999	-0.4679	0.6303	-0.4732
4.7	-0.5699	-9.3267	-2.2646	0.0139	0.0035	0.0160	-0.1974	22.7789	10.3091	0.3999	-0.4679	0.6303	-0.4733
4.71	-0.5651	-9.3176	-2.2592	0.0157	-0.0016	0.0145	0.0098	22.8714	10.2109	0.3998	-0.4678	0.6302	-0.4732
4.72	-0.5730	-9.3221	-2.2692	0.0141	-0.0010	0.0147	-0.3032	22.8734	10.3072	0.3999	-0.4679	0.6303	-0.4732
4.73	-0.5678	-9.3292	-2.2647	0.0132	-0.0006	0.0161	-0.3928	22.8584	10.4524	0.3999	-0.4679	0.6303	-0.4732
4.74	-0.5635	-9.3264	-2.2583	0.0201	-0.0021	0.0168	-0.3644	22.8677	10.4369	0.3999	-0.4679	0.6303	-0.4732
4.75	-0.5608	-9.3232	-2.2620	0.0137	-0.0016	0.0155	-0.3681	22.8576	10.0453	0.3999	-0.4679	0.6303	-0.4732
4.76	-0.5515	-9.3280	-2.2583	0.0135	-0.0044	0.0180	-0.3631	22.7531	10.3258	0.3999	-0.4679	0.6303	-0.4731
4.77	-0.5546	-9.3258	-2.2595	0.0145	-0.0033	0.0168	-0.4089	22.8150	10.3622	0.3999	-0.4679	0.6303	-0.4731
4.78	-0.5545	-9.3196	-2.2577	0.0118	0.0058	0.0102	-0.5654	23.0284	10.1402	0.3999	-0.4679	0.6303	-0.4731
4.79	-0.5610	-9.3306	-2.2602	0.0147	0.0054	0.0097	-0.3003	23.1288	10.3549	0.3999	-0.4679	0.6303	-0.4732
4.8	-0.5618	-9.3278	-2.2637	0.0207	0.0030	0.0122	-0.4913	23.0973	10.1626	0.3999	-0.4679	0.6303	-0.4732
4.81	-0.5624	-9.3205	-2.2566	0.0136	0.0007	0.0120	-0.4868	23.1233	10.3620	0.3998	-0.4679	0.6303	-0.4732
4.82	-0.5640	-9.3271	-2.2579	0.0162	0.0064	0.0057	-0.4237	23.0105	10.2764	0.3998	-0.4679	0.6303	-0.4732
4.83	-0.5689	-9.3331	-2.2617	0.0132	0.0028	0.0147	-0.5714	23.0302	10.1972	0.3998	-0.4679	0.6303	-0.4732
4.84	-0.5643	-9.3206	-2.2471	0.0114	0.0029	0.0110	-0.4868	23.0082	10.5231	0.3998	-0.4679	0.6304	-0.4732
4.85	-0.5630	-9.3215	-2.2443	0.0104	0.0009	0.0083	-0.6591	23.0977	10.3267	0.3997	-0.4679	0.6303	-0.4732
4.86	-0.5601	-9.3328	-2.2456	0.0202	0.0001	0.0148	-0.3788	23.1256	10.4114	0.3997	-0.4679	0.6304	-0.4733
4.87	-0.5631	-9.3261	-2.2378	0.0154	0.0095	0.0160	0.2635	22.8083	10.4552	0.3996	-0.4678	0.6304	-0.4733
4.88	-0.5577	-9.3207	-2.2334	0.0216	0.0036	0.0165	0.2362	22.8224	10.3644	0.3997	-0.4678	0.6305	-0.4733
4.89	-0.5562	-9.3281	-2.2409	0.0190	0.0021	0.0112	0.0357	23.2359	10.3586	0.3996	-0.4678	0.6304	-0.4733
4.9	-0.5585	-9.3298	-2.2477	0.0119	-0.0018	0.0138	-0.3037	23.5232	10.2178	0.3996	-0.4678	0.6305	-0.4733
4.91	-0.5558	-9.3144	-2.2340	0.0095	0.0012	0.0118	-0.2591	22.9520	10.3149	0.3995	-0.4678	0.6305	-0.4733
4.92	-0.5538	-9.3238	-2.2418	0.0088	0.0075	0.0147	-0.4554	22.8265	10.3815	0.3995	-0.4677	0.6305	-0.4733
4.93	-0.5560	-9.3355	-2.2556	0.0088	0.0031	0.0101	-0.5472	23.0083	10.1223	0.3995	-0.4678	0.6306	-0.4733
4.94	-0.5560	-9.3223	-2.2510	0.0084	0.0043	0.0088	-0.3996	22.8862	10.0684	0.3994	-0.4678	0.6305	-0.4733
4.95	-0.5638	-9.3214	-2.2525	0.0139	0.0038	0.0180	-0.3105	22.9293	10.1220	0.3994	-0.4678	0.6306	-0.4733
4.96	-0.5726	-9.3287	-2.2590	0.0184	0.0043	0.0088	-0.2884	22.9892	10.3784	0.3994	-0.4678	0.6305	-0.4733
4.97	-0.5734	-9.3234	-2.2593	0.0135	0.0058	0.0084	-0.5192	22.8158	10.3128	0.3994	-0.4678	0.6306	-0.4733
4.98	-0.5745	-9.3183	-2.2549	0.0107	0.0048	0.0097	-0.3693	22.6560	10.2487	0.3993	-0.4678	0.6306	-0.4733
4.99	-0.5672	-9.3235	-2.2660	0.0126	0.0058	0.0101	-0.1718	22.8771	10.2766	0.3993	-0.4678	0.6306	-0.4733
5	-0.5598	-9.3274	-2.2745	0.0211	0.0044	0.0149	-0.4300	22.8909	10.2552	0.3993	-0.4678	0.6306	-0.4734
5.01	-0.5561	-9.3245	-2.2740	0.0141	0.0090	0.0077	-0.4341	22.8513	10.1263	0.3993	-0.4678	0.6306	-0.4734
5.02	-0.5570	-9.3216	-2.2686	0.0189	0.0094	0.0138	-0.5246	22.9604	10.0538	0.3992	-0.4678	0.6306	-0.4734
5.03	-0.5623	-9.3272	-2.2737	0.0104	0.0066	0.0091	-0.4603	23.2538	10.1569	0.3991	-0.4677	0.6306	-0.4734
5.04	-0.5636	-9.3215	-2.2645	0.0178	0.0072	0.0106	-0.4656	23.0627	10.2839	0.3991	-0.4678	0.6307	-0.4735
5.05	-0.5668	-9.3213	-2.2596	0.0179	0.0009	0.0166	-0.4353	22.9238	10.3650	0.3991	-0.4678	0.6306	-0.4735
5.06	-0.5678	-9.3288	-2.2628	0.0113	-0.0035	0.0114	-0.3104	22.9975	10.0557	0.3991	-0.4678	0.6307	-0.4735
5.07	-0.5671	-9.3288	-2.2602	0.0168	0.0037	0.0103	-0.1151	22.8568	10.1989	0.3991	-0.4678	0.6306	-0.4735
5.08	-0.5656	-9.3185	-2.2423	0.0172	-0.0028	0.0079	-0.2799	22.9116	10.2620	0.3991	-0.4678	0.6306	-0.4735
5.09	-0.5620	-9.3266	-2.2431	0.0160	0.0082	0.0106	-0.4531	22.8084	10.3063	0.3991	-0.4678	0.6306	-0.4735
5.1	-0.5572	-9.3323	-2.2429	0.0130	0.0059	0.0139	-0.5286	22.7814	10.3874	0.3990	-0.4678	0.6306	-0.4735
5.11	-0.5566	-9.3229	-2.2350	0.0262	-0.0017	0.0117	-0.5623	22.8807	10.1018	0.3991	-0.4678	0.6306	-0.4735
5.12	-0.5604	-9.3214	-2.2263	0.0176	-0.0034	0.0102	-0.4840	22.8943	10.2575	0.3991	-0.4678	0.6306	-0.4735
5.13	-0.5596	-9.3346	-2.2428	0.0155	0.0038	0.0128	-0.4629	23.0092	10.4586	0.3991	-0.4679	0.6306	-0.4736
5.14	-0.5620	-9.3316	-2.2389	0.0215	0.0064	0.0168	-0.4526	22.8255	10.3421	0.3991	-0.4678	0.6306	-0.4735
5.15	-0.5646	-9.3168	-2.2370	0.0101	0.0075	0.0174	-0.4818	23.0494	10.2175	0.3991	-0.4678	0.6306	-0.4736
5.16	-0.5669	-9.3248	-2.2493	0.0110	0.0053	0.0126	-0.3820	23.1216	10.1085	0.3990	-0.4678	0.6306	-0.4735
5.17	-0.5722	-9.3294	-2.2487	0.0101	0.0030	0.0106	-0.4386	22.9259	10.0424	0.3990	-0.4678	0.6306	-0.4735
5.18	-0.5720	-9.3213	-2.2441	0.0105	-0.0006	0.0156	-0.4624	23.0725	10.3108	0.3990	-0.4679	0.6307	-0.4736
5.19	-0.5759	-9.3225	-2.2398	0.0086	0.0005	0.0109	-0.3527	22.7535	10.4662	0.3990	-0.4678	0.6307	-0.4735
5.2	-0.5747	-9.3306	-2.2540	0.0118	0.0054	0.0105	-0.4269	22.9341	10.1812	0.3990	-0.4679	0.6307	-0.4735
5.21	-0.5757	-9.3210	-2.2530	0.0102	0.0051	0.0069	-0.5788	22.9595	10.1570	0.3989	-0.4679	0.6306	-0.4735
5.22	-0.5712	-9.3203	-2.2562	0.0115	0.0059	0.0072	-0.2684	23.0721	10.1855	0.3989	-0.4679	0.6307	-0.4735
5.23	-0.5625	-9.3309	-2.2650	0.0104	-0.0083	0.0103	-0.2718	22.9809	10.3012	0.3988	-0.4679	0.6307	-0.4735
5.24	-0.5604	-9.3310	-2.2753	0.0127	0.0047	0.0083	-0.4979	22.7023	10.1647	0.3988	-0.4680	0.6307	-0.4735
5.25	-0.5484	-9.3209	-2.2631	0.0113	0.0096	0.0098	-0.3509	22.6261	10.2783	0.3988	-0.4680	0.6307	-0.4735
5.26	-0.5433	-9.3268	-2.2628	0.0111	0.0120	0.0090	-0.2604	22.7481	10.2645	0.3987	-0.4680	0.6307	-0.4735
5.27	-0.5424	-9.3295	-2.2685	0.0100	0.0079	0.0117	-0.3836	22.6762	10.2624	0.3987	-0.4680	0.6308	-0.4735
5.28	-0.5454	-9.3202	-2.2643	0.0092	0.0060	0.0205	-0.2906	22.8156	10.2646	0.3986	-0.4679	0.6307	-0.4735
5.29	-0.5456	-9.3212	-2.2648	0.0174	0.0077	0.0119	-0.3212	22.8542	10.2605	0.3986	-0.4680	0.6308	-0.4735
5.3	-0.5508	-9.3315	-2.2710	0.0130	0.0043	0.0084	-0.3788	22.6575	10.2726	0.3986	-0.4680	0.6308	-0.4735
5.31	-0.5537	-9.3249	-2.2704	0.0129	0.0033	0.0119	-0.4376	23.0417	10.2406	0.3986	-0.4680	0.6308	-0.4735
5.32	-0.5533	-9.3179	-2.2596	0.0155	0.0018	0.0057	-0.4739	23.0536	10.3572	0.3985	-0.4680	0.6308	-0.4735
5.33	-0.5612	-9.3308	-2.2649	0.0139	-0.0004	0.0155	-0.3503	22.7860	10.2164	0.3985	-0.4680	0.6308	-0.4735
5.34	-0.5566	-9.3289	-2.2669	0.0153	0.0044	0.0132	-0.3959	23.0315	10.3467	0.3985	-0.4680	0.6308	-0.4735
5.35	-0.5565	-9.3171	-2.2537	0.0102	0.0025	0.0097	-0.3784	22.6716	10.2593	0.3985	-0.4680	0.6308	-0.4735
5.36	-0.5506	-9.3264	-2.2504	0.0069	0.0033	0.0087	-0.2874	22.8793	10.3709	0.3985	-0.4681	0.6309	-0.4735
5.37	-0.5501	-9.3314	-2.2567	0.0085	-0.0003	0.0085	-0.0290	22.7571	10.4722	0.3984	-0.4681	0.6308	-0.4735
5.38	-0.5517	-9.3236	-2.2506	0.0113	0.0028	0.0126	-0.1852	22.8419	10.4215	0.3984	-0.4682	0.6309	-0.4735
5.39	-0.5530	-9.3225	-2.2422	0.0161	0.0078	0.0113	-0.5302	23.4358	10.0803	0.3983	-0.4680	0.6308	-0.4735
5.4	-0.5555	-9.3292	-2.2502	0.0176	0.0046	0.0130	-0.5008	23.5406	10.0405	0.3983	-0.4680	0.6309	-0.4736
5.41	-0.5617	-9.3279	-2.2487	0.0104	0.0048	0.0128	-0.3651	23.0508	10.2158	0.3983	-0.4680	0.6309	-0.4736
5.42	-0.5662	-9.3211	-2.2360	0.0232	0.0004	0.0140	-0.3567	22.8083	10.2360	0.3983	-0.4680	0.6309	-0.4736
5.43	-0.5767	-9.3285	-2.2440	0.0162	-0.0021	0.0192	-0.3556	22.8984	10.1321	0.3983	-0.4680	0.6310	-0.4736
5.44	-0.5781	-9.3302	-2.2416	0.0217	-0.0035	0.0188	-0.2337	22.9432	10.2613	0.3983	-0.4680	0.6309	-0.4736
5.45	-0.5771	-9.3219	-2.2425	0.0297	-0.0012	0.0146	-0.3650	22.7191	10.2087	0.3984	-0.4680	0.6309	-0.4736
5.46	-0.5766	-9.3208	-2.2463	0.0217	0.0054	0.0139	-0.2806	22.6634	10.2588	0.3984	-0.4679	0.6308	-0.4736
5.47	-0.5761	-9.3270	-2.2553	0.0245	0.0031	0.0140	-0.1615	22.7377	10.2006	0.3984	-0.4679	0.6309	-0.4737
5.48	-0.5734	-9.3233	-2.2491	0.0175	-0.0014	0.0096	-0.2409	22.7868	10.3040	0.3984	-0.4679	0.6308	-0.4737
5.49	-0.5688	-9.3229	-2.2524	0.0191	-0.0012	0.0134	-0.3578	22.7722	10.2656	0.3984	-0.4679	0.6308	-0.4737
5.5	-0.5683	-9.3314	-2.2560	0.0186	0.0006	0.0174	-0.3586	22.8536	10.0183	0.3984	-0.4679	0.6308	-0.4737
5.51	-0.5640	-9.3274	-2.2546	0.0161	0.0031	0.0093	-0.3432	22.6509	10.0659	0.3984	-0.4679	0.6308	-0.4737
5.52	-0.5619	-9.3199	-2.2564	0.0163	-0.0028	0.0180	-0.3645	22.9330	10.0535	0.3985	-0.4680	0.6308	-0.4737
5.53	-0.5643	-9.3258	-2.2591	0.0137	0.0052	0.0117	-0.3285	22.9461	10.0366	0.3984	-0.4679	0.6308	-0.4736
5.54	-0.5616	-9.3294	-2.2652	0.0103	0.0012	0.0106	-0.3868	23.1249	10.1846	0.3984	-0.4680	0.6308	-0.4737
5.55	-0.5617	-9.3214	-2.2555	0.0157	0.0001	0.0122	-0.4414	23.1133	10.3608	0.3984	-0.4679	0.6308	-0.4737
5.56	-0.5606	-9.3274	-2.2584	0.0123	0.0025	0.0089	-0.4625	23.0540	10.2252	0.3983	-0.4680	0.6309	-0.4737
5.57	-0.5621	-9.3320	-2.2626	0.0185	0.0029	0.0084	-0.2986	22.8437	10.1323	0.3983	-0.4680	0.6308	-0.4737
5.58	-0.5631	-9.3218	-2.2595	0.0159	0.0027	0.0163	-0.4555	23.0836	10.1306	0.3983	-0.4680	0.6308	-0.4737
5.59	-0.5628	-9.3192	-2.2489	0.0136	0.0025	0.0180	-0.6355	22.9713	10.1246	0.3983	-0.4680	0.6309	-0.4737
5.6	-0.5656	-9.3359	-2.2606	0.0232	0.0155	0.0109	-0.6033	23.1421	10.1986	0.3982	-0.4678	0.6308	-0.4737
5.61	-0.5655	-9.3305	-2.2586	0.0257	0.0053	0.0180	-0.4700	22.8727	10.2509	0.3983	-0.4679	0.6309	-0.4738
5.62	-0.5663	-9.3190	-2.2583	0.0186	0.0010	0.0194	-0.1978	22.7576	10.1791	0.3983	-0.4678	0.6309	-0.4738
5.63	-0.5685	-9.3207	-2.2534	0.0218	0.0011	0.0165	-0.3554	22.7831	10.1466	0.3983	-0.4678	0.6309	-0.4739
5.64	-0.5684	-9.3275	-2.2534	0.0095	-0.0017	0.0140	-0.3758	22.8631	10.0485	0.3983	-0.4678	0.6309	-0.4738
5.65	-0.5643	-9.3213	-2.2534	0.0181	-0.0005	0.0152	-0.1767	22.7409	9.9534	0.3983	-0.4678	0.6309	-0.4738
5.66	-0.5619	-9.3232	-2.2486	0.0163	0.0011	0.0161	-0.2947	22.6908	10.1833	0.3983	-0.4678	0.6309	-0.4738
5.67	-0.5563	-9.3276	-2.2541	0.0178	0.0056	0.0161	-0.3769	22.9650	10.3220	0.3983	-0.4678	0.6309	-0.4738
5.68	-0.5583	-9.3235	-2.2563	0.0210	-0.0015	0.0135	-0.2842	22.9247	10.3026	0.3984	-0.4678	0.6309	-0.4738
5.69	-0.5581	-9.3234	-2.2542	0.0155	0.0003	0.0084	-0.2086	22.8563	10.3339	0.3983	-0.4678	0.6309	-0.4738
5.7	-0.5611	-9.3323	-2.2588	0.0232	0.0038	0.0198	-0.3287	22.8503	10.0433	0.3984	-0.4678	0.6309	-0.4739
5.71	-0.5662	-9.3305	-2.2533	0.0177	0.0078	0.0142	-0.6489	22.9442	10.1287	0.3983	-0.4677	0.6308	-0.4738
5.72	-0.5634	-9.3190	-2.2556	0.0168	0.0080	0.0143	-0.3722	22.9264	10.4545	0.3983	-0.4677	0.6309	-0.4739
5.73	-0.5597	-9.3247	-2.2559	0.0148	0.0033	0.0172	-0.6537	22.8092	10.2105	0.3983	-0.4677	0.6309	-0.4739
5.74	-0.5601	-9.3295	-2.2629	0.0090	0.0059	0.0102	-0.4462	22.9398	10.5165	0.3982	-0.4677	0.6309	-0.4738
5.75	-0.5570	-9.3248	-2.2584	0.0130	0.0041	0.0073	-0.4446	22.9368	10.4619	0.3982	-0.4678	0.6310	-0.4739
5.76	-0.5594	-9.3207	-2.2590	0.0124	0.0073	0.0109	-0.5530	22.9442	10.2674	0.3982	-0.4678	0.6309	-0.4739
5.77	-0.5636	-9.3306	-2.2616	0.0157	-0.0015	0.0106	-0.4987	23.1220	10.3192	0.3982	-0.4678	0.6310	-0.4739
5.78	-0.5608	-9.3261	-2.2619	0.0138	0.0004	0.0160	-0.5563	23.0024	10.3129	0.3981	-0.4677	0.6309	-0.4738
5.79	-0.5636	-9.3240	-2.2562	0.0182	0.0041	0.0131	-0.2755	23.0558	10.1823	0.3982	-0.4677	0.6310	-0.4739
5.8	-0.5683	-9.3270	-2.2587	0.0149	-0.0075	0.0116	-0.4682	22.9529	10.1412	0.3982	-0.4677	0.6310	-0.4739
5.81	-0.5677	-9.3285	-2.2549	0.0169	-0.0004	0.0105	-0.2788	22.7502	10.3483	0.3982	-0.4678	0.6310	-0.4739
5.82	-0.5698	-9.3222	-2.2453	0.0203	-0.0030	0.0166	-0.3731	22.7975	10.2093	0.3982	-0.4678	0.6309	-0.4739
5.83	-0.5684	-9.3245	-2.2465	0.0150	-0.0001	0.0175	-0.4120	22.7597	10.1122	0.3982	-0.4678	0.6309	-0.4739
5.84	-0.5715	-9.3314	-2.2469	0.0152	-0.0020	0.0119	-0.1925	22.7989	10.1940	0.3982	-0.4678	0.6310	-0.4739
5.85	-0.5693	-9.3209	-2.2431	0.0158	-0.0029	0.0150	-0.4133	22.7469	10.3283	0.3982	-0.4677	0.6309	-0.4738
5.86	-0.5640	-9.3226	-2.2392	0.0110	-0.0054	0.0114	-0.0328	22.9204	10.2090	0.3982	-0.4678	0.6310	-0.4739
5.87	-0.5671	-9.3294	-2.2451	0.0103	-0.0002	0.0133	0.1966	23.0722	10.2430	0.3982	-0.4678	0.6309	-0.4738
5.88	-0.5623	-9.3307	-2.2391	0.0119	0.0020	0.0124	-0.0200	23.1730	10.2139	0.3982	-0.4679	0.6310	-0.4738
5.89	-0.5575	-9.3235	-2.2385	0.0108	-0.0044	0.0188	-0.2021	23.1000	10.1530	0.3982	-0.4678	0.6309	-0.4737
5.9	-0.5550	-9.3278	-2.2416	0.0123	0.0059	0.0209	-0.4793	23.4439	10.2882	0.3981	-0.4678	0.6310	-0.4738
5.91	-0.5538	-9.3296	-2.2509	0.0152	0.0049	0.0046	-0.5036	22.9809	10.1820	0.3981	-0.4677	0.6311	-0.4738
5.92	-0.5521	-9.3272	-2.2588	0.0169	0.0071	0.0128	-0.4269	22.9276	10.1355	0.3980	-0.4677	0.6310	-0.4738
5.93	-0.5570	-9.3331	-2.2567	0.0161	0.0078	0.0123	-0.4622	23.0106	10.1956	0.3981	-0.4678	0.6311	-0.4739
5.94	-0.5641	-9.3290	-2.2605	0.0077	0.0041	0.0132	-0.3215	22.8573	10.0990	0.3980	-0.4677	0.6311	-0.4738
5.95	-0.5723	-9.3235	-2.2659	0.0108	0.0032	0.0126	-0.4340	22.9334	10.1293	0.3980	-0.4678	0.6311	-0.4739
5.96	-0.5771	-9.3222	-2.2701	0.0043	0.0056	0.0124	-0.5437	22.8635	10.1697	0.3979	-0.4677	0.6311	-0.4738
5.97	-0.5708	-9.3243	-2.2771	0.0168	0.0022	0.0088	-0.4184	23.0437	10.1731	0.3979	-0.4678	0.6311	-0.4738
5.98	-0.5632	-9.3252	-2.2808	0.0162	-0.0062	0.0170	-0.5030	22.8694	10.4376	0.3979	-0.4678	0.6311	-0.4738
5.99	-0.5586	-9.3263	-2.2768	0.0215	-0.0031	0.0204	-0.3014	22.7755	10.1257	0.3980	-0.4678	0.6311	-0.4738
6	-0.5585	-9.3347	-2.2775	0.0125	0.0064	0.0162	-0.2145	22.9377	10.3045	0.3980	-0.4678	0.6312	-0.4738
6.01	-0.5632	-9.3272	-2.2741	0.0183	0.0061	0.0188	-0.1894	22.8644	10.2994	0.3980	-0.4677	0.6312	-0.4738
6.02	-0.5636	-9.3209	-2.2569	0.0100	0.0041	0.0096	-0.1011	22.7709	10.3033	0.3980	-0.4678	0.6312	-0.4738
6.03	-0.5668	-9.3302	-2.2604	0.0143	0.0023	0.0122	-0.2125	22.6272	10.3664	0.3979	-0.4677	0.6311	-0.4738
6.04	-0.5664	-9.3296	-2.2558	0.0142	-0.0009	0.0179	-0.3426	22.7896	10.3440	0.3979	-0.4678	0.6312	-0.4738
6.05	-0.5708	-9.3235	-2.2436	0.0147	-0.0023	0.0152	-0.3509	22.9579	10.2979	0.3979	-0.4678	0.6312	-0.4738
6.06	-0.5678	-9.3259	-2.2454	0.0161	-0.0019	0.0124	-0.2517	22.8087	10.2347	0.3980	-0.4678	0.6312	-0.4738
6.07	-0.5637	-9.3292	-2.2492	0.0101	-0.0024	0.0173	-0.4013	22.8351	10.2705	0.3979	-0.4678	0.6312	-0.4737
6.08	-0.5651	-9.3281	-2.2341	0.0146	-0.0068	0.0192	-0.4660	22.6775	10.2474	0.3980	-0.4678	0.6312	-0.4737
6.09	-0.5585	-9.3213	-2.2303	0.0081	-0.0025	0.0089	-0.4364	22.8579	10.2875	0.3980	-0.4678	0.6312	-0.4737
6.1	-0.5592	-9.3300	-2.2344	0.0093	0.0034	0.0096	-0.5425	22.9149	10.4472	0.3979	-0.4678	0.6311	-0.4736
6.11	-0.5574	-9.3328	-2.2418	0.0128	0.0006	0.0134	-0.4485	22.9812	10.3872	0.3980	-0.4679	0.6312	-0.4737
6.12	-0.5593	-9.3196	-2.2325	0.0130	0.0037	0.0099	-0.4536	22.8391	10.3427	0.3979	-0.4679	0.6312	-0.4736
6.13	-0.5633	-9.3239	-2.2463	0.0056	0.0060	0.0129	-0.4509	22.8029	10.0554	0.3979	-0.4679	0.6313	-0.4737
6.14	-0.5639	-9.3316	-2.2488	0.0075	-0.0002	0.0132	-0.4338	22.8275	10.2020	0.3978	-0.4679	0.6312	-0.4736
6.15	-0.5633	-9.3221	-2.2417	0.0121	0.0070	0.0092	-0.4840	22.9140	10.1899	0.3978	-0.4679	0.6313	-0.4736
6.16	-0.5719	-9.3247	-2.2429	0.0097	0.0034	0.0134	-0.5237	22.7178	10.2798	0.3978	-0.4679	0.6313	-0.4736
6.17	-0.5752	-9.3335	-2.2442	0.0151	0.0006	0.0217	-0.3412	22.8104	10.2911	0.3978	-0.4679	0.6313	-0.4735
6.18	-0.5757	-9.3299	-2.2476	0.0123	0.0028	0.0188	-0.4025	22.9086	10.2476	0.3978	-0.4679	0.6314	-0.4736
6.19	-0.5783	-9.3206	-2.2566	0.0121	0.0004	0.0183	-0.4515	22.7843	10.4922	0.3978	-0.4679	0.6313	-0.4735
6.2	-0.5730	-9.3285	-2.2669	0.0235	0.0032	0.0131	-0.2745	22.8490	10.1517	0.3978	-0.4679	0.6314	-0.4736
6.21	-0.5666	-9.3276	-2.2763	0.0114	0.0004	0.0137	-0.3691	22.7141	10.1686	0.3978	-0.4679	0.6313	-0.4735
6.22	-0.5578	-9.3187	-2.2715	0.0159	-0.0010	0.0159	-0.2847	22.8579	10.2818	0.3978	-0.4679	0.6314	-0.4735
6.23	-0.5532	-9.3211	-2.2664	0.0125	0.0002	0.0110	-0.4297	22.9255	10.2075	0.3978	-0.4679	0.6313	-0.4735
6.24	-0.5492	-9.3320	-2.2686	0.0159	-0.0028	0.0134	-0.2546	22.8739	10.0902	0.3978	-0.4679	0.6313	-0.4735
6.25	-0.5415	-9.3246	-2.2638	0.0175	-0.0000	0.0171	-0.4029	23.0273	9.9601	0.3978	-0.4679	0.6313	-0.4735
6.26	-0.5494	-9.3248	-2.2651	0.0098	0.0015	0.0102	-0.4258	22.9008	10.0234	0.3978	-0.4679	0.6313	-0.4735
6.27	-0.5518	-9.3304	-2.2717	0.0150	-0.0051	0.0145	-0.3568	22.7970	10.3467	0.3978	-0.4680	0.6314	-0.4735
6.28	-0.5542	-9.3243	-2.2676	0.0180	0.0067	0.0079	-0.3800	23.1815	10.3297	0.3977	-0.4679	0.6313	-0.4735
6.29	-0.5589	-9.3242	-2.2727	0.0147	0.0041	0.0096	-0.2898	23.2312	10.2352	0.3977	-0.4679	0.6314	-0.4736
6.3	-0.5622	-9.3282	-2.2681	0.0163	0.0016	0.0113	-0.4089	22.9396	10.2421	0.3977	-0.4679	0.6314	-0.4736
6.31	-0.5621	-9.3270	-2.2632	0.0179	0.0033	0.0076	-0.3545	23.0901	10.2758	0.3977	-0.4679	0.6314	-0.4736
6.32	-0.5611	-9.3218	-2.2599	0.0132	-0.0010	0.0059	-0.3781	22.9412	10.1123	0.3977	-0.4680	0.6313	-0.4736
6.33	-0.5607	-9.3258	-2.2577	0.0158	0.0063	0.0113	-0.3629	23.0556	10.3594	0.3976	-0.4680	0.6313	-0.4736
6.34	-0.5554	-9.3329	-2.2639	0.0122	0.0047	0.0114	-0.2349	22.9597	10.3917	0.3976	-0.4679	0.6314	-0.4736
6.35	-0.5506	-9.3243	-2.2534	0.0150	-0.0013	0.0089	-0.4830	22.9260	10.3035	0.3976	-0.4679	0.6313	-0.4736
6.36	-0.5484	-9.3233	-2.2472	0.0193	-0.0014	0.0147	-0.3387	23.3143	10.4311	0.3976	-0.4680	0.6314	-0.4737
6.37	-0.5566	-9.3351	-2.2566	0.0117	0.0030	0.0192	-0.0354	22.8845	10.4506	0.3976	-0.4679	0.6314	-0.4736
6.38	-0.5598	-9.3341	-2.2496	0.0179	-0.0001	0.0213	-0.0681	22.9195	10.3428	0.3976	-0.4679	0.6315	-0.4737
6.39	-0.5679	-9.3204	-2.2361	0.0225	-0.0042	0.0189	-0.0559	22.8847	10.1890	0.3976	-0.4679	0.6314	-0.4736
6.4	-0.5708	-9.3263	-2.2433	0.0161	0.0035	0.0164	-0.1636	23.3917	10.2481	0.3976	-0.4678	0.6314	-0.4736
6.41	-0.5730	-9.3331	-2.2485	0.0107	-0.0024	0.0155	-0.2974	23.1082	10.1874	0.3976	-0.4678	0.6315	-0.4736
6.42	-0.5761	-9.3240	-2.2472	0.0121	0.0003	0.0140	-0.2993	22.7724	10.2627	0.3976	-0.4678	0.6314	-0.4736
6.43	-0.5710	-9.3208	-2.2460	0.0228	-0.0017	0.0159	-0.3201	23.1213	10.0771	0.3977	-0.4679	0.6315	-0.4736
6.44	-0.5682	-9.3300	-2.2502	0.0109	-0.0011	0.0091	-0.2482	22.9379	10.0777	0.3976	-0.4678	0.6314	-0.4736
6.45	-0.5672	-9.3269	-2.2537	0.0128	0.0033	0.0145	-0.4644	22.8273	10.4088	0.3976	-0.4679	0.6315	-0.4736
6.46	-0.5657	-9.3184	-2.2470	0.0164	-0.0037	0.0175	-0.3752	22.9638	10.3974	0.3976	-0.4678	0.6314	-0.4735
6.47	-0.5686	-9.3290	-2.2594	0.0117	0.0061	0.0097	-0.5228	23.0308	10.1578	0.3976	-0.4679	0.6315	-0.4736
6.48	-0.5655	-9.3270	-2.2614	0.0162	0.0029	0.0120	-0.6273	23.0383	10.1142	0.3976	-0.4679	0.6315	-0.4736
6.49	-0.5675	-9.3169	-2.2516	0.0147	0.0035	0.0150	-0.4379	22.9525	10.1368	0.3976	-0.4678	0.6315	-0.4736
6.5	-0.5670	-9.3227	-2.2543	0.0110	-0.0011	0.0142	-0.4673	22.9382	10.2158	0.3976	-0.4679	0.6315	-0.4736
6.51	-0.5687	-9.3305	-2.2599	0.0114	0.0033	0.0107	-0.6021	22.9387	10.2349	0.3975	-0.4679	0.6315	-0.4736
6.52	-0.5717	-9.3243	-2.2543	0.0087	-0.0010	0.0105	-0.5896	22.9755	10.1396	0.3975	-0.4679	0.6315	-0.4736
6.53	-0.5653	-9.3184	-2.2504	0.0156	0.0096	0.0120	-0.4361	23.1369	10.1262	0.3975	-0.4679	0.6315	-0.4735
6.54	-0.5709	-9.3299	-2.2619	0.0127	0.0002	0.0064	-0.5739	23.0721	10.1084	0.3975	-0.4680	0.6315	-0.4736
6.55	-0.5707	-9.3292	-2.2609	0.0130	0.0020	0.0099	-0.3477	22.8662	9.8698	0.3975	-0.4680	0.6315	-0.4736
6.56	-0.5705	-9.3214	-2.2540	0.0130	-0.0025	0.0106	-0.2086	22.6049	10.1538	0.3975	-0.4680	0.6315	-0.4736
6.57	-0.5736	-9.3263	-2.2578	0.0100	-0.0011	0.0142	-0.3044	22.7225	10.0529	0.3974	-0.4680	0.6315	-0.4735
6.58	-0.5698	-9.3267	-2.2614	0.0111	0.0010	0.0203	-0.3008	22.7820	9.9134	0.3974	-0.4680	0.6315	-0.4735
6.59	-0.5663	-9.3200	-2.2557	0.0169	-0.0012	0.0122	-0.2836	22.8499	10.0571	0.3975	-0.4680	0.6315	-0.4735
6.6	-0.5593	-9.3249	-2.2520	0.0189	-0.0031	0.0129	-0.3782	22.8580	10.3388	0.3974	-0.4680	0.6314	-0.4735
6.61	-0.5578	-9.3366	-2.2611	0.0163	0.0034	0.0195	-0.4805	22.9905	10.0937	0.3975	-0.4680	0.6315	-0.4735
6.62	-0.5624	-9.3242	-2.2552	0.0180	0.0014	0.0105	-0.4341	22.8513	9.9987	0.3975	-0.4680	0.6315	-0.4735
6.63	-0.5592	-9.3215	-2.2515	0.0148	-0.0045	0.0110	-0.4798	22.7729	10.1822	0.3975	-0.4681	0.6315	-0.4735
6.64	-0.5648	-9.3269	-2.2562	0.0138	-0.0042	0.0117	-0.4411	22.6855	10.3439	0.3975	-0.4680	0.6314	-0.4734
6.65	-0.5670	-9.3307	-2.2565	0.0126	-0.0009	0.0147	-0.3988	22.8484	10.2807	0.3975	-0.4681	0.6315	-0.4735
6.66	-0.5673	-9.3225	-2.2537	0.0097	0.0007	0.0143	-0.3179	22.9855	10.1560	0.3975	-0.4681	0.6315	-0.4734
6.67	-0.5695	-9.3237	-2.2583	0.0121	0.0036	0.0130	-0.3535	22.9406	10.1086	0.3974	-0.4680	0.6315	-0.4734
6.68	-0.5701	-9.3311	-2.2553	0.0144	0.0051	0.0156	-0.5793	22.9311	10.2579	0.3975	-0.4681	0.6316	-0.4735
6.69	-0.5668	-9.3238	-2.2550	0.0137	-0.0018	0.0101	-0.4131	23.1176	10.2889	0.3974	-0.4681	0.6315	-0.4734
6.7	-0.5656	-9.3226	-2.2549	0.0139	0.0028	0.0072	-0.5411	22.9925	10.1244	0.3974	-0.4681	0.6316	-0.4735
6.71	-0.5618	-9.3308	-2.2580	0.0114	0.0049	0.0077	-0.5454	22.9102	10.1200	0.3973	-0.4680	0.6315	-0.4734
6.72	-0.5631	-9.3257	-2.2527	0.0121	0.0019	0.0068	-0.5344	23.0584	10.3622	0.3973	-0.4681	0.6315	-0.4735
6.73	-0.5592	-9.3189	-2.2597	0.0097	0.0000	0.0103	-0.4094	22.8518	10.2224	0.3973	-0.4681	0.6315	-0.4734
6.74	-0.5605	-9.3270	-2.2596	0.0224	0.0033	0.0135	-0.3162	22.8796	10.2871	0.3973	-0.4681	0.6315	-0.4735
6.75	-0.5629	-9.3284	-2.2593	0.0112	-0.0003	0.0151	-0.2069	22.8529	10.4268	0.3973	-0.4681	0.6316	-0.4735
6.76	-0.5631	-9.3251	-2.2565	0.0201	-0.0003	0.0123	-0.3568	22.7756	10.2460	0.3973	-0.4681	0.6315	-0.4735
6.77	-0.5652	-9.3209	-2.2590	0.0135	-0.0038	0.0150	-0.2058	22.9562	9.9945	0.3973	-0.4682	0.6315	-0.4735
6.78	-0.5680	-9.3223	-2.2562	0.0152	0.0027	0.0105	-0.3081	22.9439	10.2445	0.3973	-0.4681	0.6315	-0.4734
6.79	-0.5720	-9.3295	-2.2682	0.0187	0.0059	0.0094	-0.3921	22.9584	10.2934	0.3973	-0.4682	0.6315	-0.4735
6.8	-0.5686	-9.3204	-2.2515	0.0134	0.0025	0.0178	-0.3943	22.7705	10.2234	0.3973	-0.4681	0.6315	-0.4735
6.81	-0.5661	-9.3256	-2.2516	0.0137	-0.0016	0.0096	-0.3116	22.8609	10.1370	0.3973	-0.4682	0.6315	-0.4735
6.82	-0.5639	-9.3271	-2.2463	0.0200	-0.0020	0.0165	-0.3028	22.8701	10.2326	0.3973	-0.4681	0.6315	-0.4734
6.83	-0.5629	-9.3207	-2.2418	0.0154	-0.0025	0.0185	-0.5178	22.8735	10.3081	0.3973	-0.4681	0.6315	-0.4734
6.84	-0.5595	-9.3295	-2.2484	0.0111	0.0028	0.0113	-0.4162	22.8242	10.1609	0.3973	-0.4682	0.6315	-0.4734
6.85	-0.5595	-9.3341	-2.2509	0.0134	0.0013	0.0107	-0.5793	23.0246	10.3105	0.3973	-0.4681	0.6315	-0.4734
6.86	-0.5560	-9.3263	-2.2454	0.0148	0.0027	0.0075	-0.3340	23.1235	10.3907	0.3973	-0.4682	0.6316	-0.4735
6.87	-0.5533	-9.3268	-2.2437	0.0138	0.0022	0.0079	-0.1823	23.1355	10.3974	0.3972	-0.4681	0.6316	-0.4735
6.88	-0.5530	-9.3332	-2.2534	0.0067	-0.0007	0.0175	-0.2956	22.9560	10.3892	0.3972	-0.4682	0.6316	-0.4735
6.89	-0.5548	-9.3215	-2.2521	0.0082	0.0066	0.0067	-0.3619	22.9893	10.3018	0.3971	-0.4681	0.6316	-0.4734
6.9	-0.5608	-9.3271	-2.2535	0.0126	0.0090	0.0160	-0.4163	23.5776	10.3416	0.3971	-0.4681	0.6317	-0.4735
6.91	-0.5624	-9.3315	-2.2600	0.0107	0.0025	0.0189	-0.4510	22.9629	10.2469	0.3971	-0.4681	0.6317	-0.4735
6.92	-0.5737	-9.3238	-2.2559	0.0170	0.0026	0.0122	-0.4649	22.9032	9.9198	0.3970	-0.4680	0.6317	-0.4735
6.93	-0.5755	-9.3223	-2.2582	0.0121	-0.0021	0.0121	-0.3222	22.8277	10.1197	0.3971	-0.4681	0.6318	-0.4735
6.94	-0.5791	-9.3258	-2.2729	0.0128	-0.0008	0.0232	-0.0651	22.8643	10.1095	0.3971	-0.4681	0.6317	-0.4734
6.95	-0.5741	-9.3267	-2.2771	0.0166	0.0042	0.0169	-0.1961	22.9648	10.0950	0.3971	-0.4681	0.6318	-0.4735
6.96	-0.5628	-9.3185	-2.2731	0.0110	0.0028	0.0131	-0.3013	22.8001	10.2675	0.3970	-0.4680	0.6317	-0.4734
6.97	-0.5630	-9.3242	-2.2696	0.0189	-0.0016	0.0165	-0.3727	22.8719	10.1068	0.3971	-0.4681	0.6318	-0.4734
6.98	-0.5598	-9.3341	-2.2779	0.0156	0.0012	0.0177	-0.3878	22.9377	10.1756	0.3971	-0.4680	0.6318	-0.4734
6.99	-0.5560	-9.3292	-2.2722	0.0161	-0.0010	0.0206	-0.2773	23.1803	10.0447	0.3971	-0.4680	0.6318	-0.4734
7	-0.5547	-9.3204	-2.2640	0.0150	0.0070	0.0168	-0.3932	23.0558	10.1458	0.3971	-0.4680	0.6318	-0.4734
7.01	-0.5608	-9.3232	-2.2557	0.0224	0.0078	0.0119	-0.4432	22.9982	10.2923	0.3971	-0.4680	0.6318	-0.4734
7.02	-0.5619	-9.3252	-2.2437	0.0101	-0.0028	0.0157	-0.3217	22.9459	10.2979	0.3971	-0.4680	0.6318	-0.4734
7.03	-0.5710	-9.3322	-2.2502	0.0099	0.0031	0.0103	-0.4678	22.9032	10.0386	0.3970	-0.4680	0.6318	-0.4734
7.04	-0.5686	-9.3245	-2.2388	0.0131	-0.0046	0.0139	-0.4302	22.9123	10.0559	0.3971	-0.4680	0.6318	-0.4734
7.05	-0.5738	-9.3287	-2.2494	0.0105	0.0038	0.0117	-0.3296	22.7951	10.2246	0.3970	-0.4680	0.6318	-0.4734
7.06	-0.5708	-9.3220	-2.2391	0.0178	0.0020	0.0125	-0.4498	22.9002	10.2142	0.3971	-0.4680	0.6318	-0.4734
7.07	-0.5768	-9.3244	-2.2370	0.0151	0.0038	0.0130	-0.4608	23.0195	10.3396	0.3970	-0.4680	0.6318	-0.4734
7.08	-0.5744	-9.3282	-2.2353	0.0083	0.0081	0.0079	-0.2301	22.8547	10.2843	0.3970	-0.4680	0.6318	-0.4734
7.09	-0.5663	-9.3256	-2.2397	0.0154	0.0021	0.0103	-0.3779	23.0350	10.2004	0.3970	-0.4681	0.6318	-0.4734
7.1	-0.5678	-9.3238	-2.2394	0.0126	-0.0003	0.0034	-0.3398	22.8039	9.9417	0.3969	-0.4681	0.6318	-0.4734
7.11	-0.5635	-9.3290	-2.2437	0.0161	0.0027	0.0099	-0.5069	23.0677	10.1126	0.3970	-0.4681	0.6318	-0.4735
7.12	-0.5620	-9.3282	-2.2407	0.0135	-0.0054	0.0184	-0.3443	23.0036	10.2406	0.3970	-0.4681	0.6318	-0.4734
7.13	-0.5647	-9.3196	-2.2406	0.0128	0.0014	0.0144	-0.3182	22.8822	10.2985	0.3970	-0.4682	0.6319	-0.4734
7.14	-0.5660	-9.3215	-2.2354	0.0076	-0.0007	0.0163	-0.4916	22.9213	10.3195	0.3969	-0.4681	0.6318	-0.4733
7.15	-0.5652	-9.3262	-2.2415	0.0061	-0.0011	0.0147	-0.3295	22.8232	10.3432	0.3969	-0.4682	0.6319	-0.4733
7.16	-0.5718	-9.3265	-2.2463	0.0090	0.0014	0.0167	-0.4090	22.9708	10.2225	0.3969	-0.4682	0.6319	-0.4733
7.17	-0.5738	-9.3251	-2.2534	0.0075	-0.0013	0.0146	-0.2666	22.7986	10.0424	0.3969	-0.4681	0.6319	-0.4732
7.18	-0.5700	-9.3310	-2.2687	0.0089	-0.0033	0.0137	-0.3849	23.0389	10.0455	0.3969	-0.4682	0.6320	-0.4733
7.19	-0.5651	-9.3255	-2.2711	0.0104	0.0046	0.0169	-0.6026	22.9630	10.2321	0.3969	-0.4682	0.6319	-0.4732
7.2	-0.5582	-9.3250	-2.2654	0.0123	0.0053	0.0150	-0.3824	22.8467	10.3542	0.3969	-0.4682	0.6320	-0.4732
7.21	-0.5506	-9.3280	-2.2704	0.0106	-0.0036	0.0126	-0.3718	22.8114	10.3043	0.3969	-0.4682	0.6319	-0.4731
7.22	-0.5514	-9.3276	-2.2746	0.0060	0.0032	0.0086	-0.3562	23.0792	10.3198	0.3969	-0.4683	0.6320	-0.4732
7.23	-0.5415	-9.3192	-2.2684	0.0111	-0.0004	0.0138	-0.4232	23.0375	10.3245	0.3968	-0.4683	0.6320	-0.4731
7.24	-0.5464	-9.3262	-2.2687	0.0101	0.0035	0.0069	-0.4590	22.9756	10.2432	0.3968	-0.4683	0.6320	-0.4731
7.25	-0.5502	-9.3302	-2.2715	0.0116	0.0033	0.0098	-0.5390	23.0115	10.2115	0.3968	-0.4683	0.6320	-0.4731
7.26	-0.5503	-9.3220	-2.2708	0.0099	0.0026	0.0115	-0.3984	22.8595	10.1237	0.3968	-0.4683	0.6320	-0.4731
7.27	-0.5580	-9.3207	-2.2670	0.0132	0.0058	0.0101	-0.3595	23.0115	10.3755	0.3967	-0.4683	0.6320	-0.4732
7.28	-0.5653	-9.3271	-2.2712	0.0106	-0.0019	0.0144	-0.4338	22.9772	10.1045	0.3967	-0.4683	0.6320	-0.4731
7.29	-0.5652	-9.3254	-2.2665	0.0164	0.0032	0.0085	-0.5819	22.9394	10.1972	0.3967	-0.4684	0.6320	-0.4731
7.3	-0.5648	-9.3245	-2.2637	0.0118	-0.0022	0.0151	-0.4304	22.8114	10.1720	0.3967	-0.4683	0.6320	-0.4731
7.31	-0.5629	-9.3291	-2.2581	0.0122	0.0031	0.0085	-0.3550	22.7751	10.2174	0.3967	-0.4684	0.6320	-0.4731
7.32	-0.5649	-9.3303	-2.2558	0.0093	0.0011	0.0128	-0.3647	23.0374	10.2195	0.3967	-0.4684	0.6320	-0.4731
7.33	-0.5512	-9.3191	-2.2447	0.0116	-0.0042	0.0114	-0.3917	22.7452	10.1752	0.3967	-0.4684	0.6320	-0.4731
7.34	-0.5554	-9.3438	-2.2689	0.0121	-0.0010	0.0134	-0.4618	22.7474	10.1983	0.3967	-0.4684	0.6320	-0.4731
7.35	-0.5555	-9.3258	-2.2520	0.0164	-0.0032	0.0152	-0.4759	22.8058	10.1835	0.3967	-0.4684	0.6320	-0.4730
7.36	-0.5586	-9.3142	-2.2406	0.0198	0.0019	0.0121	-0.0466	23.0594	10.4764	0.3967	-0.4685	0.6320	-0.4731
7.37	-0.5683	-9.3248	-2.2448	0.0125	0.0036	0.0143	0.1602	23.0922	10.2175	0.3967	-0.4684	0.6320	-0.4730
7.38	-0.5698	-9.3385	-2.2494	0.0135	-0.0030	0.0111	0.0624	23.0798	10.3074	0.3967	-0.4685	0.6321	-0.4731
7.39	-0.5701	-9.3255	-2.2431	0.0110	-0.0067	0.0170	-0.1085	23.2958	10.1803	0.3967	-0.4684	0.6320	-0.4730
7.4	-0.5661	-9.3144	-2.2394	0.0187	-0.0032	0.0166	-0.3701	23.8076	10.1487	0.3967	-0.4684	0.6320	-0.4730
7.41	-0.5739	-9.3302	-2.2517	0.0167	0.0041	0.0124	-0.5325	23.0424	10.4153	0.3967	-0.4684	0.6320	-0.4730
7.42	-0.5708	-9.3307	-2.2561	0.0112	-0.0005	0.0108	-0.5298	23.0463	10.3302	0.3966	-0.4684	0.6320	-0.4730
7.43	-0.5720	-9.3208	-2.2550	0.0134	0.0015	0.0114	-0.6273	22.9939	10.1798	0.3967	-0.4684	0.6321	-0.4731
7.44	-0.5666	-9.3204	-2.2548	0.0147	0.0037	0.0135	-0.4591	23.0103	10.2862	0.3966	-0.4684	0.6321	-0.4731
7.45	-0.5621	-9.3294	-2.2577	0.0123	-0.0001	0.0175	-0.5079	22.9143	10.5088	0.3967	-0.4684	0.6321	-0.4731
7.46	-0.5590	-9.3212	-2.2550	0.0147	0.0037	0.0094	-0.5628	22.9929	10.3961	0.3966	-0.4683	0.6320	-0.4730
7.47	-0.5546	-9.3230	-2.2581	0.0112	-0.0005	0.0125	-0.5076	22.8699	10.2571	0.3966	-0.4684	0.6321	-0.4730
7.48	-0.5591	-9.3308	-2.2574	0.0103	-0.0073	0.0172	-0.4047	22.6803	10.2502	0.3966	-0.4684	0.6321	-0.4730
7.49	-0.5651	-9.3294	-2.2566	0.0190	-0.0067	0.0201	-0.2872	22.8583	10.4224	0.3967	-0.4684	0.6321	-0.4730
7.5	-0.5664	-9.3202	-2.2514	0.0149	-0.0009	0.0150	-0.3045	22.8083	10.3953	0.3967	-0.4684	0.6321	-0.4730
7.51	-0.5700	-9.3279	-2.2537	0.0099	-0.0004	0.0115	-0.2629	22.6126	10.4068	0.3967	-0.4684	0.6321	-0.4729
7.52	-0.5709	-9.3342	-2.2629	0.0119	-0.0017	0.0102	-0.1820	22.7383	10.2048	0.3967	-0.4685	0.6321	-0.4729
7.53	-0.5717	-9.3267	-2.2586	0.0101	-0.0008	0.0111	-0.2232	22.7688	10.3409	0.3966	-0.4684	0.6320	-0.4729
7.54	-0.5693	-9.3209	-2.2566	0.0114	-0.0006	0.0142	-0.2931	22.6235	10.2930	0.3967	-0.4685	0.6321	-0.4729
7.55	-0.5711	-9.3304	-2.2551	0.0180	-0.0004	0.0089	-0.2941	22.7396	10.2320	0.3967	-0.4685	0.6321	-0.4729
7.56	-0.5652	-9.3265	-2.2520	0.0235	-0.0021	0.0090	-0.2846	22.6833	10.4324	0.3967	-0.4685	0.6321	-0.4729
7.57	-0.5619	-9.3211	-2.2482	0.0121	-0.0025	0.0130	-0.3101	22.6619	10.3126	0.3967	-0.4685	0.6320	-0.4729
7.58	-0.5624	-9.3282	-2.2533	0.0160	-0.0074	0.0137	-0.3617	22.7686	10.1811	0.3967	-0.4685	0.6320	-0.4729
7.59	-0.5662	-9.3291	-2.2563	0.0113	-0.0018	0.0138	-0.4231	22.7613	10.3407	0.3967	-0.4686	0.6320	-0.4729
7.6	-0.5640	-9.3245	-2.2539	0.0111	-0.0012	0.0085	-0.4795	23.0051	10.5030	0.3967	-0.4685	0.6320	-0.4728
7.61	-0.5637	-9.3274	-2.2559	0.0111	-0.0042	0.0101	-0.3569	23.0876	10.4830	0.3967	-0.4686	0.6321	-0.4729
7.62	-0.5632	-9.3309	-2.2553	0.0136	0.0022	0.0122	-0.5187	22.9216	10.3103	0.3967	-0.4686	0.6320	-0.4729
7.63	-0.5658	-9.3243	-2.2511	0.0166	-0.0021	0.0112	-0.5463	22.9125	10.1190	0.3967	-0.4686	0.6321	-0.4729
7.64	-0.5684	-9.3218	-2.2475	0.0081	-0.0013	0.0162	-0.4315	22.8958	10.1387	0.3966	-0.4686	0.6320	-0.4728
7.65	-0.5627	-9.3282	-2.2540	0.0081	0.0022	0.0080	-0.4764	23.0466	10.2549	0.3966	-0.4687	0.6321	-0.4728
7.66	-0.5621	-9.3334	-2.2591	0.0131	-0.0008	0.0103	-0.3915	23.0487	10.3380	0.3966	-0.4687	0.6320	-0.4728
7.67	-0.5627	-9.3260	-2.2532	0.0125	-0.0042	0.0161	-0.3750	22.9007	10.2187	0.3966	-0.4687	0.6320	-0.4728
7.68	-0.5565	-9.3220	-2.2541	0.0088	-0.0014	0.0180	-0.2672	22.8202	10.2280	0.3967	-0.4687	0.6321	-0.4728
7.69	-0.5642	-9.3309	-2.2613	0.0129	-0.0022	0.0119	-0.0754	22.9858	10.2414	0.3966	-0.4687	0.6321	-0.4727
7.7	-0.5505	-9.3211	-2.2445	0.0131	0.0025	0.0082	-0.2357	22.7549	10.4110	0.3967	-0.4687	0.6321	-0.4728
7.71	-0.5607	-9.3312	-2.2565	0.0134	0.0008	0.0133	-0.4966	22.8210	9.9848	0.3966	-0.4687	0.6320	-0.4727
7.72	-0.5640	-9.3359	-2.2548	0.0120	-0.0012	0.0108	-0.2739	22.8236	10.1452	0.3966	-0.4688	0.6321	-0.4727
7.73	-0.5719	-9.3224	-2.2514	0.0166	-0.0005	0.0080	-0.1003	22.8748	10.5268	0.3966	-0.4688	0.6320	-0.4727
7.74	-0.5765	-9.3173	-2.2480	0.0100	-0.0006	0.0093	-0.3510	22.9367	10.1937	0.3966	-0.4688	0.6320	-0.4727
7.75	-0.5673	-9.3366	-2.2565	0.0077	-0.0002	0.0091	-0.1435	22.8999	10.2457	0.3966	-0.4688	0.6321	-0.4727
7.76	-0.5803	-9.3253	-2.2499	0.0171	-0.0073	0.0201	-0.2972	22.8047	10.2153	0.3966	-0.4688	0.6320	-0.4727
7.77	-0.5645	-9.3226	-2.2496	0.0149	-0.0068	0.0098	-0.3789	22.8797	10.0633	0.3967	-0.4689	0.6320	-0.4727
7.78	-0.5667	-9.3263	-2.2518	0.0081	-0.0034	0.0133	-0.4262	23.0057	10.4322	0.3966	-0.4688	0.6320	-0.4726
7.79	-0.5609	-9.3292	-2.2476	0.0109	0.0028	0.0086	-0.6692	22.9710	10.3470	0.3966	-0.4689	0.6320	-0.4726
7.8	-0.5513	-9.3251	-2.2448	0.0106	-0.0011	0.0156	-0.4199	23.0356	10.3401	0.3966	-0.4689	0.6320	-0.4726
7.81	-0.5481	-9.3172	-2.2351	0.0138	0.0049	0.0115	-0.5497	23.1122	10.4120	0.3965	-0.4688	0.6321	-0.4727
7.82	-0.5462	-9.3251	-2.2489	0.0160	0.0055	0.0091	-0.5092	22.9576	10.3948	0.3965	-0.4688	0.6321	-0.4727
7.83	-0.5512	-9.3309	-2.2535	0.0082	-0.0013	0.0099	-0.4928	22.9184	10.3799	0.3965	-0.4689	0.6321	-0.4727
7.84	-0.5557	-9.3279	-2.2522	0.0071	0.0031	0.0173	-0.6717	23.0326	10.2610	0.3965	-0.4689	0.6321	-0.4727
7.85	-0.5636	-9.3250	-2.2540	0.0147	-0.0021	0.0116	-0.5185	22.8746	10.3967	0.3965	-0.4688	0.6321	-0.4726
7.86	-0.5750	-9.3275	-2.2549	0.0230	0.0003	0.0149	-0.4490	23.0341	10.5038	0.3965	-0.4689	0.6321	-0.4727
7.87	-0.5758	-9.3234	-2.2529	0.0105	-0.0024	0.0111	-0.0464	22.9360	10.4645	0.3965	-0.4689	0.6321	-0.4726
7.88	-0.5790	-9.3228	-2.2609	0.0117	0.0061	0.0116	-0.1174	22.8782	10.3224	0.3965	-0.4689	0.6322	-0.4727
7.89	-0.5745	-9.3274	-2.2732	0.0175	0.0025	0.0136	-0.2440	23.0032	10.1219	0.3965	-0.4688	0.6321	-0.4726
7.9	-0.5643	-9.3280	-2.2770	0.0109	-0.0018	0.0111	-0.1940	23.5098	10.1028	0.3965	-0.4689	0.6321	-0.4726
7.91	-0.5563	-9.3209	-2.2740	0.0146	-0.0016	0.0089	-0.2230	22.8721	10.0268	0.3965	-0.4689	0.6321	-0.4726
7.92	-0.5478	-9.3250	-2.2673	0.0100	-0.0025	0.0122	-0.2043	22.7251	10.2755	0.3964	-0.4689	0.6321	-0.4726
7.93	-0.5457	-9.3351	-2.2703	0.0057	0.0002	0.0146	-0.2327	22.8861	10.3316	0.3965	-0.4690	0.6322	-0.4726
7.94	-0.5478	-9.3241	-2.2647	0.0168	0.0002	0.0044	-0.3236	22.8529	10.1492	0.3964	-0.4690	0.6321	-0.4726
7.95	-0.5505	-9.3207	-2.2533	0.0116	-0.0018	0.0078	-0.4587	22.7964	10.3372	0.3964	-0.4690	0.6321	-0.4726
7.96	-0.5587	-9.3297	-2.2542	0.0087	-0.0042	0.0140	-0.4455	22.6830	10.0458	0.3964	-0.4690	0.6320	-0.4725
7.97	-0.5634	-9.3242	-2.2518	0.0074	-0.0013	0.0075	-0.2713	22.6569	10.1225	0.3964	-0.4691	0.6321	-0.4725
7.98	-0.5688	-9.3246	-2.2432	0.0132	0.0092	0.0138	-0.4378	22.8113	10.3905	0.3964	-0.4691	0.6321	-0.4725
7.99	-0.5750	-9.3243	-2.2425	0.0110	-0.0020	0.0107	-0.2734	23.0804	10.1897	0.3964	-0.4691	0.6321	-0.4725
8	-0.5736	-9.3279	-2.2458	0.0087	-0.0001	0.0127	-0.3890	22.8920	10.0608	0.3964	-0.4691	0.6321	-0.4725
8.01	-0.5782	-9.3268	-2.2397	0.0115	0.0004	0.0118	-0.3697	22.8509	10.2132	0.3963	-0.4691	0.6321	-0.4725
8.02	-0.5775	-9.3266	-2.2432	0.0154	0.0033	0.0096	-0.5599	22.8486	10.1325	0.3964	-0.4691	0.6321	-0.4725
8.03	-0.5751	-9.3252	-2.2418	0.0095	0.0004	0.0116	-0.4531	22.8562	10.2907	0.3963	-0.4691	0.6321	-0.4725
8.04	-0.5765	-9.3236	-2.2385	0.0061	0.0006	0.0136	-0.2769	22.9534	10.0067	0.3963	-0.4692	0.6322	-0.4725
8.05	-0.5726	-9.3225	-2.2349	0.0055	-0.0033	0.0133	-0.4120	22.9378	10.0394	0.3963	-0.4692	0.6321	-0.4724
8.06	-0.5631	-9.3249	-2.2275	0.0070	-0.0080	0.0191	-0.3056	22.8944	10.0984	0.3963	-0.4692	0.6322	-0.4724
8.07	-0.5649	-9.3363	-2.2462	0.0086	-0.0033	0.0160	-0.1990	22.7339	10.0882	0.3963	-0.4692	0.6322	-0.4723
8.08	-0.5705	-9.3240	-2.2339	0.0068	-0.0031	0.0153	-0.1239	22.8298	10.2124	0.3963	-0.4692	0.6322	-0.4723
8.09	-0.5766	-9.3175	-2.2326	0.0035	-0.0091	0.0117	-0.3049	23.0323	10.1369	0.3963	-0.4693	0.6322	-0.4722
8.1	-0.5846	-9.3359	-2.2484	0.0068	-0.0018	0.0112	-0.2887	22.9641	10.2585	0.3963	-0.4693	0.6322	-0.4722
8.11	-0.5858	-9.3342	-2.2587	0.0058	-0.0075	0.0153	-0.2282	22.7001	10.2784	0.3963	-0.4694	0.6323	-0.4722
8.12	-0.5835	-9.3174	-2.2563	0.0071	-0.0037	0.0111	-0.3150	22.7534	10.0906	0.3963	-0.4694	0.6322	-0.4721
8.13	-0.5775	-9.3245	-2.2667	0.0135	-0.0023	0.0103	-0.2902	22.9563	10.1389	0.3963	-0.4694	0.6323	-0.4722
8.14	-0.5631	-9.3366	-2.2743	0.0082	-0.0043	0.0098	-0.2985	22.9386	10.2061	0.3963	-0.4694	0.6322	-0.4721
8.15	-0.5531	-9.3310	-2.2690	0.0075	0.0010	0.0161	-0.1979	23.0397	10.0030	0.3963	-0.4695	0.6322	-0.4721
8.16	-0.5395	-9.3250	-2.2573	0.0104	-0.0017	0.0045	-0.3755	22.8656	10.0415	0.3963	-0.4695	0.6322	-0.4721
8.17	-0.5374	-9.3320	-2.2611	-0.0012	0.0029	0.0053	-0.3741	23.1349	10.1527	0.3962	-0.4695	0.6322	-0.4720
8.18	-0.5382	-9.3305	-2.2597	0.0041	-0.0009	0.0088	-0.3830	22.8910	10.2072	0.3962	-0.4696	0.6323	-0.4721
8.19	-0.5410	-9.3242	-2.2562	0.0064	0.0035	0.0072	-0.2412	22.9823	10.2319	0.3961	-0.4696	0.6323	-0.4720
8.2	-0.5486	-9.3260	-2.2606	0.0054	0.0045	0.0141	-0.4336	22.8051	10.1526	0.3961	-0.4696	0.6324	-0.4720
8.21	-0.5556	-9.3272	-2.2596	0.0137	0.0033	0.0105	-0.4725	22.7482	10.1731	0.3960	-0.4696	0.6323	-0.4720
8.22	-0.5556	-9.3286	-2.2537	0.0091	0.0016	0.0081	-0.3457	22.8913	10.0786	0.3961	-0.4696	0.6323	-0.4720
8.23	-0.5567	-9.3279	-2.2530	0.0147	-0.0009	0.0109	-0.5518	22.9861	10.2181	0.3960	-0.4696	0.6323	-0.4720
8.24	-0.5530	-9.3257	-2.2478	0.0125	-0.0024	0.0179	-0.4629	23.0419	10.0746	0.3961	-0.4696	0.6323	-0.4720
8.25	-0.5552	-9.3221	-2.2482	0.0132	-0.0016	0.0160	-0.4415	22.9070	10.0735	0.3961	-0.4696	0.6323	-0.4720
8.26	-0.5531	-9.3219	-2.2419	0.0150	-0.0005	0.0116	-0.4594	22.9590	9.9694	0.3961	-0.4696	0.6323	-0.4719
8.27	-0.5537	-9.3330	-2.2415	0.0076	-0.0007	0.0196	-0.2328	23.0807	10.0067	0.3961	-0.4697	0.6324	-0.4719
8.28	-0.5547	-9.3315	-2.2480	0.0161	0.0003	0.0101	-0.1721	22.8262	9.9822	0.3961	-0.4696	0.6323	-0.4719
8.29	-0.5514	-9.3305	-2.2433	0.0162	-0.0010	0.0152	-0.5372	22.8836	10.2353	0.3961	-0.4697	0.6324	-0.4719
8.3	-0.5591	-9.3332	-2.2470	0.0117	-0.0003	0.0104	-0.6619	22.9254	10.0833	0.3961	-0.4697	0.6323	-0.4719
8.31	-0.5574	-9.3274	-2.2472	0.0132	-0.0007	0.0122	-0.4911	23.0150	10.1365	0.3961	-0.4697	0.6323	-0.4719
8.32	-0.5610	-9.3211	-2.2440	0.0058	-0.0026	0.0087	-0.3380	22.9231	10.1929	0.3961	-0.4697	0.6323	-0.4719
8.33	-0.5643	-9.3253	-2.2430	0.0136	-0.0024	0.0131	-0.4267	22.9645	10.2653	0.3961	-0.4697	0.6323	-0.4719
8.34	-0.5670	-9.3320	-2.2506	0.0156	0.0020	0.0081	-0.2786	23.0194	10.0551	0.3961	-0.4697	0.6323	-0.4719
8.35	-0.5715	-9.3231	-2.2534	0.0083	0.0022	0.0077	-0.4039	22.8043	10.2492	0.3960	-0.4697	0.6323	-0.4718
8.36	-0.5733	-9.3251	-2.2478	0.0091	0.0035	0.0042	-0.2414	22.9039	10.2801	0.3960	-0.4698	0.6323	-0.4719
8.37	-0.5757	-9.3285	-2.2497	0.0091	-0.0016	0.0052	0.1426	23.0700	10.3954	0.3960	-0.4698	0.6323	-0.4719
8.38	-0.5749	-9.3308	-2.2570	0.0069	-0.0060	0.0103	0.0203	23.1690	10.5061	0.3960	-0.4699	0.6324	-0.4719
8.39	-0.5717	-9.3260	-2.2467	0.0111	0.0023	0.0096	-0.4033	23.3492	10.3302	0.3959	-0.4698	0.6323	-0.4718
8.4	-0.5745	-9.3306	-2.2531	0.0145	0.0057	0.0089	-0.4098	23.6774	10.1944	0.3959	-0.4698	0.6323	-0.4719
8.41	-0.5714	-9.3330	-2.2563	0.0135	0.0014	0.0165	-0.3717	22.9344	10.1464	0.3959	-0.4698	0.6324	-0.4719
8.42	-0.5698	-9.3216	-2.2509	0.0121	-0.0037	0.0129	-0.4763	22.7533	10.1187	0.3959	-0.4698	0.6323	-0.4718
8.43	-0.5690	-9.3255	-2.2523	0.0140	-0.0081	0.0143	-0.3113	22.9430	10.1089	0.3960	-0.4699	0.6324	-0.4719
8.44	-0.5703	-9.3307	-2.2603	0.0092	-0.0061	0.0183	-0.3870	22.8887	10.0225	0.3959	-0.4699	0.6323	-0.4718
8.45	-0.5706	-9.3261	-2.2560	0.0139	-0.0012	0.0143	-0.2897	22.8663	10.2273	0.3960	-0.4699	0.6324	-0.4718
8.46	-0.5757	-9.3225	-2.2599	0.0129	-0.0008	0.0156	-0.2071	22.7197	10.2085	0.3959	-0.4698	0.6323	-0.4717
8.47	-0.5738	-9.3261	-2.2618	0.0100	-0.0022	0.0104	-0.0563	22.6433	10.1174	0.3960	-0.4699	0.6324	-0.4718
8.48	-0.5787	-9.3290	-2.2565	0.0113	-0.0029	0.0120	-0.2159	22.6862	10.1447	0.3960	-0.4699	0.6323	-0.4717
8.49	-0.5763	-9.3246	-2.2604	0.0057	-0.0052	0.0087	-0.2938	22.8247	10.0494	0.3960	-0.4699	0.6323	-0.4717
8.5	-0.5691	-9.3247	-2.2551	0.0097	-0.0050	0.0049	-0.2491	22.8226	10.0145	0.3960	-0.4700	0.6323	-0.4717
8.51	-0.5649	-9.3307	-2.2618	0.0120	-0.0008	0.0093	-0.4072	22.5631	10.0856	0.3959	-0.4700	0.6323	-0.4717
8.52	-0.5603	-9.3308	-2.2547	0.0159	-0.0018	0.0152	-0.4527	22.8259	10.1304	0.3960	-0.4701	0.6323	-0.4717
8.53	-0.5557	-9.3257	-2.2550	0.0142	0.0005	0.0113	-0.3462	23.0838	10.1031	0.3959	-0.4700	0.6323	-0.4716
8.54	-0.5505	-9.3260	-2.2512	0.0124	-0.0028	0.0108	-0.3525	23.0724	10.2232	0.3960	-0.4701	0.6323	-0.4717
8.55	-0.5517	-9.3245	-2.2497	0.0154	0.0003	0.0104	-0.5005	23.0274	10.1890	0.3960	-0.4701	0.6323	-0.4717
8.56	-0.5556	-9.3256	-2.2541	0.0135	0.0015	0.0060	-0.5216	22.9485	10.2121	0.3960	-0.4701	0.6323	-0.4717
8.57	-0.5635	-9.3246	-2.2542	0.0094	0.0007	0.0047	-0.5070	23.0854	10.1855	0.3959	-0.4701	0.6322	-0.4717
8.58	-0.5701	-9.3302	-2.2526	0.0165	0.0007	0.0147	-0.5162	23.0404	10.2056	0.3959	-0.4701	0.6323	-0.4717
8.59	-0.5729	-9.3228	-2.2542	0.0147	-0.0004	0.0135	-0.5067	22.9072	10.1939	0.3959	-0.4701	0.6323	-0.4717
8.6	-0.5727	-9.3229	-2.2626	0.0107	-0.0002	0.0163	-0.5313	22.8890	10.2213	0.3959	-0.4701	0.6322	-0.4716
8.61	-0.5753	-9.3277	-2.2526	0.0191	-0.0089	0.0195	-0.4032	22.8964	10.1774	0.3960	-0.4701	0.6323	-0.4717
8.62	-0.5711	-9.3302	-2.2564	0.0157	-0.0029	0.0116	-0.3356	22.9075	10.1064	0.3960	-0.4701	0.6322	-0.4716
8.63	-0.5671	-9.3257	-2.2482	0.0195	-0.0010	0.0107	-0.1269	22.8594	10.1213	0.3960	-0.4702	0.6323	-0.4717
8.64	-0.5636	-9.3219	-2.2495	0.0174	-0.0004	0.0164	-0.0954	22.6999	10.1541	0.3960	-0.4701	0.6322	-0.4716
8.65	-0.5635	-9.3268	-2.2452	0.0141	-0.0011	0.0134	-0.2320	22.8989	10.1971	0.3960	-0.4701	0.6322	-0.4716
8.66	-0.5611	-9.3280	-2.2442	0.0159	0.0008	0.0105	-0.5009	22.8421	10.2814	0.3960	-0.4701	0.6322	-0.4717
8.67	-0.5579	-9.3231	-2.2438	0.0192	0.0015	0.0163	-0.4730	22.8012	10.2214	0.3960	-0.4701	0.6322	-0.4716
8.68	-0.5610	-9.3279	-2.2428	0.0094	-0.0023	0.0097	-0.2164	22.8176	10.1242	0.3961	-0.4702	0.6322	-0.4717
8.69	-0.5601	-9.3252	-2.2430	0.0135	-0.0005	0.0125	-0.1868	22.8584	10.0842	0.3961	-0.4701	0.6322	-0.4716
8.7	-0.5560	-9.3254	-2.2529	0.0153	-0.0058	0.0182	-0.2079	22.9228	10.2788	0.3961	-0.4702	0.6322	-0.4716
8.71	-0.5532	-9.3273	-2.2547	0.0130	-0.0004	0.0125	-0.5536	22.8831	10.1998	0.3961	-0.4701	0.6321	-0.4716
8.72	-0.5528	-9.3288	-2.2554	0.0166	0.0021	0.0114	-0.4738	22.9001	10.1149	0.3961	-0.4701	0.6322	-0.4716
8.73	-0.5584	-9.3249	-2.2571	0.0151	-0.0026	0.0135	-0.4404	22.9000	10.2186	0.3961	-0.4701	0.6322	-0.4716
8.74	-0.5630	-9.3213	-2.2604	0.0129	0.0030	0.0081	-0.3483	22.8919	10.2787	0.3961	-0.4701	0.6321	-0.4716
8.75	-0.5714	-9.3197	-2.2627	0.0105	-0.0012	0.0116	-0.5390	23.0013	10.1982	0.3961	-0.4702	0.6322	-0.4716
8.76	-0.5748	-9.3271	-2.2770	0.0119	-0.0003	0.0117	-0.4752	22.9468	10.0793	0.3961	-0.4702	0.6322	-0.4716
8.77	-0.5652	-9.3207	-2.2663	0.0153	0.0049	0.0144	-0.4122	22.8712	10.1421	0.3961	-0.4702	0.6322	-0.4716
8.78	-0.5535	-9.3225	-2.2689	0.0126	-0.0002	0.0117	-0.4373	22.9252	10.0922	0.3960	-0.4701	0.6321	-0.4716
8.79	-0.5593	-9.3410	-2.2854	0.0217	-0.0017	0.0146	-0.4391	22.8596	10.1494	0.3961	-0.4702	0.6322	-0.4716
8.8	-0.5453	-9.3190	-2.2538	0.0161	0.0004	0.0163	-0.2496	22.8273	10.2241	0.3961	-0.4701	0.6321	-0.4716
8.81	-0.5581	-9.3268	-2.2643	0.0132	0.0006	0.0160	-0.1473	22.7657	10.2089	0.3961	-0.4702	0.6322	-0.4716
8.82	-0.5600	-9.3317	-2.2629	0.0125	-0.0010	0.0158	-0.3833	22.6340	10.2092	0.3961	-0.4701	0.6321	-0.4716
8.83	-0.5676	-9.3266	-2.2540	0.0173	-0.0030	0.0169	-0.3373	22.7729	10.2262	0.3962	-0.4701	0.6322	-0.4716
8.84	-0.5726	-9.3202	-2.2442	0.0187	0.0003	0.0145	-0.3584	22.8947	10.1748	0.3962	-0.4701	0.6322	-0.4716
8.85	-0.5704	-9.3305	-2.2597	0.0124	-0.0047	0.0116	-0.3662	22.8871	10.3211	0.3962	-0.4701	0.6321	-0.4716
8.86	-0.5751	-9.3299	-2.2460	0.0207	-0.0057	0.0124	-0.1635	23.0216	10.2546	0.3963	-0.4702	0.6321	-0.4716
8.87	-0.5760	-9.3202	-2.2404	0.0135	-0.0025	0.0164	0.1744	23.0691	10.5602	0.3962	-0.4701	0.6321	-0.4716
8.88	-0.5761	-9.3221	-2.2411	0.0091	-0.0020	0.0155	-0.0581	23.0594	10.3869	0.3963	-0.4702	0.6322	-0.4716
8.89	-0.5697	-9.3293	-2.2460	0.0121	-0.0032	0.0123	-0.3943	23.1921	10.0201	0.3962	-0.4701	0.6321	-0.4715
8.9	-0.5664	-9.3325	-2.2453	0.0123	-0.0030	0.0133	-0.3819	23.4324	10.1289	0.3963	-0.4702	0.6321	-0.4715
8.91	-0.5673	-9.3211	-2.2423	0.0078	0.0000	0.0117	-0.3241	23.1519	10.0834	0.3963	-0.4702	0.6321	-0.4715
8.92	-0.5618	-9.3210	-2.2454	0.0126	0.0022	0.0119	-0.2818	23.0899	10.0798	0.3962	-0.4702	0.6321	-0.4715
8.93	-0.5628	-9.3292	-2.2426	0.0097	-0.0007	0.0148	-0.3870	22.9227	10.3336	0.3963	-0.4702	0.6322	-0.4715
8.94	-0.5645	-9.3276	-2.2478	0.0075	0.0017	0.0103	-0.5435	22.8166	10.1879	0.3962	-0.4702	0.6321	-0.4715
8.95	-0.5671	-9.3236	-2.2451	0.0045	-0.0015	0.0134	-0.6500	22.8966	10.0645	0.3962	-0.4703	0.6322	-0.4715
8.96	-0.5786	-9.3280	-2.2454	0.0063	0.0021	0.0124	-0.5353	23.1112	10.1022	0.3962	-0.4702	0.6321	-0.4714
8.97	-0.5845	-9.3256	-2.2456	0.0111	0.0003	0.0124	-0.5227	22.9884	10.2187	0.3962	-0.4703	0.6322	-0.4714
8.98	-0.5817	-9.3253	-2.2453	0.0147	-0.0001	0.0112	-0.7515	23.0351	10.2791	0.3962	-0.4703	0.6322	-0.4714
8.99	-0.5819	-9.3253	-2.2578	0.0110	-0.0068	0.0111	-0.4661	22.9327	9.9903	0.3962	-0.4703	0.6322	-0.4714
9	-0.5773	-9.3284	-2.2606	0.0133	-0.0015	0.0153	-0.2901	22.9462	10.0279	0.3962	-0.4703	0.6322	-0.4714
9.01	-0.5705	-9.3241	-2.2652	0.0137	0.0070	0.0095	-0.4744	22.9150	10.2575	0.3962	-0.4703	0.6322	-0.4714
9.02	-0.5605	-9.3304	-2.2662	0.0111	-0.0003	0.0038	-0.3380	22.7812	10.0947	0.3962	-0.4704	0.6322	-0.4714
9.03	-0.5518	-9.3309	-2.2629	0.0117	0.0006	0.0152	-0.3760	22.7612	10.1912	0.3961	-0.4703	0.6321	-0.4713
9.04	-0.5456	-9.3325	-2.2652	0.0087	-0.0035	0.0164	-0.4006	22.7871	10.2027	0.3962	-0.4704	0.6322	-0.4714
9.05	-0.5507	-9.3312	-2.2667	0.0113	-0.0036	0.0103	-0.5741	23.0311	10.0165	0.3962	-0.4704	0.6322	-0.4713
9.06	-0.5506	-9.3267	-2.2653	0.0168	0.0003	0.0101	-0.3112	22.9608	10.0534	0.3962	-0.4704	0.6322	-0.4714
9.07	-0.5496	-9.3241	-2.2641	0.0200	0.0066	0.0136	-0.5184	22.8265	10.3253	0.3962	-0.4703	0.6321	-0.4714
9.08	-0.5482	-9.3256	-2.2573	0.0134	0.0084	0.0100	-0.4970	22.8689	10.2342	0.3962	-0.4703	0.6322	-0.4714
9.09	-0.5536	-9.3335	-2.2728	0.0137	0.0018	0.0173	-0.4853	23.0052	10.1777	0.3962	-0.4703	0.6322	-0.4714
9.1	-0.5555	-9.3274	-2.2667	0.0136	0.0118	0.0101	-0.5783	23.0221	10.1827	0.3961	-0.4703	0.6321	-0.4714
9.11	-0.5585	-9.3209	-2.2592	0.0118	0.0032	0.0082	-0.3167	22.9091	10.0951	0.3961	-0.4703	0.6322	-0.4715
9.12	-0.5610	-9.3227	-2.2617	0.0154	0.0089	0.0083	-0.4334	22.9639	10.2405	0.3961	-0.4703	0.6322	-0.4715
9.13	-0.5562	-9.3316	-2.2611	0.0194	0.0022	0.0074	-0.4724	22.8573	10.3176	0.3961	-0.4704	0.6322	-0.4715
9.14	-0.5572	-9.3283	-2.2513	0.0147	-0.0004	0.0113	-0.3747	22.8526	10.1449	0.3960	-0.4703	0.6321	-0.4715
9.15	-0.5566	-9.3191	-2.2497	0.0145	0.0035	0.0084	-0.3741	22.8467	10.2768	0.3961	-0.4703	0.6321	-0.4715
9.16	-0.5570	-9.3310	-2.2545	0.0171	0.0038	0.0139	-0.4031	23.0412	10.3476	0.3961	-0.4703	0.6321	-0.4715
9.17	-0.5544	-9.3317	-2.2517	0.0219	0.0001	0.0158	-0.2943	22.8677	10.1859	0.3961	-0.4703	0.6321	-0.4715
9.18	-0.5522	-9.3234	-2.2473	0.0108	-0.0043	0.0147	-0.3013	22.7569	10.1757	0.3961	-0.4703	0.6322	-0.4716
9.19	-0.5536	-9.3195	-2.2432	0.0123	-0.0045	0.0165	-0.2745	22.9030	9.9894	0.3961	-0.4703	0.6321	-0.4715
9.2	-0.5565	-9.3317	-2.2529	0.0156	-0.0029	0.0147	-0.1689	22.9884	10.2335	0.3962	-0.4703	0.6322	-0.4715
9.21	-0.5614	-9.3307	-2.2507	0.0143	0.0005	0.0115	-0.3412	22.7363	10.0957	0.3961	-0.4703	0.6321	-0.4715
9.22	-0.5659	-9.3208	-2.2438	0.0112	-0.0019	0.0155	-0.1198	22.8351	10.1052	0.3962	-0.4703	0.6321	-0.4715
9.23	-0.5654	-9.3228	-2.2488	0.0184	-0.0017	0.0132	-0.0928	22.9632	10.1247	0.3962	-0.4703	0.6321	-0.4715
9.24	-0.5735	-9.3302	-2.2551	0.0127	-0.0030	0.0106	-0.3957	22.9826	10.0198	0.3962	-0.4703	0.6321	-0.4715
9.25	-0.5740	-9.3276	-2.2549	0.0146	-0.0020	0.0060	-0.3687	23.1231	10.0035	0.3962	-0.4704	0.6321	-0.4715
9.26	-0.5704	-9.3254	-2.2535	0.0118	-0.0032	0.0142	-0.3726	23.0954	10.2767	0.3962	-0.4704	0.6321	-0.4715
9.27	-0.5746	-9.3274	-2.2472	0.0129	-0.0018	0.0166	-0.2392	22.8820	10.2405	0.3962	-0.4704	0.6321	-0.4715
9.28	-0.5719	-9.3280	-2.2575	0.0175	-0.0009	0.0105	-0.4833	22.8476	10.0633	0.3962	-0.4703	0.6320	-0.4714
9.29	-0.5700	-9.3214	-2.2524	0.0144	0.0034	0.0119	-0.4364	22.7316	10.2603	0.3962	-0.4704	0.6321	-0.4715
9.3	-0.5725	-9.3253	-2.2523	0.0098	0.0020	0.0070	-0.3655	22.8559	10.5718	0.3962	-0.4704	0.6320	-0.4715
9.31	-0.5669	-9.3327	-2.2536	0.0165	0.0076	0.0092	-0.3952	22.9786	10.4730	0.3962	-0.4704	0.6321	-0.4715
9.32	-0.5643	-9.3268	-2.2539	0.0240	-0.0026	0.0154	-0.3705	22.8213	10.3426	0.3962	-0.4703	0.6320	-0.4715
9.33	-0.5662	-9.3268	-2.2524	0.0152	0.0034	0.0151	-0.3990	22.8792	10.3898	0.3962	-0.4703	0.6320	-0.4715
9.34	-0.5667	-9.3301	-2.2505	0.0153	0.0084	0.0060	-0.5401	23.0051	10.1078	0.3962	-0.4703	0.6320	-0.4716
9.35	-0.5670	-9.3240	-2.2557	0.0153	0.0030	0.0135	-0.4781	23.0213	10.1478	0.3961	-0.4703	0.6320	-0.4715
9.36	-0.5678	-9.3264	-2.2547	0.0153	0.0007	0.0166	-0.2630	22.9213	10.5256	0.3962	-0.4703	0.6321	-0.4716
9.37	-0.5680	-9.3312	-2.2550	0.0249	-0.0007	0.0138	0.0640	23.0840	10.5567	0.3962	-0.4703	0.6320	-0.4716
9.38	-0.5670	-9.3329	-2.2565	0.0249	-0.0002	0.0133	0.0892	23.0774	10.2522	0.3963	-0.4703	0.6320	-0.4717
9.39	-0.5658	-9.3221	-2.2516	0.0168	-0.0007	0.0107	-0.1173	23.1571	9.9700	0.3962	-0.4702	0.6319	-0.4716
9.4	-0.5627	-9.3261	-2.2540	0.0161	0.0004	0.0098	-0.3644	23.5126	10.1779	0.3963	-0.4703	0.6320	-0.4717
9.41	-0.5626	-9.3326	-2.2639	0.0151	0.0018	0.0135	-0.3278	22.8318	10.0466	0.3963	-0.4702	0.6320	-0.4717
9.42	-0.5624	-9.3228	-2.2563	0.0163	-0.0047	0.0097	-0.2467	22.6894	10.0178	0.3963	-0.4702	0.6319	-0.4717
9.43	-0.5629	-9.3229	-2.2621	0.0151	0.0030	0.0045	-0.4966	22.8784	10.1572	0.3963	-0.4703	0.6320	-0.4717
9.44	-0.5634	-9.3254	-2.2580	0.0174	0.0024	0.0153	-0.5457	22.6330	10.3376	0.3963	-0.4703	0.6319	-0.4717
9.45	-0.5679	-9.3291	-2.2630	0.0285	-0.0026	0.0131	-0.4864	22.7633	10.0330	0.3963	-0.4703	0.6319	-0.4718
9.46	-0.5611	-9.3141	-2.2384	0.0173	-0.0006	0.0105	-0.3373	23.0210	10.1001	0.3963	-0.4702	0.6318	-0.4717
9.47	-0.5605	-9.3324	-2.2597	0.0151	0.0006	0.0116	-0.5161	23.0863	10.2545	0.3963	-0.4703	0.6319	-0.4718
9.48	-0.5593	-9.3399	-2.2613	0.0139	0.0018	0.0098	-0.4870	22.8918	10.1181	0.3963	-0.4702	0.6318	-0.4718
9.49	-0.5701	-9.3185	-2.2461	0.0088	-0.0018	0.0136	-0.4287	22.9862	10.1879	0.3963	-0.4703	0.6318	-0.4718
9.5	-0.5861	-9.3194	-2.2478	0.0165	0.0001	0.0086	-0.5389	22.9831	10.2948	0.3963	-0.4703	0.6318	-0.4718
9.51	-0.5840	-9.3404	-2.2649	0.0136	0.0030	0.0121	-0.5459	22.8883	10.1873	0.3963	-0.4703	0.6318	-0.4718
9.52	-0.5899	-9.3295	-2.2663	0.0156	0.0042	0.0094	-0.4686	22.9072	10.1977	0.3963	-0.4703	0.6318	-0.4718
9.53	-0.5753	-9.3135	-2.2497	0.0107	0.0053	0.0059	-0.4556	22.9808	10.3074	0.3962	-0.4702	0.6318	-0.4718
9.54	-0.5708	-9.3328	-2.2602	0.0115	-0.0053	0.0132	-0.4330	23.1013	10.1615	0.3963	-0.4703	0.6318	-0.4718
9.55	-0.5506	-9.3330	-2.2586	0.0183	0.0004	0.0117	-0.4908	22.7382	10.1399	0.3963	-0.4703	0.6318	-0.4718
9.56	-0.5429	-9.3211	-2.2446	0.0115	-0.0019	0.0103	-0.2590	22.5692	10.2745	0.3963	-0.4703	0.6318	-0.4718
9.57	-0.5395	-9.3255	-2.2515	0.0138	-0.0053	0.0108	-0.0815	22.5896	10.0869	0.3963	-0.4703	0.6318	-0.4718
9.58	-0.5371	-9.3369	-2.2549	0.0197	0.0003	0.0103	-0.3872	22.8165	10.0549	0.3963	-0.4703	0.6317	-0.4718
9.59	-0.5479	-9.3282	-2.2531	0.0163	-0.0002	0.0108	-0.3170	22.8200	10.3675	0.3963	-0.4703	0.6317	-0.4718
9.6	-0.5549	-9.3242	-2.2538	0.0159	-0.0003	0.0128	-0.2827	22.8934	10.4089	0.3963	-0.4703	0.6317	-0.4718
9.61	-0.5664	-9.3279	-2.2602	0.0140	-0.0009	0.0064	-0.4064	23.0299	10.2570	0.3964	-0.4704	0.6317	-0.4719
9.62	-0.5741	-9.3262	-2.2617	0.0143	-0.0020	0.0120	-0.1959	22.9498	10.0474	0.3963	-0.4704	0.6317	-0.4718
9.63	-0.5755	-9.3241	-2.2597	0.0095	-0.0021	0.0152	-0.2781	22.8672	10.0120	0.3964	-0.4704	0.6317	-0.4719
9.64	-0.5747	-9.3249	-2.2655	0.0186	-0.0010	0.0115	-0.2775	22.7010	10.1404	0.3963	-0.4703	0.6316	-0.4718
9.65	-0.5662	-9.3255	-2.2668	0.0203	0.0084	0.0064	-0.4313	22.9330	10.0998	0.3964	-0.4704	0.6317	-0.4719
9.66	-0.5640	-9.3238	-2.2674	0.0127	0.0018	0.0113	-0.5710	23.1286	10.1652	0.3963	-0.4704	0.6317	-0.4719
9.67	-0.5574	-9.3241	-2.2569	0.0120	0.0024	0.0083	-0.5026	22.9753	10.2275	0.3963	-0.4703	0.6316	-0.4719
9.68	-0.5583	-9.3309	-2.2582	0.0109	0.0079	0.0166	-0.6483	22.9758	10.0874	0.3963	-0.4704	0.6317	-0.4719
9.69	-0.5570	-9.3257	-2.2595	0.0126	0.0034	0.0148	-0.4283	23.0396	10.1405	0.3963	-0.4703	0.6317	-0.4719
9.7	-0.5572	-9.3246	-2.2512	0.0181	0.0019	0.0133	-0.3517	23.0502	10.2954	0.3963	-0.4704	0.6317	-0.4719
9.71	-0.5638	-9.3256	-2.2584	0.0189	0.0004	0.0098	-0.3868	22.8756	10.2909	0.3963	-0.4703	0.6316	-0.4719
9.72	-0.5657	-9.3296	-2.2447	0.0155	0.0041	0.0098	-0.3468	22.9375	10.2078	0.3963	-0.4703	0.6317	-0.4720
9.73	-0.5677	-9.3335	-2.2527	0.0176	-0.0021	0.0116	-0.5591	22.8775	9.9923	0.3963	-0.4703	0.6316	-0.4720
9.74	-0.5736	-9.3221	-2.2511	0.0209	-0.0028	0.0116	-0.3848	22.9912	9.9127	0.3963	-0.4703	0.6316	-0.4720
9.75	-0.5713	-9.3210	-2.2307	0.0175	-0.0002	0.0148	-0.1925	22.9893	10.0427	0.3964	-0.4703	0.6316	-0.4720
9.76	-0.5693	-9.3343	-2.2501	0.0172	0.0018	0.0152	-0.1794	22.8789	10.1873	0.3964	-0.4703	0.6316	-0.4720
9.77	-0.5652	-9.3241	-2.2400	0.0133	-0.0010	0.0103	-0.3278	22.7393	10.1738	0.3964	-0.4703	0.6316	-0.4720
9.78	-0.5675	-9.3177	-2.2366	0.0142	-0.0025	0.0085	-0.3785	22.8218	10.0782	0.3964	-0.4703	0.6315	-0.4720
9.79	-0.5629	-9.3281	-2.2524	0.0216	0.0080	0.0153	-0.3849	22.8323	10.2665	0.3964	-0.4703	0.6316	-0.4720
9.8	-0.5689	-9.3306	-2.2742	0.0167	0.0069	0.0137	-0.3235	22.9819	10.1246	0.3964	-0.4703	0.6316	-0.4721
9.81	-0.5636	-9.3095	-2.2425	0.0159	0.0004	0.0126	-0.5424	22.7303	10.1442	0.3964	-0.4703	0.6316	-0.4721
9.82	-0.5608	-9.3240	-2.2508	0.0167	0.0081	0.0115	-0.3210	22.8533	9.9878	0.3964	-0.4702	0.6316	-0.4721
9.83	-0.5740	-9.3506	-2.2605	0.0122	-0.0009	0.0108	-0.4465	22.8927	10.1179	0.3964	-0.4702	0.6316	-0.4721
9.84	-0.5754	-9.3187	-2.2442	0.0197	0.0097	0.0118	-0.5119	22.7989	10.3913	0.3964	-0.4702	0.6316	-0.4721
9.85	-0.5930	-9.3153	-2.2530	0.0220	0.0116	0.0134	-0.4316	22.8240	10.1422	0.3963	-0.4701	0.6315	-0.4721
9.86	-0.5906	-9.3278	-2.2661	0.0175	0.0048	0.0081	-0.3639	22.8484	10.4781	0.3964	-0.4702	0.6316	-0.4722
9.87	-0.5877	-9.3295	-2.2715	0.0143	0.0051	0.0109	-0.0139	23.2097	10.5659	0.3963	-0.4701	0.6316	-0.4722
9.88	-0.5751	-9.3158	-2.2576	0.0095	0.0014	0.0158	-0.1510	23.2439	10.5955	0.3963	-0.4701	0.6317	-0.4723
9.89	-0.5643	-9.3303	-2.2648	0.0101	0.0065	0.0098	-0.3486	23.3847	10.3367	0.3962	-0.4700	0.6316	-0.4722
9.9	-0.5557	-9.3337	-2.2599	0.0123	0.0062	0.0156	-0.3841	23.6699	10.1415	0.3962	-0.4701	0.6317	-0.4723
9.91	-0.5444	-9.3228	-2.2496	0.0105	0.0067	0.0098	-0.5219	23.0680	10.2037	0.3962	-0.4701	0.6317	-0.4723
9.92	-0.5496	-9.3257	-2.2509	0.0202	0.0106	0.0159	-0.5019	22.9794	10.4525	0.3961	-0.4700	0.6317	-0.4723
9.93	-0.5490	-9.3283	-2.2600	0.0166	-0.0014	0.0166	-0.2255	22.9354	10.3572	0.3962	-0.4700	0.6318	-0.4724
9.94	-0.5494	-9.3293	-2.2521	0.0237	0.0026	0.0173	-0.2406	22.9175	10.0943	0.3962	-0.4699	0.6317	-0.4724
9.95	-0.5564	-9.3269	-2.2523	0.0139	0.0060	0.0167	-0.3031	22.9095	10.1597	0.3962	-0.4699	0.6318	-0.4724
9.96	-0.5529	-9.3251	-2.2516	0.0203	0.0003	0.0159	-0.2962	22.6256	10.2945	0.3962	-0.4698	0.6317	-0.4724
9.97	-0.5532	-9.3253	-2.2507	0.0176	-0.0008	0.0150	-0.1656	22.8544	10.2847	0.3963	-0.4699	0.6317	-0.4724
9.98	-0.5502	-9.3238	-2.2502	0.0224	-0.0010	0.0125	-0.2972	23.0821	10.4215	0.3963	-0.4698	0.6317	-0.4724
9.99	-0.5493	-9.3261	-2.2508	0.0153	0.0037	0.0104	-0.1989	22.8931	10.1868	0.3963	-0.4698	0.6317	-0.4724
10	-0.5444	-9.3319	-2.2491	0.0129	0.0010	0.0165	-0.3948	23.0432	10.1873	0.3963	-0.4698	0.6317	-0.4724
10.01	-0.5396	-9.3270	-2.2406	0.0207	0.0081	0.0171	-0.5702	22.9526	10.2946	0.3963	-0.4698	0.6317	-0.4725
10.02	-0.5419	-9.3343	-2.2481	0.0199	0.0045	0.0160	-0.2993	22.9253	10.2635	0.3963	-0.4698	0.6317	-0.4725
10.03	-0.5449	-9.3294	-2.2512	0.0196	0.0068	0.0139	-0.2644	22.9081	10.2802	0.3963	-0.4697	0.6316	-0.4725
10.04	-0.5486	-9.3244	-2.2480	0.0169	0.0116	0.0181	-0.5259	23.0486	10.2651	0.3963	-0.4697	0.6317	-0.4726
10.05	-0.5536	-9.3284	-2.2557	0.0204	0.0082	0.0118	-0.4900	22.9252	10.2719	0.3963	-0.4696	0.6317	-0.4726
10.06	-0.5630	-9.3293	-2.2576	0.0197	0.0090	0.0107	-0.4387	23.0008	10.2699	0.3963	-0.4696	0.6317	-0.4726
10.07	-0.5609	-9.3286	-2.2475	0.0214	0.0106	0.0142	-0.4565	22.9896	10.2724	0.3963	-0.4696	0.6317	-0.4727
10.08	-0.5672	-9.3284	-2.2588	0.0215	0.0058	0.0130	-0.3467	22.9380	10.4038	0.3963	-0.4695	0.6317	-0.4727
10.09	-0.5733	-9.3307	-2.2585	0.0138	0.0038	0.0152	-0.3924	22.9987	10.2875	0.3963	-0.4695	0.6317	-0.4727
10.1	-0.5740	-9.3248	-2.2530	0.0155	0.0014	0.0157	-0.3453	22.8075	10.2690	0.3963	-0.4695	0.6317	-0.4727
10.11	-0.5745	-9.3261	-2.2576	0.0228	-0.0010	0.0166	-0.4996	22.9481	10.2690	0.3964	-0.4695	0.6317	-0.4728
10.12	-0.5769	-9.3315	-2.2672	0.0133	-0.0006	0.0116	-0.2389	22.9215	10.4358	0.3963	-0.4695	0.6317	-0.4727
10.13	-0.5763	-9.3303	-2.2635	0.0133	-0.0007	0.0151	-0.2712	22.8936	10.4107	0.3964	-0.4695	0.6317	-0.4728
10.14	-0.5696	-9.3199	-2.2580	0.0150	-0.0034	0.0105	-0.2963	22.7230	10.2517	0.3964	-0.4695	0.6316	-0.4727
10.15	-0.5681	-9.3286	-2.2645	0.0188	0.0005	0.0074	-0.3088	22.8013	10.3134	0.3964	-0.4695	0.6316	-0.4727
10.16	-0.5698	-9.3272	-2.2556	0.0219	0.0028	0.0147	-0.3912	23.0155	10.0252	0.3964	-0.4695	0.6316	-0.4728
10.17	-0.5695	-9.3254	-2.2596	0.0157	-0.0008	0.0152	-0.3563	22.9448	10.0693	0.3964	-0.4694	0.6316	-0.4727
10.18	-0.5671	-9.3273	-2.2598	0.0177	0.0066	0.0158	-0.3741	22.8960	10.2207	0.3965	-0.4695	0.6317	-0.4728
10.19	-0.5702	-9.3262	-2.2618	0.0149	0.0052	0.0180	-0.1017	22.9982	10.0278	0.3964	-0.4694	0.6316	-0.4728
10.2	-0.5791	-9.3280	-2.2642	0.0142	0.0026	0.0156	-0.2168	22.9557	10.2534	0.3965	-0.4694	0.6317	-0.4728
10.21	-0.5801	-9.3253	-2.2639	0.0212	0.0015	0.0146	-0.5005	22.9110	10.3778	0.3964	-0.4693	0.6316	-0.4728
10.22	-0.5856	-9.3241	-2.2594	0.0209	0.0031	0.0076	-0.3944	23.0224	10.1284	0.3965	-0.4694	0.6316	-0.4729
10.23	-0.5765	-9.3234	-2.2628	0.0198	-0.0020	0.0033	-0.5628	22.8672	10.0715	0.3965	-0.4694	0.6316	-0.4729
10.24	-0.5811	-9.3210	-2.2555	0.0196	0.0029	0.0102	-0.5737	23.0150	10.1654	0.3965	-0.4694	0.6315	-0.4729
10.25	-0.5685	-9.3289	-2.2600	0.0164	0.0061	0.0086	-0.4214	22.9906	10.3744	0.3965	-0.4694	0.6315	-0.4730
10.26	-0.5599	-9.3303	-2.2638	0.0247	0.0081	0.0106	-0.4673	22.9015	10.1151	0.3965	-0.4693	0.6315	-0.4730
10.27	-0.5547	-9.3267	-2.2526	0.0181	0.0028	0.0085	-0.4450	22.9402	10.2867	0.3965	-0.4694	0.6315	-0.4731
10.28	-0.5576	-9.3268	-2.2550	0.0158	-0.0014	0.0144	-0.4513	22.8925	10.1794	0.3964	-0.4693	0.6314	-0.4730
10.29	-0.5631	-9.3292	-2.2534	0.0172	0.0011	0.0101	-0.5424	23.0555	10.2840	0.3965	-0.4693	0.6315	-0.4731
10.3	-0.5624	-9.3287	-2.2535	0.0194	-0.0017	0.0082	-0.3727	23.0591	10.4201	0.3965	-0.4693	0.6315	-0.4731
10.31	-0.5697	-9.3295	-2.2543	0.0098	-0.0048	0.0141	-0.1414	22.9467	10.2025	0.3965	-0.4693	0.6315	-0.4731
10.32	-0.5708	-9.3319	-2.2560	0.0158	0.0030	0.0034	-0.0184	22.8126	10.1893	0.3965	-0.4693	0.6314	-0.4731
10.33	-0.5691	-9.3257	-2.2491	0.0143	0.0080	0.0062	-0.3098	22.7846	10.3131	0.3964	-0.4693	0.6314	-0.4731
10.34	-0.5754	-9.3266	-2.2439	0.0214	0.0006	0.0090	-0.3932	22.8413	10.0328	0.3964	-0.4693	0.6314	-0.4732
10.35	-0.5703	-9.3282	-2.2390	0.0256	0.0012	0.0098	-0.2962	22.9226	9.9879	0.3964	-0.4693	0.6313	-0.4732
10.36	-0.5626	-9.3240	-2.2356	0.0272	0.0027	0.0095	0.0129	22.9208	10.2329	0.3965	-0.4693	0.6314	-0.4733
10.37	-0.5455	-9.3232	-2.2223	0.0195	0.0008	0.0043	0.1485	22.9899	10.4733	0.3965	-0.4693	0.6313	-0.4733
10.38	-0.5502	-9.3457	-2.2473	0.0191	-0.0017	0.0095	0.0165	23.1174	10.3991	0.3965	-0.4693	0.6313	-0.4734
10.39	-0.5428	-9.3234	-2.2311	0.0229	-0.0060	0.0078	-0.2966	23.2689	10.2553	0.3965	-0.4693	0.6312	-0.4733
10.4	-0.5493	-9.3136	-2.2332	0.0200	0.0003	0.0095	-0.5287	23.7221	10.1333	0.3965	-0.4693	0.6312	-0.4734
10.41	-0.5530	-9.3276	-2.2470	0.0183	0.0040	0.0121	-0.4988	23.1177	10.2883	0.3965	-0.4693	0.6312	-0.4734
10.42	-0.5516	-9.3382	-2.2601	0.0131	0.0021	0.0100	-0.4054	22.8507	10.4064	0.3965	-0.4692	0.6312	-0.4734
10.43	-0.5598	-9.3178	-2.2488	0.0186	-0.0001	0.0092	-0.6783	23.0525	10.1349	0.3965	-0.4693	0.6312	-0.4735
10.44	-0.5585	-9.3270	-2.2546	0.0197	0.0053	0.0080	-0.6485	22.9113	10.2138	0.3965	-0.4693	0.6312	-0.4735
10.45	-0.5771	-9.3376	-2.2655	0.0214	0.0026	0.0097	-0.4155	22.7773	10.3861	0.3965	-0.4693	0.6312	-0.4735
10.46	-0.5744	-9.3204	-2.2596	0.0197	0.0035	0.0074	-0.5460	22.9436	10.2629	0.3965	-0.4692	0.6311	-0.4735
10.47	-0.5731	-9.3176	-2.2650	0.0165	0.0052	0.0093	-0.5202	22.8596	10.1860	0.3965	-0.4693	0.6311	-0.4736
10.48	-0.5681	-9.3309	-2.2790	0.0179	-0.0086	0.0219	-0.5411	23.0107	10.3341	0.3966	-0.4692	0.6311	-0.4736
10.49	-0.5584	-9.3269	-2.2795	0.0244	-0.0025	0.0156	-0.2399	22.8601	10.4147	0.3966	-0.4692	0.6311	-0.4736
10.5	-0.5534	-9.3184	-2.2760	0.0161	0.0054	0.0126	-0.0052	22.6646	10.1325	0.3966	-0.4692	0.6311	-0.4736
10.51	-0.5518	-9.3264	-2.2781	0.0175	-0.0002	0.0183	-0.1995	22.7564	10.1782	0.3966	-0.4692	0.6311	-0.4736
10.52	-0.5550	-9.3325	-2.2810	0.0143	0.0002	0.0139	-0.2024	22.8255	10.3184	0.3967	-0.4692	0.6311	-0.4736
10.53	-0.5549	-9.3236	-2.2714	0.0154	-0.0000	0.0112	-0.2828	22.7439	10.2659	0.3966	-0.4691	0.6310	-0.4736
10.54	-0.5637	-9.3186	-2.2649	0.0170	-0.0003	0.0182	-0.4093	22.7677	10.3851	0.3967	-0.4692	0.6311	-0.4736
10.55	-0.5685	-9.3287	-2.2722	0.0157	-0.0011	0.0134	-0.3150	22.8119	10.0784	0.3967	-0.4691	0.6311	-0.4736
10.56	-0.5791	-9.3229	-2.2628	0.0214	0.0015	0.0101	-0.2649	22.7238	10.1797	0.3967	-0.4691	0.6311	-0.4736
10.57	-0.5885	-9.3200	-2.2481	0.0204	-0.0026	0.0200	-0.3897	22.7573	10.3025	0.3967	-0.4691	0.6310	-0.4736
10.58	-0.5951	-9.3265	-2.2411	0.0202	-0.0020	0.0175	-0.3600	22.9876	10.3675	0.3968	-0.4691	0.6310	-0.4736
10.59	-0.5983	-9.3262	-2.2371	0.0115	0.0003	0.0197	-0.4117	22.9432	10.1996	0.3968	-0.4691	0.6311	-0.4736
10.6	-0.5954	-9.3246	-2.2282	0.0159	0.0022	0.0121	-0.5537	22.9006	10.4847	0.3968	-0.4690	0.6310	-0.4736
10.61	-0.5959	-9.3197	-2.2326	0.0184	0.0015	0.0041	-0.5275	22.8026	10.4122	0.3968	-0.4691	0.6310	-0.4737
10.62	-0.5918	-9.3298	-2.2399	0.0145	0.0021	0.0111	-0.4111	23.0023	10.2279	0.3968	-0.4691	0.6310	-0.4737
10.63	-0.5853	-9.3312	-2.2391	0.0147	0.0089	0.0093	-0.2987	22.9170	10.3082	0.3968	-0.4691	0.6311	-0.4737
10.64	-0.5737	-9.3236	-2.2369	0.0193	0.0004	0.0140	-0.2725	22.9993	10.1758	0.3968	-0.4690	0.6310	-0.4737
10.65	-0.5731	-9.3232	-2.2292	0.0111	0.0020	0.0107	-0.6311	23.0806	10.1651	0.3968	-0.4691	0.6310	-0.4737
10.66	-0.5727	-9.3246	-2.2325	0.0187	0.0022	0.0125	-0.3867	22.9303	10.2439	0.3968	-0.4690	0.6310	-0.4737
10.67	-0.5805	-9.3227	-2.2364	0.0171	0.0043	0.0071	-0.4434	22.8388	10.3004	0.3968	-0.4690	0.6309	-0.4737
10.68	-0.5891	-9.3262	-2.2415	0.0147	0.0016	0.0043	-0.4586	22.7270	10.2649	0.3968	-0.4691	0.6310	-0.4738
10.69	-0.5950	-9.3308	-2.2560	0.0118	0.0016	0.0112	-0.3293	23.1379	10.2885	0.3968	-0.4691	0.6309	-0.4738
10.7	-0.5931	-9.3231	-2.2595	0.0165	0.0034	0.0111	-0.2332	22.7411	10.2489	0.3968	-0.4691	0.6310	-0.4738
10.71	-0.5852	-9.3208	-2.2628	0.0174	0.0060	0.0074	-0.1905	22.8473	10.3987	0.3967	-0.4690	0.6309	-0.4738
10.72	-0.5896	-9.3428	-2.2925	0.0143	-0.0017	0.0128	-0.3418	22.9991	10.3227	0.3967	-0.4690	0.6310	-0.4738
10.73	-0.5787	-9.3258	-2.2787	0.0212	0.0011	0.0164	-0.5374	22.5725	10.1305	0.3968	-0.4690	0.6309	-0.4738
10.74	-0.5668	-9.3181	-2.2693	0.0188	0.0016	0.0145	-0.4784	22.8476	10.2947	0.3968	-0.4690	0.6309	-0.4739
10.75	-0.5474	-9.3277	-2.2680	0.0250	-0.0015	0.0065	-0.3391	22.7311	10.2702	0.3968	-0.4690	0.6309	-0.4739
10.76	-0.5412	-9.3412	-2.2715	0.0171	-0.0007	0.0122	-0.2990	22.8883	10.2964	0.3968	-0.4690	0.6309	-0.4739
10.77	-0.5278	-9.3284	-2.2626	0.0175	-0.0009	0.0100	-0.4617	22.9160	10.2096	0.3969	-0.4690	0.6309	-0.4739
10.78	-0.5221	-9.3195	-2.2556	0.0155	0.0043	0.0106	-0.4385	22.9106	10.1709	0.3968	-0.4689	0.6308	-0.4739
10.79	-0.5225	-9.3250	-2.2578	0.0129	0.0044	0.0134	-0.5652	22.9031	10.2001	0.3968	-0.4690	0.6309	-0.4740
10.8	-0.5229	-9.3269	-2.2557	0.0185	0.0026	0.0107	-0.6448	22.9120	10.4777	0.3968	-0.4690	0.6308	-0.4740
10.81	-0.5223	-9.3260	-2.2509	0.0122	0.0048	0.0116	-0.5482	22.8817	10.3260	0.3968	-0.4690	0.6309	-0.4740
10.82	-0.5298	-9.3286	-2.2473	0.0249	0.0093	0.0146	-0.5031	23.0208	10.0491	0.3968	-0.4689	0.6308	-0.4740
10.83	-0.5386	-9.3345	-2.2472	0.0265	0.0046	0.0116	-0.8068	22.9341	10.1294	0.3968	-0.4689	0.6308	-0.4741
10.84	-0.5395	-9.3228	-2.2315	0.0148	0.0036	0.0075	-0.6413	22.9348	10.2328	0.3968	-0.4689	0.6308	-0.4741
10.85	-0.5448	-9.3232	-2.2323	0.0202	0.0071	0.0053	-0.6318	23.0706	10.3742	0.3968	-0.4688	0.6307	-0.4741
10.86	-0.5433	-9.3368	-2.2388	0.0204	0.0035	0.0095	-0.3942	23.1907	10.2296	0.3968	-0.4689	0.6308	-0.4742
10.87	-0.5466	-9.3278	-2.2346	0.0152	0.0023	0.0145	0.1438	23.1065	10.1938	0.3968	-0.4688	0.6308	-0.4742
10.88	-0.5530	-9.3215	-2.2380	0.0237	0.0033	0.0193	0.0330	23.0351	10.1807	0.3969	-0.4688	0.6308	-0.4743
10.89	-0.5583	-9.3265	-2.2444	0.0187	0.0034	0.0140	-0.2033	23.0706	10.2601	0.3968	-0.4687	0.6307	-0.4742
10.9	-0.5663	-9.3293	-2.2522	0.0158	0.0052	0.0100	-0.1950	23.4626	10.1564	0.3968	-0.4687	0.6308	-0.4743
10.91	-0.5669	-9.3272	-2.2583	0.0205	-0.0042	0.0107	-0.4441	22.9097	10.2339	0.3968	-0.4687	0.6308	-0.4743
10.92	-0.5773	-9.3296	-2.2701	0.0157	0.0004	0.0134	-0.3898	22.8884	10.2823	0.3968	-0.4687	0.6307	-0.4743
10.93	-0.5586	-9.3127	-2.2371	0.0218	-0.0010	0.0154	-0.3800	22.8567	10.2750	0.3969	-0.4687	0.6308	-0.4744
10.94	-0.5679	-9.3402	-2.2842	0.0145	0.0071	0.0109	-0.5977	22.8332	10.2391	0.3969	-0.4687	0.6307	-0.4743
10.95	-0.5749	-9.3331	-2.2734	0.0140	0.0043	0.0125	-0.4574	22.8348	10.1368	0.3969	-0.4687	0.6308	-0.4744
10.96	-0.5689	-9.3139	-2.2619	0.0223	0.0023	0.0113	-0.3770	22.9292	10.3048	0.3968	-0.4686	0.6307	-0.4743
10.97	-0.5926	-9.3160	-2.2677	0.0187	0.0059	0.0132	-0.3736	22.8150	10.1172	0.3969	-0.4686	0.6307	-0.4744
10.98	-0.5896	-9.3251	-2.2674	0.0141	0.0002	0.0063	-0.3773	22.8931	10.1275	0.3969	-0.4686	0.6307	-0.4744
10.99	-0.6053	-9.3287	-2.2687	0.0223	0.0004	0.0110	-0.3747	22.9459	10.2633	0.3969	-0.4686	0.6307	-0.4744
11	-0.6004	-9.3220	-2.2533	0.0208	0.0043	0.0067	-0.4664	22.9112	10.2850	0.3969	-0.4686	0.6307	-0.4745
11.01	-0.5919	-9.3297	-2.2618	0.0171	0.0051	0.0099	-0.4669	22.9479	10.2160	0.3969	-0.4686	0.6306	-0.4745
11.02	-0.5801	-9.3294	-2.2578	0.0212	0.0018	0.0072	-0.4158	22.8793	10.2149	0.3969	-0.4686	0.6306	-0.4746
11.03	-0.5656	-9.3233	-2.2414	0.0190	0.0021	0.0084	-0.2798	22.7444	10.3811	0.3968	-0.4686	0.6305	-0.4745
11.04	-0.5615	-9.3268	-2.2366	0.0219	-0.0008	0.0195	-0.4170	22.8738	10.3645	0.3969	-0.4686	0.6306	-0.4746
11.05	-0.5583	-9.3287	-2.2400	0.0194	-0.0006	0.0104	-0.4783	22.9460	10.3115	0.3969	-0.4686	0.6306	-0.4746
11.06	-0.5451	-9.3270	-2.2329	0.0190	-0.0008	0.0164	-0.1813	22.9130	10.2462	0.3970	-0.4686	0.6306	-0.4746
11.07	-0.5500	-9.3253	-2.2401	0.0192	-0.0017	0.0133	-0.4247	22.9604	10.2838	0.3970	-0.4685	0.6305	-0.4746
11.08	-0.5440	-9.3254	-2.2397	0.0187	0.0014	0.0127	-0.2074	22.8736	10.3766	0.3970	-0.4685	0.6305	-0.4746
11.09	-0.5413	-9.3272	-2.2431	0.0139	0.0014	0.0123	-0.3238	22.8882	10.3201	0.3970	-0.4686	0.6305	-0.4746
11.1	-0.5303	-9.3282	-2.2417	0.0213	0.0051	0.0072	-0.3966	22.9499	10.1448	0.3970	-0.4685	0.6305	-0.4746
11.11	-0.5233	-9.3279	-2.2470	0.0130	-0.0011	0.0131	-0.3749	22.8231	10.2333	0.3970	-0.4686	0.6305	-0.4747
11.12	-0.5330	-9.3320	-2.2584	0.0238	0.0054	0.0158	-0.2076	23.1335	10.0750	0.3970	-0.4685	0.6305	-0.4747
11.13	-0.5313	-9.3336	-2.2569	0.0142	0.0007	0.0145	-0.3198	23.0124	10.0206	0.3971	-0.4685	0.6305	-0.4747
11.14	-0.5398	-9.3237	-2.2615	0.0183	-0.0021	0.0138	-0.4835	23.0091	10.3098	0.3970	-0.4685	0.6304	-0.4747
11.15	-0.5483	-9.3216	-2.2593	0.0136	0.0067	0.0099	-0.4586	23.1033	10.2378	0.3971	-0.4685	0.6305	-0.4747
11.16	-0.5533	-9.3301	-2.2647	0.0189	-0.0012	0.0086	-0.4240	22.9214	10.2869	0.3971	-0.4685	0.6305	-0.4747
11.17	-0.5498	-9.3294	-2.2575	0.0188	0.0056	0.0107	-0.3389	22.9429	10.2540	0.3970	-0.4684	0.6304	-0.4747
11.18	-0.5473	-9.3256	-2.2526	0.0134	0.0009	0.0103	-0.5030	22.8183	10.2839	0.3971	-0.4685	0.6305	-0.4748
11.19	-0.5408	-9.3221	-2.2348	0.0108	0.0016	0.0108	-0.4019	22.8733	10.3718	0.3970	-0.4685	0.6304	-0.4748
11.2	-0.5261	-9.3308	-2.2373	0.0156	0.0050	0.0099	-0.4019	22.9964	10.3510	0.3971	-0.4685	0.6305	-0.4748
11.21	-0.5369	-9.3492	-2.2605	0.0192	0.0005	0.0086	-0.5885	23.0951	10.3538	0.3970	-0.4684	0.6304	-0.4748
11.22	-0.5235	-9.3099	-2.2254	0.0218	0.0014	0.0098	-0.2761	23.0854	10.2416	0.3970	-0.4684	0.6304	-0.4749
11.23	-0.5393	-9.3250	-2.2523	0.0224	-0.0028	0.0095	-0.3831	23.1114	10.1131	0.3970	-0.4684	0.6304	-0.4749
11.24	-0.5310	-9.3330	-2.2501	0.0183	-0.0002	0.0159	-0.4981	23.0187	10.0667	0.3971	-0.4684	0.6304	-0.4749
11.25	-0.5394	-9.3277	-2.2476	0.0144	-0.0008	0.0192	-0.3355	22.9185	10.1988	0.3971	-0.4684	0.6304	-0.4749
11.26	-0.5418	-9.3277	-2.2418	0.0164	-0.0017	0.0128	-0.2968	22.9319	10.3080	0.3971	-0.4684	0.6304	-0.4749
11.27	-0.5433	-9.3360	-2.2492	0.0133	0.0004	0.0122	-0.2660	22.9333	10.1890	0.3971	-0.4684	0.6304	-0.4749
11.28	-0.5574	-9.3252	-2.2402	0.0159	-0.0006	0.0137	-0.0936	22.9290	10.1843	0.3971	-0.4684	0.6303	-0.4748
11.29	-0.5524	-9.3199	-2.2311	0.0168	0.0012	0.0183	-0.2789	22.9405	10.2828	0.3972	-0.4684	0.6304	-0.4749
11.3	-0.5486	-9.3258	-2.2446	0.0225	0.0030	0.0141	-0.2433	22.8914	10.2862	0.3972	-0.4683	0.6304	-0.4749
11.31	-0.5380	-9.3260	-2.2441	0.0188	-0.0006	0.0150	-0.2596	22.8127	10.1984	0.3972	-0.4683	0.6304	-0.4749
11.32	-0.5338	-9.3290	-2.2520	0.0223	0.0013	0.0141	-0.3908	22.9633	10.1704	0.3972	-0.4683	0.6303	-0.4749
11.33	-0.5254	-9.3295	-2.2542	0.0143	-0.0058	0.0203	-0.2779	22.7692	10.4322	0.3973	-0.4683	0.6303	-0.4749
11.34	-0.5171	-9.3195	-2.2467	0.0150	0.0038	0.0146	-0.4707	22.7979	10.2560	0.3973	-0.4683	0.6304	-0.4749
11.35	-0.5211	-9.3187	-2.2458	0.0108	0.0045	0.0112	-0.4567	22.9200	10.3445	0.3972	-0.4682	0.6303	-0.4749
11.36	-0.5233	-9.3326	-2.2498	0.0105	0.0071	0.0069	-0.3802	23.0475	10.4527	0.3972	-0.4683	0.6304	-0.4750
11.37	-0.5396	-9.3184	-2.2342	0.0154	0.0140	0.0101	-0.0866	23.0931	10.4454	0.3972	-0.4682	0.6304	-0.4750
11.38	-0.5547	-9.3304	-2.2443	0.0195	0.0117	0.0127	-0.1141	23.0522	10.4196	0.3972	-0.4682	0.6305	-0.4751
11.39	-0.5622	-9.3359	-2.2499	0.0165	0.0086	0.0127	-0.4644	23.1893	10.1483	0.3971	-0.4681	0.6304	-0.4750
11.4	-0.5701	-9.3266	-2.2602	0.0219	0.0063	0.0163	-0.4208	23.5096	10.0119	0.3971	-0.4681	0.6304	-0.4751
11.41	-0.5729	-9.3214	-2.2505	0.0160	-0.0013	0.0143	-0.4873	23.0463	10.2151	0.3971	-0.4681	0.6305	-0.4751
11.42	-0.5709	-9.3237	-2.2492	0.0153	-0.0043	0.0224	-0.5689	22.9935	10.1171	0.3972	-0.4680	0.6304	-0.4751
11.43	-0.5876	-9.3451	-2.2832	0.0174	-0.0023	0.0165	-0.2876	22.8086	10.1161	0.3972	-0.4681	0.6305	-0.4751
11.44	-0.5836	-9.3251	-2.2610	0.0140	-0.0025	0.0215	-0.0770	22.7597	10.1356	0.3972	-0.4680	0.6305	-0.4750
11.45	-0.5856	-9.3112	-2.2703	0.0140	-0.0008	0.0163	-0.3237	22.7135	10.1297	0.3973	-0.4680	0.6305	-0.4751
11.46	-0.5869	-9.3233	-2.2825	0.0162	-0.0014	0.0176	-0.1515	22.6410	10.0594	0.3973	-0.4680	0.6304	-0.4750
