time	acceleration_x	acceleration_y	acceleration_z	gyroscope_x	gyroscope_y	gyroscope_z	magnetometer_x	magnetometer_y	magnetometer_z	quaternion_w	quaternion_x	quaternion_y	quaternion_z
0	-0.5527	-9.3476	-2.1677	0.0165	-0.0024	0.0114	6.0426	40.0686	6.1097	0.5834	-0.7497	-0.2271	0.2147
0.01	-0.5572	-9.3464	-2.1662	0.0104	-0.0026	0.0180	6.0546	39.8845	6.0048	0.5834	-0.7496	-0.2270	0.2147
0.02	-0.5511	-9.3458	-2.1604	0.0118	-0.0033	0.0165	6.4301	39.6201	6.1571	0.5834	-0.7497	-0.2270	0.2148
0.03	-0.5527	-9.3448	-2.1615	0.0196	-0.0034	0.0108	6.4064	39.6760	6.0632	0.5834	-0.7496	-0.2270	0.2148
0.04	-0.5495	-9.3455	-2.1612	0.0044	-0.0044	0.0178	6.3095	39.5294	5.9685	0.5834	-0.7497	-0.2271	0.2148
0.05	-0.5520	-9.3431	-2.1605	0.0132	-0.0019	0.0134	6.2251	39.7502	6.0990	0.5834	-0.7496	-0.2270	0.2148
0.06	-0.5542	-9.3494	-2.1589	0.0062	-0.0021	0.0133	6.2555	39.6868	6.0311	0.5834	-0.7497	-0.2271	0.2148
0.07	-0.5575	-9.3488	-2.1638	0.0083	-0.0028	0.0116	6.3864	39.8914	6.0786	0.5833	-0.7497	-0.2271	0.2148
0.08	-0.5602	-9.3429	-2.1483	0.0162	-0.0083	0.0144	6.9424	39.7036	6.0341	0.5833	-0.7497	-0.2271	0.2149
0.09	-0.5575	-9.3462	-2.1494	0.0067	-0.0026	0.0116	7.0097	39.7597	6.2526	0.5833	-0.7497	-0.2271	0.2149
0.1	-0.5594	-9.3426	-2.1491	0.0089	-0.0041	0.0147	6.1713	40.3638	6.1280	0.5832	-0.7496	-0.2271	0.2149
0.11	-0.5588	-9.3464	-2.1486	0.0122	-0.0026	0.0152	6.2462	41.1786	6.2443	0.5833	-0.7497	-0.2271	0.2149
0.12	-0.5549	-9.3485	-2.1454	0.0074	0.0013	0.0089	6.1779	40.2489	6.2890	0.5833	-0.7497	-0.2271	0.2149
0.13	-0.5569	-9.3502	-2.1490	0.0065	0.0027	0.0102	6.1075	39.8978	6.2110	0.5833	-0.7498	-0.2271	0.2149
0.14	-0.5525	-9.3447	-2.1496	0.0069	-0.0006	0.0113	6.1244	40.1313	6.1624	0.5832	-0.7497	-0.2271	0.2148
0.15	-0.5442	-9.3418	-2.1532	0.0134	-0.0007	0.0067	6.1471	39.7576	6.1252	0.5832	-0.7497	-0.2271	0.2148
0.16	-0.5444	-9.3448	-2.1589	0.0115	-0.0005	0.0139	6.2259	39.8549	6.3651	0.5832	-0.7497	-0.2271	0.2148
0.17	-0.5419	-9.3436	-2.1492	0.0069	0.0075	0.0090	6.1914	39.9615	6.1465	0.5832	-0.7497	-0.2271	0.2148
0.18	-0.5327	-9.3431	-2.1578	0.0060	0.0060	0.0076	6.1280	39.9615	6.0559	0.5832	-0.7498	-0.2271	0.2148
0.19	-0.5361	-9.3486	-2.1672	0.0095	-0.0040	0.0072	6.2391	39.9835	6.1507	0.5832	-0.7498	-0.2271	0.2148
0.2	-0.5355	-9.3491	-2.1750	0.0095	0.0014	0.0178	6.1584	39.8904	5.9657	0.5832	-0.7498	-0.2271	0.2148
0.21	-0.5393	-9.3441	-2.1723	0.0087	0.0026	0.0123	6.4092	39.9028	5.8989	0.5831	-0.7498	-0.2271	0.2147
0.22	-0.5454	-9.3452	-2.1706	0.0083	-0.0012	0.0121	6.3341	39.7423	5.8794	0.5832	-0.7498	-0.2271	0.2148
0.23	-0.5551	-9.3454	-2.1800	0.0077	0.0013	0.0085	6.1562	39.7722	6.0923	0.5831	-0.7498	-0.2271	0.2147
0.24	-0.5582	-9.3434	-2.1803	0.0062	0.0037	0.0085	6.2974	39.7537	6.2035	0.5831	-0.7498	-0.2272	0.2147
0.25	-0.5617	-9.3459	-2.1788	0.0163	0.0055	0.0101	6.2984	39.6011	5.9180	0.5831	-0.7499	-0.2271	0.2147
0.26	-0.5583	-9.3447	-2.1868	0.0108	-0.0010	0.0077	6.2705	39.8992	6.0524	0.5831	-0.7498	-0.2272	0.2147
0.27	-0.5542	-9.3398	-2.1806	0.0090	-0.0024	0.0157	6.1350	39.8446	6.2056	0.5831	-0.7499	-0.2272	0.2147
0.28	-0.5482	-9.3415	-2.1803	0.0086	-0.0004	0.0098	6.0444	40.0470	5.9487	0.5831	-0.7498	-0.2272	0.2147
0.29	-0.5493	-9.3490	-2.1743	0.0141	-0.0010	0.0111	6.1468	40.0431	6.0687	0.5831	-0.7499	-0.2272	0.2147
0.3	-0.5503	-9.3494	-2.1666	0.0120	-0.0041	0.0175	6.1072	40.0450	5.8984	0.5831	-0.7499	-0.2272	0.2147
0.31	-0.5534	-9.3450	-2.1621	0.0104	-0.0018	0.0108	6.2060	39.7883	6.1336	0.5831	-0.7499	-0.2272	0.2147
0.32	-0.5544	-9.3433	-2.1647	0.0079	-0.0014	0.0090	6.1228	39.8884	6.1724	0.5831	-0.7499	-0.2272	0.2147
0.33	-0.5620	-9.3456	-2.1560	0.0139	0.0004	0.0092	6.2374	39.8615	6.1049	0.5831	-0.7499	-0.2272	0.2147
0.34	-0.5683	-9.3456	-2.1432	0.0112	0.0014	0.0150	6.0028	39.7818	6.0372	0.5831	-0.7499	-0.2272	0.2147
0.35	-0.5667	-9.3422	-2.1393	0.0155	-0.0008	0.0126	6.2320	40.1013	6.0622	0.5830	-0.7498	-0.2272	0.2147
0.36	-0.5728	-9.3446	-2.1437	0.0158	0.0056	0.0078	6.0807	39.8842	6.0583	0.5831	-0.7499	-0.2272	0.2147
0.37	-0.5717	-9.3422	-2.1421	0.0077	-0.0029	0.0083	6.0715	39.8203	6.0491	0.5831	-0.7499	-0.2272	0.2147
0.38	-0.5673	-9.3439	-2.1436	0.0121	-0.0008	0.0123	5.9489	39.8855	5.8510	0.5831	-0.7499	-0.2273	0.2147
0.39	-0.5642	-9.3456	-2.1418	0.0091	0.0016	0.0136	6.1658	39.9715	5.9910	0.5830	-0.7498	-0.2272	0.2147
0.4	-0.5548	-9.3466	-2.1444	0.0156	-0.0011	0.0137	6.2662	39.9334	6.0514	0.5831	-0.7499	-0.2272	0.2147
0.41	-0.5515	-9.3443	-2.1379	0.0120	0.0034	0.0140	6.2491	39.8874	5.9282	0.5831	-0.7499	-0.2272	0.2147
0.42	-0.5534	-9.3442	-2.1441	0.0092	0.0041	0.0112	6.2491	39.7869	6.0570	0.5830	-0.7498	-0.2272	0.2147
0.43	-0.5531	-9.3488	-2.1395	0.0128	0.0013	0.0123	6.0222	39.9110	6.2651	0.5831	-0.7499	-0.2272	0.2147
0.44	-0.5608	-9.3468	-2.1505	0.0022	0.0016	0.0114	6.0049	39.9302	6.1907	0.5830	-0.7499	-0.2272	0.2147
0.45	-0.5676	-9.3437	-2.1596	0.0061	0.0076	0.0126	5.9962	39.6607	6.0797	0.5830	-0.7500	-0.2272	0.2146
0.46	-0.5631	-9.3416	-2.1655	0.0104	0.0020	0.0064	6.1593	39.8187	5.9478	0.5830	-0.7499	-0.2272	0.2146
0.47	-0.5631	-9.3432	-2.1714	0.0089	0.0025	0.0117	5.9148	39.8828	6.1038	0.5830	-0.7500	-0.2272	0.2146
0.48	-0.5532	-9.3435	-2.1700	0.0119	0.0061	0.0174	6.1503	39.7178	6.1573	0.5830	-0.7500	-0.2272	0.2146
0.49	-0.5481	-9.3456	-2.1729	0.0088	0.0032	0.0110	6.0447	40.0307	6.1451	0.5830	-0.7500	-0.2272	0.2146
0.5	-0.5452	-9.3450	-2.1711	0.0086	0.0116	0.0076	6.0333	40.0637	6.1202	0.5830	-0.7500	-0.2271	0.2145
0.51	-0.5350	-9.3426	-2.1688	0.0114	0.0074	0.0089	6.0583	39.8993	6.1858	0.5830	-0.7500	-0.2271	0.2145
0.52	-0.5309	-9.3443	-2.1661	0.0110	0.0027	0.0058	6.2073	39.8692	6.2422	0.5830	-0.7500	-0.2272	0.2144
0.53	-0.5305	-9.3447	-2.1659	0.0069	0.0045	0.0088	6.1345	39.9563	6.2572	0.5829	-0.7500	-0.2271	0.2144
0.54	-0.5351	-9.3449	-2.1679	0.0139	0.0055	0.0143	6.1060	39.8753	5.9602	0.5830	-0.7501	-0.2271	0.2144
0.55	-0.5353	-9.3440	-2.1709	0.0063	0.0060	0.0083	6.1793	39.8501	6.0835	0.5830	-0.7500	-0.2271	0.2144
0.56	-0.5344	-9.3436	-2.1722	0.0106	0.0049	0.0116	6.2070	39.7482	6.3863	0.5830	-0.7501	-0.2271	0.2143
0.57	-0.5353	-9.3452	-2.1701	0.0104	-0.0034	0.0124	6.2783	39.9401	6.2842	0.5830	-0.7501	-0.2271	0.2143
0.58	-0.5374	-9.3428	-2.1696	0.0079	-0.0056	0.0149	6.5247	39.8026	6.3750	0.5830	-0.7501	-0.2271	0.2144
0.59	-0.5343	-9.3470	-2.1695	0.0186	-0.0031	0.0194	6.4425	39.8547	6.3262	0.5830	-0.7501	-0.2271	0.2144
0.6	-0.5326	-9.3506	-2.1722	0.0157	0.0024	0.0158	6.0698	40.1089	6.3524	0.5829	-0.7500	-0.2271	0.2144
0.61	-0.5341	-9.3481	-2.1672	0.0162	-0.0015	0.0200	6.2467	40.9883	6.1509	0.5830	-0.7501	-0.2271	0.2145
0.62	-0.5350	-9.3504	-2.1701	0.0113	0.0006	0.0122	6.1345	40.1894	6.1807	0.5830	-0.7501	-0.2271	0.2144
0.63	-0.5398	-9.3461	-2.1642	0.0160	0.0001	0.0140	6.1887	39.8276	6.2335	0.5830	-0.7501	-0.2271	0.2145
0.64	-0.5395	-9.3423	-2.1596	0.0143	-0.0019	0.0130	6.3292	39.8901	6.3453	0.5830	-0.7500	-0.2270	0.2145
0.65	-0.5407	-9.3400	-2.1575	0.0201	0.0011	0.0118	6.3871	39.8363	6.2799	0.5830	-0.7500	-0.2270	0.2145
0.66	-0.5478	-9.3443	-2.1522	0.0159	-0.0078	0.0133	6.2330	39.8044	6.2780	0.5830	-0.7500	-0.2270	0.2145
0.67	-0.5496	-9.3458	-2.1491	0.0105	-0.0034	0.0128	6.1637	39.7828	6.3413	0.5830	-0.7500	-0.2270	0.2145
0.68	-0.5557	-9.3427	-2.1504	0.0137	-0.0020	0.0129	6.0216	40.0655	6.3110	0.5831	-0.7501	-0.2271	0.2146
0.69	-0.5577	-9.3456	-2.1489	0.0110	0.0059	0.0109	6.1169	39.9630	6.2847	0.5830	-0.7500	-0.2270	0.2145
0.7	-0.5598	-9.3491	-2.1521	0.0144	0.0010	0.0105	6.1144	40.0860	6.1983	0.5831	-0.7501	-0.2271	0.2145
0.71	-0.5702	-9.3458	-2.1573	0.0170	0.0001	0.0104	5.9427	40.0858	6.2380	0.5830	-0.7499	-0.2270	0.2145
0.72	-0.5663	-9.3415	-2.1583	0.0095	0.0077	0.0126	6.2240	39.9875	6.2209	0.5831	-0.7500	-0.2270	0.2145
0.73	-0.5688	-9.3420	-2.1603	0.0084	0.0016	0.0152	6.0301	40.0177	6.2254	0.5830	-0.7500	-0.2270	0.2145
0.74	-0.5655	-9.3468	-2.1596	0.0135	0.0036	0.0094	5.9531	39.9739	6.2216	0.5830	-0.7500	-0.2270	0.2145
0.75	-0.5698	-9.3484	-2.1598	0.0147	-0.0036	0.0113	6.0880	40.1299	6.3137	0.5831	-0.7500	-0.2270	0.2145
0.76	-0.5682	-9.3376	-2.1558	0.0153	-0.0043	0.0145	5.9228	39.8993	6.3370	0.5830	-0.7500	-0.2270	0.2145
0.77	-0.5635	-9.3467	-2.1540	0.0179	-0.0036	0.0148	6.0993	39.8380	6.2466	0.5831	-0.7500	-0.2270	0.2145
0.78	-0.5621	-9.3482	-2.1516	0.0068	-0.0046	0.0164	6.2506	39.7591	6.2465	0.5830	-0.7499	-0.2270	0.2145
0.79	-0.5684	-9.3418	-2.1439	0.0166	0.0016	0.0129	6.2001	39.7620	6.2104	0.5831	-0.7500	-0.2270	0.2146
0.8	-0.5655	-9.3443	-2.1544	0.0187	-0.0036	0.0126	6.2512	39.8797	6.2964	0.5831	-0.7500	-0.2270	0.2146
0.81	-0.5607	-9.3571	-2.1580	0.0141	-0.0016	0.0140	6.1425	39.8007	6.0343	0.5831	-0.7500	-0.2270	0.2146
0.82	-0.5551	-9.3390	-2.1452	0.0217	0.0048	0.0107	6.1646	39.9660	6.2709	0.5831	-0.7499	-0.2270	0.2146
0.83	-0.5502	-9.3420	-2.1542	0.0085	-0.0012	0.0166	6.2105	39.8604	6.3954	0.5831	-0.7500	-0.2270	0.2146
0.84	-0.5495	-9.3546	-2.1650	0.0115	-0.0023	0.0136	6.1265	39.8882	6.1287	0.5831	-0.7500	-0.2270	0.2146
0.85	-0.5513	-9.3431	-2.1592	0.0132	-0.0025	0.0172	6.1602	39.9398	6.1088	0.5830	-0.7499	-0.2270	0.2146
0.86	-0.5446	-9.3459	-2.1609	0.0138	-0.0017	0.0114	6.0481	39.9149	6.4128	0.5831	-0.7500	-0.2270	0.2147
0.87	-0.5465	-9.3459	-2.1677	0.0092	0.0009	0.0089	6.0385	39.9105	6.2882	0.5831	-0.7499	-0.2270	0.2146
0.88	-0.5497	-9.3510	-2.1602	0.0144	0.0030	0.0114	5.9392	39.9795	6.0675	0.5831	-0.7500	-0.2270	0.2146
0.89	-0.5492	-9.3461	-2.1616	0.0121	-0.0008	0.0090	6.0966	40.0268	6.2526	0.5831	-0.7499	-0.2270	0.2146
0.9	-0.5501	-9.3438	-2.1709	0.0128	-0.0001	0.0094	6.0149	39.9714	6.3438	0.5831	-0.7499	-0.2270	0.2146
0.91	-0.5512	-9.3444	-2.1754	0.0079	0.0021	0.0093	6.1501	39.8893	6.4266	0.5831	-0.7500	-0.2270	0.2146
0.92	-0.5412	-9.3411	-2.1807	0.0075	-0.0028	0.0101	6.0588	40.0120	6.4122	0.5830	-0.7499	-0.2270	0.2146
0.93	-0.5389	-9.3504	-2.1835	0.0169	0.0002	0.0121	5.9982	39.9996	6.1911	0.5831	-0.7500	-0.2270	0.2146
0.94	-0.5380	-9.3463	-2.1836	0.0149	-0.0016	0.0189	6.0604	40.1487	5.9832	0.5831	-0.7499	-0.2270	0.2146
0.95	-0.5369	-9.3444	-2.1768	0.0117	-0.0001	0.0102	6.2080	39.9526	6.1503	0.5831	-0.7500	-0.2270	0.2146
0.96	-0.5369	-9.3436	-2.1753	0.0164	0.0021	0.0140	6.5372	39.8559	6.1401	0.5830	-0.7499	-0.2270	0.2146
0.97	-0.5450	-9.3434	-2.1689	0.0203	-0.0033	0.0105	6.2130	39.7051	6.1682	0.5831	-0.7499	-0.2270	0.2146
0.98	-0.5513	-9.3440	-2.1661	0.0159	0.0008	0.0144	6.4288	39.9093	6.1066	0.5831	-0.7499	-0.2270	0.2147
0.99	-0.5578	-9.3450	-2.1650	0.0144	-0.0019	0.0105	6.2279	40.0854	6.0212	0.5831	-0.7499	-0.2270	0.2147
1	-0.5676	-9.3481	-2.1648	0.0180	-0.0043	0.0107	6.2347	39.6876	6.1894	0.5832	-0.7499	-0.2270	0.2147
1.01	-0.5711	-9.3440	-2.1536	0.0128	-0.0031	0.0135	6.3103	39.6932	6.1186	0.5831	-0.7499	-0.2270	0.2147
1.02	-0.5664	-9.3451	-2.1495	0.0089	0.0012	0.0120	6.1736	39.8763	6.2170	0.5832	-0.7499	-0.2270	0.2147
1.03	-0.5648	-9.3405	-2.1477	0.0092	-0.0006	0.0152	6.3292	40.0386	6.2356	0.5831	-0.7498	-0.2270	0.2147
1.04	-0.5637	-9.3421	-2.1429	0.0166	-0.0056	0.0160	6.2958	39.9852	6.1332	0.5831	-0.7499	-0.2270	0.2147
1.05	-0.5566	-9.3411	-2.1386	0.0110	0.0005	0.0126	6.0299	39.9009	6.1447	0.5831	-0.7499	-0.2270	0.2147
1.06	-0.5527	-9.3448	-2.1385	0.0163	0.0026	0.0097	5.9435	39.9701	6.1805	0.5832	-0.7499	-0.2270	0.2147
1.07	-0.5463	-9.3487	-2.1372	0.0157	0.0013	0.0085	6.2285	40.0551	6.5332	0.5831	-0.7498	-0.2270	0.2147
1.08	-0.5503	-9.3437	-2.1315	0.0119	-0.0001	0.0145	6.4717	39.9064	6.4829	0.5832	-0.7499	-0.2270	0.2147
1.09	-0.5590	-9.3412	-2.1325	0.0098	0.0033	0.0114	6.5351	39.8700	6.3946	0.5832	-0.7499	-0.2270	0.2147
1.1	-0.5625	-9.3443	-2.1357	0.0045	0.0003	0.0103	6.2834	40.4910	6.1556	0.5831	-0.7498	-0.2270	0.2147
1.11	-0.5673	-9.3441	-2.1403	0.0073	-0.0009	0.0101	6.1756	41.2266	6.1290	0.5831	-0.7499	-0.2271	0.2147
1.12	-0.5691	-9.3437	-2.1519	0.0104	0.0043	0.0098	6.0856	40.1276	6.0277	0.5831	-0.7499	-0.2270	0.2147
1.13	-0.5591	-9.3463	-2.1548	0.0080	-0.0027	0.0132	6.1688	39.7854	6.1669	0.5831	-0.7500	-0.2271	0.2147
1.14	-0.5507	-9.3430	-2.1574	0.0089	-0.0037	0.0113	6.0320	39.8299	6.1775	0.5830	-0.7499	-0.2271	0.2147
1.15	-0.5454	-9.3469	-2.1584	0.0107	0.0037	0.0156	6.0692	39.7627	6.0456	0.5831	-0.7499	-0.2271	0.2147
1.16	-0.5321	-9.3462	-2.1620	0.0058	0.0022	0.0123	6.2220	39.7935	6.1310	0.5830	-0.7500	-0.2270	0.2147
1.17	-0.5305	-9.3482	-2.1657	0.0115	0.0011	0.0115	6.4272	39.8718	5.9104	0.5830	-0.7499	-0.2270	0.2147
1.18	-0.5274	-9.3468	-2.1671	0.0081	0.0043	0.0124	6.2458	39.8716	5.9048	0.5831	-0.7500	-0.2271	0.2147
1.19	-0.5276	-9.3434	-2.1716	0.0041	0.0004	0.0105	6.2613	39.9016	6.1835	0.5830	-0.7500	-0.2270	0.2146
1.2	-0.5315	-9.3454	-2.1807	0.0079	-0.0054	0.0081	6.2738	39.7854	5.9071	0.5830	-0.7500	-0.2271	0.2147
1.21	-0.5407	-9.3429	-2.1803	0.0066	-0.0034	0.0093	6.1175	39.8899	5.9811	0.5829	-0.7499	-0.2271	0.2146
1.22	-0.5482	-9.3448	-2.1737	0.0066	-0.0055	0.0150	6.2346	39.8373	6.2276	0.5829	-0.7500	-0.2271	0.2147
1.23	-0.5504	-9.3453	-2.1751	0.0049	-0.0032	0.0118	6.0771	39.6804	6.1269	0.5829	-0.7500	-0.2271	0.2147
1.24	-0.5538	-9.3484	-2.1789	0.0072	0.0026	0.0108	6.2348	39.9763	5.9781	0.5829	-0.7500	-0.2271	0.2146
1.25	-0.5549	-9.3435	-2.1744	0.0107	-0.0026	0.0117	6.2018	39.9520	6.1802	0.5829	-0.7501	-0.2272	0.2147
1.26	-0.5493	-9.3380	-2.1675	0.0143	0.0002	0.0104	5.9849	39.9453	6.3034	0.5829	-0.7500	-0.2272	0.2147
1.27	-0.5493	-9.3429	-2.1695	0.0092	0.0015	0.0097	5.9476	39.9791	6.3534	0.5829	-0.7501	-0.2272	0.2146
1.28	-0.5461	-9.3439	-2.1602	0.0067	0.0016	0.0112	6.0456	39.8478	6.2522	0.5828	-0.7500	-0.2272	0.2146
1.29	-0.5500	-9.3451	-2.1631	0.0082	-0.0050	0.0106	6.2474	40.0032	6.3525	0.5829	-0.7501	-0.2272	0.2146
1.3	-0.5498	-9.3478	-2.1667	0.0081	-0.0011	0.0090	6.0393	39.8604	6.0264	0.5828	-0.7501	-0.2272	0.2146
1.31	-0.5510	-9.3450	-2.1637	0.0102	-0.0007	0.0119	6.1321	39.7552	6.2402	0.5828	-0.7501	-0.2272	0.2146
1.32	-0.5526	-9.3454	-2.1563	0.0138	-0.0044	0.0152	6.1281	39.8103	6.2709	0.5828	-0.7501	-0.2272	0.2146
1.33	-0.5544	-9.3467	-2.1598	0.0112	-0.0017	0.0184	6.1534	39.8885	6.1148	0.5828	-0.7501	-0.2272	0.2147
1.34	-0.5551	-9.3408	-2.1516	0.0122	-0.0055	0.0145	6.2671	39.8655	6.0522	0.5828	-0.7501	-0.2272	0.2147
1.35	-0.5556	-9.3451	-2.1518	0.0095	-0.0024	0.0124	6.1106	39.9529	6.1871	0.5827	-0.7500	-0.2272	0.2147
1.36	-0.5501	-9.3482	-2.1567	0.0085	-0.0052	0.0123	6.0703	39.9681	6.0399	0.5828	-0.7501	-0.2272	0.2147
1.37	-0.5503	-9.3429	-2.1506	0.0108	-0.0033	0.0106	6.1416	39.9355	6.1393	0.5828	-0.7501	-0.2273	0.2147
1.38	-0.5525	-9.3448	-2.1554	0.0068	-0.0016	0.0119	6.1496	39.7805	5.9050	0.5828	-0.7502	-0.2273	0.2148
1.39	-0.5516	-9.3474	-2.1552	0.0090	-0.0029	0.0106	6.1168	39.8736	6.0069	0.5827	-0.7501	-0.2273	0.2147
1.4	-0.5527	-9.3411	-2.1486	0.0139	-0.0019	0.0103	6.0853	39.9748	6.0720	0.5827	-0.7501	-0.2273	0.2147
1.41	-0.5552	-9.3455	-2.1556	0.0047	-0.0044	0.0128	6.2801	39.7750	6.1593	0.5827	-0.7501	-0.2273	0.2148
1.42	-0.5565	-9.3445	-2.1518	0.0126	-0.0002	0.0112	6.1220	39.8646	6.0780	0.5827	-0.7501	-0.2273	0.2147
1.43	-0.5606	-9.3441	-2.1459	0.0062	-0.0002	0.0094	6.1384	39.9658	6.1969	0.5827	-0.7502	-0.2273	0.2148
1.44	-0.5600	-9.3433	-2.1419	0.0030	-0.0019	0.0103	6.0113	39.8328	6.2327	0.5826	-0.7501	-0.2274	0.2147
1.45	-0.5588	-9.3471	-2.1459	0.0087	0.0037	0.0109	6.1032	39.9305	6.1759	0.5827	-0.7502	-0.2274	0.2147
1.46	-0.5598	-9.3407	-2.1369	0.0032	-0.0007	0.0093	5.9213	40.0495	6.3957	0.5826	-0.7501	-0.2274	0.2147
1.47	-0.5542	-9.3441	-2.1391	0.0035	0.0035	0.0062	6.1379	40.0238	6.1664	0.5826	-0.7502	-0.2274	0.2147
1.48	-0.5503	-9.3505	-2.1533	0.0057	0.0006	0.0070	6.1918	39.9167	6.0460	0.5826	-0.7502	-0.2274	0.2146
1.49	-0.5495	-9.3497	-2.1493	0.0091	0.0027	0.0103	6.1114	39.7717	6.1568	0.5826	-0.7502	-0.2274	0.2146
1.5	-0.5444	-9.3438	-2.1417	0.0096	0.0029	0.0136	6.1508	39.8981	6.1904	0.5826	-0.7503	-0.2274	0.2146
1.51	-0.5385	-9.3473	-2.1465	0.0098	-0.0104	0.0180	6.0110	39.9589	6.2409	0.5825	-0.7502	-0.2274	0.2147
1.52	-0.5385	-9.3511	-2.1570	0.0049	0.0036	0.0167	6.1104	39.7899	6.0993	0.5825	-0.7503	-0.2274	0.2147
1.53	-0.5401	-9.3428	-2.1577	0.0081	0.0019	0.0120	6.2304	39.7956	6.0524	0.5824	-0.7502	-0.2274	0.2146
1.54	-0.5383	-9.3462	-2.1606	0.0055	0.0026	0.0093	6.1997	39.7919	6.1504	0.5825	-0.7503	-0.2274	0.2146
1.55	-0.5449	-9.3489	-2.1607	0.0074	-0.0018	0.0125	6.1152	39.7784	6.0897	0.5824	-0.7503	-0.2274	0.2146
1.56	-0.5508	-9.3459	-2.1609	0.0119	-0.0047	0.0111	6.3934	39.8533	5.9453	0.5825	-0.7503	-0.2274	0.2146
1.57	-0.5564	-9.3431	-2.1720	0.0087	-0.0026	0.0138	6.4205	39.9150	6.1915	0.5824	-0.7503	-0.2274	0.2146
1.58	-0.5565	-9.3435	-2.1791	0.0075	-0.0066	0.0136	6.7635	39.8317	6.2092	0.5824	-0.7503	-0.2275	0.2147
1.59	-0.5498	-9.3458	-2.1840	0.0077	-0.0037	0.0137	6.8193	39.8177	6.1708	0.5824	-0.7503	-0.2275	0.2147
1.6	-0.5492	-9.3438	-2.1815	0.0122	-0.0088	0.0153	6.3875	40.4282	6.2242	0.5823	-0.7503	-0.2275	0.2147
1.61	-0.5439	-9.3481	-2.1806	0.0086	-0.0035	0.0175	6.3759	41.0957	6.1585	0.5824	-0.7504	-0.2275	0.2148
1.62	-0.5395	-9.3485	-2.1820	0.0105	-0.0007	0.0087	6.0497	40.3088	6.1441	0.5823	-0.7503	-0.2276	0.2148
1.63	-0.5403	-9.3438	-2.1727	0.0068	0.0026	0.0082	5.8695	39.9373	6.1883	0.5824	-0.7504	-0.2276	0.2148
1.64	-0.5427	-9.3438	-2.1699	0.0118	0.0042	0.0118	6.0922	39.9341	5.9221	0.5823	-0.7503	-0.2275	0.2147
1.65	-0.5532	-9.3449	-2.1669	0.0095	-0.0007	0.0098	6.1498	39.9201	5.9408	0.5823	-0.7503	-0.2276	0.2147
1.66	-0.5607	-9.3460	-2.1622	0.0164	-0.0038	0.0138	5.9981	40.0245	6.1870	0.5823	-0.7503	-0.2276	0.2148
1.67	-0.5665	-9.3437	-2.1605	0.0142	0.0033	0.0130	5.8957	39.9747	6.1451	0.5823	-0.7503	-0.2275	0.2147
1.68	-0.5690	-9.3431	-2.1566	0.0044	0.0036	0.0103	5.9126	39.9961	6.0313	0.5824	-0.7504	-0.2276	0.2148
1.69	-0.5700	-9.3446	-2.1511	0.0112	-0.0067	0.0163	6.0104	40.0058	5.9920	0.5823	-0.7503	-0.2276	0.2148
1.7	-0.5694	-9.3468	-2.1536	0.0120	-0.0061	0.0172	5.9910	39.9429	5.9895	0.5823	-0.7504	-0.2276	0.2148
1.71	-0.5670	-9.3435	-2.1565	0.0081	0.0019	0.0128	6.3515	39.8377	6.0807	0.5822	-0.7503	-0.2275	0.2148
1.72	-0.5650	-9.3465	-2.1569	0.0128	-0.0038	0.0122	6.2756	39.7050	6.0221	0.5823	-0.7504	-0.2276	0.2148
1.73	-0.5585	-9.3424	-2.1457	0.0102	-0.0023	0.0118	6.0658	39.6789	6.0667	0.5823	-0.7503	-0.2276	0.2148
1.74	-0.5505	-9.3421	-2.1481	0.0142	-0.0005	0.0120	6.3258	39.8497	6.0128	0.5823	-0.7503	-0.2276	0.2148
1.75	-0.5494	-9.3448	-2.1486	0.0106	-0.0017	0.0123	6.2115	39.8391	6.1859	0.5823	-0.7504	-0.2276	0.2148
1.76	-0.5547	-9.3443	-2.1461	0.0066	-0.0025	0.0123	6.0082	39.6888	5.9097	0.5822	-0.7503	-0.2276	0.2148
1.77	-0.5561	-9.3422	-2.1408	0.0104	-0.0025	0.0117	6.1673	39.6872	5.9499	0.5823	-0.7504	-0.2276	0.2148
1.78	-0.5652	-9.3466	-2.1517	0.0093	-0.0040	0.0143	6.0546	39.9296	6.1890	0.5822	-0.7503	-0.2276	0.2148
1.79	-0.5729	-9.3432	-2.1564	0.0138	-0.0082	0.0201	6.0806	39.9037	5.8574	0.5822	-0.7504	-0.2276	0.2149
1.8	-0.5711	-9.3446	-2.1610	0.0092	-0.0063	0.0129	6.1915	39.9220	6.0765	0.5822	-0.7503	-0.2276	0.2149
1.81	-0.5648	-9.3446	-2.1602	0.0101	0.0038	0.0091	6.0543	39.8695	6.1580	0.5822	-0.7504	-0.2276	0.2149
1.82	-0.5559	-9.3414	-2.1641	0.0101	-0.0004	0.0085	6.0743	39.7014	6.0345	0.5822	-0.7503	-0.2276	0.2149
1.83	-0.5462	-9.3383	-2.1647	0.0151	0.0021	0.0099	6.1622	39.8167	6.0311	0.5822	-0.7503	-0.2276	0.2149
1.84	-0.5375	-9.3441	-2.1645	0.0088	0.0033	0.0104	5.9468	39.9488	6.2800	0.5822	-0.7504	-0.2276	0.2149
1.85	-0.5370	-9.3451	-2.1615	0.0005	-0.0003	0.0092	5.7847	39.8741	6.2355	0.5821	-0.7503	-0.2276	0.2148
1.86	-0.5317	-9.3484	-2.1665	0.0073	0.0046	0.0052	6.0465	40.1284	6.0905	0.5822	-0.7504	-0.2277	0.2148
1.87	-0.5364	-9.3429	-2.1672	0.0092	-0.0013	0.0090	6.0315	40.0308	5.9961	0.5821	-0.7504	-0.2277	0.2148
1.88	-0.5417	-9.3477	-2.1702	0.0090	0.0020	0.0184	5.9851	39.9379	6.1534	0.5822	-0.7505	-0.2277	0.2148
1.89	-0.5376	-9.3458	-2.1741	0.0146	0.0112	0.0171	6.3593	39.7426	5.8564	0.5821	-0.7504	-0.2276	0.2148
1.9	-0.5417	-9.3464	-2.1641	0.0083	0.0056	0.0120	6.3846	39.8633	5.8917	0.5822	-0.7504	-0.2276	0.2148
1.91	-0.5417	-9.3477	-2.1707	0.0156	0.0033	0.0120	6.2150	39.8171	5.9914	0.5822	-0.7504	-0.2276	0.2148
1.92	-0.5425	-9.3438	-2.1695	0.0118	0.0037	0.0153	6.0124	39.8560	5.9265	0.5821	-0.7504	-0.2276	0.2148
1.93	-0.5401	-9.3444	-2.1693	0.0135	0.0025	0.0108	6.3092	39.5325	5.9910	0.5822	-0.7505	-0.2276	0.2148
1.94	-0.5353	-9.3371	-2.1670	0.0092	-0.0038	0.0152	6.2356	39.5188	6.2134	0.5822	-0.7504	-0.2276	0.2148
1.95	-0.5405	-9.3448	-2.1732	0.0200	-0.0026	0.0172	6.1069	39.8721	6.0192	0.5822	-0.7505	-0.2276	0.2148
1.96	-0.5422	-9.3427	-2.1650	0.0136	-0.0002	0.0103	6.1648	39.7047	6.1478	0.5822	-0.7503	-0.2276	0.2148
1.97	-0.5404	-9.3416	-2.1598	0.0199	-0.0058	0.0141	6.1323	39.9224	6.1052	0.5822	-0.7504	-0.2276	0.2148
1.98	-0.5408	-9.3474	-2.1651	0.0251	-0.0041	0.0181	6.1562	39.9679	6.0134	0.5823	-0.7503	-0.2276	0.2149
1.99	-0.5442	-9.3508	-2.1608	0.0144	0.0025	0.0147	6.1395	39.9448	6.0595	0.5823	-0.7503	-0.2275	0.2149
2	-0.5463	-9.3423	-2.1552	0.0117	-0.0003	0.0127	6.0770	40.1244	6.0181	0.5823	-0.7504	-0.2275	0.2149
2.01	-0.5497	-9.3402	-2.1598	0.0175	-0.0012	0.0127	6.0275	39.9082	6.1887	0.5823	-0.7503	-0.2275	0.2149
2.02	-0.5526	-9.3463	-2.1562	0.0137	0.0007	0.0095	6.1498	39.9402	6.0148	0.5823	-0.7503	-0.2276	0.2149
2.03	-0.5523	-9.3466	-2.1621	0.0110	-0.0009	0.0184	6.0668	40.1859	6.2122	0.5822	-0.7503	-0.2275	0.2149
2.04	-0.5550	-9.3426	-2.1595	0.0148	-0.0029	0.0138	5.8662	39.9304	6.2978	0.5823	-0.7503	-0.2275	0.2149
2.05	-0.5532	-9.3431	-2.1593	0.0136	-0.0001	0.0110	5.8973	39.9160	6.1758	0.5823	-0.7503	-0.2275	0.2149
2.06	-0.5512	-9.3472	-2.1614	0.0182	-0.0045	0.0131	5.9589	39.8896	6.2239	0.5823	-0.7503	-0.2275	0.2150
2.07	-0.5505	-9.3415	-2.1585	0.0186	-0.0015	0.0126	6.1292	39.9598	6.2895	0.5823	-0.7502	-0.2275	0.2150
2.08	-0.5544	-9.3420	-2.1555	0.0097	-0.0050	0.0129	6.6634	39.7039	6.4651	0.5823	-0.7503	-0.2275	0.2150
2.09	-0.5555	-9.3476	-2.1601	0.0132	-0.0104	0.0181	6.8998	39.7662	6.3927	0.5823	-0.7503	-0.2275	0.2150
2.1	-0.5590	-9.3435	-2.1522	0.0148	0.0006	0.0134	6.2537	40.4383	6.1489	0.5823	-0.7502	-0.2275	0.2151
2.11	-0.5642	-9.3474	-2.1596	0.0131	0.0078	0.0124	6.1223	41.3397	6.1207	0.5824	-0.7503	-0.2275	0.2151
2.12	-0.5640	-9.3373	-2.1613	0.0164	0.0048	0.0120	6.0975	40.2345	6.0388	0.5824	-0.7502	-0.2275	0.2150
2.13	-0.5621	-9.3479	-2.1536	0.0114	-0.0026	0.0129	6.2243	39.6405	6.1177	0.5824	-0.7503	-0.2275	0.2151
2.14	-0.5646	-9.3439	-2.1523	0.0066	-0.0016	0.0134	6.2382	39.8527	5.9816	0.5823	-0.7502	-0.2275	0.2150
2.15	-0.5631	-9.3421	-2.1510	0.0103	-0.0007	0.0097	6.1040	39.7378	6.0143	0.5824	-0.7502	-0.2275	0.2150
2.16	-0.5667	-9.3467	-2.1550	0.0094	-0.0052	0.0131	6.2062	39.8065	6.1626	0.5823	-0.7502	-0.2275	0.2151
2.17	-0.5598	-9.3524	-2.1584	0.0137	-0.0046	0.0065	6.2352	39.7635	6.1845	0.5823	-0.7502	-0.2276	0.2150
2.18	-0.5543	-9.3475	-2.1539	0.0117	-0.0016	0.0064	6.1320	39.7882	6.1659	0.5824	-0.7503	-0.2276	0.2151
2.19	-0.5528	-9.3447	-2.1513	0.0091	-0.0001	0.0106	6.0185	39.7721	6.0425	0.5823	-0.7502	-0.2276	0.2150
2.2	-0.5443	-9.3444	-2.1528	0.0090	-0.0035	0.0064	6.1693	39.7685	6.1634	0.5824	-0.7503	-0.2277	0.2150
2.21	-0.5400	-9.3419	-2.1583	0.0151	0.0019	0.0121	6.0339	39.8548	6.1678	0.5823	-0.7502	-0.2276	0.2150
2.22	-0.5370	-9.3457	-2.1556	0.0112	0.0030	0.0085	6.0198	39.9645	6.2818	0.5824	-0.7502	-0.2276	0.2150
2.23	-0.5381	-9.3483	-2.1601	0.0240	-0.0014	0.0116	6.1685	39.9047	6.2104	0.5824	-0.7502	-0.2276	0.2150
2.24	-0.5411	-9.3424	-2.1596	0.0231	0.0020	0.0092	6.1899	39.7591	6.1393	0.5824	-0.7501	-0.2276	0.2150
2.25	-0.5529	-9.3442	-2.1634	0.0180	-0.0021	0.0125	6.3224	39.8847	6.2948	0.5825	-0.7501	-0.2276	0.2150
2.26	-0.5555	-9.3405	-2.1675	0.0157	-0.0046	0.0079	6.0607	39.9465	6.2018	0.5825	-0.7501	-0.2276	0.2150
2.27	-0.5573	-9.3459	-2.1706	0.0215	-0.0029	0.0120	6.0640	39.7622	6.1702	0.5825	-0.7501	-0.2277	0.2151
2.28	-0.5571	-9.3436	-2.1694	0.0187	-0.0038	0.0108	6.1277	39.8453	6.0892	0.5825	-0.7500	-0.2276	0.2151
2.29	-0.5496	-9.3497	-2.1773	0.0170	-0.0061	0.0131	6.3645	40.0905	6.0622	0.5826	-0.7500	-0.2277	0.2151
2.3	-0.5430	-9.3497	-2.1811	0.0120	0.0002	0.0127	6.2349	39.8037	6.1171	0.5825	-0.7500	-0.2277	0.2151
2.31	-0.5432	-9.3408	-2.1711	0.0126	0.0017	0.0122	6.2278	39.7810	6.2676	0.5826	-0.7500	-0.2277	0.2151
2.32	-0.5422	-9.3416	-2.1671	0.0178	-0.0006	0.0159	6.1301	39.7549	6.1683	0.5826	-0.7500	-0.2276	0.2151
2.33	-0.5442	-9.3445	-2.1610	0.0142	-0.0032	0.0135	6.0508	39.7056	6.1611	0.5826	-0.7500	-0.2277	0.2152
2.34	-0.5503	-9.3451	-2.1624	0.0122	0.0011	0.0145	6.4185	39.8191	6.2004	0.5826	-0.7500	-0.2276	0.2152
2.35	-0.5497	-9.3442	-2.1528	0.0086	-0.0022	0.0161	6.2232	40.0414	6.0660	0.5825	-0.7499	-0.2276	0.2152
2.36	-0.5576	-9.3468	-2.1535	0.0051	0.0017	0.0133	6.1312	40.1834	6.1773	0.5826	-0.7501	-0.2276	0.2152
2.37	-0.5599	-9.3399	-2.1455	0.0055	0.0036	0.0084	6.1325	39.7003	6.2995	0.5825	-0.7500	-0.2276	0.2151
2.38	-0.5598	-9.3427	-2.1453	0.0103	0.0035	0.0088	6.1774	39.8694	6.1913	0.5826	-0.7501	-0.2277	0.2151
2.39	-0.5611	-9.3501	-2.1508	0.0168	0.0080	0.0145	5.9483	39.8584	5.9758	0.5825	-0.7500	-0.2276	0.2151
2.4	-0.5568	-9.3438	-2.1483	0.0136	0.0024	0.0114	6.1494	39.8364	6.2276	0.5826	-0.7500	-0.2276	0.2151
2.41	-0.5564	-9.3416	-2.1530	0.0114	0.0079	0.0088	6.2086	39.9296	6.2811	0.5826	-0.7500	-0.2276	0.2151
2.42	-0.5545	-9.3436	-2.1497	0.0084	0.0004	0.0090	6.0975	39.8743	6.1618	0.5825	-0.7500	-0.2276	0.2150
2.43	-0.5527	-9.3463	-2.1493	0.0079	-0.0024	0.0114	6.2769	39.7631	6.1902	0.5826	-0.7501	-0.2276	0.2151
2.44	-0.5528	-9.3441	-2.1468	0.0186	0.0027	0.0113	6.0322	40.0426	6.2652	0.5826	-0.7500	-0.2276	0.2150
2.45	-0.5547	-9.3476	-2.1477	0.0089	-0.0042	0.0118	5.9576	39.9659	6.0365	0.5826	-0.7501	-0.2276	0.2151
2.46	-0.5620	-9.3454	-2.1485	0.0122	0.0025	0.0120	6.0674	39.8354	6.1958	0.5825	-0.7500	-0.2276	0.2150
2.47	-0.5676	-9.3449	-2.1512	0.0048	0.0054	0.0118	6.1746	39.8797	6.2488	0.5826	-0.7501	-0.2276	0.2150
2.48	-0.5712	-9.3485	-2.1604	0.0071	-0.0039	0.0120	6.2448	39.8162	5.9703	0.5825	-0.7501	-0.2276	0.2150
2.49	-0.5667	-9.3466	-2.1660	0.0139	0.0018	0.0099	6.2178	39.7467	6.0278	0.5825	-0.7500	-0.2276	0.2150
2.5	-0.5587	-9.3437	-2.1681	0.0109	0.0018	0.0109	6.2381	39.8963	5.9566	0.5826	-0.7501	-0.2276	0.2150
2.51	-0.5533	-9.3442	-2.1675	0.0104	0.0053	0.0148	6.2127	39.9391	6.0584	0.5826	-0.7501	-0.2276	0.2150
2.52	-0.5487	-9.3483	-2.1702	0.0109	0.0032	0.0132	6.2487	39.9829	6.0286	0.5826	-0.7501	-0.2276	0.2150
2.53	-0.5417	-9.3457	-2.1687	0.0161	0.0060	0.0132	6.1462	40.1290	5.9582	0.5825	-0.7500	-0.2276	0.2149
2.54	-0.5402	-9.3458	-2.1687	0.0119	-0.0035	0.0148	6.0489	40.0816	6.1016	0.5826	-0.7501	-0.2276	0.2150
2.55	-0.5386	-9.3441	-2.1721	0.0122	0.0008	0.0117	6.0710	39.9685	6.0783	0.5826	-0.7501	-0.2276	0.2150
2.56	-0.5407	-9.3423	-2.1783	0.0070	0.0026	0.0065	6.0569	39.6562	6.2961	0.5826	-0.7501	-0.2276	0.2150
2.57	-0.5409	-9.3416	-2.1743	0.0069	0.0045	0.0054	6.1196	39.7276	6.2149	0.5825	-0.7501	-0.2276	0.2149
2.58	-0.5451	-9.3437	-2.1741	0.0063	0.0076	0.0075	6.5453	40.0940	6.3367	0.5826	-0.7501	-0.2276	0.2149
2.59	-0.5491	-9.3498	-2.1749	0.0122	-0.0007	0.0107	6.7334	40.1648	6.3279	0.5826	-0.7501	-0.2276	0.2149
2.6	-0.5488	-9.3476	-2.1646	0.0137	0.0037	0.0102	6.2326	40.5514	6.0960	0.5825	-0.7500	-0.2276	0.2148
2.61	-0.5452	-9.3449	-2.1671	0.0185	0.0033	0.0136	6.0137	41.4354	6.2034	0.5826	-0.7501	-0.2276	0.2149
2.62	-0.5449	-9.3476	-2.1704	0.0098	-0.0007	0.0131	6.0167	40.4305	6.2007	0.5826	-0.7501	-0.2276	0.2149
2.63	-0.5449	-9.3519	-2.1719	0.0104	-0.0035	0.0161	5.9138	39.9197	6.1746	0.5826	-0.7501	-0.2276	0.2149
2.64	-0.5406	-9.3450	-2.1647	0.0222	-0.0050	0.0151	6.2844	39.8843	6.0269	0.5826	-0.7500	-0.2276	0.2149
2.65	-0.5419	-9.3463	-2.1634	0.0127	-0.0057	0.0114	6.2646	39.6381	5.9524	0.5826	-0.7500	-0.2276	0.2149
2.66	-0.5426	-9.3542	-2.1653	0.0140	-0.0010	0.0134	6.1093	39.8332	5.9919	0.5826	-0.7500	-0.2276	0.2150
2.67	-0.5446	-9.3465	-2.1610	0.0138	0.0004	0.0136	6.1487	39.7095	6.1580	0.5826	-0.7500	-0.2276	0.2149
2.68	-0.5509	-9.3415	-2.1556	0.0207	-0.0001	0.0112	6.1547	40.0028	6.2032	0.5827	-0.7501	-0.2276	0.2150
2.69	-0.5461	-9.3460	-2.1448	0.0131	0.0011	0.0124	6.2241	39.8734	5.9955	0.5827	-0.7500	-0.2276	0.2150
2.7	-0.5432	-9.3543	-2.1559	0.0152	-0.0019	0.0113	6.2799	39.8510	6.1255	0.5827	-0.7500	-0.2276	0.2150
2.71	-0.5546	-9.3259	-2.1440	0.0117	0.0005	0.0155	6.3013	39.8526	6.2307	0.5826	-0.7499	-0.2276	0.2150
2.72	-0.5566	-9.3499	-2.1575	0.0091	-0.0004	0.0116	6.3228	39.8527	6.3264	0.5827	-0.7500	-0.2276	0.2150
2.73	-0.5504	-9.3491	-2.1522	0.0123	-0.0039	0.0141	6.0649	40.1676	6.1266	0.5827	-0.7500	-0.2276	0.2150
2.74	-0.5526	-9.3319	-2.1386	0.0081	0.0050	0.0085	6.1913	40.1239	6.1180	0.5826	-0.7500	-0.2276	0.2150
2.75	-0.5492	-9.3440	-2.1530	0.0159	-0.0012	0.0134	6.3097	39.9963	6.2349	0.5827	-0.7500	-0.2276	0.2150
2.76	-0.5517	-9.3540	-2.1570	0.0131	-0.0038	0.0100	6.2092	39.9035	6.0932	0.5827	-0.7499	-0.2276	0.2150
2.77	-0.5530	-9.3531	-2.1578	0.0094	0.0028	0.0109	6.1505	40.0025	6.2014	0.5827	-0.7500	-0.2277	0.2150
2.78	-0.5532	-9.3460	-2.1537	0.0078	0.0013	0.0126	5.8483	40.0207	6.2227	0.5826	-0.7499	-0.2276	0.2150
2.79	-0.5620	-9.3390	-2.1582	0.0020	0.0002	0.0091	6.0255	39.9011	6.2027	0.5827	-0.7500	-0.2277	0.2150
2.8	-0.5525	-9.3455	-2.1464	0.0051	0.0057	0.0147	6.0745	40.1051	6.2433	0.5826	-0.7500	-0.2277	0.2149
2.81	-0.5503	-9.3533	-2.1538	0.0128	-0.0015	0.0132	5.9914	40.0234	6.1311	0.5826	-0.7500	-0.2277	0.2149
2.82	-0.5492	-9.3435	-2.1574	0.0091	-0.0101	0.0133	5.9648	40.0011	6.1285	0.5826	-0.7500	-0.2277	0.2150
2.83	-0.5474	-9.3416	-2.1645	0.0091	-0.0049	0.0141	6.2336	39.9086	6.1230	0.5826	-0.7500	-0.2277	0.2150
2.84	-0.5546	-9.3514	-2.1676	0.0159	0.0033	0.0129	6.3390	39.7911	6.0011	0.5826	-0.7500	-0.2277	0.2150
2.85	-0.5539	-9.3483	-2.1690	0.0086	-0.0036	0.0147	6.2085	39.7429	6.1681	0.5825	-0.7500	-0.2277	0.2150
2.86	-0.5622	-9.3440	-2.1755	0.0123	-0.0016	0.0128	6.3279	39.8964	6.1044	0.5826	-0.7501	-0.2277	0.2150
2.87	-0.5576	-9.3481	-2.1704	0.0106	-0.0020	0.0159	6.2822	39.7956	6.0505	0.5826	-0.7500	-0.2277	0.2150
2.88	-0.5624	-9.3397	-2.1704	0.0086	-0.0019	0.0163	6.3366	39.7694	6.0283	0.5826	-0.7501	-0.2277	0.2151
2.89	-0.5647	-9.3470	-2.1701	0.0150	-0.0002	0.0124	6.1862	39.7508	6.1840	0.5825	-0.7500	-0.2277	0.2150
2.9	-0.5688	-9.3627	-2.1792	0.0136	-0.0055	0.0129	6.2711	39.8091	5.9419	0.5826	-0.7500	-0.2277	0.2151
2.91	-0.5898	-9.3519	-2.1980	0.0157	-0.0033	0.0138	6.1121	39.8520	5.9302	0.5826	-0.7500	-0.2277	0.2151
2.92	-0.5827	-9.3290	-2.1936	0.0138	-0.0039	0.0127	6.0378	39.9162	6.1805	0.5826	-0.7499	-0.2277	0.2151
2.93	-0.5792	-9.3423	-2.1967	0.0147	-0.0028	0.0116	6.1480	40.0180	6.1019	0.5826	-0.7500	-0.2277	0.2152
2.94	-0.5626	-9.3378	-2.1946	0.0102	-0.0021	0.0146	5.9107	40.0332	6.1442	0.5826	-0.7500	-0.2277	0.2151
2.95	-0.5474	-9.3393	-2.1902	0.0207	-0.0067	0.0083	6.0674	40.1195	6.1102	0.5827	-0.7500	-0.2277	0.2152
2.96	-0.5324	-9.3608	-2.2123	0.0165	-0.0111	0.0111	6.0624	40.0891	6.1439	0.5826	-0.7498	-0.2277	0.2152
2.97	-0.5350	-9.3438	-2.2005	0.0138	-0.0010	0.0101	6.1492	39.9774	6.1051	0.5827	-0.7499	-0.2278	0.2152
2.98	-0.5354	-9.3293	-2.1936	0.0111	-0.0045	0.0076	6.1563	39.9190	6.1952	0.5826	-0.7499	-0.2278	0.2152
2.99	-0.5423	-9.3352	-2.1940	0.0103	-0.0027	0.0097	6.0762	39.8810	6.1758	0.5826	-0.7499	-0.2278	0.2152
3	-0.5288	-9.3467	-2.1799	0.0130	-0.0078	0.0131	5.9698	39.8043	5.9980	0.5826	-0.7499	-0.2278	0.2153
3.01	-0.5166	-9.3477	-2.1649	0.0177	-0.0083	0.0138	6.0928	39.9107	6.1083	0.5826	-0.7498	-0.2278	0.2153
3.02	-0.5054	-9.3456	-2.1488	0.0207	-0.0039	0.0130	6.2220	39.8936	6.1030	0.5827	-0.7498	-0.2278	0.2153
3.03	-0.5024	-9.3511	-2.1292	0.0211	0.0027	0.0144	6.1547	39.7559	5.9355	0.5827	-0.7497	-0.2278	0.2153
3.04	-0.5133	-9.3571	-2.1181	0.0206	0.0007	0.0154	6.1390	39.8575	6.0812	0.5828	-0.7498	-0.2278	0.2154
3.05	-0.5318	-9.3429	-2.0968	0.0173	-0.0018	0.0165	6.1366	39.7136	6.1932	0.5828	-0.7497	-0.2278	0.2154
3.06	-0.5481	-9.3550	-2.1055	0.0153	0.0048	0.0128	6.1374	39.6204	6.2551	0.5828	-0.7498	-0.2278	0.2154
3.07	-0.5829	-9.3632	-2.1197	0.0162	0.0090	0.0145	6.1905	39.9243	6.1906	0.5828	-0.7497	-0.2277	0.2153
3.08	-0.6043	-9.3348	-2.1064	0.0149	0.0034	0.0153	6.6262	39.9647	6.4199	0.5828	-0.7497	-0.2277	0.2153
3.09	-0.6236	-9.3388	-2.1233	0.0094	-0.0007	0.0124	6.6236	39.8131	6.3753	0.5828	-0.7498	-0.2277	0.2153
3.1	-0.6119	-9.3508	-2.1266	0.0101	-0.0088	0.0067	6.1766	40.2715	5.9579	0.5828	-0.7497	-0.2277	0.2154
3.11	-0.5980	-9.3331	-2.1087	0.0085	-0.0070	0.0100	6.3459	41.0614	5.9991	0.5828	-0.7498	-0.2278	0.2154
3.12	-0.5749	-9.3322	-2.1127	0.0145	0.0003	0.0056	6.0553	40.3333	6.1283	0.5828	-0.7497	-0.2278	0.2154
3.13	-0.5512	-9.3492	-2.1232	0.0098	-0.0009	0.0067	6.0815	39.8295	6.2231	0.5828	-0.7498	-0.2279	0.2154
3.14	-0.5277	-9.3500	-2.1278	0.0047	-0.0055	0.0051	5.9485	40.0012	6.0469	0.5827	-0.7497	-0.2279	0.2154
3.15	-0.4982	-9.3508	-2.1332	0.0060	-0.0018	0.0089	6.1337	39.9949	6.1389	0.5828	-0.7497	-0.2279	0.2154
3.16	-0.4943	-9.3658	-2.1594	0.0130	-0.0040	0.0115	6.2284	39.9127	5.9900	0.5828	-0.7497	-0.2280	0.2154
3.17	-0.4807	-9.3475	-2.1457	0.0039	0.0007	0.0089	6.0087	40.0370	6.1602	0.5827	-0.7497	-0.2280	0.2153
3.18	-0.4892	-9.3448	-2.1631	0.0082	0.0001	0.0135	6.1896	39.9197	6.2822	0.5828	-0.7498	-0.2280	0.2154
3.19	-0.5023	-9.3511	-2.1660	0.0147	-0.0042	0.0163	6.1986	39.8613	6.0138	0.5827	-0.7497	-0.2280	0.2154
3.2	-0.5103	-9.3454	-2.1436	0.0105	-0.0037	0.0207	6.2971	39.8409	6.0001	0.5827	-0.7498	-0.2280	0.2154
3.21	-0.5347	-9.3413	-2.1455	0.0139	0.0041	0.0110	6.2917	39.9709	6.1179	0.5827	-0.7497	-0.2279	0.2154
3.22	-0.5375	-9.3486	-2.1375	0.0086	-0.0026	0.0129	6.2356	39.8988	5.9418	0.5827	-0.7497	-0.2279	0.2154
3.23	-0.5530	-9.3458	-2.1316	0.0044	-0.0013	0.0115	6.3156	39.7328	6.1565	0.5827	-0.7497	-0.2280	0.2154
3.24	-0.5575	-9.3409	-2.1229	0.0089	0.0111	0.0110	6.3139	39.5375	6.1371	0.5827	-0.7497	-0.2279	0.2154
3.25	-0.5636	-9.3530	-2.1312	0.0040	0.0041	0.0111	6.2005	39.6228	6.0968	0.5827	-0.7498	-0.2279	0.2153
3.26	-0.5713	-9.3594	-2.1393	0.0119	0.0030	0.0123	5.8970	39.9611	6.1952	0.5827	-0.7498	-0.2279	0.2153
3.27	-0.5738	-9.3431	-2.1411	0.0078	0.0030	0.0159	6.0733	39.9250	5.9915	0.5827	-0.7498	-0.2279	0.2153
3.28	-0.5754	-9.3341	-2.1401	0.0076	0.0033	0.0153	6.0442	39.9703	6.0056	0.5826	-0.7498	-0.2279	0.2153
3.29	-0.5716	-9.3474	-2.1547	0.0082	-0.0066	0.0127	6.2808	39.8081	6.1195	0.5827	-0.7499	-0.2279	0.2153
3.3	-0.5640	-9.3465	-2.1509	0.0063	-0.0053	0.0128	6.2845	39.8116	6.2485	0.5826	-0.7498	-0.2279	0.2153
3.31	-0.5457	-9.3415	-2.1403	0.0081	0.0025	0.0069	6.1094	40.1540	6.2893	0.5826	-0.7499	-0.2279	0.2153
3.32	-0.5307	-9.3531	-2.1539	0.0092	0.0054	0.0115	6.2396	39.9160	6.1606	0.5826	-0.7498	-0.2279	0.2153
3.33	-0.5252	-9.3595	-2.1734	0.0086	0.0069	0.0061	6.1990	39.7323	6.0819	0.5826	-0.7499	-0.2279	0.2152
3.34	-0.5446	-9.3619	-2.1975	0.0081	0.0118	0.0057	6.1159	39.8395	5.9439	0.5826	-0.7499	-0.2279	0.2152
3.35	-0.5722	-9.3496	-2.2164	0.0123	0.0071	0.0126	6.1704	39.9379	6.2121	0.5826	-0.7498	-0.2279	0.2151
3.36	-0.5999	-9.3334	-2.2284	0.0071	0.0043	0.0065	6.0966	39.9587	6.2353	0.5827	-0.7499	-0.2279	0.2151
3.37	-0.6083	-9.3309	-2.2395	0.0045	-0.0017	0.0131	6.0979	39.9079	6.0679	0.5826	-0.7499	-0.2279	0.2151
3.38	-0.5988	-9.3363	-2.2417	0.0163	-0.0054	0.0135	6.1465	40.0380	6.3015	0.5827	-0.7500	-0.2280	0.2152
3.39	-0.5654	-9.3317	-2.2238	0.0080	-0.0102	0.0131	6.2130	39.9347	6.1753	0.5826	-0.7498	-0.2280	0.2152
3.4	-0.5276	-9.3586	-2.2294	0.0100	-0.0085	0.0093	6.3313	39.8497	6.1734	0.5826	-0.7499	-0.2280	0.2152
3.41	-0.5104	-9.3523	-2.2198	0.0081	-0.0034	0.0125	6.2797	39.6793	6.2349	0.5826	-0.7499	-0.2280	0.2152
3.42	-0.4980	-9.3378	-2.2058	0.0098	-0.0034	0.0101	6.3178	39.8459	6.0044	0.5825	-0.7498	-0.2280	0.2152
3.43	-0.5043	-9.3538	-2.2078	0.0102	-0.0032	0.0126	6.2889	39.9580	6.0331	0.5826	-0.7499	-0.2281	0.2152
3.44	-0.5198	-9.3443	-2.1845	0.0195	-0.0016	0.0119	6.2017	39.8391	6.2265	0.5826	-0.7498	-0.2280	0.2152
3.45	-0.5397	-9.3410	-2.1688	0.0130	0.0005	0.0121	6.2384	40.0707	5.9602	0.5826	-0.7499	-0.2281	0.2152
3.46	-0.5586	-9.3481	-2.1551	0.0084	0.0028	0.0127	6.2109	39.9227	6.1203	0.5825	-0.7498	-0.2280	0.2152
3.47	-0.5705	-9.3485	-2.1550	0.0059	-0.0012	0.0113	6.2281	39.8605	6.0766	0.5826	-0.7499	-0.2281	0.2152
3.48	-0.5804	-9.3368	-2.1277	0.0049	-0.0083	0.0178	6.2170	39.8655	5.9746	0.5825	-0.7499	-0.2281	0.2152
3.49	-0.5875	-9.3466	-2.1263	0.0116	-0.0038	0.0100	6.2471	39.8597	6.0900	0.5825	-0.7499	-0.2281	0.2153
3.5	-0.5877	-9.3430	-2.1139	0.0127	0.0034	0.0063	6.0216	39.9344	6.1933	0.5825	-0.7499	-0.2281	0.2152
3.51	-0.5788	-9.3375	-2.0948	0.0105	-0.0002	0.0125	6.1134	39.7324	6.0506	0.5825	-0.7499	-0.2281	0.2152
3.52	-0.5624	-9.3513	-2.0983	0.0064	-0.0059	0.0071	6.3257	40.0211	6.4038	0.5825	-0.7499	-0.2281	0.2152
3.53	-0.5488	-9.3514	-2.0864	0.0065	-0.0020	0.0105	6.2118	39.6560	6.4971	0.5824	-0.7498	-0.2281	0.2152
3.54	-0.5314	-9.3521	-2.0907	0.0052	-0.0060	0.0120	6.0136	39.9333	6.1949	0.5825	-0.7499	-0.2282	0.2153
3.55	-0.5210	-9.3465	-2.0943	0.0058	0.0006	0.0100	6.0920	40.0343	6.1985	0.5824	-0.7499	-0.2282	0.2152
3.56	-0.5132	-9.3562	-2.1149	0.0048	-0.0028	0.0087	5.9544	39.8601	6.3750	0.5824	-0.7499	-0.2282	0.2152
3.57	-0.5282	-9.3552	-2.1247	0.0056	-0.0009	0.0096	6.1343	40.1154	6.2404	0.5824	-0.7499	-0.2282	0.2152
3.58	-0.5255	-9.3316	-2.1088	0.0039	-0.0038	0.0149	6.6093	40.0067	6.3153	0.5824	-0.7499	-0.2282	0.2152
3.59	-0.5077	-9.3552	-2.1307	0.0084	-0.0080	0.0176	6.7202	39.9968	6.4658	0.5824	-0.7500	-0.2282	0.2153
3.6	-0.5191	-9.3560	-2.1552	0.0065	-0.0063	0.0154	6.4536	40.3773	5.9212	0.5823	-0.7499	-0.2283	0.2153
3.61	-0.4978	-9.3434	-2.1374	0.0087	0.0001	0.0098	6.5751	41.1597	5.8526	0.5823	-0.7500	-0.2283	0.2153
3.62	-0.5160	-9.3459	-2.1582	0.0095	-0.0004	0.0146	6.3978	40.1241	6.1389	0.5823	-0.7500	-0.2283	0.2153
3.63	-0.5291	-9.3520	-2.1715	0.0023	-0.0048	0.0142	6.1303	39.8243	6.1446	0.5823	-0.7500	-0.2284	0.2154
3.64	-0.5356	-9.3441	-2.1734	0.0075	-0.0021	0.0136	6.0363	39.9246	6.0376	0.5822	-0.7500	-0.2283	0.2153
3.65	-0.5627	-9.3366	-2.1735	0.0059	0.0020	0.0131	6.0602	39.8219	6.0448	0.5822	-0.7500	-0.2284	0.2153
3.66	-0.5534	-9.3453	-2.1813	0.0081	-0.0018	0.0156	6.2069	39.8954	6.0448	0.5822	-0.7500	-0.2283	0.2154
3.67	-0.5687	-9.3525	-2.1886	0.0068	-0.0033	0.0168	6.1664	40.1240	6.0537	0.5821	-0.7500	-0.2283	0.2154
3.68	-0.5534	-9.3369	-2.1841	0.0047	-0.0010	0.0147	5.9018	39.9815	5.9165	0.5822	-0.7501	-0.2284	0.2154
3.69	-0.5567	-9.3405	-2.1835	0.0057	0.0001	0.0097	5.9252	39.9778	6.0067	0.5821	-0.7501	-0.2284	0.2154
3.7	-0.5529	-9.3479	-2.1908	0.0094	-0.0003	0.0135	6.1552	40.1906	6.2583	0.5821	-0.7501	-0.2284	0.2154
3.71	-0.5537	-9.3504	-2.1888	0.0124	-0.0022	0.0141	6.0196	39.8863	6.1012	0.5821	-0.7500	-0.2284	0.2154
3.72	-0.5548	-9.3453	-2.1987	0.0089	-0.0044	0.0141	6.0644	40.0888	6.1677	0.5821	-0.7501	-0.2284	0.2154
3.73	-0.5500	-9.3363	-2.1894	0.0069	-0.0018	0.0150	6.0058	39.9293	6.2066	0.5821	-0.7501	-0.2284	0.2154
3.74	-0.5537	-9.3433	-2.2007	0.0080	0.0026	0.0082	5.8949	40.0298	6.0172	0.5821	-0.7501	-0.2284	0.2154
3.75	-0.5598	-9.3525	-2.1919	0.0113	-0.0039	0.0149	5.8627	39.9148	6.0546	0.5821	-0.7501	-0.2284	0.2154
3.76	-0.5639	-9.3443	-2.1852	0.0170	-0.0004	0.0173	6.0526	39.8539	6.1634	0.5821	-0.7501	-0.2284	0.2154
3.77	-0.5760	-9.3443	-2.1812	0.0123	-0.0080	0.0144	6.3414	39.6270	6.0870	0.5821	-0.7501	-0.2284	0.2155
3.78	-0.5827	-9.3486	-2.1763	0.0104	-0.0042	0.0139	6.1047	39.6795	6.0319	0.5820	-0.7500	-0.2284	0.2155
3.79	-0.5765	-9.3423	-2.1709	0.0194	-0.0020	0.0146	6.2363	39.7840	6.0788	0.5821	-0.7501	-0.2284	0.2155
3.8	-0.5796	-9.3423	-2.1652	0.0111	-0.0028	0.0228	6.3204	39.9902	5.9895	0.5821	-0.7500	-0.2284	0.2156
3.81	-0.5784	-9.3481	-2.1673	0.0167	-0.0026	0.0145	6.2105	39.9844	5.9839	0.5821	-0.7500	-0.2284	0.2156
3.82	-0.5738	-9.3423	-2.1650	0.0134	-0.0031	0.0109	6.1214	39.9315	6.2775	0.5821	-0.7500	-0.2284	0.2156
3.83	-0.5686	-9.3497	-2.1565	0.0141	-0.0096	0.0118	6.2241	39.9443	6.0297	0.5821	-0.7500	-0.2284	0.2156
3.84	-0.5587	-9.3506	-2.1601	0.0139	-0.0037	0.0122	6.2178	39.9809	5.9482	0.5821	-0.7500	-0.2284	0.2157
3.85	-0.5541	-9.3354	-2.1469	0.0081	0.0012	0.0162	6.1421	39.7646	5.9464	0.5821	-0.7499	-0.2284	0.2157
3.86	-0.5488	-9.3341	-2.1394	0.0115	-0.0037	0.0119	5.9217	39.7963	6.1927	0.5821	-0.7500	-0.2284	0.2157
3.87	-0.5482	-9.3605	-2.1554	0.0176	-0.0006	0.0100	5.9872	39.9929	6.1977	0.5821	-0.7500	-0.2284	0.2157
3.88	-0.5500	-9.3534	-2.1487	0.0162	0.0028	0.0095	6.1235	40.1210	6.3078	0.5822	-0.7500	-0.2284	0.2157
3.89	-0.5500	-9.3269	-2.1325	0.0222	0.0011	0.0131	6.1094	40.0024	6.2131	0.5822	-0.7499	-0.2284	0.2157
3.9	-0.5527	-9.3541	-2.1528	0.0102	-0.0031	0.0107	6.0436	39.9596	6.1291	0.5822	-0.7499	-0.2284	0.2157
3.91	-0.5527	-9.3559	-2.1602	0.0106	0.0014	0.0083	6.1648	40.1861	6.0869	0.5822	-0.7499	-0.2284	0.2157
3.92	-0.5526	-9.3298	-2.1437	0.0136	0.0032	0.0096	6.0383	39.9914	6.0145	0.5822	-0.7499	-0.2284	0.2157
3.93	-0.5493	-9.3505	-2.1564	0.0088	0.0012	0.0136	6.0532	40.0470	6.1583	0.5822	-0.7500	-0.2284	0.2157
3.94	-0.5490	-9.3590	-2.1561	0.0198	-0.0046	0.0158	5.9016	40.1237	6.1080	0.5822	-0.7499	-0.2284	0.2157
3.95	-0.5471	-9.3442	-2.1461	0.0178	0.0056	0.0114	6.0934	39.8660	6.1408	0.5823	-0.7499	-0.2284	0.2157
3.96	-0.5462	-9.3450	-2.1514	0.0122	0.0035	0.0133	6.2185	39.8579	6.1329	0.5822	-0.7498	-0.2284	0.2157
3.97	-0.5446	-9.3444	-2.1483	0.0191	-0.0053	0.0169	6.2041	39.8548	6.1361	0.5823	-0.7499	-0.2284	0.2157
3.98	-0.5391	-9.3431	-2.1443	0.0107	-0.0029	0.0107	6.1878	39.8902	6.1377	0.5823	-0.7498	-0.2284	0.2157
3.99	-0.5366	-9.3444	-2.1452	0.0120	-0.0081	0.0143	6.2825	39.7755	6.1442	0.5823	-0.7498	-0.2284	0.2157
4	-0.5411	-9.3474	-2.1419	0.0104	-0.0063	0.0138	6.2907	39.8843	6.0544	0.5823	-0.7498	-0.2284	0.2158
4.01	-0.5414	-9.3443	-2.1434	0.0058	-0.0086	0.0111	6.0576	39.9541	5.8896	0.5822	-0.7498	-0.2284	0.2158
4.02	-0.5459	-9.3466	-2.1443	0.0025	-0.0045	0.0106	6.0660	39.9621	6.1041	0.5822	-0.7499	-0.2285	0.2158
4.03	-0.5489	-9.3482	-2.1503	0.0126	-0.0030	0.0121	6.3232	39.7860	6.1529	0.5822	-0.7498	-0.2285	0.2158
4.04	-0.5472	-9.3488	-2.1504	0.0089	-0.0071	0.0144	6.1382	39.8589	6.1425	0.5822	-0.7499	-0.2285	0.2158
4.05	-0.5436	-9.3415	-2.1561	0.0152	0.0032	0.0111	6.0220	40.1600	6.3992	0.5822	-0.7498	-0.2285	0.2158
4.06	-0.5434	-9.3407	-2.1575	0.0124	0.0008	0.0114	5.9865	39.9773	6.1044	0.5822	-0.7498	-0.2285	0.2158
4.07	-0.5398	-9.3490	-2.1699	0.0050	0.0015	0.0064	6.0043	40.0990	6.2349	0.5822	-0.7498	-0.2285	0.2158
4.08	-0.5422	-9.3406	-2.1590	0.0083	0.0011	0.0110	6.5541	39.9870	6.4446	0.5822	-0.7498	-0.2285	0.2158
4.09	-0.5454	-9.3444	-2.1623	0.0059	-0.0012	0.0151	6.7062	39.8914	6.4610	0.5822	-0.7499	-0.2285	0.2158
4.1	-0.5472	-9.3499	-2.1595	0.0120	0.0002	0.0132	6.3595	40.3912	6.2526	0.5821	-0.7498	-0.2285	0.2158
4.11	-0.5562	-9.3499	-2.1669	0.0109	-0.0048	0.0121	6.1999	41.1567	6.1123	0.5822	-0.7499	-0.2286	0.2158
4.12	-0.5729	-9.3438	-2.1742	0.0047	0.0038	0.0100	6.0532	40.3611	6.1369	0.5821	-0.7499	-0.2286	0.2158
4.13	-0.5794	-9.3484	-2.1809	0.0089	-0.0011	0.0184	6.0946	39.8295	6.2232	0.5822	-0.7499	-0.2286	0.2158
4.14	-0.5829	-9.3440	-2.1904	0.0096	0.0055	0.0152	6.0145	39.9005	6.2815	0.5821	-0.7498	-0.2285	0.2158
4.15	-0.5772	-9.3463	-2.1890	0.0066	-0.0017	0.0142	6.4889	39.7337	6.1112	0.5821	-0.7499	-0.2285	0.2158
4.16	-0.5635	-9.3464	-2.1856	0.0093	-0.0066	0.0129	6.2982	39.9484	6.0849	0.5821	-0.7499	-0.2285	0.2158
4.17	-0.5576	-9.3493	-2.1821	0.0065	-0.0036	0.0130	5.9469	39.6462	6.0567	0.5820	-0.7499	-0.2285	0.2158
4.18	-0.5472	-9.3454	-2.1793	0.0170	-0.0032	0.0130	6.0779	39.7988	6.2075	0.5821	-0.7500	-0.2286	0.2159
4.19	-0.5377	-9.3397	-2.1773	0.0102	-0.0057	0.0107	6.1081	39.7519	6.2188	0.5821	-0.7499	-0.2286	0.2159
4.2	-0.5336	-9.3485	-2.1805	0.0109	0.0006	0.0118	6.1206	40.0301	6.1524	0.5821	-0.7499	-0.2286	0.2159
4.21	-0.5365	-9.3516	-2.1808	0.0093	0.0026	0.0138	5.9616	39.9162	6.0740	0.5820	-0.7498	-0.2285	0.2158
4.22	-0.5431	-9.3405	-2.1714	0.0153	0.0056	0.0132	6.2065	40.0647	6.0710	0.5821	-0.7499	-0.2285	0.2158
4.23	-0.5466	-9.3430	-2.1696	0.0143	0.0032	0.0127	6.1272	39.9282	6.0615	0.5821	-0.7499	-0.2285	0.2158
4.24	-0.5503	-9.3483	-2.1725	0.0065	0.0031	0.0094	6.1834	39.7558	6.1676	0.5821	-0.7499	-0.2285	0.2158
4.25	-0.5583	-9.3423	-2.1580	0.0156	0.0009	0.0142	5.9579	39.7583	6.0720	0.5821	-0.7499	-0.2285	0.2158
4.26	-0.5549	-9.3434	-2.1536	0.0062	0.0028	0.0116	6.0302	40.0419	5.9491	0.5821	-0.7499	-0.2285	0.2158
4.27	-0.5532	-9.3499	-2.1561	0.0063	0.0005	0.0085	6.1040	39.8960	6.2504	0.5821	-0.7499	-0.2285	0.2158
4.28	-0.5528	-9.3474	-2.1524	0.0043	-0.0010	0.0113	5.9564	39.8177	6.2422	0.5820	-0.7499	-0.2285	0.2158
4.29	-0.5489	-9.3443	-2.1390	0.0072	0.0011	0.0049	6.0208	39.9654	6.1692	0.5821	-0.7500	-0.2286	0.2157
4.3	-0.5447	-9.3441	-2.1368	0.0089	-0.0031	0.0091	6.0534	39.7710	6.2647	0.5821	-0.7499	-0.2286	0.2157
4.31	-0.5487	-9.3535	-2.1375	0.0159	-0.0012	0.0150	5.9074	39.7652	6.0332	0.5821	-0.7499	-0.2286	0.2158
4.32	-0.5497	-9.3475	-2.1316	0.0096	-0.0033	0.0162	5.8912	39.7666	6.2084	0.5821	-0.7499	-0.2286	0.2158
4.33	-0.5487	-9.3519	-2.1301	0.0100	-0.0021	0.0155	6.0627	39.7535	5.9788	0.5821	-0.7499	-0.2286	0.2158
4.34	-0.5465	-9.3525	-2.1344	0.0052	-0.0034	0.0081	6.2026	39.8224	6.0829	0.5821	-0.7500	-0.2286	0.2158
4.35	-0.5506	-9.3436	-2.1314	0.0060	-0.0062	0.0120	6.0437	39.8932	6.2938	0.5820	-0.7499	-0.2286	0.2158
4.36	-0.5521	-9.3379	-2.1309	0.0166	-0.0022	0.0103	6.1734	39.6233	6.0230	0.5821	-0.7500	-0.2286	0.2158
4.37	-0.5519	-9.3429	-2.1302	0.0023	0.0006	0.0112	6.2741	39.7933	6.1436	0.5820	-0.7499	-0.2286	0.2158
4.38	-0.5521	-9.3591	-2.1493	0.0077	0.0034	0.0117	6.1031	39.8858	6.1925	0.5820	-0.7500	-0.2287	0.2158
4.39	-0.5534	-9.3451	-2.1420	0.0043	0.0054	0.0118	5.9651	39.8252	6.0494	0.5820	-0.7499	-0.2286	0.2157
4.4	-0.5476	-9.3403	-2.1399	0.0105	0.0054	0.0134	6.2259	39.8733	6.2255	0.5820	-0.7500	-0.2286	0.2157
4.41	-0.5483	-9.3553	-2.1583	0.0060	-0.0024	0.0125	6.2051	39.8302	6.2331	0.5820	-0.7500	-0.2286	0.2157
4.42	-0.5488	-9.3441	-2.1561	0.0085	-0.0018	0.0131	6.0470	39.9322	6.0384	0.5819	-0.7500	-0.2286	0.2157
4.43	-0.5483	-9.3420	-2.1557	0.0085	0.0024	0.0107	6.1010	40.0270	6.1869	0.5820	-0.7501	-0.2286	0.2157
4.44	-0.5443	-9.3591	-2.1781	0.0046	-0.0026	0.0120	5.9949	39.8987	6.2723	0.5819	-0.7500	-0.2286	0.2157
4.45	-0.5440	-9.3451	-2.1746	0.0115	0.0058	0.0075	6.0740	39.7683	6.2111	0.5820	-0.7501	-0.2287	0.2157
4.46	-0.5393	-9.3395	-2.1778	0.0061	0.0006	0.0100	6.3666	39.8505	5.9572	0.5819	-0.7500	-0.2286	0.2156
4.47	-0.5383	-9.3451	-2.1800	0.0050	-0.0013	0.0095	6.0740	39.9646	6.2453	0.5819	-0.7501	-0.2287	0.2157
4.48	-0.5434	-9.3446	-2.1791	0.0094	-0.0011	0.0112	6.0851	39.9086	6.1874	0.5819	-0.7501	-0.2287	0.2156
4.49	-0.5457	-9.3431	-2.1795	0.0107	-0.0017	0.0123	6.2802	39.7434	5.9165	0.5819	-0.7500	-0.2287	0.2156
4.5	-0.5492	-9.3453	-2.1757	0.0095	-0.0006	0.0139	6.0183	39.8893	6.2467	0.5819	-0.7501	-0.2287	0.2157
4.51	-0.5530	-9.3464	-2.1765	0.0149	-0.0041	0.0201	6.0232	39.9140	6.1660	0.5819	-0.7500	-0.2287	0.2157
4.52	-0.5555	-9.3461	-2.1775	0.0098	-0.0033	0.0154	6.2641	39.8342	6.0600	0.5819	-0.7501	-0.2287	0.2157
4.53	-0.5551	-9.3447	-2.1764	0.0069	-0.0066	0.0137	6.2144	39.8620	6.0649	0.5818	-0.7500	-0.2287	0.2157
4.54	-0.5595	-9.3501	-2.1767	0.0086	-0.0024	0.0083	6.2518	39.8653	6.1305	0.5819	-0.7501	-0.2287	0.2157
4.55	-0.5609	-9.3452	-2.1746	0.0070	-0.0023	0.0112	6.2078	39.9760	6.2603	0.5818	-0.7501	-0.2287	0.2157
4.56	-0.5596	-9.3419	-2.1694	0.0106	-0.0031	0.0126	6.2605	39.8995	6.0874	0.5819	-0.7501	-0.2287	0.2157
4.57	-0.5644	-9.3456	-2.1670	0.0067	-0.0026	0.0128	6.1677	39.9803	6.4771	0.5818	-0.7501	-0.2287	0.2157
4.58	-0.5641	-9.3499	-2.1659	0.0083	-0.0053	0.0145	6.5566	39.9758	6.3963	0.5818	-0.7501	-0.2287	0.2158
4.59	-0.5628	-9.3403	-2.1515	0.0077	-0.0033	0.0156	6.6858	39.9476	6.3592	0.5818	-0.7501	-0.2287	0.2158
4.6	-0.5652	-9.3440	-2.1557	0.0047	-0.0070	0.0182	6.2079	40.3600	6.2374	0.5817	-0.7500	-0.2287	0.2158
4.61	-0.5623	-9.3442	-2.1557	0.0170	-0.0067	0.0149	6.2268	41.2533	6.0683	0.5818	-0.7501	-0.2288	0.2159
4.62	-0.5603	-9.3444	-2.1618	0.0140	0.0006	0.0103	5.8566	40.3197	6.0352	0.5818	-0.7501	-0.2288	0.2159
4.63	-0.5540	-9.3432	-2.1560	0.0062	-0.0010	0.0082	6.0211	39.8426	6.2626	0.5818	-0.7501	-0.2288	0.2159
4.64	-0.5505	-9.3516	-2.1556	0.0131	-0.0000	0.0109	6.1671	39.8894	6.1204	0.5817	-0.7500	-0.2288	0.2158
4.65	-0.5485	-9.3410	-2.1487	0.0096	-0.0016	0.0146	6.0118	39.9541	6.1684	0.5818	-0.7501	-0.2288	0.2159
4.66	-0.5451	-9.3389	-2.1486	0.0139	-0.0030	0.0126	5.9440	40.0194	6.2483	0.5818	-0.7501	-0.2288	0.2159
4.67	-0.5500	-9.3458	-2.1513	0.0117	0.0021	0.0108	6.0624	39.8032	6.1606	0.5817	-0.7500	-0.2288	0.2159
4.68	-0.5558	-9.3481	-2.1501	0.0103	-0.0017	0.0103	6.0566	39.9814	6.0089	0.5818	-0.7501	-0.2288	0.2159
4.69	-0.5599	-9.3464	-2.1534	0.0097	-0.0039	0.0089	6.0680	40.0249	6.1116	0.5818	-0.7500	-0.2288	0.2159
4.7	-0.5621	-9.3395	-2.1467	0.0095	-0.0063	0.0172	6.0207	39.9883	6.1037	0.5818	-0.7501	-0.2289	0.2159
4.71	-0.5590	-9.3513	-2.1516	0.0120	0.0024	0.0133	6.2471	39.7332	5.9466	0.5817	-0.7500	-0.2288	0.2159
4.72	-0.5592	-9.3526	-2.1523	0.0071	-0.0026	0.0141	6.2846	39.9163	6.0998	0.5818	-0.7501	-0.2288	0.2159
4.73	-0.5574	-9.3419	-2.1437	0.0148	-0.0020	0.0119	6.2067	39.9020	6.0111	0.5818	-0.7500	-0.2288	0.2159
4.74	-0.5518	-9.3392	-2.1415	0.0077	-0.0039	0.0121	6.2111	39.8402	5.8735	0.5817	-0.7500	-0.2288	0.2159
4.75	-0.5400	-9.3546	-2.1543	0.0125	0.0022	0.0107	6.3443	39.7806	5.9896	0.5818	-0.7501	-0.2289	0.2159
4.76	-0.5296	-9.3466	-2.1493	0.0065	-0.0004	0.0129	6.2269	40.0217	5.9619	0.5817	-0.7500	-0.2289	0.2159
4.77	-0.5221	-9.3438	-2.1494	0.0069	-0.0025	0.0141	6.1048	39.9491	6.1991	0.5817	-0.7501	-0.2289	0.2159
4.78	-0.5173	-9.3465	-2.1592	0.0042	-0.0035	0.0089	6.1387	39.6263	6.2696	0.5817	-0.7500	-0.2289	0.2159
4.79	-0.5150	-9.3481	-2.1515	0.0093	-0.0067	0.0172	6.1693	39.6646	5.9867	0.5817	-0.7501	-0.2289	0.2160
4.8	-0.5178	-9.3432	-2.1613	0.0129	0.0002	0.0144	6.0525	39.9294	6.1413	0.5817	-0.7501	-0.2289	0.2160
4.81	-0.5253	-9.3525	-2.1757	0.0061	0.0031	0.0102	5.9339	39.9961	6.0609	0.5817	-0.7501	-0.2289	0.2159
4.82	-0.5333	-9.3553	-2.1780	0.0059	-0.0016	0.0140	6.0820	40.1069	6.0536	0.5816	-0.7501	-0.2289	0.2159
4.83	-0.5499	-9.3488	-2.1807	0.0057	0.0001	0.0131	6.0523	40.0093	6.0326	0.5816	-0.7501	-0.2289	0.2159
4.84	-0.5584	-9.3440	-2.1835	0.0044	0.0020	0.0148	6.2224	39.9730	6.1145	0.5816	-0.7502	-0.2289	0.2159
4.85	-0.5670	-9.3434	-2.1902	0.0044	-0.0045	0.0146	6.2132	39.9232	6.1631	0.5815	-0.7501	-0.2289	0.2159
4.86	-0.5646	-9.3433	-2.1930	0.0029	0.0012	0.0085	6.1381	39.9323	6.0295	0.5816	-0.7502	-0.2289	0.2159
4.87	-0.5615	-9.3416	-2.2025	0.0051	-0.0046	0.0134	5.9879	39.9715	6.0617	0.5815	-0.7502	-0.2289	0.2159
4.88	-0.5524	-9.3457	-2.1984	0.0133	-0.0096	0.0166	6.0109	40.0155	6.0500	0.5816	-0.7502	-0.2289	0.2160
4.89	-0.5476	-9.3491	-2.1929	0.0121	-0.0079	0.0174	6.2437	39.7171	5.9830	0.5815	-0.7501	-0.2289	0.2160
4.9	-0.5359	-9.3519	-2.1878	0.0106	-0.0023	0.0123	6.2300	39.7201	5.8344	0.5815	-0.7502	-0.2289	0.2160
4.91	-0.5371	-9.3469	-2.1812	0.0098	-0.0027	0.0158	6.1761	39.7933	6.1561	0.5815	-0.7502	-0.2289	0.2160
4.92	-0.5409	-9.3411	-2.1709	0.0101	0.0005	0.0114	6.1004	39.7637	6.0467	0.5815	-0.7501	-0.2289	0.2160
4.93	-0.5467	-9.3502	-2.1584	0.0098	-0.0063	0.0128	6.2694	39.7771	6.0081	0.5815	-0.7502	-0.2290	0.2161
4.94	-0.5579	-9.3493	-2.1507	0.0164	-0.0020	0.0129	6.2740	39.7937	5.9981	0.5815	-0.7501	-0.2289	0.2161
4.95	-0.5634	-9.3445	-2.1494	0.0161	-0.0054	0.0143	6.1892	39.9419	5.8742	0.5816	-0.7502	-0.2290	0.2161
4.96	-0.5703	-9.3404	-2.1418	0.0100	-0.0053	0.0149	6.3081	39.9385	6.1833	0.5815	-0.7501	-0.2289	0.2161
4.97	-0.5776	-9.3515	-2.1414	0.0110	0.0026	0.0098	6.1886	39.9411	6.1382	0.5815	-0.7501	-0.2290	0.2161
4.98	-0.5758	-9.3500	-2.1413	0.0159	-0.0027	0.0151	6.0790	39.9370	6.0983	0.5815	-0.7501	-0.2290	0.2161
4.99	-0.5677	-9.3424	-2.1384	0.0172	0.0005	0.0118	6.0407	39.9239	6.0235	0.5816	-0.7501	-0.2289	0.2161
5	-0.5670	-9.3418	-2.1440	0.0100	-0.0045	0.0102	6.1572	39.9441	6.0667	0.5816	-0.7501	-0.2290	0.2161
5.01	-0.5631	-9.3477	-2.1501	0.0088	-0.0047	0.0150	6.0066	39.9057	6.1823	0.5815	-0.7501	-0.2290	0.2162
5.02	-0.5583	-9.3471	-2.1434	0.0140	-0.0005	0.0080	6.1459	39.8077	6.0557	0.5816	-0.7501	-0.2290	0.2162
5.03	-0.5533	-9.3428	-2.1412	0.0125	0.0011	0.0133	6.0623	39.9691	6.1250	0.5815	-0.7500	-0.2290	0.2161
5.04	-0.5550	-9.3490	-2.1505	0.0085	0.0045	0.0107	6.0549	39.8943	6.2550	0.5816	-0.7501	-0.2290	0.2161
5.05	-0.5604	-9.3478	-2.1497	0.0073	-0.0021	0.0115	6.0445	39.7204	6.0635	0.5816	-0.7501	-0.2290	0.2161
5.06	-0.5672	-9.3412	-2.1431	0.0121	-0.0022	0.0102	5.8557	39.8744	6.3052	0.5816	-0.7501	-0.2290	0.2161
5.07	-0.5696	-9.3450	-2.1555	0.0114	-0.0032	0.0117	6.1403	40.0970	6.4023	0.5816	-0.7501	-0.2290	0.2161
5.08	-0.5677	-9.3493	-2.1610	0.0137	0.0017	0.0116	6.7250	39.7709	6.3235	0.5816	-0.7501	-0.2290	0.2161
5.09	-0.5632	-9.3397	-2.1638	0.0073	-0.0057	0.0134	6.9003	39.7709	6.2163	0.5816	-0.7501	-0.2290	0.2162
5.1	-0.5512	-9.3415	-2.1692	0.0055	-0.0036	0.0135	6.4175	40.3472	6.0372	0.5815	-0.7500	-0.2290	0.2162
5.11	-0.5409	-9.3512	-2.1780	0.0153	-0.0028	0.0117	6.3009	41.1692	6.0287	0.5816	-0.7501	-0.2291	0.2162
5.12	-0.5319	-9.3495	-2.1715	0.0078	-0.0054	0.0119	6.2175	40.0520	6.2411	0.5815	-0.7500	-0.2291	0.2162
5.13	-0.5298	-9.3439	-2.1661	0.0070	-0.0019	0.0128	6.0512	39.7729	6.1461	0.5816	-0.7501	-0.2291	0.2163
5.14	-0.5298	-9.3528	-2.1741	0.0056	-0.0024	0.0135	6.0638	40.1007	6.2489	0.5815	-0.7500	-0.2291	0.2162
5.15	-0.5293	-9.3510	-2.1752	0.0074	0.0055	0.0112	6.0480	39.8898	6.1939	0.5815	-0.7501	-0.2291	0.2162
5.16	-0.5313	-9.3416	-2.1734	0.0146	0.0007	0.0163	6.0833	39.9049	6.1787	0.5815	-0.7501	-0.2291	0.2162
5.17	-0.5347	-9.3484	-2.1684	0.0099	0.0000	0.0139	5.9714	39.8892	6.2741	0.5815	-0.7500	-0.2291	0.2162
5.18	-0.5383	-9.3486	-2.1838	0.0151	0.0025	0.0105	5.9952	40.0507	6.0125	0.5816	-0.7501	-0.2291	0.2162
5.19	-0.5405	-9.3427	-2.1822	0.0129	0.0043	0.0090	6.0962	40.0153	6.0821	0.5815	-0.7501	-0.2291	0.2162
5.2	-0.5467	-9.3422	-2.1752	0.0144	0.0016	0.0107	6.2340	39.9740	6.0404	0.5816	-0.7501	-0.2291	0.2162
5.21	-0.5484	-9.3432	-2.1765	0.0221	0.0039	0.0128	6.1328	39.9130	6.1587	0.5815	-0.7500	-0.2290	0.2162
5.22	-0.5455	-9.3482	-2.1798	0.0108	-0.0008	0.0104	6.1589	39.9578	6.0344	0.5816	-0.7500	-0.2291	0.2162
5.23	-0.5440	-9.3401	-2.1812	0.0105	-0.0017	0.0116	6.0990	39.9145	6.2508	0.5816	-0.7500	-0.2291	0.2162
5.24	-0.5460	-9.3489	-2.1766	0.0062	0.0025	0.0112	6.2950	40.0158	6.1602	0.5816	-0.7500	-0.2291	0.2162
5.25	-0.5469	-9.3514	-2.1739	0.0154	-0.0019	0.0111	6.3047	40.0347	6.1380	0.5816	-0.7500	-0.2291	0.2162
5.26	-0.5505	-9.3480	-2.1681	0.0166	0.0016	0.0121	6.1937	40.0103	6.3068	0.5816	-0.7500	-0.2291	0.2162
5.27	-0.5509	-9.3451	-2.1622	0.0081	0.0021	0.0131	6.2090	39.8423	6.5050	0.5816	-0.7500	-0.2291	0.2162
5.28	-0.5525	-9.3491	-2.1607	0.0134	0.0018	0.0146	6.3041	39.9411	6.1116	0.5816	-0.7499	-0.2290	0.2162
5.29	-0.5547	-9.3473	-2.1555	0.0132	-0.0003	0.0128	6.2979	39.9410	6.0913	0.5817	-0.7500	-0.2291	0.2162
5.3	-0.5540	-9.3403	-2.1571	0.0182	0.0034	0.0120	6.1763	39.8020	6.3043	0.5817	-0.7500	-0.2290	0.2162
5.31	-0.5596	-9.3493	-2.1557	0.0081	-0.0030	0.0119	6.0591	39.9534	6.1505	0.5817	-0.7500	-0.2291	0.2162
5.32	-0.5620	-9.3526	-2.1524	0.0118	0.0010	0.0132	6.0764	39.8369	6.0568	0.5817	-0.7500	-0.2290	0.2162
5.33	-0.5610	-9.3433	-2.1555	0.0060	-0.0028	0.0112	5.9252	39.7488	5.9492	0.5817	-0.7500	-0.2291	0.2162
5.34	-0.5611	-9.3468	-2.1574	0.0077	0.0018	0.0091	6.1395	39.7772	6.0189	0.5817	-0.7500	-0.2291	0.2162
5.35	-0.5611	-9.3481	-2.1599	0.0103	-0.0020	0.0135	6.3457	39.7713	6.2431	0.5816	-0.7499	-0.2291	0.2162
5.36	-0.5615	-9.3453	-2.1521	0.0078	-0.0021	0.0111	6.1744	39.7758	6.3568	0.5817	-0.7500	-0.2291	0.2162
5.37	-0.5594	-9.3401	-2.1518	0.0144	0.0018	0.0114	6.2639	39.9306	6.1512	0.5816	-0.7500	-0.2291	0.2162
5.38	-0.5614	-9.3479	-2.1550	0.0074	0.0023	0.0100	6.1384	39.9358	6.1671	0.5817	-0.7501	-0.2291	0.2162
5.39	-0.5603	-9.3458	-2.1537	0.0077	-0.0062	0.0141	6.1657	39.9485	6.0361	0.5816	-0.7500	-0.2291	0.2161
5.4	-0.5626	-9.3391	-2.1498	0.0110	0.0015	0.0119	5.9977	39.8960	6.2167	0.5816	-0.7500	-0.2291	0.2162
5.41	-0.5611	-9.3423	-2.1488	0.0105	0.0031	0.0094	6.0325	39.8671	6.1944	0.5816	-0.7500	-0.2291	0.2161
5.42	-0.5572	-9.3487	-2.1536	0.0052	0.0025	0.0112	6.0665	40.0443	6.1272	0.5816	-0.7500	-0.2291	0.2161
5.43	-0.5535	-9.3487	-2.1509	0.0108	0.0042	0.0101	6.0717	39.9121	6.1542	0.5817	-0.7501	-0.2291	0.2161
5.44	-0.5536	-9.3471	-2.1536	0.0113	-0.0017	0.0147	6.1430	39.9515	6.2896	0.5816	-0.7500	-0.2291	0.2161
5.45	-0.5527	-9.3515	-2.1556	0.0086	0.0009	0.0131	5.9943	39.9163	6.0971	0.5817	-0.7501	-0.2291	0.2161
5.46	-0.5485	-9.3415	-2.1491	0.0099	-0.0023	0.0126	6.3335	40.0240	6.0242	0.5816	-0.7500	-0.2291	0.2161
5.47	-0.5535	-9.3428	-2.1554	0.0060	-0.0042	0.0107	6.4018	40.0324	6.3201	0.5816	-0.7500	-0.2291	0.2161
5.48	-0.5515	-9.3486	-2.1556	0.0078	-0.0038	0.0108	6.3489	39.8501	6.1348	0.5816	-0.7500	-0.2291	0.2161
5.49	-0.5516	-9.3509	-2.1632	0.0105	-0.0043	0.0134	6.2258	39.8823	6.2490	0.5816	-0.7500	-0.2291	0.2161
5.5	-0.5487	-9.3450	-2.1612	0.0145	-0.0016	0.0149	6.0472	39.8145	6.1348	0.5816	-0.7500	-0.2291	0.2162
5.51	-0.5448	-9.3478	-2.1703	0.0080	-0.0027	0.0122	6.0739	39.8227	6.0434	0.5816	-0.7500	-0.2291	0.2162
5.52	-0.5428	-9.3475	-2.1689	0.0095	-0.0023	0.0147	6.0591	39.8009	6.0582	0.5816	-0.7501	-0.2291	0.2162
5.53	-0.5381	-9.3420	-2.1656	0.0052	-0.0017	0.0089	6.1316	39.7701	6.1423	0.5815	-0.7500	-0.2291	0.2161
5.54	-0.5391	-9.3465	-2.1596	0.0164	0.0029	0.0128	6.1688	39.8353	6.2734	0.5816	-0.7501	-0.2292	0.2162
5.55	-0.5362	-9.3509	-2.1678	0.0069	0.0030	0.0057	6.2263	39.8093	6.2159	0.5816	-0.7500	-0.2292	0.2161
5.56	-0.5404	-9.3471	-2.1639	0.0098	0.0047	0.0063	6.2300	39.8549	6.3170	0.5816	-0.7500	-0.2292	0.2161
5.57	-0.5428	-9.3416	-2.1634	0.0090	0.0024	0.0087	6.1795	39.8976	6.4241	0.5816	-0.7500	-0.2292	0.2161
5.58	-0.5481	-9.3462	-2.1572	0.0042	0.0035	0.0130	6.4117	39.8549	6.5493	0.5816	-0.7500	-0.2292	0.2160
5.59	-0.5548	-9.3443	-2.1587	0.0090	0.0032	0.0114	6.5224	39.8288	6.5080	0.5816	-0.7501	-0.2292	0.2160
5.6	-0.5539	-9.3418	-2.1581	0.0174	0.0050	0.0034	6.1872	40.4706	6.2413	0.5816	-0.7500	-0.2292	0.2160
5.61	-0.5567	-9.3465	-2.1567	0.0098	-0.0025	0.0124	6.2028	41.0932	6.2205	0.5816	-0.7501	-0.2292	0.2160
5.62	-0.5583	-9.3515	-2.1512	0.0149	-0.0044	0.0088	6.0141	40.3019	6.2278	0.5816	-0.7500	-0.2292	0.2160
5.63	-0.5601	-9.3472	-2.1441	0.0133	-0.0071	0.0150	6.1120	39.8284	6.2501	0.5817	-0.7501	-0.2292	0.2160
5.64	-0.5546	-9.3414	-2.1492	0.0131	-0.0071	0.0164	6.2151	39.9056	6.2475	0.5816	-0.7500	-0.2292	0.2161
5.65	-0.5540	-9.3469	-2.1475	0.0061	-0.0053	0.0172	6.2012	39.7906	6.1352	0.5816	-0.7500	-0.2292	0.2161
5.66	-0.5549	-9.3460	-2.1486	0.0167	-0.0054	0.0126	6.0408	39.7578	6.1921	0.5816	-0.7500	-0.2292	0.2161
5.67	-0.5497	-9.3420	-2.1434	0.0247	-0.0017	0.0112	6.1002	39.8291	6.0705	0.5816	-0.7499	-0.2292	0.2161
5.68	-0.5537	-9.3494	-2.1451	0.0095	-0.0064	0.0137	6.3333	39.8780	6.0770	0.5817	-0.7500	-0.2292	0.2162
5.69	-0.5480	-9.3488	-2.1523	0.0100	-0.0021	0.0090	6.1229	39.8045	6.0790	0.5816	-0.7499	-0.2292	0.2162
5.7	-0.5424	-9.3427	-2.1516	0.0107	-0.0055	0.0159	6.1913	39.7496	6.0655	0.5817	-0.7500	-0.2293	0.2162
5.71	-0.5426	-9.3432	-2.1557	0.0128	0.0008	0.0131	6.2261	39.8554	6.1454	0.5816	-0.7499	-0.2292	0.2162
5.72	-0.5440	-9.3476	-2.1635	0.0076	-0.0002	0.0169	6.0925	39.7542	6.4101	0.5817	-0.7499	-0.2292	0.2162
5.73	-0.5498	-9.3456	-2.1594	0.0162	-0.0041	0.0193	6.1513	40.0786	6.2093	0.5816	-0.7499	-0.2292	0.2162
5.74	-0.5586	-9.3439	-2.1606	0.0169	0.0066	0.0100	6.0510	40.0910	6.1157	0.5817	-0.7499	-0.2292	0.2162
5.75	-0.5606	-9.3466	-2.1745	0.0119	0.0024	0.0127	6.0435	40.1937	6.2651	0.5817	-0.7499	-0.2292	0.2162
5.76	-0.5604	-9.3458	-2.1817	0.0161	0.0025	0.0112	6.0360	39.9085	6.2297	0.5817	-0.7499	-0.2292	0.2162
5.77	-0.5552	-9.3374	-2.1859	0.0032	0.0015	0.0094	5.8913	39.8000	6.0537	0.5817	-0.7499	-0.2292	0.2162
5.78	-0.5472	-9.3474	-2.1855	0.0124	0.0006	0.0112	6.2480	39.9411	6.1641	0.5817	-0.7498	-0.2292	0.2162
5.79	-0.5404	-9.3507	-2.1857	0.0143	0.0049	0.0081	6.1642	40.0203	6.1481	0.5818	-0.7499	-0.2292	0.2162
5.8	-0.5357	-9.3440	-2.1810	0.0119	-0.0007	0.0104	6.0198	40.0163	6.1766	0.5817	-0.7499	-0.2292	0.2161
5.81	-0.5373	-9.3470	-2.1768	0.0105	0.0021	0.0121	6.0156	39.9606	6.0549	0.5818	-0.7499	-0.2292	0.2161
5.82	-0.5418	-9.3509	-2.1760	0.0165	-0.0055	0.0130	5.8440	39.8036	6.1846	0.5817	-0.7499	-0.2292	0.2162
5.83	-0.5432	-9.3459	-2.1639	0.0240	-0.0016	0.0129	6.1642	39.7676	6.1074	0.5818	-0.7498	-0.2292	0.2162
5.84	-0.5478	-9.3416	-2.1650	0.0205	-0.0027	0.0122	6.2479	39.7352	5.9301	0.5819	-0.7498	-0.2292	0.2162
5.85	-0.5539	-9.3450	-2.1586	0.0174	0.0026	0.0140	6.4627	39.5813	6.1034	0.5818	-0.7497	-0.2291	0.2162
5.86	-0.5564	-9.3504	-2.1601	0.0132	-0.0048	0.0176	6.4398	39.7145	6.0736	0.5819	-0.7498	-0.2291	0.2162
5.87	-0.5616	-9.3468	-2.1480	0.0127	-0.0026	0.0113	6.2114	39.6581	6.0862	0.5819	-0.7498	-0.2291	0.2162
5.88	-0.5642	-9.3474	-2.1585	0.0143	0.0001	0.0122	6.2153	39.7481	6.0725	0.5819	-0.7498	-0.2292	0.2163
5.89	-0.5633	-9.3469	-2.1581	0.0136	0.0025	0.0124	6.2099	39.8580	6.0748	0.5819	-0.7497	-0.2291	0.2162
5.9	-0.5629	-9.3442	-2.1594	0.0194	-0.0039	0.0121	6.2039	39.7342	6.0851	0.5819	-0.7497	-0.2291	0.2163
5.91	-0.5616	-9.3386	-2.1512	0.0165	-0.0036	0.0171	6.2223	39.8103	6.2603	0.5820	-0.7497	-0.2291	0.2163
5.92	-0.5574	-9.3431	-2.1538	0.0178	0.0055	0.0161	6.1358	39.9326	6.1808	0.5820	-0.7496	-0.2291	0.2163
5.93	-0.5555	-9.3448	-2.1565	0.0107	0.0048	0.0085	6.0396	39.9269	6.0381	0.5820	-0.7497	-0.2291	0.2163
5.94	-0.5524	-9.3465	-2.1537	0.0159	-0.0028	0.0082	6.0576	39.9409	6.1086	0.5820	-0.7497	-0.2291	0.2163
5.95	-0.5583	-9.3444	-2.1495	0.0175	0.0028	0.0088	6.0457	40.1003	6.1850	0.5821	-0.7497	-0.2291	0.2163
5.96	-0.5626	-9.3426	-2.1477	0.0111	0.0051	0.0075	6.0524	40.0828	6.0411	0.5820	-0.7496	-0.2291	0.2162
5.97	-0.5649	-9.3446	-2.1479	0.0245	-0.0010	0.0075	6.0494	40.0061	6.0903	0.5821	-0.7496	-0.2291	0.2162
5.98	-0.5656	-9.3446	-2.1602	0.0176	0.0006	0.0093	6.1902	39.9999	6.0234	0.5822	-0.7496	-0.2291	0.2162
5.99	-0.5601	-9.3436	-2.1597	0.0204	0.0023	0.0102	5.9648	40.0802	6.2288	0.5822	-0.7495	-0.2291	0.2162
6	-0.5555	-9.3444	-2.1694	0.0147	0.0001	0.0114	5.9625	40.1874	6.3225	0.5822	-0.7495	-0.2291	0.2162
6.01	-0.5483	-9.3443	-2.1614	0.0166	-0.0048	0.0145	6.0852	39.7965	6.1165	0.5822	-0.7495	-0.2291	0.2162
6.02	-0.5425	-9.3496	-2.1689	0.0224	-0.0065	0.0151	6.4122	39.7578	6.1924	0.5823	-0.7495	-0.2291	0.2163
6.03	-0.5364	-9.3465	-2.1674	0.0114	-0.0037	0.0104	6.4882	39.7883	6.1569	0.5822	-0.7494	-0.2291	0.2163
6.04	-0.5278	-9.3425	-2.1564	0.0199	-0.0037	0.0125	6.2110	39.7335	6.2793	0.5823	-0.7495	-0.2291	0.2163
6.05	-0.5265	-9.3449	-2.1665	0.0242	0.0088	0.0112	6.1065	39.8307	6.0732	0.5824	-0.7494	-0.2291	0.2163
6.06	-0.5260	-9.3553	-2.1675	0.0193	-0.0047	0.0142	6.3997	39.8302	6.0712	0.5824	-0.7494	-0.2291	0.2163
6.07	-0.5318	-9.3441	-2.1666	0.0128	-0.0027	0.0125	6.3259	39.9800	6.1478	0.5824	-0.7493	-0.2291	0.2163
6.08	-0.5377	-9.3417	-2.1667	0.0137	-0.0002	0.0140	6.5674	40.0798	6.4513	0.5824	-0.7494	-0.2290	0.2163
6.09	-0.5419	-9.3495	-2.1694	0.0081	-0.0013	0.0081	6.6162	39.9890	6.4193	0.5824	-0.7494	-0.2290	0.2163
6.1	-0.5499	-9.3475	-2.1665	0.0103	0.0054	0.0115	6.0588	40.1463	6.1353	0.5824	-0.7493	-0.2290	0.2163
6.11	-0.5477	-9.3453	-2.1637	0.0082	0.0091	0.0110	6.1668	41.1628	6.0997	0.5825	-0.7494	-0.2290	0.2163
6.12	-0.5476	-9.3474	-2.1671	0.0048	0.0032	0.0070	6.2097	40.1931	6.1786	0.5824	-0.7494	-0.2290	0.2162
6.13	-0.5464	-9.3495	-2.1743	0.0103	0.0044	0.0144	6.2042	39.8103	6.2658	0.5825	-0.7495	-0.2290	0.2162
6.14	-0.5428	-9.3389	-2.1591	0.0186	-0.0015	0.0112	5.9480	40.0217	6.1274	0.5824	-0.7493	-0.2290	0.2162
6.15	-0.5438	-9.3406	-2.1661	0.0085	-0.0014	0.0115	5.9175	39.7056	6.2515	0.5824	-0.7494	-0.2290	0.2162
6.16	-0.5402	-9.3477	-2.1662	0.0106	-0.0052	0.0141	6.0480	39.8107	6.2304	0.5824	-0.7494	-0.2290	0.2162
6.17	-0.5446	-9.3479	-2.1578	0.0124	0.0069	0.0097	6.1521	39.8421	6.2168	0.5824	-0.7493	-0.2290	0.2162
6.18	-0.5519	-9.3425	-2.1609	0.0081	0.0041	0.0094	6.1412	39.8787	6.3662	0.5825	-0.7494	-0.2290	0.2162
6.19	-0.5526	-9.3487	-2.1598	0.0103	-0.0042	0.0165	6.1580	39.9050	6.2326	0.5824	-0.7494	-0.2290	0.2162
6.2	-0.5606	-9.3480	-2.1540	0.0091	-0.0029	0.0205	6.1326	39.9389	6.1008	0.5825	-0.7494	-0.2290	0.2162
6.21	-0.5602	-9.3423	-2.1564	0.0145	-0.0019	0.0100	6.2513	39.7472	6.1788	0.5824	-0.7493	-0.2290	0.2162
6.22	-0.5666	-9.3449	-2.1556	0.0097	-0.0025	0.0123	6.1011	39.7234	6.1258	0.5824	-0.7494	-0.2290	0.2162
6.23	-0.5673	-9.3466	-2.1590	0.0044	0.0069	0.0107	6.2516	39.8204	6.1901	0.5824	-0.7494	-0.2290	0.2162
6.24	-0.5606	-9.3408	-2.1548	0.0074	-0.0004	0.0139	6.3478	39.7459	6.0507	0.5824	-0.7494	-0.2290	0.2162
6.25	-0.5601	-9.3425	-2.1593	0.0052	-0.0053	0.0113	6.1332	40.0925	6.0679	0.5824	-0.7494	-0.2290	0.2162
6.26	-0.5601	-9.3455	-2.1574	0.0107	-0.0005	0.0119	6.0248	39.9798	6.1295	0.5824	-0.7494	-0.2290	0.2162
6.27	-0.5590	-9.3445	-2.1574	0.0103	-0.0023	0.0119	6.2016	39.7571	6.0155	0.5824	-0.7495	-0.2290	0.2162
6.28	-0.5548	-9.3419	-2.1623	0.0039	0.0038	0.0116	6.2469	39.8900	6.1636	0.5823	-0.7494	-0.2290	0.2162
6.29	-0.5556	-9.3488	-2.1597	0.0116	-0.0034	0.0162	6.1373	39.8436	6.1421	0.5824	-0.7495	-0.2290	0.2162
6.3	-0.5569	-9.3446	-2.1570	0.0109	-0.0021	0.0087	6.2681	40.0841	6.1441	0.5824	-0.7494	-0.2290	0.2162
6.31	-0.5602	-9.3474	-2.1582	0.0095	0.0042	0.0119	5.9511	40.0764	6.1439	0.5824	-0.7495	-0.2290	0.2162
6.32	-0.5573	-9.3417	-2.1571	0.0106	0.0021	0.0092	6.1038	39.9306	6.0466	0.5824	-0.7494	-0.2290	0.2162
6.33	-0.5592	-9.3443	-2.1627	0.0090	0.0003	0.0108	6.1384	39.8448	6.0643	0.5824	-0.7494	-0.2290	0.2162
6.34	-0.5621	-9.3490	-2.1685	0.0112	0.0014	0.0092	6.2167	39.9279	6.2396	0.5824	-0.7495	-0.2290	0.2161
6.35	-0.5589	-9.3433	-2.1666	0.0135	-0.0042	0.0120	6.1640	39.9607	6.2074	0.5823	-0.7494	-0.2290	0.2161
6.36	-0.5551	-9.3455	-2.1657	0.0136	0.0009	0.0106	6.0458	39.9554	6.2759	0.5824	-0.7495	-0.2291	0.2162
6.37	-0.5558	-9.3461	-2.1667	0.0124	-0.0017	0.0117	6.2146	39.9363	6.1346	0.5824	-0.7494	-0.2290	0.2161
6.38	-0.5521	-9.3464	-2.1588	0.0141	-0.0058	0.0164	6.2475	39.7861	6.0361	0.5825	-0.7495	-0.2291	0.2162
6.39	-0.5461	-9.3448	-2.1629	0.0114	-0.0057	0.0181	6.2168	39.7868	6.0659	0.5824	-0.7494	-0.2290	0.2162
6.4	-0.5418	-9.3463	-2.1605	0.0147	-0.0038	0.0184	6.1564	39.9037	5.9593	0.5824	-0.7494	-0.2290	0.2163
6.41	-0.5417	-9.3432	-2.1607	0.0133	-0.0042	0.0143	6.4415	39.8347	6.1271	0.5824	-0.7494	-0.2290	0.2163
6.42	-0.5463	-9.3438	-2.1644	0.0100	-0.0017	0.0119	6.2430	39.6957	5.9468	0.5824	-0.7493	-0.2290	0.2163
6.43	-0.5535	-9.3447	-2.1651	0.0119	-0.0024	0.0143	6.1370	39.7089	6.0948	0.5825	-0.7494	-0.2290	0.2163
6.44	-0.5528	-9.3393	-2.1620	0.0066	-0.0026	0.0117	5.9122	39.9599	6.0168	0.5824	-0.7494	-0.2290	0.2163
6.45	-0.5572	-9.3373	-2.1610	0.0069	-0.0024	0.0091	6.1598	39.8927	6.1339	0.5824	-0.7494	-0.2291	0.2163
6.46	-0.5572	-9.3475	-2.1627	0.0038	-0.0034	0.0129	6.0547	39.8417	6.1456	0.5823	-0.7493	-0.2291	0.2163
6.47	-0.5599	-9.3499	-2.1643	0.0122	-0.0023	0.0090	6.1036	40.0033	6.1562	0.5824	-0.7494	-0.2291	0.2163
6.48	-0.5597	-9.3434	-2.1554	0.0162	-0.0108	0.0096	6.1224	39.8826	6.0979	0.5824	-0.7494	-0.2291	0.2163
6.49	-0.5563	-9.3437	-2.1581	0.0082	-0.0023	0.0113	6.0627	39.8624	6.0240	0.5823	-0.7493	-0.2291	0.2163
6.5	-0.5503	-9.3480	-2.1572	0.0055	0.0031	0.0103	5.9764	39.9365	6.2597	0.5824	-0.7494	-0.2291	0.2163
6.51	-0.5457	-9.3427	-2.1528	0.0130	0.0007	0.0094	6.0209	39.9984	6.0855	0.5824	-0.7494	-0.2291	0.2163
6.52	-0.5449	-9.3410	-2.1516	0.0052	-0.0008	0.0073	6.0903	40.0025	6.0148	0.5824	-0.7494	-0.2292	0.2163
6.53	-0.5457	-9.3473	-2.1498	0.0063	0.0002	0.0080	6.0606	39.8467	6.1773	0.5823	-0.7493	-0.2292	0.2162
6.54	-0.5433	-9.3489	-2.1530	0.0102	-0.0001	0.0105	6.0660	39.9606	6.0946	0.5824	-0.7494	-0.2292	0.2163
6.55	-0.5390	-9.3519	-2.1585	0.0074	0.0016	0.0110	6.0891	39.9729	6.1056	0.5823	-0.7494	-0.2292	0.2162
6.56	-0.5391	-9.3494	-2.1664	0.0144	0.0046	0.0095	5.9738	39.9049	6.3625	0.5824	-0.7494	-0.2292	0.2162
6.57	-0.5439	-9.3432	-2.1549	0.0119	0.0048	0.0155	6.1483	40.1130	6.2869	0.5823	-0.7494	-0.2292	0.2162
6.58	-0.5491	-9.3470	-2.1558	0.0089	-0.0044	0.0142	6.4970	39.8868	6.2395	0.5823	-0.7494	-0.2292	0.2162
6.59	-0.5532	-9.3461	-2.1588	0.0165	-0.0040	0.0172	6.5381	39.8305	6.1158	0.5824	-0.7494	-0.2292	0.2163
6.6	-0.5527	-9.3446	-2.1626	0.0033	-0.0038	0.0132	6.3970	40.3630	5.9544	0.5823	-0.7493	-0.2292	0.2163
6.61	-0.5566	-9.3429	-2.1713	0.0125	-0.0050	0.0117	6.3519	40.9271	6.0738	0.5823	-0.7494	-0.2293	0.2163
6.62	-0.5493	-9.3426	-2.1715	0.0179	-0.0031	0.0154	6.1727	40.1306	6.1880	0.5823	-0.7493	-0.2292	0.2163
6.63	-0.5474	-9.3458	-2.1755	0.0116	-0.0038	0.0167	6.2678	39.7142	6.0859	0.5824	-0.7494	-0.2292	0.2164
6.64	-0.5410	-9.3430	-2.1772	0.0083	-0.0036	0.0145	6.3055	40.0093	6.0733	0.5823	-0.7493	-0.2292	0.2164
6.65	-0.5365	-9.3453	-2.1712	0.0155	-0.0050	0.0122	6.1523	39.8717	6.0562	0.5823	-0.7493	-0.2292	0.2164
6.66	-0.5400	-9.3517	-2.1717	0.0130	-0.0046	0.0153	6.1244	39.9763	6.1203	0.5823	-0.7493	-0.2292	0.2164
6.67	-0.5429	-9.3447	-2.1706	0.0180	-0.0023	0.0128	6.1069	39.8150	6.1739	0.5823	-0.7493	-0.2292	0.2164
6.68	-0.5489	-9.3441	-2.1668	0.0126	-0.0007	0.0134	6.1531	39.9643	6.1425	0.5824	-0.7494	-0.2292	0.2165
6.69	-0.5570	-9.3433	-2.1643	0.0098	-0.0011	0.0079	6.0456	40.0088	6.3074	0.5824	-0.7493	-0.2292	0.2165
6.7	-0.5596	-9.3436	-2.1601	0.0085	-0.0027	0.0166	5.9074	40.0273	6.0895	0.5824	-0.7493	-0.2292	0.2165
6.71	-0.5643	-9.3422	-2.1576	0.0125	-0.0018	0.0105	6.0729	39.9010	6.0345	0.5823	-0.7492	-0.2292	0.2165
6.72	-0.5646	-9.3428	-2.1511	0.0185	0.0037	0.0123	6.0256	40.0665	6.3264	0.5824	-0.7493	-0.2292	0.2165
6.73	-0.5621	-9.3451	-2.1543	0.0194	0.0042	0.0108	6.0633	40.0473	6.1031	0.5824	-0.7492	-0.2292	0.2165
6.74	-0.5630	-9.3457	-2.1571	0.0061	0.0015	0.0122	5.9834	39.9986	6.0446	0.5824	-0.7492	-0.2292	0.2164
6.75	-0.5612	-9.3405	-2.1532	0.0206	0.0042	0.0094	5.9392	39.9234	6.1683	0.5825	-0.7493	-0.2292	0.2164
6.76	-0.5578	-9.3513	-2.1575	0.0141	0.0033	0.0103	6.0229	39.7955	5.9019	0.5825	-0.7492	-0.2292	0.2164
6.77	-0.5534	-9.3452	-2.1577	0.0183	-0.0031	0.0112	6.4076	39.7190	6.1110	0.5825	-0.7492	-0.2292	0.2164
6.78	-0.5523	-9.3393	-2.1561	0.0244	-0.0010	0.0117	6.1894	39.9509	5.9636	0.5825	-0.7491	-0.2292	0.2164
6.79	-0.5530	-9.3437	-2.1509	0.0208	0.0053	0.0149	6.2123	39.9079	6.0047	0.5826	-0.7492	-0.2292	0.2165
6.8	-0.5592	-9.3485	-2.1503	0.0183	0.0008	0.0197	6.1789	39.5360	6.1003	0.5826	-0.7491	-0.2291	0.2165
6.81	-0.5596	-9.3454	-2.1555	0.0212	-0.0012	0.0159	6.0306	39.7398	6.0652	0.5827	-0.7491	-0.2291	0.2165
6.82	-0.5687	-9.3408	-2.1530	0.0097	-0.0029	0.0116	6.1159	39.8669	6.0649	0.5827	-0.7491	-0.2291	0.2165
6.83	-0.5660	-9.3438	-2.1639	0.0132	-0.0041	0.0136	6.2680	39.7038	6.2083	0.5827	-0.7491	-0.2291	0.2165
6.84	-0.5649	-9.3431	-2.1695	0.0219	-0.0016	0.0129	6.2514	39.8870	6.0754	0.5827	-0.7491	-0.2291	0.2165
6.85	-0.5602	-9.3423	-2.1726	0.0130	-0.0041	0.0165	6.1097	39.9649	6.1424	0.5827	-0.7490	-0.2291	0.2166
6.86	-0.5521	-9.3465	-2.1744	0.0133	0.0024	0.0119	6.1140	39.7019	6.2709	0.5828	-0.7491	-0.2291	0.2166
6.87	-0.5447	-9.3470	-2.1753	0.0148	0.0060	0.0112	6.1390	39.8336	6.1023	0.5827	-0.7490	-0.2290	0.2165
6.88	-0.5385	-9.3437	-2.1702	0.0088	0.0006	0.0081	6.0480	40.0379	6.2566	0.5828	-0.7491	-0.2291	0.2165
6.89	-0.5277	-9.3492	-2.1733	0.0130	0.0017	0.0137	6.0371	39.8992	6.1440	0.5827	-0.7490	-0.2290	0.2165
6.9	-0.5259	-9.3456	-2.1750	0.0189	0.0062	0.0161	6.0393	39.8370	6.0423	0.5828	-0.7490	-0.2290	0.2165
6.91	-0.5272	-9.3439	-2.1744	0.0104	0.0007	0.0121	5.9039	40.0068	6.1053	0.5828	-0.7490	-0.2290	0.2165
6.92	-0.5325	-9.3379	-2.1715	0.0116	-0.0014	0.0116	6.1242	40.0053	6.2624	0.5828	-0.7490	-0.2290	0.2165
6.93	-0.5348	-9.3465	-2.1742	0.0080	0.0003	0.0117	6.1296	40.0154	6.1213	0.5828	-0.7491	-0.2290	0.2165
6.94	-0.5388	-9.3444	-2.1740	0.0079	-0.0009	0.0118	6.1154	39.9861	6.0502	0.5828	-0.7490	-0.2290	0.2165
6.95	-0.5427	-9.3413	-2.1716	0.0113	-0.0026	0.0117	6.1485	39.8488	6.0838	0.5828	-0.7491	-0.2290	0.2165
6.96	-0.5434	-9.3416	-2.1705	0.0125	-0.0023	0.0141	6.4036	39.8405	6.0725	0.5827	-0.7490	-0.2290	0.2165
6.97	-0.5455	-9.3487	-2.1735	0.0091	-0.0046	0.0120	6.2197	39.7502	6.0755	0.5828	-0.7490	-0.2290	0.2165
6.98	-0.5436	-9.3440	-2.1702	0.0148	0.0005	0.0205	6.2406	39.7824	6.0800	0.5828	-0.7490	-0.2290	0.2166
6.99	-0.5422	-9.3457	-2.1675	0.0183	-0.0011	0.0113	6.3165	39.9657	6.0521	0.5828	-0.7490	-0.2290	0.2166
7	-0.5444	-9.3518	-2.1691	0.0170	-0.0050	0.0148	6.1783	39.7951	6.1768	0.5828	-0.7490	-0.2290	0.2166
7.01	-0.5390	-9.3446	-2.1633	0.0195	-0.0057	0.0128	6.2101	39.8158	6.4030	0.5828	-0.7489	-0.2290	0.2166
7.02	-0.5407	-9.3351	-2.1595	0.0134	-0.0062	0.0155	6.1868	39.9885	6.2126	0.5829	-0.7490	-0.2290	0.2167
7.03	-0.5518	-9.3427	-2.1631	0.0174	-0.0025	0.0119	6.2250	39.8116	6.0370	0.5828	-0.7488	-0.2290	0.2167
7.04	-0.5511	-9.3484	-2.1644	0.0205	-0.0047	0.0108	6.0776	39.9583	6.1039	0.5829	-0.7489	-0.2290	0.2167
7.05	-0.5516	-9.3389	-2.1580	0.0158	-0.0017	0.0118	6.0484	40.0566	6.1505	0.5829	-0.7488	-0.2290	0.2167
7.06	-0.5557	-9.3390	-2.1560	0.0165	0.0020	0.0109	5.9612	40.1604	6.1989	0.5830	-0.7489	-0.2290	0.2167
7.07	-0.5550	-9.3496	-2.1614	0.0184	0.0005	0.0107	6.0986	40.2047	6.4272	0.5830	-0.7488	-0.2290	0.2167
7.08	-0.5567	-9.3426	-2.1562	0.0076	0.0006	0.0128	6.6133	40.1167	6.4477	0.5830	-0.7488	-0.2290	0.2167
7.09	-0.5557	-9.3462	-2.1555	0.0043	-0.0006	0.0111	6.6240	39.9323	6.4218	0.5830	-0.7489	-0.2290	0.2167
7.1	-0.5526	-9.3492	-2.1591	0.0189	0.0021	0.0046	6.1646	40.4104	6.1912	0.5830	-0.7488	-0.2290	0.2166
7.11	-0.5532	-9.3437	-2.1532	0.0135	0.0007	0.0138	6.1137	41.1421	6.3304	0.5831	-0.7489	-0.2290	0.2167
7.12	-0.5529	-9.3407	-2.1485	0.0047	0.0030	0.0112	6.1481	40.0980	6.0923	0.5830	-0.7488	-0.2290	0.2166
7.13	-0.5531	-9.3447	-2.1517	0.0096	-0.0014	0.0129	6.1179	39.8009	6.0399	0.5830	-0.7489	-0.2290	0.2166
7.14	-0.5568	-9.3448	-2.1538	0.0195	-0.0016	0.0153	5.9605	39.9317	6.0480	0.5830	-0.7488	-0.2290	0.2166
7.15	-0.5584	-9.3420	-2.1489	0.0087	-0.0020	0.0180	6.3521	39.8613	6.0806	0.5830	-0.7488	-0.2290	0.2167
7.16	-0.5591	-9.3477	-2.1486	0.0081	-0.0052	0.0142	6.4011	39.9211	6.1687	0.5830	-0.7488	-0.2290	0.2167
7.17	-0.5594	-9.3520	-2.1607	0.0105	-0.0008	0.0112	6.1219	39.8021	6.1261	0.5830	-0.7488	-0.2290	0.2167
7.18	-0.5597	-9.3517	-2.1640	0.0118	0.0031	0.0125	6.1957	39.7787	6.1626	0.5830	-0.7489	-0.2290	0.2167
7.19	-0.5557	-9.3380	-2.1548	0.0136	-0.0013	0.0136	6.0794	39.9844	6.1213	0.5830	-0.7488	-0.2289	0.2167
7.2	-0.5503	-9.3438	-2.1585	0.0129	-0.0014	0.0111	5.9521	40.0626	6.1550	0.5830	-0.7489	-0.2290	0.2167
7.21	-0.5480	-9.3489	-2.1620	0.0081	-0.0004	0.0123	6.0861	40.0522	6.0342	0.5830	-0.7488	-0.2289	0.2167
7.22	-0.5451	-9.3415	-2.1611	0.0058	-0.0020	0.0120	6.1012	40.0183	5.9606	0.5830	-0.7488	-0.2290	0.2167
7.23	-0.5442	-9.3441	-2.1650	0.0130	-0.0046	0.0136	6.3107	39.8231	6.1306	0.5830	-0.7488	-0.2290	0.2167
7.24	-0.5483	-9.3452	-2.1679	0.0060	0.0051	0.0106	6.0742	39.9757	6.1655	0.5830	-0.7488	-0.2290	0.2167
7.25	-0.5492	-9.3374	-2.1623	0.0143	0.0030	0.0137	5.9889	39.9677	6.0016	0.5830	-0.7489	-0.2290	0.2167
7.26	-0.5490	-9.3443	-2.1731	0.0063	0.0001	0.0112	6.0080	39.8335	6.1166	0.5830	-0.7488	-0.2290	0.2167
7.27	-0.5528	-9.3494	-2.1725	0.0089	0.0026	0.0079	6.1714	39.9833	6.0902	0.5830	-0.7489	-0.2290	0.2166
7.28	-0.5554	-9.3444	-2.1654	0.0178	0.0041	0.0089	6.1275	39.8700	6.0369	0.5830	-0.7488	-0.2289	0.2166
7.29	-0.5577	-9.3440	-2.1563	0.0159	0.0008	0.0113	6.3024	39.9181	6.0549	0.5831	-0.7488	-0.2290	0.2166
7.3	-0.5545	-9.3494	-2.1551	0.0152	-0.0003	0.0128	6.2485	40.1094	6.0965	0.5830	-0.7488	-0.2290	0.2166
7.31	-0.5542	-9.3462	-2.1563	0.0155	0.0056	0.0119	6.0644	39.9652	6.3777	0.5831	-0.7488	-0.2289	0.2166
7.32	-0.5542	-9.3441	-2.1465	0.0097	0.0033	0.0155	5.9702	39.9566	6.1707	0.5831	-0.7488	-0.2289	0.2166
7.33	-0.5519	-9.3461	-2.1543	0.0137	-0.0017	0.0121	6.1734	39.9966	5.9345	0.5831	-0.7488	-0.2289	0.2166
7.34	-0.5486	-9.3522	-2.1595	0.0134	-0.0009	0.0126	6.4064	39.8851	5.9622	0.5831	-0.7488	-0.2289	0.2166
7.35	-0.5513	-9.3420	-2.1574	0.0140	-0.0009	0.0129	6.1329	39.6702	6.0540	0.5831	-0.7487	-0.2289	0.2166
7.36	-0.5453	-9.3422	-2.1479	0.0056	0.0019	0.0160	6.1625	39.8515	6.2402	0.5831	-0.7488	-0.2289	0.2166
7.37	-0.5407	-9.3462	-2.1597	0.0135	-0.0026	0.0144	6.4286	40.0373	6.1188	0.5831	-0.7488	-0.2289	0.2166
7.38	-0.5375	-9.3451	-2.1604	0.0113	0.0055	0.0099	6.2673	40.0452	6.1052	0.5831	-0.7489	-0.2289	0.2166
7.39	-0.5385	-9.3411	-2.1631	0.0172	0.0096	0.0150	6.1451	39.7332	5.9444	0.5831	-0.7487	-0.2288	0.2166
7.4	-0.5445	-9.3479	-2.1672	0.0181	0.0023	0.0121	6.2633	39.8910	5.9843	0.5832	-0.7488	-0.2288	0.2166
7.41	-0.5480	-9.3505	-2.1719	0.0130	0.0019	0.0138	6.2393	39.7690	5.9551	0.5832	-0.7488	-0.2288	0.2166
7.42	-0.5526	-9.3469	-2.1740	0.0090	0.0046	0.0120	6.1822	39.7659	6.0278	0.5831	-0.7487	-0.2288	0.2165
7.43	-0.5530	-9.3431	-2.1750	0.0156	0.0083	0.0096	6.0409	39.9003	6.2748	0.5832	-0.7488	-0.2288	0.2165
7.44	-0.5553	-9.3431	-2.1830	0.0121	-0.0000	0.0151	6.1146	39.9135	6.0255	0.5832	-0.7488	-0.2288	0.2165
7.45	-0.5534	-9.3438	-2.1845	0.0110	0.0052	0.0068	6.2208	39.9741	6.1645	0.5832	-0.7488	-0.2288	0.2165
7.46	-0.5477	-9.3405	-2.1794	0.0184	0.0018	0.0090	6.2522	40.0490	5.9470	0.5832	-0.7487	-0.2287	0.2165
7.47	-0.5439	-9.3504	-2.1749	0.0112	0.0001	0.0072	6.2219	40.0317	5.8912	0.5833	-0.7488	-0.2288	0.2165
7.48	-0.5420	-9.3524	-2.1670	0.0148	0.0042	0.0074	6.1272	40.1142	6.1202	0.5833	-0.7487	-0.2288	0.2164
7.49	-0.5430	-9.3443	-2.1678	0.0120	0.0036	0.0093	6.1910	40.0286	5.9383	0.5833	-0.7487	-0.2288	0.2164
7.5	-0.5489	-9.3429	-2.1577	0.0184	-0.0021	0.0097	5.9699	39.7303	5.9814	0.5833	-0.7487	-0.2288	0.2164
7.51	-0.5536	-9.3511	-2.1535	0.0132	0.0056	0.0114	5.9040	39.8637	5.9402	0.5833	-0.7487	-0.2288	0.2164
7.52	-0.5624	-9.3471	-2.1478	0.0102	0.0012	0.0171	6.3284	39.8782	6.0214	0.5834	-0.7487	-0.2288	0.2164
7.53	-0.5611	-9.3421	-2.1414	0.0175	0.0012	0.0162	6.2318	39.9721	6.1621	0.5833	-0.7486	-0.2287	0.2164
7.54	-0.5682	-9.3478	-2.1411	0.0194	0.0045	0.0110	6.1569	40.0607	6.0116	0.5834	-0.7487	-0.2287	0.2164
7.55	-0.5712	-9.3509	-2.1392	0.0179	0.0031	0.0115	6.2695	39.9111	5.9517	0.5834	-0.7486	-0.2287	0.2164
7.56	-0.5640	-9.3444	-2.1404	0.0122	-0.0020	0.0155	6.2149	39.8470	6.2474	0.5834	-0.7487	-0.2287	0.2164
7.57	-0.5602	-9.3450	-2.1471	0.0121	0.0027	0.0133	6.3821	40.0225	6.1989	0.5834	-0.7486	-0.2287	0.2164
7.58	-0.5603	-9.3480	-2.1394	0.0093	-0.0050	0.0138	6.7992	40.0221	6.2997	0.5834	-0.7487	-0.2287	0.2164
7.59	-0.5602	-9.3446	-2.1408	0.0075	-0.0097	0.0164	6.7715	39.9742	6.3495	0.5834	-0.7487	-0.2287	0.2164
7.6	-0.5558	-9.3428	-2.1384	0.0164	-0.0002	0.0126	6.2504	40.3562	6.0503	0.5834	-0.7486	-0.2286	0.2164
7.61	-0.5549	-9.3449	-2.1393	0.0127	-0.0078	0.0126	6.0848	41.2335	5.9568	0.5835	-0.7487	-0.2287	0.2165
7.62	-0.5523	-9.3432	-2.1439	0.0111	-0.0021	0.0102	5.9183	40.4225	5.9878	0.5834	-0.7486	-0.2287	0.2165
7.63	-0.5589	-9.3432	-2.1493	0.0145	-0.0016	0.0098	6.0036	39.8098	6.1912	0.5835	-0.7487	-0.2287	0.2165
7.64	-0.5639	-9.3428	-2.1506	0.0066	-0.0032	0.0127	5.9766	39.9514	6.1383	0.5834	-0.7486	-0.2287	0.2165
7.65	-0.5674	-9.3429	-2.1627	0.0124	0.0035	0.0108	5.9647	40.0054	6.2061	0.5834	-0.7486	-0.2287	0.2165
7.66	-0.5699	-9.3442	-2.1708	0.0157	-0.0016	0.0142	6.0418	39.9443	6.2307	0.5835	-0.7486	-0.2287	0.2165
7.67	-0.5635	-9.3457	-2.1822	0.0097	0.0007	0.0108	6.0527	39.8943	6.0676	0.5834	-0.7486	-0.2287	0.2165
7.68	-0.5519	-9.3430	-2.1914	0.0073	0.0022	0.0112	6.1930	39.9053	6.0822	0.5835	-0.7487	-0.2287	0.2165
7.69	-0.5423	-9.3439	-2.1939	0.0170	-0.0055	0.0156	5.9217	39.9396	6.2461	0.5834	-0.7486	-0.2287	0.2165
7.7	-0.5382	-9.3458	-2.1827	0.0174	-0.0074	0.0158	6.0054	39.7766	6.1965	0.5835	-0.7486	-0.2287	0.2165
7.71	-0.5312	-9.3476	-2.1899	0.0095	-0.0017	0.0123	6.1443	39.7339	6.1746	0.5834	-0.7485	-0.2287	0.2165
7.72	-0.5275	-9.3460	-2.1921	0.0084	-0.0043	0.0127	6.1888	39.8509	6.1567	0.5835	-0.7486	-0.2287	0.2165
7.73	-0.5274	-9.3476	-2.1862	0.0105	-0.0005	0.0115	6.3004	39.8467	6.0653	0.5834	-0.7486	-0.2287	0.2165
7.74	-0.5308	-9.3495	-2.1834	0.0085	-0.0060	0.0134	6.1792	39.7463	6.0885	0.5834	-0.7486	-0.2287	0.2166
7.75	-0.5345	-9.3480	-2.1807	0.0172	0.0035	0.0141	6.3354	39.7622	6.1931	0.5835	-0.7486	-0.2287	0.2166
7.76	-0.5334	-9.3418	-2.1770	0.0106	0.0035	0.0197	6.1650	39.8302	6.1544	0.5834	-0.7486	-0.2287	0.2166
7.77	-0.5347	-9.3454	-2.1802	0.0146	-0.0054	0.0143	6.1131	39.6925	6.2146	0.5835	-0.7486	-0.2287	0.2166
7.78	-0.5407	-9.3493	-2.1782	0.0141	-0.0024	0.0114	6.2544	39.9268	5.9825	0.5834	-0.7485	-0.2286	0.2166
7.79	-0.5423	-9.3490	-2.1710	0.0158	-0.0063	0.0193	6.1789	40.0284	6.0213	0.5835	-0.7486	-0.2287	0.2167
7.8	-0.5410	-9.3414	-2.1614	0.0170	-0.0009	0.0155	6.3270	39.9461	6.2503	0.5835	-0.7485	-0.2286	0.2167
7.81	-0.5442	-9.3453	-2.1625	0.0149	0.0073	0.0104	6.3532	39.9076	6.0535	0.5835	-0.7486	-0.2286	0.2166
7.82	-0.5467	-9.3446	-2.1596	0.0114	-0.0004	0.0081	6.1092	39.9101	6.1926	0.5835	-0.7485	-0.2286	0.2166
7.83	-0.5455	-9.3440	-2.1504	0.0215	-0.0009	0.0102	6.2372	39.9261	6.2662	0.5836	-0.7485	-0.2286	0.2166
7.84	-0.5510	-9.3474	-2.1508	0.0221	0.0018	0.0140	6.0603	40.0762	6.0722	0.5836	-0.7485	-0.2286	0.2166
7.85	-0.5516	-9.3479	-2.1443	0.0083	-0.0022	0.0134	6.0552	40.0810	6.0917	0.5835	-0.7484	-0.2286	0.2166
7.86	-0.5545	-9.3446	-2.1519	0.0170	0.0012	0.0077	6.0866	39.9689	5.9540	0.5836	-0.7485	-0.2286	0.2167
7.87	-0.5561	-9.3433	-2.1484	0.0151	0.0035	0.0120	6.0061	40.0138	6.2001	0.5836	-0.7484	-0.2286	0.2166
7.88	-0.5640	-9.3463	-2.1438	0.0243	0.0002	0.0147	6.0158	39.9386	6.2494	0.5837	-0.7485	-0.2286	0.2167
7.89	-0.5615	-9.3418	-2.1523	0.0174	0.0027	0.0155	6.2447	39.8282	5.9384	0.5837	-0.7484	-0.2285	0.2166
7.9	-0.5618	-9.3414	-2.1520	0.0145	0.0041	0.0182	6.2441	39.7165	6.1981	0.5837	-0.7484	-0.2285	0.2167
7.91	-0.5647	-9.3470	-2.1544	0.0162	0.0006	0.0181	6.2917	39.8138	6.2575	0.5837	-0.7484	-0.2285	0.2167
7.92	-0.5656	-9.3460	-2.1567	0.0154	0.0038	0.0106	6.0987	39.8343	6.0498	0.5837	-0.7483	-0.2285	0.2166
7.93	-0.5667	-9.3398	-2.1523	0.0231	-0.0037	0.0145	6.2599	39.9302	6.1135	0.5838	-0.7484	-0.2285	0.2167
7.94	-0.5696	-9.3420	-2.1636	0.0104	-0.0033	0.0104	6.2949	39.8924	6.0438	0.5838	-0.7483	-0.2285	0.2167
7.95	-0.5698	-9.3447	-2.1652	0.0115	-0.0043	0.0128	6.1328	39.7849	5.9639	0.5838	-0.7484	-0.2285	0.2167
7.96	-0.5664	-9.3426	-2.1616	0.0148	-0.0008	0.0116	6.2112	39.9546	6.1725	0.5838	-0.7483	-0.2285	0.2167
7.97	-0.5670	-9.3470	-2.1715	0.0175	-0.0048	0.0147	6.2323	39.7544	6.3186	0.5838	-0.7483	-0.2285	0.2167
7.98	-0.5649	-9.3492	-2.1662	0.0142	-0.0067	0.0184	6.1842	39.9864	6.1668	0.5838	-0.7483	-0.2285	0.2168
7.99	-0.5604	-9.3443	-2.1679	0.0103	-0.0012	0.0109	6.0531	39.8641	6.2424	0.5838	-0.7483	-0.2285	0.2168
8	-0.5599	-9.3428	-2.1702	0.0129	0.0006	0.0103	6.0417	39.7233	6.3535	0.5838	-0.7483	-0.2285	0.2168
8.01	-0.5534	-9.3427	-2.1672	0.0098	-0.0009	0.0122	6.0867	39.9740	6.1127	0.5838	-0.7483	-0.2285	0.2168
8.02	-0.5512	-9.3452	-2.1651	0.0094	0.0016	0.0093	6.1741	39.8700	6.2160	0.5838	-0.7483	-0.2285	0.2168
8.03	-0.5510	-9.3422	-2.1637	0.0210	0.0047	0.0126	6.0466	40.0089	6.0687	0.5838	-0.7482	-0.2285	0.2167
8.04	-0.5454	-9.3456	-2.1694	0.0129	0.0104	0.0099	5.9718	39.9896	6.0806	0.5839	-0.7483	-0.2285	0.2167
8.05	-0.5488	-9.3416	-2.1715	0.0106	0.0036	0.0099	5.9811	40.1320	6.2402	0.5839	-0.7483	-0.2284	0.2167
8.06	-0.5471	-9.3429	-2.1675	0.0118	0.0021	0.0129	5.9631	39.9757	6.1982	0.5839	-0.7483	-0.2284	0.2167
8.07	-0.5488	-9.3441	-2.1694	0.0072	-0.0039	0.0136	6.2115	39.9469	6.1328	0.5839	-0.7483	-0.2284	0.2167
8.08	-0.5516	-9.3504	-2.1695	0.0153	0.0009	0.0179	6.7419	39.8412	6.3580	0.5839	-0.7483	-0.2284	0.2167
8.09	-0.5531	-9.3475	-2.1663	0.0135	0.0038	0.0179	6.8229	39.9137	6.2062	0.5839	-0.7483	-0.2284	0.2167
8.1	-0.5520	-9.3458	-2.1650	0.0121	-0.0043	0.0169	6.3968	40.3876	6.0540	0.5838	-0.7482	-0.2284	0.2167
8.11	-0.5485	-9.3496	-2.1657	0.0115	0.0003	0.0146	6.3970	41.0989	5.8866	0.5839	-0.7483	-0.2284	0.2168
8.12	-0.5478	-9.3483	-2.1576	0.0102	0.0012	0.0140	6.0410	40.1728	5.9347	0.5839	-0.7483	-0.2284	0.2168
8.13	-0.5444	-9.3452	-2.1572	0.0103	0.0004	0.0143	6.1502	39.7911	6.1185	0.5839	-0.7484	-0.2284	0.2168
8.14	-0.5407	-9.3457	-2.1552	0.0067	-0.0005	0.0123	6.1345	40.2383	5.9159	0.5838	-0.7483	-0.2284	0.2168
8.15	-0.5435	-9.3491	-2.1574	0.0092	0.0005	0.0106	6.0661	39.9315	6.2218	0.5838	-0.7483	-0.2284	0.2168
8.16	-0.5390	-9.3442	-2.1588	0.0088	-0.0051	0.0140	6.3486	40.0062	6.0422	0.5838	-0.7483	-0.2284	0.2168
8.17	-0.5394	-9.3425	-2.1554	0.0030	-0.0049	0.0141	6.1673	39.8603	6.0862	0.5838	-0.7483	-0.2284	0.2168
8.18	-0.5382	-9.3480	-2.1624	0.0067	0.0004	0.0095	5.9300	39.8944	5.9062	0.5838	-0.7484	-0.2285	0.2168
8.19	-0.5447	-9.3458	-2.1567	0.0074	0.0053	0.0098	6.0541	39.9840	6.2020	0.5838	-0.7484	-0.2284	0.2168
8.2	-0.5515	-9.3420	-2.1544	0.0049	-0.0003	0.0123	5.9894	39.9501	6.3500	0.5838	-0.7484	-0.2285	0.2168
8.21	-0.5561	-9.3435	-2.1570	0.0084	-0.0033	0.0119	6.0498	39.9728	6.2263	0.5837	-0.7483	-0.2284	0.2167
8.22	-0.5546	-9.3494	-2.1617	0.0043	0.0053	0.0083	6.1740	39.9421	6.1862	0.5837	-0.7484	-0.2285	0.2167
8.23	-0.5586	-9.3425	-2.1666	0.0149	0.0079	0.0092	6.1349	39.8385	6.0211	0.5837	-0.7484	-0.2285	0.2167
8.24	-0.5498	-9.3470	-2.1681	0.0113	0.0095	0.0069	6.1528	39.9689	6.0431	0.5837	-0.7484	-0.2284	0.2166
8.25	-0.5397	-9.3462	-2.1685	0.0083	0.0042	0.0113	6.1322	39.9567	6.1780	0.5838	-0.7484	-0.2285	0.2166
8.26	-0.5367	-9.3407	-2.1545	0.0132	0.0051	0.0126	6.0361	40.0907	6.0487	0.5838	-0.7484	-0.2284	0.2166
8.27	-0.5377	-9.3438	-2.1592	0.0079	0.0002	0.0120	6.1352	39.9228	5.9658	0.5838	-0.7485	-0.2284	0.2166
8.28	-0.5403	-9.3483	-2.1504	0.0111	-0.0036	0.0061	6.1595	39.7729	6.1892	0.5837	-0.7484	-0.2284	0.2165
8.29	-0.5426	-9.3514	-2.1514	0.0120	0.0060	0.0142	6.1312	39.9012	6.1084	0.5838	-0.7485	-0.2284	0.2166
8.3	-0.5532	-9.3383	-2.1390	0.0110	-0.0011	0.0152	6.3220	39.7270	6.0360	0.5838	-0.7484	-0.2284	0.2166
8.31	-0.5649	-9.3305	-2.1309	0.0102	0.0051	0.0103	6.2372	39.9677	6.1300	0.5838	-0.7485	-0.2284	0.2165
8.32	-0.5694	-9.3560	-2.1485	0.0049	-0.0061	0.0142	6.1441	39.8721	6.1458	0.5837	-0.7484	-0.2284	0.2165
8.33	-0.5673	-9.3517	-2.1443	0.0066	-0.0005	0.0110	6.2159	39.8833	6.1417	0.5837	-0.7485	-0.2284	0.2165
8.34	-0.5674	-9.3267	-2.1303	0.0090	-0.0061	0.0116	5.9319	40.0525	6.1267	0.5837	-0.7485	-0.2285	0.2166
8.35	-0.5664	-9.3511	-2.1456	0.0148	0.0014	0.0162	6.1433	40.0284	6.1537	0.5837	-0.7484	-0.2284	0.2165
8.36	-0.5675	-9.3477	-2.1533	0.0080	0.0062	0.0108	6.2578	40.0788	6.0183	0.5837	-0.7485	-0.2284	0.2165
8.37	-0.5600	-9.3382	-2.1431	0.0056	-0.0007	0.0100	6.1768	40.1200	6.2454	0.5837	-0.7485	-0.2285	0.2165
8.38	-0.5586	-9.3478	-2.1576	0.0064	0.0059	0.0073	6.1223	39.9609	6.1261	0.5837	-0.7486	-0.2285	0.2165
8.39	-0.5563	-9.3468	-2.1554	0.0113	0.0004	0.0053	6.2374	39.9526	6.2617	0.5837	-0.7485	-0.2285	0.2164
8.4	-0.5587	-9.3374	-2.1532	0.0095	0.0061	0.0120	6.1029	39.8726	6.1662	0.5837	-0.7485	-0.2285	0.2164
8.41	-0.5589	-9.3491	-2.1640	0.0079	0.0028	0.0044	6.0114	40.0283	6.0436	0.5837	-0.7485	-0.2285	0.2164
8.42	-0.5650	-9.3511	-2.1719	0.0087	0.0037	0.0138	5.9468	40.0668	6.2575	0.5837	-0.7485	-0.2285	0.2164
8.43	-0.5640	-9.3423	-2.1716	0.0089	0.0056	0.0106	6.1089	40.0040	6.1116	0.5837	-0.7486	-0.2285	0.2164
8.44	-0.5621	-9.3363	-2.1781	0.0138	0.0070	0.0105	6.1224	40.1354	6.2727	0.5837	-0.7485	-0.2285	0.2163
8.45	-0.5608	-9.3492	-2.1917	0.0145	0.0041	0.0091	6.0253	39.9541	6.1489	0.5838	-0.7486	-0.2285	0.2163
8.46	-0.5482	-9.3436	-2.1886	0.0122	-0.0029	0.0141	6.2320	39.8248	6.1220	0.5837	-0.7485	-0.2284	0.2163
8.47	-0.5444	-9.3401	-2.1851	0.0100	0.0034	0.0151	6.3399	40.0286	6.2926	0.5837	-0.7485	-0.2284	0.2163
8.48	-0.5365	-9.3451	-2.1894	0.0120	0.0051	0.0137	6.2236	39.9014	6.1097	0.5837	-0.7485	-0.2284	0.2163
8.49	-0.5312	-9.3490	-2.1874	0.0197	-0.0027	0.0113	6.3020	39.8197	6.0386	0.5837	-0.7485	-0.2284	0.2163
8.5	-0.5316	-9.3409	-2.1800	0.0049	-0.0053	0.0137	6.3082	39.8478	6.0580	0.5837	-0.7485	-0.2284	0.2163
8.51	-0.5318	-9.3412	-2.1780	0.0088	0.0034	0.0096	6.0855	39.9750	6.0776	0.5837	-0.7485	-0.2284	0.2163
8.52	-0.5371	-9.3543	-2.1802	0.0104	0.0000	0.0132	6.0108	39.9910	5.9711	0.5837	-0.7486	-0.2284	0.2163
8.53	-0.5407	-9.3430	-2.1771	0.0070	-0.0037	0.0076	5.9674	39.6352	6.0505	0.5837	-0.7485	-0.2284	0.2163
8.54	-0.5423	-9.3410	-2.1781	0.0110	0.0016	0.0112	6.0982	40.0714	6.0373	0.5837	-0.7486	-0.2285	0.2163
8.55	-0.5415	-9.3502	-2.1821	0.0139	0.0021	0.0117	6.0465	39.9666	5.9418	0.5837	-0.7485	-0.2285	0.2163
8.56	-0.5432	-9.3444	-2.1811	0.0119	0.0061	0.0103	6.1095	39.8058	6.2447	0.5837	-0.7486	-0.2284	0.2162
8.57	-0.5352	-9.3394	-2.1730	0.0120	0.0045	0.0100	6.4039	40.0627	6.3012	0.5837	-0.7485	-0.2284	0.2162
8.58	-0.5357	-9.3451	-2.1757	0.0145	0.0034	0.0109	6.4905	39.8221	6.3626	0.5838	-0.7485	-0.2284	0.2162
8.59	-0.5339	-9.3448	-2.1622	0.0133	0.0027	0.0140	6.5204	39.9337	6.3045	0.5838	-0.7486	-0.2284	0.2162
8.6	-0.5274	-9.3434	-2.1690	0.0079	-0.0004	0.0101	6.2414	40.6643	6.1311	0.5837	-0.7485	-0.2284	0.2162
8.61	-0.5365	-9.3455	-2.1592	0.0105	-0.0022	0.0165	6.2990	41.2519	6.2318	0.5838	-0.7486	-0.2284	0.2162
8.62	-0.5401	-9.3478	-2.1599	0.0126	-0.0004	0.0086	6.0583	40.2782	6.0875	0.5837	-0.7485	-0.2284	0.2162
8.63	-0.5440	-9.3478	-2.1524	0.0098	-0.0071	0.0144	6.1103	39.6327	6.0198	0.5838	-0.7486	-0.2285	0.2162
8.64	-0.5479	-9.3372	-2.1419	0.0185	-0.0116	0.0176	6.2220	39.7315	5.8793	0.5837	-0.7485	-0.2284	0.2163
8.65	-0.5538	-9.3484	-2.1464	0.0099	0.0022	0.0199	6.2469	39.7159	6.0395	0.5837	-0.7485	-0.2284	0.2163
8.66	-0.5541	-9.3512	-2.1458	0.0172	-0.0044	0.0135	6.1196	39.9808	5.9280	0.5838	-0.7485	-0.2284	0.2163
8.67	-0.5554	-9.3414	-2.1424	0.0110	-0.0047	0.0123	6.0063	39.9947	6.1598	0.5837	-0.7485	-0.2284	0.2163
8.68	-0.5571	-9.3443	-2.1387	0.0100	-0.0009	0.0108	6.1714	39.8279	6.1474	0.5838	-0.7486	-0.2284	0.2163
8.69	-0.5611	-9.3484	-2.1439	0.0090	-0.0001	0.0127	6.0896	39.6402	6.2060	0.5837	-0.7485	-0.2284	0.2163
8.7	-0.5638	-9.3449	-2.1432	0.0152	0.0039	0.0114	6.1951	39.5926	6.2561	0.5838	-0.7486	-0.2284	0.2163
8.71	-0.5601	-9.3437	-2.1469	0.0100	-0.0027	0.0135	6.2967	39.8563	5.9323	0.5837	-0.7485	-0.2284	0.2163
8.72	-0.5534	-9.3434	-2.1494	0.0046	-0.0037	0.0126	6.2077	39.8229	6.0421	0.5837	-0.7485	-0.2284	0.2163
8.73	-0.5558	-9.3478	-2.1549	0.0089	-0.0028	0.0127	6.0267	39.9599	6.2179	0.5837	-0.7485	-0.2284	0.2163
8.74	-0.5534	-9.3471	-2.1573	0.0112	0.0034	0.0115	6.1973	39.7940	6.0519	0.5837	-0.7485	-0.2284	0.2163
8.75	-0.5555	-9.3416	-2.1582	0.0121	0.0050	0.0109	6.2213	40.0296	6.1870	0.5837	-0.7486	-0.2284	0.2163
8.76	-0.5581	-9.3428	-2.1677	0.0102	0.0041	0.0124	5.9667	40.0770	6.1240	0.5837	-0.7485	-0.2284	0.2163
8.77	-0.5552	-9.3427	-2.1705	0.0136	0.0024	0.0108	5.9596	40.0736	6.2169	0.5837	-0.7486	-0.2284	0.2163
8.78	-0.5578	-9.3435	-2.1667	0.0175	0.0005	0.0108	6.0282	39.9975	6.2477	0.5837	-0.7485	-0.2284	0.2163
8.79	-0.5627	-9.3427	-2.1716	0.0130	0.0024	0.0075	6.1713	39.9685	6.2448	0.5838	-0.7485	-0.2284	0.2163
8.8	-0.5595	-9.3403	-2.1743	0.0059	0.0049	0.0100	6.0724	39.7376	6.0726	0.5837	-0.7485	-0.2284	0.2162
8.81	-0.5603	-9.3410	-2.1708	0.0144	-0.0001	0.0115	6.0573	40.0435	6.1292	0.5838	-0.7486	-0.2284	0.2162
8.82	-0.5593	-9.3509	-2.1694	0.0131	0.0002	0.0170	6.0221	40.1114	6.2586	0.5837	-0.7485	-0.2284	0.2162
8.83	-0.5569	-9.3491	-2.1789	0.0111	0.0011	0.0145	6.2199	39.7815	6.1233	0.5838	-0.7485	-0.2284	0.2162
8.84	-0.5545	-9.3417	-2.1731	0.0145	0.0010	0.0141	6.4621	39.6008	6.0232	0.5838	-0.7485	-0.2284	0.2162
8.85	-0.5470	-9.3484	-2.1767	0.0129	-0.0007	0.0108	6.1794	39.8377	5.9686	0.5837	-0.7485	-0.2284	0.2162
8.86	-0.5479	-9.3483	-2.1710	0.0086	-0.0044	0.0159	6.3320	39.8350	6.0975	0.5838	-0.7486	-0.2284	0.2163
8.87	-0.5452	-9.3429	-2.1663	0.0180	-0.0022	0.0119	6.2475	39.6723	6.0746	0.5838	-0.7485	-0.2284	0.2163
8.88	-0.5441	-9.3428	-2.1617	0.0081	-0.0014	0.0106	6.1994	39.7064	6.0891	0.5838	-0.7486	-0.2284	0.2163
8.89	-0.5486	-9.3441	-2.1624	0.0122	0.0036	0.0148	6.2223	39.8585	6.0692	0.5837	-0.7485	-0.2284	0.2162
8.9	-0.5455	-9.3463	-2.1598	0.0163	0.0047	0.0124	6.1911	39.7878	6.2017	0.5838	-0.7485	-0.2284	0.2162
8.91	-0.5436	-9.3485	-2.1670	0.0213	0.0037	0.0113	6.2421	39.9194	6.1222	0.5838	-0.7485	-0.2283	0.2162
8.92	-0.5440	-9.3458	-2.1619	0.0175	0.0027	0.0124	6.1087	40.0944	6.2613	0.5838	-0.7484	-0.2283	0.2162
8.93	-0.5498	-9.3464	-2.1615	0.0122	0.0025	0.0113	6.1551	40.0676	6.2179	0.5839	-0.7485	-0.2283	0.2162
8.94	-0.5498	-9.3457	-2.1542	0.0180	-0.0034	0.0119	6.0542	39.9444	6.3014	0.5839	-0.7484	-0.2283	0.2162
8.95	-0.5553	-9.3486	-2.1606	0.0138	0.0046	0.0148	5.9174	39.8811	6.2888	0.5839	-0.7485	-0.2283	0.2162
8.96	-0.5587	-9.3472	-2.1684	0.0172	0.0071	0.0103	6.0682	39.9260	6.1424	0.5839	-0.7484	-0.2283	0.2162
8.97	-0.5583	-9.3452	-2.1667	0.0167	0.0068	0.0147	5.9399	39.9705	6.2526	0.5840	-0.7485	-0.2282	0.2162
8.98	-0.5606	-9.3397	-2.1707	0.0123	-0.0028	0.0116	5.9823	39.9049	6.1041	0.5840	-0.7484	-0.2282	0.2162
8.99	-0.5508	-9.3418	-2.1740	0.0140	-0.0009	0.0107	5.9522	40.1473	6.2414	0.5840	-0.7484	-0.2282	0.2162
9	-0.5457	-9.3468	-2.1745	0.0206	0.0024	0.0121	6.0602	40.2666	6.2500	0.5840	-0.7484	-0.2282	0.2162
9.01	-0.5427	-9.3436	-2.1594	0.0109	-0.0047	0.0187	6.0513	39.9351	6.0777	0.5840	-0.7484	-0.2282	0.2162
9.02	-0.5369	-9.3519	-2.1671	0.0137	-0.0021	0.0190	6.0620	39.7485	5.9347	0.5840	-0.7484	-0.2282	0.2163
9.03	-0.5355	-9.3515	-2.1633	0.0162	-0.0024	0.0202	6.3957	39.6573	6.1148	0.5839	-0.7483	-0.2282	0.2163
9.04	-0.5418	-9.3435	-2.1515	0.0167	0.0039	0.0127	6.4464	39.7779	6.0540	0.5840	-0.7484	-0.2282	0.2163
9.05	-0.5493	-9.3473	-2.1522	0.0093	-0.0027	0.0182	6.2031	39.8317	6.1378	0.5840	-0.7484	-0.2281	0.2163
9.06	-0.5520	-9.3493	-2.1545	0.0168	-0.0025	0.0211	6.2018	39.6521	6.1699	0.5840	-0.7484	-0.2281	0.2163
9.07	-0.5563	-9.3482	-2.1450	0.0158	-0.0045	0.0147	6.3648	40.0163	6.2462	0.5840	-0.7484	-0.2281	0.2164
9.08	-0.5645	-9.3453	-2.1457	0.0117	-0.0055	0.0173	6.6237	39.8722	6.5115	0.5840	-0.7484	-0.2281	0.2164
9.09	-0.5646	-9.3456	-2.1401	0.0082	0.0023	0.0115	6.6582	39.9455	6.4041	0.5840	-0.7484	-0.2281	0.2164
9.1	-0.5649	-9.3462	-2.1469	0.0123	0.0007	0.0173	6.3230	40.5310	6.1597	0.5840	-0.7483	-0.2281	0.2164
9.11	-0.5611	-9.3417	-2.1412	0.0151	0.0016	0.0146	6.1888	41.0499	6.0957	0.5840	-0.7484	-0.2281	0.2164
9.12	-0.5534	-9.3418	-2.1453	0.0097	0.0018	0.0121	6.2229	40.2470	6.0622	0.5840	-0.7484	-0.2280	0.2164
9.13	-0.5546	-9.3458	-2.1526	0.0063	-0.0014	0.0139	6.1850	39.8522	6.2637	0.5840	-0.7485	-0.2281	0.2164
9.14	-0.5514	-9.3439	-2.1542	0.0119	-0.0004	0.0112	6.0558	40.0409	6.1436	0.5839	-0.7484	-0.2280	0.2164
9.15	-0.5536	-9.3476	-2.1530	0.0109	0.0087	0.0149	6.0726	39.8028	6.1466	0.5840	-0.7484	-0.2280	0.2164
9.16	-0.5572	-9.3465	-2.1491	0.0126	0.0044	0.0101	6.0984	39.8204	6.1724	0.5840	-0.7484	-0.2280	0.2163
9.17	-0.5617	-9.3419	-2.1508	0.0071	0.0023	0.0107	6.2576	40.0708	6.1154	0.5840	-0.7484	-0.2280	0.2163
9.18	-0.5648	-9.3434	-2.1546	0.0174	0.0095	0.0090	6.1219	40.0247	6.3095	0.5841	-0.7485	-0.2280	0.2163
9.19	-0.5668	-9.3449	-2.1622	0.0168	0.0028	0.0168	6.1795	40.1225	6.0978	0.5840	-0.7484	-0.2280	0.2163
9.2	-0.5679	-9.3473	-2.1740	0.0188	0.0027	0.0196	6.0836	40.0352	5.9278	0.5841	-0.7485	-0.2279	0.2163
9.21	-0.5595	-9.3409	-2.1744	0.0191	0.0040	0.0117	6.1366	39.8538	6.0038	0.5840	-0.7484	-0.2279	0.2163
9.22	-0.5516	-9.3433	-2.1794	0.0151	0.0021	0.0135	6.3941	39.9962	5.8704	0.5841	-0.7484	-0.2279	0.2163
9.23	-0.5498	-9.3456	-2.1794	0.0147	0.0027	0.0091	6.0601	39.8046	6.0548	0.5841	-0.7484	-0.2279	0.2163
9.24	-0.5445	-9.3453	-2.1789	0.0185	0.0086	0.0096	6.2145	39.7934	6.1447	0.5841	-0.7484	-0.2279	0.2162
9.25	-0.5357	-9.3448	-2.1770	0.0173	0.0061	0.0120	6.3207	39.9104	6.1697	0.5842	-0.7484	-0.2279	0.2162
9.26	-0.5344	-9.3469	-2.1805	0.0109	0.0030	0.0164	6.2081	40.1013	6.1333	0.5842	-0.7484	-0.2278	0.2162
9.27	-0.5390	-9.3458	-2.1871	0.0235	0.0013	0.0124	6.0173	39.9733	6.1580	0.5842	-0.7484	-0.2278	0.2162
9.28	-0.5404	-9.3424	-2.1834	0.0189	0.0091	0.0096	6.0203	39.9601	6.1365	0.5842	-0.7483	-0.2278	0.2162
9.29	-0.5404	-9.3371	-2.1810	0.0153	-0.0048	0.0163	6.5079	39.8882	6.1808	0.5843	-0.7484	-0.2278	0.2162
9.3	-0.5396	-9.3439	-2.1803	0.0168	0.0080	0.0122	6.2625	39.8960	6.2640	0.5843	-0.7483	-0.2277	0.2162
9.31	-0.5380	-9.3447	-2.1831	0.0138	0.0078	0.0099	6.2243	40.1059	6.2255	0.5843	-0.7483	-0.2277	0.2162
9.32	-0.5329	-9.3434	-2.1800	0.0138	0.0010	0.0116	6.1471	39.8225	6.2552	0.5843	-0.7483	-0.2277	0.2162
9.33	-0.5372	-9.3454	-2.1756	0.0101	0.0049	0.0092	6.0368	39.7457	6.0961	0.5843	-0.7483	-0.2277	0.2161
9.34	-0.5291	-9.3469	-2.1703	0.0131	-0.0047	0.0127	6.1249	40.1366	6.0541	0.5843	-0.7483	-0.2277	0.2161
9.35	-0.5318	-9.3452	-2.1692	0.0107	-0.0022	0.0114	6.2303	39.8545	6.0729	0.5843	-0.7483	-0.2277	0.2161
9.36	-0.5317	-9.3461	-2.1658	0.0119	0.0077	0.0114	6.3361	39.8100	6.0747	0.5844	-0.7484	-0.2277	0.2161
9.37	-0.5339	-9.3421	-2.1627	0.0154	0.0007	0.0125	6.2825	39.7811	6.2252	0.5843	-0.7483	-0.2277	0.2161
9.38	-0.5428	-9.3459	-2.1600	0.0151	0.0041	0.0163	6.1753	39.8782	6.2605	0.5844	-0.7484	-0.2277	0.2161
9.39	-0.5472	-9.3449	-2.1543	0.0266	0.0091	0.0169	6.4486	39.8957	6.1528	0.5844	-0.7482	-0.2276	0.2161
9.4	-0.5497	-9.3495	-2.1553	0.0224	0.0038	0.0111	6.3264	39.8875	6.0312	0.5845	-0.7483	-0.2276	0.2161
9.41	-0.5512	-9.3473	-2.1493	0.0178	0.0072	0.0118	6.2115	39.7130	6.1442	0.5845	-0.7483	-0.2276	0.2161
9.42	-0.5508	-9.3411	-2.1474	0.0117	0.0049	0.0134	6.1719	39.8016	6.1684	0.5845	-0.7482	-0.2276	0.2161
9.43	-0.5568	-9.3462	-2.1489	0.0265	0.0057	0.0163	6.1376	39.7046	6.1642	0.5846	-0.7483	-0.2275	0.2161
9.44	-0.5547	-9.3450	-2.1468	0.0124	-0.0032	0.0127	6.1576	39.8900	6.1440	0.5845	-0.7482	-0.2275	0.2161
9.45	-0.5518	-9.3477	-2.1454	0.0189	0.0059	0.0147	6.1539	40.0217	6.1711	0.5846	-0.7483	-0.2275	0.2161
9.46	-0.5591	-9.3460	-2.1490	0.0172	0.0018	0.0114	6.0766	39.8426	6.0511	0.5846	-0.7481	-0.2275	0.2161
9.47	-0.5552	-9.3467	-2.1470	0.0144	-0.0031	0.0133	6.0613	39.9184	5.9730	0.5846	-0.7482	-0.2275	0.2161
9.48	-0.5534	-9.3466	-2.1470	0.0185	0.0030	0.0182	6.4203	39.8219	5.9638	0.5846	-0.7482	-0.2275	0.2161
9.49	-0.5538	-9.3443	-2.1511	0.0145	0.0034	0.0111	6.2550	39.8606	6.1187	0.5846	-0.7482	-0.2274	0.2161
9.5	-0.5551	-9.3438	-2.1564	0.0113	0.0055	0.0090	6.1329	39.9912	6.3722	0.5847	-0.7482	-0.2274	0.2161
9.51	-0.5584	-9.3438	-2.1569	0.0118	0.0040	0.0104	6.1309	39.7119	6.1688	0.5847	-0.7482	-0.2274	0.2160
9.52	-0.5544	-9.3456	-2.1620	0.0177	0.0069	0.0098	6.2345	39.9577	6.1619	0.5847	-0.7482	-0.2274	0.2160
9.53	-0.5623	-9.3433	-2.1625	0.0188	0.0038	0.0102	6.1486	39.9675	6.1410	0.5847	-0.7481	-0.2274	0.2160
9.54	-0.5629	-9.3427	-2.1653	0.0193	0.0089	0.0119	6.0817	39.9750	6.1742	0.5848	-0.7482	-0.2274	0.2160
9.55	-0.5616	-9.3411	-2.1667	0.0163	0.0102	0.0095	6.2979	39.9309	6.1066	0.5848	-0.7481	-0.2274	0.2159
9.56	-0.5644	-9.3440	-2.1643	0.0161	0.0087	0.0101	6.1475	39.8893	6.0395	0.5848	-0.7481	-0.2273	0.2159
9.57	-0.5664	-9.3441	-2.1656	0.0148	0.0056	0.0151	6.2863	40.2225	6.2396	0.5848	-0.7481	-0.2273	0.2159
9.58	-0.5697	-9.3464	-2.1605	0.0189	0.0062	0.0129	6.6203	39.7818	6.5474	0.5849	-0.7481	-0.2273	0.2159
9.59	-0.5657	-9.3463	-2.1615	0.0270	0.0047	0.0172	6.6016	39.6008	6.4743	0.5849	-0.7481	-0.2272	0.2159
9.6	-0.5640	-9.3444	-2.1637	0.0228	0.0023	0.0150	6.0942	40.2216	6.1429	0.5849	-0.7480	-0.2272	0.2159
9.61	-0.5601	-9.3460	-2.1583	0.0186	-0.0001	0.0122	6.3370	41.1354	6.1526	0.5850	-0.7481	-0.2272	0.2159
9.62	-0.5596	-9.3459	-2.1621	0.0269	0.0064	0.0175	6.3288	40.0907	6.0047	0.5850	-0.7480	-0.2271	0.2159
9.63	-0.5573	-9.3458	-2.1593	0.0215	0.0051	0.0128	6.2181	39.7357	5.9773	0.5851	-0.7481	-0.2271	0.2159
9.64	-0.5524	-9.3457	-2.1531	0.0099	0.0007	0.0137	6.2096	39.7921	6.0989	0.5850	-0.7480	-0.2271	0.2159
9.65	-0.5488	-9.3516	-2.1627	0.0144	0.0023	0.0128	6.3036	39.6171	6.0766	0.5851	-0.7480	-0.2271	0.2159
9.66	-0.5430	-9.3432	-2.1652	0.0172	-0.0044	0.0115	6.1365	39.6824	6.1149	0.5851	-0.7480	-0.2271	0.2159
9.67	-0.5439	-9.3397	-2.1699	0.0178	0.0065	0.0132	6.1376	39.7005	5.9870	0.5851	-0.7479	-0.2271	0.2159
9.68	-0.5467	-9.3457	-2.1728	0.0156	0.0056	0.0091	6.0562	39.9602	6.0031	0.5852	-0.7480	-0.2271	0.2159
9.69	-0.5536	-9.3439	-2.1771	0.0138	0.0057	0.0114	5.8884	39.9919	6.2207	0.5851	-0.7480	-0.2271	0.2158
9.7	-0.5538	-9.3448	-2.1784	0.0168	0.0036	0.0113	5.9472	39.9764	6.1088	0.5852	-0.7480	-0.2271	0.2158
9.71	-0.5527	-9.3415	-2.1802	0.0150	0.0089	0.0166	5.9632	40.0075	6.2935	0.5851	-0.7479	-0.2270	0.2158
9.72	-0.5542	-9.3408	-2.1829	0.0184	0.0120	0.0083	5.9912	39.8443	6.0853	0.5852	-0.7480	-0.2270	0.2158
9.73	-0.5490	-9.3466	-2.1841	0.0185	0.0072	0.0066	6.2146	40.0228	6.1367	0.5853	-0.7479	-0.2270	0.2157
9.74	-0.5378	-9.3450	-2.1787	0.0120	0.0022	0.0128	5.9558	40.0942	6.1093	0.5853	-0.7479	-0.2270	0.2157
9.75	-0.5375	-9.3448	-2.1684	0.0190	0.0027	0.0125	5.9735	39.9867	5.8649	0.5853	-0.7479	-0.2270	0.2157
9.76	-0.5384	-9.3493	-2.1675	0.0200	0.0021	0.0112	6.2211	39.8272	5.9082	0.5853	-0.7479	-0.2269	0.2157
9.77	-0.5395	-9.3450	-2.1602	0.0189	0.0071	0.0119	6.3774	39.7221	5.9574	0.5854	-0.7479	-0.2269	0.2157
9.78	-0.5429	-9.3399	-2.1509	0.0207	0.0049	0.0130	6.3827	39.7576	6.0928	0.5854	-0.7478	-0.2269	0.2157
9.79	-0.5482	-9.3453	-2.1518	0.0107	-0.0046	0.0138	6.2728	39.7527	6.0999	0.5854	-0.7479	-0.2269	0.2157
9.8	-0.5541	-9.3467	-2.1470	0.0134	0.0061	0.0192	6.1774	39.8701	6.1912	0.5854	-0.7479	-0.2269	0.2157
9.81	-0.5607	-9.3390	-2.1378	0.0155	0.0082	0.0115	6.2538	39.7879	6.1480	0.5854	-0.7479	-0.2268	0.2157
9.82	-0.5621	-9.3450	-2.1381	0.0185	-0.0014	0.0140	6.0695	39.9431	6.2828	0.5854	-0.7478	-0.2268	0.2157
9.83	-0.5570	-9.3496	-2.1366	0.0124	0.0028	0.0119	6.2288	39.9770	5.9806	0.5854	-0.7479	-0.2268	0.2157
9.84	-0.5600	-9.3408	-2.1374	0.0141	0.0074	0.0137	6.2548	39.8855	6.0600	0.5855	-0.7479	-0.2268	0.2157
9.85	-0.5608	-9.3402	-2.1350	0.0182	0.0012	0.0131	6.2130	39.9408	6.0796	0.5854	-0.7478	-0.2268	0.2156
9.86	-0.5566	-9.3477	-2.1402	0.0208	0.0035	0.0154	6.0752	39.6868	6.1931	0.5855	-0.7479	-0.2268	0.2157
9.87	-0.5527	-9.3427	-2.1412	0.0156	0.0048	0.0132	5.9777	39.8047	6.1258	0.5855	-0.7478	-0.2267	0.2157
9.88	-0.5516	-9.3406	-2.1405	0.0136	0.0012	0.0122	6.0473	40.0596	6.0337	0.5856	-0.7479	-0.2267	0.2157
9.89	-0.5514	-9.3504	-2.1546	0.0099	0.0047	0.0134	5.8261	40.1685	6.1801	0.5855	-0.7478	-0.2267	0.2156
9.9	-0.5583	-9.3506	-2.1549	0.0041	0.0024	0.0105	6.0555	40.0287	6.1297	0.5855	-0.7479	-0.2267	0.2156
9.91	-0.5623	-9.3426	-2.1488	0.0116	0.0027	0.0099	6.1498	39.9797	6.0433	0.5855	-0.7479	-0.2267	0.2156
9.92	-0.5670	-9.3448	-2.1622	0.0208	0.0040	0.0102	5.8415	39.9853	6.1552	0.5855	-0.7478	-0.2267	0.2156
9.93	-0.5685	-9.3480	-2.1702	0.0153	0.0071	0.0096	6.0231	39.9826	6.2726	0.5856	-0.7479	-0.2267	0.2156
9.94	-0.5617	-9.3422	-2.1752	0.0170	0.0056	0.0117	6.0081	39.9885	6.0842	0.5856	-0.7478	-0.2267	0.2155
9.95	-0.5544	-9.3412	-2.1773	0.0130	-0.0038	0.0125	6.2363	39.7734	6.0848	0.5856	-0.7479	-0.2267	0.2156
9.96	-0.5494	-9.3426	-2.1801	0.0140	-0.0034	0.0136	6.3962	39.6601	6.0736	0.5855	-0.7478	-0.2267	0.2156
9.97	-0.5423	-9.3453	-2.1822	0.0130	-0.0027	0.0115	6.2798	39.7552	6.1181	0.5856	-0.7478	-0.2267	0.2156
9.98	-0.5368	-9.3446	-2.1790	0.0186	-0.0022	0.0121	6.3979	39.9224	6.1682	0.5856	-0.7478	-0.2267	0.2156
9.99	-0.5370	-9.3449	-2.1848	0.0140	-0.0020	0.0113	6.3813	39.8335	5.9513	0.5856	-0.7478	-0.2267	0.2156
10	-0.5374	-9.3527	-2.1901	0.0255	-0.0013	0.0148	6.2765	39.8442	6.2087	0.5856	-0.7478	-0.2267	0.2156
10.01	-0.5425	-9.3474	-2.1831	0.0183	0.0016	0.0155	6.1919	40.0264	6.1317	0.5857	-0.7477	-0.2267	0.2156
10.02	-0.5426	-9.3429	-2.1826	0.0122	0.0009	0.0109	6.0147	39.7992	6.2360	0.5857	-0.7478	-0.2267	0.2156
10.03	-0.5423	-9.3476	-2.1834	0.0158	0.0010	0.0164	6.2256	39.8374	6.2723	0.5856	-0.7477	-0.2266	0.2156
10.04	-0.5483	-9.3481	-2.1836	0.0158	0.0001	0.0155	6.2660	39.9127	6.2399	0.5857	-0.7478	-0.2266	0.2157
10.05	-0.5479	-9.3400	-2.1727	0.0201	0.0047	0.0140	5.9377	39.9046	6.2744	0.5857	-0.7477	-0.2266	0.2157
10.06	-0.5466	-9.3465	-2.1764	0.0060	0.0051	0.0113	6.2094	39.9483	6.1824	0.5857	-0.7478	-0.2266	0.2156
10.07	-0.5442	-9.3429	-2.1727	0.0149	0.0045	0.0126	6.2893	40.0595	6.1352	0.5857	-0.7477	-0.2266	0.2156
10.08	-0.5406	-9.3400	-2.1643	0.0138	0.0030	0.0126	6.4017	39.8725	6.5923	0.5857	-0.7477	-0.2266	0.2156
10.09	-0.5446	-9.3456	-2.1654	0.0112	0.0020	0.0134	6.5930	39.9001	6.6344	0.5857	-0.7478	-0.2266	0.2156
10.1	-0.5413	-9.3503	-2.1622	0.0082	0.0069	0.0094	6.2603	40.3189	6.2360	0.5857	-0.7477	-0.2265	0.2155
10.11	-0.5443	-9.3447	-2.1508	0.0084	0.0039	0.0108	6.2200	41.0109	5.9857	0.5857	-0.7478	-0.2266	0.2155
10.12	-0.5467	-9.3447	-2.1525	0.0170	0.0062	0.0080	6.2353	40.1344	6.2760	0.5857	-0.7478	-0.2266	0.2155
10.13	-0.5515	-9.3501	-2.1525	0.0173	-0.0004	0.0142	6.0204	39.6659	6.3158	0.5858	-0.7478	-0.2266	0.2155
10.14	-0.5567	-9.3475	-2.1511	0.0140	-0.0001	0.0171	6.1647	39.9846	5.9992	0.5857	-0.7477	-0.2265	0.2155
10.15	-0.5585	-9.3413	-2.1472	0.0056	-0.0067	0.0130	6.2323	39.8314	6.1187	0.5857	-0.7478	-0.2266	0.2156
10.16	-0.5602	-9.3425	-2.1477	0.0124	0.0024	0.0118	6.2175	39.8069	6.1390	0.5857	-0.7478	-0.2266	0.2155
10.17	-0.5600	-9.3469	-2.1488	0.0102	0.0037	0.0125	6.2214	39.8868	6.2379	0.5857	-0.7477	-0.2265	0.2155
10.18	-0.5556	-9.3429	-2.1470	0.0173	0.0014	0.0122	6.1273	39.9058	6.2314	0.5858	-0.7478	-0.2266	0.2155
10.19	-0.5525	-9.3444	-2.1456	0.0211	-0.0019	0.0127	6.0157	39.8838	6.1218	0.5857	-0.7477	-0.2265	0.2155
10.2	-0.5538	-9.3491	-2.1474	0.0115	-0.0006	0.0115	6.1338	39.9005	6.1635	0.5858	-0.7478	-0.2266	0.2156
10.21	-0.5515	-9.3467	-2.1473	0.0152	0.0039	0.0144	6.1301	39.8951	6.1359	0.5857	-0.7477	-0.2265	0.2155
10.22	-0.5482	-9.3441	-2.1483	0.0074	0.0062	0.0150	6.0597	39.8823	6.1485	0.5857	-0.7478	-0.2265	0.2155
10.23	-0.5468	-9.3474	-2.1512	0.0152	0.0095	0.0137	6.1611	39.7620	6.1690	0.5857	-0.7478	-0.2265	0.2155
10.24	-0.5475	-9.3454	-2.1509	0.0081	0.0066	0.0119	6.1179	39.9647	6.3719	0.5857	-0.7478	-0.2264	0.2155
10.25	-0.5470	-9.3450	-2.1499	0.0063	0.0056	0.0132	6.1579	40.0021	6.0883	0.5857	-0.7478	-0.2264	0.2154
10.26	-0.5505	-9.3436	-2.1539	0.0068	0.0074	0.0119	5.8920	39.8206	5.8291	0.5857	-0.7478	-0.2264	0.2154
10.27	-0.5567	-9.3476	-2.1624	0.0097	0.0051	0.0131	6.1487	39.8568	6.1490	0.5857	-0.7479	-0.2264	0.2154
10.28	-0.5590	-9.3429	-2.1544	0.0049	0.0093	0.0115	6.0483	39.9957	6.1466	0.5856	-0.7478	-0.2264	0.2153
10.29	-0.5610	-9.3363	-2.1578	0.0047	0.0085	0.0108	6.0878	39.8584	6.1414	0.5857	-0.7480	-0.2264	0.2153
10.3	-0.5647	-9.3471	-2.1617	0.0087	0.0054	0.0116	6.1192	39.9441	6.1521	0.5856	-0.7479	-0.2264	0.2153
10.31	-0.5633	-9.3498	-2.1578	0.0057	-0.0005	0.0114	6.0351	40.0010	6.1367	0.5856	-0.7480	-0.2264	0.2153
10.32	-0.5623	-9.3408	-2.1539	0.0078	0.0001	0.0180	6.0612	39.9511	6.1649	0.5856	-0.7480	-0.2264	0.2153
10.33	-0.5617	-9.3540	-2.1596	0.0099	0.0011	0.0165	6.1836	39.7912	5.9814	0.5856	-0.7480	-0.2264	0.2153
10.34	-0.5534	-9.3507	-2.1598	0.0120	0.0031	0.0113	6.2201	40.0020	6.0292	0.5856	-0.7480	-0.2264	0.2153
10.35	-0.5523	-9.3440	-2.1617	0.0122	0.0017	0.0161	6.2795	39.9050	6.0745	0.5855	-0.7480	-0.2263	0.2152
10.36	-0.5501	-9.3435	-2.1591	0.0120	0.0030	0.0180	6.4156	39.8831	5.9845	0.5856	-0.7481	-0.2263	0.2153
10.37	-0.5487	-9.3535	-2.1654	0.0133	0.0026	0.0112	6.3560	39.8096	5.9369	0.5856	-0.7480	-0.2263	0.2152
10.38	-0.5395	-9.3494	-2.1680	0.0138	-0.0026	0.0159	6.2304	40.0240	5.9069	0.5856	-0.7481	-0.2263	0.2153
10.39	-0.5377	-9.3423	-2.1684	0.0114	-0.0046	0.0153	6.1404	39.8518	6.1823	0.5855	-0.7480	-0.2263	0.2153
10.4	-0.5400	-9.3502	-2.1689	0.0100	0.0010	0.0113	6.0040	40.0643	6.2645	0.5856	-0.7480	-0.2263	0.2153
10.41	-0.5500	-9.3485	-2.1738	0.0122	0.0126	0.0136	6.1584	40.1237	6.3305	0.5856	-0.7481	-0.2263	0.2153
10.42	-0.5536	-9.3407	-2.1720	0.0048	0.0108	0.0137	6.2683	39.7437	6.0327	0.5855	-0.7480	-0.2262	0.2152
10.43	-0.5574	-9.3470	-2.1778	0.0089	0.0088	0.0094	5.9213	39.9735	6.0823	0.5856	-0.7482	-0.2263	0.2152
10.44	-0.5610	-9.3439	-2.1755	0.0131	0.0019	0.0133	6.1548	39.9002	5.9965	0.5855	-0.7481	-0.2262	0.2151
10.45	-0.5631	-9.3383	-2.1749	0.0077	0.0028	0.0089	6.0822	39.7700	6.0139	0.5856	-0.7482	-0.2262	0.2151
10.46	-0.5575	-9.3420	-2.1818	0.0137	-0.0003	0.0082	6.0337	39.8982	6.1802	0.5855	-0.7481	-0.2262	0.2151
10.47	-0.5533	-9.3467	-2.1831	0.0057	0.0046	0.0078	6.1950	39.8103	6.0219	0.5855	-0.7482	-0.2263	0.2151
10.48	-0.5500	-9.3462	-2.1735	0.0135	0.0002	0.0095	6.1982	40.0945	6.1079	0.5855	-0.7481	-0.2263	0.2151
10.49	-0.5388	-9.3423	-2.1709	0.0099	0.0028	0.0108	6.0428	39.9788	6.2291	0.5855	-0.7481	-0.2263	0.2151
10.5	-0.5458	-9.3485	-2.1660	0.0163	0.0089	0.0104	6.0560	39.9663	6.2451	0.5855	-0.7482	-0.2263	0.2150
10.51	-0.5473	-9.3502	-2.1637	0.0142	0.0028	0.0142	6.0577	39.8729	6.0806	0.5855	-0.7481	-0.2262	0.2150
10.52	-0.5519	-9.3458	-2.1548	0.0193	-0.0017	0.0114	6.2492	39.9190	6.0655	0.5856	-0.7482	-0.2263	0.2150
10.53	-0.5563	-9.3446	-2.1548	0.0156	0.0032	0.0168	6.1151	39.8063	6.0425	0.5855	-0.7481	-0.2262	0.2150
10.54	-0.5600	-9.3481	-2.1528	0.0148	0.0016	0.0124	6.2834	39.9050	6.2100	0.5856	-0.7481	-0.2262	0.2150
10.55	-0.5632	-9.3450	-2.1434	0.0108	0.0021	0.0145	6.2284	39.9134	6.3598	0.5856	-0.7481	-0.2262	0.2150
10.56	-0.5636	-9.3456	-2.1436	0.0134	0.0044	0.0146	6.0509	39.8590	6.3127	0.5856	-0.7482	-0.2262	0.2150
10.57	-0.5616	-9.3469	-2.1468	0.0144	-0.0001	0.0121	6.4319	39.9576	6.3311	0.5856	-0.7481	-0.2262	0.2150
10.58	-0.5590	-9.3434	-2.1417	0.0183	-0.0003	0.0150	6.3256	40.0262	6.3336	0.5856	-0.7481	-0.2262	0.2150
10.59	-0.5617	-9.3388	-2.1335	0.0092	-0.0033	0.0136	6.4082	40.0184	6.3732	0.5856	-0.7481	-0.2262	0.2151
10.6	-0.5544	-9.3435	-2.1396	0.0100	-0.0024	0.0166	6.3185	40.4230	6.2306	0.5855	-0.7481	-0.2262	0.2150
10.61	-0.5493	-9.3434	-2.1347	0.0118	-0.0058	0.0174	6.1613	41.2965	6.0881	0.5856	-0.7482	-0.2262	0.2151
10.62	-0.5469	-9.3405	-2.1383	0.0114	-0.0006	0.0113	6.0468	40.3437	6.1597	0.5855	-0.7481	-0.2262	0.2151
10.63	-0.5497	-9.3479	-2.1399	0.0142	-0.0027	0.0098	6.0540	39.9477	6.0614	0.5856	-0.7482	-0.2262	0.2151
10.64	-0.5536	-9.3518	-2.1447	0.0121	-0.0014	0.0134	6.0381	40.0266	6.0497	0.5855	-0.7481	-0.2262	0.2151
10.65	-0.5627	-9.3372	-2.1455	0.0108	-0.0017	0.0139	6.0701	39.9526	6.0425	0.5855	-0.7481	-0.2262	0.2151
10.66	-0.5611	-9.3385	-2.1528	0.0108	-0.0049	0.0123	5.9981	39.9695	6.0926	0.5855	-0.7481	-0.2262	0.2151
10.67	-0.5573	-9.3442	-2.1640	0.0090	-0.0002	0.0110	5.9390	40.0609	6.2199	0.5855	-0.7481	-0.2262	0.2151
10.68	-0.5527	-9.3452	-2.1699	0.0064	-0.0005	0.0124	6.1620	39.9473	6.2517	0.5855	-0.7482	-0.2263	0.2152
10.69	-0.5456	-9.3469	-2.1676	0.0183	-0.0061	0.0124	5.9661	39.9146	6.1849	0.5855	-0.7481	-0.2263	0.2152
10.7	-0.5384	-9.3543	-2.1733	0.0170	-0.0078	0.0190	6.0005	39.9597	6.1282	0.5855	-0.7482	-0.2263	0.2152
10.71	-0.5261	-9.3464	-2.1742	0.0104	-0.0034	0.0113	6.2314	39.7732	6.1515	0.5854	-0.7481	-0.2262	0.2152
10.72	-0.5275	-9.3443	-2.1733	0.0134	-0.0057	0.0139	6.3082	39.8368	6.0397	0.5855	-0.7481	-0.2263	0.2153
10.73	-0.5281	-9.3430	-2.1735	0.0045	-0.0025	0.0140	6.2808	39.6451	6.0666	0.5854	-0.7482	-0.2263	0.2153
10.74	-0.5346	-9.3457	-2.1751	0.0067	-0.0016	0.0123	6.3077	39.9338	6.0798	0.5854	-0.7482	-0.2263	0.2153
10.75	-0.5415	-9.3430	-2.1743	0.0159	-0.0037	0.0143	6.2007	39.7656	5.9324	0.5854	-0.7482	-0.2263	0.2153
10.76	-0.5461	-9.3443	-2.1747	0.0143	0.0001	0.0113	6.1100	39.6512	6.0460	0.5854	-0.7481	-0.2263	0.2153
10.77	-0.5447	-9.3498	-2.1760	0.0126	-0.0017	0.0129	6.1577	39.7460	5.9945	0.5854	-0.7482	-0.2263	0.2153
10.78	-0.5499	-9.3435	-2.1724	0.0148	-0.0067	0.0134	6.0981	39.7959	6.0375	0.5854	-0.7481	-0.2263	0.2153
10.79	-0.5469	-9.3460	-2.1677	0.0170	-0.0036	0.0124	6.2746	39.8162	6.2889	0.5854	-0.7482	-0.2263	0.2153
10.8	-0.5440	-9.3441	-2.1696	0.0121	-0.0041	0.0103	6.2234	39.6932	6.2179	0.5854	-0.7481	-0.2263	0.2153
10.81	-0.5440	-9.3430	-2.1703	0.0133	-0.0003	0.0101	6.0315	40.0013	6.2392	0.5854	-0.7481	-0.2264	0.2153
10.82	-0.5395	-9.3422	-2.1694	0.0028	-0.0009	0.0124	6.0392	39.9382	6.2201	0.5854	-0.7481	-0.2264	0.2153
10.83	-0.5424	-9.3450	-2.1646	0.0117	0.0021	0.0099	6.1968	39.9259	6.2389	0.5854	-0.7482	-0.2264	0.2153
10.84	-0.5420	-9.3492	-2.1622	0.0101	-0.0030	0.0122	6.1316	39.9613	6.2197	0.5854	-0.7482	-0.2264	0.2153
10.85	-0.5473	-9.3396	-2.1589	0.0137	-0.0008	0.0131	5.9092	39.7846	6.2441	0.5853	-0.7481	-0.2264	0.2153
10.86	-0.5522	-9.3461	-2.1585	0.0093	-0.0045	0.0091	6.1983	39.8162	6.1175	0.5854	-0.7482	-0.2264	0.2154
10.87	-0.5513	-9.3474	-2.1535	0.0099	-0.0045	0.0138	6.1898	39.8336	6.0375	0.5853	-0.7482	-0.2264	0.2154
10.88	-0.5595	-9.3487	-2.1563	0.0168	-0.0039	0.0177	6.0369	39.9565	6.0697	0.5854	-0.7482	-0.2264	0.2154
10.89	-0.5600	-9.3432	-2.1484	0.0160	-0.0073	0.0179	6.1357	39.6835	6.0449	0.5853	-0.7481	-0.2264	0.2154
10.9	-0.5592	-9.3439	-2.1511	0.0174	-0.0024	0.0110	6.2552	39.7709	6.0965	0.5853	-0.7481	-0.2264	0.2155
10.91	-0.5569	-9.3344	-2.1541	0.0119	-0.0047	0.0145	6.4805	39.6542	6.1919	0.5853	-0.7481	-0.2264	0.2155
10.92	-0.5590	-9.3332	-2.1386	0.0149	-0.0016	0.0149	6.3098	39.7182	6.0819	0.5853	-0.7481	-0.2264	0.2155
10.93	-0.5586	-9.3672	-2.1656	0.0126	0.0015	0.0186	6.1819	39.7286	5.9404	0.5854	-0.7482	-0.2264	0.2155
10.94	-0.5538	-9.3564	-2.1637	0.0086	-0.0043	0.0165	5.9911	39.7600	6.0237	0.5853	-0.7481	-0.2264	0.2155
10.95	-0.5537	-9.3349	-2.1510	0.0136	-0.0015	0.0142	6.1871	39.8362	6.0258	0.5853	-0.7482	-0.2264	0.2156
10.96	-0.5505	-9.3498	-2.1715	0.0060	-0.0010	0.0099	6.2469	39.7898	5.9247	0.5852	-0.7481	-0.2264	0.2155
10.97	-0.5508	-9.3463	-2.1729	0.0076	-0.0044	0.0144	6.1825	39.9362	6.1429	0.5852	-0.7482	-0.2264	0.2155
10.98	-0.5515	-9.3318	-2.1587	0.0063	-0.0011	0.0205	6.1088	39.8506	6.2476	0.5852	-0.7482	-0.2264	0.2156
10.99	-0.5522	-9.3435	-2.1731	0.0123	-0.0005	0.0160	6.1585	39.9898	6.2345	0.5852	-0.7482	-0.2264	0.2156
11	-0.5535	-9.3507	-2.1703	0.0127	0.0045	0.0109	5.9303	39.9551	6.2060	0.5852	-0.7482	-0.2264	0.2156
11.01	-0.5520	-9.3462	-2.1722	0.0120	0.0021	0.0114	5.9949	40.0066	6.1453	0.5852	-0.7482	-0.2264	0.2155
11.02	-0.5541	-9.3437	-2.1648	0.0154	0.0018	0.0100	6.1137	39.8558	6.0671	0.5852	-0.7482	-0.2264	0.2155
11.03	-0.5557	-9.3484	-2.1691	0.0103	0.0038	0.0139	6.1574	39.7749	6.1367	0.5851	-0.7482	-0.2264	0.2155
11.04	-0.5544	-9.3498	-2.1687	0.0119	0.0021	0.0105	5.8939	40.0348	6.1344	0.5852	-0.7483	-0.2264	0.2155
11.05	-0.5563	-9.3371	-2.1652	0.0142	0.0034	0.0112	5.9587	39.9069	6.0082	0.5852	-0.7482	-0.2264	0.2155
11.06	-0.5546	-9.3448	-2.1658	0.0194	0.0030	0.0125	6.1506	39.8811	6.1246	0.5852	-0.7482	-0.2264	0.2155
11.07	-0.5581	-9.3502	-2.1602	0.0135	-0.0039	0.0131	6.1674	39.9174	6.4207	0.5852	-0.7482	-0.2264	0.2155
11.08	-0.5560	-9.3489	-2.1575	0.0195	-0.0015	0.0139	6.6074	39.8596	6.5528	0.5852	-0.7482	-0.2264	0.2155
11.09	-0.5543	-9.3475	-2.1566	0.0161	-0.0044	0.0163	6.6382	39.8009	6.3074	0.5853	-0.7482	-0.2264	0.2156
11.1	-0.5514	-9.3412	-2.1597	0.0150	-0.0016	0.0153	6.3326	40.3923	6.1309	0.5852	-0.7481	-0.2263	0.2156
11.11	-0.5492	-9.3451	-2.1621	0.0087	0.0009	0.0105	6.4157	41.1602	6.1288	0.5853	-0.7482	-0.2264	0.2156
11.12	-0.5484	-9.3448	-2.1603	0.0105	-0.0031	0.0112	6.2839	40.1024	5.8895	0.5852	-0.7482	-0.2264	0.2156
11.13	-0.5473	-9.3410	-2.1624	0.0070	-0.0025	0.0136	6.1457	39.8212	6.1492	0.5852	-0.7483	-0.2264	0.2156
11.14	-0.5434	-9.3451	-2.1639	0.0188	-0.0042	0.0140	6.2110	39.8458	6.2464	0.5852	-0.7481	-0.2264	0.2156
11.15	-0.5384	-9.3507	-2.1718	0.0125	-0.0007	0.0093	6.1453	39.7928	6.2671	0.5852	-0.7482	-0.2264	0.2156
11.16	-0.5433	-9.3419	-2.1659	0.0072	-0.0036	0.0140	6.2703	40.0006	6.1793	0.5852	-0.7482	-0.2264	0.2156
11.17	-0.5447	-9.3496	-2.1734	0.0214	0.0016	0.0118	6.0908	39.9489	6.1635	0.5852	-0.7481	-0.2264	0.2156
11.18	-0.5470	-9.3481	-2.1741	0.0184	0.0017	0.0120	5.9286	40.1022	6.0199	0.5853	-0.7482	-0.2264	0.2156
11.19	-0.5533	-9.3405	-2.1667	0.0178	-0.0003	0.0120	6.2197	40.1264	6.1475	0.5852	-0.7481	-0.2264	0.2156
11.2	-0.5617	-9.3425	-2.1767	0.0142	-0.0017	0.0101	6.2942	39.7926	6.3033	0.5853	-0.7482	-0.2264	0.2156
11.21	-0.5678	-9.3422	-2.1823	0.0135	0.0015	0.0123	6.0394	39.9029	6.1387	0.5852	-0.7481	-0.2264	0.2156
11.22	-0.5616	-9.3406	-2.1831	0.0093	0.0042	0.0125	6.0532	39.9825	6.1544	0.5853	-0.7482	-0.2264	0.2156
11.23	-0.5545	-9.3437	-2.1806	0.0141	0.0025	0.0114	6.1222	39.9935	6.1969	0.5852	-0.7482	-0.2264	0.2156
11.24	-0.5497	-9.3435	-2.1846	0.0070	0.0017	0.0080	6.0850	39.9042	6.2871	0.5852	-0.7482	-0.2264	0.2156
11.25	-0.5398	-9.3331	-2.1689	0.0104	0.0013	0.0120	6.0583	39.8898	6.1242	0.5852	-0.7482	-0.2264	0.2156
11.26	-0.5405	-9.3509	-2.1751	0.0168	0.0075	0.0106	6.1781	40.0155	5.9258	0.5852	-0.7482	-0.2264	0.2155
11.27	-0.5444	-9.3612	-2.1755	0.0121	0.0043	0.0096	6.1425	39.9218	5.8567	0.5853	-0.7482	-0.2264	0.2155
11.28	-0.5472	-9.3404	-2.1606	0.0122	-0.0035	0.0107	6.1341	39.8044	6.0642	0.5852	-0.7481	-0.2264	0.2155
11.29	-0.5530	-9.3371	-2.1444	0.0151	-0.0040	0.0119	6.3652	39.8065	6.3101	0.5853	-0.7482	-0.2265	0.2155
11.3	-0.5596	-9.3527	-2.1539	0.0250	0.0009	0.0119	6.2211	39.8412	6.0407	0.5853	-0.7481	-0.2264	0.2155
11.31	-0.5622	-9.3401	-2.1327	0.0142	-0.0017	0.0133	6.0568	39.9759	6.1691	0.5853	-0.7481	-0.2264	0.2156
11.32	-0.5601	-9.3361	-2.1341	0.0140	-0.0034	0.0116	6.0524	39.9685	6.1200	0.5853	-0.7481	-0.2264	0.2156
11.33	-0.5592	-9.3433	-2.1349	0.0202	-0.0048	0.0107	6.1101	40.0949	5.9859	0.5853	-0.7481	-0.2265	0.2156
11.34	-0.5586	-9.3560	-2.1363	0.0136	-0.0024	0.0133	6.3007	40.0053	6.0845	0.5853	-0.7481	-0.2265	0.2156
11.35	-0.5550	-9.3452	-2.1350	0.0109	-0.0061	0.0142	6.0448	39.9413	6.1411	0.5852	-0.7480	-0.2265	0.2156
11.36	-0.5526	-9.3447	-2.1398	0.0065	-0.0009	0.0126	6.0669	40.1955	6.2514	0.5853	-0.7482	-0.2265	0.2156
11.37	-0.5494	-9.3493	-2.1408	0.0061	0.0063	0.0078	6.0602	39.9265	6.1178	0.5852	-0.7481	-0.2265	0.2156
11.38	-0.5469	-9.3518	-2.1390	0.0055	0.0012	0.0105	6.3083	39.9386	6.1819	0.5853	-0.7482	-0.2265	0.2156
11.39	-0.5533	-9.3415	-2.1321	0.0089	0.0022	0.0119	6.3141	40.0119	6.1473	0.5852	-0.7481	-0.2265	0.2155
11.4	-0.5646	-9.3478	-2.1391	0.0062	-0.0015	0.0112	6.0939	40.0475	6.1683	0.5852	-0.7482	-0.2265	0.2155
11.41	-0.5757	-9.3453	-2.1478	0.0082	0.0000	0.0063	6.0366	39.9215	6.1437	0.5852	-0.7482	-0.2266	0.2155
11.42	-0.5726	-9.3378	-2.1435	0.0027	-0.0032	0.0121	6.1654	39.8614	6.1711	0.5851	-0.7482	-0.2266	0.2155
11.43	-0.5712	-9.3417	-2.1545	0.0057	0.0025	0.0073	6.0291	39.9485	6.1302	0.5851	-0.7483	-0.2266	0.2155
11.44	-0.5630	-9.3446	-2.1629	0.0044	0.0005	0.0113	6.0039	40.0470	6.1899	0.5851	-0.7483	-0.2266	0.2155
11.45	-0.5514	-9.3469	-2.1641	0.0057	0.0074	0.0065	6.0826	39.9221	6.0328	0.5851	-0.7483	-0.2266	0.2154
11.46	-0.5366	-9.3497	-2.1742	0.0047	0.0052	0.0119	6.1302	39.7654	5.8738	0.5850	-0.7483	-0.2266	0.2154
11.47	-0.5354	-9.3430	-2.1752	0.0009	-0.0073	0.0161	6.2727	39.9064	6.0212	0.5850	-0.7484	-0.2266	0.2154
11.48	-0.5327	-9.3481	-2.1843	0.0072	0.0041	0.0123	6.0259	39.7445	5.9561	0.5849	-0.7484	-0.2266	0.2154
11.49	-0.5294	-9.3469	-2.1841	0.0073	0.0001	0.0114	6.2225	39.6481	6.0628	0.5849	-0.7484	-0.2266	0.2154
11.5	-0.5238	-9.3435	-2.1870	0.0133	-0.0040	0.0132	6.3045	40.0417	6.1876	0.5849	-0.7484	-0.2267	0.2154
11.51	-0.5318	-9.3480	-2.1921	0.0146	-0.0024	0.0128	6.2200	39.8439	6.1231	0.5849	-0.7484	-0.2267	0.2154
11.52	-0.5345	-9.3442	-2.1888	0.0100	0.0017	0.0152	6.1731	39.9200	6.0408	0.5849	-0.7484	-0.2267	0.2154
11.53	-0.5401	-9.3393	-2.1897	0.0058	-0.0015	0.0128	6.1387	39.8829	6.1633	0.5848	-0.7484	-0.2266	0.2154
11.54	-0.5433	-9.3492	-2.1869	0.0176	-0.0024	0.0146	6.1356	39.9946	6.1615	0.5849	-0.7484	-0.2267	0.2154
11.55	-0.5431	-9.3464	-2.1834	0.0120	-0.0007	0.0116	6.1918	40.1343	6.1476	0.5849	-0.7484	-0.2267	0.2154
11.56	-0.5393	-9.3356	-2.1775	0.0098	0.0016	0.0085	5.9720	39.8613	6.1631	0.5849	-0.7484	-0.2267	0.2154
11.57	-0.5396	-9.3406	-2.1744	0.0164	0.0053	0.0142	6.2376	40.0261	6.2214	0.5849	-0.7484	-0.2266	0.2154
11.58	-0.5426	-9.3508	-2.1780	0.0113	0.0058	0.0053	6.5486	40.2374	6.5549	0.5849	-0.7484	-0.2267	0.2153
11.59	-0.5418	-9.3324	-2.1577	0.0157	0.0034	0.0130	6.4803	40.1136	6.4050	0.5849	-0.7484	-0.2267	0.2153
11.6	-0.5488	-9.3437	-2.1583	0.0115	0.0045	0.0141	6.3833	40.4248	5.9177	0.5849	-0.7484	-0.2266	0.2153
11.61	-0.5457	-9.3635	-2.1656	0.0088	0.0037	0.0149	6.2455	41.0906	6.1995	0.5849	-0.7485	-0.2266	0.2153
11.62	-0.5484	-9.3457	-2.1442	0.0114	0.0014	0.0091	6.0113	40.2519	6.0871	0.5849	-0.7485	-0.2266	0.2153
11.63	-0.5529	-9.3476	-2.1481	0.0114	-0.0058	0.0167	6.1466	39.8380	6.0508	0.5849	-0.7485	-0.2267	0.2154
11.64	-0.5573	-9.3472	-2.1537	0.0195	0.0001	0.0190	6.1159	39.7612	6.1742	0.5848	-0.7484	-0.2266	0.2154
11.65	-0.5630	-9.3415	-2.1424	0.0206	-0.0049	0.0184	6.3893	39.6337	6.2889	0.5849	-0.7484	-0.2266	0.2154
11.66	-0.5683	-9.3359	-2.1368	0.0143	-0.0080	0.0174	6.2690	39.8132	6.2065	0.5849	-0.7484	-0.2266	0.2155
11.67	-0.5658	-9.3458	-2.1422	0.0140	-0.0040	0.0134	6.1858	39.8945	6.0542	0.5848	-0.7484	-0.2266	0.2155
