time	acceleration_x	acceleration_y	acceleration_z	gyroscope_x	gyroscope_y	gyroscope_z	magnetometer_x	magnetometer_y	magnetometer_z	quaternion_w	quaternion_x	quaternion_y	quaternion_z
0	1.2295	-9.3597	3.1092	0.0286	-0.0081	-0.0042	11.2569	11.5068	-7.2593	-0.3992	0.2386	0.5669	-0.6799
0.01	1.2202	-9.3495	3.1283	0.0237	0.0090	0.0005	10.3777	11.4436	-7.6582	-0.3992	0.2386	0.5668	-0.6800
0.02	1.2058	-9.3575	3.1273	0.0254	0.0084	-0.0004	10.4559	11.4368	-7.8753	-0.3991	0.2386	0.5667	-0.6801
0.03	1.1868	-9.3632	3.1220	0.0231	0.0138	-0.0037	10.5126	11.5193	-7.9884	-0.3991	0.2386	0.5667	-0.6803
0.04	1.1703	-9.3753	3.1269	0.0168	0.0190	-0.0032	10.5174	11.7563	-7.8571	-0.3990	0.2386	0.5666	-0.6803
0.05	1.1658	-9.3990	3.1223	0.0133	0.0195	-0.0088	10.4241	11.4922	-7.9769	-0.3991	0.2386	0.5666	-0.6804
0.06	1.1629	-9.4096	3.1173	0.0213	0.0202	-0.0069	10.4100	11.6576	-8.0035	-0.3990	0.2385	0.5665	-0.6804
0.07	1.1622	-9.4097	3.1196	0.0229	0.0231	-0.0081	10.6415	11.4864	-7.8326	-0.3990	0.2386	0.5664	-0.6805
0.08	1.1520	-9.3986	3.1211	0.0237	0.0218	-0.0079	10.3764	11.6109	-7.8006	-0.3990	0.2386	0.5663	-0.6806
0.09	1.1444	-9.3897	3.1235	0.0238	0.0187	-0.0040	10.5187	11.6318	-7.8015	-0.3990	0.2385	0.5662	-0.6806
0.1	1.1387	-9.3808	3.1254	0.0239	0.0218	-0.0096	10.3810	11.5265	-7.8208	-0.3990	0.2386	0.5662	-0.6808
0.11	1.1347	-9.3726	3.1240	0.0229	0.0137	-0.0054	10.4557	11.8113	-7.9173	-0.3990	0.2385	0.5660	-0.6808
0.12	1.1361	-9.3668	3.1300	0.0219	0.0145	-0.0080	10.5544	11.3002	-7.8849	-0.3990	0.2385	0.5660	-0.6810
0.13	1.1461	-9.3696	3.1250	0.0231	0.0174	-0.0087	10.7136	11.2590	-7.8840	-0.3989	0.2384	0.5659	-0.6809
0.14	1.1626	-9.3733	3.1272	0.0229	0.0151	-0.0084	10.5191	11.3850	-7.7853	-0.3989	0.2384	0.5658	-0.6811
0.15	1.1727	-9.3721	3.1242	0.0185	0.0162	-0.0052	10.5529	11.3620	-7.9914	-0.3989	0.2384	0.5658	-0.6812
0.16	1.1809	-9.3781	3.1337	0.0061	0.0147	-0.0042	10.5519	11.3431	-8.2243	-0.3988	0.2384	0.5657	-0.6812
0.17	1.1761	-9.3885	3.1312	0.0113	0.0180	-0.0044	10.2675	11.4728	-7.9179	-0.3988	0.2385	0.5657	-0.6813
0.18	1.1685	-9.3937	3.1260	0.0189	0.0155	-0.0043	10.6407	11.5414	-7.6704	-0.3987	0.2384	0.5656	-0.6813
0.19	1.1612	-9.3998	3.1283	0.0055	0.0196	-0.0043	10.6966	11.3870	-7.9115	-0.3987	0.2385	0.5656	-0.6814
0.2	1.1557	-9.4037	3.1249	0.0031	0.0199	-0.0045	10.6724	11.6559	-7.8869	-0.3986	0.2385	0.5655	-0.6813
0.21	1.1509	-9.4124	3.1282	0.0074	0.0233	-0.0041	10.6926	11.4952	-8.0143	-0.3986	0.2386	0.5656	-0.6815
0.22	1.1440	-9.4118	3.1232	0.0155	0.0193	-0.0061	10.6472	11.5951	-7.7997	-0.3986	0.2386	0.5655	-0.6815
0.23	1.1336	-9.4099	3.1285	0.0142	0.0267	-0.0044	10.5000	11.6338	-7.8602	-0.3986	0.2386	0.5654	-0.6816
0.24	1.1285	-9.4134	3.1341	0.0217	0.0170	-0.0040	10.4995	11.7165	-8.0400	-0.3986	0.2386	0.5653	-0.6816
0.25	1.1225	-9.4102	3.1304	0.0149	0.0294	-0.0039	10.3862	11.5940	-7.9347	-0.3986	0.2386	0.5652	-0.6817
0.26	1.1134	-9.4051	3.1281	0.0183	0.0252	-0.0040	10.6517	11.6654	-7.8974	-0.3986	0.2387	0.5652	-0.6818
0.27	1.1005	-9.4053	3.1272	0.0172	0.0165	-0.0031	10.6955	11.4539	-7.8665	-0.3985	0.2386	0.5651	-0.6818
0.28	1.0872	-9.3983	3.1313	0.0164	0.0218	-0.0031	10.6595	11.4336	-7.9374	-0.3985	0.2387	0.5651	-0.6819
0.29	1.0805	-9.3923	3.1383	0.0151	0.0228	-0.0029	10.8589	11.6350	-7.9363	-0.3985	0.2387	0.5649	-0.6820
0.3	1.0753	-9.3848	3.1463	0.0164	0.0141	-0.0046	10.5775	11.5770	-7.9442	-0.3985	0.2387	0.5649	-0.6821
0.31	1.0706	-9.3734	3.1415	0.0228	0.0126	-0.0041	10.7088	11.3493	-8.0934	-0.3984	0.2387	0.5648	-0.6821
0.32	1.0708	-9.3791	3.1463	0.0242	0.0140	-0.0040	10.7447	11.4769	-7.9694	-0.3983	0.2387	0.5647	-0.6822
0.33	1.0710	-9.3806	3.1448	0.0219	0.0091	-0.0046	10.7097	11.6423	-8.1396	-0.3983	0.2386	0.5647	-0.6823
0.34	1.0638	-9.3588	3.1435	0.0212	0.0028	-0.0045	10.8053	11.4932	-7.9773	-0.3982	0.2386	0.5646	-0.6824
0.35	1.0672	-9.3565	3.1501	0.0259	0.0092	-0.0132	10.6512	11.2216	-7.9802	-0.3982	0.2385	0.5646	-0.6826
0.36	1.0757	-9.3601	3.1562	0.0231	0.0117	-0.0089	10.6858	11.6077	-7.8693	-0.3982	0.2384	0.5645	-0.6826
0.37	1.0825	-9.3537	3.1661	0.0182	0.0064	-0.0084	10.6935	11.6158	-8.1831	-0.3982	0.2384	0.5645	-0.6827
0.38	1.0829	-9.3697	3.1775	0.0164	0.0020	-0.0110	10.5847	11.6556	-8.0887	-0.3981	0.2383	0.5644	-0.6827
0.39	1.0638	-9.3737	3.1777	0.0086	-0.0026	-0.0129	10.4907	11.5692	-7.9467	-0.3980	0.2383	0.5644	-0.6828
0.4	1.0624	-9.3843	3.1677	0.0094	-0.0082	-0.0076	10.4987	11.4218	-8.0284	-0.3979	0.2382	0.5644	-0.6829
0.41	1.0708	-9.3740	3.1588	0.0062	-0.0070	-0.0185	10.8156	11.4566	-7.8802	-0.3978	0.2381	0.5645	-0.6829
0.42	1.0843	-9.3841	3.1526	0.0045	-0.0057	-0.0198	10.5157	11.4706	-7.9140	-0.3978	0.2380	0.5645	-0.6830
0.43	1.1047	-9.4197	3.1600	0.0049	-0.0028	-0.0105	10.5971	11.5243	-7.8423	-0.3977	0.2379	0.5645	-0.6830
0.44	1.1220	-9.4352	3.1668	0.0142	-0.0091	-0.0068	10.8310	11.6279	-8.0529	-0.3976	0.2378	0.5646	-0.6831
0.45	1.1374	-9.4257	3.1641	0.0256	-0.0108	-0.0050	10.3495	11.5255	-8.0820	-0.3975	0.2377	0.5645	-0.6832
0.46	1.1512	-9.3874	3.1702	0.0232	-0.0031	-0.0067	10.4459	11.5815	-8.1107	-0.3975	0.2376	0.5645	-0.6833
0.47	1.1664	-9.3614	3.1691	0.0254	-0.0052	-0.0092	10.5363	11.5536	-7.9848	-0.3974	0.2375	0.5644	-0.6834
0.48	1.1757	-9.3556	3.1724	0.0208	-0.0002	-0.0043	10.7232	11.4344	-7.8553	-0.3973	0.2374	0.5644	-0.6835
0.49	1.1746	-9.3529	3.1670	0.0161	0.0080	-0.0046	10.9885	11.8059	-7.9185	-0.3973	0.2374	0.5643	-0.6836
0.5	1.1566	-9.3520	3.1613	0.0121	0.0117	-0.0037	11.3467	11.6366	-7.6546	-0.3972	0.2374	0.5643	-0.6837
0.51	1.1337	-9.3574	3.1525	-0.0007	0.0103	-0.0058	11.0337	11.3963	-7.8930	-0.3972	0.2374	0.5643	-0.6837
0.52	1.1100	-9.3722	3.1396	-0.0018	0.0124	-0.0051	10.8441	11.0755	-7.8383	-0.3971	0.2374	0.5643	-0.6837
0.53	1.0910	-9.3789	3.1420	0.0027	0.0132	-0.0066	10.9320	11.1711	-8.2734	-0.3971	0.2374	0.5643	-0.6838
0.54	1.0846	-9.3803	3.1470	0.0042	0.0101	-0.0111	10.8036	11.5847	-8.0785	-0.3970	0.2374	0.5643	-0.6838
0.55	1.0849	-9.3881	3.1406	-0.0013	0.0016	-0.0085	10.6234	11.2750	-7.7606	-0.3970	0.2374	0.5644	-0.6839
0.56	1.0894	-9.4033	3.1365	0.0015	0.0016	-0.0164	10.5250	11.2829	-7.9569	-0.3969	0.2373	0.5643	-0.6838
0.57	1.0911	-9.4172	3.1375	0.0083	-0.0037	-0.0096	10.6745	11.2926	-8.1183	-0.3968	0.2373	0.5644	-0.6839
0.58	1.0878	-9.4384	3.1326	0.0171	-0.0015	-0.0102	10.8940	11.6463	-7.9274	-0.3968	0.2372	0.5644	-0.6840
0.59	1.0889	-9.4565	3.1323	0.0161	-0.0075	-0.0099	10.5963	11.5499	-7.9204	-0.3967	0.2371	0.5643	-0.6840
0.6	1.1017	-9.4699	3.1304	0.0195	-0.0077	-0.0128	10.5584	11.6516	-7.9307	-0.3967	0.2370	0.5644	-0.6842
0.61	1.1244	-9.4804	3.1374	0.0227	-0.0180	-0.0135	10.6114	11.6065	-8.0654	-0.3966	0.2368	0.5643	-0.6842
0.62	1.1539	-9.4611	3.1394	0.0266	-0.0186	-0.0066	10.4962	11.5050	-7.9288	-0.3965	0.2367	0.5643	-0.6844
0.63	1.1698	-9.4326	3.1411	0.0278	-0.0238	-0.0065	10.6386	11.6637	-7.9212	-0.3963	0.2365	0.5643	-0.6844
0.64	1.1805	-9.4049	3.1460	0.0341	-0.0190	-0.0035	10.5074	11.7113	-7.9278	-0.3962	0.2364	0.5643	-0.6847
0.65	1.1816	-9.3988	3.1587	0.0331	-0.0133	-0.0049	10.5382	11.5992	-8.1137	-0.3961	0.2362	0.5642	-0.6848
0.66	1.1851	-9.4113	3.1785	0.0303	-0.0158	-0.0038	10.5398	11.6769	-8.0515	-0.3960	0.2361	0.5641	-0.6849
0.67	1.1772	-9.3813	3.1909	0.0393	-0.0102	-0.0044	10.5223	11.4157	-7.8849	-0.3960	0.2360	0.5641	-0.6851
0.68	1.1715	-9.3345	3.1881	0.0350	-0.0082	-0.0038	10.3102	11.4965	-8.0954	-0.3959	0.2358	0.5640	-0.6853
0.69	1.1743	-9.3087	3.1915	0.0389	-0.0054	-0.0045	10.8300	11.3757	-8.0968	-0.3958	0.2357	0.5639	-0.6854
0.7	1.1785	-9.2990	3.1994	0.0320	0.0059	-0.0055	10.6222	11.3848	-8.1247	-0.3958	0.2356	0.5637	-0.6855
0.71	1.1621	-9.3094	3.2027	0.0253	0.0074	-0.0041	10.4024	11.3399	-8.0661	-0.3958	0.2356	0.5637	-0.6857
0.72	1.1399	-9.3249	3.2073	0.0228	0.0118	-0.0039	10.7939	11.1485	-8.0230	-0.3957	0.2356	0.5636	-0.6857
0.73	1.1204	-9.3397	3.2050	0.0219	0.0216	-0.0044	10.7565	11.4947	-8.1723	-0.3957	0.2356	0.5636	-0.6858
0.74	1.1004	-9.3352	3.2095	0.0211	0.0236	-0.0030	10.4976	11.4307	-7.8661	-0.3957	0.2356	0.5634	-0.6859
0.75	1.0946	-9.3349	3.2107	0.0127	0.0175	-0.0100	10.4254	11.5189	-7.8483	-0.3957	0.2356	0.5634	-0.6859
0.76	1.0950	-9.3382	3.2076	0.0022	0.0129	-0.0114	10.6798	11.5198	-8.0029	-0.3957	0.2356	0.5634	-0.6860
0.77	1.1016	-9.3337	3.2041	0.0062	0.0142	-0.0116	10.7336	11.3642	-8.0375	-0.3956	0.2355	0.5632	-0.6860
0.78	1.0992	-9.3273	3.2026	-0.0020	0.0197	-0.0138	10.5861	11.3636	-7.8621	-0.3957	0.2355	0.5632	-0.6862
0.79	1.0974	-9.3389	3.1890	-0.0010	0.0210	-0.0170	10.5143	11.4107	-7.8660	-0.3958	0.2355	0.5630	-0.6863
0.8	1.0929	-9.3651	3.1865	-0.0014	0.0216	-0.0185	10.5591	11.4811	-7.9529	-0.3958	0.2355	0.5630	-0.6864
0.81	1.0948	-9.3976	3.1742	-0.0007	0.0229	-0.0162	10.4145	11.4469	-7.9122	-0.3958	0.2355	0.5629	-0.6863
0.82	1.0991	-9.4173	3.1686	-0.0022	0.0179	-0.0192	10.6052	11.3477	-7.9272	-0.3958	0.2355	0.5629	-0.6863
0.83	1.0937	-9.4247	3.1682	-0.0010	0.0128	-0.0167	10.5873	11.5997	-8.1197	-0.3958	0.2355	0.5630	-0.6863
0.84	1.0871	-9.4305	3.1660	0.0011	0.0132	-0.0090	10.4948	11.6575	-8.0254	-0.3957	0.2355	0.5629	-0.6863
0.85	1.0867	-9.4273	3.1728	0.0161	0.0129	-0.0132	10.6775	11.5279	-8.0280	-0.3958	0.2355	0.5630	-0.6864
0.86	1.0969	-9.4149	3.1802	0.0226	0.0054	-0.0105	10.4116	11.5425	-7.8307	-0.3957	0.2354	0.5629	-0.6864
0.87	1.1047	-9.3978	3.1886	0.0238	0.0078	-0.0101	10.5795	11.3576	-7.9369	-0.3957	0.2354	0.5628	-0.6866
0.88	1.1117	-9.3719	3.1916	0.0247	0.0062	-0.0080	10.7161	11.3945	-8.1549	-0.3956	0.2353	0.5627	-0.6866
0.89	1.1239	-9.3497	3.1930	0.0212	0.0095	-0.0062	10.8503	11.2275	-8.0524	-0.3956	0.2352	0.5627	-0.6867
0.9	1.1322	-9.3255	3.1963	0.0211	0.0110	-0.0067	10.8633	11.3974	-7.9975	-0.3956	0.2352	0.5626	-0.6868
0.91	1.1368	-9.3170	3.1977	0.0185	0.0067	-0.0104	10.7237	11.5035	-8.0243	-0.3956	0.2352	0.5625	-0.6868
0.92	1.1295	-9.3393	3.2076	0.0006	0.0125	-0.0099	10.4949	11.3354	-7.9074	-0.3955	0.2352	0.5626	-0.6869
0.93	1.1192	-9.3551	3.2047	0.0053	0.0136	-0.0091	10.7178	11.2670	-8.0489	-0.3955	0.2352	0.5625	-0.6869
0.94	1.1020	-9.3630	3.2012	0.0001	0.0194	-0.0100	10.6277	11.3245	-7.9388	-0.3955	0.2352	0.5626	-0.6869
0.95	1.0946	-9.3782	3.1979	-0.0006	0.0136	-0.0058	10.7111	11.5008	-7.9041	-0.3954	0.2352	0.5625	-0.6869
0.96	1.0913	-9.3971	3.1940	0.0052	0.0175	-0.0091	10.6831	11.3116	-7.9385	-0.3954	0.2352	0.5625	-0.6870
0.97	1.0827	-9.3846	3.1917	0.0018	0.0224	-0.0074	10.4612	11.4863	-8.0466	-0.3954	0.2352	0.5625	-0.6870
0.98	1.0799	-9.3748	3.1880	-0.0033	0.0233	-0.0052	10.6686	11.5989	-7.9486	-0.3954	0.2353	0.5625	-0.6870
0.99	1.0621	-9.3771	3.1930	0.0044	0.0215	-0.0039	10.9448	11.9612	-7.8103	-0.3953	0.2353	0.5624	-0.6870
1	1.0509	-9.3719	3.1874	0.0126	0.0163	-0.0097	11.2581	12.0838	-7.6456	-0.3953	0.2353	0.5624	-0.6870
1.01	1.0519	-9.3589	3.1853	0.0005	0.0105	-0.0062	10.9657	11.5406	-8.0580	-0.3953	0.2354	0.5624	-0.6871
1.02	1.0578	-9.3493	3.1871	-0.0008	0.0107	-0.0071	10.7340	11.1848	-7.8302	-0.3952	0.2353	0.5624	-0.6870
1.03	1.0651	-9.3517	3.1954	-0.0014	0.0066	-0.0117	10.5903	11.2424	-7.9930	-0.3952	0.2354	0.5625	-0.6872
1.04	1.0726	-9.3406	3.1916	0.0015	0.0131	-0.0040	10.5426	11.5764	-8.2574	-0.3951	0.2354	0.5625	-0.6871
1.05	1.0831	-9.3454	3.1982	0.0019	0.0078	-0.0107	10.5403	11.5307	-8.2569	-0.3951	0.2353	0.5624	-0.6873
1.06	1.0856	-9.3554	3.2009	-0.0027	0.0180	-0.0095	10.7167	11.5660	-8.1691	-0.3951	0.2353	0.5622	-0.6873
1.07	1.0876	-9.3733	3.1986	-0.0008	0.0099	-0.0126	10.5375	11.6464	-8.2623	-0.3951	0.2353	0.5622	-0.6874
1.08	1.0857	-9.3729	3.2028	-0.0025	0.0125	-0.0196	10.6729	11.4366	-8.0771	-0.3950	0.2353	0.5623	-0.6874
1.09	1.0803	-9.3729	3.2138	-0.0024	0.0145	-0.0226	10.6795	11.2617	-8.0446	-0.3950	0.2352	0.5623	-0.6873
1.1	1.0688	-9.3825	3.2090	-0.0006	0.0117	-0.0170	10.6832	11.3213	-8.0854	-0.3951	0.2353	0.5624	-0.6874
1.11	1.0549	-9.3734	3.1946	-0.0019	0.0127	-0.0221	10.6707	11.3693	-8.1646	-0.3950	0.2352	0.5623	-0.6873
1.12	1.0570	-9.3628	3.1844	-0.0004	0.0013	-0.0199	10.7097	11.2250	-7.9415	-0.3950	0.2352	0.5624	-0.6874
1.13	1.0759	-9.3542	3.1834	-0.0062	0.0019	-0.0154	10.5663	11.4926	-8.0812	-0.3949	0.2351	0.5624	-0.6873
1.14	1.1012	-9.3775	3.1887	-0.0132	-0.0071	-0.0105	10.6400	11.5423	-8.0595	-0.3949	0.2351	0.5625	-0.6873
1.15	1.1142	-9.3992	3.1997	-0.0071	-0.0074	-0.0096	10.6508	11.2457	-7.8915	-0.3947	0.2350	0.5626	-0.6873
1.16	1.1209	-9.4082	3.2080	-0.0033	0.0003	-0.0073	10.5485	11.4247	-7.8682	-0.3946	0.2350	0.5626	-0.6873
1.17	1.1215	-9.4020	3.1962	0.0000	0.0058	-0.0093	10.7231	11.6997	-7.9938	-0.3946	0.2350	0.5627	-0.6874
1.18	1.1307	-9.3877	3.1985	-0.0012	0.0005	-0.0066	10.6497	11.3060	-8.1093	-0.3945	0.2350	0.5627	-0.6874
1.19	1.1319	-9.3643	3.1912	-0.0019	0.0044	-0.0142	10.5192	11.3544	-7.9681	-0.3945	0.2349	0.5627	-0.6875
1.2	1.1302	-9.3487	3.1846	0.0003	0.0150	-0.0165	10.4837	11.2958	-8.0586	-0.3944	0.2349	0.5627	-0.6874
1.21	1.1257	-9.3566	3.1738	-0.0036	0.0196	-0.0121	10.5190	11.2756	-8.0614	-0.3944	0.2349	0.5628	-0.6875
1.22	1.1123	-9.3709	3.1660	-0.0127	0.0192	-0.0147	10.6504	11.4581	-7.9177	-0.3944	0.2350	0.5628	-0.6874
1.23	1.0917	-9.3820	3.1579	-0.0157	0.0229	-0.0136	10.7043	11.4770	-8.0718	-0.3944	0.2350	0.5628	-0.6874
1.24	1.0707	-9.3853	3.1548	-0.0001	0.0221	-0.0077	10.6465	11.3712	-8.1502	-0.3944	0.2351	0.5628	-0.6873
1.25	1.0726	-9.3823	3.1566	-0.0024	0.0127	-0.0184	10.7430	11.2453	-8.0589	-0.3944	0.2351	0.5628	-0.6874
1.26	1.0828	-9.3956	3.1561	-0.0152	0.0175	-0.0153	10.7229	11.5426	-8.0313	-0.3944	0.2351	0.5629	-0.6873
1.27	1.0936	-9.3947	3.1581	-0.0074	0.0126	-0.0191	10.6609	11.1770	-7.8574	-0.3943	0.2351	0.5629	-0.6872
1.28	1.1021	-9.4018	3.1527	-0.0128	0.0121	-0.0253	10.6777	11.1392	-7.9909	-0.3944	0.2351	0.5630	-0.6873
1.29	1.1070	-9.4282	3.1490	-0.0089	-0.0035	-0.0269	10.3973	11.4633	-7.8317	-0.3943	0.2350	0.5630	-0.6872
1.3	1.1091	-9.4510	3.1446	-0.0098	-0.0054	-0.0156	10.6876	11.2725	-8.2371	-0.3943	0.2350	0.5632	-0.6873
1.31	1.1144	-9.4717	3.1370	0.0003	0.0035	-0.0141	10.6666	11.2871	-8.2527	-0.3942	0.2349	0.5631	-0.6872
1.32	1.1304	-9.4793	3.1344	-0.0028	-0.0041	-0.0115	10.5962	11.1904	-8.1253	-0.3941	0.2349	0.5632	-0.6873
1.33	1.1441	-9.4576	3.1442	0.0132	-0.0093	-0.0093	10.5351	11.3506	-7.9815	-0.3940	0.2348	0.5632	-0.6873
1.34	1.1569	-9.4322	3.1415	0.0162	-0.0087	-0.0074	10.5506	11.4502	-8.0394	-0.3939	0.2347	0.5631	-0.6874
1.35	1.1567	-9.3985	3.1463	0.0120	-0.0010	-0.0035	10.7295	11.5620	-8.1932	-0.3939	0.2346	0.5632	-0.6876
1.36	1.1555	-9.3998	3.1574	0.0225	-0.0013	-0.0052	10.7770	11.4252	-8.1247	-0.3938	0.2346	0.5631	-0.6876
1.37	1.1636	-9.4258	3.1774	0.0248	0.0040	-0.0038	10.7427	11.4919	-7.9876	-0.3938	0.2345	0.5630	-0.6878
1.38	1.1600	-9.3858	3.1900	0.0246	0.0135	-0.0038	10.5370	11.3578	-7.9527	-0.3937	0.2345	0.5629	-0.6878
1.39	1.1560	-9.3479	3.1946	0.0249	0.0078	-0.0071	10.6693	11.3927	-8.1106	-0.3937	0.2344	0.5628	-0.6880
1.4	1.1616	-9.3118	3.1943	0.0202	0.0240	-0.0071	10.7680	11.5137	-7.9942	-0.3937	0.2344	0.5627	-0.6880
1.41	1.1499	-9.2897	3.2030	0.0188	0.0271	-0.0061	10.5789	11.3422	-7.9697	-0.3937	0.2345	0.5626	-0.6881
1.42	1.1076	-9.2959	3.2143	0.0096	0.0237	-0.0065	10.5790	11.5890	-7.9695	-0.3937	0.2345	0.5626	-0.6881
1.43	1.0651	-9.3191	3.2073	0.0073	0.0316	-0.0068	10.5247	11.4988	-8.1541	-0.3937	0.2345	0.5625	-0.6881
1.44	1.0316	-9.3454	3.2096	0.0022	0.0336	-0.0104	11.0251	11.4701	-8.1021	-0.3938	0.2346	0.5625	-0.6882
1.45	1.0020	-9.3592	3.2094	-0.0027	0.0280	-0.0093	10.7317	11.3730	-8.0509	-0.3937	0.2347	0.5624	-0.6881
1.46	0.9888	-9.3637	3.2034	0.0013	0.0203	-0.0125	10.8077	11.4873	-8.0739	-0.3938	0.2347	0.5624	-0.6882
1.47	0.9898	-9.3605	3.2044	-0.0014	0.0125	-0.0122	11.0205	11.4410	-8.0839	-0.3938	0.2347	0.5624	-0.6881
1.48	1.0083	-9.3516	3.1980	-0.0011	0.0031	-0.0112	10.8728	11.5543	-7.9499	-0.3937	0.2347	0.5625	-0.6882
1.49	1.0339	-9.3391	3.1926	-0.0005	0.0030	-0.0131	11.2781	11.4612	-7.6329	-0.3937	0.2346	0.5623	-0.6883
1.5	1.0559	-9.3462	3.1942	-0.0034	0.0019	-0.0122	11.6985	11.3809	-7.5183	-0.3937	0.2346	0.5622	-0.6884
1.51	1.0787	-9.3493	3.1947	-0.0042	0.0040	-0.0104	10.8575	11.4338	-7.9919	-0.3937	0.2345	0.5621	-0.6886
1.52	1.0857	-9.3607	3.1900	-0.0204	-0.0033	-0.0068	10.4938	11.1995	-7.8647	-0.3936	0.2344	0.5620	-0.6886
1.53	1.0900	-9.3861	3.1836	-0.0126	0.0079	-0.0107	10.6172	11.4974	-8.0640	-0.3935	0.2345	0.5621	-0.6887
1.54	1.0978	-9.4034	3.1786	-0.0025	0.0068	-0.0122	10.5116	11.7428	-8.0990	-0.3935	0.2344	0.5621	-0.6887
1.55	1.1002	-9.4134	3.1703	-0.0109	0.0077	-0.0153	10.7383	11.5830	-8.2120	-0.3935	0.2345	0.5622	-0.6887
1.56	1.0971	-9.4089	3.1660	-0.0023	0.0051	-0.0101	10.6634	11.5057	-8.0865	-0.3934	0.2344	0.5621	-0.6886
1.57	1.0920	-9.4064	3.1597	-0.0016	0.0063	-0.0040	10.5353	11.6021	-8.1661	-0.3933	0.2344	0.5622	-0.6887
1.58	1.0805	-9.4084	3.1619	-0.0003	0.0129	-0.0108	10.5969	11.3924	-7.9638	-0.3933	0.2344	0.5622	-0.6887
1.59	1.0725	-9.4159	3.1635	-0.0010	0.0093	-0.0093	10.5340	11.1907	-7.9941	-0.3932	0.2344	0.5622	-0.6887
1.6	1.0620	-9.4253	3.1637	0.0001	0.0191	-0.0118	10.6114	11.4759	-8.0079	-0.3932	0.2345	0.5622	-0.6888
1.61	1.0575	-9.4243	3.1673	0.0036	0.0169	-0.0086	10.7735	11.6122	-7.7903	-0.3932	0.2345	0.5621	-0.6888
1.62	1.0516	-9.4172	3.1675	0.0008	0.0067	-0.0036	10.7846	11.3681	-8.0638	-0.3932	0.2345	0.5622	-0.6888
1.63	1.0575	-9.4123	3.1710	0.0151	0.0002	-0.0074	10.9567	11.1320	-7.8900	-0.3930	0.2344	0.5621	-0.6888
1.64	1.0557	-9.4059	3.1663	0.0147	0.0056	-0.0046	10.7744	11.2842	-7.9358	-0.3930	0.2344	0.5621	-0.6890
1.65	1.0515	-9.4045	3.1698	0.0148	0.0132	-0.0091	10.7339	11.5175	-8.1115	-0.3930	0.2344	0.5620	-0.6890
1.66	1.0549	-9.4047	3.1734	0.0223	0.0060	-0.0037	10.7644	11.4348	-8.3508	-0.3929	0.2343	0.5619	-0.6891
1.67	1.0499	-9.3977	3.1761	0.0217	0.0032	-0.0044	10.6327	11.2921	-8.0407	-0.3929	0.2343	0.5619	-0.6892
1.68	1.0439	-9.3939	3.1796	0.0222	0.0049	-0.0106	10.8106	11.3667	-8.1830	-0.3929	0.2342	0.5618	-0.6893
1.69	1.0411	-9.3944	3.1852	0.0200	0.0010	-0.0084	10.8437	11.4429	-7.9137	-0.3928	0.2341	0.5618	-0.6894
1.7	1.0379	-9.3964	3.1860	0.0240	0.0049	-0.0069	10.8415	11.3313	-8.1133	-0.3927	0.2340	0.5617	-0.6895
1.71	1.0365	-9.3919	3.1893	0.0192	0.0063	-0.0045	10.8262	11.2005	-8.0696	-0.3927	0.2340	0.5617	-0.6896
1.72	1.0351	-9.3825	3.1893	0.0231	0.0054	-0.0113	10.7014	11.4757	-7.8951	-0.3927	0.2340	0.5616	-0.6897
1.73	1.0386	-9.3774	3.1869	0.0225	0.0064	-0.0153	10.5689	11.4574	-8.1576	-0.3927	0.2339	0.5615	-0.6898
1.74	1.0354	-9.3726	3.1918	0.0181	-0.0021	-0.0203	10.5646	11.2964	-8.0766	-0.3927	0.2338	0.5615	-0.6898
1.75	1.0379	-9.3629	3.1920	0.0185	0.0006	-0.0167	10.6812	11.4677	-8.0227	-0.3927	0.2337	0.5615	-0.6899
1.76	1.0408	-9.3544	3.1967	0.0198	0.0047	-0.0191	10.6442	11.3563	-8.2095	-0.3927	0.2336	0.5614	-0.6900
1.77	1.0468	-9.3433	3.1971	0.0132	-0.0036	-0.0160	10.6654	11.6018	-8.1253	-0.3926	0.2335	0.5614	-0.6900
1.78	1.0462	-9.3356	3.1971	0.0120	-0.0017	-0.0204	10.6492	11.5733	-8.1007	-0.3926	0.2334	0.5614	-0.6901
1.79	1.0414	-9.3473	3.1985	0.0100	-0.0013	-0.0154	10.5167	11.6215	-7.9788	-0.3926	0.2333	0.5614	-0.6901
1.8	1.0376	-9.3579	3.1969	0.0151	-0.0078	-0.0090	10.6908	11.4646	-7.8681	-0.3925	0.2333	0.5614	-0.6903
1.81	1.0439	-9.3609	3.2066	0.0103	-0.0106	-0.0140	10.9737	11.3009	-8.1527	-0.3924	0.2331	0.5614	-0.6903
1.82	1.0494	-9.3546	3.2104	0.0172	-0.0044	-0.0181	10.6444	11.2260	-8.2896	-0.3924	0.2330	0.5614	-0.6904
1.83	1.0567	-9.3468	3.2141	0.0051	-0.0050	-0.0184	10.9052	11.2618	-7.9712	-0.3924	0.2329	0.5613	-0.6905
1.84	1.0628	-9.3592	3.2199	0.0036	-0.0085	-0.0136	10.8496	11.1532	-8.1119	-0.3923	0.2328	0.5613	-0.6905
1.85	1.0602	-9.3686	3.2221	0.0049	-0.0064	-0.0144	10.8348	11.2384	-8.1041	-0.3923	0.2327	0.5614	-0.6906
1.86	1.0698	-9.3638	3.2141	0.0013	-0.0109	-0.0120	10.8075	11.2415	-8.0914	-0.3921	0.2326	0.5614	-0.6906
1.87	1.0736	-9.3453	3.1965	0.0021	-0.0157	-0.0101	10.6994	11.2362	-7.9070	-0.3921	0.2325	0.5614	-0.6908
1.88	1.0859	-9.3361	3.1999	-0.0018	-0.0127	-0.0097	10.8590	11.2380	-8.0000	-0.3920	0.2324	0.5612	-0.6909
1.89	1.1048	-9.3658	3.2056	-0.0014	-0.0223	-0.0070	10.8169	11.4611	-8.1476	-0.3919	0.2323	0.5613	-0.6910
1.9	1.1116	-9.3868	3.2123	0.0014	-0.0167	-0.0110	10.6789	11.5400	-8.0651	-0.3917	0.2322	0.5614	-0.6910
1.91	1.1168	-9.4025	3.2117	0.0042	-0.0073	-0.0099	10.6352	11.3951	-8.2429	-0.3916	0.2321	0.5614	-0.6911
1.92	1.1157	-9.3969	3.2073	-0.0006	-0.0061	-0.0168	10.7732	11.4424	-8.0515	-0.3916	0.2321	0.5614	-0.6911
1.93	1.1317	-9.3841	3.2117	-0.0019	-0.0021	-0.0128	10.5856	11.3404	-7.9299	-0.3915	0.2320	0.5615	-0.6911
1.94	1.1397	-9.3735	3.2043	0.0024	0.0006	-0.0137	10.5779	11.4125	-8.2534	-0.3915	0.2320	0.5615	-0.6912
1.95	1.1342	-9.3632	3.1973	0.0013	0.0096	-0.0179	10.4834	11.7036	-8.1010	-0.3914	0.2319	0.5614	-0.6911
1.96	1.1179	-9.3643	3.1870	-0.0017	0.0155	-0.0101	10.4778	11.5836	-8.0041	-0.3914	0.2319	0.5615	-0.6912
1.97	1.0921	-9.3662	3.1862	-0.0008	0.0100	-0.0153	10.6414	11.3874	-8.0480	-0.3914	0.2319	0.5615	-0.6912
1.98	1.0569	-9.3585	3.1753	-0.0011	0.0164	-0.0148	10.6961	11.5732	-8.2028	-0.3914	0.2319	0.5615	-0.6912
1.99	1.0423	-9.3569	3.1771	-0.0014	0.0086	-0.0100	10.9657	11.6654	-8.3125	-0.3914	0.2319	0.5615	-0.6912
2	1.0469	-9.3598	3.1762	-0.0015	0.0024	-0.0139	11.2923	11.5203	-8.1747	-0.3913	0.2319	0.5615	-0.6912
2.01	1.0587	-9.3675	3.1743	-0.0022	-0.0015	-0.0173	10.9282	11.4607	-7.9386	-0.3913	0.2319	0.5615	-0.6913
2.02	1.0670	-9.3706	3.1704	-0.0013	-0.0024	-0.0130	10.8834	11.0525	-8.0544	-0.3912	0.2318	0.5615	-0.6912
2.03	1.0761	-9.3892	3.1643	-0.0011	-0.0052	-0.0214	10.9416	11.2884	-8.1647	-0.3912	0.2317	0.5616	-0.6913
2.04	1.0814	-9.4089	3.1658	-0.0016	-0.0078	-0.0143	11.0147	11.4435	-8.2187	-0.3911	0.2317	0.5616	-0.6913
2.05	1.0901	-9.4189	3.1622	-0.0010	-0.0030	-0.0129	10.7415	11.5001	-8.3067	-0.3911	0.2316	0.5617	-0.6914
2.06	1.0956	-9.4249	3.1676	-0.0018	-0.0131	-0.0174	10.6463	11.4564	-8.1649	-0.3910	0.2315	0.5617	-0.6913
2.07	1.1044	-9.4161	3.1801	0.0075	-0.0111	-0.0093	10.6255	11.3861	-8.1676	-0.3909	0.2314	0.5618	-0.6914
2.08	1.1148	-9.4008	3.1774	0.0081	-0.0135	-0.0080	10.5167	11.3523	-8.0373	-0.3908	0.2313	0.5618	-0.6915
2.09	1.1265	-9.3836	3.1759	0.0055	-0.0117	-0.0077	10.6366	11.1936	-8.1801	-0.3907	0.2312	0.5618	-0.6915
2.1	1.1130	-9.3591	3.1689	0.0066	-0.0065	-0.0064	10.6563	11.3064	-8.2731	-0.3906	0.2312	0.5618	-0.6917
2.11	1.1035	-9.3900	3.1710	0.0027	-0.0109	-0.0054	10.7551	11.4450	-7.9870	-0.3905	0.2311	0.5618	-0.6917
2.12	1.1090	-9.4429	3.1851	0.0073	-0.0102	-0.0050	10.7334	11.4785	-8.2796	-0.3904	0.2311	0.5618	-0.6918
2.13	1.1188	-9.4228	3.1886	0.0154	-0.0098	-0.0040	10.7378	11.4794	-8.1829	-0.3903	0.2310	0.5618	-0.6918
2.14	1.1334	-9.3950	3.1880	0.0232	-0.0040	-0.0061	10.6239	11.4457	-8.1822	-0.3903	0.2309	0.5617	-0.6920
2.15	1.1443	-9.3656	3.1873	0.0252	-0.0017	-0.0049	10.6510	11.3615	-8.1740	-0.3902	0.2308	0.5617	-0.6921
2.16	1.1422	-9.3569	3.2055	0.0200	0.0016	-0.0044	10.6321	11.3967	-8.4925	-0.3901	0.2308	0.5616	-0.6922
2.17	1.1220	-9.3636	3.2127	0.0162	0.0192	-0.0035	10.7485	11.3740	-8.3085	-0.3901	0.2308	0.5615	-0.6923
2.18	1.0891	-9.3666	3.2157	0.0184	0.0127	-0.0037	10.7356	11.5257	-8.1715	-0.3901	0.2308	0.5614	-0.6923
2.19	1.0586	-9.3678	3.2085	0.0117	0.0151	-0.0045	10.7365	11.3650	-8.0948	-0.3901	0.2308	0.5614	-0.6924
2.2	1.0396	-9.3634	3.2044	0.0102	0.0191	-0.0056	10.7208	11.0886	-8.1598	-0.3900	0.2308	0.5613	-0.6924
2.21	1.0356	-9.3586	3.2033	0.0028	0.0213	-0.0107	10.9598	11.2593	-8.3865	-0.3901	0.2308	0.5613	-0.6925
2.22	1.0392	-9.3601	3.2104	0.0100	0.0191	-0.0148	10.8736	11.1582	-8.2135	-0.3901	0.2308	0.5612	-0.6925
2.23	1.0383	-9.3624	3.2058	0.0025	0.0130	-0.0148	10.7326	11.3786	-8.2985	-0.3901	0.2308	0.5612	-0.6925
2.24	1.0303	-9.3578	3.2026	0.0010	0.0092	-0.0158	10.7383	11.3724	-8.1623	-0.3900	0.2308	0.5612	-0.6925
2.25	1.0219	-9.3592	3.1966	0.0050	0.0098	-0.0127	10.5911	11.5572	-8.1743	-0.3900	0.2308	0.5612	-0.6926
2.26	1.0269	-9.3644	3.1980	-0.0011	0.0052	-0.0130	10.7596	11.4773	-8.2378	-0.3900	0.2308	0.5612	-0.6926
2.27	1.0325	-9.3687	3.1957	0.0119	-0.0064	-0.0084	10.5531	11.2541	-8.2975	-0.3899	0.2307	0.5612	-0.6926
2.28	1.0410	-9.3713	3.1961	0.0043	-0.0003	-0.0081	10.6573	11.4192	-8.1448	-0.3899	0.2307	0.5612	-0.6927
2.29	1.0488	-9.3618	3.2067	0.0067	-0.0003	-0.0158	10.7753	11.3689	-8.0518	-0.3898	0.2306	0.5612	-0.6927
2.3	1.0544	-9.3550	3.2033	0.0060	-0.0041	-0.0146	10.6563	11.3991	-8.1622	-0.3898	0.2305	0.5613	-0.6928
2.31	1.0575	-9.3626	3.2017	-0.0016	-0.0030	-0.0082	10.5453	11.3770	-8.1960	-0.3897	0.2305	0.5612	-0.6928
2.32	1.0658	-9.3778	3.1987	0.0097	-0.0057	-0.0056	10.6801	11.2792	-8.1570	-0.3896	0.2304	0.5612	-0.6929
2.33	1.0734	-9.3922	3.1963	0.0026	-0.0047	-0.0128	10.7735	11.5065	-8.0392	-0.3896	0.2304	0.5613	-0.6929
2.34	1.0826	-9.3958	3.1939	0.0017	0.0024	-0.0121	10.6225	11.3632	-8.2005	-0.3895	0.2303	0.5612	-0.6929
2.35	1.0865	-9.4008	3.1917	0.0034	-0.0014	-0.0076	10.7678	11.5177	-8.0495	-0.3895	0.2303	0.5613	-0.6931
2.36	1.0899	-9.3916	3.1915	0.0146	-0.0057	-0.0080	10.8356	11.5507	-8.1434	-0.3894	0.2302	0.5612	-0.6931
2.37	1.0874	-9.3849	3.1974	0.0160	-0.0056	-0.0080	10.6165	11.4075	-8.1723	-0.3893	0.2302	0.5613	-0.6932
2.38	1.0761	-9.3768	3.2009	0.0043	-0.0018	-0.0039	10.7472	11.2845	-8.2650	-0.3892	0.2301	0.5612	-0.6932
2.39	1.0540	-9.3709	3.2126	0.0105	0.0100	-0.0046	10.8249	11.2145	-8.3769	-0.3892	0.2301	0.5612	-0.6933
2.4	1.0349	-9.3687	3.2103	0.0181	0.0095	-0.0054	10.8395	11.3265	-8.0081	-0.3891	0.2301	0.5611	-0.6934
2.41	1.0100	-9.3664	3.2141	0.0152	0.0094	-0.0104	10.7427	11.2892	-8.2819	-0.3891	0.2300	0.5610	-0.6934
2.42	0.9995	-9.3696	3.2144	0.0086	0.0116	-0.0155	10.7304	11.2903	-8.2398	-0.3891	0.2300	0.5610	-0.6935
2.43	1.0011	-9.3731	3.2161	0.0076	0.0066	-0.0169	10.7275	11.1918	-8.1927	-0.3891	0.2300	0.5610	-0.6935
2.44	1.0031	-9.3692	3.2171	0.0115	0.0103	-0.0186	10.7566	11.4055	-8.2913	-0.3891	0.2299	0.5610	-0.6936
2.45	1.0111	-9.3756	3.2202	0.0190	0.0078	-0.0218	10.6310	11.3625	-8.2598	-0.3891	0.2298	0.5609	-0.6936
2.46	1.0221	-9.3822	3.2275	0.0233	0.0019	-0.0152	10.7800	11.4196	-8.2624	-0.3891	0.2298	0.5609	-0.6937
2.47	1.0372	-9.3756	3.2283	0.0187	0.0015	-0.0192	10.6612	11.4713	-8.1402	-0.3891	0.2297	0.5608	-0.6938
2.48	1.0518	-9.3606	3.2331	0.0219	0.0046	-0.0184	10.7436	11.5339	-7.9206	-0.3891	0.2296	0.5608	-0.6938
2.49	1.0571	-9.3538	3.2398	0.0198	0.0049	-0.0178	11.1545	11.6700	-7.8911	-0.3891	0.2295	0.5607	-0.6939
2.5	1.0668	-9.3432	3.2424	0.0195	0.0002	-0.0160	11.4730	11.5364	-7.9262	-0.3891	0.2294	0.5607	-0.6940
2.51	1.0689	-9.3253	3.2484	0.0146	0.0008	-0.0131	10.9196	11.2884	-8.0309	-0.3891	0.2294	0.5607	-0.6941
2.52	1.0628	-9.3133	3.2477	0.0108	0.0000	-0.0169	10.7966	11.3979	-8.1605	-0.3890	0.2293	0.5606	-0.6940
2.53	1.0539	-9.3186	3.2424	0.0088	0.0095	-0.0096	10.7577	11.5369	-8.2960	-0.3891	0.2292	0.5605	-0.6943
2.54	1.0319	-9.3365	3.2419	-0.0013	0.0042	-0.0100	10.4540	11.4735	-8.2451	-0.3891	0.2292	0.5603	-0.6944
2.55	1.0199	-9.3543	3.2355	0.0026	0.0084	-0.0137	10.5980	11.4855	-8.1448	-0.3891	0.2292	0.5603	-0.6945
2.56	1.0249	-9.3765	3.2350	0.0006	-0.0078	-0.0181	10.9724	11.1765	-8.3107	-0.3890	0.2290	0.5603	-0.6944
2.57	1.0369	-9.3811	3.2205	-0.0015	-0.0106	-0.0243	10.8933	11.1924	-8.2197	-0.3890	0.2290	0.5603	-0.6945
2.58	1.0580	-9.3823	3.2191	0.0006	-0.0127	-0.0230	10.9878	11.3907	-8.1843	-0.3889	0.2288	0.5604	-0.6945
2.59	1.0668	-9.3801	3.2185	-0.0008	-0.0050	-0.0228	11.0536	11.2198	-8.1514	-0.3888	0.2287	0.5604	-0.6945
2.6	1.0790	-9.3785	3.2162	-0.0019	-0.0049	-0.0200	10.7970	11.2378	-8.3237	-0.3889	0.2287	0.5605	-0.6946
2.61	1.0847	-9.3794	3.2176	-0.0002	-0.0080	-0.0157	10.7266	11.3757	-8.4660	-0.3888	0.2286	0.5605	-0.6945
2.62	1.1033	-9.3682	3.2214	-0.0032	-0.0047	-0.0196	10.5557	11.1768	-8.0463	-0.3887	0.2286	0.5606	-0.6946
2.63	1.1211	-9.3480	3.2176	0.0068	-0.0076	-0.0212	10.6606	11.1245	-8.2008	-0.3887	0.2284	0.5606	-0.6945
2.64	1.1274	-9.3492	3.2246	0.0079	-0.0126	-0.0144	10.7802	11.1586	-8.1503	-0.3886	0.2283	0.5606	-0.6947
2.65	1.1339	-9.3648	3.2291	-0.0040	-0.0071	-0.0164	10.7152	11.3246	-8.0596	-0.3886	0.2283	0.5607	-0.6947
2.66	1.1304	-9.3799	3.2254	-0.0019	-0.0021	-0.0168	10.5643	11.5392	-8.1703	-0.3885	0.2282	0.5607	-0.6947
2.67	1.1237	-9.3753	3.2088	-0.0059	-0.0029	-0.0061	10.5872	11.3679	-8.3056	-0.3884	0.2282	0.5607	-0.6947
2.68	1.1167	-9.3696	3.2062	-0.0020	-0.0046	-0.0067	10.6794	11.3310	-8.0946	-0.3883	0.2282	0.5607	-0.6948
2.69	1.1222	-9.3955	3.2099	-0.0043	0.0040	-0.0096	10.6588	11.4629	-8.1526	-0.3883	0.2282	0.5608	-0.6948
2.7	1.1232	-9.4178	3.2195	-0.0006	0.0005	-0.0093	10.6580	11.2820	-8.1947	-0.3882	0.2281	0.5607	-0.6947
2.71	1.1299	-9.4236	3.2228	-0.0014	0.0117	-0.0101	10.6777	11.4718	-8.1774	-0.3882	0.2282	0.5608	-0.6949
2.72	1.1313	-9.4027	3.2183	0.0071	0.0127	-0.0140	10.7850	11.3018	-8.1710	-0.3882	0.2281	0.5607	-0.6948
2.73	1.1371	-9.3698	3.2151	0.0198	0.0093	-0.0160	10.6730	11.4742	-7.9731	-0.3882	0.2281	0.5607	-0.6949
2.74	1.1458	-9.3405	3.2175	0.0129	0.0173	-0.0094	10.6394	11.5177	-8.0289	-0.3882	0.2281	0.5606	-0.6949
2.75	1.1383	-9.3336	3.2198	0.0126	0.0261	-0.0067	10.8313	11.2432	-8.2075	-0.3882	0.2281	0.5605	-0.6950
2.76	1.1035	-9.3234	3.2138	0.0089	0.0398	-0.0082	10.9812	11.2222	-8.2046	-0.3883	0.2282	0.5605	-0.6950
2.77	1.0499	-9.3337	3.2067	0.0010	0.0297	-0.0091	10.8157	11.3232	-8.4026	-0.3883	0.2283	0.5603	-0.6950
2.78	1.0087	-9.3478	3.2088	-0.0096	0.0292	-0.0071	10.9641	11.2157	-8.2215	-0.3883	0.2284	0.5604	-0.6951
2.79	0.9890	-9.3515	3.2035	0.0002	0.0279	-0.0104	10.7376	11.4074	-8.1734	-0.3883	0.2285	0.5603	-0.6950
2.8	0.9906	-9.3544	3.2021	-0.0032	0.0191	-0.0153	10.8298	11.3517	-8.1899	-0.3884	0.2285	0.5604	-0.6951
2.81	1.0022	-9.3536	3.1977	0.0022	0.0180	-0.0129	10.8394	11.3010	-8.1770	-0.3883	0.2285	0.5603	-0.6950
2.82	1.0160	-9.3622	3.1984	-0.0030	0.0039	-0.0235	10.8538	11.3379	-8.1855	-0.3883	0.2285	0.5603	-0.6950
2.83	1.0290	-9.3708	3.1969	-0.0067	0.0042	-0.0230	10.7889	11.1161	-8.1765	-0.3883	0.2284	0.5604	-0.6950
2.84	1.0351	-9.3740	3.1925	0.0016	0.0063	-0.0200	10.7338	11.2903	-8.1752	-0.3883	0.2284	0.5603	-0.6950
2.85	1.0369	-9.3901	3.1863	-0.0015	-0.0025	-0.0225	10.6655	11.6398	-8.2971	-0.3883	0.2283	0.5604	-0.6951
2.86	1.0399	-9.3916	3.1873	-0.0029	-0.0044	-0.0154	10.6491	11.5398	-7.9703	-0.3883	0.2283	0.5604	-0.6950
2.87	1.0539	-9.4008	3.1972	-0.0011	-0.0031	-0.0100	10.4639	11.4310	-8.0883	-0.3882	0.2282	0.5605	-0.6951
2.88	1.0663	-9.4035	3.2021	-0.0027	-0.0096	-0.0096	10.6605	11.3148	-8.0806	-0.3881	0.2282	0.5605	-0.6950
2.89	1.0708	-9.3925	3.2018	0.0007	-0.0076	-0.0062	10.6856	11.4336	-8.1248	-0.3880	0.2281	0.5605	-0.6952
2.9	1.0714	-9.3684	3.1959	-0.0010	-0.0149	-0.0041	10.7937	11.5709	-8.3637	-0.3879	0.2281	0.5606	-0.6952
2.91	1.0703	-9.3794	3.1949	-0.0011	-0.0173	-0.0079	10.6535	11.5431	-8.1028	-0.3878	0.2280	0.5606	-0.6952
2.92	1.0750	-9.4284	3.2092	-0.0013	-0.0041	-0.0070	10.6696	11.2713	-7.9739	-0.3877	0.2280	0.5606	-0.6953
2.93	1.0914	-9.4253	3.2217	0.0112	-0.0118	-0.0055	10.7842	11.3665	-8.1584	-0.3876	0.2279	0.5606	-0.6954
2.94	1.1130	-9.4092	3.2187	0.0213	-0.0144	-0.0110	10.7271	11.2321	-8.1735	-0.3875	0.2278	0.5606	-0.6955
2.95	1.1371	-9.3559	3.2094	0.0171	-0.0029	-0.0151	10.8416	11.2444	-8.2729	-0.3875	0.2276	0.5605	-0.6955
2.96	1.1514	-9.3294	3.2199	0.0152	0.0075	-0.0183	10.9550	11.1998	-8.1589	-0.3875	0.2276	0.5605	-0.6956
2.97	1.1426	-9.3358	3.2311	0.0157	0.0119	-0.0061	11.0482	11.1701	-8.0253	-0.3875	0.2276	0.5604	-0.6957
2.98	1.1044	-9.3515	3.2328	0.0076	0.0237	-0.0084	11.0141	11.3215	-7.9235	-0.3875	0.2276	0.5604	-0.6957
2.99	1.0661	-9.3516	3.2364	0.0030	0.0308	-0.0043	11.4733	11.4436	-7.8792	-0.3875	0.2277	0.5603	-0.6957
3	1.0335	-9.3528	3.2339	0.0067	0.0248	-0.0108	11.7875	11.5126	-7.8473	-0.3875	0.2278	0.5603	-0.6957
3.01	1.0314	-9.3579	3.2231	0.0077	0.0213	-0.0127	10.8917	11.2773	-8.0208	-0.3876	0.2278	0.5602	-0.6958
3.02	1.0357	-9.3559	3.2243	0.0073	0.0186	-0.0167	10.8299	11.1016	-8.1295	-0.3875	0.2278	0.5601	-0.6957
3.03	1.0445	-9.3601	3.2259	-0.0001	0.0235	-0.0224	10.7743	11.2973	-8.2615	-0.3876	0.2278	0.5602	-0.6958
3.04	1.0452	-9.3593	3.2149	-0.0001	0.0230	-0.0175	10.7220	11.3813	-7.9462	-0.3876	0.2278	0.5601	-0.6958
3.05	1.0367	-9.3578	3.2158	-0.0019	0.0245	-0.0232	10.6386	11.2706	-8.3048	-0.3877	0.2279	0.5602	-0.6958
3.06	1.0342	-9.3580	3.2057	-0.0013	0.0134	-0.0213	10.7663	11.3978	-8.0243	-0.3877	0.2278	0.5601	-0.6957
3.07	1.0339	-9.3671	3.1986	-0.0014	0.0163	-0.0222	10.8851	11.6708	-8.0292	-0.3878	0.2278	0.5601	-0.6957
3.08	1.0427	-9.3877	3.2047	-0.0015	0.0187	-0.0169	10.7915	11.3671	-8.2132	-0.3878	0.2279	0.5601	-0.6957
3.09	1.0477	-9.3876	3.2056	-0.0007	0.0140	-0.0215	10.6785	11.3400	-8.1490	-0.3878	0.2278	0.5601	-0.6957
3.1	1.0536	-9.3798	3.2054	-0.0024	0.0180	-0.0152	10.6515	11.6197	-8.1706	-0.3878	0.2279	0.5601	-0.6957
3.11	1.0581	-9.3860	3.2060	0.0017	0.0070	-0.0127	10.7220	11.5546	-7.9020	-0.3878	0.2278	0.5601	-0.6957
3.12	1.0542	-9.3799	3.2109	0.0025	0.0062	-0.0085	10.7535	11.3226	-8.1209	-0.3878	0.2278	0.5601	-0.6958
3.13	1.0508	-9.3724	3.2112	0.0046	0.0139	-0.0068	10.8535	11.3756	-8.3059	-0.3877	0.2278	0.5600	-0.6957
3.14	1.0544	-9.3827	3.2199	0.0010	0.0183	-0.0091	10.9397	11.5262	-8.0749	-0.3877	0.2279	0.5600	-0.6958
3.15	1.0562	-9.3904	3.2146	0.0029	0.0171	-0.0071	10.8134	11.2802	-8.1709	-0.3877	0.2279	0.5600	-0.6958
3.16	1.0549	-9.3950	3.2135	0.0036	0.0068	-0.0036	10.8704	11.4028	-8.3086	-0.3876	0.2279	0.5600	-0.6959
3.17	1.0570	-9.4056	3.2160	0.0049	0.0188	-0.0067	10.8295	11.3901	-8.1263	-0.3876	0.2280	0.5599	-0.6959
3.18	1.0554	-9.4104	3.2058	0.0051	0.0205	-0.0042	10.8822	11.2932	-8.1775	-0.3876	0.2280	0.5599	-0.6959
3.19	1.0529	-9.4145	3.2091	0.0071	0.0163	-0.0042	10.9598	11.5012	-8.1506	-0.3876	0.2280	0.5598	-0.6960
3.2	1.0543	-9.4102	3.2138	0.0185	0.0126	-0.0073	10.5015	11.4728	-8.1884	-0.3875	0.2280	0.5597	-0.6960
3.21	1.0398	-9.3987	3.2189	0.0136	0.0142	-0.0083	10.8915	11.2928	-8.0247	-0.3876	0.2280	0.5597	-0.6961
3.22	1.0228	-9.3849	3.2160	0.0225	0.0200	-0.0034	10.5359	11.6096	-8.1391	-0.3875	0.2280	0.5596	-0.6962
3.23	1.0063	-9.3838	3.2223	0.0229	0.0205	-0.0039	10.6338	11.4702	-8.1762	-0.3876	0.2281	0.5595	-0.6963
3.24	0.9963	-9.3762	3.2258	0.0196	0.0209	-0.0141	10.6592	11.4983	-8.1718	-0.3876	0.2280	0.5594	-0.6963
3.25	0.9988	-9.3698	3.2304	0.0171	0.0207	-0.0135	10.8786	11.3192	-8.1513	-0.3876	0.2280	0.5593	-0.6964
3.26	1.0016	-9.3714	3.2395	0.0252	0.0238	-0.0196	10.8497	11.3599	-8.2185	-0.3877	0.2280	0.5592	-0.6964
3.27	1.0047	-9.3648	3.2446	0.0235	0.0181	-0.0198	10.7339	11.4024	-8.3014	-0.3877	0.2280	0.5590	-0.6964
3.28	1.0037	-9.3546	3.2506	0.0251	0.0169	-0.0187	10.6477	11.3034	-8.0032	-0.3878	0.2280	0.5590	-0.6966
3.29	1.0035	-9.3425	3.2542	0.0224	0.0206	-0.0237	10.4495	11.4268	-8.1610	-0.3879	0.2279	0.5589	-0.6966
3.3	1.0047	-9.3473	3.2585	0.0207	0.0103	-0.0193	10.7180	11.3806	-8.1058	-0.3879	0.2279	0.5589	-0.6967
3.31	1.0153	-9.3484	3.2567	0.0223	0.0092	-0.0123	10.6234	11.3970	-7.9620	-0.3879	0.2278	0.5587	-0.6967
3.32	1.0235	-9.3428	3.2531	0.0238	0.0121	-0.0187	10.9770	11.5206	-8.1098	-0.3879	0.2277	0.5587	-0.6968
3.33	1.0286	-9.3303	3.2535	0.0225	0.0017	-0.0184	11.0038	11.2443	-8.0426	-0.3879	0.2276	0.5586	-0.6969
3.34	1.0430	-9.3243	3.2506	0.0219	0.0041	-0.0185	10.8390	11.2230	-8.1451	-0.3879	0.2275	0.5585	-0.6969
3.35	1.0500	-9.3226	3.2561	0.0198	-0.0042	-0.0151	10.7413	11.1956	-8.2761	-0.3880	0.2275	0.5585	-0.6971
3.36	1.0528	-9.3180	3.2516	0.0171	-0.0069	-0.0133	10.6505	11.2866	-8.3598	-0.3879	0.2273	0.5583	-0.6972
3.37	1.0518	-9.3175	3.2574	0.0187	-0.0061	-0.0122	10.8928	11.4610	-8.0850	-0.3880	0.2272	0.5581	-0.6975
3.38	1.0592	-9.3274	3.2657	0.0087	-0.0037	-0.0168	10.7300	11.2023	-8.0472	-0.3879	0.2270	0.5579	-0.6975
3.39	1.0749	-9.3327	3.2705	0.0201	-0.0048	-0.0158	10.6881	11.2048	-8.3248	-0.3880	0.2269	0.5578	-0.6978
3.4	1.0796	-9.3135	3.2658	0.0157	-0.0019	-0.0152	10.9486	11.2792	-8.1616	-0.3880	0.2268	0.5576	-0.6979
3.41	1.0836	-9.3248	3.2655	-0.0024	-0.0026	-0.0183	10.8969	11.3032	-8.2340	-0.3880	0.2267	0.5575	-0.6980
3.42	1.0811	-9.3510	3.2694	0.0002	0.0033	-0.0131	10.5957	11.4159	-8.2758	-0.3879	0.2267	0.5575	-0.6981
3.43	1.0785	-9.3389	3.2602	0.0035	-0.0011	-0.0165	10.7901	11.4773	-8.0969	-0.3879	0.2266	0.5575	-0.6981
3.44	1.0733	-9.3347	3.2578	0.0031	-0.0031	-0.0063	10.7823	11.5597	-8.0924	-0.3879	0.2265	0.5573	-0.6983
3.45	1.0789	-9.3340	3.2626	0.0002	-0.0011	-0.0063	10.5193	11.4922	-8.4033	-0.3878	0.2264	0.5571	-0.6984
3.46	1.0991	-9.3433	3.2644	-0.0005	-0.0084	-0.0090	10.8539	11.3707	-8.1808	-0.3878	0.2264	0.5572	-0.6985
3.47	1.1136	-9.3657	3.2694	-0.0014	-0.0035	-0.0072	10.8151	11.3933	-8.2181	-0.3877	0.2264	0.5572	-0.6985
3.48	1.1274	-9.3892	3.2736	-0.0017	0.0053	-0.0124	10.6940	11.4477	-8.2197	-0.3877	0.2264	0.5573	-0.6986
3.49	1.1310	-9.3939	3.2687	0.0032	0.0044	-0.0061	11.0776	11.5296	-7.9525	-0.3876	0.2263	0.5572	-0.6986
3.5	1.1304	-9.3689	3.2664	0.0065	0.0102	-0.0078	11.5282	11.3068	-7.8558	-0.3876	0.2263	0.5572	-0.6986
3.51	1.1170	-9.3456	3.2647	0.0041	0.0180	-0.0119	11.2668	10.9129	-8.1212	-0.3876	0.2264	0.5572	-0.6987
3.52	1.0985	-9.3267	3.2683	0.0060	0.0213	-0.0078	10.9798	11.0737	-8.1692	-0.3875	0.2264	0.5571	-0.6986
3.53	1.0689	-9.3206	3.2582	0.0116	0.0311	-0.0077	10.7871	11.1686	-8.1933	-0.3876	0.2265	0.5571	-0.6987
3.54	1.0259	-9.3230	3.2529	-0.0005	0.0312	-0.0088	10.8250	11.1664	-8.2871	-0.3876	0.2265	0.5570	-0.6987
3.55	0.9944	-9.3341	3.2542	-0.0014	0.0336	-0.0117	10.5727	11.3500	-8.0757	-0.3877	0.2266	0.5570	-0.6987
3.56	0.9821	-9.3431	3.2425	-0.0038	0.0198	-0.0145	10.8805	11.1564	-8.1097	-0.3877	0.2266	0.5569	-0.6986
3.57	0.9895	-9.3543	3.2341	-0.0047	0.0182	-0.0141	10.7108	11.1178	-8.0820	-0.3877	0.2267	0.5570	-0.6987
3.58	1.0018	-9.3597	3.2320	-0.0008	0.0106	-0.0163	10.8662	11.0729	-8.1000	-0.3877	0.2267	0.5570	-0.6987
3.59	1.0255	-9.3741	3.2302	-0.0021	0.0107	-0.0156	10.7728	11.3250	-8.0889	-0.3877	0.2267	0.5569	-0.6986
3.6	1.0320	-9.3751	3.2240	-0.0001	0.0092	-0.0168	10.5074	11.4419	-8.1242	-0.3877	0.2267	0.5570	-0.6987
3.61	1.0424	-9.3830	3.2292	-0.0001	0.0069	-0.0146	10.8128	11.5110	-8.0711	-0.3876	0.2266	0.5570	-0.6987
3.62	1.0314	-9.3702	3.2352	0.0009	0.0087	-0.0148	10.6406	11.3084	-7.9667	-0.3877	0.2266	0.5570	-0.6987
3.63	1.0303	-9.3564	3.2379	0.0047	-0.0004	-0.0050	10.5478	11.4214	-8.1280	-0.3875	0.2266	0.5569	-0.6987
3.64	1.0487	-9.3629	3.2404	0.0023	-0.0030	-0.0066	10.4436	11.5330	-8.0835	-0.3875	0.2266	0.5570	-0.6988
3.65	1.0609	-9.4017	3.2460	0.0030	-0.0007	-0.0086	10.6347	11.4689	-8.1571	-0.3874	0.2265	0.5570	-0.6988
3.66	1.0797	-9.3861	3.2412	0.0089	-0.0032	-0.0044	10.6380	11.2960	-8.2212	-0.3874	0.2265	0.5570	-0.6989
3.67	1.0824	-9.3447	3.2328	0.0113	-0.0056	-0.0054	10.6255	11.5402	-8.0794	-0.3873	0.2264	0.5570	-0.6990
3.68	1.0893	-9.3910	3.2391	0.0051	-0.0049	-0.0070	10.6615	11.4626	-8.1224	-0.3872	0.2264	0.5569	-0.6990
3.69	1.0888	-9.4190	3.2469	0.0111	0.0042	-0.0040	10.7807	11.1811	-8.0707	-0.3872	0.2263	0.5569	-0.6991
3.7	1.0992	-9.4316	3.2570	0.0145	0.0035	-0.0050	10.9183	11.0551	-8.1940	-0.3871	0.2263	0.5568	-0.6991
3.71	1.1068	-9.4013	3.2559	0.0188	0.0160	-0.0043	10.8744	11.1756	-8.2856	-0.3871	0.2263	0.5568	-0.6993
3.72	1.1119	-9.3430	3.2575	0.0237	0.0197	-0.0119	10.9685	11.1445	-8.1153	-0.3871	0.2263	0.5567	-0.6993
3.73	1.1076	-9.3165	3.2614	0.0243	0.0326	-0.0059	10.9344	11.1717	-8.0709	-0.3872	0.2263	0.5566	-0.6994
3.74	1.0782	-9.3195	3.2632	0.0226	0.0342	-0.0076	10.7956	11.1239	-8.2180	-0.3872	0.2264	0.5564	-0.6994
3.75	1.0434	-9.3412	3.2721	0.0148	0.0330	-0.0054	10.8114	11.3250	-8.1507	-0.3873	0.2264	0.5563	-0.6995
3.76	1.0062	-9.3629	3.2731	0.0200	0.0396	-0.0076	10.8639	11.0519	-8.0899	-0.3873	0.2265	0.5562	-0.6995
3.77	0.9837	-9.3642	3.2763	0.0239	0.0317	-0.0078	10.9386	10.9183	-8.0721	-0.3874	0.2265	0.5560	-0.6995
3.78	0.9758	-9.3596	3.2779	0.0237	0.0380	-0.0131	10.6662	11.3223	-8.2473	-0.3875	0.2266	0.5559	-0.6997
3.79	0.9781	-9.3466	3.2772	0.0252	0.0375	-0.0204	10.6384	11.3273	-8.2495	-0.3876	0.2266	0.5558	-0.6997
3.8	0.9910	-9.3267	3.2885	0.0218	0.0296	-0.0174	10.6256	11.3213	-8.1775	-0.3877	0.2267	0.5557	-0.6998
3.81	0.9901	-9.3081	3.2951	0.0206	0.0276	-0.0171	10.7350	11.4151	-8.1976	-0.3877	0.2266	0.5555	-0.6997
3.82	0.9771	-9.2906	3.2937	0.0182	0.0214	-0.0136	10.7321	11.5473	-8.0943	-0.3878	0.2267	0.5555	-0.6998
3.83	0.9642	-9.2879	3.2944	0.0123	0.0243	-0.0217	10.8859	11.4477	-8.0752	-0.3878	0.2266	0.5553	-0.6999
3.84	0.9707	-9.2943	3.2927	0.0100	0.0130	-0.0185	10.6018	11.3403	-8.2151	-0.3879	0.2266	0.5551	-0.7000
3.85	0.9741	-9.2980	3.2955	-0.0032	0.0105	-0.0129	10.7733	11.3006	-8.0475	-0.3880	0.2266	0.5551	-0.7002
3.86	0.9858	-9.3052	3.2915	-0.0022	0.0120	-0.0115	10.7757	11.3976	-8.0515	-0.3879	0.2265	0.5549	-0.7002
3.87	0.9985	-9.3223	3.2881	-0.0067	0.0088	-0.0120	10.7552	11.3330	-8.0849	-0.3880	0.2265	0.5548	-0.7003
3.88	1.0249	-9.3412	3.2790	-0.0082	-0.0012	-0.0116	10.9342	11.0117	-8.2979	-0.3879	0.2264	0.5548	-0.7003
3.89	1.0479	-9.3568	3.2755	-0.0023	0.0016	-0.0113	10.7708	11.2210	-8.2314	-0.3879	0.2264	0.5548	-0.7003
3.9	1.0545	-9.3661	3.2747	-0.0098	-0.0009	-0.0098	11.0195	11.2377	-8.2480	-0.3878	0.2264	0.5549	-0.7003
3.91	1.0561	-9.3613	3.2768	-0.0059	0.0030	-0.0075	10.8931	11.2712	-8.2137	-0.3877	0.2264	0.5549	-0.7003
3.92	1.0546	-9.3567	3.2749	-0.0008	0.0078	-0.0050	10.9177	11.1213	-8.1843	-0.3877	0.2264	0.5549	-0.7004
3.93	1.0506	-9.3465	3.2779	-0.0021	0.0141	-0.0044	10.8560	10.9480	-8.4136	-0.3876	0.2265	0.5549	-0.7004
3.94	1.0401	-9.3413	3.2752	-0.0006	0.0197	-0.0047	10.7906	11.2167	-8.1234	-0.3876	0.2265	0.5549	-0.7004
3.95	1.0232	-9.3384	3.2712	-0.0017	0.0225	-0.0052	10.8181	11.3469	-7.9737	-0.3875	0.2266	0.5548	-0.7004
3.96	1.0071	-9.3585	3.2816	-0.0075	0.0283	-0.0072	10.8146	11.3223	-8.2810	-0.3876	0.2267	0.5549	-0.7004
3.97	0.9790	-9.3938	3.2658	-0.0157	0.0226	-0.0094	10.6438	11.3444	-8.2130	-0.3876	0.2267	0.5549	-0.7004
3.98	0.9688	-9.4106	3.2657	-0.0014	0.0345	-0.0084	10.9568	11.2982	-7.9865	-0.3876	0.2268	0.5548	-0.7004
3.99	0.9673	-9.4027	3.2652	-0.0009	0.0254	-0.0193	11.0957	11.4695	-7.9229	-0.3876	0.2269	0.5548	-0.7003
4	0.9767	-9.3884	3.2658	0.0017	0.0203	-0.0131	11.2603	11.4706	-7.7962	-0.3877	0.2269	0.5548	-0.7003
4.01	0.9825	-9.3700	3.2630	0.0024	0.0253	-0.0171	10.9476	11.2188	-7.9196	-0.3877	0.2269	0.5548	-0.7003
4.02	0.9821	-9.3528	3.2762	0.0055	0.0236	-0.0177	10.7719	11.2470	-7.9467	-0.3877	0.2269	0.5547	-0.7003
4.03	0.9823	-9.3321	3.2901	0.0023	0.0215	-0.0187	10.9818	11.1231	-8.0810	-0.3878	0.2270	0.5547	-0.7004
4.04	0.9819	-9.3123	3.2891	-0.0046	0.0211	-0.0162	11.0286	11.2933	-8.0554	-0.3878	0.2270	0.5547	-0.7003
4.05	0.9724	-9.3132	3.2964	0.0014	0.0213	-0.0110	10.7254	11.3411	-8.1304	-0.3878	0.2271	0.5547	-0.7004
4.06	0.9645	-9.3169	3.2958	-0.0008	0.0158	-0.0171	10.8571	11.1149	-8.2747	-0.3878	0.2270	0.5546	-0.7003
4.07	0.9643	-9.3318	3.2888	-0.0010	0.0133	-0.0184	11.0250	11.1397	-8.3539	-0.3878	0.2271	0.5547	-0.7003
4.08	0.9674	-9.3373	3.2838	-0.0011	0.0134	-0.0106	10.8881	11.1251	-8.1587	-0.3878	0.2271	0.5547	-0.7003
4.09	0.9811	-9.3314	3.2831	-0.0058	0.0100	-0.0145	10.9446	11.2001	-8.1697	-0.3878	0.2271	0.5546	-0.7002
4.1	0.9872	-9.3343	3.2811	-0.0088	0.0048	-0.0147	10.8357	11.3458	-8.1453	-0.3878	0.2270	0.5546	-0.7004
4.11	0.9968	-9.3467	3.2746	-0.0185	0.0086	-0.0151	10.6532	11.2728	-8.0493	-0.3878	0.2270	0.5546	-0.7004
4.12	0.9985	-9.3481	3.2736	-0.0071	0.0079	-0.0147	10.7747	11.4100	-8.1158	-0.3878	0.2270	0.5547	-0.7004
4.13	0.9980	-9.3500	3.2685	-0.0054	0.0054	-0.0154	10.9496	11.3094	-8.3105	-0.3877	0.2270	0.5546	-0.7003
4.14	0.9963	-9.3594	3.2663	-0.0062	-0.0039	-0.0199	10.8021	11.2004	-8.0417	-0.3877	0.2270	0.5547	-0.7004
4.15	1.0050	-9.3629	3.2624	-0.0014	-0.0051	-0.0169	10.8514	11.4192	-8.0429	-0.3876	0.2269	0.5547	-0.7004
4.16	1.0220	-9.3670	3.2761	-0.0015	-0.0010	-0.0266	10.8496	11.6246	-8.0001	-0.3876	0.2268	0.5548	-0.7004
4.17	1.0369	-9.3907	3.2854	-0.0027	-0.0025	-0.0184	10.7230	11.3418	-8.0023	-0.3876	0.2268	0.5548	-0.7004
4.18	1.0420	-9.4150	3.2919	0.0013	-0.0070	-0.0151	10.7766	11.3434	-8.0400	-0.3875	0.2267	0.5549	-0.7004
4.19	1.0314	-9.4143	3.2948	-0.0013	-0.0021	-0.0163	10.8655	11.3843	-8.0242	-0.3875	0.2266	0.5549	-0.7004
4.2	1.0315	-9.4087	3.2803	0.0072	-0.0040	-0.0131	10.8146	11.1760	-8.0832	-0.3874	0.2266	0.5549	-0.7004
4.21	1.0417	-9.4021	3.2751	0.0132	-0.0057	-0.0151	10.8585	11.3703	-8.0910	-0.3874	0.2265	0.5549	-0.7005
4.22	1.0540	-9.3830	3.2824	0.0133	-0.0085	-0.0146	10.8076	11.3791	-8.1542	-0.3873	0.2264	0.5549	-0.7006
4.23	1.0768	-9.3804	3.2959	0.0238	-0.0025	-0.0138	10.9339	11.2008	-8.0211	-0.3873	0.2263	0.5549	-0.7007
4.24	1.0932	-9.3822	3.3068	0.0226	-0.0075	-0.0163	10.8267	11.3229	-8.1917	-0.3873	0.2262	0.5548	-0.7007
4.25	1.1025	-9.3680	3.3155	0.0302	0.0001	-0.0093	10.6012	11.4274	-8.1579	-0.3872	0.2261	0.5547	-0.7009
4.26	1.1121	-9.3304	3.3212	0.0382	-0.0010	-0.0148	10.7194	11.1577	-8.1778	-0.3873	0.2260	0.5546	-0.7010
4.27	1.1189	-9.2724	3.3318	0.0357	0.0083	-0.0188	10.8218	11.1268	-8.4742	-0.3872	0.2258	0.5545	-0.7010
4.28	1.1182	-9.2282	3.3438	0.0267	0.0193	-0.0156	10.9471	11.1316	-8.2850	-0.3873	0.2258	0.5544	-0.7012
4.29	1.1028	-9.1892	3.3382	0.0245	0.0150	-0.0169	10.8927	11.1662	-8.1318	-0.3874	0.2258	0.5543	-0.7012
4.3	1.0742	-9.1618	3.3323	0.0098	0.0306	-0.0076	10.7410	11.2962	-8.4206	-0.3874	0.2259	0.5543	-0.7013
4.31	1.0312	-9.1650	3.3150	0.0010	0.0296	-0.0076	10.7506	11.4120	-8.5771	-0.3874	0.2259	0.5540	-0.7013
4.32	0.9915	-9.1999	3.3092	-0.0115	0.0296	-0.0102	10.7327	11.2554	-8.2236	-0.3875	0.2260	0.5539	-0.7014
4.33	0.9704	-9.2431	3.2973	-0.0224	0.0192	-0.0085	10.9599	11.4078	-8.0151	-0.3875	0.2260	0.5539	-0.7014
4.34	0.9586	-9.2813	3.2809	-0.0279	0.0099	-0.0042	10.7500	11.3036	-8.1655	-0.3874	0.2260	0.5538	-0.7014
4.35	0.9599	-9.3153	3.2703	-0.0262	0.0039	-0.0062	10.7529	11.3374	-8.2849	-0.3874	0.2261	0.5538	-0.7016
4.36	0.9624	-9.3438	3.2641	-0.0323	0.0029	-0.0045	10.8575	11.3781	-8.2155	-0.3873	0.2261	0.5538	-0.7015
4.37	0.9748	-9.3744	3.2549	-0.0359	-0.0010	-0.0080	10.8349	11.2930	-8.1424	-0.3872	0.2262	0.5540	-0.7015
4.38	0.9871	-9.3890	3.2479	-0.0331	-0.0021	-0.0091	10.7453	11.3089	-8.1907	-0.3871	0.2262	0.5541	-0.7014
4.39	0.9881	-9.4144	3.2417	-0.0395	-0.0037	-0.0070	10.7469	11.2289	-7.9052	-0.3870	0.2262	0.5543	-0.7013
4.4	0.9953	-9.4363	3.2368	-0.0280	-0.0079	-0.0119	10.9125	11.4976	-8.0874	-0.3869	0.2262	0.5544	-0.7013
4.41	1.0070	-9.4522	3.2234	-0.0238	-0.0037	-0.0078	10.9326	11.2039	-8.2831	-0.3868	0.2262	0.5545	-0.7012
4.42	1.0171	-9.4560	3.2111	-0.0261	-0.0053	-0.0100	10.8268	11.2295	-8.1369	-0.3867	0.2262	0.5547	-0.7012
4.43	1.0260	-9.4613	3.2015	-0.0116	-0.0084	-0.0158	10.6969	11.4759	-8.0651	-0.3866	0.2262	0.5547	-0.7012
4.44	1.0292	-9.4541	3.1936	-0.0036	-0.0120	-0.0077	10.8683	11.2492	-8.0639	-0.3865	0.2261	0.5548	-0.7012
4.45	1.0121	-9.4310	3.1880	-0.0019	-0.0040	-0.0108	11.0408	11.2053	-8.1575	-0.3864	0.2261	0.5548	-0.7012
4.46	1.0137	-9.4583	3.2014	-0.0020	-0.0031	-0.0123	10.9978	11.2367	-8.0633	-0.3864	0.2260	0.5549	-0.7013
4.47	1.0116	-9.4420	3.2165	0.0070	-0.0049	-0.0088	11.0410	11.2216	-8.2276	-0.3863	0.2260	0.5549	-0.7013
4.48	1.0157	-9.3938	3.2361	0.0227	-0.0053	-0.0040	10.9764	11.5034	-8.0062	-0.3862	0.2259	0.5548	-0.7014
4.49	1.0230	-9.3353	3.2438	0.0242	0.0025	-0.0108	11.2334	11.3936	-7.8770	-0.3862	0.2258	0.5547	-0.7015
4.5	1.0310	-9.2839	3.2562	0.0229	-0.0035	-0.0045	11.6769	11.1735	-7.6388	-0.3861	0.2258	0.5547	-0.7016
4.51	1.0154	-9.2577	3.2626	0.0118	-0.0016	-0.0104	11.1096	11.2467	-7.9997	-0.3861	0.2257	0.5547	-0.7017
4.52	0.9895	-9.2566	3.2674	-0.0018	0.0072	-0.0056	10.9155	11.2016	-8.2558	-0.3860	0.2257	0.5546	-0.7016
4.53	0.9659	-9.2833	3.2702	-0.0138	0.0066	-0.0130	10.8240	11.2582	-8.4059	-0.3860	0.2257	0.5548	-0.7017
4.54	0.9536	-9.3122	3.2611	-0.0216	0.0123	-0.0136	10.5565	11.3007	-8.2914	-0.3859	0.2258	0.5548	-0.7016
4.55	0.9470	-9.3419	3.2428	-0.0251	0.0069	-0.0103	10.6236	11.3765	-8.0814	-0.3859	0.2258	0.5549	-0.7016
4.56	0.9583	-9.3557	3.2270	-0.0261	0.0031	-0.0191	10.7729	11.4058	-8.0912	-0.3858	0.2258	0.5550	-0.7015
4.57	0.9691	-9.3667	3.2228	-0.0270	0.0018	-0.0217	10.8440	11.3975	-8.1317	-0.3858	0.2258	0.5551	-0.7014
4.58	0.9810	-9.3687	3.2172	-0.0276	0.0089	-0.0301	10.8484	11.3796	-8.3807	-0.3858	0.2258	0.5553	-0.7013
4.59	0.9820	-9.3727	3.2034	-0.0261	0.0090	-0.0295	10.8109	11.4834	-8.0613	-0.3858	0.2258	0.5554	-0.7012
4.6	0.9753	-9.3901	3.1925	-0.0228	0.0183	-0.0308	10.9828	11.4003	-8.2358	-0.3859	0.2258	0.5555	-0.7012
4.61	0.9748	-9.3961	3.1922	-0.0234	0.0081	-0.0214	10.8271	11.1057	-7.9562	-0.3858	0.2258	0.5556	-0.7010
4.62	0.9674	-9.4051	3.1960	-0.0257	0.0044	-0.0207	10.7513	11.0138	-7.9280	-0.3858	0.2259	0.5557	-0.7010
4.63	0.9577	-9.4107	3.1850	-0.0188	0.0045	-0.0207	11.0457	11.1602	-8.1243	-0.3857	0.2258	0.5557	-0.7009
4.64	0.9474	-9.4474	3.1858	-0.0181	-0.0045	-0.0176	11.1241	11.0024	-8.0594	-0.3857	0.2258	0.5559	-0.7009
4.65	0.9516	-9.4960	3.1696	-0.0086	-0.0105	-0.0117	10.8871	11.1364	-8.2935	-0.3856	0.2258	0.5560	-0.7009
4.66	0.9568	-9.5143	3.1550	-0.0006	-0.0205	-0.0134	10.8124	11.3573	-8.1965	-0.3855	0.2257	0.5560	-0.7009
4.67	0.9702	-9.5108	3.1629	0.0048	-0.0194	-0.0162	10.8564	11.1740	-8.0944	-0.3854	0.2255	0.5561	-0.7010
4.68	0.9908	-9.4932	3.1701	0.0233	-0.0246	-0.0085	10.9564	11.2862	-8.2025	-0.3853	0.2254	0.5561	-0.7011
4.69	1.0080	-9.4870	3.1743	0.0223	-0.0273	-0.0084	10.8685	11.2613	-7.9740	-0.3852	0.2252	0.5561	-0.7012
4.7	1.0418	-9.4807	3.1782	0.0259	-0.0316	-0.0066	10.8112	11.1910	-8.0994	-0.3850	0.2250	0.5560	-0.7013
4.71	1.0689	-9.4627	3.1938	0.0232	-0.0283	-0.0054	10.9887	11.3559	-8.1008	-0.3849	0.2249	0.5561	-0.7015
4.72	1.0887	-9.4467	3.2067	0.0368	-0.0226	-0.0106	10.8321	11.5918	-8.0953	-0.3848	0.2247	0.5560	-0.7016
4.73	1.0962	-9.4150	3.2194	0.0504	-0.0186	-0.0125	10.6630	11.4807	-8.1136	-0.3848	0.2245	0.5559	-0.7018
4.74	1.0831	-9.3885	3.2295	0.0453	-0.0108	-0.0156	10.5584	11.5916	-8.0858	-0.3848	0.2243	0.5558	-0.7019
4.75	1.0775	-9.3723	3.2430	0.0488	-0.0054	-0.0145	10.7333	11.5492	-8.1435	-0.3848	0.2242	0.5556	-0.7021
4.76	1.0582	-9.3608	3.2498	0.0518	-0.0029	-0.0161	10.9029	11.4478	-8.1969	-0.3848	0.2240	0.5555	-0.7023
4.77	1.0461	-9.3471	3.2593	0.0477	-0.0036	-0.0207	10.7144	11.2046	-8.1884	-0.3848	0.2238	0.5553	-0.7024
4.78	1.0456	-9.3462	3.2750	0.0506	-0.0041	-0.0145	10.6813	11.3453	-8.1684	-0.3848	0.2237	0.5553	-0.7026
4.79	1.0443	-9.3402	3.2865	0.0467	-0.0035	-0.0168	10.8887	11.3864	-8.2366	-0.3848	0.2235	0.5551	-0.7027
4.8	1.0459	-9.3314	3.2959	0.0474	-0.0075	-0.0077	10.5236	11.2197	-8.0579	-0.3848	0.2234	0.5550	-0.7029
4.81	1.0393	-9.3106	3.3003	0.0491	-0.0037	-0.0104	10.7728	11.1323	-8.3261	-0.3847	0.2233	0.5548	-0.7030
4.82	1.0284	-9.2744	3.3123	0.0454	-0.0052	-0.0150	10.9627	11.0111	-8.4267	-0.3848	0.2231	0.5547	-0.7032
4.83	1.0318	-9.2706	3.3264	0.0382	-0.0057	-0.0195	10.7173	10.9140	-8.2423	-0.3848	0.2230	0.5546	-0.7033
4.84	1.0269	-9.2562	3.3286	0.0298	-0.0099	-0.0172	10.8365	11.1087	-8.5202	-0.3847	0.2228	0.5545	-0.7034
4.85	1.0297	-9.2620	3.3343	0.0245	-0.0102	-0.0136	10.8382	11.3506	-8.2256	-0.3847	0.2227	0.5546	-0.7036
4.86	1.0322	-9.2720	3.3348	0.0224	-0.0047	-0.0174	10.7055	10.9913	-8.2983	-0.3847	0.2226	0.5544	-0.7036
4.87	1.0302	-9.2813	3.3292	0.0228	-0.0094	-0.0139	10.8211	11.1891	-8.2429	-0.3847	0.2225	0.5543	-0.7038
4.88	1.0322	-9.2918	3.3244	0.0208	-0.0146	-0.0128	10.8446	11.2416	-8.3856	-0.3846	0.2223	0.5541	-0.7039
4.89	1.0404	-9.3020	3.3264	0.0205	-0.0151	-0.0175	10.8240	11.0863	-8.3597	-0.3846	0.2221	0.5540	-0.7042
4.9	1.0538	-9.3091	3.3325	0.0224	-0.0117	-0.0141	10.6781	11.1999	-8.1930	-0.3846	0.2220	0.5539	-0.7043
4.91	1.0711	-9.3014	3.3333	0.0208	-0.0178	-0.0166	10.6537	11.5294	-8.1954	-0.3845	0.2218	0.5537	-0.7045
4.92	1.0852	-9.2980	3.3371	0.0259	-0.0177	-0.0167	10.6729	11.2632	-8.1795	-0.3845	0.2216	0.5536	-0.7047
4.93	1.0992	-9.2826	3.3415	0.0139	-0.0151	-0.0167	10.7661	11.2422	-8.0675	-0.3845	0.2214	0.5535	-0.7048
4.94	1.1097	-9.2650	3.3462	0.0219	-0.0063	-0.0191	10.5409	11.5558	-8.1394	-0.3845	0.2213	0.5533	-0.7050
4.95	1.1136	-9.2713	3.3580	0.0083	-0.0066	-0.0153	10.6967	11.2707	-8.3865	-0.3845	0.2212	0.5532	-0.7051
4.96	1.1015	-9.2899	3.3590	-0.0007	-0.0050	-0.0128	10.5031	11.2361	-8.4649	-0.3845	0.2211	0.5531	-0.7053
4.97	1.0840	-9.2908	3.3443	0.0017	-0.0047	-0.0148	10.5393	11.4733	-8.4970	-0.3844	0.2210	0.5530	-0.7053
4.98	1.0801	-9.2932	3.3335	-0.0011	-0.0077	-0.0113	10.8277	11.2731	-8.3298	-0.3844	0.2209	0.5530	-0.7055
4.99	1.0836	-9.2927	3.3165	-0.0007	-0.0094	-0.0103	11.0257	11.4309	-8.0519	-0.3843	0.2208	0.5529	-0.7056
5	1.0915	-9.2981	3.3204	-0.0016	-0.0074	-0.0087	11.5455	11.5122	-8.0117	-0.3843	0.2208	0.5528	-0.7057
5.01	1.0975	-9.3270	3.3303	-0.0012	-0.0102	-0.0044	10.8204	11.1467	-8.3485	-0.3842	0.2207	0.5528	-0.7058
5.02	1.1025	-9.3551	3.3307	-0.0065	-0.0084	-0.0074	10.7125	11.0161	-8.2311	-0.3841	0.2206	0.5528	-0.7057
5.03	1.1093	-9.3540	3.3362	-0.0021	-0.0053	-0.0080	10.7463	11.1805	-8.2496	-0.3840	0.2206	0.5529	-0.7058
5.04	1.1082	-9.3415	3.3388	-0.0014	-0.0056	-0.0078	10.7866	11.2415	-8.5541	-0.3839	0.2206	0.5529	-0.7058
5.05	1.1095	-9.3182	3.3338	-0.0012	0.0051	-0.0085	10.5746	11.1947	-8.2318	-0.3839	0.2206	0.5530	-0.7059
5.06	1.1017	-9.2998	3.3238	-0.0018	0.0084	-0.0099	10.7320	11.3442	-8.2966	-0.3838	0.2206	0.5530	-0.7058
5.07	1.0807	-9.2977	3.3150	-0.0106	0.0158	-0.0044	11.1201	11.1563	-8.1692	-0.3838	0.2206	0.5530	-0.7059
5.08	1.0488	-9.3042	3.3091	-0.0128	0.0171	-0.0038	10.5294	11.1786	-8.2757	-0.3838	0.2207	0.5529	-0.7059
5.09	1.0202	-9.3120	3.2946	-0.0065	0.0125	-0.0045	10.7418	11.2377	-8.3717	-0.3837	0.2207	0.5528	-0.7060
5.1	1.0005	-9.3195	3.2847	-0.0267	0.0190	-0.0052	10.9385	11.2168	-8.3550	-0.3837	0.2208	0.5528	-0.7061
5.11	0.9965	-9.3231	3.2696	-0.0197	0.0179	-0.0029	10.6832	11.2056	-8.4334	-0.3837	0.2208	0.5527	-0.7061
5.12	0.9994	-9.3427	3.2686	-0.0174	0.0056	-0.0142	10.7969	11.2740	-8.2953	-0.3837	0.2209	0.5528	-0.7061
5.13	1.0016	-9.3638	3.2662	-0.0113	0.0101	-0.0132	10.6355	11.4122	-8.4648	-0.3836	0.2208	0.5527	-0.7060
5.14	0.9986	-9.3800	3.2588	-0.0132	0.0092	-0.0149	10.7875	11.3941	-8.4468	-0.3836	0.2209	0.5528	-0.7060
5.15	0.9978	-9.3910	3.2539	-0.0221	-0.0001	-0.0117	10.8900	11.5542	-8.2509	-0.3835	0.2209	0.5530	-0.7060
5.16	0.9991	-9.3979	3.2536	0.0001	-0.0034	-0.0129	10.9691	11.3115	-8.3622	-0.3834	0.2208	0.5530	-0.7060
5.17	1.0017	-9.4068	3.2537	-0.0046	-0.0095	-0.0130	10.6925	11.2157	-8.2181	-0.3834	0.2208	0.5531	-0.7060
5.18	1.0037	-9.4110	3.2662	-0.0013	-0.0075	-0.0090	10.8125	11.3422	-8.1877	-0.3833	0.2207	0.5531	-0.7060
5.19	1.0140	-9.4049	3.2716	-0.0009	-0.0080	-0.0110	10.8102	11.2581	-8.2736	-0.3832	0.2207	0.5532	-0.7061
5.2	1.0321	-9.3759	3.2778	0.0016	-0.0107	-0.0082	10.6138	11.1064	-8.3265	-0.3831	0.2206	0.5531	-0.7060
5.21	1.0447	-9.3588	3.2817	-0.0022	-0.0118	-0.0071	10.9074	11.1714	-8.4756	-0.3830	0.2206	0.5533	-0.7061
5.22	1.0419	-9.3290	3.2776	0.0036	-0.0053	-0.0036	10.7485	11.0423	-8.3963	-0.3829	0.2205	0.5533	-0.7061
5.23	1.0475	-9.3290	3.2827	0.0076	-0.0083	-0.0047	10.8139	11.1779	-8.2429	-0.3828	0.2205	0.5533	-0.7062
5.24	1.0563	-9.3586	3.2952	-0.0007	-0.0073	-0.0023	10.8587	11.3387	-8.2700	-0.3827	0.2204	0.5533	-0.7062
5.25	1.0660	-9.3420	3.2980	0.0058	-0.0076	-0.0046	10.6882	11.1908	-8.3535	-0.3826	0.2204	0.5533	-0.7063
5.26	1.0769	-9.3351	3.2920	0.0051	-0.0052	-0.0084	10.6402	11.2406	-8.1720	-0.3825	0.2203	0.5534	-0.7064
5.27	1.0971	-9.3225	3.2913	0.0119	-0.0101	-0.0039	10.7316	11.2180	-8.1414	-0.3824	0.2202	0.5533	-0.7064
5.28	1.0951	-9.3172	3.2964	0.0054	-0.0016	-0.0130	10.8786	11.3236	-8.3088	-0.3824	0.2202	0.5534	-0.7065
5.29	1.0766	-9.3121	3.3036	-0.0004	0.0073	-0.0144	10.7860	11.4770	-8.3279	-0.3824	0.2202	0.5534	-0.7064
5.3	1.0384	-9.3191	3.3068	0.0013	0.0148	-0.0065	10.7304	11.4445	-8.2198	-0.3824	0.2202	0.5534	-0.7065
5.31	1.0122	-9.3236	3.3087	-0.0037	0.0240	-0.0059	10.8409	11.2144	-8.3708	-0.3823	0.2203	0.5533	-0.7064
5.32	0.9927	-9.3285	3.3056	-0.0042	0.0149	-0.0169	10.8430	11.1952	-8.3346	-0.3823	0.2203	0.5534	-0.7064
5.33	0.9827	-9.3234	3.3020	0.0017	0.0209	-0.0249	10.7925	11.1523	-8.3498	-0.3824	0.2203	0.5534	-0.7064
5.34	0.9922	-9.3084	3.2964	-0.0014	0.0181	-0.0204	10.6975	11.3335	-8.3560	-0.3824	0.2203	0.5533	-0.7064
5.35	1.0128	-9.3041	3.2988	-0.0001	0.0061	-0.0215	11.0046	11.3000	-8.3480	-0.3825	0.2202	0.5533	-0.7066
5.36	1.0217	-9.3017	3.2890	-0.0022	0.0048	-0.0151	10.6794	11.4577	-8.2140	-0.3824	0.2202	0.5532	-0.7066
5.37	1.0330	-9.3077	3.2812	-0.0142	0.0005	-0.0203	10.7540	11.2633	-8.3447	-0.3825	0.2201	0.5532	-0.7067
5.38	1.0435	-9.3096	3.2769	-0.0023	0.0037	-0.0167	11.0571	11.1215	-8.3433	-0.3824	0.2201	0.5530	-0.7067
5.39	1.0485	-9.3290	3.2671	-0.0100	0.0057	-0.0215	10.8854	11.0252	-8.3485	-0.3824	0.2200	0.5530	-0.7068
5.4	1.0600	-9.3500	3.2698	-0.0201	0.0027	-0.0187	10.7832	11.2417	-8.5072	-0.3824	0.2200	0.5531	-0.7067
5.41	1.0686	-9.3652	3.2626	-0.0071	0.0004	-0.0225	10.7187	11.1190	-8.2564	-0.3824	0.2200	0.5532	-0.7066
5.42	1.0731	-9.3747	3.2557	-0.0137	0.0089	-0.0189	10.8662	11.3413	-8.2470	-0.3824	0.2200	0.5533	-0.7066
5.43	1.0753	-9.3736	3.2530	-0.0017	0.0107	-0.0125	10.6791	11.2632	-8.4055	-0.3823	0.2200	0.5533	-0.7066
5.44	1.0718	-9.3793	3.2483	-0.0089	0.0023	-0.0178	10.6610	11.2130	-8.2551	-0.3823	0.2200	0.5534	-0.7066
5.45	1.0742	-9.3846	3.2478	-0.0029	0.0093	-0.0128	10.6401	11.2208	-8.2642	-0.3822	0.2199	0.5534	-0.7065
5.46	1.0758	-9.3799	3.2513	0.0001	0.0143	-0.0147	10.7969	11.2446	-8.3480	-0.3823	0.2200	0.5534	-0.7066
5.47	1.0703	-9.3666	3.2510	-0.0059	0.0078	-0.0123	10.6669	11.3255	-8.0570	-0.3822	0.2200	0.5534	-0.7065
5.48	1.0712	-9.3722	3.2488	-0.0063	0.0173	-0.0145	10.7574	11.3462	-8.1066	-0.3822	0.2200	0.5535	-0.7065
5.49	1.0727	-9.3811	3.2435	-0.0001	0.0153	-0.0151	11.1681	11.6194	-7.9629	-0.3822	0.2200	0.5535	-0.7065
5.5	1.0784	-9.3914	3.2426	-0.0056	0.0158	-0.0088	11.4805	11.5715	-7.8967	-0.3822	0.2201	0.5535	-0.7065
5.51	1.0848	-9.4058	3.2397	-0.0027	0.0182	-0.0086	10.9704	11.4491	-7.8508	-0.3822	0.2201	0.5535	-0.7065
5.52	1.0792	-9.3992	3.2428	0.0051	0.0224	-0.0075	10.7802	11.2151	-8.1034	-0.3821	0.2201	0.5534	-0.7064
5.53	1.0662	-9.3907	3.2375	-0.0028	0.0221	-0.0069	10.8611	11.3804	-8.1899	-0.3822	0.2202	0.5535	-0.7065
5.54	1.0499	-9.3785	3.2371	-0.0014	0.0213	-0.0083	10.6589	11.5304	-8.1070	-0.3821	0.2203	0.5535	-0.7065
5.55	1.0379	-9.3715	3.2479	0.0024	0.0191	-0.0070	10.6473	11.2104	-8.0994	-0.3822	0.2203	0.5535	-0.7066
5.56	1.0215	-9.3565	3.2530	0.0055	0.0183	-0.0060	10.7214	11.2679	-8.2326	-0.3821	0.2203	0.5534	-0.7065
5.57	1.0062	-9.3457	3.2499	0.0020	0.0196	-0.0035	10.8992	11.0492	-8.1423	-0.3821	0.2204	0.5534	-0.7065
5.58	0.9926	-9.3423	3.2517	0.0063	0.0110	-0.0106	10.8687	11.1702	-8.1574	-0.3821	0.2204	0.5534	-0.7066
5.59	0.9874	-9.3409	3.2507	0.0002	0.0154	-0.0132	10.8046	11.2569	-8.2176	-0.3820	0.2204	0.5534	-0.7065
5.6	0.9943	-9.3474	3.2599	0.0029	0.0131	-0.0148	11.0341	11.2296	-8.2128	-0.3821	0.2205	0.5534	-0.7066
5.61	0.9972	-9.3311	3.2606	0.0016	0.0124	-0.0202	10.7319	11.3427	-8.4496	-0.3820	0.2204	0.5534	-0.7065
5.62	0.9986	-9.3445	3.2580	-0.0041	0.0180	-0.0134	10.7576	11.3218	-8.1054	-0.3821	0.2205	0.5535	-0.7066
5.63	1.0058	-9.3431	3.2585	-0.0017	0.0065	-0.0165	10.6493	11.2227	-8.1190	-0.3820	0.2204	0.5534	-0.7065
5.64	1.0045	-9.3396	3.2581	-0.0012	-0.0056	-0.0162	10.6273	11.2407	-8.2342	-0.3820	0.2204	0.5535	-0.7065
5.65	1.0003	-9.3362	3.2579	-0.0023	-0.0034	-0.0189	10.7025	11.3579	-8.5377	-0.3819	0.2203	0.5536	-0.7065
5.66	1.0053	-9.3454	3.2562	-0.0011	0.0027	-0.0154	10.7599	11.2793	-8.3117	-0.3819	0.2203	0.5536	-0.7065
5.67	1.0076	-9.3536	3.2556	-0.0035	-0.0044	-0.0217	10.6413	11.4455	-8.2110	-0.3819	0.2202	0.5537	-0.7065
5.68	1.0189	-9.3551	3.2515	-0.0016	-0.0091	-0.0152	10.6459	11.4855	-8.3061	-0.3818	0.2201	0.5537	-0.7065
5.69	1.0342	-9.3679	3.2504	-0.0019	-0.0019	-0.0204	10.6739	11.3247	-8.1424	-0.3818	0.2201	0.5538	-0.7065
5.7	1.0468	-9.3840	3.2488	-0.0179	-0.0045	-0.0200	10.5491	11.3017	-8.3242	-0.3817	0.2200	0.5538	-0.7064
5.71	1.0654	-9.4118	3.2441	-0.0040	-0.0070	-0.0192	10.5843	11.4484	-8.3908	-0.3817	0.2200	0.5540	-0.7065
5.72	1.0926	-9.4249	3.2419	0.0011	-0.0034	-0.0216	10.6731	11.3356	-8.2381	-0.3816	0.2199	0.5540	-0.7065
5.73	1.1168	-9.4267	3.2374	0.0062	-0.0054	-0.0248	10.6444	11.3810	-8.1479	-0.3816	0.2198	0.5541	-0.7065
5.74	1.1321	-9.4230	3.2454	0.0246	-0.0038	-0.0193	10.6418	11.4388	-7.9084	-0.3816	0.2197	0.5540	-0.7065
5.75	1.1419	-9.4250	3.2560	0.0237	-0.0072	-0.0094	10.8071	11.1252	-8.0684	-0.3815	0.2196	0.5540	-0.7066
5.76	1.1493	-9.3965	3.2631	0.0245	-0.0004	-0.0146	11.0135	11.2248	-8.3591	-0.3815	0.2195	0.5539	-0.7067
5.77	1.1484	-9.3560	3.2604	0.0246	0.0041	-0.0083	11.0079	11.1611	-8.4080	-0.3815	0.2194	0.5538	-0.7067
5.78	1.1481	-9.3159	3.2559	0.0247	0.0090	-0.0057	10.9971	11.0290	-8.2548	-0.3815	0.2194	0.5538	-0.7069
5.79	1.1426	-9.2994	3.2630	0.0200	0.0131	-0.0045	10.8781	11.0745	-8.1666	-0.3814	0.2194	0.5537	-0.7069
5.8	1.1348	-9.3043	3.2869	0.0237	0.0164	-0.0037	10.7396	11.0439	-8.2784	-0.3815	0.2194	0.5536	-0.7071
5.81	1.1146	-9.3104	3.3011	0.0198	0.0241	-0.0043	10.7402	11.0554	-8.3106	-0.3814	0.2194	0.5535	-0.7071
5.82	1.0929	-9.3090	3.3016	0.0183	0.0260	-0.0057	10.8401	11.2909	-8.1465	-0.3815	0.2195	0.5534	-0.7071
5.83	1.0884	-9.3011	3.3064	0.0216	0.0281	-0.0120	10.6518	11.1701	-8.1322	-0.3815	0.2195	0.5533	-0.7072
5.84	1.0894	-9.2892	3.3042	0.0059	0.0352	-0.0176	10.6554	11.4038	-8.3389	-0.3816	0.2196	0.5532	-0.7071
5.85	1.0825	-9.2747	3.2997	0.0055	0.0319	-0.0218	10.6570	11.5001	-8.1663	-0.3817	0.2196	0.5532	-0.7072
5.86	1.0557	-9.2783	3.2965	-0.0011	0.0415	-0.0208	10.7840	11.3745	-8.2810	-0.3818	0.2197	0.5531	-0.7072
5.87	1.0190	-9.2979	3.2854	-0.0018	0.0493	-0.0175	10.6548	11.4357	-8.2601	-0.3819	0.2198	0.5529	-0.7072
5.88	0.9852	-9.3189	3.2758	-0.0054	0.0421	-0.0167	10.6633	11.3135	-8.0897	-0.3820	0.2198	0.5527	-0.7072
5.89	0.9612	-9.3327	3.2636	-0.0074	0.0315	-0.0186	10.6309	11.3108	-8.2373	-0.3821	0.2199	0.5527	-0.7073
5.9	0.9652	-9.3433	3.2640	-0.0052	0.0309	-0.0179	10.5314	11.3403	-8.0242	-0.3822	0.2200	0.5526	-0.7073
5.91	0.9797	-9.3507	3.2618	-0.0125	0.0198	-0.0169	10.6242	11.2704	-8.3461	-0.3822	0.2200	0.5526	-0.7072
5.92	1.0046	-9.3623	3.2611	-0.0115	0.0184	-0.0161	10.7842	11.5700	-8.0599	-0.3822	0.2201	0.5526	-0.7072
5.93	1.0186	-9.3580	3.2524	-0.0050	0.0061	-0.0127	10.8099	11.2444	-8.0762	-0.3821	0.2201	0.5526	-0.7072
5.94	1.0358	-9.3744	3.2511	-0.0129	0.0040	-0.0032	10.9130	10.9548	-8.2651	-0.3821	0.2201	0.5527	-0.7072
5.95	1.0410	-9.4009	3.2455	-0.0159	0.0002	-0.0046	10.8213	11.2833	-8.0696	-0.3819	0.2201	0.5527	-0.7071
5.96	1.0379	-9.4147	3.2395	-0.0006	-0.0005	-0.0078	10.8588	11.1004	-8.2437	-0.3819	0.2201	0.5528	-0.7072
5.97	1.0381	-9.3941	3.2414	-0.0004	0.0059	-0.0076	11.0483	11.1968	-8.3151	-0.3818	0.2201	0.5528	-0.7072
5.98	1.0442	-9.4022	3.2452	0.0051	0.0007	-0.0086	11.0687	11.2617	-8.2324	-0.3818	0.2201	0.5529	-0.7072
5.99	1.0540	-9.4218	3.2512	0.0070	-0.0050	-0.0079	11.5682	11.2048	-8.0862	-0.3817	0.2200	0.5529	-0.7073
6	1.0442	-9.4060	3.2484	0.0083	0.0045	-0.0042	11.7210	11.1974	-8.0190	-0.3816	0.2200	0.5529	-0.7073
6.01	1.0298	-9.3789	3.2486	0.0106	0.0103	-0.0044	10.9234	11.3426	-8.1263	-0.3816	0.2200	0.5528	-0.7074
6.02	1.0119	-9.3866	3.2605	0.0211	0.0013	-0.0062	10.8194	11.1971	-8.2251	-0.3815	0.2199	0.5527	-0.7074
6.03	1.0175	-9.4163	3.2854	0.0200	0.0040	-0.0074	10.8078	11.3024	-8.2438	-0.3815	0.2199	0.5528	-0.7076
6.04	1.0235	-9.3770	3.2855	0.0256	-0.0030	-0.0045	10.8288	11.1666	-8.3860	-0.3815	0.2198	0.5527	-0.7076
6.05	1.0435	-9.3415	3.2888	0.0246	0.0103	-0.0194	10.7524	11.4885	-8.2423	-0.3815	0.2198	0.5526	-0.7077
6.06	1.0719	-9.2905	3.2900	0.0312	0.0100	-0.0178	10.7710	11.3660	-8.3521	-0.3815	0.2197	0.5525	-0.7077
6.07	1.0845	-9.2555	3.3076	0.0245	0.0198	-0.0155	10.7855	11.2662	-8.3218	-0.3816	0.2197	0.5524	-0.7078
6.08	1.0715	-9.2437	3.3182	0.0224	0.0201	-0.0129	10.8847	11.2984	-7.9979	-0.3816	0.2197	0.5523	-0.7079
6.09	1.0362	-9.2359	3.3181	0.0084	0.0211	-0.0020	10.8419	11.2720	-8.2575	-0.3815	0.2197	0.5523	-0.7079
6.1	0.9966	-9.2506	3.3121	-0.0036	0.0304	-0.0092	10.8744	11.3998	-8.2245	-0.3816	0.2198	0.5522	-0.7080
6.11	0.9800	-9.2734	3.3174	-0.0041	0.0219	-0.0083	10.6931	11.3493	-8.3069	-0.3816	0.2198	0.5521	-0.7080
6.12	0.9662	-9.2874	3.3122	-0.0050	0.0161	-0.0112	10.7058	11.2030	-8.2891	-0.3817	0.2198	0.5520	-0.7081
6.13	0.9599	-9.2986	3.2942	-0.0141	0.0154	-0.0184	10.9721	11.1900	-8.2144	-0.3816	0.2198	0.5519	-0.7080
6.14	0.9696	-9.3203	3.2821	-0.0208	0.0100	-0.0132	11.0306	11.2075	-8.3857	-0.3817	0.2199	0.5519	-0.7081
6.15	0.9822	-9.3490	3.2733	-0.0280	0.0078	-0.0232	10.8912	11.1800	-8.2701	-0.3816	0.2199	0.5520	-0.7080
6.16	0.9899	-9.3673	3.2592	-0.0249	0.0026	-0.0225	11.0644	11.2785	-8.2117	-0.3816	0.2199	0.5521	-0.7079
6.17	1.0012	-9.3841	3.2538	-0.0191	0.0014	-0.0205	10.9216	11.3016	-8.4732	-0.3816	0.2199	0.5523	-0.7079
6.18	1.0090	-9.3963	3.2487	-0.0119	0.0048	-0.0185	10.7113	11.2685	-8.2520	-0.3815	0.2198	0.5523	-0.7078
6.19	1.0220	-9.4009	3.2417	-0.0058	-0.0088	-0.0206	10.8253	11.5327	-8.2900	-0.3815	0.2198	0.5524	-0.7079
6.2	1.0349	-9.3924	3.2500	-0.0011	-0.0073	-0.0184	10.6318	11.5784	-8.0469	-0.3814	0.2197	0.5524	-0.7078
6.21	1.0481	-9.3839	3.2552	-0.0017	-0.0062	-0.0091	10.8482	11.2169	-8.3231	-0.3814	0.2197	0.5525	-0.7079
6.22	1.0740	-9.3671	3.2646	-0.0006	-0.0043	-0.0140	10.9459	11.3468	-8.2821	-0.3813	0.2196	0.5526	-0.7079
6.23	1.0847	-9.3663	3.2619	-0.0036	-0.0070	-0.0162	10.7522	11.4410	-8.0209	-0.3812	0.2195	0.5526	-0.7079
6.24	1.0830	-9.3635	3.2680	-0.0028	-0.0011	-0.0068	10.7725	11.5805	-8.1074	-0.3811	0.2195	0.5527	-0.7079
6.25	1.0878	-9.3656	3.2637	-0.0032	-0.0016	-0.0085	10.7838	11.5166	-8.1477	-0.3811	0.2195	0.5527	-0.7079
6.26	1.0884	-9.3737	3.2645	-0.0061	-0.0026	-0.0066	10.7152	11.4121	-8.4410	-0.3810	0.2195	0.5528	-0.7079
6.27	1.0802	-9.3744	3.2597	-0.0003	0.0032	-0.0105	10.6542	11.2661	-8.2759	-0.3809	0.2195	0.5528	-0.7079
6.28	1.0646	-9.3746	3.2528	-0.0003	0.0027	-0.0104	10.7000	11.3103	-8.0150	-0.3809	0.2195	0.5529	-0.7080
6.29	1.0555	-9.3802	3.2598	0.0009	0.0102	-0.0093	10.6541	11.3938	-8.2563	-0.3808	0.2195	0.5528	-0.7079
6.3	1.0514	-9.3860	3.2527	-0.0016	0.0122	-0.0068	10.7568	11.3808	-8.2489	-0.3808	0.2195	0.5529	-0.7080
6.31	1.0375	-9.3730	3.2554	-0.0031	0.0148	-0.0103	10.8492	11.2843	-8.1623	-0.3808	0.2195	0.5528	-0.7079
6.32	1.0293	-9.3615	3.2489	0.0040	0.0130	-0.0098	11.0055	11.1747	-8.2474	-0.3808	0.2195	0.5529	-0.7079
6.33	1.0191	-9.3496	3.2564	0.0009	0.0220	-0.0101	11.0081	11.2205	-8.2739	-0.3808	0.2196	0.5529	-0.7079
6.34	1.0115	-9.3505	3.2582	0.0071	0.0211	-0.0149	10.8446	11.1707	-8.4717	-0.3808	0.2196	0.5528	-0.7079
6.35	1.0063	-9.3525	3.2605	0.0014	0.0198	-0.0133	10.7535	11.3277	-8.1981	-0.3808	0.2196	0.5529	-0.7080
6.36	1.0010	-9.3443	3.2583	-0.0002	0.0178	-0.0139	10.8031	11.2258	-8.1453	-0.3808	0.2197	0.5528	-0.7079
6.37	1.0052	-9.3413	3.2648	0.0026	0.0164	-0.0135	10.9017	11.2319	-8.1526	-0.3808	0.2197	0.5529	-0.7079
6.38	1.0027	-9.3343	3.2676	0.0002	0.0158	-0.0131	10.7396	11.4073	-8.1584	-0.3808	0.2197	0.5528	-0.7078
6.39	0.9991	-9.3294	3.2642	0.0004	0.0111	-0.0193	10.8034	11.3462	-8.2627	-0.3808	0.2197	0.5529	-0.7079
6.4	0.9968	-9.3303	3.2658	-0.0015	0.0117	-0.0187	11.0416	11.2500	-8.2434	-0.3808	0.2197	0.5529	-0.7079
6.41	1.0019	-9.3414	3.2641	-0.0053	0.0073	-0.0152	10.6921	11.3737	-8.2408	-0.3808	0.2197	0.5529	-0.7078
6.42	1.0046	-9.3524	3.2631	-0.0021	0.0022	-0.0183	10.5658	11.3677	-8.2658	-0.3807	0.2196	0.5530	-0.7079
6.43	1.0112	-9.3591	3.2525	-0.0047	0.0007	-0.0193	10.8769	11.3884	-8.4843	-0.3807	0.2196	0.5530	-0.7078
6.44	1.0219	-9.3727	3.2564	-0.0036	-0.0012	-0.0178	10.7919	11.3236	-8.1517	-0.3807	0.2196	0.5531	-0.7078
6.45	1.0273	-9.3762	3.2507	-0.0074	-0.0035	-0.0250	10.7396	11.1971	-8.1676	-0.3806	0.2195	0.5531	-0.7077
6.46	1.0379	-9.3785	3.2475	-0.0045	-0.0057	-0.0204	10.8980	11.1887	-8.0118	-0.3806	0.2194	0.5532	-0.7078
6.47	1.0493	-9.3781	3.2474	-0.0017	-0.0028	-0.0224	10.8107	11.3985	-8.1506	-0.3806	0.2194	0.5533	-0.7078
6.48	1.0615	-9.3780	3.2387	-0.0020	0.0053	-0.0172	11.0058	11.5342	-8.0834	-0.3805	0.2193	0.5533	-0.7078
6.49	1.0602	-9.3712	3.2392	0.0001	-0.0060	-0.0136	11.1525	11.6700	-8.0725	-0.3805	0.2193	0.5534	-0.7078
6.5	1.0553	-9.3761	3.2440	0.0003	-0.0098	-0.0102	11.2619	11.7204	-8.0753	-0.3804	0.2192	0.5534	-0.7078
6.51	1.0537	-9.3848	3.2463	0.0172	-0.0048	-0.0104	10.9542	11.2360	-8.1019	-0.3803	0.2191	0.5534	-0.7079
6.52	1.0643	-9.3815	3.2532	0.0176	-0.0098	-0.0108	10.8743	11.0989	-8.0585	-0.3802	0.2190	0.5534	-0.7079
6.53	1.0771	-9.3680	3.2580	0.0183	-0.0090	-0.0135	10.9167	11.0168	-8.2533	-0.3802	0.2190	0.5534	-0.7080
6.54	1.0794	-9.3428	3.2613	0.0097	-0.0045	-0.0115	10.7298	11.2751	-8.4055	-0.3802	0.2189	0.5534	-0.7080
6.55	1.0823	-9.3545	3.2741	0.0065	0.0010	-0.0114	10.7247	11.0067	-8.1841	-0.3801	0.2188	0.5535	-0.7081
6.56	1.0865	-9.3571	3.2710	0.0115	0.0034	-0.0118	10.6242	11.0920	-8.2002	-0.3801	0.2188	0.5534	-0.7081
6.57	1.0768	-9.3334	3.2638	0.0160	0.0016	-0.0042	10.8684	11.3470	-8.1154	-0.3800	0.2188	0.5534	-0.7082
6.58	1.0623	-9.3249	3.2584	0.0151	0.0056	-0.0115	10.9208	11.3626	-8.4527	-0.3800	0.2187	0.5533	-0.7082
6.59	1.0626	-9.3270	3.2669	0.0052	0.0107	-0.0153	10.5205	11.3633	-8.2187	-0.3800	0.2187	0.5533	-0.7082
6.6	1.0668	-9.3352	3.2775	-0.0007	0.0088	-0.0169	10.4717	11.2543	-8.0905	-0.3800	0.2187	0.5534	-0.7083
6.61	1.0640	-9.3502	3.2795	0.0017	0.0122	-0.0180	10.6675	11.2890	-8.3062	-0.3800	0.2187	0.5534	-0.7082
6.62	1.0681	-9.3663	3.2834	0.0072	0.0113	-0.0181	10.6620	11.4637	-8.4618	-0.3800	0.2187	0.5534	-0.7083
6.63	1.0795	-9.3583	3.2883	0.0159	0.0176	-0.0217	10.8499	11.4200	-8.1721	-0.3800	0.2186	0.5533	-0.7082
6.64	1.0920	-9.3373	3.2845	0.0154	0.0138	-0.0187	10.5529	11.6160	-8.2544	-0.3801	0.2186	0.5533	-0.7083
6.65	1.0957	-9.3088	3.2763	0.0116	0.0116	-0.0162	10.5570	11.5367	-8.3060	-0.3801	0.2186	0.5533	-0.7083
6.66	1.0819	-9.2874	3.2680	0.0044	0.0217	-0.0170	10.5254	11.3915	-8.3679	-0.3801	0.2186	0.5533	-0.7083
6.67	1.0472	-9.3029	3.2649	-0.0075	0.0205	-0.0147	10.6563	11.5807	-8.4317	-0.3801	0.2186	0.5533	-0.7083
6.68	1.0199	-9.3326	3.2585	-0.0107	0.0163	-0.0055	10.7404	11.3491	-8.3509	-0.3801	0.2187	0.5532	-0.7083
6.69	1.0016	-9.3521	3.2415	-0.0086	0.0226	-0.0102	10.7022	10.9921	-8.2665	-0.3801	0.2187	0.5532	-0.7083
6.7	0.9988	-9.3658	3.2286	-0.0054	0.0208	-0.0101	10.8005	11.0881	-8.3953	-0.3801	0.2188	0.5531	-0.7083
6.71	1.0080	-9.3819	3.2246	-0.0010	0.0110	-0.0150	10.8332	11.2062	-8.2825	-0.3801	0.2188	0.5532	-0.7083
6.72	1.0176	-9.3870	3.2217	-0.0048	0.0013	-0.0127	10.5960	11.1702	-8.2971	-0.3800	0.2188	0.5532	-0.7083
6.73	1.0235	-9.3959	3.2142	0.0017	-0.0041	-0.0161	10.7899	11.1929	-8.2949	-0.3800	0.2187	0.5533	-0.7083
6.74	1.0246	-9.3995	3.2130	0.0063	-0.0019	-0.0143	10.9042	11.1864	-8.2871	-0.3799	0.2186	0.5533	-0.7083
6.75	1.0285	-9.4001	3.2077	0.0075	0.0040	-0.0064	10.8007	11.1899	-8.3171	-0.3799	0.2186	0.5533	-0.7084
6.76	1.0242	-9.3995	3.2128	0.0097	-0.0055	-0.0106	10.7502	11.1727	-8.4279	-0.3798	0.2186	0.5533	-0.7084
6.77	1.0276	-9.3961	3.2193	0.0174	-0.0108	-0.0064	10.7103	11.1942	-8.2866	-0.3797	0.2185	0.5532	-0.7084
6.78	1.0454	-9.3981	3.2270	0.0217	-0.0091	-0.0088	10.7061	11.1701	-8.1876	-0.3797	0.2184	0.5533	-0.7086
6.79	1.0661	-9.3892	3.2317	0.0108	-0.0063	-0.0069	10.6202	11.3713	-8.2078	-0.3796	0.2183	0.5533	-0.7086
6.8	1.0775	-9.3785	3.2331	0.0120	-0.0067	-0.0133	10.6109	11.2865	-8.2331	-0.3796	0.2183	0.5533	-0.7087
6.81	1.0761	-9.3619	3.2184	0.0104	-0.0025	-0.0095	10.7536	11.2680	-8.5453	-0.3794	0.2182	0.5532	-0.7087
6.82	1.0630	-9.3690	3.2190	0.0040	-0.0087	-0.0044	10.6485	11.4882	-8.2834	-0.3794	0.2181	0.5533	-0.7088
6.83	1.0632	-9.4240	3.2360	0.0096	-0.0017	-0.0042	10.7289	11.4374	-8.0412	-0.3793	0.2181	0.5533	-0.7088
6.84	1.0758	-9.4225	3.2406	0.0191	0.0041	-0.0079	10.8520	11.4586	-8.2557	-0.3792	0.2181	0.5532	-0.7088
6.85	1.0819	-9.3965	3.2407	0.0223	-0.0050	-0.0097	10.6905	11.3610	-7.9720	-0.3792	0.2180	0.5533	-0.7090
6.86	1.0967	-9.3552	3.2350	0.0263	-0.0008	-0.0099	10.8615	11.6069	-8.2297	-0.3792	0.2179	0.5532	-0.7090
6.87	1.1173	-9.3269	3.2485	0.0224	0.0040	-0.0105	10.7713	11.1961	-8.3682	-0.3792	0.2179	0.5532	-0.7092
6.88	1.1173	-9.3187	3.2628	0.0237	0.0127	-0.0055	10.9135	11.1834	-8.4987	-0.3791	0.2178	0.5530	-0.7091
6.89	1.0929	-9.3204	3.2714	0.0241	0.0178	-0.0052	10.8856	11.1757	-8.3405	-0.3791	0.2178	0.5530	-0.7093
6.9	1.0616	-9.3334	3.2787	0.0208	0.0275	-0.0050	10.9177	11.2071	-8.4865	-0.3791	0.2179	0.5529	-0.7093
6.91	1.0366	-9.3419	3.2712	0.0139	0.0268	-0.0098	10.8260	11.1021	-8.6534	-0.3792	0.2179	0.5528	-0.7093
6.92	1.0177	-9.3450	3.2759	0.0112	0.0276	-0.0164	10.7012	11.0994	-8.2083	-0.3792	0.2180	0.5528	-0.7094
6.93	1.0187	-9.3471	3.2754	0.0050	0.0273	-0.0168	10.6080	11.2087	-8.1077	-0.3792	0.2180	0.5527	-0.7093
6.94	1.0205	-9.3496	3.2764	0.0168	0.0209	-0.0156	10.8949	10.9671	-8.0734	-0.3793	0.2180	0.5527	-0.7094
6.95	1.0057	-9.3478	3.2743	0.0214	0.0223	-0.0120	10.8847	11.1874	-8.2959	-0.3793	0.2180	0.5526	-0.7093
6.96	0.9985	-9.3321	3.2692	0.0191	0.0253	-0.0093	10.9499	11.5027	-8.5221	-0.3794	0.2180	0.5525	-0.7095
6.97	0.9870	-9.3310	3.2688	0.0083	0.0245	-0.0089	10.7781	11.4115	-8.3106	-0.3794	0.2181	0.5525	-0.7094
6.98	0.9858	-9.3316	3.2677	0.0022	0.0235	-0.0075	10.7947	11.5322	-8.2471	-0.3794	0.2181	0.5525	-0.7095
6.99	0.9865	-9.3408	3.2799	0.0012	0.0140	-0.0106	11.2422	11.5532	-8.0881	-0.3793	0.2182	0.5524	-0.7094
7	0.9884	-9.3460	3.2833	0.0055	0.0097	-0.0048	11.3940	11.5458	-8.0517	-0.3793	0.2182	0.5524	-0.7095
7.01	1.0005	-9.3452	3.2786	0.0113	0.0065	-0.0058	11.0876	11.2522	-8.0943	-0.3793	0.2182	0.5524	-0.7095
7.02	1.0090	-9.3544	3.2852	0.0024	0.0024	-0.0060	10.8112	11.1858	-8.3159	-0.3792	0.2181	0.5524	-0.7095
7.03	1.0173	-9.3597	3.2859	-0.0018	0.0089	-0.0040	10.7731	11.2122	-8.4057	-0.3791	0.2182	0.5525	-0.7096
7.04	1.0229	-9.3749	3.2837	-0.0002	0.0072	-0.0051	10.7419	11.3083	-8.3019	-0.3791	0.2182	0.5525	-0.7095
7.05	1.0232	-9.3836	3.2769	0.0108	0.0065	-0.0039	10.8252	11.1994	-8.3333	-0.3790	0.2182	0.5525	-0.7097
7.06	1.0245	-9.3777	3.2829	0.0242	0.0111	-0.0045	10.9557	11.1825	-8.3205	-0.3790	0.2182	0.5524	-0.7096
7.07	1.0225	-9.3685	3.2815	0.0192	0.0107	-0.0054	11.0535	11.2017	-8.3131	-0.3790	0.2182	0.5523	-0.7097
7.08	1.0337	-9.3613	3.2865	0.0218	0.0160	-0.0062	10.8144	11.3439	-8.3519	-0.3789	0.2182	0.5523	-0.7098
7.09	1.0085	-9.3302	3.2970	0.0133	0.0180	-0.0072	11.0154	11.0942	-8.2225	-0.3789	0.2182	0.5522	-0.7098
7.1	0.9803	-9.2962	3.2965	0.0145	0.0194	-0.0051	11.1450	11.1189	-8.1421	-0.3790	0.2182	0.5522	-0.7099
7.11	0.9961	-9.3157	3.3027	0.0114	0.0215	-0.0094	10.6768	11.1932	-8.4030	-0.3789	0.2182	0.5521	-0.7099
7.12	0.9859	-9.3362	3.3063	0.0112	0.0190	-0.0075	10.7289	11.2333	-8.4454	-0.3790	0.2183	0.5521	-0.7100
7.13	0.9718	-9.3331	3.3014	0.0144	0.0192	-0.0053	10.8580	11.3131	-8.2939	-0.3789	0.2183	0.5520	-0.7099
7.14	0.9638	-9.3293	3.2959	0.0183	0.0185	-0.0065	10.9712	11.1184	-8.5001	-0.3789	0.2183	0.5520	-0.7100
7.15	0.9601	-9.3548	3.2969	0.0085	0.0172	-0.0084	10.8841	11.1351	-8.4141	-0.3789	0.2183	0.5519	-0.7100
7.16	0.9590	-9.3570	3.2964	-0.0014	0.0103	-0.0063	10.8377	11.2866	-8.2726	-0.3789	0.2183	0.5519	-0.7100
7.17	0.9631	-9.3600	3.2880	0.0056	0.0070	-0.0087	10.8661	11.1774	-8.3576	-0.3788	0.2184	0.5519	-0.7101
7.18	0.9724	-9.3645	3.2992	0.0053	0.0053	-0.0093	10.6926	11.4441	-8.3013	-0.3788	0.2183	0.5519	-0.7101
7.19	0.9821	-9.3575	3.3025	0.0137	0.0083	-0.0082	10.6969	11.2254	-8.3589	-0.3788	0.2183	0.5519	-0.7101
7.2	0.9899	-9.3449	3.3053	0.0169	0.0066	-0.0186	10.9522	11.1484	-8.2024	-0.3787	0.2182	0.5518	-0.7101
7.21	0.9904	-9.3309	3.3093	0.0052	0.0019	-0.0159	11.0531	11.3441	-8.2651	-0.3787	0.2182	0.5519	-0.7102
7.22	0.9999	-9.3187	3.3132	0.0099	0.0053	-0.0128	11.0045	11.3297	-8.3342	-0.3787	0.2182	0.5519	-0.7102
7.23	0.9983	-9.3090	3.3136	0.0148	0.0092	-0.0158	10.8380	11.2509	-8.3406	-0.3787	0.2181	0.5519	-0.7102
7.24	0.9909	-9.3143	3.3111	0.0112	0.0044	-0.0152	10.8637	11.3028	-8.2006	-0.3787	0.2181	0.5519	-0.7102
7.25	0.9863	-9.3258	3.3091	0.0119	0.0056	-0.0184	10.9586	11.1231	-8.4256	-0.3787	0.2180	0.5519	-0.7103
7.26	0.9787	-9.3377	3.2992	0.0092	0.0075	-0.0123	10.9393	11.3007	-8.4963	-0.3787	0.2180	0.5519	-0.7103
7.27	0.9736	-9.3451	3.2996	0.0020	0.0038	-0.0174	10.9377	11.1780	-8.2987	-0.3786	0.2180	0.5518	-0.7103
7.28	0.9759	-9.3540	3.3015	0.0066	-0.0074	-0.0099	10.9530	11.1097	-8.3196	-0.3786	0.2179	0.5519	-0.7104
7.29	0.9796	-9.3577	3.2875	0.0000	-0.0065	-0.0151	11.0476	11.3430	-8.5021	-0.3785	0.2179	0.5520	-0.7103
7.3	0.9840	-9.3577	3.2954	0.0056	-0.0128	-0.0145	10.8034	11.2029	-8.4501	-0.3785	0.2178	0.5521	-0.7104
7.31	0.9948	-9.3520	3.2952	0.0047	-0.0120	-0.0108	10.9926	11.0852	-8.3090	-0.3783	0.2177	0.5520	-0.7104
7.32	1.0038	-9.3479	3.2998	0.0090	-0.0127	-0.0106	10.8601	11.1310	-8.4223	-0.3783	0.2176	0.5521	-0.7105
7.33	1.0163	-9.3444	3.3073	0.0260	-0.0147	-0.0078	10.7703	11.2261	-8.2710	-0.3782	0.2175	0.5521	-0.7106
7.34	1.0336	-9.3277	3.3168	0.0157	-0.0183	-0.0079	10.9683	11.4676	-8.4353	-0.3780	0.2174	0.5520	-0.7106
7.35	1.0432	-9.3178	3.3279	0.0193	-0.0134	-0.0160	10.8512	11.3413	-8.4091	-0.3780	0.2173	0.5521	-0.7108
7.36	1.0506	-9.3028	3.3324	0.0202	-0.0124	-0.0154	10.8068	11.2739	-8.4293	-0.3779	0.2171	0.5521	-0.7108
7.37	1.0511	-9.3147	3.3368	0.0107	-0.0077	-0.0147	10.7616	11.2219	-8.4072	-0.3779	0.2170	0.5521	-0.7109
7.38	1.0441	-9.3214	3.3374	0.0022	-0.0044	-0.0152	10.6622	11.1537	-8.4246	-0.3778	0.2170	0.5521	-0.7108
7.39	1.0433	-9.3327	3.3290	0.0069	-0.0075	-0.0160	10.7004	11.3235	-8.4027	-0.3778	0.2169	0.5522	-0.7109
7.4	1.0462	-9.3303	3.3199	0.0067	-0.0084	-0.0123	10.7624	11.3753	-8.2972	-0.3777	0.2168	0.5522	-0.7109
7.41	1.0611	-9.3231	3.3132	-0.0007	-0.0069	-0.0112	10.8414	11.3572	-8.3597	-0.3776	0.2168	0.5522	-0.7109
7.42	1.0810	-9.3447	3.3282	0.0061	-0.0069	-0.0072	10.8583	11.3789	-8.2945	-0.3776	0.2167	0.5523	-0.7110
7.43	1.0883	-9.3729	3.3433	0.0067	-0.0118	-0.0087	10.7301	11.3329	-8.3994	-0.3775	0.2166	0.5523	-0.7110
7.44	1.0856	-9.3617	3.3505	0.0145	-0.0075	-0.0039	11.0139	11.2137	-8.5715	-0.3774	0.2166	0.5523	-0.7111
7.45	1.0757	-9.3354	3.3553	0.0153	0.0029	-0.0045	11.0505	11.0844	-8.3813	-0.3773	0.2165	0.5522	-0.7111
7.46	1.0732	-9.3048	3.3668	0.0190	0.0036	-0.0071	10.8950	11.1209	-8.4369	-0.3773	0.2165	0.5523	-0.7112
7.47	1.0686	-9.2661	3.3716	0.0183	0.0152	-0.0115	10.8448	11.2027	-8.3714	-0.3773	0.2165	0.5522	-0.7112
7.48	1.0512	-9.2423	3.3681	0.0067	0.0206	-0.0136	10.8728	11.2297	-8.2396	-0.3773	0.2165	0.5522	-0.7113
7.49	1.0196	-9.2320	3.3527	-0.0008	0.0275	-0.0081	11.2735	11.4151	-8.2284	-0.3773	0.2166	0.5521	-0.7112
7.5	0.9792	-9.2414	3.3365	-0.0060	0.0210	-0.0078	11.6475	11.3319	-8.0130	-0.3773	0.2166	0.5521	-0.7113
7.51	0.9476	-9.2657	3.3307	-0.0172	0.0179	-0.0109	10.8665	11.0875	-8.3908	-0.3773	0.2167	0.5520	-0.7113
7.52	0.9354	-9.2984	3.3242	-0.0177	0.0181	-0.0117	10.6952	11.0958	-8.3989	-0.3773	0.2167	0.5520	-0.7112
7.53	0.9430	-9.3165	3.3167	-0.0192	0.0096	-0.0171	10.7849	11.1135	-8.2643	-0.3773	0.2168	0.5520	-0.7113
7.54	0.9608	-9.3329	3.3142	-0.0209	-0.0007	-0.0137	10.6709	11.3584	-8.1765	-0.3773	0.2167	0.5521	-0.7113
7.55	0.9801	-9.3430	3.3074	-0.0127	-0.0027	-0.0102	10.7027	11.3458	-8.0686	-0.3772	0.2167	0.5522	-0.7113
7.56	0.9834	-9.3398	3.2991	-0.0083	-0.0027	-0.0139	10.8651	11.4487	-8.3532	-0.3771	0.2167	0.5522	-0.7112
7.57	0.9853	-9.3477	3.3031	-0.0073	-0.0088	-0.0112	10.6960	11.5668	-8.3897	-0.3770	0.2167	0.5523	-0.7112
7.58	0.9893	-9.3510	3.2973	-0.0086	-0.0070	-0.0092	10.8125	11.4763	-8.4795	-0.3769	0.2166	0.5524	-0.7112
7.59	0.9904	-9.3566	3.2913	-0.0105	-0.0099	-0.0131	10.8562	11.3727	-8.4402	-0.3768	0.2166	0.5525	-0.7112
7.6	1.0032	-9.3573	3.2919	-0.0086	-0.0131	-0.0116	10.7141	11.2245	-8.1658	-0.3768	0.2165	0.5526	-0.7113
7.61	1.0141	-9.3730	3.2865	-0.0040	-0.0140	-0.0042	10.6282	11.3282	-8.4072	-0.3766	0.2165	0.5527	-0.7112
7.62	1.0365	-9.3745	3.2828	-0.0059	-0.0153	-0.0066	10.6951	11.0936	-8.3533	-0.3765	0.2164	0.5528	-0.7113
7.63	1.0507	-9.3660	3.2759	-0.0061	-0.0171	-0.0080	10.9398	11.1917	-8.1798	-0.3764	0.2163	0.5528	-0.7112
7.64	1.0547	-9.3656	3.2697	-0.0008	-0.0153	-0.0064	10.9083	11.3711	-8.2516	-0.3763	0.2163	0.5529	-0.7113
7.65	1.0572	-9.3813	3.2714	-0.0055	-0.0106	-0.0047	10.7810	10.9068	-8.4969	-0.3762	0.2162	0.5530	-0.7113
7.66	1.0696	-9.4248	3.2897	0.0032	-0.0052	-0.0066	10.9381	11.1927	-8.4273	-0.3761	0.2162	0.5530	-0.7113
7.67	1.0784	-9.3988	3.3008	0.0190	-0.0108	-0.0091	10.8981	11.1834	-8.2614	-0.3760	0.2161	0.5530	-0.7114
7.68	1.0872	-9.3524	3.2973	0.0188	-0.0058	-0.0081	10.8379	11.0538	-8.5050	-0.3759	0.2160	0.5530	-0.7115
7.69	1.0963	-9.3112	3.2968	0.0167	0.0022	-0.0106	10.9739	11.1734	-8.3649	-0.3759	0.2160	0.5530	-0.7116
7.7	1.0942	-9.2764	3.3028	0.0136	0.0130	-0.0069	10.7968	11.1872	-8.1935	-0.3758	0.2160	0.5529	-0.7115
7.71	1.0662	-9.2753	3.3123	0.0002	0.0212	-0.0099	10.8542	11.0728	-8.3191	-0.3759	0.2160	0.5529	-0.7116
7.72	1.0200	-9.3024	3.3180	-0.0015	0.0320	-0.0027	10.7844	11.2793	-8.3250	-0.3759	0.2161	0.5529	-0.7116
7.73	0.9779	-9.3367	3.3066	-0.0016	0.0312	-0.0066	10.7111	11.4641	-8.2155	-0.3759	0.2162	0.5529	-0.7116
7.74	0.9458	-9.3470	3.3011	-0.0017	0.0282	-0.0093	10.8625	11.4234	-8.3258	-0.3759	0.2163	0.5528	-0.7115
7.75	0.9300	-9.3570	3.2956	-0.0015	0.0267	-0.0173	10.8071	11.3719	-8.2719	-0.3759	0.2164	0.5529	-0.7115
7.76	0.9275	-9.3609	3.2961	-0.0004	0.0240	-0.0171	10.6773	11.4890	-8.2382	-0.3760	0.2164	0.5529	-0.7115
7.77	0.9441	-9.3558	3.2910	-0.0016	0.0146	-0.0170	10.6302	11.3413	-8.4259	-0.3759	0.2164	0.5528	-0.7114
7.78	0.9528	-9.3576	3.2918	-0.0011	0.0113	-0.0189	10.7877	11.3503	-8.4946	-0.3760	0.2164	0.5529	-0.7114
7.79	0.9595	-9.3525	3.2884	-0.0013	0.0163	-0.0124	10.8211	11.3867	-8.3352	-0.3760	0.2165	0.5529	-0.7114
7.8	0.9623	-9.3512	3.2849	0.0008	0.0029	-0.0099	10.6379	11.5060	-8.2977	-0.3759	0.2165	0.5530	-0.7115
7.81	0.9619	-9.3428	3.2876	0.0000	0.0091	-0.0054	10.7367	11.2258	-8.3978	-0.3758	0.2164	0.5529	-0.7114
7.82	0.9658	-9.3429	3.2934	0.0030	0.0037	-0.0070	10.8965	11.1940	-8.5396	-0.3758	0.2165	0.5530	-0.7114
7.83	0.9742	-9.3472	3.2929	0.0058	0.0002	-0.0122	10.8814	11.1231	-8.5782	-0.3758	0.2164	0.5530	-0.7115
7.84	0.9863	-9.3448	3.2956	0.0012	-0.0061	-0.0094	10.7844	11.0845	-8.2765	-0.3757	0.2164	0.5530	-0.7114
7.85	0.9831	-9.3456	3.2970	-0.0019	-0.0075	-0.0068	11.0633	11.0854	-8.4240	-0.3756	0.2164	0.5531	-0.7115
7.86	0.9878	-9.3504	3.2950	-0.0015	-0.0064	-0.0105	11.0995	11.2842	-8.3607	-0.3755	0.2163	0.5531	-0.7115
7.87	0.9973	-9.3571	3.2986	-0.0003	-0.0010	-0.0128	10.8537	11.1543	-8.2621	-0.3755	0.2163	0.5532	-0.7116
7.88	1.0034	-9.3581	3.2991	-0.0002	-0.0044	-0.0126	10.7991	10.9757	-8.4152	-0.3754	0.2162	0.5532	-0.7115
7.89	1.0098	-9.3581	3.2993	-0.0024	-0.0059	-0.0104	10.9839	11.1279	-8.3702	-0.3753	0.2162	0.5533	-0.7115
7.9	1.0131	-9.3603	3.3027	0.0005	-0.0005	-0.0124	10.8095	11.2528	-8.4499	-0.3753	0.2161	0.5533	-0.7115
7.91	1.0151	-9.3495	3.2954	-0.0029	0.0054	-0.0136	10.6562	11.2596	-8.2309	-0.3752	0.2161	0.5534	-0.7115
7.92	1.0095	-9.3347	3.2972	0.0013	-0.0002	-0.0158	10.5483	11.3968	-8.1114	-0.3752	0.2161	0.5534	-0.7115
7.93	1.0102	-9.3359	3.2959	-0.0007	0.0006	-0.0093	10.5985	11.2709	-8.4018	-0.3751	0.2161	0.5534	-0.7115
7.94	1.0150	-9.3399	3.2978	0.0001	0.0023	-0.0102	10.6763	10.9513	-8.3971	-0.3751	0.2161	0.5535	-0.7116
7.95	1.0073	-9.3290	3.2941	0.0057	0.0036	-0.0068	10.6354	11.4955	-8.3985	-0.3750	0.2160	0.5534	-0.7115
7.96	1.0060	-9.3423	3.2941	-0.0008	0.0047	-0.0094	10.6743	11.5178	-8.4352	-0.3750	0.2160	0.5535	-0.7116
7.97	0.9878	-9.3304	3.2974	-0.0011	0.0159	-0.0078	10.6297	11.5769	-8.3362	-0.3749	0.2161	0.5535	-0.7116
7.98	0.9771	-9.3160	3.2974	-0.0013	0.0044	-0.0147	10.7672	11.3778	-8.0765	-0.3749	0.2161	0.5536	-0.7116
7.99	0.9875	-9.3423	3.3019	-0.0015	0.0055	-0.0058	11.1501	11.3562	-8.2583	-0.3748	0.2160	0.5536	-0.7116
8	0.9857	-9.3618	3.2974	0.0014	0.0079	-0.0101	11.4553	11.3649	-8.1846	-0.3748	0.2161	0.5536	-0.7116
8.01	0.9867	-9.3360	3.2997	0.0063	-0.0069	-0.0135	11.1273	11.2054	-8.0378	-0.3748	0.2160	0.5537	-0.7116
8.02	0.9931	-9.3362	3.3031	0.0017	-0.0038	-0.0101	10.8191	11.0290	-8.2075	-0.3747	0.2159	0.5536	-0.7116
8.03	1.0155	-9.3518	3.2955	-0.0023	-0.0019	-0.0160	10.7521	10.9080	-8.4742	-0.3747	0.2159	0.5538	-0.7117
8.04	1.0229	-9.3567	3.2984	0.0002	-0.0059	-0.0167	10.9141	11.1062	-8.3491	-0.3746	0.2158	0.5538	-0.7116
8.05	1.0293	-9.3635	3.2951	0.0093	-0.0021	-0.0164	10.9453	11.3197	-8.1315	-0.3746	0.2158	0.5539	-0.7117
8.06	1.0363	-9.3629	3.2918	0.0075	-0.0044	-0.0155	10.8494	11.1530	-8.1623	-0.3745	0.2157	0.5538	-0.7116
8.07	1.0442	-9.3722	3.2875	0.0099	-0.0054	-0.0180	10.9458	11.3719	-8.3943	-0.3745	0.2156	0.5539	-0.7117
8.08	1.0413	-9.3680	3.2864	0.0197	-0.0031	-0.0128	10.9522	11.1071	-8.2664	-0.3744	0.2155	0.5538	-0.7118
8.09	1.0349	-9.3624	3.2864	0.0134	-0.0062	-0.0103	10.8393	11.2539	-8.2336	-0.3743	0.2155	0.5538	-0.7118
8.1	1.0322	-9.3511	3.2940	0.0107	0.0049	-0.0171	10.8672	11.4710	-8.2722	-0.3744	0.2154	0.5539	-0.7119
8.11	1.0297	-9.3384	3.2933	0.0146	0.0014	-0.0170	10.7921	11.2238	-8.3677	-0.3743	0.2154	0.5538	-0.7119
8.12	1.0253	-9.3255	3.2922	0.0083	-0.0011	-0.0135	10.7888	11.2872	-8.2871	-0.3743	0.2153	0.5539	-0.7120
8.13	1.0249	-9.3071	3.2957	0.0079	-0.0073	-0.0137	10.9709	11.3618	-8.1211	-0.3742	0.2152	0.5538	-0.7119
8.14	1.0262	-9.2963	3.2999	0.0083	-0.0017	-0.0085	10.8071	11.4684	-8.3238	-0.3742	0.2152	0.5539	-0.7120
8.15	1.0340	-9.2920	3.2921	-0.0009	-0.0020	-0.0076	10.7174	11.1417	-8.1139	-0.3741	0.2152	0.5538	-0.7120
8.16	1.0387	-9.2945	3.2873	-0.0014	-0.0038	-0.0084	10.8573	11.2979	-8.3532	-0.3741	0.2151	0.5538	-0.7121
8.17	1.0381	-9.2971	3.2874	-0.0016	-0.0096	-0.0055	10.8242	11.2635	-8.2066	-0.3740	0.2151	0.5538	-0.7122
8.18	1.0390	-9.3118	3.2873	-0.0013	-0.0091	-0.0068	10.7690	11.1816	-8.0718	-0.3739	0.2150	0.5537	-0.7123
8.19	1.0479	-9.3284	3.2836	-0.0016	-0.0043	-0.0047	10.8877	11.1776	-8.3697	-0.3739	0.2150	0.5537	-0.7124
8.2	1.0609	-9.3456	3.2947	-0.0004	-0.0010	-0.0063	10.8212	11.2829	-8.4078	-0.3738	0.2149	0.5537	-0.7123
8.21	1.0500	-9.3675	3.2984	-0.0016	0.0041	-0.0090	10.8764	11.2625	-8.4578	-0.3738	0.2149	0.5538	-0.7124
8.22	1.0411	-9.3906	3.3050	-0.0014	-0.0010	-0.0051	10.6335	10.9860	-8.4019	-0.3737	0.2149	0.5538	-0.7124
8.23	1.0267	-9.4015	3.2974	-0.0020	-0.0021	-0.0046	10.8098	11.0832	-8.1780	-0.3736	0.2149	0.5538	-0.7124
8.24	1.0316	-9.3876	3.2813	-0.0005	-0.0061	-0.0088	10.9673	11.2160	-8.1165	-0.3735	0.2149	0.5538	-0.7124
8.25	1.0364	-9.3659	3.2755	0.0001	-0.0028	-0.0071	10.6576	11.1646	-8.4703	-0.3734	0.2149	0.5539	-0.7125
8.26	1.0520	-9.3445	3.2746	-0.0032	-0.0083	-0.0040	10.7007	11.2544	-8.3006	-0.3734	0.2148	0.5539	-0.7125
8.27	1.0688	-9.3506	3.2792	0.0002	-0.0041	-0.0054	10.9297	11.3055	-8.2228	-0.3732	0.2148	0.5539	-0.7125
8.28	1.0735	-9.3749	3.2939	0.0027	0.0052	-0.0040	11.0501	11.1582	-8.2601	-0.3732	0.2148	0.5540	-0.7126
8.29	1.0760	-9.3901	3.2994	0.0075	0.0077	-0.0057	10.8301	11.2275	-8.0910	-0.3732	0.2148	0.5539	-0.7126
8.3	1.0778	-9.3803	3.3017	0.0202	0.0148	-0.0050	10.6917	11.1470	-8.2685	-0.3732	0.2149	0.5539	-0.7127
8.31	1.0920	-9.3605	3.3032	0.0138	0.0237	-0.0135	10.9922	11.3341	-8.2249	-0.3732	0.2149	0.5538	-0.7126
8.32	1.0906	-9.3276	3.3010	0.0138	0.0267	-0.0199	10.7562	11.1886	-8.2951	-0.3733	0.2149	0.5537	-0.7127
8.33	1.0726	-9.3073	3.3027	0.0059	0.0344	-0.0079	10.6502	11.1372	-8.3177	-0.3733	0.2150	0.5537	-0.7126
8.34	1.0314	-9.3049	3.2969	0.0068	0.0408	-0.0084	10.9698	11.5001	-8.1390	-0.3734	0.2151	0.5535	-0.7126
8.35	0.9820	-9.3075	3.2833	0.0053	0.0414	-0.0083	10.8233	11.3539	-8.1688	-0.3735	0.2153	0.5535	-0.7127
8.36	0.9370	-9.3172	3.2849	0.0055	0.0364	-0.0087	10.7241	11.2093	-8.1697	-0.3735	0.2153	0.5534	-0.7126
8.37	0.9066	-9.3267	3.2765	0.0014	0.0364	-0.0083	10.6081	11.2361	-8.3574	-0.3736	0.2155	0.5534	-0.7126
8.38	0.8924	-9.3382	3.2753	0.0070	0.0266	-0.0073	10.9593	11.3076	-8.3276	-0.3736	0.2155	0.5533	-0.7125
8.39	0.8981	-9.3380	3.2732	0.0013	0.0209	-0.0128	11.0284	11.0254	-8.3626	-0.3737	0.2156	0.5533	-0.7126
8.4	0.9144	-9.3471	3.2723	-0.0021	0.0086	-0.0109	10.8454	11.0175	-8.2761	-0.3737	0.2156	0.5532	-0.7127
8.41	0.9303	-9.3590	3.2716	0.0025	-0.0052	-0.0123	10.8406	11.0026	-8.2344	-0.3736	0.2155	0.5532	-0.7127
8.42	0.9452	-9.3784	3.2713	0.0005	-0.0039	-0.0060	10.8467	11.1199	-8.2359	-0.3736	0.2155	0.5532	-0.7127
8.43	0.9554	-9.3901	3.2660	-0.0025	-0.0052	-0.0071	10.8434	11.2336	-8.4151	-0.3735	0.2155	0.5532	-0.7127
8.44	0.9735	-9.3941	3.2666	0.0050	-0.0098	-0.0080	10.8488	11.3169	-8.1743	-0.3734	0.2154	0.5533	-0.7128
8.45	0.9888	-9.3986	3.2745	0.0096	-0.0130	-0.0046	10.8412	11.1673	-8.2385	-0.3733	0.2154	0.5532	-0.7128
8.46	1.0078	-9.3957	3.2838	0.0192	-0.0108	-0.0087	10.8592	11.2114	-8.2319	-0.3733	0.2153	0.5533	-0.7129
8.47	1.0256	-9.3838	3.2861	0.0233	-0.0044	-0.0081	10.6643	11.2928	-8.1427	-0.3732	0.2152	0.5532	-0.7130
8.48	1.0322	-9.3677	3.2838	0.0169	-0.0042	-0.0049	11.0437	11.3221	-8.0965	-0.3732	0.2152	0.5532	-0.7131
8.49	1.0291	-9.3482	3.2849	0.0248	-0.0074	-0.0083	11.4303	11.5144	-8.0415	-0.3731	0.2151	0.5531	-0.7131
8.5	1.0196	-9.3355	3.2809	0.0171	-0.0042	-0.0089	11.6462	11.2884	-8.1189	-0.3731	0.2150	0.5531	-0.7132
8.51	1.0165	-9.3758	3.3029	0.0155	0.0006	-0.0024	10.9791	11.4641	-8.2100	-0.3731	0.2150	0.5530	-0.7133
8.52	1.0172	-9.3735	3.3154	0.0242	-0.0018	-0.0077	10.9087	11.3736	-8.1840	-0.3730	0.2149	0.5529	-0.7133
8.53	1.0217	-9.3428	3.3173	0.0288	0.0061	-0.0104	10.9275	11.1484	-8.1853	-0.3730	0.2149	0.5529	-0.7135
8.54	1.0315	-9.3121	3.3174	0.0260	0.0023	-0.0121	10.8377	11.4305	-8.2200	-0.3730	0.2148	0.5528	-0.7135
8.55	1.0375	-9.2863	3.3265	0.0233	0.0113	-0.0126	10.7616	11.1854	-8.4315	-0.3731	0.2148	0.5528	-0.7136
8.56	1.0336	-9.2801	3.3345	0.0247	0.0103	-0.0061	10.8366	10.9639	-8.6103	-0.3730	0.2147	0.5526	-0.7136
8.57	1.0042	-9.2963	3.3326	0.0180	0.0092	-0.0081	10.9395	11.0002	-8.2454	-0.3730	0.2147	0.5526	-0.7137
8.58	0.9777	-9.3267	3.3344	0.0189	0.0139	-0.0061	10.9683	11.1596	-8.2147	-0.3730	0.2148	0.5525	-0.7138
8.59	0.9649	-9.3326	3.3356	0.0145	0.0127	-0.0099	11.0545	11.1724	-8.4485	-0.3730	0.2147	0.5524	-0.7138
8.6	0.9520	-9.3311	3.3365	0.0134	0.0169	-0.0169	10.9003	11.0612	-8.6273	-0.3731	0.2148	0.5524	-0.7139
8.61	0.9545	-9.3264	3.3255	0.0213	0.0117	-0.0167	10.7995	11.0854	-8.2866	-0.3731	0.2147	0.5523	-0.7139
8.62	0.9635	-9.3248	3.3316	0.0173	0.0068	-0.0166	10.7107	11.2765	-8.2616	-0.3732	0.2147	0.5523	-0.7140
8.63	0.9714	-9.3162	3.3343	0.0126	0.0013	-0.0165	10.8670	11.1351	-8.6363	-0.3731	0.2146	0.5522	-0.7139
8.64	0.9653	-9.3050	3.3363	0.0199	-0.0043	-0.0126	10.8073	11.0842	-8.4057	-0.3731	0.2145	0.5522	-0.7140
8.65	0.9640	-9.2968	3.3327	0.0174	-0.0008	-0.0110	10.7289	11.1744	-8.3559	-0.3731	0.2145	0.5521	-0.7142
8.66	0.9714	-9.2958	3.3287	0.0043	-0.0026	-0.0127	10.8058	11.2067	-8.1571	-0.3731	0.2144	0.5520	-0.7142
8.67	0.9802	-9.3034	3.3328	0.0070	-0.0037	-0.0128	10.9874	11.4734	-8.3363	-0.3731	0.2143	0.5519	-0.7143
8.68	0.9928	-9.3085	3.3376	0.0018	-0.0054	-0.0171	10.9601	11.2568	-8.3686	-0.3731	0.2142	0.5518	-0.7144
8.69	1.0081	-9.3210	3.3372	0.0004	-0.0016	-0.0193	10.5629	11.2568	-8.2252	-0.3731	0.2142	0.5519	-0.7145
8.7	1.0238	-9.3355	3.3435	-0.0017	-0.0067	-0.0115	10.9658	11.2382	-8.0711	-0.3730	0.2141	0.5518	-0.7144
8.71	1.0316	-9.3436	3.3439	-0.0007	-0.0041	-0.0138	10.7960	11.3847	-8.3806	-0.3730	0.2141	0.5519	-0.7145
8.72	1.0286	-9.3370	3.3404	0.0023	0.0002	-0.0163	10.8916	11.4253	-8.4827	-0.3730	0.2141	0.5519	-0.7144
8.73	1.0256	-9.3366	3.3411	0.0050	-0.0085	-0.0088	10.6717	11.4429	-8.2598	-0.3729	0.2140	0.5520	-0.7145
8.74	1.0255	-9.3450	3.3418	0.0103	-0.0022	-0.0092	10.7453	11.3093	-8.3988	-0.3729	0.2140	0.5519	-0.7145
8.75	1.0284	-9.3434	3.3389	0.0009	-0.0068	-0.0070	10.8838	10.9919	-8.3747	-0.3728	0.2139	0.5520	-0.7146
8.76	1.0342	-9.3404	3.3366	0.0040	0.0003	-0.0108	10.9776	10.9636	-8.3605	-0.3728	0.2139	0.5520	-0.7146
8.77	1.0313	-9.3450	3.3355	0.0022	0.0034	-0.0063	11.1052	11.0889	-8.3968	-0.3727	0.2139	0.5519	-0.7145
8.78	1.0257	-9.3474	3.3448	0.0074	0.0051	-0.0043	11.2202	11.0434	-8.3339	-0.3727	0.2139	0.5520	-0.7147
8.79	1.0182	-9.3483	3.3422	0.0096	0.0131	-0.0043	11.0218	11.0180	-8.3056	-0.3726	0.2139	0.5519	-0.7147
8.8	1.0070	-9.3483	3.3394	0.0147	0.0177	-0.0041	11.0370	11.3092	-8.4095	-0.3727	0.2140	0.5519	-0.7148
8.81	0.9999	-9.3430	3.3406	0.0195	0.0132	-0.0060	10.9054	11.1216	-8.3609	-0.3726	0.2140	0.5517	-0.7147
8.82	0.9889	-9.3296	3.3424	0.0133	0.0190	-0.0132	10.8432	11.0804	-8.5084	-0.3727	0.2140	0.5517	-0.7148
8.83	0.9787	-9.3105	3.3419	0.0227	0.0143	-0.0086	10.9642	11.0426	-8.2494	-0.3727	0.2140	0.5516	-0.7149
8.84	0.9822	-9.2955	3.3499	0.0156	0.0137	-0.0129	10.8464	11.2274	-8.3941	-0.3727	0.2140	0.5515	-0.7149
8.85	0.9840	-9.2796	3.3510	0.0061	0.0195	-0.0169	10.8148	11.4707	-8.3768	-0.3728	0.2140	0.5516	-0.7149
8.86	0.9776	-9.2706	3.3605	0.0058	0.0166	-0.0128	10.9133	11.2595	-8.1267	-0.3728	0.2140	0.5515	-0.7149
8.87	0.9612	-9.2734	3.3703	0.0031	0.0160	-0.0218	10.8610	11.2440	-8.2947	-0.3729	0.2140	0.5514	-0.7150
8.88	0.9540	-9.2744	3.3667	-0.0012	0.0151	-0.0231	10.8509	11.3221	-8.2725	-0.3729	0.2140	0.5513	-0.7149
8.89	0.9600	-9.2888	3.3683	-0.0009	0.0102	-0.0222	10.6785	11.3644	-8.4273	-0.3730	0.2139	0.5513	-0.7150
8.9	0.9611	-9.2963	3.3678	-0.0020	0.0063	-0.0215	10.7495	11.4353	-8.3269	-0.3730	0.2139	0.5512	-0.7151
8.91	0.9740	-9.3010	3.3719	-0.0008	-0.0015	-0.0253	10.8871	11.4225	-8.5860	-0.3730	0.2138	0.5511	-0.7151
8.92	0.9832	-9.3029	3.3667	-0.0034	-0.0028	-0.0189	10.8148	11.4326	-8.4458	-0.3731	0.2137	0.5511	-0.7152
8.93	0.9917	-9.3088	3.3691	-0.0011	-0.0076	-0.0157	10.8641	11.1490	-8.3917	-0.3730	0.2137	0.5511	-0.7152
8.94	1.0090	-9.3090	3.3670	-0.0004	-0.0073	-0.0159	11.0234	10.7768	-8.4979	-0.3730	0.2136	0.5511	-0.7153
8.95	1.0276	-9.2976	3.3664	-0.0031	-0.0056	-0.0164	10.9242	10.9966	-8.4449	-0.3729	0.2135	0.5510	-0.7152
8.96	1.0395	-9.3018	3.3687	-0.0158	-0.0051	-0.0128	10.8292	10.9652	-8.6028	-0.3730	0.2135	0.5511	-0.7153
8.97	1.0470	-9.3092	3.3610	-0.0123	-0.0051	-0.0155	10.9588	10.8815	-8.5094	-0.3729	0.2135	0.5511	-0.7153
8.98	1.0607	-9.3185	3.3608	-0.0117	-0.0057	-0.0158	10.6481	11.1505	-8.3900	-0.3729	0.2134	0.5512	-0.7153
8.99	1.0558	-9.3235	3.3525	-0.0087	-0.0011	-0.0104	11.1858	11.2709	-8.2801	-0.3728	0.2134	0.5512	-0.7153
9	1.0500	-9.3346	3.3488	-0.0112	0.0011	-0.0130	11.6758	11.1405	-8.1683	-0.3728	0.2134	0.5513	-0.7153
9.01	1.0340	-9.3257	3.3367	-0.0138	-0.0070	-0.0120	11.1126	11.0899	-8.2073	-0.3727	0.2134	0.5514	-0.7153
9.02	1.0244	-9.3180	3.3352	-0.0073	-0.0092	-0.0116	11.1431	11.1198	-8.3327	-0.3726	0.2133	0.5514	-0.7152
9.03	1.0332	-9.3420	3.3280	-0.0129	0.0004	-0.0166	10.8593	11.1296	-8.3083	-0.3726	0.2133	0.5515	-0.7152
9.04	1.0373	-9.3539	3.3206	-0.0128	0.0008	-0.0141	10.7179	11.2272	-8.3672	-0.3725	0.2133	0.5516	-0.7152
9.05	1.0355	-9.3283	3.3261	-0.0230	-0.0020	-0.0149	10.7395	11.1715	-8.2535	-0.3725	0.2133	0.5517	-0.7152
9.06	1.0375	-9.3332	3.3241	-0.0127	0.0031	-0.0179	10.8438	11.2293	-8.2472	-0.3724	0.2133	0.5517	-0.7150
9.07	1.0444	-9.3533	3.3151	-0.0034	0.0015	-0.0067	10.9333	11.1478	-8.2337	-0.3724	0.2133	0.5518	-0.7151
9.08	1.0488	-9.3482	3.3168	-0.0088	0.0068	-0.0156	10.7442	11.1506	-8.2919	-0.3724	0.2133	0.5518	-0.7151
9.09	1.0555	-9.3517	3.3192	-0.0057	-0.0015	-0.0153	10.7420	11.2190	-8.3703	-0.3723	0.2133	0.5518	-0.7150
9.1	1.0713	-9.3427	3.3176	-0.0013	0.0072	-0.0133	10.8496	11.1880	-8.2007	-0.3724	0.2133	0.5519	-0.7151
9.11	1.0755	-9.3282	3.3201	-0.0017	0.0040	-0.0123	10.9643	11.3459	-8.3133	-0.3723	0.2133	0.5519	-0.7150
9.12	1.0704	-9.3429	3.3304	-0.0014	0.0131	-0.0044	10.8522	11.4038	-8.5674	-0.3723	0.2134	0.5519	-0.7151
9.13	1.0655	-9.3509	3.3187	-0.0039	0.0181	-0.0081	10.8243	11.2070	-8.3968	-0.3723	0.2134	0.5519	-0.7150
9.14	1.0522	-9.3435	3.3069	-0.0044	0.0240	-0.0073	10.9506	10.8388	-8.4519	-0.3723	0.2135	0.5519	-0.7150
9.15	1.0379	-9.3362	3.3002	-0.0091	0.0231	-0.0054	10.7093	11.0677	-8.3343	-0.3723	0.2136	0.5519	-0.7150
9.16	1.0268	-9.3517	3.3039	-0.0037	0.0219	-0.0041	10.9074	11.1249	-8.1075	-0.3723	0.2137	0.5519	-0.7149
9.17	1.0194	-9.3761	3.3165	-0.0008	0.0272	-0.0050	10.9477	11.2000	-8.2703	-0.3723	0.2138	0.5519	-0.7150
9.18	1.0066	-9.3970	3.3311	-0.0035	0.0323	-0.0049	10.9021	11.0662	-8.3610	-0.3723	0.2139	0.5518	-0.7149
9.19	1.0049	-9.3873	3.3299	0.0139	0.0299	-0.0075	10.7422	11.1893	-8.2711	-0.3724	0.2140	0.5518	-0.7150
9.2	1.0109	-9.3520	3.3302	0.0139	0.0262	-0.0139	10.8176	11.1957	-8.2225	-0.3724	0.2140	0.5516	-0.7149
9.21	1.0101	-9.3189	3.3331	0.0130	0.0367	-0.0142	10.9625	11.2192	-8.3728	-0.3725	0.2141	0.5516	-0.7150
9.22	0.9955	-9.2879	3.3261	0.0055	0.0417	-0.0139	10.8728	11.3120	-8.4556	-0.3726	0.2142	0.5515	-0.7149
9.23	0.9667	-9.2790	3.3186	-0.0003	0.0480	-0.0068	10.8144	11.2707	-8.3614	-0.3727	0.2143	0.5514	-0.7149
9.24	0.9215	-9.2893	3.3079	-0.0017	0.0427	-0.0029	10.8567	11.3824	-8.2254	-0.3727	0.2145	0.5513	-0.7149
9.25	0.8833	-9.3064	3.3005	-0.0053	0.0352	-0.0080	10.9323	11.2626	-8.2650	-0.3728	0.2146	0.5513	-0.7148
9.26	0.8634	-9.3196	3.2998	-0.0089	0.0309	-0.0111	10.9365	11.2950	-8.4234	-0.3728	0.2147	0.5513	-0.7149
9.27	0.8689	-9.3314	3.2991	-0.0193	0.0252	-0.0091	10.9009	11.2918	-8.4445	-0.3728	0.2148	0.5512	-0.7148
9.28	0.8920	-9.3317	3.2972	-0.0093	0.0159	-0.0129	10.9699	11.2772	-8.2008	-0.3729	0.2148	0.5512	-0.7149
9.29	0.9114	-9.3347	3.3029	-0.0134	-0.0036	-0.0175	10.8151	11.3212	-8.1231	-0.3729	0.2148	0.5511	-0.7149
9.3	0.9321	-9.3464	3.2972	-0.0078	-0.0057	-0.0135	10.7983	11.1633	-8.2384	-0.3729	0.2147	0.5512	-0.7150
9.31	0.9399	-9.3546	3.2961	-0.0039	-0.0108	-0.0119	11.2824	10.9813	-8.2433	-0.3728	0.2147	0.5512	-0.7149
9.32	0.9443	-9.3610	3.2996	-0.0050	-0.0101	-0.0106	10.9844	11.1863	-8.1144	-0.3727	0.2146	0.5513	-0.7149
9.33	0.9591	-9.3718	3.2969	-0.0031	-0.0145	-0.0116	10.9381	11.1609	-8.2056	-0.3726	0.2146	0.5513	-0.7149
9.34	0.9739	-9.3799	3.3008	0.0005	-0.0191	-0.0105	10.8251	11.0193	-8.3354	-0.3725	0.2145	0.5514	-0.7149
9.35	0.9947	-9.3715	3.3008	0.0041	-0.0226	-0.0125	10.8533	11.0065	-8.3396	-0.3725	0.2144	0.5515	-0.7151
9.36	1.0179	-9.3542	3.3083	0.0054	-0.0212	-0.0104	11.0639	11.2064	-8.3226	-0.3724	0.2143	0.5515	-0.7151
9.37	1.0278	-9.3382	3.3098	0.0092	-0.0190	-0.0058	10.9882	11.3350	-8.3611	-0.3723	0.2142	0.5515	-0.7152
9.38	1.0322	-9.3183	3.3169	0.0032	-0.0145	-0.0054	11.0445	11.1827	-8.2295	-0.3721	0.2141	0.5515	-0.7151
9.39	1.0264	-9.2955	3.3068	-0.0040	-0.0193	-0.0049	10.8698	11.0937	-8.2514	-0.3721	0.2140	0.5516	-0.7152
9.4	1.0147	-9.3275	3.3154	-0.0017	-0.0133	-0.0043	10.8232	11.1478	-8.2122	-0.3719	0.2140	0.5516	-0.7152
9.41	1.0106	-9.3733	3.3238	-0.0032	-0.0168	-0.0095	10.8388	11.2996	-8.3571	-0.3718	0.2139	0.5517	-0.7153
9.42	1.0254	-9.3519	3.3205	-0.0017	-0.0148	-0.0085	10.8445	11.2783	-8.2071	-0.3718	0.2138	0.5518	-0.7153
9.43	1.0478	-9.3307	3.3239	0.0036	-0.0091	-0.0161	10.6885	11.4415	-8.3119	-0.3717	0.2138	0.5518	-0.7153
9.44	1.0829	-9.2959	3.3238	0.0037	-0.0042	-0.0212	10.6705	11.4369	-8.2946	-0.3717	0.2137	0.5518	-0.7154
9.45	1.0958	-9.2754	3.3404	-0.0014	0.0062	-0.0188	10.9633	11.2585	-8.2123	-0.3717	0.2137	0.5518	-0.7153
9.46	1.0768	-9.2856	3.3410	-0.0054	0.0125	-0.0149	10.8825	11.2163	-8.3688	-0.3717	0.2137	0.5519	-0.7153
9.47	1.0399	-9.3038	3.3368	-0.0078	0.0242	-0.0130	10.8318	10.9905	-8.4683	-0.3718	0.2137	0.5518	-0.7153
9.48	1.0062	-9.3184	3.3347	-0.0029	0.0205	-0.0167	10.8457	11.2183	-8.2785	-0.3718	0.2138	0.5517	-0.7153
9.49	0.9870	-9.3289	3.3360	-0.0051	0.0183	-0.0136	11.3652	11.5282	-8.1329	-0.3718	0.2138	0.5517	-0.7153
9.5	0.9800	-9.3356	3.3311	-0.0049	0.0167	-0.0157	11.8394	11.3362	-8.0437	-0.3719	0.2138	0.5517	-0.7153
9.51	0.9808	-9.3304	3.3189	-0.0022	0.0182	-0.0184	11.0769	11.2194	-7.9768	-0.3719	0.2139	0.5517	-0.7152
9.52	0.9842	-9.3306	3.3142	-0.0011	0.0105	-0.0124	10.9153	10.9624	-8.5036	-0.3719	0.2139	0.5517	-0.7152
9.53	0.9834	-9.3323	3.3112	-0.0018	0.0087	-0.0154	10.9543	11.0268	-8.3071	-0.3719	0.2139	0.5518	-0.7153
9.54	0.9809	-9.3234	3.3047	-0.0007	0.0055	-0.0155	11.0479	11.2319	-8.1832	-0.3719	0.2139	0.5517	-0.7152
9.55	0.9750	-9.3225	3.3078	-0.0135	0.0020	-0.0138	10.9663	11.0719	-8.3970	-0.3719	0.2139	0.5517	-0.7153
9.56	0.9822	-9.3257	3.3024	-0.0104	0.0012	-0.0120	10.8052	11.0749	-8.3671	-0.3718	0.2138	0.5516	-0.7153
9.57	0.9961	-9.3368	3.3049	-0.0070	-0.0055	-0.0145	11.0238	11.2029	-8.3911	-0.3718	0.2138	0.5517	-0.7154
9.58	1.0131	-9.3491	3.3033	-0.0093	-0.0044	-0.0086	11.1265	11.1216	-8.1728	-0.3718	0.2138	0.5517	-0.7153
9.59	1.0288	-9.3531	3.2993	-0.0126	-0.0021	-0.0131	10.8260	11.3311	-8.3054	-0.3717	0.2137	0.5517	-0.7153
9.6	1.0392	-9.3524	3.2894	-0.0099	-0.0005	-0.0082	10.7512	11.4525	-8.1718	-0.3717	0.2138	0.5519	-0.7154
9.61	1.0412	-9.3427	3.2860	-0.0136	0.0065	-0.0086	10.7620	11.2761	-8.2634	-0.3716	0.2138	0.5519	-0.7153
9.62	1.0300	-9.3410	3.2853	-0.0145	0.0037	-0.0070	10.9638	11.2348	-8.5095	-0.3716	0.2138	0.5520	-0.7153
9.63	1.0203	-9.3455	3.2912	-0.0135	0.0030	-0.0047	10.8195	11.3503	-8.3777	-0.3715	0.2138	0.5520	-0.7152
9.64	1.0071	-9.3560	3.2988	-0.0055	0.0126	-0.0099	10.8885	11.3355	-8.2734	-0.3715	0.2139	0.5520	-0.7152
9.65	0.9885	-9.3534	3.3043	-0.0089	0.0106	-0.0109	10.9027	11.3600	-8.4930	-0.3715	0.2139	0.5520	-0.7152
9.66	0.9702	-9.3582	3.3136	-0.0122	0.0111	-0.0071	10.8069	11.2572	-8.3912	-0.3714	0.2139	0.5521	-0.7152
9.67	0.9586	-9.3650	3.3116	-0.0055	0.0118	-0.0079	10.8704	11.2558	-8.2883	-0.3714	0.2140	0.5521	-0.7152
9.68	0.9568	-9.3638	3.3106	-0.0016	0.0131	-0.0083	10.8142	11.2451	-8.4078	-0.3714	0.2140	0.5521	-0.7151
9.69	0.9583	-9.3651	3.3031	-0.0044	0.0110	-0.0099	10.9003	11.0790	-8.3830	-0.3714	0.2141	0.5521	-0.7152
9.7	0.9631	-9.3702	3.3037	-0.0009	0.0144	-0.0145	11.0326	11.0655	-8.3615	-0.3714	0.2141	0.5521	-0.7151
9.71	0.9713	-9.3743	3.2975	-0.0014	0.0115	-0.0077	10.9109	11.3014	-8.4211	-0.3714	0.2141	0.5521	-0.7152
9.72	0.9712	-9.3685	3.3070	0.0047	0.0132	-0.0134	11.0984	10.8900	-8.4281	-0.3714	0.2141	0.5521	-0.7151
9.73	0.9740	-9.3599	3.2980	0.0108	0.0121	-0.0141	10.8302	11.0331	-8.1054	-0.3714	0.2141	0.5521	-0.7152
9.74	0.9732	-9.3474	3.3004	0.0126	0.0021	-0.0098	10.9457	11.2810	-8.4673	-0.3714	0.2141	0.5520	-0.7152
9.75	0.9668	-9.3424	3.3070	0.0162	0.0074	-0.0155	10.9072	11.3884	-8.1418	-0.3714	0.2140	0.5520	-0.7152
9.76	0.9640	-9.3321	3.3070	0.0137	-0.0007	-0.0126	10.8381	11.2197	-8.2066	-0.3714	0.2140	0.5520	-0.7153
9.77	0.9627	-9.3228	3.3160	0.0099	-0.0095	-0.0119	11.1579	11.1173	-8.3984	-0.3713	0.2139	0.5519	-0.7153
9.78	0.9642	-9.3206	3.3126	0.0056	-0.0028	-0.0129	10.9659	11.4064	-8.4056	-0.3713	0.2139	0.5520	-0.7154
9.79	0.9640	-9.3153	3.3178	0.0064	0.0018	-0.0170	10.6430	11.2744	-8.3165	-0.3713	0.2138	0.5519	-0.7154
9.8	0.9755	-9.3238	3.3259	0.0047	-0.0050	-0.0213	10.7154	11.2438	-8.3599	-0.3713	0.2138	0.5520	-0.7155
9.81	0.9918	-9.3223	3.3222	0.0036	-0.0019	-0.0194	10.9597	11.3400	-8.3876	-0.3713	0.2137	0.5520	-0.7154
9.82	1.0034	-9.3206	3.3231	-0.0032	-0.0049	-0.0181	10.9094	11.3629	-8.1569	-0.3713	0.2136	0.5520	-0.7154
9.83	1.0228	-9.3239	3.3177	-0.0017	-0.0048	-0.0241	10.7859	11.2865	-8.1972	-0.3712	0.2136	0.5521	-0.7154
9.84	1.0433	-9.3309	3.3155	0.0004	-0.0051	-0.0209	10.6437	11.2291	-8.2843	-0.3712	0.2135	0.5521	-0.7154
9.85	1.0493	-9.3351	3.3078	-0.0000	-0.0074	-0.0177	10.8896	11.3692	-8.3903	-0.3712	0.2134	0.5522	-0.7155
9.86	1.0461	-9.3368	3.3107	-0.0012	-0.0097	-0.0114	10.8027	11.4639	-8.2857	-0.3711	0.2134	0.5522	-0.7154
9.87	1.0467	-9.3415	3.3060	-0.0015	-0.0102	-0.0157	10.9809	11.1251	-8.4887	-0.3711	0.2133	0.5523	-0.7155
9.88	1.0474	-9.3471	3.3009	-0.0005	-0.0087	-0.0099	11.0501	10.9596	-8.4656	-0.3710	0.2132	0.5522	-0.7154
9.89	1.0463	-9.3540	3.3032	0.0028	-0.0078	-0.0149	10.9826	11.2332	-8.4622	-0.3710	0.2132	0.5523	-0.7155
9.9	1.0504	-9.3578	3.3009	-0.0002	-0.0031	-0.0181	10.8934	11.0967	-8.5028	-0.3710	0.2131	0.5523	-0.7155
9.91	1.0520	-9.3522	3.2988	0.0021	-0.0065	-0.0109	10.7177	11.0708	-8.3672	-0.3709	0.2131	0.5523	-0.7155
9.92	1.0574	-9.3398	3.2946	0.0010	-0.0048	-0.0080	10.8887	11.0860	-8.4010	-0.3709	0.2130	0.5524	-0.7155
9.93	1.0577	-9.3342	3.2946	-0.0029	-0.0053	-0.0073	10.9107	11.2076	-8.4630	-0.3708	0.2130	0.5524	-0.7155
9.94	1.0530	-9.3288	3.2958	-0.0001	-0.0009	-0.0090	10.8157	11.3073	-8.3548	-0.3707	0.2130	0.5524	-0.7156
9.95	1.0500	-9.3304	3.3028	-0.0030	0.0015	-0.0069	10.8524	11.1167	-8.3952	-0.3707	0.2130	0.5524	-0.7155
9.96	1.0544	-9.3533	3.3074	0.0081	-0.0023	-0.0099	10.8520	11.3378	-8.2732	-0.3707	0.2129	0.5525	-0.7156
9.97	1.0702	-9.3516	3.3152	0.0013	0.0046	-0.0144	10.8232	11.4043	-8.2998	-0.3706	0.2129	0.5524	-0.7156
9.98	1.0708	-9.3293	3.3081	0.0025	0.0098	-0.0131	10.9620	11.3537	-8.2983	-0.3706	0.2129	0.5525	-0.7156
9.99	1.0709	-9.3354	3.3110	0.0020	0.0173	-0.0134	11.3279	11.6727	-8.2869	-0.3706	0.2129	0.5524	-0.7156
10	1.0592	-9.3642	3.3016	-0.0014	0.0213	-0.0128	11.6917	11.4663	-8.2137	-0.3707	0.2130	0.5524	-0.7156
10.01	1.0505	-9.3607	3.3019	0.0055	0.0200	-0.0156	10.9994	11.3549	-8.3111	-0.3707	0.2130	0.5524	-0.7156
10.02	1.0411	-9.3533	3.2991	0.0000	0.0186	-0.0135	10.7005	11.1872	-8.1983	-0.3707	0.2130	0.5523	-0.7155
10.03	1.0298	-9.3469	3.3016	0.0125	0.0201	-0.0057	10.8895	11.1356	-8.4732	-0.3708	0.2131	0.5523	-0.7157
10.04	1.0258	-9.3456	3.3073	0.0098	0.0216	-0.0054	10.8233	11.2064	-8.3782	-0.3708	0.2131	0.5522	-0.7156
10.05	1.0219	-9.3518	3.3186	0.0141	0.0218	-0.0036	10.8518	11.2182	-8.3002	-0.3708	0.2132	0.5522	-0.7157
10.06	1.0116	-9.3542	3.3240	0.0136	0.0245	-0.0041	10.8416	11.0928	-8.4644	-0.3708	0.2132	0.5520	-0.7157
10.07	1.0034	-9.3512	3.3287	0.0117	0.0238	-0.0078	10.9564	11.0315	-8.2553	-0.3708	0.2133	0.5520	-0.7157
10.08	1.0005	-9.3277	3.3385	0.0255	0.0208	-0.0086	10.9213	11.3296	-8.2960	-0.3709	0.2133	0.5519	-0.7158
10.09	1.0026	-9.3042	3.3358	0.0031	0.0354	-0.0108	10.9388	11.1907	-8.3652	-0.3709	0.2134	0.5518	-0.7158
10.1	0.9870	-9.2990	3.3257	0.0020	0.0363	-0.0090	10.9287	11.2047	-8.3136	-0.3710	0.2135	0.5518	-0.7158
10.11	0.9550	-9.3075	3.3125	-0.0001	0.0330	-0.0102	11.0812	11.1914	-8.3680	-0.3711	0.2136	0.5517	-0.7158
10.12	0.9189	-9.3272	3.3022	-0.0025	0.0329	-0.0084	10.8855	11.2235	-8.4883	-0.3711	0.2137	0.5517	-0.7158
10.13	0.8960	-9.3458	3.2937	-0.0056	0.0267	-0.0083	10.7221	11.0807	-8.2073	-0.3711	0.2138	0.5516	-0.7157
10.14	0.8846	-9.3581	3.2870	-0.0011	0.0176	-0.0082	10.8902	11.2605	-8.2829	-0.3711	0.2139	0.5516	-0.7157
10.15	0.8920	-9.3573	3.2799	-0.0009	0.0077	-0.0157	10.7861	11.2447	-8.3386	-0.3711	0.2139	0.5516	-0.7157
10.16	0.9151	-9.3443	3.2808	0.0042	-0.0008	-0.0153	10.7230	11.1733	-8.4008	-0.3711	0.2138	0.5516	-0.7157
10.17	0.9540	-9.3489	3.2828	0.0018	-0.0027	-0.0235	10.8893	11.2167	-8.5612	-0.3711	0.2138	0.5517	-0.7157
10.18	0.9813	-9.3467	3.2827	0.0054	-0.0101	-0.0152	10.6480	11.3124	-8.3489	-0.3711	0.2137	0.5517	-0.7157
10.19	0.9922	-9.3476	3.2877	0.0069	-0.0148	-0.0187	10.7843	11.2211	-8.3723	-0.3711	0.2136	0.5517	-0.7158
10.2	1.0053	-9.3571	3.2988	0.0094	-0.0153	-0.0145	10.9446	11.1802	-8.5700	-0.3710	0.2134	0.5517	-0.7158
10.21	1.0033	-9.3667	3.3023	0.0078	-0.0159	-0.0070	10.9464	11.2163	-8.3599	-0.3709	0.2134	0.5517	-0.7159
10.22	1.0160	-9.3649	3.3073	0.0106	-0.0129	-0.0078	10.8766	11.1703	-8.3866	-0.3708	0.2133	0.5517	-0.7159
10.23	1.0330	-9.3576	3.3186	0.0186	-0.0155	-0.0067	10.8437	11.2835	-8.4383	-0.3708	0.2132	0.5517	-0.7161
10.24	1.0493	-9.3486	3.3210	0.0199	-0.0110	-0.0071	10.7369	11.2917	-8.4442	-0.3707	0.2131	0.5516	-0.7161
10.25	1.0693	-9.3243	3.3172	0.0210	-0.0173	-0.0060	10.7948	11.0268	-8.5237	-0.3706	0.2130	0.5516	-0.7162
10.26	1.0721	-9.3124	3.3152	0.0134	-0.0088	-0.0056	11.0406	11.0419	-8.5753	-0.3706	0.2129	0.5516	-0.7163
10.27	1.0602	-9.3019	3.3061	0.0096	-0.0033	-0.0045	11.0137	11.2648	-8.6340	-0.3705	0.2129	0.5515	-0.7163
10.28	1.0565	-9.3432	3.3195	0.0025	-0.0055	-0.0066	11.0189	10.8116	-8.4939	-0.3705	0.2129	0.5516	-0.7164
10.29	1.0620	-9.3599	3.3321	0.0151	-0.0005	-0.0085	10.8739	11.1270	-8.5162	-0.3704	0.2128	0.5515	-0.7164
10.3	1.0701	-9.3484	3.3314	0.0174	0.0031	-0.0123	10.7747	11.1459	-8.5537	-0.3704	0.2128	0.5515	-0.7166
10.31	1.0796	-9.3237	3.3328	0.0166	0.0049	-0.0122	10.7255	11.1900	-8.3133	-0.3704	0.2127	0.5514	-0.7165
10.32	1.0904	-9.2959	3.3343	0.0241	0.0150	-0.0138	11.0428	11.3023	-8.2501	-0.3705	0.2127	0.5514	-0.7166
10.33	1.0803	-9.2785	3.3429	0.0211	0.0214	-0.0080	10.9197	11.1580	-8.3774	-0.3705	0.2127	0.5513	-0.7167
10.34	1.0505	-9.2867	3.3413	0.0151	0.0317	-0.0064	10.7317	11.2153	-8.3114	-0.3705	0.2128	0.5511	-0.7167
10.35	1.0112	-9.3048	3.3376	0.0061	0.0389	-0.0036	10.7603	11.1858	-8.3702	-0.3706	0.2129	0.5511	-0.7168
10.36	0.9783	-9.3199	3.3364	-0.0001	0.0337	-0.0042	10.6361	11.3318	-8.5988	-0.3706	0.2130	0.5510	-0.7167
10.37	0.9544	-9.3220	3.3350	0.0037	0.0298	-0.0061	10.9397	10.9930	-8.6304	-0.3707	0.2131	0.5509	-0.7168
10.38	0.9401	-9.3208	3.3359	0.0005	0.0247	-0.0100	10.8511	11.1376	-8.5280	-0.3707	0.2131	0.5507	-0.7167
10.39	0.9453	-9.3215	3.3280	0.0067	0.0268	-0.0113	10.7152	11.0658	-8.2738	-0.3708	0.2132	0.5507	-0.7168
10.4	0.9515	-9.3239	3.3193	0.0004	0.0171	-0.0095	10.8122	11.2407	-8.5905	-0.3708	0.2132	0.5505	-0.7169
10.41	0.9550	-9.3272	3.3205	-0.0062	0.0114	-0.0049	10.8747	11.5298	-8.6269	-0.3708	0.2132	0.5504	-0.7169
10.42	0.9575	-9.3272	3.3209	0.0020	0.0150	-0.0064	10.6245	11.2244	-8.5307	-0.3709	0.2132	0.5504	-0.7170
10.43	0.9650	-9.3389	3.3200	-0.0013	0.0124	-0.0054	10.8325	11.3356	-8.6049	-0.3708	0.2133	0.5503	-0.7170
10.44	0.9762	-9.3531	3.3239	-0.0008	0.0034	-0.0062	11.0434	11.1961	-8.4913	-0.3708	0.2133	0.5504	-0.7171
10.45	0.9906	-9.3585	3.3247	0.0025	-0.0024	-0.0055	10.9295	11.2165	-8.5404	-0.3707	0.2132	0.5503	-0.7170
10.46	1.0046	-9.3596	3.3281	-0.0003	0.0072	-0.0066	10.9315	11.0517	-8.3903	-0.3707	0.2133	0.5504	-0.7171
10.47	1.0114	-9.3579	3.3305	0.0107	0.0129	-0.0037	11.0890	11.0567	-8.4470	-0.3707	0.2133	0.5503	-0.7171
10.48	1.0111	-9.3521	3.3296	0.0080	0.0040	-0.0045	11.1656	11.1767	-8.3600	-0.3707	0.2133	0.5503	-0.7172
10.49	1.0029	-9.3459	3.3270	0.0124	0.0163	-0.0033	11.3291	11.3306	-8.2124	-0.3706	0.2133	0.5502	-0.7172
10.5	0.9981	-9.3439	3.3298	0.0034	0.0151	-0.0031	11.6536	11.3681	-8.3131	-0.3706	0.2134	0.5502	-0.7172
10.51	0.9921	-9.3371	3.3315	0.0038	0.0209	-0.0032	11.2454	11.0754	-8.3782	-0.3706	0.2134	0.5502	-0.7172
10.52	0.9850	-9.3398	3.3261	0.0096	0.0211	-0.0028	10.9828	11.0014	-8.1882	-0.3706	0.2135	0.5500	-0.7172
10.53	0.9767	-9.3475	3.3302	0.0094	0.0254	-0.0030	10.9248	11.0280	-8.2840	-0.3707	0.2136	0.5500	-0.7173
10.54	0.9673	-9.3544	3.3232	0.0115	0.0198	-0.0029	10.8666	11.5539	-8.3693	-0.3706	0.2136	0.5499	-0.7173
10.55	0.9525	-9.3620	3.3268	0.0054	0.0215	-0.0032	10.8116	11.4267	-8.6425	-0.3707	0.2137	0.5499	-0.7174
10.56	0.9483	-9.3585	3.3225	0.0040	0.0264	-0.0043	10.8277	11.0270	-8.3567	-0.3706	0.2137	0.5498	-0.7173
10.57	0.9361	-9.3718	3.3293	0.0150	0.0299	-0.0035	10.7077	11.2674	-8.4134	-0.3707	0.2138	0.5497	-0.7174
10.58	0.9269	-9.3730	3.3315	0.0167	0.0299	-0.0039	10.9378	11.1965	-8.3817	-0.3707	0.2139	0.5496	-0.7174
10.59	0.9106	-9.3640	3.3377	0.0196	0.0250	-0.0036	10.8089	11.2417	-8.4297	-0.3708	0.2139	0.5495	-0.7174
10.6	0.8982	-9.3470	3.3430	0.0249	0.0308	-0.0060	10.8284	11.3628	-8.2554	-0.3709	0.2140	0.5494	-0.7176
10.61	0.8859	-9.3308	3.3481	0.0249	0.0275	-0.0074	10.9477	11.2415	-8.3978	-0.3709	0.2140	0.5492	-0.7176
10.62	0.8796	-9.3179	3.3474	0.0205	0.0202	-0.0044	11.0866	11.2379	-8.7496	-0.3709	0.2141	0.5492	-0.7177
10.63	0.8739	-9.3116	3.3489	0.0233	0.0167	-0.0097	11.0894	10.9801	-8.4352	-0.3709	0.2141	0.5490	-0.7177
10.64	0.8710	-9.3087	3.3509	0.0226	0.0059	-0.0119	10.8767	10.8923	-8.6305	-0.3710	0.2140	0.5490	-0.7178
10.65	0.8774	-9.3185	3.3487	0.0231	0.0043	-0.0127	11.0717	11.1274	-8.6712	-0.3710	0.2140	0.5489	-0.7179
10.66	0.8925	-9.3298	3.3516	0.0220	0.0028	-0.0172	10.8299	11.1899	-8.6787	-0.3710	0.2139	0.5488	-0.7179
10.67	0.9014	-9.3302	3.3593	0.0236	-0.0052	-0.0116	10.7098	11.1688	-8.5671	-0.3710	0.2138	0.5488	-0.7180
10.68	0.9112	-9.3226	3.3667	0.0252	-0.0041	-0.0074	10.7582	11.0349	-8.3161	-0.3709	0.2137	0.5487	-0.7181
10.69	0.9177	-9.3235	3.3719	0.0232	-0.0053	-0.0097	10.8864	10.9891	-8.5108	-0.3709	0.2137	0.5487	-0.7182
10.7	0.9202	-9.3100	3.3810	0.0250	-0.0044	-0.0065	11.0067	11.0005	-8.3704	-0.3708	0.2136	0.5485	-0.7182
10.71	0.9283	-9.2987	3.3884	0.0242	-0.0106	-0.0101	10.8925	11.1137	-8.4237	-0.3708	0.2135	0.5485	-0.7184
10.72	0.9344	-9.2857	3.3898	0.0242	-0.0167	-0.0121	11.0844	11.3789	-8.3194	-0.3708	0.2133	0.5484	-0.7185
10.73	0.9431	-9.2720	3.3987	0.0211	-0.0140	-0.0160	10.7682	11.2717	-8.3778	-0.3708	0.2132	0.5483	-0.7186
10.74	0.9569	-9.2709	3.3997	0.0219	-0.0161	-0.0165	10.6115	11.2621	-8.4057	-0.3708	0.2130	0.5482	-0.7187
10.75	0.9736	-9.2614	3.3924	0.0158	-0.0171	-0.0133	10.7975	11.2569	-8.2798	-0.3707	0.2129	0.5481	-0.7189
10.76	0.9812	-9.2697	3.3919	0.0039	-0.0173	-0.0190	10.6358	11.2736	-8.5073	-0.3707	0.2128	0.5481	-0.7190
10.77	0.9902	-9.2913	3.3831	0.0035	-0.0180	-0.0139	10.7116	11.2370	-8.4675	-0.3706	0.2126	0.5480	-0.7190
10.78	0.9978	-9.2990	3.3851	0.0009	-0.0264	-0.0151	10.9617	11.4000	-8.6236	-0.3706	0.2125	0.5481	-0.7192
10.79	1.0016	-9.3018	3.3832	-0.0010	-0.0221	-0.0179	10.7084	11.2640	-8.3726	-0.3706	0.2123	0.5480	-0.7192
10.8	1.0102	-9.3032	3.3847	0.0037	-0.0189	-0.0111	10.8192	11.0952	-8.4990	-0.3705	0.2122	0.5480	-0.7194
10.81	1.0132	-9.2995	3.3881	0.0101	-0.0181	-0.0122	10.8003	10.9814	-8.3632	-0.3704	0.2121	0.5479	-0.7194
10.82	1.0292	-9.2874	3.3864	0.0102	-0.0203	-0.0101	10.9867	10.9203	-8.4425	-0.3704	0.2119	0.5479	-0.7195
10.83	1.0380	-9.2811	3.3931	0.0058	-0.0189	-0.0179	11.1143	11.0335	-8.4311	-0.3703	0.2118	0.5479	-0.7196
10.84	1.0494	-9.2667	3.3960	0.0093	-0.0084	-0.0148	11.0913	10.9897	-8.4357	-0.3703	0.2117	0.5478	-0.7197
10.85	1.0539	-9.2699	3.4030	-0.0018	-0.0065	-0.0186	10.9729	10.9926	-8.7200	-0.3704	0.2116	0.5478	-0.7198
10.86	1.0440	-9.2872	3.4101	-0.0003	-0.0071	-0.0182	10.7571	11.0289	-8.5022	-0.3703	0.2115	0.5477	-0.7198
10.87	1.0357	-9.2900	3.3999	-0.0015	-0.0065	-0.0111	10.8968	11.1194	-8.6861	-0.3703	0.2114	0.5477	-0.7199
10.88	1.0368	-9.2916	3.3831	-0.0024	-0.0052	-0.0149	10.9940	10.9846	-8.5719	-0.3703	0.2113	0.5476	-0.7199
10.89	1.0434	-9.2928	3.3710	-0.0076	-0.0047	-0.0170	11.1131	11.0062	-8.5753	-0.3703	0.2113	0.5476	-0.7200
10.9	1.0475	-9.3038	3.3710	-0.0076	-0.0060	-0.0091	10.8694	11.0148	-8.5721	-0.3702	0.2112	0.5476	-0.7200
10.91	1.0481	-9.3451	3.3754	-0.0064	0.0051	-0.0034	10.7780	11.2703	-8.5882	-0.3702	0.2113	0.5476	-0.7200
10.92	1.0373	-9.3636	3.3816	-0.0055	0.0111	-0.0045	10.9659	11.2679	-8.4767	-0.3701	0.2113	0.5476	-0.7200
10.93	1.0256	-9.3579	3.3897	-0.0040	0.0176	-0.0047	10.6990	11.3977	-8.4890	-0.3701	0.2114	0.5476	-0.7200
10.94	1.0196	-9.3281	3.3873	-0.0009	0.0247	-0.0069	10.6656	11.2567	-8.2763	-0.3701	0.2115	0.5476	-0.7200
10.95	1.0132	-9.2929	3.3810	-0.0018	0.0286	-0.0081	10.8575	11.3569	-8.4140	-0.3701	0.2115	0.5475	-0.7199
10.96	1.0066	-9.2802	3.3742	-0.0013	0.0260	-0.0065	10.6955	11.2247	-8.3704	-0.3702	0.2116	0.5476	-0.7200
10.97	0.9870	-9.2885	3.3594	-0.0070	0.0293	-0.0042	10.7509	11.1725	-8.4729	-0.3702	0.2117	0.5475	-0.7200
10.98	0.9583	-9.3043	3.3541	-0.0108	0.0318	-0.0161	10.7346	11.3971	-8.4172	-0.3703	0.2118	0.5475	-0.7199
10.99	0.9156	-9.3157	3.3440	-0.0070	0.0255	-0.0078	11.2524	11.1473	-8.3957	-0.3703	0.2119	0.5475	-0.7199
11	0.8861	-9.3270	3.3368	-0.0115	0.0213	-0.0094	11.6398	10.9920	-8.3829	-0.3703	0.2120	0.5475	-0.7198
11.01	0.8782	-9.3456	3.3338	-0.0059	0.0148	-0.0137	11.1843	10.9080	-8.2123	-0.3703	0.2120	0.5476	-0.7198
11.02	0.8825	-9.3536	3.3322	-0.0051	0.0127	-0.0121	11.1789	10.9394	-8.4109	-0.3703	0.2121	0.5475	-0.7197
11.03	0.8899	-9.3583	3.3355	-0.0067	0.0081	-0.0166	11.2237	10.7769	-8.5149	-0.3703	0.2121	0.5476	-0.7198
11.04	0.8936	-9.3636	3.3386	-0.0032	0.0006	-0.0130	10.9568	10.9468	-8.3180	-0.3703	0.2121	0.5476	-0.7197
11.05	0.8972	-9.3810	3.3325	-0.0036	-0.0071	-0.0108	10.7035	11.2740	-8.4135	-0.3702	0.2120	0.5477	-0.7198
11.06	0.9096	-9.3882	3.3353	-0.0008	-0.0041	-0.0137	10.8572	11.3038	-8.4219	-0.3702	0.2120	0.5477	-0.7197
11.07	0.9225	-9.3915	3.3400	-0.0014	-0.0121	-0.0164	10.8108	11.0690	-8.4483	-0.3701	0.2119	0.5477	-0.7198
11.08	0.9439	-9.3881	3.3462	0.0144	-0.0104	-0.0140	10.6775	10.8837	-8.3321	-0.3701	0.2118	0.5477	-0.7198
11.09	0.9712	-9.3710	3.3535	0.0146	-0.0153	-0.0126	10.9203	11.2021	-8.4089	-0.3700	0.2117	0.5477	-0.7199
11.1	0.9943	-9.3503	3.3614	0.0209	-0.0188	-0.0141	11.0193	11.2873	-8.4165	-0.3700	0.2116	0.5478	-0.7200
11.11	1.0139	-9.3169	3.3690	0.0251	-0.0175	-0.0184	10.8811	11.2342	-8.3150	-0.3700	0.2114	0.5477	-0.7201
11.12	1.0259	-9.2999	3.3720	0.0213	-0.0170	-0.0080	10.7425	11.1545	-8.5340	-0.3699	0.2113	0.5477	-0.7202
11.13	1.0204	-9.2643	3.3713	0.0173	-0.0069	-0.0080	10.7596	11.1886	-8.4991	-0.3698	0.2112	0.5476	-0.7202
11.14	1.0191	-9.2829	3.3846	0.0205	-0.0078	-0.0077	10.8130	11.1747	-8.5328	-0.3698	0.2111	0.5476	-0.7203
11.15	1.0223	-9.3157	3.3926	0.0177	-0.0101	-0.0063	10.5936	11.3447	-8.4740	-0.3697	0.2110	0.5475	-0.7204
11.16	1.0232	-9.2928	3.3968	0.0210	-0.0023	-0.0121	11.0425	11.0783	-8.3211	-0.3697	0.2110	0.5475	-0.7204
11.17	1.0292	-9.2725	3.3996	0.0226	-0.0052	-0.0069	10.9917	11.1199	-8.3198	-0.3697	0.2109	0.5474	-0.7206
11.18	1.0432	-9.2546	3.4058	0.0228	0.0045	-0.0064	11.0329	11.0355	-8.4791	-0.3697	0.2108	0.5473	-0.7206
11.19	1.0387	-9.2527	3.4048	0.0183	0.0115	-0.0079	10.9501	11.0517	-8.4903	-0.3697	0.2108	0.5473	-0.7207
11.2	1.0117	-9.2568	3.4192	0.0111	0.0133	-0.0036	10.8988	11.1151	-8.2574	-0.3697	0.2108	0.5470	-0.7208
11.21	0.9814	-9.2678	3.4231	0.0018	0.0208	-0.0080	11.0528	11.0905	-8.6334	-0.3697	0.2108	0.5470	-0.7209
11.22	0.9524	-9.2697	3.4242	0.0011	0.0127	-0.0034	10.8023	10.9051	-8.6458	-0.3697	0.2109	0.5469	-0.7209
11.23	0.9296	-9.2783	3.4241	0.0004	0.0186	-0.0055	10.9351	11.0439	-8.6071	-0.3698	0.2109	0.5468	-0.7210
11.24	0.9255	-9.2860	3.4153	-0.0013	0.0120	-0.0120	10.8891	11.2168	-8.4780	-0.3698	0.2109	0.5467	-0.7210
11.25	0.9356	-9.2802	3.4172	-0.0029	0.0106	-0.0079	10.7471	11.1565	-8.5914	-0.3698	0.2109	0.5466	-0.7211
11.26	0.9420	-9.2708	3.4121	-0.0063	0.0108	-0.0079	10.8260	11.2131	-8.4960	-0.3698	0.2109	0.5466	-0.7212
11.27	0.9426	-9.2642	3.4032	-0.0004	0.0129	-0.0068	10.6084	11.0769	-8.3858	-0.3698	0.2109	0.5464	-0.7211
11.28	0.9447	-9.2671	3.3918	-0.0053	0.0111	-0.0130	10.8814	11.1124	-8.4307	-0.3698	0.2109	0.5465	-0.7213
11.29	0.9444	-9.2784	3.3809	-0.0076	0.0018	-0.0152	10.8083	11.0645	-8.1301	-0.3698	0.2109	0.5464	-0.7213
11.3	0.9514	-9.2928	3.3813	-0.0189	0.0019	-0.0131	10.8544	11.1905	-8.4148	-0.3698	0.2109	0.5464	-0.7213
11.31	0.9600	-9.3072	3.3796	-0.0159	0.0028	-0.0126	10.8032	11.0808	-8.5017	-0.3698	0.2108	0.5464	-0.7212
11.32	0.9703	-9.3197	3.3818	-0.0071	-0.0014	-0.0155	10.9925	10.9952	-8.5413	-0.3698	0.2108	0.5465	-0.7213
11.33	0.9757	-9.3239	3.3823	-0.0071	0.0068	-0.0182	10.9649	11.1790	-8.4303	-0.3698	0.2108	0.5465	-0.7212
11.34	0.9840	-9.3224	3.3723	-0.0051	0.0061	-0.0171	10.8967	11.1939	-8.1145	-0.3697	0.2108	0.5465	-0.7212
11.35	0.9805	-9.3171	3.3661	-0.0024	0.0128	-0.0159	11.0403	11.1630	-8.2520	-0.3698	0.2108	0.5466	-0.7213
11.36	0.9831	-9.3263	3.3633	-0.0032	0.0023	-0.0090	10.8460	11.2355	-8.2463	-0.3697	0.2108	0.5466	-0.7212
11.37	0.9893	-9.3275	3.3671	-0.0009	0.0068	-0.0092	10.8609	11.2428	-8.4472	-0.3697	0.2108	0.5466	-0.7212
11.38	0.9917	-9.3352	3.3624	-0.0020	0.0105	-0.0098	11.1234	10.9892	-8.3239	-0.3697	0.2108	0.5465	-0.7211
11.39	0.9901	-9.3462	3.3631	-0.0007	0.0080	-0.0075	11.1881	10.9985	-8.1954	-0.3697	0.2108	0.5466	-0.7212
11.4	0.9885	-9.3501	3.3613	-0.0046	0.0121	-0.0123	10.8507	11.0588	-8.4694	-0.3697	0.2109	0.5466	-0.7212
11.41	0.9854	-9.3538	3.3526	0.0006	0.0141	-0.0090	10.8193	11.1015	-8.5384	-0.3697	0.2109	0.5466	-0.7212
11.42	0.9804	-9.3566	3.3494	0.0045	0.0157	-0.0098	10.8367	11.0928	-8.4010	-0.3697	0.2109	0.5466	-0.7212
11.43	0.9793	-9.3599	3.3488	0.0031	0.0169	-0.0065	10.8339	11.2201	-8.2762	-0.3697	0.2109	0.5465	-0.7212
11.44	0.9652	-9.3613	3.3421	0.0045	0.0219	-0.0084	11.0370	11.3314	-8.2155	-0.3697	0.2110	0.5465	-0.7212
11.45	0.9541	-9.3656	3.3422	-0.0014	0.0126	-0.0036	10.9087	11.0563	-8.3198	-0.3697	0.2110	0.5464	-0.7212
11.46	0.9471	-9.3602	3.3442	0.0060	0.0197	-0.0047	10.9474	11.1487	-8.3488	-0.3697	0.2111	0.5465	-0.7213
11.47	0.9392	-9.3540	3.3464	0.0162	0.0223	-0.0022	10.8650	11.1084	-8.4337	-0.3697	0.2111	0.5464	-0.7213
11.48	0.9275	-9.3414	3.3490	0.0143	0.0243	-0.0055	10.9012	10.9470	-8.1302	-0.3697	0.2112	0.5463	-0.7213
11.49	0.9100	-9.3393	3.3521	0.0114	0.0180	-0.0046	11.4658	11.2220	-8.1403	-0.3697	0.2112	0.5462	-0.7213
11.5	0.9054	-9.3298	3.3555	0.0221	0.0179	-0.0097	11.8047	11.2142	-8.0427	-0.3698	0.2112	0.5461	-0.7214
11.51	0.9125	-9.3249	3.3625	0.0175	0.0226	-0.0144	10.9333	11.0981	-8.3085	-0.3698	0.2113	0.5460	-0.7214
11.52	0.9161	-9.3182	3.3692	0.0157	0.0145	-0.0140	10.8275	10.9762	-8.2603	-0.3698	0.2112	0.5459	-0.7214
11.53	0.9218	-9.3136	3.3778	0.0164	0.0144	-0.0166	11.0000	11.1055	-8.3058	-0.3699	0.2112	0.5459	-0.7215
