time	acceleration_x	acceleration_y	acceleration_z	gyroscope_x	gyroscope_y	gyroscope_z	magnetometer_x	magnetometer_y	magnetometer_z	quaternion_w	quaternion_x	quaternion_y	quaternion_z
0	-0.4103	-10.0574	-1.4716	0.0120	0.0074	-0.0194	17.6559	27.9841	4.3261	0.6237	-0.7812	0.0067	0.0285
0.01	-0.4242	-10.0544	-1.4787	0.0119	0.0120	-0.0114	17.8518	27.7775	4.3455	0.6237	-0.7810	0.0067	0.0285
0.02	-0.4207	-10.0408	-1.4647	0.0151	0.0168	-0.0074	17.9614	27.9794	4.3579	0.6238	-0.7811	0.0067	0.0286
0.03	-0.4196	-10.0425	-1.4577	0.0105	0.0209	-0.0098	17.7516	28.0136	4.1303	0.6238	-0.7810	0.0068	0.0285
0.04	-0.4319	-10.0479	-1.4736	0.0094	0.0172	-0.0081	17.7850	28.2460	4.3053	0.6239	-0.7810	0.0068	0.0286
0.05	-0.4300	-10.0526	-1.4603	0.0138	0.0139	-0.0078	17.7298	27.8224	4.4603	0.6239	-0.7809	0.0068	0.0286
0.06	-0.4325	-10.0464	-1.4635	0.0082	0.0229	-0.0065	17.9567	27.9201	4.3080	0.6240	-0.7809	0.0069	0.0286
0.07	-0.4506	-10.0357	-1.4658	0.0073	0.0274	-0.0077	17.8401	28.1745	4.3609	0.6240	-0.7809	0.0069	0.0286
0.08	-0.4821	-10.0161	-1.4708	0.0081	0.0350	-0.0093	17.9694	27.9510	4.3333	0.6240	-0.7808	0.0070	0.0286
0.09	-0.5047	-9.9964	-1.4829	0.0083	0.0306	-0.0089	17.8643	28.0400	4.3522	0.6241	-0.7809	0.0071	0.0285
0.1	-0.5181	-9.9852	-1.4820	-0.0009	0.0205	-0.0107	17.8143	28.1083	4.3367	0.6241	-0.7808	0.0071	0.0285
0.11	-0.5254	-9.9870	-1.4912	-0.0041	0.0263	-0.0178	18.0000	27.7643	4.3593	0.6241	-0.7808	0.0071	0.0285
0.12	-0.5181	-9.9977	-1.4890	-0.0079	0.0225	-0.0176	17.8126	27.6291	4.3449	0.6240	-0.7808	0.0072	0.0285
0.13	-0.5190	-10.0213	-1.4823	-0.0044	0.0271	-0.0227	18.1136	27.9194	4.3540	0.6240	-0.7809	0.0072	0.0284
0.14	-0.5353	-10.0343	-1.5079	-0.0113	0.0213	-0.0197	17.9424	27.7102	4.3289	0.6240	-0.7809	0.0072	0.0284
0.15	-0.5394	-10.0621	-1.5086	-0.0108	0.0063	-0.0208	17.9381	27.9024	4.3823	0.6239	-0.7809	0.0071	0.0284
0.16	-0.5343	-10.0876	-1.5197	-0.0123	0.0096	-0.0211	17.8507	28.0230	4.1756	0.6239	-0.7810	0.0071	0.0284
0.17	-0.5156	-10.0830	-1.5218	-0.0088	0.0040	-0.0219	17.8177	27.8571	4.2404	0.6239	-0.7810	0.0070	0.0284
0.18	-0.4968	-10.0828	-1.5168	-0.0027	0.0020	-0.0172	17.7096	27.9918	4.3979	0.6239	-0.7811	0.0070	0.0285
0.19	-0.4938	-10.0898	-1.5287	0.0057	0.0000	-0.0167	17.9680	27.6686	4.2235	0.6238	-0.7809	0.0069	0.0285
0.2	-0.4751	-10.0767	-1.5296	0.0112	-0.0069	-0.0136	17.7905	27.7227	4.5311	0.6239	-0.7809	0.0068	0.0286
0.21	-0.4613	-10.0772	-1.5238	0.0025	-0.0033	-0.0181	17.7524	27.9951	4.3287	0.6240	-0.7809	0.0068	0.0287
0.22	-0.4600	-10.0794	-1.5327	-0.0002	-0.0052	-0.0179	17.7619	27.7951	4.4286	0.6239	-0.7809	0.0067	0.0288
0.23	-0.4427	-10.0711	-1.5252	0.0104	-0.0115	-0.0179	17.7556	28.0343	4.5528	0.6240	-0.7809	0.0066	0.0289
0.24	-0.4253	-10.0612	-1.5183	0.0051	0.0032	-0.0222	17.7749	27.8644	4.3630	0.6240	-0.7808	0.0065	0.0289
0.25	-0.4234	-10.0963	-1.5203	0.0131	0.0019	-0.0188	17.9325	27.9815	4.3346	0.6241	-0.7808	0.0065	0.0289
0.26	-0.4278	-10.0806	-1.5305	0.0141	0.0028	-0.0156	17.5973	28.1189	4.3447	0.6241	-0.7807	0.0065	0.0290
0.27	-0.4338	-10.0700	-1.4945	0.0138	0.0062	-0.0223	17.8841	27.9320	4.3388	0.6242	-0.7807	0.0064	0.0290
0.28	-0.4626	-10.0670	-1.5150	0.0160	0.0008	-0.0184	17.8480	27.9711	4.5374	0.6243	-0.7807	0.0063	0.0290
0.29	-0.4515	-10.0370	-1.5009	0.0152	0.0007	-0.0191	17.7735	27.9536	4.4569	0.6243	-0.7806	0.0063	0.0291
0.3	-0.4315	-10.0284	-1.4665	0.0141	0.0005	-0.0188	18.0884	27.7970	4.3370	0.6244	-0.7806	0.0062	0.0291
0.31	-0.4364	-10.0324	-1.4827	0.0149	0.0098	-0.0204	17.8709	27.9789	4.3458	0.6244	-0.7805	0.0062	0.0292
0.32	-0.4577	-10.0138	-1.4771	0.0141	0.0009	-0.0188	18.0118	27.7943	4.3730	0.6245	-0.7805	0.0061	0.0292
0.33	-0.4817	-9.9921	-1.4698	0.0154	0.0041	-0.0187	17.7298	27.5949	4.2418	0.6245	-0.7803	0.0061	0.0292
0.34	-0.4956	-9.9921	-1.4783	0.0126	0.0038	-0.0245	17.5736	28.0228	4.2774	0.6246	-0.7804	0.0060	0.0293
0.35	-0.4859	-9.9955	-1.4763	0.0049	0.0024	-0.0199	17.8825	27.9201	4.1940	0.6246	-0.7803	0.0060	0.0293
0.36	-0.4577	-10.0089	-1.4780	-0.0045	-0.0081	-0.0268	17.8127	27.9976	4.1622	0.6247	-0.7804	0.0058	0.0293
0.37	-0.4359	-10.0309	-1.4839	-0.0091	-0.0162	-0.0248	18.0751	27.9108	4.1332	0.6246	-0.7803	0.0057	0.0294
0.38	-0.4201	-10.0538	-1.4899	-0.0119	-0.0170	-0.0187	17.8518	27.9335	4.3732	0.6246	-0.7804	0.0056	0.0296
0.39	-0.4045	-10.0773	-1.4980	-0.0166	-0.0114	-0.0229	17.7119	27.8454	4.3680	0.6245	-0.7804	0.0055	0.0296
0.4	-0.3936	-10.0916	-1.4983	-0.0120	-0.0072	-0.0230	17.8634	27.8737	4.0982	0.6244	-0.7804	0.0054	0.0297
0.41	-0.3742	-10.1052	-1.5078	-0.0131	-0.0049	-0.0164	17.8382	28.0545	4.4153	0.6245	-0.7805	0.0053	0.0298
0.42	-0.3674	-10.0995	-1.5096	-0.0055	0.0074	-0.0109	18.0274	27.9556	4.2855	0.6244	-0.7805	0.0053	0.0298
0.43	-0.3750	-10.0935	-1.5092	0.0110	0.0103	-0.0086	17.9611	28.0959	4.4503	0.6245	-0.7805	0.0053	0.0299
0.44	-0.3954	-10.0722	-1.5152	0.0124	0.0152	-0.0088	18.0611	28.1592	4.4144	0.6244	-0.7804	0.0053	0.0299
0.45	-0.4047	-10.0696	-1.5113	0.0143	0.0141	-0.0112	18.7216	28.2677	4.3464	0.6245	-0.7804	0.0053	0.0299
0.46	-0.4145	-10.0673	-1.5167	0.0091	0.0183	-0.0084	18.8336	28.2652	4.4377	0.6246	-0.7804	0.0053	0.0300
0.47	-0.4399	-10.0661	-1.5055	0.0127	0.0200	-0.0092	17.9652	28.3362	4.2026	0.6246	-0.7803	0.0054	0.0300
0.48	-0.4527	-10.0750	-1.5094	0.0153	0.0238	-0.0078	17.9986	28.0677	4.3236	0.6247	-0.7803	0.0054	0.0300
0.49	-0.4645	-10.0795	-1.5074	0.0150	0.0241	-0.0081	17.8850	27.6368	4.2566	0.6247	-0.7802	0.0054	0.0300
0.5	-0.4780	-10.0858	-1.5187	0.0146	0.0235	-0.0081	18.0330	27.7818	4.1823	0.6248	-0.7802	0.0055	0.0300
0.51	-0.4802	-10.0857	-1.5209	0.0125	0.0183	-0.0085	17.9314	27.6994	4.3109	0.6248	-0.7801	0.0055	0.0300
0.52	-0.4879	-10.0860	-1.5232	0.0148	0.0174	-0.0083	17.8186	27.8695	4.1868	0.6249	-0.7801	0.0056	0.0300
0.53	-0.4982	-10.0787	-1.5292	0.0125	0.0194	-0.0083	17.8514	27.7811	4.3761	0.6250	-0.7801	0.0056	0.0300
0.54	-0.5074	-10.0804	-1.5301	0.0152	0.0188	-0.0092	17.8425	27.9059	4.1093	0.6250	-0.7800	0.0056	0.0300
0.55	-0.5048	-10.0886	-1.5348	0.0122	0.0162	-0.0093	17.7541	28.0037	4.1043	0.6251	-0.7800	0.0057	0.0300
0.56	-0.5106	-10.0873	-1.5269	0.0232	-0.0012	-0.0091	17.7403	27.8686	4.1163	0.6252	-0.7799	0.0056	0.0301
0.57	-0.5237	-10.0863	-1.5194	0.0313	0.0063	-0.0113	17.7743	27.7641	4.1165	0.6253	-0.7798	0.0056	0.0302
0.58	-0.5212	-10.0787	-1.5248	0.0361	0.0069	-0.0111	17.6554	28.0192	4.1039	0.6254	-0.7796	0.0056	0.0302
0.59	-0.5170	-10.0573	-1.5030	0.0376	-0.0059	-0.0105	17.6748	28.0618	4.1197	0.6256	-0.7796	0.0056	0.0303
0.6	-0.5092	-10.0353	-1.4915	0.0309	-0.0105	-0.0111	17.8170	27.9939	4.2528	0.6257	-0.7794	0.0055	0.0304
0.61	-0.4976	-10.0173	-1.4897	0.0338	-0.0178	-0.0126	17.8876	27.9202	4.1135	0.6258	-0.7794	0.0054	0.0306
0.62	-0.4784	-9.9803	-1.4793	0.0254	-0.0200	-0.0097	17.6264	27.9151	4.1120	0.6259	-0.7792	0.0054	0.0307
0.63	-0.4620	-9.9440	-1.4731	0.0157	-0.0322	-0.0117	17.7211	27.8686	4.1112	0.6260	-0.7792	0.0052	0.0309
0.64	-0.4308	-9.9088	-1.4775	0.0137	-0.0295	-0.0093	17.9300	28.0284	4.1317	0.6261	-0.7792	0.0051	0.0311
0.65	-0.4052	-9.8741	-1.4747	0.0025	-0.0339	-0.0106	17.6397	28.1077	4.0191	0.6260	-0.7791	0.0050	0.0313
0.66	-0.3962	-9.8908	-1.4755	-0.0096	-0.0349	-0.0099	17.6800	27.8779	4.0156	0.6261	-0.7792	0.0048	0.0315
0.67	-0.3917	-9.9124	-1.5024	-0.0254	-0.0243	-0.0074	18.1078	27.8950	4.0309	0.6259	-0.7792	0.0047	0.0317
0.68	-0.4019	-9.9211	-1.4988	-0.0371	-0.0267	0.0049	18.0540	27.7380	4.0206	0.6259	-0.7794	0.0047	0.0319
0.69	-0.4443	-9.9613	-1.5104	-0.0442	-0.0209	0.0115	17.9087	27.7080	4.0253	0.6256	-0.7794	0.0046	0.0322
0.7	-0.4852	-10.0114	-1.5388	-0.0544	-0.0214	0.0159	18.0688	27.7852	4.2792	0.6254	-0.7796	0.0046	0.0324
0.71	-0.5241	-10.0599	-1.5230	-0.0535	-0.0200	0.0203	17.9525	27.7652	4.1111	0.6252	-0.7798	0.0047	0.0327
0.72	-0.5807	-10.1486	-1.5195	-0.0516	-0.0223	0.0191	17.9149	27.7774	4.1818	0.6250	-0.7799	0.0047	0.0329
0.73	-0.6273	-10.1951	-1.5425	-0.0379	-0.0218	0.0228	18.0541	28.0445	4.3315	0.6249	-0.7801	0.0047	0.0332
0.74	-0.6741	-10.1738	-1.5012	-0.0192	-0.0394	0.0298	17.8526	27.8335	4.1136	0.6247	-0.7801	0.0047	0.0335
0.75	-0.7282	-10.1504	-1.4968	-0.0111	-0.0535	0.0327	18.1166	28.0174	4.1568	0.6247	-0.7802	0.0046	0.0340
0.76	-0.7485	-10.1438	-1.4896	-0.0073	-0.0634	0.0265	18.0108	27.9044	4.3222	0.6246	-0.7801	0.0045	0.0344
0.77	-0.7735	-10.0834	-1.4607	0.0111	-0.0687	0.0262	18.0547	27.8092	4.2759	0.6247	-0.7801	0.0044	0.0349
0.78	-0.8142	-10.0181	-1.4465	0.0129	-0.0832	0.0309	18.1125	28.0092	4.3407	0.6247	-0.7800	0.0043	0.0354
0.79	-0.8271	-9.9388	-1.4512	0.0117	-0.0974	0.0270	17.8977	27.9161	4.1366	0.6248	-0.7799	0.0041	0.0359
0.8	-0.8337	-9.9094	-1.4209	-0.0024	-0.1203	0.0336	18.0505	27.8967	3.9968	0.6248	-0.7800	0.0039	0.0366
0.81	-0.8424	-9.9112	-1.4301	-0.0108	-0.1308	0.0209	18.0036	27.7980	4.0307	0.6247	-0.7799	0.0036	0.0373
0.82	-0.7970	-9.9154	-1.4266	-0.0227	-0.1461	0.0153	18.0737	27.8568	4.0218	0.6247	-0.7800	0.0032	0.0380
0.83	-0.7431	-9.9154	-1.4317	-0.0399	-0.1622	0.0095	18.2219	27.7040	4.0153	0.6244	-0.7800	0.0027	0.0388
0.84	-0.6890	-9.9225	-1.4459	-0.0401	-0.1618	-0.0067	18.1742	27.9896	4.1607	0.6244	-0.7802	0.0022	0.0395
0.85	-0.6221	-9.9512	-1.4601	-0.0614	-0.1696	-0.0122	18.2738	27.7922	3.8707	0.6241	-0.7803	0.0016	0.0402
0.86	-0.5615	-9.9916	-1.4880	-0.0676	-0.1609	-0.0233	18.4999	27.7158	3.8960	0.6239	-0.7805	0.0010	0.0409
0.87	-0.5205	-9.9978	-1.5111	-0.0699	-0.1478	-0.0211	18.4447	27.7324	4.0595	0.6236	-0.7806	0.0005	0.0415
0.88	-0.4770	-10.0241	-1.5151	-0.0637	-0.1396	-0.0323	18.3832	27.7540	3.8933	0.6233	-0.7808	-0.0001	0.0421
0.89	-0.4439	-10.0592	-1.5298	-0.0639	-0.1239	-0.0397	18.5264	27.6443	4.1689	0.6231	-0.7810	-0.0006	0.0426
0.9	-0.4266	-10.0724	-1.5404	-0.0618	-0.1121	-0.0408	18.2772	27.4187	3.9879	0.6228	-0.7811	-0.0012	0.0430
0.91	-0.4142	-10.0967	-1.5261	-0.0608	-0.0921	-0.0450	18.1844	27.6144	4.1970	0.6226	-0.7814	-0.0016	0.0433
0.92	-0.4165	-10.1331	-1.5472	-0.0569	-0.0778	-0.0510	18.3707	27.4988	4.2867	0.6224	-0.7815	-0.0021	0.0436
0.93	-0.4112	-10.1497	-1.5511	-0.0386	-0.0649	-0.0436	18.6146	27.7300	3.9536	0.6223	-0.7817	-0.0025	0.0438
0.94	-0.4026	-10.1465	-1.5401	-0.0391	-0.0534	-0.0364	18.8332	27.7333	4.2591	0.6220	-0.7817	-0.0028	0.0440
0.95	-0.4090	-10.1352	-1.5423	-0.0326	-0.0428	-0.0365	19.0790	27.6611	4.3083	0.6220	-0.7818	-0.0031	0.0442
0.96	-0.4291	-10.1248	-1.5481	-0.0349	-0.0265	-0.0362	18.7289	27.9589	4.3352	0.6218	-0.7819	-0.0033	0.0443
0.97	-0.4597	-10.1147	-1.5760	-0.0274	-0.0187	-0.0321	18.5120	28.5014	4.1584	0.6217	-0.7819	-0.0035	0.0444
0.98	-0.4853	-10.0804	-1.5909	-0.0164	-0.0191	-0.0286	18.3137	28.1264	4.2711	0.6217	-0.7821	-0.0037	0.0445
0.99	-0.4781	-10.0719	-1.5793	-0.0134	-0.0021	-0.0284	18.2007	27.5206	4.3353	0.6216	-0.7821	-0.0038	0.0446
1	-0.4950	-10.0930	-1.5973	-0.0142	0.0117	-0.0343	18.4104	27.5422	4.4124	0.6216	-0.7822	-0.0039	0.0445
1.01	-0.5031	-10.0857	-1.6084	-0.0144	0.0129	-0.0321	18.3148	27.6105	4.4455	0.6214	-0.7821	-0.0040	0.0445
1.02	-0.5051	-10.0601	-1.5847	-0.0066	0.0156	-0.0320	18.0336	27.7530	4.3210	0.6215	-0.7822	-0.0041	0.0444
1.03	-0.5318	-10.0507	-1.5925	-0.0016	0.0196	-0.0323	18.1069	27.8252	4.3093	0.6214	-0.7822	-0.0041	0.0443
1.04	-0.5490	-10.0248	-1.5923	0.0068	0.0163	-0.0333	18.3365	27.7270	4.1307	0.6214	-0.7822	-0.0042	0.0443
1.05	-0.5565	-9.9995	-1.5865	0.0091	0.0209	-0.0355	18.2757	27.6015	4.2618	0.6215	-0.7822	-0.0043	0.0442
1.06	-0.5647	-9.9976	-1.5976	-0.0042	0.0172	-0.0335	18.3233	27.6397	4.2572	0.6215	-0.7822	-0.0044	0.0441
1.07	-0.5710	-9.9875	-1.6020	-0.0099	0.0097	-0.0289	18.2398	27.5869	4.2034	0.6215	-0.7822	-0.0044	0.0441
1.08	-0.5819	-9.9761	-1.6053	-0.0124	0.0074	-0.0290	18.1078	27.4108	4.0351	0.6214	-0.7822	-0.0045	0.0441
1.09	-0.5899	-9.9842	-1.6187	-0.0142	-0.0015	-0.0304	18.1250	27.5978	4.3177	0.6214	-0.7823	-0.0046	0.0441
1.1	-0.5929	-10.0028	-1.6300	-0.0184	-0.0043	-0.0301	18.2845	27.6061	4.3370	0.6213	-0.7823	-0.0048	0.0441
1.11	-0.5732	-10.0289	-1.6328	-0.0251	-0.0137	-0.0206	18.0240	27.7108	4.3453	0.6212	-0.7824	-0.0049	0.0442
1.12	-0.5509	-10.0373	-1.6341	-0.0346	-0.0210	-0.0170	18.1307	27.6936	4.3130	0.6210	-0.7825	-0.0050	0.0444
1.13	-0.5316	-10.0758	-1.6243	-0.0260	-0.0226	-0.0173	18.3509	27.6415	4.3808	0.6209	-0.7826	-0.0052	0.0445
1.14	-0.5218	-10.0862	-1.6439	-0.0258	-0.0221	-0.0095	18.0685	27.7259	4.2277	0.6208	-0.7827	-0.0053	0.0446
1.15	-0.5109	-10.0700	-1.6190	-0.0166	-0.0261	-0.0107	18.2374	27.7823	4.4187	0.6207	-0.7826	-0.0054	0.0448
1.16	-0.5147	-10.0744	-1.6158	-0.0109	-0.0277	-0.0099	18.2784	27.8173	4.6409	0.6207	-0.7828	-0.0055	0.0450
1.17	-0.4999	-10.0493	-1.6203	-0.0085	-0.0282	-0.0111	18.0706	27.6392	4.3256	0.6207	-0.7827	-0.0056	0.0452
1.18	-0.4755	-10.0353	-1.5856	0.0028	-0.0277	-0.0099	18.1870	27.6030	4.3058	0.6207	-0.7828	-0.0058	0.0454
1.19	-0.4799	-10.0406	-1.5963	-0.0086	-0.0186	-0.0095	18.3319	27.8075	4.1087	0.6206	-0.7827	-0.0059	0.0455
1.2	-0.5010	-10.0230	-1.5968	0.0029	-0.0084	-0.0139	18.3582	27.6838	4.2076	0.6206	-0.7828	-0.0059	0.0456
1.21	-0.5424	-9.9956	-1.5980	0.0017	-0.0018	-0.0116	18.1334	27.9182	4.4227	0.6206	-0.7827	-0.0060	0.0457
1.22	-0.5960	-10.0109	-1.6120	-0.0018	-0.0036	-0.0069	18.0366	27.7280	4.1211	0.6206	-0.7827	-0.0060	0.0458
1.23	-0.6191	-10.0395	-1.6221	-0.0051	-0.0087	-0.0174	18.0343	27.5985	4.2942	0.6206	-0.7828	-0.0061	0.0459
1.24	-0.6128	-10.0445	-1.6289	0.0027	-0.0101	-0.0313	18.4345	27.3729	4.3302	0.6206	-0.7827	-0.0062	0.0459
1.25	-0.6067	-10.0304	-1.6270	0.0081	-0.0114	-0.0301	18.2991	27.6243	4.1996	0.6207	-0.7828	-0.0064	0.0460
1.26	-0.5970	-10.0205	-1.6314	-0.0054	-0.0199	-0.0325	18.3142	27.5300	4.3760	0.6206	-0.7827	-0.0066	0.0461
1.27	-0.5755	-10.0389	-1.6331	-0.0073	-0.0217	-0.0345	18.1620	27.6647	4.1874	0.6206	-0.7828	-0.0068	0.0462
1.28	-0.5413	-10.0541	-1.6359	-0.0115	-0.0228	-0.0354	18.2907	27.5600	4.1756	0.6205	-0.7828	-0.0070	0.0462
1.29	-0.5057	-10.0781	-1.6334	0.0021	-0.0281	-0.0351	18.2319	27.8614	4.3778	0.6205	-0.7828	-0.0072	0.0463
1.3	-0.4841	-10.0859	-1.6329	0.0028	-0.0201	-0.0250	18.1144	28.0014	4.1875	0.6206	-0.7828	-0.0073	0.0465
1.31	-0.4713	-10.0863	-1.6251	0.0085	-0.0204	-0.0298	18.1000	27.7031	4.3220	0.6206	-0.7827	-0.0075	0.0465
1.32	-0.4658	-10.0817	-1.6240	0.0101	-0.0104	-0.0264	17.9876	27.7116	4.2801	0.6206	-0.7827	-0.0076	0.0466
1.33	-0.4619	-10.0636	-1.6211	0.0119	0.0088	-0.0259	18.1401	27.7061	4.2409	0.6206	-0.7826	-0.0077	0.0466
1.34	-0.4660	-10.0565	-1.6133	0.0137	0.0101	-0.0240	18.0089	27.8197	4.2283	0.6207	-0.7827	-0.0078	0.0466
1.35	-0.4698	-10.0467	-1.6143	0.0144	0.0105	-0.0226	18.0541	27.8001	4.1499	0.6207	-0.7826	-0.0078	0.0466
1.36	-0.4786	-10.0444	-1.6131	0.0150	0.0186	-0.0196	18.2397	27.7528	4.3590	0.6208	-0.7826	-0.0078	0.0466
1.37	-0.4869	-10.0365	-1.6152	0.0140	0.0162	-0.0190	18.0935	27.5779	4.3252	0.6208	-0.7825	-0.0078	0.0465
1.38	-0.4813	-10.0359	-1.6138	0.0153	0.0166	-0.0202	18.0453	27.9364	4.3427	0.6209	-0.7825	-0.0079	0.0465
1.39	-0.4855	-10.0360	-1.6169	0.0118	0.0227	-0.0174	18.1534	27.9393	4.3151	0.6210	-0.7824	-0.0079	0.0465
1.4	-0.4766	-10.0282	-1.6229	0.0128	0.0272	-0.0169	18.0959	27.7966	4.4239	0.6210	-0.7823	-0.0078	0.0464
1.41	-0.4606	-10.0377	-1.6157	0.0100	0.0321	-0.0142	18.1494	27.7795	4.4488	0.6211	-0.7824	-0.0078	0.0464
1.42	-0.4572	-10.0328	-1.6194	0.0129	0.0346	-0.0114	17.9309	27.4168	4.0919	0.6211	-0.7823	-0.0077	0.0463
1.43	-0.4608	-10.0183	-1.6151	0.0124	0.0332	-0.0143	18.2977	27.7428	4.3860	0.6212	-0.7824	-0.0077	0.0463
1.44	-0.4786	-10.0083	-1.6090	0.0130	0.0409	-0.0099	18.7001	27.6020	4.5624	0.6211	-0.7822	-0.0076	0.0462
1.45	-0.4983	-10.0017	-1.6015	0.0149	0.0424	-0.0085	18.8785	27.6791	4.2762	0.6212	-0.7823	-0.0075	0.0461
1.46	-0.5236	-10.0009	-1.6109	0.0012	0.0440	-0.0088	18.4877	27.6760	4.3644	0.6212	-0.7823	-0.0074	0.0460
1.47	-0.5414	-9.9961	-1.6162	0.0122	0.0420	-0.0083	18.1013	28.0633	4.3504	0.6212	-0.7822	-0.0073	0.0459
1.48	-0.5492	-10.0017	-1.6211	-0.0038	0.0384	-0.0080	18.2333	28.0570	4.1817	0.6213	-0.7823	-0.0072	0.0459
1.49	-0.5535	-10.0049	-1.6252	-0.0108	0.0357	-0.0084	18.3466	27.6375	4.2512	0.6212	-0.7823	-0.0071	0.0458
1.5	-0.5602	-10.0248	-1.6258	-0.0099	0.0351	-0.0082	18.2780	27.6856	4.3555	0.6212	-0.7824	-0.0070	0.0457
1.51	-0.5631	-10.0353	-1.6385	-0.0095	0.0282	-0.0084	18.0314	27.6777	4.1729	0.6210	-0.7823	-0.0070	0.0457
1.52	-0.5572	-10.0349	-1.6320	-0.0019	0.0252	-0.0083	18.0719	27.7543	4.2629	0.6211	-0.7824	-0.0069	0.0457
1.53	-0.5591	-10.0328	-1.6281	-0.0090	0.0260	-0.0086	18.0259	27.8185	4.2923	0.6210	-0.7824	-0.0069	0.0456
1.54	-0.5458	-10.0357	-1.6349	-0.0053	0.0172	-0.0088	18.1524	27.8514	4.3929	0.6210	-0.7824	-0.0068	0.0457
1.55	-0.5435	-10.0442	-1.6274	-0.0077	0.0183	-0.0088	18.1338	27.8797	4.3831	0.6210	-0.7825	-0.0068	0.0457
1.56	-0.5471	-10.0501	-1.6402	-0.0081	0.0190	-0.0086	18.0489	27.9002	4.2992	0.6209	-0.7825	-0.0068	0.0457
1.57	-0.5429	-10.0505	-1.6343	0.0049	0.0191	-0.0085	18.2746	27.6774	4.2382	0.6210	-0.7825	-0.0068	0.0457
1.58	-0.5428	-10.0443	-1.6263	0.0028	0.0195	-0.0094	18.4698	27.8990	4.2741	0.6209	-0.7824	-0.0067	0.0457
1.59	-0.5413	-10.0485	-1.6361	0.0099	0.0186	-0.0090	18.1143	27.6920	4.4464	0.6210	-0.7825	-0.0067	0.0457
1.6	-0.5422	-10.0361	-1.6317	0.0141	0.0162	-0.0092	17.9664	27.7092	4.1791	0.6210	-0.7824	-0.0067	0.0457
1.61	-0.5503	-10.0367	-1.6193	0.0098	0.0230	-0.0098	18.6430	27.7983	4.3050	0.6211	-0.7824	-0.0067	0.0457
1.62	-0.5557	-10.0243	-1.6290	0.0067	0.0243	-0.0116	18.4615	27.6467	4.3940	0.6210	-0.7824	-0.0066	0.0457
1.63	-0.5649	-10.0137	-1.6217	0.0094	0.0186	-0.0129	18.4133	27.5699	4.1798	0.6211	-0.7824	-0.0066	0.0456
1.64	-0.5674	-10.0160	-1.6278	0.0121	0.0269	-0.0138	18.3562	27.6207	4.2165	0.6211	-0.7824	-0.0066	0.0456
1.65	-0.5692	-10.0194	-1.6251	0.0080	0.0221	-0.0195	18.3050	27.7796	4.2909	0.6211	-0.7823	-0.0066	0.0456
1.66	-0.5663	-10.0278	-1.6322	0.0086	0.0130	-0.0191	18.2349	27.8373	4.4236	0.6212	-0.7824	-0.0066	0.0456
1.67	-0.5712	-10.0270	-1.6318	0.0104	0.0171	-0.0134	18.2272	27.7465	4.2330	0.6212	-0.7823	-0.0066	0.0455
1.68	-0.5858	-10.0442	-1.6219	0.0054	0.0141	-0.0123	18.2423	27.5017	4.2010	0.6213	-0.7823	-0.0066	0.0456
1.69	-0.5952	-10.0587	-1.6349	0.0112	0.0098	-0.0094	18.2195	27.5817	4.3302	0.6212	-0.7822	-0.0066	0.0456
1.7	-0.5998	-10.0564	-1.6374	0.0147	0.0047	-0.0114	18.1398	27.9311	4.2807	0.6213	-0.7822	-0.0066	0.0456
1.71	-0.5911	-10.0347	-1.6363	0.0106	0.0020	-0.0101	18.3138	27.7668	4.3671	0.6213	-0.7822	-0.0066	0.0457
1.72	-0.5798	-10.0490	-1.6317	0.0042	-0.0040	-0.0200	18.0335	27.7424	4.4153	0.6213	-0.7821	-0.0067	0.0458
1.73	-0.5770	-10.0653	-1.6406	0.0075	-0.0073	-0.0225	18.0809	27.9744	4.2790	0.6214	-0.7822	-0.0068	0.0458
1.74	-0.5602	-10.0480	-1.6322	0.0134	-0.0128	-0.0176	18.1512	27.8961	4.3014	0.6214	-0.7821	-0.0069	0.0459
1.75	-0.5163	-10.0563	-1.6036	0.0099	-0.0148	-0.0166	18.1616	27.7906	4.3147	0.6215	-0.7821	-0.0070	0.0460
1.76	-0.4998	-10.0712	-1.6175	0.0150	-0.0145	-0.0106	18.0431	27.6408	4.2090	0.6214	-0.7820	-0.0071	0.0461
1.77	-0.4902	-10.0651	-1.6035	0.0140	-0.0076	-0.0098	17.8579	27.8126	4.2160	0.6215	-0.7820	-0.0071	0.0463
1.78	-0.4792	-10.0601	-1.5774	0.0195	-0.0082	-0.0095	18.2078	27.8317	4.1952	0.6216	-0.7819	-0.0072	0.0464
1.79	-0.4817	-10.0706	-1.5869	0.0216	-0.0016	-0.0092	18.2964	27.6513	4.2983	0.6216	-0.7819	-0.0072	0.0464
1.8	-0.4818	-10.0603	-1.5726	0.0225	0.0009	-0.0096	18.5287	27.7856	4.3148	0.6217	-0.7818	-0.0072	0.0465
1.81	-0.4846	-10.0433	-1.5620	0.0175	0.0041	-0.0080	18.3538	27.6216	4.1604	0.6218	-0.7818	-0.0073	0.0466
1.82	-0.4863	-10.0238	-1.5634	0.0193	0.0123	-0.0043	18.2884	27.7657	4.2979	0.6219	-0.7817	-0.0072	0.0466
1.83	-0.5103	-10.0023	-1.5568	0.0199	0.0174	-0.0090	18.4298	27.6824	4.3143	0.6219	-0.7816	-0.0072	0.0466
1.84	-0.5423	-9.9903	-1.5765	0.0117	0.0279	-0.0085	18.3784	27.6587	4.1928	0.6220	-0.7817	-0.0071	0.0466
1.85	-0.5731	-9.9875	-1.5777	0.0160	0.0260	-0.0093	18.3113	27.8574	4.2209	0.6220	-0.7816	-0.0071	0.0466
1.86	-0.6005	-9.9914	-1.5909	0.0047	0.0238	-0.0085	18.3103	27.7654	4.1960	0.6220	-0.7816	-0.0071	0.0466
1.87	-0.5922	-9.9986	-1.5847	0.0066	0.0237	-0.0104	18.4366	27.7638	4.3316	0.6220	-0.7816	-0.0070	0.0466
1.88	-0.5922	-10.0187	-1.5815	0.0109	0.0215	-0.0170	18.2378	27.7304	4.0252	0.6221	-0.7816	-0.0070	0.0465
1.89	-0.6042	-10.0315	-1.5972	0.0098	0.0261	-0.0099	18.3026	27.8621	4.2913	0.6221	-0.7815	-0.0070	0.0465
1.9	-0.6155	-10.0224	-1.5985	0.0157	0.0223	-0.0109	18.2664	28.0727	4.2301	0.6221	-0.7814	-0.0070	0.0465
1.91	-0.6287	-10.0180	-1.6009	0.0099	0.0196	-0.0160	18.0095	27.7834	4.0925	0.6222	-0.7815	-0.0070	0.0465
1.92	-0.6362	-10.0187	-1.6040	0.0080	0.0175	-0.0179	18.2381	27.9235	4.2818	0.6222	-0.7814	-0.0070	0.0465
1.93	-0.6433	-10.0159	-1.6103	0.0066	0.0081	-0.0156	18.4825	27.8987	4.3605	0.6222	-0.7815	-0.0070	0.0465
1.94	-0.6272	-10.0217	-1.6094	0.0119	0.0020	-0.0086	18.5909	27.7954	4.5242	0.6222	-0.7814	-0.0070	0.0466
1.95	-0.6316	-10.0545	-1.6217	-0.0028	0.0010	-0.0150	18.7287	27.9439	4.4496	0.6222	-0.7814	-0.0071	0.0466
1.96	-0.6175	-10.0731	-1.6319	-0.0008	-0.0160	-0.0092	18.3761	27.7544	4.2241	0.6222	-0.7814	-0.0072	0.0468
1.97	-0.6075	-10.0813	-1.6361	0.0126	-0.0153	-0.0121	18.1963	28.1337	4.2647	0.6222	-0.7814	-0.0073	0.0469
1.98	-0.5935	-10.0903	-1.6361	0.0143	-0.0049	-0.0160	18.1736	27.9644	4.3972	0.6223	-0.7814	-0.0074	0.0470
1.99	-0.5749	-10.0943	-1.6415	0.0143	-0.0064	-0.0143	18.2702	27.5713	4.2629	0.6223	-0.7813	-0.0074	0.0471
2	-0.5613	-10.1146	-1.6471	0.0113	-0.0048	-0.0244	18.5015	27.7640	4.1189	0.6224	-0.7813	-0.0075	0.0471
2.01	-0.5512	-10.1160	-1.6541	0.0201	-0.0056	-0.0252	18.4599	27.3676	4.2945	0.6224	-0.7812	-0.0076	0.0472
2.02	-0.5508	-10.1002	-1.6334	0.0239	-0.0002	-0.0252	18.3755	27.7538	4.0297	0.6225	-0.7812	-0.0077	0.0472
2.03	-0.5712	-10.1071	-1.6246	0.0265	-0.0003	-0.0315	18.2259	27.6370	4.2886	0.6226	-0.7811	-0.0078	0.0472
2.04	-0.5748	-10.0901	-1.6343	0.0389	0.0046	-0.0316	18.1945	27.6992	4.1773	0.6227	-0.7810	-0.0079	0.0472
2.05	-0.5470	-10.0804	-1.5904	0.0402	-0.0068	-0.0347	18.3149	27.7355	4.1482	0.6229	-0.7809	-0.0081	0.0472
2.06	-0.5281	-10.0866	-1.5952	0.0400	-0.0030	-0.0344	18.1667	27.7154	4.3381	0.6230	-0.7807	-0.0082	0.0472
2.07	-0.5354	-10.0691	-1.5920	0.0423	0.0060	-0.0313	18.2633	27.9251	4.3045	0.6232	-0.7806	-0.0083	0.0472
2.08	-0.5580	-10.0333	-1.5777	0.0387	0.0109	-0.0273	18.0154	27.7860	4.1513	0.6233	-0.7804	-0.0084	0.0472
2.09	-0.5771	-10.0068	-1.5800	0.0439	0.0069	-0.0247	18.0487	27.8327	4.1680	0.6235	-0.7804	-0.0084	0.0472
2.1	-0.5857	-9.9929	-1.5729	0.0447	0.0031	-0.0291	18.1698	27.7403	4.0140	0.6236	-0.7802	-0.0085	0.0472
2.11	-0.5589	-9.9894	-1.5665	0.0372	-0.0036	-0.0310	18.2973	27.7707	4.1841	0.6238	-0.7801	-0.0086	0.0472
2.12	-0.5415	-9.9930	-1.5498	0.0422	-0.0063	-0.0341	18.3098	27.8410	4.1389	0.6239	-0.7800	-0.0088	0.0472
2.13	-0.5258	-10.0053	-1.5453	0.0302	0.0001	-0.0346	17.9117	27.7642	4.0787	0.6240	-0.7799	-0.0089	0.0472
2.14	-0.5192	-10.0193	-1.5455	0.0226	0.0013	-0.0346	18.0259	27.6916	4.2083	0.6241	-0.7799	-0.0090	0.0472
2.15	-0.5110	-10.0302	-1.5396	0.0344	-0.0018	-0.0273	18.0258	27.7981	4.0536	0.6242	-0.7797	-0.0091	0.0473
2.16	-0.5045	-10.0422	-1.5364	0.0280	-0.0008	-0.0293	18.1500	27.9297	4.1713	0.6244	-0.7797	-0.0092	0.0473
2.17	-0.5021	-10.0430	-1.5486	0.0369	-0.0112	-0.0213	18.3928	27.7141	4.1743	0.6245	-0.7795	-0.0093	0.0473
2.18	-0.4978	-10.0381	-1.5417	0.0381	-0.0062	-0.0181	18.3533	27.8018	4.1072	0.6247	-0.7795	-0.0094	0.0474
2.19	-0.5075	-10.0231	-1.5412	0.0349	-0.0004	-0.0168	18.0822	27.7272	3.9648	0.6247	-0.7793	-0.0095	0.0475
2.2	-0.5119	-10.0124	-1.5303	0.0382	0.0021	-0.0132	18.0320	27.4608	3.9961	0.6249	-0.7792	-0.0095	0.0475
2.21	-0.5136	-10.0144	-1.5241	0.0326	-0.0010	-0.0136	18.1854	27.8484	3.9768	0.6250	-0.7791	-0.0095	0.0476
2.22	-0.5194	-10.0020	-1.5259	0.0402	0.0006	-0.0110	18.3115	27.9117	3.9740	0.6251	-0.7790	-0.0096	0.0477
2.23	-0.5156	-9.9991	-1.5095	0.0311	0.0086	-0.0108	18.1982	27.8942	3.9838	0.6253	-0.7790	-0.0096	0.0477
2.24	-0.5112	-9.9993	-1.5092	0.0180	0.0003	-0.0099	17.9367	27.8715	4.1071	0.6253	-0.7789	-0.0096	0.0478
2.25	-0.5108	-10.0060	-1.5127	0.0186	0.0073	-0.0132	18.2474	27.7499	4.0086	0.6254	-0.7789	-0.0096	0.0478
2.26	-0.5174	-10.0001	-1.5180	0.0149	0.0137	-0.0136	18.4355	27.9345	3.9528	0.6253	-0.7787	-0.0096	0.0478
2.27	-0.5257	-10.0116	-1.5192	0.0131	0.0138	-0.0111	18.1223	27.9518	4.0203	0.6254	-0.7788	-0.0097	0.0479
2.28	-0.5246	-10.0251	-1.5141	0.0107	0.0158	-0.0178	18.0050	28.0677	3.8835	0.6255	-0.7787	-0.0097	0.0479
2.29	-0.5301	-10.0294	-1.5130	0.0137	0.0166	-0.0142	18.3534	27.9828	3.9686	0.6255	-0.7787	-0.0097	0.0479
2.3	-0.5306	-10.0225	-1.5065	0.0136	0.0112	-0.0121	18.1497	27.9148	3.9678	0.6255	-0.7787	-0.0097	0.0479
2.31	-0.5346	-10.0205	-1.5043	0.0118	0.0177	-0.0178	18.0476	27.9271	4.0334	0.6256	-0.7786	-0.0097	0.0479
2.32	-0.5367	-10.0143	-1.5099	0.0106	0.0150	-0.0226	18.1476	27.7707	4.2413	0.6256	-0.7787	-0.0097	0.0478
2.33	-0.5468	-9.9975	-1.5025	0.0114	0.0119	-0.0163	18.1234	27.8043	4.0322	0.6256	-0.7785	-0.0098	0.0478
2.34	-0.5531	-10.0112	-1.5036	0.0053	0.0101	-0.0105	18.1922	27.8437	4.0078	0.6256	-0.7786	-0.0098	0.0479
2.35	-0.5596	-10.0253	-1.5173	0.0079	0.0136	-0.0108	18.1435	27.8293	3.9170	0.6256	-0.7786	-0.0098	0.0479
2.36	-0.5717	-10.0377	-1.5200	0.0052	0.0082	-0.0121	18.2347	27.6468	3.8868	0.6257	-0.7786	-0.0098	0.0479
2.37	-0.5758	-10.0495	-1.5368	0.0140	0.0028	-0.0124	18.2128	27.8600	3.9596	0.6257	-0.7785	-0.0098	0.0480
2.38	-0.5687	-10.0628	-1.5410	0.0062	0.0040	-0.0137	18.1872	27.7545	4.0400	0.6257	-0.7785	-0.0098	0.0480
2.39	-0.5638	-10.0684	-1.5525	-0.0004	0.0066	-0.0114	18.2975	27.5166	4.0276	0.6257	-0.7786	-0.0099	0.0481
2.4	-0.5564	-10.0750	-1.5550	0.0100	0.0014	-0.0192	18.2133	28.0057	3.9645	0.6256	-0.7785	-0.0099	0.0481
2.41	-0.5444	-10.0825	-1.5540	0.0101	0.0029	-0.0241	18.2343	27.9542	4.0640	0.6258	-0.7785	-0.0100	0.0481
2.42	-0.5338	-10.0855	-1.5555	0.0109	-0.0011	-0.0307	17.9779	27.7583	3.9880	0.6257	-0.7785	-0.0101	0.0481
2.43	-0.5221	-10.0967	-1.5587	0.0154	0.0019	-0.0304	18.0767	28.0451	4.1081	0.6258	-0.7785	-0.0103	0.0482
2.44	-0.5126	-10.1073	-1.5583	0.0117	0.0053	-0.0298	18.6422	27.8445	4.0335	0.6258	-0.7784	-0.0104	0.0481
2.45	-0.5044	-10.1217	-1.5574	0.0140	0.0009	-0.0258	18.8864	27.8582	4.2354	0.6259	-0.7784	-0.0105	0.0482
2.46	-0.5024	-10.1170	-1.5540	0.0138	0.0080	-0.0321	18.7322	28.0702	3.8993	0.6259	-0.7783	-0.0105	0.0481
2.47	-0.5048	-10.1090	-1.5350	0.0168	0.0067	-0.0277	18.3539	28.3402	3.7552	0.6259	-0.7783	-0.0106	0.0481
2.48	-0.5087	-10.0966	-1.5307	0.0205	0.0034	-0.0222	17.9343	28.0641	3.9507	0.6261	-0.7783	-0.0107	0.0482
2.49	-0.5098	-10.0866	-1.5112	0.0378	0.0102	-0.0264	18.0018	27.7741	4.1047	0.6261	-0.7781	-0.0108	0.0482
2.5	-0.5156	-10.0854	-1.5141	0.0405	0.0104	-0.0227	17.8558	28.0229	4.0678	0.6263	-0.7781	-0.0108	0.0481
2.51	-0.5126	-10.0783	-1.5074	0.0405	-0.0027	-0.0250	17.9849	27.9943	3.9375	0.6264	-0.7779	-0.0109	0.0482
2.52	-0.5005	-10.0698	-1.4944	0.0389	-0.0085	-0.0264	18.0214	27.9692	3.6673	0.6266	-0.7778	-0.0110	0.0482
2.53	-0.4949	-10.0569	-1.4925	0.0383	0.0039	-0.0238	18.1595	27.7343	3.9046	0.6267	-0.7777	-0.0111	0.0482
2.54	-0.4915	-10.0569	-1.4937	0.0389	-0.0036	-0.0193	18.2374	27.7259	3.8877	0.6268	-0.7776	-0.0112	0.0483
2.55	-0.4822	-10.0543	-1.4912	0.0394	-0.0043	-0.0187	18.3276	27.7710	3.7454	0.6270	-0.7775	-0.0112	0.0484
2.56	-0.4786	-10.0519	-1.4782	0.0400	0.0007	-0.0160	18.5346	27.6571	3.7312	0.6271	-0.7773	-0.0113	0.0484
2.57	-0.4795	-10.0456	-1.4729	0.0407	0.0033	-0.0188	18.2576	27.7434	3.4277	0.6273	-0.7773	-0.0113	0.0485
2.58	-0.4800	-10.0416	-1.4576	0.0414	0.0088	-0.0198	18.1074	27.9480	3.6651	0.6273	-0.7770	-0.0114	0.0484
2.59	-0.4794	-10.0279	-1.4519	0.0403	0.0057	-0.0169	18.1910	27.7902	3.6763	0.6276	-0.7770	-0.0114	0.0485
2.6	-0.4764	-10.0043	-1.4419	0.0417	0.0124	-0.0202	18.3355	27.9858	3.6239	0.6277	-0.7769	-0.0115	0.0485
2.61	-0.4785	-10.0231	-1.4366	0.0386	0.0088	-0.0264	18.0833	27.7808	3.7619	0.6278	-0.7768	-0.0115	0.0485
2.62	-0.4889	-10.0424	-1.4404	0.0347	0.0060	-0.0151	18.3610	27.9636	3.7358	0.6279	-0.7766	-0.0116	0.0485
2.63	-0.4822	-10.0360	-1.4291	0.0301	0.0085	-0.0184	17.8857	27.7006	3.6846	0.6280	-0.7766	-0.0116	0.0485
2.64	-0.4603	-10.0419	-1.4256	0.0365	0.0171	-0.0181	17.9031	27.7052	3.9555	0.6282	-0.7765	-0.0116	0.0485
2.65	-0.4577	-10.0523	-1.4185	0.0243	0.0131	-0.0147	18.0636	28.0315	3.6119	0.6282	-0.7764	-0.0116	0.0485
2.66	-0.4539	-10.0376	-1.4174	0.0328	0.0104	-0.0122	18.0441	28.0827	3.5920	0.6284	-0.7764	-0.0116	0.0485
2.67	-0.4435	-10.0279	-1.3866	0.0245	0.0137	-0.0084	18.0442	28.0861	3.8091	0.6284	-0.7762	-0.0116	0.0486
2.68	-0.4438	-10.0426	-1.3925	0.0302	0.0207	-0.0095	18.0534	28.0993	3.6611	0.6286	-0.7762	-0.0116	0.0486
2.69	-0.4384	-10.0353	-1.3730	0.0396	0.0216	-0.0070	18.0443	27.9829	3.6414	0.6286	-0.7760	-0.0115	0.0486
2.7	-0.4384	-10.0367	-1.3470	0.0301	0.0291	-0.0074	17.9391	28.0135	3.5731	0.6288	-0.7760	-0.0114	0.0485
2.71	-0.4496	-10.0301	-1.3500	0.0258	0.0337	-0.0084	18.1617	28.3273	3.8757	0.6288	-0.7759	-0.0114	0.0485
2.72	-0.4634	-10.0180	-1.3423	0.0349	0.0353	-0.0085	18.0495	28.0279	3.7437	0.6289	-0.7758	-0.0113	0.0484
2.73	-0.4883	-9.9927	-1.3434	0.0364	0.0454	-0.0082	18.0382	27.7752	3.6679	0.6291	-0.7758	-0.0112	0.0483
2.74	-0.5127	-9.9471	-1.3572	0.0381	0.0499	-0.0082	18.4770	27.7266	3.4926	0.6292	-0.7756	-0.0110	0.0482
2.75	-0.5295	-9.8913	-1.3581	0.0355	0.0482	-0.0120	18.0146	27.7422	3.5317	0.6294	-0.7756	-0.0109	0.0481
2.76	-0.5449	-9.8557	-1.3523	0.0155	0.0488	-0.0161	18.2503	27.7100	3.6897	0.6293	-0.7755	-0.0108	0.0480
2.77	-0.5575	-9.8588	-1.3523	0.0030	0.0510	-0.0145	18.5079	27.9974	3.5366	0.6294	-0.7756	-0.0107	0.0478
2.78	-0.5608	-9.8513	-1.3692	-0.0176	0.0478	-0.0209	18.2508	27.9480	3.7639	0.6293	-0.7756	-0.0106	0.0477
2.79	-0.5627	-9.8877	-1.3735	-0.0344	0.0455	-0.0231	18.3592	27.8910	3.6906	0.6292	-0.7757	-0.0106	0.0475
2.8	-0.5758	-9.9679	-1.4060	-0.0574	0.0493	-0.0236	18.2040	27.9166	3.5270	0.6290	-0.7759	-0.0105	0.0474
2.81	-0.5818	-10.0144	-1.4441	-0.0636	0.0466	-0.0240	18.3510	27.9191	3.6274	0.6287	-0.7761	-0.0105	0.0472
2.82	-0.5713	-10.0531	-1.4460	-0.0599	0.0432	-0.0314	17.8670	28.0934	3.6628	0.6285	-0.7764	-0.0105	0.0471
2.83	-0.5791	-10.0896	-1.4820	-0.0717	0.0372	-0.0282	17.8713	28.0861	3.6589	0.6281	-0.7765	-0.0105	0.0469
2.84	-0.5881	-10.0982	-1.4966	-0.0636	0.0331	-0.0201	17.9560	27.8757	3.7568	0.6279	-0.7769	-0.0105	0.0468
2.85	-0.5930	-10.1086	-1.4969	-0.0662	0.0177	-0.0149	17.8269	27.9473	3.7889	0.6276	-0.7770	-0.0105	0.0468
2.86	-0.5894	-10.1155	-1.5098	-0.0597	0.0162	-0.0164	17.9377	28.0886	3.8704	0.6274	-0.7773	-0.0105	0.0468
2.87	-0.5798	-10.1040	-1.5142	-0.0542	0.0033	-0.0118	18.0787	28.1691	3.7316	0.6271	-0.7774	-0.0106	0.0468
2.88	-0.5639	-10.1031	-1.5268	-0.0454	0.0023	-0.0098	18.0003	27.9533	3.8863	0.6269	-0.7776	-0.0106	0.0469
2.89	-0.5442	-10.1110	-1.5328	-0.0528	-0.0061	-0.0106	17.9798	28.0263	3.8097	0.6267	-0.7778	-0.0107	0.0470
2.9	-0.5280	-10.1195	-1.5431	-0.0506	-0.0196	-0.0109	18.1711	27.9169	3.9515	0.6264	-0.7779	-0.0108	0.0471
2.91	-0.5195	-10.1222	-1.5295	-0.0395	-0.0077	-0.0103	18.0019	27.7877	3.9329	0.6263	-0.7781	-0.0108	0.0472
2.92	-0.5247	-10.1359	-1.5179	-0.0398	-0.0043	-0.0110	18.1020	27.5738	3.9552	0.6261	-0.7782	-0.0109	0.0473
2.93	-0.5427	-10.1228	-1.5329	-0.0227	-0.0028	-0.0114	18.4373	27.7930	3.9147	0.6261	-0.7784	-0.0110	0.0474
2.94	-0.5231	-10.0906	-1.4928	-0.0127	-0.0053	-0.0213	18.7828	28.0240	4.0551	0.6259	-0.7783	-0.0111	0.0474
2.95	-0.5064	-10.0714	-1.4661	-0.0098	-0.0046	-0.0201	19.1217	28.0099	4.1251	0.6259	-0.7784	-0.0111	0.0475
2.96	-0.5036	-10.0400	-1.4783	-0.0041	0.0013	-0.0218	18.6866	28.0108	3.9428	0.6258	-0.7784	-0.0112	0.0475
2.97	-0.5149	-9.9958	-1.4663	-0.0063	0.0085	-0.0283	18.2890	28.2425	4.0111	0.6258	-0.7784	-0.0113	0.0475
2.98	-0.5338	-9.9728	-1.4709	-0.0119	0.0065	-0.0249	18.2810	28.1075	4.0531	0.6258	-0.7786	-0.0114	0.0475
2.99	-0.5222	-9.9658	-1.4789	-0.0237	0.0055	-0.0287	18.1685	27.9866	3.9168	0.6256	-0.7786	-0.0115	0.0475
3	-0.4880	-9.9819	-1.4804	-0.0361	0.0012	-0.0344	18.0943	27.9528	4.0494	0.6255	-0.7787	-0.0116	0.0475
3.01	-0.4662	-10.0161	-1.5052	-0.0353	-0.0015	-0.0281	18.2408	27.8091	4.0523	0.6253	-0.7788	-0.0117	0.0475
3.02	-0.4546	-10.0446	-1.5085	-0.0375	0.0005	-0.0222	18.0661	27.9307	4.0713	0.6252	-0.7790	-0.0118	0.0475
3.03	-0.4455	-10.0797	-1.5134	-0.0356	-0.0034	-0.0256	17.8934	27.7648	4.0249	0.6250	-0.7791	-0.0120	0.0476
3.04	-0.4433	-10.1005	-1.5140	-0.0376	-0.0002	-0.0207	18.0478	27.9348	4.1609	0.6248	-0.7792	-0.0120	0.0476
3.05	-0.4516	-10.1089	-1.5168	-0.0327	0.0057	-0.0099	18.0362	27.8070	4.1237	0.6247	-0.7793	-0.0121	0.0476
3.06	-0.4491	-10.0908	-1.5213	-0.0360	-0.0012	-0.0145	17.9033	27.8463	4.0785	0.6245	-0.7794	-0.0121	0.0477
3.07	-0.4492	-10.0718	-1.5204	-0.0206	0.0075	-0.0093	18.0129	27.7996	3.9243	0.6244	-0.7796	-0.0122	0.0477
3.08	-0.4524	-10.0645	-1.5271	-0.0177	0.0029	-0.0109	17.7203	27.9162	3.8457	0.6243	-0.7795	-0.0122	0.0478
3.09	-0.4557	-10.0550	-1.5272	-0.0223	0.0030	-0.0113	17.9420	28.0047	3.9738	0.6242	-0.7797	-0.0122	0.0478
3.1	-0.4527	-10.0535	-1.5343	-0.0153	-0.0019	-0.0097	18.1871	28.0243	3.9964	0.6241	-0.7797	-0.0123	0.0479
3.11	-0.4524	-10.0608	-1.5393	-0.0198	0.0097	-0.0112	18.0973	27.8894	4.0965	0.6241	-0.7798	-0.0123	0.0480
3.12	-0.4511	-10.0690	-1.5437	-0.0220	0.0161	-0.0083	18.1469	27.5084	3.9576	0.6239	-0.7799	-0.0123	0.0480
3.13	-0.4559	-10.0816	-1.5440	-0.0226	0.0149	-0.0058	17.9749	27.5951	4.1008	0.6238	-0.7800	-0.0122	0.0480
3.14	-0.4655	-10.0915	-1.5668	-0.0149	0.0214	-0.0063	18.1332	27.7104	4.0341	0.6238	-0.7801	-0.0122	0.0480
3.15	-0.4754	-10.0758	-1.5627	-0.0101	0.0228	-0.0104	18.0528	27.8265	4.0871	0.6236	-0.7801	-0.0122	0.0480
3.16	-0.4796	-10.0690	-1.5524	-0.0092	0.0269	-0.0092	17.9204	27.8384	3.9184	0.6237	-0.7802	-0.0121	0.0479
3.17	-0.4939	-10.0690	-1.5635	-0.0078	0.0248	-0.0096	17.9809	27.6533	4.2024	0.6236	-0.7802	-0.0121	0.0479
3.18	-0.5106	-10.0680	-1.5637	-0.0080	0.0315	-0.0114	18.1253	27.9311	4.2069	0.6236	-0.7803	-0.0120	0.0479
3.19	-0.5204	-10.0605	-1.5676	-0.0092	0.0298	-0.0101	18.1283	27.7877	4.0218	0.6234	-0.7803	-0.0120	0.0478
3.2	-0.5274	-10.0508	-1.5674	-0.0015	0.0304	-0.0124	18.0031	27.8988	4.2135	0.6234	-0.7803	-0.0119	0.0477
3.21	-0.5258	-10.0506	-1.5648	-0.0008	0.0319	-0.0142	18.0941	27.9880	4.0466	0.6234	-0.7804	-0.0119	0.0477
3.22	-0.5327	-10.0423	-1.5789	-0.0071	0.0328	-0.0225	18.1641	27.8783	4.1285	0.6233	-0.7803	-0.0118	0.0476
3.23	-0.5379	-10.0447	-1.5715	-0.0082	0.0309	-0.0222	17.9807	27.9357	4.2727	0.6234	-0.7805	-0.0118	0.0475
3.24	-0.5483	-10.0458	-1.5850	-0.0069	0.0288	-0.0164	17.9866	27.9054	3.9069	0.6233	-0.7805	-0.0118	0.0474
3.25	-0.5499	-10.0433	-1.5821	0.0037	0.0254	-0.0107	18.0382	27.9014	3.8978	0.6233	-0.7805	-0.0118	0.0474
3.26	-0.5428	-10.0523	-1.5823	-0.0040	0.0132	-0.0129	18.1429	28.0149	4.1832	0.6232	-0.7805	-0.0118	0.0474
3.27	-0.5425	-10.0528	-1.5850	0.0035	0.0219	-0.0140	18.0922	27.9864	4.1195	0.6232	-0.7805	-0.0118	0.0474
3.28	-0.5284	-10.0409	-1.5758	0.0079	0.0088	-0.0082	17.8741	27.8827	4.2001	0.6232	-0.7805	-0.0118	0.0474
3.29	-0.5297	-10.0421	-1.5747	0.0005	-0.0004	-0.0122	18.0530	27.9375	4.2699	0.6232	-0.7805	-0.0118	0.0475
3.3	-0.5207	-10.0536	-1.5804	0.0024	0.0008	-0.0108	18.1183	27.8022	4.1170	0.6232	-0.7806	-0.0118	0.0476
3.31	-0.5120	-10.0576	-1.5825	0.0014	0.0046	-0.0143	18.2834	27.5831	4.3241	0.6232	-0.7805	-0.0119	0.0476
3.32	-0.5056	-10.0590	-1.5839	0.0111	0.0060	-0.0142	18.2718	27.7987	4.0876	0.6232	-0.7806	-0.0119	0.0476
3.33	-0.5047	-10.0573	-1.5782	0.0159	0.0021	-0.0143	18.0990	27.8492	4.0380	0.6232	-0.7804	-0.0119	0.0477
3.34	-0.5045	-10.0458	-1.5771	0.0140	0.0030	-0.0164	18.1488	27.8077	4.2919	0.6233	-0.7805	-0.0120	0.0477
3.35	-0.5049	-10.0478	-1.5693	0.0141	0.0084	-0.0173	18.2522	27.7057	4.2127	0.6233	-0.7804	-0.0120	0.0477
3.36	-0.5085	-10.0365	-1.5806	0.0138	0.0050	-0.0140	18.1344	27.8182	4.0334	0.6233	-0.7804	-0.0121	0.0478
3.37	-0.5075	-10.0286	-1.5687	0.0153	0.0076	-0.0191	18.1106	27.8330	4.1852	0.6234	-0.7804	-0.0121	0.0478
3.38	-0.5076	-10.0436	-1.5669	0.0148	-0.0029	-0.0126	18.0227	27.8140	4.0941	0.6234	-0.7803	-0.0121	0.0478
3.39	-0.5089	-10.0349	-1.5657	0.0132	0.0010	-0.0127	18.2487	27.8403	4.1063	0.6234	-0.7803	-0.0122	0.0479
3.4	-0.5087	-10.0390	-1.5479	0.0055	-0.0050	-0.0111	18.0552	27.8096	4.1617	0.6234	-0.7802	-0.0122	0.0480
3.41	-0.5180	-10.0331	-1.5661	0.0043	-0.0072	-0.0084	17.8996	27.8485	4.2593	0.6235	-0.7804	-0.0123	0.0481
3.42	-0.5022	-10.0176	-1.5530	0.0100	-0.0061	-0.0099	18.0237	27.7820	4.3692	0.6234	-0.7803	-0.0123	0.0482
3.43	-0.4926	-10.0072	-1.5533	0.0035	-0.0049	-0.0092	18.2769	27.9799	4.3009	0.6235	-0.7804	-0.0124	0.0483
3.44	-0.4820	-9.9993	-1.5491	0.0130	0.0002	-0.0113	18.4241	28.1010	4.4348	0.6234	-0.7802	-0.0124	0.0484
3.45	-0.4684	-10.0000	-1.5484	0.0054	-0.0010	-0.0097	18.7063	28.0041	4.5479	0.6235	-0.7803	-0.0125	0.0484
3.46	-0.4568	-10.0033	-1.5479	-0.0019	0.0028	-0.0095	18.1568	27.7591	4.2576	0.6234	-0.7803	-0.0125	0.0485
3.47	-0.4534	-10.0278	-1.5449	-0.0004	0.0045	-0.0097	18.1193	28.2522	4.0590	0.6234	-0.7803	-0.0125	0.0486
3.48	-0.4536	-10.0408	-1.5704	-0.0078	0.0086	-0.0094	18.2247	27.9805	4.1527	0.6234	-0.7804	-0.0126	0.0486
3.49	-0.4635	-10.0580	-1.5656	-0.0023	0.0127	-0.0102	18.1993	27.7323	4.4288	0.6233	-0.7804	-0.0126	0.0486
3.5	-0.4762	-10.0918	-1.5703	0.0003	0.0224	-0.0127	18.1035	27.8179	4.3561	0.6233	-0.7804	-0.0125	0.0486
3.51	-0.5018	-10.0854	-1.5810	0.0056	0.0235	-0.0125	18.2539	27.7189	4.3183	0.6232	-0.7803	-0.0125	0.0486
3.52	-0.5048	-10.0586	-1.5743	0.0079	0.0222	-0.0134	18.2063	27.6258	4.2239	0.6233	-0.7804	-0.0125	0.0486
3.53	-0.4982	-10.0558	-1.5733	0.0118	0.0237	-0.0118	18.1253	27.7488	4.2642	0.6233	-0.7804	-0.0124	0.0485
3.54	-0.5148	-10.0465	-1.5818	0.0111	0.0277	-0.0138	18.4523	27.8736	4.4526	0.6233	-0.7803	-0.0124	0.0485
3.55	-0.5121	-10.0332	-1.5709	0.0066	0.0229	-0.0092	18.2812	27.8061	4.2958	0.6234	-0.7804	-0.0124	0.0485
3.56	-0.5166	-10.0530	-1.5714	0.0005	0.0203	-0.0095	18.1081	27.8531	4.0868	0.6233	-0.7804	-0.0123	0.0485
3.57	-0.5184	-10.0783	-1.5809	0.0012	0.0190	-0.0090	18.1225	27.8051	4.2150	0.6233	-0.7804	-0.0123	0.0485
3.58	-0.5057	-10.0976	-1.5746	-0.0010	0.0192	-0.0096	17.9168	27.9275	4.3397	0.6232	-0.7803	-0.0123	0.0484
3.59	-0.5071	-10.1114	-1.5851	0.0052	0.0212	-0.0054	18.1302	27.9060	4.2029	0.6233	-0.7804	-0.0122	0.0484
3.6	-0.5097	-10.1052	-1.5737	0.0133	0.0251	0.0014	18.1022	27.7858	4.1070	0.6233	-0.7804	-0.0121	0.0485
3.61	-0.5286	-10.1042	-1.5810	0.0176	0.0315	-0.0078	18.0320	27.9097	4.2188	0.6234	-0.7804	-0.0121	0.0484
3.62	-0.5552	-10.0846	-1.6000	0.0152	0.0333	-0.0055	18.1539	28.0121	4.3319	0.6234	-0.7803	-0.0120	0.0484
3.63	-0.5718	-10.0441	-1.5963	0.0131	0.0343	-0.0121	18.0232	27.8886	4.3176	0.6234	-0.7803	-0.0119	0.0483
3.64	-0.5793	-10.0221	-1.5912	0.0192	0.0374	-0.0129	18.0654	27.9532	4.1132	0.6235	-0.7803	-0.0118	0.0482
3.65	-0.5966	-10.0175	-1.5848	0.0198	0.0392	-0.0176	18.0396	27.8089	4.2443	0.6235	-0.7802	-0.0118	0.0481
3.66	-0.6054	-10.0305	-1.5838	0.0277	0.0342	-0.0228	18.1601	27.9621	4.2075	0.6236	-0.7802	-0.0117	0.0480
3.67	-0.6248	-10.0324	-1.5942	0.0194	0.0310	-0.0243	18.2913	27.7166	4.1524	0.6237	-0.7801	-0.0117	0.0479
3.68	-0.6477	-10.0440	-1.5889	0.0162	0.0199	-0.0197	18.3288	27.6399	4.3369	0.6238	-0.7802	-0.0117	0.0479
3.69	-0.6551	-10.0549	-1.5847	0.0186	0.0144	-0.0227	18.3264	27.6753	4.3467	0.6237	-0.7800	-0.0118	0.0478
3.7	-0.6533	-10.0601	-1.5878	0.0243	0.0030	-0.0288	18.1725	27.5300	4.1670	0.6238	-0.7800	-0.0118	0.0478
3.71	-0.6195	-10.0514	-1.5814	0.0317	-0.0075	-0.0279	18.1431	27.6207	4.1954	0.6239	-0.7799	-0.0120	0.0479
3.72	-0.5966	-10.0363	-1.5761	0.0213	-0.0187	-0.0288	18.1152	27.7397	4.2500	0.6240	-0.7798	-0.0121	0.0480
3.73	-0.5734	-10.0348	-1.5669	0.0258	-0.0193	-0.0260	18.2958	27.8487	4.2308	0.6241	-0.7798	-0.0123	0.0481
3.74	-0.5571	-10.0156	-1.5541	0.0244	-0.0233	-0.0270	18.1149	27.6895	4.3593	0.6242	-0.7797	-0.0124	0.0482
3.75	-0.5396	-10.0030	-1.5408	0.0245	-0.0262	-0.0237	18.0942	27.8435	4.0519	0.6243	-0.7797	-0.0126	0.0483
3.76	-0.5243	-10.0036	-1.5284	0.0163	-0.0183	-0.0290	18.1708	27.7293	4.0434	0.6242	-0.7795	-0.0128	0.0484
3.77	-0.5135	-9.9983	-1.5330	0.0154	-0.0177	-0.0254	17.9110	27.8769	4.0609	0.6243	-0.7796	-0.0129	0.0485
3.78	-0.4978	-10.0038	-1.5221	0.0159	-0.0167	-0.0271	18.1638	27.9168	4.2090	0.6244	-0.7795	-0.0131	0.0486
3.79	-0.4917	-10.0007	-1.5268	0.0150	-0.0133	-0.0327	18.0770	27.6884	4.2525	0.6244	-0.7795	-0.0132	0.0486
3.8	-0.4781	-10.0102	-1.5131	0.0138	-0.0187	-0.0284	17.9298	27.9771	4.2106	0.6244	-0.7795	-0.0134	0.0487
3.81	-0.4898	-10.0193	-1.5279	0.0122	-0.0090	-0.0361	18.1578	28.1107	4.1242	0.6245	-0.7794	-0.0136	0.0487
3.82	-0.4773	-10.0112	-1.5343	0.0125	-0.0108	-0.0318	18.0479	28.1054	4.1390	0.6245	-0.7794	-0.0137	0.0488
3.83	-0.4512	-10.0244	-1.5195	0.0110	-0.0092	-0.0359	18.1624	28.0033	4.1563	0.6245	-0.7793	-0.0139	0.0488
3.84	-0.4418	-10.0427	-1.5272	0.0143	-0.0045	-0.0325	18.0971	27.9005	4.0045	0.6246	-0.7794	-0.0140	0.0488
3.85	-0.4694	-10.0238	-1.5270	0.0137	0.0019	-0.0236	17.9507	27.8995	4.1259	0.6246	-0.7793	-0.0141	0.0489
3.86	-0.4903	-10.0152	-1.5316	0.0026	0.0070	-0.0289	18.1710	27.7203	4.0813	0.6246	-0.7793	-0.0142	0.0488
3.87	-0.5137	-10.0202	-1.5347	0.0055	0.0014	-0.0264	18.1350	27.8487	4.0336	0.6246	-0.7793	-0.0143	0.0488
3.88	-0.5190	-10.0112	-1.5444	0.0043	-0.0036	-0.0346	18.2536	27.6924	4.1976	0.6246	-0.7793	-0.0144	0.0489
3.89	-0.4823	-10.0215	-1.5385	0.0022	-0.0060	-0.0337	18.0296	27.8232	4.0706	0.6246	-0.7793	-0.0146	0.0489
3.9	-0.4550	-10.0552	-1.5523	-0.0068	-0.0123	-0.0357	18.1439	27.8207	4.0270	0.6245	-0.7793	-0.0147	0.0489
3.91	-0.4329	-10.0871	-1.5572	-0.0078	-0.0014	-0.0256	18.1477	27.8491	4.1831	0.6245	-0.7794	-0.0148	0.0489
3.92	-0.4213	-10.1128	-1.5675	-0.0016	0.0019	-0.0319	17.9794	27.7750	4.2511	0.6244	-0.7794	-0.0150	0.0489
3.93	-0.4157	-10.1335	-1.5748	0.0056	0.0057	-0.0231	18.2549	27.7700	4.2200	0.6245	-0.7795	-0.0150	0.0489
3.94	-0.4135	-10.1309	-1.5634	0.0151	0.0028	-0.0125	18.5473	28.1251	4.3258	0.6244	-0.7793	-0.0151	0.0490
3.95	-0.4177	-10.1175	-1.5680	0.0150	0.0100	-0.0143	18.7051	28.2253	4.3419	0.6245	-0.7793	-0.0151	0.0490
3.96	-0.4219	-10.0881	-1.5559	0.0168	0.0156	-0.0083	18.2264	27.9883	4.2301	0.6246	-0.7793	-0.0151	0.0490
3.97	-0.4306	-10.0558	-1.5456	0.0165	0.0148	-0.0108	18.1130	28.4249	3.9928	0.6246	-0.7792	-0.0151	0.0490
3.98	-0.4328	-10.0385	-1.5350	0.0212	0.0124	-0.0113	18.0091	28.2342	3.9112	0.6247	-0.7793	-0.0151	0.0491
3.99	-0.4365	-10.0251	-1.5312	0.0155	0.0154	-0.0106	18.0478	27.9744	4.0283	0.6247	-0.7792	-0.0151	0.0491
4	-0.4378	-10.0273	-1.5248	0.0167	0.0202	-0.0079	18.0344	28.0760	4.2193	0.6248	-0.7792	-0.0150	0.0491
4.01	-0.4418	-10.0444	-1.5210	0.0199	0.0252	-0.0135	18.1223	27.8682	3.8965	0.6247	-0.7790	-0.0150	0.0490
4.02	-0.4585	-10.0638	-1.5329	0.0122	0.0280	-0.0102	18.0329	28.0037	4.1340	0.6248	-0.7791	-0.0149	0.0490
4.03	-0.4852	-10.0831	-1.5287	0.0198	0.0341	-0.0083	17.8622	28.0205	4.0718	0.6249	-0.7791	-0.0149	0.0490
4.04	-0.5015	-10.1106	-1.5426	0.0182	0.0290	-0.0087	18.2184	27.8072	4.0495	0.6249	-0.7790	-0.0148	0.0489
4.05	-0.5168	-10.1255	-1.5533	0.0179	0.0273	-0.0086	18.3072	27.9410	4.0303	0.6250	-0.7790	-0.0147	0.0489
4.06	-0.5367	-10.1401	-1.5635	0.0345	0.0315	-0.0082	18.0937	27.8097	3.9734	0.6251	-0.7789	-0.0147	0.0488
4.07	-0.5545	-10.1515	-1.5746	0.0411	0.0303	-0.0101	18.1235	27.7548	4.0882	0.6252	-0.7788	-0.0146	0.0488
4.08	-0.5666	-10.1533	-1.5778	0.0387	0.0284	-0.0111	18.2322	27.8221	4.0325	0.6253	-0.7786	-0.0145	0.0487
4.09	-0.5710	-10.1789	-1.5779	0.0503	0.0197	-0.0114	18.1832	27.9453	4.0591	0.6255	-0.7786	-0.0145	0.0487
4.1	-0.5748	-10.2284	-1.5926	0.0613	0.0120	-0.0083	18.0047	28.1244	4.0490	0.6257	-0.7784	-0.0145	0.0488
4.11	-0.5758	-10.2412	-1.6100	0.0676	0.0043	-0.0138	18.0591	27.7882	4.2779	0.6260	-0.7782	-0.0145	0.0488
4.12	-0.5702	-10.2253	-1.6018	0.0920	0.0025	-0.0097	18.0361	27.8328	4.0977	0.6263	-0.7779	-0.0145	0.0489
4.13	-0.5691	-10.2026	-1.5954	0.1040	0.0024	-0.0066	18.1539	27.9185	3.9464	0.6266	-0.7776	-0.0145	0.0490
4.14	-0.5660	-10.1947	-1.6029	0.1117	-0.0006	-0.0063	18.1412	27.9019	4.1062	0.6271	-0.7773	-0.0145	0.0490
4.15	-0.5598	-10.1806	-1.6199	0.1187	0.0070	-0.0075	18.0458	27.8974	3.9494	0.6274	-0.7769	-0.0145	0.0491
4.16	-0.5785	-10.1789	-1.6019	0.1162	0.0151	0.0000	18.0425	27.9077	3.8535	0.6279	-0.7766	-0.0144	0.0492
4.17	-0.6133	-10.2287	-1.5986	0.1209	0.0099	0.0027	18.1762	28.0334	4.0395	0.6283	-0.7762	-0.0143	0.0492
4.18	-0.6515	-10.2673	-1.6201	0.1366	0.0099	0.0072	18.0557	27.8983	4.0040	0.6289	-0.7759	-0.0142	0.0493
4.19	-0.6608	-10.2834	-1.6024	0.1529	0.0084	0.0110	17.9397	27.8916	3.8393	0.6294	-0.7753	-0.0141	0.0494
4.2	-0.6562	-10.3171	-1.5946	0.1726	-0.0026	0.0115	18.0767	28.1303	3.7459	0.6300	-0.7749	-0.0140	0.0496
4.21	-0.6504	-10.2958	-1.6115	0.1996	-0.0063	0.0106	18.1810	28.1897	3.5896	0.6308	-0.7743	-0.0140	0.0498
4.22	-0.6152	-10.2556	-1.5936	0.2202	-0.0168	0.0176	18.0107	28.0122	3.5842	0.6315	-0.7735	-0.0139	0.0500
4.23	-0.5987	-10.2541	-1.5869	0.2347	-0.0033	0.0180	18.1842	27.8540	3.5832	0.6325	-0.7729	-0.0138	0.0502
4.24	-0.5887	-10.2279	-1.5943	0.2621	-0.0136	0.0212	18.1905	27.9618	3.4519	0.6334	-0.7720	-0.0137	0.0504
4.25	-0.5459	-10.2116	-1.5519	0.2728	-0.0221	0.0139	18.3620	27.9645	3.3335	0.6345	-0.7713	-0.0136	0.0507
4.26	-0.4796	-10.1930	-1.5203	0.2691	-0.0186	0.0064	18.4125	27.6785	3.2237	0.6354	-0.7703	-0.0136	0.0509
4.27	-0.4260	-10.1927	-1.4850	0.2822	-0.0158	0.0039	18.2930	27.9673	3.3204	0.6365	-0.7695	-0.0135	0.0511
4.28	-0.3751	-10.1707	-1.4553	0.2988	-0.0105	0.0004	18.4625	27.9811	3.1485	0.6376	-0.7685	-0.0135	0.0513
4.29	-0.2819	-10.1668	-1.3946	0.3004	0.0003	0.0016	18.3018	27.9923	3.0629	0.6387	-0.7676	-0.0134	0.0514
4.3	-0.2146	-10.1282	-1.3721	0.3145	0.0278	0.0081	18.2139	27.9632	2.8181	0.6399	-0.7666	-0.0132	0.0514
4.31	-0.1561	-10.1265	-1.3008	0.3190	0.0459	0.0018	18.2241	28.0225	2.7242	0.6411	-0.7656	-0.0130	0.0514
4.32	-0.1132	-10.1074	-1.2830	0.3240	0.0820	-0.0035	18.4241	28.0946	2.8194	0.6423	-0.7647	-0.0127	0.0512
4.33	-0.1311	-10.0912	-1.2071	0.3229	0.1200	-0.0030	18.3001	28.0537	2.8916	0.6435	-0.7636	-0.0122	0.0509
4.34	-0.1368	-10.1093	-1.1780	0.3232	0.1454	-0.0113	18.2146	28.1849	2.5763	0.6448	-0.7627	-0.0117	0.0505
4.35	-0.1302	-10.1095	-1.1301	0.3311	0.1712	-0.0150	18.1828	28.1242	2.4516	0.6460	-0.7616	-0.0112	0.0499
4.36	-0.1734	-10.1120	-1.0703	0.3259	0.2157	-0.0231	18.0970	28.2191	2.4871	0.6472	-0.7607	-0.0105	0.0492
4.37	-0.1618	-10.0876	-1.0498	0.3226	0.2461	-0.0265	18.1612	28.3463	2.4735	0.6484	-0.7597	-0.0098	0.0483
4.38	-0.1756	-10.0510	-0.9566	0.3242	0.2751	-0.0322	18.0911	28.1914	2.3243	0.6496	-0.7587	-0.0089	0.0473
4.39	-0.2358	-10.0830	-0.8979	0.3180	0.3083	-0.0463	18.0318	28.3239	2.0578	0.6509	-0.7578	-0.0080	0.0461
4.4	-0.2759	-10.1235	-0.8739	0.3092	0.3339	-0.0510	18.0556	28.3057	1.8906	0.6520	-0.7568	-0.0071	0.0448
4.41	-0.3318	-10.1593	-0.7931	0.3224	0.3590	-0.0537	17.9347	28.4627	2.0528	0.6533	-0.7559	-0.0061	0.0434
4.42	-0.4010	-10.1839	-0.7532	0.3234	0.3780	-0.0543	17.9617	28.1903	2.1165	0.6544	-0.7549	-0.0050	0.0419
4.43	-0.4242	-10.1806	-0.7280	0.3316	0.3997	-0.0619	18.2315	28.4221	2.1098	0.6557	-0.7540	-0.0038	0.0404
4.44	-0.4253	-10.1510	-0.6720	0.3468	0.4184	-0.0640	18.6282	28.3067	2.0882	0.6569	-0.7529	-0.0027	0.0387
4.45	-0.3806	-10.1354	-0.6303	0.3435	0.4329	-0.0682	18.8928	28.1563	2.1538	0.6583	-0.7519	-0.0014	0.0369
4.46	-0.3964	-10.0926	-0.5985	0.3440	0.4624	-0.0716	18.2763	28.2984	1.8656	0.6596	-0.7508	-0.0001	0.0351
4.47	-0.4548	-10.0444	-0.6131	0.3325	0.4834	-0.0763	18.1647	28.6304	1.6952	0.6607	-0.7498	0.0012	0.0332
4.48	-0.4854	-10.0024	-0.5845	0.3235	0.4786	-0.0743	17.9047	28.7550	1.7435	0.6620	-0.7489	0.0026	0.0312
4.49	-0.5396	-9.9642	-0.5863	0.3228	0.4861	-0.0820	17.7465	28.4068	1.4217	0.6632	-0.7479	0.0039	0.0293
4.5	-0.5477	-9.9621	-0.5598	0.3130	0.4778	-0.0909	17.6784	28.5799	1.5170	0.6644	-0.7470	0.0052	0.0273
4.51	-0.5912	-9.9819	-0.5390	0.2967	0.4757	-0.0928	17.8411	28.7519	1.6406	0.6654	-0.7460	0.0064	0.0253
4.52	-0.5815	-10.0959	-0.4866	0.2914	0.4544	-0.1048	17.7517	29.0104	1.4976	0.6665	-0.7451	0.0076	0.0234
4.53	-0.5402	-10.1888	-0.4767	0.2931	0.4524	-0.1079	17.4105	28.8500	1.5681	0.6675	-0.7442	0.0087	0.0215
4.54	-0.4840	-10.1953	-0.4229	0.3063	0.4432	-0.1098	17.4791	28.9039	1.4422	0.6686	-0.7433	0.0098	0.0196
4.55	-0.4438	-10.2066	-0.3590	0.3155	0.4401	-0.1092	17.2349	29.0671	1.3385	0.6698	-0.7423	0.0109	0.0177
4.56	-0.4147	-10.2154	-0.3291	0.3275	0.4342	-0.0992	17.4194	28.6958	1.3373	0.6709	-0.7412	0.0120	0.0158
4.57	-0.4196	-10.1868	-0.2881	0.3430	0.4350	-0.0979	17.2704	28.9480	1.3789	0.6722	-0.7402	0.0131	0.0140
4.58	-0.4478	-10.1155	-0.2542	0.3483	0.4313	-0.0971	17.2898	29.1464	1.2143	0.6733	-0.7390	0.0142	0.0122
4.59	-0.4390	-10.0542	-0.2172	0.3462	0.4158	-0.0994	17.2424	28.8777	1.3136	0.6746	-0.7380	0.0152	0.0104
4.6	-0.4426	-9.9788	-0.1831	0.3488	0.4106	-0.0985	17.1700	28.8011	0.9408	0.6759	-0.7368	0.0162	0.0087
4.61	-0.4594	-9.9548	-0.1331	0.3338	0.3895	-0.0979	17.1669	28.7219	0.9669	0.6771	-0.7357	0.0172	0.0070
4.62	-0.4663	-9.9754	-0.1114	0.3123	0.3763	-0.1027	17.2150	28.8676	0.8549	0.6781	-0.7347	0.0181	0.0053
4.63	-0.4838	-9.9966	-0.0606	0.3009	0.3536	-0.1018	17.1007	28.6984	0.8520	0.6792	-0.7337	0.0190	0.0037
4.64	-0.4992	-10.0800	0.0129	0.2926	0.3373	-0.0964	17.0076	29.0588	0.9761	0.6802	-0.7327	0.0198	0.0023
4.65	-0.5263	-10.1549	0.0118	0.2927	0.3169	-0.0957	17.2266	29.1302	0.7644	0.6812	-0.7317	0.0205	0.0009
4.66	-0.5584	-10.2256	0.0808	0.2962	0.2877	-0.0808	16.9485	29.0893	0.6631	0.6823	-0.7308	0.0212	-0.0003
4.67	-0.6158	-10.2485	0.0977	0.3026	0.2733	-0.0712	16.8937	28.9635	0.6341	0.6833	-0.7298	0.0218	-0.0015
4.68	-0.6886	-10.2435	0.1192	0.3212	0.2438	-0.0649	16.9536	29.1597	0.6906	0.6845	-0.7288	0.0224	-0.0025
4.69	-0.7314	-10.2629	0.1446	0.3240	0.2035	-0.0507	16.6989	29.2069	0.2696	0.6855	-0.7276	0.0229	-0.0034
4.7	-0.7480	-10.2556	0.0962	0.3448	0.1716	-0.0526	16.5471	29.2807	0.3468	0.6868	-0.7265	0.0233	-0.0041
4.71	-0.7341	-10.1622	0.1114	0.3545	0.1317	-0.0433	16.7050	29.4436	0.4756	0.6880	-0.7253	0.0236	-0.0047
4.72	-0.7077	-10.0983	0.1510	0.3660	0.0991	-0.0347	16.5459	29.4348	0.1988	0.6893	-0.7240	0.0238	-0.0051
4.73	-0.6909	-10.1215	0.1593	0.3566	0.0530	-0.0285	16.5665	29.4665	0.2661	0.6906	-0.7229	0.0238	-0.0053
4.74	-0.6557	-10.1988	0.1747	0.3526	0.0118	-0.0268	16.4186	29.5438	0.2612	0.6918	-0.7216	0.0238	-0.0053
4.75	-0.6401	-10.2226	0.1681	0.3717	-0.0213	-0.0157	16.5678	29.3259	0.0371	0.6932	-0.7204	0.0236	-0.0052
4.76	-0.6143	-10.2683	0.2059	0.3795	-0.0601	-0.0077	16.4739	29.4558	-0.1255	0.6945	-0.7190	0.0233	-0.0049
4.77	-0.5389	-10.3739	0.2257	0.3756	-0.0906	0.0056	16.4573	29.5384	-0.4129	0.6959	-0.7178	0.0230	-0.0045
4.78	-0.4344	-10.3958	0.2073	0.4078	-0.1319	0.0237	16.4960	29.3552	-0.4354	0.6973	-0.7164	0.0226	-0.0039
4.79	-0.3572	-10.3682	0.2853	0.4259	-0.1569	0.0539	16.7212	29.3657	-0.6708	0.6988	-0.7149	0.0222	-0.0031
4.8	-0.2830	-10.3207	0.3251	0.4343	-0.1783	0.0842	16.8502	29.2520	-1.0024	0.7004	-0.7135	0.0218	-0.0020
4.81	-0.2606	-10.1908	0.3680	0.4501	-0.1881	0.1091	16.7973	29.2663	-0.9722	0.7019	-0.7119	0.0215	-0.0009
4.82	-0.2418	-10.0972	0.4621	0.4559	-0.1998	0.1162	16.8962	29.2483	-1.1628	0.7036	-0.7103	0.0212	0.0003
4.83	-0.2034	-10.0420	0.4826	0.4505	-0.2083	0.1120	16.9204	29.3489	-1.1303	0.7051	-0.7087	0.0208	0.0016
4.84	-0.2337	-9.9528	0.5401	0.4582	-0.2025	0.1145	16.9023	29.3551	-1.4079	0.7068	-0.7071	0.0205	0.0028
4.85	-0.2380	-10.0030	0.6799	0.4524	-0.2160	0.1168	16.9333	29.3422	-1.5964	0.7084	-0.7055	0.0201	0.0041
4.86	-0.2383	-10.0704	0.6813	0.4468	-0.2072	0.1083	17.1176	29.3607	-1.9684	0.7100	-0.7040	0.0197	0.0053
4.87	-0.2662	-10.0786	0.7819	0.4517	-0.2158	0.1004	16.9673	29.2358	-2.0878	0.7115	-0.7023	0.0193	0.0065
4.88	-0.2240	-10.0631	0.8551	0.4574	-0.2223	0.0968	17.0556	29.2772	-2.0787	0.7131	-0.7007	0.0188	0.0077
4.89	-0.2079	-9.9868	0.9171	0.4606	-0.1996	0.0912	17.2771	29.2272	-2.2742	0.7148	-0.6991	0.0184	0.0089
4.9	-0.1957	-9.8966	0.9939	0.4519	-0.1988	0.0799	17.2789	29.3694	-2.5585	0.7163	-0.6974	0.0179	0.0100
4.91	-0.1726	-9.8217	1.0641	0.4481	-0.1786	0.0733	17.1459	29.1992	-2.6095	0.7179	-0.6959	0.0175	0.0110
4.92	-0.1993	-9.7761	1.1197	0.4218	-0.1652	0.0760	17.0910	29.2118	-2.8415	0.7193	-0.6943	0.0172	0.0119
4.93	-0.2515	-9.7077	1.1316	0.4035	-0.1453	0.0722	17.5797	29.4712	-2.9175	0.7208	-0.6929	0.0169	0.0128
4.94	-0.2800	-9.7296	1.2258	0.3754	-0.1390	0.0697	17.8309	29.3879	-2.9103	0.7220	-0.6915	0.0166	0.0137
4.95	-0.3260	-9.7931	1.2305	0.3493	-0.1307	0.0675	18.0224	29.5802	-3.1080	0.7232	-0.6903	0.0164	0.0145
4.96	-0.3592	-9.8073	1.2333	0.3303	-0.1216	0.0706	17.6022	29.3326	-3.1818	0.7244	-0.6891	0.0161	0.0153
4.97	-0.3791	-9.8044	1.2743	0.3220	-0.1137	0.0668	17.5406	29.7298	-3.6434	0.7254	-0.6879	0.0159	0.0161
4.98	-0.4078	-9.7841	1.2906	0.3092	-0.1004	0.0681	17.4410	29.3179	-3.8109	0.7266	-0.6868	0.0158	0.0168
4.99	-0.4612	-9.7526	1.2954	0.2905	-0.0898	0.0677	17.5475	28.9868	-3.6509	0.7275	-0.6857	0.0157	0.0175
5	-0.4982	-9.6808	1.3130	0.2764	-0.0912	0.0699	17.5827	29.0602	-3.8422	0.7284	-0.6848	0.0156	0.0182
5.01	-0.5201	-9.6834	1.3828	0.2556	-0.0866	0.0698	17.6610	29.0814	-3.9182	0.7292	-0.6837	0.0155	0.0189
5.02	-0.5681	-9.6987	1.3462	0.2348	-0.0815	0.0652	17.8010	29.1697	-4.0882	0.7301	-0.6830	0.0154	0.0195
5.03	-0.5713	-9.7298	1.3785	0.2240	-0.0845	0.0660	17.7035	28.9628	-4.1014	0.7308	-0.6821	0.0153	0.0202
5.04	-0.5673	-9.7787	1.3806	0.2139	-0.0877	0.0618	17.6282	29.2367	-4.2683	0.7317	-0.6811	0.0151	0.0208
5.05	-0.6051	-9.8238	1.3732	0.1902	-0.0875	0.0590	17.9048	29.0594	-4.2553	0.7324	-0.6804	0.0150	0.0215
5.06	-0.5909	-9.8836	1.3742	0.1897	-0.0898	0.0545	17.7773	28.9810	-4.2582	0.7330	-0.6796	0.0148	0.0221
5.07	-0.5950	-9.8820	1.3719	0.1938	-0.0892	0.0506	17.8127	29.0617	-4.5016	0.7337	-0.6790	0.0146	0.0227
5.08	-0.6257	-9.8575	1.3670	0.1884	-0.0858	0.0448	17.8759	29.1262	-4.5493	0.7342	-0.6782	0.0144	0.0233
5.09	-0.6246	-9.8533	1.3894	0.1836	-0.0909	0.0433	17.7199	28.8440	-4.6306	0.7349	-0.6776	0.0142	0.0240
5.1	-0.6219	-9.8499	1.4057	0.1734	-0.0938	0.0403	17.7927	29.0243	-4.6093	0.7355	-0.6770	0.0140	0.0246
5.11	-0.6453	-9.8134	1.4113	0.1703	-0.1017	0.0395	17.7069	29.1380	-4.6794	0.7360	-0.6764	0.0137	0.0252
5.12	-0.6543	-9.8213	1.4293	0.1665	-0.1012	0.0400	17.9951	28.9588	-4.8478	0.7366	-0.6757	0.0135	0.0258
5.13	-0.6648	-9.8829	1.4294	0.1447	-0.1062	0.0432	17.8553	28.9197	-4.7508	0.7370	-0.6752	0.0132	0.0265
5.14	-0.6839	-9.9157	1.4137	0.1427	-0.1185	0.0402	17.9483	28.8870	-4.9467	0.7375	-0.6747	0.0129	0.0272
5.15	-0.6848	-9.9101	1.4203	0.1420	-0.1264	0.0516	18.0903	29.0180	-5.0077	0.7379	-0.6741	0.0126	0.0279
5.16	-0.6814	-9.9253	1.4381	0.1427	-0.1366	0.0580	17.7600	28.9737	-4.9872	0.7385	-0.6737	0.0122	0.0287
5.17	-0.6967	-9.9331	1.4416	0.1420	-0.1481	0.0544	18.1174	28.7781	-5.2900	0.7389	-0.6731	0.0118	0.0296
5.18	-0.6777	-9.9355	1.4761	0.1464	-0.1558	0.0574	18.2600	28.8509	-5.2170	0.7394	-0.6726	0.0114	0.0304
5.19	-0.6527	-9.9201	1.5105	0.1521	-0.1608	0.0623	18.0030	28.8060	-5.3946	0.7398	-0.6719	0.0110	0.0314
5.2	-0.6461	-9.8939	1.5375	0.1547	-0.1601	0.0651	18.0215	28.8356	-5.5380	0.7403	-0.6714	0.0106	0.0323
5.21	-0.6440	-9.8983	1.5656	0.1448	-0.1676	0.0626	18.0474	28.8114	-5.4330	0.7408	-0.6709	0.0102	0.0332
5.22	-0.6231	-9.8848	1.5672	0.1425	-0.1758	0.0597	18.2883	28.8494	-5.7632	0.7412	-0.6703	0.0097	0.0342
5.23	-0.5899	-9.8852	1.6119	0.1445	-0.1666	0.0563	18.3100	28.7028	-5.4933	0.7418	-0.6698	0.0093	0.0351
5.24	-0.5847	-9.8755	1.6123	0.1411	-0.1567	0.0510	18.0944	28.6494	-5.5588	0.7421	-0.6692	0.0088	0.0360
5.25	-0.5821	-9.8606	1.6447	0.1446	-0.1516	0.0394	18.2352	28.8386	-5.7679	0.7426	-0.6687	0.0084	0.0368
5.26	-0.5880	-9.8400	1.6511	0.1383	-0.1427	0.0309	18.4126	28.7508	-5.9351	0.7430	-0.6681	0.0079	0.0375
5.27	-0.5924	-9.8328	1.6681	0.1394	-0.1293	0.0233	18.2527	28.4792	-5.7480	0.7435	-0.6676	0.0075	0.0382
5.28	-0.6149	-9.8146	1.6857	0.1418	-0.1215	0.0154	18.3173	28.6906	-5.8946	0.7439	-0.6671	0.0071	0.0388
5.29	-0.6277	-9.8043	1.7046	0.1333	-0.1130	0.0137	18.2565	28.7383	-5.8881	0.7443	-0.6666	0.0067	0.0394
5.3	-0.6274	-9.7967	1.7178	0.1217	-0.1062	0.0064	18.4172	28.7425	-6.0256	0.7447	-0.6662	0.0063	0.0399
5.31	-0.6429	-9.7893	1.7210	0.1181	-0.0986	-0.0037	18.3259	28.9410	-6.2214	0.7451	-0.6657	0.0059	0.0404
5.32	-0.6543	-9.7918	1.7100	0.1095	-0.0885	-0.0080	18.2819	28.6976	-5.9603	0.7455	-0.6653	0.0055	0.0408
5.33	-0.6187	-9.7681	1.7174	0.1056	-0.0895	-0.0105	18.2760	28.8326	-6.0916	0.7457	-0.6648	0.0051	0.0412
5.34	-0.5915	-9.7573	1.7594	0.0929	-0.0810	-0.0070	18.4320	28.7038	-6.3152	0.7461	-0.6646	0.0048	0.0416
5.35	-0.6090	-9.7742	1.7514	0.0919	-0.0703	-0.0093	18.4375	28.7566	-6.4101	0.7463	-0.6642	0.0044	0.0420
5.36	-0.5974	-9.7828	1.7495	0.0762	-0.0639	-0.0060	18.3522	28.6600	-6.5094	0.7466	-0.6640	0.0041	0.0423
5.37	-0.5796	-9.7563	1.7700	0.0723	-0.0605	-0.0102	18.3941	28.6193	-6.2147	0.7468	-0.6637	0.0038	0.0426
5.38	-0.5700	-9.7224	1.7714	0.0681	-0.0523	-0.0073	18.3615	28.6790	-6.3440	0.7470	-0.6634	0.0036	0.0429
5.39	-0.5614	-9.7251	1.7913	0.0593	-0.0454	-0.0094	18.3895	28.5637	-6.5156	0.7472	-0.6632	0.0033	0.0432
5.4	-0.5938	-9.7429	1.7839	0.0398	-0.0286	-0.0052	18.3620	28.5513	-6.3256	0.7472	-0.6630	0.0032	0.0434
5.41	-0.6098	-9.7791	1.7838	0.0391	-0.0229	-0.0089	18.4078	28.6346	-6.6049	0.7474	-0.6630	0.0030	0.0436
5.42	-0.6051	-9.8033	1.7757	0.0366	-0.0191	-0.0098	18.4625	28.5481	-6.4907	0.7475	-0.6628	0.0029	0.0438
5.43	-0.6079	-9.8159	1.7787	0.0367	-0.0123	-0.0072	18.2994	28.7584	-6.4058	0.7476	-0.6628	0.0028	0.0440
5.44	-0.6216	-9.8532	1.7873	0.0301	-0.0115	-0.0094	18.6844	28.6326	-6.1441	0.7476	-0.6626	0.0027	0.0441
5.45	-0.6341	-9.8803	1.7852	0.0337	0.0018	-0.0093	19.0892	28.6352	-6.2135	0.7478	-0.6625	0.0026	0.0442
5.46	-0.6400	-9.8619	1.7906	0.0375	0.0097	-0.0082	18.6299	28.7860	-6.4528	0.7479	-0.6624	0.0026	0.0443
5.47	-0.6447	-9.8624	1.8050	0.0365	0.0083	-0.0114	18.5547	29.2484	-6.5628	0.7479	-0.6622	0.0025	0.0444
5.48	-0.6569	-9.8627	1.7984	0.0413	0.0207	-0.0145	18.3356	28.9632	-6.4734	0.7481	-0.6622	0.0025	0.0444
5.49	-0.6647	-9.8416	1.8068	0.0380	0.0157	-0.0084	18.2303	28.8089	-6.3921	0.7481	-0.6620	0.0025	0.0445
5.5	-0.6786	-9.8367	1.8185	0.0410	0.0138	-0.0077	18.4481	28.6633	-6.4337	0.7483	-0.6619	0.0025	0.0445
5.51	-0.7007	-9.8409	1.8039	0.0373	0.0107	-0.0104	18.3232	28.7666	-6.7242	0.7483	-0.6617	0.0025	0.0446
5.52	-0.7119	-9.8004	1.7933	0.0384	0.0110	-0.0107	18.3273	28.7355	-6.7438	0.7485	-0.6617	0.0024	0.0447
5.53	-0.7200	-9.8182	1.8466	0.0304	0.0030	-0.0057	18.1732	28.4791	-6.7031	0.7485	-0.6616	0.0024	0.0448
5.54	-0.7328	-9.8612	1.8292	0.0293	-0.0008	-0.0084	18.3964	28.5082	-6.8199	0.7486	-0.6615	0.0023	0.0449
5.55	-0.7279	-9.8410	1.8338	0.0413	-0.0141	-0.0135	18.6196	28.3967	-6.5360	0.7487	-0.6614	0.0022	0.0451
5.56	-0.6831	-9.8190	1.8570	0.0358	-0.0266	-0.0115	18.3224	28.5496	-6.7499	0.7488	-0.6612	0.0020	0.0453
5.57	-0.6520	-9.8518	1.8603	0.0343	-0.0238	-0.0088	18.3670	28.6134	-6.7910	0.7489	-0.6611	0.0019	0.0455
5.58	-0.6455	-9.8979	1.8543	0.0249	-0.0214	-0.0063	18.5494	28.4743	-6.6710	0.7489	-0.6610	0.0017	0.0457
5.59	-0.6716	-9.8731	1.8523	0.0381	-0.0170	-0.0056	18.4547	28.6298	-6.6877	0.7491	-0.6609	0.0016	0.0459
5.6	-0.6781	-9.8235	1.8627	0.0410	-0.0187	-0.0029	18.6424	28.6609	-6.6648	0.7492	-0.6608	0.0015	0.0461
5.61	-0.6757	-9.8038	1.8929	0.0401	-0.0173	-0.0091	18.6334	28.4822	-6.7447	0.7493	-0.6607	0.0013	0.0462
5.62	-0.6867	-9.8111	1.8994	0.0417	-0.0104	-0.0086	18.5824	28.5138	-6.7841	0.7494	-0.6605	0.0012	0.0464
5.63	-0.6845	-9.8167	1.9135	0.0378	-0.0219	-0.0092	18.5785	28.4794	-6.7409	0.7495	-0.6604	0.0011	0.0466
5.64	-0.6577	-9.8100	1.9273	0.0318	-0.0213	-0.0097	18.4772	28.5553	-6.6096	0.7496	-0.6603	0.0009	0.0468
5.65	-0.6347	-9.7995	1.9290	0.0314	-0.0153	-0.0092	18.5265	28.6682	-6.5589	0.7496	-0.6601	0.0008	0.0469
5.66	-0.6239	-9.8052	1.9269	0.0352	-0.0179	-0.0095	18.4900	28.7955	-6.7434	0.7498	-0.6601	0.0007	0.0471
5.67	-0.6304	-9.8189	1.9173	0.0241	-0.0109	-0.0069	18.5209	28.7003	-6.7528	0.7498	-0.6600	0.0006	0.0473
5.68	-0.6287	-9.8475	1.9147	0.0229	0.0042	-0.0090	18.4929	28.6724	-6.8932	0.7499	-0.6600	0.0005	0.0474
5.69	-0.6275	-9.8491	1.9217	0.0374	0.0008	-0.0085	18.5319	28.6627	-7.0993	0.7499	-0.6598	0.0004	0.0475
5.7	-0.6375	-9.8468	1.9410	0.0399	0.0039	-0.0085	18.5816	28.5891	-6.7539	0.7500	-0.6597	0.0004	0.0476
5.71	-0.6518	-9.8313	1.9382	0.0408	0.0080	-0.0082	18.4697	28.5326	-7.0359	0.7502	-0.6595	0.0003	0.0477
5.72	-0.6619	-9.8000	1.9556	0.0412	0.0071	-0.0024	18.5878	28.4696	-6.9775	0.7502	-0.6594	0.0003	0.0478
5.73	-0.6758	-9.7729	1.9752	0.0400	0.0016	0.0003	18.6315	28.6135	-6.7353	0.7504	-0.6593	0.0003	0.0480
5.74	-0.6975	-9.7740	1.9803	0.0417	0.0098	-0.0031	18.6781	28.2947	-6.9096	0.7505	-0.6591	0.0003	0.0481
5.75	-0.7202	-9.7537	1.9794	0.0430	0.0125	0.0025	18.7684	28.3936	-6.7717	0.7506	-0.6591	0.0003	0.0482
5.76	-0.7404	-9.7331	1.9937	0.0326	0.0057	0.0034	18.6916	28.4185	-6.7420	0.7506	-0.6589	0.0003	0.0483
5.77	-0.7416	-9.7442	1.9828	0.0175	0.0079	0.0027	18.5746	28.3954	-6.9235	0.7507	-0.6589	0.0003	0.0485
5.78	-0.7457	-9.7453	1.9898	0.0234	0.0027	0.0044	18.7553	28.4428	-7.0936	0.7507	-0.6588	0.0003	0.0486
5.79	-0.7476	-9.7228	1.9930	0.0183	0.0031	0.0050	18.5535	28.5875	-6.9621	0.7508	-0.6587	0.0003	0.0488
5.8	-0.7505	-9.7144	1.9823	0.0157	0.0052	0.0024	18.7375	28.5887	-6.8294	0.7508	-0.6587	0.0002	0.0489
5.81	-0.7510	-9.7512	1.9995	0.0093	-0.0021	-0.0029	18.7434	28.4429	-7.0452	0.7508	-0.6587	0.0002	0.0491
5.82	-0.7524	-9.7529	1.9865	0.0010	0.0003	0.0001	18.4651	28.3799	-6.9364	0.7508	-0.6587	0.0001	0.0492
5.83	-0.7395	-9.7486	2.0078	-0.0019	-0.0026	-0.0080	18.5457	28.5053	-6.7096	0.7507	-0.6587	0.0001	0.0494
5.84	-0.7324	-9.7774	2.0022	-0.0089	0.0033	-0.0077	18.4545	28.4792	-7.0457	0.7507	-0.6588	-0.0000	0.0495
5.85	-0.7302	-9.7713	1.9839	-0.0102	0.0015	-0.0092	18.4562	28.5351	-6.9910	0.7506	-0.6588	-0.0001	0.0496
5.86	-0.7245	-9.7573	1.9973	-0.0096	0.0012	-0.0095	18.5277	28.6129	-6.9314	0.7506	-0.6589	-0.0002	0.0497
5.87	-0.7384	-9.7641	1.9761	-0.0109	0.0087	-0.0098	18.4085	28.5526	-6.9736	0.7505	-0.6589	-0.0002	0.0498
5.88	-0.7477	-9.7655	1.9636	-0.0205	0.0040	-0.0086	18.5252	28.4995	-6.9251	0.7504	-0.6591	-0.0003	0.0499
5.89	-0.7517	-9.7637	1.9597	-0.0319	-0.0035	-0.0108	18.7209	28.4651	-6.7835	0.7503	-0.6592	-0.0004	0.0500
5.9	-0.7533	-9.7854	1.9544	-0.0293	0.0043	-0.0091	18.5030	28.6017	-6.7481	0.7501	-0.6593	-0.0004	0.0501
5.91	-0.7584	-9.8261	1.9471	-0.0372	-0.0027	-0.0087	18.4290	28.5461	-6.8967	0.7501	-0.6595	-0.0005	0.0503
5.92	-0.7613	-9.8576	1.9399	-0.0344	-0.0028	-0.0105	18.7985	28.3829	-6.9535	0.7499	-0.6596	-0.0006	0.0504
5.93	-0.7646	-9.8785	1.9394	-0.0386	-0.0013	-0.0102	18.8256	28.3705	-6.6846	0.7498	-0.6599	-0.0007	0.0505
5.94	-0.7644	-9.8938	1.9264	-0.0288	-0.0060	-0.0101	19.3895	28.2926	-6.6432	0.7496	-0.6599	-0.0008	0.0506
5.95	-0.7632	-9.8871	1.9183	-0.0158	-0.0125	-0.0102	19.6029	28.4684	-6.8372	0.7495	-0.6600	-0.0009	0.0507
5.96	-0.7646	-9.8863	1.9290	-0.0124	-0.0101	-0.0090	18.7104	28.5840	-6.9966	0.7495	-0.6601	-0.0010	0.0508
5.97	-0.7652	-9.8670	1.9226	-0.0098	-0.0134	-0.0097	18.4893	29.0440	-6.8665	0.7494	-0.6601	-0.0011	0.0510
5.98	-0.7643	-9.8464	1.9313	-0.0061	-0.0114	-0.0100	18.4863	28.6019	-6.9094	0.7494	-0.6602	-0.0012	0.0511
5.99	-0.7623	-9.8526	1.9220	-0.0077	-0.0103	-0.0101	18.4817	28.4958	-6.7636	0.7493	-0.6602	-0.0013	0.0513
6	-0.7706	-9.8784	1.9238	-0.0001	-0.0100	-0.0095	18.5590	28.7110	-6.6938	0.7493	-0.6603	-0.0014	0.0514
6.01	-0.7790	-9.8893	1.9319	0.0131	-0.0199	-0.0076	18.6830	28.5927	-6.8366	0.7492	-0.6602	-0.0016	0.0516
6.02	-0.7818	-9.8877	1.9305	0.0131	-0.0109	-0.0102	18.8003	28.6801	-6.7920	0.7493	-0.6602	-0.0017	0.0517
6.03	-0.7725	-9.8831	1.9292	0.0139	-0.0141	-0.0073	18.6855	28.7395	-6.6749	0.7493	-0.6601	-0.0018	0.0519
6.04	-0.7710	-9.8709	1.9261	0.0145	-0.0199	-0.0098	18.4409	28.4324	-6.5613	0.7493	-0.6601	-0.0019	0.0521
6.05	-0.7615	-9.8281	1.9210	0.0160	-0.0139	-0.0051	18.7278	28.5967	-7.0096	0.7494	-0.6601	-0.0021	0.0523
6.06	-0.7517	-9.8056	1.9475	0.0300	-0.0112	0.0045	19.0245	28.6077	-6.9108	0.7494	-0.6600	-0.0021	0.0525
6.07	-0.7635	-9.8123	1.9460	0.0242	-0.0073	0.0039	18.8228	28.5739	-6.8105	0.7495	-0.6599	-0.0022	0.0526
6.08	-0.7863	-9.7737	1.9448	0.0369	-0.0058	0.0056	18.5766	28.7654	-6.7112	0.7495	-0.6597	-0.0022	0.0528
6.09	-0.8027	-9.7359	1.9508	0.0391	-0.0046	0.0077	18.4732	28.4960	-6.7748	0.7497	-0.6597	-0.0022	0.0530
6.1	-0.8070	-9.7122	1.9418	0.0395	-0.0060	0.0011	18.7118	28.5879	-6.9086	0.7498	-0.6595	-0.0023	0.0532
6.11	-0.8055	-9.6903	1.9365	0.0252	-0.0052	-0.0068	19.0710	28.4863	-6.7744	0.7499	-0.6595	-0.0023	0.0533
6.12	-0.7914	-9.6735	1.9302	0.0139	-0.0152	-0.0096	18.9013	28.3525	-6.8306	0.7499	-0.6594	-0.0024	0.0535
6.13	-0.7840	-9.6944	1.9444	0.0027	-0.0100	-0.0095	18.8701	28.5261	-6.6847	0.7499	-0.6594	-0.0026	0.0536
6.14	-0.7775	-9.7369	1.9353	-0.0102	-0.0018	-0.0099	18.9766	28.1677	-6.9537	0.7498	-0.6595	-0.0026	0.0537
6.15	-0.7739	-9.7793	1.9373	-0.0153	0.0031	-0.0095	18.8507	28.4504	-7.1106	0.7497	-0.6595	-0.0027	0.0538
6.16	-0.7724	-9.8183	1.9456	-0.0315	0.0082	-0.0163	18.7286	28.5766	-6.9587	0.7496	-0.6597	-0.0028	0.0539
6.17	-0.7655	-9.8837	1.9527	-0.0292	0.0044	-0.0156	18.9682	28.4152	-7.0490	0.7495	-0.6598	-0.0028	0.0540
6.18	-0.7588	-9.9210	1.9619	-0.0237	0.0161	-0.0151	18.8003	28.5098	-7.1106	0.7494	-0.6600	-0.0029	0.0540
6.19	-0.7509	-9.9430	1.9719	-0.0154	0.0135	-0.0105	18.7384	28.3469	-7.0077	0.7493	-0.6600	-0.0029	0.0541
6.2	-0.7476	-9.9277	1.9609	0.0077	0.0247	-0.0108	18.7661	28.2939	-6.8264	0.7493	-0.6600	-0.0029	0.0541
6.21	-0.7462	-9.9056	1.9761	0.0143	0.0287	-0.0185	18.8039	28.6397	-6.8706	0.7493	-0.6600	-0.0029	0.0541
6.22	-0.7509	-9.8765	1.9635	0.0135	0.0365	-0.0225	18.9024	28.5883	-6.9329	0.7493	-0.6599	-0.0029	0.0541
6.23	-0.7624	-9.8291	1.9665	0.0256	0.0443	-0.0208	18.6997	28.3260	-6.7050	0.7494	-0.6600	-0.0028	0.0540
6.24	-0.7785	-9.8212	1.9758	0.0203	0.0450	-0.0211	18.7126	28.4413	-6.8407	0.7494	-0.6599	-0.0028	0.0539
6.25	-0.8078	-9.7512	1.9233	0.0281	0.0474	-0.0204	18.7773	28.6831	-6.8117	0.7495	-0.6598	-0.0027	0.0538
6.26	-0.8392	-9.7112	1.9506	0.0248	0.0488	-0.0218	18.7606	28.5181	-6.7953	0.7495	-0.6597	-0.0026	0.0537
6.27	-0.8716	-9.7465	1.9172	0.0139	0.0472	-0.0253	18.8599	28.6016	-6.8574	0.7496	-0.6597	-0.0025	0.0536
6.28	-0.9046	-9.7071	1.8979	0.0150	0.0389	-0.0263	18.7146	28.7962	-6.8819	0.7496	-0.6597	-0.0025	0.0535
6.29	-0.8839	-9.6973	1.9456	0.0147	0.0226	-0.0322	18.8574	28.5793	-6.7760	0.7496	-0.6597	-0.0026	0.0535
6.3	-0.8785	-9.7130	1.9236	-0.0015	0.0229	-0.0321	18.8563	28.3369	-6.9238	0.7496	-0.6597	-0.0026	0.0535
6.31	-0.8948	-9.7055	1.9314	-0.0073	0.0151	-0.0238	18.8333	28.2828	-6.9047	0.7496	-0.6597	-0.0027	0.0535
6.32	-0.9133	-9.7156	1.9352	-0.0198	0.0061	-0.0181	18.9060	28.2751	-7.0707	0.7495	-0.6599	-0.0028	0.0535
6.33	-0.9560	-9.7128	1.8986	-0.0348	0.0053	-0.0151	18.9718	28.3785	-6.7690	0.7493	-0.6599	-0.0028	0.0536
6.34	-0.9672	-9.7020	1.8932	-0.0318	-0.0188	-0.0164	18.8028	28.4746	-6.8582	0.7493	-0.6601	-0.0030	0.0537
6.35	-0.9536	-9.7292	1.8745	-0.0537	-0.0306	-0.0221	18.7592	28.6393	-6.7234	0.7490	-0.6603	-0.0032	0.0539
6.36	-0.9415	-9.7849	1.8446	-0.0719	-0.0432	-0.0264	18.7537	28.5876	-6.8570	0.7488	-0.6606	-0.0035	0.0541
6.37	-0.9098	-9.8176	1.8253	-0.0717	-0.0554	-0.0250	18.7811	28.4462	-7.0319	0.7485	-0.6609	-0.0039	0.0543
6.38	-0.8795	-9.8606	1.8210	-0.0648	-0.0673	-0.0241	18.8493	28.4575	-6.8521	0.7483	-0.6611	-0.0043	0.0546
6.39	-0.8582	-9.9110	1.7980	-0.0716	-0.0719	-0.0158	18.5109	28.5069	-6.9499	0.7480	-0.6614	-0.0046	0.0549
6.4	-0.8287	-9.9343	1.7873	-0.0673	-0.0785	-0.0110	18.7880	28.6375	-6.8054	0.7477	-0.6616	-0.0050	0.0553
6.41	-0.8042	-9.9458	1.8006	-0.0558	-0.0848	-0.0128	18.7434	28.7671	-6.7195	0.7476	-0.6619	-0.0054	0.0557
6.42	-0.7733	-9.9618	1.7965	-0.0465	-0.0894	-0.0111	18.6775	28.8174	-6.7257	0.7474	-0.6620	-0.0059	0.0560
6.43	-0.7428	-9.9690	1.8183	-0.0275	-0.0859	-0.0117	18.8950	28.6250	-6.7485	0.7473	-0.6622	-0.0063	0.0564
6.44	-0.6977	-9.9426	1.8270	-0.0133	-0.0817	-0.0116	19.2311	28.7440	-6.6169	0.7471	-0.6621	-0.0066	0.0568
6.45	-0.6552	-9.9154	1.8573	-0.0069	-0.0815	-0.0132	19.6917	28.8369	-6.5272	0.7471	-0.6622	-0.0070	0.0571
6.46	-0.6408	-9.8916	1.8630	-0.0071	-0.0643	-0.0156	19.0801	28.6289	-6.7376	0.7471	-0.6622	-0.0073	0.0574
6.47	-0.6190	-9.8549	1.8859	0.0079	-0.0626	-0.0145	18.7460	28.7877	-6.9216	0.7470	-0.6622	-0.0076	0.0577
6.48	-0.6084	-9.8385	1.9054	0.0103	-0.0489	-0.0209	18.8237	28.6849	-6.8184	0.7471	-0.6622	-0.0079	0.0580
6.49	-0.6061	-9.8427	1.9053	0.0045	-0.0325	-0.0226	18.6815	28.3302	-7.0640	0.7471	-0.6622	-0.0082	0.0581
6.5	-0.5985	-9.8367	1.9168	0.0057	-0.0271	-0.0242	18.8843	28.3862	-6.8909	0.7471	-0.6622	-0.0084	0.0583
6.51	-0.5979	-9.8088	1.9127	0.0007	-0.0123	-0.0257	19.0229	28.3346	-6.8441	0.7470	-0.6621	-0.0085	0.0583
6.52	-0.5995	-9.8064	1.9185	-0.0093	0.0014	-0.0315	19.0021	28.2899	-6.8393	0.7470	-0.6622	-0.0086	0.0583
6.53	-0.6152	-9.7951	1.8976	-0.0108	0.0085	-0.0342	18.8162	28.3768	-6.9164	0.7469	-0.6623	-0.0087	0.0583
6.54	-0.6203	-9.7732	1.9062	-0.0088	0.0223	-0.0269	18.6233	28.3573	-6.8888	0.7469	-0.6623	-0.0088	0.0583
6.55	-0.6367	-9.7641	1.9066	-0.0117	0.0244	-0.0360	18.7669	28.3576	-6.8289	0.7469	-0.6624	-0.0088	0.0582
6.56	-0.6649	-9.7537	1.8959	-0.0123	0.0283	-0.0253	18.8582	28.3804	-7.0143	0.7468	-0.6625	-0.0088	0.0581
6.57	-0.6856	-9.7604	1.8930	-0.0234	0.0311	-0.0265	18.7811	28.3044	-6.8348	0.7467	-0.6626	-0.0088	0.0581
6.58	-0.7042	-9.7647	1.8647	-0.0345	0.0385	-0.0369	18.6360	28.5642	-6.9546	0.7465	-0.6627	-0.0088	0.0579
6.59	-0.7071	-9.7567	1.8466	-0.0377	0.0284	-0.0308	18.6676	28.4740	-7.0570	0.7464	-0.6629	-0.0089	0.0579
6.6	-0.7080	-9.7824	1.8371	-0.0364	0.0320	-0.0244	18.6190	28.3714	-6.7185	0.7463	-0.6631	-0.0089	0.0578
6.61	-0.7140	-9.8143	1.8113	-0.0541	0.0351	-0.0274	18.4604	28.7590	-6.8814	0.7461	-0.6633	-0.0089	0.0578
6.62	-0.7143	-9.8439	1.7977	-0.0425	0.0288	-0.0265	18.5747	28.6066	-6.7454	0.7459	-0.6635	-0.0089	0.0577
6.63	-0.6993	-9.8728	1.7835	-0.0356	0.0222	-0.0264	18.5627	28.4899	-6.6631	0.7458	-0.6636	-0.0090	0.0577
6.64	-0.6933	-9.9136	1.7749	-0.0379	0.0226	-0.0245	18.5581	28.4469	-6.8604	0.7456	-0.6638	-0.0090	0.0577
6.65	-0.6978	-9.9250	1.7592	-0.0360	0.0146	-0.0106	18.5784	28.7373	-6.8751	0.7454	-0.6639	-0.0091	0.0577
6.66	-0.6962	-9.9197	1.7612	-0.0333	0.0101	-0.0152	18.4398	28.7921	-6.7514	0.7454	-0.6642	-0.0091	0.0578
6.67	-0.6921	-9.9054	1.7518	-0.0224	0.0126	-0.0119	18.8535	28.2262	-6.7845	0.7452	-0.6642	-0.0091	0.0578
6.68	-0.7019	-9.9241	1.7578	-0.0289	0.0147	-0.0087	18.9031	28.4393	-6.6833	0.7452	-0.6644	-0.0091	0.0579
6.69	-0.7039	-9.9107	1.7420	-0.0258	0.0091	-0.0120	18.6951	28.3725	-6.6614	0.7450	-0.6644	-0.0092	0.0579
6.7	-0.6814	-9.9170	1.7683	-0.0143	0.0065	-0.0093	18.6603	28.2326	-6.7975	0.7449	-0.6646	-0.0092	0.0580
6.71	-0.6776	-9.9320	1.7647	-0.0135	0.0079	-0.0101	18.6261	28.3213	-6.7017	0.7449	-0.6646	-0.0092	0.0581
6.72	-0.6933	-9.9155	1.7641	-0.0082	0.0145	-0.0083	18.7499	28.4442	-6.6279	0.7448	-0.6646	-0.0093	0.0582
6.73	-0.6688	-9.9128	1.7954	-0.0020	0.0023	-0.0088	18.7388	28.5518	-6.9238	0.7448	-0.6648	-0.0093	0.0583
6.74	-0.6593	-9.9260	1.7950	0.0058	0.0103	0.0029	18.4819	28.5221	-6.9267	0.7447	-0.6647	-0.0093	0.0584
6.75	-0.6569	-9.9259	1.8030	0.0048	0.0042	0.0026	18.6984	28.3324	-6.7766	0.7448	-0.6648	-0.0093	0.0585
6.76	-0.6552	-9.8944	1.8130	0.0101	0.0189	0.0001	18.4459	28.4703	-6.6588	0.7447	-0.6647	-0.0093	0.0586
6.77	-0.6654	-9.8627	1.8219	0.0143	0.0339	-0.0038	18.5083	28.5142	-6.5821	0.7448	-0.6647	-0.0092	0.0587
6.78	-0.6831	-9.8284	1.8217	0.0137	0.0330	-0.0027	18.7521	28.6174	-6.9033	0.7448	-0.6647	-0.0091	0.0587
6.79	-0.6949	-9.7934	1.8299	0.0166	0.0412	-0.0027	18.7466	28.5324	-6.7629	0.7448	-0.6646	-0.0090	0.0587
6.8	-0.6964	-9.7585	1.8284	0.0131	0.0377	-0.0074	18.6487	28.6546	-6.6846	0.7448	-0.6646	-0.0089	0.0587
6.81	-0.6982	-9.7080	1.8146	0.0088	0.0447	-0.0066	18.5244	28.6888	-6.5029	0.7448	-0.6646	-0.0088	0.0587
6.82	-0.6835	-9.6706	1.8065	0.0012	0.0513	-0.0117	18.6412	28.6214	-6.5484	0.7448	-0.6647	-0.0087	0.0586
6.83	-0.6711	-9.6655	1.8111	-0.0111	0.0567	-0.0149	18.6572	28.5306	-6.6730	0.7447	-0.6647	-0.0085	0.0585
6.84	-0.6878	-9.7082	1.8030	-0.0312	0.0650	-0.0241	18.6444	28.5728	-6.5969	0.7447	-0.6649	-0.0084	0.0584
6.85	-0.7061	-9.7479	1.7876	-0.0369	0.0675	-0.0250	18.6711	28.2664	-6.6816	0.7445	-0.6650	-0.0083	0.0582
6.86	-0.7349	-9.7969	1.7815	-0.0520	0.0719	-0.0263	18.8622	28.1987	-6.6924	0.7443	-0.6653	-0.0081	0.0580
6.87	-0.7655	-9.8358	1.7531	-0.0626	0.0801	-0.0255	18.7078	28.4983	-6.5259	0.7441	-0.6655	-0.0080	0.0578
6.88	-0.7980	-9.8613	1.7464	-0.0582	0.0737	-0.0212	18.6668	28.1896	-6.5471	0.7439	-0.6658	-0.0078	0.0576
6.89	-0.8330	-9.8902	1.7333	-0.0491	0.0683	-0.0217	18.9714	28.3508	-6.6719	0.7437	-0.6660	-0.0076	0.0574
6.9	-0.8615	-9.9114	1.7265	-0.0390	0.0598	-0.0196	18.7506	28.0540	-6.4414	0.7435	-0.6661	-0.0075	0.0572
6.91	-0.8809	-9.9398	1.7314	-0.0379	0.0593	-0.0196	18.5098	28.3441	-6.4860	0.7434	-0.6664	-0.0074	0.0571
6.92	-0.8891	-9.9481	1.7214	-0.0379	0.0394	-0.0165	18.6294	28.4867	-6.5109	0.7432	-0.6665	-0.0073	0.0571
6.93	-0.8850	-9.9462	1.7229	-0.0281	0.0315	-0.0202	18.9433	28.4245	-6.3543	0.7432	-0.6667	-0.0073	0.0570
6.94	-0.8751	-9.9447	1.7256	-0.0121	0.0261	-0.0099	19.3296	28.6309	-6.1785	0.7430	-0.6667	-0.0072	0.0570
6.95	-0.8751	-9.9332	1.7233	-0.0141	0.0130	-0.0093	19.5977	28.8715	-6.2302	0.7430	-0.6668	-0.0072	0.0570
6.96	-0.8774	-9.9247	1.7135	-0.0150	0.0175	-0.0093	18.7636	28.7738	-6.3920	0.7429	-0.6669	-0.0072	0.0571
6.97	-0.8882	-9.8884	1.6972	-0.0117	0.0074	-0.0097	18.7961	29.1014	-6.4388	0.7428	-0.6669	-0.0072	0.0571
6.98	-0.9110	-9.9019	1.7222	-0.0106	-0.0092	0.0002	18.7230	28.7932	-6.2299	0.7428	-0.6671	-0.0073	0.0573
6.99	-0.9375	-9.9107	1.6932	-0.0094	-0.0159	-0.0001	18.5359	28.6345	-6.3210	0.7427	-0.6671	-0.0074	0.0575
7	-0.9319	-9.8820	1.7301	0.0020	-0.0381	-0.0076	18.8770	28.6545	-6.1726	0.7427	-0.6671	-0.0076	0.0578
7.01	-0.9010	-9.8637	1.7384	0.0010	-0.0381	-0.0016	18.7452	28.3550	-6.2735	0.7426	-0.6670	-0.0078	0.0580
7.02	-0.8790	-9.8477	1.7464	0.0123	-0.0505	-0.0011	18.6703	28.6381	-6.3853	0.7427	-0.6671	-0.0080	0.0583
7.03	-0.8710	-9.8205	1.7605	0.0145	-0.0557	0.0015	18.8206	28.5233	-6.1942	0.7427	-0.6670	-0.0082	0.0587
7.04	-0.8608	-9.7891	1.7581	0.0132	-0.0606	0.0061	18.6399	28.3454	-6.4659	0.7427	-0.6669	-0.0084	0.0590
7.05	-0.8447	-9.7673	1.7652	0.0047	-0.0726	-0.0065	18.8913	28.3411	-6.4514	0.7427	-0.6670	-0.0087	0.0594
7.06	-0.8034	-9.7716	1.7717	-0.0091	-0.0707	-0.0091	18.9502	28.5441	-6.3418	0.7426	-0.6670	-0.0090	0.0597
7.07	-0.7659	-9.7963	1.7689	-0.0157	-0.0688	-0.0120	18.7380	28.4173	-6.5883	0.7426	-0.6670	-0.0094	0.0601
7.08	-0.7393	-9.8257	1.7595	-0.0313	-0.0623	-0.0146	18.7963	28.3062	-6.4201	0.7424	-0.6671	-0.0097	0.0604
7.09	-0.7031	-9.8521	1.7520	-0.0353	-0.0625	-0.0165	18.7073	28.6207	-6.5052	0.7423	-0.6673	-0.0100	0.0607
7.1	-0.6776	-9.8954	1.7508	-0.0337	-0.0541	-0.0265	18.8983	28.5929	-6.3591	0.7421	-0.6674	-0.0103	0.0609
7.11	-0.6584	-9.9162	1.7336	-0.0263	-0.0496	-0.0243	18.8786	28.4400	-6.5116	0.7421	-0.6675	-0.0106	0.0611
7.12	-0.6378	-9.9175	1.7475	-0.0241	-0.0484	-0.0239	18.8592	28.4650	-6.5814	0.7419	-0.6676	-0.0109	0.0613
7.13	-0.6127	-9.9326	1.7437	-0.0179	-0.0413	-0.0188	18.7923	28.1675	-6.1294	0.7418	-0.6677	-0.0111	0.0615
7.14	-0.6074	-9.9193	1.7401	-0.0099	-0.0297	-0.0209	18.6417	28.4739	-6.2532	0.7418	-0.6677	-0.0113	0.0616
7.15	-0.5927	-9.9028	1.7626	0.0025	-0.0159	-0.0260	18.6220	28.5680	-6.3547	0.7417	-0.6677	-0.0115	0.0618
7.16	-0.5970	-9.8949	1.7612	0.0082	-0.0081	-0.0239	18.4441	28.4137	-6.5029	0.7418	-0.6677	-0.0116	0.0619
7.17	-0.6047	-9.8910	1.7704	0.0096	0.0043	-0.0234	18.6970	28.4533	-6.3954	0.7418	-0.6677	-0.0117	0.0619
7.18	-0.6071	-9.8832	1.7729	0.0111	0.0207	-0.0295	18.6001	28.4903	-6.3660	0.7419	-0.6677	-0.0118	0.0619
7.19	-0.6220	-9.9012	1.7694	0.0109	0.0233	-0.0289	18.5757	28.5878	-6.3441	0.7418	-0.6676	-0.0118	0.0618
7.2	-0.6475	-9.9167	1.7541	0.0108	0.0380	-0.0302	18.7170	28.3275	-6.5328	0.7418	-0.6676	-0.0118	0.0618
7.21	-0.6710	-9.9024	1.7479	0.0137	0.0388	-0.0316	18.7995	28.4860	-6.4708	0.7419	-0.6676	-0.0118	0.0616
7.22	-0.6964	-9.8842	1.7522	0.0133	0.0479	-0.0283	18.6563	28.5342	-6.2156	0.7418	-0.6676	-0.0117	0.0615
7.23	-0.7351	-9.8731	1.7525	0.0162	0.0458	-0.0248	18.7903	28.4697	-6.5202	0.7420	-0.6676	-0.0116	0.0614
7.24	-0.7697	-9.8517	1.7579	0.0191	0.0461	-0.0310	18.8751	28.6261	-6.5454	0.7420	-0.6675	-0.0116	0.0613
7.25	-0.7957	-9.8226	1.7642	0.0163	0.0454	-0.0316	18.8409	28.5213	-6.3354	0.7420	-0.6675	-0.0115	0.0612
7.26	-0.8058	-9.7935	1.7747	0.0162	0.0371	-0.0232	18.8588	28.4445	-6.4784	0.7420	-0.6674	-0.0115	0.0611
7.27	-0.8148	-9.7738	1.7806	0.0112	0.0252	-0.0238	18.8394	28.4789	-6.4168	0.7421	-0.6675	-0.0114	0.0610
7.28	-0.8139	-9.7597	1.7805	-0.0045	0.0154	-0.0232	18.6931	28.5049	-6.3871	0.7420	-0.6675	-0.0115	0.0610
7.29	-0.8087	-9.7740	1.7793	-0.0094	0.0079	-0.0129	18.6506	28.4657	-6.5109	0.7420	-0.6675	-0.0115	0.0611
7.3	-0.8065	-9.7906	1.7625	-0.0138	0.0003	-0.0078	18.7996	28.6907	-6.3150	0.7419	-0.6676	-0.0116	0.0612
7.31	-0.8104	-9.8364	1.7572	-0.0332	-0.0027	-0.0107	18.5892	28.4047	-6.4422	0.7418	-0.6677	-0.0117	0.0613
7.32	-0.8141	-9.8802	1.7272	-0.0363	-0.0135	-0.0092	18.6395	28.3739	-6.6351	0.7417	-0.6679	-0.0118	0.0615
7.33	-0.8067	-9.8978	1.7200	-0.0282	-0.0215	-0.0086	18.7056	28.6390	-6.6601	0.7414	-0.6679	-0.0119	0.0617
7.34	-0.7992	-9.9199	1.7221	-0.0277	-0.0235	-0.0050	18.5348	28.6129	-6.4957	0.7414	-0.6681	-0.0121	0.0619
7.35	-0.7903	-9.9154	1.7025	-0.0124	-0.0292	-0.0038	18.6490	28.4439	-6.4841	0.7413	-0.6682	-0.0122	0.0621
7.36	-0.7820	-9.8989	1.7142	-0.0115	-0.0323	-0.0051	18.6836	28.5049	-6.6031	0.7412	-0.6682	-0.0124	0.0624
7.37	-0.7686	-9.8915	1.7227	-0.0105	-0.0278	-0.0117	18.6715	28.5488	-6.4273	0.7412	-0.6683	-0.0126	0.0626
7.38	-0.7540	-9.8766	1.7301	-0.0030	-0.0326	-0.0066	18.8071	28.5199	-6.2202	0.7411	-0.6683	-0.0127	0.0628
7.39	-0.7399	-9.8536	1.7423	0.0134	-0.0282	-0.0108	18.7034	28.5806	-6.1527	0.7412	-0.6683	-0.0129	0.0630
7.4	-0.7299	-9.8256	1.7534	0.0108	-0.0198	-0.0113	18.6520	28.7362	-6.2748	0.7411	-0.6682	-0.0130	0.0632
7.41	-0.7291	-9.8202	1.7655	-0.0057	-0.0205	-0.0091	18.7065	28.4913	-6.3819	0.7411	-0.6683	-0.0132	0.0634
7.42	-0.7289	-9.8147	1.7584	-0.0109	-0.0138	-0.0148	18.7734	28.2918	-6.3550	0.7410	-0.6683	-0.0133	0.0635
7.43	-0.7145	-9.8254	1.7549	-0.0079	-0.0111	-0.0184	19.0538	28.4835	-6.3705	0.7411	-0.6684	-0.0134	0.0636
7.44	-0.7068	-9.8583	1.7551	-0.0090	0.0026	-0.0145	19.4048	28.3245	-6.3602	0.7409	-0.6684	-0.0134	0.0636
7.45	-0.7234	-9.8916	1.7440	-0.0116	0.0053	-0.0193	19.6458	28.2897	-6.3402	0.7409	-0.6685	-0.0135	0.0637
7.46	-0.7265	-9.8988	1.7385	-0.0095	0.0087	-0.0158	18.9921	28.3163	-6.4548	0.7408	-0.6685	-0.0135	0.0637
7.47	-0.7201	-9.9190	1.7482	-0.0070	0.0108	-0.0110	18.6617	28.7848	-6.4199	0.7407	-0.6685	-0.0135	0.0637
7.48	-0.7251	-9.9235	1.7470	-0.0005	0.0132	-0.0152	18.7366	28.7531	-6.5085	0.7408	-0.6687	-0.0135	0.0638
7.49	-0.7159	-9.8883	1.7488	0.0093	0.0165	-0.0136	18.6368	28.3341	-6.4414	0.7407	-0.6686	-0.0136	0.0639
7.5	-0.7061	-9.8509	1.7650	0.0158	0.0223	-0.0119	18.6593	28.3127	-6.3646	0.7408	-0.6686	-0.0135	0.0639
7.51	-0.7166	-9.8262	1.7546	0.0114	0.0271	-0.0105	18.7449	28.2492	-6.3916	0.7407	-0.6685	-0.0135	0.0639
7.52	-0.7353	-9.8059	1.7494	0.0112	0.0310	-0.0089	18.8557	28.2689	-6.4949	0.7408	-0.6685	-0.0134	0.0639
7.53	-0.7650	-9.8069	1.7514	-0.0043	0.0383	-0.0151	18.8532	28.5034	-6.2783	0.7408	-0.6686	-0.0133	0.0638
7.54	-0.8006	-9.8318	1.7233	-0.0118	0.0397	-0.0224	18.7728	28.7751	-6.4057	0.7407	-0.6686	-0.0133	0.0638
7.55	-0.8051	-9.8424	1.7145	-0.0098	0.0385	-0.0232	18.6462	28.4778	-6.2819	0.7407	-0.6687	-0.0132	0.0637
7.56	-0.8061	-9.8473	1.7030	-0.0112	0.0374	-0.0296	18.5341	28.5897	-6.1973	0.7406	-0.6688	-0.0132	0.0636
7.57	-0.8089	-9.8704	1.6944	-0.0119	0.0293	-0.0262	18.6727	28.6324	-6.4236	0.7406	-0.6689	-0.0132	0.0636
7.58	-0.8185	-9.8861	1.6909	-0.0093	0.0294	-0.0264	18.5681	28.6060	-6.2974	0.7405	-0.6688	-0.0132	0.0635
7.59	-0.8280	-9.8892	1.6799	-0.0104	0.0194	-0.0198	18.6000	28.6256	-6.1898	0.7405	-0.6690	-0.0132	0.0635
7.6	-0.8218	-9.8892	1.6850	-0.0099	0.0065	-0.0140	18.6857	28.4490	-6.3989	0.7404	-0.6690	-0.0133	0.0636
7.61	-0.8084	-9.8808	1.6868	-0.0035	0.0069	-0.0192	18.9352	28.4607	-6.6078	0.7404	-0.6691	-0.0133	0.0636
7.62	-0.7909	-9.8617	1.6885	-0.0079	0.0002	-0.0119	18.8185	28.3363	-6.4376	0.7403	-0.6691	-0.0134	0.0637
7.63	-0.7808	-9.8559	1.6905	-0.0127	-0.0065	-0.0126	19.0155	28.2650	-6.5354	0.7402	-0.6692	-0.0134	0.0638
7.64	-0.7681	-9.8621	1.6847	-0.0093	-0.0062	-0.0139	18.9111	28.4426	-6.5460	0.7402	-0.6692	-0.0135	0.0639
7.65	-0.7637	-9.8694	1.6776	-0.0157	-0.0105	-0.0173	18.8028	28.4536	-6.3771	0.7401	-0.6692	-0.0136	0.0640
7.66	-0.7469	-9.8814	1.6841	-0.0189	-0.0153	-0.0119	18.8612	28.3313	-6.2767	0.7401	-0.6694	-0.0137	0.0641
7.67	-0.7396	-9.8888	1.6867	-0.0090	-0.0084	-0.0217	18.6670	28.4055	-6.1893	0.7400	-0.6694	-0.0138	0.0642
7.68	-0.7345	-9.8948	1.6810	-0.0107	-0.0060	-0.0173	18.6532	28.4655	-6.4887	0.7400	-0.6695	-0.0139	0.0643
7.69	-0.7346	-9.9082	1.6811	-0.0109	-0.0082	-0.0093	18.7554	28.4376	-6.4864	0.7398	-0.6695	-0.0140	0.0644
7.7	-0.7478	-9.8775	1.6637	-0.0107	0.0038	-0.0124	18.7598	28.4594	-6.2278	0.7398	-0.6696	-0.0141	0.0645
7.71	-0.7575	-9.8791	1.6988	-0.0106	0.0072	-0.0154	18.7178	28.6160	-6.3996	0.7397	-0.6696	-0.0141	0.0646
7.72	-0.7926	-9.9022	1.6710	-0.0115	0.0090	-0.0183	18.5394	28.6074	-6.3115	0.7396	-0.6697	-0.0142	0.0646
7.73	-0.7834	-9.8765	1.6914	0.0106	0.0010	-0.0236	18.7024	28.7348	-6.2943	0.7397	-0.6697	-0.0143	0.0647
7.74	-0.7665	-9.8610	1.7131	0.0121	-0.0009	-0.0242	18.7618	28.6619	-6.4659	0.7397	-0.6696	-0.0144	0.0648
7.75	-0.7512	-9.8570	1.7145	0.0111	0.0064	-0.0217	18.7578	28.6079	-6.4943	0.7398	-0.6697	-0.0144	0.0648
7.76	-0.7681	-9.8474	1.7188	0.0060	0.0092	-0.0228	18.7386	28.5503	-6.4078	0.7397	-0.6696	-0.0145	0.0649
7.77	-0.7750	-9.8287	1.7172	0.0038	0.0050	-0.0216	18.7854	28.5005	-6.3534	0.7397	-0.6696	-0.0146	0.0649
7.78	-0.7687	-9.8415	1.7313	-0.0062	-0.0014	-0.0239	18.6689	28.5841	-6.3119	0.7397	-0.6697	-0.0147	0.0650
7.79	-0.7489	-9.8476	1.7118	-0.0067	-0.0087	-0.0305	18.7911	28.3698	-6.5152	0.7396	-0.6697	-0.0148	0.0650
7.8	-0.7183	-9.8481	1.7277	-0.0080	-0.0142	-0.0326	18.9726	28.2625	-6.3559	0.7396	-0.6698	-0.0150	0.0651
7.81	-0.7131	-9.8444	1.7088	-0.0106	-0.0010	-0.0340	18.8907	28.3733	-6.5527	0.7395	-0.6698	-0.0151	0.0651
7.82	-0.7140	-9.8424	1.7191	-0.0125	-0.0069	-0.0270	18.7667	28.3965	-6.3676	0.7395	-0.6699	-0.0152	0.0651
7.83	-0.7353	-9.8456	1.7095	-0.0097	0.0010	-0.0334	18.7386	28.4822	-6.5138	0.7394	-0.6698	-0.0153	0.0651
7.84	-0.7526	-9.8365	1.7061	-0.0132	-0.0050	-0.0362	18.7687	28.4060	-6.3183	0.7394	-0.6700	-0.0155	0.0651
7.85	-0.7525	-9.8187	1.7146	-0.0142	-0.0096	-0.0334	18.7369	28.5261	-6.3748	0.7393	-0.6700	-0.0156	0.0652
7.86	-0.7468	-9.8181	1.7045	-0.0234	-0.0154	-0.0345	18.7750	28.4749	-6.5608	0.7392	-0.6701	-0.0158	0.0652
7.87	-0.7345	-9.8362	1.7010	-0.0288	-0.0107	-0.0334	18.6317	28.3411	-6.2435	0.7391	-0.6702	-0.0160	0.0653
7.88	-0.7120	-9.8624	1.6930	-0.0326	-0.0200	-0.0355	18.5817	28.4762	-6.1963	0.7390	-0.6704	-0.0162	0.0654
7.89	-0.6752	-9.8880	1.6802	-0.0388	-0.0180	-0.0289	18.7123	28.4404	-6.4433	0.7388	-0.6705	-0.0164	0.0654
7.9	-0.6421	-9.9129	1.6744	-0.0305	-0.0175	-0.0197	18.5525	28.7470	-6.5252	0.7386	-0.6706	-0.0166	0.0656
7.91	-0.6130	-9.9412	1.6646	-0.0315	-0.0154	-0.0239	18.5974	28.6596	-6.3419	0.7386	-0.6708	-0.0167	0.0657
7.92	-0.6104	-9.9652	1.6782	-0.0288	-0.0043	-0.0106	18.5518	28.5028	-6.3005	0.7384	-0.6709	-0.0168	0.0658
7.93	-0.6260	-9.9609	1.6645	-0.0130	0.0150	-0.0087	18.9101	28.7830	-6.2731	0.7384	-0.6710	-0.0168	0.0659
7.94	-0.6349	-9.9465	1.6875	-0.0059	0.0108	-0.0073	19.0329	28.9791	-5.9933	0.7383	-0.6710	-0.0168	0.0659
7.95	-0.6548	-9.9194	1.6829	-0.0039	0.0304	-0.0103	19.0445	29.1935	-6.0612	0.7383	-0.6711	-0.0168	0.0660
7.96	-0.6796	-9.8887	1.6890	0.0050	0.0288	-0.0076	18.7500	28.6360	-6.3147	0.7383	-0.6711	-0.0167	0.0660
7.97	-0.7026	-9.8745	1.6930	0.0130	0.0257	-0.0075	18.5573	28.9541	-6.3102	0.7382	-0.6710	-0.0166	0.0660
7.98	-0.7268	-9.8605	1.6955	-0.0013	0.0281	-0.0102	18.7478	28.6435	-6.3652	0.7383	-0.6711	-0.0166	0.0661
7.99	-0.7486	-9.8575	1.6907	-0.0064	0.0293	-0.0087	18.7417	28.2169	-6.2165	0.7382	-0.6711	-0.0165	0.0660
8	-0.7627	-9.8606	1.6809	-0.0061	0.0328	-0.0104	18.7425	28.5431	-6.3707	0.7382	-0.6712	-0.0164	0.0660
8.01	-0.7849	-9.8637	1.6909	0.0016	0.0263	-0.0119	18.7643	28.3602	-6.3513	0.7381	-0.6711	-0.0164	0.0660
8.02	-0.8047	-9.8726	1.6799	-0.0052	0.0259	-0.0136	18.5829	28.5078	-6.2671	0.7381	-0.6712	-0.0163	0.0660
8.03	-0.8107	-9.8836	1.6780	-0.0048	0.0200	-0.0182	18.6331	28.4556	-6.2494	0.7381	-0.6713	-0.0163	0.0660
8.04	-0.8158	-9.8908	1.6760	0.0010	0.0162	-0.0137	18.8687	28.5479	-6.3657	0.7381	-0.6713	-0.0163	0.0660
8.05	-0.8070	-9.8988	1.6810	0.0015	0.0005	-0.0123	18.8172	28.5122	-6.3500	0.7381	-0.6713	-0.0163	0.0661
8.06	-0.7935	-9.8820	1.6841	0.0105	-0.0011	-0.0135	18.7112	28.5249	-6.1338	0.7381	-0.6713	-0.0164	0.0662
8.07	-0.7667	-9.8642	1.7021	0.0104	-0.0018	-0.0164	18.5892	28.5200	-6.1971	0.7381	-0.6713	-0.0165	0.0663
8.08	-0.7546	-9.8459	1.7081	0.0075	-0.0004	-0.0194	18.4669	28.6469	-6.1902	0.7380	-0.6712	-0.0166	0.0664
8.09	-0.7474	-9.8146	1.7125	0.0100	-0.0071	-0.0184	18.4876	28.7034	-6.1593	0.7381	-0.6712	-0.0167	0.0665
8.1	-0.7214	-9.7940	1.7355	-0.0004	-0.0114	-0.0220	18.6250	28.6704	-6.2518	0.7381	-0.6712	-0.0168	0.0666
8.11	-0.7237	-9.7834	1.7304	-0.0040	0.0025	-0.0235	18.6847	28.5222	-6.2594	0.7380	-0.6713	-0.0169	0.0667
8.12	-0.7032	-9.7754	1.7343	-0.0152	0.0016	-0.0279	18.5445	28.5966	-6.3167	0.7380	-0.6713	-0.0170	0.0667
8.13	-0.7009	-9.7764	1.7387	-0.0300	0.0088	-0.0306	18.3449	28.4251	-6.1702	0.7379	-0.6714	-0.0171	0.0667
8.14	-0.7097	-9.8126	1.7259	-0.0362	0.0140	-0.0332	18.6405	28.7428	-6.1488	0.7377	-0.6716	-0.0172	0.0667
8.15	-0.7198	-9.8480	1.7159	-0.0373	0.0114	-0.0325	18.6746	28.6753	-6.5004	0.7375	-0.6717	-0.0173	0.0667
8.16	-0.7341	-9.8455	1.6902	-0.0360	0.0157	-0.0361	18.5242	28.4217	-6.3458	0.7375	-0.6719	-0.0174	0.0667
8.17	-0.7442	-9.8347	1.7079	-0.0376	0.0099	-0.0299	18.6176	28.5374	-6.3369	0.7373	-0.6720	-0.0175	0.0667
8.18	-0.7578	-9.8526	1.6979	-0.0361	0.0063	-0.0358	18.6719	28.5889	-6.2527	0.7372	-0.6722	-0.0176	0.0667
8.19	-0.7471	-9.8322	1.6789	-0.0382	0.0029	-0.0342	18.6481	28.4764	-6.2721	0.7370	-0.6723	-0.0177	0.0667
8.2	-0.7101	-9.8353	1.6979	-0.0396	0.0026	-0.0337	18.5374	28.3356	-6.2941	0.7369	-0.6725	-0.0179	0.0667
8.21	-0.6841	-9.8758	1.6825	-0.0504	-0.0006	-0.0265	18.9722	28.5250	-6.3742	0.7367	-0.6727	-0.0180	0.0667
8.22	-0.6702	-9.8888	1.6677	-0.0475	0.0012	-0.0275	18.6805	28.8909	-6.0726	0.7365	-0.6729	-0.0181	0.0667
8.23	-0.6565	-9.9055	1.6773	-0.0422	0.0047	-0.0176	18.4438	28.6847	-6.1090	0.7364	-0.6731	-0.0182	0.0668
8.24	-0.6609	-9.9428	1.6549	-0.0466	0.0039	-0.0111	18.4709	28.6776	-6.0766	0.7361	-0.6732	-0.0182	0.0669
8.25	-0.6608	-9.9624	1.6476	-0.0372	-0.0026	-0.0126	18.5452	28.5794	-6.1538	0.7360	-0.6734	-0.0183	0.0670
8.26	-0.6602	-9.9601	1.6467	-0.0372	0.0126	-0.0090	18.5784	28.5767	-6.2131	0.7358	-0.6735	-0.0183	0.0671
8.27	-0.6740	-9.9416	1.6340	-0.0370	0.0169	-0.0108	18.4570	28.6475	-6.0271	0.7357	-0.6737	-0.0184	0.0671
8.28	-0.6891	-9.9275	1.6363	-0.0295	0.0176	-0.0074	18.4709	28.7227	-6.0166	0.7356	-0.6739	-0.0183	0.0672
8.29	-0.7158	-9.9129	1.6174	-0.0272	0.0312	-0.0096	18.5498	28.6814	-5.9068	0.7354	-0.6740	-0.0183	0.0672
8.3	-0.7433	-9.9086	1.6115	-0.0174	0.0277	-0.0085	18.5778	28.5593	-5.9225	0.7354	-0.6741	-0.0182	0.0672
8.31	-0.7562	-9.9132	1.6022	-0.0186	0.0306	-0.0090	18.5620	28.6735	-5.8618	0.7353	-0.6742	-0.0182	0.0672
8.32	-0.7641	-9.9073	1.6020	-0.0312	0.0289	-0.0116	18.5630	28.6901	-5.8305	0.7352	-0.6743	-0.0181	0.0673
8.33	-0.7665	-9.9171	1.5974	-0.0271	0.0260	-0.0149	18.5883	28.8468	-6.1210	0.7350	-0.6744	-0.0181	0.0673
8.34	-0.7851	-9.9332	1.5871	-0.0185	0.0271	-0.0132	18.4241	28.8344	-6.0964	0.7350	-0.6745	-0.0181	0.0673
8.35	-0.8062	-9.9552	1.5836	-0.0099	0.0255	-0.0155	18.4240	28.6374	-6.0741	0.7349	-0.6746	-0.0181	0.0673
8.36	-0.8199	-9.9713	1.5692	-0.0028	0.0268	-0.0210	18.8205	28.5170	-5.8822	0.7349	-0.6746	-0.0180	0.0673
8.37	-0.8188	-9.9552	1.5800	0.0100	0.0153	-0.0195	18.8705	28.6965	-6.0073	0.7349	-0.6746	-0.0180	0.0673
8.38	-0.8209	-9.9380	1.5816	0.0145	0.0122	-0.0217	18.6354	28.6112	-6.1318	0.7349	-0.6746	-0.0181	0.0673
8.39	-0.8313	-9.9131	1.5856	0.0141	-0.0016	-0.0181	18.7835	28.7263	-5.9916	0.7350	-0.6745	-0.0181	0.0674
8.4	-0.8325	-9.8802	1.6002	0.0165	-0.0095	-0.0141	18.8593	28.4344	-5.7454	0.7349	-0.6744	-0.0182	0.0675
8.41	-0.8337	-9.8499	1.6038	0.0124	-0.0206	-0.0141	18.5322	28.5504	-6.0837	0.7350	-0.6745	-0.0184	0.0676
8.42	-0.8336	-9.8265	1.6128	0.0126	-0.0184	-0.0105	18.6743	28.4536	-6.1854	0.7350	-0.6744	-0.0185	0.0678
8.43	-0.8168	-9.8061	1.6157	0.0043	-0.0354	-0.0154	18.7226	28.4866	-6.2042	0.7351	-0.6744	-0.0186	0.0680
8.44	-0.7859	-9.7988	1.6353	-0.0088	-0.0417	-0.0115	19.2454	28.7758	-5.9780	0.7349	-0.6744	-0.0188	0.0682
8.45	-0.7569	-9.8300	1.6363	-0.0214	-0.0424	-0.0149	19.4166	28.6401	-5.7551	0.7349	-0.6745	-0.0190	0.0684
8.46	-0.7413	-9.8260	1.6081	-0.0149	-0.0385	-0.0216	18.8567	28.5574	-6.2011	0.7348	-0.6746	-0.0192	0.0686
8.47	-0.7269	-9.8411	1.6317	-0.0176	-0.0417	-0.0168	18.5825	28.6810	-6.2256	0.7347	-0.6746	-0.0194	0.0688
8.48	-0.7313	-9.8959	1.6118	-0.0410	-0.0345	-0.0159	18.5449	28.6706	-6.2092	0.7346	-0.6748	-0.0197	0.0690
8.49	-0.7084	-9.8742	1.5941	-0.0244	-0.0318	-0.0227	18.4854	28.5243	-6.0187	0.7344	-0.6748	-0.0199	0.0692
8.5	-0.6583	-9.8668	1.6270	-0.0249	-0.0314	-0.0256	18.7074	28.6661	-6.0878	0.7344	-0.6750	-0.0201	0.0694
8.51	-0.6349	-9.8816	1.6057	-0.0302	-0.0186	-0.0308	18.5700	28.5969	-6.1141	0.7342	-0.6750	-0.0203	0.0695
8.52	-0.6347	-9.8705	1.5949	-0.0288	-0.0194	-0.0236	18.4804	28.6241	-6.1294	0.7341	-0.6752	-0.0205	0.0696
8.53	-0.6507	-9.8671	1.6035	-0.0292	-0.0026	-0.0256	18.6854	28.6156	-6.4049	0.7340	-0.6753	-0.0206	0.0697
8.54	-0.6745	-9.8842	1.5756	-0.0321	0.0035	-0.0227	18.8846	28.2743	-6.0615	0.7338	-0.6754	-0.0207	0.0697
8.55	-0.6794	-9.8749	1.5690	-0.0350	0.0020	-0.0344	18.7119	28.2557	-6.2346	0.7337	-0.6756	-0.0208	0.0697
8.56	-0.6666	-9.9128	1.5703	-0.0356	0.0078	-0.0356	18.6962	28.5303	-6.2795	0.7336	-0.6757	-0.0209	0.0697
8.57	-0.6688	-9.9458	1.5445	-0.0365	0.0133	-0.0354	18.7872	28.4997	-6.1648	0.7335	-0.6759	-0.0210	0.0696
8.58	-0.6659	-9.9602	1.5366	-0.0350	0.0123	-0.0352	18.7438	28.2363	-6.2365	0.7333	-0.6759	-0.0211	0.0695
8.59	-0.6642	-9.9948	1.5302	-0.0366	0.0137	-0.0355	18.7630	28.4017	-6.0380	0.7332	-0.6762	-0.0211	0.0695
8.6	-0.6755	-9.9942	1.5109	-0.0189	0.0180	-0.0343	18.6056	28.4548	-6.0469	0.7331	-0.6762	-0.0212	0.0694
8.61	-0.6684	-9.9881	1.5394	-0.0108	0.0098	-0.0264	18.7884	28.4509	-6.1520	0.7331	-0.6763	-0.0212	0.0694
8.62	-0.6761	-9.9881	1.5273	-0.0042	0.0115	-0.0159	18.6359	28.4229	-5.9718	0.7330	-0.6763	-0.0212	0.0694
8.63	-0.6820	-9.9747	1.5265	0.0057	0.0040	-0.0138	18.3378	28.4973	-6.0664	0.7330	-0.6763	-0.0213	0.0695
8.64	-0.6756	-9.9537	1.5447	0.0013	0.0043	-0.0142	18.4558	28.6829	-6.1207	0.7330	-0.6763	-0.0213	0.0696
8.65	-0.6714	-9.9488	1.5435	0.0025	0.0074	-0.0086	18.6105	28.5066	-6.1131	0.7329	-0.6763	-0.0213	0.0697
8.66	-0.6598	-9.9330	1.5610	0.0139	0.0029	-0.0119	18.4352	28.5513	-6.0991	0.7330	-0.6763	-0.0214	0.0698
8.67	-0.6536	-9.9183	1.5673	0.0160	0.0091	-0.0086	18.4616	28.8013	-6.0046	0.7330	-0.6763	-0.0214	0.0699
8.68	-0.6569	-9.9247	1.5692	0.0147	0.0130	-0.0096	18.4459	28.5113	-6.0273	0.7331	-0.6763	-0.0214	0.0700
8.69	-0.6784	-9.9245	1.5699	0.0144	0.0171	-0.0083	18.3706	28.6505	-6.0182	0.7330	-0.6762	-0.0214	0.0700
8.7	-0.7002	-9.9175	1.5783	0.0146	0.0127	-0.0107	18.6570	28.4364	-6.1339	0.7331	-0.6762	-0.0214	0.0701
8.71	-0.7311	-9.9002	1.5875	0.0143	0.0154	-0.0097	18.6691	28.5623	-6.1012	0.7331	-0.6761	-0.0214	0.0702
8.72	-0.7577	-9.8914	1.5819	0.0142	0.0150	-0.0085	18.3461	28.5757	-6.1179	0.7331	-0.6761	-0.0213	0.0702
8.73	-0.7668	-9.8718	1.5882	0.0149	0.0111	-0.0120	18.7635	28.3091	-6.0043	0.7332	-0.6761	-0.0213	0.0703
8.74	-0.7738	-9.8500	1.5897	0.0139	0.0050	-0.0191	18.8216	28.5092	-6.1689	0.7332	-0.6760	-0.0214	0.0703
8.75	-0.7706	-9.8394	1.5941	0.0148	0.0065	-0.0193	18.5464	28.3523	-6.2369	0.7333	-0.6760	-0.0214	0.0704
8.76	-0.7688	-9.8389	1.5968	0.0159	0.0065	-0.0221	18.5950	28.3434	-6.0703	0.7332	-0.6759	-0.0214	0.0704
8.77	-0.7777	-9.8456	1.5948	0.0103	-0.0047	-0.0272	18.6798	28.6016	-6.1640	0.7333	-0.6759	-0.0215	0.0704
8.78	-0.7785	-9.8564	1.5975	-0.0007	-0.0144	-0.0243	18.4900	28.6002	-6.1912	0.7333	-0.6759	-0.0217	0.0705
8.79	-0.7876	-9.8543	1.5878	0.0031	-0.0201	-0.0208	18.5531	28.6989	-6.3131	0.7333	-0.6759	-0.0218	0.0707
8.8	-0.7835	-9.8559	1.5957	-0.0050	-0.0271	-0.0227	18.6969	28.7052	-6.1753	0.7332	-0.6759	-0.0220	0.0709
8.81	-0.7669	-9.8487	1.5962	-0.0108	-0.0421	-0.0214	18.6492	28.7297	-5.9972	0.7332	-0.6759	-0.0223	0.0711
8.82	-0.7513	-9.8525	1.6033	-0.0034	-0.0398	-0.0248	18.6951	28.4305	-5.9923	0.7332	-0.6760	-0.0225	0.0713
8.83	-0.7340	-9.8743	1.5998	-0.0117	-0.0386	-0.0220	18.5764	28.6197	-6.2109	0.7330	-0.6759	-0.0227	0.0714
8.84	-0.6980	-9.8782	1.6015	-0.0111	-0.0432	-0.0237	18.4811	28.5999	-6.2993	0.7330	-0.6761	-0.0230	0.0717
8.85	-0.6570	-9.8836	1.6153	-0.0141	-0.0453	-0.0207	18.4876	28.5313	-5.8381	0.7329	-0.6761	-0.0233	0.0719
8.86	-0.6101	-9.8932	1.6059	-0.0209	-0.0396	-0.0242	18.5124	28.7105	-6.1204	0.7329	-0.6762	-0.0235	0.0721
8.87	-0.5888	-9.9043	1.6030	-0.0171	-0.0290	-0.0247	18.3878	28.7962	-6.1148	0.7328	-0.6762	-0.0237	0.0722
8.88	-0.5839	-9.9126	1.5857	-0.0248	-0.0217	-0.0267	18.2992	28.6568	-6.1178	0.7327	-0.6763	-0.0239	0.0724
8.89	-0.5783	-9.9439	1.5847	-0.0209	-0.0153	-0.0286	18.3146	28.6049	-6.0991	0.7326	-0.6764	-0.0241	0.0725
8.9	-0.5907	-9.9673	1.5488	-0.0211	-0.0014	-0.0329	18.3819	28.6165	-6.2037	0.7324	-0.6764	-0.0242	0.0725
8.91	-0.5889	-9.9794	1.5594	-0.0114	0.0033	-0.0307	18.5346	28.5165	-6.2095	0.7325	-0.6766	-0.0244	0.0726
8.92	-0.6037	-9.9779	1.5568	-0.0061	0.0062	-0.0283	18.7573	28.5249	-6.0265	0.7324	-0.6766	-0.0244	0.0726
8.93	-0.6188	-9.9861	1.5485	0.0053	0.0144	-0.0276	19.0113	28.5564	-6.0157	0.7325	-0.6766	-0.0245	0.0725
8.94	-0.6299	-9.9789	1.5551	0.0125	0.0111	-0.0274	19.1193	28.5067	-6.0055	0.7324	-0.6765	-0.0245	0.0725
8.95	-0.6471	-9.9690	1.5643	0.0161	0.0092	-0.0281	19.2314	28.4620	-6.0248	0.7325	-0.6765	-0.0245	0.0725
8.96	-0.6449	-9.9565	1.5721	0.0172	0.0127	-0.0216	18.8774	28.5211	-6.2529	0.7325	-0.6764	-0.0246	0.0725
8.97	-0.6454	-9.9349	1.5795	0.0167	0.0139	-0.0217	18.7034	28.6885	-6.0059	0.7325	-0.6764	-0.0246	0.0725
8.98	-0.6414	-9.9234	1.5890	0.0196	0.0045	-0.0188	18.3879	28.8064	-6.1286	0.7327	-0.6764	-0.0246	0.0726
8.99	-0.6493	-9.9197	1.5929	0.0216	0.0119	-0.0110	18.4339	28.4104	-6.0438	0.7326	-0.6763	-0.0246	0.0727
9	-0.6527	-9.9127	1.5959	0.0220	0.0033	-0.0087	18.4818	28.7372	-5.9910	0.7327	-0.6762	-0.0247	0.0728
9.01	-0.6291	-9.9013	1.6083	0.0172	0.0027	-0.0091	18.5754	28.6169	-6.0018	0.7327	-0.6761	-0.0247	0.0729
9.02	-0.6379	-9.9138	1.6150	0.0129	0.0070	-0.0093	18.5527	28.5258	-6.1385	0.7328	-0.6761	-0.0247	0.0729
9.03	-0.6582	-9.8975	1.6062	0.0263	0.0070	-0.0090	18.2782	28.7086	-6.0081	0.7328	-0.6760	-0.0247	0.0730
9.04	-0.6599	-9.8813	1.6331	0.0194	0.0101	-0.0090	18.3630	28.7217	-5.7970	0.7328	-0.6760	-0.0247	0.0731
9.05	-0.6685	-9.8952	1.6297	0.0131	0.0160	-0.0024	18.6166	28.6261	-5.8271	0.7329	-0.6760	-0.0246	0.0732
9.06	-0.6733	-9.8829	1.6378	0.0262	0.0086	-0.0049	18.5177	28.6254	-6.1098	0.7329	-0.6759	-0.0246	0.0733
9.07	-0.6576	-9.8543	1.6611	0.0203	0.0145	-0.0071	18.4814	28.6280	-6.0158	0.7330	-0.6758	-0.0246	0.0734
9.08	-0.6699	-9.8301	1.6550	0.0141	0.0232	-0.0087	18.3981	28.6193	-6.0824	0.7330	-0.6757	-0.0246	0.0734
9.09	-0.6946	-9.8249	1.6527	0.0138	0.0209	-0.0073	18.3896	28.6374	-6.1152	0.7331	-0.6758	-0.0245	0.0735
9.1	-0.7312	-9.8186	1.6533	0.0139	0.0237	-0.0092	18.5631	28.7610	-6.0967	0.7331	-0.6757	-0.0245	0.0735
9.11	-0.7744	-9.8268	1.6394	0.0156	0.0258	-0.0087	18.8555	28.6236	-6.1035	0.7331	-0.6757	-0.0244	0.0736
9.12	-0.7922	-9.8279	1.6286	0.0071	0.0241	-0.0106	18.7304	28.6422	-6.1024	0.7331	-0.6757	-0.0243	0.0736
9.13	-0.7872	-9.8350	1.6220	-0.0027	0.0163	-0.0128	18.7614	28.4782	-5.8285	0.7331	-0.6757	-0.0243	0.0736
9.14	-0.7650	-9.8567	1.6284	-0.0113	0.0136	-0.0123	18.6961	28.4833	-6.0458	0.7331	-0.6758	-0.0243	0.0736
9.15	-0.7592	-9.8700	1.6296	-0.0067	0.0140	-0.0204	18.5760	28.6465	-6.2049	0.7329	-0.6757	-0.0243	0.0736
9.16	-0.7386	-9.8771	1.6320	-0.0139	0.0024	-0.0184	18.3418	28.6079	-6.0926	0.7330	-0.6759	-0.0244	0.0737
9.17	-0.7178	-9.8829	1.6341	-0.0089	0.0075	-0.0241	18.4549	28.6440	-6.0766	0.7329	-0.6759	-0.0245	0.0738
9.18	-0.7026	-9.8803	1.6270	-0.0112	0.0092	-0.0238	18.4744	28.3507	-6.1765	0.7329	-0.6760	-0.0245	0.0738
9.19	-0.6842	-9.8738	1.6236	-0.0114	-0.0003	-0.0182	18.5827	28.3772	-6.1856	0.7327	-0.6760	-0.0246	0.0739
9.2	-0.6878	-9.8773	1.6100	-0.0113	0.0022	-0.0234	18.5383	28.4339	-5.9549	0.7327	-0.6761	-0.0247	0.0739
9.21	-0.6929	-9.8910	1.6057	-0.0119	0.0061	-0.0319	18.4591	28.5543	-6.0169	0.7327	-0.6761	-0.0248	0.0739
9.22	-0.6990	-9.9068	1.5964	-0.0107	0.0095	-0.0300	18.4896	28.6664	-6.0090	0.7326	-0.6761	-0.0249	0.0739
9.23	-0.6995	-9.9225	1.5926	-0.0105	0.0152	-0.0321	18.4879	28.5086	-5.9950	0.7326	-0.6763	-0.0250	0.0739
9.24	-0.6947	-9.9356	1.5876	-0.0115	0.0105	-0.0302	18.4552	28.6993	-5.8882	0.7325	-0.6762	-0.0250	0.0739
9.25	-0.6899	-9.9271	1.5713	-0.0111	0.0056	-0.0340	18.3496	28.7418	-5.9689	0.7325	-0.6763	-0.0251	0.0739
9.26	-0.6753	-9.9414	1.5964	-0.0122	0.0063	-0.0292	18.5138	28.5370	-6.1347	0.7324	-0.6763	-0.0252	0.0739
9.27	-0.6865	-9.9241	1.5525	-0.0061	0.0096	-0.0232	18.3205	28.5210	-6.1552	0.7324	-0.6764	-0.0253	0.0740
9.28	-0.6758	-9.9156	1.5940	0.0039	-0.0025	-0.0225	18.3347	28.7394	-6.1380	0.7324	-0.6764	-0.0254	0.0741
9.29	-0.6978	-9.9588	1.5746	-0.0001	-0.0002	-0.0147	18.4826	28.6145	-6.2142	0.7323	-0.6764	-0.0255	0.0742
9.3	-0.6760	-9.9370	1.5633	0.0149	-0.0071	-0.0136	18.5918	28.6483	-6.0905	0.7324	-0.6764	-0.0256	0.0743
9.31	-0.6301	-9.9369	1.6157	0.0151	-0.0062	-0.0108	18.4080	28.6948	-6.0651	0.7324	-0.6763	-0.0256	0.0744
9.32	-0.6254	-9.9570	1.5929	0.0156	-0.0020	-0.0091	18.4416	28.6073	-6.0250	0.7325	-0.6763	-0.0257	0.0745
9.33	-0.6396	-9.9387	1.6073	0.0140	0.0044	-0.0087	18.4944	28.6135	-6.2280	0.7324	-0.6762	-0.0257	0.0747
9.34	-0.6771	-9.9115	1.6065	0.0167	0.0081	-0.0073	18.5756	28.7615	-6.1604	0.7325	-0.6762	-0.0257	0.0748
9.35	-0.7116	-9.8958	1.6074	0.0161	0.0063	-0.0098	18.7433	28.6127	-6.2276	0.7325	-0.6761	-0.0257	0.0748
9.36	-0.7129	-9.8686	1.6208	0.0201	0.0041	-0.0099	18.7045	28.5056	-6.0850	0.7326	-0.6761	-0.0257	0.0749
9.37	-0.6988	-9.8517	1.6352	0.0146	0.0056	-0.0115	18.4281	28.6360	-6.2051	0.7326	-0.6760	-0.0257	0.0750
9.38	-0.6922	-9.8526	1.6277	0.0175	0.0059	-0.0160	18.7775	28.5262	-6.2995	0.7326	-0.6760	-0.0258	0.0751
9.39	-0.6882	-9.8537	1.6320	0.0166	0.0039	-0.0160	18.4404	28.8967	-6.0803	0.7327	-0.6759	-0.0258	0.0752
9.4	-0.6746	-9.8607	1.6392	0.0151	0.0091	-0.0095	18.3733	28.5029	-6.1425	0.7327	-0.6758	-0.0258	0.0752
9.41	-0.6671	-9.8776	1.6420	0.0008	0.0071	-0.0086	18.3908	28.5741	-5.9297	0.7327	-0.6759	-0.0258	0.0753
9.42	-0.6667	-9.8757	1.6399	0.0068	-0.0005	-0.0099	18.4275	28.6259	-6.1494	0.7327	-0.6759	-0.0259	0.0754
9.43	-0.6663	-9.8777	1.6359	0.0144	0.0070	-0.0105	18.5337	28.6863	-6.0845	0.7328	-0.6759	-0.0259	0.0755
9.44	-0.6749	-9.8732	1.6231	0.0067	0.0070	-0.0081	18.7743	28.8099	-5.8626	0.7327	-0.6758	-0.0259	0.0756
9.45	-0.6802	-9.8780	1.6349	0.0145	-0.0023	-0.0092	19.0542	28.8028	-6.0478	0.7328	-0.6758	-0.0259	0.0757
9.46	-0.6799	-9.8860	1.6452	0.0129	0.0046	-0.0093	18.6467	28.6834	-6.1090	0.7328	-0.6757	-0.0260	0.0758
9.47	-0.6801	-9.8667	1.6423	0.0136	0.0003	-0.0111	18.7043	29.0627	-6.1648	0.7328	-0.6757	-0.0260	0.0759
9.48	-0.6626	-9.8632	1.6571	0.0135	0.0015	-0.0141	18.6274	28.5826	-6.2145	0.7329	-0.6757	-0.0260	0.0760
9.49	-0.6618	-9.8720	1.6469	0.0123	0.0059	-0.0145	18.6650	28.4144	-6.2044	0.7328	-0.6756	-0.0261	0.0761
9.5	-0.6542	-9.8695	1.6536	0.0054	0.0074	-0.0104	18.6802	28.5492	-6.2501	0.7329	-0.6756	-0.0261	0.0762
9.51	-0.6469	-9.8680	1.6506	0.0004	0.0166	-0.0186	18.5745	28.4131	-6.5202	0.7328	-0.6756	-0.0261	0.0762
9.52	-0.6552	-9.8757	1.6390	0.0002	0.0218	-0.0198	18.4637	28.5905	-6.3547	0.7328	-0.6756	-0.0261	0.0762
9.53	-0.6632	-9.8842	1.6341	-0.0073	0.0292	-0.0172	18.5221	28.5490	-6.2995	0.7328	-0.6757	-0.0261	0.0762
9.54	-0.6774	-9.8911	1.6130	-0.0095	0.0269	-0.0175	18.6919	28.4660	-6.3080	0.7327	-0.6757	-0.0260	0.0762
9.55	-0.6908	-9.8961	1.6075	-0.0071	0.0244	-0.0234	18.5373	28.5617	-6.3091	0.7327	-0.6758	-0.0260	0.0761
9.56	-0.7036	-9.9140	1.6013	-0.0052	0.0304	-0.0210	18.4974	28.6586	-6.1591	0.7327	-0.6758	-0.0260	0.0761
9.57	-0.7164	-9.9202	1.6028	-0.0039	0.0281	-0.0160	18.6235	28.4379	-6.0967	0.7327	-0.6759	-0.0260	0.0761
9.58	-0.7227	-9.9228	1.6034	-0.0034	0.0343	-0.0250	18.4716	28.5522	-6.2082	0.7326	-0.6758	-0.0259	0.0760
9.59	-0.7285	-9.9296	1.6048	0.0049	0.0248	-0.0226	18.4981	28.6619	-6.3550	0.7327	-0.6759	-0.0259	0.0760
9.6	-0.7238	-9.9207	1.6174	0.0131	0.0245	-0.0230	18.3326	28.6066	-6.5707	0.7327	-0.6758	-0.0259	0.0760
9.61	-0.7152	-9.9169	1.6174	0.0119	0.0107	-0.0204	18.5276	28.4682	-6.3255	0.7327	-0.6758	-0.0260	0.0761
9.62	-0.7081	-9.9049	1.6247	0.0137	0.0137	-0.0158	18.3514	28.9894	-6.2111	0.7327	-0.6757	-0.0260	0.0761
9.63	-0.7037	-9.8948	1.6195	0.0155	0.0136	-0.0143	18.3581	28.7874	-6.2265	0.7328	-0.6757	-0.0260	0.0762
9.64	-0.7053	-9.8889	1.6271	0.0086	0.0038	-0.0192	18.3383	28.5763	-6.2114	0.7328	-0.6757	-0.0261	0.0762
9.65	-0.7037	-9.8900	1.6373	0.0058	0.0040	-0.0130	18.3620	28.6765	-6.2180	0.7327	-0.6756	-0.0261	0.0763
9.66	-0.7018	-9.8773	1.6314	0.0071	0.0038	-0.0087	18.7180	28.6042	-6.2136	0.7328	-0.6757	-0.0261	0.0764
9.67	-0.6951	-9.8672	1.6334	-0.0004	0.0000	-0.0095	18.6854	28.5243	-6.2237	0.7328	-0.6756	-0.0261	0.0765
9.68	-0.7042	-9.8774	1.6294	0.0024	0.0061	-0.0131	18.7936	28.3756	-6.1617	0.7328	-0.6757	-0.0262	0.0766
9.69	-0.7051	-9.8695	1.6297	0.0045	0.0015	-0.0138	18.6480	28.3864	-5.9757	0.7327	-0.6756	-0.0262	0.0766
9.7	-0.7142	-9.8658	1.6357	0.0070	0.0031	-0.0100	18.6548	28.5907	-6.3529	0.7328	-0.6756	-0.0262	0.0767
9.71	-0.7245	-9.8659	1.6321	0.0004	0.0082	-0.0092	18.6912	28.5336	-6.3494	0.7328	-0.6756	-0.0262	0.0768
9.72	-0.7240	-9.8647	1.6351	-0.0036	0.0005	-0.0110	18.5498	28.5632	-6.3091	0.7327	-0.6756	-0.0263	0.0769
9.73	-0.7243	-9.8645	1.6354	-0.0005	-0.0086	-0.0110	18.7229	28.5451	-6.1682	0.7328	-0.6757	-0.0263	0.0770
9.74	-0.7188	-9.8632	1.6313	-0.0024	-0.0119	-0.0136	18.8512	28.5692	-6.4537	0.7327	-0.6756	-0.0264	0.0772
9.75	-0.7133	-9.8695	1.6411	-0.0060	-0.0174	-0.0156	18.6788	28.4987	-6.3799	0.7327	-0.6757	-0.0265	0.0773
9.76	-0.7038	-9.8833	1.6379	-0.0111	-0.0212	-0.0133	18.4834	28.3289	-6.2520	0.7326	-0.6757	-0.0267	0.0774
9.77	-0.6961	-9.9084	1.6368	-0.0083	-0.0134	-0.0194	18.3851	28.7483	-6.4636	0.7326	-0.6757	-0.0268	0.0776
9.78	-0.6779	-9.9211	1.6246	-0.0115	-0.0190	-0.0206	18.5485	28.6573	-6.1447	0.7325	-0.6758	-0.0270	0.0777
9.79	-0.6586	-9.9337	1.6208	-0.0120	-0.0172	-0.0121	18.3805	28.6872	-6.1157	0.7324	-0.6758	-0.0271	0.0779
9.8	-0.6497	-9.9471	1.6144	-0.0122	-0.0128	-0.0096	18.4225	28.9356	-6.2321	0.7324	-0.6759	-0.0272	0.0780
9.81	-0.6480	-9.9460	1.6174	-0.0066	-0.0085	-0.0096	18.5068	29.0333	-6.2427	0.7323	-0.6759	-0.0273	0.0782
9.82	-0.6373	-9.9385	1.6080	0.0059	-0.0123	-0.0117	18.4854	28.8499	-6.1925	0.7324	-0.6759	-0.0274	0.0783
9.83	-0.6029	-9.9293	1.6285	0.0135	-0.0040	-0.0137	18.4740	28.4003	-6.3319	0.7323	-0.6758	-0.0274	0.0784
9.84	-0.6053	-9.9236	1.6478	0.0144	0.0044	-0.0112	18.5046	28.6108	-6.2726	0.7324	-0.6758	-0.0275	0.0786
9.85	-0.6229	-9.8921	1.6351	0.0140	0.0157	-0.0088	18.6015	28.6193	-6.2475	0.7324	-0.6757	-0.0275	0.0786
9.86	-0.6236	-9.8698	1.6672	0.0146	0.0189	-0.0094	18.5420	28.4440	-6.3353	0.7325	-0.6757	-0.0274	0.0787
9.87	-0.6588	-9.8744	1.6594	0.0140	0.0215	-0.0080	18.7788	28.4770	-6.2900	0.7325	-0.6756	-0.0274	0.0787
9.88	-0.6797	-9.8749	1.6583	0.0140	0.0292	-0.0092	18.7419	28.4373	-6.4415	0.7325	-0.6756	-0.0273	0.0787
9.89	-0.6907	-9.8708	1.6644	0.0123	0.0223	-0.0084	18.7599	28.3432	-6.3322	0.7326	-0.6756	-0.0272	0.0787
9.9	-0.7130	-9.8713	1.6578	0.0116	0.0249	-0.0112	18.6842	28.4715	-6.2101	0.7325	-0.6755	-0.0272	0.0787
9.91	-0.7313	-9.8699	1.6516	0.0060	0.0252	-0.0115	18.5332	28.4622	-6.2020	0.7327	-0.6756	-0.0271	0.0788
9.92	-0.7471	-9.8640	1.6471	0.0132	0.0282	-0.0090	18.6445	28.4723	-6.3949	0.7326	-0.6755	-0.0271	0.0788
9.93	-0.7648	-9.8495	1.6432	0.0042	0.0261	-0.0110	18.6491	28.4442	-6.3455	0.7327	-0.6755	-0.0270	0.0788
9.94	-0.7708	-9.8420	1.6468	0.0015	0.0213	-0.0148	18.8434	28.6463	-6.1153	0.7326	-0.6755	-0.0270	0.0788
9.95	-0.7563	-9.8425	1.6506	-0.0020	0.0090	-0.0157	19.3215	28.8675	-5.9641	0.7326	-0.6755	-0.0270	0.0789
9.96	-0.7448	-9.8393	1.6428	-0.0090	0.0169	-0.0173	18.7219	28.6622	-6.2634	0.7326	-0.6756	-0.0270	0.0789
9.97	-0.7338	-9.8456	1.6418	-0.0072	0.0111	-0.0216	18.6863	29.1288	-6.2478	0.7325	-0.6755	-0.0270	0.0789
9.98	-0.7313	-9.8611	1.6301	-0.0119	0.0130	-0.0205	18.7222	29.2155	-6.0874	0.7326	-0.6757	-0.0271	0.0789
9.99	-0.7288	-9.8767	1.6218	-0.0113	0.0121	-0.0206	18.5108	28.5379	-5.9250	0.7324	-0.6757	-0.0271	0.0790
10	-0.7225	-9.9030	1.6154	-0.0152	0.0069	-0.0216	18.6308	28.7155	-6.0217	0.7324	-0.6758	-0.0272	0.0790
10.01	-0.7098	-9.9163	1.6106	-0.0107	-0.0037	-0.0158	18.4339	28.5584	-6.2360	0.7323	-0.6757	-0.0273	0.0791
10.02	-0.6965	-9.9354	1.6095	-0.0116	-0.0069	-0.0185	18.5401	28.5294	-6.1552	0.7323	-0.6758	-0.0274	0.0792
10.03	-0.6936	-9.9320	1.6079	-0.0068	-0.0013	-0.0096	18.5295	28.7514	-6.2483	0.7322	-0.6758	-0.0274	0.0793
10.04	-0.6931	-9.9193	1.6286	-0.0032	-0.0103	-0.0105	18.4558	28.5729	-6.3276	0.7322	-0.6758	-0.0275	0.0795
10.05	-0.6918	-9.9127	1.6298	0.0032	-0.0164	-0.0090	18.6680	28.6065	-6.0329	0.7322	-0.6759	-0.0276	0.0796
10.06	-0.6913	-9.8946	1.6356	0.0051	-0.0146	-0.0155	18.7008	28.5778	-6.3149	0.7322	-0.6758	-0.0277	0.0798
10.07	-0.6875	-9.8829	1.6402	-0.0056	-0.0217	-0.0128	18.7190	28.4140	-6.1192	0.7322	-0.6759	-0.0279	0.0799
10.08	-0.6902	-9.8794	1.6428	-0.0126	-0.0169	-0.0102	18.5588	28.4292	-6.1551	0.7321	-0.6758	-0.0280	0.0801
10.09	-0.6945	-9.8552	1.6273	-0.0103	-0.0162	-0.0142	18.4357	28.3832	-6.4165	0.7321	-0.6759	-0.0281	0.0803
10.1	-0.6948	-9.8646	1.6489	-0.0079	-0.0161	-0.0097	18.4041	28.1669	-6.1792	0.7320	-0.6759	-0.0282	0.0804
10.11	-0.7175	-9.8897	1.6144	-0.0139	-0.0066	-0.0148	18.5274	28.3984	-6.1703	0.7320	-0.6760	-0.0283	0.0805
10.12	-0.6966	-9.8682	1.6192	-0.0112	-0.0206	-0.0142	18.3487	28.5339	-6.2973	0.7319	-0.6760	-0.0284	0.0807
10.13	-0.6597	-9.9003	1.6586	-0.0109	-0.0197	-0.0136	18.4351	28.4610	-6.2478	0.7319	-0.6760	-0.0286	0.0809
10.14	-0.6566	-9.9256	1.6323	-0.0088	-0.0160	-0.0152	18.6976	28.6101	-6.1572	0.7318	-0.6761	-0.0287	0.0810
10.15	-0.6646	-9.8763	1.6560	0.0044	-0.0073	-0.0088	18.5615	28.4827	-6.2124	0.7317	-0.6760	-0.0288	0.0811
10.16	-0.6834	-9.8674	1.6684	-0.0029	-0.0098	-0.0153	18.4870	28.6518	-6.0517	0.7318	-0.6761	-0.0289	0.0813
10.17	-0.7002	-9.8714	1.6403	-0.0135	-0.0156	-0.0151	18.7575	28.6302	-6.1624	0.7317	-0.6761	-0.0290	0.0814
10.18	-0.6741	-9.8668	1.6462	-0.0092	-0.0158	-0.0208	18.4846	28.6576	-6.1945	0.7317	-0.6762	-0.0292	0.0816
10.19	-0.6408	-9.8790	1.6469	-0.0146	-0.0125	-0.0246	18.4804	28.6952	-6.1986	0.7316	-0.6761	-0.0293	0.0816
10.2	-0.6207	-9.8956	1.6343	-0.0194	-0.0166	-0.0279	18.4748	28.4625	-6.2823	0.7316	-0.6762	-0.0295	0.0817
10.21	-0.6161	-9.9162	1.6308	-0.0192	-0.0171	-0.0274	18.4963	28.5156	-6.1103	0.7315	-0.6763	-0.0297	0.0818
10.22	-0.6105	-9.9446	1.6175	-0.0111	0.0037	-0.0166	18.4041	28.5670	-6.0766	0.7314	-0.6763	-0.0297	0.0819
10.23	-0.6061	-9.9397	1.6109	-0.0092	-0.0112	-0.0135	18.3714	28.6130	-6.1329	0.7314	-0.6764	-0.0298	0.0821
10.24	-0.6163	-9.9417	1.6146	-0.0051	0.0002	-0.0117	18.7206	28.2982	-6.2964	0.7313	-0.6764	-0.0299	0.0821
10.25	-0.6200	-9.9356	1.6045	-0.0042	-0.0002	-0.0081	18.7003	28.4286	-6.0648	0.7314	-0.6764	-0.0299	0.0823
10.26	-0.6096	-9.9140	1.6054	0.0045	0.0021	-0.0123	18.5612	28.3935	-6.1772	0.7313	-0.6763	-0.0300	0.0823
10.27	-0.6070	-9.9040	1.6096	0.0056	0.0041	-0.0092	18.5434	28.4665	-6.4451	0.7313	-0.6764	-0.0300	0.0824
10.28	-0.6068	-9.9086	1.6197	0.0015	0.0129	-0.0099	18.4880	28.6313	-6.2518	0.7313	-0.6764	-0.0300	0.0825
10.29	-0.6068	-9.9148	1.6179	0.0102	0.0174	-0.0085	18.7001	28.5764	-6.1596	0.7313	-0.6763	-0.0300	0.0826
10.3	-0.6214	-9.9125	1.6313	0.0084	0.0262	-0.0086	18.5377	28.5996	-6.2003	0.7314	-0.6763	-0.0299	0.0826
10.31	-0.6402	-9.9146	1.6298	0.0109	0.0315	-0.0092	18.4690	28.6154	-6.1824	0.7314	-0.6763	-0.0298	0.0826
10.32	-0.6654	-9.9171	1.6237	0.0143	0.0296	-0.0090	18.4983	28.7342	-6.1992	0.7314	-0.6763	-0.0298	0.0826
10.33	-0.6912	-9.9085	1.6189	0.0086	0.0381	-0.0113	18.3994	28.5693	-6.1928	0.7314	-0.6762	-0.0297	0.0826
10.34	-0.7154	-9.9061	1.6179	0.0088	0.0420	-0.0106	18.2668	28.6079	-6.1854	0.7315	-0.6762	-0.0296	0.0826
10.35	-0.7277	-9.8877	1.6081	0.0146	0.0312	-0.0087	18.5278	28.5642	-6.0525	0.7315	-0.6762	-0.0295	0.0826
10.36	-0.7398	-9.8758	1.6109	0.0151	0.0338	-0.0099	18.5883	28.6943	-6.1912	0.7316	-0.6761	-0.0294	0.0826
10.37	-0.7419	-9.8749	1.6209	0.0132	0.0388	-0.0122	18.4746	28.5840	-6.1917	0.7316	-0.6761	-0.0293	0.0825
10.38	-0.7517	-9.8632	1.6221	0.0128	0.0267	-0.0133	18.5829	28.4854	-6.1868	0.7316	-0.6761	-0.0292	0.0825
10.39	-0.7593	-9.8590	1.6225	0.0131	0.0164	-0.0124	18.5911	28.7138	-6.1874	0.7317	-0.6760	-0.0292	0.0826
10.4	-0.7629	-9.8482	1.6196	0.0144	0.0207	-0.0122	18.4680	28.5816	-6.2455	0.7317	-0.6759	-0.0292	0.0826
10.41	-0.7644	-9.8632	1.6344	0.0030	0.0165	-0.0105	18.4150	28.6058	-6.5502	0.7318	-0.6760	-0.0292	0.0827
10.42	-0.7668	-9.8657	1.6102	-0.0052	0.0085	-0.0115	18.4608	28.7088	-6.4945	0.7317	-0.6760	-0.0292	0.0827
10.43	-0.7606	-9.8690	1.6174	-0.0010	0.0087	-0.0107	18.6522	28.6653	-5.9909	0.7317	-0.6760	-0.0292	0.0828
10.44	-0.7569	-9.8790	1.6150	-0.0050	0.0009	-0.0093	19.0603	28.7087	-6.0229	0.7316	-0.6759	-0.0292	0.0829
10.45	-0.7596	-9.8780	1.6119	-0.0001	-0.0024	-0.0168	19.2507	28.7415	-5.9622	0.7317	-0.6760	-0.0293	0.0830
10.46	-0.7474	-9.8921	1.6199	-0.0031	-0.0052	-0.0139	18.8779	28.5973	-6.2700	0.7316	-0.6760	-0.0294	0.0831
10.47	-0.7340	-9.8910	1.6099	0.0003	-0.0057	-0.0117	18.5654	28.9452	-6.3346	0.7316	-0.6759	-0.0294	0.0832
10.48	-0.7173	-9.8888	1.6206	-0.0053	-0.0145	-0.0145	18.6531	28.7889	-6.2955	0.7317	-0.6760	-0.0295	0.0833
10.49	-0.7075	-9.8884	1.6154	-0.0071	-0.0104	-0.0157	18.6746	28.4516	-6.2697	0.7316	-0.6760	-0.0297	0.0835
10.5	-0.6997	-9.8793	1.6168	-0.0014	-0.0074	-0.0162	18.6362	28.5461	-6.3895	0.7316	-0.6760	-0.0298	0.0836
10.51	-0.7026	-9.8757	1.6220	-0.0009	-0.0177	-0.0139	18.7798	28.6648	-6.2863	0.7315	-0.6759	-0.0299	0.0837
10.52	-0.7033	-9.8788	1.6070	-0.0109	-0.0143	-0.0162	18.5969	28.6549	-6.2183	0.7315	-0.6760	-0.0300	0.0838
10.53	-0.7054	-9.8719	1.6098	-0.0082	-0.0118	-0.0161	18.4497	28.6509	-6.3055	0.7315	-0.6760	-0.0301	0.0840
10.54	-0.7013	-9.8903	1.6064	-0.0113	-0.0054	-0.0162	18.4864	28.6564	-6.0705	0.7314	-0.6760	-0.0302	0.0841
10.55	-0.6900	-9.9038	1.6008	-0.0093	-0.0067	-0.0180	18.5904	28.6477	-6.2400	0.7314	-0.6761	-0.0303	0.0842
10.56	-0.6832	-9.9216	1.6060	-0.0099	-0.0086	-0.0198	18.4117	28.6633	-6.3303	0.7313	-0.6761	-0.0304	0.0843
10.57	-0.6726	-9.9353	1.5959	-0.0105	-0.0065	-0.0166	18.4431	28.6267	-6.2285	0.7313	-0.6762	-0.0305	0.0844
10.58	-0.6704	-9.9408	1.5950	-0.0096	-0.0048	-0.0174	18.5075	28.7557	-6.1960	0.7312	-0.6761	-0.0306	0.0845
10.59	-0.6659	-9.9475	1.5991	0.0013	-0.0033	-0.0154	18.5669	28.7138	-6.2180	0.7313	-0.6762	-0.0307	0.0846
10.6	-0.6529	-9.9450	1.6068	0.0103	-0.0013	-0.0111	18.6193	28.4858	-6.1837	0.7313	-0.6761	-0.0307	0.0847
10.61	-0.6439	-9.9225	1.6119	0.0121	0.0015	-0.0115	18.9765	28.4268	-6.2645	0.7313	-0.6761	-0.0308	0.0848
10.62	-0.6468	-9.9065	1.6276	0.0165	0.0117	-0.0112	18.7121	28.2674	-6.4094	0.7313	-0.6760	-0.0307	0.0848
10.63	-0.6543	-9.9040	1.6332	0.0151	0.0118	-0.0080	18.5400	28.3455	-6.2222	0.7314	-0.6760	-0.0307	0.0849
10.64	-0.6569	-9.8783	1.6320	0.0152	0.0101	-0.0151	18.5905	28.6302	-6.2108	0.7315	-0.6759	-0.0307	0.0849
10.65	-0.6494	-9.8473	1.6374	0.0131	0.0159	-0.0159	18.5721	28.6809	-6.1815	0.7314	-0.6758	-0.0307	0.0850
10.66	-0.6458	-9.8546	1.6475	0.0119	0.0132	-0.0096	18.5642	28.5210	-6.3473	0.7316	-0.6758	-0.0307	0.0850
10.67	-0.6766	-9.8610	1.6355	0.0105	0.0218	-0.0071	18.6136	28.4914	-6.3503	0.7315	-0.6758	-0.0307	0.0851
10.68	-0.6806	-9.8438	1.6468	0.0090	0.0198	-0.0111	18.7096	28.6687	-6.0371	0.7316	-0.6758	-0.0307	0.0851
10.69	-0.6852	-9.8546	1.6608	-0.0038	0.0183	-0.0097	18.5441	28.6516	-6.3598	0.7315	-0.6757	-0.0306	0.0851
10.7	-0.7114	-9.8848	1.6487	-0.0012	0.0187	-0.0087	18.6007	28.6535	-6.2377	0.7316	-0.6758	-0.0306	0.0852
10.71	-0.7167	-9.8838	1.6467	-0.0065	0.0189	-0.0091	18.7128	28.6558	-6.2249	0.7315	-0.6758	-0.0306	0.0852
10.72	-0.7177	-9.8638	1.6442	-0.0087	0.0193	-0.0070	18.5592	28.6501	-6.1024	0.7314	-0.6758	-0.0305	0.0853
10.73	-0.7314	-9.8700	1.6432	-0.0109	0.0215	-0.0094	18.5949	28.6553	-6.1511	0.7315	-0.6759	-0.0305	0.0853
10.74	-0.7441	-9.8741	1.6339	-0.0103	0.0211	-0.0079	18.5454	28.9355	-6.1756	0.7314	-0.6759	-0.0305	0.0854
10.75	-0.7667	-9.8772	1.6177	-0.0082	0.0198	-0.0092	18.6789	28.8257	-6.1423	0.7314	-0.6760	-0.0305	0.0854
10.76	-0.7787	-9.8795	1.6093	-0.0109	0.0110	-0.0150	18.5481	28.5107	-6.3285	0.7313	-0.6759	-0.0305	0.0854
10.77	-0.7787	-9.8936	1.6062	-0.0111	0.0106	-0.0208	18.6211	28.6241	-6.1672	0.7313	-0.6760	-0.0305	0.0855
10.78	-0.7744	-9.8934	1.5958	-0.0100	0.0089	-0.0201	18.4551	28.6246	-6.2304	0.7313	-0.6760	-0.0306	0.0855
10.79	-0.7631	-9.9012	1.5965	-0.0110	0.0031	-0.0227	18.7208	28.4799	-6.1837	0.7312	-0.6761	-0.0306	0.0855
10.8	-0.7641	-9.9149	1.5904	-0.0084	0.0047	-0.0183	18.8586	28.3755	-6.2148	0.7312	-0.6761	-0.0307	0.0856
10.81	-0.7652	-9.9122	1.5875	-0.0044	-0.0043	-0.0230	18.6012	28.4264	-6.0357	0.7312	-0.6761	-0.0308	0.0857
10.82	-0.7613	-9.9291	1.5979	-0.0109	-0.0041	-0.0204	18.8945	28.5059	-6.2603	0.7312	-0.6762	-0.0309	0.0857
10.83	-0.7438	-9.9345	1.5927	0.0018	-0.0113	-0.0256	18.7268	28.4603	-6.3097	0.7311	-0.6761	-0.0310	0.0858
10.84	-0.7269	-9.9183	1.6107	0.0052	-0.0151	-0.0251	18.6616	28.5034	-6.2989	0.7312	-0.6761	-0.0312	0.0859
10.85	-0.7079	-9.9124	1.6084	0.0066	-0.0161	-0.0198	18.6497	28.4495	-6.0942	0.7311	-0.6760	-0.0313	0.0860
10.86	-0.6938	-9.9085	1.6121	0.0114	-0.0200	-0.0228	18.6876	28.5713	-6.2544	0.7312	-0.6760	-0.0314	0.0861
10.87	-0.6752	-9.9030	1.6139	0.0047	-0.0152	-0.0171	18.5323	28.5534	-6.4217	0.7312	-0.6759	-0.0316	0.0863
10.88	-0.6656	-9.8980	1.6117	0.0140	-0.0210	-0.0158	18.7623	28.4738	-6.3726	0.7312	-0.6759	-0.0317	0.0864
10.89	-0.6523	-9.8943	1.6172	0.0073	-0.0189	-0.0212	18.6378	28.6543	-6.3716	0.7313	-0.6759	-0.0319	0.0866
10.9	-0.6443	-9.9046	1.6163	-0.0028	-0.0105	-0.0217	18.5426	28.6597	-6.1603	0.7312	-0.6758	-0.0320	0.0867
10.91	-0.6437	-9.8908	1.6040	0.0043	-0.0082	-0.0200	18.5935	28.5375	-6.3711	0.7313	-0.6758	-0.0321	0.0868
10.92	-0.6392	-9.8793	1.6206	-0.0016	-0.0075	-0.0181	18.5647	28.7657	-6.3300	0.7312	-0.6758	-0.0322	0.0869
10.93	-0.6609	-9.9136	1.6155	-0.0015	-0.0003	-0.0234	18.6019	28.8698	-6.0876	0.7313	-0.6759	-0.0323	0.0869
10.94	-0.6579	-9.8860	1.5917	0.0111	-0.0046	-0.0249	18.9729	28.8026	-6.1345	0.7312	-0.6757	-0.0324	0.0870
10.95	-0.6190	-9.8754	1.6470	0.0130	-0.0042	-0.0300	19.2327	28.8372	-5.9532	0.7313	-0.6757	-0.0325	0.0870
10.96	-0.5967	-9.9007	1.6286	0.0094	0.0023	-0.0252	18.5822	28.6033	-6.2285	0.7313	-0.6757	-0.0326	0.0870
10.97	-0.6120	-9.8825	1.6329	0.0137	0.0039	-0.0138	18.5307	28.8130	-6.3099	0.7313	-0.6756	-0.0326	0.0871
10.98	-0.6303	-9.8676	1.6450	0.0143	0.0075	-0.0146	18.4523	28.6282	-6.1472	0.7315	-0.6756	-0.0326	0.0872
10.99	-0.6645	-9.8703	1.6284	0.0140	0.0066	-0.0113	18.8328	28.5487	-6.1971	0.7315	-0.6755	-0.0327	0.0873
11	-0.6694	-9.8623	1.6272	0.0039	0.0088	-0.0153	18.8070	28.5824	-6.1712	0.7315	-0.6755	-0.0327	0.0873
11.01	-0.6497	-9.8607	1.6411	0.0055	0.0040	-0.0210	18.6640	28.4940	-6.1823	0.7314	-0.6754	-0.0327	0.0873
11.02	-0.6388	-9.8679	1.6342	-0.0079	0.0064	-0.0180	18.6662	28.6529	-6.1800	0.7315	-0.6755	-0.0328	0.0874
11.03	-0.6344	-9.8703	1.6251	-0.0117	0.0071	-0.0190	18.5538	28.5959	-6.1940	0.7314	-0.6755	-0.0328	0.0874
11.04	-0.6318	-9.8876	1.6251	-0.0106	0.0095	-0.0142	18.6135	28.6220	-6.1587	0.7314	-0.6755	-0.0329	0.0875
11.05	-0.6444	-9.9000	1.6157	-0.0130	0.0144	-0.0120	18.4756	28.6096	-6.2953	0.7314	-0.6756	-0.0329	0.0875
11.06	-0.6451	-9.9064	1.6140	-0.0117	0.0096	-0.0105	18.3757	28.6127	-6.5164	0.7313	-0.6756	-0.0329	0.0876
11.07	-0.6424	-9.9175	1.6085	-0.0108	0.0040	-0.0139	18.4890	28.6188	-6.1379	0.7313	-0.6757	-0.0329	0.0877
11.08	-0.6453	-9.9132	1.6054	-0.0070	0.0137	-0.0115	18.5060	28.6007	-5.9779	0.7312	-0.6756	-0.0329	0.0877
11.09	-0.6459	-9.9084	1.5987	-0.0036	0.0105	-0.0079	18.5054	28.6390	-6.1251	0.7312	-0.6757	-0.0329	0.0878
11.1	-0.6532	-9.8991	1.6064	0.0017	0.0157	-0.0102	18.4959	28.5519	-6.2218	0.7312	-0.6757	-0.0329	0.0878
11.11	-0.6589	-9.8994	1.6142	-0.0005	0.0169	-0.0086	18.5206	28.5541	-6.0820	0.7312	-0.6757	-0.0329	0.0879
11.12	-0.6624	-9.9043	1.6158	0.0042	0.0161	-0.0088	18.3824	28.8406	-6.1161	0.7312	-0.6756	-0.0329	0.0879
11.13	-0.6732	-9.8984	1.6140	0.0043	0.0150	-0.0094	18.5911	28.7368	-6.1825	0.7312	-0.6756	-0.0329	0.0880
11.14	-0.6860	-9.8945	1.6164	-0.0071	0.0166	-0.0096	18.5201	28.4910	-6.0348	0.7312	-0.6757	-0.0329	0.0880
11.15	-0.6958	-9.8927	1.6107	-0.0019	0.0259	-0.0093	18.5779	28.6823	-6.2039	0.7311	-0.6756	-0.0328	0.0880
11.16	-0.7147	-9.9004	1.6094	0.0010	0.0223	-0.0171	18.5906	28.8345	-6.0671	0.7312	-0.6757	-0.0328	0.0880
11.17	-0.7333	-9.9056	1.6051	-0.0026	0.0216	-0.0135	18.7640	28.5794	-6.1027	0.7312	-0.6757	-0.0328	0.0880
11.18	-0.7428	-9.9073	1.6001	0.0088	0.0233	-0.0143	18.6993	28.5114	-6.0618	0.7313	-0.6757	-0.0327	0.0881
11.19	-0.7446	-9.9051	1.6070	0.0092	0.0159	-0.0169	18.6761	28.5377	-6.2030	0.7312	-0.6756	-0.0327	0.0881
11.2	-0.7406	-9.9063	1.6073	0.0132	0.0174	-0.0155	18.6484	28.2862	-6.1529	0.7313	-0.6756	-0.0327	0.0881
11.21	-0.7281	-9.9032	1.6109	0.0145	0.0092	-0.0136	18.5734	28.6052	-6.2390	0.7313	-0.6755	-0.0327	0.0881
11.22	-0.7097	-9.8974	1.6154	0.0136	0.0036	-0.0204	18.5832	28.5939	-6.2930	0.7313	-0.6754	-0.0328	0.0882
11.23	-0.6974	-9.8866	1.6199	0.0142	0.0044	-0.0182	18.6144	28.7484	-6.2663	0.7315	-0.6755	-0.0328	0.0883
11.24	-0.6849	-9.8765	1.6271	0.0141	-0.0043	-0.0160	18.5252	28.4728	-6.1322	0.7314	-0.6753	-0.0329	0.0883
11.25	-0.6824	-9.8830	1.6320	0.0136	-0.0007	-0.0171	18.5526	28.4936	-6.0590	0.7315	-0.6753	-0.0330	0.0884
11.26	-0.6794	-9.8751	1.6422	0.0074	0.0020	-0.0146	18.6112	28.5242	-6.1128	0.7315	-0.6752	-0.0330	0.0885
11.27	-0.6733	-9.8641	1.6385	0.0071	0.0060	-0.0253	18.3566	28.5609	-6.2739	0.7316	-0.6752	-0.0331	0.0885
11.28	-0.6707	-9.8681	1.6337	0.0090	0.0058	-0.0213	18.4675	28.9272	-6.1559	0.7316	-0.6752	-0.0331	0.0886
11.29	-0.6674	-9.8702	1.6324	0.0054	0.0046	-0.0145	18.5978	28.5065	-6.2018	0.7316	-0.6751	-0.0332	0.0886
11.3	-0.6658	-9.8712	1.6378	0.0017	0.0029	-0.0151	18.5791	28.5301	-6.0798	0.7316	-0.6751	-0.0332	0.0887
11.31	-0.6657	-9.8783	1.6371	0.0018	0.0071	-0.0199	18.4777	28.6532	-6.0718	0.7316	-0.6751	-0.0333	0.0887
11.32	-0.6730	-9.8896	1.6236	-0.0060	0.0098	-0.0213	18.4950	28.7640	-6.1583	0.7316	-0.6751	-0.0333	0.0888
11.33	-0.6761	-9.8914	1.6153	-0.0117	0.0076	-0.0203	18.5831	28.8221	-6.1957	0.7315	-0.6751	-0.0334	0.0888
11.34	-0.6815	-9.8925	1.6243	-0.0023	0.0029	-0.0181	18.6001	28.6381	-6.1881	0.7316	-0.6752	-0.0334	0.0888
11.35	-0.6873	-9.8931	1.6160	-0.0063	0.0040	-0.0185	18.5718	28.6449	-6.3316	0.7315	-0.6752	-0.0335	0.0889
11.36	-0.6841	-9.8872	1.6221	-0.0012	0.0075	-0.0157	18.6141	28.4982	-6.1604	0.7315	-0.6752	-0.0335	0.0889
11.37	-0.6803	-9.8855	1.6248	0.0033	0.0046	-0.0157	18.4640	28.6575	-6.2970	0.7315	-0.6751	-0.0336	0.0890
11.38	-0.6810	-9.9005	1.6255	-0.0062	0.0023	-0.0197	18.5585	28.6431	-6.2578	0.7315	-0.6752	-0.0337	0.0891
11.39	-0.6692	-9.9181	1.6273	0.0042	0.0039	-0.0187	18.7581	28.3288	-6.3014	0.7315	-0.6752	-0.0337	0.0891
11.4	-0.6597	-9.9162	1.6277	0.0071	0.0038	-0.0196	18.4903	28.6537	-6.1026	0.7315	-0.6751	-0.0338	0.0892
11.41	-0.6486	-9.9072	1.6278	0.0081	0.0085	-0.0142	18.2982	28.4861	-6.0733	0.7316	-0.6751	-0.0338	0.0892
