time	acceleration_x	acceleration_y	acceleration_z	gyroscope_x	gyroscope_y	gyroscope_z	magnetometer_x	magnetometer_y	magnetometer_z	quaternion_w	quaternion_x	quaternion_y	quaternion_z
0	-9.6614	0.1419	-1.2700	-0.0022	-0.0139	0.0105	14.9465	3.1434	12.5612	0.6496	0.1269	0.7430	-0.0993
0.01	-9.6437	0.1387	-1.2716	0.0024	-0.0118	0.0085	15.0261	2.9373	12.3891	0.6496	0.1269	0.7430	-0.0994
0.02	-9.6551	0.1304	-1.2705	0.0006	-0.0143	0.0102	14.8744	3.0106	12.5394	0.6496	0.1269	0.7430	-0.0994
0.03	-9.6779	0.1197	-1.2746	0.0087	-0.0144	0.0159	15.1877	3.0397	12.5839	0.6496	0.1269	0.7430	-0.0994
0.04	-9.6530	0.1158	-1.2677	-0.0000	-0.0087	0.0124	15.0305	2.9464	12.4534	0.6496	0.1270	0.7430	-0.0994
0.05	-9.6595	0.1095	-1.2708	0.0010	-0.0083	0.0056	14.9620	3.0557	12.6798	0.6495	0.1270	0.7429	-0.0994
0.06	-9.6665	0.1095	-1.2721	0.0033	-0.0107	0.0050	14.9977	3.0767	12.8024	0.6496	0.1270	0.7430	-0.0994
0.07	-9.6639	0.0975	-1.2719	0.0022	-0.0073	0.0089	14.9619	3.3013	12.8458	0.6496	0.1270	0.7430	-0.0994
0.08	-9.6409	0.1062	-1.2628	0.0010	-0.0099	0.0096	15.0407	3.0593	12.6374	0.6496	0.1270	0.7430	-0.0994
0.09	-9.6389	0.1104	-1.2550	-0.0015	-0.0037	0.0069	15.1761	3.0555	12.8089	0.6495	0.1270	0.7430	-0.0994
0.1	-9.6515	0.1150	-1.2447	0.0021	-0.0040	0.0028	14.9812	3.0658	12.8351	0.6495	0.1270	0.7430	-0.0994
0.11	-9.6581	0.1354	-1.2290	-0.0012	-0.0054	0.0079	15.0433	3.0255	12.7219	0.6495	0.1270	0.7431	-0.0995
0.12	-9.6463	0.1321	-1.2214	-0.0006	-0.0077	0.0094	15.0744	2.8623	12.5083	0.6495	0.1270	0.7430	-0.0994
0.13	-9.6535	0.1396	-1.2254	-0.0005	-0.0069	0.0125	14.9986	3.0248	12.4105	0.6495	0.1270	0.7431	-0.0994
0.14	-9.6540	0.1508	-1.2497	0.0016	-0.0032	0.0127	15.0741	3.0351	12.6869	0.6495	0.1271	0.7431	-0.0994
0.15	-9.6532	0.1698	-1.2594	0.0009	-0.0060	0.0089	15.1208	2.9458	12.4617	0.6495	0.1271	0.7431	-0.0994
0.16	-9.6593	0.1883	-1.2738	-0.0020	-0.0047	0.0086	15.2465	3.0131	12.6454	0.6494	0.1271	0.7431	-0.0994
0.17	-9.6610	0.2062	-1.2879	0.0053	-0.0054	0.0115	15.0103	2.8230	12.6397	0.6494	0.1271	0.7431	-0.0994
0.18	-9.6456	0.2173	-1.3130	0.0030	-0.0004	0.0077	14.9580	3.0194	12.6440	0.6494	0.1271	0.7431	-0.0995
0.19	-9.6549	0.2426	-1.3300	-0.0036	-0.0052	0.0092	15.0872	3.0759	12.6196	0.6493	0.1271	0.7431	-0.0994
0.2	-9.6571	0.2430	-1.3748	-0.0037	-0.0004	0.0040	14.9499	2.9654	12.5826	0.6494	0.1271	0.7432	-0.0994
0.21	-9.6584	0.2420	-1.3932	0.0033	-0.0070	0.0063	14.8130	3.2103	12.5669	0.6493	0.1271	0.7432	-0.0995
0.22	-9.6605	0.2382	-1.4116	-0.0016	-0.0100	0.0139	15.2011	3.0487	12.4544	0.6494	0.1271	0.7432	-0.0995
0.23	-9.6568	0.2295	-1.4430	-0.0043	-0.0064	0.0086	15.0284	3.0733	12.6351	0.6493	0.1271	0.7431	-0.0994
0.24	-9.6689	0.2139	-1.4533	-0.0086	-0.0013	0.0047	15.1220	3.0371	12.4303	0.6493	0.1271	0.7432	-0.0994
0.25	-9.6772	0.1985	-1.4678	-0.0076	-0.0035	0.0079	14.9644	2.9523	12.3097	0.6493	0.1271	0.7432	-0.0994
0.26	-9.6796	0.1699	-1.4823	-0.0031	-0.0037	0.0049	14.8975	2.9905	12.6088	0.6492	0.1271	0.7433	-0.0994
0.27	-9.6724	0.1505	-1.4759	-0.0096	-0.0061	0.0062	14.8897	2.9488	12.6662	0.6492	0.1270	0.7433	-0.0994
0.28	-9.6704	0.1253	-1.4637	-0.0024	-0.0056	0.0066	14.9632	3.1393	12.7145	0.6492	0.1270	0.7433	-0.0994
0.29	-9.6676	0.1122	-1.4570	-0.0051	-0.0020	0.0044	15.1176	3.0815	12.5553	0.6492	0.1270	0.7434	-0.0994
0.3	-9.6637	0.0984	-1.4488	-0.0041	-0.0066	0.0066	14.9816	3.0543	12.4578	0.6491	0.1270	0.7433	-0.0994
0.31	-9.6669	0.0851	-1.4351	-0.0010	-0.0100	0.0095	14.9667	3.0441	12.7572	0.6492	0.1270	0.7434	-0.0994
0.32	-9.6657	0.0799	-1.4162	0.0007	-0.0145	0.0062	14.9069	3.0953	12.5830	0.6492	0.1270	0.7433	-0.0994
0.33	-9.6725	0.0616	-1.4042	0.0044	-0.0122	0.0103	15.0896	2.9021	12.6402	0.6492	0.1270	0.7433	-0.0994
0.34	-9.6721	0.0681	-1.3722	0.0018	-0.0106	0.0092	15.0589	2.9799	12.3560	0.6492	0.1270	0.7433	-0.0994
0.35	-9.6698	0.0710	-1.3582	0.0023	-0.0085	0.0069	15.1932	2.9654	12.6450	0.6492	0.1270	0.7433	-0.0994
0.36	-9.6752	0.0584	-1.3387	0.0004	-0.0117	0.0085	14.8982	3.0367	12.5826	0.6492	0.1270	0.7433	-0.0994
0.37	-9.6673	0.0657	-1.3240	0.0031	-0.0190	0.0077	14.9884	3.0003	12.4597	0.6492	0.1270	0.7432	-0.0994
0.38	-9.6573	0.0832	-1.3105	0.0028	-0.0137	0.0087	15.1596	2.9530	12.6326	0.6493	0.1271	0.7433	-0.0995
0.39	-9.6611	0.0902	-1.2937	0.0014	-0.0184	0.0090	14.9148	3.1475	12.5766	0.6493	0.1271	0.7432	-0.0995
0.4	-9.6539	0.1057	-1.2909	0.0016	-0.0193	0.0121	15.0825	3.0893	12.5807	0.6494	0.1271	0.7432	-0.0995
0.41	-9.6415	0.1243	-1.2738	-0.0002	-0.0123	0.0127	15.0598	2.8813	12.7001	0.6493	0.1271	0.7431	-0.0995
0.42	-9.6471	0.1411	-1.2693	-0.0034	-0.0121	0.0060	15.0611	3.0998	12.7617	0.6494	0.1271	0.7432	-0.0995
0.43	-9.6476	0.1641	-1.2553	0.0059	-0.0087	0.0046	14.9221	3.0363	12.6542	0.6493	0.1271	0.7432	-0.0995
0.44	-9.6531	0.1829	-1.2616	0.0034	-0.0054	0.0058	15.1398	3.0841	12.9830	0.6493	0.1271	0.7431	-0.0995
0.45	-9.6473	0.2037	-1.2432	0.0028	-0.0048	0.0128	15.3108	2.8600	12.9204	0.6494	0.1272	0.7432	-0.0995
0.46	-9.6511	0.2239	-1.2661	0.0027	-0.0056	0.0061	15.1017	3.1952	12.6558	0.6493	0.1272	0.7432	-0.0996
0.47	-9.6573	0.2380	-1.2654	0.0001	-0.0045	0.0083	14.9569	3.0707	12.6672	0.6493	0.1272	0.7433	-0.0996
0.48	-9.6533	0.2493	-1.2685	-0.0039	-0.0040	0.0063	14.8843	3.1839	12.7068	0.6492	0.1271	0.7432	-0.0996
0.49	-9.6506	0.2576	-1.2708	-0.0045	-0.0063	0.0064	14.9220	3.2450	12.5520	0.6492	0.1271	0.7433	-0.0996
0.5	-9.6575	0.2557	-1.2796	-0.0023	-0.0022	0.0069	14.6586	3.1354	12.5189	0.6492	0.1271	0.7433	-0.0996
0.51	-9.6612	0.2534	-1.2933	-0.0034	-0.0055	0.0099	15.0128	2.9190	12.4446	0.6492	0.1271	0.7433	-0.0995
0.52	-9.6503	0.2539	-1.3212	0.0023	-0.0071	0.0059	15.0842	2.9483	12.5269	0.6492	0.1271	0.7433	-0.0996
0.53	-9.6507	0.2449	-1.3473	-0.0002	-0.0023	0.0046	15.1113	3.1110	12.6571	0.6491	0.1271	0.7433	-0.0996
0.54	-9.6621	0.2440	-1.3773	-0.0034	-0.0043	0.0122	15.1857	2.9532	12.5376	0.6492	0.1271	0.7434	-0.0996
0.55	-9.6627	0.2343	-1.3797	-0.0003	-0.0058	0.0055	15.1621	3.1268	12.5188	0.6491	0.1271	0.7433	-0.0995
0.56	-9.6596	0.2302	-1.3948	0.0002	-0.0057	0.0009	15.0637	2.9705	12.5291	0.6491	0.1271	0.7434	-0.0996
0.57	-9.6511	0.2144	-1.3911	-0.0056	-0.0082	0.0063	14.9851	2.8989	12.3598	0.6491	0.1271	0.7434	-0.0996
0.58	-9.6561	0.1983	-1.3833	-0.0024	-0.0071	0.0073	15.0313	3.0010	12.3865	0.6491	0.1271	0.7434	-0.0996
0.59	-9.6578	0.1791	-1.3716	-0.0087	-0.0068	0.0081	14.9804	3.0212	12.6528	0.6491	0.1271	0.7434	-0.0996
0.6	-9.6611	0.1545	-1.3476	-0.0067	-0.0096	0.0102	14.9198	2.7543	12.8181	0.6491	0.1271	0.7434	-0.0995
0.61	-9.6483	0.1527	-1.3342	-0.0060	-0.0072	-0.0005	14.8919	2.9971	12.3849	0.6491	0.1270	0.7434	-0.0995
0.62	-9.6421	0.1518	-1.2962	-0.0080	-0.0028	0.0007	14.7460	3.2921	12.6092	0.6490	0.1270	0.7434	-0.0995
0.63	-9.6531	0.1622	-1.2767	-0.0001	-0.0082	0.0059	14.8543	3.0317	12.6852	0.6491	0.1270	0.7435	-0.0996
0.64	-9.6589	0.1775	-1.2725	-0.0016	-0.0018	0.0017	14.7179	3.1414	12.4485	0.6490	0.1269	0.7435	-0.0996
0.65	-9.6759	0.1718	-1.2907	-0.0006	-0.0001	0.0028	14.8473	3.1805	12.6017	0.6490	0.1269	0.7436	-0.0996
0.66	-9.6527	0.1331	-1.3005	-0.0045	-0.0031	0.0038	14.8309	3.1608	12.6191	0.6489	0.1269	0.7435	-0.0996
0.67	-9.6583	0.0858	-1.3373	-0.0034	-0.0046	0.0041	14.9716	3.1825	12.5667	0.6490	0.1269	0.7435	-0.0996
0.68	-9.6815	0.0292	-1.3844	-0.0043	-0.0077	0.0058	14.9894	3.3207	12.7025	0.6489	0.1269	0.7435	-0.0996
0.69	-9.6767	-0.0032	-1.4106	-0.0039	-0.0047	0.0074	14.7952	3.0262	12.5369	0.6489	0.1269	0.7435	-0.0996
0.7	-9.6841	-0.0100	-1.4414	0.0008	-0.0035	0.0126	15.0739	2.8023	12.4297	0.6490	0.1269	0.7436	-0.0996
0.71	-9.6733	0.0022	-1.4615	0.0021	-0.0049	0.0078	15.1800	2.7468	12.7110	0.6489	0.1269	0.7436	-0.0996
0.72	-9.6727	0.0226	-1.4800	0.0009	-0.0076	0.0090	15.1701	2.8202	12.7224	0.6489	0.1269	0.7436	-0.0996
0.73	-9.6817	0.0468	-1.5024	0.0044	-0.0065	0.0090	15.0802	2.8666	12.6079	0.6488	0.1269	0.7435	-0.0996
0.74	-9.6625	0.0746	-1.5002	0.0026	-0.0035	0.0039	14.9954	2.9165	12.5190	0.6489	0.1269	0.7436	-0.0996
0.75	-9.6571	0.0956	-1.4819	0.0006	-0.0102	0.0081	14.9886	2.9717	12.5055	0.6488	0.1269	0.7436	-0.0996
0.76	-9.7103	0.1130	-1.5082	0.0024	-0.0150	0.0079	14.8193	3.0280	12.6083	0.6489	0.1269	0.7436	-0.0996
0.77	-9.6982	0.1273	-1.5065	0.0024	-0.0153	0.0075	14.9402	2.9050	12.6044	0.6489	0.1269	0.7436	-0.0997
0.78	-9.6541	0.1293	-1.4550	0.0101	-0.0162	0.0078	15.0464	2.9326	12.2580	0.6489	0.1270	0.7435	-0.0997
0.79	-9.6862	0.1374	-1.4696	0.0149	-0.0161	0.0095	14.9401	2.9428	12.6864	0.6489	0.1270	0.7435	-0.0998
0.8	-9.6754	0.1581	-1.4556	0.0130	-0.0118	0.0045	14.8522	3.1983	12.6951	0.6489	0.1270	0.7434	-0.0998
0.81	-9.6710	0.1585	-1.4350	0.0095	-0.0134	0.0070	14.7071	3.1385	12.6889	0.6490	0.1271	0.7435	-0.0999
0.82	-9.6512	0.1701	-1.4074	0.0089	-0.0199	0.0108	14.8655	3.2306	12.5171	0.6490	0.1271	0.7434	-0.0999
0.83	-9.6652	0.1909	-1.4032	0.0072	-0.0222	0.0055	14.9496	3.2099	12.5708	0.6490	0.1271	0.7434	-0.1000
0.84	-9.6602	0.2167	-1.3716	0.0082	-0.0209	0.0068	14.8367	3.1281	12.7212	0.6490	0.1272	0.7433	-0.1000
0.85	-9.6412	0.2492	-1.3244	0.0060	-0.0140	0.0037	14.8087	3.3403	12.5339	0.6491	0.1272	0.7433	-0.1001
0.86	-9.6536	0.2679	-1.3075	0.0027	-0.0190	0.0102	14.7832	3.0671	12.5118	0.6491	0.1272	0.7433	-0.1001
0.87	-9.6519	0.2911	-1.2703	0.0057	-0.0220	0.0053	14.9516	2.9075	12.5210	0.6491	0.1272	0.7432	-0.1001
0.88	-9.6420	0.2898	-1.2302	0.0033	-0.0261	0.0083	14.8167	3.0076	12.6266	0.6492	0.1272	0.7432	-0.1002
0.89	-9.6454	0.2831	-1.2168	0.0020	-0.0243	0.0082	15.2770	2.7665	12.4573	0.6492	0.1272	0.7431	-0.1002
0.9	-9.6571	0.2825	-1.2002	0.0002	-0.0151	0.0004	15.1285	2.7484	12.4618	0.6493	0.1272	0.7432	-0.1002
0.91	-9.6164	0.1958	-1.2130	0.0001	-0.0114	0.0050	14.9894	2.8613	12.3318	0.6492	0.1272	0.7431	-0.1002
0.92	-9.6905	0.1731	-1.2499	0.0074	-0.0143	0.0031	15.0156	2.9198	12.5003	0.6493	0.1272	0.7431	-0.1003
0.93	-9.6564	0.1626	-1.2191	0.0100	-0.0173	0.0082	15.0111	2.9981	12.6914	0.6493	0.1272	0.7431	-0.1003
0.94	-9.6384	0.1703	-1.1722	0.0099	-0.0125	0.0059	15.2451	3.2260	12.7603	0.6493	0.1272	0.7430	-0.1004
0.95	-9.6467	0.1940	-1.1734	0.0083	-0.0120	0.0066	15.3251	3.0499	12.9193	0.6493	0.1273	0.7431	-0.1004
0.96	-9.6550	0.1762	-1.1844	0.0014	-0.0096	0.0010	15.0616	3.1000	12.6784	0.6493	0.1272	0.7431	-0.1005
0.97	-9.6567	0.1813	-1.1892	-0.0004	-0.0142	0.0090	15.0234	3.1562	12.3645	0.6493	0.1273	0.7431	-0.1005
0.98	-9.6332	0.1583	-1.1851	0.0012	-0.0067	0.0049	14.8671	3.0749	12.5023	0.6492	0.1272	0.7430	-0.1005
0.99	-9.6369	0.1511	-1.2024	-0.0042	-0.0059	0.0049	14.9197	3.0264	12.6242	0.6493	0.1272	0.7431	-0.1005
1	-9.6507	0.1280	-1.2279	-0.0078	-0.0035	0.0040	15.0424	2.8518	12.7168	0.6493	0.1272	0.7431	-0.1005
1.01	-9.6362	0.0982	-1.2177	-0.0090	-0.0030	0.0027	15.0826	3.2560	12.5959	0.6492	0.1272	0.7431	-0.1004
1.02	-9.6598	0.0733	-1.2403	0.0000	-0.0035	0.0019	14.9633	3.2171	12.4841	0.6492	0.1271	0.7432	-0.1005
1.03	-9.6580	0.0731	-1.2476	0.0021	-0.0044	0.0091	15.0088	3.1312	12.5076	0.6492	0.1272	0.7432	-0.1005
1.04	-9.6562	0.0692	-1.2549	0.0005	-0.0032	0.0056	14.9337	2.9453	12.4930	0.6492	0.1272	0.7432	-0.1005
1.05	-9.6588	0.0850	-1.2727	-0.0035	-0.0016	0.0062	14.8242	2.7943	12.5911	0.6491	0.1271	0.7431	-0.1005
1.06	-9.6578	0.0797	-1.2872	-0.0039	-0.0086	0.0074	14.8091	2.9191	12.5018	0.6492	0.1272	0.7432	-0.1005
1.07	-9.6718	0.0790	-1.3021	-0.0094	-0.0090	0.0129	15.0250	3.2073	12.4658	0.6491	0.1271	0.7432	-0.1004
1.08	-9.6549	0.0718	-1.3178	-0.0054	-0.0019	0.0084	15.0788	3.1834	12.3691	0.6491	0.1271	0.7433	-0.1004
1.09	-9.6687	0.0819	-1.3579	-0.0118	-0.0019	0.0088	15.0703	3.1367	12.5470	0.6491	0.1271	0.7432	-0.1004
1.1	-9.6747	0.1000	-1.3970	-0.0147	-0.0055	0.0097	15.2633	2.9240	12.4533	0.6491	0.1271	0.7433	-0.1003
1.11	-9.6747	0.1012	-1.4054	-0.0044	-0.0025	0.0095	15.0503	2.9303	12.4531	0.6491	0.1271	0.7433	-0.1003
1.12	-9.6615	0.1228	-1.4257	-0.0036	0.0037	0.0115	15.0763	3.0869	12.6092	0.6490	0.1271	0.7433	-0.1002
1.13	-9.6603	0.1289	-1.4164	-0.0048	-0.0047	0.0109	15.0566	3.1494	12.4881	0.6491	0.1271	0.7434	-0.1002
1.14	-9.6747	0.1205	-1.4122	-0.0038	-0.0074	0.0100	14.8053	3.0216	12.4900	0.6490	0.1271	0.7434	-0.1002
1.15	-9.6921	0.1413	-1.4429	-0.0010	-0.0017	0.0091	14.9232	3.1441	12.5664	0.6490	0.1271	0.7434	-0.1002
1.16	-9.6630	0.1671	-1.4400	0.0013	-0.0095	0.0090	15.1996	3.1562	12.6009	0.6490	0.1271	0.7433	-0.1002
1.17	-9.6479	0.1753	-1.4291	-0.0001	-0.0089	0.0127	14.8645	3.1436	12.6992	0.6490	0.1271	0.7434	-0.1002
1.18	-9.6852	0.1991	-1.4520	0.0018	-0.0043	0.0105	15.0247	2.9860	12.6297	0.6490	0.1272	0.7434	-0.1002
1.19	-9.6811	0.2153	-1.4517	0.0000	-0.0030	0.0084	15.0120	3.3263	12.5410	0.6489	0.1272	0.7434	-0.1002
1.2	-9.6666	0.2308	-1.4416	-0.0020	-0.0044	0.0091	15.0416	3.3020	12.8183	0.6490	0.1272	0.7435	-0.1002
1.21	-9.6572	0.2356	-1.4221	-0.0033	-0.0017	0.0057	15.0855	3.0848	12.7011	0.6489	0.1272	0.7434	-0.1002
1.22	-9.6694	0.2423	-1.4183	-0.0031	-0.0034	0.0096	15.0043	3.0342	12.6894	0.6489	0.1272	0.7435	-0.1002
1.23	-9.6649	0.2357	-1.4252	-0.0023	-0.0080	0.0080	14.8914	3.1863	12.5775	0.6488	0.1272	0.7434	-0.1002
1.24	-9.6504	0.2350	-1.4117	-0.0049	-0.0098	0.0067	15.0110	3.0794	12.4943	0.6489	0.1272	0.7435	-0.1002
1.25	-9.6592	0.2283	-1.3932	-0.0081	-0.0130	0.0126	14.9616	3.1660	12.6435	0.6489	0.1271	0.7434	-0.1001
1.26	-9.6713	0.2149	-1.3945	-0.0050	-0.0191	0.0131	15.0486	3.2009	12.4819	0.6489	0.1271	0.7434	-0.1001
1.27	-9.6550	0.1950	-1.3626	-0.0036	-0.0164	0.0146	15.1741	3.0438	12.5225	0.6490	0.1272	0.7434	-0.1001
1.28	-9.6573	0.1862	-1.3345	0.0012	-0.0181	0.0087	14.9928	3.0564	12.6097	0.6490	0.1272	0.7433	-0.1001
1.29	-9.6764	0.1878	-1.3314	-0.0024	-0.0180	0.0070	15.2154	2.9529	12.5794	0.6491	0.1272	0.7434	-0.1001
1.3	-9.6716	0.1904	-1.3102	0.0009	-0.0175	0.0100	15.1545	3.0074	12.6954	0.6490	0.1272	0.7432	-0.1001
1.31	-9.6583	0.2036	-1.3019	-0.0005	-0.0163	0.0100	15.0489	3.0681	12.3590	0.6491	0.1272	0.7433	-0.1001
1.32	-9.6466	0.2055	-1.2939	-0.0023	-0.0155	0.0100	15.0719	3.0714	12.4616	0.6491	0.1272	0.7432	-0.1001
1.33	-9.6532	0.1959	-1.2763	0.0030	-0.0171	0.0092	15.0853	2.8034	12.6009	0.6492	0.1272	0.7432	-0.1001
1.34	-9.6461	0.1788	-1.2527	-0.0069	-0.0164	0.0091	14.8764	2.9133	12.5925	0.6492	0.1272	0.7432	-0.1001
1.35	-9.6431	0.1581	-1.2510	-0.0043	-0.0094	0.0118	15.0536	3.1126	12.4728	0.6492	0.1272	0.7432	-0.1000
1.36	-9.6481	0.1353	-1.2650	-0.0040	-0.0089	0.0094	15.0243	3.0410	12.5264	0.6492	0.1272	0.7432	-0.1000
1.37	-9.6517	0.1342	-1.2583	-0.0113	-0.0105	0.0081	14.9631	3.0886	12.4757	0.6492	0.1271	0.7431	-0.1000
1.38	-9.6500	0.1099	-1.2656	-0.0116	-0.0085	0.0036	15.0040	3.0420	12.5401	0.6493	0.1271	0.7432	-0.1000
1.39	-9.6561	0.1073	-1.2734	-0.0081	-0.0067	0.0059	14.9637	2.9654	12.5836	0.6492	0.1271	0.7432	-0.0999
1.4	-9.6545	0.1159	-1.2641	-0.0068	-0.0041	0.0053	15.0402	3.0278	12.6678	0.6493	0.1271	0.7433	-0.0999
1.41	-9.6420	0.1071	-1.2646	-0.0093	-0.0042	0.0074	15.1562	3.1954	12.6777	0.6492	0.1270	0.7432	-0.0999
1.42	-9.6386	0.1127	-1.2678	-0.0058	-0.0081	0.0058	15.1315	3.1935	12.5779	0.6492	0.1270	0.7433	-0.0999
1.43	-9.6561	0.1078	-1.2698	-0.0142	-0.0125	0.0059	15.1727	3.0342	12.7630	0.6492	0.1270	0.7432	-0.0998
1.44	-9.6504	0.1179	-1.2747	-0.0006	-0.0100	0.0094	15.3130	3.3707	12.7770	0.6492	0.1270	0.7432	-0.0998
1.45	-9.6525	0.1217	-1.2918	-0.0037	-0.0074	0.0067	15.2850	3.1920	12.7396	0.6493	0.1270	0.7433	-0.0998
1.46	-9.6629	0.1410	-1.3030	-0.0039	-0.0043	0.0056	15.3525	3.0355	12.7498	0.6492	0.1269	0.7432	-0.0998
1.47	-9.6602	0.1633	-1.3215	-0.0086	-0.0057	0.0083	15.2788	2.9791	12.6578	0.6493	0.1269	0.7433	-0.0998
1.48	-9.6476	0.1551	-1.3146	-0.0071	-0.0072	0.0089	15.0856	2.8704	12.4163	0.6492	0.1269	0.7432	-0.0997
1.49	-9.6665	0.1371	-1.3341	-0.0127	-0.0059	0.0098	15.1863	2.8677	12.5559	0.6492	0.1269	0.7433	-0.0997
1.5	-9.6602	0.1316	-1.3488	-0.0073	-0.0064	0.0101	15.0943	2.9164	12.5309	0.6492	0.1269	0.7433	-0.0997
1.51	-9.6624	0.1205	-1.3497	-0.0044	-0.0012	0.0077	15.2810	2.9994	12.4686	0.6492	0.1269	0.7433	-0.0996
1.52	-9.6785	0.1149	-1.3790	-0.0094	-0.0039	0.0089	14.9146	2.8320	12.3239	0.6492	0.1268	0.7434	-0.0996
1.53	-9.6706	0.1188	-1.3860	-0.0037	-0.0059	0.0134	14.8580	2.9253	12.5049	0.6492	0.1269	0.7433	-0.0996
1.54	-9.6676	0.1323	-1.4156	-0.0040	-0.0069	0.0103	15.0498	3.1503	12.5178	0.6492	0.1269	0.7434	-0.0996
1.55	-9.6607	0.1639	-1.4155	-0.0013	-0.0033	0.0053	14.8796	3.0234	12.5922	0.6491	0.1269	0.7433	-0.0995
1.56	-9.6679	0.1711	-1.4151	-0.0096	-0.0064	0.0038	14.8077	3.1395	12.6319	0.6492	0.1268	0.7434	-0.0995
1.57	-9.6696	0.1705	-1.4207	-0.0052	-0.0016	0.0041	14.8545	3.2517	12.5410	0.6491	0.1268	0.7434	-0.0995
1.58	-9.6537	0.1661	-1.3971	0.0014	-0.0034	0.0080	14.9500	3.3221	12.5029	0.6491	0.1268	0.7434	-0.0995
1.59	-9.6692	0.1644	-1.4024	-0.0012	-0.0054	0.0059	14.7012	3.0852	12.5960	0.6491	0.1268	0.7434	-0.0995
1.6	-9.6662	0.1758	-1.3961	0.0002	-0.0016	0.0053	14.7808	3.0182	12.5239	0.6491	0.1268	0.7435	-0.0995
1.61	-9.6570	0.1922	-1.3700	-0.0031	-0.0096	0.0086	14.8418	3.0667	12.6485	0.6491	0.1268	0.7435	-0.0995
1.62	-9.6630	0.1923	-1.3687	-0.0011	-0.0122	0.0081	14.7986	3.2320	12.5086	0.6490	0.1268	0.7434	-0.0995
1.63	-9.6679	0.1979	-1.3529	0.0035	-0.0090	0.0058	14.9439	3.1622	12.5031	0.6491	0.1268	0.7435	-0.0996
1.64	-9.6619	0.2086	-1.3378	-0.0003	-0.0036	0.0116	14.9898	2.8611	12.5732	0.6491	0.1269	0.7434	-0.0995
1.65	-9.6550	0.2030	-1.3228	-0.0061	-0.0082	0.0070	14.9889	2.8737	12.6368	0.6491	0.1269	0.7435	-0.0995
1.66	-9.6582	0.1913	-1.3123	0.0014	-0.0103	0.0043	14.9660	2.8808	12.5298	0.6490	0.1268	0.7434	-0.0995
1.67	-9.6472	0.1840	-1.3077	-0.0034	-0.0073	0.0119	15.1317	2.9612	12.4920	0.6491	0.1269	0.7435	-0.0995
1.68	-9.6468	0.1649	-1.2957	-0.0003	-0.0079	0.0102	15.1032	2.8271	12.4583	0.6491	0.1269	0.7434	-0.0995
1.69	-9.6460	0.1486	-1.2841	0.0005	-0.0037	0.0093	15.0488	2.9774	12.6415	0.6490	0.1269	0.7434	-0.0995
1.7	-9.6608	0.1417	-1.2815	-0.0063	-0.0079	0.0076	15.0674	2.8539	12.5072	0.6491	0.1269	0.7435	-0.0995
1.71	-9.6527	0.1294	-1.2722	-0.0022	-0.0104	0.0098	14.9570	2.8900	12.5390	0.6490	0.1269	0.7434	-0.0995
1.72	-9.6597	0.1188	-1.2743	-0.0005	-0.0117	0.0077	15.0025	2.8420	12.4921	0.6491	0.1269	0.7435	-0.0995
1.73	-9.6753	0.1171	-1.2880	-0.0018	-0.0067	0.0063	14.9890	3.0461	12.2917	0.6490	0.1269	0.7434	-0.0995
1.74	-9.6597	0.1330	-1.2985	0.0000	-0.0014	0.0002	14.7772	3.1423	12.5318	0.6491	0.1269	0.7435	-0.0995
1.75	-9.6503	0.1323	-1.3127	-0.0035	-0.0050	0.0042	14.7246	3.2405	12.5610	0.6490	0.1269	0.7435	-0.0995
1.76	-9.6570	0.1385	-1.3350	-0.0037	-0.0049	0.0068	14.7611	3.0903	12.5104	0.6490	0.1268	0.7435	-0.0995
1.77	-9.6580	0.1463	-1.3553	-0.0083	-0.0073	0.0010	14.7198	3.2387	12.4827	0.6490	0.1268	0.7435	-0.0995
1.78	-9.6566	0.1477	-1.3767	-0.0111	-0.0049	0.0025	14.7865	3.1271	12.5995	0.6490	0.1268	0.7435	-0.0995
1.79	-9.6515	0.1480	-1.3755	-0.0062	-0.0063	0.0004	14.8275	3.2079	12.4670	0.6490	0.1267	0.7436	-0.0995
1.8	-9.6691	0.1536	-1.3893	-0.0066	-0.0037	0.0061	14.8377	3.4072	12.4938	0.6489	0.1267	0.7435	-0.0995
1.81	-9.6741	0.1522	-1.3938	-0.0020	-0.0090	0.0059	14.7849	3.1430	12.4965	0.6490	0.1267	0.7436	-0.0995
1.82	-9.6470	0.1375	-1.3763	-0.0086	-0.0102	0.0058	14.7861	3.0853	12.4470	0.6490	0.1267	0.7436	-0.0994
1.83	-9.6892	0.1465	-1.4103	-0.0037	-0.0112	0.0096	15.0734	2.9601	12.5545	0.6490	0.1267	0.7436	-0.0994
1.84	-9.6899	0.1534	-1.4230	-0.0039	-0.0085	0.0087	15.0770	2.9400	12.5273	0.6490	0.1267	0.7435	-0.0994
1.85	-9.6607	0.1572	-1.4119	-0.0028	-0.0064	0.0079	15.1421	3.1167	12.3694	0.6490	0.1267	0.7436	-0.0994
1.86	-9.6671	0.1567	-1.4152	-0.0046	-0.0092	0.0050	15.0370	3.0675	12.3987	0.6490	0.1267	0.7436	-0.0994
1.87	-9.6734	0.1576	-1.4333	-0.0044	-0.0130	0.0082	15.0902	3.0368	12.4457	0.6490	0.1266	0.7435	-0.0994
1.88	-9.6567	0.1607	-1.4038	-0.0051	-0.0156	0.0108	14.9559	3.0224	12.4496	0.6491	0.1266	0.7436	-0.0994
1.89	-9.6706	0.1544	-1.3983	0.0054	-0.0051	0.0076	15.0251	3.0942	12.3764	0.6490	0.1267	0.7435	-0.0994
1.9	-9.6791	0.1624	-1.3919	0.0020	-0.0135	0.0063	15.1178	3.0880	12.4000	0.6491	0.1267	0.7436	-0.0994
1.91	-9.6726	0.1497	-1.3654	0.0026	-0.0108	0.0120	14.8656	2.9206	12.4525	0.6490	0.1267	0.7435	-0.0994
1.92	-9.6687	0.1495	-1.3504	0.0029	-0.0108	0.0014	14.9513	3.1969	12.5418	0.6491	0.1267	0.7435	-0.0994
1.93	-9.6629	0.1502	-1.3506	0.0001	-0.0127	0.0046	14.9621	3.1988	12.6594	0.6491	0.1267	0.7435	-0.0995
1.94	-9.6553	0.1512	-1.3452	-0.0026	-0.0057	0.0002	15.1089	3.2150	12.7950	0.6490	0.1267	0.7434	-0.0995
1.95	-9.6612	0.1543	-1.3443	0.0010	-0.0140	0.0072	15.3370	3.1138	12.6786	0.6491	0.1267	0.7435	-0.0995
1.96	-9.6561	0.1635	-1.3378	0.0024	-0.0135	0.0045	15.2109	3.0896	12.7519	0.6491	0.1267	0.7434	-0.0995
1.97	-9.6577	0.1649	-1.3314	0.0021	-0.0082	0.0058	15.1610	3.2250	12.5870	0.6491	0.1267	0.7435	-0.0995
1.98	-9.6620	0.1588	-1.3196	0.0028	-0.0082	0.0079	15.0409	3.1345	12.5552	0.6490	0.1267	0.7434	-0.0995
1.99	-9.6600	0.1564	-1.3238	0.0022	-0.0077	0.0108	14.9568	2.9153	12.6069	0.6491	0.1267	0.7435	-0.0995
2	-9.6725	0.1592	-1.3300	0.0007	-0.0160	0.0096	14.8993	3.0222	12.5529	0.6491	0.1267	0.7434	-0.0995
2.01	-9.6699	0.1620	-1.3365	0.0008	-0.0136	0.0145	14.9010	3.0725	12.6183	0.6491	0.1267	0.7434	-0.0995
2.02	-9.6505	0.1625	-1.3135	0.0019	-0.0135	0.0147	14.9270	2.9354	12.4395	0.6492	0.1268	0.7434	-0.0995
2.03	-9.6533	0.1540	-1.3044	0.0023	-0.0149	0.0134	15.1182	2.8870	12.3351	0.6492	0.1268	0.7434	-0.0995
2.04	-9.6545	0.1559	-1.3024	0.0002	-0.0131	0.0115	15.0443	3.0577	12.6364	0.6492	0.1268	0.7434	-0.0995
2.05	-9.6454	0.1619	-1.2826	0.0013	-0.0154	0.0076	15.0914	3.0393	12.4675	0.6492	0.1268	0.7433	-0.0995
2.06	-9.6518	0.1512	-1.2717	0.0053	-0.0069	0.0088	14.9521	3.1637	12.5114	0.6492	0.1269	0.7433	-0.0996
2.07	-9.6636	0.1691	-1.2673	-0.0043	-0.0111	0.0085	15.0332	2.9368	12.4631	0.6492	0.1269	0.7433	-0.0995
2.08	-9.6513	0.1689	-1.2467	-0.0024	-0.0098	0.0096	14.8856	3.1061	12.5895	0.6492	0.1269	0.7433	-0.0995
2.09	-9.6669	0.1722	-1.2495	-0.0010	-0.0118	0.0106	15.0196	3.1533	12.4703	0.6492	0.1269	0.7433	-0.0995
2.1	-9.6672	0.1729	-1.3001	-0.0050	-0.0143	0.0105	15.0508	2.8852	12.5321	0.6493	0.1269	0.7433	-0.0995
2.11	-9.6451	0.1796	-1.3075	-0.0109	-0.0074	0.0086	14.9902	3.0777	12.5987	0.6493	0.1269	0.7433	-0.0995
2.12	-9.6395	0.1757	-1.3201	-0.0053	-0.0029	0.0032	15.2000	2.9502	12.5866	0.6492	0.1268	0.7433	-0.0995
2.13	-9.6561	0.1557	-1.3295	-0.0097	-0.0070	0.0055	14.9195	2.9993	12.4697	0.6493	0.1268	0.7434	-0.0994
2.14	-9.6700	0.1412	-1.3568	-0.0110	-0.0027	0.0073	14.9413	3.0319	12.6818	0.6492	0.1268	0.7433	-0.0994
2.15	-9.6562	0.1338	-1.3514	-0.0083	-0.0054	0.0053	15.0114	3.1419	12.5471	0.6493	0.1268	0.7434	-0.0994
2.16	-9.6591	0.1234	-1.3573	-0.0013	-0.0048	0.0025	14.9754	3.0240	12.3632	0.6492	0.1267	0.7433	-0.0994
2.17	-9.6742	0.1140	-1.3786	0.0039	-0.0047	0.0077	15.0129	2.9980	12.5602	0.6492	0.1267	0.7434	-0.0994
2.18	-9.6640	0.1108	-1.3796	-0.0021	-0.0046	0.0074	15.1025	3.1877	12.5820	0.6492	0.1268	0.7434	-0.0994
2.19	-9.6682	0.1229	-1.3908	0.0003	-0.0062	0.0087	14.9806	3.0643	12.5729	0.6491	0.1268	0.7434	-0.0994
2.2	-9.6705	0.1222	-1.3950	0.0036	-0.0140	0.0097	14.9898	2.8222	12.6858	0.6492	0.1268	0.7435	-0.0994
2.21	-9.6747	0.1356	-1.4112	-0.0035	-0.0074	0.0081	15.1128	2.9935	12.6758	0.6492	0.1268	0.7434	-0.0994
2.22	-9.6643	0.1442	-1.4119	0.0009	-0.0054	0.0079	15.1804	3.0129	12.6338	0.6492	0.1268	0.7434	-0.0994
2.23	-9.6649	0.1457	-1.4269	0.0028	-0.0072	0.0098	15.0396	2.9525	12.4588	0.6491	0.1268	0.7434	-0.0994
2.24	-9.6675	0.1389	-1.4272	-0.0001	-0.0124	0.0069	15.2164	3.0633	12.5413	0.6492	0.1268	0.7434	-0.0994
2.25	-9.6719	0.1421	-1.4144	0.0042	-0.0088	0.0092	15.1670	2.9349	12.5872	0.6491	0.1268	0.7434	-0.0994
2.26	-9.6637	0.1449	-1.3966	-0.0021	-0.0154	0.0066	14.9488	2.9814	12.6016	0.6492	0.1268	0.7434	-0.0994
2.27	-9.6642	0.1652	-1.3815	-0.0006	-0.0092	0.0071	15.0218	2.9638	12.5412	0.6492	0.1268	0.7434	-0.0994
2.28	-9.6634	0.1708	-1.3563	0.0027	-0.0104	0.0120	14.9410	2.9508	12.5498	0.6492	0.1269	0.7434	-0.0994
2.29	-9.6741	0.1904	-1.3349	0.0022	-0.0157	0.0076	14.9212	2.8270	12.7186	0.6492	0.1269	0.7434	-0.0995
2.3	-9.6535	0.2044	-1.3202	0.0056	-0.0119	0.0051	15.1252	3.0585	12.6564	0.6492	0.1269	0.7433	-0.0995
2.31	-9.6542	0.1994	-1.3001	0.0003	-0.0115	0.0048	14.7053	3.2448	12.5451	0.6492	0.1269	0.7433	-0.0995
2.32	-9.6534	0.2039	-1.2840	-0.0003	-0.0093	0.0102	15.0121	3.1868	12.6302	0.6492	0.1269	0.7433	-0.0995
2.33	-9.6500	0.2045	-1.2897	0.0016	-0.0070	0.0037	15.0162	3.2524	12.6635	0.6492	0.1269	0.7433	-0.0995
2.34	-9.6570	0.1895	-1.2829	0.0052	-0.0052	0.0057	14.9729	3.0803	12.7665	0.6492	0.1269	0.7433	-0.0996
2.35	-9.6575	0.1834	-1.2880	0.0022	-0.0050	0.0046	15.1863	3.2150	12.7238	0.6492	0.1269	0.7433	-0.0996
2.36	-9.6622	0.1836	-1.2882	0.0029	-0.0082	0.0109	14.9663	3.1092	12.4493	0.6492	0.1269	0.7434	-0.0996
2.37	-9.6558	0.1838	-1.2899	0.0002	-0.0069	0.0081	15.0059	3.0177	12.5973	0.6491	0.1269	0.7433	-0.0996
2.38	-9.6538	0.1730	-1.2919	-0.0007	-0.0110	0.0108	14.9656	3.1543	12.5649	0.6492	0.1270	0.7434	-0.0996
2.39	-9.6515	0.1695	-1.3027	-0.0002	-0.0125	0.0131	15.3103	3.0005	12.3099	0.6492	0.1270	0.7433	-0.0996
2.4	-9.6546	0.1598	-1.3016	0.0020	-0.0083	0.0019	15.2489	2.8997	12.3978	0.6492	0.1270	0.7434	-0.0996
2.41	-9.6509	0.1462	-1.3016	0.0025	-0.0090	0.0099	15.2433	2.8964	12.4289	0.6491	0.1270	0.7433	-0.0996
2.42	-9.6649	0.1510	-1.3091	-0.0009	-0.0116	0.0108	15.0863	2.7494	12.5145	0.6492	0.1270	0.7433	-0.0996
2.43	-9.6502	0.1550	-1.3060	-0.0050	-0.0072	0.0059	15.1416	2.9365	12.5122	0.6492	0.1270	0.7433	-0.0996
2.44	-9.6551	0.1520	-1.3101	-0.0002	-0.0049	0.0035	15.3346	3.2519	12.7676	0.6491	0.1270	0.7433	-0.0996
2.45	-9.6612	0.1583	-1.2902	-0.0012	-0.0109	0.0109	15.2868	3.2105	12.7556	0.6492	0.1270	0.7434	-0.0996
2.46	-9.6500	0.1385	-1.2877	-0.0026	0.0012	0.0088	15.3649	3.1552	12.5142	0.6491	0.1270	0.7434	-0.0996
2.47	-9.6359	0.1229	-1.2403	-0.0022	-0.0043	0.0096	15.1592	3.1170	12.4089	0.6491	0.1270	0.7434	-0.0996
2.48	-9.6482	0.0992	-1.2683	-0.0055	0.0014	0.0049	15.1131	3.1223	12.4412	0.6490	0.1270	0.7434	-0.0996
2.49	-9.6577	0.0576	-1.2960	-0.0027	0.0065	0.0067	15.0520	3.1329	12.5572	0.6490	0.1270	0.7435	-0.0996
2.5	-9.6500	0.0117	-1.3162	-0.0015	-0.0005	0.0080	14.9169	2.9329	12.6623	0.6490	0.1270	0.7435	-0.0996
2.51	-9.6882	0.0091	-1.3777	-0.0012	0.0043	0.0013	14.8840	3.0860	12.5032	0.6489	0.1270	0.7435	-0.0996
2.52	-9.6382	0.0253	-1.3394	0.0023	0.0030	0.0036	15.0013	3.3174	12.6410	0.6489	0.1270	0.7436	-0.0996
2.53	-9.6236	0.0797	-1.3364	0.0032	0.0100	0.0108	14.9588	3.2853	12.5633	0.6488	0.1270	0.7436	-0.0996
2.54	-9.6854	0.1293	-1.3932	0.0024	0.0057	0.0073	15.0189	3.2480	12.7257	0.6488	0.1270	0.7437	-0.0996
2.55	-9.7164	0.1889	-1.4458	0.0030	-0.0041	0.0026	14.8015	3.1075	12.5100	0.6487	0.1270	0.7436	-0.0996
2.56	-9.6887	0.2377	-1.4709	0.0089	-0.0023	0.0099	14.8505	3.0178	12.4537	0.6487	0.1271	0.7437	-0.0997
2.57	-9.6668	0.2802	-1.4708	0.0091	-0.0057	0.0130	14.9141	3.0649	12.5125	0.6487	0.1271	0.7437	-0.0997
2.58	-9.6643	0.3332	-1.4527	0.0045	-0.0086	0.0117	15.2034	2.9568	12.4139	0.6487	0.1272	0.7437	-0.0997
2.59	-9.6914	0.3554	-1.4370	0.0043	-0.0090	0.0104	15.2456	3.0572	12.4687	0.6487	0.1272	0.7437	-0.0997
2.6	-9.6634	0.3758	-1.3905	0.0015	-0.0092	0.0072	15.1062	3.0261	12.3095	0.6487	0.1272	0.7437	-0.0997
2.61	-9.6544	0.3722	-1.3364	-0.0017	-0.0129	0.0117	15.1833	3.0994	12.6217	0.6487	0.1272	0.7437	-0.0997
2.62	-9.6557	0.3516	-1.3330	-0.0036	-0.0083	0.0094	15.0379	3.1433	12.5362	0.6486	0.1272	0.7436	-0.0997
2.63	-9.6461	0.3217	-1.3314	-0.0010	-0.0040	0.0033	15.0926	3.0185	12.5228	0.6487	0.1272	0.7438	-0.0997
2.64	-9.6500	0.2845	-1.3313	-0.0086	-0.0090	0.0045	15.1479	2.9127	12.5438	0.6487	0.1272	0.7437	-0.0997
2.65	-9.6674	0.2286	-1.3623	-0.0070	-0.0050	-0.0014	15.1656	2.8540	12.5391	0.6487	0.1271	0.7438	-0.0997
2.66	-9.6814	0.1974	-1.4042	-0.0079	-0.0095	0.0016	15.0361	2.9628	12.4567	0.6486	0.1271	0.7437	-0.0997
2.67	-9.6487	0.1707	-1.3854	-0.0123	-0.0057	0.0029	15.1183	3.1947	12.4083	0.6487	0.1270	0.7438	-0.0996
2.68	-9.6867	0.1478	-1.4288	-0.0150	-0.0025	-0.0024	14.9128	3.1700	12.5170	0.6486	0.1269	0.7438	-0.0996
2.69	-9.6246	0.1124	-1.4009	-0.0160	-0.0183	0.0009	14.7609	3.0766	12.4498	0.6486	0.1269	0.7437	-0.0996
2.7	-9.8037	0.0893	-1.5148	-0.0105	-0.0145	0.0006	15.0463	3.1731	12.4340	0.6487	0.1268	0.7438	-0.0996
2.71	-9.6590	0.0588	-1.4021	-0.0101	-0.0176	-0.0008	15.0694	3.1657	12.4337	0.6487	0.1268	0.7438	-0.0996
2.72	-9.3897	0.0459	-1.1714	-0.0096	-0.0108	-0.0036	15.0287	3.1502	12.4873	0.6488	0.1267	0.7438	-0.0996
2.73	-9.7219	0.0338	-1.3834	-0.0107	-0.0040	0.0067	14.8690	3.3267	12.6257	0.6487	0.1266	0.7437	-0.0996
2.74	-9.8289	-0.0092	-1.4438	-0.0066	-0.0029	0.0007	14.8321	2.9344	12.6038	0.6487	0.1266	0.7438	-0.0996
2.75	-9.6537	0.0103	-1.3140	-0.0038	-0.0154	0.0089	14.9312	3.0047	12.6344	0.6487	0.1266	0.7438	-0.0995
2.76	-9.5548	0.0018	-1.2386	-0.0001	-0.0093	0.0080	14.8659	3.0746	12.5401	0.6487	0.1266	0.7438	-0.0995
2.77	-9.6888	0.0207	-1.3628	-0.0015	-0.0052	0.0033	15.1046	2.8303	12.5199	0.6487	0.1266	0.7438	-0.0996
2.78	-9.7285	0.0363	-1.3842	-0.0006	-0.0042	0.0125	15.1520	3.0545	12.4316	0.6487	0.1266	0.7438	-0.0995
2.79	-9.6510	0.0559	-1.3004	0.0008	-0.0065	0.0071	15.1479	2.9663	12.4485	0.6487	0.1266	0.7439	-0.0996
2.8	-9.6040	0.0742	-1.2611	-0.0106	-0.0115	0.0091	15.1435	3.0414	12.4570	0.6486	0.1266	0.7438	-0.0995
2.81	-9.6700	0.0845	-1.2771	-0.0065	-0.0067	0.0076	15.0627	3.0316	12.3140	0.6487	0.1266	0.7439	-0.0995
2.82	-9.6724	0.1202	-1.2816	-0.0050	-0.0061	0.0111	15.0489	2.9437	12.4387	0.6487	0.1266	0.7438	-0.0995
2.83	-9.6171	0.1365	-1.2691	-0.0015	-0.0104	0.0061	14.8801	3.1708	12.6437	0.6487	0.1266	0.7439	-0.0995
2.84	-9.6476	0.1580	-1.2745	0.0021	-0.0050	0.0101	14.9962	2.9932	12.5136	0.6487	0.1266	0.7438	-0.0995
2.85	-9.6838	0.1641	-1.2844	-0.0047	0.0020	0.0089	14.9789	2.8715	12.4158	0.6486	0.1266	0.7439	-0.0994
2.86	-9.6585	0.1592	-1.3045	-0.0022	-0.0081	0.0046	14.8295	3.0175	12.4954	0.6486	0.1266	0.7439	-0.0995
2.87	-9.6409	0.1600	-1.2933	-0.0050	-0.0036	0.0005	15.1539	3.1250	12.6138	0.6486	0.1266	0.7439	-0.0994
2.88	-9.6512	0.1368	-1.3114	-0.0010	0.0010	0.0067	15.2184	3.3071	12.6374	0.6486	0.1266	0.7440	-0.0995
2.89	-9.6696	0.1324	-1.3352	-0.0082	-0.0051	0.0045	15.1151	3.1759	12.4023	0.6485	0.1266	0.7440	-0.0994
2.9	-9.6488	0.1112	-1.3304	-0.0021	-0.0022	0.0036	14.9604	3.2251	12.3791	0.6486	0.1265	0.7440	-0.0994
2.91	-9.6547	0.1051	-1.3341	-0.0014	-0.0039	0.0120	15.1057	3.1247	12.5608	0.6485	0.1265	0.7440	-0.0994
2.92	-9.6485	0.1128	-1.3450	-0.0042	-0.0002	0.0050	14.9730	3.0959	12.6225	0.6485	0.1265	0.7440	-0.0994
2.93	-9.6658	0.1186	-1.3738	0.0025	0.0014	0.0095	14.7990	3.0308	12.6197	0.6484	0.1266	0.7441	-0.0994
2.94	-9.6567	0.1327	-1.3581	0.0016	-0.0068	0.0139	15.3291	3.3117	12.9043	0.6484	0.1266	0.7440	-0.0994
2.95	-9.6642	0.1423	-1.3613	-0.0012	-0.0062	0.0095	15.2900	3.2916	12.8475	0.6485	0.1266	0.7441	-0.0994
2.96	-9.6792	0.1633	-1.3881	-0.0066	-0.0122	0.0125	15.1686	3.0851	12.6862	0.6484	0.1266	0.7441	-0.0994
2.97	-9.6771	0.1634	-1.4041	-0.0009	-0.0080	0.0131	15.1675	3.0361	12.4978	0.6485	0.1266	0.7441	-0.0993
2.98	-9.6510	0.1650	-1.3912	-0.0048	-0.0106	0.0142	15.2379	3.0724	12.5039	0.6484	0.1266	0.7440	-0.0993
2.99	-9.6609	0.1712	-1.4078	0.0036	-0.0072	0.0076	15.1340	3.0414	12.5916	0.6484	0.1267	0.7441	-0.0993
3	-9.6694	0.1670	-1.4311	0.0014	-0.0047	0.0129	15.0508	3.0910	12.4860	0.6484	0.1267	0.7441	-0.0993
3.01	-9.6635	0.1670	-1.4183	0.0035	-0.0049	0.0127	15.1684	3.2338	12.7275	0.6484	0.1267	0.7441	-0.0993
3.02	-9.6573	0.1706	-1.4181	0.0072	-0.0068	0.0090	15.0664	3.1367	12.5316	0.6484	0.1268	0.7441	-0.0993
3.03	-9.6521	0.1654	-1.4182	0.0048	-0.0103	0.0163	15.1066	2.9967	12.6679	0.6484	0.1268	0.7441	-0.0993
3.04	-9.6468	0.1827	-1.4119	0.0035	-0.0131	0.0114	15.1850	2.9955	12.6137	0.6484	0.1268	0.7441	-0.0993
3.05	-9.6564	0.1986	-1.3990	0.0007	-0.0129	0.0065	14.7708	3.2399	12.6459	0.6484	0.1268	0.7440	-0.0993
3.06	-9.6573	0.2201	-1.3977	0.0024	-0.0108	0.0090	15.1051	3.1086	12.6919	0.6485	0.1269	0.7441	-0.0994
3.07	-9.6569	0.2402	-1.3771	0.0053	-0.0103	0.0079	15.1202	3.0224	12.5012	0.6484	0.1269	0.7440	-0.0994
3.08	-9.6587	0.2687	-1.3610	0.0049	-0.0058	0.0069	15.1384	3.1422	12.5539	0.6484	0.1269	0.7440	-0.0994
3.09	-9.6516	0.2840	-1.3528	0.0034	-0.0107	0.0084	15.0937	3.1348	12.7118	0.6484	0.1269	0.7440	-0.0994
3.1	-9.6686	0.2906	-1.3585	0.0072	-0.0151	0.0043	14.8407	3.0310	12.6289	0.6484	0.1269	0.7440	-0.0994
3.11	-9.6609	0.2963	-1.3486	-0.0069	-0.0133	0.0064	15.0363	3.0613	12.7723	0.6485	0.1269	0.7440	-0.0994
3.12	-9.6674	0.2765	-1.3516	-0.0037	-0.0156	0.0113	15.1715	3.0577	12.6751	0.6484	0.1269	0.7439	-0.0994
3.13	-9.6415	0.2759	-1.3150	-0.0058	-0.0149	0.0085	15.1536	3.0547	12.6017	0.6485	0.1269	0.7440	-0.0994
3.14	-9.6595	0.2388	-1.3174	-0.0017	-0.0087	0.0075	15.1759	2.9238	12.6749	0.6485	0.1269	0.7439	-0.0994
3.15	-9.6750	0.2078	-1.3188	0.0005	-0.0097	0.0086	15.1116	2.8591	12.5543	0.6486	0.1269	0.7440	-0.0994
3.16	-9.6584	0.1814	-1.3050	-0.0076	-0.0138	0.0091	14.9798	3.0056	12.6214	0.6485	0.1269	0.7439	-0.0994
3.17	-9.6376	0.1526	-1.2912	-0.0069	-0.0162	0.0055	15.1281	2.9243	12.5606	0.6486	0.1268	0.7439	-0.0993
3.18	-9.6461	0.1283	-1.2901	-0.0045	-0.0108	0.0132	15.1796	2.9299	12.6454	0.6486	0.1268	0.7439	-0.0993
3.19	-9.6686	0.0968	-1.3157	-0.0036	-0.0029	0.0097	15.1466	2.9982	12.4608	0.6485	0.1268	0.7439	-0.0993
3.2	-9.6627	0.0835	-1.3115	-0.0030	-0.0161	0.0106	15.1893	2.9629	12.6701	0.6486	0.1269	0.7440	-0.0993
3.21	-9.6463	0.0647	-1.3100	0.0016	-0.0118	0.0139	15.1090	3.1110	12.5880	0.6486	0.1269	0.7439	-0.0993
3.22	-9.6574	0.0587	-1.3189	0.0010	-0.0137	0.0113	15.0906	2.9674	12.5234	0.6486	0.1269	0.7439	-0.0993
3.23	-9.6647	0.0416	-1.3424	-0.0047	-0.0070	0.0105	15.0454	2.9865	12.7058	0.6486	0.1269	0.7438	-0.0992
3.24	-9.6564	0.0294	-1.3374	0.0000	-0.0051	0.0058	15.2553	2.9498	12.5788	0.6486	0.1269	0.7439	-0.0992
3.25	-9.6573	0.0321	-1.3312	-0.0019	-0.0088	0.0079	15.1101	3.0464	12.5570	0.6486	0.1269	0.7439	-0.0992
3.26	-9.6666	0.0327	-1.3436	-0.0043	-0.0085	0.0059	14.9541	2.9900	12.4670	0.6486	0.1269	0.7439	-0.0992
3.27	-9.6604	0.0555	-1.3457	-0.0064	-0.0143	0.0087	15.0326	2.9591	12.6145	0.6486	0.1269	0.7439	-0.0992
3.28	-9.6644	0.0653	-1.3262	-0.0064	-0.0077	0.0046	14.8598	3.2210	12.5793	0.6486	0.1269	0.7439	-0.0992
3.29	-9.6608	0.0910	-1.3351	-0.0018	-0.0037	0.0033	14.8172	2.9879	12.5446	0.6486	0.1268	0.7439	-0.0992
3.3	-9.6586	0.1132	-1.3291	-0.0010	-0.0067	0.0095	14.9983	2.9536	12.4482	0.6485	0.1268	0.7439	-0.0992
3.31	-9.6682	0.1302	-1.3319	0.0022	-0.0110	0.0142	15.1078	3.0905	12.7836	0.6486	0.1269	0.7439	-0.0992
3.32	-9.6744	0.1555	-1.3596	0.0034	-0.0069	0.0124	15.0479	3.1646	12.6611	0.6486	0.1269	0.7439	-0.0992
3.33	-9.6531	0.1899	-1.3699	-0.0029	-0.0085	0.0089	15.1622	3.0743	12.5541	0.6486	0.1269	0.7439	-0.0992
3.34	-9.6633	0.2046	-1.3949	0.0035	-0.0138	0.0113	15.1648	2.9663	12.6946	0.6486	0.1269	0.7439	-0.0992
3.35	-9.6655	0.2218	-1.4124	0.0062	-0.0047	0.0132	14.9285	2.8507	12.6946	0.6486	0.1270	0.7439	-0.0992
3.36	-9.6821	0.2473	-1.4312	0.0023	-0.0170	0.0111	15.1207	2.9620	12.6162	0.6486	0.1270	0.7439	-0.0992
3.37	-9.6631	0.2508	-1.4408	0.0008	-0.0156	0.0092	15.2069	2.9763	12.5935	0.6486	0.1270	0.7438	-0.0992
3.38	-9.6656	0.2582	-1.4240	0.0055	-0.0128	0.0089	14.9288	2.9806	12.5688	0.6487	0.1271	0.7439	-0.0992
3.39	-9.6826	0.2469	-1.4361	-0.0021	-0.0140	0.0088	14.9699	3.0876	12.5052	0.6487	0.1271	0.7438	-0.0992
3.4	-9.6808	0.2396	-1.4202	-0.0042	-0.0164	0.0095	14.9975	3.2384	12.6487	0.6487	0.1271	0.7438	-0.0992
3.41	-9.6605	0.2374	-1.4116	0.0002	-0.0166	0.0130	15.1083	3.1144	12.3661	0.6487	0.1271	0.7437	-0.0992
3.42	-9.6453	0.2268	-1.4144	-0.0062	-0.0098	0.0059	14.8249	3.1779	12.5625	0.6487	0.1271	0.7438	-0.0991
3.43	-9.6532	0.2139	-1.4105	-0.0050	-0.0102	0.0025	14.9631	3.0107	12.7665	0.6487	0.1270	0.7438	-0.0991
3.44	-9.6464	0.1978	-1.3917	-0.0011	-0.0207	0.0035	15.5225	3.0227	12.7209	0.6487	0.1270	0.7437	-0.0992
3.45	-9.6520	0.1809	-1.3704	-0.0057	-0.0169	0.0067	15.6397	3.2742	12.5405	0.6489	0.1270	0.7438	-0.0992
3.46	-9.6628	0.1494	-1.3497	-0.0032	-0.0118	0.0054	15.2312	3.2713	12.5892	0.6488	0.1270	0.7437	-0.0992
3.47	-9.6575	0.1426	-1.3423	-0.0008	-0.0094	0.0050	14.9661	3.2251	12.6346	0.6489	0.1270	0.7437	-0.0992
3.48	-9.6663	0.1130	-1.3256	-0.0016	-0.0118	0.0004	14.9023	3.0875	12.4016	0.6488	0.1269	0.7436	-0.0992
3.49	-9.6624	0.1098	-1.3244	0.0028	-0.0024	0.0035	14.9096	2.9945	12.5579	0.6488	0.1270	0.7437	-0.0992
3.5	-9.6684	0.1065	-1.3175	-0.0003	-0.0086	0.0066	14.6701	3.0684	12.4900	0.6488	0.1270	0.7437	-0.0992
3.51	-9.6658	0.1175	-1.2968	-0.0028	-0.0126	0.0045	14.9876	3.1158	12.5446	0.6488	0.1269	0.7437	-0.0992
3.52	-9.6549	0.1204	-1.2800	-0.0023	-0.0111	0.0121	15.1174	3.1087	12.4889	0.6488	0.1270	0.7437	-0.0992
3.53	-9.6457	0.1251	-1.2719	0.0004	-0.0152	0.0123	14.8004	2.9650	12.5785	0.6488	0.1270	0.7437	-0.0992
3.54	-9.6266	0.1255	-1.2599	-0.0064	-0.0057	0.0097	14.9705	3.1310	12.3666	0.6489	0.1270	0.7437	-0.0992
3.55	-9.6464	0.1244	-1.2411	-0.0118	-0.0045	0.0094	15.0832	2.9357	12.3560	0.6488	0.1269	0.7436	-0.0991
3.56	-9.6513	0.1318	-1.2514	-0.0076	-0.0070	0.0061	15.1255	2.8604	12.4205	0.6488	0.1269	0.7437	-0.0991
3.57	-9.6603	0.1356	-1.2588	-0.0009	-0.0125	0.0049	15.1256	3.1166	12.2296	0.6488	0.1269	0.7437	-0.0991
3.58	-9.6698	0.1343	-1.2790	-0.0054	-0.0083	0.0082	14.8824	2.8505	12.4859	0.6488	0.1269	0.7437	-0.0991
3.59	-9.6615	0.1269	-1.2857	-0.0052	-0.0072	0.0030	15.0297	2.8529	12.3166	0.6488	0.1269	0.7437	-0.0991
3.6	-9.6567	0.1277	-1.2985	-0.0021	-0.0123	0.0067	15.1144	2.9902	12.6293	0.6488	0.1269	0.7437	-0.0991
3.61	-9.6378	0.1346	-1.3181	-0.0030	-0.0070	0.0038	14.9915	3.0387	12.5513	0.6488	0.1269	0.7437	-0.0991
3.62	-9.6430	0.1304	-1.3275	-0.0071	0.0019	0.0043	14.8079	2.9985	12.4899	0.6487	0.1268	0.7437	-0.0991
3.63	-9.6548	0.1266	-1.3206	-0.0104	-0.0029	0.0098	14.8725	3.1348	12.6505	0.6488	0.1268	0.7438	-0.0990
3.64	-9.6432	0.1344	-1.3150	-0.0093	-0.0069	0.0024	14.6443	3.1981	12.5322	0.6488	0.1268	0.7438	-0.0990
3.65	-9.6383	0.1428	-1.3050	0.0020	-0.0053	0.0021	14.6124	3.1333	12.5215	0.6488	0.1268	0.7439	-0.0991
3.66	-9.6530	0.1578	-1.3092	-0.0048	-0.0032	0.0037	14.9642	2.9769	12.4201	0.6487	0.1268	0.7438	-0.0990
3.67	-9.6569	0.1637	-1.3174	0.0048	0.0011	0.0060	14.9084	3.1981	12.4549	0.6487	0.1268	0.7439	-0.0991
3.68	-9.6624	0.1727	-1.3208	0.0013	-0.0011	0.0071	14.9367	3.2537	12.5394	0.6487	0.1268	0.7439	-0.0991
3.69	-9.6516	0.1650	-1.3105	-0.0050	0.0002	0.0091	14.8567	3.0893	12.4967	0.6486	0.1268	0.7439	-0.0990
3.7	-9.6529	0.1636	-1.3082	0.0013	-0.0090	0.0116	14.8112	3.0950	12.6288	0.6487	0.1268	0.7440	-0.0991
3.71	-9.6512	0.1659	-1.3096	0.0001	-0.0069	0.0092	15.0338	2.8725	12.4637	0.6486	0.1268	0.7439	-0.0990
3.72	-9.6650	0.1703	-1.3204	-0.0009	-0.0036	0.0105	15.0892	3.0399	12.6366	0.6486	0.1269	0.7440	-0.0990
3.73	-9.6677	0.1678	-1.3364	-0.0009	0.0003	0.0057	15.0937	2.9420	12.5018	0.6485	0.1268	0.7439	-0.0990
3.74	-9.6525	0.1722	-1.3541	-0.0077	-0.0056	0.0098	15.1477	2.9309	12.5710	0.6486	0.1268	0.7440	-0.0990
3.75	-9.6578	0.1657	-1.3724	-0.0087	-0.0072	0.0113	15.2374	2.8193	12.7615	0.6486	0.1268	0.7440	-0.0990
3.76	-9.6676	0.1565	-1.3787	-0.0059	-0.0068	0.0089	15.1290	2.9530	12.3255	0.6485	0.1268	0.7440	-0.0989
3.77	-9.6719	0.1591	-1.3925	-0.0066	-0.0053	0.0087	14.8960	2.9301	12.4547	0.6486	0.1268	0.7440	-0.0989
3.78	-9.6673	0.1495	-1.3925	-0.0119	-0.0084	0.0073	15.1576	2.8358	12.4298	0.6486	0.1268	0.7440	-0.0989
3.79	-9.6674	0.1373	-1.3928	-0.0032	-0.0085	0.0135	15.0132	2.8962	12.4844	0.6486	0.1268	0.7440	-0.0988
3.8	-9.6702	0.1330	-1.4015	-0.0108	-0.0074	0.0054	14.9246	3.1060	12.6276	0.6485	0.1267	0.7439	-0.0988
3.81	-9.6710	0.1272	-1.4100	-0.0080	-0.0118	0.0070	14.8194	3.3012	12.5768	0.6486	0.1267	0.7440	-0.0988
3.82	-9.6676	0.1301	-1.4395	-0.0091	-0.0059	0.0099	14.8385	3.2549	12.6387	0.6486	0.1267	0.7440	-0.0988
3.83	-9.6695	0.1392	-1.4641	-0.0119	-0.0124	0.0060	14.6309	3.4978	12.4483	0.6486	0.1267	0.7440	-0.0987
3.84	-9.6662	0.1374	-1.4667	-0.0105	-0.0120	0.0045	14.8993	3.1157	12.3064	0.6486	0.1266	0.7440	-0.0987
3.85	-9.6755	0.1453	-1.4800	-0.0157	-0.0094	0.0059	14.8866	3.0381	12.6256	0.6486	0.1266	0.7440	-0.0987
3.86	-9.6836	0.1415	-1.4891	-0.0079	-0.0130	0.0026	14.8474	3.1024	12.5542	0.6487	0.1265	0.7440	-0.0987
3.87	-9.6708	0.1391	-1.4799	-0.0048	-0.0101	0.0041	14.7386	3.1912	12.7923	0.6486	0.1265	0.7439	-0.0986
3.88	-9.6693	0.1514	-1.4633	0.0008	-0.0188	0.0113	14.8798	3.0582	12.7588	0.6487	0.1265	0.7440	-0.0987
3.89	-9.6686	0.1803	-1.4498	0.0037	-0.0200	0.0094	15.1679	2.9198	12.3991	0.6487	0.1265	0.7439	-0.0987
3.9	-9.6728	0.1994	-1.4502	0.0072	-0.0166	0.0104	14.9875	2.8937	12.5226	0.6488	0.1266	0.7439	-0.0987
3.91	-9.6650	0.2362	-1.4210	0.0044	-0.0228	0.0087	15.0093	2.8370	12.5367	0.6488	0.1266	0.7438	-0.0987
3.92	-9.6518	0.2428	-1.3990	0.0039	-0.0162	0.0099	15.1097	2.8689	12.5137	0.6488	0.1266	0.7438	-0.0988
3.93	-9.6548	0.2401	-1.3993	-0.0042	-0.0226	0.0018	15.0427	2.8712	12.7624	0.6489	0.1266	0.7438	-0.0988
3.94	-9.6553	0.2249	-1.3868	-0.0056	-0.0225	0.0035	15.2185	3.1032	12.7481	0.6489	0.1265	0.7437	-0.0988
3.95	-9.6646	0.1923	-1.3864	0.0026	-0.0189	0.0138	15.3570	3.3122	12.4577	0.6490	0.1266	0.7437	-0.0988
3.96	-9.6663	0.1752	-1.3769	0.0019	-0.0267	0.0077	15.1502	3.0794	12.7321	0.6490	0.1266	0.7436	-0.0988
3.97	-9.6521	0.1447	-1.3637	0.0029	-0.0207	0.0058	15.1267	3.0950	12.5525	0.6491	0.1266	0.7436	-0.0988
3.98	-9.6491	0.1172	-1.3291	-0.0003	-0.0185	0.0104	14.9289	2.9669	12.5638	0.6491	0.1266	0.7435	-0.0988
3.99	-9.6713	0.1203	-1.3299	0.0072	-0.0169	0.0081	14.9102	3.1424	12.6648	0.6492	0.1266	0.7435	-0.0989
4	-9.6641	0.1260	-1.3267	0.0036	-0.0170	0.0045	15.0030	3.0989	12.5082	0.6492	0.1266	0.7435	-0.0989
4.01	-9.6503	0.1406	-1.2955	-0.0007	-0.0220	0.0048	14.9691	2.8678	12.6707	0.6492	0.1266	0.7434	-0.0989
4.02	-9.6524	0.1386	-1.2895	0.0036	-0.0160	0.0054	14.8905	3.0232	12.7393	0.6493	0.1266	0.7434	-0.0990
4.03	-9.6529	0.1304	-1.2730	0.0016	-0.0162	0.0037	15.0214	3.2209	12.4907	0.6493	0.1266	0.7434	-0.0990
4.04	-9.6583	0.1388	-1.2573	0.0021	-0.0171	0.0035	15.0858	3.0650	12.4716	0.6493	0.1266	0.7434	-0.0990
4.05	-9.6442	0.1206	-1.2506	0.0038	-0.0136	0.0017	15.0357	3.1700	12.4923	0.6492	0.1265	0.7433	-0.0991
4.06	-9.6579	0.1139	-1.2490	0.0031	-0.0117	0.0061	15.0012	3.2406	12.4493	0.6493	0.1266	0.7434	-0.0991
4.07	-9.6539	0.0993	-1.2651	0.0016	-0.0148	0.0115	14.9083	2.9827	12.5410	0.6493	0.1266	0.7433	-0.0991
4.08	-9.6519	0.0920	-1.2799	0.0053	-0.0119	0.0097	14.9886	2.9998	12.5629	0.6493	0.1266	0.7433	-0.0991
4.09	-9.6383	0.0908	-1.2738	0.0025	-0.0143	0.0102	15.3515	3.0063	12.6865	0.6493	0.1266	0.7433	-0.0991
4.1	-9.6653	0.1054	-1.3000	-0.0023	-0.0135	0.0116	15.1501	2.9888	12.6127	0.6494	0.1266	0.7433	-0.0991
4.11	-9.6766	0.1278	-1.3208	0.0079	-0.0136	0.0100	15.1395	3.0274	12.4098	0.6494	0.1267	0.7433	-0.0992
4.12	-9.6539	0.1516	-1.3004	0.0020	-0.0177	0.0070	15.1472	2.8924	12.6177	0.6494	0.1267	0.7432	-0.0992
4.13	-9.6534	0.1760	-1.3045	0.0038	-0.0193	0.0113	15.0338	3.0456	12.5261	0.6495	0.1267	0.7432	-0.0992
4.14	-9.6502	0.2016	-1.3031	-0.0007	-0.0139	0.0146	15.0957	3.1901	12.3452	0.6495	0.1267	0.7432	-0.0992
4.15	-9.6546	0.2237	-1.3148	0.0012	-0.0086	0.0062	14.9738	2.9191	12.4636	0.6495	0.1267	0.7432	-0.0992
4.16	-9.6543	0.2549	-1.3387	0.0027	-0.0148	0.0106	15.0706	2.8855	12.5946	0.6494	0.1267	0.7431	-0.0992
4.17	-9.6413	0.2712	-1.3471	-0.0099	-0.0138	0.0109	15.0313	3.1916	12.6493	0.6495	0.1267	0.7431	-0.0992
4.18	-9.6569	0.2996	-1.3611	-0.0092	-0.0088	0.0086	15.1280	3.2133	12.5229	0.6495	0.1267	0.7431	-0.0991
4.19	-9.6595	0.2950	-1.3866	-0.0124	-0.0105	0.0036	15.0715	3.1418	12.6044	0.6495	0.1266	0.7431	-0.0991
4.2	-9.6583	0.2816	-1.3888	-0.0078	-0.0070	0.0035	15.0527	3.1693	12.5187	0.6496	0.1266	0.7432	-0.0991
4.21	-9.6466	0.2773	-1.3879	-0.0019	-0.0092	0.0046	15.0551	3.0416	12.5246	0.6495	0.1266	0.7431	-0.0991
4.22	-9.6428	0.2553	-1.3873	-0.0166	-0.0061	0.0042	15.0807	3.1163	12.7826	0.6496	0.1265	0.7432	-0.0991
4.23	-9.6779	0.2449	-1.3923	-0.0099	-0.0046	0.0030	14.8741	2.9671	12.6445	0.6495	0.1265	0.7431	-0.0990
4.24	-9.6589	0.2248	-1.3888	0.0027	-0.0058	0.0025	15.0265	3.0261	12.5421	0.6495	0.1265	0.7432	-0.0991
4.25	-9.6502	0.2010	-1.3448	-0.0014	-0.0122	0.0002	15.0435	2.9324	12.4483	0.6495	0.1264	0.7432	-0.0991
4.26	-9.6663	0.1906	-1.3371	0.0050	-0.0114	0.0045	14.9146	2.9507	12.5633	0.6495	0.1264	0.7432	-0.0991
4.27	-9.6688	0.1960	-1.3247	0.0054	-0.0100	0.0069	15.2833	3.2099	12.6697	0.6495	0.1265	0.7432	-0.0992
4.28	-9.6610	0.1834	-1.3027	0.0046	-0.0095	0.0046	15.2703	3.2535	12.5164	0.6495	0.1265	0.7432	-0.0992
4.29	-9.6533	0.1602	-1.2778	0.0068	-0.0106	0.0054	15.1878	2.8392	12.4572	0.6495	0.1265	0.7432	-0.0993
4.3	-9.6526	0.1393	-1.2833	-0.0053	-0.0115	0.0057	14.8940	2.8959	12.6014	0.6495	0.1265	0.7431	-0.0992
4.31	-9.6532	0.1056	-1.2736	-0.0052	-0.0090	0.0094	14.8931	3.1158	12.3132	0.6495	0.1265	0.7432	-0.0992
4.32	-9.6507	0.0824	-1.2757	-0.0014	-0.0077	0.0073	14.9254	3.0671	12.5093	0.6495	0.1265	0.7432	-0.0992
4.33	-9.6655	0.0591	-1.2885	-0.0028	-0.0093	-0.0003	15.0759	3.0400	12.5870	0.6495	0.1264	0.7432	-0.0993
4.34	-9.6519	0.0224	-1.2755	-0.0049	-0.0068	0.0073	14.9568	2.8729	12.5765	0.6495	0.1264	0.7432	-0.0992
4.35	-9.6524	0.0103	-1.2707	-0.0055	-0.0078	0.0091	15.1217	2.9570	12.5429	0.6495	0.1264	0.7432	-0.0992
4.36	-9.6592	0.0133	-1.2741	-0.0009	-0.0011	0.0067	15.1124	2.8475	12.4732	0.6495	0.1264	0.7432	-0.0992
4.37	-9.6634	0.0195	-1.2905	0.0018	0.0014	0.0065	14.9634	3.1704	12.4736	0.6494	0.1264	0.7432	-0.0992
4.38	-9.6626	0.0522	-1.3041	-0.0004	-0.0049	0.0026	14.9826	3.3315	12.4916	0.6494	0.1264	0.7433	-0.0993
4.39	-9.6621	0.0849	-1.3216	0.0043	-0.0050	0.0084	14.9864	3.0968	12.5725	0.6494	0.1264	0.7433	-0.0993
4.4	-9.6613	0.1237	-1.3365	-0.0010	-0.0003	0.0051	15.1689	3.2124	12.6260	0.6494	0.1264	0.7434	-0.0993
4.41	-9.6617	0.1409	-1.3385	-0.0013	-0.0044	0.0052	14.9640	3.0388	12.6778	0.6493	0.1264	0.7433	-0.0993
4.42	-9.6508	0.1608	-1.3405	0.0047	-0.0011	0.0051	14.7606	3.2235	12.5091	0.6493	0.1264	0.7434	-0.0993
4.43	-9.6655	0.1719	-1.3587	-0.0043	-0.0030	0.0066	15.0803	3.2155	12.8192	0.6493	0.1264	0.7434	-0.0993
4.44	-9.6709	0.1727	-1.3592	-0.0052	-0.0093	0.0118	15.4818	3.0733	12.7831	0.6492	0.1264	0.7433	-0.0993
4.45	-9.6708	0.1677	-1.3686	0.0030	-0.0069	0.0050	15.4473	3.1014	12.5366	0.6493	0.1264	0.7434	-0.0993
4.46	-9.6647	0.1681	-1.3750	0.0000	-0.0083	0.0130	15.3688	3.0234	12.5344	0.6493	0.1264	0.7434	-0.0993
4.47	-9.6651	0.1531	-1.3744	0.0003	-0.0095	0.0124	15.2264	2.9356	12.4327	0.6493	0.1265	0.7434	-0.0993
4.48	-9.6749	0.1534	-1.3818	0.0000	-0.0033	0.0071	15.1288	2.9174	12.4626	0.6492	0.1264	0.7433	-0.0993
4.49	-9.6679	0.1529	-1.3863	-0.0045	-0.0104	0.0094	15.0645	3.0606	12.4705	0.6493	0.1265	0.7434	-0.0993
4.5	-9.6760	0.1576	-1.4057	0.0089	-0.0087	0.0081	15.1253	2.9438	12.4425	0.6492	0.1265	0.7434	-0.0993
4.51	-9.6569	0.1667	-1.3925	0.0042	-0.0057	0.0107	15.1907	2.9478	12.5420	0.6492	0.1265	0.7434	-0.0993
4.52	-9.6698	0.1667	-1.3964	0.0025	-0.0092	0.0107	15.0466	2.8981	12.6529	0.6492	0.1265	0.7434	-0.0993
4.53	-9.6642	0.1775	-1.4005	0.0085	-0.0115	0.0084	14.9979	2.8869	12.3773	0.6492	0.1266	0.7434	-0.0993
4.54	-9.6492	0.1831	-1.3957	0.0096	-0.0059	0.0091	14.9847	3.1084	12.3688	0.6492	0.1266	0.7434	-0.0994
4.55	-9.6605	0.1908	-1.4161	0.0052	-0.0020	0.0056	14.7277	3.0953	12.4179	0.6491	0.1266	0.7433	-0.0994
4.56	-9.6657	0.1881	-1.4021	-0.0012	-0.0053	0.0077	14.8778	3.1596	12.7173	0.6492	0.1266	0.7434	-0.0994
4.57	-9.6747	0.1795	-1.4081	0.0023	-0.0004	0.0024	14.9103	3.2534	12.8018	0.6491	0.1266	0.7434	-0.0994
4.58	-9.6583	0.1718	-1.4094	0.0069	-0.0059	0.0060	14.9414	3.1374	12.5974	0.6491	0.1266	0.7435	-0.0995
4.59	-9.6589	0.1720	-1.3975	0.0013	-0.0052	0.0076	14.7245	2.9853	12.7425	0.6491	0.1266	0.7434	-0.0995
4.6	-9.6599	0.1670	-1.3930	0.0051	-0.0043	0.0025	14.6776	3.1092	12.5655	0.6491	0.1266	0.7435	-0.0995
4.61	-9.6695	0.1745	-1.3877	0.0035	-0.0071	0.0040	15.0110	3.1238	12.5345	0.6491	0.1267	0.7435	-0.0995
4.62	-9.6553	0.1661	-1.3625	0.0021	-0.0104	0.0103	14.9280	3.2720	12.5435	0.6490	0.1267	0.7434	-0.0995
4.63	-9.6630	0.1715	-1.3608	0.0066	-0.0094	0.0108	14.8055	3.2656	12.5318	0.6491	0.1267	0.7435	-0.0996
4.64	-9.6672	0.1657	-1.3629	0.0064	-0.0114	0.0105	15.1687	2.9430	12.4024	0.6491	0.1267	0.7435	-0.0996
4.65	-9.6654	0.1522	-1.3446	0.0050	-0.0050	0.0074	15.2879	3.0280	12.3920	0.6491	0.1268	0.7435	-0.0996
4.66	-9.6728	0.1444	-1.3260	0.0032	-0.0074	0.0032	15.1330	2.8350	12.7159	0.6490	0.1267	0.7434	-0.0996
4.67	-9.6675	0.1323	-1.3177	0.0084	-0.0128	0.0055	15.0673	2.7746	12.4307	0.6490	0.1268	0.7435	-0.0997
4.68	-9.6481	0.1275	-1.2961	0.0067	-0.0122	0.0073	14.7595	2.8599	12.6186	0.6490	0.1268	0.7435	-0.0997
4.69	-9.6636	0.1330	-1.3287	-0.0004	-0.0071	0.0042	14.8151	2.9023	12.4781	0.6490	0.1268	0.7434	-0.0997
4.7	-9.6464	0.1368	-1.3013	0.0061	-0.0089	0.0069	15.0366	2.9492	12.4691	0.6491	0.1268	0.7435	-0.0998
4.71	-9.6520	0.1338	-1.2768	0.0056	-0.0098	0.0111	14.9812	2.9178	12.6870	0.6490	0.1268	0.7434	-0.0998
4.72	-9.6507	0.1432	-1.2750	0.0073	-0.0113	0.0097	15.0046	2.9400	12.6296	0.6491	0.1269	0.7435	-0.0998
4.73	-9.6492	0.1532	-1.2787	0.0054	-0.0073	0.0086	14.9991	2.9180	12.5483	0.6490	0.1269	0.7434	-0.0998
4.74	-9.6419	0.1619	-1.2854	0.0051	-0.0044	0.0054	14.8915	3.0467	12.5622	0.6490	0.1269	0.7435	-0.0999
4.75	-9.6560	0.1699	-1.2833	0.0024	-0.0063	0.0107	14.7997	2.9635	12.6404	0.6490	0.1269	0.7435	-0.0999
4.76	-9.6528	0.1678	-1.2873	0.0018	-0.0021	0.0015	14.9271	3.1595	12.3959	0.6489	0.1269	0.7435	-0.0999
4.77	-9.6650	0.1538	-1.3048	0.0032	-0.0060	0.0094	14.9064	3.2791	12.6862	0.6489	0.1269	0.7435	-0.0999
4.78	-9.6492	0.1535	-1.2961	-0.0065	-0.0052	0.0054	14.9338	3.1262	12.5596	0.6489	0.1269	0.7435	-0.0999
4.79	-9.6486	0.1415	-1.2827	-0.0091	-0.0118	-0.0003	14.8600	3.2531	12.5848	0.6489	0.1269	0.7435	-0.0999
4.8	-9.6526	0.1421	-1.3070	-0.0008	-0.0043	0.0057	14.8172	3.2555	12.6597	0.6489	0.1268	0.7435	-0.0999
4.81	-9.6668	0.1385	-1.3086	-0.0002	-0.0087	0.0025	14.8538	3.2644	12.3803	0.6489	0.1268	0.7436	-0.0999
4.82	-9.6708	0.1274	-1.3210	-0.0104	-0.0100	0.0094	14.8436	2.9341	12.2152	0.6489	0.1268	0.7435	-0.0999
4.83	-9.6557	0.1452	-1.3150	-0.0052	-0.0027	0.0037	15.0924	3.0091	12.4965	0.6489	0.1268	0.7436	-0.0999
4.84	-9.6771	0.1519	-1.3260	0.0022	-0.0108	0.0130	15.0591	2.9254	12.6975	0.6489	0.1268	0.7435	-0.0999
4.85	-9.6609	0.1619	-1.3216	-0.0000	-0.0039	0.0048	15.0040	2.9509	12.5586	0.6489	0.1268	0.7436	-0.0999
4.86	-9.6544	0.1831	-1.3222	0.0027	-0.0068	0.0025	15.1245	3.0465	12.4153	0.6489	0.1268	0.7436	-0.0999
4.87	-9.6608	0.1684	-1.3198	-0.0044	-0.0028	0.0098	14.9883	2.9963	12.5608	0.6488	0.1268	0.7436	-0.0999
4.88	-9.6513	0.1756	-1.3371	-0.0028	-0.0081	0.0088	15.0002	2.9337	12.4487	0.6489	0.1268	0.7437	-0.0999
4.89	-9.6632	0.1687	-1.3269	-0.0038	-0.0008	0.0075	15.0068	3.0591	12.7435	0.6488	0.1268	0.7436	-0.0999
4.9	-9.6756	0.1560	-1.3414	-0.0024	-0.0046	0.0104	14.9463	3.1420	12.4246	0.6488	0.1268	0.7437	-0.0999
4.91	-9.6708	0.1472	-1.3504	-0.0062	-0.0114	0.0110	14.8324	2.8855	12.5836	0.6488	0.1268	0.7436	-0.0998
4.92	-9.6542	0.1391	-1.3496	-0.0068	-0.0031	0.0006	14.7149	2.9740	12.5896	0.6488	0.1268	0.7437	-0.0998
4.93	-9.6532	0.1406	-1.3652	-0.0066	-0.0005	0.0063	14.8676	3.1640	12.4170	0.6487	0.1267	0.7437	-0.0998
4.94	-9.6594	0.1288	-1.3717	-0.0097	0.0035	0.0047	15.2590	3.2632	12.7592	0.6487	0.1267	0.7437	-0.0998
4.95	-9.6681	0.1216	-1.3728	-0.0007	-0.0030	0.0090	15.3070	3.2660	12.6970	0.6487	0.1267	0.7438	-0.0998
4.96	-9.6542	0.1237	-1.3740	-0.0087	-0.0078	0.0027	15.2983	3.1341	12.6276	0.6487	0.1267	0.7438	-0.0998
4.97	-9.6577	0.1241	-1.3928	-0.0079	-0.0106	0.0081	15.1128	3.1975	12.8100	0.6487	0.1266	0.7438	-0.0998
4.98	-9.6695	0.1324	-1.3849	0.0056	-0.0049	0.0029	14.9185	3.2708	12.6409	0.6486	0.1266	0.7437	-0.0998
4.99	-9.6604	0.1491	-1.3855	-0.0020	-0.0059	0.0077	14.8984	2.9356	12.4128	0.6487	0.1266	0.7438	-0.0998
5	-9.6732	0.1829	-1.3956	0.0031	-0.0039	0.0072	14.7518	2.9690	12.7122	0.6486	0.1267	0.7438	-0.0998
5.01	-9.6566	0.2032	-1.3997	0.0002	-0.0090	0.0098	14.9252	3.1032	12.6856	0.6486	0.1267	0.7438	-0.0998
5.02	-9.6617	0.2232	-1.4050	-0.0001	-0.0118	0.0155	14.8414	2.9578	12.4254	0.6486	0.1267	0.7438	-0.0998
5.03	-9.6570	0.2309	-1.4043	-0.0016	-0.0122	0.0118	15.1427	2.8428	12.3861	0.6486	0.1267	0.7438	-0.0998
5.04	-9.6568	0.2316	-1.4171	0.0010	-0.0128	0.0074	15.3572	2.8600	12.6021	0.6487	0.1267	0.7438	-0.0998
5.05	-9.6593	0.2240	-1.4091	0.0077	-0.0067	0.0067	15.2161	2.9851	12.4553	0.6486	0.1267	0.7437	-0.0998
5.06	-9.6567	0.2250	-1.4055	0.0023	-0.0052	0.0072	15.0832	3.1073	12.4011	0.6487	0.1267	0.7438	-0.0998
5.07	-9.6668	0.2086	-1.4111	0.0017	-0.0096	0.0126	14.9795	2.9772	12.4707	0.6486	0.1268	0.7438	-0.0998
5.08	-9.6682	0.2032	-1.3968	-0.0035	-0.0122	0.0079	15.0997	3.0663	12.5492	0.6487	0.1268	0.7438	-0.0998
5.09	-9.6560	0.1824	-1.3732	0.0025	-0.0101	0.0092	14.9485	3.0292	12.5529	0.6486	0.1268	0.7438	-0.0998
5.1	-9.6625	0.1642	-1.3694	0.0026	-0.0150	0.0119	15.1007	3.0376	12.3447	0.6487	0.1268	0.7438	-0.0998
5.11	-9.6663	0.1672	-1.3788	0.0061	-0.0073	0.0059	15.0066	3.1390	12.5985	0.6487	0.1268	0.7438	-0.0999
5.12	-9.6498	0.1602	-1.3496	0.0065	-0.0075	0.0027	14.8687	3.0114	12.7737	0.6486	0.1268	0.7437	-0.0999
5.13	-9.6495	0.1519	-1.3518	0.0037	-0.0075	0.0090	14.9240	3.1844	12.4634	0.6487	0.1269	0.7438	-0.0999
5.14	-9.6602	0.1507	-1.3544	-0.0028	-0.0061	0.0036	14.9672	2.9744	12.7066	0.6486	0.1268	0.7438	-0.0999
5.15	-9.6514	0.1383	-1.3358	0.0036	-0.0122	0.0042	15.0380	2.9892	12.6129	0.6487	0.1268	0.7438	-0.1000
5.16	-9.6567	0.1394	-1.3379	0.0024	-0.0038	0.0017	15.0623	2.9689	12.5373	0.6486	0.1268	0.7438	-0.1000
5.17	-9.6673	0.1283	-1.3411	-0.0009	-0.0066	0.0062	14.9492	2.9976	12.6661	0.6486	0.1268	0.7438	-0.1000
5.18	-9.6570	0.1213	-1.3157	0.0008	-0.0114	0.0098	14.8129	3.0980	12.4934	0.6486	0.1268	0.7438	-0.1000
5.19	-9.6498	0.1194	-1.2890	-0.0016	-0.0091	0.0113	14.8880	2.9638	12.6123	0.6486	0.1268	0.7438	-0.1000
5.2	-9.6592	0.1164	-1.2902	0.0012	-0.0141	0.0037	14.8894	2.9939	12.4018	0.6487	0.1269	0.7438	-0.1000
5.21	-9.6536	0.1241	-1.2801	0.0009	-0.0160	0.0032	15.0761	2.8124	12.3086	0.6486	0.1268	0.7438	-0.1001
5.22	-9.6510	0.1266	-1.2812	0.0072	-0.0068	0.0081	15.1509	2.9129	12.6850	0.6487	0.1269	0.7438	-0.1001
5.23	-9.6524	0.1374	-1.2780	0.0046	-0.0066	0.0094	15.1910	3.1210	12.5468	0.6486	0.1269	0.7437	-0.1001
5.24	-9.6572	0.1260	-1.2851	0.0040	-0.0048	0.0080	15.4475	2.9066	12.4710	0.6486	0.1269	0.7438	-0.1001
5.25	-9.6476	0.1310	-1.2852	0.0034	-0.0112	0.0104	14.9620	2.9687	12.6364	0.6486	0.1269	0.7438	-0.1001
5.26	-9.6428	0.1431	-1.2761	0.0004	-0.0140	0.0106	14.8570	3.1796	12.3543	0.6486	0.1269	0.7437	-0.1001
5.27	-9.6696	0.1379	-1.2852	-0.0012	-0.0121	0.0078	15.0121	3.0343	12.4938	0.6486	0.1269	0.7438	-0.1001
5.28	-9.6734	0.1564	-1.2803	0.0029	-0.0096	0.0125	14.9397	2.9573	12.7041	0.6486	0.1270	0.7437	-0.1001
5.29	-9.6577	0.1362	-1.2996	0.0006	-0.0059	0.0089	15.0342	3.0232	12.7788	0.6486	0.1270	0.7438	-0.1001
5.3	-9.6696	0.1309	-1.3049	0.0005	-0.0049	0.0040	15.0680	3.1673	12.5431	0.6485	0.1270	0.7437	-0.1001
5.31	-9.6700	0.1518	-1.3237	-0.0000	-0.0013	0.0078	14.9497	3.1214	12.3625	0.6486	0.1270	0.7438	-0.1001
5.32	-9.6446	0.1666	-1.3217	-0.0043	-0.0033	0.0090	14.8612	3.0365	12.6701	0.6485	0.1270	0.7438	-0.1001
5.33	-9.6552	0.1604	-1.3269	0.0000	-0.0031	0.0009	14.9675	3.0754	12.6196	0.6485	0.1270	0.7438	-0.1001
5.34	-9.6555	0.1702	-1.3377	0.0024	-0.0029	0.0061	14.9751	3.0456	12.6746	0.6485	0.1270	0.7438	-0.1002
5.35	-9.6618	0.1563	-1.3517	0.0008	-0.0087	0.0043	14.9762	3.0846	12.4707	0.6485	0.1270	0.7438	-0.1002
5.36	-9.6527	0.1429	-1.3521	0.0008	-0.0049	0.0085	15.1519	3.0060	12.5357	0.6485	0.1270	0.7439	-0.1002
5.37	-9.6613	0.1468	-1.3565	0.0031	-0.0050	0.0094	15.0583	2.9620	12.5702	0.6484	0.1270	0.7438	-0.1002
5.38	-9.6764	0.1523	-1.3740	0.0036	-0.0059	0.0101	14.9613	3.0891	12.4656	0.6485	0.1270	0.7439	-0.1002
5.39	-9.6496	0.1619	-1.3646	0.0078	-0.0151	0.0117	15.1253	2.8953	12.4363	0.6484	0.1271	0.7438	-0.1002
5.4	-9.6576	0.1754	-1.3871	0.0034	-0.0105	0.0089	15.1483	2.9591	12.3827	0.6485	0.1271	0.7439	-0.1002
5.41	-9.6746	0.1854	-1.4010	0.0004	-0.0029	0.0090	15.1434	3.0109	12.2938	0.6484	0.1271	0.7438	-0.1002
5.42	-9.6591	0.1851	-1.3932	0.0034	-0.0103	0.0084	14.9242	2.8299	12.4303	0.6484	0.1271	0.7439	-0.1002
5.43	-9.6529	0.1879	-1.3841	0.0009	-0.0143	0.0093	15.2312	3.0243	12.5024	0.6485	0.1272	0.7438	-0.1003
5.44	-9.6695	0.1834	-1.3862	-0.0035	-0.0090	0.0098	15.3832	3.0999	12.7540	0.6484	0.1271	0.7438	-0.1002
5.45	-9.6717	0.1617	-1.3870	0.0080	-0.0124	0.0083	15.4610	2.8772	12.7223	0.6485	0.1272	0.7439	-0.1003
5.46	-9.6541	0.1638	-1.3763	0.0021	-0.0067	0.0064	15.1633	2.9056	12.6529	0.6485	0.1272	0.7438	-0.1003
5.47	-9.6652	0.1529	-1.3789	0.0023	-0.0063	0.0104	15.1192	2.9892	12.6670	0.6485	0.1272	0.7439	-0.1003
5.48	-9.6709	0.1536	-1.3819	0.0067	-0.0062	0.0054	15.0868	3.1137	12.4431	0.6484	0.1272	0.7438	-0.1003
5.49	-9.6620	0.1627	-1.3670	0.0037	-0.0049	0.0060	14.8821	3.2240	12.5734	0.6484	0.1272	0.7439	-0.1003
5.5	-9.6558	0.1612	-1.3726	0.0015	-0.0011	0.0053	14.8479	3.1048	12.5324	0.6484	0.1272	0.7439	-0.1003
5.51	-9.6615	0.1847	-1.3758	0.0001	-0.0026	0.0052	14.8753	2.9071	12.2833	0.6484	0.1272	0.7439	-0.1003
5.52	-9.6729	0.1752	-1.3676	0.0023	-0.0050	0.0046	14.7660	3.0434	12.3034	0.6484	0.1272	0.7439	-0.1004
5.53	-9.6496	0.1792	-1.3398	-0.0006	-0.0035	0.0021	14.9126	3.1307	12.5076	0.6483	0.1272	0.7439	-0.1004
5.54	-9.6633	0.1696	-1.3501	-0.0021	-0.0132	0.0057	14.9473	3.0716	12.4408	0.6484	0.1272	0.7439	-0.1004
5.55	-9.6601	0.1596	-1.3338	-0.0016	-0.0082	0.0051	14.9298	3.2223	12.5332	0.6483	0.1272	0.7438	-0.1004
5.56	-9.6473	0.1435	-1.3147	0.0010	-0.0074	0.0045	14.9334	3.0384	12.7005	0.6484	0.1272	0.7439	-0.1004
5.57	-9.6729	0.1438	-1.3356	-0.0012	-0.0114	0.0036	15.0862	2.7849	12.5294	0.6483	0.1272	0.7439	-0.1004
5.58	-9.6719	0.1554	-1.3305	0.0002	-0.0043	0.0006	15.0983	2.9718	12.5127	0.6483	0.1272	0.7439	-0.1004
5.59	-9.6402	0.1635	-1.3050	-0.0024	-0.0075	0.0057	15.1007	2.8454	12.5965	0.6483	0.1272	0.7439	-0.1004
5.6	-9.6654	0.1640	-1.3123	-0.0020	-0.0111	0.0061	15.1965	2.8726	12.4125	0.6483	0.1272	0.7439	-0.1004
5.61	-9.6711	0.1707	-1.3279	0.0038	-0.0041	0.0020	14.9979	2.8479	12.5641	0.6483	0.1272	0.7439	-0.1005
5.62	-9.6634	0.1734	-1.3026	0.0041	-0.0057	0.0053	15.0892	2.9312	12.5500	0.6482	0.1272	0.7439	-0.1005
5.63	-9.6528	0.1654	-1.2932	-0.0007	-0.0070	0.0061	15.2029	2.9746	12.4872	0.6483	0.1272	0.7440	-0.1005
5.64	-9.6666	0.1678	-1.3151	-0.0018	-0.0107	0.0085	15.1531	2.8860	12.4154	0.6483	0.1272	0.7439	-0.1005
5.65	-9.6637	0.1661	-1.3259	-0.0057	-0.0023	0.0095	15.0196	2.9013	12.4296	0.6483	0.1272	0.7440	-0.1005
5.66	-9.6472	0.1595	-1.3118	-0.0026	-0.0075	0.0057	15.0164	3.0453	12.5734	0.6482	0.1271	0.7439	-0.1005
5.67	-9.6591	0.1484	-1.3243	-0.0041	-0.0084	0.0061	15.0093	3.1289	12.5532	0.6483	0.1271	0.7440	-0.1005
5.68	-9.6664	0.1533	-1.3407	0.0013	-0.0046	0.0051	14.8611	3.2469	12.5304	0.6483	0.1271	0.7440	-0.1005
5.69	-9.6479	0.1501	-1.3343	0.0023	-0.0033	0.0067	14.8511	3.3106	12.5757	0.6482	0.1272	0.7440	-0.1005
5.7	-9.6593	0.1511	-1.3252	-0.0041	-0.0100	0.0044	14.8547	2.9481	12.4978	0.6483	0.1272	0.7441	-0.1005
5.71	-9.6746	0.1540	-1.3385	-0.0026	-0.0073	0.0050	15.0014	3.1176	12.3973	0.6482	0.1271	0.7440	-0.1005
5.72	-9.6673	0.1531	-1.3455	0.0039	-0.0058	-0.0024	15.0109	3.2200	12.4649	0.6483	0.1271	0.7441	-0.1005
5.73	-9.6482	0.1493	-1.3389	-0.0084	-0.0046	0.0064	15.1073	3.1724	12.5580	0.6482	0.1271	0.7440	-0.1005
5.74	-9.6639	0.1402	-1.3602	0.0009	-0.0030	0.0040	14.8641	3.3040	12.8382	0.6482	0.1271	0.7441	-0.1005
5.75	-9.6736	0.1236	-1.3559	0.0020	-0.0081	0.0025	14.8782	3.0645	12.5218	0.6482	0.1271	0.7440	-0.1006
5.76	-9.6593	0.0953	-1.3499	-0.0034	-0.0113	0.0082	15.0245	2.9540	12.5292	0.6482	0.1271	0.7440	-0.1005
5.77	-9.6671	0.0767	-1.3581	-0.0088	-0.0062	0.0088	15.1024	2.8437	12.2368	0.6482	0.1271	0.7441	-0.1005
5.78	-9.6770	0.0594	-1.3821	0.0059	-0.0086	0.0086	15.2427	2.6456	12.5011	0.6482	0.1271	0.7440	-0.1005
5.79	-9.6769	0.0770	-1.3861	0.0066	-0.0049	0.0088	15.2375	2.9890	12.1816	0.6482	0.1271	0.7441	-0.1005
5.8	-9.6573	0.1045	-1.3785	0.0044	-0.0040	0.0106	15.0809	3.1363	12.4609	0.6481	0.1271	0.7440	-0.1005
5.81	-9.6693	0.1497	-1.3781	0.0034	-0.0064	0.0085	14.9158	2.8879	12.5780	0.6482	0.1272	0.7441	-0.1006
5.82	-9.6675	0.1860	-1.3710	-0.0090	-0.0101	0.0087	15.0934	3.1466	12.4053	0.6481	0.1272	0.7440	-0.1005
5.83	-9.6673	0.2104	-1.3748	0.0024	-0.0073	0.0093	15.0900	2.9666	12.5717	0.6482	0.1272	0.7441	-0.1005
5.84	-9.6496	0.2163	-1.3579	-0.0017	-0.0095	0.0087	15.1895	2.9235	12.5566	0.6481	0.1272	0.7440	-0.1005
5.85	-9.6841	0.1999	-1.3837	0.0004	-0.0126	0.0058	14.9385	3.0874	12.4323	0.6482	0.1272	0.7440	-0.1005
5.86	-9.6586	0.2054	-1.3437	-0.0003	-0.0105	0.0098	14.9781	3.2889	12.5197	0.6482	0.1272	0.7440	-0.1005
5.87	-9.6538	0.2003	-1.3379	-0.0010	-0.0138	0.0097	15.0499	3.1983	12.5743	0.6482	0.1272	0.7440	-0.1005
5.88	-9.6846	0.1945	-1.3696	-0.0020	-0.0127	0.0059	14.8826	3.0847	12.5206	0.6483	0.1272	0.7440	-0.1005
5.89	-9.6552	0.1900	-1.3465	-0.0002	-0.0089	0.0038	14.8776	3.1149	12.7540	0.6482	0.1272	0.7440	-0.1005
5.9	-9.6489	0.1955	-1.3203	0.0032	-0.0082	0.0044	14.9675	3.0976	12.5945	0.6483	0.1272	0.7440	-0.1006
5.91	-9.6648	0.1916	-1.3286	0.0048	-0.0096	0.0060	14.8473	3.1148	12.3687	0.6482	0.1272	0.7439	-0.1006
5.92	-9.6511	0.1972	-1.3102	-0.0016	-0.0062	0.0068	14.7495	3.0843	12.4449	0.6482	0.1272	0.7440	-0.1006
5.93	-9.6693	0.1918	-1.3092	-0.0050	-0.0111	-0.0012	15.0119	3.1561	12.5802	0.6482	0.1272	0.7440	-0.1006
5.94	-9.6733	0.1880	-1.3137	0.0044	-0.0092	0.0063	15.2089	3.2243	12.6127	0.6482	0.1272	0.7439	-0.1006
5.95	-9.6533	0.1924	-1.2896	0.0005	-0.0070	0.0135	15.1519	3.0752	12.3222	0.6483	0.1272	0.7440	-0.1006
5.96	-9.6654	0.1970	-1.2999	0.0028	-0.0105	0.0091	15.2725	3.0549	12.5236	0.6482	0.1272	0.7440	-0.1006
5.97	-9.6481	0.1983	-1.3024	-0.0005	-0.0158	0.0043	15.2636	2.9428	12.4312	0.6483	0.1272	0.7440	-0.1006
5.98	-9.6471	0.1915	-1.3060	0.0008	-0.0116	0.0118	15.0561	2.7821	12.4719	0.6482	0.1272	0.7439	-0.1006
5.99	-9.6641	0.1775	-1.3232	-0.0031	-0.0111	0.0059	15.1568	3.0675	12.4736	0.6483	0.1272	0.7439	-0.1006
6	-9.6470	0.1587	-1.3176	-0.0064	-0.0082	0.0076	15.0548	3.1913	12.4482	0.6483	0.1272	0.7439	-0.1006
6.01	-9.6532	0.1278	-1.3265	-0.0055	-0.0153	-0.0029	15.0321	3.0609	12.4894	0.6483	0.1272	0.7439	-0.1006
6.02	-9.6730	0.1136	-1.3416	-0.0080	-0.0095	0.0054	15.0346	3.0732	12.3381	0.6483	0.1271	0.7439	-0.1006
6.03	-9.6738	0.0970	-1.3452	-0.0020	-0.0116	0.0093	15.0611	2.9303	12.4393	0.6483	0.1271	0.7439	-0.1006
6.04	-9.6659	0.0876	-1.3438	-0.0049	-0.0115	0.0102	15.1562	3.1107	12.4445	0.6484	0.1271	0.7439	-0.1006
6.05	-9.6583	0.1004	-1.3404	-0.0027	-0.0110	0.0034	15.0162	3.1897	12.6379	0.6483	0.1271	0.7438	-0.1006
6.06	-9.6661	0.1115	-1.3557	0.0032	-0.0047	0.0034	14.9459	2.9018	12.6322	0.6484	0.1271	0.7439	-0.1006
6.07	-9.6673	0.1303	-1.3529	0.0027	-0.0072	0.0044	14.9568	3.0880	12.3660	0.6483	0.1271	0.7439	-0.1006
6.08	-9.6723	0.1322	-1.3573	0.0017	-0.0056	0.0065	14.9599	2.9304	12.6226	0.6484	0.1271	0.7439	-0.1006
6.09	-9.6636	0.1534	-1.3620	0.0034	-0.0091	0.0105	14.9487	2.7979	12.3039	0.6483	0.1272	0.7439	-0.1006
6.1	-9.6436	0.1530	-1.3437	-0.0010	-0.0036	0.0038	14.9830	2.9361	12.4931	0.6483	0.1272	0.7439	-0.1007
6.11	-9.6580	0.1515	-1.3540	-0.0033	-0.0065	0.0052	14.8830	3.0525	12.4916	0.6483	0.1272	0.7439	-0.1007
6.12	-9.6785	0.1561	-1.3589	0.0020	-0.0132	0.0107	14.9300	3.0635	12.5331	0.6483	0.1272	0.7438	-0.1006
6.13	-9.6509	0.1415	-1.3399	-0.0006	-0.0102	0.0114	15.1542	2.9935	12.6413	0.6484	0.1272	0.7439	-0.1006
6.14	-9.6510	0.1382	-1.3483	-0.0010	-0.0132	0.0099	15.0894	2.9307	12.5694	0.6484	0.1272	0.7438	-0.1006
6.15	-9.6755	0.1402	-1.3590	-0.0012	-0.0079	0.0087	15.1649	2.9443	12.6461	0.6484	0.1272	0.7439	-0.1006
6.16	-9.6619	0.1317	-1.3482	0.0029	-0.0071	0.0104	15.3153	3.1027	12.3248	0.6484	0.1272	0.7438	-0.1006
6.17	-9.6426	0.1355	-1.3165	0.0012	-0.0158	0.0078	15.1224	2.7259	12.4265	0.6484	0.1272	0.7438	-0.1006
6.18	-9.6719	0.1366	-1.3440	-0.0027	-0.0079	0.0063	15.0150	2.9346	12.3371	0.6484	0.1272	0.7438	-0.1006
6.19	-9.6678	0.1348	-1.3524	-0.0007	-0.0138	0.0119	15.0554	3.0894	12.4797	0.6484	0.1272	0.7437	-0.1006
6.2	-9.6418	0.1356	-1.3286	-0.0039	-0.0109	0.0086	14.8552	2.9480	12.5324	0.6485	0.1272	0.7438	-0.1006
6.21	-9.6570	0.1304	-1.3440	-0.0024	-0.0114	0.0098	14.8667	3.1551	12.4677	0.6485	0.1272	0.7437	-0.1006
6.22	-9.6770	0.1277	-1.3500	-0.0022	-0.0114	0.0108	14.9328	3.0667	12.3760	0.6485	0.1273	0.7438	-0.1006
6.23	-9.6574	0.1314	-1.3635	-0.0024	-0.0128	0.0088	15.0407	3.1527	12.4664	0.6485	0.1272	0.7437	-0.1006
6.24	-9.6685	0.1464	-1.3685	-0.0006	-0.0069	0.0040	14.9499	3.1299	12.5449	0.6485	0.1273	0.7437	-0.1006
6.25	-9.6571	0.1643	-1.3617	0.0022	-0.0208	0.0014	15.0700	3.0446	12.6071	0.6486	0.1272	0.7437	-0.1006
6.26	-9.6610	0.1899	-1.3480	0.0006	-0.0128	0.0040	15.0062	3.0678	12.3035	0.6486	0.1272	0.7436	-0.1006
6.27	-9.6514	0.2144	-1.3370	-0.0048	-0.0109	0.0082	15.1655	3.1652	12.2849	0.6486	0.1272	0.7437	-0.1006
6.28	-9.6525	0.2001	-1.3307	-0.0004	-0.0086	0.0089	14.8112	2.9994	12.6517	0.6486	0.1272	0.7436	-0.1006
6.29	-9.6519	0.1857	-1.3349	-0.0080	-0.0096	0.0030	14.8520	2.9896	12.4330	0.6486	0.1272	0.7437	-0.1006
6.3	-9.6460	0.1690	-1.3319	-0.0037	-0.0141	0.0055	14.8772	2.8863	12.5589	0.6486	0.1272	0.7436	-0.1006
6.31	-9.6493	0.1633	-1.3180	0.0003	-0.0097	0.0118	14.8895	3.0164	12.5553	0.6487	0.1272	0.7436	-0.1006
6.32	-9.6595	0.1628	-1.3212	0.0115	-0.0135	0.0080	14.9675	3.0721	12.5251	0.6487	0.1272	0.7436	-0.1006
6.33	-9.6493	0.1738	-1.3133	0.0081	-0.0081	0.0035	15.0007	3.0799	12.3639	0.6487	0.1273	0.7436	-0.1007
6.34	-9.6496	0.1779	-1.2966	-0.0000	-0.0143	0.0102	15.1537	2.9622	12.3875	0.6487	0.1273	0.7435	-0.1007
6.35	-9.6681	0.1987	-1.3108	0.0035	-0.0115	0.0098	14.9738	3.0213	12.4958	0.6487	0.1273	0.7435	-0.1007
6.36	-9.6809	0.2089	-1.3274	0.0014	-0.0124	0.0082	15.1309	2.8847	12.6117	0.6487	0.1273	0.7435	-0.1007
6.37	-9.6715	0.2100	-1.3144	0.0052	-0.0115	0.0041	15.0259	3.0680	12.4143	0.6487	0.1273	0.7434	-0.1007
6.38	-9.6440	0.2065	-1.3148	-0.0003	-0.0057	0.0107	15.0561	3.0492	12.6383	0.6488	0.1274	0.7435	-0.1007
6.39	-9.6606	0.1733	-1.3249	0.0035	-0.0048	0.0083	15.1055	2.9929	12.5342	0.6487	0.1274	0.7435	-0.1007
6.4	-9.6623	0.1386	-1.3233	-0.0040	-0.0076	0.0059	14.9941	3.1149	12.2541	0.6488	0.1274	0.7436	-0.1007
6.41	-9.6484	0.1283	-1.3287	-0.0008	-0.0113	0.0063	15.1636	2.9540	12.2909	0.6487	0.1274	0.7434	-0.1007
6.42	-9.6558	0.1186	-1.3395	-0.0007	-0.0086	0.0088	14.9614	3.1165	12.4446	0.6487	0.1274	0.7435	-0.1007
6.43	-9.6551	0.1265	-1.3582	-0.0101	-0.0039	0.0011	15.0092	3.0042	12.7633	0.6487	0.1273	0.7435	-0.1007
6.44	-9.6511	0.1351	-1.3438	0.0017	-0.0005	0.0062	15.2973	3.2541	12.7038	0.6487	0.1273	0.7435	-0.1007
6.45	-9.6655	0.1481	-1.3477	-0.0026	-0.0066	0.0044	15.2501	3.2125	12.7469	0.6488	0.1273	0.7436	-0.1007
6.46	-9.6676	0.1606	-1.3656	-0.0077	-0.0016	0.0004	15.2288	3.0714	12.5308	0.6487	0.1273	0.7435	-0.1007
6.47	-9.6654	0.1781	-1.3696	-0.0100	-0.0061	0.0099	15.1250	3.1403	12.4897	0.6487	0.1273	0.7436	-0.1007
6.48	-9.6636	0.1758	-1.3703	0.0038	-0.0069	-0.0019	14.9626	3.0160	12.5691	0.6486	0.1272	0.7435	-0.1007
6.49	-9.6643	0.1655	-1.3694	-0.0015	-0.0046	0.0009	15.1533	3.1347	12.5344	0.6487	0.1272	0.7436	-0.1007
6.5	-9.6703	0.1394	-1.3563	-0.0063	-0.0079	0.0062	14.8675	3.1017	12.3985	0.6487	0.1272	0.7436	-0.1007
6.51	-9.6648	0.1311	-1.3517	0.0017	-0.0127	0.0066	14.9659	2.8320	12.3490	0.6487	0.1272	0.7435	-0.1007
6.52	-9.6702	0.1289	-1.3477	0.0039	-0.0092	0.0080	15.2431	3.0880	12.5111	0.6487	0.1272	0.7436	-0.1007
6.53	-9.6677	0.1497	-1.3540	0.0022	-0.0118	0.0098	15.2375	2.9508	12.4074	0.6487	0.1273	0.7435	-0.1007
6.54	-9.6701	0.1558	-1.3568	0.0009	-0.0083	0.0011	15.1257	2.8819	12.4244	0.6487	0.1273	0.7435	-0.1007
6.55	-9.6700	0.1578	-1.3584	0.0086	-0.0084	0.0071	15.0623	2.9972	12.5606	0.6487	0.1273	0.7435	-0.1008
6.56	-9.6587	0.1660	-1.3529	0.0008	-0.0124	0.0101	15.1585	2.9045	12.5752	0.6488	0.1273	0.7435	-0.1008
6.57	-9.6646	0.1520	-1.3506	-0.0023	-0.0062	0.0010	15.1088	2.8713	12.4985	0.6487	0.1273	0.7435	-0.1008
6.58	-9.6671	0.1317	-1.3489	0.0035	-0.0059	0.0019	14.9652	2.8433	12.5104	0.6487	0.1273	0.7435	-0.1008
6.59	-9.6660	0.1429	-1.3502	0.0044	-0.0082	0.0107	15.2095	2.9778	12.6784	0.6487	0.1273	0.7435	-0.1008
6.6	-9.6542	0.1462	-1.3464	-0.0013	-0.0127	0.0099	15.0512	3.0280	12.6109	0.6487	0.1273	0.7435	-0.1008
6.61	-9.6506	0.1426	-1.3477	0.0003	-0.0062	0.0023	14.7870	3.0769	12.2799	0.6488	0.1273	0.7435	-0.1008
6.62	-9.6712	0.1355	-1.3497	0.0077	-0.0029	0.0030	14.8547	3.1260	12.3601	0.6487	0.1273	0.7434	-0.1009
6.63	-9.6611	0.1338	-1.3382	0.0004	-0.0058	0.0080	14.9434	3.1027	12.4734	0.6487	0.1273	0.7435	-0.1009
6.64	-9.6354	0.1405	-1.3392	-0.0021	-0.0035	0.0026	14.7057	3.2462	12.4681	0.6487	0.1273	0.7435	-0.1009
6.65	-9.6647	0.1410	-1.3466	-0.0034	-0.0084	0.0024	14.8713	3.0847	12.6449	0.6487	0.1273	0.7436	-0.1009
6.66	-9.6603	0.1442	-1.3537	0.0026	-0.0127	0.0034	14.8434	3.2182	12.5533	0.6487	0.1273	0.7435	-0.1009
6.67	-9.6558	0.1518	-1.3421	0.0002	-0.0063	0.0077	14.8766	3.1517	12.5032	0.6487	0.1273	0.7435	-0.1009
6.68	-9.6677	0.1679	-1.3477	0.0029	-0.0079	0.0036	15.1539	3.1229	12.4836	0.6487	0.1273	0.7435	-0.1009
6.69	-9.6732	0.1683	-1.3531	-0.0025	-0.0100	0.0108	14.9147	3.0272	12.6593	0.6487	0.1273	0.7434	-0.1009
6.7	-9.6511	0.1693	-1.3372	-0.0060	-0.0149	0.0131	15.0504	3.0497	12.5419	0.6488	0.1273	0.7435	-0.1009
6.71	-9.6529	0.1816	-1.3380	0.0028	-0.0078	0.0079	15.2248	2.8509	12.3980	0.6487	0.1273	0.7434	-0.1009
6.72	-9.6618	0.1808	-1.3285	0.0015	-0.0101	0.0073	15.1669	3.0056	12.2117	0.6488	0.1273	0.7435	-0.1009
6.73	-9.6481	0.1766	-1.3438	-0.0024	-0.0143	0.0049	15.1927	3.0312	12.5875	0.6487	0.1273	0.7434	-0.1009
6.74	-9.6620	0.1693	-1.3423	0.0002	-0.0193	0.0051	15.1599	3.0755	12.6478	0.6488	0.1273	0.7434	-0.1009
6.75	-9.6573	0.1622	-1.3389	0.0019	-0.0096	0.0083	15.2041	3.0575	12.4710	0.6488	0.1273	0.7434	-0.1009
6.76	-9.6633	0.1763	-1.3469	0.0027	-0.0068	0.0083	15.1102	2.8410	12.4758	0.6488	0.1273	0.7434	-0.1009
6.77	-9.6573	0.1727	-1.3341	0.0064	-0.0077	0.0067	15.0131	2.8634	12.4571	0.6488	0.1274	0.7434	-0.1010
6.78	-9.6655	0.1710	-1.3365	-0.0022	-0.0133	0.0077	15.0163	2.9058	12.4975	0.6488	0.1274	0.7433	-0.1010
6.79	-9.6700	0.1670	-1.3403	0.0004	-0.0144	0.0108	15.0352	3.1355	12.5876	0.6489	0.1274	0.7434	-0.1010
6.8	-9.6545	0.1667	-1.3436	-0.0051	-0.0034	0.0024	14.9287	3.1021	12.4435	0.6488	0.1273	0.7433	-0.1009
6.81	-9.6549	0.1600	-1.3355	0.0025	-0.0069	0.0008	14.9570	3.1129	12.4704	0.6489	0.1273	0.7434	-0.1010
6.82	-9.6487	0.1599	-1.3383	0.0001	-0.0045	0.0080	15.1781	3.1253	12.6130	0.6488	0.1274	0.7433	-0.1010
6.83	-9.6535	0.1544	-1.3499	-0.0016	-0.0030	0.0040	14.9346	3.0810	12.6706	0.6488	0.1273	0.7434	-0.1010
6.84	-9.6551	0.1481	-1.3560	0.0012	-0.0027	0.0052	14.8617	3.3069	12.4146	0.6488	0.1274	0.7434	-0.1010
6.85	-9.6613	0.1333	-1.3539	-0.0064	-0.0067	0.0056	14.9399	3.3546	12.7327	0.6488	0.1273	0.7434	-0.1010
6.86	-9.6680	0.1343	-1.3597	-0.0003	-0.0073	0.0024	14.9694	3.2089	12.4490	0.6488	0.1273	0.7434	-0.1010
6.87	-9.6619	0.1361	-1.3614	-0.0053	-0.0073	0.0026	15.1189	3.1220	12.6272	0.6488	0.1273	0.7433	-0.1010
6.88	-9.6753	0.1280	-1.3534	-0.0042	-0.0133	0.0096	14.9851	3.0157	12.6417	0.6489	0.1273	0.7434	-0.1010
6.89	-9.6703	0.1303	-1.3612	-0.0045	-0.0113	0.0048	15.1983	2.7442	12.5169	0.6488	0.1273	0.7434	-0.1010
6.9	-9.6560	0.1411	-1.3493	0.0009	-0.0102	0.0084	15.3208	2.7268	12.3839	0.6489	0.1273	0.7434	-0.1010
6.91	-9.6547	0.1344	-1.3513	0.0022	-0.0063	0.0086	15.0593	2.9919	12.4760	0.6488	0.1273	0.7433	-0.1010
6.92	-9.6665	0.1471	-1.3514	-0.0001	-0.0070	0.0062	15.1406	2.9140	12.5636	0.6488	0.1273	0.7434	-0.1010
6.93	-9.6638	0.1597	-1.3586	0.0022	-0.0063	0.0092	15.1783	2.6867	12.6067	0.6488	0.1273	0.7434	-0.1010
6.94	-9.6522	0.1711	-1.3456	0.0090	-0.0062	0.0014	15.2355	3.0563	12.6756	0.6488	0.1273	0.7433	-0.1010
6.95	-9.6625	0.1748	-1.3501	0.0048	-0.0104	0.0088	15.3664	3.0963	12.5262	0.6489	0.1273	0.7434	-0.1010
6.96	-9.6636	0.1744	-1.3560	0.0032	-0.0038	0.0032	15.0906	3.2604	12.4022	0.6488	0.1273	0.7434	-0.1010
6.97	-9.6523	0.1819	-1.3290	-0.0012	-0.0050	0.0098	15.1703	2.9975	12.4353	0.6488	0.1273	0.7434	-0.1010
6.98	-9.6634	0.1732	-1.3218	-0.0036	-0.0074	0.0103	14.9080	2.9718	12.4647	0.6488	0.1273	0.7433	-0.1010
6.99	-9.6720	0.1636	-1.3406	-0.0028	-0.0064	0.0042	15.1458	3.1242	12.4952	0.6488	0.1273	0.7434	-0.1010
7	-9.6665	0.1677	-1.3331	-0.0015	-0.0049	0.0056	15.0289	2.9593	12.5836	0.6488	0.1273	0.7434	-0.1010
7.01	-9.6633	0.1681	-1.3267	-0.0015	-0.0014	0.0001	14.7376	3.0910	12.5395	0.6487	0.1273	0.7434	-0.1010
7.02	-9.6631	0.1630	-1.3347	0.0008	-0.0044	0.0062	15.0439	3.0362	12.5664	0.6488	0.1273	0.7435	-0.1010
7.03	-9.6562	0.1652	-1.3336	0.0044	-0.0052	0.0068	15.0195	3.0489	12.5554	0.6487	0.1273	0.7435	-0.1010
7.04	-9.6508	0.1759	-1.3202	0.0008	-0.0056	0.0104	14.9592	3.1081	12.5485	0.6487	0.1274	0.7435	-0.1010
7.05	-9.6546	0.1753	-1.3219	0.0041	-0.0019	0.0022	14.9727	3.1435	12.6408	0.6486	0.1274	0.7434	-0.1011
7.06	-9.6648	0.1862	-1.3274	-0.0014	-0.0096	0.0113	15.0754	3.1453	12.4454	0.6487	0.1274	0.7435	-0.1011
7.07	-9.6572	0.1683	-1.3188	0.0017	-0.0113	0.0056	15.0375	3.0909	12.4710	0.6487	0.1274	0.7435	-0.1011
7.08	-9.6630	0.1613	-1.3449	0.0043	-0.0110	0.0080	15.1260	2.7824	12.4979	0.6487	0.1274	0.7435	-0.1011
7.09	-9.6673	0.1551	-1.3489	-0.0062	-0.0104	0.0087	15.1524	2.9063	12.3676	0.6487	0.1274	0.7434	-0.1011
7.1	-9.6563	0.1357	-1.3410	-0.0004	-0.0050	0.0100	15.1273	2.8894	12.4238	0.6487	0.1274	0.7435	-0.1011
7.11	-9.6566	0.1301	-1.3503	-0.0049	-0.0112	0.0084	15.1558	3.0742	12.5099	0.6487	0.1274	0.7435	-0.1010
7.12	-9.6662	0.1310	-1.3499	-0.0068	-0.0069	0.0106	15.0531	2.9728	12.7583	0.6487	0.1274	0.7434	-0.1010
7.13	-9.6715	0.1309	-1.3549	-0.0028	-0.0075	0.0004	14.9546	2.8780	12.6090	0.6488	0.1274	0.7435	-0.1010
7.14	-9.6503	0.1227	-1.3541	-0.0074	-0.0097	0.0005	15.1288	2.8788	12.5726	0.6487	0.1273	0.7435	-0.1010
7.15	-9.6495	0.1347	-1.3310	-0.0097	-0.0080	0.0066	15.1322	2.9574	12.4926	0.6488	0.1273	0.7435	-0.1010
7.16	-9.6591	0.1365	-1.3386	-0.0017	-0.0129	0.0075	15.1562	2.9869	12.4726	0.6487	0.1273	0.7434	-0.1010
7.17	-9.6680	0.1341	-1.3404	-0.0042	-0.0096	0.0110	14.9901	2.8536	12.5749	0.6488	0.1273	0.7435	-0.1010
7.18	-9.6555	0.1325	-1.3268	0.0011	-0.0034	0.0065	15.0167	3.1080	12.5946	0.6487	0.1273	0.7435	-0.1010
7.19	-9.6557	0.1388	-1.3338	-0.0020	-0.0036	0.0016	15.0707	3.1541	12.6809	0.6487	0.1273	0.7434	-0.1010
7.2	-9.6577	0.1371	-1.3395	-0.0066	-0.0082	0.0015	14.9588	3.1171	12.5162	0.6488	0.1273	0.7435	-0.1010
7.21	-9.6606	0.1352	-1.3457	0.0009	-0.0073	0.0074	15.0987	3.2920	12.5934	0.6487	0.1273	0.7435	-0.1010
7.22	-9.6683	0.1369	-1.3593	-0.0089	-0.0070	0.0025	14.9840	3.0697	12.4586	0.6487	0.1273	0.7435	-0.1010
7.23	-9.6596	0.1403	-1.3543	-0.0072	-0.0094	0.0036	14.9626	2.9767	12.6323	0.6487	0.1272	0.7434	-0.1009
7.24	-9.6386	0.1578	-1.3341	0.0047	-0.0050	0.0064	14.9838	3.1340	12.7824	0.6487	0.1272	0.7435	-0.1010
7.25	-9.6696	0.1558	-1.3384	0.0048	-0.0127	0.0114	15.2526	2.9011	12.4935	0.6487	0.1272	0.7435	-0.1010
7.26	-9.6805	0.1562	-1.3572	-0.0043	-0.0112	0.0081	15.1176	3.0842	12.4904	0.6487	0.1272	0.7435	-0.1009
7.27	-9.6530	0.1488	-1.3327	0.0022	-0.0050	0.0033	15.2500	2.9591	12.4322	0.6487	0.1272	0.7435	-0.1010
7.28	-9.6522	0.1446	-1.3411	0.0020	-0.0052	0.0102	15.1668	2.9775	12.4573	0.6487	0.1273	0.7435	-0.1010
7.29	-9.6588	0.1613	-1.3561	-0.0046	-0.0041	0.0102	15.1715	2.9873	12.5569	0.6487	0.1273	0.7435	-0.1009
7.3	-9.6562	0.1676	-1.3481	0.0012	-0.0090	0.0132	15.2595	2.8870	12.4232	0.6486	0.1273	0.7435	-0.1009
7.31	-9.6605	0.1949	-1.3573	0.0003	-0.0069	0.0086	14.9807	2.9949	12.6271	0.6487	0.1273	0.7435	-0.1009
7.32	-9.6623	0.2010	-1.3396	-0.0066	-0.0067	0.0102	15.0068	3.0864	12.3201	0.6487	0.1273	0.7435	-0.1009
7.33	-9.6660	0.2029	-1.3388	0.0000	-0.0091	0.0099	15.1482	2.9886	12.5732	0.6487	0.1273	0.7435	-0.1009
7.34	-9.6584	0.1992	-1.3476	-0.0041	-0.0020	0.0072	15.0461	2.8736	12.5345	0.6487	0.1273	0.7435	-0.1009
7.35	-9.6519	0.1873	-1.3388	0.0036	-0.0094	0.0077	15.1738	2.9079	12.5188	0.6487	0.1273	0.7435	-0.1009
7.36	-9.6676	0.1920	-1.3409	0.0029	-0.0072	0.0090	15.0661	3.2362	12.7017	0.6487	0.1273	0.7436	-0.1009
7.37	-9.6615	0.1760	-1.3359	-0.0060	-0.0055	0.0075	15.0485	3.0819	12.5489	0.6486	0.1273	0.7435	-0.1008
7.38	-9.6619	0.1715	-1.3480	-0.0025	-0.0090	0.0035	14.9711	2.8292	12.5447	0.6487	0.1273	0.7436	-0.1009
7.39	-9.6498	0.1804	-1.3369	-0.0018	-0.0140	0.0048	14.8307	2.9522	12.4784	0.6487	0.1273	0.7435	-0.1009
7.4	-9.6444	0.1692	-1.3301	-0.0050	-0.0077	0.0069	14.8395	3.2053	12.6102	0.6487	0.1273	0.7436	-0.1009
7.41	-9.6439	0.1791	-1.3255	0.0001	-0.0090	0.0059	15.1026	3.2453	12.3430	0.6486	0.1273	0.7435	-0.1009
7.42	-9.6576	0.1846	-1.3389	-0.0019	-0.0045	0.0051	14.9036	2.9554	12.5187	0.6487	0.1273	0.7436	-0.1009
7.43	-9.6640	0.1814	-1.3504	-0.0016	-0.0038	0.0056	14.9523	2.8784	12.6091	0.6486	0.1273	0.7436	-0.1009
7.44	-9.6612	0.1798	-1.3401	-0.0011	-0.0065	0.0089	15.2341	3.1595	12.7391	0.6486	0.1273	0.7435	-0.1009
7.45	-9.6592	0.1863	-1.3446	-0.0118	-0.0069	0.0082	15.2781	3.2218	12.7375	0.6487	0.1273	0.7436	-0.1008
7.46	-9.6761	0.1752	-1.3524	0.0010	-0.0051	0.0055	15.3647	2.9660	12.7147	0.6486	0.1273	0.7436	-0.1008
7.47	-9.6758	0.1675	-1.3518	-0.0117	-0.0114	0.0054	15.2649	2.8620	12.4590	0.6487	0.1272	0.7436	-0.1008
7.48	-9.6546	0.1715	-1.3471	-0.0116	-0.0110	0.0080	15.1175	2.8914	12.4550	0.6486	0.1272	0.7435	-0.1007
7.49	-9.6531	0.1598	-1.3542	-0.0103	-0.0056	0.0061	15.2713	2.9597	12.7301	0.6487	0.1272	0.7436	-0.1007
7.5	-9.6634	0.1494	-1.3494	-0.0016	-0.0058	-0.0022	14.9015	2.8444	12.7133	0.6486	0.1271	0.7436	-0.1007
7.51	-9.6705	0.1419	-1.3555	-0.0016	-0.0044	0.0027	14.9976	2.8939	12.8292	0.6486	0.1271	0.7436	-0.1007
7.52	-9.6650	0.1257	-1.3400	-0.0001	-0.0111	0.0070	14.9007	2.8580	12.7246	0.6486	0.1271	0.7437	-0.1007
7.53	-9.6776	0.1156	-1.3476	0.0044	-0.0115	0.0098	15.0597	2.9012	12.6139	0.6486	0.1272	0.7436	-0.1007
7.54	-9.6704	0.1275	-1.3547	-0.0021	-0.0059	0.0085	14.8694	3.0298	12.4875	0.6486	0.1272	0.7437	-0.1007
7.55	-9.6445	0.1390	-1.3365	-0.0030	-0.0006	-0.0021	14.8155	3.0468	12.8436	0.6485	0.1271	0.7436	-0.1007
7.56	-9.6511	0.1460	-1.3310	-0.0018	-0.0049	0.0028	14.9314	3.0250	12.6837	0.6486	0.1271	0.7437	-0.1008
7.57	-9.6637	0.1529	-1.3381	-0.0021	-0.0028	0.0027	14.7937	3.0708	12.4918	0.6485	0.1271	0.7437	-0.1008
7.58	-9.6629	0.1484	-1.3313	-0.0047	-0.0047	0.0026	14.8839	3.2011	12.6441	0.6485	0.1271	0.7437	-0.1008
7.59	-9.6593	0.1482	-1.3333	-0.0034	-0.0052	0.0098	14.6992	3.2154	12.6337	0.6485	0.1271	0.7437	-0.1007
7.6	-9.6503	0.1430	-1.3513	-0.0072	-0.0027	0.0006	14.9517	3.0563	12.6322	0.6485	0.1271	0.7437	-0.1007
7.61	-9.6609	0.1358	-1.3247	-0.0027	-0.0065	0.0040	14.9653	3.0762	12.4718	0.6485	0.1271	0.7438	-0.1007
7.62	-9.6644	0.1279	-1.3326	-0.0044	-0.0061	0.0100	14.8531	3.2186	12.4576	0.6484	0.1270	0.7437	-0.1007
7.63	-9.6574	0.1325	-1.3352	-0.0021	-0.0103	0.0111	14.7860	3.1095	12.4652	0.6485	0.1271	0.7438	-0.1007
7.64	-9.6504	0.1346	-1.3264	-0.0047	-0.0042	0.0088	14.9975	3.1065	12.4638	0.6485	0.1271	0.7438	-0.1007
7.65	-9.6601	0.1370	-1.3434	-0.0076	-0.0057	0.0096	15.2557	2.9625	12.4912	0.6485	0.1271	0.7439	-0.1006
7.66	-9.6621	0.1359	-1.3502	-0.0026	-0.0057	0.0084	14.9551	2.9575	12.3675	0.6484	0.1271	0.7438	-0.1006
7.67	-9.6557	0.1332	-1.3379	-0.0022	-0.0031	0.0125	15.1265	2.8615	12.6377	0.6484	0.1271	0.7438	-0.1006
7.68	-9.6565	0.1319	-1.3362	-0.0012	-0.0058	0.0095	15.0312	3.0582	12.6299	0.6484	0.1271	0.7438	-0.1006
7.69	-9.6595	0.1362	-1.3466	-0.0026	-0.0060	0.0083	14.9113	2.9704	12.3725	0.6484	0.1271	0.7438	-0.1006
7.7	-9.6650	0.1384	-1.3510	0.0029	-0.0039	0.0083	14.9503	2.8522	12.3838	0.6484	0.1271	0.7439	-0.1006
7.71	-9.6504	0.1384	-1.3424	-0.0066	-0.0079	0.0089	14.8658	3.0307	12.6675	0.6484	0.1271	0.7438	-0.1005
7.72	-9.6538	0.1410	-1.3443	-0.0022	-0.0115	0.0127	15.0748	3.0216	12.5587	0.6484	0.1271	0.7439	-0.1005
7.73	-9.6639	0.1352	-1.3474	-0.0044	-0.0044	0.0058	14.9919	3.2148	12.6286	0.6483	0.1271	0.7438	-0.1005
7.74	-9.6637	0.1391	-1.3524	0.0018	0.0010	0.0037	14.9187	3.0990	12.8688	0.6484	0.1271	0.7439	-0.1005
7.75	-9.6763	0.1448	-1.3508	0.0015	-0.0041	0.0026	14.9973	3.1513	12.4268	0.6483	0.1271	0.7439	-0.1005
7.76	-9.6668	0.1511	-1.3448	0.0026	-0.0023	0.0066	14.8624	3.0192	12.6284	0.6483	0.1271	0.7439	-0.1006
7.77	-9.6625	0.1653	-1.3599	-0.0001	-0.0057	0.0082	15.0518	3.3168	12.7371	0.6483	0.1272	0.7440	-0.1006
7.78	-9.6518	0.1779	-1.3415	-0.0019	-0.0042	0.0077	14.6925	3.2710	12.3402	0.6483	0.1272	0.7439	-0.1005
7.79	-9.6563	0.1768	-1.3465	-0.0007	-0.0009	-0.0036	14.9543	3.1146	12.6321	0.6483	0.1271	0.7440	-0.1006
7.8	-9.6561	0.1699	-1.3600	0.0034	-0.0041	0.0053	15.0141	3.1302	12.6505	0.6482	0.1271	0.7439	-0.1006
7.81	-9.6685	0.1544	-1.3599	-0.0006	-0.0116	0.0111	14.9080	3.3035	12.5237	0.6482	0.1272	0.7440	-0.1006
7.82	-9.6645	0.1555	-1.3521	0.0016	-0.0118	0.0083	14.8934	2.9988	12.5704	0.6482	0.1272	0.7440	-0.1006
7.83	-9.6721	0.1604	-1.3540	0.0006	-0.0092	0.0076	15.0603	2.8762	12.5478	0.6482	0.1272	0.7440	-0.1006
7.84	-9.6669	0.1764	-1.3553	0.0002	-0.0083	0.0025	15.0844	2.8807	12.5846	0.6482	0.1272	0.7440	-0.1006
7.85	-9.6612	0.1985	-1.3586	0.0001	-0.0097	0.0091	15.1046	2.9848	12.5207	0.6482	0.1272	0.7440	-0.1006
7.86	-9.6546	0.2008	-1.3548	-0.0041	-0.0055	0.0062	15.1622	2.9523	12.4636	0.6482	0.1272	0.7440	-0.1006
7.87	-9.6505	0.1940	-1.3511	0.0028	-0.0082	0.0068	14.9520	2.9603	12.4683	0.6482	0.1272	0.7439	-0.1006
7.88	-9.6586	0.1787	-1.3565	-0.0033	-0.0050	0.0068	15.1439	3.0557	12.4853	0.6482	0.1272	0.7440	-0.1006
7.89	-9.6598	0.1669	-1.3580	0.0005	-0.0075	0.0064	15.1208	3.0401	12.7279	0.6482	0.1272	0.7440	-0.1006
7.9	-9.6542	0.1524	-1.3525	0.0027	-0.0123	0.0056	15.0615	3.0537	12.5210	0.6483	0.1272	0.7440	-0.1006
7.91	-9.6499	0.1551	-1.3489	0.0008	-0.0113	0.0120	15.0983	2.9512	12.6826	0.6482	0.1272	0.7439	-0.1006
7.92	-9.6615	0.1689	-1.3488	-0.0042	-0.0057	0.0034	14.8339	3.1813	12.7007	0.6482	0.1272	0.7440	-0.1006
7.93	-9.6655	0.1786	-1.3671	-0.0038	-0.0052	-0.0048	15.0549	3.3907	12.6400	0.6482	0.1272	0.7440	-0.1006
7.94	-9.6598	0.1782	-1.3546	-0.0039	-0.0097	-0.0006	15.3378	3.3071	12.8583	0.6482	0.1271	0.7440	-0.1006
7.95	-9.6581	0.1692	-1.3330	-0.0001	-0.0086	0.0058	15.3028	3.1171	12.6982	0.6482	0.1271	0.7441	-0.1007
7.96	-9.6596	0.1714	-1.3270	0.0013	-0.0050	0.0048	15.1640	2.8996	12.6124	0.6482	0.1271	0.7440	-0.1007
7.97	-9.6671	0.1666	-1.3374	-0.0002	-0.0130	0.0046	15.0403	2.9335	12.5638	0.6482	0.1271	0.7441	-0.1007
7.98	-9.6545	0.1499	-1.3229	-0.0030	-0.0115	0.0052	14.9347	3.0560	12.3628	0.6482	0.1271	0.7440	-0.1007
7.99	-9.6583	0.1435	-1.3303	0.0022	-0.0099	0.0094	15.1074	3.2061	12.3873	0.6482	0.1271	0.7440	-0.1007
8	-9.6587	0.1528	-1.3405	0.0027	-0.0146	0.0074	14.8229	3.3090	12.7044	0.6482	0.1271	0.7440	-0.1007
8.01	-9.6606	0.1460	-1.3545	-0.0002	-0.0115	0.0110	14.8957	2.8378	12.6838	0.6482	0.1271	0.7440	-0.1007
8.02	-9.6779	0.1538	-1.3515	0.0001	-0.0124	0.0061	15.3088	3.0334	12.5256	0.6483	0.1271	0.7440	-0.1007
8.03	-9.6546	0.1540	-1.3388	0.0029	-0.0114	0.0122	15.1105	3.0346	12.4636	0.6483	0.1272	0.7439	-0.1007
8.04	-9.6513	0.1625	-1.3229	-0.0003	-0.0104	0.0067	15.0850	2.7626	12.4788	0.6483	0.1272	0.7440	-0.1007
8.05	-9.6590	0.1512	-1.3355	0.0059	-0.0124	0.0101	15.2371	2.9972	12.4712	0.6482	0.1272	0.7439	-0.1007
8.06	-9.6727	0.1488	-1.3474	-0.0028	-0.0143	0.0118	15.1220	2.9771	12.5769	0.6483	0.1272	0.7439	-0.1007
8.07	-9.6560	0.1397	-1.3325	0.0013	-0.0113	0.0101	14.9634	3.1267	12.5448	0.6483	0.1272	0.7439	-0.1007
8.08	-9.6532	0.1309	-1.3481	0.0014	-0.0103	0.0078	14.8441	2.8828	12.5675	0.6483	0.1273	0.7439	-0.1007
8.09	-9.6713	0.1441	-1.3611	-0.0001	-0.0120	0.0035	15.0946	2.9915	12.4706	0.6483	0.1272	0.7439	-0.1007
8.1	-9.6493	0.1616	-1.3482	0.0021	-0.0149	0.0086	15.0374	3.0740	12.3300	0.6483	0.1273	0.7438	-0.1007
8.11	-9.6416	0.1709	-1.3400	0.0005	-0.0081	0.0038	14.9146	2.8811	12.4789	0.6484	0.1273	0.7439	-0.1007
8.12	-9.6554	0.1631	-1.3528	-0.0062	-0.0033	0.0066	14.8325	2.9477	12.3823	0.6483	0.1272	0.7438	-0.1007
8.13	-9.6726	0.1588	-1.3495	-0.0011	-0.0096	0.0091	14.7866	3.2061	12.2759	0.6484	0.1273	0.7439	-0.1007
8.14	-9.6577	0.1593	-1.3493	-0.0037	-0.0110	0.0098	15.0326	3.1775	12.7226	0.6483	0.1273	0.7438	-0.1007
8.15	-9.6507	0.1726	-1.3472	-0.0003	-0.0037	0.0025	15.1896	2.9360	12.7041	0.6484	0.1273	0.7439	-0.1007
8.16	-9.6564	0.1732	-1.3551	0.0048	-0.0069	0.0011	14.9489	3.0885	12.4218	0.6483	0.1272	0.7438	-0.1007
8.17	-9.6774	0.1792	-1.3699	0.0016	-0.0025	0.0067	15.1883	3.1454	12.5146	0.6483	0.1273	0.7439	-0.1007
8.18	-9.6715	0.1973	-1.3624	0.0046	-0.0084	0.0050	14.9356	2.9855	12.5587	0.6483	0.1273	0.7439	-0.1007
8.19	-9.6428	0.1975	-1.3364	0.0011	-0.0088	0.0086	15.0792	2.9756	12.5741	0.6483	0.1273	0.7438	-0.1007
8.2	-9.6593	0.1969	-1.3495	0.0038	-0.0120	0.0084	14.9359	2.8961	12.5253	0.6484	0.1273	0.7439	-0.1008
8.21	-9.6737	0.1915	-1.3686	-0.0017	-0.0145	0.0096	15.1841	2.8766	12.3685	0.6483	0.1273	0.7438	-0.1008
8.22	-9.6493	0.1792	-1.3429	0.0028	-0.0065	0.0033	15.3807	2.9844	12.5832	0.6484	0.1273	0.7439	-0.1008
8.23	-9.6548	0.1718	-1.3413	0.0033	-0.0127	0.0061	15.0137	2.9026	12.5561	0.6483	0.1273	0.7438	-0.1008
8.24	-9.6725	0.1620	-1.3534	0.0041	-0.0090	0.0061	15.1811	2.7898	12.5566	0.6483	0.1273	0.7439	-0.1008
8.25	-9.6581	0.1613	-1.3524	0.0013	-0.0058	0.0107	15.0806	2.9983	12.4309	0.6483	0.1273	0.7438	-0.1008
8.26	-9.6567	0.1671	-1.3404	0.0019	-0.0132	0.0113	15.0503	2.9029	12.5161	0.6483	0.1274	0.7438	-0.1008
8.27	-9.6695	0.1678	-1.3600	0.0049	-0.0103	0.0018	14.9848	2.8865	12.3322	0.6484	0.1274	0.7438	-0.1008
8.28	-9.6539	0.1675	-1.3545	0.0059	-0.0076	0.0004	15.0865	3.0315	12.3355	0.6483	0.1274	0.7438	-0.1009
8.29	-9.6533	0.1700	-1.3416	0.0026	-0.0085	0.0064	15.0156	2.8860	12.5852	0.6484	0.1274	0.7438	-0.1009
8.3	-9.6604	0.1794	-1.3406	0.0001	-0.0047	0.0031	14.8599	2.9718	12.5451	0.6483	0.1274	0.7438	-0.1009
8.31	-9.6609	0.1621	-1.3518	-0.0014	-0.0047	0.0010	15.0391	3.0764	12.4546	0.6483	0.1274	0.7439	-0.1009
8.32	-9.6688	0.1564	-1.3506	-0.0007	-0.0070	0.0094	15.0111	3.0648	12.6425	0.6483	0.1274	0.7438	-0.1009
8.33	-9.6613	0.1472	-1.3520	-0.0027	-0.0051	0.0058	14.9657	3.0004	12.5891	0.6483	0.1274	0.7439	-0.1009
8.34	-9.6609	0.1450	-1.3692	-0.0030	-0.0058	0.0088	14.9715	2.9561	12.4419	0.6483	0.1274	0.7438	-0.1009
8.35	-9.6600	0.1506	-1.3622	-0.0001	-0.0043	0.0034	14.8940	2.8886	12.4947	0.6483	0.1274	0.7439	-0.1009
8.36	-9.6613	0.1336	-1.3562	-0.0012	-0.0097	0.0088	15.0439	3.0725	12.6262	0.6483	0.1274	0.7439	-0.1009
8.37	-9.6731	0.1338	-1.3567	0.0044	-0.0126	0.0083	15.0741	2.9931	12.6727	0.6482	0.1274	0.7438	-0.1009
8.38	-9.6493	0.1265	-1.3241	-0.0034	-0.0144	0.0047	15.0158	2.8608	12.4190	0.6483	0.1274	0.7439	-0.1009
8.39	-9.6882	0.1276	-1.3705	0.0023	-0.0124	0.0110	15.0262	3.2275	12.3749	0.6483	0.1274	0.7438	-0.1009
8.4	-9.6807	0.1359	-1.3789	-0.0007	-0.0077	0.0048	15.0112	3.1236	12.3643	0.6484	0.1274	0.7439	-0.1009
8.41	-9.6391	0.1283	-1.3621	-0.0084	-0.0168	0.0079	14.9640	2.8560	12.4867	0.6483	0.1274	0.7438	-0.1009
8.42	-9.6537	0.1470	-1.3633	0.0016	-0.0092	0.0081	15.1825	3.0283	12.4538	0.6484	0.1274	0.7438	-0.1009
8.43	-9.6678	0.1478	-1.3417	0.0015	-0.0106	0.0068	15.1329	3.1086	12.5233	0.6484	0.1274	0.7438	-0.1009
8.44	-9.6669	0.1439	-1.3519	0.0029	-0.0039	0.0070	15.3837	3.2343	12.5771	0.6483	0.1274	0.7437	-0.1009
8.45	-9.6585	0.1253	-1.3365	0.0006	-0.0137	0.0080	15.4705	3.2519	12.5419	0.6484	0.1274	0.7438	-0.1009
8.46	-9.6575	0.1357	-1.3385	-0.0038	-0.0051	0.0001	15.2510	2.9585	12.7045	0.6484	0.1274	0.7438	-0.1009
8.47	-9.6734	0.1278	-1.3433	0.0008	-0.0092	0.0031	15.1686	2.9978	12.5992	0.6484	0.1274	0.7438	-0.1009
8.48	-9.6695	0.1359	-1.3350	-0.0026	-0.0100	0.0067	14.9676	3.1099	12.6316	0.6483	0.1274	0.7437	-0.1009
8.49	-9.6553	0.1612	-1.3305	-0.0002	-0.0105	0.0059	15.0366	3.1510	12.4891	0.6484	0.1274	0.7438	-0.1009
8.5	-9.6605	0.1639	-1.3363	-0.0010	-0.0056	0.0016	14.9619	3.1694	12.6147	0.6484	0.1274	0.7438	-0.1009
8.51	-9.6530	0.1709	-1.3426	-0.0059	-0.0065	0.0076	14.9180	3.0732	12.5450	0.6483	0.1274	0.7438	-0.1009
8.52	-9.6594	0.1757	-1.3376	-0.0023	-0.0051	0.0003	14.8583	3.3058	12.5363	0.6484	0.1273	0.7438	-0.1009
8.53	-9.6595	0.1654	-1.3443	-0.0020	-0.0058	0.0033	14.9581	3.1563	12.2269	0.6483	0.1273	0.7438	-0.1009
8.54	-9.6611	0.1702	-1.3392	-0.0036	-0.0058	0.0054	14.9240	3.2279	12.4473	0.6484	0.1273	0.7438	-0.1009
8.55	-9.6585	0.1701	-1.3306	-0.0071	-0.0030	0.0053	14.9423	3.1014	12.6496	0.6483	0.1273	0.7438	-0.1009
8.56	-9.6592	0.1695	-1.3450	-0.0011	-0.0089	0.0084	14.8120	3.1127	12.6195	0.6483	0.1273	0.7439	-0.1009
8.57	-9.6567	0.1841	-1.3387	-0.0014	-0.0075	0.0086	14.9134	3.1147	12.5748	0.6483	0.1273	0.7438	-0.1009
8.58	-9.6626	0.1728	-1.3482	0.0019	-0.0142	0.0153	15.1775	3.0836	12.5341	0.6484	0.1273	0.7438	-0.1009
8.59	-9.6661	0.1866	-1.3551	-0.0077	-0.0099	0.0096	15.1809	2.8200	12.4484	0.6483	0.1273	0.7438	-0.1008
8.6	-9.6589	0.1877	-1.3305	-0.0026	-0.0102	0.0065	15.1659	2.9323	12.4832	0.6484	0.1273	0.7438	-0.1008
8.61	-9.6535	0.1864	-1.3320	-0.0077	-0.0128	0.0037	15.1922	2.9096	12.5684	0.6484	0.1273	0.7438	-0.1008
8.62	-9.6841	0.1935	-1.3794	-0.0051	-0.0088	0.0060	15.0952	2.8450	12.5323	0.6483	0.1273	0.7437	-0.1008
8.63	-9.6724	0.1757	-1.3758	-0.0029	-0.0143	0.0052	15.0003	2.9739	12.5416	0.6485	0.1273	0.7438	-0.1008
8.64	-9.6492	0.1666	-1.3621	-0.0046	-0.0099	0.0084	15.1426	2.9435	12.6942	0.6484	0.1272	0.7438	-0.1008
8.65	-9.6569	0.1607	-1.3700	-0.0039	-0.0057	0.0060	14.9966	2.9451	12.4645	0.6485	0.1272	0.7438	-0.1008
8.66	-9.6716	0.1463	-1.3667	-0.0075	-0.0151	0.0064	15.1134	3.0315	12.4494	0.6484	0.1272	0.7437	-0.1007
8.67	-9.6759	0.1516	-1.3716	0.0035	-0.0183	0.0034	15.0655	3.1540	12.5437	0.6485	0.1272	0.7437	-0.1008
8.68	-9.6659	0.1548	-1.3636	-0.0060	-0.0164	0.0089	14.8106	3.0499	12.3869	0.6485	0.1272	0.7437	-0.1008
8.69	-9.6632	0.1598	-1.3561	-0.0114	-0.0115	0.0069	14.7217	3.0057	12.5521	0.6485	0.1272	0.7436	-0.1007
8.7	-9.6678	0.1533	-1.3517	-0.0106	-0.0093	0.0041	15.0107	3.1382	12.5167	0.6486	0.1271	0.7438	-0.1007
8.71	-9.6624	0.1641	-1.3528	-0.0110	-0.0115	0.0009	14.9469	3.2244	12.5560	0.6486	0.1271	0.7437	-0.1007
8.72	-9.6613	0.1570	-1.3457	-0.0088	-0.0153	0.0066	14.9992	3.1381	12.4755	0.6486	0.1271	0.7437	-0.1007
8.73	-9.6607	0.1431	-1.3426	-0.0039	-0.0090	0.0025	14.9945	3.0231	12.8327	0.6486	0.1270	0.7436	-0.1006
8.74	-9.6692	0.1522	-1.3424	-0.0067	-0.0075	0.0053	14.8517	3.0256	12.7584	0.6486	0.1270	0.7437	-0.1006
8.75	-9.6508	0.1595	-1.3330	-0.0016	-0.0121	0.0114	14.9061	3.0375	12.5434	0.6486	0.1270	0.7437	-0.1006
8.76	-9.6571	0.1545	-1.3285	-0.0044	-0.0122	0.0113	14.8780	3.0141	12.4537	0.6486	0.1270	0.7436	-0.1006
8.77	-9.6603	0.1506	-1.3344	-0.0008	-0.0169	0.0066	15.1346	3.0630	12.5409	0.6487	0.1270	0.7436	-0.1006
8.78	-9.6629	0.1380	-1.3377	-0.0058	-0.0133	0.0104	15.0850	2.9720	12.4111	0.6487	0.1270	0.7436	-0.1006
8.79	-9.6630	0.1305	-1.3449	-0.0039	-0.0166	0.0075	15.0827	2.8055	12.5376	0.6488	0.1270	0.7436	-0.1006
8.8	-9.6518	0.1325	-1.3403	0.0000	-0.0139	0.0059	15.1867	3.0506	12.5339	0.6487	0.1270	0.7435	-0.1005
8.81	-9.6645	0.1369	-1.3420	-0.0083	-0.0117	-0.0027	15.0489	3.0395	12.5603	0.6488	0.1270	0.7436	-0.1006
8.82	-9.6635	0.1339	-1.3369	-0.0051	-0.0160	0.0039	14.8807	2.9983	12.6251	0.6488	0.1269	0.7435	-0.1006
8.83	-9.6670	0.1351	-1.3241	-0.0020	-0.0157	0.0074	15.0081	2.8694	12.4180	0.6488	0.1269	0.7435	-0.1006
8.84	-9.6605	0.1377	-1.3237	-0.0053	-0.0107	0.0028	15.1143	2.8546	12.5700	0.6488	0.1269	0.7435	-0.1005
8.85	-9.6504	0.1567	-1.3265	-0.0030	-0.0148	0.0096	14.9430	2.9028	12.6351	0.6489	0.1269	0.7435	-0.1005
8.86	-9.6642	0.1542	-1.3455	-0.0043	-0.0084	0.0084	14.9780	3.1375	12.4317	0.6489	0.1269	0.7435	-0.1005
8.87	-9.6754	0.1566	-1.3562	-0.0001	-0.0085	0.0050	15.0396	3.0885	12.4768	0.6488	0.1269	0.7434	-0.1005
8.88	-9.6578	0.1531	-1.3536	-0.0052	-0.0064	0.0037	14.9074	3.2417	12.2940	0.6489	0.1269	0.7435	-0.1005
8.89	-9.6618	0.1528	-1.3631	-0.0038	-0.0079	0.0067	14.8251	3.1219	12.4637	0.6489	0.1269	0.7435	-0.1005
8.9	-9.6645	0.1617	-1.3508	-0.0002	-0.0154	0.0061	14.9231	3.1689	12.5486	0.6489	0.1269	0.7435	-0.1005
8.91	-9.6542	0.1704	-1.3535	-0.0053	-0.0152	0.0059	14.9401	3.2142	12.5309	0.6489	0.1268	0.7434	-0.1005
8.92	-9.6611	0.1765	-1.3547	-0.0004	-0.0193	0.0011	14.8105	3.0703	12.7339	0.6490	0.1268	0.7434	-0.1005
8.93	-9.6583	0.1785	-1.3496	-0.0045	-0.0191	0.0013	14.9064	3.3232	12.7347	0.6490	0.1268	0.7434	-0.1005
8.94	-9.6625	0.1662	-1.3548	-0.0103	-0.0186	0.0077	15.2514	3.1262	12.8359	0.6490	0.1267	0.7433	-0.1005
8.95	-9.6614	0.1656	-1.3474	0.0008	-0.0150	0.0119	15.3398	2.9392	12.6920	0.6491	0.1268	0.7434	-0.1005
8.96	-9.6659	0.1706	-1.3488	0.0001	-0.0138	0.0085	15.1190	3.0916	12.7429	0.6491	0.1268	0.7433	-0.1005
8.97	-9.6597	0.1630	-1.3449	0.0002	-0.0150	0.0105	15.1075	3.0929	12.4405	0.6492	0.1268	0.7433	-0.1005
8.98	-9.6563	0.1665	-1.3374	0.0020	-0.0111	0.0112	15.1093	2.8396	12.5808	0.6491	0.1268	0.7432	-0.1005
8.99	-9.6717	0.1681	-1.3374	0.0002	-0.0123	0.0101	15.0203	2.9436	12.6936	0.6492	0.1268	0.7433	-0.1005
9	-9.6614	0.1649	-1.3292	-0.0091	-0.0128	0.0103	15.0962	3.0468	12.6217	0.6492	0.1268	0.7432	-0.1004
9.01	-9.6639	0.1654	-1.3287	-0.0023	-0.0134	0.0075	15.1598	2.9182	12.4747	0.6492	0.1268	0.7432	-0.1004
9.02	-9.6469	0.1725	-1.3241	0.0034	-0.0154	0.0046	14.9395	3.0081	12.5924	0.6492	0.1268	0.7432	-0.1005
9.03	-9.6609	0.1551	-1.3263	-0.0038	-0.0163	0.0038	15.1015	2.7798	12.5542	0.6493	0.1268	0.7432	-0.1005
9.04	-9.6688	0.1516	-1.3294	0.0028	-0.0099	0.0081	14.9619	2.9014	12.4434	0.6493	0.1268	0.7432	-0.1005
9.05	-9.6569	0.1491	-1.3429	-0.0082	-0.0094	0.0027	15.1043	3.1367	12.6030	0.6492	0.1268	0.7431	-0.1004
9.06	-9.6454	0.1511	-1.3388	-0.0065	-0.0047	0.0023	15.1724	3.1609	12.4289	0.6493	0.1267	0.7432	-0.1004
9.07	-9.6545	0.1538	-1.3296	-0.0059	-0.0105	0.0061	15.0504	3.0424	12.5848	0.6493	0.1267	0.7432	-0.1004
9.08	-9.6685	0.1388	-1.3295	-0.0081	-0.0131	0.0066	15.0859	2.9207	12.7224	0.6493	0.1267	0.7432	-0.1004
9.09	-9.6619	0.1390	-1.3340	-0.0033	-0.0104	0.0099	14.8263	3.0721	12.4331	0.6493	0.1267	0.7431	-0.1004
9.1	-9.6639	0.1479	-1.3405	-0.0061	-0.0069	0.0041	14.8867	2.9141	12.6474	0.6493	0.1267	0.7432	-0.1004
9.11	-9.6594	0.1394	-1.3442	-0.0019	-0.0049	0.0038	15.0825	3.2152	12.6422	0.6493	0.1267	0.7432	-0.1004
9.12	-9.6664	0.1371	-1.3391	-0.0040	-0.0084	0.0051	14.8046	3.1327	12.7428	0.6492	0.1266	0.7431	-0.1004
9.13	-9.6639	0.1320	-1.3477	-0.0033	-0.0118	0.0125	15.1366	3.1238	12.6477	0.6493	0.1267	0.7432	-0.1003
9.14	-9.6707	0.1301	-1.3579	-0.0066	-0.0068	0.0088	15.0774	2.9925	12.5166	0.6493	0.1267	0.7432	-0.1003
9.15	-9.6603	0.1433	-1.3533	-0.0005	-0.0085	0.0075	15.0425	2.9510	12.4643	0.6494	0.1267	0.7432	-0.1003
9.16	-9.6685	0.1418	-1.3641	-0.0002	-0.0101	0.0070	15.1203	2.9779	12.5935	0.6493	0.1267	0.7431	-0.1003
9.17	-9.6685	0.1334	-1.3715	0.0014	-0.0094	0.0030	15.0551	2.9517	12.5577	0.6493	0.1267	0.7432	-0.1003
9.18	-9.6637	0.1387	-1.3689	-0.0051	-0.0034	0.0061	15.1654	2.9920	12.4414	0.6493	0.1266	0.7432	-0.1003
9.19	-9.6591	0.1381	-1.3716	-0.0032	-0.0096	0.0093	15.0621	2.8741	12.5993	0.6493	0.1266	0.7431	-0.1003
9.2	-9.6610	0.1520	-1.3711	0.0004	-0.0143	0.0045	14.9309	2.9775	12.5444	0.6494	0.1267	0.7432	-0.1003
9.21	-9.6682	0.1619	-1.3649	-0.0003	-0.0143	0.0076	14.7863	3.0724	12.6278	0.6493	0.1266	0.7431	-0.1003
9.22	-9.6646	0.1615	-1.3611	-0.0044	-0.0120	0.0084	15.2088	3.0150	12.6239	0.6494	0.1266	0.7432	-0.1003
9.23	-9.6727	0.1563	-1.3656	-0.0005	-0.0076	0.0085	15.2269	3.1646	12.4702	0.6493	0.1266	0.7431	-0.1003
9.24	-9.6694	0.1591	-1.3617	-0.0060	-0.0096	0.0050	14.8816	3.0856	12.4726	0.6494	0.1266	0.7431	-0.1003
9.25	-9.6608	0.1652	-1.3541	0.0003	-0.0084	0.0044	14.9334	2.8887	12.5349	0.6494	0.1266	0.7431	-0.1003
9.26	-9.6564	0.1632	-1.3470	-0.0003	-0.0086	0.0056	14.9978	2.8479	12.5977	0.6494	0.1266	0.7431	-0.1003
9.27	-9.6547	0.1657	-1.3370	-0.0024	-0.0141	0.0080	14.8549	3.0980	12.5559	0.6494	0.1266	0.7431	-0.1003
9.28	-9.6590	0.1716	-1.3329	-0.0042	-0.0130	0.0064	14.9326	2.9600	12.5798	0.6494	0.1266	0.7431	-0.1003
9.29	-9.6648	0.1721	-1.3244	0.0031	-0.0119	0.0026	15.1652	2.8877	12.5770	0.6494	0.1266	0.7431	-0.1003
9.3	-9.6705	0.1743	-1.3425	-0.0042	-0.0065	0.0031	15.0302	3.0912	12.5712	0.6494	0.1266	0.7430	-0.1003
9.31	-9.6577	0.1645	-1.3382	-0.0013	-0.0090	0.0126	14.9729	3.0098	12.5758	0.6494	0.1266	0.7431	-0.1003
9.32	-9.6513	0.1660	-1.3316	0.0061	-0.0119	0.0092	15.0788	2.7960	12.5631	0.6494	0.1266	0.7431	-0.1003
9.33	-9.6524	0.1731	-1.3282	0.0004	-0.0087	0.0056	15.0289	2.8488	12.3739	0.6494	0.1266	0.7431	-0.1003
9.34	-9.6566	0.1685	-1.3401	0.0013	-0.0096	0.0102	15.1544	3.0022	12.5175	0.6494	0.1266	0.7430	-0.1003
9.35	-9.6708	0.1647	-1.3361	-0.0025	-0.0111	0.0098	14.9904	2.9217	12.5723	0.6494	0.1267	0.7430	-0.1003
9.36	-9.6582	0.1634	-1.3433	-0.0004	-0.0054	0.0106	14.9659	2.8687	12.6293	0.6494	0.1267	0.7431	-0.1003
9.37	-9.6715	0.1622	-1.3540	0.0031	-0.0046	0.0079	14.9529	2.8807	12.6820	0.6494	0.1267	0.7430	-0.1003
9.38	-9.6624	0.1612	-1.3461	0.0030	-0.0056	0.0110	15.0778	2.8898	12.6535	0.6494	0.1267	0.7431	-0.1003
9.39	-9.6509	0.1677	-1.3481	0.0074	-0.0067	0.0073	15.1413	2.9998	12.5281	0.6494	0.1268	0.7431	-0.1003
9.4	-9.6528	0.1611	-1.3352	0.0130	-0.0089	0.0135	15.1301	2.9333	12.6925	0.6494	0.1268	0.7431	-0.1003
9.41	-9.6591	0.1491	-1.3338	-0.0020	-0.0132	0.0145	15.0541	3.0773	12.4574	0.6494	0.1268	0.7430	-0.1003
9.42	-9.6632	0.1627	-1.3455	-0.0066	-0.0072	0.0074	14.9274	3.0054	12.6370	0.6494	0.1268	0.7431	-0.1003
9.43	-9.6571	0.1506	-1.3522	-0.0036	-0.0026	0.0023	15.0306	2.9731	12.8067	0.6494	0.1268	0.7431	-0.1003
9.44	-9.6575	0.1531	-1.3509	-0.0077	-0.0040	0.0101	15.3595	3.1781	12.6522	0.6493	0.1268	0.7431	-0.1002
9.45	-9.6662	0.1458	-1.3545	-0.0069	-0.0045	0.0085	15.4856	3.0035	12.5786	0.6494	0.1268	0.7432	-0.1002
9.46	-9.6518	0.1400	-1.3633	-0.0051	-0.0026	0.0016	15.0607	3.3352	12.6718	0.6493	0.1268	0.7431	-0.1002
9.47	-9.6652	0.1694	-1.3542	-0.0077	-0.0033	0.0080	14.9537	3.2762	12.8420	0.6494	0.1268	0.7432	-0.1002
9.48	-9.6677	0.1632	-1.3592	-0.0066	-0.0026	0.0057	14.8367	2.9696	12.7674	0.6492	0.1267	0.7431	-0.1001
9.49	-9.6569	0.1572	-1.3532	-0.0048	-0.0054	0.0114	14.6920	3.1662	12.6630	0.6493	0.1267	0.7432	-0.1001
9.5	-9.6592	0.1593	-1.3425	-0.0014	-0.0036	0.0010	14.8597	3.0167	12.6834	0.6493	0.1267	0.7432	-0.1001
9.51	-9.6650	0.1547	-1.3478	0.0014	-0.0095	0.0148	14.9230	2.8227	12.7083	0.6493	0.1268	0.7432	-0.1001
9.52	-9.6586	0.1591	-1.3485	-0.0039	-0.0103	0.0101	15.1459	3.0753	12.5752	0.6493	0.1268	0.7432	-0.1001
9.53	-9.6560	0.1486	-1.3482	-0.0000	-0.0100	0.0071	15.0967	2.9870	12.5093	0.6493	0.1268	0.7432	-0.1001
9.54	-9.6720	0.1514	-1.3484	-0.0010	-0.0071	0.0094	14.9546	2.9332	12.4968	0.6493	0.1268	0.7432	-0.1001
9.55	-9.6653	0.1530	-1.3522	-0.0014	-0.0083	0.0071	14.9649	2.9496	12.6150	0.6492	0.1268	0.7431	-0.1001
9.56	-9.6693	0.1512	-1.3642	-0.0043	-0.0074	0.0071	14.9259	2.9467	12.5736	0.6493	0.1268	0.7432	-0.1001
9.57	-9.6663	0.1543	-1.3579	-0.0102	-0.0149	0.0098	15.0268	3.0856	12.5148	0.6493	0.1268	0.7432	-0.1000
9.58	-9.6541	0.1393	-1.3445	0.0044	-0.0154	0.0091	14.9650	2.8875	12.7173	0.6493	0.1268	0.7432	-0.1000
9.59	-9.6643	0.1521	-1.3483	-0.0008	-0.0073	0.0078	14.9565	2.7516	12.5951	0.6493	0.1268	0.7432	-0.1000
9.6	-9.6755	0.1566	-1.3450	-0.0010	-0.0119	0.0127	15.0431	2.9343	12.5979	0.6493	0.1268	0.7432	-0.1000
9.61	-9.6585	0.1580	-1.3487	-0.0012	-0.0123	0.0078	15.0594	3.1097	12.6358	0.6493	0.1268	0.7432	-0.1000
9.62	-9.6544	0.1515	-1.3463	-0.0057	-0.0073	0.0020	14.8669	3.1699	12.7924	0.6493	0.1268	0.7431	-0.1000
9.63	-9.6689	0.1627	-1.3532	-0.0044	-0.0091	0.0057	14.7903	3.2269	12.6442	0.6494	0.1268	0.7432	-0.1000
9.64	-9.6700	0.1553	-1.3811	-0.0074	-0.0086	0.0059	14.8773	3.1075	12.7164	0.6493	0.1267	0.7432	-0.1000
9.65	-9.6608	0.1686	-1.3573	-0.0034	-0.0114	0.0034	14.7213	2.9690	12.5990	0.6494	0.1267	0.7432	-0.1000
9.66	-9.6521	0.1650	-1.3504	-0.0049	-0.0091	0.0099	15.0091	3.2231	12.5957	0.6493	0.1267	0.7431	-0.0999
9.67	-9.6570	0.1613	-1.3498	-0.0011	-0.0069	0.0077	14.8878	3.0745	12.7001	0.6493	0.1267	0.7432	-0.0999
9.68	-9.6834	0.1660	-1.3631	0.0018	-0.0121	0.0101	14.9108	3.1338	12.8676	0.6493	0.1267	0.7432	-0.0999
9.69	-9.6736	0.1538	-1.3495	-0.0054	-0.0188	0.0059	14.9588	3.0452	12.7746	0.6493	0.1267	0.7431	-0.0999
9.7	-9.6555	0.1648	-1.3371	-0.0003	-0.0108	0.0120	14.9529	2.8237	12.7008	0.6494	0.1268	0.7432	-0.0999
9.71	-9.6667	0.1702	-1.3464	-0.0059	-0.0094	0.0097	15.1838	2.9050	12.7793	0.6494	0.1267	0.7431	-0.0999
9.72	-9.6706	0.1713	-1.3492	-0.0032	-0.0077	0.0072	15.0133	2.7748	12.6141	0.6494	0.1267	0.7432	-0.0999
9.73	-9.6549	0.1723	-1.3273	-0.0015	-0.0128	0.0053	15.0692	2.8727	12.5806	0.6493	0.1267	0.7431	-0.0999
9.74	-9.6662	0.1685	-1.3353	-0.0028	-0.0122	0.0063	14.8757	2.8458	12.5510	0.6494	0.1267	0.7432	-0.0999
9.75	-9.6770	0.1598	-1.3522	0.0008	-0.0154	0.0094	14.7968	2.9102	12.7284	0.6494	0.1267	0.7431	-0.0999
9.76	-9.6560	0.1597	-1.3383	-0.0033	-0.0131	0.0095	14.9648	2.9501	12.6783	0.6494	0.1267	0.7431	-0.0999
9.77	-9.6646	0.1556	-1.3481	-0.0020	-0.0122	0.0098	14.9547	3.0368	12.6765	0.6495	0.1267	0.7431	-0.0999
9.78	-9.6724	0.1499	-1.3408	0.0016	-0.0095	0.0098	15.0473	3.0152	12.5993	0.6494	0.1268	0.7431	-0.0999
9.79	-9.6669	0.1544	-1.3368	-0.0037	-0.0129	0.0100	14.8577	3.0839	12.5291	0.6495	0.1268	0.7431	-0.0998
9.8	-9.6567	0.1599	-1.3352	-0.0016	-0.0164	0.0041	14.8945	3.1196	12.5681	0.6494	0.1267	0.7430	-0.0998
9.81	-9.6651	0.1630	-1.3474	-0.0055	-0.0023	0.0079	14.7438	3.1988	12.7176	0.6495	0.1268	0.7431	-0.0998
9.82	-9.6594	0.1506	-1.3469	-0.0020	-0.0079	0.0112	14.7110	3.1782	12.6334	0.6494	0.1268	0.7431	-0.0998
9.83	-9.6439	0.1545	-1.3318	-0.0096	-0.0029	0.0025	14.6950	3.2131	12.5001	0.6494	0.1267	0.7431	-0.0998
9.84	-9.6575	0.1756	-1.3432	-0.0057	-0.0019	0.0048	14.8254	2.9992	12.5090	0.6494	0.1267	0.7431	-0.0998
9.85	-9.6766	0.1657	-1.3431	-0.0076	-0.0012	0.0088	14.7453	3.0484	12.6212	0.6494	0.1267	0.7432	-0.0997
9.86	-9.6545	0.1459	-1.3413	-0.0071	-0.0021	0.0070	14.7271	3.1451	12.3710	0.6494	0.1267	0.7432	-0.0997
9.87	-9.6548	0.1337	-1.3416	-0.0005	-0.0052	0.0077	14.6662	3.0121	12.5948	0.6493	0.1267	0.7432	-0.0997
9.88	-9.6801	0.1297	-1.3525	0.0038	-0.0089	0.0080	14.9751	2.9411	12.6984	0.6494	0.1267	0.7433	-0.0997
9.89	-9.6712	0.1329	-1.3509	-0.0050	-0.0095	0.0115	15.2286	3.0801	12.5651	0.6493	0.1267	0.7432	-0.0997
9.9	-9.6583	0.1317	-1.3463	-0.0026	-0.0081	0.0123	15.0420	2.9463	12.9000	0.6494	0.1267	0.7433	-0.0997
9.91	-9.6636	0.1482	-1.3456	0.0064	-0.0066	0.0091	15.2325	2.9543	12.6880	0.6493	0.1267	0.7432	-0.0997
9.92	-9.6513	0.1627	-1.3618	-0.0004	-0.0041	0.0087	15.0664	2.9410	12.3333	0.6493	0.1268	0.7433	-0.0997
9.93	-9.6599	0.1664	-1.3500	-0.0026	-0.0095	0.0089	15.1926	3.1572	12.7476	0.6493	0.1268	0.7433	-0.0997
9.94	-9.6615	0.1706	-1.3504	-0.0036	-0.0121	0.0075	15.4526	3.2342	12.7317	0.6493	0.1268	0.7432	-0.0996
9.95	-9.6774	0.1665	-1.3524	-0.0029	-0.0120	0.0062	15.3330	3.0895	12.4675	0.6493	0.1268	0.7433	-0.0996
9.96	-9.6636	0.1666	-1.3562	-0.0055	-0.0123	0.0071	15.3598	3.0639	12.7492	0.6493	0.1267	0.7432	-0.0996
9.97	-9.6622	0.1690	-1.3502	-0.0008	-0.0058	0.0088	15.0589	2.9897	12.6518	0.6493	0.1268	0.7433	-0.0996
9.98	-9.6726	0.1626	-1.3519	0.0012	-0.0092	0.0093	14.9915	2.8934	12.6626	0.6492	0.1268	0.7432	-0.0996
9.99	-9.6595	0.1662	-1.3616	-0.0008	-0.0102	0.0084	15.0116	2.8950	12.6823	0.6493	0.1268	0.7433	-0.0996
10	-9.6609	0.1492	-1.3483	-0.0004	-0.0090	0.0048	14.9390	3.0729	12.6519	0.6493	0.1268	0.7433	-0.0996
10.01	-9.6709	0.1594	-1.3561	-0.0053	-0.0114	0.0050	15.1396	2.9911	12.6888	0.6493	0.1267	0.7432	-0.0996
10.02	-9.6634	0.1561	-1.3585	-0.0003	-0.0050	0.0050	14.9906	2.9795	12.6406	0.6493	0.1267	0.7433	-0.0996
10.03	-9.6598	0.1536	-1.3547	-0.0040	-0.0034	0.0071	15.0563	3.0983	12.7203	0.6492	0.1267	0.7433	-0.0996
10.04	-9.6615	0.1623	-1.3495	-0.0016	-0.0079	0.0042	15.1386	3.0183	12.5160	0.6493	0.1267	0.7433	-0.0996
10.05	-9.6702	0.1712	-1.3559	0.0019	-0.0092	0.0055	15.0169	2.8774	12.5728	0.6492	0.1267	0.7433	-0.0996
10.06	-9.6635	0.1631	-1.3508	-0.0009	-0.0065	0.0105	14.9337	2.9277	12.5775	0.6492	0.1267	0.7434	-0.0996
10.07	-9.6661	0.1580	-1.3456	0.0027	-0.0143	0.0057	14.9582	2.9766	12.4598	0.6492	0.1268	0.7433	-0.0996
10.08	-9.6607	0.1632	-1.3525	0.0016	-0.0124	0.0071	15.1863	2.7945	12.5224	0.6493	0.1268	0.7433	-0.0996
10.09	-9.6691	0.1649	-1.3493	0.0052	-0.0126	0.0079	15.1949	2.9208	12.4871	0.6492	0.1268	0.7433	-0.0996
10.1	-9.6606	0.1646	-1.3559	-0.0002	-0.0136	0.0083	14.9602	2.8907	12.5064	0.6493	0.1268	0.7433	-0.0996
10.11	-9.6646	0.1573	-1.3523	0.0018	-0.0072	0.0083	15.1218	2.9092	12.4820	0.6493	0.1268	0.7433	-0.0997
10.12	-9.6673	0.1594	-1.3522	0.0005	-0.0105	0.0111	15.0261	2.8916	12.5759	0.6492	0.1268	0.7432	-0.0996
10.13	-9.6546	0.1551	-1.3471	-0.0038	-0.0040	0.0051	15.0249	2.9095	12.6032	0.6493	0.1268	0.7433	-0.0996
10.14	-9.6631	0.1445	-1.3502	0.0003	-0.0070	-0.0009	15.0214	3.0286	12.5376	0.6492	0.1268	0.7433	-0.0997
10.15	-9.6640	0.1414	-1.3502	0.0033	-0.0065	0.0091	15.0518	3.1060	12.4606	0.6492	0.1268	0.7434	-0.0997
10.16	-9.6557	0.1509	-1.3552	0.0008	-0.0072	0.0066	14.8474	2.9340	12.5983	0.6491	0.1268	0.7433	-0.0997
10.17	-9.6664	0.1532	-1.3503	-0.0021	-0.0091	0.0092	14.9830	3.0476	12.5634	0.6492	0.1268	0.7434	-0.0997
10.18	-9.6672	0.1537	-1.3610	0.0075	-0.0091	0.0078	15.0476	2.9993	12.6231	0.6492	0.1268	0.7433	-0.0997
10.19	-9.6606	0.1741	-1.3519	-0.0010	-0.0047	0.0086	14.9958	3.0494	12.7224	0.6491	0.1268	0.7433	-0.0997
10.2	-9.6499	0.1735	-1.3472	-0.0020	-0.0037	-0.0001	15.0617	3.1516	12.4061	0.6492	0.1268	0.7434	-0.0997
10.21	-9.6677	0.1671	-1.3573	-0.0020	-0.0043	0.0072	15.0969	2.7967	12.4897	0.6491	0.1268	0.7434	-0.0997
10.22	-9.6521	0.1642	-1.3513	0.0003	-0.0063	0.0078	14.9522	3.0500	12.6208	0.6491	0.1268	0.7435	-0.0997
10.23	-9.6564	0.1662	-1.3486	-0.0004	-0.0166	0.0067	14.9163	3.0925	12.5472	0.6490	0.1268	0.7433	-0.0997
10.24	-9.6622	0.1488	-1.3506	-0.0019	-0.0138	0.0066	15.0975	2.9062	12.7176	0.6491	0.1268	0.7434	-0.0997
10.25	-9.6677	0.1335	-1.3487	0.0028	-0.0061	0.0072	15.0218	2.9827	12.6181	0.6491	0.1268	0.7434	-0.0997
10.26	-9.6627	0.1319	-1.3484	0.0010	-0.0160	0.0136	14.8956	3.1191	12.4838	0.6491	0.1268	0.7434	-0.0997
10.27	-9.6573	0.1397	-1.3480	-0.0001	-0.0139	0.0092	15.1436	2.8516	12.5882	0.6491	0.1269	0.7434	-0.0997
10.28	-9.6569	0.1515	-1.3508	0.0036	-0.0122	0.0120	15.0971	3.0654	12.5976	0.6491	0.1269	0.7434	-0.0997
10.29	-9.6592	0.1532	-1.3521	0.0058	-0.0106	0.0104	15.2873	3.0330	12.5274	0.6492	0.1269	0.7434	-0.0997
10.3	-9.6571	0.1528	-1.3452	0.0017	-0.0101	0.0081	15.1925	2.8786	12.4710	0.6491	0.1269	0.7433	-0.0997
10.31	-9.6589	0.1474	-1.3489	0.0033	-0.0088	0.0127	15.0754	2.9277	12.6372	0.6492	0.1270	0.7434	-0.0997
10.32	-9.6635	0.1554	-1.3447	0.0000	-0.0078	0.0055	15.0010	2.9970	12.5021	0.6491	0.1270	0.7434	-0.0997
10.33	-9.6551	0.1634	-1.3369	-0.0013	-0.0086	0.0096	15.0869	2.9797	12.5501	0.6491	0.1270	0.7434	-0.0997
10.34	-9.6508	0.1498	-1.3429	0.0013	-0.0064	0.0074	15.2083	2.9862	12.6994	0.6491	0.1270	0.7434	-0.0997
10.35	-9.6702	0.1350	-1.3502	-0.0008	-0.0136	0.0092	15.0371	2.8748	12.5299	0.6491	0.1270	0.7434	-0.0997
10.36	-9.6544	0.1358	-1.3619	-0.0016	-0.0109	0.0097	14.8937	2.9148	12.4679	0.6491	0.1270	0.7434	-0.0997
10.37	-9.6428	0.1263	-1.3537	0.0011	-0.0112	0.0056	15.0565	2.8764	12.5900	0.6491	0.1270	0.7433	-0.0997
10.38	-9.6610	0.1264	-1.3540	0.0005	-0.0023	0.0025	14.9847	3.0238	12.5744	0.6491	0.1270	0.7434	-0.0997
10.39	-9.6484	0.1356	-1.3409	0.0021	-0.0035	0.0053	15.1150	3.1935	12.5977	0.6490	0.1270	0.7434	-0.0997
10.4	-9.6676	0.1350	-1.3517	0.0028	-0.0028	0.0070	15.1803	2.8674	12.7787	0.6491	0.1270	0.7435	-0.0998
10.41	-9.6732	0.1422	-1.3441	-0.0065	-0.0066	0.0077	14.8877	3.0125	12.6673	0.6490	0.1270	0.7434	-0.0997
10.42	-9.6759	0.1511	-1.3601	0.0024	-0.0020	0.0016	14.9918	3.0361	12.5328	0.6490	0.1270	0.7435	-0.0997
10.43	-9.6581	0.1411	-1.3624	0.0010	-0.0029	0.0079	15.0337	3.0028	12.8625	0.6490	0.1270	0.7435	-0.0998
10.44	-9.6593	0.1483	-1.3408	-0.0009	-0.0100	0.0065	15.3039	3.1193	12.9872	0.6489	0.1270	0.7435	-0.0997
10.45	-9.6586	0.1472	-1.3446	0.0011	-0.0102	0.0089	15.6491	2.8579	12.7143	0.6490	0.1270	0.7436	-0.0998
10.46	-9.6484	0.1559	-1.3451	-0.0010	-0.0075	0.0121	15.1802	2.9158	12.6146	0.6489	0.1270	0.7435	-0.0997
10.47	-9.6571	0.1637	-1.3472	-0.0005	-0.0124	0.0107	15.2572	3.0287	12.5192	0.6490	0.1270	0.7435	-0.0997
10.48	-9.6728	0.1633	-1.3465	0.0043	-0.0114	0.0103	15.1784	2.9287	12.4466	0.6489	0.1270	0.7434	-0.0997
10.49	-9.6784	0.1647	-1.3528	-0.0055	-0.0147	0.0144	15.1501	2.8349	12.5685	0.6490	0.1270	0.7435	-0.0997
10.5	-9.6569	0.1655	-1.3489	-0.0065	-0.0104	0.0088	15.2069	3.0295	12.6787	0.6490	0.1270	0.7435	-0.0997
10.51	-9.6556	0.1724	-1.3437	0.0008	-0.0048	0.0096	15.0258	2.9457	12.4635	0.6489	0.1270	0.7435	-0.0997
10.52	-9.6721	0.1693	-1.3535	-0.0089	-0.0086	0.0130	15.0813	2.9206	12.3423	0.6490	0.1270	0.7435	-0.0996
10.53	-9.6762	0.1634	-1.3506	0.0022	-0.0121	0.0089	14.8974	2.9461	12.6310	0.6490	0.1270	0.7435	-0.0996
10.54	-9.6641	0.1676	-1.3435	-0.0019	-0.0113	0.0026	14.9085	2.8961	12.6019	0.6490	0.1270	0.7435	-0.0996
10.55	-9.6592	0.1720	-1.3531	-0.0051	-0.0066	0.0003	14.7925	3.0905	12.6552	0.6489	0.1270	0.7434	-0.0996
10.56	-9.6646	0.1736	-1.3518	-0.0036	-0.0063	0.0063	14.8363	3.2021	12.3378	0.6490	0.1270	0.7436	-0.0996
10.57	-9.6547	0.1697	-1.3515	0.0017	-0.0040	0.0044	14.7663	3.0000	12.4509	0.6489	0.1270	0.7435	-0.0996
10.58	-9.6611	0.1684	-1.3439	-0.0060	-0.0124	0.0089	14.9727	3.0437	12.5703	0.6489	0.1270	0.7436	-0.0996
10.59	-9.6661	0.1720	-1.3487	-0.0024	-0.0109	0.0075	14.8832	2.8857	12.4333	0.6489	0.1270	0.7435	-0.0996
10.6	-9.6617	0.1708	-1.3447	-0.0015	-0.0087	0.0054	14.6963	2.9989	12.5449	0.6489	0.1270	0.7435	-0.0996
10.61	-9.6535	0.1649	-1.3258	-0.0040	-0.0120	0.0034	14.9079	3.1134	12.5660	0.6489	0.1269	0.7436	-0.0996
10.62	-9.6696	0.1597	-1.3399	-0.0024	-0.0088	0.0133	14.8747	3.1527	12.6554	0.6489	0.1269	0.7435	-0.0996
10.63	-9.6675	0.1632	-1.3437	0.0034	-0.0091	0.0079	14.8979	3.2895	12.4706	0.6490	0.1270	0.7436	-0.0996
10.64	-9.6585	0.1572	-1.3424	-0.0047	-0.0131	0.0065	15.0313	2.8213	12.4642	0.6489	0.1269	0.7435	-0.0996
10.65	-9.6652	0.1700	-1.3391	-0.0050	-0.0100	0.0122	15.0602	2.9560	12.6474	0.6490	0.1270	0.7436	-0.0996
10.66	-9.6638	0.1589	-1.3512	-0.0015	-0.0083	0.0056	15.0424	2.7457	12.5317	0.6489	0.1269	0.7435	-0.0996
10.67	-9.6562	0.1524	-1.3425	-0.0015	-0.0135	0.0103	15.1735	2.8000	12.4354	0.6489	0.1269	0.7435	-0.0996
10.68	-9.6747	0.1426	-1.3575	-0.0017	-0.0113	0.0039	15.0699	2.8616	12.6585	0.6490	0.1269	0.7435	-0.0996
10.69	-9.6716	0.1415	-1.3563	-0.0011	-0.0102	0.0091	15.0397	2.9066	12.4674	0.6489	0.1269	0.7435	-0.0996
10.7	-9.6623	0.1338	-1.3507	0.0016	-0.0095	0.0047	15.0734	2.9605	12.4257	0.6490	0.1269	0.7436	-0.0996
10.71	-9.6579	0.1348	-1.3491	0.0003	-0.0115	0.0108	14.7688	3.0203	12.4802	0.6489	0.1269	0.7435	-0.0996
10.72	-9.6673	0.1334	-1.3492	0.0012	-0.0137	0.0107	14.9474	3.0090	12.5923	0.6490	0.1270	0.7436	-0.0996
10.73	-9.6618	0.1471	-1.3550	0.0016	-0.0109	0.0063	14.9733	3.0146	12.7363	0.6489	0.1270	0.7434	-0.0996
10.74	-9.6477	0.1496	-1.3485	-0.0048	-0.0094	0.0032	14.8787	3.0101	12.5558	0.6490	0.1269	0.7435	-0.0996
10.75	-9.6637	0.1630	-1.3555	-0.0040	-0.0168	0.0033	15.0160	3.1797	12.7415	0.6490	0.1269	0.7435	-0.0996
10.76	-9.6615	0.1584	-1.3381	-0.0029	-0.0111	0.0050	14.8712	3.1288	12.7600	0.6490	0.1269	0.7435	-0.0996
10.77	-9.6590	0.1619	-1.3442	0.0012	-0.0125	0.0073	14.8989	2.8821	12.5708	0.6490	0.1269	0.7435	-0.0996
10.78	-9.6614	0.1533	-1.3396	-0.0039	-0.0046	0.0054	14.8799	3.2245	12.5351	0.6490	0.1269	0.7435	-0.0996
10.79	-9.6619	0.1415	-1.3548	-0.0041	-0.0039	0.0034	14.9110	3.2585	12.4952	0.6490	0.1269	0.7436	-0.0996
10.8	-9.6589	0.1487	-1.3466	0.0050	-0.0127	0.0087	14.7929	3.2755	12.6370	0.6489	0.1269	0.7435	-0.0996
10.81	-9.6612	0.1489	-1.3408	-0.0040	-0.0116	0.0079	14.9205	3.2181	12.4668	0.6490	0.1269	0.7435	-0.0996
10.82	-9.6704	0.1574	-1.3504	-0.0037	-0.0092	0.0082	14.8575	3.0596	12.4788	0.6490	0.1269	0.7435	-0.0996
10.83	-9.6642	0.1542	-1.3533	0.0016	-0.0157	0.0080	14.9943	3.0824	12.5576	0.6490	0.1269	0.7435	-0.0996
10.84	-9.6597	0.1722	-1.3496	-0.0018	-0.0058	0.0066	14.7797	2.7038	12.4491	0.6490	0.1269	0.7435	-0.0996
10.85	-9.6532	0.1701	-1.3426	-0.0002	-0.0073	0.0097	14.9838	2.9266	12.2954	0.6490	0.1269	0.7435	-0.0996
10.86	-9.6624	0.1724	-1.3464	0.0028	-0.0132	0.0064	15.0540	2.9129	12.5188	0.6490	0.1269	0.7435	-0.0997
10.87	-9.6574	0.1651	-1.3562	-0.0100	-0.0104	0.0074	14.8427	3.0285	12.4495	0.6489	0.1269	0.7434	-0.0996
10.88	-9.6579	0.1634	-1.3486	-0.0079	-0.0077	0.0046	15.0327	2.8051	12.4683	0.6490	0.1268	0.7436	-0.0996
10.89	-9.6606	0.1668	-1.3427	-0.0047	-0.0118	0.0101	15.0273	2.9018	12.6840	0.6490	0.1268	0.7435	-0.0996
10.9	-9.6814	0.1662	-1.3607	-0.0090	-0.0135	0.0085	15.1336	2.6915	12.5996	0.6491	0.1268	0.7436	-0.0996
10.91	-9.6597	0.1641	-1.3536	-0.0015	-0.0143	0.0088	15.0574	2.8318	12.6553	0.6490	0.1268	0.7434	-0.0995
10.92	-9.6499	0.1711	-1.3428	-0.0022	-0.0106	0.0047	14.7136	3.0948	12.5805	0.6490	0.1268	0.7435	-0.0996
10.93	-9.6620	0.1791	-1.3807	-0.0065	-0.0059	0.0031	14.7806	3.0614	12.6814	0.6490	0.1267	0.7435	-0.0996
10.94	-9.6479	0.1700	-1.3526	-0.0084	-0.0088	0.0064	15.1407	3.1894	12.7135	0.6490	0.1267	0.7435	-0.0995
10.95	-9.6679	0.1652	-1.3517	-0.0064	-0.0068	0.0047	15.1987	3.2574	12.7037	0.6491	0.1267	0.7436	-0.0995
10.96	-9.6735	0.1652	-1.3512	-0.0011	-0.0051	0.0062	15.2808	3.1749	12.8697	0.6490	0.1267	0.7435	-0.0995
10.97	-9.6583	0.1580	-1.3479	-0.0044	-0.0077	0.0049	15.1626	3.1052	12.6581	0.6490	0.1267	0.7436	-0.0995
10.98	-9.6520	0.1640	-1.3514	0.0009	-0.0072	0.0071	14.8421	2.9880	12.5538	0.6489	0.1266	0.7435	-0.0995
10.99	-9.6569	0.1633	-1.3504	0.0012	-0.0045	0.0063	14.9671	3.0860	12.4618	0.6490	0.1267	0.7436	-0.0995
11	-9.6507	0.1630	-1.3493	-0.0028	-0.0059	0.0029	15.0346	3.1255	12.5059	0.6490	0.1266	0.7436	-0.0995
11.01	-9.6546	0.1634	-1.3444	0.0015	-0.0098	0.0099	15.1360	3.1891	12.6767	0.6489	0.1267	0.7436	-0.0995
11.02	-9.6582	0.1635	-1.3551	-0.0004	-0.0143	0.0072	14.8396	3.0737	12.6237	0.6490	0.1267	0.7436	-0.0996
11.03	-9.6718	0.1645	-1.3496	0.0033	-0.0109	0.0140	14.9156	2.9279	12.5768	0.6490	0.1267	0.7435	-0.0996
11.04	-9.6650	0.1545	-1.3465	-0.0020	-0.0130	0.0043	15.0137	2.9763	12.5032	0.6490	0.1267	0.7436	-0.0996
11.05	-9.6542	0.1544	-1.3483	0.0012	-0.0065	0.0036	15.0802	2.9579	12.4892	0.6489	0.1267	0.7435	-0.0996
11.06	-9.6688	0.1439	-1.3535	0.0019	-0.0038	0.0092	15.1635	2.5841	12.3643	0.6490	0.1267	0.7436	-0.0996
11.07	-9.6646	0.1309	-1.3558	-0.0017	-0.0048	0.0072	14.9401	2.7719	12.4984	0.6489	0.1267	0.7436	-0.0996
11.08	-9.6561	0.1351	-1.3482	0.0025	-0.0097	0.0100	15.0482	2.9231	12.6143	0.6489	0.1267	0.7436	-0.0996
11.09	-9.6618	0.1318	-1.3494	0.0021	-0.0107	0.0097	14.8814	2.9172	12.4608	0.6489	0.1267	0.7436	-0.0996
11.1	-9.6686	0.1412	-1.3535	0.0024	-0.0127	0.0063	14.9691	2.9085	12.4803	0.6489	0.1267	0.7436	-0.0996
11.11	-9.6581	0.1411	-1.3505	0.0026	-0.0093	0.0097	15.0087	2.9506	12.5248	0.6490	0.1268	0.7436	-0.0996
11.12	-9.6484	0.1331	-1.3424	-0.0008	-0.0123	0.0094	14.9982	3.1122	12.6603	0.6489	0.1268	0.7435	-0.0996
11.13	-9.6617	0.1344	-1.3460	-0.0058	-0.0138	0.0059	14.9877	2.9547	12.6661	0.6490	0.1267	0.7436	-0.0996
11.14	-9.6658	0.1415	-1.3493	-0.0002	-0.0117	0.0045	15.0244	3.0648	12.6279	0.6490	0.1267	0.7435	-0.0996
11.15	-9.6667	0.1372	-1.3535	0.0030	-0.0080	0.0046	14.9093	3.0642	12.7465	0.6490	0.1267	0.7436	-0.0997
11.16	-9.6647	0.1410	-1.3490	-0.0016	-0.0168	0.0075	15.0048	3.1924	12.6383	0.6490	0.1267	0.7435	-0.0997
11.17	-9.6491	0.1483	-1.3389	-0.0051	-0.0141	0.0059	15.0843	3.1146	12.6790	0.6490	0.1267	0.7435	-0.0997
11.18	-9.6581	0.1602	-1.3441	-0.0054	-0.0098	0.0044	14.9296	3.1299	12.5779	0.6490	0.1267	0.7435	-0.0997
11.19	-9.6702	0.1688	-1.3461	-0.0017	-0.0080	0.0083	14.8865	3.1160	12.6229	0.6490	0.1267	0.7435	-0.0996
11.2	-9.6529	0.1628	-1.3468	0.0025	-0.0084	0.0111	15.1305	2.9692	12.7765	0.6491	0.1267	0.7436	-0.0997
11.21	-9.6658	0.1631	-1.3502	0.0002	-0.0191	0.0082	15.2618	3.0288	12.5924	0.6490	0.1267	0.7435	-0.0996
11.22	-9.6638	0.1563	-1.3609	0.0003	-0.0113	0.0103	15.2479	3.1936	12.5485	0.6491	0.1267	0.7435	-0.0997
11.23	-9.6651	0.1464	-1.3590	0.0024	-0.0047	0.0033	15.1471	3.0029	12.6709	0.6490	0.1267	0.7434	-0.0997
11.24	-9.6626	0.1539	-1.3611	0.0015	-0.0064	0.0070	15.1816	2.7930	12.6501	0.6490	0.1267	0.7435	-0.0997
11.25	-9.6607	0.1614	-1.3513	0.0011	-0.0083	0.0072	15.0898	2.8677	12.5384	0.6490	0.1267	0.7435	-0.0997
11.26	-9.6591	0.1684	-1.3395	-0.0001	-0.0086	0.0075	14.8826	2.7899	12.6128	0.6490	0.1267	0.7435	-0.0997
11.27	-9.6500	0.1682	-1.3420	0.0019	-0.0075	0.0068	15.0335	3.0513	12.4307	0.6490	0.1267	0.7435	-0.0997
11.28	-9.6630	0.1651	-1.3495	0.0014	-0.0124	0.0107	14.9792	3.0630	12.4271	0.6490	0.1267	0.7435	-0.0997
11.29	-9.6689	0.1675	-1.3553	0.0042	-0.0149	0.0058	15.0544	2.9604	12.6977	0.6491	0.1267	0.7435	-0.0997
11.3	-9.6616	0.1597	-1.3546	0.0005	-0.0120	0.0085	15.1055	3.1068	12.5552	0.6490	0.1267	0.7434	-0.0997
11.31	-9.6578	0.1570	-1.3550	-0.0010	-0.0102	0.0010	14.9507	2.9622	12.5721	0.6491	0.1267	0.7435	-0.0998
11.32	-9.6618	0.1533	-1.3500	-0.0013	-0.0142	0.0108	14.7869	3.2016	12.5576	0.6491	0.1267	0.7434	-0.0998
11.33	-9.6627	0.1654	-1.3519	-0.0060	-0.0055	0.0043	14.9281	3.2313	12.5653	0.6491	0.1267	0.7435	-0.0997
11.34	-9.6603	0.1638	-1.3435	0.0005	-0.0126	0.0006	14.9132	2.9343	12.4860	0.6491	0.1267	0.7434	-0.0998
11.35	-9.6529	0.1702	-1.3427	-0.0006	-0.0108	0.0056	14.9381	2.9579	12.4523	0.6491	0.1267	0.7434	-0.0998
11.36	-9.6629	0.1652	-1.3413	-0.0016	-0.0082	0.0008	14.8959	3.1750	12.3703	0.6491	0.1266	0.7435	-0.0998
11.37	-9.6537	0.1673	-1.3419	0.0015	-0.0116	0.0080	15.0125	3.1557	12.7717	0.6490	0.1266	0.7434	-0.0998
11.38	-9.6683	0.1568	-1.3323	0.0019	-0.0140	0.0096	14.9621	3.2635	12.6164	0.6491	0.1267	0.7435	-0.0998
11.39	-9.6618	0.1622	-1.3304	0.0031	-0.0126	0.0111	15.0954	3.0917	12.3981	0.6491	0.1267	0.7434	-0.0998
11.4	-9.6603	0.1676	-1.3301	0.0005	-0.0122	0.0047	15.1564	2.8731	12.6596	0.6492	0.1267	0.7434	-0.0999
11.41	-9.6563	0.1693	-1.3387	0.0034	-0.0074	0.0117	14.8651	3.1171	12.6512	0.6491	0.1267	0.7433	-0.0998
11.42	-9.6556	0.1740	-1.3477	0.0036	-0.0046	0.0097	15.0639	3.1434	12.5466	0.6491	0.1267	0.7434	-0.0999
11.43	-9.6652	0.1715	-1.3527	0.0026	-0.0102	0.0082	15.2573	3.0947	12.7605	0.6491	0.1268	0.7434	-0.0999
11.44	-9.6529	0.1666	-1.3410	-0.0005	-0.0101	0.0089	15.4202	3.2833	12.6764	0.6491	0.1268	0.7433	-0.0999
11.45	-9.6526	0.1637	-1.3412	0.0020	-0.0113	0.0100	15.3841	3.2457	12.5350	0.6492	0.1268	0.7434	-0.0999
11.46	-9.6678	0.1591	-1.3470	0.0027	-0.0042	0.0055	15.0928	2.9690	12.5593	0.6491	0.1268	0.7434	-0.0999
11.47	-9.6738	0.1557	-1.3463	0.0021	-0.0077	0.0038	15.0127	2.8782	12.5386	0.6491	0.1268	0.7434	-0.0999
11.48	-9.6765	0.1551	-1.3477	0.0019	-0.0080	0.0090	14.8869	3.0316	12.4330	0.6490	0.1268	0.7433	-0.0999
11.49	-9.6711	0.1553	-1.3532	0.0022	-0.0049	0.0014	14.8193	3.2080	12.4488	0.6491	0.1268	0.7434	-0.1000
11.5	-9.6537	0.1506	-1.3549	0.0012	-0.0039	0.0035	14.8751	3.1488	12.6100	0.6490	0.1268	0.7434	-0.1000
11.51	-9.6521	0.1527	-1.3550	-0.0087	-0.0043	0.0059	14.9479	2.9869	12.6123	0.6490	0.1268	0.7434	-0.0999
11.52	-9.6552	0.1439	-1.3527	0.0001	-0.0062	0.0070	14.7930	3.1271	12.7336	0.6490	0.1268	0.7435	-0.1000
11.53	-9.6573	0.1415	-1.3542	-0.0032	-0.0125	0.0017	14.7622	3.2897	12.5236	0.6490	0.1267	0.7434	-0.1000
11.54	-9.6615	0.1402	-1.3564	-0.0034	-0.0044	0.0055	14.9084	3.2591	12.5959	0.6490	0.1267	0.7435	-0.1000
11.55	-9.6701	0.1351	-1.3589	-0.0063	-0.0098	0.0000	14.9290	3.1890	12.6195	0.6490	0.1267	0.7434	-0.1000
11.56	-9.6697	0.1303	-1.3555	-0.0000	-0.0114	0.0072	14.7873	3.1674	12.5337	0.6490	0.1267	0.7435	-0.1000
11.57	-9.6688	0.1376	-1.3543	0.0007	-0.0112	0.0117	15.0778	3.0372	12.4769	0.6490	0.1267	0.7434	-0.1000
11.58	-9.6557	0.1599	-1.3418	0.0082	-0.0067	0.0054	15.2016	3.0217	12.5131	0.6490	0.1267	0.7435	-0.1000
11.59	-9.6685	0.1534	-1.3548	0.0016	-0.0048	0.0088	15.0503	2.9326	12.5546	0.6490	0.1267	0.7434	-0.1000
11.6	-9.6714	0.1427	-1.3519	-0.0007	-0.0058	0.0058	15.0960	2.9345	12.4228	0.6490	0.1267	0.7435	-0.1000
11.61	-9.6612	0.1516	-1.3488	0.0025	-0.0098	0.0102	15.2274	2.9421	12.4713	0.6490	0.1267	0.7435	-0.1000
11.62	-9.6506	0.1567	-1.3486	-0.0026	-0.0081	0.0088	14.9557	2.9313	12.4465	0.6489	0.1267	0.7434	-0.1000
11.63	-9.6647	0.1550	-1.3409	0.0027	-0.0110	0.0083	15.0661	2.9354	12.4513	0.6490	0.1268	0.7435	-0.1000
11.64	-9.6675	0.1568	-1.3588	0.0012	-0.0086	0.0072	15.1161	3.0851	12.4615	0.6490	0.1268	0.7435	-0.1000
11.65	-9.6526	0.1594	-1.3447	-0.0067	-0.0104	0.0106	14.9397	3.0783	12.4277	0.6490	0.1268	0.7435	-0.1000
11.66	-9.6676	0.1466	-1.3456	-0.0007	-0.0113	0.0071	15.1132	2.7915	12.4903	0.6490	0.1268	0.7434	-0.1000
