time	acceleration_x	acceleration_y	acceleration_z	gyroscope_x	gyroscope_y	gyroscope_z	magnetometer_x	magnetometer_y	magnetometer_z	quaternion_w	quaternion_x	quaternion_y	quaternion_z
0	-9.6571	0.0818	-1.3713	-0.0087	-0.0174	0.0014	25.3697	1.3512	11.4265	0.6543	0.0641	0.7519	-0.0500
0.01	-9.6521	0.0794	-1.3657	-0.0106	-0.0083	0.0073	25.5131	1.5173	11.3033	0.6543	0.0641	0.7519	-0.0499
0.02	-9.6518	0.0785	-1.3575	-0.0185	-0.0056	0.0087	25.3910	1.5315	11.4682	0.6543	0.0640	0.7519	-0.0499
0.03	-9.6576	0.0785	-1.3710	-0.0193	-0.0075	0.0097	25.2446	1.5351	11.6322	0.6542	0.0640	0.7518	-0.0498
0.04	-9.6566	0.0793	-1.3670	-0.0080	-0.0033	0.0060	25.2302	1.4031	11.6966	0.6543	0.0640	0.7519	-0.0498
0.05	-9.6482	0.0893	-1.3579	-0.0109	-0.0087	0.0056	25.1989	1.3468	11.5332	0.6542	0.0640	0.7519	-0.0498
0.06	-9.6597	0.0898	-1.3504	-0.0003	-0.0135	0.0072	25.2938	1.3687	11.5171	0.6542	0.0640	0.7519	-0.0498
0.07	-9.6678	0.0794	-1.3564	-0.0059	-0.0136	0.0108	25.2337	1.3609	11.5265	0.6543	0.0640	0.7519	-0.0498
0.08	-9.6489	0.0907	-1.3624	-0.0129	-0.0131	0.0070	25.4157	1.2381	11.5216	0.6543	0.0640	0.7519	-0.0498
0.09	-9.6572	0.0850	-1.3743	-0.0122	-0.0132	0.0104	25.6019	1.3749	11.3352	0.6543	0.0640	0.7519	-0.0498
0.1	-9.6576	0.0790	-1.3852	-0.0044	-0.0059	0.0097	25.5027	1.2916	11.4523	0.6542	0.0640	0.7518	-0.0498
0.11	-9.6568	0.0745	-1.3748	-0.0085	-0.0058	0.0081	25.5020	1.1835	11.4282	0.6543	0.0640	0.7519	-0.0498
0.12	-9.6475	0.0642	-1.3648	-0.0142	-0.0135	0.0088	25.4955	1.2040	11.4948	0.6543	0.0639	0.7519	-0.0498
0.13	-9.6528	0.0588	-1.3726	-0.0094	-0.0093	0.0055	25.3001	1.2406	11.5419	0.6543	0.0639	0.7519	-0.0497
0.14	-9.6512	0.0647	-1.3710	-0.0108	-0.0075	0.0117	25.4725	1.4118	11.5180	0.6542	0.0639	0.7519	-0.0497
0.15	-9.6518	0.0749	-1.3679	-0.0130	-0.0112	0.0095	25.3311	1.1871	11.6524	0.6543	0.0639	0.7519	-0.0497
0.16	-9.6630	0.0818	-1.3683	-0.0083	-0.0117	0.0130	25.2839	1.2915	11.5640	0.6543	0.0639	0.7519	-0.0497
0.17	-9.6601	0.0810	-1.3893	-0.0135	-0.0129	0.0075	25.3787	1.4792	11.4095	0.6542	0.0639	0.7518	-0.0496
0.18	-9.6589	0.0744	-1.3904	-0.0179	-0.0040	0.0011	25.1332	1.3272	11.5626	0.6543	0.0638	0.7520	-0.0496
0.19	-9.6497	0.0793	-1.3814	-0.0173	-0.0090	0.0038	25.6204	1.5422	11.6033	0.6543	0.0638	0.7519	-0.0496
0.2	-9.6498	0.0779	-1.3786	-0.0093	-0.0111	0.0094	25.6823	1.7267	11.4486	0.6543	0.0638	0.7520	-0.0496
0.21	-9.6525	0.0789	-1.3867	0.0013	-0.0108	0.0070	25.5660	1.5885	11.7754	0.6542	0.0638	0.7519	-0.0496
0.22	-9.6522	0.0819	-1.3726	-0.0072	-0.0161	0.0049	25.3766	1.3043	11.8603	0.6543	0.0638	0.7519	-0.0496
0.23	-9.6521	0.0809	-1.3723	-0.0062	-0.0075	0.0062	25.3136	1.3083	11.6187	0.6543	0.0638	0.7519	-0.0496
0.24	-9.6529	0.0917	-1.3604	-0.0042	-0.0055	0.0074	25.3451	1.4346	11.4456	0.6542	0.0638	0.7519	-0.0496
0.25	-9.6464	0.0990	-1.3556	-0.0103	-0.0087	0.0085	25.3245	1.4274	11.6186	0.6543	0.0638	0.7520	-0.0496
0.26	-9.6484	0.0938	-1.3551	-0.0042	-0.0083	0.0134	25.1879	1.2964	11.6154	0.6543	0.0638	0.7519	-0.0496
0.27	-9.6614	0.1027	-1.3436	-0.0006	-0.0101	0.0124	25.1863	1.2189	11.5934	0.6543	0.0639	0.7520	-0.0496
0.28	-9.6658	0.1089	-1.3558	-0.0120	-0.0125	0.0107	25.4243	1.4542	11.7857	0.6542	0.0639	0.7519	-0.0496
0.29	-9.6652	0.1105	-1.3599	-0.0019	-0.0070	0.0112	25.5968	1.4109	11.4910	0.6543	0.0639	0.7519	-0.0496
0.3	-9.6631	0.0962	-1.3603	-0.0017	-0.0068	0.0118	25.5479	1.1792	11.5018	0.6543	0.0639	0.7519	-0.0496
0.31	-9.6553	0.1006	-1.3638	-0.0013	-0.0094	0.0085	25.3331	1.4557	11.4541	0.6543	0.0639	0.7519	-0.0496
0.32	-9.6542	0.1119	-1.3686	-0.0059	-0.0069	0.0106	25.3173	1.4002	11.6015	0.6543	0.0639	0.7519	-0.0496
0.33	-9.6504	0.1081	-1.3672	-0.0133	-0.0082	0.0082	25.4565	1.2468	11.5211	0.6542	0.0639	0.7519	-0.0496
0.34	-9.6670	0.1011	-1.3663	0.0000	-0.0057	0.0060	25.3304	1.4416	11.5034	0.6543	0.0639	0.7520	-0.0496
0.35	-9.6583	0.1046	-1.3739	-0.0009	-0.0144	0.0108	25.3287	1.4218	11.6859	0.6542	0.0640	0.7519	-0.0496
0.36	-9.6574	0.0902	-1.3661	-0.0048	-0.0139	0.0078	25.3061	1.5288	11.6231	0.6543	0.0640	0.7519	-0.0496
0.37	-9.6478	0.0822	-1.3626	-0.0066	-0.0071	0.0092	25.2348	1.3500	11.3755	0.6543	0.0640	0.7519	-0.0496
0.38	-9.6621	0.0810	-1.3769	-0.0072	-0.0045	0.0020	25.2497	1.3754	11.4570	0.6543	0.0640	0.7520	-0.0497
0.39	-9.6549	0.0818	-1.3830	-0.0044	-0.0054	0.0087	25.3245	1.6534	11.5743	0.6542	0.0640	0.7519	-0.0497
0.4	-9.6507	0.0872	-1.3801	-0.0083	-0.0007	0.0020	25.4445	1.5192	11.5619	0.6542	0.0639	0.7520	-0.0497
0.41	-9.6600	0.0825	-1.3854	-0.0112	-0.0062	0.0045	25.3436	1.4047	11.5667	0.6542	0.0639	0.7520	-0.0497
0.42	-9.6588	0.0801	-1.3810	-0.0090	-0.0050	0.0085	25.3073	1.4317	11.5630	0.6541	0.0639	0.7520	-0.0496
0.43	-9.6643	0.0822	-1.3671	-0.0096	-0.0110	0.0038	25.4383	1.4451	11.6648	0.6542	0.0639	0.7521	-0.0497
0.44	-9.6495	0.0757	-1.3757	-0.0107	-0.0123	0.0094	25.2153	1.5244	11.6540	0.6542	0.0639	0.7520	-0.0496
0.45	-9.6697	0.0717	-1.3770	-0.0099	-0.0144	0.0102	25.1595	1.5166	11.6254	0.6542	0.0639	0.7520	-0.0496
0.46	-9.6645	0.0819	-1.3779	-0.0084	-0.0120	0.0080	25.5474	1.4213	11.7715	0.6542	0.0639	0.7519	-0.0496
0.47	-9.6614	0.0797	-1.3788	-0.0101	-0.0052	0.0092	25.4115	1.3486	11.7010	0.6542	0.0639	0.7520	-0.0496
0.48	-9.6659	0.0740	-1.3778	-0.0116	-0.0108	0.0069	25.3151	1.4577	11.4915	0.6542	0.0639	0.7520	-0.0496
0.49	-9.6685	0.0793	-1.3746	-0.0063	-0.0090	0.0073	25.5900	1.1322	11.7104	0.6542	0.0639	0.7519	-0.0496
0.5	-9.6634	0.0782	-1.3742	-0.0120	-0.0072	0.0095	25.4748	1.3347	11.5187	0.6542	0.0639	0.7521	-0.0496
0.51	-9.6487	0.0787	-1.3753	-0.0119	-0.0129	0.0088	25.3575	1.2878	11.6495	0.6542	0.0638	0.7520	-0.0495
0.52	-9.6507	0.0783	-1.3694	-0.0083	-0.0128	0.0050	25.2994	1.3449	11.5902	0.6543	0.0638	0.7520	-0.0495
0.53	-9.6571	0.0801	-1.3584	-0.0103	-0.0135	0.0119	25.4799	1.6448	11.5568	0.6542	0.0638	0.7519	-0.0495
0.54	-9.6584	0.0748	-1.3656	-0.0102	-0.0109	0.0101	25.5171	1.3636	11.6654	0.6543	0.0638	0.7520	-0.0495
0.55	-9.6611	0.0835	-1.3678	-0.0239	-0.0056	0.0077	25.4003	1.3426	11.5299	0.6542	0.0638	0.7520	-0.0494
0.56	-9.6563	0.0810	-1.3736	-0.0134	-0.0124	0.0046	25.2351	1.3580	11.5921	0.6542	0.0637	0.7520	-0.0494
0.57	-9.6531	0.0770	-1.3671	-0.0156	-0.0124	0.0082	25.2395	1.3124	11.5441	0.6543	0.0637	0.7520	-0.0494
0.58	-9.6515	0.0818	-1.3767	-0.0113	-0.0050	0.0071	25.1641	1.6589	11.5845	0.6542	0.0637	0.7520	-0.0494
0.59	-9.6556	0.0808	-1.3758	-0.0047	-0.0075	0.0048	25.5064	1.3639	11.5078	0.6543	0.0637	0.7520	-0.0494
0.6	-9.6600	0.0868	-1.3798	-0.0067	-0.0072	0.0085	25.4779	1.1314	11.4088	0.6542	0.0637	0.7519	-0.0494
0.61	-9.6558	0.0892	-1.3734	-0.0115	-0.0033	0.0018	25.4197	1.5073	11.3606	0.6542	0.0637	0.7520	-0.0494
0.62	-9.6559	0.0957	-1.3814	-0.0089	-0.0069	0.0096	25.3677	1.2445	11.4865	0.6542	0.0637	0.7520	-0.0494
0.63	-9.6512	0.0867	-1.3885	-0.0070	-0.0071	0.0089	25.3034	1.5502	11.6115	0.6542	0.0637	0.7520	-0.0494
0.64	-9.6549	0.1019	-1.3828	-0.0079	-0.0136	0.0144	25.4118	1.3141	11.5233	0.6542	0.0637	0.7520	-0.0493
0.65	-9.6668	0.1065	-1.3809	-0.0090	-0.0173	0.0113	25.5369	1.2745	11.7644	0.6542	0.0637	0.7520	-0.0493
0.66	-9.6512	0.1102	-1.3858	-0.0102	-0.0114	0.0123	25.5384	1.4018	11.6456	0.6543	0.0637	0.7520	-0.0493
0.67	-9.6616	0.1048	-1.3917	-0.0089	-0.0116	0.0115	25.3944	1.2419	11.4394	0.6542	0.0637	0.7519	-0.0493
0.68	-9.6607	0.1062	-1.3965	-0.0103	-0.0142	0.0094	25.4013	1.2877	11.8139	0.6543	0.0637	0.7520	-0.0493
0.69	-9.6610	0.0966	-1.3946	-0.0166	-0.0114	0.0020	25.5609	1.5119	11.7074	0.6543	0.0637	0.7519	-0.0493
0.7	-9.6607	0.0877	-1.3900	-0.0125	-0.0101	0.0082	25.7366	1.5281	12.0481	0.6543	0.0637	0.7520	-0.0493
0.71	-9.6556	0.0868	-1.3948	-0.0087	-0.0065	0.0095	25.6221	1.4388	11.8245	0.6542	0.0637	0.7519	-0.0493
0.72	-9.6614	0.0917	-1.3846	-0.0166	-0.0080	0.0083	25.4696	1.2523	11.6973	0.6543	0.0637	0.7520	-0.0492
0.73	-9.6608	0.0867	-1.3769	-0.0085	-0.0106	0.0103	25.4349	1.2790	11.7162	0.6543	0.0637	0.7520	-0.0492
0.74	-9.6568	0.0952	-1.3684	-0.0125	-0.0042	0.0072	25.3439	1.5483	11.5463	0.6542	0.0636	0.7519	-0.0492
0.75	-9.6663	0.0974	-1.3712	-0.0161	-0.0034	0.0101	25.3530	1.4357	11.4571	0.6543	0.0636	0.7521	-0.0491
0.76	-9.6619	0.0979	-1.3782	-0.0132	-0.0137	0.0050	25.4262	1.4491	11.6382	0.6542	0.0636	0.7520	-0.0491
0.77	-9.6525	0.1044	-1.3715	-0.0054	-0.0100	0.0101	25.2399	1.4505	11.5914	0.6543	0.0636	0.7520	-0.0491
0.78	-9.6533	0.1064	-1.3601	-0.0088	-0.0048	0.0020	25.2743	1.4343	11.5295	0.6542	0.0636	0.7520	-0.0491
0.79	-9.6591	0.1143	-1.3599	-0.0098	-0.0105	0.0056	25.2347	1.4685	11.5834	0.6542	0.0636	0.7520	-0.0491
0.8	-9.6594	0.1026	-1.3603	-0.0043	-0.0056	0.0075	25.3112	1.5477	11.6755	0.6542	0.0636	0.7520	-0.0491
0.81	-9.6524	0.0968	-1.3578	-0.0074	-0.0086	0.0032	25.3119	1.5257	11.5573	0.6542	0.0636	0.7520	-0.0492
0.82	-9.6573	0.0898	-1.3535	-0.0044	-0.0113	0.0089	25.0286	1.4448	11.5432	0.6542	0.0636	0.7520	-0.0492
0.83	-9.6559	0.0916	-1.3491	-0.0006	-0.0083	0.0088	25.4300	1.1784	11.7120	0.6542	0.0636	0.7520	-0.0492
0.84	-9.6566	0.0889	-1.3523	-0.0087	-0.0114	0.0074	25.4737	1.0892	11.5372	0.6542	0.0636	0.7520	-0.0492
0.85	-9.6525	0.0851	-1.3541	-0.0130	-0.0103	0.0061	25.3961	1.2029	11.3663	0.6542	0.0636	0.7520	-0.0491
0.86	-9.6592	0.0832	-1.3518	-0.0151	-0.0099	0.0067	25.4424	1.3131	11.4051	0.6543	0.0635	0.7520	-0.0491
0.87	-9.6582	0.0817	-1.3617	-0.0104	-0.0068	0.0090	25.4124	1.2375	11.5366	0.6542	0.0635	0.7520	-0.0491
0.88	-9.6554	0.0848	-1.3589	-0.0173	-0.0108	0.0101	25.3907	1.1792	11.5953	0.6542	0.0635	0.7520	-0.0491
0.89	-9.6539	0.0787	-1.3698	-0.0117	-0.0061	0.0086	25.2016	1.2139	11.4515	0.6542	0.0635	0.7520	-0.0490
0.9	-9.6573	0.0834	-1.3619	-0.0150	-0.0097	0.0093	25.3565	1.2955	11.3741	0.6542	0.0635	0.7520	-0.0490
0.91	-9.6635	0.0714	-1.3623	-0.0215	-0.0087	0.0026	25.4048	1.2766	11.3973	0.6542	0.0634	0.7521	-0.0490
0.92	-9.6693	0.0721	-1.3690	-0.0167	-0.0078	0.0089	25.2556	1.3367	11.3671	0.6542	0.0634	0.7520	-0.0489
0.93	-9.6567	0.0695	-1.3740	-0.0143	-0.0073	0.0050	25.2370	1.5005	11.5976	0.6543	0.0633	0.7521	-0.0489
0.94	-9.6553	0.0668	-1.3766	-0.0105	-0.0045	0.0041	25.1937	1.6299	11.5053	0.6542	0.0633	0.7521	-0.0489
0.95	-9.6578	0.0709	-1.3787	-0.0167	-0.0045	0.0036	25.3012	1.3729	11.4333	0.6542	0.0633	0.7522	-0.0489
0.96	-9.6575	0.0714	-1.3765	-0.0096	-0.0027	0.0083	25.1604	1.3374	11.5901	0.6541	0.0632	0.7521	-0.0488
0.97	-9.6491	0.0719	-1.3818	-0.0087	-0.0043	0.0035	25.2799	1.4105	11.6296	0.6541	0.0632	0.7521	-0.0488
0.98	-9.6591	0.0781	-1.3850	-0.0090	-0.0044	0.0056	25.2552	1.5885	11.5260	0.6541	0.0632	0.7522	-0.0488
0.99	-9.6468	0.0857	-1.3733	-0.0105	-0.0001	0.0001	25.2436	1.4171	11.5690	0.6540	0.0632	0.7522	-0.0488
1	-9.6598	0.0853	-1.3722	-0.0027	-0.0076	0.0072	25.3725	1.5635	11.5508	0.6541	0.0632	0.7523	-0.0489
1.01	-9.6641	0.0896	-1.3684	-0.0101	-0.0100	0.0127	25.4154	1.3566	11.5580	0.6541	0.0632	0.7522	-0.0488
1.02	-9.6625	0.0919	-1.3848	-0.0108	-0.0129	0.0085	25.4863	1.2289	11.3592	0.6541	0.0632	0.7522	-0.0488
1.03	-9.6575	0.1111	-1.3685	-0.0042	-0.0095	0.0099	25.5057	1.4870	11.5654	0.6540	0.0632	0.7521	-0.0488
1.04	-9.6529	0.1187	-1.3729	-0.0114	-0.0074	0.0039	25.5000	1.3137	11.6821	0.6541	0.0632	0.7522	-0.0488
1.05	-9.6607	0.1074	-1.3753	-0.0118	-0.0032	0.0037	25.4717	1.2894	11.6134	0.6541	0.0631	0.7522	-0.0488
1.06	-9.6522	0.0992	-1.3786	-0.0150	-0.0113	0.0022	25.3332	1.2511	11.4604	0.6541	0.0631	0.7522	-0.0488
1.07	-9.6516	0.0979	-1.3790	-0.0151	-0.0075	0.0045	25.3392	1.5000	11.5739	0.6541	0.0630	0.7522	-0.0488
1.08	-9.6629	0.0904	-1.3778	-0.0069	-0.0099	0.0109	25.3510	1.3705	11.5414	0.6541	0.0630	0.7522	-0.0487
1.09	-9.6702	0.0823	-1.3734	-0.0145	-0.0087	0.0093	25.4913	1.2479	11.3984	0.6541	0.0630	0.7523	-0.0487
1.1	-9.6593	0.0803	-1.3754	-0.0101	-0.0071	0.0072	25.2178	1.3566	11.3647	0.6540	0.0630	0.7522	-0.0487
1.11	-9.6512	0.0827	-1.3923	-0.0220	-0.0053	0.0062	25.4105	1.5010	11.6150	0.6541	0.0630	0.7523	-0.0487
1.12	-9.6564	0.0777	-1.3818	-0.0144	-0.0023	0.0024	25.1986	1.4839	11.6481	0.6540	0.0629	0.7523	-0.0486
1.13	-9.6582	0.0795	-1.3929	-0.0058	-0.0078	0.0019	25.2863	1.4773	11.6412	0.6540	0.0629	0.7523	-0.0487
1.14	-9.6532	0.0854	-1.3857	-0.0154	-0.0054	0.0027	25.4388	1.6587	11.6444	0.6540	0.0629	0.7523	-0.0487
1.15	-9.6508	0.0862	-1.3904	-0.0128	-0.0057	0.0022	25.4305	1.3412	11.5247	0.6540	0.0629	0.7523	-0.0487
1.16	-9.6519	0.0889	-1.3801	-0.0122	-0.0060	0.0068	25.3369	1.4353	11.6100	0.6540	0.0628	0.7523	-0.0486
1.17	-9.6553	0.0793	-1.3778	-0.0178	-0.0035	0.0063	25.1417	1.4414	11.3602	0.6539	0.0628	0.7523	-0.0486
1.18	-9.6653	0.0880	-1.3698	-0.0178	-0.0049	0.0059	25.2962	1.4605	11.4973	0.6540	0.0628	0.7524	-0.0486
1.19	-9.6686	0.0884	-1.3664	-0.0107	-0.0092	0.0045	25.5170	1.4091	11.7453	0.6539	0.0627	0.7524	-0.0486
1.2	-9.6717	0.0890	-1.3856	-0.0130	-0.0116	0.0108	25.8411	1.3623	11.9607	0.6540	0.0627	0.7524	-0.0486
1.21	-9.6665	0.0846	-1.3934	-0.0056	-0.0120	0.0118	25.7437	1.3334	11.7234	0.6539	0.0627	0.7523	-0.0485
1.22	-9.6548	0.0834	-1.3838	-0.0064	-0.0081	0.0092	25.7492	1.3511	11.5800	0.6540	0.0628	0.7524	-0.0485
1.23	-9.6591	0.0803	-1.3860	-0.0065	-0.0126	0.0092	25.5075	1.3795	11.4912	0.6540	0.0628	0.7523	-0.0485
1.24	-9.6659	0.0851	-1.3885	-0.0155	-0.0110	0.0115	25.3161	1.2116	11.5482	0.6540	0.0627	0.7523	-0.0485
1.25	-9.6571	0.0959	-1.3843	-0.0165	-0.0111	0.0090	25.3476	1.3755	11.5824	0.6541	0.0627	0.7524	-0.0484
1.26	-9.6639	0.0961	-1.3872	-0.0154	-0.0108	0.0056	25.3376	1.3922	11.4065	0.6540	0.0627	0.7523	-0.0484
1.27	-9.6712	0.0982	-1.3929	-0.0158	-0.0125	-0.0026	25.3313	1.4979	11.3737	0.6541	0.0626	0.7524	-0.0484
1.28	-9.6560	0.0875	-1.3774	-0.0221	-0.0074	0.0082	25.4207	1.4101	11.4675	0.6540	0.0626	0.7523	-0.0484
1.29	-9.6565	0.0813	-1.3849	-0.0192	-0.0134	0.0047	25.4119	1.2228	11.6182	0.6540	0.0625	0.7523	-0.0483
1.3	-9.6587	0.0830	-1.3938	-0.0158	-0.0042	0.0043	25.4304	1.4009	11.4852	0.6540	0.0625	0.7523	-0.0483
1.31	-9.6588	0.0950	-1.3853	-0.0149	-0.0046	-0.0004	25.3545	1.4457	11.5280	0.6540	0.0624	0.7523	-0.0483
1.32	-9.6566	0.0944	-1.3884	-0.0178	-0.0115	0.0107	25.2298	1.2663	11.7695	0.6540	0.0624	0.7524	-0.0482
1.33	-9.6680	0.0937	-1.3850	-0.0120	-0.0057	0.0101	25.2643	1.3187	11.7365	0.6540	0.0624	0.7524	-0.0482
1.34	-9.6724	0.0953	-1.3724	-0.0089	-0.0043	0.0084	25.2322	1.5901	11.7012	0.6540	0.0624	0.7524	-0.0482
1.35	-9.6580	0.0994	-1.3794	-0.0124	-0.0030	0.0053	25.3356	1.2811	11.4609	0.6539	0.0623	0.7523	-0.0482
1.36	-9.6644	0.1010	-1.3697	-0.0109	-0.0019	0.0020	25.4379	1.4614	11.5793	0.6540	0.0623	0.7525	-0.0482
1.37	-9.6591	0.0968	-1.3733	-0.0034	-0.0079	0.0008	25.5347	1.3671	11.7357	0.6539	0.0623	0.7524	-0.0482
1.38	-9.6530	0.0894	-1.3658	-0.0130	-0.0102	0.0084	25.3635	1.5272	11.6886	0.6539	0.0623	0.7525	-0.0482
1.39	-9.6661	0.0856	-1.3576	-0.0138	-0.0137	0.0057	25.2200	1.2872	11.4463	0.6539	0.0623	0.7524	-0.0482
1.4	-9.6632	0.0814	-1.3615	-0.0080	-0.0142	0.0065	25.5270	1.3832	11.6147	0.6540	0.0622	0.7524	-0.0482
1.41	-9.6618	0.0824	-1.3596	-0.0086	-0.0060	0.0039	25.5793	1.1991	11.7095	0.6540	0.0622	0.7524	-0.0482
1.42	-9.6604	0.0817	-1.3837	-0.0122	-0.0073	0.0092	25.5983	1.2237	11.4820	0.6539	0.0622	0.7524	-0.0482
1.43	-9.6635	0.0827	-1.3791	-0.0020	-0.0072	0.0100	25.3624	1.3574	11.3818	0.6540	0.0622	0.7525	-0.0482
1.44	-9.6686	0.0821	-1.3659	-0.0089	-0.0095	0.0085	25.3747	1.4614	11.6731	0.6539	0.0622	0.7524	-0.0482
1.45	-9.6578	0.0822	-1.3731	-0.0099	-0.0109	0.0096	25.6253	1.2683	11.6007	0.6540	0.0622	0.7525	-0.0481
1.46	-9.6703	0.0821	-1.3634	-0.0076	-0.0062	0.0075	25.4680	1.2498	11.4564	0.6539	0.0622	0.7524	-0.0481
1.47	-9.6687	0.0825	-1.3709	-0.0078	-0.0102	0.0106	25.4186	1.3295	11.6264	0.6539	0.0622	0.7524	-0.0481
1.48	-9.6542	0.0818	-1.3708	-0.0089	-0.0122	0.0096	25.3849	1.2283	11.4668	0.6540	0.0622	0.7524	-0.0481
1.49	-9.6532	0.0809	-1.3650	-0.0103	-0.0118	0.0033	25.2435	1.5275	11.6101	0.6539	0.0622	0.7524	-0.0481
1.5	-9.6643	0.0811	-1.3687	-0.0035	-0.0041	0.0055	25.2488	1.3780	11.8769	0.6540	0.0622	0.7525	-0.0481
1.51	-9.6515	0.0812	-1.3670	-0.0047	-0.0057	0.0022	25.2615	1.3068	11.5016	0.6539	0.0622	0.7524	-0.0481
1.52	-9.6506	0.0846	-1.3631	-0.0028	-0.0060	0.0087	25.2449	1.3530	11.5000	0.6540	0.0622	0.7525	-0.0482
1.53	-9.6498	0.0881	-1.3736	-0.0097	-0.0101	0.0093	25.3298	1.2263	11.7826	0.6539	0.0622	0.7524	-0.0481
1.54	-9.6506	0.0903	-1.3683	-0.0001	-0.0021	0.0050	25.4385	1.2733	11.5955	0.6539	0.0622	0.7525	-0.0482
1.55	-9.6559	0.0860	-1.3662	-0.0019	-0.0039	0.0085	25.2374	1.3469	11.5904	0.6539	0.0622	0.7525	-0.0482
1.56	-9.6544	0.0927	-1.3615	-0.0034	-0.0083	0.0103	25.3280	1.3169	11.7035	0.6539	0.0623	0.7525	-0.0482
1.57	-9.6533	0.0895	-1.3687	-0.0048	-0.0095	0.0096	25.3367	1.3369	11.5139	0.6539	0.0623	0.7525	-0.0482
1.58	-9.6647	0.1009	-1.3677	-0.0040	-0.0053	0.0063	25.3516	1.3225	11.3712	0.6538	0.0623	0.7525	-0.0482
1.59	-9.6543	0.0990	-1.3572	-0.0028	-0.0062	0.0095	25.3091	1.3370	11.3812	0.6539	0.0623	0.7525	-0.0482
1.6	-9.6549	0.0980	-1.3576	-0.0047	-0.0048	0.0102	25.5067	1.3213	11.4801	0.6538	0.0623	0.7525	-0.0482
1.61	-9.6541	0.0971	-1.3594	-0.0139	-0.0052	0.0127	25.4866	1.3506	11.5789	0.6538	0.0623	0.7526	-0.0482
1.62	-9.6507	0.0949	-1.3586	-0.0073	-0.0053	0.0110	25.2310	1.4374	11.5858	0.6538	0.0623	0.7525	-0.0482
1.63	-9.6634	0.0906	-1.3553	-0.0090	-0.0115	0.0080	25.3158	1.3507	11.7019	0.6538	0.0623	0.7526	-0.0481
1.64	-9.6621	0.0972	-1.3654	-0.0087	-0.0066	0.0095	25.4367	1.2183	11.5253	0.6538	0.0623	0.7525	-0.0481
1.65	-9.6586	0.0877	-1.3598	-0.0040	-0.0120	0.0090	25.2876	1.2888	11.5000	0.6538	0.0623	0.7525	-0.0481
1.66	-9.6638	0.0808	-1.3510	-0.0053	-0.0148	0.0159	25.4216	1.3291	11.5970	0.6538	0.0624	0.7525	-0.0481
1.67	-9.6619	0.0931	-1.3593	-0.0048	-0.0152	0.0092	25.3428	1.4057	11.5295	0.6538	0.0624	0.7524	-0.0481
1.68	-9.6589	0.0987	-1.3704	-0.0157	-0.0053	0.0094	25.2309	1.4065	11.7960	0.6539	0.0624	0.7526	-0.0481
1.69	-9.6514	0.0983	-1.3772	-0.0145	-0.0017	0.0059	25.6769	1.5783	11.6736	0.6538	0.0623	0.7525	-0.0481
1.7	-9.6545	0.0931	-1.3787	-0.0114	-0.0057	0.0061	25.7728	1.5324	11.6567	0.6539	0.0623	0.7526	-0.0481
1.71	-9.6572	0.0902	-1.3797	-0.0192	-0.0028	0.0051	25.5910	1.4369	11.6370	0.6538	0.0623	0.7525	-0.0480
1.72	-9.6523	0.0797	-1.3786	-0.0176	-0.0060	0.0084	25.3456	1.5305	11.6922	0.6538	0.0622	0.7526	-0.0480
1.73	-9.6551	0.0814	-1.3730	-0.0144	-0.0044	0.0070	25.0601	1.4381	11.8060	0.6538	0.0622	0.7526	-0.0479
1.74	-9.6642	0.0795	-1.3769	-0.0149	-0.0017	0.0086	25.2849	1.4633	11.4867	0.6537	0.0622	0.7526	-0.0479
1.75	-9.6642	0.0809	-1.3727	-0.0148	-0.0067	0.0100	25.2584	1.2620	11.6759	0.6538	0.0622	0.7527	-0.0479
1.76	-9.6581	0.0800	-1.3625	-0.0123	-0.0094	0.0106	25.3126	1.4223	11.5366	0.6537	0.0622	0.7526	-0.0478
1.77	-9.6701	0.0847	-1.3710	-0.0099	-0.0093	0.0112	25.5641	1.2832	11.4021	0.6538	0.0622	0.7527	-0.0478
1.78	-9.6542	0.0886	-1.3792	-0.0092	-0.0130	0.0119	25.3962	1.3785	11.5635	0.6537	0.0622	0.7526	-0.0478
1.79	-9.6529	0.0903	-1.3789	-0.0040	-0.0074	0.0132	25.4756	1.2618	11.5191	0.6538	0.0622	0.7526	-0.0478
1.8	-9.6522	0.0948	-1.3768	-0.0161	-0.0054	0.0105	25.4942	1.3395	11.5676	0.6538	0.0622	0.7526	-0.0477
1.81	-9.6563	0.0935	-1.3848	-0.0164	-0.0012	0.0072	25.3423	1.4009	11.4517	0.6537	0.0622	0.7526	-0.0477
1.82	-9.6550	0.0917	-1.3665	-0.0097	-0.0071	0.0058	25.3588	1.2553	11.3539	0.6537	0.0622	0.7527	-0.0477
1.83	-9.6528	0.0860	-1.3624	-0.0133	-0.0079	0.0100	25.3576	1.3293	11.6228	0.6537	0.0621	0.7527	-0.0477
1.84	-9.6629	0.0831	-1.3765	-0.0221	-0.0085	0.0104	25.3292	1.3881	11.5916	0.6538	0.0621	0.7527	-0.0476
1.85	-9.6599	0.0827	-1.3681	-0.0068	-0.0120	0.0079	25.4504	1.3549	11.3914	0.6537	0.0621	0.7526	-0.0476
1.86	-9.6610	0.0829	-1.3603	-0.0122	-0.0057	0.0092	25.4013	1.4918	11.7346	0.6538	0.0621	0.7527	-0.0476
1.87	-9.6506	0.0845	-1.3699	-0.0219	-0.0031	0.0035	25.3452	1.5435	11.5753	0.6537	0.0621	0.7527	-0.0476
1.88	-9.6526	0.0846	-1.3697	-0.0095	-0.0034	0.0052	25.2992	1.2778	11.6374	0.6537	0.0620	0.7527	-0.0475
1.89	-9.6518	0.0982	-1.3531	-0.0104	-0.0051	0.0057	25.1647	1.2938	11.8540	0.6537	0.0620	0.7527	-0.0475
1.9	-9.6592	0.0878	-1.3584	-0.0133	-0.0035	0.0055	25.1939	1.2603	11.4983	0.6537	0.0620	0.7527	-0.0475
1.91	-9.6608	0.0885	-1.3569	-0.0134	-0.0052	0.0069	25.2235	1.5576	11.4110	0.6537	0.0620	0.7528	-0.0475
1.92	-9.6558	0.0856	-1.3543	-0.0176	-0.0041	0.0077	25.3776	1.6566	11.5365	0.6536	0.0619	0.7527	-0.0475
1.93	-9.6529	0.0829	-1.3552	-0.0183	-0.0043	0.0069	25.2371	1.4968	11.4184	0.6537	0.0619	0.7528	-0.0474
1.94	-9.6537	0.0803	-1.3559	-0.0104	-0.0048	0.0090	25.3223	1.4106	11.6246	0.6536	0.0619	0.7528	-0.0474
1.95	-9.6513	0.0835	-1.3589	-0.0173	-0.0067	0.0067	25.3571	1.0959	11.5631	0.6537	0.0619	0.7529	-0.0474
1.96	-9.6560	0.0821	-1.3563	-0.0123	-0.0070	0.0030	25.4208	1.2253	11.5311	0.6536	0.0618	0.7528	-0.0473
1.97	-9.6574	0.0792	-1.3542	-0.0120	-0.0042	0.0094	25.6666	1.3008	11.5420	0.6536	0.0618	0.7528	-0.0473
1.98	-9.6558	0.0806	-1.3566	-0.0130	-0.0047	0.0071	25.4795	1.3081	11.5668	0.6536	0.0618	0.7528	-0.0473
1.99	-9.6530	0.0880	-1.3619	-0.0074	-0.0066	0.0095	25.3430	1.1967	11.7439	0.6535	0.0618	0.7528	-0.0473
2	-9.6712	0.0879	-1.3593	-0.0088	-0.0090	0.0088	25.3410	1.3075	11.5887	0.6536	0.0618	0.7529	-0.0473
2.01	-9.6525	0.0886	-1.3649	-0.0125	-0.0058	0.0087	25.2581	1.3924	11.6625	0.6536	0.0618	0.7528	-0.0473
2.02	-9.6488	0.0965	-1.3731	-0.0151	-0.0058	0.0104	25.4633	1.5644	11.4950	0.6536	0.0618	0.7529	-0.0472
2.03	-9.6575	0.0862	-1.3734	-0.0142	-0.0035	0.0050	25.3350	1.3647	11.3256	0.6535	0.0617	0.7528	-0.0472
2.04	-9.6602	0.0799	-1.3822	-0.0118	-0.0059	0.0057	25.4789	1.1749	11.5046	0.6536	0.0617	0.7529	-0.0472
2.05	-9.6702	0.0777	-1.3790	-0.0092	-0.0057	0.0058	25.3593	1.3734	11.5664	0.6535	0.0617	0.7529	-0.0472
2.06	-9.6608	0.0794	-1.3785	-0.0119	-0.0031	0.0037	25.3971	1.4056	11.7378	0.6535	0.0617	0.7529	-0.0472
2.07	-9.6523	0.0839	-1.3759	-0.0065	-0.0048	0.0072	25.5394	1.6858	11.5770	0.6535	0.0617	0.7529	-0.0472
2.08	-9.6613	0.0976	-1.3800	-0.0107	-0.0043	0.0074	25.3566	1.5353	11.8079	0.6535	0.0617	0.7529	-0.0472
2.09	-9.6623	0.0971	-1.3781	-0.0113	0.0000	-0.0009	25.3553	1.4128	11.6805	0.6535	0.0617	0.7530	-0.0472
2.1	-9.6670	0.1008	-1.3937	-0.0064	-0.0005	0.0064	25.2763	1.5456	11.5186	0.6534	0.0616	0.7529	-0.0472
2.11	-9.6640	0.1057	-1.3956	-0.0140	-0.0017	0.0063	25.2619	1.4416	11.4029	0.6534	0.0616	0.7530	-0.0472
2.12	-9.6553	0.1000	-1.3952	-0.0080	-0.0081	0.0060	25.2940	1.4292	11.5403	0.6534	0.0616	0.7530	-0.0472
2.13	-9.6557	0.0936	-1.3919	-0.0107	-0.0088	0.0055	25.2239	1.2810	11.6658	0.6534	0.0616	0.7530	-0.0472
2.14	-9.6580	0.0911	-1.3844	-0.0104	-0.0122	0.0114	25.4803	1.2860	11.5190	0.6534	0.0616	0.7530	-0.0472
2.15	-9.6626	0.0921	-1.3865	-0.0185	-0.0076	0.0059	25.7056	1.2000	11.5409	0.6534	0.0616	0.7530	-0.0471
2.16	-9.6586	0.0876	-1.3850	-0.0056	-0.0067	0.0053	25.5150	1.3919	11.3914	0.6535	0.0615	0.7530	-0.0471
2.17	-9.6554	0.0963	-1.3867	-0.0087	-0.0030	0.0049	25.4463	1.3016	11.6186	0.6534	0.0615	0.7530	-0.0471
2.18	-9.6581	0.0950	-1.3861	-0.0067	-0.0118	0.0055	25.3138	1.1718	11.8497	0.6535	0.0615	0.7531	-0.0472
2.19	-9.6635	0.0954	-1.3884	-0.0161	-0.0042	0.0072	25.5287	1.2521	11.7556	0.6534	0.0615	0.7530	-0.0471
2.2	-9.6656	0.0972	-1.3834	-0.0094	-0.0132	0.0106	25.8673	1.3523	11.9243	0.6535	0.0615	0.7531	-0.0471
2.21	-9.6643	0.0985	-1.3825	-0.0101	-0.0145	0.0059	25.6601	1.5171	11.7233	0.6534	0.0615	0.7529	-0.0471
2.22	-9.6581	0.1010	-1.3817	-0.0089	-0.0093	0.0100	25.6069	1.3359	11.7679	0.6535	0.0615	0.7530	-0.0471
2.23	-9.6572	0.0909	-1.3660	-0.0080	-0.0164	0.0082	25.5387	1.2836	11.6561	0.6535	0.0615	0.7530	-0.0471
2.24	-9.6576	0.0983	-1.3649	-0.0094	-0.0141	0.0106	25.4360	1.3327	11.5624	0.6535	0.0615	0.7529	-0.0471
2.25	-9.6632	0.0868	-1.3669	-0.0162	-0.0150	0.0063	25.1791	1.3233	11.5890	0.6536	0.0615	0.7530	-0.0470
2.26	-9.6640	0.0895	-1.3635	-0.0153	-0.0053	-0.0035	25.3713	1.1547	11.6182	0.6535	0.0614	0.7529	-0.0470
2.27	-9.6550	0.0874	-1.3608	-0.0099	-0.0088	0.0059	25.5061	1.2492	11.7136	0.6536	0.0614	0.7530	-0.0470
2.28	-9.6687	0.0817	-1.3580	-0.0176	-0.0069	0.0041	25.1838	1.5185	11.6393	0.6535	0.0613	0.7529	-0.0470
2.29	-9.6652	0.0913	-1.3568	-0.0104	-0.0040	0.0069	25.3870	1.3635	11.7022	0.6536	0.0613	0.7529	-0.0470
2.3	-9.6496	0.0832	-1.3633	-0.0107	-0.0032	0.0068	25.3981	1.2819	11.7944	0.6535	0.0613	0.7529	-0.0470
2.31	-9.6588	0.0898	-1.3641	-0.0122	-0.0055	0.0074	25.4155	1.4277	11.6936	0.6535	0.0613	0.7529	-0.0470
2.32	-9.6661	0.0848	-1.3758	-0.0016	-0.0101	0.0060	25.3141	1.2807	11.4711	0.6535	0.0613	0.7530	-0.0470
2.33	-9.6555	0.0809	-1.3802	-0.0049	-0.0130	0.0111	25.3437	1.2652	11.5225	0.6535	0.0613	0.7529	-0.0470
2.34	-9.6568	0.0812	-1.3710	-0.0096	-0.0040	0.0098	25.2939	1.3215	11.6716	0.6536	0.0613	0.7530	-0.0470
2.35	-9.6590	0.0640	-1.3504	-0.0109	-0.0057	0.0037	25.4857	1.4082	11.6829	0.6535	0.0613	0.7529	-0.0470
2.36	-9.6593	0.0539	-1.3587	-0.0022	-0.0083	0.0084	25.4952	1.3848	11.4609	0.6536	0.0613	0.7530	-0.0470
2.37	-9.6738	0.0637	-1.3627	-0.0034	-0.0055	0.0057	25.4759	1.3375	11.6925	0.6535	0.0613	0.7529	-0.0470
2.38	-9.6626	0.0684	-1.3612	-0.0048	-0.0067	0.0120	25.2405	1.7000	11.5885	0.6535	0.0613	0.7530	-0.0470
2.39	-9.6609	0.0779	-1.3585	-0.0012	-0.0045	0.0057	25.3256	1.5230	11.5592	0.6535	0.0614	0.7529	-0.0471
2.4	-9.6489	0.0852	-1.3457	-0.0004	-0.0059	0.0072	25.4380	1.5081	11.8594	0.6535	0.0614	0.7530	-0.0471
2.41	-9.6549	0.0888	-1.3598	-0.0020	-0.0011	0.0085	25.5257	1.3966	11.5768	0.6535	0.0614	0.7530	-0.0471
2.42	-9.6581	0.0918	-1.3591	-0.0057	-0.0071	0.0090	25.3447	1.1955	11.3757	0.6534	0.0614	0.7529	-0.0471
2.43	-9.6638	0.0963	-1.3644	-0.0059	-0.0040	0.0098	25.1217	1.4514	11.6259	0.6535	0.0615	0.7530	-0.0471
2.44	-9.6622	0.1090	-1.3657	-0.0019	-0.0053	0.0047	25.3409	1.4967	11.7095	0.6534	0.0615	0.7530	-0.0472
2.45	-9.6641	0.1135	-1.3766	-0.0094	-0.0032	0.0045	25.2425	1.4345	11.7953	0.6535	0.0615	0.7531	-0.0472
2.46	-9.6551	0.1037	-1.3776	-0.0125	-0.0067	0.0086	25.3201	1.2880	11.6453	0.6534	0.0614	0.7530	-0.0471
2.47	-9.6519	0.0940	-1.3832	-0.0059	-0.0060	0.0045	25.4360	1.3578	11.7065	0.6534	0.0614	0.7530	-0.0472
2.48	-9.6569	0.0867	-1.3845	-0.0127	-0.0058	0.0086	25.3667	1.4151	11.7931	0.6534	0.0614	0.7530	-0.0472
2.49	-9.6523	0.0812	-1.3881	-0.0102	-0.0031	0.0082	25.5013	1.4090	11.6682	0.6534	0.0614	0.7530	-0.0472
2.5	-9.6622	0.0758	-1.3833	-0.0051	-0.0067	0.0105	25.3750	1.2994	11.7736	0.6534	0.0615	0.7531	-0.0472
2.51	-9.6711	0.0737	-1.3770	-0.0059	-0.0118	0.0150	25.4481	1.4881	11.6173	0.6534	0.0615	0.7530	-0.0471
2.52	-9.6492	0.0812	-1.3782	-0.0021	-0.0118	0.0152	25.5017	1.3982	11.5568	0.6535	0.0615	0.7530	-0.0471
2.53	-9.6512	0.0846	-1.3859	-0.0018	-0.0100	0.0095	25.4853	1.1867	11.7001	0.6534	0.0616	0.7529	-0.0472
2.54	-9.6541	0.0881	-1.3915	-0.0050	-0.0046	0.0089	25.3696	1.1948	11.7640	0.6534	0.0616	0.7530	-0.0472
2.55	-9.6663	0.0903	-1.3737	-0.0023	-0.0091	0.0110	25.4688	1.3792	11.4591	0.6534	0.0616	0.7530	-0.0472
2.56	-9.6563	0.0971	-1.3779	-0.0050	-0.0104	0.0076	25.4955	1.2243	11.6048	0.6534	0.0616	0.7530	-0.0472
2.57	-9.6505	0.1001	-1.3876	-0.0116	-0.0077	0.0080	25.4171	1.3318	11.5718	0.6535	0.0616	0.7530	-0.0472
2.58	-9.6503	0.0914	-1.3804	-0.0074	-0.0104	0.0099	25.2344	1.3201	11.6186	0.6535	0.0616	0.7530	-0.0472
2.59	-9.6555	0.0857	-1.3718	-0.0103	-0.0062	0.0075	25.1739	1.2995	11.4912	0.6535	0.0616	0.7530	-0.0472
2.6	-9.6627	0.0849	-1.3873	-0.0121	-0.0084	0.0086	25.4211	1.4101	11.5943	0.6534	0.0616	0.7529	-0.0471
2.61	-9.6567	0.0813	-1.3844	-0.0047	-0.0054	0.0102	25.5140	1.3979	11.5620	0.6535	0.0616	0.7530	-0.0471
2.62	-9.6604	0.0801	-1.3857	-0.0077	-0.0059	0.0084	25.4358	1.2799	11.5127	0.6534	0.0616	0.7530	-0.0471
2.63	-9.6667	0.0755	-1.3883	-0.0068	-0.0030	0.0072	25.4087	1.4045	11.6745	0.6535	0.0616	0.7530	-0.0471
2.64	-9.6486	0.0683	-1.3788	-0.0080	-0.0023	0.0066	25.3026	1.4087	11.7735	0.6534	0.0616	0.7530	-0.0471
2.65	-9.6523	0.0581	-1.3805	-0.0107	-0.0043	0.0071	25.3603	1.1574	11.7339	0.6534	0.0616	0.7530	-0.0471
2.66	-9.6557	0.0592	-1.3823	-0.0035	-0.0028	0.0083	25.3969	1.3758	11.4627	0.6534	0.0616	0.7530	-0.0471
2.67	-9.6627	0.0734	-1.3730	0.0010	-0.0021	0.0061	25.2145	1.4104	11.5848	0.6533	0.0616	0.7530	-0.0472
2.68	-9.6672	0.1019	-1.3867	-0.0010	-0.0048	0.0070	25.2618	1.3988	11.6852	0.6534	0.0616	0.7531	-0.0472
2.69	-9.6500	0.1238	-1.3592	-0.0046	-0.0102	0.0101	25.7784	1.5438	11.6698	0.6534	0.0617	0.7530	-0.0472
2.7	-9.6720	0.1214	-1.3778	-0.0003	-0.0091	0.0116	25.7625	1.6512	11.6841	0.6534	0.0617	0.7531	-0.0472
2.71	-9.6579	0.1161	-1.3793	-0.0093	-0.0123	0.0119	25.6415	1.6362	11.6246	0.6534	0.0617	0.7530	-0.0472
2.72	-9.6443	0.1166	-1.3533	-0.0078	-0.0108	0.0115	25.5709	1.4823	11.6161	0.6534	0.0617	0.7530	-0.0472
2.73	-9.6733	0.0936	-1.3902	-0.0164	-0.0091	0.0031	25.2387	1.4022	11.3771	0.6534	0.0617	0.7530	-0.0472
2.74	-9.6662	0.0817	-1.3827	-0.0087	-0.0119	0.0124	25.3523	1.3224	11.6134	0.6534	0.0617	0.7529	-0.0471
2.75	-9.6489	0.0843	-1.3706	-0.0074	-0.0074	0.0044	25.3150	1.2054	11.6945	0.6535	0.0617	0.7530	-0.0472
2.76	-9.6602	0.0899	-1.3847	-0.0108	-0.0086	0.0106	25.5091	1.1191	11.6117	0.6534	0.0617	0.7530	-0.0471
2.77	-9.6648	0.1012	-1.3840	-0.0062	-0.0080	0.0123	25.3922	1.2061	11.5568	0.6535	0.0617	0.7530	-0.0471
2.78	-9.6540	0.0913	-1.3759	-0.0076	-0.0103	0.0094	25.2242	1.3140	11.5000	0.6534	0.0617	0.7529	-0.0471
2.79	-9.6638	0.0888	-1.3879	-0.0075	-0.0103	0.0054	25.4719	1.3171	11.6423	0.6535	0.0617	0.7530	-0.0471
2.8	-9.6539	0.0902	-1.3907	-0.0213	-0.0052	0.0070	25.2143	1.4572	11.5875	0.6535	0.0616	0.7530	-0.0471
2.81	-9.6695	0.0735	-1.3959	-0.0143	-0.0011	0.0068	25.3585	1.4868	11.6118	0.6534	0.0616	0.7530	-0.0470
2.82	-9.6568	0.0625	-1.3974	-0.0200	-0.0067	0.0011	25.2202	1.4590	11.5998	0.6535	0.0615	0.7530	-0.0470
2.83	-9.6564	0.0579	-1.3954	-0.0172	-0.0022	0.0048	25.1877	1.3745	11.5998	0.6534	0.0615	0.7530	-0.0470
2.84	-9.6697	0.0612	-1.4138	-0.0105	-0.0094	0.0108	25.1072	1.5889	11.3970	0.6535	0.0615	0.7530	-0.0470
2.85	-9.6593	0.0641	-1.4126	-0.0102	-0.0055	0.0023	25.1589	1.3885	11.5813	0.6534	0.0615	0.7530	-0.0470
2.86	-9.6482	0.0749	-1.3986	-0.0204	-0.0036	0.0085	25.3657	1.2837	11.8604	0.6535	0.0614	0.7531	-0.0469
2.87	-9.6612	0.0761	-1.3936	-0.0107	-0.0076	0.0102	25.3222	1.4858	11.6728	0.6534	0.0614	0.7530	-0.0469
2.88	-9.6595	0.0753	-1.4081	-0.0101	-0.0114	0.0160	25.3275	1.4177	11.5202	0.6535	0.0615	0.7530	-0.0469
2.89	-9.6549	0.0769	-1.4009	-0.0075	-0.0063	0.0084	25.4395	1.2172	11.5050	0.6534	0.0615	0.7530	-0.0469
2.9	-9.6627	0.0841	-1.3888	-0.0090	-0.0049	0.0127	25.3789	1.2136	11.5806	0.6534	0.0615	0.7530	-0.0469
2.91	-9.6720	0.0978	-1.3843	0.0027	-0.0084	0.0092	25.3441	1.2858	11.7631	0.6535	0.0615	0.7530	-0.0469
2.92	-9.6718	0.1099	-1.3597	-0.0103	-0.0108	0.0113	25.5394	1.3224	11.5769	0.6534	0.0615	0.7529	-0.0469
2.93	-9.6532	0.1328	-1.3380	-0.0103	-0.0135	0.0067	25.2692	1.3110	11.7396	0.6535	0.0615	0.7530	-0.0469
2.94	-9.6570	0.1264	-1.3409	-0.0132	-0.0134	0.0101	25.4078	1.4227	11.6377	0.6535	0.0615	0.7530	-0.0469
2.95	-9.6616	0.1083	-1.3383	-0.0123	-0.0120	0.0095	25.3878	1.1320	11.6046	0.6536	0.0615	0.7530	-0.0468
2.96	-9.6563	0.0996	-1.3339	-0.0087	-0.0097	0.0120	25.6133	1.1649	11.6294	0.6535	0.0615	0.7529	-0.0468
2.97	-9.6729	0.0876	-1.3427	-0.0143	-0.0127	0.0077	25.4173	1.2313	11.4860	0.6536	0.0615	0.7529	-0.0468
2.98	-9.6679	0.0804	-1.3435	-0.0128	-0.0129	0.0078	25.3264	1.6137	11.5742	0.6536	0.0614	0.7529	-0.0468
2.99	-9.6526	0.0714	-1.3437	-0.0078	-0.0032	0.0064	25.2659	1.5766	11.6254	0.6535	0.0614	0.7529	-0.0468
3	-9.6364	0.0614	-1.3413	-0.0175	-0.0160	0.0064	25.1773	1.4671	11.4779	0.6536	0.0614	0.7530	-0.0467
3.01	-9.6569	0.0747	-1.3352	-0.0158	-0.0059	0.0019	25.1343	1.4268	11.5636	0.6536	0.0614	0.7529	-0.0467
3.02	-9.6671	0.0811	-1.3414	-0.0083	-0.0047	0.0064	25.1216	1.4196	11.6170	0.6536	0.0613	0.7530	-0.0467
3.03	-9.6680	0.0820	-1.3417	-0.0100	-0.0040	0.0095	25.2821	1.5756	11.5868	0.6535	0.0613	0.7529	-0.0467
3.04	-9.6572	0.0870	-1.3443	-0.0114	-0.0022	-0.0002	25.1343	1.4551	11.7224	0.6536	0.0613	0.7530	-0.0467
3.05	-9.6448	0.0761	-1.3535	-0.0055	-0.0045	0.0098	25.2119	1.6063	11.6419	0.6535	0.0613	0.7529	-0.0467
3.06	-9.6532	0.0806	-1.3521	0.0022	-0.0101	0.0084	25.3456	1.4659	11.5063	0.6535	0.0613	0.7529	-0.0468
3.07	-9.6515	0.0875	-1.3514	-0.0043	-0.0122	0.0095	25.3230	1.4817	11.6138	0.6536	0.0614	0.7529	-0.0468
3.08	-9.6640	0.0886	-1.3657	-0.0114	-0.0129	0.0055	25.2468	1.2167	11.6045	0.6536	0.0613	0.7529	-0.0468
3.09	-9.6575	0.0874	-1.3681	-0.0066	-0.0114	0.0116	25.4361	1.2782	11.4143	0.6536	0.0613	0.7529	-0.0468
3.1	-9.6507	0.0855	-1.3623	-0.0108	-0.0067	0.0063	25.3957	1.3985	11.5304	0.6536	0.0613	0.7528	-0.0467
3.11	-9.6612	0.0917	-1.3569	-0.0101	-0.0048	0.0103	25.5403	1.5031	11.6055	0.6536	0.0613	0.7529	-0.0467
3.12	-9.6549	0.0990	-1.3727	-0.0084	-0.0083	0.0080	25.4202	1.4372	11.4909	0.6536	0.0613	0.7529	-0.0467
3.13	-9.6537	0.1051	-1.3615	-0.0055	-0.0121	0.0054	25.2319	1.3519	11.5322	0.6536	0.0613	0.7529	-0.0467
3.14	-9.6557	0.1036	-1.3592	-0.0080	-0.0061	0.0075	25.3493	1.5144	11.5091	0.6536	0.0613	0.7529	-0.0467
3.15	-9.6721	0.1184	-1.3630	-0.0071	-0.0075	-0.0009	25.3392	1.4237	11.5230	0.6536	0.0613	0.7529	-0.0468
3.16	-9.6546	0.1194	-1.3608	-0.0087	-0.0124	0.0086	25.5005	1.4076	11.7168	0.6536	0.0613	0.7529	-0.0468
3.17	-9.6506	0.1141	-1.3510	-0.0143	-0.0045	0.0089	25.4376	1.2985	11.6002	0.6536	0.0613	0.7528	-0.0467
3.18	-9.6514	0.1126	-1.3620	-0.0074	-0.0003	0.0035	25.1976	1.4260	11.6252	0.6536	0.0612	0.7529	-0.0468
3.19	-9.6527	0.1088	-1.3482	-0.0138	-0.0013	0.0041	25.3323	1.4733	11.8433	0.6536	0.0612	0.7529	-0.0468
3.2	-9.6593	0.0892	-1.3478	-0.0178	-0.0063	0.0084	25.7058	1.7687	11.6907	0.6536	0.0612	0.7530	-0.0467
3.21	-9.6655	0.0810	-1.3578	-0.0093	-0.0039	0.0070	25.4503	1.4244	11.6634	0.6535	0.0612	0.7529	-0.0467
3.22	-9.6657	0.0690	-1.3561	-0.0033	-0.0064	0.0067	25.3158	1.4063	11.6459	0.6536	0.0612	0.7530	-0.0467
3.23	-9.6512	0.0589	-1.3574	-0.0113	-0.0134	0.0021	25.1396	1.4009	11.6827	0.6536	0.0612	0.7529	-0.0467
3.24	-9.6613	0.0475	-1.3711	-0.0075	-0.0056	0.0059	25.3658	1.5497	11.6895	0.6535	0.0612	0.7529	-0.0468
3.25	-9.6657	0.0429	-1.3869	0.0004	-0.0050	0.0089	25.2179	1.5843	11.5691	0.6536	0.0612	0.7530	-0.0468
3.26	-9.6490	0.0518	-1.3735	0.0002	-0.0120	0.0116	25.2274	1.3175	11.6185	0.6536	0.0612	0.7529	-0.0468
3.27	-9.6556	0.0535	-1.3852	-0.0008	-0.0104	0.0120	25.4311	1.5379	11.5363	0.6536	0.0613	0.7529	-0.0468
3.28	-9.6620	0.0570	-1.3831	-0.0048	-0.0090	0.0079	25.5072	1.3137	11.4196	0.6535	0.0613	0.7528	-0.0468
3.29	-9.6618	0.0766	-1.3841	-0.0016	-0.0111	0.0160	25.5950	1.2375	11.4258	0.6536	0.0613	0.7529	-0.0468
3.3	-9.6602	0.0818	-1.3907	-0.0020	-0.0037	0.0110	25.4643	1.2582	11.4613	0.6536	0.0614	0.7529	-0.0468
3.31	-9.6562	0.0798	-1.3952	-0.0042	-0.0106	0.0089	25.5786	1.5197	11.6075	0.6536	0.0614	0.7529	-0.0469
3.32	-9.6705	0.0834	-1.4015	-0.0039	-0.0067	0.0092	25.6058	1.3065	11.6038	0.6536	0.0614	0.7529	-0.0469
3.33	-9.6571	0.0841	-1.4025	-0.0129	-0.0108	0.0078	25.4083	1.1116	11.6050	0.6536	0.0614	0.7529	-0.0469
3.34	-9.6575	0.0882	-1.3970	-0.0084	-0.0088	0.0107	25.3504	1.4191	11.6095	0.6537	0.0614	0.7529	-0.0468
3.35	-9.6673	0.0862	-1.3970	-0.0052	-0.0073	0.0112	25.5595	1.3938	11.5122	0.6536	0.0614	0.7528	-0.0468
3.36	-9.6711	0.0864	-1.3978	-0.0084	-0.0060	0.0083	25.1584	1.4438	11.6069	0.6537	0.0614	0.7529	-0.0468
3.37	-9.6526	0.0927	-1.3890	-0.0021	-0.0023	0.0037	25.5434	1.4693	11.4275	0.6536	0.0614	0.7529	-0.0469
3.38	-9.6510	0.0987	-1.3794	-0.0010	-0.0059	0.0097	25.3029	1.3836	11.4695	0.6536	0.0614	0.7529	-0.0469
3.39	-9.6537	0.1010	-1.3711	-0.0006	-0.0074	0.0078	25.1639	1.4156	11.6352	0.6536	0.0614	0.7529	-0.0469
3.4	-9.6588	0.1091	-1.3727	-0.0074	-0.0059	0.0058	25.2774	1.4128	11.5375	0.6536	0.0614	0.7529	-0.0469
3.41	-9.6653	0.1191	-1.3587	-0.0018	-0.0046	0.0072	25.3105	1.5366	11.3412	0.6536	0.0615	0.7529	-0.0469
3.42	-9.6648	0.1268	-1.3485	-0.0054	-0.0098	0.0058	25.3636	1.0883	11.6247	0.6535	0.0615	0.7528	-0.0470
3.43	-9.6617	0.1347	-1.3586	-0.0099	-0.0063	0.0126	25.2424	1.3403	11.6854	0.6536	0.0615	0.7529	-0.0469
3.44	-9.6490	0.1319	-1.3573	-0.0025	-0.0036	0.0052	25.2567	1.4831	11.5459	0.6536	0.0615	0.7529	-0.0470
3.45	-9.6680	0.1268	-1.3542	-0.0039	-0.0099	0.0051	25.3292	1.3982	11.4264	0.6536	0.0615	0.7529	-0.0470
3.46	-9.6664	0.1195	-1.3522	-0.0066	-0.0105	0.0093	25.3573	1.3158	11.4262	0.6536	0.0615	0.7528	-0.0470
3.47	-9.6633	0.1038	-1.3576	-0.0084	-0.0041	0.0102	25.3461	1.2614	11.4180	0.6536	0.0615	0.7529	-0.0470
3.48	-9.6652	0.0902	-1.3716	-0.0140	-0.0063	0.0046	25.5015	1.3110	11.6387	0.6536	0.0615	0.7529	-0.0470
3.49	-9.6635	0.0765	-1.3612	-0.0117	-0.0066	0.0049	25.5098	1.2109	11.4311	0.6536	0.0614	0.7528	-0.0470
3.5	-9.6517	0.0627	-1.3561	-0.0151	-0.0035	0.0113	25.4211	1.3557	11.4342	0.6536	0.0614	0.7530	-0.0469
3.51	-9.6640	0.0541	-1.3711	-0.0086	-0.0044	0.0101	25.5516	1.3243	11.6701	0.6536	0.0614	0.7529	-0.0469
3.52	-9.6624	0.0476	-1.3772	-0.0160	-0.0084	0.0086	25.5962	1.3255	11.5266	0.6536	0.0614	0.7530	-0.0469
3.53	-9.6808	0.0350	-1.3834	-0.0095	-0.0144	0.0050	25.1977	1.3502	11.4175	0.6535	0.0614	0.7528	-0.0469
3.54	-9.6550	0.0230	-1.3860	-0.0058	-0.0106	0.0036	25.3548	1.1692	11.4305	0.6536	0.0614	0.7529	-0.0469
3.55	-9.6403	0.0356	-1.3757	-0.0092	-0.0077	0.0085	25.5358	1.2456	11.5968	0.6536	0.0614	0.7529	-0.0469
3.56	-9.6497	0.0643	-1.3796	-0.0040	-0.0001	0.0040	25.2496	1.4194	11.6032	0.6536	0.0614	0.7529	-0.0469
3.57	-9.6482	0.0963	-1.3730	-0.0025	-0.0043	0.0128	25.2474	1.4179	11.5011	0.6536	0.0614	0.7529	-0.0469
3.58	-9.6582	0.1176	-1.3793	-0.0045	-0.0034	0.0065	25.3184	1.6075	11.4934	0.6536	0.0614	0.7529	-0.0469
3.59	-9.6647	0.1228	-1.3821	0.0002	-0.0042	0.0069	25.2948	1.3815	11.5536	0.6536	0.0614	0.7530	-0.0470
3.6	-9.6574	0.1159	-1.3817	-0.0091	-0.0086	0.0026	25.2472	1.4372	11.7064	0.6535	0.0614	0.7529	-0.0470
3.61	-9.6591	0.0954	-1.3815	-0.0054	-0.0048	0.0037	25.3466	1.1742	11.5640	0.6536	0.0614	0.7530	-0.0470
3.62	-9.6659	0.0997	-1.3876	-0.0076	-0.0028	0.0105	25.2407	1.3412	11.6522	0.6535	0.0614	0.7529	-0.0470
3.63	-9.6632	0.0959	-1.3850	-0.0043	-0.0062	0.0078	25.2431	1.4583	11.7048	0.6535	0.0614	0.7530	-0.0470
3.64	-9.6736	0.1070	-1.3660	0.0029	-0.0115	0.0095	25.4493	1.2043	11.5918	0.6535	0.0614	0.7529	-0.0471
3.65	-9.6766	0.0990	-1.3907	-0.0029	-0.0104	0.0129	25.4999	1.2828	11.4854	0.6535	0.0615	0.7529	-0.0471
3.66	-9.6647	0.1006	-1.3775	-0.0029	-0.0018	0.0122	25.3893	1.1721	11.5587	0.6535	0.0615	0.7529	-0.0471
3.67	-9.6481	0.0982	-1.3687	-0.0031	-0.0081	0.0129	25.4606	1.2134	11.3941	0.6535	0.0615	0.7529	-0.0471
3.68	-9.6539	0.0826	-1.3724	-0.0079	-0.0102	0.0126	25.2931	1.4702	11.5696	0.6536	0.0616	0.7530	-0.0471
3.69	-9.6675	0.0793	-1.3741	-0.0074	-0.0052	0.0080	25.6922	1.4871	11.8484	0.6535	0.0616	0.7529	-0.0471
3.7	-9.6519	0.0790	-1.3676	-0.0010	-0.0069	0.0097	25.9391	1.5392	11.7020	0.6536	0.0616	0.7530	-0.0471
3.71	-9.6477	0.0781	-1.3606	-0.0062	-0.0048	-0.0005	25.7818	1.3287	11.5672	0.6535	0.0616	0.7529	-0.0471
3.72	-9.6576	0.0794	-1.3655	-0.0093	-0.0068	0.0065	25.4901	1.3700	11.4314	0.6535	0.0616	0.7529	-0.0471
3.73	-9.6637	0.0787	-1.3650	-0.0035	-0.0080	0.0112	25.2803	1.4068	11.4151	0.6535	0.0616	0.7529	-0.0471
3.74	-9.6578	0.0634	-1.3647	-0.0071	-0.0044	0.0067	25.2382	1.6267	11.5280	0.6535	0.0616	0.7529	-0.0471
3.75	-9.6634	0.0533	-1.3729	-0.0116	-0.0048	0.0063	25.4129	1.6058	11.4191	0.6536	0.0616	0.7530	-0.0471
3.76	-9.6411	0.0404	-1.3584	-0.0200	0.0016	-0.0016	25.2146	1.2790	11.4707	0.6535	0.0615	0.7530	-0.0471
3.77	-9.6643	0.0449	-1.3680	-0.0146	0.0003	0.0065	25.1039	1.4821	11.5706	0.6535	0.0615	0.7530	-0.0471
3.78	-9.6478	0.0710	-1.3605	-0.0195	-0.0006	0.0065	25.3021	1.3488	11.4018	0.6534	0.0614	0.7530	-0.0470
3.79	-9.6458	0.0720	-1.3572	-0.0192	-0.0049	0.0052	25.2557	1.6024	11.4850	0.6534	0.0614	0.7531	-0.0470
3.8	-9.6711	0.0817	-1.3620	-0.0147	-0.0036	0.0001	25.3976	1.6190	11.4937	0.6534	0.0613	0.7531	-0.0470
3.81	-9.6508	0.0807	-1.3552	-0.0085	-0.0044	0.0075	25.2524	1.6419	11.3498	0.6534	0.0613	0.7531	-0.0470
3.82	-9.6605	0.0725	-1.3607	-0.0085	-0.0087	0.0127	25.2766	1.4265	11.3241	0.6534	0.0613	0.7531	-0.0470
3.83	-9.6627	0.0793	-1.3492	-0.0001	-0.0080	0.0111	25.5019	1.3573	11.2958	0.6534	0.0614	0.7531	-0.0470
3.84	-9.6538	0.0803	-1.3548	-0.0019	-0.0062	0.0107	25.3220	1.1977	11.3740	0.6534	0.0614	0.7531	-0.0470
3.85	-9.6704	0.0969	-1.3722	-0.0064	-0.0041	0.0077	25.4624	1.2987	11.3706	0.6533	0.0614	0.7530	-0.0470
3.86	-9.6627	0.1015	-1.3786	-0.0019	-0.0048	0.0087	25.2775	1.2793	11.3140	0.6534	0.0614	0.7531	-0.0470
3.87	-9.6495	0.1231	-1.3717	-0.0028	-0.0049	0.0087	25.3515	1.3322	11.4761	0.6533	0.0614	0.7531	-0.0471
3.88	-9.6501	0.1371	-1.3782	-0.0080	-0.0082	0.0064	25.4494	1.3986	11.4847	0.6534	0.0614	0.7531	-0.0471
3.89	-9.6658	0.1282	-1.3870	-0.0090	-0.0037	0.0076	25.4336	1.3598	11.4197	0.6533	0.0614	0.7531	-0.0471
3.9	-9.6656	0.1207	-1.3889	-0.0030	-0.0042	0.0074	25.3724	1.3897	11.8152	0.6533	0.0614	0.7531	-0.0471
3.91	-9.6488	0.0994	-1.3745	-0.0104	-0.0040	0.0091	25.1971	1.3464	11.3664	0.6533	0.0614	0.7531	-0.0471
3.92	-9.6544	0.0922	-1.3787	-0.0059	-0.0102	0.0083	25.0973	1.4527	11.3475	0.6533	0.0614	0.7531	-0.0471
3.93	-9.6539	0.0930	-1.3838	-0.0012	-0.0094	0.0076	25.1387	1.5454	11.3330	0.6534	0.0615	0.7531	-0.0471
3.94	-9.6626	0.0860	-1.3822	-0.0047	-0.0027	0.0073	25.2949	1.3965	11.3941	0.6533	0.0615	0.7531	-0.0471
3.95	-9.6540	0.0927	-1.3901	-0.0025	-0.0025	0.0035	25.0687	1.3407	11.4616	0.6534	0.0615	0.7532	-0.0472
3.96	-9.6655	0.0975	-1.3974	-0.0111	-0.0025	0.0030	25.2067	1.4800	11.4192	0.6532	0.0614	0.7531	-0.0472
3.97	-9.6626	0.0951	-1.3842	-0.0063	-0.0033	0.0044	25.1724	1.4151	11.4516	0.6533	0.0614	0.7532	-0.0472
3.98	-9.6507	0.0940	-1.3839	-0.0065	-0.0061	0.0055	25.2216	1.5575	11.2339	0.6533	0.0614	0.7532	-0.0472
3.99	-9.6522	0.0986	-1.3777	-0.0066	-0.0020	0.0059	25.3697	1.6655	11.3520	0.6532	0.0614	0.7531	-0.0472
4	-9.6584	0.0952	-1.3890	-0.0050	-0.0061	0.0100	25.3205	1.4993	11.4264	0.6533	0.0614	0.7532	-0.0472
4.01	-9.6551	0.0865	-1.3841	-0.0126	-0.0099	0.0063	25.2757	1.3079	11.4948	0.6532	0.0614	0.7532	-0.0472
4.02	-9.6523	0.0803	-1.3895	-0.0107	-0.0115	0.0071	25.4226	1.2860	11.2793	0.6533	0.0614	0.7532	-0.0472
4.03	-9.6656	0.0935	-1.3965	-0.0092	-0.0079	0.0073	25.5148	1.3004	11.3620	0.6532	0.0614	0.7531	-0.0472
4.04	-9.6544	0.0977	-1.3873	-0.0071	-0.0087	0.0074	25.5951	1.2954	11.5531	0.6533	0.0614	0.7532	-0.0472
4.05	-9.6529	0.1020	-1.3817	-0.0079	-0.0096	0.0064	25.4416	1.4476	11.4154	0.6533	0.0614	0.7532	-0.0472
4.06	-9.6700	0.1119	-1.3842	-0.0095	-0.0071	0.0111	25.3721	1.1869	11.4070	0.6533	0.0614	0.7531	-0.0472
4.07	-9.6644	0.0999	-1.3926	-0.0074	-0.0052	0.0061	25.2429	1.3235	11.1400	0.6533	0.0614	0.7532	-0.0472
4.08	-9.6519	0.0921	-1.3797	-0.0072	-0.0112	0.0101	25.4323	1.3591	11.3294	0.6533	0.0614	0.7531	-0.0472
4.09	-9.6593	0.1039	-1.3948	-0.0105	-0.0102	0.0072	25.3647	1.2623	11.6415	0.6533	0.0614	0.7532	-0.0472
4.1	-9.6612	0.0847	-1.3851	-0.0166	-0.0092	0.0096	25.3264	1.3535	11.8380	0.6532	0.0614	0.7531	-0.0471
4.11	-9.6628	0.0769	-1.3848	-0.0105	-0.0115	0.0088	25.3390	1.6232	11.5346	0.6533	0.0614	0.7531	-0.0471
4.12	-9.6495	0.0923	-1.3766	-0.0099	-0.0062	0.0066	25.2201	1.5315	11.6981	0.6533	0.0613	0.7531	-0.0471
4.13	-9.6578	0.0980	-1.3918	-0.0148	-0.0037	0.0042	25.3076	1.4240	11.6430	0.6533	0.0613	0.7532	-0.0471
4.14	-9.6642	0.1043	-1.3953	-0.0096	-0.0047	0.0027	25.0558	1.4579	11.4970	0.6533	0.0613	0.7531	-0.0471
4.15	-9.6410	0.0900	-1.3620	-0.0147	-0.0052	0.0042	25.1579	1.4677	11.6652	0.6533	0.0612	0.7532	-0.0471
4.16	-9.6696	0.0742	-1.3732	-0.0141	-0.0050	0.0025	25.3169	1.5691	11.7070	0.6533	0.0612	0.7532	-0.0471
4.17	-9.6637	0.0699	-1.3806	-0.0124	-0.0037	0.0041	25.1525	1.5136	11.3167	0.6532	0.0612	0.7531	-0.0471
4.18	-9.6452	0.0704	-1.3602	-0.0199	-0.0026	0.0058	25.3121	1.5576	11.3753	0.6533	0.0611	0.7532	-0.0471
4.19	-9.6581	0.0642	-1.3629	-0.0148	-0.0059	0.0069	25.6137	1.5227	11.5993	0.6532	0.0611	0.7532	-0.0470
4.2	-9.6774	0.0595	-1.3741	-0.0070	-0.0086	0.0103	25.5078	1.5795	11.6906	0.6533	0.0611	0.7533	-0.0470
4.21	-9.6638	0.0643	-1.3572	-0.0076	-0.0096	0.0095	25.4725	1.3971	11.6611	0.6532	0.0611	0.7532	-0.0470
4.22	-9.6451	0.0620	-1.3664	-0.0047	-0.0124	0.0060	25.6004	1.4073	11.5888	0.6533	0.0611	0.7532	-0.0470
4.23	-9.6702	0.0442	-1.3823	-0.0098	-0.0131	0.0110	25.4898	1.4186	11.5456	0.6533	0.0611	0.7532	-0.0470
4.24	-9.6505	0.0436	-1.3787	0.0040	-0.0100	0.0141	25.5137	1.2061	11.4009	0.6533	0.0612	0.7531	-0.0470
4.25	-9.6497	0.0575	-1.3686	-0.0020	-0.0059	0.0094	25.2972	1.4679	11.4171	0.6533	0.0612	0.7532	-0.0471
4.26	-9.6618	0.0811	-1.3724	-0.0010	-0.0049	0.0119	25.2138	1.2328	11.8104	0.6533	0.0612	0.7532	-0.0471
4.27	-9.6601	0.1016	-1.3719	-0.0060	-0.0050	0.0057	25.2953	1.3146	11.6301	0.6533	0.0612	0.7532	-0.0471
4.28	-9.6529	0.1132	-1.3598	-0.0062	-0.0034	0.0096	25.4223	1.3492	11.4723	0.6532	0.0612	0.7531	-0.0471
4.29	-9.6509	0.1138	-1.3600	0.0007	-0.0092	0.0090	25.3911	1.2169	11.5208	0.6533	0.0613	0.7532	-0.0471
4.3	-9.6548	0.1082	-1.3704	-0.0122	-0.0038	0.0038	25.2824	1.4611	11.4676	0.6532	0.0613	0.7532	-0.0471
4.31	-9.6592	0.1006	-1.3796	-0.0109	-0.0010	0.0065	25.4289	1.5173	11.5705	0.6532	0.0612	0.7532	-0.0471
4.32	-9.6623	0.0879	-1.3701	-0.0107	-0.0007	0.0038	25.2038	1.4845	11.6780	0.6532	0.0612	0.7533	-0.0471
4.33	-9.6707	0.0873	-1.3762	-0.0040	-0.0048	0.0070	25.4059	1.3830	11.5424	0.6532	0.0612	0.7532	-0.0471
4.34	-9.6613	0.0904	-1.3868	-0.0029	-0.0046	0.0110	25.3379	1.2657	11.6390	0.6532	0.0613	0.7533	-0.0471
4.35	-9.6446	0.1044	-1.3862	-0.0048	-0.0031	0.0063	25.3968	1.2247	11.3874	0.6531	0.0613	0.7532	-0.0471
4.36	-9.6477	0.1094	-1.3844	-0.0005	-0.0030	0.0075	25.3174	1.4847	11.5356	0.6532	0.0613	0.7533	-0.0472
4.37	-9.6520	0.1064	-1.3763	-0.0122	-0.0086	0.0092	25.3327	1.4662	11.5879	0.6531	0.0613	0.7533	-0.0472
4.38	-9.6554	0.1215	-1.3739	-0.0039	-0.0103	0.0129	25.2670	1.3449	11.5957	0.6532	0.0613	0.7533	-0.0472
4.39	-9.6506	0.1214	-1.3752	-0.0010	-0.0098	0.0114	25.2152	1.2207	11.4772	0.6531	0.0613	0.7532	-0.0472
4.4	-9.6612	0.1027	-1.3970	-0.0054	-0.0095	0.0068	25.4091	1.2969	11.5332	0.6532	0.0613	0.7532	-0.0472
4.41	-9.6653	0.0983	-1.3933	-0.0085	-0.0037	0.0075	25.5177	1.3169	11.6110	0.6532	0.0613	0.7533	-0.0472
4.42	-9.6433	0.0850	-1.3908	-0.0111	-0.0052	0.0089	25.4105	1.1392	11.5744	0.6531	0.0613	0.7532	-0.0472
4.43	-9.6593	0.0642	-1.4112	-0.0070	-0.0046	0.0088	25.2846	1.2777	11.6969	0.6532	0.0613	0.7533	-0.0472
4.44	-9.6687	0.0628	-1.4081	0.0003	-0.0070	0.0093	25.3936	1.5119	11.6554	0.6531	0.0614	0.7533	-0.0472
4.45	-9.6644	0.0828	-1.3915	-0.0009	-0.0036	0.0112	25.5485	1.4321	11.6854	0.6532	0.0614	0.7533	-0.0472
4.46	-9.6511	0.1090	-1.3969	-0.0038	-0.0071	0.0081	25.2738	1.4080	11.6550	0.6531	0.0614	0.7532	-0.0472
4.47	-9.6603	0.1269	-1.4038	-0.0020	-0.0118	0.0106	25.3617	1.5188	11.6881	0.6531	0.0614	0.7533	-0.0472
4.48	-9.6518	0.0963	-1.3920	-0.0054	-0.0097	0.0115	25.4103	1.4978	11.6192	0.6531	0.0615	0.7533	-0.0472
4.49	-9.6500	0.0735	-1.3833	-0.0134	-0.0029	0.0084	25.4063	1.4458	11.5017	0.6531	0.0615	0.7532	-0.0472
4.5	-9.6768	0.0747	-1.3957	-0.0103	-0.0122	0.0027	25.3980	1.2946	11.4715	0.6532	0.0614	0.7533	-0.0472
4.51	-9.6623	0.0829	-1.3774	-0.0181	-0.0033	0.0030	25.4286	1.2560	11.8434	0.6531	0.0614	0.7533	-0.0472
4.52	-9.6469	0.0721	-1.3606	-0.0133	-0.0046	0.0079	25.5183	1.4379	11.5127	0.6531	0.0614	0.7533	-0.0472
4.53	-9.6549	0.0613	-1.3431	-0.0114	-0.0054	0.0044	25.3894	1.3333	11.5964	0.6531	0.0613	0.7532	-0.0472
4.54	-9.6922	0.0847	-1.3809	-0.0168	-0.0069	0.0055	25.4055	1.2240	11.6428	0.6531	0.0613	0.7533	-0.0471
4.55	-9.6235	0.0761	-1.3277	-0.0140	-0.0026	0.0049	25.4103	1.2830	11.4927	0.6531	0.0613	0.7533	-0.0471
4.56	-9.6569	0.0698	-1.3573	-0.0046	-0.0079	0.0129	25.3883	1.1588	11.6379	0.6531	0.0613	0.7533	-0.0471
4.57	-9.6732	0.0679	-1.3653	-0.0061	-0.0112	0.0110	25.5064	1.2660	11.5695	0.6531	0.0613	0.7533	-0.0471
4.58	-9.6387	0.0597	-1.3388	-0.0087	-0.0112	0.0075	25.5777	1.3692	11.4569	0.6531	0.0613	0.7533	-0.0471
4.59	-9.6537	0.0648	-1.3448	-0.0023	-0.0086	0.0100	25.3851	1.2830	11.4053	0.6531	0.0613	0.7533	-0.0471
4.6	-9.6673	0.0625	-1.3615	-0.0049	-0.0035	0.0082	25.4959	1.1571	11.3446	0.6530	0.0614	0.7532	-0.0471
4.61	-9.6593	0.0868	-1.3593	-0.0027	-0.0051	0.0114	25.5845	1.1882	11.3158	0.6531	0.0614	0.7533	-0.0471
4.62	-9.6436	0.0934	-1.3589	-0.0002	-0.0053	0.0081	25.4136	1.4441	11.6662	0.6531	0.0614	0.7533	-0.0472
4.63	-9.6588	0.1212	-1.3681	-0.0075	-0.0068	0.0099	25.3947	1.3282	11.6106	0.6531	0.0614	0.7533	-0.0472
4.64	-9.6585	0.1248	-1.3788	-0.0038	-0.0043	0.0106	25.4143	1.4246	11.4840	0.6531	0.0615	0.7533	-0.0472
4.65	-9.6515	0.1284	-1.3617	-0.0003	-0.0097	0.0105	25.5002	1.4100	11.6119	0.6531	0.0615	0.7533	-0.0472
4.66	-9.6657	0.1210	-1.3753	-0.0032	-0.0123	0.0099	25.4769	1.2559	11.5822	0.6531	0.0615	0.7533	-0.0472
4.67	-9.6582	0.1060	-1.3853	-0.0076	-0.0099	0.0076	25.4935	1.2490	11.5888	0.6531	0.0615	0.7532	-0.0472
4.68	-9.6466	0.1034	-1.3701	-0.0022	0.0008	0.0017	25.3810	1.3457	11.5953	0.6531	0.0615	0.7534	-0.0472
4.69	-9.6450	0.1090	-1.3853	-0.0126	-0.0054	0.0049	25.5660	1.4807	11.7120	0.6531	0.0615	0.7533	-0.0472
4.7	-9.6549	0.1082	-1.3791	-0.0053	-0.0067	0.0093	25.7377	1.5149	11.8657	0.6531	0.0615	0.7534	-0.0472
4.71	-9.6515	0.1159	-1.3660	-0.0113	-0.0020	0.0018	25.6160	1.4625	11.7311	0.6530	0.0615	0.7533	-0.0472
4.72	-9.6527	0.1271	-1.3799	-0.0139	-0.0036	0.0066	25.4218	1.3953	11.6361	0.6530	0.0614	0.7534	-0.0472
4.73	-9.6586	0.1080	-1.3866	-0.0109	-0.0065	0.0074	25.2528	1.4454	11.5253	0.6530	0.0614	0.7534	-0.0472
4.74	-9.6544	0.0937	-1.3864	-0.0086	-0.0070	0.0089	25.3132	1.4232	11.3126	0.6530	0.0614	0.7533	-0.0472
4.75	-9.6626	0.0863	-1.4001	-0.0137	-0.0030	0.0068	25.0536	1.5934	11.4839	0.6531	0.0614	0.7534	-0.0472
4.76	-9.6557	0.0804	-1.3900	-0.0202	-0.0134	0.0113	25.0518	1.3961	11.5131	0.6530	0.0614	0.7534	-0.0471
4.77	-9.6601	0.0805	-1.3904	-0.0160	-0.0129	0.0048	25.3867	1.2824	11.3666	0.6531	0.0614	0.7534	-0.0471
4.78	-9.6578	0.0812	-1.3924	-0.0102	-0.0090	0.0092	25.6238	1.5185	11.3441	0.6530	0.0613	0.7533	-0.0471
4.79	-9.6479	0.0813	-1.3837	-0.0065	-0.0096	0.0108	25.5559	1.2035	11.5088	0.6531	0.0614	0.7534	-0.0471
4.8	-9.6591	0.0784	-1.3879	-0.0077	-0.0060	0.0058	25.5088	1.3967	11.3598	0.6531	0.0614	0.7533	-0.0471
4.81	-9.6736	0.0619	-1.3849	-0.0074	-0.0034	0.0108	25.4650	1.2851	11.4474	0.6530	0.0614	0.7533	-0.0471
4.82	-9.6576	0.0687	-1.3940	-0.0131	-0.0113	0.0101	25.2297	1.2954	11.4327	0.6531	0.0614	0.7534	-0.0471
4.83	-9.6539	0.0756	-1.3833	-0.0050	-0.0103	0.0112	25.5452	1.5111	11.4965	0.6531	0.0614	0.7533	-0.0471
4.84	-9.6650	0.0722	-1.3993	-0.0107	-0.0098	0.0045	25.6027	1.3957	11.5067	0.6531	0.0614	0.7533	-0.0471
4.85	-9.6709	0.0831	-1.3880	-0.0084	-0.0091	0.0112	25.6008	1.2875	11.3543	0.6530	0.0614	0.7533	-0.0470
4.86	-9.6511	0.0796	-1.3840	-0.0105	-0.0088	0.0095	25.2932	1.2929	11.3466	0.6531	0.0614	0.7533	-0.0470
4.87	-9.6535	0.0820	-1.3928	-0.0210	-0.0045	0.0082	24.9798	1.4166	11.2553	0.6531	0.0614	0.7533	-0.0470
4.88	-9.6611	0.0707	-1.3876	-0.0168	-0.0057	0.0031	25.1868	1.5195	11.4811	0.6531	0.0613	0.7533	-0.0470
4.89	-9.6471	0.0653	-1.3778	-0.0076	-0.0035	0.0082	25.1831	1.5480	11.3113	0.6531	0.0613	0.7533	-0.0470
4.9	-9.6451	0.0789	-1.3715	-0.0057	-0.0007	0.0054	25.1110	1.5053	11.5219	0.6531	0.0613	0.7534	-0.0470
4.91	-9.6654	0.0982	-1.3824	-0.0119	-0.0074	0.0003	25.4015	1.3944	11.4773	0.6531	0.0613	0.7534	-0.0470
4.92	-9.6646	0.1202	-1.3691	-0.0031	-0.0011	0.0069	25.2397	1.3329	11.4405	0.6530	0.0613	0.7533	-0.0470
4.93	-9.6494	0.1051	-1.3710	-0.0014	-0.0123	0.0093	25.3070	1.5164	11.3331	0.6531	0.0613	0.7534	-0.0470
4.94	-9.6660	0.0832	-1.3865	-0.0044	-0.0094	0.0110	25.2009	1.4731	11.5420	0.6530	0.0613	0.7533	-0.0470
4.95	-9.6639	0.0859	-1.3701	-0.0016	-0.0102	0.0111	25.2404	1.2663	11.4175	0.6531	0.0614	0.7534	-0.0470
4.96	-9.6554	0.1163	-1.3660	-0.0066	-0.0145	0.0084	25.3702	1.2943	11.2316	0.6531	0.0614	0.7533	-0.0470
4.97	-9.6522	0.1237	-1.3559	-0.0076	-0.0078	0.0071	25.2513	1.1847	11.4307	0.6531	0.0614	0.7533	-0.0470
4.98	-9.6491	0.0915	-1.3627	-0.0078	-0.0079	0.0078	25.4335	1.2047	11.6369	0.6531	0.0614	0.7533	-0.0470
4.99	-9.6593	0.0651	-1.3670	-0.0049	-0.0051	0.0086	25.4132	1.2606	11.5673	0.6531	0.0614	0.7533	-0.0470
5	-9.6596	0.0717	-1.3571	-0.0017	-0.0057	0.0094	25.5377	1.5013	11.3127	0.6531	0.0614	0.7534	-0.0471
5.01	-9.6610	0.0882	-1.3558	-0.0058	-0.0123	0.0100	25.3576	1.2861	11.5410	0.6531	0.0614	0.7533	-0.0471
5.02	-9.6559	0.0985	-1.3632	-0.0005	-0.0076	0.0066	25.3685	1.3120	11.2652	0.6531	0.0615	0.7533	-0.0471
5.03	-9.6518	0.0819	-1.3645	-0.0099	-0.0051	0.0104	25.2643	1.1821	11.3760	0.6530	0.0615	0.7533	-0.0471
5.04	-9.6632	0.0769	-1.3745	-0.0060	-0.0116	0.0094	25.2810	1.2362	11.4378	0.6531	0.0615	0.7533	-0.0471
5.05	-9.6588	0.0820	-1.3678	-0.0044	-0.0044	0.0076	25.0827	1.4504	11.3529	0.6531	0.0615	0.7533	-0.0471
5.06	-9.6647	0.0874	-1.3688	-0.0095	-0.0046	0.0046	25.2937	1.4554	11.5545	0.6531	0.0615	0.7533	-0.0471
5.07	-9.6662	0.0997	-1.3775	-0.0089	-0.0068	0.0037	25.4886	1.4424	11.5304	0.6531	0.0615	0.7533	-0.0471
5.08	-9.6624	0.1015	-1.3832	-0.0082	-0.0028	0.0043	25.3528	1.4880	11.3915	0.6531	0.0615	0.7533	-0.0471
5.09	-9.6544	0.1005	-1.3774	-0.0133	-0.0016	0.0014	25.2146	1.5488	11.5692	0.6531	0.0614	0.7534	-0.0471
5.1	-9.6526	0.0901	-1.3902	-0.0169	-0.0002	0.0022	25.4291	1.5365	11.6538	0.6530	0.0614	0.7533	-0.0471
5.11	-9.6615	0.0798	-1.3892	-0.0149	-0.0076	0.0059	25.4414	1.4276	11.4857	0.6530	0.0613	0.7534	-0.0471
5.12	-9.6569	0.0726	-1.3812	-0.0092	-0.0048	0.0086	25.2479	1.5014	11.2640	0.6530	0.0613	0.7534	-0.0471
5.13	-9.6549	0.0687	-1.3943	-0.0122	-0.0034	0.0084	25.1604	1.5217	11.3170	0.6530	0.0613	0.7534	-0.0470
5.14	-9.6545	0.0708	-1.3866	-0.0131	-0.0110	0.0052	25.2833	1.1397	11.4806	0.6530	0.0613	0.7534	-0.0470
5.15	-9.6589	0.0988	-1.3895	-0.0018	-0.0081	0.0074	25.4992	1.1526	11.5561	0.6530	0.0613	0.7534	-0.0470
5.16	-9.6500	0.0958	-1.3919	-0.0109	-0.0053	0.0101	25.4779	1.2460	11.5214	0.6530	0.0613	0.7534	-0.0470
5.17	-9.6573	0.0943	-1.3931	-0.0118	-0.0055	0.0093	25.3326	1.4642	11.2370	0.6530	0.0613	0.7533	-0.0470
5.18	-9.6704	0.0927	-1.3821	-0.0141	-0.0036	0.0054	25.4536	1.4437	11.4035	0.6530	0.0613	0.7534	-0.0470
5.19	-9.6712	0.0978	-1.3968	-0.0087	-0.0074	0.0059	25.5554	1.3422	11.7453	0.6530	0.0613	0.7534	-0.0470
5.2	-9.6652	0.0800	-1.3898	-0.0215	-0.0117	0.0006	25.8406	1.1901	11.6850	0.6531	0.0612	0.7535	-0.0470
5.21	-9.6544	0.0838	-1.3950	-0.0114	-0.0064	0.0078	25.7301	1.3777	11.8733	0.6530	0.0612	0.7534	-0.0469
5.22	-9.6624	0.0728	-1.4110	-0.0102	-0.0055	0.0094	25.5274	1.4392	11.7190	0.6530	0.0612	0.7534	-0.0469
5.23	-9.6560	0.0720	-1.4024	-0.0096	-0.0113	0.0087	25.3055	1.3310	11.6224	0.6530	0.0612	0.7534	-0.0469
5.24	-9.6482	0.0756	-1.3908	-0.0043	-0.0070	0.0110	25.4227	1.5177	11.6665	0.6530	0.0612	0.7533	-0.0469
5.25	-9.6627	0.0786	-1.4035	-0.0045	-0.0103	0.0049	25.3996	1.3835	11.6473	0.6531	0.0612	0.7534	-0.0469
5.26	-9.6599	0.0784	-1.4056	-0.0071	-0.0050	0.0041	25.3111	1.2887	11.5198	0.6530	0.0612	0.7534	-0.0470
5.27	-9.6503	0.0760	-1.3950	-0.0110	-0.0041	0.0091	25.3422	1.3911	11.6646	0.6531	0.0612	0.7534	-0.0469
5.28	-9.6607	0.0829	-1.4026	-0.0088	-0.0027	0.0045	25.3145	1.4821	11.5592	0.6530	0.0612	0.7534	-0.0469
5.29	-9.6581	0.0798	-1.3892	-0.0068	-0.0113	0.0045	25.4566	1.4159	11.3561	0.6530	0.0612	0.7534	-0.0470
5.3	-9.6540	0.0870	-1.3814	-0.0147	-0.0033	0.0015	25.3538	1.3514	11.5732	0.6530	0.0612	0.7534	-0.0470
5.31	-9.6629	0.0994	-1.3893	-0.0121	-0.0106	0.0038	25.3145	1.3158	11.5595	0.6530	0.0611	0.7534	-0.0470
5.32	-9.6709	0.0976	-1.3801	-0.0131	-0.0155	0.0111	25.4221	1.3945	11.5771	0.6531	0.0611	0.7534	-0.0469
5.33	-9.6560	0.1125	-1.3771	-0.0151	-0.0109	0.0095	25.5381	1.3492	11.4223	0.6531	0.0611	0.7534	-0.0469
5.34	-9.6507	0.1106	-1.3755	-0.0093	-0.0068	0.0108	25.4113	1.3948	11.3773	0.6531	0.0611	0.7534	-0.0469
5.35	-9.6512	0.0967	-1.3564	-0.0033	-0.0056	0.0042	25.4919	1.2065	11.4736	0.6530	0.0611	0.7533	-0.0469
5.36	-9.6569	0.0865	-1.3593	-0.0053	-0.0050	0.0111	25.5834	1.3689	11.5157	0.6531	0.0611	0.7534	-0.0469
5.37	-9.6631	0.0810	-1.3525	-0.0097	-0.0089	0.0094	25.4532	1.2954	11.4085	0.6531	0.0611	0.7534	-0.0469
5.38	-9.6647	0.0812	-1.3321	-0.0132	-0.0096	0.0083	25.5440	1.3678	11.4547	0.6531	0.0611	0.7534	-0.0469
5.39	-9.6610	0.0735	-1.3322	-0.0105	-0.0115	0.0083	25.2878	1.1905	11.5807	0.6531	0.0611	0.7533	-0.0469
5.4	-9.6586	0.0713	-1.3370	-0.0080	-0.0060	0.0021	25.2680	1.3114	11.4626	0.6531	0.0611	0.7533	-0.0469
5.41	-9.6521	0.0770	-1.3305	-0.0047	-0.0075	0.0058	25.5687	1.2569	11.6658	0.6531	0.0611	0.7534	-0.0469
5.42	-9.6620	0.0790	-1.3275	0.0021	-0.0110	0.0118	25.5218	1.3198	11.6617	0.6531	0.0611	0.7533	-0.0469
5.43	-9.6597	0.0857	-1.3371	-0.0010	-0.0089	0.0075	25.2588	1.3980	11.6374	0.6531	0.0612	0.7534	-0.0469
5.44	-9.6618	0.0808	-1.3319	-0.0003	-0.0027	0.0055	25.2993	1.3323	11.6855	0.6531	0.0612	0.7533	-0.0470
5.45	-9.6583	0.0750	-1.3440	0.0002	0.0002	0.0058	25.5334	1.4166	11.5561	0.6531	0.0612	0.7534	-0.0470
5.46	-9.6557	0.0784	-1.3427	0.0033	-0.0045	0.0126	25.3823	1.0876	11.6864	0.6530	0.0613	0.7533	-0.0470
5.47	-9.6563	0.0785	-1.3419	-0.0002	-0.0013	0.0095	25.4350	1.3418	11.6061	0.6530	0.0613	0.7534	-0.0471
5.48	-9.6520	0.0650	-1.3271	-0.0003	-0.0036	0.0102	25.3632	1.2428	11.4268	0.6530	0.0613	0.7534	-0.0471
5.49	-9.6655	0.0576	-1.3557	-0.0013	-0.0004	0.0058	25.3084	1.3147	11.5586	0.6530	0.0614	0.7534	-0.0471
5.5	-9.6572	0.0639	-1.3405	-0.0003	-0.0057	0.0096	25.4335	1.4049	11.7895	0.6530	0.0614	0.7535	-0.0472
5.51	-9.6535	0.0691	-1.3518	-0.0006	-0.0085	0.0156	25.3921	1.3182	11.3872	0.6530	0.0615	0.7534	-0.0472
5.52	-9.6574	0.0782	-1.3432	0.0015	-0.0118	0.0151	25.4836	1.2693	11.3199	0.6530	0.0615	0.7534	-0.0472
5.53	-9.6803	0.0872	-1.3691	-0.0003	-0.0049	0.0093	25.5112	1.2404	11.5314	0.6529	0.0615	0.7533	-0.0472
5.54	-9.6542	0.0956	-1.3746	0.0026	-0.0054	0.0091	25.3704	1.2220	11.4471	0.6530	0.0616	0.7534	-0.0472
5.55	-9.6394	0.1032	-1.3585	-0.0028	-0.0065	0.0090	25.4860	1.1600	11.5344	0.6530	0.0616	0.7534	-0.0472
5.56	-9.6701	0.0996	-1.3943	-0.0002	-0.0056	0.0081	25.4520	1.3647	11.3616	0.6530	0.0616	0.7534	-0.0473
5.57	-9.6672	0.0976	-1.3832	-0.0004	-0.0024	0.0101	25.2158	1.1990	11.5253	0.6530	0.0617	0.7534	-0.0473
5.58	-9.6628	0.0827	-1.4033	-0.0012	-0.0072	0.0108	25.3951	1.4175	11.6618	0.6530	0.0617	0.7534	-0.0473
5.59	-9.6589	0.0898	-1.4121	-0.0034	-0.0054	0.0069	25.4136	1.5046	11.5070	0.6530	0.0617	0.7534	-0.0473
5.6	-9.6608	0.0974	-1.4131	0.0014	-0.0077	0.0120	25.4165	1.1789	11.6843	0.6529	0.0618	0.7533	-0.0473
5.61	-9.6627	0.0912	-1.4123	-0.0012	-0.0061	0.0110	25.2969	1.3148	11.6405	0.6530	0.0618	0.7534	-0.0474
5.62	-9.6657	0.0975	-1.4118	-0.0016	0.0001	0.0090	25.3910	1.2301	11.6620	0.6529	0.0618	0.7534	-0.0474
5.63	-9.6674	0.0869	-1.4218	-0.0064	-0.0033	0.0046	25.6354	1.1784	11.3956	0.6529	0.0618	0.7534	-0.0474
5.64	-9.6661	0.0795	-1.4136	-0.0031	-0.0019	0.0077	25.3621	1.4538	11.3913	0.6529	0.0619	0.7534	-0.0474
5.65	-9.6601	0.0889	-1.4134	0.0013	-0.0053	0.0071	25.3659	1.2691	11.6324	0.6529	0.0619	0.7534	-0.0474
5.66	-9.6602	0.1027	-1.4201	0.0026	-0.0094	0.0093	25.5667	1.3780	11.6855	0.6529	0.0619	0.7534	-0.0475
5.67	-9.6575	0.1266	-1.4090	0.0036	-0.0052	0.0080	25.3103	1.2023	11.5560	0.6528	0.0620	0.7534	-0.0475
5.68	-9.6571	0.1365	-1.4125	-0.0119	-0.0049	0.0017	25.2513	1.3780	11.5844	0.6529	0.0619	0.7535	-0.0475
5.69	-9.6568	0.1363	-1.4051	-0.0043	-0.0028	0.0093	25.5052	1.5067	11.8092	0.6529	0.0620	0.7534	-0.0476
5.7	-9.6696	0.1274	-1.3975	-0.0022	-0.0052	0.0107	25.4228	1.2937	11.6456	0.6529	0.0620	0.7535	-0.0476
5.71	-9.6578	0.1115	-1.3898	-0.0060	-0.0068	0.0117	25.4024	1.3650	11.6495	0.6528	0.0620	0.7534	-0.0476
5.72	-9.6663	0.1027	-1.3824	-0.0027	-0.0073	0.0112	25.4773	1.2803	11.5008	0.6529	0.0621	0.7534	-0.0476
5.73	-9.6594	0.1112	-1.3994	-0.0078	-0.0097	0.0095	25.3657	1.2700	11.2515	0.6529	0.0621	0.7534	-0.0476
5.74	-9.6564	0.1152	-1.3784	-0.0125	-0.0112	0.0110	25.6124	1.3227	11.4505	0.6529	0.0621	0.7534	-0.0476
5.75	-9.6551	0.1234	-1.3648	-0.0092	-0.0043	0.0054	25.4555	1.2049	11.6062	0.6529	0.0621	0.7535	-0.0476
5.76	-9.6621	0.1303	-1.3577	-0.0154	-0.0075	0.0080	25.4343	1.2184	11.6344	0.6529	0.0620	0.7534	-0.0475
5.77	-9.6602	0.1386	-1.3677	-0.0135	-0.0016	0.0091	25.3031	1.2479	11.4720	0.6529	0.0620	0.7535	-0.0475
5.78	-9.6550	0.1197	-1.3602	-0.0102	-0.0087	0.0103	25.2234	1.4866	11.4482	0.6528	0.0620	0.7534	-0.0475
5.79	-9.6623	0.0989	-1.3686	-0.0146	-0.0092	0.0096	25.3835	1.4516	11.4893	0.6529	0.0620	0.7534	-0.0475
5.8	-9.6608	0.0964	-1.3584	-0.0189	-0.0085	0.0076	25.2816	1.3323	11.5765	0.6529	0.0620	0.7534	-0.0474
5.81	-9.6498	0.0916	-1.3612	-0.0170	-0.0077	0.0013	25.1787	1.4825	11.5341	0.6529	0.0619	0.7534	-0.0474
5.82	-9.6563	0.0829	-1.3627	-0.0175	-0.0048	0.0066	25.2432	1.4371	11.5583	0.6529	0.0619	0.7534	-0.0474
5.83	-9.6671	0.0841	-1.3618	-0.0053	-0.0047	0.0050	25.2886	1.1498	11.5568	0.6529	0.0619	0.7534	-0.0474
5.84	-9.6530	0.0832	-1.3628	-0.0176	-0.0068	0.0055	25.1676	1.4771	11.7519	0.6529	0.0619	0.7535	-0.0474
5.85	-9.6493	0.0834	-1.3596	-0.0184	-0.0019	0.0052	25.1948	1.3749	11.6194	0.6528	0.0618	0.7534	-0.0473
5.86	-9.6611	0.0866	-1.3624	-0.0092	-0.0032	0.0059	25.1181	1.4738	11.5598	0.6529	0.0618	0.7535	-0.0473
5.87	-9.6449	0.0839	-1.3402	-0.0108	-0.0031	0.0052	25.1741	1.4557	11.4809	0.6529	0.0618	0.7535	-0.0473
5.88	-9.6551	0.0739	-1.3391	-0.0152	-0.0110	0.0105	25.2830	1.4724	11.5237	0.6529	0.0618	0.7535	-0.0473
5.89	-9.6673	0.0599	-1.3539	-0.0204	-0.0092	0.0092	25.2551	1.3809	11.5683	0.6529	0.0617	0.7534	-0.0472
5.9	-9.6583	0.0375	-1.3569	-0.0082	-0.0016	0.0106	25.3356	1.2485	11.3055	0.6529	0.0617	0.7535	-0.0472
5.91	-9.6474	0.0419	-1.3547	-0.0122	-0.0060	0.0101	25.2564	1.2102	11.4918	0.6529	0.0617	0.7535	-0.0472
5.92	-9.6486	0.0600	-1.3573	-0.0079	-0.0056	0.0107	25.4545	1.2149	11.7451	0.6528	0.0618	0.7534	-0.0472
5.93	-9.6677	0.0593	-1.3558	-0.0176	-0.0100	0.0052	25.2838	1.2290	11.8295	0.6529	0.0617	0.7535	-0.0472
5.94	-9.6517	0.0716	-1.3621	-0.0103	-0.0082	0.0043	25.1155	1.1825	11.5214	0.6529	0.0617	0.7534	-0.0472
5.95	-9.6655	0.0759	-1.3843	-0.0079	-0.0045	0.0096	25.3092	1.3016	11.6490	0.6529	0.0617	0.7535	-0.0472
5.96	-9.6438	0.0850	-1.3577	-0.0124	-0.0081	0.0083	25.4330	1.2896	11.5543	0.6529	0.0617	0.7534	-0.0472
5.97	-9.6592	0.0724	-1.3683	-0.0160	-0.0071	0.0078	25.2981	1.1178	11.5629	0.6529	0.0617	0.7535	-0.0471
5.98	-9.6636	0.0735	-1.3706	-0.0086	-0.0057	0.0040	25.0521	1.2661	11.5392	0.6529	0.0617	0.7535	-0.0471
5.99	-9.6593	0.0796	-1.3766	-0.0125	-0.0026	0.0026	25.2460	1.4450	11.6167	0.6529	0.0616	0.7534	-0.0471
6	-9.6579	0.0770	-1.3743	-0.0112	-0.0012	0.0062	25.4211	1.5675	11.7584	0.6529	0.0616	0.7535	-0.0471
6.01	-9.6699	0.0711	-1.3911	-0.0115	-0.0068	0.0020	25.1933	1.5483	11.5428	0.6529	0.0616	0.7535	-0.0471
6.02	-9.6500	0.0701	-1.3785	-0.0123	-0.0113	0.0040	25.2992	1.4853	11.6036	0.6529	0.0616	0.7535	-0.0471
6.03	-9.6308	0.0384	-1.3308	-0.0134	-0.0084	0.0095	25.1382	1.5183	11.7348	0.6529	0.0615	0.7534	-0.0471
6.04	-9.7179	0.0587	-1.4045	-0.0047	-0.0030	0.0065	25.1985	1.4746	11.6101	0.6529	0.0616	0.7535	-0.0471
6.05	-9.6565	0.0978	-1.3669	-0.0015	-0.0046	0.0035	25.1337	1.5757	11.6426	0.6529	0.0616	0.7535	-0.0472
6.06	-9.6404	0.1151	-1.3545	0.0027	-0.0061	0.0068	25.2717	1.4680	11.6290	0.6529	0.0616	0.7535	-0.0472
6.07	-9.6632	0.1206	-1.3822	-0.0030	-0.0113	0.0095	25.2088	1.4512	11.6424	0.6529	0.0616	0.7535	-0.0472
6.08	-9.6597	0.1069	-1.3668	-0.0035	-0.0057	0.0041	25.5884	1.3694	11.6404	0.6529	0.0616	0.7535	-0.0472
6.09	-9.6580	0.1026	-1.3611	-0.0089	-0.0091	0.0045	25.3885	1.3749	11.6477	0.6529	0.0616	0.7535	-0.0473
6.1	-9.6589	0.1038	-1.3706	-0.0097	-0.0099	0.0039	25.3777	1.0873	11.6528	0.6529	0.0616	0.7534	-0.0473
6.11	-9.6533	0.0998	-1.3768	-0.0122	-0.0069	0.0037	25.6179	1.2950	11.4403	0.6529	0.0616	0.7535	-0.0473
6.12	-9.6506	0.1060	-1.3771	-0.0120	-0.0110	0.0105	25.3025	1.2419	11.4868	0.6529	0.0616	0.7534	-0.0472
6.13	-9.6495	0.1154	-1.3612	-0.0186	-0.0050	0.0054	25.3610	1.2731	11.4486	0.6530	0.0615	0.7534	-0.0472
6.14	-9.6629	0.1092	-1.3830	-0.0215	-0.0096	0.0094	25.3238	1.3103	11.5757	0.6529	0.0615	0.7534	-0.0472
6.15	-9.6530	0.1133	-1.3635	-0.0075	-0.0077	0.0085	25.2260	1.3055	11.5302	0.6530	0.0615	0.7534	-0.0472
6.16	-9.6503	0.0966	-1.3659	-0.0049	-0.0121	0.0031	25.3239	1.4329	11.4111	0.6530	0.0615	0.7534	-0.0472
6.17	-9.6694	0.0958	-1.3837	-0.0164	-0.0067	0.0036	25.2921	1.2747	11.6423	0.6529	0.0614	0.7533	-0.0472
6.18	-9.6547	0.0973	-1.3743	-0.0150	-0.0018	0.0006	25.0136	1.3107	11.7448	0.6530	0.0614	0.7535	-0.0472
6.19	-9.6528	0.0912	-1.3741	-0.0105	-0.0010	0.0020	25.3413	1.5568	11.7080	0.6529	0.0614	0.7534	-0.0472
6.2	-9.6667	0.0959	-1.3736	-0.0030	-0.0039	0.0063	25.6594	1.7511	11.7465	0.6530	0.0614	0.7535	-0.0472
6.21	-9.6584	0.1121	-1.3749	-0.0104	-0.0010	0.0036	25.6685	1.5410	11.6347	0.6529	0.0613	0.7534	-0.0472
6.22	-9.6569	0.1074	-1.3746	-0.0068	-0.0028	0.0068	25.5848	1.3552	11.7262	0.6529	0.0613	0.7535	-0.0472
6.23	-9.6644	0.0973	-1.3760	-0.0095	-0.0061	0.0067	25.3090	1.4016	11.5000	0.6529	0.0613	0.7535	-0.0472
6.24	-9.6567	0.0844	-1.3805	-0.0080	-0.0075	0.0099	25.3373	1.4283	11.5383	0.6529	0.0613	0.7534	-0.0472
6.25	-9.6502	0.0727	-1.3691	-0.0071	-0.0046	0.0044	25.2174	1.3130	11.5862	0.6530	0.0613	0.7535	-0.0472
6.26	-9.6641	0.0685	-1.3761	-0.0057	-0.0078	0.0075	25.3861	1.2183	11.5561	0.6529	0.0613	0.7535	-0.0472
6.27	-9.6640	0.0803	-1.3773	-0.0032	-0.0118	0.0171	25.5929	1.3274	11.5878	0.6530	0.0614	0.7535	-0.0472
6.28	-9.6575	0.0807	-1.3811	-0.0002	-0.0116	0.0140	25.4473	1.3512	11.5616	0.6529	0.0614	0.7534	-0.0472
6.29	-9.6590	0.0982	-1.3819	-0.0057	-0.0096	0.0096	25.4269	1.2131	11.3647	0.6530	0.0615	0.7534	-0.0472
6.3	-9.6517	0.0970	-1.3778	-0.0099	-0.0058	0.0112	25.4658	1.1633	11.5914	0.6530	0.0615	0.7534	-0.0472
6.31	-9.6572	0.0917	-1.3807	0.0013	-0.0048	0.0100	25.3002	1.4399	11.4880	0.6530	0.0615	0.7534	-0.0472
6.32	-9.6581	0.0855	-1.3711	-0.0070	-0.0045	0.0103	25.4027	1.3842	11.4660	0.6530	0.0615	0.7534	-0.0472
6.33	-9.6609	0.0790	-1.3614	-0.0092	-0.0060	0.0104	25.3021	1.6053	11.4891	0.6530	0.0615	0.7534	-0.0472
6.34	-9.6657	0.0753	-1.3735	-0.0092	-0.0067	0.0095	25.3100	1.2296	11.4519	0.6530	0.0615	0.7534	-0.0472
6.35	-9.6683	0.0675	-1.3556	-0.0038	-0.0087	0.0115	25.3994	1.1460	11.5971	0.6529	0.0616	0.7533	-0.0472
6.36	-9.6563	0.0601	-1.3694	-0.0085	-0.0135	0.0126	25.4802	1.2594	11.5384	0.6530	0.0616	0.7534	-0.0472
6.37	-9.6594	0.0667	-1.3728	-0.0062	-0.0046	0.0055	25.2212	1.3182	11.4846	0.6530	0.0616	0.7534	-0.0472
6.38	-9.6514	0.0606	-1.3823	-0.0106	-0.0064	0.0094	25.2545	1.4713	11.3905	0.6530	0.0616	0.7534	-0.0472
6.39	-9.6566	0.0633	-1.3855	-0.0066	-0.0091	0.0069	25.2256	1.2939	11.4761	0.6530	0.0616	0.7533	-0.0472
6.4	-9.6538	0.0649	-1.3706	-0.0014	-0.0023	0.0017	25.2461	1.4641	11.8433	0.6530	0.0616	0.7534	-0.0473
6.41	-9.6607	0.0766	-1.3734	-0.0097	-0.0048	0.0074	25.3836	1.1837	11.5974	0.6530	0.0616	0.7534	-0.0473
6.42	-9.6632	0.0826	-1.3677	-0.0027	-0.0004	0.0052	25.4144	1.4648	11.5418	0.6529	0.0616	0.7533	-0.0473
6.43	-9.6540	0.0866	-1.3650	0.0009	-0.0059	0.0089	25.2780	1.2540	11.6941	0.6530	0.0616	0.7534	-0.0473
6.44	-9.6572	0.0887	-1.3587	-0.0039	-0.0130	0.0082	25.2423	1.2070	11.4576	0.6530	0.0616	0.7534	-0.0473
6.45	-9.6642	0.0882	-1.3668	-0.0027	-0.0121	0.0135	25.4258	1.4164	11.3177	0.6531	0.0617	0.7534	-0.0473
6.46	-9.6558	0.0810	-1.3699	-0.0051	-0.0083	0.0091	25.3869	1.1246	11.2765	0.6530	0.0617	0.7533	-0.0473
6.47	-9.6606	0.0834	-1.3721	-0.0053	-0.0042	0.0093	25.3208	1.1977	11.4977	0.6530	0.0617	0.7533	-0.0473
6.48	-9.6546	0.0862	-1.3831	-0.0081	-0.0095	0.0083	25.2925	1.2974	11.5295	0.6530	0.0617	0.7533	-0.0473
6.49	-9.6595	0.0912	-1.3708	-0.0027	-0.0118	0.0070	25.4236	1.1224	11.1663	0.6530	0.0617	0.7533	-0.0474
6.5	-9.6522	0.0933	-1.3629	-0.0061	-0.0136	0.0114	25.3720	1.5024	11.4430	0.6531	0.0617	0.7533	-0.0474
6.51	-9.6602	0.1047	-1.3673	-0.0023	-0.0074	0.0082	25.2153	1.6835	11.4827	0.6531	0.0618	0.7533	-0.0474
6.52	-9.6527	0.1049	-1.3749	-0.0131	-0.0142	0.0075	25.4129	1.2638	11.6789	0.6532	0.0617	0.7533	-0.0474
6.53	-9.6606	0.1100	-1.3728	-0.0040	-0.0063	0.0106	25.3921	1.1601	11.5616	0.6531	0.0618	0.7532	-0.0474
6.54	-9.6589	0.1067	-1.3629	-0.0141	-0.0096	0.0122	25.3898	1.1811	11.5869	0.6531	0.0618	0.7532	-0.0473
6.55	-9.6544	0.1120	-1.3669	-0.0130	-0.0110	0.0059	25.4298	1.1549	11.7079	0.6532	0.0617	0.7532	-0.0473
6.56	-9.6560	0.0996	-1.3767	-0.0075	-0.0025	0.0058	25.5185	1.5205	11.5563	0.6531	0.0617	0.7532	-0.0473
6.57	-9.6513	0.0967	-1.3768	-0.0029	-0.0046	0.0115	25.2727	1.3888	11.5747	0.6532	0.0618	0.7532	-0.0473
6.58	-9.6586	0.1021	-1.3800	0.0003	-0.0021	0.0034	25.2387	1.3382	11.5444	0.6531	0.0618	0.7532	-0.0474
6.59	-9.6555	0.1077	-1.3883	-0.0079	-0.0049	0.0036	25.4118	1.2625	11.6416	0.6531	0.0618	0.7533	-0.0474
6.6	-9.6564	0.1142	-1.3895	-0.0057	-0.0026	0.0083	25.3109	1.3292	11.6021	0.6531	0.0618	0.7532	-0.0474
6.61	-9.6530	0.1185	-1.3900	-0.0083	-0.0036	0.0032	25.3249	1.3228	11.4110	0.6531	0.0618	0.7533	-0.0474
6.62	-9.6630	0.1188	-1.3909	-0.0045	-0.0052	0.0070	25.1525	1.0786	11.4464	0.6531	0.0618	0.7533	-0.0474
6.63	-9.6536	0.1136	-1.3813	-0.0019	-0.0041	0.0060	24.9985	1.3274	11.7577	0.6531	0.0618	0.7533	-0.0475
6.64	-9.6496	0.1098	-1.3794	-0.0044	-0.0116	0.0071	25.3734	1.3424	11.6488	0.6531	0.0618	0.7532	-0.0475
6.65	-9.6675	0.1010	-1.3995	-0.0046	-0.0083	0.0070	25.5933	1.2086	11.6527	0.6531	0.0618	0.7532	-0.0475
6.66	-9.6647	0.0951	-1.4102	-0.0101	-0.0043	0.0070	25.3679	1.3403	11.4893	0.6531	0.0618	0.7533	-0.0475
6.67	-9.6504	0.0932	-1.4013	-0.0113	-0.0045	0.0109	25.4885	1.2569	11.4704	0.6531	0.0618	0.7532	-0.0475
6.68	-9.6529	0.0856	-1.3968	-0.0098	-0.0054	0.0081	25.4658	1.2578	11.6004	0.6531	0.0618	0.7533	-0.0475
6.69	-9.6626	0.0851	-1.4072	-0.0061	-0.0089	0.0089	25.6439	1.3842	11.7030	0.6531	0.0618	0.7532	-0.0475
6.7	-9.6740	0.0831	-1.3925	-0.0047	-0.0081	0.0074	25.7564	1.5041	12.0621	0.6532	0.0618	0.7533	-0.0475
6.71	-9.6513	0.0736	-1.3920	-0.0134	-0.0043	0.0025	25.5565	1.5085	11.7112	0.6531	0.0618	0.7532	-0.0475
6.72	-9.6592	0.0669	-1.3981	-0.0114	-0.0053	0.0057	25.4513	1.4892	11.5732	0.6531	0.0618	0.7532	-0.0475
6.73	-9.6679	0.0747	-1.3913	-0.0048	-0.0091	0.0104	25.3383	1.2752	11.6281	0.6531	0.0618	0.7532	-0.0475
6.74	-9.6520	0.0746	-1.3860	-0.0074	-0.0044	0.0077	25.2049	1.3630	11.4501	0.6531	0.0618	0.7532	-0.0475
6.75	-9.6626	0.0825	-1.3819	-0.0031	-0.0037	0.0035	25.2064	1.3441	11.3756	0.6532	0.0618	0.7533	-0.0475
6.76	-9.6635	0.0851	-1.3944	-0.0056	-0.0029	0.0026	25.2180	1.2952	11.5256	0.6531	0.0618	0.7532	-0.0476
6.77	-9.6570	0.0868	-1.3772	-0.0091	-0.0094	0.0049	25.1685	1.3831	11.5681	0.6531	0.0618	0.7533	-0.0476
6.78	-9.6486	0.0819	-1.3626	-0.0109	-0.0061	0.0047	25.3870	1.4254	11.5458	0.6531	0.0618	0.7532	-0.0476
6.79	-9.6598	0.0907	-1.3750	-0.0057	-0.0051	0.0028	25.3325	1.5797	11.4497	0.6531	0.0617	0.7533	-0.0476
6.8	-9.6657	0.0870	-1.3769	-0.0106	-0.0037	0.0052	25.1363	1.4582	11.6398	0.6531	0.0617	0.7533	-0.0476
6.81	-9.6682	0.0842	-1.3716	-0.0126	-0.0042	0.0112	25.3044	1.4428	11.5844	0.6531	0.0617	0.7532	-0.0476
6.82	-9.6664	0.0815	-1.3691	-0.0099	-0.0110	0.0078	25.2628	1.4499	11.4248	0.6531	0.0617	0.7533	-0.0476
6.83	-9.6667	0.0810	-1.3670	-0.0044	-0.0078	0.0110	25.4538	1.3220	11.5239	0.6531	0.0617	0.7532	-0.0476
6.84	-9.6520	0.0799	-1.3650	-0.0056	-0.0046	0.0033	25.5393	1.2558	11.5697	0.6531	0.0617	0.7533	-0.0476
6.85	-9.6521	0.0823	-1.3630	-0.0055	-0.0047	0.0034	25.2194	1.3866	11.5660	0.6530	0.0617	0.7532	-0.0476
6.86	-9.6596	0.0736	-1.3713	-0.0022	-0.0047	0.0104	25.4550	1.2393	11.4256	0.6531	0.0618	0.7533	-0.0476
6.87	-9.6530	0.0774	-1.3598	-0.0066	-0.0061	0.0071	25.5015	1.2186	11.7306	0.6531	0.0618	0.7532	-0.0476
6.88	-9.6566	0.0831	-1.3563	-0.0020	-0.0033	0.0027	25.4093	1.3770	11.6053	0.6531	0.0618	0.7533	-0.0477
6.89	-9.6598	0.0830	-1.3627	-0.0087	-0.0126	0.0098	25.5471	1.3713	11.4499	0.6531	0.0618	0.7532	-0.0477
6.9	-9.6553	0.0850	-1.3544	-0.0057	-0.0094	0.0044	25.4115	1.3552	11.4598	0.6531	0.0618	0.7532	-0.0477
6.91	-9.6532	0.0850	-1.3578	-0.0059	-0.0039	0.0011	25.4825	1.2297	11.3464	0.6531	0.0618	0.7533	-0.0477
6.92	-9.6521	0.0901	-1.3602	-0.0081	-0.0079	0.0053	25.3571	1.4518	11.4645	0.6531	0.0618	0.7532	-0.0477
6.93	-9.6550	0.1007	-1.3629	-0.0116	-0.0027	0.0046	25.3658	1.6409	11.5822	0.6531	0.0617	0.7533	-0.0477
6.94	-9.6647	0.0954	-1.3593	-0.0091	-0.0056	0.0009	25.2306	1.3177	11.4941	0.6531	0.0617	0.7532	-0.0477
6.95	-9.6632	0.1060	-1.3624	-0.0117	-0.0023	0.0021	25.4001	1.5028	11.5038	0.6531	0.0617	0.7533	-0.0478
6.96	-9.6675	0.1062	-1.3593	-0.0091	-0.0038	-0.0005	25.1666	1.5635	11.6720	0.6530	0.0616	0.7532	-0.0478
6.97	-9.6621	0.0983	-1.3690	-0.0062	-0.0034	-0.0020	25.2491	1.2580	11.4939	0.6531	0.0616	0.7533	-0.0478
6.98	-9.6504	0.0996	-1.3628	-0.0124	-0.0085	0.0074	25.2576	1.3666	11.4645	0.6531	0.0616	0.7533	-0.0478
6.99	-9.6564	0.0848	-1.3670	-0.0136	0.0029	0.0051	25.1765	1.2705	11.4700	0.6530	0.0616	0.7533	-0.0478
7	-9.6625	0.0814	-1.3705	-0.0125	-0.0063	0.0021	25.2301	1.4001	11.3767	0.6531	0.0615	0.7534	-0.0478
7.01	-9.6630	0.0815	-1.3693	-0.0021	-0.0068	0.0029	25.1963	1.2853	11.3566	0.6530	0.0615	0.7533	-0.0478
7.02	-9.6618	0.0920	-1.3795	-0.0101	-0.0031	0.0036	25.4512	1.1686	11.2478	0.6530	0.0615	0.7534	-0.0478
7.03	-9.6590	0.0966	-1.3782	-0.0100	-0.0098	0.0001	25.4417	1.2232	11.5016	0.6530	0.0615	0.7533	-0.0478
7.04	-9.6677	0.1085	-1.3888	-0.0093	-0.0002	0.0076	25.4658	1.0915	11.4617	0.6530	0.0615	0.7534	-0.0478
7.05	-9.6625	0.1159	-1.3804	-0.0112	-0.0042	0.0001	25.3897	1.1363	11.3310	0.6530	0.0614	0.7533	-0.0478
7.06	-9.6615	0.1166	-1.3829	-0.0058	-0.0040	0.0013	25.1530	1.0978	11.2552	0.6530	0.0614	0.7533	-0.0479
7.07	-9.6611	0.0987	-1.3796	-0.0121	-0.0053	0.0104	25.4304	1.2177	11.5327	0.6530	0.0614	0.7534	-0.0479
7.08	-9.6598	0.0955	-1.3853	-0.0085	0.0007	0.0074	25.4084	1.1994	11.4025	0.6530	0.0614	0.7534	-0.0478
7.09	-9.6668	0.0876	-1.3980	-0.0021	-0.0034	0.0015	25.3960	1.1957	11.4460	0.6530	0.0614	0.7534	-0.0479
7.1	-9.6526	0.0836	-1.3953	-0.0129	-0.0103	0.0113	25.4984	1.2722	11.4801	0.6529	0.0614	0.7533	-0.0479
7.11	-9.6503	0.0939	-1.3782	-0.0088	-0.0097	0.0100	25.1902	1.4039	11.4798	0.6530	0.0614	0.7534	-0.0479
7.12	-9.6621	0.0976	-1.3829	-0.0034	-0.0031	0.0052	25.2916	1.4556	11.4080	0.6530	0.0614	0.7534	-0.0479
7.13	-9.6646	0.1013	-1.3871	-0.0118	-0.0060	0.0034	25.4221	1.4506	11.4127	0.6530	0.0614	0.7534	-0.0479
7.14	-9.6640	0.0992	-1.3879	-0.0149	-0.0053	0.0012	25.1594	1.4400	11.6836	0.6529	0.0614	0.7534	-0.0479
7.15	-9.6608	0.0924	-1.3845	-0.0146	-0.0031	0.0018	25.2379	1.3449	11.3654	0.6529	0.0613	0.7534	-0.0479
7.16	-9.6593	0.0870	-1.3769	-0.0090	-0.0061	0.0026	25.3349	1.5567	11.4102	0.6530	0.0613	0.7534	-0.0479
7.17	-9.6656	0.0794	-1.3789	-0.0117	-0.0038	0.0058	25.1221	1.4410	11.2554	0.6529	0.0613	0.7534	-0.0479
7.18	-9.6524	0.0842	-1.3794	-0.0089	-0.0023	0.0021	25.1261	1.3538	11.5246	0.6530	0.0613	0.7535	-0.0479
7.19	-9.6530	0.0795	-1.3935	-0.0091	-0.0070	0.0010	25.5259	1.4961	11.8425	0.6529	0.0613	0.7534	-0.0479
7.2	-9.6662	0.0831	-1.3843	-0.0046	-0.0143	0.0082	25.6866	1.3781	11.7661	0.6530	0.0613	0.7535	-0.0479
7.21	-9.6565	0.0750	-1.3845	0.0021	-0.0069	0.0012	25.6455	1.3431	11.6223	0.6529	0.0613	0.7534	-0.0480
7.22	-9.6579	0.0671	-1.3786	-0.0031	-0.0113	0.0106	25.6261	1.2711	11.5748	0.6530	0.0613	0.7534	-0.0480
7.23	-9.6633	0.0734	-1.3771	0.0022	-0.0113	0.0121	25.3225	1.4794	11.4602	0.6530	0.0613	0.7534	-0.0480
7.24	-9.6623	0.0740	-1.3696	-0.0045	-0.0112	0.0031	25.5818	1.2130	11.2548	0.6530	0.0613	0.7533	-0.0480
7.25	-9.6610	0.0767	-1.3680	-0.0004	-0.0076	0.0071	25.4216	1.4945	11.5384	0.6530	0.0614	0.7534	-0.0481
7.26	-9.6673	0.0810	-1.3607	-0.0008	-0.0100	0.0082	25.5227	1.5492	11.3795	0.6530	0.0614	0.7533	-0.0481
7.27	-9.6693	0.0907	-1.3771	-0.0005	-0.0054	0.0098	25.3081	1.1173	11.2572	0.6530	0.0614	0.7534	-0.0481
7.28	-9.6633	0.0833	-1.3725	-0.0009	-0.0082	0.0124	25.3994	1.2725	11.4045	0.6530	0.0615	0.7533	-0.0481
7.29	-9.6561	0.0788	-1.3582	-0.0054	-0.0088	0.0108	25.4303	1.3511	11.4918	0.6530	0.0615	0.7533	-0.0481
7.3	-9.6532	0.0842	-1.3731	-0.0100	-0.0046	0.0043	25.2873	1.3140	11.4505	0.6530	0.0615	0.7533	-0.0481
7.31	-9.6415	0.0945	-1.3702	-0.0183	0.0010	0.0050	25.4503	1.4049	11.5454	0.6530	0.0614	0.7533	-0.0481
7.32	-9.6502	0.0931	-1.3640	-0.0093	-0.0082	0.0062	25.1495	1.5104	11.6556	0.6530	0.0614	0.7534	-0.0481
7.33	-9.6588	0.1047	-1.3610	-0.0024	-0.0058	0.0056	25.2865	1.3667	11.5080	0.6530	0.0614	0.7533	-0.0481
7.34	-9.6563	0.0975	-1.3590	-0.0013	-0.0052	0.0092	25.4764	1.2866	11.6432	0.6530	0.0615	0.7534	-0.0481
7.35	-9.6537	0.1032	-1.3599	-0.0005	-0.0029	0.0046	25.3752	1.1498	11.6631	0.6529	0.0615	0.7533	-0.0482
7.36	-9.6546	0.1000	-1.3640	0.0026	-0.0013	0.0025	25.3749	1.2864	11.5355	0.6530	0.0615	0.7534	-0.0482
7.37	-9.6621	0.0981	-1.3592	0.0007	-0.0071	0.0063	25.5452	1.3593	11.4349	0.6529	0.0615	0.7534	-0.0483
7.38	-9.6631	0.0939	-1.3639	-0.0061	-0.0096	0.0103	25.4811	1.3187	11.5699	0.6530	0.0615	0.7534	-0.0483
7.39	-9.6540	0.1016	-1.3690	-0.0034	-0.0110	0.0045	25.4333	1.3613	11.5532	0.6529	0.0615	0.7533	-0.0483
7.4	-9.6584	0.1070	-1.3800	-0.0062	-0.0068	0.0069	25.7272	1.2942	11.3466	0.6530	0.0616	0.7533	-0.0483
7.41	-9.6499	0.0986	-1.3755	-0.0101	-0.0055	0.0056	25.4384	1.0964	11.4248	0.6530	0.0615	0.7534	-0.0483
7.42	-9.6577	0.0951	-1.3718	-0.0063	-0.0058	0.0090	25.3432	1.3588	11.3427	0.6529	0.0616	0.7533	-0.0483
7.43	-9.6504	0.1009	-1.3768	-0.0057	-0.0046	0.0049	25.5949	1.3230	11.6411	0.6530	0.0616	0.7534	-0.0483
7.44	-9.6598	0.1043	-1.3788	-0.0090	-0.0053	0.0036	25.3538	1.2216	11.6042	0.6529	0.0615	0.7533	-0.0483
7.45	-9.6643	0.0970	-1.3817	-0.0079	-0.0023	0.0013	25.4674	1.3141	11.2979	0.6530	0.0615	0.7534	-0.0483
7.46	-9.6505	0.0898	-1.3772	-0.0051	-0.0093	0.0102	25.4618	1.4410	11.2848	0.6529	0.0615	0.7533	-0.0483
7.47	-9.6567	0.0823	-1.3790	-0.0069	-0.0111	0.0066	25.3723	1.3922	11.4372	0.6530	0.0615	0.7533	-0.0484
7.48	-9.6582	0.0848	-1.3868	-0.0031	-0.0113	0.0070	25.3700	1.3060	11.4775	0.6530	0.0616	0.7533	-0.0484
7.49	-9.6509	0.0768	-1.3923	-0.0027	-0.0005	0.0076	25.4570	1.3694	11.4893	0.6529	0.0616	0.7533	-0.0484
7.5	-9.6546	0.0844	-1.3877	-0.0007	-0.0051	0.0056	25.4677	1.2051	11.3531	0.6530	0.0616	0.7534	-0.0484
7.51	-9.6614	0.0829	-1.3832	-0.0070	-0.0033	0.0075	25.3431	1.4631	11.4557	0.6529	0.0616	0.7533	-0.0484
7.52	-9.6516	0.0860	-1.3823	-0.0108	-0.0037	0.0062	25.2168	1.4485	11.6148	0.6530	0.0616	0.7534	-0.0484
7.53	-9.6522	0.0840	-1.3823	-0.0171	-0.0087	0.0090	25.2871	1.4015	11.4352	0.6529	0.0616	0.7533	-0.0484
7.54	-9.6608	0.0836	-1.3959	-0.0172	-0.0047	0.0049	25.5248	1.4185	11.3943	0.6529	0.0615	0.7534	-0.0483
7.55	-9.6643	0.0828	-1.3992	-0.0090	-0.0048	0.0018	25.3877	1.2893	11.5228	0.6529	0.0615	0.7534	-0.0484
7.56	-9.6561	0.0808	-1.3884	-0.0013	-0.0077	0.0118	25.3952	1.4179	11.3639	0.6529	0.0615	0.7534	-0.0484
7.57	-9.6591	0.0808	-1.3826	-0.0041	-0.0100	0.0138	25.2814	1.5095	11.4888	0.6530	0.0616	0.7534	-0.0484
7.58	-9.6593	0.0812	-1.3925	-0.0004	-0.0035	0.0082	25.2062	1.3548	11.5692	0.6529	0.0616	0.7533	-0.0484
7.59	-9.6568	0.0811	-1.3878	-0.0037	-0.0096	0.0093	25.4317	1.1363	11.3559	0.6530	0.0616	0.7534	-0.0484
7.6	-9.6563	0.0841	-1.3848	-0.0034	-0.0128	0.0107	25.5638	1.2868	11.5684	0.6529	0.0617	0.7533	-0.0484
7.61	-9.6697	0.0893	-1.3900	-0.0048	-0.0064	0.0118	25.4156	1.1104	11.5759	0.6530	0.0617	0.7533	-0.0484
7.62	-9.6621	0.0944	-1.3890	-0.0041	-0.0126	0.0081	25.5388	1.1434	11.3980	0.6530	0.0617	0.7533	-0.0484
7.63	-9.6505	0.0999	-1.3730	0.0001	-0.0106	0.0074	25.4827	1.3864	11.3987	0.6530	0.0617	0.7533	-0.0484
7.64	-9.6540	0.1000	-1.3693	-0.0032	-0.0031	0.0093	25.4631	1.2129	11.3682	0.6530	0.0618	0.7533	-0.0484
7.65	-9.6539	0.0956	-1.3739	-0.0009	-0.0089	0.0048	25.3363	1.4159	11.3097	0.6530	0.0618	0.7533	-0.0485
7.66	-9.6586	0.0863	-1.3732	-0.0019	-0.0098	0.0088	25.3235	1.3634	11.4125	0.6530	0.0618	0.7533	-0.0485
7.67	-9.6633	0.0882	-1.3728	-0.0072	-0.0086	0.0115	25.4912	1.3179	11.3683	0.6530	0.0618	0.7532	-0.0485
7.68	-9.6560	0.0852	-1.3618	-0.0081	-0.0042	0.0053	25.4373	1.4441	11.4956	0.6530	0.0618	0.7533	-0.0485
7.69	-9.6548	0.0819	-1.3669	-0.0086	-0.0055	0.0053	25.6409	1.4054	11.6110	0.6530	0.0618	0.7533	-0.0485
7.7	-9.6549	0.0907	-1.3628	-0.0025	-0.0057	0.0082	25.7408	1.4739	11.4503	0.6530	0.0619	0.7533	-0.0485
7.71	-9.6591	0.0972	-1.3692	-0.0136	-0.0032	0.0012	25.5736	1.6333	11.6560	0.6529	0.0618	0.7532	-0.0485
7.72	-9.6585	0.0953	-1.3621	-0.0065	-0.0034	0.0019	25.2985	1.5030	11.5957	0.6530	0.0618	0.7533	-0.0485
7.73	-9.6554	0.1010	-1.3647	-0.0028	-0.0014	0.0051	25.1143	1.3338	11.1707	0.6530	0.0618	0.7533	-0.0485
7.74	-9.6570	0.0921	-1.3669	-0.0051	-0.0053	0.0073	25.2517	1.3563	11.5803	0.6529	0.0618	0.7533	-0.0485
7.75	-9.6689	0.0874	-1.3572	-0.0061	-0.0027	0.0037	25.2000	1.3691	11.6289	0.6530	0.0618	0.7534	-0.0486
7.76	-9.6549	0.0893	-1.3596	-0.0039	-0.0076	0.0059	25.1599	1.1868	11.2682	0.6529	0.0618	0.7533	-0.0486
7.77	-9.6590	0.0896	-1.3684	-0.0011	-0.0110	0.0095	25.5384	1.2685	11.3524	0.6530	0.0619	0.7534	-0.0486
7.78	-9.6696	0.0902	-1.3640	-0.0039	-0.0117	0.0085	25.5715	1.2814	11.5099	0.6529	0.0619	0.7532	-0.0486
7.79	-9.6543	0.0930	-1.3730	-0.0039	-0.0080	0.0110	25.4143	1.0952	11.4278	0.6530	0.0619	0.7533	-0.0486
7.8	-9.6466	0.0984	-1.3605	-0.0105	-0.0067	0.0030	25.5672	1.2391	11.4268	0.6530	0.0619	0.7533	-0.0486
7.81	-9.6601	0.0891	-1.3654	-0.0010	-0.0042	0.0077	25.4145	1.1675	11.5022	0.6529	0.0619	0.7533	-0.0486
7.82	-9.6541	0.0909	-1.3741	-0.0049	-0.0063	0.0120	25.2936	1.2987	11.3698	0.6530	0.0620	0.7533	-0.0486
7.83	-9.6505	0.0870	-1.3703	-0.0083	-0.0047	0.0072	25.3062	1.1427	11.5026	0.6529	0.0620	0.7533	-0.0486
7.84	-9.6564	0.0796	-1.3738	-0.0084	-0.0064	0.0087	25.5493	1.2701	11.4690	0.6530	0.0620	0.7533	-0.0486
7.85	-9.6656	0.0807	-1.3771	-0.0086	-0.0101	0.0084	25.4125	1.3480	11.4592	0.6529	0.0620	0.7532	-0.0486
7.86	-9.6645	0.0838	-1.3691	-0.0090	-0.0064	0.0045	25.1663	1.3855	11.5971	0.6530	0.0620	0.7533	-0.0486
7.87	-9.6621	0.0895	-1.3823	-0.0132	-0.0005	0.0060	25.2732	1.2858	11.6294	0.6529	0.0619	0.7533	-0.0486
7.88	-9.6633	0.0789	-1.3874	-0.0087	-0.0055	0.0058	25.1254	1.3275	11.4636	0.6530	0.0619	0.7533	-0.0486
7.89	-9.6645	0.0753	-1.3828	-0.0048	-0.0025	0.0060	25.2535	1.4543	11.3667	0.6529	0.0619	0.7533	-0.0486
7.9	-9.6502	0.0803	-1.3787	-0.0020	-0.0013	0.0033	25.3041	1.2170	11.5201	0.6529	0.0620	0.7533	-0.0486
7.91	-9.6523	0.0771	-1.3757	0.0006	-0.0022	0.0038	24.9845	1.3271	11.3746	0.6529	0.0620	0.7534	-0.0487
7.92	-9.6616	0.0687	-1.3794	-0.0092	-0.0002	0.0045	25.0345	1.4424	11.4447	0.6528	0.0620	0.7533	-0.0487
7.93	-9.6596	0.0701	-1.3744	-0.0016	-0.0042	0.0089	25.3829	1.4303	11.5781	0.6529	0.0620	0.7534	-0.0487
7.94	-9.6547	0.0769	-1.3713	-0.0033	-0.0034	0.0065	25.0837	1.3250	11.5387	0.6528	0.0620	0.7534	-0.0487
7.95	-9.6581	0.0796	-1.3787	0.0008	-0.0104	0.0106	25.3598	1.3917	11.3077	0.6529	0.0621	0.7534	-0.0487
7.96	-9.6700	0.0870	-1.3805	-0.0000	-0.0052	0.0129	25.4812	1.1817	11.2922	0.6528	0.0621	0.7533	-0.0487
7.97	-9.6488	0.0901	-1.3750	-0.0059	-0.0042	0.0064	25.3938	1.3029	11.4138	0.6528	0.0621	0.7534	-0.0487
7.98	-9.6632	0.0997	-1.3706	-0.0002	-0.0086	0.0123	25.4934	1.0837	11.3715	0.6529	0.0622	0.7534	-0.0487
7.99	-9.6695	0.1001	-1.3680	-0.0083	-0.0072	0.0065	25.4790	1.2705	11.4538	0.6528	0.0622	0.7533	-0.0487
8	-9.6555	0.0960	-1.3715	-0.0079	-0.0008	0.0001	25.3489	1.2014	11.6044	0.6529	0.0621	0.7534	-0.0488
8.01	-9.6636	0.0968	-1.3824	-0.0035	-0.0050	0.0043	25.2117	1.2968	11.4908	0.6528	0.0621	0.7534	-0.0488
8.02	-9.6519	0.1007	-1.3828	-0.0047	-0.0030	0.0054	25.3950	1.2532	11.4922	0.6528	0.0622	0.7534	-0.0488
8.03	-9.6514	0.0985	-1.3834	-0.0034	-0.0069	0.0042	25.4625	1.3806	11.3536	0.6528	0.0622	0.7533	-0.0488
8.04	-9.6485	0.0930	-1.3938	-0.0036	-0.0066	0.0041	25.5767	1.2384	11.4468	0.6528	0.0622	0.7534	-0.0488
8.05	-9.6535	0.0988	-1.3891	-0.0185	-0.0074	0.0071	25.3635	1.3584	11.5806	0.6528	0.0621	0.7534	-0.0488
8.06	-9.6645	0.0928	-1.3878	-0.0116	-0.0002	0.0025	25.1617	1.5576	11.6065	0.6528	0.0621	0.7534	-0.0488
8.07	-9.6530	0.0932	-1.3902	-0.0094	-0.0072	0.0065	25.0265	1.3961	11.6518	0.6528	0.0621	0.7534	-0.0488
8.08	-9.6539	0.0940	-1.3927	-0.0091	-0.0065	0.0013	25.2359	1.4845	11.5057	0.6528	0.0621	0.7534	-0.0488
8.09	-9.6608	0.0986	-1.3832	-0.0092	-0.0085	0.0026	25.1423	1.5293	11.5902	0.6528	0.0621	0.7534	-0.0488
8.1	-9.6507	0.0959	-1.3825	-0.0039	-0.0032	0.0066	25.2814	1.5269	11.4301	0.6527	0.0621	0.7533	-0.0488
8.11	-9.6610	0.0874	-1.3732	-0.0113	-0.0010	0.0058	25.5270	1.4144	11.6111	0.6528	0.0621	0.7535	-0.0488
8.12	-9.6626	0.0987	-1.3915	-0.0050	-0.0094	0.0024	25.2481	1.4932	11.6329	0.6528	0.0621	0.7534	-0.0488
8.13	-9.6760	0.0867	-1.3922	-0.0072	-0.0057	0.0029	25.2116	1.4984	11.6714	0.6528	0.0621	0.7534	-0.0488
8.14	-9.6593	0.0908	-1.3842	-0.0062	-0.0116	0.0101	25.3007	1.2224	11.4332	0.6528	0.0621	0.7534	-0.0488
8.15	-9.6489	0.1032	-1.3856	-0.0064	-0.0100	0.0085	25.4703	1.2147	11.2810	0.6528	0.0621	0.7534	-0.0488
8.16	-9.6563	0.1033	-1.3827	-0.0045	-0.0088	0.0030	25.5672	1.1532	11.4840	0.6528	0.0621	0.7534	-0.0489
8.17	-9.6608	0.0963	-1.3816	-0.0156	-0.0044	0.0070	25.2643	1.3765	11.4739	0.6528	0.0621	0.7533	-0.0488
8.18	-9.6639	0.0971	-1.3765	-0.0148	-0.0099	-0.0000	25.3429	1.3272	11.4465	0.6529	0.0620	0.7534	-0.0488
8.19	-9.6538	0.0975	-1.3801	0.0003	-0.0056	0.0021	25.6706	1.3070	11.5443	0.6528	0.0620	0.7534	-0.0489
8.2	-9.6626	0.0937	-1.3790	-0.0039	-0.0084	0.0045	25.7419	1.3910	11.7701	0.6529	0.0620	0.7534	-0.0489
8.21	-9.6513	0.0930	-1.3780	-0.0161	-0.0071	0.0105	25.5225	1.3345	11.6398	0.6528	0.0620	0.7533	-0.0488
8.22	-9.6493	0.0918	-1.3726	-0.0129	-0.0051	0.0072	25.4213	1.4687	11.5333	0.6528	0.0620	0.7534	-0.0488
8.23	-9.6659	0.0922	-1.3776	-0.0088	-0.0082	0.0125	25.2755	1.2923	11.4006	0.6528	0.0620	0.7534	-0.0488
8.24	-9.6543	0.0830	-1.3910	-0.0157	-0.0114	0.0084	25.2083	1.4255	11.3623	0.6528	0.0620	0.7533	-0.0488
8.25	-9.6644	0.0950	-1.3834	-0.0128	-0.0098	0.0053	25.3425	1.3338	11.5233	0.6529	0.0620	0.7534	-0.0487
8.26	-9.6589	0.0991	-1.3895	-0.0046	-0.0070	-0.0010	25.2751	1.1828	11.5540	0.6529	0.0620	0.7533	-0.0488
8.27	-9.6485	0.1022	-1.3803	-0.0129	-0.0132	0.0025	25.3799	1.2144	11.6571	0.6529	0.0620	0.7534	-0.0488
8.28	-9.6572	0.0884	-1.3891	-0.0148	-0.0063	0.0073	25.3881	1.3545	11.5652	0.6529	0.0619	0.7533	-0.0487
8.29	-9.6533	0.0872	-1.3825	-0.0168	-0.0042	0.0115	25.2930	1.3343	11.4716	0.6529	0.0619	0.7533	-0.0487
8.3	-9.6559	0.0826	-1.3789	-0.0072	-0.0045	0.0053	25.3094	1.3158	11.6110	0.6529	0.0619	0.7533	-0.0487
8.31	-9.6510	0.0809	-1.3698	-0.0058	-0.0039	0.0042	25.3119	1.1433	11.5241	0.6529	0.0619	0.7533	-0.0487
8.32	-9.6702	0.0753	-1.3801	-0.0057	-0.0120	0.0091	25.2881	1.2764	11.7975	0.6529	0.0619	0.7533	-0.0487
8.33	-9.6648	0.0742	-1.3837	0.0038	-0.0110	0.0045	25.3437	1.4755	11.5432	0.6529	0.0620	0.7533	-0.0488
8.34	-9.6523	0.0785	-1.3832	-0.0068	-0.0112	0.0106	25.5906	1.3422	11.4580	0.6530	0.0620	0.7533	-0.0488
8.35	-9.6588	0.0809	-1.3839	-0.0061	-0.0142	0.0050	25.4515	1.3573	11.4968	0.6529	0.0620	0.7532	-0.0488
8.36	-9.6658	0.0873	-1.3840	0.0027	-0.0111	0.0074	25.3899	1.1089	11.4716	0.6530	0.0620	0.7533	-0.0488
8.37	-9.6619	0.0838	-1.3766	-0.0064	-0.0046	0.0061	25.5239	1.2782	11.5083	0.6530	0.0620	0.7532	-0.0488
8.38	-9.6502	0.0853	-1.3819	-0.0071	-0.0075	0.0078	25.5898	1.3740	11.4062	0.6530	0.0620	0.7533	-0.0488
8.39	-9.6562	0.0948	-1.3903	-0.0040	-0.0019	0.0102	25.3612	1.3198	11.3792	0.6530	0.0621	0.7532	-0.0488
8.4	-9.6530	0.0889	-1.3823	-0.0009	-0.0023	0.0022	25.0818	1.2300	11.5287	0.6529	0.0621	0.7533	-0.0488
8.41	-9.6541	0.0828	-1.3836	-0.0008	-0.0047	0.0088	25.4051	1.2798	11.3920	0.6530	0.0621	0.7533	-0.0489
8.42	-9.6547	0.0922	-1.3797	0.0011	-0.0086	0.0085	25.3141	1.1591	11.4680	0.6529	0.0622	0.7532	-0.0489
8.43	-9.6554	0.0943	-1.3797	-0.0030	-0.0033	0.0036	25.2143	1.2786	11.5948	0.6530	0.0622	0.7533	-0.0489
8.44	-9.6554	0.1039	-1.3705	-0.0008	0.0009	0.0001	25.0997	1.2116	11.2438	0.6529	0.0622	0.7533	-0.0489
8.45	-9.6530	0.1117	-1.3738	-0.0130	-0.0022	-0.0001	25.3015	1.3792	11.4663	0.6529	0.0621	0.7534	-0.0490
8.46	-9.6512	0.1106	-1.3711	-0.0005	-0.0051	0.0048	25.2968	1.5301	11.4733	0.6528	0.0621	0.7533	-0.0490
8.47	-9.6530	0.0999	-1.3738	-0.0096	-0.0024	-0.0020	25.4590	1.3736	11.3817	0.6529	0.0621	0.7533	-0.0490
8.48	-9.6520	0.0886	-1.3798	-0.0038	-0.0049	0.0021	25.5649	1.3182	11.5592	0.6529	0.0621	0.7533	-0.0490
8.49	-9.6458	0.0794	-1.3777	-0.0033	-0.0038	0.0019	25.2864	1.4159	11.6390	0.6528	0.0621	0.7533	-0.0490
8.5	-9.6574	0.0761	-1.3681	-0.0044	-0.0030	0.0007	25.2136	1.4185	11.6614	0.6529	0.0621	0.7534	-0.0491
8.51	-9.6601	0.0717	-1.3720	0.0008	-0.0111	0.0107	25.5064	1.4271	11.6389	0.6528	0.0621	0.7533	-0.0491
8.52	-9.6510	0.0721	-1.3745	0.0031	-0.0058	0.0037	25.5290	1.3806	11.4392	0.6529	0.0622	0.7534	-0.0491
8.53	-9.6504	0.0815	-1.3733	-0.0067	-0.0047	0.0090	25.3609	1.2938	11.2729	0.6528	0.0622	0.7533	-0.0491
8.54	-9.6615	0.0811	-1.3866	-0.0067	-0.0055	0.0088	25.3225	1.4043	11.3374	0.6528	0.0622	0.7534	-0.0491
8.55	-9.6542	0.0802	-1.3653	-0.0052	-0.0040	0.0090	25.2722	1.1862	11.5711	0.6528	0.0622	0.7534	-0.0491
8.56	-9.6506	0.0930	-1.3794	-0.0043	-0.0055	0.0081	25.1486	1.2879	11.2730	0.6528	0.0622	0.7533	-0.0491
8.57	-9.6629	0.0981	-1.3842	-0.0043	-0.0112	0.0014	25.2231	1.5296	11.4197	0.6528	0.0622	0.7534	-0.0492
8.58	-9.6643	0.0972	-1.3797	-0.0006	-0.0099	0.0090	25.3888	1.2733	11.3399	0.6528	0.0623	0.7533	-0.0492
8.59	-9.6550	0.1067	-1.3797	-0.0023	-0.0090	0.0065	25.3294	1.3732	11.5439	0.6529	0.0623	0.7533	-0.0492
8.6	-9.6648	0.0956	-1.3800	-0.0001	-0.0108	0.0097	25.3054	1.3082	11.5014	0.6528	0.0623	0.7532	-0.0492
8.61	-9.6608	0.0916	-1.3858	-0.0004	-0.0082	0.0088	25.2983	1.3659	11.2581	0.6529	0.0624	0.7533	-0.0492
8.62	-9.6511	0.0985	-1.3766	-0.0069	-0.0045	0.0019	25.2208	1.2827	11.4757	0.6529	0.0624	0.7533	-0.0493
8.63	-9.6637	0.1029	-1.3781	-0.0023	-0.0033	0.0059	25.1758	1.2287	11.5250	0.6529	0.0624	0.7533	-0.0493
8.64	-9.6518	0.1027	-1.3780	-0.0001	-0.0058	0.0064	25.1108	1.3420	11.6883	0.6528	0.0624	0.7533	-0.0493
8.65	-9.6570	0.0978	-1.3731	-0.0044	-0.0050	0.0058	25.5198	1.4573	11.7284	0.6528	0.0624	0.7533	-0.0493
8.66	-9.6598	0.0905	-1.3801	-0.0038	-0.0065	0.0010	25.3398	1.3539	11.3896	0.6528	0.0624	0.7533	-0.0494
8.67	-9.6591	0.0844	-1.3775	0.0005	-0.0031	0.0015	25.3101	1.3309	11.4531	0.6528	0.0624	0.7533	-0.0494
8.68	-9.6541	0.0843	-1.3758	-0.0062	-0.0029	0.0008	25.1911	1.3300	11.6090	0.6528	0.0624	0.7534	-0.0494
8.69	-9.6500	0.0947	-1.3732	-0.0025	-0.0047	0.0087	25.4426	1.2238	11.6622	0.6528	0.0624	0.7533	-0.0494
8.7	-9.6668	0.0887	-1.3800	-0.0053	-0.0086	0.0109	25.5996	1.5349	11.6641	0.6529	0.0625	0.7534	-0.0494
8.71	-9.6546	0.0930	-1.3758	-0.0125	-0.0053	0.0042	25.4705	1.3950	11.6173	0.6528	0.0625	0.7533	-0.0494
8.72	-9.6501	0.0902	-1.3755	-0.0005	-0.0088	0.0069	25.5127	1.2998	11.5616	0.6528	0.0625	0.7533	-0.0494
8.73	-9.6670	0.0873	-1.3905	-0.0075	-0.0096	0.0024	25.4950	1.3113	11.4503	0.6528	0.0625	0.7533	-0.0495
8.74	-9.6521	0.0851	-1.3770	-0.0071	-0.0106	0.0025	25.3636	1.2741	11.2686	0.6528	0.0625	0.7533	-0.0495
8.75	-9.6598	0.0817	-1.3686	-0.0035	-0.0045	0.0062	25.3816	1.3876	11.3900	0.6529	0.0625	0.7534	-0.0495
8.76	-9.6596	0.0782	-1.3586	-0.0081	-0.0028	0.0020	25.3348	1.1132	11.4015	0.6528	0.0625	0.7533	-0.0495
8.77	-9.6587	0.0800	-1.3810	-0.0063	-0.0082	0.0053	25.2505	1.3712	11.5157	0.6529	0.0625	0.7534	-0.0495
8.78	-9.6599	0.0814	-1.3799	-0.0046	-0.0107	0.0089	25.3883	1.2954	11.3372	0.6528	0.0625	0.7532	-0.0495
8.79	-9.6585	0.0807	-1.3736	-0.0048	-0.0030	-0.0018	25.2452	1.2779	11.4269	0.6528	0.0625	0.7533	-0.0495
8.8	-9.6532	0.0812	-1.3730	-0.0062	-0.0020	0.0006	25.1879	1.3030	11.4481	0.6528	0.0625	0.7533	-0.0496
8.81	-9.6554	0.0802	-1.3840	-0.0055	-0.0035	0.0007	25.2145	1.5372	11.5395	0.6528	0.0624	0.7533	-0.0496
8.82	-9.6582	0.0841	-1.3755	-0.0096	-0.0063	0.0006	25.1794	1.4478	11.6212	0.6528	0.0624	0.7534	-0.0496
8.83	-9.6717	0.0836	-1.3737	-0.0150	-0.0037	0.0037	25.2383	1.4453	11.5626	0.6528	0.0624	0.7533	-0.0496
8.84	-9.6722	0.0831	-1.3833	-0.0088	-0.0054	0.0009	25.2940	1.4608	11.6542	0.6528	0.0624	0.7534	-0.0496
8.85	-9.6554	0.0953	-1.3727	0.0008	0.0008	0.0037	25.2648	1.4388	11.6466	0.6527	0.0624	0.7533	-0.0496
8.86	-9.6590	0.0811	-1.3727	-0.0107	-0.0076	0.0013	25.3875	1.4751	11.4891	0.6528	0.0624	0.7534	-0.0496
8.87	-9.6639	0.0856	-1.3965	-0.0139	-0.0145	0.0046	25.3409	1.7073	11.3542	0.6528	0.0623	0.7533	-0.0496
8.88	-9.6510	0.0871	-1.3834	-0.0022	-0.0107	0.0050	25.1709	1.4047	11.5706	0.6528	0.0624	0.7534	-0.0496
8.89	-9.6530	0.0830	-1.3779	-0.0078	-0.0059	0.0028	25.3867	1.1744	11.5543	0.6528	0.0623	0.7533	-0.0497
8.9	-9.6622	0.0870	-1.3832	-0.0121	-0.0036	0.0050	25.5686	1.1125	11.4266	0.6528	0.0623	0.7533	-0.0496
8.91	-9.6681	0.0870	-1.3910	-0.0060	-0.0044	0.0065	25.5005	1.1718	11.3770	0.6528	0.0623	0.7534	-0.0497
8.92	-9.6600	0.0797	-1.3826	-0.0140	-0.0089	0.0066	25.5604	1.2510	11.3733	0.6527	0.0623	0.7533	-0.0496
8.93	-9.6561	0.0813	-1.3744	-0.0112	-0.0125	0.0052	25.3902	1.1519	11.5093	0.6528	0.0623	0.7534	-0.0496
8.94	-9.6642	0.0815	-1.3860	-0.0076	-0.0036	0.0093	25.2681	1.1789	11.4001	0.6528	0.0623	0.7533	-0.0496
8.95	-9.6551	0.0817	-1.3766	-0.0041	-0.0058	0.0073	25.4944	1.4004	11.4321	0.6528	0.0623	0.7534	-0.0496
8.96	-9.6446	0.0852	-1.3758	-0.0040	-0.0052	0.0081	25.2512	1.2863	11.4914	0.6528	0.0624	0.7533	-0.0496
8.97	-9.6522	0.0849	-1.3850	-0.0055	-0.0094	0.0095	25.3147	1.3692	11.3194	0.6528	0.0624	0.7533	-0.0496
8.98	-9.6569	0.0921	-1.3723	-0.0031	-0.0097	0.0066	25.2252	1.4252	11.4648	0.6528	0.0624	0.7533	-0.0496
8.99	-9.6525	0.1005	-1.3708	-0.0103	-0.0011	0.0053	25.1869	1.4414	11.7390	0.6528	0.0624	0.7533	-0.0496
9	-9.6457	0.1014	-1.3700	-0.0089	-0.0028	0.0070	25.1987	1.5705	11.6121	0.6528	0.0624	0.7534	-0.0496
9.01	-9.6568	0.0983	-1.3785	-0.0051	-0.0020	0.0002	25.2035	1.5863	11.7801	0.6528	0.0624	0.7533	-0.0496
9.02	-9.6577	0.1046	-1.3814	-0.0093	-0.0061	0.0060	25.1730	1.5276	11.5732	0.6528	0.0624	0.7534	-0.0496
9.03	-9.6618	0.1060	-1.3776	-0.0069	-0.0030	0.0025	25.3200	1.4466	11.5245	0.6527	0.0624	0.7533	-0.0496
9.04	-9.6614	0.1079	-1.3804	-0.0075	-0.0002	-0.0015	25.0117	1.4699	11.5638	0.6527	0.0623	0.7534	-0.0497
9.05	-9.6676	0.1104	-1.3717	-0.0022	0.0002	0.0027	25.3379	1.5443	11.5122	0.6527	0.0624	0.7534	-0.0497
9.06	-9.6549	0.1004	-1.3613	-0.0076	-0.0058	0.0065	25.4513	1.5653	11.6487	0.6527	0.0624	0.7534	-0.0497
9.07	-9.6566	0.1122	-1.3726	-0.0036	-0.0089	0.0096	25.0344	1.3163	11.5306	0.6527	0.0624	0.7534	-0.0497
9.08	-9.6581	0.1137	-1.3838	-0.0053	-0.0048	0.0084	25.4462	1.0796	11.3158	0.6527	0.0624	0.7534	-0.0497
9.09	-9.6517	0.0995	-1.3701	-0.0063	-0.0039	0.0007	25.3931	1.3316	11.2747	0.6527	0.0624	0.7534	-0.0497
9.1	-9.6502	0.0930	-1.3717	-0.0079	-0.0057	0.0033	25.3544	1.1857	11.3768	0.6526	0.0624	0.7534	-0.0497
9.11	-9.6694	0.0871	-1.3837	-0.0009	-0.0028	0.0049	25.3712	1.3193	11.4913	0.6527	0.0624	0.7535	-0.0498
9.12	-9.6650	0.0824	-1.3818	-0.0016	-0.0060	0.0034	25.2176	1.4037	11.4401	0.6527	0.0624	0.7534	-0.0498
9.13	-9.6582	0.0758	-1.3727	-0.0057	-0.0092	0.0014	25.4458	1.2886	11.4970	0.6527	0.0624	0.7534	-0.0498
9.14	-9.6614	0.0706	-1.3829	-0.0027	-0.0091	0.0023	25.4429	1.2968	11.3464	0.6527	0.0624	0.7534	-0.0498
9.15	-9.6724	0.0827	-1.3873	-0.0035	-0.0121	0.0064	25.3506	1.3887	11.4246	0.6527	0.0624	0.7534	-0.0499
9.16	-9.6669	0.0874	-1.3723	-0.0030	-0.0115	0.0058	25.3611	1.3701	11.4452	0.6527	0.0624	0.7534	-0.0499
9.17	-9.6495	0.0931	-1.3859	-0.0078	-0.0073	0.0014	25.3980	1.3604	11.2460	0.6527	0.0624	0.7533	-0.0499
9.18	-9.6578	0.0875	-1.3958	-0.0001	-0.0061	0.0025	25.1266	1.4818	11.5177	0.6528	0.0624	0.7534	-0.0499
9.19	-9.6556	0.0869	-1.3803	-0.0056	-0.0052	-0.0019	25.3448	1.6875	11.5409	0.6527	0.0624	0.7534	-0.0500
9.2	-9.6628	0.0727	-1.3729	-0.0038	-0.0053	0.0030	25.9172	1.7413	11.5606	0.6528	0.0624	0.7534	-0.0500
9.21	-9.6660	0.0718	-1.3748	-0.0035	-0.0016	0.0028	25.6262	1.5468	11.5380	0.6527	0.0624	0.7533	-0.0500
9.22	-9.6714	0.0674	-1.3821	-0.0037	-0.0044	0.0040	25.3682	1.4978	11.7466	0.6527	0.0624	0.7534	-0.0500
9.23	-9.6531	0.0628	-1.3723	-0.0037	-0.0068	0.0061	25.2429	1.4059	11.6036	0.6527	0.0624	0.7534	-0.0500
9.24	-9.6561	0.0682	-1.3821	-0.0017	-0.0043	0.0068	25.2354	1.5163	11.5300	0.6526	0.0625	0.7534	-0.0501
9.25	-9.6713	0.0807	-1.3996	-0.0033	-0.0031	0.0056	25.2167	1.4050	11.6567	0.6527	0.0625	0.7535	-0.0501
9.26	-9.6509	0.0868	-1.3847	-0.0088	-0.0101	0.0083	25.5203	1.2055	11.5354	0.6527	0.0625	0.7534	-0.0501
9.27	-9.6535	0.0915	-1.3770	-0.0003	-0.0106	0.0050	25.5166	1.3563	11.5801	0.6527	0.0625	0.7534	-0.0501
9.28	-9.6635	0.0886	-1.3812	-0.0023	-0.0118	0.0132	25.3750	1.3408	11.5479	0.6527	0.0625	0.7533	-0.0501
9.29	-9.6595	0.0944	-1.3791	-0.0037	-0.0120	0.0114	25.2809	1.3557	11.6784	0.6527	0.0626	0.7534	-0.0501
9.3	-9.6519	0.0932	-1.3828	-0.0051	-0.0115	0.0060	25.3662	1.4774	11.4304	0.6527	0.0626	0.7533	-0.0501
9.31	-9.6536	0.0847	-1.3810	-0.0059	-0.0104	0.0059	25.4054	1.3241	11.3370	0.6528	0.0626	0.7533	-0.0501
9.32	-9.6569	0.0808	-1.3870	-0.0022	-0.0045	0.0098	25.3896	1.4636	11.6215	0.6528	0.0626	0.7533	-0.0501
9.33	-9.6453	0.0800	-1.3792	-0.0001	-0.0049	0.0097	25.3803	1.3762	11.3475	0.6527	0.0627	0.7533	-0.0501
9.34	-9.6591	0.0807	-1.3794	0.0024	-0.0064	0.0055	25.4611	1.3870	11.3291	0.6528	0.0627	0.7533	-0.0502
9.35	-9.6632	0.0808	-1.3853	0.0032	-0.0073	0.0105	25.4250	1.4683	11.4887	0.6527	0.0627	0.7532	-0.0502
9.36	-9.6571	0.0803	-1.3801	0.0014	-0.0051	0.0074	25.1551	1.2885	11.4718	0.6528	0.0628	0.7533	-0.0502
9.37	-9.6504	0.0818	-1.3801	-0.0013	0.0033	0.0034	25.4859	1.2694	11.4577	0.6527	0.0628	0.7533	-0.0502
9.38	-9.6552	0.0871	-1.3744	0.0051	-0.0078	0.0060	25.3390	1.2539	11.5651	0.6527	0.0628	0.7533	-0.0503
9.39	-9.6581	0.0898	-1.3768	-0.0000	-0.0036	0.0104	25.2243	1.2731	11.4659	0.6527	0.0629	0.7533	-0.0503
9.4	-9.6496	0.1008	-1.3800	-0.0032	0.0014	0.0068	25.3203	1.4729	11.3613	0.6527	0.0629	0.7533	-0.0503
9.41	-9.6534	0.1015	-1.3740	0.0016	-0.0039	0.0100	25.3673	1.3823	11.5788	0.6527	0.0630	0.7534	-0.0503
9.42	-9.6648	0.1135	-1.3814	-0.0030	-0.0029	0.0047	25.3353	1.2374	11.5395	0.6526	0.0630	0.7533	-0.0503
9.43	-9.6494	0.1086	-1.3831	-0.0025	-0.0057	0.0068	25.2028	1.3923	11.5919	0.6527	0.0630	0.7534	-0.0504
9.44	-9.6514	0.0943	-1.3794	-0.0025	-0.0029	0.0046	25.2351	1.2521	11.6304	0.6526	0.0630	0.7534	-0.0504
9.45	-9.6602	0.0900	-1.3875	-0.0000	-0.0064	0.0112	25.2638	1.1502	11.5167	0.6527	0.0631	0.7534	-0.0504
9.46	-9.6486	0.0928	-1.3818	-0.0045	-0.0025	0.0063	25.4958	1.1960	11.6950	0.6526	0.0631	0.7533	-0.0504
9.47	-9.6521	0.0825	-1.3761	-0.0075	-0.0058	0.0097	25.5604	1.1888	11.4975	0.6526	0.0631	0.7534	-0.0504
9.48	-9.6539	0.0869	-1.3827	-0.0051	-0.0072	0.0070	25.3864	1.3375	11.4953	0.6526	0.0631	0.7534	-0.0504
9.49	-9.6573	0.0832	-1.3797	-0.0050	-0.0056	0.0067	25.4095	1.3681	11.3774	0.6526	0.0631	0.7533	-0.0504
9.5	-9.6510	0.0919	-1.3760	-0.0065	-0.0050	0.0067	25.3684	1.2266	11.4069	0.6527	0.0631	0.7534	-0.0504
9.51	-9.6509	0.0920	-1.3751	-0.0026	-0.0122	0.0061	25.3278	1.4544	11.6174	0.6526	0.0631	0.7533	-0.0504
9.52	-9.6610	0.0860	-1.3788	-0.0097	-0.0058	0.0092	25.4004	1.2966	11.4840	0.6527	0.0632	0.7534	-0.0504
9.53	-9.6528	0.0914	-1.3730	-0.0055	-0.0070	0.0106	25.0748	1.2515	11.4407	0.6526	0.0632	0.7533	-0.0504
9.54	-9.6530	0.0866	-1.3746	-0.0079	-0.0116	0.0071	25.6377	1.2512	11.7539	0.6527	0.0632	0.7533	-0.0504
9.55	-9.6513	0.0828	-1.3741	0.0011	-0.0050	0.0027	25.3636	1.3425	11.4718	0.6527	0.0632	0.7533	-0.0504
9.56	-9.6547	0.0825	-1.3810	-0.0006	-0.0047	0.0047	25.3662	1.5408	11.3356	0.6526	0.0632	0.7533	-0.0505
9.57	-9.6524	0.0801	-1.3844	-0.0037	-0.0049	0.0090	25.3982	1.4212	11.4928	0.6527	0.0632	0.7534	-0.0505
9.58	-9.6579	0.0846	-1.3987	-0.0075	-0.0071	0.0082	25.1735	1.4027	11.6111	0.6526	0.0633	0.7533	-0.0505
9.59	-9.6613	0.0953	-1.3839	-0.0053	-0.0031	0.0056	25.2582	1.3091	11.6179	0.6527	0.0633	0.7534	-0.0505
9.6	-9.6505	0.0858	-1.3803	-0.0049	-0.0048	0.0080	25.2065	1.4370	11.4426	0.6526	0.0633	0.7533	-0.0505
9.61	-9.6555	0.0801	-1.3817	-0.0038	-0.0080	0.0044	25.3492	1.3350	11.4811	0.6527	0.0633	0.7534	-0.0505
9.62	-9.6600	0.0830	-1.3733	0.0043	-0.0034	0.0099	25.4232	1.4844	11.3282	0.6526	0.0634	0.7533	-0.0505
9.63	-9.6535	0.0700	-1.3834	-0.0003	-0.0067	0.0080	25.3109	1.3267	11.7639	0.6526	0.0634	0.7534	-0.0505
9.64	-9.6537	0.0760	-1.3763	0.0034	-0.0123	0.0127	25.2965	1.4437	11.6152	0.6526	0.0634	0.7533	-0.0506
9.65	-9.6580	0.0785	-1.3843	-0.0028	-0.0083	0.0089	25.5527	1.4164	11.4524	0.6526	0.0635	0.7533	-0.0506
9.66	-9.6672	0.0842	-1.3774	-0.0057	-0.0052	0.0107	25.5223	1.2853	11.4420	0.6527	0.0635	0.7533	-0.0506
9.67	-9.6547	0.0683	-1.3804	-0.0074	-0.0099	0.0107	25.3677	1.1950	11.3464	0.6526	0.0635	0.7532	-0.0505
9.68	-9.6634	0.0807	-1.3644	0.0030	-0.0068	0.0078	25.5084	1.0665	11.6330	0.6527	0.0636	0.7533	-0.0506
9.69	-9.6590	0.0935	-1.3665	-0.0024	-0.0087	0.0087	25.6957	1.3043	11.6698	0.6527	0.0636	0.7533	-0.0506
9.7	-9.6652	0.0916	-1.3808	0.0033	-0.0048	0.0131	25.7180	1.3721	11.8659	0.6527	0.0637	0.7533	-0.0506
9.71	-9.6500	0.1062	-1.3582	-0.0027	-0.0049	0.0097	25.6586	1.3481	11.6413	0.6526	0.0637	0.7532	-0.0506
9.72	-9.6581	0.0969	-1.3612	-0.0091	-0.0047	0.0091	25.6297	1.5298	11.4574	0.6527	0.0637	0.7533	-0.0506
9.73	-9.6648	0.1014	-1.3533	-0.0011	-0.0098	0.0058	25.3118	1.3786	11.4615	0.6527	0.0637	0.7533	-0.0506
9.74	-9.6478	0.0962	-1.3567	-0.0063	-0.0068	0.0040	25.2924	1.3198	11.5695	0.6526	0.0637	0.7532	-0.0506
9.75	-9.6714	0.0991	-1.3730	-0.0005	-0.0033	0.0066	25.1568	1.4711	11.4716	0.6527	0.0638	0.7533	-0.0506
9.76	-9.6668	0.1075	-1.3803	-0.0066	-0.0020	-0.0023	25.2874	1.6446	11.4680	0.6526	0.0637	0.7533	-0.0507
9.77	-9.6492	0.1076	-1.3801	-0.0032	-0.0048	0.0069	25.3448	1.5364	11.4790	0.6527	0.0638	0.7533	-0.0507
9.78	-9.6551	0.0931	-1.3749	-0.0115	-0.0049	0.0045	25.1599	1.4274	11.5403	0.6526	0.0638	0.7532	-0.0507
9.79	-9.6638	0.0977	-1.3924	-0.0036	-0.0073	0.0034	25.3119	1.3292	11.6195	0.6526	0.0638	0.7533	-0.0507
9.8	-9.6544	0.0995	-1.3882	-0.0055	-0.0004	0.0058	25.2521	1.5349	11.6133	0.6526	0.0638	0.7533	-0.0507
9.81	-9.6622	0.0954	-1.3781	-0.0092	0.0012	0.0032	25.3005	1.4388	11.5364	0.6526	0.0638	0.7533	-0.0507
9.82	-9.6799	0.0982	-1.3877	-0.0073	-0.0117	0.0094	25.1579	1.3558	11.6767	0.6526	0.0638	0.7533	-0.0507
9.83	-9.6644	0.1011	-1.3800	-0.0053	-0.0106	0.0068	25.6115	1.1932	11.3940	0.6526	0.0638	0.7533	-0.0507
9.84	-9.6506	0.0972	-1.3692	-0.0075	-0.0054	0.0079	25.5004	1.2738	11.2155	0.6526	0.0638	0.7533	-0.0507
9.85	-9.6593	0.0994	-1.3841	-0.0056	-0.0044	0.0041	25.4013	1.1732	11.3070	0.6526	0.0638	0.7532	-0.0507
9.86	-9.6542	0.0963	-1.3802	-0.0062	-0.0053	0.0025	25.6735	1.3412	11.4264	0.6526	0.0638	0.7533	-0.0507
9.87	-9.6510	0.0928	-1.3786	-0.0028	-0.0073	0.0085	25.3680	1.2767	11.5379	0.6526	0.0638	0.7533	-0.0507
9.88	-9.6734	0.0838	-1.3824	-0.0061	-0.0036	0.0080	25.4185	1.1612	11.3540	0.6526	0.0638	0.7533	-0.0507
9.89	-9.6601	0.0890	-1.3759	-0.0041	-0.0041	0.0026	25.5267	1.1160	11.7267	0.6526	0.0638	0.7533	-0.0507
9.9	-9.6563	0.0997	-1.3788	-0.0019	-0.0051	0.0082	25.5235	1.1207	11.5889	0.6526	0.0639	0.7533	-0.0507
9.91	-9.6631	0.1002	-1.3775	-0.0050	-0.0041	0.0057	25.4811	1.4299	11.4645	0.6526	0.0639	0.7533	-0.0508
9.92	-9.6588	0.0940	-1.3777	-0.0076	-0.0048	0.0010	25.3560	1.5029	11.3987	0.6525	0.0639	0.7533	-0.0508
9.93	-9.6637	0.0895	-1.3780	-0.0071	-0.0091	0.0013	25.2576	1.5437	11.4914	0.6526	0.0639	0.7534	-0.0508
9.94	-9.6655	0.0789	-1.3671	-0.0064	-0.0033	-0.0007	25.3039	1.6005	11.5883	0.6526	0.0638	0.7533	-0.0508
9.95	-9.6567	0.0684	-1.3738	-0.0143	-0.0027	0.0023	25.1906	1.3779	11.5515	0.6526	0.0638	0.7534	-0.0508
9.96	-9.6631	0.0707	-1.3685	-0.0026	-0.0034	0.0038	25.2885	1.2319	11.5850	0.6525	0.0638	0.7533	-0.0508
9.97	-9.6567	0.0817	-1.3656	-0.0093	-0.0035	0.0018	25.2548	1.4317	11.4359	0.6525	0.0638	0.7534	-0.0508
9.98	-9.6468	0.0790	-1.3625	-0.0052	-0.0062	0.0054	25.3496	1.3671	11.5465	0.6525	0.0638	0.7534	-0.0508
9.99	-9.6530	0.0787	-1.3635	-0.0044	-0.0011	-0.0011	25.2850	1.4225	11.5814	0.6525	0.0638	0.7533	-0.0508
10	-9.6652	0.0855	-1.3683	-0.0023	-0.0027	0.0028	25.2811	1.4300	11.5524	0.6526	0.0638	0.7534	-0.0509
10.01	-9.6591	0.0789	-1.3635	-0.0001	-0.0106	0.0104	25.2540	1.3352	11.4510	0.6525	0.0638	0.7533	-0.0509
10.02	-9.6665	0.0903	-1.3621	-0.0013	-0.0066	0.0028	25.3871	1.3197	11.5405	0.6526	0.0639	0.7534	-0.0509
10.03	-9.6647	0.0906	-1.3766	-0.0074	-0.0041	0.0057	25.5438	1.1658	11.6921	0.6525	0.0639	0.7533	-0.0509
10.04	-9.6572	0.0804	-1.3781	-0.0043	-0.0072	0.0097	25.4008	1.2077	11.5233	0.6525	0.0639	0.7534	-0.0509
10.05	-9.6519	0.0850	-1.3815	-0.0059	-0.0044	0.0062	25.4736	1.3207	11.4876	0.6525	0.0639	0.7534	-0.0509
10.06	-9.6500	0.0788	-1.3890	-0.0087	-0.0050	0.0003	25.3572	1.1597	11.4242	0.6525	0.0639	0.7533	-0.0509
10.07	-9.6500	0.0810	-1.3911	-0.0059	-0.0040	0.0062	25.3675	1.3149	11.3669	0.6525	0.0639	0.7534	-0.0509
10.08	-9.6524	0.0802	-1.3873	-0.0044	-0.0058	0.0064	25.3491	1.3146	11.5744	0.6525	0.0639	0.7534	-0.0510
10.09	-9.6490	0.0826	-1.3844	-0.0068	-0.0047	0.0073	25.3743	1.1073	11.5096	0.6525	0.0639	0.7534	-0.0510
10.1	-9.6620	0.0828	-1.3880	-0.0010	-0.0093	0.0043	25.3285	1.3873	11.4858	0.6525	0.0639	0.7533	-0.0510
10.11	-9.6602	0.0807	-1.3755	-0.0024	-0.0064	0.0021	25.5092	1.3343	11.3549	0.6525	0.0639	0.7534	-0.0510
10.12	-9.6587	0.0956	-1.3789	-0.0100	-0.0050	0.0056	25.3136	1.5304	11.4840	0.6525	0.0639	0.7533	-0.0510
10.13	-9.6696	0.0983	-1.3872	-0.0036	-0.0028	0.0010	25.3323	1.1806	11.6233	0.6525	0.0639	0.7534	-0.0510
10.14	-9.6544	0.1080	-1.3765	0.0016	-0.0025	0.0062	25.3605	1.2829	11.4556	0.6525	0.0640	0.7534	-0.0511
10.15	-9.6438	0.1137	-1.3597	0.0010	-0.0079	0.0017	25.2815	1.4728	11.3686	0.6525	0.0640	0.7534	-0.0511
10.16	-9.6544	0.1151	-1.3677	-0.0024	-0.0061	0.0045	25.3924	1.4323	11.4423	0.6525	0.0640	0.7534	-0.0511
10.17	-9.6629	0.1084	-1.3686	-0.0109	-0.0031	0.0040	25.3461	1.3656	11.5690	0.6524	0.0640	0.7533	-0.0511
10.18	-9.6618	0.1035	-1.3668	-0.0068	-0.0026	0.0009	25.2585	1.3402	11.6803	0.6525	0.0640	0.7534	-0.0511
10.19	-9.6530	0.1010	-1.3601	-0.0059	-0.0060	0.0069	25.4407	1.5049	11.6229	0.6525	0.0640	0.7534	-0.0511
10.2	-9.6613	0.0919	-1.3539	-0.0061	-0.0080	0.0030	25.3557	1.5262	11.7460	0.6525	0.0640	0.7534	-0.0512
10.21	-9.6542	0.0860	-1.3515	-0.0031	-0.0072	0.0060	25.4373	1.4998	11.6406	0.6524	0.0640	0.7533	-0.0512
10.22	-9.6628	0.0742	-1.3502	-0.0044	-0.0095	0.0048	25.5292	1.3290	11.5503	0.6525	0.0640	0.7534	-0.0512
10.23	-9.6473	0.0715	-1.3544	-0.0033	-0.0090	0.0120	25.4087	1.2771	11.4962	0.6525	0.0640	0.7534	-0.0512
10.24	-9.6533	0.0661	-1.3548	-0.0065	-0.0140	0.0140	25.5958	1.2558	11.4527	0.6525	0.0641	0.7533	-0.0512
10.25	-9.6618	0.0728	-1.3559	0.0004	-0.0080	0.0042	25.4169	1.4761	11.4822	0.6526	0.0641	0.7534	-0.0512
10.26	-9.6632	0.0835	-1.3611	-0.0011	-0.0067	0.0079	25.4189	1.2702	11.4394	0.6525	0.0641	0.7533	-0.0512
10.27	-9.6648	0.0732	-1.3568	-0.0002	-0.0036	0.0071	25.4846	1.3303	11.5452	0.6526	0.0642	0.7533	-0.0512
10.28	-9.6589	0.0763	-1.3507	0.0005	-0.0100	0.0077	25.4594	1.3806	11.5535	0.6525	0.0642	0.7532	-0.0513
10.29	-9.6550	0.0820	-1.3530	-0.0026	-0.0123	0.0082	25.4586	1.2253	11.5664	0.6526	0.0642	0.7533	-0.0513
10.3	-9.6487	0.0798	-1.3525	0.0000	-0.0051	0.0068	25.3349	1.3416	11.5253	0.6526	0.0643	0.7533	-0.0513
10.31	-9.6512	0.0821	-1.3546	-0.0027	0.0016	0.0058	25.2134	1.3387	11.6488	0.6525	0.0643	0.7533	-0.0513
10.32	-9.6495	0.0758	-1.3549	-0.0011	0.0001	0.0059	25.3197	1.4629	11.5237	0.6525	0.0643	0.7533	-0.0513
10.33	-9.6542	0.0761	-1.3577	-0.0121	-0.0046	0.0011	25.2890	1.3839	11.4611	0.6525	0.0643	0.7533	-0.0513
10.34	-9.6650	0.0740	-1.3683	-0.0096	-0.0041	0.0068	25.3623	1.1889	11.6455	0.6525	0.0643	0.7533	-0.0513
10.35	-9.6596	0.0749	-1.3740	-0.0041	-0.0026	0.0063	25.3929	1.4822	11.6439	0.6524	0.0643	0.7533	-0.0513
10.36	-9.6504	0.0755	-1.3642	-0.0012	-0.0001	0.0046	25.3752	1.3886	11.6187	0.6525	0.0643	0.7534	-0.0513
10.37	-9.6558	0.0767	-1.3771	-0.0058	-0.0043	0.0106	25.2505	1.3816	11.5199	0.6525	0.0643	0.7533	-0.0513
10.38	-9.6552	0.0828	-1.3720	0.0053	-0.0107	0.0097	25.4637	1.4700	11.3007	0.6525	0.0644	0.7533	-0.0514
10.39	-9.6535	0.0874	-1.3730	-0.0012	-0.0064	0.0047	25.4751	1.3456	11.2793	0.6525	0.0644	0.7533	-0.0514
10.4	-9.6493	0.0959	-1.3847	-0.0005	-0.0011	0.0097	25.4767	1.2294	11.5490	0.6525	0.0644	0.7533	-0.0514
10.41	-9.6586	0.0969	-1.3692	-0.0024	-0.0032	0.0104	25.4179	1.1842	11.5664	0.6525	0.0645	0.7533	-0.0514
10.42	-9.6596	0.0974	-1.3818	-0.0159	-0.0070	0.0053	25.3602	1.1381	11.4910	0.6524	0.0645	0.7533	-0.0514
10.43	-9.6579	0.1039	-1.3814	-0.0071	-0.0032	0.0062	25.5102	0.8802	11.3514	0.6525	0.0645	0.7534	-0.0514
10.44	-9.6508	0.0973	-1.3795	-0.0029	-0.0079	0.0072	25.5648	1.3166	11.3012	0.6525	0.0645	0.7533	-0.0514
10.45	-9.6562	0.0919	-1.3815	-0.0055	-0.0072	0.0086	25.3050	1.3086	11.4857	0.6525	0.0645	0.7534	-0.0514
10.46	-9.6527	0.0913	-1.3810	-0.0056	-0.0047	0.0063	25.3155	1.2437	11.4389	0.6524	0.0645	0.7533	-0.0514
10.47	-9.6539	0.0951	-1.3711	-0.0055	-0.0039	0.0023	25.3837	1.4062	11.6261	0.6525	0.0645	0.7533	-0.0514
10.48	-9.6511	0.0860	-1.3829	-0.0077	-0.0096	0.0095	25.2590	1.4401	11.5816	0.6525	0.0645	0.7533	-0.0514
10.49	-9.6646	0.0909	-1.3779	0.0020	-0.0121	0.0087	25.3934	1.1315	11.5484	0.6525	0.0646	0.7532	-0.0514
10.5	-9.6634	0.1012	-1.3841	-0.0013	-0.0065	0.0043	25.3898	1.5288	11.5469	0.6526	0.0646	0.7533	-0.0515
10.51	-9.6527	0.1015	-1.3866	-0.0052	-0.0028	0.0033	25.2459	1.4370	11.2880	0.6525	0.0646	0.7533	-0.0515
10.52	-9.6607	0.0963	-1.3908	-0.0106	-0.0101	0.0066	25.2604	1.5641	11.5141	0.6525	0.0646	0.7533	-0.0515
10.53	-9.6553	0.0979	-1.3965	-0.0053	-0.0084	0.0048	25.4081	1.5388	11.6508	0.6525	0.0646	0.7532	-0.0515
10.54	-9.6537	0.0903	-1.3938	-0.0068	-0.0005	0.0037	25.3557	1.4162	11.6235	0.6525	0.0646	0.7533	-0.0515
10.55	-9.6514	0.0901	-1.3863	-0.0057	-0.0030	0.0050	25.4439	1.4102	11.5007	0.6525	0.0646	0.7533	-0.0515
10.56	-9.6534	0.0817	-1.3783	-0.0061	-0.0070	0.0099	25.4353	1.3249	11.6690	0.6525	0.0646	0.7532	-0.0515
10.57	-9.6463	0.0815	-1.3780	-0.0049	-0.0101	0.0126	25.1611	1.3698	11.5085	0.6525	0.0647	0.7533	-0.0515
10.58	-9.6563	0.0751	-1.3721	0.0026	-0.0037	0.0036	25.3051	1.3363	11.6101	0.6525	0.0647	0.7532	-0.0515
10.59	-9.6544	0.0735	-1.3777	0.0050	-0.0069	0.0069	25.4275	1.3705	11.3869	0.6525	0.0647	0.7533	-0.0515
10.6	-9.6532	0.0842	-1.3782	-0.0011	-0.0073	0.0105	25.2946	1.3394	11.5213	0.6525	0.0648	0.7532	-0.0515
10.61	-9.6498	0.0833	-1.3757	-0.0046	-0.0045	0.0098	25.3869	1.2765	11.7903	0.6526	0.0648	0.7533	-0.0516
10.62	-9.6549	0.0876	-1.3699	-0.0047	-0.0058	0.0055	25.2626	1.3808	11.5116	0.6525	0.0648	0.7532	-0.0516
10.63	-9.6513	0.0915	-1.3717	-0.0103	-0.0113	0.0043	25.3894	1.3298	11.3719	0.6526	0.0648	0.7532	-0.0516
10.64	-9.6537	0.1018	-1.3720	-0.0117	-0.0107	0.0060	25.3962	1.4581	11.4593	0.6526	0.0648	0.7532	-0.0515
10.65	-9.6521	0.0939	-1.3858	-0.0099	-0.0112	0.0061	25.3632	1.4171	11.5999	0.6526	0.0648	0.7532	-0.0515
10.66	-9.6574	0.0914	-1.3711	-0.0013	-0.0120	0.0149	25.4464	1.2962	11.4663	0.6526	0.0648	0.7532	-0.0515
10.67	-9.6570	0.1048	-1.3762	-0.0080	-0.0088	0.0007	25.4787	1.5559	11.5319	0.6526	0.0648	0.7531	-0.0515
10.68	-9.6544	0.1013	-1.3900	-0.0159	-0.0030	0.0029	25.3613	1.2890	11.6683	0.6527	0.0648	0.7532	-0.0515
10.69	-9.6616	0.1056	-1.3908	-0.0091	-0.0069	0.0029	25.5409	1.4565	11.6238	0.6526	0.0648	0.7531	-0.0515
10.7	-9.6650	0.1005	-1.3974	-0.0129	-0.0128	0.0083	25.7456	1.5502	11.6561	0.6527	0.0648	0.7532	-0.0515
10.71	-9.6508	0.0967	-1.3890	-0.0057	-0.0008	0.0031	25.4952	1.5166	11.6302	0.6526	0.0648	0.7531	-0.0515
10.72	-9.6505	0.0950	-1.3835	-0.0027	-0.0035	-0.0031	25.2755	1.3028	11.7194	0.6526	0.0647	0.7531	-0.0515
10.73	-9.6505	0.0927	-1.3885	-0.0153	-0.0057	0.0044	25.0976	1.2090	11.6601	0.6527	0.0647	0.7531	-0.0515
10.74	-9.6537	0.0969	-1.3912	-0.0089	-0.0041	0.0058	25.2910	1.3554	11.6533	0.6526	0.0647	0.7531	-0.0515
10.75	-9.6616	0.0907	-1.3969	-0.0067	-0.0070	-0.0018	25.3812	1.4755	11.5205	0.6527	0.0647	0.7532	-0.0515
10.76	-9.6623	0.0845	-1.3789	-0.0074	-0.0076	0.0031	25.1414	1.2391	11.4750	0.6526	0.0647	0.7531	-0.0516
10.77	-9.6540	0.0810	-1.3778	-0.0049	-0.0117	0.0061	25.3372	1.2225	11.3973	0.6527	0.0647	0.7531	-0.0516
10.78	-9.6672	0.0805	-1.3804	-0.0026	-0.0109	0.0028	25.5485	1.3849	11.4640	0.6527	0.0647	0.7530	-0.0516
10.79	-9.6598	0.0853	-1.3880	-0.0031	-0.0110	0.0090	25.7310	1.3701	11.4784	0.6527	0.0647	0.7531	-0.0516
10.8	-9.6535	0.0843	-1.3891	-0.0012	-0.0060	0.0049	25.5050	1.3264	11.4878	0.6527	0.0647	0.7531	-0.0516
10.81	-9.6559	0.0803	-1.3854	-0.0036	-0.0108	0.0089	25.3677	1.2406	11.3930	0.6527	0.0648	0.7530	-0.0516
10.82	-9.6642	0.0856	-1.3729	-0.0064	-0.0111	0.0045	25.3859	1.4022	11.3815	0.6528	0.0648	0.7530	-0.0516
10.83	-9.6578	0.0861	-1.3819	-0.0138	-0.0090	0.0074	25.3680	1.0639	11.3731	0.6528	0.0648	0.7530	-0.0516
10.84	-9.6520	0.0858	-1.3754	-0.0114	-0.0077	0.0100	25.4076	1.2544	11.2415	0.6528	0.0648	0.7530	-0.0516
10.85	-9.6631	0.0819	-1.3745	-0.0139	-0.0062	0.0072	25.2769	1.2692	11.4816	0.6527	0.0647	0.7529	-0.0516
10.86	-9.6652	0.0808	-1.3729	-0.0169	-0.0076	0.0045	25.3164	1.4058	11.5728	0.6528	0.0647	0.7530	-0.0515
10.87	-9.6551	0.0811	-1.3654	-0.0057	-0.0049	0.0018	25.3883	1.5617	11.3721	0.6528	0.0647	0.7530	-0.0515
10.88	-9.6500	0.0803	-1.3773	-0.0078	-0.0043	0.0033	25.3862	1.5181	11.4352	0.6528	0.0647	0.7530	-0.0515
10.89	-9.6566	0.0818	-1.3747	-0.0103	-0.0035	0.0063	25.2728	1.4405	11.5784	0.6528	0.0647	0.7530	-0.0515
10.9	-9.6527	0.0809	-1.3699	-0.0107	-0.0028	0.0067	25.2119	1.3234	11.5310	0.6528	0.0647	0.7530	-0.0515
10.91	-9.6466	0.0910	-1.3637	-0.0126	-0.0070	0.0045	25.3564	1.3995	11.3964	0.6528	0.0647	0.7530	-0.0515
10.92	-9.6632	0.0968	-1.3765	-0.0090	-0.0067	0.0012	25.1257	1.6014	11.3481	0.6528	0.0646	0.7529	-0.0515
10.93	-9.6643	0.0962	-1.3740	-0.0099	-0.0056	0.0063	25.1282	1.6110	11.4946	0.6529	0.0646	0.7530	-0.0515
10.94	-9.6556	0.0968	-1.3751	-0.0094	-0.0030	0.0071	25.2894	1.5881	11.4171	0.6528	0.0646	0.7530	-0.0515
10.95	-9.6632	0.0893	-1.3775	-0.0079	-0.0101	0.0038	25.2682	1.3918	11.5753	0.6529	0.0646	0.7531	-0.0515
10.96	-9.6590	0.0953	-1.3780	-0.0081	-0.0048	0.0104	25.4755	1.2512	11.4471	0.6528	0.0647	0.7529	-0.0515
10.97	-9.6541	0.0952	-1.3768	-0.0102	-0.0060	0.0064	25.5426	1.2031	11.4141	0.6528	0.0647	0.7530	-0.0515
10.98	-9.6558	0.0894	-1.3766	-0.0085	-0.0062	0.0080	25.5559	1.3484	11.6471	0.6528	0.0647	0.7530	-0.0514
10.99	-9.6610	0.0816	-1.3784	-0.0123	-0.0065	0.0095	25.3901	1.3791	11.3702	0.6528	0.0647	0.7529	-0.0514
11	-9.6627	0.0807	-1.3817	-0.0019	-0.0101	0.0096	25.3684	1.3349	11.3738	0.6529	0.0647	0.7530	-0.0514
11.01	-9.6550	0.0802	-1.3750	-0.0108	-0.0073	0.0081	25.3809	1.1454	11.5602	0.6529	0.0647	0.7529	-0.0514
11.02	-9.6565	0.0830	-1.3773	-0.0141	-0.0061	0.0080	25.3734	1.2639	11.4960	0.6529	0.0647	0.7530	-0.0514
11.03	-9.6566	0.0832	-1.3821	-0.0087	-0.0070	0.0075	25.3733	1.3013	11.4648	0.6528	0.0647	0.7529	-0.0514
11.04	-9.6594	0.0820	-1.3810	-0.0076	-0.0118	0.0097	25.3818	1.2316	11.4624	0.6529	0.0647	0.7529	-0.0513
11.05	-9.6594	0.0789	-1.3713	-0.0085	-0.0045	0.0059	25.2009	1.3984	11.5142	0.6529	0.0647	0.7529	-0.0513
11.06	-9.6541	0.0800	-1.3829	-0.0084	-0.0017	0.0054	25.2889	1.6693	11.5623	0.6529	0.0647	0.7529	-0.0513
11.07	-9.6544	0.0863	-1.3727	-0.0117	-0.0090	0.0112	25.2808	1.3835	11.5511	0.6529	0.0647	0.7529	-0.0513
11.08	-9.6497	0.0895	-1.3698	-0.0096	-0.0090	0.0075	25.3365	1.4926	11.4151	0.6529	0.0647	0.7529	-0.0513
11.09	-9.6510	0.0933	-1.3796	-0.0094	-0.0008	0.0055	25.3501	1.5416	11.5650	0.6529	0.0647	0.7530	-0.0513
11.1	-9.6506	0.0944	-1.3907	-0.0091	-0.0051	0.0056	25.1913	1.4497	11.4460	0.6528	0.0647	0.7529	-0.0513
11.11	-9.6632	0.1023	-1.3827	0.0004	-0.0001	0.0080	25.1273	1.3087	11.5026	0.6529	0.0647	0.7530	-0.0513
11.12	-9.6629	0.1080	-1.3910	-0.0069	-0.0142	0.0095	25.2859	1.4422	11.6796	0.6529	0.0648	0.7529	-0.0513
11.13	-9.6595	0.0926	-1.3793	-0.0120	-0.0144	0.0068	25.2652	1.5940	11.3522	0.6530	0.0647	0.7529	-0.0513
11.14	-9.6589	0.0875	-1.3834	-0.0168	-0.0108	0.0113	25.5717	1.2261	11.3965	0.6530	0.0647	0.7529	-0.0512
11.15	-9.6517	0.0884	-1.3837	-0.0099	-0.0107	0.0091	25.6199	1.2094	11.5132	0.6530	0.0647	0.7529	-0.0512
11.16	-9.6529	0.0805	-1.3848	-0.0123	-0.0069	0.0055	25.6362	1.1763	11.4179	0.6530	0.0647	0.7529	-0.0512
11.17	-9.6505	0.0808	-1.3798	-0.0080	-0.0081	0.0109	25.5232	1.2946	11.3634	0.6530	0.0647	0.7528	-0.0512
11.18	-9.6589	0.0829	-1.3754	-0.0100	-0.0087	0.0092	25.6517	1.2608	11.5121	0.6531	0.0648	0.7529	-0.0511
11.19	-9.6630	0.0855	-1.3936	-0.0114	-0.0101	0.0087	25.6925	1.3392	11.5955	0.6530	0.0647	0.7528	-0.0511
11.2	-9.6522	0.0819	-1.3910	-0.0120	-0.0137	0.0074	25.7199	1.3580	11.7534	0.6531	0.0647	0.7529	-0.0511
11.21	-9.6503	0.0938	-1.3900	-0.0099	-0.0077	0.0130	25.5249	1.4580	11.6404	0.6531	0.0647	0.7527	-0.0511
11.22	-9.6533	0.0926	-1.3863	-0.0030	-0.0029	0.0106	25.5002	1.5408	11.5605	0.6531	0.0648	0.7528	-0.0511
11.23	-9.6558	0.0866	-1.3895	-0.0037	-0.0096	0.0081	25.4587	1.4119	11.8273	0.6531	0.0648	0.7528	-0.0511
11.24	-9.6514	0.0955	-1.3880	-0.0095	-0.0113	0.0098	25.2911	1.3497	11.4264	0.6531	0.0648	0.7527	-0.0511
11.25	-9.6608	0.0979	-1.3789	-0.0135	-0.0111	0.0068	25.2073	1.2377	11.5004	0.6532	0.0648	0.7528	-0.0510
11.26	-9.6599	0.0908	-1.3871	-0.0121	-0.0006	0.0061	25.1236	1.3646	11.6362	0.6531	0.0648	0.7527	-0.0510
11.27	-9.6570	0.0906	-1.3829	-0.0013	-0.0038	0.0070	25.3215	1.3086	11.4946	0.6531	0.0648	0.7528	-0.0510
11.28	-9.6451	0.0942	-1.3756	-0.0013	-0.0049	0.0064	25.2784	1.4237	11.6513	0.6531	0.0648	0.7527	-0.0510
11.29	-9.6553	0.0919	-1.3778	-0.0097	-0.0073	0.0100	25.2123	1.4186	11.6242	0.6531	0.0649	0.7528	-0.0510
11.3	-9.6631	0.0895	-1.3776	-0.0051	-0.0040	0.0061	25.2008	1.2385	11.6270	0.6531	0.0649	0.7528	-0.0510
11.31	-9.6522	0.0992	-1.3657	-0.0069	-0.0035	0.0066	25.2807	1.3184	11.6576	0.6531	0.0649	0.7527	-0.0510
11.32	-9.6627	0.0832	-1.3752	-0.0060	-0.0099	0.0129	25.3901	1.5052	11.5045	0.6531	0.0649	0.7528	-0.0510
11.33	-9.6587	0.0807	-1.3722	-0.0083	-0.0118	0.0079	25.3844	1.5448	11.3453	0.6531	0.0649	0.7527	-0.0510
11.34	-9.6543	0.0805	-1.3632	-0.0115	-0.0042	0.0087	25.3670	1.3376	11.5612	0.6532	0.0649	0.7528	-0.0510
11.35	-9.6471	0.0745	-1.3588	-0.0108	-0.0103	0.0091	25.4013	1.1211	11.5435	0.6531	0.0649	0.7527	-0.0509
11.36	-9.6684	0.0793	-1.3614	-0.0082	-0.0054	0.0108	25.3300	1.4023	11.6552	0.6532	0.0649	0.7527	-0.0509
11.37	-9.6578	0.0882	-1.3642	-0.0102	-0.0046	0.0083	25.1979	1.2658	11.4541	0.6531	0.0649	0.7527	-0.0509
11.38	-9.6535	0.0810	-1.3644	-0.0004	-0.0073	0.0081	25.4605	1.2452	11.5176	0.6532	0.0650	0.7527	-0.0509
11.39	-9.6513	0.0867	-1.3558	-0.0004	-0.0096	0.0087	25.4750	1.2730	11.6779	0.6531	0.0650	0.7527	-0.0509
11.4	-9.6516	0.0946	-1.3651	-0.0097	-0.0080	0.0081	25.4099	1.1074	11.4688	0.6532	0.0650	0.7527	-0.0509
11.41	-9.6447	0.0996	-1.3556	-0.0042	-0.0086	0.0087	25.2426	1.3029	11.5191	0.6532	0.0650	0.7527	-0.0509
11.42	-9.6529	0.0911	-1.3553	-0.0052	-0.0115	0.0112	25.3973	1.3409	11.5523	0.6531	0.0651	0.7526	-0.0509
11.43	-9.6595	0.0850	-1.3716	-0.0138	-0.0086	0.0104	25.3695	1.3534	11.5569	0.6532	0.0651	0.7527	-0.0509
11.44	-9.6527	0.0816	-1.3495	-0.0050	-0.0058	0.0036	25.1054	1.4057	11.6521	0.6532	0.0651	0.7526	-0.0509
11.45	-9.6473	0.0809	-1.3570	-0.0111	-0.0036	0.0012	25.2555	1.2799	11.6239	0.6533	0.0650	0.7527	-0.0509
11.46	-9.6543	0.0823	-1.3648	-0.0108	-0.0021	0.0026	25.4015	1.4601	11.6300	0.6531	0.0650	0.7526	-0.0509
11.47	-9.6682	0.0810	-1.3635	-0.0154	-0.0044	0.0072	25.3532	1.3710	11.7594	0.6532	0.0650	0.7527	-0.0509
11.48	-9.6493	0.0798	-1.3522	-0.0052	-0.0062	0.0075	25.3975	1.3508	11.6532	0.6532	0.0650	0.7527	-0.0509
11.49	-9.6505	0.0726	-1.3581	-0.0053	0.0002	0.0061	25.3011	1.5355	11.6247	0.6531	0.0650	0.7527	-0.0509
11.5	-9.6605	0.0820	-1.3718	-0.0009	-0.0044	0.0113	25.1974	1.3727	11.6196	0.6532	0.0651	0.7528	-0.0509
11.51	-9.6498	0.0903	-1.3734	0.0013	-0.0074	0.0136	25.3643	1.3423	11.5366	0.6531	0.0651	0.7527	-0.0509
11.52	-9.6472	0.0898	-1.3747	-0.0033	-0.0123	0.0146	25.3743	1.2798	11.7318	0.6532	0.0652	0.7527	-0.0509
11.53	-9.6640	0.0862	-1.3827	-0.0069	-0.0043	0.0107	25.3907	1.2248	11.3084	0.6531	0.0652	0.7526	-0.0509
11.54	-9.6594	0.0974	-1.3953	-0.0094	0.0003	0.0085	25.3607	1.4972	11.5531	0.6532	0.0652	0.7527	-0.0509
11.55	-9.6496	0.0892	-1.3874	-0.0014	-0.0053	0.0082	25.2619	1.2981	11.6117	0.6531	0.0652	0.7527	-0.0509
11.56	-9.6654	0.0870	-1.3936	0.0002	-0.0053	0.0091	25.3757	1.2240	11.5123	0.6531	0.0653	0.7527	-0.0509
11.57	-9.6597	0.0844	-1.3937	-0.0061	-0.0047	0.0084	25.3872	1.3570	11.6583	0.6531	0.0653	0.7527	-0.0509
11.58	-9.6518	0.0882	-1.3872	-0.0097	-0.0066	0.0119	25.3474	1.4480	11.6289	0.6531	0.0653	0.7527	-0.0509
11.59	-9.6534	0.0917	-1.3945	-0.0099	-0.0023	0.0074	25.2620	1.1340	11.6002	0.6531	0.0653	0.7527	-0.0508
11.6	-9.6641	0.0951	-1.3899	-0.0002	-0.0066	0.0093	25.3965	1.0426	11.4507	0.6531	0.0653	0.7527	-0.0508
11.61	-9.6580	0.0924	-1.4007	-0.0017	-0.0082	0.0140	25.3712	1.3349	11.3635	0.6532	0.0654	0.7527	-0.0509
11.62	-9.6485	0.0899	-1.4016	-0.0058	-0.0053	0.0105	25.2566	1.3034	11.5381	0.6531	0.0654	0.7527	-0.0508
