time	acceleration_x	acceleration_y	acceleration_z	gyroscope_x	gyroscope_y	gyroscope_z	magnetometer_x	magnetometer_y	magnetometer_z	quaternion_w	quaternion_x	quaternion_y	quaternion_z
0	-5.2639	0.2279	0.1574	-0.0187	0.0086	-0.0193	19.1586	-7.3556	7.0280	-0.3358	0.1896	-0.3316	-0.2094
0.01	-10.3937	0.4355	0.2937	-0.0371	0.0176	-0.0421	37.6509	-14.7670	13.8695	-0.6636	0.3747	-0.6552	-0.4137
0.02	-9.1428	0.3496	0.2595	-0.0379	0.0045	-0.0374	33.2178	-13.1234	12.2232	-0.5839	0.3300	-0.5766	-0.3641
0.03	-9.8155	0.3655	0.3010	-0.0400	0.0041	-0.0354	35.6588	-13.9085	13.0056	-0.6269	0.3544	-0.6190	-0.3909
0.04	-9.4020	0.3461	0.2807	-0.0516	0.0092	-0.0365	34.3325	-12.9888	12.5934	-0.6002	0.3396	-0.5926	-0.3744
0.05	-9.6661	0.3271	0.2893	-0.0653	0.0067	-0.0345	35.2135	-13.6213	13.0411	-0.6171	0.3495	-0.6094	-0.3851
0.06	-9.4619	0.3125	0.2807	-0.0620	0.0015	-0.0315	34.3731	-13.3936	12.6473	-0.6062	0.3436	-0.5986	-0.3784
0.07	-9.5535	0.3020	0.3070	-0.0631	-0.0014	-0.0356	34.9389	-13.6786	12.9763	-0.6128	0.3476	-0.6050	-0.3827
0.08	-9.4887	0.2719	0.2917	-0.0636	0.0042	-0.0320	34.7763	-13.4533	12.8869	-0.6089	0.3457	-0.6012	-0.3804
0.09	-9.5023	0.2618	0.2970	-0.0629	-0.0008	-0.0357	34.8218	-13.3732	12.8566	-0.6108	0.3470	-0.6030	-0.3817
0.1	-9.4969	0.2377	0.3153	-0.0566	0.0019	-0.0285	34.6025	-13.5060	12.7733	-0.6099	0.3467	-0.6021	-0.3813
0.11	-9.4821	0.2255	0.2949	-0.0480	0.0008	-0.0320	34.8305	-13.6176	12.6275	-0.6098	0.3469	-0.6020	-0.3813
0.12	-9.4883	0.2228	0.3301	-0.0379	0.0010	-0.0285	34.9395	-13.6782	12.7503	-0.6097	0.3470	-0.6019	-0.3814
0.13	-9.4877	0.2113	0.3235	-0.0370	0.0062	-0.0278	34.8977	-13.6516	12.7900	-0.6097	0.3472	-0.6019	-0.3814
0.14	-9.4784	0.2054	0.3075	-0.0334	0.0119	-0.0249	35.0178	-13.7646	12.6444	-0.6096	0.3473	-0.6019	-0.3814
0.15	-9.4744	0.2268	0.3296	-0.0253	0.0054	-0.0234	35.0016	-13.6025	12.7229	-0.6095	0.3474	-0.6019	-0.3814
0.16	-9.4713	0.2272	0.3196	-0.0123	0.0101	-0.0134	34.7321	-13.5427	12.8053	-0.6095	0.3475	-0.6019	-0.3814
0.17	-9.4859	0.2329	0.3100	-0.0100	0.0243	-0.0185	34.8278	-13.6927	12.5724	-0.6094	0.3475	-0.6020	-0.3814
0.18	-9.4995	0.2569	0.2988	-0.0066	0.0299	-0.0137	34.9220	-13.7361	12.5760	-0.6093	0.3476	-0.6022	-0.3813
0.19	-9.5101	0.2574	0.2802	-0.0024	0.0326	-0.0131	34.7667	-13.6468	12.6225	-0.6092	0.3476	-0.6023	-0.3812
0.2	-9.5042	0.2610	0.2730	0.0108	0.0231	-0.0114	34.9308	-13.6214	12.7837	-0.6091	0.3476	-0.6024	-0.3811
0.21	-9.5204	0.2828	0.2827	0.0149	0.0266	-0.0137	34.9067	-13.3395	12.6539	-0.6090	0.3476	-0.6026	-0.3810
0.22	-9.5252	0.2931	0.2518	0.0141	0.0277	-0.0130	34.7853	-13.4610	12.8215	-0.6090	0.3476	-0.6027	-0.3809
0.23	-9.5465	0.3057	0.2733	0.0143	0.0205	-0.0116	34.6613	-13.4887	12.8887	-0.6089	0.3475	-0.6029	-0.3808
0.24	-9.5653	0.3310	0.2724	0.0186	0.0222	-0.0188	34.6261	-13.5040	12.7413	-0.6089	0.3475	-0.6030	-0.3806
0.25	-9.5040	0.3607	0.2294	0.0186	0.0210	-0.0207	34.7880	-13.3482	12.7888	-0.6088	0.3475	-0.6032	-0.3805
0.26	-9.4891	0.3905	0.2826	0.0164	0.0161	-0.0268	34.6454	-13.4890	12.8750	-0.6088	0.3475	-0.6033	-0.3803
0.27	-9.5034	0.4222	0.2651	0.0139	0.0224	-0.0245	34.4368	-13.4058	12.8460	-0.6088	0.3475	-0.6034	-0.3802
0.28	-9.5111	0.4514	0.2508	0.0104	0.0271	-0.0285	34.5793	-13.4188	12.8510	-0.6088	0.3475	-0.6035	-0.3800
0.29	-9.5274	0.4937	0.2922	0.0105	0.0244	-0.0343	34.6805	-13.3404	12.8680	-0.6087	0.3476	-0.6036	-0.3799
0.3	-9.5730	0.5212	0.2768	-0.0091	0.0307	-0.0369	34.8099	-13.6070	13.0338	-0.6087	0.3477	-0.6037	-0.3797
0.31	-9.5757	0.5066	0.2441	-0.0241	0.0346	-0.0347	34.8376	-14.0029	13.0809	-0.6086	0.3479	-0.6038	-0.3796
0.32	-9.5134	0.5107	0.2599	-0.0370	0.0306	-0.0355	34.8011	-13.6632	12.7895	-0.6084	0.3481	-0.6038	-0.3796
0.33	-9.4772	0.4906	0.2558	-0.0525	0.0391	-0.0411	35.0360	-13.5218	12.7965	-0.6083	0.3483	-0.6038	-0.3796
0.34	-9.4637	0.4472	0.2003	-0.0641	0.0453	-0.0434	35.1488	-13.4365	12.9287	-0.6081	0.3487	-0.6038	-0.3796
0.35	-9.4623	0.4082	0.1995	-0.0764	0.0411	-0.0406	35.4068	-13.0374	13.1437	-0.6079	0.3490	-0.6038	-0.3796
0.36	-9.4610	0.3562	0.2092	-0.0862	0.0475	-0.0456	34.7450	-13.5488	13.0812	-0.6076	0.3495	-0.6038	-0.3796
0.37	-9.4924	0.3152	0.2079	-0.0869	0.0452	-0.0483	34.4586	-14.3402	13.0058	-0.6074	0.3499	-0.6037	-0.3797
0.38	-9.5333	0.2787	0.2045	-0.0899	0.0442	-0.0436	34.3821	-14.1352	12.9361	-0.6072	0.3503	-0.6037	-0.3798
0.39	-9.5456	0.2331	0.1987	-0.0824	0.0448	-0.0464	34.3934	-13.2359	12.9345	-0.6069	0.3507	-0.6036	-0.3798
0.4	-9.5360	0.2165	0.1987	-0.0672	0.0450	-0.0443	34.6671	-13.3064	13.0658	-0.6067	0.3511	-0.6036	-0.3798
0.41	-9.5193	0.2129	0.1928	-0.0658	0.0449	-0.0468	34.4173	-13.3223	12.9427	-0.6065	0.3514	-0.6036	-0.3798
0.42	-9.5217	0.1945	0.1696	-0.0626	0.0438	-0.0419	34.2858	-13.5139	12.9059	-0.6063	0.3518	-0.6036	-0.3798
0.43	-9.4959	0.2064	0.1585	-0.0533	0.0468	-0.0348	34.3263	-13.3011	13.2152	-0.6061	0.3521	-0.6037	-0.3798
0.44	-9.5188	0.2154	0.1863	-0.0469	0.0550	-0.0418	34.4479	-13.4972	13.1253	-0.6059	0.3524	-0.6038	-0.3797
0.45	-9.5769	0.2253	0.1473	-0.0376	0.0632	-0.0365	34.5875	-13.2973	12.8769	-0.6057	0.3527	-0.6039	-0.3796
0.46	-9.5955	0.2216	0.1244	-0.0395	0.0495	-0.0344	34.4648	-13.1993	13.1641	-0.6055	0.3529	-0.6040	-0.3795
0.47	-9.5724	0.2238	0.1401	-0.0364	0.0399	-0.0353	34.5097	-13.4317	13.2160	-0.6053	0.3532	-0.6040	-0.3795
0.48	-9.5871	0.2332	0.1484	-0.0385	0.0344	-0.0345	34.4062	-13.3404	13.2122	-0.6052	0.3534	-0.6041	-0.3794
0.49	-9.5896	0.2224	0.1339	-0.0370	0.0322	-0.0365	34.4646	-13.4715	13.1301	-0.6051	0.3536	-0.6041	-0.3794
0.5	-9.5585	0.2266	0.1344	-0.0380	0.0207	-0.0310	34.5117	-13.4782	13.0916	-0.6050	0.3538	-0.6041	-0.3794
0.51	-9.5321	0.2362	0.1479	-0.0370	0.0184	-0.0311	34.6020	-13.5803	13.1751	-0.6049	0.3539	-0.6041	-0.3793
0.52	-9.5139	0.2208	0.1180	-0.0361	0.0292	-0.0362	34.4950	-13.5342	12.9377	-0.6048	0.3542	-0.6041	-0.3793
0.53	-9.5174	0.2264	0.1073	-0.0286	0.0262	-0.0325	34.4642	-13.5748	12.9457	-0.6046	0.3543	-0.6042	-0.3793
0.54	-9.5021	0.2311	0.0991	-0.0297	0.0299	-0.0343	34.5142	-13.3942	13.0241	-0.6045	0.3545	-0.6042	-0.3792
0.55	-9.5065	0.2249	0.1116	-0.0222	0.0331	-0.0347	34.4098	-13.3860	12.8766	-0.6044	0.3547	-0.6043	-0.3791
0.56	-9.5433	0.2260	0.0961	-0.0211	0.0323	-0.0332	34.3898	-13.3561	13.0373	-0.6043	0.3548	-0.6043	-0.3790
0.57	-9.5461	0.2158	0.0690	-0.0188	0.0333	-0.0335	34.4904	-13.4213	13.1289	-0.6042	0.3550	-0.6044	-0.3789
0.58	-9.5358	0.2164	0.0980	-0.0129	0.0186	-0.0350	34.5204	-13.4181	13.1086	-0.6042	0.3551	-0.6045	-0.3788
0.59	-9.5352	0.2194	0.1102	-0.0190	0.0291	-0.0346	34.5814	-13.1406	13.1234	-0.6041	0.3553	-0.6045	-0.3787
0.6	-9.5339	0.2222	0.0865	-0.0164	0.0322	-0.0345	34.1281	-13.4155	13.0874	-0.6040	0.3554	-0.6046	-0.3786
0.61	-9.5169	0.2293	0.0783	-0.0169	0.0189	-0.0352	34.4383	-13.3574	13.2991	-0.6039	0.3556	-0.6046	-0.3786
0.62	-9.5155	0.2313	0.1071	-0.0177	0.0257	-0.0328	34.4366	-13.3958	13.4066	-0.6038	0.3557	-0.6047	-0.3785
0.63	-9.5218	0.2309	0.0819	-0.0170	0.0325	-0.0345	34.3875	-13.2942	13.0793	-0.6037	0.3558	-0.6047	-0.3784
0.64	-9.5288	0.2306	0.0589	-0.0142	0.0416	-0.0341	34.3803	-13.2760	13.1325	-0.6036	0.3560	-0.6048	-0.3782
0.65	-9.5118	0.2184	0.0480	-0.0100	0.0430	-0.0341	34.3115	-13.3205	13.2455	-0.6035	0.3561	-0.6050	-0.3781
0.66	-9.5182	0.2172	0.0482	-0.0104	0.0384	-0.0340	34.4519	-13.4293	13.3901	-0.6034	0.3563	-0.6051	-0.3780
0.67	-9.5539	0.2205	0.0395	-0.0132	0.0414	-0.0345	34.2701	-13.1582	13.3974	-0.6033	0.3564	-0.6052	-0.3778
0.68	-9.5944	0.2174	0.0168	-0.0110	0.0415	-0.0341	34.3397	-13.3614	13.1377	-0.6032	0.3566	-0.6053	-0.3777
0.69	-9.6162	0.2118	0.0096	-0.0112	0.0337	-0.0346	34.2538	-13.3350	13.1022	-0.6031	0.3567	-0.6054	-0.3776
0.7	-9.6200	0.2084	0.0274	-0.0051	0.0297	-0.0361	34.4885	-13.2651	13.1655	-0.6030	0.3569	-0.6055	-0.3774
0.71	-9.6681	0.2180	0.0271	-0.0097	0.0258	-0.0383	34.4793	-13.3010	13.4568	-0.6030	0.3570	-0.6055	-0.3773
0.72	-9.6067	0.2245	-0.0375	-0.0115	0.0158	-0.0371	34.3735	-13.2762	13.2986	-0.6029	0.3571	-0.6056	-0.3772
0.73	-9.5848	0.1949	0.0185	-0.0110	0.0045	-0.0432	34.3959	-13.3008	13.1549	-0.6029	0.3572	-0.6055	-0.3771
0.74	-9.5772	0.1894	0.0131	-0.0120	0.0010	-0.0389	34.4792	-13.2729	13.3185	-0.6029	0.3573	-0.6055	-0.3770
0.75	-9.6058	0.1820	0.0289	-0.0110	-0.0165	-0.0439	34.4939	-13.3103	13.2896	-0.6030	0.3574	-0.6054	-0.3770
0.76	-9.5912	0.1505	0.0194	-0.0101	-0.0188	-0.0394	34.4769	-13.2355	13.1331	-0.6031	0.3574	-0.6054	-0.3769
0.77	-9.5853	0.1652	0.0399	-0.0099	-0.0256	-0.0364	34.5022	-13.1743	13.3962	-0.6032	0.3574	-0.6053	-0.3769
0.78	-9.5938	0.1739	0.0700	-0.0121	-0.0181	-0.0284	34.3837	-13.3072	13.3665	-0.6032	0.3575	-0.6052	-0.3769
0.79	-9.5260	0.1834	0.0252	-0.0145	-0.0151	-0.0156	34.2715	-13.1508	13.4481	-0.6033	0.3575	-0.6052	-0.3769
0.8	-9.4927	0.1803	0.0354	-0.0178	-0.0149	-0.0244	34.3776	-13.2749	13.4247	-0.6033	0.3575	-0.6051	-0.3769
0.81	-9.4767	0.1711	0.0218	-0.0100	-0.0072	-0.0316	34.4102	-13.2956	13.3882	-0.6033	0.3576	-0.6051	-0.3769
0.82	-9.4821	0.1595	-0.0018	-0.0205	-0.0026	-0.0297	34.3828	-13.2800	13.3595	-0.6033	0.3576	-0.6051	-0.3768
0.83	-9.5001	0.1307	0.0124	-0.0115	-0.0036	-0.0340	34.4235	-13.1382	13.3274	-0.6033	0.3577	-0.6050	-0.3768
0.84	-9.5181	0.1408	0.0131	-0.0091	-0.0057	-0.0346	34.6200	-13.0729	13.6699	-0.6034	0.3578	-0.6050	-0.3767
0.85	-9.5789	0.1311	0.0404	-0.0095	-0.0106	-0.0330	34.8788	-12.6491	13.7677	-0.6034	0.3578	-0.6050	-0.3767
0.86	-9.5918	0.1382	0.0147	-0.0069	-0.0098	-0.0240	34.6117	-13.2386	13.3888	-0.6034	0.3578	-0.6050	-0.3767
0.87	-9.5742	0.1498	0.0299	0.0023	-0.0226	-0.0326	34.4133	-14.2507	13.2407	-0.6035	0.3578	-0.6049	-0.3766
0.88	-9.5687	0.1470	0.0396	-0.0112	-0.0197	-0.0335	34.4135	-13.9308	13.3303	-0.6036	0.3578	-0.6048	-0.3766
0.89	-9.5560	0.1774	0.0055	-0.0075	-0.0164	-0.0301	34.3381	-13.1588	13.4147	-0.6037	0.3579	-0.6048	-0.3765
0.9	-9.4921	0.1601	-0.0107	-0.0110	-0.0210	-0.0322	34.3354	-13.2007	13.2327	-0.6037	0.3579	-0.6047	-0.3765
0.91	-9.5271	0.1684	0.0504	-0.0117	-0.0183	-0.0332	34.1503	-13.2500	13.2317	-0.6038	0.3579	-0.6046	-0.3765
0.92	-9.5856	0.1620	-0.0057	-0.0111	-0.0112	-0.0364	34.2637	-13.3170	13.1075	-0.6038	0.3580	-0.6046	-0.3764
0.93	-9.5843	0.1450	-0.0184	-0.0125	-0.0217	-0.0346	34.1475	-13.1286	13.2765	-0.6039	0.3580	-0.6045	-0.3764
0.94	-9.5623	0.1161	0.0408	-0.0268	-0.0273	-0.0369	34.3663	-13.1479	13.1018	-0.6040	0.3581	-0.6044	-0.3764
0.95	-9.5678	0.1184	0.0204	-0.0234	-0.0280	-0.0282	34.2592	-13.5438	13.3096	-0.6040	0.3581	-0.6043	-0.3765
0.96	-9.5867	0.1048	0.0162	-0.0277	-0.0370	-0.0194	34.2579	-13.0877	13.3000	-0.6041	0.3581	-0.6041	-0.3765
0.97	-9.5655	0.1129	0.0385	-0.0317	-0.0393	-0.0183	34.2504	-12.7978	13.1960	-0.6042	0.3582	-0.6040	-0.3767
0.98	-9.5497	0.1164	0.0521	-0.0280	-0.0271	-0.0156	34.0734	-13.0477	13.1870	-0.6042	0.3582	-0.6039	-0.3768
0.99	-9.5298	0.0789	0.0269	-0.0393	-0.0313	-0.0221	34.0864	-13.0105	13.3493	-0.6042	0.3582	-0.6038	-0.3769
1	-9.5272	0.0792	0.0431	-0.0223	-0.0309	-0.0190	34.1806	-13.0196	13.1063	-0.6043	0.3582	-0.6037	-0.3769
1.01	-9.5096	0.0786	0.0448	-0.0197	-0.0299	-0.0190	34.1820	-13.0367	13.2667	-0.6043	0.3582	-0.6036	-0.3770
1.02	-9.5397	0.0690	0.0704	-0.0135	-0.0276	-0.0200	34.4380	-12.9397	13.1702	-0.6044	0.3582	-0.6035	-0.3770
1.03	-9.5416	0.0814	0.0461	-0.0118	-0.0198	-0.0136	34.3685	-12.9278	13.0132	-0.6044	0.3582	-0.6035	-0.3771
1.04	-9.5066	0.0733	0.0616	-0.0034	-0.0317	-0.0097	34.1664	-13.0537	13.2485	-0.6045	0.3581	-0.6034	-0.3771
1.05	-9.5042	0.0823	0.1038	-0.0010	-0.0292	-0.0103	34.2644	-13.0082	13.0538	-0.6046	0.3580	-0.6034	-0.3772
1.06	-9.5114	0.0937	0.0785	-0.0045	-0.0201	-0.0098	34.5485	-13.4119	13.2437	-0.6046	0.3580	-0.6033	-0.3772
1.07	-9.5105	0.0993	0.0850	0.0045	-0.0239	-0.0103	34.4267	-13.3273	13.2305	-0.6047	0.3579	-0.6033	-0.3772
1.08	-9.4853	0.1057	0.1052	0.0079	-0.0241	-0.0088	34.4010	-13.4595	13.3340	-0.6048	0.3578	-0.6033	-0.3772
1.09	-9.5137	0.1153	0.1225	0.0148	-0.0144	-0.0087	34.3084	-13.3347	13.0699	-0.6048	0.3577	-0.6033	-0.3771
1.1	-9.4979	0.1199	0.0824	0.0172	-0.0161	-0.0084	34.4703	-13.1615	13.3638	-0.6049	0.3576	-0.6034	-0.3771
1.11	-9.5070	0.1339	0.1253	0.0170	-0.0125	-0.0086	34.1604	-13.3275	13.1232	-0.6049	0.3574	-0.6034	-0.3771
1.12	-9.5045	0.1475	0.1110	0.0145	-0.0104	-0.0085	34.2145	-13.2583	13.0194	-0.6050	0.3573	-0.6035	-0.3770
1.13	-9.4901	0.1598	0.1011	0.0168	-0.0107	-0.0100	34.3534	-13.3115	13.3532	-0.6050	0.3572	-0.6035	-0.3770
1.14	-9.4939	0.1653	0.1226	0.0219	-0.0115	-0.0089	34.3530	-13.1506	13.2791	-0.6051	0.3571	-0.6036	-0.3769
1.15	-9.5168	0.1653	0.1240	0.0188	-0.0068	-0.0114	34.1834	-13.2524	13.0545	-0.6051	0.3570	-0.6037	-0.3768
1.16	-9.5337	0.1565	0.1002	0.0255	-0.0072	-0.0099	34.1752	-13.0417	13.2642	-0.6052	0.3569	-0.6037	-0.3767
1.17	-9.5477	0.1840	0.1349	0.0267	-0.0154	-0.0089	34.1556	-13.0108	13.4334	-0.6052	0.3567	-0.6038	-0.3766
1.18	-9.5431	0.1887	0.1308	0.0154	0.0010	-0.0065	34.0917	-13.0116	13.3542	-0.6052	0.3566	-0.6039	-0.3766
1.19	-9.4636	0.2021	0.0858	0.0258	-0.0100	-0.0091	34.1961	-13.0671	13.2973	-0.6053	0.3565	-0.6040	-0.3765
1.2	-9.4878	0.2139	0.1667	0.0321	-0.0074	-0.0088	34.1621	-13.1302	13.3027	-0.6054	0.3564	-0.6040	-0.3764
1.21	-9.5101	0.2100	0.1262	0.0209	0.0092	-0.0102	34.1643	-13.0918	13.3233	-0.6054	0.3563	-0.6041	-0.3763
1.22	-9.5514	0.2082	0.1374	0.0228	-0.0096	-0.0142	34.1944	-13.1208	13.4120	-0.6054	0.3562	-0.6042	-0.3762
1.23	-9.5351	0.2281	0.1513	0.0290	-0.0090	-0.0090	34.0847	-13.0871	13.4138	-0.6055	0.3560	-0.6043	-0.3761
1.24	-9.5472	0.2241	0.1809	0.0257	0.0024	-0.0092	34.1616	-13.1920	13.2947	-0.6055	0.3559	-0.6044	-0.3760
1.25	-9.5433	0.2677	0.1555	0.0194	0.0017	-0.0071	34.2766	-13.4246	13.3443	-0.6055	0.3558	-0.6045	-0.3759
1.26	-9.5037	0.2751	0.1224	0.0127	0.0079	-0.0096	34.4391	-13.3036	13.2244	-0.6055	0.3558	-0.6046	-0.3758
1.27	-9.4809	0.2821	0.1345	0.0109	0.0167	-0.0089	34.6440	-13.2723	13.0443	-0.6055	0.3557	-0.6047	-0.3758
1.28	-9.4441	0.2664	0.1016	0.0005	0.0241	-0.0087	34.5192	-13.2878	13.4910	-0.6054	0.3557	-0.6048	-0.3757
1.29	-9.4896	0.2588	0.1093	-0.0091	0.0232	-0.0102	34.1157	-13.1475	13.1831	-0.6053	0.3558	-0.6049	-0.3757
1.3	-9.5176	0.2592	0.0843	-0.0038	0.0309	-0.0153	34.3231	-13.2821	13.3362	-0.6052	0.3558	-0.6051	-0.3756
1.31	-9.5438	0.2334	0.0821	-0.0057	0.0239	-0.0176	34.2814	-13.2155	13.1097	-0.6051	0.3559	-0.6052	-0.3755
1.32	-9.5670	0.2281	0.1072	-0.0173	0.0173	-0.0106	34.1418	-13.0672	13.2630	-0.6050	0.3559	-0.6052	-0.3755
1.33	-9.5664	0.2110	0.0900	-0.0219	0.0189	-0.0134	34.4977	-13.3080	13.4461	-0.6049	0.3560	-0.6053	-0.3755
1.34	-9.5435	0.2162	0.0819	-0.0147	0.0149	-0.0116	34.5740	-13.1699	13.4223	-0.6048	0.3560	-0.6054	-0.3755
1.35	-9.5260	0.2156	0.0921	-0.0174	0.0101	-0.0060	34.8256	-12.6636	13.7281	-0.6047	0.3561	-0.6054	-0.3755
1.36	-9.5201	0.2141	0.0685	-0.0244	0.0191	-0.0110	34.5333	-12.8871	13.5395	-0.6046	0.3562	-0.6055	-0.3755
1.37	-9.5111	0.2349	0.0582	-0.0301	0.0107	-0.0095	34.2336	-13.8715	13.5557	-0.6045	0.3562	-0.6055	-0.3755
1.38	-9.5638	0.2259	0.0936	-0.0281	0.0226	-0.0203	34.3711	-13.9273	13.4001	-0.6044	0.3563	-0.6056	-0.3755
1.39	-9.5972	0.2070	0.0547	-0.0375	0.0252	-0.0192	34.3701	-12.9851	13.1386	-0.6043	0.3565	-0.6056	-0.3755
1.4	-9.5915	0.2073	0.0452	-0.0266	0.0130	-0.0203	34.2771	-13.0708	13.5395	-0.6042	0.3566	-0.6056	-0.3756
1.41	-9.5690	0.1998	0.0714	-0.0350	0.0030	-0.0166	34.3107	-13.1049	13.5082	-0.6041	0.3567	-0.6056	-0.3756
1.42	-9.5950	0.1990	0.0854	-0.0306	0.0006	-0.0078	34.2796	-13.1517	13.3472	-0.6040	0.3568	-0.6056	-0.3757
1.43	-9.5692	0.2159	0.0460	-0.0278	-0.0057	-0.0111	34.4382	-13.2663	13.3976	-0.6040	0.3568	-0.6056	-0.3757
1.44	-9.5321	0.2178	0.0822	-0.0354	-0.0156	-0.0095	34.4821	-13.3083	13.5217	-0.6039	0.3569	-0.6055	-0.3758
1.45	-9.5271	0.2207	0.0897	-0.0241	0.0031	-0.0135	34.4776	-13.0982	13.3489	-0.6039	0.3569	-0.6055	-0.3759
1.46	-9.5311	0.2078	0.0544	-0.0222	0.0015	-0.0202	34.4657	-13.2677	13.4110	-0.6038	0.3570	-0.6055	-0.3759
1.47	-9.5081	0.2044	0.0675	-0.0273	0.0021	-0.0187	34.4960	-13.3112	13.4470	-0.6038	0.3571	-0.6055	-0.3759
1.48	-9.5004	0.2123	0.0915	-0.0291	0.0084	-0.0213	34.4056	-13.1286	13.3471	-0.6037	0.3572	-0.6055	-0.3759
1.49	-9.5148	0.2096	0.0735	-0.0215	0.0153	-0.0237	34.3781	-13.1526	13.3930	-0.6036	0.3573	-0.6055	-0.3759
1.5	-9.5351	0.1913	0.0733	-0.0265	0.0083	-0.0316	34.3863	-13.1209	13.1360	-0.6036	0.3574	-0.6055	-0.3759
1.51	-9.5303	0.1948	0.0790	-0.0228	0.0087	-0.0290	34.3995	-13.1909	13.4048	-0.6035	0.3575	-0.6055	-0.3758
1.52	-9.5144	0.1857	0.0807	-0.0267	0.0021	-0.0127	34.3115	-13.2547	13.2764	-0.6035	0.3576	-0.6055	-0.3759
1.53	-9.5286	0.2060	0.0834	-0.0182	0.0084	-0.0195	34.2842	-13.1233	13.3776	-0.6034	0.3576	-0.6055	-0.3759
1.54	-9.5324	0.2254	0.0518	-0.0252	0.0114	-0.0238	34.3063	-13.1390	13.5131	-0.6034	0.3577	-0.6056	-0.3759
1.55	-9.5243	0.2225	0.0758	-0.0303	0.0089	-0.0228	34.0796	-12.9654	13.3516	-0.6033	0.3578	-0.6056	-0.3759
1.56	-9.5264	0.2179	0.0911	-0.0276	0.0119	-0.0215	34.2934	-13.3612	13.1284	-0.6032	0.3579	-0.6056	-0.3759
1.57	-9.5471	0.2107	0.0824	-0.0377	0.0192	-0.0314	34.5085	-13.1628	13.4855	-0.6031	0.3581	-0.6056	-0.3759
1.58	-9.5637	0.1979	0.0673	-0.0304	0.0133	-0.0218	34.4699	-13.3463	13.5285	-0.6030	0.3583	-0.6056	-0.3759
1.59	-9.5476	0.1864	0.0611	-0.0328	0.0122	-0.0245	34.4263	-13.3653	13.1706	-0.6029	0.3584	-0.6056	-0.3759
1.6	-9.5616	0.1830	0.0826	-0.0297	0.0079	-0.0248	34.2597	-13.2879	13.2848	-0.6029	0.3585	-0.6056	-0.3759
1.61	-9.5300	0.1671	0.0364	-0.0322	-0.0019	-0.0186	34.3319	-13.3375	13.1914	-0.6028	0.3586	-0.6056	-0.3759
1.62	-9.5328	0.1492	0.0715	-0.0159	-0.0023	-0.0239	34.4326	-13.3002	13.5441	-0.6028	0.3586	-0.6055	-0.3759
1.63	-9.4848	0.1465	0.0413	-0.0108	0.0020	-0.0132	34.5848	-13.3270	13.2561	-0.6028	0.3587	-0.6056	-0.3759
1.64	-9.5134	0.1568	0.0850	-0.0071	0.0028	-0.0225	34.5357	-13.3019	13.4233	-0.6028	0.3587	-0.6056	-0.3759
1.65	-9.4932	0.1690	0.0373	-0.0034	0.0107	-0.0199	34.4752	-13.3368	13.3059	-0.6027	0.3587	-0.6056	-0.3758
1.66	-9.4604	0.1665	0.0484	-0.0028	-0.0081	-0.0207	34.4098	-13.2471	13.3401	-0.6028	0.3587	-0.6056	-0.3758
1.67	-9.5066	0.1577	0.1093	0.0071	0.0035	-0.0332	34.3746	-13.2111	13.4074	-0.6028	0.3587	-0.6057	-0.3757
1.68	-9.5374	0.1485	0.0526	0.0027	0.0127	-0.0330	34.3857	-13.2490	13.1041	-0.6028	0.3588	-0.6057	-0.3755
1.69	-9.5365	0.1312	0.0520	0.0137	0.0078	-0.0307	34.4015	-13.1891	13.3141	-0.6028	0.3588	-0.6058	-0.3754
1.7	-9.5194	0.1703	0.0837	0.0145	0.0077	-0.0205	34.3046	-13.0287	13.4737	-0.6028	0.3588	-0.6059	-0.3753
1.71	-9.5629	0.1965	0.0781	0.0153	0.0149	-0.0079	34.2965	-13.2608	13.4651	-0.6028	0.3587	-0.6060	-0.3752
1.72	-9.5365	0.2386	0.0288	0.0156	0.0225	-0.0089	34.1487	-12.9324	13.4616	-0.6027	0.3587	-0.6061	-0.3751
1.73	-9.4988	0.2871	0.0524	0.0108	0.0161	-0.0091	34.3563	-13.0588	13.4403	-0.6027	0.3586	-0.6063	-0.3750
1.74	-9.4887	0.3101	0.0318	-0.0043	0.0332	-0.0084	34.4074	-12.9526	13.1326	-0.6026	0.3587	-0.6064	-0.3749
1.75	-9.5089	0.3117	0.0001	-0.0121	0.0290	-0.0114	34.2688	-13.1009	13.3652	-0.6024	0.3587	-0.6065	-0.3749
1.76	-9.5333	0.3163	0.0118	-0.0151	0.0267	-0.0163	34.4699	-13.2899	13.6481	-0.6023	0.3588	-0.6066	-0.3748
1.77	-9.5492	0.3080	0.0117	-0.0319	0.0287	-0.0270	34.1965	-13.1155	13.4277	-0.6022	0.3590	-0.6067	-0.3748
1.78	-9.5571	0.2931	-0.0068	-0.0366	0.0194	-0.0281	34.2158	-13.2496	13.5909	-0.6021	0.3591	-0.6067	-0.3748
1.79	-9.5694	0.2756	0.0019	-0.0360	0.0091	-0.0231	34.4484	-13.2030	13.5252	-0.6020	0.3593	-0.6067	-0.3748
1.8	-9.5439	0.2628	-0.0052	-0.0368	0.0023	-0.0210	34.5361	-13.0799	13.4236	-0.6019	0.3594	-0.6066	-0.3748
1.81	-9.5102	0.2435	0.0049	-0.0427	0.0015	-0.0285	34.5880	-13.3240	13.5835	-0.6019	0.3595	-0.6066	-0.3749
1.82	-9.5254	0.2332	0.0029	-0.0441	0.0142	-0.0311	34.5370	-13.5105	13.5456	-0.6018	0.3597	-0.6065	-0.3749
1.83	-9.4937	0.2148	-0.0494	-0.0414	0.0171	-0.0225	34.6032	-13.4930	13.6200	-0.6017	0.3599	-0.6065	-0.3749
1.84	-9.4904	0.1923	-0.0008	-0.0448	0.0089	-0.0284	34.7612	-13.4484	13.6700	-0.6016	0.3600	-0.6065	-0.3750
1.85	-9.5821	0.1841	0.0103	-0.0411	0.0277	-0.0322	35.0894	-13.0482	13.7354	-0.6015	0.3603	-0.6065	-0.3750
1.86	-9.6072	0.1612	-0.0835	-0.0405	0.0246	-0.0355	34.4634	-13.4343	13.7402	-0.6014	0.3605	-0.6065	-0.3750
1.87	-9.5919	0.1375	-0.0326	-0.0432	0.0033	-0.0328	34.1715	-14.0091	13.3900	-0.6013	0.3606	-0.6065	-0.3750
1.88	-9.5788	0.1375	-0.0016	-0.0382	0.0010	-0.0280	34.3029	-13.9584	13.4197	-0.6012	0.3608	-0.6064	-0.3750
1.89	-9.6022	0.1304	-0.0442	-0.0370	0.0036	-0.0186	34.0435	-13.0604	13.4900	-0.6012	0.3609	-0.6064	-0.3751
1.9	-9.5923	0.1446	-0.0460	-0.0270	0.0011	-0.0219	34.1319	-13.1102	13.4126	-0.6011	0.3610	-0.6064	-0.3751
1.91	-9.5739	0.1567	-0.0129	-0.0178	0.0002	-0.0248	34.0795	-12.9605	13.5801	-0.6011	0.3610	-0.6063	-0.3751
1.92	-9.5506	0.1537	-0.0460	-0.0168	0.0066	-0.0332	34.1200	-13.1559	13.7058	-0.6011	0.3611	-0.6063	-0.3750
1.93	-9.5474	0.1527	-0.0490	-0.0111	-0.0009	-0.0313	34.0749	-13.0556	13.6421	-0.6011	0.3612	-0.6063	-0.3750
1.94	-9.5532	0.1537	-0.0361	-0.0066	0.0035	-0.0343	33.9717	-13.0470	13.4241	-0.6011	0.3613	-0.6063	-0.3749
1.95	-9.5543	0.1604	-0.0456	-0.0101	-0.0057	-0.0352	34.1133	-13.2202	13.6223	-0.6011	0.3613	-0.6063	-0.3748
1.96	-9.5631	0.1777	-0.0343	-0.0101	-0.0061	-0.0304	33.9934	-13.0925	13.5726	-0.6011	0.3614	-0.6063	-0.3748
1.97	-9.5576	0.1767	-0.0249	-0.0089	-0.0142	-0.0291	34.0265	-13.1146	13.4752	-0.6012	0.3614	-0.6062	-0.3747
1.98	-9.5311	0.1696	-0.0233	-0.0081	-0.0255	-0.0195	33.9786	-13.1357	13.5277	-0.6013	0.3614	-0.6062	-0.3748
1.99	-9.5325	0.2031	0.0044	-0.0100	-0.0196	-0.0212	34.1891	-13.4031	13.4023	-0.6013	0.3614	-0.6061	-0.3748
2	-9.5214	0.1940	-0.0035	-0.0180	-0.0218	-0.0228	34.3072	-13.4598	13.4293	-0.6013	0.3614	-0.6061	-0.3748
2.01	-9.5223	0.1729	0.0008	-0.0212	-0.0221	-0.0175	34.4071	-13.3099	13.3953	-0.6014	0.3614	-0.6060	-0.3748
2.02	-9.5316	0.1830	0.0008	-0.0178	-0.0173	-0.0235	34.2620	-13.2508	13.4570	-0.6014	0.3614	-0.6059	-0.3749
2.03	-9.5321	0.1715	-0.0077	-0.0115	-0.0124	-0.0160	34.3934	-13.4214	13.1700	-0.6014	0.3614	-0.6059	-0.3749
2.04	-9.5561	0.1629	-0.0038	-0.0139	-0.0136	-0.0158	34.1867	-13.4274	13.3231	-0.6014	0.3614	-0.6059	-0.3749
2.05	-9.5630	0.1621	-0.0160	-0.0149	-0.0142	-0.0122	34.0602	-13.1696	13.4262	-0.6014	0.3614	-0.6058	-0.3749
2.06	-9.5419	0.1614	-0.0140	-0.0144	-0.0175	-0.0107	34.1336	-13.2860	13.4993	-0.6015	0.3614	-0.6058	-0.3750
2.07	-9.5174	0.1526	0.0011	-0.0143	-0.0259	-0.0145	33.9587	-13.2061	13.3839	-0.6015	0.3614	-0.6058	-0.3750
2.08	-9.5265	0.1535	0.0108	-0.0149	-0.0205	-0.0143	34.2374	-13.1594	13.3094	-0.6015	0.3614	-0.6057	-0.3751
2.09	-9.5388	0.1468	-0.0109	-0.0127	-0.0111	-0.0171	34.0095	-13.3183	13.5418	-0.6015	0.3614	-0.6057	-0.3751
2.1	-9.5315	0.1535	0.0028	-0.0069	-0.0169	-0.0118	34.1105	-13.1468	13.4670	-0.6016	0.3613	-0.6057	-0.3751
2.11	-9.5649	0.1794	0.0488	-0.0050	-0.0256	-0.0096	34.1921	-13.0611	13.4286	-0.6016	0.3613	-0.6056	-0.3752
2.12	-9.5231	0.2061	-0.0187	0.0004	-0.0175	-0.0119	34.0535	-13.2106	13.5284	-0.6017	0.3612	-0.6056	-0.3752
2.13	-9.5082	0.2108	0.0398	-0.0118	-0.0297	-0.0177	34.1426	-12.9911	13.4796	-0.6017	0.3612	-0.6056	-0.3752
2.14	-9.5280	0.2171	0.0490	-0.0111	-0.0121	-0.0265	33.9601	-13.0212	13.6137	-0.6018	0.3612	-0.6055	-0.3752
2.15	-9.5665	0.2008	0.0226	-0.0108	-0.0144	-0.0355	33.9277	-13.0731	13.4217	-0.6018	0.3612	-0.6055	-0.3752
2.16	-9.5613	0.1861	0.0391	-0.0010	-0.0216	-0.0253	33.8958	-13.3340	13.4049	-0.6019	0.3612	-0.6054	-0.3751
2.17	-9.5451	0.1981	0.0653	-0.0072	-0.0262	-0.0210	34.0275	-13.1706	13.4223	-0.6020	0.3612	-0.6053	-0.3751
2.18	-9.5490	0.2077	0.0628	-0.0124	-0.0168	-0.0097	34.2167	-13.3372	13.2722	-0.6020	0.3612	-0.6053	-0.3752
2.19	-9.5136	0.2374	0.0289	-0.0083	-0.0161	-0.0092	34.3821	-13.3909	13.4118	-0.6020	0.3611	-0.6053	-0.3752
2.2	-9.4863	0.2425	0.0503	-0.0176	-0.0205	-0.0109	34.5657	-13.3529	13.3428	-0.6020	0.3611	-0.6053	-0.3753
2.21	-9.4819	0.2253	0.0327	-0.0229	-0.0138	-0.0184	34.4536	-13.3998	13.3118	-0.6020	0.3611	-0.6052	-0.3753
2.22	-9.4627	0.2089	0.0091	-0.0291	-0.0081	-0.0246	34.2731	-13.4559	13.3338	-0.6020	0.3612	-0.6052	-0.3753
2.23	-9.4823	0.1818	0.0451	-0.0359	-0.0018	-0.0299	34.1528	-13.2951	13.3157	-0.6020	0.3613	-0.6051	-0.3754
2.24	-9.5071	0.1720	0.0351	-0.0314	0.0043	-0.0279	34.2080	-13.2058	13.3168	-0.6019	0.3615	-0.6051	-0.3754
2.25	-9.5120	0.1679	0.0311	-0.0352	-0.0056	-0.0284	34.1810	-13.0759	13.4335	-0.6019	0.3616	-0.6050	-0.3754
2.26	-9.5185	0.1651	0.0675	-0.0354	-0.0058	-0.0248	34.3514	-13.1673	13.3848	-0.6019	0.3617	-0.6049	-0.3755
2.27	-9.4910	0.1716	0.0532	-0.0380	0.0036	-0.0260	34.1082	-13.5163	13.4965	-0.6018	0.3618	-0.6049	-0.3755
2.28	-9.4818	0.1829	0.0536	-0.0335	0.0110	-0.0282	33.9126	-13.1466	13.6033	-0.6017	0.3620	-0.6049	-0.3755
2.29	-9.4567	0.1794	0.0222	-0.0425	0.0174	-0.0212	34.0251	-12.9918	13.5962	-0.6016	0.3621	-0.6049	-0.3755
2.3	-9.3993	0.1728	0.0058	-0.0597	0.0206	-0.0240	34.0542	-13.0260	13.5483	-0.6015	0.3623	-0.6049	-0.3756
2.31	-9.4897	0.1757	0.0514	-0.0574	0.0307	-0.0211	34.1425	-13.0949	13.3804	-0.6013	0.3626	-0.6049	-0.3757
2.32	-9.5617	0.1591	-0.0483	-0.0658	0.0390	-0.0262	33.9470	-13.1342	13.5397	-0.6011	0.3628	-0.6049	-0.3757
2.33	-9.5742	0.1277	-0.0374	-0.0637	0.0265	-0.0232	34.2720	-13.0596	13.6159	-0.6009	0.3631	-0.6049	-0.3758
2.34	-9.5984	0.1149	0.0175	-0.0648	0.0279	-0.0222	34.4694	-13.0089	13.5611	-0.6007	0.3633	-0.6049	-0.3759
2.35	-9.6349	0.0987	-0.0277	-0.0543	0.0248	-0.0127	34.4456	-12.8915	13.7271	-0.6005	0.3635	-0.6049	-0.3760
2.36	-9.6437	0.0963	-0.0383	-0.0456	0.0018	-0.0096	34.4435	-13.1135	13.2688	-0.6004	0.3636	-0.6049	-0.3761
2.37	-9.6247	0.0987	-0.0016	-0.0422	-0.0058	-0.0107	34.4713	-14.0801	13.3319	-0.6003	0.3637	-0.6048	-0.3762
2.38	-9.5951	0.0842	-0.0119	-0.0387	-0.0051	-0.0114	34.5178	-14.0790	13.3044	-0.6002	0.3638	-0.6048	-0.3763
2.39	-9.5888	0.0640	-0.0139	-0.0322	-0.0066	-0.0209	34.4066	-13.2687	13.3173	-0.6002	0.3639	-0.6047	-0.3764
2.4	-9.5639	0.0633	-0.0331	-0.0171	-0.0011	-0.0248	34.4504	-13.5922	13.2156	-0.6002	0.3640	-0.6047	-0.3763
2.41	-9.5522	0.0595	-0.0099	-0.0123	-0.0103	-0.0239	34.4111	-13.3624	13.0660	-0.6002	0.3640	-0.6047	-0.3763
2.42	-9.5584	0.0710	-0.0082	-0.0101	-0.0086	-0.0198	34.5387	-13.4406	13.1337	-0.6002	0.3640	-0.6047	-0.3763
2.43	-9.5614	0.0862	-0.0178	0.0022	-0.0089	-0.0234	34.3929	-13.2261	13.1003	-0.6003	0.3640	-0.6047	-0.3763
2.44	-9.5650	0.0983	-0.0080	0.0060	-0.0189	-0.0229	34.1327	-13.4725	13.2839	-0.6003	0.3639	-0.6047	-0.3762
2.45	-9.5483	0.1174	0.0009	0.0104	-0.0144	-0.0169	34.2618	-13.4038	13.3633	-0.6004	0.3639	-0.6047	-0.3762
2.46	-9.5453	0.1259	0.0215	0.0153	-0.0194	-0.0225	34.3303	-13.4228	13.4205	-0.6005	0.3638	-0.6047	-0.3761
2.47	-9.5479	0.1337	0.0083	0.0163	-0.0231	-0.0175	34.2660	-13.3060	13.4612	-0.6006	0.3637	-0.6047	-0.3760
2.48	-9.5574	0.1483	0.0237	0.0140	-0.0183	-0.0167	34.3922	-13.0301	13.0765	-0.6007	0.3636	-0.6047	-0.3760
2.49	-9.5653	0.1495	0.0139	0.0124	-0.0157	-0.0138	34.2354	-13.3686	13.2105	-0.6007	0.3635	-0.6047	-0.3760
2.5	-9.5530	0.1475	0.0069	0.0139	-0.0229	-0.0094	34.3696	-13.2673	13.1917	-0.6008	0.3634	-0.6047	-0.3759
2.51	-9.5545	0.1503	0.0181	0.0140	-0.0168	-0.0093	34.3375	-13.2104	13.3949	-0.6009	0.3633	-0.6047	-0.3759
2.52	-9.5749	0.1508	0.0081	0.0131	-0.0156	-0.0109	34.3457	-13.2359	13.2888	-0.6009	0.3632	-0.6048	-0.3759
2.53	-9.5858	0.1533	-0.0102	0.0031	-0.0200	-0.0070	34.3581	-13.1187	13.3949	-0.6010	0.3631	-0.6048	-0.3759
2.54	-9.5703	0.1557	-0.0010	0.0066	-0.0304	0.0001	34.1885	-13.2776	13.3529	-0.6010	0.3629	-0.6047	-0.3759
2.55	-9.5629	0.1637	0.0112	0.0042	-0.0333	-0.0048	34.4045	-13.3313	13.0281	-0.6011	0.3628	-0.6047	-0.3759
2.56	-9.5672	0.1694	0.0108	0.0121	-0.0322	-0.0039	34.4323	-13.2920	12.9885	-0.6012	0.3627	-0.6047	-0.3760
2.57	-9.5632	0.1742	0.0090	0.0144	-0.0381	-0.0074	34.5663	-13.3399	13.2748	-0.6013	0.3625	-0.6047	-0.3760
2.58	-9.5619	0.1807	0.0337	0.0159	-0.0448	-0.0107	34.4276	-13.4030	13.0951	-0.6015	0.3623	-0.6046	-0.3760
2.59	-9.5608	0.1914	0.0461	0.0146	-0.0480	-0.0057	34.2964	-13.4521	12.9716	-0.6016	0.3621	-0.6046	-0.3760
2.6	-9.4982	0.2221	0.0324	0.0153	-0.0492	-0.0058	34.4551	-13.6149	13.1444	-0.6018	0.3620	-0.6045	-0.3760
2.61	-9.5271	0.2330	0.0977	0.0142	-0.0451	-0.0102	34.4344	-13.1659	13.2143	-0.6020	0.3618	-0.6044	-0.3761
2.62	-9.5451	0.2186	0.0522	0.0133	-0.0364	-0.0100	34.4030	-13.1650	13.1744	-0.6021	0.3617	-0.6044	-0.3761
2.63	-9.5505	0.2040	0.0854	0.0160	-0.0451	-0.0091	34.2294	-13.3311	13.2975	-0.6022	0.3615	-0.6044	-0.3761
2.64	-9.5545	0.2053	0.1178	0.0148	-0.0385	-0.0098	34.3718	-13.2992	13.1913	-0.6023	0.3613	-0.6043	-0.3761
2.65	-9.5596	0.2133	0.0959	0.0159	-0.0427	-0.0072	34.4709	-13.3271	12.8923	-0.6025	0.3612	-0.6043	-0.3761
2.66	-9.5730	0.2280	0.1066	0.0146	-0.0315	0.0041	34.3510	-13.2855	13.0483	-0.6026	0.3610	-0.6043	-0.3761
2.67	-9.5209	0.2760	0.0783	0.0156	-0.0330	0.0154	34.3437	-13.4286	13.3243	-0.6026	0.3608	-0.6043	-0.3762
2.68	-9.4582	0.3200	0.0890	0.0166	-0.0348	0.0056	34.3374	-13.2402	13.2838	-0.6027	0.3606	-0.6043	-0.3762
2.69	-9.4417	0.3272	0.0767	0.0161	-0.0170	-0.0033	34.3697	-13.2707	13.0980	-0.6028	0.3604	-0.6043	-0.3762
2.7	-9.4473	0.3473	0.0386	0.0167	-0.0126	-0.0090	34.2444	-13.3290	13.1957	-0.6028	0.3603	-0.6044	-0.3762
2.71	-9.4528	0.3632	0.0393	0.0149	-0.0179	-0.0255	34.3675	-13.3084	13.1935	-0.6029	0.3602	-0.6044	-0.3761
2.72	-9.4917	0.3688	0.0647	0.0156	-0.0151	-0.0403	34.4443	-13.2992	13.2325	-0.6030	0.3602	-0.6044	-0.3759
2.73	-9.5279	0.3650	0.0541	0.0027	-0.0149	-0.0471	34.2269	-13.3663	13.0732	-0.6032	0.3602	-0.6043	-0.3758
2.74	-9.5167	0.3622	0.0561	-0.0010	-0.0249	-0.0481	34.3487	-13.5031	12.9662	-0.6033	0.3603	-0.6042	-0.3757
2.75	-9.5022	0.3560	0.0847	-0.0059	-0.0212	-0.0618	34.4541	-13.3794	13.3072	-0.6034	0.3604	-0.6041	-0.3756
2.76	-9.5015	0.3332	0.0730	-0.0217	-0.0131	-0.0621	34.4171	-13.3992	13.0489	-0.6035	0.3605	-0.6040	-0.3755
2.77	-9.4768	0.2977	0.0396	-0.0347	-0.0123	-0.0667	34.4585	-13.4179	13.0714	-0.6036	0.3607	-0.6038	-0.3754
2.78	-9.4515	0.2815	0.0520	-0.0353	-0.0104	-0.0608	34.3117	-13.2868	13.2269	-0.6036	0.3609	-0.6037	-0.3754
2.79	-9.5204	0.2676	0.0697	-0.0391	0.0066	-0.0606	34.3937	-13.0894	13.1883	-0.6036	0.3612	-0.6036	-0.3753
2.8	-9.5602	0.2246	0.0036	-0.0519	0.0125	-0.0606	34.4437	-13.1858	13.1696	-0.6036	0.3615	-0.6035	-0.3753
2.81	-9.5811	0.1739	0.0378	-0.0571	-0.0009	-0.0608	34.4415	-13.3464	12.9770	-0.6035	0.3618	-0.6034	-0.3753
2.82	-9.5890	0.1606	0.0508	-0.0626	0.0029	-0.0512	34.4097	-13.1599	13.0557	-0.6035	0.3620	-0.6032	-0.3753
2.83	-9.5947	0.1161	0.0324	-0.0628	-0.0044	-0.0457	34.5086	-13.1794	13.4268	-0.6034	0.3623	-0.6031	-0.3754
2.84	-9.5896	0.1107	0.0348	-0.0593	-0.0140	-0.0369	34.7596	-13.2118	13.2852	-0.6034	0.3625	-0.6029	-0.3755
2.85	-9.5926	0.1343	0.0464	-0.0614	-0.0168	-0.0364	35.0114	-12.6745	13.3729	-0.6034	0.3627	-0.6028	-0.3756
2.86	-9.5766	0.0829	0.0156	-0.0598	-0.0151	-0.0348	34.6023	-13.1885	13.4302	-0.6034	0.3629	-0.6026	-0.3757
2.87	-9.5575	0.0885	0.0331	-0.0415	-0.0186	-0.0354	34.3146	-13.8951	13.2145	-0.6034	0.3630	-0.6025	-0.3758
2.88	-9.5508	0.0784	0.0467	-0.0411	-0.0180	-0.0360	34.1892	-13.9547	13.1138	-0.6034	0.3631	-0.6023	-0.3758
2.89	-9.5391	0.0706	0.0382	-0.0363	-0.0192	-0.0358	34.3659	-13.1938	13.2216	-0.6034	0.3633	-0.6022	-0.3759
2.9	-9.5475	0.0750	0.0659	-0.0362	-0.0274	-0.0360	34.3789	-13.0004	13.2338	-0.6035	0.3634	-0.6021	-0.3759
2.91	-9.5573	0.0913	0.0681	-0.0185	-0.0297	-0.0360	34.0925	-12.9940	13.3531	-0.6035	0.3634	-0.6020	-0.3759
2.92	-9.5606	0.1088	0.0832	-0.0090	-0.0298	-0.0313	34.2591	-13.0287	13.0968	-0.6036	0.3634	-0.6019	-0.3759
2.93	-9.5522	0.1129	0.1033	-0.0116	-0.0320	-0.0350	34.3404	-13.0820	12.8753	-0.6037	0.3634	-0.6017	-0.3759
2.94	-9.5405	0.1237	0.1197	-0.0108	-0.0391	-0.0351	34.4668	-13.4167	13.0327	-0.6039	0.3634	-0.6016	-0.3759
2.95	-9.5319	0.1402	0.1286	-0.0148	-0.0376	-0.0367	34.2821	-13.3726	13.3207	-0.6040	0.3634	-0.6015	-0.3759
2.96	-9.5273	0.1250	0.1372	-0.0106	-0.0429	-0.0327	34.4681	-13.3668	13.3140	-0.6041	0.3634	-0.6013	-0.3759
2.97	-9.5341	0.1539	0.1630	-0.0122	-0.0387	-0.0263	34.4467	-13.2952	13.1398	-0.6042	0.3634	-0.6012	-0.3760
2.98	-9.5516	0.1629	0.1712	-0.0181	-0.0275	-0.0344	34.2424	-13.4446	12.9320	-0.6043	0.3634	-0.6011	-0.3760
2.99	-9.5557	0.1384	0.1517	-0.0129	-0.0335	-0.0273	34.5311	-13.1912	13.3734	-0.6044	0.3634	-0.6010	-0.3760
3	-9.5266	0.1447	0.1684	-0.0187	-0.0375	-0.0309	34.4961	-13.0852	13.1108	-0.6045	0.3634	-0.6009	-0.3761
3.01	-9.5142	0.1332	0.1877	-0.0241	-0.0353	-0.0288	34.4807	-13.3392	12.8777	-0.6046	0.3635	-0.6007	-0.3761
3.02	-9.5023	0.1267	0.1629	-0.0204	-0.0339	-0.0293	34.3001	-13.1185	13.0035	-0.6047	0.3635	-0.6006	-0.3762
3.03	-9.4979	0.1223	0.1787	-0.0248	-0.0366	-0.0296	34.3443	-13.1396	13.2612	-0.6048	0.3635	-0.6005	-0.3762
3.04	-9.4917	0.1068	0.2048	-0.0252	-0.0308	-0.0366	34.4161	-13.1721	13.1327	-0.6049	0.3636	-0.6003	-0.3763
3.05	-9.4843	0.1022	0.2026	-0.0196	-0.0313	-0.0357	34.2234	-12.9557	12.9838	-0.6050	0.3636	-0.6002	-0.3763
3.06	-9.4869	0.0929	0.2253	-0.0155	-0.0291	-0.0357	34.2977	-13.1609	13.0336	-0.6051	0.3636	-0.6001	-0.3763
3.07	-9.4811	0.0793	0.2229	-0.0105	-0.0250	-0.0395	34.5785	-12.9840	13.1453	-0.6052	0.3637	-0.6000	-0.3762
3.08	-9.5171	0.0721	0.2423	-0.0119	-0.0247	-0.0374	34.3861	-12.9155	13.0531	-0.6052	0.3637	-0.5999	-0.3762
3.09	-9.4770	0.0969	0.1976	-0.0136	-0.0220	-0.0351	34.3356	-12.7419	13.0298	-0.6053	0.3637	-0.5998	-0.3762
3.1	-9.4322	0.0844	0.2379	-0.0105	-0.0270	-0.0361	34.6566	-12.9490	12.8175	-0.6054	0.3638	-0.5997	-0.3762
3.11	-9.4911	0.1017	0.2596	-0.0071	-0.0107	-0.0347	34.5292	-13.2012	12.8770	-0.6055	0.3638	-0.5996	-0.3761
3.12	-9.5104	0.0969	0.1899	-0.0113	0.0037	-0.0364	34.5079	-13.1821	13.1573	-0.6055	0.3639	-0.5996	-0.3761
3.13	-9.5096	0.0661	0.2397	-0.0093	-0.0170	-0.0361	34.4697	-13.2971	13.0388	-0.6055	0.3639	-0.5996	-0.3760
3.14	-9.5022	0.0940	0.2462	-0.0035	0.0035	-0.0345	34.6527	-13.3842	12.8111	-0.6056	0.3640	-0.5996	-0.3759
3.15	-9.5495	0.0805	0.2316	-0.0041	0.0095	-0.0326	34.6167	-13.1135	13.0289	-0.6056	0.3640	-0.5996	-0.3758
3.16	-9.5351	0.1120	0.1968	-0.0001	0.0032	-0.0224	34.4266	-13.1209	12.9982	-0.6056	0.3640	-0.5996	-0.3758
3.17	-9.4806	0.1433	0.2022	-0.0058	0.0064	-0.0272	34.7276	-13.1174	13.1599	-0.6055	0.3641	-0.5997	-0.3757
3.18	-9.4673	0.1464	0.2066	-0.0020	0.0181	-0.0318	34.4170	-13.1128	12.9350	-0.6055	0.3641	-0.5997	-0.3756
3.19	-9.4713	0.1395	0.1693	-0.0080	0.0289	-0.0381	34.4209	-13.1368	13.0202	-0.6055	0.3643	-0.5998	-0.3755
3.2	-9.4842	0.1261	0.1514	-0.0090	0.0309	-0.0385	34.3944	-13.0445	12.9217	-0.6054	0.3644	-0.5999	-0.3753
3.21	-9.5065	0.1191	0.1584	-0.0109	0.0293	-0.0400	34.5350	-12.9274	13.0701	-0.6053	0.3645	-0.5999	-0.3752
3.22	-9.5454	0.1098	0.1460	-0.0093	0.0350	-0.0463	34.3216	-12.9353	13.0591	-0.6052	0.3647	-0.6000	-0.3750
3.23	-9.5588	0.1171	0.1234	-0.0127	0.0335	-0.0450	34.3942	-12.7777	13.1123	-0.6052	0.3649	-0.6001	-0.3749
3.24	-9.5304	0.1220	0.1397	-0.0136	0.0189	-0.0463	34.4167	-13.0898	13.3537	-0.6051	0.3650	-0.6001	-0.3748
3.25	-9.5324	0.1204	0.1463	-0.0166	0.0256	-0.0494	34.4279	-12.8414	13.0438	-0.6051	0.3652	-0.6001	-0.3746
3.26	-9.5362	0.1063	0.0957	-0.0227	0.0299	-0.0492	34.3612	-12.9740	13.1566	-0.6050	0.3654	-0.6002	-0.3745
3.27	-9.5026	0.1146	0.0877	-0.0183	0.0217	-0.0436	34.3127	-12.9858	13.0645	-0.6050	0.3655	-0.6002	-0.3744
3.28	-9.5382	0.1079	0.1257	-0.0269	0.0232	-0.0505	34.3184	-12.8441	13.3530	-0.6049	0.3657	-0.6002	-0.3743
3.29	-9.5729	0.0875	0.0730	-0.0386	0.0381	-0.0507	34.4871	-12.6860	13.0961	-0.6048	0.3660	-0.6002	-0.3742
3.3	-9.5832	0.0808	0.0771	-0.0358	0.0206	-0.0467	34.4781	-13.0040	13.2026	-0.6047	0.3662	-0.6002	-0.3741
3.31	-9.5898	0.0659	0.1076	-0.0320	0.0183	-0.0444	34.6207	-13.2615	13.1275	-0.6047	0.3664	-0.6002	-0.3741
3.32	-9.6024	0.0561	0.0701	-0.0343	0.0179	-0.0475	34.5290	-13.0747	13.1283	-0.6046	0.3666	-0.6001	-0.3740
3.33	-9.5919	0.0426	0.0676	-0.0378	0.0068	-0.0399	34.5974	-12.9692	13.0745	-0.6046	0.3668	-0.6001	-0.3740
3.34	-9.5698	0.0403	0.0878	-0.0346	0.0063	-0.0417	34.9606	-12.9916	13.3046	-0.6045	0.3670	-0.6000	-0.3740
3.35	-9.5572	0.0245	0.0788	-0.0371	0.0079	-0.0432	35.0468	-12.9186	13.7534	-0.6045	0.3672	-0.6000	-0.3739
3.36	-9.5402	-0.0037	0.0617	-0.0373	0.0086	-0.0486	34.8222	-13.0040	13.2501	-0.6044	0.3674	-0.5999	-0.3739
3.37	-9.5229	-0.0192	0.0610	-0.0358	0.0068	-0.0462	34.6532	-13.6870	13.1235	-0.6044	0.3676	-0.5998	-0.3739
3.38	-9.5170	-0.0321	0.0644	-0.0249	0.0112	-0.0414	34.6875	-13.5998	13.2424	-0.6044	0.3677	-0.5998	-0.3738
3.39	-9.5343	-0.0447	0.0604	-0.0251	0.0086	-0.0401	34.5787	-13.0006	13.1736	-0.6043	0.3679	-0.5998	-0.3738
3.4	-9.5347	-0.0468	0.0523	-0.0120	0.0143	-0.0391	34.4435	-12.8541	13.1162	-0.6043	0.3680	-0.5998	-0.3737
3.41	-9.5279	-0.0379	0.0576	-0.0093	0.0151	-0.0346	34.4641	-12.9080	13.0434	-0.6043	0.3681	-0.5998	-0.3736
3.42	-9.5260	-0.0326	0.0687	-0.0012	0.0128	-0.0345	34.6207	-12.9960	13.0016	-0.6043	0.3681	-0.5999	-0.3735
3.43	-9.5362	-0.0164	0.0635	-0.0002	0.0132	-0.0346	34.5955	-12.8752	13.2792	-0.6043	0.3682	-0.5999	-0.3733
3.44	-9.5365	-0.0081	0.0615	-0.0059	0.0061	-0.0344	34.5924	-12.9946	13.3029	-0.6043	0.3683	-0.5999	-0.3733
3.45	-9.5236	-0.0010	0.0718	-0.0019	0.0118	-0.0336	34.6242	-12.9933	13.3017	-0.6043	0.3683	-0.6000	-0.3732
3.46	-9.5239	0.0159	0.0746	0.0022	0.0094	-0.0347	34.4641	-12.7297	13.2012	-0.6043	0.3684	-0.6000	-0.3730
3.47	-9.5105	0.0142	0.0596	0.0006	0.0123	-0.0343	34.5923	-12.7750	13.0300	-0.6043	0.3684	-0.6001	-0.3729
3.48	-9.4948	0.0190	0.0663	0.0061	0.0033	-0.0342	34.5204	-12.7037	13.0645	-0.6043	0.3684	-0.6001	-0.3728
3.49	-9.5134	0.0268	0.0753	0.0048	0.0225	-0.0347	34.6026	-12.8993	13.2165	-0.6043	0.3685	-0.6002	-0.3727
3.5	-9.5423	0.0336	0.0508	-0.0066	0.0245	-0.0284	34.6839	-12.9344	13.2165	-0.6042	0.3686	-0.6002	-0.3726
3.51	-9.5534	0.0438	0.0446	-0.0031	0.0210	-0.0312	34.5850	-12.8044	13.1573	-0.6042	0.3686	-0.6003	-0.3724
3.52	-9.5590	0.0493	0.0482	-0.0105	0.0183	-0.0357	34.5692	-13.1520	13.0844	-0.6041	0.3687	-0.6004	-0.3723
3.53	-9.5807	0.0430	0.0405	-0.0106	0.0277	-0.0337	34.8391	-12.8073	13.2298	-0.6041	0.3689	-0.6004	-0.3722
3.54	-9.5856	0.0351	0.0227	-0.0115	0.0230	-0.0353	34.6782	-12.8248	13.3236	-0.6040	0.3690	-0.6005	-0.3721
3.55	-9.5796	0.0291	0.0257	-0.0131	0.0156	-0.0328	34.6338	-12.9206	13.2382	-0.6039	0.3691	-0.6005	-0.3721
3.56	-9.5671	0.0266	0.0394	-0.0093	0.0069	-0.0306	34.7122	-12.7728	13.1605	-0.6039	0.3691	-0.6005	-0.3720
3.57	-9.5791	0.0180	0.0502	-0.0268	0.0020	-0.0340	34.5947	-12.9199	13.4767	-0.6039	0.3692	-0.6005	-0.3720
3.58	-9.5792	0.0108	0.0398	-0.0343	0.0027	-0.0333	34.7011	-12.9766	13.2658	-0.6039	0.3694	-0.6004	-0.3720
3.59	-9.5917	-0.0003	0.0632	-0.0331	-0.0040	-0.0356	34.4790	-12.7162	13.1851	-0.6038	0.3695	-0.6004	-0.3720
3.6	-9.5546	-0.0111	0.0480	-0.0373	0.0005	-0.0284	34.6184	-12.6163	13.1895	-0.6038	0.3696	-0.6003	-0.3720
3.61	-9.5409	-0.0087	0.0712	-0.0363	-0.0094	-0.0313	34.4849	-12.6070	13.2377	-0.6038	0.3698	-0.6002	-0.3721
3.62	-9.5708	-0.0122	0.0757	-0.0405	0.0030	-0.0249	34.7280	-12.6657	13.2741	-0.6037	0.3699	-0.6002	-0.3721
3.63	-9.5524	-0.0380	0.0416	-0.0400	-0.0004	-0.0297	34.5242	-12.7910	13.0788	-0.6037	0.3700	-0.6001	-0.3722
3.64	-9.5323	-0.0555	0.0922	-0.0452	-0.0104	-0.0274	34.4858	-12.9188	13.2315	-0.6036	0.3701	-0.6000	-0.3722
3.65	-9.5450	-0.0546	0.0887	-0.0470	-0.0075	-0.0252	34.5513	-12.6807	13.1809	-0.6036	0.3703	-0.6000	-0.3723
3.66	-9.5742	-0.0650	0.0766	-0.0476	0.0020	-0.0154	34.4194	-12.8541	12.9875	-0.6035	0.3704	-0.5999	-0.3724
3.67	-9.5542	-0.0517	0.0721	-0.0412	-0.0014	-0.0089	34.4195	-12.9008	13.1392	-0.6034	0.3705	-0.5999	-0.3725
3.68	-9.5029	-0.0169	0.0684	-0.0415	-0.0048	-0.0109	34.8760	-12.7695	13.3025	-0.6033	0.3706	-0.5998	-0.3727
3.69	-9.4648	-0.0373	0.0645	-0.0495	0.0049	-0.0088	34.6931	-12.9716	13.3652	-0.6032	0.3707	-0.5998	-0.3728
3.7	-9.4746	-0.0381	0.0498	-0.0562	0.0170	-0.0108	34.6886	-12.9710	13.3378	-0.6031	0.3708	-0.5998	-0.3729
3.71	-9.5023	-0.0365	0.0198	-0.0550	0.0255	-0.0090	34.5982	-12.9668	13.0843	-0.6029	0.3710	-0.5998	-0.3730
3.72	-9.5312	-0.0686	0.0222	-0.0506	0.0218	-0.0117	34.8505	-12.8507	13.1023	-0.6027	0.3711	-0.5998	-0.3731
3.73	-9.5715	-0.0597	0.0376	-0.0372	0.0196	-0.0116	34.4406	-12.9168	13.1880	-0.6026	0.3713	-0.5999	-0.3732
3.74	-9.5952	-0.0680	0.0138	-0.0386	0.0087	-0.0117	34.4047	-12.7740	13.1934	-0.6024	0.3714	-0.5999	-0.3732
3.75	-9.5794	-0.0726	0.0129	-0.0378	-0.0030	-0.0167	34.5460	-12.9287	13.2430	-0.6024	0.3714	-0.5998	-0.3733
3.76	-9.5538	-0.0764	0.0351	-0.0350	-0.0054	-0.0132	34.4771	-12.8138	13.2662	-0.6023	0.3715	-0.5998	-0.3734
3.77	-9.5319	-0.0839	0.0260	-0.0313	-0.0050	-0.0167	34.6017	-12.8053	13.1671	-0.6023	0.3716	-0.5998	-0.3735
3.78	-9.5099	-0.0828	0.0132	-0.0387	0.0050	-0.0101	34.5995	-12.6795	13.3123	-0.6022	0.3717	-0.5998	-0.3736
3.79	-9.5242	-0.0768	0.0317	-0.0267	0.0123	-0.0096	34.6086	-12.7599	13.1633	-0.6021	0.3717	-0.5998	-0.3736
3.8	-9.5566	-0.0766	0.0110	-0.0197	0.0103	-0.0093	34.5845	-12.9667	13.2372	-0.6020	0.3718	-0.5998	-0.3736
3.81	-9.5574	-0.0815	0.0109	-0.0199	0.0075	-0.0100	34.6288	-12.6669	13.0987	-0.6019	0.3718	-0.5999	-0.3737
3.82	-9.5644	-0.0790	0.0334	-0.0099	0.0039	-0.0040	34.5536	-12.8474	13.2154	-0.6019	0.3718	-0.5999	-0.3737
3.83	-9.5631	-0.0827	0.0076	-0.0106	0.0108	-0.0033	34.5536	-12.7151	13.2170	-0.6018	0.3718	-0.6000	-0.3737
3.84	-9.5523	-0.0779	0.0083	-0.0114	-0.0002	0.0020	34.9104	-12.7877	13.4058	-0.6017	0.3717	-0.6001	-0.3737
3.85	-9.5418	-0.0573	0.0316	-0.0060	-0.0047	0.0150	35.2000	-12.5668	13.3697	-0.6017	0.3716	-0.6001	-0.3738
3.86	-9.5229	-0.0453	0.0102	0.0045	0.0002	0.0145	34.8292	-12.9111	13.2845	-0.6016	0.3715	-0.6002	-0.3739
3.87	-9.5259	-0.0485	0.0193	0.0089	-0.0005	0.0147	34.8227	-13.8020	13.1266	-0.6016	0.3713	-0.6003	-0.3739
3.88	-9.5304	-0.0322	0.0192	0.0081	-0.0004	0.0125	34.7005	-13.7398	13.2185	-0.6015	0.3712	-0.6004	-0.3739
3.89	-9.5248	-0.0225	0.0042	0.0151	0.0036	0.0133	34.3311	-12.9890	13.2299	-0.6015	0.3711	-0.6006	-0.3739
3.9	-9.5353	-0.0134	0.0041	0.0146	0.0081	0.0137	34.5822	-12.9615	13.4123	-0.6014	0.3709	-0.6007	-0.3739
3.91	-9.5423	0.0120	0.0203	0.0147	0.0099	0.0175	34.3776	-12.9571	13.3472	-0.6014	0.3708	-0.6009	-0.3739
3.92	-9.5526	0.0358	-0.0040	0.0157	0.0137	0.0160	34.4333	-13.0323	13.1611	-0.6013	0.3706	-0.6010	-0.3739
3.93	-9.5633	0.0702	-0.0059	0.0171	0.0071	0.0177	34.3589	-12.9924	13.2754	-0.6012	0.3705	-0.6012	-0.3739
3.94	-9.5561	0.0912	0.0056	0.0150	0.0060	0.0193	34.3319	-13.0002	13.3733	-0.6012	0.3703	-0.6014	-0.3739
3.95	-9.5469	0.1052	0.0086	0.0145	-0.0044	0.0168	34.5232	-13.0766	13.5095	-0.6012	0.3701	-0.6015	-0.3740
3.96	-9.5409	0.1144	0.0108	0.0134	-0.0052	0.0169	34.3799	-13.0188	13.3427	-0.6011	0.3699	-0.6016	-0.3740
3.97	-9.5154	0.1179	0.0237	0.0091	-0.0037	0.0037	34.2827	-12.8238	13.3542	-0.6011	0.3698	-0.6017	-0.3740
3.98	-9.5138	0.1077	0.0390	0.0092	-0.0023	0.0034	34.3910	-12.6826	13.4316	-0.6011	0.3697	-0.6017	-0.3740
3.99	-9.5168	0.0941	0.0293	0.0075	0.0028	0.0017	34.4278	-12.9290	13.4631	-0.6011	0.3696	-0.6018	-0.3740
4	-9.5170	0.0895	0.0317	0.0053	0.0077	-0.0083	34.1579	-13.0289	13.3637	-0.6010	0.3696	-0.6019	-0.3740
4.01	-9.5166	0.0776	0.0340	0.0050	0.0016	-0.0071	34.1502	-12.8069	13.4942	-0.6010	0.3695	-0.6020	-0.3739
4.02	-9.5354	0.0758	0.0348	0.0048	0.0006	-0.0039	34.3655	-12.9287	13.3913	-0.6010	0.3694	-0.6021	-0.3739
4.03	-9.5486	0.0746	0.0346	0.0079	0.0032	-0.0039	34.0825	-12.7991	13.2163	-0.6010	0.3693	-0.6022	-0.3739
4.04	-9.5379	0.0780	0.0318	0.0142	0.0100	-0.0067	34.0861	-13.0229	13.5004	-0.6010	0.3693	-0.6023	-0.3738
4.05	-9.5277	0.0856	0.0350	0.0145	0.0027	-0.0036	34.5444	-13.0699	13.2610	-0.6010	0.3692	-0.6024	-0.3738
4.06	-9.5358	0.0933	0.0370	0.0154	0.0064	-0.0103	34.3665	-12.9554	13.1543	-0.6010	0.3691	-0.6025	-0.3737
4.07	-9.5489	0.1079	0.0265	0.0147	0.0064	-0.0081	34.5563	-13.1569	13.1791	-0.6010	0.3690	-0.6026	-0.3737
4.08	-9.5448	0.1189	0.0106	0.0176	0.0141	-0.0092	34.5456	-13.0051	13.2624	-0.6009	0.3689	-0.6027	-0.3736
4.09	-9.5345	0.1291	0.0138	0.0181	0.0107	-0.0071	34.4431	-13.0643	13.4273	-0.6009	0.3688	-0.6028	-0.3735
4.1	-9.5419	0.1513	0.0279	0.0159	0.0071	-0.0090	34.1714	-13.1934	13.3304	-0.6009	0.3688	-0.6029	-0.3734
4.11	-9.5535	0.1818	0.0234	0.0151	0.0089	-0.0085	34.1877	-13.1907	13.2923	-0.6009	0.3687	-0.6030	-0.3733
4.12	-9.5379	0.1741	0.0259	0.0155	-0.0091	-0.0098	34.5538	-13.1271	13.6348	-0.6009	0.3686	-0.6031	-0.3733
4.13	-9.5257	0.1621	0.0445	0.0148	-0.0072	-0.0067	34.3817	-13.0651	13.2661	-0.6010	0.3685	-0.6031	-0.3732
4.14	-9.4805	0.2175	0.0385	0.0049	-0.0008	-0.0053	34.5131	-13.1196	13.2916	-0.6009	0.3684	-0.6032	-0.3732
4.15	-9.5250	0.2012	0.0706	-0.0081	0.0011	-0.0105	34.1942	-13.0486	13.3882	-0.6009	0.3684	-0.6032	-0.3732
4.16	-9.5315	0.1920	0.0298	-0.0119	0.0154	-0.0088	34.3065	-12.9485	13.3737	-0.6008	0.3684	-0.6033	-0.3732
4.17	-9.5022	0.1684	0.0493	-0.0110	0.0005	-0.0108	34.3321	-12.7893	13.2580	-0.6008	0.3684	-0.6033	-0.3732
4.18	-9.4994	0.1645	0.0888	-0.0144	0.0098	-0.0145	34.0644	-13.0062	13.2982	-0.6007	0.3684	-0.6034	-0.3732
4.19	-9.5502	0.1747	0.0698	-0.0223	0.0159	-0.0098	34.0499	-13.1030	13.5851	-0.6007	0.3685	-0.6034	-0.3733
4.2	-9.5772	0.1648	0.0265	-0.0190	0.0135	-0.0100	34.0247	-13.1712	13.4718	-0.6006	0.3685	-0.6035	-0.3733
4.21	-9.5392	0.1956	0.0278	-0.0248	0.0081	-0.0092	34.2598	-13.0912	13.3421	-0.6005	0.3685	-0.6035	-0.3733
4.22	-9.4725	0.1883	0.0336	-0.0213	0.0080	-0.0095	34.3385	-12.8239	13.6785	-0.6004	0.3686	-0.6036	-0.3734
4.23	-9.4558	0.1804	0.0211	-0.0171	0.0279	-0.0108	34.2901	-13.0698	13.2852	-0.6003	0.3686	-0.6037	-0.3734
4.24	-9.4793	0.1717	-0.0144	-0.0143	0.0340	-0.0141	34.4089	-13.1795	13.3719	-0.6001	0.3687	-0.6038	-0.3733
4.25	-9.4998	0.1429	-0.0251	-0.0319	0.0292	-0.0110	34.5121	-13.1978	13.4628	-0.6000	0.3688	-0.6038	-0.3733
4.26	-9.5310	0.1210	-0.0162	-0.0300	0.0389	-0.0223	34.3049	-13.1184	13.5312	-0.5998	0.3690	-0.6039	-0.3733
4.27	-9.5886	0.1385	-0.0264	-0.0223	0.0341	-0.0202	34.3803	-13.1287	13.4765	-0.5997	0.3691	-0.6040	-0.3733
4.28	-9.6100	0.1137	-0.0439	-0.0345	0.0304	-0.0233	34.5170	-13.3187	13.5753	-0.5995	0.3692	-0.6041	-0.3732
4.29	-9.5982	0.1218	-0.0379	-0.0225	0.0136	-0.0217	34.3398	-13.0729	13.3731	-0.5994	0.3693	-0.6041	-0.3732
4.3	-9.5892	0.1434	-0.0267	-0.0129	0.0075	-0.0202	34.3100	-13.1979	13.4809	-0.5994	0.3694	-0.6041	-0.3732
4.31	-9.5652	0.1189	-0.0556	-0.0182	0.0128	-0.0224	34.2561	-13.3956	13.6151	-0.5994	0.3694	-0.6042	-0.3732
4.32	-9.5499	0.1219	-0.0333	-0.0184	0.0070	-0.0241	34.0637	-13.1232	13.3971	-0.5993	0.3695	-0.6042	-0.3732
4.33	-9.5729	0.1126	-0.0214	-0.0256	0.0064	-0.0237	34.4321	-13.0613	13.7074	-0.5993	0.3696	-0.6042	-0.3732
4.34	-9.5976	0.0919	-0.0447	-0.0210	0.0153	-0.0234	34.7535	-12.9204	13.7301	-0.5992	0.3697	-0.6042	-0.3732
4.35	-9.5912	0.0735	-0.0336	-0.0181	0.0024	-0.0251	34.8910	-12.6769	13.8395	-0.5992	0.3697	-0.6042	-0.3732
4.36	-9.5893	0.0720	-0.0219	-0.0138	0.0005	-0.0220	34.3374	-13.1427	13.7867	-0.5991	0.3698	-0.6042	-0.3732
4.37	-9.5534	0.0886	-0.0536	-0.0085	-0.0082	-0.0102	34.4539	-13.9360	13.5549	-0.5991	0.3697	-0.6042	-0.3732
4.38	-9.5737	0.0821	-0.0023	-0.0118	-0.0128	-0.0102	34.3374	-13.9015	13.2584	-0.5991	0.3697	-0.6042	-0.3732
4.39	-9.5041	0.0940	-0.0363	-0.0109	-0.0013	-0.0094	34.2345	-13.0062	13.7162	-0.5991	0.3697	-0.6042	-0.3732
4.4	-9.5421	0.1116	-0.0116	-0.0057	-0.0069	-0.0102	34.3393	-13.1935	13.5584	-0.5991	0.3697	-0.6043	-0.3733
4.41	-9.5312	0.1090	-0.0397	-0.0077	-0.0097	-0.0097	34.1949	-13.1223	13.3462	-0.5991	0.3696	-0.6043	-0.3733
4.42	-9.5284	0.1074	-0.0225	0.0005	-0.0185	-0.0089	34.3445	-13.1446	13.4542	-0.5991	0.3695	-0.6042	-0.3733
4.43	-9.5346	0.1146	-0.0075	0.0065	-0.0083	-0.0087	34.4767	-13.2738	13.2617	-0.5992	0.3694	-0.6043	-0.3733
4.44	-9.5396	0.1031	-0.0244	0.0098	-0.0069	-0.0094	34.4746	-13.3266	13.2143	-0.5992	0.3694	-0.6043	-0.3733
4.45	-9.5282	0.1385	-0.0259	0.0118	-0.0104	-0.0093	34.3927	-13.3412	13.3063	-0.5992	0.3693	-0.6044	-0.3732
4.46	-9.5552	0.1154	0.0075	0.0029	-0.0097	-0.0099	34.5327	-13.0944	13.4375	-0.5992	0.3692	-0.6044	-0.3732
4.47	-9.5225	0.1482	-0.0170	0.0104	0.0006	-0.0084	34.3832	-13.0694	13.3900	-0.5993	0.3691	-0.6045	-0.3732
4.48	-9.5211	0.1568	-0.0102	-0.0007	-0.0110	-0.0097	34.4570	-13.2095	13.4521	-0.5993	0.3690	-0.6045	-0.3732
4.49	-9.5086	0.1477	-0.0009	0.0045	-0.0141	-0.0164	34.3291	-13.3514	13.2170	-0.5993	0.3690	-0.6045	-0.3732
4.5	-9.5010	0.1736	0.0084	0.0062	-0.0038	-0.0172	34.1077	-13.0526	13.3450	-0.5993	0.3689	-0.6045	-0.3731
4.51	-9.5069	0.1370	0.0139	-0.0090	-0.0010	-0.0213	34.5550	-12.9818	13.2844	-0.5993	0.3689	-0.6045	-0.3731
4.52	-9.4889	0.1247	0.0062	-0.0060	0.0025	-0.0183	34.2973	-13.3910	13.4284	-0.5993	0.3689	-0.6046	-0.3731
4.53	-9.5014	0.1333	0.0312	-0.0053	0.0093	-0.0202	34.0176	-13.0789	13.2984	-0.5993	0.3689	-0.6046	-0.3730
4.54	-9.4759	0.1037	0.0218	-0.0070	0.0142	-0.0183	34.2297	-13.0959	13.3445	-0.5992	0.3690	-0.6047	-0.3730
4.55	-9.4665	0.0973	0.0177	-0.0056	0.0221	-0.0121	34.4822	-13.1403	13.4765	-0.5992	0.3690	-0.6048	-0.3730
4.56	-9.4831	0.1053	0.0021	-0.0067	0.0220	-0.0182	34.5399	-13.2271	13.6168	-0.5991	0.3690	-0.6049	-0.3729
4.57	-9.5184	0.0994	-0.0201	-0.0113	0.0327	-0.0090	34.3838	-13.2197	13.5730	-0.5990	0.3691	-0.6050	-0.3729
4.58	-9.5449	0.1149	-0.0252	0.0010	0.0295	-0.0117	34.6187	-13.1101	13.5025	-0.5989	0.3691	-0.6051	-0.3728
4.59	-9.5658	0.1056	-0.0354	-0.0082	0.0241	-0.0169	34.2542	-13.1591	13.7251	-0.5988	0.3691	-0.6052	-0.3727
4.6	-9.5840	0.1118	-0.0499	0.0126	0.0241	-0.0121	34.2468	-13.1244	13.5683	-0.5987	0.3691	-0.6054	-0.3726
4.61	-9.5786	0.1278	-0.0514	0.0044	0.0159	-0.0104	34.3432	-13.2835	13.6277	-0.5987	0.3691	-0.6055	-0.3726
4.62	-9.5769	0.1172	-0.0602	0.0072	0.0127	-0.0110	34.3812	-13.1393	13.5302	-0.5986	0.3690	-0.6056	-0.3725
4.63	-9.5788	0.1310	-0.0623	0.0074	0.0134	-0.0084	34.4464	-13.2122	13.4997	-0.5986	0.3690	-0.6057	-0.3725
4.64	-9.5698	0.1392	-0.0791	0.0061	0.0101	-0.0139	34.4089	-13.3437	13.4085	-0.5986	0.3690	-0.6058	-0.3724
4.65	-9.5500	0.1437	-0.0708	0.0079	0.0038	-0.0104	34.4330	-13.3031	13.4206	-0.5985	0.3689	-0.6058	-0.3723
4.66	-9.5552	0.1598	-0.0435	0.0115	0.0027	-0.0121	34.3907	-13.3305	13.4047	-0.5985	0.3688	-0.6059	-0.3723
4.67	-9.5856	0.1645	-0.0615	0.0018	0.0024	-0.0163	34.0992	-13.3111	13.5092	-0.5985	0.3688	-0.6060	-0.3722
4.68	-9.5856	0.1679	-0.0680	-0.0075	-0.0102	-0.0088	34.3466	-13.2137	13.5110	-0.5985	0.3687	-0.6060	-0.3723
4.69	-9.5285	0.1758	-0.0407	-0.0007	-0.0177	-0.0156	34.4007	-13.2531	13.4980	-0.5986	0.3687	-0.6060	-0.3723
4.7	-9.5180	0.1823	-0.0073	-0.0048	-0.0087	-0.0147	34.2913	-13.4504	13.5322	-0.5986	0.3686	-0.6060	-0.3723
4.71	-9.5747	0.1760	-0.0384	-0.0131	0.0023	-0.0149	34.4589	-13.2564	13.3785	-0.5986	0.3687	-0.6060	-0.3723
4.72	-9.5535	0.1551	-0.0802	-0.0181	-0.0120	-0.0194	34.2531	-13.1501	13.6079	-0.5986	0.3687	-0.6059	-0.3723
4.73	-9.5091	0.1269	-0.0170	-0.0114	-0.0180	-0.0195	34.0296	-13.2606	13.5071	-0.5986	0.3687	-0.6059	-0.3724
4.74	-9.5481	0.1328	0.0082	-0.0080	0.0027	-0.0212	34.2511	-13.2245	13.5986	-0.5986	0.3687	-0.6059	-0.3723
4.75	-9.5995	0.1268	-0.0411	-0.0117	0.0071	-0.0198	34.3549	-13.2146	13.6950	-0.5986	0.3687	-0.6059	-0.3723
4.76	-9.5783	0.1321	-0.0396	-0.0091	-0.0070	-0.0140	34.3183	-12.9441	13.5519	-0.5986	0.3687	-0.6060	-0.3723
4.77	-9.5098	0.1532	-0.0204	-0.0115	-0.0139	-0.0121	34.0676	-13.0222	13.6224	-0.5986	0.3686	-0.6059	-0.3724
4.78	-9.4649	0.1488	-0.0364	-0.0127	-0.0023	-0.0122	34.0684	-13.2781	13.4829	-0.5986	0.3686	-0.6059	-0.3724
4.79	-9.4824	0.1504	-0.0469	-0.0125	0.0029	-0.0126	34.1787	-13.1750	13.5146	-0.5985	0.3686	-0.6060	-0.3724
4.8	-9.5120	0.1479	-0.0731	-0.0108	0.0092	-0.0154	34.1654	-13.1699	13.4977	-0.5985	0.3687	-0.6060	-0.3724
4.81	-9.5249	0.1303	-0.0704	-0.0155	0.0119	-0.0181	34.4638	-13.3502	13.5145	-0.5984	0.3687	-0.6061	-0.3724
4.82	-9.5646	0.1246	-0.0543	-0.0129	0.0002	-0.0218	34.2810	-13.1901	13.5002	-0.5984	0.3687	-0.6061	-0.3724
4.83	-9.5956	0.1424	-0.0715	-0.0118	0.0052	-0.0196	34.2656	-13.2701	13.6812	-0.5984	0.3688	-0.6061	-0.3723
4.84	-9.5877	0.1446	-0.0648	-0.0117	-0.0056	-0.0235	34.7153	-13.1133	13.6772	-0.5984	0.3688	-0.6061	-0.3723
4.85	-9.5677	0.1533	-0.0498	-0.0096	-0.0236	-0.0146	35.1983	-12.6821	13.7946	-0.5985	0.3687	-0.6061	-0.3723
4.86	-9.5579	0.1485	-0.0511	-0.0129	-0.0065	-0.0242	34.6014	-12.9442	13.6763	-0.5985	0.3687	-0.6061	-0.3723
4.87	-9.5569	0.1242	-0.0722	-0.0141	-0.0059	-0.0179	34.2097	-13.9050	13.4258	-0.5985	0.3687	-0.6060	-0.3723
4.88	-9.5517	0.1459	-0.0492	-0.0138	-0.0151	-0.0171	34.2579	-13.8193	13.4646	-0.5985	0.3687	-0.6060	-0.3723
4.89	-9.5711	0.1051	-0.0323	-0.0169	-0.0045	-0.0179	34.2100	-12.8327	13.4714	-0.5985	0.3687	-0.6060	-0.3724
4.9	-9.5833	0.1000	-0.0496	-0.0134	-0.0083	-0.0205	34.1960	-13.0507	13.5923	-0.5985	0.3687	-0.6060	-0.3724
4.91	-9.5646	0.1052	-0.0431	-0.0125	-0.0161	-0.0217	34.0546	-12.9393	13.4764	-0.5985	0.3687	-0.6059	-0.3724
4.92	-9.5506	0.0773	-0.0234	-0.0112	-0.0214	-0.0160	34.2119	-12.9477	13.4390	-0.5986	0.3687	-0.6059	-0.3724
4.93	-9.5542	0.0989	-0.0111	0.0011	-0.0180	-0.0120	34.0736	-13.1375	13.4983	-0.5986	0.3686	-0.6059	-0.3725
4.94	-9.5432	0.1169	-0.0178	-0.0087	-0.0178	-0.0096	34.2218	-12.9665	13.3809	-0.5986	0.3685	-0.6059	-0.3725
4.95	-9.5153	0.1375	-0.0037	-0.0071	-0.0246	-0.0105	34.1110	-13.1406	13.4348	-0.5987	0.3685	-0.6058	-0.3726
4.96	-9.5090	0.1504	0.0154	-0.0033	-0.0179	-0.0098	33.9826	-13.0070	13.5841	-0.5987	0.3684	-0.6058	-0.3726
4.97	-9.5032	0.1508	-0.0021	-0.0064	-0.0140	-0.0102	34.3331	-12.9006	13.3906	-0.5987	0.3683	-0.6058	-0.3726
4.98	-9.4991	0.1537	0.0046	0.0030	-0.0199	-0.0099	34.0191	-13.0338	13.5787	-0.5988	0.3682	-0.6058	-0.3726
4.99	-9.4904	0.1522	0.0246	0.0043	-0.0123	-0.0099	34.1761	-13.4094	13.4454	-0.5988	0.3681	-0.6058	-0.3726
5	-9.5028	0.1542	0.0210	0.0119	-0.0101	-0.0095	34.3936	-13.3655	13.6274	-0.5989	0.3680	-0.6059	-0.3726
5.01	-9.5042	0.1717	0.0140	0.0037	-0.0083	-0.0108	34.4287	-13.3875	13.6179	-0.5989	0.3680	-0.6059	-0.3726
5.02	-9.5023	0.1801	0.0278	-0.0029	-0.0069	-0.0141	34.5119	-13.3193	13.5400	-0.5989	0.3679	-0.6059	-0.3726
5.03	-9.5003	0.1891	0.0343	0.0018	-0.0036	-0.0190	34.3642	-13.1604	13.5699	-0.5989	0.3679	-0.6059	-0.3726
5.04	-9.5080	0.1890	0.0186	-0.0024	0.0062	-0.0164	33.8947	-13.2606	13.5561	-0.5989	0.3679	-0.6060	-0.3725
5.05	-9.5120	0.1909	0.0166	0.0035	0.0030	-0.0141	34.2143	-13.2640	13.5541	-0.5989	0.3678	-0.6060	-0.3725
5.06	-9.5072	0.1984	0.0163	0.0010	-0.0039	-0.0165	34.2564	-13.0727	13.5789	-0.5989	0.3678	-0.6061	-0.3725
5.07	-9.5097	0.1916	0.0122	-0.0106	0.0050	-0.0158	34.1896	-13.3587	13.4131	-0.5989	0.3678	-0.6061	-0.3725
5.08	-9.5133	0.1934	0.0109	-0.0063	0.0044	-0.0177	34.5116	-13.2099	13.4119	-0.5988	0.3678	-0.6061	-0.3724
5.09	-9.5299	0.1873	0.0028	-0.0098	0.0110	-0.0221	34.1172	-13.2287	13.4914	-0.5988	0.3678	-0.6062	-0.3724
5.1	-9.5447	0.1868	-0.0049	-0.0132	0.0135	-0.0197	34.2818	-12.9967	13.4436	-0.5987	0.3679	-0.6062	-0.3724
5.11	-9.5601	0.1853	-0.0130	-0.0099	0.0115	-0.0212	34.2419	-13.0600	13.7341	-0.5987	0.3679	-0.6063	-0.3723
5.12	-9.5646	0.1801	-0.0195	-0.0108	0.0060	-0.0237	34.2704	-13.1289	13.7310	-0.5987	0.3680	-0.6063	-0.3723
5.13	-9.5537	0.1693	-0.0115	-0.0139	0.0033	-0.0191	34.1863	-13.1091	13.8107	-0.5986	0.3680	-0.6063	-0.3723
5.14	-9.5611	0.1674	-0.0029	-0.0110	0.0075	-0.0237	34.0304	-13.1022	13.9753	-0.5986	0.3680	-0.6063	-0.3723
5.15	-9.5477	0.1648	-0.0144	-0.0110	0.0034	-0.0235	34.1504	-13.1502	13.5400	-0.5986	0.3681	-0.6063	-0.3723
5.16	-9.5297	0.1610	-0.0046	-0.0087	0.0027	-0.0200	34.1076	-13.2366	13.7226	-0.5986	0.3681	-0.6064	-0.3722
5.17	-9.5137	0.1611	0.0001	-0.0129	-0.0020	-0.0187	34.0465	-13.0919	13.6580	-0.5986	0.3681	-0.6064	-0.3722
5.18	-9.5126	0.1682	0.0022	-0.0087	0.0069	-0.0187	34.3396	-13.2441	13.4251	-0.5985	0.3681	-0.6064	-0.3722
5.19	-9.5123	0.1518	-0.0031	-0.0112	0.0085	-0.0236	34.3111	-13.3228	13.6478	-0.5985	0.3681	-0.6064	-0.3722
5.2	-9.4993	0.1708	-0.0007	0.0002	0.0043	-0.0161	34.1383	-13.1966	13.4134	-0.5985	0.3681	-0.6065	-0.3721
5.21	-9.4883	0.1699	-0.0016	-0.0012	0.0075	-0.0170	34.2887	-13.2096	13.6211	-0.5985	0.3681	-0.6065	-0.3721
5.22	-9.4913	0.1679	0.0056	-0.0108	0.0045	-0.0146	34.2028	-13.3152	13.7494	-0.5984	0.3681	-0.6066	-0.3721
5.23	-9.5193	0.1772	-0.0046	-0.0074	0.0117	-0.0184	34.1755	-13.2691	13.3410	-0.5984	0.3681	-0.6066	-0.3721
5.24	-9.5338	0.1715	-0.0163	-0.0043	0.0158	-0.0196	34.4790	-13.3743	13.4796	-0.5983	0.3682	-0.6067	-0.3720
5.25	-9.4954	0.1830	-0.0104	0.0007	0.0045	-0.0146	34.2738	-13.5017	13.6963	-0.5983	0.3681	-0.6067	-0.3720
5.26	-9.4867	0.1964	0.0030	-0.0103	0.0155	-0.0148	34.1132	-13.3960	13.4663	-0.5982	0.3682	-0.6068	-0.3720
5.27	-9.5674	0.1932	-0.0061	-0.0087	0.0261	-0.0182	34.2227	-13.0998	13.7845	-0.5982	0.3682	-0.6069	-0.3719
5.28	-9.5609	0.1933	-0.0675	-0.0112	0.0165	-0.0238	33.9253	-13.1221	13.4956	-0.5981	0.3683	-0.6070	-0.3719
5.29	-9.5074	0.1778	-0.0113	-0.0115	0.0049	-0.0299	33.8103	-12.9830	13.6447	-0.5981	0.3683	-0.6070	-0.3718
5.3	-9.5600	0.1940	0.0135	-0.0115	0.0246	-0.0337	34.1526	-13.1021	13.7336	-0.5980	0.3684	-0.6070	-0.3717
5.31	-9.6125	0.1978	-0.0554	-0.0120	0.0253	-0.0192	33.8631	-13.1242	13.5189	-0.5979	0.3685	-0.6071	-0.3717
5.32	-9.5995	0.2147	-0.0500	-0.0056	0.0125	-0.0173	33.9321	-13.0137	13.5699	-0.5979	0.3685	-0.6072	-0.3716
5.33	-9.5257	0.2309	-0.0401	-0.0114	0.0117	-0.0269	34.3099	-13.1678	13.7189	-0.5978	0.3685	-0.6072	-0.3716
5.34	-9.4833	0.2267	-0.0645	-0.0253	0.0220	-0.0246	34.4367	-13.0246	13.7398	-0.5977	0.3686	-0.6072	-0.3716
5.35	-9.4955	0.2077	-0.0859	-0.0311	0.0243	-0.0304	34.9531	-12.8809	13.8350	-0.5976	0.3688	-0.6073	-0.3715
5.36	-9.4933	0.1876	-0.1103	-0.0299	0.0287	-0.0324	34.4469	-13.3378	13.9560	-0.5975	0.3690	-0.6073	-0.3715
5.37	-9.5161	0.1632	-0.1016	-0.0292	0.0255	-0.0347	34.1839	-13.9049	13.7377	-0.5974	0.3691	-0.6073	-0.3715
5.38	-9.5582	0.1270	-0.1049	-0.0294	0.0220	-0.0347	34.2028	-13.9792	13.6993	-0.5973	0.3693	-0.6073	-0.3714
5.39	-9.5873	0.1453	-0.1146	-0.0268	0.0229	-0.0355	34.2381	-12.9569	13.4107	-0.5973	0.3694	-0.6074	-0.3714
5.4	-9.5773	0.1231	-0.1169	-0.0248	0.0102	-0.0353	34.2067	-13.2322	13.4218	-0.5972	0.3695	-0.6073	-0.3714
5.41	-9.5622	0.1202	-0.1038	-0.0170	0.0070	-0.0351	34.3088	-13.1480	13.5066	-0.5972	0.3696	-0.6073	-0.3713
5.42	-9.5659	0.1154	-0.1119	-0.0243	0.0075	-0.0357	34.3229	-13.0815	13.4618	-0.5972	0.3697	-0.6073	-0.3713
5.43	-9.5568	0.0965	-0.1279	-0.0126	0.0066	-0.0364	34.0979	-13.3075	13.4950	-0.5972	0.3698	-0.6073	-0.3712
5.44	-9.5475	0.0962	-0.1045	-0.0149	0.0065	-0.0361	34.1521	-13.1888	13.6551	-0.5972	0.3699	-0.6073	-0.3712
5.45	-9.5706	0.0929	-0.0969	-0.0156	0.0043	-0.0315	34.1437	-13.0912	13.6510	-0.5971	0.3700	-0.6073	-0.3711
5.46	-9.5757	0.0832	-0.1245	-0.0115	0.0069	-0.0306	34.1232	-13.2228	13.7854	-0.5971	0.3700	-0.6073	-0.3711
5.47	-9.5607	0.0766	-0.1160	-0.0106	0.0020	-0.0336	34.0502	-12.9591	13.7040	-0.5971	0.3701	-0.6073	-0.3711
5.48	-9.5572	0.0769	-0.1157	-0.0127	0.0048	-0.0267	34.2360	-13.1226	13.6468	-0.5971	0.3701	-0.6073	-0.3710
5.49	-9.5593	0.0778	-0.1248	-0.0109	0.0040	-0.0244	34.2391	-13.1325	13.6739	-0.5971	0.3702	-0.6073	-0.3710
5.5	-9.5528	0.0909	-0.1115	-0.0145	-0.0013	-0.0153	34.0996	-12.9899	13.5398	-0.5971	0.3702	-0.6073	-0.3710
5.51	-9.5485	0.1036	-0.1168	-0.0136	0.0017	-0.0103	34.2110	-13.1140	13.6015	-0.5970	0.3702	-0.6073	-0.3710
5.52	-9.5296	0.1074	-0.1169	-0.0109	-0.0033	-0.0139	34.2191	-13.0507	13.7772	-0.5970	0.3702	-0.6073	-0.3711
5.53	-9.5184	0.0990	-0.1083	-0.0120	0.0001	-0.0139	34.3518	-13.0257	13.7238	-0.5970	0.3702	-0.6073	-0.3711
5.54	-9.5204	0.1021	-0.1119	-0.0111	-0.0013	-0.0158	34.2580	-13.0241	13.5504	-0.5970	0.3701	-0.6074	-0.3711
5.55	-9.5244	0.0914	-0.1094	-0.0046	0.0011	-0.0170	34.0763	-13.0893	13.7307	-0.5970	0.3701	-0.6074	-0.3711
5.56	-9.5262	0.1078	-0.1105	-0.0037	-0.0038	-0.0135	34.2601	-13.1380	13.5195	-0.5970	0.3701	-0.6074	-0.3711
5.57	-9.5386	0.1239	-0.1109	-0.0048	0.0016	-0.0139	34.2069	-13.2108	13.8466	-0.5970	0.3701	-0.6074	-0.3711
5.58	-9.5316	0.1253	-0.1070	0.0026	0.0023	-0.0168	34.2592	-13.2135	13.4665	-0.5970	0.3700	-0.6075	-0.3710
5.59	-9.5180	0.1285	-0.0957	0.0087	0.0031	-0.0159	34.1445	-13.2116	13.6722	-0.5970	0.3700	-0.6075	-0.3710
5.6	-9.5249	0.1292	-0.1121	0.0081	0.0042	-0.0163	34.1379	-13.1225	14.0109	-0.5970	0.3699	-0.6076	-0.3709
5.61	-9.5210	0.1277	-0.1156	0.0032	0.0058	-0.0233	34.2588	-13.2243	13.5002	-0.5970	0.3699	-0.6077	-0.3709
5.62	-9.5165	0.1240	-0.1079	0.0025	0.0028	-0.0204	34.2081	-13.2110	13.5176	-0.5970	0.3699	-0.6077	-0.3708
5.63	-9.5214	0.1213	-0.1136	0.0085	0.0069	-0.0200	34.2508	-13.2043	13.6849	-0.5970	0.3699	-0.6077	-0.3707
5.64	-9.5472	0.1166	-0.1278	-0.0031	0.0036	-0.0184	34.2016	-13.1254	13.6432	-0.5970	0.3699	-0.6078	-0.3707
5.65	-9.5555	0.1112	-0.1409	-0.0061	0.0108	-0.0192	34.1308	-13.3747	13.8586	-0.5970	0.3699	-0.6078	-0.3707
5.66	-9.5676	0.1116	-0.1386	-0.0024	0.0126	-0.0187	34.1321	-13.1547	13.7791	-0.5969	0.3699	-0.6079	-0.3706
5.67	-9.5909	0.1045	-0.1504	0.0006	0.0081	-0.0213	34.1645	-13.0071	13.6617	-0.5969	0.3699	-0.6079	-0.3706
5.68	-9.5885	0.1052	-0.1561	-0.0007	-0.0044	-0.0206	34.0923	-12.9486	13.7430	-0.5969	0.3698	-0.6080	-0.3705
5.69	-9.5863	0.1100	-0.1412	0.0032	-0.0088	-0.0202	34.0918	-12.9205	13.6298	-0.5970	0.3698	-0.6080	-0.3705
5.7	-9.6016	0.1180	-0.1392	0.0054	-0.0031	-0.0196	34.1620	-13.0391	13.6745	-0.5970	0.3697	-0.6080	-0.3705
5.71	-9.6040	0.1244	-0.1503	0.0142	-0.0107	-0.0175	34.1355	-13.1060	13.5651	-0.5970	0.3697	-0.6080	-0.3704
5.72	-9.5859	0.1283	-0.1278	0.0110	-0.0191	-0.0161	34.2607	-13.0560	13.6785	-0.5971	0.3696	-0.6080	-0.3704
5.73	-9.5774	0.1390	-0.1129	0.0135	-0.0183	-0.0165	33.9916	-13.3579	13.4611	-0.5972	0.3695	-0.6080	-0.3704
5.74	-9.5746	0.1414	-0.1236	0.0129	-0.0239	-0.0103	34.2566	-13.1100	13.4908	-0.5973	0.3693	-0.6080	-0.3703
5.75	-9.5605	0.1506	-0.1196	0.0071	-0.0192	-0.0126	34.3125	-13.1072	13.5774	-0.5974	0.3692	-0.6080	-0.3703
5.76	-9.5349	0.1529	-0.1005	0.0084	-0.0297	-0.0132	34.3652	-13.1790	13.5786	-0.5975	0.3691	-0.6080	-0.3704
5.77	-9.5115	0.1576	-0.0919	0.0108	-0.0307	-0.0115	34.4310	-13.4981	13.5671	-0.5976	0.3690	-0.6080	-0.3704
5.78	-9.5107	0.1603	-0.0689	0.0045	-0.0310	-0.0145	34.3067	-13.3810	13.6007	-0.5977	0.3688	-0.6079	-0.3704
5.79	-9.5216	0.1630	-0.0589	0.0126	-0.0292	-0.0157	34.1721	-12.9746	13.6503	-0.5978	0.3687	-0.6079	-0.3704
5.8	-9.5093	0.1619	-0.0583	0.0100	-0.0323	-0.0146	34.1676	-12.7821	13.5117	-0.5979	0.3686	-0.6078	-0.3704
5.81	-9.4783	0.1728	-0.0358	-0.0042	-0.0311	-0.0120	34.3653	-13.0642	13.6879	-0.5980	0.3685	-0.6078	-0.3704
5.82	-9.4599	0.1841	-0.0233	-0.0093	-0.0252	-0.0093	34.0653	-13.0057	13.5313	-0.5980	0.3684	-0.6077	-0.3705
5.83	-9.5225	0.1785	-0.0146	-0.0090	-0.0111	-0.0145	34.4055	-13.0906	13.7828	-0.5980	0.3684	-0.6077	-0.3706
5.84	-9.5228	0.1577	-0.0639	-0.0102	-0.0087	-0.0107	34.5813	-13.0995	13.9224	-0.5980	0.3683	-0.6077	-0.3706
5.85	-9.4887	0.1331	-0.0263	-0.0121	-0.0226	-0.0169	34.7635	-12.6658	14.1401	-0.5981	0.3683	-0.6077	-0.3706
5.86	-9.5265	0.1328	0.0167	-0.0081	-0.0035	-0.0179	34.7390	-12.8026	13.9568	-0.5981	0.3683	-0.6077	-0.3706
5.87	-9.5801	0.1335	-0.0428	-0.0123	0.0105	-0.0122	34.4070	-13.9052	13.5630	-0.5980	0.3683	-0.6077	-0.3706
5.88	-9.5654	0.1565	-0.0365	-0.0061	-0.0048	-0.0143	34.3537	-13.8241	13.5693	-0.5980	0.3683	-0.6077	-0.3707
5.89	-9.5006	0.1914	-0.0272	-0.0037	-0.0053	-0.0090	34.5184	-12.8695	13.6953	-0.5980	0.3682	-0.6078	-0.3707
5.9	-9.4601	0.1783	-0.0610	-0.0113	0.0148	-0.0108	34.3255	-13.1517	13.5108	-0.5980	0.3682	-0.6078	-0.3707
5.91	-9.4837	0.1776	-0.0827	-0.0099	0.0170	-0.0144	34.3154	-13.1014	13.6987	-0.5979	0.3682	-0.6079	-0.3707
5.92	-9.5164	0.1722	-0.1075	-0.0108	0.0190	-0.0181	34.2918	-13.2251	13.6308	-0.5978	0.3683	-0.6080	-0.3706
5.93	-9.5587	0.1515	-0.0944	-0.0098	0.0006	-0.0168	34.5836	-13.3290	13.7662	-0.5978	0.3683	-0.6080	-0.3706
5.94	-9.6013	0.1544	-0.0905	-0.0097	0.0071	-0.0194	34.6969	-13.2680	13.8390	-0.5978	0.3683	-0.6080	-0.3706
5.95	-9.6356	0.1608	-0.0974	-0.0092	-0.0017	-0.0235	34.6537	-13.3595	13.7494	-0.5978	0.3683	-0.6080	-0.3706
5.96	-9.6072	0.1628	-0.0916	-0.0023	-0.0210	-0.0184	34.6831	-13.0271	13.7634	-0.5978	0.3683	-0.6080	-0.3706
5.97	-9.5632	0.1622	-0.0581	-0.0009	-0.0267	-0.0212	34.5143	-13.1517	13.6610	-0.5979	0.3682	-0.6079	-0.3706
5.98	-9.5579	0.1601	-0.0498	-0.0096	-0.0216	-0.0271	34.4819	-13.3674	13.6290	-0.5980	0.3682	-0.6079	-0.3706
5.99	-9.5250	0.1615	-0.0734	-0.0066	-0.0184	-0.0305	34.4964	-13.1964	13.5586	-0.5981	0.3682	-0.6078	-0.3706
6	-9.5055	0.1545	-0.0294	-0.0061	-0.0250	-0.0337	34.4828	-13.3076	13.6039	-0.5982	0.3682	-0.6077	-0.3706
6.01	-9.5381	0.1600	-0.0157	-0.0099	-0.0166	-0.0280	34.5157	-13.0170	13.7419	-0.5982	0.3682	-0.6077	-0.3706
6.02	-9.5375	0.1501	-0.0479	-0.0115	-0.0173	-0.0200	34.7024	-13.0449	13.7748	-0.5983	0.3681	-0.6076	-0.3706
6.03	-9.5298	0.1468	-0.0103	-0.0121	-0.0202	-0.0238	34.5444	-13.0370	13.7642	-0.5983	0.3681	-0.6075	-0.3707
6.04	-9.5477	0.1617	-0.0153	-0.0168	-0.0157	-0.0185	34.6366	-13.1485	13.7536	-0.5983	0.3681	-0.6075	-0.3707
6.05	-9.5513	0.1646	-0.0294	-0.0157	-0.0135	-0.0133	34.6397	-12.9142	13.6059	-0.5984	0.3681	-0.6075	-0.3708
6.06	-9.5318	0.1718	-0.0146	-0.0261	-0.0202	-0.0102	34.4803	-13.0584	13.8269	-0.5984	0.3681	-0.6074	-0.3709
6.07	-9.5239	0.1937	-0.0107	-0.0332	-0.0170	-0.0108	34.3809	-13.0124	13.4632	-0.5983	0.3681	-0.6073	-0.3710
6.08	-9.5236	0.1476	-0.0335	-0.0358	-0.0160	-0.0111	34.4452	-13.1069	13.4518	-0.5983	0.3681	-0.6073	-0.3711
6.09	-9.5237	0.1380	-0.0195	-0.0332	-0.0173	-0.0205	34.5278	-13.0802	13.7038	-0.5983	0.3682	-0.6072	-0.3712
6.1	-9.5139	0.1167	-0.0179	-0.0368	-0.0195	-0.0228	34.3720	-12.9178	13.6589	-0.5983	0.3682	-0.6071	-0.3713
6.11	-9.5033	0.0933	-0.0113	-0.0257	-0.0258	-0.0202	34.5611	-13.2158	13.7926	-0.5984	0.3682	-0.6070	-0.3714
6.12	-9.4987	0.0695	-0.0010	-0.0122	-0.0203	-0.0245	34.7605	-13.1984	13.5714	-0.5984	0.3682	-0.6069	-0.3715
6.13	-9.4965	0.0875	0.0022	-0.0072	-0.0117	-0.0288	34.7685	-13.2398	13.6001	-0.5985	0.3682	-0.6069	-0.3714
6.14	-9.4828	0.0977	0.0045	-0.0101	-0.0203	-0.0265	34.5536	-13.0762	13.5631	-0.5985	0.3682	-0.6068	-0.3715
6.15	-9.4760	0.1118	0.0328	-0.0110	-0.0145	-0.0167	34.5802	-13.3556	13.6253	-0.5986	0.3682	-0.6068	-0.3715
6.16	-9.4703	0.1239	0.0163	-0.0079	-0.0018	-0.0201	34.3559	-13.3436	13.7309	-0.5986	0.3682	-0.6068	-0.3715
6.17	-9.4566	0.1494	0.0117	-0.0061	-0.0057	-0.0194	34.6110	-13.2060	13.4571	-0.5986	0.3682	-0.6068	-0.3715
6.18	-9.4407	0.1313	0.0235	-0.0075	0.0074	-0.0215	34.5432	-13.3008	13.6443	-0.5986	0.3682	-0.6068	-0.3715
6.19	-9.4535	0.1295	0.0178	-0.0049	0.0172	-0.0185	34.4968	-13.0198	13.6779	-0.5985	0.3682	-0.6069	-0.3714
6.2	-9.4831	0.1377	0.0009	0.0001	0.0189	-0.0176	34.7200	-13.3422	13.6913	-0.5984	0.3682	-0.6070	-0.3713
6.21	-9.5004	0.1246	-0.0219	-0.0007	0.0271	-0.0141	34.4326	-13.1750	13.5560	-0.5984	0.3682	-0.6071	-0.3713
6.22	-9.5109	0.1283	-0.0213	-0.0098	0.0259	-0.0217	34.4166	-12.9951	13.7607	-0.5983	0.3683	-0.6072	-0.3712
6.23	-9.5202	0.1346	-0.0341	0.0028	0.0311	-0.0221	34.3318	-13.0771	13.7003	-0.5982	0.3683	-0.6073	-0.3711
6.24	-9.5264	0.1345	-0.0372	0.0067	0.0331	-0.0168	34.3712	-12.9239	13.6555	-0.5981	0.3683	-0.6074	-0.3710
6.25	-9.5271	0.1235	-0.0475	0.0017	0.0316	-0.0144	34.5587	-13.0913	13.6758	-0.5980	0.3683	-0.6076	-0.3709
6.26	-9.5633	0.1687	-0.0404	0.0145	0.0316	-0.0187	34.3879	-13.1128	13.6861	-0.5980	0.3683	-0.6077	-0.3708
6.27	-9.5643	0.1529	-0.0784	0.0081	0.0283	-0.0210	34.5009	-12.9289	13.5935	-0.5979	0.3683	-0.6078	-0.3707
6.28	-9.5682	0.1815	-0.0675	0.0090	0.0292	-0.0254	34.4657	-12.9698	13.5605	-0.5978	0.3683	-0.6080	-0.3706
6.29	-9.5818	0.1983	-0.0802	0.0109	0.0314	-0.0180	34.3093	-13.0505	13.7326	-0.5978	0.3683	-0.6081	-0.3704
6.3	-9.5900	0.1965	-0.1007	0.0078	0.0237	-0.0196	34.6415	-13.0569	13.5687	-0.5977	0.3683	-0.6082	-0.3703
6.31	-9.5776	0.2210	-0.0957	0.0057	0.0228	-0.0159	34.4587	-13.3329	13.6778	-0.5977	0.3683	-0.6083	-0.3703
6.32	-9.5542	0.2259	-0.1028	-0.0063	0.0189	-0.0177	34.6194	-13.1738	13.7786	-0.5976	0.3683	-0.6084	-0.3702
6.33	-9.5626	0.2232	-0.0859	-0.0115	0.0061	-0.0252	34.6993	-13.2560	13.7948	-0.5976	0.3684	-0.6084	-0.3702
6.34	-9.5540	0.2069	-0.1021	-0.0137	0.0066	-0.0218	34.9204	-13.0877	13.9485	-0.5975	0.3684	-0.6084	-0.3702
6.35	-9.5525	0.2138	-0.0803	-0.0269	-0.0002	-0.0216	35.5031	-12.6751	14.0471	-0.5976	0.3684	-0.6085	-0.3701
6.36	-9.5443	0.1719	-0.0760	-0.0352	-0.0045	-0.0238	34.5531	-13.1440	14.0135	-0.5975	0.3684	-0.6084	-0.3702
6.37	-9.4787	0.2110	-0.0836	-0.0347	0.0031	-0.0158	34.3081	-13.6591	13.8612	-0.5975	0.3685	-0.6084	-0.3703
6.38	-9.5033	0.1876	-0.0308	-0.0373	0.0058	-0.0177	34.2750	-13.6697	13.6327	-0.5974	0.3686	-0.6084	-0.3703
6.39	-9.5485	0.1785	-0.0673	-0.0370	0.0163	-0.0203	34.3950	-13.1452	13.7827	-0.5973	0.3687	-0.6084	-0.3704
6.4	-9.5250	0.1671	-0.0878	-0.0475	0.0126	-0.0312	34.2980	-13.2056	13.6991	-0.5972	0.3689	-0.6083	-0.3704
6.41	-9.5083	0.1151	-0.0317	-0.0462	0.0094	-0.0325	34.1457	-13.0855	13.6307	-0.5971	0.3691	-0.6083	-0.3705
6.42	-9.5523	0.1516	-0.0414	-0.0417	0.0254	-0.0287	34.2150	-13.1614	13.6757	-0.5970	0.3692	-0.6083	-0.3705
6.43	-9.5794	0.1297	-0.0883	-0.0490	0.0312	-0.0215	34.3055	-12.9717	13.5049	-0.5968	0.3694	-0.6083	-0.3706
6.44	-9.5178	0.1324	-0.0868	-0.0355	0.0130	-0.0161	34.2317	-12.9760	13.6388	-0.5967	0.3695	-0.6083	-0.3706
6.45	-9.4584	0.1554	-0.0825	-0.0510	0.0223	-0.0208	34.1732	-13.1479	13.6478	-0.5965	0.3697	-0.6083	-0.3707
6.46	-9.4395	0.1179	-0.1251	-0.0465	0.0397	-0.0294	34.2078	-13.1092	13.6711	-0.5964	0.3699	-0.6084	-0.3707
6.47	-9.4730	0.1097	-0.1355	-0.0459	0.0377	-0.0291	34.1836	-13.0127	13.7522	-0.5962	0.3701	-0.6084	-0.3707
6.48	-9.5001	0.0813	-0.1379	-0.0498	0.0389	-0.0324	34.2102	-12.8467	13.7578	-0.5960	0.3703	-0.6084	-0.3707
6.49	-9.5339	0.0389	-0.1322	-0.0381	0.0350	-0.0350	34.1730	-12.9479	13.6334	-0.5959	0.3705	-0.6085	-0.3707
6.5	-9.5579	0.0600	-0.1353	-0.0339	0.0310	-0.0305	34.3389	-13.2737	13.5791	-0.5957	0.3707	-0.6085	-0.3707
6.51	-9.5447	0.0545	-0.1467	-0.0367	0.0264	-0.0315	34.3581	-13.1818	13.6516	-0.5956	0.3709	-0.6085	-0.3707
6.52	-9.5454	0.0589	-0.1257	-0.0314	0.0284	-0.0306	34.4629	-13.2510	13.4905	-0.5955	0.3710	-0.6085	-0.3707
6.53	-9.5157	0.0637	-0.1503	-0.0250	0.0325	-0.0232	34.3683	-13.0022	13.8203	-0.5954	0.3712	-0.6086	-0.3706
6.54	-9.5183	0.0658	-0.1497	-0.0320	0.0350	-0.0319	34.1244	-12.9383	13.6474	-0.5952	0.3713	-0.6087	-0.3706
6.55	-9.4930	0.0593	-0.1593	-0.0242	0.0442	-0.0196	34.2879	-13.1626	13.5447	-0.5951	0.3715	-0.6088	-0.3706
6.56	-9.5310	0.0679	-0.1415	-0.0244	0.0380	-0.0252	34.2746	-13.0064	13.9061	-0.5949	0.3716	-0.6089	-0.3705
6.57	-9.5925	0.0730	-0.1650	-0.0130	0.0456	-0.0238	34.3029	-13.0885	13.5462	-0.5948	0.3717	-0.6090	-0.3704
6.58	-9.5854	0.0453	-0.1966	-0.0150	0.0324	-0.0185	34.2408	-13.0753	13.8125	-0.5947	0.3718	-0.6091	-0.3704
6.59	-9.5613	0.0460	-0.1676	-0.0110	0.0316	-0.0195	34.1304	-13.0903	13.7487	-0.5945	0.3718	-0.6092	-0.3703
6.6	-9.5649	0.0632	-0.1815	-0.0085	0.0354	-0.0107	33.9770	-13.1453	13.8622	-0.5944	0.3719	-0.6093	-0.3703
6.61	-9.5807	0.0703	-0.1915	-0.0066	0.0310	-0.0094	34.0823	-13.0058	13.7677	-0.5943	0.3719	-0.6094	-0.3702
6.62	-9.5468	0.0943	-0.1912	-0.0132	0.0200	-0.0087	34.2373	-13.2434	13.8477	-0.5942	0.3719	-0.6095	-0.3702
6.63	-9.5420	0.1088	-0.1842	-0.0016	0.0278	-0.0112	34.1695	-13.1241	13.9722	-0.5941	0.3719	-0.6096	-0.3702
6.64	-9.5724	0.0895	-0.1914	-0.0013	0.0347	-0.0126	34.2125	-13.0235	13.9079	-0.5940	0.3719	-0.6098	-0.3701
6.65	-9.5505	0.0882	-0.2158	0.0003	0.0263	-0.0149	34.1829	-13.0428	14.0783	-0.5939	0.3720	-0.6099	-0.3700
6.66	-9.5547	0.0863	-0.1670	0.0040	0.0153	-0.0201	34.1988	-13.2906	13.9441	-0.5939	0.3719	-0.6100	-0.3700
6.67	-9.5333	0.0909	-0.2052	0.0099	0.0233	-0.0112	34.2605	-13.2309	13.8325	-0.5938	0.3719	-0.6101	-0.3699
6.68	-9.5405	0.1014	-0.1868	0.0145	0.0147	-0.0157	34.3322	-13.1804	13.9643	-0.5938	0.3719	-0.6102	-0.3698
6.69	-9.5651	0.1176	-0.1757	0.0118	0.0182	-0.0183	34.3475	-13.0932	13.8941	-0.5938	0.3718	-0.6103	-0.3697
6.7	-9.5402	0.1279	-0.2013	0.0129	0.0192	-0.0115	34.1866	-13.2063	14.0433	-0.5937	0.3718	-0.6104	-0.3696
6.71	-9.5420	0.1333	-0.1670	0.0086	0.0129	-0.0124	34.1870	-13.2284	13.8988	-0.5937	0.3717	-0.6105	-0.3696
6.72	-9.5257	0.1436	-0.1874	0.0076	0.0206	-0.0206	33.9457	-13.0444	13.9823	-0.5937	0.3717	-0.6106	-0.3695
6.73	-9.5059	0.1417	-0.1886	0.0020	0.0122	-0.0136	34.1135	-13.0910	13.9951	-0.5936	0.3717	-0.6107	-0.3694
6.74	-9.5140	0.1492	-0.1835	-0.0020	0.0192	-0.0172	34.0899	-13.1561	13.7855	-0.5936	0.3717	-0.6108	-0.3694
6.75	-9.5248	0.1399	-0.1959	0.0004	0.0188	-0.0092	34.2392	-12.9823	14.1173	-0.5935	0.3717	-0.6109	-0.3693
6.76	-9.5386	0.1377	-0.1919	-0.0069	0.0177	-0.0093	34.3031	-12.9430	13.8705	-0.5934	0.3717	-0.6110	-0.3693
6.77	-9.5441	0.1442	-0.1943	-0.0123	0.0229	-0.0091	34.2316	-12.9405	13.8790	-0.5933	0.3717	-0.6111	-0.3693
6.78	-9.5608	0.1452	-0.1942	-0.0104	0.0291	-0.0111	34.0558	-13.0473	14.0532	-0.5932	0.3717	-0.6112	-0.3693
6.79	-9.5609	0.1448	-0.2121	-0.0119	0.0234	-0.0092	34.0525	-13.0312	14.1308	-0.5931	0.3717	-0.6113	-0.3693
6.8	-9.5508	0.1400	-0.2051	-0.0109	0.0217	-0.0104	34.1107	-13.0426	13.8455	-0.5930	0.3717	-0.6114	-0.3692
6.81	-9.5621	0.1388	-0.1924	-0.0115	0.0250	-0.0144	34.1230	-13.0244	13.9057	-0.5929	0.3718	-0.6115	-0.3692
6.82	-9.5756	0.1426	-0.2126	-0.0106	0.0249	-0.0116	34.1591	-13.1582	14.0558	-0.5928	0.3718	-0.6116	-0.3692
6.83	-9.5841	0.1395	-0.2129	-0.0109	0.0136	-0.0148	34.1639	-13.2197	14.1694	-0.5928	0.3718	-0.6116	-0.3692
6.84	-9.5688	0.1356	-0.2128	-0.0113	0.0113	-0.0218	34.3864	-12.9621	14.2563	-0.5927	0.3719	-0.6117	-0.3692
6.85	-9.5604	0.1328	-0.1980	-0.0112	0.0108	-0.0261	34.4612	-12.7081	14.5389	-0.5927	0.3719	-0.6117	-0.3691
6.86	-9.5648	0.1305	-0.2026	-0.0096	0.0049	-0.0209	34.3846	-13.0310	13.9557	-0.5927	0.3719	-0.6117	-0.3691
6.87	-9.5503	0.1371	-0.2089	0.0019	0.0020	-0.0192	34.3105	-14.0203	14.0365	-0.5927	0.3719	-0.6117	-0.3691
6.88	-9.5216	0.1366	-0.1963	-0.0055	-0.0033	-0.0168	34.5485	-13.8318	14.1859	-0.5927	0.3719	-0.6118	-0.3691
6.89	-9.4938	0.1493	-0.1745	-0.0002	-0.0039	-0.0200	34.3645	-13.2182	14.0421	-0.5927	0.3718	-0.6118	-0.3690
6.9	-9.5096	0.1472	-0.1735	-0.0005	-0.0000	-0.0289	34.3756	-13.2218	14.0225	-0.5927	0.3718	-0.6118	-0.3690
6.91	-9.4923	0.1436	-0.1920	0.0004	-0.0046	-0.0229	34.4742	-13.1171	13.9311	-0.5927	0.3718	-0.6118	-0.3689
6.92	-9.5132	0.1486	-0.1391	-0.0025	-0.0011	-0.0237	34.2373	-13.2461	14.0522	-0.5927	0.3718	-0.6118	-0.3689
6.93	-9.4612	0.1690	-0.1876	-0.0097	0.0065	-0.0137	34.2442	-13.0504	14.0899	-0.5927	0.3718	-0.6118	-0.3689
6.94	-9.4748	0.1620	-0.1333	-0.0104	0.0091	-0.0211	34.2955	-13.1573	14.1154	-0.5927	0.3718	-0.6119	-0.3689
6.95	-9.5153	0.1501	-0.1570	-0.0147	0.0210	-0.0189	34.3916	-13.0037	14.0165	-0.5926	0.3719	-0.6119	-0.3689
6.96	-9.5004	0.1244	-0.1868	-0.0115	0.0174	-0.0299	34.1045	-13.0333	14.0730	-0.5925	0.3719	-0.6120	-0.3688
6.97	-9.5074	0.1122	-0.1348	-0.0112	0.0172	-0.0269	34.0852	-13.1430	13.8856	-0.5925	0.3720	-0.6120	-0.3688
6.98	-9.5566	0.1291	-0.1511	-0.0101	0.0323	-0.0166	34.0352	-13.0455	14.1032	-0.5924	0.3721	-0.6121	-0.3687
6.99	-9.5554	0.1347	-0.1894	-0.0108	0.0350	-0.0097	34.2723	-12.9910	14.2506	-0.5923	0.3721	-0.6123	-0.3687
7	-9.4931	0.1679	-0.1950	-0.0104	0.0324	-0.0090	34.3394	-13.0621	14.1189	-0.5921	0.3721	-0.6124	-0.3686
7.01	-9.4473	0.1706	-0.2048	-0.0123	0.0350	-0.0080	34.2204	-13.0910	14.1525	-0.5920	0.3722	-0.6125	-0.3686
7.02	-9.4515	0.1470	-0.2478	-0.0152	0.0474	-0.0158	34.2720	-12.9149	14.1351	-0.5918	0.3723	-0.6127	-0.3686
7.03	-9.4983	0.1626	-0.2530	-0.0088	0.0512	-0.0262	34.2434	-13.0237	14.1476	-0.5917	0.3724	-0.6128	-0.3684
7.04	-9.5261	0.1347	-0.2648	-0.0127	0.0507	-0.0300	34.2625	-12.9221	13.9918	-0.5915	0.3725	-0.6129	-0.3683
7.05	-9.5721	0.1247	-0.2542	-0.0124	0.0470	-0.0329	34.2383	-13.3210	13.9608	-0.5914	0.3726	-0.6131	-0.3682
7.06	-9.5853	0.1358	-0.2650	-0.0101	0.0324	-0.0257	34.3248	-13.1634	14.3055	-0.5913	0.3727	-0.6132	-0.3681
7.07	-9.5806	0.1272	-0.2647	-0.0101	0.0331	-0.0253	34.4794	-13.3446	14.0472	-0.5912	0.3728	-0.6132	-0.3680
7.08	-9.5474	0.1599	-0.2571	-0.0111	0.0331	-0.0268	34.3443	-13.1656	13.8609	-0.5911	0.3729	-0.6133	-0.3680
7.09	-9.5386	0.1572	-0.2558	-0.0131	0.0252	-0.0308	34.1387	-13.1448	14.2943	-0.5910	0.3730	-0.6134	-0.3679
7.1	-9.5191	0.1695	-0.2851	-0.0191	0.0339	-0.0287	34.2661	-13.2358	14.1081	-0.5909	0.3731	-0.6135	-0.3678
7.11	-9.4840	0.1503	-0.2778	-0.0284	0.0305	-0.0320	34.0103	-13.0364	14.1803	-0.5908	0.3733	-0.6135	-0.3678
7.12	-9.5557	0.1448	-0.2455	-0.0314	0.0345	-0.0293	34.3506	-13.0257	14.2466	-0.5906	0.3734	-0.6136	-0.3678
7.13	-9.5833	0.1463	-0.3166	-0.0372	0.0420	-0.0321	34.2569	-13.0022	13.8922	-0.5905	0.3736	-0.6136	-0.3677
7.14	-9.5727	0.1137	-0.2970	-0.0365	0.0286	-0.0282	34.2553	-13.1460	14.2384	-0.5903	0.3738	-0.6137	-0.3677
7.15	-9.5633	0.1228	-0.2776	-0.0344	0.0318	-0.0240	34.2411	-13.0538	14.4606	-0.5902	0.3739	-0.6137	-0.3677
7.16	-9.5631	0.1111	-0.3069	-0.0374	0.0372	-0.0247	34.2839	-13.2387	14.4335	-0.5900	0.3741	-0.6138	-0.3677
7.17	-9.5637	0.1003	-0.3082	-0.0350	0.0280	-0.0177	34.1306	-12.8986	14.2211	-0.5899	0.3742	-0.6138	-0.3677
7.18	-9.5695	0.1344	-0.2979	-0.0365	0.0305	-0.0220	34.1092	-12.8621	14.2440	-0.5897	0.3744	-0.6139	-0.3678
7.19	-9.5630	0.0936	-0.3230	-0.0343	0.0321	-0.0247	34.1353	-12.9380	14.1695	-0.5896	0.3745	-0.6139	-0.3678
7.2	-9.5542	0.0884	-0.3263	-0.0360	0.0258	-0.0316	34.0425	-13.0192	14.1887	-0.5895	0.3747	-0.6139	-0.3678
7.21	-9.5674	0.0776	-0.3208	-0.0317	0.0316	-0.0352	34.1863	-12.9147	14.2763	-0.5893	0.3748	-0.6139	-0.3677
7.22	-9.5670	0.0636	-0.3429	-0.0209	0.0214	-0.0336	34.0362	-12.6980	14.2957	-0.5893	0.3750	-0.6140	-0.3677
7.23	-9.5471	0.0688	-0.3342	-0.0184	0.0099	-0.0289	34.1056	-12.8198	14.1790	-0.5892	0.3751	-0.6140	-0.3676
7.24	-9.5413	0.0795	-0.3103	-0.0188	0.0029	-0.0258	34.0430	-13.0173	14.3617	-0.5892	0.3751	-0.6140	-0.3676
7.25	-9.5614	0.0876	-0.3317	-0.0188	0.0141	-0.0251	34.2262	-13.1419	14.1706	-0.5892	0.3752	-0.6140	-0.3676
7.26	-9.5321	0.0975	-0.3421	-0.0098	0.0094	-0.0297	34.2356	-13.2317	14.1800	-0.5891	0.3752	-0.6140	-0.3676
7.27	-9.5337	0.1018	-0.2950	-0.0149	0.0004	-0.0242	34.3317	-13.1012	14.2812	-0.5891	0.3753	-0.6140	-0.3676
7.28	-9.5230	0.0931	-0.3282	-0.0244	0.0090	-0.0213	34.4373	-13.1190	14.1011	-0.5891	0.3753	-0.6140	-0.3676
7.29	-9.5284	0.0950	-0.3310	-0.0271	0.0047	-0.0237	34.1911	-13.0766	14.1951	-0.5890	0.3754	-0.6140	-0.3676
7.3	-9.5365	0.0975	-0.3189	-0.0232	0.0131	-0.0167	34.3304	-12.9876	14.2426	-0.5889	0.3755	-0.6140	-0.3676
7.31	-9.5443	0.0839	-0.3383	-0.0229	0.0197	-0.0136	34.3535	-13.1004	14.2393	-0.5888	0.3755	-0.6141	-0.3677
7.32	-9.5605	0.0839	-0.3376	-0.0253	0.0199	-0.0152	34.5269	-13.2348	14.2245	-0.5887	0.3756	-0.6141	-0.3677
7.33	-9.5690	0.0828	-0.3446	-0.0259	0.0150	-0.0159	34.2521	-13.1098	14.4520	-0.5886	0.3757	-0.6141	-0.3677
7.34	-9.5602	0.0712	-0.3502	-0.0148	0.0132	-0.0219	34.5069	-12.9307	14.5262	-0.5886	0.3757	-0.6142	-0.3677
7.35	-9.5507	0.0676	-0.3480	-0.0211	0.0163	-0.0195	34.6291	-12.6929	14.5971	-0.5885	0.3757	-0.6143	-0.3676
7.36	-9.5502	0.0723	-0.3581	-0.0266	0.0095	-0.0154	34.0019	-13.0081	14.4068	-0.5885	0.3757	-0.6143	-0.3677
7.37	-9.5452	0.0735	-0.3640	-0.0143	0.0088	-0.0135	33.7639	-13.7962	14.1748	-0.5884	0.3758	-0.6143	-0.3677
7.38	-9.5533	0.0748	-0.3562	-0.0107	0.0108	-0.0154	33.7153	-13.6102	14.1466	-0.5884	0.3758	-0.6144	-0.3677
7.39	-9.5514	0.0755	-0.3639	-0.0118	0.0095	-0.0194	33.5982	-12.8490	13.9526	-0.5883	0.3758	-0.6144	-0.3677
7.4	-9.5521	0.0640	-0.3566	-0.0048	0.0090	-0.0154	33.6775	-13.1515	14.1323	-0.5883	0.3758	-0.6145	-0.3676
7.41	-9.5422	0.0822	-0.3620	-0.0092	0.0063	-0.0136	33.5256	-12.9206	14.2123	-0.5882	0.3758	-0.6145	-0.3676
7.42	-9.5421	0.0736	-0.3610	-0.0104	0.0019	-0.0155	33.7274	-13.0797	14.2945	-0.5882	0.3758	-0.6145	-0.3676
7.43	-9.4913	0.0769	-0.3728	0.0093	-0.0000	-0.0149	33.8436	-13.1257	14.4056	-0.5882	0.3757	-0.6146	-0.3676
7.44	-9.4429	0.0800	-0.3577	-0.0055	-0.0005	-0.0182	33.7820	-13.1917	14.0424	-0.5882	0.3757	-0.6146	-0.3676
7.45	-9.4830	0.0729	-0.3291	-0.0068	0.0002	-0.0217	33.8930	-13.2460	14.3141	-0.5882	0.3757	-0.6146	-0.3676
7.46	-9.5116	0.0708	-0.3761	-0.0099	0.0146	-0.0179	34.0083	-13.1169	14.2926	-0.5882	0.3757	-0.6146	-0.3675
7.47	-9.5103	0.0698	-0.3442	-0.0095	0.0038	-0.0110	33.9751	-13.1385	14.0343	-0.5881	0.3757	-0.6147	-0.3676
7.48	-9.5303	0.0809	-0.3086	-0.0092	0.0121	-0.0074	33.7970	-13.1531	14.2376	-0.5881	0.3757	-0.6148	-0.3676
7.49	-9.4895	0.1210	-0.3715	-0.0128	0.0197	0.0082	33.9027	-13.0340	14.0825	-0.5880	0.3757	-0.6149	-0.3676
7.5	-9.5467	0.1360	-0.3200	-0.0120	0.0221	0.0031	34.0139	-13.1801	14.2758	-0.5878	0.3756	-0.6150	-0.3677
7.51	-9.5590	0.1266	-0.3640	-0.0148	0.0268	-0.0013	33.8065	-13.0536	14.4311	-0.5877	0.3756	-0.6151	-0.3677
7.52	-9.5391	0.0910	-0.3553	-0.0167	0.0114	-0.0021	33.8374	-13.1273	14.3663	-0.5876	0.3756	-0.6152	-0.3677
7.53	-9.5671	0.0983	-0.3141	-0.0106	0.0181	0.0023	33.6923	-13.0397	14.4096	-0.5875	0.3756	-0.6152	-0.3678
7.54	-9.6007	0.1161	-0.3393	-0.0135	0.0215	0.0091	33.6352	-13.2009	14.3675	-0.5874	0.3756	-0.6154	-0.3678
7.55	-9.5918	0.1262	-0.3432	-0.0127	0.0215	0.0164	33.6039	-13.1911	14.4306	-0.5872	0.3755	-0.6155	-0.3679
7.56	-9.5213	0.1618	-0.3668	-0.0137	0.0158	0.0151	33.7542	-13.0434	14.2661	-0.5871	0.3754	-0.6156	-0.3680
7.57	-9.4705	0.1789	-0.3679	-0.0138	0.0192	0.0104	33.6701	-12.8272	14.3380	-0.5870	0.3754	-0.6157	-0.3680
7.58	-9.5020	0.1762	-0.3707	-0.0162	0.0280	0.0058	33.7069	-13.1087	14.1948	-0.5868	0.3754	-0.6158	-0.3681
7.59	-9.5105	0.1787	-0.4122	-0.0194	0.0289	-0.0050	33.8662	-13.3469	14.3591	-0.5867	0.3754	-0.6160	-0.3681
7.6	-9.5496	0.1619	-0.3708	-0.0206	0.0149	-0.0086	33.6966	-13.2877	14.4973	-0.5866	0.3755	-0.6160	-0.3681
7.61	-9.5814	0.1482	-0.3768	-0.0105	0.0127	-0.0093	33.7200	-13.2236	14.2657	-0.5865	0.3755	-0.6161	-0.3681
7.62	-9.5826	0.1496	-0.3826	-0.0110	0.0003	-0.0101	33.7724	-13.3875	14.2668	-0.5865	0.3754	-0.6161	-0.3681
7.63	-9.5670	0.1573	-0.3647	-0.0085	-0.0013	-0.0093	33.8261	-13.0953	14.1749	-0.5864	0.3754	-0.6161	-0.3682
7.64	-9.5321	0.1665	-0.3712	-0.0173	0.0016	-0.0133	33.9077	-13.3796	14.3270	-0.5864	0.3754	-0.6161	-0.3682
7.65	-9.5346	0.1572	-0.3664	-0.0138	0.0034	-0.0123	33.8826	-13.5002	14.3257	-0.5864	0.3754	-0.6162	-0.3682
7.66	-9.5321	0.1368	-0.3838	-0.0160	0.0032	-0.0135	33.7110	-13.2889	14.4499	-0.5863	0.3754	-0.6162	-0.3683
7.67	-9.4912	0.1249	-0.3798	-0.0086	0.0019	-0.0108	33.7295	-13.3333	14.2614	-0.5863	0.3754	-0.6162	-0.3683
7.68	-9.5743	0.1227	-0.3326	-0.0105	0.0090	-0.0148	33.8231	-13.1716	14.3463	-0.5862	0.3754	-0.6163	-0.3683
7.69	-9.5978	0.1219	-0.4188	-0.0096	0.0146	-0.0113	33.6485	-13.1368	14.3915	-0.5862	0.3754	-0.6163	-0.3683
7.7	-9.5853	0.1068	-0.3910	-0.0055	-0.0007	-0.0093	33.9148	-13.4254	14.4626	-0.5862	0.3754	-0.6164	-0.3683
7.71	-9.5387	0.1153	-0.3649	0.0035	-0.0027	-0.0099	33.8855	-13.2795	14.6170	-0.5862	0.3753	-0.6164	-0.3683
7.72	-9.5622	0.1210	-0.3821	0.0053	-0.0010	-0.0096	33.7969	-13.2076	14.3964	-0.5862	0.3752	-0.6164	-0.3683
7.73	-9.5678	0.1346	-0.3992	0.0051	-0.0025	-0.0095	33.8122	-13.0093	14.4076	-0.5862	0.3751	-0.6165	-0.3683
7.74	-9.5560	0.1576	-0.3670	0.0119	-0.0095	-0.0099	33.8271	-13.2514	14.3516	-0.5862	0.3750	-0.6165	-0.3682
7.75	-9.5229	0.1663	-0.3693	0.0103	-0.0175	-0.0094	33.7785	-13.1785	14.5826	-0.5863	0.3749	-0.6165	-0.3682
7.76	-9.5360	0.1681	-0.3624	0.0132	-0.0094	-0.0141	33.7193	-13.1689	14.6382	-0.5863	0.3748	-0.6166	-0.3682
7.77	-9.5098	0.1819	-0.3808	0.0120	-0.0113	-0.0098	33.7026	-13.2391	14.5610	-0.5864	0.3747	-0.6166	-0.3682
7.78	-9.4900	0.1876	-0.3598	0.0106	-0.0093	-0.0155	33.7697	-13.2299	14.5688	-0.5864	0.3746	-0.6166	-0.3681
7.79	-9.5129	0.1836	-0.3411	0.0094	-0.0121	-0.0241	33.7410	-13.1811	14.4870	-0.5865	0.3746	-0.6166	-0.3681
7.8	-9.5073	0.1834	-0.3759	0.0083	-0.0098	-0.0172	33.4351	-13.1610	14.4015	-0.5865	0.3745	-0.6167	-0.3680
7.81	-9.4838	0.1790	-0.3489	0.0065	-0.0084	-0.0206	33.7649	-13.3351	14.4856	-0.5866	0.3744	-0.6167	-0.3680
7.82	-9.4892	0.1858	-0.3356	0.0082	-0.0008	-0.0195	33.6975	-13.3067	14.4669	-0.5866	0.3744	-0.6167	-0.3680
7.83	-9.5067	0.1774	-0.3793	0.0020	0.0071	-0.0158	33.9133	-13.2904	14.2418	-0.5866	0.3743	-0.6168	-0.3679
7.84	-9.4943	0.1753	-0.3805	-0.0032	0.0046	-0.0200	34.1291	-13.1425	14.6492	-0.5866	0.3743	-0.6168	-0.3679
7.85	-9.4854	0.1724	-0.3494	-0.0098	-0.0004	-0.0101	34.3744	-12.8980	14.8808	-0.5866	0.3743	-0.6168	-0.3679
7.86	-9.4932	0.1746	-0.3708	-0.0097	0.0173	-0.0091	34.2293	-13.1022	14.7167	-0.5865	0.3743	-0.6169	-0.3679
7.87	-9.5159	0.1621	-0.3905	-0.0171	0.0189	-0.0095	33.9692	-13.9706	14.5115	-0.5864	0.3743	-0.6170	-0.3679
7.88	-9.5278	0.1503	-0.3948	-0.0144	0.0179	-0.0094	34.0156	-13.9533	14.3837	-0.5863	0.3743	-0.6170	-0.3679
7.89	-9.5441	0.1484	-0.3882	-0.0146	0.0156	-0.0097	33.9061	-13.1416	14.6435	-0.5862	0.3744	-0.6171	-0.3679
7.9	-9.5740	0.1415	-0.4008	-0.0155	0.0220	-0.0098	33.6794	-13.3354	14.8472	-0.5861	0.3744	-0.6172	-0.3679
7.91	-9.5717	0.1407	-0.4283	-0.0160	0.0138	-0.0081	33.6961	-12.9752	14.6237	-0.5860	0.3744	-0.6172	-0.3680
7.92	-9.5629	0.1419	-0.4155	-0.0087	0.0066	-0.0094	33.9892	-13.1247	14.4716	-0.5860	0.3744	-0.6173	-0.3680
7.93	-9.5834	0.1498	-0.4145	-0.0103	0.0106	-0.0097	33.9937	-13.1817	14.5217	-0.5859	0.3744	-0.6173	-0.3680
7.94	-9.5880	0.1595	-0.4492	-0.0006	0.0043	-0.0096	33.7768	-13.0563	14.4648	-0.5859	0.3743	-0.6174	-0.3680
7.95	-9.5914	0.1706	-0.4222	0.0004	0.0085	-0.0086	33.9737	-13.1859	14.5921	-0.5859	0.3743	-0.6175	-0.3680
7.96	-9.5730	0.1934	-0.4263	0.0075	-0.0107	-0.0095	33.8153	-13.2923	14.6837	-0.5859	0.3742	-0.6175	-0.3679
7.97	-9.5427	0.1979	-0.4364	0.0091	-0.0152	-0.0100	33.7435	-12.9806	14.7105	-0.5860	0.3741	-0.6175	-0.3679
7.98	-9.5515	0.2162	-0.4053	0.0071	-0.0160	-0.0132	33.8049	-13.1320	14.5590	-0.5860	0.3740	-0.6175	-0.3679
7.99	-9.5329	0.2269	-0.4324	0.0113	-0.0202	-0.0170	33.9695	-13.2934	14.3758	-0.5861	0.3739	-0.6175	-0.3679
8	-9.5055	0.2370	-0.4207	0.0150	-0.0244	-0.0134	34.0032	-13.4918	14.5482	-0.5862	0.3738	-0.6175	-0.3679
8.01	-9.5072	0.2397	-0.4009	0.0042	-0.0201	-0.0162	33.9403	-13.3939	14.4754	-0.5863	0.3737	-0.6175	-0.3679
8.02	-9.5495	0.2338	-0.4073	0.0022	-0.0083	-0.0242	34.1478	-13.3459	14.5426	-0.5863	0.3736	-0.6175	-0.3679
8.03	-9.5795	0.2306	-0.4407	0.0025	-0.0191	-0.0176	34.0086	-13.3751	14.3641	-0.5864	0.3736	-0.6175	-0.3679
8.04	-9.6015	0.2281	-0.4091	-0.0043	-0.0289	-0.0155	33.8962	-13.3533	14.4864	-0.5865	0.3735	-0.6174	-0.3679
8.05	-9.5637	0.2293	-0.4322	-0.0078	-0.0299	-0.0164	33.8129	-13.3821	14.6537	-0.5866	0.3734	-0.6173	-0.3680
8.06	-9.5463	0.2203	-0.4217	-0.0116	-0.0379	-0.0180	33.9496	-13.2749	14.4745	-0.5867	0.3734	-0.6172	-0.3680
8.07	-9.6359	0.2050	-0.4078	-0.0149	-0.0399	-0.0188	33.9324	-13.2721	14.6282	-0.5868	0.3733	-0.6171	-0.3681
8.08	-9.6363	0.1747	-0.4894	-0.0123	-0.0493	-0.0213	33.9396	-13.2725	14.3969	-0.5869	0.3732	-0.6170	-0.3682
8.09	-9.6075	0.1275	-0.4443	-0.0180	-0.0574	-0.0236	33.6600	-13.0193	14.4780	-0.5871	0.3732	-0.6168	-0.3683
8.1	-9.6305	0.1519	-0.3977	-0.0131	-0.0592	-0.0137	33.7668	-12.9999	14.5050	-0.5872	0.3730	-0.6166	-0.3685
8.11	-9.6731	0.1459	-0.4268	-0.0121	-0.0591	-0.0103	33.9991	-13.2691	14.4987	-0.5874	0.3729	-0.6165	-0.3686
8.12	-9.6378	0.1606	-0.4603	-0.0043	-0.0660	-0.0117	33.8633	-13.2621	14.6891	-0.5875	0.3728	-0.6163	-0.3687
8.13	-9.6063	0.1781	-0.4540	-0.0078	-0.0708	-0.0034	33.8269	-13.3178	14.2921	-0.5877	0.3726	-0.6162	-0.3689
8.14	-9.6255	0.1714	-0.4809	-0.0121	-0.0700	-0.0096	33.9789	-12.9229	14.3354	-0.5879	0.3724	-0.6160	-0.3691
8.15	-9.6318	0.1577	-0.5035	-0.0124	-0.0823	-0.0122	33.8811	-13.2841	14.7095	-0.5881	0.3723	-0.6158	-0.3692
8.16	-9.6251	0.1343	-0.4721	-0.0100	-0.1086	-0.0085	33.8491	-13.3396	14.4173	-0.5884	0.3720	-0.6155	-0.3695
8.17	-9.6198	0.1254	-0.4304	-0.0103	-0.1251	-0.0005	33.7514	-13.2296	14.3204	-0.5888	0.3718	-0.6152	-0.3697
8.18	-9.6117	0.1254	-0.4064	0.0007	-0.1210	0.0073	33.8896	-13.4428	14.2975	-0.5891	0.3714	-0.6149	-0.3700
8.19	-9.5955	0.1385	-0.3860	0.0141	-0.1306	0.0110	34.1349	-13.4177	14.3907	-0.5895	0.3710	-0.6146	-0.3703
8.2	-9.5426	0.1574	-0.3604	0.0044	-0.1353	0.0165	34.0852	-13.2568	14.3720	-0.5898	0.3706	-0.6143	-0.3706
8.21	-9.5154	0.1803	-0.3273	0.0050	-0.1326	0.0162	34.2533	-13.3801	14.0680	-0.5902	0.3702	-0.6140	-0.3709
8.22	-9.5055	0.2093	-0.3239	0.0104	-0.1186	0.0153	34.1262	-13.4969	14.2184	-0.5905	0.3699	-0.6138	-0.3712
8.23	-9.4755	0.1981	-0.3190	0.0156	-0.1253	0.0094	34.1878	-13.5843	14.1877	-0.5909	0.3695	-0.6135	-0.3714
8.24	-9.4727	0.2190	-0.2622	0.0124	-0.1224	0.0122	34.1171	-13.3460	14.0212	-0.5913	0.3691	-0.6133	-0.3716
8.25	-9.5076	0.2310	-0.2414	0.0108	-0.1073	0.0132	34.2381	-13.4856	14.1720	-0.5916	0.3687	-0.6130	-0.3719
8.26	-9.5073	0.2322	-0.2477	0.0130	-0.1058	0.0088	34.1207	-13.4017	13.9348	-0.5919	0.3684	-0.6128	-0.3721
8.27	-9.4817	0.2172	-0.2189	0.0109	-0.1023	0.0075	33.9096	-13.3501	14.0254	-0.5922	0.3680	-0.6126	-0.3723
8.28	-9.4681	0.2354	-0.1862	0.0129	-0.0939	0.0022	33.9491	-13.2969	14.1561	-0.5924	0.3677	-0.6124	-0.3724
8.29	-9.4643	0.2434	-0.1906	0.0149	-0.0844	0.0092	33.9356	-13.2393	13.8385	-0.5927	0.3674	-0.6123	-0.3726
8.3	-9.4703	0.2487	-0.1793	0.0165	-0.0768	0.0063	34.1412	-13.3775	13.7331	-0.5929	0.3671	-0.6122	-0.3727
8.31	-9.4779	0.2593	-0.1622	0.0144	-0.0726	0.0027	33.9574	-13.2765	14.2122	-0.5931	0.3668	-0.6120	-0.3729
8.32	-9.4636	0.2662	-0.1722	0.0156	-0.0600	-0.0032	33.7938	-13.0935	13.9223	-0.5933	0.3666	-0.6119	-0.3730
8.33	-9.4667	0.2638	-0.1459	0.0137	-0.0623	-0.0081	34.0994	-13.3610	13.9449	-0.5935	0.3664	-0.6118	-0.3730
8.34	-9.4658	0.2740	-0.1463	0.0152	-0.0604	-0.0110	34.3434	-13.1783	14.3345	-0.5937	0.3662	-0.6117	-0.3731
8.35	-9.4502	0.3005	-0.1365	0.0229	-0.0641	-0.0099	34.6164	-13.0446	14.4379	-0.5940	0.3659	-0.6116	-0.3731
8.36	-9.4490	0.2839	-0.0919	0.0190	-0.0570	-0.0103	34.1959	-13.3856	13.9785	-0.5942	0.3657	-0.6115	-0.3732
8.37	-9.4614	0.3070	-0.0937	0.0140	-0.0507	-0.0098	34.0632	-14.2228	13.7596	-0.5943	0.3655	-0.6114	-0.3732
8.38	-9.4600	0.3113	-0.1111	0.0146	-0.0512	-0.0120	34.2138	-14.1545	13.9075	-0.5945	0.3653	-0.6114	-0.3732
8.39	-9.4584	0.3258	-0.0855	0.0132	-0.0489	-0.0187	33.8326	-13.3658	13.8513	-0.5947	0.3652	-0.6113	-0.3733
8.4	-9.4508	0.3195	-0.0747	0.0110	-0.0470	-0.0211	33.9684	-13.6878	13.8737	-0.5949	0.3650	-0.6112	-0.3733
8.41	-9.4518	0.3023	-0.0873	0.0055	-0.0288	-0.0251	33.8082	-13.3992	13.8815	-0.5950	0.3650	-0.6111	-0.3733
8.42	-9.4435	0.3231	-0.0906	-0.0058	-0.0230	-0.0263	33.9187	-13.3972	13.7594	-0.5951	0.3649	-0.6110	-0.3733
8.43	-9.4703	0.3063	-0.0737	-0.0099	-0.0207	-0.0310	33.9117	-13.5240	13.6792	-0.5952	0.3649	-0.6110	-0.3733
8.44	-9.5016	0.2956	-0.0940	-0.0131	-0.0125	-0.0254	33.9112	-13.4386	13.8338	-0.5952	0.3649	-0.6109	-0.3733
8.45	-9.5191	0.2873	-0.1022	-0.0137	-0.0088	-0.0214	33.9150	-13.3252	13.6505	-0.5952	0.3649	-0.6109	-0.3733
8.46	-9.5243	0.2641	-0.1049	-0.0185	-0.0071	-0.0271	33.9109	-13.1966	13.7997	-0.5952	0.3650	-0.6109	-0.3733
8.47	-9.5372	0.2642	-0.1155	-0.0192	-0.0105	-0.0239	33.9259	-13.2719	13.8769	-0.5952	0.3650	-0.6108	-0.3734
8.48	-9.5597	0.2361	-0.1391	-0.0234	-0.0053	-0.0219	34.1011	-13.5431	13.8668	-0.5952	0.3650	-0.6108	-0.3734
8.49	-9.5935	0.2418	-0.1481	-0.0129	-0.0089	-0.0211	34.0852	-13.2831	13.8561	-0.5952	0.3650	-0.6107	-0.3734
8.5	-9.6531	0.2285	-0.1758	-0.0155	-0.0133	-0.0232	33.8918	-13.3407	13.9948	-0.5953	0.3650	-0.6107	-0.3734
8.51	-9.6823	0.2286	-0.2012	-0.0174	-0.0251	-0.0233	33.9004	-13.2446	13.8907	-0.5953	0.3650	-0.6106	-0.3735
8.52	-9.6873	0.2240	-0.1885	-0.0147	-0.0461	-0.0211	33.9992	-13.2723	13.8536	-0.5954	0.3650	-0.6105	-0.3736
8.53	-9.6598	0.2294	-0.1968	-0.0086	-0.0556	-0.0226	33.9958	-13.4384	13.8661	-0.5956	0.3649	-0.6103	-0.3737
8.54	-9.6354	0.2349	-0.1870	-0.0115	-0.0609	-0.0201	33.9040	-13.2339	13.8757	-0.5958	0.3648	-0.6101	-0.3738
8.55	-9.6049	0.2430	-0.1781	-0.0117	-0.0732	-0.0195	34.0985	-13.2592	13.8108	-0.5960	0.3647	-0.6099	-0.3739
8.56	-9.5933	0.2522	-0.1548	-0.0114	-0.0746	-0.0196	34.0935	-13.4302	13.6771	-0.5962	0.3645	-0.6097	-0.3740
8.57	-9.5861	0.2294	-0.1527	-0.0118	-0.0764	-0.0233	34.0817	-13.3676	13.6710	-0.5964	0.3644	-0.6095	-0.3742
8.58	-9.5732	0.2361	-0.1376	-0.0112	-0.0884	-0.0176	33.9590	-13.4773	13.7138	-0.5967	0.3643	-0.6092	-0.3743
8.59	-9.5716	0.2321	-0.1049	-0.0132	-0.0959	-0.0112	34.0901	-13.6972	13.5852	-0.5969	0.3641	-0.6090	-0.3745
8.6	-9.5826	0.2213	-0.0872	-0.0110	-0.0953	-0.0117	34.0103	-13.5649	13.7138	-0.5972	0.3639	-0.6087	-0.3747
8.61	-9.5844	0.2196	-0.0816	-0.0130	-0.0925	-0.0109	33.9745	-13.4558	13.4994	-0.5974	0.3637	-0.6085	-0.3749
8.62	-9.5861	0.2292	-0.0486	-0.0054	-0.0970	-0.0109	34.2658	-13.5550	13.4068	-0.5977	0.3635	-0.6082	-0.3751
8.63	-9.5196	0.2376	-0.0490	-0.0104	-0.1019	0.0052	34.1836	-13.6000	13.6427	-0.5980	0.3632	-0.6079	-0.3754
8.64	-9.5317	0.2485	0.0077	-0.0049	-0.1058	-0.0055	34.0963	-13.3635	13.5494	-0.5983	0.3630	-0.6077	-0.3756
8.65	-9.5665	0.2453	-0.0129	-0.0103	-0.0841	-0.0124	34.1794	-13.4222	13.4971	-0.5985	0.3628	-0.6074	-0.3758
8.66	-9.5310	0.2302	-0.0077	-0.0010	-0.0972	-0.0108	34.0081	-13.3780	13.4767	-0.5988	0.3626	-0.6072	-0.3759
8.67	-9.5068	0.2158	0.0530	0.0062	-0.1000	-0.0119	33.8937	-13.5119	13.6181	-0.5991	0.3623	-0.6069	-0.3761
8.68	-9.5306	0.2243	0.0667	0.0028	-0.0943	-0.0096	33.9511	-13.3554	13.4274	-0.5994	0.3621	-0.6067	-0.3762
8.69	-9.5400	0.2311	0.0494	0.0081	-0.0890	-0.0018	34.1642	-13.4787	13.4510	-0.5996	0.3618	-0.6065	-0.3764
8.7	-9.4545	0.2708	0.0533	0.0133	-0.0935	0.0028	33.9713	-13.4764	13.5244	-0.5999	0.3615	-0.6063	-0.3766
8.71	-9.3878	0.3036	0.1030	0.0163	-0.0863	-0.0025	34.0238	-13.6168	13.4904	-0.6002	0.3612	-0.6061	-0.3767
8.72	-9.3728	0.2947	0.0885	0.0073	-0.0658	-0.0094	34.1027	-13.5053	13.3639	-0.6004	0.3610	-0.6060	-0.3768
8.73	-9.3886	0.2916	0.0736	0.0112	-0.0563	-0.0062	34.0906	-13.3464	13.5016	-0.6006	0.3608	-0.6059	-0.3769
8.74	-9.4314	0.2891	0.1005	0.0041	-0.0504	-0.0104	34.0789	-13.5110	13.4122	-0.6007	0.3606	-0.6058	-0.3769
8.75	-9.4861	0.2847	0.0989	-0.0004	-0.0446	-0.0157	34.2208	-13.5954	13.2987	-0.6008	0.3605	-0.6057	-0.3770
8.76	-9.5137	0.2862	0.0890	0.0088	-0.0470	-0.0125	34.1093	-13.7153	13.1430	-0.6010	0.3603	-0.6056	-0.3770
8.77	-9.4800	0.2805	0.1086	-0.0002	-0.0448	-0.0187	34.4220	-13.5740	13.1977	-0.6012	0.3602	-0.6055	-0.3771
8.78	-9.4502	0.2949	0.1386	0.0081	-0.0504	-0.0197	34.4726	-13.4908	13.3414	-0.6013	0.3601	-0.6054	-0.3771
8.79	-9.4366	0.2966	0.1354	0.0039	-0.0360	-0.0167	34.1586	-13.7228	13.1799	-0.6014	0.3600	-0.6053	-0.3772
8.8	-9.4399	0.2888	0.1255	-0.0026	-0.0286	-0.0223	34.2403	-13.3946	13.2950	-0.6015	0.3599	-0.6053	-0.3772
8.81	-9.4172	0.2813	0.1249	-0.0106	-0.0337	-0.0257	34.3079	-13.4837	13.3450	-0.6016	0.3599	-0.6052	-0.3772
8.82	-9.4407	0.2669	0.1593	-0.0084	-0.0241	-0.0281	34.0054	-13.5019	13.1658	-0.6017	0.3598	-0.6051	-0.3772
8.83	-9.4895	0.2618	0.1421	-0.0002	-0.0087	-0.0283	34.2223	-13.6297	13.3283	-0.6018	0.3598	-0.6051	-0.3772
8.84	-9.4750	0.2482	0.1073	0.0051	-0.0136	-0.0306	34.5242	-13.4528	13.4947	-0.6019	0.3598	-0.6050	-0.3771
8.85	-9.4660	0.2325	0.1533	-0.0103	-0.0178	-0.0292	34.7220	-13.0448	13.6039	-0.6019	0.3598	-0.6050	-0.3771
8.86	-9.4767	0.2294	0.1404	-0.0048	0.0027	-0.0261	34.7360	-13.2815	13.5875	-0.6019	0.3598	-0.6050	-0.3771
8.87	-9.4898	0.2200	0.1126	0.0038	0.0053	-0.0129	34.5069	-14.1670	13.3522	-0.6019	0.3598	-0.6050	-0.3770
8.88	-9.4929	0.2330	0.1274	0.0088	0.0066	-0.0083	34.4846	-14.1782	13.3316	-0.6019	0.3597	-0.6051	-0.3770
8.89	-9.4935	0.2321	0.1201	0.0143	0.0124	-0.0138	34.5248	-13.2075	13.1756	-0.6019	0.3596	-0.6052	-0.3769
8.9	-9.4717	0.2263	0.0980	0.0138	0.0144	-0.0170	34.3520	-13.5233	13.2456	-0.6019	0.3596	-0.6053	-0.3768
8.91	-9.4748	0.2345	0.1019	0.0143	0.0164	-0.0137	34.1173	-13.5914	13.4035	-0.6018	0.3595	-0.6054	-0.3768
8.92	-9.4756	0.2493	0.0816	0.0143	0.0132	-0.0113	34.3451	-13.4395	13.3134	-0.6018	0.3595	-0.6056	-0.3767
8.93	-9.4946	0.2695	0.0947	0.0188	0.0176	-0.0098	34.7002	-13.7466	13.1681	-0.6018	0.3594	-0.6057	-0.3766
8.94	-9.5180	0.2823	0.0975	0.0195	0.0221	-0.0112	34.6543	-13.6464	13.3015	-0.6018	0.3593	-0.6058	-0.3765
8.95	-9.5470	0.3003	0.0757	0.0140	0.0181	-0.0071	34.5118	-13.4382	13.2849	-0.6017	0.3593	-0.6060	-0.3764
8.96	-9.5633	0.3214	0.0850	0.0146	0.0166	-0.0113	34.5126	-13.5806	13.4395	-0.6017	0.3592	-0.6061	-0.3763
8.97	-9.5560	0.3201	0.0803	0.0139	0.0172	-0.0138	34.6666	-13.5497	13.6124	-0.6016	0.3591	-0.6062	-0.3762
8.98	-9.5702	0.3274	0.0816	0.0103	0.0082	-0.0156	34.4717	-13.5572	13.3707	-0.6016	0.3591	-0.6063	-0.3762
8.99	-9.5758	0.3224	0.0627	0.0099	0.0081	-0.0138	34.3220	-13.5696	13.4222	-0.6016	0.3590	-0.6064	-0.3761
9	-9.5545	0.3174	0.0588	-0.0015	0.0070	-0.0106	34.3406	-13.5373	13.3664	-0.6016	0.3590	-0.6064	-0.3761
9.01	-9.5486	0.3152	0.0734	-0.0123	0.0076	-0.0157	34.1751	-13.6230	13.4632	-0.6016	0.3590	-0.6065	-0.3761
9.02	-9.5639	0.3061	0.0571	-0.0139	0.0024	-0.0183	34.1408	-13.6131	13.4959	-0.6015	0.3590	-0.6065	-0.3761
9.03	-9.5755	0.2916	0.0492	-0.0128	0.0090	-0.0198	34.2670	-13.3388	13.4964	-0.6015	0.3591	-0.6065	-0.3761
9.04	-9.5662	0.2759	0.0505	-0.0118	0.0060	-0.0139	34.4993	-13.2867	13.3131	-0.6014	0.3591	-0.6065	-0.3761
9.05	-9.5667	0.2718	0.0550	-0.0143	0.0054	-0.0120	34.3238	-13.3055	13.3563	-0.6014	0.3591	-0.6066	-0.3761
9.06	-9.5818	0.2702	0.0525	-0.0152	0.0105	-0.0176	34.4425	-13.2761	13.4063	-0.6013	0.3591	-0.6066	-0.3761
9.07	-9.5893	0.2622	0.0442	-0.0105	-0.0012	-0.0227	34.3065	-13.4303	13.3943	-0.6013	0.3591	-0.6066	-0.3761
9.08	-9.5916	0.2573	0.0489	-0.0111	-0.0050	-0.0235	34.2340	-13.4624	13.3773	-0.6013	0.3591	-0.6066	-0.3761
9.09	-9.5809	0.2490	0.0524	-0.0071	-0.0097	-0.0235	34.2496	-13.2757	13.4702	-0.6014	0.3591	-0.6066	-0.3761
9.1	-9.5667	0.2425	0.0581	0.0025	-0.0201	-0.0224	34.3439	-13.3818	13.4924	-0.6015	0.3591	-0.6065	-0.3761
9.11	-9.5663	0.2404	0.0595	0.0049	-0.0219	-0.0200	34.3358	-13.6506	13.3718	-0.6015	0.3590	-0.6065	-0.3761
9.12	-9.5665	0.2469	0.0690	0.0064	-0.0230	-0.0171	34.3622	-13.5894	13.4088	-0.6016	0.3589	-0.6065	-0.3760
9.13	-9.5540	0.2461	0.0719	0.0112	-0.0265	-0.0280	34.5694	-13.5464	13.4427	-0.6017	0.3588	-0.6064	-0.3760
9.14	-9.5399	0.2525	0.0831	0.0130	-0.0303	-0.0232	34.2551	-13.5581	13.7630	-0.6019	0.3587	-0.6064	-0.3760
9.15	-9.5203	0.2585	0.0856	0.0134	-0.0307	-0.0232	34.3205	-13.5737	13.5411	-0.6020	0.3586	-0.6064	-0.3759
9.16	-9.5054	0.2588	0.1011	0.0103	-0.0242	-0.0237	34.4926	-13.4930	13.2653	-0.6021	0.3585	-0.6063	-0.3759
9.17	-9.4964	0.2680	0.1008	0.0160	-0.0201	-0.0178	34.3017	-13.4581	13.4039	-0.6022	0.3584	-0.6063	-0.3759
9.18	-9.4768	0.2745	0.0889	0.0127	-0.0229	-0.0151	34.2549	-13.4839	13.4120	-0.6023	0.3583	-0.6063	-0.3758
9.19	-9.4579	0.2889	0.1029	0.0023	-0.0251	-0.0200	34.4164	-13.4593	13.5284	-0.6024	0.3582	-0.6063	-0.3758
9.2	-9.4705	0.2946	0.1353	0.0056	-0.0132	-0.0186	34.4309	-13.4910	13.4008	-0.6024	0.3581	-0.6063	-0.3758
9.21	-9.4837	0.2877	0.0979	0.0085	-0.0082	-0.0138	34.5203	-13.3534	13.3746	-0.6025	0.3581	-0.6063	-0.3758
9.22	-9.4992	0.2965	0.0999	0.0107	-0.0170	-0.0185	34.5320	-13.4175	13.4417	-0.6026	0.3580	-0.6063	-0.3758
9.23	-9.4873	0.3000	0.1076	0.0065	-0.0038	-0.0229	34.4672	-13.2907	13.4985	-0.6026	0.3579	-0.6063	-0.3757
9.24	-9.4359	0.3122	0.0835	0.0040	-0.0013	-0.0178	34.3292	-13.3864	13.4809	-0.6026	0.3579	-0.6063	-0.3757
9.25	-9.4985	0.3208	0.1182	0.0064	0.0104	-0.0236	34.2299	-13.3726	13.5921	-0.6026	0.3579	-0.6064	-0.3756
9.26	-9.5193	0.3029	0.0497	-0.0012	0.0122	-0.0326	34.2832	-13.4192	13.4063	-0.6026	0.3579	-0.6065	-0.3755
9.27	-9.4853	0.2788	0.0618	0.0038	0.0006	-0.0320	34.4429	-13.2361	13.3770	-0.6026	0.3579	-0.6065	-0.3754
9.28	-9.5071	0.2834	0.1171	0.0071	0.0065	-0.0348	34.4204	-13.0939	13.4102	-0.6027	0.3579	-0.6065	-0.3753
9.29	-9.5605	0.2769	0.0639	0.0070	0.0198	-0.0297	34.4489	-13.2655	13.3436	-0.6026	0.3579	-0.6066	-0.3752
9.3	-9.5566	0.2766	0.0310	0.0094	0.0155	-0.0218	34.3908	-13.5451	13.3179	-0.6026	0.3579	-0.6067	-0.3751
9.31	-9.5001	0.3244	0.0456	0.0105	0.0101	-0.0213	34.5566	-13.5572	13.6066	-0.6026	0.3579	-0.6067	-0.3750
9.32	-9.4572	0.3275	0.0478	0.0042	0.0221	-0.0325	34.3486	-13.5755	13.5811	-0.6026	0.3579	-0.6068	-0.3749
9.33	-9.4709	0.3046	-0.0064	-0.0090	0.0342	-0.0341	34.5957	-13.6495	13.4056	-0.6025	0.3580	-0.6069	-0.3748
9.34	-9.4979	0.3152	-0.0267	-0.0137	0.0332	-0.0345	34.9867	-13.4586	13.4862	-0.6024	0.3582	-0.6070	-0.3747
9.35	-9.5365	0.2804	-0.0034	-0.0153	0.0322	-0.0336	35.0542	-13.2536	13.9589	-0.6023	0.3583	-0.6071	-0.3746
9.36	-9.5886	0.2729	-0.0308	-0.0112	0.0356	-0.0341	34.5578	-13.3981	13.3013	-0.6023	0.3584	-0.6071	-0.3745
9.37	-9.6122	0.2776	-0.0532	-0.0196	0.0268	-0.0348	34.3271	-14.2549	13.4469	-0.6022	0.3585	-0.6072	-0.3744
9.38	-9.5988	0.2634	-0.0454	-0.0176	0.0081	-0.0351	34.4462	-13.9690	13.6442	-0.6021	0.3586	-0.6072	-0.3743
9.39	-9.5819	0.2577	-0.0405	-0.0173	0.0059	-0.0331	34.2435	-13.2194	13.4556	-0.6021	0.3587	-0.6072	-0.3743
9.4	-9.5939	0.2521	-0.0553	-0.0196	0.0102	-0.0354	34.2879	-13.2775	13.3384	-0.6021	0.3588	-0.6072	-0.3743
9.41	-9.5810	0.2381	-0.0746	-0.0316	0.0084	-0.0349	34.0602	-13.1048	13.3401	-0.6020	0.3589	-0.6071	-0.3743
9.42	-9.5478	0.2388	-0.0569	-0.0204	0.0038	-0.0325	34.1379	-13.4818	13.4564	-0.6020	0.3590	-0.6071	-0.3742
9.43	-9.5760	0.2255	-0.0314	-0.0258	0.0029	-0.0273	34.4781	-13.3342	13.2122	-0.6020	0.3591	-0.6071	-0.3743
9.44	-9.6086	0.2468	-0.0715	-0.0131	-0.0013	-0.0249	34.0148	-13.3331	13.2975	-0.6020	0.3592	-0.6071	-0.3743
9.45	-9.5962	0.2526	-0.0595	-0.0249	-0.0082	-0.0258	34.1609	-13.2296	13.5940	-0.6020	0.3592	-0.6070	-0.3743
9.46	-9.5727	0.2250	-0.0347	-0.0191	-0.0151	-0.0266	34.1234	-13.2212	13.4979	-0.6020	0.3592	-0.6070	-0.3743
9.47	-9.5804	0.2509	-0.0372	-0.0203	-0.0166	-0.0205	34.0469	-13.2357	13.4377	-0.6020	0.3592	-0.6069	-0.3744
9.48	-9.5837	0.2555	-0.0461	-0.0251	-0.0240	-0.0140	34.0379	-13.4315	13.4034	-0.6021	0.3592	-0.6068	-0.3745
9.49	-9.5713	0.2678	-0.0322	-0.0106	-0.0232	-0.0185	34.1528	-13.2781	13.3672	-0.6021	0.3592	-0.6068	-0.3745
9.5	-9.5467	0.2798	-0.0282	-0.0153	-0.0312	-0.0186	34.2326	-13.5912	13.4813	-0.6022	0.3592	-0.6067	-0.3746
9.51	-9.5269	0.2552	-0.0076	-0.0144	-0.0266	-0.0288	34.2759	-13.2991	13.5496	-0.6023	0.3592	-0.6066	-0.3746
9.52	-9.5348	0.2734	-0.0176	-0.0100	-0.0181	-0.0325	34.3448	-13.2567	13.2349	-0.6023	0.3592	-0.6065	-0.3746
9.53	-9.5273	0.2543	-0.0186	-0.0105	-0.0225	-0.0324	34.3118	-13.4349	13.5452	-0.6024	0.3592	-0.6064	-0.3746
9.54	-9.5115	0.2515	-0.0009	-0.0092	-0.0183	-0.0366	34.3195	-13.2721	13.4646	-0.6025	0.3592	-0.6064	-0.3746
9.55	-9.5282	0.2578	0.0118	-0.0132	-0.0218	-0.0346	34.1353	-13.5354	13.3064	-0.6026	0.3592	-0.6063	-0.3746
9.56	-9.5255	0.2339	-0.0123	-0.0145	-0.0212	-0.0375	34.1472	-13.3891	13.3856	-0.6027	0.3593	-0.6062	-0.3746
9.57	-9.5207	0.2732	0.0147	-0.0100	-0.0274	-0.0359	34.2404	-13.2100	13.6274	-0.6028	0.3593	-0.6061	-0.3746
9.58	-9.5053	0.2426	0.0170	-0.0195	-0.0210	-0.0342	34.1004	-13.2044	13.5441	-0.6028	0.3593	-0.6060	-0.3746
9.59	-9.4887	0.2271	0.0143	-0.0226	-0.0228	-0.0369	34.5010	-13.0384	13.3820	-0.6029	0.3593	-0.6059	-0.3746
9.6	-9.4881	0.2261	0.0156	-0.0309	-0.0116	-0.0394	34.5115	-13.1281	13.4212	-0.6029	0.3595	-0.6058	-0.3746
9.61	-9.5083	0.2115	0.0099	-0.0304	-0.0137	-0.0349	34.2505	-13.1762	13.3427	-0.6029	0.3595	-0.6057	-0.3746
9.62	-9.5362	0.1869	0.0041	-0.0318	-0.0123	-0.0361	34.2238	-13.4277	13.3500	-0.6030	0.3596	-0.6056	-0.3747
9.63	-9.5622	0.1740	-0.0021	-0.0317	-0.0169	-0.0345	34.2452	-13.3219	13.4339	-0.6030	0.3597	-0.6055	-0.3747
9.64	-9.5550	0.1888	-0.0006	-0.0303	-0.0094	-0.0366	34.2119	-13.2919	13.2697	-0.6030	0.3598	-0.6054	-0.3747
9.65	-9.5420	0.1727	0.0041	-0.0255	-0.0146	-0.0236	34.2753	-13.3600	13.6433	-0.6030	0.3599	-0.6053	-0.3748
9.66	-9.5367	0.1878	0.0146	-0.0159	-0.0186	-0.0247	34.1163	-13.1635	13.4268	-0.6031	0.3599	-0.6052	-0.3748
9.67	-9.5324	0.1916	0.0173	-0.0120	-0.0216	-0.0186	34.3448	-13.1218	13.2893	-0.6031	0.3599	-0.6052	-0.3749
9.68	-9.5405	0.1941	0.0144	-0.0185	-0.0173	-0.0153	34.5205	-13.3684	13.4256	-0.6031	0.3598	-0.6051	-0.3749
9.69	-9.5379	0.2039	0.0168	-0.0187	-0.0179	-0.0167	34.5358	-13.2640	13.2050	-0.6031	0.3598	-0.6051	-0.3750
9.7	-9.5433	0.2001	0.0233	-0.0132	-0.0215	-0.0205	34.2758	-13.1135	13.2745	-0.6032	0.3598	-0.6050	-0.3750
9.71	-9.5498	0.2025	0.0172	-0.0212	-0.0226	-0.0140	34.0998	-13.3535	13.4445	-0.6032	0.3598	-0.6049	-0.3751
9.72	-9.5562	0.2109	0.0251	-0.0105	-0.0177	-0.0181	34.1749	-13.5413	13.4798	-0.6033	0.3598	-0.6049	-0.3752
9.73	-9.5543	0.2080	0.0312	-0.0076	-0.0231	-0.0204	34.3483	-13.1829	13.3475	-0.6033	0.3597	-0.6049	-0.3752
9.74	-9.5459	0.2050	0.0307	-0.0116	-0.0236	-0.0193	34.5644	-13.0068	13.5145	-0.6034	0.3597	-0.6048	-0.3752
9.75	-9.5480	0.2029	0.0373	-0.0091	-0.0251	-0.0216	34.2060	-13.3135	13.4667	-0.6034	0.3597	-0.6047	-0.3753
9.76	-9.5546	0.2099	0.0382	-0.0107	-0.0273	-0.0234	34.1715	-13.4252	13.1867	-0.6035	0.3596	-0.6046	-0.3753
9.77	-9.5342	0.1949	0.0323	-0.0100	-0.0261	-0.0277	34.2642	-13.1157	13.3129	-0.6036	0.3596	-0.6046	-0.3753
9.78	-9.5172	0.2037	0.0538	-0.0083	-0.0335	-0.0253	34.2116	-13.1598	13.1954	-0.6037	0.3596	-0.6045	-0.3753
9.79	-9.5328	0.2081	0.0600	-0.0111	-0.0281	-0.0210	34.3887	-13.2321	13.2361	-0.6038	0.3595	-0.6044	-0.3754
9.8	-9.5481	0.2126	0.0460	-0.0145	-0.0202	-0.0169	34.4197	-13.2432	13.3845	-0.6038	0.3595	-0.6043	-0.3754
9.81	-9.5469	0.2169	0.0669	-0.0184	-0.0287	-0.0171	34.4014	-13.1301	13.4249	-0.6039	0.3595	-0.6042	-0.3755
9.82	-9.5407	0.2287	0.0724	-0.0258	-0.0291	-0.0186	34.5343	-13.0506	13.2389	-0.6039	0.3595	-0.6041	-0.3756
9.83	-9.5385	0.2389	0.0723	-0.0251	-0.0248	-0.0232	34.4626	-13.4701	13.5996	-0.6040	0.3595	-0.6040	-0.3757
9.84	-9.5324	0.1979	0.0720	-0.0344	-0.0208	-0.0181	34.6213	-13.2588	13.6676	-0.6040	0.3595	-0.6039	-0.3758
9.85	-9.5366	0.2266	0.0810	-0.0149	-0.0243	-0.0210	34.9731	-12.8857	13.3359	-0.6040	0.3595	-0.6039	-0.3759
9.86	-9.5428	0.2134	0.0617	-0.0279	-0.0237	-0.0155	34.7955	-13.2252	13.4412	-0.6041	0.3595	-0.6038	-0.3759
9.87	-9.5256	0.1895	0.0468	-0.0308	-0.0295	-0.0145	34.5844	-13.8138	13.1885	-0.6041	0.3595	-0.6037	-0.3761
9.88	-9.5454	0.2017	0.1007	-0.0298	-0.0383	-0.0153	34.5578	-13.8374	13.1011	-0.6041	0.3595	-0.6035	-0.3762
9.89	-9.5678	0.1895	0.0699	-0.0309	-0.0306	-0.0161	34.5537	-13.3024	13.2218	-0.6042	0.3595	-0.6034	-0.3763
9.9	-9.5702	0.2265	0.0730	-0.0231	-0.0393	-0.0144	34.4956	-13.3688	13.1984	-0.6042	0.3595	-0.6033	-0.3765
9.91	-9.5619	0.1801	0.1117	-0.0273	-0.0432	-0.0181	34.6705	-13.2417	13.2067	-0.6043	0.3594	-0.6031	-0.3766
9.92	-9.5176	0.1972	0.0986	-0.0227	-0.0413	-0.0128	34.6897	-13.3105	13.1906	-0.6044	0.3594	-0.6030	-0.3767
9.93	-9.5698	0.2148	0.1404	-0.0304	-0.0458	-0.0139	34.3865	-13.3763	13.4640	-0.6045	0.3593	-0.6029	-0.3769
9.94	-9.5752	0.1862	0.1004	-0.0344	-0.0368	-0.0182	34.5002	-13.3751	13.0805	-0.6045	0.3593	-0.6027	-0.3770
9.95	-9.5082	0.1789	0.1246	-0.0168	-0.0493	-0.0109	34.6280	-13.3854	12.9922	-0.6046	0.3593	-0.6026	-0.3771
9.96	-9.5138	0.1817	0.1942	-0.0227	-0.0431	-0.0139	34.4439	-13.1835	13.0322	-0.6047	0.3592	-0.6025	-0.3773
9.97	-9.5600	0.1890	0.1594	-0.0265	-0.0307	-0.0117	34.5321	-13.0495	13.0016	-0.6048	0.3592	-0.6024	-0.3774
9.98	-9.5591	0.2119	0.1514	-0.0180	-0.0384	-0.0112	34.4081	-13.0432	13.0217	-0.6048	0.3591	-0.6023	-0.3775
9.99	-9.4893	0.2385	0.1758	-0.0171	-0.0444	-0.0120	34.3961	-13.3259	12.9976	-0.6049	0.3590	-0.6021	-0.3776
10	-9.4175	0.2358	0.1726	-0.0163	-0.0332	-0.0100	34.5080	-13.1463	13.2717	-0.6050	0.3590	-0.6020	-0.3777
10.01	-9.4107	0.2305	0.1699	-0.0179	-0.0245	-0.0119	34.3114	-13.1027	13.2678	-0.6050	0.3589	-0.6020	-0.3778
10.02	-9.4187	0.2302	0.1509	-0.0240	-0.0055	-0.0211	34.3619	-13.1060	13.0844	-0.6050	0.3590	-0.6019	-0.3778
10.03	-9.4415	0.2059	0.1555	-0.0225	-0.0030	-0.0244	34.5372	-13.2104	13.1306	-0.6050	0.3590	-0.6019	-0.3779
10.04	-9.4954	0.1964	0.1606	-0.0343	-0.0041	-0.0168	34.5549	-13.0605	13.0651	-0.6050	0.3591	-0.6019	-0.3779
10.05	-9.5339	0.2134	0.1298	-0.0252	-0.0038	-0.0167	34.4596	-13.2155	12.9963	-0.6049	0.3591	-0.6018	-0.3780
10.06	-9.5243	0.1910	0.1285	-0.0172	-0.0121	-0.0223	34.5689	-13.4778	13.0343	-0.6049	0.3591	-0.6018	-0.3780
10.07	-9.5180	0.2152	0.1636	-0.0120	-0.0128	-0.0175	34.6098	-13.5684	13.0184	-0.6050	0.3591	-0.6018	-0.3781
10.08	-9.5172	0.2216	0.1335	-0.0235	-0.0033	-0.0230	34.6456	-13.5111	13.0307	-0.6049	0.3592	-0.6017	-0.3781
10.09	-9.5401	0.2236	0.1265	-0.0104	-0.0124	-0.0264	34.5340	-13.1453	13.0084	-0.6050	0.3592	-0.6017	-0.3781
10.1	-9.5190	0.2098	0.1328	-0.0220	-0.0167	-0.0217	34.7015	-13.4265	13.0306	-0.6050	0.3592	-0.6017	-0.3781
10.11	-9.5162	0.1868	0.1665	-0.0218	-0.0021	-0.0221	34.5162	-13.3046	13.0081	-0.6050	0.3592	-0.6016	-0.3782
10.12	-9.5416	0.2204	0.1277	-0.0149	0.0076	-0.0274	34.6736	-13.3537	13.0366	-0.6049	0.3593	-0.6016	-0.3781
10.13	-9.5597	0.2184	0.1287	-0.0236	-0.0024	-0.0201	34.5970	-13.3041	12.9943	-0.6049	0.3593	-0.6016	-0.3782
10.14	-9.5345	0.1854	0.1441	-0.0198	-0.0073	-0.0158	34.3645	-13.1929	13.0550	-0.6049	0.3594	-0.6016	-0.3782
10.15	-9.5512	0.2036	0.1377	-0.0151	-0.0034	-0.0124	34.4157	-13.2999	13.2402	-0.6049	0.3594	-0.6016	-0.3782
10.16	-9.5427	0.1981	0.1188	-0.0189	-0.0117	-0.0104	34.3853	-13.0903	13.1853	-0.6049	0.3593	-0.6016	-0.3783
10.17	-9.5396	0.2036	0.1450	-0.0124	-0.0142	-0.0104	34.4960	-13.1174	13.2054	-0.6049	0.3593	-0.6016	-0.3784
10.18	-9.5356	0.2129	0.1365	-0.0225	-0.0101	-0.0122	34.3820	-13.1146	12.9617	-0.6049	0.3593	-0.6015	-0.3784
10.19	-9.5282	0.2115	0.1168	-0.0315	-0.0126	-0.0106	34.4029	-13.4598	13.0688	-0.6048	0.3593	-0.6015	-0.3785
10.2	-9.5211	0.2112	0.1332	-0.0191	-0.0148	-0.0108	34.4013	-13.4092	13.2319	-0.6048	0.3593	-0.6014	-0.3786
10.21	-9.5167	0.2002	0.1223	-0.0174	-0.0119	-0.0173	34.3909	-13.1526	13.0613	-0.6048	0.3593	-0.6014	-0.3787
10.22	-9.5182	0.2010	0.1191	-0.0155	-0.0117	-0.0193	34.4247	-13.2403	13.1883	-0.6048	0.3593	-0.6014	-0.3787
10.23	-9.5161	0.1891	0.1277	-0.0107	-0.0077	-0.0176	34.3196	-13.3478	13.1026	-0.6048	0.3593	-0.6014	-0.3787
10.24	-9.5136	0.1969	0.1303	-0.0129	-0.0045	-0.0193	34.3713	-13.4768	12.8761	-0.6048	0.3593	-0.6014	-0.3787
10.25	-9.5158	0.1915	0.1253	-0.0071	-0.0074	-0.0178	34.6536	-13.5598	13.0920	-0.6048	0.3593	-0.6014	-0.3787
10.26	-9.5352	0.1999	0.1263	-0.0103	-0.0051	-0.0197	34.6404	-13.3802	13.2808	-0.6048	0.3593	-0.6014	-0.3787
10.27	-9.5440	0.2010	0.1161	-0.0128	-0.0010	-0.0225	34.4667	-13.3722	13.0090	-0.6048	0.3593	-0.6014	-0.3787
10.28	-9.5349	0.1992	0.1219	-0.0113	-0.0069	-0.0148	34.5976	-13.3771	13.1301	-0.6048	0.3593	-0.6014	-0.3787
10.29	-9.5385	0.2020	0.1340	-0.0077	0.0003	-0.0183	34.5573	-13.2444	13.0793	-0.6048	0.3593	-0.6014	-0.3787
10.3	-9.5430	0.2036	0.1181	-0.0131	0.0024	-0.0136	34.4141	-13.5689	12.9940	-0.6048	0.3593	-0.6014	-0.3787
10.31	-9.5278	0.2056	0.1188	-0.0163	-0.0109	-0.0106	34.3100	-13.3836	13.0434	-0.6048	0.3593	-0.6014	-0.3788
10.32	-9.5223	0.2038	0.1225	-0.0115	-0.0067	-0.0098	34.4026	-13.3705	12.9898	-0.6048	0.3593	-0.6014	-0.3788
10.33	-9.5393	0.1991	0.1166	-0.0164	-0.0057	-0.0104	34.5835	-13.3537	13.2536	-0.6047	0.3592	-0.6014	-0.3789
10.34	-9.5507	0.2001	0.1031	-0.0190	-0.0072	-0.0099	34.8025	-13.2070	13.5711	-0.6047	0.3592	-0.6014	-0.3789
10.35	-9.5546	0.2012	0.1121	-0.0163	-0.0075	-0.0093	35.0691	-12.8711	13.6751	-0.6047	0.3592	-0.6014	-0.3790
10.36	-9.5473	0.2046	0.1106	-0.0159	-0.0064	-0.0095	34.7186	-13.2502	13.2835	-0.6047	0.3592	-0.6014	-0.3791
10.37	-9.5430	0.2004	0.1117	-0.0117	-0.0069	-0.0091	34.4531	-14.1142	13.2741	-0.6047	0.3592	-0.6014	-0.3791
10.38	-9.5284	0.2003	0.1197	-0.0092	-0.0040	-0.0093	34.2095	-14.0066	13.1539	-0.6046	0.3591	-0.6014	-0.3791
10.39	-9.5160	0.2073	0.1200	-0.0080	-0.0042	-0.0091	34.3897	-12.9580	13.0926	-0.6046	0.3591	-0.6014	-0.3792
10.4	-9.5067	0.2087	0.1266	-0.0109	-0.0101	-0.0097	34.5535	-13.3800	13.1705	-0.6046	0.3591	-0.6014	-0.3792
10.41	-9.5090	0.2087	0.1293	-0.0056	-0.0117	-0.0144	34.3129	-13.1995	13.2646	-0.6046	0.3590	-0.6014	-0.3792
10.42	-9.5207	0.2195	0.1277	-0.0067	-0.0030	-0.0134	34.3651	-13.2417	13.0062	-0.6046	0.3590	-0.6014	-0.3792
10.43	-9.5204	0.2227	0.1325	-0.0054	-0.0093	-0.0129	34.4421	-13.4187	12.9360	-0.6046	0.3590	-0.6015	-0.3792
10.44	-9.5176	0.2259	0.1408	-0.0087	-0.0120	-0.0110	34.4355	-13.2393	13.1220	-0.6047	0.3589	-0.6015	-0.3793
10.45	-9.5185	0.2293	0.1263	-0.0043	-0.0002	-0.0152	34.4243	-13.4875	13.1294	-0.6046	0.3589	-0.6015	-0.3793
10.46	-9.5096	0.2306	0.1263	-0.0051	-0.0067	-0.0117	34.5382	-13.4907	13.1329	-0.6046	0.3588	-0.6015	-0.3793
10.47	-9.5025	0.2309	0.1386	-0.0061	-0.0091	-0.0145	34.5065	-13.4697	13.2637	-0.6046	0.3588	-0.6015	-0.3793
10.48	-9.4986	0.2345	0.1249	-0.0110	0.0036	-0.0122	34.3385	-13.2766	12.9114	-0.6046	0.3588	-0.6015	-0.3793
10.49	-9.5169	0.2372	0.1189	-0.0070	0.0077	-0.0129	34.3558	-13.0804	13.1315	-0.6046	0.3588	-0.6016	-0.3793
10.5	-9.5250	0.2406	0.1164	-0.0128	0.0060	-0.0155	34.4365	-13.4216	13.1132	-0.6045	0.3588	-0.6016	-0.3793
10.51	-9.5286	0.2366	0.1058	-0.0093	0.0030	-0.0136	34.4569	-13.4561	13.0077	-0.6045	0.3588	-0.6017	-0.3793
10.52	-9.5356	0.2285	0.1028	-0.0107	0.0025	-0.0163	34.3413	-13.3741	13.0461	-0.6045	0.3588	-0.6017	-0.3793
10.53	-9.5521	0.2247	0.1007	-0.0134	0.0065	-0.0119	34.3610	-13.4067	13.1203	-0.6044	0.3588	-0.6017	-0.3793
10.54	-9.5704	0.2197	0.0926	-0.0144	0.0078	-0.0161	34.4290	-13.4032	13.1520	-0.6044	0.3588	-0.6018	-0.3793
10.55	-9.5632	0.2197	0.0793	-0.0133	0.0087	-0.0179	34.2800	-13.3483	13.2977	-0.6043	0.3589	-0.6018	-0.3793
10.56	-9.5498	0.2140	0.0894	-0.0119	-0.0005	-0.0212	34.1401	-13.2721	13.3233	-0.6043	0.3589	-0.6018	-0.3793
10.57	-9.5528	0.2121	0.0915	-0.0108	0.0025	-0.0195	34.3183	-13.4580	13.2917	-0.6043	0.3589	-0.6018	-0.3792
10.58	-9.5627	0.2110	0.0776	-0.0109	0.0044	-0.0132	34.2919	-13.2966	13.2013	-0.6042	0.3589	-0.6019	-0.3792
10.59	-9.5649	0.2146	0.0785	-0.0112	-0.0069	-0.0169	34.3111	-13.1727	13.4739	-0.6042	0.3589	-0.6019	-0.3793
10.6	-9.5553	0.2221	0.0840	-0.0102	-0.0096	-0.0102	34.3648	-13.3409	13.0623	-0.6042	0.3589	-0.6019	-0.3793
10.61	-9.5340	0.2290	0.0836	-0.0082	-0.0078	-0.0093	34.2205	-13.4084	13.0713	-0.6042	0.3588	-0.6019	-0.3793
10.62	-9.5370	0.2435	0.1071	-0.0094	-0.0163	-0.0114	34.4706	-13.3917	13.1273	-0.6043	0.3588	-0.6019	-0.3794
10.63	-9.5415	0.2524	0.0925	-0.0094	-0.0138	-0.0105	34.3232	-13.4146	13.2194	-0.6043	0.3588	-0.6018	-0.3794
10.64	-9.5466	0.2573	0.0975	-0.0080	-0.0143	-0.0141	34.4743	-13.1787	13.2002	-0.6043	0.3587	-0.6018	-0.3794
10.65	-9.5191	0.2582	0.1086	-0.0093	-0.0177	-0.0135	34.2280	-13.4094	13.1265	-0.6043	0.3587	-0.6018	-0.3795
10.66	-9.5047	0.2669	0.1235	-0.0111	-0.0227	-0.0092	34.4075	-13.3252	13.2954	-0.6044	0.3586	-0.6018	-0.3795
10.67	-9.5670	0.2603	0.1293	-0.0107	-0.0125	-0.0098	34.3667	-13.3003	12.9764	-0.6044	0.3586	-0.6017	-0.3796
10.68	-9.5598	0.2475	0.0796	-0.0111	-0.0126	-0.0142	34.3261	-13.4265	13.2134	-0.6044	0.3585	-0.6017	-0.3796
10.69	-9.5055	0.2251	0.1320	-0.0121	-0.0260	-0.0201	34.3602	-13.3791	12.9741	-0.6044	0.3585	-0.6017	-0.3796
10.7	-9.5415	0.2432	0.1831	-0.0118	-0.0142	-0.0181	34.3300	-13.4319	12.9999	-0.6045	0.3585	-0.6016	-0.3797
10.71	-9.5845	0.2443	0.1188	-0.0118	-0.0048	-0.0142	34.3648	-13.1727	13.1548	-0.6045	0.3585	-0.6016	-0.3797
10.72	-9.5562	0.2597	0.1181	-0.0124	-0.0177	-0.0088	34.3103	-13.2831	12.9648	-0.6045	0.3584	-0.6016	-0.3797
10.73	-9.4731	0.2783	0.1387	-0.0113	-0.0183	-0.0083	34.2157	-13.5236	13.1686	-0.6045	0.3584	-0.6016	-0.3798
10.74	-9.4383	0.2648	0.1309	-0.0160	-0.0041	-0.0121	34.3718	-13.3733	13.3597	-0.6045	0.3584	-0.6016	-0.3798
10.75	-9.4558	0.2596	0.0944	-0.0191	0.0089	-0.0137	34.2050	-13.4262	13.1362	-0.6044	0.3584	-0.6016	-0.3799
10.76	-9.4687	0.2425	0.0655	-0.0205	0.0123	-0.0143	34.1718	-13.4986	13.0297	-0.6043	0.3585	-0.6016	-0.3799
10.77	-9.4946	0.2040	0.0822	-0.0185	0.0163	-0.0132	34.3820	-13.2080	13.2586	-0.6043	0.3585	-0.6017	-0.3799
10.78	-9.5497	0.1927	0.0904	-0.0120	0.0119	-0.0213	34.3026	-13.2276	13.0888	-0.6042	0.3586	-0.6017	-0.3799
10.79	-9.5949	0.1951	0.0572	-0.0144	0.0073	-0.0153	34.4244	-13.3397	13.1577	-0.6041	0.3586	-0.6018	-0.3798
10.8	-9.5822	0.2010	0.0605	0.0039	-0.0061	-0.0145	34.3527	-13.2786	13.0784	-0.6042	0.3585	-0.6018	-0.3798
10.81	-9.5536	0.2078	0.0847	0.0010	-0.0092	-0.0130	34.4428	-13.4051	13.2705	-0.6042	0.3585	-0.6018	-0.3798
10.82	-9.5601	0.2236	0.0828	0.0019	-0.0030	-0.0166	34.3940	-13.4918	13.0351	-0.6042	0.3584	-0.6019	-0.3798
10.83	-9.5838	0.2327	0.0699	0.0150	-0.0035	-0.0202	34.4023	-13.4941	13.3259	-0.6042	0.3584	-0.6019	-0.3797
10.84	-9.5592	0.2412	0.0624	0.0106	-0.0143	-0.0160	34.9204	-13.4389	13.3277	-0.6043	0.3583	-0.6019	-0.3797
10.85	-9.5584	0.2544	0.1128	0.0044	-0.0235	-0.0204	35.3841	-13.0544	12.9648	-0.6044	0.3581	-0.6019	-0.3796
10.86	-9.5875	0.2733	0.0953	-0.0018	-0.0070	-0.0183	34.8564	-13.2408	13.0390	-0.6045	0.3581	-0.6020	-0.3795
10.87	-9.5810	0.2702	0.0759	-0.0021	-0.0164	-0.0219	34.6598	-14.0351	13.0501	-0.6045	0.3580	-0.6019	-0.3795
10.88	-9.5449	0.2739	0.1118	-0.0073	-0.0252	-0.0171	34.4788	-14.2003	13.0444	-0.6046	0.3580	-0.6019	-0.3795
10.89	-9.5229	0.2802	0.1168	-0.0063	-0.0261	-0.0176	34.3684	-13.1952	13.0113	-0.6046	0.3579	-0.6018	-0.3796
10.9	-9.5313	0.2727	0.1167	-0.0080	-0.0176	-0.0201	34.5518	-13.2626	13.0102	-0.6047	0.3579	-0.6018	-0.3796
10.91	-9.5329	0.2706	0.1205	-0.0202	-0.0137	-0.0179	34.6227	-13.3379	13.0730	-0.6047	0.3579	-0.6017	-0.3796
10.92	-9.5158	0.2664	0.1237	-0.0160	-0.0204	-0.0153	34.2750	-13.0984	13.2268	-0.6047	0.3579	-0.6017	-0.3797
10.93	-9.5140	0.2547	0.1362	-0.0262	-0.0247	-0.0191	34.3395	-13.2616	13.0541	-0.6048	0.3579	-0.6016	-0.3798
10.94	-9.5196	0.2442	0.1351	-0.0214	-0.0179	-0.0220	34.4039	-13.1311	13.0021	-0.6048	0.3579	-0.6015	-0.3798
10.95	-9.5143	0.2257	0.1302	-0.0220	-0.0164	-0.0193	34.4633	-13.1880	13.0175	-0.6048	0.3579	-0.6015	-0.3799
10.96	-9.5032	0.2198	0.1410	-0.0162	-0.0146	-0.0232	34.4996	-13.3193	13.1140	-0.6048	0.3580	-0.6014	-0.3799
10.97	-9.5072	0.2216	0.1502	-0.0143	-0.0179	-0.0253	34.6095	-13.4297	13.1251	-0.6049	0.3580	-0.6014	-0.3799
10.98	-9.5166	0.2211	0.1486	-0.0147	-0.0185	-0.0136	34.4915	-13.2883	13.0914	-0.6049	0.3579	-0.6013	-0.3800
10.99	-9.5178	0.2267	0.1445	-0.0167	-0.0211	-0.0212	34.5457	-13.3996	13.1464	-0.6049	0.3579	-0.6013	-0.3800
11	-9.5258	0.2291	0.1474	-0.0112	-0.0175	-0.0241	34.8349	-13.3566	13.0555	-0.6050	0.3579	-0.6012	-0.3800
11.01	-9.5255	0.2332	0.1474	-0.0156	-0.0085	-0.0234	34.6277	-13.4679	12.8996	-0.6050	0.3580	-0.6012	-0.3800
11.02	-9.5260	0.2288	0.1435	-0.0257	-0.0132	-0.0282	34.5399	-13.3911	12.9244	-0.6050	0.3580	-0.6011	-0.3801
11.03	-9.5365	0.2272	0.1457	-0.0177	-0.0128	-0.0224	34.6808	-13.4926	13.0484	-0.6050	0.3580	-0.6011	-0.3801
11.04	-9.5401	0.2266	0.1446	-0.0193	-0.0174	-0.0233	34.7895	-13.5543	13.1105	-0.6051	0.3581	-0.6010	-0.3801
11.05	-9.5319	0.2205	0.1495	-0.0213	-0.0185	-0.0249	34.6538	-13.4391	12.9837	-0.6051	0.3581	-0.6009	-0.3802
11.06	-9.5290	0.2194	0.1553	-0.0138	-0.0164	-0.0194	34.3584	-13.4964	13.0490	-0.6051	0.3581	-0.6009	-0.3802
11.07	-9.5340	0.2173	0.1562	-0.0220	-0.0236	-0.0190	34.5232	-13.4657	12.9981	-0.6052	0.3581	-0.6008	-0.3803
11.08	-9.5395	0.2141	0.1552	-0.0126	-0.0153	-0.0140	34.4325	-13.4724	13.0672	-0.6052	0.3581	-0.6008	-0.3803
11.09	-9.5373	0.2078	0.1537	-0.0121	-0.0139	-0.0215	34.3624	-13.2284	13.1509	-0.6052	0.3580	-0.6007	-0.3803
11.1	-9.5303	0.2068	0.1656	-0.0148	-0.0148	-0.0191	34.5132	-13.1048	12.9719	-0.6052	0.3580	-0.6007	-0.3803
11.11	-9.5201	0.2022	0.1676	-0.0111	-0.0118	-0.0242	34.5738	-13.2624	13.0725	-0.6053	0.3581	-0.6007	-0.3803
11.12	-9.5183	0.2016	0.1707	-0.0124	-0.0197	-0.0193	34.4220	-13.3249	12.8999	-0.6053	0.3580	-0.6006	-0.3804
11.13	-9.5141	0.2049	0.1729	-0.0113	-0.0138	-0.0137	34.6119	-13.2222	13.1082	-0.6053	0.3580	-0.6006	-0.3804
11.14	-9.5056	0.2086	0.1727	-0.0100	-0.0130	-0.0178	34.5306	-13.0883	13.1923	-0.6053	0.3580	-0.6006	-0.3804
11.15	-9.5078	0.2075	0.1770	-0.0117	-0.0149	-0.0191	34.2223	-13.3243	13.1139	-0.6054	0.3580	-0.6005	-0.3804
11.16	-9.5098	0.2196	0.1773	-0.0085	-0.0121	-0.0148	34.4079	-13.4293	12.9872	-0.6054	0.3579	-0.6005	-0.3805
11.17	-9.5000	0.2325	0.1713	0.0042	-0.0055	-0.0140	34.3831	-13.2693	12.8803	-0.6054	0.3579	-0.6005	-0.3804
11.18	-9.4904	0.2413	0.1680	0.0032	-0.0046	-0.0149	34.5227	-13.5614	13.0925	-0.6054	0.3578	-0.6006	-0.3804
11.19	-9.4973	0.2454	0.1844	-0.0013	-0.0025	-0.0147	34.6180	-13.5200	12.9367	-0.6054	0.3578	-0.6006	-0.3804
11.2	-9.5059	0.2435	0.1730	-0.0041	0.0042	-0.0220	34.7603	-13.4411	12.9395	-0.6054	0.3578	-0.6007	-0.3803
11.21	-9.4972	0.2462	0.1615	-0.0117	-0.0097	-0.0175	34.7453	-13.5145	12.9176	-0.6054	0.3578	-0.6006	-0.3803
11.22	-9.5225	0.2549	0.1855	-0.0109	-0.0041	-0.0188	34.6194	-13.4074	12.8210	-0.6054	0.3578	-0.6006	-0.3804
