time	acceleration_x	acceleration_y	acceleration_z	gyroscope_x	gyroscope_y	gyroscope_z	magnetometer_x	magnetometer_y	magnetometer_z	quaternion_w	quaternion_x	quaternion_y	quaternion_z
0	-5.1928	0.0793	0.2340	0.0387	-0.0220	-0.0068	18.6691	-12.8533	7.2606	-0.3441	0.1867	-0.3330	-0.1961
0.01	-10.2563	0.1766	0.4860	0.0761	-0.0424	-0.0111	36.4545	-25.2899	14.3546	-0.6799	0.3686	-0.6580	-0.3873
0.02	-8.9660	0.1998	0.4378	0.0635	-0.0318	-0.0033	32.1127	-22.2720	12.6095	-0.5986	0.3240	-0.5792	-0.3407
0.03	-9.6146	0.2400	0.4818	0.0476	-0.0208	-0.0005	34.5138	-24.0321	13.5957	-0.6428	0.3477	-0.6219	-0.3657
0.04	-9.1844	0.2591	0.4140	0.0430	0.0083	0.0069	32.9710	-22.8847	13.1606	-0.6155	0.3327	-0.5957	-0.3501
0.05	-9.4210	0.2641	0.4004	0.0372	0.0158	0.0094	33.8294	-23.5337	13.5416	-0.6329	0.3420	-0.6129	-0.3599
0.06	-9.3142	0.2868	0.4501	0.0207	0.0326	0.0163	33.2659	-23.1271	13.4067	-0.6217	0.3358	-0.6023	-0.3535
0.07	-9.4561	0.2962	0.3790	0.0110	0.0516	0.0188	33.7141	-23.5621	13.5361	-0.6282	0.3394	-0.6092	-0.3574
0.08	-9.4689	0.2681	0.3548	0.0010	0.0605	0.0180	33.4773	-23.3272	13.4472	-0.6241	0.3373	-0.6057	-0.3551
0.09	-9.4813	0.2963	0.3338	0.0011	0.0594	0.0180	33.5851	-23.2813	13.5096	-0.6258	0.3384	-0.6080	-0.3562
0.1	-9.5282	0.2493	0.3238	-0.0084	0.0769	0.0185	33.4259	-23.2862	13.5915	-0.6247	0.3380	-0.6075	-0.3557
0.11	-9.5566	0.2573	0.2517	0.0032	0.0870	0.0184	33.4793	-23.2532	13.5550	-0.6243	0.3380	-0.6079	-0.3556
0.12	-9.5596	0.2230	0.2085	0.0172	0.0901	0.0198	33.4302	-23.3711	13.5821	-0.6240	0.3380	-0.6083	-0.3555
0.13	-9.6610	0.2110	0.2115	0.0201	0.1135	0.0159	33.6143	-23.3577	13.4320	-0.6236	0.3380	-0.6088	-0.3553
0.14	-9.7393	0.2275	0.1193	0.0390	0.1356	0.0003	33.6105	-23.5441	13.3616	-0.6232	0.3381	-0.6094	-0.3550
0.15	-9.7260	0.2069	0.0507	0.0480	0.1306	-0.0033	33.3723	-23.5147	13.4653	-0.6228	0.3381	-0.6099	-0.3546
0.16	-9.6763	0.2040	0.0247	0.0781	0.1266	-0.0113	33.4154	-23.5872	13.6963	-0.6225	0.3381	-0.6105	-0.3541
0.17	-9.6335	0.2094	-0.0705	0.0945	0.1456	-0.0245	34.1517	-23.1293	13.8024	-0.6223	0.3380	-0.6112	-0.3536
0.18	-9.5796	0.2017	-0.1782	0.1108	0.1424	-0.0300	34.1510	-23.1921	13.8047	-0.6220	0.3380	-0.6118	-0.3529
0.19	-9.6271	0.2135	-0.1876	0.1258	0.1298	-0.0398	33.3620	-23.7737	13.6267	-0.6218	0.3379	-0.6125	-0.3522
0.2	-9.8074	0.2521	-0.2144	0.1413	0.1326	-0.0494	33.3643	-24.6027	13.9494	-0.6217	0.3378	-0.6131	-0.3514
0.21	-9.8396	0.2646	-0.2994	0.1485	0.0925	-0.0584	33.2566	-23.5869	13.9230	-0.6217	0.3376	-0.6137	-0.3506
0.22	-9.7607	0.2628	-0.2527	0.1483	0.0389	-0.0728	33.1597	-23.2430	13.8332	-0.6219	0.3374	-0.6141	-0.3499
0.23	-9.6498	0.2792	-0.2177	0.1481	0.0186	-0.0800	33.1602	-23.3064	13.9896	-0.6222	0.3371	-0.6143	-0.3491
0.24	-9.5830	0.2745	-0.2310	0.1460	-0.0088	-0.0834	33.2554	-23.1001	13.7981	-0.6225	0.3368	-0.6145	-0.3484
0.25	-9.5163	0.2813	-0.2217	0.1492	-0.0418	-0.0753	33.0764	-23.0147	14.2099	-0.6230	0.3365	-0.6146	-0.3478
0.26	-9.4538	0.2786	-0.1552	0.1342	-0.0722	-0.0709	33.3835	-23.0470	14.1734	-0.6235	0.3361	-0.6146	-0.3473
0.27	-9.3858	0.2749	-0.0817	0.1213	-0.0939	-0.0673	33.1757	-23.2195	13.8833	-0.6240	0.3357	-0.6145	-0.3469
0.28	-9.3462	0.2803	-0.0154	0.1163	-0.1102	-0.0536	33.3595	-22.9422	14.2090	-0.6246	0.3353	-0.6143	-0.3465
0.29	-9.3859	0.2943	0.0829	0.0955	-0.1159	-0.0493	33.1699	-22.8781	14.1822	-0.6252	0.3348	-0.6141	-0.3463
0.3	-9.3699	0.3145	0.1253	0.0879	-0.1279	-0.0480	33.2467	-23.0099	13.9183	-0.6257	0.3344	-0.6139	-0.3461
0.31	-9.2599	0.3042	0.1667	0.0660	-0.1469	-0.0462	33.4819	-22.9849	13.9706	-0.6263	0.3340	-0.6135	-0.3460
0.32	-9.1682	0.2997	0.2649	0.0514	-0.1461	-0.0448	33.3878	-22.9933	14.1460	-0.6269	0.3337	-0.6132	-0.3459
0.33	-9.1177	0.2955	0.2840	0.0376	-0.1245	-0.0461	33.5105	-22.9898	14.0577	-0.6274	0.3334	-0.6129	-0.3459
0.34	-9.0639	0.3024	0.2607	0.0196	-0.1197	-0.0480	33.6389	-22.9907	13.9336	-0.6278	0.3332	-0.6125	-0.3459
0.35	-9.1311	0.2974	0.3496	-0.0064	-0.1053	-0.0572	33.5422	-22.8454	13.9576	-0.6282	0.3332	-0.6122	-0.3459
0.36	-9.4035	0.3014	0.4129	-0.0244	-0.0762	-0.0672	33.5508	-23.0423	13.9561	-0.6284	0.3332	-0.6118	-0.3459
0.37	-9.7025	0.3143	0.4088	-0.0540	-0.0644	-0.0791	33.7367	-23.2030	13.9531	-0.6286	0.3335	-0.6115	-0.3459
0.38	-9.8637	0.2794	0.4742	-0.0752	-0.0799	-0.0905	33.4091	-22.8911	13.9669	-0.6289	0.3338	-0.6111	-0.3460
0.39	-9.8654	0.2469	0.5414	-0.0867	-0.0774	-0.0935	33.4947	-22.7867	13.7183	-0.6291	0.3341	-0.6106	-0.3461
0.4	-9.7884	0.1921	0.5220	-0.1051	-0.0668	-0.0944	33.5166	-22.8541	13.9641	-0.6292	0.3346	-0.6101	-0.3463
0.41	-9.5800	0.0981	0.4121	-0.1222	-0.0516	-0.1063	33.5320	-22.5824	13.9121	-0.6293	0.3351	-0.6096	-0.3464
0.42	-9.4233	-0.0082	0.4241	-0.1344	-0.0460	-0.1133	33.4784	-22.5742	13.7423	-0.6294	0.3357	-0.6092	-0.3466
0.43	-9.3822	-0.0798	0.3924	-0.1342	-0.0117	-0.1073	33.6501	-22.6886	13.9203	-0.6293	0.3364	-0.6088	-0.3467
0.44	-9.4114	-0.1402	0.3089	-0.1353	0.0241	-0.0999	33.7983	-22.5159	13.7297	-0.6292	0.3371	-0.6085	-0.3467
0.45	-9.4935	-0.1869	0.3043	-0.1337	0.0237	-0.0858	33.8002	-22.5943	13.6617	-0.6290	0.3378	-0.6083	-0.3468
0.46	-9.6981	-0.1700	0.3230	-0.1200	0.0462	-0.0825	33.5470	-22.6270	13.8611	-0.6287	0.3384	-0.6082	-0.3469
0.47	-9.8398	-0.1499	0.2435	-0.1113	0.0458	-0.0809	33.5703	-22.4431	13.7696	-0.6285	0.3390	-0.6081	-0.3469
0.48	-9.8643	-0.1586	0.2403	-0.1098	0.0194	-0.0718	33.8040	-22.4790	13.7535	-0.6283	0.3396	-0.6079	-0.3470
0.49	-9.8748	-0.1593	0.2928	-0.1121	-0.0146	-0.0718	33.8256	-22.4474	13.7519	-0.6282	0.3400	-0.6076	-0.3471
0.5	-9.8875	-0.1520	0.2589	-0.1102	-0.0187	-0.0633	33.8413	-22.7189	13.5671	-0.6281	0.3405	-0.6073	-0.3473
0.51	-9.7990	-0.1615	0.2134	-0.1100	-0.0512	-0.0606	33.7375	-22.7156	13.6591	-0.6282	0.3409	-0.6070	-0.3476
0.52	-9.6437	-0.1884	0.2622	-0.1076	-0.0880	-0.0466	34.0403	-22.8673	13.8154	-0.6283	0.3412	-0.6065	-0.3479
0.53	-9.5224	-0.1870	0.3249	-0.0951	-0.0957	-0.0379	33.8654	-22.6984	13.8579	-0.6284	0.3413	-0.6061	-0.3482
0.54	-9.4873	-0.1727	0.3318	-0.0950	-0.0823	-0.0297	33.6663	-22.6667	13.5880	-0.6285	0.3415	-0.6057	-0.3486
0.55	-9.4851	-0.1410	0.3236	-0.0868	-0.0785	-0.0170	33.8075	-22.8683	13.4906	-0.6286	0.3417	-0.6053	-0.3489
0.56	-9.4430	-0.0894	0.3402	-0.0843	-0.0825	-0.0138	33.7571	-22.6482	13.2033	-0.6286	0.3418	-0.6050	-0.3493
0.57	-9.4100	-0.0635	0.3879	-0.0847	-0.0752	-0.0136	33.8489	-22.6836	13.0854	-0.6287	0.3419	-0.6047	-0.3496
0.58	-9.4431	-0.0328	0.3926	-0.0843	-0.0644	-0.0175	33.8950	-22.8348	13.5469	-0.6287	0.3420	-0.6044	-0.3500
0.59	-9.4602	-0.0031	0.3302	-0.0852	-0.0533	-0.0150	33.6511	-22.8045	13.3267	-0.6287	0.3422	-0.6041	-0.3503
0.6	-9.4180	0.0072	0.3324	-0.0856	-0.0692	-0.0219	33.7263	-22.8338	13.5244	-0.6288	0.3423	-0.6038	-0.3506
0.61	-9.3630	0.0250	0.3488	-0.0863	-0.0587	-0.0246	33.8826	-22.5269	13.5136	-0.6288	0.3425	-0.6035	-0.3509
0.62	-9.3505	0.0428	0.3183	-0.0846	-0.0524	-0.0209	33.8556	-22.6676	13.0327	-0.6288	0.3427	-0.6032	-0.3512
0.63	-9.3583	0.0474	0.2852	-0.0853	-0.0526	-0.0215	33.9097	-22.9478	13.2016	-0.6288	0.3428	-0.6029	-0.3515
0.64	-9.3243	0.0560	0.2809	-0.0847	-0.0625	-0.0193	33.9515	-22.7262	13.3692	-0.6288	0.3430	-0.6026	-0.3518
0.65	-9.3717	0.0464	0.3279	-0.0858	-0.0612	-0.0302	33.7336	-22.7293	13.1179	-0.6289	0.3432	-0.6023	-0.3521
0.66	-9.4274	0.0374	0.2946	-0.0869	-0.0556	-0.0324	34.1066	-22.5693	13.1998	-0.6289	0.3434	-0.6020	-0.3524
0.67	-9.4683	0.0042	0.3170	-0.0843	-0.0689	-0.0367	34.4588	-22.4576	13.5398	-0.6290	0.3436	-0.6017	-0.3526
0.68	-9.5252	-0.0318	0.3746	-0.0852	-0.0676	-0.0390	34.4656	-22.5995	13.2499	-0.6290	0.3438	-0.6013	-0.3529
0.69	-9.5108	-0.0513	0.3364	-0.0790	-0.0693	-0.0349	33.9642	-23.2540	13.0127	-0.6291	0.3439	-0.6010	-0.3532
0.7	-9.4845	-0.0953	0.3890	-0.0639	-0.0805	-0.0362	34.1849	-24.0348	13.0454	-0.6292	0.3441	-0.6007	-0.3534
0.71	-9.4753	-0.1238	0.4181	-0.0537	-0.0594	-0.0362	34.2239	-23.2428	12.8280	-0.6294	0.3442	-0.6004	-0.3536
0.72	-9.4726	-0.1180	0.3732	-0.0364	-0.0446	-0.0280	34.2496	-22.8015	13.0847	-0.6294	0.3442	-0.6002	-0.3537
0.73	-9.4958	-0.1128	0.3929	-0.0320	-0.0417	-0.0245	34.1467	-22.9547	12.9194	-0.6295	0.3443	-0.6001	-0.3538
0.74	-9.5168	-0.1059	0.4024	-0.0193	-0.0292	-0.0208	33.9976	-22.7544	13.0809	-0.6295	0.3443	-0.6000	-0.3538
0.75	-9.5385	-0.1001	0.3833	-0.0068	-0.0238	-0.0100	34.2065	-23.0660	13.2317	-0.6296	0.3442	-0.5999	-0.3539
0.76	-9.5485	-0.0836	0.3760	-0.0103	-0.0306	-0.0093	34.2544	-22.7666	13.0630	-0.6296	0.3442	-0.5999	-0.3540
0.77	-9.5405	-0.0768	0.3842	0.0032	-0.0388	-0.0093	34.1353	-22.8698	12.8862	-0.6297	0.3441	-0.5998	-0.3540
0.78	-9.4854	-0.0857	0.3694	0.0165	-0.0420	-0.0080	34.1275	-22.7028	13.1912	-0.6298	0.3439	-0.5998	-0.3540
0.79	-9.4508	-0.0738	0.3674	0.0153	-0.0387	-0.0013	33.9689	-22.8955	13.2134	-0.6299	0.3437	-0.5998	-0.3540
0.8	-9.4254	-0.0715	0.3700	0.0245	-0.0394	0.0036	33.9536	-22.8006	13.2487	-0.6300	0.3435	-0.5998	-0.3541
0.81	-9.4076	-0.0647	0.3670	0.0416	-0.0414	0.0086	34.1451	-22.6132	13.2721	-0.6301	0.3432	-0.5998	-0.3541
0.82	-9.3991	-0.0505	0.3796	0.0428	-0.0450	0.0145	34.0788	-22.7784	13.0329	-0.6302	0.3429	-0.5999	-0.3541
0.83	-9.4025	-0.0287	0.4044	0.0534	-0.0473	0.0160	34.1355	-22.6951	12.9447	-0.6304	0.3425	-0.5999	-0.3541
0.84	-9.4122	-0.0020	0.3906	0.0656	-0.0389	0.0174	34.1543	-22.7519	12.9508	-0.6305	0.3421	-0.6000	-0.3540
0.85	-9.4122	0.0693	0.3780	0.0700	-0.0352	0.0150	34.0187	-22.6998	12.9047	-0.6307	0.3418	-0.6002	-0.3539
0.86	-9.4265	0.1469	0.4173	0.0704	-0.0349	0.0187	34.1024	-22.8008	13.0830	-0.6308	0.3413	-0.6003	-0.3538
0.87	-9.4443	0.1753	0.4191	0.0684	-0.0166	0.0114	33.9352	-22.8328	13.2484	-0.6309	0.3410	-0.6004	-0.3537
0.88	-9.4517	0.1619	0.3714	0.0690	-0.0030	0.0078	34.0179	-22.6712	12.9625	-0.6310	0.3407	-0.6006	-0.3536
0.89	-9.4525	0.1474	0.3554	0.0671	0.0098	0.0034	34.2538	-22.8325	13.0939	-0.6310	0.3404	-0.6009	-0.3534
0.9	-9.5305	0.1791	0.4120	0.0700	0.0331	-0.0032	34.1830	-23.0169	12.9074	-0.6310	0.3402	-0.6012	-0.3531
0.91	-9.6033	0.2075	0.3602	0.0599	0.0519	-0.0063	33.9034	-22.8808	13.1850	-0.6309	0.3400	-0.6015	-0.3528
0.92	-9.6633	0.2157	0.3162	0.0605	0.0497	-0.0072	34.0672	-22.9070	13.3605	-0.6308	0.3399	-0.6018	-0.3526
0.93	-9.8079	0.2072	0.3836	0.0498	0.0511	-0.0140	34.1907	-22.6542	13.2352	-0.6307	0.3398	-0.6022	-0.3523
0.94	-9.8605	0.1911	0.2842	0.0453	0.0585	-0.0110	34.0623	-22.6167	13.1923	-0.6306	0.3397	-0.6025	-0.3520
0.95	-9.8246	0.2154	0.1961	0.0463	0.0302	-0.0140	33.9204	-22.7764	13.1422	-0.6306	0.3396	-0.6027	-0.3518
0.96	-9.7804	0.2244	0.2760	0.0422	-0.0078	-0.0178	33.8967	-22.8264	13.2392	-0.6306	0.3394	-0.6028	-0.3517
0.97	-9.7357	0.2603	0.2528	0.0319	-0.0078	-0.0149	33.7833	-22.8021	13.2115	-0.6307	0.3393	-0.6029	-0.3515
0.98	-9.7250	0.2740	0.1990	0.0111	-0.0183	-0.0241	33.9079	-22.9190	13.3030	-0.6307	0.3392	-0.6029	-0.3515
0.99	-9.6376	0.2375	0.2019	-0.0039	-0.0440	-0.0266	34.0938	-22.7525	13.3673	-0.6309	0.3392	-0.6028	-0.3515
1	-9.5569	0.2288	0.2800	-0.0188	-0.0547	-0.0345	33.8597	-22.7123	13.3527	-0.6310	0.3392	-0.6027	-0.3515
1.01	-9.5664	0.2212	0.3275	-0.0354	-0.0455	-0.0366	33.8936	-22.7388	13.2894	-0.6311	0.3392	-0.6025	-0.3516
1.02	-9.5662	0.1950	0.2706	-0.0514	-0.0410	-0.0479	33.9817	-22.7072	13.3129	-0.6312	0.3394	-0.6023	-0.3517
1.03	-9.5722	0.1778	0.3275	-0.0639	-0.0594	-0.0441	33.9712	-22.7689	13.3258	-0.6313	0.3396	-0.6020	-0.3519
1.04	-9.5630	0.1620	0.4003	-0.0687	-0.0580	-0.0355	33.9690	-22.8497	13.2324	-0.6313	0.3397	-0.6017	-0.3521
1.05	-9.5017	0.1903	0.3599	-0.0808	-0.0682	-0.0372	33.9783	-22.6903	13.2104	-0.6314	0.3399	-0.6014	-0.3523
1.06	-9.4629	0.2041	0.4390	-0.0876	-0.0860	-0.0356	33.9590	-22.8930	13.3455	-0.6315	0.3401	-0.6010	-0.3526
1.07	-9.4345	0.1559	0.5135	-0.1059	-0.0827	-0.0374	34.0134	-22.8535	13.0650	-0.6316	0.3403	-0.6005	-0.3530
1.08	-9.5537	0.1283	0.5872	-0.1214	-0.0636	-0.0400	34.1600	-22.7842	13.0027	-0.6316	0.3406	-0.6001	-0.3534
1.09	-9.6654	0.1306	0.5359	-0.1344	-0.0509	-0.0365	34.2481	-22.9398	13.1853	-0.6316	0.3410	-0.5998	-0.3537
1.1	-9.6426	0.0831	0.4764	-0.1388	-0.0848	-0.0443	33.9393	-22.8625	13.2024	-0.6316	0.3413	-0.5993	-0.3542
1.11	-9.6561	0.0270	0.5276	-0.1590	-0.0990	-0.0442	34.3221	-22.9913	13.0388	-0.6317	0.3417	-0.5987	-0.3547
1.12	-9.6560	-0.0133	0.4841	-0.1593	-0.1054	-0.0535	34.3161	-22.9796	13.0426	-0.6317	0.3421	-0.5981	-0.3552
1.13	-9.6194	-0.0792	0.4721	-0.1596	-0.1337	-0.0585	34.2549	-22.8997	12.7952	-0.6319	0.3425	-0.5974	-0.3557
1.14	-9.5498	-0.1094	0.5110	-0.1417	-0.1394	-0.0605	34.3118	-22.8589	12.7363	-0.6321	0.3428	-0.5966	-0.3562
1.15	-9.5268	-0.1323	0.5532	-0.1381	-0.1427	-0.0630	33.8107	-22.7964	12.7938	-0.6324	0.3431	-0.5959	-0.3567
1.16	-9.5095	-0.1937	0.5607	-0.1341	-0.1190	-0.0703	34.3047	-22.7475	12.6934	-0.6326	0.3435	-0.5952	-0.3571
1.17	-9.5460	-0.2015	0.5591	-0.1259	-0.1157	-0.0712	35.0852	-22.3859	13.0422	-0.6328	0.3438	-0.5946	-0.3575
1.18	-9.6066	-0.1850	0.5585	-0.1191	-0.1088	-0.0651	35.0302	-22.4127	12.9746	-0.6330	0.3441	-0.5940	-0.3578
1.19	-9.5372	-0.2203	0.4845	-0.1129	-0.1103	-0.0700	34.4074	-23.0555	12.5394	-0.6332	0.3444	-0.5935	-0.3581
1.2	-9.4892	-0.2408	0.5400	-0.0991	-0.1130	-0.0728	34.4119	-23.9814	12.3615	-0.6334	0.3447	-0.5929	-0.3584
1.21	-9.4772	-0.2309	0.5716	-0.0850	-0.1019	-0.0707	34.2310	-22.8617	12.2062	-0.6337	0.3449	-0.5924	-0.3586
1.22	-9.4619	-0.2508	0.5050	-0.0848	-0.0881	-0.0696	34.2377	-22.6329	12.3517	-0.6339	0.3452	-0.5919	-0.3589
1.23	-9.4828	-0.2671	0.5703	-0.0829	-0.0965	-0.0746	34.2613	-22.9252	12.1797	-0.6341	0.3454	-0.5914	-0.3590
1.24	-9.4498	-0.2724	0.5805	-0.0839	-0.0839	-0.0624	34.1827	-22.7816	12.2106	-0.6342	0.3456	-0.5909	-0.3593
1.25	-9.4585	-0.2834	0.5809	-0.0735	-0.0709	-0.0618	34.2166	-22.9312	12.2621	-0.6344	0.3459	-0.5905	-0.3594
1.26	-9.4544	-0.2940	0.5610	-0.0647	-0.0707	-0.0610	34.5670	-22.9260	12.3421	-0.6345	0.3461	-0.5902	-0.3596
1.27	-9.4934	-0.3082	0.5887	-0.0621	-0.0626	-0.0609	34.4541	-22.9259	12.1606	-0.6347	0.3462	-0.5898	-0.3597
1.28	-9.4440	-0.2883	0.5785	-0.0565	-0.0659	-0.0504	34.4480	-23.1019	12.1088	-0.6348	0.3464	-0.5895	-0.3598
1.29	-9.4076	-0.3061	0.6050	-0.0599	-0.0628	-0.0461	34.8290	-23.0560	11.8568	-0.6349	0.3465	-0.5892	-0.3600
1.3	-9.4391	-0.3177	0.6548	-0.0516	-0.0470	-0.0430	34.5558	-22.8149	11.8296	-0.6350	0.3467	-0.5890	-0.3601
1.31	-9.4120	-0.2913	0.5743	-0.0478	-0.0359	-0.0342	34.3862	-22.8476	12.1123	-0.6350	0.3468	-0.5888	-0.3602
1.32	-9.4141	-0.3157	0.5758	-0.0521	-0.0466	-0.0363	34.4480	-22.8508	11.9085	-0.6351	0.3469	-0.5886	-0.3604
1.33	-9.3856	-0.2863	0.6258	-0.0394	-0.0370	-0.0313	34.7102	-22.7703	12.0439	-0.6352	0.3470	-0.5884	-0.3605
1.34	-9.4241	-0.3067	0.6375	-0.0524	-0.0198	-0.0194	34.6603	-22.6258	11.9923	-0.6351	0.3471	-0.5883	-0.3606
1.35	-9.4272	-0.3103	0.5771	-0.0478	-0.0019	-0.0135	34.4532	-22.7213	11.9467	-0.6350	0.3472	-0.5883	-0.3607
1.36	-9.3796	-0.2933	0.5531	-0.0521	-0.0130	-0.0114	34.5541	-22.7664	12.0785	-0.6349	0.3474	-0.5882	-0.3609
1.37	-9.3928	-0.2677	0.6538	-0.0350	-0.0078	-0.0046	34.3795	-22.7473	11.8910	-0.6348	0.3474	-0.5882	-0.3610
1.38	-9.4438	-0.2394	0.6964	-0.0534	0.0254	-0.0039	34.5817	-22.7570	12.0962	-0.6347	0.3475	-0.5882	-0.3611
1.39	-9.5325	-0.2663	0.5986	-0.0443	0.0455	0.0057	34.3871	-22.5670	11.9094	-0.6344	0.3477	-0.5884	-0.3612
1.4	-9.5767	-0.2024	0.5927	-0.0397	0.0178	0.0166	34.6088	-22.6452	12.0427	-0.6342	0.3477	-0.5885	-0.3614
1.41	-9.5968	-0.1852	0.6600	-0.0537	0.0039	0.0168	34.4757	-22.8763	11.8907	-0.6340	0.3478	-0.5885	-0.3616
1.42	-9.5717	-0.1758	0.6206	-0.0469	0.0024	0.0269	34.4284	-22.6881	11.8690	-0.6338	0.3478	-0.5886	-0.3618
1.43	-9.5345	-0.1297	0.5895	-0.0419	-0.0220	0.0376	34.3340	-22.8908	11.9511	-0.6337	0.3477	-0.5886	-0.3621
1.44	-9.4544	-0.1570	0.6037	-0.0448	-0.0274	0.0356	34.4186	-23.0443	11.9547	-0.6335	0.3476	-0.5886	-0.3624
1.45	-9.3632	-0.1620	0.6256	-0.0371	-0.0259	0.0377	34.5072	-22.9943	11.7754	-0.6334	0.3475	-0.5886	-0.3627
1.46	-9.3246	-0.1273	0.6341	-0.0315	-0.0045	0.0426	34.5649	-23.0711	11.8172	-0.6333	0.3474	-0.5886	-0.3630
1.47	-9.3165	-0.1047	0.6247	-0.0383	0.0106	0.0374	34.5452	-23.1348	11.8309	-0.6331	0.3474	-0.5887	-0.3632
1.48	-9.3195	-0.1070	0.6333	-0.0354	0.0200	0.0350	34.3873	-22.9893	11.9958	-0.6328	0.3474	-0.5889	-0.3634
1.49	-9.3836	-0.1066	0.6625	-0.0331	0.0344	0.0274	34.5600	-23.0492	12.0876	-0.6326	0.3474	-0.5891	-0.3636
1.5	-9.4882	-0.0915	0.6539	-0.0300	0.0505	0.0223	34.4332	-23.1517	11.6646	-0.6323	0.3474	-0.5893	-0.3637
1.51	-9.5794	-0.1084	0.6284	-0.0137	0.0513	0.0214	34.3352	-22.9862	11.9667	-0.6320	0.3474	-0.5895	-0.3637
1.52	-9.5550	-0.0995	0.6056	-0.0067	0.0464	0.0190	34.2028	-23.1681	11.9400	-0.6318	0.3474	-0.5898	-0.3637
1.53	-9.5604	-0.0964	0.6242	0.0130	0.0322	0.0163	34.2899	-22.9960	11.9189	-0.6316	0.3473	-0.5900	-0.3637
1.54	-9.5395	-0.0982	0.5670	0.0182	0.0458	0.0094	34.3595	-22.9296	12.0134	-0.6314	0.3473	-0.5903	-0.3637
1.55	-9.5268	-0.0566	0.5397	0.0171	0.0428	0.0130	34.2127	-23.3606	12.1372	-0.6313	0.3472	-0.5906	-0.3636
1.56	-9.4633	-0.0175	0.5476	0.0167	0.0402	0.0082	34.1322	-23.0859	11.8815	-0.6311	0.3471	-0.5908	-0.3635
1.57	-9.3896	-0.0047	0.5317	0.0185	0.0400	0.0009	34.1586	-23.0024	11.9944	-0.6310	0.3470	-0.5911	-0.3634
1.58	-9.4547	0.0276	0.5329	0.0172	0.0566	-0.0052	34.1394	-23.0224	12.1397	-0.6308	0.3470	-0.5913	-0.3633
1.59	-9.4695	0.0340	0.4863	0.0172	0.0719	-0.0062	34.1628	-23.0249	12.0953	-0.6306	0.3471	-0.5917	-0.3631
1.6	-9.4935	0.0345	0.4917	0.0176	0.0779	-0.0252	34.1249	-22.9995	12.0265	-0.6304	0.3471	-0.5920	-0.3629
1.61	-9.5596	0.0521	0.4790	0.0175	0.0897	-0.0287	34.2204	-23.0956	11.9611	-0.6301	0.3473	-0.5923	-0.3626
1.62	-9.5728	0.0416	0.4178	0.0175	0.0777	-0.0297	34.3297	-23.1036	12.0012	-0.6299	0.3474	-0.5926	-0.3623
1.63	-9.6281	0.0382	0.4370	0.0161	0.0746	-0.0336	34.2292	-23.2409	12.3261	-0.6298	0.3475	-0.5929	-0.3621
1.64	-9.6155	0.0348	0.3939	0.0092	0.0733	-0.0296	34.3960	-23.2796	12.0636	-0.6296	0.3476	-0.5932	-0.3618
1.65	-9.5717	0.0688	0.4004	0.0024	0.0568	-0.0337	34.1233	-23.3662	12.4078	-0.6294	0.3477	-0.5934	-0.3616
1.66	-9.6436	0.0401	0.4400	-0.0100	0.0598	-0.0353	34.4383	-23.1806	12.4816	-0.6292	0.3479	-0.5936	-0.3615
1.67	-9.6516	0.0124	0.3537	-0.0080	0.0573	-0.0325	35.0186	-23.0259	12.5867	-0.6290	0.3480	-0.5938	-0.3613
1.68	-9.5935	0.0270	0.3974	-0.0189	0.0325	-0.0361	34.8938	-22.9980	12.8340	-0.6289	0.3482	-0.5939	-0.3612
1.69	-9.5343	-0.0108	0.4406	-0.0354	0.0338	-0.0427	34.3853	-23.4148	12.5957	-0.6288	0.3484	-0.5940	-0.3611
1.7	-9.4995	-0.0190	0.4053	-0.0305	0.0368	-0.0380	34.3010	-24.1984	12.3632	-0.6286	0.3486	-0.5941	-0.3611
1.71	-9.5510	-0.0495	0.4437	-0.0330	0.0320	-0.0399	34.0126	-23.2373	12.4059	-0.6285	0.3488	-0.5941	-0.3610
1.72	-9.5497	-0.0702	0.4797	-0.0323	0.0331	-0.0409	34.1205	-23.0482	12.2315	-0.6284	0.3490	-0.5942	-0.3609
1.73	-9.5217	-0.0891	0.4618	-0.0315	0.0398	-0.0337	33.9118	-22.9291	12.6112	-0.6282	0.3492	-0.5943	-0.3609
1.74	-9.5230	-0.0733	0.4354	-0.0190	0.0471	-0.0336	34.0781	-23.0387	12.7359	-0.6280	0.3494	-0.5944	-0.3608
1.75	-9.5250	-0.1039	0.4369	-0.0212	0.0388	-0.0326	34.1706	-22.9222	12.3532	-0.6279	0.3496	-0.5945	-0.3607
1.76	-9.4910	-0.0996	0.4782	-0.0205	0.0354	-0.0240	34.1727	-23.0009	12.3572	-0.6278	0.3497	-0.5946	-0.3606
1.77	-9.4680	-0.1034	0.4591	-0.0151	0.0325	-0.0191	34.1049	-23.0008	12.4924	-0.6276	0.3498	-0.5947	-0.3606
1.78	-9.5188	-0.0607	0.4596	-0.0095	0.0476	-0.0086	33.9704	-23.2010	12.5717	-0.6274	0.3499	-0.5949	-0.3605
1.79	-9.4945	-0.0768	0.4192	-0.0139	0.0437	-0.0082	34.1280	-23.0110	12.5377	-0.6272	0.3500	-0.5951	-0.3605
1.8	-9.5459	-0.0754	0.4473	-0.0082	0.0421	-0.0080	33.9300	-22.5640	12.5461	-0.6271	0.3500	-0.5953	-0.3604
1.81	-9.5487	-0.0541	0.3783	-0.0092	0.0467	-0.0083	34.2837	-22.9938	12.5373	-0.6269	0.3501	-0.5955	-0.3604
1.82	-9.5680	-0.0652	0.3663	0.0006	0.0280	-0.0078	34.3461	-23.1257	12.3626	-0.6267	0.3501	-0.5957	-0.3603
1.83	-9.5848	-0.0485	0.3923	0.0065	0.0244	-0.0085	34.3366	-23.0686	12.4459	-0.6266	0.3501	-0.5958	-0.3602
1.84	-9.6034	-0.0463	0.3543	0.0088	0.0240	-0.0019	34.2256	-23.2150	12.4800	-0.6265	0.3500	-0.5960	-0.3602
1.85	-9.6162	-0.0168	0.3264	0.0100	0.0155	-0.0024	34.1186	-22.9955	12.4384	-0.6265	0.3500	-0.5961	-0.3601
1.86	-9.6335	0.0079	0.3397	0.0130	0.0054	-0.0090	34.2028	-23.0748	12.7615	-0.6264	0.3499	-0.5962	-0.3601
1.87	-9.6142	0.0023	0.3432	0.0130	-0.0062	-0.0085	34.0192	-23.1022	12.6118	-0.6264	0.3498	-0.5963	-0.3601
1.88	-9.6294	0.0288	0.3399	0.0132	-0.0056	-0.0088	34.0183	-23.0905	12.5810	-0.6264	0.3497	-0.5964	-0.3600
1.89	-9.6287	0.0326	0.3378	0.0027	-0.0134	-0.0102	34.0435	-23.0907	12.8041	-0.6264	0.3496	-0.5964	-0.3600
1.9	-9.6114	0.0295	0.3392	0.0012	-0.0322	-0.0112	34.2354	-23.1029	12.6792	-0.6265	0.3495	-0.5964	-0.3601
1.91	-9.5969	0.0413	0.3513	0.0011	-0.0325	-0.0077	34.3386	-22.9790	12.8949	-0.6266	0.3494	-0.5964	-0.3601
1.92	-9.5904	0.0415	0.3594	-0.0091	-0.0304	-0.0103	33.9569	-22.8906	12.7223	-0.6266	0.3493	-0.5963	-0.3602
1.93	-9.5977	0.0206	0.3623	-0.0094	-0.0322	-0.0110	34.1998	-22.9613	12.5949	-0.6267	0.3493	-0.5963	-0.3602
1.94	-9.6081	0.0399	0.3697	-0.0181	-0.0372	-0.0083	34.0394	-23.2055	12.7673	-0.6267	0.3492	-0.5962	-0.3604
1.95	-9.5940	0.0080	0.3609	-0.0152	-0.0444	-0.0098	34.0920	-23.0502	12.4810	-0.6268	0.3491	-0.5961	-0.3605
1.96	-9.5593	0.0018	0.3831	-0.0076	-0.0531	-0.0092	34.0128	-22.9893	12.6270	-0.6269	0.3490	-0.5960	-0.3606
1.97	-9.5377	-0.0004	0.4134	-0.0089	-0.0519	-0.0099	33.9586	-23.0108	12.6417	-0.6270	0.3489	-0.5959	-0.3607
1.98	-9.5197	-0.0144	0.4153	-0.0155	-0.0525	-0.0053	33.9903	-23.0900	12.6479	-0.6271	0.3488	-0.5957	-0.3608
1.99	-9.5189	-0.0202	0.4408	-0.0129	-0.0527	-0.0080	34.1036	-23.1103	12.6255	-0.6272	0.3487	-0.5956	-0.3610
2	-9.5186	-0.0223	0.4459	-0.0074	-0.0459	-0.0098	34.1976	-23.0582	12.4627	-0.6273	0.3486	-0.5955	-0.3611
2.01	-9.5134	-0.0160	0.4618	-0.0020	-0.0520	-0.0095	34.0967	-23.2146	12.4553	-0.6274	0.3485	-0.5954	-0.3611
2.02	-9.5054	-0.0176	0.4855	-0.0052	-0.0523	-0.0086	34.3540	-23.1268	12.4710	-0.6275	0.3484	-0.5953	-0.3612
2.03	-9.4733	-0.0179	0.4930	-0.0004	-0.0543	-0.0095	34.3518	-23.3103	12.2747	-0.6276	0.3482	-0.5952	-0.3613
2.04	-9.4486	-0.0316	0.5081	0.0059	-0.0505	-0.0089	34.1867	-23.2835	12.3494	-0.6277	0.3481	-0.5951	-0.3614
2.05	-9.4021	-0.0224	0.5006	0.0068	-0.0376	-0.0097	34.3734	-22.7554	12.4545	-0.6278	0.3479	-0.5951	-0.3614
2.06	-9.3935	-0.0520	0.5174	0.0128	-0.0390	-0.0111	34.0689	-22.9843	12.6170	-0.6279	0.3478	-0.5951	-0.3615
2.07	-9.4250	-0.0308	0.5257	0.0202	-0.0204	-0.0095	34.0597	-23.0553	12.5790	-0.6280	0.3476	-0.5951	-0.3614
2.08	-9.4667	-0.0468	0.5305	0.0195	-0.0144	-0.0129	34.1430	-23.1328	12.2130	-0.6280	0.3475	-0.5951	-0.3614
2.09	-9.5047	-0.0428	0.5476	0.0366	-0.0146	-0.0139	34.1718	-22.9534	12.4316	-0.6281	0.3474	-0.5952	-0.3613
2.1	-9.5251	-0.0076	0.5357	0.0356	-0.0056	-0.0135	34.1404	-22.9298	12.4283	-0.6282	0.3472	-0.5953	-0.3612
2.11	-9.5134	-0.0214	0.5141	0.0380	-0.0079	-0.0200	34.1760	-23.1197	12.5536	-0.6283	0.3470	-0.5954	-0.3610
2.12	-9.4787	0.0051	0.5428	0.0428	-0.0121	-0.0120	34.1306	-22.9073	12.5285	-0.6283	0.3469	-0.5955	-0.3609
2.13	-9.4516	0.0214	0.5264	0.0399	0.0040	-0.0075	34.0857	-23.0260	12.4763	-0.6284	0.3467	-0.5957	-0.3608
2.14	-9.4223	0.0476	0.5086	0.0435	0.0066	-0.0069	33.9891	-22.9934	12.5537	-0.6284	0.3465	-0.5958	-0.3606
2.15	-9.4166	0.0647	0.4869	0.0413	0.0137	-0.0074	34.0391	-23.0746	12.6286	-0.6284	0.3464	-0.5960	-0.3605
2.16	-9.4147	0.0669	0.4659	0.0358	0.0215	-0.0080	34.3566	-23.0424	12.7314	-0.6283	0.3462	-0.5962	-0.3604
2.17	-9.4467	0.0926	0.4572	0.0303	0.0311	-0.0067	34.6820	-22.6028	12.9438	-0.6283	0.3461	-0.5964	-0.3602
2.18	-9.4764	0.1059	0.4394	0.0315	0.0342	-0.0141	34.7421	-22.6748	13.1005	-0.6282	0.3460	-0.5967	-0.3600
2.19	-9.5101	0.0803	0.4323	0.0204	0.0367	-0.0179	34.3121	-23.7517	12.6612	-0.6281	0.3460	-0.5969	-0.3599
2.2	-9.5407	0.0960	0.4166	0.0164	0.0362	-0.0132	34.1749	-24.5268	12.5759	-0.6280	0.3460	-0.5971	-0.3597
2.21	-9.5730	0.1116	0.4093	0.0177	0.0332	-0.0195	34.0937	-23.3425	12.8092	-0.6279	0.3460	-0.5973	-0.3596
2.22	-9.5607	0.0917	0.3870	0.0017	0.0291	-0.0190	34.1620	-22.8305	12.7070	-0.6278	0.3460	-0.5974	-0.3595
2.23	-9.5507	0.1160	0.4002	0.0022	0.0280	-0.0262	34.1348	-23.2791	12.5849	-0.6277	0.3461	-0.5975	-0.3594
2.24	-9.5522	0.1027	0.3863	-0.0126	0.0305	-0.0285	33.9827	-23.1518	12.7581	-0.6276	0.3462	-0.5976	-0.3593
2.25	-9.5767	0.0971	0.3690	-0.0144	0.0376	-0.0294	33.7868	-23.0306	12.7999	-0.6275	0.3463	-0.5978	-0.3592
2.26	-9.5954	0.0813	0.3571	-0.0291	0.0263	-0.0331	34.0977	-23.1664	12.7690	-0.6274	0.3465	-0.5978	-0.3592
2.27	-9.5619	0.0626	0.3539	-0.0344	0.0168	-0.0308	33.9979	-23.0513	12.8163	-0.6273	0.3466	-0.5978	-0.3592
2.28	-9.5826	0.0577	0.3777	-0.0364	0.0244	-0.0301	33.8318	-23.0689	12.7125	-0.6271	0.3468	-0.5979	-0.3591
2.29	-9.5828	0.0231	0.3341	-0.0513	0.0227	-0.0270	33.8899	-23.0756	12.7439	-0.6270	0.3470	-0.5979	-0.3592
2.3	-9.5574	0.0019	0.3580	-0.0541	0.0110	-0.0296	33.8592	-23.0533	12.9046	-0.6268	0.3472	-0.5979	-0.3593
2.31	-9.5487	-0.0054	0.3745	-0.0601	0.0107	-0.0229	34.0069	-22.9716	12.8624	-0.6267	0.3474	-0.5978	-0.3594
2.32	-9.5338	-0.0324	0.3482	-0.0566	0.0076	-0.0298	33.8977	-22.9575	12.8808	-0.6266	0.3476	-0.5978	-0.3595
2.33	-9.5292	-0.0681	0.3718	-0.0596	-0.0062	-0.0228	33.7875	-23.0896	12.8805	-0.6265	0.3478	-0.5977	-0.3596
2.34	-9.5220	-0.0614	0.3883	-0.0525	0.0032	-0.0171	33.7650	-22.9313	12.7592	-0.6264	0.3479	-0.5977	-0.3597
2.35	-9.5151	-0.0990	0.3719	-0.0431	0.0072	-0.0123	33.8297	-22.7797	12.9612	-0.6262	0.3480	-0.5977	-0.3598
2.36	-9.5077	-0.0759	0.3816	-0.0322	0.0032	-0.0152	33.9038	-23.0158	12.9112	-0.6261	0.3481	-0.5977	-0.3599
2.37	-9.4933	-0.0942	0.3914	-0.0358	0.0038	-0.0186	33.7568	-22.9429	12.7663	-0.6261	0.3482	-0.5977	-0.3600
2.38	-9.5061	-0.1169	0.3971	-0.0254	0.0055	-0.0220	34.0467	-23.1532	12.6620	-0.6260	0.3483	-0.5977	-0.3600
2.39	-9.5030	-0.0943	0.3887	-0.0065	0.0110	-0.0261	34.1965	-23.2798	12.5682	-0.6259	0.3484	-0.5978	-0.3599
2.4	-9.4972	-0.1264	0.3884	-0.0088	0.0075	-0.0295	34.0221	-23.1646	12.7020	-0.6259	0.3484	-0.5978	-0.3599
2.41	-9.5014	-0.0991	0.3924	0.0113	0.0222	-0.0246	33.9920	-23.1260	12.6911	-0.6258	0.3484	-0.5979	-0.3598
2.42	-9.4940	-0.0758	0.3674	0.0184	0.0183	-0.0154	34.1548	-23.2218	12.7037	-0.6258	0.3484	-0.5981	-0.3597
2.43	-9.5058	-0.0683	0.3834	0.0179	0.0196	-0.0189	33.9515	-23.1934	12.6791	-0.6258	0.3483	-0.5982	-0.3595
2.44	-9.4913	-0.0384	0.3804	0.0220	0.0244	-0.0202	33.9543	-23.0644	12.7912	-0.6257	0.3483	-0.5984	-0.3594
2.45	-9.5014	-0.0086	0.3807	0.0193	0.0255	-0.0243	33.8776	-23.1461	12.7831	-0.6256	0.3483	-0.5985	-0.3592
2.46	-9.5144	-0.0029	0.3772	0.0171	0.0275	-0.0223	33.8075	-23.0608	12.9762	-0.6256	0.3483	-0.5987	-0.3591
2.47	-9.5240	-0.0039	0.3645	0.0204	0.0296	-0.0254	33.8375	-22.9906	12.8867	-0.6255	0.3482	-0.5988	-0.3589
2.48	-9.5391	0.0227	0.3713	0.0131	0.0327	-0.0327	33.9829	-22.9882	12.8700	-0.6255	0.3483	-0.5990	-0.3588
2.49	-9.5394	0.0033	0.3477	0.0135	0.0368	-0.0321	34.0953	-22.9334	12.8717	-0.6254	0.3483	-0.5992	-0.3586
2.5	-9.5475	-0.0072	0.3574	0.0182	0.0314	-0.0260	33.7159	-22.9023	12.8918	-0.6253	0.3483	-0.5993	-0.3584
2.51	-9.5512	0.0023	0.3572	0.0091	0.0380	-0.0289	33.7687	-22.7744	12.7608	-0.6252	0.3484	-0.5995	-0.3582
2.52	-9.5550	-0.0118	0.3351	-0.0017	0.0292	-0.0260	33.8867	-23.0768	12.9175	-0.6251	0.3484	-0.5996	-0.3581
2.53	-9.5506	-0.0103	0.3273	0.0001	0.0366	-0.0189	33.9089	-22.9539	13.1482	-0.6250	0.3485	-0.5998	-0.3580
2.54	-9.5461	0.0051	0.3225	0.0035	0.0216	-0.0156	33.9555	-22.9258	13.1612	-0.6249	0.3485	-0.5999	-0.3580
2.55	-9.5512	0.0077	0.3318	-0.0042	0.0229	-0.0132	33.6129	-23.0879	13.0540	-0.6248	0.3485	-0.6000	-0.3579
2.56	-9.5415	-0.0092	0.3294	-0.0034	0.0230	-0.0135	33.9157	-22.9649	12.9266	-0.6247	0.3485	-0.6002	-0.3579
2.57	-9.5322	0.0059	0.3419	-0.0083	0.0136	-0.0105	34.1368	-23.1378	13.0431	-0.6246	0.3485	-0.6002	-0.3579
2.58	-9.5418	0.0000	0.3375	-0.0083	0.0208	-0.0152	34.1677	-23.2491	13.0817	-0.6245	0.3486	-0.6004	-0.3578
2.59	-9.5440	0.0004	0.3406	-0.0141	0.0203	-0.0161	33.9822	-23.2157	13.0521	-0.6244	0.3486	-0.6005	-0.3578
2.6	-9.5375	-0.0369	0.3528	-0.0165	0.0158	-0.0145	34.0236	-23.0132	12.9257	-0.6243	0.3487	-0.6005	-0.3578
2.61	-9.5262	-0.0135	0.3354	-0.0117	0.0229	-0.0136	33.9840	-23.1017	13.0589	-0.6242	0.3487	-0.6006	-0.3578
2.62	-9.5192	-0.0165	0.3242	-0.0186	0.0189	-0.0086	33.9717	-22.9574	13.0594	-0.6241	0.3488	-0.6007	-0.3578
2.63	-9.5186	-0.0497	0.3178	-0.0177	0.0075	-0.0090	33.9085	-22.9870	13.0638	-0.6240	0.3488	-0.6008	-0.3578
2.64	-9.5412	-0.0460	0.3306	-0.0175	0.0194	-0.0094	33.7533	-23.1554	12.8540	-0.6239	0.3488	-0.6009	-0.3579
2.65	-9.5690	-0.0629	0.3276	-0.0190	0.0183	-0.0082	33.7067	-23.1464	13.0157	-0.6237	0.3489	-0.6010	-0.3579
2.66	-9.5708	-0.0709	0.3309	-0.0192	0.0140	-0.0085	33.8790	-23.0913	13.5030	-0.6236	0.3489	-0.6010	-0.3579
2.67	-9.5775	-0.1013	0.3267	-0.0196	0.0099	-0.0090	34.3085	-22.6771	13.5342	-0.6235	0.3489	-0.6011	-0.3579
2.68	-9.5500	-0.1076	0.2999	-0.0198	0.0073	-0.0058	34.2488	-22.6952	13.3739	-0.6235	0.3489	-0.6012	-0.3580
2.69	-9.5079	-0.0944	0.3148	-0.0100	0.0049	0.0003	33.8825	-23.4412	13.0654	-0.6234	0.3489	-0.6012	-0.3580
2.7	-9.4925	-0.1013	0.3118	-0.0073	0.0126	0.0104	33.9591	-24.1933	13.1858	-0.6232	0.3488	-0.6014	-0.3581
2.71	-9.4772	-0.0927	0.2740	-0.0083	0.0149	0.0131	33.7661	-23.3804	13.0545	-0.6231	0.3488	-0.6015	-0.3581
2.72	-9.4661	-0.0804	0.2737	-0.0055	0.0085	0.0199	33.8858	-23.0819	12.9160	-0.6230	0.3487	-0.6016	-0.3582
2.73	-9.4967	-0.0882	0.3004	0.0042	0.0236	0.0188	33.8966	-23.2744	12.9317	-0.6228	0.3486	-0.6018	-0.3583
2.74	-9.5036	-0.0915	0.2697	0.0106	0.0254	0.0212	33.6050	-23.0775	13.0309	-0.6227	0.3485	-0.6020	-0.3583
2.75	-9.5437	-0.0879	0.2708	0.0193	0.0279	0.0248	33.9231	-23.0206	13.0306	-0.6226	0.3483	-0.6023	-0.3583
2.76	-9.5359	-0.0402	0.2720	0.0238	0.0211	0.0263	34.0264	-23.2964	13.2623	-0.6224	0.3481	-0.6025	-0.3583
2.77	-9.5355	-0.0378	0.2824	0.0224	0.0242	0.0276	33.7104	-23.3721	13.0172	-0.6223	0.3479	-0.6028	-0.3583
2.78	-9.5370	0.0009	0.2648	0.0346	0.0240	0.0191	33.7431	-23.3623	12.9384	-0.6222	0.3477	-0.6030	-0.3582
2.79	-9.5110	0.0100	0.2613	0.0400	0.0207	0.0226	33.8817	-23.3689	13.1032	-0.6221	0.3475	-0.6033	-0.3582
2.8	-9.5176	0.0273	0.2795	0.0398	0.0238	0.0297	33.9024	-23.2763	13.2279	-0.6220	0.3473	-0.6036	-0.3581
2.81	-9.5512	0.0573	0.2719	0.0446	0.0277	0.0224	33.8558	-23.1302	13.2757	-0.6219	0.3470	-0.6038	-0.3580
2.82	-9.5178	0.0654	0.2210	0.0439	0.0334	0.0178	33.7725	-23.2893	13.1730	-0.6218	0.3468	-0.6041	-0.3579
2.83	-9.4888	0.0973	0.2716	0.0401	0.0163	0.0206	33.8224	-23.1732	13.2006	-0.6217	0.3466	-0.6044	-0.3579
2.84	-9.5541	0.0984	0.2932	0.0380	0.0336	0.0185	33.6717	-23.2193	13.3152	-0.6216	0.3464	-0.6047	-0.3578
2.85	-9.5538	0.1154	0.2144	0.0339	0.0299	0.0167	33.7577	-23.2478	13.4068	-0.6215	0.3462	-0.6049	-0.3577
2.86	-9.5498	0.1361	0.2653	0.0346	0.0132	0.0124	33.8312	-23.1637	13.3713	-0.6214	0.3460	-0.6051	-0.3576
2.87	-9.5424	0.1323	0.2706	0.0340	0.0261	0.0027	33.6860	-23.1812	13.3918	-0.6214	0.3459	-0.6054	-0.3575
2.88	-9.5596	0.1297	0.2424	0.0230	0.0247	0.0060	33.7271	-23.3323	13.2554	-0.6213	0.3457	-0.6056	-0.3574
2.89	-9.5467	0.1380	0.2420	0.0205	0.0191	0.0058	33.4925	-23.1564	13.3426	-0.6212	0.3456	-0.6058	-0.3574
2.9	-9.5132	0.1657	0.2776	0.0170	0.0165	0.0089	33.6659	-23.3798	13.4735	-0.6211	0.3455	-0.6059	-0.3574
2.91	-9.5049	0.1673	0.2728	0.0197	0.0234	0.0061	33.3501	-23.2220	13.5860	-0.6210	0.3454	-0.6061	-0.3573
2.92	-9.4580	0.1725	0.2382	0.0195	0.0266	-0.0055	33.4591	-22.9777	13.5356	-0.6209	0.3453	-0.6063	-0.3572
2.93	-9.4742	0.1745	0.2707	0.0183	0.0306	0.0027	33.4758	-23.4120	13.3859	-0.6208	0.3452	-0.6065	-0.3571
2.94	-9.5140	0.1543	0.2403	0.0177	0.0382	-0.0010	33.5182	-23.2624	13.3777	-0.6207	0.3451	-0.6068	-0.3570
2.95	-9.5145	0.1721	0.1970	0.0188	0.0481	-0.0080	33.6244	-23.1558	13.5028	-0.6205	0.3451	-0.6070	-0.3569
2.96	-9.5262	0.1521	0.2489	0.0182	0.0364	-0.0007	33.3383	-23.4201	13.6225	-0.6204	0.3451	-0.6072	-0.3568
2.97	-9.5467	0.1669	0.2363	0.0183	0.0500	-0.0072	33.6293	-23.4117	13.4099	-0.6203	0.3450	-0.6075	-0.3567
2.98	-9.5702	0.1595	0.1734	0.0184	0.0529	-0.0026	33.6358	-23.1423	13.2501	-0.6201	0.3450	-0.6078	-0.3565
2.99	-9.5537	0.1868	0.1767	0.0227	0.0359	-0.0029	33.3054	-23.2109	13.7475	-0.6199	0.3449	-0.6080	-0.3564
3	-9.5236	0.2067	0.2098	0.0188	0.0345	-0.0066	33.3185	-23.1575	13.6765	-0.6198	0.3449	-0.6082	-0.3563
3.01	-9.5413	0.1857	0.1793	0.0173	0.0468	-0.0076	33.7705	-23.2888	13.6559	-0.6197	0.3448	-0.6084	-0.3562
3.02	-9.5588	0.2050	0.1454	0.0171	0.0364	-0.0076	33.4537	-23.1510	13.7543	-0.6196	0.3448	-0.6087	-0.3561
3.03	-9.5606	0.2144	0.1690	0.0194	0.0304	-0.0077	33.4590	-23.2238	13.7891	-0.6195	0.3447	-0.6088	-0.3559
3.04	-9.5307	0.2187	0.1566	0.0181	0.0308	-0.0065	33.3613	-23.0786	13.8727	-0.6194	0.3447	-0.6090	-0.3558
3.05	-9.5458	0.2179	0.1577	0.0162	0.0357	-0.0075	33.4317	-23.2062	13.7354	-0.6193	0.3446	-0.6093	-0.3557
3.06	-9.5787	0.2526	0.1463	0.0184	0.0391	-0.0079	33.4640	-23.3991	13.6144	-0.6191	0.3446	-0.6095	-0.3556
3.07	-9.5563	0.2461	0.1283	0.0097	0.0293	-0.0075	33.3837	-23.3478	13.5703	-0.6190	0.3446	-0.6096	-0.3555
3.08	-9.5556	0.2472	0.1783	0.0122	0.0219	-0.0089	33.2590	-23.3754	13.8782	-0.6189	0.3445	-0.6098	-0.3555
3.09	-9.5589	0.2685	0.1435	0.0134	0.0336	-0.0145	33.3519	-23.1558	13.8142	-0.6188	0.3445	-0.6100	-0.3553
3.1	-9.5349	0.2756	0.1214	0.0083	0.0273	-0.0203	33.2358	-23.1899	13.7289	-0.6188	0.3445	-0.6101	-0.3552
3.11	-9.5240	0.2730	0.1541	0.0042	0.0214	-0.0190	33.2780	-23.1959	13.7566	-0.6187	0.3445	-0.6103	-0.3551
3.12	-9.5423	0.2967	0.1435	0.0047	0.0247	-0.0219	33.2444	-23.1601	13.7485	-0.6186	0.3445	-0.6104	-0.3550
3.13	-9.5334	0.2802	0.1110	-0.0058	0.0175	-0.0307	33.5262	-23.2444	13.6202	-0.6185	0.3446	-0.6105	-0.3550
3.14	-9.5508	0.2759	0.1612	-0.0109	0.0100	-0.0304	33.4976	-23.3832	13.7324	-0.6185	0.3447	-0.6105	-0.3549
3.15	-9.5333	0.2838	0.1307	-0.0169	0.0164	-0.0342	33.3229	-23.1210	13.7425	-0.6184	0.3448	-0.6105	-0.3548
3.16	-9.5048	0.2827	0.1164	-0.0259	0.0087	-0.0338	33.5631	-23.2585	13.9576	-0.6184	0.3449	-0.6106	-0.3548
3.17	-9.5114	0.2622	0.1321	-0.0312	0.0218	-0.0340	33.9584	-22.8997	14.2175	-0.6183	0.3450	-0.6106	-0.3548
3.18	-9.4935	0.2487	0.1105	-0.0338	0.0213	-0.0340	34.1240	-23.0672	14.0987	-0.6182	0.3452	-0.6106	-0.3548
3.19	-9.5613	0.2350	0.1611	-0.0344	0.0127	-0.0355	33.5789	-23.8085	13.8653	-0.6181	0.3454	-0.6106	-0.3548
3.2	-9.5686	0.1985	0.1253	-0.0420	0.0211	-0.0387	33.4478	-24.6982	13.9657	-0.6180	0.3456	-0.6106	-0.3548
3.21	-9.5802	0.1681	0.1487	-0.0488	0.0104	-0.0385	33.6609	-23.5489	13.8419	-0.6179	0.3458	-0.6106	-0.3548
3.22	-9.5509	0.1366	0.1352	-0.0501	0.0101	-0.0325	33.4386	-23.0134	13.9709	-0.6177	0.3460	-0.6106	-0.3549
3.23	-9.5073	0.1182	0.1448	-0.0445	0.0118	-0.0347	33.3232	-23.2823	13.8775	-0.6176	0.3461	-0.6105	-0.3549
3.24	-9.4948	0.1201	0.1550	-0.0443	0.0248	-0.0247	33.4675	-23.1225	13.8513	-0.6175	0.3463	-0.6106	-0.3549
3.25	-9.4656	0.1439	0.1098	-0.0359	0.0282	-0.0252	33.3663	-23.2673	13.7089	-0.6173	0.3465	-0.6106	-0.3549
3.26	-9.4702	0.1420	0.1175	-0.0409	0.0220	-0.0347	33.2378	-23.2424	13.6586	-0.6172	0.3467	-0.6106	-0.3550
3.27	-9.4749	0.1046	0.0943	-0.0370	0.0365	-0.0335	33.1492	-23.0686	13.8511	-0.6170	0.3469	-0.6107	-0.3549
3.28	-9.4741	0.1121	0.0837	-0.0403	0.0399	-0.0336	33.4800	-23.1670	13.9788	-0.6169	0.3471	-0.6108	-0.3549
3.29	-9.5107	0.1078	0.1011	-0.0352	0.0400	-0.0350	33.2531	-23.4167	13.7554	-0.6167	0.3473	-0.6109	-0.3549
3.3	-9.5397	0.1045	0.0687	-0.0323	0.0360	-0.0343	33.3300	-22.9911	13.7993	-0.6165	0.3475	-0.6109	-0.3548
3.31	-9.5654	0.1106	0.0745	-0.0343	0.0272	-0.0337	33.3562	-23.2045	13.8848	-0.6164	0.3477	-0.6110	-0.3548
3.32	-9.5508	0.1132	0.0607	-0.0332	0.0309	-0.0339	33.5056	-23.2782	13.6734	-0.6163	0.3479	-0.6110	-0.3548
3.33	-9.5433	0.1267	0.0599	-0.0321	0.0304	-0.0331	33.5118	-23.4096	13.7908	-0.6161	0.3480	-0.6111	-0.3547
3.34	-9.5682	0.1056	0.0734	-0.0338	0.0368	-0.0342	33.6213	-23.4148	13.7874	-0.6160	0.3482	-0.6112	-0.3547
3.35	-9.5657	0.1102	0.0378	-0.0339	0.0348	-0.0337	33.5869	-23.5227	13.8019	-0.6158	0.3484	-0.6112	-0.3547
3.36	-9.6367	0.0879	0.0564	-0.0358	0.0352	-0.0339	33.6297	-23.4434	13.7657	-0.6156	0.3486	-0.6113	-0.3546
3.37	-9.5938	0.0674	-0.0040	-0.0397	0.0318	-0.0299	33.4914	-23.1999	13.9046	-0.6155	0.3488	-0.6114	-0.3546
3.38	-9.5758	0.0790	0.0318	-0.0344	0.0130	-0.0335	33.4322	-23.1402	13.8302	-0.6154	0.3490	-0.6114	-0.3546
3.39	-9.6476	0.0874	0.0589	-0.0363	0.0245	-0.0342	33.3707	-23.3080	13.8036	-0.6153	0.3492	-0.6114	-0.3546
3.4	-9.6081	0.0503	-0.0431	-0.0349	0.0209	-0.0339	33.3289	-23.3365	13.9944	-0.6151	0.3493	-0.6114	-0.3546
3.41	-9.5719	0.0655	0.0355	-0.0321	-0.0023	-0.0341	33.2344	-23.1992	13.9565	-0.6151	0.3495	-0.6114	-0.3546
3.42	-9.5456	0.0611	0.0567	-0.0331	0.0068	-0.0342	33.2781	-22.9921	13.9608	-0.6150	0.3496	-0.6114	-0.3546
3.43	-9.5470	0.0296	0.0333	-0.0340	0.0073	-0.0323	33.3770	-23.1471	13.7485	-0.6150	0.3497	-0.6113	-0.3546
3.44	-9.5535	0.0612	0.0477	-0.0336	-0.0042	-0.0319	33.2958	-23.1345	13.8970	-0.6149	0.3498	-0.6113	-0.3547
3.45	-9.5495	0.0768	0.0771	-0.0330	-0.0172	-0.0276	33.3981	-23.1546	13.9566	-0.6149	0.3499	-0.6112	-0.3547
3.46	-9.5291	0.0466	0.0755	-0.0348	-0.0110	-0.0325	33.1998	-23.1160	13.6579	-0.6149	0.3500	-0.6112	-0.3548
3.47	-9.5009	0.0566	0.0768	-0.0334	-0.0106	-0.0350	33.2082	-23.2381	13.7724	-0.6149	0.3501	-0.6111	-0.3548
3.48	-9.5178	0.0498	0.1026	-0.0342	0.0024	-0.0345	33.3572	-23.2158	13.8026	-0.6148	0.3503	-0.6110	-0.3549
3.49	-9.4985	0.0043	0.0680	-0.0315	0.0017	-0.0336	33.3536	-23.1349	13.8825	-0.6148	0.3504	-0.6110	-0.3549
3.5	-9.4857	0.0191	0.0947	-0.0280	-0.0024	-0.0306	33.4666	-23.1133	13.8893	-0.6147	0.3505	-0.6110	-0.3549
3.51	-9.4811	0.0103	0.1039	-0.0266	0.0079	-0.0295	33.3834	-23.3161	13.7827	-0.6147	0.3506	-0.6110	-0.3549
3.52	-9.4727	0.0015	0.0759	-0.0138	0.0136	-0.0218	33.6858	-23.5259	13.6928	-0.6146	0.3507	-0.6110	-0.3549
3.53	-9.4827	-0.0001	0.0810	-0.0101	0.0066	-0.0281	33.6490	-23.3360	13.6768	-0.6145	0.3507	-0.6111	-0.3548
3.54	-9.5068	0.0186	0.0712	-0.0063	0.0195	-0.0239	33.5753	-23.5216	13.7889	-0.6145	0.3508	-0.6112	-0.3548
3.55	-9.5154	0.0269	0.0581	-0.0072	0.0147	-0.0273	33.6366	-23.3813	13.7724	-0.6144	0.3508	-0.6112	-0.3547
3.56	-9.5135	0.0410	0.0661	-0.0090	0.0226	-0.0265	33.3007	-23.3062	13.9670	-0.6143	0.3509	-0.6113	-0.3547
3.57	-9.5409	0.0444	0.0602	-0.0040	0.0275	-0.0238	33.4637	-23.3140	14.0921	-0.6142	0.3510	-0.6114	-0.3546
3.58	-9.5657	0.0729	0.0267	-0.0019	0.0232	-0.0227	33.5451	-23.3300	14.0653	-0.6141	0.3510	-0.6115	-0.3545
3.59	-9.5657	0.1005	0.0460	-0.0024	0.0153	-0.0275	33.3969	-23.1943	13.9351	-0.6141	0.3510	-0.6116	-0.3544
3.6	-9.5500	0.0811	0.0448	-0.0044	0.0208	-0.0238	33.4399	-22.9735	13.8643	-0.6140	0.3511	-0.6117	-0.3543
3.61	-9.5764	0.1052	0.0471	-0.0087	0.0279	-0.0289	33.4312	-22.9832	13.8392	-0.6139	0.3512	-0.6118	-0.3543
3.62	-9.5849	0.0843	0.0117	-0.0132	0.0209	-0.0305	33.3379	-23.3055	14.1021	-0.6138	0.3512	-0.6119	-0.3542
3.63	-9.5799	0.0742	0.0263	-0.0150	0.0169	-0.0324	33.3273	-22.9997	13.8705	-0.6138	0.3513	-0.6119	-0.3541
3.64	-9.5799	0.0646	0.0351	-0.0200	0.0232	-0.0311	33.1868	-22.8903	13.7773	-0.6137	0.3515	-0.6120	-0.3541
3.65	-9.5859	0.0523	0.0172	-0.0229	0.0124	-0.0315	33.4277	-23.0573	13.9887	-0.6136	0.3516	-0.6120	-0.3541
3.66	-9.5686	0.0482	0.0154	-0.0169	0.0014	-0.0330	33.6091	-22.9975	14.0523	-0.6136	0.3516	-0.6120	-0.3540
3.67	-9.5593	0.0507	0.0544	-0.0088	-0.0104	-0.0324	33.9447	-22.9739	14.2169	-0.6136	0.3517	-0.6120	-0.3540
3.68	-9.5541	0.0617	0.0499	-0.0072	-0.0060	-0.0257	33.8044	-23.0635	14.2013	-0.6136	0.3517	-0.6120	-0.3540
3.69	-9.5499	0.0832	0.0623	-0.0081	-0.0050	-0.0275	33.3278	-23.6597	14.0418	-0.6136	0.3517	-0.6120	-0.3539
3.7	-9.5406	0.0863	0.0752	-0.0075	-0.0113	-0.0247	33.5135	-24.5582	14.0141	-0.6136	0.3517	-0.6120	-0.3539
3.71	-9.5133	0.0864	0.0641	-0.0113	-0.0172	-0.0300	33.4758	-23.6197	14.0627	-0.6136	0.3517	-0.6119	-0.3539
3.72	-9.4883	0.0918	0.0846	-0.0173	-0.0142	-0.0260	33.2737	-23.2615	13.9520	-0.6137	0.3517	-0.6119	-0.3540
3.73	-9.4949	0.0804	0.1028	-0.0304	-0.0142	-0.0262	33.2389	-23.3155	13.9196	-0.6136	0.3518	-0.6118	-0.3540
3.74	-9.5243	0.0641	0.1003	-0.0290	0.0017	-0.0301	33.5452	-23.1524	13.9703	-0.6136	0.3519	-0.6118	-0.3540
3.75	-9.4850	0.0335	0.0920	-0.0318	-0.0132	-0.0313	33.4617	-23.1444	13.8495	-0.6136	0.3520	-0.6118	-0.3541
3.76	-9.4523	-0.0164	0.1294	-0.0337	-0.0112	-0.0303	33.4109	-23.1480	13.9124	-0.6136	0.3521	-0.6117	-0.3541
3.77	-9.4295	-0.0240	0.1050	-0.0252	0.0133	-0.0138	33.5776	-23.3250	14.1925	-0.6135	0.3522	-0.6117	-0.3542
3.78	-9.4158	-0.0206	0.1068	-0.0063	0.0145	-0.0092	33.4382	-23.2189	14.0386	-0.6134	0.3522	-0.6118	-0.3542
3.79	-9.4056	-0.0106	0.1048	-0.0082	0.0344	-0.0105	33.2285	-23.1466	13.7787	-0.6132	0.3522	-0.6120	-0.3541
3.8	-9.4047	-0.0074	0.0564	-0.0016	0.0462	-0.0066	33.3646	-23.4187	14.1873	-0.6130	0.3522	-0.6122	-0.3541
3.81	-9.4147	0.0039	0.0393	0.0012	0.0534	-0.0103	33.3406	-23.0419	14.0554	-0.6129	0.3523	-0.6124	-0.3540
3.82	-9.4600	0.0123	0.0249	0.0091	0.0642	-0.0202	33.3542	-23.2755	14.0723	-0.6127	0.3523	-0.6126	-0.3538
3.83	-9.4906	0.0369	-0.0122	0.0153	0.0637	-0.0273	33.3397	-23.0954	14.1516	-0.6125	0.3524	-0.6129	-0.3536
3.84	-9.5729	0.0642	-0.0202	0.0178	0.0711	-0.0270	33.3622	-23.2329	14.0960	-0.6123	0.3525	-0.6132	-0.3534
3.85	-9.6092	0.0953	-0.0501	0.0163	0.0641	-0.0247	33.1673	-23.2204	14.1472	-0.6121	0.3526	-0.6134	-0.3531
3.86	-9.6192	0.1135	-0.0461	0.0201	0.0511	-0.0253	33.2110	-23.0430	13.7998	-0.6120	0.3526	-0.6137	-0.3529
3.87	-9.6165	0.1453	-0.0545	0.0162	0.0487	-0.0218	32.9441	-23.1386	14.0567	-0.6119	0.3526	-0.6139	-0.3527
3.88	-9.6223	0.1554	-0.0744	0.0111	0.0515	-0.0150	33.0643	-23.1914	14.2295	-0.6117	0.3526	-0.6141	-0.3526
3.89	-9.6298	0.1486	-0.0942	-0.0000	0.0429	-0.0156	33.3695	-23.3669	14.2644	-0.6115	0.3527	-0.6143	-0.3525
3.9	-9.6598	0.1433	-0.0824	-0.0068	0.0318	-0.0186	33.3955	-23.3460	14.3282	-0.6114	0.3527	-0.6144	-0.3524
3.91	-9.6441	0.1243	-0.1150	-0.0166	0.0215	-0.0158	33.5773	-23.3870	14.3128	-0.6113	0.3528	-0.6145	-0.3524
3.92	-9.6061	0.1078	-0.0963	-0.0239	0.0077	-0.0146	33.1744	-23.4375	14.2819	-0.6112	0.3528	-0.6146	-0.3524
3.93	-9.6423	0.0987	-0.0634	-0.0272	0.0196	-0.0192	33.2424	-23.0717	14.1700	-0.6111	0.3529	-0.6146	-0.3525
3.94	-9.6398	0.0860	-0.1004	-0.0326	0.0138	-0.0155	33.2607	-23.1987	14.3218	-0.6110	0.3530	-0.6147	-0.3525
3.95	-9.5762	0.0655	-0.0792	-0.0328	-0.0119	-0.0278	33.1650	-23.1777	14.3022	-0.6109	0.3531	-0.6146	-0.3526
3.96	-9.5330	0.0610	-0.0384	-0.0221	-0.0198	-0.0193	33.3073	-23.0433	14.2974	-0.6109	0.3531	-0.6146	-0.3526
3.97	-9.5068	0.0591	-0.0370	-0.0300	-0.0136	-0.0161	33.1720	-23.2141	14.3178	-0.6109	0.3532	-0.6145	-0.3527
3.98	-9.4952	0.0689	-0.0280	-0.0315	-0.0160	-0.0166	33.1519	-23.1486	14.2829	-0.6109	0.3532	-0.6145	-0.3528
3.99	-9.4910	0.0768	-0.0072	-0.0337	-0.0113	-0.0172	33.2135	-23.1370	14.2109	-0.6108	0.3533	-0.6144	-0.3529
4	-9.4551	0.0676	-0.0133	-0.0289	-0.0089	-0.0237	33.2682	-23.1580	14.4035	-0.6108	0.3533	-0.6144	-0.3530
4.01	-9.4416	0.0573	0.0076	-0.0314	0.0011	-0.0258	33.2708	-22.9882	14.3315	-0.6108	0.3534	-0.6144	-0.3530
4.02	-9.4551	0.0433	-0.0069	-0.0318	0.0136	-0.0274	33.2283	-23.1171	14.1329	-0.6107	0.3535	-0.6144	-0.3531
4.03	-9.4400	0.0327	-0.0333	-0.0297	0.0200	-0.0271	33.0163	-23.1159	14.0188	-0.6105	0.3537	-0.6144	-0.3531
4.04	-9.4313	0.0107	-0.0150	-0.0298	0.0257	-0.0246	33.1773	-23.0206	14.2725	-0.6104	0.3538	-0.6145	-0.3531
4.05	-9.4460	0.0175	-0.0310	-0.0176	0.0326	-0.0150	33.1768	-23.0082	14.4492	-0.6103	0.3539	-0.6146	-0.3530
4.06	-9.4711	0.0491	-0.0480	-0.0071	0.0366	-0.0193	33.1524	-23.2466	14.2968	-0.6101	0.3540	-0.6147	-0.3530
4.07	-9.4948	0.0234	-0.0690	-0.0072	0.0420	-0.0193	33.2199	-23.3355	14.2489	-0.6100	0.3540	-0.6149	-0.3529
4.08	-9.4788	0.0325	-0.0887	-0.0034	0.0396	-0.0116	33.3451	-23.3880	14.3364	-0.6098	0.3541	-0.6151	-0.3528
4.09	-9.4789	0.0432	-0.0759	-0.0079	0.0449	-0.0124	33.3700	-23.1420	14.1990	-0.6096	0.3541	-0.6152	-0.3527
4.1	-9.4771	0.0562	-0.1254	-0.0056	0.0505	-0.0068	33.2930	-23.2153	14.5002	-0.6094	0.3542	-0.6155	-0.3527
4.11	-9.4943	0.0728	-0.1434	0.0108	0.0499	-0.0106	33.2570	-23.1145	14.4969	-0.6093	0.3542	-0.6157	-0.3525
4.12	-9.5132	0.0881	-0.1527	0.0109	0.0545	-0.0126	33.2469	-23.0703	14.3856	-0.6091	0.3542	-0.6159	-0.3524
4.13	-9.5374	0.0766	-0.1804	0.0131	0.0612	-0.0124	33.1799	-23.2645	14.2920	-0.6089	0.3542	-0.6162	-0.3522
4.14	-9.5504	0.0696	-0.2152	0.0140	0.0712	-0.0137	33.2844	-23.4016	14.3036	-0.6087	0.3543	-0.6165	-0.3521
4.15	-9.6030	0.0702	-0.2264	0.0197	0.0730	-0.0139	33.2386	-23.3382	14.3691	-0.6085	0.3543	-0.6168	-0.3519
4.16	-9.6271	0.0619	-0.2646	0.0203	0.0762	-0.0071	33.4494	-23.2972	14.7294	-0.6082	0.3543	-0.6171	-0.3517
4.17	-9.6599	0.0830	-0.2779	0.0268	0.0594	-0.0102	33.6258	-22.9158	14.6388	-0.6081	0.3543	-0.6174	-0.3515
4.18	-9.6530	0.0945	-0.2970	0.0377	0.0517	-0.0124	33.6622	-22.9842	14.4513	-0.6079	0.3542	-0.6177	-0.3512
4.19	-9.6539	0.0951	-0.2990	0.0408	0.0443	-0.0130	33.0537	-23.5208	14.6415	-0.6078	0.3541	-0.6180	-0.3510
4.2	-9.6503	0.1021	-0.2975	0.0441	0.0347	-0.0200	33.2440	-24.4290	14.4945	-0.6078	0.3541	-0.6182	-0.3508
4.21	-9.6615	0.1015	-0.2863	0.0424	0.0187	-0.0313	32.9959	-23.2296	14.4905	-0.6078	0.3540	-0.6184	-0.3505
4.22	-9.6009	0.1003	-0.3017	0.0442	0.0012	-0.0245	33.0521	-22.9357	14.6461	-0.6079	0.3539	-0.6185	-0.3504
4.23	-9.5907	0.1301	-0.2326	0.0449	-0.0037	-0.0250	33.1999	-23.2666	14.5769	-0.6080	0.3537	-0.6186	-0.3502
4.24	-9.6040	0.1598	-0.2378	0.0410	-0.0049	-0.0278	33.0090	-22.9585	14.6041	-0.6080	0.3536	-0.6187	-0.3500
4.25	-9.5912	0.1512	-0.2517	0.0350	-0.0173	-0.0248	33.2238	-23.2626	14.6124	-0.6081	0.3534	-0.6187	-0.3499
4.26	-9.5386	0.1426	-0.1891	0.0272	-0.0315	-0.0283	33.2804	-23.2301	14.5096	-0.6083	0.3533	-0.6187	-0.3498
4.27	-9.5154	0.1527	-0.1470	0.0192	-0.0267	-0.0300	33.2379	-23.2994	14.5184	-0.6084	0.3532	-0.6187	-0.3497
4.28	-9.5673	0.1572	-0.1519	0.0141	-0.0153	-0.0270	33.1133	-23.2985	14.4762	-0.6085	0.3531	-0.6187	-0.3496
4.29	-9.5782	0.1454	-0.1700	-0.0036	-0.0254	-0.0201	33.0433	-23.0098	14.3626	-0.6086	0.3531	-0.6187	-0.3496
4.3	-9.5061	0.1214	-0.1411	-0.0024	-0.0415	-0.0117	33.2102	-23.3177	14.5596	-0.6086	0.3530	-0.6186	-0.3497
4.31	-9.4738	0.1041	-0.0946	-0.0108	-0.0274	-0.0084	33.1093	-23.0628	14.4490	-0.6087	0.3529	-0.6186	-0.3498
4.32	-9.4606	0.1076	-0.1331	-0.0244	-0.0078	-0.0097	33.1218	-23.1663	14.6251	-0.6086	0.3529	-0.6186	-0.3499
4.33	-9.4777	0.1274	-0.1477	-0.0223	-0.0008	-0.0087	33.2034	-23.0747	14.4654	-0.6086	0.3529	-0.6186	-0.3499
4.34	-9.4620	0.1233	-0.1683	-0.0364	0.0038	-0.0121	33.0407	-23.1031	14.6885	-0.6085	0.3530	-0.6186	-0.3500
4.35	-9.4793	0.1073	-0.1566	-0.0347	0.0083	-0.0188	33.1181	-22.9968	14.7197	-0.6084	0.3531	-0.6186	-0.3501
4.36	-9.4991	0.0803	-0.1831	-0.0326	0.0185	-0.0258	32.9995	-22.8496	14.5451	-0.6083	0.3532	-0.6186	-0.3501
4.37	-9.5034	0.0718	-0.1927	-0.0329	0.0135	-0.0353	32.9780	-23.0237	14.6135	-0.6082	0.3534	-0.6186	-0.3501
4.38	-9.5462	0.0648	-0.1615	-0.0302	0.0123	-0.0334	33.2495	-22.8566	14.3634	-0.6081	0.3535	-0.6186	-0.3501
4.39	-9.5537	0.0727	-0.2060	-0.0205	0.0171	-0.0291	33.2411	-22.9569	14.8037	-0.6080	0.3536	-0.6187	-0.3501
4.4	-9.5587	0.0750	-0.1973	-0.0250	0.0119	-0.0347	32.9873	-23.0712	14.6987	-0.6079	0.3537	-0.6187	-0.3500
4.41	-9.5538	0.0816	-0.1914	-0.0253	0.0101	-0.0330	32.9844	-23.1852	14.6708	-0.6079	0.3539	-0.6187	-0.3500
4.42	-9.5830	0.0874	-0.2050	-0.0190	0.0191	-0.0350	32.9984	-23.1490	14.5935	-0.6078	0.3540	-0.6187	-0.3500
4.43	-9.5741	0.0858	-0.2246	-0.0333	0.0082	-0.0361	32.9837	-22.9736	14.8054	-0.6077	0.3541	-0.6187	-0.3500
4.44	-9.6104	0.0683	-0.1922	-0.0339	-0.0021	-0.0342	32.9993	-23.0773	14.6850	-0.6077	0.3542	-0.6187	-0.3500
4.45	-9.5813	0.0654	-0.2393	-0.0353	0.0026	-0.0351	33.0841	-23.3034	14.5755	-0.6076	0.3544	-0.6186	-0.3500
4.46	-9.5750	0.0607	-0.2124	-0.0346	-0.0138	-0.0349	33.1116	-23.2133	14.6310	-0.6076	0.3545	-0.6186	-0.3501
4.47	-9.6270	0.0475	-0.1963	-0.0344	-0.0093	-0.0350	33.2196	-23.3569	14.5153	-0.6076	0.3546	-0.6185	-0.3501
4.48	-9.6085	0.0368	-0.2286	-0.0353	-0.0145	-0.0399	33.0167	-23.2398	14.5047	-0.6076	0.3547	-0.6184	-0.3502
4.49	-9.5818	-0.0104	-0.2049	-0.0338	-0.0240	-0.0357	33.1691	-23.1395	14.6473	-0.6076	0.3548	-0.6183	-0.3502
4.5	-9.5608	-0.0106	-0.1972	-0.0344	-0.0323	-0.0352	33.0807	-23.1876	14.5183	-0.6076	0.3549	-0.6181	-0.3503
4.51	-9.5891	-0.0215	-0.1608	-0.0335	-0.0281	-0.0321	33.1776	-23.1428	14.5035	-0.6077	0.3550	-0.6180	-0.3504
4.52	-9.5670	-0.0218	-0.1848	-0.0361	-0.0352	-0.0289	33.2401	-23.2047	14.5079	-0.6077	0.3550	-0.6179	-0.3505
4.53	-9.5622	-0.0174	-0.1475	-0.0348	-0.0404	-0.0347	33.0284	-23.0749	14.5234	-0.6078	0.3551	-0.6177	-0.3506
4.54	-9.5290	-0.0298	-0.1489	-0.0304	-0.0371	-0.0326	33.0943	-22.9265	14.7169	-0.6079	0.3552	-0.6176	-0.3507
4.55	-9.5131	-0.0499	-0.1420	-0.0311	-0.0350	-0.0363	33.1761	-23.2271	14.5758	-0.6079	0.3552	-0.6174	-0.3508
4.56	-9.5227	-0.0489	-0.1378	-0.0247	-0.0296	-0.0312	33.0216	-22.7339	14.4896	-0.6080	0.3553	-0.6173	-0.3508
4.57	-9.4796	-0.0327	-0.1591	-0.0247	-0.0243	-0.0312	33.0274	-23.0114	14.4886	-0.6080	0.3553	-0.6172	-0.3509
4.58	-9.4963	-0.0311	-0.1024	-0.0188	-0.0275	-0.0264	33.1223	-23.1292	14.5996	-0.6081	0.3553	-0.6171	-0.3509
4.59	-9.4910	-0.0121	-0.1287	-0.0227	-0.0260	-0.0202	32.9402	-22.8377	14.5870	-0.6081	0.3553	-0.6171	-0.3510
4.6	-9.4917	-0.0100	-0.1264	-0.0241	-0.0307	-0.0219	33.0544	-22.9652	14.4602	-0.6082	0.3553	-0.6170	-0.3511
4.61	-9.4950	0.0039	-0.1030	-0.0098	-0.0226	-0.0110	32.8224	-23.0414	14.5481	-0.6082	0.3553	-0.6169	-0.3511
4.62	-9.4755	0.0129	-0.1095	-0.0133	-0.0230	-0.0126	32.8721	-23.2176	14.3703	-0.6082	0.3552	-0.6169	-0.3512
4.63	-9.4794	0.0027	-0.0938	-0.0222	-0.0175	-0.0141	33.4205	-22.9782	14.4744	-0.6082	0.3552	-0.6169	-0.3513
4.64	-9.4790	0.0090	-0.1255	-0.0278	-0.0095	-0.0094	33.4084	-22.9072	14.2642	-0.6081	0.3553	-0.6168	-0.3514
4.65	-9.5044	0.0047	-0.1242	-0.0295	0.0029	-0.0093	33.1795	-23.1719	14.2746	-0.6081	0.3553	-0.6168	-0.3515
4.66	-9.5088	-0.0029	-0.1390	-0.0206	0.0092	-0.0084	33.2206	-23.1006	14.6490	-0.6080	0.3553	-0.6169	-0.3515
4.67	-9.5125	-0.0164	-0.1325	-0.0202	0.0065	-0.0126	33.7912	-22.9853	14.7487	-0.6079	0.3553	-0.6170	-0.3515
4.68	-9.5528	-0.0182	-0.1360	-0.0230	0.0062	-0.0103	33.5506	-23.0609	14.7202	-0.6078	0.3554	-0.6170	-0.3516
4.69	-9.5515	-0.0143	-0.1704	-0.0096	0.0116	-0.0093	33.0778	-23.5508	14.6614	-0.6077	0.3554	-0.6171	-0.3516
4.7	-9.5527	-0.0138	-0.1489	0.0004	0.0032	-0.0099	33.3210	-24.1948	14.7275	-0.6077	0.3553	-0.6171	-0.3516
4.71	-9.5616	0.0039	-0.1561	0.0046	0.0017	-0.0085	33.2281	-23.3496	14.6604	-0.6076	0.3553	-0.6172	-0.3516
4.72	-9.5861	0.0102	-0.1773	0.0001	0.0081	-0.0174	33.2175	-22.8912	14.5805	-0.6076	0.3553	-0.6173	-0.3515
4.73	-9.5603	0.0229	-0.1923	0.0138	0.0031	-0.0157	33.0722	-23.0974	14.5600	-0.6076	0.3552	-0.6174	-0.3515
4.74	-9.5566	0.0195	-0.1551	0.0138	-0.0127	-0.0171	33.1978	-23.0385	14.6939	-0.6076	0.3551	-0.6174	-0.3514
4.75	-9.5452	0.0365	-0.1619	0.0178	-0.0122	-0.0144	33.2239	-23.0126	14.6362	-0.6077	0.3550	-0.6175	-0.3514
4.76	-9.5512	0.0469	-0.1572	0.0117	-0.0163	-0.0134	33.2990	-22.9937	14.6767	-0.6077	0.3549	-0.6175	-0.3513
4.77	-9.5259	0.0638	-0.1547	0.0149	-0.0131	-0.0117	33.1411	-22.9374	14.6335	-0.6077	0.3548	-0.6175	-0.3513
4.78	-9.5242	0.0705	-0.1419	0.0093	-0.0113	-0.0143	33.2091	-23.0060	14.6942	-0.6078	0.3547	-0.6176	-0.3513
4.79	-9.5047	0.0677	-0.1688	0.0056	-0.0121	-0.0133	33.1101	-22.8093	14.5441	-0.6078	0.3546	-0.6176	-0.3513
4.8	-9.5008	0.0633	-0.1407	0.0017	-0.0191	-0.0117	32.9817	-22.9261	14.6802	-0.6078	0.3545	-0.6176	-0.3513
4.81	-9.5171	0.0726	-0.1184	0.0033	-0.0193	-0.0131	33.0181	-23.0682	14.6136	-0.6079	0.3545	-0.6176	-0.3513
4.82	-9.5681	0.0728	-0.1214	-0.0008	-0.0164	-0.0099	33.1834	-23.0875	14.5707	-0.6079	0.3544	-0.6176	-0.3513
4.83	-9.5100	0.0621	-0.1539	-0.0090	-0.0166	-0.0089	33.4896	-23.1876	14.4668	-0.6079	0.3543	-0.6176	-0.3514
4.84	-9.4966	0.0447	-0.0965	-0.0056	-0.0195	-0.0085	33.2941	-23.1667	14.7146	-0.6079	0.3543	-0.6176	-0.3514
4.85	-9.4958	0.0486	-0.1312	-0.0011	0.0046	-0.0089	33.3115	-23.2374	14.7383	-0.6079	0.3542	-0.6177	-0.3514
4.86	-9.4712	0.0707	-0.1777	0.0002	0.0100	0.0030	33.3260	-23.2380	14.6091	-0.6078	0.3541	-0.6178	-0.3514
4.87	-9.4870	0.1227	-0.1275	-0.0047	0.0097	-0.0011	33.1422	-23.0603	14.7978	-0.6077	0.3541	-0.6179	-0.3515
4.88	-9.4860	0.1156	-0.1734	-0.0090	0.0202	-0.0093	33.0879	-23.1248	14.5752	-0.6076	0.3541	-0.6180	-0.3514
4.89	-9.5279	0.1067	-0.1919	-0.0029	0.0169	-0.0124	33.2733	-23.0625	14.6229	-0.6075	0.3541	-0.6181	-0.3514
4.9	-9.5175	0.0868	-0.2044	-0.0049	0.0223	-0.0142	33.2001	-23.1961	14.6710	-0.6074	0.3541	-0.6182	-0.3514
4.91	-9.5224	0.0990	-0.1989	0.0006	0.0168	-0.0205	33.0570	-23.1695	14.7633	-0.6073	0.3541	-0.6183	-0.3513
4.92	-9.5460	0.1347	-0.2234	-0.0041	0.0215	-0.0244	33.1164	-23.0777	14.7297	-0.6073	0.3542	-0.6184	-0.3512
4.93	-9.5502	0.1089	-0.2260	-0.0086	0.0125	-0.0322	33.0418	-23.1036	14.5973	-0.6072	0.3542	-0.6185	-0.3512
4.94	-9.5546	0.1181	-0.2059	-0.0028	0.0182	-0.0315	33.3038	-23.0977	14.8094	-0.6072	0.3543	-0.6185	-0.3511
4.95	-9.5566	0.1294	-0.2501	-0.0033	0.0165	-0.0332	33.1107	-23.0832	14.6707	-0.6071	0.3544	-0.6186	-0.3510
4.96	-9.5599	0.1224	-0.2455	-0.0075	0.0076	-0.0342	33.1333	-22.9662	14.5700	-0.6071	0.3544	-0.6186	-0.3509
4.97	-9.5608	0.1305	-0.2325	-0.0195	0.0072	-0.0336	33.1966	-23.1075	14.7631	-0.6071	0.3545	-0.6186	-0.3509
4.98	-9.6120	0.1319	-0.2417	-0.0305	0.0148	-0.0348	33.1766	-22.9940	14.7713	-0.6070	0.3546	-0.6186	-0.3508
4.99	-9.5595	0.1191	-0.2943	-0.0321	0.0063	-0.0321	33.1622	-23.2789	14.5492	-0.6069	0.3548	-0.6186	-0.3509
5	-9.5409	0.1084	-0.2086	-0.0338	-0.0156	-0.0345	33.2433	-23.0170	14.4996	-0.6069	0.3549	-0.6186	-0.3509
5.01	-9.6090	0.0960	-0.2040	-0.0342	0.0101	-0.0334	33.2732	-23.0803	14.6701	-0.6068	0.3550	-0.6185	-0.3509
5.02	-9.5999	0.0908	-0.2911	-0.0452	-0.0056	-0.0350	33.3832	-23.2113	14.7969	-0.6068	0.3552	-0.6185	-0.3510
5.03	-9.5560	0.0406	-0.2376	-0.0452	-0.0278	-0.0318	33.1350	-23.1675	14.6649	-0.6068	0.3553	-0.6183	-0.3511
5.04	-9.5086	0.0363	-0.2101	-0.0490	-0.0205	-0.0238	33.1151	-23.2045	14.7559	-0.6067	0.3554	-0.6182	-0.3512
5.05	-9.5088	0.0100	-0.2272	-0.0489	-0.0153	-0.0211	33.3203	-23.0795	14.6391	-0.6067	0.3555	-0.6181	-0.3514
5.06	-9.5344	0.0250	-0.2443	-0.0436	-0.0141	-0.0177	33.3357	-23.1112	14.4570	-0.6066	0.3556	-0.6181	-0.3515
5.07	-9.5194	0.0175	-0.2384	-0.0376	-0.0144	-0.0202	33.2084	-23.2558	14.6250	-0.6066	0.3557	-0.6180	-0.3516
5.08	-9.5198	-0.0033	-0.1945	-0.0335	-0.0197	-0.0263	33.0743	-22.9699	14.5149	-0.6066	0.3557	-0.6179	-0.3517
5.09	-9.5301	-0.0037	-0.2173	-0.0338	-0.0121	-0.0282	33.1088	-23.1613	14.8257	-0.6066	0.3558	-0.6178	-0.3518
5.1	-9.5283	-0.0063	-0.2355	-0.0335	-0.0028	-0.0227	33.1963	-23.1260	14.6719	-0.6065	0.3559	-0.6178	-0.3518
5.11	-9.5164	-0.0101	-0.2212	-0.0293	-0.0074	-0.0338	33.1732	-23.1626	14.7004	-0.6065	0.3560	-0.6177	-0.3518
5.12	-9.5194	-0.0024	-0.2211	-0.0297	-0.0001	-0.0299	33.1772	-23.1035	14.9683	-0.6065	0.3561	-0.6177	-0.3519
5.13	-9.5451	0.0119	-0.2346	-0.0135	0.0052	-0.0342	33.0732	-22.9833	14.9154	-0.6064	0.3562	-0.6177	-0.3518
5.14	-9.5264	0.0251	-0.2446	-0.0109	-0.0113	-0.0343	33.2810	-23.1849	14.7694	-0.6065	0.3562	-0.6177	-0.3518
5.15	-9.5204	0.0397	-0.2106	-0.0105	-0.0071	-0.0286	33.1863	-23.2462	14.7355	-0.6065	0.3563	-0.6177	-0.3518
5.16	-9.4954	0.0734	-0.2373	-0.0074	-0.0065	-0.0318	33.2472	-23.2190	14.9701	-0.6065	0.3563	-0.6177	-0.3518
5.17	-9.5108	0.0962	-0.2327	-0.0170	0.0015	-0.0345	33.6210	-22.9447	14.9250	-0.6065	0.3564	-0.6177	-0.3517
5.18	-9.5184	0.0976	-0.2419	-0.0194	0.0039	-0.0336	33.6778	-22.9507	14.9034	-0.6064	0.3564	-0.6177	-0.3517
5.19	-9.5203	0.0930	-0.2316	-0.0328	-0.0008	-0.0342	33.1974	-23.5985	14.8529	-0.6064	0.3566	-0.6176	-0.3517
5.2	-9.5675	0.0886	-0.2159	-0.0319	-0.0017	-0.0342	33.1740	-24.4834	14.7327	-0.6063	0.3567	-0.6176	-0.3517
5.21	-9.5896	0.0751	-0.2455	-0.0338	-0.0010	-0.0328	33.2455	-23.3325	14.5969	-0.6063	0.3568	-0.6175	-0.3517
5.22	-9.5791	0.0473	-0.2337	-0.0442	-0.0072	-0.0357	33.1814	-23.1472	14.6290	-0.6063	0.3570	-0.6175	-0.3518
5.23	-9.5668	0.0336	-0.2045	-0.0438	-0.0090	-0.0389	33.0321	-23.1781	14.6316	-0.6062	0.3571	-0.6174	-0.3519
5.24	-9.5781	0.0124	-0.2150	-0.0483	-0.0019	-0.0378	33.3678	-23.0261	14.5796	-0.6062	0.3573	-0.6173	-0.3519
5.25	-9.5372	-0.0128	-0.2483	-0.0412	-0.0083	-0.0363	33.2184	-23.2252	14.5438	-0.6061	0.3574	-0.6172	-0.3520
5.26	-9.5354	-0.0362	-0.2044	-0.0423	-0.0196	-0.0355	33.0254	-23.0091	14.7681	-0.6061	0.3576	-0.6171	-0.3521
5.27	-9.5211	-0.0316	-0.2182	-0.0394	-0.0074	-0.0302	33.2125	-23.1052	14.5397	-0.6061	0.3577	-0.6170	-0.3521
5.28	-9.5264	-0.0406	-0.2197	-0.0363	-0.0157	-0.0295	33.2277	-23.1356	14.5841	-0.6061	0.3578	-0.6169	-0.3522
5.29	-9.5428	-0.0385	-0.1940	-0.0324	-0.0125	-0.0340	33.0492	-22.9101	14.6216	-0.6061	0.3579	-0.6169	-0.3523
5.3	-9.5554	-0.0384	-0.2033	-0.0331	-0.0122	-0.0346	33.0864	-22.7482	14.6185	-0.6061	0.3580	-0.6168	-0.3523
5.31	-9.5445	-0.0400	-0.2026	-0.0322	-0.0152	-0.0278	33.0377	-23.1110	14.8480	-0.6060	0.3581	-0.6167	-0.3524
5.32	-9.5388	-0.0233	-0.1803	-0.0322	-0.0140	-0.0295	33.1362	-23.0916	14.5840	-0.6060	0.3582	-0.6166	-0.3524
5.33	-9.5011	-0.0208	-0.2047	-0.0302	-0.0135	-0.0307	33.1629	-23.0563	14.7210	-0.6060	0.3583	-0.6166	-0.3525
5.34	-9.4752	-0.0268	-0.1814	-0.0288	-0.0147	-0.0317	33.0614	-23.0312	14.7093	-0.6060	0.3583	-0.6165	-0.3525
5.35	-9.4846	-0.0265	-0.1604	-0.0311	-0.0112	-0.0349	33.0356	-22.8506	14.5447	-0.6060	0.3584	-0.6164	-0.3525
5.36	-9.5485	-0.0368	-0.1595	-0.0300	-0.0042	-0.0291	32.9385	-23.1022	14.5177	-0.6060	0.3585	-0.6164	-0.3526
5.37	-9.5699	-0.0473	-0.1867	-0.0175	-0.0073	-0.0350	33.0824	-23.0191	14.5316	-0.6060	0.3586	-0.6163	-0.3526
5.38	-9.5316	-0.0576	-0.1775	-0.0205	-0.0220	-0.0233	33.1839	-23.2308	14.5279	-0.6060	0.3586	-0.6163	-0.3526
5.39	-9.5154	-0.0501	-0.1544	-0.0183	-0.0183	-0.0130	33.2798	-23.1764	14.5351	-0.6060	0.3586	-0.6163	-0.3527
5.4	-9.5132	-0.0407	-0.1628	-0.0237	-0.0031	-0.0102	33.1988	-23.1335	14.5249	-0.6059	0.3586	-0.6162	-0.3528
5.41	-9.5076	-0.0293	-0.1849	-0.0281	0.0141	-0.0081	33.3984	-23.2353	14.5367	-0.6058	0.3587	-0.6163	-0.3528
5.42	-9.4930	-0.0088	-0.2034	-0.0235	0.0055	-0.0095	33.3698	-23.2700	14.6797	-0.6057	0.3587	-0.6164	-0.3529
5.43	-9.5127	-0.0186	-0.2046	-0.0221	0.0130	-0.0123	33.3485	-23.3125	14.7548	-0.6056	0.3588	-0.6164	-0.3529
5.44	-9.5214	-0.0302	-0.2406	-0.0127	0.0098	-0.0111	33.2196	-23.0067	14.5979	-0.6055	0.3588	-0.6165	-0.3529
5.45	-9.5421	-0.0336	-0.2326	-0.0143	0.0060	-0.0168	33.0788	-23.2157	14.5323	-0.6055	0.3588	-0.6165	-0.3529
5.46	-9.5514	-0.0326	-0.2287	-0.0150	0.0082	-0.0143	33.2982	-23.2051	14.6745	-0.6054	0.3588	-0.6166	-0.3529
5.47	-9.5701	-0.0239	-0.2431	-0.0112	0.0085	-0.0123	33.2201	-23.0531	14.5211	-0.6053	0.3588	-0.6166	-0.3529
5.48	-9.5672	-0.0243	-0.2515	-0.0087	-0.0012	-0.0182	33.3382	-22.9686	14.5246	-0.6053	0.3588	-0.6167	-0.3529
5.49	-9.5582	-0.0108	-0.2464	-0.0041	-0.0008	-0.0151	33.2395	-22.9536	14.6739	-0.6053	0.3588	-0.6167	-0.3529
5.5	-9.5806	0.0032	-0.2388	-0.0024	0.0044	-0.0165	33.1837	-22.7962	14.7231	-0.6052	0.3588	-0.6168	-0.3529
5.51	-9.5714	0.0179	-0.2643	-0.0052	0.0018	-0.0173	33.1646	-22.7859	14.6961	-0.6052	0.3588	-0.6168	-0.3529
5.52	-9.6109	0.0285	-0.2392	-0.0067	-0.0031	-0.0169	33.0131	-22.9079	14.6102	-0.6052	0.3588	-0.6168	-0.3529
5.53	-9.6025	0.0302	-0.2747	-0.0078	-0.0026	-0.0234	33.0221	-23.0268	14.6038	-0.6052	0.3588	-0.6168	-0.3529
5.54	-9.5352	0.0202	-0.2674	-0.0139	-0.0156	-0.0217	33.0301	-23.0899	14.6868	-0.6052	0.3588	-0.6168	-0.3529
5.55	-9.5650	0.0264	-0.1961	-0.0117	-0.0189	-0.0179	32.8447	-22.9356	14.8220	-0.6052	0.3588	-0.6168	-0.3529
5.56	-9.5896	0.0325	-0.2636	-0.0197	-0.0082	-0.0163	33.1774	-23.1397	14.6614	-0.6052	0.3588	-0.6168	-0.3530
5.57	-9.5468	0.0021	-0.2789	-0.0253	-0.0235	-0.0302	33.2991	-23.3081	14.5777	-0.6052	0.3589	-0.6167	-0.3530
5.58	-9.5340	-0.0067	-0.2196	-0.0134	-0.0266	-0.0185	33.4349	-23.3479	14.4251	-0.6052	0.3588	-0.6166	-0.3531
5.59	-9.5370	-0.0149	-0.2332	-0.0182	-0.0188	-0.0087	33.3107	-23.2738	14.4588	-0.6052	0.3588	-0.6166	-0.3532
5.6	-9.5385	-0.0146	-0.2543	-0.0259	-0.0168	-0.0097	33.1902	-23.2797	14.7187	-0.6052	0.3588	-0.6166	-0.3533
5.61	-9.5312	0.0129	-0.2195	-0.0152	-0.0254	-0.0142	33.1193	-23.2836	14.4358	-0.6052	0.3588	-0.6165	-0.3533
5.62	-9.5230	0.0124	-0.2076	-0.0217	-0.0215	-0.0174	33.2775	-23.1238	14.5169	-0.6053	0.3588	-0.6165	-0.3534
5.63	-9.5218	0.0125	-0.2157	-0.0115	-0.0237	-0.0134	33.0813	-23.2574	14.9206	-0.6053	0.3587	-0.6164	-0.3535
5.64	-9.5187	0.0123	-0.2150	-0.0092	-0.0145	-0.0323	33.3013	-23.2330	14.4592	-0.6053	0.3588	-0.6164	-0.3535
5.65	-9.4827	0.0103	-0.2192	-0.0123	-0.0169	-0.0306	33.2666	-23.2148	14.5014	-0.6054	0.3588	-0.6164	-0.3535
5.66	-9.4704	0.0155	-0.2045	-0.0092	-0.0113	-0.0290	33.3204	-23.2890	14.7505	-0.6054	0.3588	-0.6163	-0.3534
5.67	-9.4966	0.0185	-0.2236	-0.0064	-0.0025	-0.0301	33.6411	-22.5228	14.5626	-0.6054	0.3588	-0.6163	-0.3534
5.68	-9.5200	0.0100	-0.2376	-0.0078	-0.0011	-0.0310	33.4458	-22.5417	14.6007	-0.6054	0.3589	-0.6163	-0.3533
5.69	-9.5331	0.0111	-0.2286	-0.0142	-0.0030	-0.0324	33.0538	-23.4601	14.6403	-0.6054	0.3589	-0.6163	-0.3533
5.7	-9.5445	0.0132	-0.2231	-0.0222	0.0010	-0.0317	33.1234	-24.3056	14.6366	-0.6053	0.3590	-0.6163	-0.3533
5.71	-9.5389	0.0085	-0.2474	-0.0206	-0.0003	-0.0291	33.1990	-23.2307	14.3228	-0.6053	0.3591	-0.6163	-0.3533
5.72	-9.5507	0.0126	-0.2444	-0.0174	0.0016	-0.0261	33.0991	-22.9454	14.5638	-0.6053	0.3591	-0.6163	-0.3533
5.73	-9.5515	0.0128	-0.2589	-0.0276	0.0043	-0.0245	33.1166	-23.2997	14.5556	-0.6052	0.3592	-0.6163	-0.3533
5.74	-9.5564	0.0137	-0.2567	-0.0350	-0.0033	-0.0211	33.0311	-23.3183	14.3360	-0.6051	0.3593	-0.6163	-0.3534
5.75	-9.5780	0.0016	-0.2453	-0.0318	0.0035	-0.0219	32.8803	-23.0477	14.6103	-0.6051	0.3594	-0.6163	-0.3534
5.76	-9.6135	-0.0185	-0.2658	-0.0310	-0.0026	-0.0279	33.3357	-23.2857	14.4503	-0.6050	0.3595	-0.6163	-0.3535
5.77	-9.6147	-0.0290	-0.2667	-0.0334	-0.0179	-0.0338	33.2277	-23.2545	14.3948	-0.6050	0.3596	-0.6162	-0.3535
5.78	-9.6094	-0.0336	-0.2353	-0.0332	-0.0247	-0.0278	33.0319	-23.1544	14.4973	-0.6050	0.3597	-0.6161	-0.3536
5.79	-9.6229	-0.0416	-0.2476	-0.0324	-0.0228	-0.0269	33.2447	-23.2072	14.4544	-0.6050	0.3597	-0.6160	-0.3537
5.8	-9.6117	-0.0539	-0.2559	-0.0317	-0.0308	-0.0251	33.4107	-23.0806	14.5692	-0.6051	0.3598	-0.6159	-0.3538
5.81	-9.5807	-0.0573	-0.2305	-0.0296	-0.0423	-0.0230	33.1829	-22.8458	14.7022	-0.6051	0.3598	-0.6157	-0.3539
5.82	-9.5510	-0.0623	-0.2249	-0.0251	-0.0366	-0.0270	33.2698	-23.2428	14.5393	-0.6052	0.3598	-0.6156	-0.3540
5.83	-9.5479	-0.0614	-0.2279	-0.0243	-0.0363	-0.0264	33.1880	-23.2208	14.3629	-0.6053	0.3598	-0.6155	-0.3541
5.84	-9.5120	-0.0622	-0.2158	-0.0143	-0.0424	-0.0304	33.2062	-22.9515	14.3756	-0.6054	0.3598	-0.6153	-0.3541
5.85	-9.4952	-0.0696	-0.1657	-0.0106	-0.0469	-0.0280	33.2810	-23.0489	14.2486	-0.6055	0.3598	-0.6152	-0.3542
5.86	-9.5075	-0.0655	-0.1687	-0.0171	-0.0392	-0.0226	33.3523	-22.9206	14.5905	-0.6056	0.3597	-0.6151	-0.3542
5.87	-9.4937	-0.0645	-0.1884	-0.0086	-0.0378	-0.0227	33.2915	-22.9178	14.4362	-0.6057	0.3597	-0.6150	-0.3543
5.88	-9.5118	-0.0563	-0.1382	-0.0106	-0.0354	-0.0193	33.1481	-22.8001	14.5153	-0.6058	0.3597	-0.6149	-0.3544
5.89	-9.4626	-0.0537	-0.1924	-0.0135	-0.0265	-0.0127	33.0541	-22.8783	14.7049	-0.6058	0.3596	-0.6149	-0.3544
5.9	-9.4422	-0.0580	-0.1643	-0.0093	-0.0340	-0.0188	33.2684	-23.0052	14.2341	-0.6059	0.3596	-0.6148	-0.3545
5.91	-9.4896	-0.0457	-0.1383	-0.0079	-0.0218	-0.0128	33.3851	-23.1103	14.4308	-0.6059	0.3595	-0.6148	-0.3545
5.92	-9.5342	-0.0515	-0.1889	-0.0159	-0.0132	-0.0088	33.0701	-23.0769	14.4528	-0.6059	0.3595	-0.6148	-0.3546
5.93	-9.5469	-0.0734	-0.1628	-0.0137	-0.0207	-0.0093	32.9520	-22.9053	14.5590	-0.6059	0.3595	-0.6147	-0.3547
5.94	-9.5111	-0.0685	-0.1435	-0.0060	-0.0236	-0.0076	33.2248	-23.0107	14.3940	-0.6059	0.3594	-0.6147	-0.3547
5.95	-9.5324	-0.0717	-0.1468	-0.0084	-0.0140	-0.0053	33.2573	-23.0069	14.2315	-0.6059	0.3593	-0.6147	-0.3548
5.96	-9.5424	-0.0525	-0.1688	-0.0011	-0.0086	0.0004	33.1748	-23.1970	14.3637	-0.6059	0.3592	-0.6148	-0.3548
5.97	-9.5137	-0.0267	-0.1681	-0.0042	-0.0161	0.0034	33.1664	-23.3904	14.3903	-0.6059	0.3591	-0.6148	-0.3549
5.98	-9.4981	-0.0126	-0.1746	-0.0053	-0.0043	-0.0015	33.3179	-23.2436	14.3799	-0.6058	0.3591	-0.6149	-0.3549
5.99	-9.4830	-0.0083	-0.1976	0.0031	0.0028	-0.0053	33.3280	-23.1633	14.5193	-0.6058	0.3590	-0.6149	-0.3549
6	-9.4690	-0.0109	-0.2027	0.0035	0.0011	-0.0082	33.0763	-23.1955	14.3938	-0.6058	0.3589	-0.6150	-0.3549
6.01	-9.5369	-0.0208	-0.1884	0.0017	0.0108	-0.0088	33.0991	-23.1773	14.3594	-0.6057	0.3589	-0.6151	-0.3549
6.02	-9.5738	-0.0112	-0.2350	0.0069	0.0029	-0.0086	33.1165	-23.0875	14.6217	-0.6057	0.3588	-0.6152	-0.3549
6.03	-9.5630	0.0031	-0.2116	0.0147	-0.0246	-0.0093	33.1944	-23.2454	14.6619	-0.6057	0.3587	-0.6152	-0.3548
6.04	-9.5728	0.0174	-0.1707	0.0101	-0.0072	-0.0085	32.9629	-23.3086	14.3766	-0.6057	0.3586	-0.6153	-0.3548
6.05	-9.5865	0.0427	-0.2156	0.0132	0.0047	-0.0128	33.1393	-23.0601	14.3826	-0.6057	0.3585	-0.6154	-0.3548
6.06	-9.5784	0.0438	-0.2223	0.0099	-0.0112	-0.0209	33.0454	-23.1296	14.4908	-0.6058	0.3585	-0.6154	-0.3547
6.07	-9.5445	0.0469	-0.1943	0.0027	-0.0145	-0.0194	33.0307	-23.0125	14.4789	-0.6058	0.3584	-0.6154	-0.3547
6.08	-9.5592	0.0371	-0.1845	0.0040	-0.0025	-0.0257	33.2258	-23.0806	14.7787	-0.6058	0.3584	-0.6154	-0.3546
6.09	-9.5550	0.0244	-0.2402	0.0009	0.0018	-0.0198	33.0513	-23.0983	14.6222	-0.6058	0.3584	-0.6155	-0.3546
6.1	-9.4905	0.0332	-0.2236	-0.0078	-0.0187	-0.0210	33.1601	-23.1083	14.3724	-0.6058	0.3584	-0.6155	-0.3546
6.11	-9.5553	0.0166	-0.1421	-0.0066	-0.0038	-0.0182	33.1922	-23.2920	14.4295	-0.6058	0.3584	-0.6155	-0.3546
6.12	-9.5782	0.0125	-0.2445	-0.0145	-0.0100	-0.0093	33.1866	-23.1697	14.6943	-0.6058	0.3584	-0.6155	-0.3546
6.13	-9.5633	-0.0139	-0.2254	-0.0122	-0.0237	-0.0164	33.2973	-23.1857	14.3803	-0.6058	0.3583	-0.6155	-0.3547
6.14	-9.5278	-0.0168	-0.1713	-0.0127	-0.0218	-0.0134	33.2697	-23.1750	14.2340	-0.6058	0.3583	-0.6154	-0.3547
6.15	-9.5286	-0.0147	-0.1817	-0.0206	-0.0242	-0.0089	33.2705	-23.2531	14.4020	-0.6058	0.3583	-0.6154	-0.3548
6.16	-9.5577	-0.0118	-0.1899	-0.0089	-0.0153	0.0007	33.3765	-23.2087	14.4512	-0.6058	0.3582	-0.6154	-0.3549
6.17	-9.5402	0.0057	-0.1948	-0.0096	-0.0211	-0.0055	33.6519	-23.1000	14.6956	-0.6058	0.3581	-0.6154	-0.3550
6.18	-9.5357	0.0046	-0.1685	-0.0076	-0.0209	-0.0091	33.7442	-23.1047	14.6712	-0.6059	0.3580	-0.6154	-0.3550
6.19	-9.5456	-0.0027	-0.1825	-0.0038	-0.0148	-0.0093	33.4372	-23.6459	14.4056	-0.6059	0.3580	-0.6154	-0.3550
6.2	-9.5454	-0.0076	-0.1922	-0.0081	-0.0208	-0.0097	33.2019	-24.5100	14.4098	-0.6059	0.3579	-0.6154	-0.3551
6.21	-9.5219	-0.0049	-0.1727	-0.0078	-0.0242	-0.0090	33.1906	-23.3610	14.3810	-0.6059	0.3579	-0.6154	-0.3552
6.22	-9.5266	0.0012	-0.1744	0.0008	-0.0184	-0.0107	33.0177	-23.1558	14.4993	-0.6060	0.3578	-0.6154	-0.3552
6.23	-9.5410	0.0094	-0.1881	0.0039	-0.0124	-0.0132	33.2803	-23.3144	14.3119	-0.6060	0.3577	-0.6154	-0.3552
6.24	-9.5443	0.0294	-0.1919	0.0057	-0.0102	-0.0090	33.2945	-22.9671	14.2632	-0.6060	0.3576	-0.6154	-0.3552
6.25	-9.5512	0.0428	-0.1849	0.0040	-0.0112	-0.0098	33.0040	-23.0053	14.4760	-0.6060	0.3576	-0.6155	-0.3552
6.26	-9.5555	0.0559	-0.1860	-0.0008	-0.0176	-0.0076	33.1718	-23.0580	14.6863	-0.6060	0.3575	-0.6155	-0.3552
6.27	-9.5445	0.0667	-0.1893	0.0060	-0.0142	-0.0125	33.1124	-23.1069	14.3346	-0.6060	0.3574	-0.6155	-0.3552
6.28	-9.5434	0.0711	-0.1666	-0.0068	-0.0111	-0.0136	33.0504	-23.0433	14.2986	-0.6060	0.3574	-0.6155	-0.3552
6.29	-9.5483	0.0720	-0.1909	-0.0087	-0.0120	-0.0103	33.2797	-22.8976	14.6110	-0.6060	0.3573	-0.6155	-0.3552
6.3	-9.5302	0.0749	-0.1954	-0.0085	-0.0198	-0.0094	33.0990	-22.9895	14.2845	-0.6060	0.3573	-0.6155	-0.3553
6.31	-9.5420	0.0728	-0.1657	-0.0042	-0.0246	-0.0133	33.0865	-23.0238	14.4258	-0.6061	0.3572	-0.6155	-0.3553
6.32	-9.5480	0.0607	-0.1844	-0.0067	-0.0172	-0.0122	33.3407	-23.5176	14.6085	-0.6061	0.3572	-0.6155	-0.3553
6.33	-9.5503	0.0552	-0.1923	-0.0092	-0.0159	-0.0179	33.3056	-23.4498	14.4351	-0.6061	0.3571	-0.6155	-0.3554
6.34	-9.5554	0.0589	-0.1741	-0.0138	-0.0143	-0.0212	33.3299	-23.3177	14.3666	-0.6061	0.3571	-0.6154	-0.3554
6.35	-9.5690	0.0456	-0.1817	-0.0122	-0.0157	-0.0110	33.3112	-23.0587	14.3148	-0.6061	0.3571	-0.6154	-0.3554
6.36	-9.5719	0.0379	-0.1944	-0.0155	-0.0140	-0.0167	33.3400	-23.2026	14.2278	-0.6061	0.3571	-0.6154	-0.3555
6.37	-9.5748	0.0336	-0.1847	-0.0224	-0.0238	-0.0145	33.2198	-23.3913	14.3758	-0.6061	0.3571	-0.6153	-0.3556
6.38	-9.5685	0.0319	-0.1872	-0.0124	-0.0269	-0.0094	33.1200	-23.1780	14.5960	-0.6062	0.3571	-0.6153	-0.3556
6.39	-9.5475	0.0268	-0.1820	-0.0179	-0.0269	-0.0097	33.1589	-23.2111	14.4647	-0.6062	0.3570	-0.6153	-0.3557
6.4	-9.5253	0.0309	-0.1662	-0.0154	-0.0317	-0.0092	33.1233	-23.3042	14.4448	-0.6062	0.3570	-0.6152	-0.3558
6.41	-9.5137	0.0314	-0.1676	-0.0111	-0.0279	-0.0086	33.1674	-23.0154	14.4429	-0.6062	0.3569	-0.6151	-0.3559
6.42	-9.5096	0.0289	-0.1767	-0.0092	-0.0290	-0.0087	33.2420	-23.0263	14.4533	-0.6063	0.3568	-0.6151	-0.3560
6.43	-9.5161	0.0385	-0.1602	-0.0018	-0.0231	-0.0089	33.2442	-23.3328	14.4132	-0.6063	0.3568	-0.6151	-0.3560
6.44	-9.5233	0.0405	-0.1565	-0.0064	-0.0196	-0.0080	33.1371	-22.9611	14.1318	-0.6063	0.3567	-0.6151	-0.3561
6.45	-9.5186	0.0391	-0.1690	0.0062	-0.0211	-0.0091	33.0432	-22.9094	14.4206	-0.6064	0.3566	-0.6151	-0.3561
6.46	-9.5341	0.0540	-0.1447	0.0078	-0.0278	-0.0088	33.2213	-23.2242	14.4482	-0.6064	0.3565	-0.6151	-0.3561
6.47	-9.5661	0.0718	-0.1440	0.0127	-0.0189	-0.0096	33.2491	-23.2980	14.4713	-0.6065	0.3564	-0.6151	-0.3561
6.48	-9.5039	0.0761	-0.1950	0.0165	-0.0278	-0.0106	33.1159	-23.0276	14.2314	-0.6066	0.3562	-0.6151	-0.3561
6.49	-9.5071	0.0786	-0.1192	0.0172	-0.0294	-0.0087	33.1822	-23.1489	14.2776	-0.6067	0.3561	-0.6151	-0.3561
6.5	-9.5505	0.0913	-0.1413	0.0175	-0.0170	-0.0085	33.2536	-23.1413	14.2395	-0.6067	0.3559	-0.6152	-0.3560
6.51	-9.5593	0.0901	-0.1794	0.0161	-0.0239	-0.0079	33.2112	-23.3540	14.3646	-0.6068	0.3558	-0.6152	-0.3560
6.52	-9.5195	0.0990	-0.1431	0.0155	-0.0258	-0.0094	33.3564	-23.4277	14.4667	-0.6069	0.3557	-0.6152	-0.3560
6.53	-9.5036	0.0949	-0.1223	0.0173	-0.0271	-0.0093	33.1081	-23.4902	14.2999	-0.6069	0.3555	-0.6152	-0.3560
6.54	-9.5355	0.0923	-0.1342	0.0130	-0.0199	-0.0124	33.2889	-23.4755	14.4834	-0.6070	0.3554	-0.6152	-0.3560
6.55	-9.5301	0.1166	-0.1538	0.0092	-0.0226	-0.0032	33.3492	-23.3156	14.3277	-0.6070	0.3553	-0.6153	-0.3560
6.56	-9.5092	0.1617	-0.1479	-0.0034	-0.0224	-0.0014	33.1615	-23.4747	14.4144	-0.6071	0.3552	-0.6153	-0.3560
6.57	-9.4980	0.1954	-0.1329	-0.0077	-0.0102	-0.0099	33.3390	-23.1990	14.6308	-0.6071	0.3551	-0.6153	-0.3561
6.58	-9.4986	0.1687	-0.1771	-0.0141	-0.0060	-0.0088	33.2233	-23.4488	14.3276	-0.6070	0.3551	-0.6153	-0.3561
6.59	-9.4946	0.1604	-0.1907	-0.0187	-0.0117	-0.0116	33.1466	-23.4184	14.3929	-0.6070	0.3551	-0.6153	-0.3562
6.6	-9.5292	0.1515	-0.1577	-0.0256	-0.0017	-0.0091	33.2367	-23.1650	14.4529	-0.6069	0.3551	-0.6153	-0.3562
6.61	-9.5807	0.1352	-0.1862	-0.0314	0.0144	-0.0103	33.0408	-23.1727	14.4951	-0.6068	0.3552	-0.6154	-0.3563
6.62	-9.5790	0.1336	-0.2167	-0.0322	-0.0082	-0.0152	32.9817	-23.1615	14.6673	-0.6067	0.3553	-0.6153	-0.3564
6.63	-9.5565	0.1410	-0.1691	-0.0361	-0.0228	-0.0164	32.8124	-23.2971	14.4742	-0.6067	0.3553	-0.6153	-0.3565
6.64	-9.5479	0.1254	-0.1759	-0.0355	-0.0047	-0.0092	33.1807	-23.1896	14.4504	-0.6067	0.3554	-0.6152	-0.3566
6.65	-9.5647	0.1240	-0.2080	-0.0349	-0.0070	-0.0248	33.2437	-23.2082	14.4303	-0.6066	0.3555	-0.6152	-0.3567
6.66	-9.5817	0.1261	-0.1997	-0.0344	-0.0104	-0.0249	33.3248	-23.3309	14.5801	-0.6066	0.3556	-0.6151	-0.3567
6.67	-9.6153	0.1114	-0.1731	-0.0350	-0.0140	-0.0336	33.7438	-22.8162	14.6306	-0.6066	0.3557	-0.6151	-0.3568
6.68	-9.5874	0.1045	-0.2110	-0.0348	-0.0191	-0.0247	33.7326	-22.9820	14.6171	-0.6066	0.3557	-0.6150	-0.3568
6.69	-9.5663	0.0988	-0.1750	-0.0355	-0.0394	-0.0259	33.3614	-23.8429	14.3361	-0.6066	0.3558	-0.6149	-0.3569
6.7	-9.6003	0.0988	-0.1583	-0.0344	-0.0361	-0.0263	33.4855	-24.5252	14.2521	-0.6067	0.3558	-0.6147	-0.3571
6.71	-9.5794	0.1027	-0.1976	-0.0343	-0.0394	-0.0209	33.1594	-23.4764	14.3137	-0.6067	0.3558	-0.6146	-0.3572
6.72	-9.5527	0.0879	-0.1491	-0.0348	-0.0457	-0.0274	33.2550	-23.1246	14.2662	-0.6068	0.3559	-0.6144	-0.3573
6.73	-9.5442	0.0853	-0.1353	-0.0332	-0.0405	-0.0267	33.2696	-23.3046	14.3086	-0.6068	0.3559	-0.6143	-0.3574
6.74	-9.5523	0.0718	-0.1391	-0.0357	-0.0452	-0.0296	33.2596	-23.3233	14.2529	-0.6069	0.3560	-0.6141	-0.3575
6.75	-9.5533	0.0764	-0.1199	-0.0355	-0.0484	-0.0236	33.2653	-23.0831	14.1528	-0.6070	0.3560	-0.6139	-0.3577
6.76	-9.5451	0.0846	-0.1114	-0.0349	-0.0459	-0.0295	33.2609	-23.1246	14.2986	-0.6071	0.3560	-0.6137	-0.3578
6.77	-9.5238	0.0743	-0.1243	-0.0353	-0.0523	-0.0336	33.3705	-23.3773	14.2818	-0.6072	0.3561	-0.6135	-0.3579
6.78	-9.5103	0.0643	-0.1044	-0.0307	-0.0471	-0.0362	33.1775	-23.2999	14.2976	-0.6073	0.3561	-0.6134	-0.3580
6.79	-9.4953	0.0616	-0.1176	-0.0346	-0.0399	-0.0344	33.1782	-23.3518	14.2745	-0.6074	0.3562	-0.6132	-0.3581
6.8	-9.5010	0.0628	-0.1135	-0.0243	-0.0365	-0.0380	33.1615	-23.2220	14.3093	-0.6075	0.3562	-0.6131	-0.3581
6.81	-9.4966	0.0648	-0.1060	-0.0270	-0.0336	-0.0362	33.2027	-23.2436	14.2407	-0.6075	0.3563	-0.6129	-0.3582
6.82	-9.5163	0.0678	-0.0896	-0.0361	-0.0320	-0.0444	33.3012	-23.0437	14.1900	-0.6076	0.3564	-0.6128	-0.3582
6.83	-9.5422	0.0660	-0.0995	-0.0352	-0.0226	-0.0398	33.1643	-23.1514	14.1143	-0.6076	0.3565	-0.6126	-0.3583
6.84	-9.5407	0.0667	-0.1052	-0.0326	-0.0271	-0.0474	33.2753	-23.2535	13.9871	-0.6077	0.3566	-0.6125	-0.3583
6.85	-9.5390	0.0571	-0.0847	-0.0310	-0.0296	-0.0503	33.1198	-23.0925	14.1715	-0.6078	0.3568	-0.6123	-0.3583
6.86	-9.5323	0.0421	-0.1064	-0.0359	-0.0222	-0.0480	33.2816	-23.0237	14.2404	-0.6078	0.3569	-0.6122	-0.3583
6.87	-9.5441	0.0343	-0.1064	-0.0357	-0.0257	-0.0468	33.1556	-23.2620	14.4193	-0.6079	0.3570	-0.6120	-0.3583
6.88	-9.5434	0.0211	-0.0973	-0.0359	-0.0307	-0.0396	33.3190	-23.4495	14.3322	-0.6079	0.3572	-0.6119	-0.3584
6.89	-9.5221	0.0048	-0.0983	-0.0339	-0.0336	-0.0436	33.5244	-23.2118	14.1021	-0.6080	0.3573	-0.6117	-0.3585
6.9	-9.5468	-0.0086	-0.0914	-0.0348	-0.0289	-0.0426	33.2400	-23.3282	14.0970	-0.6080	0.3574	-0.6116	-0.3585
6.91	-9.5627	-0.0151	-0.1099	-0.0348	-0.0287	-0.0441	33.2841	-23.3336	14.1221	-0.6081	0.3575	-0.6114	-0.3585
6.92	-9.5679	-0.0301	-0.1009	-0.0401	-0.0309	-0.0406	33.3545	-23.1766	14.0656	-0.6081	0.3576	-0.6113	-0.3586
6.93	-9.5812	-0.0419	-0.0927	-0.0387	-0.0299	-0.0396	33.1846	-23.1353	14.2019	-0.6082	0.3577	-0.6111	-0.3587
6.94	-9.5704	-0.0569	-0.0993	-0.0335	-0.0378	-0.0367	33.5046	-23.2428	14.0920	-0.6083	0.3578	-0.6110	-0.3588
6.95	-9.5473	-0.0658	-0.0900	-0.0344	-0.0404	-0.0372	33.2534	-23.1361	14.0163	-0.6083	0.3579	-0.6108	-0.3588
6.96	-9.5357	-0.0615	-0.0668	-0.0295	-0.0438	-0.0352	33.1943	-22.9956	14.1017	-0.6084	0.3579	-0.6106	-0.3589
6.97	-9.5192	-0.0525	-0.0588	-0.0294	-0.0432	-0.0356	33.3450	-23.2579	13.8823	-0.6085	0.3580	-0.6105	-0.3590
6.98	-9.5141	-0.0479	-0.0456	-0.0114	-0.0400	-0.0349	33.4774	-23.2125	13.9464	-0.6086	0.3580	-0.6103	-0.3590
6.99	-9.5148	-0.0487	-0.0380	-0.0185	-0.0411	-0.0352	33.5026	-23.0448	13.8848	-0.6087	0.3580	-0.6102	-0.3590
7	-9.5063	-0.0505	-0.0285	-0.0139	-0.0418	-0.0357	33.2250	-23.0060	14.2001	-0.6089	0.3580	-0.6101	-0.3591
7.01	-9.5004	-0.0431	-0.0178	-0.0133	-0.0374	-0.0380	33.3662	-23.0269	14.0952	-0.6090	0.3580	-0.6099	-0.3591
7.02	-9.5065	-0.0366	-0.0123	-0.0130	-0.0348	-0.0361	33.2495	-23.3125	13.9057	-0.6091	0.3580	-0.6098	-0.3591
7.03	-9.5034	-0.0345	-0.0169	-0.0129	-0.0304	-0.0382	33.4222	-23.0027	14.0245	-0.6092	0.3581	-0.6097	-0.3591
7.04	-9.4984	-0.0355	-0.0001	-0.0163	-0.0280	-0.0334	33.4686	-22.9730	13.7731	-0.6092	0.3581	-0.6096	-0.3591
7.05	-9.4748	-0.0276	-0.0040	-0.0085	-0.0235	-0.0350	33.4071	-22.9726	13.9455	-0.6093	0.3581	-0.6096	-0.3591
7.06	-9.4699	-0.0209	0.0046	-0.0242	-0.0209	-0.0343	33.3914	-22.9935	14.0119	-0.6093	0.3582	-0.6095	-0.3591
7.07	-9.4979	-0.0098	0.0085	-0.0228	-0.0190	-0.0331	33.6298	-23.1307	13.8041	-0.6094	0.3583	-0.6094	-0.3591
7.08	-9.4975	-0.0099	-0.0044	-0.0293	-0.0147	-0.0360	33.6301	-23.2398	13.9315	-0.6094	0.3584	-0.6093	-0.3591
7.09	-9.4974	-0.0279	0.0060	-0.0316	-0.0165	-0.0334	33.5904	-23.2404	13.7981	-0.6094	0.3585	-0.6092	-0.3592
7.1	-9.5052	-0.0274	0.0275	-0.0172	-0.0119	-0.0296	33.3916	-23.2477	13.8756	-0.6094	0.3585	-0.6092	-0.3592
7.11	-9.5585	-0.0192	0.0148	-0.0325	0.0025	-0.0313	33.4704	-23.1927	13.9382	-0.6093	0.3586	-0.6092	-0.3592
7.12	-9.5145	-0.0163	-0.0433	-0.0309	-0.0071	-0.0334	33.4167	-23.0334	13.9067	-0.6093	0.3587	-0.6091	-0.3592
7.13	-9.4805	-0.0274	0.0191	-0.0311	-0.0140	-0.0311	33.5920	-22.9854	13.7892	-0.6093	0.3588	-0.6090	-0.3592
7.14	-9.5190	-0.0309	0.0138	-0.0310	0.0076	-0.0310	33.4442	-23.2974	13.7050	-0.6092	0.3590	-0.6090	-0.3593
7.15	-9.5480	-0.0249	-0.0405	-0.0262	0.0094	-0.0334	33.4460	-23.1060	14.1358	-0.6092	0.3591	-0.6090	-0.3592
7.16	-9.5240	-0.0316	-0.0131	-0.0294	-0.0045	-0.0368	33.5984	-23.3155	14.0691	-0.6091	0.3592	-0.6090	-0.3592
7.17	-9.5185	-0.0278	0.0113	-0.0170	-0.0077	-0.0378	34.1576	-22.9496	13.8890	-0.6092	0.3593	-0.6089	-0.3592
7.18	-9.5573	-0.0338	-0.0047	-0.0248	0.0149	-0.0372	34.0900	-22.8815	14.0860	-0.6091	0.3594	-0.6090	-0.3591
7.19	-9.5494	-0.0182	-0.0216	-0.0239	0.0079	-0.0331	33.3566	-23.3069	13.9587	-0.6090	0.3595	-0.6090	-0.3591
7.2	-9.5085	-0.0101	-0.0013	-0.0220	0.0011	-0.0352	33.3068	-24.4661	13.9317	-0.6090	0.3596	-0.6090	-0.3591
7.21	-9.4905	-0.0137	-0.0060	-0.0270	0.0077	-0.0391	33.2366	-23.1410	14.0430	-0.6090	0.3598	-0.6089	-0.3590
7.22	-9.4896	-0.0277	-0.0437	-0.0259	0.0109	-0.0430	33.6017	-22.7835	14.0563	-0.6089	0.3599	-0.6089	-0.3590
7.23	-9.4753	-0.0468	-0.0578	-0.0295	0.0211	-0.0441	33.4080	-23.0770	14.0772	-0.6088	0.3601	-0.6089	-0.3589
7.24	-9.5006	-0.0755	-0.0294	-0.0305	0.0211	-0.0473	33.5345	-22.9323	14.2843	-0.6087	0.3603	-0.6089	-0.3588
7.25	-9.5410	-0.1012	-0.0692	-0.0294	0.0293	-0.0407	33.6952	-23.3759	13.8144	-0.6086	0.3605	-0.6090	-0.3588
7.26	-9.5613	-0.0910	-0.0812	-0.0263	0.0204	-0.0441	33.5132	-23.2178	14.1075	-0.6086	0.3607	-0.6090	-0.3587
7.27	-9.5610	-0.0935	-0.0593	-0.0275	0.0191	-0.0435	33.5787	-23.3363	14.1263	-0.6085	0.3609	-0.6090	-0.3586
7.28	-9.5640	-0.1033	-0.0757	-0.0113	0.0164	-0.0418	33.6492	-23.2027	13.9335	-0.6084	0.3610	-0.6091	-0.3585
7.29	-9.5620	-0.0782	-0.0965	-0.0124	0.0114	-0.0418	33.6403	-23.2013	13.9854	-0.6084	0.3611	-0.6091	-0.3584
7.3	-9.5355	-0.0748	-0.0789	-0.0121	0.0046	-0.0390	33.5425	-23.1802	13.9783	-0.6084	0.3612	-0.6091	-0.3583
7.31	-9.5484	-0.0741	-0.0684	-0.0157	0.0164	-0.0483	33.5485	-22.9767	14.1972	-0.6083	0.3614	-0.6091	-0.3582
7.32	-9.5285	-0.0776	-0.1112	-0.0119	0.0223	-0.0430	33.5487	-23.0327	13.9367	-0.6083	0.3615	-0.6091	-0.3581
7.33	-9.4958	-0.0921	-0.0881	-0.0141	0.0114	-0.0380	33.5548	-23.0212	14.0590	-0.6082	0.3616	-0.6092	-0.3580
7.34	-9.5402	-0.0895	-0.0574	-0.0215	0.0160	-0.0401	33.4408	-22.9012	14.1799	-0.6082	0.3618	-0.6092	-0.3580
7.35	-9.5651	-0.0900	-0.1047	-0.0285	0.0211	-0.0414	33.4748	-22.9788	14.1088	-0.6081	0.3620	-0.6092	-0.3579
7.36	-9.5638	-0.1176	-0.0934	-0.0360	0.0118	-0.0480	33.4336	-23.0320	14.0235	-0.6080	0.3622	-0.6092	-0.3579
7.37	-9.5657	-0.1241	-0.0811	-0.0340	0.0167	-0.0481	33.5732	-23.0184	14.1893	-0.6079	0.3624	-0.6092	-0.3578
7.38	-9.5635	-0.1558	-0.1071	-0.0352	0.0089	-0.0397	33.5163	-22.8844	13.9862	-0.6079	0.3626	-0.6091	-0.3578
7.39	-9.5467	-0.1614	-0.0825	-0.0362	0.0134	-0.0336	33.4433	-22.8332	13.8025	-0.6078	0.3627	-0.6091	-0.3578
7.4	-9.5361	-0.1465	-0.0875	-0.0342	0.0149	-0.0352	33.4601	-22.8434	14.0610	-0.6077	0.3629	-0.6091	-0.3578
7.41	-9.5258	-0.1574	-0.1060	-0.0365	0.0070	-0.0343	33.5635	-22.8450	14.0649	-0.6076	0.3630	-0.6091	-0.3578
7.42	-9.5158	-0.1592	-0.1005	-0.0297	0.0112	-0.0352	33.6728	-23.1091	14.0550	-0.6075	0.3632	-0.6091	-0.3577
7.43	-9.5268	-0.1621	-0.0853	-0.0248	0.0045	-0.0341	33.5970	-23.0864	14.0783	-0.6075	0.3633	-0.6091	-0.3577
7.44	-9.5256	-0.1615	-0.1108	-0.0186	0.0173	-0.0323	33.7601	-23.2050	14.0505	-0.6074	0.3634	-0.6091	-0.3577
7.45	-9.5239	-0.1487	-0.1039	-0.0106	0.0223	-0.0342	33.6802	-23.0700	13.9822	-0.6073	0.3635	-0.6092	-0.3576
7.46	-9.5229	-0.1477	-0.0963	-0.0101	0.0199	-0.0336	33.6510	-23.1504	14.0935	-0.6073	0.3636	-0.6093	-0.3575
7.47	-9.5275	-0.1354	-0.1059	-0.0092	0.0147	-0.0352	33.5387	-22.9433	14.0484	-0.6072	0.3637	-0.6093	-0.3574
7.48	-9.5146	-0.1372	-0.1080	-0.0104	0.0190	-0.0333	33.6670	-22.9119	14.0654	-0.6071	0.3638	-0.6094	-0.3573
7.49	-9.5059	-0.1460	-0.0984	-0.0117	0.0209	-0.0381	33.8460	-23.0824	14.0622	-0.6071	0.3639	-0.6094	-0.3572
7.5	-9.5050	-0.1407	-0.1095	-0.0169	0.0259	-0.0354	33.6160	-23.0920	13.8424	-0.6070	0.3641	-0.6095	-0.3571
7.51	-9.5031	-0.1402	-0.1225	-0.0214	0.0342	-0.0352	33.6522	-22.8021	14.0658	-0.6069	0.3642	-0.6096	-0.3570
7.52	-9.5162	-0.1339	-0.1180	-0.0299	0.0322	-0.0299	33.6306	-22.8839	14.1565	-0.6067	0.3644	-0.6097	-0.3569
7.53	-9.5323	-0.1479	-0.1388	-0.0313	0.0311	-0.0182	33.6492	-22.9027	14.1893	-0.6066	0.3645	-0.6098	-0.3569
7.54	-9.5303	-0.1369	-0.1420	-0.0364	0.0347	-0.0220	33.5966	-22.7971	14.2791	-0.6064	0.3647	-0.6098	-0.3569
7.55	-9.5420	-0.1445	-0.1386	-0.0355	0.0351	-0.0130	33.3200	-22.9666	14.1235	-0.6062	0.3649	-0.6099	-0.3569
7.56	-9.5673	-0.1516	-0.1651	-0.0361	0.0439	-0.0084	33.4359	-22.7696	14.2958	-0.6059	0.3650	-0.6101	-0.3570
7.57	-9.5754	-0.1433	-0.1815	-0.0368	0.0285	-0.0093	33.6172	-22.7714	14.1571	-0.6057	0.3651	-0.6102	-0.3570
7.58	-9.5889	-0.1507	-0.1668	-0.0357	0.0231	-0.0085	33.4167	-23.0394	14.1605	-0.6056	0.3652	-0.6102	-0.3571
7.59	-9.5763	-0.1450	-0.1823	-0.0370	0.0282	-0.0100	33.6066	-22.9054	14.0326	-0.6054	0.3654	-0.6103	-0.3571
7.6	-9.5807	-0.1455	-0.1721	-0.0338	0.0185	-0.0087	33.6144	-22.8019	14.1010	-0.6052	0.3655	-0.6104	-0.3572
7.61	-9.5932	-0.1511	-0.1885	-0.0395	0.0235	-0.0094	33.4786	-22.9254	14.1832	-0.6051	0.3656	-0.6104	-0.3572
7.62	-9.5802	-0.1416	-0.1998	-0.0361	0.0086	-0.0084	33.3388	-22.9257	14.1139	-0.6049	0.3657	-0.6105	-0.3573
7.63	-9.5602	-0.1367	-0.1757	-0.0302	0.0025	-0.0080	33.5418	-23.0611	14.3326	-0.6048	0.3657	-0.6105	-0.3574
7.64	-9.5700	-0.1282	-0.1812	-0.0276	0.0142	-0.0102	33.6714	-23.1123	14.0865	-0.6047	0.3658	-0.6106	-0.3574
7.65	-9.5824	-0.1264	-0.1960	-0.0206	0.0110	-0.0087	33.6039	-23.1665	14.1375	-0.6046	0.3658	-0.6106	-0.3574
7.66	-9.5729	-0.1238	-0.1885	-0.0202	0.0065	-0.0107	33.9376	-23.1336	14.2596	-0.6045	0.3658	-0.6107	-0.3575
7.67	-9.5770	-0.1239	-0.1802	-0.0138	0.0032	-0.0109	34.3544	-23.0183	14.1451	-0.6045	0.3658	-0.6107	-0.3575
7.68	-9.5710	-0.1249	-0.1868	-0.0217	0.0055	-0.0146	34.1589	-23.0111	14.3077	-0.6044	0.3659	-0.6108	-0.3575
7.69	-9.5648	-0.1283	-0.1931	-0.0160	0.0021	-0.0145	33.5915	-23.4032	14.2101	-0.6043	0.3659	-0.6108	-0.3575
7.7	-9.5515	-0.1277	-0.1956	-0.0113	-0.0047	-0.0140	33.5287	-24.3499	14.1560	-0.6043	0.3659	-0.6108	-0.3575
7.71	-9.5557	-0.1267	-0.1871	-0.0090	-0.0043	-0.0092	33.1654	-23.4462	14.2603	-0.6043	0.3659	-0.6109	-0.3575
7.72	-9.5428	-0.1333	-0.1964	-0.0119	-0.0070	-0.0085	33.4296	-22.8891	14.2957	-0.6042	0.3659	-0.6109	-0.3576
7.73	-9.5216	-0.1376	-0.1867	-0.0100	-0.0074	-0.0112	33.5454	-22.9285	14.2698	-0.6042	0.3659	-0.6109	-0.3576
7.74	-9.5083	-0.1470	-0.1788	-0.0102	-0.0083	-0.0145	33.4974	-22.7412	14.2894	-0.6042	0.3658	-0.6109	-0.3576
7.75	-9.5162	-0.1478	-0.1867	-0.0080	0.0037	-0.0144	33.5953	-22.8759	14.2375	-0.6041	0.3659	-0.6110	-0.3576
7.76	-9.5034	-0.1551	-0.2123	-0.0059	0.0056	-0.0098	33.6280	-22.9839	14.0659	-0.6041	0.3659	-0.6110	-0.3576
7.77	-9.5209	-0.1581	-0.1722	-0.0044	0.0057	-0.0088	33.3914	-22.9713	14.1358	-0.6040	0.3658	-0.6111	-0.3576
7.78	-9.5455	-0.1551	-0.1991	0.0011	0.0101	-0.0084	33.2959	-23.0180	14.3515	-0.6040	0.3658	-0.6112	-0.3575
7.79	-9.4953	-0.1486	-0.2349	0.0025	0.0070	-0.0092	33.4957	-23.0989	14.1601	-0.6039	0.3658	-0.6113	-0.3575
7.8	-9.5257	-0.1411	-0.1704	0.0138	0.0068	-0.0073	33.6357	-23.0341	14.4033	-0.6039	0.3657	-0.6114	-0.3574
7.81	-9.5733	-0.1332	-0.2207	0.0124	0.0126	-0.0070	33.3476	-23.1137	14.2294	-0.6038	0.3656	-0.6115	-0.3574
7.82	-9.5771	-0.1359	-0.2323	0.0143	0.0010	-0.0089	33.3600	-23.1649	14.1734	-0.6038	0.3656	-0.6116	-0.3573
7.83	-9.5454	-0.1208	-0.1999	0.0157	-0.0052	-0.0082	33.6400	-23.1599	14.2094	-0.6038	0.3654	-0.6117	-0.3572
7.84	-9.5511	-0.1107	-0.1915	0.0204	0.0016	-0.0099	33.5775	-23.1352	14.2779	-0.6038	0.3653	-0.6118	-0.3572
7.85	-9.5733	-0.1024	-0.2232	0.0235	0.0111	-0.0020	33.3831	-23.0578	14.1632	-0.6038	0.3652	-0.6120	-0.3571
7.86	-9.5554	-0.0742	-0.2298	0.0155	0.0029	0.0013	33.4706	-23.0260	14.2415	-0.6038	0.3651	-0.6121	-0.3570
7.87	-9.5113	-0.0600	-0.2164	0.0147	0.0032	-0.0017	33.3189	-22.8519	14.4167	-0.6037	0.3650	-0.6122	-0.3570
7.88	-9.5007	-0.0508	-0.2226	0.0154	0.0071	0.0024	33.4840	-23.0491	14.4248	-0.6037	0.3649	-0.6124	-0.3569
7.89	-9.5129	-0.0521	-0.2513	0.0079	0.0156	-0.0033	33.3592	-23.0381	14.2198	-0.6036	0.3648	-0.6125	-0.3569
7.9	-9.5150	-0.0617	-0.2617	0.0128	0.0086	-0.0042	33.3421	-22.8748	14.3857	-0.6036	0.3648	-0.6126	-0.3568
7.91	-9.5386	-0.0748	-0.2324	0.0113	0.0111	-0.0043	33.3403	-22.9026	14.2777	-0.6035	0.3647	-0.6127	-0.3568
7.92	-9.5731	-0.0977	-0.2519	0.0058	0.0213	-0.0096	33.3680	-22.8762	14.3883	-0.6034	0.3647	-0.6129	-0.3567
7.93	-9.5781	-0.1048	-0.2711	0.0007	0.0064	-0.0077	33.4976	-22.9392	14.4107	-0.6034	0.3647	-0.6130	-0.3567
7.94	-9.5521	-0.1103	-0.2351	0.0065	-0.0014	-0.0115	33.2148	-23.0971	14.5981	-0.6034	0.3646	-0.6130	-0.3566
7.95	-9.5471	-0.1316	-0.2280	0.0107	0.0007	0.0001	33.2962	-22.9224	14.4040	-0.6033	0.3645	-0.6131	-0.3566
7.96	-9.5344	-0.1405	-0.2501	0.0128	0.0043	0.0018	33.3482	-23.0718	14.1998	-0.6033	0.3644	-0.6133	-0.3566
7.97	-9.5280	-0.1543	-0.2237	0.0055	0.0009	0.0053	33.3658	-22.9845	14.4893	-0.6033	0.3643	-0.6134	-0.3566
7.98	-9.5375	-0.1801	-0.2240	0.0159	0.0099	0.0086	33.2129	-22.9897	14.3418	-0.6032	0.3642	-0.6135	-0.3566
7.99	-9.5010	-0.1881	-0.2562	0.0143	0.0000	0.0114	33.3295	-22.9439	14.2875	-0.6031	0.3640	-0.6136	-0.3566
8	-9.4805	-0.1870	-0.2164	0.0162	-0.0035	0.0206	33.2696	-23.1105	14.4316	-0.6031	0.3639	-0.6138	-0.3566
8.01	-9.4734	-0.1653	-0.2251	0.0210	0.0160	0.0308	33.3355	-23.1657	14.2500	-0.6030	0.3637	-0.6140	-0.3566
8.02	-9.4804	-0.1220	-0.2307	0.0255	0.0148	0.0382	33.4343	-23.3755	14.4352	-0.6029	0.3634	-0.6142	-0.3566
8.03	-9.4658	-0.0785	-0.2310	0.0307	0.0186	0.0440	33.3201	-23.4101	14.4799	-0.6028	0.3632	-0.6145	-0.3566
8.04	-9.4888	-0.0248	-0.2395	0.0356	0.0222	0.0533	33.2901	-23.2288	14.4843	-0.6026	0.3629	-0.6148	-0.3566
8.05	-9.5208	0.0040	-0.2475	0.0352	0.0268	0.0547	33.2257	-23.1643	14.3595	-0.6025	0.3626	-0.6151	-0.3567
8.06	-9.5378	0.0400	-0.2504	0.0362	0.0236	0.0576	33.2842	-23.2586	14.3994	-0.6023	0.3623	-0.6155	-0.3567
8.07	-9.5634	0.0942	-0.2508	0.0368	0.0155	0.0567	33.3939	-23.2364	14.3354	-0.6022	0.3619	-0.6158	-0.3567
8.08	-9.5598	0.1036	-0.2567	0.0318	0.0263	0.0522	33.1553	-23.2582	14.5725	-0.6020	0.3617	-0.6161	-0.3568
8.09	-9.5669	0.1097	-0.2623	0.0194	0.0197	0.0424	33.1727	-23.0261	14.5420	-0.6018	0.3614	-0.6163	-0.3568
8.1	-9.5584	0.1109	-0.2798	0.0208	0.0218	0.0284	33.1406	-23.1046	14.6083	-0.6017	0.3612	-0.6166	-0.3568
8.11	-9.5530	0.0993	-0.2796	0.0154	0.0130	0.0195	32.9836	-23.2304	14.6657	-0.6016	0.3611	-0.6167	-0.3568
8.12	-9.5559	0.0914	-0.2853	0.0165	0.0210	0.0145	32.9844	-23.3390	14.6629	-0.6015	0.3610	-0.6169	-0.3568
8.13	-9.5621	0.0906	-0.3041	0.0195	0.0129	0.0164	32.8700	-23.2180	14.6226	-0.6014	0.3608	-0.6171	-0.3567
8.14	-9.5577	0.0939	-0.2909	0.0235	0.0075	0.0076	33.1265	-23.2551	14.5499	-0.6014	0.3607	-0.6173	-0.3567
8.15	-9.5772	0.0921	-0.2862	0.0241	0.0160	0.0056	33.1849	-23.2779	14.5436	-0.6013	0.3606	-0.6175	-0.3566
8.16	-9.5938	0.0929	-0.3126	0.0214	0.0160	-0.0054	33.2245	-23.5065	14.8049	-0.6013	0.3605	-0.6176	-0.3565
8.17	-9.5839	0.0915	-0.3009	0.0252	0.0027	-0.0058	33.7634	-23.1040	14.9726	-0.6013	0.3603	-0.6178	-0.3564
8.18	-9.5707	0.0966	-0.2778	0.0254	-0.0019	-0.0074	33.8331	-23.1361	14.8640	-0.6013	0.3602	-0.6179	-0.3563
8.19	-9.5985	0.1040	-0.2810	0.0275	-0.0025	-0.0089	33.1776	-24.0193	14.5395	-0.6013	0.3601	-0.6180	-0.3562
8.2	-9.6051	0.1066	-0.3087	0.0332	-0.0061	-0.0081	33.3438	-24.9575	14.5727	-0.6014	0.3599	-0.6181	-0.3561
8.21	-9.6026	0.1230	-0.2895	0.0265	-0.0200	-0.0082	33.1899	-23.9224	14.5334	-0.6014	0.3598	-0.6181	-0.3560
8.22	-9.5976	0.1355	-0.2653	0.0212	-0.0150	-0.0044	33.1565	-23.2297	14.7090	-0.6015	0.3596	-0.6182	-0.3560
8.23	-9.5948	0.1420	-0.2821	0.0207	-0.0140	-0.0092	33.1436	-23.2769	14.9467	-0.6015	0.3595	-0.6183	-0.3559
8.24	-9.5721	0.1555	-0.2873	0.0179	-0.0228	-0.0042	33.2149	-23.3447	14.7989	-0.6016	0.3593	-0.6183	-0.3559
8.25	-9.5650	0.1644	-0.2544	0.0181	-0.0180	-0.0073	33.1863	-23.2628	14.6074	-0.6017	0.3592	-0.6183	-0.3559
8.26	-9.5620	0.1782	-0.2590	0.0115	-0.0243	-0.0091	32.8237	-23.2320	14.4336	-0.6017	0.3591	-0.6184	-0.3558
8.27	-9.5545	0.1878	-0.2548	-0.0027	-0.0280	-0.0093	33.0641	-23.3411	14.6856	-0.6018	0.3590	-0.6183	-0.3559
8.28	-9.5410	0.1949	-0.2314	-0.0018	-0.0332	-0.0094	33.0049	-23.3424	14.6518	-0.6018	0.3589	-0.6183	-0.3559
8.29	-9.5308	0.1972	-0.2296	-0.0140	-0.0302	-0.0070	32.7469	-23.2474	14.8677	-0.6019	0.3589	-0.6182	-0.3560
8.3	-9.5200	0.1944	-0.2280	-0.0189	-0.0317	-0.0102	33.0276	-23.2443	14.6165	-0.6019	0.3588	-0.6182	-0.3561
8.31	-9.5096	0.1938	-0.2086	-0.0306	-0.0243	-0.0076	32.9348	-23.3345	14.7824	-0.6019	0.3588	-0.6181	-0.3562
8.32	-9.5027	0.1884	-0.2048	-0.0341	-0.0294	-0.0093	32.6804	-23.1813	14.4771	-0.6019	0.3588	-0.6180	-0.3564
8.33	-9.4939	0.1868	-0.1954	-0.0323	-0.0390	-0.0103	32.8085	-23.3697	14.8448	-0.6019	0.3588	-0.6179	-0.3565
8.34	-9.4776	0.1778	-0.1892	-0.0360	-0.0314	-0.0101	32.8963	-23.1801	14.8121	-0.6019	0.3589	-0.6178	-0.3567
8.35	-9.4787	0.1639	-0.1902	-0.0318	-0.0219	-0.0146	33.0602	-23.3400	14.5680	-0.6019	0.3589	-0.6177	-0.3568
8.36	-9.4800	0.1701	-0.1880	-0.0348	-0.0184	-0.0143	32.7786	-23.4585	14.7594	-0.6019	0.3589	-0.6177	-0.3569
8.37	-9.4846	0.1643	-0.1875	-0.0342	-0.0115	-0.0278	32.9940	-23.3055	14.7252	-0.6019	0.3590	-0.6176	-0.3569
8.38	-9.4830	0.1632	-0.1943	-0.0351	-0.0080	-0.0264	33.4321	-23.4484	14.6399	-0.6018	0.3591	-0.6176	-0.3570
8.39	-9.4705	0.1678	-0.1965	-0.0320	-0.0077	-0.0236	33.2654	-23.3868	14.6513	-0.6018	0.3592	-0.6175	-0.3570
8.4	-9.4786	0.1598	-0.1898	-0.0348	0.0037	-0.0362	33.1594	-23.4913	14.6482	-0.6018	0.3594	-0.6175	-0.3570
8.41	-9.4977	0.1583	-0.2021	-0.0351	0.0120	-0.0332	33.1663	-23.6209	14.7569	-0.6017	0.3595	-0.6175	-0.3570
8.42	-9.4937	0.1555	-0.2161	-0.0346	0.0145	-0.0346	33.1228	-23.4104	14.4495	-0.6016	0.3597	-0.6175	-0.3570
8.43	-9.4858	0.1462	-0.2015	-0.0351	0.0089	-0.0368	33.0483	-23.4883	14.5239	-0.6015	0.3599	-0.6175	-0.3570
8.44	-9.4989	0.1470	-0.1914	-0.0349	0.0151	-0.0339	33.0667	-23.5085	14.6645	-0.6014	0.3600	-0.6174	-0.3570
8.45	-9.5174	0.1368	-0.2128	-0.0349	0.0224	-0.0347	33.3140	-23.4014	14.7596	-0.6013	0.3602	-0.6175	-0.3569
8.46	-9.5239	0.1164	-0.2112	-0.0360	0.0148	-0.0374	33.1258	-23.3902	14.5487	-0.6012	0.3604	-0.6175	-0.3569
8.47	-9.5480	0.1024	-0.1909	-0.0364	0.0205	-0.0399	32.7555	-23.2337	14.5799	-0.6011	0.3606	-0.6175	-0.3569
8.48	-9.5102	0.0950	-0.2422	-0.0347	0.0242	-0.0381	32.8447	-23.2421	14.4094	-0.6010	0.3608	-0.6175	-0.3568
8.49	-9.5071	0.0825	-0.2068	-0.0331	0.0223	-0.0395	32.8688	-23.1298	14.5396	-0.6009	0.3610	-0.6175	-0.3568
8.5	-9.5449	0.0784	-0.2140	-0.0338	0.0278	-0.0414	32.7712	-23.3704	14.7108	-0.6008	0.3612	-0.6175	-0.3567
8.51	-9.5712	0.0558	-0.2527	-0.0364	0.0217	-0.0370	32.8834	-23.2194	14.8739	-0.6007	0.3614	-0.6176	-0.3567
8.52	-9.5661	0.0427	-0.2283	-0.0293	0.0193	-0.0393	33.0372	-23.0607	14.6274	-0.6006	0.3616	-0.6176	-0.3567
8.53	-9.5715	0.0509	-0.2345	-0.0334	0.0235	-0.0365	33.0408	-23.1776	14.6363	-0.6004	0.3618	-0.6176	-0.3566
8.54	-9.5762	0.0417	-0.2624	-0.0247	0.0188	-0.0333	32.9403	-23.1407	15.0006	-0.6003	0.3619	-0.6176	-0.3566
8.55	-9.5700	0.0422	-0.2558	-0.0194	0.0094	-0.0327	33.1872	-23.2243	14.7813	-0.6003	0.3620	-0.6176	-0.3565
8.56	-9.5442	0.0701	-0.2697	-0.0279	0.0089	-0.0203	33.0333	-23.2996	14.7288	-0.6002	0.3621	-0.6177	-0.3565
8.57	-9.5163	0.0841	-0.2855	-0.0219	0.0009	-0.0182	33.1191	-23.4621	14.5590	-0.6001	0.3622	-0.6177	-0.3565
8.58	-9.5051	0.0938	-0.2897	-0.0315	0.0067	-0.0158	33.2164	-23.3843	14.5519	-0.6001	0.3623	-0.6177	-0.3566
8.59	-9.5112	0.0995	-0.3004	-0.0315	0.0152	-0.0189	32.9671	-23.5407	14.6673	-0.5999	0.3624	-0.6177	-0.3566
8.6	-9.5315	0.0811	-0.3059	-0.0342	0.0165	-0.0267	33.1106	-23.3199	14.6517	-0.5998	0.3626	-0.6177	-0.3566
8.61	-9.5508	0.0735	-0.3118	-0.0342	0.0129	-0.0342	33.0499	-23.3820	14.8652	-0.5997	0.3627	-0.6177	-0.3566
8.62	-9.5712	0.0679	-0.3090	-0.0299	0.0162	-0.0285	32.8661	-23.5271	14.7891	-0.5996	0.3629	-0.6177	-0.3566
8.63	-9.5696	0.0733	-0.3207	-0.0298	0.0113	-0.0223	32.9843	-23.4807	14.9176	-0.5995	0.3630	-0.6178	-0.3566
8.64	-9.5585	0.0760	-0.3139	-0.0315	0.0012	-0.0300	33.0754	-23.3619	14.6218	-0.5995	0.3631	-0.6177	-0.3566
8.65	-9.5437	0.0793	-0.3066	-0.0278	0.0054	-0.0352	33.1949	-23.5984	14.5955	-0.5994	0.3632	-0.6177	-0.3566
8.66	-9.5370	0.0742	-0.3198	-0.0346	0.0079	-0.0330	33.2335	-23.4095	14.9764	-0.5994	0.3634	-0.6177	-0.3566
8.67	-9.5628	0.0601	-0.3104	-0.0340	0.0105	-0.0335	33.4131	-22.9482	14.9375	-0.5993	0.3635	-0.6177	-0.3566
8.68	-9.5536	0.0545	-0.3392	-0.0342	0.0091	-0.0347	33.3681	-23.0423	14.9891	-0.5992	0.3637	-0.6177	-0.3566
8.69	-9.5504	0.0267	-0.3160	-0.0338	0.0069	-0.0342	32.9503	-23.6609	14.7159	-0.5991	0.3638	-0.6177	-0.3565
8.7	-9.5584	0.0300	-0.3208	-0.0346	0.0144	-0.0346	32.9373	-24.6141	14.7237	-0.5991	0.3640	-0.6177	-0.3565
8.71	-9.5863	0.0302	-0.3339	-0.0326	0.0113	-0.0340	32.9692	-23.3069	14.5934	-0.5990	0.3642	-0.6177	-0.3565
8.72	-9.5387	-0.0005	-0.3427	-0.0316	-0.0035	-0.0350	33.1011	-23.3461	14.7398	-0.5989	0.3643	-0.6176	-0.3565
8.73	-9.5364	0.0141	-0.3134	-0.0332	-0.0083	-0.0346	33.0732	-23.4081	14.8334	-0.5989	0.3644	-0.6175	-0.3566
8.74	-9.5260	-0.0201	-0.3419	-0.0299	-0.0050	-0.0353	33.1426	-23.1940	14.6961	-0.5989	0.3646	-0.6175	-0.3566
8.75	-9.5404	-0.0187	-0.3192	-0.0145	-0.0163	-0.0312	33.1560	-23.3502	14.5593	-0.5989	0.3646	-0.6174	-0.3566
8.76	-9.5345	-0.0003	-0.3333	-0.0253	-0.0095	-0.0324	32.9728	-23.4439	14.5513	-0.5989	0.3647	-0.6174	-0.3566
8.77	-9.5685	-0.0007	-0.3028	-0.0284	-0.0169	-0.0353	33.0192	-23.4425	14.6559	-0.5989	0.3648	-0.6173	-0.3566
8.78	-9.5186	0.0017	-0.3414	-0.0266	-0.0153	-0.0351	33.1547	-23.3036	14.6599	-0.5989	0.3649	-0.6172	-0.3566
8.79	-9.5366	0.0169	-0.3183	-0.0198	-0.0227	-0.0349	33.1968	-23.4592	14.5644	-0.5990	0.3650	-0.6171	-0.3566
8.8	-9.5301	-0.0039	-0.3218	-0.0190	-0.0212	-0.0354	33.1708	-23.3494	14.5554	-0.5990	0.3650	-0.6171	-0.3566
8.81	-9.5362	-0.0185	-0.3126	-0.0273	-0.0086	-0.0332	33.0709	-23.2311	14.5261	-0.5990	0.3651	-0.6170	-0.3566
8.82	-9.5350	-0.0086	-0.3258	-0.0298	-0.0081	-0.0361	33.1154	-23.3385	14.4200	-0.5990	0.3652	-0.6169	-0.3566
8.83	-9.5463	-0.0184	-0.3290	-0.0301	-0.0127	-0.0328	33.0030	-23.3708	14.5500	-0.5990	0.3653	-0.6169	-0.3566
8.84	-9.5409	-0.0194	-0.3154	-0.0213	-0.0198	-0.0289	32.9971	-23.3461	14.6743	-0.5990	0.3654	-0.6168	-0.3567
8.85	-9.5473	-0.0263	-0.3119	-0.0232	-0.0084	-0.0315	33.1690	-23.2165	14.5929	-0.5990	0.3655	-0.6167	-0.3567
8.86	-9.5378	-0.0438	-0.3223	-0.0288	-0.0164	-0.0298	33.1811	-23.1455	14.5199	-0.5990	0.3656	-0.6167	-0.3567
8.87	-9.5444	-0.0498	-0.3200	-0.0334	-0.0112	-0.0275	33.1993	-23.2913	14.6499	-0.5990	0.3657	-0.6166	-0.3567
8.88	-9.5467	-0.0551	-0.3185	-0.0293	-0.0071	-0.0223	33.0223	-23.4738	14.7839	-0.5990	0.3658	-0.6166	-0.3568
8.89	-9.5518	-0.0592	-0.3219	-0.0233	-0.0139	-0.0190	33.0656	-23.2360	14.8443	-0.5990	0.3658	-0.6165	-0.3568
8.9	-9.5515	-0.0640	-0.3244	-0.0159	-0.0110	-0.0139	33.3634	-23.0542	14.8124	-0.5989	0.3658	-0.6165	-0.3569
8.91	-9.5418	-0.0809	-0.3223	-0.0175	-0.0143	-0.0145	32.8862	-23.2322	14.8351	-0.5989	0.3658	-0.6165	-0.3569
8.92	-9.5430	-0.0742	-0.3225	-0.0071	-0.0118	-0.0087	33.0187	-23.0954	14.8068	-0.5989	0.3658	-0.6165	-0.3569
8.93	-9.5596	-0.0642	-0.3163	-0.0099	-0.0127	-0.0091	33.1000	-23.2015	14.5985	-0.5989	0.3657	-0.6165	-0.3570
8.94	-9.5599	-0.0660	-0.3208	-0.0014	-0.0202	-0.0091	33.1873	-23.3905	14.4158	-0.5989	0.3657	-0.6165	-0.3570
8.95	-9.5425	-0.0597	-0.3152	-0.0045	-0.0180	-0.0095	33.2644	-23.3416	14.6337	-0.5990	0.3656	-0.6165	-0.3570
8.96	-9.5388	-0.0423	-0.3039	0.0044	-0.0165	-0.0082	33.1675	-23.3544	14.5904	-0.5990	0.3655	-0.6166	-0.3570
8.97	-9.5440	-0.0298	-0.3069	0.0035	-0.0164	-0.0085	33.1152	-23.4116	14.5455	-0.5990	0.3654	-0.6166	-0.3570
8.98	-9.5454	-0.0234	-0.3047	0.0077	-0.0196	-0.0080	33.0809	-23.5787	14.5464	-0.5991	0.3654	-0.6166	-0.3570
8.99	-9.5265	-0.0097	-0.2975	0.0177	-0.0253	-0.0080	33.0854	-23.2076	14.5890	-0.5991	0.3652	-0.6166	-0.3570
9	-9.5232	-0.0054	-0.2844	0.0133	-0.0178	-0.0088	33.1511	-23.2353	14.4061	-0.5992	0.3651	-0.6166	-0.3570
9.01	-9.5285	0.0146	-0.2930	0.0170	-0.0213	-0.0090	33.2016	-23.2797	14.4088	-0.5992	0.3650	-0.6167	-0.3569
9.02	-9.5288	0.0324	-0.2893	0.0163	-0.0171	-0.0086	33.1679	-23.3761	14.7349	-0.5993	0.3649	-0.6167	-0.3569
9.03	-9.5278	0.0392	-0.2805	0.0175	-0.0193	-0.0092	33.1951	-23.4766	14.5433	-0.5994	0.3647	-0.6168	-0.3569
9.04	-9.5230	0.0526	-0.2882	0.0129	-0.0167	-0.0072	33.1320	-23.4087	14.6313	-0.5994	0.3646	-0.6168	-0.3568
9.05	-9.5245	0.0566	-0.2828	0.0111	-0.0108	-0.0081	32.8705	-23.5736	14.7439	-0.5994	0.3645	-0.6169	-0.3568
9.06	-9.5247	0.0619	-0.2831	0.0122	-0.0060	-0.0075	32.9565	-23.3524	14.6321	-0.5994	0.3644	-0.6169	-0.3568
9.07	-9.5260	0.0665	-0.2854	0.0094	-0.0107	-0.0012	33.0208	-23.2366	14.8268	-0.5994	0.3643	-0.6170	-0.3568
9.08	-9.5195	0.0671	-0.2829	-0.0044	-0.0080	-0.0104	32.9901	-23.2860	14.8388	-0.5994	0.3643	-0.6170	-0.3568
9.09	-9.5129	0.0721	-0.2797	-0.0043	-0.0128	-0.0048	33.1139	-23.2526	14.7035	-0.5994	0.3642	-0.6170	-0.3568
9.1	-9.5166	0.0737	-0.2812	-0.0012	-0.0120	-0.0039	33.0835	-23.2870	14.4681	-0.5994	0.3641	-0.6171	-0.3568
9.11	-9.5264	0.0766	-0.2803	-0.0015	-0.0164	-0.0090	33.1003	-23.2390	14.7115	-0.5994	0.3641	-0.6171	-0.3568
9.12	-9.5409	0.0747	-0.2844	0.0074	-0.0128	-0.0067	33.0800	-23.3784	14.8524	-0.5994	0.3640	-0.6171	-0.3568
9.13	-9.5365	0.0798	-0.2856	0.0002	-0.0176	-0.0084	33.2326	-23.4436	14.5665	-0.5995	0.3639	-0.6171	-0.3568
9.14	-9.5537	0.0901	-0.2591	0.0140	-0.0191	-0.0043	33.4632	-23.4629	14.5817	-0.5995	0.3638	-0.6172	-0.3568
9.15	-9.5318	0.1022	-0.2927	0.0088	-0.0107	-0.0086	33.0516	-23.3936	14.7734	-0.5995	0.3637	-0.6172	-0.3568
9.16	-9.5282	0.1070	-0.2746	0.0038	-0.0151	-0.0103	33.4130	-23.6282	14.6974	-0.5996	0.3636	-0.6173	-0.3568
9.17	-9.5488	0.1047	-0.2729	0.0061	-0.0066	-0.0128	33.8844	-23.1817	14.8393	-0.5996	0.3635	-0.6173	-0.3567
9.18	-9.5695	0.0967	-0.2796	-0.0077	-0.0134	-0.0142	33.8270	-23.1113	14.8952	-0.5996	0.3635	-0.6173	-0.3567
9.19	-9.5572	0.0928	-0.2487	-0.0022	-0.0223	-0.0169	33.3005	-23.9136	14.6394	-0.5996	0.3635	-0.6173	-0.3567
9.2	-9.5587	0.0981	-0.2408	-0.0062	-0.0173	-0.0135	33.0295	-24.6291	14.6362	-0.5997	0.3634	-0.6173	-0.3567
9.21	-9.5615	0.0957	-0.2684	-0.0052	-0.0244	-0.0085	32.8918	-23.7441	14.5314	-0.5997	0.3634	-0.6173	-0.3568
9.22	-9.5236	0.0924	-0.2515	-0.0103	-0.0226	-0.0118	32.9011	-23.3341	14.6404	-0.5997	0.3633	-0.6173	-0.3568
9.23	-9.4801	0.1075	-0.2322	-0.0087	-0.0150	-0.0087	32.8929	-23.2731	14.7732	-0.5997	0.3633	-0.6172	-0.3569
9.24	-9.4605	0.1213	-0.2595	-0.0189	-0.0077	-0.0103	33.0460	-23.2098	14.5619	-0.5997	0.3633	-0.6172	-0.3569
9.25	-9.4721	0.1133	-0.2708	-0.0234	0.0113	-0.0086	32.8574	-23.2642	14.6210	-0.5996	0.3633	-0.6173	-0.3570
9.26	-9.4925	0.0905	-0.2765	-0.0284	0.0011	-0.0102	32.7584	-23.2202	14.6674	-0.5995	0.3634	-0.6173	-0.3570
9.27	-9.5061	0.0593	-0.2850	-0.0291	0.0108	-0.0120	33.0866	-23.2632	14.5364	-0.5994	0.3635	-0.6174	-0.3571
9.28	-9.5325	0.0409	-0.2860	-0.0260	0.0075	-0.0194	32.8387	-23.3600	14.3923	-0.5993	0.3636	-0.6174	-0.3571
9.29	-9.5603	0.0387	-0.3037	-0.0118	0.0082	-0.0175	32.8723	-23.2649	14.4227	-0.5992	0.3636	-0.6174	-0.3571
9.3	-9.5620	0.0400	-0.3027	-0.0088	-0.0042	-0.0171	32.9061	-23.1173	14.5887	-0.5992	0.3636	-0.6175	-0.3571
9.31	-9.5456	0.0441	-0.2865	-0.0066	-0.0117	-0.0119	32.9167	-23.4496	14.6680	-0.5992	0.3636	-0.6175	-0.3571
9.32	-9.5286	0.0497	-0.2850	-0.0079	-0.0099	-0.0155	32.8129	-23.5021	14.6417	-0.5992	0.3636	-0.6175	-0.3571
9.33	-9.5352	0.0524	-0.2844	-0.0071	-0.0130	-0.0106	32.9529	-23.5897	14.7414	-0.5992	0.3635	-0.6175	-0.3571
9.34	-9.5481	0.0547	-0.2855	-0.0096	0.0019	-0.0185	33.0224	-23.5798	14.7735	-0.5992	0.3636	-0.6175	-0.3571
9.35	-9.5561	0.0592	-0.3043	-0.0022	0.0007	-0.0151	33.0905	-23.4794	14.5525	-0.5991	0.3635	-0.6176	-0.3570
9.36	-9.5261	0.0606	-0.2990	0.0023	-0.0094	-0.0110	33.0494	-23.5098	14.6515	-0.5991	0.3635	-0.6176	-0.3570
9.37	-9.5546	0.0789	-0.2710	-0.0039	0.0011	-0.0096	33.2696	-23.5091	14.6517	-0.5991	0.3635	-0.6176	-0.3570
9.38	-9.5769	0.0900	-0.3086	-0.0043	0.0020	-0.0102	33.1320	-23.3628	14.5672	-0.5991	0.3634	-0.6177	-0.3570
9.39	-9.5541	0.0854	-0.3045	-0.0090	-0.0159	-0.0105	32.8285	-23.5139	14.6929	-0.5991	0.3634	-0.6177	-0.3570
9.4	-9.5285	0.0854	-0.2898	-0.0094	-0.0221	-0.0131	32.7983	-23.4075	14.6280	-0.5991	0.3634	-0.6177	-0.3571
9.41	-9.5241	0.0748	-0.2921	-0.0093	-0.0168	-0.0090	32.9055	-23.4504	14.7759	-0.5991	0.3633	-0.6177	-0.3571
9.42	-9.5390	0.0674	-0.2851	-0.0059	-0.0137	-0.0090	32.7722	-23.3197	14.5827	-0.5991	0.3633	-0.6177	-0.3571
9.43	-9.5449	0.0809	-0.2848	0.0008	-0.0120	-0.0094	32.8654	-23.2587	14.7701	-0.5991	0.3632	-0.6177	-0.3571
9.44	-9.5379	0.0869	-0.2901	-0.0074	-0.0137	-0.0088	33.0238	-23.4508	14.6311	-0.5991	0.3632	-0.6177	-0.3572
9.45	-9.5308	0.0877	-0.2765	0.0033	-0.0151	-0.0083	32.8198	-23.1826	14.6891	-0.5991	0.3631	-0.6177	-0.3572
9.46	-9.5244	0.0941	-0.2785	0.0078	-0.0091	-0.0107	32.7133	-23.2862	14.5564	-0.5991	0.3630	-0.6178	-0.3571
9.47	-9.5239	0.0946	-0.2862	0.0051	-0.0113	-0.0098	32.9326	-23.4413	14.6605	-0.5992	0.3630	-0.6178	-0.3571
9.48	-9.5309	0.0966	-0.2825	0.0164	-0.0105	-0.0194	32.8758	-23.2899	14.6158	-0.5992	0.3629	-0.6179	-0.3571
9.49	-9.5316	0.1102	-0.2837	0.0144	-0.0132	-0.0129	32.7931	-23.1347	14.7421	-0.5992	0.3628	-0.6179	-0.3570
9.5	-9.5431	0.1220	-0.2869	0.0112	-0.0120	-0.0149	32.8422	-23.3285	14.5998	-0.5993	0.3627	-0.6179	-0.3570
9.51	-9.5527	0.1291	-0.2859	0.0108	-0.0151	-0.0181	33.0944	-23.4057	14.5803	-0.5993	0.3627	-0.6180	-0.3569
9.52	-9.5380	0.1377	-0.2925	0.0112	-0.0195	-0.0173	33.1682	-23.5260	14.4869	-0.5994	0.3626	-0.6180	-0.3569
9.53	-9.5377	0.1394	-0.2846	-0.0044	-0.0190	-0.0175	33.0346	-23.5063	14.2955	-0.5994	0.3625	-0.6180	-0.3568
9.54	-9.5379	0.1340	-0.2915	-0.0097	-0.0175	-0.0139	33.3977	-23.7290	14.6322	-0.5995	0.3625	-0.6180	-0.3569
9.55	-9.5419	0.1288	-0.2938	-0.0105	-0.0126	-0.0114	33.1118	-23.4518	14.5391	-0.5995	0.3625	-0.6180	-0.3569
9.56	-9.5456	0.1189	-0.2890	-0.0109	-0.0155	-0.0159	32.9875	-23.4450	14.6929	-0.5995	0.3625	-0.6180	-0.3569
9.57	-9.5486	0.1031	-0.2918	-0.0144	-0.0144	-0.0154	33.1091	-23.4930	14.6527	-0.5995	0.3625	-0.6179	-0.3569
9.58	-9.5411	0.0887	-0.2895	-0.0185	-0.0212	-0.0114	33.0695	-23.2822	14.5713	-0.5995	0.3624	-0.6179	-0.3570
9.59	-9.5385	0.0835	-0.2810	-0.0134	-0.0204	-0.0151	32.9704	-23.4678	14.6574	-0.5995	0.3624	-0.6179	-0.3571
9.6	-9.5401	0.0804	-0.2849	-0.0078	-0.0117	-0.0141	32.8640	-23.4909	14.8264	-0.5995	0.3624	-0.6179	-0.3571
9.61	-9.5372	0.0788	-0.2894	-0.0119	-0.0126	-0.0169	32.9337	-23.3108	14.8164	-0.5995	0.3624	-0.6179	-0.3571
9.62	-9.5417	0.0646	-0.2765	-0.0154	-0.0109	-0.0226	32.7745	-23.3467	14.4145	-0.5995	0.3624	-0.6178	-0.3571
9.63	-9.5359	0.0631	-0.2777	-0.0100	-0.0145	-0.0199	32.9708	-23.3017	14.6394	-0.5995	0.3624	-0.6178	-0.3571
9.64	-9.5261	0.0615	-0.2768	-0.0067	-0.0149	-0.0249	32.9489	-23.3738	14.8086	-0.5995	0.3624	-0.6178	-0.3571
9.65	-9.5144	0.0639	-0.2705	-0.0101	-0.0103	-0.0274	32.8460	-23.1988	14.6091	-0.5995	0.3625	-0.6178	-0.3571
9.66	-9.5019	0.0666	-0.2706	-0.0034	-0.0148	-0.0225	33.2382	-23.3084	14.8926	-0.5996	0.3625	-0.6178	-0.3571
9.67	-9.5045	0.0753	-0.2624	0.0064	-0.0065	-0.0215	33.2468	-23.3507	15.0733	-0.5996	0.3624	-0.6178	-0.3570
9.68	-9.5117	0.0940	-0.2640	0.0050	-0.0097	-0.0210	33.2403	-23.3549	14.9462	-0.5996	0.3624	-0.6178	-0.3569
9.69	-9.5231	0.0994	-0.2700	0.0074	-0.0037	-0.0190	33.0711	-23.9158	14.6676	-0.5997	0.3624	-0.6179	-0.3569
9.7	-9.5292	0.1070	-0.2662	-0.0016	-0.0038	-0.0203	33.0700	-24.6872	14.4680	-0.5996	0.3623	-0.6179	-0.3568
9.71	-9.5394	0.1052	-0.2796	-0.0088	-0.0038	-0.0134	33.3292	-23.5699	14.5525	-0.5996	0.3623	-0.6179	-0.3568
9.72	-9.5360	0.0983	-0.2934	-0.0059	0.0011	-0.0193	33.2524	-23.3295	14.7845	-0.5996	0.3623	-0.6180	-0.3568
9.73	-9.5315	0.0961	-0.2807	-0.0109	-0.0037	-0.0184	33.1506	-23.5214	14.6238	-0.5996	0.3623	-0.6180	-0.3568
9.74	-9.5303	0.0882	-0.2883	-0.0086	0.0058	-0.0148	32.9664	-23.2706	14.5287	-0.5995	0.3624	-0.6180	-0.3568
9.75	-9.5300	0.0849	-0.3054	-0.0097	0.0063	-0.0171	32.8719	-23.4854	14.6130	-0.5995	0.3624	-0.6181	-0.3567
9.76	-9.5282	0.0782	-0.2991	-0.0097	0.0029	-0.0172	33.1916	-23.3412	14.7566	-0.5995	0.3624	-0.6181	-0.3567
9.77	-9.5392	0.0765	-0.2947	-0.0096	-0.0012	-0.0131	33.1223	-23.3777	14.7337	-0.5994	0.3624	-0.6182	-0.3567
9.78	-9.5549	0.0698	-0.3099	-0.0090	-0.0061	-0.0202	33.0151	-23.3298	14.7545	-0.5994	0.3624	-0.6182	-0.3567
9.79	-9.5541	0.0646	-0.3021	-0.0054	-0.0112	-0.0211	32.8807	-23.4593	14.6765	-0.5994	0.3624	-0.6182	-0.3567
9.8	-9.5706	0.0682	-0.2818	-0.0115	-0.0088	-0.0207	32.8770	-23.3474	14.6137	-0.5994	0.3624	-0.6182	-0.3567
9.81	-9.5412	0.0824	-0.3186	-0.0087	-0.0075	-0.0207	32.8853	-23.3864	14.7069	-0.5994	0.3624	-0.6182	-0.3567
9.82	-9.5341	0.0834	-0.2914	-0.0083	-0.0115	-0.0236	32.8759	-23.2856	14.7078	-0.5994	0.3624	-0.6182	-0.3566
9.83	-9.5600	0.0722	-0.2908	-0.0078	-0.0066	-0.0323	32.8820	-23.3470	14.5319	-0.5994	0.3625	-0.6182	-0.3566
9.84	-9.5781	0.0582	-0.3024	-0.0084	-0.0074	-0.0328	32.9764	-23.3730	14.6675	-0.5995	0.3625	-0.6181	-0.3566
9.85	-9.5634	0.0449	-0.2871	-0.0036	-0.0159	-0.0324	32.9830	-23.2125	14.8114	-0.5995	0.3626	-0.6181	-0.3565
9.86	-9.5617	0.0512	-0.2758	-0.0058	-0.0093	-0.0256	32.9135	-23.3775	14.7901	-0.5995	0.3626	-0.6181	-0.3565
9.87	-9.5779	0.0425	-0.2844	-0.0078	-0.0138	-0.0212	32.7651	-23.3381	14.6122	-0.5995	0.3626	-0.6181	-0.3565
9.88	-9.5566	0.0568	-0.2849	-0.0098	-0.0234	-0.0099	32.9312	-23.4124	14.6801	-0.5996	0.3625	-0.6181	-0.3565
9.89	-9.4936	0.0790	-0.2782	-0.0091	-0.0181	-0.0095	33.0077	-23.4162	14.5919	-0.5996	0.3625	-0.6180	-0.3566
9.9	-9.4696	0.0774	-0.2833	-0.0094	-0.0133	-0.0091	33.1729	-23.3184	14.5110	-0.5996	0.3624	-0.6180	-0.3566
9.91	-9.4895	0.0764	-0.3070	-0.0122	-0.0024	-0.0091	33.1170	-23.5830	14.9118	-0.5995	0.3624	-0.6181	-0.3566
9.92	-9.5085	0.0627	-0.3188	-0.0109	0.0046	-0.0095	33.0642	-23.4996	14.7598	-0.5995	0.3624	-0.6181	-0.3566
9.93	-9.5190	0.0369	-0.3099	-0.0107	-0.0067	-0.0121	32.9919	-23.3682	14.5348	-0.5994	0.3624	-0.6182	-0.3566
9.94	-9.5441	0.0345	-0.3033	-0.0093	-0.0040	-0.0110	32.9542	-23.3628	14.5826	-0.5994	0.3624	-0.6182	-0.3567
9.95	-9.5653	0.0467	-0.3230	-0.0034	-0.0067	-0.0165	33.1999	-23.3535	14.4009	-0.5994	0.3624	-0.6182	-0.3566
9.96	-9.5582	0.0616	-0.3172	0.0126	-0.0181	-0.0118	33.1062	-23.2187	14.5843	-0.5995	0.3623	-0.6182	-0.3566
9.97	-9.5458	0.0791	-0.2962	0.0130	-0.0176	-0.0144	32.9466	-23.4261	14.6784	-0.5995	0.3622	-0.6183	-0.3566
9.98	-9.5344	0.0929	-0.3053	0.0141	-0.0151	-0.0216	33.0942	-23.5771	14.6407	-0.5996	0.3621	-0.6183	-0.3565
9.99	-9.5311	0.1109	-0.3062	0.0162	-0.0128	-0.0216	32.9967	-23.3495	14.6496	-0.5996	0.3621	-0.6183	-0.3564
10	-9.5547	0.1191	-0.2893	0.0139	-0.0185	-0.0274	33.0196	-23.2297	14.4386	-0.5997	0.3620	-0.6183	-0.3564
10.01	-9.5705	0.1251	-0.3142	0.0046	-0.0093	-0.0260	33.0832	-23.4436	14.5542	-0.5998	0.3620	-0.6183	-0.3563
10.02	-9.5356	0.1359	-0.3127	0.0110	-0.0149	-0.0224	32.9392	-23.4874	14.7899	-0.5998	0.3619	-0.6183	-0.3562
10.03	-9.5490	0.1429	-0.2740	-0.0010	-0.0142	-0.0321	32.9821	-23.5052	14.7060	-0.5999	0.3619	-0.6183	-0.3562
10.04	-9.5636	0.1539	-0.3069	-0.0095	-0.0111	-0.0273	32.9655	-23.1408	14.8352	-0.5999	0.3620	-0.6183	-0.3561
10.05	-9.5454	0.1421	-0.3080	-0.0140	-0.0125	-0.0271	32.9752	-23.3828	14.7365	-0.5999	0.3620	-0.6183	-0.3561
10.06	-9.5323	0.1334	-0.2835	-0.0166	-0.0197	-0.0256	32.8437	-23.4897	14.7422	-0.5999	0.3620	-0.6182	-0.3562
10.07	-9.5264	0.1195	-0.2934	-0.0232	-0.0216	-0.0187	33.1314	-23.5667	14.7492	-0.5999	0.3620	-0.6181	-0.3562
10.08	-9.5358	0.0961	-0.2803	-0.0263	-0.0182	-0.0134	33.1486	-23.4447	14.7410	-0.5999	0.3621	-0.6181	-0.3563
10.09	-9.5390	0.1050	-0.2727	-0.0223	-0.0142	-0.0168	33.1604	-23.4420	14.7491	-0.5999	0.3621	-0.6181	-0.3563
10.1	-9.5387	0.0996	-0.2850	-0.0313	-0.0176	-0.0186	33.1056	-23.4618	14.7355	-0.5999	0.3621	-0.6180	-0.3564
10.11	-9.5357	0.0798	-0.2730	-0.0255	-0.0185	-0.0240	33.0373	-23.3937	14.7633	-0.5999	0.3622	-0.6180	-0.3565
10.12	-9.5328	0.0768	-0.2699	-0.0325	-0.0144	-0.0249	33.0727	-23.2428	14.6280	-0.5999	0.3622	-0.6179	-0.3565
10.13	-9.5345	0.0582	-0.2664	-0.0258	-0.0161	-0.0283	33.0514	-23.4233	14.6709	-0.5999	0.3623	-0.6178	-0.3566
10.14	-9.5358	0.0544	-0.2762	-0.0214	-0.0155	-0.0257	33.0650	-23.4407	14.6141	-0.5999	0.3624	-0.6178	-0.3566
10.15	-9.5362	0.0579	-0.2675	-0.0124	-0.0170	-0.0324	33.0481	-23.5371	14.7704	-0.5999	0.3624	-0.6177	-0.3566
10.16	-9.5320	0.0592	-0.2697	-0.0074	-0.0157	-0.0353	33.1552	-23.3510	14.6945	-0.6000	0.3624	-0.6177	-0.3566
10.17	-9.5373	0.0568	-0.2620	-0.0118	-0.0132	-0.0329	33.5989	-23.1976	14.8522	-0.6000	0.3625	-0.6176	-0.3565
10.18	-9.5424	0.0512	-0.2735	-0.0090	-0.0145	-0.0308	33.6724	-23.3097	14.8824	-0.6001	0.3625	-0.6176	-0.3565
10.19	-9.5239	0.0482	-0.2713	-0.0100	-0.0134	-0.0216	33.2574	-23.8533	14.6417	-0.6001	0.3625	-0.6176	-0.3565
10.2	-9.5217	0.0449	-0.2570	-0.0081	-0.0111	-0.0247	32.8268	-24.7937	14.4687	-0.6001	0.3625	-0.6176	-0.3565
10.21	-9.5406	0.0436	-0.2676	-0.0117	-0.0110	-0.0271	32.9748	-23.4270	14.3993	-0.6001	0.3625	-0.6176	-0.3564
10.22	-9.5578	0.0438	-0.2708	-0.0088	-0.0129	-0.0168	32.9701	-23.2730	14.4800	-0.6001	0.3625	-0.6175	-0.3565
10.23	-9.5625	0.0467	-0.2685	-0.0059	-0.0142	-0.0193	32.7760	-23.1511	14.5619	-0.6001	0.3625	-0.6175	-0.3565
10.24	-9.5651	0.0440	-0.2570	-0.0086	-0.0195	-0.0155	33.0374	-23.1040	14.6550	-0.6002	0.3625	-0.6175	-0.3565
10.25	-9.5569	0.0463	-0.2504	0.0008	-0.0212	-0.0125	33.1062	-23.4986	14.4618	-0.6002	0.3624	-0.6175	-0.3565
10.26	-9.5463	0.0600	-0.2458	0.0011	-0.0278	-0.0156	33.1643	-23.3645	14.4640	-0.6003	0.3624	-0.6175	-0.3565
10.27	-9.5269	0.0644	-0.2404	0.0001	-0.0266	-0.0133	33.3207	-23.5767	14.4872	-0.6003	0.3623	-0.6175	-0.3565
10.28	-9.5154	0.0770	-0.2253	0.0067	-0.0178	-0.0139	33.0444	-23.4241	14.5983	-0.6004	0.3622	-0.6175	-0.3565
10.29	-9.5110	0.0905	-0.2289	0.0054	-0.0183	-0.0132	32.9987	-23.4377	14.4806	-0.6004	0.3621	-0.6175	-0.3565
10.3	-9.5019	0.1001	-0.2190	0.0102	-0.0173	-0.0174	33.0090	-23.3942	14.4414	-0.6005	0.3620	-0.6175	-0.3565
10.31	-9.5020	0.1077	-0.2076	0.0020	-0.0175	-0.0214	32.7705	-23.3601	14.5185	-0.6005	0.3620	-0.6175	-0.3564
10.32	-9.5097	0.1170	-0.2127	-0.0034	-0.0226	-0.0198	33.1000	-23.4251	14.7365	-0.6006	0.3620	-0.6175	-0.3564
10.33	-9.5053	0.1126	-0.2103	-0.0047	-0.0134	-0.0207	33.0255	-23.5045	14.4490	-0.6006	0.3619	-0.6175	-0.3564
10.34	-9.5025	0.1033	-0.2063	-0.0071	-0.0173	-0.0250	32.8808	-23.5071	14.3770	-0.6006	0.3619	-0.6174	-0.3564
10.35	-9.4923	0.0917	-0.2077	-0.0081	-0.0159	-0.0314	33.1144	-23.2408	14.3517	-0.6007	0.3620	-0.6174	-0.3564
10.36	-9.4935	0.0816	-0.2082	-0.0069	-0.0033	-0.0306	33.0163	-23.2417	14.4486	-0.6007	0.3620	-0.6174	-0.3563
10.37	-9.4907	0.0720	-0.2154	-0.0168	-0.0025	-0.0238	33.0153	-23.3396	14.4726	-0.6007	0.3620	-0.6174	-0.3563
10.38	-9.4857	0.0671	-0.2197	-0.0070	0.0008	-0.0295	32.9788	-23.2144	14.4630	-0.6007	0.3621	-0.6174	-0.3563
10.39	-9.4849	0.0691	-0.2196	-0.0142	0.0049	-0.0282	32.9222	-23.3030	14.4501	-0.6006	0.3622	-0.6174	-0.3562
10.4	-9.5064	0.0655	-0.2154	-0.0093	0.0079	-0.0240	33.1470	-23.3649	14.5495	-0.6006	0.3622	-0.6175	-0.3562
10.41	-9.5259	0.0593	-0.2335	-0.0118	0.0138	-0.0294	32.9534	-23.2009	14.5644	-0.6005	0.3623	-0.6175	-0.3561
10.42	-9.5362	0.0593	-0.2284	-0.0157	0.0113	-0.0346	32.9426	-23.4464	14.5502	-0.6005	0.3624	-0.6175	-0.3561
10.43	-9.5562	0.0557	-0.2219	-0.0088	0.0050	-0.0278	33.0748	-23.3183	14.5677	-0.6004	0.3625	-0.6176	-0.3560
10.44	-9.5412	0.0598	-0.2561	-0.0140	0.0055	-0.0252	33.2094	-23.4508	14.5537	-0.6004	0.3625	-0.6176	-0.3560
10.45	-9.5574	0.0605	-0.2432	-0.0139	0.0054	-0.0296	33.1502	-23.3565	14.4562	-0.6003	0.3626	-0.6176	-0.3559
10.46	-9.5799	0.0536	-0.2547	-0.0163	0.0067	-0.0251	33.0988	-23.4244	14.4656	-0.6003	0.3627	-0.6176	-0.3559
10.47	-9.5986	0.0343	-0.2518	-0.0121	0.0046	-0.0286	33.0117	-23.5476	14.4757	-0.6003	0.3627	-0.6177	-0.3559
10.48	-9.5776	0.0279	-0.2459	-0.0084	-0.0076	-0.0331	33.1028	-23.4201	14.5428	-0.6003	0.3628	-0.6176	-0.3558
10.49	-9.5621	0.0307	-0.2426	-0.0089	-0.0148	-0.0243	33.2141	-23.2264	14.6168	-0.6003	0.3628	-0.6176	-0.3558
10.5	-9.5552	0.0272	-0.2337	-0.0157	-0.0151	-0.0225	32.9665	-23.2124	14.5958	-0.6003	0.3628	-0.6176	-0.3558
10.51	-9.5224	0.0426	-0.2214	-0.0109	-0.0086	-0.0162	33.1223	-23.5683	14.5467	-0.6003	0.3628	-0.6176	-0.3558
10.52	-9.4759	0.0509	-0.2243	-0.0162	-0.0035	-0.0155	33.1670	-23.3690	14.5588	-0.6003	0.3628	-0.6176	-0.3558
10.53	-9.4512	0.0519	-0.2263	-0.0230	-0.0023	-0.0103	32.9372	-23.3015	14.5914	-0.6002	0.3628	-0.6176	-0.3559
10.54	-9.4692	0.0629	-0.2346	-0.0235	0.0133	-0.0156	33.1148	-23.1530	14.6826	-0.6001	0.3629	-0.6176	-0.3559
10.55	-9.4939	0.0515	-0.2656	-0.0227	0.0232	-0.0211	33.0897	-23.1453	14.6150	-0.6000	0.3630	-0.6177	-0.3559
10.56	-9.5026	0.0319	-0.2715	-0.0218	0.0202	-0.0194	33.1064	-23.4308	14.5661	-0.5999	0.3631	-0.6178	-0.3559
10.57	-9.5313	0.0328	-0.2603	-0.0152	0.0187	-0.0192	33.0830	-23.3554	14.7343	-0.5998	0.3632	-0.6179	-0.3559
10.58	-9.5690	0.0363	-0.2804	-0.0112	0.0232	-0.0256	33.1296	-23.3200	14.7546	-0.5997	0.3632	-0.6179	-0.3558
10.59	-9.5690	0.0394	-0.2925	-0.0191	0.0149	-0.0263	32.8489	-23.4316	14.7255	-0.5996	0.3633	-0.6180	-0.3558
10.6	-9.5447	0.0470	-0.2813	-0.0091	0.0115	-0.0312	32.8660	-23.4364	14.6244	-0.5995	0.3634	-0.6180	-0.3557
10.61	-9.5343	0.0516	-0.2741	-0.0134	0.0112	-0.0258	32.9360	-23.3563	14.6759	-0.5995	0.3635	-0.6181	-0.3556
10.62	-9.5430	0.0524	-0.2955	-0.0120	0.0067	-0.0305	32.9827	-23.2307	14.5393	-0.5994	0.3636	-0.6181	-0.3556
10.63	-9.5641	0.0573	-0.2968	-0.0079	0.0102	-0.0281	33.2862	-23.5921	14.5735	-0.5994	0.3636	-0.6181	-0.3555
10.64	-9.5574	0.0579	-0.3015	-0.0107	0.0107	-0.0303	33.2138	-23.4186	14.5546	-0.5994	0.3637	-0.6182	-0.3555
10.65	-9.5484	0.0663	-0.2987	-0.0140	0.0086	-0.0238	33.1582	-23.4777	14.5648	-0.5993	0.3637	-0.6182	-0.3554
10.66	-9.5788	0.0670	-0.2936	-0.0166	0.0095	-0.0310	33.4825	-23.5589	14.6495	-0.5993	0.3638	-0.6182	-0.3554
10.67	-9.5667	0.0681	-0.3162	-0.0165	-0.0017	-0.0225	33.7660	-23.3854	14.9976	-0.5992	0.3639	-0.6183	-0.3554
10.68	-9.5316	0.0515	-0.2963	-0.0308	-0.0154	-0.0265	33.7089	-23.2368	14.9302	-0.5992	0.3639	-0.6182	-0.3554
10.69	-9.5110	0.0449	-0.2879	-0.0312	-0.0031	-0.0269	33.0810	-23.6508	14.5129	-0.5992	0.3640	-0.6182	-0.3554
10.7	-9.5236	0.0346	-0.2925	-0.0237	-0.0040	-0.0176	33.1126	-24.6857	14.6840	-0.5991	0.3641	-0.6182	-0.3555
10.71	-9.5253	0.0269	-0.2885	-0.0239	-0.0077	-0.0186	33.1090	-23.6059	14.6136	-0.5991	0.3641	-0.6181	-0.3555
10.72	-9.5177	0.0447	-0.2869	-0.0319	-0.0093	-0.0132	32.9640	-23.2926	14.4476	-0.5991	0.3642	-0.6181	-0.3556
10.73	-9.5236	0.0567	-0.2889	-0.0279	0.0020	-0.0192	33.0909	-23.2470	14.5639	-0.5990	0.3643	-0.6181	-0.3557
10.74	-9.5299	0.0578	-0.2925	-0.0190	0.0078	-0.0206	33.0421	-23.1693	14.8299	-0.5989	0.3643	-0.6181	-0.3557
10.75	-9.5284	0.0566	-0.3019	-0.0212	0.0095	-0.0244	33.1505	-23.2238	14.7924	-0.5988	0.3644	-0.6182	-0.3556
10.76	-9.5262	0.0547	-0.2992	-0.0091	0.0071	-0.0299	33.0900	-23.2561	14.5533	-0.5988	0.3645	-0.6182	-0.3556
10.77	-9.5370	0.0478	-0.3096	-0.0143	0.0107	-0.0311	32.9382	-23.3497	14.4231	-0.5988	0.3646	-0.6182	-0.3555
10.78	-9.5488	0.0600	-0.3119	-0.0076	0.0117	-0.0349	32.8612	-23.3574	14.7059	-0.5987	0.3646	-0.6183	-0.3554
10.79	-9.5338	0.0661	-0.3096	-0.0150	0.0089	-0.0339	32.9692	-23.4784	14.6993	-0.5987	0.3647	-0.6183	-0.3554
10.8	-9.5270	0.0586	-0.3054	-0.0278	0.0091	-0.0346	32.9812	-23.4466	14.5257	-0.5986	0.3649	-0.6183	-0.3554
10.81	-9.5296	0.0589	-0.3054	-0.0095	0.0054	-0.0346	33.1125	-23.1664	14.5713	-0.5986	0.3649	-0.6183	-0.3553
10.82	-9.5319	0.0524	-0.3201	-0.0202	0.0122	-0.0309	33.1873	-23.5580	14.5503	-0.5985	0.3650	-0.6183	-0.3553
10.83	-9.5384	0.0395	-0.3266	-0.0342	0.0029	-0.0343	33.0712	-23.2535	14.5538	-0.5985	0.3652	-0.6183	-0.3553
10.84	-9.5460	0.0352	-0.3266	-0.0308	0.0067	-0.0301	32.9556	-23.4294	14.7668	-0.5984	0.3653	-0.6183	-0.3553
10.85	-9.5655	0.0221	-0.3279	-0.0333	0.0042	-0.0324	33.1574	-23.3106	14.7375	-0.5983	0.3654	-0.6182	-0.3553
10.86	-9.5649	0.0181	-0.3393	-0.0319	0.0006	-0.0317	33.1323	-23.3330	14.7377	-0.5983	0.3656	-0.6182	-0.3553
10.87	-9.5592	0.0084	-0.3254	-0.0350	-0.0048	-0.0292	33.2852	-23.5033	14.7523	-0.5982	0.3657	-0.6182	-0.3553
10.88	-9.5601	0.0008	-0.3232	-0.0178	-0.0005	-0.0277	33.0632	-23.3152	14.8467	-0.5982	0.3658	-0.6182	-0.3553
10.89	-9.5572	-0.0018	-0.3325	-0.0093	-0.0010	-0.0302	33.1789	-23.2930	14.6456	-0.5982	0.3658	-0.6182	-0.3553
10.9	-9.5395	-0.0085	-0.3264	-0.0148	-0.0121	-0.0336	33.2815	-23.2824	14.6541	-0.5982	0.3658	-0.6181	-0.3552
10.91	-9.5216	-0.0114	-0.3083	-0.0136	-0.0131	-0.0329	33.1438	-23.3109	14.6411	-0.5982	0.3659	-0.6181	-0.3552
10.92	-9.5316	-0.0103	-0.3028	-0.0098	0.0004	-0.0310	32.9905	-23.2509	14.6592	-0.5982	0.3659	-0.6181	-0.3552
10.93	-9.5524	-0.0033	-0.3197	-0.0066	0.0001	-0.0292	33.0495	-23.1889	14.6198	-0.5982	0.3660	-0.6181	-0.3551
10.94	-9.5367	0.0089	-0.3201	-0.0078	-0.0064	-0.0186	33.0664	-23.2053	14.7481	-0.5982	0.3660	-0.6181	-0.3551
10.95	-9.5271	0.0169	-0.2946	-0.0068	-0.0060	-0.0241	32.9939	-23.3246	14.9586	-0.5982	0.3660	-0.6181	-0.3551
10.96	-9.5340	0.0259	-0.3053	-0.0076	-0.0012	-0.0253	33.2325	-23.4029	14.5518	-0.5982	0.3660	-0.6181	-0.3551
10.97	-9.5431	0.0331	-0.3172	-0.0062	0.0036	-0.0266	33.0510	-23.3708	14.6332	-0.5982	0.3661	-0.6182	-0.3550
10.98	-9.5328	0.0312	-0.3123	-0.0061	-0.0090	-0.0251	33.0713	-23.3081	14.6656	-0.5982	0.3661	-0.6182	-0.3550
10.99	-9.5179	0.0314	-0.3039	-0.0069	-0.0088	-0.0159	33.0801	-23.1170	14.6169	-0.5982	0.3661	-0.6182	-0.3550
11	-9.5052	0.0377	-0.3126	-0.0100	0.0042	-0.0158	33.0342	-23.2063	14.4738	-0.5982	0.3661	-0.6182	-0.3550
11.01	-9.5116	0.0431	-0.2962	-0.0137	-0.0013	-0.0242	33.2569	-23.5103	14.4480	-0.5981	0.3661	-0.6182	-0.3550
11.02	-9.5311	0.0376	-0.3095	-0.0077	-0.0009	-0.0282	33.2332	-23.3380	14.6056	-0.5981	0.3661	-0.6182	-0.3549
11.03	-9.5249	0.0399	-0.3190	-0.0058	0.0050	-0.0231	33.1349	-23.2640	14.6536	-0.5981	0.3662	-0.6183	-0.3549
11.04	-9.5393	0.0318	-0.2802	-0.0121	-0.0069	-0.0268	33.4499	-23.3694	14.6575	-0.5981	0.3662	-0.6183	-0.3548
11.05	-9.5232	0.0398	-0.3066	-0.0154	0.0124	-0.0223	33.3259	-23.3909	14.6350	-0.5980	0.3663	-0.6183	-0.3548
11.06	-9.5070	0.0336	-0.3102	-0.0221	0.0067	-0.0235	33.0912	-23.2417	14.6843	-0.5980	0.3663	-0.6184	-0.3548
11.07	-9.5492	0.0267	-0.2947	-0.0198	0.0106	-0.0293	33.2510	-23.1762	14.7557	-0.5979	0.3664	-0.6184	-0.3548
11.08	-9.5716	0.0122	-0.3267	-0.0213	0.0070	-0.0332	33.2381	-23.2945	14.7317	-0.5978	0.3665	-0.6184	-0.3547
11.09	-9.5791	-0.0166	-0.3241	-0.0240	0.0001	-0.0345	33.1724	-23.2908	14.8439	-0.5978	0.3666	-0.6184	-0.3547
11.1	-9.5490	-0.0141	-0.3142	-0.0233	0.0049	-0.0347	33.0974	-23.2931	14.6954	-0.5978	0.3667	-0.6183	-0.3547
11.11	-9.5629	-0.0183	-0.3131	-0.0302	0.0002	-0.0342	33.0864	-23.2882	14.7843	-0.5977	0.3669	-0.6183	-0.3547
11.12	-9.5527	-0.0170	-0.3309	-0.0166	0.0055	-0.0211	32.9450	-23.3052	14.6020	-0.5977	0.3669	-0.6183	-0.3547
11.13	-9.4997	0.0018	-0.3125	-0.0240	-0.0070	-0.0230	32.9326	-23.1548	14.8282	-0.5977	0.3670	-0.6183	-0.3547
11.14	-9.4769	0.0140	-0.3056	-0.0291	0.0068	-0.0198	33.1198	-23.1016	14.7399	-0.5976	0.3671	-0.6183	-0.3548
11.15	-9.4891	0.0145	-0.3407	-0.0321	0.0170	-0.0208	33.0413	-23.1733	14.5027	-0.5974	0.3672	-0.6184	-0.3548
11.16	-9.5065	0.0016	-0.3553	-0.0347	0.0114	-0.0280	33.2532	-23.3573	14.7918	-0.5974	0.3673	-0.6184	-0.3548
