time	acceleration_x	acceleration_y	acceleration_z	gyroscope_x	gyroscope_y	gyroscope_z	magnetometer_x	magnetometer_y	magnetometer_z	quaternion_w	quaternion_x	quaternion_y	quaternion_z
0	-5.3532	-0.1736	-0.7200	-0.0024	0.0042	-0.0023	10.2831	-4.5806	2.6328	0.2884	-0.2611	0.3211	0.2193
0.01	-10.5682	-0.3449	-1.4186	-0.0046	0.0080	-0.0003	20.4834	-8.9376	5.1012	0.5699	-0.5158	0.6345	0.4333
0.02	-9.3035	-0.3059	-1.2516	-0.0082	0.0050	0.0055	18.2847	-7.5331	4.4153	0.5015	-0.4540	0.5584	0.3814
0.03	-9.9989	-0.3326	-1.3528	-0.0074	0.0105	-0.0061	19.4877	-8.2316	4.8132	0.5385	-0.4874	0.5995	0.4094
0.04	-9.5597	-0.3207	-1.2859	-0.0059	0.0088	-0.0065	18.6949	-7.9805	4.5054	0.5156	-0.4667	0.5741	0.3920
0.05	-9.8350	-0.3344	-1.3226	-0.0120	0.0072	-0.0014	19.2216	-8.0310	4.3969	0.5302	-0.4800	0.5904	0.4032
0.06	-9.6682	-0.3281	-1.3066	-0.0061	0.0086	-0.0049	18.8706	-7.8931	4.5536	0.5209	-0.4716	0.5800	0.3961
0.07	-9.7703	-0.3250	-1.3152	-0.0104	0.0002	-0.0041	19.2169	-7.8918	4.5784	0.5266	-0.4768	0.5863	0.4005
0.08	-9.7111	-0.3232	-1.3035	-0.0087	-0.0005	0.0003	19.1066	-8.1828	4.7526	0.5234	-0.4738	0.5826	0.3980
0.09	-9.7466	-0.3198	-1.3107	-0.0083	0.0076	-0.0030	19.0077	-8.1578	4.6671	0.5251	-0.4753	0.5845	0.3993
0.1	-9.7296	-0.3097	-1.3075	-0.0076	0.0072	-0.0059	18.9239	-7.8952	4.6402	0.5244	-0.4747	0.5837	0.3988
0.11	-9.7326	-0.3059	-1.3069	-0.0059	0.0093	-0.0052	19.1737	-7.8850	4.6676	0.5244	-0.4747	0.5837	0.3988
0.12	-9.7311	-0.3093	-1.3062	-0.0104	0.0138	-0.0047	19.5290	-7.9849	5.0930	0.5244	-0.4747	0.5837	0.3987
0.13	-9.7270	-0.3103	-1.3007	-0.0058	0.0153	0.0009	19.4200	-7.9903	4.8602	0.5243	-0.4747	0.5837	0.3987
0.14	-9.7296	-0.3170	-1.2961	-0.0074	0.0167	-0.0046	19.0118	-8.2049	4.7147	0.5243	-0.4747	0.5837	0.3987
0.15	-9.7318	-0.3218	-1.3057	-0.0094	0.0079	-0.0037	19.0255	-8.4019	4.7371	0.5243	-0.4748	0.5837	0.3987
0.16	-9.7301	-0.3242	-1.3041	-0.0112	0.0027	-0.0031	18.8504	-7.9706	4.7354	0.5243	-0.4748	0.5837	0.3987
0.17	-9.7271	-0.3236	-1.3031	-0.0128	0.0106	-0.0042	18.8362	-7.9730	4.8030	0.5243	-0.4748	0.5837	0.3987
0.18	-9.7303	-0.3251	-1.3056	-0.0095	0.0149	-0.0051	18.8851	-7.8562	4.7327	0.5243	-0.4748	0.5837	0.3987
0.19	-9.7300	-0.3224	-1.2992	-0.0063	0.0122	-0.0028	18.9548	-7.9633	4.6181	0.5243	-0.4748	0.5837	0.3987
0.2	-9.7299	-0.3164	-1.3011	-0.0072	0.0129	-0.0006	18.9157	-7.9726	4.5812	0.5242	-0.4749	0.5837	0.3987
0.21	-9.7308	-0.3183	-1.3099	-0.0130	0.0118	-0.0001	19.1503	-8.0784	4.5278	0.5242	-0.4749	0.5837	0.3987
0.22	-9.7323	-0.3190	-1.3129	-0.0052	0.0076	0.0072	19.2043	-8.1691	4.4743	0.5242	-0.4748	0.5837	0.3987
0.23	-9.7337	-0.3141	-1.3279	-0.0040	0.0085	-0.0003	19.3733	-8.3110	4.4282	0.5242	-0.4748	0.5838	0.3987
0.24	-9.7278	-0.3158	-1.3265	-0.0082	0.0117	0.0015	19.1590	-8.1972	4.4360	0.5242	-0.4748	0.5838	0.3987
0.25	-9.7307	-0.3107	-1.3198	-0.0057	0.0140	-0.0008	19.0776	-8.1258	4.5703	0.5241	-0.4748	0.5838	0.3987
0.26	-9.7381	-0.3129	-1.3299	-0.0057	0.0027	-0.0004	18.9323	-8.1326	4.6121	0.5241	-0.4748	0.5838	0.3987
0.27	-9.7312	-0.3072	-1.3289	-0.0075	0.0010	-0.0008	19.0081	-8.1652	4.6153	0.5242	-0.4748	0.5838	0.3988
0.28	-9.7304	-0.3093	-1.3235	-0.0115	0.0022	0.0013	19.0305	-7.9911	4.4772	0.5242	-0.4748	0.5837	0.3988
0.29	-9.7381	-0.3125	-1.3210	-0.0077	0.0019	0.0054	18.8642	-8.0395	4.5823	0.5242	-0.4748	0.5837	0.3988
0.3	-9.7276	-0.3134	-1.3262	-0.0049	0.0092	0.0003	18.8553	-8.2157	4.8143	0.5242	-0.4748	0.5837	0.3988
0.31	-9.7216	-0.3168	-1.3198	-0.0070	0.0099	-0.0034	18.8356	-7.8523	4.6622	0.5242	-0.4748	0.5837	0.3988
0.32	-9.7334	-0.3190	-1.3205	-0.0073	0.0099	-0.0026	18.9951	-8.0159	4.6978	0.5241	-0.4748	0.5838	0.3988
0.33	-9.7305	-0.3255	-1.3124	-0.0051	0.0083	-0.0001	18.9793	-8.1007	4.6841	0.5241	-0.4748	0.5838	0.3988
0.34	-9.7353	-0.3292	-1.3142	-0.0113	0.0029	0.0010	18.8587	-7.9009	4.6909	0.5241	-0.4748	0.5837	0.3989
0.35	-9.7341	-0.3319	-1.3178	-0.0114	0.0018	-0.0035	18.7345	-7.7106	4.6643	0.5241	-0.4748	0.5837	0.3989
0.36	-9.7291	-0.3319	-1.3102	-0.0022	0.0044	-0.0016	18.8507	-8.1102	4.5659	0.5242	-0.4748	0.5837	0.3989
0.37	-9.7279	-0.3348	-1.3056	-0.0050	0.0060	-0.0021	18.9815	-7.7551	4.6628	0.5242	-0.4748	0.5837	0.3989
0.38	-9.7356	-0.3321	-1.3070	-0.0058	0.0037	0.0004	18.8236	-8.0810	4.7140	0.5242	-0.4747	0.5837	0.3989
0.39	-9.7299	-0.3295	-1.2962	-0.0113	0.0014	0.0020	18.9812	-8.2455	4.5439	0.5242	-0.4747	0.5837	0.3990
0.4	-9.7291	-0.3240	-1.2936	-0.0041	0.0070	-0.0016	19.3665	-8.0644	4.5447	0.5242	-0.4747	0.5837	0.3990
0.41	-9.7292	-0.3238	-1.2943	-0.0101	0.0068	0.0006	19.1978	-8.2428	4.4235	0.5242	-0.4747	0.5837	0.3990
0.42	-9.7236	-0.3219	-1.2950	-0.0069	0.0074	0.0039	19.0969	-8.1888	4.5458	0.5242	-0.4747	0.5837	0.3990
0.43	-9.7279	-0.3239	-1.2944	-0.0075	0.0086	-0.0001	19.0510	-8.1498	4.8734	0.5241	-0.4747	0.5837	0.3990
0.44	-9.7282	-0.3231	-1.3020	-0.0049	0.0079	0.0001	19.0406	-8.2652	4.6575	0.5241	-0.4747	0.5837	0.3990
0.45	-9.7298	-0.3215	-1.3026	-0.0058	0.0072	0.0029	19.2035	-8.1037	4.4158	0.5241	-0.4747	0.5837	0.3990
0.46	-9.7247	-0.3147	-1.3078	-0.0128	0.0103	0.0022	19.1800	-8.2612	4.4517	0.5241	-0.4747	0.5837	0.3991
0.47	-9.7310	-0.3128	-1.3143	-0.0020	0.0104	-0.0013	19.3101	-8.1466	4.5617	0.5241	-0.4747	0.5837	0.3991
0.48	-9.7316	-0.3089	-1.3203	-0.0055	0.0047	0.0079	19.1379	-8.1435	4.4809	0.5241	-0.4747	0.5837	0.3991
0.49	-9.7326	-0.3051	-1.3223	-0.0063	0.0094	-0.0020	18.8923	-8.0402	4.6401	0.5241	-0.4747	0.5837	0.3991
0.5	-9.7337	-0.3000	-1.3246	-0.0049	0.0072	-0.0013	18.8646	-7.9718	4.7893	0.5241	-0.4747	0.5837	0.3991
0.51	-9.7291	-0.2993	-1.3204	-0.0119	0.0113	-0.0001	18.9757	-8.1238	4.6144	0.5241	-0.4747	0.5837	0.3991
0.52	-9.7327	-0.3019	-1.3163	-0.0119	0.0054	-0.0034	18.8278	-7.8705	4.8915	0.5241	-0.4747	0.5837	0.3991
0.53	-9.7355	-0.3086	-1.3121	-0.0064	0.0092	0.0014	18.9556	-7.9116	4.7253	0.5241	-0.4747	0.5837	0.3991
0.54	-9.7291	-0.3109	-1.3032	-0.0087	0.0104	-0.0050	19.0425	-7.9940	4.8475	0.5240	-0.4747	0.5837	0.3991
0.55	-9.7303	-0.3167	-1.3112	-0.0129	0.0117	0.0003	18.9383	-7.9550	4.8204	0.5240	-0.4747	0.5837	0.3991
0.56	-9.7277	-0.3256	-1.3103	-0.0082	0.0111	-0.0014	18.8561	-8.0643	4.5799	0.5240	-0.4747	0.5837	0.3991
0.57	-9.7271	-0.3276	-1.3011	-0.0075	0.0092	-0.0005	18.9463	-8.1735	4.5986	0.5240	-0.4747	0.5837	0.3991
0.58	-9.7364	-0.3264	-1.3102	-0.0057	0.0043	-0.0003	18.9569	-8.0770	4.6320	0.5240	-0.4747	0.5837	0.3992
0.59	-9.7343	-0.3255	-1.3160	-0.0032	0.0078	0.0003	19.1746	-8.0363	4.4994	0.5240	-0.4747	0.5837	0.3992
0.6	-9.7320	-0.3218	-1.3216	-0.0083	-0.0015	-0.0010	19.1995	-8.1460	4.5576	0.5240	-0.4747	0.5837	0.3992
0.61	-9.7275	-0.3210	-1.3312	-0.0094	0.0128	0.0001	19.3976	-8.1405	4.7246	0.5240	-0.4747	0.5837	0.3992
0.62	-9.7348	-0.3230	-1.3347	-0.0058	0.0071	-0.0041	19.6606	-8.2785	4.7558	0.5240	-0.4747	0.5837	0.3992
0.63	-9.7345	-0.3203	-1.3394	-0.0058	0.0113	0.0026	19.3752	-8.0906	4.6012	0.5240	-0.4747	0.5837	0.3992
0.64	-9.7296	-0.3219	-1.3321	-0.0085	0.0131	0.0013	18.8747	-8.0833	4.3105	0.5240	-0.4747	0.5837	0.3992
0.65	-9.7359	-0.3243	-1.3293	-0.0093	0.0163	0.0002	19.1630	-8.3689	4.5860	0.5239	-0.4747	0.5838	0.3992
0.66	-9.7329	-0.3240	-1.3210	-0.0039	0.0092	-0.0010	19.0236	-8.0251	4.5382	0.5239	-0.4747	0.5838	0.3992
0.67	-9.7324	-0.3210	-1.3148	-0.0048	-0.0013	0.0005	18.8222	-8.1625	4.5968	0.5239	-0.4747	0.5837	0.3992
0.68	-9.7292	-0.3193	-1.3044	-0.0062	0.0035	-0.0031	18.7369	-8.2272	4.4769	0.5240	-0.4747	0.5837	0.3992
0.69	-9.7290	-0.3139	-1.2988	-0.0132	0.0056	-0.0014	18.8559	-8.0387	4.3502	0.5240	-0.4747	0.5837	0.3992
0.7	-9.7267	-0.3128	-1.2926	-0.0062	0.0042	0.0002	19.1481	-8.0680	4.3896	0.5240	-0.4747	0.5837	0.3993
0.71	-9.7270	-0.3073	-1.2865	-0.0102	0.0076	-0.0054	18.8305	-7.9226	4.5038	0.5240	-0.4747	0.5837	0.3993
0.72	-9.7294	-0.3046	-1.2910	-0.0108	0.0078	-0.0011	18.6421	-7.9088	4.5321	0.5239	-0.4747	0.5837	0.3993
0.73	-9.7278	-0.3088	-1.2855	-0.0068	0.0095	-0.0072	18.9698	-8.0717	4.4162	0.5240	-0.4747	0.5837	0.3993
0.74	-9.7263	-0.3093	-1.2912	-0.0111	0.0095	0.0005	18.8124	-7.9574	4.6052	0.5239	-0.4748	0.5837	0.3993
0.75	-9.7255	-0.3136	-1.2890	-0.0071	0.0083	-0.0050	18.7760	-8.0999	4.4914	0.5239	-0.4748	0.5837	0.3993
0.76	-9.7327	-0.3131	-1.2975	-0.0059	0.0143	0.0041	18.9096	-7.9765	4.5037	0.5239	-0.4748	0.5837	0.3993
0.77	-9.7315	-0.3148	-1.3015	-0.0064	0.0057	0.0005	19.0087	-8.0221	4.6636	0.5239	-0.4748	0.5837	0.3993
0.78	-9.7309	-0.3155	-1.3034	-0.0071	0.0137	-0.0031	19.0014	-8.1865	4.5519	0.5239	-0.4748	0.5837	0.3993
0.79	-9.7312	-0.3170	-1.3092	-0.0088	0.0116	0.0013	18.8978	-8.1919	4.3849	0.5239	-0.4748	0.5837	0.3993
0.8	-9.7259	-0.3166	-1.3090	-0.0093	0.0110	-0.0017	18.9742	-8.0919	4.2292	0.5239	-0.4748	0.5837	0.3993
0.81	-9.7330	-0.3198	-1.3124	-0.0087	0.0105	-0.0002	18.8136	-8.2567	4.5252	0.5238	-0.4748	0.5837	0.3993
0.82	-9.7321	-0.3221	-1.3161	-0.0147	0.0079	0.0025	18.7923	-8.0646	4.4210	0.5238	-0.4748	0.5837	0.3993
0.83	-9.7321	-0.3211	-1.3201	-0.0077	0.0122	-0.0010	19.0326	-7.9191	4.5597	0.5238	-0.4748	0.5837	0.3993
0.84	-9.7413	-0.3187	-1.3268	-0.0107	0.0129	-0.0000	18.9362	-8.0677	4.4794	0.5238	-0.4748	0.5837	0.3993
0.85	-9.7361	-0.3192	-1.3311	-0.0048	0.0073	0.0013	18.9119	-8.0391	4.3805	0.5238	-0.4748	0.5837	0.3993
0.86	-9.7308	-0.3135	-1.3345	-0.0089	0.0077	-0.0008	18.9720	-8.0734	4.3427	0.5238	-0.4748	0.5837	0.3994
0.87	-9.7338	-0.3124	-1.3369	-0.0107	0.0052	-0.0079	18.8313	-7.9844	4.3129	0.5238	-0.4749	0.5837	0.3994
0.88	-9.7312	-0.3111	-1.3349	-0.0058	0.0057	-0.0016	18.9640	-7.9687	4.5164	0.5238	-0.4748	0.5837	0.3994
0.89	-9.7329	-0.3124	-1.3338	-0.0176	0.0079	-0.0004	18.8607	-7.8553	4.3068	0.5237	-0.4749	0.5837	0.3994
0.9	-9.7311	-0.3145	-1.3314	-0.0124	0.0111	-0.0046	18.7875	-7.9511	4.6554	0.5237	-0.4749	0.5837	0.3994
0.91	-9.7241	-0.3226	-1.3251	-0.0084	0.0090	-0.0040	18.8569	-7.9701	4.4902	0.5237	-0.4749	0.5837	0.3994
0.92	-9.7292	-0.3224	-1.3134	-0.0057	0.0022	-0.0048	18.8767	-8.0683	4.3653	0.5237	-0.4749	0.5836	0.3994
0.93	-9.7331	-0.3347	-1.3172	-0.0171	-0.0013	-0.0005	18.8867	-8.0300	4.6334	0.5237	-0.4749	0.5836	0.3995
0.94	-9.7287	-0.3356	-1.3101	-0.0135	0.0056	-0.0025	18.8987	-7.9020	4.4590	0.5237	-0.4749	0.5836	0.3995
0.95	-9.7255	-0.3345	-1.3025	-0.0040	0.0060	-0.0030	18.9183	-7.8636	4.4737	0.5238	-0.4749	0.5836	0.3995
0.96	-9.7363	-0.3324	-1.3058	-0.0071	0.0074	0.0014	18.9875	-7.9270	4.3515	0.5237	-0.4749	0.5836	0.3995
0.97	-9.7327	-0.3285	-1.3052	-0.0067	0.0105	-0.0045	19.2069	-7.9438	4.5910	0.5237	-0.4749	0.5835	0.3995
0.98	-9.7248	-0.3268	-1.2987	-0.0035	0.0075	0.0006	18.9568	-8.0940	4.6924	0.5237	-0.4749	0.5836	0.3995
0.99	-9.7292	-0.3221	-1.2955	-0.0145	0.0012	0.0005	19.1164	-8.3287	4.5315	0.5237	-0.4749	0.5835	0.3995
1	-9.7318	-0.3230	-1.2956	-0.0112	0.0072	0.0024	18.9700	-7.9413	4.3518	0.5237	-0.4749	0.5835	0.3996
1.01	-9.7280	-0.3148	-1.2927	-0.0098	0.0036	-0.0002	18.8679	-8.1867	4.3958	0.5237	-0.4749	0.5835	0.3996
1.02	-9.7310	-0.3158	-1.2934	-0.0067	0.0061	0.0036	18.8476	-7.9488	4.3698	0.5237	-0.4749	0.5835	0.3996
1.03	-9.7340	-0.3204	-1.3044	-0.0097	0.0102	0.0001	18.8401	-8.0908	4.4861	0.5237	-0.4749	0.5835	0.3996
1.04	-9.7219	-0.3185	-1.2993	-0.0142	0.0010	0.0023	18.8881	-8.1410	4.3211	0.5237	-0.4749	0.5835	0.3997
1.05	-9.7281	-0.3189	-1.3091	-0.0129	0.0128	-0.0019	18.9603	-8.1498	4.5091	0.5237	-0.4749	0.5835	0.3997
1.06	-9.7368	-0.3173	-1.3154	-0.0177	0.0152	0.0009	18.8315	-8.0308	4.2673	0.5236	-0.4750	0.5835	0.3997
1.07	-9.7277	-0.3142	-1.3078	-0.0093	0.0073	0.0003	18.9842	-8.0897	4.2067	0.5236	-0.4750	0.5835	0.3997
1.08	-9.7304	-0.3105	-1.3095	-0.0157	0.0092	-0.0047	19.0278	-8.1152	4.3739	0.5236	-0.4750	0.5835	0.3997
1.09	-9.7326	-0.3109	-1.3112	-0.0144	0.0026	-0.0029	19.0005	-7.9419	4.4565	0.5236	-0.4750	0.5834	0.3998
1.1	-9.7320	-0.3091	-1.3188	-0.0202	0.0036	-0.0043	18.9310	-8.0738	4.4844	0.5236	-0.4751	0.5834	0.3998
1.11	-9.7293	-0.3078	-1.3116	-0.0167	0.0044	-0.0054	19.1713	-7.9068	4.7376	0.5236	-0.4751	0.5833	0.3998
1.12	-9.7279	-0.3076	-1.3136	-0.0112	0.0094	-0.0035	19.5563	-7.8186	4.7010	0.5236	-0.4751	0.5833	0.3998
1.13	-9.7325	-0.3090	-1.3130	-0.0083	0.0094	0.0005	19.3526	-7.9168	4.7487	0.5236	-0.4751	0.5833	0.3998
1.14	-9.7348	-0.3060	-1.3199	-0.0064	0.0036	0.0061	19.1928	-8.1422	4.8032	0.5236	-0.4751	0.5833	0.3999
1.15	-9.7296	-0.3076	-1.3145	-0.0075	0.0080	0.0018	19.1014	-8.4417	4.4957	0.5235	-0.4751	0.5834	0.3999
1.16	-9.7356	-0.3077	-1.3143	-0.0080	0.0043	-0.0009	19.0416	-8.0747	4.3856	0.5236	-0.4751	0.5833	0.3999
1.17	-9.7333	-0.3093	-1.3263	-0.0071	0.0066	-0.0006	19.1988	-7.9748	4.5391	0.5235	-0.4751	0.5833	0.3999
1.18	-9.7269	-0.3125	-1.3115	-0.0036	0.0077	0.0009	19.1431	-8.1694	4.6263	0.5236	-0.4750	0.5833	0.3999
1.19	-9.7320	-0.3161	-1.3072	-0.0072	0.0116	-0.0013	19.1758	-8.1000	4.5403	0.5235	-0.4751	0.5834	0.3999
1.2	-9.7370	-0.3241	-1.3117	-0.0109	0.0055	0.0024	19.1623	-8.0202	4.4831	0.5235	-0.4751	0.5833	0.3999
1.21	-9.7246	-0.3284	-1.3069	-0.0116	0.0030	0.0027	19.0685	-8.1281	4.5474	0.5235	-0.4750	0.5833	0.4000
1.22	-9.7214	-0.3321	-1.3056	-0.0079	0.0070	-0.0017	18.9432	-8.0476	4.5891	0.5235	-0.4750	0.5833	0.4000
1.23	-9.7354	-0.3279	-1.3152	-0.0067	0.0076	0.0049	18.9089	-8.1828	4.3808	0.5235	-0.4750	0.5833	0.4000
1.24	-9.7323	-0.3249	-1.3051	-0.0031	0.0007	0.0045	19.0167	-8.0008	4.6241	0.5235	-0.4750	0.5833	0.4000
1.25	-9.7266	-0.3235	-1.3050	-0.0049	0.0104	-0.0039	18.9903	-8.2033	4.7073	0.5235	-0.4750	0.5833	0.4000
1.26	-9.7294	-0.3238	-1.3173	-0.0102	0.0136	-0.0044	19.0092	-7.9899	4.6395	0.5235	-0.4750	0.5833	0.4000
1.27	-9.7303	-0.3234	-1.3201	-0.0072	0.0107	-0.0013	18.9909	-7.9510	4.4799	0.5235	-0.4750	0.5833	0.4000
1.28	-9.7273	-0.3262	-1.3206	-0.0089	0.0056	-0.0043	19.0270	-7.9635	4.5334	0.5235	-0.4751	0.5833	0.4000
1.29	-9.7210	-0.3280	-1.3166	-0.0070	0.0045	0.0040	18.9404	-7.9712	4.5978	0.5235	-0.4750	0.5833	0.4000
1.3	-9.7373	-0.3243	-1.3172	-0.0072	0.0098	-0.0029	18.7241	-7.9453	4.6300	0.5235	-0.4750	0.5833	0.4000
1.31	-9.7338	-0.3243	-1.3111	-0.0074	0.0047	-0.0024	18.8538	-8.0793	4.8098	0.5235	-0.4750	0.5833	0.4000
1.32	-9.7308	-0.3246	-1.3020	-0.0100	0.0049	-0.0006	18.9396	-7.9993	4.4842	0.5235	-0.4750	0.5833	0.4000
1.33	-9.7379	-0.3234	-1.2991	-0.0067	0.0063	0.0012	18.9238	-8.1575	4.3947	0.5235	-0.4750	0.5833	0.4001
1.34	-9.7394	-0.3205	-1.3005	-0.0001	0.0125	0.0016	19.2539	-7.9363	4.4907	0.5235	-0.4750	0.5833	0.4000
1.35	-9.7221	-0.3104	-1.2978	-0.0034	0.0112	0.0013	19.2392	-8.0925	4.6447	0.5235	-0.4750	0.5833	0.4000
1.36	-9.7204	-0.3086	-1.2934	-0.0053	0.0123	-0.0004	19.2471	-8.3219	4.6751	0.5235	-0.4750	0.5834	0.4000
1.37	-9.7387	-0.3087	-1.3026	-0.0112	0.0098	-0.0005	18.9995	-8.1172	4.5611	0.5235	-0.4750	0.5834	0.4000
1.38	-9.7292	-0.3047	-1.2965	-0.0085	0.0094	-0.0007	19.0874	-8.0438	4.6266	0.5235	-0.4750	0.5833	0.4000
1.39	-9.7270	-0.3052	-1.2999	-0.0032	0.0072	0.0016	19.0649	-7.9550	4.5572	0.5235	-0.4750	0.5834	0.4000
1.4	-9.7357	-0.3073	-1.3053	-0.0060	0.0122	-0.0023	18.9785	-8.2526	4.6702	0.5235	-0.4750	0.5834	0.4000
1.41	-9.7308	-0.3125	-1.3128	-0.0054	0.0030	-0.0007	19.0097	-8.1216	4.6882	0.5235	-0.4750	0.5834	0.4000
1.42	-9.7231	-0.3113	-1.3097	-0.0059	0.0112	0.0041	18.9973	-8.1284	4.6064	0.5235	-0.4750	0.5834	0.4000
1.43	-9.7262	-0.3125	-1.3084	-0.0080	0.0087	-0.0011	19.1201	-8.1264	4.6810	0.5235	-0.4750	0.5834	0.4000
1.44	-9.7348	-0.3155	-1.3163	-0.0107	0.0079	-0.0025	19.0151	-8.1229	4.5495	0.5235	-0.4750	0.5834	0.4000
1.45	-9.7264	-0.3163	-1.3128	-0.0058	0.0064	-0.0033	18.9931	-8.1401	4.7085	0.5235	-0.4750	0.5834	0.4000
1.46	-9.7288	-0.3211	-1.3200	-0.0061	0.0062	-0.0034	18.9129	-8.0110	4.5621	0.5235	-0.4750	0.5833	0.4000
1.47	-9.7282	-0.3226	-1.3254	-0.0075	0.0025	-0.0043	19.0676	-7.9437	4.4487	0.5235	-0.4750	0.5833	0.4000
1.48	-9.7275	-0.3215	-1.3248	-0.0112	0.0022	0.0003	18.8514	-7.9768	4.3904	0.5235	-0.4750	0.5833	0.4001
1.49	-9.7259	-0.3200	-1.3208	-0.0118	0.0105	-0.0051	18.8397	-7.9537	4.5185	0.5235	-0.4751	0.5833	0.4001
1.5	-9.7334	-0.3196	-1.3241	-0.0087	0.0081	-0.0038	18.8443	-7.9829	4.4975	0.5235	-0.4751	0.5833	0.4001
1.51	-9.7343	-0.3258	-1.3195	-0.0083	0.0007	0.0047	19.0240	-7.9322	4.7017	0.5235	-0.4750	0.5833	0.4001
1.52	-9.7272	-0.3245	-1.3189	-0.0044	0.0039	-0.0024	18.8925	-8.0617	4.5889	0.5235	-0.4750	0.5833	0.4001
1.53	-9.7327	-0.3209	-1.3239	-0.0101	0.0107	-0.0032	19.0668	-8.1140	4.5066	0.5235	-0.4751	0.5832	0.4001
1.54	-9.7361	-0.3244	-1.3193	-0.0145	0.0089	-0.0038	19.1537	-8.0333	4.6375	0.5235	-0.4751	0.5832	0.4001
1.55	-9.7346	-0.3222	-1.3149	-0.0109	-0.0004	-0.0032	19.0516	-8.0147	4.5298	0.5235	-0.4751	0.5832	0.4001
1.56	-9.7275	-0.3172	-1.3112	-0.0083	0.0046	0.0012	19.1067	-8.2409	4.3983	0.5235	-0.4751	0.5832	0.4002
1.57	-9.7349	-0.3220	-1.3137	-0.0059	0.0053	-0.0029	18.9712	-8.2649	4.5870	0.5235	-0.4751	0.5832	0.4002
1.58	-9.7362	-0.3198	-1.3094	-0.0093	0.0047	0.0030	19.1936	-8.0597	4.5460	0.5235	-0.4751	0.5832	0.4002
1.59	-9.7253	-0.3187	-1.3017	-0.0053	0.0054	0.0017	19.0867	-8.1778	4.5462	0.5235	-0.4751	0.5832	0.4002
1.6	-9.7262	-0.3172	-1.3036	-0.0136	0.0043	-0.0029	18.8950	-7.9904	4.8380	0.5235	-0.4751	0.5831	0.4002
1.61	-9.7348	-0.3147	-1.3035	-0.0105	0.0083	0.0002	19.1862	-7.7211	4.6893	0.5235	-0.4751	0.5831	0.4002
1.62	-9.7280	-0.3199	-1.3028	-0.0090	0.0101	-0.0052	19.4959	-7.8896	4.9446	0.5235	-0.4751	0.5831	0.4002
1.63	-9.7282	-0.3195	-1.3015	-0.0129	0.0033	-0.0003	19.1457	-7.9902	4.6566	0.5235	-0.4751	0.5831	0.4002
1.64	-9.7369	-0.3230	-1.3028	-0.0075	0.0151	-0.0018	19.0282	-8.4010	4.7437	0.5235	-0.4751	0.5831	0.4002
1.65	-9.7229	-0.3208	-1.3042	-0.0063	0.0135	-0.0032	18.9504	-8.3019	4.7709	0.5235	-0.4751	0.5831	0.4002
1.66	-9.7237	-0.3191	-1.3026	-0.0053	0.0066	-0.0039	18.9058	-7.9876	4.5869	0.5235	-0.4751	0.5831	0.4002
1.67	-9.7368	-0.3221	-1.3159	-0.0133	0.0106	-0.0012	18.9471	-8.1587	4.8157	0.5235	-0.4752	0.5831	0.4002
1.68	-9.7296	-0.3157	-1.3168	-0.0096	0.0031	-0.0027	19.0722	-7.8304	4.6558	0.5235	-0.4752	0.5831	0.4002
1.69	-9.7259	-0.3191	-1.3056	-0.0027	0.0069	-0.0040	19.0739	-7.9572	4.5188	0.5235	-0.4752	0.5831	0.4002
1.7	-9.7332	-0.3189	-1.3166	-0.0091	0.0069	0.0032	18.9175	-7.9217	4.6880	0.5235	-0.4752	0.5831	0.4002
1.71	-9.7333	-0.3171	-1.3161	-0.0080	0.0046	-0.0008	18.9473	-8.1187	4.5188	0.5235	-0.4752	0.5831	0.4002
1.72	-9.7304	-0.3145	-1.3078	-0.0067	0.0052	0.0015	19.1052	-8.1590	4.4932	0.5235	-0.4752	0.5831	0.4003
1.73	-9.7340	-0.3152	-1.3150	-0.0051	0.0048	0.0024	19.0392	-7.9004	4.4552	0.5235	-0.4751	0.5831	0.4003
1.74	-9.7347	-0.3115	-1.3131	-0.0041	0.0132	-0.0009	19.0168	-8.0604	4.6136	0.5235	-0.4751	0.5831	0.4003
1.75	-9.7354	-0.3133	-1.3109	-0.0090	0.0109	-0.0001	19.0122	-8.1434	4.5046	0.5235	-0.4751	0.5831	0.4002
1.76	-9.7282	-0.3118	-1.3026	-0.0093	0.0066	0.0007	18.9006	-8.0546	4.3493	0.5235	-0.4752	0.5831	0.4003
1.77	-9.7343	-0.3101	-1.3150	-0.0075	0.0054	-0.0001	19.0500	-8.0285	4.4792	0.5235	-0.4751	0.5831	0.4003
1.78	-9.7340	-0.3142	-1.3132	-0.0071	0.0088	0.0013	18.9915	-8.0276	4.6168	0.5235	-0.4752	0.5831	0.4003
1.79	-9.7254	-0.3132	-1.3038	-0.0046	0.0093	0.0053	19.0800	-7.9200	4.6283	0.5235	-0.4751	0.5831	0.4003
1.8	-9.7307	-0.3150	-1.3080	-0.0050	0.0133	0.0003	19.0615	-7.9788	4.5481	0.5234	-0.4751	0.5831	0.4003
1.81	-9.7360	-0.3154	-1.3102	-0.0079	0.0178	-0.0024	18.9177	-7.8464	4.5695	0.5234	-0.4752	0.5831	0.4002
1.82	-9.7257	-0.3123	-1.3085	-0.0017	0.0186	-0.0035	18.9509	-8.0074	4.5824	0.5234	-0.4752	0.5832	0.4002
1.83	-9.7267	-0.3158	-1.3040	-0.0027	0.0174	-0.0040	18.9326	-8.0426	4.7024	0.5234	-0.4752	0.5832	0.4002
1.84	-9.7427	-0.3170	-1.3181	-0.0048	0.0201	0.0002	18.9482	-8.0308	4.5671	0.5234	-0.4752	0.5832	0.4001
1.85	-9.7268	-0.3203	-1.3154	-0.0084	0.0146	-0.0090	18.8589	-8.1256	4.4672	0.5234	-0.4753	0.5832	0.4001
1.86	-9.7233	-0.3163	-1.3091	-0.0048	0.0173	-0.0034	18.5844	-8.1402	4.7801	0.5233	-0.4753	0.5832	0.4001
1.87	-9.7350	-0.3216	-1.3183	-0.0097	0.0108	-0.0048	18.7356	-8.0686	4.6043	0.5233	-0.4753	0.5832	0.4000
1.88	-9.7415	-0.3118	-1.3179	-0.0061	0.0096	-0.0019	18.9441	-7.9461	4.5361	0.5233	-0.4753	0.5832	0.4000
1.89	-9.7305	-0.3077	-1.3088	-0.0030	0.0114	-0.0037	18.9760	-7.9417	4.7103	0.5233	-0.4753	0.5832	0.4000
1.9	-9.7378	-0.3165	-1.3197	-0.0047	0.0155	-0.0025	19.1454	-7.9934	4.5849	0.5233	-0.4753	0.5833	0.4000
1.91	-9.7407	-0.3165	-1.3193	-0.0044	0.0051	0.0019	19.0734	-8.0613	4.5771	0.5233	-0.4753	0.5833	0.4000
1.92	-9.7260	-0.3204	-1.3026	-0.0100	0.0064	0.0004	19.2058	-7.9170	4.5570	0.5233	-0.4753	0.5833	0.4000
1.93	-9.7278	-0.3258	-1.2994	-0.0038	0.0155	0.0013	19.0490	-8.1078	4.6139	0.5233	-0.4753	0.5833	0.4000
1.94	-9.7340	-0.3283	-1.3028	-0.0085	0.0037	0.0013	18.9653	-8.0825	4.6752	0.5233	-0.4753	0.5833	0.4000
1.95	-9.7302	-0.3393	-1.2996	-0.0121	0.0087	0.0001	18.9128	-7.9279	4.6514	0.5233	-0.4753	0.5833	0.4000
1.96	-9.7203	-0.3404	-1.3003	-0.0046	0.0037	-0.0008	18.9742	-7.9787	4.6488	0.5233	-0.4753	0.5833	0.4000
1.97	-9.7257	-0.3400	-1.3030	-0.0086	0.0051	-0.0007	18.8770	-8.0551	4.3571	0.5233	-0.4753	0.5833	0.4000
1.98	-9.7361	-0.3361	-1.3060	-0.0059	0.0094	-0.0004	18.9173	-8.0322	4.5277	0.5233	-0.4753	0.5833	0.4000
1.99	-9.7285	-0.3345	-1.3167	-0.0044	0.0115	-0.0019	19.0311	-7.9537	4.7104	0.5233	-0.4753	0.5833	0.4000
2	-9.7252	-0.3293	-1.3221	-0.0029	0.0138	-0.0033	18.9215	-8.0620	4.4599	0.5233	-0.4753	0.5833	0.4000
2.01	-9.7337	-0.3245	-1.3298	-0.0040	0.0097	-0.0093	19.1273	-8.1759	4.6155	0.5233	-0.4754	0.5833	0.3999
2.02	-9.7321	-0.3248	-1.3288	-0.0041	0.0132	-0.0059	19.0130	-7.9248	4.6808	0.5233	-0.4754	0.5833	0.3999
2.03	-9.7259	-0.3241	-1.3227	-0.0061	0.0121	-0.0012	19.0221	-7.8971	4.5492	0.5233	-0.4754	0.5833	0.3999
2.04	-9.7311	-0.3222	-1.3263	-0.0077	0.0124	-0.0047	19.0165	-7.9161	4.7007	0.5233	-0.4754	0.5833	0.3999
2.05	-9.7397	-0.3250	-1.3286	-0.0082	0.0038	-0.0028	19.0266	-7.9066	4.6228	0.5233	-0.4754	0.5833	0.3999
2.06	-9.7257	-0.3219	-1.3136	-0.0061	0.0065	-0.0044	18.9391	-7.9807	4.6902	0.5233	-0.4754	0.5833	0.3999
2.07	-9.7289	-0.3156	-1.3126	-0.0059	0.0069	0.0004	18.9261	-7.9359	4.6028	0.5233	-0.4754	0.5833	0.3999
2.08	-9.7361	-0.3108	-1.3113	-0.0058	0.0069	-0.0012	18.9806	-7.9653	4.5915	0.5233	-0.4754	0.5833	0.3999
2.09	-9.7293	-0.3066	-1.2963	-0.0064	0.0045	-0.0013	19.1069	-7.9340	4.7793	0.5234	-0.4754	0.5832	0.3999
2.1	-9.7283	-0.3019	-1.2890	-0.0064	0.0040	-0.0027	19.0102	-8.0594	4.5269	0.5234	-0.4754	0.5832	0.3999
2.11	-9.7371	-0.2992	-1.2935	-0.0056	0.0057	-0.0024	19.1523	-7.8708	4.8941	0.5234	-0.4754	0.5832	0.3999
2.12	-9.7335	-0.2994	-1.2908	-0.0069	0.0055	0.0044	19.3962	-7.9091	4.9048	0.5234	-0.4754	0.5832	0.3999
2.13	-9.7290	-0.2972	-1.2886	-0.0117	0.0075	0.0027	19.2647	-8.1631	4.8643	0.5234	-0.4754	0.5832	0.3999
2.14	-9.7295	-0.3008	-1.2937	-0.0053	0.0049	0.0002	19.0742	-8.4930	4.7765	0.5234	-0.4754	0.5832	0.3999
2.15	-9.7297	-0.2979	-1.3004	-0.0046	0.0036	-0.0007	19.0542	-8.7677	4.7269	0.5234	-0.4754	0.5832	0.3999
2.16	-9.7340	-0.2995	-1.3042	-0.0089	0.0058	0.0020	19.0517	-8.0970	4.6073	0.5234	-0.4754	0.5832	0.3999
2.17	-9.7272	-0.3037	-1.3034	-0.0113	0.0041	-0.0006	19.0890	-8.0420	4.4731	0.5234	-0.4754	0.5832	0.3999
2.18	-9.7252	-0.3028	-1.3074	-0.0088	0.0113	-0.0056	19.0609	-8.0822	4.6729	0.5234	-0.4754	0.5832	0.3999
2.19	-9.7340	-0.2997	-1.3129	-0.0083	0.0053	-0.0079	18.8812	-7.8481	4.8269	0.5234	-0.4754	0.5832	0.3999
2.2	-9.7310	-0.3102	-1.3202	-0.0053	0.0081	0.0013	19.0217	-7.8530	4.5383	0.5234	-0.4754	0.5832	0.3999
2.21	-9.7303	-0.3111	-1.3260	-0.0067	0.0183	-0.0040	18.8436	-8.0072	4.6355	0.5234	-0.4754	0.5832	0.3999
2.22	-9.7334	-0.3115	-1.3304	-0.0033	0.0113	-0.0032	18.9057	-8.1230	4.6230	0.5234	-0.4754	0.5832	0.3998
2.23	-9.7320	-0.3168	-1.3290	-0.0022	0.0095	-0.0066	19.0472	-7.9578	4.3506	0.5234	-0.4755	0.5832	0.3998
2.24	-9.7359	-0.3278	-1.3283	-0.0053	0.0099	-0.0035	18.8853	-8.1852	4.6270	0.5234	-0.4755	0.5832	0.3998
2.25	-9.7372	-0.3296	-1.3304	-0.0154	0.0144	-0.0034	18.9084	-7.8991	4.8089	0.5234	-0.4755	0.5832	0.3998
2.26	-9.7268	-0.3264	-1.3205	-0.0111	0.0054	0.0012	18.7615	-7.9493	4.6702	0.5234	-0.4755	0.5832	0.3998
2.27	-9.7308	-0.3301	-1.3240	-0.0062	0.0057	0.0055	19.0072	-8.1526	4.6939	0.5234	-0.4755	0.5832	0.3998
2.28	-9.7402	-0.3311	-1.3229	-0.0117	0.0049	-0.0002	19.1659	-7.9905	4.5425	0.5234	-0.4755	0.5832	0.3999
2.29	-9.7362	-0.3338	-1.3136	-0.0063	0.0072	-0.0018	18.8944	-8.0484	4.5216	0.5234	-0.4755	0.5832	0.3999
2.3	-9.7271	-0.3354	-1.3099	-0.0072	0.0113	-0.0041	18.9661	-8.0444	4.6262	0.5234	-0.4755	0.5832	0.3998
2.31	-9.7352	-0.3270	-1.3114	-0.0026	0.0008	-0.0004	19.0984	-8.3442	4.4888	0.5234	-0.4755	0.5832	0.3998
2.32	-9.7292	-0.3324	-1.3055	-0.0100	-0.0004	0.0011	19.1602	-8.0687	4.5130	0.5234	-0.4755	0.5831	0.3999
2.33	-9.7282	-0.3319	-1.3016	-0.0066	0.0089	-0.0029	19.0007	-8.1052	4.4983	0.5234	-0.4755	0.5831	0.3999
2.34	-9.7405	-0.3359	-1.3056	-0.0087	0.0115	0.0010	18.9851	-8.2595	4.4995	0.5234	-0.4755	0.5831	0.3999
2.35	-9.7328	-0.3364	-1.3009	-0.0059	0.0013	0.0033	19.0961	-7.9549	4.6039	0.5234	-0.4755	0.5831	0.3999
2.36	-9.7248	-0.3289	-1.2996	-0.0063	0.0065	-0.0033	19.0412	-8.1032	4.5753	0.5234	-0.4755	0.5831	0.3999
2.37	-9.7316	-0.3275	-1.3079	-0.0083	0.0055	-0.0011	18.9547	-8.0714	4.6131	0.5234	-0.4755	0.5831	0.3999
2.38	-9.7319	-0.3275	-1.3047	-0.0084	0.0021	-0.0005	19.1038	-7.9121	4.4752	0.5234	-0.4755	0.5831	0.3999
2.39	-9.7268	-0.3229	-1.3032	-0.0079	0.0044	-0.0035	19.0409	-8.0844	4.5334	0.5234	-0.4755	0.5831	0.3999
2.4	-9.7289	-0.3244	-1.3061	-0.0110	0.0089	0.0008	18.8187	-7.7680	4.7653	0.5234	-0.4755	0.5831	0.3999
2.41	-9.7295	-0.3235	-1.3076	-0.0028	0.0080	-0.0012	18.8322	-7.6606	4.6956	0.5234	-0.4755	0.5831	0.3999
2.42	-9.7336	-0.3210	-1.3080	0.0011	0.0131	0.0008	18.8305	-7.8977	4.4370	0.5234	-0.4755	0.5831	0.3999
2.43	-9.7282	-0.3156	-1.3056	-0.0020	0.0091	-0.0036	18.8473	-7.9932	4.4346	0.5235	-0.4755	0.5831	0.3999
2.44	-9.7294	-0.3162	-1.3065	-0.0058	0.0052	-0.0008	19.0079	-8.0413	4.5188	0.5235	-0.4755	0.5831	0.3999
2.45	-9.7364	-0.3166	-1.3123	0.0001	0.0070	0.0027	18.9181	-8.0254	4.5515	0.5235	-0.4755	0.5831	0.3999
2.46	-9.7292	-0.3130	-1.3177	0.0001	0.0020	0.0038	18.8025	-8.1281	4.7386	0.5235	-0.4754	0.5831	0.3999
2.47	-9.7261	-0.3121	-1.3138	-0.0067	0.0071	-0.0014	19.0114	-8.1304	4.7247	0.5235	-0.4754	0.5831	0.3999
2.48	-9.7373	-0.3102	-1.3129	-0.0088	0.0014	-0.0021	19.1690	-8.2896	4.3670	0.5235	-0.4754	0.5831	0.3999
2.49	-9.7339	-0.3082	-1.3187	-0.0066	0.0033	-0.0022	19.1473	-8.1913	4.7302	0.5235	-0.4754	0.5831	0.3999
2.5	-9.7267	-0.3079	-1.3083	-0.0054	0.0001	0.0016	19.1563	-7.9370	4.6337	0.5236	-0.4754	0.5831	0.3999
2.51	-9.7359	-0.3125	-1.3232	-0.0060	0.0064	0.0022	19.1324	-8.1893	4.5753	0.5236	-0.4754	0.5831	0.3999
2.52	-9.7346	-0.3134	-1.3174	-0.0055	0.0065	-0.0056	18.9022	-8.1139	4.5928	0.5236	-0.4754	0.5831	0.3999
2.53	-9.7259	-0.3081	-1.3178	-0.0058	-0.0014	0.0006	18.8207	-8.0439	4.6828	0.5236	-0.4754	0.5830	0.3999
2.54	-9.7313	-0.3117	-1.3129	-0.0061	-0.0002	0.0030	19.1147	-8.2350	4.3744	0.5236	-0.4753	0.5830	0.3999
2.55	-9.7374	-0.3096	-1.3134	-0.0095	0.0018	-0.0004	18.9803	-7.9422	4.5535	0.5236	-0.4753	0.5830	0.4000
2.56	-9.7318	-0.3109	-1.3131	-0.0118	0.0069	-0.0085	19.0907	-7.8612	4.6862	0.5236	-0.4753	0.5830	0.4000
2.57	-9.7321	-0.3142	-1.3057	-0.0056	0.0098	-0.0069	18.9290	-7.8636	4.5584	0.5237	-0.4754	0.5830	0.3999
2.58	-9.7374	-0.3148	-1.3115	-0.0097	0.0052	0.0021	18.9489	-7.8766	4.7652	0.5237	-0.4754	0.5830	0.4000
2.59	-9.7296	-0.3152	-1.3112	-0.0078	0.0022	-0.0042	19.0120	-8.1420	4.7501	0.5237	-0.4754	0.5829	0.4000
2.6	-9.7249	-0.3143	-1.3024	-0.0045	0.0029	0.0001	18.8806	-7.9918	4.8724	0.5237	-0.4754	0.5829	0.4000
2.61	-9.7337	-0.3122	-1.3105	-0.0081	0.0103	-0.0040	19.0637	-7.8233	4.6716	0.5237	-0.4754	0.5829	0.4000
2.62	-9.7348	-0.3203	-1.3129	-0.0044	0.0106	-0.0029	19.4771	-7.6645	4.7145	0.5237	-0.4754	0.5829	0.3999
2.63	-9.7204	-0.3177	-1.3056	-0.0101	0.0071	-0.0002	19.1835	-8.0178	4.6752	0.5237	-0.4754	0.5829	0.3999
2.64	-9.7220	-0.3257	-1.3066	-0.0079	0.0046	-0.0009	18.9418	-8.2518	4.5446	0.5237	-0.4754	0.5829	0.4000
2.65	-9.7329	-0.3231	-1.3029	-0.0102	0.0066	0.0006	18.8924	-8.4231	4.5384	0.5237	-0.4754	0.5829	0.4000
2.66	-9.7321	-0.3143	-1.3020	-0.0079	0.0074	-0.0002	18.8058	-8.0630	4.4450	0.5237	-0.4754	0.5829	0.4000
2.67	-9.7194	-0.3158	-1.2882	-0.0041	0.0070	0.0015	19.0866	-8.0380	4.6261	0.5237	-0.4754	0.5829	0.4000
2.68	-9.7434	-0.3079	-1.3051	-0.0074	0.0017	0.0013	18.9750	-8.0207	4.6334	0.5237	-0.4754	0.5829	0.4000
2.69	-9.7410	-0.3001	-1.3149	-0.0122	0.0068	-0.0033	19.1196	-7.7350	4.5402	0.5237	-0.4754	0.5829	0.4000
2.7	-9.7194	-0.2958	-1.3027	-0.0096	-0.0004	0.0012	19.0223	-7.9804	4.6550	0.5237	-0.4754	0.5829	0.4001
2.71	-9.7358	-0.2982	-1.3170	-0.0119	0.0076	-0.0007	18.9332	-8.0568	4.6930	0.5237	-0.4754	0.5828	0.4001
2.72	-9.7350	-0.3145	-1.3187	-0.0030	0.0075	-0.0027	18.9359	-7.8852	4.5756	0.5237	-0.4754	0.5828	0.4001
2.73	-9.7229	-0.3282	-1.3058	-0.0070	0.0017	-0.0023	19.0098	-7.9223	4.6506	0.5237	-0.4754	0.5828	0.4001
2.74	-9.7361	-0.3392	-1.3178	-0.0130	-0.0027	-0.0011	19.0386	-8.0887	4.6496	0.5237	-0.4754	0.5828	0.4001
2.75	-9.7345	-0.3469	-1.3118	-0.0065	0.0030	-0.0015	18.9013	-7.9911	4.5959	0.5238	-0.4754	0.5828	0.4001
2.76	-9.7241	-0.3428	-1.3049	-0.0054	0.0075	-0.0053	19.0087	-8.1656	4.8385	0.5238	-0.4754	0.5828	0.4001
2.77	-9.7307	-0.3421	-1.3141	-0.0019	0.0090	-0.0030	19.0381	-7.9327	4.6066	0.5238	-0.4754	0.5828	0.4001
2.78	-9.7414	-0.3341	-1.3286	-0.0001	0.0090	0.0002	18.9166	-8.0243	4.8149	0.5238	-0.4753	0.5828	0.4001
2.79	-9.7320	-0.3220	-1.3272	-0.0042	0.0134	0.0014	18.8295	-8.0945	4.6433	0.5238	-0.4753	0.5828	0.4000
2.8	-9.7281	-0.3241	-1.3233	-0.0052	0.0093	-0.0049	18.9517	-7.8943	4.5307	0.5238	-0.4754	0.5828	0.4000
2.81	-9.7360	-0.3200	-1.3288	-0.0106	0.0111	-0.0048	18.8668	-8.0856	4.6802	0.5238	-0.4754	0.5828	0.4000
2.82	-9.7279	-0.3284	-1.3194	-0.0095	0.0056	-0.0002	18.7488	-8.0356	4.6516	0.5238	-0.4754	0.5828	0.4000
2.83	-9.7302	-0.3278	-1.3144	-0.0024	0.0097	0.0010	19.0070	-8.0435	4.6599	0.5238	-0.4754	0.5828	0.4000
2.84	-9.7345	-0.3270	-1.3148	-0.0053	0.0046	-0.0016	19.0316	-8.1043	4.6811	0.5238	-0.4754	0.5828	0.4000
2.85	-9.7304	-0.3220	-1.3108	-0.0055	0.0049	-0.0019	18.9466	-8.2458	4.5435	0.5238	-0.4754	0.5828	0.4000
2.86	-9.7245	-0.3176	-1.2941	-0.0065	0.0044	-0.0031	18.9211	-7.9083	4.6297	0.5238	-0.4754	0.5828	0.4000
2.87	-9.7296	-0.3221	-1.2931	-0.0039	-0.0100	0.0001	19.0309	-8.1192	4.6303	0.5239	-0.4753	0.5827	0.4001
2.88	-9.7358	-0.3159	-1.2954	-0.0103	-0.0015	-0.0030	18.9429	-8.0572	4.4477	0.5239	-0.4753	0.5827	0.4001
2.89	-9.7321	-0.3048	-1.2923	-0.0052	-0.0052	0.0019	18.8643	-7.8331	4.7362	0.5239	-0.4753	0.5827	0.4001
2.9	-9.7227	-0.2965	-1.2862	0.0006	-0.0035	-0.0055	19.1197	-8.0772	4.7225	0.5240	-0.4753	0.5827	0.4001
2.91	-9.7300	-0.2883	-1.2948	-0.0057	0.0060	-0.0033	18.8325	-7.9552	4.5546	0.5240	-0.4753	0.5826	0.4001
2.92	-9.7461	-0.2933	-1.3122	-0.0072	-0.0000	0.0032	18.9811	-7.9797	4.5848	0.5240	-0.4752	0.5826	0.4001
2.93	-9.7299	-0.2851	-1.3238	-0.0085	-0.0001	-0.0008	19.0196	-7.9288	4.5542	0.5240	-0.4752	0.5826	0.4002
2.94	-9.7195	-0.2921	-1.3231	-0.0062	0.0080	-0.0020	18.8694	-8.0512	4.8449	0.5240	-0.4752	0.5826	0.4002
2.95	-9.7377	-0.3170	-1.3315	-0.0158	0.0058	-0.0023	18.7783	-8.0190	4.6761	0.5240	-0.4752	0.5826	0.4002
2.96	-9.7341	-0.3315	-1.3209	-0.0118	0.0084	-0.0048	18.8923	-8.2147	4.4291	0.5240	-0.4753	0.5826	0.4002
2.97	-9.7211	-0.3452	-1.3053	-0.0091	0.0090	-0.0042	18.8393	-7.9492	4.7096	0.5240	-0.4753	0.5825	0.4002
2.98	-9.7331	-0.3370	-1.3106	-0.0017	0.0035	0.0001	18.9400	-7.9363	4.7679	0.5240	-0.4753	0.5826	0.4002
2.99	-9.7380	-0.3332	-1.3100	-0.0024	0.0065	-0.0050	18.8687	-7.9512	4.6415	0.5240	-0.4753	0.5826	0.4002
3	-9.7365	-0.3137	-1.3179	-0.0025	0.0013	-0.0002	18.7368	-7.9317	4.6599	0.5241	-0.4752	0.5825	0.4002
3.01	-9.7325	-0.3133	-1.3228	-0.0088	-0.0012	0.0010	18.8624	-8.0483	4.6537	0.5241	-0.4752	0.5825	0.4002
3.02	-9.7361	-0.3137	-1.3229	-0.0083	0.0029	0.0009	18.8466	-7.9225	4.6688	0.5241	-0.4752	0.5825	0.4002
3.03	-9.7295	-0.3143	-1.3146	-0.0088	0.0040	-0.0008	18.9923	-7.9850	4.5410	0.5241	-0.4752	0.5825	0.4002
3.04	-9.7264	-0.3259	-1.3098	-0.0089	0.0126	0.0004	19.0005	-7.9635	4.6183	0.5241	-0.4752	0.5825	0.4002
3.05	-9.7354	-0.3240	-1.3114	-0.0050	0.0108	-0.0004	18.9161	-8.1524	4.6949	0.5241	-0.4752	0.5825	0.4002
3.06	-9.7330	-0.3268	-1.3106	-0.0028	-0.0001	0.0025	18.9713	-8.1153	4.5628	0.5241	-0.4752	0.5825	0.4002
3.07	-9.7265	-0.3229	-1.2997	-0.0083	0.0024	0.0004	18.8193	-7.9244	4.3375	0.5241	-0.4752	0.5825	0.4003
3.08	-9.7245	-0.3142	-1.3089	-0.0050	0.0032	0.0011	18.7782	-8.0136	4.4692	0.5241	-0.4752	0.5825	0.4003
3.09	-9.7384	-0.3113	-1.3159	-0.0032	0.0073	-0.0008	18.8453	-8.1410	4.4910	0.5241	-0.4752	0.5825	0.4003
3.1	-9.7342	-0.3057	-1.3066	-0.0069	0.0067	-0.0033	18.9879	-8.1174	4.4850	0.5241	-0.4752	0.5825	0.4003
3.11	-9.7287	-0.3051	-1.3064	-0.0029	0.0002	0.0007	19.2883	-8.0090	4.9238	0.5242	-0.4751	0.5825	0.4003
3.12	-9.7375	-0.3080	-1.3143	-0.0106	0.0026	-0.0009	19.6014	-7.8306	4.8857	0.5242	-0.4751	0.5825	0.4003
3.13	-9.7310	-0.3067	-1.3090	-0.0045	0.0063	-0.0018	19.2611	-7.8053	4.9540	0.5242	-0.4751	0.5825	0.4003
3.14	-9.7249	-0.3179	-1.2990	-0.0164	0.0021	-0.0023	18.8894	-8.1544	4.9264	0.5242	-0.4751	0.5825	0.4003
3.15	-9.7357	-0.3279	-1.2989	-0.0125	-0.0030	-0.0022	18.8794	-8.4340	4.8678	0.5242	-0.4751	0.5824	0.4003
3.16	-9.7380	-0.3391	-1.3063	-0.0098	0.0014	-0.0075	18.7014	-7.8799	4.7247	0.5242	-0.4751	0.5824	0.4003
3.17	-9.7245	-0.3533	-1.2997	-0.0098	0.0046	-0.0083	18.9660	-7.8843	4.7482	0.5242	-0.4752	0.5824	0.4003
3.18	-9.7303	-0.3566	-1.3108	-0.0081	0.0006	-0.0043	18.8839	-8.0041	4.6897	0.5242	-0.4752	0.5823	0.4003
3.19	-9.7332	-0.3571	-1.3230	-0.0071	0.0020	-0.0068	18.7817	-7.9387	4.4348	0.5243	-0.4752	0.5823	0.4003
3.2	-9.7310	-0.3521	-1.3298	-0.0076	0.0095	-0.0017	18.7345	-8.0620	4.5603	0.5243	-0.4752	0.5823	0.4003
3.21	-9.7284	-0.3518	-1.3249	-0.0084	-0.0020	-0.0000	19.0853	-8.2428	4.6927	0.5243	-0.4752	0.5823	0.4004
3.22	-9.7452	-0.3407	-1.3315	-0.0027	-0.0045	0.0010	18.8980	-8.2019	4.7525	0.5243	-0.4751	0.5823	0.4004
3.23	-9.7340	-0.3282	-1.3248	-0.0004	0.0099	0.0029	19.0523	-8.2321	4.4714	0.5243	-0.4751	0.5823	0.4004
3.24	-9.7254	-0.3136	-1.3140	-0.0040	0.0032	-0.0009	19.1972	-8.1004	4.4943	0.5243	-0.4751	0.5823	0.4004
3.25	-9.7324	-0.3008	-1.3154	0.0011	0.0044	-0.0027	19.0339	-8.3974	4.4611	0.5244	-0.4751	0.5823	0.4004
3.26	-9.7272	-0.2902	-1.2979	-0.0017	0.0036	0.0002	18.9708	-8.3071	4.5771	0.5244	-0.4751	0.5823	0.4004
3.27	-9.7370	-0.2754	-1.2987	-0.0052	0.0026	0.0009	18.8004	-8.3190	4.8023	0.5244	-0.4750	0.5823	0.4004
3.28	-9.7303	-0.2791	-1.2858	0.0020	-0.0055	0.0017	19.0731	-8.1602	4.4807	0.5244	-0.4750	0.5823	0.4004
3.29	-9.7329	-0.2879	-1.2845	-0.0083	0.0072	0.0019	19.1877	-8.1667	4.5483	0.5244	-0.4750	0.5823	0.4004
3.3	-9.7349	-0.3020	-1.2911	-0.0134	0.0063	-0.0001	18.9200	-8.2127	4.7813	0.5244	-0.4750	0.5823	0.4004
3.31	-9.7224	-0.3240	-1.2830	-0.0130	0.0045	-0.0012	18.8450	-8.3281	4.6284	0.5244	-0.4750	0.5822	0.4004
3.32	-9.7288	-0.3398	-1.2921	-0.0129	0.0114	-0.0029	18.8240	-8.1272	4.7942	0.5244	-0.4750	0.5822	0.4004
3.33	-9.7244	-0.3606	-1.2892	-0.0088	0.0168	-0.0036	19.0402	-8.0786	4.6490	0.5244	-0.4751	0.5823	0.4004
3.34	-9.7218	-0.3679	-1.2952	-0.0079	0.0130	0.0010	18.8352	-8.1040	4.7307	0.5243	-0.4751	0.5823	0.4004
3.35	-9.7381	-0.3580	-1.3200	-0.0061	0.0116	-0.0029	18.7673	-7.9201	4.7303	0.5243	-0.4751	0.5823	0.4004
3.36	-9.7310	-0.3529	-1.3122	0.0018	0.0097	-0.0025	18.8243	-8.1565	4.7526	0.5243	-0.4751	0.5823	0.4004
3.37	-9.7248	-0.2944	-1.3342	0.0010	0.0106	0.0010	18.7571	-8.0635	4.6703	0.5243	-0.4751	0.5823	0.4003
3.38	-9.7287	-0.2616	-1.3371	-0.0013	0.0119	0.0003	19.0549	-8.0436	4.6367	0.5243	-0.4751	0.5824	0.4003
3.39	-9.7471	-0.2443	-1.3357	0.0045	0.0089	-0.0007	18.8546	-8.1539	4.6645	0.5243	-0.4750	0.5824	0.4003
3.4	-9.7449	-0.2170	-1.3518	0.0005	0.0048	-0.0005	19.1817	-8.2903	4.6495	0.5244	-0.4750	0.5824	0.4003
3.41	-9.7156	-0.2430	-1.3209	-0.0062	0.0091	-0.0015	19.0121	-8.2305	4.6800	0.5244	-0.4750	0.5824	0.4003
3.42	-9.7572	-0.2523	-1.3448	-0.0065	0.0161	0.0005	19.0081	-8.2033	4.5364	0.5243	-0.4750	0.5824	0.4002
3.43	-9.7293	-0.2801	-1.3367	-0.0093	0.0100	-0.0020	19.0935	-8.2156	4.6169	0.5243	-0.4750	0.5824	0.4002
3.44	-9.7144	-0.3131	-1.3139	-0.0060	0.0108	-0.0018	18.9150	-8.2248	4.6676	0.5243	-0.4751	0.5825	0.4002
3.45	-9.7544	-0.3205	-1.3344	-0.0084	0.0059	-0.0019	18.9068	-8.1384	4.6572	0.5243	-0.4751	0.5825	0.4002
3.46	-9.7226	-0.3542	-1.3043	-0.0063	0.0008	-0.0001	19.1516	-8.1178	4.5340	0.5243	-0.4751	0.5824	0.4002
3.47	-9.7225	-0.3493	-1.2901	0.0017	0.0079	0.0021	18.9701	-8.1566	4.6280	0.5243	-0.4750	0.5825	0.4002
3.48	-9.7351	-0.3544	-1.2988	-0.0013	0.0061	0.0014	18.9477	-8.3195	4.6622	0.5243	-0.4750	0.5825	0.4002
3.49	-9.7256	-0.3505	-1.2889	-0.0067	0.0087	-0.0009	19.1329	-8.1959	4.6682	0.5243	-0.4750	0.5825	0.4002
3.5	-9.7293	-0.3334	-1.2900	-0.0059	0.0108	-0.0031	18.7951	-8.0004	4.7386	0.5243	-0.4750	0.5825	0.4002
3.51	-9.7238	-0.3315	-1.2880	-0.0029	0.0133	-0.0038	18.9633	-8.1070	4.5682	0.5243	-0.4750	0.5825	0.4002
3.52	-9.7264	-0.3218	-1.2984	-0.0054	0.0172	-0.0036	19.0345	-7.8621	4.5467	0.5243	-0.4751	0.5825	0.4001
3.53	-9.7372	-0.3206	-1.3098	-0.0014	0.0130	-0.0001	18.7924	-7.9092	4.5834	0.5243	-0.4751	0.5826	0.4001
3.54	-9.7267	-0.3320	-1.3113	-0.0040	0.0146	-0.0044	19.0240	-8.1264	4.4995	0.5242	-0.4751	0.5826	0.4001
3.55	-9.7269	-0.3354	-1.3199	-0.0055	0.0152	-0.0064	18.9402	-8.1457	4.5370	0.5242	-0.4751	0.5826	0.4000
3.56	-9.7324	-0.3441	-1.3266	-0.0074	0.0132	-0.0054	18.8416	-8.0451	4.5691	0.5242	-0.4751	0.5826	0.4000
3.57	-9.7254	-0.3499	-1.3100	-0.0055	0.0048	-0.0025	18.8201	-7.9471	4.6874	0.5242	-0.4751	0.5826	0.4000
3.58	-9.7317	-0.3493	-1.3162	-0.0060	0.0046	0.0006	18.9073	-7.9999	4.7288	0.5242	-0.4751	0.5826	0.4000
3.59	-9.7367	-0.3504	-1.3151	-0.0045	0.0099	-0.0011	19.1976	-8.2024	4.5307	0.5242	-0.4751	0.5826	0.4000
3.6	-9.7356	-0.3387	-1.3178	-0.0038	0.0069	0.0007	19.0533	-8.3179	4.6150	0.5242	-0.4751	0.5826	0.4000
3.61	-9.7256	-0.3296	-1.3080	-0.0113	0.0091	-0.0018	19.1229	-8.1435	4.7820	0.5242	-0.4751	0.5826	0.4000
3.62	-9.7327	-0.3166	-1.3099	-0.0028	0.0097	0.0049	19.6209	-8.0926	4.7190	0.5242	-0.4751	0.5827	0.4000
3.63	-9.7422	-0.3021	-1.3114	-0.0070	0.0058	0.0024	19.4499	-7.9666	4.6610	0.5242	-0.4751	0.5827	0.4000
3.64	-9.7269	-0.2981	-1.3015	-0.0030	0.0033	-0.0003	18.8965	-8.2453	4.6061	0.5242	-0.4751	0.5827	0.4000
3.65	-9.7291	-0.2894	-1.3040	-0.0052	0.0036	-0.0003	18.8990	-8.3079	4.4910	0.5242	-0.4751	0.5827	0.4000
3.66	-9.7382	-0.2985	-1.3026	-0.0057	0.0028	0.0002	18.9391	-8.0184	4.3993	0.5242	-0.4751	0.5827	0.4000
3.67	-9.7278	-0.2993	-1.3058	-0.0045	0.0050	0.0021	18.9777	-8.1479	4.5333	0.5242	-0.4750	0.5827	0.4000
3.68	-9.7269	-0.3042	-1.3010	-0.0079	0.0097	-0.0011	18.7743	-7.8980	4.6568	0.5242	-0.4751	0.5827	0.4000
3.69	-9.7370	-0.3136	-1.3103	-0.0054	0.0110	-0.0004	18.8620	-7.8894	4.8846	0.5242	-0.4751	0.5827	0.4000
3.7	-9.7283	-0.3157	-1.3056	-0.0018	0.0064	-0.0033	18.7709	-8.2693	4.7862	0.5242	-0.4751	0.5827	0.4000
3.71	-9.7272	-0.3220	-1.3010	-0.0071	0.0073	-0.0042	18.8211	-8.2554	4.6538	0.5242	-0.4751	0.5827	0.4000
3.72	-9.7369	-0.3242	-1.3126	-0.0065	0.0133	-0.0078	18.9942	-7.9816	4.7605	0.5242	-0.4751	0.5827	0.3999
3.73	-9.7351	-0.3210	-1.3207	-0.0135	0.0074	-0.0035	19.1349	-8.0901	4.7369	0.5242	-0.4751	0.5827	0.3999
3.74	-9.7285	-0.3219	-1.3142	-0.0056	0.0030	-0.0025	18.9026	-7.9424	4.5610	0.5242	-0.4751	0.5827	0.4000
3.75	-9.7358	-0.3164	-1.3274	-0.0127	0.0043	-0.0037	18.7926	-8.1027	4.7668	0.5242	-0.4751	0.5827	0.4000
3.76	-9.7392	-0.3123	-1.3296	-0.0107	-0.0039	0.0035	18.8687	-7.9952	4.7399	0.5242	-0.4751	0.5827	0.4000
3.77	-9.7320	-0.3096	-1.3177	-0.0035	0.0014	0.0015	18.9510	-7.8799	4.5703	0.5242	-0.4751	0.5827	0.4000
3.78	-9.7285	-0.3111	-1.3180	-0.0064	0.0082	-0.0040	19.0043	-7.9804	4.7292	0.5242	-0.4751	0.5827	0.4000
3.79	-9.7376	-0.3112	-1.3256	-0.0053	0.0051	-0.0001	18.9922	-8.1194	4.6399	0.5242	-0.4751	0.5827	0.4000
3.8	-9.7423	-0.3115	-1.3224	-0.0041	0.0086	-0.0073	19.1853	-8.3441	4.6020	0.5242	-0.4751	0.5827	0.4000
3.81	-9.7241	-0.3161	-1.3124	0.0004	0.0075	-0.0083	18.8979	-8.1015	4.6136	0.5242	-0.4751	0.5827	0.3999
3.82	-9.7343	-0.3179	-1.3186	-0.0043	0.0070	0.0013	19.1980	-7.9414	4.5970	0.5242	-0.4751	0.5827	0.3999
3.83	-9.7377	-0.3218	-1.3231	-0.0066	0.0111	-0.0027	18.9806	-8.1459	4.6157	0.5242	-0.4751	0.5827	0.3999
3.84	-9.7263	-0.3223	-1.3157	-0.0014	0.0080	0.0015	18.9291	-8.0706	4.5979	0.5242	-0.4751	0.5827	0.3999
3.85	-9.7344	-0.3189	-1.3100	0.0046	0.0030	-0.0018	18.9705	-8.0170	4.5176	0.5242	-0.4751	0.5827	0.3999
3.86	-9.7377	-0.3226	-1.3127	-0.0039	0.0116	-0.0044	18.9124	-8.1219	4.6393	0.5242	-0.4751	0.5827	0.3999
3.87	-9.7230	-0.3158	-1.2996	-0.0100	0.0097	-0.0031	18.8298	-8.0786	4.7843	0.5242	-0.4751	0.5827	0.3999
3.88	-9.7253	-0.3145	-1.3025	-0.0006	0.0089	-0.0007	18.9653	-8.0404	4.7563	0.5242	-0.4751	0.5828	0.3998
3.89	-9.7392	-0.3151	-1.3101	-0.0026	0.0128	-0.0033	18.9188	-8.2570	4.8329	0.5242	-0.4751	0.5828	0.3998
3.9	-9.7325	-0.3136	-1.3008	-0.0040	0.0113	-0.0061	18.8430	-8.0457	4.6456	0.5242	-0.4751	0.5828	0.3998
3.91	-9.7300	-0.3119	-1.2946	-0.0082	0.0113	-0.0055	18.8846	-8.0583	4.6501	0.5242	-0.4752	0.5828	0.3997
3.92	-9.7365	-0.3187	-1.3021	-0.0087	0.0064	-0.0066	18.8446	-8.0541	4.8021	0.5242	-0.4752	0.5828	0.3997
3.93	-9.7303	-0.3168	-1.3025	-0.0101	0.0035	-0.0015	18.7766	-8.0497	4.5188	0.5242	-0.4752	0.5828	0.3997
3.94	-9.7241	-0.3158	-1.2969	-0.0095	0.0068	-0.0007	18.7843	-8.0932	4.9113	0.5242	-0.4752	0.5828	0.3998
3.95	-9.7256	-0.3252	-1.3038	-0.0028	0.0072	0.0010	18.7766	-8.2506	4.6711	0.5242	-0.4752	0.5828	0.3998
3.96	-9.7341	-0.3203	-1.3039	-0.0061	0.0113	0.0032	18.9880	-8.1844	4.7204	0.5241	-0.4752	0.5828	0.3997
3.97	-9.7367	-0.3229	-1.3048	-0.0067	0.0085	0.0022	18.9145	-7.9784	4.6276	0.5241	-0.4752	0.5828	0.3997
3.98	-9.7259	-0.3196	-1.3096	-0.0099	0.0045	-0.0006	19.0217	-8.2123	4.6168	0.5241	-0.4752	0.5828	0.3998
3.99	-9.7341	-0.3217	-1.3093	-0.0084	0.0066	0.0031	19.1197	-8.2196	4.5002	0.5241	-0.4752	0.5828	0.3998
4	-9.7347	-0.3443	-1.2944	-0.0052	0.0101	0.0010	19.0005	-8.2075	4.5677	0.5241	-0.4752	0.5828	0.3998
4.01	-9.7208	-0.3422	-1.2955	-0.0049	0.0103	0.0011	18.8774	-8.2327	4.5993	0.5241	-0.4752	0.5829	0.3998
4.02	-9.7338	-0.3326	-1.2951	-0.0030	0.0049	-0.0056	18.8626	-8.1545	4.6969	0.5241	-0.4752	0.5829	0.3997
4.03	-9.7456	-0.3540	-1.2962	-0.0096	0.0089	0.0004	18.9490	-7.9160	4.7605	0.5241	-0.4752	0.5829	0.3998
4.04	-9.7155	-0.3439	-1.2920	-0.0050	0.0058	-0.0015	18.8264	-8.1862	4.7067	0.5241	-0.4752	0.5829	0.3998
4.05	-9.7125	-0.3055	-1.3298	0.0014	0.0131	-0.0022	18.9318	-8.1853	4.8215	0.5241	-0.4752	0.5829	0.3997
4.06	-9.7750	-0.2989	-1.3502	-0.0021	0.0148	0.0019	18.9668	-8.0193	4.6731	0.5240	-0.4752	0.5829	0.3997
4.07	-9.7209	-0.3099	-1.3321	-0.0071	0.0120	-0.0011	18.9039	-7.9675	4.7996	0.5240	-0.4752	0.5830	0.3997
4.08	-9.7181	-0.3127	-1.3195	-0.0089	0.0190	-0.0055	18.8596	-7.9697	4.7704	0.5240	-0.4752	0.5830	0.3996
4.09	-9.7424	-0.3211	-1.3557	-0.0120	0.0148	-0.0064	18.8485	-7.9716	4.7641	0.5240	-0.4753	0.5830	0.3996
4.1	-9.7433	-0.3208	-1.3595	-0.0063	0.0066	-0.0060	18.8910	-8.0564	4.8010	0.5240	-0.4753	0.5830	0.3996
4.11	-9.7279	-0.2944	-1.3377	-0.0031	0.0104	-0.0059	19.1877	-8.0655	5.0085	0.5240	-0.4753	0.5830	0.3996
4.12	-9.7269	-0.2941	-1.3295	-0.0021	0.0134	-0.0094	19.3996	-7.9726	4.9175	0.5240	-0.4753	0.5830	0.3995
4.13	-9.7431	-0.2817	-1.3337	-0.0055	0.0125	-0.0022	19.2427	-8.1145	4.8710	0.5240	-0.4753	0.5830	0.3995
4.14	-9.7312	-0.2882	-1.3085	-0.0076	0.0041	0.0046	18.9411	-8.2819	4.5761	0.5239	-0.4753	0.5830	0.3995
4.15	-9.7292	-0.2869	-1.2935	-0.0107	0.0109	0.0000	19.0201	-8.5083	4.5253	0.5239	-0.4753	0.5831	0.3995
4.16	-9.7371	-0.2957	-1.2896	-0.0113	0.0028	-0.0015	18.8742	-8.1747	4.6758	0.5239	-0.4754	0.5830	0.3995
4.17	-9.7305	-0.3075	-1.2756	-0.0108	0.0052	-0.0007	19.0247	-8.4126	4.5374	0.5239	-0.4754	0.5830	0.3995
4.18	-9.7258	-0.3139	-1.2754	-0.0081	0.0093	-0.0049	19.1027	-8.0383	4.4820	0.5239	-0.4754	0.5830	0.3995
4.19	-9.7252	-0.3272	-1.2726	-0.0066	0.0077	-0.0005	19.0110	-8.1560	4.6198	0.5239	-0.4754	0.5830	0.3995
4.2	-9.7299	-0.3254	-1.2762	-0.0064	0.0081	0.0011	18.9937	-8.1563	4.4320	0.5239	-0.4754	0.5830	0.3995
4.21	-9.7303	-0.3248	-1.2793	-0.0058	0.0080	-0.0023	18.8939	-7.8918	4.6240	0.5239	-0.4754	0.5830	0.3995
4.22	-9.7242	-0.3266	-1.2849	-0.0090	0.0089	-0.0059	18.7962	-8.0098	4.4262	0.5239	-0.4754	0.5830	0.3995
4.23	-9.7300	-0.3244	-1.3061	-0.0055	0.0113	-0.0017	18.9204	-8.1189	4.4214	0.5238	-0.4754	0.5831	0.3995
4.24	-9.7329	-0.3296	-1.3219	-0.0041	0.0109	-0.0031	18.9865	-8.0351	4.5985	0.5238	-0.4754	0.5831	0.3995
4.25	-9.7267	-0.3292	-1.3158	-0.0053	0.0117	-0.0077	18.9129	-8.0316	4.4067	0.5238	-0.4755	0.5831	0.3994
4.26	-9.7294	-0.3269	-1.3248	-0.0088	0.0054	-0.0049	18.8979	-8.0413	4.5602	0.5238	-0.4755	0.5831	0.3994
4.27	-9.7409	-0.3333	-1.3318	-0.0103	0.0154	-0.0016	18.9511	-8.0317	4.5464	0.5238	-0.4755	0.5831	0.3994
4.28	-9.7236	-0.3319	-1.3285	-0.0097	0.0126	-0.0023	18.8463	-8.0457	4.5818	0.5238	-0.4755	0.5831	0.3994
4.29	-9.7319	-0.3277	-1.3281	-0.0094	0.0002	0.0013	18.6528	-7.8819	4.4857	0.5238	-0.4755	0.5831	0.3995
4.3	-9.7485	-0.3382	-1.3388	-0.0063	0.0083	-0.0031	18.8449	-7.9210	4.5126	0.5238	-0.4755	0.5831	0.3994
4.31	-9.7217	-0.3187	-1.3273	-0.0084	0.0060	-0.0040	18.8508	-8.0618	4.5893	0.5238	-0.4755	0.5831	0.3994
4.32	-9.7376	-0.3222	-1.3268	-0.0052	0.0055	0.0022	18.8835	-8.0206	4.5242	0.5238	-0.4755	0.5831	0.3995
4.33	-9.7344	-0.3231	-1.3230	-0.0073	0.0027	0.0013	18.8895	-8.0739	4.6027	0.5238	-0.4755	0.5831	0.3995
4.34	-9.7268	-0.3137	-1.3102	-0.0039	0.0053	-0.0003	19.1263	-8.2140	4.4568	0.5238	-0.4755	0.5831	0.3995
4.35	-9.7326	-0.3084	-1.3102	0.0023	0.0076	-0.0009	18.9661	-8.1815	4.4191	0.5238	-0.4755	0.5831	0.3994
4.36	-9.7405	-0.3047	-1.3141	-0.0098	0.0086	-0.0068	18.8764	-8.2371	4.5753	0.5238	-0.4755	0.5831	0.3994
4.37	-9.7274	-0.3014	-1.2973	-0.0132	0.0001	0.0072	18.8169	-8.1091	4.4097	0.5238	-0.4755	0.5831	0.3995
4.38	-9.7321	-0.3040	-1.2953	-0.0033	-0.0004	0.0004	18.8502	-8.2234	4.6022	0.5238	-0.4755	0.5831	0.3995
4.39	-9.7396	-0.3132	-1.3018	-0.0128	0.0083	-0.0028	18.8211	-8.1631	4.4145	0.5238	-0.4755	0.5831	0.3995
4.4	-9.7311	-0.3099	-1.2909	-0.0086	0.0048	-0.0015	19.0341	-7.9793	4.5496	0.5238	-0.4755	0.5831	0.3995
4.41	-9.7214	-0.3193	-1.2821	-0.0063	0.0051	0.0026	19.1040	-8.1183	4.5576	0.5238	-0.4755	0.5831	0.3995
4.42	-9.7249	-0.3271	-1.2819	-0.0090	0.0048	0.0017	18.9688	-8.1369	4.5832	0.5237	-0.4755	0.5831	0.3995
4.43	-9.7305	-0.3317	-1.2944	-0.0097	0.0079	-0.0059	19.0123	-7.9378	4.5040	0.5237	-0.4755	0.5831	0.3995
4.44	-9.7275	-0.3372	-1.3055	-0.0085	0.0168	-0.0026	18.9767	-7.8718	4.5043	0.5237	-0.4755	0.5831	0.3995
4.45	-9.7324	-0.3344	-1.3085	-0.0119	0.0112	-0.0085	19.0241	-8.1476	4.6052	0.5237	-0.4756	0.5831	0.3995
4.46	-9.7341	-0.3289	-1.3041	-0.0073	0.0080	-0.0073	18.8537	-8.1107	4.4079	0.5237	-0.4756	0.5831	0.3995
4.47	-9.7334	-0.3173	-1.3115	-0.0118	0.0032	-0.0070	18.7411	-8.1134	4.5709	0.5237	-0.4756	0.5830	0.3995
4.48	-9.7282	-0.3105	-1.3111	-0.0115	0.0014	-0.0040	18.9566	-7.9180	4.7042	0.5237	-0.4756	0.5830	0.3995
4.49	-9.7297	-0.3147	-1.3180	-0.0090	0.0101	-0.0030	18.7233	-8.0810	4.4088	0.5237	-0.4757	0.5830	0.3995
4.5	-9.7360	-0.3212	-1.3297	-0.0067	0.0109	-0.0033	18.6631	-7.9829	4.5286	0.5237	-0.4757	0.5830	0.3995
4.51	-9.7265	-0.3295	-1.3323	-0.0019	0.0053	0.0029	18.6980	-8.0073	4.5150	0.5237	-0.4757	0.5830	0.3995
4.52	-9.7228	-0.3278	-1.3289	-0.0073	0.0056	0.0039	18.9261	-8.0417	4.3685	0.5237	-0.4756	0.5830	0.3995
4.53	-9.7405	-0.3230	-1.3395	-0.0077	0.0047	-0.0015	19.0980	-8.1382	4.4874	0.5237	-0.4756	0.5830	0.3995
4.54	-9.7411	-0.3225	-1.3385	-0.0069	0.0071	-0.0005	19.2180	-8.2094	4.3498	0.5237	-0.4756	0.5830	0.3995
4.55	-9.7238	-0.3188	-1.3288	-0.0104	0.0073	0.0011	19.0105	-8.2064	4.4623	0.5236	-0.4756	0.5830	0.3995
4.56	-9.7336	-0.3140	-1.3171	-0.0087	0.0012	0.0000	18.9253	-8.1029	4.5690	0.5236	-0.4756	0.5830	0.3996
4.57	-9.7417	-0.3106	-1.3248	-0.0020	0.0123	0.0004	18.9653	-8.2572	4.6791	0.5236	-0.4756	0.5830	0.3996
4.58	-9.7286	-0.3190	-1.3136	-0.0049	0.0061	0.0016	18.7743	-8.0871	4.6044	0.5236	-0.4756	0.5831	0.3996
4.59	-9.7236	-0.3207	-1.3054	-0.0057	0.0061	-0.0078	18.9264	-8.0104	4.4431	0.5236	-0.4756	0.5830	0.3995
4.6	-9.7351	-0.3288	-1.3103	-0.0003	0.0097	-0.0014	18.9250	-8.1393	4.5969	0.5237	-0.4756	0.5831	0.3995
4.61	-9.7265	-0.3325	-1.3006	-0.0070	0.0115	-0.0006	19.0014	-7.9848	4.7885	0.5236	-0.4756	0.5831	0.3995
4.62	-9.7268	-0.3282	-1.2977	0.0027	0.0159	-0.0023	19.2377	-7.8768	4.6653	0.5236	-0.4756	0.5831	0.3995
4.63	-9.7325	-0.3315	-1.3050	-0.0060	0.0113	-0.0016	19.2969	-7.9887	4.7881	0.5236	-0.4756	0.5831	0.3994
4.64	-9.7346	-0.3367	-1.3134	-0.0050	0.0158	-0.0066	19.0402	-8.1539	4.6362	0.5236	-0.4757	0.5831	0.3994
4.65	-9.7390	-0.3182	-1.3048	-0.0064	0.0126	-0.0033	18.9723	-8.3306	4.5542	0.5236	-0.4757	0.5832	0.3994
4.66	-9.7285	-0.3132	-1.3009	-0.0069	0.0126	-0.0066	18.7318	-8.0597	4.6927	0.5236	-0.4757	0.5832	0.3994
4.67	-9.7252	-0.3026	-1.2947	-0.0045	0.0170	-0.0010	18.7960	-8.0460	4.6752	0.5236	-0.4757	0.5832	0.3993
4.68	-9.7338	-0.2930	-1.3051	-0.0049	0.0118	-0.0014	18.8358	-8.0503	4.6854	0.5235	-0.4757	0.5832	0.3993
4.69	-9.7246	-0.2904	-1.2976	-0.0118	0.0125	-0.0050	18.9075	-8.0639	4.6818	0.5235	-0.4758	0.5832	0.3993
4.7	-9.7281	-0.2945	-1.2918	-0.0048	0.0140	0.0027	18.9271	-7.9661	4.6767	0.5235	-0.4758	0.5832	0.3993
4.71	-9.7375	-0.3011	-1.3035	-0.0056	0.0153	0.0032	18.9354	-7.8693	4.7920	0.5235	-0.4758	0.5833	0.3993
4.72	-9.7353	-0.3103	-1.3060	-0.0039	0.0090	0.0050	19.0252	-8.1869	4.7400	0.5234	-0.4757	0.5833	0.3993
4.73	-9.7239	-0.3266	-1.3030	-0.0058	0.0099	-0.0013	19.0084	-7.9623	4.6001	0.5234	-0.4757	0.5833	0.3993
4.74	-9.7383	-0.3345	-1.3156	0.0000	0.0060	-0.0007	18.9199	-8.0509	4.5003	0.5235	-0.4757	0.5833	0.3993
4.75	-9.7340	-0.3368	-1.3181	-0.0060	0.0066	-0.0021	19.0569	-8.1602	4.6372	0.5235	-0.4757	0.5833	0.3993
4.76	-9.7299	-0.3360	-1.3158	-0.0055	0.0150	-0.0000	18.9175	-8.1060	4.5615	0.5234	-0.4757	0.5833	0.3992
4.77	-9.7356	-0.3193	-1.3261	-0.0069	0.0102	0.0038	19.0177	-8.1590	4.7082	0.5234	-0.4757	0.5834	0.3993
4.78	-9.7356	-0.3110	-1.3220	-0.0039	0.0109	-0.0006	18.9778	-8.0882	4.6597	0.5234	-0.4757	0.5834	0.3992
4.79	-9.7277	-0.3038	-1.3205	-0.0048	0.0103	0.0004	18.8084	-8.0749	4.5936	0.5234	-0.4757	0.5834	0.3992
4.8	-9.7341	-0.2981	-1.3236	-0.0060	0.0139	0.0041	18.8554	-7.9260	4.7949	0.5234	-0.4757	0.5834	0.3992
4.81	-9.7341	-0.2938	-1.3210	-0.0057	0.0139	-0.0018	18.8457	-7.7806	4.6573	0.5233	-0.4757	0.5835	0.3992
4.82	-9.7297	-0.3002	-1.3140	-0.0069	0.0078	-0.0053	18.8260	-7.9196	4.6865	0.5233	-0.4757	0.5835	0.3992
4.83	-9.7318	-0.3061	-1.3115	0.0021	0.0116	-0.0101	18.9061	-8.0435	4.6745	0.5234	-0.4758	0.5835	0.3992
4.84	-9.7366	-0.3204	-1.3108	-0.0059	0.0151	-0.0015	18.9215	-7.9895	4.6939	0.5233	-0.4758	0.5835	0.3991
4.85	-9.7277	-0.3279	-1.3058	-0.0103	0.0100	-0.0060	18.9500	-7.8548	4.6585	0.5233	-0.4758	0.5835	0.3991
4.86	-9.7249	-0.3218	-1.3110	-0.0010	0.0032	-0.0024	18.8591	-8.1708	4.7305	0.5234	-0.4758	0.5835	0.3991
4.87	-9.7439	-0.3268	-1.3281	-0.0052	0.0154	-0.0066	18.9061	-8.0454	4.7868	0.5234	-0.4758	0.5835	0.3991
4.88	-9.7344	-0.3227	-1.3143	-0.0034	0.0167	-0.0023	18.9151	-8.0718	4.7657	0.5233	-0.4758	0.5835	0.3990
4.89	-9.7263	-0.3111	-1.3132	-0.0066	0.0018	-0.0012	18.8643	-7.8991	4.7638	0.5233	-0.4758	0.5835	0.3991
4.9	-9.7401	-0.3138	-1.3250	-0.0047	0.0086	-0.0031	18.8941	-7.9532	4.6032	0.5234	-0.4758	0.5835	0.3990
4.91	-9.7385	-0.3118	-1.3285	-0.0088	0.0060	0.0017	18.8835	-8.1717	4.5912	0.5233	-0.4758	0.5835	0.3991
4.92	-9.7236	-0.3132	-1.3181	-0.0029	0.0059	-0.0016	19.0390	-8.0182	4.6112	0.5234	-0.4758	0.5835	0.3991
4.93	-9.7286	-0.3191	-1.3194	-0.0102	0.0052	-0.0001	19.0099	-8.1819	4.4410	0.5233	-0.4758	0.5835	0.3991
4.94	-9.7414	-0.3215	-1.3211	-0.0087	0.0034	-0.0028	19.1637	-7.8450	4.4563	0.5234	-0.4758	0.5835	0.3991
4.95	-9.7309	-0.3232	-1.3105	-0.0004	0.0063	0.0004	18.8893	-8.0538	4.6323	0.5234	-0.4758	0.5835	0.3991
4.96	-9.7253	-0.3243	-1.3037	-0.0065	0.0108	-0.0009	18.8813	-8.2439	4.3543	0.5234	-0.4758	0.5835	0.3991
4.97	-9.7415	-0.3256	-1.3101	-0.0054	0.0096	-0.0049	18.9195	-8.0541	4.3552	0.5234	-0.4758	0.5835	0.3991
4.98	-9.7323	-0.3161	-1.2982	-0.0060	0.0022	0.0028	18.8040	-8.0421	4.5226	0.5234	-0.4758	0.5835	0.3991
4.99	-9.7258	-0.3151	-1.2952	-0.0072	0.0107	-0.0002	18.9708	-8.0676	4.4888	0.5234	-0.4758	0.5835	0.3991
5	-9.7297	-0.3118	-1.2995	-0.0060	0.0098	-0.0046	18.8826	-8.0055	4.6746	0.5234	-0.4758	0.5835	0.3991
5.01	-9.7362	-0.3085	-1.3000	-0.0046	0.0072	-0.0036	18.8269	-7.9921	4.8194	0.5234	-0.4758	0.5835	0.3991
5.02	-9.7301	-0.3108	-1.3021	-0.0079	0.0064	-0.0033	18.8604	-8.1596	4.6647	0.5234	-0.4758	0.5835	0.3991
5.03	-9.7259	-0.3085	-1.3053	-0.0100	0.0128	-0.0016	18.7370	-8.0288	4.6937	0.5233	-0.4758	0.5835	0.3991
5.04	-9.7338	-0.3217	-1.3036	-0.0076	0.0095	-0.0089	18.9278	-8.0605	4.8113	0.5233	-0.4758	0.5835	0.3990
5.05	-9.7244	-0.3316	-1.3015	-0.0039	0.0112	-0.0055	18.8951	-8.0441	4.6869	0.5233	-0.4758	0.5835	0.3990
5.06	-9.7298	-0.3432	-1.3074	-0.0048	0.0108	-0.0048	19.0440	-8.0461	4.6840	0.5234	-0.4759	0.5835	0.3990
5.07	-9.7361	-0.3520	-1.3136	-0.0045	0.0085	-0.0004	19.0488	-8.1595	4.6887	0.5234	-0.4759	0.5835	0.3990
5.08	-9.7321	-0.3544	-1.3142	-0.0029	0.0084	-0.0001	18.8770	-8.0951	4.4900	0.5234	-0.4758	0.5835	0.3990
5.09	-9.7306	-0.3515	-1.3164	-0.0045	0.0098	-0.0010	19.0314	-8.2376	4.2934	0.5233	-0.4758	0.5835	0.3990
5.1	-9.7328	-0.3457	-1.3238	0.0006	0.0119	-0.0048	18.9223	-8.0865	4.5752	0.5234	-0.4758	0.5835	0.3989
5.11	-9.7370	-0.3405	-1.3275	-0.0063	0.0059	0.0032	19.2936	-7.9389	4.8569	0.5234	-0.4758	0.5836	0.3989
5.12	-9.7336	-0.3310	-1.3289	-0.0083	0.0048	0.0031	19.3586	-8.1481	4.9087	0.5234	-0.4758	0.5836	0.3990
5.13	-9.7335	-0.3265	-1.3329	-0.0082	0.0063	-0.0015	19.3647	-8.2004	4.8769	0.5234	-0.4758	0.5835	0.3990
5.14	-9.7391	-0.3199	-1.3356	-0.0052	0.0031	0.0028	19.1239	-8.4003	4.6908	0.5234	-0.4758	0.5835	0.3990
5.15	-9.7377	-0.3109	-1.3362	-0.0050	0.0050	-0.0054	19.0769	-8.6960	4.4398	0.5234	-0.4758	0.5835	0.3990
5.16	-9.7307	-0.3080	-1.3289	-0.0007	0.0018	-0.0016	18.9718	-8.2361	4.6714	0.5234	-0.4757	0.5835	0.3990
5.17	-9.7335	-0.3002	-1.3323	0.0018	0.0122	-0.0011	19.1169	-7.9578	4.5458	0.5234	-0.4757	0.5836	0.3990
5.18	-9.7377	-0.2967	-1.3321	-0.0042	0.0016	-0.0087	18.9024	-8.1100	4.5934	0.5235	-0.4757	0.5835	0.3990
5.19	-9.7300	-0.2965	-1.3147	-0.0087	0.0063	-0.0055	18.8221	-8.0508	4.4782	0.5235	-0.4757	0.5835	0.3990
5.2	-9.7288	-0.2922	-1.3137	-0.0066	0.0034	-0.0053	18.8389	-8.0330	4.5505	0.5235	-0.4757	0.5835	0.3990
5.21	-9.7361	-0.2939	-1.3190	-0.0052	0.0044	-0.0062	18.9465	-8.0077	4.6762	0.5235	-0.4757	0.5835	0.3990
5.22	-9.7311	-0.2970	-1.3115	-0.0028	0.0037	-0.0048	19.0175	-8.0937	4.4791	0.5235	-0.4757	0.5835	0.3989
5.23	-9.7263	-0.2997	-1.2938	-0.0153	-0.0015	-0.0094	18.9966	-8.0487	4.4848	0.5236	-0.4758	0.5834	0.3990
5.24	-9.7343	-0.2998	-1.2946	-0.0115	0.0045	-0.0044	19.0042	-8.0203	4.4666	0.5236	-0.4758	0.5834	0.3990
5.25	-9.7332	-0.2978	-1.2883	-0.0052	0.0054	-0.0067	18.8944	-8.1343	4.4990	0.5236	-0.4758	0.5834	0.3990
5.26	-9.7306	-0.3028	-1.2838	-0.0062	0.0068	0.0013	18.9394	-8.1315	4.6386	0.5236	-0.4758	0.5834	0.3990
5.27	-9.7301	-0.3100	-1.2891	-0.0050	0.0092	0.0013	18.8837	-8.3116	4.6838	0.5236	-0.4758	0.5834	0.3990
5.28	-9.7318	-0.3174	-1.2895	0.0005	0.0110	0.0019	19.1526	-8.2422	4.5247	0.5236	-0.4757	0.5834	0.3990
5.29	-9.7288	-0.3236	-1.2891	-0.0091	0.0095	-0.0046	18.9819	-8.1827	4.6497	0.5236	-0.4758	0.5834	0.3990
5.3	-9.7270	-0.3232	-1.2925	-0.0120	0.0100	-0.0023	19.1240	-8.1912	4.5904	0.5236	-0.4758	0.5834	0.3990
5.31	-9.7279	-0.3301	-1.2986	-0.0057	0.0158	-0.0008	19.2590	-8.1925	4.5737	0.5235	-0.4758	0.5834	0.3990
5.32	-9.7280	-0.3361	-1.3043	-0.0043	0.0176	-0.0023	19.0337	-8.1782	4.6639	0.5235	-0.4758	0.5834	0.3989
5.33	-9.7247	-0.3416	-1.3052	-0.0033	0.0137	-0.0021	19.0909	-8.0457	4.3276	0.5235	-0.4758	0.5835	0.3989
5.34	-9.7305	-0.3466	-1.3117	-0.0006	0.0139	-0.0000	18.8198	-7.9944	4.5627	0.5235	-0.4758	0.5835	0.3989
5.35	-9.7411	-0.3428	-1.3276	-0.0022	0.0145	0.0015	18.8417	-8.2645	4.6695	0.5235	-0.4758	0.5835	0.3989
5.36	-9.7181	-0.3430	-1.3195	-0.0014	0.0146	-0.0046	18.9771	-8.2256	4.5143	0.5235	-0.4758	0.5835	0.3988
5.37	-9.7195	-0.3386	-1.3244	-0.0051	0.0190	-0.0111	19.0053	-7.9983	4.6684	0.5235	-0.4758	0.5835	0.3988
5.38	-9.7413	-0.3392	-1.3364	-0.0069	0.0162	-0.0040	19.0070	-8.1179	4.5496	0.5235	-0.4759	0.5835	0.3988
5.39	-9.7350	-0.3293	-1.3288	-0.0018	0.0189	-0.0002	18.7740	-8.0201	4.6995	0.5234	-0.4759	0.5836	0.3987
5.4	-9.7256	-0.3277	-1.3247	-0.0016	0.0163	-0.0065	18.7745	-8.1966	4.7243	0.5234	-0.4759	0.5836	0.3987
5.41	-9.7371	-0.3234	-1.3270	-0.0037	0.0147	-0.0029	18.9355	-8.1548	4.5453	0.5234	-0.4759	0.5836	0.3987
5.42	-9.7361	-0.3201	-1.3225	-0.0018	0.0196	-0.0078	18.9870	-7.9637	4.5761	0.5234	-0.4759	0.5836	0.3986
5.43	-9.7267	-0.3237	-1.3111	-0.0030	0.0164	0.0002	19.0293	-8.0142	4.6870	0.5234	-0.4759	0.5837	0.3986
5.44	-9.7345	-0.3222	-1.3157	-0.0047	0.0157	-0.0002	18.9057	-8.1186	4.7980	0.5234	-0.4759	0.5837	0.3986
5.45	-9.7354	-0.3246	-1.3144	-0.0005	0.0137	0.0038	19.0018	-7.8833	4.5356	0.5234	-0.4759	0.5837	0.3985
5.46	-9.7280	-0.3242	-1.3059	-0.0080	0.0123	0.0017	19.1805	-8.1994	4.4954	0.5233	-0.4759	0.5838	0.3986
5.47	-9.7264	-0.3229	-1.2991	-0.0038	0.0084	-0.0014	19.0486	-8.1425	4.4399	0.5233	-0.4759	0.5838	0.3985
5.48	-9.7296	-0.3176	-1.3086	-0.0055	0.0092	-0.0030	19.0974	-8.3512	4.6462	0.5233	-0.4759	0.5838	0.3985
5.49	-9.7332	-0.3182	-1.3087	-0.0128	0.0108	0.0026	19.0680	-8.3560	4.7584	0.5233	-0.4759	0.5838	0.3986
5.5	-9.7368	-0.3095	-1.3126	-0.0062	0.0093	0.0015	19.0872	-8.1414	4.4006	0.5233	-0.4759	0.5838	0.3986
5.51	-9.7320	-0.2995	-1.3140	-0.0036	0.0093	-0.0002	19.0921	-8.2189	4.5420	0.5233	-0.4759	0.5838	0.3986
5.52	-9.7311	-0.2903	-1.3053	-0.0006	0.0129	-0.0014	19.0118	-8.1692	4.3564	0.5233	-0.4759	0.5838	0.3985
5.53	-9.7316	-0.2872	-1.3036	-0.0012	0.0064	-0.0001	18.9918	-8.2207	4.6324	0.5233	-0.4759	0.5838	0.3985
5.54	-9.7298	-0.3003	-1.3076	-0.0037	0.0111	0.0033	19.0094	-8.1422	4.4958	0.5233	-0.4759	0.5838	0.3985
5.55	-9.7367	-0.3063	-1.3196	0.0003	0.0143	-0.0009	18.9929	-8.0987	4.5195	0.5233	-0.4758	0.5839	0.3985
5.56	-9.7256	-0.3188	-1.3131	-0.0053	0.0114	-0.0080	19.0087	-8.1113	4.6992	0.5233	-0.4759	0.5839	0.3985
5.57	-9.7175	-0.3251	-1.3100	-0.0035	0.0102	-0.0013	18.9802	-8.2268	4.4881	0.5233	-0.4759	0.5839	0.3985
5.58	-9.7419	-0.3287	-1.3229	-0.0063	0.0188	-0.0015	18.8853	-7.9574	4.5281	0.5233	-0.4759	0.5839	0.3985
5.59	-9.7362	-0.3276	-1.3235	-0.0032	0.0174	-0.0043	19.0101	-8.0083	4.5767	0.5233	-0.4759	0.5839	0.3984
5.6	-9.7226	-0.3175	-1.3140	-0.0067	0.0142	-0.0051	18.9045	-8.1295	4.5635	0.5233	-0.4759	0.5839	0.3984
5.61	-9.7368	-0.3164	-1.3143	-0.0030	0.0179	-0.0036	19.0625	-7.9860	4.7004	0.5233	-0.4759	0.5840	0.3984
5.62	-9.7471	-0.3098	-1.3277	-0.0016	0.0136	-0.0035	19.2828	-8.0578	4.8287	0.5233	-0.4759	0.5840	0.3983
5.63	-9.7264	-0.2974	-1.3127	-0.0035	0.0127	-0.0071	19.2359	-8.0063	5.0696	0.5233	-0.4759	0.5840	0.3983
5.64	-9.7260	-0.3009	-1.3067	-0.0046	0.0067	0.0029	19.0195	-8.2594	4.7918	0.5233	-0.4759	0.5840	0.3983
5.65	-9.7386	-0.3041	-1.3138	-0.0030	0.0152	0.0007	19.1552	-8.5441	4.5686	0.5233	-0.4759	0.5840	0.3983
5.66	-9.7275	-0.3148	-1.3078	-0.0087	0.0133	0.0002	18.9967	-8.2008	4.7038	0.5232	-0.4759	0.5840	0.3983
5.67	-9.7293	-0.3226	-1.3060	-0.0050	0.0080	-0.0020	18.9881	-8.3287	4.6605	0.5232	-0.4759	0.5840	0.3983
5.68	-9.7360	-0.3324	-1.3149	-0.0016	0.0116	-0.0036	19.2584	-8.3971	4.6233	0.5233	-0.4759	0.5840	0.3983
5.69	-9.7318	-0.3412	-1.3059	-0.0085	0.0121	-0.0066	19.1480	-8.1693	4.7200	0.5233	-0.4759	0.5840	0.3982
5.7	-9.7279	-0.3465	-1.3007	-0.0060	0.0109	0.0022	18.8869	-8.0475	4.6481	0.5232	-0.4759	0.5841	0.3983
5.71	-9.7306	-0.3464	-1.3131	-0.0084	0.0059	-0.0040	18.8307	-8.0762	4.8143	0.5232	-0.4759	0.5840	0.3983
5.72	-9.7300	-0.3372	-1.3107	-0.0083	0.0101	0.0013	18.8323	-8.0313	4.6809	0.5232	-0.4759	0.5840	0.3983
5.73	-9.7294	-0.3304	-1.3007	-0.0050	0.0124	-0.0016	19.0965	-7.9186	4.4607	0.5232	-0.4759	0.5840	0.3983
5.74	-9.7335	-0.3220	-1.3028	-0.0060	0.0057	0.0032	19.0554	-8.1999	4.6397	0.5232	-0.4759	0.5841	0.3983
5.75	-9.7375	-0.3182	-1.3137	-0.0028	0.0084	-0.0050	18.9017	-8.0689	4.5322	0.5232	-0.4759	0.5840	0.3983
5.76	-9.7360	-0.3204	-1.3159	-0.0035	0.0088	-0.0051	18.8769	-8.1310	4.5384	0.5233	-0.4759	0.5840	0.3983
5.77	-9.7271	-0.3196	-1.3165	-0.0053	0.0152	-0.0070	18.8067	-8.0751	4.6865	0.5233	-0.4759	0.5840	0.3982
5.78	-9.7360	-0.3243	-1.3224	-0.0032	0.0110	-0.0063	19.0328	-7.9684	4.6883	0.5233	-0.4759	0.5841	0.3982
5.79	-9.7337	-0.3250	-1.3256	-0.0053	0.0117	-0.0005	19.1198	-8.0837	4.6420	0.5233	-0.4759	0.5841	0.3982
5.8	-9.7290	-0.3236	-1.3231	-0.0064	0.0076	-0.0048	18.9373	-8.0601	4.5636	0.5233	-0.4759	0.5840	0.3982
5.81	-9.7284	-0.3175	-1.3267	-0.0055	0.0111	-0.0024	18.9098	-7.9718	4.6796	0.5233	-0.4759	0.5840	0.3982
5.82	-9.7431	-0.3227	-1.3264	-0.0032	0.0128	0.0019	18.8920	-7.9976	4.8125	0.5233	-0.4759	0.5841	0.3982
5.83	-9.7403	-0.3167	-1.3284	0.0010	0.0098	0.0043	18.8249	-8.0951	4.8541	0.5233	-0.4759	0.5841	0.3982
5.84	-9.7243	-0.3182	-1.3193	0.0017	0.0120	-0.0014	19.0379	-8.0351	4.8822	0.5233	-0.4759	0.5841	0.3981
5.85	-9.7400	-0.3124	-1.3276	0.0018	0.0086	-0.0031	18.9449	-8.0847	4.6182	0.5233	-0.4759	0.5841	0.3981
5.86	-9.7360	-0.3079	-1.3268	0.0001	0.0091	0.0008	18.8378	-8.1556	4.4927	0.5233	-0.4758	0.5842	0.3981
5.87	-9.7298	-0.3081	-1.3179	-0.0018	0.0083	0.0016	18.9761	-8.1490	4.6734	0.5233	-0.4758	0.5842	0.3981
5.88	-9.7331	-0.3070	-1.3122	-0.0050	0.0086	-0.0012	18.7291	-8.0646	4.3590	0.5233	-0.4758	0.5842	0.3981
5.89	-9.7319	-0.3126	-1.3176	0.0023	0.0172	0.0034	18.8848	-8.0585	4.4703	0.5233	-0.4758	0.5842	0.3981
5.9	-9.7319	-0.3140	-1.3083	-0.0043	0.0119	-0.0035	18.9461	-8.0559	4.6487	0.5233	-0.4758	0.5842	0.3981
5.91	-9.7285	-0.3209	-1.3031	-0.0041	0.0114	0.0009	19.1069	-8.1186	4.4892	0.5233	-0.4758	0.5842	0.3981
5.92	-9.7350	-0.3242	-1.3027	-0.0003	0.0107	0.0015	18.9679	-8.0870	4.6062	0.5233	-0.4757	0.5843	0.3981
5.93	-9.7356	-0.3250	-1.2987	-0.0073	0.0126	-0.0005	18.7921	-8.1235	4.7180	0.5233	-0.4757	0.5843	0.3981
5.94	-9.7294	-0.3208	-1.2931	-0.0089	0.0105	-0.0014	18.8717	-8.0428	4.5972	0.5233	-0.4758	0.5843	0.3981
5.95	-9.7270	-0.3160	-1.2923	-0.0098	0.0051	-0.0059	18.7300	-8.0682	4.5844	0.5233	-0.4758	0.5843	0.3981
5.96	-9.7354	-0.3149	-1.2964	-0.0120	0.0089	-0.0028	18.9760	-8.0723	4.6874	0.5233	-0.4758	0.5842	0.3981
5.97	-9.7286	-0.3086	-1.2913	-0.0064	0.0102	-0.0020	19.1285	-8.1539	4.7163	0.5233	-0.4758	0.5842	0.3981
5.98	-9.7288	-0.3053	-1.2969	-0.0043	0.0100	-0.0037	18.9714	-7.9226	4.8070	0.5233	-0.4758	0.5842	0.3981
5.99	-9.7349	-0.3032	-1.3076	-0.0052	0.0097	-0.0048	19.0281	-8.1174	4.6433	0.5233	-0.4758	0.5842	0.3981
6	-9.7301	-0.3012	-1.3075	-0.0029	0.0096	-0.0019	18.8200	-8.0922	4.5987	0.5233	-0.4758	0.5842	0.3981
6.01	-9.7311	-0.3082	-1.3129	-0.0047	0.0040	-0.0013	18.9568	-8.1212	4.7415	0.5233	-0.4758	0.5842	0.3981
6.02	-9.7386	-0.3124	-1.3237	0.0013	0.0101	0.0037	18.9445	-8.0711	4.4896	0.5233	-0.4757	0.5842	0.3981
6.03	-9.7330	-0.3067	-1.3271	0.0013	0.0108	-0.0006	18.9081	-8.0681	4.5085	0.5233	-0.4757	0.5843	0.3980
6.04	-9.7364	-0.3058	-1.3269	-0.0046	0.0101	-0.0050	19.1867	-8.1521	4.6576	0.5234	-0.4757	0.5843	0.3980
6.05	-9.7371	-0.3091	-1.3336	-0.0050	0.0134	0.0003	19.0944	-8.1873	4.7148	0.5233	-0.4757	0.5843	0.3980
6.06	-9.7393	-0.3091	-1.3367	-0.0040	0.0112	0.0018	18.9145	-8.2522	4.5696	0.5233	-0.4757	0.5843	0.3980
6.07	-9.7244	-0.3139	-1.3240	-0.0054	0.0130	-0.0022	18.9010	-8.2007	4.6280	0.5233	-0.4757	0.5843	0.3980
6.08	-9.7316	-0.3162	-1.3174	-0.0060	0.0128	0.0028	18.9598	-8.0837	4.6982	0.5233	-0.4757	0.5843	0.3980
6.09	-9.7425	-0.3193	-1.3249	0.0001	0.0043	-0.0025	19.0786	-8.0306	4.6794	0.5233	-0.4757	0.5843	0.3980
6.1	-9.7291	-0.3195	-1.3077	-0.0044	0.0016	-0.0068	18.9952	-8.1786	4.5781	0.5234	-0.4757	0.5843	0.3980
6.11	-9.7320	-0.3214	-1.3133	-0.0073	0.0076	-0.0043	19.3773	-8.2184	4.7851	0.5234	-0.4757	0.5843	0.3980
6.12	-9.7387	-0.3260	-1.3174	-0.0051	0.0064	-0.0088	19.5734	-7.9905	5.1582	0.5234	-0.4757	0.5843	0.3980
6.13	-9.7297	-0.3234	-1.3042	-0.0086	0.0106	-0.0035	19.2493	-7.9954	4.8277	0.5234	-0.4757	0.5843	0.3980
6.14	-9.7278	-0.3230	-1.3023	-0.0086	0.0107	-0.0019	19.0400	-8.3652	4.7132	0.5234	-0.4757	0.5843	0.3980
6.15	-9.7411	-0.3232	-1.3153	-0.0047	0.0107	-0.0006	18.9194	-8.6521	4.6931	0.5234	-0.4757	0.5843	0.3980
6.16	-9.7332	-0.3241	-1.3094	-0.0101	0.0095	-0.0032	18.5151	-7.9163	4.5217	0.5234	-0.4757	0.5843	0.3980
6.17	-9.7253	-0.3309	-1.3053	-0.0078	0.0056	-0.0018	18.9797	-8.0582	4.7315	0.5234	-0.4757	0.5842	0.3980
6.18	-9.7334	-0.3350	-1.3141	-0.0050	0.0122	-0.0068	18.9633	-7.9964	4.4792	0.5234	-0.4757	0.5842	0.3980
6.19	-9.7323	-0.3369	-1.3221	-0.0094	0.0063	-0.0008	18.6446	-8.1244	4.6069	0.5234	-0.4757	0.5842	0.3980
6.2	-9.7227	-0.3359	-1.3161	-0.0083	0.0060	-0.0009	18.8693	-8.0270	4.8085	0.5234	-0.4757	0.5842	0.3980
6.21	-9.7282	-0.3369	-1.3202	-0.0044	0.0025	0.0007	18.9798	-8.0476	4.5068	0.5235	-0.4757	0.5842	0.3981
6.22	-9.7355	-0.3312	-1.3196	0.0003	0.0038	0.0042	19.0481	-8.2797	4.3936	0.5235	-0.4756	0.5842	0.3981
6.23	-9.7279	-0.3235	-1.3127	-0.0010	0.0087	0.0042	19.0270	-8.2856	4.7316	0.5235	-0.4756	0.5842	0.3981
6.24	-9.7323	-0.3162	-1.3103	-0.0048	0.0097	0.0014	18.9452	-8.1785	4.4541	0.5235	-0.4756	0.5842	0.3981
6.25	-9.7332	-0.3130	-1.3093	-0.0065	0.0045	0.0010	18.9596	-8.2210	4.5828	0.5235	-0.4755	0.5842	0.3981
6.26	-9.7370	-0.3144	-1.3069	-0.0076	0.0051	0.0030	19.0833	-8.3087	4.7006	0.5235	-0.4755	0.5842	0.3981
6.27	-9.7315	-0.3127	-1.2966	-0.0062	0.0035	0.0054	18.9027	-8.1972	4.4309	0.5235	-0.4755	0.5842	0.3982
6.28	-9.7314	-0.3180	-1.2981	-0.0083	0.0066	0.0039	19.1040	-8.0829	4.7883	0.5235	-0.4755	0.5842	0.3982
6.29	-9.7332	-0.3175	-1.3064	-0.0119	0.0025	-0.0001	19.1518	-8.2907	4.5305	0.5235	-0.4755	0.5842	0.3983
6.3	-9.7262	-0.3210	-1.3017	-0.0060	0.0082	0.0005	18.9205	-8.1686	4.6241	0.5235	-0.4754	0.5842	0.3983
6.31	-9.7273	-0.3199	-1.2971	-0.0056	0.0117	-0.0061	18.9396	-7.9115	4.7860	0.5235	-0.4755	0.5842	0.3983
6.32	-9.7295	-0.3237	-1.3022	-0.0079	0.0042	-0.0018	19.0798	-8.0771	4.6545	0.5235	-0.4754	0.5842	0.3983
6.33	-9.7284	-0.3253	-1.2965	-0.0048	0.0035	0.0001	18.9029	-8.1407	4.4712	0.5235	-0.4754	0.5842	0.3983
6.34	-9.7250	-0.3206	-1.2986	0.0015	0.0065	-0.0003	18.9282	-8.0240	4.3803	0.5235	-0.4754	0.5842	0.3983
6.35	-9.7384	-0.3223	-1.3057	-0.0059	0.0074	-0.0034	18.9581	-8.0377	4.5250	0.5236	-0.4754	0.5842	0.3983
6.36	-9.7341	-0.3174	-1.3095	-0.0040	0.0134	-0.0010	18.9565	-8.1396	4.6431	0.5236	-0.4754	0.5842	0.3983
6.37	-9.7210	-0.3153	-1.3105	-0.0072	0.0163	-0.0029	18.8883	-8.0957	4.4656	0.5235	-0.4754	0.5842	0.3983
6.38	-9.7401	-0.2979	-1.3181	-0.0074	0.0055	-0.0007	18.8605	-8.1324	4.7169	0.5235	-0.4754	0.5842	0.3983
6.39	-9.7355	-0.2835	-1.3135	-0.0073	0.0058	0.0002	18.8537	-8.0928	4.6062	0.5236	-0.4754	0.5842	0.3983
6.4	-9.7261	-0.2779	-1.3051	-0.0097	-0.0012	0.0016	19.0824	-8.1477	4.5200	0.5236	-0.4754	0.5842	0.3983
6.41	-9.7345	-0.2789	-1.3093	-0.0039	0.0068	0.0023	19.0610	-7.9994	4.6216	0.5236	-0.4753	0.5842	0.3984
6.42	-9.7337	-0.2896	-1.3151	-0.0048	0.0007	0.0041	18.9195	-8.1592	4.5825	0.5236	-0.4753	0.5841	0.3984
6.43	-9.7300	-0.2942	-1.3101	-0.0058	0.0062	-0.0011	19.0867	-8.2761	4.7128	0.5236	-0.4753	0.5841	0.3984
6.44	-9.7319	-0.3076	-1.3144	-0.0047	0.0108	0.0009	19.3264	-8.1507	4.4753	0.5236	-0.4753	0.5841	0.3984
6.45	-9.7339	-0.3173	-1.3142	-0.0080	0.0036	-0.0031	19.0121	-8.2169	4.6151	0.5236	-0.4753	0.5841	0.3984
6.46	-9.7331	-0.3246	-1.3106	-0.0063	0.0059	-0.0007	18.9492	-8.0809	4.5717	0.5236	-0.4753	0.5841	0.3985
6.47	-9.7292	-0.3265	-1.3084	-0.0037	0.0029	0.0004	19.0588	-8.1401	4.4702	0.5236	-0.4752	0.5841	0.3985
6.48	-9.7330	-0.3258	-1.3080	-0.0012	0.0114	0.0023	19.0190	-8.3058	4.5851	0.5237	-0.4752	0.5841	0.3985
6.49	-9.7355	-0.3293	-1.3134	-0.0048	0.0054	-0.0019	19.0269	-8.0807	4.7008	0.5237	-0.4752	0.5841	0.3985
6.5	-9.7294	-0.3229	-1.3165	-0.0031	0.0006	-0.0043	18.9268	-8.0300	4.4048	0.5237	-0.4752	0.5841	0.3985
6.51	-9.7296	-0.3202	-1.3198	-0.0059	0.0111	-0.0050	18.9644	-7.9849	4.6675	0.5237	-0.4752	0.5841	0.3985
6.52	-9.7345	-0.3254	-1.3185	-0.0083	0.0063	-0.0058	18.8722	-7.9184	4.5902	0.5237	-0.4752	0.5841	0.3985
6.53	-9.7329	-0.3265	-1.3233	-0.0054	0.0056	-0.0062	18.8475	-8.0756	4.5935	0.5237	-0.4752	0.5840	0.3985
6.54	-9.7319	-0.3278	-1.3141	-0.0057	0.0110	-0.0074	18.7682	-7.9787	4.7002	0.5238	-0.4752	0.5840	0.3985
6.55	-9.7363	-0.3273	-1.3235	-0.0062	0.0112	-0.0046	18.7858	-7.9424	4.6542	0.5238	-0.4752	0.5840	0.3985
6.56	-9.7287	-0.3365	-1.3187	-0.0065	0.0091	-0.0009	18.7876	-7.9541	4.6798	0.5238	-0.4752	0.5840	0.3985
6.57	-9.7247	-0.3390	-1.3100	-0.0000	0.0101	0.0014	18.8765	-7.9548	4.6663	0.5238	-0.4752	0.5840	0.3985
6.58	-9.7336	-0.3344	-1.3106	-0.0113	0.0106	-0.0018	18.8809	-8.2877	4.6861	0.5238	-0.4752	0.5840	0.3985
6.59	-9.7353	-0.3362	-1.3079	-0.0062	0.0162	-0.0033	19.1111	-8.1955	4.6827	0.5237	-0.4752	0.5840	0.3985
6.6	-9.7294	-0.3282	-1.3018	-0.0058	0.0122	0.0001	19.1099	-8.1935	4.6837	0.5237	-0.4752	0.5841	0.3985
6.61	-9.7309	-0.3225	-1.3012	-0.0015	0.0097	-0.0027	19.2395	-8.3019	4.6982	0.5237	-0.4752	0.5841	0.3984
6.62	-9.7341	-0.3257	-1.3116	-0.0056	0.0077	0.0027	19.7054	-8.0053	4.9116	0.5237	-0.4752	0.5841	0.3985
6.63	-9.7239	-0.3213	-1.3082	-0.0058	0.0072	-0.0033	19.1964	-8.1178	4.8747	0.5238	-0.4752	0.5841	0.3985
6.64	-9.7313	-0.3189	-1.3207	0.0014	0.0114	-0.0051	18.7107	-8.2924	4.8405	0.5238	-0.4751	0.5841	0.3984
6.65	-9.7412	-0.3107	-1.3249	-0.0031	0.0091	-0.0023	18.9932	-8.4222	4.7451	0.5238	-0.4751	0.5841	0.3984
6.66	-9.7349	-0.3045	-1.3163	-0.0037	0.0086	0.0026	18.9756	-8.1543	4.5410	0.5238	-0.4751	0.5841	0.3984
6.67	-9.7292	-0.2988	-1.3209	-0.0057	0.0094	0.0016	19.1539	-8.0407	4.6000	0.5238	-0.4751	0.5841	0.3984
6.68	-9.7397	-0.3024	-1.3238	0.0016	0.0057	-0.0046	19.1256	-8.0461	4.7845	0.5238	-0.4751	0.5841	0.3984
6.69	-9.7346	-0.3068	-1.3211	-0.0072	0.0049	-0.0041	18.7249	-8.1217	4.7192	0.5238	-0.4751	0.5841	0.3984
6.7	-9.7265	-0.3152	-1.3138	-0.0065	0.0048	0.0003	18.9477	-8.1494	4.7701	0.5239	-0.4751	0.5841	0.3984
6.71	-9.7306	-0.3144	-1.3094	-0.0067	0.0073	-0.0031	18.9328	-8.2444	4.5082	0.5239	-0.4751	0.5841	0.3985
6.72	-9.7302	-0.3173	-1.3131	-0.0055	0.0035	-0.0035	18.8112	-8.1859	4.6441	0.5239	-0.4750	0.5840	0.3985
6.73	-9.7303	-0.3198	-1.3046	-0.0069	0.0072	-0.0107	18.9405	-8.1138	4.6503	0.5239	-0.4751	0.5840	0.3985
6.74	-9.7299	-0.3231	-1.2984	-0.0011	0.0083	-0.0057	19.0090	-8.1710	4.6801	0.5239	-0.4751	0.5840	0.3984
6.75	-9.7324	-0.3260	-1.3036	0.0001	0.0057	-0.0005	18.8199	-7.9819	4.6015	0.5240	-0.4750	0.5840	0.3984
6.76	-9.7382	-0.3290	-1.3078	-0.0051	0.0047	-0.0035	18.8733	-8.2192	4.5963	0.5240	-0.4750	0.5840	0.3984
6.77	-9.7306	-0.3231	-1.3017	0.0045	0.0078	0.0059	18.8359	-8.1483	4.7678	0.5240	-0.4750	0.5840	0.3984
6.78	-9.7309	-0.3182	-1.2998	-0.0041	0.0095	0.0036	19.0526	-8.0612	4.6359	0.5240	-0.4750	0.5840	0.3984
6.79	-9.7414	-0.3120	-1.3138	0.0046	0.0097	-0.0026	18.9967	-8.1367	4.6549	0.5240	-0.4749	0.5841	0.3984
6.8	-9.7327	-0.3095	-1.3081	0.0009	0.0112	0.0009	19.0522	-8.0039	4.4202	0.5240	-0.4749	0.5841	0.3984
6.81	-9.7224	-0.3124	-1.3108	-0.0057	0.0177	-0.0010	18.8478	-8.1809	4.2715	0.5240	-0.4749	0.5841	0.3984
6.82	-9.7313	-0.3150	-1.3229	-0.0040	0.0110	0.0022	18.9756	-7.9970	4.4699	0.5240	-0.4749	0.5841	0.3984
6.83	-9.7344	-0.3167	-1.3266	-0.0091	0.0111	-0.0005	18.8950	-8.1464	4.6266	0.5240	-0.4749	0.5841	0.3984
6.84	-9.7241	-0.3114	-1.3200	-0.0050	0.0075	-0.0001	19.0961	-8.1174	4.7698	0.5240	-0.4749	0.5841	0.3984
6.85	-9.7347	-0.3083	-1.3225	-0.0063	0.0012	0.0006	19.0127	-8.1814	4.6183	0.5240	-0.4749	0.5841	0.3984
6.86	-9.7341	-0.3135	-1.3234	-0.0047	0.0099	-0.0003	18.8953	-8.1778	4.4450	0.5240	-0.4749	0.5841	0.3984
6.87	-9.7303	-0.3073	-1.3193	-0.0093	0.0122	-0.0068	19.0259	-7.9577	4.4941	0.5240	-0.4749	0.5841	0.3984
6.88	-9.7310	-0.3014	-1.3119	-0.0062	0.0106	-0.0029	19.0143	-7.9622	4.4698	0.5240	-0.4749	0.5841	0.3984
6.89	-9.7317	-0.2996	-1.3188	-0.0036	0.0065	-0.0059	18.8348	-8.1244	4.5911	0.5240	-0.4749	0.5841	0.3984
6.9	-9.7324	-0.2964	-1.3047	-0.0045	0.0089	-0.0039	18.9952	-8.0844	4.7367	0.5240	-0.4749	0.5841	0.3984
6.91	-9.7319	-0.2976	-1.3033	-0.0023	0.0079	-0.0000	18.8164	-8.1215	4.6853	0.5240	-0.4749	0.5841	0.3984
6.92	-9.7435	-0.3021	-1.3033	-0.0077	0.0130	-0.0024	19.0674	-8.1433	4.5356	0.5240	-0.4749	0.5841	0.3984
6.93	-9.7382	-0.2992	-1.2953	-0.0071	0.0154	-0.0004	18.9526	-8.1594	4.8735	0.5240	-0.4749	0.5841	0.3984
6.94	-9.7309	-0.2996	-1.3004	-0.0046	0.0109	-0.0013	18.7539	-8.0698	4.7040	0.5240	-0.4749	0.5841	0.3984
6.95	-9.7252	-0.3125	-1.2988	0.0043	0.0139	-0.0008	18.8453	-8.1352	4.5405	0.5240	-0.4749	0.5842	0.3984
6.96	-9.7369	-0.3259	-1.3145	-0.0046	0.0114	0.0010	19.0819	-8.2364	4.6963	0.5240	-0.4748	0.5842	0.3983
6.97	-9.7337	-0.3341	-1.3194	-0.0087	0.0152	-0.0005	19.0644	-8.2317	4.6378	0.5240	-0.4749	0.5842	0.3983
6.98	-9.7283	-0.3395	-1.3195	-0.0085	0.0074	-0.0009	18.9818	-8.1501	4.6990	0.5240	-0.4749	0.5842	0.3984
6.99	-9.7329	-0.3437	-1.3199	-0.0018	0.0172	-0.0001	19.1305	-8.1394	4.4372	0.5240	-0.4749	0.5842	0.3983
7	-9.7317	-0.3495	-1.3194	0.0058	0.0145	0.0000	19.0718	-8.1143	4.6718	0.5240	-0.4748	0.5842	0.3983
7.01	-9.7280	-0.3509	-1.3212	-0.0032	0.0079	-0.0014	18.9487	-8.0349	4.7446	0.5240	-0.4748	0.5842	0.3983
7.02	-9.7339	-0.3538	-1.3281	-0.0060	0.0099	-0.0039	18.9200	-8.0717	4.4619	0.5240	-0.4748	0.5842	0.3983
7.03	-9.7299	-0.3545	-1.3321	-0.0058	0.0116	-0.0018	19.0678	-8.0472	4.2801	0.5240	-0.4748	0.5843	0.3983
7.04	-9.7280	-0.3504	-1.3209	-0.0072	0.0127	-0.0012	18.8244	-8.2062	4.4889	0.5240	-0.4748	0.5843	0.3983
7.05	-9.7353	-0.3483	-1.3259	-0.0082	0.0060	-0.0006	19.0077	-7.9915	4.6707	0.5240	-0.4748	0.5842	0.3983
7.06	-9.7303	-0.3454	-1.3208	-0.0073	0.0170	-0.0098	18.9305	-7.9538	4.6355	0.5240	-0.4749	0.5842	0.3983
7.07	-9.7264	-0.3409	-1.3126	-0.0056	0.0097	-0.0002	18.9606	-8.2235	4.6880	0.5240	-0.4749	0.5843	0.3983
7.08	-9.7304	-0.3372	-1.3111	-0.0056	0.0080	-0.0057	18.8329	-8.0294	4.7555	0.5240	-0.4749	0.5842	0.3983
7.09	-9.7316	-0.3303	-1.3116	-0.0057	0.0148	-0.0059	18.7895	-8.1859	4.4224	0.5240	-0.4749	0.5842	0.3982
7.1	-9.7333	-0.3176	-1.3054	-0.0108	0.0139	-0.0070	19.1028	-7.8890	4.7281	0.5240	-0.4749	0.5842	0.3982
7.11	-9.7283	-0.3123	-1.2982	-0.0057	0.0032	-0.0070	19.1570	-7.9914	4.9840	0.5240	-0.4749	0.5842	0.3982
7.12	-9.7287	-0.3096	-1.2903	-0.0100	0.0144	-0.0048	19.2262	-8.2067	5.0896	0.5240	-0.4749	0.5842	0.3982
7.13	-9.7294	-0.2999	-1.2847	-0.0003	0.0098	-0.0013	19.0470	-8.1094	4.8515	0.5240	-0.4749	0.5842	0.3982
7.14	-9.7316	-0.3028	-1.2883	-0.0046	0.0077	0.0047	18.8197	-8.4682	4.6770	0.5240	-0.4749	0.5842	0.3982
7.15	-9.7256	-0.2927	-1.2767	-0.0044	0.0113	-0.0044	19.0106	-8.6452	4.4587	0.5240	-0.4749	0.5842	0.3982
7.16	-9.7316	-0.2953	-1.2853	-0.0048	0.0122	-0.0015	19.0790	-8.3866	4.5901	0.5240	-0.4749	0.5842	0.3982
7.17	-9.7361	-0.3012	-1.2899	-0.0080	0.0116	0.0013	18.9732	-8.1463	4.6341	0.5240	-0.4749	0.5843	0.3982
7.18	-9.7284	-0.2979	-1.2846	-0.0014	0.0078	0.0062	19.0092	-8.1117	4.6080	0.5240	-0.4749	0.5843	0.3982
7.19	-9.7183	-0.2989	-1.2799	-0.0031	0.0123	-0.0028	19.1173	-8.2891	4.8121	0.5240	-0.4749	0.5843	0.3982
7.2	-9.7409	-0.2982	-1.3090	-0.0059	0.0127	-0.0027	18.8822	-8.1960	4.7728	0.5240	-0.4749	0.5843	0.3982
7.21	-9.7421	-0.3098	-1.3120	-0.0047	0.0152	0.0011	18.9220	-8.0902	4.7031	0.5239	-0.4749	0.5843	0.3982
7.22	-9.7375	-0.3082	-1.3219	-0.0097	0.0111	-0.0012	18.8744	-8.1232	4.6530	0.5239	-0.4749	0.5843	0.3982
7.23	-9.7421	-0.3150	-1.3376	-0.0028	0.0031	0.0048	19.0352	-8.1043	4.5842	0.5239	-0.4749	0.5843	0.3982
7.24	-9.7255	-0.3155	-1.3426	0.0021	0.0095	0.0025	19.1843	-8.0278	4.7234	0.5239	-0.4748	0.5844	0.3982
7.25	-9.7321	-0.3088	-1.3549	-0.0049	0.0126	-0.0089	18.8771	-8.1244	4.5610	0.5239	-0.4748	0.5843	0.3982
7.26	-9.7416	-0.3091	-1.3646	-0.0081	0.0108	-0.0090	18.8136	-8.1132	4.6839	0.5239	-0.4749	0.5843	0.3981
7.27	-9.7340	-0.3002	-1.3588	-0.0094	0.0029	0.0019	18.8277	-8.1101	4.7032	0.5240	-0.4749	0.5843	0.3982
7.28	-9.7267	-0.2909	-1.3481	-0.0056	0.0080	-0.0025	18.8276	-8.0298	4.6857	0.5240	-0.4749	0.5843	0.3982
7.29	-9.7404	-0.2894	-1.3482	-0.0078	0.0014	-0.0036	18.8133	-8.2851	4.8695	0.5240	-0.4749	0.5843	0.3982
7.3	-9.7450	-0.2942	-1.3422	-0.0062	0.0123	-0.0037	18.8419	-8.0294	4.8242	0.5240	-0.4749	0.5843	0.3982
7.31	-9.7344	-0.3087	-1.3181	-0.0134	0.0091	-0.0070	18.7215	-8.0362	4.6508	0.5240	-0.4749	0.5843	0.3982
7.32	-9.7222	-0.3094	-1.3158	-0.0088	0.0073	0.0013	18.7803	-8.0213	4.8594	0.5240	-0.4749	0.5843	0.3982
7.33	-9.7396	-0.3170	-1.3123	-0.0064	0.0000	0.0034	18.9784	-8.2442	4.6288	0.5240	-0.4749	0.5842	0.3982
7.34	-9.7332	-0.3240	-1.2957	-0.0055	-0.0029	0.0004	18.7912	-8.2798	4.3751	0.5240	-0.4748	0.5842	0.3983
7.35	-9.7212	-0.3225	-1.2751	-0.0099	0.0041	-0.0037	18.9584	-8.3811	4.7808	0.5240	-0.4748	0.5842	0.3983
7.36	-9.7260	-0.3308	-1.2712	-0.0115	0.0046	-0.0050	19.0815	-8.3048	4.9231	0.5240	-0.4749	0.5842	0.3983
7.37	-9.7317	-0.3273	-1.2754	-0.0072	0.0083	-0.0053	19.0757	-8.0695	4.5572	0.5240	-0.4749	0.5842	0.3983
7.38	-9.7156	-0.3292	-1.2586	-0.0033	0.0131	-0.0084	19.0007	-8.2054	4.4220	0.5240	-0.4749	0.5841	0.3983
7.39	-9.7241	-0.3280	-1.2599	-0.0047	0.0077	-0.0024	18.6765	-8.2977	4.6573	0.5240	-0.4749	0.5841	0.3983
7.4	-9.7398	-0.3345	-1.2740	-0.0044	0.0051	-0.0022	18.8152	-8.2653	4.5911	0.5241	-0.4749	0.5841	0.3983
7.41	-9.7278	-0.3363	-1.2718	0.0006	0.0149	-0.0003	18.8809	-8.2986	4.6357	0.5241	-0.4749	0.5842	0.3983
7.42	-9.7192	-0.3382	-1.2795	-0.0049	0.0120	0.0048	19.0374	-8.1633	4.5046	0.5240	-0.4748	0.5842	0.3983
7.43	-9.7319	-0.3385	-1.2927	-0.0023	0.0152	-0.0010	18.7884	-7.9799	4.6687	0.5240	-0.4748	0.5842	0.3982
7.44	-9.7318	-0.3409	-1.3058	-0.0043	0.0105	-0.0034	18.5874	-8.1088	4.7008	0.5240	-0.4749	0.5842	0.3982
7.45	-9.7221	-0.3392	-1.3188	-0.0071	0.0105	-0.0051	18.8612	-8.1291	4.6833	0.5240	-0.4749	0.5842	0.3982
7.46	-9.7340	-0.3450	-1.3313	-0.0031	0.0094	-0.0011	18.7946	-7.9895	4.8176	0.5240	-0.4749	0.5842	0.3982
7.47	-9.7322	-0.3484	-1.3429	-0.0107	0.0142	-0.0034	18.5706	-7.9576	4.8714	0.5240	-0.4749	0.5842	0.3982
7.48	-9.7266	-0.3451	-1.3407	-0.0083	0.0058	-0.0038	18.8868	-8.1505	4.5978	0.5240	-0.4749	0.5842	0.3982
7.49	-9.7343	-0.3392	-1.3449	-0.0048	0.0050	-0.0041	19.0150	-7.9832	4.6219	0.5240	-0.4749	0.5842	0.3982
7.5	-9.7447	-0.3319	-1.3531	-0.0027	0.0048	-0.0022	18.7303	-8.0933	4.7003	0.5241	-0.4749	0.5842	0.3982
7.51	-9.7346	-0.3283	-1.3503	-0.0067	0.0076	0.0041	18.8206	-8.0793	4.5174	0.5241	-0.4749	0.5842	0.3982
7.52	-9.7331	-0.3230	-1.3386	-0.0023	0.0123	0.0011	19.1174	-8.2943	4.5310	0.5240	-0.4748	0.5842	0.3982
7.53	-9.7427	-0.3107	-1.3388	0.0011	0.0055	-0.0020	19.0217	-8.1347	4.5314	0.5241	-0.4748	0.5842	0.3982
7.54	-9.7357	-0.3084	-1.3302	-0.0022	0.0059	-0.0052	18.8925	-8.1673	4.6580	0.5241	-0.4748	0.5842	0.3982
7.55	-9.7309	-0.3079	-1.3193	-0.0056	0.0020	0.0019	19.1018	-8.1124	4.5254	0.5241	-0.4748	0.5842	0.3982
7.56	-9.7377	-0.3130	-1.3206	-0.0055	0.0104	-0.0021	18.9778	-8.2801	4.5298	0.5241	-0.4748	0.5842	0.3982
7.57	-9.7417	-0.3190	-1.3107	-0.0016	0.0176	0.0011	18.9911	-8.3617	4.6464	0.5241	-0.4748	0.5843	0.3982
7.58	-9.7164	-0.3255	-1.2818	-0.0101	0.0084	-0.0004	18.9881	-8.2355	4.7781	0.5241	-0.4748	0.5842	0.3982
7.59	-9.7265	-0.3222	-1.2889	-0.0068	0.0094	0.0016	18.9749	-8.2978	4.8004	0.5241	-0.4748	0.5842	0.3982
7.6	-9.7478	-0.3242	-1.2980	-0.0017	0.0083	-0.0017	19.0024	-8.2613	4.6929	0.5241	-0.4748	0.5843	0.3982
7.61	-9.7224	-0.3232	-1.2905	-0.0086	0.0071	-0.0025	19.0788	-8.1420	4.9849	0.5241	-0.4748	0.5842	0.3982
7.62	-9.7184	-0.3172	-1.2830	-0.0028	0.0106	-0.0061	19.2516	-7.8467	5.1380	0.5241	-0.4748	0.5843	0.3982
7.63	-9.7331	-0.3162	-1.2889	-0.0064	0.0074	-0.0065	19.2174	-7.9858	4.8697	0.5241	-0.4748	0.5842	0.3982
7.64	-9.7288	-0.3119	-1.2891	-0.0051	0.0079	-0.0052	18.9257	-8.3213	4.5027	0.5241	-0.4748	0.5842	0.3982
7.65	-9.7207	-0.3117	-1.2887	-0.0064	0.0090	-0.0073	18.8404	-8.4616	4.4491	0.5241	-0.4748	0.5842	0.3981
7.66	-9.7335	-0.3086	-1.3020	-0.0005	0.0153	-0.0047	18.8586	-8.1105	4.6626	0.5241	-0.4748	0.5842	0.3981
7.67	-9.7337	-0.3057	-1.3114	-0.0049	0.0099	-0.0038	18.9547	-8.2368	4.6789	0.5241	-0.4748	0.5842	0.3981
7.68	-9.7239	-0.3056	-1.3084	-0.0074	0.0120	-0.0070	18.9811	-8.1859	4.8002	0.5241	-0.4748	0.5842	0.3981
7.69	-9.7326	-0.3028	-1.3216	-0.0074	0.0064	-0.0003	19.0272	-8.0915	4.6781	0.5241	-0.4748	0.5842	0.3981
7.7	-9.7414	-0.3081	-1.3311	-0.0005	0.0077	0.0007	18.7544	-8.2409	4.6771	0.5242	-0.4748	0.5842	0.3981
7.71	-9.7316	-0.3140	-1.3223	-0.0012	0.0055	-0.0057	18.9186	-8.1953	4.5424	0.5242	-0.4748	0.5842	0.3981
7.72	-9.7323	-0.3148	-1.3312	-0.0033	0.0103	-0.0042	19.1175	-8.0964	4.6601	0.5242	-0.4748	0.5842	0.3980
7.73	-9.7400	-0.3184	-1.3364	0.0002	0.0095	-0.0011	19.0933	-8.2018	4.6125	0.5242	-0.4748	0.5842	0.3980
7.74	-9.7356	-0.3154	-1.3352	-0.0044	0.0127	-0.0036	19.2320	-8.2294	4.5743	0.5242	-0.4748	0.5843	0.3980
7.75	-9.7340	-0.3196	-1.3310	-0.0036	0.0074	-0.0028	19.0156	-8.0533	4.7147	0.5242	-0.4748	0.5843	0.3980
7.76	-9.7348	-0.3180	-1.3266	-0.0064	0.0011	0.0017	18.9693	-7.9195	4.6167	0.5242	-0.4748	0.5842	0.3980
7.77	-9.7324	-0.3192	-1.3115	0.0033	0.0060	0.0018	19.0801	-8.0647	4.7949	0.5242	-0.4747	0.5843	0.3980
7.78	-9.7288	-0.3206	-1.3122	-0.0007	0.0126	0.0005	18.8871	-8.0385	4.6064	0.5243	-0.4747	0.5843	0.3980
7.79	-9.7291	-0.3154	-1.3118	-0.0030	0.0082	0.0020	19.0511	-8.2114	4.4709	0.5242	-0.4747	0.5843	0.3980
7.8	-9.7311	-0.3144	-1.3073	-0.0029	0.0102	-0.0023	18.9531	-8.1642	4.4953	0.5243	-0.4747	0.5843	0.3980
7.81	-9.7301	-0.3129	-1.3116	-0.0052	0.0121	-0.0039	18.9762	-8.0240	4.5871	0.5242	-0.4747	0.5843	0.3980
7.82	-9.7297	-0.3113	-1.3090	-0.0039	0.0061	-0.0047	19.1102	-8.1761	4.5711	0.5243	-0.4747	0.5843	0.3980
7.83	-9.7325	-0.3154	-1.2985	-0.0070	0.0043	-0.0046	18.8651	-8.0638	4.4490	0.5243	-0.4747	0.5843	0.3980
7.84	-9.7387	-0.3151	-1.3047	-0.0073	0.0122	-0.0073	18.8556	-8.0439	4.5730	0.5243	-0.4747	0.5843	0.3980
7.85	-9.7249	-0.3150	-1.3017	-0.0086	0.0034	-0.0081	19.0020	-8.1416	4.7845	0.5243	-0.4748	0.5842	0.3979
7.86	-9.7211	-0.3144	-1.3011	-0.0093	0.0117	-0.0013	18.9649	-8.0059	4.8833	0.5243	-0.4748	0.5842	0.3980
7.87	-9.7383	-0.3133	-1.3064	-0.0032	0.0053	-0.0052	18.8257	-8.1361	4.7317	0.5243	-0.4748	0.5842	0.3980
7.88	-9.7303	-0.3129	-1.3003	0.0037	0.0077	-0.0004	18.9621	-8.0623	4.4497	0.5243	-0.4747	0.5842	0.3979
7.89	-9.7296	-0.3117	-1.2982	-0.0043	0.0147	0.0004	18.9855	-8.0207	4.6418	0.5243	-0.4747	0.5843	0.3979
7.9	-9.7340	-0.3115	-1.3118	-0.0040	0.0053	0.0013	19.0101	-8.1107	4.4887	0.5243	-0.4747	0.5843	0.3979
7.91	-9.7274	-0.3136	-1.3074	-0.0051	0.0098	0.0012	18.9220	-8.1380	4.5790	0.5243	-0.4747	0.5843	0.3979
7.92	-9.7257	-0.3155	-1.3031	-0.0018	0.0080	-0.0029	19.1354	-8.0512	4.5750	0.5243	-0.4747	0.5843	0.3979
7.93	-9.7270	-0.3140	-1.3154	-0.0055	0.0067	-0.0010	19.0155	-8.2514	4.4920	0.5243	-0.4747	0.5843	0.3979
7.94	-9.7295	-0.3128	-1.3163	-0.0065	0.0034	0.0013	19.0237	-8.0070	4.6756	0.5243	-0.4747	0.5843	0.3979
7.95	-9.7334	-0.3152	-1.3209	-0.0001	0.0090	-0.0041	19.1221	-8.1569	4.6808	0.5244	-0.4747	0.5843	0.3979
7.96	-9.7348	-0.3248	-1.3280	-0.0011	0.0096	-0.0062	19.0926	-7.9969	4.5447	0.5244	-0.4747	0.5843	0.3979
7.97	-9.7318	-0.3224	-1.3228	-0.0032	0.0012	0.0042	19.0287	-8.1352	4.6578	0.5244	-0.4746	0.5843	0.3979
7.98	-9.7307	-0.3180	-1.3230	0.0016	0.0072	-0.0012	18.9662	-8.2887	4.8948	0.5244	-0.4746	0.5843	0.3979
7.99	-9.7318	-0.3222	-1.3256	-0.0073	0.0112	-0.0053	18.9399	-7.8987	4.7176	0.5244	-0.4746	0.5843	0.3979
8	-9.7273	-0.3217	-1.3214	-0.0041	0.0109	-0.0009	18.9536	-8.0395	4.5383	0.5244	-0.4746	0.5843	0.3979
8.01	-9.7341	-0.3161	-1.3150	-0.0076	0.0151	-0.0066	18.7891	-8.1851	4.6311	0.5244	-0.4747	0.5843	0.3979
8.02	-9.7319	-0.3185	-1.3122	-0.0053	0.0116	0.0011	18.7930	-8.0359	4.7756	0.5244	-0.4747	0.5843	0.3979
8.03	-9.7270	-0.3157	-1.3026	-0.0034	0.0154	-0.0046	18.7824	-8.0642	4.6204	0.5244	-0.4747	0.5843	0.3978
8.04	-9.7353	-0.3125	-1.3106	-0.0035	0.0151	-0.0040	19.0884	-8.1755	4.5995	0.5244	-0.4747	0.5844	0.3978
8.05	-9.7355	-0.3149	-1.3192	-0.0046	0.0112	-0.0022	18.8691	-8.0093	4.7317	0.5244	-0.4747	0.5844	0.3978
8.06	-9.7261	-0.3207	-1.3022	-0.0133	0.0113	-0.0043	18.9014	-7.8498	4.4293	0.5243	-0.4747	0.5843	0.3978
8.07	-9.7360	-0.3247	-1.3117	-0.0041	0.0129	-0.0005	18.8078	-7.9266	4.5521	0.5243	-0.4747	0.5844	0.3978
8.08	-9.7411	-0.3256	-1.3153	-0.0041	0.0105	-0.0019	18.8877	-8.1728	4.7156	0.5243	-0.4747	0.5844	0.3978
8.09	-9.7278	-0.3286	-1.3143	-0.0064	0.0124	-0.0006	18.9777	-8.3126	4.6362	0.5243	-0.4747	0.5844	0.3978
8.1	-9.7315	-0.3303	-1.3204	-0.0085	0.0124	-0.0063	18.8634	-8.2846	4.8087	0.5243	-0.4748	0.5844	0.3978
8.11	-9.7353	-0.3323	-1.3269	-0.0069	0.0113	-0.0077	19.3526	-8.1851	4.8461	0.5243	-0.4748	0.5844	0.3977
8.12	-9.7290	-0.3316	-1.3260	-0.0026	0.0100	-0.0023	19.5675	-7.9715	4.9062	0.5243	-0.4748	0.5844	0.3977
8.13	-9.7309	-0.3301	-1.3161	0.0023	0.0067	-0.0012	19.4016	-8.0637	4.7960	0.5243	-0.4747	0.5844	0.3977
8.14	-9.7359	-0.3235	-1.3165	-0.0055	0.0045	-0.0009	18.9458	-8.3460	4.5431	0.5244	-0.4747	0.5844	0.3977
8.15	-9.7294	-0.3169	-1.3128	-0.0044	0.0122	0.0011	18.8850	-8.5621	4.4595	0.5243	-0.4747	0.5844	0.3977
8.16	-9.7314	-0.3113	-1.3150	-0.0056	0.0067	0.0039	18.8913	-8.1134	4.6995	0.5243	-0.4747	0.5844	0.3977
8.17	-9.7366	-0.3053	-1.3185	-0.0044	0.0116	-0.0023	18.9118	-8.2003	4.5859	0.5243	-0.4747	0.5844	0.3977
8.18	-9.7307	-0.2977	-1.3121	-0.0066	0.0059	-0.0007	18.7988	-8.1047	4.6218	0.5243	-0.4747	0.5844	0.3977
8.19	-9.7272	-0.3000	-1.3112	-0.0051	0.0017	0.0018	18.8373	-7.9377	4.7272	0.5243	-0.4747	0.5844	0.3977
8.2	-9.7372	-0.3015	-1.3105	-0.0104	0.0085	-0.0006	18.8189	-8.0652	4.5664	0.5243	-0.4747	0.5844	0.3978
8.21	-9.7382	-0.3014	-1.3157	-0.0051	0.0100	-0.0027	18.8322	-7.9968	4.6284	0.5243	-0.4747	0.5844	0.3978
8.22	-9.7324	-0.3052	-1.3070	-0.0054	0.0149	-0.0021	18.8184	-8.0107	4.6847	0.5243	-0.4747	0.5844	0.3977
8.23	-9.7302	-0.3077	-1.3005	-0.0126	0.0100	0.0007	18.8296	-8.2497	4.7498	0.5243	-0.4747	0.5844	0.3978
8.24	-9.7298	-0.3118	-1.3052	-0.0068	0.0106	-0.0001	18.8165	-8.1030	4.8008	0.5243	-0.4747	0.5844	0.3978
8.25	-9.7266	-0.3203	-1.2988	-0.0080	0.0088	-0.0066	18.7237	-8.1259	4.6078	0.5243	-0.4747	0.5844	0.3978
8.26	-9.7350	-0.3181	-1.2973	-0.0069	0.0062	-0.0009	18.9643	-7.9702	4.6156	0.5243	-0.4747	0.5844	0.3978
8.27	-9.7274	-0.3159	-1.2959	-0.0065	0.0115	0.0058	19.0063	-8.2251	4.5139	0.5243	-0.4747	0.5844	0.3978
8.28	-9.7288	-0.3193	-1.2974	0.0011	0.0071	0.0005	18.9814	-8.2754	4.4268	0.5243	-0.4747	0.5845	0.3978
8.29	-9.7335	-0.3208	-1.2993	-0.0039	0.0067	-0.0038	18.8586	-8.1884	4.7036	0.5243	-0.4747	0.5844	0.3978
8.3	-9.7323	-0.3231	-1.3042	-0.0029	0.0093	0.0012	18.7924	-8.2102	4.6708	0.5243	-0.4747	0.5845	0.3978
8.31	-9.7314	-0.3244	-1.3180	-0.0049	0.0144	0.0008	18.9330	-8.2107	4.7144	0.5243	-0.4747	0.5845	0.3978
8.32	-9.7285	-0.3257	-1.3235	-0.0056	0.0095	-0.0010	18.9858	-8.2940	4.5383	0.5243	-0.4747	0.5845	0.3978
8.33	-9.7232	-0.3247	-1.3222	-0.0021	0.0120	-0.0002	19.0156	-8.3034	4.7403	0.5243	-0.4747	0.5845	0.3977
8.34	-9.7321	-0.3249	-1.3307	-0.0134	0.0066	-0.0016	18.8724	-8.1984	4.7967	0.5242	-0.4747	0.5845	0.3978
8.35	-9.7356	-0.3244	-1.3356	-0.0045	0.0116	0.0003	19.0473	-8.2233	4.6816	0.5242	-0.4747	0.5845	0.3978
8.36	-9.7360	-0.3167	-1.3392	-0.0031	0.0072	-0.0006	18.9835	-8.2775	4.8072	0.5242	-0.4747	0.5845	0.3978
8.37	-9.7437	-0.3184	-1.3513	-0.0020	0.0038	-0.0026	18.7267	-8.1472	4.5489	0.5243	-0.4746	0.5845	0.3978
8.38	-9.7287	-0.3172	-1.3406	-0.0055	0.0047	-0.0001	19.0492	-7.9395	4.7239	0.5243	-0.4746	0.5845	0.3978
8.39	-9.7397	-0.3191	-1.3442	-0.0092	0.0074	-0.0070	18.9230	-7.9768	4.6312	0.5243	-0.4746	0.5845	0.3978
8.4	-9.7397	-0.3244	-1.3412	-0.0030	0.0037	-0.0077	18.7902	-8.0652	4.4523	0.5243	-0.4746	0.5845	0.3978
8.41	-9.7309	-0.3231	-1.3281	-0.0062	0.0026	-0.0021	18.9067	-8.0348	4.6047	0.5243	-0.4746	0.5844	0.3978
8.42	-9.7262	-0.3248	-1.3294	-0.0018	0.0045	-0.0048	18.9145	-7.9542	4.5990	0.5244	-0.4746	0.5844	0.3978
8.43	-9.7271	-0.3233	-1.3312	-0.0090	-0.0002	-0.0017	19.0080	-7.9507	4.5800	0.5244	-0.4746	0.5844	0.3978
8.44	-9.7317	-0.3232	-1.3224	-0.0096	0.0022	-0.0013	18.7638	-7.9842	4.6549	0.5244	-0.4746	0.5844	0.3978
8.45	-9.7384	-0.3272	-1.3158	-0.0070	-0.0010	0.0015	18.7064	-8.2417	4.7029	0.5244	-0.4746	0.5844	0.3979
8.46	-9.7360	-0.3266	-1.3029	-0.0088	0.0039	0.0033	19.1847	-8.1639	4.6807	0.5244	-0.4746	0.5843	0.3979
8.47	-9.7233	-0.3317	-1.2850	-0.0063	0.0034	0.0026	19.0569	-8.1276	4.5515	0.5244	-0.4745	0.5843	0.3979
8.48	-9.7338	-0.3286	-1.2890	-0.0071	0.0053	-0.0009	18.9482	-8.3092	4.7282	0.5244	-0.4745	0.5843	0.3979
8.49	-9.7310	-0.3267	-1.2869	-0.0041	-0.0031	-0.0014	19.0211	-8.1959	4.4738	0.5244	-0.4745	0.5843	0.3980
8.5	-9.7183	-0.3304	-1.2746	-0.0036	0.0004	-0.0019	19.0660	-8.0709	4.5732	0.5245	-0.4745	0.5843	0.3980
8.51	-9.7250	-0.3335	-1.2818	-0.0037	0.0047	-0.0003	18.9043	-8.2316	4.5578	0.5245	-0.4745	0.5843	0.3980
8.52	-9.7294	-0.3349	-1.2914	-0.0095	0.0093	-0.0002	18.9807	-8.3908	4.5030	0.5245	-0.4745	0.5843	0.3980
8.53	-9.7248	-0.3232	-1.2907	-0.0019	0.0033	-0.0003	18.9210	-8.2665	4.5219	0.5245	-0.4745	0.5843	0.3980
8.54	-9.7359	-0.3089	-1.2955	-0.0047	0.0062	-0.0010	19.0153	-8.4289	4.3842	0.5245	-0.4744	0.5843	0.3980
8.55	-9.7347	-0.3050	-1.3053	-0.0087	0.0044	-0.0050	18.9757	-8.2321	4.5269	0.5245	-0.4744	0.5843	0.3980
8.56	-9.7279	-0.3048	-1.3010	-0.0114	0.0075	-0.0012	19.0818	-8.0929	4.4283	0.5245	-0.4744	0.5842	0.3980
8.57	-9.7312	-0.3035	-1.3128	-0.0071	0.0166	-0.0031	18.8614	-8.1438	4.4110	0.5245	-0.4745	0.5843	0.3980
8.58	-9.7288	-0.3080	-1.3175	-0.0071	0.0055	-0.0024	18.7777	-7.9155	4.6441	0.5245	-0.4745	0.5843	0.3980
8.59	-9.7290	-0.3040	-1.3243	-0.0023	0.0089	-0.0035	18.7068	-8.1417	4.7099	0.5245	-0.4745	0.5843	0.3980
8.6	-9.7320	-0.3093	-1.3211	-0.0007	0.0102	0.0005	18.9616	-8.0929	4.4789	0.5245	-0.4744	0.5843	0.3980
8.61	-9.7322	-0.3047	-1.3200	-0.0055	0.0077	-0.0035	19.1194	-7.9256	4.6702	0.5245	-0.4745	0.5843	0.3980
8.62	-9.7270	-0.3034	-1.3087	-0.0059	0.0084	-0.0038	19.4019	-7.9025	4.9427	0.5245	-0.4744	0.5843	0.3980
8.63	-9.7326	-0.2964	-1.3067	0.0008	0.0055	0.0007	19.4494	-7.8855	4.7670	0.5245	-0.4744	0.5843	0.3980
8.64	-9.7325	-0.2843	-1.3065	-0.0046	0.0059	0.0034	19.0860	-8.2695	4.8146	0.5245	-0.4744	0.5843	0.3980
8.65	-9.7340	-0.2706	-1.3089	-0.0029	0.0105	0.0010	18.8712	-8.5170	4.7249	0.5245	-0.4744	0.5843	0.3980
8.66	-9.7381	-0.2694	-1.3200	-0.0022	0.0058	0.0008	19.0074	-8.2173	4.6525	0.5245	-0.4744	0.5843	0.3980
8.67	-9.7370	-0.2712	-1.3324	-0.0099	0.0110	0.0016	19.1313	-8.1118	4.6493	0.5245	-0.4744	0.5843	0.3980
8.68	-9.7357	-0.2777	-1.3283	-0.0046	0.0023	-0.0018	19.0915	-8.1243	4.5796	0.5245	-0.4743	0.5843	0.3980
8.69	-9.7407	-0.2890	-1.3356	-0.0094	0.0017	-0.0001	19.1344	-7.9351	4.4893	0.5245	-0.4743	0.5843	0.3981
8.7	-9.7431	-0.2987	-1.3397	-0.0065	0.0083	-0.0038	19.0216	-8.1093	4.5772	0.5245	-0.4743	0.5843	0.3981
8.71	-9.7335	-0.3090	-1.3384	-0.0078	0.0033	0.0019	18.9415	-8.3693	4.5495	0.5245	-0.4743	0.5843	0.3981
8.72	-9.7303	-0.3252	-1.3445	-0.0102	0.0035	-0.0037	19.0849	-7.8716	4.5016	0.5246	-0.4743	0.5843	0.3981
8.73	-9.7310	-0.3415	-1.3414	-0.0010	0.0062	-0.0031	18.9199	-8.0650	4.5976	0.5246	-0.4743	0.5843	0.3981
8.74	-9.7360	-0.3451	-1.3338	-0.0043	-0.0020	-0.0013	19.0646	-8.3400	4.5737	0.5246	-0.4743	0.5842	0.3981
8.75	-9.7337	-0.3585	-1.3331	-0.0031	0.0032	-0.0014	18.9757	-8.0394	4.4335	0.5246	-0.4743	0.5842	0.3981
8.76	-9.7341	-0.3614	-1.3203	-0.0101	0.0074	-0.0054	18.8119	-8.2377	4.6015	0.5246	-0.4743	0.5842	0.3981
8.77	-9.7291	-0.3680	-1.3153	-0.0170	0.0048	-0.0036	18.9666	-8.1309	4.7649	0.5246	-0.4743	0.5842	0.3982
8.78	-9.7235	-0.3750	-1.3003	-0.0057	0.0027	-0.0024	18.9300	-8.0294	4.6495	0.5246	-0.4743	0.5842	0.3982
8.79	-9.7209	-0.3867	-1.2905	-0.0098	0.0076	-0.0012	18.8309	-8.0625	4.6191	0.5246	-0.4743	0.5842	0.3982
8.8	-9.7235	-0.3969	-1.2915	-0.0073	-0.0015	-0.0021	18.9450	-8.0259	4.5394	0.5246	-0.4743	0.5841	0.3982
8.81	-9.7307	-0.3898	-1.2924	-0.0112	0.0013	-0.0030	18.9518	-8.1447	4.6673	0.5247	-0.4743	0.5841	0.3983
8.82	-9.7270	-0.3883	-1.2881	-0.0097	0.0026	0.0022	18.8305	-8.2276	4.6759	0.5247	-0.4743	0.5841	0.3983
8.83	-9.7243	-0.3783	-1.2734	-0.0071	0.0013	0.0058	18.7640	-8.2154	4.5962	0.5247	-0.4742	0.5841	0.3984
8.84	-9.7237	-0.3651	-1.2755	0.0008	0.0053	0.0008	19.1447	-8.1957	4.5794	0.5247	-0.4742	0.5841	0.3984
8.85	-9.7244	-0.3514	-1.2756	-0.0043	0.0084	-0.0013	19.0676	-8.3173	4.4677	0.5247	-0.4742	0.5841	0.3983
8.86	-9.7241	-0.3403	-1.2896	-0.0085	0.0055	0.0019	19.0928	-8.2558	4.3992	0.5247	-0.4742	0.5841	0.3984
8.87	-9.7293	-0.3267	-1.3016	0.0015	0.0077	-0.0004	19.2187	-8.3859	4.6037	0.5247	-0.4742	0.5841	0.3984
8.88	-9.7247	-0.3177	-1.3050	-0.0066	0.0057	-0.0000	18.8005	-8.2143	4.5551	0.5247	-0.4742	0.5841	0.3984
8.89	-9.7315	-0.3070	-1.3105	-0.0063	0.0105	-0.0010	19.1291	-8.1015	4.5972	0.5247	-0.4742	0.5841	0.3984
8.9	-9.7360	-0.3000	-1.3187	-0.0028	0.0104	0.0003	18.8653	-7.9746	4.6886	0.5247	-0.4742	0.5841	0.3984
8.91	-9.7276	-0.2956	-1.3128	0.0014	0.0064	0.0037	18.7224	-8.0296	4.5726	0.5247	-0.4741	0.5842	0.3984
8.92	-9.7372	-0.2918	-1.3237	-0.0065	0.0070	0.0070	19.0208	-8.0608	4.4643	0.5247	-0.4741	0.5842	0.3984
8.93	-9.7357	-0.2851	-1.3242	-0.0075	0.0034	0.0033	18.9829	-8.1587	4.6387	0.5247	-0.4741	0.5842	0.3984
8.94	-9.7312	-0.2776	-1.3247	-0.0045	0.0099	0.0010	18.7576	-8.2870	4.6647	0.5247	-0.4741	0.5842	0.3984
8.95	-9.7355	-0.2702	-1.3276	-0.0068	0.0079	-0.0020	18.8677	-8.3212	4.6655	0.5247	-0.4741	0.5842	0.3984
8.96	-9.7212	-0.2667	-1.3208	-0.0030	-0.0025	-0.0018	18.9715	-8.0589	4.6485	0.5247	-0.4740	0.5842	0.3984
8.97	-9.7283	-0.2680	-1.3250	-0.0063	0.0030	-0.0032	19.0581	-7.9212	4.6781	0.5247	-0.4740	0.5841	0.3984
8.98	-9.7360	-0.2715	-1.3288	-0.0078	-0.0002	0.0010	18.9482	-8.0349	4.5745	0.5247	-0.4740	0.5841	0.3985
8.99	-9.7365	-0.2740	-1.3147	-0.0048	0.0015	-0.0037	18.9532	-8.1465	4.5700	0.5248	-0.4740	0.5841	0.3985
9	-9.7319	-0.2754	-1.3081	-0.0060	0.0089	-0.0037	18.8207	-8.1125	4.6866	0.5248	-0.4740	0.5841	0.3985
9.01	-9.7426	-0.2819	-1.3095	-0.0056	0.0060	0.0042	18.9451	-7.9809	4.6196	0.5247	-0.4740	0.5841	0.3985
9.02	-9.7298	-0.2902	-1.2999	-0.0051	0.0002	0.0064	18.9326	-7.9264	4.3661	0.5248	-0.4739	0.5841	0.3985
9.03	-9.7309	-0.2900	-1.3045	-0.0037	0.0067	-0.0018	19.0807	-8.2958	4.6290	0.5248	-0.4739	0.5841	0.3985
9.04	-9.7422	-0.3037	-1.3047	-0.0076	0.0028	-0.0001	19.2095	-8.2377	4.6644	0.5248	-0.4739	0.5841	0.3986
9.05	-9.7172	-0.3096	-1.2950	-0.0035	0.0032	-0.0010	19.2036	-8.2036	4.4682	0.5248	-0.4739	0.5841	0.3986
9.06	-9.7293	-0.3070	-1.3070	-0.0053	0.0060	0.0025	19.0897	-8.1894	4.5058	0.5248	-0.4739	0.5841	0.3986
9.07	-9.7424	-0.3157	-1.3260	-0.0059	0.0050	0.0013	19.0457	-8.2594	4.6985	0.5248	-0.4739	0.5841	0.3986
9.08	-9.7213	-0.3170	-1.3144	-0.0057	0.0027	-0.0003	19.0925	-8.2493	4.6538	0.5248	-0.4738	0.5841	0.3986
9.09	-9.7330	-0.3237	-1.3185	-0.0065	0.0060	0.0000	18.9852	-8.1953	4.6661	0.5248	-0.4738	0.5841	0.3986
9.1	-9.7423	-0.3248	-1.3289	-0.0052	0.0040	0.0006	19.0589	-8.2947	4.6641	0.5248	-0.4738	0.5841	0.3986
9.11	-9.7263	-0.3266	-1.3162	-0.0063	0.0070	-0.0003	19.2504	-8.1895	4.9477	0.5248	-0.4738	0.5841	0.3987
9.12	-9.7312	-0.3293	-1.3192	-0.0051	0.0081	-0.0087	19.4431	-7.9472	4.8790	0.5248	-0.4738	0.5841	0.3986
9.13	-9.7397	-0.3334	-1.3283	-0.0081	0.0022	-0.0046	19.2180	-8.1242	4.9115	0.5248	-0.4738	0.5840	0.3986
9.14	-9.7293	-0.3384	-1.3114	-0.0152	0.0061	-0.0087	18.9581	-8.4079	4.5992	0.5248	-0.4739	0.5840	0.3987
9.15	-9.7279	-0.3415	-1.3162	-0.0018	0.0059	-0.0067	18.8102	-8.4728	4.4847	0.5249	-0.4739	0.5840	0.3986
9.16	-9.7359	-0.3420	-1.3218	-0.0065	0.0056	-0.0056	18.6219	-8.2479	4.8159	0.5249	-0.4739	0.5840	0.3986
9.17	-9.7281	-0.3353	-1.3197	-0.0079	0.0111	-0.0028	18.7825	-8.1018	4.6530	0.5249	-0.4739	0.5840	0.3986
9.18	-9.7255	-0.3385	-1.3212	-0.0042	0.0048	-0.0044	18.7435	-8.1405	4.8435	0.5249	-0.4739	0.5840	0.3986
9.19	-9.7352	-0.3388	-1.3242	-0.0068	0.0036	-0.0050	18.9277	-7.9346	4.6351	0.5249	-0.4739	0.5839	0.3986
9.2	-9.7329	-0.3393	-1.3249	-0.0005	0.0087	0.0014	18.8990	-8.0538	4.5011	0.5249	-0.4739	0.5840	0.3986
9.21	-9.7308	-0.3378	-1.3190	-0.0031	-0.0001	-0.0001	19.0399	-8.1310	4.5121	0.5249	-0.4738	0.5840	0.3986
9.22	-9.7319	-0.3358	-1.3266	-0.0058	0.0033	-0.0015	19.0796	-8.1418	4.7025	0.5249	-0.4738	0.5839	0.3986
9.23	-9.7293	-0.3290	-1.3103	-0.0065	0.0074	0.0001	19.0849	-8.3096	4.6162	0.5249	-0.4738	0.5839	0.3987
9.24	-9.7335	-0.3257	-1.3085	-0.0023	0.0119	-0.0006	18.9837	-8.1962	4.6137	0.5249	-0.4738	0.5840	0.3986
9.25	-9.7331	-0.3238	-1.2997	-0.0038	0.0038	0.0001	19.0066	-8.0950	4.6876	0.5249	-0.4738	0.5840	0.3986
9.26	-9.7285	-0.3215	-1.2967	-0.0043	0.0043	0.0012	18.9634	-8.1641	4.3592	0.5249	-0.4738	0.5840	0.3987
9.27	-9.7295	-0.3170	-1.2943	0.0008	0.0126	-0.0036	18.8110	-8.0130	4.6188	0.5250	-0.4738	0.5840	0.3986
9.28	-9.7271	-0.3189	-1.2886	-0.0120	0.0111	0.0046	19.0365	-8.1861	4.5885	0.5249	-0.4738	0.5840	0.3986
9.29	-9.7245	-0.3158	-1.2925	-0.0013	0.0046	0.0012	18.9676	-8.1648	4.6334	0.5249	-0.4738	0.5840	0.3987
9.3	-9.7324	-0.3201	-1.2962	0.0006	0.0042	-0.0023	19.0486	-8.3751	4.5245	0.5249	-0.4737	0.5840	0.3986
9.31	-9.7313	-0.3186	-1.3018	-0.0060	0.0075	-0.0063	18.7156	-8.2764	4.5327	0.5250	-0.4738	0.5840	0.3986
9.32	-9.7315	-0.3200	-1.3049	-0.0070	0.0095	-0.0035	18.9124	-8.1253	4.3489	0.5250	-0.4738	0.5840	0.3986
9.33	-9.7281	-0.3205	-1.3077	-0.0082	0.0061	-0.0023	19.0466	-8.0252	4.4214	0.5250	-0.4738	0.5840	0.3986
9.34	-9.7286	-0.3161	-1.3153	-0.0080	0.0083	-0.0020	18.9082	-7.9350	4.6292	0.5249	-0.4738	0.5840	0.3986
9.35	-9.7374	-0.3100	-1.3193	-0.0101	0.0096	-0.0066	18.8257	-8.0488	4.5807	0.5249	-0.4738	0.5840	0.3986
9.36	-9.7331	-0.3072	-1.3162	-0.0041	0.0046	-0.0062	18.8347	-7.9772	4.7415	0.5250	-0.4738	0.5840	0.3986
9.37	-9.7332	-0.3039	-1.3050	-0.0073	0.0018	-0.0032	18.8325	-8.2724	4.5967	0.5250	-0.4738	0.5839	0.3986
9.38	-9.7288	-0.3044	-1.3039	-0.0062	0.0042	-0.0007	18.8364	-8.0857	4.6082	0.5250	-0.4738	0.5839	0.3986
9.39	-9.7340	-0.3044	-1.3072	-0.0002	0.0113	0.0004	18.9304	-8.2758	4.6956	0.5250	-0.4738	0.5840	0.3986
9.4	-9.7297	-0.3040	-1.3019	-0.0017	0.0027	-0.0002	19.0682	-8.2606	4.7383	0.5250	-0.4738	0.5840	0.3986
9.41	-9.7287	-0.3061	-1.3075	-0.0018	0.0019	0.0001	19.0194	-8.1179	4.8067	0.5250	-0.4738	0.5840	0.3986
9.42	-9.7332	-0.3076	-1.3161	-0.0107	0.0058	-0.0012	18.8755	-8.1218	4.7504	0.5250	-0.4738	0.5839	0.3986
9.43	-9.7309	-0.3073	-1.3187	0.0012	-0.0026	-0.0019	19.0728	-8.3945	4.8230	0.5251	-0.4737	0.5839	0.3987
9.44	-9.7315	-0.3052	-1.3185	-0.0001	0.0053	-0.0022	19.0258	-8.2862	4.6852	0.5251	-0.4737	0.5839	0.3986
9.45	-9.7369	-0.2985	-1.3195	-0.0064	0.0071	0.0015	18.9202	-8.3825	4.3880	0.5251	-0.4737	0.5839	0.3986
9.46	-9.7311	-0.3011	-1.3226	-0.0067	0.0089	0.0010	18.8995	-8.3503	4.6862	0.5251	-0.4737	0.5839	0.3987
9.47	-9.7256	-0.3058	-1.3149	-0.0078	0.0060	-0.0025	18.8150	-8.1472	4.4993	0.5251	-0.4737	0.5839	0.3987
9.48	-9.7399	-0.3087	-1.3224	-0.0071	0.0086	-0.0051	18.8490	-8.3056	4.6139	0.5251	-0.4737	0.5839	0.3987
9.49	-9.7343	-0.3115	-1.3238	-0.0045	0.0096	-0.0012	18.8293	-8.2950	4.4995	0.5251	-0.4737	0.5839	0.3986
9.5	-9.7249	-0.3057	-1.3201	-0.0016	-0.0014	-0.0030	18.8546	-8.1625	4.3010	0.5251	-0.4737	0.5839	0.3986
9.51	-9.7292	-0.3133	-1.3202	-0.0088	0.0102	-0.0007	18.8172	-8.1164	4.5602	0.5251	-0.4737	0.5839	0.3986
9.52	-9.7350	-0.3170	-1.3193	-0.0077	0.0042	-0.0088	18.9126	-8.1338	4.7197	0.5251	-0.4737	0.5839	0.3986
9.53	-9.7241	-0.3184	-1.3289	-0.0007	0.0029	-0.0072	18.9202	-8.1242	4.5458	0.5251	-0.4737	0.5839	0.3986
9.54	-9.7262	-0.3250	-1.3211	-0.0053	0.0081	-0.0038	18.9061	-8.1272	4.5497	0.5251	-0.4737	0.5839	0.3986
9.55	-9.7375	-0.3279	-1.3336	-0.0097	0.0131	-0.0062	18.7152	-8.1339	4.6132	0.5251	-0.4738	0.5839	0.3986
9.56	-9.7307	-0.3319	-1.3270	-0.0054	0.0110	-0.0036	18.9523	-8.1213	4.6067	0.5251	-0.4738	0.5839	0.3986
9.57	-9.7304	-0.3361	-1.3190	-0.0067	0.0072	0.0001	18.8681	-8.1389	4.5728	0.5251	-0.4738	0.5839	0.3986
9.58	-9.7250	-0.3364	-1.3129	-0.0059	0.0112	-0.0008	18.8696	-8.2823	4.5034	0.5251	-0.4738	0.5839	0.3986
9.59	-9.7296	-0.3386	-1.3108	-0.0021	0.0084	0.0010	18.9926	-8.2990	4.5115	0.5251	-0.4738	0.5839	0.3986
9.6	-9.7268	-0.3444	-1.3053	-0.0019	0.0103	0.0002	19.1124	-8.2784	4.6414	0.5251	-0.4738	0.5839	0.3986
9.61	-9.7274	-0.3509	-1.2949	-0.0046	0.0120	-0.0042	19.1434	-8.1690	4.8418	0.5251	-0.4738	0.5840	0.3985
9.62	-9.7323	-0.3481	-1.3025	-0.0025	0.0074	0.0008	19.6358	-8.0274	4.9474	0.5251	-0.4738	0.5840	0.3985
9.63	-9.7338	-0.3465	-1.3018	-0.0012	0.0076	0.0025	19.2907	-8.1021	4.7853	0.5251	-0.4737	0.5840	0.3985
9.64	-9.7272	-0.3370	-1.2973	0.0002	0.0093	-0.0011	18.9501	-8.3256	4.6564	0.5251	-0.4737	0.5840	0.3985
9.65	-9.7351	-0.3198	-1.3019	-0.0023	0.0098	-0.0011	18.8675	-8.4969	4.7334	0.5251	-0.4737	0.5840	0.3985
9.66	-9.7404	-0.3035	-1.3131	0.0005	0.0131	0.0009	18.9047	-8.0243	4.5430	0.5251	-0.4737	0.5841	0.3984
9.67	-9.7256	-0.3042	-1.3138	-0.0089	0.0079	0.0006	19.0515	-8.1681	4.5845	0.5251	-0.4737	0.5841	0.3985
9.68	-9.7322	-0.3096	-1.3237	-0.0038	0.0158	-0.0071	18.8071	-8.0804	4.6748	0.5250	-0.4737	0.5841	0.3984
9.69	-9.7348	-0.3194	-1.3233	-0.0045	0.0129	-0.0041	18.8950	-8.1030	4.6080	0.5250	-0.4738	0.5841	0.3984
9.7	-9.7323	-0.3186	-1.3253	-0.0074	0.0079	-0.0055	18.8591	-8.1487	4.4406	0.5250	-0.4738	0.5841	0.3984
9.71	-9.7319	-0.3130	-1.3209	-0.0037	0.0071	-0.0036	18.9639	-8.1442	4.6351	0.5250	-0.4738	0.5841	0.3984
9.72	-9.7321	-0.3060	-1.3199	-0.0046	0.0036	-0.0012	18.8149	-8.2370	4.6087	0.5250	-0.4738	0.5841	0.3984
9.73	-9.7294	-0.2997	-1.3163	-0.0004	0.0087	-0.0056	18.9609	-7.9999	4.5552	0.5251	-0.4738	0.5841	0.3983
9.74	-9.7329	-0.3032	-1.3244	-0.0018	0.0122	-0.0007	18.9407	-8.1922	4.5500	0.5251	-0.4738	0.5841	0.3983
9.75	-9.7345	-0.3075	-1.3176	-0.0033	0.0154	-0.0022	18.9609	-8.0527	4.7483	0.5250	-0.4738	0.5841	0.3983
9.76	-9.7281	-0.3071	-1.3129	-0.0043	0.0043	0.0005	18.8911	-7.9681	4.8119	0.5250	-0.4738	0.5841	0.3983
9.77	-9.7298	-0.3043	-1.3078	-0.0067	0.0052	0.0015	18.8397	-8.2499	4.6338	0.5250	-0.4738	0.5841	0.3983
9.78	-9.7320	-0.3021	-1.3047	-0.0041	0.0093	0.0037	18.9923	-8.1135	4.5561	0.5250	-0.4738	0.5842	0.3983
9.79	-9.7290	-0.3028	-1.2973	-0.0076	0.0092	-0.0014	19.0385	-8.2739	4.5954	0.5250	-0.4738	0.5842	0.3983
9.8	-9.7353	-0.3029	-1.2974	-0.0031	0.0125	0.0011	19.0001	-8.1195	4.4824	0.5250	-0.4738	0.5842	0.3983
9.81	-9.7288	-0.3079	-1.2898	-0.0022	0.0123	0.0034	18.8097	-8.1634	4.5608	0.5250	-0.4738	0.5842	0.3983
9.82	-9.7267	-0.3103	-1.2808	-0.0040	0.0122	-0.0006	18.9625	-7.9809	4.6847	0.5250	-0.4738	0.5843	0.3983
9.83	-9.7261	-0.3118	-1.2782	-0.0048	0.0088	-0.0003	18.9686	-8.2004	4.6237	0.5250	-0.4738	0.5843	0.3982
9.84	-9.7258	-0.3105	-1.2810	-0.0030	-0.0012	-0.0012	18.7404	-8.1499	4.7438	0.5250	-0.4737	0.5843	0.3983
9.85	-9.7306	-0.3140	-1.2863	-0.0035	0.0118	0.0053	18.9764	-8.1457	4.7414	0.5250	-0.4737	0.5843	0.3983
9.86	-9.7305	-0.3209	-1.2979	-0.0086	0.0127	0.0023	18.9570	-8.3547	4.6078	0.5249	-0.4737	0.5843	0.3983
9.87	-9.7294	-0.3318	-1.3039	-0.0036	0.0135	-0.0034	18.8853	-8.2502	4.5302	0.5249	-0.4738	0.5843	0.3982
9.88	-9.7291	-0.3425	-1.3223	-0.0070	0.0156	0.0020	18.8703	-8.0297	4.7540	0.5249	-0.4738	0.5844	0.3982
9.89	-9.7342	-0.3535	-1.3343	-0.0041	0.0132	-0.0009	18.8278	-8.0945	4.7304	0.5249	-0.4738	0.5844	0.3982
9.9	-9.7324	-0.3569	-1.3409	-0.0101	0.0089	-0.0034	18.6712	-8.2864	4.5791	0.5248	-0.4738	0.5844	0.3982
9.91	-9.7304	-0.3467	-1.3432	-0.0025	0.0057	-0.0018	18.9876	-8.1192	4.5526	0.5249	-0.4738	0.5844	0.3982
9.92	-9.7408	-0.3417	-1.3484	0.0009	0.0110	-0.0024	18.9149	-8.1430	4.6733	0.5249	-0.4738	0.5844	0.3982
9.93	-9.7372	-0.3296	-1.3472	-0.0064	0.0086	-0.0007	19.0000	-8.1329	4.5100	0.5248	-0.4738	0.5844	0.3982
9.94	-9.7311	-0.3234	-1.3398	-0.0055	0.0085	-0.0024	18.8168	-8.1311	4.6662	0.5248	-0.4738	0.5844	0.3981
9.95	-9.7336	-0.3189	-1.3388	-0.0054	0.0072	0.0007	18.7694	-8.2148	4.5604	0.5248	-0.4738	0.5844	0.3981
9.96	-9.7350	-0.3145	-1.3325	-0.0016	0.0022	0.0020	18.9936	-8.2351	4.4795	0.5248	-0.4738	0.5844	0.3982
9.97	-9.7332	-0.3184	-1.3256	-0.0078	0.0030	0.0044	19.0821	-8.0240	4.6070	0.5248	-0.4737	0.5844	0.3982
9.98	-9.7368	-0.3205	-1.3192	-0.0034	0.0095	-0.0051	19.1158	-8.1854	4.5347	0.5248	-0.4738	0.5844	0.3982
9.99	-9.7320	-0.3249	-1.3112	-0.0062	0.0079	-0.0014	19.1274	-8.3130	4.7008	0.5248	-0.4738	0.5844	0.3982
10	-9.7310	-0.3246	-1.3000	-0.0053	0.0138	0.0001	18.8258	-8.3101	4.6116	0.5248	-0.4738	0.5845	0.3981
10.01	-9.7293	-0.3216	-1.2928	0.0015	0.0055	-0.0017	18.8598	-8.2577	4.5570	0.5248	-0.4738	0.5845	0.3981
10.02	-9.7258	-0.3147	-1.2936	-0.0046	0.0039	0.0005	19.0785	-8.1377	4.5715	0.5248	-0.4737	0.5845	0.3981
10.03	-9.7362	-0.3086	-1.2930	-0.0058	0.0144	-0.0010	18.9022	-8.0155	4.5687	0.5248	-0.4738	0.5845	0.3981
10.04	-9.7297	-0.3017	-1.2860	-0.0065	0.0105	0.0038	18.9938	-8.1237	4.5467	0.5248	-0.4738	0.5845	0.3981
10.05	-9.7280	-0.2953	-1.2827	-0.0074	0.0054	-0.0028	18.8566	-8.0747	4.6467	0.5248	-0.4738	0.5845	0.3981
10.06	-9.7341	-0.2972	-1.2945	-0.0051	0.0076	-0.0033	18.8898	-8.0483	4.5670	0.5248	-0.4738	0.5845	0.3981
10.07	-9.7274	-0.2988	-1.2920	-0.0075	0.0130	-0.0027	18.8263	-8.2587	4.5647	0.5248	-0.4738	0.5845	0.3981
10.08	-9.7235	-0.3058	-1.2934	-0.0052	0.0104	-0.0041	18.8085	-7.8781	4.7384	0.5248	-0.4738	0.5845	0.3981
10.09	-9.7344	-0.3119	-1.3054	-0.0044	0.0168	-0.0038	18.9515	-8.2361	4.7288	0.5247	-0.4738	0.5845	0.3980
10.1	-9.7357	-0.3176	-1.3136	-0.0056	0.0133	-0.0040	18.9585	-8.2936	4.7753	0.5247	-0.4739	0.5846	0.3980
10.11	-9.7267	-0.3252	-1.3153	-0.0069	0.0076	-0.0067	19.0289	-7.9416	4.8135	0.5247	-0.4739	0.5846	0.3980
10.12	-9.7318	-0.3217	-1.3218	-0.0072	0.0041	-0.0026	19.0620	-7.9848	4.6826	0.5247	-0.4739	0.5845	0.3980
10.13	-9.7351	-0.3167	-1.3279	-0.0068	0.0092	-0.0011	19.0242	-8.0153	4.7144	0.5247	-0.4739	0.5845	0.3980
10.14	-9.7307	-0.3111	-1.3218	-0.0008	0.0101	0.0029	18.9715	-8.2834	4.5692	0.5247	-0.4739	0.5846	0.3980
10.15	-9.7306	-0.3045	-1.3225	-0.0023	0.0120	0.0007	18.9487	-8.6460	4.6133	0.5247	-0.4739	0.5846	0.3980
10.16	-9.7373	-0.3012	-1.3258	-0.0030	0.0048	-0.0028	18.9465	-8.1899	4.6074	0.5247	-0.4739	0.5846	0.3980
10.17	-9.7331	-0.3039	-1.3170	-0.0024	0.0101	-0.0001	18.9892	-8.2998	4.6113	0.5247	-0.4739	0.5846	0.3979
10.18	-9.7349	-0.3083	-1.3226	-0.0064	0.0115	0.0025	18.9537	-8.2807	4.7314	0.5247	-0.4739	0.5846	0.3979
10.19	-9.7321	-0.3108	-1.3153	-0.0037	0.0076	0.0036	19.1778	-8.1046	4.6371	0.5247	-0.4739	0.5847	0.3979
10.2	-9.7327	-0.3123	-1.3198	-0.0047	0.0165	-0.0025	18.9480	-8.2043	4.5057	0.5247	-0.4739	0.5847	0.3979
10.21	-9.7281	-0.3165	-1.3158	-0.0022	0.0078	0.0008	18.9107	-8.3151	4.5305	0.5246	-0.4739	0.5847	0.3979
10.22	-9.7266	-0.3193	-1.2998	-0.0024	0.0093	-0.0000	18.9733	-8.2588	4.5026	0.5246	-0.4739	0.5847	0.3979
10.23	-9.7332	-0.3221	-1.2989	-0.0041	0.0062	0.0008	19.0408	-8.1097	4.5844	0.5246	-0.4738	0.5847	0.3979
10.24	-9.7270	-0.3181	-1.2962	-0.0063	0.0109	-0.0016	19.0481	-8.1409	4.7085	0.5246	-0.4739	0.5847	0.3979
10.25	-9.7240	-0.3177	-1.2883	-0.0077	0.0133	-0.0010	18.7280	-8.0930	4.6877	0.5246	-0.4739	0.5847	0.3979
10.26	-9.7343	-0.3234	-1.3006	-0.0031	0.0134	-0.0109	18.8625	-8.0336	4.8503	0.5246	-0.4739	0.5847	0.3978
10.27	-9.7343	-0.3308	-1.3073	-0.0060	0.0142	-0.0027	18.6792	-8.0452	4.5550	0.5246	-0.4739	0.5848	0.3978
10.28	-9.7260	-0.3418	-1.3039	-0.0130	0.0087	-0.0060	18.9721	-8.0594	4.6530	0.5246	-0.4740	0.5848	0.3978
10.29	-9.7309	-0.3507	-1.3158	-0.0100	0.0074	-0.0091	18.8944	-7.9988	4.7865	0.5246	-0.4740	0.5847	0.3978
10.3	-9.7400	-0.3552	-1.3234	-0.0076	0.0053	-0.0028	18.7204	-8.2051	4.5832	0.5246	-0.4740	0.5847	0.3978
10.31	-9.7255	-0.3507	-1.3267	-0.0012	0.0094	-0.0036	18.7225	-8.1338	4.5946	0.5246	-0.4740	0.5847	0.3978
10.32	-9.7242	-0.3483	-1.3329	-0.0012	0.0097	0.0021	18.6438	-7.9187	4.7356	0.5246	-0.4740	0.5847	0.3978
10.33	-9.7351	-0.3451	-1.3375	0.0009	0.0104	-0.0003	18.7805	-8.1782	4.7428	0.5246	-0.4740	0.5848	0.3977
10.34	-9.7352	-0.3383	-1.3312	0.0081	0.0083	-0.0012	18.9026	-8.3044	4.6649	0.5246	-0.4740	0.5848	0.3977
10.35	-9.7317	-0.3328	-1.3243	-0.0006	0.0146	0.0004	18.8582	-8.1884	4.6238	0.5246	-0.4740	0.5848	0.3977
10.36	-9.7335	-0.3273	-1.3211	-0.0047	0.0131	0.0006	18.9701	-8.2296	4.6990	0.5246	-0.4740	0.5849	0.3976
10.37	-9.7297	-0.3147	-1.3162	-0.0018	0.0069	-0.0001	19.0562	-8.1585	4.4820	0.5246	-0.4740	0.5849	0.3976
10.38	-9.7304	-0.3053	-1.3093	-0.0036	0.0130	-0.0016	18.7611	-8.4219	4.7144	0.5246	-0.4740	0.5849	0.3976
10.39	-9.7291	-0.3059	-1.3110	-0.0066	0.0123	-0.0046	18.9442	-8.2031	4.5704	0.5246	-0.4740	0.5849	0.3976
10.4	-9.7350	-0.3033	-1.3120	-0.0058	0.0118	0.0016	18.8230	-8.1454	4.4791	0.5245	-0.4740	0.5849	0.3976
10.41	-9.7355	-0.3014	-1.3194	0.0003	0.0113	-0.0010	18.8449	-8.2468	4.6002	0.5245	-0.4740	0.5849	0.3976
10.42	-9.7334	-0.3000	-1.3141	0.0102	0.0026	0.0049	19.1119	-8.1014	4.7042	0.5246	-0.4739	0.5850	0.3975
10.43	-9.7337	-0.2895	-1.3140	0.0074	0.0114	0.0026	18.8435	-7.9932	4.5534	0.5246	-0.4739	0.5850	0.3975
10.44	-9.7339	-0.2792	-1.3173	-0.0030	0.0083	-0.0024	18.8561	-7.9840	4.6714	0.5246	-0.4739	0.5850	0.3975
10.45	-9.7310	-0.2749	-1.3144	0.0020	0.0119	-0.0052	18.8967	-8.1665	4.7022	0.5246	-0.4739	0.5851	0.3974
10.46	-9.7307	-0.2768	-1.3132	-0.0004	0.0059	-0.0071	18.8018	-7.9898	4.6729	0.5246	-0.4739	0.5850	0.3974
10.47	-9.7363	-0.2893	-1.3210	-0.0022	0.0083	-0.0066	18.7663	-8.1282	4.6945	0.5246	-0.4739	0.5850	0.3974
10.48	-9.7282	-0.2930	-1.3092	-0.0032	0.0106	-0.0021	18.7237	-8.0622	4.3950	0.5246	-0.4739	0.5851	0.3974
10.49	-9.7308	-0.2989	-1.3094	-0.0070	-0.0007	-0.0044	18.7190	-8.0413	4.5346	0.5247	-0.4739	0.5850	0.3974
10.5	-9.7364	-0.3037	-1.3075	-0.0049	0.0067	-0.0054	18.8801	-8.0396	4.8417	0.5247	-0.4739	0.5850	0.3974
10.51	-9.7287	-0.3043	-1.2994	-0.0078	0.0070	-0.0042	18.7974	-8.0841	4.5153	0.5247	-0.4739	0.5850	0.3974
10.52	-9.7254	-0.3078	-1.2978	-0.0060	0.0069	-0.0013	18.6819	-8.2151	4.5091	0.5247	-0.4739	0.5850	0.3974
10.53	-9.7348	-0.3090	-1.3034	-0.0073	0.0052	0.0011	18.9576	-8.4089	4.5297	0.5247	-0.4739	0.5850	0.3974
10.54	-9.7335	-0.3138	-1.3067	-0.0126	0.0010	-0.0008	18.9682	-8.3190	4.6583	0.5247	-0.4739	0.5850	0.3974
10.55	-9.7195	-0.3172	-1.2951	-0.0054	-0.0031	0.0008	18.9715	-8.0593	4.5077	0.5247	-0.4739	0.5850	0.3974
10.56	-9.7306	-0.3213	-1.2979	-0.0024	0.0096	0.0032	18.9848	-8.3457	4.5377	0.5247	-0.4739	0.5850	0.3974
10.57	-9.7338	-0.3253	-1.3023	-0.0024	0.0075	-0.0031	18.7360	-8.3295	4.4857	0.5247	-0.4739	0.5850	0.3974
10.58	-9.7273	-0.3282	-1.3001	0.0042	0.0041	-0.0049	18.9413	-8.1653	4.6136	0.5247	-0.4739	0.5850	0.3974
10.59	-9.7316	-0.3360	-1.3103	-0.0014	0.0104	-0.0049	18.9676	-8.2334	4.8150	0.5247	-0.4739	0.5850	0.3974
10.6	-9.7352	-0.3399	-1.3124	-0.0022	0.0062	-0.0003	18.9805	-8.1008	4.6653	0.5247	-0.4738	0.5850	0.3973
10.61	-9.7304	-0.3434	-1.3098	-0.0035	0.0043	-0.0011	19.1904	-8.2623	4.7080	0.5248	-0.4738	0.5850	0.3974
10.62	-9.7242	-0.3439	-1.3123	-0.0097	0.0021	-0.0047	19.2562	-8.0751	4.7174	0.5248	-0.4738	0.5850	0.3974
10.63	-9.7350	-0.3478	-1.3161	-0.0028	0.0093	-0.0025	19.1887	-7.9700	4.8159	0.5248	-0.4738	0.5850	0.3973
10.64	-9.7399	-0.3428	-1.3174	-0.0060	0.0089	-0.0052	18.9098	-8.2551	4.6915	0.5248	-0.4739	0.5850	0.3973
10.65	-9.7239	-0.3406	-1.3068	-0.0066	0.0050	-0.0024	18.8549	-8.4997	4.2803	0.5248	-0.4739	0.5850	0.3973
10.66	-9.7266	-0.3359	-1.3139	-0.0046	0.0100	-0.0025	18.9200	-8.0284	4.4551	0.5248	-0.4739	0.5850	0.3973
10.67	-9.7345	-0.3345	-1.3129	-0.0084	0.0051	-0.0027	19.1790	-8.0463	4.7081	0.5248	-0.4739	0.5850	0.3973
10.68	-9.7318	-0.3317	-1.3153	-0.0047	-0.0003	-0.0018	18.9486	-8.0424	4.6184	0.5248	-0.4739	0.5849	0.3973
10.69	-9.7260	-0.3293	-1.3064	-0.0051	0.0071	-0.0014	19.0354	-8.0526	4.5295	0.5248	-0.4739	0.5849	0.3973
10.7	-9.7368	-0.3271	-1.3152	-0.0073	0.0003	0.0064	19.0506	-8.0295	4.2917	0.5248	-0.4738	0.5849	0.3974
10.71	-9.7424	-0.3253	-1.3160	-0.0072	0.0030	0.0009	19.0693	-8.0688	4.4356	0.5248	-0.4738	0.5849	0.3974
10.72	-9.7280	-0.3264	-1.3085	-0.0113	0.0035	0.0049	19.1312	-8.1385	4.5180	0.5248	-0.4738	0.5849	0.3974
10.73	-9.7314	-0.3251	-1.3078	-0.0064	-0.0010	0.0033	18.9386	-8.1291	4.4260	0.5248	-0.4738	0.5849	0.3975
10.74	-9.7400	-0.3199	-1.3135	-0.0021	0.0040	0.0036	19.0096	-8.1157	4.2714	0.5248	-0.4738	0.5849	0.3975
10.75	-9.7305	-0.3145	-1.3161	-0.0077	0.0056	-0.0010	18.7933	-8.1616	4.6211	0.5248	-0.4737	0.5849	0.3975
10.76	-9.7279	-0.3103	-1.3064	-0.0006	0.0046	-0.0005	18.9055	-8.0475	4.4167	0.5248	-0.4737	0.5849	0.3975
10.77	-9.7349	-0.3099	-1.3138	-0.0066	0.0009	-0.0011	19.0734	-8.1267	4.4855	0.5248	-0.4737	0.5849	0.3975
10.78	-9.7318	-0.3059	-1.3065	-0.0008	0.0087	0.0013	18.9509	-8.1135	4.4640	0.5249	-0.4737	0.5849	0.3975
10.79	-9.7302	-0.3083	-1.3005	-0.0051	0.0069	0.0046	19.1002	-8.0402	4.4304	0.5248	-0.4737	0.5849	0.3975
10.8	-9.7322	-0.3084	-1.3095	-0.0078	0.0079	-0.0030	18.9595	-8.2300	4.7265	0.5248	-0.4737	0.5849	0.3975
10.81	-9.7304	-0.3089	-1.3065	-0.0067	0.0012	-0.0049	18.9660	-8.1989	4.5399	0.5249	-0.4737	0.5849	0.3975
10.82	-9.7269	-0.3062	-1.2993	-0.0075	0.0064	-0.0018	18.9742	-8.3337	4.4962	0.5249	-0.4737	0.5849	0.3976
10.83	-9.7303	-0.3025	-1.3032	-0.0086	0.0044	-0.0026	19.1313	-8.2267	4.4785	0.5249	-0.4737	0.5849	0.3976
10.84	-9.7423	-0.2885	-1.3141	-0.0029	0.0074	-0.0008	19.0785	-8.2018	4.5667	0.5249	-0.4737	0.5849	0.3976
10.85	-9.7214	-0.2848	-1.3003	-0.0054	0.0081	-0.0037	18.8291	-8.1349	4.6880	0.5249	-0.4737	0.5849	0.3975
10.86	-9.7306	-0.2994	-1.3161	-0.0073	0.0103	-0.0024	18.8203	-7.9760	4.4826	0.5249	-0.4737	0.5849	0.3976
10.87	-9.7404	-0.3028	-1.3311	-0.0100	0.0064	-0.0059	18.9708	-8.0065	4.5313	0.5249	-0.4737	0.5849	0.3976
10.88	-9.7273	-0.3078	-1.3166	-0.0087	0.0039	-0.0026	18.9603	-8.1542	4.6929	0.5249	-0.4737	0.5848	0.3976
10.89	-9.7250	-0.3139	-1.3195	-0.0060	0.0061	-0.0003	18.9693	-8.0079	4.5202	0.5249	-0.4737	0.5848	0.3976
10.9	-9.7402	-0.3220	-1.3329	-0.0025	0.0058	-0.0006	18.9602	-8.2481	4.6586	0.5249	-0.4737	0.5848	0.3976
10.91	-9.7453	-0.3356	-1.3338	0.0023	0.0075	-0.0033	18.9712	-8.1052	4.6120	0.5249	-0.4737	0.5848	0.3975
10.92	-9.7271	-0.3288	-1.3247	-0.0048	0.0033	-0.0049	18.9583	-8.1720	4.3643	0.5249	-0.4737	0.5848	0.3975
10.93	-9.7292	-0.3247	-1.3266	-0.0033	0.0093	-0.0018	19.1250	-8.1494	4.2925	0.5249	-0.4737	0.5848	0.3975
10.94	-9.7387	-0.3153	-1.3336	-0.0010	0.0090	0.0002	19.0907	-8.0065	4.3680	0.5249	-0.4737	0.5848	0.3975
10.95	-9.7340	-0.3132	-1.3187	-0.0047	0.0087	0.0062	18.9581	-8.0534	4.4983	0.5249	-0.4737	0.5849	0.3975
10.96	-9.7273	-0.3097	-1.3161	-0.0035	0.0137	-0.0028	18.9629	-8.0645	4.3787	0.5249	-0.4737	0.5849	0.3975
10.97	-9.7402	-0.3192	-1.3219	-0.0096	0.0073	0.0016	18.8650	-8.1338	4.4060	0.5249	-0.4737	0.5849	0.3975
10.98	-9.7305	-0.3194	-1.3060	-0.0094	0.0008	0.0026	19.1640	-8.1990	4.3980	0.5249	-0.4737	0.5849	0.3976
10.99	-9.7245	-0.3258	-1.2970	-0.0057	0.0096	-0.0021	19.0212	-8.1206	4.4894	0.5249	-0.4737	0.5849	0.3976
11	-9.7365	-0.3271	-1.3050	-0.0068	0.0049	-0.0035	18.8590	-8.1514	4.5084	0.5249	-0.4737	0.5849	0.3976
11.01	-9.7320	-0.3332	-1.2979	-0.0058	0.0065	-0.0045	19.0721	-8.0540	4.6177	0.5249	-0.4737	0.5848	0.3976
11.02	-9.7242	-0.3362	-1.2953	-0.0080	0.0044	-0.0005	18.9612	-8.1111	4.4717	0.5249	-0.4737	0.5848	0.3976
11.03	-9.7329	-0.3287	-1.2952	-0.0014	0.0035	-0.0076	18.9737	-8.2363	4.5038	0.5250	-0.4737	0.5848	0.3976
11.04	-9.7386	-0.3234	-1.3052	-0.0077	0.0036	-0.0044	18.9516	-7.9100	4.4600	0.5250	-0.4737	0.5848	0.3976
11.05	-9.7268	-0.3150	-1.3035	-0.0058	0.0034	-0.0013	18.7822	-7.8649	4.5487	0.5250	-0.4737	0.5848	0.3976
11.06	-9.7250	-0.3127	-1.3002	-0.0094	0.0099	-0.0041	18.9005	-7.9740	4.5811	0.5250	-0.4737	0.5848	0.3976
11.07	-9.7321	-0.3076	-1.3095	-0.0069	0.0001	0.0041	18.9732	-8.0735	4.5638	0.5250	-0.4737	0.5848	0.3976
11.08	-9.7414	-0.3054	-1.3087	-0.0059	0.0004	-0.0021	18.8140	-8.1962	4.5850	0.5250	-0.4736	0.5847	0.3976
11.09	-9.7310	-0.3068	-1.3119	-0.0057	0.0022	0.0004	19.1165	-8.2220	4.5675	0.5250	-0.4736	0.5847	0.3977
11.1	-9.7269	-0.3122	-1.3107	-0.0065	0.0087	-0.0021	19.2340	-8.1906	4.6048	0.5250	-0.4736	0.5847	0.3977
11.11	-9.7337	-0.3198	-1.3133	-0.0061	0.0058	-0.0020	19.3200	-8.0975	4.5396	0.5250	-0.4736	0.5847	0.3977
11.12	-9.7300	-0.3325	-1.3087	-0.0048	0.0092	0.0037	19.6309	-8.1303	4.7197	0.5250	-0.4736	0.5847	0.3977
11.13	-9.7286	-0.3371	-1.3132	-0.0015	0.0084	0.0017	19.3088	-8.1126	4.7042	0.5250	-0.4736	0.5847	0.3977
11.14	-9.7372	-0.3469	-1.3184	-0.0056	0.0054	-0.0065	18.9969	-8.3809	4.6979	0.5250	-0.4736	0.5847	0.3977
11.15	-9.7374	-0.3451	-1.3254	-0.0064	0.0046	-0.0054	18.9224	-8.7331	4.7312	0.5250	-0.4736	0.5847	0.3977
11.16	-9.7282	-0.3398	-1.3176	0.0009	0.0090	0.0009	18.8028	-8.2389	4.6071	0.5250	-0.4736	0.5847	0.3977
11.17	-9.7300	-0.3297	-1.3206	-0.0043	0.0039	0.0001	18.7382	-7.9915	4.4368	0.5251	-0.4736	0.5847	0.3977
11.18	-9.7378	-0.3198	-1.3225	-0.0049	0.0147	-0.0037	18.7578	-7.9835	4.5790	0.5250	-0.4736	0.5847	0.3977
11.19	-9.7281	-0.3148	-1.3227	-0.0074	0.0077	-0.0026	18.8583	-8.0861	4.6809	0.5250	-0.4736	0.5847	0.3977
11.2	-9.7314	-0.3104	-1.3311	-0.0069	-0.0012	-0.0027	18.7182	-7.9343	4.7403	0.5251	-0.4736	0.5847	0.3977
11.21	-9.7370	-0.3175	-1.3329	-0.0033	0.0052	-0.0048	18.6410	-8.0993	4.8459	0.5251	-0.4736	0.5847	0.3977
11.22	-9.7331	-0.3174	-1.3259	-0.0049	0.0040	-0.0029	18.8232	-7.9635	4.5557	0.5251	-0.4736	0.5847	0.3977
11.23	-9.7256	-0.3160	-1.3162	-0.0043	0.0045	-0.0058	19.0210	-8.0258	4.5561	0.5251	-0.4736	0.5847	0.3977
11.24	-9.7357	-0.3124	-1.3121	-0.0035	0.0048	-0.0084	18.7944	-8.0421	4.3254	0.5252	-0.4736	0.5846	0.3977
11.25	-9.7340	-0.3229	-1.3025	-0.0071	0.0053	-0.0056	18.6171	-8.0723	4.6465	0.5252	-0.4736	0.5846	0.3976
11.26	-9.7304	-0.3251	-1.2965	-0.0055	0.0035	0.0023	18.7016	-8.1553	4.7184	0.5252	-0.4736	0.5846	0.3977
11.27	-9.7312	-0.3275	-1.2990	-0.0054	0.0063	0.0042	18.8840	-8.1039	4.3318	0.5252	-0.4736	0.5846	0.3977
11.28	-9.7311	-0.3252	-1.2937	-0.0075	0.0106	0.0001	19.2125	-8.2268	4.6790	0.5252	-0.4736	0.5846	0.3977
11.29	-9.7338	-0.3161	-1.2938	-0.0003	0.0167	-0.0003	19.1944	-8.3275	4.6409	0.5251	-0.4736	0.5847	0.3977
11.3	-9.7267	-0.3125	-1.2932	-0.0013	0.0124	-0.0028	19.0709	-8.4075	4.5589	0.5251	-0.4736	0.5847	0.3976
11.31	-9.7323	-0.3036	-1.2971	-0.0065	0.0057	-0.0038	18.9705	-8.1853	4.7055	0.5251	-0.4736	0.5847	0.3976
11.32	-9.7350	-0.3014	-1.2981	-0.0050	0.0026	-0.0014	18.9860	-8.1001	4.5150	0.5252	-0.4736	0.5847	0.3976
11.33	-9.7341	-0.3021	-1.3052	-0.0093	0.0110	0.0011	18.9617	-8.1628	4.5157	0.5251	-0.4736	0.5847	0.3977
11.34	-9.7348	-0.3021	-1.3102	-0.0022	0.0168	-0.0020	18.7849	-8.3040	4.4030	0.5251	-0.4736	0.5847	0.3976
11.35	-9.7357	-0.3030	-1.3181	0.0020	0.0107	0.0031	18.9642	-8.2807	4.4319	0.5251	-0.4736	0.5847	0.3976
11.36	-9.7298	-0.3075	-1.3217	-0.0043	0.0036	-0.0028	18.9306	-8.1573	4.5025	0.5251	-0.4735	0.5847	0.3976
11.37	-9.7286	-0.3119	-1.3193	-0.0047	0.0089	-0.0037	18.7258	-7.8652	4.5308	0.5251	-0.4736	0.5847	0.3976
11.38	-9.7367	-0.3130	-1.3297	-0.0054	0.0088	0.0009	18.7291	-7.9671	4.6810	0.5251	-0.4735	0.5847	0.3976
11.39	-9.7313	-0.3130	-1.3276	-0.0018	0.0069	-0.0009	18.7681	-8.1631	4.5541	0.5251	-0.4735	0.5847	0.3976
11.4	-9.7333	-0.3119	-1.3356	-0.0003	0.0102	-0.0017	18.9776	-8.1133	4.7711	0.5252	-0.4735	0.5847	0.3976
11.41	-9.7399	-0.3175	-1.3394	-0.0029	0.0112	-0.0018	18.9965	-8.0863	4.6956	0.5252	-0.4735	0.5848	0.3976
11.42	-9.7343	-0.3147	-1.3291	-0.0030	0.0035	-0.0009	18.7851	-7.8185	4.5372	0.5252	-0.4735	0.5847	0.3976
11.43	-9.7282	-0.3176	-1.3286	-0.0007	0.0064	-0.0120	18.7389	-8.0784	4.4895	0.5252	-0.4735	0.5847	0.3975
11.44	-9.7383	-0.3134	-1.3255	-0.0026	0.0108	-0.0042	18.7136	-8.1300	4.6827	0.5252	-0.4735	0.5847	0.3975
11.45	-9.7403	-0.3116	-1.3284	-0.0028	0.0060	0.0042	18.8929	-8.1974	4.5922	0.5252	-0.4735	0.5848	0.3975
11.46	-9.7350	-0.3142	-1.3216	-0.0046	0.0042	0.0023	19.1119	-8.4058	4.4708	0.5252	-0.4735	0.5848	0.3975
11.47	-9.7333	-0.3141	-1.3131	-0.0054	0.0065	0.0024	19.0171	-8.3516	4.5596	0.5252	-0.4735	0.5848	0.3975
11.48	-9.7308	-0.3153	-1.3100	-0.0044	0.0038	-0.0044	18.9119	-8.3874	4.6149	0.5252	-0.4735	0.5847	0.3976
11.49	-9.7309	-0.3202	-1.3054	-0.0012	0.0031	-0.0052	18.8101	-8.2885	4.4757	0.5253	-0.4735	0.5847	0.3975
11.5	-9.7340	-0.3296	-1.2997	-0.0111	0.0105	0.0015	18.9429	-8.1532	4.6383	0.5252	-0.4735	0.5847	0.3976
11.51	-9.7302	-0.3410	-1.2979	-0.0102	0.0042	-0.0005	19.0130	-8.1219	4.4921	0.5252	-0.4735	0.5847	0.3976
11.52	-9.7314	-0.3462	-1.2953	-0.0065	0.0089	-0.0035	18.8868	-8.1034	4.5751	0.5252	-0.4735	0.5847	0.3976
11.53	-9.7246	-0.3489	-1.2906	-0.0039	0.0117	-0.0041	18.9179	-8.2617	4.5910	0.5252	-0.4735	0.5847	0.3976
11.54	-9.7291	-0.3476	-1.2934	-0.0081	0.0070	0.0029	18.9914	-8.2410	4.5892	0.5252	-0.4735	0.5847	0.3976
