time	acceleration_x	acceleration_y	acceleration_z	gyroscope_x	gyroscope_y	gyroscope_z	magnetometer_x	magnetometer_y	magnetometer_z	quaternion_w	quaternion_x	quaternion_y	quaternion_z
0	-5.3109	0.0252	-0.8479	0.0058	0.0042	0.0042	6.3668	-12.8480	8.6517	-0.3336	0.1475	-0.3914	-0.1273
0.01	-10.4931	0.0490	-1.6755	0.0093	0.0067	0.0050	12.5206	-25.4387	16.8292	-0.6593	0.2915	-0.7734	-0.2516
0.02	-9.2218	0.0447	-1.4601	0.0031	0.0016	0.0070	11.1338	-22.2563	15.0160	-0.5802	0.2565	-0.6807	-0.2215
0.03	-9.9132	0.0495	-1.5769	0.0082	0.0033	0.0011	11.8341	-24.0385	15.9946	-0.6230	0.2755	-0.7308	-0.2378
0.04	-9.4934	0.0456	-1.5166	0.0125	0.0053	0.0029	11.2712	-22.9258	15.4067	-0.5965	0.2638	-0.6998	-0.2276
0.05	-9.7482	0.0470	-1.5578	0.0051	0.0031	0.0030	11.7284	-23.4207	15.9718	-0.6135	0.2713	-0.7196	-0.2341
0.06	-9.5746	0.0464	-1.5253	0.0028	0.0104	0.0065	11.2939	-23.1533	15.3471	-0.6027	0.2666	-0.7070	-0.2300
0.07	-9.6997	0.0485	-1.5596	0.0053	-0.0027	0.0083	11.4431	-23.6056	15.7385	-0.6093	0.2695	-0.7147	-0.2326
0.08	-9.6332	0.0515	-1.5458	0.0058	-0.0011	0.0073	11.4875	-23.3531	15.6407	-0.6055	0.2679	-0.7103	-0.2312
0.09	-9.6489	0.0535	-1.5449	0.0105	0.0036	0.0082	11.3802	-23.1675	15.7822	-0.6074	0.2687	-0.7125	-0.2319
0.1	-9.6525	0.0589	-1.5467	0.0137	0.0066	0.0056	11.4026	-23.0454	15.7595	-0.6066	0.2684	-0.7116	-0.2316
0.11	-9.6530	0.0598	-1.5404	0.0136	0.0102	0.0069	11.3242	-22.9336	15.7798	-0.6066	0.2684	-0.7116	-0.2316
0.12	-9.6355	0.0655	-1.5292	0.0087	0.0021	0.0050	11.3435	-23.0309	15.6984	-0.6066	0.2684	-0.7116	-0.2316
0.13	-9.6402	0.0632	-1.5160	0.0024	-0.0029	0.0068	11.3853	-23.0630	15.6663	-0.6066	0.2684	-0.7116	-0.2316
0.14	-9.6562	0.0638	-1.5295	0.0023	-0.0045	0.0045	11.4832	-23.0342	15.7738	-0.6066	0.2685	-0.7115	-0.2316
0.15	-9.6429	0.0631	-1.5139	0.0059	-0.0047	0.0023	11.4066	-23.0749	15.6360	-0.6067	0.2685	-0.7115	-0.2317
0.16	-9.6449	0.0595	-1.5108	0.0028	-0.0005	-0.0002	11.4313	-23.2154	15.4917	-0.6067	0.2685	-0.7115	-0.2317
0.17	-9.6540	0.0574	-1.5181	0.0074	-0.0057	0.0101	11.4857	-23.2059	15.6153	-0.6067	0.2685	-0.7114	-0.2317
0.18	-9.6484	0.0531	-1.5191	0.0080	0.0091	0.0093	11.4482	-23.3359	15.6758	-0.6067	0.2685	-0.7115	-0.2317
0.19	-9.6286	0.0533	-1.4999	0.0067	0.0053	0.0063	11.8134	-23.3890	15.5863	-0.6066	0.2686	-0.7115	-0.2317
0.2	-9.6456	0.0561	-1.5171	0.0039	0.0014	0.0065	11.6408	-23.3574	15.5978	-0.6066	0.2686	-0.7114	-0.2317
0.21	-9.6531	0.0587	-1.5217	0.0149	0.0015	0.0044	11.5249	-23.3992	15.7216	-0.6067	0.2686	-0.7114	-0.2317
0.22	-9.6443	0.0609	-1.5098	0.0121	0.0069	0.0092	11.5441	-23.3288	15.6273	-0.6066	0.2686	-0.7114	-0.2317
0.23	-9.6448	0.0594	-1.5083	0.0067	-0.0030	0.0120	11.5611	-23.0800	15.6425	-0.6067	0.2686	-0.7114	-0.2318
0.24	-9.6548	0.0617	-1.5174	0.0096	0.0018	0.0080	11.4378	-23.3166	15.7112	-0.6067	0.2686	-0.7114	-0.2318
0.25	-9.6436	0.0600	-1.5150	0.0102	-0.0012	0.0089	11.6065	-23.2799	15.5629	-0.6067	0.2686	-0.7114	-0.2318
0.26	-9.6326	0.0545	-1.5059	0.0116	0.0000	0.0063	11.5671	-23.3146	15.6388	-0.6067	0.2686	-0.7114	-0.2318
0.27	-9.6577	0.0535	-1.5281	0.0099	0.0073	0.0053	11.3316	-23.2196	15.7973	-0.6067	0.2686	-0.7114	-0.2318
0.28	-9.6595	0.0463	-1.5412	0.0058	0.0037	0.0041	11.5023	-23.2178	15.5620	-0.6067	0.2686	-0.7114	-0.2318
0.29	-9.6484	0.0434	-1.5339	0.0093	0.0031	0.0066	11.4279	-23.0674	15.4968	-0.6067	0.2686	-0.7114	-0.2318
0.3	-9.6444	0.0426	-1.5413	0.0068	0.0023	0.0075	11.3548	-23.0827	15.4873	-0.6067	0.2687	-0.7114	-0.2318
0.31	-9.6511	0.0479	-1.5450	0.0039	0.0024	0.0038	11.4817	-23.2257	15.6039	-0.6067	0.2687	-0.7114	-0.2318
0.32	-9.6418	0.0483	-1.5466	0.0126	-0.0027	0.0077	11.3528	-23.3138	15.5809	-0.6067	0.2687	-0.7113	-0.2318
0.33	-9.6391	0.0490	-1.5425	0.0059	-0.0014	-0.0004	11.2733	-23.1260	15.7893	-0.6067	0.2687	-0.7113	-0.2318
0.34	-9.6548	0.0464	-1.5453	0.0083	0.0026	0.0087	11.3579	-23.2142	15.6185	-0.6067	0.2687	-0.7113	-0.2319
0.35	-9.6607	0.0480	-1.5450	0.0053	-0.0070	0.0101	11.4969	-23.1165	15.5776	-0.6067	0.2687	-0.7113	-0.2319
0.36	-9.6509	0.0497	-1.5369	0.0005	-0.0031	0.0072	11.2975	-23.2765	15.8375	-0.6067	0.2688	-0.7112	-0.2319
0.37	-9.6329	0.0440	-1.5294	0.0066	0.0030	0.0091	11.3789	-23.2819	15.6993	-0.6067	0.2688	-0.7112	-0.2320
0.38	-9.6461	0.0475	-1.5374	0.0098	0.0014	0.0100	11.5920	-23.3767	15.6102	-0.6067	0.2688	-0.7112	-0.2320
0.39	-9.6506	0.0478	-1.5369	0.0122	-0.0033	0.0070	11.4101	-23.5468	15.5933	-0.6067	0.2688	-0.7112	-0.2320
0.4	-9.6409	0.0476	-1.5278	0.0053	-0.0055	0.0104	11.6820	-23.5724	15.6275	-0.6068	0.2688	-0.7112	-0.2320
0.41	-9.6494	0.0484	-1.5288	0.0167	0.0002	0.0120	11.6501	-23.4837	15.5730	-0.6068	0.2687	-0.7112	-0.2320
0.42	-9.6449	0.0511	-1.5258	0.0104	-0.0009	0.0096	11.6684	-23.4503	15.8009	-0.6068	0.2687	-0.7112	-0.2320
0.43	-9.6458	0.0453	-1.5223	0.0172	0.0025	0.0079	12.0566	-22.7204	15.8702	-0.6068	0.2687	-0.7112	-0.2320
0.44	-9.6427	0.0499	-1.5185	0.0162	-0.0090	0.0068	12.0330	-23.3307	15.8326	-0.6068	0.2687	-0.7112	-0.2320
0.45	-9.6522	0.0499	-1.5295	0.0165	-0.0098	0.0096	11.5904	-25.1423	15.8639	-0.6069	0.2686	-0.7111	-0.2320
0.46	-9.6451	0.0510	-1.5266	0.0146	-0.0030	0.0077	11.5620	-24.2062	15.7260	-0.6069	0.2686	-0.7111	-0.2320
0.47	-9.6444	0.0512	-1.5221	0.0063	-0.0013	0.0086	11.2171	-23.6069	15.7479	-0.6069	0.2686	-0.7111	-0.2321
0.48	-9.6501	0.0521	-1.5269	0.0157	0.0028	0.0128	11.3887	-23.0084	15.8402	-0.6069	0.2686	-0.7111	-0.2321
0.49	-9.6465	0.0546	-1.5237	0.0158	0.0041	0.0099	11.4452	-23.3102	15.6807	-0.6069	0.2686	-0.7111	-0.2321
0.5	-9.6383	0.0555	-1.5190	0.0148	0.0020	0.0087	11.5093	-23.2917	15.7627	-0.6069	0.2686	-0.7111	-0.2320
0.51	-9.6474	0.0544	-1.5234	0.0079	0.0003	0.0117	11.3447	-23.3378	15.7807	-0.6069	0.2685	-0.7111	-0.2321
0.52	-9.6540	0.0580	-1.5312	0.0146	0.0048	0.0141	11.4024	-23.3075	15.6222	-0.6069	0.2685	-0.7111	-0.2321
0.53	-9.6462	0.0599	-1.5187	0.0162	0.0006	0.0099	11.4594	-23.3264	15.6172	-0.6069	0.2685	-0.7111	-0.2321
0.54	-9.6465	0.0609	-1.5155	0.0117	0.0052	0.0082	11.3760	-23.1844	15.6601	-0.6069	0.2685	-0.7111	-0.2321
0.55	-9.6513	0.0601	-1.5203	0.0120	0.0024	0.0132	11.3612	-23.1325	15.7241	-0.6069	0.2685	-0.7112	-0.2321
0.56	-9.6410	0.0628	-1.5177	0.0142	-0.0033	0.0066	11.6067	-23.2268	15.7229	-0.6069	0.2685	-0.7111	-0.2321
0.57	-9.6435	0.0617	-1.5215	0.0091	-0.0014	0.0133	11.4919	-23.3450	15.5922	-0.6069	0.2684	-0.7111	-0.2321
0.58	-9.6518	0.0567	-1.5268	0.0133	-0.0014	0.0119	11.3646	-23.2857	15.5453	-0.6069	0.2684	-0.7111	-0.2321
0.59	-9.6503	0.0586	-1.5242	0.0108	-0.0069	0.0062	11.3775	-23.4068	15.7364	-0.6070	0.2684	-0.7111	-0.2321
0.6	-9.6469	0.0555	-1.5264	0.0137	-0.0052	0.0121	11.6262	-23.3838	15.7094	-0.6070	0.2684	-0.7111	-0.2322
0.61	-9.6523	0.0539	-1.5365	0.0159	-0.0039	0.0105	11.5532	-23.3157	15.7359	-0.6070	0.2684	-0.7111	-0.2322
0.62	-9.6433	0.0497	-1.5357	0.0063	0.0027	0.0119	11.4740	-23.2667	15.6642	-0.6070	0.2683	-0.7111	-0.2322
0.63	-9.6354	0.0517	-1.5288	0.0072	-0.0029	0.0134	11.6000	-23.2118	15.5975	-0.6070	0.2683	-0.7111	-0.2322
0.64	-9.6517	0.0467	-1.5415	0.0181	-0.0057	0.0077	11.5770	-23.3325	15.6711	-0.6070	0.2683	-0.7111	-0.2322
0.65	-9.6495	0.0401	-1.5375	0.0157	0.0045	0.0127	11.4771	-23.3204	15.7071	-0.6070	0.2683	-0.7111	-0.2322
0.66	-9.6484	0.0428	-1.5344	0.0124	0.0047	0.0056	11.5346	-23.2682	15.7892	-0.6070	0.2683	-0.7111	-0.2322
0.67	-9.6391	0.0458	-1.5407	0.0118	-0.0015	0.0091	11.3949	-23.1332	15.8071	-0.6070	0.2683	-0.7111	-0.2322
0.68	-9.6530	0.0470	-1.5529	0.0165	0.0058	0.0085	11.4655	-23.1625	15.5734	-0.6070	0.2683	-0.7111	-0.2322
0.69	-9.6478	0.0520	-1.5492	0.0115	0.0044	0.0048	11.6630	-23.1412	15.8421	-0.6070	0.2683	-0.7111	-0.2322
0.7	-9.6427	0.0570	-1.5395	0.0149	0.0063	0.0103	11.3943	-23.1544	15.7011	-0.6070	0.2683	-0.7111	-0.2322
0.71	-9.6605	0.0581	-1.5490	0.0187	0.0079	0.0094	11.5447	-23.2323	15.6372	-0.6070	0.2682	-0.7111	-0.2321
0.72	-9.6596	0.0610	-1.5436	0.0172	0.0003	0.0073	11.5760	-23.3837	15.7326	-0.6070	0.2682	-0.7111	-0.2321
0.73	-9.6462	0.0601	-1.5433	0.0186	-0.0079	0.0098	11.4317	-23.3634	15.7338	-0.6071	0.2682	-0.7111	-0.2321
0.74	-9.6389	0.0588	-1.5329	0.0200	0.0028	0.0090	11.3992	-23.2073	15.6110	-0.6071	0.2681	-0.7111	-0.2321
0.75	-9.6525	0.0576	-1.5357	0.0153	-0.0008	0.0012	11.6843	-23.3539	15.5552	-0.6071	0.2682	-0.7111	-0.2321
0.76	-9.6428	0.0540	-1.5286	0.0132	-0.0008	0.0103	11.5706	-23.2692	15.8137	-0.6071	0.2681	-0.7111	-0.2321
0.77	-9.6506	0.0453	-1.5279	0.0183	0.0001	0.0080	11.4780	-23.4296	15.5305	-0.6071	0.2681	-0.7111	-0.2321
0.78	-9.6419	0.0488	-1.5208	0.0147	-0.0017	0.0103	11.6078	-23.2653	15.5497	-0.6071	0.2681	-0.7111	-0.2321
0.79	-9.6425	0.0518	-1.5161	0.0190	-0.0017	0.0123	11.4796	-23.4034	15.6650	-0.6071	0.2681	-0.7111	-0.2320
0.8	-9.6495	0.0560	-1.5198	0.0151	-0.0068	0.0091	11.5208	-23.4697	15.5811	-0.6072	0.2680	-0.7111	-0.2320
0.81	-9.6439	0.0609	-1.5118	0.0080	-0.0064	0.0080	11.5098	-23.2879	15.4353	-0.6072	0.2680	-0.7111	-0.2321
0.82	-9.6410	0.0636	-1.5127	0.0157	-0.0067	0.0117	11.6003	-23.3193	15.5792	-0.6072	0.2680	-0.7111	-0.2321
0.83	-9.6427	0.0638	-1.5128	0.0131	-0.0029	0.0101	11.4503	-23.4856	15.6507	-0.6072	0.2680	-0.7110	-0.2321
0.84	-9.6544	0.0672	-1.5170	0.0156	0.0028	0.0029	11.4042	-23.3748	15.3454	-0.6072	0.2680	-0.7110	-0.2321
0.85	-9.6458	0.0608	-1.5108	0.0068	-0.0064	0.0048	11.5560	-23.1720	15.4613	-0.6073	0.2680	-0.7110	-0.2321
0.86	-9.6454	0.0565	-1.5172	0.0088	-0.0004	0.0048	11.4298	-23.5356	15.8210	-0.6073	0.2680	-0.7110	-0.2321
0.87	-9.6469	0.0535	-1.5248	0.0099	0.0013	0.0074	11.3454	-23.3448	15.7650	-0.6073	0.2680	-0.7110	-0.2321
0.88	-9.6390	0.0486	-1.5221	0.0014	-0.0019	0.0103	11.5410	-23.3186	15.6045	-0.6073	0.2680	-0.7110	-0.2321
0.89	-9.6469	0.0514	-1.5221	0.0083	-0.0036	0.0091	11.4896	-23.3764	15.6630	-0.6073	0.2680	-0.7110	-0.2322
0.9	-9.6482	0.0502	-1.5291	0.0140	0.0023	0.0067	11.5179	-23.3329	15.8619	-0.6073	0.2680	-0.7110	-0.2322
0.91	-9.6465	0.0490	-1.5323	0.0103	0.0006	0.0056	11.4792	-23.2682	15.7223	-0.6073	0.2680	-0.7110	-0.2322
0.92	-9.6452	0.0549	-1.5349	0.0119	-0.0005	0.0077	11.6617	-23.2758	15.7016	-0.6073	0.2680	-0.7110	-0.2322
0.93	-9.6476	0.0505	-1.5447	0.0113	-0.0003	0.0049	12.0141	-22.9679	15.7574	-0.6073	0.2680	-0.7110	-0.2322
0.94	-9.6498	0.0454	-1.5423	0.0052	0.0037	0.0081	12.0023	-23.8529	15.9537	-0.6073	0.2681	-0.7110	-0.2322
0.95	-9.6497	0.0501	-1.5446	0.0091	0.0025	0.0080	11.5898	-25.1477	15.6273	-0.6073	0.2681	-0.7109	-0.2322
0.96	-9.6465	0.0447	-1.5469	0.0112	0.0029	0.0092	11.6024	-24.1299	15.5630	-0.6073	0.2681	-0.7110	-0.2322
0.97	-9.6461	0.0447	-1.5388	0.0106	-0.0009	-0.0006	11.6216	-23.7351	15.6588	-0.6073	0.2681	-0.7109	-0.2322
0.98	-9.6533	0.0383	-1.5439	0.0014	0.0009	0.0083	11.5946	-23.2352	15.5592	-0.6073	0.2681	-0.7109	-0.2322
0.99	-9.6519	0.0362	-1.5462	0.0068	-0.0029	0.0076	11.6580	-23.4847	15.4223	-0.6073	0.2681	-0.7109	-0.2322
1	-9.6396	0.0304	-1.5357	0.0114	0.0035	0.0098	11.4432	-23.3225	15.5767	-0.6073	0.2681	-0.7109	-0.2322
1.01	-9.6505	0.0361	-1.5350	0.0074	0.0018	0.0060	11.5578	-23.4801	15.7942	-0.6073	0.2681	-0.7109	-0.2322
1.02	-9.6554	0.0399	-1.5323	0.0125	0.0073	0.0071	11.5706	-23.4354	15.7955	-0.6072	0.2682	-0.7109	-0.2322
1.03	-9.6467	0.0409	-1.5302	0.0090	0.0013	0.0053	11.3510	-23.0941	15.7812	-0.6072	0.2682	-0.7109	-0.2322
1.04	-9.6452	0.0447	-1.5296	0.0062	0.0082	0.0023	11.3271	-23.2057	15.6505	-0.6072	0.2682	-0.7109	-0.2322
1.05	-9.6485	0.0515	-1.5307	0.0065	0.0067	-0.0000	11.3326	-23.2078	15.7796	-0.6072	0.2683	-0.7109	-0.2322
1.06	-9.6441	0.0520	-1.5213	0.0083	0.0020	0.0079	11.3664	-23.0290	15.7142	-0.6072	0.2683	-0.7109	-0.2322
1.07	-9.6461	0.0561	-1.5198	0.0095	0.0026	0.0050	11.4080	-23.1995	15.5575	-0.6072	0.2683	-0.7109	-0.2322
1.08	-9.6426	0.0552	-1.5197	0.0132	0.0035	0.0109	11.5466	-23.3672	15.7058	-0.6072	0.2683	-0.7110	-0.2322
1.09	-9.6478	0.0557	-1.5229	0.0072	0.0088	0.0023	11.3443	-23.1843	15.8629	-0.6071	0.2683	-0.7110	-0.2322
1.1	-9.6530	0.0588	-1.5277	0.0105	0.0025	0.0099	11.3713	-23.0163	15.4433	-0.6071	0.2683	-0.7110	-0.2322
1.11	-9.6487	0.0593	-1.5233	0.0182	0.0052	0.0082	11.4044	-23.3683	15.6064	-0.6071	0.2683	-0.7110	-0.2322
1.12	-9.6409	0.0613	-1.5199	0.0076	0.0027	0.0109	11.6289	-23.3285	15.7254	-0.6071	0.2683	-0.7110	-0.2322
1.13	-9.6451	0.0655	-1.5228	0.0058	0.0031	0.0068	11.6024	-23.3714	15.3929	-0.6071	0.2683	-0.7110	-0.2322
1.14	-9.6511	0.0678	-1.5260	0.0101	0.0085	0.0084	11.7213	-23.4869	15.5927	-0.6070	0.2683	-0.7110	-0.2322
1.15	-9.6354	0.0681	-1.5143	0.0066	0.0069	0.0117	11.5258	-23.3470	15.6008	-0.6070	0.2683	-0.7111	-0.2322
1.16	-9.6473	0.0694	-1.5166	-0.0005	0.0040	0.0028	11.3590	-23.2231	15.6840	-0.6070	0.2684	-0.7110	-0.2323
1.17	-9.6472	0.0691	-1.5189	0.0083	0.0030	0.0127	11.3741	-23.3264	15.7036	-0.6070	0.2684	-0.7110	-0.2323
1.18	-9.6416	0.0667	-1.5135	0.0073	-0.0021	0.0102	11.4703	-23.3923	15.5988	-0.6070	0.2684	-0.7110	-0.2323
1.19	-9.6447	0.0658	-1.5163	0.0080	0.0048	0.0020	11.4401	-23.2789	15.7891	-0.6070	0.2684	-0.7110	-0.2323
1.2	-9.6520	0.0595	-1.5235	0.0020	0.0030	0.0084	11.4447	-23.3396	15.7938	-0.6069	0.2685	-0.7110	-0.2323
1.21	-9.6510	0.0578	-1.5248	0.0049	-0.0065	0.0100	11.5383	-23.1997	15.6898	-0.6069	0.2685	-0.7110	-0.2324
1.22	-9.6425	0.0545	-1.5289	0.0065	-0.0064	0.0043	11.5293	-23.2549	15.5674	-0.6070	0.2685	-0.7110	-0.2324
1.23	-9.6460	0.0521	-1.5308	0.0025	-0.0031	0.0038	11.3132	-23.3796	15.6994	-0.6070	0.2685	-0.7110	-0.2324
1.24	-9.6469	0.0459	-1.5348	0.0039	-0.0038	0.0077	11.2580	-23.0437	15.6850	-0.6070	0.2685	-0.7109	-0.2325
1.25	-9.6515	0.0425	-1.5392	0.0002	-0.0018	0.0005	11.5252	-22.9782	15.6013	-0.6070	0.2686	-0.7109	-0.2325
1.26	-9.6524	0.0358	-1.5439	0.0048	0.0005	0.0023	11.3532	-23.1228	15.5679	-0.6070	0.2686	-0.7109	-0.2325
1.27	-9.6417	0.0372	-1.5465	0.0127	0.0027	0.0043	11.4724	-23.2329	15.4877	-0.6070	0.2687	-0.7109	-0.2325
1.28	-9.6459	0.0378	-1.5534	0.0110	0.0051	0.0073	11.3306	-23.1414	15.6371	-0.6070	0.2687	-0.7109	-0.2325
1.29	-9.6482	0.0429	-1.5513	0.0043	-0.0012	0.0099	11.4558	-23.1589	15.5888	-0.6069	0.2687	-0.7109	-0.2325
1.3	-9.6442	0.0472	-1.5463	0.0079	-0.0051	0.0107	11.6921	-23.3020	15.8487	-0.6070	0.2687	-0.7109	-0.2325
1.31	-9.6569	0.0533	-1.5437	0.0105	0.0016	0.0029	11.4799	-23.3766	15.5862	-0.6070	0.2687	-0.7109	-0.2325
1.32	-9.6459	0.0567	-1.5474	0.0082	-0.0064	0.0099	11.5886	-23.4286	15.5635	-0.6070	0.2687	-0.7109	-0.2325
1.33	-9.6405	0.0530	-1.5337	-0.0009	-0.0003	0.0036	11.5842	-23.4482	15.7351	-0.6070	0.2687	-0.7108	-0.2326
1.34	-9.6501	0.0557	-1.5342	0.0086	-0.0077	0.0075	11.7122	-23.0958	15.4813	-0.6070	0.2687	-0.7108	-0.2326
1.35	-9.6534	0.0528	-1.5374	0.0068	0.0034	0.0011	11.5862	-23.3337	15.6387	-0.6070	0.2688	-0.7108	-0.2326
1.36	-9.6525	0.0501	-1.5304	0.0081	-0.0010	0.0018	11.4346	-23.4180	15.7330	-0.6070	0.2688	-0.7108	-0.2326
1.37	-9.6484	0.0494	-1.5296	0.0049	-0.0016	0.0048	11.4060	-23.3697	15.6383	-0.6070	0.2688	-0.7108	-0.2326
1.38	-9.6493	0.0490	-1.5292	0.0048	-0.0076	0.0066	11.3590	-23.4383	15.6028	-0.6070	0.2689	-0.7107	-0.2326
1.39	-9.6480	0.0534	-1.5216	0.0097	0.0017	0.0081	11.4525	-23.2413	15.6178	-0.6070	0.2689	-0.7107	-0.2326
1.4	-9.6450	0.0562	-1.5230	0.0031	-0.0026	0.0027	11.5005	-23.2750	15.6124	-0.6070	0.2689	-0.7107	-0.2327
1.41	-9.6457	0.0612	-1.5295	-0.0018	0.0028	-0.0005	11.4842	-23.1432	15.6008	-0.6070	0.2690	-0.7107	-0.2327
1.42	-9.6493	0.0695	-1.5226	0.0042	0.0020	0.0008	11.4842	-23.3205	15.6980	-0.6070	0.2690	-0.7107	-0.2327
1.43	-9.6444	0.0691	-1.5212	0.0104	0.0058	-0.0016	12.0114	-22.6759	15.8235	-0.6070	0.2691	-0.7107	-0.2326
1.44	-9.6438	0.0652	-1.5123	0.0156	-0.0034	0.0099	12.0219	-23.4123	15.8896	-0.6070	0.2690	-0.7107	-0.2326
1.45	-9.6559	0.0695	-1.5206	0.0056	-0.0040	0.0081	11.4217	-25.1308	16.0607	-0.6070	0.2690	-0.7107	-0.2327
1.46	-9.6409	0.0615	-1.5155	0.0058	-0.0030	0.0066	11.5209	-24.0003	15.7561	-0.6070	0.2691	-0.7107	-0.2327
1.47	-9.6348	0.0591	-1.5181	0.0173	0.0041	0.0017	11.5951	-23.5698	15.6192	-0.6070	0.2691	-0.7107	-0.2326
1.48	-9.6512	0.0576	-1.5214	0.0108	0.0018	0.0053	11.4090	-23.2136	15.5522	-0.6070	0.2691	-0.7107	-0.2326
1.49	-9.6565	0.0574	-1.5292	0.0134	-0.0009	0.0080	11.5185	-23.2554	15.5268	-0.6070	0.2691	-0.7107	-0.2326
1.5	-9.6402	0.0581	-1.5234	0.0176	-0.0039	0.0090	11.6100	-23.3416	15.6228	-0.6070	0.2691	-0.7107	-0.2326
1.51	-9.6517	0.0565	-1.5320	0.0179	-0.0060	0.0067	11.5717	-23.4802	15.8581	-0.6070	0.2690	-0.7107	-0.2326
1.52	-9.6462	0.0578	-1.5370	0.0163	-0.0015	0.0051	11.6066	-23.3375	15.7892	-0.6070	0.2690	-0.7107	-0.2326
1.53	-9.6379	0.0615	-1.5322	0.0168	-0.0069	0.0073	11.4925	-23.4175	15.3726	-0.6071	0.2690	-0.7106	-0.2326
1.54	-9.6412	0.0589	-1.5342	0.0111	-0.0036	0.0093	11.5380	-23.2412	15.7552	-0.6071	0.2690	-0.7106	-0.2326
1.55	-9.6581	0.0582	-1.5388	0.0095	-0.0002	0.0079	11.4310	-23.2059	15.5839	-0.6071	0.2690	-0.7106	-0.2326
1.56	-9.6482	0.0526	-1.5370	0.0152	0.0002	0.0044	11.5134	-23.3069	15.4148	-0.6071	0.2690	-0.7106	-0.2326
1.57	-9.6390	0.0464	-1.5341	0.0176	0.0002	0.0056	11.5128	-23.3045	15.4727	-0.6071	0.2690	-0.7106	-0.2325
1.58	-9.6535	0.0440	-1.5456	0.0139	-0.0009	0.0014	11.5258	-23.2981	15.7155	-0.6071	0.2690	-0.7106	-0.2325
1.59	-9.6455	0.0392	-1.5483	0.0148	0.0055	0.0041	11.4298	-23.0907	15.6492	-0.6071	0.2690	-0.7107	-0.2325
1.6	-9.6398	0.0363	-1.5397	0.0100	0.0012	0.0121	11.5142	-23.3605	15.4880	-0.6071	0.2690	-0.7107	-0.2325
1.61	-9.6505	0.0376	-1.5453	0.0062	0.0025	0.0066	11.6201	-23.3375	15.7227	-0.6071	0.2690	-0.7107	-0.2325
1.62	-9.6518	0.0398	-1.5477	0.0057	0.0020	0.0122	11.5530	-23.3587	15.6003	-0.6070	0.2690	-0.7107	-0.2325
1.63	-9.6420	0.0446	-1.5371	0.0116	-0.0040	0.0091	11.3586	-23.3304	15.4857	-0.6071	0.2690	-0.7107	-0.2325
1.64	-9.6474	0.0432	-1.5439	0.0090	-0.0022	0.0093	11.3326	-23.2132	15.6598	-0.6071	0.2690	-0.7107	-0.2325
1.65	-9.6497	0.0481	-1.5330	0.0152	-0.0006	0.0072	11.3851	-23.3319	15.5755	-0.6071	0.2690	-0.7107	-0.2325
1.66	-9.6455	0.0486	-1.5314	0.0099	0.0023	0.0031	11.4737	-23.0980	15.7029	-0.6071	0.2690	-0.7107	-0.2325
1.67	-9.6396	0.0473	-1.5243	0.0139	-0.0035	0.0072	11.2271	-23.2564	15.6898	-0.6071	0.2690	-0.7107	-0.2325
1.68	-9.6415	0.0532	-1.5197	0.0099	-0.0043	0.0057	11.5225	-23.3042	15.7319	-0.6071	0.2690	-0.7106	-0.2325
1.69	-9.6530	0.0494	-1.5265	0.0092	-0.0056	0.0123	11.6071	-23.3341	15.6405	-0.6071	0.2690	-0.7106	-0.2325
1.7	-9.6400	0.0471	-1.5135	0.0162	0.0002	0.0097	11.5944	-23.4818	15.6792	-0.6071	0.2690	-0.7106	-0.2325
1.71	-9.6431	0.0538	-1.5118	0.0145	0.0009	0.0053	11.4854	-23.4644	15.8381	-0.6071	0.2690	-0.7106	-0.2325
1.72	-9.6478	0.0546	-1.5128	0.0128	-0.0030	0.0119	11.5360	-23.3511	15.7565	-0.6071	0.2690	-0.7106	-0.2325
1.73	-9.6381	0.0534	-1.5091	0.0172	0.0050	0.0092	11.4275	-23.4412	15.6466	-0.6071	0.2689	-0.7107	-0.2325
1.74	-9.6413	0.0542	-1.5152	0.0133	0.0005	0.0099	11.5185	-23.1844	15.5174	-0.6071	0.2689	-0.7107	-0.2325
1.75	-9.6562	0.0576	-1.5250	0.0141	0.0034	0.0100	11.4966	-23.2738	15.5373	-0.6071	0.2689	-0.7107	-0.2325
1.76	-9.6462	0.0599	-1.5139	0.0097	0.0038	0.0119	11.4077	-23.4173	15.6945	-0.6071	0.2689	-0.7107	-0.2325
1.77	-9.6339	0.0621	-1.5139	0.0192	0.0020	0.0129	11.4282	-23.1184	15.7123	-0.6070	0.2689	-0.7107	-0.2325
1.78	-9.6446	0.0621	-1.5277	0.0142	0.0024	0.0092	11.5226	-23.2288	15.6087	-0.6070	0.2689	-0.7108	-0.2325
1.79	-9.6477	0.0580	-1.5272	0.0075	0.0056	0.0124	11.3715	-23.3594	15.6167	-0.6070	0.2689	-0.7108	-0.2325
1.8	-9.6350	0.0566	-1.5260	0.0089	0.0064	0.0110	11.3686	-23.2050	15.8477	-0.6070	0.2689	-0.7108	-0.2325
1.81	-9.6436	0.0510	-1.5299	0.0125	0.0052	0.0079	11.5321	-23.3392	15.9115	-0.6070	0.2689	-0.7108	-0.2325
1.82	-9.6516	0.0513	-1.5394	0.0091	-0.0007	0.0050	11.4825	-23.1437	15.6462	-0.6070	0.2689	-0.7108	-0.2325
1.83	-9.6489	0.0479	-1.5360	0.0102	-0.0038	0.0089	11.4086	-23.0998	15.7456	-0.6070	0.2689	-0.7108	-0.2325
1.84	-9.6460	0.0457	-1.5352	0.0049	0.0031	0.0137	11.4411	-23.3398	15.6016	-0.6069	0.2689	-0.7108	-0.2326
1.85	-9.6491	0.0447	-1.5382	0.0106	0.0017	0.0095	11.4189	-23.2971	15.7253	-0.6069	0.2689	-0.7108	-0.2326
1.86	-9.6480	0.0435	-1.5455	0.0150	0.0014	0.0115	11.4394	-23.2997	15.6757	-0.6069	0.2689	-0.7108	-0.2326
1.87	-9.6374	0.0411	-1.5473	0.0126	0.0044	0.0133	11.4127	-23.3534	15.5932	-0.6069	0.2688	-0.7109	-0.2326
1.88	-9.6517	0.0411	-1.5555	0.0119	-0.0070	0.0112	11.5063	-23.4158	15.6413	-0.6069	0.2688	-0.7108	-0.2326
1.89	-9.6572	0.0447	-1.5614	0.0058	-0.0070	0.0094	11.6061	-23.2707	15.6025	-0.6069	0.2688	-0.7108	-0.2326
1.9	-9.6469	0.0456	-1.5535	0.0115	-0.0012	0.0079	11.5922	-23.5798	15.6560	-0.6069	0.2688	-0.7108	-0.2326
1.91	-9.6466	0.0543	-1.5457	0.0170	-0.0001	0.0070	11.5505	-23.1060	15.5581	-0.6069	0.2688	-0.7108	-0.2326
1.92	-9.6537	0.0581	-1.5517	0.0087	0.0080	0.0092	11.4467	-23.4044	15.9223	-0.6069	0.2688	-0.7109	-0.2326
1.93	-9.6503	0.0596	-1.5482	0.0140	-0.0041	0.0115	11.8025	-22.8801	15.9510	-0.6069	0.2688	-0.7109	-0.2326
1.94	-9.6473	0.0600	-1.5460	0.0078	-0.0015	0.0088	11.8280	-23.6641	15.8283	-0.6069	0.2688	-0.7109	-0.2326
1.95	-9.6473	0.0595	-1.5391	0.0075	-0.0042	0.0096	11.4550	-25.0390	15.8367	-0.6069	0.2688	-0.7108	-0.2326
1.96	-9.6497	0.0599	-1.5439	0.0115	0.0026	0.0090	11.5295	-23.8420	15.8008	-0.6069	0.2688	-0.7108	-0.2326
1.97	-9.6484	0.0584	-1.5377	0.0054	0.0001	0.0099	11.5312	-23.4281	15.6616	-0.6069	0.2688	-0.7108	-0.2327
1.98	-9.6422	0.0604	-1.5230	0.0096	0.0045	0.0058	11.2851	-23.0999	15.7659	-0.6069	0.2688	-0.7109	-0.2327
1.99	-9.6463	0.0596	-1.5271	0.0095	0.0059	0.0004	11.3767	-23.3384	15.7991	-0.6068	0.2689	-0.7109	-0.2326
2	-9.6490	0.0623	-1.5204	0.0122	0.0039	0.0083	11.3401	-23.0816	15.6554	-0.6068	0.2689	-0.7109	-0.2326
2.01	-9.6450	0.0659	-1.5193	0.0187	0.0003	0.0104	11.3102	-23.3979	15.5699	-0.6068	0.2688	-0.7109	-0.2326
2.02	-9.6480	0.0683	-1.5198	0.0149	0.0025	0.0053	11.4429	-23.1533	15.7477	-0.6068	0.2688	-0.7109	-0.2326
2.03	-9.6513	0.0663	-1.5218	0.0098	0.0054	0.0014	11.5580	-23.1682	15.9196	-0.6068	0.2689	-0.7109	-0.2326
2.04	-9.6418	0.0659	-1.5133	0.0206	0.0094	0.0100	11.3401	-23.2661	15.6791	-0.6068	0.2688	-0.7110	-0.2325
2.05	-9.6446	0.0690	-1.5050	0.0088	0.0059	0.0109	11.3456	-23.2415	15.7833	-0.6068	0.2688	-0.7110	-0.2325
2.06	-9.6473	0.0658	-1.5085	0.0116	0.0024	0.0079	11.6492	-23.2314	15.7055	-0.6067	0.2688	-0.7110	-0.2326
2.07	-9.6515	0.0639	-1.5088	0.0169	0.0060	0.0025	11.6023	-23.3572	15.5086	-0.6067	0.2689	-0.7110	-0.2325
2.08	-9.6481	0.0591	-1.5117	0.0140	0.0068	0.0081	11.7571	-23.5578	15.6637	-0.6067	0.2689	-0.7110	-0.2325
2.09	-9.6470	0.0579	-1.5216	0.0165	0.0123	0.0060	11.5522	-23.3394	15.5982	-0.6067	0.2689	-0.7111	-0.2325
2.1	-9.6443	0.0561	-1.5218	0.0148	0.0138	0.0007	11.4328	-23.2308	15.6089	-0.6066	0.2689	-0.7111	-0.2324
2.11	-9.6373	0.0552	-1.5146	0.0141	0.0052	0.0076	11.5769	-23.2510	15.7537	-0.6066	0.2689	-0.7111	-0.2324
2.12	-9.6525	0.0532	-1.5253	0.0155	0.0078	0.0075	11.4496	-23.4182	15.7709	-0.6066	0.2689	-0.7112	-0.2324
2.13	-9.6520	0.0523	-1.5213	0.0129	0.0074	0.0074	11.5151	-23.3380	15.5813	-0.6066	0.2689	-0.7112	-0.2323
2.14	-9.6388	0.0457	-1.5260	0.0110	0.0019	0.0043	11.6466	-23.2174	15.6407	-0.6066	0.2689	-0.7112	-0.2323
2.15	-9.6457	0.0447	-1.5383	0.0150	0.0064	0.0062	11.3023	-23.1265	15.7073	-0.6065	0.2689	-0.7112	-0.2323
2.16	-9.6573	0.0424	-1.5433	0.0128	-0.0005	0.0094	11.5521	-23.2526	15.6838	-0.6065	0.2689	-0.7112	-0.2323
2.17	-9.6373	0.0385	-1.5400	0.0078	0.0082	0.0098	11.3414	-23.1510	15.7862	-0.6065	0.2689	-0.7112	-0.2323
2.18	-9.6467	0.0385	-1.5472	0.0105	0.0149	0.0008	11.3122	-23.1926	15.6705	-0.6065	0.2689	-0.7113	-0.2323
2.19	-9.6569	0.0391	-1.5565	0.0115	0.0075	0.0046	11.5154	-23.2427	15.7094	-0.6064	0.2690	-0.7113	-0.2323
2.2	-9.6461	0.0372	-1.5526	0.0121	0.0081	0.0059	11.3570	-23.0345	15.6807	-0.6064	0.2690	-0.7113	-0.2322
2.21	-9.6437	0.0381	-1.5461	0.0128	0.0085	0.0080	11.2821	-23.2191	15.7011	-0.6064	0.2690	-0.7114	-0.2322
2.22	-9.6493	0.0349	-1.5550	0.0147	0.0043	-0.0008	11.2994	-23.2162	15.6829	-0.6064	0.2690	-0.7114	-0.2322
2.23	-9.6511	0.0350	-1.5542	0.0139	0.0011	0.0112	11.2604	-23.1700	15.7045	-0.6064	0.2690	-0.7114	-0.2322
2.24	-9.6421	0.0368	-1.5459	0.0111	-0.0026	0.0074	11.4539	-23.4567	15.6876	-0.6064	0.2690	-0.7114	-0.2322
2.25	-9.6538	0.0355	-1.5474	0.0097	-0.0021	0.0046	11.6553	-23.3607	15.6269	-0.6064	0.2690	-0.7114	-0.2322
2.26	-9.6538	0.0390	-1.5507	0.0122	0.0041	0.0073	11.4241	-23.4921	15.7302	-0.6064	0.2690	-0.7114	-0.2322
2.27	-9.6455	0.0434	-1.5482	0.0108	0.0006	0.0089	11.5345	-23.4231	15.6936	-0.6064	0.2690	-0.7114	-0.2322
2.28	-9.6400	0.0455	-1.5460	0.0101	0.0004	0.0073	11.5251	-23.3225	15.7029	-0.6063	0.2690	-0.7114	-0.2322
2.29	-9.6543	0.0523	-1.5481	0.0215	-0.0021	0.0066	11.4295	-23.4207	15.7147	-0.6064	0.2690	-0.7114	-0.2321
2.3	-9.6483	0.0589	-1.5458	0.0125	0.0050	0.0130	11.4579	-23.4541	15.8564	-0.6063	0.2690	-0.7114	-0.2321
2.31	-9.6360	0.0580	-1.5365	0.0140	0.0012	0.0078	11.4424	-23.5218	15.5939	-0.6063	0.2690	-0.7114	-0.2321
2.32	-9.6511	0.0594	-1.5370	0.0115	-0.0053	0.0068	11.5641	-23.3685	15.5349	-0.6064	0.2690	-0.7114	-0.2321
2.33	-9.6531	0.0600	-1.5294	0.0098	-0.0090	0.0023	11.3563	-23.2913	15.6378	-0.6064	0.2690	-0.7114	-0.2321
2.34	-9.6441	0.0609	-1.5269	0.0104	-0.0031	0.0116	11.4472	-23.2010	15.5906	-0.6064	0.2690	-0.7114	-0.2322
2.35	-9.6387	0.0617	-1.5159	0.0034	-0.0015	0.0069	11.4453	-23.3708	15.6331	-0.6064	0.2690	-0.7114	-0.2322
2.36	-9.6418	0.0621	-1.5224	0.0099	0.0028	0.0070	11.5918	-23.2629	15.4618	-0.6064	0.2690	-0.7114	-0.2322
2.37	-9.6464	0.0652	-1.5234	0.0119	0.0007	0.0075	11.4167	-23.2907	15.4531	-0.6064	0.2690	-0.7114	-0.2322
2.38	-9.6396	0.0697	-1.5167	0.0122	0.0037	0.0079	11.3489	-23.3002	15.7026	-0.6064	0.2690	-0.7114	-0.2322
2.39	-9.6500	0.0693	-1.5204	0.0142	0.0071	0.0097	11.4611	-23.0026	15.7963	-0.6063	0.2690	-0.7114	-0.2322
2.4	-9.6487	0.0775	-1.5185	0.0168	0.0032	0.0076	11.3337	-23.1476	15.6175	-0.6063	0.2690	-0.7114	-0.2322
2.41	-9.6394	0.0780	-1.5091	0.0168	0.0068	0.0050	11.3875	-23.0565	15.8576	-0.6063	0.2690	-0.7114	-0.2321
2.42	-9.6443	0.0735	-1.5075	0.0107	0.0025	0.0043	11.3892	-23.6647	15.8812	-0.6063	0.2690	-0.7114	-0.2321
2.43	-9.6446	0.0739	-1.5132	0.0120	0.0010	0.0090	12.0805	-22.8585	15.7819	-0.6063	0.2690	-0.7115	-0.2321
2.44	-9.6423	0.0655	-1.5113	0.0190	-0.0006	0.0066	12.2148	-23.6416	15.9068	-0.6063	0.2690	-0.7115	-0.2321
2.45	-9.6431	0.0577	-1.5103	0.0120	-0.0035	0.0095	11.5928	-25.1195	15.7455	-0.6063	0.2689	-0.7115	-0.2321
2.46	-9.6543	0.0493	-1.5206	0.0172	-0.0020	0.0072	11.6238	-24.1438	15.6337	-0.6063	0.2689	-0.7114	-0.2321
2.47	-9.6446	0.0422	-1.5196	0.0075	-0.0017	0.0117	11.5548	-23.5077	15.8014	-0.6063	0.2689	-0.7114	-0.2321
2.48	-9.6434	0.0387	-1.5247	0.0175	-0.0020	0.0105	11.4902	-23.0932	15.7225	-0.6064	0.2689	-0.7115	-0.2321
2.49	-9.6411	0.0373	-1.5293	0.0140	0.0048	0.0079	11.6123	-23.4015	15.7130	-0.6063	0.2689	-0.7115	-0.2321
2.5	-9.6415	0.0421	-1.5337	0.0164	-0.0041	0.0150	11.5865	-23.2649	15.7971	-0.6063	0.2688	-0.7115	-0.2321
2.51	-9.6457	0.0393	-1.5299	0.0121	-0.0023	0.0062	11.4704	-23.5662	15.6866	-0.6064	0.2688	-0.7115	-0.2321
2.52	-9.6524	0.0421	-1.5365	0.0184	-0.0044	0.0096	11.6335	-23.3543	15.7311	-0.6064	0.2688	-0.7115	-0.2321
2.53	-9.6551	0.0443	-1.5527	0.0158	0.0009	0.0110	11.4004	-23.3068	15.6154	-0.6064	0.2688	-0.7115	-0.2321
2.54	-9.6492	0.0428	-1.5501	0.0069	-0.0013	0.0094	11.2542	-23.1885	15.5933	-0.6064	0.2688	-0.7115	-0.2321
2.55	-9.6421	0.0451	-1.5594	0.0122	0.0026	0.0107	11.4856	-23.2495	15.6757	-0.6064	0.2688	-0.7115	-0.2321
2.56	-9.6468	0.0386	-1.5568	0.0145	-0.0002	0.0072	11.6352	-23.1096	15.3949	-0.6064	0.2688	-0.7115	-0.2321
2.57	-9.6534	0.0399	-1.5573	0.0206	-0.0062	0.0091	11.4688	-23.3509	15.6311	-0.6064	0.2687	-0.7115	-0.2321
2.58	-9.6452	0.0447	-1.5561	0.0105	-0.0051	0.0116	11.4658	-23.2443	15.8033	-0.6064	0.2687	-0.7115	-0.2321
2.59	-9.6474	0.0466	-1.5476	0.0125	0.0019	0.0120	11.5424	-23.2122	15.6659	-0.6064	0.2687	-0.7115	-0.2321
2.6	-9.6514	0.0476	-1.5499	0.0136	-0.0080	0.0149	11.5098	-23.1373	15.7243	-0.6064	0.2687	-0.7115	-0.2321
2.61	-9.6447	0.0473	-1.5428	0.0177	-0.0103	0.0100	11.4041	-23.2456	15.5835	-0.6065	0.2686	-0.7114	-0.2321
2.62	-9.6462	0.0529	-1.5324	0.0104	-0.0043	0.0111	11.3560	-23.3700	15.6387	-0.6065	0.2686	-0.7114	-0.2321
2.63	-9.6472	0.0553	-1.5368	0.0100	-0.0047	0.0132	11.6342	-23.4520	15.6144	-0.6065	0.2686	-0.7114	-0.2322
2.64	-9.6413	0.0589	-1.5296	0.0068	-0.0068	0.0118	11.6581	-23.3978	15.7373	-0.6065	0.2686	-0.7114	-0.2322
2.65	-9.6465	0.0587	-1.5186	0.0109	-0.0074	0.0107	11.4768	-23.3233	15.5494	-0.6065	0.2685	-0.7114	-0.2322
2.66	-9.6503	0.0585	-1.5190	0.0096	0.0048	0.0105	11.5594	-23.3190	15.5294	-0.6065	0.2685	-0.7114	-0.2322
2.67	-9.6450	0.0563	-1.5208	0.0156	-0.0012	0.0117	11.4206	-23.1870	15.5325	-0.6065	0.2685	-0.7114	-0.2323
2.68	-9.6424	0.0569	-1.5127	0.0139	-0.0044	0.0105	11.4564	-23.0717	15.6370	-0.6065	0.2685	-0.7114	-0.2323
2.69	-9.6436	0.0592	-1.5193	0.0162	0.0030	0.0080	11.4179	-23.4414	15.6023	-0.6065	0.2685	-0.7114	-0.2322
2.7	-9.6492	0.0556	-1.5136	0.0176	-0.0091	0.0120	11.5215	-23.3386	15.7036	-0.6066	0.2684	-0.7114	-0.2322
2.71	-9.6421	0.0568	-1.5098	0.0151	-0.0133	0.0129	11.5177	-23.5150	15.7306	-0.6066	0.2684	-0.7114	-0.2323
2.72	-9.6417	0.0580	-1.5116	0.0204	0.0016	0.0081	11.4035	-23.2729	15.5470	-0.6066	0.2684	-0.7114	-0.2322
2.73	-9.6480	0.0607	-1.5201	0.0131	-0.0002	0.0095	11.2803	-23.2075	15.7719	-0.6066	0.2683	-0.7114	-0.2322
2.74	-9.6438	0.0648	-1.5162	0.0074	-0.0007	0.0092	11.3336	-23.2215	15.8013	-0.6066	0.2683	-0.7114	-0.2323
2.75	-9.6439	0.0627	-1.5220	0.0107	-0.0010	0.0098	11.4974	-23.3329	15.5870	-0.6066	0.2683	-0.7114	-0.2323
2.76	-9.6476	0.0609	-1.5246	0.0149	-0.0007	0.0096	11.1905	-23.4077	15.7812	-0.6066	0.2683	-0.7114	-0.2323
2.77	-9.6449	0.0625	-1.5291	0.0119	-0.0031	0.0088	11.3257	-23.3909	15.5723	-0.6067	0.2683	-0.7114	-0.2323
2.78	-9.6458	0.0619	-1.5243	0.0158	0.0048	0.0086	11.5405	-23.2078	15.8495	-0.6066	0.2683	-0.7114	-0.2323
2.79	-9.6445	0.0582	-1.5274	0.0129	-0.0024	0.0119	11.4059	-23.3354	15.8540	-0.6066	0.2683	-0.7114	-0.2323
2.8	-9.6462	0.0544	-1.5324	0.0152	-0.0046	0.0130	11.4441	-23.2615	15.5719	-0.6067	0.2682	-0.7114	-0.2323
2.81	-9.6472	0.0586	-1.5267	0.0117	0.0001	0.0107	11.5014	-23.4782	15.7417	-0.6067	0.2682	-0.7114	-0.2323
2.82	-9.6470	0.0522	-1.5314	0.0200	-0.0063	0.0079	11.7271	-23.3560	15.6863	-0.6067	0.2682	-0.7114	-0.2323
2.83	-9.6510	0.0503	-1.5402	0.0163	-0.0040	0.0145	11.6408	-23.5524	15.6211	-0.6067	0.2681	-0.7114	-0.2323
2.84	-9.6474	0.0560	-1.5349	0.0162	-0.0073	0.0105	11.5307	-23.4851	15.6188	-0.6067	0.2681	-0.7114	-0.2323
2.85	-9.6414	0.0535	-1.5307	0.0123	-0.0085	0.0076	11.4380	-23.3797	15.7216	-0.6068	0.2681	-0.7113	-0.2323
2.86	-9.6429	0.0482	-1.5377	0.0119	-0.0072	0.0123	11.4154	-23.2493	15.8119	-0.6068	0.2681	-0.7113	-0.2323
2.87	-9.6483	0.0465	-1.5323	0.0096	-0.0005	0.0094	11.3254	-23.0601	15.5860	-0.6068	0.2681	-0.7113	-0.2323
2.88	-9.6402	0.0427	-1.5304	0.0094	-0.0049	0.0060	11.4387	-23.3325	15.7136	-0.6068	0.2681	-0.7113	-0.2324
2.89	-9.6493	0.0406	-1.5217	0.0175	-0.0053	0.0084	11.5386	-23.2716	15.7071	-0.6068	0.2680	-0.7113	-0.2323
2.9	-9.6536	0.0380	-1.5305	0.0145	-0.0022	0.0115	11.4956	-23.4650	15.5719	-0.6069	0.2680	-0.7113	-0.2323
2.91	-9.6358	0.0456	-1.5179	0.0188	0.0041	0.0086	11.3853	-23.0366	15.4779	-0.6069	0.2680	-0.7113	-0.2323
2.92	-9.6369	0.0433	-1.5164	0.0126	0.0082	0.0054	11.7037	-23.2986	15.8169	-0.6068	0.2680	-0.7113	-0.2323
2.93	-9.6555	0.0671	-1.5486	-0.0012	0.0032	0.0080	11.8699	-22.9076	15.9148	-0.6068	0.2680	-0.7113	-0.2323
2.94	-9.6760	0.0431	-1.5688	-0.0000	0.0063	0.0038	11.9160	-23.6305	15.7993	-0.6068	0.2681	-0.7113	-0.2324
2.95	-9.5939	0.0180	-1.4919	-0.0002	0.0018	0.0028	11.6932	-25.2276	15.6637	-0.6068	0.2681	-0.7113	-0.2324
2.96	-9.6512	0.0025	-1.5506	0.0099	0.0045	0.0019	11.4439	-24.0941	15.5322	-0.6068	0.2682	-0.7113	-0.2324
2.97	-9.7034	0.0145	-1.5929	0.0095	0.0096	0.0048	11.3242	-23.5456	15.5977	-0.6067	0.2682	-0.7113	-0.2324
2.98	-9.5768	0.0212	-1.4747	0.0047	-0.0025	0.0047	11.3640	-23.0963	15.8106	-0.6067	0.2682	-0.7113	-0.2324
2.99	-9.6731	0.0223	-1.5622	0.0175	0.0054	0.0070	11.3148	-23.3833	15.7941	-0.6067	0.2682	-0.7113	-0.2324
3	-9.6717	0.0679	-1.5560	0.0199	-0.0037	0.0136	11.7001	-23.3996	15.6931	-0.6067	0.2682	-0.7113	-0.2324
3.01	-9.6049	0.0644	-1.4995	0.0158	-0.0018	0.0083	11.7281	-23.3367	15.5901	-0.6068	0.2682	-0.7113	-0.2323
3.02	-9.6588	0.0937	-1.5349	0.0153	-0.0038	0.0088	11.3682	-23.3736	15.7165	-0.6068	0.2681	-0.7113	-0.2323
3.03	-9.6608	0.0790	-1.5296	0.0129	0.0024	0.0114	11.6547	-23.4864	15.7142	-0.6068	0.2681	-0.7113	-0.2323
3.04	-9.6350	0.0804	-1.5068	0.0165	0.0031	0.0061	11.6249	-23.3856	15.7370	-0.6068	0.2681	-0.7113	-0.2323
3.05	-9.6368	0.0801	-1.4963	0.0187	0.0047	0.0037	11.4159	-23.3573	15.8517	-0.6068	0.2681	-0.7113	-0.2323
3.06	-9.6599	0.0763	-1.5194	0.0152	0.0025	0.0069	11.4251	-23.2335	15.6713	-0.6068	0.2681	-0.7113	-0.2323
3.07	-9.6465	0.0820	-1.5041	0.0110	0.0049	0.0059	11.4502	-23.3044	15.7598	-0.6068	0.2681	-0.7113	-0.2323
3.08	-9.6296	0.0802	-1.4960	0.0146	0.0052	0.0122	11.5091	-23.2467	15.7621	-0.6067	0.2681	-0.7114	-0.2322
3.09	-9.6495	0.0788	-1.5179	0.0113	0.0047	0.0076	11.3208	-23.3694	15.6932	-0.6067	0.2681	-0.7114	-0.2322
3.1	-9.6409	0.0732	-1.5075	0.0169	0.0121	0.0030	11.4475	-23.1240	15.7039	-0.6067	0.2681	-0.7114	-0.2322
3.11	-9.6395	0.0651	-1.5201	0.0086	0.0125	0.0059	11.4200	-23.2699	15.7326	-0.6067	0.2681	-0.7114	-0.2322
3.12	-9.6541	0.0694	-1.5351	0.0083	0.0111	0.0121	11.4262	-23.2157	15.6284	-0.6066	0.2682	-0.7115	-0.2322
3.13	-9.6528	0.0681	-1.5323	0.0151	0.0085	0.0068	11.1488	-23.2689	15.6944	-0.6066	0.2682	-0.7115	-0.2322
3.14	-9.6376	0.0676	-1.5384	0.0131	0.0036	0.0062	11.3249	-23.0206	15.6957	-0.6066	0.2682	-0.7115	-0.2322
3.15	-9.6431	0.0710	-1.5378	0.0122	0.0044	-0.0017	11.4377	-23.2753	15.7369	-0.6066	0.2682	-0.7115	-0.2321
3.16	-9.6623	0.0655	-1.5531	0.0112	0.0073	0.0013	11.2596	-23.3034	15.6080	-0.6066	0.2682	-0.7115	-0.2321
3.17	-9.6457	0.0605	-1.5492	0.0050	0.0088	0.0105	11.2570	-23.0976	15.7306	-0.6065	0.2682	-0.7115	-0.2321
3.18	-9.6427	0.0445	-1.5534	0.0092	0.0027	0.0084	11.5173	-23.3346	15.5352	-0.6065	0.2683	-0.7115	-0.2321
3.19	-9.6578	0.0264	-1.5750	0.0021	0.0054	0.0074	11.6227	-23.3868	15.4737	-0.6065	0.2683	-0.7115	-0.2321
3.2	-9.6475	0.0160	-1.5619	0.0071	0.0052	0.0008	11.5916	-23.4940	15.5841	-0.6065	0.2683	-0.7115	-0.2321
3.21	-9.6511	0.0059	-1.5666	0.0078	-0.0007	0.0082	11.5066	-23.3562	15.4217	-0.6065	0.2683	-0.7115	-0.2322
3.22	-9.6614	-0.0016	-1.5769	0.0072	-0.0040	0.0057	11.5356	-23.3536	15.6010	-0.6065	0.2683	-0.7115	-0.2322
3.23	-9.6404	-0.0031	-1.5655	0.0054	0.0020	0.0079	11.6445	-23.3576	15.6829	-0.6065	0.2684	-0.7115	-0.2322
3.24	-9.6490	-0.0134	-1.5670	0.0130	0.0045	0.0032	11.4044	-23.2947	15.8176	-0.6065	0.2684	-0.7115	-0.2322
3.25	-9.6535	-0.0052	-1.5604	0.0120	0.0003	0.0089	11.3489	-23.4318	15.6771	-0.6065	0.2684	-0.7115	-0.2322
3.26	-9.6304	-0.0069	-1.5390	0.0161	0.0078	0.0088	11.4852	-23.3891	15.5887	-0.6065	0.2684	-0.7115	-0.2322
3.27	-9.6659	0.0166	-1.5673	0.0131	0.0053	0.0062	11.3313	-23.4004	15.7208	-0.6065	0.2684	-0.7116	-0.2321
3.28	-9.6360	0.0439	-1.5290	0.0177	-0.0038	0.0089	11.3730	-23.4248	15.6941	-0.6065	0.2684	-0.7115	-0.2321
3.29	-9.6231	0.0768	-1.5114	0.0180	-0.0036	0.0079	11.4200	-23.1014	15.7550	-0.6065	0.2683	-0.7115	-0.2321
3.3	-9.6796	0.0975	-1.5470	0.0170	0.0031	0.0007	11.2794	-23.1311	15.9636	-0.6065	0.2683	-0.7115	-0.2321
3.31	-9.6436	0.1034	-1.4936	0.0137	-0.0004	0.0040	11.1716	-23.1479	15.6624	-0.6065	0.2683	-0.7115	-0.2320
3.32	-9.6186	0.1002	-1.4824	0.0098	-0.0050	0.0095	11.3129	-23.2992	15.6402	-0.6065	0.2683	-0.7115	-0.2321
3.33	-9.6574	0.0966	-1.5146	0.0084	0.0006	0.0090	11.3326	-23.3918	15.8777	-0.6065	0.2683	-0.7115	-0.2321
3.34	-9.6450	0.0916	-1.4970	0.0048	-0.0022	0.0063	11.1814	-23.0465	15.6228	-0.6065	0.2684	-0.7115	-0.2321
3.35	-9.6327	0.0764	-1.4846	0.0030	-0.0013	0.0091	11.1798	-23.0754	15.5840	-0.6065	0.2684	-0.7115	-0.2321
3.36	-9.6603	0.0616	-1.5143	0.0066	-0.0039	0.0112	11.4444	-23.3251	15.7940	-0.6065	0.2684	-0.7115	-0.2322
3.37	-9.6451	0.0469	-1.5003	0.0083	-0.0073	0.0093	11.5102	-23.4301	15.7295	-0.6066	0.2684	-0.7114	-0.2322
3.38	-9.6329	0.0413	-1.4914	0.0051	0.0044	0.0085	11.2943	-23.3301	15.4081	-0.6066	0.2684	-0.7114	-0.2322
3.39	-9.6423	0.0447	-1.4963	0.0094	0.0078	0.0113	11.6952	-23.2789	15.5727	-0.6065	0.2684	-0.7115	-0.2322
3.4	-9.6400	0.0467	-1.4959	0.0182	0.0046	0.0068	11.4606	-23.5068	15.6628	-0.6065	0.2684	-0.7115	-0.2322
3.41	-9.6473	0.0712	-1.5047	0.0196	0.0033	0.0118	11.5130	-23.2175	15.5435	-0.6065	0.2684	-0.7115	-0.2322
3.42	-9.6360	0.0891	-1.4967	0.0188	-0.0024	0.0107	11.8674	-23.4089	15.5397	-0.6065	0.2683	-0.7115	-0.2322
3.43	-9.6495	0.1137	-1.5111	0.0174	0.0026	0.0037	11.9522	-22.9638	15.6568	-0.6065	0.2683	-0.7115	-0.2321
3.44	-9.6562	0.1163	-1.5295	0.0176	0.0009	0.0135	12.0714	-23.8017	15.7532	-0.6066	0.2683	-0.7115	-0.2321
3.45	-9.6375	0.1075	-1.5177	0.0107	-0.0022	0.0106	11.4969	-25.0701	15.7309	-0.6066	0.2683	-0.7115	-0.2321
3.46	-9.6390	0.0983	-1.5333	0.0091	0.0007	0.0125	11.5460	-23.9693	15.6180	-0.6065	0.2683	-0.7115	-0.2322
3.47	-9.6485	0.0751	-1.5579	0.0132	0.0020	0.0095	11.3424	-23.7891	15.6331	-0.6065	0.2682	-0.7115	-0.2322
3.48	-9.6436	0.0540	-1.5516	0.0049	-0.0047	0.0096	11.2999	-23.0275	15.7876	-0.6066	0.2682	-0.7115	-0.2322
3.49	-9.6568	0.0294	-1.5635	0.0034	0.0036	0.0079	11.4915	-23.5094	15.7024	-0.6065	0.2683	-0.7115	-0.2322
3.5	-9.6539	0.0121	-1.5687	0.0160	-0.0037	0.0091	11.3079	-23.3322	15.5816	-0.6066	0.2683	-0.7115	-0.2322
3.51	-9.6481	0.0071	-1.5643	0.0134	-0.0033	0.0087	11.4725	-23.3026	15.6255	-0.6066	0.2682	-0.7115	-0.2322
3.52	-9.6398	0.0069	-1.5618	0.0105	-0.0112	0.0097	11.5715	-23.3950	15.5892	-0.6066	0.2682	-0.7114	-0.2322
3.53	-9.6452	0.0138	-1.5643	0.0129	-0.0041	0.0072	11.4070	-23.3111	15.7230	-0.6066	0.2682	-0.7114	-0.2323
3.54	-9.6542	0.0246	-1.5635	0.0142	-0.0024	0.0045	11.4894	-22.9621	15.7768	-0.6067	0.2682	-0.7114	-0.2322
3.55	-9.6424	0.0337	-1.5522	0.0147	-0.0151	0.0123	11.5388	-23.2229	15.5971	-0.6067	0.2682	-0.7114	-0.2323
3.56	-9.6500	0.0428	-1.5551	0.0175	-0.0096	0.0114	11.5250	-23.2224	15.6189	-0.6068	0.2681	-0.7113	-0.2323
3.57	-9.6505	0.0466	-1.5514	0.0086	-0.0083	0.0099	11.6234	-23.3472	15.5939	-0.6068	0.2681	-0.7113	-0.2323
3.58	-9.6332	0.0507	-1.5378	0.0141	-0.0034	0.0103	11.4804	-23.6987	15.5040	-0.6068	0.2681	-0.7113	-0.2323
3.59	-9.6465	0.0481	-1.5457	0.0187	-0.0040	0.0099	11.6354	-23.5073	15.5675	-0.6068	0.2681	-0.7113	-0.2323
3.6	-9.6611	0.0536	-1.5505	0.0075	-0.0121	0.0126	11.5217	-23.2889	15.3118	-0.6069	0.2680	-0.7113	-0.2323
3.61	-9.6284	0.0483	-1.5229	0.0082	-0.0099	0.0109	11.3293	-23.3259	15.4989	-0.6069	0.2680	-0.7112	-0.2324
3.62	-9.6464	0.0437	-1.5345	0.0118	0.0028	0.0104	11.4155	-23.3122	15.7026	-0.6069	0.2680	-0.7112	-0.2324
3.63	-9.6586	0.0388	-1.5337	0.0103	-0.0035	0.0074	11.5455	-23.3224	15.6887	-0.6069	0.2680	-0.7112	-0.2324
3.64	-9.6250	0.0346	-1.5023	0.0130	0.0002	0.0051	11.4167	-23.2154	15.7054	-0.6069	0.2680	-0.7112	-0.2324
3.65	-9.6373	0.0325	-1.5103	0.0082	0.0002	0.0084	11.3513	-23.2490	15.8083	-0.6069	0.2680	-0.7112	-0.2324
3.66	-9.6602	0.0409	-1.5245	0.0178	0.0061	0.0107	11.3608	-23.2155	15.7476	-0.6069	0.2680	-0.7112	-0.2324
3.67	-9.6406	0.0493	-1.5106	0.0110	0.0051	0.0052	11.4423	-23.3310	15.8958	-0.6069	0.2680	-0.7112	-0.2323
3.68	-9.6344	0.0642	-1.5132	0.0082	0.0033	0.0064	11.4460	-23.3014	15.8386	-0.6069	0.2680	-0.7112	-0.2323
3.69	-9.6493	0.0701	-1.5273	0.0163	-0.0029	0.0108	11.4538	-23.5303	15.4016	-0.6069	0.2680	-0.7112	-0.2323
3.7	-9.6473	0.0788	-1.5219	0.0110	0.0016	0.0117	11.4596	-23.5402	15.6005	-0.6069	0.2680	-0.7112	-0.2324
3.71	-9.6470	0.0857	-1.5282	0.0161	0.0010	0.0086	11.3512	-23.1556	15.7084	-0.6069	0.2680	-0.7113	-0.2323
3.72	-9.6321	0.0830	-1.5131	0.0125	-0.0028	0.0018	11.5008	-23.3133	15.6924	-0.6069	0.2680	-0.7112	-0.2323
3.73	-9.6482	0.0788	-1.5282	0.0102	-0.0005	0.0055	11.3465	-23.2603	15.6799	-0.6069	0.2680	-0.7112	-0.2323
3.74	-9.6482	0.0673	-1.5285	0.0072	-0.0070	0.0112	11.5179	-23.2103	15.7908	-0.6069	0.2680	-0.7112	-0.2324
3.75	-9.6381	0.0568	-1.5238	0.0149	0.0084	0.0073	11.7450	-23.4488	15.6714	-0.6069	0.2680	-0.7112	-0.2323
3.76	-9.6458	0.0469	-1.5263	0.0135	0.0024	0.0112	11.4786	-23.3465	15.5853	-0.6069	0.2680	-0.7112	-0.2323
3.77	-9.6482	0.0451	-1.5362	0.0159	0.0066	0.0083	11.7032	-23.5052	15.6395	-0.6069	0.2680	-0.7113	-0.2323
3.78	-9.6453	0.0453	-1.5258	0.0167	0.0066	0.0090	11.5916	-23.3537	15.5888	-0.6069	0.2680	-0.7113	-0.2323
3.79	-9.6370	0.0465	-1.5184	0.0152	0.0002	0.0105	11.4087	-23.3456	15.6454	-0.6069	0.2680	-0.7113	-0.2323
3.8	-9.6546	0.0532	-1.5354	0.0153	-0.0021	0.0075	11.4707	-23.3850	15.5195	-0.6069	0.2679	-0.7113	-0.2323
3.81	-9.6445	0.0673	-1.5303	0.0127	-0.0004	0.0120	11.4467	-23.1847	15.5964	-0.6069	0.2679	-0.7113	-0.2323
3.82	-9.6340	0.0672	-1.5255	0.0140	-0.0045	0.0092	11.3434	-23.4782	15.8143	-0.6069	0.2679	-0.7113	-0.2323
3.83	-9.6533	0.0710	-1.5510	0.0165	-0.0028	0.0110	11.4028	-23.2966	15.7986	-0.6069	0.2679	-0.7113	-0.2323
3.84	-9.6482	0.0707	-1.5476	0.0178	0.0095	0.0130	11.4661	-23.1853	15.9279	-0.6069	0.2679	-0.7113	-0.2323
3.85	-9.6418	0.0698	-1.5494	0.0191	0.0138	0.0076	11.4266	-23.4358	15.6524	-0.6069	0.2678	-0.7114	-0.2322
3.86	-9.6519	0.0661	-1.5575	0.0125	0.0087	0.0077	11.3701	-23.2554	15.6088	-0.6069	0.2679	-0.7114	-0.2322
3.87	-9.6495	0.0533	-1.5588	0.0165	0.0042	0.0111	11.5252	-23.2458	15.5864	-0.6068	0.2678	-0.7114	-0.2322
3.88	-9.6471	0.0491	-1.5577	0.0142	0.0023	0.0073	11.5355	-23.4412	15.7068	-0.6068	0.2678	-0.7114	-0.2322
3.89	-9.6457	0.0404	-1.5469	0.0140	-0.0054	0.0066	11.5143	-23.3418	15.6884	-0.6069	0.2678	-0.7114	-0.2322
3.9	-9.6512	0.0345	-1.5521	0.0137	0.0003	0.0052	11.5663	-23.3435	15.5812	-0.6069	0.2678	-0.7114	-0.2322
3.91	-9.6413	0.0372	-1.5334	0.0095	-0.0004	0.0071	11.6376	-23.2768	15.6338	-0.6069	0.2678	-0.7114	-0.2322
3.92	-9.6483	0.0346	-1.5320	0.0124	-0.0003	0.0078	11.5792	-23.5966	15.5894	-0.6069	0.2678	-0.7114	-0.2322
3.93	-9.6552	0.0344	-1.5351	0.0176	-0.0028	0.0062	11.7627	-22.7952	15.7617	-0.6069	0.2678	-0.7114	-0.2321
3.94	-9.6518	0.0354	-1.5215	0.0140	-0.0088	0.0056	11.9721	-23.5050	15.8904	-0.6069	0.2678	-0.7114	-0.2321
3.95	-9.6447	0.0437	-1.5126	0.0133	-0.0047	0.0049	11.6515	-25.2051	15.8436	-0.6070	0.2678	-0.7113	-0.2321
3.96	-9.6406	0.0510	-1.4967	0.0150	-0.0024	0.0054	11.5841	-24.1849	15.7437	-0.6070	0.2678	-0.7113	-0.2321
3.97	-9.6503	0.0669	-1.5165	0.0143	0.0043	0.0044	11.5586	-23.6705	15.8537	-0.6070	0.2678	-0.7113	-0.2321
3.98	-9.6386	0.0759	-1.5069	0.0133	0.0071	0.0046	11.4620	-23.1091	15.7006	-0.6070	0.2678	-0.7114	-0.2321
3.99	-9.6543	0.0858	-1.5249	0.0092	0.0055	0.0032	11.6260	-23.4805	15.8087	-0.6069	0.2679	-0.7114	-0.2320
4	-9.6460	0.0866	-1.5310	0.0042	0.0005	0.0083	11.4312	-23.2985	15.7926	-0.6069	0.2679	-0.7113	-0.2321
4.01	-9.6451	0.0708	-1.5489	0.0061	0.0026	0.0054	11.4894	-23.3053	15.6575	-0.6069	0.2679	-0.7113	-0.2321
4.02	-9.6556	0.0472	-1.5602	0.0082	0.0080	0.0057	11.4486	-23.2902	15.8245	-0.6069	0.2679	-0.7114	-0.2321
4.03	-9.6515	0.0187	-1.5638	0.0027	0.0019	-0.0011	11.3393	-23.2176	15.6738	-0.6069	0.2680	-0.7113	-0.2321
4.04	-9.6499	-0.0084	-1.5796	-0.0041	0.0049	0.0027	11.3176	-23.0735	15.7428	-0.6069	0.2681	-0.7113	-0.2321
4.05	-9.6433	-0.0306	-1.5691	0.0014	-0.0041	0.0053	11.2524	-23.2607	15.6053	-0.6069	0.2681	-0.7113	-0.2321
4.06	-9.6383	-0.0470	-1.5541	0.0049	-0.0009	0.0070	11.2645	-23.3254	15.7256	-0.6069	0.2681	-0.7113	-0.2322
4.07	-9.6489	-0.0448	-1.5530	0.0144	0.0022	0.0088	11.2871	-23.1749	15.6622	-0.6069	0.2681	-0.7113	-0.2322
4.08	-9.6514	-0.0206	-1.5387	0.0189	0.0033	0.0050	11.2027	-23.4095	15.8135	-0.6069	0.2681	-0.7113	-0.2321
4.09	-9.6406	0.0069	-1.5118	0.0187	0.0063	0.0070	11.2363	-23.2633	15.6226	-0.6069	0.2681	-0.7113	-0.2321
4.1	-9.6490	0.0331	-1.4994	0.0197	-0.0015	0.0048	11.3627	-23.0054	15.7225	-0.6069	0.2681	-0.7113	-0.2320
4.11	-9.6462	0.0689	-1.4850	0.0239	-0.0040	0.0068	11.1243	-23.2058	15.8719	-0.6069	0.2681	-0.7113	-0.2320
4.12	-9.6414	0.1104	-1.4851	0.0185	-0.0003	0.0091	11.4210	-23.2006	15.6223	-0.6069	0.2680	-0.7113	-0.2320
4.13	-9.6751	0.1931	-1.5324	0.0211	-0.0055	0.0126	11.4273	-23.2782	15.8288	-0.6069	0.2680	-0.7113	-0.2320
4.14	-9.6223	0.2546	-1.4973	0.0193	-0.0045	0.0069	11.4214	-23.5000	15.7930	-0.6070	0.2680	-0.7113	-0.2319
4.15	-9.6482	0.2818	-1.5208	0.0178	0.0038	0.0032	11.5693	-23.4179	15.7929	-0.6070	0.2680	-0.7113	-0.2319
4.16	-9.6730	0.2760	-1.5609	0.0087	0.0057	0.0091	11.5935	-23.3279	15.6166	-0.6070	0.2680	-0.7113	-0.2319
4.17	-9.5940	0.1895	-1.4825	-0.0073	-0.0061	0.0032	11.5987	-23.5111	15.6335	-0.6070	0.2680	-0.7113	-0.2320
4.18	-9.6755	0.0660	-1.5548	-0.0091	-0.0035	0.0045	11.4600	-23.1536	15.7394	-0.6070	0.2681	-0.7113	-0.2320
4.19	-9.6612	-0.0134	-1.5588	-0.0164	-0.0023	0.0011	11.4311	-23.2400	15.8390	-0.6069	0.2682	-0.7112	-0.2321
4.2	-9.6244	-0.1054	-1.5251	-0.0016	-0.0102	0.0055	11.6390	-23.5373	15.6924	-0.6069	0.2682	-0.7112	-0.2322
4.21	-9.6627	-0.0954	-1.5576	0.0113	-0.0070	0.0066	11.3531	-23.1308	15.9226	-0.6070	0.2682	-0.7111	-0.2322
4.22	-9.6326	-0.0798	-1.5309	0.0161	-0.0013	0.0009	11.5040	-23.1543	16.1018	-0.6070	0.2683	-0.7111	-0.2321
4.23	-9.6553	-0.0214	-1.5376	0.0203	0.0016	0.0077	11.3898	-23.2957	15.7871	-0.6070	0.2682	-0.7111	-0.2321
4.24	-9.6440	0.0618	-1.5139	0.0184	-0.0053	0.0048	11.3100	-23.2345	15.8055	-0.6070	0.2682	-0.7111	-0.2321
4.25	-9.6300	0.0969	-1.5062	0.0220	0.0001	0.0006	11.5645	-23.0711	15.8759	-0.6071	0.2682	-0.7111	-0.2320
4.26	-9.6599	0.1409	-1.5282	0.0097	0.0035	0.0055	11.2886	-23.2199	15.5888	-0.6070	0.2682	-0.7111	-0.2320
4.27	-9.6368	0.1321	-1.5031	0.0018	-0.0056	0.0028	11.2609	-23.1427	15.6857	-0.6071	0.2683	-0.7111	-0.2320
4.28	-9.6473	0.1028	-1.5260	0.0008	-0.0007	0.0073	11.2651	-23.0528	15.8129	-0.6071	0.2683	-0.7111	-0.2321
4.29	-9.6492	0.0645	-1.5212	0.0042	0.0046	0.0060	11.1466	-23.2563	15.7565	-0.6070	0.2683	-0.7111	-0.2321
4.3	-9.6405	0.0039	-1.5207	0.0014	0.0046	0.0090	11.4563	-23.2269	15.6718	-0.6070	0.2684	-0.7111	-0.2321
4.31	-9.6571	-0.0208	-1.5411	-0.0071	0.0019	0.0074	11.6076	-23.4144	15.8246	-0.6070	0.2684	-0.7111	-0.2322
4.32	-9.6360	-0.0378	-1.5174	-0.0029	-0.0008	0.0085	11.5746	-23.2379	15.6805	-0.6070	0.2685	-0.7111	-0.2322
4.33	-9.6478	-0.0350	-1.5240	0.0090	-0.0007	0.0129	11.4657	-23.3667	15.5914	-0.6069	0.2685	-0.7111	-0.2323
4.34	-9.6544	-0.0102	-1.5211	0.0132	0.0055	0.0070	11.6074	-23.3255	15.7101	-0.6069	0.2685	-0.7111	-0.2323
4.35	-9.6394	0.0186	-1.5110	0.0134	0.0028	0.0064	11.4867	-23.1794	15.7074	-0.6069	0.2685	-0.7111	-0.2322
4.36	-9.6472	0.0511	-1.5285	0.0108	-0.0017	0.0092	11.3105	-23.2457	15.8385	-0.6069	0.2685	-0.7111	-0.2322
4.37	-9.6409	0.0724	-1.5176	0.0112	0.0038	0.0116	11.3509	-23.3477	15.8914	-0.6069	0.2685	-0.7111	-0.2322
4.38	-9.6495	0.0810	-1.5219	0.0101	0.0059	0.0059	11.3551	-23.4220	15.5794	-0.6069	0.2685	-0.7111	-0.2322
4.39	-9.6457	0.0837	-1.5136	0.0089	0.0093	0.0130	11.3276	-23.2277	15.6707	-0.6069	0.2685	-0.7111	-0.2323
4.4	-9.6408	0.0717	-1.4938	0.0043	0.0061	0.0119	11.5304	-23.1036	15.8068	-0.6068	0.2685	-0.7112	-0.2323
4.41	-9.6554	0.0564	-1.5081	0.0094	0.0122	0.0073	11.3566	-22.9988	15.5928	-0.6068	0.2685	-0.7112	-0.2323
4.42	-9.6350	0.0390	-1.4841	-0.0050	0.0100	0.0051	11.4956	-23.3376	15.6891	-0.6067	0.2686	-0.7112	-0.2323
4.43	-9.6348	0.0272	-1.4773	0.0088	0.0096	0.0064	11.7144	-22.6263	16.1127	-0.6067	0.2686	-0.7112	-0.2323
4.44	-9.6523	0.0283	-1.4871	0.0061	0.0042	0.0090	11.7056	-23.4858	16.1939	-0.6067	0.2686	-0.7112	-0.2323
4.45	-9.6439	0.0300	-1.4727	0.0108	0.0041	0.0090	11.4823	-25.1087	15.8062	-0.6066	0.2686	-0.7112	-0.2323
4.46	-9.6406	0.0417	-1.4741	0.0146	0.0080	0.0080	11.3826	-24.1319	15.8668	-0.6066	0.2686	-0.7113	-0.2323
4.47	-9.6443	0.0528	-1.4817	0.0187	0.0097	0.0122	11.4725	-23.5843	15.6144	-0.6066	0.2686	-0.7113	-0.2323
4.48	-9.6388	0.0603	-1.4811	0.0150	0.0013	0.0110	11.3544	-23.1296	15.4878	-0.6066	0.2686	-0.7113	-0.2323
4.49	-9.6328	0.0773	-1.4841	0.0181	0.0061	0.0138	11.4340	-23.4175	15.6584	-0.6066	0.2686	-0.7113	-0.2323
4.5	-9.6445	0.0755	-1.5043	0.0144	0.0040	0.0092	11.5361	-23.3484	15.5947	-0.6065	0.2686	-0.7114	-0.2322
4.51	-9.6577	0.0703	-1.5165	0.0153	0.0046	0.0103	11.5273	-23.4232	15.5453	-0.6065	0.2685	-0.7114	-0.2322
4.52	-9.6470	0.0654	-1.5177	0.0066	0.0065	0.0095	11.7118	-23.3805	15.7725	-0.6065	0.2686	-0.7114	-0.2322
4.53	-9.6462	0.0550	-1.5238	-0.0038	0.0093	0.0063	11.5630	-23.3058	15.4876	-0.6065	0.2686	-0.7114	-0.2323
4.54	-9.6454	0.0492	-1.5349	0.0126	0.0108	0.0083	11.4174	-23.4446	15.4797	-0.6064	0.2686	-0.7114	-0.2323
4.55	-9.6430	0.0339	-1.5482	0.0090	0.0080	0.0122	11.4140	-23.4925	15.7788	-0.6064	0.2686	-0.7115	-0.2323
4.56	-9.6444	0.0300	-1.5537	0.0084	0.0022	0.0111	11.2366	-23.4801	15.5235	-0.6064	0.2686	-0.7115	-0.2323
4.57	-9.6562	0.0266	-1.5709	0.0137	0.0010	0.0125	11.4228	-23.3799	15.4469	-0.6064	0.2686	-0.7115	-0.2323
4.58	-9.6583	0.0273	-1.5779	0.0167	0.0069	0.0118	11.5524	-23.2627	15.6011	-0.6063	0.2686	-0.7115	-0.2323
4.59	-9.6495	0.0346	-1.5816	0.0142	-0.0004	0.0116	11.4568	-23.4185	15.6924	-0.6063	0.2686	-0.7115	-0.2323
4.6	-9.6499	0.0447	-1.5931	0.0082	0.0026	0.0118	11.3225	-23.2888	15.8315	-0.6063	0.2686	-0.7115	-0.2323
4.61	-9.6540	0.0463	-1.6069	0.0175	0.0023	0.0109	11.2897	-23.2510	15.5075	-0.6063	0.2685	-0.7115	-0.2323
4.62	-9.6490	0.0545	-1.6067	0.0164	0.0053	0.0104	11.3948	-23.3141	15.4510	-0.6063	0.2685	-0.7116	-0.2323
4.63	-9.6547	0.0682	-1.6132	0.0125	0.0072	0.0105	11.3156	-23.1047	15.7256	-0.6063	0.2685	-0.7116	-0.2323
4.64	-9.6663	0.0778	-1.6238	0.0116	0.0008	0.0070	11.5701	-23.1914	15.8021	-0.6063	0.2685	-0.7116	-0.2323
4.65	-9.6575	0.0862	-1.6125	0.0134	-0.0014	0.0099	11.5825	-23.3445	15.5288	-0.6063	0.2685	-0.7116	-0.2323
4.66	-9.6427	0.0927	-1.5990	0.0129	-0.0028	0.0093	11.4337	-23.2879	15.8281	-0.6063	0.2685	-0.7116	-0.2323
4.67	-9.6532	0.0942	-1.5916	0.0141	0.0006	0.0120	11.3561	-23.4150	15.6091	-0.6063	0.2685	-0.7116	-0.2323
4.68	-9.6642	0.0929	-1.5882	0.0174	-0.0053	0.0106	11.4581	-23.2746	15.5362	-0.6063	0.2684	-0.7116	-0.2323
4.69	-9.6410	0.0942	-1.5676	0.0140	0.0007	0.0069	11.5859	-23.1907	15.6757	-0.6063	0.2684	-0.7116	-0.2323
4.7	-9.6556	0.0944	-1.5622	0.0128	-0.0026	0.0087	11.6082	-23.3607	15.5416	-0.6063	0.2684	-0.7116	-0.2323
4.71	-9.6769	0.0955	-1.5737	0.0161	-0.0080	0.0094	11.4377	-23.6163	15.4465	-0.6064	0.2684	-0.7116	-0.2323
4.72	-9.6468	0.0972	-1.5535	0.0188	-0.0106	0.0121	11.4022	-23.3645	15.4698	-0.6064	0.2684	-0.7115	-0.2323
4.73	-9.6273	0.1009	-1.5284	0.0163	-0.0033	0.0098	11.3769	-23.3023	15.6357	-0.6064	0.2683	-0.7115	-0.2323
4.74	-9.6506	0.1031	-1.5358	0.0158	-0.0049	0.0068	11.5552	-23.3040	15.5508	-0.6065	0.2683	-0.7115	-0.2323
4.75	-9.6503	0.1052	-1.5237	0.0135	-0.0058	0.0083	11.4909	-23.4384	15.4119	-0.6065	0.2683	-0.7115	-0.2323
4.76	-9.6375	0.0960	-1.5029	0.0155	0.0007	0.0070	11.2694	-23.3050	15.5169	-0.6065	0.2683	-0.7115	-0.2322
4.77	-9.6524	0.0939	-1.5178	0.0089	-0.0049	0.0136	11.6025	-23.1775	15.5378	-0.6065	0.2683	-0.7115	-0.2323
4.78	-9.6567	0.0885	-1.5133	0.0095	0.0039	0.0042	11.5163	-23.3591	15.5567	-0.6065	0.2683	-0.7115	-0.2323
4.79	-9.6368	0.0765	-1.4945	0.0052	0.0018	0.0059	11.4049	-23.1415	15.4949	-0.6065	0.2683	-0.7115	-0.2323
4.8	-9.6302	0.0730	-1.4830	0.0056	-0.0008	0.0086	11.4708	-23.4008	15.6673	-0.6065	0.2683	-0.7115	-0.2323
4.81	-9.6501	0.0644	-1.4907	0.0075	-0.0020	0.0083	11.3322	-23.3074	15.7474	-0.6065	0.2683	-0.7115	-0.2323
4.82	-9.6486	0.0519	-1.4827	0.0045	-0.0022	0.0040	11.3810	-23.2506	15.5787	-0.6065	0.2684	-0.7115	-0.2323
4.83	-9.6306	0.0441	-1.4699	-0.0027	-0.0064	0.0061	11.4536	-23.1344	15.5096	-0.6065	0.2684	-0.7114	-0.2324
4.84	-9.6455	0.0295	-1.4834	0.0082	-0.0061	0.0077	11.4325	-23.0862	15.6064	-0.6065	0.2684	-0.7114	-0.2324
4.85	-9.6526	0.0193	-1.4913	0.0022	-0.0106	0.0097	11.4310	-23.2698	15.6364	-0.6065	0.2684	-0.7114	-0.2325
4.86	-9.6335	0.0059	-1.4836	0.0098	-0.0027	0.0087	11.4524	-23.1002	15.6116	-0.6065	0.2684	-0.7113	-0.2325
4.87	-9.6373	-0.0016	-1.4938	0.0149	0.0009	0.0074	11.5739	-23.3793	15.6262	-0.6065	0.2684	-0.7113	-0.2325
4.88	-9.6511	-0.0029	-1.5091	0.0144	0.0034	0.0113	11.6920	-23.3977	15.3271	-0.6065	0.2684	-0.7114	-0.2325
4.89	-9.6428	-0.0099	-1.5081	0.0134	-0.0065	0.0113	11.6748	-23.3831	15.5235	-0.6065	0.2684	-0.7114	-0.2325
4.9	-9.6395	-0.0052	-1.5106	0.0106	-0.0101	0.0127	11.5631	-23.5164	15.4951	-0.6066	0.2684	-0.7113	-0.2325
4.91	-9.6541	-0.0012	-1.5211	0.0205	-0.0079	0.0072	11.4301	-23.2663	15.4954	-0.6066	0.2683	-0.7113	-0.2325
4.92	-9.6506	0.0066	-1.5263	0.0173	0.0008	0.0088	11.5843	-23.5906	15.6406	-0.6066	0.2683	-0.7113	-0.2325
4.93	-9.6374	0.0155	-1.5239	0.0080	-0.0104	0.0123	11.8411	-22.8111	15.7742	-0.6066	0.2683	-0.7113	-0.2325
4.94	-9.6501	0.0199	-1.5381	0.0124	-0.0035	0.0106	11.8707	-23.4328	15.8733	-0.6067	0.2683	-0.7113	-0.2325
4.95	-9.6520	0.0192	-1.5433	0.0185	0.0062	0.0128	11.5622	-25.0338	15.5105	-0.6066	0.2682	-0.7113	-0.2325
4.96	-9.6445	0.0149	-1.5390	0.0157	0.0037	0.0045	11.5118	-23.8266	15.4718	-0.6066	0.2682	-0.7113	-0.2325
4.97	-9.6528	0.0075	-1.5370	0.0070	0.0074	0.0041	11.1331	-23.4688	15.5620	-0.6066	0.2683	-0.7113	-0.2325
4.98	-9.6579	-0.0005	-1.5495	0.0127	0.0096	0.0106	11.1770	-22.9637	15.4292	-0.6066	0.2683	-0.7114	-0.2325
4.99	-9.6366	-0.0024	-1.5450	0.0066	0.0060	0.0073	11.2826	-23.2125	15.5052	-0.6066	0.2683	-0.7114	-0.2325
5	-9.6398	-0.0060	-1.5432	0.0078	0.0048	0.0070	11.4152	-23.2454	15.6636	-0.6065	0.2683	-0.7114	-0.2325
5.01	-9.6591	0.0005	-1.5611	0.0142	0.0083	0.0073	11.5504	-23.1947	15.5280	-0.6065	0.2683	-0.7114	-0.2325
5.02	-9.6547	0.0097	-1.5527	0.0123	0.0073	0.0087	11.0087	-23.1539	15.2987	-0.6065	0.2683	-0.7114	-0.2325
5.03	-9.6391	0.0172	-1.5424	0.0088	0.0038	0.0120	11.1649	-23.1562	15.4751	-0.6065	0.2683	-0.7115	-0.2325
5.04	-9.6473	0.0316	-1.5400	0.0137	-0.0001	0.0084	11.1925	-23.2013	15.3682	-0.6065	0.2683	-0.7114	-0.2325
5.05	-9.6504	0.0397	-1.5397	0.0164	-0.0009	0.0133	11.3137	-23.4321	15.1913	-0.6065	0.2683	-0.7115	-0.2325
5.06	-9.6447	0.0485	-1.5229	0.0091	-0.0064	0.0096	11.4758	-23.3840	15.4817	-0.6065	0.2683	-0.7114	-0.2325
5.07	-9.6433	0.0592	-1.5110	0.0038	-0.0017	0.0105	11.4440	-23.4283	15.3113	-0.6065	0.2683	-0.7114	-0.2325
5.08	-9.6525	0.0592	-1.5118	0.0094	-0.0001	0.0112	11.3140	-23.3590	15.0975	-0.6065	0.2683	-0.7114	-0.2326
5.09	-9.6368	0.0457	-1.4977	0.0077	0.0039	0.0119	11.3099	-23.3004	15.0835	-0.6065	0.2683	-0.7114	-0.2326
5.1	-9.6302	0.0394	-1.4815	-0.0031	-0.0051	0.0122	11.1986	-23.4233	15.0969	-0.6065	0.2683	-0.7114	-0.2327
5.11	-9.6399	0.0354	-1.4861	0.0094	0.0025	0.0124	11.2574	-23.4053	15.0789	-0.6064	0.2683	-0.7114	-0.2327
5.12	-9.6490	0.0358	-1.4892	0.0039	0.0017	0.0127	11.1084	-23.4083	15.1126	-0.6064	0.2683	-0.7114	-0.2327
5.13	-9.6372	0.0408	-1.4811	0.0161	0.0032	0.0105	11.0319	-23.4262	14.9894	-0.6064	0.2683	-0.7114	-0.2327
5.14	-9.6340	0.0480	-1.4729	0.0158	0.0040	0.0097	11.1697	-23.2986	15.0138	-0.6064	0.2683	-0.7115	-0.2327
5.15	-9.6472	0.0540	-1.4748	0.0065	0.0018	0.0145	11.1183	-23.0870	15.0991	-0.6064	0.2683	-0.7115	-0.2327
5.16	-9.6366	0.0630	-1.4585	0.0112	0.0032	0.0068	10.9269	-23.0824	15.0677	-0.6064	0.2683	-0.7115	-0.2327
5.17	-9.6303	0.0760	-1.4612	0.0106	0.0058	0.0101	10.7975	-23.0926	15.0700	-0.6064	0.2683	-0.7115	-0.2327
5.18	-9.6463	0.0943	-1.4702	0.0085	0.0100	0.0083	10.9291	-23.0761	15.0843	-0.6063	0.2683	-0.7115	-0.2327
5.19	-9.6429	0.1047	-1.4829	0.0094	0.0083	0.0098	10.8798	-23.1175	14.8644	-0.6063	0.2683	-0.7115	-0.2327
5.2	-9.6424	0.1268	-1.4852	0.0078	0.0098	0.0057	10.9350	-23.2662	15.0788	-0.6062	0.2683	-0.7115	-0.2327
5.21	-9.6469	0.1133	-1.5277	0.0042	0.0137	0.0070	10.6808	-23.2444	15.0671	-0.6062	0.2684	-0.7116	-0.2327
5.22	-9.6517	0.1463	-1.5195	0.0068	0.0124	0.0119	10.8168	-23.1406	14.8321	-0.6061	0.2684	-0.7116	-0.2327
5.23	-9.6535	0.1137	-1.5768	0.0095	0.0106	0.0081	10.7698	-23.2236	14.7379	-0.6061	0.2684	-0.7116	-0.2327
5.24	-9.6616	0.1413	-1.5499	-0.0017	0.0016	0.0061	10.7340	-23.3559	14.8013	-0.6061	0.2684	-0.7116	-0.2328
5.25	-9.5910	0.1263	-1.5146	-0.0056	0.0069	0.0031	10.9427	-23.3101	14.8362	-0.6060	0.2685	-0.7116	-0.2328
5.26	-9.6856	0.0368	-1.6488	-0.0017	0.0117	0.0081	10.7466	-23.3907	14.6171	-0.6060	0.2686	-0.7116	-0.2328
5.27	-9.6983	0.0600	-1.6369	0.0032	0.0030	0.0025	10.7600	-23.3937	14.4561	-0.6060	0.2686	-0.7116	-0.2328
5.28	-9.5829	0.0218	-1.5320	0.0096	0.0042	0.0023	10.7555	-23.1076	14.4671	-0.6060	0.2687	-0.7116	-0.2328
5.29	-9.6597	0.0947	-1.6117	0.0107	0.0033	0.0076	10.7490	-23.1199	14.4529	-0.6060	0.2687	-0.7116	-0.2328
5.3	-9.6922	0.1233	-1.6304	0.0178	-0.0004	0.0023	10.7796	-23.1876	14.4545	-0.6060	0.2687	-0.7116	-0.2328
5.31	-9.6208	0.1992	-1.5447	0.0164	-0.0012	0.0062	10.6168	-23.1595	14.1441	-0.6060	0.2687	-0.7116	-0.2328
5.32	-9.6219	0.2273	-1.5667	0.0153	0.0008	0.0017	10.4813	-23.2829	14.2653	-0.6060	0.2687	-0.7116	-0.2327
5.33	-9.6877	0.2948	-1.5864	0.0137	0.0008	0.0046	10.4266	-23.0924	14.3537	-0.6060	0.2687	-0.7116	-0.2327
5.34	-9.6441	0.3022	-1.5263	0.0069	-0.0005	0.0030	10.4500	-23.1150	14.2392	-0.6060	0.2687	-0.7116	-0.2327
5.35	-9.6344	0.3163	-1.5224	0.0002	0.0048	0.0029	10.3580	-22.9839	14.3814	-0.6060	0.2688	-0.7116	-0.2327
5.36	-9.6531	0.2805	-1.5380	0.0007	0.0065	0.0006	10.2270	-23.0599	14.1205	-0.6060	0.2688	-0.7116	-0.2327
5.37	-9.6395	0.2505	-1.5128	-0.0044	0.0076	-0.0026	10.0301	-22.9190	14.2315	-0.6059	0.2689	-0.7116	-0.2328
5.38	-9.6409	0.1792	-1.5085	-0.0065	0.0007	-0.0005	10.0566	-23.0497	14.0126	-0.6059	0.2690	-0.7115	-0.2328
5.39	-9.6404	0.1187	-1.4972	-0.0005	0.0033	-0.0013	9.9470	-22.9604	13.8783	-0.6059	0.2691	-0.7115	-0.2328
5.4	-9.6586	0.0259	-1.5096	0.0066	0.0068	0.0006	9.8549	-23.0100	13.9731	-0.6059	0.2691	-0.7115	-0.2328
5.41	-9.6440	-0.0298	-1.5239	0.0066	-0.0001	-0.0005	9.9444	-22.7657	13.9655	-0.6059	0.2692	-0.7115	-0.2328
5.42	-9.6111	-0.0783	-1.4914	0.0165	0.0014	-0.0017	10.1204	-23.0368	13.7812	-0.6059	0.2692	-0.7115	-0.2328
5.43	-9.6667	-0.0935	-1.5385	0.0186	0.0022	0.0030	10.3876	-22.5791	14.0034	-0.6059	0.2692	-0.7115	-0.2327
5.44	-9.6502	-0.0802	-1.5234	0.0164	-0.0091	0.0070	10.4825	-23.3102	14.0273	-0.6060	0.2692	-0.7115	-0.2327
5.45	-9.6256	-0.0735	-1.5078	0.0177	-0.0001	0.0045	9.9237	-24.7187	13.5943	-0.6060	0.2692	-0.7115	-0.2327
5.46	-9.6468	-0.0653	-1.5330	0.0201	-0.0063	0.0038	9.8802	-23.5273	13.4742	-0.6060	0.2691	-0.7114	-0.2326
5.47	-9.6400	-0.0673	-1.5298	0.0147	-0.0016	-0.0015	9.7305	-23.2081	13.5692	-0.6061	0.2692	-0.7114	-0.2326
5.48	-9.6439	-0.0867	-1.5378	0.0088	-0.0012	0.0036	9.5872	-22.4876	13.5575	-0.6061	0.2692	-0.7114	-0.2326
5.49	-9.6428	-0.1262	-1.5434	0.0046	-0.0063	0.0037	9.5036	-22.5993	13.2830	-0.6061	0.2692	-0.7114	-0.2326
5.5	-9.6476	-0.1620	-1.5220	0.0008	0.0008	0.0047	9.3017	-22.5006	13.3285	-0.6061	0.2692	-0.7114	-0.2327
5.51	-9.6534	-0.2048	-1.5282	0.0009	-0.0015	0.0099	9.3723	-22.8515	13.2854	-0.6061	0.2693	-0.7113	-0.2327
5.52	-9.6440	-0.2456	-1.5360	-0.0060	0.0015	0.0074	9.2748	-22.6248	13.1203	-0.6061	0.2693	-0.7113	-0.2328
5.53	-9.6426	-0.2680	-1.5399	0.0017	0.0046	0.0019	9.2491	-22.5207	13.2352	-0.6060	0.2694	-0.7113	-0.2328
5.54	-9.6369	-0.2537	-1.5340	0.0150	0.0122	0.0117	9.2891	-22.4283	13.2095	-0.6060	0.2694	-0.7113	-0.2328
5.55	-9.6528	-0.2150	-1.5530	0.0151	-0.0021	0.0150	9.1946	-22.4826	13.2346	-0.6060	0.2693	-0.7114	-0.2328
5.56	-9.6530	-0.1507	-1.5590	0.0147	-0.0024	0.0112	9.1939	-22.3522	13.1334	-0.6060	0.2693	-0.7114	-0.2328
5.57	-9.6388	-0.0775	-1.5483	0.0171	0.0070	0.0120	9.0682	-22.4998	13.0130	-0.6060	0.2693	-0.7114	-0.2328
5.58	-9.6403	-0.0032	-1.5497	0.0220	0.0069	0.0123	9.0535	-22.3795	12.9141	-0.6060	0.2692	-0.7114	-0.2327
5.59	-9.6579	0.0771	-1.5499	0.0189	0.0068	0.0178	9.1188	-22.1912	13.0298	-0.6060	0.2692	-0.7115	-0.2327
5.6	-9.6337	0.1457	-1.5234	0.0190	0.0008	0.0140	8.7034	-22.2203	13.0349	-0.6060	0.2691	-0.7115	-0.2327
5.61	-9.6280	0.1884	-1.4946	0.0191	0.0040	0.0140	8.7770	-22.3408	12.7760	-0.6060	0.2691	-0.7115	-0.2327
5.62	-9.6610	0.1815	-1.5051	0.0171	-0.0043	0.0126	8.9084	-22.2132	12.7745	-0.6060	0.2691	-0.7115	-0.2327
5.63	-9.6706	0.1375	-1.5204	0.0188	0.0031	0.0120	8.8493	-22.2893	12.7484	-0.6060	0.2690	-0.7115	-0.2327
5.64	-9.6447	0.0921	-1.5311	0.0098	0.0056	0.0136	9.0717	-22.2949	12.9023	-0.6060	0.2690	-0.7115	-0.2327
5.65	-9.6144	0.0440	-1.4969	0.0106	0.0027	0.0110	8.7358	-22.3041	12.7899	-0.6060	0.2690	-0.7115	-0.2327
5.66	-9.6556	0.0261	-1.5373	0.0077	0.0046	0.0150	8.7144	-22.0350	12.7697	-0.6059	0.2690	-0.7115	-0.2327
5.67	-9.6697	0.0288	-1.5583	0.0122	0.0070	0.0157	8.6450	-22.2296	12.6576	-0.6059	0.2690	-0.7116	-0.2328
5.68	-9.6290	0.0622	-1.5307	0.0054	0.0004	0.0132	8.5142	-22.3141	12.5928	-0.6059	0.2690	-0.7116	-0.2328
5.69	-9.6600	0.1006	-1.5765	0.0110	0.0005	0.0169	8.8063	-21.9782	12.5211	-0.6059	0.2690	-0.7116	-0.2328
5.7	-9.6556	0.1298	-1.5646	0.0194	0.0003	0.0133	8.6679	-21.9125	12.5358	-0.6059	0.2689	-0.7116	-0.2328
5.71	-9.6399	0.1680	-1.5614	0.0195	0.0091	0.0112	8.5221	-21.8546	12.7971	-0.6059	0.2689	-0.7116	-0.2328
5.72	-9.6385	0.1857	-1.5629	0.0158	0.0049	0.0118	8.5698	-21.8335	12.5807	-0.6059	0.2689	-0.7117	-0.2328
5.73	-9.6505	0.2193	-1.5784	0.0184	0.0028	0.0113	8.5570	-21.9187	12.5705	-0.6059	0.2688	-0.7117	-0.2328
5.74	-9.6748	0.2393	-1.6272	0.0160	0.0029	0.0119	8.4906	-21.8121	12.6480	-0.6059	0.2688	-0.7117	-0.2327
5.75	-9.6310	0.2291	-1.6075	0.0145	0.0004	0.0082	8.3454	-21.7872	12.6815	-0.6059	0.2688	-0.7117	-0.2327
5.76	-9.6507	0.1780	-1.6323	0.0147	0.0019	0.0084	8.4704	-21.7254	12.5972	-0.6059	0.2688	-0.7117	-0.2327
5.77	-9.6709	0.1396	-1.6580	0.0093	0.0060	0.0057	8.4284	-21.6625	12.5502	-0.6059	0.2688	-0.7117	-0.2327
5.78	-9.6365	0.1302	-1.6477	0.0140	0.0040	0.0041	8.2026	-21.6482	12.6598	-0.6059	0.2688	-0.7117	-0.2327
5.79	-9.6556	0.1196	-1.6665	0.0193	0.0059	0.0120	8.3681	-21.6285	12.3987	-0.6059	0.2688	-0.7117	-0.2327
5.8	-9.6753	0.1290	-1.6811	0.0188	-0.0069	0.0068	8.2598	-21.3346	12.3627	-0.6059	0.2688	-0.7117	-0.2326
5.81	-9.6622	0.1312	-1.6809	0.0187	-0.0071	0.0094	8.5677	-21.5942	12.4751	-0.6059	0.2687	-0.7117	-0.2326
5.82	-9.6616	0.1421	-1.6858	0.0190	-0.0105	0.0125	8.5630	-21.6184	12.5900	-0.6060	0.2687	-0.7117	-0.2326
5.83	-9.6541	0.1343	-1.6630	0.0184	-0.0077	0.0105	8.3871	-21.4326	12.5440	-0.6060	0.2686	-0.7116	-0.2326
5.84	-9.6626	0.1356	-1.6415	0.0194	-0.0071	0.0114	8.2100	-21.5303	12.5758	-0.6061	0.2686	-0.7116	-0.2326
5.85	-9.6573	0.1209	-1.6073	0.0132	-0.0080	0.0104	8.3392	-21.2876	12.4584	-0.6061	0.2686	-0.7116	-0.2326
5.86	-9.6489	0.1140	-1.5740	0.0161	-0.0069	0.0057	8.1844	-21.3422	12.2159	-0.6061	0.2686	-0.7116	-0.2326
5.87	-9.6513	0.1230	-1.5630	0.0180	-0.0146	0.0081	8.1814	-21.4608	12.4202	-0.6062	0.2685	-0.7116	-0.2326
5.88	-9.6486	0.1231	-1.5206	0.0162	-0.0078	0.0010	8.3405	-21.2240	12.5107	-0.6062	0.2685	-0.7115	-0.2326
5.89	-9.6381	0.1000	-1.4881	0.0155	-0.0133	0.0097	8.3007	-21.1638	12.2127	-0.6063	0.2685	-0.7115	-0.2326
5.9	-9.6330	0.0810	-1.4613	0.0118	-0.0083	0.0067	8.2233	-21.3479	12.3859	-0.6063	0.2685	-0.7115	-0.2326
5.91	-9.6294	0.0536	-1.4394	0.0148	-0.0041	0.0001	8.2338	-20.7428	12.5244	-0.6064	0.2685	-0.7114	-0.2326
5.92	-9.6184	0.0377	-1.4084	0.0136	-0.0038	0.0043	8.2911	-21.2685	12.6556	-0.6064	0.2685	-0.7114	-0.2326
5.93	-9.6266	0.0202	-1.3832	0.0191	-0.0078	0.0090	8.5621	-20.7435	12.6015	-0.6064	0.2685	-0.7114	-0.2325
5.94	-9.6423	0.0136	-1.3874	0.0187	-0.0074	0.0042	8.5126	-21.3339	12.5931	-0.6065	0.2684	-0.7114	-0.2325
5.95	-9.6349	0.0250	-1.3681	0.0190	-0.0058	0.0023	8.2205	-22.3599	12.4327	-0.6065	0.2684	-0.7114	-0.2325
5.96	-9.6340	0.0344	-1.3673	0.0191	-0.0064	0.0013	8.1637	-21.3403	12.2398	-0.6066	0.2684	-0.7113	-0.2324
5.97	-9.6344	0.0517	-1.3550	0.0179	-0.0027	0.0052	8.1449	-21.0273	12.3904	-0.6066	0.2684	-0.7113	-0.2324
5.98	-9.6307	0.0556	-1.3699	0.0141	-0.0011	0.0074	8.3209	-20.6997	12.6151	-0.6066	0.2684	-0.7113	-0.2324
5.99	-9.6602	0.0729	-1.4285	0.0152	0.0065	0.0078	8.3103	-21.0213	12.3996	-0.6066	0.2684	-0.7113	-0.2324
6	-9.6496	0.0839	-1.4616	0.0104	0.0043	0.0108	8.3211	-20.9853	12.3023	-0.6066	0.2684	-0.7114	-0.2324
6.01	-9.6279	0.0854	-1.4759	0.0108	0.0011	0.0053	8.3172	-20.8942	12.3271	-0.6066	0.2684	-0.7114	-0.2324
6.02	-9.6535	0.0874	-1.5089	0.0080	0.0026	0.0043	8.3166	-21.0984	12.3199	-0.6066	0.2684	-0.7114	-0.2324
6.03	-9.6536	0.0678	-1.5098	0.0121	0.0092	0.0078	8.3234	-21.0209	12.3246	-0.6065	0.2685	-0.7114	-0.2324
6.04	-9.6344	0.0455	-1.5107	0.0050	0.0061	0.0056	8.3059	-20.6521	12.3098	-0.6065	0.2685	-0.7114	-0.2324
6.05	-9.6381	0.0170	-1.5258	0.0010	0.0054	0.0059	8.3412	-20.7625	12.3150	-0.6065	0.2685	-0.7114	-0.2324
6.06	-9.6583	-0.0223	-1.5318	-0.0053	0.0045	0.0034	8.2164	-20.7757	12.3139	-0.6064	0.2686	-0.7114	-0.2324
6.07	-9.6568	-0.0701	-1.5269	0.0031	0.0018	0.0060	8.3618	-20.7764	12.3120	-0.6064	0.2686	-0.7114	-0.2325
6.08	-9.6434	-0.1188	-1.5070	0.0004	-0.0046	0.0063	8.3794	-20.5946	12.3282	-0.6064	0.2687	-0.7113	-0.2325
6.09	-9.6416	-0.1544	-1.5079	-0.0006	0.0022	0.0053	8.2322	-20.4392	12.5068	-0.6064	0.2687	-0.7113	-0.2325
6.1	-9.6438	-0.1763	-1.5004	0.0088	0.0079	0.0089	8.1409	-20.3730	12.3610	-0.6064	0.2687	-0.7113	-0.2326
6.11	-9.6438	-0.1760	-1.4877	0.0116	0.0058	0.0102	8.1730	-20.1078	12.2894	-0.6064	0.2687	-0.7114	-0.2326
6.12	-9.6424	-0.1483	-1.4716	0.0209	0.0096	0.0123	8.2756	-20.1685	12.2740	-0.6063	0.2687	-0.7114	-0.2325
6.13	-9.6448	-0.1185	-1.4663	0.0184	0.0093	0.0114	8.1295	-20.2123	12.3947	-0.6063	0.2687	-0.7114	-0.2325
6.14	-9.6533	-0.0908	-1.4633	0.0195	0.0162	0.0128	8.2632	-20.1859	12.3564	-0.6063	0.2686	-0.7115	-0.2325
6.15	-9.6331	-0.0656	-1.4360	0.0170	0.0086	0.0118	8.1925	-20.3430	12.3133	-0.6062	0.2686	-0.7115	-0.2325
6.16	-9.6382	-0.0487	-1.4540	0.0200	0.0139	0.0116	8.1214	-20.1414	12.4258	-0.6062	0.2686	-0.7116	-0.2324
6.17	-9.6648	-0.0517	-1.4711	0.0214	0.0122	0.0165	8.2465	-20.0159	12.2644	-0.6062	0.2686	-0.7116	-0.2324
6.18	-9.6411	-0.0554	-1.4502	0.0187	0.0057	0.0149	8.3336	-20.1426	12.3105	-0.6061	0.2685	-0.7117	-0.2324
6.19	-9.6311	-0.0491	-1.4656	0.0172	0.0061	0.0108	8.2931	-20.2473	12.2880	-0.6061	0.2685	-0.7117	-0.2324
6.2	-9.6498	-0.0346	-1.4850	0.0190	0.0106	0.0139	8.3847	-20.0280	12.3047	-0.6061	0.2685	-0.7117	-0.2323
6.21	-9.6585	-0.0221	-1.4979	0.0211	0.0143	0.0136	8.4935	-19.9441	12.2788	-0.6061	0.2684	-0.7118	-0.2323
6.22	-9.6472	-0.0062	-1.4959	0.0191	0.0066	0.0136	8.2041	-20.0387	12.3225	-0.6061	0.2684	-0.7118	-0.2323
6.23	-9.6456	0.0042	-1.5097	0.0162	0.0123	0.0214	8.3149	-19.8827	12.4177	-0.6060	0.2683	-0.7119	-0.2323
6.24	-9.6567	0.0123	-1.5219	0.0151	0.0180	0.0198	8.2197	-20.0931	12.2598	-0.6059	0.2683	-0.7120	-0.2323
6.25	-9.6518	0.0198	-1.5093	0.0172	0.0149	0.0132	8.4555	-19.7430	12.4330	-0.6059	0.2683	-0.7120	-0.2323
6.26	-9.6511	0.0406	-1.5235	0.0150	0.0130	0.0184	8.5903	-19.7390	12.1107	-0.6058	0.2683	-0.7121	-0.2323
6.27	-9.6327	0.0602	-1.5463	0.0191	0.0159	0.0183	8.2440	-19.7532	12.2411	-0.6058	0.2682	-0.7121	-0.2323
6.28	-9.6306	0.0802	-1.5678	0.0128	0.0138	0.0203	8.0379	-19.4260	12.4724	-0.6057	0.2682	-0.7122	-0.2323
6.29	-9.6525	0.0856	-1.6111	0.0119	0.0131	0.0163	8.2039	-19.3136	12.3246	-0.6057	0.2682	-0.7122	-0.2323
6.3	-9.6432	0.0921	-1.6219	0.0169	0.0149	0.0176	8.2447	-19.1404	12.3589	-0.6056	0.2681	-0.7123	-0.2323
6.31	-9.6516	0.0929	-1.6433	0.0106	0.0071	0.0197	8.1434	-19.3834	12.3619	-0.6056	0.2681	-0.7123	-0.2323
6.32	-9.6538	0.0870	-1.6503	0.0103	0.0116	0.0164	8.2374	-19.4842	12.4409	-0.6056	0.2681	-0.7124	-0.2323
6.33	-9.6586	0.0740	-1.6516	0.0085	0.0065	0.0141	8.0797	-19.4020	12.3426	-0.6055	0.2681	-0.7124	-0.2323
6.34	-9.6577	0.0573	-1.6606	0.0136	0.0118	0.0135	8.0622	-19.3799	12.3346	-0.6055	0.2681	-0.7124	-0.2323
6.35	-9.6465	0.0602	-1.6708	0.0131	0.0072	0.0164	8.0629	-19.2769	12.4824	-0.6055	0.2681	-0.7125	-0.2323
6.36	-9.6435	0.0712	-1.6554	0.0198	0.0001	0.0180	8.1792	-19.3235	12.3583	-0.6055	0.2680	-0.7125	-0.2323
6.37	-9.6640	0.0832	-1.6703	0.0178	0.0032	0.0204	8.3015	-19.3819	12.2931	-0.6055	0.2679	-0.7125	-0.2323
6.38	-9.6658	0.1043	-1.6715	0.0166	0.0027	0.0165	8.5989	-19.3690	12.3974	-0.6055	0.2679	-0.7125	-0.2323
6.39	-9.6447	0.1091	-1.6457	0.0162	-0.0002	0.0122	8.3976	-19.3501	12.3496	-0.6055	0.2679	-0.7125	-0.2323
6.4	-9.6596	0.1197	-1.6593	0.0117	0.0011	0.0184	8.3234	-19.2618	12.3503	-0.6055	0.2678	-0.7125	-0.2324
6.41	-9.6595	0.1143	-1.6594	0.0121	-0.0038	0.0191	8.4021	-19.1448	12.4136	-0.6055	0.2678	-0.7125	-0.2324
6.42	-9.6298	0.1013	-1.6353	0.0091	-0.0103	0.0130	8.4465	-19.1677	12.5254	-0.6055	0.2678	-0.7125	-0.2324
6.43	-9.6567	0.0982	-1.6509	0.0099	-0.0032	0.0122	8.6767	-18.6597	12.9082	-0.6055	0.2678	-0.7125	-0.2324
6.44	-9.6679	0.0984	-1.6480	0.0125	-0.0101	0.0153	8.7360	-19.3567	13.0053	-0.6056	0.2677	-0.7125	-0.2325
6.45	-9.6412	0.1002	-1.6074	0.0147	-0.0085	0.0126	8.3899	-20.5648	12.7521	-0.6056	0.2677	-0.7124	-0.2325
6.46	-9.6574	0.1184	-1.6030	0.0141	-0.0080	0.0143	8.4070	-19.7307	12.7323	-0.6056	0.2677	-0.7124	-0.2325
6.47	-9.6633	0.1337	-1.5969	0.0110	-0.0068	0.0077	8.4246	-19.1449	12.5896	-0.6057	0.2676	-0.7124	-0.2325
6.48	-9.6363	0.1416	-1.5235	0.0159	-0.0085	0.0142	8.3177	-18.6752	12.7535	-0.6057	0.2676	-0.7124	-0.2325
6.49	-9.6637	0.1624	-1.5228	0.0186	-0.0058	0.0121	8.4853	-18.8928	12.5995	-0.6057	0.2676	-0.7123	-0.2325
6.5	-9.6794	0.1972	-1.5182	0.0166	-0.0062	0.0114	8.4985	-18.6606	12.7194	-0.6058	0.2675	-0.7123	-0.2325
6.51	-9.6215	0.2226	-1.4565	0.0151	-0.0063	0.0121	8.2991	-18.7910	12.9312	-0.6058	0.2675	-0.7123	-0.2325
6.52	-9.6319	0.2476	-1.4260	0.0133	-0.0088	0.0113	8.4671	-18.9056	12.6910	-0.6058	0.2675	-0.7123	-0.2325
6.53	-9.6691	0.2694	-1.4341	0.0141	-0.0094	0.0134	8.3550	-18.7917	12.7461	-0.6059	0.2675	-0.7123	-0.2325
6.54	-9.6296	0.2822	-1.3894	0.0132	-0.0110	0.0113	8.3651	-18.7394	12.5840	-0.6059	0.2674	-0.7122	-0.2326
6.55	-9.6027	0.2695	-1.3515	0.0176	-0.0155	0.0116	8.3978	-18.8584	12.7178	-0.6060	0.2674	-0.7122	-0.2326
6.56	-9.6352	0.2549	-1.3615	0.0166	-0.0074	0.0086	8.6079	-18.7074	12.7394	-0.6060	0.2674	-0.7122	-0.2326
6.57	-9.6422	0.2261	-1.3524	0.0165	-0.0057	0.0105	8.7195	-18.8311	12.7160	-0.6060	0.2673	-0.7122	-0.2326
6.58	-9.6328	0.1965	-1.3368	0.0142	0.0009	0.0083	8.6338	-18.7948	12.9236	-0.6061	0.2673	-0.7121	-0.2325
6.59	-9.6298	0.1784	-1.3335	0.0200	0.0073	0.0074	8.8404	-18.8322	12.8264	-0.6060	0.2673	-0.7122	-0.2325
6.6	-9.6244	0.1595	-1.3315	0.0132	0.0006	0.0099	8.7686	-18.6157	12.7547	-0.6061	0.2673	-0.7122	-0.2325
6.61	-9.6315	0.1432	-1.3417	0.0085	0.0024	0.0058	8.6591	-18.7793	12.6513	-0.6061	0.2673	-0.7122	-0.2325
6.62	-9.6437	0.1377	-1.3673	0.0135	0.0049	0.0096	8.7074	-18.8032	12.7628	-0.6060	0.2673	-0.7122	-0.2325
6.63	-9.6355	0.1285	-1.3915	0.0094	0.0031	0.0094	8.6626	-18.5373	12.8188	-0.6060	0.2673	-0.7122	-0.2325
6.64	-9.6268	0.1256	-1.3976	0.0167	0.0086	0.0080	8.7124	-18.4890	12.8488	-0.6060	0.2673	-0.7122	-0.2325
6.65	-9.6281	0.1210	-1.4229	0.0137	0.0139	0.0059	8.4889	-18.7140	12.6825	-0.6060	0.2673	-0.7122	-0.2324
6.66	-9.6505	0.1007	-1.4545	0.0121	0.0140	0.0060	8.4799	-18.5527	12.5236	-0.6059	0.2674	-0.7123	-0.2324
6.67	-9.6547	0.0905	-1.4736	0.0089	0.0087	0.0036	8.6361	-18.5738	12.8794	-0.6059	0.2674	-0.7123	-0.2324
6.68	-9.6303	0.0886	-1.4871	0.0092	0.0174	0.0040	8.4747	-18.5451	12.6494	-0.6059	0.2674	-0.7123	-0.2324
6.69	-9.6359	0.0707	-1.5039	0.0106	0.0136	0.0084	8.6008	-18.6151	12.8117	-0.6058	0.2675	-0.7124	-0.2323
6.7	-9.6613	0.0565	-1.5105	0.0117	0.0194	0.0023	8.5503	-18.6692	12.8050	-0.6058	0.2675	-0.7124	-0.2323
6.71	-9.6452	0.0385	-1.5055	0.0106	0.0167	0.0067	8.4079	-18.5436	12.8224	-0.6057	0.2675	-0.7124	-0.2323
6.72	-9.6351	0.0341	-1.5097	0.0062	0.0121	0.0091	8.3568	-18.5840	12.7718	-0.6057	0.2675	-0.7125	-0.2323
6.73	-9.6206	0.0261	-1.5108	0.0110	0.0091	0.0062	8.3657	-18.5464	12.6616	-0.6057	0.2676	-0.7125	-0.2323
6.74	-9.6586	0.0157	-1.5532	0.0095	0.0105	0.0075	8.3741	-18.6563	12.5099	-0.6056	0.2676	-0.7125	-0.2323
6.75	-9.6764	0.0183	-1.5835	0.0129	0.0116	0.0056	8.4576	-18.7465	12.7176	-0.6056	0.2676	-0.7125	-0.2322
6.76	-9.6420	0.0093	-1.5767	0.0085	0.0096	0.0034	8.2948	-18.5754	12.6372	-0.6056	0.2676	-0.7125	-0.2322
6.77	-9.6563	0.0110	-1.5960	0.0069	0.0194	0.0084	8.2901	-18.8397	12.4469	-0.6055	0.2677	-0.7126	-0.2322
6.78	-9.6691	0.0098	-1.6226	0.0128	0.0167	0.0037	8.2974	-18.7088	12.4463	-0.6055	0.2677	-0.7126	-0.2322
6.79	-9.6440	0.0151	-1.6146	0.0117	0.0099	0.0126	8.2874	-18.4089	12.5032	-0.6054	0.2677	-0.7127	-0.2322
6.8	-9.6408	0.0282	-1.6291	0.0172	0.0115	0.0109	8.2740	-18.5741	12.7067	-0.6054	0.2677	-0.7127	-0.2322
6.81	-9.6601	0.0235	-1.6554	0.0129	0.0138	0.0126	8.0053	-18.5805	12.4196	-0.6054	0.2677	-0.7127	-0.2322
6.82	-9.6609	0.0279	-1.6719	0.0067	0.0059	0.0109	8.2050	-18.4633	12.5647	-0.6053	0.2677	-0.7128	-0.2322
6.83	-9.6561	0.0295	-1.6885	0.0109	0.0072	0.0067	8.4051	-18.6656	12.5325	-0.6053	0.2677	-0.7128	-0.2322
6.84	-9.6573	0.0275	-1.6894	0.0120	0.0023	0.0082	7.9126	-18.5728	12.5535	-0.6053	0.2677	-0.7128	-0.2322
6.85	-9.6582	0.0317	-1.6818	0.0117	-0.0112	0.0056	8.1015	-18.6688	12.4346	-0.6054	0.2677	-0.7127	-0.2322
6.86	-9.6556	0.0291	-1.6661	0.0096	-0.0003	0.0128	8.0870	-18.6309	12.5914	-0.6054	0.2677	-0.7127	-0.2322
6.87	-9.6546	0.0276	-1.6575	0.0090	-0.0036	0.0131	7.9116	-18.5524	12.4444	-0.6054	0.2676	-0.7127	-0.2323
6.88	-9.6556	0.0290	-1.6472	0.0082	-0.0062	0.0108	8.0719	-18.5838	12.5287	-0.6054	0.2676	-0.7127	-0.2323
6.89	-9.6621	0.0353	-1.6286	0.0079	-0.0059	0.0115	8.0366	-18.6659	12.5478	-0.6054	0.2676	-0.7126	-0.2323
6.9	-9.6601	0.0407	-1.6148	0.0065	-0.0081	0.0111	8.0676	-18.6225	12.3914	-0.6055	0.2676	-0.7126	-0.2324
6.91	-9.6531	0.0483	-1.5872	0.0026	-0.0070	0.0120	8.0229	-18.3981	12.5744	-0.6055	0.2676	-0.7126	-0.2324
6.92	-9.6328	0.0572	-1.5528	0.0037	-0.0073	0.0129	8.1900	-18.9611	12.8452	-0.6055	0.2676	-0.7125	-0.2325
6.93	-9.6307	0.0691	-1.5393	0.0117	-0.0052	0.0110	8.7782	-18.1378	12.6657	-0.6055	0.2676	-0.7125	-0.2325
6.94	-9.6664	0.0629	-1.5491	0.0070	-0.0049	0.0113	8.8888	-18.7179	12.6851	-0.6055	0.2676	-0.7125	-0.2326
6.95	-9.6593	0.0604	-1.5237	0.0053	-0.0110	0.0113	8.5345	-20.1822	12.6699	-0.6056	0.2676	-0.7125	-0.2326
6.96	-9.6231	0.0449	-1.4726	0.0034	-0.0103	0.0094	8.2924	-19.3300	12.3481	-0.6056	0.2676	-0.7124	-0.2327
6.97	-9.6528	0.0742	-1.4717	0.0067	-0.0083	0.0116	8.1812	-18.9438	12.2671	-0.6056	0.2676	-0.7124	-0.2327
6.98	-9.6646	0.0232	-1.4668	0.0053	-0.0094	0.0125	8.2595	-18.6653	12.6556	-0.6057	0.2675	-0.7123	-0.2328
6.99	-9.6158	0.0515	-1.4277	0.0024	-0.0060	0.0082	8.0495	-18.8427	12.4841	-0.6057	0.2676	-0.7123	-0.2328
7	-9.6248	0.0100	-1.4453	0.0061	-0.0078	0.0082	8.0591	-18.6918	12.4722	-0.6057	0.2676	-0.7123	-0.2328
7.01	-9.6222	0.0829	-1.4285	0.0093	-0.0121	0.0090	8.0643	-18.6237	12.6280	-0.6058	0.2675	-0.7122	-0.2329
7.02	-9.6729	0.0629	-1.4584	0.0120	-0.0068	0.0141	8.0486	-18.5551	12.3682	-0.6058	0.2675	-0.7122	-0.2329
7.03	-9.6313	0.1229	-1.4033	0.0097	0.0005	0.0053	8.0832	-18.8352	12.6606	-0.6058	0.2675	-0.7122	-0.2329
7.04	-9.6766	0.1425	-1.4271	0.0133	0.0033	0.0011	7.9985	-18.6641	12.5641	-0.6058	0.2675	-0.7122	-0.2329
7.05	-9.6127	0.1401	-1.3609	0.0162	-0.0007	0.0069	7.8452	-18.7321	12.4533	-0.6058	0.2675	-0.7122	-0.2329
7.06	-9.6155	0.1973	-1.3776	0.0055	0.0043	0.0064	8.0110	-18.7053	12.3942	-0.6058	0.2675	-0.7122	-0.2329
7.07	-9.6512	0.1431	-1.3851	0.0043	0.0045	0.0040	7.9545	-18.6030	12.5821	-0.6058	0.2676	-0.7122	-0.2329
7.08	-9.6332	0.1591	-1.3882	0.0037	0.0085	0.0083	7.8703	-18.5304	12.5497	-0.6058	0.2676	-0.7122	-0.2329
7.09	-9.6565	0.0322	-1.4468	-0.0002	0.0151	0.0066	7.9604	-18.8035	12.5134	-0.6057	0.2677	-0.7122	-0.2329
7.1	-9.5911	0.0494	-1.4362	-0.0073	0.0013	0.0038	8.0838	-18.7816	12.5095	-0.6057	0.2677	-0.7122	-0.2330
7.11	-9.6634	0.0199	-1.5794	-0.0038	0.0074	0.0073	7.9295	-18.6975	12.4374	-0.6057	0.2678	-0.7122	-0.2331
7.12	-9.6853	-0.0557	-1.6070	-0.0011	0.0026	0.0093	8.2481	-18.8785	12.5567	-0.6056	0.2678	-0.7121	-0.2331
7.13	-9.6165	-0.0738	-1.5628	0.0069	0.0086	0.0070	8.0447	-18.8589	12.5134	-0.6056	0.2678	-0.7121	-0.2331
7.14	-9.6247	0.0287	-1.6311	0.0147	0.0035	0.0096	8.1891	-18.8960	12.5242	-0.6056	0.2678	-0.7122	-0.2331
7.15	-9.7352	0.0696	-1.7353	0.0129	0.0042	0.0090	8.1702	-18.5345	12.3958	-0.6056	0.2678	-0.7122	-0.2331
7.16	-9.6460	0.0548	-1.6326	0.0163	-0.0003	0.0110	8.0007	-18.6676	12.4511	-0.6056	0.2678	-0.7122	-0.2331
7.17	-9.6047	0.0766	-1.6283	0.0175	-0.0010	0.0058	8.1802	-18.7925	12.4154	-0.6056	0.2678	-0.7122	-0.2331
7.18	-9.6427	0.1552	-1.6986	0.0156	-0.0053	0.0068	8.1157	-18.8218	12.4645	-0.6057	0.2678	-0.7121	-0.2331
7.19	-9.7077	0.1437	-1.7353	0.0101	-0.0019	0.0074	8.0231	-18.6763	12.3678	-0.6057	0.2678	-0.7121	-0.2331
7.2	-9.6646	0.1145	-1.6396	0.0062	-0.0100	0.0109	8.1734	-18.6131	12.3207	-0.6057	0.2678	-0.7121	-0.2331
7.21	-9.6272	0.1332	-1.6074	0.0101	-0.0099	0.0046	8.0141	-18.6008	12.5452	-0.6058	0.2677	-0.7120	-0.2332
7.22	-9.6551	0.1344	-1.6077	0.0014	-0.0057	0.0124	7.8966	-18.7090	12.2302	-0.6058	0.2678	-0.7120	-0.2332
7.23	-9.6641	0.1691	-1.6001	0.0035	-0.0033	0.0047	8.0520	-18.5742	12.3146	-0.6058	0.2678	-0.7120	-0.2332
7.24	-9.6463	0.1618	-1.5861	0.0174	-0.0055	0.0065	7.7791	-18.6157	12.4191	-0.6058	0.2678	-0.7119	-0.2332
7.25	-9.6444	0.1790	-1.5578	0.0129	-0.0073	0.0008	8.0520	-18.8154	12.6722	-0.6059	0.2678	-0.7119	-0.2332
7.26	-9.6619	0.1759	-1.5478	0.0117	-0.0090	0.0047	8.0192	-18.5259	12.6776	-0.6059	0.2678	-0.7119	-0.2332
7.27	-9.6479	0.1799	-1.5164	0.0083	-0.0058	0.0089	7.9426	-18.7665	12.4355	-0.6060	0.2678	-0.7118	-0.2333
7.28	-9.6370	0.1806	-1.4836	0.0116	-0.0117	0.0097	8.1099	-18.5669	12.4096	-0.6060	0.2677	-0.7118	-0.2333
7.29	-9.6389	0.1732	-1.4702	0.0166	-0.0088	0.0066	7.8756	-18.5872	12.5856	-0.6061	0.2677	-0.7118	-0.2333
7.3	-9.6408	0.1564	-1.4663	0.0142	-0.0104	0.0091	8.2092	-18.8093	12.3697	-0.6061	0.2677	-0.7117	-0.2333
7.31	-9.6466	0.1475	-1.4619	0.0089	-0.0026	0.0010	8.1364	-18.7596	12.3549	-0.6061	0.2677	-0.7117	-0.2333
7.32	-9.6431	0.1365	-1.4503	0.0151	-0.0074	0.0012	8.2863	-19.0141	12.3198	-0.6062	0.2677	-0.7117	-0.2333
7.33	-9.6421	0.1285	-1.4243	0.0082	-0.0025	-0.0008	8.3693	-18.8583	12.3136	-0.6062	0.2677	-0.7116	-0.2333
7.34	-9.6585	0.1216	-1.4199	0.0101	-0.0046	0.0013	8.0825	-18.6896	12.5683	-0.6062	0.2678	-0.7116	-0.2333
7.35	-9.6451	0.1306	-1.3880	0.0093	-0.0038	0.0075	8.1837	-18.7835	12.4067	-0.6063	0.2678	-0.7116	-0.2333
7.36	-9.6305	0.1308	-1.3706	0.0114	-0.0054	0.0051	8.2107	-18.9263	12.4613	-0.6063	0.2678	-0.7116	-0.2333
7.37	-9.6276	0.1369	-1.3662	0.0080	-0.0028	0.0039	8.2627	-18.7599	12.5927	-0.6063	0.2678	-0.7115	-0.2333
7.38	-9.6356	0.1215	-1.3770	0.0040	-0.0002	0.0026	8.4031	-18.8910	12.3172	-0.6063	0.2678	-0.7115	-0.2333
7.39	-9.6356	0.0973	-1.3965	0.0104	0.0035	0.0053	8.1992	-18.9045	12.5062	-0.6063	0.2678	-0.7115	-0.2333
7.4	-9.6356	0.0731	-1.4119	0.0025	0.0007	0.0024	8.0748	-18.7972	12.6033	-0.6063	0.2679	-0.7115	-0.2333
7.41	-9.6478	0.0383	-1.4367	0.0046	0.0090	-0.0029	7.8556	-18.7319	12.4744	-0.6063	0.2679	-0.7115	-0.2333
7.42	-9.6577	0.0203	-1.4692	0.0137	0.0069	0.0029	8.1368	-18.8614	12.6170	-0.6063	0.2679	-0.7115	-0.2333
7.43	-9.6373	-0.0010	-1.4734	0.0125	0.0131	0.0041	8.4910	-18.2607	12.7492	-0.6063	0.2680	-0.7115	-0.2333
7.44	-9.6384	-0.0188	-1.4970	0.0004	0.0079	0.0052	8.5322	-18.8783	12.8100	-0.6062	0.2680	-0.7115	-0.2333
7.45	-9.6483	-0.0296	-1.5257	0.0089	0.0091	0.0028	8.1982	-20.3363	12.5586	-0.6062	0.2680	-0.7115	-0.2333
7.46	-9.6397	-0.0236	-1.5407	0.0027	0.0062	0.0008	8.1479	-19.3050	12.6161	-0.6062	0.2681	-0.7115	-0.2333
7.47	-9.6502	-0.0264	-1.5632	0.0010	0.0100	0.0057	7.9286	-19.0430	12.7924	-0.6061	0.2681	-0.7115	-0.2333
7.48	-9.6636	-0.0185	-1.5888	0.0092	0.0084	0.0056	8.0597	-18.5302	12.7655	-0.6061	0.2682	-0.7115	-0.2333
7.49	-9.6546	-0.0173	-1.5922	0.0088	0.0029	0.0077	8.3095	-18.7152	12.5262	-0.6061	0.2682	-0.7115	-0.2333
7.5	-9.6478	-0.0113	-1.5903	0.0148	0.0032	0.0117	8.3867	-18.6840	12.4335	-0.6061	0.2681	-0.7115	-0.2333
7.51	-9.6570	0.0052	-1.6018	0.0190	-0.0006	0.0073	8.3385	-18.7754	12.4882	-0.6061	0.2681	-0.7115	-0.2333
7.52	-9.6556	0.0266	-1.6086	0.0132	-0.0009	0.0111	8.2091	-18.6096	12.3601	-0.6061	0.2681	-0.7115	-0.2333
7.53	-9.6466	0.0481	-1.6001	0.0119	-0.0019	0.0100	8.1296	-18.7761	12.3707	-0.6062	0.2681	-0.7115	-0.2333
7.54	-9.6516	0.0736	-1.6137	0.0118	0.0015	0.0089	8.2339	-18.7639	12.6082	-0.6062	0.2681	-0.7115	-0.2334
7.55	-9.6584	0.0847	-1.6156	0.0093	-0.0034	0.0084	8.1800	-18.5810	12.4512	-0.6062	0.2681	-0.7115	-0.2334
7.56	-9.6566	0.0983	-1.6080	0.0107	-0.0049	0.0089	8.3093	-18.7571	12.4550	-0.6062	0.2680	-0.7115	-0.2334
7.57	-9.6603	0.1163	-1.6087	0.0073	-0.0001	0.0078	8.1735	-18.6100	12.4515	-0.6062	0.2681	-0.7115	-0.2334
7.58	-9.6583	0.1203	-1.5972	0.0060	-0.0018	0.0082	8.1166	-18.6733	12.4489	-0.6062	0.2681	-0.7114	-0.2334
7.59	-9.6528	0.1170	-1.5762	0.0057	0.0003	0.0127	8.1336	-18.6047	12.4448	-0.6062	0.2681	-0.7114	-0.2335
7.6	-9.6495	0.1043	-1.5533	0.0089	-0.0006	0.0048	8.1276	-18.8533	12.5360	-0.6062	0.2681	-0.7114	-0.2335
7.61	-9.6573	0.0911	-1.5310	0.0013	-0.0028	0.0076	8.1178	-18.7632	12.6897	-0.6062	0.2681	-0.7114	-0.2335
7.62	-9.6666	0.0853	-1.5408	0.0040	-0.0083	0.0118	8.1433	-18.5553	12.5050	-0.6062	0.2681	-0.7114	-0.2336
7.63	-9.6337	0.0957	-1.5216	0.0031	-0.0026	0.0090	8.0409	-18.5614	12.7148	-0.6063	0.2681	-0.7113	-0.2336
7.64	-9.6271	0.1139	-1.4853	0.0052	-0.0050	0.0102	8.0404	-18.6726	12.6891	-0.6063	0.2681	-0.7113	-0.2337
7.65	-9.6554	0.1149	-1.4836	0.0156	-0.0017	0.0076	8.1797	-18.6101	12.6385	-0.6063	0.2681	-0.7113	-0.2337
7.66	-9.6524	0.1240	-1.4719	0.0131	-0.0053	0.0116	8.2243	-18.5204	12.7449	-0.6063	0.2681	-0.7113	-0.2337
7.67	-9.6257	0.1050	-1.4415	0.0092	-0.0089	0.0080	8.0995	-18.7468	12.7043	-0.6063	0.2680	-0.7112	-0.2337
7.68	-9.6493	0.1158	-1.4768	0.0035	0.0017	0.0110	8.2622	-18.8351	12.4876	-0.6063	0.2681	-0.7112	-0.2338
7.69	-9.6599	0.1300	-1.5016	0.0041	-0.0031	0.0058	8.1165	-18.7674	12.4487	-0.6064	0.2681	-0.7112	-0.2338
7.7	-9.6339	0.1274	-1.4736	-0.0027	-0.0095	0.0081	8.2631	-18.6359	12.4402	-0.6064	0.2681	-0.7112	-0.2339
7.71	-9.6492	0.1162	-1.4782	-0.0009	-0.0083	0.0059	8.3980	-18.7261	12.5733	-0.6064	0.2681	-0.7111	-0.2339
7.72	-9.6566	0.0906	-1.4843	0.0112	-0.0067	0.0055	8.2159	-18.7439	12.6385	-0.6064	0.2681	-0.7111	-0.2339
7.73	-9.6489	0.0768	-1.4792	0.0145	-0.0090	0.0045	8.1943	-18.6654	12.6396	-0.6065	0.2681	-0.7110	-0.2339
7.74	-9.6420	0.0592	-1.4776	0.0174	-0.0064	0.0078	8.2870	-18.6268	12.5352	-0.6065	0.2681	-0.7110	-0.2339
7.75	-9.6491	0.0497	-1.4844	0.0148	0.0021	0.0089	8.1991	-18.7602	12.4414	-0.6065	0.2681	-0.7110	-0.2339
7.76	-9.6483	0.0531	-1.4802	0.0135	-0.0018	0.0060	8.2040	-18.5362	12.6147	-0.6065	0.2681	-0.7110	-0.2339
7.77	-9.6322	0.0684	-1.4566	0.0079	0.0013	0.0098	8.2088	-18.6530	12.6346	-0.6065	0.2681	-0.7110	-0.2339
7.78	-9.6515	0.0920	-1.5027	0.0159	0.0080	0.0027	8.1970	-18.6272	12.6122	-0.6065	0.2681	-0.7110	-0.2339
7.79	-9.6588	0.1172	-1.5061	0.0031	0.0019	0.0046	8.1021	-18.5727	12.6509	-0.6065	0.2681	-0.7110	-0.2339
7.8	-9.6628	0.1211	-1.5293	0.0045	0.0038	0.0033	8.1379	-18.6887	12.5269	-0.6065	0.2681	-0.7110	-0.2339
7.81	-9.6239	0.1444	-1.4745	0.0068	0.0053	0.0024	8.1252	-18.5519	12.2955	-0.6065	0.2682	-0.7110	-0.2339
7.82	-9.6177	0.1842	-1.4280	0.0019	0.0115	0.0065	8.1264	-18.5616	12.7414	-0.6065	0.2682	-0.7110	-0.2340
7.83	-9.6562	0.1802	-1.4405	-0.0085	0.0110	0.0068	8.2676	-18.7296	12.4666	-0.6064	0.2683	-0.7110	-0.2340
7.84	-9.6470	0.1466	-1.4146	-0.0135	0.0068	0.0010	8.3057	-18.6548	12.5750	-0.6064	0.2684	-0.7110	-0.2341
7.85	-9.6496	0.0999	-1.4435	-0.0154	0.0091	0.0033	8.1855	-18.6483	12.7526	-0.6063	0.2685	-0.7110	-0.2341
7.86	-9.6587	0.0204	-1.4789	-0.0124	0.0025	0.0089	8.2205	-18.5085	12.4451	-0.6063	0.2686	-0.7110	-0.2342
7.87	-9.6361	-0.0365	-1.4958	-0.0030	0.0062	0.0023	8.3604	-18.6847	12.6565	-0.6062	0.2686	-0.7109	-0.2343
7.88	-9.6253	-0.0737	-1.5111	0.0052	0.0108	0.0037	8.3714	-18.6877	12.5334	-0.6062	0.2687	-0.7110	-0.2343
7.89	-9.6305	-0.0776	-1.5155	0.0130	0.0049	0.0066	8.2781	-18.5035	12.5511	-0.6062	0.2687	-0.7110	-0.2343
7.9	-9.6490	-0.0472	-1.5201	0.0164	0.0107	0.0052	8.2802	-18.7491	12.5132	-0.6062	0.2687	-0.7110	-0.2342
7.91	-9.6500	-0.0006	-1.5289	0.0174	0.0078	0.0121	8.3282	-18.4812	12.6274	-0.6061	0.2686	-0.7110	-0.2342
7.92	-9.6424	0.0587	-1.5187	0.0192	0.0117	0.0082	8.5335	-18.6166	12.6000	-0.6061	0.2686	-0.7111	-0.2342
7.93	-9.6488	0.1123	-1.5346	0.0187	0.0089	0.0092	8.6415	-18.1853	12.9272	-0.6061	0.2686	-0.7111	-0.2342
7.94	-9.6593	0.1442	-1.5584	0.0177	0.0141	0.0067	8.7004	-18.9073	12.9737	-0.6061	0.2686	-0.7111	-0.2341
7.95	-9.6547	0.1586	-1.5652	0.0128	0.0111	0.0049	8.3209	-20.2969	12.5424	-0.6060	0.2686	-0.7112	-0.2341
7.96	-9.6497	0.1556	-1.5792	0.0054	0.0128	0.0074	8.2491	-19.1134	12.6063	-0.6060	0.2686	-0.7112	-0.2341
7.97	-9.6471	0.1325	-1.6012	0.0013	0.0132	0.0014	8.1608	-18.7626	12.6501	-0.6060	0.2687	-0.7112	-0.2341
7.98	-9.6588	0.0936	-1.6223	0.0049	0.0056	0.0071	8.1346	-18.4916	12.5283	-0.6059	0.2687	-0.7112	-0.2341
7.99	-9.6541	0.0434	-1.6291	-0.0027	0.0075	-0.0030	8.1572	-18.5107	12.6040	-0.6059	0.2688	-0.7112	-0.2341
8	-9.6513	-0.0148	-1.6453	0.0023	0.0024	0.0022	8.0153	-18.3805	12.8346	-0.6059	0.2689	-0.7112	-0.2342
8.01	-9.6570	-0.0617	-1.6570	-0.0029	-0.0004	-0.0004	8.1242	-18.5115	12.5694	-0.6059	0.2689	-0.7111	-0.2342
8.02	-9.6570	-0.0921	-1.6678	0.0087	0.0052	0.0034	8.1497	-18.4816	12.4790	-0.6059	0.2690	-0.7111	-0.2342
8.03	-9.6565	-0.0848	-1.6687	0.0157	-0.0034	0.0107	8.1472	-18.3623	12.7525	-0.6059	0.2689	-0.7111	-0.2342
8.04	-9.6558	-0.0688	-1.6621	0.0118	-0.0047	0.0064	7.9918	-18.4771	12.7594	-0.6059	0.2689	-0.7111	-0.2342
8.05	-9.6630	-0.0382	-1.6525	0.0189	-0.0060	0.0058	8.2340	-18.7624	12.4597	-0.6060	0.2689	-0.7111	-0.2342
8.06	-9.6635	0.0018	-1.6444	0.0169	-0.0055	0.0057	8.4329	-18.6960	12.4283	-0.6060	0.2689	-0.7111	-0.2342
8.07	-9.6502	0.0329	-1.6195	0.0199	-0.0031	0.0068	8.2577	-18.7380	12.5903	-0.6060	0.2688	-0.7111	-0.2341
8.08	-9.6519	0.0526	-1.5996	0.0182	-0.0083	0.0067	8.5006	-18.7028	12.6011	-0.6061	0.2688	-0.7110	-0.2341
8.09	-9.6658	0.0549	-1.5858	0.0200	-0.0044	0.0092	8.3426	-18.7489	12.4954	-0.6061	0.2688	-0.7110	-0.2341
8.1	-9.6669	0.0416	-1.5735	0.0183	-0.0087	0.0115	8.1189	-18.5395	12.6498	-0.6062	0.2687	-0.7110	-0.2341
8.11	-9.6469	0.0200	-1.5529	0.0204	-0.0056	0.0089	8.2567	-18.5690	12.5816	-0.6062	0.2687	-0.7110	-0.2341
8.12	-9.6369	0.0015	-1.5239	0.0116	-0.0060	0.0101	8.1893	-18.5395	12.5042	-0.6062	0.2687	-0.7110	-0.2341
8.13	-9.6477	-0.0128	-1.5139	0.0128	-0.0103	0.0112	8.0297	-18.6581	12.5585	-0.6063	0.2686	-0.7110	-0.2341
8.14	-9.6456	-0.0157	-1.5008	0.0130	-0.0031	0.0071	8.2086	-18.4410	12.3878	-0.6063	0.2686	-0.7110	-0.2341
8.15	-9.6431	-0.0163	-1.5004	0.0189	-0.0006	0.0077	8.2954	-18.5127	12.6726	-0.6063	0.2686	-0.7110	-0.2341
8.16	-9.6450	-0.0085	-1.5065	0.0182	-0.0071	0.0079	7.9492	-18.6028	12.6551	-0.6063	0.2686	-0.7109	-0.2341
8.17	-9.6510	0.0032	-1.5142	0.0119	-0.0068	0.0171	8.0674	-18.4518	12.5040	-0.6064	0.2685	-0.7109	-0.2341
8.18	-9.6391	0.0201	-1.4972	0.0139	-0.0051	0.0116	8.2857	-18.3994	12.7519	-0.6064	0.2685	-0.7109	-0.2341
8.19	-9.6387	0.0329	-1.4960	0.0200	-0.0028	0.0079	8.1042	-18.5232	12.6784	-0.6064	0.2685	-0.7109	-0.2341
8.2	-9.6440	0.0471	-1.4884	0.0179	-0.0001	0.0122	8.0330	-18.3823	12.7159	-0.6064	0.2684	-0.7109	-0.2341
8.21	-9.6412	0.0593	-1.4787	0.0154	-0.0066	0.0099	8.1614	-18.4949	12.5926	-0.6064	0.2684	-0.7109	-0.2341
8.22	-9.6374	0.0719	-1.4780	0.0205	-0.0056	0.0086	8.1471	-18.4646	12.6330	-0.6065	0.2684	-0.7109	-0.2341
8.23	-9.6523	0.0862	-1.4897	0.0197	-0.0092	0.0110	8.3084	-18.5175	12.7885	-0.6065	0.2683	-0.7109	-0.2341
8.24	-9.6530	0.0942	-1.5008	0.0181	-0.0084	0.0104	8.2963	-18.6682	12.3911	-0.6066	0.2683	-0.7109	-0.2341
8.25	-9.6416	0.1049	-1.4967	0.0204	-0.0016	0.0129	8.4278	-18.6010	12.5206	-0.6066	0.2682	-0.7109	-0.2341
8.26	-9.6356	0.1130	-1.4885	0.0144	-0.0001	0.0108	8.4676	-18.7114	12.6185	-0.6066	0.2682	-0.7109	-0.2340
8.27	-9.6455	0.1181	-1.4943	0.0112	-0.0038	0.0096	8.2167	-18.6559	12.4864	-0.6066	0.2682	-0.7109	-0.2341
8.28	-9.6515	0.1202	-1.4979	0.0213	-0.0049	0.0110	8.2317	-18.6390	12.6547	-0.6066	0.2682	-0.7109	-0.2340
8.29	-9.6490	0.1205	-1.4847	0.0058	-0.0104	0.0053	8.2084	-18.6275	12.4715	-0.6067	0.2682	-0.7108	-0.2341
8.3	-9.6485	0.1264	-1.4872	-0.0037	-0.0068	0.0106	8.2842	-18.6986	12.6235	-0.6067	0.2682	-0.7108	-0.2341
8.31	-9.6407	0.1316	-1.4829	0.0060	0.0003	0.0099	8.3134	-18.7365	12.6201	-0.6067	0.2682	-0.7108	-0.2342
8.32	-9.6386	0.1431	-1.4718	0.0110	-0.0049	0.0066	8.3016	-18.6213	12.6320	-0.6067	0.2682	-0.7108	-0.2342
8.33	-9.6474	0.1526	-1.4636	0.0085	0.0031	0.0097	8.1625	-18.7762	12.4466	-0.6067	0.2682	-0.7108	-0.2342
8.34	-9.6476	0.1643	-1.4583	0.0122	-0.0018	0.0079	8.3907	-18.3789	12.7758	-0.6067	0.2682	-0.7108	-0.2342
8.35	-9.6332	0.1838	-1.4470	0.0055	0.0059	0.0006	8.2752	-18.4027	12.7941	-0.6067	0.2683	-0.7108	-0.2341
8.36	-9.6410	0.1979	-1.4511	0.0068	0.0085	0.0046	8.2318	-18.4832	12.6875	-0.6066	0.2683	-0.7108	-0.2341
8.37	-9.6437	0.2085	-1.4615	0.0005	0.0047	0.0067	8.1461	-18.5130	12.6656	-0.6066	0.2684	-0.7108	-0.2342
8.38	-9.6459	0.2086	-1.4656	0.0057	0.0099	0.0076	8.2276	-18.6078	12.5778	-0.6066	0.2684	-0.7108	-0.2342
8.39	-9.6517	0.1999	-1.4809	0.0049	0.0111	0.0037	8.1897	-18.3194	12.7498	-0.6065	0.2684	-0.7108	-0.2342
8.4	-9.6387	0.1922	-1.4831	-0.0000	0.0134	0.0039	8.1763	-18.6120	12.6375	-0.6065	0.2685	-0.7108	-0.2342
8.41	-9.6366	0.1770	-1.4966	-0.0030	0.0118	-0.0046	8.1815	-18.4696	12.6443	-0.6064	0.2686	-0.7108	-0.2342
8.42	-9.6294	0.1714	-1.4886	-0.0058	0.0086	0.0023	8.1624	-18.7133	12.9193	-0.6064	0.2687	-0.7108	-0.2342
8.43	-9.6503	0.1507	-1.5188	-0.0049	0.0073	0.0046	8.8145	-18.2561	12.8577	-0.6063	0.2688	-0.7108	-0.2342
8.44	-9.6624	0.1509	-1.5373	-0.0023	0.0054	0.0015	8.8673	-18.8077	12.8301	-0.6063	0.2688	-0.7108	-0.2342
8.45	-9.6400	0.1385	-1.5447	0.0017	0.0065	0.0052	8.4607	-19.8893	12.7403	-0.6063	0.2689	-0.7108	-0.2343
8.46	-9.6631	0.1404	-1.5768	0.0070	0.0042	0.0009	8.3816	-19.1081	12.7689	-0.6063	0.2689	-0.7108	-0.2342
8.47	-9.6507	0.1292	-1.5388	0.0062	0.0042	0.0031	8.4331	-18.8492	12.6633	-0.6062	0.2690	-0.7108	-0.2342
8.48	-9.6268	0.1104	-1.5358	0.0064	-0.0003	-0.0006	8.2091	-18.2332	12.7791	-0.6063	0.2690	-0.7108	-0.2342
8.49	-9.6544	0.0896	-1.5727	0.0066	0.0039	0.0037	8.1880	-18.6705	12.6940	-0.6062	0.2691	-0.7108	-0.2342
8.5	-9.6663	0.0678	-1.5659	0.0041	0.0034	0.0052	8.1955	-18.4829	12.5916	-0.6062	0.2691	-0.7108	-0.2342
8.51	-9.6476	0.0459	-1.5513	0.0076	-0.0005	0.0022	8.2225	-18.3841	12.7479	-0.6062	0.2691	-0.7108	-0.2342
8.52	-9.6505	0.0172	-1.5728	0.0027	-0.0014	0.0069	8.3242	-18.4039	12.5773	-0.6062	0.2692	-0.7108	-0.2343
8.53	-9.6567	-0.0031	-1.5777	0.0032	0.0050	-0.0004	8.1429	-18.4879	12.7154	-0.6062	0.2692	-0.7107	-0.2343
8.54	-9.6436	-0.0355	-1.5727	0.0033	0.0066	-0.0046	8.1477	-18.2561	12.7796	-0.6062	0.2693	-0.7107	-0.2342
8.55	-9.6449	-0.0626	-1.5683	0.0064	-0.0009	0.0017	8.3861	-18.4131	12.5797	-0.6062	0.2693	-0.7107	-0.2342
8.56	-9.6533	-0.0827	-1.5673	-0.0017	0.0029	-0.0039	8.2747	-18.3086	12.6977	-0.6062	0.2694	-0.7107	-0.2342
8.57	-9.6606	-0.0993	-1.5759	-0.0027	0.0018	-0.0043	8.2594	-18.4327	12.6766	-0.6062	0.2695	-0.7107	-0.2342
8.58	-9.6613	-0.1114	-1.5803	-0.0018	-0.0057	0.0041	8.3183	-18.5002	12.7344	-0.6062	0.2696	-0.7106	-0.2343
8.59	-9.6454	-0.1219	-1.5841	0.0125	0.0001	0.0039	8.3737	-18.4742	12.8112	-0.6062	0.2696	-0.7106	-0.2343
8.6	-9.6451	-0.1295	-1.5911	0.0115	0.0012	0.0051	8.2670	-18.4912	12.7498	-0.6062	0.2696	-0.7106	-0.2343
8.61	-9.6622	-0.1375	-1.6018	0.0109	-0.0082	0.0090	8.2574	-18.3674	12.8208	-0.6062	0.2696	-0.7106	-0.2343
8.62	-9.6503	-0.1454	-1.5882	0.0045	-0.0089	0.0071	8.3296	-18.4380	12.6666	-0.6062	0.2696	-0.7106	-0.2343
8.63	-9.6470	-0.1468	-1.5850	0.0143	-0.0033	0.0057	8.3782	-18.2951	12.4944	-0.6063	0.2696	-0.7105	-0.2343
8.64	-9.6477	-0.1479	-1.5776	0.0073	0.0041	0.0073	8.2560	-18.3503	12.6090	-0.6062	0.2696	-0.7106	-0.2343
8.65	-9.6464	-0.1431	-1.5642	0.0116	-0.0018	0.0115	8.2868	-18.2495	12.7749	-0.6062	0.2696	-0.7106	-0.2343
8.66	-9.6481	-0.1339	-1.5538	0.0141	-0.0056	0.0091	8.4640	-18.3203	12.9543	-0.6063	0.2696	-0.7105	-0.2343
8.67	-9.6456	-0.1166	-1.5356	0.0076	-0.0070	0.0096	8.2347	-18.6180	12.9820	-0.6063	0.2696	-0.7105	-0.2343
8.68	-9.6490	-0.0997	-1.5339	0.0178	-0.0080	0.0125	8.3198	-18.5311	12.7869	-0.6063	0.2696	-0.7105	-0.2343
8.69	-9.6454	-0.0751	-1.5203	0.0112	-0.0027	0.0172	8.4877	-18.2583	12.6722	-0.6063	0.2695	-0.7105	-0.2344
8.7	-9.6482	-0.0520	-1.5057	0.0119	-0.0081	0.0130	8.3536	-18.2601	12.6691	-0.6063	0.2695	-0.7105	-0.2344
8.71	-9.6427	-0.0222	-1.4875	0.0172	-0.0076	0.0140	8.2540	-18.5655	12.8367	-0.6064	0.2694	-0.7105	-0.2344
8.72	-9.6354	0.0059	-1.4785	0.0201	-0.0055	0.0110	8.1775	-18.3770	12.7903	-0.6064	0.2694	-0.7105	-0.2344
8.73	-9.6275	0.0349	-1.4659	0.0144	-0.0020	0.0137	8.4037	-18.3398	12.4701	-0.6064	0.2694	-0.7105	-0.2344
8.74	-9.6370	0.0579	-1.4602	0.0170	0.0036	0.0160	8.1686	-18.5182	12.9461	-0.6064	0.2693	-0.7105	-0.2344
8.75	-9.6378	0.0789	-1.4528	0.0108	0.0023	0.0136	8.2071	-18.3675	12.7852	-0.6064	0.2693	-0.7105	-0.2344
8.76	-9.6377	0.1021	-1.4455	0.0168	-0.0002	0.0127	8.3196	-18.5876	12.5150	-0.6064	0.2693	-0.7105	-0.2344
8.77	-9.6553	0.1248	-1.4581	0.0090	0.0039	0.0092	8.1895	-18.4946	12.7957	-0.6064	0.2693	-0.7106	-0.2344
8.78	-9.6628	0.1368	-1.4774	0.0130	0.0023	0.0107	8.1945	-18.3989	12.6776	-0.6063	0.2693	-0.7106	-0.2344
8.79	-9.6451	0.1480	-1.4766	0.0188	0.0024	0.0136	8.1954	-18.3906	12.6892	-0.6063	0.2693	-0.7106	-0.2343
8.8	-9.6364	0.1642	-1.4843	0.0173	-0.0019	0.0126	8.1957	-18.4536	12.6898	-0.6063	0.2692	-0.7106	-0.2343
8.81	-9.6492	0.1708	-1.4939	0.0139	0.0013	0.0125	8.1838	-18.5661	12.6969	-0.6063	0.2692	-0.7106	-0.2343
8.82	-9.6429	0.1739	-1.4954	0.0122	0.0021	0.0119	8.4046	-18.6851	12.5950	-0.6063	0.2692	-0.7106	-0.2343
8.83	-9.6381	0.1696	-1.5000	0.0160	0.0023	0.0099	8.4467	-18.5637	12.6218	-0.6063	0.2692	-0.7106	-0.2343
8.84	-9.6529	0.1711	-1.5204	0.0146	0.0096	0.0096	8.1878	-18.4208	12.5839	-0.6063	0.2692	-0.7107	-0.2343
8.85	-9.6461	0.1738	-1.5346	0.0117	0.0076	0.0096	8.2082	-18.7023	12.7127	-0.6063	0.2692	-0.7107	-0.2343
8.86	-9.6412	0.1794	-1.5293	0.0191	0.0036	0.0064	8.2753	-18.6012	12.6820	-0.6063	0.2692	-0.7107	-0.2342
8.87	-9.6567	0.1831	-1.5472	0.0195	0.0039	0.0102	8.1478	-18.5660	12.7323	-0.6063	0.2692	-0.7107	-0.2342
8.88	-9.6544	0.1854	-1.5571	0.0188	0.0017	0.0067	8.2808	-18.5112	12.8847	-0.6063	0.2692	-0.7107	-0.2341
8.89	-9.6462	0.1781	-1.5602	0.0192	-0.0024	0.0100	8.3570	-18.3549	12.8559	-0.6063	0.2691	-0.7108	-0.2341
8.9	-9.6488	0.1731	-1.5761	0.0179	-0.0015	0.0039	8.2216	-18.5914	12.5880	-0.6063	0.2691	-0.7108	-0.2341
8.91	-9.6532	0.1545	-1.5940	0.0072	0.0027	-0.0006	8.1775	-18.5273	12.6726	-0.6063	0.2692	-0.7107	-0.2340
8.92	-9.6537	0.1275	-1.6005	0.0101	0.0025	0.0028	8.2666	-18.5124	12.7758	-0.6063	0.2692	-0.7107	-0.2340
8.93	-9.6465	0.0983	-1.5900	0.0197	-0.0094	0.0007	8.6112	-18.0500	12.9207	-0.6063	0.2692	-0.7107	-0.2340
8.94	-9.6588	0.0774	-1.5718	0.0092	0.0024	0.0049	8.7090	-18.6560	13.0183	-0.6064	0.2692	-0.7107	-0.2340
8.95	-9.6596	0.0595	-1.5585	0.0031	-0.0002	0.0028	8.2160	-19.9636	12.9710	-0.6063	0.2693	-0.7107	-0.2340
8.96	-9.6407	0.0383	-1.5362	0.0050	0.0021	0.0042	8.1869	-18.9495	12.7132	-0.6063	0.2693	-0.7107	-0.2340
8.97	-9.6503	0.0242	-1.5272	0.0173	-0.0005	0.0031	8.1832	-18.6461	12.7614	-0.6063	0.2693	-0.7107	-0.2339
8.98	-9.6523	0.0089	-1.5223	0.0069	-0.0020	0.0036	8.1545	-18.5961	12.7553	-0.6064	0.2694	-0.7107	-0.2339
8.99	-9.6438	-0.0122	-1.5188	0.0039	-0.0015	0.0055	8.4326	-18.5848	12.6839	-0.6064	0.2694	-0.7107	-0.2339
9	-9.6499	-0.0333	-1.5184	0.0112	0.0002	0.0063	8.4482	-18.5471	12.7371	-0.6064	0.2694	-0.7106	-0.2339
9.01	-9.6546	-0.0496	-1.5184	0.0119	0.0007	0.0078	8.5353	-18.6910	12.6949	-0.6064	0.2694	-0.7107	-0.2339
9.02	-9.6436	-0.0564	-1.5059	0.0063	-0.0091	0.0041	8.5056	-18.5382	12.7516	-0.6064	0.2695	-0.7106	-0.2339
9.03	-9.6310	-0.0603	-1.4804	0.0098	-0.0030	0.0041	8.2863	-18.6533	12.5718	-0.6064	0.2695	-0.7106	-0.2339
9.04	-9.6452	-0.0613	-1.4867	0.0159	0.0021	0.0072	8.3061	-18.5226	12.7123	-0.6064	0.2695	-0.7106	-0.2339
9.05	-9.6357	-0.0556	-1.4672	0.0097	0.0080	0.0048	8.1641	-18.6071	12.7923	-0.6064	0.2695	-0.7106	-0.2339
9.06	-9.6363	-0.0485	-1.4511	0.0108	0.0046	0.0091	8.4145	-18.3747	12.5704	-0.6064	0.2695	-0.7106	-0.2339
9.07	-9.6613	-0.0369	-1.4598	0.0061	-0.0032	0.0084	8.4675	-18.5018	12.7706	-0.6064	0.2695	-0.7106	-0.2339
9.08	-9.6387	-0.0195	-1.4245	0.0088	-0.0077	0.0096	8.3331	-18.4344	12.9456	-0.6064	0.2695	-0.7106	-0.2339
9.09	-9.6187	-0.0127	-1.4066	0.0063	-0.0054	0.0108	8.2391	-18.3636	12.7282	-0.6064	0.2695	-0.7106	-0.2339
9.1	-9.6360	-0.0061	-1.4065	-0.0032	0.0134	0.0119	8.1477	-18.5071	12.5985	-0.6063	0.2696	-0.7106	-0.2339
9.11	-9.6301	-0.0034	-1.3883	-0.0048	0.0025	0.0071	8.1373	-18.4560	12.6235	-0.6063	0.2696	-0.7106	-0.2340
9.12	-9.6308	-0.0029	-1.3768	-0.0050	0.0173	0.0092	8.2021	-18.5230	12.6378	-0.6062	0.2697	-0.7106	-0.2340
9.13	-9.6303	0.0069	-1.3672	0.0012	0.0123	0.0110	8.2462	-18.3048	12.8489	-0.6061	0.2698	-0.7107	-0.2340
9.14	-9.6346	0.0197	-1.3632	-0.0035	0.0180	0.0074	8.1242	-18.3264	12.5150	-0.6061	0.2698	-0.7107	-0.2341
9.15	-9.6411	0.0351	-1.3747	-0.0049	0.0126	0.0126	8.1806	-18.4215	12.6262	-0.6060	0.2699	-0.7107	-0.2341
9.16	-9.6294	0.0469	-1.3830	-0.0018	0.0178	0.0087	8.3100	-18.3826	12.6907	-0.6059	0.2699	-0.7108	-0.2341
9.17	-9.6354	0.0587	-1.4052	-0.0006	0.0176	0.0139	8.3082	-18.3949	12.4780	-0.6058	0.2700	-0.7108	-0.2342
9.18	-9.6426	0.0685	-1.4484	-0.0004	0.0154	0.0117	8.4274	-18.5085	12.8107	-0.6058	0.2700	-0.7108	-0.2342
9.19	-9.6441	0.0734	-1.4957	0.0046	0.0098	0.0127	8.3209	-18.5839	12.5745	-0.6057	0.2701	-0.7109	-0.2342
9.2	-9.6521	0.0716	-1.5286	0.0032	0.0167	0.0095	8.3710	-18.5338	12.4705	-0.6056	0.2701	-0.7109	-0.2342
9.21	-9.6584	0.0701	-1.5685	0.0011	0.0195	0.0103	8.5137	-18.5870	12.3106	-0.6056	0.2702	-0.7110	-0.2342
9.22	-9.6564	0.0773	-1.6071	0.0011	0.0174	0.0107	8.3150	-18.3672	12.5989	-0.6055	0.2702	-0.7110	-0.2342
9.23	-9.6472	0.0819	-1.6309	0.0042	0.0157	0.0100	8.3292	-18.5292	12.7226	-0.6054	0.2702	-0.7110	-0.2342
9.24	-9.6519	0.1012	-1.6549	0.0101	0.0197	0.0103	8.2173	-18.5681	12.3872	-0.6053	0.2703	-0.7111	-0.2342
9.25	-9.6600	0.1102	-1.6779	0.0044	0.0153	0.0102	8.3595	-18.4757	12.7084	-0.6053	0.2703	-0.7111	-0.2342
9.26	-9.6606	0.1261	-1.6937	0.0121	0.0144	0.0121	8.2241	-18.7350	12.6972	-0.6052	0.2703	-0.7112	-0.2342
9.27	-9.6581	0.1324	-1.6948	0.0047	0.0181	0.0120	8.3174	-18.4728	12.7460	-0.6052	0.2703	-0.7112	-0.2342
9.28	-9.6659	0.1341	-1.7070	0.0040	0.0124	0.0111	8.2049	-18.3924	12.4753	-0.6051	0.2704	-0.7113	-0.2342
9.29	-9.6713	0.1359	-1.7034	0.0093	0.0118	0.0072	8.1725	-18.2717	12.7214	-0.6051	0.2704	-0.7113	-0.2342
9.3	-9.6615	0.1255	-1.6904	0.0033	0.0064	0.0059	8.2152	-18.3976	12.5774	-0.6050	0.2704	-0.7113	-0.2342
9.31	-9.6583	0.1138	-1.6841	0.0084	0.0085	0.0034	8.0452	-18.3210	12.5032	-0.6050	0.2705	-0.7113	-0.2342
9.32	-9.6585	0.1092	-1.6670	0.0050	0.0131	0.0070	8.1762	-18.4076	12.5281	-0.6050	0.2705	-0.7113	-0.2342
9.33	-9.6643	0.1098	-1.6571	0.0087	-0.0028	0.0089	8.0128	-18.3906	12.5603	-0.6050	0.2705	-0.7113	-0.2342
9.34	-9.6583	0.1126	-1.6437	0.0094	-0.0017	0.0092	8.1665	-18.4527	12.6438	-0.6050	0.2705	-0.7113	-0.2342
9.35	-9.6477	0.1228	-1.6226	0.0118	0.0006	0.0089	8.1365	-18.5141	12.6046	-0.6050	0.2706	-0.7113	-0.2342
9.36	-9.6505	0.1321	-1.6014	0.0094	-0.0081	0.0042	8.0681	-18.4255	12.5013	-0.6050	0.2706	-0.7113	-0.2342
9.37	-9.6410	0.1454	-1.5656	0.0086	-0.0092	0.0031	8.2420	-18.4489	12.7786	-0.6050	0.2706	-0.7112	-0.2342
9.38	-9.6569	0.1469	-1.5561	0.0143	-0.0063	0.0048	8.4933	-18.7712	12.7493	-0.6051	0.2706	-0.7112	-0.2342
9.39	-9.6341	0.1646	-1.5101	0.0166	-0.0099	0.0120	8.4505	-18.6776	12.5913	-0.6051	0.2706	-0.7112	-0.2342
9.4	-9.6581	0.1358	-1.5103	0.0053	-0.0033	0.0037	8.2563	-18.5073	12.6659	-0.6051	0.2706	-0.7112	-0.2342
9.41	-9.6777	0.1454	-1.5526	0.0115	-0.0049	0.0056	8.3761	-18.7261	12.7512	-0.6052	0.2706	-0.7112	-0.2342
9.42	-9.5793	0.1312	-1.4105	0.0118	-0.0016	0.0095	8.5486	-18.7827	12.6687	-0.6052	0.2706	-0.7111	-0.2342
9.43	-9.6456	0.1178	-1.4744	0.0116	-0.0002	0.0056	8.6724	-18.1443	13.0293	-0.6052	0.2706	-0.7111	-0.2342
9.44	-9.6781	0.0744	-1.4575	0.0134	-0.0050	0.0078	8.7327	-18.8985	12.8581	-0.6052	0.2706	-0.7111	-0.2341
9.45	-9.6412	0.0367	-1.4690	0.0122	-0.0020	0.0056	8.3180	-19.8674	12.5240	-0.6052	0.2706	-0.7111	-0.2341
9.46	-9.6094	-0.0282	-1.4334	0.0110	0.0010	-0.0016	8.2439	-18.9162	12.6673	-0.6052	0.2706	-0.7111	-0.2341
9.47	-9.6580	-0.0948	-1.4940	0.0046	0.0001	0.0037	8.1105	-18.6157	12.7867	-0.6052	0.2707	-0.7111	-0.2341
9.48	-9.6362	-0.1221	-1.4894	0.0131	-0.0016	0.0040	8.1824	-18.3863	12.8557	-0.6052	0.2707	-0.7111	-0.2341
9.49	-9.6632	-0.1983	-1.5865	0.0103	0.0018	0.0059	8.1996	-18.4803	12.6548	-0.6052	0.2707	-0.7111	-0.2341
9.5	-9.6713	-0.2595	-1.6605	0.0183	-0.0040	0.0077	8.2216	-18.3622	12.8191	-0.6053	0.2707	-0.7111	-0.2341
9.51	-9.5996	-0.2765	-1.5769	0.0226	-0.0014	0.0106	8.4348	-18.5923	12.5988	-0.6053	0.2706	-0.7111	-0.2340
9.52	-9.6241	-0.1507	-1.5146	0.0255	0.0016	0.0077	8.2617	-18.2839	12.6327	-0.6053	0.2706	-0.7111	-0.2340
9.53	-9.6593	-0.0118	-1.4795	0.0262	0.0037	0.0067	8.2263	-18.3795	12.4777	-0.6053	0.2706	-0.7111	-0.2339
9.54	-9.6416	0.0792	-1.4400	0.0258	-0.0044	0.0089	8.2760	-18.4644	12.5796	-0.6053	0.2705	-0.7111	-0.2339
9.55	-9.6365	0.1153	-1.4366	0.0159	-0.0059	0.0127	8.1531	-18.2532	12.5788	-0.6054	0.2705	-0.7111	-0.2338
9.56	-9.6528	0.0904	-1.4650	0.0158	0.0037	0.0053	8.3717	-18.5028	12.7835	-0.6054	0.2705	-0.7111	-0.2338
9.57	-9.6507	0.0602	-1.4586	0.0102	-0.0031	0.0127	8.2675	-18.5123	12.8890	-0.6054	0.2705	-0.7111	-0.2338
9.58	-9.6283	0.0180	-1.4361	0.0081	-0.0087	0.0128	8.2707	-18.5698	12.7194	-0.6054	0.2704	-0.7111	-0.2339
9.59	-9.6512	-0.0303	-1.4659	0.0085	0.0027	0.0088	8.3406	-18.3958	12.6552	-0.6054	0.2705	-0.7111	-0.2339
9.6	-9.6464	-0.0665	-1.4823	0.0054	-0.0005	0.0111	8.4531	-18.4055	12.9247	-0.6054	0.2705	-0.7111	-0.2339
9.61	-9.6403	-0.0804	-1.4933	0.0145	0.0051	0.0113	8.3203	-18.3090	12.6737	-0.6054	0.2705	-0.7111	-0.2339
9.62	-9.6565	-0.0695	-1.5430	0.0155	0.0050	0.0119	8.2497	-18.5111	12.6152	-0.6054	0.2704	-0.7111	-0.2339
9.63	-9.6326	-0.0225	-1.5471	0.0211	0.0067	0.0110	8.3868	-18.4049	12.5015	-0.6053	0.2704	-0.7112	-0.2338
9.64	-9.6007	0.0911	-1.4807	0.0195	0.0048	0.0129	8.3344	-18.4936	12.6735	-0.6053	0.2704	-0.7112	-0.2338
9.65	-9.6465	0.2088	-1.4797	0.0211	0.0127	0.0170	8.2943	-18.5117	12.6204	-0.6053	0.2703	-0.7112	-0.2338
9.66	-9.6784	0.2567	-1.5136	0.0195	0.0106	0.0159	8.1847	-18.6435	12.5200	-0.6053	0.2703	-0.7113	-0.2338
9.67	-9.6481	0.2548	-1.5186	0.0143	0.0086	0.0126	7.9913	-18.2867	12.8268	-0.6052	0.2703	-0.7113	-0.2337
9.68	-9.6428	0.2124	-1.5491	0.0013	0.0065	0.0086	8.1899	-18.3729	12.6325	-0.6052	0.2703	-0.7113	-0.2338
9.69	-9.6594	0.1610	-1.5718	0.0024	0.0044	0.0117	8.3622	-18.4018	12.5838	-0.6052	0.2704	-0.7113	-0.2338
9.7	-9.6523	0.1015	-1.5774	-0.0002	0.0050	0.0072	8.3185	-18.4851	12.7017	-0.6052	0.2704	-0.7113	-0.2338
9.71	-9.6480	0.0530	-1.5834	0.0026	0.0000	0.0057	8.1465	-18.4907	12.6844	-0.6051	0.2704	-0.7113	-0.2338
9.72	-9.6641	0.0325	-1.6050	0.0087	0.0032	0.0101	8.1666	-18.5163	12.5876	-0.6051	0.2704	-0.7113	-0.2338
9.73	-9.6489	0.0392	-1.5915	0.0166	0.0052	0.0096	8.1722	-18.4124	12.6090	-0.6051	0.2704	-0.7114	-0.2338
9.74	-9.6444	0.0615	-1.5879	0.0148	0.0037	0.0103	8.0770	-18.4987	12.6177	-0.6051	0.2704	-0.7114	-0.2338
9.75	-9.6539	0.0981	-1.5951	0.0179	0.0033	0.0050	8.3808	-18.4739	12.4748	-0.6051	0.2704	-0.7114	-0.2338
9.76	-9.6434	0.1310	-1.5868	0.0179	0.0042	0.0101	8.4650	-18.3802	12.6105	-0.6051	0.2704	-0.7114	-0.2337
9.77	-9.6532	0.1590	-1.5803	0.0117	-0.0059	0.0116	8.3966	-18.4105	12.5283	-0.6051	0.2704	-0.7114	-0.2338
9.78	-9.6552	0.1728	-1.5657	0.0106	-0.0027	0.0070	8.2410	-18.4979	12.5360	-0.6052	0.2704	-0.7114	-0.2338
9.79	-9.6499	0.1607	-1.5596	0.0101	0.0018	0.0090	8.2441	-18.3652	12.4663	-0.6051	0.2704	-0.7114	-0.2338
9.8	-9.6536	0.1380	-1.5494	0.0041	-0.0100	0.0072	8.2589	-18.4944	12.4767	-0.6052	0.2704	-0.7113	-0.2338
9.81	-9.6431	0.1037	-1.5222	-0.0006	-0.0040	0.0089	8.1674	-18.4149	12.5445	-0.6052	0.2704	-0.7113	-0.2338
9.82	-9.6418	0.0736	-1.5216	-0.0013	-0.0050	0.0041	8.3408	-18.4073	12.4039	-0.6052	0.2705	-0.7113	-0.2339
9.83	-9.6443	0.0474	-1.5103	0.0067	-0.0031	0.0087	8.2200	-18.5432	12.6058	-0.6052	0.2705	-0.7112	-0.2339
9.84	-9.6469	0.0288	-1.5085	0.0132	-0.0013	0.0015	8.2031	-18.3941	12.6143	-0.6052	0.2705	-0.7112	-0.2339
9.85	-9.6495	0.0190	-1.5119	0.0107	-0.0001	0.0035	8.2015	-18.5055	12.5138	-0.6052	0.2705	-0.7112	-0.2339
9.86	-9.6443	0.0215	-1.5070	0.0064	-0.0020	0.0078	8.1114	-18.4840	12.5222	-0.6052	0.2705	-0.7112	-0.2339
9.87	-9.6411	0.0321	-1.5027	0.0081	0.0037	0.0062	8.2999	-18.5292	12.7118	-0.6052	0.2706	-0.7112	-0.2339
9.88	-9.6440	0.0452	-1.5053	0.0085	0.0028	0.0072	8.2066	-18.6258	12.6219	-0.6052	0.2706	-0.7112	-0.2339
9.89	-9.6429	0.0516	-1.5106	-0.0007	0.0016	0.0040	8.2006	-18.4184	12.4962	-0.6052	0.2706	-0.7112	-0.2339
9.9	-9.6318	0.0577	-1.4967	0.0046	-0.0028	0.0084	8.2123	-18.4568	12.6834	-0.6052	0.2707	-0.7112	-0.2339
9.91	-9.6410	0.0588	-1.5088	0.0067	0.0018	0.0114	8.1772	-18.3311	12.6921	-0.6052	0.2707	-0.7112	-0.2340
9.92	-9.6515	0.0469	-1.5133	0.0055	-0.0032	0.0064	8.3539	-18.4860	12.6993	-0.6052	0.2707	-0.7111	-0.2340
9.93	-9.6450	0.0366	-1.5124	-0.0022	-0.0070	0.0082	8.8164	-17.8855	12.6871	-0.6052	0.2707	-0.7111	-0.2340
9.94	-9.6410	0.0247	-1.5086	0.0014	-0.0050	0.0116	8.8661	-18.6160	12.6077	-0.6052	0.2707	-0.7111	-0.2341
9.95	-9.6411	0.0179	-1.5117	0.0134	-0.0009	0.0072	8.5838	-19.9329	12.6591	-0.6052	0.2707	-0.7111	-0.2341
9.96	-9.6407	0.0115	-1.5032	0.0147	0.0041	0.0114	8.5810	-19.1694	12.5888	-0.6052	0.2707	-0.7111	-0.2341
9.97	-9.6414	0.0087	-1.4999	0.0139	0.0069	0.0075	8.4524	-18.8473	12.5241	-0.6052	0.2707	-0.7111	-0.2341
9.98	-9.6517	0.0059	-1.5130	0.0104	0.0006	0.0069	8.2609	-18.2366	12.5584	-0.6052	0.2707	-0.7111	-0.2340
9.99	-9.6519	0.0019	-1.5239	0.0083	0.0009	0.0110	8.3799	-18.7488	12.8301	-0.6052	0.2707	-0.7111	-0.2341
10	-9.6364	0.0143	-1.5208	0.0145	0.0008	0.0061	8.3386	-18.4988	12.6567	-0.6052	0.2707	-0.7111	-0.2341
10.01	-9.6460	0.0207	-1.5135	0.0166	-0.0030	0.0079	8.1237	-18.3230	12.5983	-0.6052	0.2707	-0.7111	-0.2340
10.02	-9.6575	0.0228	-1.5317	0.0115	-0.0042	0.0039	8.3839	-18.4693	12.6166	-0.6053	0.2707	-0.7111	-0.2340
10.03	-9.6406	0.0306	-1.5275	0.0119	0.0067	0.0074	8.2723	-18.2656	12.6185	-0.6052	0.2707	-0.7111	-0.2340
10.04	-9.6423	0.0337	-1.5275	0.0083	0.0071	0.0046	8.0585	-18.3015	12.5818	-0.6052	0.2707	-0.7111	-0.2340
10.05	-9.6535	0.0357	-1.5436	0.0063	0.0124	0.0088	8.2213	-18.4675	12.6836	-0.6052	0.2708	-0.7111	-0.2340
10.06	-9.6487	0.0359	-1.5438	0.0078	0.0089	0.0085	8.1165	-18.3722	12.7048	-0.6051	0.2708	-0.7111	-0.2340
10.07	-9.6444	0.0393	-1.5366	0.0060	0.0101	0.0070	8.0419	-18.2809	12.5923	-0.6051	0.2708	-0.7112	-0.2340
10.08	-9.6454	0.0435	-1.5405	0.0102	0.0047	0.0098	8.1581	-18.4221	12.5977	-0.6051	0.2708	-0.7112	-0.2340
10.09	-9.6523	0.0506	-1.5456	0.0043	0.0065	0.0089	8.0999	-18.2847	12.6805	-0.6051	0.2708	-0.7112	-0.2340
10.1	-9.6453	0.0565	-1.5477	0.0051	0.0052	0.0067	8.1441	-18.2901	12.7045	-0.6050	0.2709	-0.7112	-0.2341
10.11	-9.6515	0.0581	-1.5579	0.0151	-0.0000	0.0090	8.0953	-18.4055	12.4518	-0.6051	0.2709	-0.7112	-0.2340
10.12	-9.6500	0.0631	-1.5595	0.0053	0.0015	0.0102	8.2184	-18.5161	12.6138	-0.6050	0.2709	-0.7112	-0.2341
10.13	-9.6465	0.0633	-1.5609	-0.0012	-0.0012	0.0114	8.4031	-18.5471	12.6159	-0.6050	0.2709	-0.7112	-0.2341
10.14	-9.6411	0.0685	-1.5511	0.0004	0.0010	0.0140	8.2414	-18.5158	12.6262	-0.6050	0.2709	-0.7112	-0.2342
10.15	-9.6519	0.0706	-1.5468	-0.0007	0.0059	0.0081	8.4783	-18.5598	12.5922	-0.6050	0.2709	-0.7112	-0.2342
10.16	-9.6545	0.0708	-1.5558	0.0068	0.0019	0.0117	8.3239	-18.4514	12.4729	-0.6050	0.2709	-0.7111	-0.2342
10.17	-9.6409	0.0731	-1.5443	0.0000	0.0029	0.0052	8.1875	-18.4561	12.7389	-0.6050	0.2710	-0.7111	-0.2343
10.18	-9.6507	0.0726	-1.5466	0.0037	-0.0001	0.0064	8.3033	-18.6507	12.6714	-0.6050	0.2710	-0.7111	-0.2343
10.19	-9.6521	0.0789	-1.5412	0.0114	0.0094	0.0033	8.2894	-18.4373	12.7821	-0.6049	0.2710	-0.7111	-0.2343
10.2	-9.6431	0.0757	-1.5379	0.0100	0.0016	0.0117	8.2070	-18.4803	12.7242	-0.6049	0.2710	-0.7111	-0.2343
10.21	-9.6378	0.0806	-1.5294	0.0083	0.0058	0.0080	8.2100	-18.2434	12.5826	-0.6049	0.2710	-0.7111	-0.2343
10.22	-9.6463	0.0846	-1.5310	0.0032	0.0079	0.0080	8.1725	-18.4662	12.7640	-0.6049	0.2711	-0.7112	-0.2343
10.23	-9.6457	0.0848	-1.5289	0.0069	0.0011	0.0062	8.0937	-18.3787	12.8089	-0.6049	0.2711	-0.7112	-0.2343
10.24	-9.6466	0.0834	-1.5198	0.0057	-0.0013	0.0069	8.1404	-18.4510	12.6813	-0.6049	0.2711	-0.7111	-0.2344
10.25	-9.6496	0.0770	-1.5230	0.0104	0.0124	0.0030	8.1053	-18.4539	12.7236	-0.6048	0.2711	-0.7111	-0.2343
10.26	-9.6479	0.0733	-1.5243	0.0098	0.0076	0.0071	7.9959	-18.3116	12.6246	-0.6048	0.2711	-0.7112	-0.2343
10.27	-9.6433	0.0591	-1.5260	0.0062	0.0057	0.0046	8.1886	-18.2544	12.6614	-0.6048	0.2712	-0.7112	-0.2343
10.28	-9.6428	0.0497	-1.5190	0.0046	0.0062	0.0040	8.2185	-18.5030	12.7320	-0.6048	0.2712	-0.7112	-0.2343
10.29	-9.6503	0.0377	-1.5274	0.0109	0.0032	0.0070	8.2979	-18.2648	12.6584	-0.6048	0.2712	-0.7112	-0.2343
10.3	-9.6434	0.0314	-1.5214	0.0043	0.0033	0.0097	8.0799	-18.4069	12.5663	-0.6048	0.2712	-0.7112	-0.2343
10.31	-9.6322	0.0304	-1.5182	0.0138	0.0054	0.0067	8.3616	-18.5261	12.8065	-0.6048	0.2712	-0.7112	-0.2343
10.32	-9.6396	0.0335	-1.5153	0.0069	0.0103	0.0080	8.3782	-18.6775	12.5896	-0.6047	0.2713	-0.7112	-0.2343
10.33	-9.6382	0.0403	-1.5160	-0.0038	0.0050	0.0087	8.3587	-18.4643	12.4854	-0.6047	0.2713	-0.7112	-0.2344
10.34	-9.6424	0.0375	-1.5107	0.0013	-0.0035	0.0086	8.3770	-18.3649	12.6200	-0.6047	0.2713	-0.7112	-0.2344
10.35	-9.6545	0.0401	-1.5196	0.0099	-0.0019	0.0026	8.3531	-18.6696	12.6862	-0.6047	0.2713	-0.7112	-0.2344
10.36	-9.6486	0.0390	-1.5258	0.0019	0.0052	0.0030	8.2729	-18.4726	12.6541	-0.6047	0.2714	-0.7111	-0.2344
10.37	-9.6416	0.0352	-1.5185	0.0030	0.0116	0.0084	8.2782	-18.4255	12.8359	-0.6047	0.2714	-0.7112	-0.2345
10.38	-9.6518	0.0328	-1.5293	0.0064	0.0060	0.0038	8.3058	-18.5482	12.4036	-0.6046	0.2715	-0.7112	-0.2345
10.39	-9.6540	0.0300	-1.5301	0.0074	0.0005	0.0100	8.1768	-18.5113	12.4577	-0.6046	0.2715	-0.7112	-0.2345
10.4	-9.6455	0.0347	-1.5285	0.0124	0.0055	0.0066	8.2557	-18.2972	12.5673	-0.6046	0.2715	-0.7112	-0.2345
10.41	-9.6374	0.0317	-1.5285	0.0076	0.0039	0.0045	8.0465	-18.3454	12.6685	-0.6046	0.2715	-0.7112	-0.2345
10.42	-9.6485	0.0361	-1.5384	0.0022	0.0010	0.0086	8.1775	-18.6220	12.8827	-0.6046	0.2715	-0.7111	-0.2345
10.43	-9.6508	0.0356	-1.5396	0.0083	0.0019	0.0085	8.5422	-18.0388	13.0052	-0.6046	0.2715	-0.7111	-0.2345
10.44	-9.6366	0.0447	-1.5288	0.0079	-0.0022	0.0093	8.4989	-18.6705	12.9553	-0.6046	0.2715	-0.7111	-0.2345
10.45	-9.6392	0.0562	-1.5394	0.0012	-0.0030	0.0080	8.3766	-19.8900	12.7633	-0.6046	0.2715	-0.7111	-0.2346
10.46	-9.6446	0.0593	-1.5508	0.0148	0.0035	0.0142	8.2706	-19.0372	12.5528	-0.6046	0.2715	-0.7111	-0.2346
10.47	-9.6464	0.0698	-1.5459	0.0002	-0.0017	0.0068	8.2946	-18.7924	12.5682	-0.6046	0.2715	-0.7111	-0.2346
10.48	-9.6458	0.0685	-1.5376	0.0067	-0.0013	0.0072	8.1637	-18.1347	12.6404	-0.6046	0.2715	-0.7111	-0.2347
10.49	-9.6507	0.0678	-1.5339	0.0069	0.0029	0.0098	8.0744	-18.3992	12.5818	-0.6046	0.2715	-0.7111	-0.2347
10.5	-9.6488	0.0684	-1.5439	0.0020	-0.0105	0.0080	8.4594	-18.4071	12.6615	-0.6046	0.2716	-0.7110	-0.2347
10.51	-9.6418	0.0703	-1.5342	0.0066	-0.0025	0.0116	8.3916	-18.5730	12.5399	-0.6047	0.2716	-0.7110	-0.2348
10.52	-9.6475	0.0776	-1.5404	0.0059	-0.0004	0.0146	8.3256	-18.6022	12.6129	-0.6047	0.2715	-0.7110	-0.2348
10.53	-9.6525	0.0802	-1.5418	0.0087	-0.0029	0.0118	8.5615	-18.4629	12.6216	-0.6047	0.2715	-0.7110	-0.2348
10.54	-9.6481	0.0787	-1.5469	0.0095	0.0022	0.0119	8.3561	-18.5512	12.5244	-0.6047	0.2715	-0.7110	-0.2348
10.55	-9.6459	0.0793	-1.5448	0.0097	0.0013	0.0092	8.2186	-18.5570	12.6969	-0.6047	0.2715	-0.7110	-0.2349
10.56	-9.6566	0.0746	-1.5519	0.0034	-0.0014	0.0076	8.1015	-18.3970	12.4024	-0.6047	0.2715	-0.7110	-0.2349
10.57	-9.6447	0.0708	-1.5476	0.0088	-0.0086	0.0073	8.2510	-18.5305	12.4775	-0.6047	0.2715	-0.7109	-0.2349
10.58	-9.6408	0.0602	-1.5438	0.0091	-0.0069	0.0101	8.4008	-18.4800	12.6931	-0.6047	0.2715	-0.7109	-0.2349
10.59	-9.6533	0.0526	-1.5596	0.0070	-0.0030	0.0097	8.2970	-18.5311	12.5086	-0.6047	0.2715	-0.7109	-0.2350
10.6	-9.6462	0.0440	-1.5506	0.0133	-0.0001	0.0113	8.1747	-18.3224	12.5494	-0.6048	0.2715	-0.7109	-0.2350
10.61	-9.6364	0.0388	-1.5375	0.0118	-0.0011	0.0119	8.2332	-18.1102	12.7189	-0.6048	0.2715	-0.7109	-0.2350
10.62	-9.6438	0.0355	-1.5373	0.0062	-0.0078	0.0107	8.2601	-18.4640	12.7156	-0.6048	0.2715	-0.7108	-0.2350
10.63	-9.6513	0.0410	-1.5342	0.0055	-0.0010	0.0077	8.0901	-18.5275	12.6207	-0.6048	0.2715	-0.7108	-0.2351
10.64	-9.6375	0.0462	-1.5239	0.0155	-0.0019	0.0107	8.1394	-18.4030	12.5184	-0.6048	0.2714	-0.7108	-0.2351
10.65	-9.6478	0.0506	-1.5299	0.0169	-0.0039	0.0082	8.2286	-18.4213	12.8038	-0.6048	0.2714	-0.7108	-0.2350
10.66	-9.6576	0.0466	-1.5329	0.0101	-0.0029	0.0105	8.3282	-18.4369	12.7812	-0.6049	0.2714	-0.7108	-0.2351
10.67	-9.6544	0.0450	-1.5259	0.0122	-0.0078	0.0091	8.0573	-18.3193	12.8063	-0.6049	0.2714	-0.7108	-0.2351
10.68	-9.6492	0.0395	-1.5364	0.0124	-0.0095	0.0087	8.3016	-18.3765	12.5282	-0.6049	0.2714	-0.7107	-0.2351
10.69	-9.6568	0.0242	-1.5468	0.0157	-0.0076	0.0119	8.3109	-18.5690	12.5857	-0.6050	0.2713	-0.7107	-0.2351
10.7	-9.6540	0.0117	-1.5559	0.0162	-0.0035	0.0132	8.0561	-18.3827	12.6328	-0.6050	0.2713	-0.7107	-0.2351
10.71	-9.6347	-0.0012	-1.5430	0.0077	-0.0109	0.0133	8.3333	-18.6346	12.6094	-0.6050	0.2712	-0.7107	-0.2351
10.72	-9.6453	-0.0082	-1.5639	0.0084	-0.0015	0.0084	8.6180	-18.5197	12.5076	-0.6051	0.2712	-0.7107	-0.2352
10.73	-9.6508	-0.0032	-1.5714	0.0141	-0.0043	0.0126	8.3241	-18.5050	12.6028	-0.6051	0.2712	-0.7107	-0.2352
10.74	-9.6478	0.0058	-1.5648	0.0045	-0.0043	0.0161	8.1765	-18.4153	12.6308	-0.6051	0.2712	-0.7106	-0.2352
10.75	-9.6459	0.0156	-1.5689	0.0081	-0.0038	0.0113	8.3008	-18.5341	12.6030	-0.6051	0.2712	-0.7106	-0.2353
10.76	-9.6555	0.0254	-1.5725	0.0156	-0.0041	0.0101	8.2802	-18.4331	12.6481	-0.6051	0.2712	-0.7106	-0.2353
10.77	-9.6418	0.0378	-1.5491	0.0117	-0.0060	0.0124	8.2242	-18.1976	12.5104	-0.6052	0.2711	-0.7106	-0.2353
10.78	-9.6419	0.0449	-1.5452	0.0137	0.0012	0.0114	8.0937	-18.4787	12.6329	-0.6052	0.2711	-0.7106	-0.2353
10.79	-9.6519	0.0479	-1.5414	0.0089	-0.0040	0.0122	8.2495	-18.6040	12.7218	-0.6052	0.2711	-0.7106	-0.2353
10.8	-9.6511	0.0524	-1.5274	0.0139	-0.0068	0.0117	8.1139	-18.5935	12.5143	-0.6052	0.2711	-0.7105	-0.2353
10.81	-9.6400	0.0498	-1.5080	0.0159	-0.0051	0.0207	8.1919	-18.5113	12.5455	-0.6052	0.2710	-0.7106	-0.2354
10.82	-9.6374	0.0556	-1.4987	0.0083	-0.0048	0.0136	8.3054	-18.3946	12.6083	-0.6052	0.2710	-0.7105	-0.2354
10.83	-9.6480	0.0672	-1.4912	0.0083	-0.0081	0.0134	8.1096	-18.5916	12.5143	-0.6053	0.2709	-0.7105	-0.2354
10.84	-9.6407	0.0777	-1.4778	0.0099	-0.0028	0.0124	8.1746	-18.5391	12.7976	-0.6053	0.2709	-0.7105	-0.2355
10.85	-9.6317	0.0886	-1.4694	0.0122	0.0022	0.0115	8.2856	-18.3812	12.8024	-0.6053	0.2709	-0.7105	-0.2355
10.86	-9.6460	0.0931	-1.4732	0.0158	-0.0061	0.0123	8.1676	-18.4743	12.5250	-0.6053	0.2709	-0.7105	-0.2355
10.87	-9.6502	0.0899	-1.4747	0.0128	-0.0030	0.0112	8.2466	-18.6754	12.5905	-0.6053	0.2708	-0.7105	-0.2355
10.88	-9.6322	0.0839	-1.4760	0.0123	-0.0004	0.0100	8.3639	-18.6049	12.6520	-0.6053	0.2708	-0.7105	-0.2355
10.89	-9.6390	0.0766	-1.4859	0.0102	0.0005	0.0109	8.4502	-18.6263	12.5037	-0.6053	0.2708	-0.7105	-0.2355
10.9	-9.6472	0.0667	-1.5050	0.0133	-0.0050	0.0077	8.3180	-18.7423	12.4392	-0.6054	0.2708	-0.7105	-0.2355
10.91	-9.6475	0.0571	-1.5046	0.0093	-0.0008	0.0207	8.2032	-18.5110	12.7080	-0.6054	0.2708	-0.7105	-0.2355
10.92	-9.6428	0.0500	-1.5161	0.0097	0.0015	0.0128	8.2467	-18.6635	12.7013	-0.6054	0.2707	-0.7105	-0.2356
10.93	-9.6499	0.0432	-1.5301	0.0138	-0.0007	0.0142	8.6480	-18.1608	12.7343	-0.6054	0.2707	-0.7105	-0.2356
10.94	-9.6514	0.0433	-1.5458	0.0123	0.0045	0.0044	8.6658	-18.7148	12.8869	-0.6054	0.2707	-0.7105	-0.2356
10.95	-9.6391	0.0380	-1.5558	0.0084	0.0010	0.0013	8.5122	-19.8605	12.8975	-0.6054	0.2707	-0.7104	-0.2356
10.96	-9.6502	0.0326	-1.5662	0.0090	-0.0018	0.0082	8.3826	-18.9704	12.7163	-0.6054	0.2707	-0.7104	-0.2356
10.97	-9.6556	0.0264	-1.5862	0.0007	0.0049	0.0094	8.1181	-18.6491	12.5210	-0.6054	0.2708	-0.7104	-0.2356
10.98	-9.6445	0.0199	-1.5892	0.0038	0.0014	0.0108	8.1484	-18.3075	12.7128	-0.6054	0.2708	-0.7104	-0.2356
10.99	-9.6536	0.0182	-1.5941	0.0072	-0.0003	0.0111	8.1263	-18.5713	12.8806	-0.6053	0.2708	-0.7104	-0.2357
11	-9.6616	0.0202	-1.6015	0.0047	0.0025	0.0107	8.1410	-18.3724	12.5935	-0.6053	0.2708	-0.7104	-0.2357
11.01	-9.6508	0.0175	-1.5954	0.0045	0.0026	0.0084	8.1408	-18.4412	12.6027	-0.6053	0.2708	-0.7104	-0.2357
11.02	-9.6515	0.0184	-1.5907	0.0115	-0.0010	0.0049	8.1349	-18.4822	12.7948	-0.6053	0.2708	-0.7104	-0.2357
11.03	-9.6544	0.0213	-1.5941	0.0170	0.0012	0.0124	8.0637	-18.3651	12.5384	-0.6054	0.2708	-0.7104	-0.2357
11.04	-9.6457	0.0243	-1.5830	0.0057	-0.0037	0.0150	8.1559	-18.5210	12.6265	-0.6054	0.2708	-0.7104	-0.2357
11.05	-9.6401	0.0381	-1.5647	0.0038	-0.0078	0.0156	8.3375	-18.5543	12.6953	-0.6054	0.2708	-0.7104	-0.2358
11.06	-9.6594	0.0442	-1.5541	0.0036	-0.0055	0.0122	8.4770	-18.5287	12.6802	-0.6054	0.2708	-0.7103	-0.2358
11.07	-9.6603	0.0479	-1.5485	0.0076	-0.0092	0.0093	8.2740	-18.5595	12.4623	-0.6054	0.2708	-0.7103	-0.2359
11.08	-9.6487	0.0493	-1.5271	0.0155	-0.0046	0.0113	8.4541	-18.6552	12.5524	-0.6054	0.2707	-0.7103	-0.2359
11.09	-9.6382	0.0555	-1.5031	0.0062	-0.0079	0.0149	8.4792	-18.5576	12.6348	-0.6055	0.2707	-0.7103	-0.2359
11.1	-9.6373	0.0663	-1.4910	0.0106	-0.0032	0.0111	8.3653	-18.4401	12.4504	-0.6055	0.2707	-0.7102	-0.2359
11.11	-9.6457	0.0736	-1.4823	0.0169	-0.0052	0.0101	8.2951	-18.4834	12.6940	-0.6055	0.2707	-0.7102	-0.2359
11.12	-9.6414	0.0784	-1.4605	0.0113	-0.0066	0.0114	8.2580	-18.6038	12.7454	-0.6055	0.2706	-0.7102	-0.2359
11.13	-9.6453	0.0833	-1.4548	0.0094	-0.0050	0.0072	8.1853	-18.7127	12.5851	-0.6056	0.2706	-0.7102	-0.2359
11.14	-9.6433	0.0878	-1.4413	0.0211	0.0013	0.0097	8.3593	-18.7134	12.3802	-0.6056	0.2706	-0.7102	-0.2359
11.15	-9.6369	0.0919	-1.4393	0.0129	-0.0011	0.0086	8.2223	-18.4146	12.6190	-0.6056	0.2706	-0.7102	-0.2359
11.16	-9.6353	0.0984	-1.4298	0.0059	0.0058	0.0075	8.0493	-18.3842	12.6449	-0.6056	0.2706	-0.7102	-0.2359
11.17	-9.6362	0.1070	-1.4297	0.0115	0.0075	0.0124	8.0600	-18.3001	12.4395	-0.6056	0.2706	-0.7102	-0.2359
11.18	-9.6367	0.1231	-1.4244	0.0094	0.0083	0.0091	8.0741	-18.3027	12.5402	-0.6055	0.2706	-0.7102	-0.2359
11.19	-9.6435	0.1359	-1.4328	0.0109	0.0090	0.0089	8.1923	-18.2866	12.5754	-0.6055	0.2706	-0.7103	-0.2359
11.2	-9.6477	0.1312	-1.4435	0.0108	0.0075	0.0097	8.3014	-18.3675	12.6484	-0.6055	0.2706	-0.7103	-0.2359
11.21	-9.6386	0.1241	-1.4475	0.0100	0.0076	0.0089	8.2924	-18.3925	12.7868	-0.6055	0.2707	-0.7103	-0.2359
11.22	-9.6390	0.1150	-1.4644	0.0061	0.0050	0.0093	8.1704	-18.3642	12.8639	-0.6054	0.2707	-0.7103	-0.2359
11.23	-9.6458	0.1025	-1.4752	0.0058	0.0017	0.0113	8.0937	-18.4345	12.5752	-0.6054	0.2707	-0.7103	-0.2359
11.24	-9.6461	0.0902	-1.4896	0.0160	0.0080	0.0091	8.3246	-18.5593	12.6796	-0.6054	0.2707	-0.7103	-0.2359
11.25	-9.6402	0.0871	-1.4930	0.0096	0.0123	0.0085	8.3681	-18.5319	12.6681	-0.6054	0.2707	-0.7104	-0.2359
11.26	-9.6443	0.0781	-1.5120	0.0124	0.0107	0.0071	8.2823	-18.5583	12.5442	-0.6053	0.2707	-0.7104	-0.2359
11.27	-9.6480	0.0711	-1.5237	0.0157	0.0159	0.0104	8.3016	-18.5124	12.6726	-0.6053	0.2707	-0.7104	-0.2358
11.28	-9.6443	0.0638	-1.5280	0.0128	0.0112	0.0067	8.3116	-18.7499	12.7743	-0.6053	0.2707	-0.7105	-0.2358
11.29	-9.6517	0.0554	-1.5416	0.0147	0.0159	0.0082	8.1326	-18.7887	12.9026	-0.6052	0.2707	-0.7105	-0.2358
11.3	-9.6588	0.0490	-1.5579	0.0157	0.0085	0.0077	8.2272	-18.6408	12.7638	-0.6052	0.2707	-0.7105	-0.2357
11.31	-9.6442	0.0431	-1.5602	0.0168	0.0106	0.0062	8.4058	-18.5427	12.7890	-0.6052	0.2707	-0.7106	-0.2357
11.32	-9.6490	0.0428	-1.5605	0.0120	0.0136	0.0060	8.3691	-18.5394	12.6143	-0.6052	0.2707	-0.7106	-0.2357
11.33	-9.6625	0.0433	-1.5771	0.0155	0.0095	0.0081	8.2267	-18.6916	12.7945	-0.6051	0.2708	-0.7106	-0.2356
11.34	-9.6521	0.0418	-1.5708	0.0185	0.0122	0.0106	8.2703	-18.4759	12.5831	-0.6051	0.2707	-0.7107	-0.2356
11.35	-9.6397	0.0419	-1.5636	0.0126	0.0185	0.0072	8.3251	-18.3753	12.7039	-0.6051	0.2708	-0.7107	-0.2356
11.36	-9.6512	0.0339	-1.5710	0.0149	0.0060	0.0086	8.2580	-18.2445	12.7057	-0.6050	0.2708	-0.7107	-0.2355
11.37	-9.6543	0.0357	-1.5664	0.0072	0.0122	0.0025	8.2004	-18.2355	12.7439	-0.6050	0.2708	-0.7108	-0.2355
11.38	-9.6494	0.0357	-1.5572	0.0124	0.0115	0.0043	8.2225	-18.4086	12.5930	-0.6050	0.2708	-0.7108	-0.2355
